participant,condition,date,expName,psychopyVersion,OS,frameRate,block,phase,trial,learn_mouse_2.x,learn_mouse_2.y,learn_mouse_2.leftButton,learn_mouse_2.midButton,learn_mouse_2.rightButton,learn_mouse_2.time,learn_mouse_2.clicked_name,cat,token,row,col,t_select,cat_mouse_l.x,cat_mouse_l.y,cat_mouse_l.leftButton,cat_mouse_l.midButton,cat_mouse_l.rightButton,cat_mouse_l.time,cat_mouse_l.clicked_name,resp,t_resp,corr,train_trials.thisRepN,train_trials.thisTrialN,train_trials.thisN,train_trials.thisIndex,train_trials.ran,cat_mouse_t.x,cat_mouse_t.y,cat_mouse_t.leftButton,cat_mouse_t.midButton,cat_mouse_t.rightButton,cat_mouse_t.time,cat_mouse_t.clicked_name,test_trials.thisRepN,test_trials.thisTrialN,test_trials.thisN,test_trials.thisIndex,test_trials.ran,Bonus
656e0dab178ffccdaa47202e,TCN,2024-06-20_13h28.01.937,LearnStrategy,2023.2.3,Win32,40,,,,,,,,,,,,,,,,,,,,,,,,,,,,,,,,,,,,,,,,,,,
656e0dab178ffccdaa47202e,TCN,2024-06-20_13h28.01.937,LearnStrategy,2023.2.3,Win32,40,1,1,1,0.024739583,-0.006510417,1,0,0,6.4632,rock_grid_rect_2,7,07,-1,-1,6.463,-0.16796875,-0.248697917,1,0,0,5.6213,Basalt_rect,2,5.621,0,0,0,0,0,1,,,,,,,,,,,,,
656e0dab178ffccdaa47202e,TCN,2024-06-20_13h28.01.937,LearnStrategy,2023.2.3,Win32,40,1,1,2,-0.053385417,-0.01171875,1,0,0,3.7643,rock_grid_rect_2,6,05,-1,-1,3.764,-0.173177083,-0.389322917,1,0,0,7.3509,Pegmatite_rect,6,7.351,1,1,0,1,0,1,,,,,,,,,,,,,
656e0dab178ffccdaa47202e,TCN,2024-06-20_13h28.01.937,LearnStrategy,2023.2.3,Win32,40,1,1,3,-0.009114583,0.002604167,1,0,0,1.8667,rock_grid_rect_2,1,06,-1,-1,1.867,-0.123697917,-0.247395833,1,0,0,4.3022,Basalt_rect,2,4.302,0,2,0,2,0,1,,,,,,,,,,,,,
656e0dab178ffccdaa47202e,TCN,2024-06-20_13h28.01.937,LearnStrategy,2023.2.3,Win32,40,1,1,4,-0.0390625,0.024739583,1,0,0,1.692,rock_grid_rect_2,5,14,-1,-1,1.692,-0.329427083,-0.385416667,1,0,0,2.0847,Obsidian_rect,5,2.085,1,3,0,3,0,1,,,,,,,,,,,,,
656e0dab178ffccdaa47202e,TCN,2024-06-20_13h28.01.937,LearnStrategy,2023.2.3,Win32,40,1,1,5,0.024739583,-0.005208333,1,0,0,5.1177,rock_grid_rect_2,6,16,-1,-1,5.118,0.125,-0.235677083,1,0,0,4.9755,Diorite_rect,3,4.976,0,4,0,4,0,1,,,,,,,,,,,,,
656e0dab178ffccdaa47202e,TCN,2024-06-20_13h28.01.937,LearnStrategy,2023.2.3,Win32,40,1,1,6,-0.001302083,-0.020833333,1,0,0,1.592,rock_grid_rect_2,4,16,-1,-1,1.592,0.338541667,-0.40625,1,0,0,5.1505,Pumice_rect,8,5.15,0,5,0,5,0,1,,,,,,,,,,,,,
656e0dab178ffccdaa47202e,TCN,2024-06-20_13h28.01.937,LearnStrategy,2023.2.3,Win32,40,1,1,7,0.020833333,-0.01171875,1,0,0,1.4929,rock_grid_rect_2,2,12,-1,-1,1.493,-0.346354167,-0.248697917,1,0,0,5.4748,Andesite_rect,1,5.475,0,6,0,6,0,1,,,,,,,,,,,,,
656e0dab178ffccdaa47202e,TCN,2024-06-20_13h28.01.937,LearnStrategy,2023.2.3,Win32,40,1,1,8,0.00390625,0.005208333,1,0,0,1.9175,rock_grid_rect_2,2,16,-1,-1,1.918,0.360677083,-0.25390625,1,0,0,1.9023,Gabbro_rect,4,1.902,0,7,0,7,0,1,,,,,,,,,,,,,
656e0dab178ffccdaa47202e,TCN,2024-06-20_13h28.01.937,LearnStrategy,2023.2.3,Win32,40,1,1,9,0.024739583,-0.016927083,1,0,0,1.569,rock_grid_rect_2,3,09,-1,-1,1.569,-0.087239583,-0.411458333,1,0,0,2.004,Pegmatite_rect,6,2.004,0,8,0,8,0,1,,,,,,,,,,,,,
656e0dab178ffccdaa47202e,TCN,2024-06-20_13h28.01.937,LearnStrategy,2023.2.3,Win32,40,1,1,10,0.009114583,-0.01171875,1,0,0,1.8685,rock_grid_rect_2,7,10,-1,-1,1.868,0.29296875,-0.39453125,1,0,0,4.1777,Pumice_rect,8,4.178,0,9,0,9,0,1,,,,,,,,,,,,,
656e0dab178ffccdaa47202e,TCN,2024-06-20_13h28.01.937,LearnStrategy,2023.2.3,Win32,40,1,1,11,0.03125,-0.0078125,1,0,0,1.868,rock_grid_rect_2,1,03,-1,-1,1.868,-0.127604167,-0.408854167,1,0,0,2.9524,Pegmatite_rect,6,2.952,0,10,0,10,0,1,,,,,,,,,,,,,
656e0dab178ffccdaa47202e,TCN,2024-06-20_13h28.01.937,LearnStrategy,2023.2.3,Win32,40,1,1,12,-0.015625,-0.010416667,1,0,0,1.3696,rock_grid_rect_2,8,09,-1,-1,1.37,0.346354167,-0.3984375,1,0,0,4.8412,Pumice_rect,8,4.841,1,11,0,11,0,1,,,,,,,,,,,,,
656e0dab178ffccdaa47202e,TCN,2024-06-20_13h28.01.937,LearnStrategy,2023.2.3,Win32,40,1,1,13,-0.020833333,-0.0078125,1,0,0,1.9032,rock_grid_rect_2,3,06,-1,-1,1.903,-0.3515625,-0.24609375,1,0,0,2.5765,Andesite_rect,1,2.577,0,12,0,12,0,1,,,,,,,,,,,,,
656e0dab178ffccdaa47202e,TCN,2024-06-20_13h28.01.937,LearnStrategy,2023.2.3,Win32,40,1,1,14,0.013020833,-0.0078125,1,0,0,1.2693,rock_grid_rect_2,5,05,-1,-1,1.269,-0.143229167,-0.39453125,1,0,0,2.2039,Pegmatite_rect,6,2.204,0,13,0,13,0,1,,,,,,,,,,,,,
656e0dab178ffccdaa47202e,TCN,2024-06-20_13h28.01.937,LearnStrategy,2023.2.3,Win32,40,1,1,15,-0.028645833,-0.005208333,1,0,0,1.0684,rock_grid_rect_2,8,03,-1,-1,1.068,0.376302083,-0.403645833,1,0,0,2.952,Pumice_rect,8,2.952,1,14,0,14,0,1,,,,,,,,,,,,,
656e0dab178ffccdaa47202e,TCN,2024-06-20_13h28.01.937,LearnStrategy,2023.2.3,Win32,40,1,1,16,-0.015625,-0.006510417,1,0,0,1.1449,rock_grid_rect_2,4,14,-1,-1,1.145,-0.385416667,-0.25390625,1,0,0,6.5767,Andesite_rect,1,6.577,0,15,0,15,0,1,,,,,,,,,,,,,
656e0dab178ffccdaa47202e,TCN,2024-06-20_13h28.01.937,LearnStrategy,2023.2.3,Win32,40,1,2,1,,,,,,,,4,09,,,,,,,,,,,6,4.851,0,,,,,,-0.109375,-0.407552083,1,0,0,4.8509,Pegmatite_rect,0,0,0,0,1,
656e0dab178ffccdaa47202e,TCN,2024-06-20_13h28.01.937,LearnStrategy,2023.2.3,Win32,40,1,2,2,,,,,,,,8,10,,,,,,,,,,,8,7.824,1,,,,,,0.377604167,-0.415364583,1,0,0,7.8243,Pumice_rect,1,0,1,0,1,
656e0dab178ffccdaa47202e,TCN,2024-06-20_13h28.01.937,LearnStrategy,2023.2.3,Win32,40,1,2,3,,,,,,,,1,04,,,,,,,,,,,7,8.096,0,,,,,,0.15625,-0.416666667,1,0,0,8.0955,Peridotite_rect,2,0,2,0,1,
656e0dab178ffccdaa47202e,TCN,2024-06-20_13h28.01.937,LearnStrategy,2023.2.3,Win32,40,1,2,4,,,,,,,,3,11,,,,,,,,,,,7,4.273,0,,,,,,0.127604167,-0.399739583,1,0,0,4.2728,Peridotite_rect,3,0,3,0,1,
656e0dab178ffccdaa47202e,TCN,2024-06-20_13h28.01.937,LearnStrategy,2023.2.3,Win32,40,1,2,5,,,,,,,,5,06,,,,,,,,,,,5,2.897,1,,,,,,-0.348958333,-0.40234375,1,0,0,2.8969,Obsidian_rect,4,0,4,0,1,
656e0dab178ffccdaa47202e,TCN,2024-06-20_13h28.01.937,LearnStrategy,2023.2.3,Win32,40,1,2,6,,,,,,,,2,09,,,,,,,,,,,2,1.95,1,,,,,,-0.11328125,-0.252604167,1,0,0,1.9505,Basalt_rect,5,0,5,0,1,
656e0dab178ffccdaa47202e,TCN,2024-06-20_13h28.01.937,LearnStrategy,2023.2.3,Win32,40,1,2,7,,,,,,,,7,15,,,,,,,,,,,3,10.349,0,,,,,,0.1171875,-0.251302083,1,0,0,10.3494,Diorite_rect,6,0,6,0,1,
656e0dab178ffccdaa47202e,TCN,2024-06-20_13h28.01.937,LearnStrategy,2023.2.3,Win32,40,1,2,8,,,,,,,,7,05,,,,,,,,,,,3,8.246,0,,,,,,0.063802083,-0.247395833,1,0,0,8.2465,Diorite_rect,7,0,7,0,1,
656e0dab178ffccdaa47202e,TCN,2024-06-20_13h28.01.937,LearnStrategy,2023.2.3,Win32,40,1,2,9,,,,,,,,6,09,,,,,,,,,,,3,1.702,0,,,,,,0.127604167,-0.260416667,1,0,0,1.7018,Diorite_rect,8,0,8,0,1,
656e0dab178ffccdaa47202e,TCN,2024-06-20_13h28.01.937,LearnStrategy,2023.2.3,Win32,40,1,2,10,,,,,,,,8,02,,,,,,,,,,,8,1.649,1,,,,,,0.358072917,-0.403645833,1,0,0,1.6487,Pumice_rect,9,0,9,0,1,
656e0dab178ffccdaa47202e,TCN,2024-06-20_13h28.01.937,LearnStrategy,2023.2.3,Win32,40,1,2,11,,,,,,,,2,06,,,,,,,,,,,4,6.261,0,,,,,,0.352864583,-0.259114583,1,0,0,6.2607,Gabbro_rect,10,0,10,0,1,
656e0dab178ffccdaa47202e,TCN,2024-06-20_13h28.01.937,LearnStrategy,2023.2.3,Win32,40,1,2,12,,,,,,,,6,11,,,,,,,,,,,6,2.58,1,,,,,,-0.12890625,-0.397135417,1,0,0,2.5796,Pegmatite_rect,11,0,11,0,1,
656e0dab178ffccdaa47202e,TCN,2024-06-20_13h28.01.937,LearnStrategy,2023.2.3,Win32,40,1,2,13,,,,,,,,1,14,,,,,,,,,,,7,3.284,0,,,,,,0.126302083,-0.41015625,1,0,0,3.2845,Peridotite_rect,12,0,12,0,1,
656e0dab178ffccdaa47202e,TCN,2024-06-20_13h28.01.937,LearnStrategy,2023.2.3,Win32,40,1,2,14,,,,,,,,5,11,,,,,,,,,,,5,2.066,1,,,,,,-0.390625,-0.395833333,1,0,0,2.0663,Obsidian_rect,13,0,13,0,1,
656e0dab178ffccdaa47202e,TCN,2024-06-20_13h28.01.937,LearnStrategy,2023.2.3,Win32,40,1,2,15,,,,,,,,3,08,,,,,,,,,,,7,7.036,0,,,,,,0.145833333,-0.385416667,1,0,0,7.0356,Peridotite_rect,14,0,14,0,1,
656e0dab178ffccdaa47202e,TCN,2024-06-20_13h28.01.937,LearnStrategy,2023.2.3,Win32,40,1,2,16,,,,,,,,4,10,,,,,,,,,,,6,2.597,0,,,,,,-0.149739583,-0.385416667,1,0,0,2.5966,Pegmatite_rect,15,0,15,0,1,
656e0dab178ffccdaa47202e,TCN,2024-06-20_13h28.01.937,LearnStrategy,2023.2.3,Win32,40,2,1,1,0.00390625,0.009114583,1,0,0,1.5773,rock_grid_rect_2,4,08,-1,-1,1.577,-0.377604167,-0.236979167,1,0,0,10.1413,Andesite_rect,1,10.141,0,0,0,0,0,1,,,,,,,,,,,,,
656e0dab178ffccdaa47202e,TCN,2024-06-20_13h28.01.937,LearnStrategy,2023.2.3,Win32,40,2,1,2,-0.0078125,-0.013020833,1,0,0,1.2425,rock_grid_rect_2,3,12,-1,-1,1.243,-0.420572917,-0.252604167,1,0,0,2.628,Andesite_rect,1,2.628,0,1,0,1,0,1,,,,,,,,,,,,,
656e0dab178ffccdaa47202e,TCN,2024-06-20_13h28.01.937,LearnStrategy,2023.2.3,Win32,40,2,1,3,0.0078125,-0.013020833,1,0,0,1.395,rock_grid_rect_2,6,03,-1,-1,1.395,-0.122395833,-0.3984375,1,0,0,1.6546,Pegmatite_rect,6,1.655,1,2,0,2,0,1,,,,,,,,,,,,,
656e0dab178ffccdaa47202e,TCN,2024-06-20_13h28.01.937,LearnStrategy,2023.2.3,Win32,40,2,1,4,-0.036458333,-0.001302083,1,0,0,1.1224,rock_grid_rect_2,8,16,-1,-1,1.122,0.372395833,-0.40625,1,0,0,2.7284,Pumice_rect,8,2.728,1,3,0,3,0,1,,,,,,,,,,,,,
656e0dab178ffccdaa47202e,TCN,2024-06-20_13h28.01.937,LearnStrategy,2023.2.3,Win32,40,2,1,5,-0.049479167,-0.001302083,1,0,0,1.3204,rock_grid_rect_2,2,05,-1,-1,1.32,-0.140625,-0.259114583,1,0,0,4.1275,Basalt_rect,2,4.127,1,4,0,4,0,1,,,,,,,,,,,,,
656e0dab178ffccdaa47202e,TCN,2024-06-20_13h28.01.937,LearnStrategy,2023.2.3,Win32,40,2,1,6,-0.014322917,-0.009114583,1,0,0,1.3934,rock_grid_rect_2,4,13,-1,-1,1.393,0.0859375,-0.399739583,1,0,0,4.6278,Peridotite_rect,7,4.628,0,5,0,5,0,1,,,,,,,,,,,,,
656e0dab178ffccdaa47202e,TCN,2024-06-20_13h28.01.937,LearnStrategy,2023.2.3,Win32,40,2,1,7,-0.041666667,-0.022135417,1,0,0,0.9901,rock_grid_rect_2,7,06,-1,-1,0.99,0.130208333,-0.252604167,1,0,0,2.8778,Diorite_rect,3,2.878,0,6,0,6,0,1,,,,,,,,,,,,,
656e0dab178ffccdaa47202e,TCN,2024-06-20_13h28.01.937,LearnStrategy,2023.2.3,Win32,40,2,1,8,-0.010416667,0.002604167,1,0,0,0.9201,rock_grid_rect_2,1,05,-1,-1,0.92,0.083333333,-0.263020833,1,0,0,2.5279,Diorite_rect,3,2.528,0,7,0,7,0,1,,,,,,,,,,,,,
656e0dab178ffccdaa47202e,TCN,2024-06-20_13h28.01.937,LearnStrategy,2023.2.3,Win32,40,2,1,9,-0.04296875,-0.00390625,1,0,0,0.9452,rock_grid_rect_2,2,04,-1,-1,0.945,-0.096354167,-0.23046875,1,0,0,1.7534,Basalt_rect,2,1.753,1,8,0,8,0,1,,,,,,,,,,,,,
656e0dab178ffccdaa47202e,TCN,2024-06-20_13h28.01.937,LearnStrategy,2023.2.3,Win32,40,2,1,10,-0.07421875,-0.01171875,1,0,0,0.9199,rock_grid_rect_2,6,10,-1,-1,0.92,-0.114583333,-0.393229167,1,0,0,1.5541,Pegmatite_rect,6,1.554,1,9,0,9,0,1,,,,,,,,,,,,,
656e0dab178ffccdaa47202e,TCN,2024-06-20_13h28.01.937,LearnStrategy,2023.2.3,Win32,40,2,1,11,-0.03125,-0.020833333,1,0,0,0.9201,rock_grid_rect_2,7,12,-1,-1,0.92,-0.36328125,-0.251302083,1,0,0,3.0804,Andesite_rect,1,3.08,0,10,0,10,0,1,,,,,,,,,,,,,
656e0dab178ffccdaa47202e,TCN,2024-06-20_13h28.01.937,LearnStrategy,2023.2.3,Win32,40,2,1,12,0.01171875,0.001302083,1,0,0,0.9946,rock_grid_rect_2,5,09,-1,-1,0.995,-0.33984375,-0.407552083,1,0,0,1.2785,Obsidian_rect,5,1.279,1,11,0,11,0,1,,,,,,,,,,,,,
656e0dab178ffccdaa47202e,TCN,2024-06-20_13h28.01.937,LearnStrategy,2023.2.3,Win32,40,2,1,13,0.001302083,-0.01953125,1,0,0,1.2201,rock_grid_rect_2,5,07,-1,-1,1.22,-0.126302083,-0.404947917,1,0,0,3.426,Pegmatite_rect,6,3.426,0,12,0,12,0,1,,,,,,,,,,,,,
656e0dab178ffccdaa47202e,TCN,2024-06-20_13h28.01.937,LearnStrategy,2023.2.3,Win32,40,2,1,14,-0.076822917,0.015625,1,0,0,0.8223,rock_grid_rect_2,3,07,-1,-1,0.822,-0.321614583,-0.25,1,0,0,4.4015,Andesite_rect,1,4.401,0,13,0,13,0,1,,,,,,,,,,,,,
656e0dab178ffccdaa47202e,TCN,2024-06-20_13h28.01.937,LearnStrategy,2023.2.3,Win32,40,2,1,15,-0.005208333,-0.00390625,1,0,0,0.8924,rock_grid_rect_2,8,04,-1,-1,0.892,0.333333333,-0.390625,1,0,0,1.504,Pumice_rect,8,1.504,1,14,0,14,0,1,,,,,,,,,,,,,
656e0dab178ffccdaa47202e,TCN,2024-06-20_13h28.01.937,LearnStrategy,2023.2.3,Win32,40,2,1,16,-0.045572917,-0.015625,1,0,0,1.095,rock_grid_rect_2,1,07,-1,-1,1.095,-0.393229167,-0.265625,1,0,0,1.5745,Andesite_rect,1,1.575,1,15,0,15,0,1,,,,,,,,,,,,,
656e0dab178ffccdaa47202e,TCN,2024-06-20_13h28.01.937,LearnStrategy,2023.2.3,Win32,40,2,2,1,,,,,,,,8,05,,,,,,,,,,,8,2.226,1,,,,,,0.330729167,-0.3984375,1,0,0,2.2262,Pumice_rect,0,0,0,0,1,
656e0dab178ffccdaa47202e,TCN,2024-06-20_13h28.01.937,LearnStrategy,2023.2.3,Win32,40,2,2,2,,,,,,,,7,04,,,,,,,,,,,3,6.204,0,,,,,,0.178385417,-0.239583333,1,0,0,6.2041,Diorite_rect,1,0,1,0,1,
656e0dab178ffccdaa47202e,TCN,2024-06-20_13h28.01.937,LearnStrategy,2023.2.3,Win32,40,2,2,3,,,,,,,,1,16,,,,,,,,,,,7,8.698,0,,,,,,0.114583333,-0.397135417,1,0,0,8.6981,Peridotite_rect,2,0,2,0,1,
656e0dab178ffccdaa47202e,TCN,2024-06-20_13h28.01.937,LearnStrategy,2023.2.3,Win32,40,2,2,4,,,,,,,,6,07,,,,,,,,,,,6,1.799,1,,,,,,-0.15234375,-0.401041667,1,0,0,1.7988,Pegmatite_rect,3,0,3,0,1,
656e0dab178ffccdaa47202e,TCN,2024-06-20_13h28.01.937,LearnStrategy,2023.2.3,Win32,40,2,2,5,,,,,,,,4,01,,,,,,,,,,,1,3.458,0,,,,,,-0.34375,-0.255208333,1,0,0,3.4583,Andesite_rect,4,0,4,0,1,
656e0dab178ffccdaa47202e,TCN,2024-06-20_13h28.01.937,LearnStrategy,2023.2.3,Win32,40,2,2,6,,,,,,,,2,10,,,,,,,,,,,2,1.909,1,,,,,,-0.096354167,-0.248697917,1,0,0,1.9092,Basalt_rect,5,0,5,0,1,
656e0dab178ffccdaa47202e,TCN,2024-06-20_13h28.01.937,LearnStrategy,2023.2.3,Win32,40,2,2,7,,,,,,,,8,14,,,,,,,,,,,8,1.627,1,,,,,,0.34375,-0.393229167,1,0,0,1.6271,Pumice_rect,6,0,6,0,1,
656e0dab178ffccdaa47202e,TCN,2024-06-20_13h28.01.937,LearnStrategy,2023.2.3,Win32,40,2,2,8,,,,,,,,1,10,,,,,,,,,,,4,3.704,0,,,,,,0.380208333,-0.264322917,1,0,0,3.7039,Gabbro_rect,7,0,7,0,1,
656e0dab178ffccdaa47202e,TCN,2024-06-20_13h28.01.937,LearnStrategy,2023.2.3,Win32,40,2,2,9,,,,,,,,3,02,,,,,,,,,,,3,3.301,1,,,,,,0.134114583,-0.260416667,1,0,0,3.3014,Diorite_rect,8,0,8,0,1,
656e0dab178ffccdaa47202e,TCN,2024-06-20_13h28.01.937,LearnStrategy,2023.2.3,Win32,40,2,2,10,,,,,,,,3,15,,,,,,,,,,,7,6.319,0,,,,,,0.106770833,-0.399739583,1,0,0,6.3189,Peridotite_rect,9,0,9,0,1,
656e0dab178ffccdaa47202e,TCN,2024-06-20_13h28.01.937,LearnStrategy,2023.2.3,Win32,40,2,2,11,,,,,,,,6,12,,,,,,,,,,,6,3.065,1,,,,,,-0.109375,-0.3984375,1,0,0,3.0646,Pegmatite_rect,10,0,10,0,1,
656e0dab178ffccdaa47202e,TCN,2024-06-20_13h28.01.937,LearnStrategy,2023.2.3,Win32,40,2,2,12,,,,,,,,7,08,,,,,,,,,,,3,2.426,0,,,,,,0.108072917,-0.240885417,1,0,0,2.4265,Diorite_rect,11,0,11,0,1,
656e0dab178ffccdaa47202e,TCN,2024-06-20_13h28.01.937,LearnStrategy,2023.2.3,Win32,40,2,2,13,,,,,,,,5,16,,,,,,,,,,,5,1.253,1,,,,,,-0.342447917,-0.40625,1,0,0,1.2531,Obsidian_rect,12,0,12,0,1,
656e0dab178ffccdaa47202e,TCN,2024-06-20_13h28.01.937,LearnStrategy,2023.2.3,Win32,40,2,2,14,,,,,,,,5,10,,,,,,,,,,,5,1.311,1,,,,,,-0.334635417,-0.390625,1,0,0,1.3107,Obsidian_rect,13,0,13,0,1,
656e0dab178ffccdaa47202e,TCN,2024-06-20_13h28.01.937,LearnStrategy,2023.2.3,Win32,40,2,2,15,,,,,,,,4,12,,,,,,,,,,,2,2.331,0,,,,,,-0.1171875,-0.2421875,1,0,0,2.3312,Basalt_rect,14,0,14,0,1,
656e0dab178ffccdaa47202e,TCN,2024-06-20_13h28.01.937,LearnStrategy,2023.2.3,Win32,40,2,2,16,,,,,,,,2,14,,,,,,,,,,,8,3.162,0,,,,,,0.368489583,-0.397135417,1,0,0,3.1615,Pumice_rect,15,0,15,0,1,
656e0dab178ffccdaa47202e,TCN,2024-06-20_13h28.01.937,LearnStrategy,2023.2.3,Win32,40,3,1,1,-0.016927083,-0.00390625,1,0,0,1.1204,rock_grid_rect_2,2,01,-1,-1,1.12,-0.109375,-0.235677083,1,0,0,1.2536,Basalt_rect,2,1.254,1,0,0,0,0,1,,,,,,,,,,,,,
656e0dab178ffccdaa47202e,TCN,2024-06-20_13h28.01.937,LearnStrategy,2023.2.3,Win32,40,3,1,2,-0.010416667,-0.009114583,1,0,0,1.143,rock_grid_rect_2,3,16,-1,-1,1.143,0.123697917,-0.397135417,1,0,0,3.0532,Peridotite_rect,7,3.053,0,1,0,1,0,1,,,,,,,,,,,,,
656e0dab178ffccdaa47202e,TCN,2024-06-20_13h28.01.937,LearnStrategy,2023.2.3,Win32,40,3,1,3,0.032552083,-0.0078125,1,0,0,1.1701,rock_grid_rect_2,7,16,-1,-1,1.17,0.118489583,-0.26171875,1,0,0,5.1763,Diorite_rect,3,5.176,0,2,0,2,0,1,,,,,,,,,,,,,
656e0dab178ffccdaa47202e,TCN,2024-06-20_13h28.01.937,LearnStrategy,2023.2.3,Win32,40,3,1,4,-0.06640625,-0.018229167,1,0,0,0.8451,rock_grid_rect_2,3,14,-1,-1,0.845,0.10546875,-0.263020833,1,0,0,2.6534,Diorite_rect,3,2.653,1,3,0,3,0,1,,,,,,,,,,,,,
656e0dab178ffccdaa47202e,TCN,2024-06-20_13h28.01.937,LearnStrategy,2023.2.3,Win32,40,3,1,5,-0.036458333,0.010416667,1,0,0,0.9451,rock_grid_rect_2,4,03,-1,-1,0.945,-0.118489583,-0.2578125,1,0,0,1.8288,Basalt_rect,2,1.829,0,4,0,4,0,1,,,,,,,,,,,,,
656e0dab178ffccdaa47202e,TCN,2024-06-20_13h28.01.937,LearnStrategy,2023.2.3,Win32,40,3,1,6,0.00390625,-0.009114583,1,0,0,0.9721,rock_grid_rect_2,4,11,-1,-1,0.972,-0.12890625,-0.243489583,1,0,0,1.9288,Basalt_rect,2,1.929,0,5,0,5,0,1,,,,,,,,,,,,,
656e0dab178ffccdaa47202e,TCN,2024-06-20_13h28.01.937,LearnStrategy,2023.2.3,Win32,40,3,1,7,-0.00390625,-0.016927083,1,0,0,1.2699,rock_grid_rect_2,5,08,-1,-1,1.27,-0.403645833,-0.39453125,1,0,0,1.1793,Obsidian_rect,5,1.179,1,6,0,6,0,1,,,,,,,,,,,,,
656e0dab178ffccdaa47202e,TCN,2024-06-20_13h28.01.937,LearnStrategy,2023.2.3,Win32,40,3,1,8,-0.001302083,-0.015625,1,0,0,0.8698,rock_grid_rect_2,6,06,-1,-1,0.87,-0.134114583,-0.39453125,1,0,0,1.6045,Pegmatite_rect,6,1.605,1,7,0,7,0,1,,,,,,,,,,,,,
656e0dab178ffccdaa47202e,TCN,2024-06-20_13h28.01.937,LearnStrategy,2023.2.3,Win32,40,3,1,9,-0.0390625,0.010416667,1,0,0,0.9451,rock_grid_rect_2,1,02,-1,-1,0.945,0.098958333,-0.248697917,1,0,0,5.0513,Diorite_rect,3,5.051,0,8,0,8,0,1,,,,,,,,,,,,,
656e0dab178ffccdaa47202e,TCN,2024-06-20_13h28.01.937,LearnStrategy,2023.2.3,Win32,40,3,1,10,-0.032552083,0.013020833,1,0,0,0.8676,rock_grid_rect_2,8,15,-1,-1,0.868,0.41796875,-0.412760417,1,0,0,1.1127,Pumice_rect,8,1.113,1,9,0,9,0,1,,,,,,,,,,,,,
656e0dab178ffccdaa47202e,TCN,2024-06-20_13h28.01.937,LearnStrategy,2023.2.3,Win32,40,3,1,11,0.01171875,-0.00390625,1,0,0,1.0448,rock_grid_rect_2,7,14,-1,-1,1.045,0.12890625,-0.252604167,1,0,0,4.0528,Diorite_rect,3,4.053,0,10,0,10,0,1,,,,,,,,,,,,,
656e0dab178ffccdaa47202e,TCN,2024-06-20_13h28.01.937,LearnStrategy,2023.2.3,Win32,40,3,1,12,-0.024739583,-0.016927083,1,0,0,0.8183,rock_grid_rect_2,1,11,-1,-1,0.818,0.4453125,-0.25390625,1,0,0,4.2016,Gabbro_rect,4,4.202,0,11,0,11,0,1,,,,,,,,,,,,,
656e0dab178ffccdaa47202e,TCN,2024-06-20_13h28.01.937,LearnStrategy,2023.2.3,Win32,40,3,1,13,-0.001302083,-0.010416667,1,0,0,0.9934,rock_grid_rect_2,5,12,-1,-1,0.993,-0.372395833,-0.388020833,1,0,0,1.1791,Obsidian_rect,5,1.179,1,12,0,12,0,1,,,,,,,,,,,,,
656e0dab178ffccdaa47202e,TCN,2024-06-20_13h28.01.937,LearnStrategy,2023.2.3,Win32,40,3,1,14,-0.037760417,-0.002604167,1,0,0,1.1199,rock_grid_rect_2,2,08,-1,-1,1.12,-0.095052083,-0.239583333,1,0,0,1.1409,Basalt_rect,2,1.141,1,13,0,13,0,1,,,,,,,,,,,,,
656e0dab178ffccdaa47202e,TCN,2024-06-20_13h28.01.937,LearnStrategy,2023.2.3,Win32,40,3,1,15,-0.009114583,-0.018229167,1,0,0,0.9288,rock_grid_rect_2,8,13,-1,-1,0.929,0.384114583,-0.393229167,1,0,0,1.3944,Pumice_rect,8,1.394,1,14,0,14,0,1,,,,,,,,,,,,,
656e0dab178ffccdaa47202e,TCN,2024-06-20_13h28.01.937,LearnStrategy,2023.2.3,Win32,40,3,1,16,-0.005208333,-0.013020833,1,0,0,0.8442,rock_grid_rect_2,6,13,-1,-1,0.844,0.100260417,-0.268229167,1,0,0,1.6784,Diorite_rect,3,1.678,0,15,0,15,0,1,,,,,,,,,,,,,
656e0dab178ffccdaa47202e,TCN,2024-06-20_13h28.01.937,LearnStrategy,2023.2.3,Win32,40,3,2,1,,,,,,,,3,10,,,,,,,,,,,1,5.451,0,,,,,,-0.360677083,-0.247395833,1,0,0,5.4513,Andesite_rect,0,0,0,0,1,
656e0dab178ffccdaa47202e,TCN,2024-06-20_13h28.01.937,LearnStrategy,2023.2.3,Win32,40,3,2,2,,,,,,,,7,13,,,,,,,,,,,4,5.263,0,,,,,,0.329427083,-0.255208333,1,0,0,5.2631,Gabbro_rect,1,0,1,0,1,
656e0dab178ffccdaa47202e,TCN,2024-06-20_13h28.01.937,LearnStrategy,2023.2.3,Win32,40,3,2,3,,,,,,,,4,05,,,,,,,,,,,1,3.598,0,,,,,,-0.342447917,-0.233072917,1,0,0,3.5983,Andesite_rect,2,0,2,0,1,
656e0dab178ffccdaa47202e,TCN,2024-06-20_13h28.01.937,LearnStrategy,2023.2.3,Win32,40,3,2,4,,,,,,,,4,15,,,,,,,,,,,7,6.674,0,,,,,,0.1171875,-0.391927083,1,0,0,6.6738,Peridotite_rect,3,0,3,0,1,
656e0dab178ffccdaa47202e,TCN,2024-06-20_13h28.01.937,LearnStrategy,2023.2.3,Win32,40,3,2,5,,,,,,,,5,02,,,,,,,,,,,5,1.125,1,,,,,,-0.348958333,-0.391927083,1,0,0,1.1252,Obsidian_rect,4,0,4,0,1,
656e0dab178ffccdaa47202e,TCN,2024-06-20_13h28.01.937,LearnStrategy,2023.2.3,Win32,40,3,2,6,,,,,,,,2,02,,,,,,,,,,,2,1.1,1,,,,,,-0.145833333,-0.239583333,1,0,0,1.0998,Basalt_rect,5,0,5,0,1,
656e0dab178ffccdaa47202e,TCN,2024-06-20_13h28.01.937,LearnStrategy,2023.2.3,Win32,40,3,2,7,,,,,,,,3,13,,,,,,,,,,,7,4.675,0,,,,,,0.100260417,-0.393229167,1,0,0,4.6748,Peridotite_rect,6,0,6,0,1,
656e0dab178ffccdaa47202e,TCN,2024-06-20_13h28.01.937,LearnStrategy,2023.2.3,Win32,40,3,2,8,,,,,,,,8,08,,,,,,,,,,,8,1.473,1,,,,,,0.369791667,-0.411458333,1,0,0,1.4733,Pumice_rect,7,0,7,0,1,
656e0dab178ffccdaa47202e,TCN,2024-06-20_13h28.01.937,LearnStrategy,2023.2.3,Win32,40,3,2,9,,,,,,,,6,15,,,,,,,,,,,6,1.425,1,,,,,,-0.13671875,-0.399739583,1,0,0,1.4253,Pegmatite_rect,8,0,8,0,1,
656e0dab178ffccdaa47202e,TCN,2024-06-20_13h28.01.937,LearnStrategy,2023.2.3,Win32,40,3,2,10,,,,,,,,5,04,,,,,,,,,,,5,1.2,1,,,,,,-0.415364583,-0.395833333,1,0,0,1.2004,Obsidian_rect,9,0,9,0,1,
656e0dab178ffccdaa47202e,TCN,2024-06-20_13h28.01.937,LearnStrategy,2023.2.3,Win32,40,3,2,11,,,,,,,,1,09,,,,,,,,,,,4,2.27,0,,,,,,0.37890625,-0.243489583,1,0,0,2.2701,Gabbro_rect,10,0,10,0,1,
656e0dab178ffccdaa47202e,TCN,2024-06-20_13h28.01.937,LearnStrategy,2023.2.3,Win32,40,3,2,12,,,,,,,,6,08,,,,,,,,,,,6,1.865,1,,,,,,-0.118489583,-0.397135417,1,0,0,1.8654,Pegmatite_rect,11,0,11,0,1,
656e0dab178ffccdaa47202e,TCN,2024-06-20_13h28.01.937,LearnStrategy,2023.2.3,Win32,40,3,2,13,,,,,,,,8,06,,,,,,,,,,,8,1.231,1,,,,,,0.453125,-0.401041667,1,0,0,1.2307,Pumice_rect,12,0,12,0,1,
656e0dab178ffccdaa47202e,TCN,2024-06-20_13h28.01.937,LearnStrategy,2023.2.3,Win32,40,3,2,14,,,,,,,,1,01,,,,,,,,,,,7,3.864,0,,,,,,0.09765625,-0.397135417,1,0,0,3.8638,Peridotite_rect,13,0,13,0,1,
656e0dab178ffccdaa47202e,TCN,2024-06-20_13h28.01.937,LearnStrategy,2023.2.3,Win32,40,3,2,15,,,,,,,,2,11,,,,,,,,,,,4,5.384,0,,,,,,0.430989583,-0.24609375,1,0,0,5.3841,Gabbro_rect,14,0,14,0,1,
656e0dab178ffccdaa47202e,TCN,2024-06-20_13h28.01.937,LearnStrategy,2023.2.3,Win32,40,3,2,16,,,,,,,,7,02,,,,,,,,,,,3,3.589,0,,,,,,0.09765625,-0.260416667,1,0,0,3.5894,Diorite_rect,15,0,15,0,1,
656e0dab178ffccdaa47202e,TCN,2024-06-20_13h28.01.937,LearnStrategy,2023.2.3,Win32,40,4,1,1,-0.018229167,-0.002604167,1,0,0,0.9543,rock_grid_rect_2,4,16,-1,-1,0.954,0.346354167,-0.26171875,1,0,0,2.0586,Gabbro_rect,4,2.059,1,0,0,0,0,1,,,,,,,,,,,,,
656e0dab178ffccdaa47202e,TCN,2024-06-20_13h28.01.937,LearnStrategy,2023.2.3,Win32,40,4,1,2,-0.0234375,-0.013020833,1,0,0,1.097,rock_grid_rect_2,1,03,-1,-1,1.097,-0.108072917,-0.24609375,1,0,0,1.9428,Basalt_rect,2,1.943,0,1,0,1,0,1,,,,,,,,,,,,,
656e0dab178ffccdaa47202e,TCN,2024-06-20_13h28.01.937,LearnStrategy,2023.2.3,Win32,40,4,1,3,-0.02734375,-0.002604167,1,0,0,1.0943,rock_grid_rect_2,5,09,-1,-1,1.094,-0.415364583,-0.399739583,1,0,0,2.3032,Obsidian_rect,5,2.303,1,2,0,2,0,1,,,,,,,,,,,,,
656e0dab178ffccdaa47202e,TCN,2024-06-20_13h28.01.937,LearnStrategy,2023.2.3,Win32,40,4,1,4,-0.024739583,-0.01953125,1,0,0,1.0459,rock_grid_rect_2,2,01,-1,-1,1.046,-0.12890625,-0.25,1,0,0,1.0292,Basalt_rect,2,1.029,1,3,0,3,0,1,,,,,,,,,,,,,
656e0dab178ffccdaa47202e,TCN,2024-06-20_13h28.01.937,LearnStrategy,2023.2.3,Win32,40,4,1,5,-0.075520833,0.014322917,1,0,0,0.7206,rock_grid_rect_2,5,08,-1,-1,0.721,-0.388020833,-0.381510417,1,0,0,1.2291,Obsidian_rect,5,1.229,1,4,0,4,0,1,,,,,,,,,,,,,
656e0dab178ffccdaa47202e,TCN,2024-06-20_13h28.01.937,LearnStrategy,2023.2.3,Win32,40,4,1,6,0.018229167,-0.018229167,1,0,0,0.97,rock_grid_rect_2,3,12,-1,-1,0.97,0.126302083,-0.259114583,1,0,0,3.9521,Diorite_rect,3,3.952,1,5,0,5,0,1,,,,,,,,,,,,,
656e0dab178ffccdaa47202e,TCN,2024-06-20_13h28.01.937,LearnStrategy,2023.2.3,Win32,40,4,1,7,0.002604167,0,1,0,0,0.9924,rock_grid_rect_2,8,04,-1,-1,0.992,0.358072917,-0.38671875,1,0,0,1.4532,Pumice_rect,8,1.453,1,6,0,6,0,1,,,,,,,,,,,,,
656e0dab178ffccdaa47202e,TCN,2024-06-20_13h28.01.937,LearnStrategy,2023.2.3,Win32,40,4,1,8,-0.00390625,-0.0078125,1,0,0,1.4697,rock_grid_rect_2,8,16,-1,-1,1.47,0.411458333,-0.404947917,1,0,0,1.4789,Pumice_rect,8,1.479,1,7,0,7,0,1,,,,,,,,,,,,,
656e0dab178ffccdaa47202e,TCN,2024-06-20_13h28.01.937,LearnStrategy,2023.2.3,Win32,40,4,1,9,-0.001302083,-0.009114583,1,0,0,0.9695,rock_grid_rect_2,1,06,-1,-1,0.969,-0.380208333,-0.2578125,1,0,0,1.729,Andesite_rect,1,1.729,1,8,0,8,0,1,,,,,,,,,,,,,
656e0dab178ffccdaa47202e,TCN,2024-06-20_13h28.01.937,LearnStrategy,2023.2.3,Win32,40,4,1,10,-0.024739583,-0.001302083,1,0,0,1.045,rock_grid_rect_2,6,06,-1,-1,1.045,-0.087239583,-0.412760417,1,0,0,1.2532,Pegmatite_rect,6,1.253,1,9,0,9,0,1,,,,,,,,,,,,,
656e0dab178ffccdaa47202e,TCN,2024-06-20_13h28.01.937,LearnStrategy,2023.2.3,Win32,40,4,1,11,-0.0546875,-0.006510417,1,0,0,0.8185,rock_grid_rect_2,4,14,-1,-1,0.818,0.389322917,-0.264322917,1,0,0,1.6051,Gabbro_rect,4,1.605,1,10,0,10,0,1,,,,,,,,,,,,,
656e0dab178ffccdaa47202e,TCN,2024-06-20_13h28.01.937,LearnStrategy,2023.2.3,Win32,40,4,1,12,0,-0.009114583,1,0,0,1.0196,rock_grid_rect_2,3,06,-1,-1,1.02,0.087239583,-0.2578125,1,0,0,2.2661,Diorite_rect,3,2.266,1,11,0,11,0,1,,,,,,,,,,,,,
656e0dab178ffccdaa47202e,TCN,2024-06-20_13h28.01.937,LearnStrategy,2023.2.3,Win32,40,4,1,13,-0.0390625,-0.0078125,1,0,0,1.2281,rock_grid_rect_2,7,06,-1,-1,1.228,0.1171875,-0.420572917,1,0,0,2.8679,Peridotite_rect,7,2.868,1,12,0,12,0,1,,,,,,,,,,,,,
656e0dab178ffccdaa47202e,TCN,2024-06-20_13h28.01.937,LearnStrategy,2023.2.3,Win32,40,4,1,14,0.005208333,-0.0078125,1,0,0,1.0946,rock_grid_rect_2,6,10,-1,-1,1.095,-0.12109375,-0.404947917,1,0,0,1.4581,Pegmatite_rect,6,1.458,1,13,0,13,0,1,,,,,,,,,,,,,
656e0dab178ffccdaa47202e,TCN,2024-06-20_13h28.01.937,LearnStrategy,2023.2.3,Win32,40,4,1,15,-0.04296875,-0.024739583,1,0,0,0.8955,rock_grid_rect_2,2,12,-1,-1,0.895,-0.076822917,-0.248697917,1,0,0,2.2847,Basalt_rect,2,2.285,1,14,0,14,0,1,,,,,,,,,,,,,
656e0dab178ffccdaa47202e,TCN,2024-06-20_13h28.01.937,LearnStrategy,2023.2.3,Win32,40,4,1,16,-0.01953125,0.010416667,1,0,0,0.9967,rock_grid_rect_2,7,10,-1,-1,0.997,0.127604167,-0.41015625,1,0,0,4.7775,Peridotite_rect,7,4.778,1,15,0,15,0,1,,,,,,,,,,,,,
656e0dab178ffccdaa47202e,TCN,2024-06-20_13h28.01.937,LearnStrategy,2023.2.3,Win32,40,4,2,1,,,,,,,,1,04,,,,,,,,,,,7,2.791,0,,,,,,0.108072917,-0.393229167,1,0,0,2.7908,Peridotite_rect,0,0,0,0,1,
656e0dab178ffccdaa47202e,TCN,2024-06-20_13h28.01.937,LearnStrategy,2023.2.3,Win32,40,4,2,2,,,,,,,,2,06,,,,,,,,,,,2,1.53,1,,,,,,-0.079427083,-0.263020833,1,0,0,1.5297,Basalt_rect,1,0,1,0,1,
656e0dab178ffccdaa47202e,TCN,2024-06-20_13h28.01.937,LearnStrategy,2023.2.3,Win32,40,4,2,3,,,,,,,,7,13,,,,,,,,,,,7,6.858,1,,,,,,0.115885417,-0.404947917,1,0,0,6.8582,Peridotite_rect,2,0,2,0,1,
656e0dab178ffccdaa47202e,TCN,2024-06-20_13h28.01.937,LearnStrategy,2023.2.3,Win32,40,4,2,4,,,,,,,,7,04,,,,,,,,,,,1,3.25,0,,,,,,-0.319010417,-0.248697917,1,0,0,3.2503,Andesite_rect,3,0,3,0,1,
656e0dab178ffccdaa47202e,TCN,2024-06-20_13h28.01.937,LearnStrategy,2023.2.3,Win32,40,4,2,5,,,,,,,,2,10,,,,,,,,,,,2,1.361,1,,,,,,-0.141927083,-0.235677083,1,0,0,1.3607,Basalt_rect,4,0,4,0,1,
656e0dab178ffccdaa47202e,TCN,2024-06-20_13h28.01.937,LearnStrategy,2023.2.3,Win32,40,4,2,6,,,,,,,,5,16,,,,,,,,,,,5,1.271,1,,,,,,-0.3984375,-0.385416667,1,0,0,1.2705,Obsidian_rect,5,0,5,0,1,
656e0dab178ffccdaa47202e,TCN,2024-06-20_13h28.01.937,LearnStrategy,2023.2.3,Win32,40,4,2,7,,,,,,,,6,15,,,,,,,,,,,6,1.325,1,,,,,,-0.138020833,-0.385416667,1,0,0,1.3245,Pegmatite_rect,6,0,6,0,1,
656e0dab178ffccdaa47202e,TCN,2024-06-20_13h28.01.937,LearnStrategy,2023.2.3,Win32,40,4,2,8,,,,,,,,4,01,,,,,,,,,,,4,3.289,1,,,,,,0.338541667,-0.235677083,1,0,0,3.289,Gabbro_rect,7,0,7,0,1,
656e0dab178ffccdaa47202e,TCN,2024-06-20_13h28.01.937,LearnStrategy,2023.2.3,Win32,40,4,2,9,,,,,,,,6,08,,,,,,,,,,,6,1.282,1,,,,,,-0.126302083,-0.395833333,1,0,0,1.282,Pegmatite_rect,8,0,8,0,1,
656e0dab178ffccdaa47202e,TCN,2024-06-20_13h28.01.937,LearnStrategy,2023.2.3,Win32,40,4,2,10,,,,,,,,1,10,,,,,,,,,,,4,3.516,0,,,,,,0.365885417,-0.255208333,1,0,0,3.5157,Gabbro_rect,9,0,9,0,1,
656e0dab178ffccdaa47202e,TCN,2024-06-20_13h28.01.937,LearnStrategy,2023.2.3,Win32,40,4,2,11,,,,,,,,3,11,,,,,,,,,,,1,4.421,0,,,,,,-0.350260417,-0.236979167,1,0,0,4.4207,Andesite_rect,10,0,10,0,1,
656e0dab178ffccdaa47202e,TCN,2024-06-20_13h28.01.937,LearnStrategy,2023.2.3,Win32,40,4,2,12,,,,,,,,8,10,,,,,,,,,,,8,1.474,1,,,,,,0.3671875,-0.381510417,1,0,0,1.4742,Pumice_rect,11,0,11,0,1,
656e0dab178ffccdaa47202e,TCN,2024-06-20_13h28.01.937,LearnStrategy,2023.2.3,Win32,40,4,2,13,,,,,,,,5,10,,,,,,,,,,,5,1.232,1,,,,,,-0.388020833,-0.388020833,1,0,0,1.2317,Obsidian_rect,12,0,12,0,1,
656e0dab178ffccdaa47202e,TCN,2024-06-20_13h28.01.937,LearnStrategy,2023.2.3,Win32,40,4,2,14,,,,,,,,3,15,,,,,,,,,,,1,3.938,0,,,,,,-0.360677083,-0.248697917,1,0,0,3.938,Andesite_rect,13,0,13,0,1,
656e0dab178ffccdaa47202e,TCN,2024-06-20_13h28.01.937,LearnStrategy,2023.2.3,Win32,40,4,2,15,,,,,,,,4,12,,,,,,,,,,,4,1.724,1,,,,,,0.407552083,-0.268229167,1,0,0,1.7242,Gabbro_rect,14,0,14,0,1,
656e0dab178ffccdaa47202e,TCN,2024-06-20_13h28.01.937,LearnStrategy,2023.2.3,Win32,40,4,2,16,,,,,,,,8,05,,,,,,,,,,,8,1.402,1,,,,,,0.390625,-0.403645833,1,0,0,1.402,Pumice_rect,15,0,15,0,1,
656e0dab178ffccdaa47202e,TCN,2024-06-20_13h28.01.937,LearnStrategy,2023.2.3,Win32,40,5,1,1,0.02734375,0.022135417,1,0,0,0.921,rock_grid_rect_2,8,13,-1,-1,0.921,0.4375,-0.41796875,1,0,0,1.8037,Pumice_rect,8,1.804,1,0,0,0,0,1,,,,,,,,,,,,,
656e0dab178ffccdaa47202e,TCN,2024-06-20_13h28.01.937,LearnStrategy,2023.2.3,Win32,40,5,1,2,0.006510417,0.0078125,1,0,0,0.9703,rock_grid_rect_2,2,08,-1,-1,0.97,-0.119791667,-0.255208333,1,0,0,1.3287,Basalt_rect,2,1.329,1,1,0,1,0,1,,,,,,,,,,,,,
656e0dab178ffccdaa47202e,TCN,2024-06-20_13h28.01.937,LearnStrategy,2023.2.3,Win32,40,5,1,3,0.005208333,0,1,0,0,1.2196,rock_grid_rect_2,1,02,-1,-1,1.22,0.091145833,-0.234375,1,0,0,1.753,Diorite_rect,3,1.753,0,2,0,2,0,1,,,,,,,,,,,,,
656e0dab178ffccdaa47202e,TCN,2024-06-20_13h28.01.937,LearnStrategy,2023.2.3,Win32,40,5,1,4,0.010416667,-0.0078125,1,0,0,1.0196,rock_grid_rect_2,6,16,-1,-1,1.02,-0.11328125,-0.41796875,1,0,0,1.4028,Pegmatite_rect,6,1.403,1,3,0,3,0,1,,,,,,,,,,,,,
656e0dab178ffccdaa47202e,TCN,2024-06-20_13h28.01.937,LearnStrategy,2023.2.3,Win32,40,5,1,5,-0.002604167,-0.001302083,1,0,0,0.7953,rock_grid_rect_2,4,13,-1,-1,0.795,0.372395833,-0.252604167,1,0,0,2.1789,Gabbro_rect,4,2.179,1,4,0,4,0,1,,,,,,,,,,,,,
656e0dab178ffccdaa47202e,TCN,2024-06-20_13h28.01.937,LearnStrategy,2023.2.3,Win32,40,5,1,6,-0.010416667,-0.006510417,1,0,0,0.9699,rock_grid_rect_2,4,03,-1,-1,0.97,0.376302083,-0.252604167,1,0,0,3.1029,Gabbro_rect,4,3.103,1,5,0,5,0,1,,,,,,,,,,,,,
656e0dab178ffccdaa47202e,TCN,2024-06-20_13h28.01.937,LearnStrategy,2023.2.3,Win32,40,5,1,7,-0.005208333,0.0078125,1,0,0,0.947,rock_grid_rect_2,2,04,-1,-1,0.947,-0.098958333,-0.26171875,1,0,0,1.5025,Basalt_rect,2,1.503,1,6,0,6,0,1,,,,,,,,,,,,,
656e0dab178ffccdaa47202e,TCN,2024-06-20_13h28.01.937,LearnStrategy,2023.2.3,Win32,40,5,1,8,0.0234375,-0.0078125,1,0,0,1.0203,rock_grid_rect_2,5,05,-1,-1,1.02,-0.334635417,-0.395833333,1,0,0,2.3784,Obsidian_rect,5,2.378,1,7,0,7,0,1,,,,,,,,,,,,,
656e0dab178ffccdaa47202e,TCN,2024-06-20_13h28.01.937,LearnStrategy,2023.2.3,Win32,40,5,1,9,0.026041667,0.014322917,1,0,0,0.8437,rock_grid_rect_2,1,11,-1,-1,0.844,0.384114583,-0.255208333,1,0,0,3.3543,Gabbro_rect,4,3.354,0,8,0,8,0,1,,,,,,,,,,,,,
656e0dab178ffccdaa47202e,TCN,2024-06-20_13h28.01.937,LearnStrategy,2023.2.3,Win32,40,5,1,10,-0.01171875,-0.015625,1,0,0,0.7922,rock_grid_rect_2,3,16,-1,-1,0.792,0.091145833,-0.397135417,1,0,0,6.5885,Peridotite_rect,7,6.589,0,9,0,9,0,1,,,,,,,,,,,,,
656e0dab178ffccdaa47202e,TCN,2024-06-20_13h28.01.937,LearnStrategy,2023.2.3,Win32,40,5,1,11,0.00390625,0.015625,1,0,0,0.792,rock_grid_rect_2,8,03,-1,-1,0.792,0.391927083,-0.393229167,1,0,0,1.6287,Pumice_rect,8,1.629,1,10,0,10,0,1,,,,,,,,,,,,,
656e0dab178ffccdaa47202e,TCN,2024-06-20_13h28.01.937,LearnStrategy,2023.2.3,Win32,40,5,1,12,-0.016927083,-0.005208333,1,0,0,1.2451,rock_grid_rect_2,3,09,-1,-1,1.245,0.10546875,-0.2578125,1,0,0,1.5864,Diorite_rect,3,1.586,1,11,0,11,0,1,,,,,,,,,,,,,
656e0dab178ffccdaa47202e,TCN,2024-06-20_13h28.01.937,LearnStrategy,2023.2.3,Win32,40,5,1,13,-0.01171875,0.002604167,1,0,0,1.0197,rock_grid_rect_2,7,07,-1,-1,1.02,-0.345052083,-0.248697917,1,0,0,4.9511,Andesite_rect,1,4.951,0,12,0,12,0,1,,,,,,,,,,,,,
656e0dab178ffccdaa47202e,TCN,2024-06-20_13h28.01.937,LearnStrategy,2023.2.3,Win32,40,5,1,14,0.015625,-0.009114583,1,0,0,1.1679,rock_grid_rect_2,6,05,-1,-1,1.168,-0.346354167,-0.397135417,1,0,0,2.9068,Obsidian_rect,5,2.907,0,13,0,13,0,1,,,,,,,,,,,,,
656e0dab178ffccdaa47202e,TCN,2024-06-20_13h28.01.937,LearnStrategy,2023.2.3,Win32,40,5,1,15,-0.033854167,-0.001302083,1,0,0,1.2946,rock_grid_rect_2,5,12,-1,-1,1.295,-0.393229167,-0.393229167,1,0,0,1.2541,Obsidian_rect,5,1.254,1,14,0,14,0,1,,,,,,,,,,,,,
656e0dab178ffccdaa47202e,TCN,2024-06-20_13h28.01.937,LearnStrategy,2023.2.3,Win32,40,5,1,16,-0.036458333,0.0078125,1,0,0,1.3697,rock_grid_rect_2,7,14,-1,-1,1.37,0.115885417,-0.25390625,1,0,0,2.6272,Diorite_rect,3,2.627,0,15,0,15,0,1,,,,,,,,,,,,,
656e0dab178ffccdaa47202e,TCN,2024-06-20_13h28.01.937,LearnStrategy,2023.2.3,Win32,40,5,2,1,,,,,,,,2,14,,,,,,,,,,,8,3.594,0,,,,,,0.404947917,-0.3984375,1,0,0,3.5944,Pumice_rect,0,0,0,0,1,
656e0dab178ffccdaa47202e,TCN,2024-06-20_13h28.01.937,LearnStrategy,2023.2.3,Win32,40,5,2,2,,,,,,,,7,02,,,,,,,,,,,7,4.221,1,,,,,,0.125,-0.401041667,1,0,0,4.2211,Peridotite_rect,1,0,1,0,1,
656e0dab178ffccdaa47202e,TCN,2024-06-20_13h28.01.937,LearnStrategy,2023.2.3,Win32,40,5,2,3,,,,,,,,1,14,,,,,,,,,,,3,3.111,0,,,,,,0.13671875,-0.256510417,1,0,0,3.1112,Diorite_rect,2,0,2,0,1,
656e0dab178ffccdaa47202e,TCN,2024-06-20_13h28.01.937,LearnStrategy,2023.2.3,Win32,40,5,2,4,,,,,,,,6,07,,,,,,,,,,,6,3.711,1,,,,,,-0.125,-0.412760417,1,0,0,3.7105,Pegmatite_rect,3,0,3,0,1,
656e0dab178ffccdaa47202e,TCN,2024-06-20_13h28.01.937,LearnStrategy,2023.2.3,Win32,40,5,2,5,,,,,,,,8,02,,,,,,,,,,,8,1.231,1,,,,,,0.376302083,-0.381510417,1,0,0,1.2312,Pumice_rect,4,0,4,0,1,
656e0dab178ffccdaa47202e,TCN,2024-06-20_13h28.01.937,LearnStrategy,2023.2.3,Win32,40,5,2,6,,,,,,,,4,05,,,,,,,,,,,4,3.514,1,,,,,,0.41796875,-0.263020833,1,0,0,3.5143,Gabbro_rect,5,0,5,0,1,
656e0dab178ffccdaa47202e,TCN,2024-06-20_13h28.01.937,LearnStrategy,2023.2.3,Win32,40,5,2,7,,,,,,,,2,11,,,,,,,,,,,8,2.045,0,,,,,,0.377604167,-0.408854167,1,0,0,2.0452,Pumice_rect,6,0,6,0,1,
656e0dab178ffccdaa47202e,TCN,2024-06-20_13h28.01.937,LearnStrategy,2023.2.3,Win32,40,5,2,8,,,,,,,,8,14,,,,,,,,,,,8,1.293,1,,,,,,0.438802083,-0.411458333,1,0,0,1.2935,Pumice_rect,7,0,7,0,1,
656e0dab178ffccdaa47202e,TCN,2024-06-20_13h28.01.937,LearnStrategy,2023.2.3,Win32,40,5,2,9,,,,,,,,3,08,,,,,,,,,,,3,1.676,1,,,,,,0.10546875,-0.256510417,1,0,0,1.6762,Diorite_rect,8,0,8,0,1,
656e0dab178ffccdaa47202e,TCN,2024-06-20_13h28.01.937,LearnStrategy,2023.2.3,Win32,40,5,2,10,,,,,,,,7,05,,,,,,,,,,,7,2.226,1,,,,,,0.127604167,-0.416666667,1,0,0,2.2265,Peridotite_rect,9,0,9,0,1,
656e0dab178ffccdaa47202e,TCN,2024-06-20_13h28.01.937,LearnStrategy,2023.2.3,Win32,40,5,2,11,,,,,,,,5,04,,,,,,,,,,,5,1.24,1,,,,,,-0.395833333,-0.4140625,1,0,0,1.2397,Obsidian_rect,10,0,10,0,1,
656e0dab178ffccdaa47202e,TCN,2024-06-20_13h28.01.937,LearnStrategy,2023.2.3,Win32,40,5,2,12,,,,,,,,5,11,,,,,,,,,,,5,1.299,1,,,,,,-0.373697917,-0.388020833,1,0,0,1.2991,Obsidian_rect,11,0,11,0,1,
656e0dab178ffccdaa47202e,TCN,2024-06-20_13h28.01.937,LearnStrategy,2023.2.3,Win32,40,5,2,13,,,,,,,,1,16,,,,,,,,,,,1,1.774,1,,,,,,-0.350260417,-0.239583333,1,0,0,1.7735,Andesite_rect,12,0,12,0,1,
656e0dab178ffccdaa47202e,TCN,2024-06-20_13h28.01.937,LearnStrategy,2023.2.3,Win32,40,5,2,14,,,,,,,,4,10,,,,,,,,,,,4,2.475,1,,,,,,0.36328125,-0.256510417,1,0,0,2.4748,Gabbro_rect,13,0,13,0,1,
656e0dab178ffccdaa47202e,TCN,2024-06-20_13h28.01.937,LearnStrategy,2023.2.3,Win32,40,5,2,15,,,,,,,,6,11,,,,,,,,,,,6,1.37,1,,,,,,-0.1171875,-0.380208333,1,0,0,1.3702,Pegmatite_rect,14,0,14,0,1,
656e0dab178ffccdaa47202e,TCN,2024-06-20_13h28.01.937,LearnStrategy,2023.2.3,Win32,40,5,2,16,,,,,,,,3,02,,,,,,,,,,,7,3.21,0,,,,,,0.127604167,-0.4140625,1,0,0,3.2099,Peridotite_rect,15,0,15,0,1,
656e0dab178ffccdaa47202e,TCN,2024-06-20_13h28.01.937,LearnStrategy,2023.2.3,Win32,40,6,1,1,0.03515625,-0.014322917,1,0,0,1.0205,rock_grid_rect_2,7,12,-1,-1,1.021,0.145833333,-0.401041667,1,0,0,4.2773,Peridotite_rect,7,4.277,1,0,0,0,0,1,,,,,,,,,,,,,
656e0dab178ffccdaa47202e,TCN,2024-06-20_13h28.01.937,LearnStrategy,2023.2.3,Win32,40,6,1,2,0.016927083,-0.014322917,1,0,0,1.1432,rock_grid_rect_2,8,09,-1,-1,1.143,0.4609375,-0.416666667,1,0,0,1.304,Pumice_rect,8,1.304,1,1,0,1,0,1,,,,,,,,,,,,,
656e0dab178ffccdaa47202e,TCN,2024-06-20_13h28.01.937,LearnStrategy,2023.2.3,Win32,40,6,1,3,0.015625,-0.002604167,1,0,0,0.8695,rock_grid_rect_2,6,13,-1,-1,0.87,0.149739583,-0.264322917,1,0,0,5.7516,Diorite_rect,3,5.752,0,2,0,2,0,1,,,,,,,,,,,,,
656e0dab178ffccdaa47202e,TCN,2024-06-20_13h28.01.937,LearnStrategy,2023.2.3,Win32,40,6,1,4,0.010416667,0.006510417,1,0,0,0.7931,rock_grid_rect_2,1,07,-1,-1,0.793,0.075520833,-0.388020833,1,0,0,3.253,Peridotite_rect,7,3.253,0,3,0,3,0,1,,,,,,,,,,,,,
656e0dab178ffccdaa47202e,TCN,2024-06-20_13h28.01.937,LearnStrategy,2023.2.3,Win32,40,6,1,5,0.013020833,0.014322917,1,0,0,0.7437,rock_grid_rect_2,1,05,-1,-1,0.744,0.373697917,-0.25390625,1,0,0,2.0789,Gabbro_rect,4,2.079,0,4,0,4,0,1,,,,,,,,,,,,,
656e0dab178ffccdaa47202e,TCN,2024-06-20_13h28.01.937,LearnStrategy,2023.2.3,Win32,40,6,1,6,-0.02734375,-0.0078125,1,0,0,1.0201,rock_grid_rect_2,4,08,-1,-1,1.02,0.38671875,-0.236979167,1,0,0,2.8024,Gabbro_rect,4,2.802,1,5,0,5,0,1,,,,,,,,,,,,,
656e0dab178ffccdaa47202e,TCN,2024-06-20_13h28.01.937,LearnStrategy,2023.2.3,Win32,40,6,1,7,-0.020833333,0.00390625,1,0,0,0.9197,rock_grid_rect_2,8,15,-1,-1,0.92,0.397135417,-0.40625,1,0,0,1.5162,Pumice_rect,8,1.516,1,6,0,6,0,1,,,,,,,,,,,,,
656e0dab178ffccdaa47202e,TCN,2024-06-20_13h28.01.937,LearnStrategy,2023.2.3,Win32,40,6,1,8,-0.02734375,-0.005208333,1,0,0,1.0186,rock_grid_rect_2,3,07,-1,-1,1.019,-0.356770833,-0.270833333,1,0,0,4.3519,Andesite_rect,1,4.352,0,7,0,7,0,1,,,,,,,,,,,,,
656e0dab178ffccdaa47202e,TCN,2024-06-20_13h28.01.937,LearnStrategy,2023.2.3,Win32,40,6,1,9,0.075520833,-0.010416667,1,0,0,0.8184,rock_grid_rect_2,6,03,-1,-1,0.818,-0.11328125,-0.407552083,1,0,0,2.1554,Pegmatite_rect,6,2.155,1,8,0,8,0,1,,,,,,,,,,,,,
656e0dab178ffccdaa47202e,TCN,2024-06-20_13h28.01.937,LearnStrategy,2023.2.3,Win32,40,6,1,10,0.001302083,0.005208333,1,0,0,0.9694,rock_grid_rect_2,5,07,-1,-1,0.969,-0.388020833,-0.403645833,1,0,0,1.6286,Obsidian_rect,5,1.629,1,9,0,9,0,1,,,,,,,,,,,,,
656e0dab178ffccdaa47202e,TCN,2024-06-20_13h28.01.937,LearnStrategy,2023.2.3,Win32,40,6,1,11,-0.024739583,-0.013020833,1,0,0,0.8697,rock_grid_rect_2,2,16,-1,-1,0.87,-0.15625,-0.2421875,1,0,0,3.0541,Basalt_rect,2,3.054,1,10,0,10,0,1,,,,,,,,,,,,,
656e0dab178ffccdaa47202e,TCN,2024-06-20_13h28.01.937,LearnStrategy,2023.2.3,Win32,40,6,1,12,0.01953125,-0.006510417,1,0,0,0.9452,rock_grid_rect_2,3,14,-1,-1,0.945,-0.3828125,-0.26171875,1,0,0,3.3281,Andesite_rect,1,3.328,0,11,0,11,0,1,,,,,,,,,,,,,
656e0dab178ffccdaa47202e,TCN,2024-06-20_13h28.01.937,LearnStrategy,2023.2.3,Win32,40,6,1,13,0.09765625,0.00390625,1,0,0,1.4191,rock_grid_rect_2,2,05,-1,-1,1.419,-0.07421875,-0.255208333,1,0,0,1.1081,Basalt_rect,2,1.108,1,12,0,12,0,1,,,,,,,,,,,,,
656e0dab178ffccdaa47202e,TCN,2024-06-20_13h28.01.937,LearnStrategy,2023.2.3,Win32,40,6,1,14,0.006510417,-0.01171875,1,0,0,1.1228,rock_grid_rect_2,5,14,-1,-1,1.123,-0.40234375,-0.408854167,1,0,0,1.404,Obsidian_rect,5,1.404,1,13,0,13,0,1,,,,,,,,,,,,,
656e0dab178ffccdaa47202e,TCN,2024-06-20_13h28.01.937,LearnStrategy,2023.2.3,Win32,40,6,1,15,0.009114583,-0.002604167,1,0,0,1.2704,rock_grid_rect_2,4,11,-1,-1,1.27,0.38671875,-0.252604167,1,0,0,2.353,Gabbro_rect,4,2.353,1,14,0,14,0,1,,,,,,,,,,,,,
656e0dab178ffccdaa47202e,TCN,2024-06-20_13h28.01.937,LearnStrategy,2023.2.3,Win32,40,6,1,16,-0.0234375,0.0078125,1,0,0,0.9205,rock_grid_rect_2,7,16,-1,-1,0.921,0.131510417,-0.415364583,1,0,0,5.5514,Peridotite_rect,7,5.551,1,15,0,15,0,1,,,,,,,,,,,,,
656e0dab178ffccdaa47202e,TCN,2024-06-20_13h28.01.937,LearnStrategy,2023.2.3,Win32,40,6,2,1,,,,,,,,7,08,,,,,,,,,,,7,3.808,1,,,,,,0.09765625,-0.411458333,1,0,0,3.8084,Peridotite_rect,0,0,0,0,1,
656e0dab178ffccdaa47202e,TCN,2024-06-20_13h28.01.937,LearnStrategy,2023.2.3,Win32,40,6,2,2,,,,,,,,4,15,,,,,,,,,,,1,3.632,0,,,,,,-0.369791667,-0.25390625,1,0,0,3.6324,Andesite_rect,1,0,1,0,1,
656e0dab178ffccdaa47202e,TCN,2024-06-20_13h28.01.937,LearnStrategy,2023.2.3,Win32,40,6,2,3,,,,,,,,1,09,,,,,,,,,,,1,7.425,1,,,,,,-0.352864583,-0.255208333,1,0,0,7.4252,Andesite_rect,2,0,2,0,1,
656e0dab178ffccdaa47202e,TCN,2024-06-20_13h28.01.937,LearnStrategy,2023.2.3,Win32,40,6,2,4,,,,,,,,8,06,,,,,,,,,,,8,1.373,1,,,,,,0.419270833,-0.41796875,1,0,0,1.3732,Pumice_rect,3,0,3,0,1,
656e0dab178ffccdaa47202e,TCN,2024-06-20_13h28.01.937,LearnStrategy,2023.2.3,Win32,40,6,2,5,,,,,,,,6,12,,,,,,,,,,,6,1.587,1,,,,,,-0.12890625,-0.395833333,1,0,0,1.5866,Pegmatite_rect,4,0,4,0,1,
656e0dab178ffccdaa47202e,TCN,2024-06-20_13h28.01.937,LearnStrategy,2023.2.3,Win32,40,6,2,6,,,,,,,,5,02,,,,,,,,,,,5,1.216,1,,,,,,-0.350260417,-0.393229167,1,0,0,1.2155,Obsidian_rect,5,0,5,0,1,
656e0dab178ffccdaa47202e,TCN,2024-06-20_13h28.01.937,LearnStrategy,2023.2.3,Win32,40,6,2,7,,,,,,,,7,15,,,,,,,,,,,7,5.726,1,,,,,,0.100260417,-0.4140625,1,0,0,5.7256,Peridotite_rect,6,0,6,0,1,
656e0dab178ffccdaa47202e,TCN,2024-06-20_13h28.01.937,LearnStrategy,2023.2.3,Win32,40,6,2,8,,,,,,,,8,08,,,,,,,,,,,8,1.589,1,,,,,,0.375,-0.415364583,1,0,0,1.5887,Pumice_rect,7,0,7,0,1,
656e0dab178ffccdaa47202e,TCN,2024-06-20_13h28.01.937,LearnStrategy,2023.2.3,Win32,40,6,2,9,,,,,,,,3,13,,,,,,,,,,,3,2.073,1,,,,,,0.139322917,-0.259114583,1,0,0,2.0733,Diorite_rect,8,0,8,0,1,
656e0dab178ffccdaa47202e,TCN,2024-06-20_13h28.01.937,LearnStrategy,2023.2.3,Win32,40,6,2,10,,,,,,,,5,06,,,,,,,,,,,5,1.429,1,,,,,,-0.40625,-0.415364583,1,0,0,1.4294,Obsidian_rect,9,0,9,0,1,
656e0dab178ffccdaa47202e,TCN,2024-06-20_13h28.01.937,LearnStrategy,2023.2.3,Win32,40,6,2,11,,,,,,,,6,09,,,,,,,,,,,6,2.198,1,,,,,,-0.127604167,-0.391927083,1,0,0,2.1984,Pegmatite_rect,10,0,10,0,1,
656e0dab178ffccdaa47202e,TCN,2024-06-20_13h28.01.937,LearnStrategy,2023.2.3,Win32,40,6,2,12,,,,,,,,1,01,,,,,,,,,,,7,4.852,0,,,,,,0.1171875,-0.397135417,1,0,0,4.852,Peridotite_rect,11,0,11,0,1,
656e0dab178ffccdaa47202e,TCN,2024-06-20_13h28.01.937,LearnStrategy,2023.2.3,Win32,40,6,2,13,,,,,,,,2,09,,,,,,,,,,,2,1.189,1,,,,,,-0.087239583,-0.236979167,1,0,0,1.1894,Basalt_rect,12,0,12,0,1,
656e0dab178ffccdaa47202e,TCN,2024-06-20_13h28.01.937,LearnStrategy,2023.2.3,Win32,40,6,2,14,,,,,,,,4,09,,,,,,,,,,,4,3.646,1,,,,,,0.403645833,-0.259114583,1,0,0,3.6461,Gabbro_rect,13,0,13,0,1,
656e0dab178ffccdaa47202e,TCN,2024-06-20_13h28.01.937,LearnStrategy,2023.2.3,Win32,40,6,2,15,,,,,,,,2,02,,,,,,,,,,,2,2.753,1,,,,,,-0.096354167,-0.247395833,1,0,0,2.7526,Basalt_rect,14,0,14,0,1,
656e0dab178ffccdaa47202e,TCN,2024-06-20_13h28.01.937,LearnStrategy,2023.2.3,Win32,40,6,2,16,,,,,,,,3,10,,,,,,,,,,,7,9.644,0,,,,,,0.15625,-0.403645833,1,0,0,9.6443,Peridotite_rect,15,0,15,0,1,
656e0dab178ffccdaa47202e,TCN,2024-06-20_13h28.01.937,LearnStrategy,2023.2.3,Win32,40,7,1,1,-0.029947917,-0.0078125,1,0,0,0.7709,rock_grid_rect_2,4,14,-1,-1,0.771,0.141927083,-0.3984375,1,0,0,5.0017,Peridotite_rect,7,5.002,0,0,0,0,0,1,,,,,,,,,,,,,
656e0dab178ffccdaa47202e,TCN,2024-06-20_13h28.01.937,LearnStrategy,2023.2.3,Win32,40,7,1,2,0.022135417,0.015625,1,0,0,1.2935,rock_grid_rect_2,5,14,-1,-1,1.293,-0.352864583,-0.40625,1,0,0,1.304,Obsidian_rect,5,1.304,1,1,0,1,0,1,,,,,,,,,,,,,
656e0dab178ffccdaa47202e,TCN,2024-06-20_13h28.01.937,LearnStrategy,2023.2.3,Win32,40,7,1,3,0.006510417,0.005208333,1,0,0,1.1704,rock_grid_rect_2,2,08,-1,-1,1.17,-0.111979167,-0.252604167,1,0,0,1.7027,Basalt_rect,2,1.703,1,2,0,2,0,1,,,,,,,,,,,,,
656e0dab178ffccdaa47202e,TCN,2024-06-20_13h28.01.937,LearnStrategy,2023.2.3,Win32,40,7,1,4,-0.010416667,0.006510417,1,0,0,1.1699,rock_grid_rect_2,1,11,-1,-1,1.17,-0.33203125,-0.251302083,1,0,0,4.0017,Andesite_rect,1,4.002,1,3,0,3,0,1,,,,,,,,,,,,,
656e0dab178ffccdaa47202e,TCN,2024-06-20_13h28.01.937,LearnStrategy,2023.2.3,Win32,40,7,1,5,-0.022135417,-0.009114583,1,0,0,1.02,rock_grid_rect_2,7,16,-1,-1,1.02,0.1015625,-0.397135417,1,0,0,1.8521,Peridotite_rect,7,1.852,1,4,0,4,0,1,,,,,,,,,,,,,
656e0dab178ffccdaa47202e,TCN,2024-06-20_13h28.01.937,LearnStrategy,2023.2.3,Win32,40,7,1,6,-0.03515625,0.005208333,1,0,0,0.8701,rock_grid_rect_2,5,07,-1,-1,0.87,-0.358072917,-0.384114583,1,0,0,1.379,Obsidian_rect,5,1.379,1,5,0,5,0,1,,,,,,,,,,,,,
656e0dab178ffccdaa47202e,TCN,2024-06-20_13h28.01.937,LearnStrategy,2023.2.3,Win32,40,7,1,7,-0.016927083,0.00390625,1,0,0,1.1454,rock_grid_rect_2,6,03,-1,-1,1.145,-0.071614583,-0.412760417,1,0,0,1.0572,Pegmatite_rect,6,1.057,1,6,0,6,0,1,,,,,,,,,,,,,
656e0dab178ffccdaa47202e,TCN,2024-06-20_13h28.01.937,LearnStrategy,2023.2.3,Win32,40,7,1,8,-0.03125,-0.010416667,1,0,0,0.7954,rock_grid_rect_2,8,09,-1,-1,0.795,0.359375,-0.393229167,1,0,0,1.2017,Pumice_rect,8,1.202,1,7,0,7,0,1,,,,,,,,,,,,,
656e0dab178ffccdaa47202e,TCN,2024-06-20_13h28.01.937,LearnStrategy,2023.2.3,Win32,40,7,1,9,-0.029947917,-0.013020833,1,0,0,1.1034,rock_grid_rect_2,3,14,-1,-1,1.103,0.08984375,-0.399739583,1,0,0,2.2199,Peridotite_rect,7,2.22,0,8,0,8,0,1,,,,,,,,,,,,,
656e0dab178ffccdaa47202e,TCN,2024-06-20_13h28.01.937,LearnStrategy,2023.2.3,Win32,40,7,1,10,0.005208333,0.002604167,1,0,0,0.9943,rock_grid_rect_2,4,03,-1,-1,0.994,0.41015625,-0.252604167,1,0,0,1.9784,Gabbro_rect,4,1.978,1,9,0,9,0,1,,,,,,,,,,,,,
656e0dab178ffccdaa47202e,TCN,2024-06-20_13h28.01.937,LearnStrategy,2023.2.3,Win32,40,7,1,11,0.0078125,-0.010416667,1,0,0,1.2698,rock_grid_rect_2,2,04,-1,-1,1.27,-0.153645833,-0.251302083,1,0,0,1.1548,Basalt_rect,2,1.155,1,10,0,10,0,1,,,,,,,,,,,,,
656e0dab178ffccdaa47202e,TCN,2024-06-20_13h28.01.937,LearnStrategy,2023.2.3,Win32,40,7,1,12,0.067708333,-0.013020833,1,0,0,1.419,rock_grid_rect_2,8,16,-1,-1,1.419,0.348958333,-0.41015625,1,0,0,1.4449,Pumice_rect,8,1.445,1,11,0,11,0,1,,,,,,,,,,,,,
656e0dab178ffccdaa47202e,TCN,2024-06-20_13h28.01.937,LearnStrategy,2023.2.3,Win32,40,7,1,13,0.001302083,-0.013020833,1,0,0,0.968,rock_grid_rect_2,7,14,-1,-1,0.968,0.127604167,-0.40625,1,0,0,2.5864,Peridotite_rect,7,2.586,1,12,0,12,0,1,,,,,,,,,,,,,
656e0dab178ffccdaa47202e,TCN,2024-06-20_13h28.01.937,LearnStrategy,2023.2.3,Win32,40,7,1,14,-0.001302083,0.009114583,1,0,0,0.9956,rock_grid_rect_2,3,09,-1,-1,0.996,0.12890625,-0.255208333,1,0,0,2.5291,Diorite_rect,3,2.529,1,13,0,13,0,1,,,,,,,,,,,,,
656e0dab178ffccdaa47202e,TCN,2024-06-20_13h28.01.937,LearnStrategy,2023.2.3,Win32,40,7,1,15,0.015625,-0.005208333,1,0,0,1.3446,rock_grid_rect_2,6,10,-1,-1,1.345,-0.115885417,-0.39453125,1,0,0,1.2583,Pegmatite_rect,6,1.258,1,14,0,14,0,1,,,,,,,,,,,,,
656e0dab178ffccdaa47202e,TCN,2024-06-20_13h28.01.937,LearnStrategy,2023.2.3,Win32,40,7,1,16,-0.079427083,0.01171875,1,0,0,0.6455,rock_grid_rect_2,1,07,-1,-1,0.646,-0.385416667,-0.229166667,1,0,0,3.2763,Andesite_rect,1,3.276,1,15,0,15,0,1,,,,,,,,,,,,,
656e0dab178ffccdaa47202e,TCN,2024-06-20_13h28.01.937,LearnStrategy,2023.2.3,Win32,40,7,2,1,,,,,,,,6,15,,,,,,,,,,,6,1.197,1,,,,,,-0.09375,-0.40625,1,0,0,1.1975,Pegmatite_rect,0,0,0,0,1,
656e0dab178ffccdaa47202e,TCN,2024-06-20_13h28.01.937,LearnStrategy,2023.2.3,Win32,40,7,2,2,,,,,,,,3,08,,,,,,,,,,,3,3.051,1,,,,,,0.098958333,-0.2578125,1,0,0,3.0509,Diorite_rect,1,0,1,0,1,
656e0dab178ffccdaa47202e,TCN,2024-06-20_13h28.01.937,LearnStrategy,2023.2.3,Win32,40,7,2,3,,,,,,,,3,13,,,,,,,,,,,7,3.36,0,,,,,,0.096354167,-0.401041667,1,0,0,3.36,Peridotite_rect,2,0,2,0,1,
656e0dab178ffccdaa47202e,TCN,2024-06-20_13h28.01.937,LearnStrategy,2023.2.3,Win32,40,7,2,4,,,,,,,,2,11,,,,,,,,,,,4,6.771,0,,,,,,0.364583333,-0.2578125,1,0,0,6.7706,Gabbro_rect,3,0,3,0,1,
656e0dab178ffccdaa47202e,TCN,2024-06-20_13h28.01.937,LearnStrategy,2023.2.3,Win32,40,7,2,5,,,,,,,,1,04,,,,,,,,,,,4,5.121,0,,,,,,0.34765625,-0.231770833,1,0,0,5.1212,Gabbro_rect,4,0,4,0,1,
656e0dab178ffccdaa47202e,TCN,2024-06-20_13h28.01.937,LearnStrategy,2023.2.3,Win32,40,7,2,6,,,,,,,,7,04,,,,,,,,,,,6,4.735,0,,,,,,-0.118489583,-0.391927083,1,0,0,4.7348,Pegmatite_rect,5,0,5,0,1,
656e0dab178ffccdaa47202e,TCN,2024-06-20_13h28.01.937,LearnStrategy,2023.2.3,Win32,40,7,2,7,,,,,,,,5,06,,,,,,,,,,,5,1.168,1,,,,,,-0.407552083,-0.395833333,1,0,0,1.1678,Obsidian_rect,6,0,6,0,1,
656e0dab178ffccdaa47202e,TCN,2024-06-20_13h28.01.937,LearnStrategy,2023.2.3,Win32,40,7,2,8,,,,,,,,5,11,,,,,,,,,,,5,1.212,1,,,,,,-0.385416667,-0.404947917,1,0,0,1.2124,Obsidian_rect,7,0,7,0,1,
656e0dab178ffccdaa47202e,TCN,2024-06-20_13h28.01.937,LearnStrategy,2023.2.3,Win32,40,7,2,9,,,,,,,,8,14,,,,,,,,,,,8,1.276,1,,,,,,0.408854167,-0.412760417,1,0,0,1.2756,Pumice_rect,8,0,8,0,1,
656e0dab178ffccdaa47202e,TCN,2024-06-20_13h28.01.937,LearnStrategy,2023.2.3,Win32,40,7,2,10,,,,,,,,4,10,,,,,,,,,,,4,2.202,1,,,,,,0.372395833,-0.255208333,1,0,0,2.2023,Gabbro_rect,9,0,9,0,1,
656e0dab178ffccdaa47202e,TCN,2024-06-20_13h28.01.937,LearnStrategy,2023.2.3,Win32,40,7,2,11,,,,,,,,1,10,,,,,,,,,,,4,2.74,0,,,,,,0.299479167,-0.251302083,1,0,0,2.7401,Gabbro_rect,10,0,10,0,1,
656e0dab178ffccdaa47202e,TCN,2024-06-20_13h28.01.937,LearnStrategy,2023.2.3,Win32,40,7,2,12,,,,,,,,6,07,,,,,,,,,,,6,1.275,1,,,,,,-0.149739583,-0.411458333,1,0,0,1.2746,Pegmatite_rect,11,0,11,0,1,
656e0dab178ffccdaa47202e,TCN,2024-06-20_13h28.01.937,LearnStrategy,2023.2.3,Win32,40,7,2,13,,,,,,,,2,02,,,,,,,,,,,2,1.89,1,,,,,,-0.106770833,-0.235677083,1,0,0,1.8903,Basalt_rect,12,0,12,0,1,
656e0dab178ffccdaa47202e,TCN,2024-06-20_13h28.01.937,LearnStrategy,2023.2.3,Win32,40,7,2,14,,,,,,,,4,01,,,,,,,,,,,4,1.495,1,,,,,,0.39453125,-0.248697917,1,0,0,1.4953,Gabbro_rect,13,0,13,0,1,
656e0dab178ffccdaa47202e,TCN,2024-06-20_13h28.01.937,LearnStrategy,2023.2.3,Win32,40,7,2,15,,,,,,,,7,15,,,,,,,,,,,7,2.822,1,,,,,,0.088541667,-0.399739583,1,0,0,2.8225,Peridotite_rect,14,0,14,0,1,
656e0dab178ffccdaa47202e,TCN,2024-06-20_13h28.01.937,LearnStrategy,2023.2.3,Win32,40,7,2,16,,,,,,,,8,06,,,,,,,,,,,8,1.315,1,,,,,,0.397135417,-0.393229167,1,0,0,1.3153,Pumice_rect,15,0,15,0,1,
656e0dab178ffccdaa47202e,TCN,2024-06-20_13h28.01.937,LearnStrategy,2023.2.3,Win32,40,8,1,1,-0.020833333,-0.001302083,1,0,0,1.0473,rock_grid_rect_2,8,15,-1,-1,1.047,0.399739583,-0.416666667,1,0,0,1.3558,Pumice_rect,8,1.356,1,0,0,0,0,1,,,,,,,,,,,,,
656e0dab178ffccdaa47202e,TCN,2024-06-20_13h28.01.937,LearnStrategy,2023.2.3,Win32,40,8,1,2,-0.029947917,0.013020833,1,0,0,0.9947,rock_grid_rect_2,5,05,-1,-1,0.995,-0.360677083,-0.389322917,1,0,0,2.436,Obsidian_rect,5,2.436,1,1,0,1,0,1,,,,,,,,,,,,,
656e0dab178ffccdaa47202e,TCN,2024-06-20_13h28.01.937,LearnStrategy,2023.2.3,Win32,40,8,1,3,-0.002604167,-0.0234375,1,0,0,1.0703,rock_grid_rect_2,4,08,-1,-1,1.07,0.369791667,-0.26953125,1,0,0,2.2533,Gabbro_rect,4,2.253,1,2,0,2,0,1,,,,,,,,,,,,,
656e0dab178ffccdaa47202e,TCN,2024-06-20_13h28.01.937,LearnStrategy,2023.2.3,Win32,40,8,1,4,-0.026041667,0,1,0,0,0.9207,rock_grid_rect_2,4,16,-1,-1,0.921,0.384114583,-0.255208333,1,0,0,2.7249,Gabbro_rect,4,2.725,1,3,0,3,0,1,,,,,,,,,,,,,
656e0dab178ffccdaa47202e,TCN,2024-06-20_13h28.01.937,LearnStrategy,2023.2.3,Win32,40,8,1,5,0.009114583,-0.006510417,1,0,0,0.9943,rock_grid_rect_2,7,06,-1,-1,0.994,0.118489583,-0.408854167,1,0,0,2.5647,Peridotite_rect,7,2.565,1,4,0,4,0,1,,,,,,,,,,,,,
656e0dab178ffccdaa47202e,TCN,2024-06-20_13h28.01.937,LearnStrategy,2023.2.3,Win32,40,8,1,6,-0.010416667,-0.01171875,1,0,0,1.0446,rock_grid_rect_2,2,16,-1,-1,1.045,-0.122395833,-0.25390625,1,0,0,2.0033,Basalt_rect,2,2.003,1,5,0,5,0,1,,,,,,,,,,,,,
656e0dab178ffccdaa47202e,TCN,2024-06-20_13h28.01.937,LearnStrategy,2023.2.3,Win32,40,8,1,7,0.029947917,-0.00390625,1,0,0,0.894,rock_grid_rect_2,1,05,-1,-1,0.894,-0.361979167,-0.255208333,1,0,0,3.9246,Andesite_rect,1,3.925,1,6,0,6,0,1,,,,,,,,,,,,,
656e0dab178ffccdaa47202e,TCN,2024-06-20_13h28.01.937,LearnStrategy,2023.2.3,Win32,40,8,1,8,0.015625,-0.0078125,1,0,0,1.1725,rock_grid_rect_2,7,12,-1,-1,1.173,0.130208333,-0.2421875,1,0,0,4.0263,Diorite_rect,3,4.026,0,7,0,7,0,1,,,,,,,,,,,,,
656e0dab178ffccdaa47202e,TCN,2024-06-20_13h28.01.937,LearnStrategy,2023.2.3,Win32,40,8,1,9,0.046875,-0.013020833,1,0,0,1.2043,rock_grid_rect_2,6,05,-1,-1,1.204,-0.3984375,-0.41015625,1,0,0,3.0475,Obsidian_rect,5,3.047,0,8,0,8,0,1,,,,,,,,,,,,,
656e0dab178ffccdaa47202e,TCN,2024-06-20_13h28.01.937,LearnStrategy,2023.2.3,Win32,40,8,1,10,-0.002604167,0.022135417,1,0,0,1.2186,rock_grid_rect_2,5,08,-1,-1,1.219,-0.361979167,-0.403645833,1,0,0,1.3026,Obsidian_rect,5,1.303,1,9,0,9,0,1,,,,,,,,,,,,,
656e0dab178ffccdaa47202e,TCN,2024-06-20_13h28.01.937,LearnStrategy,2023.2.3,Win32,40,8,1,11,-0.022135417,-0.00390625,1,0,0,1.5483,rock_grid_rect_2,8,13,-1,-1,1.548,0.399739583,-0.3984375,1,0,0,1.8696,Pumice_rect,8,1.87,1,10,0,10,0,1,,,,,,,,,,,,,
656e0dab178ffccdaa47202e,TCN,2024-06-20_13h28.01.937,LearnStrategy,2023.2.3,Win32,40,8,1,12,-0.059895833,-0.016927083,1,0,0,0.6979,rock_grid_rect_2,3,06,-1,-1,0.698,0.119791667,-0.416666667,1,0,0,3.4778,Peridotite_rect,7,3.478,0,11,0,11,0,1,,,,,,,,,,,,,
656e0dab178ffccdaa47202e,TCN,2024-06-20_13h28.01.937,LearnStrategy,2023.2.3,Win32,40,8,1,13,-0.013020833,0.001302083,1,0,0,0.7201,rock_grid_rect_2,2,05,-1,-1,0.72,-0.139322917,-0.248697917,1,0,0,1.3287,Basalt_rect,2,1.329,1,12,0,12,0,1,,,,,,,,,,,,,
656e0dab178ffccdaa47202e,TCN,2024-06-20_13h28.01.937,LearnStrategy,2023.2.3,Win32,40,8,1,14,-0.0234375,0.010416667,1,0,0,0.9981,rock_grid_rect_2,6,16,-1,-1,0.998,-0.1171875,-0.41796875,1,0,0,1.9193,Pegmatite_rect,6,1.919,1,13,0,13,0,1,,,,,,,,,,,,,
656e0dab178ffccdaa47202e,TCN,2024-06-20_13h28.01.937,LearnStrategy,2023.2.3,Win32,40,8,1,15,-0.0078125,0.006510417,1,0,0,1.122,rock_grid_rect_2,1,02,-1,-1,1.122,-0.393229167,-0.264322917,1,0,0,1.8622,Andesite_rect,1,1.862,1,14,0,14,0,1,,,,,,,,,,,,,
656e0dab178ffccdaa47202e,TCN,2024-06-20_13h28.01.937,LearnStrategy,2023.2.3,Win32,40,8,1,16,0.013020833,0.01171875,1,0,0,1.0219,rock_grid_rect_2,3,16,-1,-1,1.022,0.12890625,-0.252604167,1,0,0,2.8639,Diorite_rect,3,2.864,1,15,0,15,0,1,,,,,,,,,,,,,
656e0dab178ffccdaa47202e,TCN,2024-06-20_13h28.01.937,LearnStrategy,2023.2.3,Win32,40,8,2,1,,,,,,,,4,09,,,,,,,,,,,4,5.385,1,,,,,,0.40625,-0.263020833,1,0,0,5.3849,Gabbro_rect,0,0,0,0,1,
656e0dab178ffccdaa47202e,TCN,2024-06-20_13h28.01.937,LearnStrategy,2023.2.3,Win32,40,8,2,2,,,,,,,,2,06,,,,,,,,,,,2,1.493,1,,,,,,-0.12109375,-0.25,1,0,0,1.493,Basalt_rect,1,0,1,0,1,
656e0dab178ffccdaa47202e,TCN,2024-06-20_13h28.01.937,LearnStrategy,2023.2.3,Win32,40,8,2,3,,,,,,,,5,02,,,,,,,,,,,5,1.215,1,,,,,,-0.39453125,-0.404947917,1,0,0,1.2153,Obsidian_rect,2,0,2,0,1,
656e0dab178ffccdaa47202e,TCN,2024-06-20_13h28.01.937,LearnStrategy,2023.2.3,Win32,40,8,2,4,,,,,,,,7,05,,,,,,,,,,,7,3.543,1,,,,,,0.12109375,-0.399739583,1,0,0,3.5426,Peridotite_rect,3,0,3,0,1,
656e0dab178ffccdaa47202e,TCN,2024-06-20_13h28.01.937,LearnStrategy,2023.2.3,Win32,40,8,2,5,,,,,,,,3,15,,,,,,,,,,,1,2.609,0,,,,,,-0.36328125,-0.255208333,1,0,0,2.609,Andesite_rect,4,0,4,0,1,
656e0dab178ffccdaa47202e,TCN,2024-06-20_13h28.01.937,LearnStrategy,2023.2.3,Win32,40,8,2,6,,,,,,,,8,02,,,,,,,,,,,8,1.333,1,,,,,,0.373697917,-0.39453125,1,0,0,1.3331,Pumice_rect,5,0,5,0,1,
656e0dab178ffccdaa47202e,TCN,2024-06-20_13h28.01.937,LearnStrategy,2023.2.3,Win32,40,8,2,7,,,,,,,,5,04,,,,,,,,,,,5,1.415,1,,,,,,-0.434895833,-0.391927083,1,0,0,1.4149,Obsidian_rect,6,0,6,0,1,
656e0dab178ffccdaa47202e,TCN,2024-06-20_13h28.01.937,LearnStrategy,2023.2.3,Win32,40,8,2,8,,,,,,,,1,09,,,,,,,,,,,4,2.551,0,,,,,,0.368489583,-0.243489583,1,0,0,2.5514,Gabbro_rect,7,0,7,0,1,
656e0dab178ffccdaa47202e,TCN,2024-06-20_13h28.01.937,LearnStrategy,2023.2.3,Win32,40,8,2,9,,,,,,,,4,05,,,,,,,,,,,4,3.805,1,,,,,,0.440104167,-0.25,1,0,0,3.8051,Gabbro_rect,8,0,8,0,1,
656e0dab178ffccdaa47202e,TCN,2024-06-20_13h28.01.937,LearnStrategy,2023.2.3,Win32,40,8,2,10,,,,,,,,6,12,,,,,,,,,,,6,2.807,1,,,,,,-0.17578125,-0.41015625,1,0,0,2.8071,Pegmatite_rect,9,0,9,0,1,
656e0dab178ffccdaa47202e,TCN,2024-06-20_13h28.01.937,LearnStrategy,2023.2.3,Win32,40,8,2,11,,,,,,,,1,14,,,,,,,,,,,1,2.565,1,,,,,,-0.38671875,-0.266927083,1,0,0,2.5645,Andesite_rect,10,0,10,0,1,
656e0dab178ffccdaa47202e,TCN,2024-06-20_13h28.01.937,LearnStrategy,2023.2.3,Win32,40,8,2,12,,,,,,,,7,13,,,,,,,,,,,7,2.537,1,,,,,,0.111979167,-0.397135417,1,0,0,2.5366,Peridotite_rect,11,0,11,0,1,
656e0dab178ffccdaa47202e,TCN,2024-06-20_13h28.01.937,LearnStrategy,2023.2.3,Win32,40,8,2,13,,,,,,,,3,02,,,,,,,,,,,3,4.988,1,,,,,,0.122395833,-0.264322917,1,0,0,4.9879,Diorite_rect,12,0,12,0,1,
656e0dab178ffccdaa47202e,TCN,2024-06-20_13h28.01.937,LearnStrategy,2023.2.3,Win32,40,8,2,14,,,,,,,,6,08,,,,,,,,,,,6,1.28,1,,,,,,-0.174479167,-0.4140625,1,0,0,1.2796,Pegmatite_rect,13,0,13,0,1,
656e0dab178ffccdaa47202e,TCN,2024-06-20_13h28.01.937,LearnStrategy,2023.2.3,Win32,40,8,2,15,,,,,,,,2,14,,,,,,,,,,,8,1.24,0,,,,,,0.369791667,-0.404947917,1,0,0,1.2399,Pumice_rect,14,0,14,0,1,
656e0dab178ffccdaa47202e,TCN,2024-06-20_13h28.01.937,LearnStrategy,2023.2.3,Win32,40,8,2,16,,,,,,,,8,05,,,,,,,,,,,8,1.265,1,,,,,,0.395833333,-0.3984375,1,0,0,1.2654,Pumice_rect,15,0,15,0,1,
656e0dab178ffccdaa47202e,TCN,2024-06-20_13h28.01.937,LearnStrategy,2023.2.3,Win32,40,9,1,1,-0.009114583,-0.016927083,1,0,0,0.6714,rock_grid_rect_2,6,13,-1,-1,0.671,-0.12890625,-0.41015625,1,0,0,3.7027,Pegmatite_rect,6,3.703,1,0,0,0,0,1,,,,,,,,,,,,,
656e0dab178ffccdaa47202e,TCN,2024-06-20_13h28.01.937,LearnStrategy,2023.2.3,Win32,40,9,1,2,0.032552083,0.020833333,1,0,0,1.0949,rock_grid_rect_2,3,07,-1,-1,1.095,-0.388020833,-0.235677083,1,0,0,2.5029,Andesite_rect,1,2.503,0,1,0,1,0,1,,,,,,,,,,,,,
656e0dab178ffccdaa47202e,TCN,2024-06-20_13h28.01.937,LearnStrategy,2023.2.3,Win32,40,9,1,3,0.01171875,-0.002604167,1,0,0,1.0702,rock_grid_rect_2,4,11,-1,-1,1.07,0.354166667,-0.255208333,1,0,0,2.0041,Gabbro_rect,4,2.004,1,2,0,2,0,1,,,,,,,,,,,,,
656e0dab178ffccdaa47202e,TCN,2024-06-20_13h28.01.937,LearnStrategy,2023.2.3,Win32,40,9,1,4,-0.002604167,-0.002604167,1,0,0,1.1445,rock_grid_rect_2,6,06,-1,-1,1.145,-0.12109375,-0.395833333,1,0,0,1.5291,Pegmatite_rect,6,1.529,1,3,0,3,0,1,,,,,,,,,,,,,
656e0dab178ffccdaa47202e,TCN,2024-06-20_13h28.01.937,LearnStrategy,2023.2.3,Win32,40,9,1,5,0,-0.00390625,1,0,0,0.8704,rock_grid_rect_2,1,06,-1,-1,0.87,-0.368489583,-0.240885417,1,0,0,1.8283,Andesite_rect,1,1.828,1,4,0,4,0,1,,,,,,,,,,,,,
656e0dab178ffccdaa47202e,TCN,2024-06-20_13h28.01.937,LearnStrategy,2023.2.3,Win32,40,9,1,6,-0.010416667,-0.01171875,1,0,0,0.9197,rock_grid_rect_2,2,01,-1,-1,0.92,-0.069010417,-0.25390625,1,0,0,1.3783,Basalt_rect,2,1.378,1,5,0,5,0,1,,,,,,,,,,,,,
656e0dab178ffccdaa47202e,TCN,2024-06-20_13h28.01.937,LearnStrategy,2023.2.3,Win32,40,9,1,7,0.0078125,0.018229167,1,0,0,0.9452,rock_grid_rect_2,2,12,-1,-1,0.945,-0.109375,-0.2421875,1,0,0,2.8026,Basalt_rect,2,2.803,1,6,0,6,0,1,,,,,,,,,,,,,
656e0dab178ffccdaa47202e,TCN,2024-06-20_13h28.01.937,LearnStrategy,2023.2.3,Win32,40,9,1,8,-0.009114583,0.001302083,1,0,0,1.1201,rock_grid_rect_2,7,07,-1,-1,1.12,0.123697917,-0.391927083,1,0,0,2.0289,Peridotite_rect,7,2.029,1,7,0,7,0,1,,,,,,,,,,,,,
656e0dab178ffccdaa47202e,TCN,2024-06-20_13h28.01.937,LearnStrategy,2023.2.3,Win32,40,9,1,9,-0.009114583,0.00390625,1,0,0,1.0689,rock_grid_rect_2,1,03,-1,-1,1.069,-0.356770833,-0.244791667,1,0,0,1.7299,Andesite_rect,1,1.73,1,8,0,8,0,1,,,,,,,,,,,,,
656e0dab178ffccdaa47202e,TCN,2024-06-20_13h28.01.937,LearnStrategy,2023.2.3,Win32,40,9,1,10,-0.016927083,-0.00390625,1,0,0,1.2691,rock_grid_rect_2,5,09,-1,-1,1.269,-0.391927083,-0.399739583,1,0,0,2.3163,Obsidian_rect,5,2.316,1,9,0,9,0,1,,,,,,,,,,,,,
656e0dab178ffccdaa47202e,TCN,2024-06-20_13h28.01.937,LearnStrategy,2023.2.3,Win32,40,9,1,11,0.02734375,-0.010416667,1,0,0,1.045,rock_grid_rect_2,7,10,-1,-1,1.045,0.115885417,-0.395833333,1,0,0,1.3618,Peridotite_rect,7,1.362,1,10,0,10,0,1,,,,,,,,,,,,,
656e0dab178ffccdaa47202e,TCN,2024-06-20_13h28.01.937,LearnStrategy,2023.2.3,Win32,40,9,1,12,-0.046875,-0.015625,1,0,0,1.1204,rock_grid_rect_2,3,12,-1,-1,1.12,0.12109375,-0.252604167,1,0,0,1.4169,Diorite_rect,3,1.417,1,11,0,11,0,1,,,,,,,,,,,,,
656e0dab178ffccdaa47202e,TCN,2024-06-20_13h28.01.937,LearnStrategy,2023.2.3,Win32,40,9,1,13,-0.052083333,-0.016927083,1,0,0,1.1473,rock_grid_rect_2,8,04,-1,-1,1.147,0.41796875,-0.38671875,1,0,0,1.2209,Pumice_rect,8,1.221,1,12,0,12,0,1,,,,,,,,,,,,,
656e0dab178ffccdaa47202e,TCN,2024-06-20_13h28.01.937,LearnStrategy,2023.2.3,Win32,40,9,1,14,-0.009114583,-0.006510417,1,0,0,0.9202,rock_grid_rect_2,5,12,-1,-1,0.92,-0.41796875,-0.415364583,1,0,0,1.3035,Obsidian_rect,5,1.303,1,13,0,13,0,1,,,,,,,,,,,,,
656e0dab178ffccdaa47202e,TCN,2024-06-20_13h28.01.937,LearnStrategy,2023.2.3,Win32,40,9,1,15,-0.010416667,-0.01953125,1,0,0,1.22,rock_grid_rect_2,4,13,-1,-1,1.22,0.359375,-0.248697917,1,0,0,2.081,Gabbro_rect,4,2.081,1,14,0,14,0,1,,,,,,,,,,,,,
656e0dab178ffccdaa47202e,TCN,2024-06-20_13h28.01.937,LearnStrategy,2023.2.3,Win32,40,9,1,16,-0.002604167,-0.010416667,1,0,0,1.1201,rock_grid_rect_2,8,03,-1,-1,1.12,0.4375,-0.419270833,1,0,0,1.4043,Pumice_rect,8,1.404,1,15,0,15,0,1,,,,,,,,,,,,,
656e0dab178ffccdaa47202e,TCN,2024-06-20_13h28.01.937,LearnStrategy,2023.2.3,Win32,40,9,2,1,,,,,,,,2,09,,,,,,,,,,,2,2.425,1,,,,,,-0.1171875,-0.25390625,1,0,0,2.4254,Basalt_rect,0,0,0,0,1,
656e0dab178ffccdaa47202e,TCN,2024-06-20_13h28.01.937,LearnStrategy,2023.2.3,Win32,40,9,2,2,,,,,,,,6,11,,,,,,,,,,,6,1.384,1,,,,,,-0.143229167,-0.4140625,1,0,0,1.3841,Pegmatite_rect,1,0,1,0,1,
656e0dab178ffccdaa47202e,TCN,2024-06-20_13h28.01.937,LearnStrategy,2023.2.3,Win32,40,9,2,3,,,,,,,,3,11,,,,,,,,,,,7,8.26,0,,,,,,0.15625,-0.411458333,1,0,0,8.2599,Peridotite_rect,2,0,2,0,1,
656e0dab178ffccdaa47202e,TCN,2024-06-20_13h28.01.937,LearnStrategy,2023.2.3,Win32,40,9,2,4,,,,,,,,5,16,,,,,,,,,,,5,1.371,1,,,,,,-0.3984375,-0.40234375,1,0,0,1.371,Obsidian_rect,3,0,3,0,1,
656e0dab178ffccdaa47202e,TCN,2024-06-20_13h28.01.937,LearnStrategy,2023.2.3,Win32,40,9,2,5,,,,,,,,1,01,,,,,,,,,,,7,5.149,0,,,,,,0.109375,-0.41796875,1,0,0,5.1486,Peridotite_rect,4,0,4,0,1,
656e0dab178ffccdaa47202e,TCN,2024-06-20_13h28.01.937,LearnStrategy,2023.2.3,Win32,40,9,2,6,,,,,,,,6,09,,,,,,,,,,,6,1.182,1,,,,,,-0.106770833,-0.41796875,1,0,0,1.1817,Pegmatite_rect,5,0,5,0,1,
656e0dab178ffccdaa47202e,TCN,2024-06-20_13h28.01.937,LearnStrategy,2023.2.3,Win32,40,9,2,7,,,,,,,,5,10,,,,,,,,,,,5,1.188,1,,,,,,-0.420572917,-0.397135417,1,0,0,1.1885,Obsidian_rect,6,0,6,0,1,
656e0dab178ffccdaa47202e,TCN,2024-06-20_13h28.01.937,LearnStrategy,2023.2.3,Win32,40,9,2,8,,,,,,,,4,15,,,,,,,,,,,4,2.689,1,,,,,,0.415364583,-0.256510417,1,0,0,2.689,Gabbro_rect,7,0,7,0,1,
656e0dab178ffccdaa47202e,TCN,2024-06-20_13h28.01.937,LearnStrategy,2023.2.3,Win32,40,9,2,9,,,,,,,,1,16,,,,,,,,,,,7,1.724,0,,,,,,0.084635417,-0.404947917,1,0,0,1.7242,Peridotite_rect,8,0,8,0,1,
656e0dab178ffccdaa47202e,TCN,2024-06-20_13h28.01.937,LearnStrategy,2023.2.3,Win32,40,9,2,10,,,,,,,,8,10,,,,,,,,,,,8,1.364,1,,,,,,0.506510417,-0.412760417,1,0,0,1.3644,Pumice_rect,9,0,9,0,1,
656e0dab178ffccdaa47202e,TCN,2024-06-20_13h28.01.937,LearnStrategy,2023.2.3,Win32,40,9,2,11,,,,,,,,7,08,,,,,,,,,,,7,1.326,1,,,,,,0.109375,-0.385416667,1,0,0,1.3263,Peridotite_rect,10,0,10,0,1,
656e0dab178ffccdaa47202e,TCN,2024-06-20_13h28.01.937,LearnStrategy,2023.2.3,Win32,40,9,2,12,,,,,,,,7,02,,,,,,,,,,,7,1.701,1,,,,,,0.108072917,-0.40234375,1,0,0,1.7008,Peridotite_rect,11,0,11,0,1,
656e0dab178ffccdaa47202e,TCN,2024-06-20_13h28.01.937,LearnStrategy,2023.2.3,Win32,40,9,2,13,,,,,,,,8,08,,,,,,,,,,,8,1.748,1,,,,,,0.40625,-0.415364583,1,0,0,1.7476,Pumice_rect,12,0,12,0,1,
656e0dab178ffccdaa47202e,TCN,2024-06-20_13h28.01.937,LearnStrategy,2023.2.3,Win32,40,9,2,14,,,,,,,,2,10,,,,,,,,,,,2,1.403,1,,,,,,-0.125,-0.26171875,1,0,0,1.4032,Basalt_rect,13,0,13,0,1,
656e0dab178ffccdaa47202e,TCN,2024-06-20_13h28.01.937,LearnStrategy,2023.2.3,Win32,40,9,2,15,,,,,,,,4,12,,,,,,,,,,,4,1.773,1,,,,,,0.39453125,-0.256510417,1,0,0,1.7732,Gabbro_rect,14,0,14,0,1,
656e0dab178ffccdaa47202e,TCN,2024-06-20_13h28.01.937,LearnStrategy,2023.2.3,Win32,40,9,2,16,,,,,,,,3,10,,,,,,,,,,,1,3.376,0,,,,,,-0.376302083,-0.25,1,0,0,3.3758,Andesite_rect,15,0,15,0,1,
656e0dab178ffccdaa47202e,TCN,2024-06-20_13h28.01.937,LearnStrategy,2023.2.3,Win32,40,,,,,,,,,,,,,,,,,,,,,,,,,,,,,,,,,,,,,,,,,,,1
656e0dab178ffccdaa47202e,TCN,2024-06-20_13h28.01.937,LearnStrategy,2023.2.3,Win32,40,,,,,,,,,,,,,,,,,,,,,,,,,,,,,,,,,,,,,,,,,,,
656e0dab178ffccdaa47202e,TCN,2024-06-20_13h28.01.937,LearnStrategy,2023.2.3,Win32,40,,,,,,,,,,,1,11,1,1,,,,,,,,,,,,,,,,,,,,,,,,,,,,,
656e0dab178ffccdaa47202e,TCN,2024-06-20_13h28.01.937,LearnStrategy,2023.2.3,Win32,40,,,,,,,,,,,7,10,1,2,,,,,,,,,,,,,,,,,,,,,,,,,,,,,
656e0dab178ffccdaa47202e,TCN,2024-06-20_13h28.01.937,LearnStrategy,2023.2.3,Win32,40,,,,,,,,,,,3,07,1,3,,,,,,,,,,,,,,,,,,,,,,,,,,,,,
656e0dab178ffccdaa47202e,TCN,2024-06-20_13h28.01.937,LearnStrategy,2023.2.3,Win32,40,,,,,,,,,,,7,16,1,4,,,,,,,,,,,,,,,,,,,,,,,,,,,,,
656e0dab178ffccdaa47202e,TCN,2024-06-20_13h28.01.937,LearnStrategy,2023.2.3,Win32,40,,,,,,,,,,,8,03,1,5,,,,,,,,,,,,,,,,,,,,,,,,,,,,,
656e0dab178ffccdaa47202e,TCN,2024-06-20_13h28.01.937,LearnStrategy,2023.2.3,Win32,40,,,,,,,,,,,5,14,1,6,,,,,,,,,,,,,,,,,,,,,,,,,,,,,
656e0dab178ffccdaa47202e,TCN,2024-06-20_13h28.01.937,LearnStrategy,2023.2.3,Win32,40,,,,,,,,,,,2,05,1,7,,,,,,,,,,,,,,,,,,,,,,,,,,,,,
656e0dab178ffccdaa47202e,TCN,2024-06-20_13h28.01.937,LearnStrategy,2023.2.3,Win32,40,,,,,,,,,,,6,05,1,8,,,,,,,,,,,,,,,,,,,,,,,,,,,,,
656e0dab178ffccdaa47202e,TCN,2024-06-20_13h28.01.937,LearnStrategy,2023.2.3,Win32,40,,,,,,,,,,,6,03,2,1,,,,,,,,,,,,,,,,,,,,,,,,,,,,,
656e0dab178ffccdaa47202e,TCN,2024-06-20_13h28.01.937,LearnStrategy,2023.2.3,Win32,40,,,,,,,,,,,3,09,2,2,,,,,,,,,,,,,,,,,,,,,,,,,,,,,
656e0dab178ffccdaa47202e,TCN,2024-06-20_13h28.01.937,LearnStrategy,2023.2.3,Win32,40,,,,,,,,,,,6,10,2,3,,,,,,,,,,,,,,,,,,,,,,,,,,,,,
656e0dab178ffccdaa47202e,TCN,2024-06-20_13h28.01.937,LearnStrategy,2023.2.3,Win32,40,,,,,,,,,,,5,07,2,4,,,,,,,,,,,,,,,,,,,,,,,,,,,,,
656e0dab178ffccdaa47202e,TCN,2024-06-20_13h28.01.937,LearnStrategy,2023.2.3,Win32,40,,,,,,,,,,,5,09,2,5,,,,,,,,,,,,,,,,,,,,,,,,,,,,,
656e0dab178ffccdaa47202e,TCN,2024-06-20_13h28.01.937,LearnStrategy,2023.2.3,Win32,40,,,,,,,,,,,6,06,2,6,,,,,,,,,,,,,,,,,,,,,,,,,,,,,
656e0dab178ffccdaa47202e,TCN,2024-06-20_13h28.01.937,LearnStrategy,2023.2.3,Win32,40,,,,,,,,,,,4,14,2,7,,,,,,,,,,,,,,,,,,,,,,,,,,,,,
656e0dab178ffccdaa47202e,TCN,2024-06-20_13h28.01.937,LearnStrategy,2023.2.3,Win32,40,,,,,,,,,,,1,05,2,8,,,,,,,,,,,,,,,,,,,,,,,,,,,,,
656e0dab178ffccdaa47202e,TCN,2024-06-20_13h28.01.937,LearnStrategy,2023.2.3,Win32,40,,,,,,,,,,,6,16,3,1,,,,,,,,,,,,,,,,,,,,,,,,,,,,,
656e0dab178ffccdaa47202e,TCN,2024-06-20_13h28.01.937,LearnStrategy,2023.2.3,Win32,40,,,,,,,,,,,4,13,3,2,,,,,,,,,,,,,,,,,,,,,,,,,,,,,
656e0dab178ffccdaa47202e,TCN,2024-06-20_13h28.01.937,LearnStrategy,2023.2.3,Win32,40,,,,,,,,,,,3,16,3,3,,,,,,,,,,,,,,,,,,,,,,,,,,,,,
656e0dab178ffccdaa47202e,TCN,2024-06-20_13h28.01.937,LearnStrategy,2023.2.3,Win32,40,,,,,,,,,,,4,16,3,4,,,,,,,,,,,,,,,,,,,,,,,,,,,,,
656e0dab178ffccdaa47202e,TCN,2024-06-20_13h28.01.937,LearnStrategy,2023.2.3,Win32,40,,,,,,,,,,,3,06,3,5,,,,,,,,,,,,,,,,,,,,,,,,,,,,,
656e0dab178ffccdaa47202e,TCN,2024-06-20_13h28.01.937,LearnStrategy,2023.2.3,Win32,40,,,,,,,,,,,2,12,3,6,,,,,,,,,,,,,,,,,,,,,,,,,,,,,
656e0dab178ffccdaa47202e,TCN,2024-06-20_13h28.01.937,LearnStrategy,2023.2.3,Win32,40,,,,,,,,,,,1,07,3,7,,,,,,,,,,,,,,,,,,,,,,,,,,,,,
656e0dab178ffccdaa47202e,TCN,2024-06-20_13h28.01.937,LearnStrategy,2023.2.3,Win32,40,,,,,,,,,,,2,04,3,8,,,,,,,,,,,,,,,,,,,,,,,,,,,,,
656e0dab178ffccdaa47202e,TCN,2024-06-20_13h28.01.937,LearnStrategy,2023.2.3,Win32,40,,,,,,,,,,,5,12,4,1,,,,,,,,,,,,,,,,,,,,,,,,,,,,,
656e0dab178ffccdaa47202e,TCN,2024-06-20_13h28.01.937,LearnStrategy,2023.2.3,Win32,40,,,,,,,,,,,3,12,4,2,,,,,,,,,,,,,,,,,,,,,,,,,,,,,
656e0dab178ffccdaa47202e,TCN,2024-06-20_13h28.01.937,LearnStrategy,2023.2.3,Win32,40,,,,,,,,,,,5,08,4,3,,,,,,,,,,,,,,,,,,,,,,,,,,,,,
656e0dab178ffccdaa47202e,TCN,2024-06-20_13h28.01.937,LearnStrategy,2023.2.3,Win32,40,,,,,,,,,,,7,06,4,4,,,,,,,,,,,,,,,,,,,,,,,,,,,,,
656e0dab178ffccdaa47202e,TCN,2024-06-20_13h28.01.937,LearnStrategy,2023.2.3,Win32,40,,,,,,,,,,,8,04,4,5,,,,,,,,,,,,,,,,,,,,,,,,,,,,,
656e0dab178ffccdaa47202e,TCN,2024-06-20_13h28.01.937,LearnStrategy,2023.2.3,Win32,40,,,,,,,,,,,4,03,4,6,,,,,,,,,,,,,,,,,,,,,,,,,,,,,
656e0dab178ffccdaa47202e,TCN,2024-06-20_13h28.01.937,LearnStrategy,2023.2.3,Win32,40,,,,,,,,,,,1,03,4,7,,,,,,,,,,,,,,,,,,,,,,,,,,,,,
656e0dab178ffccdaa47202e,TCN,2024-06-20_13h28.01.937,LearnStrategy,2023.2.3,Win32,40,,,,,,,,,,,8,15,4,8,,,,,,,,,,,,,,,,,,,,,,,,,,,,,
656e0dab178ffccdaa47202e,TCN,2024-06-20_13h28.01.937,LearnStrategy,2023.2.3,Win32,40,,,,,,,,,,,8,16,5,1,,,,,,,,,,,,,,,,,,,,,,,,,,,,,
656e0dab178ffccdaa47202e,TCN,2024-06-20_13h28.01.937,LearnStrategy,2023.2.3,Win32,40,,,,,,,,,,,5,05,5,2,,,,,,,,,,,,,,,,,,,,,,,,,,,,,
656e0dab178ffccdaa47202e,TCN,2024-06-20_13h28.01.937,LearnStrategy,2023.2.3,Win32,40,,,,,,,,,,,7,14,5,3,,,,,,,,,,,,,,,,,,,,,,,,,,,,,
656e0dab178ffccdaa47202e,TCN,2024-06-20_13h28.01.937,LearnStrategy,2023.2.3,Win32,40,,,,,,,,,,,3,14,5,4,,,,,,,,,,,,,,,,,,,,,,,,,,,,,
656e0dab178ffccdaa47202e,TCN,2024-06-20_13h28.01.937,LearnStrategy,2023.2.3,Win32,40,,,,,,,,,,,7,07,5,5,,,,,,,,,,,,,,,,,,,,,,,,,,,,,
656e0dab178ffccdaa47202e,TCN,2024-06-20_13h28.01.937,LearnStrategy,2023.2.3,Win32,40,,,,,,,,,,,1,02,5,6,,,,,,,,,,,,,,,,,,,,,,,,,,,,,
656e0dab178ffccdaa47202e,TCN,2024-06-20_13h28.01.937,LearnStrategy,2023.2.3,Win32,40,,,,,,,,,,,7,12,5,7,,,,,,,,,,,,,,,,,,,,,,,,,,,,,
656e0dab178ffccdaa47202e,TCN,2024-06-20_13h28.01.937,LearnStrategy,2023.2.3,Win32,40,,,,,,,,,,,6,13,5,8,,,,,,,,,,,,,,,,,,,,,,,,,,,,,
656e0dab178ffccdaa47202e,TCN,2024-06-20_13h28.01.937,LearnStrategy,2023.2.3,Win32,40,,,,,,,,,,,2,01,6,1,,,,,,,,,,,,,,,,,,,,,,,,,,,,,
656e0dab178ffccdaa47202e,TCN,2024-06-20_13h28.01.937,LearnStrategy,2023.2.3,Win32,40,,,,,,,,,,,8,09,6,2,,,,,,,,,,,,,,,,,,,,,,,,,,,,,
656e0dab178ffccdaa47202e,TCN,2024-06-20_13h28.01.937,LearnStrategy,2023.2.3,Win32,40,,,,,,,,,,,8,13,6,3,,,,,,,,,,,,,,,,,,,,,,,,,,,,,
656e0dab178ffccdaa47202e,TCN,2024-06-20_13h28.01.937,LearnStrategy,2023.2.3,Win32,40,,,,,,,,,,,2,08,6,4,,,,,,,,,,,,,,,,,,,,,,,,,,,,,
656e0dab178ffccdaa47202e,TCN,2024-06-20_13h28.01.937,LearnStrategy,2023.2.3,Win32,40,,,,,,,,,,,4,08,6,5,,,,,,,,,,,,,,,,,,,,,,,,,,,,,
656e0dab178ffccdaa47202e,TCN,2024-06-20_13h28.01.937,LearnStrategy,2023.2.3,Win32,40,,,,,,,,,,,1,06,6,6,,,,,,,,,,,,,,,,,,,,,,,,,,,,,
656e0dab178ffccdaa47202e,TCN,2024-06-20_13h28.01.937,LearnStrategy,2023.2.3,Win32,40,,,,,,,,,,,2,16,6,7,,,,,,,,,,,,,,,,,,,,,,,,,,,,,
656e0dab178ffccdaa47202e,TCN,2024-06-20_13h28.01.937,LearnStrategy,2023.2.3,Win32,40,,,,,,,,,,,4,11,6,8,,,,,,,,,,,,,,,,,,,,,,,,,,,,,