participant,condition,date,expName,psychopyVersion,OS,frameRate,block,phase,trial,learn_mouse_2.x,learn_mouse_2.y,learn_mouse_2.leftButton,learn_mouse_2.midButton,learn_mouse_2.rightButton,learn_mouse_2.time,learn_mouse_2.clicked_name,cat,token,row,col,t_select,cat_mouse_l.x,cat_mouse_l.y,cat_mouse_l.leftButton,cat_mouse_l.midButton,cat_mouse_l.rightButton,cat_mouse_l.time,cat_mouse_l.clicked_name,resp,t_resp,corr,train_trials.thisRepN,train_trials.thisTrialN,train_trials.thisN,train_trials.thisIndex,train_trials.ran,cat_mouse_t.x,cat_mouse_t.y,cat_mouse_t.leftButton,cat_mouse_t.midButton,cat_mouse_t.rightButton,cat_mouse_t.time,cat_mouse_t.clicked_name,test_trials.thisRepN,test_trials.thisTrialN,test_trials.thisN,test_trials.thisIndex,test_trials.ran,Bonus
65761328646d5bb2adf235d4,TCR,2024-06-25_13h23.12.302,LearnStrategy,2023.2.3,Win32,60.24096386,,,,,,,,,,,,,,,,,,,,,,,,,,,,,,,,,,,,,,,,,,,
65761328646d5bb2adf235d4,TCR,2024-06-25_13h23.12.302,LearnStrategy,2023.2.3,Win32,60.24096386,1,1,1,-0.08203125,-0.01171875,1,0,0,3.4451,rock_grid_rect_2,2,10,-1,-1,3.445,0.127604167,-0.240885417,1,0,0,5.3599,Diorite_rect,3,5.36,0,0,0,0,0,1,,,,,,,,,,,,,
65761328646d5bb2adf235d4,TCR,2024-06-25_13h23.12.302,LearnStrategy,2023.2.3,Win32,60.24096386,1,1,2,0.063802083,-0.001302083,1,0,0,1.3367,rock_grid_rect_2,8,10,-1,-1,1.337,-0.10546875,-0.388020833,1,0,0,4.4996,Pegmatite_rect,6,4.5,0,1,0,1,0,1,,,,,,,,,,,,,
65761328646d5bb2adf235d4,TCR,2024-06-25_13h23.12.302,LearnStrategy,2023.2.3,Win32,60.24096386,1,1,3,0.010416667,-0.01171875,1,0,0,1.329,rock_grid_rect_2,6,07,-1,-1,1.329,0.095052083,-0.411458333,1,0,0,7.5443,Peridotite_rect,7,7.544,0,2,0,2,0,1,,,,,,,,,,,,,
65761328646d5bb2adf235d4,TCR,2024-06-25_13h23.12.302,LearnStrategy,2023.2.3,Win32,60.24096386,1,1,4,0.028645833,0.010416667,1,0,0,1.2703,rock_grid_rect_2,4,08,-1,-1,1.27,0.311197917,-0.239583333,1,0,0,7.7286,Gabbro_rect,4,7.729,1,3,0,3,0,1,,,,,,,,,,,,,
65761328646d5bb2adf235d4,TCR,2024-06-25_13h23.12.302,LearnStrategy,2023.2.3,Win32,60.24096386,1,1,5,-0.065104167,-0.016927083,1,0,0,1.3387,rock_grid_rect_2,1,05,-1,-1,1.339,-0.334635417,-0.240885417,1,0,0,3.8314,Andesite_rect,1,3.831,1,4,0,4,0,1,,,,,,,,,,,,,
65761328646d5bb2adf235d4,TCR,2024-06-25_13h23.12.302,LearnStrategy,2023.2.3,Win32,60.24096386,1,1,6,-0.098958333,-0.015625,1,0,0,1.4848,rock_grid_rect_2,7,07,-1,-1,1.485,0.158854167,-0.390625,1,0,0,3.4911,Peridotite_rect,7,3.491,1,5,0,5,0,1,,,,,,,,,,,,,
65761328646d5bb2adf235d4,TCR,2024-06-25_13h23.12.302,LearnStrategy,2023.2.3,Win32,60.24096386,1,1,7,0.053385417,-0.001302083,1,0,0,1.3456,rock_grid_rect_2,4,03,-1,-1,1.346,-0.35546875,-0.397135417,1,0,0,4.3309,Obsidian_rect,5,4.331,0,6,0,6,0,1,,,,,,,,,,,,,
65761328646d5bb2adf235d4,TCR,2024-06-25_13h23.12.302,LearnStrategy,2023.2.3,Win32,60.24096386,1,1,8,-0.032552083,0,1,0,0,1.6034,rock_grid_rect_2,3,10,-1,-1,1.603,0.1484375,-0.39453125,1,0,0,8.3411,Peridotite_rect,7,8.341,0,7,0,7,0,1,,,,,,,,,,,,,
65761328646d5bb2adf235d4,TCR,2024-06-25_13h23.12.302,LearnStrategy,2023.2.3,Win32,60.24096386,1,1,9,-0.029947917,0.0078125,1,0,0,1.2621,rock_grid_rect_2,1,11,-1,-1,1.262,0.40234375,-0.389322917,1,0,0,2.6448,Pumice_rect,8,2.645,0,8,0,8,0,1,,,,,,,,,,,,,
65761328646d5bb2adf235d4,TCR,2024-06-25_13h23.12.302,LearnStrategy,2023.2.3,Win32,60.24096386,1,1,10,-0.067708333,-0.002604167,1,0,0,1.1458,rock_grid_rect_2,3,07,-1,-1,1.146,-0.311197917,-0.384114583,1,0,0,2.8167,Obsidian_rect,5,2.817,0,9,0,9,0,1,,,,,,,,,,,,,
65761328646d5bb2adf235d4,TCR,2024-06-25_13h23.12.302,LearnStrategy,2023.2.3,Win32,60.24096386,1,1,11,-0.05078125,-0.001302083,1,0,0,1.0623,rock_grid_rect_2,7,10,-1,-1,1.062,0.084635417,-0.40234375,1,0,0,1.9671,Peridotite_rect,7,1.967,1,10,0,10,0,1,,,,,,,,,,,,,
65761328646d5bb2adf235d4,TCR,2024-06-25_13h23.12.302,LearnStrategy,2023.2.3,Win32,60.24096386,1,1,12,-0.069010417,-0.006510417,1,0,0,1.1382,rock_grid_rect_2,2,05,-1,-1,1.138,-0.408854167,-0.381510417,1,0,0,2.1775,Obsidian_rect,5,2.177,0,11,0,11,0,1,,,,,,,,,,,,,
65761328646d5bb2adf235d4,TCR,2024-06-25_13h23.12.302,LearnStrategy,2023.2.3,Win32,60.24096386,1,1,13,-0.1015625,-0.00390625,1,0,0,1.1628,rock_grid_rect_2,8,09,-1,-1,1.163,0.3984375,-0.395833333,1,0,0,3.0027,Pumice_rect,8,3.003,1,12,0,12,0,1,,,,,,,,,,,,,
65761328646d5bb2adf235d4,TCR,2024-06-25_13h23.12.302,LearnStrategy,2023.2.3,Win32,60.24096386,1,1,14,0.014322917,0.009114583,1,0,0,1.2217,rock_grid_rect_2,5,05,-1,-1,1.222,-0.3671875,-0.391927083,1,0,0,1.5435,Obsidian_rect,5,1.543,1,13,0,13,0,1,,,,,,,,,,,,,
65761328646d5bb2adf235d4,TCR,2024-06-25_13h23.12.302,LearnStrategy,2023.2.3,Win32,60.24096386,1,1,15,-0.024739583,-0.00390625,1,0,0,3.6021,rock_grid_rect_2,5,09,-1,-1,3.602,-0.356770833,-0.403645833,1,0,0,2.6198,Obsidian_rect,5,2.62,1,14,0,14,0,1,,,,,,,,,,,,,
65761328646d5bb2adf235d4,TCR,2024-06-25_13h23.12.302,LearnStrategy,2023.2.3,Win32,60.24096386,1,1,16,-0.049479167,-0.014322917,1,0,0,0.8129,rock_grid_rect_2,6,05,-1,-1,0.813,0.134114583,-0.23828125,1,0,0,8.3538,Diorite_rect,3,8.354,0,15,0,15,0,1,,,,,,,,,,,,,
65761328646d5bb2adf235d4,TCR,2024-06-25_13h23.12.302,LearnStrategy,2023.2.3,Win32,60.24096386,1,2,1,,,,,,,,1,16,,,,,,,,,,,4,6.13,0,,,,,,0.401041667,-0.259114583,1,0,0,6.13,Gabbro_rect,0,0,0,0,1,
65761328646d5bb2adf235d4,TCR,2024-06-25_13h23.12.302,LearnStrategy,2023.2.3,Win32,60.24096386,1,2,2,,,,,,,,6,06,,,,,,,,,,,6,9.635,1,,,,,,-0.19921875,-0.419270833,1,0,0,9.6346,Pegmatite_rect,1,0,1,0,1,
65761328646d5bb2adf235d4,TCR,2024-06-25_13h23.12.302,LearnStrategy,2023.2.3,Win32,60.24096386,1,2,3,,,,,,,,3,09,,,,,,,,,,,3,5.794,1,,,,,,0.140625,-0.259114583,1,0,0,5.7936,Diorite_rect,2,0,2,0,1,
65761328646d5bb2adf235d4,TCR,2024-06-25_13h23.12.302,LearnStrategy,2023.2.3,Win32,60.24096386,1,2,4,,,,,,,,2,12,,,,,,,,,,,2,4.242,1,,,,,,-0.122395833,-0.25,1,0,0,4.2421,Basalt_rect,3,0,3,0,1,
65761328646d5bb2adf235d4,TCR,2024-06-25_13h23.12.302,LearnStrategy,2023.2.3,Win32,60.24096386,1,2,5,,,,,,,,6,09,,,,,,,,,,,7,4.082,0,,,,,,0.091145833,-0.403645833,1,0,0,4.0816,Peridotite_rect,4,0,4,0,1,
65761328646d5bb2adf235d4,TCR,2024-06-25_13h23.12.302,LearnStrategy,2023.2.3,Win32,60.24096386,1,2,6,,,,,,,,8,02,,,,,,,,,,,1,4.187,0,,,,,,-0.34375,-0.235677083,1,0,0,4.1873,Andesite_rect,5,0,5,0,1,
65761328646d5bb2adf235d4,TCR,2024-06-25_13h23.12.302,LearnStrategy,2023.2.3,Win32,60.24096386,1,2,7,,,,,,,,5,10,,,,,,,,,,,5,1.628,1,,,,,,-0.33203125,-0.403645833,1,0,0,1.6278,Obsidian_rect,6,0,6,0,1,
65761328646d5bb2adf235d4,TCR,2024-06-25_13h23.12.302,LearnStrategy,2023.2.3,Win32,60.24096386,1,2,8,,,,,,,,8,15,,,,,,,,,,,4,3.077,0,,,,,,0.390625,-0.24609375,1,0,0,3.0769,Gabbro_rect,7,0,7,0,1,
65761328646d5bb2adf235d4,TCR,2024-06-25_13h23.12.302,LearnStrategy,2023.2.3,Win32,60.24096386,1,2,9,,,,,,,,2,08,,,,,,,,,,,6,8.604,0,,,,,,-0.125,-0.41796875,1,0,0,8.604,Pegmatite_rect,8,0,8,0,1,
65761328646d5bb2adf235d4,TCR,2024-06-25_13h23.12.302,LearnStrategy,2023.2.3,Win32,60.24096386,1,2,10,,,,,,,,5,06,,,,,,,,,,,5,3.744,1,,,,,,-0.407552083,-0.399739583,1,0,0,3.7441,Obsidian_rect,9,0,9,0,1,
65761328646d5bb2adf235d4,TCR,2024-06-25_13h23.12.302,LearnStrategy,2023.2.3,Win32,60.24096386,1,2,11,,,,,,,,1,10,,,,,,,,,,,1,2.426,1,,,,,,-0.35546875,-0.264322917,1,0,0,2.4264,Andesite_rect,10,0,10,0,1,
65761328646d5bb2adf235d4,TCR,2024-06-25_13h23.12.302,LearnStrategy,2023.2.3,Win32,60.24096386,1,2,12,,,,,,,,3,15,,,,,,,,,,,3,9.254,1,,,,,,0.17578125,-0.23828125,1,0,0,9.2544,Diorite_rect,11,0,11,0,1,
65761328646d5bb2adf235d4,TCR,2024-06-25_13h23.12.302,LearnStrategy,2023.2.3,Win32,60.24096386,1,2,13,,,,,,,,7,13,,,,,,,,,,,7,1.835,1,,,,,,0.143229167,-0.40625,1,0,0,1.8351,Peridotite_rect,12,0,12,0,1,
65761328646d5bb2adf235d4,TCR,2024-06-25_13h23.12.302,LearnStrategy,2023.2.3,Win32,60.24096386,1,2,14,,,,,,,,4,01,,,,,,,,,,,4,4.885,1,,,,,,0.33984375,-0.244791667,1,0,0,4.8847,Gabbro_rect,13,0,13,0,1,
65761328646d5bb2adf235d4,TCR,2024-06-25_13h23.12.302,LearnStrategy,2023.2.3,Win32,60.24096386,1,2,15,,,,,,,,4,14,,,,,,,,,,,2,4.634,0,,,,,,-0.110677083,-0.236979167,1,0,0,4.6339,Basalt_rect,14,0,14,0,1,
65761328646d5bb2adf235d4,TCR,2024-06-25_13h23.12.302,LearnStrategy,2023.2.3,Win32,60.24096386,1,2,16,,,,,,,,7,12,,,,,,,,,,,7,3.525,1,,,,,,0.075520833,-0.408854167,1,0,0,3.5251,Peridotite_rect,15,0,15,0,1,
65761328646d5bb2adf235d4,TCR,2024-06-25_13h23.12.302,LearnStrategy,2023.2.3,Win32,60.24096386,2,1,1,0.032552083,0.005208333,1,0,0,2.6465,rock_grid_rect_2,4,05,-1,-1,2.646,0.125,-0.389322917,1,0,0,3.7219,Peridotite_rect,7,3.722,0,0,0,0,0,1,,,,,,,,,,,,,
65761328646d5bb2adf235d4,TCR,2024-06-25_13h23.12.302,LearnStrategy,2023.2.3,Win32,60.24096386,2,1,2,0.020833333,-0.010416667,1,0,0,1.3212,rock_grid_rect_2,7,04,-1,-1,1.321,0.088541667,-0.244791667,1,0,0,2.8267,Diorite_rect,3,2.827,0,1,0,1,0,1,,,,,,,,,,,,,
65761328646d5bb2adf235d4,TCR,2024-06-25_13h23.12.302,LearnStrategy,2023.2.3,Win32,60.24096386,2,1,3,0.009114583,0.0078125,1,0,0,1.0552,rock_grid_rect_2,1,11,-1,-1,1.055,-0.356770833,-0.235677083,1,0,0,1.6789,Andesite_rect,1,1.679,1,2,0,2,0,1,,,,,,,,,,,,,
65761328646d5bb2adf235d4,TCR,2024-06-25_13h23.12.302,LearnStrategy,2023.2.3,Win32,60.24096386,2,1,4,-0.002604167,0.00390625,1,0,0,1.346,rock_grid_rect_2,2,14,-1,-1,1.346,-0.130208333,-0.403645833,1,0,0,5.9347,Pegmatite_rect,6,5.935,0,3,0,3,0,1,,,,,,,,,,,,,
65761328646d5bb2adf235d4,TCR,2024-06-25_13h23.12.302,LearnStrategy,2023.2.3,Win32,60.24096386,2,1,5,-0.028645833,-0.0078125,1,0,0,1.5788,rock_grid_rect_2,8,06,-1,-1,1.579,-0.0859375,-0.3984375,1,0,0,2.1033,Pegmatite_rect,6,2.103,0,4,0,4,0,1,,,,,,,,,,,,,
65761328646d5bb2adf235d4,TCR,2024-06-25_13h23.12.302,LearnStrategy,2023.2.3,Win32,60.24096386,2,1,6,-0.001302083,-0.016927083,1,0,0,1.3733,rock_grid_rect_2,8,09,-1,-1,1.373,0.368489583,-0.419270833,1,0,0,2.0001,Pumice_rect,8,2,1,5,0,5,0,1,,,,,,,,,,,,,
65761328646d5bb2adf235d4,TCR,2024-06-25_13h23.12.302,LearnStrategy,2023.2.3,Win32,60.24096386,2,1,7,-0.049479167,-0.015625,1,0,0,1.1292,rock_grid_rect_2,6,07,-1,-1,1.129,-0.372395833,-0.415364583,1,0,0,3.5095,Obsidian_rect,5,3.51,0,6,0,6,0,1,,,,,,,,,,,,,
65761328646d5bb2adf235d4,TCR,2024-06-25_13h23.12.302,LearnStrategy,2023.2.3,Win32,60.24096386,2,1,8,-0.041666667,-0.020833333,1,0,0,1.0365,rock_grid_rect_2,8,06,-1,-1,1.036,0.412760417,-0.395833333,1,0,0,1.4002,Pumice_rect,8,1.4,1,7,0,7,0,1,,,,,,,,,,,,,
65761328646d5bb2adf235d4,TCR,2024-06-25_13h23.12.302,LearnStrategy,2023.2.3,Win32,60.24096386,2,1,9,0.022135417,-0.010416667,1,0,0,1.4387,rock_grid_rect_2,4,15,-1,-1,1.439,-0.131510417,-0.399739583,1,0,0,2.8748,Pegmatite_rect,6,2.875,0,8,0,8,0,1,,,,,,,,,,,,,
65761328646d5bb2adf235d4,TCR,2024-06-25_13h23.12.302,LearnStrategy,2023.2.3,Win32,60.24096386,2,1,10,-0.046875,-0.005208333,1,0,0,1.3399,rock_grid_rect_2,2,05,-1,-1,1.34,-0.154947917,-0.248697917,1,0,0,2.491,Basalt_rect,2,2.491,1,9,0,9,0,1,,,,,,,,,,,,,
65761328646d5bb2adf235d4,TCR,2024-06-25_13h23.12.302,LearnStrategy,2023.2.3,Win32,60.24096386,2,1,11,-0.010416667,-0.0078125,1,0,0,0.946,rock_grid_rect_2,1,05,-1,-1,0.946,0.09375,-0.239583333,1,0,0,2.1205,Diorite_rect,3,2.12,0,10,0,10,0,1,,,,,,,,,,,,,
65761328646d5bb2adf235d4,TCR,2024-06-25_13h23.12.302,LearnStrategy,2023.2.3,Win32,60.24096386,2,1,12,0.0859375,-0.001302083,1,0,0,0.8629,rock_grid_rect_2,4,16,-1,-1,0.863,0.157552083,-0.25390625,1,0,0,4.5136,Diorite_rect,3,4.514,0,11,0,11,0,1,,,,,,,,,,,,,
65761328646d5bb2adf235d4,TCR,2024-06-25_13h23.12.302,LearnStrategy,2023.2.3,Win32,60.24096386,2,1,13,0.005208333,-0.00390625,1,0,0,1.1786,rock_grid_rect_2,6,13,-1,-1,1.179,0.3125,-0.247395833,1,0,0,2.7732,Gabbro_rect,4,2.773,0,12,0,12,0,1,,,,,,,,,,,,,
65761328646d5bb2adf235d4,TCR,2024-06-25_13h23.12.302,LearnStrategy,2023.2.3,Win32,60.24096386,2,1,14,0,-0.014322917,1,0,0,0.9788,rock_grid_rect_2,2,09,-1,-1,0.979,0.385416667,-0.403645833,1,0,0,1.663,Pumice_rect,8,1.663,0,13,0,13,0,1,,,,,,,,,,,,,
65761328646d5bb2adf235d4,TCR,2024-06-25_13h23.12.302,LearnStrategy,2023.2.3,Win32,60.24096386,2,1,15,-0.013020833,-0.00390625,1,0,0,1.2298,rock_grid_rect_2,8,13,-1,-1,1.23,0.3671875,-0.397135417,1,0,0,2.1067,Pumice_rect,8,2.107,1,14,0,14,0,1,,,,,,,,,,,,,
65761328646d5bb2adf235d4,TCR,2024-06-25_13h23.12.302,LearnStrategy,2023.2.3,Win32,60.24096386,2,1,16,-0.0078125,0.005208333,1,0,0,0.9126,rock_grid_rect_2,1,11,-1,-1,0.913,-0.368489583,-0.263020833,1,0,0,1.6136,Andesite_rect,1,1.614,1,15,0,15,0,1,,,,,,,,,,,,,
65761328646d5bb2adf235d4,TCR,2024-06-25_13h23.12.302,LearnStrategy,2023.2.3,Win32,60.24096386,2,2,1,,,,,,,,4,10,,,,,,,,,,,2,5.283,0,,,,,,-0.059895833,-0.259114583,1,0,0,5.283,Basalt_rect,0,0,0,0,1,
65761328646d5bb2adf235d4,TCR,2024-06-25_13h23.12.302,LearnStrategy,2023.2.3,Win32,60.24096386,2,2,2,,,,,,,,1,07,,,,,,,,,,,4,1.939,0,,,,,,0.401041667,-0.2578125,1,0,0,1.9391,Gabbro_rect,1,0,1,0,1,
65761328646d5bb2adf235d4,TCR,2024-06-25_13h23.12.302,LearnStrategy,2023.2.3,Win32,60.24096386,2,2,3,,,,,,,,6,16,,,,,,,,,,,6,8.46,1,,,,,,-0.09375,-0.404947917,1,0,0,8.4603,Pegmatite_rect,2,0,2,0,1,
65761328646d5bb2adf235d4,TCR,2024-06-25_13h23.12.302,LearnStrategy,2023.2.3,Win32,60.24096386,2,2,4,,,,,,,,3,11,,,,,,,,,,,4,12.157,0,,,,,,0.372395833,-0.26171875,1,0,0,12.1575,Gabbro_rect,3,0,3,0,1,
65761328646d5bb2adf235d4,TCR,2024-06-25_13h23.12.302,LearnStrategy,2023.2.3,Win32,60.24096386,2,2,5,,,,,,,,6,08,,,,,,,,,,,5,5.29,0,,,,,,-0.372395833,-0.41015625,1,0,0,5.2903,Obsidian_rect,4,0,4,0,1,
65761328646d5bb2adf235d4,TCR,2024-06-25_13h23.12.302,LearnStrategy,2023.2.3,Win32,60.24096386,2,2,6,,,,,,,,7,14,,,,,,,,,,,7,2.03,1,,,,,,0.190104167,-0.404947917,1,0,0,2.03,Peridotite_rect,5,0,5,0,1,
65761328646d5bb2adf235d4,TCR,2024-06-25_13h23.12.302,LearnStrategy,2023.2.3,Win32,60.24096386,2,2,7,,,,,,,,7,05,,,,,,,,,,,7,2.663,1,,,,,,0.115885417,-0.389322917,1,0,0,2.6633,Peridotite_rect,6,0,6,0,1,
65761328646d5bb2adf235d4,TCR,2024-06-25_13h23.12.302,LearnStrategy,2023.2.3,Win32,60.24096386,2,2,8,,,,,,,,2,11,,,,,,,,,,,8,3.608,0,,,,,,0.359375,-0.4140625,1,0,0,3.6077,Pumice_rect,7,0,7,0,1,
65761328646d5bb2adf235d4,TCR,2024-06-25_13h23.12.302,LearnStrategy,2023.2.3,Win32,60.24096386,2,2,9,,,,,,,,4,11,,,,,,,,,,,2,3.321,0,,,,,,-0.10546875,-0.24609375,1,0,0,3.3209,Basalt_rect,8,0,8,0,1,
65761328646d5bb2adf235d4,TCR,2024-06-25_13h23.12.302,LearnStrategy,2023.2.3,Win32,60.24096386,2,2,10,,,,,,,,2,06,,,,,,,,,,,2,2.487,1,,,,,,-0.106770833,-0.24609375,1,0,0,2.4868,Basalt_rect,9,0,9,0,1,
65761328646d5bb2adf235d4,TCR,2024-06-25_13h23.12.302,LearnStrategy,2023.2.3,Win32,60.24096386,2,2,11,,,,,,,,5,08,,,,,,,,,,,5,1.823,1,,,,,,-0.41015625,-0.393229167,1,0,0,1.8227,Obsidian_rect,10,0,10,0,1,
65761328646d5bb2adf235d4,TCR,2024-06-25_13h23.12.302,LearnStrategy,2023.2.3,Win32,60.24096386,2,2,12,,,,,,,,3,02,,,,,,,,,,,7,1.796,0,,,,,,0.153645833,-0.41015625,1,0,0,1.7957,Peridotite_rect,11,0,11,0,1,
65761328646d5bb2adf235d4,TCR,2024-06-25_13h23.12.302,LearnStrategy,2023.2.3,Win32,60.24096386,2,2,13,,,,,,,,8,03,,,,,,,,,,,8,1.532,1,,,,,,0.411458333,-0.381510417,1,0,0,1.5325,Pumice_rect,12,0,12,0,1,
65761328646d5bb2adf235d4,TCR,2024-06-25_13h23.12.302,LearnStrategy,2023.2.3,Win32,60.24096386,2,2,14,,,,,,,,1,02,,,,,,,,,,,1,3.011,1,,,,,,-0.35546875,-0.2421875,1,0,0,3.0109,Andesite_rect,13,0,13,0,1,
65761328646d5bb2adf235d4,TCR,2024-06-25_13h23.12.302,LearnStrategy,2023.2.3,Win32,60.24096386,2,2,15,,,,,,,,5,14,,,,,,,,,,,5,1.471,1,,,,,,-0.356770833,-0.40625,1,0,0,1.471,Obsidian_rect,14,0,14,0,1,
65761328646d5bb2adf235d4,TCR,2024-06-25_13h23.12.302,LearnStrategy,2023.2.3,Win32,60.24096386,2,2,16,,,,,,,,8,16,,,,,,,,,,,8,3.621,1,,,,,,0.427083333,-0.389322917,1,0,0,3.6209,Pumice_rect,15,0,15,0,1,
65761328646d5bb2adf235d4,TCR,2024-06-25_13h23.12.302,LearnStrategy,2023.2.3,Win32,60.24096386,3,1,1,0.010416667,0.006510417,1,0,0,2.0395,rock_grid_rect_2,4,08,-1,-1,2.039,0.1953125,-0.260416667,1,0,0,7.7936,Diorite_rect,3,7.794,0,0,0,0,0,1,,,,,,,,,,,,,
65761328646d5bb2adf235d4,TCR,2024-06-25_13h23.12.302,LearnStrategy,2023.2.3,Win32,60.24096386,3,1,2,0.024739583,0.009114583,1,0,0,0.996,rock_grid_rect_2,1,11,-1,-1,0.996,-0.361979167,-0.234375,1,0,0,2.3326,Andesite_rect,1,2.333,1,1,0,1,0,1,,,,,,,,,,,,,
65761328646d5bb2adf235d4,TCR,2024-06-25_13h23.12.302,LearnStrategy,2023.2.3,Win32,60.24096386,3,1,3,0.09375,-0.009114583,1,0,0,1.021,rock_grid_rect_2,4,15,-1,-1,1.021,0.359375,-0.25,1,0,0,2.0037,Gabbro_rect,4,2.004,1,2,0,2,0,1,,,,,,,,,,,,,
65761328646d5bb2adf235d4,TCR,2024-06-25_13h23.12.302,LearnStrategy,2023.2.3,Win32,60.24096386,3,1,4,-0.014322917,-0.001302083,1,0,0,0.9149,rock_grid_rect_2,4,08,-1,-1,0.915,0.368489583,-0.248697917,1,0,0,1.911,Gabbro_rect,4,1.911,1,3,0,3,0,1,,,,,,,,,,,,,
65761328646d5bb2adf235d4,TCR,2024-06-25_13h23.12.302,LearnStrategy,2023.2.3,Win32,60.24096386,3,1,5,0.02734375,-0.01171875,1,0,0,0.7297,rock_grid_rect_2,8,14,-1,-1,0.73,0.436197917,-0.397135417,1,0,0,1.7982,Pumice_rect,8,1.798,1,4,0,4,0,1,,,,,,,,,,,,,
65761328646d5bb2adf235d4,TCR,2024-06-25_13h23.12.302,LearnStrategy,2023.2.3,Win32,60.24096386,3,1,6,0.092447917,-0.006510417,1,0,0,0.8633,rock_grid_rect_2,6,13,-1,-1,0.863,-0.147135417,-0.399739583,1,0,0,3.7754,Pegmatite_rect,6,3.775,1,5,0,5,0,1,,,,,,,,,,,,,
65761328646d5bb2adf235d4,TCR,2024-06-25_13h23.12.302,LearnStrategy,2023.2.3,Win32,60.24096386,3,1,7,-0.00390625,0.001302083,1,0,0,0.829,rock_grid_rect_2,4,15,-1,-1,0.829,-0.10546875,-0.389322917,1,0,0,1.6562,Pegmatite_rect,6,1.656,0,6,0,6,0,1,,,,,,,,,,,,,
65761328646d5bb2adf235d4,TCR,2024-06-25_13h23.12.302,LearnStrategy,2023.2.3,Win32,60.24096386,3,1,8,0.010416667,-0.01171875,1,0,0,1.0458,rock_grid_rect_2,2,14,-1,-1,1.046,0.31640625,-0.397135417,1,0,0,3.1392,Pumice_rect,8,3.139,0,7,0,7,0,1,,,,,,,,,,,,,
65761328646d5bb2adf235d4,TCR,2024-06-25_13h23.12.302,LearnStrategy,2023.2.3,Win32,60.24096386,3,1,9,0.02734375,-0.00390625,1,0,0,0.9787,rock_grid_rect_2,3,08,-1,-1,0.979,-0.106770833,-0.388020833,1,0,0,2.7867,Pegmatite_rect,6,2.787,0,8,0,8,0,1,,,,,,,,,,,,,
65761328646d5bb2adf235d4,TCR,2024-06-25_13h23.12.302,LearnStrategy,2023.2.3,Win32,60.24096386,3,1,10,-0.005208333,-0.0078125,1,0,0,1.0682,rock_grid_rect_2,3,16,-1,-1,1.068,0.15625,-0.229166667,1,0,0,1.1725,Diorite_rect,3,1.173,1,9,0,9,0,1,,,,,,,,,,,,,
65761328646d5bb2adf235d4,TCR,2024-06-25_13h23.12.302,LearnStrategy,2023.2.3,Win32,60.24096386,3,1,11,0.061197917,0.005208333,1,0,0,1.0956,rock_grid_rect_2,2,09,-1,-1,1.096,-0.131510417,-0.256510417,1,0,0,1.2341,Basalt_rect,2,1.234,1,10,0,10,0,1,,,,,,,,,,,,,
65761328646d5bb2adf235d4,TCR,2024-06-25_13h23.12.302,LearnStrategy,2023.2.3,Win32,60.24096386,3,1,12,-0.052083333,-0.015625,1,0,0,1.1632,rock_grid_rect_2,6,10,-1,-1,1.163,0.102864583,-0.380208333,1,0,0,1.4416,Peridotite_rect,7,1.442,0,11,0,11,0,1,,,,,,,,,,,,,
65761328646d5bb2adf235d4,TCR,2024-06-25_13h23.12.302,LearnStrategy,2023.2.3,Win32,60.24096386,3,1,13,0.075520833,0.00390625,1,0,0,1.3051,rock_grid_rect_2,8,13,-1,-1,1.305,0.338541667,-0.399739583,1,0,0,1.2728,Pumice_rect,8,1.273,1,12,0,12,0,1,,,,,,,,,,,,,
65761328646d5bb2adf235d4,TCR,2024-06-25_13h23.12.302,LearnStrategy,2023.2.3,Win32,60.24096386,3,1,14,-0.022135417,-0.00390625,1,0,0,0.8957,rock_grid_rect_2,1,04,-1,-1,0.896,0.196614583,-0.259114583,1,0,0,4.0758,Diorite_rect,3,4.076,0,13,0,13,0,1,,,,,,,,,,,,,
65761328646d5bb2adf235d4,TCR,2024-06-25_13h23.12.302,LearnStrategy,2023.2.3,Win32,60.24096386,3,1,15,-0.044270833,-0.006510417,1,0,0,1.0123,rock_grid_rect_2,5,16,-1,-1,1.012,-0.319010417,-0.395833333,1,0,0,1.1778,Obsidian_rect,5,1.178,1,14,0,14,0,1,,,,,,,,,,,,,
65761328646d5bb2adf235d4,TCR,2024-06-25_13h23.12.302,LearnStrategy,2023.2.3,Win32,60.24096386,3,1,16,-0.092447917,-0.010416667,1,0,0,0.863,rock_grid_rect_2,7,07,-1,-1,0.863,0.0546875,-0.408854167,1,0,0,3.1996,Peridotite_rect,7,3.2,1,15,0,15,0,1,,,,,,,,,,,,,
65761328646d5bb2adf235d4,TCR,2024-06-25_13h23.12.302,LearnStrategy,2023.2.3,Win32,60.24096386,3,2,1,,,,,,,,1,14,,,,,,,,,,,1,4.118,1,,,,,,-0.3515625,-0.231770833,1,0,0,4.1176,Andesite_rect,0,0,0,0,1,
65761328646d5bb2adf235d4,TCR,2024-06-25_13h23.12.302,LearnStrategy,2023.2.3,Win32,60.24096386,3,2,2,,,,,,,,7,16,,,,,,,,,,,7,1.892,1,,,,,,0.14453125,-0.40234375,1,0,0,1.8922,Peridotite_rect,1,0,1,0,1,
65761328646d5bb2adf235d4,TCR,2024-06-25_13h23.12.302,LearnStrategy,2023.2.3,Win32,60.24096386,3,2,3,,,,,,,,6,15,,,,,,,,,,,6,3.233,1,,,,,,-0.134114583,-0.393229167,1,0,0,3.2327,Pegmatite_rect,2,0,2,0,1,
65761328646d5bb2adf235d4,TCR,2024-06-25_13h23.12.302,LearnStrategy,2023.2.3,Win32,60.24096386,3,2,4,,,,,,,,8,05,,,,,,,,,,,8,2.037,1,,,,,,0.38671875,-0.395833333,1,0,0,2.0369,Pumice_rect,3,0,3,0,1,
65761328646d5bb2adf235d4,TCR,2024-06-25_13h23.12.302,LearnStrategy,2023.2.3,Win32,60.24096386,3,2,5,,,,,,,,5,11,,,,,,,,,,,5,1.447,1,,,,,,-0.356770833,-0.401041667,1,0,0,1.4471,Obsidian_rect,4,0,4,0,1,
65761328646d5bb2adf235d4,TCR,2024-06-25_13h23.12.302,LearnStrategy,2023.2.3,Win32,60.24096386,3,2,6,,,,,,,,3,14,,,,,,,,,,,3,4.255,1,,,,,,0.186197917,-0.25,1,0,0,4.2553,Diorite_rect,5,0,5,0,1,
65761328646d5bb2adf235d4,TCR,2024-06-25_13h23.12.302,LearnStrategy,2023.2.3,Win32,60.24096386,3,2,7,,,,,,,,4,12,,,,,,,,,,,2,1.682,0,,,,,,-0.154947917,-0.26953125,1,0,0,1.6821,Basalt_rect,6,0,6,0,1,
65761328646d5bb2adf235d4,TCR,2024-06-25_13h23.12.302,LearnStrategy,2023.2.3,Win32,60.24096386,3,2,8,,,,,,,,5,07,,,,,,,,,,,5,2.114,1,,,,,,-0.372395833,-0.404947917,1,0,0,2.1137,Obsidian_rect,7,0,7,0,1,
65761328646d5bb2adf235d4,TCR,2024-06-25_13h23.12.302,LearnStrategy,2023.2.3,Win32,60.24096386,3,2,9,,,,,,,,1,03,,,,,,,,,,,2,3.906,0,,,,,,-0.12890625,-0.25,1,0,0,3.9059,Basalt_rect,8,0,8,0,1,
65761328646d5bb2adf235d4,TCR,2024-06-25_13h23.12.302,LearnStrategy,2023.2.3,Win32,60.24096386,3,2,10,,,,,,,,7,15,,,,,,,,,,,7,2.947,1,,,,,,0.127604167,-0.40625,1,0,0,2.947,Peridotite_rect,9,0,9,0,1,
65761328646d5bb2adf235d4,TCR,2024-06-25_13h23.12.302,LearnStrategy,2023.2.3,Win32,60.24096386,3,2,11,,,,,,,,2,16,,,,,,,,,,,2,9.416,1,,,,,,-0.161458333,-0.248697917,1,0,0,9.4164,Basalt_rect,10,0,10,0,1,
65761328646d5bb2adf235d4,TCR,2024-06-25_13h23.12.302,LearnStrategy,2023.2.3,Win32,60.24096386,3,2,12,,,,,,,,6,11,,,,,,,,,,,3,3.22,0,,,,,,0.139322917,-0.247395833,1,0,0,3.2199,Diorite_rect,11,0,11,0,1,
65761328646d5bb2adf235d4,TCR,2024-06-25_13h23.12.302,LearnStrategy,2023.2.3,Win32,60.24096386,3,2,13,,,,,,,,2,01,,,,,,,,,,,8,3.882,0,,,,,,0.397135417,-0.415364583,1,0,0,3.882,Pumice_rect,12,0,12,0,1,
65761328646d5bb2adf235d4,TCR,2024-06-25_13h23.12.302,LearnStrategy,2023.2.3,Win32,60.24096386,3,2,14,,,,,,,,3,13,,,,,,,,,,,4,3.691,0,,,,,,0.407552083,-0.229166667,1,0,0,3.6907,Gabbro_rect,13,0,13,0,1,
65761328646d5bb2adf235d4,TCR,2024-06-25_13h23.12.302,LearnStrategy,2023.2.3,Win32,60.24096386,3,2,15,,,,,,,,8,04,,,,,,,,,,,8,1.575,1,,,,,,0.41015625,-0.3984375,1,0,0,1.575,Pumice_rect,14,0,14,0,1,
65761328646d5bb2adf235d4,TCR,2024-06-25_13h23.12.302,LearnStrategy,2023.2.3,Win32,60.24096386,3,2,16,,,,,,,,4,09,,,,,,,,,,,4,7.8,1,,,,,,0.37109375,-0.265625,1,0,0,7.7995,Gabbro_rect,15,0,15,0,1,
65761328646d5bb2adf235d4,TCR,2024-06-25_13h23.12.302,LearnStrategy,2023.2.3,Win32,60.24096386,4,1,1,0.12109375,-0.010416667,1,0,0,1.5729,rock_grid_rect_2,2,10,-1,-1,1.573,-0.130208333,-0.255208333,1,0,0,2.4061,Basalt_rect,2,2.406,1,0,0,0,0,1,,,,,,,,,,,,,
65761328646d5bb2adf235d4,TCR,2024-06-25_13h23.12.302,LearnStrategy,2023.2.3,Win32,60.24096386,4,1,2,-0.03125,-0.005208333,1,0,0,1.0528,rock_grid_rect_2,3,16,-1,-1,1.053,0.3828125,-0.239583333,1,0,0,1.8195,Gabbro_rect,4,1.819,0,1,0,1,0,1,,,,,,,,,,,,,
65761328646d5bb2adf235d4,TCR,2024-06-25_13h23.12.302,LearnStrategy,2023.2.3,Win32,60.24096386,4,1,3,0.028645833,-0.013020833,1,0,0,1.0964,rock_grid_rect_2,5,09,-1,-1,1.096,-0.37890625,-0.390625,1,0,0,1.313,Obsidian_rect,5,1.313,1,2,0,2,0,1,,,,,,,,,,,,,
65761328646d5bb2adf235d4,TCR,2024-06-25_13h23.12.302,LearnStrategy,2023.2.3,Win32,60.24096386,4,1,4,0.01171875,-0.001302083,1,0,0,0.8465,rock_grid_rect_2,6,13,-1,-1,0.846,0.100260417,-0.240885417,1,0,0,2.0097,Diorite_rect,3,2.01,0,3,0,3,0,1,,,,,,,,,,,,,
65761328646d5bb2adf235d4,TCR,2024-06-25_13h23.12.302,LearnStrategy,2023.2.3,Win32,60.24096386,4,1,5,0.029947917,0.0078125,1,0,0,0.9786,rock_grid_rect_2,2,09,-1,-1,0.979,-0.096354167,-0.240885417,1,0,0,1.2301,Basalt_rect,2,1.23,1,4,0,4,0,1,,,,,,,,,,,,,
65761328646d5bb2adf235d4,TCR,2024-06-25_13h23.12.302,LearnStrategy,2023.2.3,Win32,60.24096386,4,1,6,0.07421875,0.00390625,1,0,0,0.963,rock_grid_rect_2,7,06,-1,-1,0.963,0.127604167,-0.411458333,1,0,0,1.6623,Peridotite_rect,7,1.662,1,5,0,5,0,1,,,,,,,,,,,,,
65761328646d5bb2adf235d4,TCR,2024-06-25_13h23.12.302,LearnStrategy,2023.2.3,Win32,60.24096386,4,1,7,0.061197917,-0.01171875,1,0,0,1.0964,rock_grid_rect_2,1,04,-1,-1,1.096,0.334635417,-0.2421875,1,0,0,2.1185,Gabbro_rect,4,2.118,0,6,0,6,0,1,,,,,,,,,,,,,
65761328646d5bb2adf235d4,TCR,2024-06-25_13h23.12.302,LearnStrategy,2023.2.3,Win32,60.24096386,4,1,8,0.018229167,0.00390625,1,0,0,0.8858,rock_grid_rect_2,3,08,-1,-1,0.886,0.3515625,-0.25390625,1,0,0,2.7933,Gabbro_rect,4,2.793,0,7,0,7,0,1,,,,,,,,,,,,,
65761328646d5bb2adf235d4,TCR,2024-06-25_13h23.12.302,LearnStrategy,2023.2.3,Win32,60.24096386,4,1,9,-0.026041667,-0.00390625,1,0,0,0.6686,rock_grid_rect_2,8,06,-1,-1,0.669,0.407552083,-0.411458333,1,0,0,1.6459,Pumice_rect,8,1.646,1,8,0,8,0,1,,,,,,,,,,,,,
65761328646d5bb2adf235d4,TCR,2024-06-25_13h23.12.302,LearnStrategy,2023.2.3,Win32,60.24096386,4,1,10,0.08984375,0.002604167,1,0,0,1.4795,rock_grid_rect_2,3,10,-1,-1,1.48,0.388020833,-0.243489583,1,0,0,4.1643,Gabbro_rect,4,4.164,0,9,0,9,0,1,,,,,,,,,,,,,
65761328646d5bb2adf235d4,TCR,2024-06-25_13h23.12.302,LearnStrategy,2023.2.3,Win32,60.24096386,4,1,11,0.084635417,-0.010416667,1,0,0,0.8621,rock_grid_rect_2,4,08,-1,-1,0.862,0.359375,-0.268229167,1,0,0,1.5727,Gabbro_rect,4,1.573,1,10,0,10,0,1,,,,,,,,,,,,,
65761328646d5bb2adf235d4,TCR,2024-06-25_13h23.12.302,LearnStrategy,2023.2.3,Win32,60.24096386,4,1,12,0.0703125,0.01953125,1,0,0,1.0223,rock_grid_rect_2,4,15,-1,-1,1.022,0.1015625,-0.244791667,1,0,0,1.3746,Diorite_rect,3,1.375,0,11,0,11,0,1,,,,,,,,,,,,,
65761328646d5bb2adf235d4,TCR,2024-06-25_13h23.12.302,LearnStrategy,2023.2.3,Win32,60.24096386,4,1,13,0.106770833,-0.0234375,1,0,0,1.2124,rock_grid_rect_2,4,13,-1,-1,1.212,0.321614583,-0.25390625,1,0,0,1.2189,Gabbro_rect,4,1.219,1,12,0,12,0,1,,,,,,,,,,,,,
65761328646d5bb2adf235d4,TCR,2024-06-25_13h23.12.302,LearnStrategy,2023.2.3,Win32,60.24096386,4,1,14,-0.0078125,-0.009114583,1,0,0,0.9131,rock_grid_rect_2,1,05,-1,-1,0.913,0.3515625,-0.251302083,1,0,0,2.6753,Gabbro_rect,4,2.675,0,13,0,13,0,1,,,,,,,,,,,,,
65761328646d5bb2adf235d4,TCR,2024-06-25_13h23.12.302,LearnStrategy,2023.2.3,Win32,60.24096386,4,1,15,0.0390625,-0.006510417,1,0,0,0.9298,rock_grid_rect_2,2,14,-1,-1,0.93,-0.0546875,-0.39453125,1,0,0,3.0627,Pegmatite_rect,6,3.063,0,14,0,14,0,1,,,,,,,,,,,,,
65761328646d5bb2adf235d4,TCR,2024-06-25_13h23.12.302,LearnStrategy,2023.2.3,Win32,60.24096386,4,1,16,0.03515625,-0.006510417,1,0,0,0.9535,rock_grid_rect_2,6,12,-1,-1,0.953,-0.1484375,-0.401041667,1,0,0,2.3959,Pegmatite_rect,6,2.396,1,15,0,15,0,1,,,,,,,,,,,,,
65761328646d5bb2adf235d4,TCR,2024-06-25_13h23.12.302,LearnStrategy,2023.2.3,Win32,60.24096386,4,2,1,,,,,,,,7,13,,,,,,,,,,,7,2.444,1,,,,,,0.095052083,-0.39453125,1,0,0,2.4439,Peridotite_rect,0,0,0,0,1,
65761328646d5bb2adf235d4,TCR,2024-06-25_13h23.12.302,LearnStrategy,2023.2.3,Win32,60.24096386,4,2,2,,,,,,,,2,08,,,,,,,,,,,2,3.692,1,,,,,,-0.161458333,-0.251302083,1,0,0,3.6916,Basalt_rect,1,0,1,0,1,
65761328646d5bb2adf235d4,TCR,2024-06-25_13h23.12.302,LearnStrategy,2023.2.3,Win32,60.24096386,4,2,3,,,,,,,,7,15,,,,,,,,,,,7,5.314,1,,,,,,0.087239583,-0.385416667,1,0,0,5.3141,Peridotite_rect,2,0,2,0,1,
65761328646d5bb2adf235d4,TCR,2024-06-25_13h23.12.302,LearnStrategy,2023.2.3,Win32,60.24096386,4,2,4,,,,,,,,8,03,,,,,,,,,,,8,1.421,1,,,,,,0.43359375,-0.41015625,1,0,0,1.4213,Pumice_rect,3,0,3,0,1,
65761328646d5bb2adf235d4,TCR,2024-06-25_13h23.12.302,LearnStrategy,2023.2.3,Win32,60.24096386,4,2,5,,,,,,,,3,11,,,,,,,,,,,3,2.087,1,,,,,,0.192708333,-0.26171875,1,0,0,2.0869,Diorite_rect,4,0,4,0,1,
65761328646d5bb2adf235d4,TCR,2024-06-25_13h23.12.302,LearnStrategy,2023.2.3,Win32,60.24096386,4,2,6,,,,,,,,2,16,,,,,,,,,,,2,2.27,1,,,,,,-0.102864583,-0.248697917,1,0,0,2.2702,Basalt_rect,5,0,5,0,1,
65761328646d5bb2adf235d4,TCR,2024-06-25_13h23.12.302,LearnStrategy,2023.2.3,Win32,60.24096386,4,2,7,,,,,,,,5,11,,,,,,,,,,,5,1.367,1,,,,,,-0.3984375,-0.4140625,1,0,0,1.3675,Obsidian_rect,6,0,6,0,1,
65761328646d5bb2adf235d4,TCR,2024-06-25_13h23.12.302,LearnStrategy,2023.2.3,Win32,60.24096386,4,2,8,,,,,,,,8,15,,,,,,,,,,,8,2.067,1,,,,,,0.399739583,-0.408854167,1,0,0,2.0672,Pumice_rect,7,0,7,0,1,
65761328646d5bb2adf235d4,TCR,2024-06-25_13h23.12.302,LearnStrategy,2023.2.3,Win32,60.24096386,4,2,9,,,,,,,,5,07,,,,,,,,,,,5,1.437,1,,,,,,-0.388020833,-0.4140625,1,0,0,1.4373,Obsidian_rect,8,0,8,0,1,
65761328646d5bb2adf235d4,TCR,2024-06-25_13h23.12.302,LearnStrategy,2023.2.3,Win32,60.24096386,4,2,10,,,,,,,,6,15,,,,,,,,,,,6,1.93,1,,,,,,-0.109375,-0.389322917,1,0,0,1.9302,Pegmatite_rect,9,0,9,0,1,
65761328646d5bb2adf235d4,TCR,2024-06-25_13h23.12.302,LearnStrategy,2023.2.3,Win32,60.24096386,4,2,11,,,,,,,,1,16,,,,,,,,,,,1,3.729,1,,,,,,-0.447916667,-0.2578125,1,0,0,3.7293,Andesite_rect,10,0,10,0,1,
65761328646d5bb2adf235d4,TCR,2024-06-25_13h23.12.302,LearnStrategy,2023.2.3,Win32,60.24096386,4,2,12,,,,,,,,1,07,,,,,,,,,,,3,3.915,0,,,,,,0.106770833,-0.255208333,1,0,0,3.915,Diorite_rect,11,0,11,0,1,
65761328646d5bb2adf235d4,TCR,2024-06-25_13h23.12.302,LearnStrategy,2023.2.3,Win32,60.24096386,4,2,13,,,,,,,,3,15,,,,,,,,,,,3,2.695,1,,,,,,0.072916667,-0.252604167,1,0,0,2.6948,Diorite_rect,12,0,12,0,1,
65761328646d5bb2adf235d4,TCR,2024-06-25_13h23.12.302,LearnStrategy,2023.2.3,Win32,60.24096386,4,2,14,,,,,,,,6,11,,,,,,,,,,,6,6.706,1,,,,,,-0.127604167,-0.401041667,1,0,0,6.7056,Pegmatite_rect,13,0,13,0,1,
65761328646d5bb2adf235d4,TCR,2024-06-25_13h23.12.302,LearnStrategy,2023.2.3,Win32,60.24096386,4,2,15,,,,,,,,4,10,,,,,,,,,,,2,3.704,0,,,,,,-0.127604167,-0.23046875,1,0,0,3.7042,Basalt_rect,14,0,14,0,1,
65761328646d5bb2adf235d4,TCR,2024-06-25_13h23.12.302,LearnStrategy,2023.2.3,Win32,60.24096386,4,2,16,,,,,,,,4,12,,,,,,,,,,,2,2.438,0,,,,,,-0.127604167,-0.23046875,1,0,0,2.4377,Basalt_rect,15,0,15,0,1,
65761328646d5bb2adf235d4,TCR,2024-06-25_13h23.12.302,LearnStrategy,2023.2.3,Win32,60.24096386,5,1,1,0.1015625,-0.016927083,1,0,0,1.6227,rock_grid_rect_2,7,07,-1,-1,1.623,0.087239583,-0.408854167,1,0,0,2.745,Peridotite_rect,7,2.745,1,0,0,0,0,1,,,,,,,,,,,,,
65761328646d5bb2adf235d4,TCR,2024-06-25_13h23.12.302,LearnStrategy,2023.2.3,Win32,60.24096386,5,1,2,-0.006510417,-0.013020833,1,0,0,1.1551,rock_grid_rect_2,4,16,-1,-1,1.155,0.381510417,-0.233072917,1,0,0,3.5903,Gabbro_rect,4,3.59,1,1,0,1,0,1,,,,,,,,,,,,,
65761328646d5bb2adf235d4,TCR,2024-06-25_13h23.12.302,LearnStrategy,2023.2.3,Win32,60.24096386,5,1,3,0.104166667,-0.016927083,1,0,0,0.7347,rock_grid_rect_2,4,13,-1,-1,0.735,0.37890625,-0.25,1,0,0,2.1407,Gabbro_rect,4,2.141,1,2,0,2,0,1,,,,,,,,,,,,,
65761328646d5bb2adf235d4,TCR,2024-06-25_13h23.12.302,LearnStrategy,2023.2.3,Win32,60.24096386,5,1,4,0.111979167,-0.002604167,1,0,0,0.963,rock_grid_rect_2,1,09,-1,-1,0.963,-0.39453125,-0.248697917,1,0,0,1.8484,Andesite_rect,1,1.848,1,3,0,3,0,1,,,,,,,,,,,,,
65761328646d5bb2adf235d4,TCR,2024-06-25_13h23.12.302,LearnStrategy,2023.2.3,Win32,60.24096386,5,1,5,0.020833333,-0.009114583,1,0,0,0.9455,rock_grid_rect_2,4,05,-1,-1,0.945,0.096354167,-0.251302083,1,0,0,2.4679,Diorite_rect,3,2.468,0,4,0,4,0,1,,,,,,,,,,,,,
65761328646d5bb2adf235d4,TCR,2024-06-25_13h23.12.302,LearnStrategy,2023.2.3,Win32,60.24096386,5,1,6,0.145833333,-0.00390625,1,0,0,0.8964,rock_grid_rect_2,3,10,-1,-1,0.896,0.126302083,-0.23828125,1,0,0,1.0116,Diorite_rect,3,1.012,1,5,0,5,0,1,,,,,,,,,,,,,
65761328646d5bb2adf235d4,TCR,2024-06-25_13h23.12.302,LearnStrategy,2023.2.3,Win32,60.24096386,5,1,7,-0.01171875,-0.006510417,1,0,0,1.1629,rock_grid_rect_2,1,04,-1,-1,1.163,0.4140625,-0.256510417,1,0,0,1.8997,Gabbro_rect,4,1.9,0,6,0,6,0,1,,,,,,,,,,,,,
65761328646d5bb2adf235d4,TCR,2024-06-25_13h23.12.302,LearnStrategy,2023.2.3,Win32,60.24096386,5,1,8,0.00390625,0.002604167,1,0,0,1.1792,rock_grid_rect_2,6,07,-1,-1,1.179,-0.08984375,-0.389322917,1,0,0,2.0049,Pegmatite_rect,6,2.005,1,7,0,7,0,1,,,,,,,,,,,,,
65761328646d5bb2adf235d4,TCR,2024-06-25_13h23.12.302,LearnStrategy,2023.2.3,Win32,60.24096386,5,1,9,-0.040364583,-0.010416667,1,0,0,0.9781,rock_grid_rect_2,2,10,-1,-1,0.978,-0.149739583,-0.24609375,1,0,0,2.1877,Basalt_rect,2,2.188,1,8,0,8,0,1,,,,,,,,,,,,,
65761328646d5bb2adf235d4,TCR,2024-06-25_13h23.12.302,LearnStrategy,2023.2.3,Win32,60.24096386,5,1,10,-0.03125,0.001302083,1,0,0,1.013,rock_grid_rect_2,5,02,-1,-1,1.013,-0.328125,-0.39453125,1,0,0,1.3361,Obsidian_rect,5,1.336,1,9,0,9,0,1,,,,,,,,,,,,,
65761328646d5bb2adf235d4,TCR,2024-06-25_13h23.12.302,LearnStrategy,2023.2.3,Win32,60.24096386,5,1,11,0.03125,0,1,0,0,0.7199,rock_grid_rect_2,2,14,-1,-1,0.72,0.368489583,-0.415364583,1,0,0,3.7807,Pumice_rect,8,3.781,0,10,0,10,0,1,,,,,,,,,,,,,
65761328646d5bb2adf235d4,TCR,2024-06-25_13h23.12.302,LearnStrategy,2023.2.3,Win32,60.24096386,5,1,12,0.033854167,-0.00390625,1,0,0,0.7691,rock_grid_rect_2,6,05,-1,-1,0.769,-0.098958333,-0.401041667,1,0,0,2.4049,Pegmatite_rect,6,2.405,1,11,0,11,0,1,,,,,,,,,,,,,
65761328646d5bb2adf235d4,TCR,2024-06-25_13h23.12.302,LearnStrategy,2023.2.3,Win32,60.24096386,5,1,13,0.01171875,0,1,0,0,1.2389,rock_grid_rect_2,4,05,-1,-1,1.239,0.352864583,-0.251302083,1,0,0,3.1281,Gabbro_rect,4,3.128,1,12,0,12,0,1,,,,,,,,,,,,,
65761328646d5bb2adf235d4,TCR,2024-06-25_13h23.12.302,LearnStrategy,2023.2.3,Win32,60.24096386,5,1,14,0.114583333,0.009114583,1,0,0,1.1329,rock_grid_rect_2,3,07,-1,-1,1.133,0.145833333,-0.25390625,1,0,0,1.5091,Diorite_rect,3,1.509,1,13,0,13,0,1,,,,,,,,,,,,,
65761328646d5bb2adf235d4,TCR,2024-06-25_13h23.12.302,LearnStrategy,2023.2.3,Win32,60.24096386,5,1,15,0.147135417,0.006510417,1,0,0,0.8632,rock_grid_rect_2,1,05,-1,-1,0.863,-0.358072917,-0.263020833,1,0,0,2.4591,Andesite_rect,1,2.459,1,14,0,14,0,1,,,,,,,,,,,,,
65761328646d5bb2adf235d4,TCR,2024-06-25_13h23.12.302,LearnStrategy,2023.2.3,Win32,60.24096386,5,1,16,-0.044270833,0.009114583,1,0,0,0.8131,rock_grid_rect_2,8,06,-1,-1,0.813,0.364583333,-0.407552083,1,0,0,1.4164,Pumice_rect,8,1.416,1,15,0,15,0,1,,,,,,,,,,,,,
65761328646d5bb2adf235d4,TCR,2024-06-25_13h23.12.302,LearnStrategy,2023.2.3,Win32,60.24096386,5,2,1,,,,,,,,3,09,,,,,,,,,,,3,16.935,1,,,,,,0.16015625,-0.244791667,1,0,0,16.9346,Diorite_rect,0,0,0,0,1,
65761328646d5bb2adf235d4,TCR,2024-06-25_13h23.12.302,LearnStrategy,2023.2.3,Win32,60.24096386,5,2,2,,,,,,,,3,14,,,,,,,,,,,3,1.237,1,,,,,,0.16015625,-0.244791667,1,0,0,1.2366,Diorite_rect,1,0,1,0,1,
65761328646d5bb2adf235d4,TCR,2024-06-25_13h23.12.302,LearnStrategy,2023.2.3,Win32,60.24096386,5,2,3,,,,,,,,2,11,,,,,,,,,,,8,6.603,0,,,,,,0.380208333,-0.401041667,1,0,0,6.6034,Pumice_rect,2,0,2,0,1,
65761328646d5bb2adf235d4,TCR,2024-06-25_13h23.12.302,LearnStrategy,2023.2.3,Win32,60.24096386,5,2,4,,,,,,,,6,08,,,,,,,,,,,6,3.545,1,,,,,,-0.134114583,-0.403645833,1,0,0,3.5449,Pegmatite_rect,3,0,3,0,1,
65761328646d5bb2adf235d4,TCR,2024-06-25_13h23.12.302,LearnStrategy,2023.2.3,Win32,60.24096386,5,2,5,,,,,,,,8,05,,,,,,,,,,,8,1.596,1,,,,,,0.408854167,-0.385416667,1,0,0,1.5955,Pumice_rect,4,0,4,0,1,
65761328646d5bb2adf235d4,TCR,2024-06-25_13h23.12.302,LearnStrategy,2023.2.3,Win32,60.24096386,5,2,6,,,,,,,,1,02,,,,,,,,,,,1,2.42,1,,,,,,-0.381510417,-0.25,1,0,0,2.4199,Andesite_rect,5,0,5,0,1,
65761328646d5bb2adf235d4,TCR,2024-06-25_13h23.12.302,LearnStrategy,2023.2.3,Win32,60.24096386,5,2,7,,,,,,,,1,03,,,,,,,,,,,2,3.974,0,,,,,,-0.154947917,-0.239583333,1,0,0,3.9744,Basalt_rect,6,0,6,0,1,
65761328646d5bb2adf235d4,TCR,2024-06-25_13h23.12.302,LearnStrategy,2023.2.3,Win32,60.24096386,5,2,8,,,,,,,,6,06,,,,,,,,,,,6,4.308,1,,,,,,-0.141927083,-0.4140625,1,0,0,4.3078,Pegmatite_rect,7,0,7,0,1,
65761328646d5bb2adf235d4,TCR,2024-06-25_13h23.12.302,LearnStrategy,2023.2.3,Win32,60.24096386,5,2,9,,,,,,,,5,06,,,,,,,,,,,5,1.294,1,,,,,,-0.348958333,-0.40234375,1,0,0,1.2938,Obsidian_rect,8,0,8,0,1,
65761328646d5bb2adf235d4,TCR,2024-06-25_13h23.12.302,LearnStrategy,2023.2.3,Win32,60.24096386,5,2,10,,,,,,,,4,09,,,,,,,,,,,4,2.941,1,,,,,,0.341145833,-0.244791667,1,0,0,2.9406,Gabbro_rect,9,0,9,0,1,
65761328646d5bb2adf235d4,TCR,2024-06-25_13h23.12.302,LearnStrategy,2023.2.3,Win32,60.24096386,5,2,11,,,,,,,,7,14,,,,,,,,,,,6,6.439,0,,,,,,-0.06640625,-0.3984375,1,0,0,6.4392,Pegmatite_rect,10,0,10,0,1,
65761328646d5bb2adf235d4,TCR,2024-06-25_13h23.12.302,LearnStrategy,2023.2.3,Win32,60.24096386,5,2,12,,,,,,,,5,10,,,,,,,,,,,5,1.454,1,,,,,,-0.384114583,-0.411458333,1,0,0,1.4538,Obsidian_rect,11,0,11,0,1,
65761328646d5bb2adf235d4,TCR,2024-06-25_13h23.12.302,LearnStrategy,2023.2.3,Win32,60.24096386,5,2,13,,,,,,,,7,16,,,,,,,,,,,7,1.935,1,,,,,,0.135416667,-0.399739583,1,0,0,1.9349,Peridotite_rect,12,0,12,0,1,
65761328646d5bb2adf235d4,TCR,2024-06-25_13h23.12.302,LearnStrategy,2023.2.3,Win32,60.24096386,5,2,14,,,,,,,,8,16,,,,,,,,,,,8,2.034,1,,,,,,0.365885417,-0.391927083,1,0,0,2.0336,Pumice_rect,13,0,13,0,1,
65761328646d5bb2adf235d4,TCR,2024-06-25_13h23.12.302,LearnStrategy,2023.2.3,Win32,60.24096386,5,2,15,,,,,,,,4,14,,,,,,,,,,,4,3.426,1,,,,,,0.334635417,-0.235677083,1,0,0,3.4264,Gabbro_rect,14,0,14,0,1,
65761328646d5bb2adf235d4,TCR,2024-06-25_13h23.12.302,LearnStrategy,2023.2.3,Win32,60.24096386,5,2,16,,,,,,,,2,01,,,,,,,,,,,2,1.54,1,,,,,,-0.174479167,-0.247395833,1,0,0,1.5398,Basalt_rect,15,0,15,0,1,
65761328646d5bb2adf235d4,TCR,2024-06-25_13h23.12.302,LearnStrategy,2023.2.3,Win32,60.24096386,6,1,1,-0.03515625,-0.001302083,1,0,0,1.2803,rock_grid_rect_2,2,14,-1,-1,1.28,0.3125,-0.234375,1,0,0,5.9054,Gabbro_rect,4,5.905,0,0,0,0,0,1,,,,,,,,,,,,,
65761328646d5bb2adf235d4,TCR,2024-06-25_13h23.12.302,LearnStrategy,2023.2.3,Win32,60.24096386,6,1,2,0.063802083,-0.002604167,1,0,0,0.8787,rock_grid_rect_2,7,02,-1,-1,0.879,0.115885417,-0.389322917,1,0,0,1.4034,Peridotite_rect,7,1.403,1,1,0,1,0,1,,,,,,,,,,,,,
65761328646d5bb2adf235d4,TCR,2024-06-25_13h23.12.302,LearnStrategy,2023.2.3,Win32,60.24096386,6,1,3,0.001302083,-0.015625,1,0,0,0.9631,rock_grid_rect_2,3,12,-1,-1,0.963,0.0859375,-0.234375,1,0,0,2.5769,Diorite_rect,3,2.577,1,2,0,2,0,1,,,,,,,,,,,,,
65761328646d5bb2adf235d4,TCR,2024-06-25_13h23.12.302,LearnStrategy,2023.2.3,Win32,60.24096386,6,1,4,0.015625,-0.01171875,1,0,0,0.7064,rock_grid_rect_2,5,09,-1,-1,0.706,-0.415364583,-0.393229167,1,0,0,2.3241,Obsidian_rect,5,2.324,1,3,0,3,0,1,,,,,,,,,,,,,
65761328646d5bb2adf235d4,TCR,2024-06-25_13h23.12.302,LearnStrategy,2023.2.3,Win32,60.24096386,6,1,5,-0.049479167,-0.009114583,1,0,0,0.8966,rock_grid_rect_2,4,13,-1,-1,0.897,-0.122395833,-0.408854167,1,0,0,4.7511,Pegmatite_rect,6,4.751,0,4,0,4,0,1,,,,,,,,,,,,,
65761328646d5bb2adf235d4,TCR,2024-06-25_13h23.12.302,LearnStrategy,2023.2.3,Win32,60.24096386,6,1,6,-0.03125,-0.0234375,1,0,0,1.0283,rock_grid_rect_2,1,01,-1,-1,1.028,0.079427083,-0.256510417,1,0,0,1.6607,Diorite_rect,3,1.661,0,5,0,5,0,1,,,,,,,,,,,,,
65761328646d5bb2adf235d4,TCR,2024-06-25_13h23.12.302,LearnStrategy,2023.2.3,Win32,60.24096386,6,1,7,0.018229167,-0.013020833,1,0,0,0.9893,rock_grid_rect_2,1,11,-1,-1,0.989,-0.33984375,-0.234375,1,0,0,1.5325,Andesite_rect,1,1.532,1,6,0,6,0,1,,,,,,,,,,,,,
65761328646d5bb2adf235d4,TCR,2024-06-25_13h23.12.302,LearnStrategy,2023.2.3,Win32,60.24096386,6,1,8,-0.088541667,-0.00390625,1,0,0,0.7627,rock_grid_rect_2,2,04,-1,-1,0.763,-0.108072917,-0.256510417,1,0,0,1.2661,Basalt_rect,2,1.266,1,7,0,7,0,1,,,,,,,,,,,,,
65761328646d5bb2adf235d4,TCR,2024-06-25_13h23.12.302,LearnStrategy,2023.2.3,Win32,60.24096386,6,1,9,-0.016927083,-0.005208333,1,0,0,0.6539,rock_grid_rect_2,2,10,-1,-1,0.654,-0.140625,-0.243489583,1,0,0,0.9142,Basalt_rect,2,0.914,1,8,0,8,0,1,,,,,,,,,,,,,
65761328646d5bb2adf235d4,TCR,2024-06-25_13h23.12.302,LearnStrategy,2023.2.3,Win32,60.24096386,6,1,10,0.015625,-0.0078125,1,0,0,0.817,rock_grid_rect_2,3,10,-1,-1,0.817,0.135416667,-0.23828125,1,0,0,1.2841,Diorite_rect,3,1.284,1,9,0,9,0,1,,,,,,,,,,,,,
65761328646d5bb2adf235d4,TCR,2024-06-25_13h23.12.302,LearnStrategy,2023.2.3,Win32,60.24096386,6,1,11,0.01953125,0.002604167,1,0,0,0.6627,rock_grid_rect_2,4,05,-1,-1,0.663,0.12109375,-0.234375,1,0,0,1.0348,Diorite_rect,3,1.035,0,10,0,10,0,1,,,,,,,,,,,,,
65761328646d5bb2adf235d4,TCR,2024-06-25_13h23.12.302,LearnStrategy,2023.2.3,Win32,60.24096386,6,1,12,-0.059895833,-0.002604167,1,0,0,0.8024,rock_grid_rect_2,6,13,-1,-1,0.802,-0.07421875,-0.380208333,1,0,0,2.027,Pegmatite_rect,6,2.027,1,11,0,11,0,1,,,,,,,,,,,,,
65761328646d5bb2adf235d4,TCR,2024-06-25_13h23.12.302,LearnStrategy,2023.2.3,Win32,60.24096386,6,1,13,0.010416667,-0.022135417,1,0,0,0.6789,rock_grid_rect_2,8,13,-1,-1,0.679,0.358072917,-0.412760417,1,0,0,1.2649,Pumice_rect,8,1.265,1,12,0,12,0,1,,,,,,,,,,,,,
65761328646d5bb2adf235d4,TCR,2024-06-25_13h23.12.302,LearnStrategy,2023.2.3,Win32,60.24096386,6,1,14,0.119791667,-0.0078125,1,0,0,1.2297,rock_grid_rect_2,7,07,-1,-1,1.23,0.13671875,-0.385416667,1,0,0,2.1049,Peridotite_rect,7,2.105,1,13,0,13,0,1,,,,,,,,,,,,,
65761328646d5bb2adf235d4,TCR,2024-06-25_13h23.12.302,LearnStrategy,2023.2.3,Win32,60.24096386,6,1,15,0.053385417,0.0234375,1,0,0,1.738,rock_grid_rect_2,4,16,-1,-1,1.738,-0.052083333,-0.251302083,1,0,0,1.6038,Basalt_rect,2,1.604,0,14,0,14,0,1,,,,,,,,,,,,,
65761328646d5bb2adf235d4,TCR,2024-06-25_13h23.12.302,LearnStrategy,2023.2.3,Win32,60.24096386,6,1,16,0.079427083,-0.013020833,1,0,0,1.3956,rock_grid_rect_2,1,09,-1,-1,1.396,-0.3125,-0.229166667,1,0,0,1.4483,Andesite_rect,1,1.448,1,15,0,15,0,1,,,,,,,,,,,,,
65761328646d5bb2adf235d4,TCR,2024-06-25_13h23.12.302,LearnStrategy,2023.2.3,Win32,60.24096386,6,2,1,,,,,,,,5,08,,,,,,,,,,,5,9.424,1,,,,,,-0.462239583,-0.41015625,1,0,0,9.4244,Obsidian_rect,0,0,0,0,1,
65761328646d5bb2adf235d4,TCR,2024-06-25_13h23.12.302,LearnStrategy,2023.2.3,Win32,60.24096386,6,2,2,,,,,,,,7,05,,,,,,,,,,,7,1.659,1,,,,,,0.161458333,-0.397135417,1,0,0,1.6587,Peridotite_rect,1,0,1,0,1,
65761328646d5bb2adf235d4,TCR,2024-06-25_13h23.12.302,LearnStrategy,2023.2.3,Win32,60.24096386,6,2,3,,,,,,,,8,02,,,,,,,,,,,8,1.434,1,,,,,,0.3671875,-0.39453125,1,0,0,1.4337,Pumice_rect,2,0,2,0,1,
65761328646d5bb2adf235d4,TCR,2024-06-25_13h23.12.302,LearnStrategy,2023.2.3,Win32,60.24096386,6,2,4,,,,,,,,4,11,,,,,,,,,,,2,1.785,0,,,,,,-0.09375,-0.233072917,1,0,0,1.7848,Basalt_rect,3,0,3,0,1,
65761328646d5bb2adf235d4,TCR,2024-06-25_13h23.12.302,LearnStrategy,2023.2.3,Win32,60.24096386,6,2,5,,,,,,,,1,10,,,,,,,,,,,8,5.645,0,,,,,,0.296875,-0.3984375,1,0,0,5.6448,Pumice_rect,4,0,4,0,1,
65761328646d5bb2adf235d4,TCR,2024-06-25_13h23.12.302,LearnStrategy,2023.2.3,Win32,60.24096386,6,2,6,,,,,,,,3,02,,,,,,,,,,,3,1.754,1,,,,,,0.15234375,-0.240885417,1,0,0,1.7543,Diorite_rect,5,0,5,0,1,
65761328646d5bb2adf235d4,TCR,2024-06-25_13h23.12.302,LearnStrategy,2023.2.3,Win32,60.24096386,6,2,7,,,,,,,,8,04,,,,,,,,,,,8,1.473,1,,,,,,0.361979167,-0.3984375,1,0,0,1.4727,Pumice_rect,6,0,6,0,1,
65761328646d5bb2adf235d4,TCR,2024-06-25_13h23.12.302,LearnStrategy,2023.2.3,Win32,60.24096386,6,2,8,,,,,,,,6,09,,,,,,,,,,,7,3.908,0,,,,,,0.125,-0.40234375,1,0,0,3.9081,Peridotite_rect,7,0,7,0,1,
65761328646d5bb2adf235d4,TCR,2024-06-25_13h23.12.302,LearnStrategy,2023.2.3,Win32,60.24096386,6,2,9,,,,,,,,2,12,,,,,,,,,,,8,4.566,0,,,,,,0.352864583,-0.41796875,1,0,0,4.5657,Pumice_rect,8,0,8,0,1,
65761328646d5bb2adf235d4,TCR,2024-06-25_13h23.12.302,LearnStrategy,2023.2.3,Win32,60.24096386,6,2,10,,,,,,,,5,14,,,,,,,,,,,5,1.598,1,,,,,,-0.365885417,-0.389322917,1,0,0,1.5985,Obsidian_rect,9,0,9,0,1,
65761328646d5bb2adf235d4,TCR,2024-06-25_13h23.12.302,LearnStrategy,2023.2.3,Win32,60.24096386,6,2,11,,,,,,,,6,16,,,,,,,,,,,6,1.662,1,,,,,,-0.158854167,-0.390625,1,0,0,1.6621,Pegmatite_rect,10,0,10,0,1,
65761328646d5bb2adf235d4,TCR,2024-06-25_13h23.12.302,LearnStrategy,2023.2.3,Win32,60.24096386,6,2,12,,,,,,,,3,13,,,,,,,,,,,3,1.491,1,,,,,,0.145833333,-0.236979167,1,0,0,1.4907,Diorite_rect,11,0,11,0,1,
65761328646d5bb2adf235d4,TCR,2024-06-25_13h23.12.302,LearnStrategy,2023.2.3,Win32,60.24096386,6,2,13,,,,,,,,1,14,,,,,,,,,,,4,3.335,0,,,,,,0.369791667,-0.259114583,1,0,0,3.3351,Gabbro_rect,12,0,12,0,1,
65761328646d5bb2adf235d4,TCR,2024-06-25_13h23.12.302,LearnStrategy,2023.2.3,Win32,60.24096386,6,2,14,,,,,,,,2,06,,,,,,,,,,,2,1.949,1,,,,,,-0.139322917,-0.248697917,1,0,0,1.9491,Basalt_rect,13,0,13,0,1,
65761328646d5bb2adf235d4,TCR,2024-06-25_13h23.12.302,LearnStrategy,2023.2.3,Win32,60.24096386,6,2,15,,,,,,,,4,01,,,,,,,,,,,4,3.243,1,,,,,,0.3984375,-0.265625,1,0,0,3.2425,Gabbro_rect,14,0,14,0,1,
65761328646d5bb2adf235d4,TCR,2024-06-25_13h23.12.302,LearnStrategy,2023.2.3,Win32,60.24096386,6,2,16,,,,,,,,7,12,,,,,,,,,,,7,2.677,1,,,,,,0.178385417,-0.419270833,1,0,0,2.6772,Peridotite_rect,15,0,15,0,1,
65761328646d5bb2adf235d4,TCR,2024-06-25_13h23.12.302,LearnStrategy,2023.2.3,Win32,60.24096386,7,1,1,-0.0234375,0.001302083,1,0,0,1.1808,rock_grid_rect_2,2,09,-1,-1,1.181,-0.078125,-0.264322917,1,0,0,1.4847,Basalt_rect,2,1.485,1,0,0,0,0,1,,,,,,,,,,,,,
65761328646d5bb2adf235d4,TCR,2024-06-25_13h23.12.302,LearnStrategy,2023.2.3,Win32,60.24096386,7,1,2,-0.013020833,-0.005208333,1,0,0,1.3959,rock_grid_rect_2,8,13,-1,-1,1.396,0.421875,-0.397135417,1,0,0,1.247,Pumice_rect,8,1.247,1,1,0,1,0,1,,,,,,,,,,,,,
65761328646d5bb2adf235d4,TCR,2024-06-25_13h23.12.302,LearnStrategy,2023.2.3,Win32,60.24096386,7,1,3,0.037760417,-0.010416667,1,0,0,0.7448,rock_grid_rect_2,4,16,-1,-1,0.745,-0.110677083,-0.25390625,1,0,0,2.008,Basalt_rect,2,2.008,0,2,0,2,0,1,,,,,,,,,,,,,
65761328646d5bb2adf235d4,TCR,2024-06-25_13h23.12.302,LearnStrategy,2023.2.3,Win32,60.24096386,7,1,4,0.002604167,-0.014322917,1,0,0,0.8056,rock_grid_rect_2,1,09,-1,-1,0.806,-0.390625,-0.247395833,1,0,0,1.4084,Andesite_rect,1,1.408,1,3,0,3,0,1,,,,,,,,,,,,,
65761328646d5bb2adf235d4,TCR,2024-06-25_13h23.12.302,LearnStrategy,2023.2.3,Win32,60.24096386,7,1,5,-0.08203125,-0.00390625,1,0,0,0.7802,rock_grid_rect_2,1,04,-1,-1,0.78,0.356770833,-0.25390625,1,0,0,3.4058,Gabbro_rect,4,3.406,0,4,0,4,0,1,,,,,,,,,,,,,
65761328646d5bb2adf235d4,TCR,2024-06-25_13h23.12.302,LearnStrategy,2023.2.3,Win32,60.24096386,7,1,6,0.09765625,-0.001302083,1,0,0,0.6797,rock_grid_rect_2,2,14,-1,-1,0.68,0.38671875,-0.2578125,1,0,0,3.2308,Gabbro_rect,4,3.231,0,5,0,5,0,1,,,,,,,,,,,,,
65761328646d5bb2adf235d4,TCR,2024-06-25_13h23.12.302,LearnStrategy,2023.2.3,Win32,60.24096386,7,1,7,-0.010416667,-0.016927083,1,0,0,0.7493,rock_grid_rect_2,4,03,-1,-1,0.749,0.095052083,-0.270833333,1,0,0,3.0432,Diorite_rect,3,3.043,0,6,0,6,0,1,,,,,,,,,,,,,
65761328646d5bb2adf235d4,TCR,2024-06-25_13h23.12.302,LearnStrategy,2023.2.3,Win32,60.24096386,7,1,8,0.014322917,-0.002604167,1,0,0,1.1631,rock_grid_rect_2,6,07,-1,-1,1.163,-0.091145833,-0.380208333,1,0,0,2.1508,Pegmatite_rect,6,2.151,1,7,0,7,0,1,,,,,,,,,,,,,
65761328646d5bb2adf235d4,TCR,2024-06-25_13h23.12.302,LearnStrategy,2023.2.3,Win32,60.24096386,7,1,9,0.002604167,-0.010416667,1,0,0,0.813,rock_grid_rect_2,1,09,-1,-1,0.813,-0.37109375,-0.268229167,1,0,0,2.2936,Andesite_rect,1,2.294,1,8,0,8,0,1,,,,,,,,,,,,,
65761328646d5bb2adf235d4,TCR,2024-06-25_13h23.12.302,LearnStrategy,2023.2.3,Win32,60.24096386,7,1,10,-0.069010417,-0.01953125,1,0,0,0.8628,rock_grid_rect_2,7,04,-1,-1,0.863,0.102864583,-0.412760417,1,0,0,2.2201,Peridotite_rect,7,2.22,1,9,0,9,0,1,,,,,,,,,,,,,
65761328646d5bb2adf235d4,TCR,2024-06-25_13h23.12.302,LearnStrategy,2023.2.3,Win32,60.24096386,7,1,11,0.033854167,-0.0078125,1,0,0,0.8356,rock_grid_rect_2,2,04,-1,-1,0.836,-0.109375,-0.25390625,1,0,0,2.5691,Basalt_rect,2,2.569,1,10,0,10,0,1,,,,,,,,,,,,,
65761328646d5bb2adf235d4,TCR,2024-06-25_13h23.12.302,LearnStrategy,2023.2.3,Win32,60.24096386,7,1,12,0.015625,0.018229167,1,0,0,0.6132,rock_grid_rect_2,4,15,-1,-1,0.613,-0.186197917,-0.412760417,1,0,0,3.6124,Pegmatite_rect,6,3.612,0,11,0,11,0,1,,,,,,,,,,,,,
65761328646d5bb2adf235d4,TCR,2024-06-25_13h23.12.302,LearnStrategy,2023.2.3,Win32,60.24096386,7,1,13,-0.03125,0.009114583,1,0,0,0.8299,rock_grid_rect_2,5,04,-1,-1,0.83,-0.372395833,-0.401041667,1,0,0,1.3285,Obsidian_rect,5,1.329,1,12,0,12,0,1,,,,,,,,,,,,,
65761328646d5bb2adf235d4,TCR,2024-06-25_13h23.12.302,LearnStrategy,2023.2.3,Win32,60.24096386,7,1,14,-0.03515625,-0.018229167,1,0,0,0.9797,rock_grid_rect_2,6,10,-1,-1,0.98,0.0859375,-0.391927083,1,0,0,1.543,Peridotite_rect,7,1.543,0,13,0,13,0,1,,,,,,,,,,,,,
65761328646d5bb2adf235d4,TCR,2024-06-25_13h23.12.302,LearnStrategy,2023.2.3,Win32,60.24096386,7,1,15,0.036458333,0.00390625,1,0,0,1.0463,rock_grid_rect_2,3,06,-1,-1,1.046,0.127604167,-0.259114583,1,0,0,1.3731,Diorite_rect,3,1.373,1,14,0,14,0,1,,,,,,,,,,,,,
65761328646d5bb2adf235d4,TCR,2024-06-25_13h23.12.302,LearnStrategy,2023.2.3,Win32,60.24096386,7,1,16,0.014322917,-0.018229167,1,0,0,1.0129,rock_grid_rect_2,1,06,-1,-1,1.013,-0.334635417,-0.231770833,1,0,0,1.8544,Andesite_rect,1,1.854,1,15,0,15,0,1,,,,,,,,,,,,,
65761328646d5bb2adf235d4,TCR,2024-06-25_13h23.12.302,LearnStrategy,2023.2.3,Win32,60.24096386,7,2,1,,,,,,,,2,11,,,,,,,,,,,1,3.643,0,,,,,,-0.35546875,-0.23828125,1,0,0,3.6433,Andesite_rect,0,0,0,0,1,
65761328646d5bb2adf235d4,TCR,2024-06-25_13h23.12.302,LearnStrategy,2023.2.3,Win32,60.24096386,7,2,2,,,,,,,,6,08,,,,,,,,,,,6,3.084,1,,,,,,-0.13671875,-0.404947917,1,0,0,3.0842,Pegmatite_rect,1,0,1,0,1,
65761328646d5bb2adf235d4,TCR,2024-06-25_13h23.12.302,LearnStrategy,2023.2.3,Win32,60.24096386,7,2,3,,,,,,,,3,11,,,,,,,,,,,3,1.293,1,,,,,,0.115885417,-0.23828125,1,0,0,1.2931,Diorite_rect,2,0,2,0,1,
65761328646d5bb2adf235d4,TCR,2024-06-25_13h23.12.302,LearnStrategy,2023.2.3,Win32,60.24096386,7,2,4,,,,,,,,5,11,,,,,,,,,,,5,1.503,1,,,,,,-0.341145833,-0.388020833,1,0,0,1.5026,Obsidian_rect,3,0,3,0,1,
65761328646d5bb2adf235d4,TCR,2024-06-25_13h23.12.302,LearnStrategy,2023.2.3,Win32,60.24096386,7,2,5,,,,,,,,6,09,,,,,,,,,,,7,2.61,0,,,,,,0.12890625,-0.399739583,1,0,0,2.6102,Peridotite_rect,4,0,4,0,1,
65761328646d5bb2adf235d4,TCR,2024-06-25_13h23.12.302,LearnStrategy,2023.2.3,Win32,60.24096386,7,2,6,,,,,,,,5,08,,,,,,,,,,,5,2.201,1,,,,,,-0.361979167,-0.404947917,1,0,0,2.2006,Obsidian_rect,5,0,5,0,1,
65761328646d5bb2adf235d4,TCR,2024-06-25_13h23.12.302,LearnStrategy,2023.2.3,Win32,60.24096386,7,2,7,,,,,,,,7,16,,,,,,,,,,,7,1.544,1,,,,,,0.13671875,-0.41015625,1,0,0,1.5443,Peridotite_rect,6,0,6,0,1,
65761328646d5bb2adf235d4,TCR,2024-06-25_13h23.12.302,LearnStrategy,2023.2.3,Win32,60.24096386,7,2,8,,,,,,,,3,09,,,,,,,,,,,3,1.486,1,,,,,,0.15234375,-0.233072917,1,0,0,1.4857,Diorite_rect,7,0,7,0,1,
65761328646d5bb2adf235d4,TCR,2024-06-25_13h23.12.302,LearnStrategy,2023.2.3,Win32,60.24096386,7,2,9,,,,,,,,1,07,,,,,,,,,,,4,3.377,0,,,,,,0.390625,-0.248697917,1,0,0,3.3766,Gabbro_rect,8,0,8,0,1,
65761328646d5bb2adf235d4,TCR,2024-06-25_13h23.12.302,LearnStrategy,2023.2.3,Win32,60.24096386,7,2,10,,,,,,,,4,10,,,,,,,,,,,2,2.606,0,,,,,,-0.1953125,-0.244791667,1,0,0,2.6056,Basalt_rect,9,0,9,0,1,
65761328646d5bb2adf235d4,TCR,2024-06-25_13h23.12.302,LearnStrategy,2023.2.3,Win32,60.24096386,7,2,11,,,,,,,,4,14,,,,,,,,,,,4,3.039,1,,,,,,0.408854167,-0.2578125,1,0,0,3.0391,Gabbro_rect,10,0,10,0,1,
65761328646d5bb2adf235d4,TCR,2024-06-25_13h23.12.302,LearnStrategy,2023.2.3,Win32,60.24096386,7,2,12,,,,,,,,7,13,,,,,,,,,,,7,1.341,1,,,,,,0.15625,-0.41796875,1,0,0,1.341,Peridotite_rect,11,0,11,0,1,
65761328646d5bb2adf235d4,TCR,2024-06-25_13h23.12.302,LearnStrategy,2023.2.3,Win32,60.24096386,7,2,13,,,,,,,,8,15,,,,,,,,,,,8,1.577,1,,,,,,0.385416667,-0.397135417,1,0,0,1.5765,Pumice_rect,12,0,12,0,1,
65761328646d5bb2adf235d4,TCR,2024-06-25_13h23.12.302,LearnStrategy,2023.2.3,Win32,60.24096386,7,2,14,,,,,,,,1,10,,,,,,,,,,,1,3.949,1,,,,,,-0.35546875,-0.2421875,1,0,0,3.9493,Andesite_rect,13,0,13,0,1,
65761328646d5bb2adf235d4,TCR,2024-06-25_13h23.12.302,LearnStrategy,2023.2.3,Win32,60.24096386,7,2,15,,,,,,,,8,02,,,,,,,,,,,8,1.351,1,,,,,,0.4296875,-0.397135417,1,0,0,1.3507,Pumice_rect,14,0,14,0,1,
65761328646d5bb2adf235d4,TCR,2024-06-25_13h23.12.302,LearnStrategy,2023.2.3,Win32,60.24096386,7,2,16,,,,,,,,2,06,,,,,,,,,,,2,2.145,1,,,,,,-0.114583333,-0.25,1,0,0,2.1447,Basalt_rect,15,0,15,0,1,
65761328646d5bb2adf235d4,TCR,2024-06-25_13h23.12.302,LearnStrategy,2023.2.3,Win32,60.24096386,8,1,1,-0.026041667,-0.022135417,1,0,0,1.9158,rock_grid_rect_2,1,06,-1,-1,1.916,-0.384114583,-0.25,1,0,0,1.5366,Andesite_rect,1,1.537,1,0,0,0,0,1,,,,,,,,,,,,,
65761328646d5bb2adf235d4,TCR,2024-06-25_13h23.12.302,LearnStrategy,2023.2.3,Win32,60.24096386,8,1,2,0.018229167,-0.006510417,1,0,0,0.9053,rock_grid_rect_2,1,05,-1,-1,0.905,-0.322916667,-0.247395833,1,0,0,1.3479,Andesite_rect,1,1.348,1,1,0,1,0,1,,,,,,,,,,,,,
65761328646d5bb2adf235d4,TCR,2024-06-25_13h23.12.302,LearnStrategy,2023.2.3,Win32,60.24096386,8,1,3,-0.028645833,-0.01171875,1,0,0,0.7131,rock_grid_rect_2,2,04,-1,-1,0.713,-0.083333333,-0.229166667,1,0,0,1.1106,Basalt_rect,2,1.111,1,2,0,2,0,1,,,,,,,,,,,,,
65761328646d5bb2adf235d4,TCR,2024-06-25_13h23.12.302,LearnStrategy,2023.2.3,Win32,60.24096386,8,1,4,0.006510417,0.00390625,1,0,0,0.6632,rock_grid_rect_2,6,07,-1,-1,0.663,-0.108072917,-0.41796875,1,0,0,1.7728,Pegmatite_rect,6,1.773,1,3,0,3,0,1,,,,,,,,,,,,,
65761328646d5bb2adf235d4,TCR,2024-06-25_13h23.12.302,LearnStrategy,2023.2.3,Win32,60.24096386,8,1,5,0.032552083,-0.020833333,1,0,0,0.863,rock_grid_rect_2,4,03,-1,-1,0.863,0.365885417,-0.26953125,1,0,0,2.4774,Gabbro_rect,4,2.477,1,4,0,4,0,1,,,,,,,,,,,,,
65761328646d5bb2adf235d4,TCR,2024-06-25_13h23.12.302,LearnStrategy,2023.2.3,Win32,60.24096386,8,1,6,0.041666667,0.014322917,1,0,0,0.9631,rock_grid_rect_2,5,09,-1,-1,0.963,-0.411458333,-0.421875,1,0,0,1.3256,Obsidian_rect,5,1.326,1,5,0,5,0,1,,,,,,,,,,,,,
65761328646d5bb2adf235d4,TCR,2024-06-25_13h23.12.302,LearnStrategy,2023.2.3,Win32,60.24096386,8,1,7,-0.028645833,-0.014322917,1,0,0,1.163,rock_grid_rect_2,7,04,-1,-1,1.163,0.088541667,-0.395833333,1,0,0,2.783,Peridotite_rect,7,2.783,1,6,0,6,0,1,,,,,,,,,,,,,
65761328646d5bb2adf235d4,TCR,2024-06-25_13h23.12.302,LearnStrategy,2023.2.3,Win32,60.24096386,8,1,8,0.020833333,-0.005208333,1,0,0,0.7792,rock_grid_rect_2,6,13,-1,-1,0.779,-0.095052083,-0.391927083,1,0,0,2.4543,Pegmatite_rect,6,2.454,1,7,0,7,0,1,,,,,,,,,,,,,
65761328646d5bb2adf235d4,TCR,2024-06-25_13h23.12.302,LearnStrategy,2023.2.3,Win32,60.24096386,8,1,9,-0.01171875,-0.002604167,1,0,0,1.0123,rock_grid_rect_2,2,09,-1,-1,1.012,-0.151041667,-0.244791667,1,0,0,0.9839,Basalt_rect,2,0.984,1,8,0,8,0,1,,,,,,,,,,,,,
65761328646d5bb2adf235d4,TCR,2024-06-25_13h23.12.302,LearnStrategy,2023.2.3,Win32,60.24096386,8,1,10,-0.002604167,0.001302083,1,0,0,0.68,rock_grid_rect_2,4,16,-1,-1,0.68,0.33984375,-0.259114583,1,0,0,2.2022,Gabbro_rect,4,2.202,1,9,0,9,0,1,,,,,,,,,,,,,
65761328646d5bb2adf235d4,TCR,2024-06-25_13h23.12.302,LearnStrategy,2023.2.3,Win32,60.24096386,8,1,11,-0.001302083,-0.00390625,1,0,0,0.8473,rock_grid_rect_2,4,05,-1,-1,0.847,0.375,-0.260416667,1,0,0,5.8486,Gabbro_rect,4,5.849,1,10,0,10,0,1,,,,,,,,,,,,,
65761328646d5bb2adf235d4,TCR,2024-06-25_13h23.12.302,LearnStrategy,2023.2.3,Win32,60.24096386,8,1,12,0.03515625,-0.0234375,1,0,0,0.803,rock_grid_rect_2,1,11,-1,-1,0.803,-0.361979167,-0.25,1,0,0,1.6699,Andesite_rect,1,1.67,1,11,0,11,0,1,,,,,,,,,,,,,
65761328646d5bb2adf235d4,TCR,2024-06-25_13h23.12.302,LearnStrategy,2023.2.3,Win32,60.24096386,8,1,13,0.067708333,-0.0234375,1,0,0,0.6462,rock_grid_rect_2,3,06,-1,-1,0.646,0.076822917,-0.248697917,1,0,0,1.5792,Diorite_rect,3,1.579,1,12,0,12,0,1,,,,,,,,,,,,,
65761328646d5bb2adf235d4,TCR,2024-06-25_13h23.12.302,LearnStrategy,2023.2.3,Win32,60.24096386,8,1,14,0.052083333,-0.005208333,1,0,0,1.0466,rock_grid_rect_2,8,14,-1,-1,1.047,0.408854167,-0.41015625,1,0,0,1.4002,Pumice_rect,8,1.4,1,13,0,13,0,1,,,,,,,,,,,,,
65761328646d5bb2adf235d4,TCR,2024-06-25_13h23.12.302,LearnStrategy,2023.2.3,Win32,60.24096386,8,1,15,0.067708333,0,1,0,0,0.8966,rock_grid_rect_2,1,09,-1,-1,0.897,-0.1015625,-0.243489583,1,0,0,1.5888,Basalt_rect,2,1.589,0,14,0,14,0,1,,,,,,,,,,,,,
65761328646d5bb2adf235d4,TCR,2024-06-25_13h23.12.302,LearnStrategy,2023.2.3,Win32,60.24096386,8,1,16,0.01953125,0.005208333,1,0,0,0.9133,rock_grid_rect_2,2,10,-1,-1,0.913,-0.084635417,-0.24609375,1,0,0,1.2451,Basalt_rect,2,1.245,1,15,0,15,0,1,,,,,,,,,,,,,
65761328646d5bb2adf235d4,TCR,2024-06-25_13h23.12.302,LearnStrategy,2023.2.3,Win32,60.24096386,8,2,1,,,,,,,,2,16,,,,,,,,,,,2,7.852,1,,,,,,-0.095052083,-0.239583333,1,0,0,7.8519,Basalt_rect,0,0,0,0,1,
65761328646d5bb2adf235d4,TCR,2024-06-25_13h23.12.302,LearnStrategy,2023.2.3,Win32,60.24096386,8,2,2,,,,,,,,5,06,,,,,,,,,,,5,1.159,1,,,,,,-0.401041667,-0.412760417,1,0,0,1.159,Obsidian_rect,1,0,1,0,1,
65761328646d5bb2adf235d4,TCR,2024-06-25_13h23.12.302,LearnStrategy,2023.2.3,Win32,60.24096386,8,2,3,,,,,,,,7,14,,,,,,,,,,,7,1.527,1,,,,,,0.145833333,-0.391927083,1,0,0,1.5268,Peridotite_rect,2,0,2,0,1,
65761328646d5bb2adf235d4,TCR,2024-06-25_13h23.12.302,LearnStrategy,2023.2.3,Win32,60.24096386,8,2,4,,,,,,,,6,06,,,,,,,,,,,6,1.574,1,,,,,,-0.110677083,-0.401041667,1,0,0,1.5741,Pegmatite_rect,3,0,3,0,1,
65761328646d5bb2adf235d4,TCR,2024-06-25_13h23.12.302,LearnStrategy,2023.2.3,Win32,60.24096386,8,2,5,,,,,,,,8,03,,,,,,,,,,,8,1.294,1,,,,,,0.458333333,-0.403645833,1,0,0,1.2939,Pumice_rect,4,0,4,0,1,
65761328646d5bb2adf235d4,TCR,2024-06-25_13h23.12.302,LearnStrategy,2023.2.3,Win32,60.24096386,8,2,6,,,,,,,,5,07,,,,,,,,,,,5,1.454,1,,,,,,-0.35546875,-0.397135417,1,0,0,1.4543,Obsidian_rect,5,0,5,0,1,
65761328646d5bb2adf235d4,TCR,2024-06-25_13h23.12.302,LearnStrategy,2023.2.3,Win32,60.24096386,8,2,7,,,,,,,,1,02,,,,,,,,,,,1,2.466,1,,,,,,-0.375,-0.2421875,1,0,0,2.466,Andesite_rect,6,0,6,0,1,
65761328646d5bb2adf235d4,TCR,2024-06-25_13h23.12.302,LearnStrategy,2023.2.3,Win32,60.24096386,8,2,8,,,,,,,,3,14,,,,,,,,,,,3,1.503,1,,,,,,0.16015625,-0.25,1,0,0,1.5032,Diorite_rect,7,0,7,0,1,
65761328646d5bb2adf235d4,TCR,2024-06-25_13h23.12.302,LearnStrategy,2023.2.3,Win32,60.24096386,8,2,9,,,,,,,,6,11,,,,,,,,,,,6,2.059,1,,,,,,-0.098958333,-0.395833333,1,0,0,2.0592,Pegmatite_rect,8,0,8,0,1,
65761328646d5bb2adf235d4,TCR,2024-06-25_13h23.12.302,LearnStrategy,2023.2.3,Win32,60.24096386,8,2,10,,,,,,,,8,04,,,,,,,,,,,8,1.888,1,,,,,,0.442708333,-0.40625,1,0,0,1.8878,Pumice_rect,9,0,9,0,1,
65761328646d5bb2adf235d4,TCR,2024-06-25_13h23.12.302,LearnStrategy,2023.2.3,Win32,60.24096386,8,2,11,,,,,,,,4,01,,,,,,,,,,,4,5.4,1,,,,,,0.397135417,-0.248697917,1,0,0,5.4,Gabbro_rect,10,0,10,0,1,
65761328646d5bb2adf235d4,TCR,2024-06-25_13h23.12.302,LearnStrategy,2023.2.3,Win32,60.24096386,8,2,12,,,,,,,,3,13,,,,,,,,,,,3,1.273,1,,,,,,0.119791667,-0.244791667,1,0,0,1.2729,Diorite_rect,11,0,11,0,1,
65761328646d5bb2adf235d4,TCR,2024-06-25_13h23.12.302,LearnStrategy,2023.2.3,Win32,60.24096386,8,2,13,,,,,,,,4,12,,,,,,,,,,,2,1.474,0,,,,,,-0.153645833,-0.25,1,0,0,1.4737,Basalt_rect,12,0,12,0,1,
65761328646d5bb2adf235d4,TCR,2024-06-25_13h23.12.302,LearnStrategy,2023.2.3,Win32,60.24096386,8,2,14,,,,,,,,1,14,,,,,,,,,,,2,2.313,0,,,,,,-0.115885417,-0.244791667,1,0,0,2.313,Basalt_rect,13,0,13,0,1,
65761328646d5bb2adf235d4,TCR,2024-06-25_13h23.12.302,LearnStrategy,2023.2.3,Win32,60.24096386,8,2,15,,,,,,,,7,15,,,,,,,,,,,7,2.818,1,,,,,,0.151041667,-0.421875,1,0,0,2.818,Peridotite_rect,14,0,14,0,1,
65761328646d5bb2adf235d4,TCR,2024-06-25_13h23.12.302,LearnStrategy,2023.2.3,Win32,60.24096386,8,2,16,,,,,,,,2,08,,,,,,,,,,,2,2.282,1,,,,,,-0.1171875,-0.2421875,1,0,0,2.2822,Basalt_rect,15,0,15,0,1,
65761328646d5bb2adf235d4,TCR,2024-06-25_13h23.12.302,LearnStrategy,2023.2.3,Win32,60.24096386,9,1,1,-0.059895833,-0.009114583,1,0,0,2.1227,rock_grid_rect_2,4,13,-1,-1,2.123,0.385416667,-0.263020833,1,0,0,2.4866,Gabbro_rect,4,2.487,1,0,0,0,0,1,,,,,,,,,,,,,
65761328646d5bb2adf235d4,TCR,2024-06-25_13h23.12.302,LearnStrategy,2023.2.3,Win32,60.24096386,9,1,2,0.020833333,-0.005208333,1,0,0,0.8462,rock_grid_rect_2,8,13,-1,-1,0.846,0.424479167,-0.4140625,1,0,0,1.4636,Pumice_rect,8,1.464,1,1,0,1,0,1,,,,,,,,,,,,,
65761328646d5bb2adf235d4,TCR,2024-06-25_13h23.12.302,LearnStrategy,2023.2.3,Win32,60.24096386,9,1,3,0.084635417,0.006510417,1,0,0,0.6799,rock_grid_rect_2,6,13,-1,-1,0.68,-0.114583333,-0.385416667,1,0,0,1.3776,Pegmatite_rect,6,1.378,1,2,0,2,0,1,,,,,,,,,,,,,
65761328646d5bb2adf235d4,TCR,2024-06-25_13h23.12.302,LearnStrategy,2023.2.3,Win32,60.24096386,9,1,4,-0.076822917,-0.009114583,1,0,0,0.8128,rock_grid_rect_2,4,16,-1,-1,0.813,-0.143229167,-0.23046875,1,0,0,1.6397,Basalt_rect,2,1.64,0,3,0,3,0,1,,,,,,,,,,,,,
65761328646d5bb2adf235d4,TCR,2024-06-25_13h23.12.302,LearnStrategy,2023.2.3,Win32,60.24096386,9,1,5,-0.0234375,0.001302083,1,0,0,0.5462,rock_grid_rect_2,1,11,-1,-1,0.546,-0.299479167,-0.234375,1,0,0,1.2345,Andesite_rect,1,1.234,1,4,0,4,0,1,,,,,,,,,,,,,
65761328646d5bb2adf235d4,TCR,2024-06-25_13h23.12.302,LearnStrategy,2023.2.3,Win32,60.24096386,9,1,6,0.0078125,-0.016927083,1,0,0,0.8616,rock_grid_rect_2,5,12,-1,-1,0.862,-0.35546875,-0.3828125,1,0,0,1.3395,Obsidian_rect,5,1.34,1,5,0,5,0,1,,,,,,,,,,,,,
65761328646d5bb2adf235d4,TCR,2024-06-25_13h23.12.302,LearnStrategy,2023.2.3,Win32,60.24096386,9,1,7,-0.036458333,0.002604167,1,0,0,0.8465,rock_grid_rect_2,2,05,-1,-1,0.846,-0.131510417,-0.234375,1,0,0,1.6386,Basalt_rect,2,1.639,1,6,0,6,0,1,,,,,,,,,,,,,
65761328646d5bb2adf235d4,TCR,2024-06-25_13h23.12.302,LearnStrategy,2023.2.3,Win32,60.24096386,9,1,8,-0.05078125,-0.016927083,1,0,0,0.7797,rock_grid_rect_2,2,05,-1,-1,0.78,-0.114583333,-0.239583333,1,0,0,0.7848,Basalt_rect,2,0.785,1,7,0,7,0,1,,,,,,,,,,,,,
65761328646d5bb2adf235d4,TCR,2024-06-25_13h23.12.302,LearnStrategy,2023.2.3,Win32,60.24096386,9,1,9,0.020833333,-0.010416667,1,0,0,0.7132,rock_grid_rect_2,1,05,-1,-1,0.713,-0.421875,-0.2421875,1,0,0,1.3169,Andesite_rect,1,1.317,1,8,0,8,0,1,,,,,,,,,,,,,
65761328646d5bb2adf235d4,TCR,2024-06-25_13h23.12.302,LearnStrategy,2023.2.3,Win32,60.24096386,9,1,10,0.00390625,-0.001302083,1,0,0,0.8965,rock_grid_rect_2,7,06,-1,-1,0.897,0.12109375,-0.401041667,1,0,0,3.8457,Peridotite_rect,7,3.846,1,9,0,9,0,1,,,,,,,,,,,,,
65761328646d5bb2adf235d4,TCR,2024-06-25_13h23.12.302,LearnStrategy,2023.2.3,Win32,60.24096386,9,1,11,0.109375,-0.01171875,1,0,0,1.1181,rock_grid_rect_2,4,03,-1,-1,1.118,0.4296875,-0.24609375,1,0,0,2.8866,Gabbro_rect,4,2.887,1,10,0,10,0,1,,,,,,,,,,,,,
65761328646d5bb2adf235d4,TCR,2024-06-25_13h23.12.302,LearnStrategy,2023.2.3,Win32,60.24096386,9,1,12,0.115885417,-0.010416667,1,0,0,0.6634,rock_grid_rect_2,1,05,-1,-1,0.663,-0.352864583,-0.2421875,1,0,0,1.1515,Andesite_rect,1,1.151,1,11,0,11,0,1,,,,,,,,,,,,,
65761328646d5bb2adf235d4,TCR,2024-06-25_13h23.12.302,LearnStrategy,2023.2.3,Win32,60.24096386,9,1,13,-0.071614583,-0.006510417,1,0,0,0.8632,rock_grid_rect_2,3,06,-1,-1,0.863,0.14453125,-0.26953125,1,0,0,2.2564,Diorite_rect,3,2.256,1,12,0,12,0,1,,,,,,,,,,,,,
65761328646d5bb2adf235d4,TCR,2024-06-25_13h23.12.302,LearnStrategy,2023.2.3,Win32,60.24096386,9,1,14,0.001302083,0.006510417,1,0,0,1.0559,rock_grid_rect_2,2,04,-1,-1,1.056,-0.1328125,-0.247395833,1,0,0,2.5056,Basalt_rect,2,2.506,1,13,0,13,0,1,,,,,,,,,,,,,
65761328646d5bb2adf235d4,TCR,2024-06-25_13h23.12.302,LearnStrategy,2023.2.3,Win32,60.24096386,9,1,15,0.03125,0.00390625,1,0,0,0.8562,rock_grid_rect_2,6,05,-1,-1,0.856,-0.16015625,-0.421875,1,0,0,3.2266,Pegmatite_rect,6,3.227,1,14,0,14,0,1,,,,,,,,,,,,,
65761328646d5bb2adf235d4,TCR,2024-06-25_13h23.12.302,LearnStrategy,2023.2.3,Win32,60.24096386,9,1,16,0.005208333,-0.006510417,1,0,0,1.0629,rock_grid_rect_2,1,06,-1,-1,1.063,-0.3203125,-0.2421875,1,0,0,1.7597,Andesite_rect,1,1.76,1,15,0,15,0,1,,,,,,,,,,,,,
65761328646d5bb2adf235d4,TCR,2024-06-25_13h23.12.302,LearnStrategy,2023.2.3,Win32,60.24096386,9,2,1,,,,,,,,6,15,,,,,,,,,,,6,16.111,1,,,,,,-0.09375,-0.395833333,1,0,0,16.1113,Pegmatite_rect,0,0,0,0,1,
65761328646d5bb2adf235d4,TCR,2024-06-25_13h23.12.302,LearnStrategy,2023.2.3,Win32,60.24096386,9,2,2,,,,,,,,3,02,,,,,,,,,,,3,1.442,1,,,,,,0.139322917,-0.247395833,1,0,0,1.4421,Diorite_rect,1,0,1,0,1,
65761328646d5bb2adf235d4,TCR,2024-06-25_13h23.12.302,LearnStrategy,2023.2.3,Win32,60.24096386,9,2,3,,,,,,,,7,05,,,,,,,,,,,7,2.294,1,,,,,,0.125,-0.4140625,1,0,0,2.2938,Peridotite_rect,2,0,2,0,1,
65761328646d5bb2adf235d4,TCR,2024-06-25_13h23.12.302,LearnStrategy,2023.2.3,Win32,60.24096386,9,2,4,,,,,,,,8,05,,,,,,,,,,,8,1.364,1,,,,,,0.420572917,-0.381510417,1,0,0,1.3644,Pumice_rect,3,0,3,0,1,
65761328646d5bb2adf235d4,TCR,2024-06-25_13h23.12.302,LearnStrategy,2023.2.3,Win32,60.24096386,9,2,5,,,,,,,,1,16,,,,,,,,,,,1,6.106,1,,,,,,-0.404947917,-0.233072917,1,0,0,6.1059,Andesite_rect,4,0,4,0,1,
65761328646d5bb2adf235d4,TCR,2024-06-25_13h23.12.302,LearnStrategy,2023.2.3,Win32,60.24096386,9,2,6,,,,,,,,3,15,,,,,,,,,,,4,2.473,0,,,,,,0.401041667,-0.256510417,1,0,0,2.4733,Gabbro_rect,5,0,5,0,1,
65761328646d5bb2adf235d4,TCR,2024-06-25_13h23.12.302,LearnStrategy,2023.2.3,Win32,60.24096386,9,2,7,,,,,,,,4,09,,,,,,,,,,,4,3.38,1,,,,,,0.419270833,-0.265625,1,0,0,3.3799,Gabbro_rect,6,0,6,0,1,
65761328646d5bb2adf235d4,TCR,2024-06-25_13h23.12.302,LearnStrategy,2023.2.3,Win32,60.24096386,9,2,8,,,,,,,,1,03,,,,,,,,,,,1,1.214,1,,,,,,-0.3671875,-0.263020833,1,0,0,1.2142,Andesite_rect,7,0,7,0,1,
65761328646d5bb2adf235d4,TCR,2024-06-25_13h23.12.302,LearnStrategy,2023.2.3,Win32,60.24096386,9,2,9,,,,,,,,8,16,,,,,,,,,,,8,1.585,1,,,,,,0.3828125,-0.385416667,1,0,0,1.5851,Pumice_rect,8,0,8,0,1,
65761328646d5bb2adf235d4,TCR,2024-06-25_13h23.12.302,LearnStrategy,2023.2.3,Win32,60.24096386,9,2,10,,,,,,,,5,14,,,,,,,,,,,5,1.718,1,,,,,,-0.375,-0.40234375,1,0,0,1.7181,Obsidian_rect,9,0,9,0,1,
65761328646d5bb2adf235d4,TCR,2024-06-25_13h23.12.302,LearnStrategy,2023.2.3,Win32,60.24096386,9,2,11,,,,,,,,6,16,,,,,,,,,,,6,1.686,1,,,,,,-0.141927083,-0.403645833,1,0,0,1.6862,Pegmatite_rect,10,0,10,0,1,
65761328646d5bb2adf235d4,TCR,2024-06-25_13h23.12.302,LearnStrategy,2023.2.3,Win32,60.24096386,9,2,12,,,,,,,,4,11,,,,,,,,,,,2,1.676,0,,,,,,-0.126302083,-0.243489583,1,0,0,1.6759,Basalt_rect,11,0,11,0,1,
65761328646d5bb2adf235d4,TCR,2024-06-25_13h23.12.302,LearnStrategy,2023.2.3,Win32,60.24096386,9,2,13,,,,,,,,5,10,,,,,,,,,,,5,1.564,1,,,,,,-0.38671875,-0.4140625,1,0,0,1.5644,Obsidian_rect,12,0,12,0,1,
65761328646d5bb2adf235d4,TCR,2024-06-25_13h23.12.302,LearnStrategy,2023.2.3,Win32,60.24096386,9,2,14,,,,,,,,2,12,,,,,,,,,,,8,8.111,0,,,,,,0.34375,-0.40625,1,0,0,8.1108,Pumice_rect,13,0,13,0,1,
65761328646d5bb2adf235d4,TCR,2024-06-25_13h23.12.302,LearnStrategy,2023.2.3,Win32,60.24096386,9,2,15,,,,,,,,7,12,,,,,,,,,,,7,1.686,1,,,,,,0.075520833,-0.39453125,1,0,0,1.6859,Peridotite_rect,14,0,14,0,1,
65761328646d5bb2adf235d4,TCR,2024-06-25_13h23.12.302,LearnStrategy,2023.2.3,Win32,60.24096386,9,2,16,,,,,,,,2,01,,,,,,,,,,,2,1.696,1,,,,,,-0.08984375,-0.229166667,1,0,0,1.6961,Basalt_rect,15,0,15,0,1,
65761328646d5bb2adf235d4,TCR,2024-06-25_13h23.12.302,LearnStrategy,2023.2.3,Win32,60.24096386,,,,,,,,,,,,,,,,,,,,,,,,,,,,,,,,,,,,,,,,,,,1
65761328646d5bb2adf235d4,TCR,2024-06-25_13h23.12.302,LearnStrategy,2023.2.3,Win32,60.24096386,,,,,,,,,,,,,,,,,,,,,,,,,,,,,,,,,,,,,,,,,,,
65761328646d5bb2adf235d4,TCR,2024-06-25_13h23.12.302,LearnStrategy,2023.2.3,Win32,60.24096386,,,,,,,,,,,8,08,1,1,,,,,,,,,,,,,,,,,,,,,,,,,,,,,
65761328646d5bb2adf235d4,TCR,2024-06-25_13h23.12.302,LearnStrategy,2023.2.3,Win32,60.24096386,,,,,,,,,,,8,14,1,2,,,,,,,,,,,,,,,,,,,,,,,,,,,,,
65761328646d5bb2adf235d4,TCR,2024-06-25_13h23.12.302,LearnStrategy,2023.2.3,Win32,60.24096386,,,,,,,,,,,6,07,1,3,,,,,,,,,,,,,,,,,,,,,,,,,,,,,
65761328646d5bb2adf235d4,TCR,2024-06-25_13h23.12.302,LearnStrategy,2023.2.3,Win32,60.24096386,,,,,,,,,,,7,06,1,4,,,,,,,,,,,,,,,,,,,,,,,,,,,,,
65761328646d5bb2adf235d4,TCR,2024-06-25_13h23.12.302,LearnStrategy,2023.2.3,Win32,60.24096386,,,,,,,,,,,4,08,1,5,,,,,,,,,,,,,,,,,,,,,,,,,,,,,
65761328646d5bb2adf235d4,TCR,2024-06-25_13h23.12.302,LearnStrategy,2023.2.3,Win32,60.24096386,,,,,,,,,,,1,06,1,6,,,,,,,,,,,,,,,,,,,,,,,,,,,,,
65761328646d5bb2adf235d4,TCR,2024-06-25_13h23.12.302,LearnStrategy,2023.2.3,Win32,60.24096386,,,,,,,,,,,8,06,1,7,,,,,,,,,,,,,,,,,,,,,,,,,,,,,
65761328646d5bb2adf235d4,TCR,2024-06-25_13h23.12.302,LearnStrategy,2023.2.3,Win32,60.24096386,,,,,,,,,,,4,16,1,8,,,,,,,,,,,,,,,,,,,,,,,,,,,,,
65761328646d5bb2adf235d4,TCR,2024-06-25_13h23.12.302,LearnStrategy,2023.2.3,Win32,60.24096386,,,,,,,,,,,4,03,2,1,,,,,,,,,,,,,,,,,,,,,,,,,,,,,
65761328646d5bb2adf235d4,TCR,2024-06-25_13h23.12.302,LearnStrategy,2023.2.3,Win32,60.24096386,,,,,,,,,,,7,07,2,2,,,,,,,,,,,,,,,,,,,,,,,,,,,,,
65761328646d5bb2adf235d4,TCR,2024-06-25_13h23.12.302,LearnStrategy,2023.2.3,Win32,60.24096386,,,,,,,,,,,8,09,2,3,,,,,,,,,,,,,,,,,,,,,,,,,,,,,
65761328646d5bb2adf235d4,TCR,2024-06-25_13h23.12.302,LearnStrategy,2023.2.3,Win32,60.24096386,,,,,,,,,,,5,04,2,4,,,,,,,,,,,,,,,,,,,,,,,,,,,,,
65761328646d5bb2adf235d4,TCR,2024-06-25_13h23.12.302,LearnStrategy,2023.2.3,Win32,60.24096386,,,,,,,,,,,6,13,2,5,,,,,,,,,,,,,,,,,,,,,,,,,,,,,
65761328646d5bb2adf235d4,TCR,2024-06-25_13h23.12.302,LearnStrategy,2023.2.3,Win32,60.24096386,,,,,,,,,,,8,10,2,6,,,,,,,,,,,,,,,,,,,,,,,,,,,,,
65761328646d5bb2adf235d4,TCR,2024-06-25_13h23.12.302,LearnStrategy,2023.2.3,Win32,60.24096386,,,,,,,,,,,2,09,2,7,,,,,,,,,,,,,,,,,,,,,,,,,,,,,
65761328646d5bb2adf235d4,TCR,2024-06-25_13h23.12.302,LearnStrategy,2023.2.3,Win32,60.24096386,,,,,,,,,,,2,10,2,8,,,,,,,,,,,,,,,,,,,,,,,,,,,,,
65761328646d5bb2adf235d4,TCR,2024-06-25_13h23.12.302,LearnStrategy,2023.2.3,Win32,60.24096386,,,,,,,,,,,7,10,3,1,,,,,,,,,,,,,,,,,,,,,,,,,,,,,
65761328646d5bb2adf235d4,TCR,2024-06-25_13h23.12.302,LearnStrategy,2023.2.3,Win32,60.24096386,,,,,,,,,,,4,15,3,2,,,,,,,,,,,,,,,,,,,,,,,,,,,,,
65761328646d5bb2adf235d4,TCR,2024-06-25_13h23.12.302,LearnStrategy,2023.2.3,Win32,60.24096386,,,,,,,,,,,3,12,3,3,,,,,,,,,,,,,,,,,,,,,,,,,,,,,
65761328646d5bb2adf235d4,TCR,2024-06-25_13h23.12.302,LearnStrategy,2023.2.3,Win32,60.24096386,,,,,,,,,,,3,06,3,4,,,,,,,,,,,,,,,,,,,,,,,,,,,,,
65761328646d5bb2adf235d4,TCR,2024-06-25_13h23.12.302,LearnStrategy,2023.2.3,Win32,60.24096386,,,,,,,,,,,1,11,3,5,,,,,,,,,,,,,,,,,,,,,,,,,,,,,
65761328646d5bb2adf235d4,TCR,2024-06-25_13h23.12.302,LearnStrategy,2023.2.3,Win32,60.24096386,,,,,,,,,,,5,12,3,6,,,,,,,,,,,,,,,,,,,,,,,,,,,,,
65761328646d5bb2adf235d4,TCR,2024-06-25_13h23.12.302,LearnStrategy,2023.2.3,Win32,60.24096386,,,,,,,,,,,5,05,3,7,,,,,,,,,,,,,,,,,,,,,,,,,,,,,
65761328646d5bb2adf235d4,TCR,2024-06-25_13h23.12.302,LearnStrategy,2023.2.3,Win32,60.24096386,,,,,,,,,,,6,12,3,8,,,,,,,,,,,,,,,,,,,,,,,,,,,,,
65761328646d5bb2adf235d4,TCR,2024-06-25_13h23.12.302,LearnStrategy,2023.2.3,Win32,60.24096386,,,,,,,,,,,7,08,4,1,,,,,,,,,,,,,,,,,,,,,,,,,,,,,
65761328646d5bb2adf235d4,TCR,2024-06-25_13h23.12.302,LearnStrategy,2023.2.3,Win32,60.24096386,,,,,,,,,,,6,05,4,2,,,,,,,,,,,,,,,,,,,,,,,,,,,,,
65761328646d5bb2adf235d4,TCR,2024-06-25_13h23.12.302,LearnStrategy,2023.2.3,Win32,60.24096386,,,,,,,,,,,6,10,4,3,,,,,,,,,,,,,,,,,,,,,,,,,,,,,
65761328646d5bb2adf235d4,TCR,2024-06-25_13h23.12.302,LearnStrategy,2023.2.3,Win32,60.24096386,,,,,,,,,,,4,05,4,4,,,,,,,,,,,,,,,,,,,,,,,,,,,,,
65761328646d5bb2adf235d4,TCR,2024-06-25_13h23.12.302,LearnStrategy,2023.2.3,Win32,60.24096386,,,,,,,,,,,1,01,4,5,,,,,,,,,,,,,,,,,,,,,,,,,,,,,
65761328646d5bb2adf235d4,TCR,2024-06-25_13h23.12.302,LearnStrategy,2023.2.3,Win32,60.24096386,,,,,,,,,,,2,02,4,6,,,,,,,,,,,,,,,,,,,,,,,,,,,,,
65761328646d5bb2adf235d4,TCR,2024-06-25_13h23.12.302,LearnStrategy,2023.2.3,Win32,60.24096386,,,,,,,,,,,5,16,4,7,,,,,,,,,,,,,,,,,,,,,,,,,,,,,
65761328646d5bb2adf235d4,TCR,2024-06-25_13h23.12.302,LearnStrategy,2023.2.3,Win32,60.24096386,,,,,,,,,,,5,09,4,8,,,,,,,,,,,,,,,,,,,,,,,,,,,,,
65761328646d5bb2adf235d4,TCR,2024-06-25_13h23.12.302,LearnStrategy,2023.2.3,Win32,60.24096386,,,,,,,,,,,5,02,5,1,,,,,,,,,,,,,,,,,,,,,,,,,,,,,
65761328646d5bb2adf235d4,TCR,2024-06-25_13h23.12.302,LearnStrategy,2023.2.3,Win32,60.24096386,,,,,,,,,,,3,08,5,2,,,,,,,,,,,,,,,,,,,,,,,,,,,,,
65761328646d5bb2adf235d4,TCR,2024-06-25_13h23.12.302,LearnStrategy,2023.2.3,Win32,60.24096386,,,,,,,,,,,2,14,5,3,,,,,,,,,,,,,,,,,,,,,,,,,,,,,
65761328646d5bb2adf235d4,TCR,2024-06-25_13h23.12.302,LearnStrategy,2023.2.3,Win32,60.24096386,,,,,,,,,,,1,04,5,4,,,,,,,,,,,,,,,,,,,,,,,,,,,,,
65761328646d5bb2adf235d4,TCR,2024-06-25_13h23.12.302,LearnStrategy,2023.2.3,Win32,60.24096386,,,,,,,,,,,4,13,5,5,,,,,,,,,,,,,,,,,,,,,,,,,,,,,
65761328646d5bb2adf235d4,TCR,2024-06-25_13h23.12.302,LearnStrategy,2023.2.3,Win32,60.24096386,,,,,,,,,,,6,03,5,6,,,,,,,,,,,,,,,,,,,,,,,,,,,,,
65761328646d5bb2adf235d4,TCR,2024-06-25_13h23.12.302,LearnStrategy,2023.2.3,Win32,60.24096386,,,,,,,,,,,8,13,5,7,,,,,,,,,,,,,,,,,,,,,,,,,,,,,
65761328646d5bb2adf235d4,TCR,2024-06-25_13h23.12.302,LearnStrategy,2023.2.3,Win32,60.24096386,,,,,,,,,,,3,07,5,8,,,,,,,,,,,,,,,,,,,,,,,,,,,,,
65761328646d5bb2adf235d4,TCR,2024-06-25_13h23.12.302,LearnStrategy,2023.2.3,Win32,60.24096386,,,,,,,,,,,1,09,6,1,,,,,,,,,,,,,,,,,,,,,,,,,,,,,
65761328646d5bb2adf235d4,TCR,2024-06-25_13h23.12.302,LearnStrategy,2023.2.3,Win32,60.24096386,,,,,,,,,,,3,16,6,2,,,,,,,,,,,,,,,,,,,,,,,,,,,,,
65761328646d5bb2adf235d4,TCR,2024-06-25_13h23.12.302,LearnStrategy,2023.2.3,Win32,60.24096386,,,,,,,,,,,1,05,6,3,,,,,,,,,,,,,,,,,,,,,,,,,,,,,
65761328646d5bb2adf235d4,TCR,2024-06-25_13h23.12.302,LearnStrategy,2023.2.3,Win32,60.24096386,,,,,,,,,,,7,04,6,4,,,,,,,,,,,,,,,,,,,,,,,,,,,,,
65761328646d5bb2adf235d4,TCR,2024-06-25_13h23.12.302,LearnStrategy,2023.2.3,Win32,60.24096386,,,,,,,,,,,7,02,6,5,,,,,,,,,,,,,,,,,,,,,,,,,,,,,
65761328646d5bb2adf235d4,TCR,2024-06-25_13h23.12.302,LearnStrategy,2023.2.3,Win32,60.24096386,,,,,,,,,,,2,04,6,6,,,,,,,,,,,,,,,,,,,,,,,,,,,,,
65761328646d5bb2adf235d4,TCR,2024-06-25_13h23.12.302,LearnStrategy,2023.2.3,Win32,60.24096386,,,,,,,,,,,3,10,6,7,,,,,,,,,,,,,,,,,,,,,,,,,,,,,
65761328646d5bb2adf235d4,TCR,2024-06-25_13h23.12.302,LearnStrategy,2023.2.3,Win32,60.24096386,,,,,,,,,,,2,05,6,8,,,,,,,,,,,,,,,,,,,,,,,,,,,,,