participant,condition,date,expName,psychopyVersion,OS,frameRate,block,phase,trial,learn_mouse_2.x,learn_mouse_2.y,learn_mouse_2.leftButton,learn_mouse_2.midButton,learn_mouse_2.rightButton,learn_mouse_2.time,learn_mouse_2.clicked_name,cat,token,row,col,t_select,cat_mouse_l.x,cat_mouse_l.y,cat_mouse_l.leftButton,cat_mouse_l.midButton,cat_mouse_l.rightButton,cat_mouse_l.time,cat_mouse_l.clicked_name,resp,t_resp,corr,train_trials.thisRepN,train_trials.thisTrialN,train_trials.thisN,train_trials.thisIndex,train_trials.ran,cat_mouse_t.x,cat_mouse_t.y,cat_mouse_t.leftButton,cat_mouse_t.midButton,cat_mouse_t.rightButton,cat_mouse_t.time,cat_mouse_t.clicked_name,test_trials.thisRepN,test_trials.thisTrialN,test_trials.thisN,test_trials.thisIndex,test_trials.ran,Bonus
657f8b138be1350284dfe854,TCN,2024-06-25_19h16.32.957,LearnStrategy,2023.2.3,Win32,60.24096386,,,,,,,,,,,,,,,,,,,,,,,,,,,,,,,,,,,,,,,,,,,
657f8b138be1350284dfe854,TCN,2024-06-25_19h16.32.957,LearnStrategy,2023.2.3,Win32,60.24096386,1,1,1,0.057291667,-0.005208333,1,0,0,20.6186,rock_grid_rect_2,3,10,-1,-1,20.619,-0.123697917,-0.243489583,1,0,0,41.8303,Basalt_rect,2,41.83,0,0,0,0,0,1,,,,,,,,,,,,,
657f8b138be1350284dfe854,TCN,2024-06-25_19h16.32.957,LearnStrategy,2023.2.3,Win32,60.24096386,1,1,2,0.033854167,-0.001302083,1,0,0,1.6209,rock_grid_rect_2,2,12,-1,-1,1.621,0.33984375,-0.37890625,1,0,0,2.5441,Pumice_rect,8,2.544,0,1,0,1,0,1,,,,,,,,,,,,,
657f8b138be1350284dfe854,TCN,2024-06-25_19h16.32.957,LearnStrategy,2023.2.3,Win32,60.24096386,1,1,3,0.075520833,-0.010416667,1,0,0,2.3462,rock_grid_rect_2,8,05,-1,-1,2.346,0.333333333,-0.244791667,1,0,0,5.9099,Gabbro_rect,4,5.91,0,2,0,2,0,1,,,,,,,,,,,,,
657f8b138be1350284dfe854,TCN,2024-06-25_19h16.32.957,LearnStrategy,2023.2.3,Win32,60.24096386,1,1,4,0.029947917,-0.001302083,1,0,0,1.3306,rock_grid_rect_2,5,14,-1,-1,1.331,0.393229167,-0.2578125,1,0,0,4.5203,Gabbro_rect,4,4.52,0,3,0,3,0,1,,,,,,,,,,,,,
657f8b138be1350284dfe854,TCN,2024-06-25_19h16.32.957,LearnStrategy,2023.2.3,Win32,60.24096386,1,1,5,0.01953125,0.001302083,1,0,0,2.1976,rock_grid_rect_2,4,13,-1,-1,2.198,-0.32421875,-0.256510417,1,0,0,7.5094,Andesite_rect,1,7.509,0,4,0,4,0,1,,,,,,,,,,,,,
657f8b138be1350284dfe854,TCN,2024-06-25_19h16.32.957,LearnStrategy,2023.2.3,Win32,60.24096386,1,1,6,0,0.006510417,1,0,0,1.2963,rock_grid_rect_2,7,10,-1,-1,1.296,-0.114583333,-0.397135417,1,0,0,9.0786,Pegmatite_rect,6,9.079,0,5,0,5,0,1,,,,,,,,,,,,,
657f8b138be1350284dfe854,TCN,2024-06-25_19h16.32.957,LearnStrategy,2023.2.3,Win32,60.24096386,1,1,7,-0.026041667,0.006510417,1,0,0,1.2133,rock_grid_rect_2,6,13,-1,-1,1.213,-0.095052083,-0.403645833,1,0,0,2.523,Pegmatite_rect,6,2.523,1,6,0,6,0,1,,,,,,,,,,,,,
657f8b138be1350284dfe854,TCN,2024-06-25_19h16.32.957,LearnStrategy,2023.2.3,Win32,60.24096386,1,1,8,-0.033854167,0.01171875,1,0,0,1.9631,rock_grid_rect_2,1,09,-1,-1,1.963,-0.338541667,-0.2578125,1,0,0,14.2691,Andesite_rect,1,14.269,1,7,0,7,0,1,,,,,,,,,,,,,
657f8b138be1350284dfe854,TCN,2024-06-25_19h16.32.957,LearnStrategy,2023.2.3,Win32,60.24096386,1,1,9,-0.033854167,0.018229167,1,0,0,1.4302,rock_grid_rect_2,1,10,-1,-1,1.43,-0.09375,-0.263020833,1,0,0,9.0179,Basalt_rect,2,9.018,0,8,0,8,0,1,,,,,,,,,,,,,
657f8b138be1350284dfe854,TCN,2024-06-25_19h16.32.957,LearnStrategy,2023.2.3,Win32,60.24096386,1,1,10,-0.123697917,0.013020833,1,0,0,2.147,rock_grid_rect_2,7,05,-1,-1,2.147,-0.368489583,-0.393229167,1,0,0,3.3688,Obsidian_rect,5,3.369,0,9,0,9,0,1,,,,,,,,,,,,,
657f8b138be1350284dfe854,TCN,2024-06-25_19h16.32.957,LearnStrategy,2023.2.3,Win32,60.24096386,1,1,11,0.020833333,0.018229167,1,0,0,1.7886,rock_grid_rect_2,2,01,-1,-1,1.789,0.337239583,-0.393229167,1,0,0,3.9456,Pumice_rect,8,3.946,0,10,0,10,0,1,,,,,,,,,,,,,
657f8b138be1350284dfe854,TCN,2024-06-25_19h16.32.957,LearnStrategy,2023.2.3,Win32,60.24096386,1,1,12,0.041666667,-0.005208333,1,0,0,1.9375,rock_grid_rect_2,8,10,-1,-1,1.938,0.37890625,-0.260416667,1,0,0,2.944,Gabbro_rect,4,2.944,0,11,0,11,0,1,,,,,,,,,,,,,
657f8b138be1350284dfe854,TCN,2024-06-25_19h16.32.957,LearnStrategy,2023.2.3,Win32,60.24096386,1,1,13,-0.05859375,0.002604167,1,0,0,1.3209,rock_grid_rect_2,3,06,-1,-1,1.321,-0.158854167,-0.37890625,1,0,0,2.1452,Pegmatite_rect,6,2.145,0,12,0,12,0,1,,,,,,,,,,,,,
657f8b138be1350284dfe854,TCN,2024-06-25_19h16.32.957,LearnStrategy,2023.2.3,Win32,60.24096386,1,1,14,0.045572917,-0.009114583,1,0,0,1.1641,rock_grid_rect_2,6,12,-1,-1,1.164,-0.341145833,-0.380208333,1,0,0,4.8437,Obsidian_rect,5,4.844,0,13,0,13,0,1,,,,,,,,,,,,,
657f8b138be1350284dfe854,TCN,2024-06-25_19h16.32.957,LearnStrategy,2023.2.3,Win32,60.24096386,1,1,15,-0.006510417,0.0078125,1,0,0,1.5641,rock_grid_rect_2,5,11,-1,-1,1.564,-0.34765625,-0.38671875,1,0,0,3.4754,Obsidian_rect,5,3.475,1,14,0,14,0,1,,,,,,,,,,,,,
657f8b138be1350284dfe854,TCN,2024-06-25_19h16.32.957,LearnStrategy,2023.2.3,Win32,60.24096386,1,1,16,-0.002604167,-0.00390625,1,0,0,1.5469,rock_grid_rect_2,4,11,-1,-1,1.547,-0.084635417,-0.259114583,1,0,0,4.6092,Basalt_rect,2,4.609,0,15,0,15,0,1,,,,,,,,,,,,,
657f8b138be1350284dfe854,TCN,2024-06-25_19h16.32.957,LearnStrategy,2023.2.3,Win32,60.24096386,1,2,1,,,,,,,,6,08,,,,,,,,,,,3,222.207,0,,,,,,0.076822917,-0.263020833,1,0,0,222.2072,Diorite_rect,0,0,0,0,1,
657f8b138be1350284dfe854,TCN,2024-06-25_19h16.32.957,LearnStrategy,2023.2.3,Win32,60.24096386,1,2,2,,,,,,,,7,13,,,,,,,,,,,7,40.631,1,,,,,,0.151041667,-0.399739583,1,0,0,40.6314,Peridotite_rect,1,0,1,0,1,
657f8b138be1350284dfe854,TCN,2024-06-25_19h16.32.957,LearnStrategy,2023.2.3,Win32,60.24096386,1,2,3,,,,,,,,1,16,,,,,,,,,,,4,9.292,0,,,,,,0.341145833,-0.255208333,1,0,0,9.2919,Gabbro_rect,2,0,2,0,1,
657f8b138be1350284dfe854,TCN,2024-06-25_19h16.32.957,LearnStrategy,2023.2.3,Win32,60.24096386,1,2,4,,,,,,,,3,09,,,,,,,,,,,3,3.935,1,,,,,,0.084635417,-0.235677083,1,0,0,3.9352,Diorite_rect,3,0,3,0,1,
657f8b138be1350284dfe854,TCN,2024-06-25_19h16.32.957,LearnStrategy,2023.2.3,Win32,60.24096386,1,2,5,,,,,,,,4,09,,,,,,,,,,,1,9.274,0,,,,,,-0.372395833,-0.244791667,1,0,0,9.2742,Andesite_rect,4,0,4,0,1,
657f8b138be1350284dfe854,TCN,2024-06-25_19h16.32.957,LearnStrategy,2023.2.3,Win32,60.24096386,1,2,6,,,,,,,,2,05,,,,,,,,,,,5,13.883,0,,,,,,-0.328125,-0.407552083,1,0,0,13.8829,Obsidian_rect,5,0,5,0,1,
657f8b138be1350284dfe854,TCN,2024-06-25_19h16.32.957,LearnStrategy,2023.2.3,Win32,60.24096386,1,2,7,,,,,,,,8,03,,,,,,,,,,,6,20.141,0,,,,,,-0.106770833,-0.408854167,1,0,0,20.1407,Pegmatite_rect,6,0,6,0,1,
657f8b138be1350284dfe854,TCN,2024-06-25_19h16.32.957,LearnStrategy,2023.2.3,Win32,60.24096386,1,2,8,,,,,,,,1,01,,,,,,,,,,,4,7.776,0,,,,,,0.42578125,-0.251302083,1,0,0,7.7757,Gabbro_rect,7,0,7,0,1,
657f8b138be1350284dfe854,TCN,2024-06-25_19h16.32.957,LearnStrategy,2023.2.3,Win32,60.24096386,1,2,9,,,,,,,,8,02,,,,,,,,,,,3,10.358,0,,,,,,0.135416667,-0.256510417,1,0,0,10.3577,Diorite_rect,8,0,8,0,1,
657f8b138be1350284dfe854,TCN,2024-06-25_19h16.32.957,LearnStrategy,2023.2.3,Win32,60.24096386,1,2,10,,,,,,,,3,07,,,,,,,,,,,3,3.667,1,,,,,,0.135416667,-0.256510417,1,0,0,3.6672,Diorite_rect,9,0,9,0,1,
657f8b138be1350284dfe854,TCN,2024-06-25_19h16.32.957,LearnStrategy,2023.2.3,Win32,60.24096386,1,2,11,,,,,,,,5,09,,,,,,,,,,,5,9.09,1,,,,,,-0.372395833,-0.407552083,1,0,0,9.0904,Obsidian_rect,10,0,10,0,1,
657f8b138be1350284dfe854,TCN,2024-06-25_19h16.32.957,LearnStrategy,2023.2.3,Win32,60.24096386,1,2,12,,,,,,,,5,06,,,,,,,,,,,5,1.626,1,,,,,,-0.342447917,-0.40625,1,0,0,1.626,Obsidian_rect,11,0,11,0,1,
657f8b138be1350284dfe854,TCN,2024-06-25_19h16.32.957,LearnStrategy,2023.2.3,Win32,60.24096386,1,2,13,,,,,,,,2,08,,,,,,,,,,,2,10.718,1,,,,,,-0.130208333,-0.260416667,1,0,0,10.7179,Basalt_rect,12,0,12,0,1,
657f8b138be1350284dfe854,TCN,2024-06-25_19h16.32.957,LearnStrategy,2023.2.3,Win32,60.24096386,1,2,14,,,,,,,,6,07,,,,,,,,,,,6,7.416,1,,,,,,-0.131510417,-0.38671875,1,0,0,7.416,Pegmatite_rect,13,0,13,0,1,
657f8b138be1350284dfe854,TCN,2024-06-25_19h16.32.957,LearnStrategy,2023.2.3,Win32,60.24096386,1,2,15,,,,,,,,7,06,,,,,,,,,,,6,2.426,0,,,,,,-0.092447917,-0.403645833,1,0,0,2.4257,Pegmatite_rect,14,0,14,0,1,
657f8b138be1350284dfe854,TCN,2024-06-25_19h16.32.957,LearnStrategy,2023.2.3,Win32,60.24096386,1,2,16,,,,,,,,4,10,,,,,,,,,,,1,13.075,0,,,,,,-0.361979167,-0.25390625,1,0,0,13.0747,Andesite_rect,15,0,15,0,1,
657f8b138be1350284dfe854,TCN,2024-06-25_19h16.32.957,LearnStrategy,2023.2.3,Win32,60.24096386,2,1,1,0.01953125,0.0078125,1,0,0,2.6182,rock_grid_rect_2,4,08,-1,-1,2.618,-0.131510417,-0.244791667,1,0,0,15.2014,Basalt_rect,2,15.201,0,0,0,0,0,1,,,,,,,,,,,,,
657f8b138be1350284dfe854,TCN,2024-06-25_19h16.32.957,LearnStrategy,2023.2.3,Win32,60.24096386,2,1,2,0.05078125,0.001302083,1,0,0,1.5459,rock_grid_rect_2,1,07,-1,-1,1.546,0.134114583,-0.393229167,1,0,0,8.4295,Peridotite_rect,7,8.429,0,1,0,1,0,1,,,,,,,,,,,,,
657f8b138be1350284dfe854,TCN,2024-06-25_19h16.32.957,LearnStrategy,2023.2.3,Win32,60.24096386,2,1,3,-0.026041667,0.001302083,1,0,0,1.1626,rock_grid_rect_2,8,13,-1,-1,1.163,0.404947917,-0.399739583,1,0,0,4.814,Pumice_rect,8,4.814,1,2,0,2,0,1,,,,,,,,,,,,,
657f8b138be1350284dfe854,TCN,2024-06-25_19h16.32.957,LearnStrategy,2023.2.3,Win32,60.24096386,2,1,4,-0.015625,-0.014322917,1,0,0,1.7899,rock_grid_rect_2,6,09,-1,-1,1.79,-0.369791667,-0.395833333,1,0,0,18.1085,Obsidian_rect,5,18.109,0,3,0,3,0,1,,,,,,,,,,,,,
657f8b138be1350284dfe854,TCN,2024-06-25_19h16.32.957,LearnStrategy,2023.2.3,Win32,60.24096386,2,1,5,0.075520833,-0.006510417,1,0,0,1.3061,rock_grid_rect_2,8,09,-1,-1,1.306,0.364583333,-0.399739583,1,0,0,2.06,Pumice_rect,8,2.06,1,4,0,4,0,1,,,,,,,,,,,,,
657f8b138be1350284dfe854,TCN,2024-06-25_19h16.32.957,LearnStrategy,2023.2.3,Win32,60.24096386,2,1,6,-0.014322917,-0.0234375,1,0,0,1.3538,rock_grid_rect_2,3,11,-1,-1,1.354,0.088541667,-0.395833333,0,0,1,7.0975,Peridotite_rect,7,7.097,0,5,0,5,0,1,,,,,,,,,,,,,
657f8b138be1350284dfe854,TCN,2024-06-25_19h16.32.957,LearnStrategy,2023.2.3,Win32,60.24096386,2,1,7,0.01171875,-0.00390625,1,0,0,1.2442,rock_grid_rect_2,4,16,-1,-1,1.244,-0.087239583,-0.252604167,1,0,0,5.9519,Basalt_rect,2,5.952,0,6,0,6,0,1,,,,,,,,,,,,,
657f8b138be1350284dfe854,TCN,2024-06-25_19h16.32.957,LearnStrategy,2023.2.3,Win32,60.24096386,2,1,8,-0.014322917,0.006510417,1,0,0,11.7162,rock_grid_rect_2,2,04,-1,-1,11.716,-0.338541667,-0.26171875,1,0,0,2.329,Andesite_rect,1,2.329,0,7,0,7,0,1,,,,,,,,,,,,,
657f8b138be1350284dfe854,TCN,2024-06-25_19h16.32.957,LearnStrategy,2023.2.3,Win32,60.24096386,2,1,9,0.045572917,-0.006510417,1,0,0,1.3374,rock_grid_rect_2,7,12,-1,-1,1.337,0.3046875,-0.259114583,1,0,0,4.1189,Gabbro_rect,4,4.119,0,8,0,8,0,1,,,,,,,,,,,,,
657f8b138be1350284dfe854,TCN,2024-06-25_19h16.32.957,LearnStrategy,2023.2.3,Win32,60.24096386,2,1,10,0.100260417,0.015625,1,0,0,1.3896,rock_grid_rect_2,6,11,-1,-1,1.39,-0.096354167,-0.388020833,1,0,0,7.5424,Pegmatite_rect,6,7.542,1,9,0,9,0,1,,,,,,,,,,,,,
657f8b138be1350284dfe854,TCN,2024-06-25_19h16.32.957,LearnStrategy,2023.2.3,Win32,60.24096386,2,1,11,0.014322917,0.014322917,1,0,0,1.2633,rock_grid_rect_2,3,15,-1,-1,1.263,0.083333333,-0.403645833,1,0,0,13.521,Peridotite_rect,7,13.521,0,10,0,10,0,1,,,,,,,,,,,,,
657f8b138be1350284dfe854,TCN,2024-06-25_19h16.32.957,LearnStrategy,2023.2.3,Win32,60.24096386,2,1,12,-0.026041667,-0.005208333,1,0,0,6.8635,rock_grid_rect_2,5,16,-1,-1,6.863,-0.065104167,-0.240885417,1,0,0,1.4427,Basalt_rect,2,1.443,0,11,0,11,0,1,,,,,,,,,,,,,
657f8b138be1350284dfe854,TCN,2024-06-25_19h16.32.957,LearnStrategy,2023.2.3,Win32,60.24096386,2,1,13,0.028645833,-0.005208333,1,0,0,1.4068,rock_grid_rect_2,2,14,-1,-1,1.407,0.330729167,-0.384114583,1,0,0,2.6933,Pumice_rect,8,2.693,0,12,0,12,0,1,,,,,,,,,,,,,
657f8b138be1350284dfe854,TCN,2024-06-25_19h16.32.957,LearnStrategy,2023.2.3,Win32,60.24096386,2,1,14,0.013020833,-0.013020833,1,0,0,1.1548,rock_grid_rect_2,1,05,-1,-1,1.155,0.454427083,-0.26171875,1,0,0,3.5799,Gabbro_rect,4,3.58,0,13,0,13,0,1,,,,,,,,,,,,,
657f8b138be1350284dfe854,TCN,2024-06-25_19h16.32.957,LearnStrategy,2023.2.3,Win32,60.24096386,2,1,15,0.05078125,-0.00390625,1,0,0,1.5938,rock_grid_rect_2,5,05,-1,-1,1.594,-0.403645833,-0.416666667,1,0,0,2.9093,Obsidian_rect,5,2.909,1,14,0,14,0,1,,,,,,,,,,,,,
657f8b138be1350284dfe854,TCN,2024-06-25_19h16.32.957,LearnStrategy,2023.2.3,Win32,60.24096386,2,1,16,0.001302083,-0.015625,1,0,0,1.5706,rock_grid_rect_2,7,08,-1,-1,1.571,0.083333333,-0.381510417,1,0,0,1.9865,Peridotite_rect,7,1.986,1,15,0,15,0,1,,,,,,,,,,,,,
657f8b138be1350284dfe854,TCN,2024-06-25_19h16.32.957,LearnStrategy,2023.2.3,Win32,60.24096386,2,2,1,,,,,,,,2,06,,,,,,,,,,,2,3.172,1,,,,,,-0.130208333,-0.243489583,1,0,0,3.1715,Basalt_rect,0,0,0,0,1,
657f8b138be1350284dfe854,TCN,2024-06-25_19h16.32.957,LearnStrategy,2023.2.3,Win32,60.24096386,2,2,2,,,,,,,,5,02,,,,,,,,,,,5,1.758,1,,,,,,-0.368489583,-0.37890625,1,0,0,1.7585,Obsidian_rect,1,0,1,0,1,
657f8b138be1350284dfe854,TCN,2024-06-25_19h16.32.957,LearnStrategy,2023.2.3,Win32,60.24096386,2,2,3,,,,,,,,6,10,,,,,,,,,,,6,10.693,1,,,,,,-0.095052083,-0.40625,1,0,0,10.6928,Pegmatite_rect,2,0,2,0,1,
657f8b138be1350284dfe854,TCN,2024-06-25_19h16.32.957,LearnStrategy,2023.2.3,Win32,60.24096386,2,2,4,,,,,,,,3,16,,,,,,,,,,,3,4.803,1,,,,,,0.096354167,-0.26953125,1,0,0,4.8025,Diorite_rect,3,0,3,0,1,
657f8b138be1350284dfe854,TCN,2024-06-25_19h16.32.957,LearnStrategy,2023.2.3,Win32,60.24096386,2,2,5,,,,,,,,4,14,,,,,,,,,,,2,6.452,0,,,,,,-0.170572917,-0.248697917,1,0,0,6.452,Basalt_rect,4,0,4,0,1,
657f8b138be1350284dfe854,TCN,2024-06-25_19h16.32.957,LearnStrategy,2023.2.3,Win32,60.24096386,2,2,6,,,,,,,,7,16,,,,,,,,,,,4,7.002,0,,,,,,0.365885417,-0.235677083,1,0,0,7.0017,Gabbro_rect,5,0,5,0,1,
657f8b138be1350284dfe854,TCN,2024-06-25_19h16.32.957,LearnStrategy,2023.2.3,Win32,60.24096386,2,2,7,,,,,,,,8,14,,,,,,,,,,,8,1.817,1,,,,,,0.37890625,-0.393229167,1,0,0,1.8174,Pumice_rect,6,0,6,0,1,
657f8b138be1350284dfe854,TCN,2024-06-25_19h16.32.957,LearnStrategy,2023.2.3,Win32,60.24096386,2,2,8,,,,,,,,2,16,,,,,,,,,,,2,3.292,1,,,,,,-0.209635417,-0.248697917,1,0,0,3.2924,Basalt_rect,7,0,7,0,1,
657f8b138be1350284dfe854,TCN,2024-06-25_19h16.32.957,LearnStrategy,2023.2.3,Win32,60.24096386,2,2,9,,,,,,,,5,10,,,,,,,,,,,5,1.342,1,,,,,,-0.38671875,-0.384114583,1,0,0,1.3417,Obsidian_rect,8,0,8,0,1,
657f8b138be1350284dfe854,TCN,2024-06-25_19h16.32.957,LearnStrategy,2023.2.3,Win32,60.24096386,2,2,10,,,,,,,,4,03,,,,,,,,,,,4,3.826,1,,,,,,0.384114583,-0.229166667,1,0,0,3.8263,Gabbro_rect,9,0,9,0,1,
657f8b138be1350284dfe854,TCN,2024-06-25_19h16.32.957,LearnStrategy,2023.2.3,Win32,60.24096386,2,2,11,,,,,,,,3,02,,,,,,,,,,,3,4.943,1,,,,,,0.170572917,-0.25390625,1,0,0,4.9431,Diorite_rect,10,0,10,0,1,
657f8b138be1350284dfe854,TCN,2024-06-25_19h16.32.957,LearnStrategy,2023.2.3,Win32,60.24096386,2,2,12,,,,,,,,1,11,,,,,,,,,,,1,17.292,1,,,,,,-0.313802083,-0.231770833,1,0,0,17.2921,Andesite_rect,11,0,11,0,1,
657f8b138be1350284dfe854,TCN,2024-06-25_19h16.32.957,LearnStrategy,2023.2.3,Win32,60.24096386,2,2,13,,,,,,,,6,03,,,,,,,,,,,6,5.809,1,,,,,,-0.08203125,-0.411458333,1,0,0,5.8088,Pegmatite_rect,12,0,12,0,1,
657f8b138be1350284dfe854,TCN,2024-06-25_19h16.32.957,LearnStrategy,2023.2.3,Win32,60.24096386,2,2,14,,,,,,,,1,06,,,,,,,,,,,3,4.176,0,,,,,,0.173177083,-0.270833333,1,0,0,4.1762,Diorite_rect,13,0,13,0,1,
657f8b138be1350284dfe854,TCN,2024-06-25_19h16.32.957,LearnStrategy,2023.2.3,Win32,60.24096386,2,2,15,,,,,,,,7,07,,,,,,,,,,,7,5.585,1,,,,,,0.067708333,-0.380208333,1,0,0,5.5852,Peridotite_rect,14,0,14,0,1,
657f8b138be1350284dfe854,TCN,2024-06-25_19h16.32.957,LearnStrategy,2023.2.3,Win32,60.24096386,2,2,16,,,,,,,,8,15,,,,,,,,,,,8,1.926,1,,,,,,0.319010417,-0.401041667,1,0,0,1.9255,Pumice_rect,15,0,15,0,1,
657f8b138be1350284dfe854,TCN,2024-06-25_19h16.32.957,LearnStrategy,2023.2.3,Win32,60.24096386,3,1,1,0.033854167,0.016927083,1,0,0,2.4313,rock_grid_rect_2,1,03,-1,-1,2.431,-0.149739583,-0.240885417,1,0,0,5.8917,Basalt_rect,2,5.892,0,0,0,0,0,1,,,,,,,,,,,,,
657f8b138be1350284dfe854,TCN,2024-06-25_19h16.32.957,LearnStrategy,2023.2.3,Win32,60.24096386,3,1,2,-0.072916667,-0.020833333,1,0,0,1.5379,rock_grid_rect_2,7,14,-1,-1,1.538,0.130208333,-0.37890625,1,0,0,1.946,Peridotite_rect,7,1.946,1,1,0,1,0,1,,,,,,,,,,,,,
657f8b138be1350284dfe854,TCN,2024-06-25_19h16.32.957,LearnStrategy,2023.2.3,Win32,60.24096386,3,1,3,-0.041666667,-0.013020833,1,0,0,1.6877,rock_grid_rect_2,1,04,-1,-1,1.688,0.075520833,-0.235677083,1,0,0,2.02,Diorite_rect,3,2.02,0,2,0,2,0,1,,,,,,,,,,,,,
657f8b138be1350284dfe854,TCN,2024-06-25_19h16.32.957,LearnStrategy,2023.2.3,Win32,60.24096386,3,1,4,-0.095052083,-0.013020833,1,0,0,1.3813,rock_grid_rect_2,3,13,-1,-1,1.381,-0.127604167,-0.404947917,1,0,0,2.5284,Pegmatite_rect,6,2.528,0,3,0,3,0,1,,,,,,,,,,,,,
657f8b138be1350284dfe854,TCN,2024-06-25_19h16.32.957,LearnStrategy,2023.2.3,Win32,60.24096386,3,1,5,0.048177083,0.01953125,1,0,0,1.0644,rock_grid_rect_2,8,16,-1,-1,1.064,0.397135417,-0.401041667,1,0,0,3.7427,Pumice_rect,8,3.743,1,4,0,4,0,1,,,,,,,,,,,,,
657f8b138be1350284dfe854,TCN,2024-06-25_19h16.32.957,LearnStrategy,2023.2.3,Win32,60.24096386,3,1,6,0.014322917,-0.0078125,1,0,0,1.2473,rock_grid_rect_2,5,12,-1,-1,1.247,-0.377604167,-0.384114583,1,0,0,2.1938,Obsidian_rect,5,2.194,1,5,0,5,0,1,,,,,,,,,,,,,
657f8b138be1350284dfe854,TCN,2024-06-25_19h16.32.957,LearnStrategy,2023.2.3,Win32,60.24096386,3,1,7,0.040364583,-0.0078125,1,0,0,1.538,rock_grid_rect_2,3,14,-1,-1,1.538,0.078125,-0.236979167,1,0,0,1.3796,Diorite_rect,3,1.38,1,6,0,6,0,1,,,,,,,,,,,,,
657f8b138be1350284dfe854,TCN,2024-06-25_19h16.32.957,LearnStrategy,2023.2.3,Win32,60.24096386,3,1,8,0.05078125,-0.01171875,1,0,0,1.0478,rock_grid_rect_2,2,10,-1,-1,1.048,-0.131510417,-0.240885417,1,0,0,1.5556,Basalt_rect,2,1.556,1,7,0,7,0,1,,,,,,,,,,,,,
657f8b138be1350284dfe854,TCN,2024-06-25_19h16.32.957,LearnStrategy,2023.2.3,Win32,60.24096386,3,1,9,-0.015625,-0.002604167,1,0,0,1.2147,rock_grid_rect_2,2,09,-1,-1,1.215,-0.123697917,-0.231770833,1,0,0,1.2263,Basalt_rect,2,1.226,1,8,0,8,0,1,,,,,,,,,,,,,
657f8b138be1350284dfe854,TCN,2024-06-25_19h16.32.957,LearnStrategy,2023.2.3,Win32,60.24096386,3,1,10,0.0390625,-0.010416667,1,0,0,1.1151,rock_grid_rect_2,4,15,-1,-1,1.115,-0.071614583,-0.3984375,1,0,0,1.6926,Pegmatite_rect,6,1.693,0,9,0,9,0,1,,,,,,,,,,,,,
657f8b138be1350284dfe854,TCN,2024-06-25_19h16.32.957,LearnStrategy,2023.2.3,Win32,60.24096386,3,1,11,0.014322917,0.010416667,1,0,0,1.3877,rock_grid_rect_2,5,07,-1,-1,1.388,-0.342447917,-0.401041667,1,0,0,1.386,Obsidian_rect,5,1.386,1,10,0,10,0,1,,,,,,,,,,,,,
657f8b138be1350284dfe854,TCN,2024-06-25_19h16.32.957,LearnStrategy,2023.2.3,Win32,60.24096386,3,1,12,0.065104167,0.013020833,1,0,0,1.0315,rock_grid_rect_2,4,12,-1,-1,1.031,-0.12890625,-0.260416667,1,0,0,1.6056,Basalt_rect,2,1.606,0,11,0,11,0,1,,,,,,,,,,,,,
657f8b138be1350284dfe854,TCN,2024-06-25_19h16.32.957,LearnStrategy,2023.2.3,Win32,60.24096386,3,1,13,0.087239583,0,1,0,0,1.8651,rock_grid_rect_2,7,04,-1,-1,1.865,-0.092447917,-0.404947917,1,0,0,5.7762,Pegmatite_rect,6,5.776,0,12,0,12,0,1,,,,,,,,,,,,,
657f8b138be1350284dfe854,TCN,2024-06-25_19h16.32.957,LearnStrategy,2023.2.3,Win32,60.24096386,3,1,14,0.055989583,-0.006510417,1,0,0,0.9207,rock_grid_rect_2,6,06,-1,-1,0.921,0.075520833,-0.3984375,1,0,0,1.5124,Peridotite_rect,7,1.512,0,13,0,13,0,1,,,,,,,,,,,,,
657f8b138be1350284dfe854,TCN,2024-06-25_19h16.32.957,LearnStrategy,2023.2.3,Win32,60.24096386,3,1,15,0.029947917,0.00390625,1,0,0,1.6986,rock_grid_rect_2,6,15,-1,-1,1.699,-0.065104167,-0.380208333,1,0,0,1.3204,Pegmatite_rect,6,1.32,1,14,0,14,0,1,,,,,,,,,,,,,
657f8b138be1350284dfe854,TCN,2024-06-25_19h16.32.957,LearnStrategy,2023.2.3,Win32,60.24096386,3,1,16,-0.01171875,-0.00390625,1,0,0,1.1013,rock_grid_rect_2,8,06,-1,-1,1.101,0.375,-0.416666667,1,0,0,1.9368,Pumice_rect,8,1.937,1,15,0,15,0,1,,,,,,,,,,,,,
657f8b138be1350284dfe854,TCN,2024-06-25_19h16.32.957,LearnStrategy,2023.2.3,Win32,60.24096386,3,2,1,,,,,,,,3,12,,,,,,,,,,,3,3.56,1,,,,,,0.145833333,-0.248697917,1,0,0,3.5604,Diorite_rect,0,0,0,0,1,
657f8b138be1350284dfe854,TCN,2024-06-25_19h16.32.957,LearnStrategy,2023.2.3,Win32,60.24096386,3,2,2,,,,,,,,2,02,,,,,,,,,,,2,3.152,1,,,,,,-0.11328125,-0.251302083,1,0,0,3.152,Basalt_rect,1,0,1,0,1,
657f8b138be1350284dfe854,TCN,2024-06-25_19h16.32.957,LearnStrategy,2023.2.3,Win32,60.24096386,3,2,3,,,,,,,,7,15,,,,,,,,,,,6,4.069,0,,,,,,-0.09765625,-0.3984375,1,0,0,4.069,Pegmatite_rect,2,0,2,0,1,
657f8b138be1350284dfe854,TCN,2024-06-25_19h16.32.957,LearnStrategy,2023.2.3,Win32,60.24096386,3,2,4,,,,,,,,3,08,,,,,,,,,,,3,5.134,1,,,,,,0.158854167,-0.251302083,1,0,0,5.1342,Diorite_rect,3,0,3,0,1,
657f8b138be1350284dfe854,TCN,2024-06-25_19h16.32.957,LearnStrategy,2023.2.3,Win32,60.24096386,3,2,5,,,,,,,,1,02,,,,,,,,,,,1,2.885,1,,,,,,-0.34765625,-0.2578125,1,0,0,2.885,Andesite_rect,4,0,4,0,1,
657f8b138be1350284dfe854,TCN,2024-06-25_19h16.32.957,LearnStrategy,2023.2.3,Win32,60.24096386,3,2,6,,,,,,,,8,08,,,,,,,,,,,8,2.01,1,,,,,,0.388020833,-0.404947917,1,0,0,2.0099,Pumice_rect,5,0,5,0,1,
657f8b138be1350284dfe854,TCN,2024-06-25_19h16.32.957,LearnStrategy,2023.2.3,Win32,60.24096386,3,2,7,,,,,,,,2,11,,,,,,,,,,,1,2.027,0,,,,,,-0.35546875,-0.24609375,1,0,0,2.0269,Andesite_rect,6,0,6,0,1,
657f8b138be1350284dfe854,TCN,2024-06-25_19h16.32.957,LearnStrategy,2023.2.3,Win32,60.24096386,3,2,8,,,,,,,,6,16,,,,,,,,,,,6,9.742,1,,,,,,-0.11328125,-0.399739583,1,0,0,9.7422,Pegmatite_rect,7,0,7,0,1,
657f8b138be1350284dfe854,TCN,2024-06-25_19h16.32.957,LearnStrategy,2023.2.3,Win32,60.24096386,3,2,9,,,,,,,,1,14,,,,,,,,,,,1,21.441,1,,,,,,-0.37109375,-0.244791667,1,0,0,21.4413,Andesite_rect,8,0,8,0,1,
657f8b138be1350284dfe854,TCN,2024-06-25_19h16.32.957,LearnStrategy,2023.2.3,Win32,60.24096386,3,2,10,,,,,,,,8,04,,,,,,,,,,,8,2.075,1,,,,,,0.368489583,-0.404947917,1,0,0,2.0745,Pumice_rect,9,0,9,0,1,
657f8b138be1350284dfe854,TCN,2024-06-25_19h16.32.957,LearnStrategy,2023.2.3,Win32,60.24096386,3,2,11,,,,,,,,4,05,,,,,,,,,,,4,6.326,1,,,,,,0.4140625,-0.23828125,1,0,0,6.3259,Gabbro_rect,10,0,10,0,1,
657f8b138be1350284dfe854,TCN,2024-06-25_19h16.32.957,LearnStrategy,2023.2.3,Win32,60.24096386,3,2,12,,,,,,,,7,02,,,,,,,,,,,7,3.324,1,,,,,,0.057291667,-0.3828125,1,0,0,3.3238,Peridotite_rect,11,0,11,0,1,
657f8b138be1350284dfe854,TCN,2024-06-25_19h16.32.957,LearnStrategy,2023.2.3,Win32,60.24096386,3,2,13,,,,,,,,5,04,,,,,,,,,,,5,1.592,1,,,,,,-0.356770833,-0.388020833,1,0,0,1.5918,Obsidian_rect,12,0,12,0,1,
657f8b138be1350284dfe854,TCN,2024-06-25_19h16.32.957,LearnStrategy,2023.2.3,Win32,60.24096386,3,2,14,,,,,,,,6,05,,,,,,,,,,,6,2.035,1,,,,,,-0.05859375,-0.384114583,1,0,0,2.0351,Pegmatite_rect,13,0,13,0,1,
657f8b138be1350284dfe854,TCN,2024-06-25_19h16.32.957,LearnStrategy,2023.2.3,Win32,60.24096386,3,2,15,,,,,,,,5,08,,,,,,,,,,,5,1.43,1,,,,,,-0.375,-0.40625,1,0,0,1.4301,Obsidian_rect,14,0,14,0,1,
657f8b138be1350284dfe854,TCN,2024-06-25_19h16.32.957,LearnStrategy,2023.2.3,Win32,60.24096386,3,2,16,,,,,,,,4,01,,,,,,,,,,,4,3.009,1,,,,,,0.361979167,-0.247395833,1,0,0,3.0092,Gabbro_rect,15,0,15,0,1,
657f8b138be1350284dfe854,TCN,2024-06-25_19h16.32.957,LearnStrategy,2023.2.3,Win32,60.24096386,4,1,1,0.046875,0.006510417,1,0,0,3.1484,rock_grid_rect_2,8,13,-1,-1,3.148,0.377604167,-0.397135417,1,0,0,2.4028,Pumice_rect,8,2.403,1,0,0,0,0,1,,,,,,,,,,,,,
657f8b138be1350284dfe854,TCN,2024-06-25_19h16.32.957,LearnStrategy,2023.2.3,Win32,60.24096386,4,1,2,-0.037760417,-0.00390625,1,0,0,1.437,rock_grid_rect_2,2,04,-1,-1,1.437,-0.108072917,-0.252604167,1,0,0,3.1536,Basalt_rect,2,3.154,1,1,0,1,0,1,,,,,,,,,,,,,
657f8b138be1350284dfe854,TCN,2024-06-25_19h16.32.957,LearnStrategy,2023.2.3,Win32,60.24096386,4,1,3,0.040364583,-0.006510417,1,0,0,1.1973,rock_grid_rect_2,2,14,-1,-1,1.197,0.354166667,-0.39453125,1,0,0,1.6285,Pumice_rect,8,1.629,0,2,0,2,0,1,,,,,,,,,,,,,
657f8b138be1350284dfe854,TCN,2024-06-25_19h16.32.957,LearnStrategy,2023.2.3,Win32,60.24096386,4,1,4,-0.059895833,-0.0078125,1,0,0,1.2053,rock_grid_rect_2,6,09,-1,-1,1.205,-0.079427083,-0.389322917,1,0,0,1.2702,Pegmatite_rect,6,1.27,1,3,0,3,0,1,,,,,,,,,,,,,
657f8b138be1350284dfe854,TCN,2024-06-25_19h16.32.957,LearnStrategy,2023.2.3,Win32,60.24096386,4,1,5,0.029947917,-0.0078125,1,0,0,1.0653,rock_grid_rect_2,4,15,-1,-1,1.065,0.122395833,-0.408854167,1,0,0,1.2935,Peridotite_rect,7,1.293,0,4,0,4,0,1,,,,,,,,,,,,,
657f8b138be1350284dfe854,TCN,2024-06-25_19h16.32.957,LearnStrategy,2023.2.3,Win32,60.24096386,4,1,6,0.0234375,-0.01953125,1,0,0,1.0221,rock_grid_rect_2,5,07,-1,-1,1.022,-0.37890625,-0.395833333,1,0,0,2.0619,Obsidian_rect,5,2.062,1,5,0,5,0,1,,,,,,,,,,,,,
657f8b138be1350284dfe854,TCN,2024-06-25_19h16.32.957,LearnStrategy,2023.2.3,Win32,60.24096386,4,1,7,-0.04296875,-0.0078125,1,0,0,1.6036,rock_grid_rect_2,5,14,-1,-1,1.604,-0.352864583,-0.388020833,1,0,0,1.7537,Obsidian_rect,5,1.754,1,6,0,6,0,1,,,,,,,,,,,,,
657f8b138be1350284dfe854,TCN,2024-06-25_19h16.32.957,LearnStrategy,2023.2.3,Win32,60.24096386,4,1,8,0.028645833,0.018229167,1,0,0,2.4884,rock_grid_rect_2,3,10,-1,-1,2.488,0.13671875,-0.2578125,1,0,0,1.6371,Diorite_rect,3,1.637,1,7,0,7,0,1,,,,,,,,,,,,,
657f8b138be1350284dfe854,TCN,2024-06-25_19h16.32.957,LearnStrategy,2023.2.3,Win32,60.24096386,4,1,9,0.020833333,0.006510417,1,0,0,1.1983,rock_grid_rect_2,8,06,-1,-1,1.198,0.360677083,-0.385416667,1,0,0,1.3762,Pumice_rect,8,1.376,1,8,0,8,0,1,,,,,,,,,,,,,
657f8b138be1350284dfe854,TCN,2024-06-25_19h16.32.957,LearnStrategy,2023.2.3,Win32,60.24096386,4,1,10,-0.08984375,-0.00390625,1,0,0,1.1643,rock_grid_rect_2,7,12,-1,-1,1.164,0.102864583,-0.388020833,1,0,0,4.5597,Peridotite_rect,7,4.56,1,9,0,9,0,1,,,,,,,,,,,,,
657f8b138be1350284dfe854,TCN,2024-06-25_19h16.32.957,LearnStrategy,2023.2.3,Win32,60.24096386,4,1,11,-0.013020833,-0.005208333,1,0,0,1.081,rock_grid_rect_2,3,06,-1,-1,1.081,0.356770833,-0.248697917,1,0,0,3.5862,Gabbro_rect,4,3.586,0,10,0,10,0,1,,,,,,,,,,,,,
657f8b138be1350284dfe854,TCN,2024-06-25_19h16.32.957,LearnStrategy,2023.2.3,Win32,60.24096386,4,1,12,0.092447917,0.01953125,1,0,0,0.9805,rock_grid_rect_2,7,10,-1,-1,0.98,0.032552083,-0.412760417,1,0,0,1.8435,Peridotite_rect,7,1.843,1,11,0,11,0,1,,,,,,,,,,,,,
657f8b138be1350284dfe854,TCN,2024-06-25_19h16.32.957,LearnStrategy,2023.2.3,Win32,60.24096386,4,1,13,0.010416667,-0.0234375,1,0,0,43.3115,rock_grid_rect_2,4,12,-1,-1,43.312,0.3984375,-0.270833333,1,0,0,3.7256,Gabbro_rect,4,3.726,1,12,0,12,0,1,,,,,,,,,,,,,
657f8b138be1350284dfe854,TCN,2024-06-25_19h16.32.957,LearnStrategy,2023.2.3,Win32,60.24096386,4,1,14,-0.052083333,-0.005208333,1,0,0,1.2643,rock_grid_rect_2,1,09,-1,-1,1.264,0.3359375,-0.256510417,1,0,0,2.8425,Gabbro_rect,4,2.842,0,13,0,13,0,1,,,,,,,,,,,,,
657f8b138be1350284dfe854,TCN,2024-06-25_19h16.32.957,LearnStrategy,2023.2.3,Win32,60.24096386,4,1,15,-0.010416667,0.01171875,1,0,0,1.3305,rock_grid_rect_2,6,06,-1,-1,1.331,-0.0859375,-0.411458333,1,0,0,2.1412,Pegmatite_rect,6,2.141,1,14,0,14,0,1,,,,,,,,,,,,,
657f8b138be1350284dfe854,TCN,2024-06-25_19h16.32.957,LearnStrategy,2023.2.3,Win32,60.24096386,4,1,16,0.059895833,0.010416667,1,0,0,0.9981,rock_grid_rect_2,1,03,-1,-1,0.998,-0.401041667,-0.2421875,1,0,0,2.1753,Andesite_rect,1,2.175,1,15,0,15,0,1,,,,,,,,,,,,,
657f8b138be1350284dfe854,TCN,2024-06-25_19h16.32.957,LearnStrategy,2023.2.3,Win32,60.24096386,4,2,1,,,,,,,,5,09,,,,,,,,,,,5,1.31,1,,,,,,-0.388020833,-0.408854167,1,0,0,1.3097,Obsidian_rect,0,0,0,0,1,
657f8b138be1350284dfe854,TCN,2024-06-25_19h16.32.957,LearnStrategy,2023.2.3,Win32,60.24096386,4,2,2,,,,,,,,8,08,,,,,,,,,,,8,3.401,1,,,,,,0.395833333,-0.3984375,1,0,0,3.4014,Pumice_rect,1,0,1,0,1,
657f8b138be1350284dfe854,TCN,2024-06-25_19h16.32.957,LearnStrategy,2023.2.3,Win32,60.24096386,4,2,3,,,,,,,,4,05,,,,,,,,,,,1,26.682,0,,,,,,-0.404947917,-0.256510417,1,0,0,26.6816,Andesite_rect,2,0,2,0,1,
657f8b138be1350284dfe854,TCN,2024-06-25_19h16.32.957,LearnStrategy,2023.2.3,Win32,60.24096386,4,2,4,,,,,,,,7,06,,,,,,,,,,,6,1.335,0,,,,,,-0.100260417,-0.380208333,1,0,0,1.3354,Pegmatite_rect,3,0,3,0,1,
657f8b138be1350284dfe854,TCN,2024-06-25_19h16.32.957,LearnStrategy,2023.2.3,Win32,60.24096386,4,2,5,,,,,,,,7,07,,,,,,,,,,,7,1.8,1,,,,,,0.106770833,-0.390625,1,0,0,1.8002,Peridotite_rect,4,0,4,0,1,
657f8b138be1350284dfe854,TCN,2024-06-25_19h16.32.957,LearnStrategy,2023.2.3,Win32,60.24096386,4,2,6,,,,,,,,4,10,,,,,,,,,,,4,5.742,1,,,,,,0.376302083,-0.235677083,1,0,0,5.742,Gabbro_rect,5,0,5,0,1,
657f8b138be1350284dfe854,TCN,2024-06-25_19h16.32.957,LearnStrategy,2023.2.3,Win32,60.24096386,4,2,7,,,,,,,,2,08,,,,,,,,,,,2,1.231,1,,,,,,-0.139322917,-0.243489583,1,0,0,1.2309,Basalt_rect,6,0,6,0,1,
657f8b138be1350284dfe854,TCN,2024-06-25_19h16.32.957,LearnStrategy,2023.2.3,Win32,60.24096386,4,2,8,,,,,,,,2,16,,,,,,,,,,,2,3.518,1,,,,,,-0.1484375,-0.24609375,1,0,0,3.5181,Basalt_rect,7,0,7,0,1,
657f8b138be1350284dfe854,TCN,2024-06-25_19h16.32.957,LearnStrategy,2023.2.3,Win32,60.24096386,4,2,9,,,,,,,,8,02,,,,,,,,,,,3,3.289,0,,,,,,0.096354167,-0.24609375,1,0,0,3.2891,Diorite_rect,8,0,8,0,1,
657f8b138be1350284dfe854,TCN,2024-06-25_19h16.32.957,LearnStrategy,2023.2.3,Win32,60.24096386,4,2,10,,,,,,,,3,09,,,,,,,,,,,3,3.976,1,,,,,,0.134114583,-0.251302083,1,0,0,3.976,Diorite_rect,9,0,9,0,1,
657f8b138be1350284dfe854,TCN,2024-06-25_19h16.32.957,LearnStrategy,2023.2.3,Win32,60.24096386,4,2,11,,,,,,,,1,16,,,,,,,,,,,4,2.092,0,,,,,,0.322916667,-0.260416667,1,0,0,2.0922,Gabbro_rect,10,0,10,0,1,
657f8b138be1350284dfe854,TCN,2024-06-25_19h16.32.957,LearnStrategy,2023.2.3,Win32,60.24096386,4,2,12,,,,,,,,6,05,,,,,,,,,,,6,1.543,1,,,,,,-0.141927083,-0.403645833,1,0,0,1.5425,Pegmatite_rect,11,0,11,0,1,
657f8b138be1350284dfe854,TCN,2024-06-25_19h16.32.957,LearnStrategy,2023.2.3,Win32,60.24096386,4,2,13,,,,,,,,1,14,,,,,,,,,,,3,3.614,0,,,,,,0.151041667,-0.247395833,1,0,0,3.6142,Diorite_rect,12,0,12,0,1,
657f8b138be1350284dfe854,TCN,2024-06-25_19h16.32.957,LearnStrategy,2023.2.3,Win32,60.24096386,4,2,14,,,,,,,,5,04,,,,,,,,,,,5,1.508,1,,,,,,-0.37109375,-0.385416667,1,0,0,1.5083,Obsidian_rect,13,0,13,0,1,
657f8b138be1350284dfe854,TCN,2024-06-25_19h16.32.957,LearnStrategy,2023.2.3,Win32,60.24096386,4,2,15,,,,,,,,6,03,,,,,,,,,,,6,2.093,1,,,,,,-0.092447917,-0.395833333,1,0,0,2.093,Pegmatite_rect,14,0,14,0,1,
657f8b138be1350284dfe854,TCN,2024-06-25_19h16.32.957,LearnStrategy,2023.2.3,Win32,60.24096386,4,2,16,,,,,,,,3,07,,,,,,,,,,,3,1.594,1,,,,,,0.110677083,-0.240885417,1,0,0,1.5945,Diorite_rect,15,0,15,0,1,
657f8b138be1350284dfe854,TCN,2024-06-25_19h16.32.957,LearnStrategy,2023.2.3,Win32,60.24096386,5,1,1,-0.063802083,-0.001302083,1,0,0,1.4648,rock_grid_rect_2,6,15,-1,-1,1.465,-0.09375,-0.39453125,1,0,0,1.5205,Pegmatite_rect,6,1.521,1,0,0,0,0,1,,,,,,,,,,,,,
657f8b138be1350284dfe854,TCN,2024-06-25_19h16.32.957,LearnStrategy,2023.2.3,Win32,60.24096386,5,1,2,0.013020833,-0.001302083,1,0,0,1.0218,rock_grid_rect_2,1,07,-1,-1,1.022,0.15625,-0.2578125,1,0,0,1.4484,Diorite_rect,3,1.448,0,1,0,1,0,1,,,,,,,,,,,,,
657f8b138be1350284dfe854,TCN,2024-06-25_19h16.32.957,LearnStrategy,2023.2.3,Win32,60.24096386,5,1,3,0.040364583,0.006510417,1,0,0,1.0978,rock_grid_rect_2,8,10,-1,-1,1.098,0.3359375,-0.412760417,1,0,0,1.6433,Pumice_rect,8,1.643,1,2,0,2,0,1,,,,,,,,,,,,,
657f8b138be1350284dfe854,TCN,2024-06-25_19h16.32.957,LearnStrategy,2023.2.3,Win32,60.24096386,5,1,4,0.045572917,-0.006510417,1,0,0,0.9976,rock_grid_rect_2,6,11,-1,-1,0.998,-0.091145833,-0.381510417,1,0,0,1.4602,Pegmatite_rect,6,1.46,1,3,0,3,0,1,,,,,,,,,,,,,
657f8b138be1350284dfe854,TCN,2024-06-25_19h16.32.957,LearnStrategy,2023.2.3,Win32,60.24096386,5,1,5,0.083333333,-0.006510417,1,0,0,0.898,rock_grid_rect_2,4,16,-1,-1,0.898,-0.162760417,-0.260416667,1,0,0,2.5582,Basalt_rect,2,2.558,0,4,0,4,0,1,,,,,,,,,,,,,
657f8b138be1350284dfe854,TCN,2024-06-25_19h16.32.957,LearnStrategy,2023.2.3,Win32,60.24096386,5,1,6,0.001302083,-0.018229167,1,0,0,1.0476,rock_grid_rect_2,5,16,-1,-1,1.048,-0.317708333,-0.38671875,1,0,0,1.4594,Obsidian_rect,5,1.459,1,5,0,5,0,1,,,,,,,,,,,,,
657f8b138be1350284dfe854,TCN,2024-06-25_19h16.32.957,LearnStrategy,2023.2.3,Win32,60.24096386,5,1,7,0.006510417,-0.015625,1,0,0,1.248,rock_grid_rect_2,8,16,-1,-1,1.248,0.37109375,-0.40625,1,0,0,2.4593,Pumice_rect,8,2.459,1,6,0,6,0,1,,,,,,,,,,,,,
657f8b138be1350284dfe854,TCN,2024-06-25_19h16.32.957,LearnStrategy,2023.2.3,Win32,60.24096386,5,1,8,-0.079427083,0.009114583,1,0,0,1.2637,rock_grid_rect_2,3,13,-1,-1,1.264,0.114583333,-0.2421875,1,0,0,1.676,Diorite_rect,3,1.676,1,7,0,7,0,1,,,,,,,,,,,,,
657f8b138be1350284dfe854,TCN,2024-06-25_19h16.32.957,LearnStrategy,2023.2.3,Win32,60.24096386,5,1,9,0.002604167,-0.010416667,1,0,0,1.8149,rock_grid_rect_2,3,11,-1,-1,1.815,0.1640625,-0.248697917,1,0,0,1.8264,Diorite_rect,3,1.826,1,8,0,8,0,1,,,,,,,,,,,,,
657f8b138be1350284dfe854,TCN,2024-06-25_19h16.32.957,LearnStrategy,2023.2.3,Win32,60.24096386,5,1,10,-0.032552083,-0.005208333,1,0,0,1.1479,rock_grid_rect_2,4,08,-1,-1,1.148,-0.337239583,-0.244791667,1,0,0,4.2414,Andesite_rect,1,4.241,0,9,0,9,0,1,,,,,,,,,,,,,
657f8b138be1350284dfe854,TCN,2024-06-25_19h16.32.957,LearnStrategy,2023.2.3,Win32,60.24096386,5,1,11,0.024739583,0.016927083,1,0,0,1.5537,rock_grid_rect_2,7,05,-1,-1,1.554,0.10546875,-0.25,1,0,0,3.5529,Diorite_rect,3,3.553,0,10,0,10,0,1,,,,,,,,,,,,,
657f8b138be1350284dfe854,TCN,2024-06-25_19h16.32.957,LearnStrategy,2023.2.3,Win32,60.24096386,5,1,12,-0.0234375,-0.00390625,1,0,0,1.2202,rock_grid_rect_2,1,10,-1,-1,1.22,-0.33203125,-0.23828125,1,0,0,4.3193,Andesite_rect,1,4.319,1,11,0,11,0,1,,,,,,,,,,,,,
657f8b138be1350284dfe854,TCN,2024-06-25_19h16.32.957,LearnStrategy,2023.2.3,Win32,60.24096386,5,1,13,-0.041666667,-0.022135417,1,0,0,1.737,rock_grid_rect_2,2,01,-1,-1,1.737,-0.096354167,-0.252604167,1,0,0,1.3033,Basalt_rect,2,1.303,1,12,0,12,0,1,,,,,,,,,,,,,
657f8b138be1350284dfe854,TCN,2024-06-25_19h16.32.957,LearnStrategy,2023.2.3,Win32,60.24096386,5,1,14,-0.015625,-0.010416667,1,0,0,48.7269,rock_grid_rect_2,5,12,-1,-1,48.727,-0.39453125,-0.40234375,1,0,0,1.7097,Obsidian_rect,5,1.71,1,13,0,13,0,1,,,,,,,,,,,,,
657f8b138be1350284dfe854,TCN,2024-06-25_19h16.32.957,LearnStrategy,2023.2.3,Win32,60.24096386,5,1,15,-0.052083333,-0.0078125,1,0,0,1.8052,rock_grid_rect_2,2,12,-1,-1,1.805,0.436197917,-0.411458333,1,0,0,5.4085,Pumice_rect,8,5.409,0,14,0,14,0,1,,,,,,,,,,,,,
657f8b138be1350284dfe854,TCN,2024-06-25_19h16.32.957,LearnStrategy,2023.2.3,Win32,60.24096386,5,1,16,-0.059895833,-0.015625,1,0,0,1.3382,rock_grid_rect_2,7,08,-1,-1,1.338,0.110677083,-0.3828125,1,0,0,10.4686,Peridotite_rect,7,10.469,1,15,0,15,0,1,,,,,,,,,,,,,
657f8b138be1350284dfe854,TCN,2024-06-25_19h16.32.957,LearnStrategy,2023.2.3,Win32,60.24096386,5,2,1,,,,,,,,3,12,,,,,,,,,,,3,1.442,1,,,,,,0.087239583,-0.234375,1,0,0,1.4424,Diorite_rect,0,0,0,0,1,
657f8b138be1350284dfe854,TCN,2024-06-25_19h16.32.957,LearnStrategy,2023.2.3,Win32,60.24096386,5,2,2,,,,,,,,3,16,,,,,,,,,,,3,5.593,1,,,,,,0.145833333,-0.247395833,1,0,0,5.5933,Diorite_rect,1,0,1,0,1,
657f8b138be1350284dfe854,TCN,2024-06-25_19h16.32.957,LearnStrategy,2023.2.3,Win32,60.24096386,5,2,3,,,,,,,,4,03,,,,,,,,,,,3,1.742,0,,,,,,0.119791667,-0.24609375,1,0,0,1.7424,Diorite_rect,2,0,2,0,1,
657f8b138be1350284dfe854,TCN,2024-06-25_19h16.32.957,LearnStrategy,2023.2.3,Win32,60.24096386,5,2,4,,,,,,,,4,01,,,,,,,,,,,7,1.841,0,,,,,,0.153645833,-0.391927083,1,0,0,1.8414,Peridotite_rect,3,0,3,0,1,
657f8b138be1350284dfe854,TCN,2024-06-25_19h16.32.957,LearnStrategy,2023.2.3,Win32,60.24096386,5,2,5,,,,,,,,1,06,,,,,,,,,,,4,4.444,0,,,,,,0.325520833,-0.25390625,1,0,0,4.444,Gabbro_rect,4,0,4,0,1,
657f8b138be1350284dfe854,TCN,2024-06-25_19h16.32.957,LearnStrategy,2023.2.3,Win32,60.24096386,5,2,6,,,,,,,,5,02,,,,,,,,,,,5,1.456,1,,,,,,-0.380208333,-0.397135417,1,0,0,1.456,Obsidian_rect,5,0,5,0,1,
657f8b138be1350284dfe854,TCN,2024-06-25_19h16.32.957,LearnStrategy,2023.2.3,Win32,60.24096386,5,2,7,,,,,,,,2,11,,,,,,,,,,,2,1.427,1,,,,,,-0.095052083,-0.2421875,1,0,0,1.4268,Basalt_rect,6,0,6,0,1,
657f8b138be1350284dfe854,TCN,2024-06-25_19h16.32.957,LearnStrategy,2023.2.3,Win32,60.24096386,5,2,8,,,,,,,,7,13,,,,,,,,,,,6,1.32,0,,,,,,-0.0859375,-0.380208333,1,0,0,1.3204,Pegmatite_rect,7,0,7,0,1,
657f8b138be1350284dfe854,TCN,2024-06-25_19h16.32.957,LearnStrategy,2023.2.3,Win32,60.24096386,5,2,9,,,,,,,,2,05,,,,,,,,,,,2,1.651,1,,,,,,-0.078125,-0.2578125,1,0,0,1.6515,Basalt_rect,8,0,8,0,1,
657f8b138be1350284dfe854,TCN,2024-06-25_19h16.32.957,LearnStrategy,2023.2.3,Win32,60.24096386,5,2,10,,,,,,,,7,02,,,,,,,,,,,7,1.52,1,,,,,,0.108072917,-0.388020833,1,0,0,1.5199,Peridotite_rect,9,0,9,0,1,
657f8b138be1350284dfe854,TCN,2024-06-25_19h16.32.957,LearnStrategy,2023.2.3,Win32,60.24096386,5,2,11,,,,,,,,8,15,,,,,,,,,,,8,2.006,1,,,,,,0.36328125,-0.395833333,1,0,0,2.0063,Pumice_rect,10,0,10,0,1,
657f8b138be1350284dfe854,TCN,2024-06-25_19h16.32.957,LearnStrategy,2023.2.3,Win32,60.24096386,5,2,12,,,,,,,,6,16,,,,,,,,,,,6,1.542,1,,,,,,-0.0859375,-0.38671875,1,0,0,1.5424,Pegmatite_rect,11,0,11,0,1,
657f8b138be1350284dfe854,TCN,2024-06-25_19h16.32.957,LearnStrategy,2023.2.3,Win32,60.24096386,5,2,13,,,,,,,,5,10,,,,,,,,,,,5,1.355,1,,,,,,-0.358072917,-0.385416667,1,0,0,1.3547,Obsidian_rect,12,0,12,0,1,
657f8b138be1350284dfe854,TCN,2024-06-25_19h16.32.957,LearnStrategy,2023.2.3,Win32,60.24096386,5,2,14,,,,,,,,1,02,,,,,,,,,,,4,5.508,0,,,,,,0.3984375,-0.243489583,1,0,0,5.5085,Gabbro_rect,13,0,13,0,1,
657f8b138be1350284dfe854,TCN,2024-06-25_19h16.32.957,LearnStrategy,2023.2.3,Win32,60.24096386,5,2,15,,,,,,,,8,03,,,,,,,,,,,8,3.326,1,,,,,,0.338541667,-0.404947917,1,0,0,3.3257,Pumice_rect,14,0,14,0,1,
657f8b138be1350284dfe854,TCN,2024-06-25_19h16.32.957,LearnStrategy,2023.2.3,Win32,60.24096386,5,2,16,,,,,,,,6,08,,,,,,,,,,,6,1.738,1,,,,,,-0.143229167,-0.399739583,1,0,0,1.7384,Pegmatite_rect,15,0,15,0,1,
657f8b138be1350284dfe854,TCN,2024-06-25_19h16.32.957,LearnStrategy,2023.2.3,Win32,60.24096386,6,1,1,-0.078125,0.009114583,1,0,0,2.1052,rock_grid_rect_2,3,14,-1,-1,2.105,0.08984375,-0.255208333,1,0,0,2.0195,Diorite_rect,3,2.019,1,0,0,0,0,1,,,,,,,,,,,,,
657f8b138be1350284dfe854,TCN,2024-06-25_19h16.32.957,LearnStrategy,2023.2.3,Win32,60.24096386,6,1,2,0.00390625,-0.013020833,1,0,0,2.8306,rock_grid_rect_2,5,05,-1,-1,2.831,-0.106770833,-0.389322917,1,0,0,1.3439,Pegmatite_rect,6,1.344,0,1,0,1,0,1,,,,,,,,,,,,,
657f8b138be1350284dfe854,TCN,2024-06-25_19h16.32.957,LearnStrategy,2023.2.3,Win32,60.24096386,6,1,3,-0.04296875,-0.0234375,1,0,0,1.6483,rock_grid_rect_2,2,10,-1,-1,1.648,-0.096354167,-0.26953125,1,0,0,1.127,Basalt_rect,2,1.127,1,2,0,2,0,1,,,,,,,,,,,,,
657f8b138be1350284dfe854,TCN,2024-06-25_19h16.32.957,LearnStrategy,2023.2.3,Win32,60.24096386,6,1,4,0.057291667,0.002604167,1,0,0,1.3149,rock_grid_rect_2,4,13,-1,-1,1.315,0.173177083,-0.416666667,1,0,0,1.5595,Peridotite_rect,7,1.56,0,3,0,3,0,1,,,,,,,,,,,,,
657f8b138be1350284dfe854,TCN,2024-06-25_19h16.32.957,LearnStrategy,2023.2.3,Win32,60.24096386,6,1,5,0.0546875,-0.005208333,1,0,0,1.2715,rock_grid_rect_2,4,11,-1,-1,1.271,0.364583333,-0.231770833,1,0,0,4.0365,Gabbro_rect,4,4.036,1,4,0,4,0,1,,,,,,,,,,,,,
657f8b138be1350284dfe854,TCN,2024-06-25_19h16.32.957,LearnStrategy,2023.2.3,Win32,60.24096386,6,1,6,0.075520833,0.006510417,1,0,0,1.2476,rock_grid_rect_2,1,05,-1,-1,1.248,0.111979167,-0.389322917,1,0,0,1.9267,Peridotite_rect,7,1.927,0,5,0,5,0,1,,,,,,,,,,,,,
657f8b138be1350284dfe854,TCN,2024-06-25_19h16.32.957,LearnStrategy,2023.2.3,Win32,60.24096386,6,1,7,-0.141927083,-0.006510417,1,0,0,1.4811,rock_grid_rect_2,1,04,-1,-1,1.481,0.360677083,-0.25390625,1,0,0,1.4255,Gabbro_rect,4,1.425,0,6,0,6,0,1,,,,,,,,,,,,,
657f8b138be1350284dfe854,TCN,2024-06-25_19h16.32.957,LearnStrategy,2023.2.3,Win32,60.24096386,6,1,8,-0.03515625,-0.006510417,1,0,0,1.3146,rock_grid_rect_2,7,04,-1,-1,1.315,0.1015625,-0.401041667,1,0,0,1.8091,Peridotite_rect,7,1.809,1,7,0,7,0,1,,,,,,,,,,,,,
657f8b138be1350284dfe854,TCN,2024-06-25_19h16.32.957,LearnStrategy,2023.2.3,Win32,60.24096386,6,1,9,0.049479167,-0.009114583,1,0,0,1.9132,rock_grid_rect_2,2,09,-1,-1,1.913,-0.12109375,-0.244791667,1,0,0,1.9926,Basalt_rect,2,1.993,1,8,0,8,0,1,,,,,,,,,,,,,
657f8b138be1350284dfe854,TCN,2024-06-25_19h16.32.957,LearnStrategy,2023.2.3,Win32,60.24096386,6,1,10,-0.00390625,-0.0078125,1,0,0,1.3379,rock_grid_rect_2,8,09,-1,-1,1.338,0.31640625,-0.391927083,1,0,0,1.5536,Pumice_rect,8,1.554,1,9,0,9,0,1,,,,,,,,,,,,,
657f8b138be1350284dfe854,TCN,2024-06-25_19h16.32.957,LearnStrategy,2023.2.3,Win32,60.24096386,6,1,11,0.015625,0.00390625,1,0,0,1.0817,rock_grid_rect_2,3,15,-1,-1,1.082,0.127604167,-0.408854167,1,0,0,3.4105,Peridotite_rect,7,3.41,0,10,0,10,0,1,,,,,,,,,,,,,
657f8b138be1350284dfe854,TCN,2024-06-25_19h16.32.957,LearnStrategy,2023.2.3,Win32,60.24096386,6,1,12,-0.020833333,-0.018229167,1,0,0,1.1311,rock_grid_rect_2,5,11,-1,-1,1.131,-0.391927083,-0.397135417,1,0,0,1.5269,Obsidian_rect,5,1.527,1,11,0,11,0,1,,,,,,,,,,,,,
657f8b138be1350284dfe854,TCN,2024-06-25_19h16.32.957,LearnStrategy,2023.2.3,Win32,60.24096386,6,1,13,0.049479167,0.001302083,1,0,0,1.3983,rock_grid_rect_2,6,13,-1,-1,1.398,-0.102864583,-0.381510417,1,0,0,1.76,Pegmatite_rect,6,1.76,1,12,0,12,0,1,,,,,,,,,,,,,
657f8b138be1350284dfe854,TCN,2024-06-25_19h16.32.957,LearnStrategy,2023.2.3,Win32,60.24096386,6,1,14,0.0390625,-0.018229167,1,0,0,1.1818,rock_grid_rect_2,8,05,-1,-1,1.182,0.403645833,-0.401041667,1,0,0,1.9521,Pumice_rect,8,1.952,1,13,0,13,0,1,,,,,,,,,,,,,
657f8b138be1350284dfe854,TCN,2024-06-25_19h16.32.957,LearnStrategy,2023.2.3,Win32,60.24096386,6,1,15,0.016927083,0.013020833,1,0,0,0.9977,rock_grid_rect_2,6,12,-1,-1,0.998,-0.080729167,-0.390625,1,0,0,1.4364,Pegmatite_rect,6,1.436,1,14,0,14,0,1,,,,,,,,,,,,,
657f8b138be1350284dfe854,TCN,2024-06-25_19h16.32.957,LearnStrategy,2023.2.3,Win32,60.24096386,6,1,16,0.053385417,-0.005208333,1,0,0,1.5387,rock_grid_rect_2,7,14,-1,-1,1.539,-0.100260417,-0.41796875,1,0,0,4.2699,Pegmatite_rect,6,4.27,0,15,0,15,0,1,,,,,,,,,,,,,
657f8b138be1350284dfe854,TCN,2024-06-25_19h16.32.957,LearnStrategy,2023.2.3,Win32,60.24096386,6,2,1,,,,,,,,4,09,,,,,,,,,,,2,9.559,0,,,,,,-0.184895833,-0.25,1,0,0,9.5585,Basalt_rect,0,0,0,0,1,
657f8b138be1350284dfe854,TCN,2024-06-25_19h16.32.957,LearnStrategy,2023.2.3,Win32,60.24096386,6,2,2,,,,,,,,8,04,,,,,,,,,,,8,1.526,1,,,,,,0.368489583,-0.397135417,1,0,0,1.5256,Pumice_rect,1,0,1,0,1,
657f8b138be1350284dfe854,TCN,2024-06-25_19h16.32.957,LearnStrategy,2023.2.3,Win32,60.24096386,6,2,3,,,,,,,,5,08,,,,,,,,,,,5,1.422,1,,,,,,-0.395833333,-0.40625,1,0,0,1.4222,Obsidian_rect,2,0,2,0,1,
657f8b138be1350284dfe854,TCN,2024-06-25_19h16.32.957,LearnStrategy,2023.2.3,Win32,60.24096386,6,2,4,,,,,,,,6,10,,,,,,,,,,,6,1.942,1,,,,,,-0.1328125,-0.393229167,1,0,0,1.942,Pegmatite_rect,3,0,3,0,1,
657f8b138be1350284dfe854,TCN,2024-06-25_19h16.32.957,LearnStrategy,2023.2.3,Win32,60.24096386,6,2,5,,,,,,,,6,07,,,,,,,,,,,6,1.493,1,,,,,,-0.145833333,-0.41015625,1,0,0,1.4929,Pegmatite_rect,4,0,4,0,1,
657f8b138be1350284dfe854,TCN,2024-06-25_19h16.32.957,LearnStrategy,2023.2.3,Win32,60.24096386,6,2,6,,,,,,,,1,01,,,,,,,,,,,4,9.426,0,,,,,,0.41796875,-0.252604167,1,0,0,9.4258,Gabbro_rect,5,0,5,0,1,
657f8b138be1350284dfe854,TCN,2024-06-25_19h16.32.957,LearnStrategy,2023.2.3,Win32,60.24096386,6,2,7,,,,,,,,3,02,,,,,,,,,,,3,3.441,1,,,,,,0.106770833,-0.248697917,1,0,0,3.4415,Diorite_rect,6,0,6,0,1,
657f8b138be1350284dfe854,TCN,2024-06-25_19h16.32.957,LearnStrategy,2023.2.3,Win32,60.24096386,6,2,8,,,,,,,,8,14,,,,,,,,,,,8,5.092,1,,,,,,0.4296875,-0.41015625,1,0,0,5.0921,Pumice_rect,7,0,7,0,1,
657f8b138be1350284dfe854,TCN,2024-06-25_19h16.32.957,LearnStrategy,2023.2.3,Win32,60.24096386,6,2,9,,,,,,,,1,11,,,,,,,,,,,1,4.793,1,,,,,,-0.348958333,-0.243489583,1,0,0,4.7925,Andesite_rect,8,0,8,0,1,
657f8b138be1350284dfe854,TCN,2024-06-25_19h16.32.957,LearnStrategy,2023.2.3,Win32,60.24096386,6,2,10,,,,,,,,2,06,,,,,,,,,,,2,1.584,1,,,,,,-0.127604167,-0.26953125,1,0,0,1.5843,Basalt_rect,9,0,9,0,1,
657f8b138be1350284dfe854,TCN,2024-06-25_19h16.32.957,LearnStrategy,2023.2.3,Win32,60.24096386,6,2,11,,,,,,,,7,16,,,,,,,,,,,7,2.39,1,,,,,,0.127604167,-0.415364583,1,0,0,2.3905,Peridotite_rect,10,0,10,0,1,
657f8b138be1350284dfe854,TCN,2024-06-25_19h16.32.957,LearnStrategy,2023.2.3,Win32,60.24096386,6,2,12,,,,,,,,2,02,,,,,,,,,,,2,1.243,1,,,,,,-0.11328125,-0.2578125,1,0,0,1.243,Basalt_rect,11,0,11,0,1,
657f8b138be1350284dfe854,TCN,2024-06-25_19h16.32.957,LearnStrategy,2023.2.3,Win32,60.24096386,6,2,13,,,,,,,,3,08,,,,,,,,,,,3,1.143,1,,,,,,0.102864583,-0.235677083,1,0,0,1.143,Diorite_rect,12,0,12,0,1,
657f8b138be1350284dfe854,TCN,2024-06-25_19h16.32.957,LearnStrategy,2023.2.3,Win32,60.24096386,6,2,14,,,,,,,,4,14,,,,,,,,,,,4,1.636,1,,,,,,0.34765625,-0.251302083,1,0,0,1.636,Gabbro_rect,13,0,13,0,1,
657f8b138be1350284dfe854,TCN,2024-06-25_19h16.32.957,LearnStrategy,2023.2.3,Win32,60.24096386,6,2,15,,,,,,,,7,15,,,,,,,,,,,7,1.349,1,,,,,,0.102864583,-0.385416667,1,0,0,1.3491,Peridotite_rect,14,0,14,0,1,
657f8b138be1350284dfe854,TCN,2024-06-25_19h16.32.957,LearnStrategy,2023.2.3,Win32,60.24096386,6,2,16,,,,,,,,5,06,,,,,,,,,,,5,1.302,1,,,,,,-0.380208333,-0.3984375,1,0,0,1.3021,Obsidian_rect,15,0,15,0,1,
657f8b138be1350284dfe854,TCN,2024-06-25_19h16.32.957,LearnStrategy,2023.2.3,Win32,60.24096386,7,1,1,-0.029947917,0.002604167,1,0,0,2.7644,rock_grid_rect_2,7,04,-1,-1,2.764,0.075520833,-0.403645833,1,0,0,6.3764,Peridotite_rect,7,6.376,1,0,0,0,0,1,,,,,,,,,,,,,
657f8b138be1350284dfe854,TCN,2024-06-25_19h16.32.957,LearnStrategy,2023.2.3,Win32,60.24096386,7,1,2,-0.020833333,-0.018229167,1,0,0,1.663,rock_grid_rect_2,6,11,-1,-1,1.663,-0.10546875,-0.384114583,1,0,0,1.826,Pegmatite_rect,6,1.826,1,1,0,1,0,1,,,,,,,,,,,,,
657f8b138be1350284dfe854,TCN,2024-06-25_19h16.32.957,LearnStrategy,2023.2.3,Win32,60.24096386,7,1,3,-0.024739583,0,1,0,0,1.8546,rock_grid_rect_2,3,13,-1,-1,1.855,0.109375,-0.256510417,1,0,0,1.58,Diorite_rect,3,1.58,1,2,0,2,0,1,,,,,,,,,,,,,
657f8b138be1350284dfe854,TCN,2024-06-25_19h16.32.957,LearnStrategy,2023.2.3,Win32,60.24096386,7,1,4,-0.046875,-0.01953125,1,0,0,1.1642,rock_grid_rect_2,8,13,-1,-1,1.164,0.358072917,-0.401041667,1,0,0,1.574,Pumice_rect,8,1.574,1,3,0,3,0,1,,,,,,,,,,,,,
657f8b138be1350284dfe854,TCN,2024-06-25_19h16.32.957,LearnStrategy,2023.2.3,Win32,60.24096386,7,1,5,-0.061197917,0,1,0,0,1.0321,rock_grid_rect_2,2,01,-1,-1,1.032,-0.071614583,-0.252604167,1,0,0,1.1267,Basalt_rect,2,1.127,1,4,0,4,0,1,,,,,,,,,,,,,
657f8b138be1350284dfe854,TCN,2024-06-25_19h16.32.957,LearnStrategy,2023.2.3,Win32,60.24096386,7,1,6,0.037760417,-0.014322917,1,0,0,1.0148,rock_grid_rect_2,3,14,-1,-1,1.015,0.130208333,-0.259114583,1,0,0,2.046,Diorite_rect,3,2.046,1,5,0,5,0,1,,,,,,,,,,,,,
657f8b138be1350284dfe854,TCN,2024-06-25_19h16.32.957,LearnStrategy,2023.2.3,Win32,60.24096386,7,1,7,-0.037760417,-0.01171875,1,0,0,1.1634,rock_grid_rect_2,1,10,-1,-1,1.163,0.350260417,-0.270833333,1,0,0,1.6154,Gabbro_rect,4,1.615,0,6,0,6,0,1,,,,,,,,,,,,,
657f8b138be1350284dfe854,TCN,2024-06-25_19h16.32.957,LearnStrategy,2023.2.3,Win32,60.24096386,7,1,8,-0.1328125,0.0078125,1,0,0,1.2151,rock_grid_rect_2,8,05,-1,-1,1.215,0.350260417,-0.412760417,1,0,0,1.3197,Pumice_rect,8,1.32,1,7,0,7,0,1,,,,,,,,,,,,,
657f8b138be1350284dfe854,TCN,2024-06-25_19h16.32.957,LearnStrategy,2023.2.3,Win32,60.24096386,7,1,9,0.013020833,-0.013020833,1,0,0,0.9814,rock_grid_rect_2,7,10,-1,-1,0.981,0.135416667,-0.380208333,1,0,0,1.2104,Peridotite_rect,7,1.21,1,8,0,8,0,1,,,,,,,,,,,,,
657f8b138be1350284dfe854,TCN,2024-06-25_19h16.32.957,LearnStrategy,2023.2.3,Win32,60.24096386,7,1,10,0.049479167,-0.018229167,1,0,0,0.898,rock_grid_rect_2,5,11,-1,-1,0.898,-0.372395833,-0.380208333,1,0,0,1.375,Obsidian_rect,5,1.375,1,9,0,9,0,1,,,,,,,,,,,,,
657f8b138be1350284dfe854,TCN,2024-06-25_19h16.32.957,LearnStrategy,2023.2.3,Win32,60.24096386,7,1,11,0.069010417,0.009114583,1,0,0,1.3316,rock_grid_rect_2,2,12,-1,-1,1.332,-0.338541667,-0.243489583,1,0,0,2.3195,Andesite_rect,1,2.319,0,10,0,10,0,1,,,,,,,,,,,,,
657f8b138be1350284dfe854,TCN,2024-06-25_19h16.32.957,LearnStrategy,2023.2.3,Win32,60.24096386,7,1,12,-0.020833333,-0.015625,1,0,0,1.1536,rock_grid_rect_2,1,05,-1,-1,1.154,-0.364583333,-0.26171875,1,0,0,3.268,Andesite_rect,1,3.268,1,11,0,11,0,1,,,,,,,,,,,,,
657f8b138be1350284dfe854,TCN,2024-06-25_19h16.32.957,LearnStrategy,2023.2.3,Win32,60.24096386,7,1,13,0.009114583,0.014322917,1,0,0,1.0717,rock_grid_rect_2,4,12,-1,-1,1.072,0.36328125,-0.25,1,0,0,1.5624,Gabbro_rect,4,1.562,1,12,0,12,0,1,,,,,,,,,,,,,
657f8b138be1350284dfe854,TCN,2024-06-25_19h16.32.957,LearnStrategy,2023.2.3,Win32,60.24096386,7,1,14,-0.111979167,0.013020833,1,0,0,1.189,rock_grid_rect_2,5,07,-1,-1,1.189,-0.33984375,-0.3984375,1,0,0,1.2139,Obsidian_rect,5,1.214,1,13,0,13,0,1,,,,,,,,,,,,,
657f8b138be1350284dfe854,TCN,2024-06-25_19h16.32.957,LearnStrategy,2023.2.3,Win32,60.24096386,7,1,15,0.032552083,-0.010416667,1,0,0,1.0646,rock_grid_rect_2,6,12,-1,-1,1.065,-0.111979167,-0.421875,1,0,0,1.7188,Pegmatite_rect,6,1.719,1,14,0,14,0,1,,,,,,,,,,,,,
657f8b138be1350284dfe854,TCN,2024-06-25_19h16.32.957,LearnStrategy,2023.2.3,Win32,60.24096386,7,1,16,0.095052083,-0.010416667,1,0,0,0.8723,rock_grid_rect_2,4,13,-1,-1,0.872,0.372395833,-0.251302083,1,0,0,2.1201,Gabbro_rect,4,2.12,1,15,0,15,0,1,,,,,,,,,,,,,
657f8b138be1350284dfe854,TCN,2024-06-25_19h16.32.957,LearnStrategy,2023.2.3,Win32,60.24096386,7,2,1,,,,,,,,4,05,,,,,,,,,,,3,9.009,0,,,,,,0.1015625,-0.243489583,1,0,0,9.009,Diorite_rect,0,0,0,0,1,
657f8b138be1350284dfe854,TCN,2024-06-25_19h16.32.957,LearnStrategy,2023.2.3,Win32,60.24096386,7,2,2,,,,,,,,8,04,,,,,,,,,,,8,1.944,1,,,,,,0.39453125,-0.397135417,1,0,0,1.9438,Pumice_rect,1,0,1,0,1,
657f8b138be1350284dfe854,TCN,2024-06-25_19h16.32.957,LearnStrategy,2023.2.3,Win32,60.24096386,7,2,3,,,,,,,,1,14,,,,,,,,,,,3,5.343,0,,,,,,0.119791667,-0.266927083,1,0,0,5.3427,Diorite_rect,2,0,2,0,1,
657f8b138be1350284dfe854,TCN,2024-06-25_19h16.32.957,LearnStrategy,2023.2.3,Win32,60.24096386,7,2,4,,,,,,,,3,16,,,,,,,,,,,3,1.824,1,,,,,,0.122395833,-0.255208333,1,0,0,1.8235,Diorite_rect,3,0,3,0,1,
657f8b138be1350284dfe854,TCN,2024-06-25_19h16.32.957,LearnStrategy,2023.2.3,Win32,60.24096386,7,2,5,,,,,,,,2,02,,,,,,,,,,,2,1.385,1,,,,,,-0.087239583,-0.240885417,1,0,0,1.3846,Basalt_rect,4,0,4,0,1,
657f8b138be1350284dfe854,TCN,2024-06-25_19h16.32.957,LearnStrategy,2023.2.3,Win32,60.24096386,7,2,6,,,,,,,,7,06,,,,,,,,,,,6,1.019,0,,,,,,-0.174479167,-0.41015625,1,0,0,1.019,Pegmatite_rect,5,0,5,0,1,
657f8b138be1350284dfe854,TCN,2024-06-25_19h16.32.957,LearnStrategy,2023.2.3,Win32,60.24096386,7,2,7,,,,,,,,1,06,,,,,,,,,,,3,2.04,0,,,,,,0.079427083,-0.2421875,1,0,0,2.0402,Diorite_rect,6,0,6,0,1,
657f8b138be1350284dfe854,TCN,2024-06-25_19h16.32.957,LearnStrategy,2023.2.3,Win32,60.24096386,7,2,8,,,,,,,,5,10,,,,,,,,,,,5,2.302,1,,,,,,-0.377604167,-0.412760417,1,0,0,2.3024,Obsidian_rect,7,0,7,0,1,
657f8b138be1350284dfe854,TCN,2024-06-25_19h16.32.957,LearnStrategy,2023.2.3,Win32,60.24096386,7,2,9,,,,,,,,3,07,,,,,,,,,,,7,6.043,0,,,,,,0.09765625,-0.391927083,1,0,0,6.0427,Peridotite_rect,8,0,8,0,1,
657f8b138be1350284dfe854,TCN,2024-06-25_19h16.32.957,LearnStrategy,2023.2.3,Win32,60.24096386,7,2,10,,,,,,,,2,08,,,,,,,,,,,2,1.369,1,,,,,,-0.08203125,-0.240885417,1,0,0,1.3689,Basalt_rect,9,0,9,0,1,
657f8b138be1350284dfe854,TCN,2024-06-25_19h16.32.957,LearnStrategy,2023.2.3,Win32,60.24096386,7,2,11,,,,,,,,4,03,,,,,,,,,,,3,1.701,0,,,,,,0.109375,-0.251302083,1,0,0,1.7013,Diorite_rect,10,0,10,0,1,
657f8b138be1350284dfe854,TCN,2024-06-25_19h16.32.957,LearnStrategy,2023.2.3,Win32,60.24096386,7,2,12,,,,,,,,6,07,,,,,,,,,,,6,1.082,1,,,,,,-0.108072917,-0.395833333,1,0,0,1.0819,Pegmatite_rect,11,0,11,0,1,
657f8b138be1350284dfe854,TCN,2024-06-25_19h16.32.957,LearnStrategy,2023.2.3,Win32,60.24096386,7,2,13,,,,,,,,7,16,,,,,,,,,,,7,1.869,1,,,,,,0.109375,-0.397135417,1,0,0,1.8693,Peridotite_rect,12,0,12,0,1,
657f8b138be1350284dfe854,TCN,2024-06-25_19h16.32.957,LearnStrategy,2023.2.3,Win32,60.24096386,7,2,14,,,,,,,,5,02,,,,,,,,,,,5,1.32,1,,,,,,-0.356770833,-0.388020833,1,0,0,1.3195,Obsidian_rect,13,0,13,0,1,
657f8b138be1350284dfe854,TCN,2024-06-25_19h16.32.957,LearnStrategy,2023.2.3,Win32,60.24096386,7,2,15,,,,,,,,6,03,,,,,,,,,,,6,1.605,1,,,,,,-0.111979167,-0.38671875,1,0,0,1.6051,Pegmatite_rect,14,0,14,0,1,
657f8b138be1350284dfe854,TCN,2024-06-25_19h16.32.957,LearnStrategy,2023.2.3,Win32,60.24096386,7,2,16,,,,,,,,8,03,,,,,,,,,,,8,1.745,1,,,,,,0.385416667,-0.399739583,1,0,0,1.7454,Pumice_rect,15,0,15,0,1,
657f8b138be1350284dfe854,TCN,2024-06-25_19h16.32.957,LearnStrategy,2023.2.3,Win32,60.24096386,8,1,1,0.0390625,0.00390625,1,0,0,1.4527,rock_grid_rect_2,2,04,-1,-1,1.453,-0.109375,-0.239583333,1,0,0,4.4056,Basalt_rect,2,4.406,1,0,0,0,0,1,,,,,,,,,,,,,
657f8b138be1350284dfe854,TCN,2024-06-25_19h16.32.957,LearnStrategy,2023.2.3,Win32,60.24096386,8,1,2,-0.002604167,-0.018229167,1,0,0,1.3041,rock_grid_rect_2,1,03,-1,-1,1.304,-0.325520833,-0.263020833,1,0,0,2.0347,Andesite_rect,1,2.035,1,1,0,1,0,1,,,,,,,,,,,,,
657f8b138be1350284dfe854,TCN,2024-06-25_19h16.32.957,LearnStrategy,2023.2.3,Win32,60.24096386,8,1,3,0.018229167,-0.01953125,1,0,0,1.1648,rock_grid_rect_2,1,07,-1,-1,1.165,0.149739583,-0.251302083,1,0,0,1.2929,Diorite_rect,3,1.293,0,2,0,2,0,1,,,,,,,,,,,,,
657f8b138be1350284dfe854,TCN,2024-06-25_19h16.32.957,LearnStrategy,2023.2.3,Win32,60.24096386,8,1,4,-0.013020833,-0.002604167,1,0,0,1.0818,rock_grid_rect_2,6,06,-1,-1,1.082,-0.080729167,-0.37890625,1,0,0,1.2522,Pegmatite_rect,6,1.252,1,3,0,3,0,1,,,,,,,,,,,,,
657f8b138be1350284dfe854,TCN,2024-06-25_19h16.32.957,LearnStrategy,2023.2.3,Win32,60.24096386,8,1,5,0.087239583,0.022135417,1,0,0,1.4882,rock_grid_rect_2,4,16,-1,-1,1.488,0.34375,-0.240885417,1,0,0,1.296,Gabbro_rect,4,1.296,1,4,0,4,0,1,,,,,,,,,,,,,
657f8b138be1350284dfe854,TCN,2024-06-25_19h16.32.957,LearnStrategy,2023.2.3,Win32,60.24096386,8,1,6,0.067708333,-0.00390625,1,0,0,0.898,rock_grid_rect_2,5,12,-1,-1,0.898,-0.365885417,-0.38671875,1,0,0,1.7526,Obsidian_rect,5,1.753,1,5,0,5,0,1,,,,,,,,,,,,,
657f8b138be1350284dfe854,TCN,2024-06-25_19h16.32.957,LearnStrategy,2023.2.3,Win32,60.24096386,8,1,7,0.065104167,0.01171875,1,0,0,1.3222,rock_grid_rect_2,7,05,-1,-1,1.322,-0.106770833,-0.420572917,1,0,0,1.9702,Pegmatite_rect,6,1.97,0,6,0,6,0,1,,,,,,,,,,,,,
657f8b138be1350284dfe854,TCN,2024-06-25_19h16.32.957,LearnStrategy,2023.2.3,Win32,60.24096386,8,1,8,-0.04296875,-0.01171875,1,0,0,0.9673,rock_grid_rect_2,7,12,-1,-1,0.967,0.154947917,-0.397135417,1,0,0,0.9958,Peridotite_rect,7,0.996,1,7,0,7,0,1,,,,,,,,,,,,,
657f8b138be1350284dfe854,TCN,2024-06-25_19h16.32.957,LearnStrategy,2023.2.3,Win32,60.24096386,8,1,9,-0.059895833,-0.018229167,1,0,0,1.1216,rock_grid_rect_2,3,06,-1,-1,1.122,0.149739583,-0.264322917,1,0,0,1.4346,Diorite_rect,3,1.435,1,8,0,8,0,1,,,,,,,,,,,,,
657f8b138be1350284dfe854,TCN,2024-06-25_19h16.32.957,LearnStrategy,2023.2.3,Win32,60.24096386,8,1,10,-0.013020833,-0.005208333,1,0,0,0.9654,rock_grid_rect_2,8,06,-1,-1,0.965,0.368489583,-0.395833333,1,0,0,1.2764,Pumice_rect,8,1.276,1,9,0,9,0,1,,,,,,,,,,,,,
657f8b138be1350284dfe854,TCN,2024-06-25_19h16.32.957,LearnStrategy,2023.2.3,Win32,60.24096386,8,1,11,0.108072917,0.024739583,1,0,0,1.0822,rock_grid_rect_2,6,13,-1,-1,1.082,-0.07421875,-0.403645833,1,0,0,1.8933,Pegmatite_rect,6,1.893,1,10,0,10,0,1,,,,,,,,,,,,,
657f8b138be1350284dfe854,TCN,2024-06-25_19h16.32.957,LearnStrategy,2023.2.3,Win32,60.24096386,8,1,12,0.061197917,0.0078125,1,0,0,1.1812,rock_grid_rect_2,2,14,-1,-1,1.181,0.346354167,-0.26171875,1,0,0,1.2266,Gabbro_rect,4,1.227,0,11,0,11,0,1,,,,,,,,,,,,,
657f8b138be1350284dfe854,TCN,2024-06-25_19h16.32.957,LearnStrategy,2023.2.3,Win32,60.24096386,8,1,13,-0.072916667,-0.00390625,1,0,0,1.5314,rock_grid_rect_2,5,14,-1,-1,1.531,-0.365885417,-0.412760417,1,0,0,1.2357,Obsidian_rect,5,1.236,1,12,0,12,0,1,,,,,,,,,,,,,
657f8b138be1350284dfe854,TCN,2024-06-25_19h16.32.957,LearnStrategy,2023.2.3,Win32,60.24096386,8,1,14,0.071614583,0.022135417,1,0,0,1.0816,rock_grid_rect_2,3,15,-1,-1,1.082,0.100260417,-0.256510417,1,0,0,1.825,Diorite_rect,3,1.825,1,13,0,13,0,1,,,,,,,,,,,,,
657f8b138be1350284dfe854,TCN,2024-06-25_19h16.32.957,LearnStrategy,2023.2.3,Win32,60.24096386,8,1,15,-0.01171875,-0.01953125,1,0,0,1.1133,rock_grid_rect_2,8,16,-1,-1,1.113,0.401041667,-0.229166667,1,0,0,1.206,Gabbro_rect,4,1.206,0,14,0,14,0,1,,,,,,,,,,,,,
657f8b138be1350284dfe854,TCN,2024-06-25_19h16.32.957,LearnStrategy,2023.2.3,Win32,60.24096386,8,1,16,-0.041666667,-0.009114583,1,0,0,1.3881,rock_grid_rect_2,4,15,-1,-1,1.388,0.161458333,-0.2421875,1,0,0,1.1445,Diorite_rect,3,1.144,0,15,0,15,0,1,,,,,,,,,,,,,
657f8b138be1350284dfe854,TCN,2024-06-25_19h16.32.957,LearnStrategy,2023.2.3,Win32,60.24096386,8,2,1,,,,,,,,8,14,,,,,,,,,,,8,1.836,1,,,,,,0.377604167,-0.404947917,0,0,1,1.8362,Pumice_rect,0,0,0,0,1,
657f8b138be1350284dfe854,TCN,2024-06-25_19h16.32.957,LearnStrategy,2023.2.3,Win32,60.24096386,8,2,2,,,,,,,,7,13,,,,,,,,,,,7,5.239,1,,,,,,0.138020833,-0.415364583,1,0,0,5.2385,Peridotite_rect,1,0,1,0,1,
657f8b138be1350284dfe854,TCN,2024-06-25_19h16.32.957,LearnStrategy,2023.2.3,Win32,60.24096386,8,2,3,,,,,,,,6,05,,,,,,,,,,,6,2.118,1,,,,,,-0.119791667,-0.412760417,1,0,0,2.1176,Pegmatite_rect,2,0,2,0,1,
657f8b138be1350284dfe854,TCN,2024-06-25_19h16.32.957,LearnStrategy,2023.2.3,Win32,60.24096386,8,2,4,,,,,,,,5,06,,,,,,,,,,,5,1.297,1,,,,,,-0.403645833,-0.3984375,1,0,0,1.2973,Obsidian_rect,3,0,3,0,1,
657f8b138be1350284dfe854,TCN,2024-06-25_19h16.32.957,LearnStrategy,2023.2.3,Win32,60.24096386,8,2,5,,,,,,,,1,11,,,,,,,,,,,2,10.572,0,,,,,,-0.1484375,-0.251302083,1,0,0,10.5724,Basalt_rect,4,0,4,0,1,
657f8b138be1350284dfe854,TCN,2024-06-25_19h16.32.957,LearnStrategy,2023.2.3,Win32,60.24096386,8,2,6,,,,,,,,3,12,,,,,,,,,,,3,2.005,1,,,,,,0.141927083,-0.263020833,1,0,0,2.0051,Diorite_rect,5,0,5,0,1,
657f8b138be1350284dfe854,TCN,2024-06-25_19h16.32.957,LearnStrategy,2023.2.3,Win32,60.24096386,8,2,7,,,,,,,,2,05,,,,,,,,,,,2,2.382,1,,,,,,-0.111979167,-0.240885417,1,0,0,2.3821,Basalt_rect,6,0,6,0,1,
657f8b138be1350284dfe854,TCN,2024-06-25_19h16.32.957,LearnStrategy,2023.2.3,Win32,60.24096386,8,2,8,,,,,,,,5,09,,,,,,,,,,,5,1.212,1,,,,,,-0.321614583,-0.3828125,1,0,0,1.2123,Obsidian_rect,7,0,7,0,1,
657f8b138be1350284dfe854,TCN,2024-06-25_19h16.32.957,LearnStrategy,2023.2.3,Win32,60.24096386,8,2,9,,,,,,,,4,10,,,,,,,,,,,1,4.626,0,,,,,,-0.350260417,-0.26171875,1,0,0,4.6255,Andesite_rect,8,0,8,0,1,
657f8b138be1350284dfe854,TCN,2024-06-25_19h16.32.957,LearnStrategy,2023.2.3,Win32,60.24096386,8,2,10,,,,,,,,2,16,,,,,,,,,,,4,1.503,0,,,,,,0.4296875,-0.266927083,1,0,0,1.503,Gabbro_rect,9,0,9,0,1,
657f8b138be1350284dfe854,TCN,2024-06-25_19h16.32.957,LearnStrategy,2023.2.3,Win32,60.24096386,8,2,11,,,,,,,,3,09,,,,,,,,,,,3,2.232,1,,,,,,0.13671875,-0.26953125,1,0,0,2.2321,Diorite_rect,10,0,10,0,1,
657f8b138be1350284dfe854,TCN,2024-06-25_19h16.32.957,LearnStrategy,2023.2.3,Win32,60.24096386,8,2,12,,,,,,,,7,15,,,,,,,,,,,7,1.026,1,,,,,,0.123697917,-0.390625,1,0,0,1.0261,Peridotite_rect,11,0,11,0,1,
657f8b138be1350284dfe854,TCN,2024-06-25_19h16.32.957,LearnStrategy,2023.2.3,Win32,60.24096386,8,2,13,,,,,,,,8,02,,,,,,,,,,,3,1.881,0,,,,,,0.110677083,-0.251302083,1,0,0,1.8814,Diorite_rect,12,0,12,0,1,
657f8b138be1350284dfe854,TCN,2024-06-25_19h16.32.957,LearnStrategy,2023.2.3,Win32,60.24096386,8,2,14,,,,,,,,6,16,,,,,,,,,,,6,1.193,1,,,,,,-0.1015625,-0.38671875,1,0,0,1.1929,Pegmatite_rect,13,0,13,0,1,
657f8b138be1350284dfe854,TCN,2024-06-25_19h16.32.957,LearnStrategy,2023.2.3,Win32,60.24096386,8,2,15,,,,,,,,4,01,,,,,,,,,,,7,4.075,0,,,,,,0.07421875,-0.401041667,1,0,0,4.0754,Peridotite_rect,14,0,14,0,1,
657f8b138be1350284dfe854,TCN,2024-06-25_19h16.32.957,LearnStrategy,2023.2.3,Win32,60.24096386,8,2,16,,,,,,,,1,01,,,,,,,,,,,1,6.637,1,,,,,,-0.329427083,-0.252604167,1,0,0,6.6372,Andesite_rect,15,0,15,0,1,
657f8b138be1350284dfe854,TCN,2024-06-25_19h16.32.957,LearnStrategy,2023.2.3,Win32,60.24096386,9,1,1,0.024739583,0,1,0,0,1.0819,rock_grid_rect_2,3,10,-1,-1,1.082,0.125,-0.264322917,1,0,0,1.3091,Diorite_rect,3,1.309,1,0,0,0,0,1,,,,,,,,,,,,,
657f8b138be1350284dfe854,TCN,2024-06-25_19h16.32.957,LearnStrategy,2023.2.3,Win32,60.24096386,9,1,2,0.0234375,0.018229167,1,0,0,0.9642,rock_grid_rect_2,2,10,-1,-1,0.964,0.407552083,-0.252604167,1,0,0,2.6523,Gabbro_rect,4,2.652,0,1,0,1,0,1,,,,,,,,,,,,,
657f8b138be1350284dfe854,TCN,2024-06-25_19h16.32.957,LearnStrategy,2023.2.3,Win32,60.24096386,9,1,3,-0.06640625,-0.020833333,1,0,0,1.194,rock_grid_rect_2,6,09,-1,-1,1.194,-0.078125,-0.390625,1,0,0,1.7925,Pegmatite_rect,6,1.793,1,2,0,2,0,1,,,,,,,,,,,,,
657f8b138be1350284dfe854,TCN,2024-06-25_19h16.32.957,LearnStrategy,2023.2.3,Win32,60.24096386,9,1,4,0.08203125,0.002604167,1,0,0,1.2818,rock_grid_rect_2,7,08,-1,-1,1.282,0.110677083,-0.391927083,1,0,0,3.3599,Peridotite_rect,7,3.36,1,3,0,3,0,1,,,,,,,,,,,,,
657f8b138be1350284dfe854,TCN,2024-06-25_19h16.32.957,LearnStrategy,2023.2.3,Win32,60.24096386,9,1,5,-0.001302083,-0.009114583,1,0,0,1.3468,rock_grid_rect_2,1,09,-1,-1,1.347,-0.299479167,-0.266927083,1,0,0,1.763,Andesite_rect,1,1.763,1,4,0,4,0,1,,,,,,,,,,,,,
657f8b138be1350284dfe854,TCN,2024-06-25_19h16.32.957,LearnStrategy,2023.2.3,Win32,60.24096386,9,1,6,0.084635417,0.005208333,1,0,0,1.1804,rock_grid_rect_2,8,10,-1,-1,1.18,0.404947917,-0.384114583,1,0,0,1.5764,Pumice_rect,8,1.576,1,5,0,5,0,1,,,,,,,,,,,,,
657f8b138be1350284dfe854,TCN,2024-06-25_19h16.32.957,LearnStrategy,2023.2.3,Win32,60.24096386,9,1,7,-0.001302083,0.015625,1,0,0,1.1152,rock_grid_rect_2,5,05,-1,-1,1.115,-0.358072917,-0.40625,1,0,0,1.4941,Obsidian_rect,5,1.494,1,6,0,6,0,1,,,,,,,,,,,,,
657f8b138be1350284dfe854,TCN,2024-06-25_19h16.32.957,LearnStrategy,2023.2.3,Win32,60.24096386,9,1,8,0.08984375,0.016927083,1,0,0,1.5491,rock_grid_rect_2,2,09,-1,-1,1.549,-0.118489583,-0.247395833,1,0,0,3.5086,Basalt_rect,2,3.509,1,7,0,7,0,1,,,,,,,,,,,,,
657f8b138be1350284dfe854,TCN,2024-06-25_19h16.32.957,LearnStrategy,2023.2.3,Win32,60.24096386,9,1,9,0.092447917,-0.005208333,1,0,0,1.0469,rock_grid_rect_2,6,15,-1,-1,1.047,-0.12109375,-0.421875,1,0,0,1.2436,Pegmatite_rect,6,1.244,1,8,0,8,0,1,,,,,,,,,,,,,
657f8b138be1350284dfe854,TCN,2024-06-25_19h16.32.957,LearnStrategy,2023.2.3,Win32,60.24096386,9,1,10,0.065104167,-0.01171875,1,0,0,1.3146,rock_grid_rect_2,7,14,-1,-1,1.315,-0.0625,-0.404947917,1,0,0,2.2146,Pegmatite_rect,6,2.215,0,9,0,9,0,1,,,,,,,,,,,,,
657f8b138be1350284dfe854,TCN,2024-06-25_19h16.32.957,LearnStrategy,2023.2.3,Win32,60.24096386,9,1,11,0.092447917,-0.009114583,1,0,0,0.8977,rock_grid_rect_2,5,16,-1,-1,0.898,-0.375,-0.389322917,1,0,0,1.653,Obsidian_rect,5,1.653,1,10,0,10,0,1,,,,,,,,,,,,,
657f8b138be1350284dfe854,TCN,2024-06-25_19h16.32.957,LearnStrategy,2023.2.3,Win32,60.24096386,9,1,12,0.088541667,-0.010416667,1,0,0,1.0976,rock_grid_rect_2,8,09,-1,-1,1.098,0.404947917,-0.399739583,1,0,0,1.8184,Pumice_rect,8,1.818,1,11,0,11,0,1,,,,,,,,,,,,,
657f8b138be1350284dfe854,TCN,2024-06-25_19h16.32.957,LearnStrategy,2023.2.3,Win32,60.24096386,9,1,13,0.005208333,-0.009114583,1,0,0,1.064,rock_grid_rect_2,1,04,-1,-1,1.064,0.372395833,-0.24609375,1,0,0,2.7007,Gabbro_rect,4,2.701,0,12,0,12,0,1,,,,,,,,,,,,,
657f8b138be1350284dfe854,TCN,2024-06-25_19h16.32.957,LearnStrategy,2023.2.3,Win32,60.24096386,9,1,14,-0.045572917,-0.001302083,1,0,0,2.3972,rock_grid_rect_2,4,08,-1,-1,2.397,0.114583333,-0.234375,1,0,0,1.443,Diorite_rect,3,1.443,0,13,0,13,0,1,,,,,,,,,,,,,
657f8b138be1350284dfe854,TCN,2024-06-25_19h16.32.957,LearnStrategy,2023.2.3,Win32,60.24096386,9,1,15,-0.00390625,-0.014322917,1,0,0,1.8238,rock_grid_rect_2,4,11,-1,-1,1.824,-0.346354167,-0.23046875,1,0,0,2.0256,Andesite_rect,1,2.026,0,14,0,14,0,1,,,,,,,,,,,,,
657f8b138be1350284dfe854,TCN,2024-06-25_19h16.32.957,LearnStrategy,2023.2.3,Win32,60.24096386,9,1,16,-0.05078125,-0.014322917,1,0,0,1.2313,rock_grid_rect_2,3,11,-1,-1,1.231,0.114583333,-0.259114583,1,0,0,1.9537,Diorite_rect,3,1.954,1,15,0,15,0,1,,,,,,,,,,,,,
657f8b138be1350284dfe854,TCN,2024-06-25_19h16.32.957,LearnStrategy,2023.2.3,Win32,60.24096386,9,2,1,,,,,,,,3,02,,,,,,,,,,,3,2.976,1,,,,,,0.126302083,-0.266927083,1,0,0,2.9761,Diorite_rect,0,0,0,0,1,
657f8b138be1350284dfe854,TCN,2024-06-25_19h16.32.957,LearnStrategy,2023.2.3,Win32,60.24096386,9,2,2,,,,,,,,6,10,,,,,,,,,,,6,1.825,1,,,,,,-0.143229167,-0.399739583,1,0,0,1.8254,Pegmatite_rect,1,0,1,0,1,
657f8b138be1350284dfe854,TCN,2024-06-25_19h16.32.957,LearnStrategy,2023.2.3,Win32,60.24096386,9,2,3,,,,,,,,1,02,,,,,,,,,,,4,4.885,0,,,,,,0.412760417,-0.26953125,1,0,0,4.8847,Gabbro_rect,2,0,2,0,1,
657f8b138be1350284dfe854,TCN,2024-06-25_19h16.32.957,LearnStrategy,2023.2.3,Win32,60.24096386,9,2,4,,,,,,,,8,08,,,,,,,,,,,8,1.484,1,,,,,,0.348958333,-0.40234375,1,0,0,1.4838,Pumice_rect,3,0,3,0,1,
657f8b138be1350284dfe854,TCN,2024-06-25_19h16.32.957,LearnStrategy,2023.2.3,Win32,60.24096386,9,2,5,,,,,,,,5,08,,,,,,,,,,,5,1.425,1,,,,,,-0.369791667,-0.395833333,1,0,0,1.4255,Obsidian_rect,4,0,4,0,1,
657f8b138be1350284dfe854,TCN,2024-06-25_19h16.32.957,LearnStrategy,2023.2.3,Win32,60.24096386,9,2,6,,,,,,,,4,09,,,,,,,,,,,4,6.342,1,,,,,,0.39453125,-0.235677083,1,0,0,6.3423,Gabbro_rect,5,0,5,0,1,
657f8b138be1350284dfe854,TCN,2024-06-25_19h16.32.957,LearnStrategy,2023.2.3,Win32,60.24096386,9,2,7,,,,,,,,8,15,,,,,,,,,,,8,1.769,1,,,,,,0.37109375,-0.39453125,1,0,0,1.7685,Pumice_rect,6,0,6,0,1,
657f8b138be1350284dfe854,TCN,2024-06-25_19h16.32.957,LearnStrategy,2023.2.3,Win32,60.24096386,9,2,8,,,,,,,,2,06,,,,,,,,,,,2,4.001,1,,,,,,-0.1328125,-0.239583333,1,0,0,4.0012,Basalt_rect,7,0,7,0,1,
657f8b138be1350284dfe854,TCN,2024-06-25_19h16.32.957,LearnStrategy,2023.2.3,Win32,60.24096386,9,2,9,,,,,,,,7,02,,,,,,,,,,,7,1.153,1,,,,,,0.102864583,-0.411458333,1,0,0,1.1526,Peridotite_rect,8,0,8,0,1,
657f8b138be1350284dfe854,TCN,2024-06-25_19h16.32.957,LearnStrategy,2023.2.3,Win32,60.24096386,9,2,10,,,,,,,,7,07,,,,,,,,,,,7,1.209,1,,,,,,0.139322917,-0.401041667,1,0,0,1.2093,Peridotite_rect,9,0,9,0,1,
657f8b138be1350284dfe854,TCN,2024-06-25_19h16.32.957,LearnStrategy,2023.2.3,Win32,60.24096386,9,2,11,,,,,,,,2,11,,,,,,,,,,,1,1.907,0,,,,,,-0.319010417,-0.23828125,1,0,0,1.9065,Andesite_rect,10,0,10,0,1,
657f8b138be1350284dfe854,TCN,2024-06-25_19h16.32.957,LearnStrategy,2023.2.3,Win32,60.24096386,9,2,12,,,,,,,,3,08,,,,,,,,,,,3,1.52,1,,,,,,0.138020833,-0.264322917,1,0,0,1.5199,Diorite_rect,11,0,11,0,1,
657f8b138be1350284dfe854,TCN,2024-06-25_19h16.32.957,LearnStrategy,2023.2.3,Win32,60.24096386,9,2,13,,,,,,,,4,14,,,,,,,,,,,2,7.005,0,,,,,,-0.12109375,-0.24609375,1,0,0,7.0051,Basalt_rect,12,0,12,0,1,
657f8b138be1350284dfe854,TCN,2024-06-25_19h16.32.957,LearnStrategy,2023.2.3,Win32,60.24096386,9,2,14,,,,,,,,1,16,,,,,,,,,,,3,1.202,0,,,,,,0.1328125,-0.23828125,1,0,0,1.2018,Diorite_rect,13,0,13,0,1,
657f8b138be1350284dfe854,TCN,2024-06-25_19h16.32.957,LearnStrategy,2023.2.3,Win32,60.24096386,9,2,15,,,,,,,,5,04,,,,,,,,,,,5,1.41,1,,,,,,-0.3359375,-0.401041667,1,0,0,1.4097,Obsidian_rect,14,0,14,0,1,
657f8b138be1350284dfe854,TCN,2024-06-25_19h16.32.957,LearnStrategy,2023.2.3,Win32,60.24096386,9,2,16,,,,,,,,6,08,,,,,,,,,,,6,1.327,1,,,,,,-0.147135417,-0.393229167,1,0,0,1.3265,Pegmatite_rect,15,0,15,0,1,
657f8b138be1350284dfe854,TCN,2024-06-25_19h16.32.957,LearnStrategy,2023.2.3,Win32,60.24096386,,,,,,,,,,,,,,,,,,,,,,,,,,,,,,,,,,,,,,,,,,,1
657f8b138be1350284dfe854,TCN,2024-06-25_19h16.32.957,LearnStrategy,2023.2.3,Win32,60.24096386,,,,,,,,,,,,,,,,,,,,,,,,,,,,,,,,,,,,,,,,,,,
657f8b138be1350284dfe854,TCN,2024-06-25_19h16.32.957,LearnStrategy,2023.2.3,Win32,60.24096386,,,,,,,,,,,3,10,1,1,,,,,,,,,,,,,,,,,,,,,,,,,,,,,
657f8b138be1350284dfe854,TCN,2024-06-25_19h16.32.957,LearnStrategy,2023.2.3,Win32,60.24096386,,,,,,,,,,,3,15,1,2,,,,,,,,,,,,,,,,,,,,,,,,,,,,,
657f8b138be1350284dfe854,TCN,2024-06-25_19h16.32.957,LearnStrategy,2023.2.3,Win32,60.24096386,,,,,,,,,,,7,12,1,3,,,,,,,,,,,,,,,,,,,,,,,,,,,,,
657f8b138be1350284dfe854,TCN,2024-06-25_19h16.32.957,LearnStrategy,2023.2.3,Win32,60.24096386,,,,,,,,,,,3,06,1,4,,,,,,,,,,,,,,,,,,,,,,,,,,,,,
657f8b138be1350284dfe854,TCN,2024-06-25_19h16.32.957,LearnStrategy,2023.2.3,Win32,60.24096386,,,,,,,,,,,6,15,1,5,,,,,,,,,,,,,,,,,,,,,,,,,,,,,
657f8b138be1350284dfe854,TCN,2024-06-25_19h16.32.957,LearnStrategy,2023.2.3,Win32,60.24096386,,,,,,,,,,,5,11,1,6,,,,,,,,,,,,,,,,,,,,,,,,,,,,,
657f8b138be1350284dfe854,TCN,2024-06-25_19h16.32.957,LearnStrategy,2023.2.3,Win32,60.24096386,,,,,,,,,,,4,11,1,7,,,,,,,,,,,,,,,,,,,,,,,,,,,,,
657f8b138be1350284dfe854,TCN,2024-06-25_19h16.32.957,LearnStrategy,2023.2.3,Win32,60.24096386,,,,,,,,,,,6,13,1,8,,,,,,,,,,,,,,,,,,,,,,,,,,,,,
657f8b138be1350284dfe854,TCN,2024-06-25_19h16.32.957,LearnStrategy,2023.2.3,Win32,60.24096386,,,,,,,,,,,5,14,2,1,,,,,,,,,,,,,,,,,,,,,,,,,,,,,
657f8b138be1350284dfe854,TCN,2024-06-25_19h16.32.957,LearnStrategy,2023.2.3,Win32,60.24096386,,,,,,,,,,,2,12,2,2,,,,,,,,,,,,,,,,,,,,,,,,,,,,,
657f8b138be1350284dfe854,TCN,2024-06-25_19h16.32.957,LearnStrategy,2023.2.3,Win32,60.24096386,,,,,,,,,,,4,13,2,3,,,,,,,,,,,,,,,,,,,,,,,,,,,,,
657f8b138be1350284dfe854,TCN,2024-06-25_19h16.32.957,LearnStrategy,2023.2.3,Win32,60.24096386,,,,,,,,,,,5,05,2,4,,,,,,,,,,,,,,,,,,,,,,,,,,,,,
657f8b138be1350284dfe854,TCN,2024-06-25_19h16.32.957,LearnStrategy,2023.2.3,Win32,60.24096386,,,,,,,,,,,2,14,2,5,,,,,,,,,,,,,,,,,,,,,,,,,,,,,
657f8b138be1350284dfe854,TCN,2024-06-25_19h16.32.957,LearnStrategy,2023.2.3,Win32,60.24096386,,,,,,,,,,,8,10,2,6,,,,,,,,,,,,,,,,,,,,,,,,,,,,,
657f8b138be1350284dfe854,TCN,2024-06-25_19h16.32.957,LearnStrategy,2023.2.3,Win32,60.24096386,,,,,,,,,,,1,05,2,7,,,,,,,,,,,,,,,,,,,,,,,,,,,,,
657f8b138be1350284dfe854,TCN,2024-06-25_19h16.32.957,LearnStrategy,2023.2.3,Win32,60.24096386,,,,,,,,,,,2,10,2,8,,,,,,,,,,,,,,,,,,,,,,,,,,,,,
657f8b138be1350284dfe854,TCN,2024-06-25_19h16.32.957,LearnStrategy,2023.2.3,Win32,60.24096386,,,,,,,,,,,2,04,3,1,,,,,,,,,,,,,,,,,,,,,,,,,,,,,
657f8b138be1350284dfe854,TCN,2024-06-25_19h16.32.957,LearnStrategy,2023.2.3,Win32,60.24096386,,,,,,,,,,,2,09,3,2,,,,,,,,,,,,,,,,,,,,,,,,,,,,,
657f8b138be1350284dfe854,TCN,2024-06-25_19h16.32.957,LearnStrategy,2023.2.3,Win32,60.24096386,,,,,,,,,,,3,14,3,3,,,,,,,,,,,,,,,,,,,,,,,,,,,,,
657f8b138be1350284dfe854,TCN,2024-06-25_19h16.32.957,LearnStrategy,2023.2.3,Win32,60.24096386,,,,,,,,,,,3,13,3,4,,,,,,,,,,,,,,,,,,,,,,,,,,,,,
657f8b138be1350284dfe854,TCN,2024-06-25_19h16.32.957,LearnStrategy,2023.2.3,Win32,60.24096386,,,,,,,,,,,7,05,3,5,,,,,,,,,,,,,,,,,,,,,,,,,,,,,
657f8b138be1350284dfe854,TCN,2024-06-25_19h16.32.957,LearnStrategy,2023.2.3,Win32,60.24096386,,,,,,,,,,,5,07,3,6,,,,,,,,,,,,,,,,,,,,,,,,,,,,,
657f8b138be1350284dfe854,TCN,2024-06-25_19h16.32.957,LearnStrategy,2023.2.3,Win32,60.24096386,,,,,,,,,,,6,09,3,7,,,,,,,,,,,,,,,,,,,,,,,,,,,,,
657f8b138be1350284dfe854,TCN,2024-06-25_19h16.32.957,LearnStrategy,2023.2.3,Win32,60.24096386,,,,,,,,,,,4,15,3,8,,,,,,,,,,,,,,,,,,,,,,,,,,,,,
657f8b138be1350284dfe854,TCN,2024-06-25_19h16.32.957,LearnStrategy,2023.2.3,Win32,60.24096386,,,,,,,,,,,4,08,4,1,,,,,,,,,,,,,,,,,,,,,,,,,,,,,
657f8b138be1350284dfe854,TCN,2024-06-25_19h16.32.957,LearnStrategy,2023.2.3,Win32,60.24096386,,,,,,,,,,,7,08,4,2,,,,,,,,,,,,,,,,,,,,,,,,,,,,,
657f8b138be1350284dfe854,TCN,2024-06-25_19h16.32.957,LearnStrategy,2023.2.3,Win32,60.24096386,,,,,,,,,,,4,16,4,3,,,,,,,,,,,,,,,,,,,,,,,,,,,,,
657f8b138be1350284dfe854,TCN,2024-06-25_19h16.32.957,LearnStrategy,2023.2.3,Win32,60.24096386,,,,,,,,,,,6,12,4,4,,,,,,,,,,,,,,,,,,,,,,,,,,,,,
657f8b138be1350284dfe854,TCN,2024-06-25_19h16.32.957,LearnStrategy,2023.2.3,Win32,60.24096386,,,,,,,,,,,3,11,4,5,,,,,,,,,,,,,,,,,,,,,,,,,,,,,
657f8b138be1350284dfe854,TCN,2024-06-25_19h16.32.957,LearnStrategy,2023.2.3,Win32,60.24096386,,,,,,,,,,,7,10,4,6,,,,,,,,,,,,,,,,,,,,,,,,,,,,,
657f8b138be1350284dfe854,TCN,2024-06-25_19h16.32.957,LearnStrategy,2023.2.3,Win32,60.24096386,,,,,,,,,,,7,04,4,7,,,,,,,,,,,,,,,,,,,,,,,,,,,,,
657f8b138be1350284dfe854,TCN,2024-06-25_19h16.32.957,LearnStrategy,2023.2.3,Win32,60.24096386,,,,,,,,,,,1,07,4,8,,,,,,,,,,,,,,,,,,,,,,,,,,,,,
657f8b138be1350284dfe854,TCN,2024-06-25_19h16.32.957,LearnStrategy,2023.2.3,Win32,60.24096386,,,,,,,,,,,1,09,5,1,,,,,,,,,,,,,,,,,,,,,,,,,,,,,
657f8b138be1350284dfe854,TCN,2024-06-25_19h16.32.957,LearnStrategy,2023.2.3,Win32,60.24096386,,,,,,,,,,,1,10,5,2,,,,,,,,,,,,,,,,,,,,,,,,,,,,,
657f8b138be1350284dfe854,TCN,2024-06-25_19h16.32.957,LearnStrategy,2023.2.3,Win32,60.24096386,,,,,,,,,,,6,06,5,3,,,,,,,,,,,,,,,,,,,,,,,,,,,,,
657f8b138be1350284dfe854,TCN,2024-06-25_19h16.32.957,LearnStrategy,2023.2.3,Win32,60.24096386,,,,,,,,,,,8,09,5,4,,,,,,,,,,,,,,,,,,,,,,,,,,,,,
657f8b138be1350284dfe854,TCN,2024-06-25_19h16.32.957,LearnStrategy,2023.2.3,Win32,60.24096386,,,,,,,,,,,7,14,5,5,,,,,,,,,,,,,,,,,,,,,,,,,,,,,
657f8b138be1350284dfe854,TCN,2024-06-25_19h16.32.957,LearnStrategy,2023.2.3,Win32,60.24096386,,,,,,,,,,,5,12,5,6,,,,,,,,,,,,,,,,,,,,,,,,,,,,,
657f8b138be1350284dfe854,TCN,2024-06-25_19h16.32.957,LearnStrategy,2023.2.3,Win32,60.24096386,,,,,,,,,,,1,04,5,7,,,,,,,,,,,,,,,,,,,,,,,,,,,,,
657f8b138be1350284dfe854,TCN,2024-06-25_19h16.32.957,LearnStrategy,2023.2.3,Win32,60.24096386,,,,,,,,,,,5,16,5,8,,,,,,,,,,,,,,,,,,,,,,,,,,,,,
657f8b138be1350284dfe854,TCN,2024-06-25_19h16.32.957,LearnStrategy,2023.2.3,Win32,60.24096386,,,,,,,,,,,1,03,6,1,,,,,,,,,,,,,,,,,,,,,,,,,,,,,
657f8b138be1350284dfe854,TCN,2024-06-25_19h16.32.957,LearnStrategy,2023.2.3,Win32,60.24096386,,,,,,,,,,,8,13,6,2,,,,,,,,,,,,,,,,,,,,,,,,,,,,,
657f8b138be1350284dfe854,TCN,2024-06-25_19h16.32.957,LearnStrategy,2023.2.3,Win32,60.24096386,,,,,,,,,,,8,05,6,3,,,,,,,,,,,,,,,,,,,,,,,,,,,,,
657f8b138be1350284dfe854,TCN,2024-06-25_19h16.32.957,LearnStrategy,2023.2.3,Win32,60.24096386,,,,,,,,,,,8,06,6,4,,,,,,,,,,,,,,,,,,,,,,,,,,,,,
657f8b138be1350284dfe854,TCN,2024-06-25_19h16.32.957,LearnStrategy,2023.2.3,Win32,60.24096386,,,,,,,,,,,6,11,6,5,,,,,,,,,,,,,,,,,,,,,,,,,,,,,
657f8b138be1350284dfe854,TCN,2024-06-25_19h16.32.957,LearnStrategy,2023.2.3,Win32,60.24096386,,,,,,,,,,,4,12,6,6,,,,,,,,,,,,,,,,,,,,,,,,,,,,,
657f8b138be1350284dfe854,TCN,2024-06-25_19h16.32.957,LearnStrategy,2023.2.3,Win32,60.24096386,,,,,,,,,,,2,01,6,7,,,,,,,,,,,,,,,,,,,,,,,,,,,,,
657f8b138be1350284dfe854,TCN,2024-06-25_19h16.32.957,LearnStrategy,2023.2.3,Win32,60.24096386,,,,,,,,,,,8,16,6,8,,,,,,,,,,,,,,,,,,,,,,,,,,,,,