participant,condition,date,expName,psychopyVersion,OS,frameRate,block,phase,trial,learn_mouse_2.x,learn_mouse_2.y,learn_mouse_2.leftButton,learn_mouse_2.midButton,learn_mouse_2.rightButton,learn_mouse_2.time,learn_mouse_2.clicked_name,cat,token,row,col,t_select,cat_mouse_l.x,cat_mouse_l.y,cat_mouse_l.leftButton,cat_mouse_l.midButton,cat_mouse_l.rightButton,cat_mouse_l.time,cat_mouse_l.clicked_name,resp,t_resp,corr,train_trials.thisRepN,train_trials.thisTrialN,train_trials.thisN,train_trials.thisIndex,train_trials.ran,cat_mouse_t.x,cat_mouse_t.y,cat_mouse_t.leftButton,cat_mouse_t.midButton,cat_mouse_t.rightButton,cat_mouse_t.time,cat_mouse_t.clicked_name,test_trials.thisRepN,test_trials.thisTrialN,test_trials.thisN,test_trials.thisIndex,test_trials.ran,Bonus
6595e3b4dc9090390e4edb5f,TCN,2024-06-25_11h29.13.343,LearnStrategy,2023.2.3,Win32,74.62686567,,,,,,,,,,,,,,,,,,,,,,,,,,,,,,,,,,,,,,,,,,,
6595e3b4dc9090390e4edb5f,TCN,2024-06-25_11h29.13.343,LearnStrategy,2023.2.3,Win32,74.62686567,1,1,1,0.013888889,-0.002777778,1,0,0,6.6893,rock_grid_rect_2,7,04,-1,-1,6.689,0.173148148,-0.406481481,1,0,0,16.7863,Peridotite_rect,7,16.786,1,0,0,0,0,1,,,,,,,,,,,,,
6595e3b4dc9090390e4edb5f,TCN,2024-06-25_11h29.13.343,LearnStrategy,2023.2.3,Win32,74.62686567,1,1,2,0.039814815,0.003703704,1,0,0,1.6558,rock_grid_rect_2,8,09,-1,-1,1.656,0.365740741,-0.411111111,1,0,0,17.1871,Pumice_rect,8,17.187,1,1,0,1,0,1,,,,,,,,,,,,,
6595e3b4dc9090390e4edb5f,TCN,2024-06-25_11h29.13.343,LearnStrategy,2023.2.3,Win32,74.62686567,1,1,3,0.085185185,0.010185185,1,0,0,1.7428,rock_grid_rect_2,6,05,-1,-1,1.743,0.425,-0.24537037,1,0,0,3.7881,Gabbro_rect,4,3.788,0,2,0,2,0,1,,,,,,,,,,,,,
6595e3b4dc9090390e4edb5f,TCN,2024-06-25_11h29.13.343,LearnStrategy,2023.2.3,Win32,74.62686567,1,1,4,0.088888889,0.006481481,1,0,0,1.3702,rock_grid_rect_2,1,16,-1,-1,1.37,-0.408333333,-0.265740741,1,0,0,88.2434,Andesite_rect,1,88.243,1,3,0,3,0,1,,,,,,,,,,,,,
6595e3b4dc9090390e4edb5f,TCN,2024-06-25_11h29.13.343,LearnStrategy,2023.2.3,Win32,74.62686567,1,1,5,-0.005555556,-0.006481481,1,0,0,1.7103,rock_grid_rect_2,2,09,-1,-1,1.71,-0.116666667,-0.246296296,1,0,0,72.5081,Basalt_rect,2,72.508,1,4,0,4,0,1,,,,,,,,,,,,,
6595e3b4dc9090390e4edb5f,TCN,2024-06-25_11h29.13.343,LearnStrategy,2023.2.3,Win32,74.62686567,1,1,6,-0.028703704,0.013888889,1,0,0,0.9185,rock_grid_rect_2,8,15,-1,-1,0.918,0.369444444,-0.405555556,1,0,0,9.3043,Pumice_rect,8,9.304,1,5,0,5,0,1,,,,,,,,,,,,,
6595e3b4dc9090390e4edb5f,TCN,2024-06-25_11h29.13.343,LearnStrategy,2023.2.3,Win32,74.62686567,1,1,7,0.111111111,-0.006481481,1,0,0,0.7921,rock_grid_rect_2,1,14,-1,-1,0.792,-0.106481481,-0.397222222,1,0,0,7.3147,Pegmatite_rect,6,7.315,0,6,0,6,0,1,,,,,,,,,,,,,
6595e3b4dc9090390e4edb5f,TCN,2024-06-25_11h29.13.343,LearnStrategy,2023.2.3,Win32,74.62686567,1,1,8,0.033333333,0.011111111,1,0,0,1.1965,rock_grid_rect_2,7,07,-1,-1,1.197,0.365740741,-0.248148148,1,0,0,5.9222,Gabbro_rect,4,5.922,0,7,0,7,0,1,,,,,,,,,,,,,
6595e3b4dc9090390e4edb5f,TCN,2024-06-25_11h29.13.343,LearnStrategy,2023.2.3,Win32,74.62686567,1,1,9,-0.016666667,0.002777778,1,0,0,0.7642,rock_grid_rect_2,4,16,-1,-1,0.764,-0.355555556,-0.250925926,1,0,0,17.0216,Andesite_rect,1,17.022,0,8,0,8,0,1,,,,,,,,,,,,,
6595e3b4dc9090390e4edb5f,TCN,2024-06-25_11h29.13.343,LearnStrategy,2023.2.3,Win32,74.62686567,1,1,10,0.063888889,-0.007407407,1,0,0,0.6521,rock_grid_rect_2,5,06,-1,-1,0.652,-0.348148148,-0.396296296,1,0,0,2.0712,Obsidian_rect,5,2.071,1,9,0,9,0,1,,,,,,,,,,,,,
6595e3b4dc9090390e4edb5f,TCN,2024-06-25_11h29.13.343,LearnStrategy,2023.2.3,Win32,74.62686567,1,1,11,0.078703704,0.011111111,1,0,0,1.2282,rock_grid_rect_2,4,11,-1,-1,1.228,0.112962963,-0.408333333,1,0,0,8.8648,Peridotite_rect,7,8.865,0,10,0,10,0,1,,,,,,,,,,,,,
6595e3b4dc9090390e4edb5f,TCN,2024-06-25_11h29.13.343,LearnStrategy,2023.2.3,Win32,74.62686567,1,1,12,0.072222222,-0.018518519,1,0,0,0.9662,rock_grid_rect_2,2,14,-1,-1,0.966,0.328703704,-0.384259259,1,0,0,3.767,Pumice_rect,8,3.767,0,11,0,11,0,1,,,,,,,,,,,,,
6595e3b4dc9090390e4edb5f,TCN,2024-06-25_11h29.13.343,LearnStrategy,2023.2.3,Win32,74.62686567,1,1,13,0.102777778,0.000925926,1,0,0,1.2108,rock_grid_rect_2,5,08,-1,-1,1.211,-0.425,-0.390740741,1,0,0,1.3688,Obsidian_rect,5,1.369,1,12,0,12,0,1,,,,,,,,,,,,,
6595e3b4dc9090390e4edb5f,TCN,2024-06-25_11h29.13.343,LearnStrategy,2023.2.3,Win32,74.62686567,1,1,14,0.12037037,-0.019444444,1,0,0,0.7295,rock_grid_rect_2,3,11,-1,-1,0.73,0.192592593,-0.22962963,1,0,0,8.8397,Diorite_rect,3,8.84,1,13,0,13,0,1,,,,,,,,,,,,,
6595e3b4dc9090390e4edb5f,TCN,2024-06-25_11h29.13.343,LearnStrategy,2023.2.3,Win32,74.62686567,1,1,15,-0.00462963,0.011111111,1,0,0,0.5924,rock_grid_rect_2,3,09,-1,-1,0.592,0.162962963,-0.232407407,1,0,0,1.5584,Diorite_rect,3,1.558,1,14,0,14,0,1,,,,,,,,,,,,,
6595e3b4dc9090390e4edb5f,TCN,2024-06-25_11h29.13.343,LearnStrategy,2023.2.3,Win32,74.62686567,1,1,16,0.037037037,-0.002777778,1,0,0,0.662,rock_grid_rect_2,6,08,-1,-1,0.662,-0.357407407,-0.397222222,1,0,0,2.2722,Obsidian_rect,5,2.272,0,15,0,15,0,1,,,,,,,,,,,,,
6595e3b4dc9090390e4edb5f,TCN,2024-06-25_11h29.13.343,LearnStrategy,2023.2.3,Win32,74.62686567,1,2,1,,,,,,,,2,16,,,,,,,,,,,2,9.56,1,,,,,,-0.123148148,-0.248148148,1,0,0,9.5599,Basalt_rect,0,0,0,0,1,
6595e3b4dc9090390e4edb5f,TCN,2024-06-25_11h29.13.343,LearnStrategy,2023.2.3,Win32,74.62686567,1,2,2,,,,,,,,5,16,,,,,,,,,,,5,1.378,1,,,,,,-0.405555556,-0.398148148,1,0,0,1.3783,Obsidian_rect,1,0,1,0,1,
6595e3b4dc9090390e4edb5f,TCN,2024-06-25_11h29.13.343,LearnStrategy,2023.2.3,Win32,74.62686567,1,2,3,,,,,,,,7,15,,,,,,,,,,,6,18.809,0,,,,,,-0.065740741,-0.40462963,1,0,0,18.8094,Pegmatite_rect,2,0,2,0,1,
6595e3b4dc9090390e4edb5f,TCN,2024-06-25_11h29.13.343,LearnStrategy,2023.2.3,Win32,74.62686567,1,2,4,,,,,,,,4,10,,,,,,,,,,,7,6.491,0,,,,,,0.162037037,-0.408333333,1,0,0,6.491,Peridotite_rect,3,0,3,0,1,
6595e3b4dc9090390e4edb5f,TCN,2024-06-25_11h29.13.343,LearnStrategy,2023.2.3,Win32,74.62686567,1,2,5,,,,,,,,3,12,,,,,,,,,,,6,7.115,0,,,,,,-0.063888889,-0.414814815,1,0,0,7.1146,Pegmatite_rect,4,0,4,0,1,
6595e3b4dc9090390e4edb5f,TCN,2024-06-25_11h29.13.343,LearnStrategy,2023.2.3,Win32,74.62686567,1,2,6,,,,,,,,6,12,,,,,,,,,,,6,9.585,1,,,,,,-0.203703704,-0.389814815,1,0,0,9.5852,Pegmatite_rect,5,0,5,0,1,
6595e3b4dc9090390e4edb5f,TCN,2024-06-25_11h29.13.343,LearnStrategy,2023.2.3,Win32,74.62686567,1,2,7,,,,,,,,2,08,,,,,,,,,,,2,6.855,1,,,,,,-0.188888889,-0.260185185,1,0,0,6.855,Basalt_rect,6,0,6,0,1,
6595e3b4dc9090390e4edb5f,TCN,2024-06-25_11h29.13.343,LearnStrategy,2023.2.3,Win32,74.62686567,1,2,8,,,,,,,,8,03,,,,,,,,,,,8,2.008,1,,,,,,0.350925926,-0.398148148,1,0,0,2.0084,Pumice_rect,7,0,7,0,1,
6595e3b4dc9090390e4edb5f,TCN,2024-06-25_11h29.13.343,LearnStrategy,2023.2.3,Win32,74.62686567,1,2,9,,,,,,,,6,16,,,,,,,,,,,6,14.02,1,,,,,,-0.109259259,-0.387037037,1,0,0,14.0203,Pegmatite_rect,8,0,8,0,1,
6595e3b4dc9090390e4edb5f,TCN,2024-06-25_11h29.13.343,LearnStrategy,2023.2.3,Win32,74.62686567,1,2,10,,,,,,,,8,16,,,,,,,,,,,8,3.327,1,,,,,,0.416666667,-0.407407407,1,0,0,3.3266,Pumice_rect,9,0,9,0,1,
6595e3b4dc9090390e4edb5f,TCN,2024-06-25_11h29.13.343,LearnStrategy,2023.2.3,Win32,74.62686567,1,2,11,,,,,,,,1,04,,,,,,,,,,,1,19.653,1,,,,,,-0.366666667,-0.262962963,1,0,0,19.6533,Andesite_rect,10,0,10,0,1,
6595e3b4dc9090390e4edb5f,TCN,2024-06-25_11h29.13.343,LearnStrategy,2023.2.3,Win32,74.62686567,1,2,12,,,,,,,,3,02,,,,,,,,,,,3,7.951,1,,,,,,0.155555556,-0.249074074,1,0,0,7.951,Diorite_rect,11,0,11,0,1,
6595e3b4dc9090390e4edb5f,TCN,2024-06-25_11h29.13.343,LearnStrategy,2023.2.3,Win32,74.62686567,1,2,13,,,,,,,,1,11,,,,,,,,,,,1,12.301,1,,,,,,-0.387037037,-0.265740741,1,0,0,12.3014,Andesite_rect,12,0,12,0,1,
6595e3b4dc9090390e4edb5f,TCN,2024-06-25_11h29.13.343,LearnStrategy,2023.2.3,Win32,74.62686567,1,2,14,,,,,,,,7,13,,,,,,,,,,,4,9.615,0,,,,,,0.405555556,-0.238888889,1,0,0,9.615,Gabbro_rect,13,0,13,0,1,
6595e3b4dc9090390e4edb5f,TCN,2024-06-25_11h29.13.343,LearnStrategy,2023.2.3,Win32,74.62686567,1,2,15,,,,,,,,4,14,,,,,,,,,,,2,8.285,0,,,,,,-0.105555556,-0.237037037,1,0,0,8.285,Basalt_rect,14,0,14,0,1,
6595e3b4dc9090390e4edb5f,TCN,2024-06-25_11h29.13.343,LearnStrategy,2023.2.3,Win32,74.62686567,1,2,16,,,,,,,,5,07,,,,,,,,,,,5,1.606,1,,,,,,-0.328703704,-0.407407407,1,0,0,1.6057,Obsidian_rect,15,0,15,0,1,
6595e3b4dc9090390e4edb5f,TCN,2024-06-25_11h29.13.343,LearnStrategy,2023.2.3,Win32,74.62686567,2,1,1,0.108333333,-0.008333333,1,0,0,2.8999,rock_grid_rect_2,6,07,-1,-1,2.9,0.45462963,-0.257407407,1,0,0,15.9214,Gabbro_rect,4,15.921,0,0,0,0,0,1,,,,,,,,,,,,,
6595e3b4dc9090390e4edb5f,TCN,2024-06-25_11h29.13.343,LearnStrategy,2023.2.3,Win32,74.62686567,2,1,2,-0.023148148,-0.011111111,1,0,0,1.3724,rock_grid_rect_2,1,09,-1,-1,1.372,-0.363888889,-0.236111111,1,0,0,1.7752,Andesite_rect,1,1.775,1,1,0,1,0,1,,,,,,,,,,,,,
6595e3b4dc9090390e4edb5f,TCN,2024-06-25_11h29.13.343,LearnStrategy,2023.2.3,Win32,74.62686567,2,1,3,0.043518519,-0.02037037,1,0,0,0.8588,rock_grid_rect_2,8,13,-1,-1,0.859,-0.088888889,-0.237037037,1,0,0,7.9001,Basalt_rect,2,7.9,0,2,0,2,0,1,,,,,,,,,,,,,
6595e3b4dc9090390e4edb5f,TCN,2024-06-25_11h29.13.343,LearnStrategy,2023.2.3,Win32,74.62686567,2,1,4,-0.014814815,-0.012962963,1,0,0,0.8463,rock_grid_rect_2,3,07,-1,-1,0.846,-0.057407407,-0.397222222,1,0,0,2.073,Pegmatite_rect,6,2.073,0,3,0,3,0,1,,,,,,,,,,,,,
6595e3b4dc9090390e4edb5f,TCN,2024-06-25_11h29.13.343,LearnStrategy,2023.2.3,Win32,74.62686567,2,1,5,0.050925926,-0.000925926,1,0,0,0.9897,rock_grid_rect_2,7,10,-1,-1,0.99,0.403703704,-0.237962963,1,0,0,5.3302,Gabbro_rect,4,5.33,0,4,0,4,0,1,,,,,,,,,,,,,
6595e3b4dc9090390e4edb5f,TCN,2024-06-25_11h29.13.343,LearnStrategy,2023.2.3,Win32,74.62686567,2,1,6,0.031481481,0.023148148,1,0,0,0.6973,rock_grid_rect_2,4,01,-1,-1,0.697,0.373148148,-0.25,1,0,0,3.5065,Gabbro_rect,4,3.506,1,5,0,5,0,1,,,,,,,,,,,,,
6595e3b4dc9090390e4edb5f,TCN,2024-06-25_11h29.13.343,LearnStrategy,2023.2.3,Win32,74.62686567,2,1,7,-0.012037037,-0.014814815,1,0,0,0.6307,rock_grid_rect_2,5,12,-1,-1,0.631,-0.376851852,-0.406481481,1,0,0,1.1552,Obsidian_rect,5,1.155,1,6,0,6,0,1,,,,,,,,,,,,,
6595e3b4dc9090390e4edb5f,TCN,2024-06-25_11h29.13.343,LearnStrategy,2023.2.3,Win32,74.62686567,2,1,8,-0.022222222,-0.005555556,1,0,0,0.7316,rock_grid_rect_2,2,02,-1,-1,0.732,-0.360185185,-0.236111111,1,0,0,2.0222,Andesite_rect,1,2.022,0,7,0,7,0,1,,,,,,,,,,,,,
6595e3b4dc9090390e4edb5f,TCN,2024-06-25_11h29.13.343,LearnStrategy,2023.2.3,Win32,74.62686567,2,1,9,0.058333333,0.008333333,1,0,0,0.7159,rock_grid_rect_2,3,10,-1,-1,0.716,0.155555556,-0.393518519,1,0,0,8.8535,Peridotite_rect,7,8.853,0,8,0,8,0,1,,,,,,,,,,,,,
6595e3b4dc9090390e4edb5f,TCN,2024-06-25_11h29.13.343,LearnStrategy,2023.2.3,Win32,74.62686567,2,1,10,0.063888889,0.023148148,1,0,0,0.9448,rock_grid_rect_2,2,10,-1,-1,0.945,-0.123148148,-0.255555556,1,0,0,2.9114,Basalt_rect,2,2.911,1,9,0,9,0,1,,,,,,,,,,,,,
6595e3b4dc9090390e4edb5f,TCN,2024-06-25_11h29.13.343,LearnStrategy,2023.2.3,Win32,74.62686567,2,1,11,-0.021296296,0.000925926,1,0,0,0.6434,rock_grid_rect_2,6,11,-1,-1,0.643,0.1,-0.406481481,1,0,0,2.1609,Peridotite_rect,7,2.161,0,10,0,10,0,1,,,,,,,,,,,,,
6595e3b4dc9090390e4edb5f,TCN,2024-06-25_11h29.13.343,LearnStrategy,2023.2.3,Win32,74.62686567,2,1,12,0.023148148,-0.010185185,1,0,0,1.0125,rock_grid_rect_2,7,16,-1,-1,1.012,0.15,-0.413888889,1,0,0,3.5744,Peridotite_rect,7,3.574,1,11,0,11,0,1,,,,,,,,,,,,,
6595e3b4dc9090390e4edb5f,TCN,2024-06-25_11h29.13.343,LearnStrategy,2023.2.3,Win32,74.62686567,2,1,13,0.022222222,0.02037037,1,0,0,0.7012,rock_grid_rect_2,4,13,-1,-1,0.701,0.343518519,-0.237037037,1,0,0,3.32,Gabbro_rect,4,3.32,1,12,0,12,0,1,,,,,,,,,,,,,
6595e3b4dc9090390e4edb5f,TCN,2024-06-25_11h29.13.343,LearnStrategy,2023.2.3,Win32,74.62686567,2,1,14,0.036111111,-0.017592593,1,0,0,0.656,rock_grid_rect_2,5,09,-1,-1,0.656,-0.336111111,-0.406481481,1,0,0,1.1011,Obsidian_rect,5,1.101,1,13,0,13,0,1,,,,,,,,,,,,,
6595e3b4dc9090390e4edb5f,TCN,2024-06-25_11h29.13.343,LearnStrategy,2023.2.3,Win32,74.62686567,2,1,15,0.009259259,-0.015740741,1,0,0,0.5016,rock_grid_rect_2,1,03,-1,-1,0.502,-0.328703704,-0.250925926,1,0,0,1.6716,Andesite_rect,1,1.672,1,14,0,14,0,1,,,,,,,,,,,,,
6595e3b4dc9090390e4edb5f,TCN,2024-06-25_11h29.13.343,LearnStrategy,2023.2.3,Win32,74.62686567,2,1,16,0.024074074,-0.010185185,1,0,0,0.6087,rock_grid_rect_2,8,04,-1,-1,0.609,0.423148148,-0.400925926,1,0,0,1.123,Pumice_rect,8,1.123,1,15,0,15,0,1,,,,,,,,,,,,,
6595e3b4dc9090390e4edb5f,TCN,2024-06-25_11h29.13.343,LearnStrategy,2023.2.3,Win32,74.62686567,2,2,1,,,,,,,,6,15,,,,,,,,,,,6,9.649,1,,,,,,-0.103703704,-0.4,1,0,0,9.649,Pegmatite_rect,0,0,0,0,1,
6595e3b4dc9090390e4edb5f,TCN,2024-06-25_11h29.13.343,LearnStrategy,2023.2.3,Win32,74.62686567,2,2,2,,,,,,,,1,06,,,,,,,,,,,1,7.92,1,,,,,,-0.408333333,-0.253703704,1,0,0,7.9205,Andesite_rect,1,0,1,0,1,
6595e3b4dc9090390e4edb5f,TCN,2024-06-25_11h29.13.343,LearnStrategy,2023.2.3,Win32,74.62686567,2,2,3,,,,,,,,8,06,,,,,,,,,,,8,1.072,1,,,,,,0.388888889,-0.391666667,1,0,0,1.0722,Pumice_rect,2,0,2,0,1,
6595e3b4dc9090390e4edb5f,TCN,2024-06-25_11h29.13.343,LearnStrategy,2023.2.3,Win32,74.62686567,2,2,4,,,,,,,,2,12,,,,,,,,,,,2,3.087,1,,,,,,-0.107407407,-0.235185185,1,0,0,3.0866,Basalt_rect,3,0,3,0,1,
6595e3b4dc9090390e4edb5f,TCN,2024-06-25_11h29.13.343,LearnStrategy,2023.2.3,Win32,74.62686567,2,2,5,,,,,,,,4,09,,,,,,,,,,,2,12.759,0,,,,,,-0.125925926,-0.246296296,1,0,0,12.7592,Basalt_rect,4,0,4,0,1,
6595e3b4dc9090390e4edb5f,TCN,2024-06-25_11h29.13.343,LearnStrategy,2023.2.3,Win32,74.62686567,2,2,6,,,,,,,,4,05,,,,,,,,,,,4,1.838,1,,,,,,0.35462963,-0.233333333,1,0,0,1.8375,Gabbro_rect,5,0,5,0,1,
6595e3b4dc9090390e4edb5f,TCN,2024-06-25_11h29.13.343,LearnStrategy,2023.2.3,Win32,74.62686567,2,2,7,,,,,,,,6,09,,,,,,,,,,,7,10.745,0,,,,,,0.127777778,-0.413888889,1,0,0,10.7453,Peridotite_rect,6,0,6,0,1,
6595e3b4dc9090390e4edb5f,TCN,2024-06-25_11h29.13.343,LearnStrategy,2023.2.3,Win32,74.62686567,2,2,8,,,,,,,,5,02,,,,,,,,,,,5,1.248,1,,,,,,-0.333333333,-0.406481481,1,0,0,1.2476,Obsidian_rect,7,0,7,0,1,
6595e3b4dc9090390e4edb5f,TCN,2024-06-25_11h29.13.343,LearnStrategy,2023.2.3,Win32,74.62686567,2,2,9,,,,,,,,8,02,,,,,,,,,,,8,1.131,1,,,,,,0.392592593,-0.387037037,1,0,0,1.1309,Pumice_rect,8,0,8,0,1,
6595e3b4dc9090390e4edb5f,TCN,2024-06-25_11h29.13.343,LearnStrategy,2023.2.3,Win32,74.62686567,2,2,10,,,,,,,,2,06,,,,,,,,,,,2,2.818,1,,,,,,-0.109259259,-0.22962963,1,0,0,2.8175,Basalt_rect,9,0,9,0,1,
6595e3b4dc9090390e4edb5f,TCN,2024-06-25_11h29.13.343,LearnStrategy,2023.2.3,Win32,74.62686567,2,2,11,,,,,,,,3,16,,,,,,,,,,,6,3.231,0,,,,,,-0.09537037,-0.402777778,1,0,0,3.2307,Pegmatite_rect,10,0,10,0,1,
6595e3b4dc9090390e4edb5f,TCN,2024-06-25_11h29.13.343,LearnStrategy,2023.2.3,Win32,74.62686567,2,2,12,,,,,,,,1,02,,,,,,,,,,,6,2.83,0,,,,,,-0.103703704,-0.386111111,1,0,0,2.8298,Pegmatite_rect,11,0,11,0,1,
6595e3b4dc9090390e4edb5f,TCN,2024-06-25_11h29.13.343,LearnStrategy,2023.2.3,Win32,74.62686567,2,2,13,,,,,,,,3,08,,,,,,,,,,,3,4.002,1,,,,,,0.162037037,-0.241666667,1,0,0,4.0016,Diorite_rect,12,0,12,0,1,
6595e3b4dc9090390e4edb5f,TCN,2024-06-25_11h29.13.343,LearnStrategy,2023.2.3,Win32,74.62686567,2,2,14,,,,,,,,7,06,,,,,,,,,,,4,3.566,0,,,,,,0.372222222,-0.253703704,1,0,0,3.5661,Gabbro_rect,13,0,13,0,1,
6595e3b4dc9090390e4edb5f,TCN,2024-06-25_11h29.13.343,LearnStrategy,2023.2.3,Win32,74.62686567,2,2,15,,,,,,,,5,14,,,,,,,,,,,5,1.115,1,,,,,,-0.375,-0.400925926,1,0,0,1.1153,Obsidian_rect,14,0,14,0,1,
6595e3b4dc9090390e4edb5f,TCN,2024-06-25_11h29.13.343,LearnStrategy,2023.2.3,Win32,74.62686567,2,2,16,,,,,,,,7,12,,,,,,,,,,,7,3.889,1,,,,,,0.076851852,-0.400925926,1,0,0,3.8888,Peridotite_rect,15,0,15,0,1,
6595e3b4dc9090390e4edb5f,TCN,2024-06-25_11h29.13.343,LearnStrategy,2023.2.3,Win32,74.62686567,3,1,1,0.016666667,0.00462963,1,0,0,1.1147,rock_grid_rect_2,1,10,-1,-1,1.115,-0.352777778,-0.263888889,1,0,0,2.533,Andesite_rect,1,2.533,1,0,0,0,0,1,,,,,,,,,,,,,
6595e3b4dc9090390e4edb5f,TCN,2024-06-25_11h29.13.343,LearnStrategy,2023.2.3,Win32,74.62686567,3,1,2,0.040740741,-0.019444444,1,0,0,0.8338,rock_grid_rect_2,4,03,-1,-1,0.834,0.100925926,-0.409259259,1,0,0,3.1867,Peridotite_rect,7,3.187,0,1,0,1,0,1,,,,,,,,,,,,,
6595e3b4dc9090390e4edb5f,TCN,2024-06-25_11h29.13.343,LearnStrategy,2023.2.3,Win32,74.62686567,3,1,3,0.063888889,-0.016666667,1,0,0,0.8451,rock_grid_rect_2,5,10,-1,-1,0.845,-0.426851852,-0.40462963,1,0,0,1.3885,Obsidian_rect,5,1.389,1,2,0,2,0,1,,,,,,,,,,,,,
6595e3b4dc9090390e4edb5f,TCN,2024-06-25_11h29.13.343,LearnStrategy,2023.2.3,Win32,74.62686567,3,1,4,0.042592593,-0.003703704,1,0,0,0.7361,rock_grid_rect_2,8,14,-1,-1,0.736,0.446296296,-0.392592593,1,0,0,1.6687,Pumice_rect,8,1.669,1,3,0,3,0,1,,,,,,,,,,,,,
6595e3b4dc9090390e4edb5f,TCN,2024-06-25_11h29.13.343,LearnStrategy,2023.2.3,Win32,74.62686567,3,1,5,0.048148148,-0.011111111,1,0,0,1.0869,rock_grid_rect_2,7,02,-1,-1,1.087,0.09537037,-0.402777778,1,0,0,3.2548,Peridotite_rect,7,3.255,1,4,0,4,0,1,,,,,,,,,,,,,
6595e3b4dc9090390e4edb5f,TCN,2024-06-25_11h29.13.343,LearnStrategy,2023.2.3,Win32,74.62686567,3,1,6,0.087962963,-0.008333333,1,0,0,0.7762,rock_grid_rect_2,6,03,-1,-1,0.776,0.366666667,-0.25462963,1,0,0,1.6221,Gabbro_rect,4,1.622,0,5,0,5,0,1,,,,,,,,,,,,,
6595e3b4dc9090390e4edb5f,TCN,2024-06-25_11h29.13.343,LearnStrategy,2023.2.3,Win32,74.62686567,3,1,7,0.103703704,-0.010185185,1,0,0,1.1207,rock_grid_rect_2,8,05,-1,-1,1.121,0.435185185,-0.396296296,1,0,0,1.6726,Pumice_rect,8,1.673,1,6,0,6,0,1,,,,,,,,,,,,,
6595e3b4dc9090390e4edb5f,TCN,2024-06-25_11h29.13.343,LearnStrategy,2023.2.3,Win32,74.62686567,3,1,8,-0.015740741,-0.017592593,1,0,0,0.8192,rock_grid_rect_2,1,01,-1,-1,0.819,-0.128703704,-0.243518519,1,0,0,1.569,Basalt_rect,2,1.569,0,7,0,7,0,1,,,,,,,,,,,,,
6595e3b4dc9090390e4edb5f,TCN,2024-06-25_11h29.13.343,LearnStrategy,2023.2.3,Win32,74.62686567,3,1,9,0.030555556,-0.010185185,1,0,0,0.6995,rock_grid_rect_2,7,14,-1,-1,0.7,-0.083333333,-0.409259259,1,0,0,4.6852,Pegmatite_rect,6,4.685,0,8,0,8,0,1,,,,,,,,,,,,,
6595e3b4dc9090390e4edb5f,TCN,2024-06-25_11h29.13.343,LearnStrategy,2023.2.3,Win32,74.62686567,3,1,10,0.048148148,0.009259259,1,0,0,2.0542,rock_grid_rect_2,6,10,-1,-1,2.054,0.131481481,-0.399074074,1,0,0,1.8608,Peridotite_rect,7,1.861,0,9,0,9,0,1,,,,,,,,,,,,,
6595e3b4dc9090390e4edb5f,TCN,2024-06-25_11h29.13.343,LearnStrategy,2023.2.3,Win32,74.62686567,3,1,11,-0.005555556,-0.002777778,1,0,0,1.0624,rock_grid_rect_2,5,11,-1,-1,1.062,-0.421296296,-0.409259259,1,0,0,0.9749,Obsidian_rect,5,0.975,1,10,0,10,0,1,,,,,,,,,,,,,
6595e3b4dc9090390e4edb5f,TCN,2024-06-25_11h29.13.343,LearnStrategy,2023.2.3,Win32,74.62686567,3,1,12,0.057407407,0.001851852,1,0,0,0.7624,rock_grid_rect_2,3,14,-1,-1,0.762,-0.091666667,-0.402777778,1,0,0,4.2489,Pegmatite_rect,6,4.249,0,11,0,11,0,1,,,,,,,,,,,,,
6595e3b4dc9090390e4edb5f,TCN,2024-06-25_11h29.13.343,LearnStrategy,2023.2.3,Win32,74.62686567,3,1,13,0.031481481,-0.019444444,1,0,0,0.8905,rock_grid_rect_2,4,15,-1,-1,0.89,0.111111111,-0.387037037,1,0,0,3.7485,Peridotite_rect,7,3.748,0,12,0,12,0,1,,,,,,,,,,,,,
6595e3b4dc9090390e4edb5f,TCN,2024-06-25_11h29.13.343,LearnStrategy,2023.2.3,Win32,74.62686567,3,1,14,0.088888889,0.00462963,1,0,0,0.6115,rock_grid_rect_2,2,05,-1,-1,0.611,-0.182407407,-0.258333333,1,0,0,2.4817,Basalt_rect,2,2.482,1,13,0,13,0,1,,,,,,,,,,,,,
6595e3b4dc9090390e4edb5f,TCN,2024-06-25_11h29.13.343,LearnStrategy,2023.2.3,Win32,74.62686567,3,1,15,0.067592593,-0.00462963,1,0,0,0.5648,rock_grid_rect_2,3,06,-1,-1,0.565,0.124074074,-0.271296296,1,0,0,1.7224,Diorite_rect,3,1.722,1,14,0,14,0,1,,,,,,,,,,,,,
6595e3b4dc9090390e4edb5f,TCN,2024-06-25_11h29.13.343,LearnStrategy,2023.2.3,Win32,74.62686567,3,1,16,0.053703704,0.007407407,1,0,0,0.6474,rock_grid_rect_2,2,01,-1,-1,0.647,-0.34537037,-0.261111111,1,0,0,2.4599,Andesite_rect,1,2.46,0,15,0,15,0,1,,,,,,,,,,,,,
6595e3b4dc9090390e4edb5f,TCN,2024-06-25_11h29.13.343,LearnStrategy,2023.2.3,Win32,74.62686567,3,2,1,,,,,,,,4,08,,,,,,,,,,,1,5.824,0,,,,,,-0.37037037,-0.262962963,1,0,0,5.8245,Andesite_rect,0,0,0,0,1,
6595e3b4dc9090390e4edb5f,TCN,2024-06-25_11h29.13.343,LearnStrategy,2023.2.3,Win32,74.62686567,3,2,2,,,,,,,,3,13,,,,,,,,,,,3,1.441,1,,,,,,0.137962963,-0.233333333,1,0,0,1.4415,Diorite_rect,1,0,1,0,1,
6595e3b4dc9090390e4edb5f,TCN,2024-06-25_11h29.13.343,LearnStrategy,2023.2.3,Win32,74.62686567,3,2,3,,,,,,,,5,05,,,,,,,,,,,5,1.214,1,,,,,,-0.37962963,-0.387037037,1,0,0,1.2135,Obsidian_rect,2,0,2,0,1,
6595e3b4dc9090390e4edb5f,TCN,2024-06-25_11h29.13.343,LearnStrategy,2023.2.3,Win32,74.62686567,3,2,4,,,,,,,,8,10,,,,,,,,,,,8,1.067,1,,,,,,0.382407407,-0.381481481,1,0,0,1.067,Pumice_rect,3,0,3,0,1,
6595e3b4dc9090390e4edb5f,TCN,2024-06-25_11h29.13.343,LearnStrategy,2023.2.3,Win32,74.62686567,3,2,5,,,,,,,,4,12,,,,,,,,,,,2,2.184,0,,,,,,-0.115740741,-0.259259259,1,0,0,2.1841,Basalt_rect,4,0,4,0,1,
6595e3b4dc9090390e4edb5f,TCN,2024-06-25_11h29.13.343,LearnStrategy,2023.2.3,Win32,74.62686567,3,2,6,,,,,,,,1,05,,,,,,,,,,,7,4.646,0,,,,,,0.05,-0.394444444,1,0,0,4.646,Peridotite_rect,5,0,5,0,1,
6595e3b4dc9090390e4edb5f,TCN,2024-06-25_11h29.13.343,LearnStrategy,2023.2.3,Win32,74.62686567,3,2,7,,,,,,,,1,07,,,,,,,,,,,4,10.701,0,,,,,,0.374074074,-0.25462963,1,0,0,10.7011,Gabbro_rect,6,0,6,0,1,
6595e3b4dc9090390e4edb5f,TCN,2024-06-25_11h29.13.343,LearnStrategy,2023.2.3,Win32,74.62686567,3,2,8,,,,,,,,8,08,,,,,,,,,,,8,1.218,1,,,,,,0.401851852,-0.398148148,1,0,0,1.2177,Pumice_rect,7,0,7,0,1,
6595e3b4dc9090390e4edb5f,TCN,2024-06-25_11h29.13.343,LearnStrategy,2023.2.3,Win32,74.62686567,3,2,9,,,,,,,,5,04,,,,,,,,,,,5,0.936,1,,,,,,-0.441666667,-0.409259259,1,0,0,0.9363,Obsidian_rect,8,0,8,0,1,
6595e3b4dc9090390e4edb5f,TCN,2024-06-25_11h29.13.343,LearnStrategy,2023.2.3,Win32,74.62686567,3,2,10,,,,,,,,7,05,,,,,,,,,,,7,3.141,1,,,,,,0.131481481,-0.401851852,1,0,0,3.1407,Peridotite_rect,9,0,9,0,1,
6595e3b4dc9090390e4edb5f,TCN,2024-06-25_11h29.13.343,LearnStrategy,2023.2.3,Win32,74.62686567,3,2,11,,,,,,,,3,15,,,,,,,,,,,4,2.776,0,,,,,,0.374074074,-0.249074074,1,0,0,2.7762,Gabbro_rect,10,0,10,0,1,
6595e3b4dc9090390e4edb5f,TCN,2024-06-25_11h29.13.343,LearnStrategy,2023.2.3,Win32,74.62686567,3,2,12,,,,,,,,2,04,,,,,,,,,,,2,1.834,1,,,,,,-0.127777778,-0.235185185,1,0,0,1.8341,Basalt_rect,11,0,11,0,1,
6595e3b4dc9090390e4edb5f,TCN,2024-06-25_11h29.13.343,LearnStrategy,2023.2.3,Win32,74.62686567,3,2,13,,,,,,,,6,13,,,,,,,,,,,6,8.469,1,,,,,,-0.187037037,-0.385185185,1,0,0,8.4685,Pegmatite_rect,12,0,12,0,1,
6595e3b4dc9090390e4edb5f,TCN,2024-06-25_11h29.13.343,LearnStrategy,2023.2.3,Win32,74.62686567,3,2,14,,,,,,,,7,08,,,,,,,,,,,7,3.012,1,,,,,,0.149074074,-0.412037037,1,0,0,3.0121,Peridotite_rect,13,0,13,0,1,
6595e3b4dc9090390e4edb5f,TCN,2024-06-25_11h29.13.343,LearnStrategy,2023.2.3,Win32,74.62686567,3,2,15,,,,,,,,6,06,,,,,,,,,,,4,2.932,0,,,,,,0.37037037,-0.262962963,1,0,0,2.9321,Gabbro_rect,14,0,14,0,1,
6595e3b4dc9090390e4edb5f,TCN,2024-06-25_11h29.13.343,LearnStrategy,2023.2.3,Win32,74.62686567,3,2,16,,,,,,,,2,11,,,,,,,,,,,8,3.257,0,,,,,,0.387037037,-0.407407407,1,0,0,3.2574,Pumice_rect,15,0,15,0,1,
6595e3b4dc9090390e4edb5f,TCN,2024-06-25_11h29.13.343,LearnStrategy,2023.2.3,Win32,74.62686567,4,1,1,0.069444444,-0.011111111,1,0,0,1.5238,rock_grid_rect_2,8,05,-1,-1,1.524,0.340740741,-0.388888889,1,0,0,1.299,Pumice_rect,8,1.299,1,0,0,0,0,1,,,,,,,,,,,,,
6595e3b4dc9090390e4edb5f,TCN,2024-06-25_11h29.13.343,LearnStrategy,2023.2.3,Win32,74.62686567,4,1,2,-0.051851852,-0.001851852,1,0,0,0.7155,rock_grid_rect_2,6,07,-1,-1,0.716,-0.107407407,-0.40462963,1,0,0,2.7437,Pegmatite_rect,6,2.744,1,1,0,1,0,1,,,,,,,,,,,,,
6595e3b4dc9090390e4edb5f,TCN,2024-06-25_11h29.13.343,LearnStrategy,2023.2.3,Win32,74.62686567,4,1,3,0.019444444,0.003703704,1,0,0,0.5956,rock_grid_rect_2,2,14,-1,-1,0.596,-0.37037037,-0.25,1,0,0,2.307,Andesite_rect,1,2.307,0,2,0,2,0,1,,,,,,,,,,,,,
6595e3b4dc9090390e4edb5f,TCN,2024-06-25_11h29.13.343,LearnStrategy,2023.2.3,Win32,74.62686567,4,1,4,0.071296296,0.007407407,1,0,0,0.6142,rock_grid_rect_2,1,14,-1,-1,0.614,0.375925926,-0.262962963,1,0,0,2.6815,Gabbro_rect,4,2.681,0,3,0,3,0,1,,,,,,,,,,,,,
6595e3b4dc9090390e4edb5f,TCN,2024-06-25_11h29.13.343,LearnStrategy,2023.2.3,Win32,74.62686567,4,1,5,0.092592593,0.02037037,1,0,0,0.8131,rock_grid_rect_2,2,10,-1,-1,0.813,-0.108333333,-0.25462963,1,0,0,1.5906,Basalt_rect,2,1.591,1,4,0,4,0,1,,,,,,,,,,,,,
6595e3b4dc9090390e4edb5f,TCN,2024-06-25_11h29.13.343,LearnStrategy,2023.2.3,Win32,74.62686567,4,1,6,0.042592593,-0.003703704,1,0,0,0.6161,rock_grid_rect_2,4,16,-1,-1,0.616,-0.343518519,-0.256481481,1,0,0,4.1329,Andesite_rect,1,4.133,0,5,0,5,0,1,,,,,,,,,,,,,
6595e3b4dc9090390e4edb5f,TCN,2024-06-25_11h29.13.343,LearnStrategy,2023.2.3,Win32,74.62686567,4,1,7,0.022222222,-0.008333333,1,0,0,0.6981,rock_grid_rect_2,4,11,-1,-1,0.698,-0.351851852,-0.253703704,1,0,0,2.1196,Andesite_rect,1,2.12,0,6,0,6,0,1,,,,,,,,,,,,,
6595e3b4dc9090390e4edb5f,TCN,2024-06-25_11h29.13.343,LearnStrategy,2023.2.3,Win32,74.62686567,4,1,8,0.009259259,-0.006481481,1,0,0,0.8581,rock_grid_rect_2,7,04,-1,-1,0.858,0.169444444,-0.412037037,1,0,0,1.3865,Peridotite_rect,7,1.387,1,7,0,7,0,1,,,,,,,,,,,,,
6595e3b4dc9090390e4edb5f,TCN,2024-06-25_11h29.13.343,LearnStrategy,2023.2.3,Win32,74.62686567,4,1,9,0.022222222,0.00462963,1,0,0,0.6057,rock_grid_rect_2,3,06,-1,-1,0.606,0.137037037,-0.242592593,1,0,0,1.552,Diorite_rect,3,1.552,1,8,0,8,0,1,,,,,,,,,,,,,
6595e3b4dc9090390e4edb5f,TCN,2024-06-25_11h29.13.343,LearnStrategy,2023.2.3,Win32,74.62686567,4,1,10,0.043518519,-0.008333333,1,0,0,0.5664,rock_grid_rect_2,1,01,-1,-1,0.566,-0.377777778,-0.238888889,1,0,0,4.1389,Andesite_rect,1,4.139,1,9,0,9,0,1,,,,,,,,,,,,,
6595e3b4dc9090390e4edb5f,TCN,2024-06-25_11h29.13.343,LearnStrategy,2023.2.3,Win32,74.62686567,4,1,11,0.087037037,-0.007407407,1,0,0,0.6549,rock_grid_rect_2,7,02,-1,-1,0.655,0.137037037,-0.399074074,1,0,0,1.3279,Peridotite_rect,7,1.328,1,10,0,10,0,1,,,,,,,,,,,,,
6595e3b4dc9090390e4edb5f,TCN,2024-06-25_11h29.13.343,LearnStrategy,2023.2.3,Win32,74.62686567,4,1,12,0.032407407,-0.001851852,1,0,0,0.5402,rock_grid_rect_2,5,06,-1,-1,0.54,-0.332407407,-0.393518519,1,0,0,1.087,Obsidian_rect,5,1.087,1,11,0,11,0,1,,,,,,,,,,,,,
6595e3b4dc9090390e4edb5f,TCN,2024-06-25_11h29.13.343,LearnStrategy,2023.2.3,Win32,74.62686567,4,1,13,0.032407407,-0.019444444,1,0,0,0.5986,rock_grid_rect_2,5,12,-1,-1,0.599,-0.383333333,-0.390740741,1,0,0,0.9843,Obsidian_rect,5,0.984,1,12,0,12,0,1,,,,,,,,,,,,,
6595e3b4dc9090390e4edb5f,TCN,2024-06-25_11h29.13.343,LearnStrategy,2023.2.3,Win32,74.62686567,4,1,14,0.018518519,-0.014814815,1,0,0,0.4959,rock_grid_rect_2,3,09,-1,-1,0.496,0.148148148,-0.24537037,1,0,0,1.0065,Diorite_rect,3,1.006,1,13,0,13,0,1,,,,,,,,,,,,,
6595e3b4dc9090390e4edb5f,TCN,2024-06-25_11h29.13.343,LearnStrategy,2023.2.3,Win32,74.62686567,4,1,15,0.031481481,-0.001851852,1,0,0,0.6228,rock_grid_rect_2,6,05,-1,-1,0.623,0.336111111,-0.25462963,1,0,0,1.6551,Gabbro_rect,4,1.655,0,14,0,14,0,1,,,,,,,,,,,,,
6595e3b4dc9090390e4edb5f,TCN,2024-06-25_11h29.13.343,LearnStrategy,2023.2.3,Win32,74.62686567,4,1,16,0,0.007407407,1,0,0,0.6245,rock_grid_rect_2,8,04,-1,-1,0.625,0.380555556,-0.387037037,1,0,0,1.3127,Pumice_rect,8,1.313,1,15,0,15,0,1,,,,,,,,,,,,,
6595e3b4dc9090390e4edb5f,TCN,2024-06-25_11h29.13.343,LearnStrategy,2023.2.3,Win32,74.62686567,4,2,1,,,,,,,,5,07,,,,,,,,,,,5,0.994,1,,,,,,-0.347222222,-0.387962963,1,0,0,0.9938,Obsidian_rect,0,0,0,0,1,
6595e3b4dc9090390e4edb5f,TCN,2024-06-25_11h29.13.343,LearnStrategy,2023.2.3,Win32,74.62686567,4,2,2,,,,,,,,1,04,,,,,,,,,,,4,5.243,0,,,,,,0.423148148,-0.246296296,1,0,0,5.2433,Gabbro_rect,1,0,1,0,1,
6595e3b4dc9090390e4edb5f,TCN,2024-06-25_11h29.13.343,LearnStrategy,2023.2.3,Win32,74.62686567,4,2,3,,,,,,,,3,13,,,,,,,,,,,6,1.662,0,,,,,,-0.158333333,-0.4,1,0,0,1.6616,Pegmatite_rect,2,0,2,0,1,
6595e3b4dc9090390e4edb5f,TCN,2024-06-25_11h29.13.343,LearnStrategy,2023.2.3,Win32,74.62686567,4,2,4,,,,,,,,3,15,,,,,,,,,,,1,5.23,0,,,,,,-0.4,-0.247222222,1,0,0,5.2303,Andesite_rect,3,0,3,0,1,
6595e3b4dc9090390e4edb5f,TCN,2024-06-25_11h29.13.343,LearnStrategy,2023.2.3,Win32,74.62686567,4,2,5,,,,,,,,7,08,,,,,,,,,,,7,1.259,1,,,,,,0.100925926,-0.403703704,1,0,0,1.259,Peridotite_rect,4,0,4,0,1,
6595e3b4dc9090390e4edb5f,TCN,2024-06-25_11h29.13.343,LearnStrategy,2023.2.3,Win32,74.62686567,4,2,6,,,,,,,,4,05,,,,,,,,,,,4,2.021,1,,,,,,0.408333333,-0.253703704,1,0,0,2.021,Gabbro_rect,5,0,5,0,1,
6595e3b4dc9090390e4edb5f,TCN,2024-06-25_11h29.13.343,LearnStrategy,2023.2.3,Win32,74.62686567,4,2,7,,,,,,,,8,16,,,,,,,,,,,8,0.979,1,,,,,,0.365740741,-0.383333333,1,0,0,0.9793,Pumice_rect,6,0,6,0,1,
6595e3b4dc9090390e4edb5f,TCN,2024-06-25_11h29.13.343,LearnStrategy,2023.2.3,Win32,74.62686567,4,2,8,,,,,,,,6,15,,,,,,,,,,,6,1.352,1,,,,,,-0.099074074,-0.392592593,1,0,0,1.352,Pegmatite_rect,7,0,7,0,1,
6595e3b4dc9090390e4edb5f,TCN,2024-06-25_11h29.13.343,LearnStrategy,2023.2.3,Win32,74.62686567,4,2,9,,,,,,,,6,06,,,,,,,,,,,4,1.058,0,,,,,,0.383333333,-0.25462963,1,0,0,1.0582,Gabbro_rect,8,0,8,0,1,
6595e3b4dc9090390e4edb5f,TCN,2024-06-25_11h29.13.343,LearnStrategy,2023.2.3,Win32,74.62686567,4,2,10,,,,,,,,4,09,,,,,,,,,,,1,2.325,0,,,,,,-0.368518519,-0.257407407,1,0,0,2.3255,Andesite_rect,9,0,9,0,1,
6595e3b4dc9090390e4edb5f,TCN,2024-06-25_11h29.13.343,LearnStrategy,2023.2.3,Win32,74.62686567,4,2,11,,,,,,,,8,02,,,,,,,,,,,8,1.041,1,,,,,,0.400925926,-0.4,1,0,0,1.0405,Pumice_rect,10,0,10,0,1,
6595e3b4dc9090390e4edb5f,TCN,2024-06-25_11h29.13.343,LearnStrategy,2023.2.3,Win32,74.62686567,4,2,12,,,,,,,,5,02,,,,,,,,,,,5,0.817,1,,,,,,-0.393518519,-0.398148148,1,0,0,0.8173,Obsidian_rect,11,0,11,0,1,
6595e3b4dc9090390e4edb5f,TCN,2024-06-25_11h29.13.343,LearnStrategy,2023.2.3,Win32,74.62686567,4,2,13,,,,,,,,2,08,,,,,,,,,,,2,1.229,1,,,,,,-0.126851852,-0.242592593,1,0,0,1.2292,Basalt_rect,12,0,12,0,1,
6595e3b4dc9090390e4edb5f,TCN,2024-06-25_11h29.13.343,LearnStrategy,2023.2.3,Win32,74.62686567,4,2,14,,,,,,,,1,11,,,,,,,,,,,4,6.703,0,,,,,,0.349074074,-0.259259259,1,0,0,6.7032,Gabbro_rect,13,0,13,0,1,
6595e3b4dc9090390e4edb5f,TCN,2024-06-25_11h29.13.343,LearnStrategy,2023.2.3,Win32,74.62686567,4,2,15,,,,,,,,2,12,,,,,,,,,,,8,1.466,0,,,,,,0.343518519,-0.401851852,1,0,0,1.466,Pumice_rect,14,0,14,0,1,
6595e3b4dc9090390e4edb5f,TCN,2024-06-25_11h29.13.343,LearnStrategy,2023.2.3,Win32,74.62686567,4,2,16,,,,,,,,7,05,,,,,,,,,,,7,1.405,1,,,,,,0.098148148,-0.387037037,1,0,0,1.4052,Peridotite_rect,15,0,15,0,1,
6595e3b4dc9090390e4edb5f,TCN,2024-06-25_11h29.13.343,LearnStrategy,2023.2.3,Win32,74.62686567,5,1,1,0.050925926,0.009259259,1,0,0,1.0698,rock_grid_rect_2,8,13,-1,-1,1.07,0.416666667,-0.42037037,1,0,0,1.1142,Pumice_rect,8,1.114,1,0,0,0,0,1,,,,,,,,,,,,,
6595e3b4dc9090390e4edb5f,TCN,2024-06-25_11h29.13.343,LearnStrategy,2023.2.3,Win32,74.62686567,5,1,2,0.080555556,-0.012962963,1,0,0,0.6073,rock_grid_rect_2,2,09,-1,-1,0.607,-0.347222222,-0.24537037,1,0,0,2.8972,Andesite_rect,1,2.897,0,1,0,1,0,1,,,,,,,,,,,,,
6595e3b4dc9090390e4edb5f,TCN,2024-06-25_11h29.13.343,LearnStrategy,2023.2.3,Win32,74.62686567,5,1,3,0.042592593,-0.006481481,1,0,0,0.9154,rock_grid_rect_2,6,11,-1,-1,0.915,-0.090740741,-0.415740741,1,0,0,1.7106,Pegmatite_rect,6,1.711,1,2,0,2,0,1,,,,,,,,,,,,,
6595e3b4dc9090390e4edb5f,TCN,2024-06-25_11h29.13.343,LearnStrategy,2023.2.3,Win32,74.62686567,5,1,4,0.047222222,-0.022222222,1,0,0,0.5331,rock_grid_rect_2,1,03,-1,-1,0.533,-0.361111111,-0.256481481,1,0,0,2.0196,Andesite_rect,1,2.02,1,3,0,3,0,1,,,,,,,,,,,,,
6595e3b4dc9090390e4edb5f,TCN,2024-06-25_11h29.13.343,LearnStrategy,2023.2.3,Win32,74.62686567,5,1,5,0.019444444,0,1,0,0,0.7428,rock_grid_rect_2,2,01,-1,-1,0.743,-0.125925926,-0.259259259,1,0,0,0.9945,Basalt_rect,2,0.995,1,4,0,4,0,1,,,,,,,,,,,,,
6595e3b4dc9090390e4edb5f,TCN,2024-06-25_11h29.13.343,LearnStrategy,2023.2.3,Win32,74.62686567,5,1,6,0.046296296,-0.016666667,1,0,0,0.5756,rock_grid_rect_2,3,11,-1,-1,0.576,0.381481481,-0.27037037,1,0,0,2.1037,Gabbro_rect,4,2.104,0,5,0,5,0,1,,,,,,,,,,,,,
6595e3b4dc9090390e4edb5f,TCN,2024-06-25_11h29.13.343,LearnStrategy,2023.2.3,Win32,74.62686567,5,1,7,0.089814815,-0.013888889,1,0,0,0.6466,rock_grid_rect_2,4,03,-1,-1,0.647,-0.362037037,-0.249074074,1,0,0,1.649,Andesite_rect,1,1.649,0,6,0,6,0,1,,,,,,,,,,,,,
6595e3b4dc9090390e4edb5f,TCN,2024-06-25_11h29.13.343,LearnStrategy,2023.2.3,Win32,74.62686567,5,1,8,0.060185185,0.006481481,1,0,0,0.5853,rock_grid_rect_2,6,08,-1,-1,0.585,-0.097222222,-0.42037037,1,0,0,1.4062,Pegmatite_rect,6,1.406,1,7,0,7,0,1,,,,,,,,,,,,,
6595e3b4dc9090390e4edb5f,TCN,2024-06-25_11h29.13.343,LearnStrategy,2023.2.3,Win32,74.62686567,5,1,9,0.059259259,0.014814815,1,0,0,0.5322,rock_grid_rect_2,8,15,-1,-1,0.532,0.388888889,-0.383333333,1,0,0,1.1402,Pumice_rect,8,1.14,1,8,0,8,0,1,,,,,,,,,,,,,
6595e3b4dc9090390e4edb5f,TCN,2024-06-25_11h29.13.343,LearnStrategy,2023.2.3,Win32,74.62686567,5,1,10,0.026851852,0.024074074,1,0,0,0.5038,rock_grid_rect_2,1,16,-1,-1,0.504,0.352777778,-0.250925926,1,0,0,3.1153,Gabbro_rect,4,3.115,0,9,0,9,0,1,,,,,,,,,,,,,
6595e3b4dc9090390e4edb5f,TCN,2024-06-25_11h29.13.343,LearnStrategy,2023.2.3,Win32,74.62686567,5,1,11,0.043518519,0.001851852,1,0,0,0.5862,rock_grid_rect_2,4,15,-1,-1,0.586,0.328703704,-0.257407407,1,0,0,2.5406,Gabbro_rect,4,2.541,1,10,0,10,0,1,,,,,,,,,,,,,
6595e3b4dc9090390e4edb5f,TCN,2024-06-25_11h29.13.343,LearnStrategy,2023.2.3,Win32,74.62686567,5,1,12,0.062037037,-0.005555556,1,0,0,0.5492,rock_grid_rect_2,5,09,-1,-1,0.549,-0.339814815,-0.416666667,1,0,0,1.1657,Obsidian_rect,5,1.166,1,11,0,11,0,1,,,,,,,,,,,,,
6595e3b4dc9090390e4edb5f,TCN,2024-06-25_11h29.13.343,LearnStrategy,2023.2.3,Win32,74.62686567,5,1,13,0.04537037,-0.00462963,1,0,0,0.5172,rock_grid_rect_2,7,16,-1,-1,0.517,0.168518519,-0.390740741,1,0,0,1.1108,Peridotite_rect,7,1.111,1,12,0,12,0,1,,,,,,,,,,,,,
6595e3b4dc9090390e4edb5f,TCN,2024-06-25_11h29.13.343,LearnStrategy,2023.2.3,Win32,74.62686567,5,1,14,0.040740741,0.006481481,1,0,0,0.4774,rock_grid_rect_2,3,10,-1,-1,0.477,0.122222222,-0.268518519,1,0,0,1.7994,Diorite_rect,3,1.799,1,13,0,13,0,1,,,,,,,,,,,,,
6595e3b4dc9090390e4edb5f,TCN,2024-06-25_11h29.13.343,LearnStrategy,2023.2.3,Win32,74.62686567,5,1,15,0.062037037,-0.012962963,1,0,0,0.5747,rock_grid_rect_2,5,08,-1,-1,0.575,-0.371296296,-0.416666667,1,0,0,0.9459,Obsidian_rect,5,0.946,1,14,0,14,0,1,,,,,,,,,,,,,
6595e3b4dc9090390e4edb5f,TCN,2024-06-25_11h29.13.343,LearnStrategy,2023.2.3,Win32,74.62686567,5,1,16,0.016666667,0.003703704,1,0,0,0.6633,rock_grid_rect_2,7,07,-1,-1,0.663,0.087037037,-0.378703704,1,0,0,1.3558,Peridotite_rect,7,1.356,1,15,0,15,0,1,,,,,,,,,,,,,
6595e3b4dc9090390e4edb5f,TCN,2024-06-25_11h29.13.343,LearnStrategy,2023.2.3,Win32,74.62686567,5,2,1,,,,,,,,8,10,,,,,,,,,,,8,1.001,1,,,,,,0.351851852,-0.391666667,1,0,0,1.0007,Pumice_rect,0,0,0,0,1,
6595e3b4dc9090390e4edb5f,TCN,2024-06-25_11h29.13.343,LearnStrategy,2023.2.3,Win32,74.62686567,5,2,2,,,,,,,,3,08,,,,,,,,,,,3,1.027,1,,,,,,0.152777778,-0.237037037,1,0,0,1.027,Diorite_rect,1,0,1,0,1,
6595e3b4dc9090390e4edb5f,TCN,2024-06-25_11h29.13.343,LearnStrategy,2023.2.3,Win32,74.62686567,5,2,3,,,,,,,,6,09,,,,,,,,,,,6,4.735,1,,,,,,-0.157407407,-0.39537037,1,0,0,4.7346,Pegmatite_rect,2,0,2,0,1,
6595e3b4dc9090390e4edb5f,TCN,2024-06-25_11h29.13.343,LearnStrategy,2023.2.3,Win32,74.62686567,5,2,4,,,,,,,,1,05,,,,,,,,,,,1,3.86,1,,,,,,-0.383333333,-0.261111111,1,0,0,3.8603,Andesite_rect,3,0,3,0,1,
6595e3b4dc9090390e4edb5f,TCN,2024-06-25_11h29.13.343,LearnStrategy,2023.2.3,Win32,74.62686567,5,2,5,,,,,,,,8,03,,,,,,,,,,,8,1.016,1,,,,,,0.331481481,-0.393518519,1,0,0,1.0156,Pumice_rect,4,0,4,0,1,
6595e3b4dc9090390e4edb5f,TCN,2024-06-25_11h29.13.343,LearnStrategy,2023.2.3,Win32,74.62686567,5,2,6,,,,,,,,7,06,,,,,,,,,,,6,1.581,0,,,,,,-0.069444444,-0.390740741,1,0,0,1.5805,Pegmatite_rect,5,0,5,0,1,
6595e3b4dc9090390e4edb5f,TCN,2024-06-25_11h29.13.343,LearnStrategy,2023.2.3,Win32,74.62686567,5,2,7,,,,,,,,4,08,,,,,,,,,,,4,2.767,1,,,,,,0.375925926,-0.247222222,1,0,0,2.7669,Gabbro_rect,6,0,6,0,1,
6595e3b4dc9090390e4edb5f,TCN,2024-06-25_11h29.13.343,LearnStrategy,2023.2.3,Win32,74.62686567,5,2,8,,,,,,,,1,07,,,,,,,,,,,3,3.984,0,,,,,,0.171296296,-0.247222222,1,0,0,3.9838,Diorite_rect,7,0,7,0,1,
6595e3b4dc9090390e4edb5f,TCN,2024-06-25_11h29.13.343,LearnStrategy,2023.2.3,Win32,74.62686567,5,2,9,,,,,,,,6,16,,,,,,,,,,,3,3.629,0,,,,,,0.12037037,-0.24537037,1,0,0,3.6294,Diorite_rect,8,0,8,0,1,
6595e3b4dc9090390e4edb5f,TCN,2024-06-25_11h29.13.343,LearnStrategy,2023.2.3,Win32,74.62686567,5,2,10,,,,,,,,2,06,,,,,,,,,,,2,1.565,1,,,,,,-0.137037037,-0.247222222,1,0,0,1.5648,Basalt_rect,9,0,9,0,1,
6595e3b4dc9090390e4edb5f,TCN,2024-06-25_11h29.13.343,LearnStrategy,2023.2.3,Win32,74.62686567,5,2,11,,,,,,,,2,16,,,,,,,,,,,8,3.656,0,,,,,,0.394444444,-0.412037037,1,0,0,3.6558,Pumice_rect,10,0,10,0,1,
6595e3b4dc9090390e4edb5f,TCN,2024-06-25_11h29.13.343,LearnStrategy,2023.2.3,Win32,74.62686567,5,2,12,,,,,,,,5,04,,,,,,,,,,,5,1.506,1,,,,,,-0.406481481,-0.396296296,1,0,0,1.5064,Obsidian_rect,11,0,11,0,1,
6595e3b4dc9090390e4edb5f,TCN,2024-06-25_11h29.13.343,LearnStrategy,2023.2.3,Win32,74.62686567,5,2,13,,,,,,,,5,16,,,,,,,,,,,5,1.32,1,,,,,,-0.393518519,-0.401851852,1,0,0,1.3198,Obsidian_rect,12,0,12,0,1,
6595e3b4dc9090390e4edb5f,TCN,2024-06-25_11h29.13.343,LearnStrategy,2023.2.3,Win32,74.62686567,5,2,14,,,,,,,,7,15,,,,,,,,,,,7,1.588,1,,,,,,0.119444444,-0.406481481,1,0,0,1.5883,Peridotite_rect,13,0,13,0,1,
6595e3b4dc9090390e4edb5f,TCN,2024-06-25_11h29.13.343,LearnStrategy,2023.2.3,Win32,74.62686567,5,2,15,,,,,,,,4,10,,,,,,,,,,,4,3.586,1,,,,,,0.439814815,-0.252777778,1,0,0,3.5859,Gabbro_rect,14,0,14,0,1,
6595e3b4dc9090390e4edb5f,TCN,2024-06-25_11h29.13.343,LearnStrategy,2023.2.3,Win32,74.62686567,5,2,16,,,,,,,,3,16,,,,,,,,,,,3,1.31,1,,,,,,0.125925926,-0.22962963,1,0,0,1.3103,Diorite_rect,15,0,15,0,1,
6595e3b4dc9090390e4edb5f,TCN,2024-06-25_11h29.13.343,LearnStrategy,2023.2.3,Win32,74.62686567,6,1,1,0.009259259,-0.001851852,1,0,0,0.8474,rock_grid_rect_2,3,14,-1,-1,0.847,0.116666667,-0.235185185,1,0,0,0.9872,Diorite_rect,3,0.987,1,0,0,0,0,1,,,,,,,,,,,,,
6595e3b4dc9090390e4edb5f,TCN,2024-06-25_11h29.13.343,LearnStrategy,2023.2.3,Win32,74.62686567,6,1,2,0.091666667,0.006481481,1,0,0,0.7272,rock_grid_rect_2,2,02,-1,-1,0.727,-0.365740741,-0.25,1,0,0,2.0269,Andesite_rect,1,2.027,0,1,0,1,0,1,,,,,,,,,,,,,
6595e3b4dc9090390e4edb5f,TCN,2024-06-25_11h29.13.343,LearnStrategy,2023.2.3,Win32,74.62686567,6,1,3,0.082407407,-0.00462963,1,0,0,0.5757,rock_grid_rect_2,5,10,-1,-1,0.576,-0.356481481,-0.394444444,1,0,0,1.0003,Obsidian_rect,5,1,1,2,0,2,0,1,,,,,,,,,,,,,
6595e3b4dc9090390e4edb5f,TCN,2024-06-25_11h29.13.343,LearnStrategy,2023.2.3,Win32,74.62686567,6,1,4,0.039814815,0.007407407,1,0,0,0.5071,rock_grid_rect_2,1,10,-1,-1,0.507,0.356481481,-0.246296296,1,0,0,2.3932,Gabbro_rect,4,2.393,0,3,0,3,0,1,,,,,,,,,,,,,
6595e3b4dc9090390e4edb5f,TCN,2024-06-25_11h29.13.343,LearnStrategy,2023.2.3,Win32,74.62686567,6,1,5,0.115740741,0.014814815,1,0,0,0.6315,rock_grid_rect_2,8,09,-1,-1,0.631,0.400925926,-0.403703704,1,0,0,0.9411,Pumice_rect,8,0.941,1,4,0,4,0,1,,,,,,,,,,,,,
6595e3b4dc9090390e4edb5f,TCN,2024-06-25_11h29.13.343,LearnStrategy,2023.2.3,Win32,74.62686567,6,1,6,0.034259259,0.022222222,1,0,0,0.6009,rock_grid_rect_2,2,05,-1,-1,0.601,-0.14537037,-0.250925926,1,0,0,1.2709,Basalt_rect,2,1.271,1,5,0,5,0,1,,,,,,,,,,,,,
6595e3b4dc9090390e4edb5f,TCN,2024-06-25_11h29.13.343,LearnStrategy,2023.2.3,Win32,74.62686567,6,1,7,0.030555556,-0.001851852,1,0,0,0.5624,rock_grid_rect_2,3,07,-1,-1,0.562,0.111111111,-0.241666667,1,0,0,1.2416,Diorite_rect,3,1.242,1,6,0,6,0,1,,,,,,,,,,,,,
6595e3b4dc9090390e4edb5f,TCN,2024-06-25_11h29.13.343,LearnStrategy,2023.2.3,Win32,74.62686567,6,1,8,-0.031481481,-0.015740741,1,0,0,0.5079,rock_grid_rect_2,4,13,-1,-1,0.508,0.337962963,-0.235185185,1,0,0,2.0175,Gabbro_rect,4,2.018,1,7,0,7,0,1,,,,,,,,,,,,,
6595e3b4dc9090390e4edb5f,TCN,2024-06-25_11h29.13.343,LearnStrategy,2023.2.3,Win32,74.62686567,6,1,9,0.05462963,0.017592593,1,0,0,0.551,rock_grid_rect_2,7,14,-1,-1,0.551,0.132407407,-0.416666667,1,0,0,1.2469,Peridotite_rect,7,1.247,1,8,0,8,0,1,,,,,,,,,,,,,
6595e3b4dc9090390e4edb5f,TCN,2024-06-25_11h29.13.343,LearnStrategy,2023.2.3,Win32,74.62686567,6,1,10,0.017592593,-0.005555556,1,0,0,0.4943,rock_grid_rect_2,4,01,-1,-1,0.494,-0.322222222,-0.241666667,1,0,0,1.7479,Andesite_rect,1,1.748,0,9,0,9,0,1,,,,,,,,,,,,,
6595e3b4dc9090390e4edb5f,TCN,2024-06-25_11h29.13.343,LearnStrategy,2023.2.3,Win32,74.62686567,6,1,11,0.067592593,-0.011111111,1,0,0,0.9772,rock_grid_rect_2,6,10,-1,-1,0.977,0.10462963,-0.407407407,1,0,0,0.9623,Peridotite_rect,7,0.962,0,10,0,10,0,1,,,,,,,,,,,,,
6595e3b4dc9090390e4edb5f,TCN,2024-06-25_11h29.13.343,LearnStrategy,2023.2.3,Win32,74.62686567,6,1,12,0.061111111,-0.012962963,1,0,0,0.7033,rock_grid_rect_2,8,14,-1,-1,0.703,0.387037037,-0.414814815,1,0,0,0.935,Pumice_rect,8,0.935,1,11,0,11,0,1,,,,,,,,,,,,,
6595e3b4dc9090390e4edb5f,TCN,2024-06-25_11h29.13.343,LearnStrategy,2023.2.3,Win32,74.62686567,6,1,13,0.037037037,0.012037037,1,0,0,0.54,rock_grid_rect_2,1,09,-1,-1,0.54,-0.355555556,-0.228703704,1,0,0,1.8071,Andesite_rect,1,1.807,1,12,0,12,0,1,,,,,,,,,,,,,
6595e3b4dc9090390e4edb5f,TCN,2024-06-25_11h29.13.343,LearnStrategy,2023.2.3,Win32,74.62686567,6,1,14,-0.005555556,-0.009259259,1,0,0,0.481,rock_grid_rect_2,5,11,-1,-1,0.481,-0.362037037,-0.418518519,1,0,0,0.9659,Obsidian_rect,5,0.966,1,13,0,13,0,1,,,,,,,,,,,,,
6595e3b4dc9090390e4edb5f,TCN,2024-06-25_11h29.13.343,LearnStrategy,2023.2.3,Win32,74.62686567,6,1,15,0.009259259,0.008333333,1,0,0,0.5219,rock_grid_rect_2,6,03,-1,-1,0.522,0.100925926,-0.39537037,1,0,0,2.0091,Peridotite_rect,7,2.009,0,14,0,14,0,1,,,,,,,,,,,,,
6595e3b4dc9090390e4edb5f,TCN,2024-06-25_11h29.13.343,LearnStrategy,2023.2.3,Win32,74.62686567,6,1,16,0.052777778,-0.010185185,1,0,0,0.8365,rock_grid_rect_2,7,10,-1,-1,0.836,0.103703704,-0.411111111,1,0,0,2.3134,Peridotite_rect,7,2.313,1,15,0,15,0,1,,,,,,,,,,,,,
6595e3b4dc9090390e4edb5f,TCN,2024-06-25_11h29.13.343,LearnStrategy,2023.2.3,Win32,74.62686567,6,2,1,,,,,,,,4,12,,,,,,,,,,,4,3.23,1,,,,,,0.418518519,-0.246296296,1,0,0,3.2302,Gabbro_rect,0,0,0,0,1,
6595e3b4dc9090390e4edb5f,TCN,2024-06-25_11h29.13.343,LearnStrategy,2023.2.3,Win32,74.62686567,6,2,2,,,,,,,,8,08,,,,,,,,,,,8,0.949,1,,,,,,0.384259259,-0.386111111,1,0,0,0.9494,Pumice_rect,1,0,1,0,1,
6595e3b4dc9090390e4edb5f,TCN,2024-06-25_11h29.13.343,LearnStrategy,2023.2.3,Win32,74.62686567,6,2,3,,,,,,,,2,04,,,,,,,,,,,2,1.216,1,,,,,,-0.112962963,-0.22962963,1,0,0,1.2157,Basalt_rect,2,0,2,0,1,
6595e3b4dc9090390e4edb5f,TCN,2024-06-25_11h29.13.343,LearnStrategy,2023.2.3,Win32,74.62686567,6,2,4,,,,,,,,5,05,,,,,,,,,,,5,1.083,1,,,,,,-0.366666667,-0.381481481,1,0,0,1.0831,Obsidian_rect,3,0,3,0,1,
6595e3b4dc9090390e4edb5f,TCN,2024-06-25_11h29.13.343,LearnStrategy,2023.2.3,Win32,74.62686567,6,2,5,,,,,,,,7,12,,,,,,,,,,,7,5.006,1,,,,,,0.081481481,-0.405555556,1,0,0,5.0058,Peridotite_rect,4,0,4,0,1,
6595e3b4dc9090390e4edb5f,TCN,2024-06-25_11h29.13.343,LearnStrategy,2023.2.3,Win32,74.62686567,6,2,6,,,,,,,,3,12,,,,,,,,,,,3,1.914,1,,,,,,0.089814815,-0.24537037,1,0,0,1.9138,Diorite_rect,5,0,5,0,1,
6595e3b4dc9090390e4edb5f,TCN,2024-06-25_11h29.13.343,LearnStrategy,2023.2.3,Win32,74.62686567,6,2,7,,,,,,,,8,06,,,,,,,,,,,8,1.013,1,,,,,,0.361111111,-0.381481481,1,0,0,1.0128,Pumice_rect,6,0,6,0,1,
6595e3b4dc9090390e4edb5f,TCN,2024-06-25_11h29.13.343,LearnStrategy,2023.2.3,Win32,74.62686567,6,2,8,,,,,,,,4,14,,,,,,,,,,,4,1.918,1,,,,,,0.367592593,-0.241666667,1,0,0,1.9179,Gabbro_rect,7,0,7,0,1,
6595e3b4dc9090390e4edb5f,TCN,2024-06-25_11h29.13.343,LearnStrategy,2023.2.3,Win32,74.62686567,6,2,9,,,,,,,,1,06,,,,,,,,,,,1,2.066,1,,,,,,-0.356481481,-0.24537037,1,0,0,2.066,Andesite_rect,8,0,8,0,1,
6595e3b4dc9090390e4edb5f,TCN,2024-06-25_11h29.13.343,LearnStrategy,2023.2.3,Win32,74.62686567,6,2,10,,,,,,,,1,02,,,,,,,,,,,1,2.955,1,,,,,,-0.368518519,-0.260185185,1,0,0,2.9551,Andesite_rect,9,0,9,0,1,
6595e3b4dc9090390e4edb5f,TCN,2024-06-25_11h29.13.343,LearnStrategy,2023.2.3,Win32,74.62686567,6,2,11,,,,,,,,6,13,,,,,,,,,,,6,1.686,1,,,,,,-0.098148148,-0.387037037,1,0,0,1.6859,Pegmatite_rect,10,0,10,0,1,
6595e3b4dc9090390e4edb5f,TCN,2024-06-25_11h29.13.343,LearnStrategy,2023.2.3,Win32,74.62686567,6,2,12,,,,,,,,6,12,,,,,,,,,,,6,2.681,1,,,,,,-0.119444444,-0.413888889,1,0,0,2.6813,Pegmatite_rect,11,0,11,0,1,
6595e3b4dc9090390e4edb5f,TCN,2024-06-25_11h29.13.343,LearnStrategy,2023.2.3,Win32,74.62686567,6,2,13,,,,,,,,3,02,,,,,,,,,,,3,0.921,1,,,,,,0.144444444,-0.241666667,1,0,0,0.9213,Diorite_rect,12,0,12,0,1,
6595e3b4dc9090390e4edb5f,TCN,2024-06-25_11h29.13.343,LearnStrategy,2023.2.3,Win32,74.62686567,6,2,14,,,,,,,,2,11,,,,,,,,,,,8,1.514,0,,,,,,0.364814815,-0.381481481,1,0,0,1.5137,Pumice_rect,13,0,13,0,1,
6595e3b4dc9090390e4edb5f,TCN,2024-06-25_11h29.13.343,LearnStrategy,2023.2.3,Win32,74.62686567,6,2,15,,,,,,,,7,13,,,,,,,,,,,7,1.481,1,,,,,,0.066666667,-0.386111111,1,0,0,1.4807,Peridotite_rect,14,0,14,0,1,
6595e3b4dc9090390e4edb5f,TCN,2024-06-25_11h29.13.343,LearnStrategy,2023.2.3,Win32,74.62686567,6,2,16,,,,,,,,5,14,,,,,,,,,,,5,0.99,1,,,,,,-0.400925926,-0.383333333,1,0,0,0.99,Obsidian_rect,15,0,15,0,1,
6595e3b4dc9090390e4edb5f,TCN,2024-06-25_11h29.13.343,LearnStrategy,2023.2.3,Win32,74.62686567,7,1,1,0.049074074,-0.00462963,1,0,0,0.5107,rock_grid_rect_2,4,15,-1,-1,0.511,-0.382407407,-0.233333333,1,0,0,2.5322,Andesite_rect,1,2.532,0,0,0,0,0,1,,,,,,,,,,,,,
6595e3b4dc9090390e4edb5f,TCN,2024-06-25_11h29.13.343,LearnStrategy,2023.2.3,Win32,74.62686567,7,1,2,0.049074074,-0.019444444,1,0,0,0.702,rock_grid_rect_2,6,03,-1,-1,0.702,-0.134259259,-0.39537037,1,0,0,1.3965,Pegmatite_rect,6,1.396,1,1,0,1,0,1,,,,,,,,,,,,,
6595e3b4dc9090390e4edb5f,TCN,2024-06-25_11h29.13.343,LearnStrategy,2023.2.3,Win32,74.62686567,7,1,3,0.034259259,-0.00462963,1,0,0,0.514,rock_grid_rect_2,7,04,-1,-1,0.514,0.112962963,-0.398148148,1,0,0,1.5514,Peridotite_rect,7,1.551,1,2,0,2,0,1,,,,,,,,,,,,,
6595e3b4dc9090390e4edb5f,TCN,2024-06-25_11h29.13.343,LearnStrategy,2023.2.3,Win32,74.62686567,7,1,4,0.062037037,-0.007407407,1,0,0,0.5805,rock_grid_rect_2,5,10,-1,-1,0.581,-0.409259259,-0.388888889,1,0,0,0.9924,Obsidian_rect,5,0.992,1,3,0,3,0,1,,,,,,,,,,,,,
6595e3b4dc9090390e4edb5f,TCN,2024-06-25_11h29.13.343,LearnStrategy,2023.2.3,Win32,74.62686567,7,1,5,0.051851852,-0.008333333,1,0,0,0.5269,rock_grid_rect_2,1,14,-1,-1,0.527,-0.348148148,-0.257407407,1,0,0,2.1886,Andesite_rect,1,2.189,1,4,0,4,0,1,,,,,,,,,,,,,
6595e3b4dc9090390e4edb5f,TCN,2024-06-25_11h29.13.343,LearnStrategy,2023.2.3,Win32,74.62686567,7,1,6,0.009259259,-0.019444444,1,0,0,0.5412,rock_grid_rect_2,6,05,-1,-1,0.541,0.112037037,-0.255555556,1,0,0,1.9446,Diorite_rect,3,1.945,0,5,0,5,0,1,,,,,,,,,,,,,
6595e3b4dc9090390e4edb5f,TCN,2024-06-25_11h29.13.343,LearnStrategy,2023.2.3,Win32,74.62686567,7,1,7,0.053703704,-0.015740741,1,0,0,0.5987,rock_grid_rect_2,5,08,-1,-1,0.599,-0.376851852,-0.391666667,1,0,0,1.2046,Obsidian_rect,5,1.205,1,6,0,6,0,1,,,,,,,,,,,,,
6595e3b4dc9090390e4edb5f,TCN,2024-06-25_11h29.13.343,LearnStrategy,2023.2.3,Win32,74.62686567,7,1,8,0.065740741,-0.000925926,1,0,0,0.4807,rock_grid_rect_2,4,16,-1,-1,0.481,-0.140740741,-0.230555556,1,0,0,1.7802,Basalt_rect,2,1.78,0,7,0,7,0,1,,,,,,,,,,,,,
6595e3b4dc9090390e4edb5f,TCN,2024-06-25_11h29.13.343,LearnStrategy,2023.2.3,Win32,74.62686567,7,1,9,0.065740741,0.003703704,1,0,0,0.6135,rock_grid_rect_2,3,09,-1,-1,0.614,0.124074074,-0.24537037,1,0,0,1.0705,Diorite_rect,3,1.07,1,8,0,8,0,1,,,,,,,,,,,,,
6595e3b4dc9090390e4edb5f,TCN,2024-06-25_11h29.13.343,LearnStrategy,2023.2.3,Win32,74.62686567,7,1,10,0.035185185,0.001851852,1,0,0,0.5127,rock_grid_rect_2,1,09,-1,-1,0.513,-0.343518519,-0.250925926,1,0,0,2.8897,Andesite_rect,1,2.89,1,9,0,9,0,1,,,,,,,,,,,,,
6595e3b4dc9090390e4edb5f,TCN,2024-06-25_11h29.13.343,LearnStrategy,2023.2.3,Win32,74.62686567,7,1,11,0.063888889,-0.010185185,1,0,0,1.0977,rock_grid_rect_2,8,09,-1,-1,1.098,0.409259259,-0.380555556,1,0,0,0.9524,Pumice_rect,8,0.952,1,10,0,10,0,1,,,,,,,,,,,,,
6595e3b4dc9090390e4edb5f,TCN,2024-06-25_11h29.13.343,LearnStrategy,2023.2.3,Win32,74.62686567,7,1,12,0.083333333,0.015740741,1,0,0,0.8701,rock_grid_rect_2,3,11,-1,-1,0.87,0.165740741,-0.256481481,1,0,0,1.3945,Diorite_rect,3,1.394,1,11,0,11,0,1,,,,,,,,,,,,,
6595e3b4dc9090390e4edb5f,TCN,2024-06-25_11h29.13.343,LearnStrategy,2023.2.3,Win32,74.62686567,7,1,13,0.062037037,-0.008333333,1,0,0,0.5512,rock_grid_rect_2,7,07,-1,-1,0.551,0.102777778,-0.387037037,1,0,0,1.1243,Peridotite_rect,7,1.124,1,12,0,12,0,1,,,,,,,,,,,,,
6595e3b4dc9090390e4edb5f,TCN,2024-06-25_11h29.13.343,LearnStrategy,2023.2.3,Win32,74.62686567,7,1,14,0.057407407,0.001851852,1,0,0,0.5127,rock_grid_rect_2,8,13,-1,-1,0.513,0.39537037,-0.407407407,1,0,0,2.5453,Pumice_rect,8,2.545,1,13,0,13,0,1,,,,,,,,,,,,,
6595e3b4dc9090390e4edb5f,TCN,2024-06-25_11h29.13.343,LearnStrategy,2023.2.3,Win32,74.62686567,7,1,15,0.038888889,-0.010185185,1,0,0,0.5033,rock_grid_rect_2,2,14,-1,-1,0.503,0.382407407,-0.410185185,1,0,0,3.3817,Pumice_rect,8,3.382,0,14,0,14,0,1,,,,,,,,,,,,,
6595e3b4dc9090390e4edb5f,TCN,2024-06-25_11h29.13.343,LearnStrategy,2023.2.3,Win32,74.62686567,7,1,16,0.076851852,-0.016666667,1,0,0,0.5338,rock_grid_rect_2,2,01,-1,-1,0.534,-0.09537037,-0.25462963,1,0,0,1.8313,Basalt_rect,2,1.831,1,15,0,15,0,1,,,,,,,,,,,,,
6595e3b4dc9090390e4edb5f,TCN,2024-06-25_11h29.13.343,LearnStrategy,2023.2.3,Win32,74.62686567,7,2,1,,,,,,,,5,04,,,,,,,,,,,5,1.49,1,,,,,,-0.371296296,-0.399074074,1,0,0,1.4897,Obsidian_rect,0,0,0,0,1,
6595e3b4dc9090390e4edb5f,TCN,2024-06-25_11h29.13.343,LearnStrategy,2023.2.3,Win32,74.62686567,7,2,2,,,,,,,,3,16,,,,,,,,,,,3,1.334,1,,,,,,0.103703704,-0.249074074,1,0,0,1.3344,Diorite_rect,1,0,1,0,1,
6595e3b4dc9090390e4edb5f,TCN,2024-06-25_11h29.13.343,LearnStrategy,2023.2.3,Win32,74.62686567,7,2,3,,,,,,,,8,16,,,,,,,,,,,8,1.16,1,,,,,,0.364814815,-0.387962963,1,0,0,1.16,Pumice_rect,2,0,2,0,1,
6595e3b4dc9090390e4edb5f,TCN,2024-06-25_11h29.13.343,LearnStrategy,2023.2.3,Win32,74.62686567,7,2,4,,,,,,,,1,05,,,,,,,,,,,1,2.356,1,,,,,,-0.350925926,-0.255555556,1,0,0,2.3559,Andesite_rect,3,0,3,0,1,
6595e3b4dc9090390e4edb5f,TCN,2024-06-25_11h29.13.343,LearnStrategy,2023.2.3,Win32,74.62686567,7,2,5,,,,,,,,8,08,,,,,,,,,,,8,1.036,1,,,,,,0.391666667,-0.399074074,1,0,0,1.0356,Pumice_rect,4,0,4,0,1,
6595e3b4dc9090390e4edb5f,TCN,2024-06-25_11h29.13.343,LearnStrategy,2023.2.3,Win32,74.62686567,7,2,6,,,,,,,,5,16,,,,,,,,,,,5,0.887,1,,,,,,-0.337037037,-0.39537037,1,0,0,0.8866,Obsidian_rect,5,0,5,0,1,
6595e3b4dc9090390e4edb5f,TCN,2024-06-25_11h29.13.343,LearnStrategy,2023.2.3,Win32,74.62686567,7,2,7,,,,,,,,2,06,,,,,,,,,,,2,1.436,1,,,,,,-0.134259259,-0.262962963,1,0,0,1.436,Basalt_rect,6,0,6,0,1,
6595e3b4dc9090390e4edb5f,TCN,2024-06-25_11h29.13.343,LearnStrategy,2023.2.3,Win32,74.62686567,7,2,8,,,,,,,,4,08,,,,,,,,,,,4,1.478,1,,,,,,0.378703704,-0.244444444,1,0,0,1.4777,Gabbro_rect,7,0,7,0,1,
6595e3b4dc9090390e4edb5f,TCN,2024-06-25_11h29.13.343,LearnStrategy,2023.2.3,Win32,74.62686567,7,2,9,,,,,,,,6,06,,,,,,,,,,,6,2.329,1,,,,,,-0.112962963,-0.392592593,1,0,0,2.329,Pegmatite_rect,8,0,8,0,1,
6595e3b4dc9090390e4edb5f,TCN,2024-06-25_11h29.13.343,LearnStrategy,2023.2.3,Win32,74.62686567,7,2,10,,,,,,,,2,11,,,,,,,,,,,2,3.068,1,,,,,,-0.148148148,-0.269444444,1,0,0,3.0678,Basalt_rect,9,0,9,0,1,
6595e3b4dc9090390e4edb5f,TCN,2024-06-25_11h29.13.343,LearnStrategy,2023.2.3,Win32,74.62686567,7,2,11,,,,,,,,6,12,,,,,,,,,,,6,3.33,1,,,,,,-0.087962963,-0.402777778,1,0,0,3.3302,Pegmatite_rect,10,0,10,0,1,
6595e3b4dc9090390e4edb5f,TCN,2024-06-25_11h29.13.343,LearnStrategy,2023.2.3,Win32,74.62686567,7,2,12,,,,,,,,4,09,,,,,,,,,,,4,4.984,1,,,,,,0.381481481,-0.244444444,1,0,0,4.9839,Gabbro_rect,11,0,11,0,1,
6595e3b4dc9090390e4edb5f,TCN,2024-06-25_11h29.13.343,LearnStrategy,2023.2.3,Win32,74.62686567,7,2,13,,,,,,,,7,08,,,,,,,,,,,7,1.051,1,,,,,,0.099074074,-0.393518519,1,0,0,1.0508,Peridotite_rect,12,0,12,0,1,
6595e3b4dc9090390e4edb5f,TCN,2024-06-25_11h29.13.343,LearnStrategy,2023.2.3,Win32,74.62686567,7,2,14,,,,,,,,3,15,,,,,,,,,,,4,3.147,0,,,,,,0.372222222,-0.228703704,1,0,0,3.147,Gabbro_rect,13,0,13,0,1,
6595e3b4dc9090390e4edb5f,TCN,2024-06-25_11h29.13.343,LearnStrategy,2023.2.3,Win32,74.62686567,7,2,15,,,,,,,,1,02,,,,,,,,,,,6,2.244,0,,,,,,-0.088888889,-0.4,1,0,0,2.2444,Pegmatite_rect,14,0,14,0,1,
6595e3b4dc9090390e4edb5f,TCN,2024-06-25_11h29.13.343,LearnStrategy,2023.2.3,Win32,74.62686567,7,2,16,,,,,,,,7,13,,,,,,,,,,,7,0.849,1,,,,,,0.121296296,-0.399074074,1,0,0,0.8485,Peridotite_rect,15,0,15,0,1,
6595e3b4dc9090390e4edb5f,TCN,2024-06-25_11h29.13.343,LearnStrategy,2023.2.3,Win32,74.62686567,8,1,1,0.072222222,0.003703704,1,0,0,1.0461,rock_grid_rect_2,7,02,-1,-1,1.046,0.122222222,-0.384259259,1,0,0,1.3281,Peridotite_rect,7,1.328,1,0,0,0,0,1,,,,,,,,,,,,,
6595e3b4dc9090390e4edb5f,TCN,2024-06-25_11h29.13.343,LearnStrategy,2023.2.3,Win32,74.62686567,8,1,2,0.075925926,0.007407407,1,0,0,0.5594,rock_grid_rect_2,2,05,-1,-1,0.559,-0.106481481,-0.248148148,1,0,0,1.1162,Basalt_rect,2,1.116,1,1,0,1,0,1,,,,,,,,,,,,,
6595e3b4dc9090390e4edb5f,TCN,2024-06-25_11h29.13.343,LearnStrategy,2023.2.3,Win32,74.62686567,8,1,3,0.009259259,0.012037037,1,0,0,0.8313,rock_grid_rect_2,1,16,-1,-1,0.831,-0.350925926,-0.232407407,1,0,0,2.738,Andesite_rect,1,2.738,1,2,0,2,0,1,,,,,,,,,,,,,
6595e3b4dc9090390e4edb5f,TCN,2024-06-25_11h29.13.343,LearnStrategy,2023.2.3,Win32,74.62686567,8,1,4,0.012962963,-0.012962963,1,0,0,0.4934,rock_grid_rect_2,6,11,-1,-1,0.493,-0.068518519,-0.384259259,1,0,0,1.0827,Pegmatite_rect,6,1.083,1,3,0,3,0,1,,,,,,,,,,,,,
6595e3b4dc9090390e4edb5f,TCN,2024-06-25_11h29.13.343,LearnStrategy,2023.2.3,Win32,74.62686567,8,1,5,0.021296296,-0.013888889,1,0,0,0.5941,rock_grid_rect_2,6,07,-1,-1,0.594,-0.089814815,-0.408333333,1,0,0,1.9547,Pegmatite_rect,6,1.955,1,4,0,4,0,1,,,,,,,,,,,,,
6595e3b4dc9090390e4edb5f,TCN,2024-06-25_11h29.13.343,LearnStrategy,2023.2.3,Win32,74.62686567,8,1,6,-0.018518519,-0.002777778,1,0,0,0.522,rock_grid_rect_2,7,14,-1,-1,0.522,0.112037037,-0.388888889,1,0,0,2.19,Peridotite_rect,7,2.19,1,5,0,5,0,1,,,,,,,,,,,,,
6595e3b4dc9090390e4edb5f,TCN,2024-06-25_11h29.13.343,LearnStrategy,2023.2.3,Win32,74.62686567,8,1,7,0.037037037,-0.002777778,1,0,0,0.5876,rock_grid_rect_2,8,15,-1,-1,0.588,0.414814815,-0.421296296,1,0,0,1.0094,Pumice_rect,8,1.009,1,6,0,6,0,1,,,,,,,,,,,,,
6595e3b4dc9090390e4edb5f,TCN,2024-06-25_11h29.13.343,LearnStrategy,2023.2.3,Win32,74.62686567,8,1,8,0.042592593,-0.013888889,1,0,0,0.616,rock_grid_rect_2,5,12,-1,-1,0.616,-0.373148148,-0.396296296,1,0,0,0.9068,Obsidian_rect,5,0.907,1,7,0,7,0,1,,,,,,,,,,,,,
6595e3b4dc9090390e4edb5f,TCN,2024-06-25_11h29.13.343,LearnStrategy,2023.2.3,Win32,74.62686567,8,1,9,0.001851852,-0.023148148,1,0,0,0.7596,rock_grid_rect_2,3,07,-1,-1,0.76,-0.12962963,-0.394444444,1,0,0,1.2781,Pegmatite_rect,6,1.278,0,8,0,8,0,1,,,,,,,,,,,,,
6595e3b4dc9090390e4edb5f,TCN,2024-06-25_11h29.13.343,LearnStrategy,2023.2.3,Win32,74.62686567,8,1,10,0.017592593,0.001851852,1,0,0,0.5717,rock_grid_rect_2,4,11,-1,-1,0.572,0.348148148,-0.262037037,1,0,0,2.8345,Gabbro_rect,4,2.835,1,9,0,9,0,1,,,,,,,,,,,,,
6595e3b4dc9090390e4edb5f,TCN,2024-06-25_11h29.13.343,LearnStrategy,2023.2.3,Win32,74.62686567,8,1,11,0.075925926,-0.005555556,1,0,0,0.562,rock_grid_rect_2,3,10,-1,-1,0.562,0.424074074,-0.249074074,1,0,0,3.0162,Gabbro_rect,4,3.016,0,10,0,10,0,1,,,,,,,,,,,,,
6595e3b4dc9090390e4edb5f,TCN,2024-06-25_11h29.13.343,LearnStrategy,2023.2.3,Win32,74.62686567,8,1,12,0.100925926,-0.002777778,1,0,0,0.5356,rock_grid_rect_2,1,10,-1,-1,0.536,-0.326851852,-0.248148148,1,0,0,1.5186,Andesite_rect,1,1.519,1,11,0,11,0,1,,,,,,,,,,,,,
6595e3b4dc9090390e4edb5f,TCN,2024-06-25_11h29.13.343,LearnStrategy,2023.2.3,Win32,74.62686567,8,1,13,0.040740741,0.012037037,1,0,0,0.5409,rock_grid_rect_2,5,09,-1,-1,0.541,-0.353703704,-0.410185185,1,0,0,0.9249,Obsidian_rect,5,0.925,1,12,0,12,0,1,,,,,,,,,,,,,
6595e3b4dc9090390e4edb5f,TCN,2024-06-25_11h29.13.343,LearnStrategy,2023.2.3,Win32,74.62686567,8,1,14,0.060185185,-0.007407407,1,0,0,0.5905,rock_grid_rect_2,2,02,-1,-1,0.591,-0.093518519,-0.258333333,1,0,0,1.0526,Basalt_rect,2,1.053,1,13,0,13,0,1,,,,,,,,,,,,,
6595e3b4dc9090390e4edb5f,TCN,2024-06-25_11h29.13.343,LearnStrategy,2023.2.3,Win32,74.62686567,8,1,15,0.030555556,-0.021296296,1,0,0,0.52,rock_grid_rect_2,4,03,-1,-1,0.52,0.339814815,-0.238888889,1,0,0,1.8458,Gabbro_rect,4,1.846,1,14,0,14,0,1,,,,,,,,,,,,,
6595e3b4dc9090390e4edb5f,TCN,2024-06-25_11h29.13.343,LearnStrategy,2023.2.3,Win32,74.62686567,8,1,16,0.056481481,-0.001851852,1,0,0,0.5739,rock_grid_rect_2,8,14,-1,-1,0.574,0.386111111,-0.396296296,1,0,0,1.1793,Pumice_rect,8,1.179,1,15,0,15,0,1,,,,,,,,,,,,,
6595e3b4dc9090390e4edb5f,TCN,2024-06-25_11h29.13.343,LearnStrategy,2023.2.3,Win32,74.62686567,8,2,1,,,,,,,,1,06,,,,,,,,,,,1,5.601,1,,,,,,-0.336111111,-0.231481481,1,0,0,5.6011,Andesite_rect,0,0,0,0,1,
6595e3b4dc9090390e4edb5f,TCN,2024-06-25_11h29.13.343,LearnStrategy,2023.2.3,Win32,74.62686567,8,2,2,,,,,,,,4,10,,,,,,,,,,,4,3.097,1,,,,,,0.386111111,-0.244444444,1,0,0,3.0971,Gabbro_rect,1,0,1,0,1,
6595e3b4dc9090390e4edb5f,TCN,2024-06-25_11h29.13.343,LearnStrategy,2023.2.3,Win32,74.62686567,8,2,3,,,,,,,,1,11,,,,,,,,,,,4,5.039,0,,,,,,0.375925926,-0.25462963,1,0,0,5.0395,Gabbro_rect,2,0,2,0,1,
6595e3b4dc9090390e4edb5f,TCN,2024-06-25_11h29.13.343,LearnStrategy,2023.2.3,Win32,74.62686567,8,2,4,,,,,,,,4,05,,,,,,,,,,,7,2.297,0,,,,,,0.112962963,-0.406481481,1,0,0,2.2969,Peridotite_rect,3,0,3,0,1,
6595e3b4dc9090390e4edb5f,TCN,2024-06-25_11h29.13.343,LearnStrategy,2023.2.3,Win32,74.62686567,8,2,5,,,,,,,,2,16,,,,,,,,,,,8,2.727,0,,,,,,0.398148148,-0.401851852,1,0,0,2.7268,Pumice_rect,4,0,4,0,1,
6595e3b4dc9090390e4edb5f,TCN,2024-06-25_11h29.13.343,LearnStrategy,2023.2.3,Win32,74.62686567,8,2,6,,,,,,,,5,07,,,,,,,,,,,5,0.909,1,,,,,,-0.359259259,-0.378703704,1,0,0,0.9092,Obsidian_rect,5,0,5,0,1,
6595e3b4dc9090390e4edb5f,TCN,2024-06-25_11h29.13.343,LearnStrategy,2023.2.3,Win32,74.62686567,8,2,7,,,,,,,,2,12,,,,,,,,,,,4,3.207,0,,,,,,0.361111111,-0.251851852,1,0,0,3.2065,Gabbro_rect,6,0,6,0,1,
6595e3b4dc9090390e4edb5f,TCN,2024-06-25_11h29.13.343,LearnStrategy,2023.2.3,Win32,74.62686567,8,2,8,,,,,,,,3,13,,,,,,,,,,,3,1.352,1,,,,,,0.138888889,-0.246296296,1,0,0,1.352,Diorite_rect,7,0,7,0,1,
6595e3b4dc9090390e4edb5f,TCN,2024-06-25_11h29.13.343,LearnStrategy,2023.2.3,Win32,74.62686567,8,2,9,,,,,,,,7,06,,,,,,,,,,,7,0.978,1,,,,,,0.127777778,-0.394444444,1,0,0,0.978,Peridotite_rect,8,0,8,0,1,
6595e3b4dc9090390e4edb5f,TCN,2024-06-25_11h29.13.343,LearnStrategy,2023.2.3,Win32,74.62686567,8,2,10,,,,,,,,8,02,,,,,,,,,,,8,1.084,1,,,,,,0.425925926,-0.401851852,1,0,0,1.0845,Pumice_rect,9,0,9,0,1,
6595e3b4dc9090390e4edb5f,TCN,2024-06-25_11h29.13.343,LearnStrategy,2023.2.3,Win32,74.62686567,8,2,11,,,,,,,,6,13,,,,,,,,,,,6,1.135,1,,,,,,-0.147222222,-0.393518519,1,0,0,1.1346,Pegmatite_rect,10,0,10,0,1,
6595e3b4dc9090390e4edb5f,TCN,2024-06-25_11h29.13.343,LearnStrategy,2023.2.3,Win32,74.62686567,8,2,12,,,,,,,,6,16,,,,,,,,,,,6,1.819,1,,,,,,-0.134259259,-0.400925926,1,0,0,1.8194,Pegmatite_rect,11,0,11,0,1,
6595e3b4dc9090390e4edb5f,TCN,2024-06-25_11h29.13.343,LearnStrategy,2023.2.3,Win32,74.62686567,8,2,13,,,,,,,,7,12,,,,,,,,,,,7,4.123,1,,,,,,0.1,-0.410185185,1,0,0,4.1229,Peridotite_rect,12,0,12,0,1,
6595e3b4dc9090390e4edb5f,TCN,2024-06-25_11h29.13.343,LearnStrategy,2023.2.3,Win32,74.62686567,8,2,14,,,,,,,,5,05,,,,,,,,,,,5,1.031,1,,,,,,-0.424074074,-0.402777778,1,0,0,1.0315,Obsidian_rect,13,0,13,0,1,
6595e3b4dc9090390e4edb5f,TCN,2024-06-25_11h29.13.343,LearnStrategy,2023.2.3,Win32,74.62686567,8,2,15,,,,,,,,8,03,,,,,,,,,,,8,1.052,1,,,,,,0.411111111,-0.394444444,1,0,0,1.0518,Pumice_rect,14,0,14,0,1,
6595e3b4dc9090390e4edb5f,TCN,2024-06-25_11h29.13.343,LearnStrategy,2023.2.3,Win32,74.62686567,8,2,16,,,,,,,,3,12,,,,,,,,,,,3,1.37,1,,,,,,0.080555556,-0.267592593,1,0,0,1.3705,Diorite_rect,15,0,15,0,1,
6595e3b4dc9090390e4edb5f,TCN,2024-06-25_11h29.13.343,LearnStrategy,2023.2.3,Win32,74.62686567,9,1,1,0.059259259,0.00462963,1,0,0,0.7332,rock_grid_rect_2,8,05,-1,-1,0.733,0.34537037,-0.397222222,1,0,0,1.2095,Pumice_rect,8,1.21,1,0,0,0,0,1,,,,,,,,,,,,,
6595e3b4dc9090390e4edb5f,TCN,2024-06-25_11h29.13.343,LearnStrategy,2023.2.3,Win32,74.62686567,9,1,2,0.039814815,-0.015740741,1,0,0,0.5418,rock_grid_rect_2,6,10,-1,-1,0.542,0.143518519,-0.4,1,0,0,0.9478,Peridotite_rect,7,0.948,0,1,0,1,0,1,,,,,,,,,,,,,
6595e3b4dc9090390e4edb5f,TCN,2024-06-25_11h29.13.343,LearnStrategy,2023.2.3,Win32,74.62686567,9,1,3,0.064814815,0.003703704,1,0,0,0.6497,rock_grid_rect_2,1,03,-1,-1,0.65,-0.362962963,-0.256481481,1,0,0,2.6148,Andesite_rect,1,2.615,1,2,0,2,0,1,,,,,,,,,,,,,
6595e3b4dc9090390e4edb5f,TCN,2024-06-25_11h29.13.343,LearnStrategy,2023.2.3,Win32,74.62686567,9,1,4,0.055555556,0.002777778,1,0,0,0.5384,rock_grid_rect_2,7,10,-1,-1,0.538,0.135185185,-0.417592593,1,0,0,2.1847,Peridotite_rect,7,2.185,1,3,0,3,0,1,,,,,,,,,,,,,
6595e3b4dc9090390e4edb5f,TCN,2024-06-25_11h29.13.343,LearnStrategy,2023.2.3,Win32,74.62686567,9,1,5,0.027777778,-0.008333333,1,0,0,0.527,rock_grid_rect_2,5,06,-1,-1,0.527,-0.375,-0.407407407,1,0,0,0.8918,Obsidian_rect,5,0.892,1,4,0,4,0,1,,,,,,,,,,,,,
6595e3b4dc9090390e4edb5f,TCN,2024-06-25_11h29.13.343,LearnStrategy,2023.2.3,Win32,74.62686567,9,1,6,0.075,0.003703704,1,0,0,0.5555,rock_grid_rect_2,8,04,-1,-1,0.555,0.378703704,-0.388888889,1,0,0,0.9582,Pumice_rect,8,0.958,1,5,0,5,0,1,,,,,,,,,,,,,
6595e3b4dc9090390e4edb5f,TCN,2024-06-25_11h29.13.343,LearnStrategy,2023.2.3,Win32,74.62686567,9,1,7,0.051851852,-0.021296296,1,0,0,0.5505,rock_grid_rect_2,2,10,-1,-1,0.551,-0.071296296,-0.249074074,1,0,0,1.4925,Basalt_rect,2,1.493,1,6,0,6,0,1,,,,,,,,,,,,,
6595e3b4dc9090390e4edb5f,TCN,2024-06-25_11h29.13.343,LearnStrategy,2023.2.3,Win32,74.62686567,9,1,8,0.055555556,-0.00462963,1,0,0,0.6479,rock_grid_rect_2,6,08,-1,-1,0.648,-0.1,-0.403703704,1,0,0,1.5095,Pegmatite_rect,6,1.51,1,7,0,7,0,1,,,,,,,,,,,,,
6595e3b4dc9090390e4edb5f,TCN,2024-06-25_11h29.13.343,LearnStrategy,2023.2.3,Win32,74.62686567,9,1,9,0.031481481,-0.008333333,1,0,0,0.5514,rock_grid_rect_2,2,09,-1,-1,0.551,-0.112037037,-0.257407407,1,0,0,1.6366,Basalt_rect,2,1.637,1,8,0,8,0,1,,,,,,,,,,,,,
6595e3b4dc9090390e4edb5f,TCN,2024-06-25_11h29.13.343,LearnStrategy,2023.2.3,Win32,74.62686567,9,1,10,-0.001851852,-0.012962963,1,0,0,0.6122,rock_grid_rect_2,4,01,-1,-1,0.612,0.343518519,-0.262037037,1,0,0,2.5673,Gabbro_rect,4,2.567,1,9,0,9,0,1,,,,,,,,,,,,,
6595e3b4dc9090390e4edb5f,TCN,2024-06-25_11h29.13.343,LearnStrategy,2023.2.3,Win32,74.62686567,9,1,11,0.077777778,-0.00462963,1,0,0,0.5033,rock_grid_rect_2,7,16,-1,-1,0.503,0.165740741,-0.396296296,1,0,0,1.0076,Peridotite_rect,7,1.008,1,10,0,10,0,1,,,,,,,,,,,,,
6595e3b4dc9090390e4edb5f,TCN,2024-06-25_11h29.13.343,LearnStrategy,2023.2.3,Win32,74.62686567,9,1,12,0.016666667,-0.001851852,1,0,0,0.5007,rock_grid_rect_2,3,14,-1,-1,0.501,0.1,-0.264814815,1,0,0,1.1319,Diorite_rect,3,1.132,1,11,0,11,0,1,,,,,,,,,,,,,
6595e3b4dc9090390e4edb5f,TCN,2024-06-25_11h29.13.343,LearnStrategy,2023.2.3,Win32,74.62686567,9,1,13,0.058333333,-0.019444444,1,0,0,0.6129,rock_grid_rect_2,3,06,-1,-1,0.613,0.130555556,-0.244444444,1,0,0,0.8763,Diorite_rect,3,0.876,1,12,0,12,0,1,,,,,,,,,,,,,
6595e3b4dc9090390e4edb5f,TCN,2024-06-25_11h29.13.343,LearnStrategy,2023.2.3,Win32,74.62686567,9,1,14,0.035185185,-0.003703704,1,0,0,0.5197,rock_grid_rect_2,5,11,-1,-1,0.52,-0.387037037,-0.37962963,1,0,0,1.0766,Obsidian_rect,5,1.077,1,13,0,13,0,1,,,,,,,,,,,,,
6595e3b4dc9090390e4edb5f,TCN,2024-06-25_11h29.13.343,LearnStrategy,2023.2.3,Win32,74.62686567,9,1,15,0.080555556,-0.012037037,1,0,0,0.6424,rock_grid_rect_2,4,13,-1,-1,0.642,0.387037037,-0.239814815,1,0,0,1.5723,Gabbro_rect,4,1.572,1,14,0,14,0,1,,,,,,,,,,,,,
6595e3b4dc9090390e4edb5f,TCN,2024-06-25_11h29.13.343,LearnStrategy,2023.2.3,Win32,74.62686567,9,1,16,0.075925926,-0.010185185,1,0,0,0.5266,rock_grid_rect_2,1,01,-1,-1,0.527,-0.330555556,-0.22962963,1,0,0,1.7141,Andesite_rect,1,1.714,1,15,0,15,0,1,,,,,,,,,,,,,
6595e3b4dc9090390e4edb5f,TCN,2024-06-25_11h29.13.343,LearnStrategy,2023.2.3,Win32,74.62686567,9,2,1,,,,,,,,5,02,,,,,,,,,,,5,1.444,1,,,,,,-0.351851852,-0.382407407,1,0,0,1.4445,Obsidian_rect,0,0,0,0,1,
6595e3b4dc9090390e4edb5f,TCN,2024-06-25_11h29.13.343,LearnStrategy,2023.2.3,Win32,74.62686567,9,2,2,,,,,,,,8,10,,,,,,,,,,,8,0.995,1,,,,,,0.356481481,-0.417592593,1,0,0,0.9955,Pumice_rect,1,0,1,0,1,
6595e3b4dc9090390e4edb5f,TCN,2024-06-25_11h29.13.343,LearnStrategy,2023.2.3,Win32,74.62686567,9,2,3,,,,,,,,7,05,,,,,,,,,,,7,1.293,1,,,,,,0.165740741,-0.392592593,1,0,0,1.2932,Peridotite_rect,2,0,2,0,1,
6595e3b4dc9090390e4edb5f,TCN,2024-06-25_11h29.13.343,LearnStrategy,2023.2.3,Win32,74.62686567,9,2,4,,,,,,,,5,14,,,,,,,,,,,5,0.987,1,,,,,,-0.340740741,-0.385185185,1,0,0,0.9868,Obsidian_rect,3,0,3,0,1,
6595e3b4dc9090390e4edb5f,TCN,2024-06-25_11h29.13.343,LearnStrategy,2023.2.3,Win32,74.62686567,9,2,5,,,,,,,,6,09,,,,,,,,,,,6,1.731,1,,,,,,-0.135185185,-0.396296296,1,0,0,1.7314,Pegmatite_rect,4,0,4,0,1,
6595e3b4dc9090390e4edb5f,TCN,2024-06-25_11h29.13.343,LearnStrategy,2023.2.3,Win32,74.62686567,9,2,6,,,,,,,,3,08,,,,,,,,,,,3,0.857,1,,,,,,0.125,-0.256481481,1,0,0,0.8571,Diorite_rect,5,0,5,0,1,
6595e3b4dc9090390e4edb5f,TCN,2024-06-25_11h29.13.343,LearnStrategy,2023.2.3,Win32,74.62686567,9,2,7,,,,,,,,4,14,,,,,,,,,,,4,1.496,1,,,,,,0.373148148,-0.256481481,1,0,0,1.4964,Gabbro_rect,6,0,6,0,1,
6595e3b4dc9090390e4edb5f,TCN,2024-06-25_11h29.13.343,LearnStrategy,2023.2.3,Win32,74.62686567,9,2,8,,,,,,,,3,02,,,,,,,,,,,3,0.84,1,,,,,,0.114814815,-0.25,1,0,0,0.8397,Diorite_rect,7,0,7,0,1,
6595e3b4dc9090390e4edb5f,TCN,2024-06-25_11h29.13.343,LearnStrategy,2023.2.3,Win32,74.62686567,9,2,9,,,,,,,,2,08,,,,,,,,,,,2,1.077,1,,,,,,-0.078703704,-0.255555556,1,0,0,1.0767,Basalt_rect,8,0,8,0,1,
6595e3b4dc9090390e4edb5f,TCN,2024-06-25_11h29.13.343,LearnStrategy,2023.2.3,Win32,74.62686567,9,2,10,,,,,,,,4,12,,,,,,,,,,,4,2.049,1,,,,,,0.375925926,-0.251851852,1,0,0,2.0494,Gabbro_rect,9,0,9,0,1,
6595e3b4dc9090390e4edb5f,TCN,2024-06-25_11h29.13.343,LearnStrategy,2023.2.3,Win32,74.62686567,9,2,11,,,,,,,,8,06,,,,,,,,,,,8,0.882,1,,,,,,0.387962963,-0.394444444,1,0,0,0.8817,Pumice_rect,10,0,10,0,1,
6595e3b4dc9090390e4edb5f,TCN,2024-06-25_11h29.13.343,LearnStrategy,2023.2.3,Win32,74.62686567,9,2,12,,,,,,,,2,04,,,,,,,,,,,2,0.976,1,,,,,,-0.096296296,-0.22962963,1,0,0,0.976,Basalt_rect,11,0,11,0,1,
6595e3b4dc9090390e4edb5f,TCN,2024-06-25_11h29.13.343,LearnStrategy,2023.2.3,Win32,74.62686567,9,2,13,,,,,,,,1,04,,,,,,,,,,,1,1.24,1,,,,,,-0.359259259,-0.257407407,1,0,0,1.2397,Andesite_rect,12,0,12,0,1,
6595e3b4dc9090390e4edb5f,TCN,2024-06-25_11h29.13.343,LearnStrategy,2023.2.3,Win32,74.62686567,9,2,14,,,,,,,,1,07,,,,,,,,,,,1,4.29,1,,,,,,-0.350925926,-0.230555556,1,0,0,4.2902,Andesite_rect,13,0,13,0,1,
6595e3b4dc9090390e4edb5f,TCN,2024-06-25_11h29.13.343,LearnStrategy,2023.2.3,Win32,74.62686567,9,2,15,,,,,,,,6,15,,,,,,,,,,,6,0.989,1,,,,,,-0.119444444,-0.378703704,1,0,0,0.9889,Pegmatite_rect,14,0,14,0,1,
6595e3b4dc9090390e4edb5f,TCN,2024-06-25_11h29.13.343,LearnStrategy,2023.2.3,Win32,74.62686567,9,2,16,,,,,,,,7,15,,,,,,,,,,,7,1.352,1,,,,,,0.144444444,-0.391666667,1,0,0,1.3522,Peridotite_rect,15,0,15,0,1,
6595e3b4dc9090390e4edb5f,TCN,2024-06-25_11h29.13.343,LearnStrategy,2023.2.3,Win32,74.62686567,,,,,,,,,,,,,,,,,,,,,,,,,,,,,,,,,,,,,,,,,,,1
6595e3b4dc9090390e4edb5f,TCN,2024-06-25_11h29.13.343,LearnStrategy,2023.2.3,Win32,74.62686567,,,,,,,,,,,,,,,,,,,,,,,,,,,,,,,,,,,,,,,,,,,
6595e3b4dc9090390e4edb5f,TCN,2024-06-25_11h29.13.343,LearnStrategy,2023.2.3,Win32,74.62686567,,,,,,,,,,,6,11,1,1,,,,,,,,,,,,,,,,,,,,,,,,,,,,,
6595e3b4dc9090390e4edb5f,TCN,2024-06-25_11h29.13.343,LearnStrategy,2023.2.3,Win32,74.62686567,,,,,,,,,,,6,03,1,2,,,,,,,,,,,,,,,,,,,,,,,,,,,,,
6595e3b4dc9090390e4edb5f,TCN,2024-06-25_11h29.13.343,LearnStrategy,2023.2.3,Win32,74.62686567,,,,,,,,,,,8,04,1,3,,,,,,,,,,,,,,,,,,,,,,,,,,,,,
6595e3b4dc9090390e4edb5f,TCN,2024-06-25_11h29.13.343,LearnStrategy,2023.2.3,Win32,74.62686567,,,,,,,,,,,7,04,1,4,,,,,,,,,,,,,,,,,,,,,,,,,,,,,
6595e3b4dc9090390e4edb5f,TCN,2024-06-25_11h29.13.343,LearnStrategy,2023.2.3,Win32,74.62686567,,,,,,,,,,,5,11,1,5,,,,,,,,,,,,,,,,,,,,,,,,,,,,,
6595e3b4dc9090390e4edb5f,TCN,2024-06-25_11h29.13.343,LearnStrategy,2023.2.3,Win32,74.62686567,,,,,,,,,,,1,14,1,6,,,,,,,,,,,,,,,,,,,,,,,,,,,,,
6595e3b4dc9090390e4edb5f,TCN,2024-06-25_11h29.13.343,LearnStrategy,2023.2.3,Win32,74.62686567,,,,,,,,,,,2,10,1,7,,,,,,,,,,,,,,,,,,,,,,,,,,,,,
6595e3b4dc9090390e4edb5f,TCN,2024-06-25_11h29.13.343,LearnStrategy,2023.2.3,Win32,74.62686567,,,,,,,,,,,6,10,1,8,,,,,,,,,,,,,,,,,,,,,,,,,,,,,
6595e3b4dc9090390e4edb5f,TCN,2024-06-25_11h29.13.343,LearnStrategy,2023.2.3,Win32,74.62686567,,,,,,,,,,,8,15,2,1,,,,,,,,,,,,,,,,,,,,,,,,,,,,,
6595e3b4dc9090390e4edb5f,TCN,2024-06-25_11h29.13.343,LearnStrategy,2023.2.3,Win32,74.62686567,,,,,,,,,,,1,03,2,2,,,,,,,,,,,,,,,,,,,,,,,,,,,,,
6595e3b4dc9090390e4edb5f,TCN,2024-06-25_11h29.13.343,LearnStrategy,2023.2.3,Win32,74.62686567,,,,,,,,,,,3,11,2,3,,,,,,,,,,,,,,,,,,,,,,,,,,,,,
6595e3b4dc9090390e4edb5f,TCN,2024-06-25_11h29.13.343,LearnStrategy,2023.2.3,Win32,74.62686567,,,,,,,,,,,6,08,2,4,,,,,,,,,,,,,,,,,,,,,,,,,,,,,
6595e3b4dc9090390e4edb5f,TCN,2024-06-25_11h29.13.343,LearnStrategy,2023.2.3,Win32,74.62686567,,,,,,,,,,,3,09,2,5,,,,,,,,,,,,,,,,,,,,,,,,,,,,,
6595e3b4dc9090390e4edb5f,TCN,2024-06-25_11h29.13.343,LearnStrategy,2023.2.3,Win32,74.62686567,,,,,,,,,,,4,15,2,6,,,,,,,,,,,,,,,,,,,,,,,,,,,,,
6595e3b4dc9090390e4edb5f,TCN,2024-06-25_11h29.13.343,LearnStrategy,2023.2.3,Win32,74.62686567,,,,,,,,,,,2,09,2,7,,,,,,,,,,,,,,,,,,,,,,,,,,,,,
6595e3b4dc9090390e4edb5f,TCN,2024-06-25_11h29.13.343,LearnStrategy,2023.2.3,Win32,74.62686567,,,,,,,,,,,1,16,2,8,,,,,,,,,,,,,,,,,,,,,,,,,,,,,
6595e3b4dc9090390e4edb5f,TCN,2024-06-25_11h29.13.343,LearnStrategy,2023.2.3,Win32,74.62686567,,,,,,,,,,,6,05,3,1,,,,,,,,,,,,,,,,,,,,,,,,,,,,,
6595e3b4dc9090390e4edb5f,TCN,2024-06-25_11h29.13.343,LearnStrategy,2023.2.3,Win32,74.62686567,,,,,,,,,,,5,12,3,2,,,,,,,,,,,,,,,,,,,,,,,,,,,,,
6595e3b4dc9090390e4edb5f,TCN,2024-06-25_11h29.13.343,LearnStrategy,2023.2.3,Win32,74.62686567,,,,,,,,,,,3,07,3,3,,,,,,,,,,,,,,,,,,,,,,,,,,,,,
6595e3b4dc9090390e4edb5f,TCN,2024-06-25_11h29.13.343,LearnStrategy,2023.2.3,Win32,74.62686567,,,,,,,,,,,1,01,3,4,,,,,,,,,,,,,,,,,,,,,,,,,,,,,
6595e3b4dc9090390e4edb5f,TCN,2024-06-25_11h29.13.343,LearnStrategy,2023.2.3,Win32,74.62686567,,,,,,,,,,,3,06,3,5,,,,,,,,,,,,,,,,,,,,,,,,,,,,,
6595e3b4dc9090390e4edb5f,TCN,2024-06-25_11h29.13.343,LearnStrategy,2023.2.3,Win32,74.62686567,,,,,,,,,,,2,02,3,6,,,,,,,,,,,,,,,,,,,,,,,,,,,,,
6595e3b4dc9090390e4edb5f,TCN,2024-06-25_11h29.13.343,LearnStrategy,2023.2.3,Win32,74.62686567,,,,,,,,,,,1,09,3,7,,,,,,,,,,,,,,,,,,,,,,,,,,,,,
6595e3b4dc9090390e4edb5f,TCN,2024-06-25_11h29.13.343,LearnStrategy,2023.2.3,Win32,74.62686567,,,,,,,,,,,5,09,3,8,,,,,,,,,,,,,,,,,,,,,,,,,,,,,
6595e3b4dc9090390e4edb5f,TCN,2024-06-25_11h29.13.343,LearnStrategy,2023.2.3,Win32,74.62686567,,,,,,,,,,,2,14,4,1,,,,,,,,,,,,,,,,,,,,,,,,,,,,,
6595e3b4dc9090390e4edb5f,TCN,2024-06-25_11h29.13.343,LearnStrategy,2023.2.3,Win32,74.62686567,,,,,,,,,,,7,14,4,2,,,,,,,,,,,,,,,,,,,,,,,,,,,,,
6595e3b4dc9090390e4edb5f,TCN,2024-06-25_11h29.13.343,LearnStrategy,2023.2.3,Win32,74.62686567,,,,,,,,,,,8,09,4,3,,,,,,,,,,,,,,,,,,,,,,,,,,,,,
6595e3b4dc9090390e4edb5f,TCN,2024-06-25_11h29.13.343,LearnStrategy,2023.2.3,Win32,74.62686567,,,,,,,,,,,5,10,4,4,,,,,,,,,,,,,,,,,,,,,,,,,,,,,
6595e3b4dc9090390e4edb5f,TCN,2024-06-25_11h29.13.343,LearnStrategy,2023.2.3,Win32,74.62686567,,,,,,,,,,,6,07,4,5,,,,,,,,,,,,,,,,,,,,,,,,,,,,,
6595e3b4dc9090390e4edb5f,TCN,2024-06-25_11h29.13.343,LearnStrategy,2023.2.3,Win32,74.62686567,,,,,,,,,,,5,08,4,6,,,,,,,,,,,,,,,,,,,,,,,,,,,,,
6595e3b4dc9090390e4edb5f,TCN,2024-06-25_11h29.13.343,LearnStrategy,2023.2.3,Win32,74.62686567,,,,,,,,,,,2,01,4,7,,,,,,,,,,,,,,,,,,,,,,,,,,,,,
6595e3b4dc9090390e4edb5f,TCN,2024-06-25_11h29.13.343,LearnStrategy,2023.2.3,Win32,74.62686567,,,,,,,,,,,8,14,4,8,,,,,,,,,,,,,,,,,,,,,,,,,,,,,
6595e3b4dc9090390e4edb5f,TCN,2024-06-25_11h29.13.343,LearnStrategy,2023.2.3,Win32,74.62686567,,,,,,,,,,,4,11,5,1,,,,,,,,,,,,,,,,,,,,,,,,,,,,,
6595e3b4dc9090390e4edb5f,TCN,2024-06-25_11h29.13.343,LearnStrategy,2023.2.3,Win32,74.62686567,,,,,,,,,,,8,05,5,2,,,,,,,,,,,,,,,,,,,,,,,,,,,,,
6595e3b4dc9090390e4edb5f,TCN,2024-06-25_11h29.13.343,LearnStrategy,2023.2.3,Win32,74.62686567,,,,,,,,,,,4,13,5,3,,,,,,,,,,,,,,,,,,,,,,,,,,,,,
6595e3b4dc9090390e4edb5f,TCN,2024-06-25_11h29.13.343,LearnStrategy,2023.2.3,Win32,74.62686567,,,,,,,,,,,4,16,5,4,,,,,,,,,,,,,,,,,,,,,,,,,,,,,
6595e3b4dc9090390e4edb5f,TCN,2024-06-25_11h29.13.343,LearnStrategy,2023.2.3,Win32,74.62686567,,,,,,,,,,,3,14,5,5,,,,,,,,,,,,,,,,,,,,,,,,,,,,,
6595e3b4dc9090390e4edb5f,TCN,2024-06-25_11h29.13.343,LearnStrategy,2023.2.3,Win32,74.62686567,,,,,,,,,,,4,01,5,6,,,,,,,,,,,,,,,,,,,,,,,,,,,,,
6595e3b4dc9090390e4edb5f,TCN,2024-06-25_11h29.13.343,LearnStrategy,2023.2.3,Win32,74.62686567,,,,,,,,,,,7,07,5,7,,,,,,,,,,,,,,,,,,,,,,,,,,,,,
6595e3b4dc9090390e4edb5f,TCN,2024-06-25_11h29.13.343,LearnStrategy,2023.2.3,Win32,74.62686567,,,,,,,,,,,7,16,5,8,,,,,,,,,,,,,,,,,,,,,,,,,,,,,
6595e3b4dc9090390e4edb5f,TCN,2024-06-25_11h29.13.343,LearnStrategy,2023.2.3,Win32,74.62686567,,,,,,,,,,,7,10,6,1,,,,,,,,,,,,,,,,,,,,,,,,,,,,,
6595e3b4dc9090390e4edb5f,TCN,2024-06-25_11h29.13.343,LearnStrategy,2023.2.3,Win32,74.62686567,,,,,,,,,,,8,13,6,2,,,,,,,,,,,,,,,,,,,,,,,,,,,,,
6595e3b4dc9090390e4edb5f,TCN,2024-06-25_11h29.13.343,LearnStrategy,2023.2.3,Win32,74.62686567,,,,,,,,,,,7,02,6,3,,,,,,,,,,,,,,,,,,,,,,,,,,,,,
6595e3b4dc9090390e4edb5f,TCN,2024-06-25_11h29.13.343,LearnStrategy,2023.2.3,Win32,74.62686567,,,,,,,,,,,5,06,6,4,,,,,,,,,,,,,,,,,,,,,,,,,,,,,
6595e3b4dc9090390e4edb5f,TCN,2024-06-25_11h29.13.343,LearnStrategy,2023.2.3,Win32,74.62686567,,,,,,,,,,,1,10,6,5,,,,,,,,,,,,,,,,,,,,,,,,,,,,,
6595e3b4dc9090390e4edb5f,TCN,2024-06-25_11h29.13.343,LearnStrategy,2023.2.3,Win32,74.62686567,,,,,,,,,,,3,10,6,6,,,,,,,,,,,,,,,,,,,,,,,,,,,,,
6595e3b4dc9090390e4edb5f,TCN,2024-06-25_11h29.13.343,LearnStrategy,2023.2.3,Win32,74.62686567,,,,,,,,,,,2,05,6,7,,,,,,,,,,,,,,,,,,,,,,,,,,,,,
6595e3b4dc9090390e4edb5f,TCN,2024-06-25_11h29.13.343,LearnStrategy,2023.2.3,Win32,74.62686567,,,,,,,,,,,4,03,6,8,,,,,,,,,,,,,,,,,,,,,,,,,,,,,