participant,condition,date,expName,psychopyVersion,OS,frameRate,block,phase,trial,learn_mouse_2.x,learn_mouse_2.y,learn_mouse_2.leftButton,learn_mouse_2.midButton,learn_mouse_2.rightButton,learn_mouse_2.time,learn_mouse_2.clicked_name,cat,token,row,col,t_select,cat_mouse_l.x,cat_mouse_l.y,cat_mouse_l.leftButton,cat_mouse_l.midButton,cat_mouse_l.rightButton,cat_mouse_l.time,cat_mouse_l.clicked_name,resp,t_resp,corr,train_trials.thisRepN,train_trials.thisTrialN,train_trials.thisN,train_trials.thisIndex,train_trials.ran,cat_mouse_t.x,cat_mouse_t.y,cat_mouse_t.leftButton,cat_mouse_t.midButton,cat_mouse_t.rightButton,cat_mouse_t.time,cat_mouse_t.clicked_name,test_trials.thisRepN,test_trials.thisTrialN,test_trials.thisN,test_trials.thisIndex,test_trials.ran,Bonus
659daa1ed4e13d6428103c1f,TCN,2024-06-24_17h33.35.110,LearnStrategy,2023.2.3,Win32,60.24096386,,,,,,,,,,,,,,,,,,,,,,,,,,,,,,,,,,,,,,,,,,,
659daa1ed4e13d6428103c1f,TCN,2024-06-24_17h33.35.110,LearnStrategy,2023.2.3,Win32,60.24096386,1,1,1,0.012963019,0.005555556,1,0,0,2.3739,rock_grid_rect_2,4,11,-1,-1,2.374,0.145370399,-0.382407464,1,0,0,9.3766,Peridotite_rect,7,9.377,0,0,0,0,0,1,,,,,,,,,,,,,
659daa1ed4e13d6428103c1f,TCN,2024-06-24_17h33.35.110,LearnStrategy,2023.2.3,Win32,60.24096386,1,1,2,0.013888889,-0.008333333,1,0,0,1.8546,rock_grid_rect_2,1,04,-1,-1,1.855,-0.142592536,-0.248148176,1,0,0,7.4211,Basalt_rect,2,7.421,0,1,0,1,0,1,,,,,,,,,,,,,
659daa1ed4e13d6428103c1f,TCN,2024-06-24_17h33.35.110,LearnStrategy,2023.2.3,Win32,60.24096386,1,1,3,0.037037065,-0.00648151,1,0,0,1.804,rock_grid_rect_2,7,07,-1,-1,1.804,0.121296353,-0.252777778,1,0,0,1.9759,Diorite_rect,3,1.976,0,2,0,2,0,1,,,,,,,,,,,,,
659daa1ed4e13d6428103c1f,TCN,2024-06-24_17h33.35.110,LearnStrategy,2023.2.3,Win32,60.24096386,1,1,4,-0.015740712,-0.013888889,1,0,0,1.3619,rock_grid_rect_2,6,12,-1,-1,1.362,-0.179629601,-0.40648151,1,0,0,2.2574,Pegmatite_rect,6,2.257,1,3,0,3,0,1,,,,,,,,,,,,,
659daa1ed4e13d6428103c1f,TCN,2024-06-24_17h33.35.110,LearnStrategy,2023.2.3,Win32,60.24096386,1,1,5,-0.019444444,-0.007407422,1,0,0,1.2787,rock_grid_rect_2,7,02,-1,-1,1.279,-0.430555556,-0.400925954,1,0,0,1.6742,Obsidian_rect,5,1.674,0,4,0,4,0,1,,,,,,,,,,,,,
659daa1ed4e13d6428103c1f,TCN,2024-06-24_17h33.35.110,LearnStrategy,2023.2.3,Win32,60.24096386,1,1,6,-0.058333333,-0.000925954,1,0,0,2.0685,rock_grid_rect_2,5,09,-1,-1,2.069,-0.172222222,-0.248148176,1,0,0,4.7647,Basalt_rect,2,4.765,0,5,0,5,0,1,,,,,,,,,,,,,
659daa1ed4e13d6428103c1f,TCN,2024-06-24_17h33.35.110,LearnStrategy,2023.2.3,Win32,60.24096386,1,1,7,-0.05,0,1,0,0,1.1115,rock_grid_rect_2,3,13,-1,-1,1.111,0.084259288,-0.407407464,1,0,0,2.731,Peridotite_rect,7,2.731,0,6,0,6,0,1,,,,,,,,,,,,,
659daa1ed4e13d6428103c1f,TCN,2024-06-24_17h33.35.110,LearnStrategy,2023.2.3,Win32,60.24096386,1,1,8,-0.037962935,-0.003703732,1,0,0,1.2459,rock_grid_rect_2,4,13,-1,-1,1.246,-0.409259245,-0.398148176,1,0,0,2.832,Obsidian_rect,5,2.832,0,7,0,7,0,1,,,,,,,,,,,,,
659daa1ed4e13d6428103c1f,TCN,2024-06-24_17h33.35.110,LearnStrategy,2023.2.3,Win32,60.24096386,1,1,9,-0.040740712,0.00370369,1,0,0,1.0776,rock_grid_rect_2,3,09,-1,-1,1.078,-0.386111111,-0.249074131,1,0,0,3.2433,Andesite_rect,1,3.243,0,8,0,8,0,1,,,,,,,,,,,,,
659daa1ed4e13d6428103c1f,TCN,2024-06-24_17h33.35.110,LearnStrategy,2023.2.3,Win32,60.24096386,1,1,10,-0.01851849,0.00370369,1,0,0,1.0625,rock_grid_rect_2,8,02,-1,-1,1.063,0.379629686,-0.398148176,1,0,0,3.935,Pumice_rect,8,3.935,1,9,0,9,0,1,,,,,,,,,,,,,
659daa1ed4e13d6428103c1f,TCN,2024-06-24_17h33.35.110,LearnStrategy,2023.2.3,Win32,60.24096386,1,1,11,-0.009259203,-0.003703732,1,0,0,1.0467,rock_grid_rect_2,2,11,-1,-1,1.047,-0.175,-0.25,1,0,0,3.1397,Basalt_rect,2,3.14,1,10,0,10,0,1,,,,,,,,,,,,,
659daa1ed4e13d6428103c1f,TCN,2024-06-24_17h33.35.110,LearnStrategy,2023.2.3,Win32,60.24096386,1,1,12,-0.006481425,0.000925912,1,0,0,1.1798,rock_grid_rect_2,1,05,-1,-1,1.18,-0.387037023,-0.400925954,1,0,0,3.1008,Obsidian_rect,5,3.101,0,11,0,11,0,1,,,,,,,,,,,,,
659daa1ed4e13d6428103c1f,TCN,2024-06-24_17h33.35.110,LearnStrategy,2023.2.3,Win32,60.24096386,1,1,13,-0.099074046,-0.004629644,1,0,0,0.9136,rock_grid_rect_2,6,08,-1,-1,0.914,0.152777778,-0.25,1,0,0,5.7719,Diorite_rect,3,5.772,0,12,0,12,0,1,,,,,,,,,,,,,
659daa1ed4e13d6428103c1f,TCN,2024-06-24_17h33.35.110,LearnStrategy,2023.2.3,Win32,60.24096386,1,1,14,-0.023148092,-0.009259288,1,0,0,1.3326,rock_grid_rect_2,5,02,-1,-1,1.333,0.092592621,-0.240740797,1,0,0,2.0065,Diorite_rect,3,2.006,0,13,0,13,0,1,,,,,,,,,,,,,
659daa1ed4e13d6428103c1f,TCN,2024-06-24_17h33.35.110,LearnStrategy,2023.2.3,Win32,60.24096386,1,1,15,-0.070370314,-0.003703732,1,0,0,1.1693,rock_grid_rect_2,2,12,-1,-1,1.169,0.395370399,-0.392592621,1,0,0,2.0826,Pumice_rect,8,2.083,0,14,0,14,0,1,,,,,,,,,,,,,
659daa1ed4e13d6428103c1f,TCN,2024-06-24_17h33.35.110,LearnStrategy,2023.2.3,Win32,60.24096386,1,1,16,-0.058333333,-0.003703732,1,0,0,1.147,rock_grid_rect_2,8,15,-1,-1,1.147,-0.456481467,-0.246296353,1,0,0,2.1771,Andesite_rect,1,2.177,0,15,0,15,0,1,,,,,,,,,,,,,
659daa1ed4e13d6428103c1f,TCN,2024-06-24_17h33.35.110,LearnStrategy,2023.2.3,Win32,60.24096386,1,2,1,,,,,,,,5,06,,,,,,,,,,,3,3.004,0,,,,,,0.159259288,-0.268518575,1,0,0,3.0043,Diorite_rect,0,0,0,0,1,
659daa1ed4e13d6428103c1f,TCN,2024-06-24_17h33.35.110,LearnStrategy,2023.2.3,Win32,60.24096386,1,2,2,,,,,,,,2,16,,,,,,,,,,,4,2.237,0,,,,,,0.379629686,-0.242592621,1,0,0,2.2372,Gabbro_rect,1,0,1,0,1,
659daa1ed4e13d6428103c1f,TCN,2024-06-24_17h33.35.110,LearnStrategy,2023.2.3,Win32,60.24096386,1,2,3,,,,,,,,3,15,,,,,,,,,,,3,3.31,1,,,,,,0.094444444,-0.255555556,1,0,0,3.3101,Diorite_rect,2,0,2,0,1,
659daa1ed4e13d6428103c1f,TCN,2024-06-24_17h33.35.110,LearnStrategy,2023.2.3,Win32,60.24096386,1,2,4,,,,,,,,1,03,,,,,,,,,,,5,2.303,0,,,,,,-0.390740712,-0.411111111,1,0,0,2.3032,Obsidian_rect,3,0,3,0,1,
659daa1ed4e13d6428103c1f,TCN,2024-06-24_17h33.35.110,LearnStrategy,2023.2.3,Win32,60.24096386,1,2,5,,,,,,,,4,16,,,,,,,,,,,2,1.593,0,,,,,,-0.162036981,-0.253703732,1,0,0,1.5931,Basalt_rect,4,0,4,0,1,
659daa1ed4e13d6428103c1f,TCN,2024-06-24_17h33.35.110,LearnStrategy,2023.2.3,Win32,60.24096386,1,2,6,,,,,,,,8,10,,,,,,,,,,,8,1.597,1,,,,,,0.393518575,-0.412037065,1,0,0,1.5971,Pumice_rect,5,0,5,0,1,
659daa1ed4e13d6428103c1f,TCN,2024-06-24_17h33.35.110,LearnStrategy,2023.2.3,Win32,60.24096386,1,2,7,,,,,,,,1,07,,,,,,,,,,,1,1.536,1,,,,,,-0.416666667,-0.257407464,1,0,0,1.5365,Andesite_rect,6,0,6,0,1,
659daa1ed4e13d6428103c1f,TCN,2024-06-24_17h33.35.110,LearnStrategy,2023.2.3,Win32,60.24096386,1,2,8,,,,,,,,6,06,,,,,,,,,,,6,1.957,1,,,,,,-0.125,-0.410185242,1,0,0,1.957,Pegmatite_rect,7,0,7,0,1,
659daa1ed4e13d6428103c1f,TCN,2024-06-24_17h33.35.110,LearnStrategy,2023.2.3,Win32,60.24096386,1,2,9,,,,,,,,5,04,,,,,,,,,,,3,1.419,0,,,,,,0.100925954,-0.265740797,1,0,0,1.419,Diorite_rect,8,0,8,0,1,
659daa1ed4e13d6428103c1f,TCN,2024-06-24_17h33.35.110,LearnStrategy,2023.2.3,Win32,60.24096386,1,2,10,,,,,,,,3,11,,,,,,,,,,,4,1.648,0,,,,,,0.352777778,-0.259259288,1,0,0,1.6478,Gabbro_rect,9,0,9,0,1,
659daa1ed4e13d6428103c1f,TCN,2024-06-24_17h33.35.110,LearnStrategy,2023.2.3,Win32,60.24096386,1,2,11,,,,,,,,6,09,,,,,,,,,,,7,1.467,0,,,,,,0.077777778,-0.398148176,1,0,0,1.467,Peridotite_rect,10,0,10,0,1,
659daa1ed4e13d6428103c1f,TCN,2024-06-24_17h33.35.110,LearnStrategy,2023.2.3,Win32,60.24096386,1,2,12,,,,,,,,7,15,,,,,,,,,,,2,1.271,0,,,,,,-0.164814758,-0.264814843,1,0,0,1.2707,Basalt_rect,11,0,11,0,1,
659daa1ed4e13d6428103c1f,TCN,2024-06-24_17h33.35.110,LearnStrategy,2023.2.3,Win32,60.24096386,1,2,13,,,,,,,,4,01,,,,,,,,,,,1,1.138,0,,,,,,-0.399074046,-0.266666667,1,0,0,1.1378,Andesite_rect,12,0,12,0,1,
659daa1ed4e13d6428103c1f,TCN,2024-06-24_17h33.35.110,LearnStrategy,2023.2.3,Win32,60.24096386,1,2,14,,,,,,,,8,08,,,,,,,,,,,8,3.149,1,,,,,,0.371296353,-0.387037065,1,0,0,3.1489,Pumice_rect,13,0,13,0,1,
659daa1ed4e13d6428103c1f,TCN,2024-06-24_17h33.35.110,LearnStrategy,2023.2.3,Win32,60.24096386,1,2,15,,,,,,,,7,06,,,,,,,,,,,5,1.388,0,,,,,,-0.45370369,-0.389814843,1,0,0,1.3883,Obsidian_rect,14,0,14,0,1,
659daa1ed4e13d6428103c1f,TCN,2024-06-24_17h33.35.110,LearnStrategy,2023.2.3,Win32,60.24096386,1,2,16,,,,,,,,2,10,,,,,,,,,,,2,1.189,1,,,,,,-0.15,-0.243518575,1,0,0,1.189,Basalt_rect,15,0,15,0,1,
659daa1ed4e13d6428103c1f,TCN,2024-06-24_17h33.35.110,LearnStrategy,2023.2.3,Win32,60.24096386,2,1,1,0.029629686,-0.00648151,1,0,0,1.2806,rock_grid_rect_2,4,03,-1,-1,1.281,0.123148176,-0.233333333,1,0,0,2.557,Diorite_rect,3,2.557,0,0,0,0,0,1,,,,,,,,,,,,,
659daa1ed4e13d6428103c1f,TCN,2024-06-24_17h33.35.110,LearnStrategy,2023.2.3,Win32,60.24096386,2,1,2,0.057407464,-0.015740755,1,0,0,1.104,rock_grid_rect_2,6,05,-1,-1,1.104,0.092592621,-0.254629686,1,0,0,1.4658,Diorite_rect,3,1.466,0,1,0,1,0,1,,,,,,,,,,,,,
659daa1ed4e13d6428103c1f,TCN,2024-06-24_17h33.35.110,LearnStrategy,2023.2.3,Win32,60.24096386,2,1,3,0.003703732,-0.004629644,1,0,0,1.0702,rock_grid_rect_2,1,01,-1,-1,1.07,-0.147222222,-0.254629686,1,0,0,1.0354,Basalt_rect,2,1.035,0,2,0,2,0,1,,,,,,,,,,,,,
659daa1ed4e13d6428103c1f,TCN,2024-06-24_17h33.35.110,LearnStrategy,2023.2.3,Win32,60.24096386,2,1,4,0.018518575,0.004629601,1,0,0,1.1627,rock_grid_rect_2,8,09,-1,-1,1.163,-0.447222222,-0.392592621,1,0,0,7.52,Obsidian_rect,5,7.52,0,3,0,3,0,1,,,,,,,,,,,,,
659daa1ed4e13d6428103c1f,TCN,2024-06-24_17h33.35.110,LearnStrategy,2023.2.3,Win32,60.24096386,2,1,5,-0.094444444,0.012962935,1,0,0,1.0681,rock_grid_rect_2,5,10,-1,-1,1.068,0.087963019,-0.241666667,1,0,0,1.2514,Diorite_rect,3,1.251,0,4,0,4,0,1,,,,,,,,,,,,,
659daa1ed4e13d6428103c1f,TCN,2024-06-24_17h33.35.110,LearnStrategy,2023.2.3,Win32,60.24096386,2,1,6,-0.017592536,-0.009259288,1,0,0,1.0466,rock_grid_rect_2,7,14,-1,-1,1.047,0.366666667,-0.252777778,1,0,0,1.4062,Gabbro_rect,4,1.406,0,5,0,5,0,1,,,,,,,,,,,,,
659daa1ed4e13d6428103c1f,TCN,2024-06-24_17h33.35.110,LearnStrategy,2023.2.3,Win32,60.24096386,2,1,7,-0.076851824,0.001851824,1,0,0,0.902,rock_grid_rect_2,3,14,-1,-1,0.902,0.104629686,-0.266666667,1,0,0,1.4091,Diorite_rect,3,1.409,1,6,0,6,0,1,,,,,,,,,,,,,
659daa1ed4e13d6428103c1f,TCN,2024-06-24_17h33.35.110,LearnStrategy,2023.2.3,Win32,60.24096386,2,1,8,-0.025925869,-0.012962977,1,0,0,0.9964,rock_grid_rect_2,5,12,-1,-1,0.996,-0.44351849,-0.393518575,1,0,0,2.9939,Obsidian_rect,5,2.994,1,7,0,7,0,1,,,,,,,,,,,,,
659daa1ed4e13d6428103c1f,TCN,2024-06-24_17h33.35.110,LearnStrategy,2023.2.3,Win32,60.24096386,2,1,9,-0.024074046,-0.011111111,1,0,0,1.0127,rock_grid_rect_2,6,10,-1,-1,1.013,0.097222222,-0.400925954,1,0,0,1.8896,Peridotite_rect,7,1.89,0,8,0,8,0,1,,,,,,,,,,,,,
659daa1ed4e13d6428103c1f,TCN,2024-06-24_17h33.35.110,LearnStrategy,2023.2.3,Win32,60.24096386,2,1,10,-0.05,-0.010185199,1,0,0,1.0067,rock_grid_rect_2,2,14,-1,-1,1.007,-0.137962935,-0.249074131,1,0,0,1.4422,Basalt_rect,2,1.442,1,9,0,9,0,1,,,,,,,,,,,,,
659daa1ed4e13d6428103c1f,TCN,2024-06-24_17h33.35.110,LearnStrategy,2023.2.3,Win32,60.24096386,2,1,11,-0.002777778,0.007407379,1,0,0,1.0472,rock_grid_rect_2,1,16,-1,-1,1.047,0.102777778,-0.25648151,1,0,0,1.6922,Diorite_rect,3,1.692,0,10,0,10,0,1,,,,,,,,,,,,,
659daa1ed4e13d6428103c1f,TCN,2024-06-24_17h33.35.110,LearnStrategy,2023.2.3,Win32,60.24096386,2,1,12,-0.11851849,0.007407379,1,0,0,0.8606,rock_grid_rect_2,4,05,-1,-1,0.861,0.357407464,-0.249074131,1,0,0,2.6346,Gabbro_rect,4,2.635,1,11,0,11,0,1,,,,,,,,,,,,,
659daa1ed4e13d6428103c1f,TCN,2024-06-24_17h33.35.110,LearnStrategy,2023.2.3,Win32,60.24096386,2,1,13,-0.098148092,0.006481467,1,0,0,1.1919,rock_grid_rect_2,8,05,-1,-1,1.192,0.443518575,-0.411111111,1,0,0,4.2008,Pumice_rect,8,4.201,1,12,0,12,0,1,,,,,,,,,,,,,
659daa1ed4e13d6428103c1f,TCN,2024-06-24_17h33.35.110,LearnStrategy,2023.2.3,Win32,60.24096386,2,1,14,-0.012962935,-0.004629644,1,0,0,3.2183,rock_grid_rect_2,3,07,-1,-1,3.218,-0.342592578,-0.245370399,1,0,0,3.2988,Andesite_rect,1,3.299,0,13,0,13,0,1,,,,,,,,,,,,,
659daa1ed4e13d6428103c1f,TCN,2024-06-24_17h33.35.110,LearnStrategy,2023.2.3,Win32,60.24096386,2,1,15,0.014814843,-0.010185199,1,0,0,0.9761,rock_grid_rect_2,7,16,-1,-1,0.976,-0.131481425,-0.268518575,1,0,0,3.7391,Basalt_rect,2,3.739,0,14,0,14,0,1,,,,,,,,,,,,,
659daa1ed4e13d6428103c1f,TCN,2024-06-24_17h33.35.110,LearnStrategy,2023.2.3,Win32,60.24096386,2,1,16,-0.012036981,-0.016666667,1,0,0,0.8616,rock_grid_rect_2,2,05,-1,-1,0.862,0.15648151,-0.262963019,1,0,0,2.2233,Diorite_rect,3,2.223,0,15,0,15,0,1,,,,,,,,,,,,,
659daa1ed4e13d6428103c1f,TCN,2024-06-24_17h33.35.110,LearnStrategy,2023.2.3,Win32,60.24096386,2,2,1,,,,,,,,1,10,,,,,,,,,,,8,4.005,0,,,,,,0.364814843,-0.402777778,1,0,0,4.0054,Pumice_rect,0,0,0,0,1,
659daa1ed4e13d6428103c1f,TCN,2024-06-24_17h33.35.110,LearnStrategy,2023.2.3,Win32,60.24096386,2,2,2,,,,,,,,1,09,,,,,,,,,,,3,2.423,0,,,,,,0.105555556,-0.267592621,1,0,0,2.4229,Diorite_rect,1,0,1,0,1,
659daa1ed4e13d6428103c1f,TCN,2024-06-24_17h33.35.110,LearnStrategy,2023.2.3,Win32,60.24096386,2,2,3,,,,,,,,4,08,,,,,,,,,,,2,1.34,0,,,,,,-0.129629601,-0.269444444,1,0,0,1.3399,Basalt_rect,2,0,2,0,1,
659daa1ed4e13d6428103c1f,TCN,2024-06-24_17h33.35.110,LearnStrategy,2023.2.3,Win32,60.24096386,2,2,4,,,,,,,,3,10,,,,,,,,,,,7,2.071,0,,,,,,0.08148151,-0.404629686,1,0,0,2.071,Peridotite_rect,3,0,3,0,1,
659daa1ed4e13d6428103c1f,TCN,2024-06-24_17h33.35.110,LearnStrategy,2023.2.3,Win32,60.24096386,2,2,5,,,,,,,,8,04,,,,,,,,,,,8,1.399,1,,,,,,0.394444444,-0.40648151,1,0,0,1.3988,Pumice_rect,4,0,4,0,1,
659daa1ed4e13d6428103c1f,TCN,2024-06-24_17h33.35.110,LearnStrategy,2023.2.3,Win32,60.24096386,2,2,6,,,,,,,,6,16,,,,,,,,,,,6,3.61,1,,,,,,-0.154629601,-0.413888889,1,0,0,3.6102,Pegmatite_rect,5,0,5,0,1,
659daa1ed4e13d6428103c1f,TCN,2024-06-24_17h33.35.110,LearnStrategy,2023.2.3,Win32,60.24096386,2,2,7,,,,,,,,4,10,,,,,,,,,,,5,1.199,0,,,,,,-0.438888889,-0.404629686,1,0,0,1.199,Obsidian_rect,6,0,6,0,1,
659daa1ed4e13d6428103c1f,TCN,2024-06-24_17h33.35.110,LearnStrategy,2023.2.3,Win32,60.24096386,2,2,8,,,,,,,,2,04,,,,,,,,,,,1,1.494,0,,,,,,-0.438888889,-0.257407464,1,0,0,1.4941,Andesite_rect,7,0,7,0,1,
659daa1ed4e13d6428103c1f,TCN,2024-06-24_17h33.35.110,LearnStrategy,2023.2.3,Win32,60.24096386,2,2,9,,,,,,,,5,08,,,,,,,,,,,3,1.676,0,,,,,,0.1,-0.254629686,1,0,0,1.6761,Diorite_rect,8,0,8,0,1,
659daa1ed4e13d6428103c1f,TCN,2024-06-24_17h33.35.110,LearnStrategy,2023.2.3,Win32,60.24096386,2,2,10,,,,,,,,3,02,,,,,,,,,,,4,1.593,0,,,,,,0.38148151,-0.260185242,1,0,0,1.5934,Gabbro_rect,9,0,9,0,1,
659daa1ed4e13d6428103c1f,TCN,2024-06-24_17h33.35.110,LearnStrategy,2023.2.3,Win32,60.24096386,2,2,11,,,,,,,,6,07,,,,,,,,,,,7,1.195,0,,,,,,0.137037065,-0.412037065,1,0,0,1.1947,Peridotite_rect,10,0,10,0,1,
659daa1ed4e13d6428103c1f,TCN,2024-06-24_17h33.35.110,LearnStrategy,2023.2.3,Win32,60.24096386,2,2,12,,,,,,,,7,08,,,,,,,,,,,2,1.012,0,,,,,,-0.157407379,-0.255555556,1,0,0,1.0118,Basalt_rect,11,0,11,0,1,
659daa1ed4e13d6428103c1f,TCN,2024-06-24_17h33.35.110,LearnStrategy,2023.2.3,Win32,60.24096386,2,2,13,,,,,,,,7,13,,,,,,,,,,,7,1.261,1,,,,,,0.148148176,-0.409259288,1,0,0,1.2608,Peridotite_rect,12,0,12,0,1,
659daa1ed4e13d6428103c1f,TCN,2024-06-24_17h33.35.110,LearnStrategy,2023.2.3,Win32,60.24096386,2,2,14,,,,,,,,5,05,,,,,,,,,,,5,1.727,1,,,,,,-0.382407379,-0.40648151,1,0,0,1.7266,Obsidian_rect,13,0,13,0,1,
659daa1ed4e13d6428103c1f,TCN,2024-06-24_17h33.35.110,LearnStrategy,2023.2.3,Win32,60.24096386,2,2,15,,,,,,,,2,08,,,,,,,,,,,1,1.012,0,,,,,,-0.436111111,-0.25,1,0,0,1.0118,Andesite_rect,14,0,14,0,1,
659daa1ed4e13d6428103c1f,TCN,2024-06-24_17h33.35.110,LearnStrategy,2023.2.3,Win32,60.24096386,2,2,16,,,,,,,,8,13,,,,,,,,,,,3,0.979,0,,,,,,0.115740797,-0.249074131,1,0,0,0.9794,Diorite_rect,15,0,15,0,1,
659daa1ed4e13d6428103c1f,TCN,2024-06-24_17h33.35.110,LearnStrategy,2023.2.3,Win32,60.24096386,3,1,1,0.021296353,-0.013888889,1,0,0,1.4621,rock_grid_rect_2,3,16,-1,-1,1.462,0.119444444,-0.235185242,1,0,0,3.34,Diorite_rect,3,3.34,1,0,0,0,0,1,,,,,,,,,,,,,
659daa1ed4e13d6428103c1f,TCN,2024-06-24_17h33.35.110,LearnStrategy,2023.2.3,Win32,60.24096386,3,1,2,0.040740797,-0.008333333,1,0,0,1.1793,rock_grid_rect_2,5,07,-1,-1,1.179,-0.383333333,-0.40648151,1,0,0,3.2562,Obsidian_rect,5,3.256,1,1,0,1,0,1,,,,,,,,,,,,,
659daa1ed4e13d6428103c1f,TCN,2024-06-24_17h33.35.110,LearnStrategy,2023.2.3,Win32,60.24096386,3,1,3,-0.047222222,-0.016666667,1,0,0,1.0207,rock_grid_rect_2,6,15,-1,-1,1.021,0.104629686,-0.395370399,1,0,0,1.8911,Peridotite_rect,7,1.891,0,2,0,2,0,1,,,,,,,,,,,,,
659daa1ed4e13d6428103c1f,TCN,2024-06-24_17h33.35.110,LearnStrategy,2023.2.3,Win32,60.24096386,3,1,4,-0.041666667,0.001851824,1,0,0,1.093,rock_grid_rect_2,2,09,-1,-1,1.093,0.438888889,-0.257407464,1,0,0,3.3946,Gabbro_rect,4,3.395,0,3,0,3,0,1,,,,,,,,,,,,,
659daa1ed4e13d6428103c1f,TCN,2024-06-24_17h33.35.110,LearnStrategy,2023.2.3,Win32,60.24096386,3,1,5,0.033333333,0.004629601,1,0,0,0.8791,rock_grid_rect_2,3,12,-1,-1,0.879,0.137037065,-0.413888889,1,0,0,1.519,Peridotite_rect,7,1.519,0,4,0,4,0,1,,,,,,,,,,,,,
659daa1ed4e13d6428103c1f,TCN,2024-06-24_17h33.35.110,LearnStrategy,2023.2.3,Win32,60.24096386,3,1,6,0.028703732,-0.003703732,1,0,0,1.1376,rock_grid_rect_2,4,15,-1,-1,1.138,0.362037065,-0.262037065,1,0,0,1.7163,Gabbro_rect,4,1.716,1,5,0,5,0,1,,,,,,,,,,,,,
659daa1ed4e13d6428103c1f,TCN,2024-06-24_17h33.35.110,LearnStrategy,2023.2.3,Win32,60.24096386,3,1,7,0.008333333,0.004629601,1,0,0,1.0623,rock_grid_rect_2,6,03,-1,-1,1.062,0.119444444,-0.413888889,1,0,0,1.5494,Peridotite_rect,7,1.549,0,6,0,6,0,1,,,,,,,,,,,,,
659daa1ed4e13d6428103c1f,TCN,2024-06-24_17h33.35.110,LearnStrategy,2023.2.3,Win32,60.24096386,3,1,8,0.033333333,-0.00648151,1,0,0,1.1055,rock_grid_rect_2,2,02,-1,-1,1.106,-0.124074046,-0.250925954,1,0,0,2.683,Basalt_rect,2,2.683,1,7,0,7,0,1,,,,,,,,,,,,,
659daa1ed4e13d6428103c1f,TCN,2024-06-24_17h33.35.110,LearnStrategy,2023.2.3,Win32,60.24096386,3,1,9,-0.024074046,-0.005555556,1,0,0,0.9954,rock_grid_rect_2,7,12,-1,-1,0.995,-0.110185157,-0.390740797,1,0,0,5.3371,Pegmatite_rect,6,5.337,0,8,0,8,0,1,,,,,,,,,,,,,
659daa1ed4e13d6428103c1f,TCN,2024-06-24_17h33.35.110,LearnStrategy,2023.2.3,Win32,60.24096386,3,1,10,0.013888889,-0.015740755,1,0,0,0.9146,rock_grid_rect_2,1,06,-1,-1,0.915,0.121296353,-0.260185242,1,0,0,1.6327,Diorite_rect,3,1.633,0,9,0,9,0,1,,,,,,,,,,,,,
659daa1ed4e13d6428103c1f,TCN,2024-06-24_17h33.35.110,LearnStrategy,2023.2.3,Win32,60.24096386,3,1,11,-0.038888889,0.014814801,1,0,0,0.8809,rock_grid_rect_2,8,06,-1,-1,0.881,-0.406481467,-0.415740797,1,0,0,2.6885,Obsidian_rect,5,2.688,0,10,0,10,0,1,,,,,,,,,,,,,
659daa1ed4e13d6428103c1f,TCN,2024-06-24_17h33.35.110,LearnStrategy,2023.2.3,Win32,60.24096386,3,1,12,0.03148151,0.000925912,1,0,0,1.0448,rock_grid_rect_2,7,05,-1,-1,1.045,0.121296353,-0.260185242,1,0,0,1.9742,Diorite_rect,3,1.974,0,11,0,11,0,1,,,,,,,,,,,,,
659daa1ed4e13d6428103c1f,TCN,2024-06-24_17h33.35.110,LearnStrategy,2023.2.3,Win32,60.24096386,3,1,13,-0.006481425,-0.011111111,1,0,0,1.3233,rock_grid_rect_2,5,14,-1,-1,1.323,-0.442592578,-0.402777778,1,0,0,2.9248,Obsidian_rect,5,2.925,1,12,0,12,0,1,,,,,,,,,,,,,
659daa1ed4e13d6428103c1f,TCN,2024-06-24_17h33.35.110,LearnStrategy,2023.2.3,Win32,60.24096386,3,1,14,-0.028703647,-0.001851866,1,0,0,1.1253,rock_grid_rect_2,8,14,-1,-1,1.125,0.374074131,-0.384259288,1,0,0,1.3741,Pumice_rect,8,1.374,1,13,0,13,0,1,,,,,,,,,,,,,
659daa1ed4e13d6428103c1f,TCN,2024-06-24_17h33.35.110,LearnStrategy,2023.2.3,Win32,60.24096386,3,1,15,-0.041666667,-0.019444444,1,0,0,1.1467,rock_grid_rect_2,4,09,-1,-1,1.147,-0.14351849,-0.241666667,1,0,0,2.7232,Basalt_rect,2,2.723,0,14,0,14,0,1,,,,,,,,,,,,,
659daa1ed4e13d6428103c1f,TCN,2024-06-24_17h33.35.110,LearnStrategy,2023.2.3,Win32,60.24096386,3,1,16,-0.055555556,-0.014814843,1,0,0,0.978,rock_grid_rect_2,1,14,-1,-1,0.978,0.104629686,-0.264814843,1,0,0,1.5411,Diorite_rect,3,1.541,0,15,0,15,0,1,,,,,,,,,,,,,
659daa1ed4e13d6428103c1f,TCN,2024-06-24_17h33.35.110,LearnStrategy,2023.2.3,Win32,60.24096386,3,2,1,,,,,,,,2,06,,,,,,,,,,,4,3.438,0,,,,,,0.372222222,-0.248148176,1,0,0,3.4376,Gabbro_rect,0,0,0,0,1,
659daa1ed4e13d6428103c1f,TCN,2024-06-24_17h33.35.110,LearnStrategy,2023.2.3,Win32,60.24096386,3,2,2,,,,,,,,8,03,,,,,,,,,,,8,1.616,1,,,,,,0.368518575,-0.395370399,1,0,0,1.6164,Pumice_rect,1,0,1,0,1,
659daa1ed4e13d6428103c1f,TCN,2024-06-24_17h33.35.110,LearnStrategy,2023.2.3,Win32,60.24096386,3,2,3,,,,,,,,2,01,,,,,,,,,,,3,1.928,0,,,,,,0.164814843,-0.262037065,1,0,0,1.9277,Diorite_rect,2,0,2,0,1,
659daa1ed4e13d6428103c1f,TCN,2024-06-24_17h33.35.110,LearnStrategy,2023.2.3,Win32,60.24096386,3,2,4,,,,,,,,7,04,,,,,,,,,,,1,3.457,0,,,,,,-0.42870369,-0.246296353,1,0,0,3.4572,Andesite_rect,3,0,3,0,1,
659daa1ed4e13d6428103c1f,TCN,2024-06-24_17h33.35.110,LearnStrategy,2023.2.3,Win32,60.24096386,3,2,5,,,,,,,,5,11,,,,,,,,,,,5,1.441,1,,,,,,-0.383333333,-0.4,1,0,0,1.441,Obsidian_rect,4,0,4,0,1,
659daa1ed4e13d6428103c1f,TCN,2024-06-24_17h33.35.110,LearnStrategy,2023.2.3,Win32,60.24096386,3,2,6,,,,,,,,6,13,,,,,,,,,,,7,1.412,0,,,,,,0.091666667,-0.400925954,1,0,0,1.4123,Peridotite_rect,5,0,5,0,1,
659daa1ed4e13d6428103c1f,TCN,2024-06-24_17h33.35.110,LearnStrategy,2023.2.3,Win32,60.24096386,3,2,7,,,,,,,,8,16,,,,,,,,,,,4,2.576,0,,,,,,0.421296353,-0.247222222,1,0,0,2.5758,Gabbro_rect,6,0,6,0,1,
659daa1ed4e13d6428103c1f,TCN,2024-06-24_17h33.35.110,LearnStrategy,2023.2.3,Win32,60.24096386,3,2,8,,,,,,,,4,12,,,,,,,,,,,3,2.11,0,,,,,,0.143518575,-0.237963019,1,0,0,2.1095,Diorite_rect,7,0,7,0,1,
659daa1ed4e13d6428103c1f,TCN,2024-06-24_17h33.35.110,LearnStrategy,2023.2.3,Win32,60.24096386,3,2,9,,,,,,,,3,06,,,,,,,,,,,1,1.607,0,,,,,,-0.417592578,-0.269444444,1,0,0,1.6073,Andesite_rect,8,0,8,0,1,
659daa1ed4e13d6428103c1f,TCN,2024-06-24_17h33.35.110,LearnStrategy,2023.2.3,Win32,60.24096386,3,2,10,,,,,,,,7,10,,,,,,,,,,,6,1.145,0,,,,,,-0.173148092,-0.397222222,1,0,0,1.1448,Pegmatite_rect,9,0,9,0,1,
659daa1ed4e13d6428103c1f,TCN,2024-06-24_17h33.35.110,LearnStrategy,2023.2.3,Win32,60.24096386,3,2,11,,,,,,,,3,08,,,,,,,,,,,7,2.121,0,,,,,,0.116666667,-0.393518575,1,0,0,2.121,Peridotite_rect,10,0,10,0,1,
659daa1ed4e13d6428103c1f,TCN,2024-06-24_17h33.35.110,LearnStrategy,2023.2.3,Win32,60.24096386,3,2,12,,,,,,,,6,11,,,,,,,,,,,6,1.73,1,,,,,,-0.166666667,-0.407407464,1,0,0,1.7296,Pegmatite_rect,11,0,11,0,1,
659daa1ed4e13d6428103c1f,TCN,2024-06-24_17h33.35.110,LearnStrategy,2023.2.3,Win32,60.24096386,3,2,13,,,,,,,,1,11,,,,,,,,,,,3,1.397,0,,,,,,0.087963019,-0.257407464,1,0,0,1.3974,Diorite_rect,12,0,12,0,1,
659daa1ed4e13d6428103c1f,TCN,2024-06-24_17h33.35.110,LearnStrategy,2023.2.3,Win32,60.24096386,3,2,14,,,,,,,,5,16,,,,,,,,,,,5,1.684,1,,,,,,-0.424074046,-0.40648151,1,0,0,1.6842,Obsidian_rect,13,0,13,0,1,
659daa1ed4e13d6428103c1f,TCN,2024-06-24_17h33.35.110,LearnStrategy,2023.2.3,Win32,60.24096386,3,2,15,,,,,,,,1,02,,,,,,,,,,,2,1.255,0,,,,,,-0.100925869,-0.268518575,1,0,0,1.2548,Basalt_rect,14,0,14,0,1,
659daa1ed4e13d6428103c1f,TCN,2024-06-24_17h33.35.110,LearnStrategy,2023.2.3,Win32,60.24096386,3,2,16,,,,,,,,4,14,,,,,,,,,,,1,1.14,0,,,,,,-0.388888889,-0.252777778,1,0,0,1.1405,Andesite_rect,15,0,15,0,1,
659daa1ed4e13d6428103c1f,TCN,2024-06-24_17h33.35.110,LearnStrategy,2023.2.3,Win32,60.24096386,4,1,1,-0.022222222,-0.007407422,1,0,0,1.6477,rock_grid_rect_2,4,15,-1,-1,1.648,0.346296353,-0.238888889,1,0,0,2.7923,Gabbro_rect,4,2.792,1,0,0,0,0,1,,,,,,,,,,,,,
659daa1ed4e13d6428103c1f,TCN,2024-06-24_17h33.35.110,LearnStrategy,2023.2.3,Win32,60.24096386,4,1,2,-0.071296268,-0.019444444,1,0,0,1.1787,rock_grid_rect_2,3,12,-1,-1,1.179,0.086111111,-0.262963019,1,0,0,1.7517,Diorite_rect,3,1.752,1,1,0,1,0,1,,,,,,,,,,,,,
659daa1ed4e13d6428103c1f,TCN,2024-06-24_17h33.35.110,LearnStrategy,2023.2.3,Win32,60.24096386,4,1,3,-0.11851849,-0.008333333,1,0,0,1.141,rock_grid_rect_2,2,14,-1,-1,1.141,-0.152777778,-0.395370399,1,0,0,2.7357,Pegmatite_rect,6,2.736,0,2,0,2,0,1,,,,,,,,,,,,,
659daa1ed4e13d6428103c1f,TCN,2024-06-24_17h33.35.110,LearnStrategy,2023.2.3,Win32,60.24096386,4,1,4,-0.128703647,-0.003703732,1,0,0,0.8949,rock_grid_rect_2,6,15,-1,-1,0.895,0.099074131,-0.410185242,1,0,0,1.3258,Peridotite_rect,7,1.326,0,3,0,3,0,1,,,,,,,,,,,,,
659daa1ed4e13d6428103c1f,TCN,2024-06-24_17h33.35.110,LearnStrategy,2023.2.3,Win32,60.24096386,4,1,5,-0.09351849,-0.015740755,1,0,0,0.9487,rock_grid_rect_2,5,12,-1,-1,0.949,-0.375925912,-0.404629686,1,0,0,1.3734,Obsidian_rect,5,1.373,1,4,0,4,0,1,,,,,,,,,,,,,
659daa1ed4e13d6428103c1f,TCN,2024-06-24_17h33.35.110,LearnStrategy,2023.2.3,Win32,60.24096386,4,1,6,-0.069444444,0.001851824,1,0,0,1.4128,rock_grid_rect_2,8,14,-1,-1,1.413,0.353703732,-0.397222222,1,0,0,1.4526,Pumice_rect,8,1.453,1,5,0,5,0,1,,,,,,,,,,,,,
659daa1ed4e13d6428103c1f,TCN,2024-06-24_17h33.35.110,LearnStrategy,2023.2.3,Win32,60.24096386,4,1,7,-0.035185157,0.009259245,1,0,0,1.3565,rock_grid_rect_2,4,11,-1,-1,1.356,-0.129629601,-0.255555556,1,0,0,2.0152,Basalt_rect,2,2.015,0,6,0,6,0,1,,,,,,,,,,,,,
659daa1ed4e13d6428103c1f,TCN,2024-06-24_17h33.35.110,LearnStrategy,2023.2.3,Win32,60.24096386,4,1,8,-0.057407379,0.000925912,1,0,0,0.8355,rock_grid_rect_2,8,05,-1,-1,0.836,0.344444444,-0.404629686,1,0,0,1.6247,Pumice_rect,8,1.625,1,7,0,7,0,1,,,,,,,,,,,,,
659daa1ed4e13d6428103c1f,TCN,2024-06-24_17h33.35.110,LearnStrategy,2023.2.3,Win32,60.24096386,4,1,9,-0.080555556,-0.016666667,1,0,0,0.9637,rock_grid_rect_2,7,02,-1,-1,0.964,0.136111111,-0.409259288,1,0,0,1.2872,Peridotite_rect,7,1.287,1,8,0,8,0,1,,,,,,,,,,,,,
659daa1ed4e13d6428103c1f,TCN,2024-06-24_17h33.35.110,LearnStrategy,2023.2.3,Win32,60.24096386,4,1,10,-0.064814758,0.000925912,1,0,0,1.1338,rock_grid_rect_2,2,09,-1,-1,1.134,0.35648151,-0.249074131,1,0,0,2.2679,Gabbro_rect,4,2.268,0,9,0,9,0,1,,,,,,,,,,,,,
659daa1ed4e13d6428103c1f,TCN,2024-06-24_17h33.35.110,LearnStrategy,2023.2.3,Win32,60.24096386,4,1,11,-0.057407379,-0.011111111,1,0,0,0.8303,rock_grid_rect_2,7,07,-1,-1,0.83,-0.399074046,-0.253703732,1,0,0,3.4857,Andesite_rect,1,3.486,0,10,0,10,0,1,,,,,,,,,,,,,
659daa1ed4e13d6428103c1f,TCN,2024-06-24_17h33.35.110,LearnStrategy,2023.2.3,Win32,60.24096386,4,1,12,-0.051851824,-0.012962977,1,0,0,0.9563,rock_grid_rect_2,1,06,-1,-1,0.956,-0.134259203,-0.271296353,1,0,0,3.2716,Basalt_rect,2,3.272,0,11,0,11,0,1,,,,,,,,,,,,,
659daa1ed4e13d6428103c1f,TCN,2024-06-24_17h33.35.110,LearnStrategy,2023.2.3,Win32,60.24096386,4,1,13,-0.075925869,-0.00648151,1,0,0,1.0285,rock_grid_rect_2,6,03,-1,-1,1.029,0.112963019,-0.4,1,0,0,1.3996,Peridotite_rect,7,1.4,0,12,0,12,0,1,,,,,,,,,,,,,
659daa1ed4e13d6428103c1f,TCN,2024-06-24_17h33.35.110,LearnStrategy,2023.2.3,Win32,60.24096386,4,1,14,-0.117592536,0.009259245,1,0,0,0.9465,rock_grid_rect_2,1,14,-1,-1,0.947,-0.162036981,-0.254629686,1,0,0,3.8326,Basalt_rect,2,3.833,0,13,0,13,0,1,,,,,,,,,,,,,
659daa1ed4e13d6428103c1f,TCN,2024-06-24_17h33.35.110,LearnStrategy,2023.2.3,Win32,60.24096386,4,1,15,-0.052777778,0.005555556,1,0,0,1.155,rock_grid_rect_2,3,07,-1,-1,1.155,-0.185185157,-0.25,1,0,0,3.3626,Basalt_rect,2,3.363,0,14,0,14,0,1,,,,,,,,,,,,,
659daa1ed4e13d6428103c1f,TCN,2024-06-24_17h33.35.110,LearnStrategy,2023.2.3,Win32,60.24096386,4,1,16,-0.075,-0.011111111,1,0,0,1.3192,rock_grid_rect_2,5,02,-1,-1,1.319,-0.400925912,-0.400925954,1,0,0,3.8317,Obsidian_rect,5,3.832,1,15,0,15,0,1,,,,,,,,,,,,,
659daa1ed4e13d6428103c1f,TCN,2024-06-24_17h33.35.110,LearnStrategy,2023.2.3,Win32,60.24096386,4,2,1,,,,,,,,3,02,,,,,,,,,,,3,2.619,1,,,,,,0.116666667,-0.253703732,1,0,0,2.6187,Diorite_rect,0,0,0,0,1,
659daa1ed4e13d6428103c1f,TCN,2024-06-24_17h33.35.110,LearnStrategy,2023.2.3,Win32,60.24096386,4,2,2,,,,,,,,6,11,,,,,,,,,,,6,1.438,1,,,,,,-0.129629601,-0.401851908,1,0,0,1.4376,Pegmatite_rect,1,0,1,0,1,
659daa1ed4e13d6428103c1f,TCN,2024-06-24_17h33.35.110,LearnStrategy,2023.2.3,Win32,60.24096386,4,2,3,,,,,,,,4,14,,,,,,,,,,,4,1.939,1,,,,,,0.309259288,-0.245370399,1,0,0,1.9395,Gabbro_rect,2,0,2,0,1,
659daa1ed4e13d6428103c1f,TCN,2024-06-24_17h33.35.110,LearnStrategy,2023.2.3,Win32,60.24096386,4,2,4,,,,,,,,7,04,,,,,,,,,,,1,2.06,0,,,,,,-0.355555556,-0.248148176,1,0,0,2.0604,Andesite_rect,3,0,3,0,1,
659daa1ed4e13d6428103c1f,TCN,2024-06-24_17h33.35.110,LearnStrategy,2023.2.3,Win32,60.24096386,4,2,5,,,,,,,,1,11,,,,,,,,,,,3,3.363,0,,,,,,0.132407464,-0.244444444,1,0,0,3.3632,Diorite_rect,4,0,4,0,1,
659daa1ed4e13d6428103c1f,TCN,2024-06-24_17h33.35.110,LearnStrategy,2023.2.3,Win32,60.24096386,4,2,6,,,,,,,,8,03,,,,,,,,,,,8,1.989,1,,,,,,0.388888889,-0.413888889,1,0,0,1.9889,Pumice_rect,5,0,5,0,1,
659daa1ed4e13d6428103c1f,TCN,2024-06-24_17h33.35.110,LearnStrategy,2023.2.3,Win32,60.24096386,4,2,7,,,,,,,,8,13,,,,,,,,,,,8,1.842,1,,,,,,0.380555556,-0.388888889,1,0,0,1.8421,Pumice_rect,6,0,6,0,1,
659daa1ed4e13d6428103c1f,TCN,2024-06-24_17h33.35.110,LearnStrategy,2023.2.3,Win32,60.24096386,4,2,8,,,,,,,,5,04,,,,,,,,,,,5,1.433,1,,,,,,-0.438888889,-0.405555556,1,0,0,1.4334,Obsidian_rect,7,0,7,0,1,
659daa1ed4e13d6428103c1f,TCN,2024-06-24_17h33.35.110,LearnStrategy,2023.2.3,Win32,60.24096386,4,2,9,,,,,,,,2,10,,,,,,,,,,,2,1.991,1,,,,,,-0.129629601,-0.262963019,1,0,0,1.9914,Basalt_rect,8,0,8,0,1,
659daa1ed4e13d6428103c1f,TCN,2024-06-24_17h33.35.110,LearnStrategy,2023.2.3,Win32,60.24096386,4,2,10,,,,,,,,6,16,,,,,,,,,,,1,3.372,0,,,,,,-0.394444444,-0.252777778,1,0,0,3.3721,Andesite_rect,9,0,9,0,1,
659daa1ed4e13d6428103c1f,TCN,2024-06-24_17h33.35.110,LearnStrategy,2023.2.3,Win32,60.24096386,4,2,11,,,,,,,,4,08,,,,,,,,,,,4,1.983,1,,,,,,0.348148176,-0.25,1,0,0,1.9827,Gabbro_rect,10,0,10,0,1,
659daa1ed4e13d6428103c1f,TCN,2024-06-24_17h33.35.110,LearnStrategy,2023.2.3,Win32,60.24096386,4,2,12,,,,,,,,7,13,,,,,,,,,,,7,1.15,1,,,,,,0.092592621,-0.396296353,1,0,0,1.1503,Peridotite_rect,11,0,11,0,1,
659daa1ed4e13d6428103c1f,TCN,2024-06-24_17h33.35.110,LearnStrategy,2023.2.3,Win32,60.24096386,4,2,13,,,,,,,,5,06,,,,,,,,,,,5,1.308,1,,,,,,-0.412962935,-0.415740797,1,0,0,1.3085,Obsidian_rect,12,0,12,0,1,
659daa1ed4e13d6428103c1f,TCN,2024-06-24_17h33.35.110,LearnStrategy,2023.2.3,Win32,60.24096386,4,2,14,,,,,,,,1,02,,,,,,,,,,,2,1.225,0,,,,,,-0.11851849,-0.251851908,1,0,0,1.2253,Basalt_rect,13,0,13,0,1,
659daa1ed4e13d6428103c1f,TCN,2024-06-24_17h33.35.110,LearnStrategy,2023.2.3,Win32,60.24096386,4,2,15,,,,,,,,2,04,,,,,,,,,,,3,2.653,0,,,,,,0.125925954,-0.248148176,1,0,0,2.6531,Diorite_rect,14,0,14,0,1,
659daa1ed4e13d6428103c1f,TCN,2024-06-24_17h33.35.110,LearnStrategy,2023.2.3,Win32,60.24096386,4,2,16,,,,,,,,3,10,,,,,,,,,,,6,1.789,0,,,,,,-0.14351849,-0.400925954,1,0,0,1.7889,Pegmatite_rect,15,0,15,0,1,
659daa1ed4e13d6428103c1f,TCN,2024-06-24_17h33.35.110,LearnStrategy,2023.2.3,Win32,60.24096386,5,1,1,-0.076851824,-0.003703732,1,0,0,1.4115,rock_grid_rect_2,1,04,-1,-1,1.412,0.068518575,-0.262037065,1,0,0,1.5245,Diorite_rect,3,1.524,0,0,0,0,0,1,,,,,,,,,,,,,
659daa1ed4e13d6428103c1f,TCN,2024-06-24_17h33.35.110,LearnStrategy,2023.2.3,Win32,60.24096386,5,1,2,-0.114814758,-0.017592621,1,0,0,1.0634,rock_grid_rect_2,8,15,-1,-1,1.063,0.363888889,-0.4,1,0,0,1.4234,Pumice_rect,8,1.423,1,1,0,1,0,1,,,,,,,,,,,,,
659daa1ed4e13d6428103c1f,TCN,2024-06-24_17h33.35.110,LearnStrategy,2023.2.3,Win32,60.24096386,5,1,3,-0.112962935,-0.002777778,1,0,0,0.8805,rock_grid_rect_2,7,12,-1,-1,0.88,-0.108333333,-0.415740797,1,0,0,3.0243,Pegmatite_rect,6,3.024,0,2,0,2,0,1,,,,,,,,,,,,,
659daa1ed4e13d6428103c1f,TCN,2024-06-24_17h33.35.110,LearnStrategy,2023.2.3,Win32,60.24096386,5,1,4,-0.048148092,-0.008333333,1,0,0,1.2226,rock_grid_rect_2,6,08,-1,-1,1.223,-0.380555556,-0.410185242,1,0,0,2.4903,Obsidian_rect,5,2.49,0,3,0,3,0,1,,,,,,,,,,,,,
659daa1ed4e13d6428103c1f,TCN,2024-06-24_17h33.35.110,LearnStrategy,2023.2.3,Win32,60.24096386,5,1,5,-0.025,0.002777778,1,0,0,0.9286,rock_grid_rect_2,3,16,-1,-1,0.929,0.150925954,-0.257407464,1,0,0,2.3656,Diorite_rect,3,2.366,1,4,0,4,0,1,,,,,,,,,,,,,
659daa1ed4e13d6428103c1f,TCN,2024-06-24_17h33.35.110,LearnStrategy,2023.2.3,Win32,60.24096386,5,1,6,-0.034259203,-0.005555556,1,0,0,0.9386,rock_grid_rect_2,1,05,-1,-1,0.939,-0.373148134,-0.261111111,1,0,0,1.8154,Andesite_rect,1,1.815,1,5,0,5,0,1,,,,,,,,,,,,,
659daa1ed4e13d6428103c1f,TCN,2024-06-24_17h33.35.110,LearnStrategy,2023.2.3,Win32,60.24096386,5,1,7,-0.063888889,-0.005555556,1,0,0,1.0128,rock_grid_rect_2,2,02,-1,-1,1.013,0.379629686,-0.246296353,1,0,0,1.5163,Gabbro_rect,4,1.516,0,6,0,6,0,1,,,,,,,,,,,,,
659daa1ed4e13d6428103c1f,TCN,2024-06-24_17h33.35.110,LearnStrategy,2023.2.3,Win32,60.24096386,5,1,8,-0.044444444,-0.010185199,1,0,0,0.9544,rock_grid_rect_2,4,05,-1,-1,0.954,0.382407464,-0.254629686,1,0,0,1.8532,Gabbro_rect,4,1.853,1,7,0,7,0,1,,,,,,,,,,,,,
659daa1ed4e13d6428103c1f,TCN,2024-06-24_17h33.35.110,LearnStrategy,2023.2.3,Win32,60.24096386,5,1,9,0.040740797,-0.003703732,1,0,0,0.964,rock_grid_rect_2,6,10,-1,-1,0.964,-0.109259203,-0.387963019,1,0,0,3.7562,Pegmatite_rect,6,3.756,1,8,0,8,0,1,,,,,,,,,,,,,
659daa1ed4e13d6428103c1f,TCN,2024-06-24_17h33.35.110,LearnStrategy,2023.2.3,Win32,60.24096386,5,1,10,-0.012962935,-0.003703732,1,0,0,0.8794,rock_grid_rect_2,2,05,-1,-1,0.879,0.336111111,-0.267592621,1,0,0,1.9243,Gabbro_rect,4,1.924,0,9,0,9,0,1,,,,,,,,,,,,,
659daa1ed4e13d6428103c1f,TCN,2024-06-24_17h33.35.110,LearnStrategy,2023.2.3,Win32,60.24096386,5,1,11,-0.033333333,0.000925912,1,0,0,1.2633,rock_grid_rect_2,4,09,-1,-1,1.263,0.371296353,-0.263888889,1,0,0,1.7675,Gabbro_rect,4,1.768,1,10,0,10,0,1,,,,,,,,,,,,,
659daa1ed4e13d6428103c1f,TCN,2024-06-24_17h33.35.110,LearnStrategy,2023.2.3,Win32,60.24096386,5,1,12,-0.062036981,-0.007407422,1,0,0,1.18,rock_grid_rect_2,7,05,-1,-1,1.18,-0.326851824,-0.238888889,1,0,0,3.4771,Andesite_rect,1,3.477,0,11,0,11,0,1,,,,,,,,,,,,,
659daa1ed4e13d6428103c1f,TCN,2024-06-24_17h33.35.110,LearnStrategy,2023.2.3,Win32,60.24096386,5,1,13,-0.051851824,-0.008333333,1,0,0,1.2899,rock_grid_rect_2,8,06,-1,-1,1.29,0.387037065,-0.413888889,1,0,0,1.5424,Pumice_rect,8,1.542,1,12,0,12,0,1,,,,,,,,,,,,,
659daa1ed4e13d6428103c1f,TCN,2024-06-24_17h33.35.110,LearnStrategy,2023.2.3,Win32,60.24096386,5,1,14,-0.041666667,0.008333333,1,0,0,1.1963,rock_grid_rect_2,5,07,-1,-1,1.196,-0.388888889,-0.401851908,1,0,0,1.4071,Obsidian_rect,5,1.407,1,13,0,13,0,1,,,,,,,,,,,,,
659daa1ed4e13d6428103c1f,TCN,2024-06-24_17h33.35.110,LearnStrategy,2023.2.3,Win32,60.24096386,5,1,15,-0.082407379,-0.008333333,1,0,0,1.2654,rock_grid_rect_2,3,09,-1,-1,1.265,0.112037065,-0.261111111,1,0,0,1.7052,Diorite_rect,3,1.705,1,14,0,14,0,1,,,,,,,,,,,,,
659daa1ed4e13d6428103c1f,TCN,2024-06-24_17h33.35.110,LearnStrategy,2023.2.3,Win32,60.24096386,5,1,16,-0.006481425,-0.018518533,1,0,0,1.483,rock_grid_rect_2,5,09,-1,-1,1.483,-0.411111111,-0.412963019,1,0,0,1.4392,Obsidian_rect,5,1.439,1,15,0,15,0,1,,,,,,,,,,,,,
659daa1ed4e13d6428103c1f,TCN,2024-06-24_17h33.35.110,LearnStrategy,2023.2.3,Win32,60.24096386,5,2,1,,,,,,,,5,11,,,,,,,,,,,5,1.337,1,,,,,,-0.376851824,-0.386111111,1,0,0,1.3373,Obsidian_rect,0,0,0,0,1,
659daa1ed4e13d6428103c1f,TCN,2024-06-24_17h33.35.110,LearnStrategy,2023.2.3,Win32,60.24096386,5,2,2,,,,,,,,1,07,,,,,,,,,,,3,1.324,0,,,,,,0.118518575,-0.254629686,1,0,0,1.3236,Diorite_rect,1,0,1,0,1,
659daa1ed4e13d6428103c1f,TCN,2024-06-24_17h33.35.110,LearnStrategy,2023.2.3,Win32,60.24096386,5,2,3,,,,,,,,3,15,,,,,,,,,,,2,1.38,0,,,,,,-0.177777778,-0.259259288,1,0,0,1.3798,Basalt_rect,2,0,2,0,1,
659daa1ed4e13d6428103c1f,TCN,2024-06-24_17h33.35.110,LearnStrategy,2023.2.3,Win32,60.24096386,5,2,4,,,,,,,,2,06,,,,,,,,,,,2,3.256,1,,,,,,-0.149074046,-0.247222222,1,0,0,3.2555,Basalt_rect,3,0,3,0,1,
659daa1ed4e13d6428103c1f,TCN,2024-06-24_17h33.35.110,LearnStrategy,2023.2.3,Win32,60.24096386,5,2,5,,,,,,,,4,12,,,,,,,,,,,1,1.593,0,,,,,,-0.412962935,-0.258333333,1,0,0,1.593,Andesite_rect,4,0,4,0,1,
659daa1ed4e13d6428103c1f,TCN,2024-06-24_17h33.35.110,LearnStrategy,2023.2.3,Win32,60.24096386,5,2,6,,,,,,,,7,10,,,,,,,,,,,7,1.867,1,,,,,,0.107407464,-0.4,1,0,0,1.867,Peridotite_rect,5,0,5,0,1,
659daa1ed4e13d6428103c1f,TCN,2024-06-24_17h33.35.110,LearnStrategy,2023.2.3,Win32,60.24096386,5,2,7,,,,,,,,1,03,,,,,,,,,,,3,1.889,0,,,,,,0.188888889,-0.25648151,1,0,0,1.8889,Diorite_rect,6,0,6,0,1,
659daa1ed4e13d6428103c1f,TCN,2024-06-24_17h33.35.110,LearnStrategy,2023.2.3,Win32,60.24096386,5,2,8,,,,,,,,8,10,,,,,,,,,,,8,1.374,1,,,,,,0.399074131,-0.403703732,1,0,0,1.3735,Pumice_rect,7,0,7,0,1,
659daa1ed4e13d6428103c1f,TCN,2024-06-24_17h33.35.110,LearnStrategy,2023.2.3,Win32,60.24096386,5,2,9,,,,,,,,7,15,,,,,,,,,,,7,1.256,1,,,,,,0.115740797,-0.393518575,1,0,0,1.2564,Peridotite_rect,8,0,8,0,1,
659daa1ed4e13d6428103c1f,TCN,2024-06-24_17h33.35.110,LearnStrategy,2023.2.3,Win32,60.24096386,5,2,10,,,,,,,,4,01,,,,,,,,,,,6,1.671,0,,,,,,-0.161111111,-0.400925954,1,0,0,1.6708,Pegmatite_rect,9,0,9,0,1,
659daa1ed4e13d6428103c1f,TCN,2024-06-24_17h33.35.110,LearnStrategy,2023.2.3,Win32,60.24096386,5,2,11,,,,,,,,8,04,,,,,,,,,,,8,1.339,1,,,,,,0.372222222,-0.391666667,1,0,0,1.3386,Pumice_rect,10,0,10,0,1,
659daa1ed4e13d6428103c1f,TCN,2024-06-24_17h33.35.110,LearnStrategy,2023.2.3,Win32,60.24096386,5,2,12,,,,,,,,5,16,,,,,,,,,,,5,1.196,1,,,,,,-0.371296268,-0.4,1,0,0,1.1961,Obsidian_rect,11,0,11,0,1,
659daa1ed4e13d6428103c1f,TCN,2024-06-24_17h33.35.110,LearnStrategy,2023.2.3,Win32,60.24096386,5,2,13,,,,,,,,3,06,,,,,,,,,,,2,1.551,0,,,,,,-0.114814758,-0.251851908,1,0,0,1.5511,Basalt_rect,12,0,12,0,1,
659daa1ed4e13d6428103c1f,TCN,2024-06-24_17h33.35.110,LearnStrategy,2023.2.3,Win32,60.24096386,5,2,14,,,,,,,,6,07,,,,,,,,,,,7,1.19,0,,,,,,0.136111111,-0.411111111,1,0,0,1.1903,Peridotite_rect,13,0,13,0,1,
659daa1ed4e13d6428103c1f,TCN,2024-06-24_17h33.35.110,LearnStrategy,2023.2.3,Win32,60.24096386,5,2,15,,,,,,,,6,06,,,,,,,,,,,6,1.337,1,,,,,,-0.145370314,-0.394444444,1,0,0,1.3373,Pegmatite_rect,14,0,14,0,1,
659daa1ed4e13d6428103c1f,TCN,2024-06-24_17h33.35.110,LearnStrategy,2023.2.3,Win32,60.24096386,5,2,16,,,,,,,,2,08,,,,,,,,,,,2,1.995,1,,,,,,-0.137036981,-0.240740797,1,0,0,1.995,Basalt_rect,15,0,15,0,1,
659daa1ed4e13d6428103c1f,TCN,2024-06-24_17h33.35.110,LearnStrategy,2023.2.3,Win32,60.24096386,6,1,1,0.009259288,-0.010185199,1,0,0,1.2063,rock_grid_rect_2,7,14,-1,-1,1.206,-0.164814758,-0.4,1,0,0,1.8977,Pegmatite_rect,6,1.898,0,0,0,0,0,1,,,,,,,,,,,,,
659daa1ed4e13d6428103c1f,TCN,2024-06-24_17h33.35.110,LearnStrategy,2023.2.3,Win32,60.24096386,6,1,2,-0.028703647,-0.017592621,1,0,0,1.2724,rock_grid_rect_2,1,01,-1,-1,1.272,-0.108333333,-0.250925954,1,0,0,3.9452,Basalt_rect,2,3.945,0,1,0,1,0,1,,,,,,,,,,,,,
659daa1ed4e13d6428103c1f,TCN,2024-06-24_17h33.35.110,LearnStrategy,2023.2.3,Win32,60.24096386,6,1,3,-0.056481425,-0.009259288,1,0,0,1.0111,rock_grid_rect_2,5,14,-1,-1,1.011,-0.356481467,-0.402777778,1,0,0,1.7078,Obsidian_rect,5,1.708,1,2,0,2,0,1,,,,,,,,,,,,,
659daa1ed4e13d6428103c1f,TCN,2024-06-24_17h33.35.110,LearnStrategy,2023.2.3,Win32,60.24096386,6,1,4,-0.032407379,0.000925912,1,0,0,0.9305,rock_grid_rect_2,4,03,-1,-1,0.931,0.10648151,-0.257407464,1,0,0,1.2316,Diorite_rect,3,1.232,0,3,0,3,0,1,,,,,,,,,,,,,
659daa1ed4e13d6428103c1f,TCN,2024-06-24_17h33.35.110,LearnStrategy,2023.2.3,Win32,60.24096386,6,1,5,0.018518575,-0.002777778,1,0,0,1.0773,rock_grid_rect_2,3,13,-1,-1,1.077,0.101851908,-0.407407464,1,0,0,3.9009,Peridotite_rect,7,3.901,0,4,0,4,0,1,,,,,,,,,,,,,
659daa1ed4e13d6428103c1f,TCN,2024-06-24_17h33.35.110,LearnStrategy,2023.2.3,Win32,60.24096386,6,1,6,-0.035185157,0.015740712,1,0,0,0.8797,rock_grid_rect_2,1,16,-1,-1,0.88,-0.115740712,-0.244444444,1,0,0,1.9506,Basalt_rect,2,1.951,0,5,0,5,0,1,,,,,,,,,,,,,
659daa1ed4e13d6428103c1f,TCN,2024-06-24_17h33.35.110,LearnStrategy,2023.2.3,Win32,60.24096386,6,1,7,0.046296353,0.021296268,1,0,0,0.8483,rock_grid_rect_2,8,02,-1,-1,0.848,0.389814843,-0.407407464,1,0,0,1.1652,Pumice_rect,8,1.165,1,6,0,6,0,1,,,,,,,,,,,,,
659daa1ed4e13d6428103c1f,TCN,2024-06-24_17h33.35.110,LearnStrategy,2023.2.3,Win32,60.24096386,6,1,8,0.030555556,-0.000925954,1,0,0,0.8132,rock_grid_rect_2,2,11,-1,-1,0.813,0.367592621,-0.246296353,1,0,0,1.5757,Gabbro_rect,4,1.576,0,7,0,7,0,1,,,,,,,,,,,,,
659daa1ed4e13d6428103c1f,TCN,2024-06-24_17h33.35.110,LearnStrategy,2023.2.3,Win32,60.24096386,6,1,9,-0.049074046,-0.009259288,1,0,0,0.9973,rock_grid_rect_2,2,12,-1,-1,0.997,0.077777778,-0.249074131,1,0,0,1.4894,Diorite_rect,3,1.489,0,8,0,8,0,1,,,,,,,,,,,,,
659daa1ed4e13d6428103c1f,TCN,2024-06-24_17h33.35.110,LearnStrategy,2023.2.3,Win32,60.24096386,6,1,10,-0.066666667,0.00370369,1,0,0,1.1074,rock_grid_rect_2,7,16,-1,-1,1.107,0.128703732,-0.404629686,1,0,0,1.5577,Peridotite_rect,7,1.558,1,9,0,9,0,1,,,,,,,,,,,,,
659daa1ed4e13d6428103c1f,TCN,2024-06-24_17h33.35.110,LearnStrategy,2023.2.3,Win32,60.24096386,6,1,11,-0.025,-0.010185199,1,0,0,0.8796,rock_grid_rect_2,6,05,-1,-1,0.88,-0.325,-0.257407464,1,0,0,3.0355,Andesite_rect,1,3.036,0,10,0,10,0,1,,,,,,,,,,,,,
659daa1ed4e13d6428103c1f,TCN,2024-06-24_17h33.35.110,LearnStrategy,2023.2.3,Win32,60.24096386,6,1,12,0.062037065,0.00370369,1,0,0,1.0137,rock_grid_rect_2,3,14,-1,-1,1.014,0.143518575,-0.248148176,1,0,0,1.3456,Diorite_rect,3,1.346,1,11,0,11,0,1,,,,,,,,,,,,,
659daa1ed4e13d6428103c1f,TCN,2024-06-24_17h33.35.110,LearnStrategy,2023.2.3,Win32,60.24096386,6,1,13,0.041666667,-0.012962977,1,0,0,1.1595,rock_grid_rect_2,8,09,-1,-1,1.159,0.379629686,-0.403703732,1,0,0,1.3228,Pumice_rect,8,1.323,1,12,0,12,0,1,,,,,,,,,,,,,
659daa1ed4e13d6428103c1f,TCN,2024-06-24_17h33.35.110,LearnStrategy,2023.2.3,Win32,60.24096386,6,1,14,0.009259288,-0.013888889,1,0,0,1.3511,rock_grid_rect_2,5,10,-1,-1,1.351,-0.42870369,-0.412037065,1,0,0,7.1368,Obsidian_rect,5,7.137,1,13,0,13,0,1,,,,,,,,,,,,,
659daa1ed4e13d6428103c1f,TCN,2024-06-24_17h33.35.110,LearnStrategy,2023.2.3,Win32,60.24096386,6,1,15,0.002777778,-0.003703732,1,0,0,0.9824,rock_grid_rect_2,6,12,-1,-1,0.982,-0.392592578,-0.252777778,1,0,0,3.297,Andesite_rect,1,3.297,0,14,0,14,0,1,,,,,,,,,,,,,
659daa1ed4e13d6428103c1f,TCN,2024-06-24_17h33.35.110,LearnStrategy,2023.2.3,Win32,60.24096386,6,1,16,-0.042592536,-0.020370399,1,0,0,1.3216,rock_grid_rect_2,4,13,-1,-1,1.322,0.109259288,-0.398148176,1,0,0,3.5569,Peridotite_rect,7,3.557,0,15,0,15,0,1,,,,,,,,,,,,,
659daa1ed4e13d6428103c1f,TCN,2024-06-24_17h33.35.110,LearnStrategy,2023.2.3,Win32,60.24096386,6,2,1,,,,,,,,3,08,,,,,,,,,,,2,1.933,0,,,,,,-0.101851824,-0.254629686,1,0,0,1.9332,Basalt_rect,0,0,0,0,1,
659daa1ed4e13d6428103c1f,TCN,2024-06-24_17h33.35.110,LearnStrategy,2023.2.3,Win32,60.24096386,6,2,2,,,,,,,,4,10,,,,,,,,,,,2,2.955,0,,,,,,-0.112036981,-0.254629686,1,0,0,2.9546,Basalt_rect,1,0,1,0,1,
659daa1ed4e13d6428103c1f,TCN,2024-06-24_17h33.35.110,LearnStrategy,2023.2.3,Win32,60.24096386,6,2,3,,,,,,,,4,16,,,,,,,,,,,4,2.315,1,,,,,,0.407407464,-0.262963019,1,0,0,2.3154,Gabbro_rect,2,0,2,0,1,
659daa1ed4e13d6428103c1f,TCN,2024-06-24_17h33.35.110,LearnStrategy,2023.2.3,Win32,60.24096386,6,2,4,,,,,,,,3,11,,,,,,,,,,,2,1.574,0,,,,,,-0.117592536,-0.252777778,1,0,0,1.5742,Basalt_rect,3,0,3,0,1,
659daa1ed4e13d6428103c1f,TCN,2024-06-24_17h33.35.110,LearnStrategy,2023.2.3,Win32,60.24096386,6,2,5,,,,,,,,6,09,,,,,,,,,,,6,1.964,1,,,,,,-0.101851824,-0.413888889,1,0,0,1.9637,Pegmatite_rect,4,0,4,0,1,
659daa1ed4e13d6428103c1f,TCN,2024-06-24_17h33.35.110,LearnStrategy,2023.2.3,Win32,60.24096386,6,2,6,,,,,,,,7,08,,,,,,,,,,,7,1.192,1,,,,,,0.120370399,-0.403703732,1,0,0,1.1916,Peridotite_rect,5,0,5,0,1,
659daa1ed4e13d6428103c1f,TCN,2024-06-24_17h33.35.110,LearnStrategy,2023.2.3,Win32,60.24096386,6,2,7,,,,,,,,6,13,,,,,,,,,,,5,2.383,0,,,,,,-0.397222222,-0.420370399,1,0,0,2.383,Obsidian_rect,6,0,6,0,1,
659daa1ed4e13d6428103c1f,TCN,2024-06-24_17h33.35.110,LearnStrategy,2023.2.3,Win32,60.24096386,6,2,8,,,,,,,,8,16,,,,,,,,,,,8,1.655,1,,,,,,0.384259288,-0.391666667,1,0,0,1.655,Pumice_rect,7,0,7,0,1,
659daa1ed4e13d6428103c1f,TCN,2024-06-24_17h33.35.110,LearnStrategy,2023.2.3,Win32,60.24096386,6,2,9,,,,,,,,8,08,,,,,,,,,,,8,1.872,1,,,,,,0.366666667,-0.421296353,1,0,0,1.8717,Pumice_rect,8,0,8,0,1,
659daa1ed4e13d6428103c1f,TCN,2024-06-24_17h33.35.110,LearnStrategy,2023.2.3,Win32,60.24096386,6,2,10,,,,,,,,1,10,,,,,,,,,,,4,1.839,0,,,,,,0.361111111,-0.25,1,0,0,1.8393,Gabbro_rect,9,0,9,0,1,
659daa1ed4e13d6428103c1f,TCN,2024-06-24_17h33.35.110,LearnStrategy,2023.2.3,Win32,60.24096386,6,2,11,,,,,,,,7,06,,,,,,,,,,,7,1.293,1,,,,,,0.123148176,-0.386111111,1,0,0,1.2932,Peridotite_rect,10,0,10,0,1,
659daa1ed4e13d6428103c1f,TCN,2024-06-24_17h33.35.110,LearnStrategy,2023.2.3,Win32,60.24096386,6,2,12,,,,,,,,2,16,,,,,,,,,,,1,1.451,0,,,,,,-0.413888889,-0.242592621,1,0,0,1.4512,Andesite_rect,11,0,11,0,1,
659daa1ed4e13d6428103c1f,TCN,2024-06-24_17h33.35.110,LearnStrategy,2023.2.3,Win32,60.24096386,6,2,13,,,,,,,,5,08,,,,,,,,,,,5,1.046,1,,,,,,-0.402777778,-0.398148176,1,0,0,1.0458,Obsidian_rect,12,0,12,0,1,
659daa1ed4e13d6428103c1f,TCN,2024-06-24_17h33.35.110,LearnStrategy,2023.2.3,Win32,60.24096386,6,2,14,,,,,,,,1,09,,,,,,,,,,,2,1.391,0,,,,,,-0.134259203,-0.263888889,1,0,0,1.3913,Basalt_rect,13,0,13,0,1,
659daa1ed4e13d6428103c1f,TCN,2024-06-24_17h33.35.110,LearnStrategy,2023.2.3,Win32,60.24096386,6,2,15,,,,,,,,2,01,,,,,,,,,,,3,2.357,0,,,,,,0.100925954,-0.251851908,1,0,0,2.3574,Diorite_rect,14,0,14,0,1,
659daa1ed4e13d6428103c1f,TCN,2024-06-24_17h33.35.110,LearnStrategy,2023.2.3,Win32,60.24096386,6,2,16,,,,,,,,5,05,,,,,,,,,,,1,2.655,0,,,,,,-0.358333333,-0.246296353,1,0,0,2.6547,Andesite_rect,15,0,15,0,1,
659daa1ed4e13d6428103c1f,TCN,2024-06-24_17h33.35.110,LearnStrategy,2023.2.3,Win32,60.24096386,7,1,1,-0.037962935,-0.013888889,1,0,0,1.4113,rock_grid_rect_2,7,05,-1,-1,1.411,-0.123148092,-0.251851908,1,0,0,3.0733,Basalt_rect,2,3.073,0,0,0,0,0,1,,,,,,,,,,,,,
659daa1ed4e13d6428103c1f,TCN,2024-06-24_17h33.35.110,LearnStrategy,2023.2.3,Win32,60.24096386,7,1,2,-0.024074046,-0.012037065,1,0,0,1.3481,rock_grid_rect_2,2,12,-1,-1,1.348,0.094444444,-0.251851908,1,0,0,1.6063,Diorite_rect,3,1.606,0,1,0,1,0,1,,,,,,,,,,,,,
659daa1ed4e13d6428103c1f,TCN,2024-06-24_17h33.35.110,LearnStrategy,2023.2.3,Win32,60.24096386,7,1,3,-0.050925869,-0.002777778,1,0,0,0.9548,rock_grid_rect_2,1,05,-1,-1,0.955,-0.402777778,-0.261111111,1,0,0,1.6703,Andesite_rect,1,1.67,1,2,0,2,0,1,,,,,,,,,,,,,
659daa1ed4e13d6428103c1f,TCN,2024-06-24_17h33.35.110,LearnStrategy,2023.2.3,Win32,60.24096386,7,1,4,-0.032407379,-0.008333333,1,0,0,0.9286,rock_grid_rect_2,5,09,-1,-1,0.929,-0.371296268,-0.411111111,1,0,0,1.5719,Obsidian_rect,5,1.572,1,3,0,3,0,1,,,,,,,,,,,,,
659daa1ed4e13d6428103c1f,TCN,2024-06-24_17h33.35.110,LearnStrategy,2023.2.3,Win32,60.24096386,7,1,5,-0.033333333,-0.012962977,1,0,0,1.1643,rock_grid_rect_2,4,15,-1,-1,1.164,-0.121296268,-0.248148176,1,0,0,2.464,Basalt_rect,2,2.464,0,4,0,4,0,1,,,,,,,,,,,,,
659daa1ed4e13d6428103c1f,TCN,2024-06-24_17h33.35.110,LearnStrategy,2023.2.3,Win32,60.24096386,7,1,6,-0.002777778,0.005555556,1,0,0,0.8288,rock_grid_rect_2,1,14,-1,-1,0.829,0.109259288,-0.257407464,1,0,0,1.3726,Diorite_rect,3,1.373,0,5,0,5,0,1,,,,,,,,,,,,,
659daa1ed4e13d6428103c1f,TCN,2024-06-24_17h33.35.110,LearnStrategy,2023.2.3,Win32,60.24096386,7,1,7,-0.060185157,-0.014814843,1,0,0,1.0289,rock_grid_rect_2,8,15,-1,-1,1.029,0.394444444,-0.387963019,1,0,0,2.0072,Pumice_rect,8,2.007,1,6,0,6,0,1,,,,,,,,,,,,,
659daa1ed4e13d6428103c1f,TCN,2024-06-24_17h33.35.110,LearnStrategy,2023.2.3,Win32,60.24096386,7,1,8,-0.045370314,0.000925912,1,0,0,1.1296,rock_grid_rect_2,3,13,-1,-1,1.13,-0.413888889,-0.247222222,1,0,0,3.6064,Andesite_rect,1,3.606,0,7,0,7,0,1,,,,,,,,,,,,,
659daa1ed4e13d6428103c1f,TCN,2024-06-24_17h33.35.110,LearnStrategy,2023.2.3,Win32,60.24096386,7,1,9,-0.013888889,-0.007407422,1,0,0,1.2945,rock_grid_rect_2,5,10,-1,-1,1.294,-0.380555556,-0.412037065,1,0,0,1.4412,Obsidian_rect,5,1.441,1,8,0,8,0,1,,,,,,,,,,,,,
659daa1ed4e13d6428103c1f,TCN,2024-06-24_17h33.35.110,LearnStrategy,2023.2.3,Win32,60.24096386,7,1,10,-0.051851824,-0.007407422,1,0,0,0.9955,rock_grid_rect_2,6,05,-1,-1,0.995,-0.110185157,-0.264814843,1,0,0,1.3284,Basalt_rect,2,1.328,0,9,0,9,0,1,,,,,,,,,,,,,
659daa1ed4e13d6428103c1f,TCN,2024-06-24_17h33.35.110,LearnStrategy,2023.2.3,Win32,60.24096386,7,1,11,-0.055555556,-0.012962977,1,0,0,0.9465,rock_grid_rect_2,2,14,-1,-1,0.947,0.147222222,-0.262963019,1,0,0,1.9581,Diorite_rect,3,1.958,0,10,0,10,0,1,,,,,,,,,,,,,
659daa1ed4e13d6428103c1f,TCN,2024-06-24_17h33.35.110,LearnStrategy,2023.2.3,Win32,60.24096386,7,1,12,-0.001851824,0.012962935,1,0,0,0.9628,rock_grid_rect_2,8,14,-1,-1,0.963,0.383333333,-0.417592621,1,0,0,1.5226,Pumice_rect,8,1.523,1,11,0,11,0,1,,,,,,,,,,,,,
659daa1ed4e13d6428103c1f,TCN,2024-06-24_17h33.35.110,LearnStrategy,2023.2.3,Win32,60.24096386,7,1,13,-0.046296268,0.001851824,1,0,0,0.878,rock_grid_rect_2,4,13,-1,-1,0.878,0.377777778,-0.258333333,1,0,0,1.4733,Gabbro_rect,4,1.473,1,12,0,12,0,1,,,,,,,,,,,,,
659daa1ed4e13d6428103c1f,TCN,2024-06-24_17h33.35.110,LearnStrategy,2023.2.3,Win32,60.24096386,7,1,14,-0.066666667,-0.022222222,1,0,0,0.9634,rock_grid_rect_2,3,16,-1,-1,0.963,0.078703732,-0.266666667,1,0,0,1.6084,Diorite_rect,3,1.608,1,13,0,13,0,1,,,,,,,,,,,,,
659daa1ed4e13d6428103c1f,TCN,2024-06-24_17h33.35.110,LearnStrategy,2023.2.3,Win32,60.24096386,7,1,15,-0.087962935,-0.017592621,1,0,0,0.9796,rock_grid_rect_2,6,15,-1,-1,0.98,-0.142592536,-0.397222222,1,0,0,2.5065,Pegmatite_rect,6,2.506,1,14,0,14,0,1,,,,,,,,,,,,,
659daa1ed4e13d6428103c1f,TCN,2024-06-24_17h33.35.110,LearnStrategy,2023.2.3,Win32,60.24096386,7,1,16,-0.071296268,0.000925912,1,0,0,1.0184,rock_grid_rect_2,7,07,-1,-1,1.018,-0.167592536,-0.25648151,1,0,0,2.8418,Basalt_rect,2,2.842,0,15,0,15,0,1,,,,,,,,,,,,,
659daa1ed4e13d6428103c1f,TCN,2024-06-24_17h33.35.110,LearnStrategy,2023.2.3,Win32,60.24096386,7,2,1,,,,,,,,5,06,,,,,,,,,,,5,1.599,1,,,,,,-0.417592578,-0.416666667,1,0,0,1.5989,Obsidian_rect,0,0,0,0,1,
659daa1ed4e13d6428103c1f,TCN,2024-06-24_17h33.35.110,LearnStrategy,2023.2.3,Win32,60.24096386,7,2,2,,,,,,,,5,16,,,,,,,,,,,5,2.2,1,,,,,,-0.404629601,-0.405555556,1,0,0,2.2004,Obsidian_rect,1,0,1,0,1,
659daa1ed4e13d6428103c1f,TCN,2024-06-24_17h33.35.110,LearnStrategy,2023.2.3,Win32,60.24096386,7,2,3,,,,,,,,3,02,,,,,,,,,,,3,2.921,1,,,,,,0.091666667,-0.241666667,1,0,0,2.9209,Diorite_rect,2,0,2,0,1,
659daa1ed4e13d6428103c1f,TCN,2024-06-24_17h33.35.110,LearnStrategy,2023.2.3,Win32,60.24096386,7,2,4,,,,,,,,6,07,,,,,,,,,,,6,1.942,1,,,,,,-0.124074046,-0.415740797,1,0,0,1.9417,Pegmatite_rect,3,0,3,0,1,
659daa1ed4e13d6428103c1f,TCN,2024-06-24_17h33.35.110,LearnStrategy,2023.2.3,Win32,60.24096386,7,2,5,,,,,,,,4,14,,,,,,,,,,,1,1.35,0,,,,,,-0.369444444,-0.251851908,1,0,0,1.3502,Andesite_rect,4,0,4,0,1,
659daa1ed4e13d6428103c1f,TCN,2024-06-24_17h33.35.110,LearnStrategy,2023.2.3,Win32,60.24096386,7,2,6,,,,,,,,8,08,,,,,,,,,,,8,1.188,1,,,,,,0.401851908,-0.388888889,1,0,0,1.1879,Pumice_rect,5,0,5,0,1,
659daa1ed4e13d6428103c1f,TCN,2024-06-24_17h33.35.110,LearnStrategy,2023.2.3,Win32,60.24096386,7,2,7,,,,,,,,1,11,,,,,,,,,,,3,2.764,0,,,,,,0.135185242,-0.237037065,1,0,0,2.7641,Diorite_rect,6,0,6,0,1,
659daa1ed4e13d6428103c1f,TCN,2024-06-24_17h33.35.110,LearnStrategy,2023.2.3,Win32,60.24096386,7,2,8,,,,,,,,2,01,,,,,,,,,,,4,1.308,0,,,,,,0.361111111,-0.243518575,1,0,0,1.3083,Gabbro_rect,7,0,7,0,1,
659daa1ed4e13d6428103c1f,TCN,2024-06-24_17h33.35.110,LearnStrategy,2023.2.3,Win32,60.24096386,7,2,9,,,,,,,,1,09,,,,,,,,,,,4,2.504,0,,,,,,0.435185242,-0.245370399,1,0,0,2.5042,Gabbro_rect,8,0,8,0,1,
659daa1ed4e13d6428103c1f,TCN,2024-06-24_17h33.35.110,LearnStrategy,2023.2.3,Win32,60.24096386,7,2,10,,,,,,,,2,04,,,,,,,,,,,1,2.32,0,,,,,,-0.416666667,-0.243518575,1,0,0,2.3199,Andesite_rect,9,0,9,0,1,
659daa1ed4e13d6428103c1f,TCN,2024-06-24_17h33.35.110,LearnStrategy,2023.2.3,Win32,60.24096386,7,2,11,,,,,,,,4,01,,,,,,,,,,,6,1.604,0,,,,,,-0.109259203,-0.398148176,1,0,0,1.6041,Pegmatite_rect,10,0,10,0,1,
659daa1ed4e13d6428103c1f,TCN,2024-06-24_17h33.35.110,LearnStrategy,2023.2.3,Win32,60.24096386,7,2,12,,,,,,,,8,16,,,,,,,,,,,8,1.238,1,,,,,,0.425925954,-0.383333333,1,0,0,1.2384,Pumice_rect,11,0,11,0,1,
659daa1ed4e13d6428103c1f,TCN,2024-06-24_17h33.35.110,LearnStrategy,2023.2.3,Win32,60.24096386,7,2,13,,,,,,,,7,15,,,,,,,,,,,6,1.34,0,,,,,,-0.120370314,-0.40648151,1,0,0,1.34,Pegmatite_rect,12,0,12,0,1,
659daa1ed4e13d6428103c1f,TCN,2024-06-24_17h33.35.110,LearnStrategy,2023.2.3,Win32,60.24096386,7,2,14,,,,,,,,7,08,,,,,,,,,,,7,1.059,1,,,,,,0.113888889,-0.399074131,1,0,0,1.0595,Peridotite_rect,13,0,13,0,1,
659daa1ed4e13d6428103c1f,TCN,2024-06-24_17h33.35.110,LearnStrategy,2023.2.3,Win32,60.24096386,7,2,15,,,,,,,,3,15,,,,,,,,,,,2,1.151,0,,,,,,-0.109259203,-0.248148176,1,0,0,1.1509,Basalt_rect,14,0,14,0,1,
659daa1ed4e13d6428103c1f,TCN,2024-06-24_17h33.35.110,LearnStrategy,2023.2.3,Win32,60.24096386,7,2,16,,,,,,,,6,13,,,,,,,,,,,3,0.9,0,,,,,,0.114814843,-0.250925954,1,0,0,0.9001,Diorite_rect,15,0,15,0,1,
659daa1ed4e13d6428103c1f,TCN,2024-06-24_17h33.35.110,LearnStrategy,2023.2.3,Win32,60.24096386,8,1,1,-0.007407379,-0.004629644,1,0,0,1.0452,rock_grid_rect_2,2,09,-1,-1,1.045,0.110185242,-0.23148151,1,0,0,3.1053,Diorite_rect,3,3.105,0,0,0,0,0,1,,,,,,,,,,,,,
659daa1ed4e13d6428103c1f,TCN,2024-06-24_17h33.35.110,LearnStrategy,2023.2.3,Win32,60.24096386,8,1,2,-0.071296268,-0.012962977,1,0,0,1.1635,rock_grid_rect_2,8,02,-1,-1,1.163,0.375925954,-0.407407464,1,0,0,1.6049,Pumice_rect,8,1.605,1,1,0,1,0,1,,,,,,,,,,,,,
659daa1ed4e13d6428103c1f,TCN,2024-06-24_17h33.35.110,LearnStrategy,2023.2.3,Win32,60.24096386,8,1,3,-0.051851824,-0.014814843,1,0,0,1.1129,rock_grid_rect_2,8,09,-1,-1,1.113,0.392592621,-0.399074131,1,0,0,1.3577,Pumice_rect,8,1.358,1,2,0,2,0,1,,,,,,,,,,,,,
659daa1ed4e13d6428103c1f,TCN,2024-06-24_17h33.35.110,LearnStrategy,2023.2.3,Win32,60.24096386,8,1,4,-0.074074046,0.021296268,1,0,0,1.0701,rock_grid_rect_2,5,07,-1,-1,1.07,-0.376851824,-0.40648151,1,0,0,1.2335,Obsidian_rect,5,1.234,1,3,0,3,0,1,,,,,,,,,,,,,
659daa1ed4e13d6428103c1f,TCN,2024-06-24_17h33.35.110,LearnStrategy,2023.2.3,Win32,60.24096386,8,1,5,-0.11851849,-0.005555556,1,0,0,1.213,rock_grid_rect_2,3,14,-1,-1,1.213,0.087037065,-0.240740797,1,0,0,2.4847,Diorite_rect,3,2.485,1,4,0,4,0,1,,,,,,,,,,,,,
659daa1ed4e13d6428103c1f,TCN,2024-06-24_17h33.35.110,LearnStrategy,2023.2.3,Win32,60.24096386,8,1,6,-0.054629601,-0.014814843,1,0,0,0.8869,rock_grid_rect_2,6,08,-1,-1,0.887,-0.157407379,-0.4,1,0,0,1.5617,Pegmatite_rect,6,1.562,1,5,0,5,0,1,,,,,,,,,,,,,
659daa1ed4e13d6428103c1f,TCN,2024-06-24_17h33.35.110,LearnStrategy,2023.2.3,Win32,60.24096386,8,1,7,-0.029629601,-0.015740755,1,0,0,1,rock_grid_rect_2,1,16,-1,-1,1,-0.441666667,-0.23148151,1,0,0,2.187,Andesite_rect,1,2.187,1,6,0,6,0,1,,,,,,,,,,,,,
659daa1ed4e13d6428103c1f,TCN,2024-06-24_17h33.35.110,LearnStrategy,2023.2.3,Win32,60.24096386,8,1,8,-0.069444444,0.002777778,1,0,0,1.0435,rock_grid_rect_2,5,14,-1,-1,1.043,-0.387962935,-0.396296353,1,0,0,1.2125,Obsidian_rect,5,1.213,1,7,0,7,0,1,,,,,,,,,,,,,
659daa1ed4e13d6428103c1f,TCN,2024-06-24_17h33.35.110,LearnStrategy,2023.2.3,Win32,60.24096386,8,1,9,-0.014814758,-0.00648151,1,0,0,1.047,rock_grid_rect_2,3,12,-1,-1,1.047,-0.101851824,-0.408333333,1,0,0,2.8223,Pegmatite_rect,6,2.822,0,8,0,8,0,1,,,,,,,,,,,,,
659daa1ed4e13d6428103c1f,TCN,2024-06-24_17h33.35.110,LearnStrategy,2023.2.3,Win32,60.24096386,8,1,10,-0.012962935,-0.012962977,1,0,0,1.0776,rock_grid_rect_2,1,01,-1,-1,1.078,0.383333333,-0.255555556,1,0,0,3.2075,Gabbro_rect,4,3.207,0,9,0,9,0,1,,,,,,,,,,,,,
659daa1ed4e13d6428103c1f,TCN,2024-06-24_17h33.35.110,LearnStrategy,2023.2.3,Win32,60.24096386,8,1,11,-0.040740712,-0.004629644,1,0,0,1.1397,rock_grid_rect_2,4,11,-1,-1,1.14,-0.17870369,-0.247222222,1,0,0,1.5122,Basalt_rect,2,1.512,0,10,0,10,0,1,,,,,,,,,,,,,
659daa1ed4e13d6428103c1f,TCN,2024-06-24_17h33.35.110,LearnStrategy,2023.2.3,Win32,60.24096386,8,1,12,-0.01851849,-0.000925954,1,0,0,1.3475,rock_grid_rect_2,7,12,-1,-1,1.347,-0.082407379,-0.379629686,1,0,0,3.3016,Pegmatite_rect,6,3.302,0,11,0,11,0,1,,,,,,,,,,,,,
659daa1ed4e13d6428103c1f,TCN,2024-06-24_17h33.35.110,LearnStrategy,2023.2.3,Win32,60.24096386,8,1,13,-0.011111111,0.010185157,1,0,0,1.1174,rock_grid_rect_2,7,02,-1,-1,1.117,-0.057407379,-0.383333333,1,0,0,2.0842,Pegmatite_rect,6,2.084,0,12,0,12,0,1,,,,,,,,,,,,,
659daa1ed4e13d6428103c1f,TCN,2024-06-24_17h33.35.110,LearnStrategy,2023.2.3,Win32,60.24096386,8,1,14,-0.001851824,-0.009259288,1,0,0,1.1795,rock_grid_rect_2,2,05,-1,-1,1.179,0.384259288,-0.270370399,1,0,0,2.8403,Gabbro_rect,4,2.84,0,13,0,13,0,1,,,,,,,,,,,,,
659daa1ed4e13d6428103c1f,TCN,2024-06-24_17h33.35.110,LearnStrategy,2023.2.3,Win32,60.24096386,8,1,15,-0.032407379,-0.016666667,1,0,0,0.9133,rock_grid_rect_2,6,10,-1,-1,0.913,-0.100925869,-0.394444444,1,0,0,5.642,Pegmatite_rect,6,5.642,1,14,0,14,0,1,,,,,,,,,,,,,
659daa1ed4e13d6428103c1f,TCN,2024-06-24_17h33.35.110,LearnStrategy,2023.2.3,Win32,60.24096386,8,1,16,-0.031481425,-0.012037065,1,0,0,1.1636,rock_grid_rect_2,4,09,-1,-1,1.164,-0.431481467,-0.244444444,1,0,0,4.8892,Andesite_rect,1,4.889,0,15,0,15,0,1,,,,,,,,,,,,,
659daa1ed4e13d6428103c1f,TCN,2024-06-24_17h33.35.110,LearnStrategy,2023.2.3,Win32,60.24096386,8,2,1,,,,,,,,4,10,,,,,,,,,,,4,2.736,1,,,,,,0.365740797,-0.243518575,1,0,0,2.7358,Gabbro_rect,0,0,0,0,1,
659daa1ed4e13d6428103c1f,TCN,2024-06-24_17h33.35.110,LearnStrategy,2023.2.3,Win32,60.24096386,8,2,2,,,,,,,,1,03,,,,,,,,,,,2,1.602,0,,,,,,-0.125,-0.268518575,1,0,0,1.6016,Basalt_rect,1,0,1,0,1,
659daa1ed4e13d6428103c1f,TCN,2024-06-24_17h33.35.110,LearnStrategy,2023.2.3,Win32,60.24096386,8,2,3,,,,,,,,5,05,,,,,,,,,,,3,3.078,0,,,,,,0.082407464,-0.240740797,1,0,0,3.0777,Diorite_rect,2,0,2,0,1,
659daa1ed4e13d6428103c1f,TCN,2024-06-24_17h33.35.110,LearnStrategy,2023.2.3,Win32,60.24096386,8,2,4,,,,,,,,7,06,,,,,,,,,,,7,1.732,1,,,,,,0.075925954,-0.390740797,1,0,0,1.7321,Peridotite_rect,3,0,3,0,1,
659daa1ed4e13d6428103c1f,TCN,2024-06-24_17h33.35.110,LearnStrategy,2023.2.3,Win32,60.24096386,8,2,5,,,,,,,,5,04,,,,,,,,,,,5,1.542,1,,,,,,-0.419444444,-0.417592621,1,0,0,1.5422,Obsidian_rect,4,0,4,0,1,
659daa1ed4e13d6428103c1f,TCN,2024-06-24_17h33.35.110,LearnStrategy,2023.2.3,Win32,60.24096386,8,2,6,,,,,,,,3,06,,,,,,,,,,,2,1.46,0,,,,,,-0.153703647,-0.251851908,1,0,0,1.4604,Basalt_rect,5,0,5,0,1,
659daa1ed4e13d6428103c1f,TCN,2024-06-24_17h33.35.110,LearnStrategy,2023.2.3,Win32,60.24096386,8,2,7,,,,,,,,6,11,,,,,,,,,,,5,4.856,0,,,,,,-0.355555556,-0.414814843,1,0,0,4.8555,Obsidian_rect,6,0,6,0,1,
659daa1ed4e13d6428103c1f,TCN,2024-06-24_17h33.35.110,LearnStrategy,2023.2.3,Win32,60.24096386,8,2,8,,,,,,,,1,07,,,,,,,,,,,3,2.033,0,,,,,,0.137963019,-0.249074131,1,0,0,2.0327,Diorite_rect,7,0,7,0,1,
659daa1ed4e13d6428103c1f,TCN,2024-06-24_17h33.35.110,LearnStrategy,2023.2.3,Win32,60.24096386,8,2,9,,,,,,,,3,10,,,,,,,,,,,2,1.121,0,,,,,,-0.106481425,-0.252777778,1,0,0,1.1214,Basalt_rect,8,0,8,0,1,
659daa1ed4e13d6428103c1f,TCN,2024-06-24_17h33.35.110,LearnStrategy,2023.2.3,Win32,60.24096386,8,2,10,,,,,,,,6,09,,,,,,,,,,,6,1.338,1,,,,,,-0.074074046,-0.404629686,1,0,0,1.3384,Pegmatite_rect,9,0,9,0,1,
659daa1ed4e13d6428103c1f,TCN,2024-06-24_17h33.35.110,LearnStrategy,2023.2.3,Win32,60.24096386,8,2,11,,,,,,,,8,03,,,,,,,,,,,8,1.073,1,,,,,,0.350925954,-0.405555556,1,0,0,1.0726,Pumice_rect,10,0,10,0,1,
659daa1ed4e13d6428103c1f,TCN,2024-06-24_17h33.35.110,LearnStrategy,2023.2.3,Win32,60.24096386,8,2,12,,,,,,,,7,10,,,,,,,,,,,7,1.543,1,,,,,,0.120370399,-0.397222222,1,0,0,1.543,Peridotite_rect,11,0,11,0,1,
659daa1ed4e13d6428103c1f,TCN,2024-06-24_17h33.35.110,LearnStrategy,2023.2.3,Win32,60.24096386,8,2,13,,,,,,,,8,04,,,,,,,,,,,8,1.09,1,,,,,,0.361111111,-0.385185242,1,0,0,1.0895,Pumice_rect,12,0,12,0,1,
659daa1ed4e13d6428103c1f,TCN,2024-06-24_17h33.35.110,LearnStrategy,2023.2.3,Win32,60.24096386,8,2,14,,,,,,,,2,06,,,,,,,,,,,2,1.923,1,,,,,,-0.182407379,-0.247222222,1,0,0,1.9227,Basalt_rect,13,0,13,0,1,
659daa1ed4e13d6428103c1f,TCN,2024-06-24_17h33.35.110,LearnStrategy,2023.2.3,Win32,60.24096386,8,2,15,,,,,,,,2,08,,,,,,,,,,,4,1.568,0,,,,,,0.364814843,-0.230555556,1,0,0,1.5678,Gabbro_rect,14,0,14,0,1,
659daa1ed4e13d6428103c1f,TCN,2024-06-24_17h33.35.110,LearnStrategy,2023.2.3,Win32,60.24096386,8,2,16,,,,,,,,4,12,,,,,,,,,,,3,3.217,0,,,,,,0.118518575,-0.242592621,1,0,0,3.2172,Diorite_rect,15,0,15,0,1,
659daa1ed4e13d6428103c1f,TCN,2024-06-24_17h33.35.110,LearnStrategy,2023.2.3,Win32,60.24096386,9,1,1,-0.045370314,-0.009259288,1,0,0,1.0781,rock_grid_rect_2,3,07,-1,-1,1.078,0.123148176,-0.237037065,1,0,0,3.5081,Diorite_rect,3,3.508,1,0,0,0,0,1,,,,,,,,,,,,,
659daa1ed4e13d6428103c1f,TCN,2024-06-24_17h33.35.110,LearnStrategy,2023.2.3,Win32,60.24096386,9,1,2,-0.122222222,-0.008333333,1,0,0,1.3902,rock_grid_rect_2,4,05,-1,-1,1.39,-0.405555556,-0.270370399,1,0,0,2.3368,Andesite_rect,1,2.337,0,1,0,1,0,1,,,,,,,,,,,,,
659daa1ed4e13d6428103c1f,TCN,2024-06-24_17h33.35.110,LearnStrategy,2023.2.3,Win32,60.24096386,9,1,3,-0.054629601,-0.012962977,1,0,0,0.9125,rock_grid_rect_2,1,06,-1,-1,0.912,0.101851908,-0.239814843,1,0,0,1.3872,Diorite_rect,3,1.387,0,2,0,2,0,1,,,,,,,,,,,,,
659daa1ed4e13d6428103c1f,TCN,2024-06-24_17h33.35.110,LearnStrategy,2023.2.3,Win32,60.24096386,9,1,4,-0.095370314,-0.019444444,1,0,0,1.2717,rock_grid_rect_2,5,12,-1,-1,1.272,-0.412962935,-0.416666667,1,0,0,1.298,Obsidian_rect,5,1.298,1,3,0,3,0,1,,,,,,,,,,,,,
659daa1ed4e13d6428103c1f,TCN,2024-06-24_17h33.35.110,LearnStrategy,2023.2.3,Win32,60.24096386,9,1,5,-0.048148092,-0.010185199,1,0,0,0.866,rock_grid_rect_2,6,03,-1,-1,0.866,-0.106481425,-0.411111111,1,0,0,2.2108,Pegmatite_rect,6,2.211,1,4,0,4,0,1,,,,,,,,,,,,,
659daa1ed4e13d6428103c1f,TCN,2024-06-24_17h33.35.110,LearnStrategy,2023.2.3,Win32,60.24096386,9,1,6,-0.113888889,-0.007407422,1,0,0,0.9427,rock_grid_rect_2,7,14,-1,-1,0.943,0.110185242,-0.410185242,1,0,0,1.5404,Peridotite_rect,7,1.54,1,5,0,5,0,1,,,,,,,,,,,,,
659daa1ed4e13d6428103c1f,TCN,2024-06-24_17h33.35.110,LearnStrategy,2023.2.3,Win32,60.24096386,9,1,7,-0.095370314,-0.016666667,1,0,0,1.1306,rock_grid_rect_2,6,12,-1,-1,1.131,0.110185242,-0.238888889,1,0,0,5.0883,Diorite_rect,3,5.088,0,6,0,6,0,1,,,,,,,,,,,,,
659daa1ed4e13d6428103c1f,TCN,2024-06-24_17h33.35.110,LearnStrategy,2023.2.3,Win32,60.24096386,9,1,8,-0.075,-0.008333333,1,0,0,1.0839,rock_grid_rect_2,2,02,-1,-1,1.084,0.421296353,-0.262037065,1,0,0,2.4365,Gabbro_rect,4,2.437,0,7,0,7,0,1,,,,,,,,,,,,,
659daa1ed4e13d6428103c1f,TCN,2024-06-24_17h33.35.110,LearnStrategy,2023.2.3,Win32,60.24096386,9,1,9,-0.077777778,-0.013888889,1,0,0,1.1469,rock_grid_rect_2,4,03,-1,-1,1.147,-0.398148134,-0.250925954,1,0,0,4.4076,Andesite_rect,1,4.408,0,8,0,8,0,1,,,,,,,,,,,,,
659daa1ed4e13d6428103c1f,TCN,2024-06-24_17h33.35.110,LearnStrategy,2023.2.3,Win32,60.24096386,9,1,10,-0.029629601,0.004629601,1,0,0,0.8693,rock_grid_rect_2,2,11,-1,-1,0.869,-0.191666667,-0.264814843,1,0,0,3.9435,Basalt_rect,2,3.944,1,9,0,9,0,1,,,,,,,,,,,,,
659daa1ed4e13d6428103c1f,TCN,2024-06-24_17h33.35.110,LearnStrategy,2023.2.3,Win32,60.24096386,9,1,11,-0.059259203,-0.005555556,1,0,0,0.8465,rock_grid_rect_2,1,04,-1,-1,0.847,0.104629686,-0.263888889,1,0,0,1.1872,Diorite_rect,3,1.187,0,10,0,10,0,1,,,,,,,,,,,,,
659daa1ed4e13d6428103c1f,TCN,2024-06-24_17h33.35.110,LearnStrategy,2023.2.3,Win32,60.24096386,9,1,12,-0.048148092,-0.023148176,1,0,0,0.9802,rock_grid_rect_2,8,06,-1,-1,0.98,0.38148151,-0.410185242,1,0,0,1.7246,Pumice_rect,8,1.725,1,11,0,11,0,1,,,,,,,,,,,,,
659daa1ed4e13d6428103c1f,TCN,2024-06-24_17h33.35.110,LearnStrategy,2023.2.3,Win32,60.24096386,9,1,13,-0.102777778,0.009259245,1,0,0,0.913,rock_grid_rect_2,8,05,-1,-1,0.913,0.366666667,-0.385185242,1,0,0,1.4439,Pumice_rect,8,1.444,1,12,0,12,0,1,,,,,,,,,,,,,
659daa1ed4e13d6428103c1f,TCN,2024-06-24_17h33.35.110,LearnStrategy,2023.2.3,Win32,60.24096386,9,1,14,-0.030555556,0.011111111,1,0,0,0.813,rock_grid_rect_2,7,16,-1,-1,0.813,0.346296353,-0.249074131,1,0,0,2.9923,Gabbro_rect,4,2.992,0,13,0,13,0,1,,,,,,,,,,,,,
659daa1ed4e13d6428103c1f,TCN,2024-06-24_17h33.35.110,LearnStrategy,2023.2.3,Win32,60.24096386,9,1,15,-0.106481425,-0.000925954,1,0,0,1.3788,rock_grid_rect_2,5,02,-1,-1,1.379,-0.370370356,-0.389814843,1,0,0,1.4575,Obsidian_rect,5,1.457,1,14,0,14,0,1,,,,,,,,,,,,,
659daa1ed4e13d6428103c1f,TCN,2024-06-24_17h33.35.110,LearnStrategy,2023.2.3,Win32,60.24096386,9,1,16,-0.09351849,-0.013888889,1,0,0,1.8299,rock_grid_rect_2,3,09,-1,-1,1.83,0.100925954,-0.25648151,1,0,0,1.9406,Diorite_rect,3,1.941,1,15,0,15,0,1,,,,,,,,,,,,,
659daa1ed4e13d6428103c1f,TCN,2024-06-24_17h33.35.110,LearnStrategy,2023.2.3,Win32,60.24096386,9,2,1,,,,,,,,1,02,,,,,,,,,,,2,2.522,0,,,,,,-0.110185157,-0.253703732,1,0,0,2.5222,Basalt_rect,0,0,0,0,1,
659daa1ed4e13d6428103c1f,TCN,2024-06-24_17h33.35.110,LearnStrategy,2023.2.3,Win32,60.24096386,9,2,2,,,,,,,,7,04,,,,,,,,,,,1,3.267,0,,,,,,-0.36851849,-0.260185242,1,0,0,3.2669,Andesite_rect,1,0,1,0,1,
659daa1ed4e13d6428103c1f,TCN,2024-06-24_17h33.35.110,LearnStrategy,2023.2.3,Win32,60.24096386,9,2,3,,,,,,,,3,08,,,,,,,,,,,3,1.234,1,,,,,,0.13148151,-0.270370399,1,0,0,1.2336,Diorite_rect,2,0,2,0,1,
659daa1ed4e13d6428103c1f,TCN,2024-06-24_17h33.35.110,LearnStrategy,2023.2.3,Win32,60.24096386,9,2,4,,,,,,,,3,11,,,,,,,,,,,3,4.735,1,,,,,,0.167592621,-0.257407464,1,0,0,4.7348,Diorite_rect,3,0,3,0,1,
659daa1ed4e13d6428103c1f,TCN,2024-06-24_17h33.35.110,LearnStrategy,2023.2.3,Win32,60.24096386,9,2,5,,,,,,,,4,08,,,,,,,,,,,4,1.565,1,,,,,,0.433333333,-0.262963019,1,0,0,1.5655,Gabbro_rect,4,0,4,0,1,
659daa1ed4e13d6428103c1f,TCN,2024-06-24_17h33.35.110,LearnStrategy,2023.2.3,Win32,60.24096386,9,2,6,,,,,,,,8,10,,,,,,,,,,,8,1.132,1,,,,,,0.369444444,-0.383333333,1,0,0,1.1325,Pumice_rect,5,0,5,0,1,
659daa1ed4e13d6428103c1f,TCN,2024-06-24_17h33.35.110,LearnStrategy,2023.2.3,Win32,60.24096386,9,2,7,,,,,,,,6,06,,,,,,,,,,,1,2.494,0,,,,,,-0.383333333,-0.263888889,1,0,0,2.4942,Andesite_rect,6,0,6,0,1,
659daa1ed4e13d6428103c1f,TCN,2024-06-24_17h33.35.110,LearnStrategy,2023.2.3,Win32,60.24096386,9,2,8,,,,,,,,4,16,,,,,,,,,,,4,2.808,1,,,,,,0.407407464,-0.251851908,1,0,0,2.8082,Gabbro_rect,7,0,7,0,1,
659daa1ed4e13d6428103c1f,TCN,2024-06-24_17h33.35.110,LearnStrategy,2023.2.3,Win32,60.24096386,9,2,9,,,,,,,,5,11,,,,,,,,,,,5,1.223,1,,,,,,-0.365740712,-0.418518575,1,0,0,1.2229,Obsidian_rect,8,0,8,0,1,
659daa1ed4e13d6428103c1f,TCN,2024-06-24_17h33.35.110,LearnStrategy,2023.2.3,Win32,60.24096386,9,2,10,,,,,,,,7,13,,,,,,,,,,,6,2.322,0,,,,,,-0.090740712,-0.398148176,1,0,0,2.3223,Pegmatite_rect,9,0,9,0,1,
659daa1ed4e13d6428103c1f,TCN,2024-06-24_17h33.35.110,LearnStrategy,2023.2.3,Win32,60.24096386,9,2,11,,,,,,,,5,08,,,,,,,,,,,5,1.08,1,,,,,,-0.461111111,-0.417592621,1,0,0,1.0797,Obsidian_rect,10,0,10,0,1,
659daa1ed4e13d6428103c1f,TCN,2024-06-24_17h33.35.110,LearnStrategy,2023.2.3,Win32,60.24096386,9,2,12,,,,,,,,8,13,,,,,,,,,,,8,1.728,1,,,,,,0.413888889,-0.403703732,1,0,0,1.7281,Pumice_rect,11,0,11,0,1,
659daa1ed4e13d6428103c1f,TCN,2024-06-24_17h33.35.110,LearnStrategy,2023.2.3,Win32,60.24096386,9,2,13,,,,,,,,2,10,,,,,,,,,,,4,3.969,0,,,,,,0.378703732,-0.246296353,1,0,0,3.9686,Gabbro_rect,12,0,12,0,1,
659daa1ed4e13d6428103c1f,TCN,2024-06-24_17h33.35.110,LearnStrategy,2023.2.3,Win32,60.24096386,9,2,14,,,,,,,,2,16,,,,,,,,,,,3,1.414,0,,,,,,0.073148176,-0.259259288,1,0,0,1.4139,Diorite_rect,13,0,13,0,1,
659daa1ed4e13d6428103c1f,TCN,2024-06-24_17h33.35.110,LearnStrategy,2023.2.3,Win32,60.24096386,9,2,15,,,,,,,,6,16,,,,,,,,,,,1,2.732,0,,,,,,-0.344444444,-0.261111111,1,0,0,2.7318,Andesite_rect,14,0,14,0,1,
659daa1ed4e13d6428103c1f,TCN,2024-06-24_17h33.35.110,LearnStrategy,2023.2.3,Win32,60.24096386,9,2,16,,,,,,,,1,10,,,,,,,,,,,1,2.058,1,,,,,,-0.370370356,-0.255555556,1,0,0,2.0577,Andesite_rect,15,0,15,0,1,
659daa1ed4e13d6428103c1f,TCN,2024-06-24_17h33.35.110,LearnStrategy,2023.2.3,Win32,60.24096386,,,,,,,,,,,,,,,,,,,,,,,,,,,,,,,,,,,,,,,,,,,0
659daa1ed4e13d6428103c1f,TCN,2024-06-24_17h33.35.110,LearnStrategy,2023.2.3,Win32,60.24096386,,,,,,,,,,,,,,,,,,,,,,,,,,,,,,,,,,,,,,,,,,,
659daa1ed4e13d6428103c1f,TCN,2024-06-24_17h33.35.110,LearnStrategy,2023.2.3,Win32,60.24096386,,,,,,,,,,,1,05,1,1,,,,,,,,,,,,,,,,,,,,,,,,,,,,,
659daa1ed4e13d6428103c1f,TCN,2024-06-24_17h33.35.110,LearnStrategy,2023.2.3,Win32,60.24096386,,,,,,,,,,,1,01,1,2,,,,,,,,,,,,,,,,,,,,,,,,,,,,,
659daa1ed4e13d6428103c1f,TCN,2024-06-24_17h33.35.110,LearnStrategy,2023.2.3,Win32,60.24096386,,,,,,,,,,,8,15,1,3,,,,,,,,,,,,,,,,,,,,,,,,,,,,,
659daa1ed4e13d6428103c1f,TCN,2024-06-24_17h33.35.110,LearnStrategy,2023.2.3,Win32,60.24096386,,,,,,,,,,,3,09,1,4,,,,,,,,,,,,,,,,,,,,,,,,,,,,,
659daa1ed4e13d6428103c1f,TCN,2024-06-24_17h33.35.110,LearnStrategy,2023.2.3,Win32,60.24096386,,,,,,,,,,,6,10,1,5,,,,,,,,,,,,,,,,,,,,,,,,,,,,,
659daa1ed4e13d6428103c1f,TCN,2024-06-24_17h33.35.110,LearnStrategy,2023.2.3,Win32,60.24096386,,,,,,,,,,,3,12,1,6,,,,,,,,,,,,,,,,,,,,,,,,,,,,,
659daa1ed4e13d6428103c1f,TCN,2024-06-24_17h33.35.110,LearnStrategy,2023.2.3,Win32,60.24096386,,,,,,,,,,,3,07,1,7,,,,,,,,,,,,,,,,,,,,,,,,,,,,,
659daa1ed4e13d6428103c1f,TCN,2024-06-24_17h33.35.110,LearnStrategy,2023.2.3,Win32,60.24096386,,,,,,,,,,,2,12,1,8,,,,,,,,,,,,,,,,,,,,,,,,,,,,,
659daa1ed4e13d6428103c1f,TCN,2024-06-24_17h33.35.110,LearnStrategy,2023.2.3,Win32,60.24096386,,,,,,,,,,,7,07,2,1,,,,,,,,,,,,,,,,,,,,,,,,,,,,,
659daa1ed4e13d6428103c1f,TCN,2024-06-24_17h33.35.110,LearnStrategy,2023.2.3,Win32,60.24096386,,,,,,,,,,,7,14,2,2,,,,,,,,,,,,,,,,,,,,,,,,,,,,,
659daa1ed4e13d6428103c1f,TCN,2024-06-24_17h33.35.110,LearnStrategy,2023.2.3,Win32,60.24096386,,,,,,,,,,,7,16,2,3,,,,,,,,,,,,,,,,,,,,,,,,,,,,,
659daa1ed4e13d6428103c1f,TCN,2024-06-24_17h33.35.110,LearnStrategy,2023.2.3,Win32,60.24096386,,,,,,,,,,,8,02,2,4,,,,,,,,,,,,,,,,,,,,,,,,,,,,,
659daa1ed4e13d6428103c1f,TCN,2024-06-24_17h33.35.110,LearnStrategy,2023.2.3,Win32,60.24096386,,,,,,,,,,,7,05,2,5,,,,,,,,,,,,,,,,,,,,,,,,,,,,,
659daa1ed4e13d6428103c1f,TCN,2024-06-24_17h33.35.110,LearnStrategy,2023.2.3,Win32,60.24096386,,,,,,,,,,,1,14,2,6,,,,,,,,,,,,,,,,,,,,,,,,,,,,,
659daa1ed4e13d6428103c1f,TCN,2024-06-24_17h33.35.110,LearnStrategy,2023.2.3,Win32,60.24096386,,,,,,,,,,,2,05,2,7,,,,,,,,,,,,,,,,,,,,,,,,,,,,,
659daa1ed4e13d6428103c1f,TCN,2024-06-24_17h33.35.110,LearnStrategy,2023.2.3,Win32,60.24096386,,,,,,,,,,,4,15,2,8,,,,,,,,,,,,,,,,,,,,,,,,,,,,,
659daa1ed4e13d6428103c1f,TCN,2024-06-24_17h33.35.110,LearnStrategy,2023.2.3,Win32,60.24096386,,,,,,,,,,,3,14,3,1,,,,,,,,,,,,,,,,,,,,,,,,,,,,,
659daa1ed4e13d6428103c1f,TCN,2024-06-24_17h33.35.110,LearnStrategy,2023.2.3,Win32,60.24096386,,,,,,,,,,,4,09,3,2,,,,,,,,,,,,,,,,,,,,,,,,,,,,,
659daa1ed4e13d6428103c1f,TCN,2024-06-24_17h33.35.110,LearnStrategy,2023.2.3,Win32,60.24096386,,,,,,,,,,,8,06,3,3,,,,,,,,,,,,,,,,,,,,,,,,,,,,,
659daa1ed4e13d6428103c1f,TCN,2024-06-24_17h33.35.110,LearnStrategy,2023.2.3,Win32,60.24096386,,,,,,,,,,,4,13,3,4,,,,,,,,,,,,,,,,,,,,,,,,,,,,,
659daa1ed4e13d6428103c1f,TCN,2024-06-24_17h33.35.110,LearnStrategy,2023.2.3,Win32,60.24096386,,,,,,,,,,,5,12,3,5,,,,,,,,,,,,,,,,,,,,,,,,,,,,,
659daa1ed4e13d6428103c1f,TCN,2024-06-24_17h33.35.110,LearnStrategy,2023.2.3,Win32,60.24096386,,,,,,,,,,,6,05,3,6,,,,,,,,,,,,,,,,,,,,,,,,,,,,,
659daa1ed4e13d6428103c1f,TCN,2024-06-24_17h33.35.110,LearnStrategy,2023.2.3,Win32,60.24096386,,,,,,,,,,,5,02,3,7,,,,,,,,,,,,,,,,,,,,,,,,,,,,,
659daa1ed4e13d6428103c1f,TCN,2024-06-24_17h33.35.110,LearnStrategy,2023.2.3,Win32,60.24096386,,,,,,,,,,,6,15,3,8,,,,,,,,,,,,,,,,,,,,,,,,,,,,,
659daa1ed4e13d6428103c1f,TCN,2024-06-24_17h33.35.110,LearnStrategy,2023.2.3,Win32,60.24096386,,,,,,,,,,,4,03,4,1,,,,,,,,,,,,,,,,,,,,,,,,,,,,,
659daa1ed4e13d6428103c1f,TCN,2024-06-24_17h33.35.110,LearnStrategy,2023.2.3,Win32,60.24096386,,,,,,,,,,,3,16,4,2,,,,,,,,,,,,,,,,,,,,,,,,,,,,,
659daa1ed4e13d6428103c1f,TCN,2024-06-24_17h33.35.110,LearnStrategy,2023.2.3,Win32,60.24096386,,,,,,,,,,,5,09,4,3,,,,,,,,,,,,,,,,,,,,,,,,,,,,,
659daa1ed4e13d6428103c1f,TCN,2024-06-24_17h33.35.110,LearnStrategy,2023.2.3,Win32,60.24096386,,,,,,,,,,,6,12,4,4,,,,,,,,,,,,,,,,,,,,,,,,,,,,,
659daa1ed4e13d6428103c1f,TCN,2024-06-24_17h33.35.110,LearnStrategy,2023.2.3,Win32,60.24096386,,,,,,,,,,,1,04,4,5,,,,,,,,,,,,,,,,,,,,,,,,,,,,,
659daa1ed4e13d6428103c1f,TCN,2024-06-24_17h33.35.110,LearnStrategy,2023.2.3,Win32,60.24096386,,,,,,,,,,,3,13,4,6,,,,,,,,,,,,,,,,,,,,,,,,,,,,,
659daa1ed4e13d6428103c1f,TCN,2024-06-24_17h33.35.110,LearnStrategy,2023.2.3,Win32,60.24096386,,,,,,,,,,,2,14,4,7,,,,,,,,,,,,,,,,,,,,,,,,,,,,,
659daa1ed4e13d6428103c1f,TCN,2024-06-24_17h33.35.110,LearnStrategy,2023.2.3,Win32,60.24096386,,,,,,,,,,,2,09,4,8,,,,,,,,,,,,,,,,,,,,,,,,,,,,,
659daa1ed4e13d6428103c1f,TCN,2024-06-24_17h33.35.110,LearnStrategy,2023.2.3,Win32,60.24096386,,,,,,,,,,,4,05,5,1,,,,,,,,,,,,,,,,,,,,,,,,,,,,,
659daa1ed4e13d6428103c1f,TCN,2024-06-24_17h33.35.110,LearnStrategy,2023.2.3,Win32,60.24096386,,,,,,,,,,,5,10,5,2,,,,,,,,,,,,,,,,,,,,,,,,,,,,,
659daa1ed4e13d6428103c1f,TCN,2024-06-24_17h33.35.110,LearnStrategy,2023.2.3,Win32,60.24096386,,,,,,,,,,,1,16,5,3,,,,,,,,,,,,,,,,,,,,,,,,,,,,,
659daa1ed4e13d6428103c1f,TCN,2024-06-24_17h33.35.110,LearnStrategy,2023.2.3,Win32,60.24096386,,,,,,,,,,,8,14,5,4,,,,,,,,,,,,,,,,,,,,,,,,,,,,,
659daa1ed4e13d6428103c1f,TCN,2024-06-24_17h33.35.110,LearnStrategy,2023.2.3,Win32,60.24096386,,,,,,,,,,,7,12,5,5,,,,,,,,,,,,,,,,,,,,,,,,,,,,,
659daa1ed4e13d6428103c1f,TCN,2024-06-24_17h33.35.110,LearnStrategy,2023.2.3,Win32,60.24096386,,,,,,,,,,,2,02,5,6,,,,,,,,,,,,,,,,,,,,,,,,,,,,,
659daa1ed4e13d6428103c1f,TCN,2024-06-24_17h33.35.110,LearnStrategy,2023.2.3,Win32,60.24096386,,,,,,,,,,,5,07,5,7,,,,,,,,,,,,,,,,,,,,,,,,,,,,,
659daa1ed4e13d6428103c1f,TCN,2024-06-24_17h33.35.110,LearnStrategy,2023.2.3,Win32,60.24096386,,,,,,,,,,,8,09,5,8,,,,,,,,,,,,,,,,,,,,,,,,,,,,,
659daa1ed4e13d6428103c1f,TCN,2024-06-24_17h33.35.110,LearnStrategy,2023.2.3,Win32,60.24096386,,,,,,,,,,,7,02,6,1,,,,,,,,,,,,,,,,,,,,,,,,,,,,,
659daa1ed4e13d6428103c1f,TCN,2024-06-24_17h33.35.110,LearnStrategy,2023.2.3,Win32,60.24096386,,,,,,,,,,,6,03,6,2,,,,,,,,,,,,,,,,,,,,,,,,,,,,,
659daa1ed4e13d6428103c1f,TCN,2024-06-24_17h33.35.110,LearnStrategy,2023.2.3,Win32,60.24096386,,,,,,,,,,,8,05,6,3,,,,,,,,,,,,,,,,,,,,,,,,,,,,,
659daa1ed4e13d6428103c1f,TCN,2024-06-24_17h33.35.110,LearnStrategy,2023.2.3,Win32,60.24096386,,,,,,,,,,,2,11,6,4,,,,,,,,,,,,,,,,,,,,,,,,,,,,,
659daa1ed4e13d6428103c1f,TCN,2024-06-24_17h33.35.110,LearnStrategy,2023.2.3,Win32,60.24096386,,,,,,,,,,,1,06,6,5,,,,,,,,,,,,,,,,,,,,,,,,,,,,,
659daa1ed4e13d6428103c1f,TCN,2024-06-24_17h33.35.110,LearnStrategy,2023.2.3,Win32,60.24096386,,,,,,,,,,,5,14,6,6,,,,,,,,,,,,,,,,,,,,,,,,,,,,,
659daa1ed4e13d6428103c1f,TCN,2024-06-24_17h33.35.110,LearnStrategy,2023.2.3,Win32,60.24096386,,,,,,,,,,,4,11,6,7,,,,,,,,,,,,,,,,,,,,,,,,,,,,,
659daa1ed4e13d6428103c1f,TCN,2024-06-24_17h33.35.110,LearnStrategy,2023.2.3,Win32,60.24096386,,,,,,,,,,,6,08,6,8,,,,,,,,,,,,,,,,,,,,,,,,,,,,,