participant,condition,date,expName,psychopyVersion,OS,frameRate,block,phase,trial,learn_mouse_2.x,learn_mouse_2.y,learn_mouse_2.leftButton,learn_mouse_2.midButton,learn_mouse_2.rightButton,learn_mouse_2.time,learn_mouse_2.clicked_name,cat,token,row,col,t_select,cat_mouse_l.x,cat_mouse_l.y,cat_mouse_l.leftButton,cat_mouse_l.midButton,cat_mouse_l.rightButton,cat_mouse_l.time,cat_mouse_l.clicked_name,resp,t_resp,corr,train_trials.thisRepN,train_trials.thisTrialN,train_trials.thisN,train_trials.thisIndex,train_trials.ran,cat_mouse_t.x,cat_mouse_t.y,cat_mouse_t.leftButton,cat_mouse_t.midButton,cat_mouse_t.rightButton,cat_mouse_t.time,cat_mouse_t.clicked_name,test_trials.thisRepN,test_trials.thisTrialN,test_trials.thisN,test_trials.thisIndex,test_trials.ran,Bonus
65a700a7fa22d5f150d08b09,TCR,2024-06-25_13h25.37.815,LearnStrategy,2023.2.3,MacIntel,60.24096386,,,,,,,,,,,,,,,,,,,,,,,,,,,,,,,,,,,,,,,,,,,
65a700a7fa22d5f150d08b09,TCR,2024-06-25_13h25.37.815,LearnStrategy,2023.2.3,MacIntel,60.24096386,1,1,1,0.013208119,-0.003313178,1,0,0,3.5996,rock_grid_rect_2,4,01,-1,-1,3.6,-0.069407285,-0.238753924,1,0,0,5.9076,Basalt_rect,2,5.908,0,0,0,0,0,1,,,,,,,,,,,,,
65a700a7fa22d5f150d08b09,TCR,2024-06-25_13h25.37.815,LearnStrategy,2023.2.3,MacIntel,60.24096386,1,1,2,-0.007335367,-0.007781286,1,0,0,0.977,rock_grid_rect_2,1,07,-1,-1,0.977,0.124545163,-0.267796625,1,0,0,2.9736,Diorite_rect,3,2.974,0,1,0,1,0,1,,,,,,,,,,,,,
65a700a7fa22d5f150d08b09,TCR,2024-06-25_13h25.37.815,LearnStrategy,2023.2.3,MacIntel,60.24096386,1,1,3,0.021207905,0.001685574,1,0,0,1.1811,rock_grid_rect_2,4,08,-1,-1,1.181,-0.371521832,-0.410388128,1,0,0,1.5867,Obsidian_rect,5,1.587,0,2,0,2,0,1,,,,,,,,,,,,,
65a700a7fa22d5f150d08b09,TCR,2024-06-25_13h25.37.815,LearnStrategy,2023.2.3,MacIntel,60.24096386,1,1,4,-0.033042594,-0.007478061,1,0,0,1.0457,rock_grid_rect_2,5,07,-1,-1,1.046,-0.103903574,-0.404319171,1,0,0,2.3252,Pegmatite_rect,6,2.325,0,3,0,3,0,1,,,,,,,,,,,,,
65a700a7fa22d5f150d08b09,TCR,2024-06-25_13h25.37.815,LearnStrategy,2023.2.3,MacIntel,60.24096386,1,1,5,0.051347567,-0.012904894,1,0,0,1.1065,rock_grid_rect_2,6,11,-1,-1,1.107,0.357662671,-0.392283818,1,0,0,1.6208,Pumice_rect,8,1.621,0,4,0,4,0,1,,,,,,,,,,,,,
65a700a7fa22d5f150d08b09,TCR,2024-06-25_13h25.37.815,LearnStrategy,2023.2.3,MacIntel,60.24096386,1,1,6,0.001311002,-0.009863727,1,0,0,0.8624,rock_grid_rect_2,2,10,-1,-1,0.862,0.092291845,-0.393835616,1,0,0,2.7921,Peridotite_rect,7,2.792,0,5,0,5,0,1,,,,,,,,,,,,,
65a700a7fa22d5f150d08b09,TCR,2024-06-25_13h25.37.815,LearnStrategy,2023.2.3,MacIntel,60.24096386,1,1,7,0.020592537,0.020217965,1,0,0,0.796,rock_grid_rect_2,2,16,-1,-1,0.796,0.130908426,-0.420118079,1,0,0,2.2823,Peridotite_rect,7,2.282,0,6,0,6,0,1,,,,,,,,,,,,,
65a700a7fa22d5f150d08b09,TCR,2024-06-25_13h25.37.815,LearnStrategy,2023.2.3,MacIntel,60.24096386,1,1,8,0.110342644,-0.009074451,1,0,0,0.7789,rock_grid_rect_2,8,05,-1,-1,0.779,0.076109446,-0.4017373,1,0,0,2.5573,Peridotite_rect,7,2.557,0,7,0,7,0,1,,,,,,,,,,,,,
65a700a7fa22d5f150d08b09,TCR,2024-06-25_13h25.37.815,LearnStrategy,2023.2.3,MacIntel,60.24096386,1,1,9,0.053684182,-0.008106807,1,0,0,1.0949,rock_grid_rect_2,7,07,-1,-1,1.095,0.33346265,-0.259480237,1,0,0,1.7827,Gabbro_rect,4,1.783,0,8,0,8,0,1,,,,,,,,,,,,,
65a700a7fa22d5f150d08b09,TCR,2024-06-25_13h25.37.815,LearnStrategy,2023.2.3,MacIntel,60.24096386,1,1,10,0.036779395,-0.013783355,1,0,0,0.9016,rock_grid_rect_2,3,06,-1,-1,0.902,-0.337961972,-0.243150685,1,0,0,3.8107,Andesite_rect,1,3.811,0,9,0,9,0,1,,,,,,,,,,,,,
65a700a7fa22d5f150d08b09,TCR,2024-06-25_13h25.37.815,LearnStrategy,2023.2.3,MacIntel,60.24096386,1,1,11,0.092398866,-0.009502533,1,0,0,0.9905,rock_grid_rect_2,7,13,-1,-1,0.99,0.153659211,-0.412425977,1,0,0,2.5399,Peridotite_rect,7,2.54,1,10,0,10,0,1,,,,,,,,,,,,,
65a700a7fa22d5f150d08b09,TCR,2024-06-25_13h25.37.815,LearnStrategy,2023.2.3,MacIntel,60.24096386,1,1,12,0.119341289,-0.004829302,1,0,0,0.8538,rock_grid_rect_2,3,14,-1,-1,0.854,-0.198197596,-0.414874072,1,0,0,2.3313,Pegmatite_rect,6,2.331,0,11,0,11,0,1,,,,,,,,,,,,,
65a700a7fa22d5f150d08b09,TCR,2024-06-25_13h25.37.815,LearnStrategy,2023.2.3,MacIntel,60.24096386,1,1,13,-0.018447667,0.014318457,1,0,0,0.8692,rock_grid_rect_2,1,10,-1,-1,0.869,-0.085620898,-0.260965147,1,0,0,5.3008,Basalt_rect,2,5.301,0,12,0,12,0,1,,,,,,,,,,,,,
65a700a7fa22d5f150d08b09,TCR,2024-06-25_13h25.37.815,LearnStrategy,2023.2.3,MacIntel,60.24096386,1,1,14,0.01243668,0.000115939,1,0,0,0.796,rock_grid_rect_2,5,10,-1,-1,0.796,-0.41791524,-0.417536209,1,0,0,1.0106,Obsidian_rect,5,1.011,1,13,0,13,0,1,,,,,,,,,,,,,
65a700a7fa22d5f150d08b09,TCR,2024-06-25_13h25.37.815,LearnStrategy,2023.2.3,MacIntel,60.24096386,1,1,15,0.002479309,0.000646582,1,0,0,0.9675,rock_grid_rect_2,8,03,-1,-1,0.967,0.315398473,-0.398027255,1,0,0,1.8055,Pumice_rect,8,1.805,1,14,0,14,0,1,,,,,,,,,,,,,
65a700a7fa22d5f150d08b09,TCR,2024-06-25_13h25.37.815,LearnStrategy,2023.2.3,MacIntel,60.24096386,1,1,16,0.126525043,-0.016490083,1,0,0,0.8118,rock_grid_rect_2,6,07,-1,-1,0.812,0.35200396,-0.254044485,1,0,0,18.7034,Gabbro_rect,4,18.703,0,15,0,15,0,1,,,,,,,,,,,,,
65a700a7fa22d5f150d08b09,TCR,2024-06-25_13h25.37.815,LearnStrategy,2023.2.3,MacIntel,60.24096386,1,2,1,,,,,,,,6,05,,,,,,,,,,,6,4.976,1,,,,,,-0.181868044,-0.401228953,1,0,0,4.9755,Pegmatite_rect,0,0,0,0,1,
65a700a7fa22d5f150d08b09,TCR,2024-06-25_13h25.37.815,LearnStrategy,2023.2.3,MacIntel,60.24096386,1,2,2,,,,,,,,2,12,,,,,,,,,,,8,3.896,0,,,,,,0.405264519,-0.389189141,1,0,0,3.896,Pumice_rect,1,0,1,0,1,
65a700a7fa22d5f150d08b09,TCR,2024-06-25_13h25.37.815,LearnStrategy,2023.2.3,MacIntel,60.24096386,1,2,3,,,,,,,,1,03,,,,,,,,,,,2,2.1,0,,,,,,-0.173921768,-0.261232698,1,0,0,2.1002,Basalt_rect,2,0,2,0,1,
65a700a7fa22d5f150d08b09,TCR,2024-06-25_13h25.37.815,LearnStrategy,2023.2.3,MacIntel,60.24096386,1,2,4,,,,,,,,8,04,,,,,,,,,,,8,1.177,1,,,,,,0.330898616,-0.400997075,1,0,0,1.1766,Pumice_rect,3,0,3,0,1,
65a700a7fa22d5f150d08b09,TCR,2024-06-25_13h25.37.815,LearnStrategy,2023.2.3,MacIntel,60.24096386,1,2,5,,,,,,,,6,15,,,,,,,,,,,4,1.558,0,,,,,,0.344401042,-0.256425692,1,0,0,1.5579,Gabbro_rect,4,0,4,0,1,
65a700a7fa22d5f150d08b09,TCR,2024-06-25_13h25.37.815,LearnStrategy,2023.2.3,MacIntel,60.24096386,1,2,6,,,,,,,,7,12,,,,,,,,,,,7,2.213,1,,,,,,0.105499964,-0.386892658,1,0,0,2.2126,Peridotite_rect,5,0,5,0,1,
65a700a7fa22d5f150d08b09,TCR,2024-06-25_13h25.37.815,LearnStrategy,2023.2.3,MacIntel,60.24096386,1,2,7,,,,,,,,5,02,,,,,,,,,,,5,1.895,1,,,,,,-0.363151934,-0.402999251,1,0,0,1.895,Obsidian_rect,6,0,6,0,1,
65a700a7fa22d5f150d08b09,TCR,2024-06-25_13h25.37.815,LearnStrategy,2023.2.3,MacIntel,60.24096386,1,2,8,,,,,,,,7,04,,,,,,,,,,,1,2.011,0,,,,,,-0.367000214,-0.246289954,1,0,0,2.0109,Andesite_rect,7,0,7,0,1,
65a700a7fa22d5f150d08b09,TCR,2024-06-25_13h25.37.815,LearnStrategy,2023.2.3,MacIntel,60.24096386,1,2,9,,,,,,,,4,10,,,,,,,,,,,3,2.352,0,,,,,,0.074642373,-0.270324986,1,0,0,2.3516,Diorite_rect,8,0,8,0,1,
65a700a7fa22d5f150d08b09,TCR,2024-06-25_13h25.37.815,LearnStrategy,2023.2.3,MacIntel,60.24096386,1,2,10,,,,,,,,2,01,,,,,,,,,,,2,2.567,1,,,,,,-0.09479791,-0.262552618,1,0,0,2.5672,Basalt_rect,9,0,9,0,1,
65a700a7fa22d5f150d08b09,TCR,2024-06-25_13h25.37.815,LearnStrategy,2023.2.3,MacIntel,60.24096386,1,2,11,,,,,,,,3,13,,,,,,,,,,,7,1.948,0,,,,,,0.143563606,-0.416969892,1,0,0,1.9482,Peridotite_rect,10,0,10,0,1,
65a700a7fa22d5f150d08b09,TCR,2024-06-25_13h25.37.815,LearnStrategy,2023.2.3,MacIntel,60.24096386,1,2,12,,,,,,,,4,03,,,,,,,,,,,4,1.741,1,,,,,,0.35282891,-0.250651042,1,0,0,1.7412,Gabbro_rect,11,0,11,0,1,
65a700a7fa22d5f150d08b09,TCR,2024-06-25_13h25.37.815,LearnStrategy,2023.2.3,MacIntel,60.24096386,1,2,13,,,,,,,,5,05,,,,,,,,,,,5,1.535,1,,,,,,-0.385019799,-0.390723102,1,0,0,1.5351,Obsidian_rect,12,0,12,0,1,
65a700a7fa22d5f150d08b09,TCR,2024-06-25_13h25.37.815,LearnStrategy,2023.2.3,MacIntel,60.24096386,1,2,14,,,,,,,,3,08,,,,,,,,,,,7,2.972,0,,,,,,0.142787707,-0.406682541,1,0,0,2.972,Peridotite_rect,13,0,13,0,1,
65a700a7fa22d5f150d08b09,TCR,2024-06-25_13h25.37.815,LearnStrategy,2023.2.3,MacIntel,60.24096386,1,2,15,,,,,,,,1,11,,,,,,,,,,,2,2.36,0,,,,,,-0.131345427,-0.250753603,1,0,0,2.3596,Basalt_rect,14,0,14,0,1,
65a700a7fa22d5f150d08b09,TCR,2024-06-25_13h25.37.815,LearnStrategy,2023.2.3,MacIntel,60.24096386,1,2,16,,,,,,,,8,02,,,,,,,,,,,8,0.973,1,,,,,,0.403547731,-0.393068636,1,0,0,0.9732,Pumice_rect,15,0,15,0,1,
65a700a7fa22d5f150d08b09,TCR,2024-06-25_13h25.37.815,LearnStrategy,2023.2.3,MacIntel,60.24096386,2,1,1,0.03972246,0.016570348,1,0,0,1.9931,rock_grid_rect_2,2,11,-1,-1,1.993,0.34836972,-0.408029217,1,0,0,6.2267,Pumice_rect,8,6.227,0,0,0,0,0,1,,,,,,,,,,,,,
65a700a7fa22d5f150d08b09,TCR,2024-06-25_13h25.37.815,LearnStrategy,2023.2.3,MacIntel,60.24096386,2,1,2,-0.02750874,-0.007830337,1,0,0,5.2229,rock_grid_rect_2,7,15,-1,-1,5.223,0.138341895,-0.384284033,1,0,0,8.0442,Peridotite_rect,7,8.044,1,1,0,1,0,1,,,,,,,,,,,,,
65a700a7fa22d5f150d08b09,TCR,2024-06-25_13h25.37.815,LearnStrategy,2023.2.3,MacIntel,60.24096386,2,1,3,0.024396226,0.0063811,1,0,0,1.0472,rock_grid_rect_2,6,07,-1,-1,1.047,0.35200396,-0.251181685,1,0,0,3.8482,Gabbro_rect,4,3.848,0,2,0,2,0,1,,,,,,,,,,,,,
65a700a7fa22d5f150d08b09,TCR,2024-06-25_13h25.37.815,LearnStrategy,2023.2.3,MacIntel,60.24096386,2,1,4,0.041024543,-0.004891731,1,0,0,0.9073,rock_grid_rect_2,4,12,-1,-1,0.907,-0.160446097,-0.25555615,1,0,0,1.9529,Basalt_rect,2,1.953,0,3,0,3,0,1,,,,,,,,,,,,,
65a700a7fa22d5f150d08b09,TCR,2024-06-25_13h25.37.815,LearnStrategy,2023.2.3,MacIntel,60.24096386,2,1,5,0.00159639,0.001056828,1,0,0,0.8374,rock_grid_rect_2,3,02,-1,-1,0.837,-0.377911851,-0.249750285,1,0,0,1.6474,Andesite_rect,1,1.647,0,4,0,4,0,1,,,,,,,,,,,,,
65a700a7fa22d5f150d08b09,TCR,2024-06-25_13h25.37.815,LearnStrategy,2023.2.3,MacIntel,60.24096386,2,1,6,0.015259346,-0.003406821,1,0,0,0.8874,rock_grid_rect_2,1,10,-1,-1,0.887,-0.095845819,-0.38231753,1,0,0,2.4334,Pegmatite_rect,6,2.433,0,5,0,5,0,1,,,,,,,,,,,,,
65a700a7fa22d5f150d08b09,TCR,2024-06-25_13h25.37.815,LearnStrategy,2023.2.3,MacIntel,60.24096386,2,1,7,0.067418486,0.024686073,1,0,0,0.9107,rock_grid_rect_2,3,06,-1,-1,0.911,0.131827019,-0.258231664,1,0,0,1.8692,Diorite_rect,3,1.869,1,6,0,6,0,1,,,,,,,,,,,,,
65a700a7fa22d5f150d08b09,TCR,2024-06-25_13h25.37.815,LearnStrategy,2023.2.3,MacIntel,60.24096386,2,1,8,0.045216182,8.02654E-05,1,0,0,0.7964,rock_grid_rect_2,4,15,-1,-1,0.796,0.047722246,-0.388471211,1,0,0,1.8092,Peridotite_rect,7,1.809,0,7,0,7,0,1,,,,,,,,,,,,,
65a700a7fa22d5f150d08b09,TCR,2024-06-25_13h25.37.815,LearnStrategy,2023.2.3,MacIntel,60.24096386,2,1,9,0.107203375,-0.006688784,1,0,0,0.9809,rock_grid_rect_2,8,03,-1,-1,0.981,0.38215254,-0.39134293,1,0,0,1.5722,Pumice_rect,8,1.572,1,8,0,8,0,1,,,,,,,,,,,,,
65a700a7fa22d5f150d08b09,TCR,2024-06-25_13h25.37.815,LearnStrategy,2023.2.3,MacIntel,60.24096386,2,1,10,0.019223566,-0.010367616,1,0,0,1.1045,rock_grid_rect_2,6,09,-1,-1,1.104,0.087239583,-0.408024757,1,0,0,4.0696,Peridotite_rect,7,4.07,0,9,0,9,0,1,,,,,,,,,,,,,
65a700a7fa22d5f150d08b09,TCR,2024-06-25_13h25.37.815,LearnStrategy,2023.2.3,MacIntel,60.24096386,2,1,11,0.147799836,0.009984125,1,0,0,0.7028,rock_grid_rect_2,1,01,-1,-1,0.703,-0.066477597,-0.254352169,1,0,0,3.4096,Basalt_rect,2,3.41,0,10,0,10,0,1,,,,,,,,,,,,,
65a700a7fa22d5f150d08b09,TCR,2024-06-25_13h25.37.815,LearnStrategy,2023.2.3,MacIntel,60.24096386,2,1,12,0.045309824,-0.003527219,1,0,0,1.1315,rock_grid_rect_2,1,07,-1,-1,1.131,0.157552083,-0.249750285,1,0,0,3.3382,Diorite_rect,3,3.338,0,11,0,11,0,1,,,,,,,,,,,,,
65a700a7fa22d5f150d08b09,TCR,2024-06-25_13h25.37.815,LearnStrategy,2023.2.3,MacIntel,60.24096386,2,1,13,0.008784603,-0.020935895,1,0,0,0.7439,rock_grid_rect_2,2,11,-1,-1,0.744,0.390932684,-0.263787814,1,0,0,1.5969,Gabbro_rect,4,1.597,0,12,0,12,0,1,,,,,,,,,,,,,
65a700a7fa22d5f150d08b09,TCR,2024-06-25_13h25.37.815,LearnStrategy,2023.2.3,MacIntel,60.24096386,2,1,14,0.080666738,-0.009935074,1,0,0,0.7995,rock_grid_rect_2,3,14,-1,-1,0.799,0.162537457,-0.240033711,1,0,0,4.017,Diorite_rect,3,4.017,1,13,0,13,0,1,,,,,,,,,,,,,
65a700a7fa22d5f150d08b09,TCR,2024-06-25_13h25.37.815,LearnStrategy,2023.2.3,MacIntel,60.24096386,2,1,15,0.01331514,-3.56735E-05,1,0,0,0.7357,rock_grid_rect_2,1,05,-1,-1,0.736,-0.12907124,-0.254829302,1,0,0,1.6571,Basalt_rect,2,1.657,0,14,0,14,0,1,,,,,,,,,,,,,
65a700a7fa22d5f150d08b09,TCR,2024-06-25_13h25.37.815,LearnStrategy,2023.2.3,MacIntel,60.24096386,2,1,16,0.028824201,-0.014483447,1,0,0,1.0427,rock_grid_rect_2,7,13,-1,-1,1.043,0.084180579,-0.38716021,1,0,0,1.3565,Peridotite_rect,7,1.357,1,15,0,15,0,1,,,,,,,,,,,,,
65a700a7fa22d5f150d08b09,TCR,2024-06-25_13h25.37.815,LearnStrategy,2023.2.3,MacIntel,60.24096386,2,2,1,,,,,,,,1,09,,,,,,,,,,,4,2.603,0,,,,,,0.344771154,-0.248586437,1,0,0,2.6032,Gabbro_rect,0,0,0,0,1,
65a700a7fa22d5f150d08b09,TCR,2024-06-25_13h25.37.815,LearnStrategy,2023.2.3,MacIntel,60.24096386,2,2,2,,,,,,,,3,12,,,,,,,,,,,3,4.444,1,,,,,,0.090329802,-0.268006207,1,0,0,4.4444,Diorite_rect,1,0,1,0,1,
65a700a7fa22d5f150d08b09,TCR,2024-06-25_13h25.37.815,LearnStrategy,2023.2.3,MacIntel,60.24096386,2,2,3,,,,,,,,5,12,,,,,,,,,,,5,0.993,1,,,,,,-0.383035459,-0.404617937,1,0,0,0.9935,Obsidian_rect,2,0,2,0,1,
65a700a7fa22d5f150d08b09,TCR,2024-06-25_13h25.37.815,LearnStrategy,2023.2.3,MacIntel,60.24096386,2,2,4,,,,,,,,4,16,,,,,,,,,,,1,3.233,0,,,,,,-0.375017837,-0.231356129,1,0,0,3.2328,Andesite_rect,3,0,3,0,1,
65a700a7fa22d5f150d08b09,TCR,2024-06-25_13h25.37.815,LearnStrategy,2023.2.3,MacIntel,60.24096386,2,2,5,,,,,,,,8,13,,,,,,,,,,,8,1.057,1,,,,,,0.37461651,-0.418887343,1,0,0,1.0571,Pumice_rect,4,0,4,0,1,
65a700a7fa22d5f150d08b09,TCR,2024-06-25_13h25.37.815,LearnStrategy,2023.2.3,MacIntel,60.24096386,2,2,6,,,,,,,,2,02,,,,,,,,,,,2,1.622,1,,,,,,-0.134141338,-0.251279787,1,0,0,1.6221,Basalt_rect,5,0,5,0,1,
65a700a7fa22d5f150d08b09,TCR,2024-06-25_13h25.37.815,LearnStrategy,2023.2.3,MacIntel,60.24096386,2,2,7,,,,,,,,6,10,,,,,,,,,,,7,1.307,0,,,,,,0.098053118,-0.397041774,1,0,0,1.3067,Peridotite_rect,6,0,6,0,1,
65a700a7fa22d5f150d08b09,TCR,2024-06-25_13h25.37.815,LearnStrategy,2023.2.3,MacIntel,60.24096386,2,2,8,,,,,,,,7,05,,,,,,,,,,,4,5.512,0,,,,,,0.322212115,-0.250914134,1,0,0,5.5115,Gabbro_rect,7,0,7,0,1,
65a700a7fa22d5f150d08b09,TCR,2024-06-25_13h25.37.815,LearnStrategy,2023.2.3,MacIntel,60.24096386,2,2,9,,,,,,,,4,09,,,,,,,,,,,5,1.385,0,,,,,,-0.330613228,-0.380079017,1,0,0,1.3851,Obsidian_rect,8,0,8,0,1,
65a700a7fa22d5f150d08b09,TCR,2024-06-25_13h25.37.815,LearnStrategy,2023.2.3,MacIntel,60.24096386,2,2,10,,,,,,,,7,06,,,,,,,,,,,7,1.128,1,,,,,,0.150827626,-0.39639965,1,0,0,1.1279,Peridotite_rect,9,0,9,0,1,
65a700a7fa22d5f150d08b09,TCR,2024-06-25_13h25.37.815,LearnStrategy,2023.2.3,MacIntel,60.24096386,2,2,11,,,,,,,,6,13,,,,,,,,,,,6,2.334,1,,,,,,-0.125267551,-0.393804402,1,0,0,2.3344,Pegmatite_rect,10,0,10,0,1,
65a700a7fa22d5f150d08b09,TCR,2024-06-25_13h25.37.815,LearnStrategy,2023.2.3,MacIntel,60.24096386,2,2,12,,,,,,,,5,11,,,,,,,,,,,5,1.106,1,,,,,,-0.370768229,-0.402036066,1,0,0,1.1056,Obsidian_rect,11,0,11,0,1,
65a700a7fa22d5f150d08b09,TCR,2024-06-25_13h25.37.815,LearnStrategy,2023.2.3,MacIntel,60.24096386,2,2,13,,,,,,,,2,04,,,,,,,,,,,4,1.202,0,,,,,,0.373211865,-0.232689426,1,0,0,1.2016,Gabbro_rect,12,0,12,0,1,
65a700a7fa22d5f150d08b09,TCR,2024-06-25_13h25.37.815,LearnStrategy,2023.2.3,MacIntel,60.24096386,2,2,14,,,,,,,,3,15,,,,,,,,,,,1,1.533,0,,,,,,-0.351954909,-0.245737015,1,0,0,1.5332,Andesite_rect,13,0,13,0,1,
65a700a7fa22d5f150d08b09,TCR,2024-06-25_13h25.37.815,LearnStrategy,2023.2.3,MacIntel,60.24096386,2,2,15,,,,,,,,8,10,,,,,,,,,,,8,1.361,1,,,,,,0.412818386,-0.393456585,1,0,0,1.3614,Pumice_rect,14,0,14,0,1,
65a700a7fa22d5f150d08b09,TCR,2024-06-25_13h25.37.815,LearnStrategy,2023.2.3,MacIntel,60.24096386,2,2,16,,,,,,,,1,02,,,,,,,,,,,8,1.011,0,,,,,,0.42292291,-0.39656464,1,0,0,1.0108,Pumice_rect,15,0,15,0,1,
65a700a7fa22d5f150d08b09,TCR,2024-06-25_13h25.37.815,LearnStrategy,2023.2.3,MacIntel,60.24096386,3,1,1,0.100469999,0.0078125,1,0,0,6.7853,rock_grid_rect_2,2,11,-1,-1,6.785,0.372788242,-0.3904065,1,0,0,3.6014,Pumice_rect,8,3.601,0,0,0,0,0,1,,,,,,,,,,,,,
65a700a7fa22d5f150d08b09,TCR,2024-06-25_13h25.37.815,LearnStrategy,2023.2.3,MacIntel,60.24096386,3,1,2,0.044319884,0.019410852,1,0,0,0.9037,rock_grid_rect_2,1,01,-1,-1,0.904,0.35981646,-0.249420305,1,0,0,1.7178,Gabbro_rect,4,1.718,0,1,0,1,0,1,,,,,,,,,,,,,
65a700a7fa22d5f150d08b09,TCR,2024-06-25_13h25.37.815,LearnStrategy,2023.2.3,MacIntel,60.24096386,3,1,3,0.012115618,-0.012735445,1,0,0,0.8438,rock_grid_rect_2,3,06,-1,-1,0.844,0.159995719,-0.260514769,1,0,0,2.7435,Diorite_rect,3,2.743,1,2,0,2,0,1,,,,,,,,,,,,,
65a700a7fa22d5f150d08b09,TCR,2024-06-25_13h25.37.815,LearnStrategy,2023.2.3,MacIntel,60.24096386,3,1,4,0.045947489,-0.021288171,1,0,0,0.867,rock_grid_rect_2,1,07,-1,-1,0.867,0.375236337,-0.251337757,1,0,0,2.0049,Gabbro_rect,4,2.005,0,3,0,3,0,1,,,,,,,,,,,,,
65a700a7fa22d5f150d08b09,TCR,2024-06-25_13h25.37.815,LearnStrategy,2023.2.3,MacIntel,60.24096386,3,1,5,0.040921982,0.003415739,1,0,0,1.0673,rock_grid_rect_2,4,08,-1,-1,1.067,-0.111680401,-0.24614726,1,0,0,3.7392,Basalt_rect,2,3.739,0,4,0,4,0,1,,,,,,,,,,,,,
65a700a7fa22d5f150d08b09,TCR,2024-06-25_13h25.37.815,LearnStrategy,2023.2.3,MacIntel,60.24096386,3,1,6,-0.00737104,-0.006706621,1,0,0,1.0212,rock_grid_rect_2,1,04,-1,-1,1.021,-0.092581692,-0.401550014,1,0,0,2.3516,Pegmatite_rect,6,2.352,0,5,0,5,0,1,,,,,,,,,,,,,
65a700a7fa22d5f150d08b09,TCR,2024-06-25_13h25.37.815,LearnStrategy,2023.2.3,MacIntel,60.24096386,3,1,7,-0.004254067,-0.006568386,1,0,0,0.9648,rock_grid_rect_2,7,07,-1,-1,0.965,0.103814391,-0.383539348,1,0,0,1.8184,Peridotite_rect,7,1.818,1,6,0,6,0,1,,,,,,,,,,,,,
65a700a7fa22d5f150d08b09,TCR,2024-06-25_13h25.37.815,LearnStrategy,2023.2.3,MacIntel,60.24096386,3,1,8,0.052471283,0.004985374,1,0,0,1.0394,rock_grid_rect_2,4,08,-1,-1,1.039,-0.324593322,-0.391530215,1,0,0,1.3438,Obsidian_rect,5,1.344,0,7,0,7,0,1,,,,,,,,,,,,,
65a700a7fa22d5f150d08b09,TCR,2024-06-25_13h25.37.815,LearnStrategy,2023.2.3,MacIntel,60.24096386,3,1,9,0.121227526,0.014862479,1,0,0,0.8286,rock_grid_rect_2,2,16,-1,-1,0.829,-0.338751249,-0.24714166,1,0,0,1.2598,Andesite_rect,1,1.26,0,8,0,8,0,1,,,,,,,,,,,,,
65a700a7fa22d5f150d08b09,TCR,2024-06-25_13h25.37.815,LearnStrategy,2023.2.3,MacIntel,60.24096386,3,1,10,0.022902397,0.000463756,1,0,0,0.7528,rock_grid_rect_2,6,09,-1,-1,0.753,0.109450806,-0.379463649,1,0,0,1.1829,Peridotite_rect,7,1.183,0,9,0,9,0,1,,,,,,,,,,,,,
65a700a7fa22d5f150d08b09,TCR,2024-06-25_13h25.37.815,LearnStrategy,2023.2.3,MacIntel,60.24096386,3,1,11,0.023687215,-0.013560395,1,0,0,0.9477,rock_grid_rect_2,8,03,-1,-1,0.948,0.434548017,-0.406459582,1,0,0,0.8346,Pumice_rect,8,0.835,1,10,0,10,0,1,,,,,,,,,,,,,
65a700a7fa22d5f150d08b09,TCR,2024-06-25_13h25.37.815,LearnStrategy,2023.2.3,MacIntel,60.24096386,3,1,12,-0.010318564,-0.00418272,1,0,0,0.7332,rock_grid_rect_2,6,03,-1,-1,0.733,0.103011737,-0.400016053,1,0,0,2.9272,Peridotite_rect,7,2.927,0,11,0,11,0,1,,,,,,,,,,,,,
65a700a7fa22d5f150d08b09,TCR,2024-06-25_13h25.37.815,LearnStrategy,2023.2.3,MacIntel,60.24096386,3,1,13,0.014933826,0.004534996,1,0,0,0.8271,rock_grid_rect_2,7,16,-1,-1,0.827,-0.135135738,-0.383160317,1,0,0,1.5031,Pegmatite_rect,6,1.503,0,12,0,12,0,1,,,,,,,,,,,,,
65a700a7fa22d5f150d08b09,TCR,2024-06-25_13h25.37.815,LearnStrategy,2023.2.3,MacIntel,60.24096386,3,1,14,0.065460902,-0.011281749,1,0,0,0.8021,rock_grid_rect_2,4,05,-1,-1,0.802,0.180213684,-0.251899615,1,0,0,2.1257,Diorite_rect,3,2.126,0,13,0,13,0,1,,,,,,,,,,,,,
65a700a7fa22d5f150d08b09,TCR,2024-06-25_13h25.37.815,LearnStrategy,2023.2.3,MacIntel,60.24096386,3,1,15,0.054553724,-0.015839041,1,0,0,0.7124,rock_grid_rect_2,1,10,-1,-1,0.712,-0.054696418,-0.243378104,1,0,0,1.5081,Basalt_rect,2,1.508,0,14,0,14,0,1,,,,,,,,,,,,,
65a700a7fa22d5f150d08b09,TCR,2024-06-25_13h25.37.815,LearnStrategy,2023.2.3,MacIntel,60.24096386,3,1,16,-0.050500321,-0.013743222,1,0,0,0.9214,rock_grid_rect_2,3,14,-1,-1,0.921,0.118181899,-0.257072275,1,0,0,1.839,Diorite_rect,3,1.839,1,15,0,15,0,1,,,,,,,,,,,,,
65a700a7fa22d5f150d08b09,TCR,2024-06-25_13h25.37.815,LearnStrategy,2023.2.3,MacIntel,60.24096386,3,2,1,,,,,,,,6,12,,,,,,,,,,,3,1.591,0,,,,,,0.193087364,-0.258922838,1,0,0,1.5908,Diorite_rect,0,0,0,0,1,
65a700a7fa22d5f150d08b09,TCR,2024-06-25_13h25.37.815,LearnStrategy,2023.2.3,MacIntel,60.24096386,3,2,2,,,,,,,,4,11,,,,,,,,,,,4,2.158,1,,,,,,0.414481664,-0.233835438,1,0,0,2.1579,Gabbro_rect,1,0,1,0,1,
65a700a7fa22d5f150d08b09,TCR,2024-06-25_13h25.37.815,LearnStrategy,2023.2.3,MacIntel,60.24096386,3,2,3,,,,,,,,7,14,,,,,,,,,,,6,4.518,0,,,,,,-0.146497753,-0.410075985,1,0,0,4.5183,Pegmatite_rect,2,0,2,0,1,
65a700a7fa22d5f150d08b09,TCR,2024-06-25_13h25.37.815,LearnStrategy,2023.2.3,MacIntel,60.24096386,3,2,4,,,,,,,,1,16,,,,,,,,,,,4,1.28,0,,,,,,0.319335938,-0.260666381,1,0,0,1.28,Gabbro_rect,3,0,3,0,1,
65a700a7fa22d5f150d08b09,TCR,2024-06-25_13h25.37.815,LearnStrategy,2023.2.3,MacIntel,60.24096386,3,2,5,,,,,,,,3,07,,,,,,,,,,,3,1.701,1,,,,,,0.121075913,-0.24719517,1,0,0,1.7008,Diorite_rect,4,0,4,0,1,
65a700a7fa22d5f150d08b09,TCR,2024-06-25_13h25.37.815,LearnStrategy,2023.2.3,MacIntel,60.24096386,3,2,6,,,,,,,,5,09,,,,,,,,,,,5,0.984,1,,,,,,-0.375610909,-0.380895049,1,0,0,0.9839,Obsidian_rect,5,0,5,0,1,
65a700a7fa22d5f150d08b09,TCR,2024-06-25_13h25.37.815,LearnStrategy,2023.2.3,MacIntel,60.24096386,3,2,7,,,,,,,,4,14,,,,,,,,,,,1,1.961,0,,,,,,-0.386098923,-0.256282998,1,0,0,1.961,Andesite_rect,6,0,6,0,1,
65a700a7fa22d5f150d08b09,TCR,2024-06-25_13h25.37.815,LearnStrategy,2023.2.3,MacIntel,60.24096386,3,2,8,,,,,,,,3,09,,,,,,,,,,,3,1.056,1,,,,,,0.105829944,-0.258218286,1,0,0,1.0558,Diorite_rect,7,0,7,0,1,
65a700a7fa22d5f150d08b09,TCR,2024-06-25_13h25.37.815,LearnStrategy,2023.2.3,MacIntel,60.24096386,3,2,9,,,,,,,,1,14,,,,,,,,,,,2,1.326,0,,,,,,-0.131122467,-0.239904395,1,0,0,1.3256,Basalt_rect,8,0,8,0,1,
65a700a7fa22d5f150d08b09,TCR,2024-06-25_13h25.37.815,LearnStrategy,2023.2.3,MacIntel,60.24096386,3,2,10,,,,,,,,8,14,,,,,,,,,,,8,1.11,1,,,,,,0.381037743,-0.406825235,1,0,0,1.1103,Pumice_rect,9,0,9,0,1,
65a700a7fa22d5f150d08b09,TCR,2024-06-25_13h25.37.815,LearnStrategy,2023.2.3,MacIntel,60.24096386,3,2,11,,,,,,,,5,14,,,,,,,,,,,5,1.01,1,,,,,,-0.455684575,-0.398459796,1,0,0,1.0101,Obsidian_rect,10,0,10,0,1,
65a700a7fa22d5f150d08b09,TCR,2024-06-25_13h25.37.815,LearnStrategy,2023.2.3,MacIntel,60.24096386,3,2,12,,,,,,,,8,16,,,,,,,,,,,8,1.17,1,,,,,,0.33659746,-0.403208833,1,0,0,1.1697,Pumice_rect,11,0,11,0,1,
65a700a7fa22d5f150d08b09,TCR,2024-06-25_13h25.37.815,LearnStrategy,2023.2.3,MacIntel,60.24096386,3,2,13,,,,,,,,6,16,,,,,,,,,,,3,2.48,0,,,,,,0.12730986,-0.26716342,1,0,0,2.4796,Diorite_rect,12,0,12,0,1,
65a700a7fa22d5f150d08b09,TCR,2024-06-25_13h25.37.815,LearnStrategy,2023.2.3,MacIntel,60.24096386,3,2,14,,,,,,,,2,05,,,,,,,,,,,4,1.055,0,,,,,,0.447729381,-0.252305401,1,0,0,1.0555,Gabbro_rect,13,0,13,0,1,
65a700a7fa22d5f150d08b09,TCR,2024-06-25_13h25.37.815,LearnStrategy,2023.2.3,MacIntel,60.24096386,3,2,15,,,,,,,,7,08,,,,,,,,,,,7,1.888,1,,,,,,0.030826377,-0.397260274,1,0,0,1.8882,Peridotite_rect,14,0,14,0,1,
65a700a7fa22d5f150d08b09,TCR,2024-06-25_13h25.37.815,LearnStrategy,2023.2.3,MacIntel,60.24096386,3,2,16,,,,,,,,2,14,,,,,,,,,,,4,1.84,0,,,,,,0.390932684,-0.268064177,1,0,0,1.84,Gabbro_rect,15,0,15,0,1,
65a700a7fa22d5f150d08b09,TCR,2024-06-25_13h25.37.815,LearnStrategy,2023.2.3,MacIntel,60.24096386,4,1,1,-0.013622824,0.009359839,1,0,0,7.0888,rock_grid_rect_2,4,15,-1,-1,7.089,0.347357484,-0.233014947,1,0,0,1.6524,Gabbro_rect,4,1.652,1,0,0,0,0,1,,,,,,,,,,,,,
65a700a7fa22d5f150d08b09,TCR,2024-06-25_13h25.37.815,LearnStrategy,2023.2.3,MacIntel,60.24096386,4,1,2,0.081068065,0.000156072,1,0,0,0.7767,rock_grid_rect_2,6,11,-1,-1,0.777,-0.395316067,-0.259743329,1,0,0,2.979,Andesite_rect,1,2.979,0,1,0,1,0,1,,,,,,,,,,,,,
65a700a7fa22d5f150d08b09,TCR,2024-06-25_13h25.37.815,LearnStrategy,2023.2.3,MacIntel,60.24096386,4,1,3,0.027308076,-0.01831835,1,0,0,0.7888,rock_grid_rect_2,1,10,-1,-1,0.789,-0.106601384,-0.232056221,1,0,0,1.3471,Basalt_rect,2,1.347,0,2,0,2,0,1,,,,,,,,,,,,,
65a700a7fa22d5f150d08b09,TCR,2024-06-25_13h25.37.815,LearnStrategy,2023.2.3,MacIntel,60.24096386,4,1,4,0.069005957,-0.01216021,1,0,0,0.6747,rock_grid_rect_2,4,08,-1,-1,0.675,0.360873288,-0.258900542,1,0,0,1.7987,Gabbro_rect,4,1.799,1,3,0,3,0,1,,,,,,,,,,,,,
65a700a7fa22d5f150d08b09,TCR,2024-06-25_13h25.37.815,LearnStrategy,2023.2.3,MacIntel,60.24096386,4,1,5,0.025827626,-0.021751926,1,0,0,0.7809,rock_grid_rect_2,7,07,-1,-1,0.781,0.115140732,-0.406272296,1,0,0,2.3037,Peridotite_rect,7,2.304,1,4,0,4,0,1,,,,,,,,,,,,,
65a700a7fa22d5f150d08b09,TCR,2024-06-25_13h25.37.815,LearnStrategy,2023.2.3,MacIntel,60.24096386,4,1,6,0.039588684,-0.019040739,1,0,0,0.8639,rock_grid_rect_2,3,10,-1,-1,0.864,0.147015019,-0.241344713,1,0,0,1.4076,Diorite_rect,3,1.408,1,5,0,5,0,1,,,,,,,,,,,,,
65a700a7fa22d5f150d08b09,TCR,2024-06-25_13h25.37.815,LearnStrategy,2023.2.3,MacIntel,60.24096386,4,1,7,0.030451805,-0.006006528,1,0,0,0.7106,rock_grid_rect_2,1,05,-1,-1,0.711,-0.070397225,-0.251458155,1,0,0,1.3098,Basalt_rect,2,1.31,0,6,0,6,0,1,,,,,,,,,,,,,
65a700a7fa22d5f150d08b09,TCR,2024-06-25_13h25.37.815,LearnStrategy,2023.2.3,MacIntel,60.24096386,4,1,8,-0.039156143,-0.004378924,1,0,0,0.6315,rock_grid_rect_2,2,11,-1,-1,0.632,0.373176191,-0.251382349,1,0,0,2.5433,Gabbro_rect,4,2.543,0,7,0,7,0,1,,,,,,,,,,,,,
65a700a7fa22d5f150d08b09,TCR,2024-06-25_13h25.37.815,LearnStrategy,2023.2.3,MacIntel,60.24096386,4,1,9,0.093642979,0.012253853,1,0,0,0.9581,rock_grid_rect_2,1,07,-1,-1,0.958,0.136402148,-0.2608938,1,0,0,1.1615,Diorite_rect,3,1.161,0,8,0,8,0,1,,,,,,,,,,,,,
65a700a7fa22d5f150d08b09,TCR,2024-06-25_13h25.37.815,LearnStrategy,2023.2.3,MacIntel,60.24096386,4,1,10,0.022122039,0.006291916,1,0,0,0.6587,rock_grid_rect_2,7,07,-1,-1,0.659,-0.134975207,-0.258610695,1,0,0,2.097,Basalt_rect,2,2.097,0,9,0,9,0,1,,,,,,,,,,,,,
65a700a7fa22d5f150d08b09,TCR,2024-06-25_13h25.37.815,LearnStrategy,2023.2.3,MacIntel,60.24096386,4,1,11,-0.001306543,-0.00462418,1,0,0,0.9455,rock_grid_rect_2,6,06,-1,-1,0.946,0.120964434,-0.257036601,1,0,0,1.0377,Diorite_rect,3,1.038,0,10,0,10,0,1,,,,,,,,,,,,,
65a700a7fa22d5f150d08b09,TCR,2024-06-25_13h25.37.815,LearnStrategy,2023.2.3,MacIntel,60.24096386,4,1,12,0.050750036,-0.012427761,1,0,0,0.9728,rock_grid_rect_2,6,08,-1,-1,0.973,-0.112661423,-0.403837578,1,0,0,1.7368,Pegmatite_rect,6,1.737,1,11,0,11,0,1,,,,,,,,,,,,,
65a700a7fa22d5f150d08b09,TCR,2024-06-25_13h25.37.815,LearnStrategy,2023.2.3,MacIntel,60.24096386,4,1,13,0.077563142,0.000753603,1,0,0,0.7048,rock_grid_rect_2,4,15,-1,-1,0.705,0.377644299,-0.259083369,1,0,0,1.4036,Gabbro_rect,4,1.404,1,12,0,12,0,1,,,,,,,,,,,,,
65a700a7fa22d5f150d08b09,TCR,2024-06-25_13h25.37.815,LearnStrategy,2023.2.3,MacIntel,60.24096386,4,1,14,0.105058505,-0.018960474,1,0,0,0.9015,rock_grid_rect_2,2,10,-1,-1,0.901,-0.406517551,-0.401514341,1,0,0,1.1391,Obsidian_rect,5,1.139,0,13,0,13,0,1,,,,,,,,,,,,,
65a700a7fa22d5f150d08b09,TCR,2024-06-25_13h25.37.815,LearnStrategy,2023.2.3,MacIntel,60.24096386,4,1,15,0.009948452,-0.004601884,1,0,0,0.6598,rock_grid_rect_2,2,10,-1,-1,0.66,-0.364315782,-0.39007652,1,0,0,0.9102,Obsidian_rect,5,0.91,0,14,0,14,0,1,,,,,,,,,,,,,
65a700a7fa22d5f150d08b09,TCR,2024-06-25_13h25.37.815,LearnStrategy,2023.2.3,MacIntel,60.24096386,4,1,16,0.066673801,-0.024610267,1,0,0,0.6292,rock_grid_rect_2,3,06,-1,-1,0.629,0.095337471,-0.238232199,1,0,0,1.2462,Diorite_rect,3,1.246,1,15,0,15,0,1,,,,,,,,,,,,,
65a700a7fa22d5f150d08b09,TCR,2024-06-25_13h25.37.815,LearnStrategy,2023.2.3,MacIntel,60.24096386,4,2,1,,,,,,,,1,02,,,,,,,,,,,4,2.007,0,,,,,,0.406089469,-0.249014519,1,0,0,2.0066,Gabbro_rect,0,0,0,0,1,
65a700a7fa22d5f150d08b09,TCR,2024-06-25_13h25.37.815,LearnStrategy,2023.2.3,MacIntel,60.24096386,4,2,2,,,,,,,,7,06,,,,,,,,,,,7,1.361,1,,,,,,0.114806293,-0.396635987,1,0,0,1.3607,Peridotite_rect,1,0,1,0,1,
65a700a7fa22d5f150d08b09,TCR,2024-06-25_13h25.37.815,LearnStrategy,2023.2.3,MacIntel,60.24096386,4,2,3,,,,,,,,2,04,,,,,,,,,,,1,3.522,0,,,,,,-0.352382991,-0.256042202,1,0,0,3.5216,Andesite_rect,2,0,2,0,1,
65a700a7fa22d5f150d08b09,TCR,2024-06-25_13h25.37.815,LearnStrategy,2023.2.3,MacIntel,60.24096386,4,2,4,,,,,,,,3,08,,,,,,,,,,,3,1.229,1,,,,,,0.142225849,-0.244849636,1,0,0,1.229,Diorite_rect,3,0,3,0,1,
65a700a7fa22d5f150d08b09,TCR,2024-06-25_13h25.37.815,LearnStrategy,2023.2.3,MacIntel,60.24096386,4,2,5,,,,,,,,8,04,,,,,,,,,,,8,0.846,1,,,,,,0.356855558,-0.383485838,1,0,0,0.846,Pumice_rect,4,0,4,0,1,
65a700a7fa22d5f150d08b09,TCR,2024-06-25_13h25.37.815,LearnStrategy,2023.2.3,MacIntel,60.24096386,4,2,6,,,,,,,,5,11,,,,,,,,,,,5,0.836,1,,,,,,-0.370995648,-0.41686733,1,0,0,0.8361,Obsidian_rect,5,0,5,0,1,
65a700a7fa22d5f150d08b09,TCR,2024-06-25_13h25.37.815,LearnStrategy,2023.2.3,MacIntel,60.24096386,4,2,7,,,,,,,,6,10,,,,,,,,,,,7,1.405,0,,,,,,0.11223334,-0.384061073,1,0,0,1.4051,Peridotite_rect,6,0,6,0,1,
65a700a7fa22d5f150d08b09,TCR,2024-06-25_13h25.37.815,LearnStrategy,2023.2.3,MacIntel,60.24096386,4,2,8,,,,,,,,3,12,,,,,,,,,,,3,1.717,1,,,,,,0.172833726,-0.256577305,1,0,0,1.7173,Diorite_rect,7,0,7,0,1,
65a700a7fa22d5f150d08b09,TCR,2024-06-25_13h25.37.815,LearnStrategy,2023.2.3,MacIntel,60.24096386,4,2,9,,,,,,,,6,15,,,,,,,,,,,1,1.169,0,,,,,,-0.428572703,-0.242811787,1,0,0,1.1692,Andesite_rect,8,0,8,0,1,
65a700a7fa22d5f150d08b09,TCR,2024-06-25_13h25.37.815,LearnStrategy,2023.2.3,MacIntel,60.24096386,4,2,10,,,,,,,,2,01,,,,,,,,,,,2,1.148,1,,,,,,-0.210821561,-0.246932078,1,0,0,1.1481,Basalt_rect,9,0,9,0,1,
65a700a7fa22d5f150d08b09,TCR,2024-06-25_13h25.37.815,LearnStrategy,2023.2.3,MacIntel,60.24096386,4,2,11,,,,,,,,7,08,,,,,,,,,,,2,1.248,0,,,,,,-0.210821561,-0.246932078,1,0,0,1.2475,Basalt_rect,10,0,10,0,1,
65a700a7fa22d5f150d08b09,TCR,2024-06-25_13h25.37.815,LearnStrategy,2023.2.3,MacIntel,60.24096386,4,2,12,,,,,,,,4,11,,,,,,,,,,,1,0.963,0,,,,,,-0.394798801,-0.254405679,1,0,0,0.9628,Andesite_rect,11,0,11,0,1,
65a700a7fa22d5f150d08b09,TCR,2024-06-25_13h25.37.815,LearnStrategy,2023.2.3,MacIntel,60.24096386,4,2,13,,,,,,,,1,03,,,,,,,,,,,4,1.628,0,,,,,,0.430851348,-0.252077982,1,0,0,1.6281,Gabbro_rect,12,0,12,0,1,
65a700a7fa22d5f150d08b09,TCR,2024-06-25_13h25.37.815,LearnStrategy,2023.2.3,MacIntel,60.24096386,4,2,14,,,,,,,,5,12,,,,,,,,,,,5,1.075,1,,,,,,-0.370112728,-0.390535816,1,0,0,1.0748,Obsidian_rect,13,0,13,0,1,
65a700a7fa22d5f150d08b09,TCR,2024-06-25_13h25.37.815,LearnStrategy,2023.2.3,MacIntel,60.24096386,4,2,15,,,,,,,,8,16,,,,,,,,,,,8,1.409,1,,,,,,0.432483412,-0.402040525,1,0,0,1.4092,Pumice_rect,14,0,14,0,1,
65a700a7fa22d5f150d08b09,TCR,2024-06-25_13h25.37.815,LearnStrategy,2023.2.3,MacIntel,60.24096386,4,2,16,,,,,,,,4,14,,,,,,,,,,,4,1.254,1,,,,,,0.364944528,-0.248546304,1,0,0,1.2537,Gabbro_rect,15,0,15,0,1,
65a700a7fa22d5f150d08b09,TCR,2024-06-25_13h25.37.815,LearnStrategy,2023.2.3,MacIntel,60.24096386,5,1,1,-0.06112657,0.019651648,1,0,0,1.3427,rock_grid_rect_2,1,05,-1,-1,1.343,0.332682292,-0.247988906,1,0,0,1.3007,Gabbro_rect,4,1.301,0,0,0,0,0,1,,,,,,,,,,,,,
65a700a7fa22d5f150d08b09,TCR,2024-06-25_13h25.37.815,LearnStrategy,2023.2.3,MacIntel,60.24096386,5,1,2,0.038398081,-0.019785424,1,0,0,1.3145,rock_grid_rect_2,6,03,-1,-1,1.314,-0.106784211,-0.398544521,1,0,0,1.9085,Pegmatite_rect,6,1.909,1,1,0,1,0,1,,,,,,,,,,,,,
65a700a7fa22d5f150d08b09,TCR,2024-06-25_13h25.37.815,LearnStrategy,2023.2.3,MacIntel,60.24096386,5,1,3,0.07152094,-0.017671768,1,0,0,0.7642,rock_grid_rect_2,6,06,-1,-1,0.764,0.132883847,-0.250896297,1,0,0,1.3307,Diorite_rect,3,1.331,0,2,0,2,0,1,,,,,,,,,,,,,
65a700a7fa22d5f150d08b09,TCR,2024-06-25_13h25.37.815,LearnStrategy,2023.2.3,MacIntel,60.24096386,5,1,4,-0.057692994,-0.008213827,1,0,0,0.759,rock_grid_rect_2,7,16,-1,-1,0.759,0.098177975,-0.379860517,1,0,0,1.8779,Peridotite_rect,7,1.878,1,3,0,3,0,1,,,,,,,,,,,,,
65a700a7fa22d5f150d08b09,TCR,2024-06-25_13h25.37.815,LearnStrategy,2023.2.3,MacIntel,60.24096386,5,1,5,0.012097781,-0.001248573,1,0,0,0.9228,rock_grid_rect_2,2,16,-1,-1,0.923,-0.118253246,-0.241665775,1,0,0,1.3211,Basalt_rect,2,1.321,1,4,0,4,0,1,,,,,,,,,,,,,
65a700a7fa22d5f150d08b09,TCR,2024-06-25_13h25.37.815,LearnStrategy,2023.2.3,MacIntel,60.24096386,5,1,6,-0.002283105,4.45919E-06,1,0,0,0.6755,rock_grid_rect_2,7,07,-1,-1,0.675,0.374170591,-0.255235088,1,0,0,1.1129,Gabbro_rect,4,1.113,0,5,0,5,0,1,,,,,,,,,,,,,
65a700a7fa22d5f150d08b09,TCR,2024-06-25_13h25.37.815,LearnStrategy,2023.2.3,MacIntel,60.24096386,5,1,7,0.029742794,-0.021310467,1,0,0,0.9596,rock_grid_rect_2,1,06,-1,-1,0.96,0.176026505,-0.25698755,1,0,0,1.596,Diorite_rect,3,1.596,0,6,0,6,0,1,,,,,,,,,,,,,
65a700a7fa22d5f150d08b09,TCR,2024-06-25_13h25.37.815,LearnStrategy,2023.2.3,MacIntel,60.24096386,5,1,8,0.046839326,0.014117794,1,0,0,0.7175,rock_grid_rect_2,2,08,-1,-1,0.717,-0.154528753,-0.261286209,1,0,0,1.4735,Basalt_rect,2,1.473,1,7,0,7,0,1,,,,,,,,,,,,,
65a700a7fa22d5f150d08b09,TCR,2024-06-25_13h25.37.815,LearnStrategy,2023.2.3,MacIntel,60.24096386,5,1,9,-0.065862229,-0.00869542,1,0,0,0.7585,rock_grid_rect_2,3,02,-1,-1,0.759,0.122547446,-0.26941977,1,0,0,1.1332,Diorite_rect,3,1.133,1,8,0,8,0,1,,,,,,,,,,,,,
65a700a7fa22d5f150d08b09,TCR,2024-06-25_13h25.37.815,LearnStrategy,2023.2.3,MacIntel,60.24096386,5,1,10,0.072047125,-0.017854595,1,0,0,0.7913,rock_grid_rect_2,4,08,-1,-1,0.791,0.369020227,-0.246878567,1,0,0,1.9482,Gabbro_rect,4,1.948,1,9,0,9,0,1,,,,,,,,,,,,,
65a700a7fa22d5f150d08b09,TCR,2024-06-25_13h25.37.815,LearnStrategy,2023.2.3,MacIntel,60.24096386,5,1,11,0.066664883,0.000691174,1,0,0,0.694,rock_grid_rect_2,1,06,-1,-1,0.694,0.393973851,-0.254262985,1,0,0,1.2963,Gabbro_rect,4,1.296,0,10,0,10,0,1,,,,,,,,,,,,,
65a700a7fa22d5f150d08b09,TCR,2024-06-25_13h25.37.815,LearnStrategy,2023.2.3,MacIntel,60.24096386,5,1,12,0.075641231,-0.003558433,1,0,0,0.6188,rock_grid_rect_2,4,15,-1,-1,0.619,0.393710759,-0.269375178,1,0,0,2.5989,Gabbro_rect,4,2.599,1,11,0,11,0,1,,,,,,,,,,,,,
65a700a7fa22d5f150d08b09,TCR,2024-06-25_13h25.37.815,LearnStrategy,2023.2.3,MacIntel,60.24096386,5,1,13,0.020877925,0.001177226,1,0,0,0.9829,rock_grid_rect_2,1,04,-1,-1,0.983,-0.079369114,-0.25335777,1,0,0,2.6874,Basalt_rect,2,2.687,0,12,0,12,0,1,,,,,,,,,,,,,
65a700a7fa22d5f150d08b09,TCR,2024-06-25_13h25.37.815,LearnStrategy,2023.2.3,MacIntel,60.24096386,5,1,14,-0.0139751,0.006630815,1,0,0,0.6829,rock_grid_rect_2,6,08,-1,-1,0.683,0.37571347,-0.253567352,1,0,0,1.4344,Gabbro_rect,4,1.434,0,13,0,13,0,1,,,,,,,,,,,,,
65a700a7fa22d5f150d08b09,TCR,2024-06-25_13h25.37.815,LearnStrategy,2023.2.3,MacIntel,60.24096386,5,1,15,-0.026376106,-0.010282891,1,0,0,0.6735,rock_grid_rect_2,4,13,-1,-1,0.673,-0.373323345,-0.238160852,1,0,0,1.3721,Andesite_rect,1,1.372,0,14,0,14,0,1,,,,,,,,,,,,,
65a700a7fa22d5f150d08b09,TCR,2024-06-25_13h25.37.815,LearnStrategy,2023.2.3,MacIntel,60.24096386,5,1,16,0.062887949,0.005025507,1,0,0,1.3825,rock_grid_rect_2,2,11,-1,-1,1.383,-0.374197346,-0.242611123,1,0,0,2.0784,Andesite_rect,1,2.078,0,15,0,15,0,1,,,,,,,,,,,,,
65a700a7fa22d5f150d08b09,TCR,2024-06-25_13h25.37.815,LearnStrategy,2023.2.3,MacIntel,60.24096386,5,2,1,,,,,,,,7,05,,,,,,,,,,,1,2.611,0,,,,,,-0.386700913,-0.26480005,1,0,0,2.6105,Andesite_rect,0,0,0,0,1,
65a700a7fa22d5f150d08b09,TCR,2024-06-25_13h25.37.815,LearnStrategy,2023.2.3,MacIntel,60.24096386,5,2,2,,,,,,,,1,09,,,,,,,,,,,4,1.862,0,,,,,,0.426178118,-0.253732342,1,0,0,1.8617,Gabbro_rect,1,0,1,0,1,
65a700a7fa22d5f150d08b09,TCR,2024-06-25_13h25.37.815,LearnStrategy,2023.2.3,MacIntel,60.24096386,5,2,3,,,,,,,,6,05,,,,,,,,,,,6,2.555,1,,,,,,-0.131867152,-0.385875963,1,0,0,2.5554,Pegmatite_rect,2,0,2,0,1,
65a700a7fa22d5f150d08b09,TCR,2024-06-25_13h25.37.815,LearnStrategy,2023.2.3,MacIntel,60.24096386,5,2,4,,,,,,,,4,03,,,,,,,,,,,4,2.202,1,,,,,,0.435890233,-0.253116973,1,0,0,2.2024,Gabbro_rect,3,0,3,0,1,
65a700a7fa22d5f150d08b09,TCR,2024-06-25_13h25.37.815,LearnStrategy,2023.2.3,MacIntel,60.24096386,5,2,5,,,,,,,,3,09,,,,,,,,,,,3,0.953,1,,,,,,0.125347817,-0.264599386,1,0,0,0.9534,Diorite_rect,4,0,4,0,1,
65a700a7fa22d5f150d08b09,TCR,2024-06-25_13h25.37.815,LearnStrategy,2023.2.3,MacIntel,60.24096386,5,2,6,,,,,,,,8,14,,,,,,,,,,,8,1.054,1,,,,,,0.360810859,-0.381247324,1,0,0,1.0538,Pumice_rect,5,0,5,0,1,
65a700a7fa22d5f150d08b09,TCR,2024-06-25_13h25.37.815,LearnStrategy,2023.2.3,MacIntel,60.24096386,5,2,7,,,,,,,,3,07,,,,,,,,,,,3,1.232,1,,,,,,0.107805365,-0.255400078,1,0,0,1.232,Diorite_rect,6,0,6,0,1,
65a700a7fa22d5f150d08b09,TCR,2024-06-25_13h25.37.815,LearnStrategy,2023.2.3,MacIntel,60.24096386,5,2,8,,,,,,,,2,02,,,,,,,,,,,4,1.286,0,,,,,,0.445250071,-0.262258312,1,0,0,1.2857,Gabbro_rect,7,0,7,0,1,
65a700a7fa22d5f150d08b09,TCR,2024-06-25_13h25.37.815,LearnStrategy,2023.2.3,MacIntel,60.24096386,5,2,9,,,,,,,,6,16,,,,,,,,,,,3,1.013,0,,,,,,0.094610624,-0.254548373,1,0,0,1.0127,Diorite_rect,8,0,8,0,1,
65a700a7fa22d5f150d08b09,TCR,2024-06-25_13h25.37.815,LearnStrategy,2023.2.3,MacIntel,60.24096386,5,2,10,,,,,,,,1,14,,,,,,,,,,,1,2.758,1,,,,,,-0.467028753,-0.252996575,1,0,0,2.7576,Andesite_rect,9,0,9,0,1,
65a700a7fa22d5f150d08b09,TCR,2024-06-25_13h25.37.815,LearnStrategy,2023.2.3,MacIntel,60.24096386,5,2,11,,,,,,,,5,09,,,,,,,,,,,5,0.894,1,,,,,,-0.395503353,-0.384052155,1,0,0,0.8942,Obsidian_rect,10,0,10,0,1,
65a700a7fa22d5f150d08b09,TCR,2024-06-25_13h25.37.815,LearnStrategy,2023.2.3,MacIntel,60.24096386,5,2,12,,,,,,,,5,05,,,,,,,,,,,5,1.371,1,,,,,,-0.415828339,-0.403846497,1,0,0,1.3713,Obsidian_rect,11,0,11,0,1,
65a700a7fa22d5f150d08b09,TCR,2024-06-25_13h25.37.815,LearnStrategy,2023.2.3,MacIntel,60.24096386,5,2,13,,,,,,,,7,14,,,,,,,,,,,7,1.536,1,,,,,,0.083997753,-0.388324058,1,0,0,1.5362,Peridotite_rect,12,0,12,0,1,
65a700a7fa22d5f150d08b09,TCR,2024-06-25_13h25.37.815,LearnStrategy,2023.2.3,MacIntel,60.24096386,5,2,14,,,,,,,,4,09,,,,,,,,,,,1,3.653,0,,,,,,-0.391820063,-0.253875036,1,0,0,3.6529,Andesite_rect,13,0,13,0,1,
65a700a7fa22d5f150d08b09,TCR,2024-06-25_13h25.37.815,LearnStrategy,2023.2.3,MacIntel,60.24096386,5,2,15,,,,,,,,8,13,,,,,,,,,,,8,0.926,1,,,,,,0.435221354,-0.384886023,1,0,0,0.9258,Pumice_rect,14,0,14,0,1,
65a700a7fa22d5f150d08b09,TCR,2024-06-25_13h25.37.815,LearnStrategy,2023.2.3,MacIntel,60.24096386,5,2,16,,,,,,,,2,12,,,,,,,,,,,8,0.947,0,,,,,,0.424608483,-0.40580854,1,0,0,0.9468,Pumice_rect,15,0,15,0,1,
65a700a7fa22d5f150d08b09,TCR,2024-06-25_13h25.37.815,LearnStrategy,2023.2.3,MacIntel,60.24096386,6,1,1,0.008829195,0.002822667,1,0,0,1.1285,rock_grid_rect_2,6,11,-1,-1,1.129,0.090240618,-0.383646368,1,0,0,2.7613,Peridotite_rect,7,2.761,0,0,0,0,0,1,,,,,,,,,,,,,
65a700a7fa22d5f150d08b09,TCR,2024-06-25_13h25.37.815,LearnStrategy,2023.2.3,MacIntel,60.24096386,6,1,2,0.015665133,0.002951983,1,0,0,0.8945,rock_grid_rect_2,8,09,-1,-1,0.894,0.389844642,-0.409910995,1,0,0,0.8641,Pumice_rect,8,0.864,1,1,0,1,0,1,,,,,,,,,,,,,
65a700a7fa22d5f150d08b09,TCR,2024-06-25_13h25.37.815,LearnStrategy,2023.2.3,MacIntel,60.24096386,6,1,3,-0.035633383,-0.015196918,1,0,0,0.6454,rock_grid_rect_2,1,10,-1,-1,0.645,0.412506243,-0.417081371,1,0,0,2.2428,Pumice_rect,8,2.243,0,2,0,2,0,1,,,,,,,,,,,,,
65a700a7fa22d5f150d08b09,TCR,2024-06-25_13h25.37.815,LearnStrategy,2023.2.3,MacIntel,60.24096386,6,1,4,0.057889198,-0.023883419,1,0,0,0.63,rock_grid_rect_2,4,08,-1,-1,0.63,0.366915489,-0.266659532,1,0,0,1.591,Gabbro_rect,4,1.591,1,3,0,3,0,1,,,,,,,,,,,,,
65a700a7fa22d5f150d08b09,TCR,2024-06-25_13h25.37.815,LearnStrategy,2023.2.3,MacIntel,60.24096386,6,1,5,0.005163741,0.019687322,1,0,0,0.7166,rock_grid_rect_2,2,16,-1,-1,0.717,-0.112844249,-0.265776612,1,0,0,2.5908,Basalt_rect,2,2.591,1,4,0,4,0,1,,,,,,,,,,,,,
65a700a7fa22d5f150d08b09,TCR,2024-06-25_13h25.37.815,LearnStrategy,2023.2.3,MacIntel,60.24096386,6,1,6,-0.008677583,-0.008954053,1,0,0,0.9537,rock_grid_rect_2,2,06,-1,-1,0.954,-0.360850992,-0.260443422,1,0,0,1.876,Andesite_rect,1,1.876,0,5,0,5,0,1,,,,,,,,,,,,,
65a700a7fa22d5f150d08b09,TCR,2024-06-25_13h25.37.815,LearnStrategy,2023.2.3,MacIntel,60.24096386,6,1,7,-0.053001926,-0.022581336,1,0,0,0.6341,rock_grid_rect_2,1,01,-1,-1,0.634,-0.123416988,-0.238731628,1,0,0,3.1215,Basalt_rect,2,3.121,0,6,0,6,0,1,,,,,,,,,,,,,
65a700a7fa22d5f150d08b09,TCR,2024-06-25_13h25.37.815,LearnStrategy,2023.2.3,MacIntel,60.24096386,6,1,8,-0.019442066,-0.016717501,1,0,0,1.029,rock_grid_rect_2,4,05,-1,-1,1.029,0.03735463,-0.416831657,1,0,0,2.4606,Peridotite_rect,7,2.461,0,7,0,7,0,1,,,,,,,,,,,,,
65a700a7fa22d5f150d08b09,TCR,2024-06-25_13h25.37.815,LearnStrategy,2023.2.3,MacIntel,60.24096386,6,1,9,0.083195098,-0.023201163,1,0,0,3.0177,rock_grid_rect_2,7,02,-1,-1,3.018,-0.122534068,-0.391681828,1,0,0,1.5581,Pegmatite_rect,6,1.558,0,8,0,8,0,1,,,,,,,,,,,,,
65a700a7fa22d5f150d08b09,TCR,2024-06-25_13h25.37.815,LearnStrategy,2023.2.3,MacIntel,60.24096386,6,1,10,-0.004312036,0.02096265,1,0,0,0.5993,rock_grid_rect_2,2,11,-1,-1,0.599,0.306961687,-0.399387307,1,0,0,1.4595,Pumice_rect,8,1.46,0,9,0,9,0,1,,,,,,,,,,,,,
65a700a7fa22d5f150d08b09,TCR,2024-06-25_13h25.37.815,LearnStrategy,2023.2.3,MacIntel,60.24096386,6,1,11,0.041394656,0.011393229,1,0,0,0.5567,rock_grid_rect_2,7,13,-1,-1,0.557,0.105210117,-0.379824843,1,0,0,1.347,Peridotite_rect,7,1.347,1,10,0,10,0,1,,,,,,,,,,,,,
65a700a7fa22d5f150d08b09,TCR,2024-06-25_13h25.37.815,LearnStrategy,2023.2.3,MacIntel,60.24096386,6,1,12,0.022960367,-0.004378924,1,0,0,0.9324,rock_grid_rect_2,6,07,-1,-1,0.932,0.413580908,-0.251511665,1,0,0,1.9005,Gabbro_rect,4,1.901,0,11,0,11,0,1,,,,,,,,,,,,,
65a700a7fa22d5f150d08b09,TCR,2024-06-25_13h25.37.815,LearnStrategy,2023.2.3,MacIntel,60.24096386,6,1,13,0.019437607,-0.015009632,1,0,0,0.6203,rock_grid_rect_2,4,12,-1,-1,0.62,-0.356886772,-0.25219838,1,0,0,2.0957,Andesite_rect,1,2.096,0,12,0,12,0,1,,,,,,,,,,,,,
65a700a7fa22d5f150d08b09,TCR,2024-06-25_13h25.37.815,LearnStrategy,2023.2.3,MacIntel,60.24096386,6,1,14,0.098258241,0.007763449,1,0,0,0.7329,rock_grid_rect_2,1,06,-1,-1,0.733,0.408292309,-0.265156785,1,0,0,1.7479,Gabbro_rect,4,1.748,0,13,0,13,0,1,,,,,,,,,,,,,
65a700a7fa22d5f150d08b09,TCR,2024-06-25_13h25.37.815,LearnStrategy,2023.2.3,MacIntel,60.24096386,6,1,15,-0.020761986,-0.013662957,1,0,0,0.5736,rock_grid_rect_2,6,11,-1,-1,0.574,0.093072203,-0.381612978,1,0,0,1.5034,Peridotite_rect,7,1.503,0,14,0,14,0,1,,,,,,,,,,,,,
65a700a7fa22d5f150d08b09,TCR,2024-06-25_13h25.37.815,LearnStrategy,2023.2.3,MacIntel,60.24096386,6,1,16,-0.030777326,-0.010800157,1,0,0,0.5712,rock_grid_rect_2,3,06,-1,-1,0.571,0.069621326,-0.259426727,1,0,0,1.8747,Diorite_rect,3,1.875,1,15,0,15,0,1,,,,,,,,,,,,,
65a700a7fa22d5f150d08b09,TCR,2024-06-25_13h25.37.815,LearnStrategy,2023.2.3,MacIntel,60.24096386,6,2,1,,,,,,,,4,10,,,,,,,,,,,4,2.364,1,,,,,,0.386803475,-0.264572631,1,0,0,2.3639,Gabbro_rect,0,0,0,0,1,
65a700a7fa22d5f150d08b09,TCR,2024-06-25_13h25.37.815,LearnStrategy,2023.2.3,MacIntel,60.24096386,6,2,2,,,,,,,,1,16,,,,,,,,,,,1,2.179,1,,,,,,-0.297686572,-0.25522617,1,0,0,2.1791,Andesite_rect,1,0,1,0,1,
65a700a7fa22d5f150d08b09,TCR,2024-06-25_13h25.37.815,LearnStrategy,2023.2.3,MacIntel,60.24096386,6,2,3,,,,,,,,5,14,,,,,,,,,,,5,0.835,1,,,,,,-0.379575128,-0.388640661,1,0,0,0.8347,Obsidian_rect,2,0,2,0,1,
65a700a7fa22d5f150d08b09,TCR,2024-06-25_13h25.37.815,LearnStrategy,2023.2.3,MacIntel,60.24096386,6,2,4,,,,,,,,7,04,,,,,,,,,,,6,1.836,0,,,,,,-0.074352526,-0.397911316,1,0,0,1.8359,Pegmatite_rect,3,0,3,0,1,
65a700a7fa22d5f150d08b09,TCR,2024-06-25_13h25.37.815,LearnStrategy,2023.2.3,MacIntel,60.24096386,6,2,5,,,,,,,,4,16,,,,,,,,,,,4,1.913,1,,,,,,0.360226705,-0.262186965,1,0,0,1.9125,Gabbro_rect,4,0,4,0,1,
65a700a7fa22d5f150d08b09,TCR,2024-06-25_13h25.37.815,LearnStrategy,2023.2.3,MacIntel,60.24096386,6,2,6,,,,,,,,3,13,,,,,,,,,,,3,0.827,1,,,,,,0.114868721,-0.233893408,1,0,0,0.827,Diorite_rect,5,0,5,0,1,
65a700a7fa22d5f150d08b09,TCR,2024-06-25_13h25.37.815,LearnStrategy,2023.2.3,MacIntel,60.24096386,6,2,7,,,,,,,,8,02,,,,,,,,,,,8,1.002,1,,,,,,0.438133205,-0.401001534,1,0,0,1.0019,Pumice_rect,6,0,6,0,1,
65a700a7fa22d5f150d08b09,TCR,2024-06-25_13h25.37.815,LearnStrategy,2023.2.3,MacIntel,60.24096386,6,2,8,,,,,,,,7,12,,,,,,,,,,,7,1.541,1,,,,,,0.111595676,-0.398000499,1,0,0,1.5408,Peridotite_rect,7,0,7,0,1,
65a700a7fa22d5f150d08b09,TCR,2024-06-25_13h25.37.815,LearnStrategy,2023.2.3,MacIntel,60.24096386,6,2,9,,,,,,,,2,14,,,,,,,,,,,3,2.55,0,,,,,,0.20879263,-0.231418557,1,0,0,2.5502,Diorite_rect,8,0,8,0,1,
65a700a7fa22d5f150d08b09,TCR,2024-06-25_13h25.37.815,LearnStrategy,2023.2.3,MacIntel,60.24096386,6,2,10,,,,,,,,8,10,,,,,,,,,,,8,1.606,1,,,,,,0.390192459,-0.417759168,1,0,0,1.6056,Pumice_rect,9,0,9,0,1,
65a700a7fa22d5f150d08b09,TCR,2024-06-25_13h25.37.815,LearnStrategy,2023.2.3,MacIntel,60.24096386,6,2,11,,,,,,,,2,05,,,,,,,,,,,2,2.705,1,,,,,,-0.105156607,-0.256305294,1,0,0,2.7054,Basalt_rect,10,0,10,0,1,
65a700a7fa22d5f150d08b09,TCR,2024-06-25_13h25.37.815,LearnStrategy,2023.2.3,MacIntel,60.24096386,6,2,12,,,,,,,,6,12,,,,,,,,,,,3,1.221,0,,,,,,0.175874893,-0.250722389,1,0,0,1.2208,Diorite_rect,11,0,11,0,1,
65a700a7fa22d5f150d08b09,TCR,2024-06-25_13h25.37.815,LearnStrategy,2023.2.3,MacIntel,60.24096386,6,2,13,,,,,,,,5,02,,,,,,,,,,,5,0.96,1,,,,,,-0.409300086,-0.401286922,1,0,0,0.96,Obsidian_rect,12,0,12,0,1,
65a700a7fa22d5f150d08b09,TCR,2024-06-25_13h25.37.815,LearnStrategy,2023.2.3,MacIntel,60.24096386,6,2,14,,,,,,,,3,15,,,,,,,,,,,3,2.725,1,,,,,,0.090097924,-0.267894727,1,0,0,2.7251,Diorite_rect,13,0,13,0,1,
65a700a7fa22d5f150d08b09,TCR,2024-06-25_13h25.37.815,LearnStrategy,2023.2.3,MacIntel,60.24096386,6,2,15,,,,,,,,1,11,,,,,,,,,,,1,2.52,1,,,,,,-0.372716895,-0.24317744,1,0,0,2.5196,Andesite_rect,14,0,14,0,1,
65a700a7fa22d5f150d08b09,TCR,2024-06-25_13h25.37.815,LearnStrategy,2023.2.3,MacIntel,60.24096386,6,2,16,,,,,,,,6,13,,,,,,,,,,,6,2.282,1,,,,,,-0.122435966,-0.388292844,1,0,0,2.282,Pegmatite_rect,15,0,15,0,1,
65a700a7fa22d5f150d08b09,TCR,2024-06-25_13h25.37.815,LearnStrategy,2023.2.3,MacIntel,60.24096386,7,1,1,0.188846675,0.020882384,1,0,0,3.7585,rock_grid_rect_2,2,06,-1,-1,3.758,0.36190336,-0.236720534,1,0,0,5.6186,Gabbro_rect,4,5.619,0,0,0,0,0,1,,,,,,,,,,,,,
65a700a7fa22d5f150d08b09,TCR,2024-06-25_13h25.37.815,LearnStrategy,2023.2.3,MacIntel,60.24096386,7,1,2,0.057893657,-0.013176905,1,0,0,1.5831,rock_grid_rect_2,6,08,-1,-1,1.583,-0.34578339,-0.252782534,1,0,0,4.2837,Andesite_rect,1,4.284,0,1,0,1,0,1,,,,,,,,,,,,,
65a700a7fa22d5f150d08b09,TCR,2024-06-25_13h25.37.815,LearnStrategy,2023.2.3,MacIntel,60.24096386,7,1,3,0.097825699,0.002648759,1,0,0,7.304,rock_grid_rect_2,8,03,-1,-1,7.304,0.332370148,-0.396600314,1,0,0,4.4201,Pumice_rect,8,4.42,1,2,0,2,0,1,,,,,,,,,,,,,
65a700a7fa22d5f150d08b09,TCR,2024-06-25_13h25.37.815,LearnStrategy,2023.2.3,MacIntel,60.24096386,7,1,4,0.09033872,0.00880244,1,0,0,0.8089,rock_grid_rect_2,2,06,-1,-1,0.809,-0.131532713,-0.253152647,1,0,0,2.2022,Basalt_rect,2,2.202,1,3,0,3,0,1,,,,,,,,,,,,,
65a700a7fa22d5f150d08b09,TCR,2024-06-25_13h25.37.815,LearnStrategy,2023.2.3,MacIntel,60.24096386,7,1,5,0.059940425,-0.010764483,1,0,0,0.8731,rock_grid_rect_2,1,04,-1,-1,0.873,-0.307113299,-0.261843607,1,0,0,2.5677,Andesite_rect,1,2.568,1,4,0,4,0,1,,,,,,,,,,,,,
65a700a7fa22d5f150d08b09,TCR,2024-06-25_13h25.37.815,LearnStrategy,2023.2.3,MacIntel,60.24096386,7,1,6,0.120335688,-0.006323131,1,0,0,5.6192,rock_grid_rect_2,7,16,-1,-1,5.619,0.076760488,-0.389073202,1,0,0,1.9795,Peridotite_rect,7,1.98,1,5,0,5,0,1,,,,,,,,,,,,,
65a700a7fa22d5f150d08b09,TCR,2024-06-25_13h25.37.815,LearnStrategy,2023.2.3,MacIntel,60.24096386,7,1,7,0.097464505,-0.004722282,1,0,0,0.8238,rock_grid_rect_2,4,13,-1,-1,0.824,-0.395650507,-0.233389519,1,0,0,1.7678,Andesite_rect,1,1.768,0,6,0,6,0,1,,,,,,,,,,,,,
65a700a7fa22d5f150d08b09,TCR,2024-06-25_13h25.37.815,LearnStrategy,2023.2.3,MacIntel,60.24096386,7,1,8,0.116754959,0.004655394,1,0,0,4.5478,rock_grid_rect_2,1,05,-1,-1,4.548,-0.076064854,-0.248251998,1,0,0,2.2957,Basalt_rect,2,2.296,0,7,0,7,0,1,,,,,,,,,,,,,
65a700a7fa22d5f150d08b09,TCR,2024-06-25_13h25.37.815,LearnStrategy,2023.2.3,MacIntel,60.24096386,7,1,9,0.070584511,-0.007308612,1,0,0,0.7325,rock_grid_rect_2,6,03,-1,-1,0.733,0.093830265,-0.401741759,1,0,0,1.0149,Peridotite_rect,7,1.015,0,8,0,8,0,1,,,,,,,,,,,,,
65a700a7fa22d5f150d08b09,TCR,2024-06-25_13h25.37.815,LearnStrategy,2023.2.3,MacIntel,60.24096386,7,1,10,0.126904074,-0.012530322,1,0,0,0.6538,rock_grid_rect_2,1,06,-1,-1,0.654,0.387258312,-0.242035888,1,0,0,1.557,Gabbro_rect,4,1.557,0,9,0,9,0,1,,,,,,,,,,,,,
65a700a7fa22d5f150d08b09,TCR,2024-06-25_13h25.37.815,LearnStrategy,2023.2.3,MacIntel,60.24096386,7,1,11,0.116072703,-0.011393229,1,0,0,0.7011,rock_grid_rect_2,7,16,-1,-1,0.701,-0.063115368,-0.40597353,1,0,0,1.0231,Pegmatite_rect,6,1.023,0,10,0,10,0,1,,,,,,,,,,,,,
65a700a7fa22d5f150d08b09,TCR,2024-06-25_13h25.37.815,LearnStrategy,2023.2.3,MacIntel,60.24096386,7,1,12,0.146096426,-0.018675086,1,0,0,0.6339,rock_grid_rect_2,3,14,-1,-1,0.634,0.106338292,-0.240033711,1,0,0,0.9666,Diorite_rect,3,0.967,1,11,0,11,0,1,,,,,,,,,,,,,
65a700a7fa22d5f150d08b09,TCR,2024-06-25_13h25.37.815,LearnStrategy,2023.2.3,MacIntel,60.24096386,7,1,13,0.061518978,0.009943993,1,0,0,6.6586,rock_grid_rect_2,4,05,-1,-1,6.659,-0.39486123,-0.26941977,1,0,0,4.1141,Andesite_rect,1,4.114,0,12,0,12,0,1,,,,,,,,,,,,,
65a700a7fa22d5f150d08b09,TCR,2024-06-25_13h25.37.815,LearnStrategy,2023.2.3,MacIntel,60.24096386,7,1,14,0.04990279,-0.021774222,1,0,0,0.6763,rock_grid_rect_2,2,11,-1,-1,0.676,-0.312642694,-0.257165918,1,0,0,1.9387,Andesite_rect,1,1.939,0,13,0,13,0,1,,,,,,,,,,,,,
65a700a7fa22d5f150d08b09,TCR,2024-06-25_13h25.37.815,LearnStrategy,2023.2.3,MacIntel,60.24096386,7,1,15,0.012940568,0.003183861,1,0,0,0.5814,rock_grid_rect_2,7,15,-1,-1,0.581,0.05358608,-0.392966074,1,0,0,1.8048,Peridotite_rect,7,1.805,1,14,0,14,0,1,,,,,,,,,,,,,
65a700a7fa22d5f150d08b09,TCR,2024-06-25_13h25.37.815,LearnStrategy,2023.2.3,MacIntel,60.24096386,7,1,16,0.033515268,0.007794663,1,0,0,0.7286,rock_grid_rect_2,6,09,-1,-1,0.729,-0.098146761,-0.389724244,1,0,0,1.2925,Pegmatite_rect,6,1.293,1,15,0,15,0,1,,,,,,,,,,,,,
65a700a7fa22d5f150d08b09,TCR,2024-06-25_13h25.37.815,LearnStrategy,2023.2.3,MacIntel,60.24096386,7,2,1,,,,,,,,7,08,,,,,,,,,,,7,2.411,1,,,,,,0.080925371,-0.392885809,1,0,0,2.4109,Peridotite_rect,0,0,0,0,1,
65a700a7fa22d5f150d08b09,TCR,2024-06-25_13h25.37.815,LearnStrategy,2023.2.3,MacIntel,60.24096386,7,2,2,,,,,,,,1,02,,,,,,,,,,,2,3.033,0,,,,,,-0.176155822,-0.263703089,1,0,0,3.0325,Basalt_rect,1,0,1,0,1,
65a700a7fa22d5f150d08b09,TCR,2024-06-25_13h25.37.815,LearnStrategy,2023.2.3,MacIntel,60.24096386,7,2,3,,,,,,,,3,09,,,,,,,,,,,3,1.525,1,,,,,,0.136072168,-0.246994506,1,0,0,1.5254,Diorite_rect,2,0,2,0,1,
65a700a7fa22d5f150d08b09,TCR,2024-06-25_13h25.37.815,LearnStrategy,2023.2.3,MacIntel,60.24096386,7,2,4,,,,,,,,8,13,,,,,,,,,,,8,1.072,1,,,,,,0.381648652,-0.380538313,1,0,0,1.0723,Pumice_rect,3,0,3,0,1,
65a700a7fa22d5f150d08b09,TCR,2024-06-25_13h25.37.815,LearnStrategy,2023.2.3,MacIntel,60.24096386,7,2,5,,,,,,,,5,14,,,,,,,,,,,5,1.086,1,,,,,,-0.350969428,-0.387842466,1,0,0,1.0858,Obsidian_rect,4,0,4,0,1,
65a700a7fa22d5f150d08b09,TCR,2024-06-25_13h25.37.815,LearnStrategy,2023.2.3,MacIntel,60.24096386,7,2,6,,,,,,,,6,10,,,,,,,,,,,7,1.95,0,,,,,,0.109932399,-0.408265554,1,0,0,1.95,Peridotite_rect,5,0,5,0,1,
65a700a7fa22d5f150d08b09,TCR,2024-06-25_13h25.37.815,LearnStrategy,2023.2.3,MacIntel,60.24096386,7,2,7,,,,,,,,4,09,,,,,,,,,,,1,1.932,0,,,,,,-0.396132099,-0.252514983,1,0,0,1.9321,Andesite_rect,6,0,6,0,1,
65a700a7fa22d5f150d08b09,TCR,2024-06-25_13h25.37.815,LearnStrategy,2023.2.3,MacIntel,60.24096386,7,2,8,,,,,,,,5,11,,,,,,,,,,,5,1.116,1,,,,,,-0.403458547,-0.392043022,1,0,0,1.1158,Obsidian_rect,7,0,7,0,1,
65a700a7fa22d5f150d08b09,TCR,2024-06-25_13h25.37.815,LearnStrategy,2023.2.3,MacIntel,60.24096386,7,2,9,,,,,,,,3,07,,,,,,,,,,,3,0.99,1,,,,,,0.116300121,-0.252622003,1,0,0,0.99,Diorite_rect,8,0,8,0,1,
65a700a7fa22d5f150d08b09,TCR,2024-06-25_13h25.37.815,LearnStrategy,2023.2.3,MacIntel,60.24096386,7,2,10,,,,,,,,2,02,,,,,,,,,,,4,1.234,0,,,,,,0.374469356,-0.261865903,1,0,0,1.2344,Gabbro_rect,9,0,9,0,1,
65a700a7fa22d5f150d08b09,TCR,2024-06-25_13h25.37.815,LearnStrategy,2023.2.3,MacIntel,60.24096386,7,2,11,,,,,,,,1,14,,,,,,,,,,,2,1.352,0,,,,,,-0.16747378,-0.256394478,1,0,0,1.3525,Basalt_rect,10,0,10,0,1,
65a700a7fa22d5f150d08b09,TCR,2024-06-25_13h25.37.815,LearnStrategy,2023.2.3,MacIntel,60.24096386,7,2,12,,,,,,,,2,04,,,,,,,,,,,2,2.362,1,,,,,,-0.095850278,-0.248613192,1,0,0,2.3621,Basalt_rect,11,0,11,0,1,
65a700a7fa22d5f150d08b09,TCR,2024-06-25_13h25.37.815,LearnStrategy,2023.2.3,MacIntel,60.24096386,7,2,13,,,,,,,,7,12,,,,,,,,,,,1,1.258,0,,,,,,-0.345667451,-0.270173373,1,0,0,1.2581,Andesite_rect,12,0,12,0,1,
65a700a7fa22d5f150d08b09,TCR,2024-06-25_13h25.37.815,LearnStrategy,2023.2.3,MacIntel,60.24096386,7,2,14,,,,,,,,6,05,,,,,,,,,,,1,2.182,0,,,,,,-0.356204516,-0.257883847,1,0,0,2.1824,Andesite_rect,13,0,13,0,1,
65a700a7fa22d5f150d08b09,TCR,2024-06-25_13h25.37.815,LearnStrategy,2023.2.3,MacIntel,60.24096386,7,2,15,,,,,,,,8,16,,,,,,,,,,,8,1.434,1,,,,,,0.373648866,-0.390665133,1,0,0,1.4335,Pumice_rect,14,0,14,0,1,
65a700a7fa22d5f150d08b09,TCR,2024-06-25_13h25.37.815,LearnStrategy,2023.2.3,MacIntel,60.24096386,7,2,16,,,,,,,,4,11,,,,,,,,,,,2,1.778,0,,,,,,-0.103743044,-0.247917559,1,0,0,1.7776,Basalt_rect,15,0,15,0,1,
65a700a7fa22d5f150d08b09,TCR,2024-06-25_13h25.37.815,LearnStrategy,2023.2.3,MacIntel,60.24096386,8,1,1,-0.084546233,-0.003553974,1,0,0,8.779,rock_grid_rect_2,6,11,-1,-1,8.779,-0.330015696,-0.244109411,1,0,0,1.5099,Andesite_rect,1,1.51,0,0,0,0,0,1,,,,,,,,,,,,,
65a700a7fa22d5f150d08b09,TCR,2024-06-25_13h25.37.815,LearnStrategy,2023.2.3,MacIntel,60.24096386,8,1,2,0.019901363,-0.020061894,1,0,0,0.7226,rock_grid_rect_2,2,06,-1,-1,0.723,-0.122667844,-0.262962864,1,0,0,1.2985,Basalt_rect,2,1.299,1,1,0,1,0,1,,,,,,,,,,,,,
65a700a7fa22d5f150d08b09,TCR,2024-06-25_13h25.37.815,LearnStrategy,2023.2.3,MacIntel,60.24096386,8,1,3,0.006251784,0.008267337,1,0,0,0.7327,rock_grid_rect_2,2,10,-1,-1,0.733,-0.148522225,-0.233951377,1,0,0,1.0791,Basalt_rect,2,1.079,1,2,0,2,0,1,,,,,,,,,,,,,
65a700a7fa22d5f150d08b09,TCR,2024-06-25_13h25.37.815,LearnStrategy,2023.2.3,MacIntel,60.24096386,8,1,4,0.002853881,-0.014202519,1,0,0,0.6117,rock_grid_rect_2,1,06,-1,-1,0.612,0.386513627,-0.253157106,1,0,0,2.001,Gabbro_rect,4,2.001,0,3,0,3,0,1,,,,,,,,,,,,,
65a700a7fa22d5f150d08b09,TCR,2024-06-25_13h25.37.815,LearnStrategy,2023.2.3,MacIntel,60.24096386,8,1,5,0.015250428,0.019656107,1,0,0,0.5823,rock_grid_rect_2,4,15,-1,-1,0.582,0.423895013,-0.256992009,1,0,0,1.1083,Gabbro_rect,4,1.108,1,4,0,4,0,1,,,,,,,,,,,,,
65a700a7fa22d5f150d08b09,TCR,2024-06-25_13h25.37.815,LearnStrategy,2023.2.3,MacIntel,60.24096386,8,1,6,0.080969963,-0.020084189,1,0,0,0.5832,rock_grid_rect_2,6,08,-1,-1,0.583,-0.312103132,-0.245679045,1,0,0,1.0566,Andesite_rect,1,1.057,0,5,0,5,0,1,,,,,,,,,,,,,
65a700a7fa22d5f150d08b09,TCR,2024-06-25_13h25.37.815,LearnStrategy,2023.2.3,MacIntel,60.24096386,8,1,7,0.019393015,-0.01243668,1,0,0,0.7254,rock_grid_rect_2,4,15,-1,-1,0.725,-0.355870077,-0.251993258,1,0,0,1.4385,Andesite_rect,1,1.438,0,6,0,6,0,1,,,,,,,,,,,,,
65a700a7fa22d5f150d08b09,TCR,2024-06-25_13h25.37.815,LearnStrategy,2023.2.3,MacIntel,60.24096386,8,1,8,0.050928403,-0.021377354,1,0,0,0.9881,rock_grid_rect_2,2,09,-1,-1,0.988,-0.118569849,-0.258334225,1,0,0,1.9799,Basalt_rect,2,1.98,1,7,0,7,0,1,,,,,,,,,,,,,
65a700a7fa22d5f150d08b09,TCR,2024-06-25_13h25.37.815,LearnStrategy,2023.2.3,MacIntel,60.24096386,8,1,9,0.000205123,-0.002283105,1,0,0,0.6015,rock_grid_rect_2,6,11,-1,-1,0.601,0.370777148,-0.252671055,1,0,0,1.3387,Gabbro_rect,4,1.339,0,8,0,8,0,1,,,,,,,,,,,,,
65a700a7fa22d5f150d08b09,TCR,2024-06-25_13h25.37.815,LearnStrategy,2023.2.3,MacIntel,60.24096386,8,1,10,0.052270619,-0.015049765,1,0,0,0.6727,rock_grid_rect_2,1,04,-1,-1,0.673,-0.336227347,-0.252818208,1,0,0,2.2211,Andesite_rect,1,2.221,1,9,0,9,0,1,,,,,,,,,,,,,
65a700a7fa22d5f150d08b09,TCR,2024-06-25_13h25.37.815,LearnStrategy,2023.2.3,MacIntel,60.24096386,8,1,11,-0.0014314,-0.010889341,1,0,0,0.7411,rock_grid_rect_2,7,13,-1,-1,0.741,-0.086775828,-0.385826912,1,0,0,1.4246,Pegmatite_rect,6,1.425,0,10,0,10,0,1,,,,,,,,,,,,,
65a700a7fa22d5f150d08b09,TCR,2024-06-25_13h25.37.815,LearnStrategy,2023.2.3,MacIntel,60.24096386,8,1,12,0.048065604,7.58062E-05,1,0,0,0.6435,rock_grid_rect_2,7,10,-1,-1,0.644,-0.088051156,-0.401808647,1,0,0,1.6241,Pegmatite_rect,6,1.624,0,11,0,11,0,1,,,,,,,,,,,,,
65a700a7fa22d5f150d08b09,TCR,2024-06-25_13h25.37.815,LearnStrategy,2023.2.3,MacIntel,60.24096386,8,1,13,0.016222531,-0.008129102,1,0,0,0.9039,rock_grid_rect_2,4,13,-1,-1,0.904,0.379592965,-0.260902718,1,0,0,1.5553,Gabbro_rect,4,1.555,1,12,0,12,0,1,,,,,,,,,,,,,
65a700a7fa22d5f150d08b09,TCR,2024-06-25_13h25.37.815,LearnStrategy,2023.2.3,MacIntel,60.24096386,8,1,14,0.092657499,-0.003861658,1,0,0,0.9035,rock_grid_rect_2,8,05,-1,-1,0.904,0.376654359,-0.392181257,1,0,0,0.9069,Pumice_rect,8,0.907,1,13,0,13,0,1,,,,,,,,,,,,,
65a700a7fa22d5f150d08b09,TCR,2024-06-25_13h25.37.815,LearnStrategy,2023.2.3,MacIntel,60.24096386,8,1,15,0.0715254,-0.010488014,1,0,0,0.6534,rock_grid_rect_2,3,16,-1,-1,0.653,0.074669128,-0.258909461,1,0,0,1.211,Diorite_rect,3,1.211,1,14,0,14,0,1,,,,,,,,,,,,,
65a700a7fa22d5f150d08b09,TCR,2024-06-25_13h25.37.815,LearnStrategy,2023.2.3,MacIntel,60.24096386,8,1,16,0.070620184,-0.003313178,1,0,0,0.6365,rock_grid_rect_2,1,01,-1,-1,0.637,-0.088042237,-0.249389091,1,0,0,1.5566,Basalt_rect,2,1.557,0,15,0,15,0,1,,,,,,,,,,,,,
65a700a7fa22d5f150d08b09,TCR,2024-06-25_13h25.37.815,LearnStrategy,2023.2.3,MacIntel,60.24096386,8,2,1,,,,,,,,1,16,,,,,,,,,,,1,1.463,1,,,,,,-0.332726884,-0.250597531,1,0,0,1.4633,Andesite_rect,0,0,0,0,1,
65a700a7fa22d5f150d08b09,TCR,2024-06-25_13h25.37.815,LearnStrategy,2023.2.3,MacIntel,60.24096386,8,2,2,,,,,,,,7,04,,,,,,,,,,,6,1.502,0,,,,,,-0.109160959,-0.403351527,1,0,0,1.5017,Pegmatite_rect,1,0,1,0,1,
65a700a7fa22d5f150d08b09,TCR,2024-06-25_13h25.37.815,LearnStrategy,2023.2.3,MacIntel,60.24096386,8,2,3,,,,,,,,4,14,,,,,,,,,,,2,1.589,0,,,,,,-0.126016695,-0.253290882,1,0,0,1.5887,Basalt_rect,2,0,2,0,1,
65a700a7fa22d5f150d08b09,TCR,2024-06-25_13h25.37.815,LearnStrategy,2023.2.3,MacIntel,60.24096386,8,2,4,,,,,,,,6,15,,,,,,,,,,,6,0.992,1,,,,,,-0.112335902,-0.405576662,1,0,0,0.9918,Pegmatite_rect,3,0,3,0,1,
65a700a7fa22d5f150d08b09,TCR,2024-06-25_13h25.37.815,LearnStrategy,2023.2.3,MacIntel,60.24096386,8,2,5,,,,,,,,8,14,,,,,,,,,,,8,1.03,1,,,,,,0.397233519,-0.391062001,1,0,0,1.0303,Pumice_rect,4,0,4,0,1,
65a700a7fa22d5f150d08b09,TCR,2024-06-25_13h25.37.815,LearnStrategy,2023.2.3,MacIntel,60.24096386,8,2,6,,,,,,,,7,14,,,,,,,,,,,1,2.756,0,,,,,,-0.444714969,-0.265397581,1,0,0,2.7559,Andesite_rect,5,0,5,0,1,
65a700a7fa22d5f150d08b09,TCR,2024-06-25_13h25.37.815,LearnStrategy,2023.2.3,MacIntel,60.24096386,8,2,7,,,,,,,,2,01,,,,,,,,,,,4,1.876,0,,,,,,0.35739512,-0.251663278,1,0,0,1.8755,Gabbro_rect,6,0,6,0,1,
65a700a7fa22d5f150d08b09,TCR,2024-06-25_13h25.37.815,LearnStrategy,2023.2.3,MacIntel,60.24096386,8,2,8,,,,,,,,6,12,,,,,,,,,,,3,1.073,0,,,,,,0.160793914,-0.257188213,1,0,0,1.0735,Diorite_rect,7,0,7,0,1,
65a700a7fa22d5f150d08b09,TCR,2024-06-25_13h25.37.815,LearnStrategy,2023.2.3,MacIntel,60.24096386,8,2,9,,,,,,,,3,13,,,,,,,,,,,3,1.575,1,,,,,,0.125637664,-0.248452661,1,0,0,1.5746,Diorite_rect,8,0,8,0,1,
65a700a7fa22d5f150d08b09,TCR,2024-06-25_13h25.37.815,LearnStrategy,2023.2.3,MacIntel,60.24096386,8,2,10,,,,,,,,2,14,,,,,,,,,,,2,1.319,1,,,,,,-0.10007759,-0.255658711,1,0,0,1.3187,Basalt_rect,9,0,9,0,1,
65a700a7fa22d5f150d08b09,TCR,2024-06-25_13h25.37.815,LearnStrategy,2023.2.3,MacIntel,60.24096386,8,2,11,,,,,,,,5,05,,,,,,,,,,,5,0.975,1,,,,,,-0.421553938,-0.380083476,1,0,0,0.9749,Obsidian_rect,10,0,10,0,1,
65a700a7fa22d5f150d08b09,TCR,2024-06-25_13h25.37.815,LearnStrategy,2023.2.3,MacIntel,60.24096386,8,2,12,,,,,,,,3,15,,,,,,,,,,,1,3.598,0,,,,,,-0.379650935,-0.247627711,1,0,0,3.5984,Andesite_rect,11,0,11,0,1,
65a700a7fa22d5f150d08b09,TCR,2024-06-25_13h25.37.815,LearnStrategy,2023.2.3,MacIntel,60.24096386,8,2,13,,,,,,,,4,03,,,,,,,,,,,1,1.635,0,,,,,,-0.360280215,-0.254887272,1,0,0,1.6354,Andesite_rect,12,0,12,0,1,
65a700a7fa22d5f150d08b09,TCR,2024-06-25_13h25.37.815,LearnStrategy,2023.2.3,MacIntel,60.24096386,8,2,14,,,,,,,,5,12,,,,,,,,,,,5,0.74,1,,,,,,-0.3846809,-0.394870148,1,0,0,0.7401,Obsidian_rect,13,0,13,0,1,
65a700a7fa22d5f150d08b09,TCR,2024-06-25_13h25.37.815,LearnStrategy,2023.2.3,MacIntel,60.24096386,8,2,15,,,,,,,,8,02,,,,,,,,,,,8,0.789,1,,,,,,0.37246718,-0.385158034,1,0,0,0.7886,Pumice_rect,14,0,14,0,1,
65a700a7fa22d5f150d08b09,TCR,2024-06-25_13h25.37.815,LearnStrategy,2023.2.3,MacIntel,60.24096386,8,2,16,,,,,,,,1,11,,,,,,,,,,,2,1.266,0,,,,,,-0.123822774,-0.264037529,1,0,0,1.2657,Basalt_rect,15,0,15,0,1,
65a700a7fa22d5f150d08b09,TCR,2024-06-25_13h25.37.815,LearnStrategy,2023.2.3,MacIntel,60.24096386,9,1,1,0.081683433,-0.012414384,1,0,0,0.882,rock_grid_rect_2,2,09,-1,-1,0.882,-0.362701555,-0.254276363,1,0,0,1.5536,Andesite_rect,1,1.554,0,0,0,0,0,1,,,,,,,,,,,,,
65a700a7fa22d5f150d08b09,TCR,2024-06-25_13h25.37.815,LearnStrategy,2023.2.3,MacIntel,60.24096386,9,1,2,-0.058299443,-0.014149008,1,0,0,0.5994,rock_grid_rect_2,1,10,-1,-1,0.599,0.435154466,-0.389166845,1,0,0,1.4456,Pumice_rect,8,1.446,0,1,0,1,0,1,,,,,,,,,,,,,
65a700a7fa22d5f150d08b09,TCR,2024-06-25_13h25.37.815,LearnStrategy,2023.2.3,MacIntel,60.24096386,9,1,3,-0.065835474,0.013154609,1,0,0,0.632,rock_grid_rect_2,4,12,-1,-1,0.632,-0.185863477,-0.258325307,1,0,0,2.3762,Basalt_rect,2,2.376,0,2,0,2,0,1,,,,,,,,,,,,,
65a700a7fa22d5f150d08b09,TCR,2024-06-25_13h25.37.815,LearnStrategy,2023.2.3,MacIntel,60.24096386,9,1,4,0.043610873,0.013029752,1,0,0,2.7227,rock_grid_rect_2,6,08,-1,-1,2.723,-0.052533711,-0.394290454,1,0,0,1.7162,Pegmatite_rect,6,1.716,1,3,0,3,0,1,,,,,,,,,,,,,
65a700a7fa22d5f150d08b09,TCR,2024-06-25_13h25.37.815,LearnStrategy,2023.2.3,MacIntel,60.24096386,9,1,5,0.046027754,0.008097888,1,0,0,3.0403,rock_grid_rect_2,1,07,-1,-1,3.04,-0.391258205,-0.260929473,1,0,0,1.3871,Andesite_rect,1,1.387,1,4,0,4,0,1,,,,,,,,,,,,,
65a700a7fa22d5f150d08b09,TCR,2024-06-25_13h25.37.815,LearnStrategy,2023.2.3,MacIntel,60.24096386,9,1,6,-0.000129316,-0.009284033,1,0,0,0.6383,rock_grid_rect_2,2,10,-1,-1,0.638,-0.371633312,-0.242423837,1,0,0,8.3615,Andesite_rect,1,8.361,0,5,0,5,0,1,,,,,,,,,,,,,
65a700a7fa22d5f150d08b09,TCR,2024-06-25_13h25.37.815,LearnStrategy,2023.2.3,MacIntel,60.24096386,9,1,7,0.02073969,0.006853774,1,0,0,0.649,rock_grid_rect_2,7,15,-1,-1,0.649,-0.074423873,-0.418771404,1,0,0,1.5175,Pegmatite_rect,6,1.518,0,6,0,6,0,1,,,,,,,,,,,,,
65a700a7fa22d5f150d08b09,TCR,2024-06-25_13h25.37.815,LearnStrategy,2023.2.3,MacIntel,60.24096386,9,1,8,0.027589005,-0.003785852,1,0,0,0.7356,rock_grid_rect_2,7,15,-1,-1,0.736,0.07807149,-0.399842145,1,0,0,1.0194,Peridotite_rect,7,1.019,1,7,0,7,0,1,,,,,,,,,,,,,
65a700a7fa22d5f150d08b09,TCR,2024-06-25_13h25.37.815,LearnStrategy,2023.2.3,MacIntel,60.24096386,9,1,9,0.063851134,-0.001627604,1,0,0,0.8749,rock_grid_rect_2,4,15,-1,-1,0.875,-0.357769692,-0.262280608,1,0,0,5.5467,Andesite_rect,1,5.547,0,8,0,8,0,1,,,,,,,,,,,,,
65a700a7fa22d5f150d08b09,TCR,2024-06-25_13h25.37.815,LearnStrategy,2023.2.3,MacIntel,60.24096386,9,1,10,-0.02591235,-0.021533426,1,0,0,0.5731,rock_grid_rect_2,1,04,-1,-1,0.573,-0.359410674,-0.244015768,1,0,0,1.806,Andesite_rect,1,1.806,1,9,0,9,0,1,,,,,,,,,,,,,
65a700a7fa22d5f150d08b09,TCR,2024-06-25_13h25.37.815,LearnStrategy,2023.2.3,MacIntel,60.24096386,9,1,11,-0.057184646,-0.015072061,1,0,0,0.9666,rock_grid_rect_2,2,11,-1,-1,0.967,-0.097812322,-0.256956336,1,0,0,3.5349,Basalt_rect,2,3.535,1,10,0,10,0,1,,,,,,,,,,,,,
65a700a7fa22d5f150d08b09,TCR,2024-06-25_13h25.37.815,LearnStrategy,2023.2.3,MacIntel,60.24096386,9,1,12,-0.048257349,-0.007388877,1,0,0,0.6042,rock_grid_rect_2,4,01,-1,-1,0.604,-0.118360267,-0.254320955,1,0,0,5.6234,Basalt_rect,2,5.623,0,11,0,11,0,1,,,,,,,,,,,,,
65a700a7fa22d5f150d08b09,TCR,2024-06-25_13h25.37.815,LearnStrategy,2023.2.3,MacIntel,60.24096386,9,1,13,0.020378496,-0.005868293,1,0,0,0.8562,rock_grid_rect_2,6,11,-1,-1,0.856,-0.089785781,-0.407926655,1,0,0,1.3005,Pegmatite_rect,6,1.301,1,12,0,12,0,1,,,,,,,,,,,,,
65a700a7fa22d5f150d08b09,TCR,2024-06-25_13h25.37.815,LearnStrategy,2023.2.3,MacIntel,60.24096386,9,1,14,-0.00203339,-0.02244756,1,0,0,0.5583,rock_grid_rect_2,6,06,-1,-1,0.558,0.087386737,-0.24647724,1,0,0,1.2868,Diorite_rect,3,1.287,0,13,0,13,0,1,,,,,,,,,,,,,
65a700a7fa22d5f150d08b09,TCR,2024-06-25_13h25.37.815,LearnStrategy,2023.2.3,MacIntel,60.24096386,9,1,15,-0.058040811,-0.017948238,1,0,0,0.622,rock_grid_rect_2,7,16,-1,-1,0.622,0.084238549,-0.389394264,1,0,0,0.9991,Peridotite_rect,7,0.999,1,14,0,14,0,1,,,,,,,,,,,,,
65a700a7fa22d5f150d08b09,TCR,2024-06-25_13h25.37.815,LearnStrategy,2023.2.3,MacIntel,60.24096386,9,1,16,-0.020677262,0.017364084,1,0,0,0.6173,rock_grid_rect_2,3,10,-1,-1,0.617,-0.416983269,-0.233679366,1,0,0,1.1633,Andesite_rect,1,1.163,0,15,0,15,0,1,,,,,,,,,,,,,
65a700a7fa22d5f150d08b09,TCR,2024-06-25_13h25.37.815,LearnStrategy,2023.2.3,MacIntel,60.24096386,9,2,1,,,,,,,,6,16,,,,,,,,,,,3,1.263,0,,,,,,0.122765946,-0.248363477,1,0,0,1.2634,Diorite_rect,0,0,0,0,1,
65a700a7fa22d5f150d08b09,TCR,2024-06-25_13h25.37.815,LearnStrategy,2023.2.3,MacIntel,60.24096386,9,2,2,,,,,,,,7,05,,,,,,,,,,,1,2.51,0,,,,,,-0.431952768,-0.251480451,1,0,0,2.5096,Andesite_rect,1,0,1,0,1,
65a700a7fa22d5f150d08b09,TCR,2024-06-25_13h25.37.815,LearnStrategy,2023.2.3,MacIntel,60.24096386,9,2,3,,,,,,,,3,08,,,,,,,,,,,3,1.012,1,,,,,,0.171714469,-0.252965361,1,0,0,1.0118,Diorite_rect,2,0,2,0,1,
65a700a7fa22d5f150d08b09,TCR,2024-06-25_13h25.37.815,LearnStrategy,2023.2.3,MacIntel,60.24096386,9,2,4,,,,,,,,2,05,,,,,,,,,,,4,2.074,0,,,,,,0.366433897,-0.255373323,1,0,0,2.0738,Gabbro_rect,3,0,3,0,1,
65a700a7fa22d5f150d08b09,TCR,2024-06-25_13h25.37.815,LearnStrategy,2023.2.3,MacIntel,60.24096386,9,2,5,,,,,,,,1,09,,,,,,,,,,,4,2.41,0,,,,,,0.440786423,-0.257669806,1,0,0,2.4096,Gabbro_rect,4,0,4,0,1,
65a700a7fa22d5f150d08b09,TCR,2024-06-25_13h25.37.815,LearnStrategy,2023.2.3,MacIntel,60.24096386,9,2,6,,,,,,,,7,06,,,,,,,,,,,6,2.997,0,,,,,,-0.151425157,-0.402267944,1,0,0,2.9969,Pegmatite_rect,5,0,5,0,1,
65a700a7fa22d5f150d08b09,TCR,2024-06-25_13h25.37.815,LearnStrategy,2023.2.3,MacIntel,60.24096386,9,2,7,,,,,,,,4,10,,,,,,,,,,,1,2.577,0,,,,,,-0.334532855,-0.23657784,1,0,0,2.5766,Andesite_rect,6,0,6,0,1,
65a700a7fa22d5f150d08b09,TCR,2024-06-25_13h25.37.815,LearnStrategy,2023.2.3,MacIntel,60.24096386,9,2,8,,,,,,,,6,13,,,,,,,,,,,1,3.31,0,,,,,,-0.381091253,-0.24251748,1,0,0,3.31,Andesite_rect,7,0,7,0,1,
65a700a7fa22d5f150d08b09,TCR,2024-06-25_13h25.37.815,LearnStrategy,2023.2.3,MacIntel,60.24096386,9,2,9,,,,,,,,1,03,,,,,,,,,,,2,1.445,0,,,,,,-0.137695313,-0.236381635,1,0,0,1.4454,Basalt_rect,8,0,8,0,1,
65a700a7fa22d5f150d08b09,TCR,2024-06-25_13h25.37.815,LearnStrategy,2023.2.3,MacIntel,60.24096386,9,2,10,,,,,,,,4,16,,,,,,,,,,,4,2.623,1,,,,,,0.328972246,-0.266427654,1,0,0,2.6226,Gabbro_rect,9,0,9,0,1,
65a700a7fa22d5f150d08b09,TCR,2024-06-25_13h25.37.815,LearnStrategy,2023.2.3,MacIntel,60.24096386,9,2,11,,,,,,,,2,12,,,,,,,,,,,8,3.986,0,,,,,,0.37483501,-0.401897831,1,0,0,3.986,Pumice_rect,10,0,10,0,1,
65a700a7fa22d5f150d08b09,TCR,2024-06-25_13h25.37.815,LearnStrategy,2023.2.3,MacIntel,60.24096386,9,2,12,,,,,,,,5,09,,,,,,,,,,,5,0.935,1,,,,,,-0.387307363,-0.389291702,1,0,0,0.9353,Obsidian_rect,11,0,11,0,1,
65a700a7fa22d5f150d08b09,TCR,2024-06-25_13h25.37.815,LearnStrategy,2023.2.3,MacIntel,60.24096386,9,2,13,,,,,,,,8,10,,,,,,,,,,,8,1.398,1,,,,,,0.350260417,-0.393826698,1,0,0,1.3981,Pumice_rect,12,0,12,0,1,
65a700a7fa22d5f150d08b09,TCR,2024-06-25_13h25.37.815,LearnStrategy,2023.2.3,MacIntel,60.24096386,9,2,14,,,,,,,,3,12,,,,,,,,,,,3,1.951,1,,,,,,0.238847567,-0.261714291,1,0,0,1.9508,Diorite_rect,13,0,13,0,1,
65a700a7fa22d5f150d08b09,TCR,2024-06-25_13h25.37.815,LearnStrategy,2023.2.3,MacIntel,60.24096386,9,2,15,,,,,,,,8,04,,,,,,,,,,,8,0.856,1,,,,,,0.355722924,-0.420456978,1,0,0,0.8557,Pumice_rect,14,0,14,0,1,
65a700a7fa22d5f150d08b09,TCR,2024-06-25_13h25.37.815,LearnStrategy,2023.2.3,MacIntel,60.24096386,9,2,16,,,,,,,,5,02,,,,,,,,,,,5,0.888,1,,,,,,-0.328981164,-0.379530537,1,0,0,0.8876,Obsidian_rect,15,0,15,0,1,
65a700a7fa22d5f150d08b09,TCR,2024-06-25_13h25.37.815,LearnStrategy,2023.2.3,MacIntel,60.24096386,,,,,,,,,,,,,,,,,,,,,,,,,,,,,,,,,,,,,,,,,,,0
65a700a7fa22d5f150d08b09,TCR,2024-06-25_13h25.37.815,LearnStrategy,2023.2.3,MacIntel,60.24096386,,,,,,,,,,,,,,,,,,,,,,,,,,,,,,,,,,,,,,,,,,,
65a700a7fa22d5f150d08b09,TCR,2024-06-25_13h25.37.815,LearnStrategy,2023.2.3,MacIntel,60.24096386,,,,,,,,,,,4,12,1,1,,,,,,,,,,,,,,,,,,,,,,,,,,,,,
65a700a7fa22d5f150d08b09,TCR,2024-06-25_13h25.37.815,LearnStrategy,2023.2.3,MacIntel,60.24096386,,,,,,,,,,,6,03,1,2,,,,,,,,,,,,,,,,,,,,,,,,,,,,,
65a700a7fa22d5f150d08b09,TCR,2024-06-25_13h25.37.815,LearnStrategy,2023.2.3,MacIntel,60.24096386,,,,,,,,,,,2,06,1,3,,,,,,,,,,,,,,,,,,,,,,,,,,,,,
65a700a7fa22d5f150d08b09,TCR,2024-06-25_13h25.37.815,LearnStrategy,2023.2.3,MacIntel,60.24096386,,,,,,,,,,,2,11,1,4,,,,,,,,,,,,,,,,,,,,,,,,,,,,,
65a700a7fa22d5f150d08b09,TCR,2024-06-25_13h25.37.815,LearnStrategy,2023.2.3,MacIntel,60.24096386,,,,,,,,,,,8,03,1,5,,,,,,,,,,,,,,,,,,,,,,,,,,,,,
65a700a7fa22d5f150d08b09,TCR,2024-06-25_13h25.37.815,LearnStrategy,2023.2.3,MacIntel,60.24096386,,,,,,,,,,,8,05,1,6,,,,,,,,,,,,,,,,,,,,,,,,,,,,,
65a700a7fa22d5f150d08b09,TCR,2024-06-25_13h25.37.815,LearnStrategy,2023.2.3,MacIntel,60.24096386,,,,,,,,,,,1,04,1,7,,,,,,,,,,,,,,,,,,,,,,,,,,,,,
65a700a7fa22d5f150d08b09,TCR,2024-06-25_13h25.37.815,LearnStrategy,2023.2.3,MacIntel,60.24096386,,,,,,,,,,,3,10,1,8,,,,,,,,,,,,,,,,,,,,,,,,,,,,,
65a700a7fa22d5f150d08b09,TCR,2024-06-25_13h25.37.815,LearnStrategy,2023.2.3,MacIntel,60.24096386,,,,,,,,,,,2,08,2,1,,,,,,,,,,,,,,,,,,,,,,,,,,,,,
65a700a7fa22d5f150d08b09,TCR,2024-06-25_13h25.37.815,LearnStrategy,2023.2.3,MacIntel,60.24096386,,,,,,,,,,,6,09,2,2,,,,,,,,,,,,,,,,,,,,,,,,,,,,,
65a700a7fa22d5f150d08b09,TCR,2024-06-25_13h25.37.815,LearnStrategy,2023.2.3,MacIntel,60.24096386,,,,,,,,,,,4,01,2,3,,,,,,,,,,,,,,,,,,,,,,,,,,,,,
65a700a7fa22d5f150d08b09,TCR,2024-06-25_13h25.37.815,LearnStrategy,2023.2.3,MacIntel,60.24096386,,,,,,,,,,,6,08,2,4,,,,,,,,,,,,,,,,,,,,,,,,,,,,,
65a700a7fa22d5f150d08b09,TCR,2024-06-25_13h25.37.815,LearnStrategy,2023.2.3,MacIntel,60.24096386,,,,,,,,,,,1,05,2,5,,,,,,,,,,,,,,,,,,,,,,,,,,,,,
65a700a7fa22d5f150d08b09,TCR,2024-06-25_13h25.37.815,LearnStrategy,2023.2.3,MacIntel,60.24096386,,,,,,,,,,,6,07,2,6,,,,,,,,,,,,,,,,,,,,,,,,,,,,,
65a700a7fa22d5f150d08b09,TCR,2024-06-25_13h25.37.815,LearnStrategy,2023.2.3,MacIntel,60.24096386,,,,,,,,,,,7,13,2,7,,,,,,,,,,,,,,,,,,,,,,,,,,,,,
65a700a7fa22d5f150d08b09,TCR,2024-06-25_13h25.37.815,LearnStrategy,2023.2.3,MacIntel,60.24096386,,,,,,,,,,,7,07,2,8,,,,,,,,,,,,,,,,,,,,,,,,,,,,,
65a700a7fa22d5f150d08b09,TCR,2024-06-25_13h25.37.815,LearnStrategy,2023.2.3,MacIntel,60.24096386,,,,,,,,,,,1,07,3,1,,,,,,,,,,,,,,,,,,,,,,,,,,,,,
65a700a7fa22d5f150d08b09,TCR,2024-06-25_13h25.37.815,LearnStrategy,2023.2.3,MacIntel,60.24096386,,,,,,,,,,,1,01,3,2,,,,,,,,,,,,,,,,,,,,,,,,,,,,,
65a700a7fa22d5f150d08b09,TCR,2024-06-25_13h25.37.815,LearnStrategy,2023.2.3,MacIntel,60.24096386,,,,,,,,,,,5,16,3,3,,,,,,,,,,,,,,,,,,,,,,,,,,,,,
65a700a7fa22d5f150d08b09,TCR,2024-06-25_13h25.37.815,LearnStrategy,2023.2.3,MacIntel,60.24096386,,,,,,,,,,,2,09,3,4,,,,,,,,,,,,,,,,,,,,,,,,,,,,,
65a700a7fa22d5f150d08b09,TCR,2024-06-25_13h25.37.815,LearnStrategy,2023.2.3,MacIntel,60.24096386,,,,,,,,,,,3,14,3,5,,,,,,,,,,,,,,,,,,,,,,,,,,,,,
65a700a7fa22d5f150d08b09,TCR,2024-06-25_13h25.37.815,LearnStrategy,2023.2.3,MacIntel,60.24096386,,,,,,,,,,,7,10,3,6,,,,,,,,,,,,,,,,,,,,,,,,,,,,,
65a700a7fa22d5f150d08b09,TCR,2024-06-25_13h25.37.815,LearnStrategy,2023.2.3,MacIntel,60.24096386,,,,,,,,,,,2,10,3,7,,,,,,,,,,,,,,,,,,,,,,,,,,,,,
65a700a7fa22d5f150d08b09,TCR,2024-06-25_13h25.37.815,LearnStrategy,2023.2.3,MacIntel,60.24096386,,,,,,,,,,,8,09,3,8,,,,,,,,,,,,,,,,,,,,,,,,,,,,,
65a700a7fa22d5f150d08b09,TCR,2024-06-25_13h25.37.815,LearnStrategy,2023.2.3,MacIntel,60.24096386,,,,,,,,,,,8,08,4,1,,,,,,,,,,,,,,,,,,,,,,,,,,,,,
65a700a7fa22d5f150d08b09,TCR,2024-06-25_13h25.37.815,LearnStrategy,2023.2.3,MacIntel,60.24096386,,,,,,,,,,,6,11,4,2,,,,,,,,,,,,,,,,,,,,,,,,,,,,,
65a700a7fa22d5f150d08b09,TCR,2024-06-25_13h25.37.815,LearnStrategy,2023.2.3,MacIntel,60.24096386,,,,,,,,,,,4,05,4,3,,,,,,,,,,,,,,,,,,,,,,,,,,,,,
65a700a7fa22d5f150d08b09,TCR,2024-06-25_13h25.37.815,LearnStrategy,2023.2.3,MacIntel,60.24096386,,,,,,,,,,,7,15,4,4,,,,,,,,,,,,,,,,,,,,,,,,,,,,,
65a700a7fa22d5f150d08b09,TCR,2024-06-25_13h25.37.815,LearnStrategy,2023.2.3,MacIntel,60.24096386,,,,,,,,,,,1,06,4,5,,,,,,,,,,,,,,,,,,,,,,,,,,,,,
65a700a7fa22d5f150d08b09,TCR,2024-06-25_13h25.37.815,LearnStrategy,2023.2.3,MacIntel,60.24096386,,,,,,,,,,,5,07,4,6,,,,,,,,,,,,,,,,,,,,,,,,,,,,,
65a700a7fa22d5f150d08b09,TCR,2024-06-25_13h25.37.815,LearnStrategy,2023.2.3,MacIntel,60.24096386,,,,,,,,,,,3,16,4,7,,,,,,,,,,,,,,,,,,,,,,,,,,,,,
65a700a7fa22d5f150d08b09,TCR,2024-06-25_13h25.37.815,LearnStrategy,2023.2.3,MacIntel,60.24096386,,,,,,,,,,,3,02,4,8,,,,,,,,,,,,,,,,,,,,,,,,,,,,,
65a700a7fa22d5f150d08b09,TCR,2024-06-25_13h25.37.815,LearnStrategy,2023.2.3,MacIntel,60.24096386,,,,,,,,,,,5,08,5,1,,,,,,,,,,,,,,,,,,,,,,,,,,,,,
65a700a7fa22d5f150d08b09,TCR,2024-06-25_13h25.37.815,LearnStrategy,2023.2.3,MacIntel,60.24096386,,,,,,,,,,,4,08,5,2,,,,,,,,,,,,,,,,,,,,,,,,,,,,,
65a700a7fa22d5f150d08b09,TCR,2024-06-25_13h25.37.815,LearnStrategy,2023.2.3,MacIntel,60.24096386,,,,,,,,,,,5,10,5,3,,,,,,,,,,,,,,,,,,,,,,,,,,,,,
65a700a7fa22d5f150d08b09,TCR,2024-06-25_13h25.37.815,LearnStrategy,2023.2.3,MacIntel,60.24096386,,,,,,,,,,,3,11,5,4,,,,,,,,,,,,,,,,,,,,,,,,,,,,,
65a700a7fa22d5f150d08b09,TCR,2024-06-25_13h25.37.815,LearnStrategy,2023.2.3,MacIntel,60.24096386,,,,,,,,,,,1,10,5,5,,,,,,,,,,,,,,,,,,,,,,,,,,,,,
65a700a7fa22d5f150d08b09,TCR,2024-06-25_13h25.37.815,LearnStrategy,2023.2.3,MacIntel,60.24096386,,,,,,,,,,,8,15,5,6,,,,,,,,,,,,,,,,,,,,,,,,,,,,,
65a700a7fa22d5f150d08b09,TCR,2024-06-25_13h25.37.815,LearnStrategy,2023.2.3,MacIntel,60.24096386,,,,,,,,,,,8,06,5,7,,,,,,,,,,,,,,,,,,,,,,,,,,,,,
65a700a7fa22d5f150d08b09,TCR,2024-06-25_13h25.37.815,LearnStrategy,2023.2.3,MacIntel,60.24096386,,,,,,,,,,,6,06,5,8,,,,,,,,,,,,,,,,,,,,,,,,,,,,,
65a700a7fa22d5f150d08b09,TCR,2024-06-25_13h25.37.815,LearnStrategy,2023.2.3,MacIntel,60.24096386,,,,,,,,,,,7,16,6,1,,,,,,,,,,,,,,,,,,,,,,,,,,,,,
65a700a7fa22d5f150d08b09,TCR,2024-06-25_13h25.37.815,LearnStrategy,2023.2.3,MacIntel,60.24096386,,,,,,,,,,,5,06,6,2,,,,,,,,,,,,,,,,,,,,,,,,,,,,,
65a700a7fa22d5f150d08b09,TCR,2024-06-25_13h25.37.815,LearnStrategy,2023.2.3,MacIntel,60.24096386,,,,,,,,,,,3,06,6,3,,,,,,,,,,,,,,,,,,,,,,,,,,,,,
65a700a7fa22d5f150d08b09,TCR,2024-06-25_13h25.37.815,LearnStrategy,2023.2.3,MacIntel,60.24096386,,,,,,,,,,,7,02,6,4,,,,,,,,,,,,,,,,,,,,,,,,,,,,,
65a700a7fa22d5f150d08b09,TCR,2024-06-25_13h25.37.815,LearnStrategy,2023.2.3,MacIntel,60.24096386,,,,,,,,,,,4,15,6,5,,,,,,,,,,,,,,,,,,,,,,,,,,,,,
65a700a7fa22d5f150d08b09,TCR,2024-06-25_13h25.37.815,LearnStrategy,2023.2.3,MacIntel,60.24096386,,,,,,,,,,,4,13,6,6,,,,,,,,,,,,,,,,,,,,,,,,,,,,,
65a700a7fa22d5f150d08b09,TCR,2024-06-25_13h25.37.815,LearnStrategy,2023.2.3,MacIntel,60.24096386,,,,,,,,,,,2,16,6,7,,,,,,,,,,,,,,,,,,,,,,,,,,,,,
65a700a7fa22d5f150d08b09,TCR,2024-06-25_13h25.37.815,LearnStrategy,2023.2.3,MacIntel,60.24096386,,,,,,,,,,,5,04,6,8,,,,,,,,,,,,,,,,,,,,,,,,,,,,,