participant,condition,date,expName,psychopyVersion,OS,frameRate,block,phase,trial,learn_mouse_2.x,learn_mouse_2.y,learn_mouse_2.leftButton,learn_mouse_2.midButton,learn_mouse_2.rightButton,learn_mouse_2.time,learn_mouse_2.clicked_name,cat,token,row,col,t_select,cat_mouse_l.x,cat_mouse_l.y,cat_mouse_l.leftButton,cat_mouse_l.midButton,cat_mouse_l.rightButton,cat_mouse_l.time,cat_mouse_l.clicked_name,resp,t_resp,corr,train_trials.thisRepN,train_trials.thisTrialN,train_trials.thisN,train_trials.thisIndex,train_trials.ran,cat_mouse_t.x,cat_mouse_t.y,cat_mouse_t.leftButton,cat_mouse_t.midButton,cat_mouse_t.rightButton,cat_mouse_t.time,cat_mouse_t.clicked_name,test_trials.thisRepN,test_trials.thisTrialN,test_trials.thisN,test_trials.thisIndex,test_trials.ran,Bonus
65b4a836392d139322ec485b,TCN,2024-06-24_17h35.14.508,LearnStrategy,2023.2.3,Win32,60.0240096,,,,,,,,,,,,,,,,,,,,,,,,,,,,,,,,,,,,,,,,,,,
65b4a836392d139322ec485b,TCN,2024-06-24_17h35.14.508,LearnStrategy,2023.2.3,Win32,60.0240096,1,1,1,0.129166667,-0.009722222,1,0,0,3.147,rock_grid_rect_2,2,11,-1,-1,3.147,0.401388889,-0.248611111,1,0,0,6.255,Gabbro_rect,4,6.255,0,0,0,0,0,1,,,,,,,,,,,,,
65b4a836392d139322ec485b,TCN,2024-06-24_17h35.14.508,LearnStrategy,2023.2.3,Win32,60.0240096,1,1,2,0.095833333,-0.018055556,1,0,0,2.979,rock_grid_rect_2,3,11,-1,-1,2.979,-0.093055556,-0.4,1,0,0,4.377,Pegmatite_rect,6,4.377,0,1,0,1,0,1,,,,,,,,,,,,,
65b4a836392d139322ec485b,TCN,2024-06-24_17h35.14.508,LearnStrategy,2023.2.3,Win32,60.0240096,1,1,3,0.130555556,0.005555556,1,0,0,1.406,rock_grid_rect_2,7,14,-1,-1,1.406,-0.35,-0.398611111,1,0,0,6.077,Obsidian_rect,5,6.077,0,2,0,2,0,1,,,,,,,,,,,,,
65b4a836392d139322ec485b,TCN,2024-06-24_17h35.14.508,LearnStrategy,2023.2.3,Win32,60.0240096,1,1,4,0.093055556,-0.004166667,1,0,0,1.143,rock_grid_rect_2,6,15,-1,-1,1.143,-0.131944444,-0.398611111,1,0,0,3.506,Pegmatite_rect,6,3.506,1,3,0,3,0,1,,,,,,,,,,,,,
65b4a836392d139322ec485b,TCN,2024-06-24_17h35.14.508,LearnStrategy,2023.2.3,Win32,60.0240096,1,1,5,0.123611111,-0.006944444,1,0,0,0.619,rock_grid_rect_2,5,12,-1,-1,0.619,0.470833333,-0.420833333,1,0,0,1.639,Pumice_rect,8,1.639,0,4,0,4,0,1,,,,,,,,,,,,,
65b4a836392d139322ec485b,TCN,2024-06-24_17h35.14.508,LearnStrategy,2023.2.3,Win32,60.0240096,1,1,6,0.059722222,0.001388889,1,0,0,1.593,rock_grid_rect_2,1,07,-1,-1,1.593,0.445833333,-0.265277778,1,0,0,3.398,Gabbro_rect,4,3.398,0,5,0,5,0,1,,,,,,,,,,,,,
65b4a836392d139322ec485b,TCN,2024-06-24_17h35.14.508,LearnStrategy,2023.2.3,Win32,60.0240096,1,1,7,0.133333333,0.008333333,1,0,0,1.094,rock_grid_rect_2,8,14,-1,-1,1.094,-0.373611111,-0.398611111,1,0,0,2.691,Obsidian_rect,5,2.691,0,6,0,6,0,1,,,,,,,,,,,,,
65b4a836392d139322ec485b,TCN,2024-06-24_17h35.14.508,LearnStrategy,2023.2.3,Win32,60.0240096,1,1,8,0.123611111,0.001388889,1,0,0,1.611,rock_grid_rect_2,7,06,-1,-1,1.611,-0.125,-0.2375,1,0,0,2.423,Basalt_rect,2,2.423,0,7,0,7,0,1,,,,,,,,,,,,,
65b4a836392d139322ec485b,TCN,2024-06-24_17h35.14.508,LearnStrategy,2023.2.3,Win32,60.0240096,1,1,9,0.143055556,0.006944444,1,0,0,1.665,rock_grid_rect_2,4,08,-1,-1,1.665,-0.088888889,-0.268055556,1,0,0,9.865,Basalt_rect,2,9.865,0,8,0,8,0,1,,,,,,,,,,,,,
65b4a836392d139322ec485b,TCN,2024-06-24_17h35.14.508,LearnStrategy,2023.2.3,Win32,60.0240096,1,1,10,0.113888889,-0.018055556,1,0,0,0.994,rock_grid_rect_2,3,12,-1,-1,0.994,0.456944444,-0.241666667,1,0,0,9.172,Gabbro_rect,4,9.172,0,9,0,9,0,1,,,,,,,,,,,,,
65b4a836392d139322ec485b,TCN,2024-06-24_17h35.14.508,LearnStrategy,2023.2.3,Win32,60.0240096,1,1,11,0.004166667,-0.013888889,1,0,0,0.858,rock_grid_rect_2,4,13,-1,-1,0.858,0.415277778,-0.4,1,0,0,1.816,Pumice_rect,8,1.816,0,10,0,10,0,1,,,,,,,,,,,,,
65b4a836392d139322ec485b,TCN,2024-06-24_17h35.14.508,LearnStrategy,2023.2.3,Win32,60.0240096,1,1,12,0.093055556,-0.004166667,1,0,0,0.932,rock_grid_rect_2,6,13,-1,-1,0.932,-0.104166667,-0.4,1,0,0,2.944,Pegmatite_rect,6,2.944,1,11,0,11,0,1,,,,,,,,,,,,,
65b4a836392d139322ec485b,TCN,2024-06-24_17h35.14.508,LearnStrategy,2023.2.3,Win32,60.0240096,1,1,13,-0.005555556,0.004166667,1,0,0,8.009,rock_grid_rect_2,2,06,-1,-1,8.009,0.127777778,-0.229166667,1,0,0,2.99,Diorite_rect,3,2.99,0,12,0,12,0,1,,,,,,,,,,,,,
65b4a836392d139322ec485b,TCN,2024-06-24_17h35.14.508,LearnStrategy,2023.2.3,Win32,60.0240096,1,1,14,-0.045833333,-0.009722222,1,0,0,0.842,rock_grid_rect_2,8,08,-1,-1,0.842,0.140277778,-0.252777778,1,0,0,1.511,Diorite_rect,3,1.511,0,13,0,13,0,1,,,,,,,,,,,,,
65b4a836392d139322ec485b,TCN,2024-06-24_17h35.14.508,LearnStrategy,2023.2.3,Win32,60.0240096,1,1,15,-0.1375,-0.009722222,1,0,0,2.845,rock_grid_rect_2,5,11,-1,-1,2.845,-0.402777778,-0.2625,1,0,0,5.698,Andesite_rect,1,5.698,0,14,0,14,0,1,,,,,,,,,,,,,
65b4a836392d139322ec485b,TCN,2024-06-24_17h35.14.508,LearnStrategy,2023.2.3,Win32,60.0240096,1,1,16,-0.081944444,0.018055556,1,0,0,1.113,rock_grid_rect_2,1,04,-1,-1,1.113,-0.122222222,-0.243055556,1,0,0,1.554,Basalt_rect,2,1.554,0,15,0,15,0,1,,,,,,,,,,,,,
65b4a836392d139322ec485b,TCN,2024-06-24_17h35.14.508,LearnStrategy,2023.2.3,Win32,60.0240096,1,2,1,,,,,,,,2,08,,,,,,,,,,,8,2.827,0,,,,,,0.443055556,-0.409722222,1,0,0,2.827,Pumice_rect,0,0,0,0,1,
65b4a836392d139322ec485b,TCN,2024-06-24_17h35.14.508,LearnStrategy,2023.2.3,Win32,60.0240096,1,2,2,,,,,,,,2,10,,,,,,,,,,,8,2.655,0,,,,,,0.4375,-0.404166667,1,0,0,2.655,Pumice_rect,1,0,1,0,1,
65b4a836392d139322ec485b,TCN,2024-06-24_17h35.14.508,LearnStrategy,2023.2.3,Win32,60.0240096,1,2,3,,,,,,,,5,02,,,,,,,,,,,1,2.905,0,,,,,,-0.347222222,-0.241666667,1,0,0,2.905,Andesite_rect,2,0,2,0,1,
65b4a836392d139322ec485b,TCN,2024-06-24_17h35.14.508,LearnStrategy,2023.2.3,Win32,60.0240096,1,2,4,,,,,,,,3,15,,,,,,,,,,,7,2.72,0,,,,,,0.229166667,-0.383333333,1,0,0,2.72,Peridotite_rect,3,0,3,0,1,
65b4a836392d139322ec485b,TCN,2024-06-24_17h35.14.508,LearnStrategy,2023.2.3,Win32,60.0240096,1,2,5,,,,,,,,7,05,,,,,,,,,,,3,2.553,0,,,,,,0.154166667,-0.229166667,1,0,0,2.553,Diorite_rect,4,0,4,0,1,
65b4a836392d139322ec485b,TCN,2024-06-24_17h35.14.508,LearnStrategy,2023.2.3,Win32,60.0240096,1,2,6,,,,,,,,5,04,,,,,,,,,,,2,3.91,0,,,,,,-0.131944444,-0.231944444,1,0,0,3.91,Basalt_rect,5,0,5,0,1,
65b4a836392d139322ec485b,TCN,2024-06-24_17h35.14.508,LearnStrategy,2023.2.3,Win32,60.0240096,1,2,7,,,,,,,,4,11,,,,,,,,,,,3,3.047,0,,,,,,0.118055556,-0.243055556,1,0,0,3.047,Diorite_rect,6,0,6,0,1,
65b4a836392d139322ec485b,TCN,2024-06-24_17h35.14.508,LearnStrategy,2023.2.3,Win32,60.0240096,1,2,8,,,,,,,,6,16,,,,,,,,,,,7,9.016,0,,,,,,0.170833333,-0.405555556,1,0,0,9.016,Peridotite_rect,7,0,7,0,1,
65b4a836392d139322ec485b,TCN,2024-06-24_17h35.14.508,LearnStrategy,2023.2.3,Win32,60.0240096,1,2,9,,,,,,,,8,09,,,,,,,,,,,6,3.802,0,,,,,,-0.179166667,-0.404166667,1,0,0,3.802,Pegmatite_rect,8,0,8,0,1,
65b4a836392d139322ec485b,TCN,2024-06-24_17h35.14.508,LearnStrategy,2023.2.3,Win32,60.0240096,1,2,10,,,,,,,,1,05,,,,,,,,,,,2,1.939,0,,,,,,-0.115277778,-0.251388889,1,0,0,1.939,Basalt_rect,9,0,9,0,1,
65b4a836392d139322ec485b,TCN,2024-06-24_17h35.14.508,LearnStrategy,2023.2.3,Win32,60.0240096,1,2,11,,,,,,,,1,10,,,,,,,,,,,3,1.175,0,,,,,,0.1125,-0.234722222,1,0,0,1.175,Diorite_rect,10,0,10,0,1,
65b4a836392d139322ec485b,TCN,2024-06-24_17h35.14.508,LearnStrategy,2023.2.3,Win32,60.0240096,1,2,12,,,,,,,,4,09,,,,,,,,,,,1,1.685,0,,,,,,-0.341666667,-0.240277778,1,0,0,1.685,Andesite_rect,11,0,11,0,1,
65b4a836392d139322ec485b,TCN,2024-06-24_17h35.14.508,LearnStrategy,2023.2.3,Win32,60.0240096,1,2,13,,,,,,,,8,16,,,,,,,,,,,5,0.94,0,,,,,,-0.383333333,-0.390277778,1,0,0,0.94,Obsidian_rect,12,0,12,0,1,
65b4a836392d139322ec485b,TCN,2024-06-24_17h35.14.508,LearnStrategy,2023.2.3,Win32,60.0240096,1,2,14,,,,,,,,6,06,,,,,,,,,,,4,2.037,0,,,,,,0.415277778,-0.252777778,1,0,0,2.037,Gabbro_rect,13,0,13,0,1,
65b4a836392d139322ec485b,TCN,2024-06-24_17h35.14.508,LearnStrategy,2023.2.3,Win32,60.0240096,1,2,15,,,,,,,,3,09,,,,,,,,,,,2,6.645,0,,,,,,-0.051388889,-0.245833333,1,0,0,6.645,Basalt_rect,14,0,14,0,1,
65b4a836392d139322ec485b,TCN,2024-06-24_17h35.14.508,LearnStrategy,2023.2.3,Win32,60.0240096,1,2,16,,,,,,,,7,10,,,,,,,,,,,3,2.021,0,,,,,,0.169444444,-0.234722222,1,0,0,2.021,Diorite_rect,15,0,15,0,1,
65b4a836392d139322ec485b,TCN,2024-06-24_17h35.14.508,LearnStrategy,2023.2.3,Win32,60.0240096,2,1,1,0.133333333,-0.004166667,1,0,0,24.951,rock_grid_rect_2,4,16,-1,-1,24.951,0.393055556,-0.2375,1,0,0,3.542,Gabbro_rect,4,3.542,1,0,0,0,0,1,,,,,,,,,,,,,
65b4a836392d139322ec485b,TCN,2024-06-24_17h35.14.508,LearnStrategy,2023.2.3,Win32,60.0240096,2,1,2,0.186111111,0.001388889,1,0,0,0.995,rock_grid_rect_2,1,02,-1,-1,0.995,0.093055556,-0.2375,1,0,0,1.208,Diorite_rect,3,1.208,0,1,0,1,0,1,,,,,,,,,,,,,
65b4a836392d139322ec485b,TCN,2024-06-24_17h35.14.508,LearnStrategy,2023.2.3,Win32,60.0240096,2,1,3,0.123611111,0.005555556,1,0,0,0.793,rock_grid_rect_2,8,10,-1,-1,0.793,-0.098611111,-0.384722222,1,0,0,0.537,Pegmatite_rect,6,0.537,0,2,0,2,0,1,,,,,,,,,,,,,
65b4a836392d139322ec485b,TCN,2024-06-24_17h35.14.508,LearnStrategy,2023.2.3,Win32,60.0240096,2,1,4,0.127777778,0.011111111,1,0,0,1.93,rock_grid_rect_2,2,12,-1,-1,1.93,-0.365277778,-0.381944444,1,0,0,1.401,Obsidian_rect,5,1.401,0,3,0,3,0,1,,,,,,,,,,,,,
65b4a836392d139322ec485b,TCN,2024-06-24_17h35.14.508,LearnStrategy,2023.2.3,Win32,60.0240096,2,1,5,0.133333333,0.001388889,1,0,0,0.895,rock_grid_rect_2,6,12,-1,-1,0.895,-0.116666667,-0.254166667,1,0,0,0.689,Basalt_rect,2,0.689,0,4,0,4,0,1,,,,,,,,,,,,,
65b4a836392d139322ec485b,TCN,2024-06-24_17h35.14.508,LearnStrategy,2023.2.3,Win32,60.0240096,2,1,6,-0.106944444,0.008333333,1,0,0,0.746,rock_grid_rect_2,3,08,-1,-1,0.746,-0.358333333,-0.252777778,1,0,0,1.237,Andesite_rect,1,1.237,0,5,0,5,0,1,,,,,,,,,,,,,
65b4a836392d139322ec485b,TCN,2024-06-24_17h35.14.508,LearnStrategy,2023.2.3,Win32,60.0240096,2,1,7,0.120833333,0.019444444,1,0,0,0.796,rock_grid_rect_2,6,11,-1,-1,0.796,0.101388889,-0.393055556,1,0,0,2.186,Peridotite_rect,7,2.186,0,6,0,6,0,1,,,,,,,,,,,,,
65b4a836392d139322ec485b,TCN,2024-06-24_17h35.14.508,LearnStrategy,2023.2.3,Win32,60.0240096,2,1,8,0.134722222,-0.006944444,1,0,0,0.846,rock_grid_rect_2,4,12,-1,-1,0.846,0.140277778,-0.244444444,1,0,0,0.881,Diorite_rect,3,0.881,0,7,0,7,0,1,,,,,,,,,,,,,
65b4a836392d139322ec485b,TCN,2024-06-24_17h35.14.508,LearnStrategy,2023.2.3,Win32,60.0240096,2,1,9,0.181944444,0.0125,1,0,0,0.951,rock_grid_rect_2,7,15,-1,-1,0.951,0.398611111,-0.252777778,1,0,0,0.619,Gabbro_rect,4,0.619,0,8,0,8,0,1,,,,,,,,,,,,,
65b4a836392d139322ec485b,TCN,2024-06-24_17h35.14.508,LearnStrategy,2023.2.3,Win32,60.0240096,2,1,10,0.140277778,0.018055556,1,0,0,1.013,rock_grid_rect_2,5,06,-1,-1,1.013,-0.093055556,-0.254166667,1,0,0,1.488,Basalt_rect,2,1.488,0,9,0,9,0,1,,,,,,,,,,,,,
65b4a836392d139322ec485b,TCN,2024-06-24_17h35.14.508,LearnStrategy,2023.2.3,Win32,60.0240096,2,1,11,0.069444444,-0.009722222,1,0,0,0.895,rock_grid_rect_2,2,02,-1,-1,0.895,-0.1625,-0.402777778,1,0,0,1.533,Pegmatite_rect,6,1.533,0,10,0,10,0,1,,,,,,,,,,,,,
65b4a836392d139322ec485b,TCN,2024-06-24_17h35.14.508,LearnStrategy,2023.2.3,Win32,60.0240096,2,1,12,0.154166667,0.006944444,1,0,0,0.792,rock_grid_rect_2,3,14,-1,-1,0.792,-0.1,-0.229166667,1,0,0,39.706,Basalt_rect,2,39.706,0,11,0,11,0,1,,,,,,,,,,,,,
65b4a836392d139322ec485b,TCN,2024-06-24_17h35.14.508,LearnStrategy,2023.2.3,Win32,60.0240096,2,1,13,0.165277778,-0.0125,1,0,0,1.105,rock_grid_rect_2,7,08,-1,-1,1.105,0.038888889,-0.259722222,1,0,0,0.565,Diorite_rect,3,0.565,0,12,0,12,0,1,,,,,,,,,,,,,
65b4a836392d139322ec485b,TCN,2024-06-24_17h35.14.508,LearnStrategy,2023.2.3,Win32,60.0240096,2,1,14,0.177777778,-0.002777778,1,0,0,1.11,rock_grid_rect_2,8,15,-1,-1,1.11,0.370833333,-0.254166667,1,0,0,0.449,Gabbro_rect,4,0.449,0,13,0,13,0,1,,,,,,,,,,,,,
65b4a836392d139322ec485b,TCN,2024-06-24_17h35.14.508,LearnStrategy,2023.2.3,Win32,60.0240096,2,1,15,0.168055556,-0.009722222,1,0,0,69.337,rock_grid_rect_2,5,16,-1,-1,69.337,-0.345833333,-0.238888889,1,0,0,1.891,Andesite_rect,1,1.891,0,14,0,14,0,1,,,,,,,,,,,,,
65b4a836392d139322ec485b,TCN,2024-06-24_17h35.14.508,LearnStrategy,2023.2.3,Win32,60.0240096,2,1,16,0.104166667,-0.004166667,1,0,0,0.774,rock_grid_rect_2,1,16,-1,-1,0.774,0.354166667,-0.406944444,1,0,0,2.221,Pumice_rect,8,2.221,0,15,0,15,0,1,,,,,,,,,,,,,
65b4a836392d139322ec485b,TCN,2024-06-24_17h35.14.508,LearnStrategy,2023.2.3,Win32,60.0240096,2,2,1,,,,,,,,5,10,,,,,,,,,,,3,1.261,0,,,,,,0.086111111,-0.2375,1,0,0,1.261,Diorite_rect,0,0,0,0,1,
65b4a836392d139322ec485b,TCN,2024-06-24_17h35.14.508,LearnStrategy,2023.2.3,Win32,60.0240096,2,2,2,,,,,,,,1,03,,,,,,,,,,,6,0.65,0,,,,,,-0.111111111,-0.390277778,1,0,0,0.65,Pegmatite_rect,1,0,1,0,1,
65b4a836392d139322ec485b,TCN,2024-06-24_17h35.14.508,LearnStrategy,2023.2.3,Win32,60.0240096,2,2,3,,,,,,,,4,03,,,,,,,,,,,4,2.084,1,,,,,,0.386111111,-0.251388889,1,0,0,2.084,Gabbro_rect,2,0,2,0,1,
65b4a836392d139322ec485b,TCN,2024-06-24_17h35.14.508,LearnStrategy,2023.2.3,Win32,60.0240096,2,2,4,,,,,,,,3,13,,,,,,,,,,,2,3.608,0,,,,,,-0.163888889,-0.240277778,1,0,0,3.608,Basalt_rect,3,0,3,0,1,
65b4a836392d139322ec485b,TCN,2024-06-24_17h35.14.508,LearnStrategy,2023.2.3,Win32,60.0240096,2,2,5,,,,,,,,7,02,,,,,,,,,,,3,1.43,0,,,,,,0.123611111,-0.254166667,1,0,0,1.43,Diorite_rect,4,0,4,0,1,
65b4a836392d139322ec485b,TCN,2024-06-24_17h35.14.508,LearnStrategy,2023.2.3,Win32,60.0240096,2,2,6,,,,,,,,6,07,,,,,,,,,,,7,0.672,0,,,,,,0.090277778,-0.3875,1,0,0,0.672,Peridotite_rect,5,0,5,0,1,
65b4a836392d139322ec485b,TCN,2024-06-24_17h35.14.508,LearnStrategy,2023.2.3,Win32,60.0240096,2,2,7,,,,,,,,4,01,,,,,,,,,,,2,0.581,0,,,,,,-0.143055556,-0.2625,1,0,0,0.581,Basalt_rect,6,0,6,0,1,
65b4a836392d139322ec485b,TCN,2024-06-24_17h35.14.508,LearnStrategy,2023.2.3,Win32,60.0240096,2,2,8,,,,,,,,7,16,,,,,,,,,,,8,0.593,0,,,,,,0.352777778,-0.393055556,1,0,0,0.593,Pumice_rect,7,0,7,0,1,
65b4a836392d139322ec485b,TCN,2024-06-24_17h35.14.508,LearnStrategy,2023.2.3,Win32,60.0240096,2,2,9,,,,,,,,2,09,,,,,,,,,,,5,0.664,0,,,,,,-0.345833333,-0.384722222,1,0,0,0.664,Obsidian_rect,8,0,8,0,1,
65b4a836392d139322ec485b,TCN,2024-06-24_17h35.14.508,LearnStrategy,2023.2.3,Win32,60.0240096,2,2,10,,,,,,,,3,02,,,,,,,,,,,1,0.7,0,,,,,,-0.356944444,-0.248611111,1,0,0,0.7,Andesite_rect,9,0,9,0,1,
65b4a836392d139322ec485b,TCN,2024-06-24_17h35.14.508,LearnStrategy,2023.2.3,Win32,60.0240096,2,2,11,,,,,,,,1,01,,,,,,,,,,,4,0.726,0,,,,,,0.356944444,-0.266666667,1,0,0,0.726,Gabbro_rect,10,0,10,0,1,
65b4a836392d139322ec485b,TCN,2024-06-24_17h35.14.508,LearnStrategy,2023.2.3,Win32,60.0240096,2,2,12,,,,,,,,8,03,,,,,,,,,,,2,0.505,0,,,,,,-0.058333333,-0.268055556,1,0,0,0.505,Basalt_rect,11,0,11,0,1,
65b4a836392d139322ec485b,TCN,2024-06-24_17h35.14.508,LearnStrategy,2023.2.3,Win32,60.0240096,2,2,13,,,,,,,,2,01,,,,,,,,,,,3,0.414,0,,,,,,0.144444444,-0.245833333,1,0,0,0.414,Diorite_rect,12,0,12,0,1,
65b4a836392d139322ec485b,TCN,2024-06-24_17h35.14.508,LearnStrategy,2023.2.3,Win32,60.0240096,2,2,14,,,,,,,,6,05,,,,,,,,,,,6,0.324,1,,,,,,-0.101388889,-0.397222222,1,0,0,0.324,Pegmatite_rect,13,0,13,0,1,
65b4a836392d139322ec485b,TCN,2024-06-24_17h35.14.508,LearnStrategy,2023.2.3,Win32,60.0240096,2,2,15,,,,,,,,5,05,,,,,,,,,,,7,0.264,0,,,,,,0.129166667,-0.381944444,1,0,0,0.264,Peridotite_rect,14,0,14,0,1,
65b4a836392d139322ec485b,TCN,2024-06-24_17h35.14.508,LearnStrategy,2023.2.3,Win32,60.0240096,2,2,16,,,,,,,,8,13,,,,,,,,,,,4,1.127,0,,,,,,0.344444444,-0.270833333,1,0,0,1.127,Gabbro_rect,15,0,15,0,1,
65b4a836392d139322ec485b,TCN,2024-06-24_17h35.14.508,LearnStrategy,2023.2.3,Win32,60.0240096,3,1,1,0.120833333,0.013888889,1,0,0,1.12,rock_grid_rect_2,4,05,-1,-1,1.12,0.359722222,-0.2375,1,0,0,4.033,Gabbro_rect,4,4.033,1,0,0,0,0,1,,,,,,,,,,,,,
65b4a836392d139322ec485b,TCN,2024-06-24_17h35.14.508,LearnStrategy,2023.2.3,Win32,60.0240096,3,1,2,0.1875,-0.006944444,1,0,0,1.091,rock_grid_rect_2,6,08,-1,-1,1.091,-0.120833333,-0.254166667,1,0,0,2.097,Basalt_rect,2,2.097,0,1,0,1,0,1,,,,,,,,,,,,,
65b4a836392d139322ec485b,TCN,2024-06-24_17h35.14.508,LearnStrategy,2023.2.3,Win32,60.0240096,3,1,3,0.145833333,0.0125,1,0,0,0.827,rock_grid_rect_2,4,14,-1,-1,0.827,0.072222222,-0.393055556,1,0,0,0.829,Peridotite_rect,7,0.829,0,2,0,2,0,1,,,,,,,,,,,,,
65b4a836392d139322ec485b,TCN,2024-06-24_17h35.14.508,LearnStrategy,2023.2.3,Win32,60.0240096,3,1,4,0.159722222,0.001388889,1,0,0,0.845,rock_grid_rect_2,1,11,-1,-1,0.845,-0.315277778,-0.2625,1,0,0,18.118,Andesite_rect,1,18.118,1,3,0,3,0,1,,,,,,,,,,,,,
65b4a836392d139322ec485b,TCN,2024-06-24_17h35.14.508,LearnStrategy,2023.2.3,Win32,60.0240096,3,1,5,0.05,-0.004166667,1,0,0,0.89,rock_grid_rect_2,3,06,-1,-1,0.89,0.379166667,-0.258333333,1,0,0,1.453,Gabbro_rect,4,1.453,0,4,0,4,0,1,,,,,,,,,,,,,
65b4a836392d139322ec485b,TCN,2024-06-24_17h35.14.508,LearnStrategy,2023.2.3,Win32,60.0240096,3,1,6,-0.020833333,0.023611111,1,0,0,2.244,rock_grid_rect_2,2,16,-1,-1,2.244,-0.309722222,-0.381944444,1,0,0,0.98,Obsidian_rect,5,0.98,0,5,0,5,0,1,,,,,,,,,,,,,
65b4a836392d139322ec485b,TCN,2024-06-24_17h35.14.508,LearnStrategy,2023.2.3,Win32,60.0240096,3,1,7,0.143055556,0.019444444,1,0,0,0.911,rock_grid_rect_2,8,06,-1,-1,0.911,-0.094444444,-0.384722222,1,0,0,0.972,Pegmatite_rect,6,0.972,0,6,0,6,0,1,,,,,,,,,,,,,
65b4a836392d139322ec485b,TCN,2024-06-24_17h35.14.508,LearnStrategy,2023.2.3,Win32,60.0240096,3,1,8,0.193055556,0.006944444,1,0,0,1.278,rock_grid_rect_2,8,02,-1,-1,1.278,-0.090277778,-0.241666667,1,0,0,0.798,Basalt_rect,2,0.798,0,7,0,7,0,1,,,,,,,,,,,,,
65b4a836392d139322ec485b,TCN,2024-06-24_17h35.14.508,LearnStrategy,2023.2.3,Win32,60.0240096,3,1,9,0.143055556,0.0125,1,0,0,1.062,rock_grid_rect_2,7,12,-1,-1,1.062,0.115277778,-0.266666667,1,0,0,0.559,Diorite_rect,3,0.559,0,8,0,8,0,1,,,,,,,,,,,,,
65b4a836392d139322ec485b,TCN,2024-06-24_17h35.14.508,LearnStrategy,2023.2.3,Win32,60.0240096,3,1,10,0.177777778,0.009722222,1,0,0,0.86,rock_grid_rect_2,7,13,-1,-1,0.86,0.4125,-0.393055556,1,0,0,0.656,Pumice_rect,8,0.656,0,9,0,9,0,1,,,,,,,,,,,,,
65b4a836392d139322ec485b,TCN,2024-06-24_17h35.14.508,LearnStrategy,2023.2.3,Win32,60.0240096,3,1,11,0.152777778,0.006944444,1,0,0,0.828,rock_grid_rect_2,5,08,-1,-1,0.828,0.469444444,-0.254166667,1,0,0,0.633,Gabbro_rect,4,0.633,0,10,0,10,0,1,,,,,,,,,,,,,
65b4a836392d139322ec485b,TCN,2024-06-24_17h35.14.508,LearnStrategy,2023.2.3,Win32,60.0240096,3,1,12,0.126388889,0.0125,1,0,0,0.665,rock_grid_rect_2,5,07,-1,-1,0.665,0.084722222,-0.245833333,1,0,0,0.428,Diorite_rect,3,0.428,0,11,0,11,0,1,,,,,,,,,,,,,
65b4a836392d139322ec485b,TCN,2024-06-24_17h35.14.508,LearnStrategy,2023.2.3,Win32,60.0240096,3,1,13,0.158333333,0.023611111,1,0,0,1.213,rock_grid_rect_2,3,07,-1,-1,1.213,-0.051388889,-0.398611111,1,0,0,0.632,Pegmatite_rect,6,0.632,0,12,0,12,0,1,,,,,,,,,,,,,
65b4a836392d139322ec485b,TCN,2024-06-24_17h35.14.508,LearnStrategy,2023.2.3,Win32,60.0240096,3,1,14,0.197222222,0.016666667,1,0,0,0.999,rock_grid_rect_2,2,04,-1,-1,0.999,0.148611111,-0.401388889,1,0,0,1.354,Peridotite_rect,7,1.354,0,13,0,13,0,1,,,,,,,,,,,,,
65b4a836392d139322ec485b,TCN,2024-06-24_17h35.14.508,LearnStrategy,2023.2.3,Win32,60.0240096,3,1,15,-0.091666667,0.020833333,1,0,0,0.727,rock_grid_rect_2,6,09,-1,-1,0.727,-0.355555556,-0.248611111,1,0,0,0.692,Andesite_rect,1,0.692,0,14,0,14,0,1,,,,,,,,,,,,,
65b4a836392d139322ec485b,TCN,2024-06-24_17h35.14.508,LearnStrategy,2023.2.3,Win32,60.0240096,3,1,16,0.156944444,-0.004166667,1,0,0,0.708,rock_grid_rect_2,1,14,-1,-1,0.708,-0.0375,-0.265277778,1,0,0,0.761,Basalt_rect,2,0.761,0,15,0,15,0,1,,,,,,,,,,,,,
65b4a836392d139322ec485b,TCN,2024-06-24_17h35.14.508,LearnStrategy,2023.2.3,Win32,60.0240096,3,2,1,,,,,,,,6,03,,,,,,,,,,,3,86.854,0,,,,,,0.173611111,-0.233333333,1,0,0,86.854,Diorite_rect,0,0,0,0,1,
65b4a836392d139322ec485b,TCN,2024-06-24_17h35.14.508,LearnStrategy,2023.2.3,Win32,60.0240096,3,2,2,,,,,,,,3,16,,,,,,,,,,,4,0.927,0,,,,,,0.415277778,-0.247222222,1,0,0,0.927,Gabbro_rect,1,0,1,0,1,
65b4a836392d139322ec485b,TCN,2024-06-24_17h35.14.508,LearnStrategy,2023.2.3,Win32,60.0240096,3,2,3,,,,,,,,4,10,,,,,,,,,,,6,0.316,0,,,,,,-0.068055556,-0.4,1,0,0,0.316,Pegmatite_rect,2,0,2,0,1,
65b4a836392d139322ec485b,TCN,2024-06-24_17h35.14.508,LearnStrategy,2023.2.3,Win32,60.0240096,3,2,4,,,,,,,,3,10,,,,,,,,,,,7,0.099,0,,,,,,0.093055556,-0.420833333,1,0,0,0.099,Peridotite_rect,3,0,3,0,1,
65b4a836392d139322ec485b,TCN,2024-06-24_17h35.14.508,LearnStrategy,2023.2.3,Win32,60.0240096,3,2,5,,,,,,,,5,09,,,,,,,,,,,5,1.809,1,,,,,,-0.444444444,-0.4125,1,0,0,1.809,Obsidian_rect,4,0,4,0,1,
65b4a836392d139322ec485b,TCN,2024-06-24_17h35.14.508,LearnStrategy,2023.2.3,Win32,60.0240096,3,2,6,,,,,,,,8,04,,,,,,,,,,,8,3.716,1,,,,,,0.4375,-0.398611111,1,0,0,3.716,Pumice_rect,5,0,5,0,1,
65b4a836392d139322ec485b,TCN,2024-06-24_17h35.14.508,LearnStrategy,2023.2.3,Win32,60.0240096,3,2,7,,,,,,,,7,04,,,,,,,,,,,4,0.887,0,,,,,,0.426388889,-0.240277778,1,0,0,0.887,Gabbro_rect,6,0,6,0,1,
65b4a836392d139322ec485b,TCN,2024-06-24_17h35.14.508,LearnStrategy,2023.2.3,Win32,60.0240096,3,2,8,,,,,,,,4,15,,,,,,,,,,,1,1.373,0,,,,,,-0.395833333,-0.258333333,1,0,0,1.373,Andesite_rect,7,0,7,0,1,
65b4a836392d139322ec485b,TCN,2024-06-24_17h35.14.508,LearnStrategy,2023.2.3,Win32,60.0240096,3,2,9,,,,,,,,5,14,,,,,,,,,,,2,0.555,0,,,,,,-0.066666667,-0.229166667,1,0,0,0.555,Basalt_rect,8,0,8,0,1,
65b4a836392d139322ec485b,TCN,2024-06-24_17h35.14.508,LearnStrategy,2023.2.3,Win32,60.0240096,3,2,10,,,,,,,,1,06,,,,,,,,,,,3,0.635,0,,,,,,0.126388889,-0.251388889,1,0,0,0.635,Diorite_rect,9,0,9,0,1,
65b4a836392d139322ec485b,TCN,2024-06-24_17h35.14.508,LearnStrategy,2023.2.3,Win32,60.0240096,3,2,11,,,,,,,,6,10,,,,,,,,,,,3,0.55,0,,,,,,0.147222222,-0.236111111,1,0,0,0.55,Diorite_rect,10,0,10,0,1,
65b4a836392d139322ec485b,TCN,2024-06-24_17h35.14.508,LearnStrategy,2023.2.3,Win32,60.0240096,3,2,12,,,,,,,,2,05,,,,,,,,,,,4,0.499,0,,,,,,0.340277778,-0.268055556,1,0,0,0.499,Gabbro_rect,11,0,11,0,1,
65b4a836392d139322ec485b,TCN,2024-06-24_17h35.14.508,LearnStrategy,2023.2.3,Win32,60.0240096,3,2,13,,,,,,,,7,07,,,,,,,,,,,6,0.597,0,,,,,,-0.070833333,-0.388888889,1,0,0,0.597,Pegmatite_rect,12,0,12,0,1,
65b4a836392d139322ec485b,TCN,2024-06-24_17h35.14.508,LearnStrategy,2023.2.3,Win32,60.0240096,3,2,14,,,,,,,,1,09,,,,,,,,,,,3,0.427,0,,,,,,0.070833333,-0.240277778,1,0,0,0.427,Diorite_rect,13,0,13,0,1,
65b4a836392d139322ec485b,TCN,2024-06-24_17h35.14.508,LearnStrategy,2023.2.3,Win32,60.0240096,3,2,15,,,,,,,,8,05,,,,,,,,,,,7,1.791,0,,,,,,0.122222222,-0.393055556,1,0,0,1.791,Peridotite_rect,14,0,14,0,1,
65b4a836392d139322ec485b,TCN,2024-06-24_17h35.14.508,LearnStrategy,2023.2.3,Win32,60.0240096,3,2,16,,,,,,,,2,14,,,,,,,,,,,2,0.764,1,,,,,,-0.106944444,-0.265277778,1,0,0,0.764,Basalt_rect,15,0,15,0,1,
65b4a836392d139322ec485b,TCN,2024-06-24_17h35.14.508,LearnStrategy,2023.2.3,Win32,60.0240096,4,1,1,0.1125,0.005555556,1,0,0,124.431,rock_grid_rect_2,2,02,-1,-1,124.431,-0.408333333,-0.2625,1,0,0,2.111,Andesite_rect,1,2.111,0,0,0,0,0,1,,,,,,,,,,,,,
65b4a836392d139322ec485b,TCN,2024-06-24_17h35.14.508,LearnStrategy,2023.2.3,Win32,60.0240096,4,1,2,0.055555556,-0.013888889,1,0,0,0.722,rock_grid_rect_2,4,12,-1,-1,0.722,-0.086111111,-0.251388889,1,0,0,0.651,Basalt_rect,2,0.651,0,1,0,1,0,1,,,,,,,,,,,,,
65b4a836392d139322ec485b,TCN,2024-06-24_17h35.14.508,LearnStrategy,2023.2.3,Win32,60.0240096,4,1,3,0.109722222,-0.016666667,1,0,0,0.742,rock_grid_rect_2,6,08,-1,-1,0.742,0.106944444,-0.401388889,1,0,0,1.158,Peridotite_rect,7,1.158,0,2,0,2,0,1,,,,,,,,,,,,,
65b4a836392d139322ec485b,TCN,2024-06-24_17h35.14.508,LearnStrategy,2023.2.3,Win32,60.0240096,4,1,4,0.101388889,0.001388889,1,0,0,0.694,rock_grid_rect_2,1,04,-1,-1,0.694,-0.134722222,-0.3875,1,0,0,0.52,Pegmatite_rect,6,0.52,0,3,0,3,0,1,,,,,,,,,,,,,
65b4a836392d139322ec485b,TCN,2024-06-24_17h35.14.508,LearnStrategy,2023.2.3,Win32,60.0240096,4,1,5,0.136111111,-0.004166667,1,0,0,0.845,rock_grid_rect_2,7,15,-1,-1,0.845,0.469444444,-0.259722222,1,0,0,0.416,Gabbro_rect,4,0.416,0,4,0,4,0,1,,,,,,,,,,,,,
65b4a836392d139322ec485b,TCN,2024-06-24_17h35.14.508,LearnStrategy,2023.2.3,Win32,60.0240096,4,1,6,0.070833333,0.006944444,1,0,0,1.361,rock_grid_rect_2,5,11,-1,-1,1.361,0.365277778,-0.409722222,1,0,0,0.695,Pumice_rect,8,0.695,0,5,0,5,0,1,,,,,,,,,,,,,
65b4a836392d139322ec485b,TCN,2024-06-24_17h35.14.508,LearnStrategy,2023.2.3,Win32,60.0240096,4,1,7,0.126388889,0.009722222,1,0,0,0.627,rock_grid_rect_2,3,14,-1,-1,0.627,-0.351388889,-0.381944444,1,0,0,0.672,Obsidian_rect,5,0.672,0,6,0,6,0,1,,,,,,,,,,,,,
65b4a836392d139322ec485b,TCN,2024-06-24_17h35.14.508,LearnStrategy,2023.2.3,Win32,60.0240096,4,1,8,-0.002777778,-0.004166667,1,0,0,0.679,rock_grid_rect_2,8,10,-1,-1,0.679,-0.1375,-0.238888889,1,0,0,0.586,Basalt_rect,2,0.586,0,7,0,7,0,1,,,,,,,,,,,,,
65b4a836392d139322ec485b,TCN,2024-06-24_17h35.14.508,LearnStrategy,2023.2.3,Win32,60.0240096,4,1,9,0.123611111,0.008333333,1,0,0,1.363,rock_grid_rect_2,7,08,-1,-1,1.363,0.143055556,-0.406944444,1,0,0,0.87,Peridotite_rect,7,0.87,1,8,0,8,0,1,,,,,,,,,,,,,
65b4a836392d139322ec485b,TCN,2024-06-24_17h35.14.508,LearnStrategy,2023.2.3,Win32,60.0240096,4,1,10,0.147222222,0.001388889,1,0,0,0.751,rock_grid_rect_2,2,12,-1,-1,0.751,0.395833333,-0.259722222,1,0,0,7.834,Gabbro_rect,4,7.834,0,9,0,9,0,1,,,,,,,,,,,,,
65b4a836392d139322ec485b,TCN,2024-06-24_17h35.14.508,LearnStrategy,2023.2.3,Win32,60.0240096,4,1,11,0.168055556,0.009722222,1,0,0,10.573,rock_grid_rect_2,5,12,-1,-1,10.573,-0.106944444,-0.248611111,1,0,0,0.782,Basalt_rect,2,0.782,0,10,0,10,0,1,,,,,,,,,,,,,
65b4a836392d139322ec485b,TCN,2024-06-24_17h35.14.508,LearnStrategy,2023.2.3,Win32,60.0240096,4,1,12,0.159722222,0.001388889,1,0,0,6.908,rock_grid_rect_2,8,14,-1,-1,6.908,0.154166667,-0.234722222,1,0,0,0.846,Diorite_rect,3,0.846,0,11,0,11,0,1,,,,,,,,,,,,,
65b4a836392d139322ec485b,TCN,2024-06-24_17h35.14.508,LearnStrategy,2023.2.3,Win32,60.0240096,4,1,13,0.156944444,-0.002777778,1,0,0,0.844,rock_grid_rect_2,1,07,-1,-1,0.844,0.429166667,-0.252777778,1,0,0,0.727,Gabbro_rect,4,0.727,0,12,0,12,0,1,,,,,,,,,,,,,
65b4a836392d139322ec485b,TCN,2024-06-24_17h35.14.508,LearnStrategy,2023.2.3,Win32,60.0240096,4,1,14,0.176388889,-0.018055556,1,0,0,0.884,rock_grid_rect_2,4,14,-1,-1,0.884,-0.073611111,-0.395833333,1,0,0,0.801,Pegmatite_rect,6,0.801,0,13,0,13,0,1,,,,,,,,,,,,,
65b4a836392d139322ec485b,TCN,2024-06-24_17h35.14.508,LearnStrategy,2023.2.3,Win32,60.0240096,4,1,15,0.188888889,-0.006944444,1,0,0,0.794,rock_grid_rect_2,6,15,-1,-1,0.794,0.170833333,-0.261111111,1,0,0,0.701,Diorite_rect,3,0.701,0,14,0,14,0,1,,,,,,,,,,,,,
65b4a836392d139322ec485b,TCN,2024-06-24_17h35.14.508,LearnStrategy,2023.2.3,Win32,60.0240096,4,1,16,0.134722222,0.0125,1,0,0,0.743,rock_grid_rect_2,3,12,-1,-1,0.743,0.4,-0.388888889,1,0,0,1.777,Pumice_rect,8,1.777,0,15,0,15,0,1,,,,,,,,,,,,,
65b4a836392d139322ec485b,TCN,2024-06-24_17h35.14.508,LearnStrategy,2023.2.3,Win32,60.0240096,4,2,1,,,,,,,,3,16,,,,,,,,,,,4,1.225,0,,,,,,0.370833333,-0.256944444,1,0,0,1.225,Gabbro_rect,0,0,0,0,1,
65b4a836392d139322ec485b,TCN,2024-06-24_17h35.14.508,LearnStrategy,2023.2.3,Win32,60.0240096,4,2,2,,,,,,,,6,16,,,,,,,,,,,4,67.401,0,,,,,,0.359722222,-0.254166667,1,0,0,67.401,Gabbro_rect,1,0,1,0,1,
65b4a836392d139322ec485b,TCN,2024-06-24_17h35.14.508,LearnStrategy,2023.2.3,Win32,60.0240096,4,2,3,,,,,,,,8,05,,,,,,,,,,,3,1.33,0,,,,,,0.158333333,-0.270833333,1,0,0,1.33,Diorite_rect,2,0,2,0,1,
65b4a836392d139322ec485b,TCN,2024-06-24_17h35.14.508,LearnStrategy,2023.2.3,Win32,60.0240096,4,2,4,,,,,,,,7,16,,,,,,,,,,,7,0.488,1,,,,,,0.141666667,-0.3875,1,0,0,0.488,Peridotite_rect,3,0,3,0,1,
65b4a836392d139322ec485b,TCN,2024-06-24_17h35.14.508,LearnStrategy,2023.2.3,Win32,60.0240096,4,2,5,,,,,,,,7,10,,,,,,,,,,,8,0.646,0,,,,,,0.340277778,-0.388888889,1,0,0,0.646,Pumice_rect,4,0,4,0,1,
65b4a836392d139322ec485b,TCN,2024-06-24_17h35.14.508,LearnStrategy,2023.2.3,Win32,60.0240096,4,2,6,,,,,,,,2,08,,,,,,,,,,,2,0.483,1,,,,,,-0.197222222,-0.261111111,1,0,0,0.483,Basalt_rect,5,0,5,0,1,
65b4a836392d139322ec485b,TCN,2024-06-24_17h35.14.508,LearnStrategy,2023.2.3,Win32,60.0240096,4,2,7,,,,,,,,1,05,,,,,,,,,,,3,0.678,0,,,,,,0.122222222,-0.254166667,1,0,0,0.678,Diorite_rect,6,0,6,0,1,
65b4a836392d139322ec485b,TCN,2024-06-24_17h35.14.508,LearnStrategy,2023.2.3,Win32,60.0240096,4,2,8,,,,,,,,4,03,,,,,,,,,,,6,0.444,0,,,,,,-0.083333333,-0.390277778,1,0,0,0.444,Pegmatite_rect,7,0,7,0,1,
65b4a836392d139322ec485b,TCN,2024-06-24_17h35.14.508,LearnStrategy,2023.2.3,Win32,60.0240096,4,2,9,,,,,,,,5,04,,,,,,,,,,,7,0.376,0,,,,,,0.123611111,-0.393055556,1,0,0,0.376,Peridotite_rect,8,0,8,0,1,
65b4a836392d139322ec485b,TCN,2024-06-24_17h35.14.508,LearnStrategy,2023.2.3,Win32,60.0240096,4,2,10,,,,,,,,2,10,,,,,,,,,,,5,0.403,0,,,,,,-0.390277778,-0.404166667,1,0,0,0.403,Obsidian_rect,9,0,9,0,1,
65b4a836392d139322ec485b,TCN,2024-06-24_17h35.14.508,LearnStrategy,2023.2.3,Win32,60.0240096,4,2,11,,,,,,,,5,10,,,,,,,,,,,4,0.873,0,,,,,,0.401388889,-0.252777778,1,0,0,0.873,Gabbro_rect,10,0,10,0,1,
65b4a836392d139322ec485b,TCN,2024-06-24_17h35.14.508,LearnStrategy,2023.2.3,Win32,60.0240096,4,2,12,,,,,,,,6,06,,,,,,,,,,,4,141.113,0,,,,,,0.443055556,-0.234722222,1,0,0,141.113,Gabbro_rect,11,0,11,0,1,
65b4a836392d139322ec485b,TCN,2024-06-24_17h35.14.508,LearnStrategy,2023.2.3,Win32,60.0240096,4,2,13,,,,,,,,8,03,,,,,,,,,,,2,92.106,0,,,,,,-0.156944444,-0.254166667,1,0,0,92.106,Basalt_rect,12,0,12,0,1,
65b4a836392d139322ec485b,TCN,2024-06-24_17h35.14.508,LearnStrategy,2023.2.3,Win32,60.0240096,4,2,14,,,,,,,,3,10,,,,,,,,,,,3,1.005,1,,,,,,0.145833333,-0.254166667,1,0,0,1.005,Diorite_rect,13,0,13,0,1,
65b4a836392d139322ec485b,TCN,2024-06-24_17h35.14.508,LearnStrategy,2023.2.3,Win32,60.0240096,4,2,15,,,,,,,,4,01,,,,,,,,,,,8,5.061,0,,,,,,0.395833333,-0.411111111,1,0,0,5.061,Pumice_rect,14,0,14,0,1,
65b4a836392d139322ec485b,TCN,2024-06-24_17h35.14.508,LearnStrategy,2023.2.3,Win32,60.0240096,4,2,16,,,,,,,,1,10,,,,,,,,,,,5,3.758,0,,,,,,-0.365277778,-0.404166667,1,0,0,3.758,Obsidian_rect,15,0,15,0,1,
65b4a836392d139322ec485b,TCN,2024-06-24_17h35.14.508,LearnStrategy,2023.2.3,Win32,60.0240096,5,1,1,0.077777778,-0.016666667,1,0,0,1.788,rock_grid_rect_2,5,07,-1,-1,1.788,0.359722222,-0.248611111,1,0,0,2.066,Gabbro_rect,4,2.066,0,0,0,0,0,1,,,,,,,,,,,,,
65b4a836392d139322ec485b,TCN,2024-06-24_17h35.14.508,LearnStrategy,2023.2.3,Win32,60.0240096,5,1,2,0.093055556,0.013888889,1,0,0,2.285,rock_grid_rect_2,8,08,-1,-1,2.285,-0.083333333,-0.243055556,1,0,0,0.81,Basalt_rect,2,0.81,0,1,0,1,0,1,,,,,,,,,,,,,
65b4a836392d139322ec485b,TCN,2024-06-24_17h35.14.508,LearnStrategy,2023.2.3,Win32,60.0240096,5,1,3,0.1125,-0.006944444,1,0,0,1.751,rock_grid_rect_2,2,16,-1,-1,1.751,0.179166667,-0.256944444,1,0,0,1.125,Diorite_rect,3,1.125,0,2,0,2,0,1,,,,,,,,,,,,,
65b4a836392d139322ec485b,TCN,2024-06-24_17h35.14.508,LearnStrategy,2023.2.3,Win32,60.0240096,5,1,4,0.173611111,0.005555556,1,0,0,1.419,rock_grid_rect_2,6,11,-1,-1,1.419,-0.115277778,-0.406944444,1,0,0,0.67,Pegmatite_rect,6,0.67,1,3,0,3,0,1,,,,,,,,,,,,,
65b4a836392d139322ec485b,TCN,2024-06-24_17h35.14.508,LearnStrategy,2023.2.3,Win32,60.0240096,5,1,5,0.080555556,0.004166667,1,0,0,0.932,rock_grid_rect_2,7,14,-1,-1,0.932,0.102777778,-0.395833333,1,0,0,0.631,Peridotite_rect,7,0.631,1,4,0,4,0,1,,,,,,,,,,,,,
65b4a836392d139322ec485b,TCN,2024-06-24_17h35.14.508,LearnStrategy,2023.2.3,Win32,60.0240096,5,1,6,0.154166667,-0.004166667,1,0,0,0.793,rock_grid_rect_2,3,11,-1,-1,0.793,-0.298611111,-0.411111111,1,0,0,4.03,Obsidian_rect,5,4.03,0,5,0,5,0,1,,,,,,,,,,,,,
65b4a836392d139322ec485b,TCN,2024-06-24_17h35.14.508,LearnStrategy,2023.2.3,Win32,60.0240096,5,1,7,0.144444444,0.018055556,1,0,0,0.826,rock_grid_rect_2,1,02,-1,-1,0.826,-0.334722222,-0.243055556,1,0,0,1.197,Andesite_rect,1,1.197,1,6,0,6,0,1,,,,,,,,,,,,,
65b4a836392d139322ec485b,TCN,2024-06-24_17h35.14.508,LearnStrategy,2023.2.3,Win32,60.0240096,5,1,8,0.165277778,0.009722222,1,0,0,1.477,rock_grid_rect_2,4,08,-1,-1,1.477,0.370833333,-0.418055556,1,0,0,1.924,Pumice_rect,8,1.924,0,7,0,7,0,1,,,,,,,,,,,,,
65b4a836392d139322ec485b,TCN,2024-06-24_17h35.14.508,LearnStrategy,2023.2.3,Win32,60.0240096,5,1,9,0.109722222,-0.004166667,1,0,0,1.846,rock_grid_rect_2,8,15,-1,-1,1.846,0.398611111,-0.258333333,1,0,0,0.8,Gabbro_rect,4,0.8,0,8,0,8,0,1,,,,,,,,,,,,,
65b4a836392d139322ec485b,TCN,2024-06-24_17h35.14.508,LearnStrategy,2023.2.3,Win32,60.0240096,5,1,10,0.141666667,-0.005555556,1,0,0,0.832,rock_grid_rect_2,2,04,-1,-1,0.832,0.408333333,-0.401388889,1,0,0,0.755,Pumice_rect,8,0.755,0,9,0,9,0,1,,,,,,,,,,,,,
65b4a836392d139322ec485b,TCN,2024-06-24_17h35.14.508,LearnStrategy,2023.2.3,Win32,60.0240096,5,1,11,0.127777778,-0.002777778,1,0,0,34.894,rock_grid_rect_2,7,06,-1,-1,34.894,-0.0875,-0.258333333,1,0,0,1.505,Basalt_rect,2,1.505,0,10,0,10,0,1,,,,,,,,,,,,,
65b4a836392d139322ec485b,TCN,2024-06-24_17h35.14.508,LearnStrategy,2023.2.3,Win32,60.0240096,5,1,12,0.209722222,-0.013888889,1,0,0,0.795,rock_grid_rect_2,1,11,-1,-1,0.795,0.1625,-0.248611111,1,0,0,0.731,Diorite_rect,3,0.731,0,11,0,11,0,1,,,,,,,,,,,,,
65b4a836392d139322ec485b,TCN,2024-06-24_17h35.14.508,LearnStrategy,2023.2.3,Win32,60.0240096,5,1,13,-0.138888889,-0.009722222,1,0,0,1.052,rock_grid_rect_2,3,07,-1,-1,1.052,-0.376388889,-0.238888889,1,0,0,2.02,Andesite_rect,1,2.02,0,12,0,12,0,1,,,,,,,,,,,,,
65b4a836392d139322ec485b,TCN,2024-06-24_17h35.14.508,LearnStrategy,2023.2.3,Win32,60.0240096,5,1,14,-0.131944444,-0.015277778,1,0,0,1.448,rock_grid_rect_2,6,13,-1,-1,1.448,-0.144444444,-0.395833333,1,0,0,1.178,Pegmatite_rect,6,1.178,1,13,0,13,0,1,,,,,,,,,,,,,
65b4a836392d139322ec485b,TCN,2024-06-24_17h35.14.508,LearnStrategy,2023.2.3,Win32,60.0240096,5,1,15,-0.123611111,0.005555556,1,0,0,1.008,rock_grid_rect_2,4,16,-1,-1,1.008,0.3625,-0.381944444,1,0,0,1.263,Pumice_rect,8,1.263,0,14,0,14,0,1,,,,,,,,,,,,,
65b4a836392d139322ec485b,TCN,2024-06-24_17h35.14.508,LearnStrategy,2023.2.3,Win32,60.0240096,5,1,16,-0.034722222,0.011111111,1,0,0,1.083,rock_grid_rect_2,5,16,-1,-1,1.083,0.101388889,-0.229166667,1,0,0,1.046,Diorite_rect,3,1.046,0,15,0,15,0,1,,,,,,,,,,,,,
65b4a836392d139322ec485b,TCN,2024-06-24_17h35.14.508,LearnStrategy,2023.2.3,Win32,60.0240096,5,2,1,,,,,,,,8,04,,,,,,,,,,,5,1.269,0,,,,,,-0.416666667,-0.390277778,1,0,0,1.269,Obsidian_rect,0,0,0,0,1,
65b4a836392d139322ec485b,TCN,2024-06-24_17h35.14.508,LearnStrategy,2023.2.3,Win32,60.0240096,5,2,2,,,,,,,,8,13,,,,,,,,,,,1,8.146,0,,,,,,-0.345833333,-0.248611111,1,0,0,8.146,Andesite_rect,1,0,1,0,1,
65b4a836392d139322ec485b,TCN,2024-06-24_17h35.14.508,LearnStrategy,2023.2.3,Win32,60.0240096,5,2,3,,,,,,,,7,07,,,,,,,,,,,2,1.199,0,,,,,,-0.0875,-0.236111111,1,0,0,1.199,Basalt_rect,2,0,2,0,1,
65b4a836392d139322ec485b,TCN,2024-06-24_17h35.14.508,LearnStrategy,2023.2.3,Win32,60.0240096,5,2,4,,,,,,,,1,01,,,,,,,,,,,3,0.909,0,,,,,,0.163888889,-0.243055556,1,0,0,0.909,Diorite_rect,3,0,3,0,1,
65b4a836392d139322ec485b,TCN,2024-06-24_17h35.14.508,LearnStrategy,2023.2.3,Win32,60.0240096,5,2,5,,,,,,,,2,01,,,,,,,,,,,7,0.693,0,,,,,,0.168055556,-0.388888889,1,0,0,0.693,Peridotite_rect,4,0,4,0,1,
65b4a836392d139322ec485b,TCN,2024-06-24_17h35.14.508,LearnStrategy,2023.2.3,Win32,60.0240096,5,2,6,,,,,,,,3,13,,,,,,,,,,,6,0.668,0,,,,,,-0.081944444,-0.415277778,1,0,0,0.668,Pegmatite_rect,5,0,5,0,1,
65b4a836392d139322ec485b,TCN,2024-06-24_17h35.14.508,LearnStrategy,2023.2.3,Win32,60.0240096,5,2,7,,,,,,,,3,15,,,,,,,,,,,2,3.003,0,,,,,,-0.079166667,-0.248611111,1,0,0,3.003,Basalt_rect,6,0,6,0,1,
65b4a836392d139322ec485b,TCN,2024-06-24_17h35.14.508,LearnStrategy,2023.2.3,Win32,60.0240096,5,2,8,,,,,,,,1,06,,,,,,,,,,,3,1.036,0,,,,,,0.077777778,-0.245833333,1,0,0,1.036,Diorite_rect,7,0,7,0,1,
65b4a836392d139322ec485b,TCN,2024-06-24_17h35.14.508,LearnStrategy,2023.2.3,Win32,60.0240096,5,2,9,,,,,,,,4,09,,,,,,,,,,,8,0.758,0,,,,,,0.391666667,-0.398611111,1,0,0,0.758,Pumice_rect,8,0,8,0,1,
65b4a836392d139322ec485b,TCN,2024-06-24_17h35.14.508,LearnStrategy,2023.2.3,Win32,60.0240096,5,2,10,,,,,,,,5,09,,,,,,,,,,,5,2.273,1,,,,,,-0.35,-0.395833333,1,0,0,2.273,Obsidian_rect,9,0,9,0,1,
65b4a836392d139322ec485b,TCN,2024-06-24_17h35.14.508,LearnStrategy,2023.2.3,Win32,60.0240096,5,2,11,,,,,,,,6,05,,,,,,,,,,,2,5.616,0,,,,,,-0.118055556,-0.270833333,1,0,0,5.616,Basalt_rect,10,0,10,0,1,
65b4a836392d139322ec485b,TCN,2024-06-24_17h35.14.508,LearnStrategy,2023.2.3,Win32,60.0240096,5,2,12,,,,,,,,5,05,,,,,,,,,,,7,0.818,0,,,,,,0.156944444,-0.388888889,1,0,0,0.818,Peridotite_rect,11,0,11,0,1,
65b4a836392d139322ec485b,TCN,2024-06-24_17h35.14.508,LearnStrategy,2023.2.3,Win32,60.0240096,5,2,13,,,,,,,,4,10,,,,,,,,,,,8,1.076,0,,,,,,0.420833333,-0.384722222,1,0,0,1.076,Pumice_rect,12,0,12,0,1,
65b4a836392d139322ec485b,TCN,2024-06-24_17h35.14.508,LearnStrategy,2023.2.3,Win32,60.0240096,5,2,14,,,,,,,,2,05,,,,,,,,,,,4,1.95,0,,,,,,0.379166667,-0.265277778,1,0,0,1.95,Gabbro_rect,13,0,13,0,1,
65b4a836392d139322ec485b,TCN,2024-06-24_17h35.14.508,LearnStrategy,2023.2.3,Win32,60.0240096,5,2,15,,,,,,,,6,10,,,,,,,,,,,1,1.51,0,,,,,,-0.351388889,-0.269444444,1,0,0,1.51,Andesite_rect,14,0,14,0,1,
65b4a836392d139322ec485b,TCN,2024-06-24_17h35.14.508,LearnStrategy,2023.2.3,Win32,60.0240096,5,2,16,,,,,,,,7,05,,,,,,,,,,,3,2.605,0,,,,,,0.086111111,-0.229166667,1,0,0,2.605,Diorite_rect,15,0,15,0,1,
65b4a836392d139322ec485b,TCN,2024-06-24_17h35.14.508,LearnStrategy,2023.2.3,Win32,60.0240096,6,1,1,0.105555556,-0.005555556,1,0,0,1.042,rock_grid_rect_2,8,02,-1,-1,1.042,-0.138888889,-0.398611111,1,0,0,3.272,Pegmatite_rect,6,3.272,0,0,0,0,0,1,,,,,,,,,,,,,
65b4a836392d139322ec485b,TCN,2024-06-24_17h35.14.508,LearnStrategy,2023.2.3,Win32,60.0240096,6,1,2,-0.063888889,-0.018055556,1,0,0,0.8,rock_grid_rect_2,6,12,-1,-1,0.8,0.359722222,-0.2375,1,0,0,2.82,Gabbro_rect,4,2.82,0,1,0,1,0,1,,,,,,,,,,,,,
65b4a836392d139322ec485b,TCN,2024-06-24_17h35.14.508,LearnStrategy,2023.2.3,Win32,60.0240096,6,1,3,0.025,0.018055556,1,0,0,0.896,rock_grid_rect_2,2,06,-1,-1,0.896,0.379166667,-0.261111111,1,0,0,178.06,Gabbro_rect,4,178.06,0,2,0,2,0,1,,,,,,,,,,,,,
65b4a836392d139322ec485b,TCN,2024-06-24_17h35.14.508,LearnStrategy,2023.2.3,Win32,60.0240096,6,1,4,0.156944444,0.001388889,1,0,0,1.268,rock_grid_rect_2,5,08,-1,-1,1.268,-0.070833333,-0.261111111,1,0,0,1.894,Basalt_rect,2,1.894,0,3,0,3,0,1,,,,,,,,,,,,,
65b4a836392d139322ec485b,TCN,2024-06-24_17h35.14.508,LearnStrategy,2023.2.3,Win32,60.0240096,6,1,5,0.179166667,0.020833333,1,0,0,0.762,rock_grid_rect_2,3,06,-1,-1,0.762,0.156944444,-0.256944444,1,0,0,0.725,Diorite_rect,3,0.725,1,4,0,4,0,1,,,,,,,,,,,,,
65b4a836392d139322ec485b,TCN,2024-06-24_17h35.14.508,LearnStrategy,2023.2.3,Win32,60.0240096,6,1,6,0.165277778,0.0125,1,0,0,0.861,rock_grid_rect_2,4,13,-1,-1,0.861,0.1125,-0.388888889,1,0,0,1.706,Peridotite_rect,7,1.706,0,5,0,5,0,1,,,,,,,,,,,,,
65b4a836392d139322ec485b,TCN,2024-06-24_17h35.14.508,LearnStrategy,2023.2.3,Win32,60.0240096,6,1,7,0.156944444,0.005555556,1,0,0,0.812,rock_grid_rect_2,4,05,-1,-1,0.812,0.365277778,-0.406944444,1,0,0,2.827,Pumice_rect,8,2.827,0,6,0,6,0,1,,,,,,,,,,,,,
65b4a836392d139322ec485b,TCN,2024-06-24_17h35.14.508,LearnStrategy,2023.2.3,Win32,60.0240096,6,1,8,0.165277778,0.001388889,1,0,0,1.549,rock_grid_rect_2,1,16,-1,-1,1.549,-0.081944444,-0.393055556,1,0,0,0.818,Pegmatite_rect,6,0.818,0,7,0,7,0,1,,,,,,,,,,,,,
65b4a836392d139322ec485b,TCN,2024-06-24_17h35.14.508,LearnStrategy,2023.2.3,Win32,60.0240096,6,1,9,0.134722222,0.001388889,1,0,0,20.729,rock_grid_rect_2,3,08,-1,-1,20.729,0.191666667,-0.261111111,1,0,0,43.771,Diorite_rect,3,43.771,1,8,0,8,0,1,,,,,,,,,,,,,
65b4a836392d139322ec485b,TCN,2024-06-24_17h35.14.508,LearnStrategy,2023.2.3,Win32,60.0240096,6,1,10,0.129166667,0.013888889,1,0,0,0.995,rock_grid_rect_2,7,13,-1,-1,0.995,0.343055556,-0.2375,1,0,0,1.183,Gabbro_rect,4,1.183,0,9,0,9,0,1,,,,,,,,,,,,,
65b4a836392d139322ec485b,TCN,2024-06-24_17h35.14.508,LearnStrategy,2023.2.3,Win32,60.0240096,6,1,11,0.165277778,0.006944444,1,0,0,1.161,rock_grid_rect_2,7,12,-1,-1,1.161,-0.155555556,-0.394444444,1,0,0,0.875,Pegmatite_rect,6,0.875,0,10,0,10,0,1,,,,,,,,,,,,,
65b4a836392d139322ec485b,TCN,2024-06-24_17h35.14.508,LearnStrategy,2023.2.3,Win32,60.0240096,6,1,12,0.115277778,-0.004166667,1,0,0,0.767,rock_grid_rect_2,8,06,-1,-1,0.767,-0.143055556,-0.247222222,1,0,0,0.607,Basalt_rect,2,0.607,0,11,0,11,0,1,,,,,,,,,,,,,
65b4a836392d139322ec485b,TCN,2024-06-24_17h35.14.508,LearnStrategy,2023.2.3,Win32,60.0240096,6,1,13,0.163888889,0.009722222,1,0,0,1.305,rock_grid_rect_2,2,11,-1,-1,1.305,-0.3625,-0.395833333,1,0,0,1.279,Obsidian_rect,5,1.279,0,12,0,12,0,1,,,,,,,,,,,,,
65b4a836392d139322ec485b,TCN,2024-06-24_17h35.14.508,LearnStrategy,2023.2.3,Win32,60.0240096,6,1,14,0.15,0.004166667,1,0,0,106.918,rock_grid_rect_2,5,06,-1,-1,106.918,0.384722222,-0.2625,1,0,0,8.103,Gabbro_rect,4,8.103,0,13,0,13,0,1,,,,,,,,,,,,,
65b4a836392d139322ec485b,TCN,2024-06-24_17h35.14.508,LearnStrategy,2023.2.3,Win32,60.0240096,6,1,15,0.133333333,0.016666667,1,0,0,0.908,rock_grid_rect_2,6,09,-1,-1,0.908,0.044444444,-0.244444444,1,0,0,0.865,Diorite_rect,3,0.865,0,14,0,14,0,1,,,,,,,,,,,,,
65b4a836392d139322ec485b,TCN,2024-06-24_17h35.14.508,LearnStrategy,2023.2.3,Win32,60.0240096,6,1,16,0.111111111,-0.006944444,1,0,0,4.685,rock_grid_rect_2,1,14,-1,-1,4.685,-0.15,-0.251388889,1,0,0,0.746,Basalt_rect,2,0.746,0,15,0,15,0,1,,,,,,,,,,,,,
65b4a836392d139322ec485b,TCN,2024-06-24_17h35.14.508,LearnStrategy,2023.2.3,Win32,60.0240096,6,2,1,,,,,,,,4,15,,,,,,,,,,,6,0.899,0,,,,,,-0.120833333,-0.4,1,0,0,0.899,Pegmatite_rect,0,0,0,0,1,
65b4a836392d139322ec485b,TCN,2024-06-24_17h35.14.508,LearnStrategy,2023.2.3,Win32,60.0240096,6,2,2,,,,,,,,7,02,,,,,,,,,,,7,0.96,1,,,,,,0.133333333,-0.408333333,1,0,0,0.96,Peridotite_rect,1,0,1,0,1,
65b4a836392d139322ec485b,TCN,2024-06-24_17h35.14.508,LearnStrategy,2023.2.3,Win32,60.0240096,6,2,3,,,,,,,,1,03,,,,,,,,,,,4,1.979,0,,,,,,0.398611111,-0.229166667,1,0,0,1.979,Gabbro_rect,2,0,2,0,1,
65b4a836392d139322ec485b,TCN,2024-06-24_17h35.14.508,LearnStrategy,2023.2.3,Win32,60.0240096,6,2,4,,,,,,,,7,04,,,,,,,,,,,3,0.738,0,,,,,,0.119444444,-0.245833333,1,0,0,0.738,Diorite_rect,3,0,3,0,1,
65b4a836392d139322ec485b,TCN,2024-06-24_17h35.14.508,LearnStrategy,2023.2.3,Win32,60.0240096,6,2,5,,,,,,,,8,16,,,,,,,,,,,2,0.376,0,,,,,,-0.093055556,-0.229166667,1,0,0,0.376,Basalt_rect,4,0,4,0,1,
65b4a836392d139322ec485b,TCN,2024-06-24_17h35.14.508,LearnStrategy,2023.2.3,Win32,60.0240096,6,2,6,,,,,,,,6,03,,,,,,,,,,,6,0.573,1,,,,,,-0.090277778,-0.401388889,1,0,0,0.573,Pegmatite_rect,5,0,5,0,1,
65b4a836392d139322ec485b,TCN,2024-06-24_17h35.14.508,LearnStrategy,2023.2.3,Win32,60.0240096,6,2,7,,,,,,,,3,02,,,,,,,,,,,7,0.48,0,,,,,,0.116666667,-0.398611111,1,0,0,0.48,Peridotite_rect,6,0,6,0,1,
65b4a836392d139322ec485b,TCN,2024-06-24_17h35.14.508,LearnStrategy,2023.2.3,Win32,60.0240096,6,2,8,,,,,,,,1,09,,,,,,,,,,,8,1.103,0,,,,,,0.35,-0.3875,1,0,0,1.103,Pumice_rect,7,0,7,0,1,
65b4a836392d139322ec485b,TCN,2024-06-24_17h35.14.508,LearnStrategy,2023.2.3,Win32,60.0240096,6,2,9,,,,,,,,5,14,,,,,,,,,,,5,3.011,1,,,,,,-0.323611111,-0.397222222,1,0,0,3.011,Obsidian_rect,8,0,8,0,1,
65b4a836392d139322ec485b,TCN,2024-06-24_17h35.14.508,LearnStrategy,2023.2.3,Win32,60.0240096,6,2,10,,,,,,,,8,09,,,,,,,,,,,5,165.954,0,,,,,,-0.425,-0.394444444,1,0,0,165.954,Obsidian_rect,9,0,9,0,1,
65b4a836392d139322ec485b,TCN,2024-06-24_17h35.14.508,LearnStrategy,2023.2.3,Win32,60.0240096,6,2,11,,,,,,,,2,14,,,,,,,,,,,3,43.885,0,,,,,,0.195833333,-0.263888889,1,0,0,43.885,Diorite_rect,10,0,10,0,1,
65b4a836392d139322ec485b,TCN,2024-06-24_17h35.14.508,LearnStrategy,2023.2.3,Win32,60.0240096,6,2,12,,,,,,,,6,07,,,,,,,,,,,2,121.215,0,,,,,,-0.159722222,-0.248611111,1,0,0,121.215,Basalt_rect,11,0,11,0,1,
65b4a836392d139322ec485b,TCN,2024-06-24_17h35.14.508,LearnStrategy,2023.2.3,Win32,60.0240096,6,2,13,,,,,,,,4,11,,,,,,,,,,,8,1.12,0,,,,,,0.359722222,-0.388888889,1,0,0,1.12,Pumice_rect,12,0,12,0,1,
65b4a836392d139322ec485b,TCN,2024-06-24_17h35.14.508,LearnStrategy,2023.2.3,Win32,60.0240096,6,2,14,,,,,,,,5,02,,,,,,,,,,,4,0.58,0,,,,,,0.369444444,-0.229166667,1,0,0,0.58,Gabbro_rect,13,0,13,0,1,
65b4a836392d139322ec485b,TCN,2024-06-24_17h35.14.508,LearnStrategy,2023.2.3,Win32,60.0240096,6,2,15,,,,,,,,2,09,,,,,,,,,,,7,0.568,0,,,,,,0.120833333,-0.402777778,1,0,0,0.568,Peridotite_rect,14,0,14,0,1,
65b4a836392d139322ec485b,TCN,2024-06-24_17h35.14.508,LearnStrategy,2023.2.3,Win32,60.0240096,6,2,16,,,,,,,,3,09,,,,,,,,,,,3,0.894,1,,,,,,0.113888889,-0.245833333,1,0,0,0.894,Diorite_rect,15,0,15,0,1,
65b4a836392d139322ec485b,TCN,2024-06-24_17h35.14.508,LearnStrategy,2023.2.3,Win32,60.0240096,7,1,1,0.131944444,0.0125,1,0,0,1.836,rock_grid_rect_2,6,12,-1,-1,1.836,-0.156944444,-0.248611111,1,0,0,0.585,Basalt_rect,2,0.585,0,0,0,0,0,1,,,,,,,,,,,,,
65b4a836392d139322ec485b,TCN,2024-06-24_17h35.14.508,LearnStrategy,2023.2.3,Win32,60.0240096,7,1,2,0.056944444,0.009722222,1,0,0,0.914,rock_grid_rect_2,3,12,-1,-1,0.914,-0.1,-0.419444444,1,0,0,0.873,Pegmatite_rect,6,0.873,0,1,0,1,0,1,,,,,,,,,,,,,
65b4a836392d139322ec485b,TCN,2024-06-24_17h35.14.508,LearnStrategy,2023.2.3,Win32,60.0240096,7,1,3,0.1125,0.018055556,1,0,0,0.663,rock_grid_rect_2,7,08,-1,-1,0.663,0.122222222,-0.261111111,1,0,0,0.484,Diorite_rect,3,0.484,0,2,0,2,0,1,,,,,,,,,,,,,
65b4a836392d139322ec485b,TCN,2024-06-24_17h35.14.508,LearnStrategy,2023.2.3,Win32,60.0240096,7,1,4,0.1375,-0.0125,1,0,0,0.813,rock_grid_rect_2,8,10,-1,-1,0.813,0.448611111,-0.252777778,1,0,0,92.376,Gabbro_rect,4,92.376,0,3,0,3,0,1,,,,,,,,,,,,,
65b4a836392d139322ec485b,TCN,2024-06-24_17h35.14.508,LearnStrategy,2023.2.3,Win32,60.0240096,7,1,5,0.109722222,0.005555556,1,0,0,0.76,rock_grid_rect_2,6,09,-1,-1,0.76,0.070833333,-0.247222222,1,0,0,0.796,Diorite_rect,3,0.796,0,4,0,4,0,1,,,,,,,,,,,,,
65b4a836392d139322ec485b,TCN,2024-06-24_17h35.14.508,LearnStrategy,2023.2.3,Win32,60.0240096,7,1,6,0.193055556,-0.009722222,1,0,0,1.211,rock_grid_rect_2,4,05,-1,-1,1.211,-0.301388889,-0.391666667,1,0,0,0.702,Obsidian_rect,5,0.702,0,5,0,5,0,1,,,,,,,,,,,,,
65b4a836392d139322ec485b,TCN,2024-06-24_17h35.14.508,LearnStrategy,2023.2.3,Win32,60.0240096,7,1,7,0.0375,-0.011111111,1,0,0,85.822,rock_grid_rect_2,1,04,-1,-1,85.822,-0.333333333,-0.256944444,1,0,0,1.917,Andesite_rect,1,1.917,1,6,0,6,0,1,,,,,,,,,,,,,
65b4a836392d139322ec485b,TCN,2024-06-24_17h35.14.508,LearnStrategy,2023.2.3,Win32,60.0240096,7,1,8,0.126388889,0.016666667,1,0,0,0.961,rock_grid_rect_2,8,15,-1,-1,0.961,-0.127777778,-0.243055556,1,0,0,0.631,Basalt_rect,2,0.631,0,7,0,7,0,1,,,,,,,,,,,,,
65b4a836392d139322ec485b,TCN,2024-06-24_17h35.14.508,LearnStrategy,2023.2.3,Win32,60.0240096,7,1,9,0.141666667,0.001388889,1,0,0,0.905,rock_grid_rect_2,1,11,-1,-1,0.905,-0.344444444,-0.398611111,1,0,0,0.625,Obsidian_rect,5,0.625,0,8,0,8,0,1,,,,,,,,,,,,,
65b4a836392d139322ec485b,TCN,2024-06-24_17h35.14.508,LearnStrategy,2023.2.3,Win32,60.0240096,7,1,10,0.133333333,0.002777778,1,0,0,0.812,rock_grid_rect_2,5,11,-1,-1,0.812,0.098611111,-0.244444444,1,0,0,0.714,Diorite_rect,3,0.714,0,9,0,9,0,1,,,,,,,,,,,,,
65b4a836392d139322ec485b,TCN,2024-06-24_17h35.14.508,LearnStrategy,2023.2.3,Win32,60.0240096,7,1,11,0.144444444,0.006944444,1,0,0,0.645,rock_grid_rect_2,2,11,-1,-1,0.645,-0.156944444,-0.4125,1,0,0,0.512,Pegmatite_rect,6,0.512,0,10,0,10,0,1,,,,,,,,,,,,,
65b4a836392d139322ec485b,TCN,2024-06-24_17h35.14.508,LearnStrategy,2023.2.3,Win32,60.0240096,7,1,12,0.1375,0.001388889,1,0,0,0.696,rock_grid_rect_2,4,14,-1,-1,0.696,0.409722222,-0.233333333,1,0,0,0.744,Gabbro_rect,4,0.744,1,11,0,11,0,1,,,,,,,,,,,,,
65b4a836392d139322ec485b,TCN,2024-06-24_17h35.14.508,LearnStrategy,2023.2.3,Win32,60.0240096,7,1,13,0.143055556,-0.006944444,1,0,0,0.896,rock_grid_rect_2,5,16,-1,-1,0.896,0.455555556,-0.404166667,1,0,0,0.562,Pumice_rect,8,0.562,0,12,0,12,0,1,,,,,,,,,,,,,
65b4a836392d139322ec485b,TCN,2024-06-24_17h35.14.508,LearnStrategy,2023.2.3,Win32,60.0240096,7,1,14,0.076388889,-0.009722222,1,0,0,0.645,rock_grid_rect_2,3,06,-1,-1,0.645,-0.118055556,-0.268055556,1,0,0,0.516,Basalt_rect,2,0.516,0,13,0,13,0,1,,,,,,,,,,,,,
65b4a836392d139322ec485b,TCN,2024-06-24_17h35.14.508,LearnStrategy,2023.2.3,Win32,60.0240096,7,1,15,0.119444444,0.004166667,1,0,0,0.895,rock_grid_rect_2,7,15,-1,-1,0.895,-0.065277778,-0.415277778,1,0,0,0.542,Pegmatite_rect,6,0.542,0,14,0,14,0,1,,,,,,,,,,,,,
65b4a836392d139322ec485b,TCN,2024-06-24_17h35.14.508,LearnStrategy,2023.2.3,Win32,60.0240096,7,1,16,0.15,0.008333333,1,0,0,0.595,rock_grid_rect_2,2,02,-1,-1,0.595,0.147222222,-0.390277778,1,0,0,0.407,Peridotite_rect,7,0.407,0,15,0,15,0,1,,,,,,,,,,,,,
65b4a836392d139322ec485b,TCN,2024-06-24_17h35.14.508,LearnStrategy,2023.2.3,Win32,60.0240096,7,2,1,,,,,,,,4,11,,,,,,,,,,,2,1,0,,,,,,-0.079166667,-0.244444444,1,0,0,1,Basalt_rect,0,0,0,0,1,
65b4a836392d139322ec485b,TCN,2024-06-24_17h35.14.508,LearnStrategy,2023.2.3,Win32,60.0240096,7,2,2,,,,,,,,2,14,,,,,,,,,,,3,0.413,0,,,,,,0.101388889,-0.247222222,1,0,0,0.413,Diorite_rect,1,0,1,0,1,
65b4a836392d139322ec485b,TCN,2024-06-24_17h35.14.508,LearnStrategy,2023.2.3,Win32,60.0240096,7,2,3,,,,,,,,3,16,,,,,,,,,,,6,0.42,0,,,,,,-0.0625,-0.420833333,1,0,0,0.42,Pegmatite_rect,2,0,2,0,1,
65b4a836392d139322ec485b,TCN,2024-06-24_17h35.14.508,LearnStrategy,2023.2.3,Win32,60.0240096,7,2,4,,,,,,,,7,05,,,,,,,,,,,7,0.438,1,,,,,,0.101388889,-0.406944444,1,0,0,0.438,Peridotite_rect,3,0,3,0,1,
65b4a836392d139322ec485b,TCN,2024-06-24_17h35.14.508,LearnStrategy,2023.2.3,Win32,60.0240096,7,2,5,,,,,,,,8,09,,,,,,,,,,,5,0.449,0,,,,,,-0.318055556,-0.388888889,1,0,0,0.449,Obsidian_rect,4,0,4,0,1,
65b4a836392d139322ec485b,TCN,2024-06-24_17h35.14.508,LearnStrategy,2023.2.3,Win32,60.0240096,7,2,6,,,,,,,,4,01,,,,,,,,,,,4,0.915,1,,,,,,0.356944444,-0.2375,1,0,0,0.915,Gabbro_rect,5,0,5,0,1,
65b4a836392d139322ec485b,TCN,2024-06-24_17h35.14.508,LearnStrategy,2023.2.3,Win32,60.0240096,7,2,7,,,,,,,,5,10,,,,,,,,,,,1,0.457,0,,,,,,-0.358333333,-0.270833333,1,0,0,0.457,Andesite_rect,6,0,6,0,1,
65b4a836392d139322ec485b,TCN,2024-06-24_17h35.14.508,LearnStrategy,2023.2.3,Win32,60.0240096,7,2,8,,,,,,,,6,06,,,,,,,,,,,2,0.374,0,,,,,,-0.102777778,-0.254166667,1,0,0,0.374,Basalt_rect,7,0,7,0,1,
65b4a836392d139322ec485b,TCN,2024-06-24_17h35.14.508,LearnStrategy,2023.2.3,Win32,60.0240096,7,2,9,,,,,,,,2,05,,,,,,,,,,,3,0.344,0,,,,,,0.145833333,-0.259722222,1,0,0,0.344,Diorite_rect,8,0,8,0,1,
65b4a836392d139322ec485b,TCN,2024-06-24_17h35.14.508,LearnStrategy,2023.2.3,Win32,60.0240096,7,2,10,,,,,,,,7,10,,,,,,,,,,,2,0.417,0,,,,,,-0.0875,-0.245833333,1,0,0,0.417,Basalt_rect,9,0,9,0,1,
65b4a836392d139322ec485b,TCN,2024-06-24_17h35.14.508,LearnStrategy,2023.2.3,Win32,60.0240096,7,2,11,,,,,,,,3,13,,,,,,,,,,,8,0.317,0,,,,,,0.429166667,-0.401388889,1,0,0,0.317,Pumice_rect,10,0,10,0,1,
65b4a836392d139322ec485b,TCN,2024-06-24_17h35.14.508,LearnStrategy,2023.2.3,Win32,60.0240096,7,2,12,,,,,,,,8,16,,,,,,,,,,,7,0.33,0,,,,,,0.197222222,-0.401388889,1,0,0,0.33,Peridotite_rect,11,0,11,0,1,
65b4a836392d139322ec485b,TCN,2024-06-24_17h35.14.508,LearnStrategy,2023.2.3,Win32,60.0240096,7,2,13,,,,,,,,5,09,,,,,,,,,,,5,0.369,1,,,,,,-0.356944444,-0.401388889,1,0,0,0.369,Obsidian_rect,12,0,12,0,1,
65b4a836392d139322ec485b,TCN,2024-06-24_17h35.14.508,LearnStrategy,2023.2.3,Win32,60.0240096,7,2,14,,,,,,,,6,10,,,,,,,,,,,4,0.879,0,,,,,,0.358333333,-0.251388889,1,0,0,0.879,Gabbro_rect,13,0,13,0,1,
65b4a836392d139322ec485b,TCN,2024-06-24_17h35.14.508,LearnStrategy,2023.2.3,Win32,60.0240096,7,2,15,,,,,,,,1,01,,,,,,,,,,,6,0.402,0,,,,,,-0.061111111,-0.404166667,1,0,0,0.402,Pegmatite_rect,14,0,14,0,1,
65b4a836392d139322ec485b,TCN,2024-06-24_17h35.14.508,LearnStrategy,2023.2.3,Win32,60.0240096,7,2,16,,,,,,,,1,06,,,,,,,,,,,3,0.516,0,,,,,,0.108333333,-0.259722222,1,0,0,0.516,Diorite_rect,15,0,15,0,1,
65b4a836392d139322ec485b,TCN,2024-06-24_17h35.14.508,LearnStrategy,2023.2.3,Win32,60.0240096,8,1,1,0.144444444,0.008333333,1,0,0,0.962,rock_grid_rect_2,2,12,-1,-1,0.962,-0.134722222,-0.270833333,1,0,0,0.827,Basalt_rect,2,0.827,1,0,0,0,0,1,,,,,,,,,,,,,
65b4a836392d139322ec485b,TCN,2024-06-24_17h35.14.508,LearnStrategy,2023.2.3,Win32,60.0240096,8,1,2,0.1375,0.006944444,1,0,0,0.812,rock_grid_rect_2,1,07,-1,-1,0.812,0.093055556,-0.258333333,1,0,0,0.626,Diorite_rect,3,0.626,0,1,0,1,0,1,,,,,,,,,,,,,
65b4a836392d139322ec485b,TCN,2024-06-24_17h35.14.508,LearnStrategy,2023.2.3,Win32,60.0240096,8,1,3,0.093055556,0.018055556,1,0,0,4.862,rock_grid_rect_2,6,15,-1,-1,4.862,-0.115277778,-0.384722222,1,0,0,10.789,Pegmatite_rect,6,10.789,1,2,0,2,0,1,,,,,,,,,,,,,
65b4a836392d139322ec485b,TCN,2024-06-24_17h35.14.508,LearnStrategy,2023.2.3,Win32,60.0240096,8,1,4,0.081944444,0.005555556,1,0,0,1.017,rock_grid_rect_2,3,11,-1,-1,1.017,-0.331944444,-0.384722222,1,0,0,0.583,Obsidian_rect,5,0.583,0,3,0,3,0,1,,,,,,,,,,,,,
65b4a836392d139322ec485b,TCN,2024-06-24_17h35.14.508,LearnStrategy,2023.2.3,Win32,60.0240096,8,1,5,0.119444444,0.008333333,1,0,0,0.745,rock_grid_rect_2,4,08,-1,-1,0.745,0.131944444,-0.401388889,1,0,0,2.009,Peridotite_rect,7,2.009,0,4,0,4,0,1,,,,,,,,,,,,,
65b4a836392d139322ec485b,TCN,2024-06-24_17h35.14.508,LearnStrategy,2023.2.3,Win32,60.0240096,8,1,6,0.134722222,-0.018055556,1,0,0,0.613,rock_grid_rect_2,8,06,-1,-1,0.613,0.298611111,-0.252777778,1,0,0,1.247,Gabbro_rect,4,1.247,0,5,0,5,0,1,,,,,,,,,,,,,
65b4a836392d139322ec485b,TCN,2024-06-24_17h35.14.508,LearnStrategy,2023.2.3,Win32,60.0240096,8,1,7,0.175,0.009722222,1,0,0,0.589,rock_grid_rect_2,3,07,-1,-1,0.589,0.3625,-0.388888889,1,0,0,1.263,Pumice_rect,8,1.263,0,6,0,6,0,1,,,,,,,,,,,,,
65b4a836392d139322ec485b,TCN,2024-06-24_17h35.14.508,LearnStrategy,2023.2.3,Win32,60.0240096,8,1,8,0.165277778,0.015277778,1,0,0,0.962,rock_grid_rect_2,7,06,-1,-1,0.962,0.141666667,-0.254166667,1,0,0,0.448,Diorite_rect,3,0.448,0,7,0,7,0,1,,,,,,,,,,,,,
65b4a836392d139322ec485b,TCN,2024-06-24_17h35.14.508,LearnStrategy,2023.2.3,Win32,60.0240096,8,1,9,0.156944444,0.005555556,1,0,0,0.895,rock_grid_rect_2,1,02,-1,-1,0.895,-0.093055556,-0.404166667,1,0,0,0.598,Pegmatite_rect,6,0.598,0,8,0,8,0,1,,,,,,,,,,,,,
65b4a836392d139322ec485b,TCN,2024-06-24_17h35.14.508,LearnStrategy,2023.2.3,Win32,60.0240096,8,1,10,0.186111111,-0.006944444,1,0,0,0.729,rock_grid_rect_2,6,13,-1,-1,0.729,-0.306944444,-0.395833333,1,0,0,1.586,Obsidian_rect,5,1.586,0,9,0,9,0,1,,,,,,,,,,,,,
65b4a836392d139322ec485b,TCN,2024-06-24_17h35.14.508,LearnStrategy,2023.2.3,Win32,60.0240096,8,1,11,0.145833333,-0.009722222,1,0,0,0.73,rock_grid_rect_2,4,13,-1,-1,0.73,-0.291666667,-0.265277778,1,0,0,1.282,Andesite_rect,1,1.282,0,10,0,10,0,1,,,,,,,,,,,,,
65b4a836392d139322ec485b,TCN,2024-06-24_17h35.14.508,LearnStrategy,2023.2.3,Win32,60.0240096,8,1,12,0.126388889,0.009722222,1,0,0,0.746,rock_grid_rect_2,8,14,-1,-1,0.746,-0.051388889,-0.270833333,1,0,0,0.536,Basalt_rect,2,0.536,0,11,0,11,0,1,,,,,,,,,,,,,
65b4a836392d139322ec485b,TCN,2024-06-24_17h35.14.508,LearnStrategy,2023.2.3,Win32,60.0240096,8,1,13,0.131944444,-0.0125,1,0,0,0.646,rock_grid_rect_2,7,13,-1,-1,0.646,-0.098611111,-0.379166667,1,0,0,0.882,Pegmatite_rect,6,0.882,0,12,0,12,0,1,,,,,,,,,,,,,
65b4a836392d139322ec485b,TCN,2024-06-24_17h35.14.508,LearnStrategy,2023.2.3,Win32,60.0240096,8,1,14,0.205555556,0.005555556,1,0,0,0.729,rock_grid_rect_2,5,06,-1,-1,0.729,0.145833333,-0.248611111,1,0,0,2.317,Diorite_rect,3,2.317,0,13,0,13,0,1,,,,,,,,,,,,,
65b4a836392d139322ec485b,TCN,2024-06-24_17h35.14.508,LearnStrategy,2023.2.3,Win32,60.0240096,8,1,15,0.156944444,-0.011111111,1,0,0,6.919,rock_grid_rect_2,5,12,-1,-1,6.919,-0.116666667,-0.258333333,1,0,0,1.108,Basalt_rect,2,1.108,0,14,0,14,0,1,,,,,,,,,,,,,
65b4a836392d139322ec485b,TCN,2024-06-24_17h35.14.508,LearnStrategy,2023.2.3,Win32,60.0240096,8,1,16,0.156944444,-0.004166667,1,0,0,1.044,rock_grid_rect_2,2,16,-1,-1,1.044,0.144444444,-0.231944444,1,0,0,1.028,Diorite_rect,3,1.028,0,15,0,15,0,1,,,,,,,,,,,,,
65b4a836392d139322ec485b,TCN,2024-06-24_17h35.14.508,LearnStrategy,2023.2.3,Win32,60.0240096,8,2,1,,,,,,,,4,15,,,,,,,,,,,6,1.355,0,,,,,,-0.106944444,-0.408333333,1,0,0,1.355,Pegmatite_rect,0,0,0,0,1,
65b4a836392d139322ec485b,TCN,2024-06-24_17h35.14.508,LearnStrategy,2023.2.3,Win32,60.0240096,8,2,2,,,,,,,,1,03,,,,,,,,,,,3,0.334,0,,,,,,0.1125,-0.238888889,1,0,0,0.334,Diorite_rect,1,0,1,0,1,
65b4a836392d139322ec485b,TCN,2024-06-24_17h35.14.508,LearnStrategy,2023.2.3,Win32,60.0240096,8,2,3,,,,,,,,6,16,,,,,,,,,,,4,0.566,0,,,,,,0.334722222,-0.254166667,1,0,0,0.566,Gabbro_rect,2,0,2,0,1,
65b4a836392d139322ec485b,TCN,2024-06-24_17h35.14.508,LearnStrategy,2023.2.3,Win32,60.0240096,8,2,4,,,,,,,,5,04,,,,,,,,,,,8,0.426,0,,,,,,0.351388889,-0.411111111,1,0,0,0.426,Pumice_rect,3,0,3,0,1,
65b4a836392d139322ec485b,TCN,2024-06-24_17h35.14.508,LearnStrategy,2023.2.3,Win32,60.0240096,8,2,5,,,,,,,,7,04,,,,,,,,,,,5,0.308,0,,,,,,-0.368055556,-0.4125,1,0,0,0.308,Obsidian_rect,4,0,4,0,1,
65b4a836392d139322ec485b,TCN,2024-06-24_17h35.14.508,LearnStrategy,2023.2.3,Win32,60.0240096,8,2,6,,,,,,,,7,07,,,,,,,,,,,2,0.368,0,,,,,,-0.1625,-0.2375,1,0,0,0.368,Basalt_rect,5,0,5,0,1,
65b4a836392d139322ec485b,TCN,2024-06-24_17h35.14.508,LearnStrategy,2023.2.3,Win32,60.0240096,8,2,7,,,,,,,,2,08,,,,,,,,,,,3,0.204,0,,,,,,0.140277778,-0.234722222,1,0,0,0.204,Diorite_rect,6,0,6,0,1,
65b4a836392d139322ec485b,TCN,2024-06-24_17h35.14.508,LearnStrategy,2023.2.3,Win32,60.0240096,8,2,8,,,,,,,,3,15,,,,,,,,,,,6,2.117,0,,,,,,-0.113888889,-0.406944444,1,0,0,2.117,Pegmatite_rect,7,0,7,0,1,
65b4a836392d139322ec485b,TCN,2024-06-24_17h35.14.508,LearnStrategy,2023.2.3,Win32,60.0240096,8,2,9,,,,,,,,5,05,,,,,,,,,,,7,0.726,0,,,,,,0.126388889,-0.398611111,1,0,0,0.726,Peridotite_rect,8,0,8,0,1,
65b4a836392d139322ec485b,TCN,2024-06-24_17h35.14.508,LearnStrategy,2023.2.3,Win32,60.0240096,8,2,10,,,,,,,,1,09,,,,,,,,,,,4,0.262,0,,,,,,0.408333333,-0.238888889,1,0,0,0.262,Gabbro_rect,9,0,9,0,1,
65b4a836392d139322ec485b,TCN,2024-06-24_17h35.14.508,LearnStrategy,2023.2.3,Win32,60.0240096,8,2,11,,,,,,,,3,02,,,,,,,,,,,8,0.297,0,,,,,,0.370833333,-0.381944444,1,0,0,0.297,Pumice_rect,10,0,10,0,1,
65b4a836392d139322ec485b,TCN,2024-06-24_17h35.14.508,LearnStrategy,2023.2.3,Win32,60.0240096,8,2,12,,,,,,,,2,10,,,,,,,,,,,1,0.281,0,,,,,,-0.305555556,-0.243055556,1,0,0,0.281,Andesite_rect,11,0,11,0,1,
65b4a836392d139322ec485b,TCN,2024-06-24_17h35.14.508,LearnStrategy,2023.2.3,Win32,60.0240096,8,2,13,,,,,,,,8,03,,,,,,,,,,,3,0.219,0,,,,,,0.026388889,-0.254166667,1,0,0,0.219,Diorite_rect,12,0,12,0,1,
65b4a836392d139322ec485b,TCN,2024-06-24_17h35.14.508,LearnStrategy,2023.2.3,Win32,60.0240096,8,2,14,,,,,,,,4,09,,,,,,,,,,,2,0.173,0,,,,,,-0.079166667,-0.230555556,1,0,0,0.173,Basalt_rect,13,0,13,0,1,
65b4a836392d139322ec485b,TCN,2024-06-24_17h35.14.508,LearnStrategy,2023.2.3,Win32,60.0240096,8,2,15,,,,,,,,8,05,,,,,,,,,,,6,0.136,0,,,,,,-0.104166667,-0.388888889,1,0,0,0.136,Pegmatite_rect,14,0,14,0,1,
65b4a836392d139322ec485b,TCN,2024-06-24_17h35.14.508,LearnStrategy,2023.2.3,Win32,60.0240096,8,2,16,,,,,,,,6,03,,,,,,,,,,,4,0.123,0,,,,,,0.348611111,-0.256944444,1,0,0,0.123,Gabbro_rect,15,0,15,0,1,
65b4a836392d139322ec485b,TCN,2024-06-24_17h35.14.508,LearnStrategy,2023.2.3,Win32,60.0240096,9,1,1,0.156944444,0.019444444,1,0,0,1.063,rock_grid_rect_2,8,08,-1,-1,1.063,0.398611111,-0.2375,1,0,0,5.73,Gabbro_rect,4,5.73,0,0,0,0,0,1,,,,,,,,,,,,,
65b4a836392d139322ec485b,TCN,2024-06-24_17h35.14.508,LearnStrategy,2023.2.3,Win32,60.0240096,9,1,2,0.161111111,-0.011111111,1,0,0,2.078,rock_grid_rect_2,5,08,-1,-1,2.078,-0.048611111,-0.248611111,1,0,0,0.664,Basalt_rect,2,0.664,0,1,0,1,0,1,,,,,,,,,,,,,
65b4a836392d139322ec485b,TCN,2024-06-24_17h35.14.508,LearnStrategy,2023.2.3,Win32,60.0240096,9,1,3,0.1875,0.009722222,1,0,0,0.795,rock_grid_rect_2,1,14,-1,-1,0.795,0.076388889,-0.398611111,1,0,0,0.971,Peridotite_rect,7,0.971,0,2,0,2,0,1,,,,,,,,,,,,,
65b4a836392d139322ec485b,TCN,2024-06-24_17h35.14.508,LearnStrategy,2023.2.3,Win32,60.0240096,9,1,4,0.165277778,0.011111111,1,0,0,0.811,rock_grid_rect_2,7,14,-1,-1,0.811,0.069444444,-0.398611111,1,0,0,0.481,Peridotite_rect,7,0.481,1,3,0,3,0,1,,,,,,,,,,,,,
65b4a836392d139322ec485b,TCN,2024-06-24_17h35.14.508,LearnStrategy,2023.2.3,Win32,60.0240096,9,1,5,0.165277778,-0.0125,1,0,0,0.796,rock_grid_rect_2,3,14,-1,-1,0.796,-0.081944444,-0.381944444,1,0,0,0.48,Pegmatite_rect,6,0.48,0,4,0,4,0,1,,,,,,,,,,,,,
65b4a836392d139322ec485b,TCN,2024-06-24_17h35.14.508,LearnStrategy,2023.2.3,Win32,60.0240096,9,1,6,0.156944444,-0.018055556,1,0,0,0.745,rock_grid_rect_2,4,12,-1,-1,0.745,0.093055556,-0.256944444,1,0,0,0.745,Diorite_rect,3,0.745,0,5,0,5,0,1,,,,,,,,,,,,,
65b4a836392d139322ec485b,TCN,2024-06-24_17h35.14.508,LearnStrategy,2023.2.3,Win32,60.0240096,9,1,7,0.2,-0.006944444,1,0,0,0.763,rock_grid_rect_2,4,16,-1,-1,0.763,0.406944444,-0.395833333,1,0,0,0.656,Pumice_rect,8,0.656,0,6,0,6,0,1,,,,,,,,,,,,,
65b4a836392d139322ec485b,TCN,2024-06-24_17h35.14.508,LearnStrategy,2023.2.3,Win32,60.0240096,9,1,8,0.154166667,-0.004166667,1,0,0,0.645,rock_grid_rect_2,5,07,-1,-1,0.645,-0.056944444,-0.229166667,1,0,0,1.044,Basalt_rect,2,1.044,0,7,0,7,0,1,,,,,,,,,,,,,
65b4a836392d139322ec485b,TCN,2024-06-24_17h35.14.508,LearnStrategy,2023.2.3,Win32,60.0240096,9,1,9,0.151388889,-0.006944444,1,0,0,0.646,rock_grid_rect_2,8,02,-1,-1,0.646,-0.365277778,-0.245833333,1,0,0,0.702,Andesite_rect,1,0.702,0,8,0,8,0,1,,,,,,,,,,,,,
65b4a836392d139322ec485b,TCN,2024-06-24_17h35.14.508,LearnStrategy,2023.2.3,Win32,60.0240096,9,1,10,0.136111111,0.0125,1,0,0,0.563,rock_grid_rect_2,7,12,-1,-1,0.563,-0.334722222,-0.406944444,1,0,0,0.591,Obsidian_rect,5,0.591,0,9,0,9,0,1,,,,,,,,,,,,,
65b4a836392d139322ec485b,TCN,2024-06-24_17h35.14.508,LearnStrategy,2023.2.3,Win32,60.0240096,9,1,11,0.165277778,0.005555556,1,0,0,0.529,rock_grid_rect_2,1,16,-1,-1,0.529,-0.354166667,-0.263888889,1,0,0,0.553,Andesite_rect,1,0.553,1,10,0,10,0,1,,,,,,,,,,,,,
65b4a836392d139322ec485b,TCN,2024-06-24_17h35.14.508,LearnStrategy,2023.2.3,Win32,60.0240096,9,1,12,0.122222222,-0.005555556,1,0,0,0.579,rock_grid_rect_2,6,11,-1,-1,0.579,-0.081944444,-0.268055556,1,0,0,0.542,Basalt_rect,2,0.542,0,11,0,11,0,1,,,,,,,,,,,,,
65b4a836392d139322ec485b,TCN,2024-06-24_17h35.14.508,LearnStrategy,2023.2.3,Win32,60.0240096,9,1,13,0.1625,-0.006944444,1,0,0,0.53,rock_grid_rect_2,2,06,-1,-1,0.53,0.4,-0.254166667,1,0,0,2.293,Gabbro_rect,4,2.293,0,12,0,12,0,1,,,,,,,,,,,,,
65b4a836392d139322ec485b,TCN,2024-06-24_17h35.14.508,LearnStrategy,2023.2.3,Win32,60.0240096,9,1,14,0.145833333,-0.009722222,1,0,0,0.696,rock_grid_rect_2,3,08,-1,-1,0.696,-0.083333333,-0.244444444,1,0,0,0.601,Basalt_rect,2,0.601,0,13,0,13,0,1,,,,,,,,,,,,,
65b4a836392d139322ec485b,TCN,2024-06-24_17h35.14.508,LearnStrategy,2023.2.3,Win32,60.0240096,9,1,15,0.197222222,0.004166667,1,0,0,0.647,rock_grid_rect_2,6,08,-1,-1,0.647,0.061111111,-0.243055556,1,0,0,1.193,Diorite_rect,3,1.193,0,14,0,14,0,1,,,,,,,,,,,,,
65b4a836392d139322ec485b,TCN,2024-06-24_17h35.14.508,LearnStrategy,2023.2.3,Win32,60.0240096,9,1,16,0.143055556,-0.006944444,1,0,0,0.798,rock_grid_rect_2,2,04,-1,-1,0.798,-0.1125,-0.384722222,1,0,0,0.49,Pegmatite_rect,6,0.49,0,15,0,15,0,1,,,,,,,,,,,,,
65b4a836392d139322ec485b,TCN,2024-06-24_17h35.14.508,LearnStrategy,2023.2.3,Win32,60.0240096,9,2,1,,,,,,,,7,02,,,,,,,,,,,7,1.054,1,,,,,,0.1,-0.415277778,1,0,0,1.054,Peridotite_rect,0,0,0,0,1,
65b4a836392d139322ec485b,TCN,2024-06-24_17h35.14.508,LearnStrategy,2023.2.3,Win32,60.0240096,9,2,2,,,,,,,,6,05,,,,,,,,,,,8,0.395,0,,,,,,0.3375,-0.395833333,1,0,0,0.395,Pumice_rect,1,0,1,0,1,
65b4a836392d139322ec485b,TCN,2024-06-24_17h35.14.508,LearnStrategy,2023.2.3,Win32,60.0240096,9,2,3,,,,,,,,2,09,,,,,,,,,,,6,0.11,0,,,,,,-0.140277778,-0.420833333,1,0,0,0.11,Pegmatite_rect,2,0,2,0,1,
65b4a836392d139322ec485b,TCN,2024-06-24_17h35.14.508,LearnStrategy,2023.2.3,Win32,60.0240096,9,2,4,,,,,,,,8,13,,,,,,,,,,,3,1.037,0,,,,,,0.029166667,-0.243055556,1,0,0,1.037,Diorite_rect,3,0,3,0,1,
65b4a836392d139322ec485b,TCN,2024-06-24_17h35.14.508,LearnStrategy,2023.2.3,Win32,60.0240096,9,2,5,,,,,,,,6,07,,,,,,,,,,,2,0.131,0,,,,,,-0.059722222,-0.245833333,1,0,0,0.131,Basalt_rect,4,0,4,0,1,
65b4a836392d139322ec485b,TCN,2024-06-24_17h35.14.508,LearnStrategy,2023.2.3,Win32,60.0240096,9,2,6,,,,,,,,5,02,,,,,,,,,,,4,0.553,0,,,,,,0.334722222,-0.259722222,1,0,0,0.553,Gabbro_rect,5,0,5,0,1,
65b4a836392d139322ec485b,TCN,2024-06-24_17h35.14.508,LearnStrategy,2023.2.3,Win32,60.0240096,9,2,7,,,,,,,,3,10,,,,,,,,,,,2,0.888,0,,,,,,-0.081944444,-0.2375,1,0,0,0.888,Basalt_rect,6,0,6,0,1,
65b4a836392d139322ec485b,TCN,2024-06-24_17h35.14.508,LearnStrategy,2023.2.3,Win32,60.0240096,9,2,8,,,,,,,,4,10,,,,,,,,,,,5,1.25,0,,,,,,-0.315277778,-0.398611111,1,0,0,1.25,Obsidian_rect,7,0,7,0,1,
65b4a836392d139322ec485b,TCN,2024-06-24_17h35.14.508,LearnStrategy,2023.2.3,Win32,60.0240096,9,2,9,,,,,,,,1,05,,,,,,,,,,,6,0.252,0,,,,,,-0.106944444,-0.420833333,1,0,0,0.252,Pegmatite_rect,8,0,8,0,1,
65b4a836392d139322ec485b,TCN,2024-06-24_17h35.14.508,LearnStrategy,2023.2.3,Win32,60.0240096,9,2,10,,,,,,,,3,09,,,,,,,,,,,7,0.665,0,,,,,,0.168055556,-0.420833333,1,0,0,0.665,Peridotite_rect,9,0,9,0,1,
65b4a836392d139322ec485b,TCN,2024-06-24_17h35.14.508,LearnStrategy,2023.2.3,Win32,60.0240096,9,2,11,,,,,,,,8,04,,,,,,,,,,,1,0.73,0,,,,,,-0.377777778,-0.244444444,1,0,0,0.73,Andesite_rect,10,0,10,0,1,
65b4a836392d139322ec485b,TCN,2024-06-24_17h35.14.508,LearnStrategy,2023.2.3,Win32,60.0240096,9,2,12,,,,,,,,4,03,,,,,,,,,,,2,0.248,0,,,,,,-0.136111111,-0.2375,1,0,0,0.248,Basalt_rect,11,0,11,0,1,
65b4a836392d139322ec485b,TCN,2024-06-24_17h35.14.508,LearnStrategy,2023.2.3,Win32,60.0240096,9,2,13,,,,,,,,1,10,,,,,,,,,,,3,0.256,0,,,,,,0.141666667,-0.254166667,1,0,0,0.256,Diorite_rect,12,0,12,0,1,
65b4a836392d139322ec485b,TCN,2024-06-24_17h35.14.508,LearnStrategy,2023.2.3,Win32,60.0240096,9,2,14,,,,,,,,7,16,,,,,,,,,,,4,0.511,0,,,,,,0.395833333,-0.261111111,1,0,0,0.511,Gabbro_rect,13,0,13,0,1,
65b4a836392d139322ec485b,TCN,2024-06-24_17h35.14.508,LearnStrategy,2023.2.3,Win32,60.0240096,9,2,15,,,,,,,,5,14,,,,,,,,,,,8,1.218,0,,,,,,0.376388889,-0.394444444,1,0,0,1.218,Pumice_rect,14,0,14,0,1,
65b4a836392d139322ec485b,TCN,2024-06-24_17h35.14.508,LearnStrategy,2023.2.3,Win32,60.0240096,9,2,16,,,,,,,,2,01,,,,,,,,,,,5,1.758,0,,,,,,-0.320833333,-0.4125,1,0,0,1.758,Obsidian_rect,15,0,15,0,1,
65b4a836392d139322ec485b,TCN,2024-06-24_17h35.14.508,LearnStrategy,2023.2.3,Win32,60.0240096,,,,,,,,,,,,,,,,,,,,,,,,,,,,,,,,,,,,,,,,,,,0
65b4a836392d139322ec485b,TCN,2024-06-24_17h35.14.508,LearnStrategy,2023.2.3,Win32,60.0240096,,,,,,,,,,,,,,,,,,,,,,,,,,,,,,,,,,,,,,,,,,,
65b4a836392d139322ec485b,TCN,2024-06-24_17h35.14.508,LearnStrategy,2023.2.3,Win32,60.0240096,,,,,,,,,,,6,09,1,1,,,,,,,,,,,,,,,,,,,,,,,,,,,,,
65b4a836392d139322ec485b,TCN,2024-06-24_17h35.14.508,LearnStrategy,2023.2.3,Win32,60.0240096,,,,,,,,,,,3,11,1,2,,,,,,,,,,,,,,,,,,,,,,,,,,,,,
65b4a836392d139322ec485b,TCN,2024-06-24_17h35.14.508,LearnStrategy,2023.2.3,Win32,60.0240096,,,,,,,,,,,3,12,1,3,,,,,,,,,,,,,,,,,,,,,,,,,,,,,
65b4a836392d139322ec485b,TCN,2024-06-24_17h35.14.508,LearnStrategy,2023.2.3,Win32,60.0240096,,,,,,,,,,,4,05,1,4,,,,,,,,,,,,,,,,,,,,,,,,,,,,,
65b4a836392d139322ec485b,TCN,2024-06-24_17h35.14.508,LearnStrategy,2023.2.3,Win32,60.0240096,,,,,,,,,,,8,06,1,5,,,,,,,,,,,,,,,,,,,,,,,,,,,,,
65b4a836392d139322ec485b,TCN,2024-06-24_17h35.14.508,LearnStrategy,2023.2.3,Win32,60.0240096,,,,,,,,,,,3,06,1,6,,,,,,,,,,,,,,,,,,,,,,,,,,,,,
65b4a836392d139322ec485b,TCN,2024-06-24_17h35.14.508,LearnStrategy,2023.2.3,Win32,60.0240096,,,,,,,,,,,8,08,1,7,,,,,,,,,,,,,,,,,,,,,,,,,,,,,
65b4a836392d139322ec485b,TCN,2024-06-24_17h35.14.508,LearnStrategy,2023.2.3,Win32,60.0240096,,,,,,,,,,,2,04,1,8,,,,,,,,,,,,,,,,,,,,,,,,,,,,,
65b4a836392d139322ec485b,TCN,2024-06-24_17h35.14.508,LearnStrategy,2023.2.3,Win32,60.0240096,,,,,,,,,,,5,08,2,1,,,,,,,,,,,,,,,,,,,,,,,,,,,,,
65b4a836392d139322ec485b,TCN,2024-06-24_17h35.14.508,LearnStrategy,2023.2.3,Win32,60.0240096,,,,,,,,,,,7,15,2,2,,,,,,,,,,,,,,,,,,,,,,,,,,,,,
65b4a836392d139322ec485b,TCN,2024-06-24_17h35.14.508,LearnStrategy,2023.2.3,Win32,60.0240096,,,,,,,,,,,8,14,2,3,,,,,,,,,,,,,,,,,,,,,,,,,,,,,
65b4a836392d139322ec485b,TCN,2024-06-24_17h35.14.508,LearnStrategy,2023.2.3,Win32,60.0240096,,,,,,,,,,,6,15,2,4,,,,,,,,,,,,,,,,,,,,,,,,,,,,,
65b4a836392d139322ec485b,TCN,2024-06-24_17h35.14.508,LearnStrategy,2023.2.3,Win32,60.0240096,,,,,,,,,,,6,11,2,5,,,,,,,,,,,,,,,,,,,,,,,,,,,,,
65b4a836392d139322ec485b,TCN,2024-06-24_17h35.14.508,LearnStrategy,2023.2.3,Win32,60.0240096,,,,,,,,,,,7,12,2,6,,,,,,,,,,,,,,,,,,,,,,,,,,,,,
65b4a836392d139322ec485b,TCN,2024-06-24_17h35.14.508,LearnStrategy,2023.2.3,Win32,60.0240096,,,,,,,,,,,4,14,2,7,,,,,,,,,,,,,,,,,,,,,,,,,,,,,
65b4a836392d139322ec485b,TCN,2024-06-24_17h35.14.508,LearnStrategy,2023.2.3,Win32,60.0240096,,,,,,,,,,,4,16,2,8,,,,,,,,,,,,,,,,,,,,,,,,,,,,,
65b4a836392d139322ec485b,TCN,2024-06-24_17h35.14.508,LearnStrategy,2023.2.3,Win32,60.0240096,,,,,,,,,,,3,07,3,1,,,,,,,,,,,,,,,,,,,,,,,,,,,,,
65b4a836392d139322ec485b,TCN,2024-06-24_17h35.14.508,LearnStrategy,2023.2.3,Win32,60.0240096,,,,,,,,,,,5,11,3,2,,,,,,,,,,,,,,,,,,,,,,,,,,,,,
65b4a836392d139322ec485b,TCN,2024-06-24_17h35.14.508,LearnStrategy,2023.2.3,Win32,60.0240096,,,,,,,,,,,2,12,3,3,,,,,,,,,,,,,,,,,,,,,,,,,,,,,
65b4a836392d139322ec485b,TCN,2024-06-24_17h35.14.508,LearnStrategy,2023.2.3,Win32,60.0240096,,,,,,,,,,,5,06,3,4,,,,,,,,,,,,,,,,,,,,,,,,,,,,,
65b4a836392d139322ec485b,TCN,2024-06-24_17h35.14.508,LearnStrategy,2023.2.3,Win32,60.0240096,,,,,,,,,,,4,12,3,5,,,,,,,,,,,,,,,,,,,,,,,,,,,,,
65b4a836392d139322ec485b,TCN,2024-06-24_17h35.14.508,LearnStrategy,2023.2.3,Win32,60.0240096,,,,,,,,,,,8,02,3,6,,,,,,,,,,,,,,,,,,,,,,,,,,,,,
65b4a836392d139322ec485b,TCN,2024-06-24_17h35.14.508,LearnStrategy,2023.2.3,Win32,60.0240096,,,,,,,,,,,7,13,3,7,,,,,,,,,,,,,,,,,,,,,,,,,,,,,
65b4a836392d139322ec485b,TCN,2024-06-24_17h35.14.508,LearnStrategy,2023.2.3,Win32,60.0240096,,,,,,,,,,,5,07,3,8,,,,,,,,,,,,,,,,,,,,,,,,,,,,,
65b4a836392d139322ec485b,TCN,2024-06-24_17h35.14.508,LearnStrategy,2023.2.3,Win32,60.0240096,,,,,,,,,,,1,11,4,1,,,,,,,,,,,,,,,,,,,,,,,,,,,,,
65b4a836392d139322ec485b,TCN,2024-06-24_17h35.14.508,LearnStrategy,2023.2.3,Win32,60.0240096,,,,,,,,,,,2,06,4,2,,,,,,,,,,,,,,,,,,,,,,,,,,,,,
65b4a836392d139322ec485b,TCN,2024-06-24_17h35.14.508,LearnStrategy,2023.2.3,Win32,60.0240096,,,,,,,,,,,6,12,4,3,,,,,,,,,,,,,,,,,,,,,,,,,,,,,
65b4a836392d139322ec485b,TCN,2024-06-24_17h35.14.508,LearnStrategy,2023.2.3,Win32,60.0240096,,,,,,,,,,,7,08,4,4,,,,,,,,,,,,,,,,,,,,,,,,,,,,,
65b4a836392d139322ec485b,TCN,2024-06-24_17h35.14.508,LearnStrategy,2023.2.3,Win32,60.0240096,,,,,,,,,,,3,14,4,5,,,,,,,,,,,,,,,,,,,,,,,,,,,,,
65b4a836392d139322ec485b,TCN,2024-06-24_17h35.14.508,LearnStrategy,2023.2.3,Win32,60.0240096,,,,,,,,,,,1,14,4,6,,,,,,,,,,,,,,,,,,,,,,,,,,,,,
65b4a836392d139322ec485b,TCN,2024-06-24_17h35.14.508,LearnStrategy,2023.2.3,Win32,60.0240096,,,,,,,,,,,2,02,4,7,,,,,,,,,,,,,,,,,,,,,,,,,,,,,
65b4a836392d139322ec485b,TCN,2024-06-24_17h35.14.508,LearnStrategy,2023.2.3,Win32,60.0240096,,,,,,,,,,,1,04,4,8,,,,,,,,,,,,,,,,,,,,,,,,,,,,,
65b4a836392d139322ec485b,TCN,2024-06-24_17h35.14.508,LearnStrategy,2023.2.3,Win32,60.0240096,,,,,,,,,,,4,08,5,1,,,,,,,,,,,,,,,,,,,,,,,,,,,,,
65b4a836392d139322ec485b,TCN,2024-06-24_17h35.14.508,LearnStrategy,2023.2.3,Win32,60.0240096,,,,,,,,,,,2,16,5,2,,,,,,,,,,,,,,,,,,,,,,,,,,,,,
65b4a836392d139322ec485b,TCN,2024-06-24_17h35.14.508,LearnStrategy,2023.2.3,Win32,60.0240096,,,,,,,,,,,1,07,5,3,,,,,,,,,,,,,,,,,,,,,,,,,,,,,
65b4a836392d139322ec485b,TCN,2024-06-24_17h35.14.508,LearnStrategy,2023.2.3,Win32,60.0240096,,,,,,,,,,,3,08,5,4,,,,,,,,,,,,,,,,,,,,,,,,,,,,,
65b4a836392d139322ec485b,TCN,2024-06-24_17h35.14.508,LearnStrategy,2023.2.3,Win32,60.0240096,,,,,,,,,,,5,12,5,5,,,,,,,,,,,,,,,,,,,,,,,,,,,,,
65b4a836392d139322ec485b,TCN,2024-06-24_17h35.14.508,LearnStrategy,2023.2.3,Win32,60.0240096,,,,,,,,,,,6,08,5,6,,,,,,,,,,,,,,,,,,,,,,,,,,,,,
65b4a836392d139322ec485b,TCN,2024-06-24_17h35.14.508,LearnStrategy,2023.2.3,Win32,60.0240096,,,,,,,,,,,7,06,5,7,,,,,,,,,,,,,,,,,,,,,,,,,,,,,
65b4a836392d139322ec485b,TCN,2024-06-24_17h35.14.508,LearnStrategy,2023.2.3,Win32,60.0240096,,,,,,,,,,,8,15,5,8,,,,,,,,,,,,,,,,,,,,,,,,,,,,,
65b4a836392d139322ec485b,TCN,2024-06-24_17h35.14.508,LearnStrategy,2023.2.3,Win32,60.0240096,,,,,,,,,,,8,10,6,1,,,,,,,,,,,,,,,,,,,,,,,,,,,,,
65b4a836392d139322ec485b,TCN,2024-06-24_17h35.14.508,LearnStrategy,2023.2.3,Win32,60.0240096,,,,,,,,,,,1,02,6,2,,,,,,,,,,,,,,,,,,,,,,,,,,,,,
65b4a836392d139322ec485b,TCN,2024-06-24_17h35.14.508,LearnStrategy,2023.2.3,Win32,60.0240096,,,,,,,,,,,1,16,6,3,,,,,,,,,,,,,,,,,,,,,,,,,,,,,
65b4a836392d139322ec485b,TCN,2024-06-24_17h35.14.508,LearnStrategy,2023.2.3,Win32,60.0240096,,,,,,,,,,,5,16,6,4,,,,,,,,,,,,,,,,,,,,,,,,,,,,,
65b4a836392d139322ec485b,TCN,2024-06-24_17h35.14.508,LearnStrategy,2023.2.3,Win32,60.0240096,,,,,,,,,,,7,14,6,5,,,,,,,,,,,,,,,,,,,,,,,,,,,,,
65b4a836392d139322ec485b,TCN,2024-06-24_17h35.14.508,LearnStrategy,2023.2.3,Win32,60.0240096,,,,,,,,,,,2,11,6,6,,,,,,,,,,,,,,,,,,,,,,,,,,,,,
65b4a836392d139322ec485b,TCN,2024-06-24_17h35.14.508,LearnStrategy,2023.2.3,Win32,60.0240096,,,,,,,,,,,4,13,6,7,,,,,,,,,,,,,,,,,,,,,,,,,,,,,
65b4a836392d139322ec485b,TCN,2024-06-24_17h35.14.508,LearnStrategy,2023.2.3,Win32,60.0240096,,,,,,,,,,,6,13,6,8,,,,,,,,,,,,,,,,,,,,,,,,,,,,,