participant,condition,date,expName,psychopyVersion,OS,frameRate,block,phase,trial,learn_mouse.x,learn_mouse.y,learn_mouse.leftButton,learn_mouse.midButton,learn_mouse.rightButton,learn_mouse.time,learn_mouse.clicked_name,cat,token,row,col,t_select,cat_rec,token_rec,cat_mouse_l.x,cat_mouse_l.y,cat_mouse_l.leftButton,cat_mouse_l.midButton,cat_mouse_l.rightButton,cat_mouse_l.time,cat_mouse_l.clicked_name,resp,t_resp,corr,train_trials.thisRepN,train_trials.thisTrialN,train_trials.thisN,train_trials.thisIndex,train_trials.ran,cat_mouse_t.x,cat_mouse_t.y,cat_mouse_t.leftButton,cat_mouse_t.midButton,cat_mouse_t.rightButton,cat_mouse_t.time,cat_mouse_t.clicked_name,test_trials.thisRepN,test_trials.thisTrialN,test_trials.thisN,test_trials.thisIndex,test_trials.ran,Bonus
65b92135e296f28cb1a093c3,SCR,2024-06-21_13h48.13.092,LearnStrategy,2023.2.3,Win32,4.615782283,,,,,,,,,,,,,,,,,,,,,,,,,,,,,,,,,,,,,,,,,,,,,
65b92135e296f28cb1a093c3,SCR,2024-06-21_13h48.13.092,LearnStrategy,2023.2.3,Win32,4.615782283,1,1,1,-0.227864583,0.279947917,1,0,0,8.5445,Obsidian_14,5,14,5,3,8.545,5,14,-0.42578125,-0.389322917,1,0,0,28.7276,Obsidian_rect,5,28.728,1,0,0,0,0,1,,,,,,,,,,,,,
65b92135e296f28cb1a093c3,SCR,2024-06-21_13h48.13.092,LearnStrategy,2023.2.3,Win32,4.615782283,1,1,2,0.57421875,0.303385417,1,0,0,12.8643,Pumice_04,8,04,5,8,12.864,8,04,0.388020833,-0.385416667,1,0,0,3.7113,Pumice_rect,8,3.711,1,1,0,1,0,1,,,,,,,,,,,,,
65b92135e296f28cb1a093c3,SCR,2024-06-21_13h48.13.092,LearnStrategy,2023.2.3,Win32,4.615782283,1,1,3,-0.229166667,0.4140625,1,0,0,2.1438,Andesite_06,1,06,6,3,2.144,1,06,-0.127604167,-0.244791667,1,0,0,13.7341,Basalt_rect,2,13.734,0,2,0,2,0,1,,,,,,,,,,,,,
65b92135e296f28cb1a093c3,SCR,2024-06-21_13h48.13.092,LearnStrategy,2023.2.3,Win32,4.615782283,1,1,4,0.565104167,0.109375,1,0,0,2.1308,Diorite_09,3,09,4,8,2.131,3,09,0.337239583,-0.240885417,1,0,0,7.3475,Gabbro_rect,4,7.348,0,3,0,3,0,1,,,,,,,,,,,,,
65b92135e296f28cb1a093c3,SCR,2024-06-21_13h48.13.092,LearnStrategy,2023.2.3,Win32,4.615782283,1,1,5,0.091145833,-0.415364583,1,0,0,5.3749,Diorite_11,3,11,1,5,5.375,3,11,0.1484375,-0.404947917,1,0,0,17.4475,Peridotite_rect,7,17.447,0,4,0,4,0,1,,,,,,,,,,,,,
65b92135e296f28cb1a093c3,SCR,2024-06-21_13h48.13.092,LearnStrategy,2023.2.3,Win32,4.615782283,1,1,6,0.067708333,0.118489583,1,0,0,11.1828,Obsidian_12,5,12,4,5,11.183,5,12,-0.354166667,-0.399739583,1,0,0,2.2603,Obsidian_rect,5,2.26,1,5,0,5,0,1,,,,,,,,,,,,,
65b92135e296f28cb1a093c3,SCR,2024-06-21_13h48.13.092,LearnStrategy,2023.2.3,Win32,4.615782283,1,1,7,-0.201822917,0.096354167,1,0,0,1.762,Pegmatite_12,6,12,4,3,1.762,6,12,0.157552083,-0.25,1,0,0,17.2809,Diorite_rect,3,17.281,0,6,0,6,0,1,,,,,,,,,,,,,
65b92135e296f28cb1a093c3,SCR,2024-06-21_13h48.13.092,LearnStrategy,2023.2.3,Win32,4.615782283,1,1,8,0.079427083,0.247395833,1,0,0,10.1733,Pegmatite_11,6,11,5,5,10.173,6,11,0.389322917,-0.239583333,1,0,0,5.5207,Gabbro_rect,4,5.521,0,7,0,7,0,1,,,,,,,,,,,,,
65b92135e296f28cb1a093c3,SCR,2024-06-21_13h48.13.092,LearnStrategy,2023.2.3,Win32,4.615782283,1,1,9,-0.080729167,-0.251302083,1,0,0,8.1053,Gabbro_08,4,08,2,4,8.105,4,08,0.346354167,-0.389322917,1,0,0,3.4938,Pumice_rect,8,3.494,0,8,0,8,0,1,,,,,,,,,,,,,
65b92135e296f28cb1a093c3,SCR,2024-06-21_13h48.13.092,LearnStrategy,2023.2.3,Win32,4.615782283,1,1,10,0.244791667,0.08984375,1,0,0,14.158,Peridotite_16,7,16,4,6,14.158,7,16,-0.100260417,-0.25,1,0,0,7.8475,Basalt_rect,2,7.847,0,9,0,9,0,1,,,,,,,,,,,,,
65b92135e296f28cb1a093c3,SCR,2024-06-21_13h48.13.092,LearnStrategy,2023.2.3,Win32,4.615782283,1,1,11,0.401041667,0.376302083,1,0,0,4.3379,Andesite_07,1,07,6,7,4.338,1,07,0.16015625,-0.24609375,1,0,0,12.499,Diorite_rect,3,12.499,0,10,0,10,0,1,,,,,,,,,,,,,
65b92135e296f28cb1a093c3,SCR,2024-06-21_13h48.13.092,LearnStrategy,2023.2.3,Win32,4.615782283,1,1,12,0.411458333,0.264322917,1,0,0,20.5813,Basalt_14,2,14,5,7,20.581,2,14,-0.106770833,-0.233072917,1,0,0,11.7175,Basalt_rect,2,11.717,1,11,0,11,0,1,,,,,,,,,,,,,
65b92135e296f28cb1a093c3,SCR,2024-06-21_13h48.13.092,LearnStrategy,2023.2.3,Win32,4.615782283,1,1,13,-0.063802083,-0.076822917,1,0,0,1.7596,Pumice_05,8,05,3,4,1.76,8,05,0.420572917,-0.407552083,1,0,0,4.0155,Pumice_rect,8,4.015,1,12,0,12,0,1,,,,,,,,,,,,,
65b92135e296f28cb1a093c3,SCR,2024-06-21_13h48.13.092,LearnStrategy,2023.2.3,Win32,4.615782283,1,1,14,-0.513020833,0.23828125,1,0,0,2.4982,Gabbro_09,4,09,5,1,2.498,4,09,-0.381510417,-0.259114583,1,0,0,4.695,Andesite_rect,1,4.695,0,13,0,13,0,1,,,,,,,,,,,,,
65b92135e296f28cb1a093c3,SCR,2024-06-21_13h48.13.092,LearnStrategy,2023.2.3,Win32,4.615782283,1,1,15,0.092447917,0.3828125,1,0,0,7.4457,Peridotite_02,7,02,6,5,7.446,7,02,0.12890625,-0.26171875,1,0,0,4.2691,Diorite_rect,3,4.269,0,14,0,14,0,1,,,,,,,,,,,,,
65b92135e296f28cb1a093c3,SCR,2024-06-21_13h48.13.092,LearnStrategy,2023.2.3,Win32,4.615782283,1,1,16,0.545572917,-0.104166667,1,0,0,9.5384,Peridotite_15,7,15,3,8,9.538,2,06,0.130208333,-0.3984375,1,0,0,12.0311,Peridotite_rect,7,12.031,1,15,0,15,0,1,,,,,,,,,,,,,
65b92135e296f28cb1a093c3,SCR,2024-06-21_13h48.13.092,LearnStrategy,2023.2.3,Win32,4.615782283,1,2,1,,,,,,,,7,10,,,,,,,,,,,,,3,12.074,0,,,,,,0.135416667,-0.25,1,0,0,12.0741,Diorite_rect,0,0,0,0,1,
65b92135e296f28cb1a093c3,SCR,2024-06-21_13h48.13.092,LearnStrategy,2023.2.3,Win32,4.615782283,1,2,2,,,,,,,,4,15,,,,,,,,,,,,,1,3.385,0,,,,,,-0.3515625,-0.256510417,1,0,0,3.385,Andesite_rect,1,0,1,0,1,
65b92135e296f28cb1a093c3,SCR,2024-06-21_13h48.13.092,LearnStrategy,2023.2.3,Win32,4.615782283,1,2,3,,,,,,,,2,16,,,,,,,,,,,,,6,11.143,0,,,,,,-0.130208333,-0.401041667,1,0,0,11.143,Pegmatite_rect,2,0,2,0,1,
65b92135e296f28cb1a093c3,SCR,2024-06-21_13h48.13.092,LearnStrategy,2023.2.3,Win32,4.615782283,1,2,4,,,,,,,,5,04,,,,,,,,,,,,,5,1.908,1,,,,,,-0.364583333,-0.411458333,1,0,0,1.9077,Obsidian_rect,3,0,3,0,1,
65b92135e296f28cb1a093c3,SCR,2024-06-21_13h48.13.092,LearnStrategy,2023.2.3,Win32,4.615782283,1,2,5,,,,,,,,8,13,,,,,,,,,,,,,6,7.012,0,,,,,,-0.102864583,-0.393229167,1,0,0,7.0124,Pegmatite_rect,4,0,4,0,1,
65b92135e296f28cb1a093c3,SCR,2024-06-21_13h48.13.092,LearnStrategy,2023.2.3,Win32,4.615782283,1,2,6,,,,,,,,1,03,,,,,,,,,,,,,4,6.128,0,,,,,,0.341145833,-0.248697917,1,0,0,6.1282,Gabbro_rect,5,0,5,0,1,
65b92135e296f28cb1a093c3,SCR,2024-06-21_13h48.13.092,LearnStrategy,2023.2.3,Win32,4.615782283,1,2,7,,,,,,,,7,07,,,,,,,,,,,,,7,3.156,1,,,,,,0.111979167,-0.397135417,1,0,0,3.1556,Peridotite_rect,6,0,6,0,1,
65b92135e296f28cb1a093c3,SCR,2024-06-21_13h48.13.092,LearnStrategy,2023.2.3,Win32,4.615782283,1,2,8,,,,,,,,1,04,,,,,,,,,,,,,7,6.111,0,,,,,,0.19140625,-0.3984375,1,0,0,6.1114,Peridotite_rect,7,0,7,0,1,
65b92135e296f28cb1a093c3,SCR,2024-06-21_13h48.13.092,LearnStrategy,2023.2.3,Win32,4.615782283,1,2,9,,,,,,,,6,05,,,,,,,,,,,,,6,5.353,1,,,,,,-0.08203125,-0.395833333,1,0,0,5.353,Pegmatite_rect,8,0,8,0,1,
65b92135e296f28cb1a093c3,SCR,2024-06-21_13h48.13.092,LearnStrategy,2023.2.3,Win32,4.615782283,1,2,10,,,,,,,,6,09,,,,,,,,,,,,,7,6.138,0,,,,,,0.171875,-0.397135417,1,0,0,6.1377,Peridotite_rect,9,0,9,0,1,
65b92135e296f28cb1a093c3,SCR,2024-06-21_13h48.13.092,LearnStrategy,2023.2.3,Win32,4.615782283,1,2,11,,,,,,,,2,08,,,,,,,,,,,,,5,10.805,0,,,,,,-0.334635417,-0.39453125,1,0,0,10.8046,Obsidian_rect,10,0,10,0,1,
65b92135e296f28cb1a093c3,SCR,2024-06-21_13h48.13.092,LearnStrategy,2023.2.3,Win32,4.615782283,1,2,12,,,,,,,,5,07,,,,,,,,,,,,,7,7.539,0,,,,,,0.115885417,-0.390625,1,0,0,7.5388,Peridotite_rect,11,0,11,0,1,
65b92135e296f28cb1a093c3,SCR,2024-06-21_13h48.13.092,LearnStrategy,2023.2.3,Win32,4.615782283,1,2,13,,,,,,,,3,15,,,,,,,,,,,,,7,5.391,0,,,,,,0.13671875,-0.393229167,1,0,0,5.3912,Peridotite_rect,12,0,12,0,1,
65b92135e296f28cb1a093c3,SCR,2024-06-21_13h48.13.092,LearnStrategy,2023.2.3,Win32,4.615782283,1,2,14,,,,,,,,4,01,,,,,,,,,,,,,3,4.649,0,,,,,,0.106770833,-0.259114583,1,0,0,4.6492,Diorite_rect,13,0,13,0,1,
65b92135e296f28cb1a093c3,SCR,2024-06-21_13h48.13.092,LearnStrategy,2023.2.3,Win32,4.615782283,1,2,15,,,,,,,,3,14,,,,,,,,,,,,,6,7.686,0,,,,,,-0.108072917,-0.41015625,1,0,0,7.6861,Pegmatite_rect,14,0,14,0,1,
65b92135e296f28cb1a093c3,SCR,2024-06-21_13h48.13.092,LearnStrategy,2023.2.3,Win32,4.615782283,1,2,16,,,,,,,,8,03,,,,,,,,,,,,,8,4.545,1,,,,,,0.37890625,-0.3984375,1,0,0,4.5454,Pumice_rect,15,0,15,0,1,
65b92135e296f28cb1a093c3,SCR,2024-06-21_13h48.13.092,LearnStrategy,2023.2.3,Win32,4.615782283,2,1,1,0.08203125,0.091145833,1,0,0,5.6716,Obsidian_12,5,12,4,5,5.672,5,12,-0.390625,-0.3984375,1,0,0,3.3662,Obsidian_rect,5,3.366,1,0,0,0,0,1,,,,,,,,,,,,,
65b92135e296f28cb1a093c3,SCR,2024-06-21_13h48.13.092,LearnStrategy,2023.2.3,Win32,4.615782283,2,1,2,0.384114583,0.391927083,1,0,0,2.1633,Andesite_07,1,07,6,7,2.163,7,02,-0.341145833,-0.26953125,1,0,0,2.668,Andesite_rect,1,2.668,1,1,0,1,0,1,,,,,,,,,,,,,
65b92135e296f28cb1a093c3,SCR,2024-06-21_13h48.13.092,LearnStrategy,2023.2.3,Win32,4.615782283,2,1,3,0.084635417,-0.268229167,1,0,0,6.3773,Pegmatite_16,6,16,2,5,6.377,1,06,0.13671875,-0.403645833,1,0,0,9.8058,Peridotite_rect,7,9.806,0,2,0,2,0,1,,,,,,,,,,,,,
65b92135e296f28cb1a093c3,SCR,2024-06-21_13h48.13.092,LearnStrategy,2023.2.3,Win32,4.615782283,2,1,4,0.407552083,-0.2421875,1,0,0,3.9211,Pegmatite_13,6,13,2,7,3.921,2,11,-0.118489583,-0.399739583,1,0,0,6.9807,Pegmatite_rect,6,6.981,1,3,0,3,0,1,,,,,,,,,,,,,
65b92135e296f28cb1a093c3,SCR,2024-06-21_13h48.13.092,LearnStrategy,2023.2.3,Win32,4.615782283,2,1,5,0.067708333,0.251302083,1,0,0,2.1376,Pegmatite_11,6,11,5,5,2.138,1,02,-0.115885417,-0.391927083,1,0,0,2.2252,Pegmatite_rect,6,2.225,1,4,0,4,0,1,,,,,,,,,,,,,
65b92135e296f28cb1a093c3,SCR,2024-06-21_13h48.13.092,LearnStrategy,2023.2.3,Win32,4.615782283,2,1,6,-0.5546875,0.087239583,1,0,0,9.1401,Peridotite_06,7,06,4,1,9.14,8,09,0.16015625,-0.255208333,1,0,0,3.3564,Diorite_rect,3,3.356,0,5,0,5,0,1,,,,,,,,,,,,,
65b92135e296f28cb1a093c3,SCR,2024-06-21_13h48.13.092,LearnStrategy,2023.2.3,Win32,4.615782283,2,1,7,0.39453125,0.381510417,1,0,0,7.0171,Andesite_07,1,07,6,7,7.017,3,10,-0.141927083,-0.40234375,1,0,0,10.3253,Pegmatite_rect,6,10.325,0,6,0,6,0,1,,,,,,,,,,,,,
65b92135e296f28cb1a093c3,SCR,2024-06-21_13h48.13.092,LearnStrategy,2023.2.3,Win32,4.615782283,2,1,8,-0.528645833,-0.259114583,1,0,0,7.075,Diorite_08,3,08,2,1,7.075,4,05,-0.33203125,-0.24609375,1,0,0,14.2631,Andesite_rect,1,14.263,0,7,0,7,0,1,,,,,,,,,,,,,
65b92135e296f28cb1a093c3,SCR,2024-06-21_13h48.13.092,LearnStrategy,2023.2.3,Win32,4.615782283,2,1,9,0.557291667,-0.109375,1,0,0,7.0349,Peridotite_15,7,15,3,8,7.035,1,07,-0.111979167,-0.40234375,1,0,0,1.8635,Pegmatite_rect,6,1.863,0,8,0,8,0,1,,,,,,,,,,,,,
65b92135e296f28cb1a093c3,SCR,2024-06-21_13h48.13.092,LearnStrategy,2023.2.3,Win32,4.615782283,2,1,10,0.244791667,0.083333333,1,0,0,11.537,Peridotite_16,7,16,4,6,11.537,6,10,-0.095052083,-0.388020833,1,0,0,7.1548,Pegmatite_rect,6,7.155,0,9,0,9,0,1,,,,,,,,,,,,,
65b92135e296f28cb1a093c3,SCR,2024-06-21_13h48.13.092,LearnStrategy,2023.2.3,Win32,4.615782283,2,1,11,0.220052083,-0.2421875,1,0,0,6.0307,Gabbro_05,4,05,2,6,6.031,3,11,0.102864583,-0.399739583,1,0,0,1.9168,Peridotite_rect,7,1.917,0,10,0,10,0,1,,,,,,,,,,,,,
65b92135e296f28cb1a093c3,SCR,2024-06-21_13h48.13.092,LearnStrategy,2023.2.3,Win32,4.615782283,2,1,12,0.559895833,-0.243489583,1,0,0,3.5516,Gabbro_10,4,10,2,8,3.552,2,10,0.368489583,-0.24609375,1,0,0,11.3669,Gabbro_rect,4,11.367,1,11,0,11,0,1,,,,,,,,,,,,,
65b92135e296f28cb1a093c3,SCR,2024-06-21_13h48.13.092,LearnStrategy,2023.2.3,Win32,4.615782283,2,1,13,-0.233072917,-0.428385417,1,0,0,6.0134,Andesite_01,1,01,1,3,6.013,6,12,0.36328125,-0.252604167,1,0,0,1.8976,Gabbro_rect,4,1.898,0,12,0,12,0,1,,,,,,,,,,,,,
65b92135e296f28cb1a093c3,SCR,2024-06-21_13h48.13.092,LearnStrategy,2023.2.3,Win32,4.615782283,2,1,14,-0.53125,0.265625,1,0,0,8.0698,Gabbro_09,4,09,5,1,8.07,3,11,-0.3359375,-0.256510417,1,0,0,6.5911,Andesite_rect,1,6.591,0,13,0,13,0,1,,,,,,,,,,,,,
65b92135e296f28cb1a093c3,SCR,2024-06-21_13h48.13.092,LearnStrategy,2023.2.3,Win32,4.615782283,2,1,15,0.557291667,-0.28125,1,0,0,6.7003,Gabbro_10,4,10,2,8,6.7,4,10,0.395833333,-0.25,1,0,0,6.0478,Gabbro_rect,4,6.048,1,14,0,14,0,1,,,,,,,,,,,,,
65b92135e296f28cb1a093c3,SCR,2024-06-21_13h48.13.092,LearnStrategy,2023.2.3,Win32,4.615782283,2,1,16,0.548177083,-0.104166667,1,0,0,3.5414,Peridotite_15,7,15,3,8,3.541,7,15,0.091145833,-0.401041667,1,0,0,4.1656,Peridotite_rect,7,4.166,1,15,0,15,0,1,,,,,,,,,,,,,
65b92135e296f28cb1a093c3,SCR,2024-06-21_13h48.13.092,LearnStrategy,2023.2.3,Win32,4.615782283,2,2,1,,,,,,,,3,06,,,,,,,,,,,,,7,6.856,0,,,,,,0.134114583,-0.404947917,1,0,0,6.8557,Peridotite_rect,0,0,0,0,1,
65b92135e296f28cb1a093c3,SCR,2024-06-21_13h48.13.092,LearnStrategy,2023.2.3,Win32,4.615782283,2,2,2,,,,,,,,8,10,,,,,,,,,,,,,8,1.934,1,,,,,,0.350260417,-0.39453125,1,0,0,1.9339,Pumice_rect,1,0,1,0,1,
65b92135e296f28cb1a093c3,SCR,2024-06-21_13h48.13.092,LearnStrategy,2023.2.3,Win32,4.615782283,2,2,3,,,,,,,,4,16,,,,,,,,,,,,,2,5.303,0,,,,,,-0.083333333,-0.251302083,1,0,0,5.3033,Basalt_rect,2,0,2,0,1,
65b92135e296f28cb1a093c3,SCR,2024-06-21_13h48.13.092,LearnStrategy,2023.2.3,Win32,4.615782283,2,2,4,,,,,,,,1,10,,,,,,,,,,,,,4,6.167,0,,,,,,0.393229167,-0.244791667,1,0,0,6.1674,Gabbro_rect,3,0,3,0,1,
65b92135e296f28cb1a093c3,SCR,2024-06-21_13h48.13.092,LearnStrategy,2023.2.3,Win32,4.615782283,2,2,5,,,,,,,,5,09,,,,,,,,,,,,,5,2.389,1,,,,,,-0.358072917,-0.41015625,1,0,0,2.3891,Obsidian_rect,4,0,4,0,1,
65b92135e296f28cb1a093c3,SCR,2024-06-21_13h48.13.092,LearnStrategy,2023.2.3,Win32,4.615782283,2,2,6,,,,,,,,8,02,,,,,,,,,,,,,8,5.908,1,,,,,,0.412760417,-0.40234375,1,0,0,5.9081,Pumice_rect,5,0,5,0,1,
65b92135e296f28cb1a093c3,SCR,2024-06-21_13h48.13.092,LearnStrategy,2023.2.3,Win32,4.615782283,2,2,7,,,,,,,,5,16,,,,,,,,,,,,,5,2.193,1,,,,,,-0.381510417,-0.408854167,1,0,0,2.1934,Obsidian_rect,6,0,6,0,1,
65b92135e296f28cb1a093c3,SCR,2024-06-21_13h48.13.092,LearnStrategy,2023.2.3,Win32,4.615782283,2,2,8,,,,,,,,2,01,,,,,,,,,,,,,2,3.392,1,,,,,,-0.139322917,-0.25,1,0,0,3.3915,Basalt_rect,7,0,7,0,1,
65b92135e296f28cb1a093c3,SCR,2024-06-21_13h48.13.092,LearnStrategy,2023.2.3,Win32,4.615782283,2,2,9,,,,,,,,7,13,,,,,,,,,,,,,4,5.218,0,,,,,,0.411458333,-0.25390625,1,0,0,5.2181,Gabbro_rect,8,0,8,0,1,
65b92135e296f28cb1a093c3,SCR,2024-06-21_13h48.13.092,LearnStrategy,2023.2.3,Win32,4.615782283,2,2,10,,,,,,,,6,15,,,,,,,,,,,,,6,9.547,1,,,,,,-0.061197917,-0.399739583,1,0,0,9.5467,Pegmatite_rect,9,0,9,0,1,
65b92135e296f28cb1a093c3,SCR,2024-06-21_13h48.13.092,LearnStrategy,2023.2.3,Win32,4.615782283,2,2,11,,,,,,,,2,09,,,,,,,,,,,,,2,4.627,1,,,,,,-0.087239583,-0.265625,1,0,0,4.6274,Basalt_rect,10,0,10,0,1,
65b92135e296f28cb1a093c3,SCR,2024-06-21_13h48.13.092,LearnStrategy,2023.2.3,Win32,4.615782283,2,2,12,,,,,,,,7,08,,,,,,,,,,,,,7,5.328,1,,,,,,0.110677083,-0.384114583,1,0,0,5.3281,Peridotite_rect,11,0,11,0,1,
65b92135e296f28cb1a093c3,SCR,2024-06-21_13h48.13.092,LearnStrategy,2023.2.3,Win32,4.615782283,2,2,13,,,,,,,,1,11,,,,,,,,,,,,,6,16.503,0,,,,,,-0.127604167,-0.3984375,1,0,0,16.5033,Pegmatite_rect,12,0,12,0,1,
65b92135e296f28cb1a093c3,SCR,2024-06-21_13h48.13.092,LearnStrategy,2023.2.3,Win32,4.615782283,2,2,14,,,,,,,,6,07,,,,,,,,,,,,,7,4.28,0,,,,,,0.118489583,-0.407552083,1,0,0,4.2799,Peridotite_rect,13,0,13,0,1,
65b92135e296f28cb1a093c3,SCR,2024-06-21_13h48.13.092,LearnStrategy,2023.2.3,Win32,4.615782283,2,2,15,,,,,,,,3,02,,,,,,,,,,,,,1,4.188,0,,,,,,-0.356770833,-0.243489583,1,0,0,4.1884,Andesite_rect,14,0,14,0,1,
65b92135e296f28cb1a093c3,SCR,2024-06-21_13h48.13.092,LearnStrategy,2023.2.3,Win32,4.615782283,2,2,16,,,,,,,,4,11,,,,,,,,,,,,,4,3.072,1,,,,,,0.412760417,-0.255208333,1,0,0,3.0724,Gabbro_rect,15,0,15,0,1,
65b92135e296f28cb1a093c3,SCR,2024-06-21_13h48.13.092,LearnStrategy,2023.2.3,Win32,4.615782283,3,1,1,-0.07421875,0.095052083,1,0,0,6.6963,Andesite_02,1,02,4,4,6.696,1,02,0.368489583,-0.25390625,1,0,0,2.5433,Gabbro_rect,4,2.543,0,0,0,0,0,1,,,,,,,,,,,,,
65b92135e296f28cb1a093c3,SCR,2024-06-21_13h48.13.092,LearnStrategy,2023.2.3,Win32,4.615782283,3,1,2,0.557291667,0.102864583,1,0,0,3.5789,Diorite_09,3,09,4,8,3.579,3,09,0.114583333,-0.408854167,1,0,0,2.7218,Peridotite_rect,7,2.722,0,1,0,1,0,1,,,,,,,,,,,,,
65b92135e296f28cb1a093c3,SCR,2024-06-21_13h48.13.092,LearnStrategy,2023.2.3,Win32,4.615782283,3,1,3,-0.541666667,-0.084635417,1,0,0,6.5197,Diorite_07,3,07,3,1,6.52,7,16,0.139322917,-0.2578125,1,0,0,1.8947,Diorite_rect,3,1.895,1,2,0,2,0,1,,,,,,,,,,,,,
65b92135e296f28cb1a093c3,SCR,2024-06-21_13h48.13.092,LearnStrategy,2023.2.3,Win32,4.615782283,3,1,4,0.572916667,-0.252604167,1,0,0,5.931,Gabbro_10,4,10,2,8,5.931,4,10,-0.111979167,-0.240885417,1,0,0,3.0623,Basalt_rect,2,3.062,0,3,0,3,0,1,,,,,,,,,,,,,
65b92135e296f28cb1a093c3,SCR,2024-06-21_13h48.13.092,LearnStrategy,2023.2.3,Win32,4.615782283,3,1,5,-0.548177083,0.259114583,1,0,0,5.6526,Gabbro_09,4,09,5,1,5.653,7,06,0.432291667,-0.260416667,1,0,0,3.6565,Gabbro_rect,4,3.657,1,4,0,4,0,1,,,,,,,,,,,,,
65b92135e296f28cb1a093c3,SCR,2024-06-21_13h48.13.092,LearnStrategy,2023.2.3,Win32,4.615782283,3,1,6,-0.372395833,0.091145833,1,0,0,6.2961,Andesite_05,1,05,4,2,6.296,1,05,-0.06640625,-0.411458333,1,0,0,2.3796,Pegmatite_rect,6,2.38,0,5,0,5,0,1,,,,,,,,,,,,,
65b92135e296f28cb1a093c3,SCR,2024-06-21_13h48.13.092,LearnStrategy,2023.2.3,Win32,4.615782283,3,1,7,-0.225260417,0.3828125,1,0,0,4.9605,Andesite_06,1,06,6,3,4.96,3,11,-0.348958333,-0.247395833,1,0,0,7.7502,Andesite_rect,1,7.75,1,6,0,6,0,1,,,,,,,,,,,,,
65b92135e296f28cb1a093c3,SCR,2024-06-21_13h48.13.092,LearnStrategy,2023.2.3,Win32,4.615782283,3,1,8,-0.5390625,-0.088541667,1,0,0,7.0707,Diorite_07,3,07,3,1,7.071,5,11,0.143229167,-0.26171875,1,0,0,3.0501,Diorite_rect,3,3.05,1,7,0,7,0,1,,,,,,,,,,,,,
65b92135e296f28cb1a093c3,SCR,2024-06-21_13h48.13.092,LearnStrategy,2023.2.3,Win32,4.615782283,3,1,9,-0.544270833,-0.233072917,1,0,0,9.3935,Diorite_08,3,08,2,1,9.394,2,14,0.145833333,-0.255208333,1,0,0,1.4907,Diorite_rect,3,1.491,1,8,0,8,0,1,,,,,,,,,,,,,
65b92135e296f28cb1a093c3,SCR,2024-06-21_13h48.13.092,LearnStrategy,2023.2.3,Win32,4.615782283,3,1,10,-0.5546875,0.389322917,1,0,0,2.1498,Andesite_14,1,14,6,1,2.15,1,14,0.140625,-0.385416667,1,0,0,6.8212,Peridotite_rect,7,6.821,0,9,0,9,0,1,,,,,,,,,,,,,
65b92135e296f28cb1a093c3,SCR,2024-06-21_13h48.13.092,LearnStrategy,2023.2.3,Win32,4.615782283,3,1,11,0.553385417,0.091145833,1,0,0,16.6012,Diorite_09,3,09,4,8,16.601,8,06,0.14453125,-0.399739583,1,0,0,8.4277,Peridotite_rect,7,8.428,0,10,0,10,0,1,,,,,,,,,,,,,
65b92135e296f28cb1a093c3,SCR,2024-06-21_13h48.13.092,LearnStrategy,2023.2.3,Win32,4.615782283,3,1,12,-0.536458333,-0.0859375,1,0,0,10.6143,Diorite_07,3,07,3,1,10.614,6,16,0.169270833,-0.259114583,1,0,0,2.2804,Diorite_rect,3,2.28,1,11,0,11,0,1,,,,,,,,,,,,,
65b92135e296f28cb1a093c3,SCR,2024-06-21_13h48.13.092,LearnStrategy,2023.2.3,Win32,4.615782283,3,1,13,0.071614583,-0.272135417,1,0,0,1.3986,Pegmatite_16,6,16,2,5,1.399,3,10,0.114583333,-0.390625,1,0,0,7.2283,Peridotite_rect,7,7.228,0,12,0,12,0,1,,,,,,,,,,,,,
65b92135e296f28cb1a093c3,SCR,2024-06-21_13h48.13.092,LearnStrategy,2023.2.3,Win32,4.615782283,3,1,14,0.403645833,-0.278645833,1,0,0,4.2552,Pegmatite_13,6,13,2,7,4.255,4,08,-0.17578125,-0.380208333,1,0,0,1.5275,Pegmatite_rect,6,1.528,1,13,0,13,0,1,,,,,,,,,,,,,
65b92135e296f28cb1a093c3,SCR,2024-06-21_13h48.13.092,LearnStrategy,2023.2.3,Win32,4.615782283,3,1,15,-0.40625,-0.416666667,1,0,0,2.1175,Pegmatite_10,6,10,1,2,2.118,6,10,-0.10546875,-0.399739583,1,0,0,5.4151,Pegmatite_rect,6,5.415,1,14,0,14,0,1,,,,,,,,,,,,,
65b92135e296f28cb1a093c3,SCR,2024-06-21_13h48.13.092,LearnStrategy,2023.2.3,Win32,4.615782283,3,1,16,-0.390625,-0.09765625,1,0,0,8.7417,Obsidian_05,5,05,3,2,8.742,4,09,0.127604167,-0.399739583,1,0,0,4.0489,Peridotite_rect,7,4.049,0,15,0,15,0,1,,,,,,,,,,,,,
65b92135e296f28cb1a093c3,SCR,2024-06-21_13h48.13.092,LearnStrategy,2023.2.3,Win32,4.615782283,3,2,1,,,,,,,,2,12,,,,,,,,,,,,,4,3.02,0,,,,,,0.3515625,-0.255208333,1,0,0,3.0198,Gabbro_rect,0,0,0,0,1,
65b92135e296f28cb1a093c3,SCR,2024-06-21_13h48.13.092,LearnStrategy,2023.2.3,Win32,4.615782283,3,2,2,,,,,,,,7,04,,,,,,,,,,,,,1,6.008,0,,,,,,-0.4296875,-0.24609375,1,0,0,6.0079,Andesite_rect,1,0,1,0,1,
65b92135e296f28cb1a093c3,SCR,2024-06-21_13h48.13.092,LearnStrategy,2023.2.3,Win32,4.615782283,3,2,3,,,,,,,,1,09,,,,,,,,,,,,,4,8.446,0,,,,,,0.40234375,-0.252604167,1,0,0,8.4463,Gabbro_rect,2,0,2,0,1,
65b92135e296f28cb1a093c3,SCR,2024-06-21_13h48.13.092,LearnStrategy,2023.2.3,Win32,4.615782283,3,2,4,,,,,,,,5,10,,,,,,,,,,,,,5,3.672,1,,,,,,-0.356770833,-0.40234375,1,0,0,3.6721,Obsidian_rect,3,0,3,0,1,
65b92135e296f28cb1a093c3,SCR,2024-06-21_13h48.13.092,LearnStrategy,2023.2.3,Win32,4.615782283,3,2,5,,,,,,,,1,16,,,,,,,,,,,,,1,6.595,1,,,,,,-0.342447917,-0.260416667,1,0,0,6.5953,Andesite_rect,4,0,4,0,1,
65b92135e296f28cb1a093c3,SCR,2024-06-21_13h48.13.092,LearnStrategy,2023.2.3,Win32,4.615782283,3,2,6,,,,,,,,6,03,,,,,,,,,,,,,7,7.848,0,,,,,,0.151041667,-0.3984375,1,0,0,7.8484,Peridotite_rect,5,0,5,0,1,
65b92135e296f28cb1a093c3,SCR,2024-06-21_13h48.13.092,LearnStrategy,2023.2.3,Win32,4.615782283,3,2,7,,,,,,,,2,04,,,,,,,,,,,,,2,2.225,1,,,,,,-0.08203125,-0.264322917,1,0,0,2.2253,Basalt_rect,6,0,6,0,1,
65b92135e296f28cb1a093c3,SCR,2024-06-21_13h48.13.092,LearnStrategy,2023.2.3,Win32,4.615782283,3,2,8,,,,,,,,4,12,,,,,,,,,,,,,2,3.985,0,,,,,,-0.110677083,-0.265625,1,0,0,3.9846,Basalt_rect,7,0,7,0,1,
65b92135e296f28cb1a093c3,SCR,2024-06-21_13h48.13.092,LearnStrategy,2023.2.3,Win32,4.615782283,3,2,9,,,,,,,,7,12,,,,,,,,,,,,,3,9.574,0,,,,,,0.13671875,-0.240885417,1,0,0,9.5741,Diorite_rect,8,0,8,0,1,
65b92135e296f28cb1a093c3,SCR,2024-06-21_13h48.13.092,LearnStrategy,2023.2.3,Win32,4.615782283,3,2,10,,,,,,,,8,16,,,,,,,,,,,,,8,6.064,1,,,,,,0.40625,-0.389322917,1,0,0,6.0642,Pumice_rect,9,0,9,0,1,
65b92135e296f28cb1a093c3,SCR,2024-06-21_13h48.13.092,LearnStrategy,2023.2.3,Win32,4.615782283,3,2,11,,,,,,,,3,16,,,,,,,,,,,,,1,4.078,0,,,,,,-0.325520833,-0.265625,1,0,0,4.0784,Andesite_rect,10,0,10,0,1,
65b92135e296f28cb1a093c3,SCR,2024-06-21_13h48.13.092,LearnStrategy,2023.2.3,Win32,4.615782283,3,2,12,,,,,,,,3,12,,,,,,,,,,,,,3,4.786,1,,,,,,0.158854167,-0.252604167,1,0,0,4.786,Diorite_rect,11,0,11,0,1,
65b92135e296f28cb1a093c3,SCR,2024-06-21_13h48.13.092,LearnStrategy,2023.2.3,Win32,4.615782283,3,2,13,,,,,,,,4,13,,,,,,,,,,,,,2,2.342,0,,,,,,-0.079427083,-0.26171875,1,0,0,2.3419,Basalt_rect,12,0,12,0,1,
65b92135e296f28cb1a093c3,SCR,2024-06-21_13h48.13.092,LearnStrategy,2023.2.3,Win32,4.615782283,3,2,14,,,,,,,,6,06,,,,,,,,,,,,,6,6.687,1,,,,,,-0.088541667,-0.389322917,1,0,0,6.6871,Pegmatite_rect,13,0,13,0,1,
65b92135e296f28cb1a093c3,SCR,2024-06-21_13h48.13.092,LearnStrategy,2023.2.3,Win32,4.615782283,3,2,15,,,,,,,,5,06,,,,,,,,,,,,,5,3.774,1,,,,,,-0.34375,-0.40625,1,0,0,3.7739,Obsidian_rect,14,0,14,0,1,
65b92135e296f28cb1a093c3,SCR,2024-06-21_13h48.13.092,LearnStrategy,2023.2.3,Win32,4.615782283,3,2,16,,,,,,,,8,14,,,,,,,,,,,,,8,1.943,1,,,,,,0.3984375,-0.391927083,1,0,0,1.9433,Pumice_rect,15,0,15,0,1,
65b92135e296f28cb1a093c3,SCR,2024-06-21_13h48.13.092,LearnStrategy,2023.2.3,Win32,4.615782283,4,1,1,-0.401041667,0.231770833,1,0,0,6.6786,Basalt_06,2,06,5,2,6.679,2,06,-0.106770833,-0.252604167,1,0,0,3.7465,Basalt_rect,2,3.746,1,0,0,0,0,1,,,,,,,,,,,,,
65b92135e296f28cb1a093c3,SCR,2024-06-21_13h48.13.092,LearnStrategy,2023.2.3,Win32,4.615782283,4,1,2,-0.51953125,-0.389322917,1,0,0,2.1145,Gabbro_03,4,03,1,1,2.115,4,03,0.154947917,-0.243489583,1,0,0,5.353,Diorite_rect,3,5.353,0,1,0,1,0,1,,,,,,,,,,,,,
65b92135e296f28cb1a093c3,SCR,2024-06-21_13h48.13.092,LearnStrategy,2023.2.3,Win32,4.615782283,4,1,3,-0.088541667,-0.233072917,1,0,0,3.5141,Gabbro_08,4,08,2,4,3.514,4,08,0.389322917,-0.251302083,1,0,0,4.9314,Gabbro_rect,4,4.931,1,2,0,2,0,1,,,,,,,,,,,,,
65b92135e296f28cb1a093c3,SCR,2024-06-21_13h48.13.092,LearnStrategy,2023.2.3,Win32,4.615782283,4,1,4,-0.19921875,-0.373697917,1,0,0,7.3993,Andesite_01,1,01,1,3,7.399,1,01,-0.338541667,-0.25,1,0,0,1.1334,Andesite_rect,1,1.133,1,3,0,3,0,1,,,,,,,,,,,,,
65b92135e296f28cb1a093c3,SCR,2024-06-21_13h48.13.092,LearnStrategy,2023.2.3,Win32,4.615782283,4,1,5,-0.5390625,-0.2578125,1,0,0,2.8466,Diorite_08,3,08,2,1,2.847,3,08,0.069010417,-0.239583333,1,0,0,1.8474,Diorite_rect,3,1.847,1,4,0,4,0,1,,,,,,,,,,,,,
65b92135e296f28cb1a093c3,SCR,2024-06-21_13h48.13.092,LearnStrategy,2023.2.3,Win32,4.615782283,4,1,6,0.579427083,-0.106770833,1,0,0,2.117,Peridotite_15,7,15,3,8,2.117,7,15,0.104166667,-0.395833333,1,0,0,7.1329,Peridotite_rect,7,7.133,1,5,0,5,0,1,,,,,,,,,,,,,
65b92135e296f28cb1a093c3,SCR,2024-06-21_13h48.13.092,LearnStrategy,2023.2.3,Win32,4.615782283,4,1,7,-0.34375,-0.365885417,1,0,0,9.7622,Pegmatite_10,6,10,1,2,9.762,6,10,-0.0859375,-0.411458333,1,0,0,1.5773,Pegmatite_rect,6,1.577,1,6,0,6,0,1,,,,,,,,,,,,,
65b92135e296f28cb1a093c3,SCR,2024-06-21_13h48.13.092,LearnStrategy,2023.2.3,Win32,4.615782283,4,1,8,-0.384114583,-0.278645833,1,0,0,3.1778,Obsidian_11,5,11,2,2,3.178,5,11,-0.369791667,-0.389322917,1,0,0,6.6523,Obsidian_rect,5,6.652,1,7,0,7,0,1,,,,,,,,,,,,,
65b92135e296f28cb1a093c3,SCR,2024-06-21_13h48.13.092,LearnStrategy,2023.2.3,Win32,4.615782283,4,1,9,0.083333333,-0.26171875,1,0,0,2.0957,Pegmatite_16,6,16,2,5,2.096,6,16,-0.102864583,-0.403645833,1,0,0,4.1884,Pegmatite_rect,6,4.188,1,8,0,8,0,1,,,,,,,,,,,,,
65b92135e296f28cb1a093c3,SCR,2024-06-21_13h48.13.092,LearnStrategy,2023.2.3,Win32,4.615782283,4,1,10,0.2578125,-0.092447917,1,0,0,1.7644,Basalt_05,2,05,3,6,1.764,2,05,-0.131510417,-0.23828125,1,0,0,1.8422,Basalt_rect,2,1.842,1,9,0,9,0,1,,,,,,,,,,,,,
65b92135e296f28cb1a093c3,SCR,2024-06-21_13h48.13.092,LearnStrategy,2023.2.3,Win32,4.615782283,4,1,11,-0.505208333,-0.41015625,1,0,0,1.7786,Gabbro_03,4,03,1,1,1.779,4,03,-0.372395833,-0.24609375,1,0,0,3.2274,Andesite_rect,1,3.227,0,10,0,10,0,1,,,,,,,,,,,,,
65b92135e296f28cb1a093c3,SCR,2024-06-21_13h48.13.092,LearnStrategy,2023.2.3,Win32,4.615782283,4,1,12,-0.096354167,-0.373697917,1,0,0,1.7604,Peridotite_14,7,14,1,4,1.76,7,14,0.399739583,-0.244791667,1,0,0,4.1593,Gabbro_rect,4,4.159,0,11,0,11,0,1,,,,,,,,,,,,,
65b92135e296f28cb1a093c3,SCR,2024-06-21_13h48.13.092,LearnStrategy,2023.2.3,Win32,4.615782283,4,1,13,-0.24609375,0.407552083,1,0,0,5.3176,Andesite_06,1,06,6,3,5.318,1,06,-0.380208333,-0.240885417,1,0,0,5.2204,Andesite_rect,1,5.22,1,12,0,12,0,1,,,,,,,,,,,,,
65b92135e296f28cb1a093c3,SCR,2024-06-21_13h48.13.092,LearnStrategy,2023.2.3,Win32,4.615782283,4,1,14,0.251302083,0.247395833,1,0,0,2.2174,Peridotite_05,7,05,5,6,2.217,7,05,-0.06640625,-0.381510417,1,0,0,3.1193,Pegmatite_rect,6,3.119,0,13,0,13,0,1,,,,,,,,,,,,,
65b92135e296f28cb1a093c3,SCR,2024-06-21_13h48.13.092,LearnStrategy,2023.2.3,Win32,4.615782283,4,1,15,-0.565104167,-0.080729167,1,0,0,2.1104,Diorite_07,3,07,3,1,2.11,3,07,-0.337239583,-0.2578125,1,0,0,7.3119,Andesite_rect,1,7.312,0,14,0,14,0,1,,,,,,,,,,,,,
65b92135e296f28cb1a093c3,SCR,2024-06-21_13h48.13.092,LearnStrategy,2023.2.3,Win32,4.615782283,4,1,16,-0.372395833,0.084635417,1,0,0,1.7582,Andesite_05,1,05,4,2,1.758,1,05,0.109375,-0.252604167,1,0,0,2.1818,Diorite_rect,3,2.182,0,15,0,15,0,1,,,,,,,,,,,,,
65b92135e296f28cb1a093c3,SCR,2024-06-21_13h48.13.092,LearnStrategy,2023.2.3,Win32,4.615782283,4,2,1,,,,,,,,8,13,,,,,,,,,,,,,4,3.667,0,,,,,,0.350260417,-0.2421875,1,0,0,3.6674,Gabbro_rect,0,0,0,0,1,
65b92135e296f28cb1a093c3,SCR,2024-06-21_13h48.13.092,LearnStrategy,2023.2.3,Win32,4.615782283,4,2,2,,,,,,,,2,12,,,,,,,,,,,,,8,5.793,0,,,,,,0.395833333,-0.395833333,1,0,0,5.7932,Pumice_rect,1,0,1,0,1,
65b92135e296f28cb1a093c3,SCR,2024-06-21_13h48.13.092,LearnStrategy,2023.2.3,Win32,4.615782283,4,2,3,,,,,,,,5,10,,,,,,,,,,,,,5,4.236,1,,,,,,-0.389322917,-0.401041667,1,0,0,4.2363,Obsidian_rect,2,0,2,0,1,
65b92135e296f28cb1a093c3,SCR,2024-06-21_13h48.13.092,LearnStrategy,2023.2.3,Win32,4.615782283,4,2,4,,,,,,,,3,02,,,,,,,,,,,,,3,6.901,1,,,,,,0.1640625,-0.251302083,1,0,0,6.901,Diorite_rect,3,0,3,0,1,
65b92135e296f28cb1a093c3,SCR,2024-06-21_13h48.13.092,LearnStrategy,2023.2.3,Win32,4.615782283,4,2,5,,,,,,,,2,01,,,,,,,,,,,,,2,1.867,1,,,,,,-0.1015625,-0.25,1,0,0,1.8671,Basalt_rect,4,0,4,0,1,
65b92135e296f28cb1a093c3,SCR,2024-06-21_13h48.13.092,LearnStrategy,2023.2.3,Win32,4.615782283,4,2,6,,,,,,,,7,07,,,,,,,,,,,,,7,16.735,1,,,,,,0.166666667,-0.397135417,1,0,0,16.7348,Peridotite_rect,5,0,5,0,1,
65b92135e296f28cb1a093c3,SCR,2024-06-21_13h48.13.092,LearnStrategy,2023.2.3,Win32,4.615782283,4,2,7,,,,,,,,1,16,,,,,,,,,,,,,4,2.023,0,,,,,,0.384114583,-0.2421875,1,0,0,2.0234,Gabbro_rect,6,0,6,0,1,
65b92135e296f28cb1a093c3,SCR,2024-06-21_13h48.13.092,LearnStrategy,2023.2.3,Win32,4.615782283,4,2,8,,,,,,,,3,06,,,,,,,,,,,,,7,10.62,0,,,,,,0.0625,-0.408854167,1,0,0,10.6201,Peridotite_rect,7,0,7,0,1,
65b92135e296f28cb1a093c3,SCR,2024-06-21_13h48.13.092,LearnStrategy,2023.2.3,Win32,4.615782283,4,2,9,,,,,,,,6,03,,,,,,,,,,,,,6,9.763,1,,,,,,-0.10546875,-0.403645833,1,0,0,9.7625,Pegmatite_rect,8,0,8,0,1,
65b92135e296f28cb1a093c3,SCR,2024-06-21_13h48.13.092,LearnStrategy,2023.2.3,Win32,4.615782283,4,2,10,,,,,,,,8,16,,,,,,,,,,,,,8,6.866,1,,,,,,0.436197917,-0.3984375,1,0,0,6.8655,Pumice_rect,9,0,9,0,1,
65b92135e296f28cb1a093c3,SCR,2024-06-21_13h48.13.092,LearnStrategy,2023.2.3,Win32,4.615782283,4,2,11,,,,,,,,4,12,,,,,,,,,,,,,4,4.843,1,,,,,,0.393229167,-0.243489583,1,0,0,4.8435,Gabbro_rect,10,0,10,0,1,
65b92135e296f28cb1a093c3,SCR,2024-06-21_13h48.13.092,LearnStrategy,2023.2.3,Win32,4.615782283,4,2,12,,,,,,,,5,06,,,,,,,,,,,,,5,2.27,1,,,,,,-0.436197917,-0.385416667,1,0,0,2.27,Obsidian_rect,11,0,11,0,1,
65b92135e296f28cb1a093c3,SCR,2024-06-21_13h48.13.092,LearnStrategy,2023.2.3,Win32,4.615782283,4,2,13,,,,,,,,4,15,,,,,,,,,,,,,1,2.274,0,,,,,,-0.352864583,-0.248697917,1,0,0,2.2738,Andesite_rect,12,0,12,0,1,
65b92135e296f28cb1a093c3,SCR,2024-06-21_13h48.13.092,LearnStrategy,2023.2.3,Win32,4.615782283,4,2,14,,,,,,,,1,03,,,,,,,,,,,,,2,3.542,0,,,,,,-0.153645833,-0.26953125,1,0,0,3.5419,Basalt_rect,13,0,13,0,1,
65b92135e296f28cb1a093c3,SCR,2024-06-21_13h48.13.092,LearnStrategy,2023.2.3,Win32,4.615782283,4,2,15,,,,,,,,6,15,,,,,,,,,,,,,6,6.873,1,,,,,,-0.1328125,-0.401041667,1,0,0,6.8727,Pegmatite_rect,14,0,14,0,1,
65b92135e296f28cb1a093c3,SCR,2024-06-21_13h48.13.092,LearnStrategy,2023.2.3,Win32,4.615782283,4,2,16,,,,,,,,7,04,,,,,,,,,,,,,6,7.59,0,,,,,,-0.059895833,-0.3984375,1,0,0,7.5898,Pegmatite_rect,15,0,15,0,1,
65b92135e296f28cb1a093c3,SCR,2024-06-21_13h48.13.092,LearnStrategy,2023.2.3,Win32,4.615782283,5,1,1,0.546875,0.401041667,1,0,0,3.8661,Diorite_13,3,13,6,8,3.866,3,13,0.1875,-0.420572917,1,0,0,23.7291,Peridotite_rect,7,23.729,0,0,0,0,0,1,,,,,,,,,,,,,
65b92135e296f28cb1a093c3,SCR,2024-06-21_13h48.13.092,LearnStrategy,2023.2.3,Win32,4.615782283,5,1,2,-0.080729167,-0.43359375,1,0,0,3.5366,Peridotite_14,7,14,1,4,3.537,7,14,0.408854167,-0.239583333,1,0,0,7.9086,Gabbro_rect,4,7.909,0,1,0,1,0,1,,,,,,,,,,,,,
65b92135e296f28cb1a093c3,SCR,2024-06-21_13h48.13.092,LearnStrategy,2023.2.3,Win32,4.615782283,5,1,3,-0.419270833,0.11328125,1,0,0,2.4626,Andesite_05,1,05,4,2,2.463,1,05,0.11328125,-0.404947917,1,0,0,8.3184,Peridotite_rect,7,8.318,0,2,0,2,0,1,,,,,,,,,,,,,
65b92135e296f28cb1a093c3,SCR,2024-06-21_13h48.13.092,LearnStrategy,2023.2.3,Win32,4.615782283,5,1,4,0.557291667,-0.265625,1,0,0,4.2022,Gabbro_10,4,10,2,8,4.202,4,10,0.375,-0.244791667,1,0,0,4.1163,Gabbro_rect,4,4.116,1,3,0,3,0,1,,,,,,,,,,,,,
65b92135e296f28cb1a093c3,SCR,2024-06-21_13h48.13.092,LearnStrategy,2023.2.3,Win32,4.615782283,5,1,5,-0.359375,0.3828125,1,0,0,1.7602,Basalt_11,2,11,6,2,1.76,2,11,0.348958333,-0.40234375,1,0,0,2.6726,Pumice_rect,8,2.673,0,4,0,4,0,1,,,,,,,,,,,,,
65b92135e296f28cb1a093c3,SCR,2024-06-21_13h48.13.092,LearnStrategy,2023.2.3,Win32,4.615782283,5,1,6,-0.381510417,-0.404947917,1,0,0,2.1488,Pegmatite_10,6,10,1,2,2.149,6,10,-0.118489583,-0.411458333,1,0,0,2.0443,Pegmatite_rect,6,2.044,1,5,0,5,0,1,,,,,,,,,,,,,
65b92135e296f28cb1a093c3,SCR,2024-06-21_13h48.13.092,LearnStrategy,2023.2.3,Win32,4.615782283,5,1,7,0.540364583,0.096354167,1,0,0,3.209,Diorite_09,3,09,4,8,3.209,3,09,0.1640625,-0.24609375,1,0,0,7.2721,Diorite_rect,3,7.272,1,6,0,6,0,1,,,,,,,,,,,,,
65b92135e296f28cb1a093c3,SCR,2024-06-21_13h48.13.092,LearnStrategy,2023.2.3,Win32,4.615782283,5,1,8,0.233072917,-0.26953125,1,0,0,1.7815,Gabbro_05,4,05,2,6,1.782,4,05,0.158854167,-0.395833333,1,0,0,16.4352,Peridotite_rect,7,16.435,0,7,0,7,0,1,,,,,,,,,,,,,
65b92135e296f28cb1a093c3,SCR,2024-06-21_13h48.13.092,LearnStrategy,2023.2.3,Win32,4.615782283,5,1,9,0.108072917,0.368489583,1,0,0,2.1324,Peridotite_02,7,02,6,5,2.132,7,02,0.151041667,-0.395833333,1,0,0,19.0881,Peridotite_rect,7,19.088,1,8,0,8,0,1,,,,,,,,,,,,,
65b92135e296f28cb1a093c3,SCR,2024-06-21_13h48.13.092,LearnStrategy,2023.2.3,Win32,4.615782283,5,1,10,0.38671875,0.390625,1,0,0,1.768,Andesite_07,1,07,6,7,1.768,1,07,-0.395833333,-0.252604167,1,0,0,5.593,Andesite_rect,1,5.593,1,9,0,9,0,1,,,,,,,,,,,,,
65b92135e296f28cb1a093c3,SCR,2024-06-21_13h48.13.092,LearnStrategy,2023.2.3,Win32,4.615782283,5,1,11,0.399739583,-0.421875,1,0,0,5.3032,Gabbro_14,4,14,1,7,5.303,4,14,0.391927083,-0.2578125,1,0,0,5.4535,Gabbro_rect,4,5.454,1,10,0,10,0,1,,,,,,,,,,,,,
65b92135e296f28cb1a093c3,SCR,2024-06-21_13h48.13.092,LearnStrategy,2023.2.3,Win32,4.615782283,5,1,12,-0.39453125,0.096354167,1,0,0,1.7617,Andesite_05,1,05,4,2,1.762,1,05,0.134114583,-0.39453125,1,0,0,7.6821,Peridotite_rect,7,7.682,0,11,0,11,0,1,,,,,,,,,,,,,
65b92135e296f28cb1a093c3,SCR,2024-06-21_13h48.13.092,LearnStrategy,2023.2.3,Win32,4.615782283,5,1,13,0.2421875,-0.404947917,1,0,0,6.0697,Obsidian_08,5,08,1,6,6.07,5,08,-0.41015625,-0.39453125,1,0,0,3.3201,Obsidian_rect,5,3.32,1,12,0,12,0,1,,,,,,,,,,,,,
65b92135e296f28cb1a093c3,SCR,2024-06-21_13h48.13.092,LearnStrategy,2023.2.3,Win32,4.615782283,5,1,14,-0.235677083,-0.109375,1,0,0,2.1252,Pumice_15,8,15,3,3,2.125,8,15,0.403645833,-0.252604167,1,0,0,6.6363,Gabbro_rect,4,6.636,0,13,0,13,0,1,,,,,,,,,,,,,
65b92135e296f28cb1a093c3,SCR,2024-06-21_13h48.13.092,LearnStrategy,2023.2.3,Win32,4.615782283,5,1,15,-0.05859375,0.38671875,1,0,0,3.5329,Basalt_02,2,02,6,4,3.533,2,02,-0.084635417,-0.255208333,1,0,0,2.6664,Basalt_rect,2,2.666,1,14,0,14,0,1,,,,,,,,,,,,,
65b92135e296f28cb1a093c3,SCR,2024-06-21_13h48.13.092,LearnStrategy,2023.2.3,Win32,4.615782283,5,1,16,-0.100260417,-0.401041667,1,0,0,3.2016,Peridotite_14,7,14,1,4,3.202,7,14,0.184895833,-0.399739583,1,0,0,7.2444,Peridotite_rect,7,7.244,1,15,0,15,0,1,,,,,,,,,,,,,
65b92135e296f28cb1a093c3,SCR,2024-06-21_13h48.13.092,LearnStrategy,2023.2.3,Win32,4.615782283,5,2,1,,,,,,,,5,09,,,,,,,,,,,,,5,5.588,1,,,,,,-0.388020833,-0.401041667,1,0,0,5.588,Obsidian_rect,0,0,0,0,1,
65b92135e296f28cb1a093c3,SCR,2024-06-21_13h48.13.092,LearnStrategy,2023.2.3,Win32,4.615782283,5,2,2,,,,,,,,6,07,,,,,,,,,,,,,6,15.509,1,,,,,,-0.109375,-0.40234375,1,0,0,15.5094,Pegmatite_rect,1,0,1,0,1,
65b92135e296f28cb1a093c3,SCR,2024-06-21_13h48.13.092,LearnStrategy,2023.2.3,Win32,4.615782283,5,2,3,,,,,,,,2,04,,,,,,,,,,,,,2,1.915,1,,,,,,-0.119791667,-0.25,1,0,0,1.9148,Basalt_rect,2,0,2,0,1,
65b92135e296f28cb1a093c3,SCR,2024-06-21_13h48.13.092,LearnStrategy,2023.2.3,Win32,4.615782283,5,2,4,,,,,,,,1,11,,,,,,,,,,,,,3,14.669,0,,,,,,0.166666667,-0.24609375,1,0,0,14.6693,Diorite_rect,3,0,3,0,1,
65b92135e296f28cb1a093c3,SCR,2024-06-21_13h48.13.092,LearnStrategy,2023.2.3,Win32,4.615782283,5,2,5,,,,,,,,6,06,,,,,,,,,,,,,6,2.06,1,,,,,,-0.102864583,-0.407552083,1,0,0,2.06,Pegmatite_rect,4,0,4,0,1,
65b92135e296f28cb1a093c3,SCR,2024-06-21_13h48.13.092,LearnStrategy,2023.2.3,Win32,4.615782283,5,2,6,,,,,,,,2,09,,,,,,,,,,,,,2,1.924,1,,,,,,-0.1015625,-0.255208333,1,0,0,1.9236,Basalt_rect,5,0,5,0,1,
65b92135e296f28cb1a093c3,SCR,2024-06-21_13h48.13.092,LearnStrategy,2023.2.3,Win32,4.615782283,5,2,7,,,,,,,,4,13,,,,,,,,,,,,,4,2.389,1,,,,,,0.416666667,-0.244791667,1,0,0,2.3885,Gabbro_rect,6,0,6,0,1,
65b92135e296f28cb1a093c3,SCR,2024-06-21_13h48.13.092,LearnStrategy,2023.2.3,Win32,4.615782283,5,2,8,,,,,,,,4,11,,,,,,,,,,,,,4,2.346,1,,,,,,0.365885417,-0.25390625,1,0,0,2.3463,Gabbro_rect,7,0,7,0,1,
65b92135e296f28cb1a093c3,SCR,2024-06-21_13h48.13.092,LearnStrategy,2023.2.3,Win32,4.615782283,5,2,9,,,,,,,,8,14,,,,,,,,,,,,,8,3.792,1,,,,,,0.377604167,-0.395833333,1,0,0,3.7923,Pumice_rect,8,0,8,0,1,
65b92135e296f28cb1a093c3,SCR,2024-06-21_13h48.13.092,LearnStrategy,2023.2.3,Win32,4.615782283,5,2,10,,,,,,,,7,12,,,,,,,,,,,,,7,9.306,1,,,,,,0.14453125,-0.40234375,1,0,0,9.306,Peridotite_rect,9,0,9,0,1,
65b92135e296f28cb1a093c3,SCR,2024-06-21_13h48.13.092,LearnStrategy,2023.2.3,Win32,4.615782283,5,2,11,,,,,,,,3,15,,,,,,,,,,,,,7,1.94,0,,,,,,0.14453125,-0.40234375,1,0,0,1.9399,Peridotite_rect,10,0,10,0,1,
65b92135e296f28cb1a093c3,SCR,2024-06-21_13h48.13.092,LearnStrategy,2023.2.3,Win32,4.615782283,5,2,12,,,,,,,,1,09,,,,,,,,,,,,,2,10.662,0,,,,,,-0.10546875,-0.256510417,1,0,0,10.6618,Basalt_rect,11,0,11,0,1,
65b92135e296f28cb1a093c3,SCR,2024-06-21_13h48.13.092,LearnStrategy,2023.2.3,Win32,4.615782283,5,2,13,,,,,,,,3,12,,,,,,,,,,,,,3,9.137,1,,,,,,0.13671875,-0.24609375,1,0,0,9.1374,Diorite_rect,12,0,12,0,1,
65b92135e296f28cb1a093c3,SCR,2024-06-21_13h48.13.092,LearnStrategy,2023.2.3,Win32,4.615782283,5,2,14,,,,,,,,8,03,,,,,,,,,,,,,8,1.972,1,,,,,,0.36328125,-0.397135417,1,0,0,1.9725,Pumice_rect,13,0,13,0,1,
65b92135e296f28cb1a093c3,SCR,2024-06-21_13h48.13.092,LearnStrategy,2023.2.3,Win32,4.615782283,5,2,15,,,,,,,,5,04,,,,,,,,,,,,,5,3.57,1,,,,,,-0.375,-0.393229167,1,0,0,3.5702,Obsidian_rect,14,0,14,0,1,
65b92135e296f28cb1a093c3,SCR,2024-06-21_13h48.13.092,LearnStrategy,2023.2.3,Win32,4.615782283,5,2,16,,,,,,,,7,10,,,,,,,,,,,,,7,5.825,1,,,,,,0.1796875,-0.395833333,1,0,0,5.8246,Peridotite_rect,15,0,15,0,1,
65b92135e296f28cb1a093c3,SCR,2024-06-21_13h48.13.092,LearnStrategy,2023.2.3,Win32,4.615782283,6,1,1,-0.544270833,-0.083333333,1,0,0,1.7497,Diorite_07,3,07,3,1,1.75,3,07,0.149739583,-0.408854167,1,0,0,11.0641,Peridotite_rect,7,11.064,0,0,0,0,0,1,,,,,,,,,,,,,
65b92135e296f28cb1a093c3,SCR,2024-06-21_13h48.13.092,LearnStrategy,2023.2.3,Win32,4.615782283,6,1,2,0.2421875,-0.087239583,1,0,0,5.6538,Basalt_05,2,05,3,6,5.654,2,05,-0.092447917,-0.263020833,1,0,0,4.8314,Basalt_rect,2,4.831,1,1,0,1,0,1,,,,,,,,,,,,,
65b92135e296f28cb1a093c3,SCR,2024-06-21_13h48.13.092,LearnStrategy,2023.2.3,Win32,4.615782283,6,1,3,0.404947917,-0.389322917,1,0,0,3.5643,Gabbro_14,4,14,1,7,3.564,4,14,0.408854167,-0.2421875,1,0,0,4.6875,Gabbro_rect,4,4.688,1,2,0,2,0,1,,,,,,,,,,,,,
65b92135e296f28cb1a093c3,SCR,2024-06-21_13h48.13.092,LearnStrategy,2023.2.3,Win32,4.615782283,6,1,4,0.40625,0.391927083,1,0,0,2.1342,Andesite_07,1,07,6,7,2.134,1,07,0.14453125,-0.255208333,1,0,0,9.083,Diorite_rect,3,9.083,0,3,0,3,0,1,,,,,,,,,,,,,
65b92135e296f28cb1a093c3,SCR,2024-06-21_13h48.13.092,LearnStrategy,2023.2.3,Win32,4.615782283,6,1,5,0.091145833,-0.407552083,1,0,0,4.9416,Diorite_11,3,11,1,5,4.942,3,11,0.141927083,-0.244791667,1,0,0,3.673,Diorite_rect,3,3.673,1,4,0,4,0,1,,,,,,,,,,,,,
65b92135e296f28cb1a093c3,SCR,2024-06-21_13h48.13.092,LearnStrategy,2023.2.3,Win32,4.615782283,6,1,6,-0.231770833,-0.401041667,1,0,0,1.762,Andesite_01,1,01,1,3,1.762,1,01,0.352864583,-0.25,1,0,0,3.4412,Gabbro_rect,4,3.441,0,5,0,5,0,1,,,,,,,,,,,,,
65b92135e296f28cb1a093c3,SCR,2024-06-21_13h48.13.092,LearnStrategy,2023.2.3,Win32,4.615782283,6,1,7,-0.51171875,0.369791667,1,0,0,2.1879,Andesite_14,1,14,6,1,2.188,1,14,0.134114583,-0.397135417,1,0,0,11.0561,Peridotite_rect,7,11.056,0,6,0,6,0,1,,,,,,,,,,,,,
65b92135e296f28cb1a093c3,SCR,2024-06-21_13h48.13.092,LearnStrategy,2023.2.3,Win32,4.615782283,6,1,8,0.5234375,-0.251302083,1,0,0,2.1261,Gabbro_10,4,10,2,8,2.126,4,10,0.391927083,-0.251302083,1,0,0,2.6528,Gabbro_rect,4,2.653,1,7,0,7,0,1,,,,,,,,,,,,,
65b92135e296f28cb1a093c3,SCR,2024-06-21_13h48.13.092,LearnStrategy,2023.2.3,Win32,4.615782283,6,1,9,0.12109375,0.368489583,1,0,0,4.6221,Peridotite_02,7,02,6,5,4.622,7,02,0.11328125,-0.40625,1,0,0,9.0267,Peridotite_rect,7,9.027,1,8,0,8,0,1,,,,,,,,,,,,,
65b92135e296f28cb1a093c3,SCR,2024-06-21_13h48.13.092,LearnStrategy,2023.2.3,Win32,4.615782283,6,1,10,-0.37109375,-0.263020833,1,0,0,4.9653,Obsidian_11,5,11,2,2,4.965,5,11,-0.389322917,-0.399739583,1,0,0,4.1029,Obsidian_rect,5,4.103,1,9,0,9,0,1,,,,,,,,,,,,,
65b92135e296f28cb1a093c3,SCR,2024-06-21_13h48.13.092,LearnStrategy,2023.2.3,Win32,4.615782283,6,1,11,0.084635417,0.264322917,1,0,0,1.7711,Pegmatite_11,6,11,5,5,1.771,6,11,-0.134114583,-0.399739583,1,0,0,7.4219,Pegmatite_rect,6,7.422,1,10,0,10,0,1,,,,,,,,,,,,,
65b92135e296f28cb1a093c3,SCR,2024-06-21_13h48.13.092,LearnStrategy,2023.2.3,Win32,4.615782283,6,1,12,0.360677083,-0.114583333,1,0,0,4.9564,Diorite_10,3,10,3,7,4.956,3,10,0.153645833,-0.240885417,1,0,0,17.3347,Diorite_rect,3,17.335,1,11,0,11,0,1,,,,,,,,,,,,,
65b92135e296f28cb1a093c3,SCR,2024-06-21_13h48.13.092,LearnStrategy,2023.2.3,Win32,4.615782283,6,1,13,-0.51953125,0.084635417,1,0,0,1.7598,Peridotite_06,7,06,4,1,1.76,7,06,-0.1640625,-0.388020833,1,0,0,7.8097,Pegmatite_rect,6,7.81,0,12,0,12,0,1,,,,,,,,,,,,,
65b92135e296f28cb1a093c3,SCR,2024-06-21_13h48.13.092,LearnStrategy,2023.2.3,Win32,4.615782283,6,1,14,-0.513020833,0.389322917,1,0,0,8.1708,Andesite_14,1,14,6,1,8.171,1,14,0.177083333,-0.251302083,1,0,0,9.8401,Diorite_rect,3,9.84,0,13,0,13,0,1,,,,,,,,,,,,,
65b92135e296f28cb1a093c3,SCR,2024-06-21_13h48.13.092,LearnStrategy,2023.2.3,Win32,4.615782283,6,1,15,0.52734375,-0.408854167,1,0,0,1.7709,Pumice_09,8,09,1,8,1.771,8,09,0.384114583,-0.403645833,1,0,0,2.6193,Pumice_rect,8,2.619,1,14,0,14,0,1,,,,,,,,,,,,,
65b92135e296f28cb1a093c3,SCR,2024-06-21_13h48.13.092,LearnStrategy,2023.2.3,Win32,4.615782283,6,1,16,-0.37890625,0.419270833,1,0,0,2.1234,Basalt_11,2,11,6,2,2.123,2,11,0.412760417,-0.2421875,1,0,0,6.0987,Gabbro_rect,4,6.099,0,15,0,15,0,1,,,,,,,,,,,,,
65b92135e296f28cb1a093c3,SCR,2024-06-21_13h48.13.092,LearnStrategy,2023.2.3,Win32,4.615782283,6,2,1,,,,,,,,7,13,,,,,,,,,,,,,7,7.132,1,,,,,,0.114583333,-0.403645833,1,0,0,7.1322,Peridotite_rect,0,0,0,0,1,
65b92135e296f28cb1a093c3,SCR,2024-06-21_13h48.13.092,LearnStrategy,2023.2.3,Win32,4.615782283,6,2,2,,,,,,,,6,09,,,,,,,,,,,,,6,6.926,1,,,,,,-0.131510417,-0.39453125,1,0,0,6.9261,Pegmatite_rect,1,0,1,0,1,
65b92135e296f28cb1a093c3,SCR,2024-06-21_13h48.13.092,LearnStrategy,2023.2.3,Win32,4.615782283,6,2,3,,,,,,,,6,05,,,,,,,,,,,,,6,5.673,1,,,,,,-0.162760417,-0.399739583,1,0,0,5.673,Pegmatite_rect,2,0,2,0,1,
65b92135e296f28cb1a093c3,SCR,2024-06-21_13h48.13.092,LearnStrategy,2023.2.3,Win32,4.615782283,6,2,4,,,,,,,,5,07,,,,,,,,,,,,,5,2.009,1,,,,,,-0.360677083,-0.408854167,1,0,0,2.0086,Obsidian_rect,3,0,3,0,1,
65b92135e296f28cb1a093c3,SCR,2024-06-21_13h48.13.092,LearnStrategy,2023.2.3,Win32,4.615782283,6,2,5,,,,,,,,1,10,,,,,,,,,,,,,8,4.186,0,,,,,,0.408854167,-0.399739583,1,0,0,4.1857,Pumice_rect,4,0,4,0,1,
65b92135e296f28cb1a093c3,SCR,2024-06-21_13h48.13.092,LearnStrategy,2023.2.3,Win32,4.615782283,6,2,6,,,,,,,,8,10,,,,,,,,,,,,,8,1.85,1,,,,,,0.390625,-0.393229167,1,0,0,1.85,Pumice_rect,5,0,5,0,1,
65b92135e296f28cb1a093c3,SCR,2024-06-21_13h48.13.092,LearnStrategy,2023.2.3,Win32,4.615782283,6,2,7,,,,,,,,5,16,,,,,,,,,,,,,5,1.84,1,,,,,,-0.368489583,-0.408854167,1,0,0,1.8403,Obsidian_rect,6,0,6,0,1,
65b92135e296f28cb1a093c3,SCR,2024-06-21_13h48.13.092,LearnStrategy,2023.2.3,Win32,4.615782283,6,2,8,,,,,,,,8,02,,,,,,,,,,,,,4,2.255,0,,,,,,0.354166667,-0.248697917,1,0,0,2.2546,Gabbro_rect,7,0,7,0,1,
65b92135e296f28cb1a093c3,SCR,2024-06-21_13h48.13.092,LearnStrategy,2023.2.3,Win32,4.615782283,6,2,9,,,,,,,,3,16,,,,,,,,,,,,,3,5.744,1,,,,,,0.119791667,-0.247395833,1,0,0,5.7444,Diorite_rect,8,0,8,0,1,
65b92135e296f28cb1a093c3,SCR,2024-06-21_13h48.13.092,LearnStrategy,2023.2.3,Win32,4.615782283,6,2,10,,,,,,,,4,01,,,,,,,,,,,,,3,12.891,0,,,,,,0.1484375,-0.25,1,0,0,12.8909,Diorite_rect,9,0,9,0,1,
65b92135e296f28cb1a093c3,SCR,2024-06-21_13h48.13.092,LearnStrategy,2023.2.3,Win32,4.615782283,6,2,11,,,,,,,,2,08,,,,,,,,,,,,,2,3.586,1,,,,,,-0.12890625,-0.244791667,1,0,0,3.5859,Basalt_rect,10,0,10,0,1,
65b92135e296f28cb1a093c3,SCR,2024-06-21_13h48.13.092,LearnStrategy,2023.2.3,Win32,4.615782283,6,2,12,,,,,,,,3,14,,,,,,,,,,,,,1,15.891,0,,,,,,-0.3203125,-0.235677083,1,0,0,15.8906,Andesite_rect,11,0,11,0,1,
65b92135e296f28cb1a093c3,SCR,2024-06-21_13h48.13.092,LearnStrategy,2023.2.3,Win32,4.615782283,6,2,13,,,,,,,,2,16,,,,,,,,,,,,,2,1.873,1,,,,,,-0.165364583,-0.2421875,1,0,0,1.8729,Basalt_rect,12,0,12,0,1,
65b92135e296f28cb1a093c3,SCR,2024-06-21_13h48.13.092,LearnStrategy,2023.2.3,Win32,4.615782283,6,2,14,,,,,,,,7,08,,,,,,,,,,,,,4,6.81,0,,,,,,0.40234375,-0.244791667,1,0,0,6.8101,Gabbro_rect,13,0,13,0,1,
65b92135e296f28cb1a093c3,SCR,2024-06-21_13h48.13.092,LearnStrategy,2023.2.3,Win32,4.615782283,6,2,15,,,,,,,,1,04,,,,,,,,,,,,,3,17.265,0,,,,,,0.157552083,-0.247395833,1,0,0,17.265,Diorite_rect,14,0,14,0,1,
65b92135e296f28cb1a093c3,SCR,2024-06-21_13h48.13.092,LearnStrategy,2023.2.3,Win32,4.615782283,6,2,16,,,,,,,,4,16,,,,,,,,,,,,,2,3.438,0,,,,,,-0.1171875,-0.231770833,1,0,0,3.4385,Basalt_rect,15,0,15,0,1,
65b92135e296f28cb1a093c3,SCR,2024-06-21_13h48.13.092,LearnStrategy,2023.2.3,Win32,4.615782283,7,1,1,-0.53125,-0.415364583,1,0,0,1.7766,Gabbro_03,4,03,1,1,1.777,4,03,0.4296875,-0.25390625,1,0,0,5.9891,Gabbro_rect,4,5.989,1,0,0,0,0,1,,,,,,,,,,,,,
65b92135e296f28cb1a093c3,SCR,2024-06-21_13h48.13.092,LearnStrategy,2023.2.3,Win32,4.615782283,7,1,2,0.557291667,-0.11328125,1,0,0,1.8306,Peridotite_15,7,15,3,8,1.831,7,15,0.11328125,-0.39453125,1,0,0,6.5393,Peridotite_rect,7,6.539,1,1,0,1,0,1,,,,,,,,,,,,,
65b92135e296f28cb1a093c3,SCR,2024-06-21_13h48.13.092,LearnStrategy,2023.2.3,Win32,4.615782283,7,1,3,0.544270833,0.41015625,1,0,0,1.7728,Diorite_13,3,13,6,8,1.773,3,13,0.153645833,-0.251302083,1,0,0,6.1174,Diorite_rect,3,6.117,1,2,0,2,0,1,,,,,,,,,,,,,
65b92135e296f28cb1a093c3,SCR,2024-06-21_13h48.13.092,LearnStrategy,2023.2.3,Win32,4.615782283,7,1,4,-0.225260417,0.389322917,1,0,0,7.7706,Andesite_06,1,06,6,3,7.771,1,06,0.15625,-0.264322917,1,0,0,7.0287,Diorite_rect,3,7.029,0,3,0,3,0,1,,,,,,,,,,,,,
65b92135e296f28cb1a093c3,SCR,2024-06-21_13h48.13.092,LearnStrategy,2023.2.3,Win32,4.615782283,7,1,5,-0.411458333,0.109375,1,0,0,1.7941,Andesite_05,1,05,4,2,1.794,1,05,0.088541667,-0.389322917,1,0,0,8.2717,Peridotite_rect,7,8.272,0,4,0,4,0,1,,,,,,,,,,,,,
65b92135e296f28cb1a093c3,SCR,2024-06-21_13h48.13.092,LearnStrategy,2023.2.3,Win32,4.615782283,7,1,6,-0.537760417,0.1171875,1,0,0,1.7613,Peridotite_06,7,06,4,1,1.761,7,06,0.092447917,-0.404947917,1,0,0,4.043,Peridotite_rect,7,4.043,1,5,0,5,0,1,,,,,,,,,,,,,
65b92135e296f28cb1a093c3,SCR,2024-06-21_13h48.13.092,LearnStrategy,2023.2.3,Win32,4.615782283,7,1,7,0.075520833,-0.3984375,1,0,0,1.7634,Diorite_11,3,11,1,5,1.763,3,11,-0.37890625,-0.2578125,1,0,0,6.6509,Andesite_rect,1,6.651,0,6,0,6,0,1,,,,,,,,,,,,,
65b92135e296f28cb1a093c3,SCR,2024-06-21_13h48.13.092,LearnStrategy,2023.2.3,Win32,4.615782283,7,1,8,0.40625,0.391927083,1,0,0,1.7805,Andesite_07,1,07,6,7,1.781,1,07,0.190104167,-0.25390625,1,0,0,7.2059,Diorite_rect,3,7.206,0,7,0,7,0,1,,,,,,,,,,,,,
65b92135e296f28cb1a093c3,SCR,2024-06-21_13h48.13.092,LearnStrategy,2023.2.3,Win32,4.615782283,7,1,9,-0.526041667,0.25390625,1,0,0,3.6066,Gabbro_09,4,09,5,1,3.607,4,09,0.37890625,-0.240885417,1,0,0,3.344,Gabbro_rect,4,3.344,1,8,0,8,0,1,,,,,,,,,,,,,
65b92135e296f28cb1a093c3,SCR,2024-06-21_13h48.13.092,LearnStrategy,2023.2.3,Win32,4.615782283,7,1,10,0.548177083,0.40625,1,0,0,1.7923,Diorite_13,3,13,6,8,1.792,3,13,0.147135417,-0.247395833,1,0,0,9.0587,Diorite_rect,3,9.059,1,9,0,9,0,1,,,,,,,,,,,,,
65b92135e296f28cb1a093c3,SCR,2024-06-21_13h48.13.092,LearnStrategy,2023.2.3,Win32,4.615782283,7,1,11,0.533854167,0.235677083,1,0,0,1.8548,Pumice_04,8,04,5,8,1.855,8,04,0.393229167,-0.39453125,1,0,0,4.8389,Pumice_rect,8,4.839,1,10,0,10,0,1,,,,,,,,,,,,,
65b92135e296f28cb1a093c3,SCR,2024-06-21_13h48.13.092,LearnStrategy,2023.2.3,Win32,4.615782283,7,1,12,0.563802083,-0.23828125,1,0,0,7.7736,Gabbro_10,4,10,2,8,7.774,4,10,0.419270833,-0.244791667,1,0,0,5.0035,Gabbro_rect,4,5.003,1,11,0,11,0,1,,,,,,,,,,,,,
65b92135e296f28cb1a093c3,SCR,2024-06-21_13h48.13.092,LearnStrategy,2023.2.3,Win32,4.615782283,7,1,13,-0.221354167,0.106770833,1,0,0,1.4163,Pegmatite_12,6,12,4,3,1.416,6,12,-0.1171875,-0.395833333,1,0,0,6.1223,Pegmatite_rect,6,6.122,1,12,0,12,0,1,,,,,,,,,,,,,
65b92135e296f28cb1a093c3,SCR,2024-06-21_13h48.13.092,LearnStrategy,2023.2.3,Win32,4.615782283,7,1,14,-0.19140625,-0.4140625,1,0,0,1.6834,Andesite_01,1,01,1,3,1.683,1,01,-0.364583333,-0.251302083,1,0,0,10.0443,Andesite_rect,1,10.044,1,13,0,13,0,1,,,,,,,,,,,,,
65b92135e296f28cb1a093c3,SCR,2024-06-21_13h48.13.092,LearnStrategy,2023.2.3,Win32,4.615782283,7,1,15,-0.088541667,0.40625,1,0,0,2.1734,Basalt_02,2,02,6,4,2.173,2,02,-0.130208333,-0.243489583,1,0,0,1.8815,Basalt_rect,2,1.881,1,14,0,14,0,1,,,,,,,,,,,,,
65b92135e296f28cb1a093c3,SCR,2024-06-21_13h48.13.092,LearnStrategy,2023.2.3,Win32,4.615782283,7,1,16,-0.21484375,-0.138020833,1,0,0,7.4296,Pumice_15,8,15,3,3,7.43,8,15,0.389322917,-0.2421875,1,0,0,3.3067,Gabbro_rect,4,3.307,0,15,0,15,0,1,,,,,,,,,,,,,
65b92135e296f28cb1a093c3,SCR,2024-06-21_13h48.13.092,LearnStrategy,2023.2.3,Win32,4.615782283,7,2,1,,,,,,,,2,08,,,,,,,,,,,,,2,3.958,1,,,,,,-0.110677083,-0.247395833,1,0,0,3.9583,Basalt_rect,0,0,0,0,1,
65b92135e296f28cb1a093c3,SCR,2024-06-21_13h48.13.092,LearnStrategy,2023.2.3,Win32,4.615782283,7,2,2,,,,,,,,5,09,,,,,,,,,,,,,5,1.989,1,,,,,,-0.36328125,-0.411458333,1,0,0,1.9889,Obsidian_rect,1,0,1,0,1,
65b92135e296f28cb1a093c3,SCR,2024-06-21_13h48.13.092,LearnStrategy,2023.2.3,Win32,4.615782283,7,2,3,,,,,,,,8,02,,,,,,,,,,,,,8,2.245,1,,,,,,0.419270833,-0.3984375,1,0,0,2.2455,Pumice_rect,2,0,2,0,1,
65b92135e296f28cb1a093c3,SCR,2024-06-21_13h48.13.092,LearnStrategy,2023.2.3,Win32,4.615782283,7,2,4,,,,,,,,4,12,,,,,,,,,,,,,4,4.89,1,,,,,,0.393229167,-0.248697917,1,0,0,4.8903,Gabbro_rect,3,0,3,0,1,
65b92135e296f28cb1a093c3,SCR,2024-06-21_13h48.13.092,LearnStrategy,2023.2.3,Win32,4.615782283,7,2,5,,,,,,,,1,11,,,,,,,,,,,,,3,10.279,0,,,,,,0.109375,-0.239583333,1,0,0,10.2792,Diorite_rect,4,0,4,0,1,
65b92135e296f28cb1a093c3,SCR,2024-06-21_13h48.13.092,LearnStrategy,2023.2.3,Win32,4.615782283,7,2,6,,,,,,,,3,12,,,,,,,,,,,,,3,6.418,1,,,,,,0.138020833,-0.247395833,1,0,0,6.4182,Diorite_rect,5,0,5,0,1,
65b92135e296f28cb1a093c3,SCR,2024-06-21_13h48.13.092,LearnStrategy,2023.2.3,Win32,4.615782283,7,2,7,,,,,,,,3,02,,,,,,,,,,,,,1,6.62,0,,,,,,-0.401041667,-0.25,1,0,0,6.6202,Andesite_rect,6,0,6,0,1,
65b92135e296f28cb1a093c3,SCR,2024-06-21_13h48.13.092,LearnStrategy,2023.2.3,Win32,4.615782283,7,2,8,,,,,,,,8,16,,,,,,,,,,,,,4,10.329,0,,,,,,0.407552083,-0.251302083,1,0,0,10.329,Gabbro_rect,7,0,7,0,1,
65b92135e296f28cb1a093c3,SCR,2024-06-21_13h48.13.092,LearnStrategy,2023.2.3,Win32,4.615782283,7,2,9,,,,,,,,6,05,,,,,,,,,,,,,6,4.119,1,,,,,,-0.145833333,-0.41015625,1,0,0,4.1193,Pegmatite_rect,8,0,8,0,1,
65b92135e296f28cb1a093c3,SCR,2024-06-21_13h48.13.092,LearnStrategy,2023.2.3,Win32,4.615782283,7,2,10,,,,,,,,5,10,,,,,,,,,,,,,5,2.738,1,,,,,,-0.389322917,-0.411458333,1,0,0,2.7378,Obsidian_rect,9,0,9,0,1,
65b92135e296f28cb1a093c3,SCR,2024-06-21_13h48.13.092,LearnStrategy,2023.2.3,Win32,4.615782283,7,2,11,,,,,,,,1,10,,,,,,,,,,,,,8,5.014,0,,,,,,0.401041667,-0.395833333,1,0,0,5.0135,Pumice_rect,10,0,10,0,1,
65b92135e296f28cb1a093c3,SCR,2024-06-21_13h48.13.092,LearnStrategy,2023.2.3,Win32,4.615782283,7,2,12,,,,,,,,7,07,,,,,,,,,,,,,7,9.131,1,,,,,,0.091145833,-0.395833333,1,0,0,9.1312,Peridotite_rect,11,0,11,0,1,
65b92135e296f28cb1a093c3,SCR,2024-06-21_13h48.13.092,LearnStrategy,2023.2.3,Win32,4.615782283,7,2,13,,,,,,,,6,03,,,,,,,,,,,,,6,3.997,1,,,,,,-0.143229167,-0.40234375,1,0,0,3.9973,Pegmatite_rect,12,0,12,0,1,
65b92135e296f28cb1a093c3,SCR,2024-06-21_13h48.13.092,LearnStrategy,2023.2.3,Win32,4.615782283,7,2,14,,,,,,,,7,04,,,,,,,,,,,,,7,3.384,1,,,,,,0.108072917,-0.403645833,1,0,0,3.3843,Peridotite_rect,13,0,13,0,1,
65b92135e296f28cb1a093c3,SCR,2024-06-21_13h48.13.092,LearnStrategy,2023.2.3,Win32,4.615782283,7,2,15,,,,,,,,2,04,,,,,,,,,,,,,2,1.909,1,,,,,,-0.15625,-0.251302083,1,0,0,1.9094,Basalt_rect,14,0,14,0,1,
65b92135e296f28cb1a093c3,SCR,2024-06-21_13h48.13.092,LearnStrategy,2023.2.3,Win32,4.615782283,7,2,16,,,,,,,,4,11,,,,,,,,,,,,,2,2.279,0,,,,,,-0.15625,-0.251302083,1,0,0,2.2791,Basalt_rect,15,0,15,0,1,
65b92135e296f28cb1a093c3,SCR,2024-06-21_13h48.13.092,LearnStrategy,2023.2.3,Win32,4.615782283,8,1,1,0.2578125,0.397135417,1,0,0,1.7651,Pumice_08,8,08,6,6,1.765,8,08,0.381510417,-0.399739583,1,0,0,1.8838,Pumice_rect,8,1.884,1,0,0,0,0,1,,,,,,,,,,,,,
65b92135e296f28cb1a093c3,SCR,2024-06-21_13h48.13.092,LearnStrategy,2023.2.3,Win32,4.615782283,8,1,2,-0.225260417,0.40625,1,0,0,6.3098,Andesite_06,1,06,6,3,6.31,1,06,-0.401041667,-0.255208333,1,0,0,8.8896,Andesite_rect,1,8.89,1,1,0,1,0,1,,,,,,,,,,,,,
65b92135e296f28cb1a093c3,SCR,2024-06-21_13h48.13.092,LearnStrategy,2023.2.3,Win32,4.615782283,8,1,3,-0.375,0.078125,1,0,0,1.4009,Andesite_05,1,05,4,2,1.401,1,05,-0.381510417,-0.247395833,1,0,0,12.0524,Andesite_rect,1,12.052,1,2,0,2,0,1,,,,,,,,,,,,,
65b92135e296f28cb1a093c3,SCR,2024-06-21_13h48.13.092,LearnStrategy,2023.2.3,Win32,4.615782283,8,1,4,0.565104167,0.087239583,1,0,0,1.757,Diorite_09,3,09,4,8,1.757,3,09,0.157552083,-0.25,1,0,0,3.8812,Diorite_rect,3,3.881,1,3,0,3,0,1,,,,,,,,,,,,,
65b92135e296f28cb1a093c3,SCR,2024-06-21_13h48.13.092,LearnStrategy,2023.2.3,Win32,4.615782283,8,1,5,-0.231770833,0.09375,1,0,0,1.8532,Pegmatite_12,6,12,4,3,1.853,6,12,-0.111979167,-0.397135417,1,0,0,7.2703,Pegmatite_rect,6,7.27,1,4,0,4,0,1,,,,,,,,,,,,,
65b92135e296f28cb1a093c3,SCR,2024-06-21_13h48.13.092,LearnStrategy,2023.2.3,Win32,4.615782283,8,1,6,-0.53515625,-0.397135417,1,0,0,1.771,Gabbro_03,4,03,1,1,1.771,4,03,0.401041667,-0.24609375,1,0,0,9.1635,Gabbro_rect,4,9.163,1,5,0,5,0,1,,,,,,,,,,,,,
65b92135e296f28cb1a093c3,SCR,2024-06-21_13h48.13.092,LearnStrategy,2023.2.3,Win32,4.615782283,8,1,7,0.557291667,0.25,1,0,0,2.825,Pumice_04,8,04,5,8,2.825,8,04,0.388020833,-0.41015625,1,0,0,1.891,Pumice_rect,8,1.891,1,6,0,6,0,1,,,,,,,,,,,,,
65b92135e296f28cb1a093c3,SCR,2024-06-21_13h48.13.092,LearnStrategy,2023.2.3,Win32,4.615782283,8,1,8,0.080729167,0.38671875,1,0,0,5.9812,Peridotite_02,7,02,6,5,5.981,7,02,0.122395833,-0.408854167,1,0,0,4.9003,Peridotite_rect,7,4.9,1,7,0,7,0,1,,,,,,,,,,,,,
65b92135e296f28cb1a093c3,SCR,2024-06-21_13h48.13.092,LearnStrategy,2023.2.3,Win32,4.615782283,8,1,9,-0.57421875,0.26953125,1,0,0,1.7661,Gabbro_09,4,09,5,1,1.766,4,09,0.380208333,-0.240885417,1,0,0,2.6663,Gabbro_rect,4,2.666,1,8,0,8,0,1,,,,,,,,,,,,,
65b92135e296f28cb1a093c3,SCR,2024-06-21_13h48.13.092,LearnStrategy,2023.2.3,Win32,4.615782283,8,1,10,0.104166667,-0.430989583,1,0,0,4.9056,Diorite_11,3,11,1,5,4.906,3,11,0.141927083,-0.2421875,1,0,0,7.0165,Diorite_rect,3,7.016,1,9,0,9,0,1,,,,,,,,,,,,,
65b92135e296f28cb1a093c3,SCR,2024-06-21_13h48.13.092,LearnStrategy,2023.2.3,Win32,4.615782283,8,1,11,0.37890625,-0.092447917,1,0,0,4.6098,Diorite_10,3,10,3,7,4.61,3,10,0.143229167,-0.248697917,1,0,0,4.694,Diorite_rect,3,4.694,1,10,0,10,0,1,,,,,,,,,,,,,
65b92135e296f28cb1a093c3,SCR,2024-06-21_13h48.13.092,LearnStrategy,2023.2.3,Win32,4.615782283,8,1,12,0.213541667,-0.080729167,1,0,0,1.7576,Basalt_05,2,05,3,6,1.758,2,05,-0.118489583,-0.24609375,1,0,0,1.8152,Basalt_rect,2,1.815,1,11,0,11,0,1,,,,,,,,,,,,,
65b92135e296f28cb1a093c3,SCR,2024-06-21_13h48.13.092,LearnStrategy,2023.2.3,Win32,4.615782283,8,1,13,-0.557291667,0.41796875,1,0,0,3.5191,Andesite_14,1,14,6,1,3.519,1,14,0.119791667,-0.25390625,1,0,0,19.0969,Diorite_rect,3,19.097,0,12,0,12,0,1,,,,,,,,,,,,,
65b92135e296f28cb1a093c3,SCR,2024-06-21_13h48.13.092,LearnStrategy,2023.2.3,Win32,4.615782283,8,1,14,0.53125,-0.247395833,1,0,0,2.1534,Gabbro_10,4,10,2,8,2.153,4,10,0.411458333,-0.2421875,1,0,0,3.4101,Gabbro_rect,4,3.41,1,13,0,13,0,1,,,,,,,,,,,,,
65b92135e296f28cb1a093c3,SCR,2024-06-21_13h48.13.092,LearnStrategy,2023.2.3,Win32,4.615782283,8,1,15,-0.059895833,0.067708333,1,0,0,1.459,Andesite_02,1,02,4,4,1.459,1,02,0.372395833,-0.38671875,1,0,0,2.9372,Pumice_rect,8,2.937,0,14,0,14,0,1,,,,,,,,,,,,,
65b92135e296f28cb1a093c3,SCR,2024-06-21_13h48.13.092,LearnStrategy,2023.2.3,Win32,4.615782283,8,1,16,0.225260417,0.239583333,1,0,0,1.8063,Peridotite_05,7,05,5,6,1.806,7,05,-0.119791667,-0.251302083,1,0,0,9.934,Basalt_rect,2,9.934,0,15,0,15,0,1,,,,,,,,,,,,,
65b92135e296f28cb1a093c3,SCR,2024-06-21_13h48.13.092,LearnStrategy,2023.2.3,Win32,4.615782283,8,2,1,,,,,,,,6,07,,,,,,,,,,,,,6,4.888,1,,,,,,-0.1171875,-0.390625,1,0,0,4.8884,Pegmatite_rect,0,0,0,0,1,
65b92135e296f28cb1a093c3,SCR,2024-06-21_13h48.13.092,LearnStrategy,2023.2.3,Win32,4.615782283,8,2,2,,,,,,,,8,14,,,,,,,,,,,,,8,2.289,1,,,,,,0.397135417,-0.399739583,1,0,0,2.2893,Pumice_rect,1,0,1,0,1,
65b92135e296f28cb1a093c3,SCR,2024-06-21_13h48.13.092,LearnStrategy,2023.2.3,Win32,4.615782283,8,2,3,,,,,,,,4,15,,,,,,,,,,,,,3,4.651,0,,,,,,0.1640625,-0.244791667,1,0,0,4.6506,Diorite_rect,2,0,2,0,1,
65b92135e296f28cb1a093c3,SCR,2024-06-21_13h48.13.092,LearnStrategy,2023.2.3,Win32,4.615782283,8,2,4,,,,,,,,5,04,,,,,,,,,,,,,5,3.051,1,,,,,,-0.389322917,-0.401041667,1,0,0,3.0508,Obsidian_rect,3,0,3,0,1,
65b92135e296f28cb1a093c3,SCR,2024-06-21_13h48.13.092,LearnStrategy,2023.2.3,Win32,4.615782283,8,2,5,,,,,,,,5,16,,,,,,,,,,,,,5,1.843,1,,,,,,-0.373697917,-0.40234375,1,0,0,1.8425,Obsidian_rect,4,0,4,0,1,
65b92135e296f28cb1a093c3,SCR,2024-06-21_13h48.13.092,LearnStrategy,2023.2.3,Win32,4.615782283,8,2,6,,,,,,,,8,13,,,,,,,,,,,,,8,8.18,1,,,,,,0.375,-0.39453125,1,0,0,8.1799,Pumice_rect,5,0,5,0,1,
65b92135e296f28cb1a093c3,SCR,2024-06-21_13h48.13.092,LearnStrategy,2023.2.3,Win32,4.615782283,8,2,7,,,,,,,,2,01,,,,,,,,,,,,,2,1.864,1,,,,,,-0.118489583,-0.252604167,1,0,0,1.8643,Basalt_rect,6,0,6,0,1,
65b92135e296f28cb1a093c3,SCR,2024-06-21_13h48.13.092,LearnStrategy,2023.2.3,Win32,4.615782283,8,2,8,,,,,,,,6,09,,,,,,,,,,,,,6,6.679,1,,,,,,-0.119791667,-0.40625,1,0,0,6.679,Pegmatite_rect,7,0,7,0,1,
65b92135e296f28cb1a093c3,SCR,2024-06-21_13h48.13.092,LearnStrategy,2023.2.3,Win32,4.615782283,8,2,9,,,,,,,,7,13,,,,,,,,,,,,,7,10.06,1,,,,,,0.13671875,-0.389322917,1,0,0,10.0596,Peridotite_rect,8,0,8,0,1,
65b92135e296f28cb1a093c3,SCR,2024-06-21_13h48.13.092,LearnStrategy,2023.2.3,Win32,4.615782283,8,2,10,,,,,,,,2,09,,,,,,,,,,,,,2,2.707,1,,,,,,-0.139322917,-0.247395833,1,0,0,2.7069,Basalt_rect,9,0,9,0,1,
65b92135e296f28cb1a093c3,SCR,2024-06-21_13h48.13.092,LearnStrategy,2023.2.3,Win32,4.615782283,8,2,11,,,,,,,,3,15,,,,,,,,,,,,,3,6.349,1,,,,,,0.158854167,-0.256510417,1,0,0,6.3489,Diorite_rect,10,0,10,0,1,
65b92135e296f28cb1a093c3,SCR,2024-06-21_13h48.13.092,LearnStrategy,2023.2.3,Win32,4.615782283,8,2,12,,,,,,,,4,01,,,,,,,,,,,,,1,7.482,0,,,,,,-0.381510417,-0.244791667,1,0,0,7.4817,Andesite_rect,11,0,11,0,1,
65b92135e296f28cb1a093c3,SCR,2024-06-21_13h48.13.092,LearnStrategy,2023.2.3,Win32,4.615782283,8,2,13,,,,,,,,3,06,,,,,,,,,,,,,3,6.193,1,,,,,,0.149739583,-0.25390625,1,0,0,6.1932,Diorite_rect,12,0,12,0,1,
65b92135e296f28cb1a093c3,SCR,2024-06-21_13h48.13.092,LearnStrategy,2023.2.3,Win32,4.615782283,8,2,14,,,,,,,,7,12,,,,,,,,,,,,,3,16.488,0,,,,,,0.123697917,-0.248697917,1,0,0,16.4876,Diorite_rect,13,0,13,0,1,
65b92135e296f28cb1a093c3,SCR,2024-06-21_13h48.13.092,LearnStrategy,2023.2.3,Win32,4.615782283,8,2,15,,,,,,,,1,09,,,,,,,,,,,,,4,2.7,0,,,,,,0.365885417,-0.25390625,1,0,0,2.6999,Gabbro_rect,14,0,14,0,1,
65b92135e296f28cb1a093c3,SCR,2024-06-21_13h48.13.092,LearnStrategy,2023.2.3,Win32,4.615782283,8,2,16,,,,,,,,1,16,,,,,,,,,,,,,3,8.084,0,,,,,,0.138020833,-0.25,1,0,0,8.084,Diorite_rect,15,0,15,0,1,
65b92135e296f28cb1a093c3,SCR,2024-06-21_13h48.13.092,LearnStrategy,2023.2.3,Win32,4.615782283,9,1,1,-0.048177083,-0.075520833,1,0,0,3.2254,Pumice_05,8,05,3,4,3.225,8,05,0.3671875,-0.397135417,1,0,0,1.9699,Pumice_rect,8,1.97,1,0,0,0,0,1,,,,,,,,,,,,,
65b92135e296f28cb1a093c3,SCR,2024-06-21_13h48.13.092,LearnStrategy,2023.2.3,Win32,4.615782283,9,1,2,0.393229167,-0.25390625,1,0,0,1.785,Pegmatite_13,6,13,2,7,1.785,6,13,-0.153645833,-0.397135417,1,0,0,2.3345,Pegmatite_rect,6,2.334,1,1,0,1,0,1,,,,,,,,,,,,,
65b92135e296f28cb1a093c3,SCR,2024-06-21_13h48.13.092,LearnStrategy,2023.2.3,Win32,4.615782283,9,1,3,-0.579427083,0.256510417,1,0,0,1.4615,Gabbro_09,4,09,5,1,1.461,4,09,0.40234375,-0.240885417,1,0,0,4.7691,Gabbro_rect,4,4.769,1,2,0,2,0,1,,,,,,,,,,,,,
65b92135e296f28cb1a093c3,SCR,2024-06-21_13h48.13.092,LearnStrategy,2023.2.3,Win32,4.615782283,9,1,4,-0.505208333,0.084635417,1,0,0,1.7832,Peridotite_06,7,06,4,1,1.783,7,06,-0.125,-0.407552083,1,0,0,7.4016,Pegmatite_rect,6,7.402,0,3,0,3,0,1,,,,,,,,,,,,,
65b92135e296f28cb1a093c3,SCR,2024-06-21_13h48.13.092,LearnStrategy,2023.2.3,Win32,4.615782283,9,1,5,0.087239583,-0.393229167,1,0,0,1.7888,Diorite_11,3,11,1,5,1.789,3,11,0.143229167,-0.251302083,1,0,0,4.069,Diorite_rect,3,4.069,1,4,0,4,0,1,,,,,,,,,,,,,
65b92135e296f28cb1a093c3,SCR,2024-06-21_13h48.13.092,LearnStrategy,2023.2.3,Win32,4.615782283,9,1,6,-0.213541667,0.3984375,1,0,0,3.8916,Andesite_06,1,06,6,3,3.892,1,06,0.147135417,-0.23828125,1,0,0,7.1221,Diorite_rect,3,7.122,0,5,0,5,0,1,,,,,,,,,,,,,
65b92135e296f28cb1a093c3,SCR,2024-06-21_13h48.13.092,LearnStrategy,2023.2.3,Win32,4.615782283,9,1,7,-0.247395833,0.412760417,1,0,0,3.5175,Andesite_06,1,06,6,3,3.517,1,06,-0.380208333,-0.25,1,0,0,5.953,Andesite_rect,1,5.953,1,6,0,6,0,1,,,,,,,,,,,,,
65b92135e296f28cb1a093c3,SCR,2024-06-21_13h48.13.092,LearnStrategy,2023.2.3,Win32,4.615782283,9,1,8,-0.080729167,0.38671875,1,0,0,2.8587,Basalt_02,2,02,6,4,2.859,2,02,-0.118489583,-0.2578125,1,0,0,3.4768,Basalt_rect,2,3.477,1,7,0,7,0,1,,,,,,,,,,,,,
65b92135e296f28cb1a093c3,SCR,2024-06-21_13h48.13.092,LearnStrategy,2023.2.3,Win32,4.615782283,9,1,9,-0.197916667,-0.40625,1,0,0,1.8269,Andesite_01,1,01,1,3,1.827,1,01,-0.395833333,-0.265625,1,0,0,16.6194,Andesite_rect,1,16.619,1,8,0,8,0,1,,,,,,,,,,,,,
65b92135e296f28cb1a093c3,SCR,2024-06-21_13h48.13.092,LearnStrategy,2023.2.3,Win32,4.615782283,9,1,10,0.217447917,-0.235677083,1,0,0,1.4332,Gabbro_05,4,05,2,6,1.433,4,05,0.369791667,-0.234375,1,0,0,3.7565,Gabbro_rect,4,3.756,1,9,0,9,0,1,,,,,,,,,,,,,
65b92135e296f28cb1a093c3,SCR,2024-06-21_13h48.13.092,LearnStrategy,2023.2.3,Win32,4.615782283,9,1,11,-0.51953125,-0.40234375,1,0,0,1.7798,Gabbro_03,4,03,1,1,1.78,4,03,0.368489583,-0.243489583,1,0,0,2.9857,Gabbro_rect,4,2.986,1,10,0,10,0,1,,,,,,,,,,,,,
65b92135e296f28cb1a093c3,SCR,2024-06-21_13h48.13.092,LearnStrategy,2023.2.3,Win32,4.615782283,9,1,12,-0.0546875,0.084635417,1,0,0,2.4751,Andesite_02,1,02,4,4,2.475,1,02,0.095052083,-0.3984375,1,0,0,12.279,Peridotite_rect,7,12.279,0,11,0,11,0,1,,,,,,,,,,,,,
65b92135e296f28cb1a093c3,SCR,2024-06-21_13h48.13.092,LearnStrategy,2023.2.3,Win32,4.615782283,9,1,13,0.108072917,-0.423177083,1,0,0,2.9167,Diorite_11,3,11,1,5,2.917,3,11,0.174479167,-0.264322917,1,0,0,4.181,Diorite_rect,3,4.181,1,12,0,12,0,1,,,,,,,,,,,,,
65b92135e296f28cb1a093c3,SCR,2024-06-21_13h48.13.092,LearnStrategy,2023.2.3,Win32,4.615782283,9,1,14,0.118489583,0.364583333,1,0,0,5.3176,Peridotite_02,7,02,6,5,5.318,7,02,0.141927083,-0.40625,1,0,0,6.5278,Peridotite_rect,7,6.528,1,13,0,13,0,1,,,,,,,,,,,,,
65b92135e296f28cb1a093c3,SCR,2024-06-21_13h48.13.092,LearnStrategy,2023.2.3,Win32,4.615782283,9,1,15,0.421875,0.361979167,1,0,0,1.7664,Andesite_07,1,07,6,7,1.766,1,07,-0.373697917,-0.252604167,1,0,0,14.5032,Andesite_rect,1,14.503,1,14,0,14,0,1,,,,,,,,,,,,,
65b92135e296f28cb1a093c3,SCR,2024-06-21_13h48.13.092,LearnStrategy,2023.2.3,Win32,4.615782283,9,1,16,0.513020833,-0.25,1,0,0,1.417,Gabbro_10,4,10,2,8,1.417,4,10,0.41015625,-0.25,1,0,0,3.0793,Gabbro_rect,4,3.079,1,15,0,15,0,1,,,,,,,,,,,,,
65b92135e296f28cb1a093c3,SCR,2024-06-21_13h48.13.092,LearnStrategy,2023.2.3,Win32,4.615782283,9,2,1,,,,,,,,4,13,,,,,,,,,,,,,4,11.135,1,,,,,,0.372395833,-0.2421875,1,0,0,11.1355,Gabbro_rect,0,0,0,0,1,
65b92135e296f28cb1a093c3,SCR,2024-06-21_13h48.13.092,LearnStrategy,2023.2.3,Win32,4.615782283,9,2,2,,,,,,,,4,16,,,,,,,,,,,,,4,4.341,1,,,,,,0.427083333,-0.243489583,1,0,0,4.3408,Gabbro_rect,1,0,1,0,1,
65b92135e296f28cb1a093c3,SCR,2024-06-21_13h48.13.092,LearnStrategy,2023.2.3,Win32,4.615782283,9,2,3,,,,,,,,7,08,,,,,,,,,,,,,7,4.637,1,,,,,,0.12890625,-0.390625,1,0,0,4.6367,Peridotite_rect,2,0,2,0,1,
65b92135e296f28cb1a093c3,SCR,2024-06-21_13h48.13.092,LearnStrategy,2023.2.3,Win32,4.615782283,9,2,4,,,,,,,,5,07,,,,,,,,,,,,,5,3.613,1,,,,,,-0.40234375,-0.395833333,1,0,0,3.6135,Obsidian_rect,3,0,3,0,1,
65b92135e296f28cb1a093c3,SCR,2024-06-21_13h48.13.092,LearnStrategy,2023.2.3,Win32,4.615782283,9,2,5,,,,,,,,6,15,,,,,,,,,,,,,6,1.959,1,,,,,,-0.141927083,-0.403645833,1,0,0,1.9585,Pegmatite_rect,4,0,4,0,1,
65b92135e296f28cb1a093c3,SCR,2024-06-21_13h48.13.092,LearnStrategy,2023.2.3,Win32,4.615782283,9,2,6,,,,,,,,3,16,,,,,,,,,,,,,3,8.434,1,,,,,,0.125,-0.244791667,1,0,0,8.4336,Diorite_rect,5,0,5,0,1,
65b92135e296f28cb1a093c3,SCR,2024-06-21_13h48.13.092,LearnStrategy,2023.2.3,Win32,4.615782283,9,2,7,,,,,,,,8,03,,,,,,,,,,,,,8,1.97,1,,,,,,0.377604167,-0.399739583,1,0,0,1.9703,Pumice_rect,6,0,6,0,1,
65b92135e296f28cb1a093c3,SCR,2024-06-21_13h48.13.092,LearnStrategy,2023.2.3,Win32,4.615782283,9,2,8,,,,,,,,6,06,,,,,,,,,,,,,6,1.976,1,,,,,,-0.134114583,-0.40234375,1,0,0,1.9755,Pegmatite_rect,7,0,7,0,1,
65b92135e296f28cb1a093c3,SCR,2024-06-21_13h48.13.092,LearnStrategy,2023.2.3,Win32,4.615782283,9,2,9,,,,,,,,5,06,,,,,,,,,,,,,5,3.496,1,,,,,,-0.372395833,-0.393229167,1,0,0,3.4961,Obsidian_rect,8,0,8,0,1,
65b92135e296f28cb1a093c3,SCR,2024-06-21_13h48.13.092,LearnStrategy,2023.2.3,Win32,4.615782283,9,2,10,,,,,,,,7,10,,,,,,,,,,,,,7,4.354,1,,,,,,0.126302083,-0.401041667,1,0,0,4.3538,Peridotite_rect,9,0,9,0,1,
65b92135e296f28cb1a093c3,SCR,2024-06-21_13h48.13.092,LearnStrategy,2023.2.3,Win32,4.615782283,9,2,11,,,,,,,,3,14,,,,,,,,,,,,,3,7.747,1,,,,,,0.140625,-0.243489583,1,0,0,7.7475,Diorite_rect,10,0,10,0,1,
65b92135e296f28cb1a093c3,SCR,2024-06-21_13h48.13.092,LearnStrategy,2023.2.3,Win32,4.615782283,9,2,12,,,,,,,,2,12,,,,,,,,,,,,,4,4.774,0,,,,,,0.438802083,-0.25,1,0,0,4.7741,Gabbro_rect,11,0,11,0,1,
65b92135e296f28cb1a093c3,SCR,2024-06-21_13h48.13.092,LearnStrategy,2023.2.3,Win32,4.615782283,9,2,13,,,,,,,,1,04,,,,,,,,,,,,,7,4.259,0,,,,,,0.131510417,-0.411458333,1,0,0,4.2593,Peridotite_rect,12,0,12,0,1,
65b92135e296f28cb1a093c3,SCR,2024-06-21_13h48.13.092,LearnStrategy,2023.2.3,Win32,4.615782283,9,2,14,,,,,,,,2,16,,,,,,,,,,,,,2,3.021,1,,,,,,-0.123697917,-0.248697917,1,0,0,3.0212,Basalt_rect,13,0,13,0,1,
65b92135e296f28cb1a093c3,SCR,2024-06-21_13h48.13.092,LearnStrategy,2023.2.3,Win32,4.615782283,9,2,15,,,,,,,,1,03,,,,,,,,,,,,,1,19.166,1,,,,,,-0.346354167,-0.25390625,1,0,0,19.1662,Andesite_rect,14,0,14,0,1,
65b92135e296f28cb1a093c3,SCR,2024-06-21_13h48.13.092,LearnStrategy,2023.2.3,Win32,4.615782283,9,2,16,,,,,,,,8,10,,,,,,,,,,,,,8,1.881,1,,,,,,0.415364583,-0.399739583,1,0,0,1.8806,Pumice_rect,15,0,15,0,1,
65b92135e296f28cb1a093c3,SCR,2024-06-21_13h48.13.092,LearnStrategy,2023.2.3,Win32,4.615782283,,,,,,,,,,,,,,,,,,,,,,,,,,,,,,,,,,,,,,,,,,,,,1
65b92135e296f28cb1a093c3,SCR,2024-06-21_13h48.13.092,LearnStrategy,2023.2.3,Win32,4.615782283,,,,,,,,,,,,,,,,,,,,,,,,,,,,,,,,,,,,,,,,,,,,,
65b92135e296f28cb1a093c3,SCR,2024-06-21_13h48.13.092,LearnStrategy,2023.2.3,Win32,4.615782283,,,,,,,,,,,4,03,1,1,,,,,,,,,,,,,,,,,,,,,,,,,,,,,,,
65b92135e296f28cb1a093c3,SCR,2024-06-21_13h48.13.092,LearnStrategy,2023.2.3,Win32,4.615782283,,,,,,,,,,,6,10,1,2,,,,,,,,,,,,,,,,,,,,,,,,,,,,,,,
65b92135e296f28cb1a093c3,SCR,2024-06-21_13h48.13.092,LearnStrategy,2023.2.3,Win32,4.615782283,,,,,,,,,,,1,01,1,3,,,,,,,,,,,,,,,,,,,,,,,,,,,,,,,
65b92135e296f28cb1a093c3,SCR,2024-06-21_13h48.13.092,LearnStrategy,2023.2.3,Win32,4.615782283,,,,,,,,,,,7,14,1,4,,,,,,,,,,,,,,,,,,,,,,,,,,,,,,,
65b92135e296f28cb1a093c3,SCR,2024-06-21_13h48.13.092,LearnStrategy,2023.2.3,Win32,4.615782283,,,,,,,,,,,3,11,1,5,,,,,,,,,,,,,,,,,,,,,,,,,,,,,,,
65b92135e296f28cb1a093c3,SCR,2024-06-21_13h48.13.092,LearnStrategy,2023.2.3,Win32,4.615782283,,,,,,,,,,,5,08,1,6,,,,,,,,,,,,,,,,,,,,,,,,,,,,,,,
65b92135e296f28cb1a093c3,SCR,2024-06-21_13h48.13.092,LearnStrategy,2023.2.3,Win32,4.615782283,,,,,,,,,,,4,14,1,7,,,,,,,,,,,,,,,,,,,,,,,,,,,,,,,
65b92135e296f28cb1a093c3,SCR,2024-06-21_13h48.13.092,LearnStrategy,2023.2.3,Win32,4.615782283,,,,,,,,,,,8,09,1,8,,,,,,,,,,,,,,,,,,,,,,,,,,,,,,,
65b92135e296f28cb1a093c3,SCR,2024-06-21_13h48.13.092,LearnStrategy,2023.2.3,Win32,4.615782283,,,,,,,,,,,3,08,2,1,,,,,,,,,,,,,,,,,,,,,,,,,,,,,,,
65b92135e296f28cb1a093c3,SCR,2024-06-21_13h48.13.092,LearnStrategy,2023.2.3,Win32,4.615782283,,,,,,,,,,,5,11,2,2,,,,,,,,,,,,,,,,,,,,,,,,,,,,,,,
65b92135e296f28cb1a093c3,SCR,2024-06-21_13h48.13.092,LearnStrategy,2023.2.3,Win32,4.615782283,,,,,,,,,,,5,02,2,3,,,,,,,,,,,,,,,,,,,,,,,,,,,,,,,
65b92135e296f28cb1a093c3,SCR,2024-06-21_13h48.13.092,LearnStrategy,2023.2.3,Win32,4.615782283,,,,,,,,,,,4,08,2,4,,,,,,,,,,,,,,,,,,,,,,,,,,,,,,,
65b92135e296f28cb1a093c3,SCR,2024-06-21_13h48.13.092,LearnStrategy,2023.2.3,Win32,4.615782283,,,,,,,,,,,6,16,2,5,,,,,,,,,,,,,,,,,,,,,,,,,,,,,,,
65b92135e296f28cb1a093c3,SCR,2024-06-21_13h48.13.092,LearnStrategy,2023.2.3,Win32,4.615782283,,,,,,,,,,,4,05,2,6,,,,,,,,,,,,,,,,,,,,,,,,,,,,,,,
65b92135e296f28cb1a093c3,SCR,2024-06-21_13h48.13.092,LearnStrategy,2023.2.3,Win32,4.615782283,,,,,,,,,,,6,13,2,7,,,,,,,,,,,,,,,,,,,,,,,,,,,,,,,
65b92135e296f28cb1a093c3,SCR,2024-06-21_13h48.13.092,LearnStrategy,2023.2.3,Win32,4.615782283,,,,,,,,,,,4,10,2,8,,,,,,,,,,,,,,,,,,,,,,,,,,,,,,,
65b92135e296f28cb1a093c3,SCR,2024-06-21_13h48.13.092,LearnStrategy,2023.2.3,Win32,4.615782283,,,,,,,,,,,3,07,3,1,,,,,,,,,,,,,,,,,,,,,,,,,,,,,,,
65b92135e296f28cb1a093c3,SCR,2024-06-21_13h48.13.092,LearnStrategy,2023.2.3,Win32,4.615782283,,,,,,,,,,,5,05,3,2,,,,,,,,,,,,,,,,,,,,,,,,,,,,,,,
65b92135e296f28cb1a093c3,SCR,2024-06-21_13h48.13.092,LearnStrategy,2023.2.3,Win32,4.615782283,,,,,,,,,,,8,15,3,3,,,,,,,,,,,,,,,,,,,,,,,,,,,,,,,
65b92135e296f28cb1a093c3,SCR,2024-06-21_13h48.13.092,LearnStrategy,2023.2.3,Win32,4.615782283,,,,,,,,,,,8,05,3,4,,,,,,,,,,,,,,,,,,,,,,,,,,,,,,,
65b92135e296f28cb1a093c3,SCR,2024-06-21_13h48.13.092,LearnStrategy,2023.2.3,Win32,4.615782283,,,,,,,,,,,2,10,3,5,,,,,,,,,,,,,,,,,,,,,,,,,,,,,,,
65b92135e296f28cb1a093c3,SCR,2024-06-21_13h48.13.092,LearnStrategy,2023.2.3,Win32,4.615782283,,,,,,,,,,,2,05,3,6,,,,,,,,,,,,,,,,,,,,,,,,,,,,,,,
65b92135e296f28cb1a093c3,SCR,2024-06-21_13h48.13.092,LearnStrategy,2023.2.3,Win32,4.615782283,,,,,,,,,,,3,10,3,7,,,,,,,,,,,,,,,,,,,,,,,,,,,,,,,
65b92135e296f28cb1a093c3,SCR,2024-06-21_13h48.13.092,LearnStrategy,2023.2.3,Win32,4.615782283,,,,,,,,,,,7,15,3,8,,,,,,,,,,,,,,,,,,,,,,,,,,,,,,,
65b92135e296f28cb1a093c3,SCR,2024-06-21_13h48.13.092,LearnStrategy,2023.2.3,Win32,4.615782283,,,,,,,,,,,7,06,4,1,,,,,,,,,,,,,,,,,,,,,,,,,,,,,,,
65b92135e296f28cb1a093c3,SCR,2024-06-21_13h48.13.092,LearnStrategy,2023.2.3,Win32,4.615782283,,,,,,,,,,,1,05,4,2,,,,,,,,,,,,,,,,,,,,,,,,,,,,,,,
65b92135e296f28cb1a093c3,SCR,2024-06-21_13h48.13.092,LearnStrategy,2023.2.3,Win32,4.615782283,,,,,,,,,,,6,12,4,3,,,,,,,,,,,,,,,,,,,,,,,,,,,,,,,
65b92135e296f28cb1a093c3,SCR,2024-06-21_13h48.13.092,LearnStrategy,2023.2.3,Win32,4.615782283,,,,,,,,,,,1,02,4,4,,,,,,,,,,,,,,,,,,,,,,,,,,,,,,,
65b92135e296f28cb1a093c3,SCR,2024-06-21_13h48.13.092,LearnStrategy,2023.2.3,Win32,4.615782283,,,,,,,,,,,5,12,4,5,,,,,,,,,,,,,,,,,,,,,,,,,,,,,,,
65b92135e296f28cb1a093c3,SCR,2024-06-21_13h48.13.092,LearnStrategy,2023.2.3,Win32,4.615782283,,,,,,,,,,,7,16,4,6,,,,,,,,,,,,,,,,,,,,,,,,,,,,,,,
65b92135e296f28cb1a093c3,SCR,2024-06-21_13h48.13.092,LearnStrategy,2023.2.3,Win32,4.615782283,,,,,,,,,,,8,06,4,7,,,,,,,,,,,,,,,,,,,,,,,,,,,,,,,
65b92135e296f28cb1a093c3,SCR,2024-06-21_13h48.13.092,LearnStrategy,2023.2.3,Win32,4.615782283,,,,,,,,,,,3,09,4,8,,,,,,,,,,,,,,,,,,,,,,,,,,,,,,,
65b92135e296f28cb1a093c3,SCR,2024-06-21_13h48.13.092,LearnStrategy,2023.2.3,Win32,4.615782283,,,,,,,,,,,4,09,5,1,,,,,,,,,,,,,,,,,,,,,,,,,,,,,,,
65b92135e296f28cb1a093c3,SCR,2024-06-21_13h48.13.092,LearnStrategy,2023.2.3,Win32,4.615782283,,,,,,,,,,,2,06,5,2,,,,,,,,,,,,,,,,,,,,,,,,,,,,,,,
65b92135e296f28cb1a093c3,SCR,2024-06-21_13h48.13.092,LearnStrategy,2023.2.3,Win32,4.615782283,,,,,,,,,,,5,14,5,3,,,,,,,,,,,,,,,,,,,,,,,,,,,,,,,
65b92135e296f28cb1a093c3,SCR,2024-06-21_13h48.13.092,LearnStrategy,2023.2.3,Win32,4.615782283,,,,,,,,,,,6,08,5,4,,,,,,,,,,,,,,,,,,,,,,,,,,,,,,,
65b92135e296f28cb1a093c3,SCR,2024-06-21_13h48.13.092,LearnStrategy,2023.2.3,Win32,4.615782283,,,,,,,,,,,6,11,5,5,,,,,,,,,,,,,,,,,,,,,,,,,,,,,,,
65b92135e296f28cb1a093c3,SCR,2024-06-21_13h48.13.092,LearnStrategy,2023.2.3,Win32,4.615782283,,,,,,,,,,,7,05,5,6,,,,,,,,,,,,,,,,,,,,,,,,,,,,,,,
65b92135e296f28cb1a093c3,SCR,2024-06-21_13h48.13.092,LearnStrategy,2023.2.3,Win32,4.615782283,,,,,,,,,,,2,14,5,7,,,,,,,,,,,,,,,,,,,,,,,,,,,,,,,
65b92135e296f28cb1a093c3,SCR,2024-06-21_13h48.13.092,LearnStrategy,2023.2.3,Win32,4.615782283,,,,,,,,,,,8,04,5,8,,,,,,,,,,,,,,,,,,,,,,,,,,,,,,,
65b92135e296f28cb1a093c3,SCR,2024-06-21_13h48.13.092,LearnStrategy,2023.2.3,Win32,4.615782283,,,,,,,,,,,1,14,6,1,,,,,,,,,,,,,,,,,,,,,,,,,,,,,,,
65b92135e296f28cb1a093c3,SCR,2024-06-21_13h48.13.092,LearnStrategy,2023.2.3,Win32,4.615782283,,,,,,,,,,,2,11,6,2,,,,,,,,,,,,,,,,,,,,,,,,,,,,,,,
65b92135e296f28cb1a093c3,SCR,2024-06-21_13h48.13.092,LearnStrategy,2023.2.3,Win32,4.615782283,,,,,,,,,,,1,06,6,3,,,,,,,,,,,,,,,,,,,,,,,,,,,,,,,
65b92135e296f28cb1a093c3,SCR,2024-06-21_13h48.13.092,LearnStrategy,2023.2.3,Win32,4.615782283,,,,,,,,,,,2,02,6,4,,,,,,,,,,,,,,,,,,,,,,,,,,,,,,,
65b92135e296f28cb1a093c3,SCR,2024-06-21_13h48.13.092,LearnStrategy,2023.2.3,Win32,4.615782283,,,,,,,,,,,7,02,6,5,,,,,,,,,,,,,,,,,,,,,,,,,,,,,,,
65b92135e296f28cb1a093c3,SCR,2024-06-21_13h48.13.092,LearnStrategy,2023.2.3,Win32,4.615782283,,,,,,,,,,,8,08,6,6,,,,,,,,,,,,,,,,,,,,,,,,,,,,,,,
65b92135e296f28cb1a093c3,SCR,2024-06-21_13h48.13.092,LearnStrategy,2023.2.3,Win32,4.615782283,,,,,,,,,,,1,07,6,7,,,,,,,,,,,,,,,,,,,,,,,,,,,,,,,
65b92135e296f28cb1a093c3,SCR,2024-06-21_13h48.13.092,LearnStrategy,2023.2.3,Win32,4.615782283,,,,,,,,,,,3,13,6,8,,,,,,,,,,,,,,,,,,,,,,,,,,,,,,,