participant,condition,date,expName,psychopyVersion,OS,frameRate,block,phase,trial,learn_mouse_2.x,learn_mouse_2.y,learn_mouse_2.leftButton,learn_mouse_2.midButton,learn_mouse_2.rightButton,learn_mouse_2.time,learn_mouse_2.clicked_name,cat,token,row,col,t_select,cat_mouse_l.x,cat_mouse_l.y,cat_mouse_l.leftButton,cat_mouse_l.midButton,cat_mouse_l.rightButton,cat_mouse_l.time,cat_mouse_l.clicked_name,resp,t_resp,corr,train_trials.thisRepN,train_trials.thisTrialN,train_trials.thisN,train_trials.thisIndex,train_trials.ran,cat_mouse_t.x,cat_mouse_t.y,cat_mouse_t.leftButton,cat_mouse_t.midButton,cat_mouse_t.rightButton,cat_mouse_t.time,cat_mouse_t.clicked_name,test_trials.thisRepN,test_trials.thisTrialN,test_trials.thisN,test_trials.thisIndex,test_trials.ran,Bonus
65c017a404cde4687fdad22e,TCR,2024-06-24_17h34.40.353,LearnStrategy,2023.2.3,Win32,59.88023952,,,,,,,,,,,,,,,,,,,,,,,,,,,,,,,,,,,,,,,,,,,
65c017a404cde4687fdad22e,TCR,2024-06-24_17h34.40.353,LearnStrategy,2023.2.3,Win32,59.88023952,1,1,1,-0.026367188,-0.002929688,1,0,0,11.0119,rock_grid_rect_2,5,07,-1,-1,11.012,-0.157226563,-0.395507813,1,0,0,17.5159,Pegmatite_rect,6,17.516,0,0,0,0,0,1,,,,,,,,,,,,,
65c017a404cde4687fdad22e,TCR,2024-06-24_17h34.40.353,LearnStrategy,2023.2.3,Win32,59.88023952,1,1,2,-0.012695313,0,1,0,0,10.94,rock_grid_rect_2,8,03,-1,-1,10.94,0.374023438,-0.39453125,1,0,0,5.9986,Pumice_rect,8,5.999,1,1,0,1,0,1,,,,,,,,,,,,,
65c017a404cde4687fdad22e,TCR,2024-06-24_17h34.40.353,LearnStrategy,2023.2.3,Win32,59.88023952,1,1,3,-0.017578125,0.002929688,1,0,0,4.4681,rock_grid_rect_2,1,11,-1,-1,4.468,-0.124023438,-0.245117188,1,0,0,9.4277,Basalt_rect,2,9.428,0,2,0,2,0,1,,,,,,,,,,,,,
65c017a404cde4687fdad22e,TCR,2024-06-24_17h34.40.353,LearnStrategy,2023.2.3,Win32,59.88023952,1,1,4,-0.03515625,0.00390625,1,0,0,2.5082,rock_grid_rect_2,6,03,-1,-1,2.508,0.120117188,-0.234375,1,0,0,8.302,Diorite_rect,3,8.302,0,3,0,3,0,1,,,,,,,,,,,,,
65c017a404cde4687fdad22e,TCR,2024-06-24_17h34.40.353,LearnStrategy,2023.2.3,Win32,59.88023952,1,1,5,0.029296875,-0.0078125,1,0,0,2.4432,rock_grid_rect_2,6,10,-1,-1,2.443,0.146484375,-0.251953125,1,0,0,8.3524,Diorite_rect,3,8.352,0,4,0,4,0,1,,,,,,,,,,,,,
65c017a404cde4687fdad22e,TCR,2024-06-24_17h34.40.353,LearnStrategy,2023.2.3,Win32,59.88023952,1,1,6,0.028320313,-0.000976563,1,0,0,1.2187,rock_grid_rect_2,3,16,-1,-1,1.219,-0.153320313,-0.236328125,1,0,0,5.117,Basalt_rect,2,5.117,0,5,0,5,0,1,,,,,,,,,,,,,
65c017a404cde4687fdad22e,TCR,2024-06-24_17h34.40.353,LearnStrategy,2023.2.3,Win32,59.88023952,1,1,7,0.024414063,0.008789063,1,0,0,15.191,rock_grid_rect_2,4,03,-1,-1,15.191,-0.139648438,-0.23046875,1,0,0,3.8078,Basalt_rect,2,3.808,0,6,0,6,0,1,,,,,,,,,,,,,
65c017a404cde4687fdad22e,TCR,2024-06-24_17h34.40.353,LearnStrategy,2023.2.3,Win32,59.88023952,1,1,8,-0.041015625,0.004882813,1,0,0,1.5627,rock_grid_rect_2,3,06,-1,-1,1.563,0.376953125,-0.239257813,1,0,0,10.3207,Gabbro_rect,4,10.321,0,7,0,7,0,1,,,,,,,,,,,,,
65c017a404cde4687fdad22e,TCR,2024-06-24_17h34.40.353,LearnStrategy,2023.2.3,Win32,59.88023952,1,1,9,-0.010742188,-0.005859375,1,0,0,1.377,rock_grid_rect_2,7,02,-1,-1,1.377,-0.159179688,-0.388671875,1,0,0,8.0663,Pegmatite_rect,6,8.066,0,8,0,8,0,1,,,,,,,,,,,,,
65c017a404cde4687fdad22e,TCR,2024-06-24_17h34.40.353,LearnStrategy,2023.2.3,Win32,59.88023952,1,1,10,-0.017578125,-0.004882813,1,0,0,1.4128,rock_grid_rect_2,7,12,-1,-1,1.413,0.114257813,-0.262695313,1,0,0,8.9632,Diorite_rect,3,8.963,0,9,0,9,0,1,,,,,,,,,,,,,
65c017a404cde4687fdad22e,TCR,2024-06-24_17h34.40.353,LearnStrategy,2023.2.3,Win32,59.88023952,1,1,11,0.00390625,-0.000976563,1,0,0,1.1636,rock_grid_rect_2,8,15,-1,-1,1.164,0.408203125,-0.39453125,1,0,0,5.4373,Pumice_rect,8,5.437,1,10,0,10,0,1,,,,,,,,,,,,,
65c017a404cde4687fdad22e,TCR,2024-06-24_17h34.40.353,LearnStrategy,2023.2.3,Win32,59.88023952,1,1,12,0.002929688,0.001953125,1,0,0,1.3814,rock_grid_rect_2,2,10,-1,-1,1.381,-0.138671875,-0.245117188,1,0,0,9.6211,Basalt_rect,2,9.621,1,11,0,11,0,1,,,,,,,,,,,,,
65c017a404cde4687fdad22e,TCR,2024-06-24_17h34.40.353,LearnStrategy,2023.2.3,Win32,59.88023952,1,1,13,-0.000976563,-0.002929688,1,0,0,1.68,rock_grid_rect_2,1,09,-1,-1,1.68,-0.400390625,-0.250976563,1,0,0,13.6058,Andesite_rect,1,13.606,1,12,0,12,0,1,,,,,,,,,,,,,
65c017a404cde4687fdad22e,TCR,2024-06-24_17h34.40.353,LearnStrategy,2023.2.3,Win32,59.88023952,1,1,14,0.009765625,0.004882813,1,0,0,1.4187,rock_grid_rect_2,2,05,-1,-1,1.419,-0.142578125,-0.240234375,1,0,0,3.6853,Basalt_rect,2,3.685,1,13,0,13,0,1,,,,,,,,,,,,,
65c017a404cde4687fdad22e,TCR,2024-06-24_17h34.40.353,LearnStrategy,2023.2.3,Win32,59.88023952,1,1,15,0.032226563,-0.004882813,1,0,0,1.0451,rock_grid_rect_2,5,02,-1,-1,1.045,-0.434570313,-0.412109375,1,0,0,2.4815,Obsidian_rect,5,2.481,1,14,0,14,0,1,,,,,,,,,,,,,
65c017a404cde4687fdad22e,TCR,2024-06-24_17h34.40.353,LearnStrategy,2023.2.3,Win32,59.88023952,1,1,16,0.020507813,0.002929688,1,0,0,1.2213,rock_grid_rect_2,4,10,-1,-1,1.221,-0.118164063,-0.234375,1,0,0,15.8072,Basalt_rect,2,15.807,0,15,0,15,0,1,,,,,,,,,,,,,
65c017a404cde4687fdad22e,TCR,2024-06-24_17h34.40.353,LearnStrategy,2023.2.3,Win32,59.88023952,1,2,1,,,,,,,,2,01,,,,,,,,,,,2,2.919,1,,,,,,-0.1484375,-0.2421875,1,0,0,2.9189,Basalt_rect,0,0,0,0,1,
65c017a404cde4687fdad22e,TCR,2024-06-24_17h34.40.353,LearnStrategy,2023.2.3,Win32,59.88023952,1,2,2,,,,,,,,5,05,,,,,,,,,,,5,3.139,1,,,,,,-0.388671875,-0.397460938,1,0,0,3.1388,Obsidian_rect,1,0,1,0,1,
65c017a404cde4687fdad22e,TCR,2024-06-24_17h34.40.353,LearnStrategy,2023.2.3,Win32,59.88023952,1,2,3,,,,,,,,2,12,,,,,,,,,,,8,2.951,0,,,,,,0.418945313,-0.399414063,1,0,0,2.9514,Pumice_rect,2,0,2,0,1,
65c017a404cde4687fdad22e,TCR,2024-06-24_17h34.40.353,LearnStrategy,2023.2.3,Win32,59.88023952,1,2,4,,,,,,,,1,07,,,,,,,,,,,3,8.116,0,,,,,,0.15234375,-0.258789063,1,0,0,8.1159,Diorite_rect,3,0,3,0,1,
65c017a404cde4687fdad22e,TCR,2024-06-24_17h34.40.353,LearnStrategy,2023.2.3,Win32,59.88023952,1,2,5,,,,,,,,7,15,,,,,,,,,,,6,6.315,0,,,,,,-0.123046875,-0.385742188,1,0,0,6.315,Pegmatite_rect,4,0,4,0,1,
65c017a404cde4687fdad22e,TCR,2024-06-24_17h34.40.353,LearnStrategy,2023.2.3,Win32,59.88023952,1,2,6,,,,,,,,6,12,,,,,,,,,,,3,24.802,0,,,,,,0.1171875,-0.249023438,1,0,0,24.8016,Diorite_rect,5,0,5,0,1,
65c017a404cde4687fdad22e,TCR,2024-06-24_17h34.40.353,LearnStrategy,2023.2.3,Win32,59.88023952,1,2,7,,,,,,,,5,12,,,,,,,,,,,5,2.024,1,,,,,,-0.404296875,-0.379882813,1,0,0,2.024,Obsidian_rect,6,0,6,0,1,
65c017a404cde4687fdad22e,TCR,2024-06-24_17h34.40.353,LearnStrategy,2023.2.3,Win32,59.88023952,1,2,8,,,,,,,,4,14,,,,,,,,,,,4,14.837,1,,,,,,0.424804688,-0.24609375,1,0,0,14.8366,Gabbro_rect,7,0,7,0,1,
65c017a404cde4687fdad22e,TCR,2024-06-24_17h34.40.353,LearnStrategy,2023.2.3,Win32,59.88023952,1,2,9,,,,,,,,3,08,,,,,,,,,,,1,22.875,0,,,,,,-0.381835938,-0.24609375,1,0,0,22.8745,Andesite_rect,8,0,8,0,1,
65c017a404cde4687fdad22e,TCR,2024-06-24_17h34.40.353,LearnStrategy,2023.2.3,Win32,59.88023952,1,2,10,,,,,,,,6,09,,,,,,,,,,,7,16.191,0,,,,,,0.103515625,-0.400390625,1,0,0,16.191,Peridotite_rect,9,0,9,0,1,
65c017a404cde4687fdad22e,TCR,2024-06-24_17h34.40.353,LearnStrategy,2023.2.3,Win32,59.88023952,1,2,11,,,,,,,,7,05,,,,,,,,,,,2,7.073,0,,,,,,-0.126953125,-0.254882813,1,0,0,7.0726,Basalt_rect,10,0,10,0,1,
65c017a404cde4687fdad22e,TCR,2024-06-24_17h34.40.353,LearnStrategy,2023.2.3,Win32,59.88023952,1,2,12,,,,,,,,8,13,,,,,,,,,,,8,13.587,1,,,,,,0.46484375,-0.415039063,1,0,0,13.5869,Pumice_rect,11,0,11,0,1,
65c017a404cde4687fdad22e,TCR,2024-06-24_17h34.40.353,LearnStrategy,2023.2.3,Win32,59.88023952,1,2,13,,,,,,,,4,12,,,,,,,,,,,2,4.938,0,,,,,,-0.127929688,-0.240234375,1,0,0,4.9384,Basalt_rect,12,0,12,0,1,
65c017a404cde4687fdad22e,TCR,2024-06-24_17h34.40.353,LearnStrategy,2023.2.3,Win32,59.88023952,1,2,14,,,,,,,,8,04,,,,,,,,,,,8,3.129,1,,,,,,0.35546875,-0.387695313,1,0,0,3.1292,Pumice_rect,13,0,13,0,1,
65c017a404cde4687fdad22e,TCR,2024-06-24_17h34.40.353,LearnStrategy,2023.2.3,Win32,59.88023952,1,2,15,,,,,,,,3,14,,,,,,,,,,,1,9.262,0,,,,,,-0.421875,-0.244140625,1,0,0,9.2623,Andesite_rect,14,0,14,0,1,
65c017a404cde4687fdad22e,TCR,2024-06-24_17h34.40.353,LearnStrategy,2023.2.3,Win32,59.88023952,1,2,16,,,,,,,,1,10,,,,,,,,,,,3,8.353,0,,,,,,0.158203125,-0.247070313,1,0,0,8.3526,Diorite_rect,15,0,15,0,1,
65c017a404cde4687fdad22e,TCR,2024-06-24_17h34.40.353,LearnStrategy,2023.2.3,Win32,59.88023952,2,1,1,0.015625,0.001953125,1,0,0,2.0329,rock_grid_rect_2,2,11,-1,-1,2.033,0.38671875,-0.403320313,1,0,0,3.5266,Pumice_rect,8,3.527,0,0,0,0,0,1,,,,,,,,,,,,,
65c017a404cde4687fdad22e,TCR,2024-06-24_17h34.40.353,LearnStrategy,2023.2.3,Win32,59.88023952,2,1,2,-0.037109375,-0.005859375,1,0,0,2.0448,rock_grid_rect_2,7,10,-1,-1,2.045,-0.158203125,-0.384765625,1,0,0,5.8491,Pegmatite_rect,6,5.849,0,1,0,1,0,1,,,,,,,,,,,,,
65c017a404cde4687fdad22e,TCR,2024-06-24_17h34.40.353,LearnStrategy,2023.2.3,Win32,59.88023952,2,1,3,0.045898438,0.001953125,1,0,0,6.158,rock_grid_rect_2,7,02,-1,-1,6.158,0.138671875,-0.405273438,1,0,0,9.5583,Peridotite_rect,7,9.558,1,2,0,2,0,1,,,,,,,,,,,,,
65c017a404cde4687fdad22e,TCR,2024-06-24_17h34.40.353,LearnStrategy,2023.2.3,Win32,59.88023952,2,1,4,0.005859375,0.005859375,1,0,0,1.5507,rock_grid_rect_2,2,06,-1,-1,1.551,-0.12890625,-0.249023438,1,0,0,4.2392,Basalt_rect,2,4.239,1,3,0,3,0,1,,,,,,,,,,,,,
65c017a404cde4687fdad22e,TCR,2024-06-24_17h34.40.353,LearnStrategy,2023.2.3,Win32,59.88023952,2,1,5,0.036132813,-0.012695313,1,0,0,1.1048,rock_grid_rect_2,6,10,-1,-1,1.105,-0.142578125,-0.390625,1,0,0,5.6142,Pegmatite_rect,6,5.614,1,4,0,4,0,1,,,,,,,,,,,,,
65c017a404cde4687fdad22e,TCR,2024-06-24_17h34.40.353,LearnStrategy,2023.2.3,Win32,59.88023952,2,1,6,0.018554688,0.010742188,1,0,0,1.0645,rock_grid_rect_2,1,09,-1,-1,1.064,-0.404296875,-0.23828125,1,0,0,6.2035,Andesite_rect,1,6.203,1,5,0,5,0,1,,,,,,,,,,,,,
65c017a404cde4687fdad22e,TCR,2024-06-24_17h34.40.353,LearnStrategy,2023.2.3,Win32,59.88023952,2,1,7,0.022460938,-0.00390625,1,0,0,1.2731,rock_grid_rect_2,3,07,-1,-1,1.273,0.390625,-0.258789063,1,0,0,7.8155,Gabbro_rect,4,7.815,0,6,0,6,0,1,,,,,,,,,,,,,
65c017a404cde4687fdad22e,TCR,2024-06-24_17h34.40.353,LearnStrategy,2023.2.3,Win32,59.88023952,2,1,8,-0.015625,0.002929688,1,0,0,1.4583,rock_grid_rect_2,3,16,-1,-1,1.458,0.174804688,-0.243164063,1,0,0,10.764,Diorite_rect,3,10.764,1,7,0,7,0,1,,,,,,,,,,,,,
65c017a404cde4687fdad22e,TCR,2024-06-24_17h34.40.353,LearnStrategy,2023.2.3,Win32,59.88023952,2,1,9,-0.033203125,0.000976563,1,0,0,1.1354,rock_grid_rect_2,7,02,-1,-1,1.135,0.140625,-0.396484375,1,0,0,14.4273,Peridotite_rect,7,14.427,1,8,0,8,0,1,,,,,,,,,,,,,
65c017a404cde4687fdad22e,TCR,2024-06-24_17h34.40.353,LearnStrategy,2023.2.3,Win32,59.88023952,2,1,10,-0.014648438,0.00390625,1,0,0,1.2417,rock_grid_rect_2,1,11,-1,-1,1.242,-0.408203125,-0.234375,1,0,0,9.2801,Andesite_rect,1,9.28,1,9,0,9,0,1,,,,,,,,,,,,,
65c017a404cde4687fdad22e,TCR,2024-06-24_17h34.40.353,LearnStrategy,2023.2.3,Win32,59.88023952,2,1,11,0.000976563,0.001953125,1,0,0,1.35,rock_grid_rect_2,1,09,-1,-1,1.35,0.408203125,-0.2578125,1,0,0,4.859,Gabbro_rect,4,4.859,0,10,0,10,0,1,,,,,,,,,,,,,
65c017a404cde4687fdad22e,TCR,2024-06-24_17h34.40.353,LearnStrategy,2023.2.3,Win32,59.88023952,2,1,12,0.01171875,0,1,0,0,1.4424,rock_grid_rect_2,4,10,-1,-1,1.442,-0.112304688,-0.262695313,1,0,0,8.5819,Basalt_rect,2,8.582,0,11,0,11,0,1,,,,,,,,,,,,,
65c017a404cde4687fdad22e,TCR,2024-06-24_17h34.40.353,LearnStrategy,2023.2.3,Win32,59.88023952,2,1,13,-0.030273438,-0.00390625,1,0,0,1.4205,rock_grid_rect_2,4,16,-1,-1,1.42,0.155273438,-0.234375,1,0,0,27.1991,Diorite_rect,3,27.199,0,12,0,12,0,1,,,,,,,,,,,,,
65c017a404cde4687fdad22e,TCR,2024-06-24_17h34.40.353,LearnStrategy,2023.2.3,Win32,59.88023952,2,1,14,0,0.01171875,1,0,0,1.0982,rock_grid_rect_2,6,07,-1,-1,1.098,0.14453125,-0.400390625,1,0,0,15.0747,Peridotite_rect,7,15.075,0,13,0,13,0,1,,,,,,,,,,,,,
65c017a404cde4687fdad22e,TCR,2024-06-24_17h34.40.353,LearnStrategy,2023.2.3,Win32,59.88023952,2,1,15,0.009765625,-0.004882813,1,0,0,5.6371,rock_grid_rect_2,3,12,-1,-1,5.637,0.375976563,-0.264648438,1,0,0,13.9,Gabbro_rect,4,13.9,0,14,0,14,0,1,,,,,,,,,,,,,
65c017a404cde4687fdad22e,TCR,2024-06-24_17h34.40.353,LearnStrategy,2023.2.3,Win32,59.88023952,2,1,16,-0.029296875,-0.010742188,1,0,0,1.6914,rock_grid_rect_2,6,07,-1,-1,1.691,-0.1640625,-0.404296875,1,0,0,13.0568,Pegmatite_rect,6,13.057,1,15,0,15,0,1,,,,,,,,,,,,,
65c017a404cde4687fdad22e,TCR,2024-06-24_17h34.40.353,LearnStrategy,2023.2.3,Win32,59.88023952,2,2,1,,,,,,,,6,16,,,,,,,,,,,3,12.124,0,,,,,,0.129882813,-0.24609375,1,0,0,12.1238,Diorite_rect,0,0,0,0,1,
65c017a404cde4687fdad22e,TCR,2024-06-24_17h34.40.353,LearnStrategy,2023.2.3,Win32,59.88023952,2,2,2,,,,,,,,7,04,,,,,,,,,,,4,12.208,0,,,,,,0.377929688,-0.247070313,1,0,0,12.2081,Gabbro_rect,1,0,1,0,1,
65c017a404cde4687fdad22e,TCR,2024-06-24_17h34.40.353,LearnStrategy,2023.2.3,Win32,59.88023952,2,2,3,,,,,,,,4,13,,,,,,,,,,,3,18.836,0,,,,,,0.11328125,-0.241210938,1,0,0,18.8356,Diorite_rect,2,0,2,0,1,
65c017a404cde4687fdad22e,TCR,2024-06-24_17h34.40.353,LearnStrategy,2023.2.3,Win32,59.88023952,2,2,4,,,,,,,,3,09,,,,,,,,,,,4,17.566,0,,,,,,0.4140625,-0.245117188,1,0,0,17.5656,Gabbro_rect,3,0,3,0,1,
65c017a404cde4687fdad22e,TCR,2024-06-24_17h34.40.353,LearnStrategy,2023.2.3,Win32,59.88023952,2,2,5,,,,,,,,1,05,,,,,,,,,,,4,6.672,0,,,,,,0.366210938,-0.245117188,1,0,0,6.6718,Gabbro_rect,4,0,4,0,1,
65c017a404cde4687fdad22e,TCR,2024-06-24_17h34.40.353,LearnStrategy,2023.2.3,Win32,59.88023952,2,2,6,,,,,,,,5,16,,,,,,,,,,,5,2.136,1,,,,,,-0.388671875,-0.396484375,1,0,0,2.1356,Obsidian_rect,5,0,5,0,1,
65c017a404cde4687fdad22e,TCR,2024-06-24_17h34.40.353,LearnStrategy,2023.2.3,Win32,59.88023952,2,2,7,,,,,,,,8,02,,,,,,,,,,,8,1.619,1,,,,,,0.373046875,-0.408203125,1,0,0,1.6191,Pumice_rect,6,0,6,0,1,
65c017a404cde4687fdad22e,TCR,2024-06-24_17h34.40.353,LearnStrategy,2023.2.3,Win32,59.88023952,2,2,8,,,,,,,,4,05,,,,,,,,,,,6,5.24,0,,,,,,-0.102539063,-0.400390625,1,0,0,5.24,Pegmatite_rect,7,0,7,0,1,
65c017a404cde4687fdad22e,TCR,2024-06-24_17h34.40.353,LearnStrategy,2023.2.3,Win32,59.88023952,2,2,9,,,,,,,,2,08,,,,,,,,,,,2,1.854,1,,,,,,-0.135742188,-0.248046875,1,0,0,1.854,Basalt_rect,8,0,8,0,1,
65c017a404cde4687fdad22e,TCR,2024-06-24_17h34.40.353,LearnStrategy,2023.2.3,Win32,59.88023952,2,2,10,,,,,,,,1,03,,,,,,,,,,,4,6.822,0,,,,,,0.373046875,-0.236328125,1,0,0,6.8219,Gabbro_rect,9,0,9,0,1,
65c017a404cde4687fdad22e,TCR,2024-06-24_17h34.40.353,LearnStrategy,2023.2.3,Win32,59.88023952,2,2,11,,,,,,,,6,15,,,,,,,,,,,7,14.937,0,,,,,,0.115234375,-0.385742188,1,0,0,14.9367,Peridotite_rect,10,0,10,0,1,
65c017a404cde4687fdad22e,TCR,2024-06-24_17h34.40.353,LearnStrategy,2023.2.3,Win32,59.88023952,2,2,12,,,,,,,,8,10,,,,,,,,,,,8,1.356,1,,,,,,0.387695313,-0.399414063,1,0,0,1.3561,Pumice_rect,11,0,11,0,1,
65c017a404cde4687fdad22e,TCR,2024-06-24_17h34.40.353,LearnStrategy,2023.2.3,Win32,59.88023952,2,2,13,,,,,,,,3,02,,,,,,,,,,,4,6.091,0,,,,,,0.412109375,-0.250976563,1,0,0,6.0912,Gabbro_rect,12,0,12,0,1,
65c017a404cde4687fdad22e,TCR,2024-06-24_17h34.40.353,LearnStrategy,2023.2.3,Win32,59.88023952,2,2,14,,,,,,,,7,06,,,,,,,,,,,7,9.624,1,,,,,,0.137695313,-0.40625,1,0,0,9.6237,Peridotite_rect,13,0,13,0,1,
65c017a404cde4687fdad22e,TCR,2024-06-24_17h34.40.353,LearnStrategy,2023.2.3,Win32,59.88023952,2,2,15,,,,,,,,5,04,,,,,,,,,,,5,16.364,1,,,,,,-0.442382813,-0.391601563,1,0,0,16.3636,Obsidian_rect,14,0,14,0,1,
65c017a404cde4687fdad22e,TCR,2024-06-24_17h34.40.353,LearnStrategy,2023.2.3,Win32,59.88023952,2,2,16,,,,,,,,2,04,,,,,,,,,,,2,3.18,1,,,,,,-0.157226563,-0.248046875,1,0,0,3.1805,Basalt_rect,15,0,15,0,1,
65c017a404cde4687fdad22e,TCR,2024-06-24_17h34.40.353,LearnStrategy,2023.2.3,Win32,59.88023952,3,1,1,0.037109375,0.008789063,1,0,0,1.8383,rock_grid_rect_2,3,07,-1,-1,1.838,0.428710938,-0.229492188,1,0,0,5.6374,Gabbro_rect,4,5.637,0,0,0,0,0,1,,,,,,,,,,,,,
65c017a404cde4687fdad22e,TCR,2024-06-24_17h34.40.353,LearnStrategy,2023.2.3,Win32,59.88023952,3,1,2,0.022460938,-0.006835938,1,0,0,18.3524,rock_grid_rect_2,1,09,-1,-1,18.352,0.369140625,-0.237304688,1,0,0,4.3146,Gabbro_rect,4,4.315,0,1,0,1,0,1,,,,,,,,,,,,,
65c017a404cde4687fdad22e,TCR,2024-06-24_17h34.40.353,LearnStrategy,2023.2.3,Win32,59.88023952,3,1,3,-0.03515625,0,1,0,0,1.3183,rock_grid_rect_2,6,06,-1,-1,1.318,-0.133789063,-0.392578125,1,0,0,13.5244,Pegmatite_rect,6,13.524,1,2,0,2,0,1,,,,,,,,,,,,,
65c017a404cde4687fdad22e,TCR,2024-06-24_17h34.40.353,LearnStrategy,2023.2.3,Win32,59.88023952,3,1,4,0.016601563,0.000976563,1,0,0,1.0684,rock_grid_rect_2,7,14,-1,-1,1.068,0.14453125,-0.404296875,1,0,0,8.1861,Peridotite_rect,7,8.186,1,3,0,3,0,1,,,,,,,,,,,,,
65c017a404cde4687fdad22e,TCR,2024-06-24_17h34.40.353,LearnStrategy,2023.2.3,Win32,59.88023952,3,1,5,0.0078125,0.001953125,1,0,0,1.1834,rock_grid_rect_2,6,07,-1,-1,1.183,0.100585938,-0.411132813,1,0,0,18.991,Peridotite_rect,7,18.991,0,4,0,4,0,1,,,,,,,,,,,,,
65c017a404cde4687fdad22e,TCR,2024-06-24_17h34.40.353,LearnStrategy,2023.2.3,Win32,59.88023952,3,1,6,0.005859375,0.004882813,1,0,0,2.0863,rock_grid_rect_2,3,06,-1,-1,2.086,0.392578125,-0.2421875,1,0,0,10.2316,Gabbro_rect,4,10.232,0,5,0,5,0,1,,,,,,,,,,,,,
65c017a404cde4687fdad22e,TCR,2024-06-24_17h34.40.353,LearnStrategy,2023.2.3,Win32,59.88023952,3,1,7,0.028320313,0.006835938,1,0,0,1.2733,rock_grid_rect_2,4,16,-1,-1,1.273,-0.134765625,-0.240234375,1,0,0,7.7631,Basalt_rect,2,7.763,0,6,0,6,0,1,,,,,,,,,,,,,
65c017a404cde4687fdad22e,TCR,2024-06-24_17h34.40.353,LearnStrategy,2023.2.3,Win32,59.88023952,3,1,8,0.012695313,-0.001953125,1,0,0,1.1072,rock_grid_rect_2,1,16,-1,-1,1.107,0.153320313,-0.252929688,1,0,0,6.9692,Diorite_rect,3,6.969,0,7,0,7,0,1,,,,,,,,,,,,,
65c017a404cde4687fdad22e,TCR,2024-06-24_17h34.40.353,LearnStrategy,2023.2.3,Win32,59.88023952,3,1,9,0.015625,0.004882813,1,0,0,1.1763,rock_grid_rect_2,7,02,-1,-1,1.176,0.13671875,-0.404296875,1,0,0,7.4934,Peridotite_rect,7,7.493,1,8,0,8,0,1,,,,,,,,,,,,,
65c017a404cde4687fdad22e,TCR,2024-06-24_17h34.40.353,LearnStrategy,2023.2.3,Win32,59.88023952,3,1,10,-0.001953125,0,1,0,0,1.1849,rock_grid_rect_2,8,08,-1,-1,1.185,0.384765625,-0.397460938,1,0,0,4.3205,Pumice_rect,8,4.321,1,9,0,9,0,1,,,,,,,,,,,,,
65c017a404cde4687fdad22e,TCR,2024-06-24_17h34.40.353,LearnStrategy,2023.2.3,Win32,59.88023952,3,1,11,-0.017578125,-0.008789063,1,0,0,1.1452,rock_grid_rect_2,4,16,-1,-1,1.145,0.151367188,-0.25,1,0,0,12.0077,Diorite_rect,3,12.008,0,10,0,10,0,1,,,,,,,,,,,,,
65c017a404cde4687fdad22e,TCR,2024-06-24_17h34.40.353,LearnStrategy,2023.2.3,Win32,59.88023952,3,1,12,0.015625,0.01171875,1,0,0,1.3184,rock_grid_rect_2,1,09,-1,-1,1.318,-0.380859375,-0.25390625,1,0,0,4.7094,Andesite_rect,1,4.709,1,11,0,11,0,1,,,,,,,,,,,,,
65c017a404cde4687fdad22e,TCR,2024-06-24_17h34.40.353,LearnStrategy,2023.2.3,Win32,59.88023952,3,1,13,0.001953125,-0.000976563,1,0,0,0.9245,rock_grid_rect_2,6,08,-1,-1,0.925,0.153320313,-0.407226563,1,0,0,10.5324,Peridotite_rect,7,10.532,0,12,0,12,0,1,,,,,,,,,,,,,
65c017a404cde4687fdad22e,TCR,2024-06-24_17h34.40.353,LearnStrategy,2023.2.3,Win32,59.88023952,3,1,14,-0.02734375,-0.005859375,1,0,0,1.0591,rock_grid_rect_2,4,10,-1,-1,1.059,0.16015625,-0.245117188,1,0,0,7.4268,Diorite_rect,3,7.427,0,13,0,13,0,1,,,,,,,,,,,,,
65c017a404cde4687fdad22e,TCR,2024-06-24_17h34.40.353,LearnStrategy,2023.2.3,Win32,59.88023952,3,1,15,0.01171875,-0.004882813,1,0,0,1.3467,rock_grid_rect_2,2,06,-1,-1,1.347,-0.126953125,-0.267578125,1,0,0,2.0215,Basalt_rect,2,2.022,1,14,0,14,0,1,,,,,,,,,,,,,
65c017a404cde4687fdad22e,TCR,2024-06-24_17h34.40.353,LearnStrategy,2023.2.3,Win32,59.88023952,3,1,16,0.032226563,-0.000976563,1,0,0,1.0269,rock_grid_rect_2,3,11,-1,-1,1.027,0.181640625,-0.241210938,1,0,0,5.5252,Diorite_rect,3,5.525,1,15,0,15,0,1,,,,,,,,,,,,,
65c017a404cde4687fdad22e,TCR,2024-06-24_17h34.40.353,LearnStrategy,2023.2.3,Win32,59.88023952,3,2,1,,,,,,,,8,16,,,,,,,,,,,8,1.671,1,,,,,,0.348632813,-0.401367188,1,0,0,1.671,Pumice_rect,0,0,0,0,1,
65c017a404cde4687fdad22e,TCR,2024-06-24_17h34.40.353,LearnStrategy,2023.2.3,Win32,59.88023952,3,2,2,,,,,,,,6,11,,,,,,,,,,,6,6.068,1,,,,,,-0.143554688,-0.384765625,1,0,0,6.0677,Pegmatite_rect,1,0,1,0,1,
65c017a404cde4687fdad22e,TCR,2024-06-24_17h34.40.353,LearnStrategy,2023.2.3,Win32,59.88023952,3,2,3,,,,,,,,3,13,,,,,,,,,,,3,7.039,1,,,,,,0.142578125,-0.259765625,1,0,0,7.0388,Diorite_rect,2,0,2,0,1,
65c017a404cde4687fdad22e,TCR,2024-06-24_17h34.40.353,LearnStrategy,2023.2.3,Win32,59.88023952,3,2,4,,,,,,,,2,16,,,,,,,,,,,4,4.643,0,,,,,,0.376953125,-0.244140625,1,0,0,4.6428,Gabbro_rect,3,0,3,0,1,
65c017a404cde4687fdad22e,TCR,2024-06-24_17h34.40.353,LearnStrategy,2023.2.3,Win32,59.88023952,3,2,5,,,,,,,,5,14,,,,,,,,,,,5,1.994,1,,,,,,-0.37109375,-0.395507813,1,0,0,1.9936,Obsidian_rect,4,0,4,0,1,
65c017a404cde4687fdad22e,TCR,2024-06-24_17h34.40.353,LearnStrategy,2023.2.3,Win32,59.88023952,3,2,6,,,,,,,,6,05,,,,,,,,,,,3,7.589,0,,,,,,0.120117188,-0.259765625,1,0,0,7.5888,Diorite_rect,5,0,5,0,1,
65c017a404cde4687fdad22e,TCR,2024-06-24_17h34.40.353,LearnStrategy,2023.2.3,Win32,59.88023952,3,2,7,,,,,,,,5,10,,,,,,,,,,,5,1.674,1,,,,,,-0.370117188,-0.384765625,1,0,0,1.6737,Obsidian_rect,6,0,6,0,1,
65c017a404cde4687fdad22e,TCR,2024-06-24_17h34.40.353,LearnStrategy,2023.2.3,Win32,59.88023952,3,2,8,,,,,,,,8,09,,,,,,,,,,,8,1.523,1,,,,,,0.415039063,-0.3828125,1,0,0,1.5233,Pumice_rect,7,0,7,0,1,
65c017a404cde4687fdad22e,TCR,2024-06-24_17h34.40.353,LearnStrategy,2023.2.3,Win32,59.88023952,3,2,9,,,,,,,,7,08,,,,,,,,,,,6,11.068,0,,,,,,-0.109375,-0.401367188,1,0,0,11.0684,Pegmatite_rect,8,0,8,0,1,
65c017a404cde4687fdad22e,TCR,2024-06-24_17h34.40.353,LearnStrategy,2023.2.3,Win32,59.88023952,3,2,10,,,,,,,,4,09,,,,,,,,,,,3,4.775,0,,,,,,0.112304688,-0.25390625,1,0,0,4.7751,Diorite_rect,9,0,9,0,1,
65c017a404cde4687fdad22e,TCR,2024-06-24_17h34.40.353,LearnStrategy,2023.2.3,Win32,59.88023952,3,2,11,,,,,,,,2,02,,,,,,,,,,,4,7.207,0,,,,,,0.373046875,-0.252929688,1,0,0,7.2073,Gabbro_rect,10,0,10,0,1,
65c017a404cde4687fdad22e,TCR,2024-06-24_17h34.40.353,LearnStrategy,2023.2.3,Win32,59.88023952,3,2,12,,,,,,,,3,10,,,,,,,,,,,4,5.071,0,,,,,,0.419921875,-0.250976563,1,0,0,5.071,Gabbro_rect,11,0,11,0,1,
65c017a404cde4687fdad22e,TCR,2024-06-24_17h34.40.353,LearnStrategy,2023.2.3,Win32,59.88023952,3,2,13,,,,,,,,7,13,,,,,,,,,,,7,11.738,1,,,,,,0.109375,-0.409179688,1,0,0,11.7379,Peridotite_rect,12,0,12,0,1,
65c017a404cde4687fdad22e,TCR,2024-06-24_17h34.40.353,LearnStrategy,2023.2.3,Win32,59.88023952,3,2,14,,,,,,,,1,14,,,,,,,,,,,1,8.85,1,,,,,,-0.387695313,-0.236328125,1,0,0,8.85,Andesite_rect,13,0,13,0,1,
65c017a404cde4687fdad22e,TCR,2024-06-24_17h34.40.353,LearnStrategy,2023.2.3,Win32,59.88023952,3,2,15,,,,,,,,4,01,,,,,,,,,,,4,12.41,1,,,,,,0.462890625,-0.241210938,1,0,0,12.4104,Gabbro_rect,14,0,14,0,1,
65c017a404cde4687fdad22e,TCR,2024-06-24_17h34.40.353,LearnStrategy,2023.2.3,Win32,59.88023952,3,2,16,,,,,,,,1,06,,,,,,,,,,,1,5.744,1,,,,,,-0.415039063,-0.244140625,1,0,0,5.7438,Andesite_rect,15,0,15,0,1,
65c017a404cde4687fdad22e,TCR,2024-06-24_17h34.40.353,LearnStrategy,2023.2.3,Win32,59.88023952,4,1,1,-0.0078125,0.008789063,1,0,0,2.0011,rock_grid_rect_2,1,16,-1,-1,2.001,-0.391601563,-0.235351563,1,0,0,4.7865,Andesite_rect,1,4.786,1,0,0,0,0,1,,,,,,,,,,,,,
65c017a404cde4687fdad22e,TCR,2024-06-24_17h34.40.353,LearnStrategy,2023.2.3,Win32,59.88023952,4,1,2,0.01953125,0.001953125,1,0,0,1.2728,rock_grid_rect_2,6,06,-1,-1,1.273,-0.133789063,-0.3984375,1,0,0,13.1927,Pegmatite_rect,6,13.193,1,1,0,1,0,1,,,,,,,,,,,,,
65c017a404cde4687fdad22e,TCR,2024-06-24_17h34.40.353,LearnStrategy,2023.2.3,Win32,59.88023952,4,1,3,0.029296875,0.002929688,1,0,0,1.0996,rock_grid_rect_2,3,15,-1,-1,1.1,0.401367188,-0.247070313,1,0,0,12.4817,Gabbro_rect,4,12.482,0,2,0,2,0,1,,,,,,,,,,,,,
65c017a404cde4687fdad22e,TCR,2024-06-24_17h34.40.353,LearnStrategy,2023.2.3,Win32,59.88023952,4,1,4,-0.006835938,-0.001953125,1,0,0,1.1079,rock_grid_rect_2,1,04,-1,-1,1.108,-0.400390625,-0.229492188,1,0,0,11.4957,Andesite_rect,1,11.496,1,3,0,3,0,1,,,,,,,,,,,,,
65c017a404cde4687fdad22e,TCR,2024-06-24_17h34.40.353,LearnStrategy,2023.2.3,Win32,59.88023952,4,1,5,0.009765625,-0.004882813,1,0,0,1.1041,rock_grid_rect_2,3,12,-1,-1,1.104,0.140625,-0.245117188,1,0,0,7.3786,Diorite_rect,3,7.379,1,4,0,4,0,1,,,,,,,,,,,,,
65c017a404cde4687fdad22e,TCR,2024-06-24_17h34.40.353,LearnStrategy,2023.2.3,Win32,59.88023952,4,1,6,0.004882813,0.013671875,1,0,0,0.9887,rock_grid_rect_2,6,08,-1,-1,0.989,0.129882813,-0.408203125,1,0,0,9.208,Peridotite_rect,7,9.208,0,5,0,5,0,1,,,,,,,,,,,,,
65c017a404cde4687fdad22e,TCR,2024-06-24_17h34.40.353,LearnStrategy,2023.2.3,Win32,59.88023952,4,1,7,0.000976563,0.010742188,1,0,0,2.6368,rock_grid_rect_2,8,06,-1,-1,2.637,0.361328125,-0.397460938,1,0,0,1.4316,Pumice_rect,8,1.432,1,6,0,6,0,1,,,,,,,,,,,,,
65c017a404cde4687fdad22e,TCR,2024-06-24_17h34.40.353,LearnStrategy,2023.2.3,Win32,59.88023952,4,1,8,0.015625,0.001953125,1,0,0,0.9602,rock_grid_rect_2,6,10,-1,-1,0.96,-0.153320313,-0.399414063,1,0,0,6.512,Pegmatite_rect,6,6.512,1,7,0,7,0,1,,,,,,,,,,,,,
65c017a404cde4687fdad22e,TCR,2024-06-24_17h34.40.353,LearnStrategy,2023.2.3,Win32,59.88023952,4,1,9,0.017578125,-0.0078125,1,0,0,1.1343,rock_grid_rect_2,2,09,-1,-1,1.134,0.395507813,-0.266601563,1,0,0,10.0582,Gabbro_rect,4,10.058,0,8,0,8,0,1,,,,,,,,,,,,,
65c017a404cde4687fdad22e,TCR,2024-06-24_17h34.40.353,LearnStrategy,2023.2.3,Win32,59.88023952,4,1,10,-0.005859375,-0.001953125,1,0,0,1.1185,rock_grid_rect_2,7,10,-1,-1,1.119,0.127929688,-0.4140625,1,0,0,5.5282,Peridotite_rect,7,5.528,1,9,0,9,0,1,,,,,,,,,,,,,
65c017a404cde4687fdad22e,TCR,2024-06-24_17h34.40.353,LearnStrategy,2023.2.3,Win32,59.88023952,4,1,11,0,-0.000976563,1,0,0,1.2501,rock_grid_rect_2,7,02,-1,-1,1.25,0.094726563,-0.407226563,1,0,0,8.9226,Peridotite_rect,7,8.923,1,10,0,10,0,1,,,,,,,,,,,,,
65c017a404cde4687fdad22e,TCR,2024-06-24_17h34.40.353,LearnStrategy,2023.2.3,Win32,59.88023952,4,1,12,0.033203125,-0.002929688,1,0,0,1.0146,rock_grid_rect_2,4,16,-1,-1,1.015,-0.142578125,-0.236328125,1,0,0,3.9039,Basalt_rect,2,3.904,0,11,0,11,0,1,,,,,,,,,,,,,
65c017a404cde4687fdad22e,TCR,2024-06-24_17h34.40.353,LearnStrategy,2023.2.3,Win32,59.88023952,4,1,13,-0.012695313,0.006835938,1,0,0,1.1685,rock_grid_rect_2,2,06,-1,-1,1.168,-0.095703125,-0.237304688,1,0,0,1.5296,Basalt_rect,2,1.53,1,12,0,12,0,1,,,,,,,,,,,,,
65c017a404cde4687fdad22e,TCR,2024-06-24_17h34.40.353,LearnStrategy,2023.2.3,Win32,59.88023952,4,1,14,0.002929688,-0.005859375,1,0,0,1.0568,rock_grid_rect_2,4,08,-1,-1,1.057,-0.092773438,-0.24609375,1,0,0,12.8344,Basalt_rect,2,12.834,0,13,0,13,0,1,,,,,,,,,,,,,
65c017a404cde4687fdad22e,TCR,2024-06-24_17h34.40.353,LearnStrategy,2023.2.3,Win32,59.88023952,4,1,15,0.0234375,0.01171875,1,0,0,1.4106,rock_grid_rect_2,3,12,-1,-1,1.411,0.114257813,-0.249023438,1,0,0,8.9643,Diorite_rect,3,8.964,1,14,0,14,0,1,,,,,,,,,,,,,
65c017a404cde4687fdad22e,TCR,2024-06-24_17h34.40.353,LearnStrategy,2023.2.3,Win32,59.88023952,4,1,16,0.016601563,-0.006835938,1,0,0,1.0959,rock_grid_rect_2,4,11,-1,-1,1.096,0.393554688,-0.229492188,1,0,0,12.6898,Gabbro_rect,4,12.69,1,15,0,15,0,1,,,,,,,,,,,,,
65c017a404cde4687fdad22e,TCR,2024-06-24_17h34.40.353,LearnStrategy,2023.2.3,Win32,59.88023952,4,2,1,,,,,,,,3,14,,,,,,,,,,,3,5.322,1,,,,,,0.110351563,-0.240234375,1,0,0,5.3218,Diorite_rect,0,0,0,0,1,
65c017a404cde4687fdad22e,TCR,2024-06-24_17h34.40.353,LearnStrategy,2023.2.3,Win32,59.88023952,4,2,2,,,,,,,,4,13,,,,,,,,,,,3,7.125,0,,,,,,0.129882813,-0.239257813,1,0,0,7.1251,Diorite_rect,1,0,1,0,1,
65c017a404cde4687fdad22e,TCR,2024-06-24_17h34.40.353,LearnStrategy,2023.2.3,Win32,59.88023952,4,2,3,,,,,,,,7,05,,,,,,,,,,,7,14.858,1,,,,,,0.119140625,-0.408203125,1,0,0,14.8579,Peridotite_rect,2,0,2,0,1,
65c017a404cde4687fdad22e,TCR,2024-06-24_17h34.40.353,LearnStrategy,2023.2.3,Win32,59.88023952,4,2,4,,,,,,,,1,05,,,,,,,,,,,4,16.368,0,,,,,,0.365234375,-0.231445313,1,0,0,16.3678,Gabbro_rect,3,0,3,0,1,
65c017a404cde4687fdad22e,TCR,2024-06-24_17h34.40.353,LearnStrategy,2023.2.3,Win32,59.88023952,4,2,5,,,,,,,,2,16,,,,,,,,,,,4,9.423,0,,,,,,0.376953125,-0.23828125,1,0,0,9.4229,Gabbro_rect,4,0,4,0,1,
65c017a404cde4687fdad22e,TCR,2024-06-24_17h34.40.353,LearnStrategy,2023.2.3,Win32,59.88023952,4,2,6,,,,,,,,8,09,,,,,,,,,,,8,1.487,1,,,,,,0.375976563,-0.413085938,1,0,0,1.4867,Pumice_rect,5,0,5,0,1,
65c017a404cde4687fdad22e,TCR,2024-06-24_17h34.40.353,LearnStrategy,2023.2.3,Win32,59.88023952,4,2,7,,,,,,,,5,12,,,,,,,,,,,5,1.367,1,,,,,,-0.369140625,-0.40625,1,0,0,1.3668,Obsidian_rect,6,0,6,0,1,
65c017a404cde4687fdad22e,TCR,2024-06-24_17h34.40.353,LearnStrategy,2023.2.3,Win32,59.88023952,4,2,8,,,,,,,,1,03,,,,,,,,,,,1,8.661,1,,,,,,-0.401367188,-0.229492188,1,0,0,8.6609,Andesite_rect,7,0,7,0,1,
65c017a404cde4687fdad22e,TCR,2024-06-24_17h34.40.353,LearnStrategy,2023.2.3,Win32,59.88023952,4,2,9,,,,,,,,6,15,,,,,,,,,,,6,6.246,1,,,,,,-0.084960938,-0.395507813,1,0,0,6.2465,Pegmatite_rect,8,0,8,0,1,
65c017a404cde4687fdad22e,TCR,2024-06-24_17h34.40.353,LearnStrategy,2023.2.3,Win32,59.88023952,4,2,10,,,,,,,,2,04,,,,,,,,,,,2,2.314,1,,,,,,-0.111328125,-0.244140625,1,0,0,2.314,Basalt_rect,9,0,9,0,1,
65c017a404cde4687fdad22e,TCR,2024-06-24_17h34.40.353,LearnStrategy,2023.2.3,Win32,59.88023952,4,2,11,,,,,,,,4,12,,,,,,,,,,,3,12.25,0,,,,,,0.141601563,-0.2578125,1,0,0,12.2499,Diorite_rect,10,0,10,0,1,
65c017a404cde4687fdad22e,TCR,2024-06-24_17h34.40.353,LearnStrategy,2023.2.3,Win32,59.88023952,4,2,12,,,,,,,,3,02,,,,,,,,,,,3,21.385,1,,,,,,0.147460938,-0.2578125,1,0,0,21.3851,Diorite_rect,11,0,11,0,1,
65c017a404cde4687fdad22e,TCR,2024-06-24_17h34.40.353,LearnStrategy,2023.2.3,Win32,59.88023952,4,2,13,,,,,,,,7,06,,,,,,,,,,,7,4.621,1,,,,,,0.103515625,-0.41796875,1,0,0,4.6206,Peridotite_rect,12,0,12,0,1,
65c017a404cde4687fdad22e,TCR,2024-06-24_17h34.40.353,LearnStrategy,2023.2.3,Win32,59.88023952,4,2,14,,,,,,,,5,05,,,,,,,,,,,5,3.407,1,,,,,,-0.35546875,-0.395507813,1,0,0,3.407,Obsidian_rect,13,0,13,0,1,
65c017a404cde4687fdad22e,TCR,2024-06-24_17h34.40.353,LearnStrategy,2023.2.3,Win32,59.88023952,4,2,15,,,,,,,,8,10,,,,,,,,,,,8,1.429,1,,,,,,0.379882813,-0.399414063,1,0,0,1.4292,Pumice_rect,14,0,14,0,1,
65c017a404cde4687fdad22e,TCR,2024-06-24_17h34.40.353,LearnStrategy,2023.2.3,Win32,59.88023952,4,2,16,,,,,,,,6,16,,,,,,,,,,,3,6.912,0,,,,,,0.1796875,-0.259765625,1,0,0,6.9121,Diorite_rect,15,0,15,0,1,
65c017a404cde4687fdad22e,TCR,2024-06-24_17h34.40.353,LearnStrategy,2023.2.3,Win32,59.88023952,5,1,1,-0.00390625,0.000976563,1,0,0,1.7328,rock_grid_rect_2,6,08,-1,-1,1.733,-0.123046875,-0.397460938,1,0,0,5.8942,Pegmatite_rect,6,5.894,1,0,0,0,0,1,,,,,,,,,,,,,
65c017a404cde4687fdad22e,TCR,2024-06-24_17h34.40.353,LearnStrategy,2023.2.3,Win32,59.88023952,5,1,2,-0.015625,0.014648438,1,0,0,1.1153,rock_grid_rect_2,4,08,-1,-1,1.115,0.130859375,-0.244140625,1,0,0,4.4444,Diorite_rect,3,4.444,0,1,0,1,0,1,,,,,,,,,,,,,
65c017a404cde4687fdad22e,TCR,2024-06-24_17h34.40.353,LearnStrategy,2023.2.3,Win32,59.88023952,5,1,3,0.022460938,-0.014648438,1,0,0,16.2669,rock_grid_rect_2,3,07,-1,-1,16.267,0.163085938,-0.251953125,1,0,0,9.7794,Diorite_rect,3,9.779,1,2,0,2,0,1,,,,,,,,,,,,,
65c017a404cde4687fdad22e,TCR,2024-06-24_17h34.40.353,LearnStrategy,2023.2.3,Win32,59.88023952,5,1,4,-0.004882813,0,1,0,0,1.5731,rock_grid_rect_2,1,16,-1,-1,1.573,-0.424804688,-0.241210938,1,0,0,6.1752,Andesite_rect,1,6.175,1,3,0,3,0,1,,,,,,,,,,,,,
65c017a404cde4687fdad22e,TCR,2024-06-24_17h34.40.353,LearnStrategy,2023.2.3,Win32,59.88023952,5,1,5,0.001953125,-0.002929688,1,0,0,2.1766,rock_grid_rect_2,8,14,-1,-1,2.177,0.392578125,-0.407226563,1,0,0,1.5655,Pumice_rect,8,1.566,1,4,0,4,0,1,,,,,,,,,,,,,
65c017a404cde4687fdad22e,TCR,2024-06-24_17h34.40.353,LearnStrategy,2023.2.3,Win32,59.88023952,5,1,6,0.03125,-0.006835938,1,0,0,0.894,rock_grid_rect_2,1,02,-1,-1,0.894,-0.366210938,-0.249023438,1,0,0,12.0262,Andesite_rect,1,12.026,1,5,0,5,0,1,,,,,,,,,,,,,
65c017a404cde4687fdad22e,TCR,2024-06-24_17h34.40.353,LearnStrategy,2023.2.3,Win32,59.88023952,5,1,7,0.015625,-0.004882813,1,0,0,1.4603,rock_grid_rect_2,6,07,-1,-1,1.46,0.142578125,-0.400390625,1,0,0,4.2081,Peridotite_rect,7,4.208,0,6,0,6,0,1,,,,,,,,,,,,,
65c017a404cde4687fdad22e,TCR,2024-06-24_17h34.40.353,LearnStrategy,2023.2.3,Win32,59.88023952,5,1,8,0.001953125,0.008789063,1,0,0,1.154,rock_grid_rect_2,7,16,-1,-1,1.154,0.133789063,-0.408203125,1,0,0,5.3983,Peridotite_rect,7,5.398,1,7,0,7,0,1,,,,,,,,,,,,,
65c017a404cde4687fdad22e,TCR,2024-06-24_17h34.40.353,LearnStrategy,2023.2.3,Win32,59.88023952,5,1,9,-0.022460938,-0.005859375,1,0,0,1.0198,rock_grid_rect_2,4,10,-1,-1,1.02,0.411132813,-0.24609375,1,0,0,9.6903,Gabbro_rect,4,9.69,1,8,0,8,0,1,,,,,,,,,,,,,
65c017a404cde4687fdad22e,TCR,2024-06-24_17h34.40.353,LearnStrategy,2023.2.3,Win32,59.88023952,5,1,10,0.014648438,-0.001953125,1,0,0,1.0106,rock_grid_rect_2,4,10,-1,-1,1.011,0.37890625,-0.263671875,1,0,0,2.3808,Gabbro_rect,4,2.381,1,9,0,9,0,1,,,,,,,,,,,,,
65c017a404cde4687fdad22e,TCR,2024-06-24_17h34.40.353,LearnStrategy,2023.2.3,Win32,59.88023952,5,1,11,0.00390625,-0.005859375,1,0,0,1.2012,rock_grid_rect_2,2,10,-1,-1,1.201,-0.125976563,-0.241210938,1,0,0,5.9726,Basalt_rect,2,5.973,1,10,0,10,0,1,,,,,,,,,,,,,
65c017a404cde4687fdad22e,TCR,2024-06-24_17h34.40.353,LearnStrategy,2023.2.3,Win32,59.88023952,5,1,12,0.012695313,0.00390625,1,0,0,1.3992,rock_grid_rect_2,3,15,-1,-1,1.399,0.15234375,-0.2421875,1,0,0,10.5258,Diorite_rect,3,10.526,1,11,0,11,0,1,,,,,,,,,,,,,
65c017a404cde4687fdad22e,TCR,2024-06-24_17h34.40.353,LearnStrategy,2023.2.3,Win32,59.88023952,5,1,13,-0.033203125,0.006835938,1,0,0,1.1205,rock_grid_rect_2,7,02,-1,-1,1.12,0.11328125,-0.41015625,1,0,0,6.0882,Peridotite_rect,7,6.088,1,12,0,12,0,1,,,,,,,,,,,,,
65c017a404cde4687fdad22e,TCR,2024-06-24_17h34.40.353,LearnStrategy,2023.2.3,Win32,59.88023952,5,1,14,-0.013671875,0.000976563,1,0,0,1.3248,rock_grid_rect_2,2,09,-1,-1,1.325,0.436523438,-0.25,1,0,0,12.5219,Gabbro_rect,4,12.522,0,13,0,13,0,1,,,,,,,,,,,,,
65c017a404cde4687fdad22e,TCR,2024-06-24_17h34.40.353,LearnStrategy,2023.2.3,Win32,59.88023952,5,1,15,-0.006835938,-0.004882813,1,0,0,1.1762,rock_grid_rect_2,4,10,-1,-1,1.176,0.350585938,-0.2421875,1,0,0,7.2988,Gabbro_rect,4,7.299,1,14,0,14,0,1,,,,,,,,,,,,,
65c017a404cde4687fdad22e,TCR,2024-06-24_17h34.40.353,LearnStrategy,2023.2.3,Win32,59.88023952,5,1,16,0.014648438,0.002929688,1,0,0,1.0411,rock_grid_rect_2,6,08,-1,-1,1.041,-0.147460938,-0.38671875,1,0,0,7.3644,Pegmatite_rect,6,7.364,1,15,0,15,0,1,,,,,,,,,,,,,
65c017a404cde4687fdad22e,TCR,2024-06-24_17h34.40.353,LearnStrategy,2023.2.3,Win32,59.88023952,5,2,1,,,,,,,,3,13,,,,,,,,,,,3,16.075,1,,,,,,0.126953125,-0.260742188,1,0,0,16.0746,Diorite_rect,0,0,0,0,1,
65c017a404cde4687fdad22e,TCR,2024-06-24_17h34.40.353,LearnStrategy,2023.2.3,Win32,59.88023952,5,2,2,,,,,,,,3,09,,,,,,,,,,,3,4.029,1,,,,,,0.124023438,-0.25,1,0,0,4.0295,Diorite_rect,1,0,1,0,1,
65c017a404cde4687fdad22e,TCR,2024-06-24_17h34.40.353,LearnStrategy,2023.2.3,Win32,59.88023952,5,2,3,,,,,,,,1,07,,,,,,,,,,,1,4.886,1,,,,,,-0.391601563,-0.243164063,1,0,0,4.8862,Andesite_rect,2,0,2,0,1,
65c017a404cde4687fdad22e,TCR,2024-06-24_17h34.40.353,LearnStrategy,2023.2.3,Win32,59.88023952,5,2,4,,,,,,,,5,04,,,,,,,,,,,5,1.522,1,,,,,,-0.379882813,-0.395507813,1,0,0,1.5224,Obsidian_rect,3,0,3,0,1,
65c017a404cde4687fdad22e,TCR,2024-06-24_17h34.40.353,LearnStrategy,2023.2.3,Win32,59.88023952,5,2,5,,,,,,,,2,08,,,,,,,,,,,2,3.402,1,,,,,,-0.127929688,-0.239257813,1,0,0,3.4023,Basalt_rect,4,0,4,0,1,
65c017a404cde4687fdad22e,TCR,2024-06-24_17h34.40.353,LearnStrategy,2023.2.3,Win32,59.88023952,5,2,6,,,,,,,,6,11,,,,,,,,,,,6,5.622,1,,,,,,-0.134765625,-0.40625,1,0,0,5.6221,Pegmatite_rect,5,0,5,0,1,
65c017a404cde4687fdad22e,TCR,2024-06-24_17h34.40.353,LearnStrategy,2023.2.3,Win32,59.88023952,5,2,7,,,,,,,,7,13,,,,,,,,,,,7,2.373,1,,,,,,0.076171875,-0.400390625,1,0,0,2.3729,Peridotite_rect,6,0,6,0,1,
65c017a404cde4687fdad22e,TCR,2024-06-24_17h34.40.353,LearnStrategy,2023.2.3,Win32,59.88023952,5,2,8,,,,,,,,7,08,,,,,,,,,,,6,14.89,0,,,,,,-0.155273438,-0.40625,1,0,0,14.8896,Pegmatite_rect,7,0,7,0,1,
65c017a404cde4687fdad22e,TCR,2024-06-24_17h34.40.353,LearnStrategy,2023.2.3,Win32,59.88023952,5,2,9,,,,,,,,8,04,,,,,,,,,,,8,2.43,1,,,,,,0.37890625,-0.403320313,1,0,0,2.4301,Pumice_rect,8,0,8,0,1,
65c017a404cde4687fdad22e,TCR,2024-06-24_17h34.40.353,LearnStrategy,2023.2.3,Win32,59.88023952,5,2,10,,,,,,,,8,16,,,,,,,,,,,8,1.543,1,,,,,,0.393554688,-0.400390625,1,0,0,1.5431,Pumice_rect,9,0,9,0,1,
65c017a404cde4687fdad22e,TCR,2024-06-24_17h34.40.353,LearnStrategy,2023.2.3,Win32,59.88023952,5,2,11,,,,,,,,4,09,,,,,,,,,,,4,9.436,1,,,,,,0.3828125,-0.241210938,1,0,0,9.4362,Gabbro_rect,10,0,10,0,1,
65c017a404cde4687fdad22e,TCR,2024-06-24_17h34.40.353,LearnStrategy,2023.2.3,Win32,59.88023952,5,2,12,,,,,,,,4,01,,,,,,,,,,,4,18.427,1,,,,,,0.385742188,-0.241210938,1,0,0,18.4265,Gabbro_rect,11,0,11,0,1,
65c017a404cde4687fdad22e,TCR,2024-06-24_17h34.40.353,LearnStrategy,2023.2.3,Win32,59.88023952,5,2,13,,,,,,,,2,12,,,,,,,,,,,8,1.376,0,,,,,,0.3828125,-0.415039063,1,0,0,1.3764,Pumice_rect,12,0,12,0,1,
65c017a404cde4687fdad22e,TCR,2024-06-24_17h34.40.353,LearnStrategy,2023.2.3,Win32,59.88023952,5,2,14,,,,,,,,6,09,,,,,,,,,,,6,4.865,1,,,,,,-0.135742188,-0.393554688,1,0,0,4.8654,Pegmatite_rect,13,0,13,0,1,
65c017a404cde4687fdad22e,TCR,2024-06-24_17h34.40.353,LearnStrategy,2023.2.3,Win32,59.88023952,5,2,15,,,,,,,,1,06,,,,,,,,,,,1,3.722,1,,,,,,-0.405273438,-0.233398438,1,0,0,3.7224,Andesite_rect,14,0,14,0,1,
65c017a404cde4687fdad22e,TCR,2024-06-24_17h34.40.353,LearnStrategy,2023.2.3,Win32,59.88023952,5,2,16,,,,,,,,5,14,,,,,,,,,,,5,1.681,1,,,,,,-0.40234375,-0.404296875,1,0,0,1.6813,Obsidian_rect,15,0,15,0,1,
65c017a404cde4687fdad22e,TCR,2024-06-24_17h34.40.353,LearnStrategy,2023.2.3,Win32,59.88023952,6,1,1,0.004882813,-0.006835938,1,0,0,2.4229,rock_grid_rect_2,3,16,-1,-1,2.423,-0.377929688,-0.240234375,1,0,0,4.6004,Andesite_rect,1,4.6,0,0,0,0,0,1,,,,,,,,,,,,,
65c017a404cde4687fdad22e,TCR,2024-06-24_17h34.40.353,LearnStrategy,2023.2.3,Win32,59.88023952,6,1,2,0.03515625,0.004882813,1,0,0,1.2826,rock_grid_rect_2,7,12,-1,-1,1.283,0.12890625,-0.39453125,1,0,0,7.6076,Peridotite_rect,7,7.608,1,1,0,1,0,1,,,,,,,,,,,,,
65c017a404cde4687fdad22e,TCR,2024-06-24_17h34.40.353,LearnStrategy,2023.2.3,Win32,59.88023952,6,1,3,-0.018554688,-0.001953125,1,0,0,1.1328,rock_grid_rect_2,4,11,-1,-1,1.133,-0.40234375,-0.243164063,1,0,0,9.2239,Andesite_rect,1,9.224,0,2,0,2,0,1,,,,,,,,,,,,,
65c017a404cde4687fdad22e,TCR,2024-06-24_17h34.40.353,LearnStrategy,2023.2.3,Win32,59.88023952,6,1,4,0.001953125,0.002929688,1,0,0,1.1938,rock_grid_rect_2,4,10,-1,-1,1.194,0.41796875,-0.240234375,1,0,0,3.5216,Gabbro_rect,4,3.522,1,3,0,3,0,1,,,,,,,,,,,,,
65c017a404cde4687fdad22e,TCR,2024-06-24_17h34.40.353,LearnStrategy,2023.2.3,Win32,59.88023952,6,1,5,-0.015625,0.000976563,1,0,0,1.1455,rock_grid_rect_2,8,03,-1,-1,1.146,0.397460938,-0.40234375,1,0,0,2.0803,Pumice_rect,8,2.08,1,4,0,4,0,1,,,,,,,,,,,,,
65c017a404cde4687fdad22e,TCR,2024-06-24_17h34.40.353,LearnStrategy,2023.2.3,Win32,59.88023952,6,1,6,0.004882813,0.005859375,1,0,0,1.0739,rock_grid_rect_2,1,11,-1,-1,1.074,-0.419921875,-0.24609375,1,0,0,13.9185,Andesite_rect,1,13.918,1,5,0,5,0,1,,,,,,,,,,,,,
65c017a404cde4687fdad22e,TCR,2024-06-24_17h34.40.353,LearnStrategy,2023.2.3,Win32,59.88023952,6,1,7,-0.014648438,0.004882813,1,0,0,1.2347,rock_grid_rect_2,2,06,-1,-1,1.235,0.418945313,-0.258789063,1,0,0,12.8009,Gabbro_rect,4,12.801,0,6,0,6,0,1,,,,,,,,,,,,,
65c017a404cde4687fdad22e,TCR,2024-06-24_17h34.40.353,LearnStrategy,2023.2.3,Win32,59.88023952,6,1,8,-0.01953125,0.002929688,1,0,0,1.1709,rock_grid_rect_2,4,11,-1,-1,1.171,0.120117188,-0.243164063,1,0,0,7.9944,Diorite_rect,3,7.994,0,7,0,7,0,1,,,,,,,,,,,,,
65c017a404cde4687fdad22e,TCR,2024-06-24_17h34.40.353,LearnStrategy,2023.2.3,Win32,59.88023952,6,1,9,-0.006835938,0,1,0,0,0.9644,rock_grid_rect_2,6,06,-1,-1,0.964,0.127929688,-0.251953125,1,0,0,18.4394,Diorite_rect,3,18.439,0,8,0,8,0,1,,,,,,,,,,,,,
65c017a404cde4687fdad22e,TCR,2024-06-24_17h34.40.353,LearnStrategy,2023.2.3,Win32,59.88023952,6,1,10,-0.036132813,-0.002929688,1,0,0,1.62,rock_grid_rect_2,2,10,-1,-1,1.62,-0.151367188,-0.256835938,1,0,0,4.6701,Basalt_rect,2,4.67,1,9,0,9,0,1,,,,,,,,,,,,,
65c017a404cde4687fdad22e,TCR,2024-06-24_17h34.40.353,LearnStrategy,2023.2.3,Win32,59.88023952,6,1,11,-0.006835938,-0.000976563,1,0,0,1.1489,rock_grid_rect_2,1,02,-1,-1,1.149,0.383789063,-0.251953125,1,0,0,16.3599,Gabbro_rect,4,16.36,0,10,0,10,0,1,,,,,,,,,,,,,
65c017a404cde4687fdad22e,TCR,2024-06-24_17h34.40.353,LearnStrategy,2023.2.3,Win32,59.88023952,6,1,12,0.010742188,0.000976563,1,0,0,0.9992,rock_grid_rect_2,2,10,-1,-1,0.999,-0.12890625,-0.254882813,1,0,0,5.6824,Basalt_rect,2,5.682,1,11,0,11,0,1,,,,,,,,,,,,,
65c017a404cde4687fdad22e,TCR,2024-06-24_17h34.40.353,LearnStrategy,2023.2.3,Win32,59.88023952,6,1,13,0.002929688,-0.01171875,1,0,0,1.0605,rock_grid_rect_2,5,06,-1,-1,1.061,-0.375,-0.399414063,1,0,0,1.8323,Obsidian_rect,5,1.832,1,12,0,12,0,1,,,,,,,,,,,,,
65c017a404cde4687fdad22e,TCR,2024-06-24_17h34.40.353,LearnStrategy,2023.2.3,Win32,59.88023952,6,1,14,0.008789063,-0.006835938,1,0,0,1.1674,rock_grid_rect_2,7,02,-1,-1,1.167,0.138671875,-0.40625,1,0,0,3.3071,Peridotite_rect,7,3.307,1,13,0,13,0,1,,,,,,,,,,,,,
65c017a404cde4687fdad22e,TCR,2024-06-24_17h34.40.353,LearnStrategy,2023.2.3,Win32,59.88023952,6,1,15,0.002929688,0.001953125,1,0,0,1.0749,rock_grid_rect_2,6,03,-1,-1,1.075,-0.123046875,-0.416992188,1,0,0,3.9757,Pegmatite_rect,6,3.976,1,14,0,14,0,1,,,,,,,,,,,,,
65c017a404cde4687fdad22e,TCR,2024-06-24_17h34.40.353,LearnStrategy,2023.2.3,Win32,59.88023952,6,1,16,0.002929688,0.00390625,1,0,0,1.0295,rock_grid_rect_2,3,07,-1,-1,1.03,0.173828125,-0.256835938,1,0,0,6.3542,Diorite_rect,3,6.354,1,15,0,15,0,1,,,,,,,,,,,,,
65c017a404cde4687fdad22e,TCR,2024-06-24_17h34.40.353,LearnStrategy,2023.2.3,Win32,59.88023952,6,2,1,,,,,,,,5,16,,,,,,,,,,,5,1.67,1,,,,,,-0.384765625,-0.409179688,1,0,0,1.6701,Obsidian_rect,0,0,0,0,1,
65c017a404cde4687fdad22e,TCR,2024-06-24_17h34.40.353,LearnStrategy,2023.2.3,Win32,59.88023952,6,2,2,,,,,,,,6,05,,,,,,,,,,,3,4.673,0,,,,,,0.12890625,-0.247070313,1,0,0,4.6733,Diorite_rect,1,0,1,0,1,
65c017a404cde4687fdad22e,TCR,2024-06-24_17h34.40.353,LearnStrategy,2023.2.3,Win32,59.88023952,6,2,3,,,,,,,,8,02,,,,,,,,,,,8,1.527,1,,,,,,0.393554688,-0.388671875,1,0,0,1.527,Pumice_rect,2,0,2,0,1,
65c017a404cde4687fdad22e,TCR,2024-06-24_17h34.40.353,LearnStrategy,2023.2.3,Win32,59.88023952,6,2,4,,,,,,,,2,01,,,,,,,,,,,2,3.427,1,,,,,,-0.106445313,-0.2578125,1,0,0,3.4267,Basalt_rect,3,0,3,0,1,
65c017a404cde4687fdad22e,TCR,2024-06-24_17h34.40.353,LearnStrategy,2023.2.3,Win32,59.88023952,6,2,5,,,,,,,,6,12,,,,,,,,,,,3,10.125,0,,,,,,0.157226563,-0.255859375,1,0,0,10.1253,Diorite_rect,4,0,4,0,1,
65c017a404cde4687fdad22e,TCR,2024-06-24_17h34.40.353,LearnStrategy,2023.2.3,Win32,59.88023952,6,2,6,,,,,,,,8,13,,,,,,,,,,,8,8.95,1,,,,,,0.385742188,-0.403320313,1,0,0,8.95,Pumice_rect,5,0,5,0,1,
65c017a404cde4687fdad22e,TCR,2024-06-24_17h34.40.353,LearnStrategy,2023.2.3,Win32,59.88023952,6,2,7,,,,,,,,3,08,,,,,,,,,,,1,3.78,0,,,,,,-0.375976563,-0.234375,1,0,0,3.7797,Andesite_rect,6,0,6,0,1,
65c017a404cde4687fdad22e,TCR,2024-06-24_17h34.40.353,LearnStrategy,2023.2.3,Win32,59.88023952,6,2,8,,,,,,,,4,05,,,,,,,,,,,7,9.274,0,,,,,,0.123046875,-0.41796875,1,0,0,9.2741,Peridotite_rect,7,0,7,0,1,
65c017a404cde4687fdad22e,TCR,2024-06-24_17h34.40.353,LearnStrategy,2023.2.3,Win32,59.88023952,6,2,9,,,,,,,,3,10,,,,,,,,,,,3,9.057,1,,,,,,0.154296875,-0.25390625,1,0,0,9.0573,Diorite_rect,8,0,8,0,1,
65c017a404cde4687fdad22e,TCR,2024-06-24_17h34.40.353,LearnStrategy,2023.2.3,Win32,59.88023952,6,2,10,,,,,,,,1,14,,,,,,,,,,,4,8.182,0,,,,,,0.331054688,-0.256835938,1,0,0,8.1825,Gabbro_rect,9,0,9,0,1,
65c017a404cde4687fdad22e,TCR,2024-06-24_17h34.40.353,LearnStrategy,2023.2.3,Win32,59.88023952,6,2,11,,,,,,,,7,04,,,,,,,,,,,7,7.786,1,,,,,,0.141601563,-0.396484375,1,0,0,7.7856,Peridotite_rect,10,0,10,0,1,
65c017a404cde4687fdad22e,TCR,2024-06-24_17h34.40.353,LearnStrategy,2023.2.3,Win32,59.88023952,6,2,12,,,,,,,,7,15,,,,,,,,,,,7,1.963,1,,,,,,0.127929688,-0.401367188,1,0,0,1.9628,Peridotite_rect,11,0,11,0,1,
65c017a404cde4687fdad22e,TCR,2024-06-24_17h34.40.353,LearnStrategy,2023.2.3,Win32,59.88023952,6,2,13,,,,,,,,4,14,,,,,,,,,,,4,5.945,1,,,,,,0.413085938,-0.251953125,1,0,0,5.9453,Gabbro_rect,12,0,12,0,1,
65c017a404cde4687fdad22e,TCR,2024-06-24_17h34.40.353,LearnStrategy,2023.2.3,Win32,59.88023952,6,2,14,,,,,,,,1,10,,,,,,,,,,,4,9.658,0,,,,,,0.444335938,-0.249023438,1,0,0,9.6577,Gabbro_rect,13,0,13,0,1,
65c017a404cde4687fdad22e,TCR,2024-06-24_17h34.40.353,LearnStrategy,2023.2.3,Win32,59.88023952,6,2,15,,,,,,,,2,02,,,,,,,,,,,2,5.428,1,,,,,,-0.174804688,-0.250976563,1,0,0,5.4282,Basalt_rect,14,0,14,0,1,
65c017a404cde4687fdad22e,TCR,2024-06-24_17h34.40.353,LearnStrategy,2023.2.3,Win32,59.88023952,6,2,16,,,,,,,,5,10,,,,,,,,,,,5,1.333,1,,,,,,-0.409179688,-0.408203125,1,0,0,1.3329,Obsidian_rect,15,0,15,0,1,
65c017a404cde4687fdad22e,TCR,2024-06-24_17h34.40.353,LearnStrategy,2023.2.3,Win32,59.88023952,7,1,1,0.0078125,0,1,0,0,1.673,rock_grid_rect_2,4,03,-1,-1,1.673,0.37890625,-0.252929688,1,0,0,10.0696,Gabbro_rect,4,10.07,1,0,0,0,0,1,,,,,,,,,,,,,
65c017a404cde4687fdad22e,TCR,2024-06-24_17h34.40.353,LearnStrategy,2023.2.3,Win32,59.88023952,7,1,2,-0.021484375,0.008789063,1,0,0,0.919,rock_grid_rect_2,2,10,-1,-1,0.919,-0.13671875,-0.25,1,0,0,2.9873,Basalt_rect,2,2.987,1,1,0,1,0,1,,,,,,,,,,,,,
65c017a404cde4687fdad22e,TCR,2024-06-24_17h34.40.353,LearnStrategy,2023.2.3,Win32,59.88023952,7,1,3,-0.005859375,0,1,0,0,1.0441,rock_grid_rect_2,1,01,-1,-1,1.044,0.396484375,-0.260742188,1,0,0,5.1259,Gabbro_rect,4,5.126,0,2,0,2,0,1,,,,,,,,,,,,,
65c017a404cde4687fdad22e,TCR,2024-06-24_17h34.40.353,LearnStrategy,2023.2.3,Win32,59.88023952,7,1,4,0.008789063,0.013671875,1,0,0,1.1148,rock_grid_rect_2,6,06,-1,-1,1.115,0.146484375,-0.393554688,1,0,0,8.691,Peridotite_rect,7,8.691,0,3,0,3,0,1,,,,,,,,,,,,,
65c017a404cde4687fdad22e,TCR,2024-06-24_17h34.40.353,LearnStrategy,2023.2.3,Win32,59.88023952,7,1,5,-0.043945313,0.000976563,1,0,0,1.1808,rock_grid_rect_2,1,04,-1,-1,1.181,-0.42578125,-0.237304688,1,0,0,10.6414,Andesite_rect,1,10.641,1,4,0,4,0,1,,,,,,,,,,,,,
65c017a404cde4687fdad22e,TCR,2024-06-24_17h34.40.353,LearnStrategy,2023.2.3,Win32,59.88023952,7,1,6,-0.002929688,-0.008789063,1,0,0,0.9133,rock_grid_rect_2,4,15,-1,-1,0.913,0.399414063,-0.24609375,1,0,0,8.8918,Gabbro_rect,4,8.892,1,5,0,5,0,1,,,,,,,,,,,,,
65c017a404cde4687fdad22e,TCR,2024-06-24_17h34.40.353,LearnStrategy,2023.2.3,Win32,59.88023952,7,1,7,0.005859375,-0.0078125,1,0,0,1.0256,rock_grid_rect_2,4,08,-1,-1,1.026,0.380859375,-0.247070313,1,0,0,19.0222,Gabbro_rect,4,19.022,1,6,0,6,0,1,,,,,,,,,,,,,
65c017a404cde4687fdad22e,TCR,2024-06-24_17h34.40.353,LearnStrategy,2023.2.3,Win32,59.88023952,7,1,8,0.000976563,-0.00390625,1,0,0,1.0367,rock_grid_rect_2,6,03,-1,-1,1.037,-0.12890625,-0.389648438,1,0,0,4.089,Pegmatite_rect,6,4.089,1,7,0,7,0,1,,,,,,,,,,,,,
65c017a404cde4687fdad22e,TCR,2024-06-24_17h34.40.353,LearnStrategy,2023.2.3,Win32,59.88023952,7,1,9,0.016601563,-0.001953125,1,0,0,1.1043,rock_grid_rect_2,6,06,-1,-1,1.104,-0.141601563,-0.403320313,1,0,0,3.1233,Pegmatite_rect,6,3.123,1,8,0,8,0,1,,,,,,,,,,,,,
65c017a404cde4687fdad22e,TCR,2024-06-24_17h34.40.353,LearnStrategy,2023.2.3,Win32,59.88023952,7,1,10,-0.004882813,-0.00390625,1,0,0,1.0762,rock_grid_rect_2,1,09,-1,-1,1.076,-0.360351563,-0.26171875,1,0,0,4.1445,Andesite_rect,1,4.145,1,9,0,9,0,1,,,,,,,,,,,,,
65c017a404cde4687fdad22e,TCR,2024-06-24_17h34.40.353,LearnStrategy,2023.2.3,Win32,59.88023952,7,1,11,0.013671875,0.006835938,1,0,0,1.3236,rock_grid_rect_2,7,14,-1,-1,1.324,0.138671875,-0.40625,1,0,0,6.0464,Peridotite_rect,7,6.046,1,10,0,10,0,1,,,,,,,,,,,,,
65c017a404cde4687fdad22e,TCR,2024-06-24_17h34.40.353,LearnStrategy,2023.2.3,Win32,59.88023952,7,1,12,-0.018554688,-0.00390625,1,0,0,1.16,rock_grid_rect_2,2,09,-1,-1,1.16,-0.395507813,-0.240234375,1,0,0,8.0265,Andesite_rect,1,8.026,0,11,0,11,0,1,,,,,,,,,,,,,
65c017a404cde4687fdad22e,TCR,2024-06-24_17h34.40.353,LearnStrategy,2023.2.3,Win32,59.88023952,7,1,13,-0.002929688,-0.005859375,1,0,0,1.2273,rock_grid_rect_2,3,06,-1,-1,1.227,-0.377929688,-0.233398438,1,0,0,3.6975,Andesite_rect,1,3.698,0,12,0,12,0,1,,,,,,,,,,,,,
65c017a404cde4687fdad22e,TCR,2024-06-24_17h34.40.353,LearnStrategy,2023.2.3,Win32,59.88023952,7,1,14,-0.017578125,-0.004882813,1,0,0,0.7844,rock_grid_rect_2,8,08,-1,-1,0.784,0.387695313,-0.390625,1,0,0,1.68,Pumice_rect,8,1.68,1,13,0,13,0,1,,,,,,,,,,,,,
65c017a404cde4687fdad22e,TCR,2024-06-24_17h34.40.353,LearnStrategy,2023.2.3,Win32,59.88023952,7,1,15,-0.002929688,0,1,0,0,1.087,rock_grid_rect_2,7,16,-1,-1,1.087,0.126953125,-0.403320313,1,0,0,3.9155,Peridotite_rect,7,3.916,1,14,0,14,0,1,,,,,,,,,,,,,
65c017a404cde4687fdad22e,TCR,2024-06-24_17h34.40.353,LearnStrategy,2023.2.3,Win32,59.88023952,7,1,16,-0.006835938,0.001953125,1,0,0,1.2021,rock_grid_rect_2,3,07,-1,-1,1.202,0.129882813,-0.265625,1,0,0,10.1312,Diorite_rect,3,10.131,1,15,0,15,0,1,,,,,,,,,,,,,
65c017a404cde4687fdad22e,TCR,2024-06-24_17h34.40.353,LearnStrategy,2023.2.3,Win32,59.88023952,7,2,1,,,,,,,,8,10,,,,,,,,,,,8,1.427,1,,,,,,0.4140625,-0.395507813,1,0,0,1.4271,Pumice_rect,0,0,0,0,1,
65c017a404cde4687fdad22e,TCR,2024-06-24_17h34.40.353,LearnStrategy,2023.2.3,Win32,59.88023952,7,2,2,,,,,,,,7,06,,,,,,,,,,,7,1.919,1,,,,,,0.114257813,-0.392578125,1,0,0,1.9193,Peridotite_rect,1,0,1,0,1,
65c017a404cde4687fdad22e,TCR,2024-06-24_17h34.40.353,LearnStrategy,2023.2.3,Win32,59.88023952,7,2,3,,,,,,,,5,14,,,,,,,,,,,5,1.239,1,,,,,,-0.395507813,-0.41015625,1,0,0,1.239,Obsidian_rect,2,0,2,0,1,
65c017a404cde4687fdad22e,TCR,2024-06-24_17h34.40.353,LearnStrategy,2023.2.3,Win32,59.88023952,7,2,4,,,,,,,,8,16,,,,,,,,,,,8,1.515,1,,,,,,0.387695313,-0.407226563,1,0,0,1.5148,Pumice_rect,3,0,3,0,1,
65c017a404cde4687fdad22e,TCR,2024-06-24_17h34.40.353,LearnStrategy,2023.2.3,Win32,59.88023952,7,2,5,,,,,,,,3,02,,,,,,,,,,,3,4.631,1,,,,,,0.147460938,-0.254882813,1,0,0,4.631,Diorite_rect,4,0,4,0,1,
65c017a404cde4687fdad22e,TCR,2024-06-24_17h34.40.353,LearnStrategy,2023.2.3,Win32,59.88023952,7,2,6,,,,,,,,2,12,,,,,,,,,,,8,1.239,0,,,,,,0.405273438,-0.413085938,1,0,0,1.2389,Pumice_rect,5,0,5,0,1,
65c017a404cde4687fdad22e,TCR,2024-06-24_17h34.40.353,LearnStrategy,2023.2.3,Win32,59.88023952,7,2,7,,,,,,,,6,11,,,,,,,,,,,6,2.53,1,,,,,,-0.106445313,-0.388671875,1,0,0,2.5298,Pegmatite_rect,6,0,6,0,1,
65c017a404cde4687fdad22e,TCR,2024-06-24_17h34.40.353,LearnStrategy,2023.2.3,Win32,59.88023952,7,2,8,,,,,,,,4,01,,,,,,,,,,,4,4.361,1,,,,,,0.4296875,-0.2578125,1,0,0,4.361,Gabbro_rect,7,0,7,0,1,
65c017a404cde4687fdad22e,TCR,2024-06-24_17h34.40.353,LearnStrategy,2023.2.3,Win32,59.88023952,7,2,9,,,,,,,,1,05,,,,,,,,,,,4,5.36,0,,,,,,0.384765625,-0.235351563,1,0,0,5.3605,Gabbro_rect,8,0,8,0,1,
65c017a404cde4687fdad22e,TCR,2024-06-24_17h34.40.353,LearnStrategy,2023.2.3,Win32,59.88023952,7,2,10,,,,,,,,3,10,,,,,,,,,,,3,4.032,1,,,,,,0.151367188,-0.258789063,1,0,0,4.0319,Diorite_rect,9,0,9,0,1,
65c017a404cde4687fdad22e,TCR,2024-06-24_17h34.40.353,LearnStrategy,2023.2.3,Win32,59.88023952,7,2,11,,,,,,,,6,15,,,,,,,,,,,6,1.448,1,,,,,,-0.116210938,-0.387695313,1,0,0,1.4485,Pegmatite_rect,10,0,10,0,1,
65c017a404cde4687fdad22e,TCR,2024-06-24_17h34.40.353,LearnStrategy,2023.2.3,Win32,59.88023952,7,2,12,,,,,,,,4,12,,,,,,,,,,,1,7.677,0,,,,,,-0.373046875,-0.24609375,1,0,0,7.6772,Andesite_rect,11,0,11,0,1,
65c017a404cde4687fdad22e,TCR,2024-06-24_17h34.40.353,LearnStrategy,2023.2.3,Win32,59.88023952,7,2,13,,,,,,,,5,05,,,,,,,,,,,5,1.342,1,,,,,,-0.388671875,-0.419921875,1,0,0,1.3424,Obsidian_rect,12,0,12,0,1,
65c017a404cde4687fdad22e,TCR,2024-06-24_17h34.40.353,LearnStrategy,2023.2.3,Win32,59.88023952,7,2,14,,,,,,,,2,16,,,,,,,,,,,2,2.268,1,,,,,,-0.1328125,-0.24609375,1,0,0,2.2676,Basalt_rect,13,0,13,0,1,
65c017a404cde4687fdad22e,TCR,2024-06-24_17h34.40.353,LearnStrategy,2023.2.3,Win32,59.88023952,7,2,15,,,,,,,,7,13,,,,,,,,,,,7,1.579,1,,,,,,0.09765625,-0.400390625,1,0,0,1.5785,Peridotite_rect,14,0,14,0,1,
65c017a404cde4687fdad22e,TCR,2024-06-24_17h34.40.353,LearnStrategy,2023.2.3,Win32,59.88023952,7,2,16,,,,,,,,1,14,,,,,,,,,,,4,6.506,0,,,,,,0.426757813,-0.244140625,1,0,0,6.506,Gabbro_rect,15,0,15,0,1,
65c017a404cde4687fdad22e,TCR,2024-06-24_17h34.40.353,LearnStrategy,2023.2.3,Win32,59.88023952,8,1,1,0.009765625,0.001953125,1,0,0,1.4119,rock_grid_rect_2,2,05,-1,-1,1.412,-0.155273438,-0.248046875,1,0,0,5.7256,Basalt_rect,2,5.726,1,0,0,0,0,1,,,,,,,,,,,,,
65c017a404cde4687fdad22e,TCR,2024-06-24_17h34.40.353,LearnStrategy,2023.2.3,Win32,59.88023952,8,1,2,0.006835938,-0.005859375,1,0,0,1.4084,rock_grid_rect_2,4,15,-1,-1,1.408,0.135742188,-0.245117188,1,0,0,10.2442,Diorite_rect,3,10.244,0,1,0,1,0,1,,,,,,,,,,,,,
65c017a404cde4687fdad22e,TCR,2024-06-24_17h34.40.353,LearnStrategy,2023.2.3,Win32,59.88023952,8,1,3,0.016601563,-0.00390625,1,0,0,15.2842,rock_grid_rect_2,1,11,-1,-1,15.284,-0.389648438,-0.235351563,1,0,0,4.3943,Andesite_rect,1,4.394,1,2,0,2,0,1,,,,,,,,,,,,,
65c017a404cde4687fdad22e,TCR,2024-06-24_17h34.40.353,LearnStrategy,2023.2.3,Win32,59.88023952,8,1,4,0.006835938,-0.010742188,1,0,0,4.2198,rock_grid_rect_2,4,03,-1,-1,4.22,0.4375,-0.241210938,1,0,0,9.7204,Gabbro_rect,4,9.72,1,3,0,3,0,1,,,,,,,,,,,,,
65c017a404cde4687fdad22e,TCR,2024-06-24_17h34.40.353,LearnStrategy,2023.2.3,Win32,59.88023952,8,1,5,-0.015625,0,1,0,0,0.9116,rock_grid_rect_2,7,16,-1,-1,0.912,0.116210938,-0.409179688,1,0,0,4.0087,Peridotite_rect,7,4.009,1,4,0,4,0,1,,,,,,,,,,,,,
65c017a404cde4687fdad22e,TCR,2024-06-24_17h34.40.353,LearnStrategy,2023.2.3,Win32,59.88023952,8,1,6,0,-0.006835938,1,0,0,1.0479,rock_grid_rect_2,1,02,-1,-1,1.048,-0.35546875,-0.265625,1,0,0,4.2952,Andesite_rect,1,4.295,1,5,0,5,0,1,,,,,,,,,,,,,
65c017a404cde4687fdad22e,TCR,2024-06-24_17h34.40.353,LearnStrategy,2023.2.3,Win32,59.88023952,8,1,7,0.006835938,0.00390625,1,0,0,1.0899,rock_grid_rect_2,1,01,-1,-1,1.09,0.127929688,-0.25,1,0,0,4.1913,Diorite_rect,3,4.191,0,6,0,6,0,1,,,,,,,,,,,,,
65c017a404cde4687fdad22e,TCR,2024-06-24_17h34.40.353,LearnStrategy,2023.2.3,Win32,59.88023952,8,1,8,0.010742188,0.00390625,1,0,0,1.0406,rock_grid_rect_2,6,13,-1,-1,1.041,0.106445313,-0.247070313,1,0,0,12.8432,Diorite_rect,3,12.843,0,7,0,7,0,1,,,,,,,,,,,,,
65c017a404cde4687fdad22e,TCR,2024-06-24_17h34.40.353,LearnStrategy,2023.2.3,Win32,59.88023952,8,1,9,0.010742188,-0.000976563,1,0,0,1.2288,rock_grid_rect_2,2,09,-1,-1,1.229,-0.400390625,-0.2421875,1,0,0,11.3234,Andesite_rect,1,11.323,0,8,0,8,0,1,,,,,,,,,,,,,
65c017a404cde4687fdad22e,TCR,2024-06-24_17h34.40.353,LearnStrategy,2023.2.3,Win32,59.88023952,8,1,10,-0.013671875,-0.001953125,1,0,0,1.1444,rock_grid_rect_2,4,15,-1,-1,1.144,0.451171875,-0.249023438,1,0,0,9.9976,Gabbro_rect,4,9.998,1,9,0,9,0,1,,,,,,,,,,,,,
65c017a404cde4687fdad22e,TCR,2024-06-24_17h34.40.353,LearnStrategy,2023.2.3,Win32,59.88023952,8,1,11,-0.016601563,-0.005859375,1,0,0,0.9892,rock_grid_rect_2,3,11,-1,-1,0.989,0.135742188,-0.244140625,1,0,0,5.4907,Diorite_rect,3,5.491,1,10,0,10,0,1,,,,,,,,,,,,,
65c017a404cde4687fdad22e,TCR,2024-06-24_17h34.40.353,LearnStrategy,2023.2.3,Win32,59.88023952,8,1,12,0.0234375,-0.004882813,1,0,0,0.9036,rock_grid_rect_2,1,02,-1,-1,0.904,-0.40234375,-0.25,1,0,0,9.1375,Andesite_rect,1,9.138,1,11,0,11,0,1,,,,,,,,,,,,,
65c017a404cde4687fdad22e,TCR,2024-06-24_17h34.40.353,LearnStrategy,2023.2.3,Win32,59.88023952,8,1,13,0.036132813,-0.005859375,1,0,0,0.9479,rock_grid_rect_2,8,08,-1,-1,0.948,0.396484375,-0.39453125,1,0,0,2.0218,Pumice_rect,8,2.022,1,12,0,12,0,1,,,,,,,,,,,,,
65c017a404cde4687fdad22e,TCR,2024-06-24_17h34.40.353,LearnStrategy,2023.2.3,Win32,59.88023952,8,1,14,-0.002929688,0.001953125,1,0,0,1.0417,rock_grid_rect_2,5,06,-1,-1,1.042,-0.34765625,-0.413085938,1,0,0,1.3884,Obsidian_rect,5,1.388,1,13,0,13,0,1,,,,,,,,,,,,,
65c017a404cde4687fdad22e,TCR,2024-06-24_17h34.40.353,LearnStrategy,2023.2.3,Win32,59.88023952,8,1,15,-0.009765625,0.00390625,1,0,0,1.1309,rock_grid_rect_2,6,07,-1,-1,1.131,-0.122070313,-0.397460938,1,0,0,3.24,Pegmatite_rect,6,3.24,1,14,0,14,0,1,,,,,,,,,,,,,
65c017a404cde4687fdad22e,TCR,2024-06-24_17h34.40.353,LearnStrategy,2023.2.3,Win32,59.88023952,8,1,16,0,-0.004882813,1,0,0,0.7883,rock_grid_rect_2,3,15,-1,-1,0.788,0.419921875,-0.247070313,1,0,0,7.0908,Gabbro_rect,4,7.091,0,15,0,15,0,1,,,,,,,,,,,,,
65c017a404cde4687fdad22e,TCR,2024-06-24_17h34.40.353,LearnStrategy,2023.2.3,Win32,59.88023952,8,2,1,,,,,,,,5,12,,,,,,,,,,,5,1.398,1,,,,,,-0.432617188,-0.41015625,1,0,0,1.3978,Obsidian_rect,0,0,0,0,1,
65c017a404cde4687fdad22e,TCR,2024-06-24_17h34.40.353,LearnStrategy,2023.2.3,Win32,59.88023952,8,2,2,,,,,,,,4,09,,,,,,,,,,,3,6.453,0,,,,,,0.125976563,-0.254882813,1,0,0,6.4529,Diorite_rect,1,0,1,0,1,
65c017a404cde4687fdad22e,TCR,2024-06-24_17h34.40.353,LearnStrategy,2023.2.3,Win32,59.88023952,8,2,3,,,,,,,,6,09,,,,,,,,,,,6,3.043,1,,,,,,-0.114257813,-0.3984375,1,0,0,3.0435,Pegmatite_rect,2,0,2,0,1,
65c017a404cde4687fdad22e,TCR,2024-06-24_17h34.40.353,LearnStrategy,2023.2.3,Win32,59.88023952,8,2,4,,,,,,,,6,16,,,,,,,,,,,3,10.478,0,,,,,,0.165039063,-0.233398438,1,0,0,10.4779,Diorite_rect,3,0,3,0,1,
65c017a404cde4687fdad22e,TCR,2024-06-24_17h34.40.353,LearnStrategy,2023.2.3,Win32,59.88023952,8,2,5,,,,,,,,8,04,,,,,,,,,,,8,1.32,1,,,,,,0.359375,-0.37890625,1,0,0,1.3204,Pumice_rect,4,0,4,0,1,
65c017a404cde4687fdad22e,TCR,2024-06-24_17h34.40.353,LearnStrategy,2023.2.3,Win32,59.88023952,8,2,6,,,,,,,,2,04,,,,,,,,,,,2,4.065,1,,,,,,-0.142578125,-0.250976563,1,0,0,4.0653,Basalt_rect,5,0,5,0,1,
65c017a404cde4687fdad22e,TCR,2024-06-24_17h34.40.353,LearnStrategy,2023.2.3,Win32,59.88023952,8,2,7,,,,,,,,4,14,,,,,,,,,,,4,6.678,1,,,,,,0.391601563,-0.258789063,1,0,0,6.6781,Gabbro_rect,6,0,6,0,1,
65c017a404cde4687fdad22e,TCR,2024-06-24_17h34.40.353,LearnStrategy,2023.2.3,Win32,59.88023952,8,2,8,,,,,,,,2,08,,,,,,,,,,,2,5.172,1,,,,,,-0.14453125,-0.25390625,1,0,0,5.1718,Basalt_rect,7,0,7,0,1,
65c017a404cde4687fdad22e,TCR,2024-06-24_17h34.40.353,LearnStrategy,2023.2.3,Win32,59.88023952,8,2,9,,,,,,,,7,15,,,,,,,,,,,7,2.253,1,,,,,,0.177734375,-0.393554688,1,0,0,2.2532,Peridotite_rect,8,0,8,0,1,
65c017a404cde4687fdad22e,TCR,2024-06-24_17h34.40.353,LearnStrategy,2023.2.3,Win32,59.88023952,8,2,10,,,,,,,,3,08,,,,,,,,,,,1,6.555,0,,,,,,-0.404296875,-0.265625,1,0,0,6.5546,Andesite_rect,9,0,9,0,1,
65c017a404cde4687fdad22e,TCR,2024-06-24_17h34.40.353,LearnStrategy,2023.2.3,Win32,59.88023952,8,2,11,,,,,,,,1,06,,,,,,,,,,,3,10.375,0,,,,,,0.12109375,-0.247070313,1,0,0,10.3749,Diorite_rect,10,0,10,0,1,
65c017a404cde4687fdad22e,TCR,2024-06-24_17h34.40.353,LearnStrategy,2023.2.3,Win32,59.88023952,8,2,12,,,,,,,,7,05,,,,,,,,,,,1,12.369,0,,,,,,-0.387695313,-0.255859375,1,0,0,12.3691,Andesite_rect,11,0,11,0,1,
65c017a404cde4687fdad22e,TCR,2024-06-24_17h34.40.353,LearnStrategy,2023.2.3,Win32,59.88023952,8,2,13,,,,,,,,3,13,,,,,,,,,,,3,4.774,1,,,,,,0.119140625,-0.254882813,1,0,0,4.774,Diorite_rect,12,0,12,0,1,
65c017a404cde4687fdad22e,TCR,2024-06-24_17h34.40.353,LearnStrategy,2023.2.3,Win32,59.88023952,8,2,14,,,,,,,,1,03,,,,,,,,,,,1,3.097,1,,,,,,-0.390625,-0.243164063,1,0,0,3.0974,Andesite_rect,13,0,13,0,1,
65c017a404cde4687fdad22e,TCR,2024-06-24_17h34.40.353,LearnStrategy,2023.2.3,Win32,59.88023952,8,2,15,,,,,,,,5,10,,,,,,,,,,,5,1.32,1,,,,,,-0.33984375,-0.381835938,1,0,0,1.3202,Obsidian_rect,14,0,14,0,1,
65c017a404cde4687fdad22e,TCR,2024-06-24_17h34.40.353,LearnStrategy,2023.2.3,Win32,59.88023952,8,2,16,,,,,,,,8,09,,,,,,,,,,,8,1.227,1,,,,,,0.405273438,-0.41796875,1,0,0,1.2269,Pumice_rect,15,0,15,0,1,
65c017a404cde4687fdad22e,TCR,2024-06-24_17h34.40.353,LearnStrategy,2023.2.3,Win32,59.88023952,9,1,1,-0.021484375,0.006835938,1,0,0,1.2952,rock_grid_rect_2,7,10,-1,-1,1.295,0.138671875,-0.395507813,1,0,0,1.9475,Peridotite_rect,7,1.948,1,0,0,0,0,1,,,,,,,,,,,,,
65c017a404cde4687fdad22e,TCR,2024-06-24_17h34.40.353,LearnStrategy,2023.2.3,Win32,59.88023952,9,1,2,-0.03125,-0.001953125,1,0,0,1.4834,rock_grid_rect_2,6,13,-1,-1,1.483,0.1484375,-0.2578125,1,0,0,10.2456,Diorite_rect,3,10.246,0,1,0,1,0,1,,,,,,,,,,,,,
65c017a404cde4687fdad22e,TCR,2024-06-24_17h34.40.353,LearnStrategy,2023.2.3,Win32,59.88023952,9,1,3,-0.005859375,0.004882813,1,0,0,1.2069,rock_grid_rect_2,1,11,-1,-1,1.207,-0.390625,-0.244140625,1,0,0,10.2234,Andesite_rect,1,10.223,1,2,0,2,0,1,,,,,,,,,,,,,
65c017a404cde4687fdad22e,TCR,2024-06-24_17h34.40.353,LearnStrategy,2023.2.3,Win32,59.88023952,9,1,4,0.010742188,0.006835938,1,0,0,1.0541,rock_grid_rect_2,7,14,-1,-1,1.054,0.131835938,-0.3984375,1,0,0,3.8955,Peridotite_rect,7,3.896,1,3,0,3,0,1,,,,,,,,,,,,,
65c017a404cde4687fdad22e,TCR,2024-06-24_17h34.40.353,LearnStrategy,2023.2.3,Win32,59.88023952,9,1,5,0.013671875,0.0078125,1,0,0,1.2501,rock_grid_rect_2,2,14,-1,-1,1.25,0.416992188,-0.256835938,1,0,0,7.2794,Gabbro_rect,4,7.279,0,4,0,4,0,1,,,,,,,,,,,,,
65c017a404cde4687fdad22e,TCR,2024-06-24_17h34.40.353,LearnStrategy,2023.2.3,Win32,59.88023952,9,1,6,-0.01171875,0.00390625,1,0,0,1.0809,rock_grid_rect_2,8,05,-1,-1,1.081,0.42578125,-0.391601563,1,0,0,1.9256,Pumice_rect,8,1.926,1,5,0,5,0,1,,,,,,,,,,,,,
65c017a404cde4687fdad22e,TCR,2024-06-24_17h34.40.353,LearnStrategy,2023.2.3,Win32,59.88023952,9,1,7,0.015625,0.005859375,1,0,0,1.0685,rock_grid_rect_2,1,09,-1,-1,1.069,-0.354492188,-0.235351563,1,0,0,3.2975,Andesite_rect,1,3.297,1,6,0,6,0,1,,,,,,,,,,,,,
65c017a404cde4687fdad22e,TCR,2024-06-24_17h34.40.353,LearnStrategy,2023.2.3,Win32,59.88023952,9,1,8,-0.000976563,-0.000976563,1,0,0,0.9542,rock_grid_rect_2,6,10,-1,-1,0.954,-0.109375,-0.404296875,1,0,0,1.5921,Pegmatite_rect,6,1.592,1,7,0,7,0,1,,,,,,,,,,,,,
65c017a404cde4687fdad22e,TCR,2024-06-24_17h34.40.353,LearnStrategy,2023.2.3,Win32,59.88023952,9,1,9,-0.004882813,-0.002929688,1,0,0,0.8768,rock_grid_rect_2,1,02,-1,-1,0.877,0.412109375,-0.24609375,1,0,0,9.2398,Gabbro_rect,4,9.24,0,8,0,8,0,1,,,,,,,,,,,,,
65c017a404cde4687fdad22e,TCR,2024-06-24_17h34.40.353,LearnStrategy,2023.2.3,Win32,59.88023952,9,1,10,0.002929688,-0.009765625,1,0,0,1.2195,rock_grid_rect_2,4,08,-1,-1,1.219,-0.110351563,-0.265625,1,0,0,5.8107,Basalt_rect,2,5.811,0,9,0,9,0,1,,,,,,,,,,,,,
65c017a404cde4687fdad22e,TCR,2024-06-24_17h34.40.353,LearnStrategy,2023.2.3,Win32,59.88023952,9,1,11,0.008789063,-0.001953125,1,0,0,0.882,rock_grid_rect_2,4,11,-1,-1,0.882,0.419921875,-0.233398438,1,0,0,7.7295,Gabbro_rect,4,7.729,1,10,0,10,0,1,,,,,,,,,,,,,
65c017a404cde4687fdad22e,TCR,2024-06-24_17h34.40.353,LearnStrategy,2023.2.3,Win32,59.88023952,9,1,12,0.00390625,0.004882813,1,0,0,0.9075,rock_grid_rect_2,5,09,-1,-1,0.907,-0.38671875,-0.416992188,1,0,0,1.2136,Obsidian_rect,5,1.214,1,11,0,11,0,1,,,,,,,,,,,,,
65c017a404cde4687fdad22e,TCR,2024-06-24_17h34.40.353,LearnStrategy,2023.2.3,Win32,59.88023952,9,1,13,0.008789063,-0.004882813,1,0,0,1.037,rock_grid_rect_2,1,09,-1,-1,1.037,-0.372070313,-0.247070313,1,0,0,3.5389,Andesite_rect,1,3.539,1,12,0,12,0,1,,,,,,,,,,,,,
65c017a404cde4687fdad22e,TCR,2024-06-24_17h34.40.353,LearnStrategy,2023.2.3,Win32,59.88023952,9,1,14,-0.013671875,0.000976563,1,0,0,0.8594,rock_grid_rect_2,3,07,-1,-1,0.859,0.114257813,-0.2578125,1,0,0,3.6014,Diorite_rect,3,3.601,1,13,0,13,0,1,,,,,,,,,,,,,
65c017a404cde4687fdad22e,TCR,2024-06-24_17h34.40.353,LearnStrategy,2023.2.3,Win32,59.88023952,9,1,15,-0.012695313,0.008789063,1,0,0,0.8287,rock_grid_rect_2,3,15,-1,-1,0.829,0.412109375,-0.248046875,1,0,0,7.4421,Gabbro_rect,4,7.442,0,14,0,14,0,1,,,,,,,,,,,,,
65c017a404cde4687fdad22e,TCR,2024-06-24_17h34.40.353,LearnStrategy,2023.2.3,Win32,59.88023952,9,1,16,-0.00390625,0.00390625,1,0,0,1.4771,rock_grid_rect_2,4,11,-1,-1,1.477,-0.118164063,-0.260742188,1,0,0,3.6468,Basalt_rect,2,3.647,0,15,0,15,0,1,,,,,,,,,,,,,
65c017a404cde4687fdad22e,TCR,2024-06-24_17h34.40.353,LearnStrategy,2023.2.3,Win32,59.88023952,9,2,1,,,,,,,,7,04,,,,,,,,,,,7,6.168,1,,,,,,0.060546875,-0.413085938,1,0,0,6.1683,Peridotite_rect,0,0,0,0,1,
65c017a404cde4687fdad22e,TCR,2024-06-24_17h34.40.353,LearnStrategy,2023.2.3,Win32,59.88023952,9,2,2,,,,,,,,8,02,,,,,,,,,,,8,1.644,1,,,,,,0.404296875,-0.400390625,1,0,0,1.6441,Pumice_rect,1,0,1,0,1,
65c017a404cde4687fdad22e,TCR,2024-06-24_17h34.40.353,LearnStrategy,2023.2.3,Win32,59.88023952,9,2,3,,,,,,,,6,05,,,,,,,,,,,4,10.414,0,,,,,,0.401367188,-0.240234375,1,0,0,10.4138,Gabbro_rect,2,0,2,0,1,
65c017a404cde4687fdad22e,TCR,2024-06-24_17h34.40.353,LearnStrategy,2023.2.3,Win32,59.88023952,9,2,4,,,,,,,,5,04,,,,,,,,,,,5,1.331,1,,,,,,-0.3671875,-0.391601563,1,0,0,1.3313,Obsidian_rect,3,0,3,0,1,
65c017a404cde4687fdad22e,TCR,2024-06-24_17h34.40.353,LearnStrategy,2023.2.3,Win32,59.88023952,9,2,5,,,,,,,,3,14,,,,,,,,,,,3,2.722,1,,,,,,0.129882813,-0.259765625,1,0,0,2.7219,Diorite_rect,4,0,4,0,1,
65c017a404cde4687fdad22e,TCR,2024-06-24_17h34.40.353,LearnStrategy,2023.2.3,Win32,59.88023952,9,2,6,,,,,,,,6,12,,,,,,,,,,,3,13.494,0,,,,,,0.139648438,-0.243164063,1,0,0,13.4941,Diorite_rect,5,0,5,0,1,
65c017a404cde4687fdad22e,TCR,2024-06-24_17h34.40.353,LearnStrategy,2023.2.3,Win32,59.88023952,9,2,7,,,,,,,,1,07,,,,,,,,,,,4,5.718,0,,,,,,0.403320313,-0.254882813,1,0,0,5.7181,Gabbro_rect,6,0,6,0,1,
65c017a404cde4687fdad22e,TCR,2024-06-24_17h34.40.353,LearnStrategy,2023.2.3,Win32,59.88023952,9,2,8,,,,,,,,5,16,,,,,,,,,,,5,1.291,1,,,,,,-0.403320313,-0.393554688,1,0,0,1.2913,Obsidian_rect,7,0,7,0,1,
65c017a404cde4687fdad22e,TCR,2024-06-24_17h34.40.353,LearnStrategy,2023.2.3,Win32,59.88023952,9,2,9,,,,,,,,1,10,,,,,,,,,,,4,14.076,0,,,,,,0.467773438,-0.247070313,1,0,0,14.0756,Gabbro_rect,8,0,8,0,1,
65c017a404cde4687fdad22e,TCR,2024-06-24_17h34.40.353,LearnStrategy,2023.2.3,Win32,59.88023952,9,2,10,,,,,,,,7,08,,,,,,,,,,,7,2.452,1,,,,,,0.13671875,-0.415039063,1,0,0,2.4515,Peridotite_rect,9,0,9,0,1,
65c017a404cde4687fdad22e,TCR,2024-06-24_17h34.40.353,LearnStrategy,2023.2.3,Win32,59.88023952,9,2,11,,,,,,,,4,05,,,,,,,,,,,1,14.345,0,,,,,,-0.439453125,-0.235351563,1,0,0,14.3451,Andesite_rect,10,0,10,0,1,
65c017a404cde4687fdad22e,TCR,2024-06-24_17h34.40.353,LearnStrategy,2023.2.3,Win32,59.88023952,9,2,12,,,,,,,,4,13,,,,,,,,,,,4,5.19,1,,,,,,0.408203125,-0.252929688,1,0,0,5.1896,Gabbro_rect,11,0,11,0,1,
65c017a404cde4687fdad22e,TCR,2024-06-24_17h34.40.353,LearnStrategy,2023.2.3,Win32,59.88023952,9,2,13,,,,,,,,3,09,,,,,,,,,,,3,3.154,1,,,,,,0.125,-0.237304688,1,0,0,3.1542,Diorite_rect,12,0,12,0,1,
65c017a404cde4687fdad22e,TCR,2024-06-24_17h34.40.353,LearnStrategy,2023.2.3,Win32,59.88023952,9,2,14,,,,,,,,8,13,,,,,,,,,,,8,1.593,1,,,,,,0.380859375,-0.390625,1,0,0,1.593,Pumice_rect,13,0,13,0,1,
65c017a404cde4687fdad22e,TCR,2024-06-24_17h34.40.353,LearnStrategy,2023.2.3,Win32,59.88023952,9,2,15,,,,,,,,2,01,,,,,,,,,,,2,1.677,1,,,,,,-0.140625,-0.248046875,1,0,0,1.6772,Basalt_rect,14,0,14,0,1,
65c017a404cde4687fdad22e,TCR,2024-06-24_17h34.40.353,LearnStrategy,2023.2.3,Win32,59.88023952,9,2,16,,,,,,,,2,02,,,,,,,,,,,4,6.671,0,,,,,,0.385742188,-0.244140625,1,0,0,6.6712,Gabbro_rect,15,0,15,0,1,
65c017a404cde4687fdad22e,TCR,2024-06-24_17h34.40.353,LearnStrategy,2023.2.3,Win32,59.88023952,,,,,,,,,,,,,,,,,,,,,,,,,,,,,,,,,,,,,,,,,,,1
65c017a404cde4687fdad22e,TCR,2024-06-24_17h34.40.353,LearnStrategy,2023.2.3,Win32,59.88023952,,,,,,,,,,,,,,,,,,,,,,,,,,,,,,,,,,,,,,,,,,,
65c017a404cde4687fdad22e,TCR,2024-06-24_17h34.40.353,LearnStrategy,2023.2.3,Win32,59.88023952,,,,,,,,,,,8,05,1,1,,,,,,,,,,,,,,,,,,,,,,,,,,,,,
65c017a404cde4687fdad22e,TCR,2024-06-24_17h34.40.353,LearnStrategy,2023.2.3,Win32,59.88023952,,,,,,,,,,,1,09,1,2,,,,,,,,,,,,,,,,,,,,,,,,,,,,,
65c017a404cde4687fdad22e,TCR,2024-06-24_17h34.40.353,LearnStrategy,2023.2.3,Win32,59.88023952,,,,,,,,,,,7,07,1,3,,,,,,,,,,,,,,,,,,,,,,,,,,,,,
65c017a404cde4687fdad22e,TCR,2024-06-24_17h34.40.353,LearnStrategy,2023.2.3,Win32,59.88023952,,,,,,,,,,,1,04,1,4,,,,,,,,,,,,,,,,,,,,,,,,,,,,,
65c017a404cde4687fdad22e,TCR,2024-06-24_17h34.40.353,LearnStrategy,2023.2.3,Win32,59.88023952,,,,,,,,,,,8,15,1,5,,,,,,,,,,,,,,,,,,,,,,,,,,,,,
65c017a404cde4687fdad22e,TCR,2024-06-24_17h34.40.353,LearnStrategy,2023.2.3,Win32,59.88023952,,,,,,,,,,,7,12,1,6,,,,,,,,,,,,,,,,,,,,,,,,,,,,,
65c017a404cde4687fdad22e,TCR,2024-06-24_17h34.40.353,LearnStrategy,2023.2.3,Win32,59.88023952,,,,,,,,,,,5,09,1,7,,,,,,,,,,,,,,,,,,,,,,,,,,,,,
65c017a404cde4687fdad22e,TCR,2024-06-24_17h34.40.353,LearnStrategy,2023.2.3,Win32,59.88023952,,,,,,,,,,,1,11,1,8,,,,,,,,,,,,,,,,,,,,,,,,,,,,,
65c017a404cde4687fdad22e,TCR,2024-06-24_17h34.40.353,LearnStrategy,2023.2.3,Win32,59.88023952,,,,,,,,,,,2,10,2,1,,,,,,,,,,,,,,,,,,,,,,,,,,,,,
65c017a404cde4687fdad22e,TCR,2024-06-24_17h34.40.353,LearnStrategy,2023.2.3,Win32,59.88023952,,,,,,,,,,,5,08,2,2,,,,,,,,,,,,,,,,,,,,,,,,,,,,,
65c017a404cde4687fdad22e,TCR,2024-06-24_17h34.40.353,LearnStrategy,2023.2.3,Win32,59.88023952,,,,,,,,,,,7,14,2,3,,,,,,,,,,,,,,,,,,,,,,,,,,,,,
65c017a404cde4687fdad22e,TCR,2024-06-24_17h34.40.353,LearnStrategy,2023.2.3,Win32,59.88023952,,,,,,,,,,,6,08,2,4,,,,,,,,,,,,,,,,,,,,,,,,,,,,,
65c017a404cde4687fdad22e,TCR,2024-06-24_17h34.40.353,LearnStrategy,2023.2.3,Win32,59.88023952,,,,,,,,,,,6,13,2,5,,,,,,,,,,,,,,,,,,,,,,,,,,,,,
65c017a404cde4687fdad22e,TCR,2024-06-24_17h34.40.353,LearnStrategy,2023.2.3,Win32,59.88023952,,,,,,,,,,,2,11,2,6,,,,,,,,,,,,,,,,,,,,,,,,,,,,,
65c017a404cde4687fdad22e,TCR,2024-06-24_17h34.40.353,LearnStrategy,2023.2.3,Win32,59.88023952,,,,,,,,,,,8,08,2,7,,,,,,,,,,,,,,,,,,,,,,,,,,,,,
65c017a404cde4687fdad22e,TCR,2024-06-24_17h34.40.353,LearnStrategy,2023.2.3,Win32,59.88023952,,,,,,,,,,,5,07,2,8,,,,,,,,,,,,,,,,,,,,,,,,,,,,,
65c017a404cde4687fdad22e,TCR,2024-06-24_17h34.40.353,LearnStrategy,2023.2.3,Win32,59.88023952,,,,,,,,,,,3,16,3,1,,,,,,,,,,,,,,,,,,,,,,,,,,,,,
65c017a404cde4687fdad22e,TCR,2024-06-24_17h34.40.353,LearnStrategy,2023.2.3,Win32,59.88023952,,,,,,,,,,,6,10,3,2,,,,,,,,,,,,,,,,,,,,,,,,,,,,,
65c017a404cde4687fdad22e,TCR,2024-06-24_17h34.40.353,LearnStrategy,2023.2.3,Win32,59.88023952,,,,,,,,,,,7,16,3,3,,,,,,,,,,,,,,,,,,,,,,,,,,,,,
65c017a404cde4687fdad22e,TCR,2024-06-24_17h34.40.353,LearnStrategy,2023.2.3,Win32,59.88023952,,,,,,,,,,,4,11,3,4,,,,,,,,,,,,,,,,,,,,,,,,,,,,,
65c017a404cde4687fdad22e,TCR,2024-06-24_17h34.40.353,LearnStrategy,2023.2.3,Win32,59.88023952,,,,,,,,,,,5,06,3,5,,,,,,,,,,,,,,,,,,,,,,,,,,,,,
65c017a404cde4687fdad22e,TCR,2024-06-24_17h34.40.353,LearnStrategy,2023.2.3,Win32,59.88023952,,,,,,,,,,,4,08,3,6,,,,,,,,,,,,,,,,,,,,,,,,,,,,,
65c017a404cde4687fdad22e,TCR,2024-06-24_17h34.40.353,LearnStrategy,2023.2.3,Win32,59.88023952,,,,,,,,,,,7,02,3,7,,,,,,,,,,,,,,,,,,,,,,,,,,,,,
65c017a404cde4687fdad22e,TCR,2024-06-24_17h34.40.353,LearnStrategy,2023.2.3,Win32,59.88023952,,,,,,,,,,,4,03,3,8,,,,,,,,,,,,,,,,,,,,,,,,,,,,,
65c017a404cde4687fdad22e,TCR,2024-06-24_17h34.40.353,LearnStrategy,2023.2.3,Win32,59.88023952,,,,,,,,,,,3,11,4,1,,,,,,,,,,,,,,,,,,,,,,,,,,,,,
65c017a404cde4687fdad22e,TCR,2024-06-24_17h34.40.353,LearnStrategy,2023.2.3,Win32,59.88023952,,,,,,,,,,,8,14,4,2,,,,,,,,,,,,,,,,,,,,,,,,,,,,,
65c017a404cde4687fdad22e,TCR,2024-06-24_17h34.40.353,LearnStrategy,2023.2.3,Win32,59.88023952,,,,,,,,,,,2,14,4,3,,,,,,,,,,,,,,,,,,,,,,,,,,,,,
65c017a404cde4687fdad22e,TCR,2024-06-24_17h34.40.353,LearnStrategy,2023.2.3,Win32,59.88023952,,,,,,,,,,,3,06,4,4,,,,,,,,,,,,,,,,,,,,,,,,,,,,,
65c017a404cde4687fdad22e,TCR,2024-06-24_17h34.40.353,LearnStrategy,2023.2.3,Win32,59.88023952,,,,,,,,,,,2,09,4,5,,,,,,,,,,,,,,,,,,,,,,,,,,,,,
65c017a404cde4687fdad22e,TCR,2024-06-24_17h34.40.353,LearnStrategy,2023.2.3,Win32,59.88023952,,,,,,,,,,,3,12,4,6,,,,,,,,,,,,,,,,,,,,,,,,,,,,,
65c017a404cde4687fdad22e,TCR,2024-06-24_17h34.40.353,LearnStrategy,2023.2.3,Win32,59.88023952,,,,,,,,,,,6,06,4,7,,,,,,,,,,,,,,,,,,,,,,,,,,,,,
65c017a404cde4687fdad22e,TCR,2024-06-24_17h34.40.353,LearnStrategy,2023.2.3,Win32,59.88023952,,,,,,,,,,,2,05,4,8,,,,,,,,,,,,,,,,,,,,,,,,,,,,,
65c017a404cde4687fdad22e,TCR,2024-06-24_17h34.40.353,LearnStrategy,2023.2.3,Win32,59.88023952,,,,,,,,,,,8,03,5,1,,,,,,,,,,,,,,,,,,,,,,,,,,,,,
65c017a404cde4687fdad22e,TCR,2024-06-24_17h34.40.353,LearnStrategy,2023.2.3,Win32,59.88023952,,,,,,,,,,,4,16,5,2,,,,,,,,,,,,,,,,,,,,,,,,,,,,,
65c017a404cde4687fdad22e,TCR,2024-06-24_17h34.40.353,LearnStrategy,2023.2.3,Win32,59.88023952,,,,,,,,,,,3,07,5,3,,,,,,,,,,,,,,,,,,,,,,,,,,,,,
65c017a404cde4687fdad22e,TCR,2024-06-24_17h34.40.353,LearnStrategy,2023.2.3,Win32,59.88023952,,,,,,,,,,,7,10,5,4,,,,,,,,,,,,,,,,,,,,,,,,,,,,,
65c017a404cde4687fdad22e,TCR,2024-06-24_17h34.40.353,LearnStrategy,2023.2.3,Win32,59.88023952,,,,,,,,,,,1,01,5,5,,,,,,,,,,,,,,,,,,,,,,,,,,,,,
65c017a404cde4687fdad22e,TCR,2024-06-24_17h34.40.353,LearnStrategy,2023.2.3,Win32,59.88023952,,,,,,,,,,,4,10,5,6,,,,,,,,,,,,,,,,,,,,,,,,,,,,,
65c017a404cde4687fdad22e,TCR,2024-06-24_17h34.40.353,LearnStrategy,2023.2.3,Win32,59.88023952,,,,,,,,,,,4,15,5,7,,,,,,,,,,,,,,,,,,,,,,,,,,,,,
65c017a404cde4687fdad22e,TCR,2024-06-24_17h34.40.353,LearnStrategy,2023.2.3,Win32,59.88023952,,,,,,,,,,,8,06,5,8,,,,,,,,,,,,,,,,,,,,,,,,,,,,,
65c017a404cde4687fdad22e,TCR,2024-06-24_17h34.40.353,LearnStrategy,2023.2.3,Win32,59.88023952,,,,,,,,,,,6,07,6,1,,,,,,,,,,,,,,,,,,,,,,,,,,,,,
65c017a404cde4687fdad22e,TCR,2024-06-24_17h34.40.353,LearnStrategy,2023.2.3,Win32,59.88023952,,,,,,,,,,,2,06,6,2,,,,,,,,,,,,,,,,,,,,,,,,,,,,,
65c017a404cde4687fdad22e,TCR,2024-06-24_17h34.40.353,LearnStrategy,2023.2.3,Win32,59.88023952,,,,,,,,,,,5,02,6,3,,,,,,,,,,,,,,,,,,,,,,,,,,,,,
65c017a404cde4687fdad22e,TCR,2024-06-24_17h34.40.353,LearnStrategy,2023.2.3,Win32,59.88023952,,,,,,,,,,,6,03,6,4,,,,,,,,,,,,,,,,,,,,,,,,,,,,,
65c017a404cde4687fdad22e,TCR,2024-06-24_17h34.40.353,LearnStrategy,2023.2.3,Win32,59.88023952,,,,,,,,,,,1,16,6,5,,,,,,,,,,,,,,,,,,,,,,,,,,,,,
65c017a404cde4687fdad22e,TCR,2024-06-24_17h34.40.353,LearnStrategy,2023.2.3,Win32,59.88023952,,,,,,,,,,,1,02,6,6,,,,,,,,,,,,,,,,,,,,,,,,,,,,,
65c017a404cde4687fdad22e,TCR,2024-06-24_17h34.40.353,LearnStrategy,2023.2.3,Win32,59.88023952,,,,,,,,,,,3,15,6,7,,,,,,,,,,,,,,,,,,,,,,,,,,,,,
65c017a404cde4687fdad22e,TCR,2024-06-24_17h34.40.353,LearnStrategy,2023.2.3,Win32,59.88023952,,,,,,,,,,,5,11,6,8,,,,,,,,,,,,,,,,,,,,,,,,,,,,,