participant,condition,date,expName,psychopyVersion,OS,frameRate,block,phase,trial,learn_mouse.x,learn_mouse.y,learn_mouse.leftButton,learn_mouse.midButton,learn_mouse.rightButton,learn_mouse.time,learn_mouse.clicked_name,cat,token,row,col,t_select,cat_mouse_l.x,cat_mouse_l.y,cat_mouse_l.leftButton,cat_mouse_l.midButton,cat_mouse_l.rightButton,cat_mouse_l.time,cat_mouse_l.clicked_name,resp,t_resp,corr,train_trials.thisRepN,train_trials.thisTrialN,train_trials.thisN,train_trials.thisIndex,train_trials.ran,cat_mouse_t.x,cat_mouse_t.y,cat_mouse_t.leftButton,cat_mouse_t.midButton,cat_mouse_t.rightButton,cat_mouse_t.time,cat_mouse_t.clicked_name,test_trials.thisRepN,test_trials.thisTrialN,test_trials.thisN,test_trials.thisIndex,test_trials.ran,Bonus
65c11f6098be0f40918869d2,SCN,2024-06-24_18h05.04.966,LearnStrategy,2023.2.3,Win32,29.9832094,,,,,,,,,,,,,,,,,,,,,,,,,,,,,,,,,,,,,,,,,,,
65c11f6098be0f40918869d2,SCN,2024-06-24_18h05.04.966,LearnStrategy,2023.2.3,Win32,29.9832094,1,1,1,-0.061197917,0.06640625,1,0,0,6.9605,Obsidian_06,5,06,4,4,6.96,0.174479167,-0.384114583,1,0,0,7.7132,Peridotite_rect,7,7.713,0,0,0,0,0,1,,,,,,,,,,,,,
65c11f6098be0f40918869d2,SCN,2024-06-24_18h05.04.966,LearnStrategy,2023.2.3,Win32,29.9832094,1,1,2,0.05078125,0.092447917,1,0,0,1.9734,Obsidian_07,5,07,4,5,1.973,-0.390625,-0.407552083,1,0,0,6.8449,Obsidian_rect,5,6.845,1,1,0,1,0,1,,,,,,,,,,,,,
65c11f6098be0f40918869d2,SCN,2024-06-24_18h05.04.966,LearnStrategy,2023.2.3,Win32,29.9832094,1,1,3,-0.537760417,0.37109375,1,0,0,3.1514,Pumice_09,8,09,6,1,3.151,0.352864583,-0.390625,1,0,0,2.8811,Pumice_rect,8,2.881,1,2,0,2,0,1,,,,,,,,,,,,,
65c11f6098be0f40918869d2,SCN,2024-06-24_18h05.04.966,LearnStrategy,2023.2.3,Win32,29.9832094,1,1,4,-0.53125,0.240885417,1,0,0,1.5002,Obsidian_02,5,02,5,1,1.5,0.122395833,-0.264322917,1,0,0,5.4892,Diorite_rect,3,5.489,0,3,0,3,0,1,,,,,,,,,,,,,
65c11f6098be0f40918869d2,SCN,2024-06-24_18h05.04.966,LearnStrategy,2023.2.3,Win32,29.9832094,1,1,5,-0.51171875,0.061197917,1,0,0,2.8303,Peridotite_06,7,06,4,1,2.83,-0.209635417,-0.251302083,1,0,0,4.4162,Basalt_rect,2,4.416,0,4,0,4,0,1,,,,,,,,,,,,,
65c11f6098be0f40918869d2,SCN,2024-06-24_18h05.04.966,LearnStrategy,2023.2.3,Win32,29.9832094,1,1,6,-0.55859375,-0.140625,1,0,0,2.0466,Peridotite_16,7,16,3,1,2.047,0.083333333,-0.421875,1,0,0,2.6138,Peridotite_rect,7,2.614,1,5,0,5,0,1,,,,,,,,,,,,,
65c11f6098be0f40918869d2,SCN,2024-06-24_18h05.04.966,LearnStrategy,2023.2.3,Win32,29.9832094,1,1,7,-0.51171875,-0.2890625,1,0,0,1.7162,Obsidian_11,5,11,2,1,1.716,-0.3984375,-0.403645833,1,0,0,3.0474,Obsidian_rect,5,3.047,1,6,0,6,0,1,,,,,,,,,,,,,
65c11f6098be0f40918869d2,SCN,2024-06-24_18h05.04.966,LearnStrategy,2023.2.3,Win32,29.9832094,1,1,8,-0.544270833,-0.40234375,1,0,0,1.5098,Diorite_15,3,15,1,1,1.51,0.390625,-0.415364583,1,0,0,1.8034,Pumice_rect,8,1.803,0,7,0,7,0,1,,,,,,,,,,,,,
65c11f6098be0f40918869d2,SCN,2024-06-24_18h05.04.966,LearnStrategy,2023.2.3,Win32,29.9832094,1,1,9,-0.375,-0.40625,1,0,0,2.6259,Basalt_08,2,08,1,2,2.626,-0.200520833,-0.401041667,1,0,0,2.6919,Pegmatite_rect,6,2.692,0,8,0,8,0,1,,,,,,,,,,,,,
65c11f6098be0f40918869d2,SCN,2024-06-24_18h05.04.966,LearnStrategy,2023.2.3,Win32,29.9832094,1,1,10,-0.35546875,-0.274739583,1,0,0,1.5368,Obsidian_14,5,14,2,2,1.537,-0.3828125,-0.401041667,1,0,0,1.8777,Obsidian_rect,5,1.878,1,9,0,9,0,1,,,,,,,,,,,,,
65c11f6098be0f40918869d2,SCN,2024-06-24_18h05.04.966,LearnStrategy,2023.2.3,Win32,29.9832094,1,1,11,-0.240885417,-0.440104167,1,0,0,1.5562,Diorite_02,3,02,1,3,1.556,0.084635417,-0.388020833,1,0,0,6.8308,Peridotite_rect,7,6.831,0,10,0,10,0,1,,,,,,,,,,,,,
65c11f6098be0f40918869d2,SCN,2024-06-24_18h05.04.966,LearnStrategy,2023.2.3,Win32,29.9832094,1,1,12,-0.209635417,-0.416666667,1,0,0,2.8269,Diorite_02,3,02,1,3,2.827,0.119791667,-0.252604167,1,0,0,2.1341,Diorite_rect,3,2.134,1,11,0,11,0,1,,,,,,,,,,,,,
65c11f6098be0f40918869d2,SCN,2024-06-24_18h05.04.966,LearnStrategy,2023.2.3,Win32,29.9832094,1,1,13,-0.065104167,-0.407552083,1,0,0,1.8713,Andesite_07,1,07,1,4,1.871,0.15234375,-0.248697917,1,0,0,1.4762,Diorite_rect,3,1.476,0,12,0,12,0,1,,,,,,,,,,,,,
65c11f6098be0f40918869d2,SCN,2024-06-24_18h05.04.966,LearnStrategy,2023.2.3,Win32,29.9832094,1,1,14,0.545572917,-0.423177083,1,0,0,3.477,Diorite_08,3,08,1,8,3.477,0.130208333,-0.24609375,1,0,0,1.8489,Diorite_rect,3,1.849,1,13,0,13,0,1,,,,,,,,,,,,,
65c11f6098be0f40918869d2,SCN,2024-06-24_18h05.04.966,LearnStrategy,2023.2.3,Win32,29.9832094,1,1,15,0.373697917,0.1015625,1,0,0,2.0418,Diorite_07,3,07,4,7,2.042,-0.345052083,-0.244791667,1,0,0,2.6629,Andesite_rect,1,2.663,0,14,0,14,0,1,,,,,,,,,,,,,
65c11f6098be0f40918869d2,SCN,2024-06-24_18h05.04.966,LearnStrategy,2023.2.3,Win32,29.9832094,1,1,16,0.239583333,0.114583333,1,0,0,1.4511,Pegmatite_03,6,03,4,6,1.451,-0.096354167,-0.416666667,1,0,0,2.8262,Pegmatite_rect,6,2.826,1,15,0,15,0,1,,,,,,,,,,,,,
65c11f6098be0f40918869d2,SCN,2024-06-24_18h05.04.966,LearnStrategy,2023.2.3,Win32,29.9832094,1,2,1,,,,,,,,1,14,,,,,,,,,,,7,11.342,0,,,,,,0.145833333,-0.401041667,1,0,0,11.342,Peridotite_rect,0,0,0,0,1,
65c11f6098be0f40918869d2,SCN,2024-06-24_18h05.04.966,LearnStrategy,2023.2.3,Win32,29.9832094,1,2,2,,,,,,,,3,16,,,,,,,,,,,3,8.644,1,,,,,,0.06640625,-0.252604167,1,0,0,8.6439,Diorite_rect,1,0,1,0,1,
65c11f6098be0f40918869d2,SCN,2024-06-24_18h05.04.966,LearnStrategy,2023.2.3,Win32,29.9832094,1,2,3,,,,,,,,2,10,,,,,,,,,,,4,4.728,0,,,,,,0.369791667,-0.26171875,1,0,0,4.7278,Gabbro_rect,2,0,2,0,1,
65c11f6098be0f40918869d2,SCN,2024-06-24_18h05.04.966,LearnStrategy,2023.2.3,Win32,29.9832094,1,2,4,,,,,,,,2,02,,,,,,,,,,,4,2.872,0,,,,,,0.369791667,-0.26171875,1,0,0,2.8722,Gabbro_rect,3,0,3,0,1,
65c11f6098be0f40918869d2,SCN,2024-06-24_18h05.04.966,LearnStrategy,2023.2.3,Win32,29.9832094,1,2,5,,,,,,,,7,07,,,,,,,,,,,2,5.116,0,,,,,,-0.125,-0.248697917,1,0,0,5.1159,Basalt_rect,4,0,4,0,1,
65c11f6098be0f40918869d2,SCN,2024-06-24_18h05.04.966,LearnStrategy,2023.2.3,Win32,29.9832094,1,2,6,,,,,,,,5,08,,,,,,,,,,,5,2.802,1,,,,,,-0.41015625,-0.404947917,1,0,0,2.8023,Obsidian_rect,5,0,5,0,1,
65c11f6098be0f40918869d2,SCN,2024-06-24_18h05.04.966,LearnStrategy,2023.2.3,Win32,29.9832094,1,2,7,,,,,,,,8,16,,,,,,,,,,,8,2.361,1,,,,,,0.377604167,-0.407552083,1,0,0,2.3608,Pumice_rect,6,0,6,0,1,
65c11f6098be0f40918869d2,SCN,2024-06-24_18h05.04.966,LearnStrategy,2023.2.3,Win32,29.9832094,1,2,8,,,,,,,,8,05,,,,,,,,,,,8,0.92,1,,,,,,0.377604167,-0.407552083,1,0,0,0.9196,Pumice_rect,7,0,7,0,1,
65c11f6098be0f40918869d2,SCN,2024-06-24_18h05.04.966,LearnStrategy,2023.2.3,Win32,29.9832094,1,2,9,,,,,,,,5,09,,,,,,,,,,,5,1.953,1,,,,,,-0.342447917,-0.397135417,1,0,0,1.953,Obsidian_rect,8,0,8,0,1,
65c11f6098be0f40918869d2,SCN,2024-06-24_18h05.04.966,LearnStrategy,2023.2.3,Win32,29.9832094,1,2,10,,,,,,,,6,07,,,,,,,,,,,6,9.378,1,,,,,,-0.024739583,-0.3828125,1,0,0,9.3783,Pegmatite_rect,9,0,9,0,1,
65c11f6098be0f40918869d2,SCN,2024-06-24_18h05.04.966,LearnStrategy,2023.2.3,Win32,29.9832094,1,2,11,,,,,,,,7,13,,,,,,,,,,,7,2.323,1,,,,,,0.095052083,-0.3984375,1,0,0,2.3231,Peridotite_rect,10,0,10,0,1,
65c11f6098be0f40918869d2,SCN,2024-06-24_18h05.04.966,LearnStrategy,2023.2.3,Win32,29.9832094,1,2,12,,,,,,,,1,01,,,,,,,,,,,2,2.228,0,,,,,,-0.055989583,-0.256510417,1,0,0,2.2275,Basalt_rect,11,0,11,0,1,
65c11f6098be0f40918869d2,SCN,2024-06-24_18h05.04.966,LearnStrategy,2023.2.3,Win32,29.9832094,1,2,13,,,,,,,,4,16,,,,,,,,,,,4,2.765,1,,,,,,0.48828125,-0.24609375,1,0,0,2.7653,Gabbro_rect,12,0,12,0,1,
65c11f6098be0f40918869d2,SCN,2024-06-24_18h05.04.966,LearnStrategy,2023.2.3,Win32,29.9832094,1,2,14,,,,,,,,3,10,,,,,,,,,,,2,2.159,0,,,,,,-0.088541667,-0.25390625,1,0,0,2.1588,Basalt_rect,13,0,13,0,1,
65c11f6098be0f40918869d2,SCN,2024-06-24_18h05.04.966,LearnStrategy,2023.2.3,Win32,29.9832094,1,2,15,,,,,,,,4,01,,,,,,,,,,,6,3.733,0,,,,,,-0.053385417,-0.390625,1,0,0,3.7328,Pegmatite_rect,14,0,14,0,1,
65c11f6098be0f40918869d2,SCN,2024-06-24_18h05.04.966,LearnStrategy,2023.2.3,Win32,29.9832094,1,2,16,,,,,,,,6,15,,,,,,,,,,,5,2.68,0,,,,,,-0.337239583,-0.411458333,1,0,0,2.6803,Obsidian_rect,15,0,15,0,1,
65c11f6098be0f40918869d2,SCN,2024-06-24_18h05.04.966,LearnStrategy,2023.2.3,Win32,29.9832094,2,1,1,0.397135417,0.397135417,1,0,0,4.9387,Pegmatite_06,6,06,6,7,4.939,0.423177083,-0.252604167,1,0,0,3.5606,Gabbro_rect,4,3.561,0,0,0,0,0,1,,,,,,,,,,,,,
65c11f6098be0f40918869d2,SCN,2024-06-24_18h05.04.966,LearnStrategy,2023.2.3,Win32,29.9832094,2,1,2,0.247395833,-0.2578125,1,0,0,2.2714,Pegmatite_10,6,10,2,6,2.271,-0.364583333,-0.407552083,1,0,0,1.8979,Obsidian_rect,5,1.898,0,1,0,1,0,1,,,,,,,,,,,,,
65c11f6098be0f40918869d2,SCN,2024-06-24_18h05.04.966,LearnStrategy,2023.2.3,Win32,29.9832094,2,1,3,-0.369791667,0.243489583,1,0,0,3.1468,Pegmatite_13,6,13,5,2,3.147,-0.104166667,-0.399739583,1,0,0,2.8127,Pegmatite_rect,6,2.813,1,2,0,2,0,1,,,,,,,,,,,,,
65c11f6098be0f40918869d2,SCN,2024-06-24_18h05.04.966,LearnStrategy,2023.2.3,Win32,29.9832094,2,1,4,0.259114583,-0.272135417,1,0,0,3.8062,Pegmatite_10,6,10,2,6,3.806,-0.135416667,-0.38671875,1,0,0,1.7328,Pegmatite_rect,6,1.733,1,3,0,3,0,1,,,,,,,,,,,,,
65c11f6098be0f40918869d2,SCN,2024-06-24_18h05.04.966,LearnStrategy,2023.2.3,Win32,29.9832094,2,1,5,0.388020833,0.1015625,1,0,0,2.5044,Diorite_07,3,07,4,7,2.504,-0.125,-0.23046875,1,0,0,2.9669,Basalt_rect,2,2.967,0,4,0,4,0,1,,,,,,,,,,,,,
65c11f6098be0f40918869d2,SCN,2024-06-24_18h05.04.966,LearnStrategy,2023.2.3,Win32,29.9832094,2,1,6,-0.395833333,0.096354167,1,0,0,2.867,Pegmatite_16,6,16,4,2,2.867,0.131510417,-0.26171875,1,0,0,2.3183,Diorite_rect,3,2.318,0,5,0,5,0,1,,,,,,,,,,,,,
65c11f6098be0f40918869d2,SCN,2024-06-24_18h05.04.966,LearnStrategy,2023.2.3,Win32,29.9832094,2,1,7,-0.373697917,0.26171875,1,0,0,1.4848,Pegmatite_13,6,13,5,2,1.485,-0.109375,-0.416666667,1,0,0,1.791,Pegmatite_rect,6,1.791,1,6,0,6,0,1,,,,,,,,,,,,,
65c11f6098be0f40918869d2,SCN,2024-06-24_18h05.04.966,LearnStrategy,2023.2.3,Win32,29.9832094,2,1,8,0.075520833,0.252604167,1,0,0,3.0141,Andesite_03,1,03,5,5,3.014,0.401041667,-0.26171875,1,0,0,2.5889,Gabbro_rect,4,2.589,0,7,0,7,0,1,,,,,,,,,,,,,
65c11f6098be0f40918869d2,SCN,2024-06-24_18h05.04.966,LearnStrategy,2023.2.3,Win32,29.9832094,2,1,9,0.08984375,0.4140625,1,0,0,2.1652,Basalt_01,2,01,6,5,2.165,-0.375,-0.235677083,1,0,0,2.7255,Andesite_rect,1,2.726,0,8,0,8,0,1,,,,,,,,,,,,,
65c11f6098be0f40918869d2,SCN,2024-06-24_18h05.04.966,LearnStrategy,2023.2.3,Win32,29.9832094,2,1,10,0.071614583,-0.415364583,1,0,0,2.2221,Andesite_10,1,10,1,5,2.222,0.373697917,-0.411458333,1,0,0,1.5879,Pumice_rect,8,1.588,0,9,0,9,0,1,,,,,,,,,,,,,
65c11f6098be0f40918869d2,SCN,2024-06-24_18h05.04.966,LearnStrategy,2023.2.3,Win32,29.9832094,2,1,11,0.259114583,-0.41796875,1,0,0,3.1503,Pumice_04,8,04,1,6,3.15,0.317708333,-0.40625,1,0,0,1.6596,Pumice_rect,8,1.66,1,10,0,10,0,1,,,,,,,,,,,,,
65c11f6098be0f40918869d2,SCN,2024-06-24_18h05.04.966,LearnStrategy,2023.2.3,Win32,29.9832094,2,1,12,0.53515625,-0.08203125,1,0,0,4.1569,Basalt_11,2,11,3,8,4.157,-0.411458333,-0.259114583,1,0,0,2.8755,Andesite_rect,1,2.875,0,11,0,11,0,1,,,,,,,,,,,,,
65c11f6098be0f40918869d2,SCN,2024-06-24_18h05.04.966,LearnStrategy,2023.2.3,Win32,29.9832094,2,1,13,0.423177083,0.244791667,1,0,0,2.8739,Basalt_14,2,14,5,7,2.874,0.397135417,-0.39453125,1,0,0,3.5772,Pumice_rect,8,3.577,0,12,0,12,0,1,,,,,,,,,,,,,
65c11f6098be0f40918869d2,SCN,2024-06-24_18h05.04.966,LearnStrategy,2023.2.3,Win32,29.9832094,2,1,14,-0.05859375,-0.09765625,1,0,0,2.7749,Pumice_08,8,08,3,4,2.775,0.373697917,-0.244791667,1,0,0,3.3569,Gabbro_rect,4,3.357,0,13,0,13,0,1,,,,,,,,,,,,,
65c11f6098be0f40918869d2,SCN,2024-06-24_18h05.04.966,LearnStrategy,2023.2.3,Win32,29.9832094,2,1,15,-0.21875,0.243489583,1,0,0,1.7401,Pumice_14,8,14,5,3,1.74,0.397135417,-0.397135417,1,0,0,3.7768,Pumice_rect,8,3.777,1,14,0,14,0,1,,,,,,,,,,,,,
65c11f6098be0f40918869d2,SCN,2024-06-24_18h05.04.966,LearnStrategy,2023.2.3,Win32,29.9832094,2,1,16,0.552083333,-0.23046875,1,0,0,4.3844,Gabbro_12,4,12,2,8,4.384,0.41796875,-0.256510417,1,0,0,2.4692,Gabbro_rect,4,2.469,1,15,0,15,0,1,,,,,,,,,,,,,
65c11f6098be0f40918869d2,SCN,2024-06-24_18h05.04.966,LearnStrategy,2023.2.3,Win32,29.9832094,2,2,1,,,,,,,,8,13,,,,,,,,,,,8,3.31,1,,,,,,0.348958333,-0.411458333,1,0,0,3.3095,Pumice_rect,0,0,0,0,1,
65c11f6098be0f40918869d2,SCN,2024-06-24_18h05.04.966,LearnStrategy,2023.2.3,Win32,29.9832094,2,2,2,,,,,,,,3,11,,,,,,,,,,,3,5.673,1,,,,,,0.095052083,-0.25,1,0,0,5.6728,Diorite_rect,1,0,1,0,1,
65c11f6098be0f40918869d2,SCN,2024-06-24_18h05.04.966,LearnStrategy,2023.2.3,Win32,29.9832094,2,2,3,,,,,,,,8,02,,,,,,,,,,,8,1.859,1,,,,,,0.369791667,-0.3828125,1,0,0,1.8586,Pumice_rect,2,0,2,0,1,
65c11f6098be0f40918869d2,SCN,2024-06-24_18h05.04.966,LearnStrategy,2023.2.3,Win32,29.9832094,2,2,4,,,,,,,,3,12,,,,,,,,,,,3,4.889,1,,,,,,0.12890625,-0.259114583,1,0,0,4.8895,Diorite_rect,3,0,3,0,1,
65c11f6098be0f40918869d2,SCN,2024-06-24_18h05.04.966,LearnStrategy,2023.2.3,Win32,29.9832094,2,2,5,,,,,,,,6,05,,,,,,,,,,,6,4.09,1,,,,,,-0.09375,-0.403645833,1,0,0,4.0901,Pegmatite_rect,4,0,4,0,1,
65c11f6098be0f40918869d2,SCN,2024-06-24_18h05.04.966,LearnStrategy,2023.2.3,Win32,29.9832094,2,2,6,,,,,,,,4,13,,,,,,,,,,,6,1.213,0,,,,,,-0.09375,-0.403645833,1,0,0,1.2127,Pegmatite_rect,5,0,5,0,1,
65c11f6098be0f40918869d2,SCN,2024-06-24_18h05.04.966,LearnStrategy,2023.2.3,Win32,29.9832094,2,2,7,,,,,,,,1,02,,,,,,,,,,,2,2.002,0,,,,,,-0.087239583,-0.255208333,1,0,0,2.0024,Basalt_rect,6,0,6,0,1,
65c11f6098be0f40918869d2,SCN,2024-06-24_18h05.04.966,LearnStrategy,2023.2.3,Win32,29.9832094,2,2,8,,,,,,,,6,09,,,,,,,,,,,6,3.234,1,,,,,,-0.158854167,-0.416666667,1,0,0,3.2337,Pegmatite_rect,7,0,7,0,1,
65c11f6098be0f40918869d2,SCN,2024-06-24_18h05.04.966,LearnStrategy,2023.2.3,Win32,29.9832094,2,2,9,,,,,,,,5,12,,,,,,,,,,,5,1.411,1,,,,,,-0.3828125,-0.40234375,1,0,0,1.4114,Obsidian_rect,8,0,8,0,1,
65c11f6098be0f40918869d2,SCN,2024-06-24_18h05.04.966,LearnStrategy,2023.2.3,Win32,29.9832094,2,2,10,,,,,,,,4,15,,,,,,,,,,,7,4.502,0,,,,,,0.075520833,-0.38671875,1,0,0,4.5021,Peridotite_rect,9,0,9,0,1,
65c11f6098be0f40918869d2,SCN,2024-06-24_18h05.04.966,LearnStrategy,2023.2.3,Win32,29.9832094,2,2,11,,,,,,,,7,04,,,,,,,,,,,7,5.887,1,,,,,,0.182291667,-0.389322917,1,0,0,5.887,Peridotite_rect,10,0,10,0,1,
65c11f6098be0f40918869d2,SCN,2024-06-24_18h05.04.966,LearnStrategy,2023.2.3,Win32,29.9832094,2,2,12,,,,,,,,2,12,,,,,,,,,,,8,3.062,0,,,,,,0.403645833,-0.412760417,1,0,0,3.0618,Pumice_rect,11,0,11,0,1,
65c11f6098be0f40918869d2,SCN,2024-06-24_18h05.04.966,LearnStrategy,2023.2.3,Win32,29.9832094,2,2,13,,,,,,,,2,09,,,,,,,,,,,4,2.608,0,,,,,,0.368489583,-0.251302083,1,0,0,2.6081,Gabbro_rect,12,0,12,0,1,
65c11f6098be0f40918869d2,SCN,2024-06-24_18h05.04.966,LearnStrategy,2023.2.3,Win32,29.9832094,2,2,14,,,,,,,,5,16,,,,,,,,,,,5,3.84,1,,,,,,-0.404947917,-0.395833333,1,0,0,3.8401,Obsidian_rect,13,0,13,0,1,
65c11f6098be0f40918869d2,SCN,2024-06-24_18h05.04.966,LearnStrategy,2023.2.3,Win32,29.9832094,2,2,15,,,,,,,,7,15,,,,,,,,,,,2,5.404,0,,,,,,-0.083333333,-0.23828125,1,0,0,5.4043,Basalt_rect,14,0,14,0,1,
65c11f6098be0f40918869d2,SCN,2024-06-24_18h05.04.966,LearnStrategy,2023.2.3,Win32,29.9832094,2,2,16,,,,,,,,1,06,,,,,,,,,,,2,1.533,0,,,,,,-0.083333333,-0.23828125,1,0,0,1.5329,Basalt_rect,15,0,15,0,1,
65c11f6098be0f40918869d2,SCN,2024-06-24_18h05.04.966,LearnStrategy,2023.2.3,Win32,29.9832094,3,1,1,0.239583333,0.377604167,1,0,0,2.5315,Basalt_06,2,06,6,6,2.532,-0.373697917,-0.252604167,1,0,0,2.0849,Andesite_rect,1,2.085,0,0,0,0,0,1,,,,,,,,,,,,,
65c11f6098be0f40918869d2,SCN,2024-06-24_18h05.04.966,LearnStrategy,2023.2.3,Win32,29.9832094,3,1,2,0.248697917,0.24609375,1,0,0,1.3867,Peridotite_12,7,12,5,6,1.387,-0.141927083,-0.244791667,1,0,0,2.6601,Basalt_rect,2,2.66,0,1,0,1,0,1,,,,,,,,,,,,,
65c11f6098be0f40918869d2,SCN,2024-06-24_18h05.04.966,LearnStrategy,2023.2.3,Win32,29.9832094,3,1,3,0.220052083,0.076822917,1,0,0,2.9907,Pegmatite_03,6,03,4,6,2.991,-0.075520833,-0.393229167,1,0,0,3.1683,Pegmatite_rect,6,3.168,1,2,0,2,0,1,,,,,,,,,,,,,
65c11f6098be0f40918869d2,SCN,2024-06-24_18h05.04.966,LearnStrategy,2023.2.3,Win32,29.9832094,3,1,4,0.203125,-0.09375,1,0,0,1.3684,Andesite_09,1,09,3,6,1.368,-0.041666667,-0.234375,1,0,0,2.1248,Basalt_rect,2,2.125,0,3,0,3,0,1,,,,,,,,,,,,,
65c11f6098be0f40918869d2,SCN,2024-06-24_18h05.04.966,LearnStrategy,2023.2.3,Win32,29.9832094,3,1,5,0.389322917,-0.260416667,1,0,0,1.922,Andesite_05,1,05,2,7,1.922,-0.372395833,-0.244791667,1,0,0,2.9169,Andesite_rect,1,2.917,1,4,0,4,0,1,,,,,,,,,,,,,
65c11f6098be0f40918869d2,SCN,2024-06-24_18h05.04.966,LearnStrategy,2023.2.3,Win32,29.9832094,3,1,6,-0.208333333,0.09375,1,0,0,2.9337,Andesite_11,1,11,4,3,2.934,-0.311197917,-0.233072917,1,0,0,1.5533,Andesite_rect,1,1.553,1,5,0,5,0,1,,,,,,,,,,,,,
65c11f6098be0f40918869d2,SCN,2024-06-24_18h05.04.966,LearnStrategy,2023.2.3,Win32,29.9832094,3,1,7,0.09765625,-0.122395833,1,0,0,1.5757,Pegmatite_08,6,08,3,5,1.576,-0.108072917,-0.41015625,1,0,0,2.6371,Pegmatite_rect,6,2.637,1,6,0,6,0,1,,,,,,,,,,,,,
65c11f6098be0f40918869d2,SCN,2024-06-24_18h05.04.966,LearnStrategy,2023.2.3,Win32,29.9832094,3,1,8,0.549479167,0.059895833,1,0,0,4.4415,Diorite_06,3,06,4,8,4.442,0.451822917,-0.2578125,1,0,0,1.2976,Gabbro_rect,4,1.298,0,7,0,7,0,1,,,,,,,,,,,,,
65c11f6098be0f40918869d2,SCN,2024-06-24_18h05.04.966,LearnStrategy,2023.2.3,Win32,29.9832094,3,1,9,0.375,0.115885417,1,0,0,1.9478,Diorite_07,3,07,4,7,1.948,0.119791667,-0.247395833,1,0,0,1.5333,Diorite_rect,3,1.533,1,8,0,8,0,1,,,,,,,,,,,,,
65c11f6098be0f40918869d2,SCN,2024-06-24_18h05.04.966,LearnStrategy,2023.2.3,Win32,29.9832094,3,1,10,0.23828125,0.229166667,1,0,0,6.3489,Peridotite_12,7,12,5,6,6.349,0.165364583,-0.243489583,1,0,0,1.739,Diorite_rect,3,1.739,0,9,0,9,0,1,,,,,,,,,,,,,
65c11f6098be0f40918869d2,SCN,2024-06-24_18h05.04.966,LearnStrategy,2023.2.3,Win32,29.9832094,3,1,11,-0.3515625,-0.255208333,1,0,0,2.6124,Obsidian_14,5,14,2,2,2.612,-0.358072917,-0.415364583,1,0,0,1.5423,Obsidian_rect,5,1.542,1,10,0,10,0,1,,,,,,,,,,,,,
65c11f6098be0f40918869d2,SCN,2024-06-24_18h05.04.966,LearnStrategy,2023.2.3,Win32,29.9832094,3,1,12,-0.05078125,0.265625,1,0,0,2.2281,Diorite_13,3,13,5,4,2.228,-0.080729167,-0.385416667,1,0,0,4.9321,Pegmatite_rect,6,4.932,0,11,0,11,0,1,,,,,,,,,,,,,
65c11f6098be0f40918869d2,SCN,2024-06-24_18h05.04.966,LearnStrategy,2023.2.3,Win32,29.9832094,3,1,13,0.36328125,0.395833333,1,0,0,3.3705,Pegmatite_06,6,06,6,7,3.37,-0.08203125,-0.404947917,1,0,0,1.6832,Pegmatite_rect,6,1.683,1,12,0,12,0,1,,,,,,,,,,,,,
65c11f6098be0f40918869d2,SCN,2024-06-24_18h05.04.966,LearnStrategy,2023.2.3,Win32,29.9832094,3,1,14,0.065104167,0.252604167,1,0,0,1.7581,Andesite_03,1,03,5,5,1.758,0.203125,-0.2578125,1,0,0,4.8611,Diorite_rect,3,4.861,0,13,0,13,0,1,,,,,,,,,,,,,
65c11f6098be0f40918869d2,SCN,2024-06-24_18h05.04.966,LearnStrategy,2023.2.3,Win32,29.9832094,3,1,15,0.380208333,-0.231770833,1,0,0,1.3834,Andesite_05,1,05,2,7,1.383,-0.333333333,-0.268229167,1,0,0,1.8388,Andesite_rect,1,1.839,1,14,0,14,0,1,,,,,,,,,,,,,
65c11f6098be0f40918869d2,SCN,2024-06-24_18h05.04.966,LearnStrategy,2023.2.3,Win32,29.9832094,3,1,16,-0.20703125,0.076822917,1,0,0,1.4343,Andesite_11,1,11,4,3,1.434,-0.375,-0.25390625,1,0,0,2.7456,Andesite_rect,1,2.746,1,15,0,15,0,1,,,,,,,,,,,,,
65c11f6098be0f40918869d2,SCN,2024-06-24_18h05.04.966,LearnStrategy,2023.2.3,Win32,29.9832094,3,2,1,,,,,,,,6,11,,,,,,,,,,,6,3.686,1,,,,,,-0.171875,-0.407552083,1,0,0,3.6856,Pegmatite_rect,0,0,0,0,1,
65c11f6098be0f40918869d2,SCN,2024-06-24_18h05.04.966,LearnStrategy,2023.2.3,Win32,29.9832094,3,2,2,,,,,,,,6,12,,,,,,,,,,,7,8.426,0,,,,,,0.079427083,-0.393229167,1,0,0,8.4262,Peridotite_rect,1,0,1,0,1,
65c11f6098be0f40918869d2,SCN,2024-06-24_18h05.04.966,LearnStrategy,2023.2.3,Win32,29.9832094,3,2,3,,,,,,,,1,16,,,,,,,,,,,3,12.04,0,,,,,,0.131510417,-0.239583333,1,0,0,12.0403,Diorite_rect,2,0,2,0,1,
65c11f6098be0f40918869d2,SCN,2024-06-24_18h05.04.966,LearnStrategy,2023.2.3,Win32,29.9832094,3,2,4,,,,,,,,7,14,,,,,,,,,,,4,3.451,0,,,,,,0.3984375,-0.243489583,1,0,0,3.4512,Gabbro_rect,3,0,3,0,1,
65c11f6098be0f40918869d2,SCN,2024-06-24_18h05.04.966,LearnStrategy,2023.2.3,Win32,29.9832094,3,2,5,,,,,,,,2,04,,,,,,,,,,,1,3.012,0,,,,,,-0.309895833,-0.260416667,1,0,0,3.0124,Andesite_rect,4,0,4,0,1,
65c11f6098be0f40918869d2,SCN,2024-06-24_18h05.04.966,LearnStrategy,2023.2.3,Win32,29.9832094,3,2,6,,,,,,,,3,14,,,,,,,,,,,7,4.191,0,,,,,,0.084635417,-0.40625,1,0,0,4.1913,Peridotite_rect,5,0,5,0,1,
65c11f6098be0f40918869d2,SCN,2024-06-24_18h05.04.966,LearnStrategy,2023.2.3,Win32,29.9832094,3,2,7,,,,,,,,4,09,,,,,,,,,,,1,5.527,0,,,,,,-0.330729167,-0.263020833,1,0,0,5.5265,Andesite_rect,6,0,6,0,1,
65c11f6098be0f40918869d2,SCN,2024-06-24_18h05.04.966,LearnStrategy,2023.2.3,Win32,29.9832094,3,2,8,,,,,,,,5,05,,,,,,,,,,,1,0.095,0,,,,,,-0.330729167,-0.263020833,1,0,0,0.095,Andesite_rect,7,0,7,0,1,
65c11f6098be0f40918869d2,SCN,2024-06-24_18h05.04.966,LearnStrategy,2023.2.3,Win32,29.9832094,3,2,9,,,,,,,,8,06,,,,,,,,,,,8,2.054,1,,,,,,0.395833333,-0.388020833,1,0,0,2.0544,Pumice_rect,8,0,8,0,1,
65c11f6098be0f40918869d2,SCN,2024-06-24_18h05.04.966,LearnStrategy,2023.2.3,Win32,29.9832094,3,2,10,,,,,,,,2,16,,,,,,,,,,,1,2.813,0,,,,,,-0.33203125,-0.259114583,1,0,0,2.8129,Andesite_rect,9,0,9,0,1,
65c11f6098be0f40918869d2,SCN,2024-06-24_18h05.04.966,LearnStrategy,2023.2.3,Win32,29.9832094,3,2,11,,,,,,,,8,10,,,,,,,,,,,8,3.171,1,,,,,,0.358072917,-0.393229167,1,0,0,3.1714,Pumice_rect,10,0,10,0,1,
65c11f6098be0f40918869d2,SCN,2024-06-24_18h05.04.966,LearnStrategy,2023.2.3,Win32,29.9832094,3,2,12,,,,,,,,7,02,,,,,,,,,,,8,0.09,0,,,,,,0.358072917,-0.393229167,1,0,0,0.0903,Pumice_rect,11,0,11,0,1,
65c11f6098be0f40918869d2,SCN,2024-06-24_18h05.04.966,LearnStrategy,2023.2.3,Win32,29.9832094,3,2,13,,,,,,,,1,04,,,,,,,,,,,3,6.692,0,,,,,,0.170572917,-0.26171875,1,0,0,6.6924,Diorite_rect,12,0,12,0,1,
65c11f6098be0f40918869d2,SCN,2024-06-24_18h05.04.966,LearnStrategy,2023.2.3,Win32,29.9832094,3,2,14,,,,,,,,5,10,,,,,,,,,,,5,3.224,1,,,,,,-0.361979167,-0.397135417,1,0,0,3.2237,Obsidian_rect,13,0,13,0,1,
65c11f6098be0f40918869d2,SCN,2024-06-24_18h05.04.966,LearnStrategy,2023.2.3,Win32,29.9832094,3,2,15,,,,,,,,4,03,,,,,,,,,,,2,4.576,0,,,,,,-0.0703125,-0.260416667,1,0,0,4.5757,Basalt_rect,14,0,14,0,1,
65c11f6098be0f40918869d2,SCN,2024-06-24_18h05.04.966,LearnStrategy,2023.2.3,Win32,29.9832094,3,2,16,,,,,,,,3,09,,,,,,,,,,,2,2.934,0,,,,,,-0.0703125,-0.260416667,1,0,0,2.9337,Basalt_rect,15,0,15,0,1,
65c11f6098be0f40918869d2,SCN,2024-06-24_18h05.04.966,LearnStrategy,2023.2.3,Win32,29.9832094,4,1,1,0.584635417,-0.423177083,1,0,0,2.8734,Diorite_08,3,08,1,8,2.873,-0.072916667,-0.380208333,1,0,0,16.1878,Pegmatite_rect,6,16.188,0,0,0,0,0,1,,,,,,,,,,,,,
65c11f6098be0f40918869d2,SCN,2024-06-24_18h05.04.966,LearnStrategy,2023.2.3,Win32,29.9832094,4,1,2,0.0859375,-0.122395833,1,0,0,1.7136,Pegmatite_08,6,08,3,5,1.714,0.135416667,-0.252604167,1,0,0,2.9049,Diorite_rect,3,2.905,0,1,0,1,0,1,,,,,,,,,,,,,
65c11f6098be0f40918869d2,SCN,2024-06-24_18h05.04.966,LearnStrategy,2023.2.3,Win32,29.9832094,4,1,3,0.3828125,0.087239583,1,0,0,2.4658,Diorite_07,3,07,4,7,2.466,0.1484375,-0.26171875,1,0,0,2.8563,Diorite_rect,3,2.856,1,2,0,2,0,1,,,,,,,,,,,,,
65c11f6098be0f40918869d2,SCN,2024-06-24_18h05.04.966,LearnStrategy,2023.2.3,Win32,29.9832094,4,1,4,0.052083333,0.220052083,1,0,0,1.1562,Andesite_03,1,03,5,5,1.156,-0.3671875,-0.233072917,1,0,0,1.2718,Andesite_rect,1,1.272,1,3,0,3,0,1,,,,,,,,,,,,,
65c11f6098be0f40918869d2,SCN,2024-06-24_18h05.04.966,LearnStrategy,2023.2.3,Win32,29.9832094,4,1,5,0.552083333,0.083333333,1,0,0,1.2357,Diorite_06,3,06,4,8,1.236,-0.354166667,-0.239583333,1,0,0,5.8996,Andesite_rect,1,5.9,0,4,0,4,0,1,,,,,,,,,,,,,
65c11f6098be0f40918869d2,SCN,2024-06-24_18h05.04.966,LearnStrategy,2023.2.3,Win32,29.9832094,4,1,6,-0.390625,-0.092447917,1,0,0,1.375,Gabbro_11,4,11,3,2,1.375,0.361979167,-0.251302083,1,0,0,3.8117,Gabbro_rect,4,3.812,1,5,0,5,0,1,,,,,,,,,,,,,
65c11f6098be0f40918869d2,SCN,2024-06-24_18h05.04.966,LearnStrategy,2023.2.3,Win32,29.9832094,4,1,7,-0.061197917,0.231770833,1,0,0,4.1956,Diorite_13,3,13,5,4,4.196,0.3203125,-0.25,1,0,0,2.9174,Gabbro_rect,4,2.917,0,6,0,6,0,1,,,,,,,,,,,,,
65c11f6098be0f40918869d2,SCN,2024-06-24_18h05.04.966,LearnStrategy,2023.2.3,Win32,29.9832094,4,1,8,-0.401041667,0.251302083,1,0,0,2.2331,Pegmatite_13,6,13,5,2,2.233,-0.182291667,-0.231770833,1,0,0,4.4155,Basalt_rect,2,4.415,0,7,0,7,0,1,,,,,,,,,,,,,
65c11f6098be0f40918869d2,SCN,2024-06-24_18h05.04.966,LearnStrategy,2023.2.3,Win32,29.9832094,4,1,9,0.571614583,-0.095052083,1,0,0,2.0546,Basalt_11,2,11,3,8,2.055,0.44140625,-0.251302083,1,0,0,3.6721,Gabbro_rect,4,3.672,0,8,0,8,0,1,,,,,,,,,,,,,
65c11f6098be0f40918869d2,SCN,2024-06-24_18h05.04.966,LearnStrategy,2023.2.3,Win32,29.9832094,4,1,10,-0.522135417,-0.080729167,1,0,0,1.7503,Peridotite_16,7,16,3,1,1.75,0.196614583,-0.251302083,1,0,0,2.7294,Diorite_rect,3,2.729,0,9,0,9,0,1,,,,,,,,,,,,,
65c11f6098be0f40918869d2,SCN,2024-06-24_18h05.04.966,LearnStrategy,2023.2.3,Win32,29.9832094,4,1,11,-0.37109375,0.126302083,1,0,0,1.8611,Pegmatite_16,6,16,4,2,1.861,-0.098958333,-0.380208333,1,0,0,1.606,Pegmatite_rect,6,1.606,1,10,0,10,0,1,,,,,,,,,,,,,
65c11f6098be0f40918869d2,SCN,2024-06-24_18h05.04.966,LearnStrategy,2023.2.3,Win32,29.9832094,4,1,12,0.3984375,0.149739583,1,0,0,2.3824,Diorite_07,3,07,4,7,2.382,0.141927083,-0.260416667,1,0,0,2.036,Diorite_rect,3,2.036,1,11,0,11,0,1,,,,,,,,,,,,,
65c11f6098be0f40918869d2,SCN,2024-06-24_18h05.04.966,LearnStrategy,2023.2.3,Win32,29.9832094,4,1,13,0.438802083,0.239583333,1,0,0,3.4619,Basalt_14,2,14,5,7,3.462,0.365885417,-0.385416667,1,0,0,1.8542,Pumice_rect,8,1.854,0,12,0,12,0,1,,,,,,,,,,,,,
65c11f6098be0f40918869d2,SCN,2024-06-24_18h05.04.966,LearnStrategy,2023.2.3,Win32,29.9832094,4,1,14,-0.240885417,-0.244791667,1,0,0,2.6674,Gabbro_10,4,10,2,3,2.667,0.33984375,-0.390625,1,0,0,2.1065,Pumice_rect,8,2.106,0,13,0,13,0,1,,,,,,,,,,,,,
65c11f6098be0f40918869d2,SCN,2024-06-24_18h05.04.966,LearnStrategy,2023.2.3,Win32,29.9832094,4,1,15,-0.412760417,-0.076822917,1,0,0,1.4996,Gabbro_11,4,11,3,2,1.5,-0.326822917,-0.270833333,1,0,0,2.1028,Andesite_rect,1,2.103,0,14,0,14,0,1,,,,,,,,,,,,,
65c11f6098be0f40918869d2,SCN,2024-06-24_18h05.04.966,LearnStrategy,2023.2.3,Win32,29.9832094,4,1,16,-0.55078125,0.109375,1,0,0,1.9262,Peridotite_06,7,06,4,1,1.926,-0.135416667,-0.251302083,1,0,0,3.4756,Basalt_rect,2,3.476,0,15,0,15,0,1,,,,,,,,,,,,,
65c11f6098be0f40918869d2,SCN,2024-06-24_18h05.04.966,LearnStrategy,2023.2.3,Win32,29.9832094,4,2,1,,,,,,,,3,09,,,,,,,,,,,3,8.755,1,,,,,,0.169270833,-0.229166667,1,0,0,8.7547,Diorite_rect,0,0,0,0,1,
65c11f6098be0f40918869d2,SCN,2024-06-24_18h05.04.966,LearnStrategy,2023.2.3,Win32,29.9832094,4,2,2,,,,,,,,5,12,,,,,,,,,,,5,5.168,1,,,,,,-0.368489583,-0.411458333,1,0,0,5.1682,Obsidian_rect,1,0,1,0,1,
65c11f6098be0f40918869d2,SCN,2024-06-24_18h05.04.966,LearnStrategy,2023.2.3,Win32,29.9832094,4,2,3,,,,,,,,5,09,,,,,,,,,,,5,0.949,1,,,,,,-0.368489583,-0.411458333,1,0,0,0.9486,Obsidian_rect,2,0,2,0,1,
65c11f6098be0f40918869d2,SCN,2024-06-24_18h05.04.966,LearnStrategy,2023.2.3,Win32,29.9832094,4,2,4,,,,,,,,6,12,,,,,,,,,,,3,6.621,0,,,,,,0.06640625,-0.263020833,1,0,0,6.6213,Diorite_rect,3,0,3,0,1,
65c11f6098be0f40918869d2,SCN,2024-06-24_18h05.04.966,LearnStrategy,2023.2.3,Win32,29.9832094,4,2,5,,,,,,,,7,04,,,,,,,,,,,7,6.361,1,,,,,,0.095052083,-0.384114583,1,0,0,6.361,Peridotite_rect,4,0,4,0,1,
65c11f6098be0f40918869d2,SCN,2024-06-24_18h05.04.966,LearnStrategy,2023.2.3,Win32,29.9832094,4,2,6,,,,,,,,1,14,,,,,,,,,,,2,7.828,0,,,,,,-0.08203125,-0.2578125,1,0,0,7.8284,Basalt_rect,5,0,5,0,1,
65c11f6098be0f40918869d2,SCN,2024-06-24_18h05.04.966,LearnStrategy,2023.2.3,Win32,29.9832094,4,2,7,,,,,,,,3,10,,,,,,,,,,,3,5.667,1,,,,,,0.154947917,-0.259114583,1,0,0,5.6669,Diorite_rect,6,0,6,0,1,
65c11f6098be0f40918869d2,SCN,2024-06-24_18h05.04.966,LearnStrategy,2023.2.3,Win32,29.9832094,4,2,8,,,,,,,,6,09,,,,,,,,,,,3,8.54,0,,,,,,0.15625,-0.24609375,1,0,0,8.5396,Diorite_rect,7,0,7,0,1,
65c11f6098be0f40918869d2,SCN,2024-06-24_18h05.04.966,LearnStrategy,2023.2.3,Win32,29.9832094,4,2,9,,,,,,,,8,16,,,,,,,,,,,8,1.966,1,,,,,,0.3515625,-0.3828125,1,0,0,1.9656,Pumice_rect,8,0,8,0,1,
65c11f6098be0f40918869d2,SCN,2024-06-24_18h05.04.966,LearnStrategy,2023.2.3,Win32,29.9832094,4,2,10,,,,,,,,4,15,,,,,,,,,,,3,9.806,0,,,,,,0.1953125,-0.264322917,1,0,0,9.8063,Diorite_rect,9,0,9,0,1,
65c11f6098be0f40918869d2,SCN,2024-06-24_18h05.04.966,LearnStrategy,2023.2.3,Win32,29.9832094,4,2,11,,,,,,,,4,01,,,,,,,,,,,3,5.469,0,,,,,,0.1953125,-0.264322917,1,0,0,5.469,Diorite_rect,10,0,10,0,1,
65c11f6098be0f40918869d2,SCN,2024-06-24_18h05.04.966,LearnStrategy,2023.2.3,Win32,29.9832094,4,2,12,,,,,,,,2,16,,,,,,,,,,,2,7.292,1,,,,,,-0.118489583,-0.256510417,1,0,0,7.2922,Basalt_rect,11,0,11,0,1,
65c11f6098be0f40918869d2,SCN,2024-06-24_18h05.04.966,LearnStrategy,2023.2.3,Win32,29.9832094,4,2,13,,,,,,,,7,02,,,,,,,,,,,7,6.582,1,,,,,,0.072916667,-0.390625,1,0,0,6.5817,Peridotite_rect,12,0,12,0,1,
65c11f6098be0f40918869d2,SCN,2024-06-24_18h05.04.966,LearnStrategy,2023.2.3,Win32,29.9832094,4,2,14,,,,,,,,8,13,,,,,,,,,,,8,11.797,1,,,,,,0.467447917,-0.403645833,1,0,0,11.7969,Pumice_rect,13,0,13,0,1,
65c11f6098be0f40918869d2,SCN,2024-06-24_18h05.04.966,LearnStrategy,2023.2.3,Win32,29.9832094,4,2,15,,,,,,,,1,16,,,,,,,,,,,3,3.901,0,,,,,,0.158854167,-0.26171875,1,0,0,3.9008,Diorite_rect,14,0,14,0,1,
65c11f6098be0f40918869d2,SCN,2024-06-24_18h05.04.966,LearnStrategy,2023.2.3,Win32,29.9832094,4,2,16,,,,,,,,2,12,,,,,,,,,,,8,3.45,0,,,,,,0.365885417,-0.384114583,1,0,0,3.4496,Pumice_rect,15,0,15,0,1,
65c11f6098be0f40918869d2,SCN,2024-06-24_18h05.04.966,LearnStrategy,2023.2.3,Win32,29.9832094,5,1,1,-0.368489583,0.263020833,1,0,0,3.675,Pegmatite_13,6,13,5,2,3.675,-0.337239583,-0.265625,1,0,0,6.4577,Andesite_rect,1,6.458,0,0,0,0,0,1,,,,,,,,,,,,,
65c11f6098be0f40918869d2,SCN,2024-06-24_18h05.04.966,LearnStrategy,2023.2.3,Win32,29.9832094,5,1,2,-0.395833333,-0.123697917,1,0,0,4.4979,Gabbro_11,4,11,3,2,4.498,-0.364583333,-0.234375,1,0,0,1.4446,Andesite_rect,1,1.445,0,1,0,1,0,1,,,,,,,,,,,,,
65c11f6098be0f40918869d2,SCN,2024-06-24_18h05.04.966,LearnStrategy,2023.2.3,Win32,29.9832094,5,1,3,-0.35546875,-0.25390625,1,0,0,1.5313,Obsidian_14,5,14,2,2,1.531,-0.350260417,-0.40625,1,0,0,1.201,Obsidian_rect,5,1.201,1,2,0,2,0,1,,,,,,,,,,,,,
65c11f6098be0f40918869d2,SCN,2024-06-24_18h05.04.966,LearnStrategy,2023.2.3,Win32,29.9832094,5,1,4,-0.42578125,-0.424479167,1,0,0,1.5199,Basalt_08,2,08,1,2,1.52,0.10546875,-0.23828125,1,0,0,2.1675,Diorite_rect,3,2.168,0,3,0,3,0,1,,,,,,,,,,,,,
65c11f6098be0f40918869d2,SCN,2024-06-24_18h05.04.966,LearnStrategy,2023.2.3,Win32,29.9832094,5,1,5,-0.0546875,0.229166667,1,0,0,5.3205,Diorite_13,3,13,5,4,5.321,0.158854167,-0.391927083,1,0,0,3.2648,Peridotite_rect,7,3.265,0,4,0,4,0,1,,,,,,,,,,,,,
65c11f6098be0f40918869d2,SCN,2024-06-24_18h05.04.966,LearnStrategy,2023.2.3,Win32,29.9832094,5,1,6,-0.0546875,-0.4140625,1,0,0,2.1921,Andesite_07,1,07,1,4,2.192,0.294270833,-0.256510417,1,0,0,2.8582,Gabbro_rect,4,2.858,0,5,0,5,0,1,,,,,,,,,,,,,
65c11f6098be0f40918869d2,SCN,2024-06-24_18h05.04.966,LearnStrategy,2023.2.3,Win32,29.9832094,5,1,7,-0.221354167,-0.423177083,1,0,0,2.2424,Diorite_02,3,02,1,3,2.242,-0.364583333,-0.233072917,1,0,0,2.4501,Andesite_rect,1,2.45,0,6,0,6,0,1,,,,,,,,,,,,,
65c11f6098be0f40918869d2,SCN,2024-06-24_18h05.04.966,LearnStrategy,2023.2.3,Win32,29.9832094,5,1,8,0.35546875,0.100260417,1,0,0,2.4248,Diorite_07,3,07,4,7,2.425,-0.354166667,-0.259114583,1,0,0,1.4672,Andesite_rect,1,1.467,0,7,0,7,0,1,,,,,,,,,,,,,
65c11f6098be0f40918869d2,SCN,2024-06-24_18h05.04.966,LearnStrategy,2023.2.3,Win32,29.9832094,5,1,9,0.399739583,0.251302083,1,0,0,2.7246,Basalt_14,2,14,5,7,2.725,0.404947917,-0.404947917,1,0,0,1.8823,Pumice_rect,8,1.882,0,8,0,8,0,1,,,,,,,,,,,,,
65c11f6098be0f40918869d2,SCN,2024-06-24_18h05.04.966,LearnStrategy,2023.2.3,Win32,29.9832094,5,1,10,0.53515625,0.114583333,1,0,0,1.3794,Diorite_06,3,06,4,8,1.379,-0.313802083,-0.255208333,1,0,0,2.7416,Andesite_rect,1,2.742,0,9,0,9,0,1,,,,,,,,,,,,,
65c11f6098be0f40918869d2,SCN,2024-06-24_18h05.04.966,LearnStrategy,2023.2.3,Win32,29.9832094,5,1,11,0.109375,-0.411458333,1,0,0,1.7164,Andesite_10,1,10,1,5,1.716,0.380208333,-0.24609375,1,0,0,2.9444,Gabbro_rect,4,2.944,0,10,0,10,0,1,,,,,,,,,,,,,
65c11f6098be0f40918869d2,SCN,2024-06-24_18h05.04.966,LearnStrategy,2023.2.3,Win32,29.9832094,5,1,12,0.41796875,0.401041667,1,0,0,2.8232,Pegmatite_06,6,06,6,7,2.823,0.108072917,-0.408854167,1,0,0,2.0453,Peridotite_rect,7,2.045,0,11,0,11,0,1,,,,,,,,,,,,,
65c11f6098be0f40918869d2,SCN,2024-06-24_18h05.04.966,LearnStrategy,2023.2.3,Win32,29.9832094,5,1,13,0.049479167,0.4453125,1,0,0,1.3245,Basalt_01,2,01,6,5,1.325,-0.356770833,-0.25,1,0,0,2.3889,Andesite_rect,1,2.389,0,12,0,12,0,1,,,,,,,,,,,,,
65c11f6098be0f40918869d2,SCN,2024-06-24_18h05.04.966,LearnStrategy,2023.2.3,Win32,29.9832094,5,1,14,-0.263020833,-0.084635417,1,0,0,4.8488,Pumice_15,8,15,3,3,4.849,0.376302083,-0.393229167,1,0,0,1.6858,Pumice_rect,8,1.686,1,13,0,13,0,1,,,,,,,,,,,,,
65c11f6098be0f40918869d2,SCN,2024-06-24_18h05.04.966,LearnStrategy,2023.2.3,Win32,29.9832094,5,1,15,-0.055989583,-0.09375,1,0,0,1.3358,Pumice_08,8,08,3,4,1.336,0.399739583,-0.3984375,1,0,0,3.1672,Pumice_rect,8,3.167,1,14,0,14,0,1,,,,,,,,,,,,,
65c11f6098be0f40918869d2,SCN,2024-06-24_18h05.04.966,LearnStrategy,2023.2.3,Win32,29.9832094,5,1,16,0.10546875,-0.115885417,1,0,0,1.5177,Pegmatite_08,6,08,3,5,1.518,-0.095052083,-0.389322917,1,0,0,2.3646,Pegmatite_rect,6,2.365,1,15,0,15,0,1,,,,,,,,,,,,,
65c11f6098be0f40918869d2,SCN,2024-06-24_18h05.04.966,LearnStrategy,2023.2.3,Win32,29.9832094,5,2,1,,,,,,,,1,04,,,,,,,,,,,8,24.951,0,,,,,,0.354166667,-0.404947917,1,0,0,24.951,Pumice_rect,0,0,0,0,1,
65c11f6098be0f40918869d2,SCN,2024-06-24_18h05.04.966,LearnStrategy,2023.2.3,Win32,29.9832094,5,2,2,,,,,,,,4,13,,,,,,,,,,,3,5.512,0,,,,,,0.069010417,-0.239583333,1,0,0,5.5115,Diorite_rect,1,0,1,0,1,
65c11f6098be0f40918869d2,SCN,2024-06-24_18h05.04.966,LearnStrategy,2023.2.3,Win32,29.9832094,5,2,3,,,,,,,,6,11,,,,,,,,,,,6,4.36,1,,,,,,-0.154947917,-0.390625,1,0,0,4.3601,Pegmatite_rect,2,0,2,0,1,
65c11f6098be0f40918869d2,SCN,2024-06-24_18h05.04.966,LearnStrategy,2023.2.3,Win32,29.9832094,5,2,4,,,,,,,,5,05,,,,,,,,,,,5,2.294,1,,,,,,-0.348958333,-0.411458333,1,0,0,2.2943,Obsidian_rect,3,0,3,0,1,
65c11f6098be0f40918869d2,SCN,2024-06-24_18h05.04.966,LearnStrategy,2023.2.3,Win32,29.9832094,5,2,5,,,,,,,,7,14,,,,,,,,,,,3,10.737,0,,,,,,0.076822917,-0.263020833,1,0,0,10.7368,Diorite_rect,4,0,4,0,1,
65c11f6098be0f40918869d2,SCN,2024-06-24_18h05.04.966,LearnStrategy,2023.2.3,Win32,29.9832094,5,2,6,,,,,,,,4,16,,,,,,,,,,,4,6.652,1,,,,,,0.3828125,-0.234375,1,0,0,6.6524,Gabbro_rect,5,0,5,0,1,
65c11f6098be0f40918869d2,SCN,2024-06-24_18h05.04.966,LearnStrategy,2023.2.3,Win32,29.9832094,5,2,7,,,,,,,,2,10,,,,,,,,,,,2,6.653,1,,,,,,-0.09375,-0.243489583,1,0,0,6.6527,Basalt_rect,6,0,6,0,1,
65c11f6098be0f40918869d2,SCN,2024-06-24_18h05.04.966,LearnStrategy,2023.2.3,Win32,29.9832094,5,2,8,,,,,,,,3,14,,,,,,,,,,,1,5.434,0,,,,,,-0.33203125,-0.252604167,1,0,0,5.4335,Andesite_rect,7,0,7,0,1,
65c11f6098be0f40918869d2,SCN,2024-06-24_18h05.04.966,LearnStrategy,2023.2.3,Win32,29.9832094,5,2,9,,,,,,,,2,04,,,,,,,,,,,2,6.643,1,,,,,,-0.0859375,-0.24609375,1,0,0,6.6427,Basalt_rect,8,0,8,0,1,
65c11f6098be0f40918869d2,SCN,2024-06-24_18h05.04.966,LearnStrategy,2023.2.3,Win32,29.9832094,5,2,10,,,,,,,,3,11,,,,,,,,,,,3,7.829,1,,,,,,0.140625,-0.231770833,1,0,0,7.8286,Diorite_rect,9,0,9,0,1,
65c11f6098be0f40918869d2,SCN,2024-06-24_18h05.04.966,LearnStrategy,2023.2.3,Win32,29.9832094,5,2,11,,,,,,,,1,02,,,,,,,,,,,3,2.557,0,,,,,,0.140625,-0.231770833,1,0,0,2.5575,Diorite_rect,10,0,10,0,1,
65c11f6098be0f40918869d2,SCN,2024-06-24_18h05.04.966,LearnStrategy,2023.2.3,Win32,29.9832094,5,2,12,,,,,,,,8,05,,,,,,,,,,,8,1.961,1,,,,,,0.40625,-0.397135417,1,0,0,1.9614,Pumice_rect,11,0,11,0,1,
65c11f6098be0f40918869d2,SCN,2024-06-24_18h05.04.966,LearnStrategy,2023.2.3,Win32,29.9832094,5,2,13,,,,,,,,6,05,,,,,,,,,,,6,4.309,1,,,,,,-0.072916667,-0.415364583,1,0,0,4.3086,Pegmatite_rect,12,0,12,0,1,
65c11f6098be0f40918869d2,SCN,2024-06-24_18h05.04.966,LearnStrategy,2023.2.3,Win32,29.9832094,5,2,14,,,,,,,,5,10,,,,,,,,,,,5,1.572,1,,,,,,-0.377604167,-0.384114583,1,0,0,1.5724,Obsidian_rect,13,0,13,0,1,
65c11f6098be0f40918869d2,SCN,2024-06-24_18h05.04.966,LearnStrategy,2023.2.3,Win32,29.9832094,5,2,15,,,,,,,,8,06,,,,,,,,,,,8,4.422,1,,,,,,0.350853261,-0.384460091,1,0,0,4.4218,Pumice_rect,14,0,14,0,1,
65c11f6098be0f40918869d2,SCN,2024-06-24_18h05.04.966,LearnStrategy,2023.2.3,Win32,29.9832094,5,2,16,,,,,,,,7,15,,,,,,,,,,,7,12.244,1,,,,,,0.092940014,-0.37924985,1,0,0,12.2444,Peridotite_rect,15,0,15,0,1,
65c11f6098be0f40918869d2,SCN,2024-06-24_18h05.04.966,LearnStrategy,2023.2.3,Win32,29.9832094,6,1,1,-0.217076935,-0.088771735,1,0,0,2.3461,Pumice_15,8,15,3,3,2.346,0.402956964,-0.401393805,1,0,0,1.9069,Pumice_rect,8,1.907,1,0,0,0,0,1,,,,,,,,,,,,,
65c11f6098be0f40918869d2,SCN,2024-06-24_18h05.04.966,LearnStrategy,2023.2.3,Win32,29.9832094,6,1,2,-0.497134281,-0.409209382,1,0,0,1.8268,Diorite_15,3,15,1,1,1.827,-0.373387971,-0.247688034,1,0,0,1.4652,Andesite_rect,1,1.465,0,1,0,1,0,1,,,,,,,,,,,,,
65c11f6098be0f40918869d2,SCN,2024-06-24_18h05.04.966,LearnStrategy,2023.2.3,Win32,29.9832094,6,1,3,0.052559641,0.090985995,1,0,0,1.4995,Obsidian_07,5,07,4,5,1.499,-0.382506179,-0.383157531,1,0,0,1.033,Obsidian_rect,5,1.033,1,2,0,2,0,1,,,,,,,,,,,,,
65c11f6098be0f40918869d2,SCN,2024-06-24_18h05.04.966,LearnStrategy,2023.2.3,Win32,29.9832094,6,1,4,0.244040665,0.080565297,1,0,0,1.5628,Pegmatite_03,6,03,4,6,1.563,-0.088120312,-0.388367987,1,0,0,2.9534,Pegmatite_rect,6,2.953,1,3,0,3,0,1,,,,,,,,,,,,,
65c11f6098be0f40918869d2,SCN,2024-06-24_18h05.04.966,LearnStrategy,2023.2.3,Win32,29.9832094,6,1,5,-0.228800265,-0.241174946,1,0,0,1.6917,Gabbro_10,4,10,2,3,1.692,-0.368177658,-0.264621605,1,0,0,1.0365,Andesite_rect,1,1.036,0,4,0,4,0,1,,,,,,,,,,,,,
65c11f6098be0f40918869d2,SCN,2024-06-24_18h05.04.966,LearnStrategy,2023.2.3,Win32,29.9832094,6,1,6,-0.346033595,-0.09007426,1,0,0,2.9237,Gabbro_11,4,11,3,2,2.924,-0.079002175,-0.241174946,1,0,0,1.3439,Basalt_rect,2,1.344,0,5,0,5,0,1,,,,,,,,,,,,,
65c11f6098be0f40918869d2,SCN,2024-06-24_18h05.04.966,LearnStrategy,2023.2.3,Win32,29.9832094,6,1,7,0.534518708,-0.251595715,1,0,0,5.9658,Gabbro_12,4,12,2,8,5.966,-0.348638716,-0.24508277,1,0,0,1.9292,Andesite_rect,1,1.929,0,6,0,6,0,1,,,,,,,,,,,,,
65c11f6098be0f40918869d2,SCN,2024-06-24_18h05.04.966,LearnStrategy,2023.2.3,Win32,29.9832094,6,1,8,-0.206656238,0.225153039,1,0,0,5.0316,Pumice_14,8,14,5,3,5.032,0.396444019,-0.397486053,1,0,0,3.4194,Pumice_rect,8,3.419,1,7,0,7,0,1,,,,,,,,,,,,,
65c11f6098be0f40918869d2,SCN,2024-06-24_18h05.04.966,LearnStrategy,2023.2.3,Win32,29.9832094,6,1,9,0.210173308,-0.400091317,1,0,0,4.1637,Pumice_04,8,04,1,6,4.164,0.418588117,-0.420932712,1,0,0,2.4616,Pumice_rect,8,2.462,1,8,0,8,0,1,,,,,,,,,,,,,
65c11f6098be0f40918869d2,SCN,2024-06-24_18h05.04.966,LearnStrategy,2023.2.3,Win32,29.9832094,6,1,10,0.547544884,-0.107008009,1,0,0,1.2492,Basalt_11,2,11,3,8,1.249,-0.351243944,-0.239872386,1,0,0,3.2723,Andesite_rect,1,3.272,0,9,0,9,0,1,,,,,,,,,,,,,
65c11f6098be0f40918869d2,SCN,2024-06-24_18h05.04.966,LearnStrategy,2023.2.3,Win32,29.9832094,6,1,11,0.395141458,0.090985995,1,0,0,4.9174,Diorite_07,3,07,4,7,4.917,0.150254029,-0.246385331,1,0,0,2.4046,Diorite_rect,3,2.405,1,10,0,10,0,1,,,,,,,,,,,,,
65c11f6098be0f40918869d2,SCN,2024-06-24_18h05.04.966,LearnStrategy,2023.2.3,Win32,29.9832094,6,1,12,0.555360246,-0.10831057,1,0,0,1.3191,Basalt_11,2,11,3,8,1.319,-0.373387971,-0.238569754,1,0,0,1.5425,Andesite_rect,1,1.543,0,11,0,11,0,1,,,,,,,,,,,,,
65c11f6098be0f40918869d2,SCN,2024-06-24_18h05.04.966,LearnStrategy,2023.2.3,Win32,29.9832094,6,1,13,-0.40204505,-0.092679452,1,0,0,5.3333,Gabbro_11,4,11,3,2,5.333,-0.327797285,-0.241174946,1,0,0,1.2055,Andesite_rect,1,1.206,0,12,0,12,0,1,,,,,,,,,,,,,
65c11f6098be0f40918869d2,SCN,2024-06-24_18h05.04.966,LearnStrategy,2023.2.3,Win32,29.9832094,6,1,14,-0.395532033,-0.413117135,1,0,0,5.1946,Basalt_08,2,08,1,2,5.195,-0.379900987,-0.255503468,1,0,0,2.4194,Andesite_rect,1,2.419,0,13,0,13,0,1,,,,,,,,,,,,,
65c11f6098be0f40918869d2,SCN,2024-06-24_18h05.04.966,LearnStrategy,2023.2.3,Win32,29.9832094,6,1,15,-0.536212058,-0.394880861,1,0,0,2.43,Diorite_15,3,15,1,1,2.43,-0.430702022,-0.2568061,1,0,0,1.0697,Andesite_rect,1,1.07,0,14,0,14,0,1,,,,,,,,,,,,,
65c11f6098be0f40918869d2,SCN,2024-06-24_18h05.04.966,LearnStrategy,2023.2.3,Win32,29.9832094,6,1,16,-0.028201104,-0.401393805,1,0,0,1.3028,Andesite_07,1,07,1,4,1.303,-0.058160708,-0.398788613,1,0,0,0.9462,Pegmatite_rect,6,0.946,0,15,0,15,0,1,,,,,,,,,,,,,
65c11f6098be0f40918869d2,SCN,2024-06-24_18h05.04.966,LearnStrategy,2023.2.3,Win32,29.9832094,6,2,1,,,,,,,,3,12,,,,,,,,,,,1,2.227,0,,,,,,-0.347336191,-0.251595715,1,0,0,2.2269,Andesite_rect,0,0,0,0,1,
65c11f6098be0f40918869d2,SCN,2024-06-24_18h05.04.966,LearnStrategy,2023.2.3,Win32,29.9832094,6,2,2,,,,,,,,2,09,,,,,,,,,,,2,1.805,1,,,,,,-0.150644783,-0.247688034,1,0,0,1.8049,Basalt_rect,1,0,1,0,1,
65c11f6098be0f40918869d2,SCN,2024-06-24_18h05.04.966,LearnStrategy,2023.2.3,Win32,29.9832094,6,2,3,,,,,,,,8,02,,,,,,,,,,,8,1.833,1,,,,,,0.341735053,-0.405301558,1,0,0,1.8326,Pumice_rect,2,0,2,0,1,
65c11f6098be0f40918869d2,SCN,2024-06-24_18h05.04.966,LearnStrategy,2023.2.3,Win32,29.9832094,6,2,4,,,,,,,,8,10,,,,,,,,,,,8,0.775,1,,,,,,0.341735053,-0.405301558,1,0,0,0.7752,Pumice_rect,3,0,3,0,1,
65c11f6098be0f40918869d2,SCN,2024-06-24_18h05.04.966,LearnStrategy,2023.2.3,Win32,29.9832094,6,2,5,,,,,,,,6,07,,,,,,,,,,,6,3.751,1,,,,,,-0.092027993,-0.401393805,1,0,0,3.7511,Pegmatite_rect,4,0,4,0,1,
65c11f6098be0f40918869d2,SCN,2024-06-24_18h05.04.966,LearnStrategy,2023.2.3,Win32,29.9832094,6,2,6,,,,,,,,1,01,,,,,,,,,,,3,11.854,0,,,,,,0.207568116,-0.233359441,1,0,0,11.8536,Diorite_rect,5,0,5,0,1,
65c11f6098be0f40918869d2,SCN,2024-06-24_18h05.04.966,LearnStrategy,2023.2.3,Win32,29.9832094,6,2,7,,,,,,,,4,09,,,,,,,,,,,4,3.504,1,,,,,,0.39904914,-0.255503468,1,0,0,3.5041,Gabbro_rect,6,0,6,0,1,
65c11f6098be0f40918869d2,SCN,2024-06-24_18h05.04.966,LearnStrategy,2023.2.3,Win32,29.9832094,6,2,8,,,,,,,,1,06,,,,,,,,,,,3,9.909,0,,,,,,0.17500332,-0.255503468,1,0,0,9.9085,Diorite_rect,7,0,7,0,1,
65c11f6098be0f40918869d2,SCN,2024-06-24_18h05.04.966,LearnStrategy,2023.2.3,Win32,29.9832094,6,2,9,,,,,,,,2,02,,,,,,,,,,,4,2.694,0,,,,,,0.349550701,-0.251595715,1,0,0,2.6939,Gabbro_rect,8,0,8,0,1,
65c11f6098be0f40918869d2,SCN,2024-06-24_18h05.04.966,LearnStrategy,2023.2.3,Win32,29.9832094,6,2,10,,,,,,,,4,03,,,,,,,,,,,3,4.128,0,,,,,,0.107268607,-0.24508277,1,0,0,4.1279,Diorite_rect,9,0,9,0,1,
65c11f6098be0f40918869d2,SCN,2024-06-24_18h05.04.966,LearnStrategy,2023.2.3,Win32,29.9832094,6,2,11,,,,,,,,7,07,,,,,,,,,,,3,1.716,0,,,,,,0.107268607,-0.24508277,1,0,0,1.7161,Diorite_rect,10,0,10,0,1,
65c11f6098be0f40918869d2,SCN,2024-06-24_18h05.04.966,LearnStrategy,2023.2.3,Win32,29.9832094,6,2,12,,,,,,,,7,13,,,,,,,,,,,7,7.356,1,,,,,,0.122899618,-0.385762723,1,0,0,7.3557,Peridotite_rect,11,0,11,0,1,
65c11f6098be0f40918869d2,SCN,2024-06-24_18h05.04.966,LearnStrategy,2023.2.3,Win32,29.9832094,6,2,13,,,,,,,,5,08,,,,,,,,,,,5,2.799,1,,,,,,-0.344730999,-0.392275668,1,0,0,2.7993,Obsidian_rect,12,0,12,0,1,
65c11f6098be0f40918869d2,SCN,2024-06-24_18h05.04.966,LearnStrategy,2023.2.3,Win32,29.9832094,6,2,14,,,,,,,,5,16,,,,,,,,,,,5,1.053,1,,,,,,-0.344730999,-0.392275668,1,0,0,1.0525,Obsidian_rect,13,0,13,0,1,
65c11f6098be0f40918869d2,SCN,2024-06-24_18h05.04.966,LearnStrategy,2023.2.3,Win32,29.9832094,6,2,15,,,,,,,,3,16,,,,,,,,,,,6,7.65,0,,,,,,-0.052950324,-0.409209382,1,0,0,7.65,Pegmatite_rect,14,0,14,0,1,
65c11f6098be0f40918869d2,SCN,2024-06-24_18h05.04.966,LearnStrategy,2023.2.3,Win32,29.9832094,6,2,16,,,,,,,,6,15,,,,,,,,,,,5,4.201,0,,,,,,-0.361664641,-0.383157531,1,0,0,4.2012,Obsidian_rect,15,0,15,0,1,
65c11f6098be0f40918869d2,SCN,2024-06-24_18h05.04.966,LearnStrategy,2023.2.3,Win32,29.9832094,7,1,1,-0.55184314,-0.401393805,1,0,0,3.9269,Diorite_15,3,15,1,1,3.927,-0.366875062,-0.230754249,1,0,0,1.5821,Andesite_rect,1,1.582,0,0,0,0,0,1,,,,,,,,,,,,,
65c11f6098be0f40918869d2,SCN,2024-06-24_18h05.04.966,LearnStrategy,2023.2.3,Win32,29.9832094,7,1,2,-0.379900987,-0.410511943,1,0,0,1.275,Basalt_08,2,08,1,2,1.275,0.151556661,-0.250293083,1,0,0,2.1101,Diorite_rect,3,2.11,0,1,0,1,0,1,,,,,,,,,,,,,
65c11f6098be0f40918869d2,SCN,2024-06-24_18h05.04.966,LearnStrategy,2023.2.3,Win32,29.9832094,7,1,3,-0.206656238,-0.372736762,1,0,0,1.184,Diorite_02,3,02,1,3,1.184,-0.11026441,-0.403998998,1,0,0,1.2273,Pegmatite_rect,6,1.227,0,2,0,2,0,1,,,,,,,,,,,,,
65c11f6098be0f40918869d2,SCN,2024-06-24_18h05.04.966,LearnStrategy,2023.2.3,Win32,29.9832094,7,1,4,-0.097238449,-0.410511943,1,0,0,1.3509,Andesite_07,1,07,1,4,1.351,0.132017755,-0.243780138,1,0,0,1.7989,Diorite_rect,3,1.799,0,3,0,3,0,1,,,,,,,,,,,,,
65c11f6098be0f40918869d2,SCN,2024-06-24_18h05.04.966,LearnStrategy,2023.2.3,Win32,29.9832094,7,1,5,-0.039924434,-0.441774178,1,0,0,1.9638,Andesite_07,1,07,1,4,1.964,-0.357756924,-0.242477578,1,0,0,1.1442,Andesite_rect,1,1.144,1,4,0,4,0,1,,,,,,,,,,,,,
65c11f6098be0f40918869d2,SCN,2024-06-24_18h05.04.966,LearnStrategy,2023.2.3,Win32,29.9832094,7,1,6,0.118991937,-0.418327519,1,0,0,1.3654,Andesite_10,1,10,1,5,1.365,-0.042529626,-0.243780138,1,0,0,3.0801,Basalt_rect,2,3.08,0,5,0,5,0,1,,,,,,,,,,,,,
65c11f6098be0f40918869d2,SCN,2024-06-24_18h05.04.966,LearnStrategy,2023.2.3,Win32,29.9832094,7,1,7,0.238830423,-0.37924985,1,0,0,1.2693,Pumice_04,8,04,1,6,1.269,0.344340317,-0.387065284,1,0,0,2.058,Pumice_rect,8,2.058,1,6,0,6,0,1,,,,,,,,,,,,,
65c11f6098be0f40918869d2,SCN,2024-06-24_18h05.04.966,LearnStrategy,2023.2.3,Win32,29.9832094,7,1,8,0.38862837,-0.390973179,0,0,1,2.1052,Gabbro_08,4,08,1,7,2.105,-0.334310266,-0.25810866,1,0,0,4.4219,Andesite_rect,1,4.422,0,7,0,7,0,1,,,,,,,,,,,,,
65c11f6098be0f40918869d2,SCN,2024-06-24_18h05.04.966,LearnStrategy,2023.2.3,Win32,29.9832094,7,1,9,0.521492818,-0.398788613,1,0,0,1.6931,Diorite_08,3,08,1,8,1.693,0.158069606,-0.232056809,1,0,0,4.2751,Diorite_rect,3,4.275,1,8,0,8,0,1,,,,,,,,,,,,,
65c11f6098be0f40918869d2,SCN,2024-06-24_18h05.04.966,LearnStrategy,2023.2.3,Win32,29.9832094,7,1,10,0.376905041,-0.095284644,1,0,0,2.1367,Peridotite_08,7,08,3,7,2.137,-0.149342151,-0.402696509,1,0,0,3.6831,Pegmatite_rect,6,3.683,0,9,0,9,0,1,,,,,,,,,,,,,
65c11f6098be0f40918869d2,SCN,2024-06-24_18h05.04.966,LearnStrategy,2023.2.3,Win32,29.9832094,7,1,11,0.409469909,0.248599698,1,0,0,3.4531,Basalt_14,2,14,5,7,3.453,-0.317376552,-0.267226797,1,0,0,3.3965,Andesite_rect,1,3.397,0,10,0,10,0,1,,,,,,,,,,,,,
65c11f6098be0f40918869d2,SCN,2024-06-24_18h05.04.966,LearnStrategy,2023.2.3,Win32,29.9832094,7,1,12,0.062980482,0.367135597,1,0,0,1.4712,Basalt_01,2,01,6,5,1.471,0.134622947,-0.405301558,1,0,0,3.3773,Peridotite_rect,7,3.377,0,11,0,11,0,1,,,,,,,,,,,,,
65c11f6098be0f40918869d2,SCN,2024-06-24_18h05.04.966,LearnStrategy,2023.2.3,Win32,29.9832094,7,1,13,-0.362967273,0.074052352,1,0,0,2.9273,Pegmatite_16,6,16,4,2,2.927,0.06037529,-0.396183421,1,0,0,2.0372,Peridotite_rect,7,2.037,0,12,0,12,0,1,,,,,,,,,,,,,
65c11f6098be0f40918869d2,SCN,2024-06-24_18h05.04.966,LearnStrategy,2023.2.3,Win32,29.9832094,7,1,14,-0.202748414,0.085775682,1,0,0,1.4783,Andesite_11,1,11,4,3,1.478,-0.094633185,-0.402696509,1,0,0,3.1232,Pegmatite_rect,6,3.123,0,13,0,13,0,1,,,,,,,,,,,,,
65c11f6098be0f40918869d2,SCN,2024-06-24_18h05.04.966,LearnStrategy,2023.2.3,Win32,29.9832094,7,1,15,-0.065976285,0.079262665,1,0,0,1.7311,Obsidian_06,5,06,4,4,1.731,-0.344730999,-0.414419838,1,0,0,1.4701,Obsidian_rect,5,1.47,1,14,0,14,0,1,,,,,,,,,,,,,
65c11f6098be0f40918869d2,SCN,2024-06-24_18h05.04.966,LearnStrategy,2023.2.3,Win32,29.9832094,7,1,16,0.068190723,0.253810046,1,0,0,1.3216,Andesite_03,1,03,5,5,1.322,-0.334310266,-0.269831989,1,0,0,1.5395,Andesite_rect,1,1.54,1,15,0,15,0,1,,,,,,,,,,,,,
65c11f6098be0f40918869d2,SCN,2024-06-24_18h05.04.966,LearnStrategy,2023.2.3,Win32,29.9832094,7,2,1,,,,,,,,1,14,,,,,,,,,,,1,6.246,1,,,,,,-0.339520614,-0.234662001,1,0,0,6.2463,Andesite_rect,0,0,0,0,1,
65c11f6098be0f40918869d2,SCN,2024-06-24_18h05.04.966,LearnStrategy,2023.2.3,Win32,29.9832094,7,2,2,,,,,,,,3,10,,,,,,,,,,,3,4.328,1,,,,,,0.082519245,-0.251595715,1,0,0,4.3285,Diorite_rect,1,0,1,0,1,
65c11f6098be0f40918869d2,SCN,2024-06-24_18h05.04.966,LearnStrategy,2023.2.3,Win32,29.9832094,7,2,3,,,,,,,,5,10,,,,,,,,,,,5,1.769,1,,,,,,-0.365572465,-0.384460091,1,0,0,1.7695,Obsidian_rect,2,0,2,0,1,
65c11f6098be0f40918869d2,SCN,2024-06-24_18h05.04.966,LearnStrategy,2023.2.3,Win32,29.9832094,7,2,4,,,,,,,,7,07,,,,,,,,,,,1,9.016,0,,,,,,-0.452846156,-0.25810866,1,0,0,9.0163,Andesite_rect,3,0,3,0,1,
65c11f6098be0f40918869d2,SCN,2024-06-24_18h05.04.966,LearnStrategy,2023.2.3,Win32,29.9832094,7,2,5,,,,,,,,4,16,,,,,,,,,,,2,7.451,0,,,,,,-0.138921454,-0.234662001,1,0,0,7.4513,Basalt_rect,4,0,4,0,1,
65c11f6098be0f40918869d2,SCN,2024-06-24_18h05.04.966,LearnStrategy,2023.2.3,Win32,29.9832094,7,2,6,,,,,,,,2,10,,,,,,,,,,,2,1.297,1,,,,,,-0.138921454,-0.234662001,1,0,0,1.2973,Basalt_rect,5,0,5,0,1,
65c11f6098be0f40918869d2,SCN,2024-06-24_18h05.04.966,LearnStrategy,2023.2.3,Win32,29.9832094,7,2,7,,,,,,,,6,15,,,,,,,,,,,7,11.239,0,,,,,,0.135925508,-0.388367987,1,0,0,11.2395,Peridotite_rect,6,0,6,0,1,
65c11f6098be0f40918869d2,SCN,2024-06-24_18h05.04.966,LearnStrategy,2023.2.3,Win32,29.9832094,7,2,8,,,,,,,,8,02,,,,,,,,,,,8,1.762,1,,,,,,0.301354751,-0.409209382,1,0,0,1.762,Pumice_rect,7,0,7,0,1,
65c11f6098be0f40918869d2,SCN,2024-06-24_18h05.04.966,LearnStrategy,2023.2.3,Win32,29.9832094,7,2,9,,,,,,,,7,13,,,,,,,,,,,7,25.643,1,,,,,,0.221896638,-0.402696509,1,0,0,25.6427,Peridotite_rect,8,0,8,0,1,
65c11f6098be0f40918869d2,SCN,2024-06-24_18h05.04.966,LearnStrategy,2023.2.3,Win32,29.9832094,7,2,10,,,,,,,,6,11,,,,,,,,,,,7,1.638,0,,,,,,0.221896638,-0.402696509,1,0,0,1.6381,Peridotite_rect,9,0,9,0,1,
65c11f6098be0f40918869d2,SCN,2024-06-24_18h05.04.966,LearnStrategy,2023.2.3,Win32,29.9832094,7,2,11,,,,,,,,3,12,,,,,,,,,,,3,4.954,1,,,,,,0.172398128,-0.243780138,1,0,0,4.9544,Diorite_rect,10,0,10,0,1,
65c11f6098be0f40918869d2,SCN,2024-06-24_18h05.04.966,LearnStrategy,2023.2.3,Win32,29.9832094,7,2,12,,,,,,,,1,16,,,,,,,,,,,4,5.55,0,,,,,,0.380812865,-0.238569754,1,0,0,5.5504,Gabbro_rect,11,0,11,0,1,
65c11f6098be0f40918869d2,SCN,2024-06-24_18h05.04.966,LearnStrategy,2023.2.3,Win32,29.9832094,7,2,13,,,,,,,,5,09,,,,,,,,,,,5,2.031,1,,,,,,-0.39032172,-0.396183421,1,0,0,2.0306,Obsidian_rect,12,0,12,0,1,
65c11f6098be0f40918869d2,SCN,2024-06-24_18h05.04.966,LearnStrategy,2023.2.3,Win32,29.9832094,7,2,14,,,,,,,,4,13,,,,,,,,,,,2,12.204,0,,,,,,-0.168881057,-0.238569754,1,0,0,12.2043,Basalt_rect,13,0,13,0,1,
65c11f6098be0f40918869d2,SCN,2024-06-24_18h05.04.966,LearnStrategy,2023.2.3,Win32,29.9832094,7,2,15,,,,,,,,8,05,,,,,,,,,,,8,3.32,1,,,,,,0.349550701,-0.402696509,1,0,0,3.3204,Pumice_rect,14,0,14,0,1,
65c11f6098be0f40918869d2,SCN,2024-06-24_18h05.04.966,LearnStrategy,2023.2.3,Win32,29.9832094,7,2,16,,,,,,,,2,02,,,,,,,,,,,2,1.552,1,,,,,,-0.071186526,-0.232056809,1,0,0,1.5515,Basalt_rect,15,0,15,0,1,
65c11f6098be0f40918869d2,SCN,2024-06-24_18h05.04.966,LearnStrategy,2023.2.3,Win32,29.9832094,8,1,1,0.052559641,0.088380874,1,0,0,1.4075,Obsidian_07,5,07,4,5,1.407,-0.051647763,-0.241174946,1,0,0,1.1328,Basalt_rect,2,1.133,0,0,0,0,0,1,,,,,,,,,,,,,
65c11f6098be0f40918869d2,SCN,2024-06-24_18h05.04.966,LearnStrategy,2023.2.3,Win32,29.9832094,8,1,2,0.074703811,-0.065325076,1,0,0,0.8796,Pegmatite_08,6,08,3,5,0.88,0.118991937,-0.384460091,1,0,0,1.0478,Peridotite_rect,7,1.048,0,1,0,1,0,1,,,,,,,,,,,,,
65c11f6098be0f40918869d2,SCN,2024-06-24_18h05.04.966,LearnStrategy,2023.2.3,Win32,29.9832094,8,1,3,0.241435616,-0.277647566,1,0,0,2.2862,Pegmatite_10,6,10,2,6,2.286,-0.11026441,-0.397486053,1,0,0,1.3394,Pegmatite_rect,6,1.339,1,2,0,2,0,1,,,,,,,,,,,,,
65c11f6098be0f40918869d2,SCN,2024-06-24_18h05.04.966,LearnStrategy,2023.2.3,Win32,29.9832094,8,1,4,0.345642877,0.360622634,1,0,0,6.2485,Pegmatite_06,6,06,6,7,6.249,-0.056858005,-0.392275668,1,0,0,2.1175,Pegmatite_rect,6,2.117,1,3,0,3,0,1,,,,,,,,,,,,,
65c11f6098be0f40918869d2,SCN,2024-06-24_18h05.04.966,LearnStrategy,2023.2.3,Win32,29.9832094,8,1,5,0.551452422,-0.414419838,1,0,0,4.0949,Diorite_08,3,08,1,8,4.095,0.111176288,-0.229451617,1,0,0,2.1684,Diorite_rect,3,2.168,1,4,0,4,0,1,,,,,,,,,,,,,
65c11f6098be0f40918869d2,SCN,2024-06-24_18h05.04.966,LearnStrategy,2023.2.3,Win32,29.9832094,8,1,6,-0.261365061,-0.414419838,1,0,0,1.3978,Diorite_02,3,02,1,3,1.398,0.150254029,-0.252898276,1,0,0,1.2429,Diorite_rect,3,1.243,1,5,0,5,0,1,,,,,,,,,,,,,
65c11f6098be0f40918869d2,SCN,2024-06-24_18h05.04.966,LearnStrategy,2023.2.3,Win32,29.9832094,8,1,7,0.534518708,-0.254200907,1,0,0,4.41,Gabbro_12,4,12,2,8,4.41,-0.383808704,-0.241174946,1,0,0,2.0527,Andesite_rect,1,2.053,0,6,0,6,0,1,,,,,,,,,,,,,
65c11f6098be0f40918869d2,SCN,2024-06-24_18h05.04.966,LearnStrategy,2023.2.3,Win32,29.9832094,8,1,8,-0.052950324,-0.093982048,1,0,0,1.168,Pumice_08,8,08,3,4,1.168,0.404259524,-0.255503468,1,0,0,2.9554,Gabbro_rect,4,2.955,0,7,0,7,0,1,,,,,,,,,,,,,
65c11f6098be0f40918869d2,SCN,2024-06-24_18h05.04.966,LearnStrategy,2023.2.3,Win32,29.9832094,8,1,9,0.249251049,-0.10961313,1,0,0,2.1567,Andesite_09,1,09,3,6,2.157,0.376905041,-0.247688034,1,0,0,1.0697,Gabbro_rect,4,1.07,0,8,0,8,0,1,,,,,,,,,,,,,
65c11f6098be0f40918869d2,SCN,2024-06-24_18h05.04.966,LearnStrategy,2023.2.3,Win32,29.9832094,8,1,10,-0.201445853,0.07144716,1,0,0,1.44,Andesite_11,1,11,4,3,1.44,-0.325192057,-0.241174946,1,0,0,2.1253,Andesite_rect,1,2.125,1,9,0,9,0,1,,,,,,,,,,,,,
65c11f6098be0f40918869d2,SCN,2024-06-24_18h05.04.966,LearnStrategy,2023.2.3,Win32,29.9832094,8,1,11,0.104663344,0.264230815,1,0,0,1.2544,Andesite_03,1,03,5,5,1.254,-0.326494653,-0.239872386,1,0,0,1.314,Andesite_rect,1,1.314,1,10,0,10,0,1,,,,,,,,,,,,,
65c11f6098be0f40918869d2,SCN,2024-06-24_18h05.04.966,LearnStrategy,2023.2.3,Win32,29.9832094,8,1,12,0.498046159,0.368438184,1,0,0,6.0667,Peridotite_05,7,05,6,8,6.067,-0.168881057,-0.389670476,1,0,0,2.0183,Pegmatite_rect,6,2.018,0,11,0,11,0,1,,,,,,,,,,,,,
65c11f6098be0f40918869d2,SCN,2024-06-24_18h05.04.966,LearnStrategy,2023.2.3,Win32,29.9832094,8,1,13,-0.359059521,0.212127095,1,0,0,2.4235,Pegmatite_13,6,13,5,2,2.423,0.190634402,-0.393578229,1,0,0,1.5112,Peridotite_rect,7,1.511,0,12,0,12,0,1,,,,,,,,,,,,,
65c11f6098be0f40918869d2,SCN,2024-06-24_18h05.04.966,LearnStrategy,2023.2.3,Win32,29.9832094,8,1,14,-0.372085375,0.062329023,1,0,0,1.8439,Pegmatite_16,6,16,4,2,1.844,-0.112869603,-0.389670476,1,0,0,3.2239,Pegmatite_rect,6,3.224,1,13,0,13,0,1,,,,,,,,,,,,,
65c11f6098be0f40918869d2,SCN,2024-06-24_18h05.04.966,LearnStrategy,2023.2.3,Win32,29.9832094,8,1,15,-0.499739474,0.101406728,1,0,0,8.5818,Peridotite_06,7,06,4,1,8.582,0.120294426,-0.40660419,1,0,0,1.8209,Peridotite_rect,7,1.821,1,14,0,14,0,1,,,,,,,,,,,,,
65c11f6098be0f40918869d2,SCN,2024-06-24_18h05.04.966,LearnStrategy,2023.2.3,Win32,29.9832094,8,1,16,-0.541422407,-0.057509464,1,0,0,2.7703,Peridotite_16,7,16,3,1,2.77,0.158069606,-0.384460091,1,0,0,1.6197,Peridotite_rect,7,1.62,1,15,0,15,0,1,,,,,,,,,,,,,
65c11f6098be0f40918869d2,SCN,2024-06-24_18h05.04.966,LearnStrategy,2023.2.3,Win32,29.9832094,8,2,1,,,,,,,,6,09,,,,,,,,,,,6,5.188,1,,,,,,-0.127197981,-0.397486053,1,0,0,5.1884,Pegmatite_rect,0,0,0,0,1,
65c11f6098be0f40918869d2,SCN,2024-06-24_18h05.04.966,LearnStrategy,2023.2.3,Win32,29.9832094,8,2,2,,,,,,,,2,16,,,,,,,,,,,2,2.198,1,,,,,,-0.124592932,-0.252898276,1,0,0,2.1977,Basalt_rect,1,0,1,0,1,
65c11f6098be0f40918869d2,SCN,2024-06-24_18h05.04.966,LearnStrategy,2023.2.3,Win32,29.9832094,8,2,3,,,,,,,,7,14,,,,,,,,,,,6,4.34,0,,,,,,-0.101146273,-0.418327519,1,0,0,4.3404,Pegmatite_rect,2,0,2,0,1,
65c11f6098be0f40918869d2,SCN,2024-06-24_18h05.04.966,LearnStrategy,2023.2.3,Win32,29.9832094,8,2,4,,,,,,,,1,01,,,,,,,,,,,4,10.066,0,,,,,,0.391233634,-0.248990523,1,0,0,10.0664,Gabbro_rect,3,0,3,0,1,
65c11f6098be0f40918869d2,SCN,2024-06-24_18h05.04.966,LearnStrategy,2023.2.3,Win32,29.9832094,8,2,5,,,,,,,,3,11,,,,,,,,,,,1,5.005,0,,,,,,-0.383808704,-0.234662001,1,0,0,5.0055,Andesite_rect,4,0,4,0,1,
65c11f6098be0f40918869d2,SCN,2024-06-24_18h05.04.966,LearnStrategy,2023.2.3,Win32,29.9832094,8,2,6,,,,,,,,4,01,,,,,,,,,,,3,15.14,0,,,,,,0.108571096,-0.242477578,1,0,0,15.1397,Diorite_rect,5,0,5,0,1,
65c11f6098be0f40918869d2,SCN,2024-06-24_18h05.04.966,LearnStrategy,2023.2.3,Win32,29.9832094,8,2,7,,,,,,,,8,13,,,,,,,,,,,8,1.831,1,,,,,,0.358668767,-0.410511943,1,0,0,1.8309,Pumice_rect,6,0,6,0,1,
65c11f6098be0f40918869d2,SCN,2024-06-24_18h05.04.966,LearnStrategy,2023.2.3,Win32,29.9832094,8,2,8,,,,,,,,8,06,,,,,,,,,,,8,0.925,1,,,,,,0.358668767,-0.410511943,1,0,0,0.9253,Pumice_rect,7,0,7,0,1,
65c11f6098be0f40918869d2,SCN,2024-06-24_18h05.04.966,LearnStrategy,2023.2.3,Win32,29.9832094,8,2,9,,,,,,,,5,12,,,,,,,,,,,5,1.88,1,,,,,,-0.435912442,-0.394880861,1,0,0,1.8796,Obsidian_rect,8,0,8,0,1,
65c11f6098be0f40918869d2,SCN,2024-06-24_18h05.04.966,LearnStrategy,2023.2.3,Win32,29.9832094,8,2,10,,,,,,,,5,16,,,,,,,,,,,5,0.925,1,,,,,,-0.435912442,-0.394880861,1,0,0,0.9245,Obsidian_rect,9,0,9,0,1,
65c11f6098be0f40918869d2,SCN,2024-06-24_18h05.04.966,LearnStrategy,2023.2.3,Win32,29.9832094,8,2,11,,,,,,,,7,02,,,,,,,,,,,6,2.18,0,,,,,,-0.226195073,-0.420932712,1,0,0,2.1795,Pegmatite_rect,10,0,10,0,1,
65c11f6098be0f40918869d2,SCN,2024-06-24_18h05.04.966,LearnStrategy,2023.2.3,Win32,29.9832094,8,2,12,,,,,,,,1,06,,,,,,,,,,,3,5.219,0,,,,,,0.141135892,-0.24508277,1,0,0,5.2193,Diorite_rect,11,0,11,0,1,
65c11f6098be0f40918869d2,SCN,2024-06-24_18h05.04.966,LearnStrategy,2023.2.3,Win32,29.9832094,8,2,13,,,,,,,,3,16,,,,,,,,,,,3,6.197,1,,,,,,0.164582551,-0.242477578,1,0,0,6.1967,Diorite_rect,12,0,12,0,1,
65c11f6098be0f40918869d2,SCN,2024-06-24_18h05.04.966,LearnStrategy,2023.2.3,Win32,29.9832094,8,2,14,,,,,,,,4,03,,,,,,,,,,,1,7.05,0,,,,,,-0.361664641,-0.241174946,1,0,0,7.0499,Andesite_rect,13,0,13,0,1,
65c11f6098be0f40918869d2,SCN,2024-06-24_18h05.04.966,LearnStrategy,2023.2.3,Win32,29.9832094,8,2,15,,,,,,,,6,05,,,,,,,,,,,7,3.269,0,,,,,,0.086427141,-0.414419838,1,0,0,3.2692,Peridotite_rect,14,0,14,0,1,
65c11f6098be0f40918869d2,SCN,2024-06-24_18h05.04.966,LearnStrategy,2023.2.3,Win32,29.9832094,8,2,16,,,,,,,,2,09,,,,,,,,,,,2,1.794,1,,,,,,-0.095935889,-0.250293083,1,0,0,1.7944,Basalt_rect,15,0,15,0,1,
65c11f6098be0f40918869d2,SCN,2024-06-24_18h05.04.966,LearnStrategy,2023.2.3,Win32,29.9832094,9,1,1,0.083821948,0.115735285,1,0,0,1.3735,Obsidian_07,5,07,4,5,1.373,0.163279991,-0.255503468,1,0,0,1.2335,Diorite_rect,3,1.233,0,0,0,0,0,1,,,,,,,,,,,,,
65c11f6098be0f40918869d2,SCN,2024-06-24_18h05.04.966,LearnStrategy,2023.2.3,Win32,29.9832094,9,1,2,-0.036016538,-0.053601747,1,0,0,0.8257,Pumice_08,8,08,3,4,0.826,0.401654403,-0.389670476,1,0,0,3.434,Pumice_rect,8,3.434,1,1,0,1,0,1,,,,,,,,,,,,,
65c11f6098be0f40918869d2,SCN,2024-06-24_18h05.04.966,LearnStrategy,2023.2.3,Win32,29.9832094,9,1,3,0.079914053,-0.267226797,1,0,0,1.2703,Pumice_03,8,03,2,5,1.27,0.363879151,-0.385762723,1,0,0,1.5828,Pumice_rect,8,1.583,1,2,0,2,0,1,,,,,,,,,,,,,
65c11f6098be0f40918869d2,SCN,2024-06-24_18h05.04.966,LearnStrategy,2023.2.3,Win32,29.9832094,9,1,4,-0.22098476,-0.426143168,1,0,0,1.3816,Diorite_02,3,02,1,3,1.382,0.079914053,-0.381854899,1,0,0,1.2207,Peridotite_rect,7,1.221,0,3,0,3,0,1,,,,,,,,,,,,,
65c11f6098be0f40918869d2,SCN,2024-06-24_18h05.04.966,LearnStrategy,2023.2.3,Win32,29.9832094,9,1,5,-0.194932909,-0.241174946,1,0,0,2.1204,Gabbro_10,4,10,2,3,2.12,-0.194932909,-0.241174946,1,0,0,0.8276,Basalt_rect,2,0.828,0,4,0,4,0,1,,,,,,,,,,,,,
65c11f6098be0f40918869d2,SCN,2024-06-24_18h05.04.966,LearnStrategy,2023.2.3,Win32,29.9832094,9,1,6,-0.346033595,-0.233359441,1,0,0,1.1958,Obsidian_14,5,14,2,2,1.196,-0.119382547,-0.24508277,1,0,0,1.7463,Basalt_rect,2,1.746,0,5,0,5,0,1,,,,,,,,,,,,,
65c11f6098be0f40918869d2,SCN,2024-06-24_18h05.04.966,LearnStrategy,2023.2.3,Win32,29.9832094,9,1,7,0.245343297,0.107919744,1,0,0,1.3137,Pegmatite_03,6,03,4,6,1.314,0.128110002,-0.420932712,1,0,0,1.6485,Peridotite_rect,7,1.649,0,6,0,6,0,1,,,,,,,,,,,,,
65c11f6098be0f40918869d2,SCN,2024-06-24_18h05.04.966,LearnStrategy,2023.2.3,Win32,29.9832094,9,1,8,-0.056858005,0.25120489,1,0,0,1.7559,Diorite_13,3,13,5,4,1.756,0.190634402,-0.239872386,1,0,0,2.0689,Diorite_rect,3,2.069,1,7,0,7,0,1,,,,,,,,,,,,,
65c11f6098be0f40918869d2,SCN,2024-06-24_18h05.04.966,LearnStrategy,2023.2.3,Win32,29.9832094,9,1,9,-0.080304663,-0.123941652,1,0,0,1.0756,Pumice_08,8,08,3,4,1.076,0.389931074,-0.37924985,1,0,0,1.9737,Pumice_rect,8,1.974,1,8,0,8,0,1,,,,,,,,,,,,,
65c11f6098be0f40918869d2,SCN,2024-06-24_18h05.04.966,LearnStrategy,2023.2.3,Win32,29.9832094,9,1,10,0.383418129,0.093591223,1,0,0,2.1825,Diorite_07,3,07,4,7,2.182,0.160674798,-0.250293083,1,0,0,1.2949,Diorite_rect,3,1.295,1,9,0,9,0,1,,,,,,,,,,,,,
65c11f6098be0f40918869d2,SCN,2024-06-24_18h05.04.966,LearnStrategy,2023.2.3,Win32,29.9832094,9,1,11,0.408167348,0.242086717,1,0,0,2.6481,Basalt_14,2,14,5,7,2.648,-0.120685108,-0.237267193,1,0,0,2.1897,Basalt_rect,2,2.19,1,10,0,10,0,1,,,,,,,,,,,,,
65c11f6098be0f40918869d2,SCN,2024-06-24_18h05.04.966,LearnStrategy,2023.2.3,Win32,29.9832094,9,1,12,0.043441504,-0.101797625,1,0,0,0.7284,Pegmatite_08,6,08,3,5,0.728,0.158069606,-0.403998998,1,0,0,2.3237,Peridotite_rect,7,2.324,0,11,0,11,0,1,,,,,,,,,,,,,
65c11f6098be0f40918869d2,SCN,2024-06-24_18h05.04.966,LearnStrategy,2023.2.3,Win32,29.9832094,9,1,13,-0.105054026,-0.246385331,1,0,0,1.4047,Gabbro_14,4,14,2,4,1.405,-0.049042571,-0.241174946,1,0,0,1.2796,Basalt_rect,2,1.28,0,12,0,12,0,1,,,,,,,,,,,,,
65c11f6098be0f40918869d2,SCN,2024-06-24_18h05.04.966,LearnStrategy,2023.2.3,Win32,29.9832094,9,1,14,0.541031653,-0.238569754,1,0,0,1.7145,Gabbro_12,4,12,2,8,1.715,0.37429992,-0.234662001,1,0,0,2.4824,Gabbro_rect,4,2.482,1,13,0,13,0,1,,,,,,,,,,,,,
65c11f6098be0f40918869d2,SCN,2024-06-24_18h05.04.966,LearnStrategy,2023.2.3,Win32,29.9832094,9,1,15,-0.059463197,0.130063807,1,0,0,1.4358,Obsidian_06,5,06,4,4,1.436,-0.365572465,-0.401393805,1,0,0,1.5911,Obsidian_rect,5,1.591,1,14,0,14,0,1,,,,,,,,,,,,,
65c11f6098be0f40918869d2,SCN,2024-06-24_18h05.04.966,LearnStrategy,2023.2.3,Win32,29.9832094,9,1,16,0.072098619,-0.440471689,1,0,0,1.3928,Andesite_10,1,10,1,5,1.393,0.100755519,-0.411814574,1,0,0,0.9839,Peridotite_rect,7,0.984,0,15,0,15,0,1,,,,,,,,,,,,,
65c11f6098be0f40918869d2,SCN,2024-06-24_18h05.04.966,LearnStrategy,2023.2.3,Win32,29.9832094,9,2,1,,,,,,,,3,14,,,,,,,,,,,1,7.703,0,,,,,,-0.383808704,-0.234662001,1,0,0,7.7029,Andesite_rect,0,0,0,0,1,
65c11f6098be0f40918869d2,SCN,2024-06-24_18h05.04.966,LearnStrategy,2023.2.3,Win32,29.9832094,9,2,2,,,,,,,,8,10,,,,,,,,,,,8,2.581,1,,,,,,0.361274031,-0.400091317,1,0,0,2.5814,Pumice_rect,1,0,1,0,1,
65c11f6098be0f40918869d2,SCN,2024-06-24_18h05.04.966,LearnStrategy,2023.2.3,Win32,29.9832094,9,2,3,,,,,,,,4,09,,,,,,,,,,,4,8.876,1,,,,,,0.356063646,-0.248990523,1,0,0,8.8759,Gabbro_rect,2,0,2,0,1,
65c11f6098be0f40918869d2,SCN,2024-06-24_18h05.04.966,LearnStrategy,2023.2.3,Win32,29.9832094,9,2,4,,,,,,,,2,04,,,,,,,,,,,4,7.153,0,,,,,,0.356063646,-0.248990523,1,0,0,7.153,Gabbro_rect,3,0,3,0,1,
65c11f6098be0f40918869d2,SCN,2024-06-24_18h05.04.966,LearnStrategy,2023.2.3,Win32,29.9832094,9,2,5,,,,,,,,1,02,,,,,,,,,,,3,4.976,0,,,,,,0.099452959,-0.267226797,1,0,0,4.9764,Diorite_rect,4,0,4,0,1,
65c11f6098be0f40918869d2,SCN,2024-06-24_18h05.04.966,LearnStrategy,2023.2.3,Win32,29.9832094,9,2,6,,,,,,,,4,15,,,,,,,,,,,3,4.455,0,,,,,,0.099452959,-0.267226797,1,0,0,4.455,Diorite_rect,5,0,5,0,1,
65c11f6098be0f40918869d2,SCN,2024-06-24_18h05.04.966,LearnStrategy,2023.2.3,Win32,29.9832094,9,2,7,,,,,,,,7,15,,,,,,,,,,,7,13.986,1,,,,,,0.158069606,-0.397486053,1,0,0,13.9864,Peridotite_rect,6,0,6,0,1,
65c11f6098be0f40918869d2,SCN,2024-06-24_18h05.04.966,LearnStrategy,2023.2.3,Win32,29.9832094,9,2,8,,,,,,,,5,08,,,,,,,,,,,5,1.722,1,,,,,,-0.338217982,-0.400091317,1,0,0,1.7218,Obsidian_rect,7,0,7,0,1,
65c11f6098be0f40918869d2,SCN,2024-06-24_18h05.04.966,LearnStrategy,2023.2.3,Win32,29.9832094,9,2,9,,,,,,,,6,12,,,,,,,,,,,6,11.929,1,,,,,,-0.07379179,-0.409209382,1,0,0,11.9294,Pegmatite_rect,8,0,8,0,1,
65c11f6098be0f40918869d2,SCN,2024-06-24_18h05.04.966,LearnStrategy,2023.2.3,Win32,29.9832094,9,2,10,,,,,,,,7,04,,,,,,,,,,,6,1.215,0,,,,,,-0.07379179,-0.409209382,1,0,0,1.2151,Pegmatite_rect,9,0,9,0,1,
65c11f6098be0f40918869d2,SCN,2024-06-24_18h05.04.966,LearnStrategy,2023.2.3,Win32,29.9832094,9,2,11,,,,,,,,3,09,,,,,,,,,,,3,5.333,1,,,,,,0.103360712,-0.243780138,1,0,0,5.3332,Diorite_rect,10,0,10,0,1,
65c11f6098be0f40918869d2,SCN,2024-06-24_18h05.04.966,LearnStrategy,2023.2.3,Win32,29.9832094,9,2,12,,,,,,,,1,04,,,,,,,,,,,2,7.76,0,,,,,,-0.11026441,-0.259411364,1,0,0,7.7603,Basalt_rect,11,0,11,0,1,
65c11f6098be0f40918869d2,SCN,2024-06-24_18h05.04.966,LearnStrategy,2023.2.3,Win32,29.9832094,9,2,13,,,,,,,,6,07,,,,,,,,,,,6,3.597,1,,,,,,-0.071186526,-0.383157531,1,0,0,3.5966,Pegmatite_rect,12,0,12,0,1,
65c11f6098be0f40918869d2,SCN,2024-06-24_18h05.04.966,LearnStrategy,2023.2.3,Win32,29.9832094,9,2,14,,,,,,,,8,16,,,,,,,,,,,8,3.777,1,,,,,,0.320893658,-0.37924985,1,0,0,3.7772,Pumice_rect,13,0,13,0,1,
65c11f6098be0f40918869d2,SCN,2024-06-24_18h05.04.966,LearnStrategy,2023.2.3,Win32,29.9832094,9,2,15,,,,,,,,5,05,,,,,,,,,,,5,2.797,1,,,,,,-0.426794305,-0.383157531,1,0,0,2.7972,Obsidian_rect,14,0,14,0,1,
65c11f6098be0f40918869d2,SCN,2024-06-24_18h05.04.966,LearnStrategy,2023.2.3,Win32,29.9832094,9,2,16,,,,,,,,2,12,,,,,,,,,,,8,2.45,0,,,,,,0.324801482,-0.384460091,1,0,0,2.4497,Pumice_rect,15,0,15,0,1,
65c11f6098be0f40918869d2,SCN,2024-06-24_18h05.04.966,LearnStrategy,2023.2.3,Win32,29.9832094,,,,,,,,,,,,,,,,,,,,,,,,,,,,,,,,,,,,,,,,,,,0
65c11f6098be0f40918869d2,SCN,2024-06-24_18h05.04.966,LearnStrategy,2023.2.3,Win32,29.9832094,,,,,,,,,,,,,,,,,,,,,,,,,,,,,,,,,,,,,,,,,,,
65c11f6098be0f40918869d2,SCN,2024-06-24_18h05.04.966,LearnStrategy,2023.2.3,Win32,29.9832094,,,,,,,,,,,3,15,1,1,,,,,,,,,,,,,,,,,,,,,,,,,,,,,
65c11f6098be0f40918869d2,SCN,2024-06-24_18h05.04.966,LearnStrategy,2023.2.3,Win32,29.9832094,,,,,,,,,,,2,08,1,2,,,,,,,,,,,,,,,,,,,,,,,,,,,,,
65c11f6098be0f40918869d2,SCN,2024-06-24_18h05.04.966,LearnStrategy,2023.2.3,Win32,29.9832094,,,,,,,,,,,3,02,1,3,,,,,,,,,,,,,,,,,,,,,,,,,,,,,
65c11f6098be0f40918869d2,SCN,2024-06-24_18h05.04.966,LearnStrategy,2023.2.3,Win32,29.9832094,,,,,,,,,,,1,07,1,4,,,,,,,,,,,,,,,,,,,,,,,,,,,,,
65c11f6098be0f40918869d2,SCN,2024-06-24_18h05.04.966,LearnStrategy,2023.2.3,Win32,29.9832094,,,,,,,,,,,1,10,1,5,,,,,,,,,,,,,,,,,,,,,,,,,,,,,
65c11f6098be0f40918869d2,SCN,2024-06-24_18h05.04.966,LearnStrategy,2023.2.3,Win32,29.9832094,,,,,,,,,,,8,04,1,6,,,,,,,,,,,,,,,,,,,,,,,,,,,,,
65c11f6098be0f40918869d2,SCN,2024-06-24_18h05.04.966,LearnStrategy,2023.2.3,Win32,29.9832094,,,,,,,,,,,4,08,1,7,,,,,,,,,,,,,,,,,,,,,,,,,,,,,
65c11f6098be0f40918869d2,SCN,2024-06-24_18h05.04.966,LearnStrategy,2023.2.3,Win32,29.9832094,,,,,,,,,,,3,08,1,8,,,,,,,,,,,,,,,,,,,,,,,,,,,,,
65c11f6098be0f40918869d2,SCN,2024-06-24_18h05.04.966,LearnStrategy,2023.2.3,Win32,29.9832094,,,,,,,,,,,5,11,2,1,,,,,,,,,,,,,,,,,,,,,,,,,,,,,
65c11f6098be0f40918869d2,SCN,2024-06-24_18h05.04.966,LearnStrategy,2023.2.3,Win32,29.9832094,,,,,,,,,,,5,14,2,2,,,,,,,,,,,,,,,,,,,,,,,,,,,,,
65c11f6098be0f40918869d2,SCN,2024-06-24_18h05.04.966,LearnStrategy,2023.2.3,Win32,29.9832094,,,,,,,,,,,4,10,2,3,,,,,,,,,,,,,,,,,,,,,,,,,,,,,
65c11f6098be0f40918869d2,SCN,2024-06-24_18h05.04.966,LearnStrategy,2023.2.3,Win32,29.9832094,,,,,,,,,,,4,14,2,4,,,,,,,,,,,,,,,,,,,,,,,,,,,,,
65c11f6098be0f40918869d2,SCN,2024-06-24_18h05.04.966,LearnStrategy,2023.2.3,Win32,29.9832094,,,,,,,,,,,8,03,2,5,,,,,,,,,,,,,,,,,,,,,,,,,,,,,
65c11f6098be0f40918869d2,SCN,2024-06-24_18h05.04.966,LearnStrategy,2023.2.3,Win32,29.9832094,,,,,,,,,,,6,10,2,6,,,,,,,,,,,,,,,,,,,,,,,,,,,,,
65c11f6098be0f40918869d2,SCN,2024-06-24_18h05.04.966,LearnStrategy,2023.2.3,Win32,29.9832094,,,,,,,,,,,1,05,2,7,,,,,,,,,,,,,,,,,,,,,,,,,,,,,
65c11f6098be0f40918869d2,SCN,2024-06-24_18h05.04.966,LearnStrategy,2023.2.3,Win32,29.9832094,,,,,,,,,,,4,12,2,8,,,,,,,,,,,,,,,,,,,,,,,,,,,,,
65c11f6098be0f40918869d2,SCN,2024-06-24_18h05.04.966,LearnStrategy,2023.2.3,Win32,29.9832094,,,,,,,,,,,7,16,3,1,,,,,,,,,,,,,,,,,,,,,,,,,,,,,
65c11f6098be0f40918869d2,SCN,2024-06-24_18h05.04.966,LearnStrategy,2023.2.3,Win32,29.9832094,,,,,,,,,,,4,11,3,2,,,,,,,,,,,,,,,,,,,,,,,,,,,,,
65c11f6098be0f40918869d2,SCN,2024-06-24_18h05.04.966,LearnStrategy,2023.2.3,Win32,29.9832094,,,,,,,,,,,8,15,3,3,,,,,,,,,,,,,,,,,,,,,,,,,,,,,
65c11f6098be0f40918869d2,SCN,2024-06-24_18h05.04.966,LearnStrategy,2023.2.3,Win32,29.9832094,,,,,,,,,,,8,08,3,4,,,,,,,,,,,,,,,,,,,,,,,,,,,,,
65c11f6098be0f40918869d2,SCN,2024-06-24_18h05.04.966,LearnStrategy,2023.2.3,Win32,29.9832094,,,,,,,,,,,6,08,3,5,,,,,,,,,,,,,,,,,,,,,,,,,,,,,
65c11f6098be0f40918869d2,SCN,2024-06-24_18h05.04.966,LearnStrategy,2023.2.3,Win32,29.9832094,,,,,,,,,,,1,09,3,6,,,,,,,,,,,,,,,,,,,,,,,,,,,,,
65c11f6098be0f40918869d2,SCN,2024-06-24_18h05.04.966,LearnStrategy,2023.2.3,Win32,29.9832094,,,,,,,,,,,7,08,3,7,,,,,,,,,,,,,,,,,,,,,,,,,,,,,
65c11f6098be0f40918869d2,SCN,2024-06-24_18h05.04.966,LearnStrategy,2023.2.3,Win32,29.9832094,,,,,,,,,,,2,11,3,8,,,,,,,,,,,,,,,,,,,,,,,,,,,,,
65c11f6098be0f40918869d2,SCN,2024-06-24_18h05.04.966,LearnStrategy,2023.2.3,Win32,29.9832094,,,,,,,,,,,7,06,4,1,,,,,,,,,,,,,,,,,,,,,,,,,,,,,
65c11f6098be0f40918869d2,SCN,2024-06-24_18h05.04.966,LearnStrategy,2023.2.3,Win32,29.9832094,,,,,,,,,,,6,16,4,2,,,,,,,,,,,,,,,,,,,,,,,,,,,,,
65c11f6098be0f40918869d2,SCN,2024-06-24_18h05.04.966,LearnStrategy,2023.2.3,Win32,29.9832094,,,,,,,,,,,1,11,4,3,,,,,,,,,,,,,,,,,,,,,,,,,,,,,
65c11f6098be0f40918869d2,SCN,2024-06-24_18h05.04.966,LearnStrategy,2023.2.3,Win32,29.9832094,,,,,,,,,,,5,06,4,4,,,,,,,,,,,,,,,,,,,,,,,,,,,,,
65c11f6098be0f40918869d2,SCN,2024-06-24_18h05.04.966,LearnStrategy,2023.2.3,Win32,29.9832094,,,,,,,,,,,5,07,4,5,,,,,,,,,,,,,,,,,,,,,,,,,,,,,
65c11f6098be0f40918869d2,SCN,2024-06-24_18h05.04.966,LearnStrategy,2023.2.3,Win32,29.9832094,,,,,,,,,,,6,03,4,6,,,,,,,,,,,,,,,,,,,,,,,,,,,,,
65c11f6098be0f40918869d2,SCN,2024-06-24_18h05.04.966,LearnStrategy,2023.2.3,Win32,29.9832094,,,,,,,,,,,3,07,4,7,,,,,,,,,,,,,,,,,,,,,,,,,,,,,
65c11f6098be0f40918869d2,SCN,2024-06-24_18h05.04.966,LearnStrategy,2023.2.3,Win32,29.9832094,,,,,,,,,,,3,06,4,8,,,,,,,,,,,,,,,,,,,,,,,,,,,,,
65c11f6098be0f40918869d2,SCN,2024-06-24_18h05.04.966,LearnStrategy,2023.2.3,Win32,29.9832094,,,,,,,,,,,5,02,5,1,,,,,,,,,,,,,,,,,,,,,,,,,,,,,
65c11f6098be0f40918869d2,SCN,2024-06-24_18h05.04.966,LearnStrategy,2023.2.3,Win32,29.9832094,,,,,,,,,,,6,13,5,2,,,,,,,,,,,,,,,,,,,,,,,,,,,,,
65c11f6098be0f40918869d2,SCN,2024-06-24_18h05.04.966,LearnStrategy,2023.2.3,Win32,29.9832094,,,,,,,,,,,8,14,5,3,,,,,,,,,,,,,,,,,,,,,,,,,,,,,
65c11f6098be0f40918869d2,SCN,2024-06-24_18h05.04.966,LearnStrategy,2023.2.3,Win32,29.9832094,,,,,,,,,,,3,13,5,4,,,,,,,,,,,,,,,,,,,,,,,,,,,,,
65c11f6098be0f40918869d2,SCN,2024-06-24_18h05.04.966,LearnStrategy,2023.2.3,Win32,29.9832094,,,,,,,,,,,1,03,5,5,,,,,,,,,,,,,,,,,,,,,,,,,,,,,
65c11f6098be0f40918869d2,SCN,2024-06-24_18h05.04.966,LearnStrategy,2023.2.3,Win32,29.9832094,,,,,,,,,,,7,12,5,6,,,,,,,,,,,,,,,,,,,,,,,,,,,,,
65c11f6098be0f40918869d2,SCN,2024-06-24_18h05.04.966,LearnStrategy,2023.2.3,Win32,29.9832094,,,,,,,,,,,2,14,5,7,,,,,,,,,,,,,,,,,,,,,,,,,,,,,
65c11f6098be0f40918869d2,SCN,2024-06-24_18h05.04.966,LearnStrategy,2023.2.3,Win32,29.9832094,,,,,,,,,,,5,04,5,8,,,,,,,,,,,,,,,,,,,,,,,,,,,,,
65c11f6098be0f40918869d2,SCN,2024-06-24_18h05.04.966,LearnStrategy,2023.2.3,Win32,29.9832094,,,,,,,,,,,8,09,6,1,,,,,,,,,,,,,,,,,,,,,,,,,,,,,
65c11f6098be0f40918869d2,SCN,2024-06-24_18h05.04.966,LearnStrategy,2023.2.3,Win32,29.9832094,,,,,,,,,,,4,05,6,2,,,,,,,,,,,,,,,,,,,,,,,,,,,,,
65c11f6098be0f40918869d2,SCN,2024-06-24_18h05.04.966,LearnStrategy,2023.2.3,Win32,29.9832094,,,,,,,,,,,7,10,6,3,,,,,,,,,,,,,,,,,,,,,,,,,,,,,
65c11f6098be0f40918869d2,SCN,2024-06-24_18h05.04.966,LearnStrategy,2023.2.3,Win32,29.9832094,,,,,,,,,,,2,05,6,4,,,,,,,,,,,,,,,,,,,,,,,,,,,,,
65c11f6098be0f40918869d2,SCN,2024-06-24_18h05.04.966,LearnStrategy,2023.2.3,Win32,29.9832094,,,,,,,,,,,2,01,6,5,,,,,,,,,,,,,,,,,,,,,,,,,,,,,
65c11f6098be0f40918869d2,SCN,2024-06-24_18h05.04.966,LearnStrategy,2023.2.3,Win32,29.9832094,,,,,,,,,,,2,06,6,6,,,,,,,,,,,,,,,,,,,,,,,,,,,,,
65c11f6098be0f40918869d2,SCN,2024-06-24_18h05.04.966,LearnStrategy,2023.2.3,Win32,29.9832094,,,,,,,,,,,6,06,6,7,,,,,,,,,,,,,,,,,,,,,,,,,,,,,
65c11f6098be0f40918869d2,SCN,2024-06-24_18h05.04.966,LearnStrategy,2023.2.3,Win32,29.9832094,,,,,,,,,,,7,05,6,8,,,,,,,,,,,,,,,,,,,,,,,,,,,,,