participant,condition,date,expName,psychopyVersion,OS,frameRate,block,phase,trial,learn_mouse_2.x,learn_mouse_2.y,learn_mouse_2.leftButton,learn_mouse_2.midButton,learn_mouse_2.rightButton,learn_mouse_2.time,learn_mouse_2.clicked_name,cat,token,row,col,t_select,cat_mouse_l.x,cat_mouse_l.y,cat_mouse_l.leftButton,cat_mouse_l.midButton,cat_mouse_l.rightButton,cat_mouse_l.time,cat_mouse_l.clicked_name,resp,t_resp,corr,train_trials.thisRepN,train_trials.thisTrialN,train_trials.thisN,train_trials.thisIndex,train_trials.ran,cat_mouse_t.x,cat_mouse_t.y,cat_mouse_t.leftButton,cat_mouse_t.midButton,cat_mouse_t.rightButton,cat_mouse_t.time,cat_mouse_t.clicked_name,test_trials.thisRepN,test_trials.thisTrialN,test_trials.thisN,test_trials.thisIndex,test_trials.ran,Bonus
65c19735a918130b0aa9b3e4,TCR,2024-06-11_12h41.40.876,LearnStrategy,2023.2.3,Win32,59.88023952,,,,,,,,,,,,,,,,,,,,,,,,,,,,,,,,,,,,,,,,,,,
65c19735a918130b0aa9b3e4,TCR,2024-06-11_12h41.40.876,LearnStrategy,2023.2.3,Win32,59.88023952,1,1,1,-0.060307018,0.001096491,1,0,0,1.2271,rock_grid_rect_2,6,15,-1,-1,1.227,-0.13377193,-0.243421053,1,0,0,1.0285,Basalt_rect,2,1.028,0,0,0,0,0,1,,,,,,,,,,,,,
65c19735a918130b0aa9b3e4,TCR,2024-06-11_12h41.40.876,LearnStrategy,2023.2.3,Win32,59.88023952,1,1,2,-0.054276316,-0.015899123,1,0,0,1.011,rock_grid_rect_2,1,04,-1,-1,1.011,-0.345942982,-0.25877193,1,0,0,1.6205,Andesite_rect,1,1.62,1,1,0,1,0,1,,,,,,,,,,,,,
65c19735a918130b0aa9b3e4,TCR,2024-06-11_12h41.40.876,LearnStrategy,2023.2.3,Win32,59.88023952,1,1,3,0.001096491,-0.015899123,1,0,0,0.7083,rock_grid_rect_2,8,05,-1,-1,0.708,0.122258772,-0.229714912,1,0,0,0.5321,Diorite_rect,3,0.532,0,2,0,2,0,1,,,,,,,,,,,,,
65c19735a918130b0aa9b3e4,TCR,2024-06-11_12h41.40.876,LearnStrategy,2023.2.3,Win32,59.88023952,1,1,4,0.052631579,0.020833333,1,0,0,0.6209,rock_grid_rect_2,3,06,-1,-1,0.621,-0.08004386,-0.239583333,1,0,0,0.6103,Basalt_rect,2,0.61,0,3,0,3,0,1,,,,,,,,,,,,,
65c19735a918130b0aa9b3e4,TCR,2024-06-11_12h41.40.876,LearnStrategy,2023.2.3,Win32,59.88023952,1,1,5,0.031798246,-0.000548246,1,0,0,0.8803,rock_grid_rect_2,2,08,-1,-1,0.88,0.158991228,-0.240679825,1,0,0,0.6931,Diorite_rect,3,0.693,0,4,0,4,0,1,,,,,,,,,,,,,
65c19735a918130b0aa9b3e4,TCR,2024-06-11_12h41.40.876,LearnStrategy,2023.2.3,Win32,59.88023952,1,1,6,0.014802632,0.016447368,1,0,0,1.2292,rock_grid_rect_2,6,12,-1,-1,1.229,0.061951754,-0.389802632,1,0,0,2.0756,Peridotite_rect,7,2.076,0,5,0,5,0,1,,,,,,,,,,,,,
65c19735a918130b0aa9b3e4,TCR,2024-06-11_12h41.40.876,LearnStrategy,2023.2.3,Win32,59.88023952,1,1,7,-0.020285088,-0.003289474,1,0,0,1.0541,rock_grid_rect_2,1,11,-1,-1,1.054,-0.089364035,-0.248903509,1,0,0,0.5689,Basalt_rect,2,0.569,0,6,0,6,0,1,,,,,,,,,,,,,
65c19735a918130b0aa9b3e4,TCR,2024-06-11_12h41.40.876,LearnStrategy,2023.2.3,Win32,59.88023952,1,1,8,-0.100877193,0.01754386,1,0,0,1.2475,rock_grid_rect_2,7,14,-1,-1,1.248,-0.108004386,-0.254934211,1,0,0,0.5474,Basalt_rect,2,0.547,0,7,0,7,0,1,,,,,,,,,,,,,
65c19735a918130b0aa9b3e4,TCR,2024-06-11_12h41.40.876,LearnStrategy,2023.2.3,Win32,59.88023952,1,1,9,0.105263158,-0.02247807,1,0,0,0.9058,rock_grid_rect_2,7,06,-1,-1,0.906,0.191337719,-0.258223684,1,0,0,0.5297,Diorite_rect,3,0.53,0,8,0,8,0,1,,,,,,,,,,,,,
65c19735a918130b0aa9b3e4,TCR,2024-06-11_12h41.40.876,LearnStrategy,2023.2.3,Win32,59.88023952,1,1,10,0.111842105,-0.013157895,1,0,0,0.6132,rock_grid_rect_2,4,14,-1,-1,0.613,0.293311404,-0.25877193,1,0,0,4.7786,Gabbro_rect,4,4.779,1,9,0,9,0,1,,,,,,,,,,,,,
65c19735a918130b0aa9b3e4,TCR,2024-06-11_12h41.40.876,LearnStrategy,2023.2.3,Win32,59.88023952,1,1,11,-0.010964912,0.005482456,1,0,0,1.29,rock_grid_rect_2,4,09,-1,-1,1.29,-0.086074561,-0.247258772,1,0,0,1.1065,Basalt_rect,2,1.106,0,10,0,10,0,1,,,,,,,,,,,,,
65c19735a918130b0aa9b3e4,TCR,2024-06-11_12h41.40.876,LearnStrategy,2023.2.3,Win32,59.88023952,1,1,12,0.049890351,-0.02247807,1,0,0,0.6915,rock_grid_rect_2,5,08,-1,-1,0.691,0.095394737,-0.246162281,1,0,0,1.0993,Diorite_rect,3,1.099,0,11,0,11,0,1,,,,,,,,,,,,,
65c19735a918130b0aa9b3e4,TCR,2024-06-11_12h41.40.876,LearnStrategy,2023.2.3,Win32,59.88023952,1,1,13,-0.014254386,0.002741228,1,0,0,1.0248,rock_grid_rect_2,5,14,-1,-1,1.025,0.101973684,-0.410087719,1,0,0,1.2155,Peridotite_rect,7,1.215,0,12,0,12,0,1,,,,,,,,,,,,,
65c19735a918130b0aa9b3e4,TCR,2024-06-11_12h41.40.876,LearnStrategy,2023.2.3,Win32,59.88023952,1,1,14,-0.012061404,0.019188596,1,0,0,1.0293,rock_grid_rect_2,2,11,-1,-1,1.029,0.39254386,-0.41995614,1,0,0,0.6377,Pumice_rect,8,0.638,0,13,0,13,0,1,,,,,,,,,,,,,
65c19735a918130b0aa9b3e4,TCR,2024-06-11_12h41.40.876,LearnStrategy,2023.2.3,Win32,59.88023952,1,1,15,0.034539474,0.024122807,1,0,0,1.2801,rock_grid_rect_2,3,16,-1,-1,1.28,-0.317434211,-0.262061404,1,0,0,1.6969,Andesite_rect,1,1.697,0,14,0,14,0,1,,,,,,,,,,,,,
65c19735a918130b0aa9b3e4,TCR,2024-06-11_12h41.40.876,LearnStrategy,2023.2.3,Win32,59.88023952,1,1,16,-0.083333333,-0.005482456,1,0,0,0.67,rock_grid_rect_2,8,08,-1,-1,0.67,-0.351973684,-0.416666667,1,0,0,0.8082,Obsidian_rect,5,0.808,0,15,0,15,0,1,,,,,,,,,,,,,
65c19735a918130b0aa9b3e4,TCR,2024-06-11_12h41.40.876,LearnStrategy,2023.2.3,Win32,59.88023952,1,2,1,,,,,,,,2,10,,,,,,,,,,,3,0.858,0,,,,,,0.123903509,-0.264802632,1,0,0,0.858,Diorite_rect,0,0,0,0,1,
65c19735a918130b0aa9b3e4,TCR,2024-06-11_12h41.40.876,LearnStrategy,2023.2.3,Win32,59.88023952,1,2,2,,,,,,,,2,01,,,,,,,,,,,2,1.624,1,,,,,,-0.061403509,-0.245614035,1,0,0,1.6238,Basalt_rect,1,0,1,0,1,
65c19735a918130b0aa9b3e4,TCR,2024-06-11_12h41.40.876,LearnStrategy,2023.2.3,Win32,59.88023952,1,2,3,,,,,,,,7,02,,,,,,,,,,,3,0.997,0,,,,,,0.098684211,-0.24122807,1,0,0,0.9972,Diorite_rect,2,0,2,0,1,
65c19735a918130b0aa9b3e4,TCR,2024-06-11_12h41.40.876,LearnStrategy,2023.2.3,Win32,59.88023952,1,2,4,,,,,,,,1,10,,,,,,,,,,,4,1.862,0,,,,,,0.364035088,-0.245065789,1,0,0,1.8617,Gabbro_rect,3,0,3,0,1,
65c19735a918130b0aa9b3e4,TCR,2024-06-11_12h41.40.876,LearnStrategy,2023.2.3,Win32,59.88023952,1,2,5,,,,,,,,5,05,,,,,,,,,,,3,0.681,0,,,,,,0.091008772,-0.252741228,1,0,0,0.6805,Diorite_rect,4,0,4,0,1,
65c19735a918130b0aa9b3e4,TCR,2024-06-11_12h41.40.876,LearnStrategy,2023.2.3,Win32,59.88023952,1,2,6,,,,,,,,7,07,,,,,,,,,,,2,0.296,0,,,,,,-0.092105263,-0.266447368,1,0,0,0.296,Basalt_rect,5,0,5,0,1,
65c19735a918130b0aa9b3e4,TCR,2024-06-11_12h41.40.876,LearnStrategy,2023.2.3,Win32,59.88023952,1,2,7,,,,,,,,3,09,,,,,,,,,,,1,0.374,0,,,,,,-0.421600877,-0.242324561,1,0,0,0.3739,Andesite_rect,6,0,6,0,1,
65c19735a918130b0aa9b3e4,TCR,2024-06-11_12h41.40.876,LearnStrategy,2023.2.3,Win32,59.88023952,1,2,8,,,,,,,,4,05,,,,,,,,,,,2,0.138,0,,,,,,-0.101425439,-0.23245614,1,0,0,0.1383,Basalt_rect,7,0,7,0,1,
65c19735a918130b0aa9b3e4,TCR,2024-06-11_12h41.40.876,LearnStrategy,2023.2.3,Win32,59.88023952,1,2,9,,,,,,,,6,05,,,,,,,,,,,3,0.184,0,,,,,,0.127192982,-0.251644737,1,0,0,0.1837,Diorite_rect,8,0,8,0,1,
65c19735a918130b0aa9b3e4,TCR,2024-06-11_12h41.40.876,LearnStrategy,2023.2.3,Win32,59.88023952,1,2,10,,,,,,,,6,08,,,,,,,,,,,4,0.624,0,,,,,,0.360745614,-0.270833333,1,0,0,0.6238,Gabbro_rect,9,0,9,0,1,
65c19735a918130b0aa9b3e4,TCR,2024-06-11_12h41.40.876,LearnStrategy,2023.2.3,Win32,59.88023952,1,2,11,,,,,,,,8,03,,,,,,,,,,,8,1.077,1,,,,,,0.389254386,-0.40625,1,0,0,1.077,Pumice_rect,10,0,10,0,1,
65c19735a918130b0aa9b3e4,TCR,2024-06-11_12h41.40.876,LearnStrategy,2023.2.3,Win32,59.88023952,1,2,12,,,,,,,,1,14,,,,,,,,,,,4,0.454,0,,,,,,0.425986842,-0.247807018,1,0,0,0.4535,Gabbro_rect,11,0,11,0,1,
65c19735a918130b0aa9b3e4,TCR,2024-06-11_12h41.40.876,LearnStrategy,2023.2.3,Win32,59.88023952,1,2,13,,,,,,,,5,09,,,,,,,,,,,3,0.307,0,,,,,,0.121162281,-0.233004386,1,0,0,0.3066,Diorite_rect,12,0,12,0,1,
65c19735a918130b0aa9b3e4,TCR,2024-06-11_12h41.40.876,LearnStrategy,2023.2.3,Win32,59.88023952,1,2,14,,,,,,,,4,15,,,,,,,,,,,4,0.178,1,,,,,,0.319078947,-0.255482456,1,0,0,0.1776,Gabbro_rect,13,0,13,0,1,
65c19735a918130b0aa9b3e4,TCR,2024-06-11_12h41.40.876,LearnStrategy,2023.2.3,Win32,59.88023952,1,2,15,,,,,,,,8,04,,,,,,,,,,,7,0.269,0,,,,,,0.089364035,-0.417214912,1,0,0,0.2687,Peridotite_rect,14,0,14,0,1,
65c19735a918130b0aa9b3e4,TCR,2024-06-11_12h41.40.876,LearnStrategy,2023.2.3,Win32,59.88023952,1,2,16,,,,,,,,3,12,,,,,,,,,,,6,0.165,0,,,,,,-0.109100877,-0.389254386,1,0,0,0.1653,Pegmatite_rect,15,0,15,0,1,
65c19735a918130b0aa9b3e4,TCR,2024-06-11_12h41.40.876,LearnStrategy,2023.2.3,Win32,59.88023952,2,1,1,0.013157895,-0.01370614,1,0,0,1.3022,rock_grid_rect_2,5,14,-1,-1,1.302,-0.081140351,-0.237390351,1,0,0,0.6206,Basalt_rect,2,0.621,0,0,0,0,0,1,,,,,,,,,,,,,
65c19735a918130b0aa9b3e4,TCR,2024-06-11_12h41.40.876,LearnStrategy,2023.2.3,Win32,59.88023952,2,1,2,-0.03125,0.004934211,1,0,0,0.9748,rock_grid_rect_2,1,05,-1,-1,0.975,-0.134320175,-0.25877193,1,0,0,0.6921,Basalt_rect,2,0.692,0,1,0,1,0,1,,,,,,,,,,,,,
65c19735a918130b0aa9b3e4,TCR,2024-06-11_12h41.40.876,LearnStrategy,2023.2.3,Win32,59.88023952,2,1,3,-0.002741228,-0.007127193,1,0,0,0.7441,rock_grid_rect_2,5,06,-1,-1,0.744,0.135416667,-0.262609649,1,0,0,1.116,Diorite_rect,3,1.116,0,2,0,2,0,1,,,,,,,,,,,,,
65c19735a918130b0aa9b3e4,TCR,2024-06-11_12h41.40.876,LearnStrategy,2023.2.3,Win32,59.88023952,2,1,4,0.01754386,0.011513158,1,0,0,1.2601,rock_grid_rect_2,4,09,-1,-1,1.26,0.354714912,-0.258223684,1,0,0,0.6624,Gabbro_rect,4,0.662,1,3,0,3,0,1,,,,,,,,,,,,,
65c19735a918130b0aa9b3e4,TCR,2024-06-11_12h41.40.876,LearnStrategy,2023.2.3,Win32,59.88023952,2,1,5,-0.009868421,0.002192982,1,0,0,0.9634,rock_grid_rect_2,8,06,-1,-1,0.963,-0.08497807,-0.230811404,1,0,0,0.7351,Basalt_rect,2,0.735,0,4,0,4,0,1,,,,,,,,,,,,,
65c19735a918130b0aa9b3e4,TCR,2024-06-11_12h41.40.876,LearnStrategy,2023.2.3,Win32,59.88023952,2,1,6,0.035087719,-0.015350877,1,0,0,1.1571,rock_grid_rect_2,4,13,-1,-1,1.157,0.105263158,-0.385964912,1,0,0,0.6783,Peridotite_rect,7,0.678,0,5,0,5,0,1,,,,,,,,,,,,,
65c19735a918130b0aa9b3e4,TCR,2024-06-11_12h41.40.876,LearnStrategy,2023.2.3,Win32,59.88023952,2,1,7,0.029605263,-0.010416667,1,0,0,0.7474,rock_grid_rect_2,7,06,-1,-1,0.747,0.343201754,-0.420504386,1,0,0,0.6497,Pumice_rect,8,0.65,0,6,0,6,0,1,,,,,,,,,,,,,
65c19735a918130b0aa9b3e4,TCR,2024-06-11_12h41.40.876,LearnStrategy,2023.2.3,Win32,59.88023952,2,1,8,-0.050438596,0.003289474,1,0,0,1.1115,rock_grid_rect_2,3,08,-1,-1,1.112,-0.173245614,-0.393640351,1,0,0,0.9773,Pegmatite_rect,6,0.977,0,7,0,7,0,1,,,,,,,,,,,,,
65c19735a918130b0aa9b3e4,TCR,2024-06-11_12h41.40.876,LearnStrategy,2023.2.3,Win32,59.88023952,2,1,9,-0.005482456,-0.020833333,1,0,0,1.064,rock_grid_rect_2,6,11,-1,-1,1.064,-0.350328947,-0.254934211,0,0,1,0.8284,Andesite_rect,1,0.828,0,8,0,8,0,1,,,,,,,,,,,,,
65c19735a918130b0aa9b3e4,TCR,2024-06-11_12h41.40.876,LearnStrategy,2023.2.3,Win32,59.88023952,2,1,10,0.007675439,0.001644737,1,0,0,0.9048,rock_grid_rect_2,3,11,-1,-1,0.905,0.172697368,-0.239583333,1,0,0,0.6125,Diorite_rect,3,0.612,1,9,0,9,0,1,,,,,,,,,,,,,
65c19735a918130b0aa9b3e4,TCR,2024-06-11_12h41.40.876,LearnStrategy,2023.2.3,Win32,59.88023952,2,1,11,-0.010416667,0.023574561,1,0,0,1.0667,rock_grid_rect_2,3,10,-1,-1,1.067,0.387609649,-0.233004386,1,0,0,0.6291,Gabbro_rect,4,0.629,0,10,0,10,0,1,,,,,,,,,,,,,
65c19735a918130b0aa9b3e4,TCR,2024-06-11_12h41.40.876,LearnStrategy,2023.2.3,Win32,59.88023952,2,1,12,-0.023574561,0.000548246,1,0,0,3.9776,rock_grid_rect_2,1,09,-1,-1,3.978,-0.104166667,-0.268092105,1,0,0,0.8347,Basalt_rect,2,0.835,0,11,0,11,0,1,,,,,,,,,,,,,
65c19735a918130b0aa9b3e4,TCR,2024-06-11_12h41.40.876,LearnStrategy,2023.2.3,Win32,59.88023952,2,1,13,-0.009320175,-0.010416667,1,0,0,0.9595,rock_grid_rect_2,2,05,-1,-1,0.96,-0.35252193,-0.248355263,0,0,1,1.1138,Andesite_rect,1,1.114,0,12,0,12,0,1,,,,,,,,,,,,,
65c19735a918130b0aa9b3e4,TCR,2024-06-11_12h41.40.876,LearnStrategy,2023.2.3,Win32,59.88023952,2,1,14,0.018092105,-0.01370614,1,0,0,0.74,rock_grid_rect_2,6,15,-1,-1,0.74,-0.104714912,-0.389802632,1,0,0,1.4725,Pegmatite_rect,6,1.472,1,13,0,13,0,1,,,,,,,,,,,,,
65c19735a918130b0aa9b3e4,TCR,2024-06-11_12h41.40.876,LearnStrategy,2023.2.3,Win32,59.88023952,2,1,15,0.019188596,0.003837719,1,0,0,1.5598,rock_grid_rect_2,7,12,-1,-1,1.56,0.137061404,-0.243421053,1,0,0,0.6522,Diorite_rect,3,0.652,0,14,0,14,0,1,,,,,,,,,,,,,
65c19735a918130b0aa9b3e4,TCR,2024-06-11_12h41.40.876,LearnStrategy,2023.2.3,Win32,59.88023952,2,1,16,-0.001096491,0.008223684,1,0,0,0.9539,rock_grid_rect_2,1,05,-1,-1,0.954,0.149671053,-0.385416667,1,0,0,0.6562,Peridotite_rect,7,0.656,0,15,0,15,0,1,,,,,,,,,,,,,
65c19735a918130b0aa9b3e4,TCR,2024-06-11_12h41.40.876,LearnStrategy,2023.2.3,Win32,59.88023952,2,2,1,,,,,,,,5,02,,,,,,,,,,,3,0.668,0,,,,,,0.139802632,-0.255482456,1,0,0,0.6681,Diorite_rect,0,0,0,0,1,
65c19735a918130b0aa9b3e4,TCR,2024-06-11_12h41.40.876,LearnStrategy,2023.2.3,Win32,59.88023952,2,2,2,,,,,,,,8,02,,,,,,,,,,,4,0.645,0,,,,,,0.348135965,-0.257127193,1,0,0,0.6451,Gabbro_rect,1,0,1,0,1,
65c19735a918130b0aa9b3e4,TCR,2024-06-11_12h41.40.876,LearnStrategy,2023.2.3,Win32,59.88023952,2,2,3,,,,,,,,7,10,,,,,,,,,,,3,0.227,0,,,,,,0.127192982,-0.244517544,1,0,0,0.2271,Diorite_rect,2,0,2,0,1,
65c19735a918130b0aa9b3e4,TCR,2024-06-11_12h41.40.876,LearnStrategy,2023.2.3,Win32,59.88023952,2,2,4,,,,,,,,3,15,,,,,,,,,,,8,0.269,0,,,,,,0.354714912,-0.413377193,1,0,0,0.2685,Pumice_rect,3,0,3,0,1,
65c19735a918130b0aa9b3e4,TCR,2024-06-11_12h41.40.876,LearnStrategy,2023.2.3,Win32,59.88023952,2,2,5,,,,,,,,6,06,,,,,,,,,,,7,0.158,0,,,,,,0.159539474,-0.411184211,1,0,0,0.158,Peridotite_rect,4,0,4,0,1,
65c19735a918130b0aa9b3e4,TCR,2024-06-11_12h41.40.876,LearnStrategy,2023.2.3,Win32,59.88023952,2,2,6,,,,,,,,8,13,,,,,,,,,,,6,0.641,0,,,,,,-0.092105263,-0.408442982,1,0,0,0.6412,Pegmatite_rect,5,0,5,0,1,
65c19735a918130b0aa9b3e4,TCR,2024-06-11_12h41.40.876,LearnStrategy,2023.2.3,Win32,59.88023952,2,2,7,,,,,,,,1,02,,,,,,,,,,,5,0.691,0,,,,,,-0.393640351,-0.408442982,1,0,0,0.6909,Obsidian_rect,6,0,6,0,1,
65c19735a918130b0aa9b3e4,TCR,2024-06-11_12h41.40.876,LearnStrategy,2023.2.3,Win32,59.88023952,2,2,8,,,,,,,,5,04,,,,,,,,,,,1,0.728,0,,,,,,-0.359100877,-0.23629386,1,0,0,0.7281,Andesite_rect,7,0,7,0,1,
65c19735a918130b0aa9b3e4,TCR,2024-06-11_12h41.40.876,LearnStrategy,2023.2.3,Win32,59.88023952,2,2,9,,,,,,,,3,02,,,,,,,,,,,2,0.06,0,,,,,,-0.160087719,-0.24122807,1,0,0,0.0595,Basalt_rect,8,0,8,0,1,
65c19735a918130b0aa9b3e4,TCR,2024-06-11_12h41.40.876,LearnStrategy,2023.2.3,Win32,59.88023952,2,2,10,,,,,,,,4,03,,,,,,,,,,,3,0.611,0,,,,,,0.144188596,-0.265899123,1,0,0,0.6107,Diorite_rect,9,0,9,0,1,
65c19735a918130b0aa9b3e4,TCR,2024-06-11_12h41.40.876,LearnStrategy,2023.2.3,Win32,59.88023952,2,2,11,,,,,,,,2,09,,,,,,,,,,,4,0.128,0,,,,,,0.351425439,-0.258223684,1,0,0,0.1276,Gabbro_rect,10,0,10,0,1,
65c19735a918130b0aa9b3e4,TCR,2024-06-11_12h41.40.876,LearnStrategy,2023.2.3,Win32,59.88023952,2,2,12,,,,,,,,2,04,,,,,,,,,,,8,0.176,0,,,,,,0.369517544,-0.39747807,1,0,0,0.1758,Pumice_rect,11,0,11,0,1,
65c19735a918130b0aa9b3e4,TCR,2024-06-11_12h41.40.876,LearnStrategy,2023.2.3,Win32,59.88023952,2,2,13,,,,,,,,7,04,,,,,,,,,,,7,0.185,1,,,,,,0.094298246,-0.399122807,1,0,0,0.185,Peridotite_rect,12,0,12,0,1,
65c19735a918130b0aa9b3e4,TCR,2024-06-11_12h41.40.876,LearnStrategy,2023.2.3,Win32,59.88023952,2,2,14,,,,,,,,4,08,,,,,,,,,,,6,0.309,0,,,,,,-0.078947368,-0.395285088,1,0,0,0.3087,Pegmatite_rect,13,0,13,0,1,
65c19735a918130b0aa9b3e4,TCR,2024-06-11_12h41.40.876,LearnStrategy,2023.2.3,Win32,59.88023952,2,2,15,,,,,,,,6,10,,,,,,,,,,,3,0.214,0,,,,,,0.115131579,-0.257675439,1,0,0,0.2138,Diorite_rect,14,0,14,0,1,
65c19735a918130b0aa9b3e4,TCR,2024-06-11_12h41.40.876,LearnStrategy,2023.2.3,Win32,59.88023952,2,2,16,,,,,,,,1,07,,,,,,,,,,,7,0.197,0,,,,,,0.115131579,-0.399671053,1,0,0,0.1971,Peridotite_rect,15,0,15,0,1,
65c19735a918130b0aa9b3e4,TCR,2024-06-11_12h41.40.876,LearnStrategy,2023.2.3,Win32,59.88023952,3,1,1,0.132127193,0.018092105,1,0,0,1.1536,rock_grid_rect_2,5,07,-1,-1,1.154,0.385416667,-0.238486842,1,0,0,1.9756,Gabbro_rect,4,1.976,0,0,0,0,0,1,,,,,,,,,,,,,
65c19735a918130b0aa9b3e4,TCR,2024-06-11_12h41.40.876,LearnStrategy,2023.2.3,Win32,59.88023952,3,1,2,-0.046600877,-0.02247807,1,0,0,1.0432,rock_grid_rect_2,8,06,-1,-1,1.043,-0.363486842,-0.233004386,1,0,0,1.3761,Andesite_rect,1,1.376,0,1,0,1,0,1,,,,,,,,,,,,,
65c19735a918130b0aa9b3e4,TCR,2024-06-11_12h41.40.876,LearnStrategy,2023.2.3,Win32,59.88023952,3,1,3,-0.032346491,-0.009320175,1,0,0,1.3649,rock_grid_rect_2,2,02,-1,-1,1.365,-0.372258772,-0.396381579,1,0,0,1.739,Obsidian_rect,5,1.739,0,2,0,2,0,1,,,,,,,,,,,,,
65c19735a918130b0aa9b3e4,TCR,2024-06-11_12h41.40.876,LearnStrategy,2023.2.3,Win32,59.88023952,3,1,4,0.011513158,-0.004385965,1,0,0,0.8559,rock_grid_rect_2,7,14,-1,-1,0.856,-0.098135965,-0.253837719,1,0,0,0.5357,Basalt_rect,2,0.536,0,3,0,3,0,1,,,,,,,,,,,,,
65c19735a918130b0aa9b3e4,TCR,2024-06-11_12h41.40.876,LearnStrategy,2023.2.3,Win32,59.88023952,3,1,5,0.011513158,-0.002192982,1,0,0,1.2191,rock_grid_rect_2,6,11,-1,-1,1.219,0.146381579,-0.402412281,0,0,1,1.4274,Peridotite_rect,7,1.427,0,4,0,4,0,1,,,,,,,,,,,,,
65c19735a918130b0aa9b3e4,TCR,2024-06-11_12h41.40.876,LearnStrategy,2023.2.3,Win32,59.88023952,3,1,6,0.019736842,0.01754386,1,0,0,1.2842,rock_grid_rect_2,3,11,-1,-1,1.284,-0.115679825,-0.393092105,1,0,0,0.6724,Pegmatite_rect,6,0.672,0,5,0,5,0,1,,,,,,,,,,,,,
65c19735a918130b0aa9b3e4,TCR,2024-06-11_12h41.40.876,LearnStrategy,2023.2.3,Win32,59.88023952,3,1,7,-0.002192982,-0.013157895,1,0,0,0.947,rock_grid_rect_2,2,11,-1,-1,0.947,0.09375,-0.269736842,1,0,0,0.5902,Diorite_rect,3,0.59,0,6,0,6,0,1,,,,,,,,,,,,,
65c19735a918130b0aa9b3e4,TCR,2024-06-11_12h41.40.876,LearnStrategy,2023.2.3,Win32,59.88023952,3,1,8,0.011513158,0.003289474,1,0,0,1.0289,rock_grid_rect_2,8,05,-1,-1,1.029,0.369517544,-0.399671053,1,0,0,0.6557,Pumice_rect,8,0.656,1,7,0,7,0,1,,,,,,,,,,,,,
65c19735a918130b0aa9b3e4,TCR,2024-06-11_12h41.40.876,LearnStrategy,2023.2.3,Win32,59.88023952,3,1,9,0.016447368,-0.013157895,1,0,0,1.3403,rock_grid_rect_2,4,13,-1,-1,1.34,-0.123355263,-0.268640351,1,0,0,1.1458,Basalt_rect,2,1.146,0,8,0,8,0,1,,,,,,,,,,,,,
65c19735a918130b0aa9b3e4,TCR,2024-06-11_12h41.40.876,LearnStrategy,2023.2.3,Win32,59.88023952,3,1,10,0.011513158,-0.009868421,1,0,0,1.0764,rock_grid_rect_2,4,12,-1,-1,1.076,-0.349232456,-0.239583333,1,0,0,0.6405,Andesite_rect,1,0.641,0,9,0,9,0,1,,,,,,,,,,,,,
65c19735a918130b0aa9b3e4,TCR,2024-06-11_12h41.40.876,LearnStrategy,2023.2.3,Win32,59.88023952,3,1,11,0.006030702,-0.009320175,1,0,0,0.8312,rock_grid_rect_2,6,09,-1,-1,0.831,0.115679825,-0.248355263,1,0,0,1.2015,Diorite_rect,3,1.202,0,10,0,10,0,1,,,,,,,,,,,,,
65c19735a918130b0aa9b3e4,TCR,2024-06-11_12h41.40.876,LearnStrategy,2023.2.3,Win32,59.88023952,3,1,12,-0.015350877,0.013157895,1,0,0,1.0885,rock_grid_rect_2,5,07,-1,-1,1.088,0.436951754,-0.261513158,0,0,1,1.2279,Gabbro_rect,4,1.228,0,11,0,11,0,1,,,,,,,,,,,,,
65c19735a918130b0aa9b3e4,TCR,2024-06-11_12h41.40.876,LearnStrategy,2023.2.3,Win32,59.88023952,3,1,13,0.015899123,-0.007127193,1,0,0,1.2139,rock_grid_rect_2,1,04,-1,-1,1.214,-0.100877193,-0.407894737,1,0,0,1.1953,Pegmatite_rect,6,1.195,0,12,0,12,0,1,,,,,,,,,,,,,
65c19735a918130b0aa9b3e4,TCR,2024-06-11_12h41.40.876,LearnStrategy,2023.2.3,Win32,59.88023952,3,1,14,-0.029605263,-0.004934211,1,0,0,0.9724,rock_grid_rect_2,3,08,-1,-1,0.972,-0.395285088,-0.396929825,1,0,0,1.6534,Obsidian_rect,5,1.653,0,13,0,13,0,1,,,,,,,,,,,,,
65c19735a918130b0aa9b3e4,TCR,2024-06-11_12h41.40.876,LearnStrategy,2023.2.3,Win32,59.88023952,3,1,15,0.030701754,-0.013157895,1,0,0,1.0375,rock_grid_rect_2,7,12,-1,-1,1.037,-0.359649123,-0.266447368,1,0,0,0.7648,Andesite_rect,1,0.765,0,14,0,14,0,1,,,,,,,,,,,,,
65c19735a918130b0aa9b3e4,TCR,2024-06-11_12h41.40.876,LearnStrategy,2023.2.3,Win32,59.88023952,3,1,16,-0.008223684,-0.001644737,1,0,0,0.9217,rock_grid_rect_2,3,07,-1,-1,0.922,-0.047697368,-0.255482456,1,0,0,0.6009,Basalt_rect,2,0.601,0,15,0,15,0,1,,,,,,,,,,,,,
65c19735a918130b0aa9b3e4,TCR,2024-06-11_12h41.40.876,LearnStrategy,2023.2.3,Win32,59.88023952,3,2,1,,,,,,,,7,13,,,,,,,,,,,3,1.252,0,,,,,,0.078947368,-0.254934211,1,0,0,1.2523,Diorite_rect,0,0,0,0,1,
65c19735a918130b0aa9b3e4,TCR,2024-06-11_12h41.40.876,LearnStrategy,2023.2.3,Win32,59.88023952,3,2,2,,,,,,,,3,14,,,,,,,,,,,4,0.965,0,,,,,,0.344846491,-0.231359649,1,0,0,0.9648,Gabbro_rect,1,0,1,0,1,
65c19735a918130b0aa9b3e4,TCR,2024-06-11_12h41.40.876,LearnStrategy,2023.2.3,Win32,59.88023952,3,2,3,,,,,,,,2,16,,,,,,,,,,,8,0.671,0,,,,,,0.339364035,-0.40625,1,0,0,0.671,Pumice_rect,2,0,2,0,1,
65c19735a918130b0aa9b3e4,TCR,2024-06-11_12h41.40.876,LearnStrategy,2023.2.3,Win32,59.88023952,3,2,4,,,,,,,,3,13,,,,,,,,,,,3,0.355,1,,,,,,0.172149123,-0.242872807,1,0,0,0.3552,Diorite_rect,3,0,3,0,1,
65c19735a918130b0aa9b3e4,TCR,2024-06-11_12h41.40.876,LearnStrategy,2023.2.3,Win32,59.88023952,3,2,5,,,,,,,,8,14,,,,,,,,,,,4,0.3,0,,,,,,0.429276316,-0.270833333,1,0,0,0.2999,Gabbro_rect,4,0,4,0,1,
65c19735a918130b0aa9b3e4,TCR,2024-06-11_12h41.40.876,LearnStrategy,2023.2.3,Win32,59.88023952,3,2,6,,,,,,,,8,10,,,,,,,,,,,2,0.449,0,,,,,,-0.140899123,-0.234100877,1,0,0,0.4492,Basalt_rect,5,0,5,0,1,
65c19735a918130b0aa9b3e4,TCR,2024-06-11_12h41.40.876,LearnStrategy,2023.2.3,Win32,59.88023952,3,2,7,,,,,,,,2,12,,,,,,,,,,,1,1.227,0,,,,,,-0.379934211,-0.256578947,1,0,0,1.2271,Andesite_rect,6,0,6,0,1,
65c19735a918130b0aa9b3e4,TCR,2024-06-11_12h41.40.876,LearnStrategy,2023.2.3,Win32,59.88023952,3,2,8,,,,,,,,6,16,,,,,,,,,,,2,0.065,0,,,,,,-0.138157895,-0.231907895,1,0,0,0.0646,Basalt_rect,7,0,7,0,1,
65c19735a918130b0aa9b3e4,TCR,2024-06-11_12h41.40.876,LearnStrategy,2023.2.3,Win32,59.88023952,3,2,9,,,,,,,,4,10,,,,,,,,,,,3,0.69,0,,,,,,0.146929825,-0.246710526,1,0,0,0.6901,Diorite_rect,8,0,8,0,1,
65c19735a918130b0aa9b3e4,TCR,2024-06-11_12h41.40.876,LearnStrategy,2023.2.3,Win32,59.88023952,3,2,10,,,,,,,,4,11,,,,,,,,,,,4,0.067,1,,,,,,0.390899123,-0.241776316,1,0,0,0.0666,Gabbro_rect,9,0,9,0,1,
65c19735a918130b0aa9b3e4,TCR,2024-06-11_12h41.40.876,LearnStrategy,2023.2.3,Win32,59.88023952,3,2,11,,,,,,,,6,07,,,,,,,,,,,8,0.207,0,,,,,,0.36622807,-0.404057018,1,0,0,0.2071,Pumice_rect,10,0,10,0,1,
65c19735a918130b0aa9b3e4,TCR,2024-06-11_12h41.40.876,LearnStrategy,2023.2.3,Win32,59.88023952,3,2,12,,,,,,,,5,16,,,,,,,,,,,4,1.835,0,,,,,,0.369517544,-0.256030702,1,0,0,1.8351,Gabbro_rect,11,0,11,0,1,
65c19735a918130b0aa9b3e4,TCR,2024-06-11_12h41.40.876,LearnStrategy,2023.2.3,Win32,59.88023952,3,2,13,,,,,,,,1,06,,,,,,,,,,,3,0.054,0,,,,,,0.16502193,-0.261513158,1,0,0,0.0544,Diorite_rect,12,0,12,0,1,
65c19735a918130b0aa9b3e4,TCR,2024-06-11_12h41.40.876,LearnStrategy,2023.2.3,Win32,59.88023952,3,2,14,,,,,,,,5,12,,,,,,,,,,,2,0.63,0,,,,,,-0.105263158,-0.239035088,1,0,0,0.6304,Basalt_rect,13,0,13,0,1,
65c19735a918130b0aa9b3e4,TCR,2024-06-11_12h41.40.876,LearnStrategy,2023.2.3,Win32,59.88023952,3,2,15,,,,,,,,7,16,,,,,,,,,,,3,0.188,0,,,,,,0.11129386,-0.245065789,1,0,0,0.1877,Diorite_rect,14,0,14,0,1,
65c19735a918130b0aa9b3e4,TCR,2024-06-11_12h41.40.876,LearnStrategy,2023.2.3,Win32,59.88023952,3,2,16,,,,,,,,1,16,,,,,,,,,,,7,0.198,0,,,,,,0.14254386,-0.398026316,1,0,0,0.198,Peridotite_rect,15,0,15,0,1,
65c19735a918130b0aa9b3e4,TCR,2024-06-11_12h41.40.876,LearnStrategy,2023.2.3,Win32,59.88023952,4,1,1,0.047149123,0.002192982,1,0,0,0.7159,rock_grid_rect_2,8,06,-1,-1,0.716,0.097587719,-0.244517544,1,0,0,1.7307,Diorite_rect,3,1.731,0,0,0,0,0,1,,,,,,,,,,,,,
65c19735a918130b0aa9b3e4,TCR,2024-06-11_12h41.40.876,LearnStrategy,2023.2.3,Win32,59.88023952,4,1,2,0.015350877,-0.001644737,1,0,0,1.3392,rock_grid_rect_2,3,10,-1,-1,1.339,0.405153509,-0.233552632,1,0,0,0.9226,Gabbro_rect,4,0.923,0,1,0,1,0,1,,,,,,,,,,,,,
65c19735a918130b0aa9b3e4,TCR,2024-06-11_12h41.40.876,LearnStrategy,2023.2.3,Win32,59.88023952,4,1,3,0.003837719,-0.015350877,1,0,0,1.1732,rock_grid_rect_2,3,11,-1,-1,1.173,-0.183662281,-0.248355263,1,0,0,0.7578,Basalt_rect,2,0.758,0,2,0,2,0,1,,,,,,,,,,,,,
65c19735a918130b0aa9b3e4,TCR,2024-06-11_12h41.40.876,LearnStrategy,2023.2.3,Win32,59.88023952,4,1,4,0.003837719,-0.001096491,1,0,0,2.5204,rock_grid_rect_2,2,11,-1,-1,2.52,0.123355263,-0.251644737,1,0,0,0.6763,Diorite_rect,3,0.676,0,3,0,3,0,1,,,,,,,,,,,,,
65c19735a918130b0aa9b3e4,TCR,2024-06-11_12h41.40.876,LearnStrategy,2023.2.3,Win32,59.88023952,4,1,5,-0.014802632,-0.019736842,1,0,0,0.9339,rock_grid_rect_2,6,11,-1,-1,0.934,0.13870614,-0.396381579,1,0,0,1.1027,Peridotite_rect,7,1.103,0,4,0,4,0,1,,,,,,,,,,,,,
65c19735a918130b0aa9b3e4,TCR,2024-06-11_12h41.40.876,LearnStrategy,2023.2.3,Win32,59.88023952,4,1,6,-0.01754386,-0.014802632,1,0,0,0.9464,rock_grid_rect_2,1,04,-1,-1,0.946,0.379934211,-0.400767544,1,0,0,1.1602,Pumice_rect,8,1.16,0,5,0,5,0,1,,,,,,,,,,,,,
65c19735a918130b0aa9b3e4,TCR,2024-06-11_12h41.40.876,LearnStrategy,2023.2.3,Win32,59.88023952,4,1,7,0.074561404,-0.015899123,1,0,0,1.0911,rock_grid_rect_2,7,05,-1,-1,1.091,0.354714912,-0.246710526,1,0,0,0.7472,Gabbro_rect,4,0.747,0,6,0,6,0,1,,,,,,,,,,,,,
65c19735a918130b0aa9b3e4,TCR,2024-06-11_12h41.40.876,LearnStrategy,2023.2.3,Win32,59.88023952,4,1,8,0.025767544,-0.010416667,1,0,0,0.93,rock_grid_rect_2,8,05,-1,-1,0.93,0.097039474,-0.246162281,1,0,0,1.0021,Diorite_rect,3,1.002,0,7,0,7,0,1,,,,,,,,,,,,,
65c19735a918130b0aa9b3e4,TCR,2024-06-11_12h41.40.876,LearnStrategy,2023.2.3,Win32,59.88023952,4,1,9,0.006578947,-0.007127193,1,0,0,0.9269,rock_grid_rect_2,5,14,-1,-1,0.927,-0.097039474,-0.263157895,1,0,0,0.5926,Basalt_rect,2,0.593,0,8,0,8,0,1,,,,,,,,,,,,,
65c19735a918130b0aa9b3e4,TCR,2024-06-11_12h41.40.876,LearnStrategy,2023.2.3,Win32,59.88023952,4,1,10,-0.040570175,-0.016447368,1,0,0,1.1266,rock_grid_rect_2,7,08,-1,-1,1.127,-0.356359649,-0.229714912,1,0,0,0.5992,Andesite_rect,1,0.599,0,9,0,9,0,1,,,,,,,,,,,,,
65c19735a918130b0aa9b3e4,TCR,2024-06-11_12h41.40.876,LearnStrategy,2023.2.3,Win32,59.88023952,4,1,11,0.005482456,0.021929825,1,0,0,1.4038,rock_grid_rect_2,6,09,-1,-1,1.404,0.143092105,-0.26370614,1,0,0,1.3591,Diorite_rect,3,1.359,0,10,0,10,0,1,,,,,,,,,,,,,
65c19735a918130b0aa9b3e4,TCR,2024-06-11_12h41.40.876,LearnStrategy,2023.2.3,Win32,59.88023952,4,1,12,-0.004385965,0.004385965,1,0,0,1.3036,rock_grid_rect_2,2,08,-1,-1,1.304,-0.052631579,-0.39254386,1,0,0,0.649,Pegmatite_rect,6,0.649,0,11,0,11,0,1,,,,,,,,,,,,,
65c19735a918130b0aa9b3e4,TCR,2024-06-11_12h41.40.876,LearnStrategy,2023.2.3,Win32,59.88023952,4,1,13,-0.001096491,-0.016447368,1,0,0,1.2706,rock_grid_rect_2,4,13,-1,-1,1.271,-0.099232456,-0.25877193,1,0,0,0.6435,Basalt_rect,2,0.644,0,12,0,12,0,1,,,,,,,,,,,,,
65c19735a918130b0aa9b3e4,TCR,2024-06-11_12h41.40.876,LearnStrategy,2023.2.3,Win32,59.88023952,4,1,14,-0.020833333,-0.002741228,1,0,0,1.0573,rock_grid_rect_2,4,09,-1,-1,1.057,0.421600877,-0.393640351,0,0,1,0.666,Pumice_rect,8,0.666,0,13,0,13,0,1,,,,,,,,,,,,,
65c19735a918130b0aa9b3e4,TCR,2024-06-11_12h41.40.876,LearnStrategy,2023.2.3,Win32,59.88023952,4,1,15,0.006578947,0.015350877,1,0,0,1.0322,rock_grid_rect_2,5,06,-1,-1,1.032,0.39747807,-0.261513158,1,0,0,0.5981,Gabbro_rect,4,0.598,0,14,0,14,0,1,,,,,,,,,,,,,
65c19735a918130b0aa9b3e4,TCR,2024-06-11_12h41.40.876,LearnStrategy,2023.2.3,Win32,59.88023952,4,1,16,-0.071820175,0.019736842,1,0,0,1.0542,rock_grid_rect_2,1,03,-1,-1,1.054,-0.338815789,-0.400767544,1,0,0,1.0298,Obsidian_rect,5,1.03,0,15,0,15,0,1,,,,,,,,,,,,,
65c19735a918130b0aa9b3e4,TCR,2024-06-11_12h41.40.876,LearnStrategy,2023.2.3,Win32,59.88023952,4,2,1,,,,,,,,5,02,,,,,,,,,,,3,0.683,0,,,,,,0.125548246,-0.241776316,1,0,0,0.6829,Diorite_rect,0,0,0,0,1,
65c19735a918130b0aa9b3e4,TCR,2024-06-11_12h41.40.876,LearnStrategy,2023.2.3,Win32,59.88023952,4,2,2,,,,,,,,7,07,,,,,,,,,,,2,0.201,0,,,,,,-0.123355263,-0.237390351,1,0,0,0.2007,Basalt_rect,1,0,1,0,1,
65c19735a918130b0aa9b3e4,TCR,2024-06-11_12h41.40.876,LearnStrategy,2023.2.3,Win32,59.88023952,4,2,3,,,,,,,,6,16,,,,,,,,,,,1,0.123,0,,,,,,-0.408991228,-0.248903509,1,0,0,0.1231,Andesite_rect,2,0,2,0,1,
65c19735a918130b0aa9b3e4,TCR,2024-06-11_12h41.40.876,LearnStrategy,2023.2.3,Win32,59.88023952,4,2,4,,,,,,,,1,07,,,,,,,,,,,5,0.713,0,,,,,,-0.368969298,-0.394188596,1,0,0,0.713,Obsidian_rect,3,0,3,0,1,
65c19735a918130b0aa9b3e4,TCR,2024-06-11_12h41.40.876,LearnStrategy,2023.2.3,Win32,59.88023952,4,2,5,,,,,,,,2,09,,,,,,,,,,,6,0.098,0,,,,,,-0.097039474,-0.395833333,1,0,0,0.0979,Pegmatite_rect,4,0,4,0,1,
65c19735a918130b0aa9b3e4,TCR,2024-06-11_12h41.40.876,LearnStrategy,2023.2.3,Win32,59.88023952,4,2,6,,,,,,,,7,04,,,,,,,,,,,2,0.161,0,,,,,,-0.116776316,-0.251096491,1,0,0,0.1613,Basalt_rect,5,0,5,0,1,
65c19735a918130b0aa9b3e4,TCR,2024-06-11_12h41.40.876,LearnStrategy,2023.2.3,Win32,59.88023952,4,2,7,,,,,,,,4,03,,,,,,,,,,,3,0.069,0,,,,,,0.134320175,-0.244517544,1,0,0,0.0692,Diorite_rect,6,0,6,0,1,
65c19735a918130b0aa9b3e4,TCR,2024-06-11_12h41.40.876,LearnStrategy,2023.2.3,Win32,59.88023952,4,2,8,,,,,,,,3,14,,,,,,,,,,,7,0.622,0,,,,,,0.162280702,-0.408991228,1,0,0,0.6222,Peridotite_rect,7,0,7,0,1,
65c19735a918130b0aa9b3e4,TCR,2024-06-11_12h41.40.876,LearnStrategy,2023.2.3,Win32,59.88023952,4,2,9,,,,,,,,3,13,,,,,,,,,,,8,0.058,0,,,,,,0.36622807,-0.39254386,1,0,0,0.0585,Pumice_rect,8,0,8,0,1,
65c19735a918130b0aa9b3e4,TCR,2024-06-11_12h41.40.876,LearnStrategy,2023.2.3,Win32,59.88023952,4,2,10,,,,,,,,8,10,,,,,,,,,,,4,0.207,0,,,,,,0.376096491,-0.239035088,1,0,0,0.2072,Gabbro_rect,9,0,9,0,1,
65c19735a918130b0aa9b3e4,TCR,2024-06-11_12h41.40.876,LearnStrategy,2023.2.3,Win32,59.88023952,4,2,11,,,,,,,,8,03,,,,,,,,,,,3,1.525,0,,,,,,0.161184211,-0.245065789,1,0,0,1.5246,Diorite_rect,10,0,10,0,1,
65c19735a918130b0aa9b3e4,TCR,2024-06-11_12h41.40.876,LearnStrategy,2023.2.3,Win32,59.88023952,4,2,12,,,,,,,,5,12,,,,,,,,,,,4,0.048,0,,,,,,0.372258772,-0.245065789,1,0,0,0.0482,Gabbro_rect,11,0,11,0,1,
65c19735a918130b0aa9b3e4,TCR,2024-06-11_12h41.40.876,LearnStrategy,2023.2.3,Win32,59.88023952,4,2,13,,,,,,,,4,05,,,,,,,,,,,8,0.187,0,,,,,,0.370614035,-0.390899123,1,0,0,0.1867,Pumice_rect,12,0,12,0,1,
65c19735a918130b0aa9b3e4,TCR,2024-06-11_12h41.40.876,LearnStrategy,2023.2.3,Win32,59.88023952,4,2,14,,,,,,,,2,12,,,,,,,,,,,7,0.084,0,,,,,,0.146929825,-0.409539474,1,0,0,0.0843,Peridotite_rect,13,0,13,0,1,
65c19735a918130b0aa9b3e4,TCR,2024-06-11_12h41.40.876,LearnStrategy,2023.2.3,Win32,59.88023952,4,2,15,,,,,,,,1,06,,,,,,,,,,,6,0.112,0,,,,,,-0.135416667,-0.420504386,1,0,0,0.1119,Pegmatite_rect,14,0,14,0,1,
65c19735a918130b0aa9b3e4,TCR,2024-06-11_12h41.40.876,LearnStrategy,2023.2.3,Win32,59.88023952,4,2,16,,,,,,,,6,07,,,,,,,,,,,2,0.97,0,,,,,,-0.170504386,-0.236842105,1,0,0,0.9702,Basalt_rect,15,0,15,0,1,
65c19735a918130b0aa9b3e4,TCR,2024-06-11_12h41.40.876,LearnStrategy,2023.2.3,Win32,59.88023952,5,1,1,-0.036732456,0.003837719,1,0,0,1.1483,rock_grid_rect_2,8,16,-1,-1,1.148,0.126096491,-0.264802632,1,0,0,1.0449,Diorite_rect,3,1.045,0,0,0,0,0,1,,,,,,,,,,,,,
65c19735a918130b0aa9b3e4,TCR,2024-06-11_12h41.40.876,LearnStrategy,2023.2.3,Win32,59.88023952,5,1,2,-0.001644737,0.006030702,1,0,0,0.8261,rock_grid_rect_2,4,16,-1,-1,0.826,-0.092105263,-0.244517544,1,0,0,0.5896,Basalt_rect,2,0.59,0,1,0,1,0,1,,,,,,,,,,,,,
65c19735a918130b0aa9b3e4,TCR,2024-06-11_12h41.40.876,LearnStrategy,2023.2.3,Win32,59.88023952,5,1,3,0.020285088,-0.006578947,1,0,0,0.7628,rock_grid_rect_2,2,05,-1,-1,0.763,0.155153509,-0.413377193,1,0,0,0.6167,Peridotite_rect,7,0.617,0,2,0,2,0,1,,,,,,,,,,,,,
65c19735a918130b0aa9b3e4,TCR,2024-06-11_12h41.40.876,LearnStrategy,2023.2.3,Win32,59.88023952,5,1,4,0.041118421,-0.000548246,1,0,0,0.7719,rock_grid_rect_2,3,16,-1,-1,0.772,0.396929825,-0.255482456,1,0,0,0.6027,Gabbro_rect,4,0.603,0,3,0,3,0,1,,,,,,,,,,,,,
65c19735a918130b0aa9b3e4,TCR,2024-06-11_12h41.40.876,LearnStrategy,2023.2.3,Win32,59.88023952,5,1,5,0.042763158,-0.02247807,1,0,0,0.7361,rock_grid_rect_2,5,11,-1,-1,0.736,0.359649123,-0.391995614,0,0,1,1.1315,Pumice_rect,8,1.132,0,4,0,4,0,1,,,,,,,,,,,,,
65c19735a918130b0aa9b3e4,TCR,2024-06-11_12h41.40.876,LearnStrategy,2023.2.3,Win32,59.88023952,5,1,6,0.020833333,-0.024671053,1,0,0,1.0096,rock_grid_rect_2,4,12,-1,-1,1.01,-0.100328947,-0.389254386,1,0,0,0.7916,Pegmatite_rect,6,0.792,0,5,0,5,0,1,,,,,,,,,,,,,
65c19735a918130b0aa9b3e4,TCR,2024-06-11_12h41.40.876,LearnStrategy,2023.2.3,Win32,59.88023952,5,1,7,-0.033442982,-0.001644737,1,0,0,0.739,rock_grid_rect_2,7,05,-1,-1,0.739,-0.331688596,-0.237938596,1,0,0,0.604,Andesite_rect,1,0.604,0,6,0,6,0,1,,,,,,,,,,,,,
65c19735a918130b0aa9b3e4,TCR,2024-06-11_12h41.40.876,LearnStrategy,2023.2.3,Win32,59.88023952,5,1,8,-0.097039474,-0.02247807,1,0,0,0.8609,rock_grid_rect_2,2,14,-1,-1,0.861,-0.340460526,-0.407894737,1,0,0,0.6798,Obsidian_rect,5,0.68,0,7,0,7,0,1,,,,,,,,,,,,,
65c19735a918130b0aa9b3e4,TCR,2024-06-11_12h41.40.876,LearnStrategy,2023.2.3,Win32,59.88023952,5,1,9,-0.003837719,0.016447368,1,0,0,0.7156,rock_grid_rect_2,7,05,-1,-1,0.716,-0.117324561,-0.246162281,1,0,0,1.3455,Basalt_rect,2,1.345,0,8,0,8,0,1,,,,,,,,,,,,,
65c19735a918130b0aa9b3e4,TCR,2024-06-11_12h41.40.876,LearnStrategy,2023.2.3,Win32,59.88023952,5,1,10,-0.001644737,-0.020833333,1,0,0,1.3062,rock_grid_rect_2,5,06,-1,-1,1.306,0.121710526,-0.241776316,1,0,0,0.6029,Diorite_rect,3,0.603,0,9,0,9,0,1,,,,,,,,,,,,,
65c19735a918130b0aa9b3e4,TCR,2024-06-11_12h41.40.876,LearnStrategy,2023.2.3,Win32,59.88023952,5,1,11,-0.006030702,-0.001096491,1,0,0,0.7158,rock_grid_rect_2,6,03,-1,-1,0.716,0.350877193,-0.264254386,1,0,0,0.6029,Gabbro_rect,4,0.603,0,10,0,10,0,1,,,,,,,,,,,,,
65c19735a918130b0aa9b3e4,TCR,2024-06-11_12h41.40.876,LearnStrategy,2023.2.3,Win32,59.88023952,5,1,12,-0.01754386,0.002741228,1,0,0,0.7358,rock_grid_rect_2,6,12,-1,-1,0.736,0.341557018,-0.378289474,1,0,0,0.69,Pumice_rect,8,0.69,0,11,0,11,0,1,,,,,,,,,,,,,
65c19735a918130b0aa9b3e4,TCR,2024-06-11_12h41.40.876,LearnStrategy,2023.2.3,Win32,59.88023952,5,1,13,0.007127193,-0.002192982,1,0,0,0.8071,rock_grid_rect_2,8,09,-1,-1,0.807,0.121710526,-0.40625,1,0,0,0.6655,Peridotite_rect,7,0.666,0,12,0,12,0,1,,,,,,,,,,,,,
65c19735a918130b0aa9b3e4,TCR,2024-06-11_12h41.40.876,LearnStrategy,2023.2.3,Win32,59.88023952,5,1,14,-0.019736842,-0.001096491,0,0,1,0.9924,rock_grid_rect_2,3,06,-1,-1,0.992,-0.10745614,-0.408991228,1,0,0,0.6802,Pegmatite_rect,6,0.68,0,13,0,13,0,1,,,,,,,,,,,,,
65c19735a918130b0aa9b3e4,TCR,2024-06-11_12h41.40.876,LearnStrategy,2023.2.3,Win32,59.88023952,5,1,15,-0.01754386,0.015350877,1,0,0,0.8379,rock_grid_rect_2,1,01,-1,-1,0.838,-0.113486842,-0.268640351,1,0,0,0.6321,Basalt_rect,2,0.632,0,14,0,14,0,1,,,,,,,,,,,,,
65c19735a918130b0aa9b3e4,TCR,2024-06-11_12h41.40.876,LearnStrategy,2023.2.3,Win32,59.88023952,5,1,16,0,0.009320175,1,0,0,0.7154,rock_grid_rect_2,1,11,-1,-1,0.715,0.128289474,-0.245614035,1,0,0,0.5609,Diorite_rect,3,0.561,0,15,0,15,0,1,,,,,,,,,,,,,
65c19735a918130b0aa9b3e4,TCR,2024-06-11_12h41.40.876,LearnStrategy,2023.2.3,Win32,59.88023952,5,2,1,,,,,,,,5,16,,,,,,,,,,,3,0.546,0,,,,,,0.118969298,-0.260964912,1,0,0,0.5461,Diorite_rect,0,0,0,0,1,
65c19735a918130b0aa9b3e4,TCR,2024-06-11_12h41.40.876,LearnStrategy,2023.2.3,Win32,59.88023952,5,2,2,,,,,,,,2,10,,,,,,,,,,,4,0.164,0,,,,,,0.354714912,-0.233004386,1,0,0,0.1642,Gabbro_rect,1,0,1,0,1,
65c19735a918130b0aa9b3e4,TCR,2024-06-11_12h41.40.876,LearnStrategy,2023.2.3,Win32,59.88023952,5,2,3,,,,,,,,2,16,,,,,,,,,,,8,0.233,0,,,,,,0.351425439,-0.411732456,1,0,0,0.2333,Pumice_rect,2,0,2,0,1,
65c19735a918130b0aa9b3e4,TCR,2024-06-11_12h41.40.876,LearnStrategy,2023.2.3,Win32,59.88023952,5,2,4,,,,,,,,1,10,,,,,,,,,,,7,0.139,0,,,,,,0.114035088,-0.405701754,1,0,0,0.1389,Peridotite_rect,3,0,3,0,1,
65c19735a918130b0aa9b3e4,TCR,2024-06-11_12h41.40.876,LearnStrategy,2023.2.3,Win32,59.88023952,5,2,5,,,,,,,,4,10,,,,,,,,,,,6,0.162,0,,,,,,-0.130482456,-0.400219298,1,0,0,0.162,Pegmatite_rect,4,0,4,0,1,
65c19735a918130b0aa9b3e4,TCR,2024-06-11_12h41.40.876,LearnStrategy,2023.2.3,Win32,59.88023952,5,2,6,,,,,,,,6,05,,,,,,,,,,,5,0.972,0,,,,,,-0.373355263,-0.38870614,1,0,0,0.9719,Obsidian_rect,5,0,5,0,1,
65c19735a918130b0aa9b3e4,TCR,2024-06-11_12h41.40.876,LearnStrategy,2023.2.3,Win32,59.88023952,5,2,7,,,,,,,,7,10,,,,,,,,,,,1,0.094,0,,,,,,-0.363486842,-0.241776316,1,0,0,0.0942,Andesite_rect,6,0,6,0,1,
65c19735a918130b0aa9b3e4,TCR,2024-06-11_12h41.40.876,LearnStrategy,2023.2.3,Win32,59.88023952,5,2,8,,,,,,,,4,08,,,,,,,,,,,2,0.693,0,,,,,,-0.121710526,-0.252741228,1,0,0,0.6931,Basalt_rect,7,0,7,0,1,
65c19735a918130b0aa9b3e4,TCR,2024-06-11_12h41.40.876,LearnStrategy,2023.2.3,Win32,59.88023952,5,2,9,,,,,,,,6,06,,,,,,,,,,,3,0.079,0,,,,,,0.100328947,-0.262061404,1,0,0,0.0788,Diorite_rect,8,0,8,0,1,
65c19735a918130b0aa9b3e4,TCR,2024-06-11_12h41.40.876,LearnStrategy,2023.2.3,Win32,59.88023952,5,2,10,,,,,,,,5,04,,,,,,,,,,,4,0.307,0,,,,,,0.342653509,-0.250548246,1,0,0,0.307,Gabbro_rect,9,0,9,0,1,
65c19735a918130b0aa9b3e4,TCR,2024-06-11_12h41.40.876,LearnStrategy,2023.2.3,Win32,59.88023952,5,2,11,,,,,,,,7,13,,,,,,,,,,,8,0.206,0,,,,,,0.355811404,-0.420504386,1,0,0,0.2059,Pumice_rect,10,0,10,0,1,
65c19735a918130b0aa9b3e4,TCR,2024-06-11_12h41.40.876,LearnStrategy,2023.2.3,Win32,59.88023952,5,2,12,,,,,,,,3,12,,,,,,,,,,,7,0.117,0,,,,,,0.155701754,-0.416118421,1,0,0,0.1166,Peridotite_rect,11,0,11,0,1,
65c19735a918130b0aa9b3e4,TCR,2024-06-11_12h41.40.876,LearnStrategy,2023.2.3,Win32,59.88023952,5,2,13,,,,,,,,8,02,,,,,,,,,,,3,0.749,0,,,,,,0.128837719,-0.248355263,1,0,0,0.749,Diorite_rect,12,0,12,0,1,
65c19735a918130b0aa9b3e4,TCR,2024-06-11_12h41.40.876,LearnStrategy,2023.2.3,Win32,59.88023952,5,2,14,,,,,,,,8,13,,,,,,,,,,,4,0.091,0,,,,,,0.383223684,-0.239035088,1,0,0,0.0909,Gabbro_rect,13,0,13,0,1,
65c19735a918130b0aa9b3e4,TCR,2024-06-11_12h41.40.876,LearnStrategy,2023.2.3,Win32,59.88023952,5,2,15,,,,,,,,3,09,,,,,,,,,,,8,0.642,0,,,,,,0.372258772,-0.39254386,1,0,0,0.6416,Pumice_rect,14,0,14,0,1,
65c19735a918130b0aa9b3e4,TCR,2024-06-11_12h41.40.876,LearnStrategy,2023.2.3,Win32,59.88023952,5,2,16,,,,,,,,1,16,,,,,,,,,,,3,0.165,0,,,,,,0.182017544,-0.236842105,1,0,0,0.165,Diorite_rect,15,0,15,0,1,
65c19735a918130b0aa9b3e4,TCR,2024-06-11_12h41.40.876,LearnStrategy,2023.2.3,Win32,59.88023952,6,1,1,-0.016447368,0.006578947,1,0,0,1.9335,rock_grid_rect_2,7,14,-1,-1,1.933,0.110197368,-0.234649123,1,0,0,0.7813,Diorite_rect,3,0.781,0,0,0,0,0,1,,,,,,,,,,,,,
65c19735a918130b0aa9b3e4,TCR,2024-06-11_12h41.40.876,LearnStrategy,2023.2.3,Win32,59.88023952,6,1,2,0.014254386,0.023574561,1,0,0,1.0196,rock_grid_rect_2,6,03,-1,-1,1.02,0.329495614,-0.237390351,1,0,0,0.7021,Gabbro_rect,4,0.702,0,1,0,1,0,1,,,,,,,,,,,,,
65c19735a918130b0aa9b3e4,TCR,2024-06-11_12h41.40.876,LearnStrategy,2023.2.3,Win32,59.88023952,6,1,3,0.035635965,-0.006578947,1,0,0,0.9882,rock_grid_rect_2,1,05,-1,-1,0.988,-0.082236842,-0.248903509,1,0,0,0.6992,Basalt_rect,2,0.699,0,2,0,2,0,1,,,,,,,,,,,,,
65c19735a918130b0aa9b3e4,TCR,2024-06-11_12h41.40.876,LearnStrategy,2023.2.3,Win32,59.88023952,6,1,4,-0.018640351,-0.019188596,1,0,0,1.2161,rock_grid_rect_2,2,05,-1,-1,1.216,-0.410087719,-0.251096491,1,0,0,0.8065,Andesite_rect,1,0.806,0,3,0,3,0,1,,,,,,,,,,,,,
65c19735a918130b0aa9b3e4,TCR,2024-06-11_12h41.40.876,LearnStrategy,2023.2.3,Win32,59.88023952,6,1,5,-0.003837719,-0.019736842,1,0,0,0.8951,rock_grid_rect_2,6,11,-1,-1,0.895,-0.08497807,-0.383223684,1,0,0,0.7057,Pegmatite_rect,6,0.706,1,4,0,4,0,1,,,,,,,,,,,,,
65c19735a918130b0aa9b3e4,TCR,2024-06-11_12h41.40.876,LearnStrategy,2023.2.3,Win32,59.88023952,6,1,6,0.004385965,-0.020285088,1,0,0,0.7544,rock_grid_rect_2,3,08,-1,-1,0.754,0.105811404,-0.418311404,1,0,0,0.6836,Peridotite_rect,7,0.684,0,5,0,5,0,1,,,,,,,,,,,,,
65c19735a918130b0aa9b3e4,TCR,2024-06-11_12h41.40.876,LearnStrategy,2023.2.3,Win32,59.88023952,6,1,7,0.010416667,-0.016447368,1,0,0,0.9873,rock_grid_rect_2,4,12,-1,-1,0.987,0.413925439,-0.385416667,1,0,0,0.6746,Pumice_rect,8,0.675,0,6,0,6,0,1,,,,,,,,,,,,,
65c19735a918130b0aa9b3e4,TCR,2024-06-11_12h41.40.876,LearnStrategy,2023.2.3,Win32,59.88023952,6,1,8,0,0.004385965,1,0,0,0.9442,rock_grid_rect_2,5,10,-1,-1,0.944,-0.321820175,-0.400767544,1,0,0,0.9021,Obsidian_rect,5,0.902,1,7,0,7,0,1,,,,,,,,,,,,,
65c19735a918130b0aa9b3e4,TCR,2024-06-11_12h41.40.876,LearnStrategy,2023.2.3,Win32,59.88023952,6,1,9,-0.058662281,-0.015899123,1,0,0,0.9827,rock_grid_rect_2,7,12,-1,-1,0.983,-0.331688596,-0.246162281,1,0,0,0.6464,Andesite_rect,1,0.646,0,8,0,8,0,1,,,,,,,,,,,,,
65c19735a918130b0aa9b3e4,TCR,2024-06-11_12h41.40.876,LearnStrategy,2023.2.3,Win32,59.88023952,6,1,10,-0.030153509,-0.003289474,1,0,0,0.9335,rock_grid_rect_2,8,06,-1,-1,0.933,-0.099232456,-0.252192982,1,0,0,1.8565,Basalt_rect,2,1.857,0,9,0,9,0,1,,,,,,,,,,,,,
65c19735a918130b0aa9b3e4,TCR,2024-06-11_12h41.40.876,LearnStrategy,2023.2.3,Win32,59.88023952,6,1,11,0.057017544,-0.005482456,1,0,0,1.3488,rock_grid_rect_2,1,04,-1,-1,1.349,0.117872807,-0.241776316,1,0,0,0.6145,Diorite_rect,3,0.615,0,10,0,10,0,1,,,,,,,,,,,,,
65c19735a918130b0aa9b3e4,TCR,2024-06-11_12h41.40.876,LearnStrategy,2023.2.3,Win32,59.88023952,6,1,12,0.056469298,-0.014254386,1,0,0,0.7459,rock_grid_rect_2,8,06,-1,-1,0.746,0.396381579,-0.235197368,1,0,0,0.6505,Gabbro_rect,4,0.651,0,11,0,11,0,1,,,,,,,,,,,,,
65c19735a918130b0aa9b3e4,TCR,2024-06-11_12h41.40.876,LearnStrategy,2023.2.3,Win32,59.88023952,6,1,13,0.046052632,-0.005482456,1,0,0,1.1353,rock_grid_rect_2,2,06,-1,-1,1.135,-0.057565789,-0.241776316,1,0,0,0.5866,Basalt_rect,2,0.587,1,12,0,12,0,1,,,,,,,,,,,,,
65c19735a918130b0aa9b3e4,TCR,2024-06-11_12h41.40.876,LearnStrategy,2023.2.3,Win32,59.88023952,6,1,14,0.019188596,-0.007675439,1,0,0,1.2862,rock_grid_rect_2,4,13,-1,-1,1.286,0.110745614,-0.258223684,1,0,0,0.6349,Diorite_rect,3,0.635,0,13,0,13,0,1,,,,,,,,,,,,,
65c19735a918130b0aa9b3e4,TCR,2024-06-11_12h41.40.876,LearnStrategy,2023.2.3,Win32,59.88023952,6,1,15,-0.018092105,-0.001644737,0,0,1,0.7543,rock_grid_rect_2,3,07,-1,-1,0.754,0.370614035,-0.246710526,1,0,0,0.6616,Gabbro_rect,4,0.662,0,14,0,14,0,1,,,,,,,,,,,,,
65c19735a918130b0aa9b3e4,TCR,2024-06-11_12h41.40.876,LearnStrategy,2023.2.3,Win32,59.88023952,6,1,16,0,0.01754386,1,0,0,0.613,rock_grid_rect_2,5,06,-1,-1,0.613,0.306469298,-0.389254386,1,0,0,0.6925,Pumice_rect,8,0.692,0,15,0,15,0,1,,,,,,,,,,,,,
65c19735a918130b0aa9b3e4,TCR,2024-06-11_12h41.40.876,LearnStrategy,2023.2.3,Win32,59.88023952,6,2,1,,,,,,,,7,16,,,,,,,,,,,3,0.702,0,,,,,,0.13377193,-0.233004386,1,0,0,0.7021,Diorite_rect,0,0,0,0,1,
65c19735a918130b0aa9b3e4,TCR,2024-06-11_12h41.40.876,LearnStrategy,2023.2.3,Win32,59.88023952,6,2,2,,,,,,,,4,11,,,,,,,,,,,2,0.625,0,,,,,,-0.115679825,-0.245614035,1,0,0,0.6245,Basalt_rect,1,0,1,0,1,
65c19735a918130b0aa9b3e4,TCR,2024-06-11_12h41.40.876,LearnStrategy,2023.2.3,Win32,59.88023952,6,2,3,,,,,,,,8,14,,,,,,,,,,,7,0.227,0,,,,,,0.127192982,-0.416666667,1,0,0,0.2268,Peridotite_rect,2,0,2,0,1,
65c19735a918130b0aa9b3e4,TCR,2024-06-11_12h41.40.876,LearnStrategy,2023.2.3,Win32,59.88023952,6,2,4,,,,,,,,1,14,,,,,,,,,,,8,0.212,0,,,,,,0.394736842,-0.394188596,1,0,0,0.2116,Pumice_rect,3,0,3,0,1,
65c19735a918130b0aa9b3e4,TCR,2024-06-11_12h41.40.876,LearnStrategy,2023.2.3,Win32,59.88023952,6,2,5,,,,,,,,7,02,,,,,,,,,,,4,0.176,0,,,,,,0.385416667,-0.250548246,1,0,0,0.1757,Gabbro_rect,4,0,4,0,1,
65c19735a918130b0aa9b3e4,TCR,2024-06-11_12h41.40.876,LearnStrategy,2023.2.3,Win32,59.88023952,6,2,6,,,,,,,,4,15,,,,,,,,,,,6,0.382,0,,,,,,-0.066885965,-0.381578947,1,0,0,0.382,Pegmatite_rect,5,0,5,0,1,
65c19735a918130b0aa9b3e4,TCR,2024-06-11_12h41.40.876,LearnStrategy,2023.2.3,Win32,59.88023952,6,2,7,,,,,,,,3,15,,,,,,,,,,,2,0.286,0,,,,,,-0.087171053,-0.237938596,1,0,0,0.2856,Basalt_rect,6,0,6,0,1,
65c19735a918130b0aa9b3e4,TCR,2024-06-11_12h41.40.876,LearnStrategy,2023.2.3,Win32,59.88023952,6,2,8,,,,,,,,6,10,,,,,,,,,,,1,0.257,0,,,,,,-0.323464912,-0.239035088,1,0,0,0.2569,Andesite_rect,7,0,7,0,1,
65c19735a918130b0aa9b3e4,TCR,2024-06-11_12h41.40.876,LearnStrategy,2023.2.3,Win32,59.88023952,6,2,9,,,,,,,,8,04,,,,,,,,,,,5,0.787,0,,,,,,-0.355263158,-0.396381579,1,0,0,0.7867,Obsidian_rect,8,0,8,0,1,
65c19735a918130b0aa9b3e4,TCR,2024-06-11_12h41.40.876,LearnStrategy,2023.2.3,Win32,59.88023952,6,2,10,,,,,,,,6,08,,,,,,,,,,,5,0.049,0,,,,,,-0.355263158,-0.396381579,1,0,0,0.0489,Obsidian_rect,9,0,9,0,1,
65c19735a918130b0aa9b3e4,TCR,2024-06-11_12h41.40.876,LearnStrategy,2023.2.3,Win32,59.88023952,6,2,11,,,,,,,,2,04,,,,,,,,,,,1,0.28,0,,,,,,-0.363486842,-0.260416667,1,0,0,0.2801,Andesite_rect,10,0,10,0,1,
65c19735a918130b0aa9b3e4,TCR,2024-06-11_12h41.40.876,LearnStrategy,2023.2.3,Win32,59.88023952,6,2,12,,,,,,,,5,05,,,,,,,,,,,2,0.153,0,,,,,,-0.16995614,-0.250548246,1,0,0,0.1528,Basalt_rect,11,0,11,0,1,
65c19735a918130b0aa9b3e4,TCR,2024-06-11_12h41.40.876,LearnStrategy,2023.2.3,Win32,59.88023952,6,2,13,,,,,,,,3,02,,,,,,,,,,,6,0.692,0,,,,,,-0.123355263,-0.400767544,1,0,0,0.6921,Pegmatite_rect,12,0,12,0,1,
65c19735a918130b0aa9b3e4,TCR,2024-06-11_12h41.40.876,LearnStrategy,2023.2.3,Win32,59.88023952,6,2,14,,,,,,,,5,09,,,,,,,,,,,7,1.601,0,,,,,,0.129385965,-0.410087719,1,0,0,1.6014,Peridotite_rect,13,0,13,0,1,
65c19735a918130b0aa9b3e4,TCR,2024-06-11_12h41.40.876,LearnStrategy,2023.2.3,Win32,59.88023952,6,2,15,,,,,,,,2,01,,,,,,,,,,,3,0.393,0,,,,,,0.125,-0.261513158,1,0,0,0.3932,Diorite_rect,14,0,14,0,1,
65c19735a918130b0aa9b3e4,TCR,2024-06-11_12h41.40.876,LearnStrategy,2023.2.3,Win32,59.88023952,6,2,16,,,,,,,,1,02,,,,,,,,,,,4,0.82,0,,,,,,0.418311404,-0.235745614,1,0,0,0.8201,Gabbro_rect,15,0,15,0,1,
65c19735a918130b0aa9b3e4,TCR,2024-06-11_12h41.40.876,LearnStrategy,2023.2.3,Win32,59.88023952,7,1,1,0.004385965,-0.007675439,1,0,0,0.9965,rock_grid_rect_2,7,06,-1,-1,0.996,-0.151315789,-0.251644737,1,0,0,1.3348,Basalt_rect,2,1.335,0,0,0,0,0,1,,,,,,,,,,,,,
65c19735a918130b0aa9b3e4,TCR,2024-06-11_12h41.40.876,LearnStrategy,2023.2.3,Win32,59.88023952,7,1,2,0.03125,-0.010416667,1,0,0,1.2853,rock_grid_rect_2,4,12,-1,-1,1.285,-0.391447368,-0.243421053,1,0,0,0.8234,Andesite_rect,1,0.823,0,1,0,1,0,1,,,,,,,,,,,,,
65c19735a918130b0aa9b3e4,TCR,2024-06-11_12h41.40.876,LearnStrategy,2023.2.3,Win32,59.88023952,7,1,3,0.021929825,-0.014802632,1,0,0,0.8725,rock_grid_rect_2,2,14,-1,-1,0.873,0.165570175,-0.257127193,1,0,0,0.5908,Diorite_rect,3,0.591,0,2,0,2,0,1,,,,,,,,,,,,,
65c19735a918130b0aa9b3e4,TCR,2024-06-11_12h41.40.876,LearnStrategy,2023.2.3,Win32,59.88023952,7,1,4,0.041666667,-0.009320175,1,0,0,1.1773,rock_grid_rect_2,8,05,-1,-1,1.177,0.381030702,-0.266995614,1,0,0,0.5943,Gabbro_rect,4,0.594,0,3,0,3,0,1,,,,,,,,,,,,,
65c19735a918130b0aa9b3e4,TCR,2024-06-11_12h41.40.876,LearnStrategy,2023.2.3,Win32,59.88023952,7,1,5,0.024671053,-0.013157895,1,0,0,0.9739,rock_grid_rect_2,4,13,-1,-1,0.974,0.359649123,-0.381030702,1,0,0,0.6965,Pumice_rect,8,0.696,0,4,0,4,0,1,,,,,,,,,,,,,
65c19735a918130b0aa9b3e4,TCR,2024-06-11_12h41.40.876,LearnStrategy,2023.2.3,Win32,59.88023952,7,1,6,0.030701754,0.014802632,1,0,0,0.847,rock_grid_rect_2,2,02,-1,-1,0.847,-0.104166667,-0.231907895,1,0,0,1.1919,Basalt_rect,2,1.192,1,5,0,5,0,1,,,,,,,,,,,,,
65c19735a918130b0aa9b3e4,TCR,2024-06-11_12h41.40.876,LearnStrategy,2023.2.3,Win32,59.88023952,7,1,7,0.014802632,-0.007675439,1,0,0,1.153,rock_grid_rect_2,3,10,-1,-1,1.153,0.127741228,-0.257675439,1,0,0,1.2263,Diorite_rect,3,1.226,1,6,0,6,0,1,,,,,,,,,,,,,
65c19735a918130b0aa9b3e4,TCR,2024-06-11_12h41.40.876,LearnStrategy,2023.2.3,Win32,59.88023952,7,1,8,0.020285088,-0.015350877,1,0,0,1.2888,rock_grid_rect_2,5,10,-1,-1,1.289,-0.402412281,-0.260416667,1,0,0,0.6684,Andesite_rect,1,0.668,0,7,0,7,0,1,,,,,,,,,,,,,
65c19735a918130b0aa9b3e4,TCR,2024-06-11_12h41.40.876,LearnStrategy,2023.2.3,Win32,59.88023952,7,1,9,-0.009320175,-0.019188596,1,0,0,0.8573,rock_grid_rect_2,5,07,-1,-1,0.857,-0.347039474,-0.382127193,1,0,0,0.7373,Obsidian_rect,5,0.737,1,8,0,8,0,1,,,,,,,,,,,,,
65c19735a918130b0aa9b3e4,TCR,2024-06-11_12h41.40.876,LearnStrategy,2023.2.3,Win32,59.88023952,7,1,10,-0.01754386,-0.019188596,1,0,0,0.7912,rock_grid_rect_2,6,12,-1,-1,0.791,-0.131030702,-0.234100877,1,0,0,0.6043,Basalt_rect,2,0.604,0,9,0,9,0,1,,,,,,,,,,,,,
65c19735a918130b0aa9b3e4,TCR,2024-06-11_12h41.40.876,LearnStrategy,2023.2.3,Win32,59.88023952,7,1,11,-0.003289474,-0.01370614,1,0,0,1.5065,rock_grid_rect_2,1,11,-1,-1,1.506,0.140350877,-0.256578947,1,0,0,0.6163,Diorite_rect,3,0.616,0,10,0,10,0,1,,,,,,,,,,,,,
65c19735a918130b0aa9b3e4,TCR,2024-06-11_12h41.40.876,LearnStrategy,2023.2.3,Win32,59.88023952,7,1,12,0.026864035,-0.007675439,1,0,0,0.9164,rock_grid_rect_2,7,05,-1,-1,0.916,0.377192982,-0.25,1,0,0,0.5972,Gabbro_rect,4,0.597,0,11,0,11,0,1,,,,,,,,,,,,,
65c19735a918130b0aa9b3e4,TCR,2024-06-11_12h41.40.876,LearnStrategy,2023.2.3,Win32,59.88023952,7,1,13,-0.01370614,0.012609649,0,0,1,1.0861,rock_grid_rect_2,6,13,-1,-1,1.086,0.35252193,-0.382127193,1,0,0,0.8017,Pumice_rect,8,0.802,0,12,0,12,0,1,,,,,,,,,,,,,
65c19735a918130b0aa9b3e4,TCR,2024-06-11_12h41.40.876,LearnStrategy,2023.2.3,Win32,59.88023952,7,1,14,0.04495614,-0.012609649,1,0,0,0.7256,rock_grid_rect_2,1,04,-1,-1,0.726,0.105263158,-0.24122807,0,0,1,1.1008,Diorite_rect,3,1.101,0,13,0,13,0,1,,,,,,,,,,,,,
65c19735a918130b0aa9b3e4,TCR,2024-06-11_12h41.40.876,LearnStrategy,2023.2.3,Win32,59.88023952,7,1,15,-0.014254386,-0.004385965,1,0,0,0.6846,rock_grid_rect_2,8,08,-1,-1,0.685,-0.086622807,-0.246162281,1,0,0,0.6065,Basalt_rect,2,0.606,0,14,0,14,0,1,,,,,,,,,,,,,
65c19735a918130b0aa9b3e4,TCR,2024-06-11_12h41.40.876,LearnStrategy,2023.2.3,Win32,59.88023952,7,1,16,0.006578947,0.01754386,1,0,0,0.9661,rock_grid_rect_2,3,08,-1,-1,0.966,-0.391447368,-0.236842105,1,0,0,1.3686,Andesite_rect,1,1.369,0,15,0,15,0,1,,,,,,,,,,,,,
65c19735a918130b0aa9b3e4,TCR,2024-06-11_12h41.40.876,LearnStrategy,2023.2.3,Win32,59.88023952,7,2,1,,,,,,,,5,12,,,,,,,,,,,2,1.086,0,,,,,,-0.097039474,-0.268640351,1,0,0,1.0864,Basalt_rect,0,0,0,0,1,
65c19735a918130b0aa9b3e4,TCR,2024-06-11_12h41.40.876,LearnStrategy,2023.2.3,Win32,59.88023952,7,2,2,,,,,,,,3,12,,,,,,,,,,,3,1.32,1,,,,,,0.126096491,-0.240679825,1,0,0,1.3199,Diorite_rect,1,0,1,0,1,
65c19735a918130b0aa9b3e4,TCR,2024-06-11_12h41.40.876,LearnStrategy,2023.2.3,Win32,59.88023952,7,2,3,,,,,,,,5,09,,,,,,,,,,,4,0.114,0,,,,,,0.375,-0.251096491,1,0,0,0.1136,Gabbro_rect,2,0,2,0,1,
65c19735a918130b0aa9b3e4,TCR,2024-06-11_12h41.40.876,LearnStrategy,2023.2.3,Win32,59.88023952,7,2,4,,,,,,,,6,10,,,,,,,,,,,8,0.17,0,,,,,,0.374451754,-0.416118421,1,0,0,0.1698,Pumice_rect,3,0,3,0,1,
65c19735a918130b0aa9b3e4,TCR,2024-06-11_12h41.40.876,LearnStrategy,2023.2.3,Win32,59.88023952,7,2,5,,,,,,,,4,10,,,,,,,,,,,7,0.115,0,,,,,,0.141995614,-0.401864035,1,0,0,0.1146,Peridotite_rect,4,0,4,0,1,
65c19735a918130b0aa9b3e4,TCR,2024-06-11_12h41.40.876,LearnStrategy,2023.2.3,Win32,59.88023952,7,2,6,,,,,,,,1,06,,,,,,,,,,,6,0.189,0,,,,,,-0.087719298,-0.398026316,1,0,0,0.1892,Pegmatite_rect,5,0,5,0,1,
65c19735a918130b0aa9b3e4,TCR,2024-06-11_12h41.40.876,LearnStrategy,2023.2.3,Win32,59.88023952,7,2,7,,,,,,,,1,07,,,,,,,,,,,5,0.881,0,,,,,,-0.398574561,-0.389254386,0,0,1,0.8811,Obsidian_rect,6,0,6,0,1,
65c19735a918130b0aa9b3e4,TCR,2024-06-11_12h41.40.876,LearnStrategy,2023.2.3,Win32,59.88023952,7,2,8,,,,,,,,4,11,,,,,,,,,,,1,0.948,0,,,,,,-0.414473684,-0.256578947,1,0,0,0.9479,Andesite_rect,7,0,7,0,1,
65c19735a918130b0aa9b3e4,TCR,2024-06-11_12h41.40.876,LearnStrategy,2023.2.3,Win32,59.88023952,7,2,9,,,,,,,,6,06,,,,,,,,,,,5,0.268,0,,,,,,-0.371162281,-0.390899123,1,0,0,0.2677,Obsidian_rect,8,0,8,0,1,
65c19735a918130b0aa9b3e4,TCR,2024-06-11_12h41.40.876,LearnStrategy,2023.2.3,Win32,59.88023952,7,2,10,,,,,,,,2,09,,,,,,,,,,,6,0.123,0,,,,,,-0.135416667,-0.396381579,1,0,0,0.1228,Pegmatite_rect,9,0,9,0,1,
65c19735a918130b0aa9b3e4,TCR,2024-06-11_12h41.40.876,LearnStrategy,2023.2.3,Win32,59.88023952,7,2,11,,,,,,,,8,04,,,,,,,,,,,2,0.124,0,,,,,,-0.139254386,-0.261513158,1,0,0,0.1242,Basalt_rect,10,0,10,0,1,
65c19735a918130b0aa9b3e4,TCR,2024-06-11_12h41.40.876,LearnStrategy,2023.2.3,Win32,59.88023952,7,2,12,,,,,,,,3,15,,,,,,,,,,,3,0.102,1,,,,,,0.080592105,-0.260964912,1,0,0,0.1022,Diorite_rect,11,0,11,0,1,
65c19735a918130b0aa9b3e4,TCR,2024-06-11_12h41.40.876,LearnStrategy,2023.2.3,Win32,59.88023952,7,2,13,,,,,,,,7,04,,,,,,,,,,,7,0.1,1,,,,,,0.150219298,-0.410087719,1,0,0,0.1002,Peridotite_rect,12,0,12,0,1,
65c19735a918130b0aa9b3e4,TCR,2024-06-11_12h41.40.876,LearnStrategy,2023.2.3,Win32,59.88023952,7,2,14,,,,,,,,7,02,,,,,,,,,,,8,0.144,0,,,,,,0.353618421,-0.396381579,1,0,0,0.1444,Pumice_rect,13,0,13,0,1,
65c19735a918130b0aa9b3e4,TCR,2024-06-11_12h41.40.876,LearnStrategy,2023.2.3,Win32,59.88023952,7,2,15,,,,,,,,8,14,,,,,,,,,,,4,0.124,0,,,,,,0.356907895,-0.253289474,1,0,0,0.1244,Gabbro_rect,14,0,14,0,1,
65c19735a918130b0aa9b3e4,TCR,2024-06-11_12h41.40.876,LearnStrategy,2023.2.3,Win32,59.88023952,7,2,16,,,,,,,,2,16,,,,,,,,,,,3,0.144,0,,,,,,0.150767544,-0.242324561,1,0,0,0.1438,Diorite_rect,15,0,15,0,1,
65c19735a918130b0aa9b3e4,TCR,2024-06-11_12h41.40.876,LearnStrategy,2023.2.3,Win32,59.88023952,8,1,1,0.033991228,0.009868421,1,0,0,0.9318,rock_grid_rect_2,5,06,-1,-1,0.932,0.128289474,-0.271929825,1,0,0,0.5978,Diorite_rect,3,0.598,0,0,0,0,0,1,,,,,,,,,,,,,
65c19735a918130b0aa9b3e4,TCR,2024-06-11_12h41.40.876,LearnStrategy,2023.2.3,Win32,59.88023952,8,1,2,0.09375,-0.005482456,1,0,0,1.4949,rock_grid_rect_2,1,03,-1,-1,1.495,0.394736842,-0.25877193,1,0,0,0.6431,Gabbro_rect,4,0.643,0,1,0,1,0,1,,,,,,,,,,,,,
65c19735a918130b0aa9b3e4,TCR,2024-06-11_12h41.40.876,LearnStrategy,2023.2.3,Win32,59.88023952,8,1,3,0.041666667,0.015350877,1,0,0,0.8202,rock_grid_rect_2,6,03,-1,-1,0.82,0.377741228,-0.411732456,1,0,0,0.6911,Pumice_rect,8,0.691,0,2,0,2,0,1,,,,,,,,,,,,,
65c19735a918130b0aa9b3e4,TCR,2024-06-11_12h41.40.876,LearnStrategy,2023.2.3,Win32,59.88023952,8,1,4,0.014254386,-0.01754386,1,0,0,0.7032,rock_grid_rect_2,8,08,-1,-1,0.703,0.137609649,-0.410635965,1,0,0,1.2047,Peridotite_rect,7,1.205,0,3,0,3,0,1,,,,,,,,,,,,,
65c19735a918130b0aa9b3e4,TCR,2024-06-11_12h41.40.876,LearnStrategy,2023.2.3,Win32,59.88023952,8,1,5,0.060307018,0.003289474,1,0,0,0.855,rock_grid_rect_2,1,11,-1,-1,0.855,-0.065789474,-0.250548246,1,0,0,0.8375,Basalt_rect,2,0.838,0,4,0,4,0,1,,,,,,,,,,,,,
65c19735a918130b0aa9b3e4,TCR,2024-06-11_12h41.40.876,LearnStrategy,2023.2.3,Win32,59.88023952,8,1,6,-0.072368421,-0.001644737,1,0,0,0.9219,rock_grid_rect_2,2,05,-1,-1,0.922,-0.394188596,-0.269736842,1,0,0,0.6073,Andesite_rect,1,0.607,0,5,0,5,0,1,,,,,,,,,,,,,
65c19735a918130b0aa9b3e4,TCR,2024-06-11_12h41.40.876,LearnStrategy,2023.2.3,Win32,59.88023952,8,1,7,-0.027412281,-0.00877193,1,0,0,0.7967,rock_grid_rect_2,4,12,-1,-1,0.797,-0.389802632,-0.401864035,1,0,0,0.8201,Obsidian_rect,5,0.82,0,6,0,6,0,1,,,,,,,,,,,,,
65c19735a918130b0aa9b3e4,TCR,2024-06-11_12h41.40.876,LearnStrategy,2023.2.3,Win32,59.88023952,8,1,8,-0.019188596,0.002192982,1,0,0,0.6968,rock_grid_rect_2,5,11,-1,-1,0.697,-0.146929825,-0.242872807,1,0,0,0.991,Basalt_rect,2,0.991,0,7,0,7,0,1,,,,,,,,,,,,,
65c19735a918130b0aa9b3e4,TCR,2024-06-11_12h41.40.876,LearnStrategy,2023.2.3,Win32,59.88023952,8,1,9,-0.01754386,-0.014254386,1,0,0,1.0943,rock_grid_rect_2,7,14,-1,-1,1.094,-0.069078947,-0.395285088,1,0,0,0.6294,Pegmatite_rect,6,0.629,0,8,0,8,0,1,,,,,,,,,,,,,
65c19735a918130b0aa9b3e4,TCR,2024-06-11_12h41.40.876,LearnStrategy,2023.2.3,Win32,59.88023952,8,1,10,-0.009320175,-0.012061404,1,0,0,0.9339,rock_grid_rect_2,7,12,-1,-1,0.934,0.101973684,-0.235197368,1,0,0,0.5453,Diorite_rect,3,0.545,0,9,0,9,0,1,,,,,,,,,,,,,
65c19735a918130b0aa9b3e4,TCR,2024-06-11_12h41.40.876,LearnStrategy,2023.2.3,Win32,59.88023952,8,1,11,0.009320175,-0.009320175,1,0,0,0.6623,rock_grid_rect_2,1,03,-1,-1,0.662,0.193530702,-0.421052632,1,0,0,0.6308,Peridotite_rect,7,0.631,0,10,0,10,0,1,,,,,,,,,,,,,
65c19735a918130b0aa9b3e4,TCR,2024-06-11_12h41.40.876,LearnStrategy,2023.2.3,Win32,59.88023952,8,1,12,0.052631579,-0.018092105,1,0,0,0.7219,rock_grid_rect_2,2,11,-1,-1,0.722,0.399671053,-0.254385965,1,0,0,0.6011,Gabbro_rect,4,0.601,0,11,0,11,0,1,,,,,,,,,,,,,
65c19735a918130b0aa9b3e4,TCR,2024-06-11_12h41.40.876,LearnStrategy,2023.2.3,Win32,59.88023952,8,1,13,0.026315789,0.018092105,1,0,0,0.6593,rock_grid_rect_2,6,11,-1,-1,0.659,-0.096491228,-0.262061404,1,0,0,0.8479,Basalt_rect,2,0.848,0,12,0,12,0,1,,,,,,,,,,,,,
65c19735a918130b0aa9b3e4,TCR,2024-06-11_12h41.40.876,LearnStrategy,2023.2.3,Win32,59.88023952,8,1,14,-0.014802632,-0.01370614,1,0,0,0.6208,rock_grid_rect_2,4,13,-1,-1,0.621,0.116776316,-0.257675439,1,0,0,0.5654,Diorite_rect,3,0.565,0,13,0,13,0,1,,,,,,,,,,,,,
65c19735a918130b0aa9b3e4,TCR,2024-06-11_12h41.40.876,LearnStrategy,2023.2.3,Win32,59.88023952,8,1,15,-0.007675439,-0.001644737,1,0,0,0.7218,rock_grid_rect_2,3,10,-1,-1,0.722,0.14747807,-0.268092105,1,0,0,0.5613,Diorite_rect,3,0.561,1,14,0,14,0,1,,,,,,,,,,,,,
65c19735a918130b0aa9b3e4,TCR,2024-06-11_12h41.40.876,LearnStrategy,2023.2.3,Win32,59.88023952,8,1,16,0.029605263,0.006030702,1,0,0,0.6668,rock_grid_rect_2,8,06,-1,-1,0.667,0.346491228,-0.251096491,1,0,0,0.6295,Gabbro_rect,4,0.63,0,15,0,15,0,1,,,,,,,,,,,,,
65c19735a918130b0aa9b3e4,TCR,2024-06-11_12h41.40.876,LearnStrategy,2023.2.3,Win32,59.88023952,8,2,1,,,,,,,,2,10,,,,,,,,,,,3,0.743,0,,,,,,0.11129386,-0.237390351,1,0,0,0.7431,Diorite_rect,0,0,0,0,1,
65c19735a918130b0aa9b3e4,TCR,2024-06-11_12h41.40.876,LearnStrategy,2023.2.3,Win32,59.88023952,8,2,2,,,,,,,,6,08,,,,,,,,,,,2,0.188,0,,,,,,-0.111842105,-0.250548246,1,0,0,0.1881,Basalt_rect,1,0,1,0,1,
65c19735a918130b0aa9b3e4,TCR,2024-06-11_12h41.40.876,LearnStrategy,2023.2.3,Win32,59.88023952,8,2,3,,,,,,,,2,01,,,,,,,,,,,1,0.083,0,,,,,,-0.362938596,-0.260416667,1,0,0,0.0834,Andesite_rect,2,0,2,0,1,
65c19735a918130b0aa9b3e4,TCR,2024-06-11_12h41.40.876,LearnStrategy,2023.2.3,Win32,59.88023952,8,2,4,,,,,,,,6,16,,,,,,,,,,,6,0.11,1,,,,,,-0.158991228,-0.419407895,1,0,0,0.1104,Pegmatite_rect,3,0,3,0,1,
65c19735a918130b0aa9b3e4,TCR,2024-06-11_12h41.40.876,LearnStrategy,2023.2.3,Win32,59.88023952,8,2,5,,,,,,,,5,16,,,,,,,,,,,5,0.068,1,,,,,,-0.405701754,-0.408991228,1,0,0,0.0678,Obsidian_rect,4,0,4,0,1,
65c19735a918130b0aa9b3e4,TCR,2024-06-11_12h41.40.876,LearnStrategy,2023.2.3,Win32,59.88023952,8,2,6,,,,,,,,1,02,,,,,,,,,,,7,0.1,0,,,,,,0.11129386,-0.395285088,1,0,0,0.1001,Peridotite_rect,5,0,5,0,1,
65c19735a918130b0aa9b3e4,TCR,2024-06-11_12h41.40.876,LearnStrategy,2023.2.3,Win32,59.88023952,8,2,7,,,,,,,,1,16,,,,,,,,,,,3,0.157,0,,,,,,0.117324561,-0.234649123,1,0,0,0.1571,Diorite_rect,6,0,6,0,1,
65c19735a918130b0aa9b3e4,TCR,2024-06-11_12h41.40.876,LearnStrategy,2023.2.3,Win32,59.88023952,8,2,8,,,,,,,,3,09,,,,,,,,,,,4,0.055,0,,,,,,0.393640351,-0.250548246,1,0,0,0.0553,Gabbro_rect,7,0,7,0,1,
65c19735a918130b0aa9b3e4,TCR,2024-06-11_12h41.40.876,LearnStrategy,2023.2.3,Win32,59.88023952,8,2,9,,,,,,,,8,10,,,,,,,,,,,8,0.157,1,,,,,,0.421052632,-0.412280702,1,0,0,0.1565,Pumice_rect,8,0,8,0,1,
65c19735a918130b0aa9b3e4,TCR,2024-06-11_12h41.40.876,LearnStrategy,2023.2.3,Win32,59.88023952,8,2,10,,,,,,,,4,08,,,,,,,,,,,7,0.143,0,,,,,,0.174890351,-0.419407895,1,0,0,0.1431,Peridotite_rect,9,0,9,0,1,
65c19735a918130b0aa9b3e4,TCR,2024-06-11_12h41.40.876,LearnStrategy,2023.2.3,Win32,59.88023952,8,2,11,,,,,,,,3,14,,,,,,,,,,,8,0.104,0,,,,,,0.347587719,-0.393640351,1,0,0,0.1041,Pumice_rect,10,0,10,0,1,
65c19735a918130b0aa9b3e4,TCR,2024-06-11_12h41.40.876,LearnStrategy,2023.2.3,Win32,59.88023952,8,2,12,,,,,,,,5,02,,,,,,,,,,,4,0.7,0,,,,,,0.358552632,-0.235197368,1,0,0,0.6997,Gabbro_rect,11,0,11,0,1,
65c19735a918130b0aa9b3e4,TCR,2024-06-11_12h41.40.876,LearnStrategy,2023.2.3,Win32,59.88023952,8,2,13,,,,,,,,8,03,,,,,,,,,,,3,0.097,0,,,,,,0.150219298,-0.251096491,1,0,0,0.0966,Diorite_rect,12,0,12,0,1,
65c19735a918130b0aa9b3e4,TCR,2024-06-11_12h41.40.876,LearnStrategy,2023.2.3,Win32,59.88023952,8,2,14,,,,,,,,4,05,,,,,,,,,,,2,0.594,0,,,,,,-0.141447368,-0.248903509,1,0,0,0.5943,Basalt_rect,13,0,13,0,1,
65c19735a918130b0aa9b3e4,TCR,2024-06-11_12h41.40.876,LearnStrategy,2023.2.3,Win32,59.88023952,8,2,15,,,,,,,,7,16,,,,,,,,,,,1,0.067,0,,,,,,-0.362938596,-0.244517544,1,0,0,0.0675,Andesite_rect,14,0,14,0,1,
65c19735a918130b0aa9b3e4,TCR,2024-06-11_12h41.40.876,LearnStrategy,2023.2.3,Win32,59.88023952,8,2,16,,,,,,,,7,07,,,,,,,,,,,5,0.166,0,,,,,,-0.332785088,-0.404605263,1,0,0,0.1657,Obsidian_rect,15,0,15,0,1,
65c19735a918130b0aa9b3e4,TCR,2024-06-11_12h41.40.876,LearnStrategy,2023.2.3,Win32,59.88023952,9,1,1,0.065241228,-0.015899123,1,0,0,0.7349,rock_grid_rect_2,4,12,-1,-1,0.735,0.095942982,-0.262609649,1,0,0,1.0944,Diorite_rect,3,1.094,0,0,0,0,0,1,,,,,,,,,,,,,
65c19735a918130b0aa9b3e4,TCR,2024-06-11_12h41.40.876,LearnStrategy,2023.2.3,Win32,59.88023952,9,1,2,-0.054276316,-0.014802632,1,0,0,0.8607,rock_grid_rect_2,3,16,-1,-1,0.861,0.338815789,-0.233004386,1,0,0,0.5922,Gabbro_rect,4,0.592,0,1,0,1,0,1,,,,,,,,,,,,,
65c19735a918130b0aa9b3e4,TCR,2024-06-11_12h41.40.876,LearnStrategy,2023.2.3,Win32,59.88023952,9,1,3,0.023574561,-0.003289474,1,0,0,0.8777,rock_grid_rect_2,8,16,-1,-1,0.878,-0.056469298,-0.253837719,1,0,0,0.5595,Basalt_rect,2,0.559,0,2,0,2,0,1,,,,,,,,,,,,,
65c19735a918130b0aa9b3e4,TCR,2024-06-11_12h41.40.876,LearnStrategy,2023.2.3,Win32,59.88023952,9,1,4,0.080592105,0.003837719,1,0,0,1.3641,rock_grid_rect_2,5,06,-1,-1,1.364,0.146381579,-0.253289474,1,0,0,0.5515,Diorite_rect,3,0.552,0,3,0,3,0,1,,,,,,,,,,,,,
65c19735a918130b0aa9b3e4,TCR,2024-06-11_12h41.40.876,LearnStrategy,2023.2.3,Win32,59.88023952,9,1,5,0.039473684,0.000548246,1,0,0,0.9034,rock_grid_rect_2,1,05,-1,-1,0.903,0.103070175,-0.404605263,1,0,0,2.5485,Peridotite_rect,7,2.548,0,4,0,4,0,1,,,,,,,,,,,,,
65c19735a918130b0aa9b3e4,TCR,2024-06-11_12h41.40.876,LearnStrategy,2023.2.3,Win32,59.88023952,9,1,6,0.003837719,-0.009320175,1,0,0,0.9893,rock_grid_rect_2,3,16,-1,-1,0.989,0.197368421,-0.248903509,1,0,0,0.6526,Diorite_rect,3,0.653,1,5,0,5,0,1,,,,,,,,,,,,,
65c19735a918130b0aa9b3e4,TCR,2024-06-11_12h41.40.876,LearnStrategy,2023.2.3,Win32,59.88023952,9,1,7,-0.015899123,-0.012609649,1,0,0,0.8793,rock_grid_rect_2,5,10,-1,-1,0.879,0.35252193,-0.256578947,1,0,0,0.5562,Gabbro_rect,4,0.556,0,6,0,6,0,1,,,,,,,,,,,,,
65c19735a918130b0aa9b3e4,TCR,2024-06-11_12h41.40.876,LearnStrategy,2023.2.3,Win32,59.88023952,9,1,8,0.027412281,-0.020833333,1,0,0,0.8741,rock_grid_rect_2,8,15,-1,-1,0.874,0.384868421,-0.388157895,1,0,0,0.7647,Pumice_rect,8,0.765,1,7,0,7,0,1,,,,,,,,,,,,,
65c19735a918130b0aa9b3e4,TCR,2024-06-11_12h41.40.876,LearnStrategy,2023.2.3,Win32,59.88023952,9,1,9,-0.018640351,-0.014802632,1,0,0,0.7554,rock_grid_rect_2,6,09,-1,-1,0.755,-0.082236842,-0.233004386,1,0,0,0.4932,Basalt_rect,2,0.493,0,8,0,8,0,1,,,,,,,,,,,,,
65c19735a918130b0aa9b3e4,TCR,2024-06-11_12h41.40.876,LearnStrategy,2023.2.3,Win32,59.88023952,9,1,10,-0.073464912,0.003837719,1,0,0,1.0022,rock_grid_rect_2,2,08,-1,-1,1.002,-0.375548246,-0.256030702,1,0,0,0.587,Andesite_rect,1,0.587,0,9,0,9,0,1,,,,,,,,,,,,,
65c19735a918130b0aa9b3e4,TCR,2024-06-11_12h41.40.876,LearnStrategy,2023.2.3,Win32,59.88023952,9,1,11,-0.089364035,0.011513158,1,0,0,1.262,rock_grid_rect_2,2,11,-1,-1,1.262,-0.376644737,-0.402412281,1,0,0,1.3403,Obsidian_rect,5,1.34,0,10,0,10,0,1,,,,,,,,,,,,,
65c19735a918130b0aa9b3e4,TCR,2024-06-11_12h41.40.876,LearnStrategy,2023.2.3,Win32,59.88023952,9,1,12,-0.006578947,-0.007675439,1,0,0,0.9243,rock_grid_rect_2,7,14,-1,-1,0.924,-0.118969298,-0.242872807,1,0,0,0.6138,Basalt_rect,2,0.614,0,11,0,11,0,1,,,,,,,,,,,,,
65c19735a918130b0aa9b3e4,TCR,2024-06-11_12h41.40.876,LearnStrategy,2023.2.3,Win32,59.88023952,9,1,13,-0.003289474,-0.020285088,1,0,0,0.9497,rock_grid_rect_2,6,03,-1,-1,0.95,-0.08497807,-0.378837719,1,0,0,0.6064,Pegmatite_rect,6,0.606,1,12,0,12,0,1,,,,,,,,,,,,,
65c19735a918130b0aa9b3e4,TCR,2024-06-11_12h41.40.876,LearnStrategy,2023.2.3,Win32,59.88023952,9,1,14,0.015350877,-0.007127193,1,0,0,0.855,rock_grid_rect_2,7,05,-1,-1,0.855,0.108004386,-0.245065789,1,0,0,1.6226,Diorite_rect,3,1.623,0,13,0,13,0,1,,,,,,,,,,,,,
65c19735a918130b0aa9b3e4,TCR,2024-06-11_12h41.40.876,LearnStrategy,2023.2.3,Win32,59.88023952,9,1,15,0.04495614,-0.016995614,1,0,0,0.7135,rock_grid_rect_2,4,14,-1,-1,0.714,0.114583333,-0.39254386,1,0,0,1.1153,Peridotite_rect,7,1.115,0,14,0,14,0,1,,,,,,,,,,,,,
65c19735a918130b0aa9b3e4,TCR,2024-06-11_12h41.40.876,LearnStrategy,2023.2.3,Win32,59.88023952,9,1,16,0.012609649,-0.009868421,1,0,0,0.7492,rock_grid_rect_2,1,11,-1,-1,0.749,0.163377193,-0.26370614,1,0,0,0.5546,Diorite_rect,3,0.555,0,15,0,15,0,1,,,,,,,,,,,,,
65c19735a918130b0aa9b3e4,TCR,2024-06-11_12h41.40.876,LearnStrategy,2023.2.3,Win32,59.88023952,9,2,1,,,,,,,,6,05,,,,,,,,,,,3,0.549,0,,,,,,0.114583333,-0.240131579,1,0,0,0.5492,Diorite_rect,0,0,0,0,1,
65c19735a918130b0aa9b3e4,TCR,2024-06-11_12h41.40.876,LearnStrategy,2023.2.3,Win32,59.88023952,9,2,2,,,,,,,,1,10,,,,,,,,,,,4,0.075,0,,,,,,0.361842105,-0.265899123,1,0,0,0.0751,Gabbro_rect,1,0,1,0,1,
65c19735a918130b0aa9b3e4,TCR,2024-06-11_12h41.40.876,LearnStrategy,2023.2.3,Win32,59.88023952,9,2,3,,,,,,,,5,04,,,,,,,,,,,8,0.177,0,,,,,,0.353618421,-0.402960526,1,0,0,0.1768,Pumice_rect,2,0,2,0,1,
65c19735a918130b0aa9b3e4,TCR,2024-06-11_12h41.40.876,LearnStrategy,2023.2.3,Win32,59.88023952,9,2,4,,,,,,,,4,15,,,,,,,,,,,7,0.066,0,,,,,,0.139802632,-0.413377193,1,0,0,0.0664,Peridotite_rect,3,0,3,0,1,
65c19735a918130b0aa9b3e4,TCR,2024-06-11_12h41.40.876,LearnStrategy,2023.2.3,Win32,59.88023952,9,2,5,,,,,,,,3,13,,,,,,,,,,,6,0.639,0,,,,,,-0.139254386,-0.390350877,1,0,0,0.6387,Pegmatite_rect,4,0,4,0,1,
65c19735a918130b0aa9b3e4,TCR,2024-06-11_12h41.40.876,LearnStrategy,2023.2.3,Win32,59.88023952,9,2,6,,,,,,,,4,03,,,,,,,,,,,2,0.133,0,,,,,,-0.118421053,-0.262061404,1,0,0,0.1326,Basalt_rect,5,0,5,0,1,
65c19735a918130b0aa9b3e4,TCR,2024-06-11_12h41.40.876,LearnStrategy,2023.2.3,Win32,59.88023952,9,2,7,,,,,,,,2,04,,,,,,,,,,,1,1.792,0,,,,,,-0.349232456,-0.241776316,1,0,0,1.792,Andesite_rect,6,0,6,0,1,
65c19735a918130b0aa9b3e4,TCR,2024-06-11_12h41.40.876,LearnStrategy,2023.2.3,Win32,59.88023952,9,2,8,,,,,,,,8,02,,,,,,,,,,,5,0.174,0,,,,,,-0.336074561,-0.385964912,1,0,0,0.1739,Obsidian_rect,7,0,7,0,1,
65c19735a918130b0aa9b3e4,TCR,2024-06-11_12h41.40.876,LearnStrategy,2023.2.3,Win32,59.88023952,9,2,9,,,,,,,,2,12,,,,,,,,,,,5,0.029,0,,,,,,-0.336074561,-0.385964912,1,0,0,0.0289,Obsidian_rect,8,0,8,0,1,
65c19735a918130b0aa9b3e4,TCR,2024-06-11_12h41.40.876,LearnStrategy,2023.2.3,Win32,59.88023952,9,2,10,,,,,,,,3,02,,,,,,,,,,,6,0.063,0,,,,,,-0.153508772,-0.384868421,1,0,0,0.0626,Pegmatite_rect,9,0,9,0,1,
65c19735a918130b0aa9b3e4,TCR,2024-06-11_12h41.40.876,LearnStrategy,2023.2.3,Win32,59.88023952,9,2,11,,,,,,,,7,10,,,,,,,,,,,7,0.753,1,,,,,,0.144736842,-0.411732456,1,0,0,0.7534,Peridotite_rect,10,0,10,0,1,
65c19735a918130b0aa9b3e4,TCR,2024-06-11_12h41.40.876,LearnStrategy,2023.2.3,Win32,59.88023952,9,2,12,,,,,,,,8,13,,,,,,,,,,,8,0.174,1,,,,,,0.381578947,-0.389254386,1,0,0,0.1744,Pumice_rect,11,0,11,0,1,
65c19735a918130b0aa9b3e4,TCR,2024-06-11_12h41.40.876,LearnStrategy,2023.2.3,Win32,59.88023952,9,2,13,,,,,,,,7,13,,,,,,,,,,,4,0.151,0,,,,,,0.382127193,-0.229714912,1,0,0,0.151,Gabbro_rect,12,0,12,0,1,
65c19735a918130b0aa9b3e4,TCR,2024-06-11_12h41.40.876,LearnStrategy,2023.2.3,Win32,59.88023952,9,2,14,,,,,,,,1,14,,,,,,,,,,,3,0.136,0,,,,,,0.198464912,-0.259868421,1,0,0,0.1359,Diorite_rect,13,0,13,0,1,
65c19735a918130b0aa9b3e4,TCR,2024-06-11_12h41.40.876,LearnStrategy,2023.2.3,Win32,59.88023952,9,2,15,,,,,,,,5,05,,,,,,,,,,,4,0.083,0,,,,,,0.386513158,-0.261513158,1,0,0,0.0829,Gabbro_rect,14,0,14,0,1,
65c19735a918130b0aa9b3e4,TCR,2024-06-11_12h41.40.876,LearnStrategy,2023.2.3,Win32,59.88023952,9,2,16,,,,,,,,6,07,,,,,,,,,,,2,0.15,0,,,,,,-0.09375,-0.252192982,1,0,0,0.1501,Basalt_rect,15,0,15,0,1,
65c19735a918130b0aa9b3e4,TCR,2024-06-11_12h41.40.876,LearnStrategy,2023.2.3,Win32,59.88023952,,,,,,,,,,,,,,,,,,,,,,,,,,,,,,,,,,,,,,,,,,,0
65c19735a918130b0aa9b3e4,TCR,2024-06-11_12h41.40.876,LearnStrategy,2023.2.3,Win32,59.88023952,,,,,,,,,,,,,,,,,,,,,,,,,,,,,,,,,,,,,,,,,,,
65c19735a918130b0aa9b3e4,TCR,2024-06-11_12h41.40.876,LearnStrategy,2023.2.3,Win32,59.88023952,,,,,,,,,,,1,05,1,1,,,,,,,,,,,,,,,,,,,,,,,,,,,,,
65c19735a918130b0aa9b3e4,TCR,2024-06-11_12h41.40.876,LearnStrategy,2023.2.3,Win32,59.88023952,,,,,,,,,,,8,08,1,2,,,,,,,,,,,,,,,,,,,,,,,,,,,,,
65c19735a918130b0aa9b3e4,TCR,2024-06-11_12h41.40.876,LearnStrategy,2023.2.3,Win32,59.88023952,,,,,,,,,,,3,08,1,3,,,,,,,,,,,,,,,,,,,,,,,,,,,,,
65c19735a918130b0aa9b3e4,TCR,2024-06-11_12h41.40.876,LearnStrategy,2023.2.3,Win32,59.88023952,,,,,,,,,,,2,08,1,4,,,,,,,,,,,,,,,,,,,,,,,,,,,,,
65c19735a918130b0aa9b3e4,TCR,2024-06-11_12h41.40.876,LearnStrategy,2023.2.3,Win32,59.88023952,,,,,,,,,,,2,06,1,5,,,,,,,,,,,,,,,,,,,,,,,,,,,,,
65c19735a918130b0aa9b3e4,TCR,2024-06-11_12h41.40.876,LearnStrategy,2023.2.3,Win32,59.88023952,,,,,,,,,,,3,06,1,6,,,,,,,,,,,,,,,,,,,,,,,,,,,,,
65c19735a918130b0aa9b3e4,TCR,2024-06-11_12h41.40.876,LearnStrategy,2023.2.3,Win32,59.88023952,,,,,,,,,,,3,10,1,7,,,,,,,,,,,,,,,,,,,,,,,,,,,,,
65c19735a918130b0aa9b3e4,TCR,2024-06-11_12h41.40.876,LearnStrategy,2023.2.3,Win32,59.88023952,,,,,,,,,,,5,14,1,8,,,,,,,,,,,,,,,,,,,,,,,,,,,,,
65c19735a918130b0aa9b3e4,TCR,2024-06-11_12h41.40.876,LearnStrategy,2023.2.3,Win32,59.88023952,,,,,,,,,,,4,16,2,1,,,,,,,,,,,,,,,,,,,,,,,,,,,,,
65c19735a918130b0aa9b3e4,TCR,2024-06-11_12h41.40.876,LearnStrategy,2023.2.3,Win32,59.88023952,,,,,,,,,,,4,09,2,2,,,,,,,,,,,,,,,,,,,,,,,,,,,,,
65c19735a918130b0aa9b3e4,TCR,2024-06-11_12h41.40.876,LearnStrategy,2023.2.3,Win32,59.88023952,,,,,,,,,,,5,06,2,3,,,,,,,,,,,,,,,,,,,,,,,,,,,,,
65c19735a918130b0aa9b3e4,TCR,2024-06-11_12h41.40.876,LearnStrategy,2023.2.3,Win32,59.88023952,,,,,,,,,,,7,14,2,4,,,,,,,,,,,,,,,,,,,,,,,,,,,,,
65c19735a918130b0aa9b3e4,TCR,2024-06-11_12h41.40.876,LearnStrategy,2023.2.3,Win32,59.88023952,,,,,,,,,,,8,16,2,5,,,,,,,,,,,,,,,,,,,,,,,,,,,,,
65c19735a918130b0aa9b3e4,TCR,2024-06-11_12h41.40.876,LearnStrategy,2023.2.3,Win32,59.88023952,,,,,,,,,,,2,05,2,6,,,,,,,,,,,,,,,,,,,,,,,,,,,,,
65c19735a918130b0aa9b3e4,TCR,2024-06-11_12h41.40.876,LearnStrategy,2023.2.3,Win32,59.88023952,,,,,,,,,,,7,12,2,7,,,,,,,,,,,,,,,,,,,,,,,,,,,,,
65c19735a918130b0aa9b3e4,TCR,2024-06-11_12h41.40.876,LearnStrategy,2023.2.3,Win32,59.88023952,,,,,,,,,,,3,16,2,8,,,,,,,,,,,,,,,,,,,,,,,,,,,,,
65c19735a918130b0aa9b3e4,TCR,2024-06-11_12h41.40.876,LearnStrategy,2023.2.3,Win32,59.88023952,,,,,,,,,,,1,04,3,1,,,,,,,,,,,,,,,,,,,,,,,,,,,,,
65c19735a918130b0aa9b3e4,TCR,2024-06-11_12h41.40.876,LearnStrategy,2023.2.3,Win32,59.88023952,,,,,,,,,,,6,11,3,2,,,,,,,,,,,,,,,,,,,,,,,,,,,,,
65c19735a918130b0aa9b3e4,TCR,2024-06-11_12h41.40.876,LearnStrategy,2023.2.3,Win32,59.88023952,,,,,,,,,,,5,11,3,3,,,,,,,,,,,,,,,,,,,,,,,,,,,,,
65c19735a918130b0aa9b3e4,TCR,2024-06-11_12h41.40.876,LearnStrategy,2023.2.3,Win32,59.88023952,,,,,,,,,,,2,14,3,4,,,,,,,,,,,,,,,,,,,,,,,,,,,,,
65c19735a918130b0aa9b3e4,TCR,2024-06-11_12h41.40.876,LearnStrategy,2023.2.3,Win32,59.88023952,,,,,,,,,,,6,13,3,5,,,,,,,,,,,,,,,,,,,,,,,,,,,,,
65c19735a918130b0aa9b3e4,TCR,2024-06-11_12h41.40.876,LearnStrategy,2023.2.3,Win32,59.88023952,,,,,,,,,,,4,14,3,6,,,,,,,,,,,,,,,,,,,,,,,,,,,,,
65c19735a918130b0aa9b3e4,TCR,2024-06-11_12h41.40.876,LearnStrategy,2023.2.3,Win32,59.88023952,,,,,,,,,,,5,08,3,7,,,,,,,,,,,,,,,,,,,,,,,,,,,,,
65c19735a918130b0aa9b3e4,TCR,2024-06-11_12h41.40.876,LearnStrategy,2023.2.3,Win32,59.88023952,,,,,,,,,,,8,06,3,8,,,,,,,,,,,,,,,,,,,,,,,,,,,,,
65c19735a918130b0aa9b3e4,TCR,2024-06-11_12h41.40.876,LearnStrategy,2023.2.3,Win32,59.88023952,,,,,,,,,,,1,03,4,1,,,,,,,,,,,,,,,,,,,,,,,,,,,,,
65c19735a918130b0aa9b3e4,TCR,2024-06-11_12h41.40.876,LearnStrategy,2023.2.3,Win32,59.88023952,,,,,,,,,,,4,12,4,2,,,,,,,,,,,,,,,,,,,,,,,,,,,,,
65c19735a918130b0aa9b3e4,TCR,2024-06-11_12h41.40.876,LearnStrategy,2023.2.3,Win32,59.88023952,,,,,,,,,,,6,03,4,3,,,,,,,,,,,,,,,,,,,,,,,,,,,,,
65c19735a918130b0aa9b3e4,TCR,2024-06-11_12h41.40.876,LearnStrategy,2023.2.3,Win32,59.88023952,,,,,,,,,,,8,09,4,4,,,,,,,,,,,,,,,,,,,,,,,,,,,,,
65c19735a918130b0aa9b3e4,TCR,2024-06-11_12h41.40.876,LearnStrategy,2023.2.3,Win32,59.88023952,,,,,,,,,,,3,11,4,5,,,,,,,,,,,,,,,,,,,,,,,,,,,,,
65c19735a918130b0aa9b3e4,TCR,2024-06-11_12h41.40.876,LearnStrategy,2023.2.3,Win32,59.88023952,,,,,,,,,,,1,09,4,6,,,,,,,,,,,,,,,,,,,,,,,,,,,,,
65c19735a918130b0aa9b3e4,TCR,2024-06-11_12h41.40.876,LearnStrategy,2023.2.3,Win32,59.88023952,,,,,,,,,,,2,02,4,7,,,,,,,,,,,,,,,,,,,,,,,,,,,,,
65c19735a918130b0aa9b3e4,TCR,2024-06-11_12h41.40.876,LearnStrategy,2023.2.3,Win32,59.88023952,,,,,,,,,,,6,12,4,8,,,,,,,,,,,,,,,,,,,,,,,,,,,,,
65c19735a918130b0aa9b3e4,TCR,2024-06-11_12h41.40.876,LearnStrategy,2023.2.3,Win32,59.88023952,,,,,,,,,,,5,07,5,1,,,,,,,,,,,,,,,,,,,,,,,,,,,,,
65c19735a918130b0aa9b3e4,TCR,2024-06-11_12h41.40.876,LearnStrategy,2023.2.3,Win32,59.88023952,,,,,,,,,,,7,08,5,2,,,,,,,,,,,,,,,,,,,,,,,,,,,,,
65c19735a918130b0aa9b3e4,TCR,2024-06-11_12h41.40.876,LearnStrategy,2023.2.3,Win32,59.88023952,,,,,,,,,,,7,06,5,3,,,,,,,,,,,,,,,,,,,,,,,,,,,,,
65c19735a918130b0aa9b3e4,TCR,2024-06-11_12h41.40.876,LearnStrategy,2023.2.3,Win32,59.88023952,,,,,,,,,,,8,05,5,4,,,,,,,,,,,,,,,,,,,,,,,,,,,,,
65c19735a918130b0aa9b3e4,TCR,2024-06-11_12h41.40.876,LearnStrategy,2023.2.3,Win32,59.88023952,,,,,,,,,,,4,13,5,5,,,,,,,,,,,,,,,,,,,,,,,,,,,,,
65c19735a918130b0aa9b3e4,TCR,2024-06-11_12h41.40.876,LearnStrategy,2023.2.3,Win32,59.88023952,,,,,,,,,,,2,11,5,6,,,,,,,,,,,,,,,,,,,,,,,,,,,,,
65c19735a918130b0aa9b3e4,TCR,2024-06-11_12h41.40.876,LearnStrategy,2023.2.3,Win32,59.88023952,,,,,,,,,,,7,05,5,7,,,,,,,,,,,,,,,,,,,,,,,,,,,,,
65c19735a918130b0aa9b3e4,TCR,2024-06-11_12h41.40.876,LearnStrategy,2023.2.3,Win32,59.88023952,,,,,,,,,,,3,07,5,8,,,,,,,,,,,,,,,,,,,,,,,,,,,,,
65c19735a918130b0aa9b3e4,TCR,2024-06-11_12h41.40.876,LearnStrategy,2023.2.3,Win32,59.88023952,,,,,,,,,,,7,15,6,1,,,,,,,,,,,,,,,,,,,,,,,,,,,,,
65c19735a918130b0aa9b3e4,TCR,2024-06-11_12h41.40.876,LearnStrategy,2023.2.3,Win32,59.88023952,,,,,,,,,,,6,09,6,2,,,,,,,,,,,,,,,,,,,,,,,,,,,,,
65c19735a918130b0aa9b3e4,TCR,2024-06-11_12h41.40.876,LearnStrategy,2023.2.3,Win32,59.88023952,,,,,,,,,,,5,10,6,3,,,,,,,,,,,,,,,,,,,,,,,,,,,,,
65c19735a918130b0aa9b3e4,TCR,2024-06-11_12h41.40.876,LearnStrategy,2023.2.3,Win32,59.88023952,,,,,,,,,,,4,01,6,4,,,,,,,,,,,,,,,,,,,,,,,,,,,,,
65c19735a918130b0aa9b3e4,TCR,2024-06-11_12h41.40.876,LearnStrategy,2023.2.3,Win32,59.88023952,,,,,,,,,,,8,15,6,5,,,,,,,,,,,,,,,,,,,,,,,,,,,,,
65c19735a918130b0aa9b3e4,TCR,2024-06-11_12h41.40.876,LearnStrategy,2023.2.3,Win32,59.88023952,,,,,,,,,,,1,01,6,6,,,,,,,,,,,,,,,,,,,,,,,,,,,,,
65c19735a918130b0aa9b3e4,TCR,2024-06-11_12h41.40.876,LearnStrategy,2023.2.3,Win32,59.88023952,,,,,,,,,,,1,11,6,7,,,,,,,,,,,,,,,,,,,,,,,,,,,,,
65c19735a918130b0aa9b3e4,TCR,2024-06-11_12h41.40.876,LearnStrategy,2023.2.3,Win32,59.88023952,,,,,,,,,,,6,15,6,8,,,,,,,,,,,,,,,,,,,,,,,,,,,,,