participant,condition,date,expName,psychopyVersion,OS,frameRate,block,phase,trial,learn_mouse.x,learn_mouse.y,learn_mouse.leftButton,learn_mouse.midButton,learn_mouse.rightButton,learn_mouse.time,learn_mouse.clicked_name,cat,token,row,col,t_select,cat_rec,token_rec,cat_mouse_l.x,cat_mouse_l.y,cat_mouse_l.leftButton,cat_mouse_l.midButton,cat_mouse_l.rightButton,cat_mouse_l.time,cat_mouse_l.clicked_name,resp,t_resp,corr,train_trials.thisRepN,train_trials.thisTrialN,train_trials.thisN,train_trials.thisIndex,train_trials.ran,cat_mouse_t.x,cat_mouse_t.y,cat_mouse_t.leftButton,cat_mouse_t.midButton,cat_mouse_t.rightButton,cat_mouse_t.time,cat_mouse_t.clicked_name,test_trials.thisRepN,test_trials.thisTrialN,test_trials.thisN,test_trials.thisIndex,test_trials.ran,Bonus
65c1512b51dc8b722a7fe306,SCR,2024-06-25_12h40.58.808,LearnStrategy,2023.2.3,Win32,59.52380952,,,,,,,,,,,,,,,,,,,,,,,,,,,,,,,,,,,,,,,,,,,,,
65c1512b51dc8b722a7fe306,SCR,2024-06-25_12h40.58.808,LearnStrategy,2023.2.3,Win32,59.52380952,1,1,1,0.354166718,0.09,1,0,0,3.7094,Obsidian_02,5,02,4,7,3.709,5,02,0.0925,-0.245833359,1,0,0,5.2665,Diorite_rect,3,5.267,0,0,0,0,0,1,,,,,,,,,,,,,
65c1512b51dc8b722a7fe306,SCR,2024-06-25_12h40.58.808,LearnStrategy,2023.2.3,Win32,59.52380952,1,1,2,-0.233333321,0.2575,1,0,0,2.071,Andesite_07,1,07,5,3,2.071,2,11,0.395,-0.234166718,1,0,0,44.6302,Gabbro_rect,4,44.63,0,1,0,1,0,1,,,,,,,,,,,,,
65c1512b51dc8b722a7fe306,SCR,2024-06-25_12h40.58.808,LearnStrategy,2023.2.3,Win32,59.52380952,1,1,3,-0.421666641,-0.0825,1,0,0,3.8477,Diorite_08,3,08,3,2,3.848,6,09,0.4175,-0.231666718,1,0,0,4.376299999,Gabbro_rect,4,4.376,0,2,0,2,0,1,,,,,,,,,,,,,
65c1512b51dc8b722a7fe306,SCR,2024-06-25_12h40.58.808,LearnStrategy,2023.2.3,Win32,59.52380952,1,1,4,0.084166718,-0.135833359,1,0,0,1.215099999,Obsidian_06,5,06,3,5,1.215,1,07,-0.329166641,-0.395833359,1,0,0,4.4025,Obsidian_rect,5,4.402,1,3,0,3,0,1,,,,,,,,,,,,,
65c1512b51dc8b722a7fe306,SCR,2024-06-25_12h40.58.808,LearnStrategy,2023.2.3,Win32,59.52380952,1,1,5,-0.55166666,0.101666641,1,0,0,16.0973,Obsidian_14,5,14,4,1,16.097,3,08,-0.455,-0.385833359,1,0,0,43.807,Obsidian_rect,5,43.807,1,4,0,4,0,1,,,,,,,,,,,,,
65c1512b51dc8b722a7fe306,SCR,2024-06-25_12h40.58.808,LearnStrategy,2023.2.3,Win32,59.52380952,1,1,6,-0.36,0.40583333,1,0,0,1.361099999,Basalt_12,2,12,6,2,1.361,4,08,0.12,-0.4,1,0,0,19.8404,Peridotite_rect,7,19.84,0,5,0,5,0,1,,,,,,,,,,,,,
65c1512b51dc8b722a7fe306,SCR,2024-06-25_12h40.58.808,LearnStrategy,2023.2.3,Win32,59.52380952,1,1,7,-0.051666641,0.40333333,1,0,0,1.8797,Gabbro_12,4,12,6,4,1.88,1,02,-0.114166641,-0.2425,1,0,0,26.7,Basalt_rect,2,26.7,0,6,0,6,0,1,,,,,,,,,,,,,
65c1512b51dc8b722a7fe306,SCR,2024-06-25_12h40.58.808,LearnStrategy,2023.2.3,Win32,59.52380952,1,1,8,0.375833359,-0.285833359,1,0,0,6.4785,Pegmatite_03,6,03,2,7,6.478,2,14,0.160833359,-0.400833359,1,0,0,4.964,Peridotite_rect,7,4.964,0,7,0,7,0,1,,,,,,,,,,,,,
65c1512b51dc8b722a7fe306,SCR,2024-06-25_12h40.58.808,LearnStrategy,2023.2.3,Win32,59.52380952,1,1,9,-0.37,-0.430833359,1,0,0,2.0783,Diorite_02,3,02,1,2,2.078,8,04,0.3625,-0.255,1,0,0,9.9262,Gabbro_rect,4,9.926,0,8,0,8,0,1,,,,,,,,,,,,,
65c1512b51dc8b722a7fe306,SCR,2024-06-25_12h40.58.808,LearnStrategy,2023.2.3,Win32,59.52380952,1,1,10,-0.098333282,-0.121666679,1,0,0,1.835700001,Diorite_07,3,07,3,4,1.836,3,07,0.09,-0.24,1,0,0,1.0744,Diorite_rect,3,1.074,1,9,0,9,0,1,,,,,,,,,,,,,
65c1512b51dc8b722a7fe306,SCR,2024-06-25_12h40.58.808,LearnStrategy,2023.2.3,Win32,59.52380952,1,1,11,-0.265,-0.274166718,1,0,0,1.514700001,Pegmatite_06,6,06,2,3,1.515,4,01,0.41,-0.406666718,1,0,0,1.423099999,Pumice_rect,8,1.423,0,10,0,10,0,1,,,,,,,,,,,,,
65c1512b51dc8b722a7fe306,SCR,2024-06-25_12h40.58.808,LearnStrategy,2023.2.3,Win32,59.52380952,1,1,12,0.571666718,-0.424166718,1,0,0,2.2468,Pegmatite_05,6,05,1,8,2.247,6,06,0.093333359,-0.390833359,1,0,0,1.272700001,Peridotite_rect,7,1.273,0,11,0,11,0,1,,,,,,,,,,,,,
65c1512b51dc8b722a7fe306,SCR,2024-06-25_12h40.58.808,LearnStrategy,2023.2.3,Win32,59.52380952,1,1,13,-0.063333282,-0.089166679,1,0,0,1.8341,Diorite_07,3,07,3,4,1.834,8,06,0.116666718,-0.264166718,1,0,0,2.69,Diorite_rect,3,2.69,1,12,0,12,0,1,,,,,,,,,,,,,
65c1512b51dc8b722a7fe306,SCR,2024-06-25_12h40.58.808,LearnStrategy,2023.2.3,Win32,59.52380952,1,1,14,-0.515,0.106666641,1,0,0,2.4807,Obsidian_14,5,14,4,1,2.481,7,10,-0.386666641,-0.399166718,1,0,0,1.6078,Obsidian_rect,5,1.608,1,13,0,13,0,1,,,,,,,,,,,,,
65c1512b51dc8b722a7fe306,SCR,2024-06-25_12h40.58.808,LearnStrategy,2023.2.3,Win32,59.52380952,1,1,15,-0.3975,0.273333321,1,0,0,2.5977,Diorite_16,3,16,5,2,2.598,5,06,0.136666718,-0.241666718,1,0,0,3.1525,Diorite_rect,3,3.153,1,14,0,14,0,1,,,,,,,,,,,,,
65c1512b51dc8b722a7fe306,SCR,2024-06-25_12h40.58.808,LearnStrategy,2023.2.3,Win32,59.52380952,1,1,16,0.253333359,-0.098333359,1,0,0,8.581,Basalt_14,2,14,3,6,8.581,7,05,0.135833359,-0.415,1,0,0,10.4626,Peridotite_rect,7,10.463,0,15,0,15,0,1,,,,,,,,,,,,,
65c1512b51dc8b722a7fe306,SCR,2024-06-25_12h40.58.808,LearnStrategy,2023.2.3,Win32,59.52380952,1,2,1,,,,,,,,7,13,,,,,,,,,,,,,7,9.024,1,,,,,,0.0825,-0.4,1,0,0,9.0243,Peridotite_rect,0,0,0,0,1,
65c1512b51dc8b722a7fe306,SCR,2024-06-25_12h40.58.808,LearnStrategy,2023.2.3,Win32,59.52380952,1,2,2,,,,,,,,3,15,,,,,,,,,,,,,4,38.121,0,,,,,,0.381666718,-0.240833359,1,0,0,38.1211,Gabbro_rect,1,0,1,0,1,
65c1512b51dc8b722a7fe306,SCR,2024-06-25_12h40.58.808,LearnStrategy,2023.2.3,Win32,59.52380952,1,2,3,,,,,,,,8,02,,,,,,,,,,,,,8,1.775,1,,,,,,0.386666718,-0.394166718,1,0,0,1.7752,Pumice_rect,2,0,2,0,1,
65c1512b51dc8b722a7fe306,SCR,2024-06-25_12h40.58.808,LearnStrategy,2023.2.3,Win32,59.52380952,1,2,4,,,,,,,,7,02,,,,,,,,,,,,,7,2.019,1,,,,,,0.116666718,-0.406666718,1,0,0,2.019099999,Peridotite_rect,3,0,3,0,1,
65c1512b51dc8b722a7fe306,SCR,2024-06-25_12h40.58.808,LearnStrategy,2023.2.3,Win32,59.52380952,1,2,5,,,,,,,,1,04,,,,,,,,,,,,,2,14.406,0,,,,,,-0.096666641,-0.266666718,1,0,0,14.4061,Basalt_rect,4,0,4,0,1,
65c1512b51dc8b722a7fe306,SCR,2024-06-25_12h40.58.808,LearnStrategy,2023.2.3,Win32,59.52380952,1,2,6,,,,,,,,4,14,,,,,,,,,,,,,4,36.928,1,,,,,,0.3975,-0.243333359,1,0,0,36.9276,Gabbro_rect,5,0,5,0,1,
65c1512b51dc8b722a7fe306,SCR,2024-06-25_12h40.58.808,LearnStrategy,2023.2.3,Win32,59.52380952,1,2,7,,,,,,,,6,15,,,,,,,,,,,,,6,6.756,1,,,,,,-0.103333282,-0.400833359,1,0,0,6.756,Pegmatite_rect,6,0,6,0,1,
65c1512b51dc8b722a7fe306,SCR,2024-06-25_12h40.58.808,LearnStrategy,2023.2.3,Win32,59.52380952,1,2,8,,,,,,,,4,16,,,,,,,,,,,,,2,7.996,0,,,,,,-0.136666641,-0.253333359,1,0,0,7.9958,Basalt_rect,7,0,7,0,1,
65c1512b51dc8b722a7fe306,SCR,2024-06-25_12h40.58.808,LearnStrategy,2023.2.3,Win32,59.52380952,1,2,9,,,,,,,,1,01,,,,,,,,,,,,,1,13.23,1,,,,,,-0.394166641,-0.270833359,1,0,0,13.2299,Andesite_rect,8,0,8,0,1,
65c1512b51dc8b722a7fe306,SCR,2024-06-25_12h40.58.808,LearnStrategy,2023.2.3,Win32,59.52380952,1,2,10,,,,,,,,8,14,,,,,,,,,,,,,8,1.653,1,,,,,,0.415833359,-0.409166718,1,0,0,1.6529,Pumice_rect,9,0,9,0,1,
65c1512b51dc8b722a7fe306,SCR,2024-06-25_12h40.58.808,LearnStrategy,2023.2.3,Win32,59.52380952,1,2,11,,,,,,,,2,09,,,,,,,,,,,,,2,4.74,1,,,,,,-0.1,-0.24,1,0,0,4.7401,Basalt_rect,10,0,10,0,1,
65c1512b51dc8b722a7fe306,SCR,2024-06-25_12h40.58.808,LearnStrategy,2023.2.3,Win32,59.52380952,1,2,12,,,,,,,,6,13,,,,,,,,,,,,,6,9.812,1,,,,,,-0.143333282,-0.4025,1,0,0,9.8118,Pegmatite_rect,11,0,11,0,1,
65c1512b51dc8b722a7fe306,SCR,2024-06-25_12h40.58.808,LearnStrategy,2023.2.3,Win32,59.52380952,1,2,13,,,,,,,,2,16,,,,,,,,,,,,,1,3.818,0,,,,,,-0.335,-0.251666718,1,0,0,3.8182,Andesite_rect,12,0,12,0,1,
65c1512b51dc8b722a7fe306,SCR,2024-06-25_12h40.58.808,LearnStrategy,2023.2.3,Win32,59.52380952,1,2,14,,,,,,,,5,10,,,,,,,,,,,,,5,1.611,1,,,,,,-0.345833321,-0.404166718,1,0,0,1.6115,Obsidian_rect,13,0,13,0,1,
65c1512b51dc8b722a7fe306,SCR,2024-06-25_12h40.58.808,LearnStrategy,2023.2.3,Win32,59.52380952,1,2,15,,,,,,,,5,04,,,,,,,,,,,,,5,0.926,1,,,,,,-0.345833321,-0.404166718,1,0,0,0.9258,Obsidian_rect,14,0,14,0,1,
65c1512b51dc8b722a7fe306,SCR,2024-06-25_12h40.58.808,LearnStrategy,2023.2.3,Win32,59.52380952,1,2,16,,,,,,,,3,06,,,,,,,,,,,,,4,2.419,0,,,,,,0.365,-0.244166718,1,0,0,2.419400001,Gabbro_rect,15,0,15,0,1,
65c1512b51dc8b722a7fe306,SCR,2024-06-25_12h40.58.808,LearnStrategy,2023.2.3,Win32,59.52380952,2,1,1,0.536666718,0.22166666,1,0,0,6.0632,Pumice_16,8,16,5,8,6.063,1,07,0.413333359,-0.4025,1,0,0,1.4791,Pumice_rect,8,1.479,1,0,0,0,0,1,,,,,,,,,,,,,
65c1512b51dc8b722a7fe306,SCR,2024-06-25_12h40.58.808,LearnStrategy,2023.2.3,Win32,59.52380952,2,1,2,-0.54916666,0.3925,1,0,0,1.196,Pumice_08,8,08,6,1,1.196,3,14,-0.355833321,-0.244166718,1,0,0,2.8073,Andesite_rect,1,2.807,0,1,0,1,0,1,,,,,,,,,,,,,
65c1512b51dc8b722a7fe306,SCR,2024-06-25_12h40.58.808,LearnStrategy,2023.2.3,Win32,59.52380952,2,1,3,-0.381666641,0.3925,1,0,0,1.3139,Basalt_12,2,12,6,2,1.314,3,08,0.361666718,-0.378333359,1,0,0,2.041400001,Pumice_rect,8,2.041,0,2,0,2,0,1,,,,,,,,,,,,,
65c1512b51dc8b722a7fe306,SCR,2024-06-25_12h40.58.808,LearnStrategy,2023.2.3,Win32,59.52380952,2,1,4,-0.199166641,0.37166666,1,0,0,1.0142,Obsidian_07,5,07,6,3,1.014,2,11,-0.4,-0.4075,1,0,0,1.1792,Obsidian_rect,5,1.179,1,3,0,3,0,1,,,,,,,,,,,,,
65c1512b51dc8b722a7fe306,SCR,2024-06-25_12h40.58.808,LearnStrategy,2023.2.3,Win32,59.52380952,2,1,5,-0.07,0.4375,1,0,0,1.0638,Gabbro_12,4,12,6,4,1.064,4,15,-0.121666641,-0.2375,1,0,0,2.7101,Basalt_rect,2,2.71,0,4,0,4,0,1,,,,,,,,,,,,,
65c1512b51dc8b722a7fe306,SCR,2024-06-25_12h40.58.808,LearnStrategy,2023.2.3,Win32,59.52380952,2,1,6,0.059166718,0.36833333,1,0,0,1.213,Basalt_02,2,02,6,5,1.213,3,11,-0.138333282,-0.233333359,1,0,0,2.059700001,Basalt_rect,2,2.06,1,5,0,5,0,1,,,,,,,,,,,,,
65c1512b51dc8b722a7fe306,SCR,2024-06-25_12h40.58.808,LearnStrategy,2023.2.3,Win32,59.52380952,2,1,7,0.2275,0.42333333,1,0,0,1.5129,Pumice_15,8,15,6,6,1.513,3,11,0.385,-0.415,1,0,0,2.0094,Pumice_rect,8,2.009,1,6,0,6,0,1,,,,,,,,,,,,,
65c1512b51dc8b722a7fe306,SCR,2024-06-25_12h40.58.808,LearnStrategy,2023.2.3,Win32,59.52380952,2,1,8,0.4025,0.38333333,1,0,0,1.0807,Pegmatite_12,6,12,6,7,1.081,5,14,-0.115,-0.3825,1,0,0,1.8067,Pegmatite_rect,6,1.807,1,7,0,7,0,1,,,,,,,,,,,,,
65c1512b51dc8b722a7fe306,SCR,2024-06-25_12h40.58.808,LearnStrategy,2023.2.3,Win32,59.52380952,2,1,9,0.53,0.43,1,0,0,1.2963,Andesite_10,1,10,6,8,1.296,1,02,0.084166718,-0.24,1,0,0,2.3923,Diorite_rect,3,2.392,0,8,0,8,0,1,,,,,,,,,,,,,
65c1512b51dc8b722a7fe306,SCR,2024-06-25_12h40.58.808,LearnStrategy,2023.2.3,Win32,59.52380952,2,1,10,-0.555833321,0.228333321,1,0,0,1.2976,Pumice_04,8,04,5,1,1.298,4,09,0.400833359,-0.400833359,1,0,0,4.8077,Pumice_rect,8,4.808,1,9,0,9,0,1,,,,,,,,,,,,,
65c1512b51dc8b722a7fe306,SCR,2024-06-25_12h40.58.808,LearnStrategy,2023.2.3,Win32,59.52380952,2,1,11,-0.41,0.22,1,0,0,1.1468,Diorite_16,3,16,5,2,1.147,3,14,0.3725,-0.243333359,1,0,0,1.435599999,Gabbro_rect,4,1.436,0,10,0,10,0,1,,,,,,,,,,,,,
65c1512b51dc8b722a7fe306,SCR,2024-06-25_12h40.58.808,LearnStrategy,2023.2.3,Win32,59.52380952,2,1,12,-0.225,0.2275,1,0,0,1.2791,Andesite_07,1,07,5,3,1.279,1,09,0.113333359,-0.2575,1,0,0,2.1472,Diorite_rect,3,2.147,0,11,0,11,0,1,,,,,,,,,,,,,
65c1512b51dc8b722a7fe306,SCR,2024-06-25_12h40.58.808,LearnStrategy,2023.2.3,Win32,59.52380952,2,1,13,-0.089166641,0.238333321,1,0,0,1.6298,Peridotite_10,7,10,5,4,1.63,4,05,-0.0725,-0.399166718,1,0,0,2.2585,Pegmatite_rect,6,2.259,0,12,0,12,0,1,,,,,,,,,,,,,
65c1512b51dc8b722a7fe306,SCR,2024-06-25_12h40.58.808,LearnStrategy,2023.2.3,Win32,59.52380952,2,1,14,0.069166718,0.24,1,0,0,1.278,Pegmatite_09,6,09,5,5,1.278,2,02,-0.098333282,-0.413333359,1,0,0,1.7697,Pegmatite_rect,6,1.77,1,13,0,13,0,1,,,,,,,,,,,,,
65c1512b51dc8b722a7fe306,SCR,2024-06-25_12h40.58.808,LearnStrategy,2023.2.3,Win32,59.52380952,2,1,15,0.2225,0.118333321,1,0,0,1.5634,Andesite_02,1,02,4,6,1.563,2,01,-0.1625,-0.2375,1,0,0,2.173900001,Basalt_rect,2,2.174,0,14,0,14,0,1,,,,,,,,,,,,,
65c1512b51dc8b722a7fe306,SCR,2024-06-25_12h40.58.808,LearnStrategy,2023.2.3,Win32,59.52380952,2,1,16,0.55,0.094166641,1,0,0,1.746900001,Gabbro_08,4,08,4,8,1.747,6,03,-0.356666641,-0.230833359,1,0,0,2.7533,Andesite_rect,1,2.753,0,15,0,15,0,1,,,,,,,,,,,,,
65c1512b51dc8b722a7fe306,SCR,2024-06-25_12h40.58.808,LearnStrategy,2023.2.3,Win32,59.52380952,2,2,1,,,,,,,,5,12,,,,,,,,,,,,,5,2.589,1,,,,,,-0.4275,-0.3825,1,0,0,2.589400001,Obsidian_rect,0,0,0,0,1,
65c1512b51dc8b722a7fe306,SCR,2024-06-25_12h40.58.808,LearnStrategy,2023.2.3,Win32,59.52380952,2,2,2,,,,,,,,3,12,,,,,,,,,,,,,3,3.256,1,,,,,,0.140833359,-0.245833359,1,0,0,3.2563,Diorite_rect,1,0,1,0,1,
65c1512b51dc8b722a7fe306,SCR,2024-06-25_12h40.58.808,LearnStrategy,2023.2.3,Win32,59.52380952,2,2,3,,,,,,,,8,10,,,,,,,,,,,,,8,2.462,1,,,,,,0.3875,-0.408333359,1,0,0,2.4622,Pumice_rect,2,0,2,0,1,
65c1512b51dc8b722a7fe306,SCR,2024-06-25_12h40.58.808,LearnStrategy,2023.2.3,Win32,59.52380952,2,2,4,,,,,,,,2,05,,,,,,,,,,,,,1,2.524,0,,,,,,-0.426666641,-0.259166718,1,0,0,2.5236,Andesite_rect,3,0,3,0,1,
65c1512b51dc8b722a7fe306,SCR,2024-06-25_12h40.58.808,LearnStrategy,2023.2.3,Win32,59.52380952,2,2,5,,,,,,,,6,10,,,,,,,,,,,,,6,2.696,1,,,,,,-0.144166641,-0.405,1,0,0,2.696,Pegmatite_rect,4,0,4,0,1,
65c1512b51dc8b722a7fe306,SCR,2024-06-25_12h40.58.808,LearnStrategy,2023.2.3,Win32,59.52380952,2,2,6,,,,,,,,4,11,,,,,,,,,,,,,1,2.123,0,,,,,,-0.42,-0.2475,1,0,0,2.1234,Andesite_rect,5,0,5,0,1,
65c1512b51dc8b722a7fe306,SCR,2024-06-25_12h40.58.808,LearnStrategy,2023.2.3,Win32,59.52380952,2,2,7,,,,,,,,2,10,,,,,,,,,,,,,2,3.655,1,,,,,,-0.128333282,-0.264166718,1,0,0,3.655,Basalt_rect,6,0,6,0,1,
65c1512b51dc8b722a7fe306,SCR,2024-06-25_12h40.58.808,LearnStrategy,2023.2.3,Win32,59.52380952,2,2,8,,,,,,,,7,04,,,,,,,,,,,,,4,2.296,0,,,,,,0.381666718,-0.250833359,1,0,0,2.296,Gabbro_rect,7,0,7,0,1,
65c1512b51dc8b722a7fe306,SCR,2024-06-25_12h40.58.808,LearnStrategy,2023.2.3,Win32,59.52380952,2,2,9,,,,,,,,1,16,,,,,,,,,,,,,3,1.464,0,,,,,,0.156666718,-0.2475,1,0,0,1.4639,Diorite_rect,8,0,8,0,1,
65c1512b51dc8b722a7fe306,SCR,2024-06-25_12h40.58.808,LearnStrategy,2023.2.3,Win32,59.52380952,2,2,10,,,,,,,,1,03,,,,,,,,,,,,,1,1.787,1,,,,,,-0.3675,-0.269166718,1,0,0,1.7873,Andesite_rect,9,0,9,0,1,
65c1512b51dc8b722a7fe306,SCR,2024-06-25_12h40.58.808,LearnStrategy,2023.2.3,Win32,59.52380952,2,2,11,,,,,,,,6,08,,,,,,,,,,,,,6,1.64,1,,,,,,-0.111666641,-0.394166718,1,0,0,1.640099999,Pegmatite_rect,10,0,10,0,1,
65c1512b51dc8b722a7fe306,SCR,2024-06-25_12h40.58.808,LearnStrategy,2023.2.3,Win32,59.52380952,2,2,12,,,,,,,,3,09,,,,,,,,,,,,,3,2.972,1,,,,,,0.1575,-0.251666718,1,0,0,2.9723,Diorite_rect,11,0,11,0,1,
65c1512b51dc8b722a7fe306,SCR,2024-06-25_12h40.58.808,LearnStrategy,2023.2.3,Win32,59.52380952,2,2,13,,,,,,,,5,09,,,,,,,,,,,,,5,1.397,1,,,,,,-0.3625,-0.399166718,1,0,0,1.3973,Obsidian_rect,12,0,12,0,1,
65c1512b51dc8b722a7fe306,SCR,2024-06-25_12h40.58.808,LearnStrategy,2023.2.3,Win32,59.52380952,2,2,14,,,,,,,,8,03,,,,,,,,,,,,,8,1.805,1,,,,,,0.4075,-0.415,1,0,0,1.8049,Pumice_rect,13,0,13,0,1,
65c1512b51dc8b722a7fe306,SCR,2024-06-25_12h40.58.808,LearnStrategy,2023.2.3,Win32,59.52380952,2,2,15,,,,,,,,7,16,,,,,,,,,,,,,6,1.892,0,,,,,,-0.125,-0.395,1,0,0,1.8924,Pegmatite_rect,14,0,14,0,1,
65c1512b51dc8b722a7fe306,SCR,2024-06-25_12h40.58.808,LearnStrategy,2023.2.3,Win32,59.52380952,2,2,16,,,,,,,,4,10,,,,,,,,,,,,,3,2.074,0,,,,,,0.148333359,-0.265833359,1,0,0,2.0735,Diorite_rect,15,0,15,0,1,
65c1512b51dc8b722a7fe306,SCR,2024-06-25_12h40.58.808,LearnStrategy,2023.2.3,Win32,59.52380952,3,1,1,-0.124166641,-0.119166679,1,0,0,3.1476,Diorite_07,3,07,3,4,3.148,6,09,0.108333359,-0.2425,1,0,0,1.2177,Diorite_rect,3,1.218,1,0,0,0,0,1,,,,,,,,,,,,,
65c1512b51dc8b722a7fe306,SCR,2024-06-25_12h40.58.808,LearnStrategy,2023.2.3,Win32,59.52380952,3,1,2,-0.049166641,-0.401666718,1,0,0,3.413,Peridotite_07,7,07,1,4,3.413,2,04,-0.130833282,-0.39,1,0,0,1.907099999,Pegmatite_rect,6,1.907,0,1,0,1,0,1,,,,,,,,,,,,,
65c1512b51dc8b722a7fe306,SCR,2024-06-25_12h40.58.808,LearnStrategy,2023.2.3,Win32,59.52380952,3,1,3,-0.3675,0.215833321,1,0,0,1.731,Diorite_16,3,16,5,2,1.731,2,12,0.135833359,-0.23,1,0,0,1.1908,Diorite_rect,3,1.191,1,2,0,2,0,1,,,,,,,,,,,,,
65c1512b51dc8b722a7fe306,SCR,2024-06-25_12h40.58.808,LearnStrategy,2023.2.3,Win32,59.52380952,3,1,4,0.220833359,0.2775,1,0,0,1.4805,Diorite_14,3,14,5,6,1.481,7,12,0.075833359,-0.236666718,1,0,0,1.3889,Diorite_rect,3,1.389,1,3,0,3,0,1,,,,,,,,,,,,,
65c1512b51dc8b722a7fe306,SCR,2024-06-25_12h40.58.808,LearnStrategy,2023.2.3,Win32,59.52380952,3,1,5,0.24,0.0925,1,0,0,1.6307,Andesite_02,1,02,4,6,1.631,1,09,0.4175,-0.240833359,1,0,0,1.3907,Gabbro_rect,4,1.391,0,4,0,4,0,1,,,,,,,,,,,,,
65c1512b51dc8b722a7fe306,SCR,2024-06-25_12h40.58.808,LearnStrategy,2023.2.3,Win32,59.52380952,3,1,6,-0.260833321,-0.264166718,1,0,0,2.8501,Pegmatite_06,6,06,2,3,2.85,7,10,0.170833359,-0.419166718,1,0,0,1.3418,Peridotite_rect,7,1.342,0,5,0,5,0,1,,,,,,,,,,,,,
65c1512b51dc8b722a7fe306,SCR,2024-06-25_12h40.58.808,LearnStrategy,2023.2.3,Win32,59.52380952,3,1,7,0.218333359,0.24416666,1,0,0,4.2828,Diorite_14,3,14,5,6,4.283,4,05,0.119166718,-0.234166718,1,0,0,1.178799999,Diorite_rect,3,1.179,1,6,0,6,0,1,,,,,,,,,,,,,
65c1512b51dc8b722a7fe306,SCR,2024-06-25_12h40.58.808,LearnStrategy,2023.2.3,Win32,59.52380952,3,1,8,-0.565833321,0.43083333,1,0,0,1.3999,Pumice_08,8,08,6,1,1.4,4,05,0.398333359,-0.384166718,1,0,0,3.151700001,Pumice_rect,8,3.152,1,7,0,7,0,1,,,,,,,,,,,,,
65c1512b51dc8b722a7fe306,SCR,2024-06-25_12h40.58.808,LearnStrategy,2023.2.3,Win32,59.52380952,3,1,9,0.384166718,-0.4125,1,0,0,3.581,Andesite_09,1,09,1,7,3.581,3,08,-0.391666641,-0.2425,1,0,0,2.4775,Andesite_rect,1,2.478,1,8,0,8,0,1,,,,,,,,,,,,,
65c1512b51dc8b722a7fe306,SCR,2024-06-25_12h40.58.808,LearnStrategy,2023.2.3,Win32,59.52380952,3,1,10,0.1025,-0.413333359,1,0,0,2.815900001,Gabbro_15,4,15,1,5,2.816,3,16,0.126666718,-0.251666718,1,0,0,2.4339,Diorite_rect,3,2.434,0,9,0,9,0,1,,,,,,,,,,,,,
65c1512b51dc8b722a7fe306,SCR,2024-06-25_12h40.58.808,LearnStrategy,2023.2.3,Win32,59.52380952,3,1,11,-0.240833321,-0.42,1,0,0,1.731900001,Basalt_11,2,11,1,3,1.732,7,05,0.3875,-0.378333359,1,0,0,1.7359,Pumice_rect,8,1.736,0,10,0,10,0,1,,,,,,,,,,,,,
65c1512b51dc8b722a7fe306,SCR,2024-06-25_12h40.58.808,LearnStrategy,2023.2.3,Win32,59.52380952,3,1,12,0.5075,0.258333321,1,0,0,2.665599999,Pumice_16,8,16,5,8,2.666,1,10,0.366666718,-0.383333359,1,0,0,2.299700001,Pumice_rect,8,2.3,1,11,0,11,0,1,,,,,,,,,,,,,
65c1512b51dc8b722a7fe306,SCR,2024-06-25_12h40.58.808,LearnStrategy,2023.2.3,Win32,59.52380952,3,1,13,-0.5275,-0.244166718,1,0,0,5.71,Gabbro_05,4,05,2,1,5.71,2,04,0.3975,-0.265833359,1,0,0,4.519,Gabbro_rect,4,4.519,1,12,0,12,0,1,,,,,,,,,,,,,
65c1512b51dc8b722a7fe306,SCR,2024-06-25_12h40.58.808,LearnStrategy,2023.2.3,Win32,59.52380952,3,1,14,-0.381666641,-0.2475,1,0,0,1.9318,Obsidian_11,5,11,2,2,1.932,4,01,-0.4225,-0.395,1,0,0,1.157,Obsidian_rect,5,1.157,1,13,0,13,0,1,,,,,,,,,,,,,
65c1512b51dc8b722a7fe306,SCR,2024-06-25_12h40.58.808,LearnStrategy,2023.2.3,Win32,59.52380952,3,1,15,0.095833359,-0.118333359,1,0,0,1.363700001,Obsidian_06,5,06,3,5,1.364,1,05,-0.4375,-0.3975,1,0,0,1.5544,Obsidian_rect,5,1.554,1,14,0,14,0,1,,,,,,,,,,,,,
65c1512b51dc8b722a7fe306,SCR,2024-06-25_12h40.58.808,LearnStrategy,2023.2.3,Win32,59.52380952,3,1,16,0.1,0.0725,1,0,0,1.1143,Basalt_01,2,01,4,5,1.114,4,15,-0.374166641,-0.255,1,0,0,1.5878,Andesite_rect,1,1.588,0,15,0,15,0,1,,,,,,,,,,,,,
65c1512b51dc8b722a7fe306,SCR,2024-06-25_12h40.58.808,LearnStrategy,2023.2.3,Win32,59.52380952,3,2,1,,,,,,,,3,13,,,,,,,,,,,,,3,3.291,1,,,,,,0.118333359,-0.228333359,1,0,0,3.2912,Diorite_rect,0,0,0,0,1,
65c1512b51dc8b722a7fe306,SCR,2024-06-25_12h40.58.808,LearnStrategy,2023.2.3,Win32,59.52380952,3,2,2,,,,,,,,3,10,,,,,,,,,,,,,4,2.714,0,,,,,,0.36,-0.238333359,1,0,0,2.7139,Gabbro_rect,1,0,1,0,1,
65c1512b51dc8b722a7fe306,SCR,2024-06-25_12h40.58.808,LearnStrategy,2023.2.3,Win32,59.52380952,3,2,3,,,,,,,,1,06,,,,,,,,,,,,,2,3.363,0,,,,,,-0.115833282,-0.246666718,1,0,0,3.3631,Basalt_rect,2,0,2,0,1,
65c1512b51dc8b722a7fe306,SCR,2024-06-25_12h40.58.808,LearnStrategy,2023.2.3,Win32,59.52380952,3,2,4,,,,,,,,6,11,,,,,,,,,,,,,6,2.24,1,,,,,,-0.155,-0.398333359,1,0,0,2.24,Pegmatite_rect,3,0,3,0,1,
65c1512b51dc8b722a7fe306,SCR,2024-06-25_12h40.58.808,LearnStrategy,2023.2.3,Win32,59.52380952,3,2,5,,,,,,,,4,13,,,,,,,,,,,,,4,1.741,1,,,,,,0.441666718,-0.254166718,1,0,0,1.741400001,Gabbro_rect,4,0,4,0,1,
65c1512b51dc8b722a7fe306,SCR,2024-06-25_12h40.58.808,LearnStrategy,2023.2.3,Win32,59.52380952,3,2,6,,,,,,,,2,06,,,,,,,,,,,,,2,2.066,1,,,,,,-0.159166641,-0.254166718,1,0,0,2.0661,Basalt_rect,5,0,5,0,1,
65c1512b51dc8b722a7fe306,SCR,2024-06-25_12h40.58.808,LearnStrategy,2023.2.3,Win32,59.52380952,3,2,7,,,,,,,,5,08,,,,,,,,,,,,,5,1.43,1,,,,,,-0.4175,-0.3875,1,0,0,1.4305,Obsidian_rect,6,0,6,0,1,
65c1512b51dc8b722a7fe306,SCR,2024-06-25_12h40.58.808,LearnStrategy,2023.2.3,Win32,59.52380952,3,2,8,,,,,,,,7,14,,,,,,,,,,,,,7,4.153,1,,,,,,0.1325,-0.4075,1,0,0,4.153299999,Peridotite_rect,7,0,7,0,1,
65c1512b51dc8b722a7fe306,SCR,2024-06-25_12h40.58.808,LearnStrategy,2023.2.3,Win32,59.52380952,3,2,9,,,,,,,,8,13,,,,,,,,,,,,,8,1.76,1,,,,,,0.389166718,-0.3975,1,0,0,1.7601,Pumice_rect,8,0,8,0,1,
65c1512b51dc8b722a7fe306,SCR,2024-06-25_12h40.58.808,LearnStrategy,2023.2.3,Win32,59.52380952,3,2,10,,,,,,,,7,06,,,,,,,,,,,,,7,1.357,1,,,,,,0.14,-0.395,1,0,0,1.3569,Peridotite_rect,9,0,9,0,1,
65c1512b51dc8b722a7fe306,SCR,2024-06-25_12h40.58.808,LearnStrategy,2023.2.3,Win32,59.52380952,3,2,11,,,,,,,,1,14,,,,,,,,,,,,,4,9.452,0,,,,,,0.364166718,-0.244166718,1,0,0,9.4519,Gabbro_rect,10,0,10,0,1,
65c1512b51dc8b722a7fe306,SCR,2024-06-25_12h40.58.808,LearnStrategy,2023.2.3,Win32,59.52380952,3,2,12,,,,,,,,4,03,,,,,,,,,,,,,1,5.09,0,,,,,,-0.451666641,-0.250833359,1,0,0,5.0903,Andesite_rect,11,0,11,0,1,
65c1512b51dc8b722a7fe306,SCR,2024-06-25_12h40.58.808,LearnStrategy,2023.2.3,Win32,59.52380952,3,2,13,,,,,,,,8,05,,,,,,,,,,,,,8,2.575,1,,,,,,0.319166718,-0.378333359,1,0,0,2.5751,Pumice_rect,12,0,12,0,1,
65c1512b51dc8b722a7fe306,SCR,2024-06-25_12h40.58.808,LearnStrategy,2023.2.3,Win32,59.52380952,3,2,14,,,,,,,,5,16,,,,,,,,,,,,,5,3.181,1,,,,,,-0.396666641,-0.411666718,1,0,0,3.180799999,Obsidian_rect,13,0,13,0,1,
65c1512b51dc8b722a7fe306,SCR,2024-06-25_12h40.58.808,LearnStrategy,2023.2.3,Win32,59.52380952,3,2,15,,,,,,,,2,08,,,,,,,,,,,,,2,2.513,1,,,,,,-0.1075,-0.239166718,1,0,0,2.512599999,Basalt_rect,14,0,14,0,1,
65c1512b51dc8b722a7fe306,SCR,2024-06-25_12h40.58.808,LearnStrategy,2023.2.3,Win32,59.52380952,3,2,16,,,,,,,,6,16,,,,,,,,,,,,,6,2.128,1,,,,,,-0.145,-0.4125,1,0,0,2.1278,Pegmatite_rect,15,0,15,0,1,
65c1512b51dc8b722a7fe306,SCR,2024-06-25_12h40.58.808,LearnStrategy,2023.2.3,Win32,59.52380952,4,1,1,0.385,0.064166641,1,0,0,2.283,Obsidian_02,5,02,4,7,2.283,2,01,-0.1375,-0.3925,1,0,0,1.6941,Pegmatite_rect,6,1.694,0,0,0,0,0,1,,,,,,,,,,,,,
65c1512b51dc8b722a7fe306,SCR,2024-06-25_12h40.58.808,LearnStrategy,2023.2.3,Win32,59.52380952,4,1,2,-0.55166666,0.41,1,0,0,1.8849,Pumice_08,8,08,6,1,1.885,3,07,0.376666718,-0.393333359,1,0,0,3.7013,Pumice_rect,8,3.701,1,1,0,1,0,1,,,,,,,,,,,,,
65c1512b51dc8b722a7fe306,SCR,2024-06-25_12h40.58.808,LearnStrategy,2023.2.3,Win32,59.52380952,4,1,3,-0.385,0.421666665,1,0,0,1.0806,Basalt_12,2,12,6,2,1.081,7,15,0.355,-0.4,1,0,0,2.356,Pumice_rect,8,2.356,0,2,0,2,0,1,,,,,,,,,,,,,
65c1512b51dc8b722a7fe306,SCR,2024-06-25_12h40.58.808,LearnStrategy,2023.2.3,Win32,59.52380952,4,1,4,-0.2475,0.395,1,0,0,0.9976,Obsidian_07,5,07,6,3,0.998,4,05,-0.385833321,-0.383333359,1,0,0,1.6972,Obsidian_rect,5,1.697,1,3,0,3,0,1,,,,,,,,,,,,,
65c1512b51dc8b722a7fe306,SCR,2024-06-25_12h40.58.808,LearnStrategy,2023.2.3,Win32,59.52380952,4,1,5,-0.056666641,0.37166666,1,0,0,1.266099999,Gabbro_12,4,12,6,4,1.266,4,01,-0.383333321,-0.234166718,1,0,0,2.018099999,Andesite_rect,1,2.018,0,4,0,4,0,1,,,,,,,,,,,,,
65c1512b51dc8b722a7fe306,SCR,2024-06-25_12h40.58.808,LearnStrategy,2023.2.3,Win32,59.52380952,4,1,6,0.105833359,0.39083333,1,0,0,1.065,Basalt_02,2,02,6,5,1.065,6,07,-0.395833321,-0.235,1,0,0,1.4478,Andesite_rect,1,1.448,0,5,0,5,0,1,,,,,,,,,,,,,
65c1512b51dc8b722a7fe306,SCR,2024-06-25_12h40.58.808,LearnStrategy,2023.2.3,Win32,59.52380952,4,1,7,0.2625,0.40916666,1,0,0,1.381599999,Pumice_15,8,15,6,6,1.382,1,07,0.371666718,-0.395833359,1,0,0,1.604400001,Pumice_rect,8,1.604,1,6,0,6,0,1,,,,,,,,,,,,,
65c1512b51dc8b722a7fe306,SCR,2024-06-25_12h40.58.808,LearnStrategy,2023.2.3,Win32,59.52380952,4,1,8,0.410833359,0.41833333,1,0,0,1.3501,Pegmatite_12,6,12,6,7,1.35,4,08,-0.116666641,-0.386666718,1,0,0,1.783599999,Pegmatite_rect,6,1.784,1,7,0,7,0,1,,,,,,,,,,,,,
65c1512b51dc8b722a7fe306,SCR,2024-06-25_12h40.58.808,LearnStrategy,2023.2.3,Win32,59.52380952,4,1,9,0.5575,0.395,1,0,0,1.2141,Andesite_10,1,10,6,8,1.214,3,07,-0.1325,-0.240833359,1,0,0,4.1593,Basalt_rect,2,4.159,0,8,0,8,0,1,,,,,,,,,,,,,
65c1512b51dc8b722a7fe306,SCR,2024-06-25_12h40.58.808,LearnStrategy,2023.2.3,Win32,59.52380952,4,1,10,0.556666718,0.27666666,1,0,0,0.9352,Pumice_16,8,16,5,8,0.935,4,09,0.408333359,-0.3825,1,0,0,1.6564,Pumice_rect,8,1.656,1,9,0,9,0,1,,,,,,,,,,,,,
65c1512b51dc8b722a7fe306,SCR,2024-06-25_12h40.58.808,LearnStrategy,2023.2.3,Win32,59.52380952,4,1,11,0.405,0.2425,1,0,0,1.0809,Peridotite_12,7,12,5,7,1.081,1,10,0.170833359,-0.410833359,1,0,0,2.108200001,Peridotite_rect,7,2.108,1,10,0,10,0,1,,,,,,,,,,,,,
65c1512b51dc8b722a7fe306,SCR,2024-06-25_12h40.58.808,LearnStrategy,2023.2.3,Win32,59.52380952,4,1,12,0.27,0.248333321,1,0,0,1.097200001,Diorite_14,3,14,5,6,1.097,3,08,0.133333359,-0.260833359,1,0,0,1.2556,Diorite_rect,3,1.256,1,11,0,11,0,1,,,,,,,,,,,,,
65c1512b51dc8b722a7fe306,SCR,2024-06-25_12h40.58.808,LearnStrategy,2023.2.3,Win32,59.52380952,4,1,13,0.115833359,0.25666666,1,0,0,1.030099999,Pegmatite_09,6,09,5,5,1.03,2,14,-0.130833282,-0.42,1,0,0,1.8939,Pegmatite_rect,6,1.894,1,12,0,12,0,1,,,,,,,,,,,,,
65c1512b51dc8b722a7fe306,SCR,2024-06-25_12h40.58.808,LearnStrategy,2023.2.3,Win32,59.52380952,4,1,14,-0.055833282,0.245833321,1,0,0,1.197900001,Peridotite_10,7,10,5,4,1.198,7,05,-0.1425,-0.413333359,1,0,0,1.742299999,Pegmatite_rect,6,1.742,0,13,0,13,0,1,,,,,,,,,,,,,
65c1512b51dc8b722a7fe306,SCR,2024-06-25_12h40.58.808,LearnStrategy,2023.2.3,Win32,59.52380952,4,1,15,-0.245,0.2325,1,0,0,1.615,Andesite_07,1,07,5,3,1.615,1,09,0.386666718,-0.245833359,1,0,0,2.5397,Gabbro_rect,4,2.54,0,14,0,14,0,1,,,,,,,,,,,,,
65c1512b51dc8b722a7fe306,SCR,2024-06-25_12h40.58.808,LearnStrategy,2023.2.3,Win32,59.52380952,4,1,16,-0.413333321,0.258333321,1,0,0,1.0986,Diorite_16,3,16,5,2,1.099,1,07,0.125,-0.23,1,0,0,1.1395,Diorite_rect,3,1.139,1,15,0,15,0,1,,,,,,,,,,,,,
65c1512b51dc8b722a7fe306,SCR,2024-06-25_12h40.58.808,LearnStrategy,2023.2.3,Win32,59.52380952,4,2,1,,,,,,,,6,10,,,,,,,,,,,,,7,14.302,0,,,,,,0.15,-0.404166718,1,0,0,14.3022,Peridotite_rect,0,0,0,0,1,
65c1512b51dc8b722a7fe306,SCR,2024-06-25_12h40.58.808,LearnStrategy,2023.2.3,Win32,59.52380952,4,2,2,,,,,,,,7,02,,,,,,,,,,,,,7,0.975,1,,,,,,0.15,-0.404166718,1,0,0,0.974700001,Peridotite_rect,1,0,1,0,1,
65c1512b51dc8b722a7fe306,SCR,2024-06-25_12h40.58.808,LearnStrategy,2023.2.3,Win32,59.52380952,4,2,3,,,,,,,,2,16,,,,,,,,,,,,,4,3.935,0,,,,,,0.386666718,-0.241666718,1,0,0,3.935099999,Gabbro_rect,2,0,2,0,1,
65c1512b51dc8b722a7fe306,SCR,2024-06-25_12h40.58.808,LearnStrategy,2023.2.3,Win32,59.52380952,4,2,4,,,,,,,,3,12,,,,,,,,,,,,,3,1.528,1,,,,,,0.165833359,-0.27,1,0,0,1.5281,Diorite_rect,3,0,3,0,1,
65c1512b51dc8b722a7fe306,SCR,2024-06-25_12h40.58.808,LearnStrategy,2023.2.3,Win32,59.52380952,4,2,5,,,,,,,,5,16,,,,,,,,,,,,,5,1.52,1,,,,,,-0.441666641,-0.400833359,1,0,0,1.5196,Obsidian_rect,4,0,4,0,1,
65c1512b51dc8b722a7fe306,SCR,2024-06-25_12h40.58.808,LearnStrategy,2023.2.3,Win32,59.52380952,4,2,6,,,,,,,,1,04,,,,,,,,,,,,,2,1.97,0,,,,,,-0.188333321,-0.246666718,1,0,0,1.9699,Basalt_rect,5,0,5,0,1,
65c1512b51dc8b722a7fe306,SCR,2024-06-25_12h40.58.808,LearnStrategy,2023.2.3,Win32,59.52380952,4,2,7,,,,,,,,3,06,,,,,,,,,,,,,4,9.215,0,,,,,,0.343333359,-0.241666718,1,0,0,9.2146,Gabbro_rect,6,0,6,0,1,
65c1512b51dc8b722a7fe306,SCR,2024-06-25_12h40.58.808,LearnStrategy,2023.2.3,Win32,59.52380952,4,2,8,,,,,,,,5,08,,,,,,,,,,,,,5,1.476,1,,,,,,-0.4425,-0.399166718,1,0,0,1.4756,Obsidian_rect,7,0,7,0,1,
65c1512b51dc8b722a7fe306,SCR,2024-06-25_12h40.58.808,LearnStrategy,2023.2.3,Win32,59.52380952,4,2,9,,,,,,,,4,10,,,,,,,,,,,,,1,3.037,0,,,,,,-0.399166641,-0.235833359,1,0,0,3.037,Andesite_rect,8,0,8,0,1,
65c1512b51dc8b722a7fe306,SCR,2024-06-25_12h40.58.808,LearnStrategy,2023.2.3,Win32,59.52380952,4,2,10,,,,,,,,7,04,,,,,,,,,,,,,3,4.33,0,,,,,,0.099166718,-0.254166718,1,0,0,4.3302,Diorite_rect,9,0,9,0,1,
65c1512b51dc8b722a7fe306,SCR,2024-06-25_12h40.58.808,LearnStrategy,2023.2.3,Win32,59.52380952,4,2,11,,,,,,,,4,16,,,,,,,,,,,,,1,1.714,0,,,,,,-0.380833321,-0.2375,1,0,0,1.714099999,Andesite_rect,10,0,10,0,1,
65c1512b51dc8b722a7fe306,SCR,2024-06-25_12h40.58.808,LearnStrategy,2023.2.3,Win32,59.52380952,4,2,12,,,,,,,,8,03,,,,,,,,,,,,,8,1.823,1,,,,,,0.416666718,-0.399166718,1,0,0,1.8232,Pumice_rect,11,0,11,0,1,
65c1512b51dc8b722a7fe306,SCR,2024-06-25_12h40.58.808,LearnStrategy,2023.2.3,Win32,59.52380952,4,2,13,,,,,,,,2,10,,,,,,,,,,,,,2,1.941,1,,,,,,-0.114166641,-0.245,1,0,0,1.9413,Basalt_rect,12,0,12,0,1,
65c1512b51dc8b722a7fe306,SCR,2024-06-25_12h40.58.808,LearnStrategy,2023.2.3,Win32,59.52380952,4,2,14,,,,,,,,8,10,,,,,,,,,,,,,1,6.002,0,,,,,,-0.4,-0.231666718,1,0,0,6.0024,Andesite_rect,13,0,13,0,1,
65c1512b51dc8b722a7fe306,SCR,2024-06-25_12h40.58.808,LearnStrategy,2023.2.3,Win32,59.52380952,4,2,15,,,,,,,,6,08,,,,,,,,,,,,,6,2.201,1,,,,,,-0.125833282,-0.409166718,1,0,0,2.2015,Pegmatite_rect,14,0,14,0,1,
65c1512b51dc8b722a7fe306,SCR,2024-06-25_12h40.58.808,LearnStrategy,2023.2.3,Win32,59.52380952,4,2,16,,,,,,,,1,03,,,,,,,,,,,,,2,1.93,0,,,,,,-0.1275,-0.239166718,1,0,0,1.930200001,Basalt_rect,15,0,15,0,1,
65c1512b51dc8b722a7fe306,SCR,2024-06-25_12h40.58.808,LearnStrategy,2023.2.3,Win32,59.52380952,5,1,1,-0.435833321,-0.074166679,1,0,0,3.997299999,Diorite_08,3,08,3,2,3.997,4,05,0.145,-0.251666718,1,0,0,1.3471,Diorite_rect,3,1.347,1,0,0,0,0,1,,,,,,,,,,,,,
65c1512b51dc8b722a7fe306,SCR,2024-06-25_12h40.58.808,LearnStrategy,2023.2.3,Win32,59.52380952,5,1,2,0.255,-0.44,1,0,0,0.8645,Peridotite_15,7,15,1,6,0.864,2,02,0.129166718,-0.379166718,1,0,0,1.5408,Peridotite_rect,7,1.541,1,1,0,1,0,1,,,,,,,,,,,,,
65c1512b51dc8b722a7fe306,SCR,2024-06-25_12h40.58.808,LearnStrategy,2023.2.3,Win32,59.52380952,5,1,3,0.404166718,-0.276666718,1,0,0,1.0976,Pegmatite_03,6,03,2,7,1.098,7,12,-0.103333282,-0.401666718,1,0,0,1.1194,Pegmatite_rect,6,1.119,1,2,0,2,0,1,,,,,,,,,,,,,
65c1512b51dc8b722a7fe306,SCR,2024-06-25_12h40.58.808,LearnStrategy,2023.2.3,Win32,59.52380952,5,1,4,0.555833435,-0.270833359,1,0,0,1.0891,Andesite_11,1,11,2,8,1.089,8,15,-0.148333282,-0.255,1,0,0,1.0641,Basalt_rect,2,1.064,0,3,0,3,0,1,,,,,,,,,,,,,
65c1512b51dc8b722a7fe306,SCR,2024-06-25_12h40.58.808,LearnStrategy,2023.2.3,Win32,59.52380952,5,1,5,-0.235833321,-0.453333359,1,0,0,1.0804,Basalt_11,2,11,1,3,1.08,6,12,0.3925,-0.3825,1,0,0,1.077400001,Pumice_rect,8,1.077,0,4,0,4,0,1,,,,,,,,,,,,,
65c1512b51dc8b722a7fe306,SCR,2024-06-25_12h40.58.808,LearnStrategy,2023.2.3,Win32,59.52380952,5,1,6,-0.409166641,-0.410833359,1,0,0,1.5156,Diorite_02,3,02,1,2,1.516,3,14,0.081666718,-0.256666718,1,0,0,1.5067,Diorite_rect,3,1.507,1,5,0,5,0,1,,,,,,,,,,,,,
65c1512b51dc8b722a7fe306,SCR,2024-06-25_12h40.58.808,LearnStrategy,2023.2.3,Win32,59.52380952,5,1,7,-0.54416666,-0.083333359,1,0,0,1.4222,Pumice_06,8,06,3,1,1.422,1,09,0.393333359,-0.415,1,0,0,1.2507,Pumice_rect,8,1.251,1,6,0,6,0,1,,,,,,,,,,,,,
65c1512b51dc8b722a7fe306,SCR,2024-06-25_12h40.58.808,LearnStrategy,2023.2.3,Win32,59.52380952,5,1,8,0.570833435,0.109166641,1,0,0,2.182,Gabbro_08,4,08,4,8,2.182,4,09,-0.1325,-0.240833359,1,0,0,1.3022,Basalt_rect,2,1.302,0,7,0,7,0,1,,,,,,,,,,,,,
65c1512b51dc8b722a7fe306,SCR,2024-06-25_12h40.58.808,LearnStrategy,2023.2.3,Win32,59.52380952,5,1,9,-0.5175,0.0675,1,0,0,1.5487,Obsidian_14,5,14,4,1,1.549,4,15,-0.450833321,-0.400833359,1,0,0,1.2626,Obsidian_rect,5,1.263,1,8,0,8,0,1,,,,,,,,,,,,,
65c1512b51dc8b722a7fe306,SCR,2024-06-25_12h40.58.808,LearnStrategy,2023.2.3,Win32,59.52380952,5,1,10,-0.3875,0.41416666,1,0,0,1.3137,Basalt_12,2,12,6,2,1.314,1,02,-0.138333282,-0.228333359,1,0,0,2.5971,Basalt_rect,2,2.597,1,9,0,9,0,1,,,,,,,,,,,,,
65c1512b51dc8b722a7fe306,SCR,2024-06-25_12h40.58.808,LearnStrategy,2023.2.3,Win32,59.52380952,5,1,11,0.551666718,0.405,1,0,0,1.2639,Andesite_10,1,10,6,8,1.264,1,02,-0.134166641,-0.241666718,1,0,0,1.1903,Basalt_rect,2,1.19,0,10,0,10,0,1,,,,,,,,,,,,,
65c1512b51dc8b722a7fe306,SCR,2024-06-25_12h40.58.808,LearnStrategy,2023.2.3,Win32,59.52380952,5,1,12,0.520833435,0.114166641,1,0,0,1.4484,Gabbro_08,4,08,4,8,1.448,7,07,-0.134166641,-0.249166718,1,0,0,1.503599999,Basalt_rect,2,1.504,0,11,0,11,0,1,,,,,,,,,,,,,
65c1512b51dc8b722a7fe306,SCR,2024-06-25_12h40.58.808,LearnStrategy,2023.2.3,Win32,59.52380952,5,1,13,-0.420833321,0.1025,1,0,0,1.2013,Andesite_05,1,05,4,2,1.201,3,02,-0.424166641,-0.255,1,0,0,1.1139,Andesite_rect,1,1.114,1,12,0,12,0,1,,,,,,,,,,,,,
65c1512b51dc8b722a7fe306,SCR,2024-06-25_12h40.58.808,LearnStrategy,2023.2.3,Win32,59.52380952,5,1,14,0.546666718,-0.106666679,1,0,0,2.0354,Obsidian_05,5,05,3,8,2.035,4,08,-0.431666641,-0.4025,1,0,0,1.29,Obsidian_rect,5,1.29,1,13,0,13,0,1,,,,,,,,,,,,,
65c1512b51dc8b722a7fe306,SCR,2024-06-25_12h40.58.808,LearnStrategy,2023.2.3,Win32,59.52380952,5,1,15,0.263333359,-0.086666679,1,0,0,9.0162,Basalt_14,2,14,3,6,9.016,1,09,0.3625,-0.241666718,1,0,0,1.6291,Gabbro_rect,4,1.629,0,14,0,14,0,1,,,,,,,,,,,,,
65c1512b51dc8b722a7fe306,SCR,2024-06-25_12h40.58.808,LearnStrategy,2023.2.3,Win32,59.52380952,5,1,16,-0.236666641,-0.103333359,1,0,0,1.8184,Pumice_09,8,09,3,3,1.818,2,11,0.403333359,-0.42,1,0,0,1.317700001,Pumice_rect,8,1.318,1,15,0,15,0,1,,,,,,,,,,,,,
65c1512b51dc8b722a7fe306,SCR,2024-06-25_12h40.58.808,LearnStrategy,2023.2.3,Win32,59.52380952,5,2,1,,,,,,,,4,11,,,,,,,,,,,,,1,5.292,0,,,,,,-0.428333321,-0.235833359,1,0,0,5.2915,Andesite_rect,0,0,0,0,1,
65c1512b51dc8b722a7fe306,SCR,2024-06-25_12h40.58.808,LearnStrategy,2023.2.3,Win32,59.52380952,5,2,2,,,,,,,,3,13,,,,,,,,,,,,,3,1.58,1,,,,,,0.135,-0.241666718,1,0,0,1.5798,Diorite_rect,1,0,1,0,1,
65c1512b51dc8b722a7fe306,SCR,2024-06-25_12h40.58.808,LearnStrategy,2023.2.3,Win32,59.52380952,5,2,3,,,,,,,,6,16,,,,,,,,,,,,,6,1.79,1,,,,,,-0.166666641,-0.399166718,1,0,0,1.79,Pegmatite_rect,2,0,2,0,1,
65c1512b51dc8b722a7fe306,SCR,2024-06-25_12h40.58.808,LearnStrategy,2023.2.3,Win32,59.52380952,5,2,4,,,,,,,,2,06,,,,,,,,,,,,,2,1.979,1,,,,,,-0.138333282,-0.238333359,1,0,0,1.9792,Basalt_rect,3,0,3,0,1,
65c1512b51dc8b722a7fe306,SCR,2024-06-25_12h40.58.808,LearnStrategy,2023.2.3,Win32,59.52380952,5,2,5,,,,,,,,5,09,,,,,,,,,,,,,5,1.741,1,,,,,,-0.3725,-0.404166718,1,0,0,1.740900001,Obsidian_rect,4,0,4,0,1,
65c1512b51dc8b722a7fe306,SCR,2024-06-25_12h40.58.808,LearnStrategy,2023.2.3,Win32,59.52380952,5,2,6,,,,,,,,1,14,,,,,,,,,,,,,2,4.406,0,,,,,,-0.130833282,-0.2425,1,0,0,4.4062,Basalt_rect,5,0,5,0,1,
65c1512b51dc8b722a7fe306,SCR,2024-06-25_12h40.58.808,LearnStrategy,2023.2.3,Win32,59.52380952,5,2,7,,,,,,,,6,13,,,,,,,,,,,,,6,1.551,1,,,,,,-0.119166641,-0.3975,1,0,0,1.5507,Pegmatite_rect,6,0,6,0,1,
65c1512b51dc8b722a7fe306,SCR,2024-06-25_12h40.58.808,LearnStrategy,2023.2.3,Win32,59.52380952,5,2,8,,,,,,,,7,16,,,,,,,,,,,,,7,1.106,1,,,,,,0.080833359,-0.405833359,1,0,0,1.106,Peridotite_rect,7,0,7,0,1,
65c1512b51dc8b722a7fe306,SCR,2024-06-25_12h40.58.808,LearnStrategy,2023.2.3,Win32,59.52380952,5,2,9,,,,,,,,2,09,,,,,,,,,,,,,1,1.655,0,,,,,,-0.455833321,-0.249166718,1,0,0,1.654799999,Andesite_rect,8,0,8,0,1,
65c1512b51dc8b722a7fe306,SCR,2024-06-25_12h40.58.808,LearnStrategy,2023.2.3,Win32,59.52380952,5,2,10,,,,,,,,1,01,,,,,,,,,,,,,4,1.956,0,,,,,,0.398333359,-0.261666718,1,0,0,1.956299999,Gabbro_rect,9,0,9,0,1,
65c1512b51dc8b722a7fe306,SCR,2024-06-25_12h40.58.808,LearnStrategy,2023.2.3,Win32,59.52380952,5,2,11,,,,,,,,4,14,,,,,,,,,,,,,4,1.297,1,,,,,,0.398333359,-0.261666718,1,0,0,1.2973,Gabbro_rect,10,0,10,0,1,
65c1512b51dc8b722a7fe306,SCR,2024-06-25_12h40.58.808,LearnStrategy,2023.2.3,Win32,59.52380952,5,2,12,,,,,,,,8,14,,,,,,,,,,,,,8,1.23,1,,,,,,0.413333359,-0.41,1,0,0,1.23,Pumice_rect,11,0,11,0,1,
65c1512b51dc8b722a7fe306,SCR,2024-06-25_12h40.58.808,LearnStrategy,2023.2.3,Win32,59.52380952,5,2,13,,,,,,,,5,04,,,,,,,,,,,,,5,1.637,1,,,,,,-0.415833321,-0.4025,1,0,0,1.6369,Obsidian_rect,12,0,12,0,1,
65c1512b51dc8b722a7fe306,SCR,2024-06-25_12h40.58.808,LearnStrategy,2023.2.3,Win32,59.52380952,5,2,14,,,,,,,,3,15,,,,,,,,,,,,,4,1.724,0,,,,,,0.3425,-0.248333359,1,0,0,1.723900001,Gabbro_rect,13,0,13,0,1,
65c1512b51dc8b722a7fe306,SCR,2024-06-25_12h40.58.808,LearnStrategy,2023.2.3,Win32,59.52380952,5,2,15,,,,,,,,7,14,,,,,,,,,,,,,7,1.537,1,,,,,,0.151666718,-0.395833359,1,0,0,1.5375,Peridotite_rect,14,0,14,0,1,
65c1512b51dc8b722a7fe306,SCR,2024-06-25_12h40.58.808,LearnStrategy,2023.2.3,Win32,59.52380952,5,2,16,,,,,,,,8,05,,,,,,,,,,,,,8,1.354,1,,,,,,0.3675,-0.405,1,0,0,1.3535,Pumice_rect,15,0,15,0,1,
65c1512b51dc8b722a7fe306,SCR,2024-06-25_12h40.58.808,LearnStrategy,2023.2.3,Win32,59.52380952,6,1,1,-0.54916666,0.40583333,1,0,0,7.6381,Pumice_08,8,08,6,1,7.638,6,07,-0.134166641,-0.236666718,1,0,0,1.8473,Basalt_rect,2,1.847,0,0,0,0,0,1,,,,,,,,,,,,,
65c1512b51dc8b722a7fe306,SCR,2024-06-25_12h40.58.808,LearnStrategy,2023.2.3,Win32,59.52380952,6,1,2,-0.41,0.40166666,1,0,0,0.966200001,Basalt_12,2,12,6,2,0.966,8,15,-0.375833321,-0.259166718,1,0,0,2.0348,Andesite_rect,1,2.035,0,1,0,1,0,1,,,,,,,,,,,,,
65c1512b51dc8b722a7fe306,SCR,2024-06-25_12h40.58.808,LearnStrategy,2023.2.3,Win32,59.52380952,6,1,3,-0.249166641,0.39583333,1,0,0,0.9484,Obsidian_07,5,07,6,3,0.948,3,11,-0.3925,-0.390833359,1,0,0,1.6006,Obsidian_rect,5,1.601,1,2,0,2,0,1,,,,,,,,,,,,,
65c1512b51dc8b722a7fe306,SCR,2024-06-25_12h40.58.808,LearnStrategy,2023.2.3,Win32,59.52380952,6,1,4,-0.069166641,0.37416666,1,0,0,0.869799999,Gabbro_12,4,12,6,4,0.87,1,09,-0.354166641,-0.2475,1,0,0,1.0188,Andesite_rect,1,1.019,0,3,0,3,0,1,,,,,,,,,,,,,
65c1512b51dc8b722a7fe306,SCR,2024-06-25_12h40.58.808,LearnStrategy,2023.2.3,Win32,59.52380952,6,1,5,0.024166718,0.405,1,0,0,0.8485,Basalt_02,2,02,6,5,0.849,3,11,-0.089166641,-0.228333359,1,0,0,1.0895,Basalt_rect,2,1.09,1,4,0,4,0,1,,,,,,,,,,,,,
65c1512b51dc8b722a7fe306,SCR,2024-06-25_12h40.58.808,LearnStrategy,2023.2.3,Win32,59.52380952,6,1,6,0.27,0.44833333,1,0,0,1.049200001,Pumice_15,8,15,6,6,1.049,2,02,0.4425,-0.260833359,1,0,0,1.5464,Gabbro_rect,4,1.546,0,5,0,5,0,1,,,,,,,,,,,,,
65c1512b51dc8b722a7fe306,SCR,2024-06-25_12h40.58.808,LearnStrategy,2023.2.3,Win32,59.52380952,6,1,7,0.426666718,0.38583333,1,0,0,1.281700001,Pegmatite_12,6,12,6,7,1.282,7,10,-0.1525,-0.39,1,0,0,1.3728,Pegmatite_rect,6,1.373,1,6,0,6,0,1,,,,,,,,,,,,,
65c1512b51dc8b722a7fe306,SCR,2024-06-25_12h40.58.808,LearnStrategy,2023.2.3,Win32,59.52380952,6,1,8,0.5775,0.3775,1,0,0,1.265,Andesite_10,1,10,6,8,1.265,1,07,0.381666718,-0.266666718,1,0,0,2.7236,Gabbro_rect,4,2.724,0,7,0,7,0,1,,,,,,,,,,,,,
65c1512b51dc8b722a7fe306,SCR,2024-06-25_12h40.58.808,LearnStrategy,2023.2.3,Win32,59.52380952,6,1,9,-0.57,0.26916666,1,0,0,1.396400001,Pumice_04,8,04,5,1,1.396,4,12,0.408333359,-0.4075,1,0,0,1.367700001,Pumice_rect,8,1.368,1,8,0,8,0,1,,,,,,,,,,,,,
65c1512b51dc8b722a7fe306,SCR,2024-06-25_12h40.58.808,LearnStrategy,2023.2.3,Win32,59.52380952,6,1,10,-0.3775,0.23916666,1,0,0,1.4325,Diorite_16,3,16,5,2,1.433,1,09,0.118333359,-0.233333359,1,0,0,1.5343,Diorite_rect,3,1.534,1,9,0,9,0,1,,,,,,,,,,,,,
65c1512b51dc8b722a7fe306,SCR,2024-06-25_12h40.58.808,LearnStrategy,2023.2.3,Win32,59.52380952,6,1,11,-0.230833321,0.248333321,1,0,0,1.130400001,Andesite_07,1,07,5,3,1.13,1,02,0.3875,-0.2525,1,0,0,1.8718,Gabbro_rect,4,1.872,0,10,0,10,0,1,,,,,,,,,,,,,
65c1512b51dc8b722a7fe306,SCR,2024-06-25_12h40.58.808,LearnStrategy,2023.2.3,Win32,59.52380952,6,1,12,-0.065833282,0.25166666,1,0,0,0.813400001,Peridotite_10,7,10,5,4,0.813,4,15,0.100833359,-0.4,1,0,0,1.986,Peridotite_rect,7,1.986,1,11,0,11,0,1,,,,,,,,,,,,,
65c1512b51dc8b722a7fe306,SCR,2024-06-25_12h40.58.808,LearnStrategy,2023.2.3,Win32,59.52380952,6,1,13,0.0675,0.11,1,0,0,13.7008,Basalt_01,2,01,4,5,13.701,4,01,-0.355,-0.250833359,1,0,0,1.489799999,Andesite_rect,1,1.49,0,12,0,12,0,1,,,,,,,,,,,,,
65c1512b51dc8b722a7fe306,SCR,2024-06-25_12h40.58.808,LearnStrategy,2023.2.3,Win32,59.52380952,6,1,14,0.251666718,0.080833321,1,0,0,1.315599999,Andesite_02,1,02,4,6,1.316,4,15,-0.095833282,-0.400833359,1,0,0,1.6676,Pegmatite_rect,6,1.668,0,13,0,13,0,1,,,,,,,,,,,,,
65c1512b51dc8b722a7fe306,SCR,2024-06-25_12h40.58.808,LearnStrategy,2023.2.3,Win32,59.52380952,6,1,15,0.4025,0.121666641,1,0,0,0.9479,Obsidian_02,5,02,4,7,0.948,2,12,-0.444166641,-0.393333359,1,0,0,1.242,Obsidian_rect,5,1.242,1,14,0,14,0,1,,,,,,,,,,,,,
65c1512b51dc8b722a7fe306,SCR,2024-06-25_12h40.58.808,LearnStrategy,2023.2.3,Win32,59.52380952,6,1,16,0.543333435,0.093333321,1,0,0,1.0135,Gabbro_08,4,08,4,8,1.014,5,07,0.405833359,-0.245833359,1,0,0,1.7579,Gabbro_rect,4,1.758,1,15,0,15,0,1,,,,,,,,,,,,,
65c1512b51dc8b722a7fe306,SCR,2024-06-25_12h40.58.808,LearnStrategy,2023.2.3,Win32,59.52380952,6,2,1,,,,,,,,8,02,,,,,,,,,,,,,8,1.918,1,,,,,,0.4175,-0.395,1,0,0,1.9183,Pumice_rect,0,0,0,0,1,
65c1512b51dc8b722a7fe306,SCR,2024-06-25_12h40.58.808,LearnStrategy,2023.2.3,Win32,59.52380952,6,2,2,,,,,,,,1,06,,,,,,,,,,,,,1,2.557,1,,,,,,-0.386666641,-0.254166718,1,0,0,2.5575,Andesite_rect,1,0,1,0,1,
65c1512b51dc8b722a7fe306,SCR,2024-06-25_12h40.58.808,LearnStrategy,2023.2.3,Win32,59.52380952,6,2,3,,,,,,,,7,06,,,,,,,,,,,,,7,3.237,1,,,,,,0.156666718,-0.4025,1,0,0,3.236599999,Peridotite_rect,2,0,2,0,1,
65c1512b51dc8b722a7fe306,SCR,2024-06-25_12h40.58.808,LearnStrategy,2023.2.3,Win32,59.52380952,6,2,4,,,,,,,,8,13,,,,,,,,,,,,,8,1.713,1,,,,,,0.451666718,-0.384166718,1,0,0,1.713,Pumice_rect,3,0,3,0,1,
65c1512b51dc8b722a7fe306,SCR,2024-06-25_12h40.58.808,LearnStrategy,2023.2.3,Win32,59.52380952,6,2,5,,,,,,,,4,03,,,,,,,,,,,,,1,1.437,0,,,,,,-0.363333321,-0.233333359,1,0,0,1.437,Andesite_rect,4,0,4,0,1,
65c1512b51dc8b722a7fe306,SCR,2024-06-25_12h40.58.808,LearnStrategy,2023.2.3,Win32,59.52380952,6,2,6,,,,,,,,3,09,,,,,,,,,,,,,3,1.639,1,,,,,,0.135,-0.253333359,1,0,0,1.6393,Diorite_rect,5,0,5,0,1,
65c1512b51dc8b722a7fe306,SCR,2024-06-25_12h40.58.808,LearnStrategy,2023.2.3,Win32,59.52380952,6,2,7,,,,,,,,5,10,,,,,,,,,,,,,5,1.388,1,,,,,,-0.428333321,-0.406666718,1,0,0,1.388,Obsidian_rect,6,0,6,0,1,
65c1512b51dc8b722a7fe306,SCR,2024-06-25_12h40.58.808,LearnStrategy,2023.2.3,Win32,59.52380952,6,2,8,,,,,,,,6,15,,,,,,,,,,,,,6,1.54,1,,,,,,-0.134166641,-0.403333359,1,0,0,1.5404,Pegmatite_rect,7,0,7,0,1,
65c1512b51dc8b722a7fe306,SCR,2024-06-25_12h40.58.808,LearnStrategy,2023.2.3,Win32,59.52380952,6,2,9,,,,,,,,4,13,,,,,,,,,,,,,4,1.609,1,,,,,,0.408333359,-0.234166718,1,0,0,1.6093,Gabbro_rect,8,0,8,0,1,
65c1512b51dc8b722a7fe306,SCR,2024-06-25_12h40.58.808,LearnStrategy,2023.2.3,Win32,59.52380952,6,2,10,,,,,,,,6,11,,,,,,,,,,,,,6,1.411,1,,,,,,-0.08,-0.391666718,1,0,0,1.4111,Pegmatite_rect,9,0,9,0,1,
65c1512b51dc8b722a7fe306,SCR,2024-06-25_12h40.58.808,LearnStrategy,2023.2.3,Win32,59.52380952,6,2,11,,,,,,,,1,16,,,,,,,,,,,,,2,2.376,0,,,,,,-0.085,-0.2625,1,0,0,2.376099999,Basalt_rect,10,0,10,0,1,
65c1512b51dc8b722a7fe306,SCR,2024-06-25_12h40.58.808,LearnStrategy,2023.2.3,Win32,59.52380952,6,2,12,,,,,,,,5,12,,,,,,,,,,,,,5,1.207,1,,,,,,-0.4075,-0.378333359,1,0,0,1.207,Obsidian_rect,11,0,11,0,1,
65c1512b51dc8b722a7fe306,SCR,2024-06-25_12h40.58.808,LearnStrategy,2023.2.3,Win32,59.52380952,6,2,13,,,,,,,,7,13,,,,,,,,,,,,,7,1.259,1,,,,,,0.0575,-0.4075,1,0,0,1.259,Peridotite_rect,12,0,12,0,1,
65c1512b51dc8b722a7fe306,SCR,2024-06-25_12h40.58.808,LearnStrategy,2023.2.3,Win32,59.52380952,6,2,14,,,,,,,,2,08,,,,,,,,,,,,,1,2.156,0,,,,,,-0.376666641,-0.245,1,0,0,2.156099999,Andesite_rect,13,0,13,0,1,
65c1512b51dc8b722a7fe306,SCR,2024-06-25_12h40.58.808,LearnStrategy,2023.2.3,Win32,59.52380952,6,2,15,,,,,,,,2,05,,,,,,,,,,,,,2,1.212,1,,,,,,-0.226666641,-0.255,1,0,0,1.2121,Basalt_rect,14,0,14,0,1,
65c1512b51dc8b722a7fe306,SCR,2024-06-25_12h40.58.808,LearnStrategy,2023.2.3,Win32,59.52380952,6,2,16,,,,,,,,3,10,,,,,,,,,,,,,4,1.56,0,,,,,,0.370833359,-0.259166718,1,0,0,1.5596,Gabbro_rect,15,0,15,0,1,
65c1512b51dc8b722a7fe306,SCR,2024-06-25_12h40.58.808,LearnStrategy,2023.2.3,Win32,59.52380952,7,1,1,-0.548333321,-0.0975,1,0,0,1.8035,Pumice_06,8,06,3,1,1.803,2,04,0.368333359,-0.398333359,1,0,0,2.4513,Pumice_rect,8,2.451,1,0,0,0,0,1,,,,,,,,,,,,,
65c1512b51dc8b722a7fe306,SCR,2024-06-25_12h40.58.808,LearnStrategy,2023.2.3,Win32,59.52380952,7,1,2,-0.389166641,-0.130833359,1,0,0,1.147400001,Diorite_08,3,08,3,2,1.147,2,01,0.113333359,-0.2575,1,0,0,1.1405,Diorite_rect,3,1.14,1,1,0,1,0,1,,,,,,,,,,,,,
65c1512b51dc8b722a7fe306,SCR,2024-06-25_12h40.58.808,LearnStrategy,2023.2.3,Win32,59.52380952,7,1,3,-0.228333321,-0.098333359,1,0,0,0.747,Pumice_09,8,09,3,3,0.747,6,03,0.421666718,-0.414166718,1,0,0,1.3297,Pumice_rect,8,1.33,1,2,0,2,0,1,,,,,,,,,,,,,
65c1512b51dc8b722a7fe306,SCR,2024-06-25_12h40.58.808,LearnStrategy,2023.2.3,Win32,59.52380952,7,1,4,-0.095833282,-0.13,1,0,0,0.6803,Diorite_07,3,07,3,4,0.68,4,05,0.165833359,-0.251666718,1,0,0,1.0774,Diorite_rect,3,1.077,1,3,0,3,0,1,,,,,,,,,,,,,
65c1512b51dc8b722a7fe306,SCR,2024-06-25_12h40.58.808,LearnStrategy,2023.2.3,Win32,59.52380952,7,1,5,0.050833359,-0.076666679,1,0,0,0.8478,Obsidian_06,5,06,3,5,0.848,3,02,-0.428333321,-0.388333359,1,0,0,1.1569,Obsidian_rect,5,1.157,1,4,0,4,0,1,,,,,,,,,,,,,
65c1512b51dc8b722a7fe306,SCR,2024-06-25_12h40.58.808,LearnStrategy,2023.2.3,Win32,59.52380952,7,1,6,0.261666718,-0.088333359,1,0,0,1.0958,Basalt_14,2,14,3,6,1.096,3,02,0.436666718,-0.253333359,1,0,0,1.323900001,Gabbro_rect,4,1.324,0,5,0,5,0,1,,,,,,,,,,,,,
65c1512b51dc8b722a7fe306,SCR,2024-06-25_12h40.58.808,LearnStrategy,2023.2.3,Win32,59.52380952,7,1,7,0.391666718,-0.108333359,1,0,0,1.3819,Diorite_11,3,11,3,7,1.382,1,10,0.175833359,-0.241666718,1,0,0,0.9141,Diorite_rect,3,0.914,1,6,0,6,0,1,,,,,,,,,,,,,
65c1512b51dc8b722a7fe306,SCR,2024-06-25_12h40.58.808,LearnStrategy,2023.2.3,Win32,59.52380952,7,1,8,0.578333435,-0.1225,1,0,0,1.1824,Obsidian_05,5,05,3,8,1.182,4,09,-0.419166641,-0.3875,1,0,0,3.234900001,Obsidian_rect,5,3.235,1,7,0,7,0,1,,,,,,,,,,,,,
65c1512b51dc8b722a7fe306,SCR,2024-06-25_12h40.58.808,LearnStrategy,2023.2.3,Win32,59.52380952,7,1,9,-0.545,-0.239166718,1,0,0,1.3467,Gabbro_05,4,05,2,1,1.347,1,09,-0.404166641,-0.260833359,1,0,0,2.0505,Andesite_rect,1,2.051,0,8,0,8,0,1,,,,,,,,,,,,,
65c1512b51dc8b722a7fe306,SCR,2024-06-25_12h40.58.808,LearnStrategy,2023.2.3,Win32,59.52380952,7,1,10,-0.37,-0.2375,1,0,0,0.8995,Obsidian_11,5,11,2,2,0.899,3,08,-0.44,-0.4025,1,0,0,0.9173,Obsidian_rect,5,0.917,1,9,0,9,0,1,,,,,,,,,,,,,
65c1512b51dc8b722a7fe306,SCR,2024-06-25_12h40.58.808,LearnStrategy,2023.2.3,Win32,59.52380952,7,1,11,-0.241666641,-0.290833359,1,0,0,1.0135,Pegmatite_06,6,06,2,3,1.014,1,02,-0.131666641,-0.410833359,1,0,0,2.2086,Pegmatite_rect,6,2.209,1,10,0,10,0,1,,,,,,,,,,,,,
65c1512b51dc8b722a7fe306,SCR,2024-06-25_12h40.58.808,LearnStrategy,2023.2.3,Win32,59.52380952,7,1,12,-0.079166641,-0.271666718,1,0,0,1.2318,Basalt_04,2,04,2,4,1.232,4,01,-0.079166641,-0.271666718,1,0,0,0.9245,Basalt_rect,2,0.924,1,11,0,11,0,1,,,,,,,,,,,,,
65c1512b51dc8b722a7fe306,SCR,2024-06-25_12h40.58.808,LearnStrategy,2023.2.3,Win32,59.52380952,7,1,13,-0.0625,-0.264166718,1,0,0,0.949,Basalt_04,2,04,2,4,0.949,2,02,-0.086666641,-0.256666718,1,0,0,1.6723,Basalt_rect,2,1.672,1,12,0,12,0,1,,,,,,,,,,,,,
65c1512b51dc8b722a7fe306,SCR,2024-06-25_12h40.58.808,LearnStrategy,2023.2.3,Win32,59.52380952,7,1,14,0.053333359,-0.2575,1,0,0,1.096599999,Peridotite_05,7,05,2,5,1.097,1,11,0.115833359,-0.395,1,0,0,1.8572,Peridotite_rect,7,1.857,1,13,0,13,0,1,,,,,,,,,,,,,
65c1512b51dc8b722a7fe306,SCR,2024-06-25_12h40.58.808,LearnStrategy,2023.2.3,Win32,59.52380952,7,1,15,0.228333359,-0.275,1,0,0,1.1977,Gabbro_09,4,09,2,6,1.198,8,16,-0.330833321,-0.228333359,1,0,0,3.422900001,Andesite_rect,1,3.423,0,14,0,14,0,1,,,,,,,,,,,,,
65c1512b51dc8b722a7fe306,SCR,2024-06-25_12h40.58.808,LearnStrategy,2023.2.3,Win32,59.52380952,7,1,16,0.435,-0.259166718,1,0,0,1.0987,Pegmatite_03,6,03,2,7,1.099,7,15,0.109166718,-0.4025,1,0,0,1.440299999,Peridotite_rect,7,1.44,0,15,0,15,0,1,,,,,,,,,,,,,
65c1512b51dc8b722a7fe306,SCR,2024-06-25_12h40.58.808,LearnStrategy,2023.2.3,Win32,59.52380952,7,2,1,,,,,,,,3,15,,,,,,,,,,,,,4,1.905,0,,,,,,0.403333359,-0.255833359,1,0,0,1.905099999,Gabbro_rect,0,0,0,0,1,
65c1512b51dc8b722a7fe306,SCR,2024-06-25_12h40.58.808,LearnStrategy,2023.2.3,Win32,59.52380952,7,2,2,,,,,,,,5,09,,,,,,,,,,,,,5,1.292,1,,,,,,-0.396666641,-0.395833359,1,0,0,1.291599999,Obsidian_rect,1,0,1,0,1,
65c1512b51dc8b722a7fe306,SCR,2024-06-25_12h40.58.808,LearnStrategy,2023.2.3,Win32,59.52380952,7,2,3,,,,,,,,5,10,,,,,,,,,,,,,5,0.672,1,,,,,,-0.396666641,-0.395833359,1,0,0,0.6721,Obsidian_rect,2,0,2,0,1,
65c1512b51dc8b722a7fe306,SCR,2024-06-25_12h40.58.808,LearnStrategy,2023.2.3,Win32,59.52380952,7,2,4,,,,,,,,1,16,,,,,,,,,,,,,2,2.021,0,,,,,,-0.1425,-0.2525,1,0,0,2.0205,Basalt_rect,3,0,3,0,1,
65c1512b51dc8b722a7fe306,SCR,2024-06-25_12h40.58.808,LearnStrategy,2023.2.3,Win32,59.52380952,7,2,5,,,,,,,,8,14,,,,,,,,,,,,,8,1.548,1,,,,,,0.415833359,-0.406666718,1,0,0,1.548200001,Pumice_rect,4,0,4,0,1,
65c1512b51dc8b722a7fe306,SCR,2024-06-25_12h40.58.808,LearnStrategy,2023.2.3,Win32,59.52380952,7,2,6,,,,,,,,2,05,,,,,,,,,,,,,1,1.372,0,,,,,,-0.403333321,-0.241666718,1,0,0,1.3722,Andesite_rect,5,0,5,0,1,
65c1512b51dc8b722a7fe306,SCR,2024-06-25_12h40.58.808,LearnStrategy,2023.2.3,Win32,59.52380952,7,2,7,,,,,,,,7,04,,,,,,,,,,,,,2,2.086,0,,,,,,-0.06,-0.235833359,1,0,0,2.0858,Basalt_rect,6,0,6,0,1,
65c1512b51dc8b722a7fe306,SCR,2024-06-25_12h40.58.808,LearnStrategy,2023.2.3,Win32,59.52380952,7,2,8,,,,,,,,8,10,,,,,,,,,,,,,4,2.771,0,,,,,,0.489166718,-0.2575,1,0,0,2.7711,Gabbro_rect,7,0,7,0,1,
65c1512b51dc8b722a7fe306,SCR,2024-06-25_12h40.58.808,LearnStrategy,2023.2.3,Win32,59.52380952,7,2,9,,,,,,,,1,03,,,,,,,,,,,,,1,1.461,1,,,,,,-0.406666641,-0.251666718,1,0,0,1.4606,Andesite_rect,8,0,8,0,1,
65c1512b51dc8b722a7fe306,SCR,2024-06-25_12h40.58.808,LearnStrategy,2023.2.3,Win32,59.52380952,7,2,10,,,,,,,,6,08,,,,,,,,,,,,,6,2.037,1,,,,,,-0.140833282,-0.410833359,1,0,0,2.037400001,Pegmatite_rect,9,0,9,0,1,
65c1512b51dc8b722a7fe306,SCR,2024-06-25_12h40.58.808,LearnStrategy,2023.2.3,Win32,59.52380952,7,2,11,,,,,,,,3,12,,,,,,,,,,,,,3,1.69,1,,,,,,0.118333359,-0.260833359,1,0,0,1.6896,Diorite_rect,10,0,10,0,1,
65c1512b51dc8b722a7fe306,SCR,2024-06-25_12h40.58.808,LearnStrategy,2023.2.3,Win32,59.52380952,7,2,12,,,,,,,,2,06,,,,,,,,,,,,,2,1.066,1,,,,,,-0.170833321,-0.250833359,1,0,0,1.0665,Basalt_rect,11,0,11,0,1,
65c1512b51dc8b722a7fe306,SCR,2024-06-25_12h40.58.808,LearnStrategy,2023.2.3,Win32,59.52380952,7,2,13,,,,,,,,4,16,,,,,,,,,,,,,2,2.54,0,,,,,,-0.130833282,-0.230833359,1,0,0,2.5398,Basalt_rect,12,0,12,0,1,
65c1512b51dc8b722a7fe306,SCR,2024-06-25_12h40.58.808,LearnStrategy,2023.2.3,Win32,59.52380952,7,2,14,,,,,,,,4,11,,,,,,,,,,,,,1,1.318,0,,,,,,-0.378333321,-0.230833359,1,0,0,1.3182,Andesite_rect,13,0,13,0,1,
65c1512b51dc8b722a7fe306,SCR,2024-06-25_12h40.58.808,LearnStrategy,2023.2.3,Win32,59.52380952,7,2,15,,,,,,,,7,13,,,,,,,,,,,,,7,1.257,1,,,,,,0.17,-0.415833359,1,0,0,1.257099999,Peridotite_rect,14,0,14,0,1,
65c1512b51dc8b722a7fe306,SCR,2024-06-25_12h40.58.808,LearnStrategy,2023.2.3,Win32,59.52380952,7,2,16,,,,,,,,6,13,,,,,,,,,,,,,6,1.188,1,,,,,,-0.0575,-0.415,1,0,0,1.188,Pegmatite_rect,15,0,15,0,1,
65c1512b51dc8b722a7fe306,SCR,2024-06-25_12h40.58.808,LearnStrategy,2023.2.3,Win32,59.52380952,8,1,1,0.524166718,-0.3875,1,0,0,1.1171,Pegmatite_05,6,05,1,8,1.117,3,08,-0.115,-0.404166718,1,0,0,1.9715,Pegmatite_rect,6,1.971,1,0,0,0,0,1,,,,,,,,,,,,,
65c1512b51dc8b722a7fe306,SCR,2024-06-25_12h40.58.808,LearnStrategy,2023.2.3,Win32,59.52380952,8,1,2,0.403333359,-0.418333359,1,0,0,1.0345,Andesite_09,1,09,1,7,1.034,2,01,-0.374166641,-0.241666718,1,0,0,2.906900001,Andesite_rect,1,2.907,1,1,0,1,0,1,,,,,,,,,,,,,
65c1512b51dc8b722a7fe306,SCR,2024-06-25_12h40.58.808,LearnStrategy,2023.2.3,Win32,59.52380952,8,1,3,0.224166718,-0.439166718,1,0,0,0.933,Peridotite_15,7,15,1,6,0.933,1,09,0.110833359,-0.389166718,1,0,0,0.866299999,Peridotite_rect,7,0.866,1,2,0,2,0,1,,,,,,,,,,,,,
65c1512b51dc8b722a7fe306,SCR,2024-06-25_12h40.58.808,LearnStrategy,2023.2.3,Win32,59.52380952,8,1,4,0.096666718,-0.441666718,1,0,0,1.049099999,Gabbro_15,4,15,1,5,1.049,4,09,0.450833359,-0.245,1,0,0,2.8686,Gabbro_rect,4,2.869,1,3,0,3,0,1,,,,,,,,,,,,,
65c1512b51dc8b722a7fe306,SCR,2024-06-25_12h40.58.808,LearnStrategy,2023.2.3,Win32,59.52380952,8,1,5,-0.058333282,-0.42,1,0,0,1.1504,Peridotite_07,7,07,1,4,1.15,6,07,0.1175,-0.250833359,1,0,0,1.1831,Diorite_rect,3,1.183,0,4,0,4,0,1,,,,,,,,,,,,,
65c1512b51dc8b722a7fe306,SCR,2024-06-25_12h40.58.808,LearnStrategy,2023.2.3,Win32,59.52380952,8,1,6,-0.2125,-0.414166718,1,0,0,2.565599999,Basalt_11,2,11,1,3,2.566,4,05,-0.175833321,-0.261666718,1,0,0,1.7062,Basalt_rect,2,1.706,1,5,0,5,0,1,,,,,,,,,,,,,
65c1512b51dc8b722a7fe306,SCR,2024-06-25_12h40.58.808,LearnStrategy,2023.2.3,Win32,59.52380952,8,1,7,-0.3925,-0.405833359,1,0,0,1.0982,Diorite_02,3,02,1,2,1.098,7,12,0.220833359,-0.258333359,1,0,0,1.441,Diorite_rect,3,1.441,1,6,0,6,0,1,,,,,,,,,,,,,
65c1512b51dc8b722a7fe306,SCR,2024-06-25_12h40.58.808,LearnStrategy,2023.2.3,Win32,59.52380952,8,1,8,-0.563333321,-0.3925,1,0,0,1.031599999,Pegmatite_07,6,07,1,1,1.032,3,07,-0.176666641,-0.406666718,1,0,0,1.2777,Pegmatite_rect,6,1.278,1,7,0,7,0,1,,,,,,,,,,,,,
65c1512b51dc8b722a7fe306,SCR,2024-06-25_12h40.58.808,LearnStrategy,2023.2.3,Win32,59.52380952,8,1,9,0.508333435,-0.244166718,1,0,0,1.314799999,Andesite_11,1,11,2,8,1.315,7,10,-0.345833321,-0.2425,1,0,0,1.1909,Andesite_rect,1,1.191,1,8,0,8,0,1,,,,,,,,,,,,,
65c1512b51dc8b722a7fe306,SCR,2024-06-25_12h40.58.808,LearnStrategy,2023.2.3,Win32,59.52380952,8,1,10,0.41,-0.278333359,1,0,0,0.8642,Pegmatite_03,6,03,2,7,0.864,2,02,-0.136666641,-0.384166718,1,0,0,1.175900001,Pegmatite_rect,6,1.176,1,9,0,9,0,1,,,,,,,,,,,,,
65c1512b51dc8b722a7fe306,SCR,2024-06-25_12h40.58.808,LearnStrategy,2023.2.3,Win32,59.52380952,8,1,11,0.200833359,-0.274166718,1,0,0,1.1315,Gabbro_09,4,09,2,6,1.131,2,12,-0.12,-0.248333359,1,0,0,2.4742,Basalt_rect,2,2.474,0,10,0,10,0,1,,,,,,,,,,,,,
65c1512b51dc8b722a7fe306,SCR,2024-06-25_12h40.58.808,LearnStrategy,2023.2.3,Win32,59.52380952,8,1,12,0.064166718,-0.258333359,1,0,0,1.064799999,Peridotite_05,7,05,2,5,1.065,1,10,0.15,-0.381666718,1,0,0,1.5253,Peridotite_rect,7,1.525,1,11,0,11,0,1,,,,,,,,,,,,,
65c1512b51dc8b722a7fe306,SCR,2024-06-25_12h40.58.808,LearnStrategy,2023.2.3,Win32,59.52380952,8,1,13,-0.09,-0.250833359,1,0,0,1.33,Basalt_04,2,04,2,4,1.33,1,11,-0.1625,-0.235833359,1,0,0,1.1416,Basalt_rect,2,1.142,1,12,0,12,0,1,,,,,,,,,,,,,
65c1512b51dc8b722a7fe306,SCR,2024-06-25_12h40.58.808,LearnStrategy,2023.2.3,Win32,59.52380952,8,1,14,-0.258333321,-0.276666718,1,0,0,1.2811,Pegmatite_06,6,06,2,3,1.281,4,05,-0.144166641,-0.379166718,1,0,0,0.8402,Pegmatite_rect,6,0.84,1,13,0,13,0,1,,,,,,,,,,,,,
65c1512b51dc8b722a7fe306,SCR,2024-06-25_12h40.58.808,LearnStrategy,2023.2.3,Win32,59.52380952,8,1,15,-0.3825,-0.269166718,1,0,0,1.2168,Obsidian_11,5,11,2,2,1.217,4,15,-0.425833321,-0.4,1,0,0,2.4559,Obsidian_rect,5,2.456,1,14,0,14,0,1,,,,,,,,,,,,,
65c1512b51dc8b722a7fe306,SCR,2024-06-25_12h40.58.808,LearnStrategy,2023.2.3,Win32,59.52380952,8,1,16,-0.548333321,-0.256666718,1,0,0,1.6313,Gabbro_05,4,05,2,1,1.631,8,09,0.405,-0.2475,1,0,0,1.5749,Gabbro_rect,4,1.575,1,15,0,15,0,1,,,,,,,,,,,,,
65c1512b51dc8b722a7fe306,SCR,2024-06-25_12h40.58.808,LearnStrategy,2023.2.3,Win32,59.52380952,8,2,1,,,,,,,,6,16,,,,,,,,,,,,,6,1.724,1,,,,,,-0.148333282,-0.4075,1,0,0,1.7235,Pegmatite_rect,0,0,0,0,1,
65c1512b51dc8b722a7fe306,SCR,2024-06-25_12h40.58.808,LearnStrategy,2023.2.3,Win32,59.52380952,8,2,2,,,,,,,,1,01,,,,,,,,,,,,,4,2.229,0,,,,,,0.4025,-0.238333359,1,0,0,2.2288,Gabbro_rect,1,0,1,0,1,
65c1512b51dc8b722a7fe306,SCR,2024-06-25_12h40.58.808,LearnStrategy,2023.2.3,Win32,59.52380952,8,2,3,,,,,,,,5,04,,,,,,,,,,,,,5,1.436,1,,,,,,-0.4025,-0.404166718,1,0,0,1.4363,Obsidian_rect,2,0,2,0,1,
65c1512b51dc8b722a7fe306,SCR,2024-06-25_12h40.58.808,LearnStrategy,2023.2.3,Win32,59.52380952,8,2,4,,,,,,,,4,13,,,,,,,,,,,,,3,3.574,0,,,,,,0.076666718,-0.241666718,1,0,0,3.5736,Diorite_rect,3,0,3,0,1,
65c1512b51dc8b722a7fe306,SCR,2024-06-25_12h40.58.808,LearnStrategy,2023.2.3,Win32,59.52380952,8,2,5,,,,,,,,6,11,,,,,,,,,,,,,6,1.22,1,,,,,,-0.135,-0.398333359,1,0,0,1.2201,Pegmatite_rect,4,0,4,0,1,
65c1512b51dc8b722a7fe306,SCR,2024-06-25_12h40.58.808,LearnStrategy,2023.2.3,Win32,59.52380952,8,2,6,,,,,,,,2,10,,,,,,,,,,,,,2,2.653,1,,,,,,-0.103333282,-0.244166718,1,0,0,2.653,Basalt_rect,5,0,5,0,1,
65c1512b51dc8b722a7fe306,SCR,2024-06-25_12h40.58.808,LearnStrategy,2023.2.3,Win32,59.52380952,8,2,7,,,,,,,,3,06,,,,,,,,,,,,,4,2.841,0,,,,,,0.324166718,-0.249166718,1,0,0,2.8415,Gabbro_rect,6,0,6,0,1,
65c1512b51dc8b722a7fe306,SCR,2024-06-25_12h40.58.808,LearnStrategy,2023.2.3,Win32,59.52380952,8,2,8,,,,,,,,3,09,,,,,,,,,,,,,3,1.195,1,,,,,,0.158333359,-0.24,1,0,0,1.194599999,Diorite_rect,7,0,7,0,1,
65c1512b51dc8b722a7fe306,SCR,2024-06-25_12h40.58.808,LearnStrategy,2023.2.3,Win32,59.52380952,8,2,9,,,,,,,,7,06,,,,,,,,,,,,,7,1.39,1,,,,,,0.149166718,-0.399166718,1,0,0,1.389700001,Peridotite_rect,8,0,8,0,1,
65c1512b51dc8b722a7fe306,SCR,2024-06-25_12h40.58.808,LearnStrategy,2023.2.3,Win32,59.52380952,8,2,10,,,,,,,,7,16,,,,,,,,,,,,,7,0.686,1,,,,,,0.149166718,-0.399166718,1,0,0,0.6863,Peridotite_rect,9,0,9,0,1,
65c1512b51dc8b722a7fe306,SCR,2024-06-25_12h40.58.808,LearnStrategy,2023.2.3,Win32,59.52380952,8,2,11,,,,,,,,8,05,,,,,,,,,,,,,8,1.557,1,,,,,,0.384166718,-0.3975,1,0,0,1.5568,Pumice_rect,10,0,10,0,1,
65c1512b51dc8b722a7fe306,SCR,2024-06-25_12h40.58.808,LearnStrategy,2023.2.3,Win32,59.52380952,8,2,12,,,,,,,,4,10,,,,,,,,,,,,,2,1.356,0,,,,,,-0.153333282,-0.235833359,1,0,0,1.3562,Basalt_rect,11,0,11,0,1,
65c1512b51dc8b722a7fe306,SCR,2024-06-25_12h40.58.808,LearnStrategy,2023.2.3,Win32,59.52380952,8,2,13,,,,,,,,1,06,,,,,,,,,,,,,1,2.356,1,,,,,,-0.403333321,-0.2425,1,0,0,2.3559,Andesite_rect,12,0,12,0,1,
65c1512b51dc8b722a7fe306,SCR,2024-06-25_12h40.58.808,LearnStrategy,2023.2.3,Win32,59.52380952,8,2,14,,,,,,,,5,12,,,,,,,,,,,,,5,1.594,1,,,,,,-0.435833321,-0.388333359,1,0,0,1.5943,Obsidian_rect,13,0,13,0,1,
65c1512b51dc8b722a7fe306,SCR,2024-06-25_12h40.58.808,LearnStrategy,2023.2.3,Win32,59.52380952,8,2,15,,,,,,,,8,03,,,,,,,,,,,,,8,1.391,1,,,,,,0.364166718,-0.385833359,1,0,0,1.391099999,Pumice_rect,14,0,14,0,1,
65c1512b51dc8b722a7fe306,SCR,2024-06-25_12h40.58.808,LearnStrategy,2023.2.3,Win32,59.52380952,8,2,16,,,,,,,,2,16,,,,,,,,,,,,,2,1.389,1,,,,,,-0.106666641,-0.270833359,1,0,0,1.3895,Basalt_rect,15,0,15,0,1,
65c1512b51dc8b722a7fe306,SCR,2024-06-25_12h40.58.808,LearnStrategy,2023.2.3,Win32,59.52380952,9,1,1,-0.555,-0.098333359,1,0,0,0.8009,Pumice_06,8,06,3,1,0.801,4,05,0.398333359,-0.393333359,1,0,0,1.1584,Pumice_rect,8,1.158,1,0,0,0,0,1,,,,,,,,,,,,,
65c1512b51dc8b722a7fe306,SCR,2024-06-25_12h40.58.808,LearnStrategy,2023.2.3,Win32,59.52380952,9,1,2,-0.401666641,-0.115833359,1,0,0,1.1995,Diorite_08,3,08,3,2,1.199,4,08,0.108333359,-0.248333359,1,0,0,1.157200001,Diorite_rect,3,1.157,1,1,0,1,0,1,,,,,,,,,,,,,
65c1512b51dc8b722a7fe306,SCR,2024-06-25_12h40.58.808,LearnStrategy,2023.2.3,Win32,59.52380952,9,1,3,-0.265833321,-0.104166679,1,0,0,1.0142,Pumice_09,8,09,3,3,1.014,1,10,0.406666718,-0.389166718,1,0,0,1.124599999,Pumice_rect,8,1.125,1,2,0,2,0,1,,,,,,,,,,,,,
65c1512b51dc8b722a7fe306,SCR,2024-06-25_12h40.58.808,LearnStrategy,2023.2.3,Win32,59.52380952,9,1,4,-0.063333282,-0.118333359,1,0,0,1.0479,Diorite_07,3,07,3,4,1.048,1,05,0.128333359,-0.2375,1,0,0,1.2754,Diorite_rect,3,1.275,1,3,0,3,0,1,,,,,,,,,,,,,
65c1512b51dc8b722a7fe306,SCR,2024-06-25_12h40.58.808,LearnStrategy,2023.2.3,Win32,59.52380952,9,1,5,0.058333359,-0.11,1,0,0,0.9479,Obsidian_06,5,06,3,5,0.948,3,16,-0.435833321,-0.3925,1,0,0,1.1546,Obsidian_rect,5,1.155,1,4,0,4,0,1,,,,,,,,,,,,,
65c1512b51dc8b722a7fe306,SCR,2024-06-25_12h40.58.808,LearnStrategy,2023.2.3,Win32,59.52380952,9,1,6,0.265,-0.115833359,1,0,0,1.014,Basalt_14,2,14,3,6,1.014,6,06,0.346666718,-0.268333359,1,0,0,1.2734,Gabbro_rect,4,1.273,0,5,0,5,0,1,,,,,,,,,,,,,
65c1512b51dc8b722a7fe306,SCR,2024-06-25_12h40.58.808,LearnStrategy,2023.2.3,Win32,59.52380952,9,1,7,0.393333359,-0.125,1,0,0,1.5642,Diorite_11,3,11,3,7,1.564,4,08,0.13,-0.248333359,1,0,0,1.8108,Diorite_rect,3,1.811,1,6,0,6,0,1,,,,,,,,,,,,,
65c1512b51dc8b722a7fe306,SCR,2024-06-25_12h40.58.808,LearnStrategy,2023.2.3,Win32,59.52380952,9,1,8,0.56,-0.096666679,1,0,0,1.4633,Obsidian_05,5,05,3,8,1.463,1,11,-0.350833321,-0.383333359,1,0,0,1.257700001,Obsidian_rect,5,1.258,1,7,0,7,0,1,,,,,,,,,,,,,
65c1512b51dc8b722a7fe306,SCR,2024-06-25_12h40.58.808,LearnStrategy,2023.2.3,Win32,59.52380952,9,1,9,-0.523333321,-0.2475,1,0,0,1.3308,Gabbro_05,4,05,2,1,1.331,3,08,0.380833359,-0.255833359,1,0,0,2.173700001,Gabbro_rect,4,2.174,1,8,0,8,0,1,,,,,,,,,,,,,
65c1512b51dc8b722a7fe306,SCR,2024-06-25_12h40.58.808,LearnStrategy,2023.2.3,Win32,59.52380952,9,1,10,-0.3825,-0.279166718,1,0,0,1.2653,Obsidian_11,5,11,2,2,1.265,2,04,-0.418333321,-0.3825,1,0,0,0.8718,Obsidian_rect,5,0.872,1,9,0,9,0,1,,,,,,,,,,,,,
65c1512b51dc8b722a7fe306,SCR,2024-06-25_12h40.58.808,LearnStrategy,2023.2.3,Win32,59.52380952,9,1,11,-0.244166641,-0.230833359,1,0,0,1.3995,Pegmatite_06,6,06,2,3,1.399,4,01,-0.135,-0.383333359,1,0,0,1.1061,Pegmatite_rect,6,1.106,1,10,0,10,0,1,,,,,,,,,,,,,
65c1512b51dc8b722a7fe306,SCR,2024-06-25_12h40.58.808,LearnStrategy,2023.2.3,Win32,59.52380952,9,1,12,-0.0725,-0.300833359,1,0,0,0.931,Basalt_04,2,04,2,4,0.931,3,14,-0.121666641,-0.256666718,1,0,0,0.740900001,Basalt_rect,2,0.741,1,11,0,11,0,1,,,,,,,,,,,,,
65c1512b51dc8b722a7fe306,SCR,2024-06-25_12h40.58.808,LearnStrategy,2023.2.3,Win32,59.52380952,9,1,13,0.105833359,-0.265833359,1,0,0,1.448400001,Peridotite_05,7,05,2,5,1.448,8,09,0.1675,-0.403333359,1,0,0,1.356200001,Peridotite_rect,7,1.356,1,12,0,12,0,1,,,,,,,,,,,,,
65c1512b51dc8b722a7fe306,SCR,2024-06-25_12h40.58.808,LearnStrategy,2023.2.3,Win32,59.52380952,9,1,14,0.249166718,-0.275833359,1,0,0,1.0463,Gabbro_09,4,09,2,6,1.046,4,15,0.425,-0.245833359,1,0,0,1.892900001,Gabbro_rect,4,1.893,1,13,0,13,0,1,,,,,,,,,,,,,
65c1512b51dc8b722a7fe306,SCR,2024-06-25_12h40.58.808,LearnStrategy,2023.2.3,Win32,59.52380952,9,1,15,0.408333359,-0.2575,1,0,0,1.0487,Pegmatite_03,6,03,2,7,1.049,7,07,-0.038333282,-0.4125,1,0,0,2.907599999,Pegmatite_rect,6,2.908,1,14,0,14,0,1,,,,,,,,,,,,,
65c1512b51dc8b722a7fe306,SCR,2024-06-25_12h40.58.808,LearnStrategy,2023.2.3,Win32,59.52380952,9,1,16,0.575,-0.26,1,0,0,1.176,Andesite_11,1,11,2,8,1.176,2,11,-0.130833282,-0.270833359,1,0,0,1.0372,Basalt_rect,2,1.037,0,15,0,15,0,1,,,,,,,,,,,,,
65c1512b51dc8b722a7fe306,SCR,2024-06-25_12h40.58.808,LearnStrategy,2023.2.3,Win32,59.52380952,9,2,1,,,,,,,,7,02,,,,,,,,,,,,,7,1.683,1,,,,,,0.134166718,-0.404166718,1,0,0,1.682900001,Peridotite_rect,0,0,0,0,1,
65c1512b51dc8b722a7fe306,SCR,2024-06-25_12h40.58.808,LearnStrategy,2023.2.3,Win32,59.52380952,9,2,2,,,,,,,,7,14,,,,,,,,,,,,,7,1.857,1,,,,,,0.134166718,-0.404166718,1,0,0,1.8567,Peridotite_rect,1,0,1,0,1,
65c1512b51dc8b722a7fe306,SCR,2024-06-25_12h40.58.808,LearnStrategy,2023.2.3,Win32,59.52380952,9,2,3,,,,,,,,5,16,,,,,,,,,,,,,5,1.468,1,,,,,,-0.405,-0.3825,1,0,0,1.4676,Obsidian_rect,2,0,2,0,1,
65c1512b51dc8b722a7fe306,SCR,2024-06-25_12h40.58.808,LearnStrategy,2023.2.3,Win32,59.52380952,9,2,4,,,,,,,,5,08,,,,,,,,,,,,,5,0.938,1,,,,,,-0.405,-0.3825,1,0,0,0.938,Obsidian_rect,3,0,3,0,1,
65c1512b51dc8b722a7fe306,SCR,2024-06-25_12h40.58.808,LearnStrategy,2023.2.3,Win32,59.52380952,9,2,5,,,,,,,,2,08,,,,,,,,,,,,,1,2.936,0,,,,,,-0.388333321,-0.239166718,1,0,0,2.9355,Andesite_rect,4,0,4,0,1,
65c1512b51dc8b722a7fe306,SCR,2024-06-25_12h40.58.808,LearnStrategy,2023.2.3,Win32,59.52380952,9,2,6,,,,,,,,4,03,,,,,,,,,,,,,1,2.208,0,,,,,,-0.445,-0.233333359,1,0,0,2.2079,Andesite_rect,5,0,5,0,1,
65c1512b51dc8b722a7fe306,SCR,2024-06-25_12h40.58.808,LearnStrategy,2023.2.3,Win32,59.52380952,9,2,7,,,,,,,,2,09,,,,,,,,,,,,,2,1.116,1,,,,,,-0.155,-0.253333359,1,0,0,1.116,Basalt_rect,6,0,6,0,1,
65c1512b51dc8b722a7fe306,SCR,2024-06-25_12h40.58.808,LearnStrategy,2023.2.3,Win32,59.52380952,9,2,8,,,,,,,,8,13,,,,,,,,,,,,,8,1.558,1,,,,,,0.396666718,-0.404166718,1,0,0,1.557599999,Pumice_rect,7,0,7,0,1,
65c1512b51dc8b722a7fe306,SCR,2024-06-25_12h40.58.808,LearnStrategy,2023.2.3,Win32,59.52380952,9,2,9,,,,,,,,6,10,,,,,,,,,,,,,7,1.186,0,,,,,,0.179166718,-0.400833359,1,0,0,1.1857,Peridotite_rect,8,0,8,0,1,
65c1512b51dc8b722a7fe306,SCR,2024-06-25_12h40.58.808,LearnStrategy,2023.2.3,Win32,59.52380952,9,2,10,,,,,,,,1,14,,,,,,,,,,,,,4,4.932,0,,,,,,0.370833359,-0.251666718,1,0,0,4.9317,Gabbro_rect,9,0,9,0,1,
65c1512b51dc8b722a7fe306,SCR,2024-06-25_12h40.58.808,LearnStrategy,2023.2.3,Win32,59.52380952,9,2,11,,,,,,,,1,04,,,,,,,,,,,,,2,1.583,0,,,,,,-0.1725,-0.25,1,0,0,1.5831,Basalt_rect,10,0,10,0,1,
65c1512b51dc8b722a7fe306,SCR,2024-06-25_12h40.58.808,LearnStrategy,2023.2.3,Win32,59.52380952,9,2,12,,,,,,,,4,14,,,,,,,,,,,,,1,3.519,0,,,,,,-0.38,-0.243333359,1,0,0,3.519200001,Andesite_rect,11,0,11,0,1,
65c1512b51dc8b722a7fe306,SCR,2024-06-25_12h40.58.808,LearnStrategy,2023.2.3,Win32,59.52380952,9,2,13,,,,,,,,3,13,,,,,,,,,,,,,3,1.351,1,,,,,,0.098333359,-0.238333359,1,0,0,1.3513,Diorite_rect,12,0,12,0,1,
65c1512b51dc8b722a7fe306,SCR,2024-06-25_12h40.58.808,LearnStrategy,2023.2.3,Win32,59.52380952,9,2,14,,,,,,,,3,10,,,,,,,,,,,,,3,1.295,1,,,,,,0.098333359,-0.238333359,1,0,0,1.295,Diorite_rect,13,0,13,0,1,
65c1512b51dc8b722a7fe306,SCR,2024-06-25_12h40.58.808,LearnStrategy,2023.2.3,Win32,59.52380952,9,2,15,,,,,,,,6,15,,,,,,,,,,,,,6,1.097,1,,,,,,-0.131666641,-0.3825,1,0,0,1.097299999,Pegmatite_rect,14,0,14,0,1,
65c1512b51dc8b722a7fe306,SCR,2024-06-25_12h40.58.808,LearnStrategy,2023.2.3,Win32,59.52380952,9,2,16,,,,,,,,8,02,,,,,,,,,,,,,8,1.322,1,,,,,,0.398333359,-0.393333359,1,0,0,1.322099999,Pumice_rect,15,0,15,0,1,
65c1512b51dc8b722a7fe306,SCR,2024-06-25_12h40.58.808,LearnStrategy,2023.2.3,Win32,59.52380952,,,,,,,,,,,,,,,,,,,,,,,,,,,,,,,,,,,,,,,,,,,,,0
65c1512b51dc8b722a7fe306,SCR,2024-06-25_12h40.58.808,LearnStrategy,2023.2.3,Win32,59.52380952,,,,,,,,,,,,,,,,,,,,,,,,,,,,,,,,,,,,,,,,,,,,,
65c1512b51dc8b722a7fe306,SCR,2024-06-25_12h40.58.808,LearnStrategy,2023.2.3,Win32,59.52380952,,,,,,,,,,,6,07,1,1,,,,,,,,,,,,,,,,,,,,,,,,,,,,,,,
65c1512b51dc8b722a7fe306,SCR,2024-06-25_12h40.58.808,LearnStrategy,2023.2.3,Win32,59.52380952,,,,,,,,,,,3,02,1,2,,,,,,,,,,,,,,,,,,,,,,,,,,,,,,,
65c1512b51dc8b722a7fe306,SCR,2024-06-25_12h40.58.808,LearnStrategy,2023.2.3,Win32,59.52380952,,,,,,,,,,,2,11,1,3,,,,,,,,,,,,,,,,,,,,,,,,,,,,,,,
65c1512b51dc8b722a7fe306,SCR,2024-06-25_12h40.58.808,LearnStrategy,2023.2.3,Win32,59.52380952,,,,,,,,,,,7,07,1,4,,,,,,,,,,,,,,,,,,,,,,,,,,,,,,,
65c1512b51dc8b722a7fe306,SCR,2024-06-25_12h40.58.808,LearnStrategy,2023.2.3,Win32,59.52380952,,,,,,,,,,,4,15,1,5,,,,,,,,,,,,,,,,,,,,,,,,,,,,,,,
65c1512b51dc8b722a7fe306,SCR,2024-06-25_12h40.58.808,LearnStrategy,2023.2.3,Win32,59.52380952,,,,,,,,,,,7,15,1,6,,,,,,,,,,,,,,,,,,,,,,,,,,,,,,,
65c1512b51dc8b722a7fe306,SCR,2024-06-25_12h40.58.808,LearnStrategy,2023.2.3,Win32,59.52380952,,,,,,,,,,,1,09,1,7,,,,,,,,,,,,,,,,,,,,,,,,,,,,,,,
65c1512b51dc8b722a7fe306,SCR,2024-06-25_12h40.58.808,LearnStrategy,2023.2.3,Win32,59.52380952,,,,,,,,,,,6,05,1,8,,,,,,,,,,,,,,,,,,,,,,,,,,,,,,,
65c1512b51dc8b722a7fe306,SCR,2024-06-25_12h40.58.808,LearnStrategy,2023.2.3,Win32,59.52380952,,,,,,,,,,,4,05,2,1,,,,,,,,,,,,,,,,,,,,,,,,,,,,,,,
65c1512b51dc8b722a7fe306,SCR,2024-06-25_12h40.58.808,LearnStrategy,2023.2.3,Win32,59.52380952,,,,,,,,,,,5,11,2,2,,,,,,,,,,,,,,,,,,,,,,,,,,,,,,,
65c1512b51dc8b722a7fe306,SCR,2024-06-25_12h40.58.808,LearnStrategy,2023.2.3,Win32,59.52380952,,,,,,,,,,,6,06,2,3,,,,,,,,,,,,,,,,,,,,,,,,,,,,,,,
65c1512b51dc8b722a7fe306,SCR,2024-06-25_12h40.58.808,LearnStrategy,2023.2.3,Win32,59.52380952,,,,,,,,,,,2,04,2,4,,,,,,,,,,,,,,,,,,,,,,,,,,,,,,,
65c1512b51dc8b722a7fe306,SCR,2024-06-25_12h40.58.808,LearnStrategy,2023.2.3,Win32,59.52380952,,,,,,,,,,,7,05,2,5,,,,,,,,,,,,,,,,,,,,,,,,,,,,,,,
65c1512b51dc8b722a7fe306,SCR,2024-06-25_12h40.58.808,LearnStrategy,2023.2.3,Win32,59.52380952,,,,,,,,,,,4,09,2,6,,,,,,,,,,,,,,,,,,,,,,,,,,,,,,,
65c1512b51dc8b722a7fe306,SCR,2024-06-25_12h40.58.808,LearnStrategy,2023.2.3,Win32,59.52380952,,,,,,,,,,,6,03,2,7,,,,,,,,,,,,,,,,,,,,,,,,,,,,,,,
65c1512b51dc8b722a7fe306,SCR,2024-06-25_12h40.58.808,LearnStrategy,2023.2.3,Win32,59.52380952,,,,,,,,,,,1,11,2,8,,,,,,,,,,,,,,,,,,,,,,,,,,,,,,,
65c1512b51dc8b722a7fe306,SCR,2024-06-25_12h40.58.808,LearnStrategy,2023.2.3,Win32,59.52380952,,,,,,,,,,,8,06,3,1,,,,,,,,,,,,,,,,,,,,,,,,,,,,,,,
65c1512b51dc8b722a7fe306,SCR,2024-06-25_12h40.58.808,LearnStrategy,2023.2.3,Win32,59.52380952,,,,,,,,,,,3,08,3,2,,,,,,,,,,,,,,,,,,,,,,,,,,,,,,,
65c1512b51dc8b722a7fe306,SCR,2024-06-25_12h40.58.808,LearnStrategy,2023.2.3,Win32,59.52380952,,,,,,,,,,,8,09,3,3,,,,,,,,,,,,,,,,,,,,,,,,,,,,,,,
65c1512b51dc8b722a7fe306,SCR,2024-06-25_12h40.58.808,LearnStrategy,2023.2.3,Win32,59.52380952,,,,,,,,,,,3,07,3,4,,,,,,,,,,,,,,,,,,,,,,,,,,,,,,,
65c1512b51dc8b722a7fe306,SCR,2024-06-25_12h40.58.808,LearnStrategy,2023.2.3,Win32,59.52380952,,,,,,,,,,,5,06,3,5,,,,,,,,,,,,,,,,,,,,,,,,,,,,,,,
65c1512b51dc8b722a7fe306,SCR,2024-06-25_12h40.58.808,LearnStrategy,2023.2.3,Win32,59.52380952,,,,,,,,,,,2,14,3,6,,,,,,,,,,,,,,,,,,,,,,,,,,,,,,,
65c1512b51dc8b722a7fe306,SCR,2024-06-25_12h40.58.808,LearnStrategy,2023.2.3,Win32,59.52380952,,,,,,,,,,,3,11,3,7,,,,,,,,,,,,,,,,,,,,,,,,,,,,,,,
65c1512b51dc8b722a7fe306,SCR,2024-06-25_12h40.58.808,LearnStrategy,2023.2.3,Win32,59.52380952,,,,,,,,,,,5,05,3,8,,,,,,,,,,,,,,,,,,,,,,,,,,,,,,,
65c1512b51dc8b722a7fe306,SCR,2024-06-25_12h40.58.808,LearnStrategy,2023.2.3,Win32,59.52380952,,,,,,,,,,,5,14,4,1,,,,,,,,,,,,,,,,,,,,,,,,,,,,,,,
65c1512b51dc8b722a7fe306,SCR,2024-06-25_12h40.58.808,LearnStrategy,2023.2.3,Win32,59.52380952,,,,,,,,,,,1,05,4,2,,,,,,,,,,,,,,,,,,,,,,,,,,,,,,,
65c1512b51dc8b722a7fe306,SCR,2024-06-25_12h40.58.808,LearnStrategy,2023.2.3,Win32,59.52380952,,,,,,,,,,,7,08,4,3,,,,,,,,,,,,,,,,,,,,,,,,,,,,,,,
65c1512b51dc8b722a7fe306,SCR,2024-06-25_12h40.58.808,LearnStrategy,2023.2.3,Win32,59.52380952,,,,,,,,,,,4,01,4,4,,,,,,,,,,,,,,,,,,,,,,,,,,,,,,,
65c1512b51dc8b722a7fe306,SCR,2024-06-25_12h40.58.808,LearnStrategy,2023.2.3,Win32,59.52380952,,,,,,,,,,,2,01,4,5,,,,,,,,,,,,,,,,,,,,,,,,,,,,,,,
65c1512b51dc8b722a7fe306,SCR,2024-06-25_12h40.58.808,LearnStrategy,2023.2.3,Win32,59.52380952,,,,,,,,,,,1,02,4,6,,,,,,,,,,,,,,,,,,,,,,,,,,,,,,,
65c1512b51dc8b722a7fe306,SCR,2024-06-25_12h40.58.808,LearnStrategy,2023.2.3,Win32,59.52380952,,,,,,,,,,,5,02,4,7,,,,,,,,,,,,,,,,,,,,,,,,,,,,,,,
65c1512b51dc8b722a7fe306,SCR,2024-06-25_12h40.58.808,LearnStrategy,2023.2.3,Win32,59.52380952,,,,,,,,,,,4,08,4,8,,,,,,,,,,,,,,,,,,,,,,,,,,,,,,,
65c1512b51dc8b722a7fe306,SCR,2024-06-25_12h40.58.808,LearnStrategy,2023.2.3,Win32,59.52380952,,,,,,,,,,,8,04,5,1,,,,,,,,,,,,,,,,,,,,,,,,,,,,,,,
65c1512b51dc8b722a7fe306,SCR,2024-06-25_12h40.58.808,LearnStrategy,2023.2.3,Win32,59.52380952,,,,,,,,,,,3,16,5,2,,,,,,,,,,,,,,,,,,,,,,,,,,,,,,,
65c1512b51dc8b722a7fe306,SCR,2024-06-25_12h40.58.808,LearnStrategy,2023.2.3,Win32,59.52380952,,,,,,,,,,,1,07,5,3,,,,,,,,,,,,,,,,,,,,,,,,,,,,,,,
65c1512b51dc8b722a7fe306,SCR,2024-06-25_12h40.58.808,LearnStrategy,2023.2.3,Win32,59.52380952,,,,,,,,,,,7,10,5,4,,,,,,,,,,,,,,,,,,,,,,,,,,,,,,,
65c1512b51dc8b722a7fe306,SCR,2024-06-25_12h40.58.808,LearnStrategy,2023.2.3,Win32,59.52380952,,,,,,,,,,,6,09,5,5,,,,,,,,,,,,,,,,,,,,,,,,,,,,,,,
65c1512b51dc8b722a7fe306,SCR,2024-06-25_12h40.58.808,LearnStrategy,2023.2.3,Win32,59.52380952,,,,,,,,,,,3,14,5,6,,,,,,,,,,,,,,,,,,,,,,,,,,,,,,,
65c1512b51dc8b722a7fe306,SCR,2024-06-25_12h40.58.808,LearnStrategy,2023.2.3,Win32,59.52380952,,,,,,,,,,,7,12,5,7,,,,,,,,,,,,,,,,,,,,,,,,,,,,,,,
65c1512b51dc8b722a7fe306,SCR,2024-06-25_12h40.58.808,LearnStrategy,2023.2.3,Win32,59.52380952,,,,,,,,,,,8,16,5,8,,,,,,,,,,,,,,,,,,,,,,,,,,,,,,,
65c1512b51dc8b722a7fe306,SCR,2024-06-25_12h40.58.808,LearnStrategy,2023.2.3,Win32,59.52380952,,,,,,,,,,,8,08,6,1,,,,,,,,,,,,,,,,,,,,,,,,,,,,,,,
65c1512b51dc8b722a7fe306,SCR,2024-06-25_12h40.58.808,LearnStrategy,2023.2.3,Win32,59.52380952,,,,,,,,,,,2,12,6,2,,,,,,,,,,,,,,,,,,,,,,,,,,,,,,,
65c1512b51dc8b722a7fe306,SCR,2024-06-25_12h40.58.808,LearnStrategy,2023.2.3,Win32,59.52380952,,,,,,,,,,,5,07,6,3,,,,,,,,,,,,,,,,,,,,,,,,,,,,,,,
65c1512b51dc8b722a7fe306,SCR,2024-06-25_12h40.58.808,LearnStrategy,2023.2.3,Win32,59.52380952,,,,,,,,,,,4,12,6,4,,,,,,,,,,,,,,,,,,,,,,,,,,,,,,,
65c1512b51dc8b722a7fe306,SCR,2024-06-25_12h40.58.808,LearnStrategy,2023.2.3,Win32,59.52380952,,,,,,,,,,,2,02,6,5,,,,,,,,,,,,,,,,,,,,,,,,,,,,,,,
65c1512b51dc8b722a7fe306,SCR,2024-06-25_12h40.58.808,LearnStrategy,2023.2.3,Win32,59.52380952,,,,,,,,,,,8,15,6,6,,,,,,,,,,,,,,,,,,,,,,,,,,,,,,,
65c1512b51dc8b722a7fe306,SCR,2024-06-25_12h40.58.808,LearnStrategy,2023.2.3,Win32,59.52380952,,,,,,,,,,,6,12,6,7,,,,,,,,,,,,,,,,,,,,,,,,,,,,,,,
65c1512b51dc8b722a7fe306,SCR,2024-06-25_12h40.58.808,LearnStrategy,2023.2.3,Win32,59.52380952,,,,,,,,,,,1,10,6,8,,,,,,,,,,,,,,,,,,,,,,,,,,,,,,,