participant,condition,date,expName,psychopyVersion,OS,frameRate,block,phase,trial,learn_mouse_2.x,learn_mouse_2.y,learn_mouse_2.leftButton,learn_mouse_2.midButton,learn_mouse_2.rightButton,learn_mouse_2.time,learn_mouse_2.clicked_name,cat,token,row,col,t_select,cat_mouse_l.x,cat_mouse_l.y,cat_mouse_l.leftButton,cat_mouse_l.midButton,cat_mouse_l.rightButton,cat_mouse_l.time,cat_mouse_l.clicked_name,resp,t_resp,corr,train_trials.thisRepN,train_trials.thisTrialN,train_trials.thisN,train_trials.thisIndex,train_trials.ran,cat_mouse_t.x,cat_mouse_t.y,cat_mouse_t.leftButton,cat_mouse_t.midButton,cat_mouse_t.rightButton,cat_mouse_t.time,cat_mouse_t.clicked_name,test_trials.thisRepN,test_trials.thisTrialN,test_trials.thisN,test_trials.thisIndex,test_trials.ran,Bonus
65c243c37e0d77ca70ee030e,TCN,2024-06-21_14h04.23.190,LearnStrategy,2023.2.3,Win32,60.24096386,,,,,,,,,,,,,,,,,,,,,,,,,,,,,,,,,,,,,,,,,,,
65c243c37e0d77ca70ee030e,TCN,2024-06-21_14h04.23.190,LearnStrategy,2023.2.3,Win32,60.24096386,1,1,1,-0.038888889,0.000925912,1,0,0,1.8379,rock_grid_rect_2,6,10,-1,-1,1.838,-0.372222222,-0.249074131,1,0,0,13.016,Andesite_rect,1,13.016,0,0,0,0,0,1,,,,,,,,,,,,,
65c243c37e0d77ca70ee030e,TCN,2024-06-21_14h04.23.190,LearnStrategy,2023.2.3,Win32,60.24096386,1,1,2,-0.009259203,0.005555556,1,0,0,1.1295,rock_grid_rect_2,5,08,-1,-1,1.129,-0.363888889,-0.401851908,1,0,0,6.9928,Obsidian_rect,5,6.993,1,1,0,1,0,1,,,,,,,,,,,,,
65c243c37e0d77ca70ee030e,TCN,2024-06-21_14h04.23.190,LearnStrategy,2023.2.3,Win32,60.24096386,1,1,3,0.000925954,-0.00648151,1,0,0,1.5682,rock_grid_rect_2,5,07,-1,-1,1.568,-0.128703647,-0.259259288,1,0,0,5.1389,Basalt_rect,2,5.139,0,2,0,2,0,1,,,,,,,,,,,,,
65c243c37e0d77ca70ee030e,TCN,2024-06-21_14h04.23.190,LearnStrategy,2023.2.3,Win32,60.24096386,1,1,4,0.019444444,-0.009259288,1,0,0,8.7644,rock_grid_rect_2,1,07,-1,-1,8.764,0.327777778,-0.38148151,1,0,0,4.1373,Pumice_rect,8,4.137,0,3,0,3,0,1,,,,,,,,,,,,,
65c243c37e0d77ca70ee030e,TCN,2024-06-21_14h04.23.190,LearnStrategy,2023.2.3,Win32,60.24096386,1,1,5,-0.059259203,0.001851824,1,0,0,0.7409,rock_grid_rect_2,6,13,-1,-1,0.741,0.325925954,-0.246296353,1,0,0,5.1553,Gabbro_rect,4,5.155,0,4,0,4,0,1,,,,,,,,,,,,,
65c243c37e0d77ca70ee030e,TCN,2024-06-21_14h04.23.190,LearnStrategy,2023.2.3,Win32,60.24096386,1,1,6,0.018518575,-0.007407422,1,0,0,0.845,rock_grid_rect_2,3,11,-1,-1,0.845,0.091666667,-0.251851908,1,0,0,2.0475,Diorite_rect,3,2.048,1,5,0,5,0,1,,,,,,,,,,,,,
65c243c37e0d77ca70ee030e,TCN,2024-06-21_14h04.23.190,LearnStrategy,2023.2.3,Win32,60.24096386,1,1,7,0.052777778,-0.012037065,1,0,0,6.0458,rock_grid_rect_2,8,10,-1,-1,6.046,0.324074131,-0.385185242,1,0,0,3.0678,Pumice_rect,8,3.068,1,6,0,6,0,1,,,,,,,,,,,,,
65c243c37e0d77ca70ee030e,TCN,2024-06-21_14h04.23.190,LearnStrategy,2023.2.3,Win32,60.24096386,1,1,8,-0.01851849,-0.00648151,1,0,0,0.8938,rock_grid_rect_2,2,05,-1,-1,0.894,0.332407464,-0.251851908,1,0,0,5.0908,Gabbro_rect,4,5.091,0,7,0,7,0,1,,,,,,,,,,,,,
65c243c37e0d77ca70ee030e,TCN,2024-06-21_14h04.23.190,LearnStrategy,2023.2.3,Win32,60.24096386,1,1,9,-0.099074046,0.004629601,1,0,0,0.974,rock_grid_rect_2,3,16,-1,-1,0.974,-0.133333333,-0.390740797,1,0,0,2.6318,Pegmatite_rect,6,2.632,0,8,0,8,0,1,,,,,,,,,,,,,
65c243c37e0d77ca70ee030e,TCN,2024-06-21_14h04.23.190,LearnStrategy,2023.2.3,Win32,60.24096386,1,1,10,-0.045370314,0.006481467,1,0,0,0.8962,rock_grid_rect_2,4,15,-1,-1,0.896,-0.137036981,-0.240740797,1,0,0,2.1189,Basalt_rect,2,2.119,0,9,0,9,0,1,,,,,,,,,,,,,
65c243c37e0d77ca70ee030e,TCN,2024-06-21_14h04.23.190,LearnStrategy,2023.2.3,Win32,60.24096386,1,1,11,-0.070370314,-0.011111111,1,0,0,0.9407,rock_grid_rect_2,4,11,-1,-1,0.941,-0.383333333,-0.401851908,1,0,0,3.668,Obsidian_rect,5,3.668,0,10,0,10,0,1,,,,,,,,,,,,,
65c243c37e0d77ca70ee030e,TCN,2024-06-21_14h04.23.190,LearnStrategy,2023.2.3,Win32,60.24096386,1,1,12,-0.054629601,0.009259245,1,0,0,0.8069,rock_grid_rect_2,7,16,-1,-1,0.807,0.095370399,-0.249074131,1,0,0,3.2849,Diorite_rect,3,3.285,0,11,0,11,0,1,,,,,,,,,,,,,
65c243c37e0d77ca70ee030e,TCN,2024-06-21_14h04.23.190,LearnStrategy,2023.2.3,Win32,60.24096386,1,1,13,-0.042592536,-0.003703732,1,0,0,1.2271,rock_grid_rect_2,8,06,-1,-1,1.227,0.420370399,-0.40648151,1,0,0,11.0517,Pumice_rect,8,11.052,1,12,0,12,0,1,,,,,,,,,,,,,
65c243c37e0d77ca70ee030e,TCN,2024-06-21_14h04.23.190,LearnStrategy,2023.2.3,Win32,60.24096386,1,1,14,-0.01851849,-0.008333333,1,0,0,0.8728,rock_grid_rect_2,7,12,-1,-1,0.873,0.091666667,-0.25,1,0,0,24.4192,Diorite_rect,3,24.419,0,13,0,13,0,1,,,,,,,,,,,,,
65c243c37e0d77ca70ee030e,TCN,2024-06-21_14h04.23.190,LearnStrategy,2023.2.3,Win32,60.24096386,1,1,15,0.009259288,-0.004629644,1,0,0,0.761,rock_grid_rect_2,2,16,-1,-1,0.761,-0.131481425,-0.240740797,1,0,0,19.9596,Basalt_rect,2,19.96,1,14,0,14,0,1,,,,,,,,,,,,,
65c243c37e0d77ca70ee030e,TCN,2024-06-21_14h04.23.190,LearnStrategy,2023.2.3,Win32,60.24096386,1,1,16,-0.054629601,-0.015740755,1,0,0,0.8841,rock_grid_rect_2,1,06,-1,-1,0.884,0.135185242,-0.245370399,1,0,0,6.7472,Diorite_rect,3,6.747,0,15,0,15,0,1,,,,,,,,,,,,,
65c243c37e0d77ca70ee030e,TCN,2024-06-21_14h04.23.190,LearnStrategy,2023.2.3,Win32,60.24096386,1,2,1,,,,,,,,2,14,,,,,,,,,,,4,33.768,0,,,,,,0.416666667,-0.229629686,1,0,0,33.7679,Gabbro_rect,0,0,0,0,1,
65c243c37e0d77ca70ee030e,TCN,2024-06-21_14h04.23.190,LearnStrategy,2023.2.3,Win32,60.24096386,1,2,2,,,,,,,,7,10,,,,,,,,,,,7,11.2,1,,,,,,0.145370399,-0.40648151,1,0,0,11.2004,Peridotite_rect,1,0,1,0,1,
65c243c37e0d77ca70ee030e,TCN,2024-06-21_14h04.23.190,LearnStrategy,2023.2.3,Win32,60.24096386,1,2,3,,,,,,,,4,08,,,,,,,,,,,7,9.547,0,,,,,,0.135185242,-0.390740797,1,0,0,9.5474,Peridotite_rect,2,0,2,0,1,
65c243c37e0d77ca70ee030e,TCN,2024-06-21_14h04.23.190,LearnStrategy,2023.2.3,Win32,60.24096386,1,2,4,,,,,,,,6,08,,,,,,,,,,,7,37.865,0,,,,,,0.168518575,-0.400925954,1,0,0,37.8647,Peridotite_rect,3,0,3,0,1,
65c243c37e0d77ca70ee030e,TCN,2024-06-21_14h04.23.190,LearnStrategy,2023.2.3,Win32,60.24096386,1,2,5,,,,,,,,5,05,,,,,,,,,,,5,5.492,1,,,,,,-0.344444444,-0.392592621,1,0,0,5.4924,Obsidian_rect,4,0,4,0,1,
65c243c37e0d77ca70ee030e,TCN,2024-06-21_14h04.23.190,LearnStrategy,2023.2.3,Win32,60.24096386,1,2,6,,,,,,,,8,16,,,,,,,,,,,8,5.072,1,,,,,,0.410185242,-0.388888889,1,0,0,5.0717,Pumice_rect,5,0,5,0,1,
65c243c37e0d77ca70ee030e,TCN,2024-06-21_14h04.23.190,LearnStrategy,2023.2.3,Win32,60.24096386,1,2,7,,,,,,,,3,10,,,,,,,,,,,3,8.128,1,,,,,,0.175925954,-0.245370399,1,0,0,8.1283,Diorite_rect,6,0,6,0,1,
65c243c37e0d77ca70ee030e,TCN,2024-06-21_14h04.23.190,LearnStrategy,2023.2.3,Win32,60.24096386,1,2,8,,,,,,,,1,03,,,,,,,,,,,1,8.583,1,,,,,,-0.402777778,-0.228703732,1,0,0,8.5829,Andesite_rect,7,0,7,0,1,
65c243c37e0d77ca70ee030e,TCN,2024-06-21_14h04.23.190,LearnStrategy,2023.2.3,Win32,60.24096386,1,2,9,,,,,,,,8,04,,,,,,,,,,,8,1.213,1,,,,,,0.419444444,-0.387963019,1,0,0,1.2131,Pumice_rect,8,0,8,0,1,
65c243c37e0d77ca70ee030e,TCN,2024-06-21_14h04.23.190,LearnStrategy,2023.2.3,Win32,60.24096386,1,2,10,,,,,,,,7,13,,,,,,,,,,,3,19.588,0,,,,,,0.099074131,-0.234259288,1,0,0,19.5876,Diorite_rect,9,0,9,0,1,
65c243c37e0d77ca70ee030e,TCN,2024-06-21_14h04.23.190,LearnStrategy,2023.2.3,Win32,60.24096386,1,2,11,,,,,,,,2,10,,,,,,,,,,,5,5.471,0,,,,,,-0.382407379,-0.383333333,1,0,0,5.4713,Obsidian_rect,10,0,10,0,1,
65c243c37e0d77ca70ee030e,TCN,2024-06-21_14h04.23.190,LearnStrategy,2023.2.3,Win32,60.24096386,1,2,12,,,,,,,,3,12,,,,,,,,,,,3,8.646,1,,,,,,0.134259288,-0.253703732,1,0,0,8.6457,Diorite_rect,11,0,11,0,1,
65c243c37e0d77ca70ee030e,TCN,2024-06-21_14h04.23.190,LearnStrategy,2023.2.3,Win32,60.24096386,1,2,13,,,,,,,,6,12,,,,,,,,,,,3,46.834,0,,,,,,0.124074131,-0.25,1,0,0,46.8343,Diorite_rect,12,0,12,0,1,
65c243c37e0d77ca70ee030e,TCN,2024-06-21_14h04.23.190,LearnStrategy,2023.2.3,Win32,60.24096386,1,2,14,,,,,,,,4,10,,,,,,,,,,,4,68.365,1,,,,,,0.343518575,-0.261111111,1,0,0,68.365,Gabbro_rect,13,0,13,0,1,
65c243c37e0d77ca70ee030e,TCN,2024-06-21_14h04.23.190,LearnStrategy,2023.2.3,Win32,60.24096386,1,2,15,,,,,,,,5,04,,,,,,,,,,,5,1.747,1,,,,,,-0.392592578,-0.396296353,1,0,0,1.7466,Obsidian_rect,14,0,14,0,1,
65c243c37e0d77ca70ee030e,TCN,2024-06-21_14h04.23.190,LearnStrategy,2023.2.3,Win32,60.24096386,1,2,16,,,,,,,,1,10,,,,,,,,,,,4,3.018,0,,,,,,0.318518575,-0.260185242,1,0,0,3.0176,Gabbro_rect,15,0,15,0,1,
65c243c37e0d77ca70ee030e,TCN,2024-06-21_14h04.23.190,LearnStrategy,2023.2.3,Win32,60.24096386,2,1,1,0.048148176,-0.010185199,1,0,0,2.0693,rock_grid_rect_2,5,10,-1,-1,2.069,-0.389814801,-0.410185242,1,0,0,1.3468,Obsidian_rect,5,1.347,1,0,0,0,0,1,,,,,,,,,,,,,
65c243c37e0d77ca70ee030e,TCN,2024-06-21_14h04.23.190,LearnStrategy,2023.2.3,Win32,60.24096386,2,1,2,0.009259288,-0.011111111,1,0,0,1.4697,rock_grid_rect_2,7,02,-1,-1,1.47,-0.113888889,-0.380555556,1,0,0,13.6603,Pegmatite_rect,6,13.66,0,1,0,1,0,1,,,,,,,,,,,,,
65c243c37e0d77ca70ee030e,TCN,2024-06-21_14h04.23.190,LearnStrategy,2023.2.3,Win32,60.24096386,2,1,3,-0.075925869,-0.009259288,1,0,0,1.3009,rock_grid_rect_2,4,16,-1,-1,1.301,0.097222222,-0.397222222,1,0,0,2.9057,Peridotite_rect,7,2.906,0,2,0,2,0,1,,,,,,,,,,,,,
65c243c37e0d77ca70ee030e,TCN,2024-06-21_14h04.23.190,LearnStrategy,2023.2.3,Win32,60.24096386,2,1,4,-0.137036981,-0.014814843,1,0,0,0.8168,rock_grid_rect_2,1,04,-1,-1,0.817,-0.381481467,-0.257407464,1,0,0,2.7162,Andesite_rect,1,2.716,1,3,0,3,0,1,,,,,,,,,,,,,
65c243c37e0d77ca70ee030e,TCN,2024-06-21_14h04.23.190,LearnStrategy,2023.2.3,Win32,60.24096386,2,1,5,-0.086111111,-0.004629644,1,0,0,0.9668,rock_grid_rect_2,6,06,-1,-1,0.967,0.125925954,-0.244444444,1,0,0,2.3984,Diorite_rect,3,2.398,0,4,0,4,0,1,,,,,,,,,,,,,
65c243c37e0d77ca70ee030e,TCN,2024-06-21_14h04.23.190,LearnStrategy,2023.2.3,Win32,60.24096386,2,1,6,-0.072222222,-0.013888889,1,0,0,0.8989,rock_grid_rect_2,1,11,-1,-1,0.899,-0.133333333,-0.394444444,1,0,0,2.0803,Pegmatite_rect,6,2.08,0,5,0,5,0,1,,,,,,,,,,,,,
65c243c37e0d77ca70ee030e,TCN,2024-06-21_14h04.23.190,LearnStrategy,2023.2.3,Win32,60.24096386,2,1,7,-0.005555556,-0.017592621,1,0,0,0.8496,rock_grid_rect_2,5,06,-1,-1,0.85,-0.424074046,-0.402777778,1,0,0,1.7008,Obsidian_rect,5,1.701,1,6,0,6,0,1,,,,,,,,,,,,,
65c243c37e0d77ca70ee030e,TCN,2024-06-21_14h04.23.190,LearnStrategy,2023.2.3,Win32,60.24096386,2,1,8,0,-0.018518533,1,0,0,0.8329,rock_grid_rect_2,2,11,-1,-1,0.833,0.343518575,-0.384259288,1,0,0,2.6868,Pumice_rect,8,2.687,0,7,0,7,0,1,,,,,,,,,,,,,
65c243c37e0d77ca70ee030e,TCN,2024-06-21_14h04.23.190,LearnStrategy,2023.2.3,Win32,60.24096386,2,1,9,-0.026851824,0.015740712,1,0,0,0.8832,rock_grid_rect_2,7,07,-1,-1,0.883,-0.071296268,-0.387037065,1,0,0,3.8058,Pegmatite_rect,6,3.806,0,8,0,8,0,1,,,,,,,,,,,,,
65c243c37e0d77ca70ee030e,TCN,2024-06-21_14h04.23.190,LearnStrategy,2023.2.3,Win32,60.24096386,2,1,10,-0.014814758,-0.025,1,0,0,0.7819,rock_grid_rect_2,3,15,-1,-1,0.782,0.053703732,-0.393518575,1,0,0,3.3526,Peridotite_rect,7,3.353,0,9,0,9,0,1,,,,,,,,,,,,,
65c243c37e0d77ca70ee030e,TCN,2024-06-21_14h04.23.190,LearnStrategy,2023.2.3,Win32,60.24096386,2,1,11,0.024074131,-0.001851866,1,0,0,1.0655,rock_grid_rect_2,4,13,-1,-1,1.065,0.052777778,-0.397222222,1,0,0,1.9978,Peridotite_rect,7,1.998,0,10,0,10,0,1,,,,,,,,,,,,,
65c243c37e0d77ca70ee030e,TCN,2024-06-21_14h04.23.190,LearnStrategy,2023.2.3,Win32,60.24096386,2,1,12,-0.011111111,-0.012962977,1,0,0,0.8332,rock_grid_rect_2,8,08,-1,-1,0.833,0.388888889,-0.390740797,1,0,0,1.2644,Pumice_rect,8,1.264,1,11,0,11,0,1,,,,,,,,,,,,,
65c243c37e0d77ca70ee030e,TCN,2024-06-21_14h04.23.190,LearnStrategy,2023.2.3,Win32,60.24096386,2,1,13,-0.009259203,-0.007407422,1,0,0,0.7165,rock_grid_rect_2,6,15,-1,-1,0.716,0.140740797,-0.259259288,1,0,0,6.1582,Diorite_rect,3,6.158,0,12,0,12,0,1,,,,,,,,,,,,,
65c243c37e0d77ca70ee030e,TCN,2024-06-21_14h04.23.190,LearnStrategy,2023.2.3,Win32,60.24096386,2,1,14,0.070370399,-0.023148176,1,0,0,0.7788,rock_grid_rect_2,8,02,-1,-1,0.779,0.416666667,-0.400925954,1,0,0,1.2156,Pumice_rect,8,1.216,1,13,0,13,0,1,,,,,,,,,,,,,
65c243c37e0d77ca70ee030e,TCN,2024-06-21_14h04.23.190,LearnStrategy,2023.2.3,Win32,60.24096386,2,1,15,-0.04351849,0,1,0,0,1.2017,rock_grid_rect_2,2,02,-1,-1,1.202,-0.416666667,-0.263888889,1,0,0,2.5831,Andesite_rect,1,2.583,0,14,0,14,0,1,,,,,,,,,,,,,
65c243c37e0d77ca70ee030e,TCN,2024-06-21_14h04.23.190,LearnStrategy,2023.2.3,Win32,60.24096386,2,1,16,0.048148176,-0.013888889,1,0,0,0.7647,rock_grid_rect_2,3,08,-1,-1,0.765,0.127777778,-0.397222222,1,0,0,2.6534,Peridotite_rect,7,2.653,0,15,0,15,0,1,,,,,,,,,,,,,
65c243c37e0d77ca70ee030e,TCN,2024-06-21_14h04.23.190,LearnStrategy,2023.2.3,Win32,60.24096386,2,2,1,,,,,,,,6,09,,,,,,,,,,,7,13.839,0,,,,,,0.151851908,-0.400925954,1,0,0,13.8394,Peridotite_rect,0,0,0,0,1,
65c243c37e0d77ca70ee030e,TCN,2024-06-21_14h04.23.190,LearnStrategy,2023.2.3,Win32,60.24096386,2,2,2,,,,,,,,8,05,,,,,,,,,,,8,1.078,1,,,,,,0.358333333,-0.382407464,1,0,0,1.0785,Pumice_rect,1,0,1,0,1,
65c243c37e0d77ca70ee030e,TCN,2024-06-21_14h04.23.190,LearnStrategy,2023.2.3,Win32,60.24096386,2,2,3,,,,,,,,3,06,,,,,,,,,,,4,1.897,0,,,,,,0.362963019,-0.246296353,1,0,0,1.8967,Gabbro_rect,2,0,2,0,1,
65c243c37e0d77ca70ee030e,TCN,2024-06-21_14h04.23.190,LearnStrategy,2023.2.3,Win32,60.24096386,2,2,4,,,,,,,,1,09,,,,,,,,,,,2,2.129,0,,,,,,-0.132407379,-0.258333333,1,0,0,2.1289,Basalt_rect,3,0,3,0,1,
65c243c37e0d77ca70ee030e,TCN,2024-06-21_14h04.23.190,LearnStrategy,2023.2.3,Win32,60.24096386,2,2,5,,,,,,,,4,09,,,,,,,,,,,4,3.785,1,,,,,,0.361111111,-0.252777778,1,0,0,3.7849,Gabbro_rect,4,0,4,0,1,
65c243c37e0d77ca70ee030e,TCN,2024-06-21_14h04.23.190,LearnStrategy,2023.2.3,Win32,60.24096386,2,2,6,,,,,,,,4,14,,,,,,,,,,,4,3.115,1,,,,,,0.328703732,-0.248148176,1,0,0,3.1151,Gabbro_rect,5,0,5,0,1,
65c243c37e0d77ca70ee030e,TCN,2024-06-21_14h04.23.190,LearnStrategy,2023.2.3,Win32,60.24096386,2,2,7,,,,,,,,5,09,,,,,,,,,,,5,1.579,1,,,,,,-0.413888889,-0.40648151,1,0,0,1.5786,Obsidian_rect,6,0,6,0,1,
65c243c37e0d77ca70ee030e,TCN,2024-06-21_14h04.23.190,LearnStrategy,2023.2.3,Win32,60.24096386,2,2,8,,,,,,,,5,12,,,,,,,,,,,5,1.044,1,,,,,,-0.404629601,-0.405555556,1,0,0,1.0438,Obsidian_rect,7,0,7,0,1,
65c243c37e0d77ca70ee030e,TCN,2024-06-21_14h04.23.190,LearnStrategy,2023.2.3,Win32,60.24096386,2,2,9,,,,,,,,7,08,,,,,,,,,,,7,8.065,1,,,,,,0.102777778,-0.397222222,1,0,0,8.0651,Peridotite_rect,8,0,8,0,1,
65c243c37e0d77ca70ee030e,TCN,2024-06-21_14h04.23.190,LearnStrategy,2023.2.3,Win32,60.24096386,2,2,10,,,,,,,,8,14,,,,,,,,,,,8,1.312,1,,,,,,0.338888889,-0.391666667,1,0,0,1.312,Pumice_rect,9,0,9,0,1,
65c243c37e0d77ca70ee030e,TCN,2024-06-21_14h04.23.190,LearnStrategy,2023.2.3,Win32,60.24096386,2,2,11,,,,,,,,2,09,,,,,,,,,,,2,4.436,1,,,,,,-0.205555556,-0.251851908,1,0,0,4.4363,Basalt_rect,10,0,10,0,1,
65c243c37e0d77ca70ee030e,TCN,2024-06-21_14h04.23.190,LearnStrategy,2023.2.3,Win32,60.24096386,2,2,12,,,,,,,,1,01,,,,,,,,,,,6,16.15,0,,,,,,-0.099074046,-0.387963019,1,0,0,16.1496,Pegmatite_rect,11,0,11,0,1,
65c243c37e0d77ca70ee030e,TCN,2024-06-21_14h04.23.190,LearnStrategy,2023.2.3,Win32,60.24096386,2,2,13,,,,,,,,3,13,,,,,,,,,,,7,2.683,0,,,,,,0.127777778,-0.409259288,1,0,0,2.683,Peridotite_rect,12,0,12,0,1,
65c243c37e0d77ca70ee030e,TCN,2024-06-21_14h04.23.190,LearnStrategy,2023.2.3,Win32,60.24096386,2,2,14,,,,,,,,6,03,,,,,,,,,,,6,3.705,1,,,,,,-0.080555556,-0.391666667,1,0,0,3.7049,Pegmatite_rect,13,0,13,0,1,
65c243c37e0d77ca70ee030e,TCN,2024-06-21_14h04.23.190,LearnStrategy,2023.2.3,Win32,60.24096386,2,2,15,,,,,,,,2,08,,,,,,,,,,,4,9.885,0,,,,,,0.327777778,-0.255555556,1,0,0,9.885,Gabbro_rect,14,0,14,0,1,
65c243c37e0d77ca70ee030e,TCN,2024-06-21_14h04.23.190,LearnStrategy,2023.2.3,Win32,60.24096386,2,2,16,,,,,,,,7,06,,,,,,,,,,,6,1.427,0,,,,,,-0.096296268,-0.405555556,1,0,0,1.4274,Pegmatite_rect,15,0,15,0,1,
65c243c37e0d77ca70ee030e,TCN,2024-06-21_14h04.23.190,LearnStrategy,2023.2.3,Win32,60.24096386,3,1,1,0.037037065,0.008333333,1,0,0,0.9499,rock_grid_rect_2,7,14,-1,-1,0.95,-0.116666667,-0.393518575,1,0,0,5.7936,Pegmatite_rect,6,5.794,0,0,0,0,0,1,,,,,,,,,,,,,
65c243c37e0d77ca70ee030e,TCN,2024-06-21_14h04.23.190,LearnStrategy,2023.2.3,Win32,60.24096386,3,1,2,-0.062962935,-0.003703732,1,0,0,0.7986,rock_grid_rect_2,8,13,-1,-1,0.799,0.396296353,-0.414814843,1,0,0,1.1801,Pumice_rect,8,1.18,1,1,0,1,0,1,,,,,,,,,,,,,
65c243c37e0d77ca70ee030e,TCN,2024-06-21_14h04.23.190,LearnStrategy,2023.2.3,Win32,60.24096386,3,1,3,0.00648151,0.002777778,1,0,0,0.8338,rock_grid_rect_2,1,16,-1,-1,0.834,0.391666667,-0.232407464,1,0,0,3.3671,Gabbro_rect,4,3.367,0,2,0,2,0,1,,,,,,,,,,,,,
65c243c37e0d77ca70ee030e,TCN,2024-06-21_14h04.23.190,LearnStrategy,2023.2.3,Win32,60.24096386,3,1,4,-0.034259203,-0.003703732,1,0,0,0.7984,rock_grid_rect_2,6,16,-1,-1,0.798,0.108333333,-0.409259288,1,0,0,1.5824,Peridotite_rect,7,1.582,0,3,0,3,0,1,,,,,,,,,,,,,
65c243c37e0d77ca70ee030e,TCN,2024-06-21_14h04.23.190,LearnStrategy,2023.2.3,Win32,60.24096386,3,1,5,0.010185242,-0.001851866,1,0,0,0.7845,rock_grid_rect_2,4,01,-1,-1,0.784,-0.112036981,-0.407407464,1,0,0,1.5829,Pegmatite_rect,6,1.583,0,4,0,4,0,1,,,,,,,,,,,,,
65c243c37e0d77ca70ee030e,TCN,2024-06-21_14h04.23.190,LearnStrategy,2023.2.3,Win32,60.24096386,3,1,6,-0.044444444,-0.015740755,1,0,0,0.6825,rock_grid_rect_2,1,14,-1,-1,0.683,0.357407464,-0.232407464,1,0,0,1.333,Gabbro_rect,4,1.333,0,5,0,5,0,1,,,,,,,,,,,,,
65c243c37e0d77ca70ee030e,TCN,2024-06-21_14h04.23.190,LearnStrategy,2023.2.3,Win32,60.24096386,3,1,7,0.005555556,0.000925912,1,0,0,0.7331,rock_grid_rect_2,2,12,-1,-1,0.733,-0.145370314,-0.248148176,1,0,0,1.7134,Basalt_rect,2,1.713,1,6,0,6,0,1,,,,,,,,,,,,,
65c243c37e0d77ca70ee030e,TCN,2024-06-21_14h04.23.190,LearnStrategy,2023.2.3,Win32,60.24096386,3,1,8,0.009259288,0.00370369,1,0,0,0.7007,rock_grid_rect_2,7,05,-1,-1,0.701,0.315740797,-0.254629686,1,0,0,4.1524,Gabbro_rect,4,4.152,0,7,0,7,0,1,,,,,,,,,,,,,
65c243c37e0d77ca70ee030e,TCN,2024-06-21_14h04.23.190,LearnStrategy,2023.2.3,Win32,60.24096386,3,1,9,-0.019444444,0.013888889,1,0,0,0.8841,rock_grid_rect_2,2,01,-1,-1,0.884,-0.079629601,-0.245370399,1,0,0,1.8971,Basalt_rect,2,1.897,1,8,0,8,0,1,,,,,,,,,,,,,
65c243c37e0d77ca70ee030e,TCN,2024-06-21_14h04.23.190,LearnStrategy,2023.2.3,Win32,60.24096386,3,1,10,0.017592621,-0.008333333,1,0,0,0.6506,rock_grid_rect_2,3,07,-1,-1,0.651,0.375,-0.232407464,1,0,0,2.9178,Gabbro_rect,4,2.918,0,9,0,9,0,1,,,,,,,,,,,,,
65c243c37e0d77ca70ee030e,TCN,2024-06-21_14h04.23.190,LearnStrategy,2023.2.3,Win32,60.24096386,3,1,11,0.05648151,-0.00648151,1,0,0,0.9823,rock_grid_rect_2,8,03,-1,-1,0.982,0.377777778,-0.389814843,1,0,0,1.3168,Pumice_rect,8,1.317,1,10,0,10,0,1,,,,,,,,,,,,,
65c243c37e0d77ca70ee030e,TCN,2024-06-21_14h04.23.190,LearnStrategy,2023.2.3,Win32,60.24096386,3,1,12,0.042592621,0,1,0,0,0.7673,rock_grid_rect_2,3,14,-1,-1,0.767,0.138888889,-0.234259288,1,0,0,1.1999,Diorite_rect,3,1.2,1,11,0,11,0,1,,,,,,,,,,,,,
65c243c37e0d77ca70ee030e,TCN,2024-06-21_14h04.23.190,LearnStrategy,2023.2.3,Win32,60.24096386,3,1,13,0.016666667,-0.012037065,1,0,0,0.6671,rock_grid_rect_2,5,02,-1,-1,0.667,-0.330555556,-0.403703732,1,0,0,1.816,Obsidian_rect,5,1.816,1,12,0,12,0,1,,,,,,,,,,,,,
65c243c37e0d77ca70ee030e,TCN,2024-06-21_14h04.23.190,LearnStrategy,2023.2.3,Win32,60.24096386,3,1,14,0.045370399,-0.004629644,1,0,0,0.6489,rock_grid_rect_2,4,12,-1,-1,0.649,-0.157407379,-0.247222222,1,0,0,1.3506,Basalt_rect,2,1.351,0,13,0,13,0,1,,,,,,,,,,,,,
65c243c37e0d77ca70ee030e,TCN,2024-06-21_14h04.23.190,LearnStrategy,2023.2.3,Win32,60.24096386,3,1,15,0.037963019,0.005555556,1,0,0,0.651,rock_grid_rect_2,5,14,-1,-1,0.651,-0.350925912,-0.393518575,1,0,0,1.4803,Obsidian_rect,5,1.48,1,14,0,14,0,1,,,,,,,,,,,,,
65c243c37e0d77ca70ee030e,TCN,2024-06-21_14h04.23.190,LearnStrategy,2023.2.3,Win32,60.24096386,3,1,16,-0.025925869,-0.004629644,1,0,0,1.0513,rock_grid_rect_2,6,07,-1,-1,1.051,0.10648151,-0.389814843,1,0,0,3.1003,Peridotite_rect,7,3.1,0,15,0,15,0,1,,,,,,,,,,,,,
65c243c37e0d77ca70ee030e,TCN,2024-06-21_14h04.23.190,LearnStrategy,2023.2.3,Win32,60.24096386,3,2,1,,,,,,,,3,02,,,,,,,,,,,3,7.576,1,,,,,,0.147222222,-0.234259288,1,0,0,7.5761,Diorite_rect,0,0,0,0,1,
65c243c37e0d77ca70ee030e,TCN,2024-06-21_14h04.23.190,LearnStrategy,2023.2.3,Win32,60.24096386,3,2,2,,,,,,,,4,03,,,,,,,,,,,4,4.185,1,,,,,,0.410185242,-0.246296353,1,0,0,4.1846,Gabbro_rect,1,0,1,0,1,
65c243c37e0d77ca70ee030e,TCN,2024-06-21_14h04.23.190,LearnStrategy,2023.2.3,Win32,60.24096386,3,2,3,,,,,,,,3,09,,,,,,,,,,,3,2.097,1,,,,,,0.162963019,-0.244444444,1,0,0,2.0967,Diorite_rect,2,0,2,0,1,
65c243c37e0d77ca70ee030e,TCN,2024-06-21_14h04.23.190,LearnStrategy,2023.2.3,Win32,60.24096386,3,2,4,,,,,,,,2,06,,,,,,,,,,,4,3.199,0,,,,,,0.415740797,-0.235185242,1,0,0,3.1993,Gabbro_rect,3,0,3,0,1,
65c243c37e0d77ca70ee030e,TCN,2024-06-21_14h04.23.190,LearnStrategy,2023.2.3,Win32,60.24096386,3,2,5,,,,,,,,6,05,,,,,,,,,,,6,2.832,1,,,,,,-0.082407379,-0.398148176,1,0,0,2.8324,Pegmatite_rect,4,0,4,0,1,
65c243c37e0d77ca70ee030e,TCN,2024-06-21_14h04.23.190,LearnStrategy,2023.2.3,Win32,60.24096386,3,2,6,,,,,,,,8,09,,,,,,,,,,,8,1.679,1,,,,,,0.391666667,-0.4,1,0,0,1.6794,Pumice_rect,5,0,5,0,1,
65c243c37e0d77ca70ee030e,TCN,2024-06-21_14h04.23.190,LearnStrategy,2023.2.3,Win32,60.24096386,3,2,7,,,,,,,,8,15,,,,,,,,,,,8,1.021,1,,,,,,0.361111111,-0.389814843,1,0,0,1.0209,Pumice_rect,6,0,6,0,1,
65c243c37e0d77ca70ee030e,TCN,2024-06-21_14h04.23.190,LearnStrategy,2023.2.3,Win32,60.24096386,3,2,8,,,,,,,,1,02,,,,,,,,,,,1,3.7,1,,,,,,-0.395370356,-0.250925954,1,0,0,3.7004,Andesite_rect,7,0,7,0,1,
65c243c37e0d77ca70ee030e,TCN,2024-06-21_14h04.23.190,LearnStrategy,2023.2.3,Win32,60.24096386,3,2,9,,,,,,,,2,04,,,,,,,,,,,4,4.954,0,,,,,,0.383333333,-0.237963019,1,0,0,4.9545,Gabbro_rect,8,0,8,0,1,
65c243c37e0d77ca70ee030e,TCN,2024-06-21_14h04.23.190,LearnStrategy,2023.2.3,Win32,60.24096386,3,2,10,,,,,,,,5,16,,,,,,,,,,,5,1.093,1,,,,,,-0.452777778,-0.392592621,1,0,0,1.0933,Obsidian_rect,9,0,9,0,1,
65c243c37e0d77ca70ee030e,TCN,2024-06-21_14h04.23.190,LearnStrategy,2023.2.3,Win32,60.24096386,3,2,11,,,,,,,,7,04,,,,,,,,,,,6,3.754,0,,,,,,-0.085185157,-0.398148176,1,0,0,3.7543,Pegmatite_rect,10,0,10,0,1,
65c243c37e0d77ca70ee030e,TCN,2024-06-21_14h04.23.190,LearnStrategy,2023.2.3,Win32,60.24096386,3,2,12,,,,,,,,6,11,,,,,,,,,,,6,3.555,1,,,,,,-0.121296268,-0.400925954,1,0,0,3.5547,Pegmatite_rect,11,0,11,0,1,
65c243c37e0d77ca70ee030e,TCN,2024-06-21_14h04.23.190,LearnStrategy,2023.2.3,Win32,60.24096386,3,2,13,,,,,,,,5,11,,,,,,,,,,,5,0.995,1,,,,,,-0.39351849,-0.395370399,1,0,0,0.9951,Obsidian_rect,12,0,12,0,1,
65c243c37e0d77ca70ee030e,TCN,2024-06-21_14h04.23.190,LearnStrategy,2023.2.3,Win32,60.24096386,3,2,14,,,,,,,,4,05,,,,,,,,,,,7,1.864,0,,,,,,0.140740797,-0.390740797,1,0,0,1.8638,Peridotite_rect,13,0,13,0,1,
65c243c37e0d77ca70ee030e,TCN,2024-06-21_14h04.23.190,LearnStrategy,2023.2.3,Win32,60.24096386,3,2,15,,,,,,,,7,15,,,,,,,,,,,7,1.681,1,,,,,,0.1,-0.399074131,1,0,0,1.6806,Peridotite_rect,14,0,14,0,1,
65c243c37e0d77ca70ee030e,TCN,2024-06-21_14h04.23.190,LearnStrategy,2023.2.3,Win32,60.24096386,3,2,16,,,,,,,,1,05,,,,,,,,,,,7,1.645,0,,,,,,0.099074131,-0.397222222,1,0,0,1.645,Peridotite_rect,15,0,15,0,1,
65c243c37e0d77ca70ee030e,TCN,2024-06-21_14h04.23.190,LearnStrategy,2023.2.3,Win32,60.24096386,4,1,1,0.05648151,-0.011111111,1,0,0,2.2868,rock_grid_rect_2,7,02,-1,-1,2.287,-0.365740712,-0.255555556,1,0,0,6.4919,Andesite_rect,1,6.492,0,0,0,0,0,1,,,,,,,,,,,,,
65c243c37e0d77ca70ee030e,TCN,2024-06-21_14h04.23.190,LearnStrategy,2023.2.3,Win32,60.24096386,4,1,2,0.03148151,0.008333333,1,0,0,1.0301,rock_grid_rect_2,6,07,-1,-1,1.03,-0.135185157,-0.378703732,1,0,0,1.5466,Pegmatite_rect,6,1.547,1,1,0,1,0,1,,,,,,,,,,,,,
65c243c37e0d77ca70ee030e,TCN,2024-06-21_14h04.23.190,LearnStrategy,2023.2.3,Win32,60.24096386,4,1,3,0.045370399,-0.015740755,1,0,0,0.7669,rock_grid_rect_2,6,15,-1,-1,0.767,-0.119444444,-0.391666667,1,0,0,1.2668,Pegmatite_rect,6,1.267,1,2,0,2,0,1,,,,,,,,,,,,,
65c243c37e0d77ca70ee030e,TCN,2024-06-21_14h04.23.190,LearnStrategy,2023.2.3,Win32,60.24096386,4,1,4,-0.01851849,-0.017592621,1,0,0,0.7181,rock_grid_rect_2,5,10,-1,-1,0.718,-0.359259245,-0.419444444,1,0,0,1.6471,Obsidian_rect,5,1.647,1,3,0,3,0,1,,,,,,,,,,,,,
65c243c37e0d77ca70ee030e,TCN,2024-06-21_14h04.23.190,LearnStrategy,2023.2.3,Win32,60.24096386,4,1,5,0.00648151,-0.016666667,1,0,0,0.7515,rock_grid_rect_2,3,14,-1,-1,0.752,0.172222222,-0.237963019,1,0,0,1.4646,Diorite_rect,3,1.465,1,4,0,4,0,1,,,,,,,,,,,,,
65c243c37e0d77ca70ee030e,TCN,2024-06-21_14h04.23.190,LearnStrategy,2023.2.3,Win32,60.24096386,4,1,6,-0.000925869,-0.012037065,1,0,0,0.6329,rock_grid_rect_2,5,14,-1,-1,0.633,-0.406481467,-0.415740797,1,0,0,1.4465,Obsidian_rect,5,1.447,1,5,0,5,0,1,,,,,,,,,,,,,
65c243c37e0d77ca70ee030e,TCN,2024-06-21_14h04.23.190,LearnStrategy,2023.2.3,Win32,60.24096386,4,1,7,-0.004629601,-0.007407422,1,0,0,0.5995,rock_grid_rect_2,2,12,-1,-1,0.6,-0.186111111,-0.249074131,1,0,0,2.602,Basalt_rect,2,2.602,1,6,0,6,0,1,,,,,,,,,,,,,
65c243c37e0d77ca70ee030e,TCN,2024-06-21_14h04.23.190,LearnStrategy,2023.2.3,Win32,60.24096386,4,1,8,-0.024074046,-0.019444444,1,0,0,0.7824,rock_grid_rect_2,7,12,-1,-1,0.782,-0.106481425,-0.401851908,1,0,0,3.6892,Pegmatite_rect,6,3.689,0,7,0,7,0,1,,,,,,,,,,,,,
65c243c37e0d77ca70ee030e,TCN,2024-06-21_14h04.23.190,LearnStrategy,2023.2.3,Win32,60.24096386,4,1,9,-0.024074046,-0.00648151,1,0,0,0.6499,rock_grid_rect_2,4,12,-1,-1,0.65,-0.372222222,-0.246296353,1,0,0,3.1334,Andesite_rect,1,3.133,0,8,0,8,0,1,,,,,,,,,,,,,
65c243c37e0d77ca70ee030e,TCN,2024-06-21_14h04.23.190,LearnStrategy,2023.2.3,Win32,60.24096386,4,1,10,0.083333333,-0.013888889,1,0,0,0.6821,rock_grid_rect_2,1,14,-1,-1,0.682,-0.346296268,-0.237037065,1,0,0,2.6526,Andesite_rect,1,2.653,1,9,0,9,0,1,,,,,,,,,,,,,
65c243c37e0d77ca70ee030e,TCN,2024-06-21_14h04.23.190,LearnStrategy,2023.2.3,Win32,60.24096386,4,1,11,0.075925954,-0.016666667,1,0,0,0.7341,rock_grid_rect_2,8,08,-1,-1,0.734,0.4,-0.389814843,1,0,0,1.0621,Pumice_rect,8,1.062,1,10,0,10,0,1,,,,,,,,,,,,,
65c243c37e0d77ca70ee030e,TCN,2024-06-21_14h04.23.190,LearnStrategy,2023.2.3,Win32,60.24096386,4,1,12,-0.007407379,-0.002777778,1,0,0,0.6006,rock_grid_rect_2,2,01,-1,-1,0.601,-0.345370356,-0.246296353,1,0,0,3.0708,Andesite_rect,1,3.071,0,11,0,11,0,1,,,,,,,,,,,,,
65c243c37e0d77ca70ee030e,TCN,2024-06-21_14h04.23.190,LearnStrategy,2023.2.3,Win32,60.24096386,4,1,13,0.047222222,-0.004629644,1,0,0,0.5986,rock_grid_rect_2,3,16,-1,-1,0.599,0.127777778,-0.251851908,1,0,0,1.9492,Diorite_rect,3,1.949,1,12,0,12,0,1,,,,,,,,,,,,,
65c243c37e0d77ca70ee030e,TCN,2024-06-21_14h04.23.190,LearnStrategy,2023.2.3,Win32,60.24096386,4,1,14,-0.020370314,0.015740712,1,0,0,0.5657,rock_grid_rect_2,1,07,-1,-1,0.566,0.111111111,-0.400925954,1,0,0,2.4525,Peridotite_rect,7,2.453,0,13,0,13,0,1,,,,,,,,,,,,,
65c243c37e0d77ca70ee030e,TCN,2024-06-21_14h04.23.190,LearnStrategy,2023.2.3,Win32,60.24096386,4,1,15,0.040740797,0.001851824,1,0,0,0.5819,rock_grid_rect_2,4,01,-1,-1,0.582,0.147222222,-0.399074131,1,0,0,1.5139,Peridotite_rect,7,1.514,0,14,0,14,0,1,,,,,,,,,,,,,
65c243c37e0d77ca70ee030e,TCN,2024-06-21_14h04.23.190,LearnStrategy,2023.2.3,Win32,60.24096386,4,1,16,0.082407464,-0.02129631,1,0,0,0.6003,rock_grid_rect_2,8,10,-1,-1,0.6,0.387037065,-0.396296353,1,0,0,1.0964,Pumice_rect,8,1.096,1,15,0,15,0,1,,,,,,,,,,,,,
65c243c37e0d77ca70ee030e,TCN,2024-06-21_14h04.23.190,LearnStrategy,2023.2.3,Win32,60.24096386,4,2,1,,,,,,,,3,10,,,,,,,,,,,7,14.325,0,,,,,,0.132407464,-0.397222222,1,0,0,14.3253,Peridotite_rect,0,0,0,0,1,
65c243c37e0d77ca70ee030e,TCN,2024-06-21_14h04.23.190,LearnStrategy,2023.2.3,Win32,60.24096386,4,2,2,,,,,,,,7,04,,,,,,,,,,,6,7.762,0,,,,,,-0.117592536,-0.398148176,1,0,0,7.7622,Pegmatite_rect,1,0,1,0,1,
65c243c37e0d77ca70ee030e,TCN,2024-06-21_14h04.23.190,LearnStrategy,2023.2.3,Win32,60.24096386,4,2,3,,,,,,,,7,10,,,,,,,,,,,7,1.58,1,,,,,,0.10648151,-0.384259288,1,0,0,1.58,Peridotite_rect,2,0,2,0,1,
65c243c37e0d77ca70ee030e,TCN,2024-06-21_14h04.23.190,LearnStrategy,2023.2.3,Win32,60.24096386,4,2,4,,,,,,,,8,09,,,,,,,,,,,8,0.96,1,,,,,,0.358333333,-0.391666667,1,0,0,0.9601,Pumice_rect,3,0,3,0,1,
65c243c37e0d77ca70ee030e,TCN,2024-06-21_14h04.23.190,LearnStrategy,2023.2.3,Win32,60.24096386,4,2,5,,,,,,,,3,09,,,,,,,,,,,3,1.196,1,,,,,,0.140740797,-0.237037065,1,0,0,1.1956,Diorite_rect,4,0,4,0,1,
65c243c37e0d77ca70ee030e,TCN,2024-06-21_14h04.23.190,LearnStrategy,2023.2.3,Win32,60.24096386,4,2,6,,,,,,,,1,03,,,,,,,,,,,2,2.915,0,,,,,,-0.074074046,-0.257407464,1,0,0,2.9151,Basalt_rect,5,0,5,0,1,
65c243c37e0d77ca70ee030e,TCN,2024-06-21_14h04.23.190,LearnStrategy,2023.2.3,Win32,60.24096386,4,2,7,,,,,,,,4,05,,,,,,,,,,,4,3.8,1,,,,,,0.35648151,-0.269444444,1,0,0,3.8002,Gabbro_rect,6,0,6,0,1,
65c243c37e0d77ca70ee030e,TCN,2024-06-21_14h04.23.190,LearnStrategy,2023.2.3,Win32,60.24096386,4,2,8,,,,,,,,2,10,,,,,,,,,,,4,4.101,0,,,,,,0.313888889,-0.241666667,1,0,0,4.1015,Gabbro_rect,7,0,7,0,1,
65c243c37e0d77ca70ee030e,TCN,2024-06-21_14h04.23.190,LearnStrategy,2023.2.3,Win32,60.24096386,4,2,9,,,,,,,,6,11,,,,,,,,,,,6,1.462,1,,,,,,-0.141666667,-0.397222222,1,0,0,1.462,Pegmatite_rect,8,0,8,0,1,
65c243c37e0d77ca70ee030e,TCN,2024-06-21_14h04.23.190,LearnStrategy,2023.2.3,Win32,60.24096386,4,2,10,,,,,,,,1,01,,,,,,,,,,,1,9.919,1,,,,,,-0.344444444,-0.238888889,1,0,0,9.9192,Andesite_rect,9,0,9,0,1,
65c243c37e0d77ca70ee030e,TCN,2024-06-21_14h04.23.190,LearnStrategy,2023.2.3,Win32,60.24096386,4,2,11,,,,,,,,4,09,,,,,,,,,,,4,4.004,1,,,,,,0.357407464,-0.246296353,1,0,0,4.004,Gabbro_rect,10,0,10,0,1,
65c243c37e0d77ca70ee030e,TCN,2024-06-21_14h04.23.190,LearnStrategy,2023.2.3,Win32,60.24096386,4,2,12,,,,,,,,6,08,,,,,,,,,,,6,1.094,1,,,,,,-0.086111111,-0.405555556,1,0,0,1.094,Pegmatite_rect,11,0,11,0,1,
65c243c37e0d77ca70ee030e,TCN,2024-06-21_14h04.23.190,LearnStrategy,2023.2.3,Win32,60.24096386,4,2,13,,,,,,,,5,04,,,,,,,,,,,5,1.683,1,,,,,,-0.413888889,-0.396296353,1,0,0,1.6825,Obsidian_rect,12,0,12,0,1,
65c243c37e0d77ca70ee030e,TCN,2024-06-21_14h04.23.190,LearnStrategy,2023.2.3,Win32,60.24096386,4,2,14,,,,,,,,2,09,,,,,,,,,,,1,4.314,0,,,,,,-0.347222222,-0.255555556,1,0,0,4.3137,Andesite_rect,13,0,13,0,1,
65c243c37e0d77ca70ee030e,TCN,2024-06-21_14h04.23.190,LearnStrategy,2023.2.3,Win32,60.24096386,4,2,15,,,,,,,,8,15,,,,,,,,,,,8,1.65,1,,,,,,0.414814843,-0.38148151,1,0,0,1.6502,Pumice_rect,14,0,14,0,1,
65c243c37e0d77ca70ee030e,TCN,2024-06-21_14h04.23.190,LearnStrategy,2023.2.3,Win32,60.24096386,4,2,16,,,,,,,,5,09,,,,,,,,,,,5,1.462,1,,,,,,-0.404629601,-0.398148176,1,0,0,1.462,Obsidian_rect,15,0,15,0,1,
65c243c37e0d77ca70ee030e,TCN,2024-06-21_14h04.23.190,LearnStrategy,2023.2.3,Win32,60.24096386,5,1,1,-0.047222222,0.012962935,1,0,0,0.9016,rock_grid_rect_2,8,03,-1,-1,0.902,0.365740797,-0.405555556,1,0,0,1.7819,Pumice_rect,8,1.782,1,0,0,0,0,1,,,,,,,,,,,,,
65c243c37e0d77ca70ee030e,TCN,2024-06-21_14h04.23.190,LearnStrategy,2023.2.3,Win32,60.24096386,5,1,2,-0.047222222,-0.019444444,1,0,0,0.7323,rock_grid_rect_2,2,16,-1,-1,0.732,0.358333333,-0.25648151,1,0,0,3.2361,Gabbro_rect,4,3.236,0,1,0,1,0,1,,,,,,,,,,,,,
65c243c37e0d77ca70ee030e,TCN,2024-06-21_14h04.23.190,LearnStrategy,2023.2.3,Win32,60.24096386,5,1,3,0.028703732,0.004629601,1,0,0,0.7001,rock_grid_rect_2,8,02,-1,-1,0.7,0.377777778,-0.421296353,1,0,0,0.9664,Pumice_rect,8,0.966,1,2,0,2,0,1,,,,,,,,,,,,,
65c243c37e0d77ca70ee030e,TCN,2024-06-21_14h04.23.190,LearnStrategy,2023.2.3,Win32,60.24096386,5,1,4,0.030555556,-0.010185199,1,0,0,1.0017,rock_grid_rect_2,3,11,-1,-1,1.002,0.1,-0.245370399,1,0,0,1.4134,Diorite_rect,3,1.413,1,3,0,3,0,1,,,,,,,,,,,,,
65c243c37e0d77ca70ee030e,TCN,2024-06-21_14h04.23.190,LearnStrategy,2023.2.3,Win32,60.24096386,5,1,5,-0.000925869,-0.002777778,1,0,0,0.666,rock_grid_rect_2,1,16,-1,-1,0.666,0.080555556,-0.247222222,1,0,0,2.7865,Diorite_rect,3,2.786,0,4,0,4,0,1,,,,,,,,,,,,,
65c243c37e0d77ca70ee030e,TCN,2024-06-21_14h04.23.190,LearnStrategy,2023.2.3,Win32,60.24096386,5,1,6,0.051851908,-0.002777778,1,0,0,0.7817,rock_grid_rect_2,4,16,-1,-1,0.782,-0.425925912,-0.25648151,1,0,0,1.4964,Andesite_rect,1,1.496,0,5,0,5,0,1,,,,,,,,,,,,,
65c243c37e0d77ca70ee030e,TCN,2024-06-21_14h04.23.190,LearnStrategy,2023.2.3,Win32,60.24096386,5,1,7,0,-0.010185199,1,0,0,0.7161,rock_grid_rect_2,2,11,-1,-1,0.716,-0.148148092,-0.241666667,1,0,0,1.4969,Basalt_rect,2,1.497,1,6,0,6,0,1,,,,,,,,,,,,,
65c243c37e0d77ca70ee030e,TCN,2024-06-21_14h04.23.190,LearnStrategy,2023.2.3,Win32,60.24096386,5,1,8,-0.020370314,-0.013888889,1,0,0,0.7995,rock_grid_rect_2,6,16,-1,-1,0.8,-0.145370314,-0.402777778,1,0,0,2.7343,Pegmatite_rect,6,2.734,1,7,0,7,0,1,,,,,,,,,,,,,
65c243c37e0d77ca70ee030e,TCN,2024-06-21_14h04.23.190,LearnStrategy,2023.2.3,Win32,60.24096386,5,1,9,-0.017592536,-0.011111111,1,0,0,0.5814,rock_grid_rect_2,6,13,-1,-1,0.581,-0.192592578,-0.405555556,1,0,0,2.216,Pegmatite_rect,6,2.216,1,8,0,8,0,1,,,,,,,,,,,,,
65c243c37e0d77ca70ee030e,TCN,2024-06-21_14h04.23.190,LearnStrategy,2023.2.3,Win32,60.24096386,5,1,10,-0.028703647,0.000925912,1,0,0,0.7653,rock_grid_rect_2,7,05,-1,-1,0.765,-0.321296268,-0.253703732,1,0,0,3.2198,Andesite_rect,1,3.22,0,9,0,9,0,1,,,,,,,,,,,,,
65c243c37e0d77ca70ee030e,TCN,2024-06-21_14h04.23.190,LearnStrategy,2023.2.3,Win32,60.24096386,5,1,11,-0.015740712,0,1,0,0,0.8171,rock_grid_rect_2,7,14,-1,-1,0.817,0.110185242,-0.412963019,1,0,0,1.6313,Peridotite_rect,7,1.631,1,10,0,10,0,1,,,,,,,,,,,,,
65c243c37e0d77ca70ee030e,TCN,2024-06-21_14h04.23.190,LearnStrategy,2023.2.3,Win32,60.24096386,5,1,12,0.014814843,0.010185157,1,0,0,0.5992,rock_grid_rect_2,5,08,-1,-1,0.599,-0.407407379,-0.405555556,1,0,0,0.9832,Obsidian_rect,5,0.983,1,11,0,11,0,1,,,,,,,,,,,,,
65c243c37e0d77ca70ee030e,TCN,2024-06-21_14h04.23.190,LearnStrategy,2023.2.3,Win32,60.24096386,5,1,13,-0.015740712,-0.015740755,1,0,0,0.667,rock_grid_rect_2,3,08,-1,-1,0.667,0.123148176,-0.249074131,1,0,0,1.096,Diorite_rect,3,1.096,1,12,0,12,0,1,,,,,,,,,,,,,
65c243c37e0d77ca70ee030e,TCN,2024-06-21_14h04.23.190,LearnStrategy,2023.2.3,Win32,60.24096386,5,1,14,-0.034259203,0.010185157,1,0,0,0.551,rock_grid_rect_2,1,06,-1,-1,0.551,0.121296353,-0.385185242,1,0,0,1.8327,Peridotite_rect,7,1.833,0,13,0,13,0,1,,,,,,,,,,,,,
65c243c37e0d77ca70ee030e,TCN,2024-06-21_14h04.23.190,LearnStrategy,2023.2.3,Win32,60.24096386,5,1,15,0,-0.020370399,1,0,0,0.5164,rock_grid_rect_2,5,07,-1,-1,0.516,-0.434259245,-0.405555556,1,0,0,1.3132,Obsidian_rect,5,1.313,1,14,0,14,0,1,,,,,,,,,,,,,
65c243c37e0d77ca70ee030e,TCN,2024-06-21_14h04.23.190,LearnStrategy,2023.2.3,Win32,60.24096386,5,1,16,0.034259288,-0.004629644,1,0,0,0.6505,rock_grid_rect_2,4,13,-1,-1,0.65,0.129629686,-0.382407464,1,0,0,3.2049,Peridotite_rect,7,3.205,0,15,0,15,0,1,,,,,,,,,,,,,
65c243c37e0d77ca70ee030e,TCN,2024-06-21_14h04.23.190,LearnStrategy,2023.2.3,Win32,60.24096386,5,2,1,,,,,,,,3,13,,,,,,,,,,,3,1.144,1,,,,,,0.078703732,-0.240740797,1,0,0,1.1438,Diorite_rect,0,0,0,0,1,
65c243c37e0d77ca70ee030e,TCN,2024-06-21_14h04.23.190,LearnStrategy,2023.2.3,Win32,60.24096386,5,2,2,,,,,,,,4,10,,,,,,,,,,,4,4.388,1,,,,,,0.379629686,-0.237037065,1,0,0,4.3881,Gabbro_rect,1,0,1,0,1,
65c243c37e0d77ca70ee030e,TCN,2024-06-21_14h04.23.190,LearnStrategy,2023.2.3,Win32,60.24096386,5,2,3,,,,,,,,5,11,,,,,,,,,,,5,0.96,1,,,,,,-0.422222222,-0.403703732,1,0,0,0.9603,Obsidian_rect,2,0,2,0,1,
65c243c37e0d77ca70ee030e,TCN,2024-06-21_14h04.23.190,LearnStrategy,2023.2.3,Win32,60.24096386,5,2,4,,,,,,,,5,05,,,,,,,,,,,5,4.757,1,,,,,,-0.383333333,-0.404629686,1,0,0,4.7569,Obsidian_rect,3,0,3,0,1,
65c243c37e0d77ca70ee030e,TCN,2024-06-21_14h04.23.190,LearnStrategy,2023.2.3,Win32,60.24096386,5,2,5,,,,,,,,8,16,,,,,,,,,,,8,1.277,1,,,,,,0.371296353,-0.391666667,1,0,0,1.2774,Pumice_rect,4,0,4,0,1,
65c243c37e0d77ca70ee030e,TCN,2024-06-21_14h04.23.190,LearnStrategy,2023.2.3,Win32,60.24096386,5,2,6,,,,,,,,3,12,,,,,,,,,,,3,1.962,1,,,,,,0.10648151,-0.254629686,1,0,0,1.9622,Diorite_rect,5,0,5,0,1,
65c243c37e0d77ca70ee030e,TCN,2024-06-21_14h04.23.190,LearnStrategy,2023.2.3,Win32,60.24096386,5,2,7,,,,,,,,1,10,,,,,,,,,,,1,3.099,1,,,,,,-0.373148134,-0.23148151,1,0,0,3.0992,Andesite_rect,6,0,6,0,1,
65c243c37e0d77ca70ee030e,TCN,2024-06-21_14h04.23.190,LearnStrategy,2023.2.3,Win32,60.24096386,5,2,8,,,,,,,,2,04,,,,,,,,,,,4,2.413,0,,,,,,0.368518575,-0.239814843,1,0,0,2.4132,Gabbro_rect,7,0,7,0,1,
65c243c37e0d77ca70ee030e,TCN,2024-06-21_14h04.23.190,LearnStrategy,2023.2.3,Win32,60.24096386,5,2,9,,,,,,,,1,09,,,,,,,,,,,1,4.57,1,,,,,,-0.383333333,-0.244444444,1,0,0,4.57,Andesite_rect,8,0,8,0,1,
65c243c37e0d77ca70ee030e,TCN,2024-06-21_14h04.23.190,LearnStrategy,2023.2.3,Win32,60.24096386,5,2,10,,,,,,,,6,12,,,,,,,,,,,6,3.984,1,,,,,,-0.100925869,-0.387037065,1,0,0,3.9844,Pegmatite_rect,9,0,9,0,1,
65c243c37e0d77ca70ee030e,TCN,2024-06-21_14h04.23.190,LearnStrategy,2023.2.3,Win32,60.24096386,5,2,11,,,,,,,,7,15,,,,,,,,,,,7,1.061,1,,,,,,0.103703732,-0.396296353,1,0,0,1.0611,Peridotite_rect,10,0,10,0,1,
65c243c37e0d77ca70ee030e,TCN,2024-06-21_14h04.23.190,LearnStrategy,2023.2.3,Win32,60.24096386,5,2,12,,,,,,,,2,06,,,,,,,,,,,4,2.715,0,,,,,,0.393518575,-0.244444444,1,0,0,2.7145,Gabbro_rect,11,0,11,0,1,
65c243c37e0d77ca70ee030e,TCN,2024-06-21_14h04.23.190,LearnStrategy,2023.2.3,Win32,60.24096386,5,2,13,,,,,,,,8,05,,,,,,,,,,,8,1.178,1,,,,,,0.422222222,-0.412963019,1,0,0,1.1781,Pumice_rect,12,0,12,0,1,
65c243c37e0d77ca70ee030e,TCN,2024-06-21_14h04.23.190,LearnStrategy,2023.2.3,Win32,60.24096386,5,2,14,,,,,,,,4,14,,,,,,,,,,,4,1.716,1,,,,,,0.324074131,-0.232407464,1,0,0,1.7158,Gabbro_rect,13,0,13,0,1,
65c243c37e0d77ca70ee030e,TCN,2024-06-21_14h04.23.190,LearnStrategy,2023.2.3,Win32,60.24096386,5,2,15,,,,,,,,7,13,,,,,,,,,,,1,8.984,0,,,,,,-0.391666667,-0.241666667,1,0,0,8.9839,Andesite_rect,14,0,14,0,1,
65c243c37e0d77ca70ee030e,TCN,2024-06-21_14h04.23.190,LearnStrategy,2023.2.3,Win32,60.24096386,5,2,16,,,,,,,,6,03,,,,,,,,,,,6,1.164,1,,,,,,-0.136111111,-0.387963019,1,0,0,1.1636,Pegmatite_rect,15,0,15,0,1,
65c243c37e0d77ca70ee030e,TCN,2024-06-21_14h04.23.190,LearnStrategy,2023.2.3,Win32,60.24096386,6,1,1,0.03148151,-0.008333333,1,0,0,0.8999,rock_grid_rect_2,5,02,-1,-1,0.9,-0.471296268,-0.395370399,1,0,0,1.499,Obsidian_rect,5,1.499,1,0,0,0,0,1,,,,,,,,,,,,,
65c243c37e0d77ca70ee030e,TCN,2024-06-21_14h04.23.190,LearnStrategy,2023.2.3,Win32,60.24096386,6,1,2,-0.070370314,-0.000925954,1,0,0,0.7341,rock_grid_rect_2,8,06,-1,-1,0.734,0.412037065,-0.404629686,1,0,0,1.6337,Pumice_rect,8,1.634,1,1,0,1,0,1,,,,,,,,,,,,,
65c243c37e0d77ca70ee030e,TCN,2024-06-21_14h04.23.190,LearnStrategy,2023.2.3,Win32,60.24096386,6,1,3,0.016666667,-0.007407422,1,0,0,0.7496,rock_grid_rect_2,7,16,-1,-1,0.75,0.110185242,-0.402777778,1,0,0,18.1886,Peridotite_rect,7,18.189,1,2,0,2,0,1,,,,,,,,,,,,,
65c243c37e0d77ca70ee030e,TCN,2024-06-21_14h04.23.190,LearnStrategy,2023.2.3,Win32,60.24096386,6,1,4,0.034259288,0.01851849,1,0,0,0.6989,rock_grid_rect_2,3,07,-1,-1,0.699,0.135185242,-0.267592621,1,0,0,1.0624,Diorite_rect,3,1.062,1,3,0,3,0,1,,,,,,,,,,,,,
65c243c37e0d77ca70ee030e,TCN,2024-06-21_14h04.23.190,LearnStrategy,2023.2.3,Win32,60.24096386,6,1,5,0.021296353,0.002777778,1,0,0,0.6331,rock_grid_rect_2,4,15,-1,-1,0.633,0.100925954,-0.252777778,1,0,0,1.2295,Diorite_rect,3,1.229,0,4,0,4,0,1,,,,,,,,,,,,,
65c243c37e0d77ca70ee030e,TCN,2024-06-21_14h04.23.190,LearnStrategy,2023.2.3,Win32,60.24096386,6,1,6,0.082407464,-0.013888889,1,0,0,0.6157,rock_grid_rect_2,2,05,-1,-1,0.616,0.4,-0.238888889,1,0,0,1.2486,Gabbro_rect,4,1.249,0,5,0,5,0,1,,,,,,,,,,,,,
65c243c37e0d77ca70ee030e,TCN,2024-06-21_14h04.23.190,LearnStrategy,2023.2.3,Win32,60.24096386,6,1,7,0.08148151,-0.007407422,1,0,0,0.7677,rock_grid_rect_2,2,02,-1,-1,0.768,-0.371296268,-0.270370399,1,0,0,1.267,Andesite_rect,1,1.267,0,6,0,6,0,1,,,,,,,,,,,,,
65c243c37e0d77ca70ee030e,TCN,2024-06-21_14h04.23.190,LearnStrategy,2023.2.3,Win32,60.24096386,6,1,8,0.055555556,-0.007407422,1,0,0,0.6502,rock_grid_rect_2,4,11,-1,-1,0.65,-0.166666667,-0.251851908,1,0,0,1.3337,Basalt_rect,2,1.334,0,7,0,7,0,1,,,,,,,,,,,,,
65c243c37e0d77ca70ee030e,TCN,2024-06-21_14h04.23.190,LearnStrategy,2023.2.3,Win32,60.24096386,6,1,9,0.097222222,-0.022222222,1,0,0,0.7825,rock_grid_rect_2,6,10,-1,-1,0.783,-0.156481425,-0.421296353,1,0,0,1.6177,Pegmatite_rect,6,1.618,1,8,0,8,0,1,,,,,,,,,,,,,
65c243c37e0d77ca70ee030e,TCN,2024-06-21_14h04.23.190,LearnStrategy,2023.2.3,Win32,60.24096386,6,1,10,-0.04351849,-0.000925954,1,0,0,0.9181,rock_grid_rect_2,3,15,-1,-1,0.918,0.147222222,-0.266666667,1,0,0,0.9655,Diorite_rect,3,0.966,1,9,0,9,0,1,,,,,,,,,,,,,
65c243c37e0d77ca70ee030e,TCN,2024-06-21_14h04.23.190,LearnStrategy,2023.2.3,Win32,60.24096386,6,1,11,0.008333333,0.007407379,1,0,0,0.6679,rock_grid_rect_2,1,11,-1,-1,0.668,-0.420370356,-0.247222222,1,0,0,1.7141,Andesite_rect,1,1.714,1,10,0,10,0,1,,,,,,,,,,,,,
65c243c37e0d77ca70ee030e,TCN,2024-06-21_14h04.23.190,LearnStrategy,2023.2.3,Win32,60.24096386,6,1,12,0.018518575,0.012962935,1,0,0,0.5503,rock_grid_rect_2,1,04,-1,-1,0.55,-0.129629601,-0.254629686,1,0,0,4.1534,Basalt_rect,2,4.153,0,11,0,11,0,1,,,,,,,,,,,,,
65c243c37e0d77ca70ee030e,TCN,2024-06-21_14h04.23.190,LearnStrategy,2023.2.3,Win32,60.24096386,6,1,13,0.016666667,-0.016666667,1,0,0,0.6985,rock_grid_rect_2,6,06,-1,-1,0.699,-0.114814758,-0.403703732,1,0,0,5.8257,Pegmatite_rect,6,5.826,1,12,0,12,0,1,,,,,,,,,,,,,
65c243c37e0d77ca70ee030e,TCN,2024-06-21_14h04.23.190,LearnStrategy,2023.2.3,Win32,60.24096386,6,1,14,0.1,0.000925912,1,0,0,0.5311,rock_grid_rect_2,5,06,-1,-1,0.531,-0.359259245,-0.419444444,1,0,0,0.9992,Obsidian_rect,5,0.999,1,13,0,13,0,1,,,,,,,,,,,,,
65c243c37e0d77ca70ee030e,TCN,2024-06-21_14h04.23.190,LearnStrategy,2023.2.3,Win32,60.24096386,6,1,15,0.034259288,-0.003703732,1,0,0,0.6332,rock_grid_rect_2,8,13,-1,-1,0.633,0.401851908,-0.399074131,1,0,0,1.0495,Pumice_rect,8,1.05,1,14,0,14,0,1,,,,,,,,,,,,,
65c243c37e0d77ca70ee030e,TCN,2024-06-21_14h04.23.190,LearnStrategy,2023.2.3,Win32,60.24096386,6,1,16,0.10648151,-0.014814843,1,0,0,0.8348,rock_grid_rect_2,7,07,-1,-1,0.835,0.107407464,-0.389814843,1,0,0,2.1483,Peridotite_rect,7,2.148,1,15,0,15,0,1,,,,,,,,,,,,,
65c243c37e0d77ca70ee030e,TCN,2024-06-21_14h04.23.190,LearnStrategy,2023.2.3,Win32,60.24096386,6,2,1,,,,,,,,7,08,,,,,,,,,,,7,1.698,1,,,,,,0.104629686,-0.394444444,1,0,0,1.6979,Peridotite_rect,0,0,0,0,1,
65c243c37e0d77ca70ee030e,TCN,2024-06-21_14h04.23.190,LearnStrategy,2023.2.3,Win32,60.24096386,6,2,2,,,,,,,,2,08,,,,,,,,,,,4,3.967,0,,,,,,0.357407464,-0.236111111,1,0,0,3.9675,Gabbro_rect,1,0,1,0,1,
65c243c37e0d77ca70ee030e,TCN,2024-06-21_14h04.23.190,LearnStrategy,2023.2.3,Win32,60.24096386,6,2,3,,,,,,,,1,05,,,,,,,,,,,7,3.383,0,,,,,,0.159259288,-0.398148176,1,0,0,3.3834,Peridotite_rect,2,0,2,0,1,
65c243c37e0d77ca70ee030e,TCN,2024-06-21_14h04.23.190,LearnStrategy,2023.2.3,Win32,60.24096386,6,2,4,,,,,,,,6,09,,,,,,,,,,,6,1.279,1,,,,,,-0.162036981,-0.387963019,1,0,0,1.2787,Pegmatite_rect,3,0,3,0,1,
65c243c37e0d77ca70ee030e,TCN,2024-06-21_14h04.23.190,LearnStrategy,2023.2.3,Win32,60.24096386,6,2,5,,,,,,,,7,06,,,,,,,,,,,7,1.361,1,,,,,,0.112037065,-0.412963019,1,0,0,1.3614,Peridotite_rect,4,0,4,0,1,
65c243c37e0d77ca70ee030e,TCN,2024-06-21_14h04.23.190,LearnStrategy,2023.2.3,Win32,60.24096386,6,2,6,,,,,,,,5,12,,,,,,,,,,,5,0.944,1,,,,,,-0.440740712,-0.415740797,1,0,0,0.9439,Obsidian_rect,5,0,5,0,1,
65c243c37e0d77ca70ee030e,TCN,2024-06-21_14h04.23.190,LearnStrategy,2023.2.3,Win32,60.24096386,6,2,7,,,,,,,,8,14,,,,,,,,,,,8,1.112,1,,,,,,0.438888889,-0.392592621,1,0,0,1.1122,Pumice_rect,6,0,6,0,1,
65c243c37e0d77ca70ee030e,TCN,2024-06-21_14h04.23.190,LearnStrategy,2023.2.3,Win32,60.24096386,6,2,8,,,,,,,,1,02,,,,,,,,,,,1,3.333,1,,,,,,-0.376851824,-0.254629686,1,0,0,3.3333,Andesite_rect,7,0,7,0,1,
65c243c37e0d77ca70ee030e,TCN,2024-06-21_14h04.23.190,LearnStrategy,2023.2.3,Win32,60.24096386,6,2,9,,,,,,,,5,16,,,,,,,,,,,5,1.162,1,,,,,,-0.424074046,-0.403703732,1,0,0,1.1622,Obsidian_rect,8,0,8,0,1,
65c243c37e0d77ca70ee030e,TCN,2024-06-21_14h04.23.190,LearnStrategy,2023.2.3,Win32,60.24096386,6,2,10,,,,,,,,8,04,,,,,,,,,,,8,1.061,1,,,,,,0.369444444,-0.407407464,1,0,0,1.061,Pumice_rect,9,0,9,0,1,
65c243c37e0d77ca70ee030e,TCN,2024-06-21_14h04.23.190,LearnStrategy,2023.2.3,Win32,60.24096386,6,2,11,,,,,,,,3,06,,,,,,,,,,,3,1.799,1,,,,,,0.100925954,-0.25648151,1,0,0,1.7988,Diorite_rect,10,0,10,0,1,
65c243c37e0d77ca70ee030e,TCN,2024-06-21_14h04.23.190,LearnStrategy,2023.2.3,Win32,60.24096386,6,2,12,,,,,,,,6,05,,,,,,,,,,,6,1.277,1,,,,,,-0.094444444,-0.385185242,1,0,0,1.2775,Pegmatite_rect,11,0,11,0,1,
65c243c37e0d77ca70ee030e,TCN,2024-06-21_14h04.23.190,LearnStrategy,2023.2.3,Win32,60.24096386,6,2,13,,,,,,,,3,02,,,,,,,,,,,3,1.244,1,,,,,,0.124074131,-0.254629686,1,0,0,1.2442,Diorite_rect,12,0,12,0,1,
65c243c37e0d77ca70ee030e,TCN,2024-06-21_14h04.23.190,LearnStrategy,2023.2.3,Win32,60.24096386,6,2,14,,,,,,,,4,08,,,,,,,,,,,1,7.526,0,,,,,,-0.372222222,-0.230555556,1,0,0,7.526,Andesite_rect,13,0,13,0,1,
65c243c37e0d77ca70ee030e,TCN,2024-06-21_14h04.23.190,LearnStrategy,2023.2.3,Win32,60.24096386,6,2,15,,,,,,,,4,03,,,,,,,,,,,1,3.668,0,,,,,,-0.358333333,-0.262037065,1,0,0,3.6685,Andesite_rect,14,0,14,0,1,
65c243c37e0d77ca70ee030e,TCN,2024-06-21_14h04.23.190,LearnStrategy,2023.2.3,Win32,60.24096386,6,2,16,,,,,,,,2,14,,,,,,,,,,,4,2.919,0,,,,,,0.375925954,-0.240740797,1,0,0,2.9186,Gabbro_rect,15,0,15,0,1,
65c243c37e0d77ca70ee030e,TCN,2024-06-21_14h04.23.190,LearnStrategy,2023.2.3,Win32,60.24096386,7,1,1,-0.000925869,-0.009259288,1,0,0,3.0383,rock_grid_rect_2,7,02,-1,-1,3.038,0.119444444,-0.411111111,1,0,0,1.8841,Peridotite_rect,7,1.884,1,0,0,0,0,1,,,,,,,,,,,,,
65c243c37e0d77ca70ee030e,TCN,2024-06-21_14h04.23.190,LearnStrategy,2023.2.3,Win32,60.24096386,7,1,2,0.019444444,0.000925912,1,0,0,1.0347,rock_grid_rect_2,3,07,-1,-1,1.035,0.127777778,-0.263888889,1,0,0,0.9662,Diorite_rect,3,0.966,1,1,0,1,0,1,,,,,,,,,,,,,
65c243c37e0d77ca70ee030e,TCN,2024-06-21_14h04.23.190,LearnStrategy,2023.2.3,Win32,60.24096386,7,1,3,-0.01851849,-0.015740755,1,0,0,0.5491,rock_grid_rect_2,7,07,-1,-1,0.549,0.151851908,-0.4,1,0,0,1.0832,Peridotite_rect,7,1.083,1,2,0,2,0,1,,,,,,,,,,,,,
65c243c37e0d77ca70ee030e,TCN,2024-06-21_14h04.23.190,LearnStrategy,2023.2.3,Win32,60.24096386,7,1,4,-0.055555556,-0.023148176,1,0,0,0.5341,rock_grid_rect_2,3,15,-1,-1,0.534,0.135185242,-0.238888889,1,0,0,3.2175,Diorite_rect,3,3.217,1,3,0,3,0,1,,,,,,,,,,,,,
65c243c37e0d77ca70ee030e,TCN,2024-06-21_14h04.23.190,LearnStrategy,2023.2.3,Win32,60.24096386,7,1,5,0.018518575,-0.020370399,1,0,0,0.5852,rock_grid_rect_2,5,14,-1,-1,0.585,-0.354629601,-0.414814843,1,0,0,1.4174,Obsidian_rect,5,1.417,1,4,0,4,0,1,,,,,,,,,,,,,
65c243c37e0d77ca70ee030e,TCN,2024-06-21_14h04.23.190,LearnStrategy,2023.2.3,Win32,60.24096386,7,1,6,-0.023148092,-0.007407422,1,0,0,0.8183,rock_grid_rect_2,2,05,-1,-1,0.818,-0.149074046,-0.240740797,1,0,0,3.8854,Basalt_rect,2,3.885,1,5,0,5,0,1,,,,,,,,,,,,,
65c243c37e0d77ca70ee030e,TCN,2024-06-21_14h04.23.190,LearnStrategy,2023.2.3,Win32,60.24096386,7,1,7,0.084259288,-0.011111111,1,0,0,0.6314,rock_grid_rect_2,4,13,-1,-1,0.631,0.133333333,-0.261111111,1,0,0,1.5842,Diorite_rect,3,1.584,0,6,0,6,0,1,,,,,,,,,,,,,
65c243c37e0d77ca70ee030e,TCN,2024-06-21_14h04.23.190,LearnStrategy,2023.2.3,Win32,60.24096386,7,1,8,0.049074131,-0.012962977,1,0,0,1.151,rock_grid_rect_2,6,07,-1,-1,1.151,-0.112962935,-0.407407464,1,0,0,2.2653,Pegmatite_rect,6,2.265,1,7,0,7,0,1,,,,,,,,,,,,,
65c243c37e0d77ca70ee030e,TCN,2024-06-21_14h04.23.190,LearnStrategy,2023.2.3,Win32,60.24096386,7,1,9,0.032407464,-0.005555556,1,0,0,0.6306,rock_grid_rect_2,2,16,-1,-1,0.631,0.372222222,-0.251851908,1,0,0,2.0184,Gabbro_rect,4,2.018,0,8,0,8,0,1,,,,,,,,,,,,,
65c243c37e0d77ca70ee030e,TCN,2024-06-21_14h04.23.190,LearnStrategy,2023.2.3,Win32,60.24096386,7,1,10,0.03148151,-0.009259288,1,0,0,0.6324,rock_grid_rect_2,1,06,-1,-1,0.632,-0.37870369,-0.258333333,1,0,0,1.4804,Andesite_rect,1,1.48,1,9,0,9,0,1,,,,,,,,,,,,,
65c243c37e0d77ca70ee030e,TCN,2024-06-21_14h04.23.190,LearnStrategy,2023.2.3,Win32,60.24096386,7,1,11,-0.01851849,0.007407379,1,0,0,0.534,rock_grid_rect_2,4,12,-1,-1,0.534,-0.166666667,-0.255555556,1,0,0,1.1628,Basalt_rect,2,1.163,0,10,0,10,0,1,,,,,,,,,,,,,
65c243c37e0d77ca70ee030e,TCN,2024-06-21_14h04.23.190,LearnStrategy,2023.2.3,Win32,60.24096386,7,1,12,0.036111111,-0.015740755,1,0,0,0.6334,rock_grid_rect_2,6,16,-1,-1,0.633,-0.139814758,-0.398148176,1,0,0,1.517,Pegmatite_rect,6,1.517,1,11,0,11,0,1,,,,,,,,,,,,,
65c243c37e0d77ca70ee030e,TCN,2024-06-21_14h04.23.190,LearnStrategy,2023.2.3,Win32,60.24096386,7,1,13,-0.019444444,-0.022222222,1,0,0,0.5495,rock_grid_rect_2,8,06,-1,-1,0.55,0.391666667,-0.398148176,1,0,0,1.1177,Pumice_rect,8,1.118,1,12,0,12,0,1,,,,,,,,,,,,,
65c243c37e0d77ca70ee030e,TCN,2024-06-21_14h04.23.190,LearnStrategy,2023.2.3,Win32,60.24096386,7,1,14,0.023148176,-0.02129631,1,0,0,0.7511,rock_grid_rect_2,5,07,-1,-1,0.751,-0.397222222,-0.407407464,1,0,0,1.0304,Obsidian_rect,5,1.03,1,13,0,13,0,1,,,,,,,,,,,,,
65c243c37e0d77ca70ee030e,TCN,2024-06-21_14h04.23.190,LearnStrategy,2023.2.3,Win32,60.24096386,7,1,15,0.017592621,-0.02129631,1,0,0,0.7502,rock_grid_rect_2,1,11,-1,-1,0.75,-0.338888889,-0.232407464,1,0,0,1.3474,Andesite_rect,1,1.347,1,14,0,14,0,1,,,,,,,,,,,,,
65c243c37e0d77ca70ee030e,TCN,2024-06-21_14h04.23.190,LearnStrategy,2023.2.3,Win32,60.24096386,7,1,16,-0.005555556,-0.003703732,1,0,0,0.5831,rock_grid_rect_2,8,03,-1,-1,0.583,0.375,-0.394444444,1,0,0,1.2828,Pumice_rect,8,1.283,1,15,0,15,0,1,,,,,,,,,,,,,
65c243c37e0d77ca70ee030e,TCN,2024-06-21_14h04.23.190,LearnStrategy,2023.2.3,Win32,60.24096386,7,2,1,,,,,,,,3,09,,,,,,,,,,,3,1.244,1,,,,,,0.115740797,-0.243518575,1,0,0,1.2444,Diorite_rect,0,0,0,0,1,
65c243c37e0d77ca70ee030e,TCN,2024-06-21_14h04.23.190,LearnStrategy,2023.2.3,Win32,60.24096386,7,2,2,,,,,,,,7,06,,,,,,,,,,,7,1.032,1,,,,,,0.118518575,-0.418518575,1,0,0,1.0318,Peridotite_rect,1,0,1,0,1,
65c243c37e0d77ca70ee030e,TCN,2024-06-21_14h04.23.190,LearnStrategy,2023.2.3,Win32,60.24096386,7,2,3,,,,,,,,6,08,,,,,,,,,,,6,0.943,1,,,,,,-0.123148092,-0.378703732,1,0,0,0.9434,Pegmatite_rect,2,0,2,0,1,
65c243c37e0d77ca70ee030e,TCN,2024-06-21_14h04.23.190,LearnStrategy,2023.2.3,Win32,60.24096386,7,2,4,,,,,,,,7,10,,,,,,,,,,,7,1.129,1,,,,,,0.129629686,-0.396296353,1,0,0,1.1285,Peridotite_rect,3,0,3,0,1,
65c243c37e0d77ca70ee030e,TCN,2024-06-21_14h04.23.190,LearnStrategy,2023.2.3,Win32,60.24096386,7,2,5,,,,,,,,2,04,,,,,,,,,,,4,3.216,0,,,,,,0.433333333,-0.242592621,1,0,0,3.2158,Gabbro_rect,4,0,4,0,1,
65c243c37e0d77ca70ee030e,TCN,2024-06-21_14h04.23.190,LearnStrategy,2023.2.3,Win32,60.24096386,7,2,6,,,,,,,,8,16,,,,,,,,,,,8,1.038,1,,,,,,0.346296353,-0.398148176,1,0,0,1.0384,Pumice_rect,5,0,5,0,1,
65c243c37e0d77ca70ee030e,TCN,2024-06-21_14h04.23.190,LearnStrategy,2023.2.3,Win32,60.24096386,7,2,7,,,,,,,,5,09,,,,,,,,,,,5,1.045,1,,,,,,-0.406481467,-0.382407464,1,0,0,1.0452,Obsidian_rect,6,0,6,0,1,
65c243c37e0d77ca70ee030e,TCN,2024-06-21_14h04.23.190,LearnStrategy,2023.2.3,Win32,60.24096386,7,2,8,,,,,,,,2,08,,,,,,,,,,,2,5.037,1,,,,,,-0.213888889,-0.242592621,1,0,0,5.0366,Basalt_rect,7,0,7,0,1,
65c243c37e0d77ca70ee030e,TCN,2024-06-21_14h04.23.190,LearnStrategy,2023.2.3,Win32,60.24096386,7,2,9,,,,,,,,1,03,,,,,,,,,,,1,1.439,1,,,,,,-0.379629601,-0.23148151,1,0,0,1.439,Andesite_rect,8,0,8,0,1,
65c243c37e0d77ca70ee030e,TCN,2024-06-21_14h04.23.190,LearnStrategy,2023.2.3,Win32,60.24096386,7,2,10,,,,,,,,5,05,,,,,,,,,,,5,1.229,1,,,,,,-0.386111111,-0.404629686,1,0,0,1.2288,Obsidian_rect,9,0,9,0,1,
65c243c37e0d77ca70ee030e,TCN,2024-06-21_14h04.23.190,LearnStrategy,2023.2.3,Win32,60.24096386,7,2,11,,,,,,,,8,15,,,,,,,,,,,8,1.178,1,,,,,,0.395370399,-0.395370399,1,0,0,1.1775,Pumice_rect,10,0,10,0,1,
65c243c37e0d77ca70ee030e,TCN,2024-06-21_14h04.23.190,LearnStrategy,2023.2.3,Win32,60.24096386,7,2,12,,,,,,,,1,10,,,,,,,,,,,4,6.223,0,,,,,,0.327777778,-0.243518575,1,0,0,6.2231,Gabbro_rect,11,0,11,0,1,
65c243c37e0d77ca70ee030e,TCN,2024-06-21_14h04.23.190,LearnStrategy,2023.2.3,Win32,60.24096386,7,2,13,,,,,,,,6,11,,,,,,,,,,,6,1.639,1,,,,,,-0.150925869,-0.393518575,1,0,0,1.639,Pegmatite_rect,12,0,12,0,1,
65c243c37e0d77ca70ee030e,TCN,2024-06-21_14h04.23.190,LearnStrategy,2023.2.3,Win32,60.24096386,7,2,14,,,,,,,,4,14,,,,,,,,,,,4,2.431,1,,,,,,0.435185242,-0.261111111,1,0,0,2.4312,Gabbro_rect,13,0,13,0,1,
65c243c37e0d77ca70ee030e,TCN,2024-06-21_14h04.23.190,LearnStrategy,2023.2.3,Win32,60.24096386,7,2,15,,,,,,,,3,13,,,,,,,,,,,3,1.112,1,,,,,,0.159259288,-0.260185242,1,0,0,1.1117,Diorite_rect,14,0,14,0,1,
65c243c37e0d77ca70ee030e,TCN,2024-06-21_14h04.23.190,LearnStrategy,2023.2.3,Win32,60.24096386,7,2,16,,,,,,,,4,09,,,,,,,,,,,4,1.377,1,,,,,,0.362037065,-0.255555556,1,0,0,1.3774,Gabbro_rect,15,0,15,0,1,
65c243c37e0d77ca70ee030e,TCN,2024-06-21_14h04.23.190,LearnStrategy,2023.2.3,Win32,60.24096386,8,1,1,0.090740797,0.012037023,1,0,0,2.9384,rock_grid_rect_2,6,10,-1,-1,2.938,-0.179629601,-0.404629686,1,0,0,1.3166,Pegmatite_rect,6,1.317,1,0,0,0,0,1,,,,,,,,,,,,,
65c243c37e0d77ca70ee030e,TCN,2024-06-21_14h04.23.190,LearnStrategy,2023.2.3,Win32,60.24096386,8,1,2,-0.060185157,-0.014814843,1,0,0,0.7173,rock_grid_rect_2,7,12,-1,-1,0.717,0.143518575,-0.408333333,1,0,0,2.3507,Peridotite_rect,7,2.351,1,1,0,1,0,1,,,,,,,,,,,,,
65c243c37e0d77ca70ee030e,TCN,2024-06-21_14h04.23.190,LearnStrategy,2023.2.3,Win32,60.24096386,8,1,3,0.012963019,-0.018518533,1,0,0,0.9676,rock_grid_rect_2,3,11,-1,-1,0.968,0.109259288,-0.264814843,1,0,0,1.7143,Diorite_rect,3,1.714,1,2,0,2,0,1,,,,,,,,,,,,,
65c243c37e0d77ca70ee030e,TCN,2024-06-21_14h04.23.190,LearnStrategy,2023.2.3,Win32,60.24096386,8,1,4,0.033333333,0.016666667,1,0,0,0.6,rock_grid_rect_2,4,15,-1,-1,0.6,0.35648151,-0.235185242,1,0,0,1.783,Gabbro_rect,4,1.783,1,3,0,3,0,1,,,,,,,,,,,,,
65c243c37e0d77ca70ee030e,TCN,2024-06-21_14h04.23.190,LearnStrategy,2023.2.3,Win32,60.24096386,8,1,5,0.035185242,-0.023148176,1,0,0,0.6162,rock_grid_rect_2,5,02,-1,-1,0.616,-0.379629601,-0.390740797,1,0,0,1.0451,Obsidian_rect,5,1.045,1,4,0,4,0,1,,,,,,,,,,,,,
65c243c37e0d77ca70ee030e,TCN,2024-06-21_14h04.23.190,LearnStrategy,2023.2.3,Win32,60.24096386,8,1,6,0.054629686,0.000925912,1,0,0,0.5995,rock_grid_rect_2,7,16,-1,-1,0.6,0.10648151,-0.396296353,1,0,0,1.8167,Peridotite_rect,7,1.817,1,5,0,5,0,1,,,,,,,,,,,,,
65c243c37e0d77ca70ee030e,TCN,2024-06-21_14h04.23.190,LearnStrategy,2023.2.3,Win32,60.24096386,8,1,7,0.061111111,0.01851849,1,0,0,0.584,rock_grid_rect_2,1,04,-1,-1,0.584,-0.394444444,-0.237037065,1,0,0,1.6314,Andesite_rect,1,1.631,1,6,0,6,0,1,,,,,,,,,,,,,
65c243c37e0d77ca70ee030e,TCN,2024-06-21_14h04.23.190,LearnStrategy,2023.2.3,Win32,60.24096386,8,1,8,0.012963019,-0.008333333,1,0,0,0.6667,rock_grid_rect_2,4,11,-1,-1,0.667,-0.140740712,-0.241666667,1,0,0,1.3627,Basalt_rect,2,1.363,0,7,0,7,0,1,,,,,,,,,,,,,
65c243c37e0d77ca70ee030e,TCN,2024-06-21_14h04.23.190,LearnStrategy,2023.2.3,Win32,60.24096386,8,1,9,0.072222222,0.002777778,1,0,0,0.5834,rock_grid_rect_2,2,12,-1,-1,0.583,-0.407407379,-0.237963019,1,0,0,1.2298,Andesite_rect,1,1.23,0,8,0,8,0,1,,,,,,,,,,,,,
65c243c37e0d77ca70ee030e,TCN,2024-06-21_14h04.23.190,LearnStrategy,2023.2.3,Win32,60.24096386,8,1,10,0.009259288,0.014814801,1,0,0,0.6345,rock_grid_rect_2,6,15,-1,-1,0.635,-0.155555556,-0.393518575,1,0,0,1.2122,Pegmatite_rect,6,1.212,1,9,0,9,0,1,,,,,,,,,,,,,
65c243c37e0d77ca70ee030e,TCN,2024-06-21_14h04.23.190,LearnStrategy,2023.2.3,Win32,60.24096386,8,1,11,0.112963019,0.011111111,1,0,0,0.5508,rock_grid_rect_2,8,13,-1,-1,0.551,0.393518575,-0.407407464,1,0,0,0.9783,Pumice_rect,8,0.978,1,10,0,10,0,1,,,,,,,,,,,,,
65c243c37e0d77ca70ee030e,TCN,2024-06-21_14h04.23.190,LearnStrategy,2023.2.3,Win32,60.24096386,8,1,12,0.062963019,0.010185157,1,0,0,0.5672,rock_grid_rect_2,2,11,-1,-1,0.567,-0.417592578,-0.239814843,1,0,0,1.233,Andesite_rect,1,1.233,0,11,0,11,0,1,,,,,,,,,,,,,
65c243c37e0d77ca70ee030e,TCN,2024-06-21_14h04.23.190,LearnStrategy,2023.2.3,Win32,60.24096386,8,1,13,0.015740797,-0.003703732,1,0,0,0.6009,rock_grid_rect_2,8,02,-1,-1,0.601,0.38148151,-0.391666667,1,0,0,1.1994,Pumice_rect,8,1.199,1,12,0,12,0,1,,,,,,,,,,,,,
65c243c37e0d77ca70ee030e,TCN,2024-06-21_14h04.23.190,LearnStrategy,2023.2.3,Win32,60.24096386,8,1,14,0.133333333,0.019444444,1,0,0,0.5508,rock_grid_rect_2,5,06,-1,-1,0.551,-0.423148134,-0.384259288,1,0,0,1.4324,Obsidian_rect,5,1.432,1,13,0,13,0,1,,,,,,,,,,,,,
65c243c37e0d77ca70ee030e,TCN,2024-06-21_14h04.23.190,LearnStrategy,2023.2.3,Win32,60.24096386,8,1,15,0.087963019,-0.015740755,1,0,0,0.6489,rock_grid_rect_2,1,14,-1,-1,0.649,-0.299074046,-0.229629686,1,0,0,2.2357,Andesite_rect,1,2.236,1,14,0,14,0,1,,,,,,,,,,,,,
65c243c37e0d77ca70ee030e,TCN,2024-06-21_14h04.23.190,LearnStrategy,2023.2.3,Win32,60.24096386,8,1,16,0.025,-0.009259288,1,0,0,0.6498,rock_grid_rect_2,3,08,-1,-1,0.65,0.15648151,-0.236111111,1,0,0,1.1801,Diorite_rect,3,1.18,1,15,0,15,0,1,,,,,,,,,,,,,
65c243c37e0d77ca70ee030e,TCN,2024-06-21_14h04.23.190,LearnStrategy,2023.2.3,Win32,60.24096386,8,2,1,,,,,,,,3,06,,,,,,,,,,,3,1.83,1,,,,,,0.130555556,-0.242592621,1,0,0,1.8302,Diorite_rect,0,0,0,0,1,
65c243c37e0d77ca70ee030e,TCN,2024-06-21_14h04.23.190,LearnStrategy,2023.2.3,Win32,60.24096386,8,2,2,,,,,,,,4,05,,,,,,,,,,,4,3.584,1,,,,,,0.384259288,-0.251851908,1,0,0,3.584,Gabbro_rect,1,0,1,0,1,
65c243c37e0d77ca70ee030e,TCN,2024-06-21_14h04.23.190,LearnStrategy,2023.2.3,Win32,60.24096386,8,2,3,,,,,,,,4,10,,,,,,,,,,,4,2.344,1,,,,,,0.365740797,-0.244444444,1,0,0,2.3443,Gabbro_rect,2,0,2,0,1,
65c243c37e0d77ca70ee030e,TCN,2024-06-21_14h04.23.190,LearnStrategy,2023.2.3,Win32,60.24096386,8,2,4,,,,,,,,1,02,,,,,,,,,,,1,2.865,1,,,,,,-0.434259245,-0.253703732,1,0,0,2.8655,Andesite_rect,3,0,3,0,1,
65c243c37e0d77ca70ee030e,TCN,2024-06-21_14h04.23.190,LearnStrategy,2023.2.3,Win32,60.24096386,8,2,5,,,,,,,,5,16,,,,,,,,,,,5,0.909,1,,,,,,-0.400925912,-0.418518575,1,0,0,0.9095,Obsidian_rect,4,0,4,0,1,
65c243c37e0d77ca70ee030e,TCN,2024-06-21_14h04.23.190,LearnStrategy,2023.2.3,Win32,60.24096386,8,2,6,,,,,,,,8,05,,,,,,,,,,,8,1.262,1,,,,,,0.450925954,-0.404629686,1,0,0,1.2619,Pumice_rect,5,0,5,0,1,
65c243c37e0d77ca70ee030e,TCN,2024-06-21_14h04.23.190,LearnStrategy,2023.2.3,Win32,60.24096386,8,2,7,,,,,,,,5,11,,,,,,,,,,,5,1.045,1,,,,,,-0.427777778,-0.4,1,0,0,1.0447,Obsidian_rect,6,0,6,0,1,
65c243c37e0d77ca70ee030e,TCN,2024-06-21_14h04.23.190,LearnStrategy,2023.2.3,Win32,60.24096386,8,2,8,,,,,,,,7,04,,,,,,,,,,,7,3.805,1,,,,,,0.133333333,-0.395370399,1,0,0,3.8055,Peridotite_rect,7,0,7,0,1,
65c243c37e0d77ca70ee030e,TCN,2024-06-21_14h04.23.190,LearnStrategy,2023.2.3,Win32,60.24096386,8,2,9,,,,,,,,8,14,,,,,,,,,,,8,0.909,1,,,,,,0.375925954,-0.390740797,1,0,0,0.9095,Pumice_rect,8,0,8,0,1,
65c243c37e0d77ca70ee030e,TCN,2024-06-21_14h04.23.190,LearnStrategy,2023.2.3,Win32,60.24096386,8,2,10,,,,,,,,2,14,,,,,,,,,,,4,4.018,0,,,,,,0.335185242,-0.258333333,1,0,0,4.0183,Gabbro_rect,9,0,9,0,1,
65c243c37e0d77ca70ee030e,TCN,2024-06-21_14h04.23.190,LearnStrategy,2023.2.3,Win32,60.24096386,8,2,11,,,,,,,,7,15,,,,,,,,,,,7,1.139,1,,,,,,0.151851908,-0.397222222,1,0,0,1.1391,Peridotite_rect,10,0,10,0,1,
65c243c37e0d77ca70ee030e,TCN,2024-06-21_14h04.23.190,LearnStrategy,2023.2.3,Win32,60.24096386,8,2,12,,,,,,,,3,12,,,,,,,,,,,3,1.478,1,,,,,,0.169444444,-0.255555556,1,0,0,1.4784,Diorite_rect,11,0,11,0,1,
65c243c37e0d77ca70ee030e,TCN,2024-06-21_14h04.23.190,LearnStrategy,2023.2.3,Win32,60.24096386,8,2,13,,,,,,,,6,09,,,,,,,,,,,6,0.994,1,,,,,,-0.131481425,-0.419444444,1,0,0,0.9943,Pegmatite_rect,12,0,12,0,1,
65c243c37e0d77ca70ee030e,TCN,2024-06-21_14h04.23.190,LearnStrategy,2023.2.3,Win32,60.24096386,8,2,14,,,,,,,,6,05,,,,,,,,,,,6,1.98,1,,,,,,-0.167592536,-0.398148176,1,0,0,1.9802,Pegmatite_rect,13,0,13,0,1,
65c243c37e0d77ca70ee030e,TCN,2024-06-21_14h04.23.190,LearnStrategy,2023.2.3,Win32,60.24096386,8,2,15,,,,,,,,2,09,,,,,,,,,,,2,2.959,1,,,,,,-0.11851849,-0.237963019,1,0,0,2.9592,Basalt_rect,14,0,14,0,1,
65c243c37e0d77ca70ee030e,TCN,2024-06-21_14h04.23.190,LearnStrategy,2023.2.3,Win32,60.24096386,8,2,16,,,,,,,,1,09,,,,,,,,,,,2,0.828,0,,,,,,-0.11851849,-0.237963019,1,0,0,0.8279,Basalt_rect,15,0,15,0,1,
65c243c37e0d77ca70ee030e,TCN,2024-06-21_14h04.23.190,LearnStrategy,2023.2.3,Win32,60.24096386,9,1,1,0.032407464,-0.020370399,1,0,0,0.767,rock_grid_rect_2,3,14,-1,-1,0.767,0.164814843,-0.248148176,1,0,0,1.546,Diorite_rect,3,1.546,1,0,0,0,0,1,,,,,,,,,,,,,
65c243c37e0d77ca70ee030e,TCN,2024-06-21_14h04.23.190,LearnStrategy,2023.2.3,Win32,60.24096386,9,1,2,0.066666667,-0.022222222,1,0,0,0.7007,rock_grid_rect_2,8,08,-1,-1,0.701,0.369444444,-0.387963019,1,0,0,1.5986,Pumice_rect,8,1.599,1,1,0,1,0,1,,,,,,,,,,,,,
65c243c37e0d77ca70ee030e,TCN,2024-06-21_14h04.23.190,LearnStrategy,2023.2.3,Win32,60.24096386,9,1,3,0.009259288,-0.019444444,1,0,0,0.8001,rock_grid_rect_2,5,08,-1,-1,0.8,-0.434259245,-0.408333333,1,0,0,2.6834,Obsidian_rect,5,2.683,1,2,0,2,0,1,,,,,,,,,,,,,
65c243c37e0d77ca70ee030e,TCN,2024-06-21_14h04.23.190,LearnStrategy,2023.2.3,Win32,60.24096386,9,1,4,0.026851908,-0.025,1,0,0,0.8836,rock_grid_rect_2,1,16,-1,-1,0.884,0.425,-0.240740797,1,0,0,4.655,Gabbro_rect,4,4.655,0,3,0,3,0,1,,,,,,,,,,,,,
65c243c37e0d77ca70ee030e,TCN,2024-06-21_14h04.23.190,LearnStrategy,2023.2.3,Win32,60.24096386,9,1,5,0.039814843,-0.015740755,1,0,0,0.5835,rock_grid_rect_2,2,01,-1,-1,0.583,-0.196296268,-0.238888889,1,0,0,1.2838,Basalt_rect,2,1.284,1,4,0,4,0,1,,,,,,,,,,,,,
65c243c37e0d77ca70ee030e,TCN,2024-06-21_14h04.23.190,LearnStrategy,2023.2.3,Win32,60.24096386,9,1,6,0.012037065,-0.007407422,1,0,0,0.8343,rock_grid_rect_2,2,02,-1,-1,0.834,-0.171296268,-0.259259288,1,0,0,1.133,Basalt_rect,2,1.133,1,5,0,5,0,1,,,,,,,,,,,,,
65c243c37e0d77ca70ee030e,TCN,2024-06-21_14h04.23.190,LearnStrategy,2023.2.3,Win32,60.24096386,9,1,7,0.020370399,-0.009259288,1,0,0,0.6178,rock_grid_rect_2,6,06,-1,-1,0.618,-0.114814758,-0.411111111,1,0,0,1.147,Pegmatite_rect,6,1.147,1,6,0,6,0,1,,,,,,,,,,,,,
65c243c37e0d77ca70ee030e,TCN,2024-06-21_14h04.23.190,LearnStrategy,2023.2.3,Win32,60.24096386,9,1,8,0.010185242,-0.001851866,1,0,0,0.7848,rock_grid_rect_2,4,16,-1,-1,0.785,0.345370399,-0.235185242,1,0,0,2.0811,Gabbro_rect,4,2.081,1,7,0,7,0,1,,,,,,,,,,,,,
65c243c37e0d77ca70ee030e,TCN,2024-06-21_14h04.23.190,LearnStrategy,2023.2.3,Win32,60.24096386,9,1,9,-0.011111111,0.00370369,1,0,0,0.9184,rock_grid_rect_2,5,10,-1,-1,0.918,-0.387962935,-0.407407464,1,0,0,1.1458,Obsidian_rect,5,1.146,1,8,0,8,0,1,,,,,,,,,,,,,
65c243c37e0d77ca70ee030e,TCN,2024-06-21_14h04.23.190,LearnStrategy,2023.2.3,Win32,60.24096386,9,1,10,0.004629686,-0.008333333,1,0,0,0.6164,rock_grid_rect_2,4,01,-1,-1,0.616,0.40648151,-0.262037065,1,0,0,3.6518,Gabbro_rect,4,3.652,1,9,0,9,0,1,,,,,,,,,,,,,
65c243c37e0d77ca70ee030e,TCN,2024-06-21_14h04.23.190,LearnStrategy,2023.2.3,Win32,60.24096386,9,1,11,0.063888889,-0.012962977,1,0,0,0.6159,rock_grid_rect_2,8,10,-1,-1,0.616,0.440740797,-0.383333333,1,0,0,1.1164,Pumice_rect,8,1.116,1,10,0,10,0,1,,,,,,,,,,,,,
65c243c37e0d77ca70ee030e,TCN,2024-06-21_14h04.23.190,LearnStrategy,2023.2.3,Win32,60.24096386,9,1,12,0.028703732,-0.017592621,1,0,0,0.6501,rock_grid_rect_2,7,05,-1,-1,0.65,-0.359259245,-0.250925954,1,0,0,2.4312,Andesite_rect,1,2.431,0,11,0,11,0,1,,,,,,,,,,,,,
65c243c37e0d77ca70ee030e,TCN,2024-06-21_14h04.23.190,LearnStrategy,2023.2.3,Win32,60.24096386,9,1,13,0.061111111,0.009259245,1,0,0,0.6328,rock_grid_rect_2,1,07,-1,-1,0.633,-0.358333333,-0.254629686,1,0,0,2.5864,Andesite_rect,1,2.586,1,12,0,12,0,1,,,,,,,,,,,,,
65c243c37e0d77ca70ee030e,TCN,2024-06-21_14h04.23.190,LearnStrategy,2023.2.3,Win32,60.24096386,9,1,14,0.047222222,-0.016666667,1,0,0,1.0849,rock_grid_rect_2,7,14,-1,-1,1.085,0.339814843,-0.253703732,1,0,0,2.8996,Gabbro_rect,4,2.9,0,13,0,13,0,1,,,,,,,,,,,,,
65c243c37e0d77ca70ee030e,TCN,2024-06-21_14h04.23.190,LearnStrategy,2023.2.3,Win32,60.24096386,9,1,15,-0.025,-0.019444444,1,0,0,0.8158,rock_grid_rect_2,6,13,-1,-1,0.816,-0.139814758,-0.403703732,1,0,0,3.9066,Pegmatite_rect,6,3.907,1,14,0,14,0,1,,,,,,,,,,,,,
65c243c37e0d77ca70ee030e,TCN,2024-06-21_14h04.23.190,LearnStrategy,2023.2.3,Win32,60.24096386,9,1,16,0.084259288,-0.002777778,1,0,0,0.684,rock_grid_rect_2,3,16,-1,-1,0.684,0.125925954,-0.240740797,1,0,0,1.3166,Diorite_rect,3,1.317,1,15,0,15,0,1,,,,,,,,,,,,,
65c243c37e0d77ca70ee030e,TCN,2024-06-21_14h04.23.190,LearnStrategy,2023.2.3,Win32,60.24096386,9,2,1,,,,,,,,1,05,,,,,,,,,,,7,2.982,0,,,,,,0.121296353,-0.397222222,1,0,0,2.9825,Peridotite_rect,0,0,0,0,1,
65c243c37e0d77ca70ee030e,TCN,2024-06-21_14h04.23.190,LearnStrategy,2023.2.3,Win32,60.24096386,9,2,2,,,,,,,,8,09,,,,,,,,,,,8,1.273,1,,,,,,0.373148176,-0.395370399,1,0,0,1.2726,Pumice_rect,1,0,1,0,1,
65c243c37e0d77ca70ee030e,TCN,2024-06-21_14h04.23.190,LearnStrategy,2023.2.3,Win32,60.24096386,9,2,3,,,,,,,,3,10,,,,,,,,,,,3,3.049,1,,,,,,0.111111111,-0.244444444,1,0,0,3.0485,Diorite_rect,2,0,2,0,1,
65c243c37e0d77ca70ee030e,TCN,2024-06-21_14h04.23.190,LearnStrategy,2023.2.3,Win32,60.24096386,9,2,4,,,,,,,,7,13,,,,,,,,,,,7,1.829,1,,,,,,0.127777778,-0.393518575,1,0,0,1.8286,Peridotite_rect,3,0,3,0,1,
65c243c37e0d77ca70ee030e,TCN,2024-06-21_14h04.23.190,LearnStrategy,2023.2.3,Win32,60.24096386,9,2,5,,,,,,,,7,08,,,,,,,,,,,7,2.125,1,,,,,,0.134259288,-0.409259288,1,0,0,2.1246,Peridotite_rect,4,0,4,0,1,
65c243c37e0d77ca70ee030e,TCN,2024-06-21_14h04.23.190,LearnStrategy,2023.2.3,Win32,60.24096386,9,2,6,,,,,,,,3,02,,,,,,,,,,,3,0.98,1,,,,,,0.128703732,-0.240740797,1,0,0,0.98,Diorite_rect,5,0,5,0,1,
65c243c37e0d77ca70ee030e,TCN,2024-06-21_14h04.23.190,LearnStrategy,2023.2.3,Win32,60.24096386,9,2,7,,,,,,,,1,01,,,,,,,,,,,4,6.357,0,,,,,,0.364814843,-0.246296353,1,0,0,6.3568,Gabbro_rect,6,0,6,0,1,
65c243c37e0d77ca70ee030e,TCN,2024-06-21_14h04.23.190,LearnStrategy,2023.2.3,Win32,60.24096386,9,2,8,,,,,,,,5,04,,,,,,,,,,,5,1.041,1,,,,,,-0.389814801,-0.4,1,0,0,1.0408,Obsidian_rect,7,0,7,0,1,
65c243c37e0d77ca70ee030e,TCN,2024-06-21_14h04.23.190,LearnStrategy,2023.2.3,Win32,60.24096386,9,2,9,,,,,,,,2,10,,,,,,,,,,,4,6.191,0,,,,,,0.384259288,-0.246296353,1,0,0,6.1905,Gabbro_rect,8,0,8,0,1,
65c243c37e0d77ca70ee030e,TCN,2024-06-21_14h04.23.190,LearnStrategy,2023.2.3,Win32,60.24096386,9,2,10,,,,,,,,2,06,,,,,,,,,,,4,4.831,0,,,,,,0.366666667,-0.253703732,1,0,0,4.8314,Gabbro_rect,9,0,9,0,1,
65c243c37e0d77ca70ee030e,TCN,2024-06-21_14h04.23.190,LearnStrategy,2023.2.3,Win32,60.24096386,9,2,11,,,,,,,,5,12,,,,,,,,,,,5,1.056,1,,,,,,-0.358333333,-0.401851908,1,0,0,1.0562,Obsidian_rect,10,0,10,0,1,
65c243c37e0d77ca70ee030e,TCN,2024-06-21_14h04.23.190,LearnStrategy,2023.2.3,Win32,60.24096386,9,2,12,,,,,,,,4,03,,,,,,,,,,,2,6.807,0,,,,,,-0.097222222,-0.262037065,1,0,0,6.8067,Basalt_rect,11,0,11,0,1,
65c243c37e0d77ca70ee030e,TCN,2024-06-21_14h04.23.190,LearnStrategy,2023.2.3,Win32,60.24096386,9,2,13,,,,,,,,8,04,,,,,,,,,,,8,1.105,1,,,,,,0.377777778,-0.387963019,1,0,0,1.1051,Pumice_rect,12,0,12,0,1,
65c243c37e0d77ca70ee030e,TCN,2024-06-21_14h04.23.190,LearnStrategy,2023.2.3,Win32,60.24096386,9,2,14,,,,,,,,4,08,,,,,,,,,,,2,4.453,0,,,,,,-0.160185157,-0.250925954,1,0,0,4.4532,Basalt_rect,13,0,13,0,1,
65c243c37e0d77ca70ee030e,TCN,2024-06-21_14h04.23.190,LearnStrategy,2023.2.3,Win32,60.24096386,9,2,15,,,,,,,,6,12,,,,,,,,,,,6,2.058,1,,,,,,-0.100925869,-0.409259288,1,0,0,2.0575,Pegmatite_rect,14,0,14,0,1,
65c243c37e0d77ca70ee030e,TCN,2024-06-21_14h04.23.190,LearnStrategy,2023.2.3,Win32,60.24096386,9,2,16,,,,,,,,6,03,,,,,,,,,,,6,1.462,1,,,,,,-0.110185157,-0.393518575,1,0,0,1.4618,Pegmatite_rect,15,0,15,0,1,
65c243c37e0d77ca70ee030e,TCN,2024-06-21_14h04.23.190,LearnStrategy,2023.2.3,Win32,60.24096386,,,,,,,,,,,,,,,,,,,,,,,,,,,,,,,,,,,,,,,,,,,1
65c243c37e0d77ca70ee030e,TCN,2024-06-21_14h04.23.190,LearnStrategy,2023.2.3,Win32,60.24096386,,,,,,,,,,,,,,,,,,,,,,,,,,,,,,,,,,,,,,,,,,,
65c243c37e0d77ca70ee030e,TCN,2024-06-21_14h04.23.190,LearnStrategy,2023.2.3,Win32,60.24096386,,,,,,,,,,,2,16,1,1,,,,,,,,,,,,,,,,,,,,,,,,,,,,,
65c243c37e0d77ca70ee030e,TCN,2024-06-21_14h04.23.190,LearnStrategy,2023.2.3,Win32,60.24096386,,,,,,,,,,,3,07,1,2,,,,,,,,,,,,,,,,,,,,,,,,,,,,,
65c243c37e0d77ca70ee030e,TCN,2024-06-21_14h04.23.190,LearnStrategy,2023.2.3,Win32,60.24096386,,,,,,,,,,,6,06,1,3,,,,,,,,,,,,,,,,,,,,,,,,,,,,,
65c243c37e0d77ca70ee030e,TCN,2024-06-21_14h04.23.190,LearnStrategy,2023.2.3,Win32,60.24096386,,,,,,,,,,,5,02,1,4,,,,,,,,,,,,,,,,,,,,,,,,,,,,,
65c243c37e0d77ca70ee030e,TCN,2024-06-21_14h04.23.190,LearnStrategy,2023.2.3,Win32,60.24096386,,,,,,,,,,,5,08,1,5,,,,,,,,,,,,,,,,,,,,,,,,,,,,,
65c243c37e0d77ca70ee030e,TCN,2024-06-21_14h04.23.190,LearnStrategy,2023.2.3,Win32,60.24096386,,,,,,,,,,,8,08,1,6,,,,,,,,,,,,,,,,,,,,,,,,,,,,,
65c243c37e0d77ca70ee030e,TCN,2024-06-21_14h04.23.190,LearnStrategy,2023.2.3,Win32,60.24096386,,,,,,,,,,,3,08,1,7,,,,,,,,,,,,,,,,,,,,,,,,,,,,,
65c243c37e0d77ca70ee030e,TCN,2024-06-21_14h04.23.190,LearnStrategy,2023.2.3,Win32,60.24096386,,,,,,,,,,,3,16,1,8,,,,,,,,,,,,,,,,,,,,,,,,,,,,,
65c243c37e0d77ca70ee030e,TCN,2024-06-21_14h04.23.190,LearnStrategy,2023.2.3,Win32,60.24096386,,,,,,,,,,,5,14,2,1,,,,,,,,,,,,,,,,,,,,,,,,,,,,,
65c243c37e0d77ca70ee030e,TCN,2024-06-21_14h04.23.190,LearnStrategy,2023.2.3,Win32,60.24096386,,,,,,,,,,,4,13,2,2,,,,,,,,,,,,,,,,,,,,,,,,,,,,,
65c243c37e0d77ca70ee030e,TCN,2024-06-21_14h04.23.190,LearnStrategy,2023.2.3,Win32,60.24096386,,,,,,,,,,,6,10,2,3,,,,,,,,,,,,,,,,,,,,,,,,,,,,,
65c243c37e0d77ca70ee030e,TCN,2024-06-21_14h04.23.190,LearnStrategy,2023.2.3,Win32,60.24096386,,,,,,,,,,,1,06,2,4,,,,,,,,,,,,,,,,,,,,,,,,,,,,,
65c243c37e0d77ca70ee030e,TCN,2024-06-21_14h04.23.190,LearnStrategy,2023.2.3,Win32,60.24096386,,,,,,,,,,,4,12,2,5,,,,,,,,,,,,,,,,,,,,,,,,,,,,,
65c243c37e0d77ca70ee030e,TCN,2024-06-21_14h04.23.190,LearnStrategy,2023.2.3,Win32,60.24096386,,,,,,,,,,,4,11,2,6,,,,,,,,,,,,,,,,,,,,,,,,,,,,,
65c243c37e0d77ca70ee030e,TCN,2024-06-21_14h04.23.190,LearnStrategy,2023.2.3,Win32,60.24096386,,,,,,,,,,,7,14,2,7,,,,,,,,,,,,,,,,,,,,,,,,,,,,,
65c243c37e0d77ca70ee030e,TCN,2024-06-21_14h04.23.190,LearnStrategy,2023.2.3,Win32,60.24096386,,,,,,,,,,,4,01,2,8,,,,,,,,,,,,,,,,,,,,,,,,,,,,,
65c243c37e0d77ca70ee030e,TCN,2024-06-21_14h04.23.190,LearnStrategy,2023.2.3,Win32,60.24096386,,,,,,,,,,,8,03,3,1,,,,,,,,,,,,,,,,,,,,,,,,,,,,,
65c243c37e0d77ca70ee030e,TCN,2024-06-21_14h04.23.190,LearnStrategy,2023.2.3,Win32,60.24096386,,,,,,,,,,,2,02,3,2,,,,,,,,,,,,,,,,,,,,,,,,,,,,,
65c243c37e0d77ca70ee030e,TCN,2024-06-21_14h04.23.190,LearnStrategy,2023.2.3,Win32,60.24096386,,,,,,,,,,,7,07,3,3,,,,,,,,,,,,,,,,,,,,,,,,,,,,,
65c243c37e0d77ca70ee030e,TCN,2024-06-21_14h04.23.190,LearnStrategy,2023.2.3,Win32,60.24096386,,,,,,,,,,,1,11,3,4,,,,,,,,,,,,,,,,,,,,,,,,,,,,,
65c243c37e0d77ca70ee030e,TCN,2024-06-21_14h04.23.190,LearnStrategy,2023.2.3,Win32,60.24096386,,,,,,,,,,,2,12,3,5,,,,,,,,,,,,,,,,,,,,,,,,,,,,,
65c243c37e0d77ca70ee030e,TCN,2024-06-21_14h04.23.190,LearnStrategy,2023.2.3,Win32,60.24096386,,,,,,,,,,,7,12,3,6,,,,,,,,,,,,,,,,,,,,,,,,,,,,,
65c243c37e0d77ca70ee030e,TCN,2024-06-21_14h04.23.190,LearnStrategy,2023.2.3,Win32,60.24096386,,,,,,,,,,,1,16,3,7,,,,,,,,,,,,,,,,,,,,,,,,,,,,,
65c243c37e0d77ca70ee030e,TCN,2024-06-21_14h04.23.190,LearnStrategy,2023.2.3,Win32,60.24096386,,,,,,,,,,,6,15,3,8,,,,,,,,,,,,,,,,,,,,,,,,,,,,,
65c243c37e0d77ca70ee030e,TCN,2024-06-21_14h04.23.190,LearnStrategy,2023.2.3,Win32,60.24096386,,,,,,,,,,,5,06,4,1,,,,,,,,,,,,,,,,,,,,,,,,,,,,,
65c243c37e0d77ca70ee030e,TCN,2024-06-21_14h04.23.190,LearnStrategy,2023.2.3,Win32,60.24096386,,,,,,,,,,,3,15,4,2,,,,,,,,,,,,,,,,,,,,,,,,,,,,,
65c243c37e0d77ca70ee030e,TCN,2024-06-21_14h04.23.190,LearnStrategy,2023.2.3,Win32,60.24096386,,,,,,,,,,,8,10,4,3,,,,,,,,,,,,,,,,,,,,,,,,,,,,,
65c243c37e0d77ca70ee030e,TCN,2024-06-21_14h04.23.190,LearnStrategy,2023.2.3,Win32,60.24096386,,,,,,,,,,,1,04,4,4,,,,,,,,,,,,,,,,,,,,,,,,,,,,,
65c243c37e0d77ca70ee030e,TCN,2024-06-21_14h04.23.190,LearnStrategy,2023.2.3,Win32,60.24096386,,,,,,,,,,,7,02,4,5,,,,,,,,,,,,,,,,,,,,,,,,,,,,,
65c243c37e0d77ca70ee030e,TCN,2024-06-21_14h04.23.190,LearnStrategy,2023.2.3,Win32,60.24096386,,,,,,,,,,,8,13,4,6,,,,,,,,,,,,,,,,,,,,,,,,,,,,,
65c243c37e0d77ca70ee030e,TCN,2024-06-21_14h04.23.190,LearnStrategy,2023.2.3,Win32,60.24096386,,,,,,,,,,,6,13,4,7,,,,,,,,,,,,,,,,,,,,,,,,,,,,,
65c243c37e0d77ca70ee030e,TCN,2024-06-21_14h04.23.190,LearnStrategy,2023.2.3,Win32,60.24096386,,,,,,,,,,,3,14,4,8,,,,,,,,,,,,,,,,,,,,,,,,,,,,,
65c243c37e0d77ca70ee030e,TCN,2024-06-21_14h04.23.190,LearnStrategy,2023.2.3,Win32,60.24096386,,,,,,,,,,,5,10,5,1,,,,,,,,,,,,,,,,,,,,,,,,,,,,,
65c243c37e0d77ca70ee030e,TCN,2024-06-21_14h04.23.190,LearnStrategy,2023.2.3,Win32,60.24096386,,,,,,,,,,,8,02,5,2,,,,,,,,,,,,,,,,,,,,,,,,,,,,,
65c243c37e0d77ca70ee030e,TCN,2024-06-21_14h04.23.190,LearnStrategy,2023.2.3,Win32,60.24096386,,,,,,,,,,,2,01,5,3,,,,,,,,,,,,,,,,,,,,,,,,,,,,,
65c243c37e0d77ca70ee030e,TCN,2024-06-21_14h04.23.190,LearnStrategy,2023.2.3,Win32,60.24096386,,,,,,,,,,,6,07,5,4,,,,,,,,,,,,,,,,,,,,,,,,,,,,,
65c243c37e0d77ca70ee030e,TCN,2024-06-21_14h04.23.190,LearnStrategy,2023.2.3,Win32,60.24096386,,,,,,,,,,,7,16,5,5,,,,,,,,,,,,,,,,,,,,,,,,,,,,,
65c243c37e0d77ca70ee030e,TCN,2024-06-21_14h04.23.190,LearnStrategy,2023.2.3,Win32,60.24096386,,,,,,,,,,,3,11,5,6,,,,,,,,,,,,,,,,,,,,,,,,,,,,,
65c243c37e0d77ca70ee030e,TCN,2024-06-21_14h04.23.190,LearnStrategy,2023.2.3,Win32,60.24096386,,,,,,,,,,,8,06,5,7,,,,,,,,,,,,,,,,,,,,,,,,,,,,,
65c243c37e0d77ca70ee030e,TCN,2024-06-21_14h04.23.190,LearnStrategy,2023.2.3,Win32,60.24096386,,,,,,,,,,,6,16,5,8,,,,,,,,,,,,,,,,,,,,,,,,,,,,,
65c243c37e0d77ca70ee030e,TCN,2024-06-21_14h04.23.190,LearnStrategy,2023.2.3,Win32,60.24096386,,,,,,,,,,,4,15,6,1,,,,,,,,,,,,,,,,,,,,,,,,,,,,,
65c243c37e0d77ca70ee030e,TCN,2024-06-21_14h04.23.190,LearnStrategy,2023.2.3,Win32,60.24096386,,,,,,,,,,,5,07,6,2,,,,,,,,,,,,,,,,,,,,,,,,,,,,,
65c243c37e0d77ca70ee030e,TCN,2024-06-21_14h04.23.190,LearnStrategy,2023.2.3,Win32,60.24096386,,,,,,,,,,,1,07,6,3,,,,,,,,,,,,,,,,,,,,,,,,,,,,,
65c243c37e0d77ca70ee030e,TCN,2024-06-21_14h04.23.190,LearnStrategy,2023.2.3,Win32,60.24096386,,,,,,,,,,,2,05,6,4,,,,,,,,,,,,,,,,,,,,,,,,,,,,,
65c243c37e0d77ca70ee030e,TCN,2024-06-21_14h04.23.190,LearnStrategy,2023.2.3,Win32,60.24096386,,,,,,,,,,,4,16,6,5,,,,,,,,,,,,,,,,,,,,,,,,,,,,,
65c243c37e0d77ca70ee030e,TCN,2024-06-21_14h04.23.190,LearnStrategy,2023.2.3,Win32,60.24096386,,,,,,,,,,,2,11,6,6,,,,,,,,,,,,,,,,,,,,,,,,,,,,,
65c243c37e0d77ca70ee030e,TCN,2024-06-21_14h04.23.190,LearnStrategy,2023.2.3,Win32,60.24096386,,,,,,,,,,,1,14,6,7,,,,,,,,,,,,,,,,,,,,,,,,,,,,,
65c243c37e0d77ca70ee030e,TCN,2024-06-21_14h04.23.190,LearnStrategy,2023.2.3,Win32,60.24096386,,,,,,,,,,,7,05,6,8,,,,,,,,,,,,,,,,,,,,,,,,,,,,,