participant,condition,date,expName,psychopyVersion,OS,frameRate,block,phase,trial,learn_mouse.x,learn_mouse.y,learn_mouse.leftButton,learn_mouse.midButton,learn_mouse.rightButton,learn_mouse.time,learn_mouse.clicked_name,cat,token,row,col,t_select,cat_mouse_l.x,cat_mouse_l.y,cat_mouse_l.leftButton,cat_mouse_l.midButton,cat_mouse_l.rightButton,cat_mouse_l.time,cat_mouse_l.clicked_name,resp,t_resp,corr,train_trials.thisRepN,train_trials.thisTrialN,train_trials.thisN,train_trials.thisIndex,train_trials.ran,cat_mouse_t.x,cat_mouse_t.y,cat_mouse_t.leftButton,cat_mouse_t.midButton,cat_mouse_t.rightButton,cat_mouse_t.time,cat_mouse_t.clicked_name,test_trials.thisRepN,test_trials.thisTrialN,test_trials.thisN,test_trials.thisIndex,test_trials.ran,Bonus
65c3ed5a2ce11e90eb7fd7ae,SCN,2024-06-11_12h21.54.249,LearnStrategy,2023.2.3,Win32,60.24096386,,,,,,,,,,,,,,,,,,,,,,,,,,,,,,,,,,,,,,,,,,,
65c3ed5a2ce11e90eb7fd7ae,SCN,2024-06-11_12h21.54.249,LearnStrategy,2023.2.3,Win32,60.24096386,1,1,1,-0.07421875,0.286458333,1,0,0,5.6878,Gabbro_16,4,16,5,4,5.688,-0.352864583,-0.404947917,1,0,0,4.1796,Obsidian_rect,5,4.18,0,0,0,0,0,1,,,,,,,,,,,,,
65c3ed5a2ce11e90eb7fd7ae,SCN,2024-06-11_12h21.54.249,LearnStrategy,2023.2.3,Win32,60.24096386,1,1,2,-0.563802083,0.403645833,1,0,0,3.5065,Peridotite_16,7,16,6,1,3.506,0.341145833,-0.403645833,1,0,0,2.2931,Pumice_rect,8,2.293,0,1,0,1,0,1,,,,,,,,,,,,,
65c3ed5a2ce11e90eb7fd7ae,SCN,2024-06-11_12h21.54.249,LearnStrategy,2023.2.3,Win32,60.24096386,1,1,3,-0.395833333,0.407552083,1,0,0,0.9644,Basalt_10,2,10,6,2,0.964,0.080729167,-0.236979167,1,0,0,1.9239,Diorite_rect,3,1.924,0,2,0,2,0,1,,,,,,,,,,,,,
65c3ed5a2ce11e90eb7fd7ae,SCN,2024-06-11_12h21.54.249,LearnStrategy,2023.2.3,Win32,60.24096386,1,1,4,-0.243489583,0.415364583,1,0,0,1.6489,Gabbro_11,4,11,6,3,1.649,-0.41796875,-0.243489583,1,0,0,1.4855,Andesite_rect,1,1.486,0,3,0,3,0,1,,,,,,,,,,,,,
65c3ed5a2ce11e90eb7fd7ae,SCN,2024-06-11_12h21.54.249,LearnStrategy,2023.2.3,Win32,60.24096386,1,1,5,-0.091145833,0.388020833,1,0,0,1.3434,Obsidian_07,5,07,6,4,1.343,-0.373697917,-0.243489583,1,0,0,2.4696,Andesite_rect,1,2.47,0,4,0,4,0,1,,,,,,,,,,,,,
65c3ed5a2ce11e90eb7fd7ae,SCN,2024-06-11_12h21.54.249,LearnStrategy,2023.2.3,Win32,60.24096386,1,1,6,0.076822917,0.39453125,1,0,0,1.5636,Pumice_03,8,03,6,5,1.564,0.393229167,-0.231770833,1,0,0,1.3882,Gabbro_rect,4,1.388,0,5,0,5,0,1,,,,,,,,,,,,,
65c3ed5a2ce11e90eb7fd7ae,SCN,2024-06-11_12h21.54.249,LearnStrategy,2023.2.3,Win32,60.24096386,1,1,7,0.274739583,0.3828125,1,0,0,7.698,Obsidian_09,5,09,6,6,7.698,-0.079427083,-0.40625,1,0,0,1.8897,Pegmatite_rect,6,1.89,0,6,0,6,0,1,,,,,,,,,,,,,
65c3ed5a2ce11e90eb7fd7ae,SCN,2024-06-11_12h21.54.249,LearnStrategy,2023.2.3,Win32,60.24096386,1,1,8,0.4296875,0.38671875,1,0,0,1.1769,Obsidian_10,5,10,6,7,1.177,0.408854167,-0.415364583,1,0,0,2.0957,Pumice_rect,8,2.096,0,7,0,7,0,1,,,,,,,,,,,,,
65c3ed5a2ce11e90eb7fd7ae,SCN,2024-06-11_12h21.54.249,LearnStrategy,2023.2.3,Win32,60.24096386,1,1,9,0.572916667,0.40625,1,0,0,1.479,Gabbro_08,4,08,6,8,1.479,-0.35546875,-0.391927083,1,0,0,2.454,Obsidian_rect,5,2.454,0,8,0,8,0,1,,,,,,,,,,,,,
65c3ed5a2ce11e90eb7fd7ae,SCN,2024-06-11_12h21.54.249,LearnStrategy,2023.2.3,Win32,60.24096386,1,1,10,-0.5625,0.260416667,1,0,0,1.6755,Pegmatite_08,6,08,5,1,1.676,-0.3359375,-0.247395833,1,0,0,1.2101,Andesite_rect,1,1.21,0,9,0,9,0,1,,,,,,,,,,,,,
65c3ed5a2ce11e90eb7fd7ae,SCN,2024-06-11_12h21.54.249,LearnStrategy,2023.2.3,Win32,60.24096386,1,1,11,-0.4296875,0.239583333,1,0,0,1.3496,Pumice_08,8,08,5,2,1.35,0.158854167,-0.404947917,1,0,0,2.499,Peridotite_rect,7,2.499,0,10,0,10,0,1,,,,,,,,,,,,,
65c3ed5a2ce11e90eb7fd7ae,SCN,2024-06-11_12h21.54.249,LearnStrategy,2023.2.3,Win32,60.24096386,1,1,12,-0.24609375,0.268229167,1,0,0,1.0478,Obsidian_04,5,04,5,3,1.048,-0.345052083,-0.395833333,1,0,0,1.9702,Obsidian_rect,5,1.97,1,11,0,11,0,1,,,,,,,,,,,,,
65c3ed5a2ce11e90eb7fd7ae,SCN,2024-06-11_12h21.54.249,LearnStrategy,2023.2.3,Win32,60.24096386,1,1,13,-0.088541667,0.240885417,1,0,0,3.5922,Gabbro_16,4,16,5,4,3.592,-0.369791667,-0.247395833,1,0,0,2.5456,Andesite_rect,1,2.546,0,12,0,12,0,1,,,,,,,,,,,,,
65c3ed5a2ce11e90eb7fd7ae,SCN,2024-06-11_12h21.54.249,LearnStrategy,2023.2.3,Win32,60.24096386,1,1,14,0.069010417,0.251302083,1,0,0,3.9128,Pumice_09,8,09,5,5,3.913,-0.151041667,-0.231770833,1,0,0,1.5149,Basalt_rect,2,1.515,0,13,0,13,0,1,,,,,,,,,,,,,
65c3ed5a2ce11e90eb7fd7ae,SCN,2024-06-11_12h21.54.249,LearnStrategy,2023.2.3,Win32,60.24096386,1,1,15,0.255208333,0.247395833,1,0,0,1.5802,Pumice_13,8,13,5,6,1.58,-0.34765625,-0.240885417,1,0,0,1.9663,Andesite_rect,1,1.966,0,14,0,14,0,1,,,,,,,,,,,,,
65c3ed5a2ce11e90eb7fd7ae,SCN,2024-06-11_12h21.54.249,LearnStrategy,2023.2.3,Win32,60.24096386,1,1,16,0.420572917,0.243489583,1,0,0,1.7572,Peridotite_06,7,06,5,7,1.757,0.169270833,-0.2421875,1,0,0,2.3395,Diorite_rect,3,2.339,0,15,0,15,0,1,,,,,,,,,,,,,
65c3ed5a2ce11e90eb7fd7ae,SCN,2024-06-11_12h21.54.249,LearnStrategy,2023.2.3,Win32,60.24096386,1,2,1,,,,,,,,2,16,,,,,,,,,,,4,10.605,0,,,,,,0.337239583,-0.25,1,0,0,10.6052,Gabbro_rect,0,0,0,0,1,
65c3ed5a2ce11e90eb7fd7ae,SCN,2024-06-11_12h21.54.249,LearnStrategy,2023.2.3,Win32,60.24096386,1,2,2,,,,,,,,6,12,,,,,,,,,,,6,7.412,1,,,,,,-0.106770833,-0.397135417,1,0,0,7.4116,Pegmatite_rect,1,0,1,0,1,
65c3ed5a2ce11e90eb7fd7ae,SCN,2024-06-11_12h21.54.249,LearnStrategy,2023.2.3,Win32,60.24096386,1,2,3,,,,,,,,4,05,,,,,,,,,,,4,5.085,1,,,,,,0.502604167,-0.235677083,1,0,0,5.0852,Gabbro_rect,2,0,2,0,1,
65c3ed5a2ce11e90eb7fd7ae,SCN,2024-06-11_12h21.54.249,LearnStrategy,2023.2.3,Win32,60.24096386,1,2,4,,,,,,,,8,06,,,,,,,,,,,8,7.415,1,,,,,,0.393229167,-0.397135417,1,0,0,7.4149,Pumice_rect,3,0,3,0,1,
65c3ed5a2ce11e90eb7fd7ae,SCN,2024-06-11_12h21.54.249,LearnStrategy,2023.2.3,Win32,60.24096386,1,2,5,,,,,,,,1,03,,,,,,,,,,,4,13.786,0,,,,,,0.4296875,-0.24609375,1,0,0,13.7859,Gabbro_rect,4,0,4,0,1,
65c3ed5a2ce11e90eb7fd7ae,SCN,2024-06-11_12h21.54.249,LearnStrategy,2023.2.3,Win32,60.24096386,1,2,6,,,,,,,,5,02,,,,,,,,,,,5,8.065,1,,,,,,-0.317708333,-0.404947917,1,0,0,8.0646,Obsidian_rect,5,0,5,0,1,
65c3ed5a2ce11e90eb7fd7ae,SCN,2024-06-11_12h21.54.249,LearnStrategy,2023.2.3,Win32,60.24096386,1,2,7,,,,,,,,3,11,,,,,,,,,,,8,6.013,0,,,,,,0.373697917,-0.408854167,1,0,0,6.0127,Pumice_rect,6,0,6,0,1,
65c3ed5a2ce11e90eb7fd7ae,SCN,2024-06-11_12h21.54.249,LearnStrategy,2023.2.3,Win32,60.24096386,1,2,8,,,,,,,,6,07,,,,,,,,,,,1,6.527,0,,,,,,-0.321614583,-0.2421875,1,0,0,6.527,Andesite_rect,7,0,7,0,1,
65c3ed5a2ce11e90eb7fd7ae,SCN,2024-06-11_12h21.54.249,LearnStrategy,2023.2.3,Win32,60.24096386,1,2,9,,,,,,,,8,04,,,,,,,,,,,8,5.372,1,,,,,,0.391927083,-0.415364583,1,0,0,5.3718,Pumice_rect,8,0,8,0,1,
65c3ed5a2ce11e90eb7fd7ae,SCN,2024-06-11_12h21.54.249,LearnStrategy,2023.2.3,Win32,60.24096386,1,2,10,,,,,,,,4,12,,,,,,,,,,,2,11.156,0,,,,,,-0.119791667,-0.23828125,1,0,0,11.1565,Basalt_rect,9,0,9,0,1,
65c3ed5a2ce11e90eb7fd7ae,SCN,2024-06-11_12h21.54.249,LearnStrategy,2023.2.3,Win32,60.24096386,1,2,11,,,,,,,,2,04,,,,,,,,,,,4,3.688,0,,,,,,0.341145833,-0.26171875,1,0,0,3.6884,Gabbro_rect,10,0,10,0,1,
65c3ed5a2ce11e90eb7fd7ae,SCN,2024-06-11_12h21.54.249,LearnStrategy,2023.2.3,Win32,60.24096386,1,2,12,,,,,,,,7,14,,,,,,,,,,,5,7.659,0,,,,,,-0.350260417,-0.404947917,1,0,0,7.6592,Obsidian_rect,11,0,11,0,1,
65c3ed5a2ce11e90eb7fd7ae,SCN,2024-06-11_12h21.54.249,LearnStrategy,2023.2.3,Win32,60.24096386,1,2,13,,,,,,,,1,02,,,,,,,,,,,7,1.946,0,,,,,,0.12109375,-0.39453125,1,0,0,1.9456,Peridotite_rect,12,0,12,0,1,
65c3ed5a2ce11e90eb7fd7ae,SCN,2024-06-11_12h21.54.249,LearnStrategy,2023.2.3,Win32,60.24096386,1,2,14,,,,,,,,5,05,,,,,,,,,,,5,3.821,1,,,,,,-0.36328125,-0.38671875,1,0,0,3.8207,Obsidian_rect,13,0,13,0,1,
65c3ed5a2ce11e90eb7fd7ae,SCN,2024-06-11_12h21.54.249,LearnStrategy,2023.2.3,Win32,60.24096386,1,2,15,,,,,,,,7,07,,,,,,,,,,,7,3.32,1,,,,,,0.162760417,-0.40234375,1,0,0,3.3204,Peridotite_rect,14,0,14,0,1,
65c3ed5a2ce11e90eb7fd7ae,SCN,2024-06-11_12h21.54.249,LearnStrategy,2023.2.3,Win32,60.24096386,1,2,16,,,,,,,,3,06,,,,,,,,,,,1,6.116,0,,,,,,-0.450520833,-0.25390625,1,0,0,6.1157,Andesite_rect,15,0,15,0,1,
65c3ed5a2ce11e90eb7fd7ae,SCN,2024-06-11_12h21.54.249,LearnStrategy,2023.2.3,Win32,60.24096386,2,1,1,0.526041667,0.2578125,1,0,0,14.8787,Andesite_11,1,11,5,8,14.879,-0.345052083,-0.235677083,1,0,0,1.9026,Andesite_rect,1,1.903,1,0,0,0,0,1,,,,,,,,,,,,,
65c3ed5a2ce11e90eb7fd7ae,SCN,2024-06-11_12h21.54.249,LearnStrategy,2023.2.3,Win32,60.24096386,2,1,2,-0.5703125,0.102864583,1,0,0,1.4747,Gabbro_15,4,15,4,1,1.475,0.118489583,-0.23828125,1,0,0,1.7967,Diorite_rect,3,1.797,0,1,0,1,0,1,,,,,,,,,,,,,
65c3ed5a2ce11e90eb7fd7ae,SCN,2024-06-11_12h21.54.249,LearnStrategy,2023.2.3,Win32,60.24096386,2,1,3,-0.407552083,0.087239583,1,0,0,12.9906,Basalt_01,2,01,4,2,12.991,-0.14453125,-0.4140625,1,0,0,1.4734,Pegmatite_rect,6,1.473,0,2,0,2,0,1,,,,,,,,,,,,,
65c3ed5a2ce11e90eb7fd7ae,SCN,2024-06-11_12h21.54.249,LearnStrategy,2023.2.3,Win32,60.24096386,2,1,4,-0.24609375,0.1015625,1,0,0,4.4475,Basalt_12,2,12,4,3,4.447,-0.140625,-0.399739583,1,0,0,2.5632,Pegmatite_rect,6,2.563,0,3,0,3,0,1,,,,,,,,,,,,,
65c3ed5a2ce11e90eb7fd7ae,SCN,2024-06-11_12h21.54.249,LearnStrategy,2023.2.3,Win32,60.24096386,2,1,5,-0.0546875,0.06640625,1,0,0,1.0792,Pegmatite_05,6,05,4,4,1.079,0.190104167,-0.25390625,1,0,0,1.1736,Diorite_rect,3,1.174,0,4,0,4,0,1,,,,,,,,,,,,,
65c3ed5a2ce11e90eb7fd7ae,SCN,2024-06-11_12h21.54.249,LearnStrategy,2023.2.3,Win32,60.24096386,2,1,6,0.108072917,0.08203125,1,0,0,1.2666,Diorite_13,3,13,4,5,1.267,-0.360677083,-0.40234375,1,0,0,3.1824,Obsidian_rect,5,3.182,0,5,0,5,0,1,,,,,,,,,,,,,
65c3ed5a2ce11e90eb7fd7ae,SCN,2024-06-11_12h21.54.249,LearnStrategy,2023.2.3,Win32,60.24096386,2,1,7,0.2421875,0.061197917,1,0,0,2.8219,Pegmatite_11,6,11,4,6,2.822,-0.084635417,-0.252604167,1,0,0,2.5541,Basalt_rect,2,2.554,0,6,0,6,0,1,,,,,,,,,,,,,
65c3ed5a2ce11e90eb7fd7ae,SCN,2024-06-11_12h21.54.249,LearnStrategy,2023.2.3,Win32,60.24096386,2,1,8,0.407552083,0.092447917,1,0,0,1.0925,Pegmatite_09,6,09,4,7,1.092,-0.182291667,-0.403645833,1,0,0,3.0395,Pegmatite_rect,6,3.039,1,7,0,7,0,1,,,,,,,,,,,,,
65c3ed5a2ce11e90eb7fd7ae,SCN,2024-06-11_12h21.54.249,LearnStrategy,2023.2.3,Win32,60.24096386,2,1,9,0.548177083,0.09375,1,0,0,1.131,Pegmatite_16,6,16,4,8,1.131,0.299479167,-0.411458333,1,0,0,2.4069,Pumice_rect,8,2.407,0,8,0,8,0,1,,,,,,,,,,,,,
65c3ed5a2ce11e90eb7fd7ae,SCN,2024-06-11_12h21.54.249,LearnStrategy,2023.2.3,Win32,60.24096386,2,1,10,-0.5625,-0.110677083,1,0,0,8.2827,Andesite_09,1,09,3,1,8.283,-0.38671875,-0.236979167,1,0,0,1.3567,Andesite_rect,1,1.357,1,9,0,9,0,1,,,,,,,,,,,,,
65c3ed5a2ce11e90eb7fd7ae,SCN,2024-06-11_12h21.54.249,LearnStrategy,2023.2.3,Win32,60.24096386,2,1,11,-0.430989583,-0.102864583,1,0,0,0.9227,Diorite_15,3,15,3,2,0.923,0.125,-0.3984375,1,0,0,2.0424,Peridotite_rect,7,2.042,0,10,0,10,0,1,,,,,,,,,,,,,
65c3ed5a2ce11e90eb7fd7ae,SCN,2024-06-11_12h21.54.249,LearnStrategy,2023.2.3,Win32,60.24096386,2,1,12,-0.213541667,-0.126302083,1,0,0,4.9226,Gabbro_03,4,03,3,3,4.923,-0.141927083,-0.26953125,1,0,0,0.8939,Basalt_rect,2,0.894,0,11,0,11,0,1,,,,,,,,,,,,,
65c3ed5a2ce11e90eb7fd7ae,SCN,2024-06-11_12h21.54.249,LearnStrategy,2023.2.3,Win32,60.24096386,2,1,13,-0.055989583,-0.096354167,1,0,0,1.2948,Andesite_06,1,06,3,4,1.295,0.06640625,-0.40234375,1,0,0,1.2647,Peridotite_rect,7,1.265,0,12,0,12,0,1,,,,,,,,,,,,,
65c3ed5a2ce11e90eb7fd7ae,SCN,2024-06-11_12h21.54.249,LearnStrategy,2023.2.3,Win32,60.24096386,2,1,14,0.06640625,-0.1015625,1,0,0,0.9704,Pumice_16,8,16,3,5,0.97,0.138020833,-0.255208333,1,0,0,1.0135,Diorite_rect,3,1.014,0,13,0,13,0,1,,,,,,,,,,,,,
65c3ed5a2ce11e90eb7fd7ae,SCN,2024-06-11_12h21.54.249,LearnStrategy,2023.2.3,Win32,60.24096386,2,1,15,0.2265625,-0.130208333,1,0,0,0.9975,Peridotite_04,7,04,3,6,0.997,-0.192708333,-0.240885417,1,0,0,1.5963,Basalt_rect,2,1.596,0,14,0,14,0,1,,,,,,,,,,,,,
65c3ed5a2ce11e90eb7fd7ae,SCN,2024-06-11_12h21.54.249,LearnStrategy,2023.2.3,Win32,60.24096386,2,1,16,0.39453125,-0.114583333,1,0,0,2.7241,Andesite_16,1,16,3,7,2.724,-0.307291667,-0.401041667,1,0,0,2.6908,Obsidian_rect,5,2.691,0,15,0,15,0,1,,,,,,,,,,,,,
65c3ed5a2ce11e90eb7fd7ae,SCN,2024-06-11_12h21.54.249,LearnStrategy,2023.2.3,Win32,60.24096386,2,2,1,,,,,,,,8,05,,,,,,,,,,,1,26.642,0,,,,,,-0.341145833,-0.263020833,1,0,0,26.6423,Andesite_rect,0,0,0,0,1,
65c3ed5a2ce11e90eb7fd7ae,SCN,2024-06-11_12h21.54.249,LearnStrategy,2023.2.3,Win32,60.24096386,2,2,2,,,,,,,,7,15,,,,,,,,,,,4,7.601,0,,,,,,0.388020833,-0.2421875,1,0,0,7.6006,Gabbro_rect,1,0,1,0,1,
65c3ed5a2ce11e90eb7fd7ae,SCN,2024-06-11_12h21.54.249,LearnStrategy,2023.2.3,Win32,60.24096386,2,2,3,,,,,,,,5,11,,,,,,,,,,,2,20.122,0,,,,,,-0.127604167,-0.270833333,1,0,0,20.1224,Basalt_rect,2,0,2,0,1,
65c3ed5a2ce11e90eb7fd7ae,SCN,2024-06-11_12h21.54.249,LearnStrategy,2023.2.3,Win32,60.24096386,2,2,4,,,,,,,,2,11,,,,,,,,,,,1,12.405,0,,,,,,-0.375,-0.25,1,0,0,12.4055,Andesite_rect,3,0,3,0,1,
65c3ed5a2ce11e90eb7fd7ae,SCN,2024-06-11_12h21.54.249,LearnStrategy,2023.2.3,Win32,60.24096386,2,2,5,,,,,,,,4,01,,,,,,,,,,,4,9.353,1,,,,,,0.341145833,-0.240885417,1,0,0,9.353,Gabbro_rect,4,0,4,0,1,
65c3ed5a2ce11e90eb7fd7ae,SCN,2024-06-11_12h21.54.249,LearnStrategy,2023.2.3,Win32,60.24096386,2,2,6,,,,,,,,3,09,,,,,,,,,,,8,4.864,0,,,,,,0.34375,-0.404947917,1,0,0,4.8644,Pumice_rect,5,0,5,0,1,
65c3ed5a2ce11e90eb7fd7ae,SCN,2024-06-11_12h21.54.249,LearnStrategy,2023.2.3,Win32,60.24096386,2,2,7,,,,,,,,1,05,,,,,,,,,,,6,8.079,0,,,,,,-0.09375,-0.411458333,1,0,0,8.0791,Pegmatite_rect,6,0,6,0,1,
65c3ed5a2ce11e90eb7fd7ae,SCN,2024-06-11_12h21.54.249,LearnStrategy,2023.2.3,Win32,60.24096386,2,2,8,,,,,,,,5,12,,,,,,,,,,,5,27.194,1,,,,,,-0.4375,-0.393229167,1,0,0,27.1937,Obsidian_rect,7,0,7,0,1,
65c3ed5a2ce11e90eb7fd7ae,SCN,2024-06-11_12h21.54.249,LearnStrategy,2023.2.3,Win32,60.24096386,2,2,9,,,,,,,,3,16,,,,,,,,,,,3,19.428,1,,,,,,0.119791667,-0.248697917,1,0,0,19.4282,Diorite_rect,8,0,8,0,1,
65c3ed5a2ce11e90eb7fd7ae,SCN,2024-06-11_12h21.54.249,LearnStrategy,2023.2.3,Win32,60.24096386,2,2,10,,,,,,,,6,03,,,,,,,,,,,6,6.951,1,,,,,,-0.125,-0.407552083,1,0,0,6.9512,Pegmatite_rect,9,0,9,0,1,
65c3ed5a2ce11e90eb7fd7ae,SCN,2024-06-11_12h21.54.249,LearnStrategy,2023.2.3,Win32,60.24096386,2,2,11,,,,,,,,1,10,,,,,,,,,,,1,12.314,1,,,,,,-0.375,-0.2578125,1,0,0,12.3138,Andesite_rect,10,0,10,0,1,
65c3ed5a2ce11e90eb7fd7ae,SCN,2024-06-11_12h21.54.249,LearnStrategy,2023.2.3,Win32,60.24096386,2,2,12,,,,,,,,7,12,,,,,,,,,,,6,8.222,0,,,,,,-0.153645833,-0.416666667,1,0,0,8.2218,Pegmatite_rect,11,0,11,0,1,
65c3ed5a2ce11e90eb7fd7ae,SCN,2024-06-11_12h21.54.249,LearnStrategy,2023.2.3,Win32,60.24096386,2,2,13,,,,,,,,2,05,,,,,,,,,,,2,24.763,1,,,,,,-0.130208333,-0.252604167,1,0,0,24.7628,Basalt_rect,12,0,12,0,1,
65c3ed5a2ce11e90eb7fd7ae,SCN,2024-06-11_12h21.54.249,LearnStrategy,2023.2.3,Win32,60.24096386,2,2,14,,,,,,,,4,14,,,,,,,,,,,4,4.756,1,,,,,,0.333333333,-0.243489583,1,0,0,4.7558,Gabbro_rect,13,0,13,0,1,
65c3ed5a2ce11e90eb7fd7ae,SCN,2024-06-11_12h21.54.249,LearnStrategy,2023.2.3,Win32,60.24096386,2,2,15,,,,,,,,8,15,,,,,,,,,,,8,6.068,1,,,,,,0.385416667,-0.41015625,1,0,0,6.0681,Pumice_rect,14,0,14,0,1,
65c3ed5a2ce11e90eb7fd7ae,SCN,2024-06-11_12h21.54.249,LearnStrategy,2023.2.3,Win32,60.24096386,2,2,16,,,,,,,,6,10,,,,,,,,,,,6,7.294,1,,,,,,-0.084635417,-0.397135417,1,0,0,7.2944,Pegmatite_rect,15,0,15,0,1,
65c3ed5a2ce11e90eb7fd7ae,SCN,2024-06-11_12h21.54.249,LearnStrategy,2023.2.3,Win32,60.24096386,3,1,1,0.55859375,-0.09375,1,0,0,15.6619,Diorite_14,3,14,3,8,15.662,-0.15234375,-0.390625,1,0,0,4.0412,Pegmatite_rect,6,4.041,0,0,0,0,0,1,,,,,,,,,,,,,
65c3ed5a2ce11e90eb7fd7ae,SCN,2024-06-11_12h21.54.249,LearnStrategy,2023.2.3,Win32,60.24096386,3,1,2,-0.544270833,-0.259114583,1,0,0,3.1157,Basalt_14,2,14,2,1,3.116,0.149739583,-0.239583333,1,0,0,2.1233,Diorite_rect,3,2.123,0,1,0,1,0,1,,,,,,,,,,,,,
65c3ed5a2ce11e90eb7fd7ae,SCN,2024-06-11_12h21.54.249,LearnStrategy,2023.2.3,Win32,60.24096386,3,1,3,-0.40234375,-0.234375,1,0,0,0.9605,Obsidian_08,5,08,2,2,0.96,-0.459635417,-0.248697917,1,0,0,3.0381,Andesite_rect,1,3.038,0,2,0,2,0,1,,,,,,,,,,,,,
65c3ed5a2ce11e90eb7fd7ae,SCN,2024-06-11_12h21.54.249,LearnStrategy,2023.2.3,Win32,60.24096386,3,1,4,-0.220052083,-0.266927083,1,0,0,4.6904,Gabbro_10,4,10,2,3,4.69,-0.404947917,-0.247395833,1,0,0,6.7364,Andesite_rect,1,6.736,0,3,0,3,0,1,,,,,,,,,,,,,
65c3ed5a2ce11e90eb7fd7ae,SCN,2024-06-11_12h21.54.249,LearnStrategy,2023.2.3,Win32,60.24096386,3,1,5,-0.087239583,-0.272135417,1,0,0,6.1068,Diorite_10,3,10,2,4,6.107,-0.1875,-0.240885417,1,0,0,3.215,Basalt_rect,2,3.215,0,4,0,4,0,1,,,,,,,,,,,,,
65c3ed5a2ce11e90eb7fd7ae,SCN,2024-06-11_12h21.54.249,LearnStrategy,2023.2.3,Win32,60.24096386,3,1,6,0.080729167,-0.28125,1,0,0,1.2619,Basalt_09,2,09,2,5,1.262,-0.369791667,-0.412760417,1,0,0,2.8431,Obsidian_rect,5,2.843,0,5,0,5,0,1,,,,,,,,,,,,,
65c3ed5a2ce11e90eb7fd7ae,SCN,2024-06-11_12h21.54.249,LearnStrategy,2023.2.3,Win32,60.24096386,3,1,7,0.227864583,-0.264322917,1,0,0,1.7462,Peridotite_08,7,08,2,6,1.746,-0.325520833,-0.243489583,1,0,0,2.0334,Andesite_rect,1,2.033,0,6,0,6,0,1,,,,,,,,,,,,,
65c3ed5a2ce11e90eb7fd7ae,SCN,2024-06-11_12h21.54.249,LearnStrategy,2023.2.3,Win32,60.24096386,3,1,8,0.356770833,-0.25,1,0,0,4.0986,Diorite_02,3,02,2,7,4.099,0.345052083,-0.399739583,1,0,0,1.2344,Pumice_rect,8,1.234,0,7,0,7,0,1,,,,,,,,,,,,,
65c3ed5a2ce11e90eb7fd7ae,SCN,2024-06-11_12h21.54.249,LearnStrategy,2023.2.3,Win32,60.24096386,3,1,9,0.524739583,-0.236979167,1,0,0,2.0631,Obsidian_14,5,14,2,8,2.063,-0.346354167,-0.40234375,1,0,0,2.5814,Obsidian_rect,5,2.581,1,8,0,8,0,1,,,,,,,,,,,,,
65c3ed5a2ce11e90eb7fd7ae,SCN,2024-06-11_12h21.54.249,LearnStrategy,2023.2.3,Win32,60.24096386,3,1,10,-0.559895833,-0.412760417,1,0,0,2.0138,Andesite_04,1,04,1,1,2.014,0.33203125,-0.411458333,1,0,0,13.0919,Pumice_rect,8,13.092,0,9,0,9,0,1,,,,,,,,,,,,,
65c3ed5a2ce11e90eb7fd7ae,SCN,2024-06-11_12h21.54.249,LearnStrategy,2023.2.3,Win32,60.24096386,3,1,11,-0.375,-0.41796875,1,0,0,10.7452,Peridotite_13,7,13,1,2,10.745,0.115885417,-0.26171875,1,0,0,2.1616,Diorite_rect,3,2.162,0,10,0,10,0,1,,,,,,,,,,,,,
65c3ed5a2ce11e90eb7fd7ae,SCN,2024-06-11_12h21.54.249,LearnStrategy,2023.2.3,Win32,60.24096386,3,1,12,-0.255208333,-0.411458333,1,0,0,1.5147,Pegmatite_06,6,06,1,3,1.515,-0.170572917,-0.421875,1,0,0,5.2476,Pegmatite_rect,6,5.248,1,11,0,11,0,1,,,,,,,,,,,,,
65c3ed5a2ce11e90eb7fd7ae,SCN,2024-06-11_12h21.54.249,LearnStrategy,2023.2.3,Win32,60.24096386,3,1,13,-0.05078125,-0.416666667,1,0,0,3.7913,Diorite_08,3,08,1,4,3.791,0.076822917,-0.403645833,1,0,0,1.9587,Peridotite_rect,7,1.959,0,12,0,12,0,1,,,,,,,,,,,,,
65c3ed5a2ce11e90eb7fd7ae,SCN,2024-06-11_12h21.54.249,LearnStrategy,2023.2.3,Win32,60.24096386,3,1,14,0.080729167,-0.444010417,1,0,0,1.159,Peridotite_02,7,02,1,5,1.159,0.34765625,-0.395833333,1,0,0,3.009,Pumice_rect,8,3.009,0,13,0,13,0,1,,,,,,,,,,,,,
65c3ed5a2ce11e90eb7fd7ae,SCN,2024-06-11_12h21.54.249,LearnStrategy,2023.2.3,Win32,60.24096386,3,1,15,0.235677083,-0.412760417,1,0,0,4.8655,Basalt_02,2,02,1,6,4.865,0.436197917,-0.240885417,1,0,0,1.3811,Gabbro_rect,4,1.381,0,14,0,14,0,1,,,,,,,,,,,,,
65c3ed5a2ce11e90eb7fd7ae,SCN,2024-06-11_12h21.54.249,LearnStrategy,2023.2.3,Win32,60.24096386,3,1,16,0.390625,-0.430989583,1,0,0,3.0464,Andesite_07,1,07,1,7,3.046,-0.35546875,-0.420572917,1,0,0,2.096,Obsidian_rect,5,2.096,0,15,0,15,0,1,,,,,,,,,,,,,
65c3ed5a2ce11e90eb7fd7ae,SCN,2024-06-11_12h21.54.249,LearnStrategy,2023.2.3,Win32,60.24096386,3,2,1,,,,,,,,3,07,,,,,,,,,,,7,8.692,0,,,,,,0.14453125,-0.40234375,1,0,0,8.6917,Peridotite_rect,0,0,0,0,1,
65c3ed5a2ce11e90eb7fd7ae,SCN,2024-06-11_12h21.54.249,LearnStrategy,2023.2.3,Win32,60.24096386,3,2,2,,,,,,,,2,06,,,,,,,,,,,2,7.372,1,,,,,,-0.131510417,-0.265625,1,0,0,7.3718,Basalt_rect,1,0,1,0,1,
65c3ed5a2ce11e90eb7fd7ae,SCN,2024-06-11_12h21.54.249,LearnStrategy,2023.2.3,Win32,60.24096386,3,2,3,,,,,,,,1,14,,,,,,,,,,,3,18.705,0,,,,,,0.2109375,-0.244791667,1,0,0,18.7048,Diorite_rect,2,0,2,0,1,
65c3ed5a2ce11e90eb7fd7ae,SCN,2024-06-11_12h21.54.249,LearnStrategy,2023.2.3,Win32,60.24096386,3,2,4,,,,,,,,8,14,,,,,,,,,,,8,14.727,1,,,,,,0.407552083,-0.401041667,1,0,0,14.7274,Pumice_rect,3,0,3,0,1,
65c3ed5a2ce11e90eb7fd7ae,SCN,2024-06-11_12h21.54.249,LearnStrategy,2023.2.3,Win32,60.24096386,3,2,5,,,,,,,,2,08,,,,,,,,,,,2,9.18,1,,,,,,-0.16796875,-0.234375,1,0,0,9.1804,Basalt_rect,4,0,4,0,1,
65c3ed5a2ce11e90eb7fd7ae,SCN,2024-06-11_12h21.54.249,LearnStrategy,2023.2.3,Win32,60.24096386,3,2,6,,,,,,,,1,01,,,,,,,,,,,1,11.367,1,,,,,,-0.430989583,-0.244791667,1,0,0,11.3667,Andesite_rect,5,0,5,0,1,
65c3ed5a2ce11e90eb7fd7ae,SCN,2024-06-11_12h21.54.249,LearnStrategy,2023.2.3,Win32,60.24096386,3,2,7,,,,,,,,4,13,,,,,,,,,,,3,4.774,0,,,,,,0.140625,-0.256510417,1,0,0,4.7745,Diorite_rect,6,0,6,0,1,
65c3ed5a2ce11e90eb7fd7ae,SCN,2024-06-11_12h21.54.249,LearnStrategy,2023.2.3,Win32,60.24096386,3,2,8,,,,,,,,6,13,,,,,,,,,,,7,19.861,0,,,,,,0.098958333,-0.390625,1,0,0,19.8606,Peridotite_rect,7,0,7,0,1,
65c3ed5a2ce11e90eb7fd7ae,SCN,2024-06-11_12h21.54.249,LearnStrategy,2023.2.3,Win32,60.24096386,3,2,9,,,,,,,,5,06,,,,,,,,,,,5,7.947,1,,,,,,-0.419270833,-0.40625,1,0,0,7.9472,Obsidian_rect,8,0,8,0,1,
65c3ed5a2ce11e90eb7fd7ae,SCN,2024-06-11_12h21.54.249,LearnStrategy,2023.2.3,Win32,60.24096386,3,2,10,,,,,,,,6,15,,,,,,,,,,,3,11.801,0,,,,,,0.166666667,-0.252604167,1,0,0,11.8014,Diorite_rect,9,0,9,0,1,
65c3ed5a2ce11e90eb7fd7ae,SCN,2024-06-11_12h21.54.249,LearnStrategy,2023.2.3,Win32,60.24096386,3,2,11,,,,,,,,8,10,,,,,,,,,,,6,7.252,0,,,,,,-0.140625,-0.385416667,1,0,0,7.2517,Pegmatite_rect,10,0,10,0,1,
65c3ed5a2ce11e90eb7fd7ae,SCN,2024-06-11_12h21.54.249,LearnStrategy,2023.2.3,Win32,60.24096386,3,2,12,,,,,,,,7,10,,,,,,,,,,,3,5.596,0,,,,,,0.096354167,-0.247395833,1,0,0,5.5959,Diorite_rect,11,0,11,0,1,
65c3ed5a2ce11e90eb7fd7ae,SCN,2024-06-11_12h21.54.249,LearnStrategy,2023.2.3,Win32,60.24096386,3,2,13,,,,,,,,4,09,,,,,,,,,,,1,9.267,0,,,,,,-0.37109375,-0.268229167,1,0,0,9.2668,Andesite_rect,12,0,12,0,1,
65c3ed5a2ce11e90eb7fd7ae,SCN,2024-06-11_12h21.54.249,LearnStrategy,2023.2.3,Win32,60.24096386,3,2,14,,,,,,,,3,12,,,,,,,,,,,2,1.685,0,,,,,,-0.095052083,-0.251302083,1,0,0,1.6848,Basalt_rect,13,0,13,0,1,
65c3ed5a2ce11e90eb7fd7ae,SCN,2024-06-11_12h21.54.249,LearnStrategy,2023.2.3,Win32,60.24096386,3,2,15,,,,,,,,5,16,,,,,,,,,,,5,7.674,1,,,,,,-0.376302083,-0.403645833,1,0,0,7.6739,Obsidian_rect,14,0,14,0,1,
65c3ed5a2ce11e90eb7fd7ae,SCN,2024-06-11_12h21.54.249,LearnStrategy,2023.2.3,Win32,60.24096386,3,2,16,,,,,,,,7,05,,,,,,,,,,,3,27.34,0,,,,,,0.075520833,-0.255208333,1,0,0,27.3397,Diorite_rect,15,0,15,0,1,
65c3ed5a2ce11e90eb7fd7ae,SCN,2024-06-11_12h21.54.249,LearnStrategy,2023.2.3,Win32,60.24096386,4,1,1,-0.359375,-0.236979167,1,0,0,8.2802,Obsidian_08,5,08,2,2,8.28,-0.342447917,-0.408854167,1,0,0,1.7077,Obsidian_rect,5,1.708,1,0,0,0,0,1,,,,,,,,,,,,,
65c3ed5a2ce11e90eb7fd7ae,SCN,2024-06-11_12h21.54.249,LearnStrategy,2023.2.3,Win32,60.24096386,4,1,2,0.365885417,-0.44140625,1,0,0,22.4023,Andesite_07,1,07,1,7,22.402,-0.373697917,-0.247395833,1,0,0,0.9879,Andesite_rect,1,0.988,1,1,0,1,0,1,,,,,,,,,,,,,
65c3ed5a2ce11e90eb7fd7ae,SCN,2024-06-11_12h21.54.249,LearnStrategy,2023.2.3,Win32,60.24096386,4,1,3,0.244791667,-0.407552083,1,0,0,2.9379,Basalt_02,2,02,1,6,2.938,-0.149739583,-0.2421875,1,0,0,1.1505,Basalt_rect,2,1.151,1,2,0,2,0,1,,,,,,,,,,,,,
65c3ed5a2ce11e90eb7fd7ae,SCN,2024-06-11_12h21.54.249,LearnStrategy,2023.2.3,Win32,60.24096386,4,1,4,0.084635417,-0.401041667,1,0,0,2.9479,Peridotite_02,7,02,1,5,2.948,0.088541667,-0.399739583,1,0,0,0.7633,Peridotite_rect,7,0.763,1,3,0,3,0,1,,,,,,,,,,,,,
65c3ed5a2ce11e90eb7fd7ae,SCN,2024-06-11_12h21.54.249,LearnStrategy,2023.2.3,Win32,60.24096386,4,1,5,-0.0546875,-0.415364583,1,0,0,2.375,Diorite_08,3,08,1,4,2.375,0.165364583,-0.251302083,1,0,0,2.1275,Diorite_rect,3,2.128,1,4,0,4,0,1,,,,,,,,,,,,,
65c3ed5a2ce11e90eb7fd7ae,SCN,2024-06-11_12h21.54.249,LearnStrategy,2023.2.3,Win32,60.24096386,4,1,6,-0.213541667,-0.397135417,1,0,0,1.682,Pegmatite_06,6,06,1,3,1.682,-0.123697917,-0.401041667,1,0,0,2.8196,Pegmatite_rect,6,2.82,1,5,0,5,0,1,,,,,,,,,,,,,
65c3ed5a2ce11e90eb7fd7ae,SCN,2024-06-11_12h21.54.249,LearnStrategy,2023.2.3,Win32,60.24096386,4,1,7,-0.377604167,-0.421875,1,0,0,2.8256,Peridotite_13,7,13,1,2,2.826,0.131510417,-0.407552083,1,0,0,1.9223,Peridotite_rect,7,1.922,1,6,0,6,0,1,,,,,,,,,,,,,
65c3ed5a2ce11e90eb7fd7ae,SCN,2024-06-11_12h21.54.249,LearnStrategy,2023.2.3,Win32,60.24096386,4,1,8,-0.537760417,-0.3984375,1,0,0,3.8468,Andesite_04,1,04,1,1,3.847,-0.404947917,-0.240885417,1,0,0,1.2089,Andesite_rect,1,1.209,1,7,0,7,0,1,,,,,,,,,,,,,
65c3ed5a2ce11e90eb7fd7ae,SCN,2024-06-11_12h21.54.249,LearnStrategy,2023.2.3,Win32,60.24096386,4,1,9,0.522135417,-0.260416667,1,0,0,1.3775,Obsidian_14,5,14,2,8,1.378,-0.342447917,-0.401041667,1,0,0,2.5526,Obsidian_rect,5,2.553,1,8,0,8,0,1,,,,,,,,,,,,,
65c3ed5a2ce11e90eb7fd7ae,SCN,2024-06-11_12h21.54.249,LearnStrategy,2023.2.3,Win32,60.24096386,4,1,10,0.391927083,-0.26953125,1,0,0,2.0106,Diorite_02,3,02,2,7,2.011,0.157552083,-0.240885417,1,0,0,2.7262,Diorite_rect,3,2.726,1,9,0,9,0,1,,,,,,,,,,,,,
65c3ed5a2ce11e90eb7fd7ae,SCN,2024-06-11_12h21.54.249,LearnStrategy,2023.2.3,Win32,60.24096386,4,1,11,0.212239583,-0.227864583,1,0,0,3.8306,Peridotite_08,7,08,2,6,3.831,0.1015625,-0.407552083,1,0,0,2.1293,Peridotite_rect,7,2.129,1,10,0,10,0,1,,,,,,,,,,,,,
65c3ed5a2ce11e90eb7fd7ae,SCN,2024-06-11_12h21.54.249,LearnStrategy,2023.2.3,Win32,60.24096386,4,1,12,0.046875,-0.276041667,1,0,0,2.0236,Basalt_09,2,09,2,5,2.024,-0.162760417,-0.236979167,1,0,0,0.9855,Basalt_rect,2,0.985,1,11,0,11,0,1,,,,,,,,,,,,,
65c3ed5a2ce11e90eb7fd7ae,SCN,2024-06-11_12h21.54.249,LearnStrategy,2023.2.3,Win32,60.24096386,4,1,13,-0.087239583,-0.274739583,1,0,0,2.0939,Diorite_10,3,10,2,4,2.094,0.166666667,-0.244791667,1,0,0,2.7827,Diorite_rect,3,2.783,1,12,0,12,0,1,,,,,,,,,,,,,
65c3ed5a2ce11e90eb7fd7ae,SCN,2024-06-11_12h21.54.249,LearnStrategy,2023.2.3,Win32,60.24096386,4,1,14,-0.216145833,-0.2421875,1,0,0,2.73,Gabbro_10,4,10,2,3,2.73,0.3828125,-0.25,1,0,0,5.395,Gabbro_rect,4,5.395,1,13,0,13,0,1,,,,,,,,,,,,,
65c3ed5a2ce11e90eb7fd7ae,SCN,2024-06-11_12h21.54.249,LearnStrategy,2023.2.3,Win32,60.24096386,4,1,15,-0.391927083,-0.268229167,1,0,0,1.1092,Obsidian_08,5,08,2,2,1.109,-0.368489583,-0.395833333,1,0,0,2.4211,Obsidian_rect,5,2.421,1,14,0,14,0,1,,,,,,,,,,,,,
65c3ed5a2ce11e90eb7fd7ae,SCN,2024-06-11_12h21.54.249,LearnStrategy,2023.2.3,Win32,60.24096386,4,1,16,-0.51171875,-0.225260417,1,0,0,1.4451,Basalt_14,2,14,2,1,1.445,-0.165364583,-0.265625,1,0,0,0.9943,Basalt_rect,2,0.994,1,15,0,15,0,1,,,,,,,,,,,,,
65c3ed5a2ce11e90eb7fd7ae,SCN,2024-06-11_12h21.54.249,LearnStrategy,2023.2.3,Win32,60.24096386,4,2,1,,,,,,,,7,07,,,,,,,,,,,3,6.989,0,,,,,,0.158854167,-0.247395833,1,0,0,6.9887,Diorite_rect,0,0,0,0,1,
65c3ed5a2ce11e90eb7fd7ae,SCN,2024-06-11_12h21.54.249,LearnStrategy,2023.2.3,Win32,60.24096386,4,2,2,,,,,,,,5,12,,,,,,,,,,,5,3.74,1,,,,,,-0.364583333,-0.407552083,1,0,0,3.7405,Obsidian_rect,1,0,1,0,1,
65c3ed5a2ce11e90eb7fd7ae,SCN,2024-06-11_12h21.54.249,LearnStrategy,2023.2.3,Win32,60.24096386,4,2,3,,,,,,,,2,08,,,,,,,,,,,2,5.967,1,,,,,,-0.154947917,-0.23046875,1,0,0,5.967,Basalt_rect,2,0,2,0,1,
65c3ed5a2ce11e90eb7fd7ae,SCN,2024-06-11_12h21.54.249,LearnStrategy,2023.2.3,Win32,60.24096386,4,2,4,,,,,,,,8,06,,,,,,,,,,,8,33.496,1,,,,,,0.424479167,-0.416666667,1,0,0,33.496,Pumice_rect,3,0,3,0,1,
65c3ed5a2ce11e90eb7fd7ae,SCN,2024-06-11_12h21.54.249,LearnStrategy,2023.2.3,Win32,60.24096386,4,2,5,,,,,,,,4,01,,,,,,,,,,,1,32.91,0,,,,,,-0.424479167,-0.260416667,1,0,0,32.9103,Andesite_rect,4,0,4,0,1,
65c3ed5a2ce11e90eb7fd7ae,SCN,2024-06-11_12h21.54.249,LearnStrategy,2023.2.3,Win32,60.24096386,4,2,6,,,,,,,,1,10,,,,,,,,,,,1,12.434,1,,,,,,-0.41015625,-0.264322917,1,0,0,12.4343,Andesite_rect,5,0,5,0,1,
65c3ed5a2ce11e90eb7fd7ae,SCN,2024-06-11_12h21.54.249,LearnStrategy,2023.2.3,Win32,60.24096386,4,2,7,,,,,,,,5,06,,,,,,,,,,,5,3.003,1,,,,,,-0.408854167,-0.397135417,1,0,0,3.0034,Obsidian_rect,6,0,6,0,1,
65c3ed5a2ce11e90eb7fd7ae,SCN,2024-06-11_12h21.54.249,LearnStrategy,2023.2.3,Win32,60.24096386,4,2,8,,,,,,,,6,15,,,,,,,,,,,6,7.69,1,,,,,,-0.102864583,-0.397135417,1,0,0,7.6903,Pegmatite_rect,7,0,7,0,1,
65c3ed5a2ce11e90eb7fd7ae,SCN,2024-06-11_12h21.54.249,LearnStrategy,2023.2.3,Win32,60.24096386,4,2,9,,,,,,,,8,14,,,,,,,,,,,8,7.606,1,,,,,,0.430989583,-0.420572917,1,0,0,7.6059,Pumice_rect,8,0,8,0,1,
65c3ed5a2ce11e90eb7fd7ae,SCN,2024-06-11_12h21.54.249,LearnStrategy,2023.2.3,Win32,60.24096386,4,2,10,,,,,,,,3,07,,,,,,,,,,,3,30.118,1,,,,,,0.13671875,-0.240885417,1,0,0,30.1183,Diorite_rect,9,0,9,0,1,
65c3ed5a2ce11e90eb7fd7ae,SCN,2024-06-11_12h21.54.249,LearnStrategy,2023.2.3,Win32,60.24096386,4,2,11,,,,,,,,3,12,,,,,,,,,,,6,6.566,0,,,,,,-0.149739583,-0.4140625,1,0,0,6.5665,Pegmatite_rect,10,0,10,0,1,
65c3ed5a2ce11e90eb7fd7ae,SCN,2024-06-11_12h21.54.249,LearnStrategy,2023.2.3,Win32,60.24096386,4,2,12,,,,,,,,2,16,,,,,,,,,,,8,7.172,0,,,,,,0.399739583,-0.404947917,1,0,0,7.1716,Pumice_rect,11,0,11,0,1,
65c3ed5a2ce11e90eb7fd7ae,SCN,2024-06-11_12h21.54.249,LearnStrategy,2023.2.3,Win32,60.24096386,4,2,13,,,,,,,,6,07,,,,,,,,,,,6,6.852,1,,,,,,-0.11328125,-0.419270833,1,0,0,6.8521,Pegmatite_rect,12,0,12,0,1,
65c3ed5a2ce11e90eb7fd7ae,SCN,2024-06-11_12h21.54.249,LearnStrategy,2023.2.3,Win32,60.24096386,4,2,14,,,,,,,,1,14,,,,,,,,,,,1,9.453,1,,,,,,-0.403645833,-0.234375,1,0,0,9.4526,Andesite_rect,13,0,13,0,1,
65c3ed5a2ce11e90eb7fd7ae,SCN,2024-06-11_12h21.54.249,LearnStrategy,2023.2.3,Win32,60.24096386,4,2,15,,,,,,,,4,14,,,,,,,,,,,3,4.548,0,,,,,,0.180989583,-0.244791667,1,0,0,4.5482,Diorite_rect,14,0,14,0,1,
65c3ed5a2ce11e90eb7fd7ae,SCN,2024-06-11_12h21.54.249,LearnStrategy,2023.2.3,Win32,60.24096386,4,2,16,,,,,,,,7,14,,,,,,,,,,,6,5.065,0,,,,,,-0.109375,-0.397135417,1,0,0,5.0648,Pegmatite_rect,15,0,15,0,1,
65c3ed5a2ce11e90eb7fd7ae,SCN,2024-06-11_12h21.54.249,LearnStrategy,2023.2.3,Win32,60.24096386,5,1,1,-0.373697917,0.390625,1,0,0,19.6808,Basalt_10,2,10,6,2,19.681,-0.169270833,-0.23046875,1,0,0,1.0106,Basalt_rect,2,1.011,1,0,0,0,0,1,,,,,,,,,,,,,
65c3ed5a2ce11e90eb7fd7ae,SCN,2024-06-11_12h21.54.249,LearnStrategy,2023.2.3,Win32,60.24096386,5,1,2,-0.23828125,0.391927083,1,0,0,1.9845,Gabbro_11,4,11,6,3,1.985,0.350260417,-0.23828125,1,0,0,1.4255,Gabbro_rect,4,1.425,1,1,0,1,0,1,,,,,,,,,,,,,
65c3ed5a2ce11e90eb7fd7ae,SCN,2024-06-11_12h21.54.249,LearnStrategy,2023.2.3,Win32,60.24096386,5,1,3,-0.102864583,0.4140625,1,0,0,1.5301,Obsidian_07,5,07,6,4,1.53,-0.412760417,-0.415364583,1,0,0,2.6418,Obsidian_rect,5,2.642,1,2,0,2,0,1,,,,,,,,,,,,,
65c3ed5a2ce11e90eb7fd7ae,SCN,2024-06-11_12h21.54.249,LearnStrategy,2023.2.3,Win32,60.24096386,5,1,4,0.078125,0.401041667,1,0,0,6.1817,Pumice_03,8,03,6,5,6.182,0.372395833,-0.3984375,1,0,0,2.6638,Pumice_rect,8,2.664,1,3,0,3,0,1,,,,,,,,,,,,,
65c3ed5a2ce11e90eb7fd7ae,SCN,2024-06-11_12h21.54.249,LearnStrategy,2023.2.3,Win32,60.24096386,5,1,5,0.282552083,0.41015625,1,0,0,1.5474,Obsidian_09,5,09,6,6,1.547,-0.385416667,-0.412760417,1,0,0,1.1716,Obsidian_rect,5,1.172,1,4,0,4,0,1,,,,,,,,,,,,,
65c3ed5a2ce11e90eb7fd7ae,SCN,2024-06-11_12h21.54.249,LearnStrategy,2023.2.3,Win32,60.24096386,5,1,6,0.358072917,0.38671875,1,0,0,1.8636,Obsidian_10,5,10,6,7,1.864,-0.354166667,-0.39453125,1,0,0,1.0097,Obsidian_rect,5,1.01,1,5,0,5,0,1,,,,,,,,,,,,,
65c3ed5a2ce11e90eb7fd7ae,SCN,2024-06-11_12h21.54.249,LearnStrategy,2023.2.3,Win32,60.24096386,5,1,7,0.5390625,0.412760417,1,0,0,1.4815,Gabbro_08,4,08,6,8,1.482,0.423177083,-0.243489583,1,0,0,2.2538,Gabbro_rect,4,2.254,1,6,0,6,0,1,,,,,,,,,,,,,
65c3ed5a2ce11e90eb7fd7ae,SCN,2024-06-11_12h21.54.249,LearnStrategy,2023.2.3,Win32,60.24096386,5,1,8,-0.5078125,0.23828125,1,0,0,1.0832,Pegmatite_08,6,08,5,1,1.083,-0.109375,-0.404947917,1,0,0,2.9385,Pegmatite_rect,6,2.939,1,7,0,7,0,1,,,,,,,,,,,,,
65c3ed5a2ce11e90eb7fd7ae,SCN,2024-06-11_12h21.54.249,LearnStrategy,2023.2.3,Win32,60.24096386,5,1,9,-0.35546875,0.23828125,1,0,0,0.914,Pumice_08,8,08,5,2,0.914,0.346354167,-0.397135417,1,0,0,2.462,Pumice_rect,8,2.462,1,8,0,8,0,1,,,,,,,,,,,,,
65c3ed5a2ce11e90eb7fd7ae,SCN,2024-06-11_12h21.54.249,LearnStrategy,2023.2.3,Win32,60.24096386,5,1,10,-0.233072917,0.229166667,1,0,0,1.9485,Obsidian_04,5,04,5,3,1.948,-0.365885417,-0.401041667,1,0,0,1.0042,Obsidian_rect,5,1.004,1,9,0,9,0,1,,,,,,,,,,,,,
65c3ed5a2ce11e90eb7fd7ae,SCN,2024-06-11_12h21.54.249,LearnStrategy,2023.2.3,Win32,60.24096386,5,1,11,-0.04296875,0.243489583,1,0,0,0.6433,Gabbro_16,4,16,5,4,0.643,0.4453125,-0.24609375,1,0,0,2.014,Gabbro_rect,4,2.014,1,10,0,10,0,1,,,,,,,,,,,,,
65c3ed5a2ce11e90eb7fd7ae,SCN,2024-06-11_12h21.54.249,LearnStrategy,2023.2.3,Win32,60.24096386,5,1,12,0.048177083,0.220052083,1,0,0,0.9138,Pumice_09,8,09,5,5,0.914,0.368489583,-0.393229167,1,0,0,2.1521,Pumice_rect,8,2.152,1,11,0,11,0,1,,,,,,,,,,,,,
65c3ed5a2ce11e90eb7fd7ae,SCN,2024-06-11_12h21.54.249,LearnStrategy,2023.2.3,Win32,60.24096386,5,1,13,0.201822917,0.23046875,1,0,0,1.0901,Pumice_13,8,13,5,6,1.09,0.390625,-0.3984375,1,0,0,1.6858,Pumice_rect,8,1.686,1,12,0,12,0,1,,,,,,,,,,,,,
65c3ed5a2ce11e90eb7fd7ae,SCN,2024-06-11_12h21.54.249,LearnStrategy,2023.2.3,Win32,60.24096386,5,1,14,0.37109375,0.243489583,1,0,0,1.8161,Peridotite_06,7,06,5,7,1.816,0.104166667,-0.389322917,1,0,0,1.3399,Peridotite_rect,7,1.34,1,13,0,13,0,1,,,,,,,,,,,,,
65c3ed5a2ce11e90eb7fd7ae,SCN,2024-06-11_12h21.54.249,LearnStrategy,2023.2.3,Win32,60.24096386,5,1,15,0.578125,0.256510417,1,0,0,6.3491,Andesite_11,1,11,5,8,6.349,-0.36328125,-0.25390625,1,0,0,2.1273,Andesite_rect,1,2.127,1,14,0,14,0,1,,,,,,,,,,,,,
65c3ed5a2ce11e90eb7fd7ae,SCN,2024-06-11_12h21.54.249,LearnStrategy,2023.2.3,Win32,60.24096386,5,1,16,-0.55078125,0.088541667,1,0,0,2.2485,Gabbro_15,4,15,4,1,2.249,0.399739583,-0.24609375,1,0,0,1.9324,Gabbro_rect,4,1.932,1,15,0,15,0,1,,,,,,,,,,,,,
65c3ed5a2ce11e90eb7fd7ae,SCN,2024-06-11_12h21.54.249,LearnStrategy,2023.2.3,Win32,60.24096386,5,2,1,,,,,,,,3,09,,,,,,,,,,,3,26.35,1,,,,,,0.200520833,-0.2578125,1,0,0,26.35,Diorite_rect,0,0,0,0,1,
65c3ed5a2ce11e90eb7fd7ae,SCN,2024-06-11_12h21.54.249,LearnStrategy,2023.2.3,Win32,60.24096386,5,2,2,,,,,,,,6,12,,,,,,,,,,,3,8.479,0,,,,,,0.19140625,-0.240885417,1,0,0,8.4788,Diorite_rect,1,0,1,0,1,
65c3ed5a2ce11e90eb7fd7ae,SCN,2024-06-11_12h21.54.249,LearnStrategy,2023.2.3,Win32,60.24096386,5,2,3,,,,,,,,7,15,,,,,,,,,,,7,7.039,1,,,,,,0.09765625,-0.419270833,1,0,0,7.0395,Peridotite_rect,2,0,2,0,1,
65c3ed5a2ce11e90eb7fd7ae,SCN,2024-06-11_12h21.54.249,LearnStrategy,2023.2.3,Win32,60.24096386,5,2,4,,,,,,,,1,03,,,,,,,,,,,2,4.473,0,,,,,,-0.078125,-0.260416667,1,0,0,4.4728,Basalt_rect,3,0,3,0,1,
65c3ed5a2ce11e90eb7fd7ae,SCN,2024-06-11_12h21.54.249,LearnStrategy,2023.2.3,Win32,60.24096386,5,2,5,,,,,,,,8,04,,,,,,,,,,,8,7.615,1,,,,,,0.416666667,-0.401041667,1,0,0,7.6152,Pumice_rect,4,0,4,0,1,
65c3ed5a2ce11e90eb7fd7ae,SCN,2024-06-11_12h21.54.249,LearnStrategy,2023.2.3,Win32,60.24096386,5,2,6,,,,,,,,2,11,,,,,,,,,,,8,6.05,0,,,,,,0.34375,-0.419270833,1,0,0,6.0501,Pumice_rect,5,0,5,0,1,
65c3ed5a2ce11e90eb7fd7ae,SCN,2024-06-11_12h21.54.249,LearnStrategy,2023.2.3,Win32,60.24096386,5,2,7,,,,,,,,6,03,,,,,,,,,,,7,12.481,0,,,,,,0.1015625,-0.399739583,1,0,0,12.4812,Peridotite_rect,6,0,6,0,1,
65c3ed5a2ce11e90eb7fd7ae,SCN,2024-06-11_12h21.54.249,LearnStrategy,2023.2.3,Win32,60.24096386,5,2,8,,,,,,,,5,05,,,,,,,,,,,5,2.103,1,,,,,,-0.4453125,-0.401041667,1,0,0,2.1029,Obsidian_rect,7,0,7,0,1,
65c3ed5a2ce11e90eb7fd7ae,SCN,2024-06-11_12h21.54.249,LearnStrategy,2023.2.3,Win32,60.24096386,5,2,9,,,,,,,,1,01,,,,,,,,,,,2,3.305,0,,,,,,-0.157552083,-0.256510417,1,0,0,3.305,Basalt_rect,8,0,8,0,1,
65c3ed5a2ce11e90eb7fd7ae,SCN,2024-06-11_12h21.54.249,LearnStrategy,2023.2.3,Win32,60.24096386,5,2,10,,,,,,,,7,10,,,,,,,,,,,1,6.223,0,,,,,,-0.34765625,-0.25,1,0,0,6.2227,Andesite_rect,9,0,9,0,1,
65c3ed5a2ce11e90eb7fd7ae,SCN,2024-06-11_12h21.54.249,LearnStrategy,2023.2.3,Win32,60.24096386,5,2,11,,,,,,,,3,11,,,,,,,,,,,3,5.815,1,,,,,,0.201822917,-0.23828125,1,0,0,5.8151,Diorite_rect,10,0,10,0,1,
65c3ed5a2ce11e90eb7fd7ae,SCN,2024-06-11_12h21.54.249,LearnStrategy,2023.2.3,Win32,60.24096386,5,2,12,,,,,,,,5,11,,,,,,,,,,,5,1.67,1,,,,,,-0.377604167,-0.40234375,1,0,0,1.6698,Obsidian_rect,11,0,11,0,1,
65c3ed5a2ce11e90eb7fd7ae,SCN,2024-06-11_12h21.54.249,LearnStrategy,2023.2.3,Win32,60.24096386,5,2,13,,,,,,,,8,15,,,,,,,,,,,8,3.179,1,,,,,,0.399739583,-0.4140625,1,0,0,3.1789,Pumice_rect,12,0,12,0,1,
65c3ed5a2ce11e90eb7fd7ae,SCN,2024-06-11_12h21.54.249,LearnStrategy,2023.2.3,Win32,60.24096386,5,2,14,,,,,,,,4,13,,,,,,,,,,,3,4.823,0,,,,,,0.10546875,-0.235677083,1,0,0,4.8228,Diorite_rect,13,0,13,0,1,
65c3ed5a2ce11e90eb7fd7ae,SCN,2024-06-11_12h21.54.249,LearnStrategy,2023.2.3,Win32,60.24096386,5,2,15,,,,,,,,4,05,,,,,,,,,,,7,3.177,0,,,,,,0.134114583,-0.395833333,1,0,0,3.1767,Peridotite_rect,14,0,14,0,1,
65c3ed5a2ce11e90eb7fd7ae,SCN,2024-06-11_12h21.54.249,LearnStrategy,2023.2.3,Win32,60.24096386,5,2,16,,,,,,,,2,05,,,,,,,,,,,2,1.934,1,,,,,,-0.111979167,-0.255208333,1,0,0,1.9336,Basalt_rect,15,0,15,0,1,
65c3ed5a2ce11e90eb7fd7ae,SCN,2024-06-11_12h21.54.249,LearnStrategy,2023.2.3,Win32,60.24096386,6,1,1,0.41796875,-0.416666667,1,0,0,7.7301,Andesite_07,1,07,1,7,7.73,-0.37890625,-0.251302083,1,0,0,1.0848,Andesite_rect,1,1.085,1,0,0,0,0,1,,,,,,,,,,,,,
65c3ed5a2ce11e90eb7fd7ae,SCN,2024-06-11_12h21.54.249,LearnStrategy,2023.2.3,Win32,60.24096386,6,1,2,0.260416667,-0.403645833,1,0,0,1.8272,Basalt_02,2,02,1,6,1.827,-0.080729167,-0.239583333,1,0,0,1.4833,Basalt_rect,2,1.483,1,1,0,1,0,1,,,,,,,,,,,,,
65c3ed5a2ce11e90eb7fd7ae,SCN,2024-06-11_12h21.54.249,LearnStrategy,2023.2.3,Win32,60.24096386,6,1,3,0.108072917,-0.43359375,1,0,0,1.2435,Peridotite_02,7,02,1,5,1.244,0.09375,-0.393229167,1,0,0,1.9228,Peridotite_rect,7,1.923,1,2,0,2,0,1,,,,,,,,,,,,,
65c3ed5a2ce11e90eb7fd7ae,SCN,2024-06-11_12h21.54.249,LearnStrategy,2023.2.3,Win32,60.24096386,6,1,4,-0.04296875,-0.404947917,1,0,0,1.0976,Diorite_08,3,08,1,4,1.098,0.173177083,-0.260416667,1,0,0,2.2689,Diorite_rect,3,2.269,1,3,0,3,0,1,,,,,,,,,,,,,
65c3ed5a2ce11e90eb7fd7ae,SCN,2024-06-11_12h21.54.249,LearnStrategy,2023.2.3,Win32,60.24096386,6,1,5,-0.192708333,-0.381510417,1,0,0,2.0932,Pegmatite_06,6,06,1,3,2.093,-0.115885417,-0.407552083,1,0,0,1.3742,Pegmatite_rect,6,1.374,1,4,0,4,0,1,,,,,,,,,,,,,
65c3ed5a2ce11e90eb7fd7ae,SCN,2024-06-11_12h21.54.249,LearnStrategy,2023.2.3,Win32,60.24096386,6,1,6,-0.350260417,-0.41015625,1,0,0,1.0634,Peridotite_13,7,13,1,2,1.063,0.095052083,-0.403645833,1,0,0,2.1043,Peridotite_rect,7,2.104,1,5,0,5,0,1,,,,,,,,,,,,,
65c3ed5a2ce11e90eb7fd7ae,SCN,2024-06-11_12h21.54.249,LearnStrategy,2023.2.3,Win32,60.24096386,6,1,7,-0.540364583,-0.37109375,1,0,0,1.3167,Andesite_04,1,04,1,1,1.317,-0.4296875,-0.260416667,1,0,0,1.646,Andesite_rect,1,1.646,1,6,0,6,0,1,,,,,,,,,,,,,
65c3ed5a2ce11e90eb7fd7ae,SCN,2024-06-11_12h21.54.249,LearnStrategy,2023.2.3,Win32,60.24096386,6,1,8,0.561197917,-0.264322917,1,0,0,1.397,Obsidian_14,5,14,2,8,1.397,-0.38671875,-0.397135417,1,0,0,1.0326,Obsidian_rect,5,1.033,1,7,0,7,0,1,,,,,,,,,,,,,
65c3ed5a2ce11e90eb7fd7ae,SCN,2024-06-11_12h21.54.249,LearnStrategy,2023.2.3,Win32,60.24096386,6,1,9,0.37890625,-0.248697917,1,0,0,1.1823,Diorite_02,3,02,2,7,1.182,0.15625,-0.263020833,1,0,0,1.2734,Diorite_rect,3,1.273,1,8,0,8,0,1,,,,,,,,,,,,,
65c3ed5a2ce11e90eb7fd7ae,SCN,2024-06-11_12h21.54.249,LearnStrategy,2023.2.3,Win32,60.24096386,6,1,10,0.236979167,-0.25390625,1,0,0,2.8314,Peridotite_08,7,08,2,6,2.831,0.084635417,-0.397135417,1,0,0,2.0452,Peridotite_rect,7,2.045,1,9,0,9,0,1,,,,,,,,,,,,,
65c3ed5a2ce11e90eb7fd7ae,SCN,2024-06-11_12h21.54.249,LearnStrategy,2023.2.3,Win32,60.24096386,6,1,11,0.065104167,-0.270833333,1,0,0,1.0472,Basalt_09,2,09,2,5,1.047,-0.15234375,-0.231770833,1,0,0,1.599,Basalt_rect,2,1.599,1,10,0,10,0,1,,,,,,,,,,,,,
65c3ed5a2ce11e90eb7fd7ae,SCN,2024-06-11_12h21.54.249,LearnStrategy,2023.2.3,Win32,60.24096386,6,1,12,-0.072916667,-0.2734375,1,0,0,1.7116,Diorite_10,3,10,2,4,1.712,0.092447917,-0.247395833,1,0,0,1.6278,Diorite_rect,3,1.628,1,11,0,11,0,1,,,,,,,,,,,,,
65c3ed5a2ce11e90eb7fd7ae,SCN,2024-06-11_12h21.54.249,LearnStrategy,2023.2.3,Win32,60.24096386,6,1,13,-0.3671875,-0.24609375,1,0,0,2.5479,Obsidian_08,5,08,2,2,2.548,-0.350260417,-0.39453125,1,0,0,2.6469,Obsidian_rect,5,2.647,1,12,0,12,0,1,,,,,,,,,,,,,
65c3ed5a2ce11e90eb7fd7ae,SCN,2024-06-11_12h21.54.249,LearnStrategy,2023.2.3,Win32,60.24096386,6,1,14,-0.548177083,-0.26171875,1,0,0,0.9134,Basalt_14,2,14,2,1,0.913,-0.177083333,-0.2421875,1,0,0,2.2326,Basalt_rect,2,2.233,1,13,0,13,0,1,,,,,,,,,,,,,
65c3ed5a2ce11e90eb7fd7ae,SCN,2024-06-11_12h21.54.249,LearnStrategy,2023.2.3,Win32,60.24096386,6,1,15,0.555989583,-0.095052083,1,0,0,1.8317,Diorite_14,3,14,3,8,1.832,0.149739583,-0.265625,1,0,0,1.5598,Diorite_rect,3,1.56,1,14,0,14,0,1,,,,,,,,,,,,,
65c3ed5a2ce11e90eb7fd7ae,SCN,2024-06-11_12h21.54.249,LearnStrategy,2023.2.3,Win32,60.24096386,6,1,16,0.376302083,-0.087239583,1,0,0,4.0809,Andesite_16,1,16,3,7,4.081,-0.388020833,-0.240885417,1,0,0,2.1317,Andesite_rect,1,2.132,1,15,0,15,0,1,,,,,,,,,,,,,
65c3ed5a2ce11e90eb7fd7ae,SCN,2024-06-11_12h21.54.249,LearnStrategy,2023.2.3,Win32,60.24096386,6,2,1,,,,,,,,4,09,,,,,,,,,,,1,8.046,0,,,,,,-0.399739583,-0.251302083,1,0,0,8.046,Andesite_rect,0,0,0,0,1,
65c3ed5a2ce11e90eb7fd7ae,SCN,2024-06-11_12h21.54.249,LearnStrategy,2023.2.3,Win32,60.24096386,6,2,2,,,,,,,,7,12,,,,,,,,,,,7,7.409,1,,,,,,0.161458333,-0.395833333,1,0,0,7.4094,Peridotite_rect,1,0,1,0,1,
65c3ed5a2ce11e90eb7fd7ae,SCN,2024-06-11_12h21.54.249,LearnStrategy,2023.2.3,Win32,60.24096386,6,2,3,,,,,,,,4,12,,,,,,,,,,,4,15.912,1,,,,,,0.38671875,-0.2578125,1,0,0,15.9123,Gabbro_rect,2,0,2,0,1,
65c3ed5a2ce11e90eb7fd7ae,SCN,2024-06-11_12h21.54.249,LearnStrategy,2023.2.3,Win32,60.24096386,6,2,4,,,,,,,,5,02,,,,,,,,,,,5,2.41,1,,,,,,-0.377604167,-0.408854167,1,0,0,2.4099,Obsidian_rect,3,0,3,0,1,
65c3ed5a2ce11e90eb7fd7ae,SCN,2024-06-11_12h21.54.249,LearnStrategy,2023.2.3,Win32,60.24096386,6,2,5,,,,,,,,7,05,,,,,,,,,,,7,11.183,1,,,,,,0.173177083,-0.391927083,1,0,0,11.1825,Peridotite_rect,4,0,4,0,1,
65c3ed5a2ce11e90eb7fd7ae,SCN,2024-06-11_12h21.54.249,LearnStrategy,2023.2.3,Win32,60.24096386,6,2,6,,,,,,,,2,06,,,,,,,,,,,2,2.716,1,,,,,,-0.102864583,-0.234375,1,0,0,2.7158,Basalt_rect,5,0,5,0,1,
65c3ed5a2ce11e90eb7fd7ae,SCN,2024-06-11_12h21.54.249,LearnStrategy,2023.2.3,Win32,60.24096386,6,2,7,,,,,,,,3,16,,,,,,,,,,,1,7.686,0,,,,,,-0.322916667,-0.233072917,1,0,0,7.6858,Andesite_rect,6,0,6,0,1,
65c3ed5a2ce11e90eb7fd7ae,SCN,2024-06-11_12h21.54.249,LearnStrategy,2023.2.3,Win32,60.24096386,6,2,8,,,,,,,,1,05,,,,,,,,,,,4,8.623,0,,,,,,0.421875,-0.247395833,1,0,0,8.6228,Gabbro_rect,7,0,7,0,1,
65c3ed5a2ce11e90eb7fd7ae,SCN,2024-06-11_12h21.54.249,LearnStrategy,2023.2.3,Win32,60.24096386,6,2,9,,,,,,,,6,10,,,,,,,,,,,7,8.716,0,,,,,,0.196614583,-0.403645833,1,0,0,8.716,Peridotite_rect,8,0,8,0,1,
65c3ed5a2ce11e90eb7fd7ae,SCN,2024-06-11_12h21.54.249,LearnStrategy,2023.2.3,Win32,60.24096386,6,2,10,,,,,,,,8,05,,,,,,,,,,,8,2.725,1,,,,,,0.3671875,-0.403645833,1,0,0,2.7247,Pumice_rect,9,0,9,0,1,
65c3ed5a2ce11e90eb7fd7ae,SCN,2024-06-11_12h21.54.249,LearnStrategy,2023.2.3,Win32,60.24096386,6,2,11,,,,,,,,2,04,,,,,,,,,,,2,1.377,1,,,,,,-0.125,-0.25,1,0,0,1.3766,Basalt_rect,10,0,10,0,1,
65c3ed5a2ce11e90eb7fd7ae,SCN,2024-06-11_12h21.54.249,LearnStrategy,2023.2.3,Win32,60.24096386,6,2,12,,,,,,,,3,06,,,,,,,,,,,3,5.749,1,,,,,,0.158854167,-0.26171875,1,0,0,5.7492,Diorite_rect,11,0,11,0,1,
65c3ed5a2ce11e90eb7fd7ae,SCN,2024-06-11_12h21.54.249,LearnStrategy,2023.2.3,Win32,60.24096386,6,2,13,,,,,,,,1,02,,,,,,,,,,,6,9.242,0,,,,,,-0.05078125,-0.401041667,1,0,0,9.2421,Pegmatite_rect,12,0,12,0,1,
65c3ed5a2ce11e90eb7fd7ae,SCN,2024-06-11_12h21.54.249,LearnStrategy,2023.2.3,Win32,60.24096386,6,2,14,,,,,,,,5,16,,,,,,,,,,,5,1.882,1,,,,,,-0.391927083,-0.41796875,1,0,0,1.8817,Obsidian_rect,13,0,13,0,1,
65c3ed5a2ce11e90eb7fd7ae,SCN,2024-06-11_12h21.54.249,LearnStrategy,2023.2.3,Win32,60.24096386,6,2,15,,,,,,,,6,13,,,,,,,,,,,6,10.591,1,,,,,,-0.08203125,-0.381510417,1,0,0,10.5911,Pegmatite_rect,14,0,14,0,1,
65c3ed5a2ce11e90eb7fd7ae,SCN,2024-06-11_12h21.54.249,LearnStrategy,2023.2.3,Win32,60.24096386,6,2,16,,,,,,,,8,10,,,,,,,,,,,8,3.763,1,,,,,,0.390625,-0.403645833,1,0,0,3.763,Pumice_rect,15,0,15,0,1,
65c3ed5a2ce11e90eb7fd7ae,SCN,2024-06-11_12h21.54.249,LearnStrategy,2023.2.3,Win32,60.24096386,7,1,1,-0.399739583,0.415364583,1,0,0,6.8673,Basalt_10,2,10,6,2,6.867,-0.123697917,-0.234375,1,0,0,6.1437,Basalt_rect,2,6.144,1,0,0,0,0,1,,,,,,,,,,,,,
65c3ed5a2ce11e90eb7fd7ae,SCN,2024-06-11_12h21.54.249,LearnStrategy,2023.2.3,Win32,60.24096386,7,1,2,-0.22265625,0.399739583,1,0,0,2.8123,Gabbro_11,4,11,6,3,2.812,0.354166667,-0.255208333,1,0,0,1.7017,Gabbro_rect,4,1.702,1,1,0,1,0,1,,,,,,,,,,,,,
65c3ed5a2ce11e90eb7fd7ae,SCN,2024-06-11_12h21.54.249,LearnStrategy,2023.2.3,Win32,60.24096386,7,1,3,-0.10546875,0.40625,1,0,0,3.5477,Obsidian_07,5,07,6,4,3.548,-0.384114583,-0.388020833,1,0,0,1.1639,Obsidian_rect,5,1.164,1,2,0,2,0,1,,,,,,,,,,,,,
65c3ed5a2ce11e90eb7fd7ae,SCN,2024-06-11_12h21.54.249,LearnStrategy,2023.2.3,Win32,60.24096386,7,1,4,0.063802083,0.395833333,1,0,0,1.9179,Pumice_03,8,03,6,5,1.918,0.33203125,-0.407552083,1,0,0,0.8607,Pumice_rect,8,0.861,1,3,0,3,0,1,,,,,,,,,,,,,
65c3ed5a2ce11e90eb7fd7ae,SCN,2024-06-11_12h21.54.249,LearnStrategy,2023.2.3,Win32,60.24096386,7,1,5,0.204427083,0.3984375,1,0,0,1.1163,Obsidian_09,5,09,6,6,1.116,-0.342447917,-0.389322917,1,0,0,2.1468,Obsidian_rect,5,2.147,1,4,0,4,0,1,,,,,,,,,,,,,
65c3ed5a2ce11e90eb7fd7ae,SCN,2024-06-11_12h21.54.249,LearnStrategy,2023.2.3,Win32,60.24096386,7,1,6,0.37109375,0.385416667,1,0,0,1.7105,Obsidian_10,5,10,6,7,1.711,-0.40234375,-0.411458333,1,0,0,1.0279,Obsidian_rect,5,1.028,1,5,0,5,0,1,,,,,,,,,,,,,
65c3ed5a2ce11e90eb7fd7ae,SCN,2024-06-11_12h21.54.249,LearnStrategy,2023.2.3,Win32,60.24096386,7,1,7,0.5859375,0.416666667,1,0,0,3.9217,Gabbro_08,4,08,6,8,3.922,0.341145833,-0.234375,1,0,0,1.193,Gabbro_rect,4,1.193,1,6,0,6,0,1,,,,,,,,,,,,,
65c3ed5a2ce11e90eb7fd7ae,SCN,2024-06-11_12h21.54.249,LearnStrategy,2023.2.3,Win32,60.24096386,7,1,8,-0.541666667,0.240885417,1,0,0,2.6478,Pegmatite_08,6,08,5,1,2.648,-0.104166667,-0.385416667,1,0,0,1.365,Pegmatite_rect,6,1.365,1,7,0,7,0,1,,,,,,,,,,,,,
65c3ed5a2ce11e90eb7fd7ae,SCN,2024-06-11_12h21.54.249,LearnStrategy,2023.2.3,Win32,60.24096386,7,1,9,-0.358072917,0.259114583,1,0,0,1.2148,Pumice_08,8,08,5,2,1.215,0.377604167,-0.395833333,1,0,0,3.1631,Pumice_rect,8,3.163,1,8,0,8,0,1,,,,,,,,,,,,,
65c3ed5a2ce11e90eb7fd7ae,SCN,2024-06-11_12h21.54.249,LearnStrategy,2023.2.3,Win32,60.24096386,7,1,10,-0.2109375,0.248697917,1,0,0,0.7811,Obsidian_04,5,04,5,3,0.781,-0.356770833,-0.3828125,1,0,0,1.4734,Obsidian_rect,5,1.473,1,9,0,9,0,1,,,,,,,,,,,,,
65c3ed5a2ce11e90eb7fd7ae,SCN,2024-06-11_12h21.54.249,LearnStrategy,2023.2.3,Win32,60.24096386,7,1,11,-0.104166667,0.23828125,1,0,0,1.6968,Gabbro_16,4,16,5,4,1.697,0.330729167,-0.23046875,1,0,0,3.2823,Gabbro_rect,4,3.282,1,10,0,10,0,1,,,,,,,,,,,,,
65c3ed5a2ce11e90eb7fd7ae,SCN,2024-06-11_12h21.54.249,LearnStrategy,2023.2.3,Win32,60.24096386,7,1,12,0.0703125,0.236979167,1,0,0,2.5803,Pumice_09,8,09,5,5,2.58,0.334635417,-0.408854167,1,0,0,1.0815,Pumice_rect,8,1.082,1,11,0,11,0,1,,,,,,,,,,,,,
65c3ed5a2ce11e90eb7fd7ae,SCN,2024-06-11_12h21.54.249,LearnStrategy,2023.2.3,Win32,60.24096386,7,1,13,0.21875,0.247395833,1,0,0,0.9111,Pumice_13,8,13,5,6,0.911,0.384114583,-0.403645833,1,0,0,1.0565,Pumice_rect,8,1.057,1,12,0,12,0,1,,,,,,,,,,,,,
65c3ed5a2ce11e90eb7fd7ae,SCN,2024-06-11_12h21.54.249,LearnStrategy,2023.2.3,Win32,60.24096386,7,1,14,0.377604167,0.24609375,1,0,0,1.4162,Peridotite_06,7,06,5,7,1.416,0.141927083,-0.407552083,1,0,0,5.5836,Peridotite_rect,7,5.584,1,13,0,13,0,1,,,,,,,,,,,,,
65c3ed5a2ce11e90eb7fd7ae,SCN,2024-06-11_12h21.54.249,LearnStrategy,2023.2.3,Win32,60.24096386,7,1,15,0.548177083,0.270833333,1,0,0,1.2596,Andesite_11,1,11,5,8,1.26,-0.364583333,-0.233072917,1,0,0,3.5394,Andesite_rect,1,3.539,1,14,0,14,0,1,,,,,,,,,,,,,
65c3ed5a2ce11e90eb7fd7ae,SCN,2024-06-11_12h21.54.249,LearnStrategy,2023.2.3,Win32,60.24096386,7,1,16,-0.533854167,0.0859375,1,0,0,11.9409,Gabbro_15,4,15,4,1,11.941,0.419270833,-0.256510417,1,0,0,3.3346,Gabbro_rect,4,3.335,1,15,0,15,0,1,,,,,,,,,,,,,
65c3ed5a2ce11e90eb7fd7ae,SCN,2024-06-11_12h21.54.249,LearnStrategy,2023.2.3,Win32,60.24096386,7,2,1,,,,,,,,3,07,,,,,,,,,,,1,10.791,0,,,,,,-0.368489583,-0.234375,1,0,0,10.7911,Andesite_rect,0,0,0,0,1,
65c3ed5a2ce11e90eb7fd7ae,SCN,2024-06-11_12h21.54.249,LearnStrategy,2023.2.3,Win32,60.24096386,7,2,2,,,,,,,,8,10,,,,,,,,,,,8,1.813,1,,,,,,0.416666667,-0.404947917,1,0,0,1.813,Pumice_rect,1,0,1,0,1,
65c3ed5a2ce11e90eb7fd7ae,SCN,2024-06-11_12h21.54.249,LearnStrategy,2023.2.3,Win32,60.24096386,7,2,3,,,,,,,,4,01,,,,,,,,,,,4,2.667,1,,,,,,0.399739583,-0.2421875,1,0,0,2.6671,Gabbro_rect,2,0,2,0,1,
65c3ed5a2ce11e90eb7fd7ae,SCN,2024-06-11_12h21.54.249,LearnStrategy,2023.2.3,Win32,60.24096386,7,2,4,,,,,,,,8,15,,,,,,,,,,,8,1.339,1,,,,,,0.369791667,-0.40234375,1,0,0,1.3391,Pumice_rect,3,0,3,0,1,
65c3ed5a2ce11e90eb7fd7ae,SCN,2024-06-11_12h21.54.249,LearnStrategy,2023.2.3,Win32,60.24096386,7,2,5,,,,,,,,2,08,,,,,,,,,,,2,1.786,1,,,,,,-0.145833333,-0.25390625,1,0,0,1.7857,Basalt_rect,4,0,4,0,1,
65c3ed5a2ce11e90eb7fd7ae,SCN,2024-06-11_12h21.54.249,LearnStrategy,2023.2.3,Win32,60.24096386,7,2,6,,,,,,,,5,05,,,,,,,,,,,5,1.653,1,,,,,,-0.4140625,-0.403645833,1,0,0,1.653,Obsidian_rect,5,0,5,0,1,
65c3ed5a2ce11e90eb7fd7ae,SCN,2024-06-11_12h21.54.249,LearnStrategy,2023.2.3,Win32,60.24096386,7,2,7,,,,,,,,1,14,,,,,,,,,,,7,6.838,0,,,,,,0.08203125,-0.41015625,1,0,0,6.8378,Peridotite_rect,6,0,6,0,1,
65c3ed5a2ce11e90eb7fd7ae,SCN,2024-06-11_12h21.54.249,LearnStrategy,2023.2.3,Win32,60.24096386,7,2,8,,,,,,,,6,12,,,,,,,,,,,4,10.299,0,,,,,,0.352864583,-0.24609375,1,0,0,10.2992,Gabbro_rect,7,0,7,0,1,
65c3ed5a2ce11e90eb7fd7ae,SCN,2024-06-11_12h21.54.249,LearnStrategy,2023.2.3,Win32,60.24096386,7,2,9,,,,,,,,5,02,,,,,,,,,,,5,1.56,1,,,,,,-0.34375,-0.395833333,1,0,0,1.5601,Obsidian_rect,8,0,8,0,1,
65c3ed5a2ce11e90eb7fd7ae,SCN,2024-06-11_12h21.54.249,LearnStrategy,2023.2.3,Win32,60.24096386,7,2,10,,,,,,,,7,12,,,,,,,,,,,6,18.039,0,,,,,,-0.126302083,-0.401041667,1,0,0,18.0392,Pegmatite_rect,9,0,9,0,1,
65c3ed5a2ce11e90eb7fd7ae,SCN,2024-06-11_12h21.54.249,LearnStrategy,2023.2.3,Win32,60.24096386,7,2,11,,,,,,,,3,09,,,,,,,,,,,1,15.705,0,,,,,,-0.337239583,-0.251302083,1,0,0,15.7054,Andesite_rect,10,0,10,0,1,
65c3ed5a2ce11e90eb7fd7ae,SCN,2024-06-11_12h21.54.249,LearnStrategy,2023.2.3,Win32,60.24096386,7,2,12,,,,,,,,2,06,,,,,,,,,,,2,1.284,1,,,,,,-0.125,-0.256510417,1,0,0,1.2839,Basalt_rect,11,0,11,0,1,
65c3ed5a2ce11e90eb7fd7ae,SCN,2024-06-11_12h21.54.249,LearnStrategy,2023.2.3,Win32,60.24096386,7,2,13,,,,,,,,4,09,,,,,,,,,,,4,3.136,1,,,,,,0.369791667,-0.251302083,1,0,0,3.1363,Gabbro_rect,12,0,12,0,1,
65c3ed5a2ce11e90eb7fd7ae,SCN,2024-06-11_12h21.54.249,LearnStrategy,2023.2.3,Win32,60.24096386,7,2,14,,,,,,,,6,13,,,,,,,,,,,3,6.941,0,,,,,,0.170572917,-0.2578125,1,0,0,6.9408,Diorite_rect,13,0,13,0,1,
65c3ed5a2ce11e90eb7fd7ae,SCN,2024-06-11_12h21.54.249,LearnStrategy,2023.2.3,Win32,60.24096386,7,2,15,,,,,,,,1,03,,,,,,,,,,,4,3.012,0,,,,,,0.337239583,-0.240885417,1,0,0,3.0117,Gabbro_rect,14,0,14,0,1,
65c3ed5a2ce11e90eb7fd7ae,SCN,2024-06-11_12h21.54.249,LearnStrategy,2023.2.3,Win32,60.24096386,7,2,16,,,,,,,,7,05,,,,,,,,,,,3,14.164,0,,,,,,0.115885417,-0.243489583,1,0,0,14.1638,Diorite_rect,15,0,15,0,1,
65c3ed5a2ce11e90eb7fd7ae,SCN,2024-06-11_12h21.54.249,LearnStrategy,2023.2.3,Win32,60.24096386,8,1,1,0.569010417,-0.43359375,1,0,0,3.9135,Pumice_02,8,02,1,8,3.914,0.391927083,-0.41796875,1,0,0,0.8952,Pumice_rect,8,0.895,1,0,0,0,0,1,,,,,,,,,,,,,
65c3ed5a2ce11e90eb7fd7ae,SCN,2024-06-11_12h21.54.249,LearnStrategy,2023.2.3,Win32,60.24096386,8,1,2,0.381510417,-0.432291667,1,0,0,5.4347,Andesite_07,1,07,1,7,5.435,-0.368489583,-0.2421875,1,0,0,1.8223,Andesite_rect,1,1.822,1,1,0,1,0,1,,,,,,,,,,,,,
65c3ed5a2ce11e90eb7fd7ae,SCN,2024-06-11_12h21.54.249,LearnStrategy,2023.2.3,Win32,60.24096386,8,1,3,0.25390625,-0.420572917,1,0,0,1.4792,Basalt_02,2,02,1,6,1.479,-0.08203125,-0.25,1,0,0,1.6124,Basalt_rect,2,1.612,1,2,0,2,0,1,,,,,,,,,,,,,
65c3ed5a2ce11e90eb7fd7ae,SCN,2024-06-11_12h21.54.249,LearnStrategy,2023.2.3,Win32,60.24096386,8,1,4,0.096354167,-0.4375,1,0,0,1.38,Peridotite_02,7,02,1,5,1.38,0.080729167,-0.4140625,1,0,0,1.2094,Peridotite_rect,7,1.209,1,3,0,3,0,1,,,,,,,,,,,,,
65c3ed5a2ce11e90eb7fd7ae,SCN,2024-06-11_12h21.54.249,LearnStrategy,2023.2.3,Win32,60.24096386,8,1,5,-0.041666667,-0.401041667,1,0,0,1.4162,Diorite_08,3,08,1,4,1.416,0.16015625,-0.229166667,1,0,0,2.0119,Diorite_rect,3,2.012,1,4,0,4,0,1,,,,,,,,,,,,,
65c3ed5a2ce11e90eb7fd7ae,SCN,2024-06-11_12h21.54.249,LearnStrategy,2023.2.3,Win32,60.24096386,8,1,6,-0.203125,-0.4140625,1,0,0,2.099,Pegmatite_06,6,06,1,3,2.099,-0.114583333,-0.411458333,1,0,0,2.0679,Pegmatite_rect,6,2.068,1,5,0,5,0,1,,,,,,,,,,,,,
65c3ed5a2ce11e90eb7fd7ae,SCN,2024-06-11_12h21.54.249,LearnStrategy,2023.2.3,Win32,60.24096386,8,1,7,-0.350260417,-0.397135417,1,0,0,1.3781,Peridotite_13,7,13,1,2,1.378,0.11328125,-0.40625,1,0,0,2.6846,Peridotite_rect,7,2.685,1,6,0,6,0,1,,,,,,,,,,,,,
65c3ed5a2ce11e90eb7fd7ae,SCN,2024-06-11_12h21.54.249,LearnStrategy,2023.2.3,Win32,60.24096386,8,1,8,-0.529947917,-0.412760417,1,0,0,1.3632,Andesite_04,1,04,1,1,1.363,-0.3515625,-0.256510417,1,0,0,5.1245,Andesite_rect,1,5.124,1,7,0,7,0,1,,,,,,,,,,,,,
65c3ed5a2ce11e90eb7fd7ae,SCN,2024-06-11_12h21.54.249,LearnStrategy,2023.2.3,Win32,60.24096386,8,1,9,0.54296875,-0.255208333,1,0,0,2.4954,Obsidian_14,5,14,2,8,2.495,-0.401041667,-0.393229167,1,0,0,2.3484,Obsidian_rect,5,2.348,1,8,0,8,0,1,,,,,,,,,,,,,
65c3ed5a2ce11e90eb7fd7ae,SCN,2024-06-11_12h21.54.249,LearnStrategy,2023.2.3,Win32,60.24096386,8,1,10,0.377604167,-0.231770833,1,0,0,1.897,Diorite_02,3,02,2,7,1.897,0.110677083,-0.2578125,1,0,0,2.0736,Diorite_rect,3,2.074,1,9,0,9,0,1,,,,,,,,,,,,,
65c3ed5a2ce11e90eb7fd7ae,SCN,2024-06-11_12h21.54.249,LearnStrategy,2023.2.3,Win32,60.24096386,8,1,11,0.24609375,-0.240885417,1,0,0,1.2967,Peridotite_08,7,08,2,6,1.297,0.091145833,-0.401041667,1,0,0,2.5516,Peridotite_rect,7,2.552,1,10,0,10,0,1,,,,,,,,,,,,,
65c3ed5a2ce11e90eb7fd7ae,SCN,2024-06-11_12h21.54.249,LearnStrategy,2023.2.3,Win32,60.24096386,8,1,12,0.06640625,-0.263020833,1,0,0,2.4932,Basalt_09,2,09,2,5,2.493,-0.059895833,-0.264322917,1,0,0,1.5287,Basalt_rect,2,1.529,1,11,0,11,0,1,,,,,,,,,,,,,
65c3ed5a2ce11e90eb7fd7ae,SCN,2024-06-11_12h21.54.249,LearnStrategy,2023.2.3,Win32,60.24096386,8,1,13,-0.07421875,-0.26171875,1,0,0,0.9473,Diorite_10,3,10,2,4,0.947,0.147135417,-0.240885417,1,0,0,2.2674,Diorite_rect,3,2.267,1,12,0,12,0,1,,,,,,,,,,,,,
65c3ed5a2ce11e90eb7fd7ae,SCN,2024-06-11_12h21.54.249,LearnStrategy,2023.2.3,Win32,60.24096386,8,1,14,-0.225260417,-0.236979167,1,0,0,1.093,Gabbro_10,4,10,2,3,1.093,0.126302083,-0.264322917,1,0,0,4.8915,Diorite_rect,3,4.892,0,13,0,13,0,1,,,,,,,,,,,,,
65c3ed5a2ce11e90eb7fd7ae,SCN,2024-06-11_12h21.54.249,LearnStrategy,2023.2.3,Win32,60.24096386,8,1,15,-0.3671875,-0.263020833,1,0,0,1.9127,Obsidian_08,5,08,2,2,1.913,-0.352864583,-0.411458333,1,0,0,2.3354,Obsidian_rect,5,2.335,1,14,0,14,0,1,,,,,,,,,,,,,
65c3ed5a2ce11e90eb7fd7ae,SCN,2024-06-11_12h21.54.249,LearnStrategy,2023.2.3,Win32,60.24096386,8,1,16,-0.55859375,-0.276041667,1,0,0,2.1806,Basalt_14,2,14,2,1,2.181,-0.09375,-0.248697917,1,0,0,1.7131,Basalt_rect,2,1.713,1,15,0,15,0,1,,,,,,,,,,,,,
65c3ed5a2ce11e90eb7fd7ae,SCN,2024-06-11_12h21.54.249,LearnStrategy,2023.2.3,Win32,60.24096386,8,2,1,,,,,,,,6,15,,,,,,,,,,,6,12.787,1,,,,,,-0.057291667,-0.415364583,1,0,0,12.7874,Pegmatite_rect,0,0,0,0,1,
65c3ed5a2ce11e90eb7fd7ae,SCN,2024-06-11_12h21.54.249,LearnStrategy,2023.2.3,Win32,60.24096386,8,2,2,,,,,,,,4,05,,,,,,,,,,,4,2.047,1,,,,,,0.348958333,-0.255208333,1,0,0,2.0466,Gabbro_rect,1,0,1,0,1,
65c3ed5a2ce11e90eb7fd7ae,SCN,2024-06-11_12h21.54.249,LearnStrategy,2023.2.3,Win32,60.24096386,8,2,3,,,,,,,,1,05,,,,,,,,,,,1,3.969,1,,,,,,-0.4140625,-0.255208333,1,0,0,3.9694,Andesite_rect,2,0,2,0,1,
65c3ed5a2ce11e90eb7fd7ae,SCN,2024-06-11_12h21.54.249,LearnStrategy,2023.2.3,Win32,60.24096386,8,2,4,,,,,,,,7,07,,,,,,,,,,,3,2.353,0,,,,,,0.096354167,-0.234375,1,0,0,2.3529,Diorite_rect,3,0,3,0,1,
65c3ed5a2ce11e90eb7fd7ae,SCN,2024-06-11_12h21.54.249,LearnStrategy,2023.2.3,Win32,60.24096386,8,2,5,,,,,,,,8,06,,,,,,,,,,,8,1.186,1,,,,,,0.446614583,-0.404947917,1,0,0,1.1859,Pumice_rect,4,0,4,0,1,
65c3ed5a2ce11e90eb7fd7ae,SCN,2024-06-11_12h21.54.249,LearnStrategy,2023.2.3,Win32,60.24096386,8,2,6,,,,,,,,6,07,,,,,,,,,,,7,7.903,0,,,,,,0.11328125,-0.408854167,1,0,0,7.9032,Peridotite_rect,5,0,5,0,1,
65c3ed5a2ce11e90eb7fd7ae,SCN,2024-06-11_12h21.54.249,LearnStrategy,2023.2.3,Win32,60.24096386,8,2,7,,,,,,,,5,06,,,,,,,,,,,5,1.653,1,,,,,,-0.372395833,-0.399739583,1,0,0,1.6535,Obsidian_rect,6,0,6,0,1,
65c3ed5a2ce11e90eb7fd7ae,SCN,2024-06-11_12h21.54.249,LearnStrategy,2023.2.3,Win32,60.24096386,8,2,8,,,,,,,,2,16,,,,,,,,,,,2,2.913,1,,,,,,-0.075520833,-0.259114583,1,0,0,2.9127,Basalt_rect,7,0,7,0,1,
65c3ed5a2ce11e90eb7fd7ae,SCN,2024-06-11_12h21.54.249,LearnStrategy,2023.2.3,Win32,60.24096386,8,2,9,,,,,,,,4,13,,,,,,,,,,,3,3.246,0,,,,,,0.11328125,-0.252604167,1,0,0,3.2465,Diorite_rect,8,0,8,0,1,
65c3ed5a2ce11e90eb7fd7ae,SCN,2024-06-11_12h21.54.249,LearnStrategy,2023.2.3,Win32,60.24096386,8,2,10,,,,,,,,3,12,,,,,,,,,,,3,7.689,1,,,,,,0.079427083,-0.23828125,1,0,0,7.6886,Diorite_rect,9,0,9,0,1,
65c3ed5a2ce11e90eb7fd7ae,SCN,2024-06-11_12h21.54.249,LearnStrategy,2023.2.3,Win32,60.24096386,8,2,11,,,,,,,,1,10,,,,,,,,,,,4,3.18,0,,,,,,0.375,-0.25,1,0,0,3.1802,Gabbro_rect,10,0,10,0,1,
65c3ed5a2ce11e90eb7fd7ae,SCN,2024-06-11_12h21.54.249,LearnStrategy,2023.2.3,Win32,60.24096386,8,2,12,,,,,,,,2,11,,,,,,,,,,,2,2.159,1,,,,,,-0.178385417,-0.268229167,1,0,0,2.159,Basalt_rect,11,0,11,0,1,
65c3ed5a2ce11e90eb7fd7ae,SCN,2024-06-11_12h21.54.249,LearnStrategy,2023.2.3,Win32,60.24096386,8,2,13,,,,,,,,8,04,,,,,,,,,,,8,2.074,1,,,,,,0.453125,-0.408854167,1,0,0,2.0736,Pumice_rect,12,0,12,0,1,
65c3ed5a2ce11e90eb7fd7ae,SCN,2024-06-11_12h21.54.249,LearnStrategy,2023.2.3,Win32,60.24096386,8,2,14,,,,,,,,5,12,,,,,,,,,,,5,2.133,1,,,,,,-0.411458333,-0.40234375,1,0,0,2.133,Obsidian_rect,13,0,13,0,1,
65c3ed5a2ce11e90eb7fd7ae,SCN,2024-06-11_12h21.54.249,LearnStrategy,2023.2.3,Win32,60.24096386,8,2,15,,,,,,,,7,10,,,,,,,,,,,3,2.48,0,,,,,,0.141927083,-0.240885417,1,0,0,2.4801,Diorite_rect,14,0,14,0,1,
65c3ed5a2ce11e90eb7fd7ae,SCN,2024-06-11_12h21.54.249,LearnStrategy,2023.2.3,Win32,60.24096386,8,2,16,,,,,,,,3,16,,,,,,,,,,,4,2.317,0,,,,,,0.40234375,-0.264322917,1,0,0,2.3172,Gabbro_rect,15,0,15,0,1,
65c3ed5a2ce11e90eb7fd7ae,SCN,2024-06-11_12h21.54.249,LearnStrategy,2023.2.3,Win32,60.24096386,9,1,1,-0.395833333,0.427083333,1,0,0,10.8776,Basalt_10,2,10,6,2,10.878,-0.141927083,-0.25,1,0,0,4.0457,Basalt_rect,2,4.046,1,0,0,0,0,1,,,,,,,,,,,,,
65c3ed5a2ce11e90eb7fd7ae,SCN,2024-06-11_12h21.54.249,LearnStrategy,2023.2.3,Win32,60.24096386,9,1,2,-0.235677083,0.411458333,1,0,0,1.2066,Gabbro_11,4,11,6,3,1.207,0.463541667,-0.248697917,1,0,0,3.8966,Gabbro_rect,4,3.897,1,1,0,1,0,1,,,,,,,,,,,,,
65c3ed5a2ce11e90eb7fd7ae,SCN,2024-06-11_12h21.54.249,LearnStrategy,2023.2.3,Win32,60.24096386,9,1,3,-0.080729167,0.444010417,1,0,0,0.8121,Obsidian_07,5,07,6,4,0.812,-0.171875,-0.266927083,1,0,0,1.0417,Basalt_rect,2,1.042,0,2,0,2,0,1,,,,,,,,,,,,,
65c3ed5a2ce11e90eb7fd7ae,SCN,2024-06-11_12h21.54.249,LearnStrategy,2023.2.3,Win32,60.24096386,9,1,4,0.098958333,0.4140625,1,0,0,1.3748,Pumice_03,8,03,6,5,1.375,0.37109375,-0.389322917,1,0,0,1.7759,Pumice_rect,8,1.776,1,3,0,3,0,1,,,,,,,,,,,,,
65c3ed5a2ce11e90eb7fd7ae,SCN,2024-06-11_12h21.54.249,LearnStrategy,2023.2.3,Win32,60.24096386,9,1,5,0.2109375,0.404947917,1,0,0,0.9954,Obsidian_09,5,09,6,6,0.995,-0.322916667,-0.3828125,1,0,0,2.1962,Obsidian_rect,5,2.196,1,4,0,4,0,1,,,,,,,,,,,,,
65c3ed5a2ce11e90eb7fd7ae,SCN,2024-06-11_12h21.54.249,LearnStrategy,2023.2.3,Win32,60.24096386,9,1,6,0.390625,0.399739583,1,0,0,1.0233,Obsidian_10,5,10,6,7,1.023,-0.365885417,-0.397135417,1,0,0,1.6673,Obsidian_rect,5,1.667,1,5,0,5,0,1,,,,,,,,,,,,,
65c3ed5a2ce11e90eb7fd7ae,SCN,2024-06-11_12h21.54.249,LearnStrategy,2023.2.3,Win32,60.24096386,9,1,7,0.567708333,0.384114583,1,0,0,1.0972,Gabbro_08,4,08,6,8,1.097,0.45703125,-0.248697917,1,0,0,3.3411,Gabbro_rect,4,3.341,1,6,0,6,0,1,,,,,,,,,,,,,
65c3ed5a2ce11e90eb7fd7ae,SCN,2024-06-11_12h21.54.249,LearnStrategy,2023.2.3,Win32,60.24096386,9,1,8,-0.567708333,0.26953125,1,0,0,1.5993,Pegmatite_08,6,08,5,1,1.599,-0.126302083,-0.404947917,1,0,0,3.7561,Pegmatite_rect,6,3.756,1,7,0,7,0,1,,,,,,,,,,,,,
65c3ed5a2ce11e90eb7fd7ae,SCN,2024-06-11_12h21.54.249,LearnStrategy,2023.2.3,Win32,60.24096386,9,1,9,-0.356770833,0.240885417,1,0,0,1.8618,Pumice_08,8,08,5,2,1.862,0.390625,-0.41796875,1,0,0,4.7434,Pumice_rect,8,4.743,1,8,0,8,0,1,,,,,,,,,,,,,
65c3ed5a2ce11e90eb7fd7ae,SCN,2024-06-11_12h21.54.249,LearnStrategy,2023.2.3,Win32,60.24096386,9,1,10,-0.217447917,0.251302083,1,0,0,1.0624,Obsidian_04,5,04,5,3,1.062,-0.408854167,-0.381510417,1,0,0,0.9293,Obsidian_rect,5,0.929,1,9,0,9,0,1,,,,,,,,,,,,,
65c3ed5a2ce11e90eb7fd7ae,SCN,2024-06-11_12h21.54.249,LearnStrategy,2023.2.3,Win32,60.24096386,9,1,11,-0.049479167,0.256510417,1,0,0,1.4152,Gabbro_16,4,16,5,4,1.415,0.415364583,-0.260416667,1,0,0,1.6295,Gabbro_rect,4,1.63,1,10,0,10,0,1,,,,,,,,,,,,,
65c3ed5a2ce11e90eb7fd7ae,SCN,2024-06-11_12h21.54.249,LearnStrategy,2023.2.3,Win32,60.24096386,9,1,12,0.0546875,0.24609375,1,0,0,4.0764,Pumice_09,8,09,5,5,4.076,0.407552083,-0.41015625,1,0,0,1.089,Pumice_rect,8,1.089,1,11,0,11,0,1,,,,,,,,,,,,,
65c3ed5a2ce11e90eb7fd7ae,SCN,2024-06-11_12h21.54.249,LearnStrategy,2023.2.3,Win32,60.24096386,9,1,13,0.21484375,0.243489583,1,0,0,2.4471,Pumice_13,8,13,5,6,2.447,0.412760417,-0.404947917,1,0,0,1.069,Pumice_rect,8,1.069,1,12,0,12,0,1,,,,,,,,,,,,,
65c3ed5a2ce11e90eb7fd7ae,SCN,2024-06-11_12h21.54.249,LearnStrategy,2023.2.3,Win32,60.24096386,9,1,14,0.391927083,0.23828125,1,0,0,1.4284,Peridotite_06,7,06,5,7,1.428,0.076822917,-0.411458333,1,0,0,3.876,Peridotite_rect,7,3.876,1,13,0,13,0,1,,,,,,,,,,,,,
65c3ed5a2ce11e90eb7fd7ae,SCN,2024-06-11_12h21.54.249,LearnStrategy,2023.2.3,Win32,60.24096386,9,1,15,0.55078125,0.26171875,1,0,0,2.2329,Andesite_11,1,11,5,8,2.233,-0.395833333,-0.264322917,1,0,0,3.3088,Andesite_rect,1,3.309,1,14,0,14,0,1,,,,,,,,,,,,,
65c3ed5a2ce11e90eb7fd7ae,SCN,2024-06-11_12h21.54.249,LearnStrategy,2023.2.3,Win32,60.24096386,9,1,16,-0.5234375,0.083333333,1,0,0,2.2459,Gabbro_15,4,15,4,1,2.246,0.3984375,-0.251302083,1,0,0,2.9354,Gabbro_rect,4,2.935,1,15,0,15,0,1,,,,,,,,,,,,,
65c3ed5a2ce11e90eb7fd7ae,SCN,2024-06-11_12h21.54.249,LearnStrategy,2023.2.3,Win32,60.24096386,9,2,1,,,,,,,,3,11,,,,,,,,,,,4,7.856,0,,,,,,0.427083333,-0.252604167,1,0,0,7.8557,Gabbro_rect,0,0,0,0,1,
65c3ed5a2ce11e90eb7fd7ae,SCN,2024-06-11_12h21.54.249,LearnStrategy,2023.2.3,Win32,60.24096386,9,2,2,,,,,,,,6,10,,,,,,,,,,,6,8.375,1,,,,,,-0.135416667,-0.399739583,1,0,0,8.3753,Pegmatite_rect,1,0,1,0,1,
65c3ed5a2ce11e90eb7fd7ae,SCN,2024-06-11_12h21.54.249,LearnStrategy,2023.2.3,Win32,60.24096386,9,2,3,,,,,,,,4,14,,,,,,,,,,,4,7.737,1,,,,,,0.403645833,-0.235677083,1,0,0,7.7374,Gabbro_rect,2,0,2,0,1,
65c3ed5a2ce11e90eb7fd7ae,SCN,2024-06-11_12h21.54.249,LearnStrategy,2023.2.3,Win32,60.24096386,9,2,4,,,,,,,,6,03,,,,,,,,,,,6,4.86,1,,,,,,-0.1328125,-0.403645833,1,0,0,4.8595,Pegmatite_rect,3,0,3,0,1,
65c3ed5a2ce11e90eb7fd7ae,SCN,2024-06-11_12h21.54.249,LearnStrategy,2023.2.3,Win32,60.24096386,9,2,5,,,,,,,,8,05,,,,,,,,,,,8,1.216,1,,,,,,0.364583333,-0.4140625,1,0,0,1.2163,Pumice_rect,4,0,4,0,1,
65c3ed5a2ce11e90eb7fd7ae,SCN,2024-06-11_12h21.54.249,LearnStrategy,2023.2.3,Win32,60.24096386,9,2,6,,,,,,,,3,06,,,,,,,,,,,1,2.614,0,,,,,,-0.364583333,-0.247395833,1,0,0,2.6143,Andesite_rect,5,0,5,0,1,
65c3ed5a2ce11e90eb7fd7ae,SCN,2024-06-11_12h21.54.249,LearnStrategy,2023.2.3,Win32,60.24096386,9,2,7,,,,,,,,5,11,,,,,,,,,,,5,1.888,1,,,,,,-0.397135417,-0.390625,1,0,0,1.888,Obsidian_rect,6,0,6,0,1,
65c3ed5a2ce11e90eb7fd7ae,SCN,2024-06-11_12h21.54.249,LearnStrategy,2023.2.3,Win32,60.24096386,9,2,8,,,,,,,,7,15,,,,,,,,,,,3,2.316,0,,,,,,0.147135417,-0.251302083,1,0,0,2.3158,Diorite_rect,7,0,7,0,1,
65c3ed5a2ce11e90eb7fd7ae,SCN,2024-06-11_12h21.54.249,LearnStrategy,2023.2.3,Win32,60.24096386,9,2,9,,,,,,,,2,04,,,,,,,,,,,2,1.57,1,,,,,,-0.1015625,-0.2421875,1,0,0,1.5705,Basalt_rect,8,0,8,0,1,
65c3ed5a2ce11e90eb7fd7ae,SCN,2024-06-11_12h21.54.249,LearnStrategy,2023.2.3,Win32,60.24096386,9,2,10,,,,,,,,1,01,,,,,,,,,,,4,1.842,0,,,,,,0.45703125,-0.252604167,1,0,0,1.842,Gabbro_rect,9,0,9,0,1,
65c3ed5a2ce11e90eb7fd7ae,SCN,2024-06-11_12h21.54.249,LearnStrategy,2023.2.3,Win32,60.24096386,9,2,11,,,,,,,,8,14,,,,,,,,,,,8,1.129,1,,,,,,0.385416667,-0.412760417,1,0,0,1.1289,Pumice_rect,10,0,10,0,1,
65c3ed5a2ce11e90eb7fd7ae,SCN,2024-06-11_12h21.54.249,LearnStrategy,2023.2.3,Win32,60.24096386,9,2,12,,,,,,,,1,02,,,,,,,,,,,7,3.235,0,,,,,,0.119791667,-0.403645833,1,0,0,3.2355,Peridotite_rect,11,0,11,0,1,
65c3ed5a2ce11e90eb7fd7ae,SCN,2024-06-11_12h21.54.249,LearnStrategy,2023.2.3,Win32,60.24096386,9,2,13,,,,,,,,5,16,,,,,,,,,,,5,2.177,1,,,,,,-0.4296875,-0.390625,1,0,0,2.1774,Obsidian_rect,12,0,12,0,1,
65c3ed5a2ce11e90eb7fd7ae,SCN,2024-06-11_12h21.54.249,LearnStrategy,2023.2.3,Win32,60.24096386,9,2,14,,,,,,,,7,14,,,,,,,,,,,3,2.057,0,,,,,,0.076822917,-0.251302083,1,0,0,2.0569,Diorite_rect,13,0,13,0,1,
65c3ed5a2ce11e90eb7fd7ae,SCN,2024-06-11_12h21.54.249,LearnStrategy,2023.2.3,Win32,60.24096386,9,2,15,,,,,,,,4,12,,,,,,,,,,,2,1.329,0,,,,,,-0.139322917,-0.263020833,1,0,0,1.3286,Basalt_rect,14,0,14,0,1,
65c3ed5a2ce11e90eb7fd7ae,SCN,2024-06-11_12h21.54.249,LearnStrategy,2023.2.3,Win32,60.24096386,9,2,16,,,,,,,,2,05,,,,,,,,,,,2,1.206,1,,,,,,-0.119791667,-0.255208333,1,0,0,1.2063,Basalt_rect,15,0,15,0,1,
65c3ed5a2ce11e90eb7fd7ae,SCN,2024-06-11_12h21.54.249,LearnStrategy,2023.2.3,Win32,60.24096386,,,,,,,,,,,,,,,,,,,,,,,,,,,,,,,,,,,,,,,,,,,0
65c3ed5a2ce11e90eb7fd7ae,SCN,2024-06-11_12h21.54.249,LearnStrategy,2023.2.3,Win32,60.24096386,,,,,,,,,,,,,,,,,,,,,,,,,,,,,,,,,,,,,,,,,,,
65c3ed5a2ce11e90eb7fd7ae,SCN,2024-06-11_12h21.54.249,LearnStrategy,2023.2.3,Win32,60.24096386,,,,,,,,,,,1,04,1,1,,,,,,,,,,,,,,,,,,,,,,,,,,,,,
65c3ed5a2ce11e90eb7fd7ae,SCN,2024-06-11_12h21.54.249,LearnStrategy,2023.2.3,Win32,60.24096386,,,,,,,,,,,7,13,1,2,,,,,,,,,,,,,,,,,,,,,,,,,,,,,
65c3ed5a2ce11e90eb7fd7ae,SCN,2024-06-11_12h21.54.249,LearnStrategy,2023.2.3,Win32,60.24096386,,,,,,,,,,,6,06,1,3,,,,,,,,,,,,,,,,,,,,,,,,,,,,,
65c3ed5a2ce11e90eb7fd7ae,SCN,2024-06-11_12h21.54.249,LearnStrategy,2023.2.3,Win32,60.24096386,,,,,,,,,,,3,08,1,4,,,,,,,,,,,,,,,,,,,,,,,,,,,,,
65c3ed5a2ce11e90eb7fd7ae,SCN,2024-06-11_12h21.54.249,LearnStrategy,2023.2.3,Win32,60.24096386,,,,,,,,,,,7,02,1,5,,,,,,,,,,,,,,,,,,,,,,,,,,,,,
65c3ed5a2ce11e90eb7fd7ae,SCN,2024-06-11_12h21.54.249,LearnStrategy,2023.2.3,Win32,60.24096386,,,,,,,,,,,2,02,1,6,,,,,,,,,,,,,,,,,,,,,,,,,,,,,
65c3ed5a2ce11e90eb7fd7ae,SCN,2024-06-11_12h21.54.249,LearnStrategy,2023.2.3,Win32,60.24096386,,,,,,,,,,,1,07,1,7,,,,,,,,,,,,,,,,,,,,,,,,,,,,,
65c3ed5a2ce11e90eb7fd7ae,SCN,2024-06-11_12h21.54.249,LearnStrategy,2023.2.3,Win32,60.24096386,,,,,,,,,,,8,02,1,8,,,,,,,,,,,,,,,,,,,,,,,,,,,,,
65c3ed5a2ce11e90eb7fd7ae,SCN,2024-06-11_12h21.54.249,LearnStrategy,2023.2.3,Win32,60.24096386,,,,,,,,,,,2,14,2,1,,,,,,,,,,,,,,,,,,,,,,,,,,,,,
65c3ed5a2ce11e90eb7fd7ae,SCN,2024-06-11_12h21.54.249,LearnStrategy,2023.2.3,Win32,60.24096386,,,,,,,,,,,5,08,2,2,,,,,,,,,,,,,,,,,,,,,,,,,,,,,
65c3ed5a2ce11e90eb7fd7ae,SCN,2024-06-11_12h21.54.249,LearnStrategy,2023.2.3,Win32,60.24096386,,,,,,,,,,,4,10,2,3,,,,,,,,,,,,,,,,,,,,,,,,,,,,,
65c3ed5a2ce11e90eb7fd7ae,SCN,2024-06-11_12h21.54.249,LearnStrategy,2023.2.3,Win32,60.24096386,,,,,,,,,,,3,10,2,4,,,,,,,,,,,,,,,,,,,,,,,,,,,,,
65c3ed5a2ce11e90eb7fd7ae,SCN,2024-06-11_12h21.54.249,LearnStrategy,2023.2.3,Win32,60.24096386,,,,,,,,,,,2,09,2,5,,,,,,,,,,,,,,,,,,,,,,,,,,,,,
65c3ed5a2ce11e90eb7fd7ae,SCN,2024-06-11_12h21.54.249,LearnStrategy,2023.2.3,Win32,60.24096386,,,,,,,,,,,7,08,2,6,,,,,,,,,,,,,,,,,,,,,,,,,,,,,
65c3ed5a2ce11e90eb7fd7ae,SCN,2024-06-11_12h21.54.249,LearnStrategy,2023.2.3,Win32,60.24096386,,,,,,,,,,,3,02,2,7,,,,,,,,,,,,,,,,,,,,,,,,,,,,,
65c3ed5a2ce11e90eb7fd7ae,SCN,2024-06-11_12h21.54.249,LearnStrategy,2023.2.3,Win32,60.24096386,,,,,,,,,,,5,14,2,8,,,,,,,,,,,,,,,,,,,,,,,,,,,,,
65c3ed5a2ce11e90eb7fd7ae,SCN,2024-06-11_12h21.54.249,LearnStrategy,2023.2.3,Win32,60.24096386,,,,,,,,,,,1,09,3,1,,,,,,,,,,,,,,,,,,,,,,,,,,,,,
65c3ed5a2ce11e90eb7fd7ae,SCN,2024-06-11_12h21.54.249,LearnStrategy,2023.2.3,Win32,60.24096386,,,,,,,,,,,3,15,3,2,,,,,,,,,,,,,,,,,,,,,,,,,,,,,
65c3ed5a2ce11e90eb7fd7ae,SCN,2024-06-11_12h21.54.249,LearnStrategy,2023.2.3,Win32,60.24096386,,,,,,,,,,,4,03,3,3,,,,,,,,,,,,,,,,,,,,,,,,,,,,,
65c3ed5a2ce11e90eb7fd7ae,SCN,2024-06-11_12h21.54.249,LearnStrategy,2023.2.3,Win32,60.24096386,,,,,,,,,,,1,06,3,4,,,,,,,,,,,,,,,,,,,,,,,,,,,,,
65c3ed5a2ce11e90eb7fd7ae,SCN,2024-06-11_12h21.54.249,LearnStrategy,2023.2.3,Win32,60.24096386,,,,,,,,,,,8,16,3,5,,,,,,,,,,,,,,,,,,,,,,,,,,,,,
65c3ed5a2ce11e90eb7fd7ae,SCN,2024-06-11_12h21.54.249,LearnStrategy,2023.2.3,Win32,60.24096386,,,,,,,,,,,7,04,3,6,,,,,,,,,,,,,,,,,,,,,,,,,,,,,
65c3ed5a2ce11e90eb7fd7ae,SCN,2024-06-11_12h21.54.249,LearnStrategy,2023.2.3,Win32,60.24096386,,,,,,,,,,,1,16,3,7,,,,,,,,,,,,,,,,,,,,,,,,,,,,,
65c3ed5a2ce11e90eb7fd7ae,SCN,2024-06-11_12h21.54.249,LearnStrategy,2023.2.3,Win32,60.24096386,,,,,,,,,,,3,14,3,8,,,,,,,,,,,,,,,,,,,,,,,,,,,,,
65c3ed5a2ce11e90eb7fd7ae,SCN,2024-06-11_12h21.54.249,LearnStrategy,2023.2.3,Win32,60.24096386,,,,,,,,,,,4,15,4,1,,,,,,,,,,,,,,,,,,,,,,,,,,,,,
65c3ed5a2ce11e90eb7fd7ae,SCN,2024-06-11_12h21.54.249,LearnStrategy,2023.2.3,Win32,60.24096386,,,,,,,,,,,2,01,4,2,,,,,,,,,,,,,,,,,,,,,,,,,,,,,
65c3ed5a2ce11e90eb7fd7ae,SCN,2024-06-11_12h21.54.249,LearnStrategy,2023.2.3,Win32,60.24096386,,,,,,,,,,,2,12,4,3,,,,,,,,,,,,,,,,,,,,,,,,,,,,,
65c3ed5a2ce11e90eb7fd7ae,SCN,2024-06-11_12h21.54.249,LearnStrategy,2023.2.3,Win32,60.24096386,,,,,,,,,,,6,05,4,4,,,,,,,,,,,,,,,,,,,,,,,,,,,,,
65c3ed5a2ce11e90eb7fd7ae,SCN,2024-06-11_12h21.54.249,LearnStrategy,2023.2.3,Win32,60.24096386,,,,,,,,,,,3,13,4,5,,,,,,,,,,,,,,,,,,,,,,,,,,,,,
65c3ed5a2ce11e90eb7fd7ae,SCN,2024-06-11_12h21.54.249,LearnStrategy,2023.2.3,Win32,60.24096386,,,,,,,,,,,6,11,4,6,,,,,,,,,,,,,,,,,,,,,,,,,,,,,
65c3ed5a2ce11e90eb7fd7ae,SCN,2024-06-11_12h21.54.249,LearnStrategy,2023.2.3,Win32,60.24096386,,,,,,,,,,,6,09,4,7,,,,,,,,,,,,,,,,,,,,,,,,,,,,,
65c3ed5a2ce11e90eb7fd7ae,SCN,2024-06-11_12h21.54.249,LearnStrategy,2023.2.3,Win32,60.24096386,,,,,,,,,,,6,16,4,8,,,,,,,,,,,,,,,,,,,,,,,,,,,,,
65c3ed5a2ce11e90eb7fd7ae,SCN,2024-06-11_12h21.54.249,LearnStrategy,2023.2.3,Win32,60.24096386,,,,,,,,,,,6,08,5,1,,,,,,,,,,,,,,,,,,,,,,,,,,,,,
65c3ed5a2ce11e90eb7fd7ae,SCN,2024-06-11_12h21.54.249,LearnStrategy,2023.2.3,Win32,60.24096386,,,,,,,,,,,8,08,5,2,,,,,,,,,,,,,,,,,,,,,,,,,,,,,
65c3ed5a2ce11e90eb7fd7ae,SCN,2024-06-11_12h21.54.249,LearnStrategy,2023.2.3,Win32,60.24096386,,,,,,,,,,,5,04,5,3,,,,,,,,,,,,,,,,,,,,,,,,,,,,,
65c3ed5a2ce11e90eb7fd7ae,SCN,2024-06-11_12h21.54.249,LearnStrategy,2023.2.3,Win32,60.24096386,,,,,,,,,,,4,16,5,4,,,,,,,,,,,,,,,,,,,,,,,,,,,,,
65c3ed5a2ce11e90eb7fd7ae,SCN,2024-06-11_12h21.54.249,LearnStrategy,2023.2.3,Win32,60.24096386,,,,,,,,,,,8,09,5,5,,,,,,,,,,,,,,,,,,,,,,,,,,,,,
65c3ed5a2ce11e90eb7fd7ae,SCN,2024-06-11_12h21.54.249,LearnStrategy,2023.2.3,Win32,60.24096386,,,,,,,,,,,8,13,5,6,,,,,,,,,,,,,,,,,,,,,,,,,,,,,
65c3ed5a2ce11e90eb7fd7ae,SCN,2024-06-11_12h21.54.249,LearnStrategy,2023.2.3,Win32,60.24096386,,,,,,,,,,,7,06,5,7,,,,,,,,,,,,,,,,,,,,,,,,,,,,,
65c3ed5a2ce11e90eb7fd7ae,SCN,2024-06-11_12h21.54.249,LearnStrategy,2023.2.3,Win32,60.24096386,,,,,,,,,,,1,11,5,8,,,,,,,,,,,,,,,,,,,,,,,,,,,,,
65c3ed5a2ce11e90eb7fd7ae,SCN,2024-06-11_12h21.54.249,LearnStrategy,2023.2.3,Win32,60.24096386,,,,,,,,,,,7,16,6,1,,,,,,,,,,,,,,,,,,,,,,,,,,,,,
65c3ed5a2ce11e90eb7fd7ae,SCN,2024-06-11_12h21.54.249,LearnStrategy,2023.2.3,Win32,60.24096386,,,,,,,,,,,2,10,6,2,,,,,,,,,,,,,,,,,,,,,,,,,,,,,
65c3ed5a2ce11e90eb7fd7ae,SCN,2024-06-11_12h21.54.249,LearnStrategy,2023.2.3,Win32,60.24096386,,,,,,,,,,,4,11,6,3,,,,,,,,,,,,,,,,,,,,,,,,,,,,,
65c3ed5a2ce11e90eb7fd7ae,SCN,2024-06-11_12h21.54.249,LearnStrategy,2023.2.3,Win32,60.24096386,,,,,,,,,,,5,07,6,4,,,,,,,,,,,,,,,,,,,,,,,,,,,,,
65c3ed5a2ce11e90eb7fd7ae,SCN,2024-06-11_12h21.54.249,LearnStrategy,2023.2.3,Win32,60.24096386,,,,,,,,,,,8,03,6,5,,,,,,,,,,,,,,,,,,,,,,,,,,,,,
65c3ed5a2ce11e90eb7fd7ae,SCN,2024-06-11_12h21.54.249,LearnStrategy,2023.2.3,Win32,60.24096386,,,,,,,,,,,5,09,6,6,,,,,,,,,,,,,,,,,,,,,,,,,,,,,
65c3ed5a2ce11e90eb7fd7ae,SCN,2024-06-11_12h21.54.249,LearnStrategy,2023.2.3,Win32,60.24096386,,,,,,,,,,,5,10,6,7,,,,,,,,,,,,,,,,,,,,,,,,,,,,,
65c3ed5a2ce11e90eb7fd7ae,SCN,2024-06-11_12h21.54.249,LearnStrategy,2023.2.3,Win32,60.24096386,,,,,,,,,,,4,08,6,8,,,,,,,,,,,,,,,,,,,,,,,,,,,,,