participant,condition,date,expName,psychopyVersion,OS,frameRate,block,phase,trial,learn_mouse_2.x,learn_mouse_2.y,learn_mouse_2.leftButton,learn_mouse_2.midButton,learn_mouse_2.rightButton,learn_mouse_2.time,learn_mouse_2.clicked_name,cat,token,row,col,t_select,cat_mouse_l.x,cat_mouse_l.y,cat_mouse_l.leftButton,cat_mouse_l.midButton,cat_mouse_l.rightButton,cat_mouse_l.time,cat_mouse_l.clicked_name,resp,t_resp,corr,train_trials.thisRepN,train_trials.thisTrialN,train_trials.thisN,train_trials.thisIndex,train_trials.ran,cat_mouse_t.x,cat_mouse_t.y,cat_mouse_t.leftButton,cat_mouse_t.midButton,cat_mouse_t.rightButton,cat_mouse_t.time,cat_mouse_t.clicked_name,test_trials.thisRepN,test_trials.thisTrialN,test_trials.thisN,test_trials.thisIndex,test_trials.ran,Bonus
65c528cadf7003767a4d311f,TCR,2024-06-21_13h51.54.083,LearnStrategy,2023.2.3,Win32,59.88023952,,,,,,,,,,,,,,,,,,,,,,,,,,,,,,,,,,,,,,,,,,,
65c528cadf7003767a4d311f,TCR,2024-06-21_13h51.54.083,LearnStrategy,2023.2.3,Win32,59.88023952,1,1,1,-0.03515625,0.009114583,1,0,0,7.3174,rock_grid_rect_2,5,05,-1,-1,7.317,-0.466145833,-0.390625,1,0,0,74.9154,Obsidian_rect,5,74.915,1,0,0,0,0,1,,,,,,,,,,,,,
65c528cadf7003767a4d311f,TCR,2024-06-21_13h51.54.083,LearnStrategy,2023.2.3,Win32,59.88023952,1,1,2,0.065104167,0.01171875,1,0,0,4.695,rock_grid_rect_2,7,06,-1,-1,4.695,0.455729167,-0.234375,1,0,0,28.853,Gabbro_rect,4,28.853,0,1,0,1,0,1,,,,,,,,,,,,,
65c528cadf7003767a4d311f,TCR,2024-06-21_13h51.54.083,LearnStrategy,2023.2.3,Win32,59.88023952,1,1,3,0.177083333,-0.001302083,1,0,0,13.6456,rock_grid_rect_2,6,09,-1,-1,13.646,-0.177083333,-0.385416667,1,0,0,17.2232,Pegmatite_rect,6,17.223,1,2,0,2,0,1,,,,,,,,,,,,,
65c528cadf7003767a4d311f,TCR,2024-06-21_13h51.54.083,LearnStrategy,2023.2.3,Win32,59.88023952,1,1,4,0.071614583,-0.00390625,1,0,0,1.253,rock_grid_rect_2,3,07,-1,-1,1.253,0.091145833,-0.263020833,1,0,0,1.7728,Diorite_rect,3,1.773,1,3,0,3,0,1,,,,,,,,,,,,,
65c528cadf7003767a4d311f,TCR,2024-06-21_13h51.54.083,LearnStrategy,2023.2.3,Win32,59.88023952,1,1,5,0.05859375,-0.022135417,1,0,0,1.3042,rock_grid_rect_2,8,10,-1,-1,1.304,0.384114583,-0.395833333,1,0,0,2.8529,Pumice_rect,8,2.853,1,4,0,4,0,1,,,,,,,,,,,,,
65c528cadf7003767a4d311f,TCR,2024-06-21_13h51.54.083,LearnStrategy,2023.2.3,Win32,59.88023952,1,1,6,0.071614583,0.001302083,1,0,0,1.0392,rock_grid_rect_2,4,13,-1,-1,1.039,0.368489583,-0.234375,1,0,0,5.0632,Gabbro_rect,4,5.063,1,5,0,5,0,1,,,,,,,,,,,,,
65c528cadf7003767a4d311f,TCR,2024-06-21_13h51.54.083,LearnStrategy,2023.2.3,Win32,59.88023952,1,1,7,0.045572917,-0.0234375,1,0,0,0.7991,rock_grid_rect_2,8,09,-1,-1,0.799,0.434895833,-0.407552083,1,0,0,6.5314,Pumice_rect,8,6.531,1,6,0,6,0,1,,,,,,,,,,,,,
65c528cadf7003767a4d311f,TCR,2024-06-21_13h51.54.083,LearnStrategy,2023.2.3,Win32,59.88023952,1,1,8,0.088541667,0.002604167,1,0,0,1.4494,rock_grid_rect_2,3,08,-1,-1,1.449,0.061197917,-0.388020833,1,0,0,16.2613,Peridotite_rect,7,16.261,0,7,0,7,0,1,,,,,,,,,,,,,
65c528cadf7003767a4d311f,TCR,2024-06-21_13h51.54.083,LearnStrategy,2023.2.3,Win32,59.88023952,1,1,9,0.0703125,-0.002604167,1,0,0,1.1522,rock_grid_rect_2,4,15,-1,-1,1.152,0.407552083,-0.239583333,1,0,0,6.7301,Gabbro_rect,4,6.73,1,8,0,8,0,1,,,,,,,,,,,,,
65c528cadf7003767a4d311f,TCR,2024-06-21_13h51.54.083,LearnStrategy,2023.2.3,Win32,59.88023952,1,1,10,0.106770833,0.010416667,1,0,0,0.9459,rock_grid_rect_2,6,13,-1,-1,0.946,-0.083333333,-0.3828125,1,0,0,6.0108,Pegmatite_rect,6,6.011,1,9,0,9,0,1,,,,,,,,,,,,,
65c528cadf7003767a4d311f,TCR,2024-06-21_13h51.54.083,LearnStrategy,2023.2.3,Win32,59.88023952,1,1,11,0.071614583,-0.024739583,1,0,0,0.8339,rock_grid_rect_2,2,02,-1,-1,0.834,-0.092447917,-0.23828125,1,0,0,5.979,Basalt_rect,2,5.979,1,10,0,10,0,1,,,,,,,,,,,,,
65c528cadf7003767a4d311f,TCR,2024-06-21_13h51.54.083,LearnStrategy,2023.2.3,Win32,59.88023952,1,1,12,0.075520833,0.013020833,1,0,0,1.0043,rock_grid_rect_2,1,09,-1,-1,1.004,-0.10546875,-0.264322917,1,0,0,1.6455,Basalt_rect,2,1.646,0,11,0,11,0,1,,,,,,,,,,,,,
65c528cadf7003767a4d311f,TCR,2024-06-21_13h51.54.083,LearnStrategy,2023.2.3,Win32,59.88023952,1,1,13,0.0625,-0.0078125,1,0,0,0.9707,rock_grid_rect_2,1,04,-1,-1,0.971,0.110677083,-0.384114583,1,0,0,4.2286,Peridotite_rect,7,4.229,0,12,0,12,0,1,,,,,,,,,,,,,
65c528cadf7003767a4d311f,TCR,2024-06-21_13h51.54.083,LearnStrategy,2023.2.3,Win32,59.88023952,1,1,14,0.092447917,-0.002604167,1,0,0,0.7848,rock_grid_rect_2,2,16,-1,-1,0.785,0.1328125,-0.395833333,1,0,0,6.9867,Peridotite_rect,7,6.987,0,13,0,13,0,1,,,,,,,,,,,,,
65c528cadf7003767a4d311f,TCR,2024-06-21_13h51.54.083,LearnStrategy,2023.2.3,Win32,59.88023952,1,1,15,0.078125,-0.00390625,1,0,0,1.2356,rock_grid_rect_2,5,16,-1,-1,1.236,-0.369791667,-0.408854167,1,0,0,4.1425,Obsidian_rect,5,4.143,1,14,0,14,0,1,,,,,,,,,,,,,
65c528cadf7003767a4d311f,TCR,2024-06-21_13h51.54.083,LearnStrategy,2023.2.3,Win32,59.88023952,1,1,16,0.0234375,0.024739583,1,0,0,0.7036,rock_grid_rect_2,7,08,-1,-1,0.704,0.16796875,-0.401041667,1,0,0,17.3825,Peridotite_rect,7,17.383,1,15,0,15,0,1,,,,,,,,,,,,,
65c528cadf7003767a4d311f,TCR,2024-06-21_13h51.54.083,LearnStrategy,2023.2.3,Win32,59.88023952,1,2,1,,,,,,,,4,10,,,,,,,,,,,4,19.69,1,,,,,,0.408854167,-0.26953125,1,0,0,19.6903,Gabbro_rect,0,0,0,0,1,
65c528cadf7003767a4d311f,TCR,2024-06-21_13h51.54.083,LearnStrategy,2023.2.3,Win32,59.88023952,1,2,2,,,,,,,,8,15,,,,,,,,,,,8,4.976,1,,,,,,0.384114583,-0.388020833,1,0,0,4.9755,Pumice_rect,1,0,1,0,1,
65c528cadf7003767a4d311f,TCR,2024-06-21_13h51.54.083,LearnStrategy,2023.2.3,Win32,59.88023952,1,2,3,,,,,,,,6,10,,,,,,,,,,,6,4.636,1,,,,,,-0.1015625,-0.39453125,1,0,0,4.6358,Pegmatite_rect,2,0,2,0,1,
65c528cadf7003767a4d311f,TCR,2024-06-21_13h51.54.083,LearnStrategy,2023.2.3,Win32,59.88023952,1,2,4,,,,,,,,5,09,,,,,,,,,,,5,1.706,1,,,,,,-0.388020833,-0.411458333,1,0,0,1.7058,Obsidian_rect,3,0,3,0,1,
65c528cadf7003767a4d311f,TCR,2024-06-21_13h51.54.083,LearnStrategy,2023.2.3,Win32,59.88023952,1,2,5,,,,,,,,8,02,,,,,,,,,,,8,2.289,1,,,,,,0.397135417,-0.3984375,1,0,0,2.2887,Pumice_rect,4,0,4,0,1,
65c528cadf7003767a4d311f,TCR,2024-06-21_13h51.54.083,LearnStrategy,2023.2.3,Win32,59.88023952,1,2,6,,,,,,,,1,02,,,,,,,,,,,3,3.872,0,,,,,,0.119791667,-0.2578125,1,0,0,3.8716,Diorite_rect,5,0,5,0,1,
65c528cadf7003767a4d311f,TCR,2024-06-21_13h51.54.083,LearnStrategy,2023.2.3,Win32,59.88023952,1,2,7,,,,,,,,5,08,,,,,,,,,,,5,1.267,1,,,,,,-0.4609375,-0.40625,1,0,0,1.2667,Obsidian_rect,6,0,6,0,1,
65c528cadf7003767a4d311f,TCR,2024-06-21_13h51.54.083,LearnStrategy,2023.2.3,Win32,59.88023952,1,2,8,,,,,,,,6,03,,,,,,,,,,,6,4.226,1,,,,,,-0.0625,-0.3828125,1,0,0,4.2263,Pegmatite_rect,7,0,7,0,1,
65c528cadf7003767a4d311f,TCR,2024-06-21_13h51.54.083,LearnStrategy,2023.2.3,Win32,59.88023952,1,2,9,,,,,,,,1,01,,,,,,,,,,,1,19.075,1,,,,,,-0.4453125,-0.236979167,1,0,0,19.0747,Andesite_rect,8,0,8,0,1,
65c528cadf7003767a4d311f,TCR,2024-06-21_13h51.54.083,LearnStrategy,2023.2.3,Win32,59.88023952,1,2,10,,,,,,,,7,16,,,,,,,,,,,7,9.509,1,,,,,,0.158854167,-0.4140625,1,0,0,9.5091,Peridotite_rect,9,0,9,0,1,
65c528cadf7003767a4d311f,TCR,2024-06-21_13h51.54.083,LearnStrategy,2023.2.3,Win32,59.88023952,1,2,11,,,,,,,,7,10,,,,,,,,,,,7,2.085,1,,,,,,0.149739583,-0.415364583,1,0,0,2.0847,Peridotite_rect,10,0,10,0,1,
65c528cadf7003767a4d311f,TCR,2024-06-21_13h51.54.083,LearnStrategy,2023.2.3,Win32,59.88023952,1,2,12,,,,,,,,3,11,,,,,,,,,,,3,26.536,1,,,,,,0.104166667,-0.240885417,1,0,0,26.536,Diorite_rect,11,0,11,0,1,
65c528cadf7003767a4d311f,TCR,2024-06-21_13h51.54.083,LearnStrategy,2023.2.3,Win32,59.88023952,1,2,13,,,,,,,,3,09,,,,,,,,,,,3,3.189,1,,,,,,0.104166667,-0.240885417,1,0,0,3.1889,Diorite_rect,12,0,12,0,1,
65c528cadf7003767a4d311f,TCR,2024-06-21_13h51.54.083,LearnStrategy,2023.2.3,Win32,59.88023952,1,2,14,,,,,,,,4,09,,,,,,,,,,,1,13.136,0,,,,,,-0.348958333,-0.236979167,1,0,0,13.1363,Andesite_rect,13,0,13,0,1,
65c528cadf7003767a4d311f,TCR,2024-06-21_13h51.54.083,LearnStrategy,2023.2.3,Win32,59.88023952,1,2,15,,,,,,,,2,12,,,,,,,,,,,8,4.274,0,,,,,,0.416666667,-0.408854167,1,0,0,4.2736,Pumice_rect,14,0,14,0,1,
65c528cadf7003767a4d311f,TCR,2024-06-21_13h51.54.083,LearnStrategy,2023.2.3,Win32,59.88023952,1,2,16,,,,,,,,2,14,,,,,,,,,,,8,5.48,0,,,,,,0.358072917,-0.388020833,1,0,0,5.4797,Pumice_rect,15,0,15,0,1,
65c528cadf7003767a4d311f,TCR,2024-06-21_13h51.54.083,LearnStrategy,2023.2.3,Win32,59.88023952,2,1,1,0.040364583,0,1,0,0,3.6557,rock_grid_rect_2,4,08,-1,-1,3.656,-0.450520833,-0.248697917,1,0,0,24.2848,Andesite_rect,1,24.285,0,0,0,0,0,1,,,,,,,,,,,,,
65c528cadf7003767a4d311f,TCR,2024-06-21_13h51.54.083,LearnStrategy,2023.2.3,Win32,59.88023952,2,1,2,0.111979167,0.006510417,1,0,0,0.9859,rock_grid_rect_2,8,08,-1,-1,0.986,0.350260417,-0.384114583,1,0,0,6.9468,Pumice_rect,8,6.947,1,1,0,1,0,1,,,,,,,,,,,,,
65c528cadf7003767a4d311f,TCR,2024-06-21_13h51.54.083,LearnStrategy,2023.2.3,Win32,59.88023952,2,1,3,0.041666667,-0.0234375,1,0,0,1.0828,rock_grid_rect_2,1,07,-1,-1,1.083,0.09375,-0.25390625,1,0,0,2.9575,Diorite_rect,3,2.957,0,2,0,2,0,1,,,,,,,,,,,,,
65c528cadf7003767a4d311f,TCR,2024-06-21_13h51.54.083,LearnStrategy,2023.2.3,Win32,59.88023952,2,1,4,0.079427083,0.0234375,1,0,0,0.8028,rock_grid_rect_2,2,06,-1,-1,0.803,-0.110677083,-0.248697917,1,0,0,3.1099,Basalt_rect,2,3.11,1,3,0,3,0,1,,,,,,,,,,,,,
65c528cadf7003767a4d311f,TCR,2024-06-21_13h51.54.083,LearnStrategy,2023.2.3,Win32,59.88023952,2,1,5,0.0078125,0.002604167,1,0,0,1.1982,rock_grid_rect_2,4,15,-1,-1,1.198,0.440104167,-0.23828125,1,0,0,5.6214,Gabbro_rect,4,5.621,1,4,0,4,0,1,,,,,,,,,,,,,
65c528cadf7003767a4d311f,TCR,2024-06-21_13h51.54.083,LearnStrategy,2023.2.3,Win32,59.88023952,2,1,6,0.0625,-0.016927083,1,0,0,1.5459,rock_grid_rect_2,6,11,-1,-1,1.546,-0.373697917,-0.408854167,1,0,0,6.546,Obsidian_rect,5,6.546,0,5,0,5,0,1,,,,,,,,,,,,,
65c528cadf7003767a4d311f,TCR,2024-06-21_13h51.54.083,LearnStrategy,2023.2.3,Win32,59.88023952,2,1,7,0.12109375,-0.001302083,1,0,0,4.3649,rock_grid_rect_2,2,02,-1,-1,4.365,-0.108072917,-0.240885417,1,0,0,1.2256,Basalt_rect,2,1.226,1,6,0,6,0,1,,,,,,,,,,,,,
65c528cadf7003767a4d311f,TCR,2024-06-21_13h51.54.083,LearnStrategy,2023.2.3,Win32,59.88023952,2,1,8,0.123697917,-0.002604167,1,0,0,1.1973,rock_grid_rect_2,2,16,-1,-1,1.197,-0.087239583,-0.252604167,1,0,0,1.1577,Basalt_rect,2,1.158,1,7,0,7,0,1,,,,,,,,,,,,,
65c528cadf7003767a4d311f,TCR,2024-06-21_13h51.54.083,LearnStrategy,2023.2.3,Win32,59.88023952,2,1,9,0.057291667,-0.018229167,1,0,0,1.0811,rock_grid_rect_2,4,11,-1,-1,1.081,0.446614583,-0.256510417,1,0,0,11.0989,Gabbro_rect,4,11.099,1,8,0,8,0,1,,,,,,,,,,,,,
65c528cadf7003767a4d311f,TCR,2024-06-21_13h51.54.083,LearnStrategy,2023.2.3,Win32,59.88023952,2,1,10,0.15234375,0.0078125,1,0,0,4.485,rock_grid_rect_2,1,05,-1,-1,4.485,-0.384114583,-0.2421875,1,0,0,4.6038,Andesite_rect,1,4.604,1,9,0,9,0,1,,,,,,,,,,,,,
65c528cadf7003767a4d311f,TCR,2024-06-21_13h51.54.083,LearnStrategy,2023.2.3,Win32,59.88023952,2,1,11,0.083333333,0.013020833,1,0,0,0.8637,rock_grid_rect_2,3,12,-1,-1,0.864,0.119791667,-0.256510417,1,0,0,7.8973,Diorite_rect,3,7.897,1,10,0,10,0,1,,,,,,,,,,,,,
65c528cadf7003767a4d311f,TCR,2024-06-21_13h51.54.083,LearnStrategy,2023.2.3,Win32,59.88023952,2,1,12,0.098958333,-0.005208333,1,0,0,0.8287,rock_grid_rect_2,7,14,-1,-1,0.829,-0.071614583,-0.40234375,1,0,0,4.3597,Pegmatite_rect,6,4.36,0,11,0,11,0,1,,,,,,,,,,,,,
65c528cadf7003767a4d311f,TCR,2024-06-21_13h51.54.083,LearnStrategy,2023.2.3,Win32,59.88023952,2,1,13,0.114583333,0.00390625,1,0,0,0.8522,rock_grid_rect_2,2,01,-1,-1,0.852,-0.126302083,-0.240885417,1,0,0,1.0361,Basalt_rect,2,1.036,1,12,0,12,0,1,,,,,,,,,,,,,
65c528cadf7003767a4d311f,TCR,2024-06-21_13h51.54.083,LearnStrategy,2023.2.3,Win32,59.88023952,2,1,14,0.100260417,0.009114583,1,0,0,0.9146,rock_grid_rect_2,1,04,-1,-1,0.915,-0.350260417,-0.240885417,1,0,0,5.7629,Andesite_rect,1,5.763,1,13,0,13,0,1,,,,,,,,,,,,,
65c528cadf7003767a4d311f,TCR,2024-06-21_13h51.54.083,LearnStrategy,2023.2.3,Win32,59.88023952,2,1,15,0.145833333,0,1,0,0,1.23,rock_grid_rect_2,5,16,-1,-1,1.23,-0.352864583,-0.408854167,1,0,0,1.5169,Obsidian_rect,5,1.517,1,14,0,14,0,1,,,,,,,,,,,,,
65c528cadf7003767a4d311f,TCR,2024-06-21_13h51.54.083,LearnStrategy,2023.2.3,Win32,59.88023952,2,1,16,0.069010417,0.005208333,1,0,0,0.9969,rock_grid_rect_2,2,16,-1,-1,0.997,-0.0625,-0.266927083,1,0,0,2.1486,Basalt_rect,2,2.149,1,15,0,15,0,1,,,,,,,,,,,,,
65c528cadf7003767a4d311f,TCR,2024-06-21_13h51.54.083,LearnStrategy,2023.2.3,Win32,59.88023952,2,2,1,,,,,,,,3,16,,,,,,,,,,,3,6.058,1,,,,,,0.130208333,-0.256510417,1,0,0,6.0576,Diorite_rect,0,0,0,0,1,
65c528cadf7003767a4d311f,TCR,2024-06-21_13h51.54.083,LearnStrategy,2023.2.3,Win32,59.88023952,2,2,2,,,,,,,,1,06,,,,,,,,,,,1,3.265,1,,,,,,-0.4609375,-0.259114583,1,0,0,3.265,Andesite_rect,1,0,1,0,1,
65c528cadf7003767a4d311f,TCR,2024-06-21_13h51.54.083,LearnStrategy,2023.2.3,Win32,59.88023952,2,2,3,,,,,,,,4,01,,,,,,,,,,,4,21.432,1,,,,,,0.37109375,-0.23828125,1,0,0,21.4319,Gabbro_rect,2,0,2,0,1,
65c528cadf7003767a4d311f,TCR,2024-06-21_13h51.54.083,LearnStrategy,2023.2.3,Win32,59.88023952,2,2,4,,,,,,,,6,12,,,,,,,,,,,3,14.751,0,,,,,,0.118489583,-0.265625,1,0,0,14.7514,Diorite_rect,3,0,3,0,1,
65c528cadf7003767a4d311f,TCR,2024-06-21_13h51.54.083,LearnStrategy,2023.2.3,Win32,59.88023952,2,2,5,,,,,,,,7,12,,,,,,,,,,,7,5.425,1,,,,,,0.095052083,-0.408854167,1,0,0,5.425,Peridotite_rect,4,0,4,0,1,
65c528cadf7003767a4d311f,TCR,2024-06-21_13h51.54.083,LearnStrategy,2023.2.3,Win32,59.88023952,2,2,6,,,,,,,,7,07,,,,,,,,,,,7,0.832,1,,,,,,0.095052083,-0.408854167,1,0,0,0.8315,Peridotite_rect,5,0,5,0,1,
65c528cadf7003767a4d311f,TCR,2024-06-21_13h51.54.083,LearnStrategy,2023.2.3,Win32,59.88023952,2,2,7,,,,,,,,2,05,,,,,,,,,,,2,1.277,1,,,,,,-0.09765625,-0.256510417,1,0,0,1.2774,Basalt_rect,6,0,6,0,1,
65c528cadf7003767a4d311f,TCR,2024-06-21_13h51.54.083,LearnStrategy,2023.2.3,Win32,59.88023952,2,2,8,,,,,,,,5,04,,,,,,,,,,,5,1.171,1,,,,,,-0.388020833,-0.40234375,1,0,0,1.1713,Obsidian_rect,7,0,7,0,1,
65c528cadf7003767a4d311f,TCR,2024-06-21_13h51.54.083,LearnStrategy,2023.2.3,Win32,59.88023952,2,2,9,,,,,,,,8,14,,,,,,,,,,,8,1.609,1,,,,,,0.39453125,-0.39453125,1,0,0,1.6089,Pumice_rect,8,0,8,0,1,
65c528cadf7003767a4d311f,TCR,2024-06-21_13h51.54.083,LearnStrategy,2023.2.3,Win32,59.88023952,2,2,10,,,,,,,,1,10,,,,,,,,,,,4,7.061,0,,,,,,0.37109375,-0.239583333,1,0,0,7.0608,Gabbro_rect,9,0,9,0,1,
65c528cadf7003767a4d311f,TCR,2024-06-21_13h51.54.083,LearnStrategy,2023.2.3,Win32,59.88023952,2,2,11,,,,,,,,8,05,,,,,,,,,,,8,1.07,1,,,,,,0.34375,-0.41796875,1,0,0,1.0701,Pumice_rect,10,0,10,0,1,
65c528cadf7003767a4d311f,TCR,2024-06-21_13h51.54.083,LearnStrategy,2023.2.3,Win32,59.88023952,2,2,12,,,,,,,,5,07,,,,,,,,,,,5,39.276,1,,,,,,-0.373697917,-0.404947917,1,0,0,39.2762,Obsidian_rect,11,0,11,0,1,
65c528cadf7003767a4d311f,TCR,2024-06-21_13h51.54.083,LearnStrategy,2023.2.3,Win32,59.88023952,2,2,13,,,,,,,,4,16,,,,,,,,,,,4,5.285,1,,,,,,0.384114583,-0.248697917,1,0,0,5.2846,Gabbro_rect,12,0,12,0,1,
65c528cadf7003767a4d311f,TCR,2024-06-21_13h51.54.083,LearnStrategy,2023.2.3,Win32,59.88023952,2,2,14,,,,,,,,6,06,,,,,,,,,,,3,32.011,0,,,,,,0.1484375,-0.25390625,1,0,0,32.0112,Diorite_rect,13,0,13,0,1,
65c528cadf7003767a4d311f,TCR,2024-06-21_13h51.54.083,LearnStrategy,2023.2.3,Win32,59.88023952,2,2,15,,,,,,,,2,10,,,,,,,,,,,2,1.469,1,,,,,,-0.0859375,-0.2421875,1,0,0,1.469,Basalt_rect,14,0,14,0,1,
65c528cadf7003767a4d311f,TCR,2024-06-21_13h51.54.083,LearnStrategy,2023.2.3,Win32,59.88023952,2,2,16,,,,,,,,3,06,,,,,,,,,,,3,1.076,1,,,,,,0.154947917,-0.265625,1,0,0,1.0764,Diorite_rect,15,0,15,0,1,
65c528cadf7003767a4d311f,TCR,2024-06-21_13h51.54.083,LearnStrategy,2023.2.3,Win32,59.88023952,3,1,1,-0.028645833,0.01171875,1,0,0,1.698,rock_grid_rect_2,6,07,-1,-1,1.698,-0.04296875,-0.391927083,1,0,0,8.3347,Pegmatite_rect,6,8.335,1,0,0,0,0,1,,,,,,,,,,,,,
65c528cadf7003767a4d311f,TCR,2024-06-21_13h51.54.083,LearnStrategy,2023.2.3,Win32,59.88023952,3,1,2,0.1015625,0.020833333,1,0,0,1.345,rock_grid_rect_2,8,10,-1,-1,1.345,0.404947917,-0.41015625,1,0,0,1.3106,Pumice_rect,8,1.311,1,1,0,1,0,1,,,,,,,,,,,,,
65c528cadf7003767a4d311f,TCR,2024-06-21_13h51.54.083,LearnStrategy,2023.2.3,Win32,59.88023952,3,1,3,0.17578125,0.005208333,1,0,0,1.4165,rock_grid_rect_2,2,16,-1,-1,1.417,-0.106770833,-0.26171875,1,0,0,0.9618,Basalt_rect,2,0.962,1,2,0,2,0,1,,,,,,,,,,,,,
65c528cadf7003767a4d311f,TCR,2024-06-21_13h51.54.083,LearnStrategy,2023.2.3,Win32,59.88023952,3,1,4,0.059895833,-0.006510417,1,0,0,1.0814,rock_grid_rect_2,6,05,-1,-1,1.081,0.1171875,-0.234375,1,0,0,2.0122,Diorite_rect,3,2.012,0,3,0,3,0,1,,,,,,,,,,,,,
65c528cadf7003767a4d311f,TCR,2024-06-21_13h51.54.083,LearnStrategy,2023.2.3,Win32,59.88023952,3,1,5,0.072916667,-0.001302083,1,0,0,0.9712,rock_grid_rect_2,5,16,-1,-1,0.971,-0.342447917,-0.39453125,1,0,0,1.2486,Obsidian_rect,5,1.249,1,4,0,4,0,1,,,,,,,,,,,,,
65c528cadf7003767a4d311f,TCR,2024-06-21_13h51.54.083,LearnStrategy,2023.2.3,Win32,59.88023952,3,1,6,0.045572917,-0.001302083,1,0,0,0.8466,rock_grid_rect_2,2,06,-1,-1,0.847,-0.108072917,-0.244791667,1,0,0,0.9703,Basalt_rect,2,0.97,1,5,0,5,0,1,,,,,,,,,,,,,
65c528cadf7003767a4d311f,TCR,2024-06-21_13h51.54.083,LearnStrategy,2023.2.3,Win32,59.88023952,3,1,7,0.041666667,-0.01953125,1,0,0,0.9476,rock_grid_rect_2,4,08,-1,-1,0.948,0.346354167,-0.235677083,1,0,0,2.8068,Gabbro_rect,4,2.807,1,6,0,6,0,1,,,,,,,,,,,,,
65c528cadf7003767a4d311f,TCR,2024-06-21_13h51.54.083,LearnStrategy,2023.2.3,Win32,59.88023952,3,1,8,0.067708333,-0.001302083,1,0,0,0.9804,rock_grid_rect_2,1,05,-1,-1,0.98,-0.377604167,-0.25,1,0,0,1.8967,Andesite_rect,1,1.897,1,7,0,7,0,1,,,,,,,,,,,,,
65c528cadf7003767a4d311f,TCR,2024-06-21_13h51.54.083,LearnStrategy,2023.2.3,Win32,59.88023952,3,1,9,0.053385417,0.010416667,1,0,0,0.8474,rock_grid_rect_2,4,03,-1,-1,0.847,0.419270833,-0.243489583,1,0,0,1.5473,Gabbro_rect,4,1.547,1,8,0,8,0,1,,,,,,,,,,,,,
65c528cadf7003767a4d311f,TCR,2024-06-21_13h51.54.083,LearnStrategy,2023.2.3,Win32,59.88023952,3,1,10,0.069010417,0.009114583,1,0,0,0.6641,rock_grid_rect_2,1,07,-1,-1,0.664,-0.364583333,-0.263020833,1,0,0,0.9058,Andesite_rect,1,0.906,1,9,0,9,0,1,,,,,,,,,,,,,
65c528cadf7003767a4d311f,TCR,2024-06-21_13h51.54.083,LearnStrategy,2023.2.3,Win32,59.88023952,3,1,11,0.11328125,0.022135417,1,0,0,0.8156,rock_grid_rect_2,1,16,-1,-1,0.816,-0.33203125,-0.25,1,0,0,1.1617,Andesite_rect,1,1.162,1,10,0,10,0,1,,,,,,,,,,,,,
65c528cadf7003767a4d311f,TCR,2024-06-21_13h51.54.083,LearnStrategy,2023.2.3,Win32,59.88023952,3,1,12,0.028645833,-0.01171875,1,0,0,0.6313,rock_grid_rect_2,2,16,-1,-1,0.631,-0.096354167,-0.270833333,1,0,0,2.8678,Basalt_rect,2,2.868,1,11,0,11,0,1,,,,,,,,,,,,,
65c528cadf7003767a4d311f,TCR,2024-06-21_13h51.54.083,LearnStrategy,2023.2.3,Win32,59.88023952,3,1,13,0.032552083,-0.0078125,1,0,0,1.0138,rock_grid_rect_2,7,08,-1,-1,1.014,0.108072917,-0.419270833,1,0,0,6.2317,Peridotite_rect,7,6.232,1,12,0,12,0,1,,,,,,,,,,,,,
65c528cadf7003767a4d311f,TCR,2024-06-21_13h51.54.083,LearnStrategy,2023.2.3,Win32,59.88023952,3,1,14,0.114583333,0.024739583,1,0,0,1.163,rock_grid_rect_2,3,12,-1,-1,1.163,-0.078125,-0.40234375,1,0,0,8.5993,Pegmatite_rect,6,8.599,0,13,0,13,0,1,,,,,,,,,,,,,
65c528cadf7003767a4d311f,TCR,2024-06-21_13h51.54.083,LearnStrategy,2023.2.3,Win32,59.88023952,3,1,15,0.096354167,-0.020833333,1,0,0,1.0842,rock_grid_rect_2,6,11,-1,-1,1.084,-0.134114583,-0.4140625,1,0,0,6.8083,Pegmatite_rect,6,6.808,1,14,0,14,0,1,,,,,,,,,,,,,
65c528cadf7003767a4d311f,TCR,2024-06-21_13h51.54.083,LearnStrategy,2023.2.3,Win32,59.88023952,3,1,16,0.029947917,-0.013020833,1,0,0,0.8617,rock_grid_rect_2,6,07,-1,-1,0.862,-0.088541667,-0.411458333,1,0,0,1.0192,Pegmatite_rect,6,1.019,1,15,0,15,0,1,,,,,,,,,,,,,
65c528cadf7003767a4d311f,TCR,2024-06-21_13h51.54.083,LearnStrategy,2023.2.3,Win32,59.88023952,3,2,1,,,,,,,,4,14,,,,,,,,,,,4,1.881,1,,,,,,0.305989583,-0.239583333,1,0,0,1.8808,Gabbro_rect,0,0,0,0,1,
65c528cadf7003767a4d311f,TCR,2024-06-21_13h51.54.083,LearnStrategy,2023.2.3,Win32,59.88023952,3,2,2,,,,,,,,6,08,,,,,,,,,,,6,1.166,1,,,,,,-0.091145833,-0.38671875,1,0,0,1.166,Pegmatite_rect,1,0,1,0,1,
65c528cadf7003767a4d311f,TCR,2024-06-21_13h51.54.083,LearnStrategy,2023.2.3,Win32,59.88023952,3,2,3,,,,,,,,6,15,,,,,,,,,,,6,2.622,1,,,,,,-0.087239583,-0.384114583,1,0,0,2.6223,Pegmatite_rect,2,0,2,0,1,
65c528cadf7003767a4d311f,TCR,2024-06-21_13h51.54.083,LearnStrategy,2023.2.3,Win32,59.88023952,3,2,4,,,,,,,,2,04,,,,,,,,,,,2,0.958,1,,,,,,-0.09765625,-0.263020833,1,0,0,0.9584,Basalt_rect,3,0,3,0,1,
65c528cadf7003767a4d311f,TCR,2024-06-21_13h51.54.083,LearnStrategy,2023.2.3,Win32,59.88023952,3,2,5,,,,,,,,3,02,,,,,,,,,,,3,4.494,1,,,,,,0.177083333,-0.247395833,1,0,0,4.4935,Diorite_rect,4,0,4,0,1,
65c528cadf7003767a4d311f,TCR,2024-06-21_13h51.54.083,LearnStrategy,2023.2.3,Win32,59.88023952,3,2,6,,,,,,,,7,05,,,,,,,,,,,7,1.651,1,,,,,,0.122395833,-0.385416667,1,0,0,1.651,Peridotite_rect,5,0,5,0,1,
65c528cadf7003767a4d311f,TCR,2024-06-21_13h51.54.083,LearnStrategy,2023.2.3,Win32,59.88023952,3,2,7,,,,,,,,8,04,,,,,,,,,,,8,0.934,1,,,,,,0.321614583,-0.412760417,1,0,0,0.9339,Pumice_rect,6,0,6,0,1,
65c528cadf7003767a4d311f,TCR,2024-06-21_13h51.54.083,LearnStrategy,2023.2.3,Win32,59.88023952,3,2,8,,,,,,,,2,09,,,,,,,,,,,2,0.909,1,,,,,,-0.135416667,-0.240885417,1,0,0,0.9086,Basalt_rect,7,0,7,0,1,
65c528cadf7003767a4d311f,TCR,2024-06-21_13h51.54.083,LearnStrategy,2023.2.3,Win32,59.88023952,3,2,9,,,,,,,,1,14,,,,,,,,,,,1,6.094,1,,,,,,-0.415364583,-0.25390625,1,0,0,6.094,Andesite_rect,8,0,8,0,1,
65c528cadf7003767a4d311f,TCR,2024-06-21_13h51.54.083,LearnStrategy,2023.2.3,Win32,59.88023952,3,2,10,,,,,,,,8,16,,,,,,,,,,,8,1.246,1,,,,,,0.360677083,-0.408854167,1,0,0,1.2463,Pumice_rect,9,0,9,0,1,
65c528cadf7003767a4d311f,TCR,2024-06-21_13h51.54.083,LearnStrategy,2023.2.3,Win32,59.88023952,3,2,11,,,,,,,,4,12,,,,,,,,,,,4,1.65,1,,,,,,0.36328125,-0.244791667,1,0,0,1.6505,Gabbro_rect,10,0,10,0,1,
65c528cadf7003767a4d311f,TCR,2024-06-21_13h51.54.083,LearnStrategy,2023.2.3,Win32,59.88023952,3,2,12,,,,,,,,5,12,,,,,,,,,,,5,1.065,1,,,,,,-0.345052083,-0.397135417,1,0,0,1.0648,Obsidian_rect,11,0,11,0,1,
65c528cadf7003767a4d311f,TCR,2024-06-21_13h51.54.083,LearnStrategy,2023.2.3,Win32,59.88023952,3,2,13,,,,,,,,1,03,,,,,,,,,,,1,5.2,1,,,,,,-0.377604167,-0.252604167,1,0,0,5.1997,Andesite_rect,12,0,12,0,1,
65c528cadf7003767a4d311f,TCR,2024-06-21_13h51.54.083,LearnStrategy,2023.2.3,Win32,59.88023952,3,2,14,,,,,,,,5,11,,,,,,,,,,,5,0.787,1,,,,,,-0.393229167,-0.38671875,1,0,0,0.7871,Obsidian_rect,13,0,13,0,1,
65c528cadf7003767a4d311f,TCR,2024-06-21_13h51.54.083,LearnStrategy,2023.2.3,Win32,59.88023952,3,2,15,,,,,,,,3,13,,,,,,,,,,,3,31.932,1,,,,,,0.123697917,-0.25,1,0,0,31.9317,Diorite_rect,14,0,14,0,1,
65c528cadf7003767a4d311f,TCR,2024-06-21_13h51.54.083,LearnStrategy,2023.2.3,Win32,59.88023952,3,2,16,,,,,,,,7,13,,,,,,,,,,,7,1.833,1,,,,,,0.110677083,-0.4140625,1,0,0,1.8326,Peridotite_rect,15,0,15,0,1,
65c528cadf7003767a4d311f,TCR,2024-06-21_13h51.54.083,LearnStrategy,2023.2.3,Win32,59.88023952,4,1,1,0.05078125,-0.005208333,1,0,0,2.1547,rock_grid_rect_2,6,05,-1,-1,2.155,-0.1640625,-0.419270833,1,0,0,14.6888,Pegmatite_rect,6,14.689,1,0,0,0,0,1,,,,,,,,,,,,,
65c528cadf7003767a4d311f,TCR,2024-06-21_13h51.54.083,LearnStrategy,2023.2.3,Win32,59.88023952,4,1,2,0.057291667,0.002604167,1,0,0,0.9792,rock_grid_rect_2,2,08,-1,-1,0.979,-0.09765625,-0.248697917,1,0,0,1.5478,Basalt_rect,2,1.548,1,1,0,1,0,1,,,,,,,,,,,,,
65c528cadf7003767a4d311f,TCR,2024-06-21_13h51.54.083,LearnStrategy,2023.2.3,Win32,59.88023952,4,1,3,0.072916667,-0.006510417,1,0,0,0.8135,rock_grid_rect_2,1,05,-1,-1,0.813,-0.348958333,-0.24609375,1,0,0,2.5329,Andesite_rect,1,2.533,1,2,0,2,0,1,,,,,,,,,,,,,
65c528cadf7003767a4d311f,TCR,2024-06-21_13h51.54.083,LearnStrategy,2023.2.3,Win32,59.88023952,4,1,4,0.083333333,0.013020833,1,0,0,1.1417,rock_grid_rect_2,4,03,-1,-1,1.142,0.388020833,-0.236979167,1,0,0,3.6787,Gabbro_rect,4,3.679,1,3,0,3,0,1,,,,,,,,,,,,,
65c528cadf7003767a4d311f,TCR,2024-06-21_13h51.54.083,LearnStrategy,2023.2.3,Win32,59.88023952,4,1,5,0.108072917,-0.009114583,1,0,0,0.7801,rock_grid_rect_2,4,13,-1,-1,0.78,0.427083333,-0.2421875,1,0,0,1.4989,Gabbro_rect,4,1.499,1,4,0,4,0,1,,,,,,,,,,,,,
65c528cadf7003767a4d311f,TCR,2024-06-21_13h51.54.083,LearnStrategy,2023.2.3,Win32,59.88023952,4,1,6,0.11328125,0.016927083,1,0,0,1.2461,rock_grid_rect_2,3,14,-1,-1,1.246,0.104166667,-0.25,1,0,0,1.343,Diorite_rect,3,1.343,1,5,0,5,0,1,,,,,,,,,,,,,
65c528cadf7003767a4d311f,TCR,2024-06-21_13h51.54.083,LearnStrategy,2023.2.3,Win32,59.88023952,4,1,7,0.125,-0.0078125,1,0,0,1.4298,rock_grid_rect_2,2,11,-1,-1,1.43,0.389322917,-0.385416667,1,0,0,2.6081,Pumice_rect,8,2.608,0,6,0,6,0,1,,,,,,,,,,,,,
65c528cadf7003767a4d311f,TCR,2024-06-21_13h51.54.083,LearnStrategy,2023.2.3,Win32,59.88023952,4,1,8,0.139322917,-0.009114583,1,0,0,0.8303,rock_grid_rect_2,2,06,-1,-1,0.83,-0.123697917,-0.247395833,1,0,0,1.5755,Basalt_rect,2,1.576,1,7,0,7,0,1,,,,,,,,,,,,,
65c528cadf7003767a4d311f,TCR,2024-06-21_13h51.54.083,LearnStrategy,2023.2.3,Win32,59.88023952,4,1,9,0.08984375,-0.005208333,1,0,0,0.7467,rock_grid_rect_2,7,14,-1,-1,0.747,0.13671875,-0.390625,1,0,0,1.3863,Peridotite_rect,7,1.386,1,8,0,8,0,1,,,,,,,,,,,,,
65c528cadf7003767a4d311f,TCR,2024-06-21_13h51.54.083,LearnStrategy,2023.2.3,Win32,59.88023952,4,1,10,0.04296875,0.009114583,1,0,0,0.701,rock_grid_rect_2,1,05,-1,-1,0.701,-0.377604167,-0.233072917,1,0,0,2.2773,Andesite_rect,1,2.277,1,9,0,9,0,1,,,,,,,,,,,,,
65c528cadf7003767a4d311f,TCR,2024-06-21_13h51.54.083,LearnStrategy,2023.2.3,Win32,59.88023952,4,1,11,0.03515625,-0.016927083,1,0,0,0.8831,rock_grid_rect_2,1,09,-1,-1,0.883,-0.407552083,-0.233072917,1,0,0,1.8899,Andesite_rect,1,1.89,1,10,0,10,0,1,,,,,,,,,,,,,
65c528cadf7003767a4d311f,TCR,2024-06-21_13h51.54.083,LearnStrategy,2023.2.3,Win32,59.88023952,4,1,12,-0.001302083,-0.01171875,1,0,0,0.9975,rock_grid_rect_2,6,16,-1,-1,0.998,-0.083333333,-0.384114583,1,0,0,1.9126,Pegmatite_rect,6,1.913,1,11,0,11,0,1,,,,,,,,,,,,,
65c528cadf7003767a4d311f,TCR,2024-06-21_13h51.54.083,LearnStrategy,2023.2.3,Win32,59.88023952,4,1,13,0.033854167,0.006510417,1,0,0,0.8309,rock_grid_rect_2,8,13,-1,-1,0.831,0.41796875,-0.403645833,1,0,0,2.5435,Pumice_rect,8,2.544,1,12,0,12,0,1,,,,,,,,,,,,,
65c528cadf7003767a4d311f,TCR,2024-06-21_13h51.54.083,LearnStrategy,2023.2.3,Win32,59.88023952,4,1,14,0.08203125,-0.009114583,1,0,0,0.7976,rock_grid_rect_2,6,07,-1,-1,0.798,-0.145833333,-0.390625,1,0,0,5.9514,Pegmatite_rect,6,5.951,1,13,0,13,0,1,,,,,,,,,,,,,
65c528cadf7003767a4d311f,TCR,2024-06-21_13h51.54.083,LearnStrategy,2023.2.3,Win32,59.88023952,4,1,15,0.078125,-0.014322917,1,0,0,0.7467,rock_grid_rect_2,5,06,-1,-1,0.747,-0.354166667,-0.419270833,1,0,0,1.1114,Obsidian_rect,5,1.111,1,14,0,14,0,1,,,,,,,,,,,,,
65c528cadf7003767a4d311f,TCR,2024-06-21_13h51.54.083,LearnStrategy,2023.2.3,Win32,59.88023952,4,1,16,0.04296875,0.01171875,1,0,0,0.6835,rock_grid_rect_2,6,09,-1,-1,0.683,-0.151041667,-0.40625,1,0,0,6.5635,Pegmatite_rect,6,6.563,1,15,0,15,0,1,,,,,,,,,,,,,
65c528cadf7003767a4d311f,TCR,2024-06-21_13h51.54.083,LearnStrategy,2023.2.3,Win32,59.88023952,4,2,1,,,,,,,,8,15,,,,,,,,,,,8,1.189,1,,,,,,0.4921875,-0.40625,1,0,0,1.1893,Pumice_rect,0,0,0,0,1,
65c528cadf7003767a4d311f,TCR,2024-06-21_13h51.54.083,LearnStrategy,2023.2.3,Win32,59.88023952,4,2,2,,,,,,,,4,10,,,,,,,,,,,4,1.444,1,,,,,,0.391927083,-0.25,1,0,0,1.4442,Gabbro_rect,1,0,1,0,1,
65c528cadf7003767a4d311f,TCR,2024-06-21_13h51.54.083,LearnStrategy,2023.2.3,Win32,59.88023952,4,2,3,,,,,,,,3,11,,,,,,,,,,,3,1.435,1,,,,,,0.147135417,-0.248697917,1,0,0,1.4346,Diorite_rect,2,0,2,0,1,
65c528cadf7003767a4d311f,TCR,2024-06-21_13h51.54.083,LearnStrategy,2023.2.3,Win32,59.88023952,4,2,4,,,,,,,,8,04,,,,,,,,,,,8,1.407,1,,,,,,0.35546875,-0.381510417,1,0,0,1.4071,Pumice_rect,3,0,3,0,1,
65c528cadf7003767a4d311f,TCR,2024-06-21_13h51.54.083,LearnStrategy,2023.2.3,Win32,59.88023952,4,2,5,,,,,,,,1,10,,,,,,,,,,,1,2.747,1,,,,,,-0.364583333,-0.2421875,1,0,0,2.7468,Andesite_rect,4,0,4,0,1,
65c528cadf7003767a4d311f,TCR,2024-06-21_13h51.54.083,LearnStrategy,2023.2.3,Win32,59.88023952,4,2,6,,,,,,,,5,12,,,,,,,,,,,5,1.744,1,,,,,,-0.37890625,-0.421875,1,0,0,1.7439,Obsidian_rect,5,0,5,0,1,
65c528cadf7003767a4d311f,TCR,2024-06-21_13h51.54.083,LearnStrategy,2023.2.3,Win32,59.88023952,4,2,7,,,,,,,,7,16,,,,,,,,,,,4,4.881,0,,,,,,0.421875,-0.256510417,1,0,0,4.8809,Gabbro_rect,6,0,6,0,1,
65c528cadf7003767a4d311f,TCR,2024-06-21_13h51.54.083,LearnStrategy,2023.2.3,Win32,59.88023952,4,2,8,,,,,,,,1,01,,,,,,,,,,,4,3.487,0,,,,,,0.384114583,-0.252604167,1,0,0,3.4867,Gabbro_rect,7,0,7,0,1,
65c528cadf7003767a4d311f,TCR,2024-06-21_13h51.54.083,LearnStrategy,2023.2.3,Win32,59.88023952,4,2,9,,,,,,,,5,09,,,,,,,,,,,5,1.052,1,,,,,,-0.393229167,-0.407552083,1,0,0,1.0518,Obsidian_rect,8,0,8,0,1,
65c528cadf7003767a4d311f,TCR,2024-06-21_13h51.54.083,LearnStrategy,2023.2.3,Win32,59.88023952,4,2,10,,,,,,,,2,05,,,,,,,,,,,2,0.998,1,,,,,,-0.111979167,-0.235677083,1,0,0,0.9976,Basalt_rect,9,0,9,0,1,
65c528cadf7003767a4d311f,TCR,2024-06-21_13h51.54.083,LearnStrategy,2023.2.3,Win32,59.88023952,4,2,11,,,,,,,,2,09,,,,,,,,,,,2,0.81,1,,,,,,-0.108072917,-0.244791667,1,0,0,0.81,Basalt_rect,10,0,10,0,1,
65c528cadf7003767a4d311f,TCR,2024-06-21_13h51.54.083,LearnStrategy,2023.2.3,Win32,59.88023952,4,2,12,,,,,,,,6,08,,,,,,,,,,,6,1.271,1,,,,,,-0.092447917,-0.40234375,1,0,0,1.2706,Pegmatite_rect,11,0,11,0,1,
65c528cadf7003767a4d311f,TCR,2024-06-21_13h51.54.083,LearnStrategy,2023.2.3,Win32,59.88023952,4,2,13,,,,,,,,3,16,,,,,,,,,,,3,0.977,1,,,,,,0.08203125,-0.265625,1,0,0,0.9768,Diorite_rect,12,0,12,0,1,
65c528cadf7003767a4d311f,TCR,2024-06-21_13h51.54.083,LearnStrategy,2023.2.3,Win32,59.88023952,4,2,14,,,,,,,,6,10,,,,,,,,,,,6,1.745,1,,,,,,-0.15625,-0.37890625,1,0,0,1.7445,Pegmatite_rect,13,0,13,0,1,
65c528cadf7003767a4d311f,TCR,2024-06-21_13h51.54.083,LearnStrategy,2023.2.3,Win32,59.88023952,4,2,15,,,,,,,,4,16,,,,,,,,,,,4,2.001,1,,,,,,0.403645833,-0.252604167,1,0,0,2.001,Gabbro_rect,14,0,14,0,1,
65c528cadf7003767a4d311f,TCR,2024-06-21_13h51.54.083,LearnStrategy,2023.2.3,Win32,59.88023952,4,2,16,,,,,,,,7,10,,,,,,,,,,,7,1.186,1,,,,,,0.102864583,-0.384114583,1,0,0,1.186,Peridotite_rect,15,0,15,0,1,
65c528cadf7003767a4d311f,TCR,2024-06-21_13h51.54.083,LearnStrategy,2023.2.3,Win32,59.88023952,5,1,1,0.109375,0.006510417,1,0,0,0.764,rock_grid_rect_2,2,01,-1,-1,0.764,-0.122395833,-0.236979167,1,0,0,0.8835,Basalt_rect,2,0.883,1,0,0,0,0,1,,,,,,,,,,,,,
65c528cadf7003767a4d311f,TCR,2024-06-21_13h51.54.083,LearnStrategy,2023.2.3,Win32,59.88023952,5,1,2,0.111979167,0.006510417,1,0,0,0.8133,rock_grid_rect_2,3,12,-1,-1,0.813,0.16015625,-0.256510417,1,0,0,1.4418,Diorite_rect,3,1.442,1,1,0,1,0,1,,,,,,,,,,,,,
65c528cadf7003767a4d311f,TCR,2024-06-21_13h51.54.083,LearnStrategy,2023.2.3,Win32,59.88023952,5,1,3,0.149739583,0.006510417,1,0,0,0.7142,rock_grid_rect_2,1,16,-1,-1,0.714,-0.373697917,-0.2421875,1,0,0,1.7276,Andesite_rect,1,1.728,1,2,0,2,0,1,,,,,,,,,,,,,
65c528cadf7003767a4d311f,TCR,2024-06-21_13h51.54.083,LearnStrategy,2023.2.3,Win32,59.88023952,5,1,4,0.079427083,-0.0234375,1,0,0,1.3968,rock_grid_rect_2,6,07,-1,-1,1.397,-0.140625,-0.384114583,1,0,0,1.1447,Pegmatite_rect,6,1.145,1,3,0,3,0,1,,,,,,,,,,,,,
65c528cadf7003767a4d311f,TCR,2024-06-21_13h51.54.083,LearnStrategy,2023.2.3,Win32,59.88023952,5,1,5,0.153645833,0.013020833,1,0,0,0.88,rock_grid_rect_2,8,10,-1,-1,0.88,0.377604167,-0.403645833,1,0,0,1.2131,Pumice_rect,8,1.213,1,4,0,4,0,1,,,,,,,,,,,,,
65c528cadf7003767a4d311f,TCR,2024-06-21_13h51.54.083,LearnStrategy,2023.2.3,Win32,59.88023952,5,1,6,0.122395833,-0.013020833,1,0,0,0.6644,rock_grid_rect_2,5,02,-1,-1,0.664,-0.407552083,-0.3828125,1,0,0,0.9225,Obsidian_rect,5,0.923,1,5,0,5,0,1,,,,,,,,,,,,,
65c528cadf7003767a4d311f,TCR,2024-06-21_13h51.54.083,LearnStrategy,2023.2.3,Win32,59.88023952,5,1,7,0.078125,0.014322917,1,0,0,1.0794,rock_grid_rect_2,1,07,-1,-1,1.079,-0.384114583,-0.24609375,1,0,0,1.2398,Andesite_rect,1,1.24,1,6,0,6,0,1,,,,,,,,,,,,,
65c528cadf7003767a4d311f,TCR,2024-06-21_13h51.54.083,LearnStrategy,2023.2.3,Win32,59.88023952,5,1,8,0.087239583,-0.024739583,1,0,0,0.53,rock_grid_rect_2,1,05,-1,-1,0.53,-0.380208333,-0.244791667,1,0,0,0.8385,Andesite_rect,1,0.838,1,7,0,7,0,1,,,,,,,,,,,,,
65c528cadf7003767a4d311f,TCR,2024-06-21_13h51.54.083,LearnStrategy,2023.2.3,Win32,59.88023952,5,1,9,0.095052083,-0.005208333,1,0,0,0.8303,rock_grid_rect_2,1,04,-1,-1,0.83,-0.4140625,-0.23828125,1,0,0,1.3981,Andesite_rect,1,1.398,1,8,0,8,0,1,,,,,,,,,,,,,
65c528cadf7003767a4d311f,TCR,2024-06-21_13h51.54.083,LearnStrategy,2023.2.3,Win32,59.88023952,5,1,10,0.127604167,-0.01953125,1,0,0,0.8962,rock_grid_rect_2,7,08,-1,-1,0.896,0.123697917,-0.395833333,1,0,0,1.2423,Peridotite_rect,7,1.242,1,9,0,9,0,1,,,,,,,,,,,,,
65c528cadf7003767a4d311f,TCR,2024-06-21_13h51.54.083,LearnStrategy,2023.2.3,Win32,59.88023952,5,1,11,0.110677083,-0.014322917,1,0,0,0.8636,rock_grid_rect_2,7,08,-1,-1,0.864,0.123697917,-0.3828125,1,0,0,1.0556,Peridotite_rect,7,1.056,1,10,0,10,0,1,,,,,,,,,,,,,
65c528cadf7003767a4d311f,TCR,2024-06-21_13h51.54.083,LearnStrategy,2023.2.3,Win32,59.88023952,5,1,12,0.184895833,0.015625,1,0,0,0.7474,rock_grid_rect_2,7,15,-1,-1,0.747,0.131510417,-0.3984375,1,0,0,0.9667,Peridotite_rect,7,0.967,1,11,0,11,0,1,,,,,,,,,,,,,
65c528cadf7003767a4d311f,TCR,2024-06-21_13h51.54.083,LearnStrategy,2023.2.3,Win32,59.88023952,5,1,13,0.131510417,0.00390625,1,0,0,0.8478,rock_grid_rect_2,4,05,-1,-1,0.848,0.354166667,-0.2421875,1,0,0,4.0425,Gabbro_rect,4,4.043,1,12,0,12,0,1,,,,,,,,,,,,,
65c528cadf7003767a4d311f,TCR,2024-06-21_13h51.54.083,LearnStrategy,2023.2.3,Win32,59.88023952,5,1,14,0.118489583,0,1,0,0,1.0527,rock_grid_rect_2,6,16,-1,-1,1.053,-0.135416667,-0.393229167,1,0,0,1.6191,Pegmatite_rect,6,1.619,1,13,0,13,0,1,,,,,,,,,,,,,
65c528cadf7003767a4d311f,TCR,2024-06-21_13h51.54.083,LearnStrategy,2023.2.3,Win32,59.88023952,5,1,15,0.079427083,0.006510417,1,0,0,0.7971,rock_grid_rect_2,4,13,-1,-1,0.797,0.388020833,-0.243489583,1,0,0,1.1476,Gabbro_rect,4,1.148,1,14,0,14,0,1,,,,,,,,,,,,,
65c528cadf7003767a4d311f,TCR,2024-06-21_13h51.54.083,LearnStrategy,2023.2.3,Win32,59.88023952,5,1,16,0.147135417,-0.01171875,1,0,0,0.6006,rock_grid_rect_2,2,01,-1,-1,0.601,-0.11328125,-0.248697917,1,0,0,2.055,Basalt_rect,2,2.055,1,15,0,15,0,1,,,,,,,,,,,,,
65c528cadf7003767a4d311f,TCR,2024-06-21_13h51.54.083,LearnStrategy,2023.2.3,Win32,59.88023952,5,2,1,,,,,,,,7,05,,,,,,,,,,,7,1.594,1,,,,,,0.123697917,-0.401041667,1,0,0,1.5939,Peridotite_rect,0,0,0,0,1,
65c528cadf7003767a4d311f,TCR,2024-06-21_13h51.54.083,LearnStrategy,2023.2.3,Win32,59.88023952,5,2,2,,,,,,,,6,06,,,,,,,,,,,2,10.105,0,,,,,,-0.045572917,-0.243489583,1,0,0,10.1049,Basalt_rect,1,0,1,0,1,
65c528cadf7003767a4d311f,TCR,2024-06-21_13h51.54.083,LearnStrategy,2023.2.3,Win32,59.88023952,5,2,3,,,,,,,,4,14,,,,,,,,,,,2,0.921,0,,,,,,-0.063802083,-0.26171875,1,0,0,0.9209,Basalt_rect,2,0,2,0,1,
65c528cadf7003767a4d311f,TCR,2024-06-21_13h51.54.083,LearnStrategy,2023.2.3,Win32,59.88023952,5,2,4,,,,,,,,5,07,,,,,,,,,,,5,1.056,1,,,,,,-0.408854167,-0.41015625,1,0,0,1.0556,Obsidian_rect,3,0,3,0,1,
65c528cadf7003767a4d311f,TCR,2024-06-21_13h51.54.083,LearnStrategy,2023.2.3,Win32,59.88023952,5,2,5,,,,,,,,8,05,,,,,,,,,,,8,1.244,1,,,,,,0.3671875,-0.39453125,1,0,0,1.2437,Pumice_rect,4,0,4,0,1,
65c528cadf7003767a4d311f,TCR,2024-06-21_13h51.54.083,LearnStrategy,2023.2.3,Win32,59.88023952,5,2,6,,,,,,,,5,08,,,,,,,,,,,5,1.335,1,,,,,,-0.388020833,-0.416666667,1,0,0,1.3354,Obsidian_rect,5,0,5,0,1,
65c528cadf7003767a4d311f,TCR,2024-06-21_13h51.54.083,LearnStrategy,2023.2.3,Win32,59.88023952,5,2,7,,,,,,,,2,14,,,,,,,,,,,8,1.955,0,,,,,,0.373697917,-0.404947917,1,0,0,1.955,Pumice_rect,6,0,6,0,1,
65c528cadf7003767a4d311f,TCR,2024-06-21_13h51.54.083,LearnStrategy,2023.2.3,Win32,59.88023952,5,2,8,,,,,,,,6,12,,,,,,,,,,,3,2.371,0,,,,,,0.123697917,-0.239583333,1,0,0,2.3707,Diorite_rect,7,0,7,0,1,
65c528cadf7003767a4d311f,TCR,2024-06-21_13h51.54.083,LearnStrategy,2023.2.3,Win32,59.88023952,5,2,9,,,,,,,,3,02,,,,,,,,,,,7,1.527,0,,,,,,0.08203125,-0.381510417,1,0,0,1.5272,Peridotite_rect,8,0,8,0,1,
65c528cadf7003767a4d311f,TCR,2024-06-21_13h51.54.083,LearnStrategy,2023.2.3,Win32,59.88023952,5,2,10,,,,,,,,7,13,,,,,,,,,,,7,0.97,1,,,,,,0.095052083,-0.404947917,1,0,0,0.97,Peridotite_rect,9,0,9,0,1,
65c528cadf7003767a4d311f,TCR,2024-06-21_13h51.54.083,LearnStrategy,2023.2.3,Win32,59.88023952,5,2,11,,,,,,,,1,06,,,,,,,,,,,1,1.495,1,,,,,,-0.380208333,-0.270833333,1,0,0,1.4945,Andesite_rect,10,0,10,0,1,
65c528cadf7003767a4d311f,TCR,2024-06-21_13h51.54.083,LearnStrategy,2023.2.3,Win32,59.88023952,5,2,12,,,,,,,,3,13,,,,,,,,,,,3,4.409,1,,,,,,0.095052083,-0.266927083,1,0,0,4.4087,Diorite_rect,11,0,11,0,1,
65c528cadf7003767a4d311f,TCR,2024-06-21_13h51.54.083,LearnStrategy,2023.2.3,Win32,59.88023952,5,2,13,,,,,,,,8,02,,,,,,,,,,,8,1.547,1,,,,,,0.432291667,-0.411458333,1,0,0,1.5473,Pumice_rect,12,0,12,0,1,
65c528cadf7003767a4d311f,TCR,2024-06-21_13h51.54.083,LearnStrategy,2023.2.3,Win32,59.88023952,5,2,14,,,,,,,,4,12,,,,,,,,,,,2,1.012,0,,,,,,-0.048177083,-0.264322917,1,0,0,1.012,Basalt_rect,13,0,13,0,1,
65c528cadf7003767a4d311f,TCR,2024-06-21_13h51.54.083,LearnStrategy,2023.2.3,Win32,59.88023952,5,2,15,,,,,,,,2,10,,,,,,,,,,,2,0.851,1,,,,,,-0.046875,-0.263020833,1,0,0,0.8514,Basalt_rect,14,0,14,0,1,
65c528cadf7003767a4d311f,TCR,2024-06-21_13h51.54.083,LearnStrategy,2023.2.3,Win32,59.88023952,5,2,16,,,,,,,,1,14,,,,,,,,,,,1,1.902,1,,,,,,-0.497395833,-0.247395833,1,0,0,1.9022,Andesite_rect,15,0,15,0,1,
65c528cadf7003767a4d311f,TCR,2024-06-21_13h51.54.083,LearnStrategy,2023.2.3,Win32,59.88023952,6,1,1,0.1328125,-0.014322917,1,0,0,0.777,rock_grid_rect_2,6,16,-1,-1,0.777,-0.114583333,-0.41015625,1,0,0,1.3443,Pegmatite_rect,6,1.344,1,0,0,0,0,1,,,,,,,,,,,,,
65c528cadf7003767a4d311f,TCR,2024-06-21_13h51.54.083,LearnStrategy,2023.2.3,Win32,59.88023952,6,1,2,0.114583333,0.002604167,1,0,0,0.7461,rock_grid_rect_2,6,05,-1,-1,0.746,-0.158854167,-0.391927083,1,0,0,1.0427,Pegmatite_rect,6,1.043,1,1,0,1,0,1,,,,,,,,,,,,,
65c528cadf7003767a4d311f,TCR,2024-06-21_13h51.54.083,LearnStrategy,2023.2.3,Win32,59.88023952,6,1,3,0.11328125,0.016927083,1,0,0,0.529,rock_grid_rect_2,4,03,-1,-1,0.529,0.359375,-0.24609375,1,0,0,1.6769,Gabbro_rect,4,1.677,1,2,0,2,0,1,,,,,,,,,,,,,
65c528cadf7003767a4d311f,TCR,2024-06-21_13h51.54.083,LearnStrategy,2023.2.3,Win32,59.88023952,6,1,4,0.153645833,-0.009114583,1,0,0,0.7302,rock_grid_rect_2,7,08,-1,-1,0.73,0.130208333,-0.408854167,1,0,0,1.4267,Peridotite_rect,7,1.427,1,3,0,3,0,1,,,,,,,,,,,,,
65c528cadf7003767a4d311f,TCR,2024-06-21_13h51.54.083,LearnStrategy,2023.2.3,Win32,59.88023952,6,1,5,0.108072917,-0.014322917,1,0,0,1.0642,rock_grid_rect_2,2,02,-1,-1,1.064,-0.11328125,-0.23828125,1,0,0,0.8301,Basalt_rect,2,0.83,1,4,0,4,0,1,,,,,,,,,,,,,
65c528cadf7003767a4d311f,TCR,2024-06-21_13h51.54.083,LearnStrategy,2023.2.3,Win32,59.88023952,6,1,6,0.06640625,-0.024739583,1,0,0,0.814,rock_grid_rect_2,8,08,-1,-1,0.814,0.453125,-0.412760417,1,0,0,1.0503,Pumice_rect,8,1.05,1,5,0,5,0,1,,,,,,,,,,,,,
65c528cadf7003767a4d311f,TCR,2024-06-21_13h51.54.083,LearnStrategy,2023.2.3,Win32,59.88023952,6,1,7,0.1015625,-0.016927083,1,0,0,0.8969,rock_grid_rect_2,1,05,-1,-1,0.897,-0.34765625,-0.259114583,1,0,0,2.0213,Andesite_rect,1,2.021,1,6,0,6,0,1,,,,,,,,,,,,,
65c528cadf7003767a4d311f,TCR,2024-06-21_13h51.54.083,LearnStrategy,2023.2.3,Win32,59.88023952,6,1,8,0.03125,-0.016927083,1,0,0,0.8479,rock_grid_rect_2,2,06,-1,-1,0.848,-0.111979167,-0.260416667,1,0,0,0.9441,Basalt_rect,2,0.944,1,7,0,7,0,1,,,,,,,,,,,,,
65c528cadf7003767a4d311f,TCR,2024-06-21_13h51.54.083,LearnStrategy,2023.2.3,Win32,59.88023952,6,1,9,0.072916667,-0.00390625,1,0,0,0.9467,rock_grid_rect_2,4,15,-1,-1,0.947,0.376302083,-0.248697917,1,0,0,1.4854,Gabbro_rect,4,1.485,1,8,0,8,0,1,,,,,,,,,,,,,
65c528cadf7003767a4d311f,TCR,2024-06-21_13h51.54.083,LearnStrategy,2023.2.3,Win32,59.88023952,6,1,10,0.12109375,-0.018229167,1,0,0,0.6672,rock_grid_rect_2,5,10,-1,-1,0.667,-0.368489583,-0.3828125,1,0,0,1.0578,Obsidian_rect,5,1.058,1,9,0,9,0,1,,,,,,,,,,,,,
65c528cadf7003767a4d311f,TCR,2024-06-21_13h51.54.083,LearnStrategy,2023.2.3,Win32,59.88023952,6,1,11,0.08984375,0.018229167,1,0,0,0.7673,rock_grid_rect_2,3,10,-1,-1,0.767,0.365885417,-0.248697917,1,0,0,4.1557,Gabbro_rect,4,4.156,0,10,0,10,0,1,,,,,,,,,,,,,
65c528cadf7003767a4d311f,TCR,2024-06-21_13h51.54.083,LearnStrategy,2023.2.3,Win32,59.88023952,6,1,12,0.076822917,-0.001302083,1,0,0,0.6877,rock_grid_rect_2,6,13,-1,-1,0.688,-0.104166667,-0.3828125,1,0,0,1.0922,Pegmatite_rect,6,1.092,1,11,0,11,0,1,,,,,,,,,,,,,
65c528cadf7003767a4d311f,TCR,2024-06-21_13h51.54.083,LearnStrategy,2023.2.3,Win32,59.88023952,6,1,13,0.053385417,0.022135417,1,0,0,0.8306,rock_grid_rect_2,1,07,-1,-1,0.831,-0.33984375,-0.240885417,1,0,0,1.0529,Andesite_rect,1,1.053,1,12,0,12,0,1,,,,,,,,,,,,,
65c528cadf7003767a4d311f,TCR,2024-06-21_13h51.54.083,LearnStrategy,2023.2.3,Win32,59.88023952,6,1,14,0.024739583,0.020833333,1,0,0,0.5678,rock_grid_rect_2,2,11,-1,-1,0.568,0.428385417,-0.235677083,1,0,0,9.3408,Gabbro_rect,4,9.341,0,13,0,13,0,1,,,,,,,,,,,,,
65c528cadf7003767a4d311f,TCR,2024-06-21_13h51.54.083,LearnStrategy,2023.2.3,Win32,59.88023952,6,1,15,0.118489583,0.002604167,1,0,0,0.4875,rock_grid_rect_2,4,08,-1,-1,0.488,0.341145833,-0.239583333,1,0,0,1.638,Gabbro_rect,4,1.638,1,14,0,14,0,1,,,,,,,,,,,,,
65c528cadf7003767a4d311f,TCR,2024-06-21_13h51.54.083,LearnStrategy,2023.2.3,Win32,59.88023952,6,1,16,0.145833333,0.001302083,1,0,0,1.2131,rock_grid_rect_2,3,07,-1,-1,1.213,0.083333333,-0.231770833,1,0,0,2.059,Diorite_rect,3,2.059,1,15,0,15,0,1,,,,,,,,,,,,,
65c528cadf7003767a4d311f,TCR,2024-06-21_13h51.54.083,LearnStrategy,2023.2.3,Win32,59.88023952,6,2,1,,,,,,,,5,04,,,,,,,,,,,5,1.465,1,,,,,,-0.463541667,-0.407552083,1,0,0,1.4648,Obsidian_rect,0,0,0,0,1,
65c528cadf7003767a4d311f,TCR,2024-06-21_13h51.54.083,LearnStrategy,2023.2.3,Win32,59.88023952,6,2,2,,,,,,,,8,16,,,,,,,,,,,8,2.224,1,,,,,,0.345052083,-0.380208333,1,0,0,2.2237,Pumice_rect,1,0,1,0,1,
65c528cadf7003767a4d311f,TCR,2024-06-21_13h51.54.083,LearnStrategy,2023.2.3,Win32,59.88023952,6,2,3,,,,,,,,2,04,,,,,,,,,,,2,1.543,1,,,,,,-0.122395833,-0.231770833,1,0,0,1.5429,Basalt_rect,2,0,2,0,1,
65c528cadf7003767a4d311f,TCR,2024-06-21_13h51.54.083,LearnStrategy,2023.2.3,Win32,59.88023952,6,2,4,,,,,,,,4,01,,,,,,,,,,,2,0.257,0,,,,,,-0.122395833,-0.231770833,1,0,0,0.2569,Basalt_rect,3,0,3,0,1,
65c528cadf7003767a4d311f,TCR,2024-06-21_13h51.54.083,LearnStrategy,2023.2.3,Win32,59.88023952,6,2,5,,,,,,,,7,07,,,,,,,,,,,7,1.372,1,,,,,,0.109375,-0.390625,1,0,0,1.3724,Peridotite_rect,4,0,4,0,1,
65c528cadf7003767a4d311f,TCR,2024-06-21_13h51.54.083,LearnStrategy,2023.2.3,Win32,59.88023952,6,2,6,,,,,,,,3,06,,,,,,,,,,,3,4.625,1,,,,,,0.131510417,-0.23046875,1,0,0,4.6253,Diorite_rect,5,0,5,0,1,
65c528cadf7003767a4d311f,TCR,2024-06-21_13h51.54.083,LearnStrategy,2023.2.3,Win32,59.88023952,6,2,7,,,,,,,,5,11,,,,,,,,,,,5,1.594,1,,,,,,-0.390625,-0.40625,1,0,0,1.5942,Obsidian_rect,6,0,6,0,1,
65c528cadf7003767a4d311f,TCR,2024-06-21_13h51.54.083,LearnStrategy,2023.2.3,Win32,59.88023952,6,2,8,,,,,,,,4,09,,,,,,,,,,,4,5.963,1,,,,,,0.41015625,-0.266927083,1,0,0,5.9626,Gabbro_rect,7,0,7,0,1,
65c528cadf7003767a4d311f,TCR,2024-06-21_13h51.54.083,LearnStrategy,2023.2.3,Win32,59.88023952,6,2,9,,,,,,,,6,03,,,,,,,,,,,6,2.557,1,,,,,,-0.110677083,-0.401041667,1,0,0,2.557,Pegmatite_rect,8,0,8,0,1,
65c528cadf7003767a4d311f,TCR,2024-06-21_13h51.54.083,LearnStrategy,2023.2.3,Win32,59.88023952,6,2,10,,,,,,,,2,12,,,,,,,,,,,8,4.264,0,,,,,,0.348958333,-0.38671875,1,0,0,4.2638,Pumice_rect,9,0,9,0,1,
65c528cadf7003767a4d311f,TCR,2024-06-21_13h51.54.083,LearnStrategy,2023.2.3,Win32,59.88023952,6,2,11,,,,,,,,7,12,,,,,,,,,,,7,1.554,1,,,,,,0.125,-0.393229167,1,0,0,1.5539,Peridotite_rect,10,0,10,0,1,
65c528cadf7003767a4d311f,TCR,2024-06-21_13h51.54.083,LearnStrategy,2023.2.3,Win32,59.88023952,6,2,12,,,,,,,,1,03,,,,,,,,,,,1,2.14,1,,,,,,-0.45703125,-0.234375,1,0,0,2.1401,Andesite_rect,11,0,11,0,1,
65c528cadf7003767a4d311f,TCR,2024-06-21_13h51.54.083,LearnStrategy,2023.2.3,Win32,59.88023952,6,2,13,,,,,,,,6,15,,,,,,,,,,,6,1.532,1,,,,,,-0.118489583,-0.401041667,1,0,0,1.5322,Pegmatite_rect,12,0,12,0,1,
65c528cadf7003767a4d311f,TCR,2024-06-21_13h51.54.083,LearnStrategy,2023.2.3,Win32,59.88023952,6,2,14,,,,,,,,3,09,,,,,,,,,,,3,0.989,1,,,,,,0.106770833,-0.24609375,1,0,0,0.9894,Diorite_rect,13,0,13,0,1,
65c528cadf7003767a4d311f,TCR,2024-06-21_13h51.54.083,LearnStrategy,2023.2.3,Win32,59.88023952,6,2,15,,,,,,,,1,02,,,,,,,,,,,2,4.565,0,,,,,,-0.16796875,-0.23046875,1,0,0,4.565,Basalt_rect,14,0,14,0,1,
65c528cadf7003767a4d311f,TCR,2024-06-21_13h51.54.083,LearnStrategy,2023.2.3,Win32,59.88023952,6,2,16,,,,,,,,8,14,,,,,,,,,,,8,1.751,1,,,,,,0.3828125,-0.380208333,1,0,0,1.7506,Pumice_rect,15,0,15,0,1,
65c528cadf7003767a4d311f,TCR,2024-06-21_13h51.54.083,LearnStrategy,2023.2.3,Win32,59.88023952,7,1,1,0.12890625,0.005208333,1,0,0,1.1316,rock_grid_rect_2,4,13,-1,-1,1.132,0.421875,-0.25,1,0,0,1.2628,Gabbro_rect,4,1.263,1,0,0,0,0,1,,,,,,,,,,,,,
65c528cadf7003767a4d311f,TCR,2024-06-21_13h51.54.083,LearnStrategy,2023.2.3,Win32,59.88023952,7,1,2,0.15234375,0.015625,1,0,0,1.0131,rock_grid_rect_2,2,01,-1,-1,1.013,-0.096354167,-0.252604167,1,0,0,0.8837,Basalt_rect,2,0.884,1,1,0,1,0,1,,,,,,,,,,,,,
65c528cadf7003767a4d311f,TCR,2024-06-21_13h51.54.083,LearnStrategy,2023.2.3,Win32,59.88023952,7,1,3,0.109375,-0.009114583,1,0,0,0.9845,rock_grid_rect_2,1,11,-1,-1,0.985,-0.337239583,-0.248697917,1,0,0,7.0096,Andesite_rect,1,7.01,1,2,0,2,0,1,,,,,,,,,,,,,
65c528cadf7003767a4d311f,TCR,2024-06-21_13h51.54.083,LearnStrategy,2023.2.3,Win32,59.88023952,7,1,4,0.127604167,-0.016927083,1,0,0,1.1475,rock_grid_rect_2,1,04,-1,-1,1.148,-0.388020833,-0.248697917,1,0,0,1.0275,Andesite_rect,1,1.027,1,3,0,3,0,1,,,,,,,,,,,,,
65c528cadf7003767a4d311f,TCR,2024-06-21_13h51.54.083,LearnStrategy,2023.2.3,Win32,59.88023952,7,1,5,0.06640625,-0.0078125,1,0,0,1.0964,rock_grid_rect_2,5,06,-1,-1,1.096,-0.40234375,-0.389322917,1,0,0,0.9135,Obsidian_rect,5,0.914,1,4,0,4,0,1,,,,,,,,,,,,,
65c528cadf7003767a4d311f,TCR,2024-06-21_13h51.54.083,LearnStrategy,2023.2.3,Win32,59.88023952,7,1,6,0.061197917,0.013020833,1,0,0,0.6473,rock_grid_rect_2,2,11,-1,-1,0.647,-0.12890625,-0.231770833,1,0,0,1.9019,Basalt_rect,2,1.902,1,5,0,5,0,1,,,,,,,,,,,,,
65c528cadf7003767a4d311f,TCR,2024-06-21_13h51.54.083,LearnStrategy,2023.2.3,Win32,59.88023952,7,1,7,0.100260417,0.006510417,1,0,0,1.4633,rock_grid_rect_2,7,14,-1,-1,1.463,0.118489583,-0.393229167,1,0,0,7.5117,Peridotite_rect,7,7.512,1,6,0,6,0,1,,,,,,,,,,,,,
65c528cadf7003767a4d311f,TCR,2024-06-21_13h51.54.083,LearnStrategy,2023.2.3,Win32,59.88023952,7,1,8,0.095052083,-0.013020833,1,0,0,0.7469,rock_grid_rect_2,6,13,-1,-1,0.747,-0.088541667,-0.391927083,1,0,0,1.769,Pegmatite_rect,6,1.769,1,7,0,7,0,1,,,,,,,,,,,,,
65c528cadf7003767a4d311f,TCR,2024-06-21_13h51.54.083,LearnStrategy,2023.2.3,Win32,59.88023952,7,1,9,0.17578125,-0.001302083,1,0,0,1.8798,rock_grid_rect_2,3,12,-1,-1,1.88,0.171875,-0.236979167,1,0,0,3.3841,Diorite_rect,3,3.384,1,8,0,8,0,1,,,,,,,,,,,,,
65c528cadf7003767a4d311f,TCR,2024-06-21_13h51.54.083,LearnStrategy,2023.2.3,Win32,59.88023952,7,1,10,0.13671875,0,1,0,0,0.8305,rock_grid_rect_2,3,08,-1,-1,0.831,0.157552083,-0.239583333,1,0,0,1.2746,Diorite_rect,3,1.275,1,9,0,9,0,1,,,,,,,,,,,,,
65c528cadf7003767a4d311f,TCR,2024-06-21_13h51.54.083,LearnStrategy,2023.2.3,Win32,59.88023952,7,1,11,0.0859375,0.009114583,1,0,0,1.2141,rock_grid_rect_2,4,03,-1,-1,1.214,0.416666667,-0.24609375,1,0,0,3.6494,Gabbro_rect,4,3.649,1,10,0,10,0,1,,,,,,,,,,,,,
65c528cadf7003767a4d311f,TCR,2024-06-21_13h51.54.083,LearnStrategy,2023.2.3,Win32,59.88023952,7,1,12,0.095052083,-0.009114583,1,0,0,0.9978,rock_grid_rect_2,2,01,-1,-1,0.998,-0.141927083,-0.260416667,1,0,0,1.2733,Basalt_rect,2,1.273,1,11,0,11,0,1,,,,,,,,,,,,,
65c528cadf7003767a4d311f,TCR,2024-06-21_13h51.54.083,LearnStrategy,2023.2.3,Win32,59.88023952,7,1,13,0.016927083,-0.006510417,1,0,0,0.8976,rock_grid_rect_2,4,15,-1,-1,0.898,0.33984375,-0.248697917,1,0,0,1.3498,Gabbro_rect,4,1.35,1,12,0,12,0,1,,,,,,,,,,,,,
65c528cadf7003767a4d311f,TCR,2024-06-21_13h51.54.083,LearnStrategy,2023.2.3,Win32,59.88023952,7,1,14,0.098958333,0.001302083,1,0,0,0.8297,rock_grid_rect_2,1,09,-1,-1,0.83,-0.38671875,-0.263020833,1,0,0,1.301,Andesite_rect,1,1.301,1,13,0,13,0,1,,,,,,,,,,,,,
65c528cadf7003767a4d311f,TCR,2024-06-21_13h51.54.083,LearnStrategy,2023.2.3,Win32,59.88023952,7,1,15,-0.002604167,-0.005208333,1,0,0,0.6975,rock_grid_rect_2,6,13,-1,-1,0.697,-0.080729167,-0.408854167,1,0,0,1.5779,Pegmatite_rect,6,1.578,1,14,0,14,0,1,,,,,,,,,,,,,
65c528cadf7003767a4d311f,TCR,2024-06-21_13h51.54.083,LearnStrategy,2023.2.3,Win32,59.88023952,7,1,16,0.033854167,-0.0078125,1,0,0,0.731,rock_grid_rect_2,8,09,-1,-1,0.731,0.404947917,-0.393229167,1,0,0,1.5251,Pumice_rect,8,1.525,1,15,0,15,0,1,,,,,,,,,,,,,
65c528cadf7003767a4d311f,TCR,2024-06-21_13h51.54.083,LearnStrategy,2023.2.3,Win32,59.88023952,7,2,1,,,,,,,,4,12,,,,,,,,,,,4,1.768,1,,,,,,0.377604167,-0.243489583,1,0,0,1.7683,Gabbro_rect,0,0,0,0,1,
65c528cadf7003767a4d311f,TCR,2024-06-21_13h51.54.083,LearnStrategy,2023.2.3,Win32,59.88023952,7,2,2,,,,,,,,5,08,,,,,,,,,,,5,1.182,1,,,,,,-0.346354167,-0.40234375,1,0,0,1.1825,Obsidian_rect,1,0,1,0,1,
65c528cadf7003767a4d311f,TCR,2024-06-21_13h51.54.083,LearnStrategy,2023.2.3,Win32,59.88023952,7,2,3,,,,,,,,1,06,,,,,,,,,,,1,1.281,1,,,,,,-0.416666667,-0.247395833,1,0,0,1.281,Andesite_rect,2,0,2,0,1,
65c528cadf7003767a4d311f,TCR,2024-06-21_13h51.54.083,LearnStrategy,2023.2.3,Win32,59.88023952,7,2,4,,,,,,,,1,01,,,,,,,,,,,4,1.78,0,,,,,,0.361979167,-0.260416667,1,0,0,1.78,Gabbro_rect,3,0,3,0,1,
65c528cadf7003767a4d311f,TCR,2024-06-21_13h51.54.083,LearnStrategy,2023.2.3,Win32,59.88023952,7,2,5,,,,,,,,7,05,,,,,,,,,,,7,3.586,1,,,,,,0.096354167,-0.390625,1,0,0,3.5863,Peridotite_rect,4,0,4,0,1,
65c528cadf7003767a4d311f,TCR,2024-06-21_13h51.54.083,LearnStrategy,2023.2.3,Win32,59.88023952,7,2,6,,,,,,,,6,03,,,,,,,,,,,6,0.877,1,,,,,,-0.1328125,-0.381510417,1,0,0,0.877,Pegmatite_rect,5,0,5,0,1,
65c528cadf7003767a4d311f,TCR,2024-06-21_13h51.54.083,LearnStrategy,2023.2.3,Win32,59.88023952,7,2,7,,,,,,,,5,04,,,,,,,,,,,5,0.962,1,,,,,,-0.354166667,-0.390625,1,0,0,0.9619,Obsidian_rect,6,0,6,0,1,
65c528cadf7003767a4d311f,TCR,2024-06-21_13h51.54.083,LearnStrategy,2023.2.3,Win32,59.88023952,7,2,8,,,,,,,,8,16,,,,,,,,,,,8,1.431,1,,,,,,0.470052083,-0.416666667,1,0,0,1.4307,Pumice_rect,7,0,7,0,1,
65c528cadf7003767a4d311f,TCR,2024-06-21_13h51.54.083,LearnStrategy,2023.2.3,Win32,59.88023952,7,2,9,,,,,,,,3,02,,,,,,,,,,,3,1.454,1,,,,,,0.0703125,-0.25,1,0,0,1.454,Diorite_rect,8,0,8,0,1,
65c528cadf7003767a4d311f,TCR,2024-06-21_13h51.54.083,LearnStrategy,2023.2.3,Win32,59.88023952,7,2,10,,,,,,,,6,10,,,,,,,,,,,6,1.014,1,,,,,,-0.165364583,-0.412760417,1,0,0,1.0143,Pegmatite_rect,9,0,9,0,1,
65c528cadf7003767a4d311f,TCR,2024-06-21_13h51.54.083,LearnStrategy,2023.2.3,Win32,59.88023952,7,2,11,,,,,,,,2,14,,,,,,,,,,,8,1.328,0,,,,,,0.33203125,-0.38671875,1,0,0,1.3277,Pumice_rect,10,0,10,0,1,
65c528cadf7003767a4d311f,TCR,2024-06-21_13h51.54.083,LearnStrategy,2023.2.3,Win32,59.88023952,7,2,12,,,,,,,,3,09,,,,,,,,,,,3,1.069,1,,,,,,0.10546875,-0.24609375,1,0,0,1.0688,Diorite_rect,11,0,11,0,1,
65c528cadf7003767a4d311f,TCR,2024-06-21_13h51.54.083,LearnStrategy,2023.2.3,Win32,59.88023952,7,2,13,,,,,,,,4,01,,,,,,,,,,,4,1.297,1,,,,,,0.40234375,-0.266927083,1,0,0,1.2968,Gabbro_rect,12,0,12,0,1,
65c528cadf7003767a4d311f,TCR,2024-06-21_13h51.54.083,LearnStrategy,2023.2.3,Win32,59.88023952,7,2,14,,,,,,,,7,16,,,,,,,,,,,4,14.948,0,,,,,,0.43359375,-0.260416667,1,0,0,14.948,Gabbro_rect,13,0,13,0,1,
65c528cadf7003767a4d311f,TCR,2024-06-21_13h51.54.083,LearnStrategy,2023.2.3,Win32,59.88023952,7,2,15,,,,,,,,8,02,,,,,,,,,,,8,1.277,1,,,,,,0.381510417,-0.393229167,1,0,0,1.2766,Pumice_rect,14,0,14,0,1,
65c528cadf7003767a4d311f,TCR,2024-06-21_13h51.54.083,LearnStrategy,2023.2.3,Win32,59.88023952,7,2,16,,,,,,,,2,12,,,,,,,,,,,2,9.853,1,,,,,,-0.087239583,-0.240885417,1,0,0,9.853,Basalt_rect,15,0,15,0,1,
65c528cadf7003767a4d311f,TCR,2024-06-21_13h51.54.083,LearnStrategy,2023.2.3,Win32,59.88023952,8,1,1,0.091145833,-0.009114583,1,0,0,0.7484,rock_grid_rect_2,2,08,-1,-1,0.748,-0.091145833,-0.229166667,1,0,0,1.2425,Basalt_rect,2,1.243,1,0,0,0,0,1,,,,,,,,,,,,,
65c528cadf7003767a4d311f,TCR,2024-06-21_13h51.54.083,LearnStrategy,2023.2.3,Win32,59.88023952,8,1,2,0.130208333,0.00390625,1,0,0,1.0143,rock_grid_rect_2,4,13,-1,-1,1.014,0.397135417,-0.260416667,1,0,0,1.8847,Gabbro_rect,4,1.885,1,1,0,1,0,1,,,,,,,,,,,,,
65c528cadf7003767a4d311f,TCR,2024-06-21_13h51.54.083,LearnStrategy,2023.2.3,Win32,59.88023952,8,1,3,0.119791667,0.01171875,1,0,0,0.7136,rock_grid_rect_2,6,09,-1,-1,0.714,-0.09375,-0.408854167,1,0,0,0.9913,Pegmatite_rect,6,0.991,1,2,0,2,0,1,,,,,,,,,,,,,
65c528cadf7003767a4d311f,TCR,2024-06-21_13h51.54.083,LearnStrategy,2023.2.3,Win32,59.88023952,8,1,4,0.108072917,0.0234375,1,0,0,0.8476,rock_grid_rect_2,1,09,-1,-1,0.848,-0.341145833,-0.2578125,1,0,0,3.2117,Andesite_rect,1,3.212,1,3,0,3,0,1,,,,,,,,,,,,,
65c528cadf7003767a4d311f,TCR,2024-06-21_13h51.54.083,LearnStrategy,2023.2.3,Win32,59.88023952,8,1,5,0.04296875,0.018229167,1,0,0,0.763,rock_grid_rect_2,7,15,-1,-1,0.763,0.110677083,-0.4140625,1,0,0,1.1267,Peridotite_rect,7,1.127,1,4,0,4,0,1,,,,,,,,,,,,,
65c528cadf7003767a4d311f,TCR,2024-06-21_13h51.54.083,LearnStrategy,2023.2.3,Win32,59.88023952,8,1,6,0.08984375,-0.013020833,1,0,0,0.8473,rock_grid_rect_2,6,13,-1,-1,0.847,-0.069010417,-0.39453125,1,0,0,1.1243,Pegmatite_rect,6,1.124,1,5,0,5,0,1,,,,,,,,,,,,,
65c528cadf7003767a4d311f,TCR,2024-06-21_13h51.54.083,LearnStrategy,2023.2.3,Win32,59.88023952,8,1,7,0.08984375,0.005208333,1,0,0,0.6132,rock_grid_rect_2,8,10,-1,-1,0.613,0.37109375,-0.395833333,1,0,0,1.1187,Pumice_rect,8,1.119,1,6,0,6,0,1,,,,,,,,,,,,,
65c528cadf7003767a4d311f,TCR,2024-06-21_13h51.54.083,LearnStrategy,2023.2.3,Win32,59.88023952,8,1,8,0.0703125,0.0078125,1,0,0,0.8679,rock_grid_rect_2,7,04,-1,-1,0.868,0.32421875,-0.248697917,1,0,0,4.5609,Gabbro_rect,4,4.561,0,7,0,7,0,1,,,,,,,,,,,,,
65c528cadf7003767a4d311f,TCR,2024-06-21_13h51.54.083,LearnStrategy,2023.2.3,Win32,59.88023952,8,1,9,0.071614583,-0.018229167,1,0,0,0.7045,rock_grid_rect_2,3,07,-1,-1,0.704,0.115885417,-0.251302083,1,0,0,1.4915,Diorite_rect,3,1.492,1,8,0,8,0,1,,,,,,,,,,,,,
65c528cadf7003767a4d311f,TCR,2024-06-21_13h51.54.083,LearnStrategy,2023.2.3,Win32,59.88023952,8,1,10,0.104166667,-0.01953125,1,0,0,0.6643,rock_grid_rect_2,1,07,-1,-1,0.664,-0.334635417,-0.251302083,1,0,0,2.2771,Andesite_rect,1,2.277,1,9,0,9,0,1,,,,,,,,,,,,,
65c528cadf7003767a4d311f,TCR,2024-06-21_13h51.54.083,LearnStrategy,2023.2.3,Win32,59.88023952,8,1,11,0.153645833,0.005208333,1,0,0,0.9752,rock_grid_rect_2,4,15,-1,-1,0.975,0.3984375,-0.26171875,1,0,0,1.2993,Gabbro_rect,4,1.299,1,10,0,10,0,1,,,,,,,,,,,,,
65c528cadf7003767a4d311f,TCR,2024-06-21_13h51.54.083,LearnStrategy,2023.2.3,Win32,59.88023952,8,1,12,0.109375,0.022135417,1,0,0,0.7479,rock_grid_rect_2,2,08,-1,-1,0.748,-0.072916667,-0.265625,1,0,0,1.1959,Basalt_rect,2,1.196,1,11,0,11,0,1,,,,,,,,,,,,,
65c528cadf7003767a4d311f,TCR,2024-06-21_13h51.54.083,LearnStrategy,2023.2.3,Win32,59.88023952,8,1,13,0.044270833,-0.020833333,1,0,0,0.9133,rock_grid_rect_2,1,05,-1,-1,0.913,-0.33984375,-0.252604167,1,0,0,2.0078,Andesite_rect,1,2.008,1,12,0,12,0,1,,,,,,,,,,,,,
65c528cadf7003767a4d311f,TCR,2024-06-21_13h51.54.083,LearnStrategy,2023.2.3,Win32,59.88023952,8,1,14,0.032552083,0.00390625,1,0,0,0.9631,rock_grid_rect_2,5,06,-1,-1,0.963,-0.37890625,-0.40625,1,0,0,1.0269,Obsidian_rect,5,1.027,1,13,0,13,0,1,,,,,,,,,,,,,
65c528cadf7003767a4d311f,TCR,2024-06-21_13h51.54.083,LearnStrategy,2023.2.3,Win32,59.88023952,8,1,15,0.05078125,-0.018229167,1,0,0,0.8479,rock_grid_rect_2,4,03,-1,-1,0.848,0.330729167,-0.23828125,1,0,0,1.276,Gabbro_rect,4,1.276,1,14,0,14,0,1,,,,,,,,,,,,,
65c528cadf7003767a4d311f,TCR,2024-06-21_13h51.54.083,LearnStrategy,2023.2.3,Win32,59.88023952,8,1,16,0.12109375,0.016927083,1,0,0,0.6638,rock_grid_rect_2,2,11,-1,-1,0.664,-0.203125,-0.248697917,1,0,0,1.6553,Basalt_rect,2,1.655,1,15,0,15,0,1,,,,,,,,,,,,,
65c528cadf7003767a4d311f,TCR,2024-06-21_13h51.54.083,LearnStrategy,2023.2.3,Win32,59.88023952,8,2,1,,,,,,,,7,07,,,,,,,,,,,7,3.662,1,,,,,,0.12109375,-0.403645833,1,0,0,3.6622,Peridotite_rect,0,0,0,0,1,
65c528cadf7003767a4d311f,TCR,2024-06-21_13h51.54.083,LearnStrategy,2023.2.3,Win32,59.88023952,8,2,2,,,,,,,,5,07,,,,,,,,,,,5,0.859,1,,,,,,-0.299479167,-0.403645833,1,0,0,0.8588,Obsidian_rect,1,0,1,0,1,
65c528cadf7003767a4d311f,TCR,2024-06-21_13h51.54.083,LearnStrategy,2023.2.3,Win32,59.88023952,8,2,3,,,,,,,,2,10,,,,,,,,,,,2,0.859,1,,,,,,-0.177083333,-0.268229167,1,0,0,0.8587,Basalt_rect,2,0,2,0,1,
65c528cadf7003767a4d311f,TCR,2024-06-21_13h51.54.083,LearnStrategy,2023.2.3,Win32,59.88023952,8,2,4,,,,,,,,1,03,,,,,,,,,,,1,1.042,1,,,,,,-0.39453125,-0.26171875,1,0,0,1.0419,Andesite_rect,3,0,3,0,1,
65c528cadf7003767a4d311f,TCR,2024-06-21_13h51.54.083,LearnStrategy,2023.2.3,Win32,59.88023952,8,2,5,,,,,,,,5,09,,,,,,,,,,,5,0.829,1,,,,,,-0.361979167,-0.40234375,1,0,0,0.8287,Obsidian_rect,4,0,4,0,1,
65c528cadf7003767a4d311f,TCR,2024-06-21_13h51.54.083,LearnStrategy,2023.2.3,Win32,59.88023952,8,2,6,,,,,,,,8,04,,,,,,,,,,,8,1.054,1,,,,,,0.385416667,-0.408854167,1,0,0,1.0545,Pumice_rect,5,0,5,0,1,
65c528cadf7003767a4d311f,TCR,2024-06-21_13h51.54.083,LearnStrategy,2023.2.3,Win32,59.88023952,8,2,7,,,,,,,,8,14,,,,,,,,,,,8,1.1,1,,,,,,0.444010417,-0.407552083,1,0,0,1.0996,Pumice_rect,6,0,6,0,1,
65c528cadf7003767a4d311f,TCR,2024-06-21_13h51.54.083,LearnStrategy,2023.2.3,Win32,59.88023952,8,2,8,,,,,,,,4,14,,,,,,,,,,,4,2.693,1,,,,,,0.4296875,-0.25,1,0,0,2.693,Gabbro_rect,7,0,7,0,1,
65c528cadf7003767a4d311f,TCR,2024-06-21_13h51.54.083,LearnStrategy,2023.2.3,Win32,59.88023952,8,2,9,,,,,,,,3,11,,,,,,,,,,,3,1.177,1,,,,,,0.127604167,-0.235677083,1,0,0,1.1771,Diorite_rect,8,0,8,0,1,
65c528cadf7003767a4d311f,TCR,2024-06-21_13h51.54.083,LearnStrategy,2023.2.3,Win32,59.88023952,8,2,10,,,,,,,,6,08,,,,,,,,,,,6,1.019,1,,,,,,-0.1171875,-0.399739583,1,0,0,1.0192,Pegmatite_rect,9,0,9,0,1,
65c528cadf7003767a4d311f,TCR,2024-06-21_13h51.54.083,LearnStrategy,2023.2.3,Win32,59.88023952,8,2,11,,,,,,,,2,04,,,,,,,,,,,2,1.233,1,,,,,,-0.109375,-0.268229167,1,0,0,1.233,Basalt_rect,10,0,10,0,1,
65c528cadf7003767a4d311f,TCR,2024-06-21_13h51.54.083,LearnStrategy,2023.2.3,Win32,59.88023952,8,2,12,,,,,,,,6,06,,,,,,,,,,,3,4.941,0,,,,,,0.1015625,-0.265625,1,0,0,4.9411,Diorite_rect,11,0,11,0,1,
65c528cadf7003767a4d311f,TCR,2024-06-21_13h51.54.083,LearnStrategy,2023.2.3,Win32,59.88023952,8,2,13,,,,,,,,7,13,,,,,,,,,,,7,1.243,1,,,,,,0.135416667,-0.40234375,1,0,0,1.2432,Peridotite_rect,12,0,12,0,1,
65c528cadf7003767a4d311f,TCR,2024-06-21_13h51.54.083,LearnStrategy,2023.2.3,Win32,59.88023952,8,2,14,,,,,,,,1,10,,,,,,,,,,,1,6.439,1,,,,,,-0.329427083,-0.265625,1,0,0,6.4385,Andesite_rect,13,0,13,0,1,
65c528cadf7003767a4d311f,TCR,2024-06-21_13h51.54.083,LearnStrategy,2023.2.3,Win32,59.88023952,8,2,15,,,,,,,,4,10,,,,,,,,,,,4,1.645,1,,,,,,0.361979167,-0.255208333,1,0,0,1.6455,Gabbro_rect,14,0,14,0,1,
65c528cadf7003767a4d311f,TCR,2024-06-21_13h51.54.083,LearnStrategy,2023.2.3,Win32,59.88023952,8,2,16,,,,,,,,3,06,,,,,,,,,,,3,1.319,1,,,,,,0.104166667,-0.23828125,1,0,0,1.3191,Diorite_rect,15,0,15,0,1,
65c528cadf7003767a4d311f,TCR,2024-06-21_13h51.54.083,LearnStrategy,2023.2.3,Win32,59.88023952,9,1,1,0.08984375,0.016927083,1,0,0,1.0428,rock_grid_rect_2,7,14,-1,-1,1.043,0.11328125,-0.404947917,1,0,0,1.5878,Peridotite_rect,7,1.588,1,0,0,0,0,1,,,,,,,,,,,,,
65c528cadf7003767a4d311f,TCR,2024-06-21_13h51.54.083,LearnStrategy,2023.2.3,Win32,59.88023952,9,1,2,0.110677083,0.013020833,1,0,0,0.8835,rock_grid_rect_2,2,16,-1,-1,0.883,-0.130208333,-0.2578125,1,0,0,1.0151,Basalt_rect,2,1.015,1,1,0,1,0,1,,,,,,,,,,,,,
65c528cadf7003767a4d311f,TCR,2024-06-21_13h51.54.083,LearnStrategy,2023.2.3,Win32,59.88023952,9,1,3,0.080729167,0.002604167,1,0,0,0.781,rock_grid_rect_2,4,13,-1,-1,0.781,0.40625,-0.248697917,1,0,0,1.7216,Gabbro_rect,4,1.722,1,2,0,2,0,1,,,,,,,,,,,,,
65c528cadf7003767a4d311f,TCR,2024-06-21_13h51.54.083,LearnStrategy,2023.2.3,Win32,59.88023952,9,1,4,0.131510417,0.002604167,1,0,0,0.631,rock_grid_rect_2,2,01,-1,-1,0.631,-0.126302083,-0.243489583,1,0,0,0.8822,Basalt_rect,2,0.882,1,3,0,3,0,1,,,,,,,,,,,,,
65c528cadf7003767a4d311f,TCR,2024-06-21_13h51.54.083,LearnStrategy,2023.2.3,Win32,59.88023952,9,1,5,0.06640625,0,1,0,0,0.6643,rock_grid_rect_2,6,09,-1,-1,0.664,-0.100260417,-0.401041667,1,0,0,1.0092,Pegmatite_rect,6,1.009,1,4,0,4,0,1,,,,,,,,,,,,,
65c528cadf7003767a4d311f,TCR,2024-06-21_13h51.54.083,LearnStrategy,2023.2.3,Win32,59.88023952,9,1,6,0.026041667,0.01171875,1,0,0,0.6157,rock_grid_rect_2,6,13,-1,-1,0.616,-0.095052083,-0.393229167,1,0,0,1.2714,Pegmatite_rect,6,1.271,1,5,0,5,0,1,,,,,,,,,,,,,
65c528cadf7003767a4d311f,TCR,2024-06-21_13h51.54.083,LearnStrategy,2023.2.3,Win32,59.88023952,9,1,7,0.041666667,-0.002604167,1,0,0,0.6644,rock_grid_rect_2,1,05,-1,-1,0.664,-0.34765625,-0.25,1,0,0,1.2078,Andesite_rect,1,1.208,1,6,0,6,0,1,,,,,,,,,,,,,
65c528cadf7003767a4d311f,TCR,2024-06-21_13h51.54.083,LearnStrategy,2023.2.3,Win32,59.88023952,9,1,8,0.040364583,-0.010416667,1,0,0,1.1476,rock_grid_rect_2,2,01,-1,-1,1.148,-0.095052083,-0.233072917,1,0,0,1.695,Basalt_rect,2,1.695,1,7,0,7,0,1,,,,,,,,,,,,,
65c528cadf7003767a4d311f,TCR,2024-06-21_13h51.54.083,LearnStrategy,2023.2.3,Win32,59.88023952,9,1,9,0.053385417,-0.0078125,1,0,0,0.7969,rock_grid_rect_2,8,03,-1,-1,0.797,0.33203125,-0.38671875,1,0,0,2.0879,Pumice_rect,8,2.088,1,8,0,8,0,1,,,,,,,,,,,,,
65c528cadf7003767a4d311f,TCR,2024-06-21_13h51.54.083,LearnStrategy,2023.2.3,Win32,59.88023952,9,1,10,0.09375,-0.0078125,1,0,0,0.7002,rock_grid_rect_2,4,08,-1,-1,0.7,0.390625,-0.25390625,1,0,0,1.2634,Gabbro_rect,4,1.263,1,9,0,9,0,1,,,,,,,,,,,,,
65c528cadf7003767a4d311f,TCR,2024-06-21_13h51.54.083,LearnStrategy,2023.2.3,Win32,59.88023952,9,1,11,0.126302083,0.018229167,1,0,0,0.9843,rock_grid_rect_2,1,11,-1,-1,0.984,-0.341145833,-0.247395833,1,0,0,1.0327,Andesite_rect,1,1.033,1,10,0,10,0,1,,,,,,,,,,,,,
65c528cadf7003767a4d311f,TCR,2024-06-21_13h51.54.083,LearnStrategy,2023.2.3,Win32,59.88023952,9,1,12,0.067708333,-0.00390625,1,0,0,0.8635,rock_grid_rect_2,6,07,-1,-1,0.863,-0.06640625,-0.41015625,1,0,0,1.2971,Pegmatite_rect,6,1.297,1,11,0,11,0,1,,,,,,,,,,,,,
65c528cadf7003767a4d311f,TCR,2024-06-21_13h51.54.083,LearnStrategy,2023.2.3,Win32,59.88023952,9,1,13,0.03125,0.014322917,1,0,0,0.7142,rock_grid_rect_2,3,15,-1,-1,0.714,0.34375,-0.231770833,1,0,0,1.793,Gabbro_rect,4,1.793,0,12,0,12,0,1,,,,,,,,,,,,,
65c528cadf7003767a4d311f,TCR,2024-06-21_13h51.54.083,LearnStrategy,2023.2.3,Win32,59.88023952,9,1,14,0.10546875,0.005208333,1,0,0,0.9472,rock_grid_rect_2,7,04,-1,-1,0.947,-0.154947917,-0.404947917,1,0,0,2.6543,Pegmatite_rect,6,2.654,0,13,0,13,0,1,,,,,,,,,,,,,
65c528cadf7003767a4d311f,TCR,2024-06-21_13h51.54.083,LearnStrategy,2023.2.3,Win32,59.88023952,9,1,15,0.049479167,-0.020833333,1,0,0,0.8636,rock_grid_rect_2,5,14,-1,-1,0.864,-0.358072917,-0.408854167,1,0,0,1.1008,Obsidian_rect,5,1.101,1,14,0,14,0,1,,,,,,,,,,,,,
65c528cadf7003767a4d311f,TCR,2024-06-21_13h51.54.083,LearnStrategy,2023.2.3,Win32,59.88023952,9,1,16,0.037760417,-0.013020833,1,0,0,1.263,rock_grid_rect_2,1,04,-1,-1,1.263,-0.346354167,-0.24609375,1,0,0,0.9818,Andesite_rect,1,0.982,1,15,0,15,0,1,,,,,,,,,,,,,
65c528cadf7003767a4d311f,TCR,2024-06-21_13h51.54.083,LearnStrategy,2023.2.3,Win32,59.88023952,9,2,1,,,,,,,,5,11,,,,,,,,,,,5,0.984,1,,,,,,-0.39453125,-0.420572917,1,0,0,0.9841,Obsidian_rect,0,0,0,0,1,
65c528cadf7003767a4d311f,TCR,2024-06-21_13h51.54.083,LearnStrategy,2023.2.3,Win32,59.88023952,9,2,2,,,,,,,,3,13,,,,,,,,,,,3,5.546,1,,,,,,0.09765625,-0.240885417,1,0,0,5.5459,Diorite_rect,1,0,1,0,1,
65c528cadf7003767a4d311f,TCR,2024-06-21_13h51.54.083,LearnStrategy,2023.2.3,Win32,59.88023952,9,2,3,,,,,,,,8,15,,,,,,,,,,,8,1.633,1,,,,,,0.395833333,-0.384114583,1,0,0,1.6332,Pumice_rect,2,0,2,0,1,
65c528cadf7003767a4d311f,TCR,2024-06-21_13h51.54.083,LearnStrategy,2023.2.3,Win32,59.88023952,9,2,4,,,,,,,,5,12,,,,,,,,,,,5,0.928,1,,,,,,-0.364583333,-0.41015625,1,0,0,0.9282,Obsidian_rect,3,0,3,0,1,
65c528cadf7003767a4d311f,TCR,2024-06-21_13h51.54.083,LearnStrategy,2023.2.3,Win32,59.88023952,9,2,5,,,,,,,,7,10,,,,,,,,,,,7,1.25,1,,,,,,0.1640625,-0.397135417,1,0,0,1.2497,Peridotite_rect,4,0,4,0,1,
65c528cadf7003767a4d311f,TCR,2024-06-21_13h51.54.083,LearnStrategy,2023.2.3,Win32,59.88023952,9,2,6,,,,,,,,4,09,,,,,,,,,,,4,2.669,1,,,,,,0.408854167,-0.231770833,1,0,0,2.6691,Gabbro_rect,5,0,5,0,1,
65c528cadf7003767a4d311f,TCR,2024-06-21_13h51.54.083,LearnStrategy,2023.2.3,Win32,59.88023952,9,2,7,,,,,,,,2,09,,,,,,,,,,,2,0.915,1,,,,,,-0.102864583,-0.2421875,1,0,0,0.9152,Basalt_rect,6,0,6,0,1,
65c528cadf7003767a4d311f,TCR,2024-06-21_13h51.54.083,LearnStrategy,2023.2.3,Win32,59.88023952,9,2,8,,,,,,,,3,16,,,,,,,,,,,3,0.826,1,,,,,,0.072916667,-0.252604167,1,0,0,0.8262,Diorite_rect,7,0,7,0,1,
65c528cadf7003767a4d311f,TCR,2024-06-21_13h51.54.083,LearnStrategy,2023.2.3,Win32,59.88023952,9,2,9,,,,,,,,1,02,,,,,,,,,,,1,1.392,1,,,,,,-0.365885417,-0.25390625,1,0,0,1.3924,Andesite_rect,8,0,8,0,1,
65c528cadf7003767a4d311f,TCR,2024-06-21_13h51.54.083,LearnStrategy,2023.2.3,Win32,59.88023952,9,2,10,,,,,,,,2,05,,,,,,,,,,,2,0.77,1,,,,,,-0.1484375,-0.255208333,1,0,0,0.7698,Basalt_rect,9,0,9,0,1,
65c528cadf7003767a4d311f,TCR,2024-06-21_13h51.54.083,LearnStrategy,2023.2.3,Win32,59.88023952,9,2,11,,,,,,,,8,05,,,,,,,,,,,8,1.206,1,,,,,,0.348958333,-0.403645833,1,0,0,1.2061,Pumice_rect,10,0,10,0,1,
65c528cadf7003767a4d311f,TCR,2024-06-21_13h51.54.083,LearnStrategy,2023.2.3,Win32,59.88023952,9,2,12,,,,,,,,7,12,,,,,,,,,,,7,2.182,1,,,,,,0.123697917,-0.395833333,1,0,0,2.1817,Peridotite_rect,11,0,11,0,1,
65c528cadf7003767a4d311f,TCR,2024-06-21_13h51.54.083,LearnStrategy,2023.2.3,Win32,59.88023952,9,2,13,,,,,,,,6,12,,,,,,,,,,,3,1.612,0,,,,,,0.12109375,-0.243489583,1,0,0,1.6122,Diorite_rect,12,0,12,0,1,
65c528cadf7003767a4d311f,TCR,2024-06-21_13h51.54.083,LearnStrategy,2023.2.3,Win32,59.88023952,9,2,14,,,,,,,,4,16,,,,,,,,,,,4,1.589,1,,,,,,0.397135417,-0.251302083,1,0,0,1.589,Gabbro_rect,13,0,13,0,1,
65c528cadf7003767a4d311f,TCR,2024-06-21_13h51.54.083,LearnStrategy,2023.2.3,Win32,59.88023952,9,2,15,,,,,,,,6,15,,,,,,,,,,,6,0.975,1,,,,,,-0.1015625,-0.404947917,1,0,0,0.9753,Pegmatite_rect,14,0,14,0,1,
65c528cadf7003767a4d311f,TCR,2024-06-21_13h51.54.083,LearnStrategy,2023.2.3,Win32,59.88023952,9,2,16,,,,,,,,1,14,,,,,,,,,,,1,2.044,1,,,,,,-0.372395833,-0.251302083,1,0,0,2.0444,Andesite_rect,15,0,15,0,1,
65c528cadf7003767a4d311f,TCR,2024-06-21_13h51.54.083,LearnStrategy,2023.2.3,Win32,59.88023952,,,,,,,,,,,,,,,,,,,,,,,,,,,,,,,,,,,,,,,,,,,1
65c528cadf7003767a4d311f,TCR,2024-06-21_13h51.54.083,LearnStrategy,2023.2.3,Win32,59.88023952,,,,,,,,,,,,,,,,,,,,,,,,,,,,,,,,,,,,,,,,,,,
65c528cadf7003767a4d311f,TCR,2024-06-21_13h51.54.083,LearnStrategy,2023.2.3,Win32,59.88023952,,,,,,,,,,,3,12,1,1,,,,,,,,,,,,,,,,,,,,,,,,,,,,,
65c528cadf7003767a4d311f,TCR,2024-06-21_13h51.54.083,LearnStrategy,2023.2.3,Win32,59.88023952,,,,,,,,,,,3,15,1,2,,,,,,,,,,,,,,,,,,,,,,,,,,,,,
65c528cadf7003767a4d311f,TCR,2024-06-21_13h51.54.083,LearnStrategy,2023.2.3,Win32,59.88023952,,,,,,,,,,,8,13,1,3,,,,,,,,,,,,,,,,,,,,,,,,,,,,,
65c528cadf7003767a4d311f,TCR,2024-06-21_13h51.54.083,LearnStrategy,2023.2.3,Win32,59.88023952,,,,,,,,,,,1,07,1,4,,,,,,,,,,,,,,,,,,,,,,,,,,,,,
65c528cadf7003767a4d311f,TCR,2024-06-21_13h51.54.083,LearnStrategy,2023.2.3,Win32,59.88023952,,,,,,,,,,,1,05,1,5,,,,,,,,,,,,,,,,,,,,,,,,,,,,,
65c528cadf7003767a4d311f,TCR,2024-06-21_13h51.54.083,LearnStrategy,2023.2.3,Win32,59.88023952,,,,,,,,,,,6,09,1,6,,,,,,,,,,,,,,,,,,,,,,,,,,,,,
65c528cadf7003767a4d311f,TCR,2024-06-21_13h51.54.083,LearnStrategy,2023.2.3,Win32,59.88023952,,,,,,,,,,,1,11,1,7,,,,,,,,,,,,,,,,,,,,,,,,,,,,,
65c528cadf7003767a4d311f,TCR,2024-06-21_13h51.54.083,LearnStrategy,2023.2.3,Win32,59.88023952,,,,,,,,,,,1,04,1,8,,,,,,,,,,,,,,,,,,,,,,,,,,,,,
65c528cadf7003767a4d311f,TCR,2024-06-21_13h51.54.083,LearnStrategy,2023.2.3,Win32,59.88023952,,,,,,,,,,,4,15,2,1,,,,,,,,,,,,,,,,,,,,,,,,,,,,,
65c528cadf7003767a4d311f,TCR,2024-06-21_13h51.54.083,LearnStrategy,2023.2.3,Win32,59.88023952,,,,,,,,,,,5,05,2,2,,,,,,,,,,,,,,,,,,,,,,,,,,,,,
65c528cadf7003767a4d311f,TCR,2024-06-21_13h51.54.083,LearnStrategy,2023.2.3,Win32,59.88023952,,,,,,,,,,,6,16,2,3,,,,,,,,,,,,,,,,,,,,,,,,,,,,,
65c528cadf7003767a4d311f,TCR,2024-06-21_13h51.54.083,LearnStrategy,2023.2.3,Win32,59.88023952,,,,,,,,,,,2,16,2,4,,,,,,,,,,,,,,,,,,,,,,,,,,,,,
65c528cadf7003767a4d311f,TCR,2024-06-21_13h51.54.083,LearnStrategy,2023.2.3,Win32,59.88023952,,,,,,,,,,,2,06,2,5,,,,,,,,,,,,,,,,,,,,,,,,,,,,,
65c528cadf7003767a4d311f,TCR,2024-06-21_13h51.54.083,LearnStrategy,2023.2.3,Win32,59.88023952,,,,,,,,,,,1,16,2,6,,,,,,,,,,,,,,,,,,,,,,,,,,,,,
65c528cadf7003767a4d311f,TCR,2024-06-21_13h51.54.083,LearnStrategy,2023.2.3,Win32,59.88023952,,,,,,,,,,,8,03,2,7,,,,,,,,,,,,,,,,,,,,,,,,,,,,,
65c528cadf7003767a4d311f,TCR,2024-06-21_13h51.54.083,LearnStrategy,2023.2.3,Win32,59.88023952,,,,,,,,,,,8,08,2,8,,,,,,,,,,,,,,,,,,,,,,,,,,,,,
65c528cadf7003767a4d311f,TCR,2024-06-21_13h51.54.083,LearnStrategy,2023.2.3,Win32,59.88023952,,,,,,,,,,,7,06,3,1,,,,,,,,,,,,,,,,,,,,,,,,,,,,,
65c528cadf7003767a4d311f,TCR,2024-06-21_13h51.54.083,LearnStrategy,2023.2.3,Win32,59.88023952,,,,,,,,,,,8,10,3,2,,,,,,,,,,,,,,,,,,,,,,,,,,,,,
65c528cadf7003767a4d311f,TCR,2024-06-21_13h51.54.083,LearnStrategy,2023.2.3,Win32,59.88023952,,,,,,,,,,,2,11,3,3,,,,,,,,,,,,,,,,,,,,,,,,,,,,,
65c528cadf7003767a4d311f,TCR,2024-06-21_13h51.54.083,LearnStrategy,2023.2.3,Win32,59.88023952,,,,,,,,,,,4,08,3,4,,,,,,,,,,,,,,,,,,,,,,,,,,,,,
65c528cadf7003767a4d311f,TCR,2024-06-21_13h51.54.083,LearnStrategy,2023.2.3,Win32,59.88023952,,,,,,,,,,,8,09,3,5,,,,,,,,,,,,,,,,,,,,,,,,,,,,,
65c528cadf7003767a4d311f,TCR,2024-06-21_13h51.54.083,LearnStrategy,2023.2.3,Win32,59.88023952,,,,,,,,,,,3,07,3,6,,,,,,,,,,,,,,,,,,,,,,,,,,,,,
65c528cadf7003767a4d311f,TCR,2024-06-21_13h51.54.083,LearnStrategy,2023.2.3,Win32,59.88023952,,,,,,,,,,,7,15,3,7,,,,,,,,,,,,,,,,,,,,,,,,,,,,,
65c528cadf7003767a4d311f,TCR,2024-06-21_13h51.54.083,LearnStrategy,2023.2.3,Win32,59.88023952,,,,,,,,,,,7,02,3,8,,,,,,,,,,,,,,,,,,,,,,,,,,,,,
65c528cadf7003767a4d311f,TCR,2024-06-21_13h51.54.083,LearnStrategy,2023.2.3,Win32,59.88023952,,,,,,,,,,,3,14,4,1,,,,,,,,,,,,,,,,,,,,,,,,,,,,,
65c528cadf7003767a4d311f,TCR,2024-06-21_13h51.54.083,LearnStrategy,2023.2.3,Win32,59.88023952,,,,,,,,,,,4,05,4,2,,,,,,,,,,,,,,,,,,,,,,,,,,,,,
65c528cadf7003767a4d311f,TCR,2024-06-21_13h51.54.083,LearnStrategy,2023.2.3,Win32,59.88023952,,,,,,,,,,,5,10,4,3,,,,,,,,,,,,,,,,,,,,,,,,,,,,,
65c528cadf7003767a4d311f,TCR,2024-06-21_13h51.54.083,LearnStrategy,2023.2.3,Win32,59.88023952,,,,,,,,,,,6,07,4,4,,,,,,,,,,,,,,,,,,,,,,,,,,,,,
65c528cadf7003767a4d311f,TCR,2024-06-21_13h51.54.083,LearnStrategy,2023.2.3,Win32,59.88023952,,,,,,,,,,,7,08,4,5,,,,,,,,,,,,,,,,,,,,,,,,,,,,,
65c528cadf7003767a4d311f,TCR,2024-06-21_13h51.54.083,LearnStrategy,2023.2.3,Win32,59.88023952,,,,,,,,,,,8,06,4,6,,,,,,,,,,,,,,,,,,,,,,,,,,,,,
65c528cadf7003767a4d311f,TCR,2024-06-21_13h51.54.083,LearnStrategy,2023.2.3,Win32,59.88023952,,,,,,,,,,,5,16,4,7,,,,,,,,,,,,,,,,,,,,,,,,,,,,,
65c528cadf7003767a4d311f,TCR,2024-06-21_13h51.54.083,LearnStrategy,2023.2.3,Win32,59.88023952,,,,,,,,,,,5,02,4,8,,,,,,,,,,,,,,,,,,,,,,,,,,,,,
65c528cadf7003767a4d311f,TCR,2024-06-21_13h51.54.083,LearnStrategy,2023.2.3,Win32,59.88023952,,,,,,,,,,,2,01,5,1,,,,,,,,,,,,,,,,,,,,,,,,,,,,,
65c528cadf7003767a4d311f,TCR,2024-06-21_13h51.54.083,LearnStrategy,2023.2.3,Win32,59.88023952,,,,,,,,,,,6,13,5,2,,,,,,,,,,,,,,,,,,,,,,,,,,,,,
65c528cadf7003767a4d311f,TCR,2024-06-21_13h51.54.083,LearnStrategy,2023.2.3,Win32,59.88023952,,,,,,,,,,,5,06,5,3,,,,,,,,,,,,,,,,,,,,,,,,,,,,,
65c528cadf7003767a4d311f,TCR,2024-06-21_13h51.54.083,LearnStrategy,2023.2.3,Win32,59.88023952,,,,,,,,,,,5,14,5,4,,,,,,,,,,,,,,,,,,,,,,,,,,,,,
65c528cadf7003767a4d311f,TCR,2024-06-21_13h51.54.083,LearnStrategy,2023.2.3,Win32,59.88023952,,,,,,,,,,,4,11,5,5,,,,,,,,,,,,,,,,,,,,,,,,,,,,,
65c528cadf7003767a4d311f,TCR,2024-06-21_13h51.54.083,LearnStrategy,2023.2.3,Win32,59.88023952,,,,,,,,,,,1,09,5,6,,,,,,,,,,,,,,,,,,,,,,,,,,,,,
65c528cadf7003767a4d311f,TCR,2024-06-21_13h51.54.083,LearnStrategy,2023.2.3,Win32,59.88023952,,,,,,,,,,,7,04,5,7,,,,,,,,,,,,,,,,,,,,,,,,,,,,,
65c528cadf7003767a4d311f,TCR,2024-06-21_13h51.54.083,LearnStrategy,2023.2.3,Win32,59.88023952,,,,,,,,,,,4,03,5,8,,,,,,,,,,,,,,,,,,,,,,,,,,,,,
65c528cadf7003767a4d311f,TCR,2024-06-21_13h51.54.083,LearnStrategy,2023.2.3,Win32,59.88023952,,,,,,,,,,,7,14,6,1,,,,,,,,,,,,,,,,,,,,,,,,,,,,,
65c528cadf7003767a4d311f,TCR,2024-06-21_13h51.54.083,LearnStrategy,2023.2.3,Win32,59.88023952,,,,,,,,,,,4,13,6,2,,,,,,,,,,,,,,,,,,,,,,,,,,,,,
65c528cadf7003767a4d311f,TCR,2024-06-21_13h51.54.083,LearnStrategy,2023.2.3,Win32,59.88023952,,,,,,,,,,,6,11,6,3,,,,,,,,,,,,,,,,,,,,,,,,,,,,,
65c528cadf7003767a4d311f,TCR,2024-06-21_13h51.54.083,LearnStrategy,2023.2.3,Win32,59.88023952,,,,,,,,,,,2,08,6,4,,,,,,,,,,,,,,,,,,,,,,,,,,,,,
65c528cadf7003767a4d311f,TCR,2024-06-21_13h51.54.083,LearnStrategy,2023.2.3,Win32,59.88023952,,,,,,,,,,,2,02,6,5,,,,,,,,,,,,,,,,,,,,,,,,,,,,,
65c528cadf7003767a4d311f,TCR,2024-06-21_13h51.54.083,LearnStrategy,2023.2.3,Win32,59.88023952,,,,,,,,,,,3,08,6,6,,,,,,,,,,,,,,,,,,,,,,,,,,,,,
65c528cadf7003767a4d311f,TCR,2024-06-21_13h51.54.083,LearnStrategy,2023.2.3,Win32,59.88023952,,,,,,,,,,,6,05,6,7,,,,,,,,,,,,,,,,,,,,,,,,,,,,,
65c528cadf7003767a4d311f,TCR,2024-06-21_13h51.54.083,LearnStrategy,2023.2.3,Win32,59.88023952,,,,,,,,,,,3,10,6,8,,,,,,,,,,,,,,,,,,,,,,,,,,,,,