participant,condition,date,expName,psychopyVersion,OS,frameRate,block,phase,trial,learn_mouse_2.x,learn_mouse_2.y,learn_mouse_2.leftButton,learn_mouse_2.midButton,learn_mouse_2.rightButton,learn_mouse_2.time,learn_mouse_2.clicked_name,cat,token,row,col,t_select,cat_mouse_l.x,cat_mouse_l.y,cat_mouse_l.leftButton,cat_mouse_l.midButton,cat_mouse_l.rightButton,cat_mouse_l.time,cat_mouse_l.clicked_name,resp,t_resp,corr,train_trials.thisRepN,train_trials.thisTrialN,train_trials.thisN,train_trials.thisIndex,train_trials.ran,cat_mouse_t.x,cat_mouse_t.y,cat_mouse_t.leftButton,cat_mouse_t.midButton,cat_mouse_t.rightButton,cat_mouse_t.time,cat_mouse_t.clicked_name,test_trials.thisRepN,test_trials.thisTrialN,test_trials.thisN,test_trials.thisIndex,test_trials.ran,Bonus
65c6bbe7f9428763522fa244,TCN,2024-06-11_13h17.40.511,LearnStrategy,2023.2.3,Win32,59.88023952,,,,,,,,,,,,,,,,,,,,,,,,,,,,,,,,,,,,,,,,,,,
65c6bbe7f9428763522fa244,TCN,2024-06-11_13h17.40.511,LearnStrategy,2023.2.3,Win32,59.88023952,1,1,1,0.0234375,-0.01171875,1,0,0,5.9452,rock_grid_rect_2,5,12,-1,-1,5.945,-0.403645833,-0.407552083,1,0,0,11.4958,Obsidian_rect,5,11.496,1,0,0,0,0,1,,,,,,,,,,,,,
65c6bbe7f9428763522fa244,TCN,2024-06-11_13h17.40.511,LearnStrategy,2023.2.3,Win32,59.88023952,1,1,2,0.020833333,0.009114583,1,0,0,2.2017,rock_grid_rect_2,7,07,-1,-1,2.202,0.123697917,-0.236979167,1,0,0,19.4512,Diorite_rect,3,19.451,0,1,0,1,0,1,,,,,,,,,,,,,
65c6bbe7f9428763522fa244,TCN,2024-06-11_13h17.40.511,LearnStrategy,2023.2.3,Win32,59.88023952,1,1,3,0.032552083,0.0078125,1,0,0,1.7975,rock_grid_rect_2,6,03,-1,-1,1.798,-0.143229167,-0.2578125,1,0,0,17.7648,Basalt_rect,2,17.765,0,2,0,2,0,1,,,,,,,,,,,,,
65c6bbe7f9428763522fa244,TCN,2024-06-11_13h17.40.511,LearnStrategy,2023.2.3,Win32,59.88023952,1,1,4,0.0625,-0.018229167,1,0,0,1.8119,rock_grid_rect_2,1,06,-1,-1,1.812,0.110677083,-0.239583333,1,0,0,8.6554,Diorite_rect,3,8.655,0,3,0,3,0,1,,,,,,,,,,,,,
65c6bbe7f9428763522fa244,TCN,2024-06-11_13h17.40.511,LearnStrategy,2023.2.3,Win32,59.88023952,1,1,5,0.114583333,0.015625,1,0,0,2.168,rock_grid_rect_2,7,04,-1,-1,2.168,0.154947917,-0.24609375,1,0,0,8.3483,Diorite_rect,3,8.348,0,4,0,4,0,1,,,,,,,,,,,,,
65c6bbe7f9428763522fa244,TCN,2024-06-11_13h17.40.511,LearnStrategy,2023.2.3,Win32,59.88023952,1,1,6,0.002604167,0.0078125,1,0,0,2.0281,rock_grid_rect_2,8,05,-1,-1,2.028,0.412760417,-0.229166667,1,0,0,4.9893,Gabbro_rect,4,4.989,0,5,0,5,0,1,,,,,,,,,,,,,
65c6bbe7f9428763522fa244,TCN,2024-06-11_13h17.40.511,LearnStrategy,2023.2.3,Win32,59.88023952,1,1,7,0.036458333,0.00390625,1,0,0,2.2965,rock_grid_rect_2,8,15,-1,-1,2.297,0.372395833,-0.263020833,1,0,0,4.2583,Gabbro_rect,4,4.258,0,6,0,6,0,1,,,,,,,,,,,,,
65c6bbe7f9428763522fa244,TCN,2024-06-11_13h17.40.511,LearnStrategy,2023.2.3,Win32,59.88023952,1,1,8,0.022135417,-0.001302083,1,0,0,9.2084,rock_grid_rect_2,5,14,-1,-1,9.208,-0.352864583,-0.388020833,1,0,0,3.0675,Obsidian_rect,5,3.068,1,7,0,7,0,1,,,,,,,,,,,,,
65c6bbe7f9428763522fa244,TCN,2024-06-11_13h17.40.511,LearnStrategy,2023.2.3,Win32,59.88023952,1,1,9,0.006510417,0.006510417,1,0,0,1.9906,rock_grid_rect_2,2,16,-1,-1,1.991,0.354166667,-0.25390625,1,0,0,8.6111,Gabbro_rect,4,8.611,0,8,0,8,0,1,,,,,,,,,,,,,
65c6bbe7f9428763522fa244,TCN,2024-06-11_13h17.40.511,LearnStrategy,2023.2.3,Win32,59.88023952,1,1,10,0.0390625,0.01171875,1,0,0,2.9186,rock_grid_rect_2,3,16,-1,-1,2.919,0.381510417,-0.263020833,1,0,0,10.5238,Gabbro_rect,4,10.524,0,9,0,9,0,1,,,,,,,,,,,,,
65c6bbe7f9428763522fa244,TCN,2024-06-11_13h17.40.511,LearnStrategy,2023.2.3,Win32,59.88023952,1,1,11,0.033854167,0.006510417,1,0,0,1.8072,rock_grid_rect_2,4,01,-1,-1,1.807,0.084635417,-0.40625,1,0,0,8.9232,Peridotite_rect,7,8.923,0,10,0,10,0,1,,,,,,,,,,,,,
65c6bbe7f9428763522fa244,TCN,2024-06-11_13h17.40.511,LearnStrategy,2023.2.3,Win32,59.88023952,1,1,12,0.005208333,-0.01171875,1,0,0,1.6206,rock_grid_rect_2,2,06,-1,-1,1.621,-0.404947917,-0.390625,1,0,0,1.7608,Obsidian_rect,5,1.761,0,11,0,11,0,1,,,,,,,,,,,,,
65c6bbe7f9428763522fa244,TCN,2024-06-11_13h17.40.511,LearnStrategy,2023.2.3,Win32,59.88023952,1,1,13,0.03125,0.00390625,1,0,0,1.5498,rock_grid_rect_2,1,04,-1,-1,1.55,-0.069010417,-0.395833333,1,0,0,8.3524,Pegmatite_rect,6,8.352,0,12,0,12,0,1,,,,,,,,,,,,,
65c6bbe7f9428763522fa244,TCN,2024-06-11_13h17.40.511,LearnStrategy,2023.2.3,Win32,59.88023952,1,1,14,0.009114583,-0.009114583,1,0,0,1.3089,rock_grid_rect_2,6,13,-1,-1,1.309,-0.33203125,-0.244791667,1,0,0,7.4944,Andesite_rect,1,7.494,0,13,0,13,0,1,,,,,,,,,,,,,
65c6bbe7f9428763522fa244,TCN,2024-06-11_13h17.40.511,LearnStrategy,2023.2.3,Win32,59.88023952,1,1,15,0.01171875,0.0078125,1,0,0,1.3945,rock_grid_rect_2,3,12,-1,-1,1.395,-0.0859375,-0.251302083,1,0,0,4.7237,Basalt_rect,2,4.724,0,14,0,14,0,1,,,,,,,,,,,,,
65c6bbe7f9428763522fa244,TCN,2024-06-11_13h17.40.511,LearnStrategy,2023.2.3,Win32,59.88023952,1,1,16,0.015625,0.015625,1,0,0,1.4245,rock_grid_rect_2,4,03,-1,-1,1.425,0.15625,-0.397135417,1,0,0,6.7842,Peridotite_rect,7,6.784,0,15,0,15,0,1,,,,,,,,,,,,,
65c6bbe7f9428763522fa244,TCN,2024-06-11_13h17.40.511,LearnStrategy,2023.2.3,Win32,59.88023952,1,2,1,,,,,,,,7,08,,,,,,,,,,,3,20.373,0,,,,,,0.111979167,-0.26171875,1,0,0,20.3733,Diorite_rect,0,0,0,0,1,
65c6bbe7f9428763522fa244,TCN,2024-06-11_13h17.40.511,LearnStrategy,2023.2.3,Win32,59.88023952,1,2,2,,,,,,,,6,11,,,,,,,,,,,2,14.779,0,,,,,,-0.127604167,-0.236979167,1,0,0,14.7793,Basalt_rect,1,0,1,0,1,
65c6bbe7f9428763522fa244,TCN,2024-06-11_13h17.40.511,LearnStrategy,2023.2.3,Win32,59.88023952,1,2,3,,,,,,,,1,16,,,,,,,,,,,7,2.948,0,,,,,,0.08203125,-0.384114583,1,0,0,2.9478,Peridotite_rect,2,0,2,0,1,
65c6bbe7f9428763522fa244,TCN,2024-06-11_13h17.40.511,LearnStrategy,2023.2.3,Win32,59.88023952,1,2,4,,,,,,,,8,02,,,,,,,,,,,4,4.862,0,,,,,,0.330729167,-0.259114583,1,0,0,4.8623,Gabbro_rect,3,0,3,0,1,
65c6bbe7f9428763522fa244,TCN,2024-06-11_13h17.40.511,LearnStrategy,2023.2.3,Win32,59.88023952,1,2,5,,,,,,,,2,11,,,,,,,,,,,2,5.843,1,,,,,,-0.14453125,-0.25390625,1,0,0,5.8433,Basalt_rect,4,0,4,0,1,
65c6bbe7f9428763522fa244,TCN,2024-06-11_13h17.40.511,LearnStrategy,2023.2.3,Win32,59.88023952,1,2,6,,,,,,,,7,06,,,,,,,,,,,2,5.317,0,,,,,,-0.186197917,-0.256510417,1,0,0,5.3165,Basalt_rect,5,0,5,0,1,
65c6bbe7f9428763522fa244,TCN,2024-06-11_13h17.40.511,LearnStrategy,2023.2.3,Win32,59.88023952,1,2,7,,,,,,,,4,12,,,,,,,,,,,4,2.618,1,,,,,,0.380208333,-0.25390625,1,0,0,2.6179,Gabbro_rect,6,0,6,0,1,
65c6bbe7f9428763522fa244,TCN,2024-06-11_13h17.40.511,LearnStrategy,2023.2.3,Win32,59.88023952,1,2,8,,,,,,,,4,13,,,,,,,,,,,1,3.478,0,,,,,,-0.365885417,-0.259114583,1,0,0,3.4779,Andesite_rect,7,0,7,0,1,
65c6bbe7f9428763522fa244,TCN,2024-06-11_13h17.40.511,LearnStrategy,2023.2.3,Win32,59.88023952,1,2,9,,,,,,,,5,10,,,,,,,,,,,5,1.663,1,,,,,,-0.388020833,-0.395833333,1,0,0,1.6633,Obsidian_rect,8,0,8,0,1,
65c6bbe7f9428763522fa244,TCN,2024-06-11_13h17.40.511,LearnStrategy,2023.2.3,Win32,59.88023952,1,2,10,,,,,,,,5,06,,,,,,,,,,,5,3.317,1,,,,,,-0.350260417,-0.41015625,1,0,0,3.3165,Obsidian_rect,9,0,9,0,1,
65c6bbe7f9428763522fa244,TCN,2024-06-11_13h17.40.511,LearnStrategy,2023.2.3,Win32,59.88023952,1,2,11,,,,,,,,6,08,,,,,,,,,,,2,1.369,0,,,,,,-0.178385417,-0.268229167,1,0,0,1.3694,Basalt_rect,10,0,10,0,1,
65c6bbe7f9428763522fa244,TCN,2024-06-11_13h17.40.511,LearnStrategy,2023.2.3,Win32,59.88023952,1,2,12,,,,,,,,2,09,,,,,,,,,,,8,3.824,0,,,,,,0.3515625,-0.385416667,1,0,0,3.8242,Pumice_rect,11,0,11,0,1,
65c6bbe7f9428763522fa244,TCN,2024-06-11_13h17.40.511,LearnStrategy,2023.2.3,Win32,59.88023952,1,2,13,,,,,,,,8,03,,,,,,,,,,,4,2.063,0,,,,,,0.346354167,-0.2578125,1,0,0,2.0633,Gabbro_rect,12,0,12,0,1,
65c6bbe7f9428763522fa244,TCN,2024-06-11_13h17.40.511,LearnStrategy,2023.2.3,Win32,59.88023952,1,2,14,,,,,,,,1,14,,,,,,,,,,,6,2.709,0,,,,,,-0.166666667,-0.408854167,1,0,0,2.7087,Pegmatite_rect,13,0,13,0,1,
65c6bbe7f9428763522fa244,TCN,2024-06-11_13h17.40.511,LearnStrategy,2023.2.3,Win32,59.88023952,1,2,15,,,,,,,,3,07,,,,,,,,,,,4,2.049,0,,,,,,0.313802083,-0.25,1,0,0,2.0491,Gabbro_rect,14,0,14,0,1,
65c6bbe7f9428763522fa244,TCN,2024-06-11_13h17.40.511,LearnStrategy,2023.2.3,Win32,59.88023952,1,2,16,,,,,,,,3,08,,,,,,,,,,,4,3.251,0,,,,,,0.365885417,-0.265625,1,0,0,3.2512,Gabbro_rect,15,0,15,0,1,
65c6bbe7f9428763522fa244,TCN,2024-06-11_13h17.40.511,LearnStrategy,2023.2.3,Win32,59.88023952,2,1,1,-0.0234375,0.0078125,1,0,0,21.5593,rock_grid_rect_2,7,12,-1,-1,21.559,-0.065104167,-0.40625,1,0,0,13.961,Pegmatite_rect,6,13.961,0,0,0,0,0,1,,,,,,,,,,,,,
65c6bbe7f9428763522fa244,TCN,2024-06-11_13h17.40.511,LearnStrategy,2023.2.3,Win32,59.88023952,2,1,2,0.063802083,-0.005208333,1,0,0,2.3917,rock_grid_rect_2,1,01,-1,-1,2.392,-0.130208333,-0.247395833,1,0,0,4.5882,Basalt_rect,2,4.588,0,1,0,1,0,1,,,,,,,,,,,,,
65c6bbe7f9428763522fa244,TCN,2024-06-11_13h17.40.511,LearnStrategy,2023.2.3,Win32,59.88023952,2,1,3,0.079427083,-0.010416667,1,0,0,1.309,rock_grid_rect_2,5,07,-1,-1,1.309,-0.401041667,-0.403645833,1,0,0,6.4849,Obsidian_rect,5,6.485,1,2,0,2,0,1,,,,,,,,,,,,,
65c6bbe7f9428763522fa244,TCN,2024-06-11_13h17.40.511,LearnStrategy,2023.2.3,Win32,59.88023952,2,1,4,0.04296875,-0.00390625,1,0,0,1.9338,rock_grid_rect_2,8,16,-1,-1,1.934,0.43359375,-0.39453125,1,0,0,4.6145,Pumice_rect,8,4.614,1,3,0,3,0,1,,,,,,,,,,,,,
65c6bbe7f9428763522fa244,TCN,2024-06-11_13h17.40.511,LearnStrategy,2023.2.3,Win32,59.88023952,2,1,5,0.01953125,-0.001302083,1,0,0,1.3506,rock_grid_rect_2,4,10,-1,-1,1.351,0.141927083,-0.395833333,1,0,0,3.5063,Peridotite_rect,7,3.506,0,4,0,4,0,1,,,,,,,,,,,,,
65c6bbe7f9428763522fa244,TCN,2024-06-11_13h17.40.511,LearnStrategy,2023.2.3,Win32,59.88023952,2,1,6,0.126302083,0.013020833,1,0,0,1.5571,rock_grid_rect_2,7,05,-1,-1,1.557,0.174479167,-0.395833333,1,0,0,12.4263,Peridotite_rect,7,12.426,1,5,0,5,0,1,,,,,,,,,,,,,
65c6bbe7f9428763522fa244,TCN,2024-06-11_13h17.40.511,LearnStrategy,2023.2.3,Win32,59.88023952,2,1,7,0.114583333,0.01953125,1,0,0,1.1916,rock_grid_rect_2,5,05,-1,-1,1.192,-0.317708333,-0.380208333,1,0,0,2.0278,Obsidian_rect,5,2.028,1,6,0,6,0,1,,,,,,,,,,,,,
65c6bbe7f9428763522fa244,TCN,2024-06-11_13h17.40.511,LearnStrategy,2023.2.3,Win32,59.88023952,2,1,8,0.006510417,0.005208333,1,0,0,1.6437,rock_grid_rect_2,3,15,-1,-1,1.644,0.395833333,-0.25390625,1,0,0,1.7382,Gabbro_rect,4,1.738,0,7,0,7,0,1,,,,,,,,,,,,,
65c6bbe7f9428763522fa244,TCN,2024-06-11_13h17.40.511,LearnStrategy,2023.2.3,Win32,59.88023952,2,1,9,0.006510417,-0.00390625,1,0,0,1.7455,rock_grid_rect_2,3,13,-1,-1,1.745,-0.3125,-0.248697917,1,0,0,5.0887,Andesite_rect,1,5.089,0,8,0,8,0,1,,,,,,,,,,,,,
65c6bbe7f9428763522fa244,TCN,2024-06-11_13h17.40.511,LearnStrategy,2023.2.3,Win32,59.88023952,2,1,10,0.028645833,0.018229167,1,0,0,1.4018,rock_grid_rect_2,2,10,-1,-1,1.402,-0.140625,-0.266927083,1,0,0,2.7797,Basalt_rect,2,2.78,1,9,0,9,0,1,,,,,,,,,,,,,
65c6bbe7f9428763522fa244,TCN,2024-06-11_13h17.40.511,LearnStrategy,2023.2.3,Win32,59.88023952,2,1,11,0.016927083,0.010416667,1,0,0,1.3399,rock_grid_rect_2,4,08,-1,-1,1.34,0.084635417,-0.380208333,1,0,0,4.9524,Peridotite_rect,7,4.952,0,10,0,10,0,1,,,,,,,,,,,,,
65c6bbe7f9428763522fa244,TCN,2024-06-11_13h17.40.511,LearnStrategy,2023.2.3,Win32,59.88023952,2,1,12,0.075520833,-0.022135417,1,0,0,1.7512,rock_grid_rect_2,2,01,-1,-1,1.751,0.408854167,-0.40234375,1,0,0,9.7336,Pumice_rect,8,9.734,0,11,0,11,0,1,,,,,,,,,,,,,
65c6bbe7f9428763522fa244,TCN,2024-06-11_13h17.40.511,LearnStrategy,2023.2.3,Win32,59.88023952,2,1,13,0.061197917,-0.013020833,1,0,0,1.534,rock_grid_rect_2,6,07,-1,-1,1.534,-0.34765625,-0.415364583,1,0,0,6.2761,Obsidian_rect,5,6.276,0,12,0,12,0,1,,,,,,,,,,,,,
65c6bbe7f9428763522fa244,TCN,2024-06-11_13h17.40.511,LearnStrategy,2023.2.3,Win32,59.88023952,2,1,14,0.059895833,-0.020833333,1,0,0,1.7276,rock_grid_rect_2,6,06,-1,-1,1.728,0.407552083,-0.40625,1,0,0,4.5106,Pumice_rect,8,4.511,0,13,0,13,0,1,,,,,,,,,,,,,
65c6bbe7f9428763522fa244,TCN,2024-06-11_13h17.40.511,LearnStrategy,2023.2.3,Win32,59.88023952,2,1,15,0.016927083,-0.0078125,1,0,0,1.5071,rock_grid_rect_2,1,07,-1,-1,1.507,0.393229167,-0.256510417,1,0,0,6.9089,Gabbro_rect,4,6.909,0,14,0,14,0,1,,,,,,,,,,,,,
65c6bbe7f9428763522fa244,TCN,2024-06-11_13h17.40.511,LearnStrategy,2023.2.3,Win32,59.88023952,2,1,16,0.033854167,-0.0078125,1,0,0,1.5001,rock_grid_rect_2,8,09,-1,-1,1.5,0.403645833,-0.2421875,1,0,0,2.2238,Gabbro_rect,4,2.224,0,15,0,15,0,1,,,,,,,,,,,,,
65c6bbe7f9428763522fa244,TCN,2024-06-11_13h17.40.511,LearnStrategy,2023.2.3,Win32,59.88023952,2,2,1,,,,,,,,1,03,,,,,,,,,,,1,12.173,1,,,,,,-0.479166667,-0.234375,1,0,0,12.1727,Andesite_rect,0,0,0,0,1,
65c6bbe7f9428763522fa244,TCN,2024-06-11_13h17.40.511,LearnStrategy,2023.2.3,Win32,59.88023952,2,2,2,,,,,,,,8,08,,,,,,,,,,,8,24.297,1,,,,,,0.372395833,-0.393229167,1,0,0,24.297,Pumice_rect,1,0,1,0,1,
65c6bbe7f9428763522fa244,TCN,2024-06-11_13h17.40.511,LearnStrategy,2023.2.3,Win32,59.88023952,2,2,3,,,,,,,,2,05,,,,,,,,,,,2,5.085,1,,,,,,-0.127604167,-0.255208333,1,0,0,5.0846,Basalt_rect,2,0,2,0,1,
65c6bbe7f9428763522fa244,TCN,2024-06-11_13h17.40.511,LearnStrategy,2023.2.3,Win32,59.88023952,2,2,4,,,,,,,,2,14,,,,,,,,,,,8,7.366,0,,,,,,0.37890625,-0.397135417,1,0,0,7.3656,Pumice_rect,3,0,3,0,1,
65c6bbe7f9428763522fa244,TCN,2024-06-11_13h17.40.511,LearnStrategy,2023.2.3,Win32,59.88023952,2,2,5,,,,,,,,7,16,,,,,,,,,,,4,9.65,0,,,,,,0.37109375,-0.25390625,1,0,0,9.6502,Gabbro_rect,4,0,4,0,1,
65c6bbe7f9428763522fa244,TCN,2024-06-11_13h17.40.511,LearnStrategy,2023.2.3,Win32,59.88023952,2,2,6,,,,,,,,1,10,,,,,,,,,,,7,15.849,0,,,,,,0.1484375,-0.384114583,1,0,0,15.8487,Peridotite_rect,5,0,5,0,1,
65c6bbe7f9428763522fa244,TCN,2024-06-11_13h17.40.511,LearnStrategy,2023.2.3,Win32,59.88023952,2,2,7,,,,,,,,4,09,,,,,,,,,,,2,5.873,0,,,,,,-0.141927083,-0.248697917,1,0,0,5.8726,Basalt_rect,6,0,6,0,1,
65c6bbe7f9428763522fa244,TCN,2024-06-11_13h17.40.511,LearnStrategy,2023.2.3,Win32,59.88023952,2,2,8,,,,,,,,6,16,,,,,,,,,,,6,4.782,1,,,,,,-0.130208333,-0.3828125,1,0,0,4.7817,Pegmatite_rect,7,0,7,0,1,
65c6bbe7f9428763522fa244,TCN,2024-06-11_13h17.40.511,LearnStrategy,2023.2.3,Win32,59.88023952,2,2,9,,,,,,,,5,04,,,,,,,,,,,5,1.762,1,,,,,,-0.359375,-0.393229167,1,0,0,1.7622,Obsidian_rect,8,0,8,0,1,
65c6bbe7f9428763522fa244,TCN,2024-06-11_13h17.40.511,LearnStrategy,2023.2.3,Win32,59.88023952,2,2,10,,,,,,,,4,11,,,,,,,,,,,4,9.253,1,,,,,,0.438802083,-0.240885417,1,0,0,9.2534,Gabbro_rect,9,0,9,0,1,
65c6bbe7f9428763522fa244,TCN,2024-06-11_13h17.40.511,LearnStrategy,2023.2.3,Win32,59.88023952,2,2,11,,,,,,,,3,14,,,,,,,,,,,1,12.231,0,,,,,,-0.397135417,-0.25,1,0,0,12.2309,Andesite_rect,10,0,10,0,1,
65c6bbe7f9428763522fa244,TCN,2024-06-11_13h17.40.511,LearnStrategy,2023.2.3,Win32,59.88023952,2,2,12,,,,,,,,6,05,,,,,,,,,,,6,64.723,1,,,,,,-0.135416667,-0.3984375,1,0,0,64.7229,Pegmatite_rect,11,0,11,0,1,
65c6bbe7f9428763522fa244,TCN,2024-06-11_13h17.40.511,LearnStrategy,2023.2.3,Win32,59.88023952,2,2,13,,,,,,,,5,09,,,,,,,,,,,5,2.747,1,,,,,,-0.375,-0.393229167,1,0,0,2.7466,Obsidian_rect,12,0,12,0,1,
65c6bbe7f9428763522fa244,TCN,2024-06-11_13h17.40.511,LearnStrategy,2023.2.3,Win32,59.88023952,2,2,14,,,,,,,,3,11,,,,,,,,,,,1,11.914,0,,,,,,-0.38671875,-0.255208333,1,0,0,11.9143,Andesite_rect,13,0,13,0,1,
65c6bbe7f9428763522fa244,TCN,2024-06-11_13h17.40.511,LearnStrategy,2023.2.3,Win32,59.88023952,2,2,15,,,,,,,,7,13,,,,,,,,,,,4,54.249,0,,,,,,0.408854167,-0.235677083,1,0,0,54.2491,Gabbro_rect,14,0,14,0,1,
65c6bbe7f9428763522fa244,TCN,2024-06-11_13h17.40.511,LearnStrategy,2023.2.3,Win32,59.88023952,2,2,16,,,,,,,,8,10,,,,,,,,,,,8,31.044,1,,,,,,0.3828125,-0.39453125,1,0,0,31.0442,Pumice_rect,15,0,15,0,1,
65c6bbe7f9428763522fa244,TCN,2024-06-11_13h17.40.511,LearnStrategy,2023.2.3,Win32,59.88023952,3,1,1,0.009114583,-0.020833333,1,0,0,5.1556,rock_grid_rect_2,1,11,-1,-1,5.156,-0.078125,-0.384114583,1,0,0,12.2692,Pegmatite_rect,6,12.269,0,0,0,0,0,1,,,,,,,,,,,,,
65c6bbe7f9428763522fa244,TCN,2024-06-11_13h17.40.511,LearnStrategy,2023.2.3,Win32,59.88023952,3,1,2,0.092447917,-0.005208333,1,0,0,2.5191,rock_grid_rect_2,8,06,-1,-1,2.519,0.407552083,-0.399739583,1,0,0,4.9808,Pumice_rect,8,4.981,1,1,0,1,0,1,,,,,,,,,,,,,
65c6bbe7f9428763522fa244,TCN,2024-06-11_13h17.40.511,LearnStrategy,2023.2.3,Win32,59.88023952,3,1,3,0.05859375,0.009114583,1,0,0,2.3484,rock_grid_rect_2,6,09,-1,-1,2.348,-0.122395833,-0.3984375,1,0,0,7.8665,Pegmatite_rect,6,7.867,1,2,0,2,0,1,,,,,,,,,,,,,
65c6bbe7f9428763522fa244,TCN,2024-06-11_13h17.40.511,LearnStrategy,2023.2.3,Win32,59.88023952,3,1,4,0.024739583,0.010416667,1,0,0,2.5879,rock_grid_rect_2,4,05,-1,-1,2.588,0.134114583,-0.397135417,1,0,0,11.3651,Peridotite_rect,7,11.365,0,3,0,3,0,1,,,,,,,,,,,,,
65c6bbe7f9428763522fa244,TCN,2024-06-11_13h17.40.511,LearnStrategy,2023.2.3,Win32,59.88023952,3,1,5,0.041666667,-0.005208333,1,0,0,1.5232,rock_grid_rect_2,8,13,-1,-1,1.523,0.3828125,-0.41015625,1,0,0,6.8719,Pumice_rect,8,6.872,1,4,0,4,0,1,,,,,,,,,,,,,
65c6bbe7f9428763522fa244,TCN,2024-06-11_13h17.40.511,LearnStrategy,2023.2.3,Win32,59.88023952,3,1,6,0.095052083,0.006510417,1,0,0,1.7576,rock_grid_rect_2,7,14,-1,-1,1.758,0.119791667,-0.2578125,1,0,0,5.7818,Diorite_rect,3,5.782,0,5,0,5,0,1,,,,,,,,,,,,,
65c6bbe7f9428763522fa244,TCN,2024-06-11_13h17.40.511,LearnStrategy,2023.2.3,Win32,59.88023952,3,1,7,0.057291667,-0.0078125,1,0,0,1.3001,rock_grid_rect_2,1,09,-1,-1,1.3,-0.38671875,-0.239583333,1,0,0,9.2426,Andesite_rect,1,9.243,1,6,0,6,0,1,,,,,,,,,,,,,
65c6bbe7f9428763522fa244,TCN,2024-06-11_13h17.40.511,LearnStrategy,2023.2.3,Win32,59.88023952,3,1,8,-0.036458333,-0.013020833,1,0,0,1.6175,rock_grid_rect_2,7,10,-1,-1,1.618,0.208333333,-0.248697917,1,0,0,13.4956,Diorite_rect,3,13.496,0,7,0,7,0,1,,,,,,,,,,,,,
65c6bbe7f9428763522fa244,TCN,2024-06-11_13h17.40.511,LearnStrategy,2023.2.3,Win32,59.88023952,3,1,9,0.072916667,-0.005208333,1,0,0,1.5997,rock_grid_rect_2,4,15,-1,-1,1.6,-0.055989583,-0.388020833,1,0,0,31.0925,Pegmatite_rect,6,31.093,0,8,0,8,0,1,,,,,,,,,,,,,
65c6bbe7f9428763522fa244,TCN,2024-06-11_13h17.40.511,LearnStrategy,2023.2.3,Win32,59.88023952,3,1,10,0.0234375,-0.00390625,1,0,0,1.3495,rock_grid_rect_2,6,12,-1,-1,1.35,0.19140625,-0.24609375,1,0,0,8.7117,Diorite_rect,3,8.712,0,9,0,9,0,1,,,,,,,,,,,,,
65c6bbe7f9428763522fa244,TCN,2024-06-11_13h17.40.511,LearnStrategy,2023.2.3,Win32,59.88023952,3,1,11,0.024739583,-0.010416667,1,0,0,1.3905,rock_grid_rect_2,2,08,-1,-1,1.39,-0.126302083,-0.2421875,1,0,0,4.0588,Basalt_rect,2,4.059,1,10,0,10,0,1,,,,,,,,,,,,,
65c6bbe7f9428763522fa244,TCN,2024-06-11_13h17.40.511,LearnStrategy,2023.2.3,Win32,59.88023952,3,1,12,-0.01171875,-0.002604167,1,0,0,1.4097,rock_grid_rect_2,5,08,-1,-1,1.41,-0.32421875,-0.40234375,1,0,0,1.831,Obsidian_rect,5,1.831,1,11,0,11,0,1,,,,,,,,,,,,,
65c6bbe7f9428763522fa244,TCN,2024-06-11_13h17.40.511,LearnStrategy,2023.2.3,Win32,59.88023952,3,1,13,0.00390625,-0.001302083,1,0,0,1.3678,rock_grid_rect_2,3,10,-1,-1,1.368,-0.415364583,-0.25390625,1,0,0,3.7064,Andesite_rect,1,3.706,0,12,0,12,0,1,,,,,,,,,,,,,
65c6bbe7f9428763522fa244,TCN,2024-06-11_13h17.40.511,LearnStrategy,2023.2.3,Win32,59.88023952,3,1,14,-0.016927083,-0.0234375,1,0,0,1.468,rock_grid_rect_2,3,02,-1,-1,1.468,-0.348958333,-0.2421875,1,0,0,4.9337,Andesite_rect,1,4.934,0,13,0,13,0,1,,,,,,,,,,,,,
65c6bbe7f9428763522fa244,TCN,2024-06-11_13h17.40.511,LearnStrategy,2023.2.3,Win32,59.88023952,3,1,15,0,0.010416667,1,0,0,1.2229,rock_grid_rect_2,5,16,-1,-1,1.223,-0.333333333,-0.393229167,1,0,0,1.6953,Obsidian_rect,5,1.695,1,14,0,14,0,1,,,,,,,,,,,,,
65c6bbe7f9428763522fa244,TCN,2024-06-11_13h17.40.511,LearnStrategy,2023.2.3,Win32,59.88023952,3,1,16,0.00390625,-0.002604167,1,0,0,1.2608,rock_grid_rect_2,2,12,-1,-1,1.261,0.385416667,-0.39453125,1,0,0,3.2539,Pumice_rect,8,3.254,0,15,0,15,0,1,,,,,,,,,,,,,
65c6bbe7f9428763522fa244,TCN,2024-06-11_13h17.40.511,LearnStrategy,2023.2.3,Win32,59.88023952,3,2,1,,,,,,,,6,15,,,,,,,,,,,6,17.844,1,,,,,,-0.127604167,-0.408854167,1,0,0,17.8437,Pegmatite_rect,0,0,0,0,1,
65c6bbe7f9428763522fa244,TCN,2024-06-11_13h17.40.511,LearnStrategy,2023.2.3,Win32,59.88023952,3,2,2,,,,,,,,5,02,,,,,,,,,,,5,2.719,1,,,,,,-0.377604167,-0.39453125,1,0,0,2.7191,Obsidian_rect,1,0,1,0,1,
65c6bbe7f9428763522fa244,TCN,2024-06-11_13h17.40.511,LearnStrategy,2023.2.3,Win32,59.88023952,3,2,3,,,,,,,,7,15,,,,,,,,,,,3,17.337,0,,,,,,0.1171875,-0.235677083,1,0,0,17.3372,Diorite_rect,2,0,2,0,1,
65c6bbe7f9428763522fa244,TCN,2024-06-11_13h17.40.511,LearnStrategy,2023.2.3,Win32,59.88023952,3,2,4,,,,,,,,4,16,,,,,,,,,,,2,3.746,0,,,,,,-0.126302083,-0.23828125,1,0,0,3.7463,Basalt_rect,3,0,3,0,1,
65c6bbe7f9428763522fa244,TCN,2024-06-11_13h17.40.511,LearnStrategy,2023.2.3,Win32,59.88023952,3,2,5,,,,,,,,6,10,,,,,,,,,,,7,34.098,0,,,,,,0.125,-0.388020833,1,0,0,34.0975,Peridotite_rect,4,0,4,0,1,
65c6bbe7f9428763522fa244,TCN,2024-06-11_13h17.40.511,LearnStrategy,2023.2.3,Win32,59.88023952,3,2,6,,,,,,,,1,05,,,,,,,,,,,4,49.41,0,,,,,,0.385416667,-0.252604167,1,0,0,49.4099,Gabbro_rect,5,0,5,0,1,
65c6bbe7f9428763522fa244,TCN,2024-06-11_13h17.40.511,LearnStrategy,2023.2.3,Win32,59.88023952,3,2,7,,,,,,,,4,14,,,,,,,,,,,2,13.268,0,,,,,,-0.143229167,-0.247395833,1,0,0,13.2684,Basalt_rect,6,0,6,0,1,
65c6bbe7f9428763522fa244,TCN,2024-06-11_13h17.40.511,LearnStrategy,2023.2.3,Win32,59.88023952,3,2,8,,,,,,,,8,14,,,,,,,,,,,8,2.385,1,,,,,,0.403645833,-0.411458333,1,0,0,2.3847,Pumice_rect,7,0,7,0,1,
65c6bbe7f9428763522fa244,TCN,2024-06-11_13h17.40.511,LearnStrategy,2023.2.3,Win32,59.88023952,3,2,9,,,,,,,,2,02,,,,,,,,,,,2,8.859,1,,,,,,-0.153645833,-0.244791667,1,0,0,8.8586,Basalt_rect,8,0,8,0,1,
65c6bbe7f9428763522fa244,TCN,2024-06-11_13h17.40.511,LearnStrategy,2023.2.3,Win32,59.88023952,3,2,10,,,,,,,,7,02,,,,,,,,,,,7,50.875,1,,,,,,0.1171875,-0.39453125,1,0,0,50.8748,Peridotite_rect,9,0,9,0,1,
65c6bbe7f9428763522fa244,TCN,2024-06-11_13h17.40.511,LearnStrategy,2023.2.3,Win32,59.88023952,3,2,11,,,,,,,,8,04,,,,,,,,,,,8,3.083,1,,,,,,0.385416667,-0.40625,1,0,0,3.083,Pumice_rect,10,0,10,0,1,
65c6bbe7f9428763522fa244,TCN,2024-06-11_13h17.40.511,LearnStrategy,2023.2.3,Win32,59.88023952,3,2,12,,,,,,,,1,02,,,,,,,,,,,3,18.609,0,,,,,,0.1953125,-0.251302083,1,0,0,18.6085,Diorite_rect,11,0,11,0,1,
65c6bbe7f9428763522fa244,TCN,2024-06-11_13h17.40.511,LearnStrategy,2023.2.3,Win32,59.88023952,3,2,13,,,,,,,,2,04,,,,,,,,,,,2,12.848,1,,,,,,-0.122395833,-0.236979167,1,0,0,12.848,Basalt_rect,12,0,12,0,1,
65c6bbe7f9428763522fa244,TCN,2024-06-11_13h17.40.511,LearnStrategy,2023.2.3,Win32,59.88023952,3,2,14,,,,,,,,3,09,,,,,,,,,,,3,45.604,1,,,,,,0.10546875,-0.244791667,1,0,0,45.6037,Diorite_rect,13,0,13,0,1,
65c6bbe7f9428763522fa244,TCN,2024-06-11_13h17.40.511,LearnStrategy,2023.2.3,Win32,59.88023952,3,2,15,,,,,,,,3,06,,,,,,,,,,,3,16.42,1,,,,,,0.10546875,-0.244791667,1,0,0,16.4202,Diorite_rect,14,0,14,0,1,
65c6bbe7f9428763522fa244,TCN,2024-06-11_13h17.40.511,LearnStrategy,2023.2.3,Win32,59.88023952,3,2,16,,,,,,,,5,11,,,,,,,,,,,5,3.166,1,,,,,,-0.354166667,-0.389322917,1,0,0,3.1658,Obsidian_rect,15,0,15,0,1,
65c6bbe7f9428763522fa244,TCN,2024-06-11_13h17.40.511,LearnStrategy,2023.2.3,Win32,59.88023952,4,1,1,0.045572917,0.013020833,1,0,0,2.0104,rock_grid_rect_2,7,14,-1,-1,2.01,0.157552083,-0.260416667,1,0,0,30.2596,Diorite_rect,3,30.26,0,0,0,0,0,1,,,,,,,,,,,,,
65c6bbe7f9428763522fa244,TCN,2024-06-11_13h17.40.511,LearnStrategy,2023.2.3,Win32,59.88023952,4,1,2,0.046875,0.013020833,1,0,0,1.8075,rock_grid_rect_2,2,08,-1,-1,1.807,-0.158854167,-0.25,1,0,0,3.6244,Basalt_rect,2,3.624,1,1,0,1,0,1,,,,,,,,,,,,,
65c6bbe7f9428763522fa244,TCN,2024-06-11_13h17.40.511,LearnStrategy,2023.2.3,Win32,59.88023952,4,1,3,0.015625,0.001302083,1,0,0,1.2841,rock_grid_rect_2,4,08,-1,-1,1.284,-0.114583333,-0.38671875,1,0,0,15.2854,Pegmatite_rect,6,15.285,0,2,0,2,0,1,,,,,,,,,,,,,
65c6bbe7f9428763522fa244,TCN,2024-06-11_13h17.40.511,LearnStrategy,2023.2.3,Win32,59.88023952,4,1,4,-0.009114583,0.00390625,1,0,0,1.7211,rock_grid_rect_2,8,05,-1,-1,1.721,0.380208333,-0.411458333,1,0,0,2.0883,Pumice_rect,8,2.088,1,3,0,3,0,1,,,,,,,,,,,,,
65c6bbe7f9428763522fa244,TCN,2024-06-11_13h17.40.511,LearnStrategy,2023.2.3,Win32,59.88023952,4,1,5,0.015625,0.001302083,1,0,0,1.3415,rock_grid_rect_2,3,13,-1,-1,1.341,-0.37890625,-0.25390625,1,0,0,4.2711,Andesite_rect,1,4.271,0,4,0,4,0,1,,,,,,,,,,,,,
65c6bbe7f9428763522fa244,TCN,2024-06-11_13h17.40.511,LearnStrategy,2023.2.3,Win32,59.88023952,4,1,6,0.015625,-0.001302083,1,0,0,1.4244,rock_grid_rect_2,1,06,-1,-1,1.424,-0.399739583,-0.235677083,1,0,0,2.4988,Andesite_rect,1,2.499,1,5,0,5,0,1,,,,,,,,,,,,,
65c6bbe7f9428763522fa244,TCN,2024-06-11_13h17.40.511,LearnStrategy,2023.2.3,Win32,59.88023952,4,1,7,0.00390625,0.002604167,1,0,0,1.4433,rock_grid_rect_2,2,16,-1,-1,1.443,-0.134114583,-0.23828125,1,0,0,3.7276,Basalt_rect,2,3.728,1,6,0,6,0,1,,,,,,,,,,,,,
65c6bbe7f9428763522fa244,TCN,2024-06-11_13h17.40.511,LearnStrategy,2023.2.3,Win32,59.88023952,4,1,8,0.009114583,-0.001302083,1,0,0,1.4155,rock_grid_rect_2,7,12,-1,-1,1.416,0.15234375,-0.243489583,1,0,0,16.12,Diorite_rect,3,16.12,0,7,0,7,0,1,,,,,,,,,,,,,
65c6bbe7f9428763522fa244,TCN,2024-06-11_13h17.40.511,LearnStrategy,2023.2.3,Win32,59.88023952,4,1,9,0.018229167,-0.0078125,1,0,0,1.7051,rock_grid_rect_2,6,13,-1,-1,1.705,-0.381510417,-0.2421875,1,0,0,5.4412,Andesite_rect,1,5.441,0,8,0,8,0,1,,,,,,,,,,,,,
65c6bbe7f9428763522fa244,TCN,2024-06-11_13h17.40.511,LearnStrategy,2023.2.3,Win32,59.88023952,4,1,10,0.01171875,0.01953125,1,0,0,1.5998,rock_grid_rect_2,5,14,-1,-1,1.6,-0.375,-0.401041667,1,0,0,3.3306,Obsidian_rect,5,3.331,1,9,0,9,0,1,,,,,,,,,,,,,
65c6bbe7f9428763522fa244,TCN,2024-06-11_13h17.40.511,LearnStrategy,2023.2.3,Win32,59.88023952,4,1,11,0.048177083,-0.010416667,1,0,0,1.543,rock_grid_rect_2,6,03,-1,-1,1.543,-0.104166667,-0.390625,1,0,0,2.9185,Pegmatite_rect,6,2.919,1,10,0,10,0,1,,,,,,,,,,,,,
65c6bbe7f9428763522fa244,TCN,2024-06-11_13h17.40.511,LearnStrategy,2023.2.3,Win32,59.88023952,4,1,12,0.001302083,-0.020833333,1,0,0,1.4584,rock_grid_rect_2,4,10,-1,-1,1.458,0.127604167,-0.389322917,1,0,0,13.2002,Peridotite_rect,7,13.2,0,11,0,11,0,1,,,,,,,,,,,,,
65c6bbe7f9428763522fa244,TCN,2024-06-11_13h17.40.511,LearnStrategy,2023.2.3,Win32,59.88023952,4,1,13,0.01171875,0.009114583,1,0,0,1.4084,rock_grid_rect_2,3,12,-1,-1,1.408,-0.384114583,-0.244791667,1,0,0,3.427,Andesite_rect,1,3.427,0,12,0,12,0,1,,,,,,,,,,,,,
65c6bbe7f9428763522fa244,TCN,2024-06-11_13h17.40.511,LearnStrategy,2023.2.3,Win32,59.88023952,4,1,14,0.022135417,0.002604167,1,0,0,1.3155,rock_grid_rect_2,1,01,-1,-1,1.315,-0.368489583,-0.235677083,1,0,0,57.902,Andesite_rect,1,57.902,1,13,0,13,0,1,,,,,,,,,,,,,
65c6bbe7f9428763522fa244,TCN,2024-06-11_13h17.40.511,LearnStrategy,2023.2.3,Win32,59.88023952,4,1,15,0.016927083,0.006510417,1,0,0,1.574,rock_grid_rect_2,5,08,-1,-1,1.574,-0.37109375,-0.3984375,1,0,0,1.7041,Obsidian_rect,5,1.704,1,14,0,14,0,1,,,,,,,,,,,,,
65c6bbe7f9428763522fa244,TCN,2024-06-11_13h17.40.511,LearnStrategy,2023.2.3,Win32,59.88023952,4,1,16,0.049479167,-0.010416667,1,0,0,1.5262,rock_grid_rect_2,8,16,-1,-1,1.526,0.389322917,-0.390625,1,0,0,2.7788,Pumice_rect,8,2.779,1,15,0,15,0,1,,,,,,,,,,,,,
65c6bbe7f9428763522fa244,TCN,2024-06-11_13h17.40.511,LearnStrategy,2023.2.3,Win32,59.88023952,4,2,1,,,,,,,,3,07,,,,,,,,,,,3,19.51,1,,,,,,0.11328125,-0.248697917,1,0,0,19.5104,Diorite_rect,0,0,0,0,1,
65c6bbe7f9428763522fa244,TCN,2024-06-11_13h17.40.511,LearnStrategy,2023.2.3,Win32,59.88023952,4,2,2,,,,,,,,5,06,,,,,,,,,,,5,3.761,1,,,,,,-0.391927083,-0.401041667,1,0,0,3.7606,Obsidian_rect,1,0,1,0,1,
65c6bbe7f9428763522fa244,TCN,2024-06-11_13h17.40.511,LearnStrategy,2023.2.3,Win32,59.88023952,4,2,3,,,,,,,,4,14,,,,,,,,,,,4,672.999,1,,,,,,0.412760417,-0.231770833,1,0,0,672.999,Gabbro_rect,2,0,2,0,1,
65c6bbe7f9428763522fa244,TCN,2024-06-11_13h17.40.511,LearnStrategy,2023.2.3,Win32,59.88023952,4,2,4,,,,,,,,7,02,,,,,,,,,,,7,38.615,1,,,,,,0.096354167,-0.411458333,1,0,0,38.6151,Peridotite_rect,3,0,3,0,1,
65c6bbe7f9428763522fa244,TCN,2024-06-11_13h17.40.511,LearnStrategy,2023.2.3,Win32,59.88023952,4,2,5,,,,,,,,2,11,,,,,,,,,,,8,20.766,0,,,,,,0.381510417,-0.381510417,1,0,0,20.7664,Pumice_rect,4,0,4,0,1,
65c6bbe7f9428763522fa244,TCN,2024-06-11_13h17.40.511,LearnStrategy,2023.2.3,Win32,59.88023952,4,2,6,,,,,,,,5,04,,,,,,,,,,,5,1.984,1,,,,,,-0.376302083,-0.403645833,1,0,0,1.9838,Obsidian_rect,5,0,5,0,1,
65c6bbe7f9428763522fa244,TCN,2024-06-11_13h17.40.511,LearnStrategy,2023.2.3,Win32,59.88023952,4,2,7,,,,,,,,6,11,,,,,,,,,,,6,5.435,1,,,,,,-0.154947917,-0.407552083,1,0,0,5.4352,Pegmatite_rect,6,0,6,0,1,
65c6bbe7f9428763522fa244,TCN,2024-06-11_13h17.40.511,LearnStrategy,2023.2.3,Win32,59.88023952,4,2,8,,,,,,,,6,08,,,,,,,,,,,6,46.081,1,,,,,,-0.110677083,-0.384114583,1,0,0,46.0812,Pegmatite_rect,7,0,7,0,1,
65c6bbe7f9428763522fa244,TCN,2024-06-11_13h17.40.511,LearnStrategy,2023.2.3,Win32,59.88023952,4,2,9,,,,,,,,7,08,,,,,,,,,,,7,9.616,1,,,,,,0.10546875,-0.3984375,1,0,0,9.6162,Peridotite_rect,8,0,8,0,1,
65c6bbe7f9428763522fa244,TCN,2024-06-11_13h17.40.511,LearnStrategy,2023.2.3,Win32,59.88023952,4,2,10,,,,,,,,4,12,,,,,,,,,,,4,41.598,1,,,,,,0.38671875,-0.243489583,1,0,0,41.598,Gabbro_rect,9,0,9,0,1,
65c6bbe7f9428763522fa244,TCN,2024-06-11_13h17.40.511,LearnStrategy,2023.2.3,Win32,59.88023952,4,2,11,,,,,,,,2,02,,,,,,,,,,,2,5.867,1,,,,,,-0.153645833,-0.235677083,1,0,0,5.8671,Basalt_rect,10,0,10,0,1,
65c6bbe7f9428763522fa244,TCN,2024-06-11_13h17.40.511,LearnStrategy,2023.2.3,Win32,59.88023952,4,2,12,,,,,,,,8,10,,,,,,,,,,,8,2.319,1,,,,,,0.41796875,-0.407552083,1,0,0,2.3192,Pumice_rect,11,0,11,0,1,
65c6bbe7f9428763522fa244,TCN,2024-06-11_13h17.40.511,LearnStrategy,2023.2.3,Win32,59.88023952,4,2,13,,,,,,,,8,14,,,,,,,,,,,8,1.985,1,,,,,,0.444010417,-0.39453125,1,0,0,1.9847,Pumice_rect,12,0,12,0,1,
65c6bbe7f9428763522fa244,TCN,2024-06-11_13h17.40.511,LearnStrategy,2023.2.3,Win32,59.88023952,4,2,14,,,,,,,,1,05,,,,,,,,,,,7,13.837,0,,,,,,0.1328125,-0.395833333,1,0,0,13.8372,Peridotite_rect,13,0,13,0,1,
65c6bbe7f9428763522fa244,TCN,2024-06-11_13h17.40.511,LearnStrategy,2023.2.3,Win32,59.88023952,4,2,15,,,,,,,,3,06,,,,,,,,,,,3,16.318,1,,,,,,0.154947917,-0.244791667,1,0,0,16.3178,Diorite_rect,14,0,14,0,1,
65c6bbe7f9428763522fa244,TCN,2024-06-11_13h17.40.511,LearnStrategy,2023.2.3,Win32,59.88023952,4,2,16,,,,,,,,1,03,,,,,,,,,,,2,26.77,0,,,,,,-0.12109375,-0.231770833,1,0,0,26.7696,Basalt_rect,15,0,15,0,1,
65c6bbe7f9428763522fa244,TCN,2024-06-11_13h17.40.511,LearnStrategy,2023.2.3,Win32,59.88023952,5,1,1,0,-0.022135417,1,0,0,1.5056,rock_grid_rect_2,5,07,-1,-1,1.506,-0.380208333,-0.393229167,1,0,0,1.7327,Obsidian_rect,5,1.733,1,0,0,0,0,1,,,,,,,,,,,,,
65c6bbe7f9428763522fa244,TCN,2024-06-11_13h17.40.511,LearnStrategy,2023.2.3,Win32,59.88023952,5,1,2,0.067708333,-0.016927083,1,0,0,2.041,rock_grid_rect_2,6,06,-1,-1,2.041,-0.106770833,-0.41015625,1,0,0,3.5449,Pegmatite_rect,6,3.545,1,1,0,1,0,1,,,,,,,,,,,,,
65c6bbe7f9428763522fa244,TCN,2024-06-11_13h17.40.511,LearnStrategy,2023.2.3,Win32,59.88023952,5,1,3,0.03125,0.001302083,1,0,0,1.83,rock_grid_rect_2,3,15,-1,-1,1.83,0.126302083,-0.265625,1,0,0,59.6298,Diorite_rect,3,59.63,1,2,0,2,0,1,,,,,,,,,,,,,
65c6bbe7f9428763522fa244,TCN,2024-06-11_13h17.40.511,LearnStrategy,2023.2.3,Win32,59.88023952,5,1,4,-0.029947917,-0.018229167,1,0,0,2.3735,rock_grid_rect_2,7,07,-1,-1,2.373,0.11328125,-0.401041667,1,0,0,5.544,Peridotite_rect,7,5.544,1,3,0,3,0,1,,,,,,,,,,,,,
65c6bbe7f9428763522fa244,TCN,2024-06-11_13h17.40.511,LearnStrategy,2023.2.3,Win32,59.88023952,5,1,5,0.026041667,-0.020833333,1,0,0,2.0711,rock_grid_rect_2,4,05,-1,-1,2.071,-0.13671875,-0.251302083,1,0,0,4.1598,Basalt_rect,2,4.16,0,4,0,4,0,1,,,,,,,,,,,,,
65c6bbe7f9428763522fa244,TCN,2024-06-11_13h17.40.511,LearnStrategy,2023.2.3,Win32,59.88023952,5,1,6,-0.01953125,-0.009114583,1,0,0,2.0406,rock_grid_rect_2,7,10,-1,-1,2.041,0.1171875,-0.411458333,1,0,0,18.9255,Peridotite_rect,7,18.925,1,5,0,5,0,1,,,,,,,,,,,,,
65c6bbe7f9428763522fa244,TCN,2024-06-11_13h17.40.511,LearnStrategy,2023.2.3,Win32,59.88023952,5,1,7,0.029947917,-0.001302083,1,0,0,1.2986,rock_grid_rect_2,2,06,-1,-1,1.299,-0.140625,-0.252604167,1,0,0,3.2246,Basalt_rect,2,3.225,1,6,0,6,0,1,,,,,,,,,,,,,
65c6bbe7f9428763522fa244,TCN,2024-06-11_13h17.40.511,LearnStrategy,2023.2.3,Win32,59.88023952,5,1,8,0.002604167,-0.014322917,1,0,0,1.3913,rock_grid_rect_2,8,13,-1,-1,1.391,0.380208333,-0.38671875,1,0,0,3.3873,Pumice_rect,8,3.387,1,7,0,7,0,1,,,,,,,,,,,,,
65c6bbe7f9428763522fa244,TCN,2024-06-11_13h17.40.511,LearnStrategy,2023.2.3,Win32,59.88023952,5,1,9,-0.009114583,-0.002604167,1,0,0,1.2595,rock_grid_rect_2,4,01,-1,-1,1.26,0.092447917,-0.240885417,1,0,0,8.402,Diorite_rect,3,8.402,0,8,0,8,0,1,,,,,,,,,,,,,
65c6bbe7f9428763522fa244,TCN,2024-06-11_13h17.40.511,LearnStrategy,2023.2.3,Win32,59.88023952,5,1,10,0.049479167,-0.001302083,1,0,0,1.7261,rock_grid_rect_2,6,12,-1,-1,1.726,-0.08203125,-0.403645833,1,0,0,6.8835,Pegmatite_rect,6,6.883,1,9,0,9,0,1,,,,,,,,,,,,,
65c6bbe7f9428763522fa244,TCN,2024-06-11_13h17.40.511,LearnStrategy,2023.2.3,Win32,59.88023952,5,1,11,0.026041667,-0.006510417,1,0,0,1.5472,rock_grid_rect_2,8,09,-1,-1,1.547,0.390625,-0.401041667,1,0,0,2.8596,Pumice_rect,8,2.86,1,10,0,10,0,1,,,,,,,,,,,,,
65c6bbe7f9428763522fa244,TCN,2024-06-11_13h17.40.511,LearnStrategy,2023.2.3,Win32,59.88023952,5,1,12,0.0078125,-0.014322917,1,0,0,1.6105,rock_grid_rect_2,1,04,-1,-1,1.61,0.39453125,-0.259114583,1,0,0,19.193,Gabbro_rect,4,19.193,0,11,0,11,0,1,,,,,,,,,,,,,
65c6bbe7f9428763522fa244,TCN,2024-06-11_13h17.40.511,LearnStrategy,2023.2.3,Win32,59.88023952,5,1,13,0.005208333,-0.00390625,1,0,0,2.6822,rock_grid_rect_2,1,11,-1,-1,2.682,-0.123697917,-0.40625,1,0,0,15.2974,Pegmatite_rect,6,15.297,0,12,0,12,0,1,,,,,,,,,,,,,
65c6bbe7f9428763522fa244,TCN,2024-06-11_13h17.40.511,LearnStrategy,2023.2.3,Win32,59.88023952,5,1,14,0.0546875,-0.016927083,1,0,0,1.6313,rock_grid_rect_2,3,16,-1,-1,1.631,0.1640625,-0.25390625,1,0,0,66.2904,Diorite_rect,3,66.29,1,13,0,13,0,1,,,,,,,,,,,,,
65c6bbe7f9428763522fa244,TCN,2024-06-11_13h17.40.511,LearnStrategy,2023.2.3,Win32,59.88023952,5,1,15,0.0078125,-0.00390625,1,0,0,15.8189,rock_grid_rect_2,5,16,-1,-1,15.819,-0.388020833,-0.388020833,1,0,0,2.0023,Obsidian_rect,5,2.002,1,14,0,14,0,1,,,,,,,,,,,,,
65c6bbe7f9428763522fa244,TCN,2024-06-11_13h17.40.511,LearnStrategy,2023.2.3,Win32,59.88023952,5,1,16,0.018229167,0.0078125,1,0,0,1.4531,rock_grid_rect_2,2,01,-1,-1,1.453,-0.125,-0.266927083,1,0,0,1.4754,Basalt_rect,2,1.475,1,15,0,15,0,1,,,,,,,,,,,,,
65c6bbe7f9428763522fa244,TCN,2024-06-11_13h17.40.511,LearnStrategy,2023.2.3,Win32,59.88023952,5,2,1,,,,,,,,7,15,,,,,,,,,,,3,4.2,0,,,,,,0.157552083,-0.2421875,1,0,0,4.2001,Diorite_rect,0,0,0,0,1,
65c6bbe7f9428763522fa244,TCN,2024-06-11_13h17.40.511,LearnStrategy,2023.2.3,Win32,59.88023952,5,2,2,,,,,,,,2,04,,,,,,,,,,,2,1.677,1,,,,,,-0.115885417,-0.239583333,1,0,0,1.6773,Basalt_rect,1,0,1,0,1,
65c6bbe7f9428763522fa244,TCN,2024-06-11_13h17.40.511,LearnStrategy,2023.2.3,Win32,59.88023952,5,2,3,,,,,,,,3,08,,,,,,,,,,,3,2.648,1,,,,,,0.131510417,-0.24609375,1,0,0,2.6481,Diorite_rect,2,0,2,0,1,
65c6bbe7f9428763522fa244,TCN,2024-06-11_13h17.40.511,LearnStrategy,2023.2.3,Win32,59.88023952,5,2,4,,,,,,,,4,16,,,,,,,,,,,2,5.472,0,,,,,,-0.1171875,-0.25,1,0,0,5.4719,Basalt_rect,3,0,3,0,1,
65c6bbe7f9428763522fa244,TCN,2024-06-11_13h17.40.511,LearnStrategy,2023.2.3,Win32,59.88023952,5,2,5,,,,,,,,4,09,,,,,,,,,,,2,6.579,0,,,,,,-0.127604167,-0.244791667,1,0,0,6.5794,Basalt_rect,4,0,4,0,1,
65c6bbe7f9428763522fa244,TCN,2024-06-11_13h17.40.511,LearnStrategy,2023.2.3,Win32,59.88023952,5,2,6,,,,,,,,5,09,,,,,,,,,,,5,2.17,1,,,,,,-0.3984375,-0.403645833,1,0,0,2.1702,Obsidian_rect,5,0,5,0,1,
65c6bbe7f9428763522fa244,TCN,2024-06-11_13h17.40.511,LearnStrategy,2023.2.3,Win32,59.88023952,5,2,7,,,,,,,,6,05,,,,,,,,,,,6,11.665,1,,,,,,-0.135416667,-0.40234375,1,0,0,11.6648,Pegmatite_rect,6,0,6,0,1,
65c6bbe7f9428763522fa244,TCN,2024-06-11_13h17.40.511,LearnStrategy,2023.2.3,Win32,59.88023952,5,2,8,,,,,,,,2,14,,,,,,,,,,,8,8.541,0,,,,,,0.3828125,-0.4140625,1,0,0,8.5412,Pumice_rect,7,0,7,0,1,
65c6bbe7f9428763522fa244,TCN,2024-06-11_13h17.40.511,LearnStrategy,2023.2.3,Win32,59.88023952,5,2,9,,,,,,,,3,14,,,,,,,,,,,3,1.478,1,,,,,,0.147135417,-0.24609375,1,0,0,1.4778,Diorite_rect,8,0,8,0,1,
65c6bbe7f9428763522fa244,TCN,2024-06-11_13h17.40.511,LearnStrategy,2023.2.3,Win32,59.88023952,5,2,10,,,,,,,,1,02,,,,,,,,,,,6,53.211,0,,,,,,-0.182291667,-0.381510417,1,0,0,53.211,Pegmatite_rect,9,0,9,0,1,
65c6bbe7f9428763522fa244,TCN,2024-06-11_13h17.40.511,LearnStrategy,2023.2.3,Win32,59.88023952,5,2,11,,,,,,,,5,10,,,,,,,,,,,5,1.515,1,,,,,,-0.325520833,-0.403645833,1,0,0,1.5153,Obsidian_rect,10,0,10,0,1,
65c6bbe7f9428763522fa244,TCN,2024-06-11_13h17.40.511,LearnStrategy,2023.2.3,Win32,59.88023952,5,2,12,,,,,,,,6,15,,,,,,,,,,,6,2.398,1,,,,,,-0.1796875,-0.40234375,1,0,0,2.3984,Pegmatite_rect,11,0,11,0,1,
65c6bbe7f9428763522fa244,TCN,2024-06-11_13h17.40.511,LearnStrategy,2023.2.3,Win32,59.88023952,5,2,13,,,,,,,,1,10,,,,,,,,,,,4,14.889,0,,,,,,0.424479167,-0.251302083,1,0,0,14.8893,Gabbro_rect,12,0,12,0,1,
65c6bbe7f9428763522fa244,TCN,2024-06-11_13h17.40.511,LearnStrategy,2023.2.3,Win32,59.88023952,5,2,14,,,,,,,,8,04,,,,,,,,,,,8,2.466,1,,,,,,0.45703125,-0.391927083,1,0,0,2.4664,Pumice_rect,13,0,13,0,1,
65c6bbe7f9428763522fa244,TCN,2024-06-11_13h17.40.511,LearnStrategy,2023.2.3,Win32,59.88023952,5,2,15,,,,,,,,8,03,,,,,,,,,,,8,1.638,1,,,,,,0.4140625,-0.411458333,1,0,0,1.6379,Pumice_rect,14,0,14,0,1,
65c6bbe7f9428763522fa244,TCN,2024-06-11_13h17.40.511,LearnStrategy,2023.2.3,Win32,59.88023952,5,2,16,,,,,,,,7,16,,,,,,,,,,,2,5.915,0,,,,,,-0.108072917,-0.256510417,1,0,0,5.9154,Basalt_rect,15,0,15,0,1,
65c6bbe7f9428763522fa244,TCN,2024-06-11_13h17.40.511,LearnStrategy,2023.2.3,Win32,59.88023952,6,1,1,0.033854167,0,1,0,0,2.2677,rock_grid_rect_2,7,05,-1,-1,2.268,0.365885417,-0.247395833,1,0,0,8.9608,Gabbro_rect,4,8.961,0,0,0,0,0,1,,,,,,,,,,,,,
65c6bbe7f9428763522fa244,TCN,2024-06-11_13h17.40.511,LearnStrategy,2023.2.3,Win32,59.88023952,6,1,2,0.032552083,0.001302083,1,0,0,1.2496,rock_grid_rect_2,5,05,-1,-1,1.25,-0.380208333,-0.399739583,1,0,0,3.9401,Obsidian_rect,5,3.94,1,1,0,1,0,1,,,,,,,,,,,,,
65c6bbe7f9428763522fa244,TCN,2024-06-11_13h17.40.511,LearnStrategy,2023.2.3,Win32,59.88023952,6,1,3,0.010416667,-0.018229167,1,0,0,1.7579,rock_grid_rect_2,2,12,-1,-1,1.758,0.38671875,-0.404947917,1,0,0,3.3288,Pumice_rect,8,3.329,0,2,0,2,0,1,,,,,,,,,,,,,
65c6bbe7f9428763522fa244,TCN,2024-06-11_13h17.40.511,LearnStrategy,2023.2.3,Win32,59.88023952,6,1,4,0.029947917,-0.002604167,1,0,0,1.9053,rock_grid_rect_2,1,07,-1,-1,1.905,0.147135417,-0.264322917,1,0,0,3.4944,Diorite_rect,3,3.494,0,3,0,3,0,1,,,,,,,,,,,,,
65c6bbe7f9428763522fa244,TCN,2024-06-11_13h17.40.511,LearnStrategy,2023.2.3,Win32,59.88023952,6,1,5,0.0390625,-0.0078125,1,0,0,1.5478,rock_grid_rect_2,4,15,-1,-1,1.548,0.158854167,-0.243489583,1,0,0,9.4879,Diorite_rect,3,9.488,0,4,0,4,0,1,,,,,,,,,,,,,
65c6bbe7f9428763522fa244,TCN,2024-06-11_13h17.40.511,LearnStrategy,2023.2.3,Win32,59.88023952,6,1,6,0.045572917,-0.018229167,1,0,0,1.3868,rock_grid_rect_2,6,07,-1,-1,1.387,-0.100260417,-0.380208333,1,0,0,2.8285,Pegmatite_rect,6,2.828,1,5,0,5,0,1,,,,,,,,,,,,,
65c6bbe7f9428763522fa244,TCN,2024-06-11_13h17.40.511,LearnStrategy,2023.2.3,Win32,59.88023952,6,1,7,0.010416667,0.005208333,1,0,0,1.0797,rock_grid_rect_2,8,15,-1,-1,1.08,0.432291667,-0.393229167,1,0,0,4.544,Pumice_rect,8,4.544,1,6,0,6,0,1,,,,,,,,,,,,,
65c6bbe7f9428763522fa244,TCN,2024-06-11_13h17.40.511,LearnStrategy,2023.2.3,Win32,59.88023952,6,1,8,0.0078125,-0.009114583,1,0,0,1.3947,rock_grid_rect_2,7,04,-1,-1,1.395,0.118489583,-0.260416667,1,0,0,5.539,Diorite_rect,3,5.539,0,7,0,7,0,1,,,,,,,,,,,,,
65c6bbe7f9428763522fa244,TCN,2024-06-11_13h17.40.511,LearnStrategy,2023.2.3,Win32,59.88023952,6,1,9,0.026041667,-0.014322917,1,0,0,1.3977,rock_grid_rect_2,5,12,-1,-1,1.398,-0.317708333,-0.39453125,1,0,0,1.4745,Obsidian_rect,5,1.474,1,8,0,8,0,1,,,,,,,,,,,,,
65c6bbe7f9428763522fa244,TCN,2024-06-11_13h17.40.511,LearnStrategy,2023.2.3,Win32,59.88023952,6,1,10,0.01171875,0,1,0,0,1.4411,rock_grid_rect_2,3,02,-1,-1,1.441,-0.373697917,-0.23828125,1,0,0,5.4055,Andesite_rect,1,5.405,0,9,0,9,0,1,,,,,,,,,,,,,
65c6bbe7f9428763522fa244,TCN,2024-06-11_13h17.40.511,LearnStrategy,2023.2.3,Win32,59.88023952,6,1,11,0.03125,0.00390625,1,0,0,1.158,rock_grid_rect_2,6,09,-1,-1,1.158,-0.1015625,-0.388020833,1,0,0,5.3281,Pegmatite_rect,6,5.328,1,10,0,10,0,1,,,,,,,,,,,,,
65c6bbe7f9428763522fa244,TCN,2024-06-11_13h17.40.511,LearnStrategy,2023.2.3,Win32,59.88023952,6,1,12,0.010416667,0.00390625,1,0,0,2.3043,rock_grid_rect_2,8,06,-1,-1,2.304,0.369791667,-0.39453125,1,0,0,1.9781,Pumice_rect,8,1.978,1,11,0,11,0,1,,,,,,,,,,,,,
65c6bbe7f9428763522fa244,TCN,2024-06-11_13h17.40.511,LearnStrategy,2023.2.3,Win32,59.88023952,6,1,13,0.036458333,-0.009114583,1,0,0,1.7712,rock_grid_rect_2,3,10,-1,-1,1.771,0.180989583,-0.380208333,1,0,0,12.2835,Peridotite_rect,7,12.283,0,12,0,12,0,1,,,,,,,,,,,,,
65c6bbe7f9428763522fa244,TCN,2024-06-11_13h17.40.511,LearnStrategy,2023.2.3,Win32,59.88023952,6,1,14,-0.014322917,0.00390625,1,0,0,1.1239,rock_grid_rect_2,1,09,-1,-1,1.124,-0.354166667,-0.233072917,1,0,0,9.6455,Andesite_rect,1,9.646,1,13,0,13,0,1,,,,,,,,,,,,,
65c6bbe7f9428763522fa244,TCN,2024-06-11_13h17.40.511,LearnStrategy,2023.2.3,Win32,59.88023952,6,1,15,0.048177083,0.002604167,1,0,0,1.3156,rock_grid_rect_2,2,10,-1,-1,1.316,-0.131510417,-0.236979167,1,0,0,1.6218,Basalt_rect,2,1.622,1,14,0,14,0,1,,,,,,,,,,,,,
65c6bbe7f9428763522fa244,TCN,2024-06-11_13h17.40.511,LearnStrategy,2023.2.3,Win32,59.88023952,6,1,16,0.005208333,-0.005208333,1,0,0,1.3433,rock_grid_rect_2,4,03,-1,-1,1.343,0.1484375,-0.236979167,1,0,0,3.5459,Diorite_rect,3,3.546,0,15,0,15,0,1,,,,,,,,,,,,,
65c6bbe7f9428763522fa244,TCN,2024-06-11_13h17.40.511,LearnStrategy,2023.2.3,Win32,59.88023952,6,2,1,,,,,,,,1,14,,,,,,,,,,,1,48.206,1,,,,,,-0.408854167,-0.240885417,1,0,0,48.2063,Andesite_rect,0,0,0,0,1,
65c6bbe7f9428763522fa244,TCN,2024-06-11_13h17.40.511,LearnStrategy,2023.2.3,Win32,59.88023952,6,2,2,,,,,,,,8,08,,,,,,,,,,,8,2.632,1,,,,,,0.369791667,-0.407552083,1,0,0,2.6323,Pumice_rect,1,0,1,0,1,
65c6bbe7f9428763522fa244,TCN,2024-06-11_13h17.40.511,LearnStrategy,2023.2.3,Win32,59.88023952,6,2,3,,,,,,,,6,10,,,,,,,,,,,6,1.412,1,,,,,,-0.08203125,-0.380208333,1,0,0,1.4122,Pegmatite_rect,2,0,2,0,1,
65c6bbe7f9428763522fa244,TCN,2024-06-11_13h17.40.511,LearnStrategy,2023.2.3,Win32,59.88023952,6,2,4,,,,,,,,4,13,,,,,,,,,,,4,22.285,1,,,,,,0.37890625,-0.248697917,1,0,0,22.2853,Gabbro_rect,3,0,3,0,1,
65c6bbe7f9428763522fa244,TCN,2024-06-11_13h17.40.511,LearnStrategy,2023.2.3,Win32,59.88023952,6,2,5,,,,,,,,6,16,,,,,,,,,,,6,4.011,1,,,,,,-0.127604167,-0.419270833,1,0,0,4.011,Pegmatite_rect,4,0,4,0,1,
65c6bbe7f9428763522fa244,TCN,2024-06-11_13h17.40.511,LearnStrategy,2023.2.3,Win32,59.88023952,6,2,6,,,,,,,,5,11,,,,,,,,,,,5,1.417,1,,,,,,-0.34765625,-0.40625,1,0,0,1.4172,Obsidian_rect,5,0,5,0,1,
65c6bbe7f9428763522fa244,TCN,2024-06-11_13h17.40.511,LearnStrategy,2023.2.3,Win32,59.88023952,6,2,7,,,,,,,,4,11,,,,,,,,,,,4,11.833,1,,,,,,0.40234375,-0.23828125,1,0,0,11.8333,Gabbro_rect,6,0,6,0,1,
65c6bbe7f9428763522fa244,TCN,2024-06-11_13h17.40.511,LearnStrategy,2023.2.3,Win32,59.88023952,6,2,8,,,,,,,,5,02,,,,,,,,,,,5,1.693,1,,,,,,-0.375,-0.407552083,1,0,0,1.6926,Obsidian_rect,7,0,7,0,1,
65c6bbe7f9428763522fa244,TCN,2024-06-11_13h17.40.511,LearnStrategy,2023.2.3,Win32,59.88023952,6,2,9,,,,,,,,2,05,,,,,,,,,,,2,1.474,1,,,,,,-0.122395833,-0.2421875,1,0,0,1.4743,Basalt_rect,8,0,8,0,1,
65c6bbe7f9428763522fa244,TCN,2024-06-11_13h17.40.511,LearnStrategy,2023.2.3,Win32,59.88023952,6,2,10,,,,,,,,3,09,,,,,,,,,,,3,17.192,1,,,,,,0.141927083,-0.240885417,1,0,0,17.1923,Diorite_rect,9,0,9,0,1,
65c6bbe7f9428763522fa244,TCN,2024-06-11_13h17.40.511,LearnStrategy,2023.2.3,Win32,59.88023952,6,2,11,,,,,,,,3,11,,,,,,,,,,,3,17.267,1,,,,,,0.141927083,-0.240885417,1,0,0,17.2665,Diorite_rect,10,0,10,0,1,
65c6bbe7f9428763522fa244,TCN,2024-06-11_13h17.40.511,LearnStrategy,2023.2.3,Win32,59.88023952,6,2,12,,,,,,,,1,16,,,,,,,,,,,7,11.086,0,,,,,,0.149739583,-0.37890625,1,0,0,11.0858,Peridotite_rect,11,0,11,0,1,
65c6bbe7f9428763522fa244,TCN,2024-06-11_13h17.40.511,LearnStrategy,2023.2.3,Win32,59.88023952,6,2,13,,,,,,,,8,02,,,,,,,,,,,8,2.802,1,,,,,,0.375,-0.390625,1,0,0,2.8024,Pumice_rect,12,0,12,0,1,
65c6bbe7f9428763522fa244,TCN,2024-06-11_13h17.40.511,LearnStrategy,2023.2.3,Win32,59.88023952,6,2,14,,,,,,,,7,06,,,,,,,,,,,6,2.098,0,,,,,,-0.09375,-0.416666667,1,0,0,2.0976,Pegmatite_rect,13,0,13,0,1,
65c6bbe7f9428763522fa244,TCN,2024-06-11_13h17.40.511,LearnStrategy,2023.2.3,Win32,59.88023952,6,2,15,,,,,,,,7,13,,,,,,,,,,,7,80.561,1,,,,,,0.139322917,-0.390625,1,0,0,80.5612,Peridotite_rect,14,0,14,0,1,
65c6bbe7f9428763522fa244,TCN,2024-06-11_13h17.40.511,LearnStrategy,2023.2.3,Win32,59.88023952,6,2,16,,,,,,,,2,09,,,,,,,,,,,2,1.769,1,,,,,,-0.130208333,-0.264322917,1,0,0,1.7688,Basalt_rect,15,0,15,0,1,
65c6bbe7f9428763522fa244,TCN,2024-06-11_13h17.40.511,LearnStrategy,2023.2.3,Win32,59.88023952,7,1,1,-0.087239583,-0.022135417,1,0,0,1.7775,rock_grid_rect_2,2,10,-1,-1,1.778,-0.169270833,-0.260416667,1,0,0,3.298,Basalt_rect,2,3.298,1,0,0,0,0,1,,,,,,,,,,,,,
65c6bbe7f9428763522fa244,TCN,2024-06-11_13h17.40.511,LearnStrategy,2023.2.3,Win32,59.88023952,7,1,2,0.016927083,-0.005208333,1,0,0,1.5907,rock_grid_rect_2,4,03,-1,-1,1.591,0.377604167,-0.259114583,1,0,0,41.1087,Gabbro_rect,4,41.109,1,1,0,1,0,1,,,,,,,,,,,,,
65c6bbe7f9428763522fa244,TCN,2024-06-11_13h17.40.511,LearnStrategy,2023.2.3,Win32,59.88023952,7,1,3,0.01171875,-0.00390625,1,0,0,1.4698,rock_grid_rect_2,3,02,-1,-1,1.47,0.16796875,-0.256510417,1,0,0,5.5483,Diorite_rect,3,5.548,1,2,0,2,0,1,,,,,,,,,,,,,
65c6bbe7f9428763522fa244,TCN,2024-06-11_13h17.40.511,LearnStrategy,2023.2.3,Win32,59.88023952,7,1,4,0.029947917,-0.006510417,1,0,0,1.8411,rock_grid_rect_2,8,15,-1,-1,1.841,0.3359375,-0.41796875,1,0,0,1.5718,Pumice_rect,8,1.572,1,3,0,3,0,1,,,,,,,,,,,,,
65c6bbe7f9428763522fa244,TCN,2024-06-11_13h17.40.511,LearnStrategy,2023.2.3,Win32,59.88023952,7,1,5,0.01953125,0.00390625,1,0,0,1.2935,rock_grid_rect_2,1,11,-1,-1,1.293,-0.15625,-0.40625,1,0,0,14.9889,Pegmatite_rect,6,14.989,0,4,0,4,0,1,,,,,,,,,,,,,
65c6bbe7f9428763522fa244,TCN,2024-06-11_13h17.40.511,LearnStrategy,2023.2.3,Win32,59.88023952,7,1,6,0.071614583,0.002604167,1,0,0,1.1982,rock_grid_rect_2,5,12,-1,-1,1.198,-0.373697917,-0.395833333,1,0,0,1.8451,Obsidian_rect,5,1.845,1,5,0,5,0,1,,,,,,,,,,,,,
65c6bbe7f9428763522fa244,TCN,2024-06-11_13h17.40.511,LearnStrategy,2023.2.3,Win32,59.88023952,7,1,7,-0.009114583,0.018229167,1,0,0,1.2581,rock_grid_rect_2,3,13,-1,-1,1.258,0.131510417,-0.247395833,1,0,0,2.7073,Diorite_rect,3,2.707,1,6,0,6,0,1,,,,,,,,,,,,,
65c6bbe7f9428763522fa244,TCN,2024-06-11_13h17.40.511,LearnStrategy,2023.2.3,Win32,59.88023952,7,1,8,0.0234375,-0.01171875,1,0,0,1.2105,rock_grid_rect_2,6,03,-1,-1,1.21,-0.106770833,-0.38671875,1,0,0,1.6668,Pegmatite_rect,6,1.667,1,7,0,7,0,1,,,,,,,,,,,,,
65c6bbe7f9428763522fa244,TCN,2024-06-11_13h17.40.511,LearnStrategy,2023.2.3,Win32,59.88023952,7,1,9,0.036458333,-0.013020833,1,0,0,1.3747,rock_grid_rect_2,4,01,-1,-1,1.375,0.416666667,-0.248697917,1,0,0,7.6608,Gabbro_rect,4,7.661,1,8,0,8,0,1,,,,,,,,,,,,,
65c6bbe7f9428763522fa244,TCN,2024-06-11_13h17.40.511,LearnStrategy,2023.2.3,Win32,59.88023952,7,1,10,0.0078125,0.006510417,1,0,0,1.208,rock_grid_rect_2,2,08,-1,-1,1.208,-0.100260417,-0.256510417,1,0,0,1.2835,Basalt_rect,2,1.284,1,9,0,9,0,1,,,,,,,,,,,,,
65c6bbe7f9428763522fa244,TCN,2024-06-11_13h17.40.511,LearnStrategy,2023.2.3,Win32,59.88023952,7,1,11,0.049479167,-0.01953125,1,0,0,1.4604,rock_grid_rect_2,1,09,-1,-1,1.46,-0.35546875,-0.231770833,1,0,0,3.2663,Andesite_rect,1,3.266,1,10,0,10,0,1,,,,,,,,,,,,,
65c6bbe7f9428763522fa244,TCN,2024-06-11_13h17.40.511,LearnStrategy,2023.2.3,Win32,59.88023952,7,1,12,0.014322917,-0.006510417,1,0,0,1.2623,rock_grid_rect_2,7,14,-1,-1,1.262,0.126302083,-0.255208333,1,0,0,19.6455,Diorite_rect,3,19.645,0,11,0,11,0,1,,,,,,,,,,,,,
65c6bbe7f9428763522fa244,TCN,2024-06-11_13h17.40.511,LearnStrategy,2023.2.3,Win32,59.88023952,7,1,13,0.028645833,0.002604167,1,0,0,2.0881,rock_grid_rect_2,7,07,-1,-1,2.088,0.365885417,-0.256510417,1,0,0,3.7767,Gabbro_rect,4,3.777,0,12,0,12,0,1,,,,,,,,,,,,,
65c6bbe7f9428763522fa244,TCN,2024-06-11_13h17.40.511,LearnStrategy,2023.2.3,Win32,59.88023952,7,1,14,0.04296875,-0.006510417,1,0,0,1.4721,rock_grid_rect_2,8,09,-1,-1,1.472,0.419270833,-0.389322917,1,0,0,1.8359,Pumice_rect,8,1.836,1,13,0,13,0,1,,,,,,,,,,,,,
65c6bbe7f9428763522fa244,TCN,2024-06-11_13h17.40.511,LearnStrategy,2023.2.3,Win32,59.88023952,7,1,15,0.046875,-0.01171875,1,0,0,1.308,rock_grid_rect_2,6,13,-1,-1,1.308,-0.16015625,-0.412760417,1,0,0,2.6419,Pegmatite_rect,6,2.642,1,14,0,14,0,1,,,,,,,,,,,,,
65c6bbe7f9428763522fa244,TCN,2024-06-11_13h17.40.511,LearnStrategy,2023.2.3,Win32,59.88023952,7,1,16,0.005208333,0.006510417,1,0,0,1.1212,rock_grid_rect_2,5,14,-1,-1,1.121,-0.325520833,-0.391927083,1,0,0,1.3682,Obsidian_rect,5,1.368,1,15,0,15,0,1,,,,,,,,,,,,,
65c6bbe7f9428763522fa244,TCN,2024-06-11_13h17.40.511,LearnStrategy,2023.2.3,Win32,59.88023952,7,2,1,,,,,,,,5,06,,,,,,,,,,,5,3.476,1,,,,,,-0.424479167,-0.41015625,1,0,0,3.4758,Obsidian_rect,0,0,0,0,1,
65c6bbe7f9428763522fa244,TCN,2024-06-11_13h17.40.511,LearnStrategy,2023.2.3,Win32,59.88023952,7,2,2,,,,,,,,5,10,,,,,,,,,,,5,2.152,1,,,,,,-0.397135417,-0.411458333,1,0,0,2.1516,Obsidian_rect,1,0,1,0,1,
65c6bbe7f9428763522fa244,TCN,2024-06-11_13h17.40.511,LearnStrategy,2023.2.3,Win32,59.88023952,7,2,3,,,,,,,,3,08,,,,,,,,,,,3,5.025,1,,,,,,0.123697917,-0.244791667,1,0,0,5.0254,Diorite_rect,2,0,2,0,1,
65c6bbe7f9428763522fa244,TCN,2024-06-11_13h17.40.511,LearnStrategy,2023.2.3,Win32,59.88023952,7,2,4,,,,,,,,3,09,,,,,,,,,,,3,2.666,1,,,,,,0.114583333,-0.233072917,1,0,0,2.6664,Diorite_rect,3,0,3,0,1,
65c6bbe7f9428763522fa244,TCN,2024-06-11_13h17.40.511,LearnStrategy,2023.2.3,Win32,59.88023952,7,2,5,,,,,,,,4,09,,,,,,,,,,,2,6.215,0,,,,,,-0.108072917,-0.247395833,1,0,0,6.2154,Basalt_rect,4,0,4,0,1,
65c6bbe7f9428763522fa244,TCN,2024-06-11_13h17.40.511,LearnStrategy,2023.2.3,Win32,59.88023952,7,2,6,,,,,,,,1,05,,,,,,,,,,,7,141.473,0,,,,,,0.184895833,-0.389322917,1,0,0,141.4731,Peridotite_rect,5,0,5,0,1,
65c6bbe7f9428763522fa244,TCN,2024-06-11_13h17.40.511,LearnStrategy,2023.2.3,Win32,59.88023952,7,2,7,,,,,,,,7,16,,,,,,,,,,,4,34.504,0,,,,,,0.419270833,-0.256510417,1,0,0,34.5038,Gabbro_rect,6,0,6,0,1,
65c6bbe7f9428763522fa244,TCN,2024-06-11_13h17.40.511,LearnStrategy,2023.2.3,Win32,59.88023952,7,2,8,,,,,,,,8,08,,,,,,,,,,,8,1.746,1,,,,,,0.432291667,-0.403645833,1,0,0,1.7462,Pumice_rect,7,0,7,0,1,
65c6bbe7f9428763522fa244,TCN,2024-06-11_13h17.40.511,LearnStrategy,2023.2.3,Win32,59.88023952,7,2,9,,,,,,,,4,14,,,,,,,,,,,4,21.806,1,,,,,,0.393229167,-0.233072917,1,0,0,21.8058,Gabbro_rect,8,0,8,0,1,
65c6bbe7f9428763522fa244,TCN,2024-06-11_13h17.40.511,LearnStrategy,2023.2.3,Win32,59.88023952,7,2,10,,,,,,,,2,05,,,,,,,,,,,2,1.467,1,,,,,,-0.122395833,-0.256510417,1,0,0,1.4675,Basalt_rect,9,0,9,0,1,
65c6bbe7f9428763522fa244,TCN,2024-06-11_13h17.40.511,LearnStrategy,2023.2.3,Win32,59.88023952,7,2,11,,,,,,,,2,14,,,,,,,,,,,8,29.42,0,,,,,,0.416666667,-0.393229167,1,0,0,29.4197,Pumice_rect,10,0,10,0,1,
65c6bbe7f9428763522fa244,TCN,2024-06-11_13h17.40.511,LearnStrategy,2023.2.3,Win32,59.88023952,7,2,12,,,,,,,,8,10,,,,,,,,,,,8,2.701,1,,,,,,0.395833333,-0.40234375,1,0,0,2.7006,Pumice_rect,11,0,11,0,1,
65c6bbe7f9428763522fa244,TCN,2024-06-11_13h17.40.511,LearnStrategy,2023.2.3,Win32,59.88023952,7,2,13,,,,,,,,6,16,,,,,,,,,,,6,1.621,1,,,,,,-0.1796875,-0.391927083,1,0,0,1.6214,Pegmatite_rect,12,0,12,0,1,
65c6bbe7f9428763522fa244,TCN,2024-06-11_13h17.40.511,LearnStrategy,2023.2.3,Win32,59.88023952,7,2,14,,,,,,,,1,10,,,,,,,,,,,4,60.168,0,,,,,,0.397135417,-0.248697917,1,0,0,60.1685,Gabbro_rect,13,0,13,0,1,
65c6bbe7f9428763522fa244,TCN,2024-06-11_13h17.40.511,LearnStrategy,2023.2.3,Win32,59.88023952,7,2,15,,,,,,,,6,05,,,,,,,,,,,6,1.792,1,,,,,,-0.109375,-0.4140625,1,0,0,1.7924,Pegmatite_rect,14,0,14,0,1,
65c6bbe7f9428763522fa244,TCN,2024-06-11_13h17.40.511,LearnStrategy,2023.2.3,Win32,59.88023952,7,2,16,,,,,,,,7,02,,,,,,,,,,,7,4.65,1,,,,,,0.158854167,-0.389322917,1,0,0,4.6504,Peridotite_rect,15,0,15,0,1,
65c6bbe7f9428763522fa244,TCN,2024-06-11_13h17.40.511,LearnStrategy,2023.2.3,Win32,59.88023952,8,1,1,-0.03515625,0.0078125,1,0,0,1.8257,rock_grid_rect_2,1,01,-1,-1,1.826,0.12890625,-0.243489583,1,0,0,5.8313,Diorite_rect,3,5.831,0,0,0,0,0,1,,,,,,,,,,,,,
65c6bbe7f9428763522fa244,TCN,2024-06-11_13h17.40.511,LearnStrategy,2023.2.3,Win32,59.88023952,8,1,2,0.01953125,-0.010416667,1,0,0,1.5317,rock_grid_rect_2,5,05,-1,-1,1.532,-0.3828125,-0.40234375,1,0,0,2.3974,Obsidian_rect,5,2.397,1,1,0,1,0,1,,,,,,,,,,,,,
65c6bbe7f9428763522fa244,TCN,2024-06-11_13h17.40.511,LearnStrategy,2023.2.3,Win32,59.88023952,8,1,3,-0.024739583,0.002604167,1,0,0,1.2075,rock_grid_rect_2,7,12,-1,-1,1.208,0.12890625,-0.399739583,1,0,0,9.6024,Peridotite_rect,7,9.602,1,2,0,2,0,1,,,,,,,,,,,,,
65c6bbe7f9428763522fa244,TCN,2024-06-11_13h17.40.511,LearnStrategy,2023.2.3,Win32,59.88023952,8,1,4,0.028645833,-0.006510417,1,0,0,1.1225,rock_grid_rect_2,5,16,-1,-1,1.123,-0.39453125,-0.404947917,1,0,0,2.7858,Obsidian_rect,5,2.786,1,3,0,3,0,1,,,,,,,,,,,,,
65c6bbe7f9428763522fa244,TCN,2024-06-11_13h17.40.511,LearnStrategy,2023.2.3,Win32,59.88023952,8,1,5,0.026041667,0.0078125,1,0,0,1.7466,rock_grid_rect_2,3,15,-1,-1,1.747,0.145833333,-0.23828125,1,0,0,7.9496,Diorite_rect,3,7.95,1,4,0,4,0,1,,,,,,,,,,,,,
65c6bbe7f9428763522fa244,TCN,2024-06-11_13h17.40.511,LearnStrategy,2023.2.3,Win32,59.88023952,8,1,6,0.018229167,-0.009114583,1,0,0,1.1233,rock_grid_rect_2,7,04,-1,-1,1.123,0.108072917,-0.391927083,1,0,0,2.5475,Peridotite_rect,7,2.548,1,5,0,5,0,1,,,,,,,,,,,,,
65c6bbe7f9428763522fa244,TCN,2024-06-11_13h17.40.511,LearnStrategy,2023.2.3,Win32,59.88023952,8,1,7,0.009114583,0.022135417,1,0,0,1.1082,rock_grid_rect_2,2,12,-1,-1,1.108,0.403645833,-0.395833333,1,0,0,4.9657,Pumice_rect,8,4.966,0,6,0,6,0,1,,,,,,,,,,,,,
65c6bbe7f9428763522fa244,TCN,2024-06-11_13h17.40.511,LearnStrategy,2023.2.3,Win32,59.88023952,8,1,8,0.072916667,-0.01171875,1,0,0,1.8168,rock_grid_rect_2,4,10,-1,-1,1.817,0.368489583,-0.24609375,1,0,0,2.1665,Gabbro_rect,4,2.167,1,7,0,7,0,1,,,,,,,,,,,,,
65c6bbe7f9428763522fa244,TCN,2024-06-11_13h17.40.511,LearnStrategy,2023.2.3,Win32,59.88023952,8,1,9,0.01171875,0.002604167,1,0,0,1.8917,rock_grid_rect_2,6,12,-1,-1,1.892,-0.12109375,-0.388020833,1,0,0,3.5995,Pegmatite_rect,6,3.599,1,8,0,8,0,1,,,,,,,,,,,,,
65c6bbe7f9428763522fa244,TCN,2024-06-11_13h17.40.511,LearnStrategy,2023.2.3,Win32,59.88023952,8,1,10,0.041666667,-0.005208333,1,0,0,1.1499,rock_grid_rect_2,1,07,-1,-1,1.15,-0.364583333,-0.231770833,1,0,0,2.4074,Andesite_rect,1,2.407,1,9,0,9,0,1,,,,,,,,,,,,,
65c6bbe7f9428763522fa244,TCN,2024-06-11_13h17.40.511,LearnStrategy,2023.2.3,Win32,59.88023952,8,1,11,0.009114583,-0.001302083,1,0,0,1.1604,rock_grid_rect_2,6,06,-1,-1,1.16,-0.114583333,-0.381510417,1,0,0,9.1187,Pegmatite_rect,6,9.119,1,10,0,10,0,1,,,,,,,,,,,,,
65c6bbe7f9428763522fa244,TCN,2024-06-11_13h17.40.511,LearnStrategy,2023.2.3,Win32,59.88023952,8,1,12,0.01953125,-0.001302083,1,0,0,1.0832,rock_grid_rect_2,8,06,-1,-1,1.083,0.37109375,-0.395833333,1,0,0,3.4275,Pumice_rect,8,3.427,1,11,0,11,0,1,,,,,,,,,,,,,
65c6bbe7f9428763522fa244,TCN,2024-06-11_13h17.40.511,LearnStrategy,2023.2.3,Win32,59.88023952,8,1,13,0.028645833,0.018229167,1,0,0,1.8215,rock_grid_rect_2,3,10,-1,-1,1.822,0.147135417,-0.26171875,1,0,0,7.5513,Diorite_rect,3,7.551,1,12,0,12,0,1,,,,,,,,,,,,,
65c6bbe7f9428763522fa244,TCN,2024-06-11_13h17.40.511,LearnStrategy,2023.2.3,Win32,59.88023952,8,1,14,0.078125,0.010416667,1,0,0,1.1387,rock_grid_rect_2,4,15,-1,-1,1.139,0.088541667,-0.231770833,1,0,0,5.3353,Diorite_rect,3,5.335,0,13,0,13,0,1,,,,,,,,,,,,,
65c6bbe7f9428763522fa244,TCN,2024-06-11_13h17.40.511,LearnStrategy,2023.2.3,Win32,59.88023952,8,1,15,0.057291667,-0.00390625,1,0,0,1.2416,rock_grid_rect_2,8,16,-1,-1,1.242,0.361979167,-0.393229167,1,0,0,4.3729,Pumice_rect,8,4.373,1,14,0,14,0,1,,,,,,,,,,,,,
65c6bbe7f9428763522fa244,TCN,2024-06-11_13h17.40.511,LearnStrategy,2023.2.3,Win32,59.88023952,8,1,16,0.005208333,0.016927083,1,0,0,1.2207,rock_grid_rect_2,2,16,-1,-1,1.221,-0.143229167,-0.25,1,0,0,2.3203,Basalt_rect,2,2.32,1,15,0,15,0,1,,,,,,,,,,,,,
65c6bbe7f9428763522fa244,TCN,2024-06-11_13h17.40.511,LearnStrategy,2023.2.3,Win32,59.88023952,8,2,1,,,,,,,,8,03,,,,,,,,,,,8,2.238,1,,,,,,0.3671875,-0.404947917,1,0,0,2.2376,Pumice_rect,0,0,0,0,1,
65c6bbe7f9428763522fa244,TCN,2024-06-11_13h17.40.511,LearnStrategy,2023.2.3,Win32,59.88023952,8,2,2,,,,,,,,5,09,,,,,,,,,,,5,1.69,1,,,,,,-0.37109375,-0.381510417,1,0,0,1.6903,Obsidian_rect,1,0,1,0,1,
65c6bbe7f9428763522fa244,TCN,2024-06-11_13h17.40.511,LearnStrategy,2023.2.3,Win32,59.88023952,8,2,3,,,,,,,,1,02,,,,,,,,,,,6,10.867,0,,,,,,-0.174479167,-0.40234375,1,0,0,10.8669,Pegmatite_rect,2,0,2,0,1,
65c6bbe7f9428763522fa244,TCN,2024-06-11_13h17.40.511,LearnStrategy,2023.2.3,Win32,59.88023952,8,2,4,,,,,,,,2,02,,,,,,,,,,,2,1.762,1,,,,,,-0.12109375,-0.24609375,1,0,0,1.7624,Basalt_rect,3,0,3,0,1,
65c6bbe7f9428763522fa244,TCN,2024-06-11_13h17.40.511,LearnStrategy,2023.2.3,Win32,59.88023952,8,2,5,,,,,,,,5,04,,,,,,,,,,,5,1.386,1,,,,,,-0.376302083,-0.38671875,1,0,0,1.3858,Obsidian_rect,4,0,4,0,1,
65c6bbe7f9428763522fa244,TCN,2024-06-11_13h17.40.511,LearnStrategy,2023.2.3,Win32,59.88023952,8,2,6,,,,,,,,1,16,,,,,,,,,,,7,5.575,0,,,,,,0.122395833,-0.397135417,1,0,0,5.5748,Peridotite_rect,5,0,5,0,1,
65c6bbe7f9428763522fa244,TCN,2024-06-11_13h17.40.511,LearnStrategy,2023.2.3,Win32,59.88023952,8,2,7,,,,,,,,7,15,,,,,,,,,,,7,79.21,1,,,,,,0.169270833,-0.381510417,1,0,0,79.2096,Peridotite_rect,6,0,6,0,1,
65c6bbe7f9428763522fa244,TCN,2024-06-11_13h17.40.511,LearnStrategy,2023.2.3,Win32,59.88023952,8,2,8,,,,,,,,8,04,,,,,,,,,,,8,1.573,1,,,,,,0.380208333,-0.404947917,1,0,0,1.5727,Pumice_rect,7,0,7,0,1,
65c6bbe7f9428763522fa244,TCN,2024-06-11_13h17.40.511,LearnStrategy,2023.2.3,Win32,59.88023952,8,2,9,,,,,,,,4,13,,,,,,,,,,,4,1.906,1,,,,,,0.375,-0.240885417,1,0,0,1.9064,Gabbro_rect,8,0,8,0,1,
65c6bbe7f9428763522fa244,TCN,2024-06-11_13h17.40.511,LearnStrategy,2023.2.3,Win32,59.88023952,8,2,10,,,,,,,,3,14,,,,,,,,,,,3,22.687,1,,,,,,0.12890625,-0.244791667,1,0,0,22.6869,Diorite_rect,9,0,9,0,1,
65c6bbe7f9428763522fa244,TCN,2024-06-11_13h17.40.511,LearnStrategy,2023.2.3,Win32,59.88023952,8,2,11,,,,,,,,7,08,,,,,,,,,,,4,4.481,0,,,,,,0.408854167,-0.24609375,1,0,0,4.4809,Gabbro_rect,10,0,10,0,1,
65c6bbe7f9428763522fa244,TCN,2024-06-11_13h17.40.511,LearnStrategy,2023.2.3,Win32,59.88023952,8,2,12,,,,,,,,4,16,,,,,,,,,,,4,7.304,1,,,,,,0.423177083,-0.2421875,1,0,0,7.3041,Gabbro_rect,11,0,11,0,1,
65c6bbe7f9428763522fa244,TCN,2024-06-11_13h17.40.511,LearnStrategy,2023.2.3,Win32,59.88023952,8,2,13,,,,,,,,6,08,,,,,,,,,,,5,1.737,0,,,,,,-0.356770833,-0.4140625,1,0,0,1.7373,Obsidian_rect,12,0,12,0,1,
65c6bbe7f9428763522fa244,TCN,2024-06-11_13h17.40.511,LearnStrategy,2023.2.3,Win32,59.88023952,8,2,14,,,,,,,,2,11,,,,,,,,,,,2,14.088,1,,,,,,-0.122395833,-0.240885417,1,0,0,14.0877,Basalt_rect,13,0,13,0,1,
65c6bbe7f9428763522fa244,TCN,2024-06-11_13h17.40.511,LearnStrategy,2023.2.3,Win32,59.88023952,8,2,15,,,,,,,,3,11,,,,,,,,,,,3,20.319,1,,,,,,0.1640625,-0.252604167,1,0,0,20.3194,Diorite_rect,14,0,14,0,1,
65c6bbe7f9428763522fa244,TCN,2024-06-11_13h17.40.511,LearnStrategy,2023.2.3,Win32,59.88023952,8,2,16,,,,,,,,6,15,,,,,,,,,,,6,2.215,1,,,,,,-0.16796875,-0.41015625,1,0,0,2.2151,Pegmatite_rect,15,0,15,0,1,
65c6bbe7f9428763522fa244,TCN,2024-06-11_13h17.40.511,LearnStrategy,2023.2.3,Win32,59.88023952,9,1,1,0.014322917,0.002604167,1,0,0,1.8109,rock_grid_rect_2,7,05,-1,-1,1.811,0.049479167,-0.416666667,1,0,0,6.267,Peridotite_rect,7,6.267,1,0,0,0,0,1,,,,,,,,,,,,,
65c6bbe7f9428763522fa244,TCN,2024-06-11_13h17.40.511,LearnStrategy,2023.2.3,Win32,59.88023952,9,1,2,0.044270833,-0.006510417,1,0,0,1.2325,rock_grid_rect_2,2,06,-1,-1,1.233,-0.391927083,-0.3984375,1,0,0,1.7011,Obsidian_rect,5,1.701,0,1,0,1,0,1,,,,,,,,,,,,,
65c6bbe7f9428763522fa244,TCN,2024-06-11_13h17.40.511,LearnStrategy,2023.2.3,Win32,59.88023952,9,1,3,0.009114583,0,1,0,0,1.3532,rock_grid_rect_2,3,12,-1,-1,1.353,0.151041667,-0.25,1,0,0,10.7624,Diorite_rect,3,10.762,1,2,0,2,0,1,,,,,,,,,,,,,
65c6bbe7f9428763522fa244,TCN,2024-06-11_13h17.40.511,LearnStrategy,2023.2.3,Win32,59.88023952,9,1,4,0.06640625,0.002604167,1,0,0,1.2422,rock_grid_rect_2,6,09,-1,-1,1.242,-0.141927083,-0.40234375,1,0,0,2.0556,Pegmatite_rect,6,2.056,1,3,0,3,0,1,,,,,,,,,,,,,
65c6bbe7f9428763522fa244,TCN,2024-06-11_13h17.40.511,LearnStrategy,2023.2.3,Win32,59.88023952,9,1,5,0.010416667,-0.01171875,1,0,0,1.2437,rock_grid_rect_2,2,01,-1,-1,1.244,-0.1484375,-0.23828125,1,0,0,1.399,Basalt_rect,2,1.399,1,4,0,4,0,1,,,,,,,,,,,,,
65c6bbe7f9428763522fa244,TCN,2024-06-11_13h17.40.511,LearnStrategy,2023.2.3,Win32,59.88023952,9,1,6,0.0078125,-0.002604167,1,0,0,1.0772,rock_grid_rect_2,5,08,-1,-1,1.077,-0.372395833,-0.381510417,1,0,0,1.3699,Obsidian_rect,5,1.37,1,5,0,5,0,1,,,,,,,,,,,,,
65c6bbe7f9428763522fa244,TCN,2024-06-11_13h17.40.511,LearnStrategy,2023.2.3,Win32,59.88023952,9,1,7,0.029947917,0.01171875,1,0,0,1.1441,rock_grid_rect_2,1,04,-1,-1,1.144,-0.389322917,-0.24609375,1,0,0,6.5129,Andesite_rect,1,6.513,1,6,0,6,0,1,,,,,,,,,,,,,
65c6bbe7f9428763522fa244,TCN,2024-06-11_13h17.40.511,LearnStrategy,2023.2.3,Win32,59.88023952,9,1,8,0.048177083,-0.006510417,1,0,0,1.2406,rock_grid_rect_2,7,10,-1,-1,1.241,0.12890625,-0.395833333,1,0,0,6.1659,Peridotite_rect,7,6.166,1,7,0,7,0,1,,,,,,,,,,,,,
65c6bbe7f9428763522fa244,TCN,2024-06-11_13h17.40.511,LearnStrategy,2023.2.3,Win32,59.88023952,9,1,9,0.0078125,-0.016927083,1,0,0,1.4585,rock_grid_rect_2,4,08,-1,-1,1.458,0.393229167,-0.252604167,1,0,0,5.5378,Gabbro_rect,4,5.538,1,8,0,8,0,1,,,,,,,,,,,,,
65c6bbe7f9428763522fa244,TCN,2024-06-11_13h17.40.511,LearnStrategy,2023.2.3,Win32,59.88023952,9,1,10,0.01953125,0.010416667,1,0,0,1.9335,rock_grid_rect_2,4,05,-1,-1,1.934,0.423177083,-0.263020833,1,0,0,5.1459,Gabbro_rect,4,5.146,1,9,0,9,0,1,,,,,,,,,,,,,
65c6bbe7f9428763522fa244,TCN,2024-06-11_13h17.40.511,LearnStrategy,2023.2.3,Win32,59.88023952,9,1,11,-0.006510417,-0.006510417,1,0,0,1.2055,rock_grid_rect_2,6,07,-1,-1,1.206,-0.377604167,-0.40625,1,0,0,1.7818,Obsidian_rect,5,1.782,0,10,0,10,0,1,,,,,,,,,,,,,
65c6bbe7f9428763522fa244,TCN,2024-06-11_13h17.40.511,LearnStrategy,2023.2.3,Win32,59.88023952,9,1,12,0.002604167,0.015625,1,0,0,1.4078,rock_grid_rect_2,8,05,-1,-1,1.408,0.411458333,-0.40234375,1,0,0,2.5594,Pumice_rect,8,2.559,1,11,0,11,0,1,,,,,,,,,,,,,
65c6bbe7f9428763522fa244,TCN,2024-06-11_13h17.40.511,LearnStrategy,2023.2.3,Win32,59.88023952,9,1,13,0.044270833,-0.001302083,1,0,0,1.4437,rock_grid_rect_2,3,16,-1,-1,1.444,-0.411458333,-0.259114583,1,0,0,3.5605,Andesite_rect,1,3.56,0,12,0,12,0,1,,,,,,,,,,,,,
65c6bbe7f9428763522fa244,TCN,2024-06-11_13h17.40.511,LearnStrategy,2023.2.3,Win32,59.88023952,9,1,14,-0.024739583,0.020833333,1,0,0,1.1393,rock_grid_rect_2,1,06,-1,-1,1.139,-0.354166667,-0.247395833,1,0,0,2.8844,Andesite_rect,1,2.884,1,13,0,13,0,1,,,,,,,,,,,,,
65c6bbe7f9428763522fa244,TCN,2024-06-11_13h17.40.511,LearnStrategy,2023.2.3,Win32,59.88023952,9,1,15,0.018229167,-0.0078125,1,0,0,1.1583,rock_grid_rect_2,8,13,-1,-1,1.158,0.40625,-0.391927083,1,0,0,5.961,Pumice_rect,8,5.961,1,14,0,14,0,1,,,,,,,,,,,,,
65c6bbe7f9428763522fa244,TCN,2024-06-11_13h17.40.511,LearnStrategy,2023.2.3,Win32,59.88023952,9,1,16,0.041666667,-0.005208333,1,0,0,1.1726,rock_grid_rect_2,5,07,-1,-1,1.173,-0.377604167,-0.421875,1,0,0,1.416,Obsidian_rect,5,1.416,1,15,0,15,0,1,,,,,,,,,,,,,
65c6bbe7f9428763522fa244,TCN,2024-06-11_13h17.40.511,LearnStrategy,2023.2.3,Win32,59.88023952,9,2,1,,,,,,,,4,11,,,,,,,,,,,4,12.29,1,,,,,,0.451822917,-0.235677083,1,0,0,12.2904,Gabbro_rect,0,0,0,0,1,
65c6bbe7f9428763522fa244,TCN,2024-06-11_13h17.40.511,LearnStrategy,2023.2.3,Win32,59.88023952,9,2,2,,,,,,,,6,11,,,,,,,,,,,6,2.347,1,,,,,,-0.165364583,-0.388020833,1,0,0,2.3466,Pegmatite_rect,1,0,1,0,1,
65c6bbe7f9428763522fa244,TCN,2024-06-11_13h17.40.511,LearnStrategy,2023.2.3,Win32,59.88023952,9,2,3,,,,,,,,8,14,,,,,,,,,,,8,2.185,1,,,,,,0.399739583,-0.397135417,1,0,0,2.1847,Pumice_rect,2,0,2,0,1,
65c6bbe7f9428763522fa244,TCN,2024-06-11_13h17.40.511,LearnStrategy,2023.2.3,Win32,59.88023952,9,2,4,,,,,,,,1,03,,,,,,,,,,,1,6.587,1,,,,,,-0.40625,-0.235677083,1,0,0,6.5872,Andesite_rect,3,0,3,0,1,
65c6bbe7f9428763522fa244,TCN,2024-06-11_13h17.40.511,LearnStrategy,2023.2.3,Win32,59.88023952,9,2,5,,,,,,,,2,09,,,,,,,,,,,2,4.574,1,,,,,,-0.095052083,-0.24609375,1,0,0,4.5739,Basalt_rect,4,0,4,0,1,
65c6bbe7f9428763522fa244,TCN,2024-06-11_13h17.40.511,LearnStrategy,2023.2.3,Win32,59.88023952,9,2,6,,,,,,,,8,02,,,,,,,,,,,8,1.809,1,,,,,,0.346354167,-0.390625,1,0,0,1.8094,Pumice_rect,5,0,5,0,1,
65c6bbe7f9428763522fa244,TCN,2024-06-11_13h17.40.511,LearnStrategy,2023.2.3,Win32,59.88023952,9,2,7,,,,,,,,7,13,,,,,,,,,,,7,7.092,1,,,,,,0.0859375,-0.39453125,1,0,0,7.0918,Peridotite_rect,6,0,6,0,1,
65c6bbe7f9428763522fa244,TCN,2024-06-11_13h17.40.511,LearnStrategy,2023.2.3,Win32,59.88023952,9,2,8,,,,,,,,7,06,,,,,,,,,,,6,2.959,0,,,,,,-0.140625,-0.3984375,1,0,0,2.959,Pegmatite_rect,7,0,7,0,1,
65c6bbe7f9428763522fa244,TCN,2024-06-11_13h17.40.511,LearnStrategy,2023.2.3,Win32,59.88023952,9,2,9,,,,,,,,2,04,,,,,,,,,,,2,2.157,1,,,,,,-0.13671875,-0.256510417,1,0,0,2.1574,Basalt_rect,8,0,8,0,1,
65c6bbe7f9428763522fa244,TCN,2024-06-11_13h17.40.511,LearnStrategy,2023.2.3,Win32,59.88023952,9,2,10,,,,,,,,3,06,,,,,,,,,,,3,6.048,1,,,,,,0.130208333,-0.2421875,1,0,0,6.0485,Diorite_rect,9,0,9,0,1,
65c6bbe7f9428763522fa244,TCN,2024-06-11_13h17.40.511,LearnStrategy,2023.2.3,Win32,59.88023952,9,2,11,,,,,,,,4,12,,,,,,,,,,,4,2.474,1,,,,,,0.434895833,-0.270833333,1,0,0,2.4743,Gabbro_rect,10,0,10,0,1,
65c6bbe7f9428763522fa244,TCN,2024-06-11_13h17.40.511,LearnStrategy,2023.2.3,Win32,59.88023952,9,2,12,,,,,,,,1,14,,,,,,,,,,,7,5.712,0,,,,,,0.087239583,-0.412760417,1,0,0,5.7116,Peridotite_rect,11,0,11,0,1,
65c6bbe7f9428763522fa244,TCN,2024-06-11_13h17.40.511,LearnStrategy,2023.2.3,Win32,59.88023952,9,2,13,,,,,,,,5,02,,,,,,,,,,,5,1.574,1,,,,,,-0.375,-0.385416667,1,0,0,1.5735,Obsidian_rect,12,0,12,0,1,
65c6bbe7f9428763522fa244,TCN,2024-06-11_13h17.40.511,LearnStrategy,2023.2.3,Win32,59.88023952,9,2,14,,,,,,,,6,10,,,,,,,,,,,6,2.865,1,,,,,,-0.141927083,-0.39453125,1,0,0,2.8652,Pegmatite_rect,13,0,13,0,1,
65c6bbe7f9428763522fa244,TCN,2024-06-11_13h17.40.511,LearnStrategy,2023.2.3,Win32,59.88023952,9,2,15,,,,,,,,3,07,,,,,,,,,,,3,86.484,1,,,,,,0.084635417,-0.240885417,1,0,0,86.4842,Diorite_rect,14,0,14,0,1,
65c6bbe7f9428763522fa244,TCN,2024-06-11_13h17.40.511,LearnStrategy,2023.2.3,Win32,59.88023952,9,2,16,,,,,,,,5,11,,,,,,,,,,,5,1.339,1,,,,,,-0.352864583,-0.416666667,1,0,0,1.3386,Obsidian_rect,15,0,15,0,1,
65c6bbe7f9428763522fa244,TCN,2024-06-11_13h17.40.511,LearnStrategy,2023.2.3,Win32,59.88023952,,,,,,,,,,,,,,,,,,,,,,,,,,,,,,,,,,,,,,,,,,,1
65c6bbe7f9428763522fa244,TCN,2024-06-11_13h17.40.511,LearnStrategy,2023.2.3,Win32,59.88023952,,,,,,,,,,,,,,,,,,,,,,,,,,,,,,,,,,,,,,,,,,,
65c6bbe7f9428763522fa244,TCN,2024-06-11_13h17.40.511,LearnStrategy,2023.2.3,Win32,59.88023952,,,,,,,,,,,4,15,1,1,,,,,,,,,,,,,,,,,,,,,,,,,,,,,
65c6bbe7f9428763522fa244,TCN,2024-06-11_13h17.40.511,LearnStrategy,2023.2.3,Win32,59.88023952,,,,,,,,,,,3,02,1,2,,,,,,,,,,,,,,,,,,,,,,,,,,,,,
65c6bbe7f9428763522fa244,TCN,2024-06-11_13h17.40.511,LearnStrategy,2023.2.3,Win32,59.88023952,,,,,,,,,,,2,12,1,3,,,,,,,,,,,,,,,,,,,,,,,,,,,,,
65c6bbe7f9428763522fa244,TCN,2024-06-11_13h17.40.511,LearnStrategy,2023.2.3,Win32,59.88023952,,,,,,,,,,,1,04,1,4,,,,,,,,,,,,,,,,,,,,,,,,,,,,,
65c6bbe7f9428763522fa244,TCN,2024-06-11_13h17.40.511,LearnStrategy,2023.2.3,Win32,59.88023952,,,,,,,,,,,2,01,1,5,,,,,,,,,,,,,,,,,,,,,,,,,,,,,
65c6bbe7f9428763522fa244,TCN,2024-06-11_13h17.40.511,LearnStrategy,2023.2.3,Win32,59.88023952,,,,,,,,,,,6,07,1,6,,,,,,,,,,,,,,,,,,,,,,,,,,,,,
65c6bbe7f9428763522fa244,TCN,2024-06-11_13h17.40.511,LearnStrategy,2023.2.3,Win32,59.88023952,,,,,,,,,,,1,01,1,7,,,,,,,,,,,,,,,,,,,,,,,,,,,,,
65c6bbe7f9428763522fa244,TCN,2024-06-11_13h17.40.511,LearnStrategy,2023.2.3,Win32,59.88023952,,,,,,,,,,,7,07,1,8,,,,,,,,,,,,,,,,,,,,,,,,,,,,,
65c6bbe7f9428763522fa244,TCN,2024-06-11_13h17.40.511,LearnStrategy,2023.2.3,Win32,59.88023952,,,,,,,,,,,1,11,2,1,,,,,,,,,,,,,,,,,,,,,,,,,,,,,
65c6bbe7f9428763522fa244,TCN,2024-06-11_13h17.40.511,LearnStrategy,2023.2.3,Win32,59.88023952,,,,,,,,,,,6,03,2,2,,,,,,,,,,,,,,,,,,,,,,,,,,,,,
65c6bbe7f9428763522fa244,TCN,2024-06-11_13h17.40.511,LearnStrategy,2023.2.3,Win32,59.88023952,,,,,,,,,,,7,04,2,3,,,,,,,,,,,,,,,,,,,,,,,,,,,,,
65c6bbe7f9428763522fa244,TCN,2024-06-11_13h17.40.511,LearnStrategy,2023.2.3,Win32,59.88023952,,,,,,,,,,,7,10,2,4,,,,,,,,,,,,,,,,,,,,,,,,,,,,,
65c6bbe7f9428763522fa244,TCN,2024-06-11_13h17.40.511,LearnStrategy,2023.2.3,Win32,59.88023952,,,,,,,,,,,8,13,2,5,,,,,,,,,,,,,,,,,,,,,,,,,,,,,
65c6bbe7f9428763522fa244,TCN,2024-06-11_13h17.40.511,LearnStrategy,2023.2.3,Win32,59.88023952,,,,,,,,,,,8,06,2,6,,,,,,,,,,,,,,,,,,,,,,,,,,,,,
65c6bbe7f9428763522fa244,TCN,2024-06-11_13h17.40.511,LearnStrategy,2023.2.3,Win32,59.88023952,,,,,,,,,,,4,01,2,7,,,,,,,,,,,,,,,,,,,,,,,,,,,,,
65c6bbe7f9428763522fa244,TCN,2024-06-11_13h17.40.511,LearnStrategy,2023.2.3,Win32,59.88023952,,,,,,,,,,,8,16,2,8,,,,,,,,,,,,,,,,,,,,,,,,,,,,,
65c6bbe7f9428763522fa244,TCN,2024-06-11_13h17.40.511,LearnStrategy,2023.2.3,Win32,59.88023952,,,,,,,,,,,5,12,3,1,,,,,,,,,,,,,,,,,,,,,,,,,,,,,
65c6bbe7f9428763522fa244,TCN,2024-06-11_13h17.40.511,LearnStrategy,2023.2.3,Win32,59.88023952,,,,,,,,,,,3,13,3,2,,,,,,,,,,,,,,,,,,,,,,,,,,,,,
65c6bbe7f9428763522fa244,TCN,2024-06-11_13h17.40.511,LearnStrategy,2023.2.3,Win32,59.88023952,,,,,,,,,,,5,07,3,3,,,,,,,,,,,,,,,,,,,,,,,,,,,,,
65c6bbe7f9428763522fa244,TCN,2024-06-11_13h17.40.511,LearnStrategy,2023.2.3,Win32,59.88023952,,,,,,,,,,,3,12,3,4,,,,,,,,,,,,,,,,,,,,,,,,,,,,,
65c6bbe7f9428763522fa244,TCN,2024-06-11_13h17.40.511,LearnStrategy,2023.2.3,Win32,59.88023952,,,,,,,,,,,5,14,3,5,,,,,,,,,,,,,,,,,,,,,,,,,,,,,
65c6bbe7f9428763522fa244,TCN,2024-06-11_13h17.40.511,LearnStrategy,2023.2.3,Win32,59.88023952,,,,,,,,,,,6,13,3,6,,,,,,,,,,,,,,,,,,,,,,,,,,,,,
65c6bbe7f9428763522fa244,TCN,2024-06-11_13h17.40.511,LearnStrategy,2023.2.3,Win32,59.88023952,,,,,,,,,,,7,05,3,7,,,,,,,,,,,,,,,,,,,,,,,,,,,,,
65c6bbe7f9428763522fa244,TCN,2024-06-11_13h17.40.511,LearnStrategy,2023.2.3,Win32,59.88023952,,,,,,,,,,,4,08,3,8,,,,,,,,,,,,,,,,,,,,,,,,,,,,,
65c6bbe7f9428763522fa244,TCN,2024-06-11_13h17.40.511,LearnStrategy,2023.2.3,Win32,59.88023952,,,,,,,,,,,3,16,4,1,,,,,,,,,,,,,,,,,,,,,,,,,,,,,
65c6bbe7f9428763522fa244,TCN,2024-06-11_13h17.40.511,LearnStrategy,2023.2.3,Win32,59.88023952,,,,,,,,,,,6,12,4,2,,,,,,,,,,,,,,,,,,,,,,,,,,,,,
65c6bbe7f9428763522fa244,TCN,2024-06-11_13h17.40.511,LearnStrategy,2023.2.3,Win32,59.88023952,,,,,,,,,,,1,06,4,3,,,,,,,,,,,,,,,,,,,,,,,,,,,,,
65c6bbe7f9428763522fa244,TCN,2024-06-11_13h17.40.511,LearnStrategy,2023.2.3,Win32,59.88023952,,,,,,,,,,,8,05,4,4,,,,,,,,,,,,,,,,,,,,,,,,,,,,,
65c6bbe7f9428763522fa244,TCN,2024-06-11_13h17.40.511,LearnStrategy,2023.2.3,Win32,59.88023952,,,,,,,,,,,6,09,4,5,,,,,,,,,,,,,,,,,,,,,,,,,,,,,
65c6bbe7f9428763522fa244,TCN,2024-06-11_13h17.40.511,LearnStrategy,2023.2.3,Win32,59.88023952,,,,,,,,,,,3,10,4,6,,,,,,,,,,,,,,,,,,,,,,,,,,,,,
65c6bbe7f9428763522fa244,TCN,2024-06-11_13h17.40.511,LearnStrategy,2023.2.3,Win32,59.88023952,,,,,,,,,,,2,06,4,7,,,,,,,,,,,,,,,,,,,,,,,,,,,,,
65c6bbe7f9428763522fa244,TCN,2024-06-11_13h17.40.511,LearnStrategy,2023.2.3,Win32,59.88023952,,,,,,,,,,,2,08,4,8,,,,,,,,,,,,,,,,,,,,,,,,,,,,,
65c6bbe7f9428763522fa244,TCN,2024-06-11_13h17.40.511,LearnStrategy,2023.2.3,Win32,59.88023952,,,,,,,,,,,5,08,5,1,,,,,,,,,,,,,,,,,,,,,,,,,,,,,
65c6bbe7f9428763522fa244,TCN,2024-06-11_13h17.40.511,LearnStrategy,2023.2.3,Win32,59.88023952,,,,,,,,,,,4,10,5,2,,,,,,,,,,,,,,,,,,,,,,,,,,,,,
65c6bbe7f9428763522fa244,TCN,2024-06-11_13h17.40.511,LearnStrategy,2023.2.3,Win32,59.88023952,,,,,,,,,,,5,05,5,3,,,,,,,,,,,,,,,,,,,,,,,,,,,,,
65c6bbe7f9428763522fa244,TCN,2024-06-11_13h17.40.511,LearnStrategy,2023.2.3,Win32,59.88023952,,,,,,,,,,,1,09,5,4,,,,,,,,,,,,,,,,,,,,,,,,,,,,,
65c6bbe7f9428763522fa244,TCN,2024-06-11_13h17.40.511,LearnStrategy,2023.2.3,Win32,59.88023952,,,,,,,,,,,5,16,5,5,,,,,,,,,,,,,,,,,,,,,,,,,,,,,
65c6bbe7f9428763522fa244,TCN,2024-06-11_13h17.40.511,LearnStrategy,2023.2.3,Win32,59.88023952,,,,,,,,,,,3,15,5,6,,,,,,,,,,,,,,,,,,,,,,,,,,,,,
65c6bbe7f9428763522fa244,TCN,2024-06-11_13h17.40.511,LearnStrategy,2023.2.3,Win32,59.88023952,,,,,,,,,,,4,03,5,7,,,,,,,,,,,,,,,,,,,,,,,,,,,,,
65c6bbe7f9428763522fa244,TCN,2024-06-11_13h17.40.511,LearnStrategy,2023.2.3,Win32,59.88023952,,,,,,,,,,,2,10,5,8,,,,,,,,,,,,,,,,,,,,,,,,,,,,,
65c6bbe7f9428763522fa244,TCN,2024-06-11_13h17.40.511,LearnStrategy,2023.2.3,Win32,59.88023952,,,,,,,,,,,4,05,6,1,,,,,,,,,,,,,,,,,,,,,,,,,,,,,
65c6bbe7f9428763522fa244,TCN,2024-06-11_13h17.40.511,LearnStrategy,2023.2.3,Win32,59.88023952,,,,,,,,,,,7,14,6,2,,,,,,,,,,,,,,,,,,,,,,,,,,,,,
65c6bbe7f9428763522fa244,TCN,2024-06-11_13h17.40.511,LearnStrategy,2023.2.3,Win32,59.88023952,,,,,,,,,,,7,12,6,3,,,,,,,,,,,,,,,,,,,,,,,,,,,,,
65c6bbe7f9428763522fa244,TCN,2024-06-11_13h17.40.511,LearnStrategy,2023.2.3,Win32,59.88023952,,,,,,,,,,,1,07,6,4,,,,,,,,,,,,,,,,,,,,,,,,,,,,,
65c6bbe7f9428763522fa244,TCN,2024-06-11_13h17.40.511,LearnStrategy,2023.2.3,Win32,59.88023952,,,,,,,,,,,8,15,6,5,,,,,,,,,,,,,,,,,,,,,,,,,,,,,
65c6bbe7f9428763522fa244,TCN,2024-06-11_13h17.40.511,LearnStrategy,2023.2.3,Win32,59.88023952,,,,,,,,,,,2,16,6,6,,,,,,,,,,,,,,,,,,,,,,,,,,,,,
65c6bbe7f9428763522fa244,TCN,2024-06-11_13h17.40.511,LearnStrategy,2023.2.3,Win32,59.88023952,,,,,,,,,,,8,09,6,7,,,,,,,,,,,,,,,,,,,,,,,,,,,,,
65c6bbe7f9428763522fa244,TCN,2024-06-11_13h17.40.511,LearnStrategy,2023.2.3,Win32,59.88023952,,,,,,,,,,,6,06,6,8,,,,,,,,,,,,,,,,,,,,,,,,,,,,,