participant,condition,date,expName,psychopyVersion,OS,frameRate,block,phase,trial,learn_mouse.x,learn_mouse.y,learn_mouse.leftButton,learn_mouse.midButton,learn_mouse.rightButton,learn_mouse.time,learn_mouse.clicked_name,cat,token,row,col,t_select,cat_rec,token_rec,cat_mouse_l.x,cat_mouse_l.y,cat_mouse_l.leftButton,cat_mouse_l.midButton,cat_mouse_l.rightButton,cat_mouse_l.time,cat_mouse_l.clicked_name,resp,t_resp,corr,train_trials.thisRepN,train_trials.thisTrialN,train_trials.thisN,train_trials.thisIndex,train_trials.ran,cat_mouse_t.x,cat_mouse_t.y,cat_mouse_t.leftButton,cat_mouse_t.midButton,cat_mouse_t.rightButton,cat_mouse_t.time,cat_mouse_t.clicked_name,test_trials.thisRepN,test_trials.thisTrialN,test_trials.thisN,test_trials.thisIndex,test_trials.ran,Bonus
65cba317504938f6ca5272f5,SCR,2024-06-11_13h11.08.159,LearnStrategy,2023.2.3,MacIntel,56.81818182,,,,,,,,,,,,,,,,,,,,,,,,,,,,,,,,,,,,,,,,,,,,,
65cba317504938f6ca5272f5,SCR,2024-06-11_13h11.08.159,LearnStrategy,2023.2.3,MacIntel,56.81818182,1,1,1,-0.227809991,0.392116665,1,0,0,5.2924,Pegmatite_07,6,07,6,3,5.292,6,07,0.091326701,-0.390620728,1,0,0,4.3816,Peridotite_rect,7,4.382,0,0,0,0,0,1,,,,,,,,,,,,,
65cba317504938f6ca5272f5,SCR,2024-06-11_13h11.08.159,LearnStrategy,2023.2.3,MacIntel,56.81818182,1,1,2,-0.570006409,0.113728163,1,0,0,3.4443,Basalt_16,2,16,4,1,3.444,2,16,0.374613715,-0.248820936,1,0,0,4.2287,Gabbro_rect,4,4.229,0,1,0,1,0,1,,,,,,,,,,,,,
65cba317504938f6ca5272f5,SCR,2024-06-11_13h11.08.159,LearnStrategy,2023.2.3,MacIntel,56.81818182,1,1,3,0.053507555,0.429786258,1,0,0,5.1424,Diorite_02,3,02,6,5,5.142,3,02,0.162654215,-0.240178019,1,0,0,3.5058,Diorite_rect,3,3.506,1,2,0,2,0,1,,,,,,,,,,,,,
65cba317504938f6ca5272f5,SCR,2024-06-11_13h11.08.159,LearnStrategy,2023.2.3,MacIntel,56.81818182,1,1,4,0.060511339,0.27030916,1,0,0,13.7754,Andesite_01,1,01,5,5,13.775,1,01,0.333716159,-0.408734673,1,0,0,5.9164,Pumice_rect,8,5.916,0,3,0,3,0,1,,,,,,,,,,,,,
65cba317504938f6ca5272f5,SCR,2024-06-11_13h11.08.159,LearnStrategy,2023.2.3,MacIntel,56.81818182,1,1,5,0.373757189,-0.230597534,1,0,0,16.8704,Pumice_03,8,03,2,7,16.87,8,03,0.395234646,-0.4061124,1,0,0,3.3622,Pumice_rect,8,3.362,1,4,0,4,0,1,,,,,,,,,,,,,
65cba317504938f6ca5272f5,SCR,2024-06-11_13h11.08.159,LearnStrategy,2023.2.3,MacIntel,56.81818182,1,1,6,-0.069670953,0.37725135,1,0,0,2.5786,Obsidian_02,5,02,6,4,2.579,5,02,-0.362442017,-0.411125081,1,0,0,2.2723,Obsidian_rect,5,2.272,1,5,0,5,0,1,,,,,,,,,,,,,
65cba317504938f6ca5272f5,SCR,2024-06-11_13h11.08.159,LearnStrategy,2023.2.3,MacIntel,56.81818182,1,1,7,0.057490573,-0.246802979,1,0,0,2.0286,Obsidian_07,5,07,2,5,2.029,5,07,0.337438422,-0.238182509,1,0,0,6.7487,Gabbro_rect,4,6.749,0,6,0,6,0,1,,,,,,,,,,,,,
65cba317504938f6ca5272f5,SCR,2024-06-11_13h11.08.159,LearnStrategy,2023.2.3,MacIntel,56.81818182,1,1,8,-0.086257528,-0.434779324,1,0,0,3.5631,Peridotite_10,7,10,1,4,3.563,7,10,-0.051952989,-0.384326104,1,0,0,4.1098,Pegmatite_rect,6,4.11,0,7,0,7,0,1,,,,,,,,,,,,,
65cba317504938f6ca5272f5,SCR,2024-06-11_13h11.08.159,LearnStrategy,2023.2.3,MacIntel,56.81818182,1,1,9,-0.53342353,0.363442637,1,0,0,3.5765,Basalt_05,2,05,6,1,3.577,2,05,0.375400933,-0.259126858,1,0,0,3.391,Gabbro_rect,4,3.391,0,8,0,8,0,1,,,,,,,,,,,,,
65cba317504938f6ca5272f5,SCR,2024-06-11_13h11.08.159,LearnStrategy,2023.2.3,MacIntel,56.81818182,1,1,10,-0.51022895,0.213888821,1,0,0,2.101,Gabbro_14,4,14,5,1,2.101,4,14,-0.353186578,-0.256052517,1,0,0,2.6717,Andesite_rect,1,2.672,0,9,0,9,0,1,,,,,,,,,,,,,
65cba317504938f6ca5272f5,SCR,2024-06-11_13h11.08.159,LearnStrategy,2023.2.3,MacIntel,56.81818182,1,1,11,0.238460422,-0.251547445,1,0,0,1.1137,Peridotite_14,7,14,2,6,1.114,7,14,-0.072876926,-0.384512668,1,0,0,4.6369,Pegmatite_rect,6,4.637,0,10,0,10,0,1,,,,,,,,,,,,,
65cba317504938f6ca5272f5,SCR,2024-06-11_13h11.08.159,LearnStrategy,2023.2.3,MacIntel,56.81818182,1,1,12,-0.243777127,-0.289085219,1,0,0,1.4966,Pumice_13,8,13,2,3,1.497,8,13,0.372532959,-0.386435615,1,0,0,3.1422,Pumice_rect,8,3.142,1,11,0,11,0,1,,,,,,,,,,,,,
65cba317504938f6ca5272f5,SCR,2024-06-11_13h11.08.159,LearnStrategy,2023.2.3,MacIntel,56.81818182,1,1,13,0.398145209,-0.405954725,1,0,0,1.576,Gabbro_11,4,11,1,7,1.576,4,11,-0.108756578,-0.262833998,1,0,0,2.2576,Basalt_rect,2,2.258,0,12,0,12,0,1,,,,,,,,,,,,,
65cba317504938f6ca5272f5,SCR,2024-06-11_13h11.08.159,LearnStrategy,2023.2.3,MacIntel,56.81818182,1,1,14,-0.199048462,0.22438185,1,0,0,1.9661,Andesite_07,1,07,5,3,1.966,1,07,0.385100776,-0.266400079,1,0,0,3.4743,Gabbro_rect,4,3.474,0,13,0,13,0,1,,,,,,,,,,,,,
65cba317504938f6ca5272f5,SCR,2024-06-11_13h11.08.159,LearnStrategy,2023.2.3,MacIntel,56.81818182,1,1,15,0.251304321,0.099851515,1,0,0,1.1961,Pegmatite_09,6,09,4,6,1.196,6,09,0.157380371,-0.257383762,1,0,0,7.0351,Diorite_rect,3,7.035,0,14,0,14,0,1,,,,,,,,,,,,,
65cba317504938f6ca5272f5,SCR,2024-06-11_13h11.08.159,LearnStrategy,2023.2.3,MacIntel,56.81818182,1,1,16,-0.555387472,-0.410701701,1,0,0,1.9775,Diorite_09,3,09,1,1,1.977,3,09,0.398143311,-0.241793077,1,0,0,2.779,Gabbro_rect,4,2.779,0,15,0,15,0,1,,,,,,,,,,,,,
65cba317504938f6ca5272f5,SCR,2024-06-11_13h11.08.159,LearnStrategy,2023.2.3,MacIntel,56.81818182,1,2,1,,,,,,,,8,04,,,,,,,,,,,,,8,2.357,1,,,,,,0.465582954,-0.406697049,1,0,0,2.3569,Pumice_rect,0,0,0,0,1,
65cba317504938f6ca5272f5,SCR,2024-06-11_13h11.08.159,LearnStrategy,2023.2.3,MacIntel,56.81818182,1,2,2,,,,,,,,4,16,,,,,,,,,,,,,2,3.63,0,,,,,,-0.095385064,-0.259227634,1,0,0,3.6297,Basalt_rect,1,0,1,0,1,
65cba317504938f6ca5272f5,SCR,2024-06-11_13h11.08.159,LearnStrategy,2023.2.3,MacIntel,56.81818182,1,2,3,,,,,,,,2,10,,,,,,,,,,,,,1,5.665,0,,,,,,-0.362931858,-0.259045139,1,0,0,5.6654,Andesite_rect,2,0,2,0,1,
65cba317504938f6ca5272f5,SCR,2024-06-11_13h11.08.159,LearnStrategy,2023.2.3,MacIntel,56.81818182,1,2,4,,,,,,,,5,11,,,,,,,,,,,,,5,1.316,1,,,,,,-0.356905043,-0.421356472,1,0,0,1.3157,Obsidian_rect,3,0,3,0,1,
65cba317504938f6ca5272f5,SCR,2024-06-11_13h11.08.159,LearnStrategy,2023.2.3,MacIntel,56.81818182,1,2,5,,,,,,,,3,13,,,,,,,,,,,,,3,4.845,1,,,,,,0.107352295,-0.260598212,1,0,0,4.8453,Diorite_rect,4,0,4,0,1,
65cba317504938f6ca5272f5,SCR,2024-06-11_13h11.08.159,LearnStrategy,2023.2.3,MacIntel,56.81818182,1,2,6,,,,,,,,6,13,,,,,,,,,,,,,3,1.466,0,,,,,,0.107352295,-0.260598212,1,0,0,1.466,Diorite_rect,5,0,5,0,1,
65cba317504938f6ca5272f5,SCR,2024-06-11_13h11.08.159,LearnStrategy,2023.2.3,MacIntel,56.81818182,1,2,7,,,,,,,,7,12,,,,,,,,,,,,,3,2.129,0,,,,,,0.107352295,-0.260598212,1,0,0,2.1294,Diorite_rect,6,0,6,0,1,
65cba317504938f6ca5272f5,SCR,2024-06-11_13h11.08.159,LearnStrategy,2023.2.3,MacIntel,56.81818182,1,2,8,,,,,,,,4,10,,,,,,,,,,,,,4,1.981,1,,,,,,0.34776964,-0.230487874,1,0,0,1.9815,Gabbro_rect,7,0,7,0,1,
65cba317504938f6ca5272f5,SCR,2024-06-11_13h11.08.159,LearnStrategy,2023.2.3,MacIntel,56.81818182,1,2,9,,,,,,,,5,10,,,,,,,,,,,,,5,2.785,1,,,,,,-0.358214247,-0.416223823,1,0,0,2.785,Obsidian_rect,8,0,8,0,1,
65cba317504938f6ca5272f5,SCR,2024-06-11_13h11.08.159,LearnStrategy,2023.2.3,MacIntel,56.81818182,1,2,10,,,,,,,,1,16,,,,,,,,,,,,,6,4.044,0,,,,,,-0.099837918,-0.387315403,1,0,0,4.0438,Pegmatite_rect,9,0,9,0,1,
65cba317504938f6ca5272f5,SCR,2024-06-11_13h11.08.159,LearnStrategy,2023.2.3,MacIntel,56.81818182,1,2,11,,,,,,,,3,12,,,,,,,,,,,,,7,1.759,0,,,,,,0.079080404,-0.390971273,1,0,0,1.7585,Peridotite_rect,10,0,10,0,1,
65cba317504938f6ca5272f5,SCR,2024-06-11_13h11.08.159,LearnStrategy,2023.2.3,MacIntel,56.81818182,1,2,12,,,,,,,,1,05,,,,,,,,,,,,,6,2.346,0,,,,,,-0.090957777,-0.3862618,1,0,0,2.3461,Pegmatite_rect,11,0,11,0,1,
65cba317504938f6ca5272f5,SCR,2024-06-11_13h11.08.159,LearnStrategy,2023.2.3,MacIntel,56.81818182,1,2,13,,,,,,,,8,06,,,,,,,,,,,,,8,1.219,1,,,,,,0.354273682,-0.378923408,1,0,0,1.2189,Pumice_rect,12,0,12,0,1,
65cba317504938f6ca5272f5,SCR,2024-06-11_13h11.08.159,LearnStrategy,2023.2.3,MacIntel,56.81818182,1,2,14,,,,,,,,6,03,,,,,,,,,,,,,2,3.116,0,,,,,,-0.087278646,-0.270723402,1,0,0,3.116,Basalt_rect,13,0,13,0,1,
65cba317504938f6ca5272f5,SCR,2024-06-11_13h11.08.159,LearnStrategy,2023.2.3,MacIntel,56.81818182,1,2,15,,,,,,,,7,08,,,,,,,,,,,,,6,2.625,0,,,,,,-0.051762627,-0.395774197,1,0,0,2.6247,Pegmatite_rect,14,0,14,0,1,
65cba317504938f6ca5272f5,SCR,2024-06-11_13h11.08.159,LearnStrategy,2023.2.3,MacIntel,56.81818182,1,2,16,,,,,,,,2,06,,,,,,,,,,,,,2,3.929,1,,,,,,-0.170014784,-0.244021946,1,0,0,3.9288,Basalt_rect,15,0,15,0,1,
65cba317504938f6ca5272f5,SCR,2024-06-11_13h11.08.159,LearnStrategy,2023.2.3,MacIntel,56.81818182,2,1,1,0.233087904,-0.442141113,1,0,0,4.1452,Pegmatite_15,6,15,1,6,4.145,6,15,-0.327805854,-0.261665717,1,0,0,7.0338,Andesite_rect,1,7.034,0,0,0,0,0,1,,,,,,,,,,,,,
65cba317504938f6ca5272f5,SCR,2024-06-11_13h11.08.159,LearnStrategy,2023.2.3,MacIntel,56.81818182,2,1,2,0.079332954,0.219477709,1,0,0,11.4507,Andesite_01,1,01,5,5,11.451,1,01,-0.120953979,-0.241661038,1,0,0,1.9233,Basalt_rect,2,1.923,0,1,0,1,0,1,,,,,,,,,,,,,
65cba317504938f6ca5272f5,SCR,2024-06-11_13h11.08.159,LearnStrategy,2023.2.3,MacIntel,56.81818182,2,1,3,0.232463515,0.216774699,1,0,0,1.1419,Peridotite_06,7,06,5,6,1.142,7,06,-0.064715441,-0.385515544,1,0,0,2.8741,Pegmatite_rect,6,2.874,0,2,0,2,0,1,,,,,,,,,,,,,
65cba317504938f6ca5272f5,SCR,2024-06-11_13h11.08.159,LearnStrategy,2023.2.3,MacIntel,56.81818182,2,1,4,0.196000909,-0.440169678,1,0,0,14.948,Pegmatite_15,6,15,1,6,14.948,6,15,-0.089033746,-0.39265625,1,0,0,4.4364,Pegmatite_rect,6,4.436,1,3,0,3,0,1,,,,,,,,,,,,,
65cba317504938f6ca5272f5,SCR,2024-06-11_13h11.08.159,LearnStrategy,2023.2.3,MacIntel,56.81818182,2,1,5,-0.240614692,0.247782152,1,0,0,4.493,Andesite_07,1,07,5,3,4.493,1,07,0.383503961,-0.269739109,1,0,0,2.0313,Gabbro_rect,4,2.031,0,4,0,4,0,1,,,,,,,,,,,,,
65cba317504938f6ca5272f5,SCR,2024-06-11_13h11.08.159,LearnStrategy,2023.2.3,MacIntel,56.81818182,2,1,6,0.520655653,-0.420380588,1,0,0,1.415,Peridotite_16,7,16,1,8,1.415,7,16,0.34487576,-0.248750746,1,0,0,2.0181,Gabbro_rect,4,2.018,0,5,0,5,0,1,,,,,,,,,,,,,
65cba317504938f6ca5272f5,SCR,2024-06-11_13h11.08.159,LearnStrategy,2023.2.3,MacIntel,56.81818182,2,1,7,-0.358396606,-0.258973592,1,0,0,2.479,Gabbro_09,4,09,2,2,2.479,4,09,-0.345016819,-0.229707099,1,0,0,2.815,Andesite_rect,1,2.815,0,6,0,6,0,1,,,,,,,,,,,,,
65cba317504938f6ca5272f5,SCR,2024-06-11_13h11.08.159,LearnStrategy,2023.2.3,MacIntel,56.81818182,2,1,8,-0.108696425,-0.280191379,1,0,0,1.2629,Pegmatite_16,6,16,2,4,1.263,6,16,-0.350793287,-0.230832587,1,0,0,4.3425,Andesite_rect,1,4.342,0,7,0,7,0,1,,,,,,,,,,,,,
65cba317504938f6ca5272f5,SCR,2024-06-11_13h11.08.159,LearnStrategy,2023.2.3,MacIntel,56.81818182,2,1,9,0.384890544,0.284482456,1,0,0,1.2757,Andesite_11,1,11,5,7,1.276,1,11,-0.087393528,-0.242737088,1,0,0,8.5273,Basalt_rect,2,8.527,0,8,0,8,0,1,,,,,,,,,,,,,
65cba317504938f6ca5272f5,SCR,2024-06-11_13h11.08.159,LearnStrategy,2023.2.3,MacIntel,56.81818182,2,1,10,0.098523899,0.255448659,1,0,0,2.3291,Andesite_01,1,01,5,5,2.329,1,01,-0.371511027,-0.244643012,1,0,0,1.0221,Andesite_rect,1,1.022,1,9,0,9,0,1,,,,,,,,,,,,,
65cba317504938f6ca5272f5,SCR,2024-06-11_13h11.08.159,LearnStrategy,2023.2.3,MacIntel,56.81818182,2,1,11,0.564366184,0.406171722,1,0,0,1.3491,Diorite_11,3,11,6,8,1.349,3,11,0.313723823,-0.245275404,1,0,0,2.0248,Gabbro_rect,4,2.025,0,10,0,10,0,1,,,,,,,,,,,,,
65cba317504938f6ca5272f5,SCR,2024-06-11_13h11.08.159,LearnStrategy,2023.2.3,MacIntel,56.81818182,2,1,12,0.05770969,0.077996419,1,0,0,1.2797,Basalt_09,2,09,4,5,1.28,2,09,-0.207564019,-0.239491984,1,0,0,4.5517,Basalt_rect,2,4.552,1,11,0,11,0,1,,,,,,,,,,,,,
65cba317504938f6ca5272f5,SCR,2024-06-11_13h11.08.159,LearnStrategy,2023.2.3,MacIntel,56.81818182,2,1,13,0.36228163,-0.410130887,1,0,0,1.2148,Gabbro_11,4,11,1,7,1.215,4,11,-0.078461168,-0.270423923,1,0,0,1.3108,Basalt_rect,2,1.311,0,12,0,12,0,1,,,,,,,,,,,,,
65cba317504938f6ca5272f5,SCR,2024-06-11_13h11.08.159,LearnStrategy,2023.2.3,MacIntel,56.81818182,2,1,14,-0.510289069,0.370296631,1,0,0,1.6157,Basalt_05,2,05,6,1,1.616,2,05,-0.137274306,-0.242264065,1,0,0,2.1223,Basalt_rect,2,2.122,1,13,0,13,0,1,,,,,,,,,,,,,
65cba317504938f6ca5272f5,SCR,2024-06-11_13h11.08.159,LearnStrategy,2023.2.3,MacIntel,56.81818182,2,1,15,0.184196845,0.231455672,1,0,0,1.2792,Peridotite_06,7,06,5,6,1.279,7,06,0.086897244,-0.39526279,1,0,0,2.4391,Peridotite_rect,7,2.439,1,14,0,14,0,1,,,,,,,,,,,,,
65cba317504938f6ca5272f5,SCR,2024-06-11_13h11.08.159,LearnStrategy,2023.2.3,MacIntel,56.81818182,2,1,16,0.529336751,0.375593753,1,0,0,1.3091,Diorite_11,3,11,6,8,1.309,3,11,-0.374801568,-0.245506253,1,0,0,3.264,Andesite_rect,1,3.264,0,15,0,15,0,1,,,,,,,,,,,,,
65cba317504938f6ca5272f5,SCR,2024-06-11_13h11.08.159,LearnStrategy,2023.2.3,MacIntel,56.81818182,2,2,1,,,,,,,,1,03,,,,,,,,,,,,,7,3.512,0,,,,,,0.105534193,-0.391555244,1,0,0,3.512,Peridotite_rect,0,0,0,0,1,
65cba317504938f6ca5272f5,SCR,2024-06-11_13h11.08.159,LearnStrategy,2023.2.3,MacIntel,56.81818182,2,2,2,,,,,,,,8,08,,,,,,,,,,,,,8,1.683,1,,,,,,0.3190448,-0.411501194,1,0,0,1.6835,Pumice_rect,1,0,1,0,1,
65cba317504938f6ca5272f5,SCR,2024-06-11_13h11.08.159,LearnStrategy,2023.2.3,MacIntel,56.81818182,2,2,3,,,,,,,,4,15,,,,,,,,,,,,,1,2.698,0,,,,,,-0.373672926,-0.265819906,1,0,0,2.6979,Andesite_rect,2,0,2,0,1,
65cba317504938f6ca5272f5,SCR,2024-06-11_13h11.08.159,LearnStrategy,2023.2.3,MacIntel,56.81818182,2,2,4,,,,,,,,8,14,,,,,,,,,,,,,8,1.432,1,,,,,,0.305592109,-0.406583591,1,0,0,1.4322,Pumice_rect,3,0,3,0,1,
65cba317504938f6ca5272f5,SCR,2024-06-11_13h11.08.159,LearnStrategy,2023.2.3,MacIntel,56.81818182,2,2,5,,,,,,,,5,09,,,,,,,,,,,,,5,1.826,1,,,,,,-0.345508864,-0.411935289,1,0,0,1.826,Obsidian_rect,4,0,4,0,1,
65cba317504938f6ca5272f5,SCR,2024-06-11_13h11.08.159,LearnStrategy,2023.2.3,MacIntel,56.81818182,2,2,6,,,,,,,,7,02,,,,,,,,,,,,,7,2.612,1,,,,,,0.152390137,-0.393321872,1,0,0,2.6118,Peridotite_rect,5,0,5,0,1,
65cba317504938f6ca5272f5,SCR,2024-06-11_13h11.08.159,LearnStrategy,2023.2.3,MacIntel,56.81818182,2,2,7,,,,,,,,3,08,,,,,,,,,,,,,3,3.026,1,,,,,,0.124466553,-0.246237929,1,0,0,3.0263,Diorite_rect,6,0,6,0,1,
65cba317504938f6ca5272f5,SCR,2024-06-11_13h11.08.159,LearnStrategy,2023.2.3,MacIntel,56.81818182,2,2,8,,,,,,,,3,06,,,,,,,,,,,,,3,1.922,1,,,,,,0.12114841,-0.252637939,1,0,0,1.9224,Diorite_rect,7,0,7,0,1,
65cba317504938f6ca5272f5,SCR,2024-06-11_13h11.08.159,LearnStrategy,2023.2.3,MacIntel,56.81818182,2,2,9,,,,,,,,2,12,,,,,,,,,,,,,4,3.355,0,,,,,,0.438967014,-0.237555271,1,0,0,3.3552,Gabbro_rect,8,0,8,0,1,
65cba317504938f6ca5272f5,SCR,2024-06-11_13h11.08.159,LearnStrategy,2023.2.3,MacIntel,56.81818182,2,2,10,,,,,,,,2,14,,,,,,,,,,,,,4,3.276,0,,,,,,0.328509657,-0.229057346,1,0,0,3.2759,Gabbro_rect,9,0,9,0,1,
65cba317504938f6ca5272f5,SCR,2024-06-11_13h11.08.159,LearnStrategy,2023.2.3,MacIntel,56.81818182,2,2,11,,,,,,,,7,07,,,,,,,,,,,,,7,3.266,1,,,,,,0.082843357,-0.409851413,1,0,0,3.2656,Peridotite_rect,10,0,10,0,1,
65cba317504938f6ca5272f5,SCR,2024-06-11_13h11.08.159,LearnStrategy,2023.2.3,MacIntel,56.81818182,2,2,12,,,,,,,,1,02,,,,,,,,,,,,,1,2.691,1,,,,,,-0.332605286,-0.241258002,1,0,0,2.6913,Andesite_rect,11,0,11,0,1,
65cba317504938f6ca5272f5,SCR,2024-06-11_13h11.08.159,LearnStrategy,2023.2.3,MacIntel,56.81818182,2,2,13,,,,,,,,4,03,,,,,,,,,,,,,4,2.303,1,,,,,,0.310804104,-0.250914714,1,0,0,2.3025,Gabbro_rect,12,0,12,0,1,
65cba317504938f6ca5272f5,SCR,2024-06-11_13h11.08.159,LearnStrategy,2023.2.3,MacIntel,56.81818182,2,2,14,,,,,,,,5,08,,,,,,,,,,,,,5,2.532,1,,,,,,-0.435031908,-0.401159261,1,0,0,2.5317,Obsidian_rect,13,0,13,0,1,
65cba317504938f6ca5272f5,SCR,2024-06-11_13h11.08.159,LearnStrategy,2023.2.3,MacIntel,56.81818182,2,2,15,,,,,,,,6,10,,,,,,,,,,,,,7,2.966,0,,,,,,0.083195394,-0.393132867,1,0,0,2.9659,Peridotite_rect,14,0,14,0,1,
65cba317504938f6ca5272f5,SCR,2024-06-11_13h11.08.159,LearnStrategy,2023.2.3,MacIntel,56.81818182,2,2,16,,,,,,,,6,06,,,,,,,,,,,,,3,1.6,0,,,,,,0.136736111,-0.24980306,1,0,0,1.5997,Diorite_rect,15,0,15,0,1,
65cba317504938f6ca5272f5,SCR,2024-06-11_13h11.08.159,LearnStrategy,2023.2.3,MacIntel,56.81818182,3,1,1,0.233307563,0.402212423,1,0,0,1.4807,Basalt_02,2,02,6,6,1.481,2,02,-0.139290907,-0.267598063,1,0,0,1.0445,Basalt_rect,2,1.044,1,0,0,0,0,1,,,,,,,,,,,,,
65cba317504938f6ca5272f5,SCR,2024-06-11_13h11.08.159,LearnStrategy,2023.2.3,MacIntel,56.81818182,3,1,2,-0.099042969,-0.084090305,1,0,0,0.7801,Diorite_07,3,07,3,4,0.78,3,07,-0.32509535,-0.235910102,1,0,0,2.2122,Andesite_rect,1,2.212,0,1,0,1,0,1,,,,,,,,,,,,,
65cba317504938f6ca5272f5,SCR,2024-06-11_13h11.08.159,LearnStrategy,2023.2.3,MacIntel,56.81818182,3,1,3,0.393631592,0.223743761,1,0,0,2.1428,Andesite_11,1,11,5,7,2.143,1,11,0.377877604,-0.238607992,1,0,0,2.8714,Gabbro_rect,4,2.871,0,2,0,2,0,1,,,,,,,,,,,,,
65cba317504938f6ca5272f5,SCR,2024-06-11_13h11.08.159,LearnStrategy,2023.2.3,MacIntel,56.81818182,3,1,4,0.546150716,0.239974586,1,0,0,1.1174,Andesite_04,1,04,5,8,1.117,1,04,-0.108122016,-0.400023465,1,0,0,3.0651,Pegmatite_rect,6,3.065,0,3,0,3,0,1,,,,,,,,,,,,,
65cba317504938f6ca5272f5,SCR,2024-06-11_13h11.08.159,LearnStrategy,2023.2.3,MacIntel,56.81818182,3,1,5,-0.036112061,0.078062202,1,0,0,0.9388,Pegmatite_11,6,11,4,4,0.939,6,11,-0.087359687,-0.419440918,1,0,0,1.6939,Pegmatite_rect,6,1.694,1,4,0,4,0,1,,,,,,,,,,,,,
65cba317504938f6ca5272f5,SCR,2024-06-11_13h11.08.159,LearnStrategy,2023.2.3,MacIntel,56.81818182,3,1,6,-0.067855564,0.070021973,1,0,0,1.0912,Pegmatite_11,6,11,4,4,1.091,6,11,-0.166842244,-0.400576172,1,0,0,2.1459,Pegmatite_rect,6,2.146,1,5,0,5,0,1,,,,,,,,,,,,,
65cba317504938f6ca5272f5,SCR,2024-06-11_13h11.08.159,LearnStrategy,2023.2.3,MacIntel,56.81818182,3,1,7,0.237781508,-0.427605794,1,0,0,1.4214,Pegmatite_15,6,15,1,6,1.421,6,15,-0.105959201,-0.396467489,1,0,0,2.1715,Pegmatite_rect,6,2.171,1,6,0,6,0,1,,,,,,,,,,,,,
65cba317504938f6ca5272f5,SCR,2024-06-11_13h11.08.159,LearnStrategy,2023.2.3,MacIntel,56.81818182,3,1,8,-0.540839505,-0.122414551,1,0,0,1.2494,Basalt_11,2,11,3,1,1.249,2,11,0.060059679,-0.398068644,1,0,0,16.0032,Peridotite_rect,7,16.003,0,7,0,7,0,1,,,,,,,,,,,,,
65cba317504938f6ca5272f5,SCR,2024-06-11_13h11.08.159,LearnStrategy,2023.2.3,MacIntel,56.81818182,3,1,9,0.094164361,0.069831475,1,0,0,0.9922,Basalt_09,2,09,4,5,0.992,2,09,-0.38967336,-0.265598551,1,0,0,2.3449,Andesite_rect,1,2.345,0,8,0,8,0,1,,,,,,,,,,,,,
65cba317504938f6ca5272f5,SCR,2024-06-11_13h11.08.159,LearnStrategy,2023.2.3,MacIntel,56.81818182,3,1,10,0.217786662,0.264662645,1,0,0,1.0163,Peridotite_06,7,06,5,6,1.016,7,06,0.078980238,-0.385160522,1,0,0,1.2234,Peridotite_rect,7,1.223,1,9,0,9,0,1,,,,,,,,,,,,,
65cba317504938f6ca5272f5,SCR,2024-06-11_13h11.08.159,LearnStrategy,2023.2.3,MacIntel,56.81818182,3,1,11,-0.391329346,0.205886434,1,0,0,1.2887,Gabbro_01,4,01,5,2,1.289,4,01,-0.341648424,-0.263246053,1,0,0,2.7393,Andesite_rect,1,2.739,0,10,0,10,0,1,,,,,,,,,,,,,
65cba317504938f6ca5272f5,SCR,2024-06-11_13h11.08.159,LearnStrategy,2023.2.3,MacIntel,56.81818182,3,1,12,0.515114882,-0.081851942,1,0,0,114.515,Pegmatite_05,6,05,3,8,114.515,6,05,-0.102137994,-0.413955282,1,0,0,3.7929,Pegmatite_rect,6,3.793,1,11,0,11,0,1,,,,,,,,,,,,,
65cba317504938f6ca5272f5,SCR,2024-06-11_13h11.08.159,LearnStrategy,2023.2.3,MacIntel,56.81818182,3,1,13,-0.034194065,-0.403027615,1,0,0,1.2909,Peridotite_10,7,10,1,4,1.291,7,10,0.105921021,-0.388374837,1,0,0,1.469,Peridotite_rect,7,1.469,1,12,0,12,0,1,,,,,,,,,,,,,
65cba317504938f6ca5272f5,SCR,2024-06-11_13h11.08.159,LearnStrategy,2023.2.3,MacIntel,56.81818182,3,1,14,-0.251091715,-0.38304857,1,0,0,1.0175,Basalt_01,2,01,1,3,1.017,2,01,-0.132159966,-0.256250475,1,0,0,1.3328,Basalt_rect,2,1.333,1,13,0,13,0,1,,,,,,,,,,,,,
65cba317504938f6ca5272f5,SCR,2024-06-11_13h11.08.159,LearnStrategy,2023.2.3,MacIntel,56.81818182,3,1,15,-0.078094754,0.251033223,1,0,0,1.6701,Gabbro_12,4,12,5,4,1.67,4,12,-0.111904839,-0.247998522,1,0,0,1.0622,Basalt_rect,2,1.062,0,14,0,14,0,1,,,,,,,,,,,,,
65cba317504938f6ca5272f5,SCR,2024-06-11_13h11.08.159,LearnStrategy,2023.2.3,MacIntel,56.81818182,3,1,16,-0.270567898,0.07778439,1,0,0,0.9683,Andesite_06,1,06,4,3,0.968,1,06,-0.36622918,-0.236851739,1,0,0,2.0753,Andesite_rect,1,2.075,1,15,0,15,0,1,,,,,,,,,,,,,
65cba317504938f6ca5272f5,SCR,2024-06-11_13h11.08.159,LearnStrategy,2023.2.3,MacIntel,56.81818182,3,2,1,,,,,,,,3,15,,,,,,,,,,,,,1,1.909,0,,,,,,-0.367141791,-0.230264282,1,0,0,1.909,Andesite_rect,0,0,0,0,1,
65cba317504938f6ca5272f5,SCR,2024-06-11_13h11.08.159,LearnStrategy,2023.2.3,MacIntel,56.81818182,3,2,2,,,,,,,,4,13,,,,,,,,,,,,,4,1.962,1,,,,,,0.340392795,-0.251420559,1,0,0,1.9618,Gabbro_rect,1,0,1,0,1,
65cba317504938f6ca5272f5,SCR,2024-06-11_13h11.08.159,LearnStrategy,2023.2.3,MacIntel,56.81818182,3,2,3,,,,,,,,7,13,,,,,,,,,,,,,7,1.579,1,,,,,,0.175656738,-0.390266995,1,0,0,1.5795,Peridotite_rect,2,0,2,0,1,
65cba317504938f6ca5272f5,SCR,2024-06-11_13h11.08.159,LearnStrategy,2023.2.3,MacIntel,56.81818182,3,2,4,,,,,,,,1,14,,,,,,,,,,,,,4,6.157,0,,,,,,0.415291341,-0.261358303,1,0,0,6.1566,Gabbro_rect,3,0,3,0,1,
65cba317504938f6ca5272f5,SCR,2024-06-11_13h11.08.159,LearnStrategy,2023.2.3,MacIntel,56.81818182,3,2,5,,,,,,,,2,08,,,,,,,,,,,,,2,2.2,1,,,,,,-0.170169678,-0.247697076,1,0,0,2.2003,Basalt_rect,4,0,4,0,1,
65cba317504938f6ca5272f5,SCR,2024-06-11_13h11.08.159,LearnStrategy,2023.2.3,MacIntel,56.81818182,3,2,6,,,,,,,,3,16,,,,,,,,,,,,,1,1.659,0,,,,,,-0.363401794,-0.245086127,1,0,0,1.659,Andesite_rect,5,0,5,0,1,
65cba317504938f6ca5272f5,SCR,2024-06-11_13h11.08.159,LearnStrategy,2023.2.3,MacIntel,56.81818182,3,2,7,,,,,,,,7,04,,,,,,,,,,,,,7,5.976,1,,,,,,0.107132433,-0.406243422,1,0,0,5.9761,Peridotite_rect,6,0,6,0,1,
65cba317504938f6ca5272f5,SCR,2024-06-11_13h11.08.159,LearnStrategy,2023.2.3,MacIntel,56.81818182,3,2,8,,,,,,,,5,06,,,,,,,,,,,,,5,1.258,1,,,,,,-0.370753106,-0.397961968,1,0,0,1.2582,Obsidian_rect,7,0,7,0,1,
65cba317504938f6ca5272f5,SCR,2024-06-11_13h11.08.159,LearnStrategy,2023.2.3,MacIntel,56.81818182,3,2,9,,,,,,,,8,09,,,,,,,,,,,,,8,2.633,1,,,,,,0.403519965,-0.405142958,1,0,0,2.6325,Pumice_rect,8,0,8,0,1,
65cba317504938f6ca5272f5,SCR,2024-06-11_13h11.08.159,LearnStrategy,2023.2.3,MacIntel,56.81818182,3,2,10,,,,,,,,1,09,,,,,,,,,,,,,2,5.105,0,,,,,,-0.122987739,-0.247705756,1,0,0,5.1054,Basalt_rect,9,0,9,0,1,
65cba317504938f6ca5272f5,SCR,2024-06-11_13h11.08.159,LearnStrategy,2023.2.3,MacIntel,56.81818182,3,2,11,,,,,,,,6,08,,,,,,,,,,,,,6,2.964,1,,,,,,-0.104692925,-0.399027642,1,0,0,2.9643,Pegmatite_rect,10,0,10,0,1,
65cba317504938f6ca5272f5,SCR,2024-06-11_13h11.08.159,LearnStrategy,2023.2.3,MacIntel,56.81818182,3,2,12,,,,,,,,6,12,,,,,,,,,,,,,6,1.843,1,,,,,,-0.105248481,-0.399027642,1,0,0,1.843,Pegmatite_rect,11,0,11,0,1,
65cba317504938f6ca5272f5,SCR,2024-06-11_13h11.08.159,LearnStrategy,2023.2.3,MacIntel,56.81818182,3,2,13,,,,,,,,2,04,,,,,,,,,,,,,2,1.186,1,,,,,,-0.117230835,-0.24879815,1,0,0,1.1858,Basalt_rect,12,0,12,0,1,
65cba317504938f6ca5272f5,SCR,2024-06-11_13h11.08.159,LearnStrategy,2023.2.3,MacIntel,56.81818182,3,2,14,,,,,,,,8,05,,,,,,,,,,,,,8,1.558,1,,,,,,0.327212728,-0.389013875,1,0,0,1.5576,Pumice_rect,13,0,13,0,1,
65cba317504938f6ca5272f5,SCR,2024-06-11_13h11.08.159,LearnStrategy,2023.2.3,MacIntel,56.81818182,3,2,15,,,,,,,,5,04,,,,,,,,,,,,,5,1.212,1,,,,,,-0.389880337,-0.387831353,1,0,0,1.2121,Obsidian_rect,14,0,14,0,1,
65cba317504938f6ca5272f5,SCR,2024-06-11_13h11.08.159,LearnStrategy,2023.2.3,MacIntel,56.81818182,3,2,16,,,,,,,,4,05,,,,,,,,,,,,,1,5.106,0,,,,,,-0.374135674,-0.262587077,1,0,0,5.106,Andesite_rect,15,0,15,0,1,
65cba317504938f6ca5272f5,SCR,2024-06-11_13h11.08.159,LearnStrategy,2023.2.3,MacIntel,56.81818182,4,1,1,0.079567464,0.269160563,1,0,0,1.557,Andesite_01,1,01,5,5,1.557,1,01,-0.38956916,-0.237811144,1,0,0,1.2789,Andesite_rect,1,1.279,1,0,0,0,0,1,,,,,,,,,,,,,
65cba317504938f6ca5272f5,SCR,2024-06-11_13h11.08.159,LearnStrategy,2023.2.3,MacIntel,56.81818182,4,1,2,0.20959215,0.366817373,1,0,0,1.131,Basalt_02,2,02,6,6,1.131,2,02,-0.133735826,-0.24595954,1,0,0,1.035,Basalt_rect,2,1.035,1,1,0,1,0,1,,,,,,,,,,,,,
65cba317504938f6ca5272f5,SCR,2024-06-11_13h11.08.159,LearnStrategy,2023.2.3,MacIntel,56.81818182,4,1,3,-0.584107903,0.409837986,1,0,0,1.4527,Basalt_05,2,05,6,1,1.453,2,05,-0.192719659,-0.241582303,1,0,0,1.7144,Basalt_rect,2,1.714,1,2,0,2,0,1,,,,,,,,,,,,,
65cba317504938f6ca5272f5,SCR,2024-06-11_13h11.08.159,LearnStrategy,2023.2.3,MacIntel,56.81818182,4,1,4,-0.360931803,-0.257898356,1,0,0,1.0188,Gabbro_09,4,09,2,2,1.019,4,09,0.352118191,-0.248641086,1,0,0,2.9354,Gabbro_rect,4,2.935,1,3,0,3,0,1,,,,,,,,,,,,,
65cba317504938f6ca5272f5,SCR,2024-06-11_13h11.08.159,LearnStrategy,2023.2.3,MacIntel,56.81818182,4,1,5,0.28314209,-0.095602688,1,0,0,0.9521,Diorite_10,3,10,3,6,0.952,3,10,-0.425268724,-0.248483073,1,0,0,0.821,Andesite_rect,1,0.821,0,4,0,4,0,1,,,,,,,,,,,,,
65cba317504938f6ca5272f5,SCR,2024-06-11_13h11.08.159,LearnStrategy,2023.2.3,MacIntel,56.81818182,4,1,6,-0.562024282,-0.41051907,1,0,0,1.3504,Diorite_09,3,09,1,1,1.35,3,09,0.074260796,-0.264063721,1,0,0,0.9234,Diorite_rect,3,0.923,1,5,0,5,0,1,,,,,,,,,,,,,
65cba317504938f6ca5272f5,SCR,2024-06-11_13h11.08.159,LearnStrategy,2023.2.3,MacIntel,56.81818182,4,1,7,0.529459771,0.253580271,1,0,0,1.1204,Andesite_04,1,04,5,8,1.12,1,04,0.215546061,-0.253693305,1,0,0,2.0272,Diorite_rect,3,2.027,0,6,0,6,0,1,,,,,,,,,,,,,
65cba317504938f6ca5272f5,SCR,2024-06-11_13h11.08.159,LearnStrategy,2023.2.3,MacIntel,56.81818182,4,1,8,-0.426716309,0.116499939,1,0,0,0.9553,Andesite_10,1,10,4,2,0.955,1,10,-0.337225138,-0.26081231,1,0,0,3.0753,Andesite_rect,1,3.075,1,7,0,7,0,1,,,,,,,,,,,,,
65cba317504938f6ca5272f5,SCR,2024-06-11_13h11.08.159,LearnStrategy,2023.2.3,MacIntel,56.81818182,4,1,9,0.412566325,0.38884691,1,0,0,0.9114,Gabbro_08,4,08,6,7,0.911,4,08,-0.368463711,-0.228509657,1,0,0,3.1695,Andesite_rect,1,3.169,0,8,0,8,0,1,,,,,,,,,,,,,
65cba317504938f6ca5272f5,SCR,2024-06-11_13h11.08.159,LearnStrategy,2023.2.3,MacIntel,56.81818182,4,1,10,-0.063573812,-0.267535333,1,0,0,0.9853,Pegmatite_16,6,16,2,4,0.985,6,16,-0.11717631,-0.419114855,1,0,0,1.7736,Pegmatite_rect,6,1.774,1,9,0,9,0,1,,,,,,,,,,,,,
65cba317504938f6ca5272f5,SCR,2024-06-11_13h11.08.159,LearnStrategy,2023.2.3,MacIntel,56.81818182,4,1,11,-0.07055481,0.061026272,1,0,0,0.7357,Pegmatite_11,6,11,4,4,0.736,6,11,-0.085478923,-0.399628635,1,0,0,0.8724,Pegmatite_rect,6,0.872,1,10,0,10,0,1,,,,,,,,,,,,,
65cba317504938f6ca5272f5,SCR,2024-06-11_13h11.08.159,LearnStrategy,2023.2.3,MacIntel,56.81818182,4,1,12,0.052867296,-0.0816588,1,0,0,0.9038,Peridotite_15,7,15,3,5,0.904,7,15,0.106670464,-0.387023926,1,0,0,1.4771,Peridotite_rect,7,1.477,1,11,0,11,0,1,,,,,,,,,,,,,
65cba317504938f6ca5272f5,SCR,2024-06-11_13h11.08.159,LearnStrategy,2023.2.3,MacIntel,56.81818182,4,1,13,-0.223280301,0.231751929,1,0,0,1.1718,Andesite_07,1,07,5,3,1.172,1,07,-0.397360365,-0.239477268,1,0,0,1.0289,Andesite_rect,1,1.029,1,12,0,12,0,1,,,,,,,,,,,,,
65cba317504938f6ca5272f5,SCR,2024-06-11_13h11.08.159,LearnStrategy,2023.2.3,MacIntel,56.81818182,4,1,14,0.037502848,0.403639492,1,0,0,0.9725,Diorite_02,3,02,6,5,0.973,3,02,0.054000651,-0.25968099,1,0,0,1.1366,Diorite_rect,3,1.137,1,13,0,13,0,1,,,,,,,,,,,,,
65cba317504938f6ca5272f5,SCR,2024-06-11_13h11.08.159,LearnStrategy,2023.2.3,MacIntel,56.81818182,4,1,15,0.436437174,-0.449247165,1,0,0,1.3884,Gabbro_11,4,11,1,7,1.388,4,11,-0.152137655,-0.230990601,1,0,0,1.5744,Basalt_rect,2,1.574,0,14,0,14,0,1,,,,,,,,,,,,,
65cba317504938f6ca5272f5,SCR,2024-06-11_13h11.08.159,LearnStrategy,2023.2.3,MacIntel,56.81818182,4,1,16,0.0857999,0.233794183,1,0,0,0.9537,Andesite_01,1,01,5,5,0.954,1,01,0.375025363,-0.2407567,1,0,0,2.1664,Gabbro_rect,4,2.166,0,15,0,15,0,1,,,,,,,,,,,,,
65cba317504938f6ca5272f5,SCR,2024-06-11_13h11.08.159,LearnStrategy,2023.2.3,MacIntel,56.81818182,4,2,1,,,,,,,,8,04,,,,,,,,,,,,,8,17.939,1,,,,,,0.377382541,-0.414581028,1,0,0,17.9385,Pumice_rect,0,0,0,0,1,
65cba317504938f6ca5272f5,SCR,2024-06-11_13h11.08.159,LearnStrategy,2023.2.3,MacIntel,56.81818182,4,2,2,,,,,,,,1,02,,,,,,,,,,,,,3,4.801,0,,,,,,0.186293538,-0.244232042,1,0,0,4.8011,Diorite_rect,1,0,1,0,1,
65cba317504938f6ca5272f5,SCR,2024-06-11_13h11.08.159,LearnStrategy,2023.2.3,MacIntel,56.81818182,4,2,3,,,,,,,,3,12,,,,,,,,,,,,,3,3.21,1,,,,,,0.085272013,-0.244391412,1,0,0,3.2104,Diorite_rect,2,0,2,0,1,
65cba317504938f6ca5272f5,SCR,2024-06-11_13h11.08.159,LearnStrategy,2023.2.3,MacIntel,56.81818182,4,2,4,,,,,,,,1,05,,,,,,,,,,,,,7,2.752,0,,,,,,0.134776069,-0.403233303,1,0,0,2.7524,Peridotite_rect,3,0,3,0,1,
65cba317504938f6ca5272f5,SCR,2024-06-11_13h11.08.159,LearnStrategy,2023.2.3,MacIntel,56.81818182,4,2,5,,,,,,,,3,06,,,,,,,,,,,,,3,3.352,1,,,,,,0.171335314,-0.242499186,1,0,0,3.3522,Diorite_rect,4,0,4,0,1,
65cba317504938f6ca5272f5,SCR,2024-06-11_13h11.08.159,LearnStrategy,2023.2.3,MacIntel,56.81818182,4,2,6,,,,,,,,4,15,,,,,,,,,,,,,1,1.49,0,,,,,,-0.406428223,-0.255927192,1,0,0,1.4901,Andesite_rect,5,0,5,0,1,
65cba317504938f6ca5272f5,SCR,2024-06-11_13h11.08.159,LearnStrategy,2023.2.3,MacIntel,56.81818182,4,2,7,,,,,,,,5,10,,,,,,,,,,,,,5,1.97,1,,,,,,-0.338095228,-0.390094808,1,0,0,1.97,Obsidian_rect,6,0,6,0,1,
65cba317504938f6ca5272f5,SCR,2024-06-11_13h11.08.159,LearnStrategy,2023.2.3,MacIntel,56.81818182,4,2,8,,,,,,,,4,05,,,,,,,,,,,,,7,1.595,0,,,,,,0.169836019,-0.389605645,1,0,0,1.5952,Peridotite_rect,7,0,7,0,1,
65cba317504938f6ca5272f5,SCR,2024-06-11_13h11.08.159,LearnStrategy,2023.2.3,MacIntel,56.81818182,4,2,9,,,,,,,,5,08,,,,,,,,,,,,,5,1.997,1,,,,,,-0.424878031,-0.407405056,1,0,0,1.9968,Obsidian_rect,8,0,8,0,1,
65cba317504938f6ca5272f5,SCR,2024-06-11_13h11.08.159,LearnStrategy,2023.2.3,MacIntel,56.81818182,4,2,10,,,,,,,,2,10,,,,,,,,,,,,,2,2.195,1,,,,,,-0.150041504,-0.257931044,1,0,0,2.1946,Basalt_rect,9,0,9,0,1,
65cba317504938f6ca5272f5,SCR,2024-06-11_13h11.08.159,LearnStrategy,2023.2.3,MacIntel,56.81818182,4,2,11,,,,,,,,6,06,,,,,,,,,,,,,6,1.569,1,,,,,,-0.095429552,-0.380358615,1,0,0,1.5694,Pegmatite_rect,10,0,10,0,1,
65cba317504938f6ca5272f5,SCR,2024-06-11_13h11.08.159,LearnStrategy,2023.2.3,MacIntel,56.81818182,4,2,12,,,,,,,,8,06,,,,,,,,,,,,,8,1.349,1,,,,,,0.330487671,-0.39268297,1,0,0,1.3485,Pumice_rect,11,0,11,0,1,
65cba317504938f6ca5272f5,SCR,2024-06-11_13h11.08.159,LearnStrategy,2023.2.3,MacIntel,56.81818182,4,2,13,,,,,,,,7,02,,,,,,,,,,,,,7,1.107,1,,,,,,0.145346815,-0.387113987,1,0,0,1.1067,Peridotite_rect,12,0,12,0,1,
65cba317504938f6ca5272f5,SCR,2024-06-11_13h11.08.159,LearnStrategy,2023.2.3,MacIntel,56.81818182,4,2,14,,,,,,,,6,13,,,,,,,,,,,,,3,4.663,0,,,,,,0.215587023,-0.256859131,1,0,0,4.6633,Diorite_rect,13,0,13,0,1,
65cba317504938f6ca5272f5,SCR,2024-06-11_13h11.08.159,LearnStrategy,2023.2.3,MacIntel,56.81818182,4,2,15,,,,,,,,2,04,,,,,,,,,,,,,2,2.648,1,,,,,,-0.135466512,-0.257067735,1,0,0,2.648,Basalt_rect,14,0,14,0,1,
65cba317504938f6ca5272f5,SCR,2024-06-11_13h11.08.159,LearnStrategy,2023.2.3,MacIntel,56.81818182,4,2,16,,,,,,,,7,12,,,,,,,,,,,,,7,3.056,1,,,,,,0.126114434,-0.40354126,1,0,0,3.0563,Peridotite_rect,15,0,15,0,1,
65cba317504938f6ca5272f5,SCR,2024-06-11_13h11.08.159,LearnStrategy,2023.2.3,MacIntel,56.81818182,5,1,1,-0.079927911,0.237901442,1,0,0,2.2651,Gabbro_12,4,12,5,4,2.265,4,12,-0.103728027,-0.246442057,1,0,0,0.9082,Basalt_rect,2,0.908,0,0,0,0,0,1,,,,,,,,,,,,,
65cba317504938f6ca5272f5,SCR,2024-06-11_13h11.08.159,LearnStrategy,2023.2.3,MacIntel,56.81818182,5,1,2,-0.230078735,0.389710863,1,0,0,1.8233,Pegmatite_07,6,07,6,3,1.823,6,07,-0.120658637,-0.40609653,1,0,0,2.3016,Pegmatite_rect,6,2.302,1,1,0,1,0,1,,,,,,,,,,,,,
65cba317504938f6ca5272f5,SCR,2024-06-11_13h11.08.159,LearnStrategy,2023.2.3,MacIntel,56.81818182,5,1,3,0.077962918,0.367967919,1,0,0,1.1902,Diorite_02,3,02,6,5,1.19,3,02,0.163431871,-0.259835137,1,0,0,0.9292,Diorite_rect,3,0.929,1,2,0,2,0,1,,,,,,,,,,,,,
65cba317504938f6ca5272f5,SCR,2024-06-11_13h11.08.159,LearnStrategy,2023.2.3,MacIntel,56.81818182,5,1,4,0.093339912,0.360984378,1,0,0,0.9572,Diorite_02,3,02,6,5,0.957,3,02,0.115689223,-0.255852322,1,0,0,0.8949,Diorite_rect,3,0.895,1,3,0,3,0,1,,,,,,,,,,,,,
65cba317504938f6ca5272f5,SCR,2024-06-11_13h11.08.159,LearnStrategy,2023.2.3,MacIntel,56.81818182,5,1,5,-0.232695855,-0.385625271,1,0,0,1.3534,Basalt_01,2,01,1,3,1.353,2,01,-0.134346313,-0.264938151,1,0,0,1.0777,Basalt_rect,2,1.078,1,4,0,4,0,1,,,,,,,,,,,,,
65cba317504938f6ca5272f5,SCR,2024-06-11_13h11.08.159,LearnStrategy,2023.2.3,MacIntel,56.81818182,5,1,6,-0.421864081,0.093520915,1,0,0,0.815,Andesite_10,1,10,4,2,0.815,1,10,-0.346734687,-0.244281684,1,0,0,1.1812,Andesite_rect,1,1.181,1,5,0,5,0,1,,,,,,,,,,,,,
65cba317504938f6ca5272f5,SCR,2024-06-11_13h11.08.159,LearnStrategy,2023.2.3,MacIntel,56.81818182,5,1,7,-0.271485799,-0.112345174,1,0,0,0.8102,Peridotite_05,7,05,3,3,0.81,7,05,0.08868042,-0.398105469,1,0,0,1.6717,Peridotite_rect,7,1.672,1,6,0,6,0,1,,,,,,,,,,,,,
65cba317504938f6ca5272f5,SCR,2024-06-11_13h11.08.159,LearnStrategy,2023.2.3,MacIntel,56.81818182,5,1,8,-0.558253615,0.228047824,1,0,0,1.2378,Gabbro_14,4,14,5,1,1.238,4,14,0.335315823,-0.261533474,1,0,0,2.9156,Gabbro_rect,4,2.916,1,7,0,7,0,1,,,,,,,,,,,,,
65cba317504938f6ca5272f5,SCR,2024-06-11_13h11.08.159,LearnStrategy,2023.2.3,MacIntel,56.81818182,5,1,9,0.36509413,-0.412991401,1,0,0,1.2225,Gabbro_11,4,11,1,7,1.223,4,11,-0.058362088,-0.267328016,1,0,0,1.0064,Basalt_rect,2,1.006,0,8,0,8,0,1,,,,,,,,,,,,,
65cba317504938f6ca5272f5,SCR,2024-06-11_13h11.08.159,LearnStrategy,2023.2.3,MacIntel,56.81818182,5,1,10,0.064476929,0.237650536,1,0,0,0.9938,Andesite_01,1,01,5,5,0.994,1,01,-0.393100823,-0.241246609,1,0,0,0.7104,Andesite_rect,1,0.71,1,9,0,9,0,1,,,,,,,,,,,,,
65cba317504938f6ca5272f5,SCR,2024-06-11_13h11.08.159,LearnStrategy,2023.2.3,MacIntel,56.81818182,5,1,11,-0.090040419,0.083154365,1,0,0,0.699,Pegmatite_11,6,11,4,4,0.699,6,11,-0.091450331,-0.404398804,1,0,0,1.0058,Pegmatite_rect,6,1.006,1,10,0,10,0,1,,,,,,,,,,,,,
65cba317504938f6ca5272f5,SCR,2024-06-11_13h11.08.159,LearnStrategy,2023.2.3,MacIntel,56.81818182,5,1,12,-0.533084462,0.378479156,1,0,0,1.2589,Basalt_05,2,05,6,1,1.259,2,05,-0.203693373,-0.255010308,1,0,0,1.0847,Basalt_rect,2,1.085,1,11,0,11,0,1,,,,,,,,,,,,,
65cba317504938f6ca5272f5,SCR,2024-06-11_13h11.08.159,LearnStrategy,2023.2.3,MacIntel,56.81818182,5,1,13,0.372286241,0.105215115,1,0,0,0.9841,Diorite_14,3,14,4,7,0.984,3,14,-0.366690674,-0.243320312,1,0,0,0.9512,Andesite_rect,1,0.951,0,12,0,12,0,1,,,,,,,,,,,,,
65cba317504938f6ca5272f5,SCR,2024-06-11_13h11.08.159,LearnStrategy,2023.2.3,MacIntel,56.81818182,5,1,14,0.389742567,0.231206902,1,0,0,1.1697,Andesite_11,1,11,5,7,1.17,1,11,-0.320471361,-0.240844727,1,0,0,1.5768,Andesite_rect,1,1.577,1,13,0,13,0,1,,,,,,,,,,,,,
65cba317504938f6ca5272f5,SCR,2024-06-11_13h11.08.159,LearnStrategy,2023.2.3,MacIntel,56.81818182,5,1,15,0.351508382,0.22784729,1,0,0,0.8971,Andesite_11,1,11,5,7,0.897,1,11,-0.3924214,-0.251537069,1,0,0,2.1562,Andesite_rect,1,2.156,1,14,0,14,0,1,,,,,,,,,,,,,
65cba317504938f6ca5272f5,SCR,2024-06-11_13h11.08.159,LearnStrategy,2023.2.3,MacIntel,56.81818182,5,1,16,0.118692288,0.246021406,1,0,0,0.9309,Andesite_01,1,01,5,5,0.931,1,01,-0.358296271,-0.267772759,1,0,0,1.3877,Andesite_rect,1,1.388,1,15,0,15,0,1,,,,,,,,,,,,,
65cba317504938f6ca5272f5,SCR,2024-06-11_13h11.08.159,LearnStrategy,2023.2.3,MacIntel,56.81818182,5,2,1,,,,,,,,6,03,,,,,,,,,,,,,7,3.623,0,,,,,,0.132313639,-0.398688694,1,0,0,3.6233,Peridotite_rect,0,0,0,0,1,
65cba317504938f6ca5272f5,SCR,2024-06-11_13h11.08.159,LearnStrategy,2023.2.3,MacIntel,56.81818182,5,2,2,,,,,,,,2,06,,,,,,,,,,,,,2,1.732,1,,,,,,-0.117487386,-0.267281901,1,0,0,1.7321,Basalt_rect,1,0,1,0,1,
65cba317504938f6ca5272f5,SCR,2024-06-11_13h11.08.159,LearnStrategy,2023.2.3,MacIntel,56.81818182,5,2,3,,,,,,,,2,08,,,,,,,,,,,,,2,1.56,1,,,,,,-0.117487386,-0.267281901,1,0,0,1.5603,Basalt_rect,2,0,2,0,1,
65cba317504938f6ca5272f5,SCR,2024-06-11_13h11.08.159,LearnStrategy,2023.2.3,MacIntel,56.81818182,5,2,4,,,,,,,,4,13,,,,,,,,,,,,,4,5.473,1,,,,,,0.45227417,-0.245804376,1,0,0,5.4725,Gabbro_rect,3,0,3,0,1,
65cba317504938f6ca5272f5,SCR,2024-06-11_13h11.08.159,LearnStrategy,2023.2.3,MacIntel,56.81818182,5,2,5,,,,,,,,4,03,,,,,,,,,,,,,1,2.293,0,,,,,,-0.431987373,-0.252322116,1,0,0,2.2935,Andesite_rect,4,0,4,0,1,
65cba317504938f6ca5272f5,SCR,2024-06-11_13h11.08.159,LearnStrategy,2023.2.3,MacIntel,56.81818182,5,2,6,,,,,,,,5,06,,,,,,,,,,,,,5,1.845,1,,,,,,-0.385041979,-0.412941555,1,0,0,1.845,Obsidian_rect,5,0,5,0,1,
65cba317504938f6ca5272f5,SCR,2024-06-11_13h11.08.159,LearnStrategy,2023.2.3,MacIntel,56.81818182,5,2,7,,,,,,,,7,13,,,,,,,,,,,,,7,1.208,1,,,,,,0.195738254,-0.417510173,1,0,0,1.208,Peridotite_rect,6,0,6,0,1,
65cba317504938f6ca5272f5,SCR,2024-06-11_13h11.08.159,LearnStrategy,2023.2.3,MacIntel,56.81818182,5,2,8,,,,,,,,7,04,,,,,,,,,,,,,6,4.398,0,,,,,,-0.099460042,-0.389880032,1,0,0,4.3979,Pegmatite_rect,7,0,7,0,1,
65cba317504938f6ca5272f5,SCR,2024-06-11_13h11.08.159,LearnStrategy,2023.2.3,MacIntel,56.81818182,5,2,9,,,,,,,,6,12,,,,,,,,,,,,,3,6.27,0,,,,,,0.123613281,-0.243502401,1,0,0,6.2699,Diorite_rect,8,0,8,0,1,
65cba317504938f6ca5272f5,SCR,2024-06-11_13h11.08.159,LearnStrategy,2023.2.3,MacIntel,56.81818182,5,2,10,,,,,,,,8,14,,,,,,,,,,,,,8,1.745,1,,,,,,0.345010851,-0.39567966,1,0,0,1.7446,Pumice_rect,9,0,9,0,1,
65cba317504938f6ca5272f5,SCR,2024-06-11_13h11.08.159,LearnStrategy,2023.2.3,MacIntel,56.81818182,5,2,11,,,,,,,,3,08,,,,,,,,,,,,,3,1.229,1,,,,,,0.151435479,-0.23129225,1,0,0,1.2289,Diorite_rect,10,0,10,0,1,
65cba317504938f6ca5272f5,SCR,2024-06-11_13h11.08.159,LearnStrategy,2023.2.3,MacIntel,56.81818182,5,2,12,,,,,,,,8,09,,,,,,,,,,,,,8,1.515,1,,,,,,0.446396349,-0.406320326,1,0,0,1.515,Pumice_rect,11,0,11,0,1,
65cba317504938f6ca5272f5,SCR,2024-06-11_13h11.08.159,LearnStrategy,2023.2.3,MacIntel,56.81818182,5,2,13,,,,,,,,5,04,,,,,,,,,,,,,5,1.331,1,,,,,,-0.348120117,-0.410418566,1,0,0,1.3306,Obsidian_rect,12,0,12,0,1,
65cba317504938f6ca5272f5,SCR,2024-06-11_13h11.08.159,LearnStrategy,2023.2.3,MacIntel,56.81818182,5,2,14,,,,,,,,1,16,,,,,,,,,,,,,3,6.522,0,,,,,,0.169132419,-0.255170017,1,0,0,6.5215,Diorite_rect,13,0,13,0,1,
65cba317504938f6ca5272f5,SCR,2024-06-11_13h11.08.159,LearnStrategy,2023.2.3,MacIntel,56.81818182,5,2,15,,,,,,,,1,03,,,,,,,,,,,,,4,6.716,0,,,,,,0.395305447,-0.267180854,1,0,0,6.7155,Gabbro_rect,14,0,14,0,1,
65cba317504938f6ca5272f5,SCR,2024-06-11_13h11.08.159,LearnStrategy,2023.2.3,MacIntel,56.81818182,5,2,16,,,,,,,,3,16,,,,,,,,,,,,,1,2.411,0,,,,,,-0.351206326,-0.256965196,1,0,0,2.411,Andesite_rect,15,0,15,0,1,
65cba317504938f6ca5272f5,SCR,2024-06-11_13h11.08.159,LearnStrategy,2023.2.3,MacIntel,56.81818182,6,1,1,-0.097783474,-0.234576823,1,0,0,1.0597,Pegmatite_16,6,16,2,4,1.06,6,16,-0.078075222,-0.389742093,1,0,0,2.0316,Pegmatite_rect,6,2.032,1,0,0,0,0,1,,,,,,,,,,,,,
65cba317504938f6ca5272f5,SCR,2024-06-11_13h11.08.159,LearnStrategy,2023.2.3,MacIntel,56.81818182,6,1,2,-0.58769165,0.238450334,1,0,0,1.649,Gabbro_14,4,14,5,1,1.649,4,14,0.368368327,-0.229938897,1,0,0,3.0883,Gabbro_rect,4,3.088,1,1,0,1,0,1,,,,,,,,,,,,,
65cba317504938f6ca5272f5,SCR,2024-06-11_13h11.08.159,LearnStrategy,2023.2.3,MacIntel,56.81818182,6,1,3,-0.238347168,0.090779826,1,0,0,0.7628,Andesite_06,1,06,4,3,0.763,1,06,-0.400689663,-0.258101807,1,0,0,1.5201,Andesite_rect,1,1.52,1,2,0,2,0,1,,,,,,,,,,,,,
65cba317504938f6ca5272f5,SCR,2024-06-11_13h11.08.159,LearnStrategy,2023.2.3,MacIntel,56.81818182,6,1,4,0.380557861,0.201763,1,0,0,1.2888,Andesite_11,1,11,5,7,1.289,1,11,-0.333585103,-0.246566501,1,0,0,1.0449,Andesite_rect,1,1.045,1,3,0,3,0,1,,,,,,,,,,,,,
65cba317504938f6ca5272f5,SCR,2024-06-11_13h11.08.159,LearnStrategy,2023.2.3,MacIntel,56.81818182,6,1,5,-0.068194105,-0.114376424,1,0,0,0.7913,Diorite_07,3,07,3,4,0.791,3,07,-0.414682482,-0.241513672,1,0,0,0.9031,Andesite_rect,1,0.903,0,4,0,4,0,1,,,,,,,,,,,,,
65cba317504938f6ca5272f5,SCR,2024-06-11_13h11.08.159,LearnStrategy,2023.2.3,MacIntel,56.81818182,6,1,6,-0.558841553,-0.402868517,1,0,0,1.1254,Diorite_09,3,09,1,1,1.125,3,09,0.145044691,-0.236262953,1,0,0,0.7954,Diorite_rect,3,0.795,1,5,0,5,0,1,,,,,,,,,,,,,
65cba317504938f6ca5272f5,SCR,2024-06-11_13h11.08.159,LearnStrategy,2023.2.3,MacIntel,56.81818182,6,1,7,-0.076954617,0.240372789,1,0,0,0.8205,Gabbro_12,4,12,5,4,0.821,4,12,0.362593045,-0.259978773,1,0,0,1.8976,Gabbro_rect,4,1.898,1,6,0,6,0,1,,,,,,,,,,,,,
65cba317504938f6ca5272f5,SCR,2024-06-11_13h11.08.159,LearnStrategy,2023.2.3,MacIntel,56.81818182,6,1,8,-0.286925117,0.220041656,1,0,0,0.7536,Andesite_07,1,07,5,3,0.754,1,07,0.151010607,-0.248314412,1,0,0,2.7254,Diorite_rect,3,2.725,0,7,0,7,0,1,,,,,,,,,,,,,
65cba317504938f6ca5272f5,SCR,2024-06-11_13h11.08.159,LearnStrategy,2023.2.3,MacIntel,56.81818182,6,1,9,0.386017253,0.221546563,1,0,0,0.907,Andesite_11,1,11,5,7,0.907,1,11,-0.41057841,-0.240313585,1,0,0,0.7657,Andesite_rect,1,0.766,1,8,0,8,0,1,,,,,,,,,,,,,
65cba317504938f6ca5272f5,SCR,2024-06-11_13h11.08.159,LearnStrategy,2023.2.3,MacIntel,56.81818182,6,1,10,-0.394274835,-0.253701647,1,0,0,0.955,Gabbro_09,4,09,2,2,0.955,4,09,0.371363797,-0.264778849,1,0,0,3.0924,Gabbro_rect,4,3.092,1,9,0,9,0,1,,,,,,,,,,,,,
65cba317504938f6ca5272f5,SCR,2024-06-11_13h11.08.159,LearnStrategy,2023.2.3,MacIntel,56.81818182,6,1,11,-0.255647007,-0.365693495,1,0,0,0.967,Basalt_01,2,01,1,3,0.967,2,01,-0.16676907,-0.257189535,1,0,0,1.2152,Basalt_rect,2,1.215,1,10,0,10,0,1,,,,,,,,,,,,,
65cba317504938f6ca5272f5,SCR,2024-06-11_13h11.08.159,LearnStrategy,2023.2.3,MacIntel,56.81818182,6,1,12,0.185616659,0.078237915,1,0,0,0.8442,Pegmatite_09,6,09,4,6,0.844,6,09,0.077693414,-0.388161011,1,0,0,1.1997,Peridotite_rect,7,1.2,0,11,0,11,0,1,,,,,,,,,,,,,
65cba317504938f6ca5272f5,SCR,2024-06-11_13h11.08.159,LearnStrategy,2023.2.3,MacIntel,56.81818182,6,1,13,-0.072163222,-0.382344767,1,0,0,0.8089,Peridotite_10,7,10,1,4,0.809,7,10,0.088469238,-0.393241509,1,0,0,1.401,Peridotite_rect,7,1.401,1,12,0,12,0,1,,,,,,,,,,,,,
65cba317504938f6ca5272f5,SCR,2024-06-11_13h11.08.159,LearnStrategy,2023.2.3,MacIntel,56.81818182,6,1,14,-0.345972968,0.084878303,1,0,0,0.7888,Andesite_10,1,10,4,2,0.789,1,10,-0.402972616,-0.242968682,1,0,0,1.3682,Andesite_rect,1,1.368,1,13,0,13,0,1,,,,,,,,,,,,,
65cba317504938f6ca5272f5,SCR,2024-06-11_13h11.08.159,LearnStrategy,2023.2.3,MacIntel,56.81818182,6,1,15,-0.105305447,0.107336765,1,0,0,0.6259,Pegmatite_11,6,11,4,4,0.626,6,11,-0.135681559,-0.406952311,1,0,0,0.7113,Pegmatite_rect,6,0.711,1,14,0,14,0,1,,,,,,,,,,,,,
65cba317504938f6ca5272f5,SCR,2024-06-11_13h11.08.159,LearnStrategy,2023.2.3,MacIntel,56.81818182,6,1,16,0.051202393,-0.107313843,1,0,0,0.7196,Peridotite_15,7,15,3,5,0.72,7,15,0.088215332,-0.396426866,1,0,0,0.7187,Peridotite_rect,7,0.719,1,15,0,15,0,1,,,,,,,,,,,,,
65cba317504938f6ca5272f5,SCR,2024-06-11_13h11.08.159,LearnStrategy,2023.2.3,MacIntel,56.81818182,6,2,1,,,,,,,,3,13,,,,,,,,,,,,,3,1.742,1,,,,,,0.149187147,-0.233517049,1,0,0,1.7424,Diorite_rect,0,0,0,0,1,
65cba317504938f6ca5272f5,SCR,2024-06-11_13h11.08.159,LearnStrategy,2023.2.3,MacIntel,56.81818182,6,2,2,,,,,,,,4,10,,,,,,,,,,,,,4,2.431,1,,,,,,0.389886882,-0.256858453,1,0,0,2.4309,Gabbro_rect,1,0,1,0,1,
65cba317504938f6ca5272f5,SCR,2024-06-11_13h11.08.159,LearnStrategy,2023.2.3,MacIntel,56.81818182,6,2,3,,,,,,,,8,08,,,,,,,,,,,,,8,1.886,1,,,,,,0.376325819,-0.387843764,1,0,0,1.8858,Pumice_rect,2,0,2,0,1,
65cba317504938f6ca5272f5,SCR,2024-06-11_13h11.08.159,LearnStrategy,2023.2.3,MacIntel,56.81818182,6,2,4,,,,,,,,5,09,,,,,,,,,,,,,5,1.115,1,,,,,,-0.367210117,-0.382204047,1,0,0,1.1147,Obsidian_rect,3,0,3,0,1,
65cba317504938f6ca5272f5,SCR,2024-06-11_13h11.08.159,LearnStrategy,2023.2.3,MacIntel,56.81818182,6,2,5,,,,,,,,5,11,,,,,,,,,,,,,5,0.789,1,,,,,,-0.362627699,-0.395467055,1,0,0,0.7891,Obsidian_rect,4,0,4,0,1,
65cba317504938f6ca5272f5,SCR,2024-06-11_13h11.08.159,LearnStrategy,2023.2.3,MacIntel,56.81818182,6,2,6,,,,,,,,4,16,,,,,,,,,,,,,2,1.427,0,,,,,,-0.141016507,-0.252492472,1,0,0,1.4272,Basalt_rect,5,0,5,0,1,
65cba317504938f6ca5272f5,SCR,2024-06-11_13h11.08.159,LearnStrategy,2023.2.3,MacIntel,56.81818182,6,2,7,,,,,,,,6,08,,,,,,,,,,,,,6,2.37,1,,,,,,-0.124057888,-0.391243896,1,0,0,2.3697,Pegmatite_rect,6,0,6,0,1,
65cba317504938f6ca5272f5,SCR,2024-06-11_13h11.08.159,LearnStrategy,2023.2.3,MacIntel,56.81818182,6,2,8,,,,,,,,6,10,,,,,,,,,,,,,7,1.201,0,,,,,,0.073558892,-0.409145643,1,0,0,1.2007,Peridotite_rect,7,0,7,0,1,
65cba317504938f6ca5272f5,SCR,2024-06-11_13h11.08.159,LearnStrategy,2023.2.3,MacIntel,56.81818182,6,2,9,,,,,,,,7,08,,,,,,,,,,,,,6,2.22,0,,,,,,-0.116864217,-0.389273885,1,0,0,2.2196,Pegmatite_rect,8,0,8,0,1,
65cba317504938f6ca5272f5,SCR,2024-06-11_13h11.08.159,LearnStrategy,2023.2.3,MacIntel,56.81818182,6,2,10,,,,,,,,1,09,,,,,,,,,,,,,1,2.273,1,,,,,,-0.390724725,-0.242935248,1,0,0,2.2728,Andesite_rect,9,0,9,0,1,
65cba317504938f6ca5272f5,SCR,2024-06-11_13h11.08.159,LearnStrategy,2023.2.3,MacIntel,56.81818182,6,2,11,,,,,,,,7,07,,,,,,,,,,,,,7,4.854,1,,,,,,0.065298258,-0.407822537,1,0,0,4.8539,Peridotite_rect,10,0,10,0,1,
65cba317504938f6ca5272f5,SCR,2024-06-11_13h11.08.159,LearnStrategy,2023.2.3,MacIntel,56.81818182,6,2,12,,,,,,,,8,05,,,,,,,,,,,,,8,1.319,1,,,,,,0.360858561,-0.379751316,1,0,0,1.3191,Pumice_rect,11,0,11,0,1,
65cba317504938f6ca5272f5,SCR,2024-06-11_13h11.08.159,LearnStrategy,2023.2.3,MacIntel,56.81818182,6,2,13,,,,,,,,2,12,,,,,,,,,,,,,4,3.081,0,,,,,,0.368847656,-0.257873332,1,0,0,3.081,Gabbro_rect,12,0,12,0,1,
65cba317504938f6ca5272f5,SCR,2024-06-11_13h11.08.159,LearnStrategy,2023.2.3,MacIntel,56.81818182,6,2,14,,,,,,,,2,14,,,,,,,,,,,,,4,1.318,0,,,,,,0.418667535,-0.262687988,1,0,0,1.3183,Gabbro_rect,13,0,13,0,1,
65cba317504938f6ca5272f5,SCR,2024-06-11_13h11.08.159,LearnStrategy,2023.2.3,MacIntel,56.81818182,6,2,15,,,,,,,,1,14,,,,,,,,,,,,,1,2.033,1,,,,,,-0.348790622,-0.233092177,1,0,0,2.0329,Andesite_rect,14,0,14,0,1,
65cba317504938f6ca5272f5,SCR,2024-06-11_13h11.08.159,LearnStrategy,2023.2.3,MacIntel,56.81818182,6,2,16,,,,,,,,3,15,,,,,,,,,,,,,3,1.184,1,,,,,,0.169816555,-0.263791029,1,0,0,1.1835,Diorite_rect,15,0,15,0,1,
65cba317504938f6ca5272f5,SCR,2024-06-11_13h11.08.159,LearnStrategy,2023.2.3,MacIntel,56.81818182,7,1,1,-0.28163425,0.125179104,1,0,0,0.9136,Andesite_06,1,06,4,3,0.914,1,06,-0.310511949,-0.240121121,1,0,0,1.0442,Andesite_rect,1,1.044,1,0,0,0,0,1,,,,,,,,,,,,,
65cba317504938f6ca5272f5,SCR,2024-06-11_13h11.08.159,LearnStrategy,2023.2.3,MacIntel,56.81818182,7,1,2,-0.051308119,0.227048238,1,0,0,1.1262,Gabbro_12,4,12,5,4,1.126,4,12,0.383796929,-0.24759691,1,0,0,1.327,Gabbro_rect,4,1.327,1,1,0,1,0,1,,,,,,,,,,,,,
65cba317504938f6ca5272f5,SCR,2024-06-11_13h11.08.159,LearnStrategy,2023.2.3,MacIntel,56.81818182,7,1,3,-0.406100803,0.254445665,1,0,0,1.2388,Gabbro_01,4,01,5,2,1.239,4,01,-0.358134562,-0.235937839,1,0,0,5.0295,Andesite_rect,1,5.029,0,2,0,2,0,1,,,,,,,,,,,,,
65cba317504938f6ca5272f5,SCR,2024-06-11_13h11.08.159,LearnStrategy,2023.2.3,MacIntel,56.81818182,7,1,4,-0.265693224,0.244133403,1,0,0,1.0536,Andesite_07,1,07,5,3,1.054,1,07,0.101590441,-0.24057312,1,0,0,1.3194,Diorite_rect,3,1.319,0,3,0,3,0,1,,,,,,,,,,,,,
65cba317504938f6ca5272f5,SCR,2024-06-11_13h11.08.159,LearnStrategy,2023.2.3,MacIntel,56.81818182,7,1,5,-0.520221405,0.072924127,1,0,0,1.3261,Basalt_16,2,16,4,1,1.326,2,16,0.333335029,-0.249758165,1,0,0,1.2829,Gabbro_rect,4,1.283,0,4,0,4,0,1,,,,,,,,,,,,,
65cba317504938f6ca5272f5,SCR,2024-06-11_13h11.08.159,LearnStrategy,2023.2.3,MacIntel,56.81818182,7,1,6,0.536309136,-0.36937188,1,0,0,1.3909,Peridotite_16,7,16,1,8,1.391,7,16,0.14805386,-0.418735691,1,0,0,2.1754,Peridotite_rect,7,2.175,1,5,0,5,0,1,,,,,,,,,,,,,
65cba317504938f6ca5272f5,SCR,2024-06-11_13h11.08.159,LearnStrategy,2023.2.3,MacIntel,56.81818182,7,1,7,-0.263787977,0.384830187,1,0,0,1.1087,Pegmatite_07,6,07,6,3,1.109,6,07,-0.138094415,-0.403261244,1,0,0,0.8717,Pegmatite_rect,6,0.872,1,6,0,6,0,1,,,,,,,,,,,,,
65cba317504938f6ca5272f5,SCR,2024-06-11_13h11.08.159,LearnStrategy,2023.2.3,MacIntel,56.81818182,7,1,8,0.360089654,0.113967217,1,0,0,1.3403,Diorite_14,3,14,4,7,1.34,3,14,0.110317654,-0.269292874,1,0,0,3.0674,Diorite_rect,3,3.067,1,7,0,7,0,1,,,,,,,,,,,,,
65cba317504938f6ca5272f5,SCR,2024-06-11_13h11.08.159,LearnStrategy,2023.2.3,MacIntel,56.81818182,7,1,9,-0.385825806,0.071504313,1,0,0,1.4049,Andesite_10,1,10,4,2,1.405,1,10,-0.385884942,-0.240157064,1,0,0,1.6578,Andesite_rect,1,1.658,1,8,0,8,0,1,,,,,,,,,,,,,
65cba317504938f6ca5272f5,SCR,2024-06-11_13h11.08.159,LearnStrategy,2023.2.3,MacIntel,56.81818182,7,1,10,0.521320801,-0.101825901,1,0,0,1.0921,Pegmatite_05,6,05,3,8,1.092,6,05,-0.106850789,-0.392562866,1,0,0,3.8002,Pegmatite_rect,6,3.8,1,9,0,9,0,1,,,,,,,,,,,,,
65cba317504938f6ca5272f5,SCR,2024-06-11_13h11.08.159,LearnStrategy,2023.2.3,MacIntel,56.81818182,7,1,11,-0.572445306,-0.076766493,1,0,0,1.2683,Basalt_11,2,11,3,1,1.268,2,11,-0.436941359,-0.229300537,1,0,0,0.6991,Andesite_rect,1,0.699,0,10,0,10,0,1,,,,,,,,,,,,,
65cba317504938f6ca5272f5,SCR,2024-06-11_13h11.08.159,LearnStrategy,2023.2.3,MacIntel,56.81818182,7,1,12,-0.369830322,-0.27421441,1,0,0,0.9439,Gabbro_09,4,09,2,2,0.944,4,09,0.335170898,-0.260255127,1,0,0,2.7163,Gabbro_rect,4,2.716,1,11,0,11,0,1,,,,,,,,,,,,,
65cba317504938f6ca5272f5,SCR,2024-06-11_13h11.08.159,LearnStrategy,2023.2.3,MacIntel,56.81818182,7,1,13,-0.066287503,-0.396167196,1,0,0,1.0051,Peridotite_10,7,10,1,4,1.005,7,10,0.093471748,-0.410792169,1,0,0,1.1653,Peridotite_rect,7,1.165,1,12,0,12,0,1,,,,,,,,,,,,,
65cba317504938f6ca5272f5,SCR,2024-06-11_13h11.08.159,LearnStrategy,2023.2.3,MacIntel,56.81818182,7,1,14,-0.539792141,0.396283264,1,0,0,1.2763,Basalt_05,2,05,6,1,1.276,2,05,-0.174687161,-0.270540771,1,0,0,1.4366,Basalt_rect,2,1.437,1,13,0,13,0,1,,,,,,,,,,,,,
65cba317504938f6ca5272f5,SCR,2024-06-11_13h11.08.159,LearnStrategy,2023.2.3,MacIntel,56.81818182,7,1,15,-0.071815253,0.076073371,1,0,0,0.6935,Pegmatite_11,6,11,4,4,0.694,6,11,-0.11756897,-0.413613349,1,0,0,0.7433,Pegmatite_rect,6,0.743,1,14,0,14,0,1,,,,,,,,,,,,,
65cba317504938f6ca5272f5,SCR,2024-06-11_13h11.08.159,LearnStrategy,2023.2.3,MacIntel,56.81818182,7,1,16,0.062293905,0.426487749,1,0,0,1.3083,Diorite_02,3,02,6,5,1.308,3,02,0.139294366,-0.263766073,1,0,0,2.5666,Diorite_rect,3,2.567,1,15,0,15,0,1,,,,,,,,,,,,,
65cba317504938f6ca5272f5,SCR,2024-06-11_13h11.08.159,LearnStrategy,2023.2.3,MacIntel,56.81818182,7,2,1,,,,,,,,5,11,,,,,,,,,,,,,5,1.459,1,,,,,,-0.417070957,-0.401212565,1,0,0,1.4593,Obsidian_rect,0,0,0,0,1,
65cba317504938f6ca5272f5,SCR,2024-06-11_13h11.08.159,LearnStrategy,2023.2.3,MacIntel,56.81818182,7,2,2,,,,,,,,3,08,,,,,,,,,,,,,3,1.059,1,,,,,,0.172971327,-0.25117886,1,0,0,1.0589,Diorite_rect,1,0,1,0,1,
65cba317504938f6ca5272f5,SCR,2024-06-11_13h11.08.159,LearnStrategy,2023.2.3,MacIntel,56.81818182,7,2,3,,,,,,,,3,06,,,,,,,,,,,,,3,1.468,1,,,,,,0.125966797,-0.253364733,1,0,0,1.4676,Diorite_rect,2,0,2,0,1,
65cba317504938f6ca5272f5,SCR,2024-06-11_13h11.08.159,LearnStrategy,2023.2.3,MacIntel,56.81818182,7,2,4,,,,,,,,2,06,,,,,,,,,,,,,2,1.812,1,,,,,,-0.161494615,-0.26142612,1,0,0,1.8116,Basalt_rect,3,0,3,0,1,
65cba317504938f6ca5272f5,SCR,2024-06-11_13h11.08.159,LearnStrategy,2023.2.3,MacIntel,56.81818182,7,2,5,,,,,,,,4,10,,,,,,,,,,,,,2,1.575,0,,,,,,-0.161494615,-0.261981676,1,0,0,1.5754,Basalt_rect,4,0,4,0,1,
65cba317504938f6ca5272f5,SCR,2024-06-11_13h11.08.159,LearnStrategy,2023.2.3,MacIntel,56.81818182,7,2,6,,,,,,,,6,03,,,,,,,,,,,,,7,1.25,0,,,,,,0.086827664,-0.415008952,1,0,0,1.2504,Peridotite_rect,5,0,5,0,1,
65cba317504938f6ca5272f5,SCR,2024-06-11_13h11.08.159,LearnStrategy,2023.2.3,MacIntel,56.81818182,7,2,7,,,,,,,,7,08,,,,,,,,,,,,,7,1.083,1,,,,,,0.086487901,-0.395590346,1,0,0,1.0831,Peridotite_rect,6,0,6,0,1,
65cba317504938f6ca5272f5,SCR,2024-06-11_13h11.08.159,LearnStrategy,2023.2.3,MacIntel,56.81818182,7,2,8,,,,,,,,7,12,,,,,,,,,,,,,7,1.593,1,,,,,,0.08675944,-0.393152737,1,0,0,1.5931,Peridotite_rect,7,0,7,0,1,
65cba317504938f6ca5272f5,SCR,2024-06-11_13h11.08.159,LearnStrategy,2023.2.3,MacIntel,56.81818182,7,2,9,,,,,,,,4,05,,,,,,,,,,,,,1,7,0,,,,,,-0.373961792,-0.244721951,1,0,0,7.0002,Andesite_rect,8,0,8,0,1,
65cba317504938f6ca5272f5,SCR,2024-06-11_13h11.08.159,LearnStrategy,2023.2.3,MacIntel,56.81818182,7,2,10,,,,,,,,1,16,,,,,,,,,,,,,1,2.633,1,,,,,,-0.380959269,-0.246792603,1,0,0,2.6331,Andesite_rect,9,0,9,0,1,
65cba317504938f6ca5272f5,SCR,2024-06-11_13h11.08.159,LearnStrategy,2023.2.3,MacIntel,56.81818182,7,2,11,,,,,,,,1,02,,,,,,,,,,,,,4,2.972,0,,,,,,0.359030219,-0.254726562,1,0,0,2.9723,Gabbro_rect,10,0,10,0,1,
65cba317504938f6ca5272f5,SCR,2024-06-11_13h11.08.159,LearnStrategy,2023.2.3,MacIntel,56.81818182,7,2,12,,,,,,,,8,09,,,,,,,,,,,,,8,1.12,1,,,,,,0.372035455,-0.386612074,1,0,0,1.1202,Pumice_rect,11,0,11,0,1,
65cba317504938f6ca5272f5,SCR,2024-06-11_13h11.08.159,LearnStrategy,2023.2.3,MacIntel,56.81818182,7,2,13,,,,,,,,5,04,,,,,,,,,,,,,5,1.293,1,,,,,,-0.357453003,-0.395137736,1,0,0,1.2932,Obsidian_rect,12,0,12,0,1,
65cba317504938f6ca5272f5,SCR,2024-06-11_13h11.08.159,LearnStrategy,2023.2.3,MacIntel,56.81818182,7,2,14,,,,,,,,2,14,,,,,,,,,,,,,2,2.402,1,,,,,,-0.112678087,-0.260353665,1,0,0,2.4018,Basalt_rect,13,0,13,0,1,
65cba317504938f6ca5272f5,SCR,2024-06-11_13h11.08.159,LearnStrategy,2023.2.3,MacIntel,56.81818182,7,2,15,,,,,,,,8,04,,,,,,,,,,,,,8,1.077,1,,,,,,0.322746039,-0.404404229,1,0,0,1.0766,Pumice_rect,14,0,14,0,1,
65cba317504938f6ca5272f5,SCR,2024-06-11_13h11.08.159,LearnStrategy,2023.2.3,MacIntel,56.81818182,7,2,16,,,,,,,,6,10,,,,,,,,,,,,,7,1.011,0,,,,,,0.153929104,-0.410106405,1,0,0,1.0114,Peridotite_rect,15,0,15,0,1,
65cba317504938f6ca5272f5,SCR,2024-06-11_13h11.08.159,LearnStrategy,2023.2.3,MacIntel,56.81818182,8,1,1,0.381029188,-0.395343628,1,0,0,1.1911,Gabbro_11,4,11,1,7,1.191,4,11,-0.129775933,-0.231570231,1,0,0,0.782,Basalt_rect,2,0.782,0,0,0,0,0,1,,,,,,,,,,,,,
65cba317504938f6ca5272f5,SCR,2024-06-11_13h11.08.159,LearnStrategy,2023.2.3,MacIntel,56.81818182,8,1,2,-0.55060891,-0.09007609,1,0,0,1.0897,Basalt_11,2,11,3,1,1.09,2,11,-0.156440837,-0.256784736,1,0,0,0.7155,Basalt_rect,2,0.716,1,1,0,1,0,1,,,,,,,,,,,,,
65cba317504938f6ca5272f5,SCR,2024-06-11_13h11.08.159,LearnStrategy,2023.2.3,MacIntel,56.81818182,8,1,3,0.374218343,-0.381844415,1,0,0,0.9379,Gabbro_11,4,11,1,7,0.938,4,11,0.360997179,-0.256866455,1,0,0,2.1934,Gabbro_rect,4,2.193,1,2,0,2,0,1,,,,,,,,,,,,,
65cba317504938f6ca5272f5,SCR,2024-06-11_13h11.08.159,LearnStrategy,2023.2.3,MacIntel,56.81818182,8,1,4,0.356336806,0.215861426,1,0,0,1.274,Andesite_11,1,11,5,7,1.274,1,11,-0.383570828,-0.249901259,1,0,0,1.1562,Andesite_rect,1,1.156,1,3,0,3,0,1,,,,,,,,,,,,,
65cba317504938f6ca5272f5,SCR,2024-06-11_13h11.08.159,LearnStrategy,2023.2.3,MacIntel,56.81818182,8,1,5,-0.211425578,0.080275133,1,0,0,0.7875,Andesite_06,1,06,4,3,0.788,1,06,-0.340765991,-0.238532172,1,0,0,1.5903,Andesite_rect,1,1.59,1,4,0,4,0,1,,,,,,,,,,,,,
65cba317504938f6ca5272f5,SCR,2024-06-11_13h11.08.159,LearnStrategy,2023.2.3,MacIntel,56.81818182,8,1,6,0.206489258,0.38687773,1,0,0,2.3731,Basalt_02,2,02,6,6,2.373,2,02,-0.14104404,-0.239429118,1,0,0,1.4414,Basalt_rect,2,1.441,1,5,0,5,0,1,,,,,,,,,,,,,
65cba317504938f6ca5272f5,SCR,2024-06-11_13h11.08.159,LearnStrategy,2023.2.3,MacIntel,56.81818182,8,1,7,-0.542108544,0.232625241,1,0,0,1.1182,Gabbro_14,4,14,5,1,1.118,4,14,0.372539876,-0.264183485,1,0,0,2.2175,Gabbro_rect,4,2.217,1,6,0,6,0,1,,,,,,,,,,,,,
65cba317504938f6ca5272f5,SCR,2024-06-11_13h11.08.159,LearnStrategy,2023.2.3,MacIntel,56.81818182,8,1,8,0.100162354,0.242070736,1,0,0,0.8919,Andesite_01,1,01,5,5,0.892,1,01,-0.335424567,-0.269795193,1,0,0,2.1299,Andesite_rect,1,2.13,1,7,0,7,0,1,,,,,,,,,,,,,
65cba317504938f6ca5272f5,SCR,2024-06-11_13h11.08.159,LearnStrategy,2023.2.3,MacIntel,56.81818182,8,1,9,-0.567148421,-0.399157037,1,0,0,1.6576,Diorite_09,3,09,1,1,1.658,3,09,0.082795546,-0.243111708,1,0,0,0.8046,Diorite_rect,3,0.805,1,8,0,8,0,1,,,,,,,,,,,,,
65cba317504938f6ca5272f5,SCR,2024-06-11_13h11.08.159,LearnStrategy,2023.2.3,MacIntel,56.81818182,8,1,10,-0.041838854,-0.227684123,1,0,0,0.9449,Pegmatite_16,6,16,2,4,0.945,6,16,-0.145092231,-0.411187609,1,0,0,0.8765,Pegmatite_rect,6,0.876,1,9,0,9,0,1,,,,,,,,,,,,,
65cba317504938f6ca5272f5,SCR,2024-06-11_13h11.08.159,LearnStrategy,2023.2.3,MacIntel,56.81818182,8,1,11,0.198293118,0.062835897,1,0,0,0.9661,Pegmatite_09,6,09,4,6,0.966,6,09,0.079359402,-0.417086317,1,0,0,0.8473,Peridotite_rect,7,0.847,0,10,0,10,0,1,,,,,,,,,,,,,
65cba317504938f6ca5272f5,SCR,2024-06-11_13h11.08.159,LearnStrategy,2023.2.3,MacIntel,56.81818182,8,1,12,0.25890313,0.046700134,1,0,0,2.123,Pegmatite_09,6,09,4,6,2.123,6,05,-0.140639242,-0.401876221,1,0,0,2.5329,Pegmatite_rect,6,2.533,1,11,0,11,0,1,,,,,,,,,,,,,
65cba317504938f6ca5272f5,SCR,2024-06-11_13h11.08.159,LearnStrategy,2023.2.3,MacIntel,56.81818182,8,1,13,-0.224054091,0.380583581,1,0,0,1.0918,Pegmatite_07,6,07,6,3,1.092,6,07,-0.142284071,-0.407891168,1,0,0,1.0979,Pegmatite_rect,6,1.098,1,12,0,12,0,1,,,,,,,,,,,,,
65cba317504938f6ca5272f5,SCR,2024-06-11_13h11.08.159,LearnStrategy,2023.2.3,MacIntel,56.81818182,8,1,14,0.198634779,0.241929728,1,0,0,1.0402,Peridotite_06,7,06,5,6,1.04,7,06,0.078538954,-0.38991272,1,0,0,0.9928,Peridotite_rect,7,0.993,1,13,0,13,0,1,,,,,,,,,,,,,
65cba317504938f6ca5272f5,SCR,2024-06-11_13h11.08.159,LearnStrategy,2023.2.3,MacIntel,56.81818182,8,1,15,0.419002414,-0.401091987,1,0,0,1.1799,Gabbro_11,4,11,1,7,1.18,4,11,0.324294027,-0.264234958,1,0,0,1.5847,Gabbro_rect,4,1.585,1,14,0,14,0,1,,,,,,,,,,,,,
65cba317504938f6ca5272f5,SCR,2024-06-11_13h11.08.159,LearnStrategy,2023.2.3,MacIntel,56.81818182,8,1,16,0.247899306,0.232218424,1,0,0,0.9956,Peridotite_06,7,06,5,6,0.996,7,06,0.117257148,-0.408851047,1,0,0,1.4306,Peridotite_rect,7,1.431,1,15,0,15,0,1,,,,,,,,,,,,,
65cba317504938f6ca5272f5,SCR,2024-06-11_13h11.08.159,LearnStrategy,2023.2.3,MacIntel,56.81818182,8,2,1,,,,,,,,4,13,,,,,,,,,,,,,4,3.278,1,,,,,,0.338780924,-0.248785129,1,0,0,3.2784,Gabbro_rect,0,0,0,0,1,
65cba317504938f6ca5272f5,SCR,2024-06-11_13h11.08.159,LearnStrategy,2023.2.3,MacIntel,56.81818182,8,2,2,,,,,,,,7,04,,,,,,,,,,,,,6,2.78,0,,,,,,-0.113565674,-0.393735352,1,0,0,2.7803,Pegmatite_rect,1,0,1,0,1,
65cba317504938f6ca5272f5,SCR,2024-06-11_13h11.08.159,LearnStrategy,2023.2.3,MacIntel,56.81818182,8,2,3,,,,,,,,2,12,,,,,,,,,,,,,4,4.849,0,,,,,,0.367815891,-0.252029215,1,0,0,4.8489,Gabbro_rect,2,0,2,0,1,
65cba317504938f6ca5272f5,SCR,2024-06-11_13h11.08.159,LearnStrategy,2023.2.3,MacIntel,56.81818182,8,2,4,,,,,,,,1,03,,,,,,,,,,,,,1,4.166,1,,,,,,-0.369233568,-0.243502197,1,0,0,4.1656,Andesite_rect,3,0,3,0,1,
65cba317504938f6ca5272f5,SCR,2024-06-11_13h11.08.159,LearnStrategy,2023.2.3,MacIntel,56.81818182,8,2,5,,,,,,,,4,03,,,,,,,,,,,,,1,2.769,0,,,,,,-0.422387017,-0.258686388,1,0,0,2.769,Andesite_rect,4,0,4,0,1,
65cba317504938f6ca5272f5,SCR,2024-06-11_13h11.08.159,LearnStrategy,2023.2.3,MacIntel,56.81818182,8,2,6,,,,,,,,8,14,,,,,,,,,,,,,8,1.913,1,,,,,,0.354073079,-0.414944051,1,0,0,1.9126,Pumice_rect,5,0,5,0,1,
65cba317504938f6ca5272f5,SCR,2024-06-11_13h11.08.159,LearnStrategy,2023.2.3,MacIntel,56.81818182,8,2,7,,,,,,,,5,06,,,,,,,,,,,,,5,1.485,1,,,,,,-0.355756395,-0.413210381,1,0,0,1.4854,Obsidian_rect,6,0,6,0,1,
65cba317504938f6ca5272f5,SCR,2024-06-11_13h11.08.159,LearnStrategy,2023.2.3,MacIntel,56.81818182,8,2,8,,,,,,,,3,16,,,,,,,,,,,,,3,1.293,1,,,,,,0.169848226,-0.240080499,1,0,0,1.2935,Diorite_rect,7,0,7,0,1,
65cba317504938f6ca5272f5,SCR,2024-06-11_13h11.08.159,LearnStrategy,2023.2.3,MacIntel,56.81818182,8,2,9,,,,,,,,8,05,,,,,,,,,,,,,8,1.166,1,,,,,,0.357318658,-0.379453057,1,0,0,1.166,Pumice_rect,8,0,8,0,1,
65cba317504938f6ca5272f5,SCR,2024-06-11_13h11.08.159,LearnStrategy,2023.2.3,MacIntel,56.81818182,8,2,10,,,,,,,,7,07,,,,,,,,,,,,,7,1.403,1,,,,,,0.119210409,-0.390302667,1,0,0,1.4027,Peridotite_rect,9,0,9,0,1,
65cba317504938f6ca5272f5,SCR,2024-06-11_13h11.08.159,LearnStrategy,2023.2.3,MacIntel,56.81818182,8,2,11,,,,,,,,6,06,,,,,,,,,,,,,6,1.551,1,,,,,,-0.092339206,-0.418583645,1,0,0,1.5513,Pegmatite_rect,10,0,10,0,1,
65cba317504938f6ca5272f5,SCR,2024-06-11_13h11.08.159,LearnStrategy,2023.2.3,MacIntel,56.81818182,8,2,12,,,,,,,,6,13,,,,,,,,,,,,,6,1.671,1,,,,,,-0.091545817,-0.417273695,1,0,0,1.6709,Pegmatite_rect,11,0,11,0,1,
65cba317504938f6ca5272f5,SCR,2024-06-11_13h11.08.159,LearnStrategy,2023.2.3,MacIntel,56.81818182,8,2,13,,,,,,,,1,14,,,,,,,,,,,,,1,1.571,1,,,,,,-0.375971748,-0.247547065,1,0,0,1.5706,Andesite_rect,12,0,12,0,1,
65cba317504938f6ca5272f5,SCR,2024-06-11_13h11.08.159,LearnStrategy,2023.2.3,MacIntel,56.81818182,8,2,14,,,,,,,,5,08,,,,,,,,,,,,,5,1.086,1,,,,,,-0.341171739,-0.4011183,1,0,0,1.0863,Obsidian_rect,13,0,13,0,1,
65cba317504938f6ca5272f5,SCR,2024-06-11_13h11.08.159,LearnStrategy,2023.2.3,MacIntel,56.81818182,8,2,15,,,,,,,,3,15,,,,,,,,,,,,,3,1.262,1,,,,,,0.170929701,-0.254954834,1,0,0,1.2619,Diorite_rect,14,0,14,0,1,
65cba317504938f6ca5272f5,SCR,2024-06-11_13h11.08.159,LearnStrategy,2023.2.3,MacIntel,56.81818182,8,2,16,,,,,,,,2,08,,,,,,,,,,,,,2,1.034,1,,,,,,-0.134795532,-0.232147488,1,0,0,1.0345,Basalt_rect,15,0,15,0,1,
65cba317504938f6ca5272f5,SCR,2024-06-11_13h11.08.159,LearnStrategy,2023.2.3,MacIntel,56.81818182,9,1,1,0.204292128,0.115786065,1,0,0,0.8651,Pegmatite_09,6,09,4,6,0.865,6,09,0.087886692,-0.396632351,1,0,0,1.332,Peridotite_rect,7,1.332,0,0,0,0,0,1,,,,,,,,,,,,,
65cba317504938f6ca5272f5,SCR,2024-06-11_13h11.08.159,LearnStrategy,2023.2.3,MacIntel,56.81818182,9,1,2,0.499235569,-0.371629367,1,0,0,1.0158,Peridotite_16,7,16,1,8,1.016,7,16,0.134089898,-0.403770209,1,0,0,1.3953,Peridotite_rect,7,1.395,1,1,0,1,0,1,,,,,,,,,,,,,
65cba317504938f6ca5272f5,SCR,2024-06-11_13h11.08.159,LearnStrategy,2023.2.3,MacIntel,56.81818182,9,1,3,-0.248340997,0.412231157,1,0,0,1.2481,Pegmatite_07,6,07,6,3,1.248,6,07,-0.125306396,-0.393335639,1,0,0,1.0442,Pegmatite_rect,6,1.044,1,2,0,2,0,1,,,,,,,,,,,,,
65cba317504938f6ca5272f5,SCR,2024-06-11_13h11.08.159,LearnStrategy,2023.2.3,MacIntel,56.81818182,9,1,4,0.386711561,-0.380505778,1,0,0,2.2128,Gabbro_11,4,11,1,7,2.213,4,11,-0.191504313,-0.246719564,1,0,0,1.1126,Basalt_rect,2,1.113,0,3,0,3,0,1,,,,,,,,,,,,,
65cba317504938f6ca5272f5,SCR,2024-06-11_13h11.08.159,LearnStrategy,2023.2.3,MacIntel,56.81818182,9,1,5,-0.597324778,0.421199409,1,0,0,1.4291,Basalt_05,2,05,6,1,1.429,2,05,-0.16528673,-0.239121636,1,0,0,0.6808,Basalt_rect,2,0.681,1,4,0,4,0,1,,,,,,,,,,,,,
65cba317504938f6ca5272f5,SCR,2024-06-11_13h11.08.159,LearnStrategy,2023.2.3,MacIntel,56.81818182,9,1,6,0.514965549,0.122589145,1,0,0,1.0711,Pumice_15,8,15,4,8,1.071,8,15,0.367999268,-0.380456068,1,0,0,1.508,Pumice_rect,8,1.508,1,5,0,5,0,1,,,,,,,,,,,,,
65cba317504938f6ca5272f5,SCR,2024-06-11_13h11.08.159,LearnStrategy,2023.2.3,MacIntel,56.81818182,9,1,7,0.219130995,-0.393838094,1,0,0,0.9974,Pegmatite_15,6,15,1,6,0.997,6,15,-0.130021023,-0.415452338,1,0,0,1.1003,Pegmatite_rect,6,1.1,1,6,0,6,0,1,,,,,,,,,,,,,
65cba317504938f6ca5272f5,SCR,2024-06-11_13h11.08.159,LearnStrategy,2023.2.3,MacIntel,56.81818182,9,1,8,-0.410241428,-0.434064399,1,0,0,1.2237,Obsidian_05,5,05,1,2,1.224,5,05,-0.366910739,-0.399759454,1,0,0,2.405,Obsidian_rect,5,2.405,1,7,0,7,0,1,,,,,,,,,,,,,
65cba317504938f6ca5272f5,SCR,2024-06-11_13h11.08.159,LearnStrategy,2023.2.3,MacIntel,56.81818182,9,1,9,0.089600152,0.217164629,1,0,0,1.2632,Andesite_01,1,01,5,5,1.263,1,01,-0.329554986,-0.233519355,1,0,0,1.6819,Andesite_rect,1,1.682,1,8,0,8,0,1,,,,,,,,,,,,,
65cba317504938f6ca5272f5,SCR,2024-06-11_13h11.08.159,LearnStrategy,2023.2.3,MacIntel,56.81818182,9,1,10,-0.575722487,0.250322927,1,0,0,0.9282,Gabbro_14,4,14,5,1,0.928,4,14,-0.403995361,-0.242746039,1,0,0,2.1907,Andesite_rect,1,2.191,0,9,0,9,0,1,,,,,,,,,,,,,
65cba317504938f6ca5272f5,SCR,2024-06-11_13h11.08.159,LearnStrategy,2023.2.3,MacIntel,56.81818182,9,1,11,-0.23235182,0.22189014,1,0,0,0.8688,Andesite_07,1,07,5,3,0.869,1,07,0.135531209,-0.261472846,1,0,0,0.8962,Diorite_rect,3,0.896,0,10,0,10,0,1,,,,,,,,,,,,,
65cba317504938f6ca5272f5,SCR,2024-06-11_13h11.08.159,LearnStrategy,2023.2.3,MacIntel,56.81818182,9,1,12,0.196705729,0.213589851,1,0,0,1.0597,Peridotite_06,7,06,5,6,1.06,7,06,0.090975342,-0.410869412,1,0,0,1.2467,Peridotite_rect,7,1.247,1,11,0,11,0,1,,,,,,,,,,,,,
65cba317504938f6ca5272f5,SCR,2024-06-11_13h11.08.159,LearnStrategy,2023.2.3,MacIntel,56.81818182,9,1,13,0.065466512,0.364408841,1,0,0,1.0633,Diorite_02,3,02,6,5,1.063,3,02,0.118041246,-0.260044217,1,0,0,1.2461,Diorite_rect,3,1.246,1,12,0,12,0,1,,,,,,,,,,,,,
65cba317504938f6ca5272f5,SCR,2024-06-11_13h11.08.159,LearnStrategy,2023.2.3,MacIntel,56.81818182,9,1,14,-0.502513835,0.2937854,1,0,0,0.9457,Gabbro_14,4,14,5,1,0.946,4,14,0.379844971,-0.246845907,1,0,0,2.5959,Gabbro_rect,4,2.596,1,13,0,13,0,1,,,,,,,,,,,,,
65cba317504938f6ca5272f5,SCR,2024-06-11_13h11.08.159,LearnStrategy,2023.2.3,MacIntel,56.81818182,9,1,15,-0.544257355,-0.116347588,1,0,0,1.0638,Basalt_11,2,11,3,1,1.064,2,11,-0.151315104,-0.258240492,1,0,0,1.544,Basalt_rect,2,1.544,1,14,0,14,0,1,,,,,,,,,,,,,
65cba317504938f6ca5272f5,SCR,2024-06-11_13h11.08.159,LearnStrategy,2023.2.3,MacIntel,56.81818182,9,1,16,0.385720893,0.377224579,1,0,0,1.2653,Gabbro_08,4,08,6,7,1.265,4,08,-0.140000407,-0.229635078,1,0,0,0.9911,Basalt_rect,2,0.991,0,15,0,15,0,1,,,,,,,,,,,,,
65cba317504938f6ca5272f5,SCR,2024-06-11_13h11.08.159,LearnStrategy,2023.2.3,MacIntel,56.81818182,9,2,1,,,,,,,,1,09,,,,,,,,,,,,,2,1.853,0,,,,,,-0.113101603,-0.254118381,1,0,0,1.8527,Basalt_rect,0,0,0,0,1,
65cba317504938f6ca5272f5,SCR,2024-06-11_13h11.08.159,LearnStrategy,2023.2.3,MacIntel,56.81818182,9,2,2,,,,,,,,2,04,,,,,,,,,,,,,2,1.713,1,,,,,,-0.084152696,-0.243597819,1,0,0,1.7129,Basalt_rect,1,0,1,0,1,
65cba317504938f6ca5272f5,SCR,2024-06-11_13h11.08.159,LearnStrategy,2023.2.3,MacIntel,56.81818182,9,2,3,,,,,,,,3,12,,,,,,,,,,,,,3,1.322,1,,,,,,0.10481052,-0.246998698,1,0,0,1.3218,Diorite_rect,2,0,2,0,1,
65cba317504938f6ca5272f5,SCR,2024-06-11_13h11.08.159,LearnStrategy,2023.2.3,MacIntel,56.81818182,9,2,4,,,,,,,,4,16,,,,,,,,,,,,,4,1.974,1,,,,,,0.407443305,-0.246121623,1,0,0,1.9738,Gabbro_rect,3,0,3,0,1,
65cba317504938f6ca5272f5,SCR,2024-06-11_13h11.08.159,LearnStrategy,2023.2.3,MacIntel,56.81818182,9,2,5,,,,,,,,8,08,,,,,,,,,,,,,8,1.06,1,,,,,,0.337638957,-0.397347751,1,0,0,1.0604,Pumice_rect,4,0,4,0,1,
65cba317504938f6ca5272f5,SCR,2024-06-11_13h11.08.159,LearnStrategy,2023.2.3,MacIntel,56.81818182,9,2,6,,,,,,,,5,09,,,,,,,,,,,,,5,1.007,1,,,,,,-0.347805006,-0.410804443,1,0,0,1.0067,Obsidian_rect,5,0,5,0,1,
65cba317504938f6ca5272f5,SCR,2024-06-11_13h11.08.159,LearnStrategy,2023.2.3,MacIntel,56.81818182,9,2,7,,,,,,,,8,06,,,,,,,,,,,,,8,0.999,1,,,,,,0.413685438,-0.420681491,1,0,0,0.9987,Pumice_rect,6,0,6,0,1,
65cba317504938f6ca5272f5,SCR,2024-06-11_13h11.08.159,LearnStrategy,2023.2.3,MacIntel,56.81818182,9,2,8,,,,,,,,5,10,,,,,,,,,,,,,5,0.988,1,,,,,,-0.41485867,-0.387615628,1,0,0,0.9875,Obsidian_rect,7,0,7,0,1,
65cba317504938f6ca5272f5,SCR,2024-06-11_13h11.08.159,LearnStrategy,2023.2.3,MacIntel,56.81818182,9,2,9,,,,,,,,6,08,,,,,,,,,,,,,6,1.689,1,,,,,,-0.158953857,-0.389899631,1,0,0,1.6889,Pegmatite_rect,8,0,8,0,1,
65cba317504938f6ca5272f5,SCR,2024-06-11_13h11.08.159,LearnStrategy,2023.2.3,MacIntel,56.81818182,9,2,10,,,,,,,,2,10,,,,,,,,,,,,,4,1.646,0,,,,,,0.376180691,-0.249032932,1,0,0,1.646,Gabbro_rect,9,0,9,0,1,
65cba317504938f6ca5272f5,SCR,2024-06-11_13h11.08.159,LearnStrategy,2023.2.3,MacIntel,56.81818182,9,2,11,,,,,,,,7,13,,,,,,,,,,,,,7,1.1,1,,,,,,0.167629598,-0.412117716,1,0,0,1.0997,Peridotite_rect,10,0,10,0,1,
65cba317504938f6ca5272f5,SCR,2024-06-11_13h11.08.159,LearnStrategy,2023.2.3,MacIntel,56.81818182,9,2,12,,,,,,,,7,02,,,,,,,,,,,,,7,1.287,1,,,,,,0.168185154,-0.411006605,1,0,0,1.2867,Peridotite_rect,11,0,11,0,1,
65cba317504938f6ca5272f5,SCR,2024-06-11_13h11.08.159,LearnStrategy,2023.2.3,MacIntel,56.81818182,9,2,13,,,,,,,,1,05,,,,,,,,,,,,,7,2.11,0,,,,,,0.113294,-0.411815389,1,0,0,2.1095,Peridotite_rect,12,0,12,0,1,
65cba317504938f6ca5272f5,SCR,2024-06-11_13h11.08.159,LearnStrategy,2023.2.3,MacIntel,56.81818182,9,2,14,,,,,,,,3,13,,,,,,,,,,,,,3,2.449,1,,,,,,0.169223972,-0.243209229,1,0,0,2.4487,Diorite_rect,13,0,13,0,1,
65cba317504938f6ca5272f5,SCR,2024-06-11_13h11.08.159,LearnStrategy,2023.2.3,MacIntel,56.81818182,9,2,15,,,,,,,,6,12,,,,,,,,,,,,,1,1.655,0,,,,,,-0.321330431,-0.240527886,1,0,0,1.6547,Andesite_rect,14,0,14,0,1,
65cba317504938f6ca5272f5,SCR,2024-06-11_13h11.08.159,LearnStrategy,2023.2.3,MacIntel,56.81818182,9,2,16,,,,,,,,4,15,,,,,,,,,,,,,1,2.236,0,,,,,,-0.409404975,-0.239078234,1,0,0,2.2361,Andesite_rect,15,0,15,0,1,
65cba317504938f6ca5272f5,SCR,2024-06-11_13h11.08.159,LearnStrategy,2023.2.3,MacIntel,56.81818182,,,,,,,,,,,,,,,,,,,,,,,,,,,,,,,,,,,,,,,,,,,,,1
65cba317504938f6ca5272f5,SCR,2024-06-11_13h11.08.159,LearnStrategy,2023.2.3,MacIntel,56.81818182,,,,,,,,,,,,,,,,,,,,,,,,,,,,,,,,,,,,,,,,,,,,,
65cba317504938f6ca5272f5,SCR,2024-06-11_13h11.08.159,LearnStrategy,2023.2.3,MacIntel,56.81818182,,,,,,,,,,,3,09,1,1,,,,,,,,,,,,,,,,,,,,,,,,,,,,,,,
65cba317504938f6ca5272f5,SCR,2024-06-11_13h11.08.159,LearnStrategy,2023.2.3,MacIntel,56.81818182,,,,,,,,,,,5,05,1,2,,,,,,,,,,,,,,,,,,,,,,,,,,,,,,,
65cba317504938f6ca5272f5,SCR,2024-06-11_13h11.08.159,LearnStrategy,2023.2.3,MacIntel,56.81818182,,,,,,,,,,,2,01,1,3,,,,,,,,,,,,,,,,,,,,,,,,,,,,,,,
65cba317504938f6ca5272f5,SCR,2024-06-11_13h11.08.159,LearnStrategy,2023.2.3,MacIntel,56.81818182,,,,,,,,,,,7,10,1,4,,,,,,,,,,,,,,,,,,,,,,,,,,,,,,,
65cba317504938f6ca5272f5,SCR,2024-06-11_13h11.08.159,LearnStrategy,2023.2.3,MacIntel,56.81818182,,,,,,,,,,,5,12,1,5,,,,,,,,,,,,,,,,,,,,,,,,,,,,,,,
65cba317504938f6ca5272f5,SCR,2024-06-11_13h11.08.159,LearnStrategy,2023.2.3,MacIntel,56.81818182,,,,,,,,,,,6,15,1,6,,,,,,,,,,,,,,,,,,,,,,,,,,,,,,,
65cba317504938f6ca5272f5,SCR,2024-06-11_13h11.08.159,LearnStrategy,2023.2.3,MacIntel,56.81818182,,,,,,,,,,,4,11,1,7,,,,,,,,,,,,,,,,,,,,,,,,,,,,,,,
65cba317504938f6ca5272f5,SCR,2024-06-11_13h11.08.159,LearnStrategy,2023.2.3,MacIntel,56.81818182,,,,,,,,,,,7,16,1,8,,,,,,,,,,,,,,,,,,,,,,,,,,,,,,,
65cba317504938f6ca5272f5,SCR,2024-06-11_13h11.08.159,LearnStrategy,2023.2.3,MacIntel,56.81818182,,,,,,,,,,,5,16,2,1,,,,,,,,,,,,,,,,,,,,,,,,,,,,,,,
65cba317504938f6ca5272f5,SCR,2024-06-11_13h11.08.159,LearnStrategy,2023.2.3,MacIntel,56.81818182,,,,,,,,,,,4,09,2,2,,,,,,,,,,,,,,,,,,,,,,,,,,,,,,,
65cba317504938f6ca5272f5,SCR,2024-06-11_13h11.08.159,LearnStrategy,2023.2.3,MacIntel,56.81818182,,,,,,,,,,,8,13,2,3,,,,,,,,,,,,,,,,,,,,,,,,,,,,,,,
65cba317504938f6ca5272f5,SCR,2024-06-11_13h11.08.159,LearnStrategy,2023.2.3,MacIntel,56.81818182,,,,,,,,,,,6,16,2,4,,,,,,,,,,,,,,,,,,,,,,,,,,,,,,,
65cba317504938f6ca5272f5,SCR,2024-06-11_13h11.08.159,LearnStrategy,2023.2.3,MacIntel,56.81818182,,,,,,,,,,,5,07,2,5,,,,,,,,,,,,,,,,,,,,,,,,,,,,,,,
65cba317504938f6ca5272f5,SCR,2024-06-11_13h11.08.159,LearnStrategy,2023.2.3,MacIntel,56.81818182,,,,,,,,,,,7,14,2,6,,,,,,,,,,,,,,,,,,,,,,,,,,,,,,,
65cba317504938f6ca5272f5,SCR,2024-06-11_13h11.08.159,LearnStrategy,2023.2.3,MacIntel,56.81818182,,,,,,,,,,,8,03,2,7,,,,,,,,,,,,,,,,,,,,,,,,,,,,,,,
65cba317504938f6ca5272f5,SCR,2024-06-11_13h11.08.159,LearnStrategy,2023.2.3,MacIntel,56.81818182,,,,,,,,,,,8,02,2,8,,,,,,,,,,,,,,,,,,,,,,,,,,,,,,,
65cba317504938f6ca5272f5,SCR,2024-06-11_13h11.08.159,LearnStrategy,2023.2.3,MacIntel,56.81818182,,,,,,,,,,,2,11,3,1,,,,,,,,,,,,,,,,,,,,,,,,,,,,,,,
65cba317504938f6ca5272f5,SCR,2024-06-11_13h11.08.159,LearnStrategy,2023.2.3,MacIntel,56.81818182,,,,,,,,,,,5,14,3,2,,,,,,,,,,,,,,,,,,,,,,,,,,,,,,,
65cba317504938f6ca5272f5,SCR,2024-06-11_13h11.08.159,LearnStrategy,2023.2.3,MacIntel,56.81818182,,,,,,,,,,,7,05,3,3,,,,,,,,,,,,,,,,,,,,,,,,,,,,,,,
65cba317504938f6ca5272f5,SCR,2024-06-11_13h11.08.159,LearnStrategy,2023.2.3,MacIntel,56.81818182,,,,,,,,,,,3,07,3,4,,,,,,,,,,,,,,,,,,,,,,,,,,,,,,,
65cba317504938f6ca5272f5,SCR,2024-06-11_13h11.08.159,LearnStrategy,2023.2.3,MacIntel,56.81818182,,,,,,,,,,,7,15,3,5,,,,,,,,,,,,,,,,,,,,,,,,,,,,,,,
65cba317504938f6ca5272f5,SCR,2024-06-11_13h11.08.159,LearnStrategy,2023.2.3,MacIntel,56.81818182,,,,,,,,,,,3,10,3,6,,,,,,,,,,,,,,,,,,,,,,,,,,,,,,,
65cba317504938f6ca5272f5,SCR,2024-06-11_13h11.08.159,LearnStrategy,2023.2.3,MacIntel,56.81818182,,,,,,,,,,,8,16,3,7,,,,,,,,,,,,,,,,,,,,,,,,,,,,,,,
65cba317504938f6ca5272f5,SCR,2024-06-11_13h11.08.159,LearnStrategy,2023.2.3,MacIntel,56.81818182,,,,,,,,,,,6,05,3,8,,,,,,,,,,,,,,,,,,,,,,,,,,,,,,,
65cba317504938f6ca5272f5,SCR,2024-06-11_13h11.08.159,LearnStrategy,2023.2.3,MacIntel,56.81818182,,,,,,,,,,,2,16,4,1,,,,,,,,,,,,,,,,,,,,,,,,,,,,,,,
65cba317504938f6ca5272f5,SCR,2024-06-11_13h11.08.159,LearnStrategy,2023.2.3,MacIntel,56.81818182,,,,,,,,,,,1,10,4,2,,,,,,,,,,,,,,,,,,,,,,,,,,,,,,,
65cba317504938f6ca5272f5,SCR,2024-06-11_13h11.08.159,LearnStrategy,2023.2.3,MacIntel,56.81818182,,,,,,,,,,,1,06,4,3,,,,,,,,,,,,,,,,,,,,,,,,,,,,,,,
65cba317504938f6ca5272f5,SCR,2024-06-11_13h11.08.159,LearnStrategy,2023.2.3,MacIntel,56.81818182,,,,,,,,,,,6,11,4,4,,,,,,,,,,,,,,,,,,,,,,,,,,,,,,,
65cba317504938f6ca5272f5,SCR,2024-06-11_13h11.08.159,LearnStrategy,2023.2.3,MacIntel,56.81818182,,,,,,,,,,,2,09,4,5,,,,,,,,,,,,,,,,,,,,,,,,,,,,,,,
65cba317504938f6ca5272f5,SCR,2024-06-11_13h11.08.159,LearnStrategy,2023.2.3,MacIntel,56.81818182,,,,,,,,,,,6,09,4,6,,,,,,,,,,,,,,,,,,,,,,,,,,,,,,,
65cba317504938f6ca5272f5,SCR,2024-06-11_13h11.08.159,LearnStrategy,2023.2.3,MacIntel,56.81818182,,,,,,,,,,,3,14,4,7,,,,,,,,,,,,,,,,,,,,,,,,,,,,,,,
65cba317504938f6ca5272f5,SCR,2024-06-11_13h11.08.159,LearnStrategy,2023.2.3,MacIntel,56.81818182,,,,,,,,,,,8,15,4,8,,,,,,,,,,,,,,,,,,,,,,,,,,,,,,,
65cba317504938f6ca5272f5,SCR,2024-06-11_13h11.08.159,LearnStrategy,2023.2.3,MacIntel,56.81818182,,,,,,,,,,,4,14,5,1,,,,,,,,,,,,,,,,,,,,,,,,,,,,,,,
65cba317504938f6ca5272f5,SCR,2024-06-11_13h11.08.159,LearnStrategy,2023.2.3,MacIntel,56.81818182,,,,,,,,,,,4,01,5,2,,,,,,,,,,,,,,,,,,,,,,,,,,,,,,,
65cba317504938f6ca5272f5,SCR,2024-06-11_13h11.08.159,LearnStrategy,2023.2.3,MacIntel,56.81818182,,,,,,,,,,,1,07,5,3,,,,,,,,,,,,,,,,,,,,,,,,,,,,,,,
65cba317504938f6ca5272f5,SCR,2024-06-11_13h11.08.159,LearnStrategy,2023.2.3,MacIntel,56.81818182,,,,,,,,,,,4,12,5,4,,,,,,,,,,,,,,,,,,,,,,,,,,,,,,,
65cba317504938f6ca5272f5,SCR,2024-06-11_13h11.08.159,LearnStrategy,2023.2.3,MacIntel,56.81818182,,,,,,,,,,,1,01,5,5,,,,,,,,,,,,,,,,,,,,,,,,,,,,,,,
65cba317504938f6ca5272f5,SCR,2024-06-11_13h11.08.159,LearnStrategy,2023.2.3,MacIntel,56.81818182,,,,,,,,,,,7,06,5,6,,,,,,,,,,,,,,,,,,,,,,,,,,,,,,,
65cba317504938f6ca5272f5,SCR,2024-06-11_13h11.08.159,LearnStrategy,2023.2.3,MacIntel,56.81818182,,,,,,,,,,,1,11,5,7,,,,,,,,,,,,,,,,,,,,,,,,,,,,,,,
65cba317504938f6ca5272f5,SCR,2024-06-11_13h11.08.159,LearnStrategy,2023.2.3,MacIntel,56.81818182,,,,,,,,,,,1,04,5,8,,,,,,,,,,,,,,,,,,,,,,,,,,,,,,,
65cba317504938f6ca5272f5,SCR,2024-06-11_13h11.08.159,LearnStrategy,2023.2.3,MacIntel,56.81818182,,,,,,,,,,,2,05,6,1,,,,,,,,,,,,,,,,,,,,,,,,,,,,,,,
65cba317504938f6ca5272f5,SCR,2024-06-11_13h11.08.159,LearnStrategy,2023.2.3,MacIntel,56.81818182,,,,,,,,,,,8,10,6,2,,,,,,,,,,,,,,,,,,,,,,,,,,,,,,,
65cba317504938f6ca5272f5,SCR,2024-06-11_13h11.08.159,LearnStrategy,2023.2.3,MacIntel,56.81818182,,,,,,,,,,,6,07,6,3,,,,,,,,,,,,,,,,,,,,,,,,,,,,,,,
65cba317504938f6ca5272f5,SCR,2024-06-11_13h11.08.159,LearnStrategy,2023.2.3,MacIntel,56.81818182,,,,,,,,,,,5,02,6,4,,,,,,,,,,,,,,,,,,,,,,,,,,,,,,,
65cba317504938f6ca5272f5,SCR,2024-06-11_13h11.08.159,LearnStrategy,2023.2.3,MacIntel,56.81818182,,,,,,,,,,,3,02,6,5,,,,,,,,,,,,,,,,,,,,,,,,,,,,,,,
65cba317504938f6ca5272f5,SCR,2024-06-11_13h11.08.159,LearnStrategy,2023.2.3,MacIntel,56.81818182,,,,,,,,,,,2,02,6,6,,,,,,,,,,,,,,,,,,,,,,,,,,,,,,,
65cba317504938f6ca5272f5,SCR,2024-06-11_13h11.08.159,LearnStrategy,2023.2.3,MacIntel,56.81818182,,,,,,,,,,,4,08,6,7,,,,,,,,,,,,,,,,,,,,,,,,,,,,,,,
65cba317504938f6ca5272f5,SCR,2024-06-11_13h11.08.159,LearnStrategy,2023.2.3,MacIntel,56.81818182,,,,,,,,,,,3,11,6,8,,,,,,,,,,,,,,,,,,,,,,,,,,,,,,,