participant,condition,date,expName,psychopyVersion,OS,frameRate,block,phase,trial,learn_mouse_2.x,learn_mouse_2.y,learn_mouse_2.leftButton,learn_mouse_2.midButton,learn_mouse_2.rightButton,learn_mouse_2.time,learn_mouse_2.clicked_name,cat,token,row,col,t_select,cat_mouse_l.x,cat_mouse_l.y,cat_mouse_l.leftButton,cat_mouse_l.midButton,cat_mouse_l.rightButton,cat_mouse_l.time,cat_mouse_l.clicked_name,resp,t_resp,corr,train_trials.thisRepN,train_trials.thisTrialN,train_trials.thisN,train_trials.thisIndex,train_trials.ran,cat_mouse_t.x,cat_mouse_t.y,cat_mouse_t.leftButton,cat_mouse_t.midButton,cat_mouse_t.rightButton,cat_mouse_t.time,cat_mouse_t.clicked_name,test_trials.thisRepN,test_trials.thisTrialN,test_trials.thisN,test_trials.thisIndex,test_trials.ran,Bonus
65cbb75fc5c8e692295e8b7e,TCR,2024-06-24_15h16.38.485,LearnStrategy,2023.2.3,MacIntel,59.88023952,,,,,,,,,,,,,,,,,,,,,,,,,,,,,,,,,,,,,,,,,,,
65cbb75fc5c8e692295e8b7e,TCR,2024-06-24_15h16.38.485,LearnStrategy,2023.2.3,MacIntel,59.88023952,1,1,1,0.07193256,-0.007672324,1,0,0,2.0272,rock_grid_rect_2,7,12,-1,-1,2.027,0.175654653,-0.251001604,1,0,0,11.5226,Diorite_rect,3,11.523,0,0,0,0,0,1,,,,,,,,,,,,,
65cbb75fc5c8e692295e8b7e,TCR,2024-06-24_15h16.38.485,LearnStrategy,2023.2.3,MacIntel,59.88023952,1,1,2,-0.102017854,-0.01413318,1,0,0,2.6924,rock_grid_rect_2,4,16,-1,-1,2.692,0.318192842,-0.252314152,1,0,0,7.9755,Gabbro_rect,4,7.976,1,1,0,1,0,1,,,,,,,,,,,,,
65cbb75fc5c8e692295e8b7e,TCR,2024-06-24_15h16.38.485,LearnStrategy,2023.2.3,MacIntel,59.88023952,1,1,3,0.103540229,0.020770753,1,0,0,1.8213,rock_grid_rect_2,8,15,-1,-1,1.821,0.410891884,-0.416830328,1,0,0,4.176,Pumice_rect,8,4.176,1,2,0,2,0,1,,,,,,,,,,,,,
65cbb75fc5c8e692295e8b7e,TCR,2024-06-24_15h16.38.485,LearnStrategy,2023.2.3,MacIntel,59.88023952,1,1,4,-0.102756993,-0.002218183,1,0,0,1.197,rock_grid_rect_2,4,03,-1,-1,1.197,0.073236639,-0.266323327,1,0,0,2.7449,Diorite_rect,3,2.745,0,3,0,3,0,1,,,,,,,,,,,,,
65cbb75fc5c8e692295e8b7e,TCR,2024-06-24_15h16.38.485,LearnStrategy,2023.2.3,MacIntel,59.88023952,1,1,5,-0.140073639,0.018532201,1,0,0,1.6812,rock_grid_rect_2,5,16,-1,-1,1.681,-0.410554694,-0.403407266,1,0,0,1.8278,Obsidian_rect,5,1.828,1,4,0,4,0,1,,,,,,,,,,,,,
65cbb75fc5c8e692295e8b7e,TCR,2024-06-24_15h16.38.485,LearnStrategy,2023.2.3,MacIntel,59.88023952,1,1,6,-0.049192584,-0.010399376,1,0,0,1.3149,rock_grid_rect_2,6,03,-1,-1,1.315,-0.426726017,-0.252382123,1,0,0,1.7638,Andesite_rect,1,1.764,0,5,0,5,0,1,,,,,,,,,,,,,
65cbb75fc5c8e692295e8b7e,TCR,2024-06-24_15h16.38.485,LearnStrategy,2023.2.3,MacIntel,59.88023952,1,1,7,0.040320657,0.002373654,1,0,0,0.9138,rock_grid_rect_2,6,11,-1,-1,0.914,0.125450244,-0.39116519,1,0,0,2.276,Peridotite_rect,7,2.276,0,6,0,6,0,1,,,,,,,,,,,,,
65cbb75fc5c8e692295e8b7e,TCR,2024-06-24_15h16.38.485,LearnStrategy,2023.2.3,MacIntel,59.88023952,1,1,8,0.007472645,0.005899311,1,0,0,1.3118,rock_grid_rect_2,3,16,-1,-1,1.312,0.04260597,-0.257615377,1,0,0,1.4272,Diorite_rect,3,1.427,1,7,0,7,0,1,,,,,,,,,,,,,
65cbb75fc5c8e692295e8b7e,TCR,2024-06-24_15h16.38.485,LearnStrategy,2023.2.3,MacIntel,59.88023952,1,1,9,0.040826168,0.016174681,1,0,0,0.8977,rock_grid_rect_2,2,14,-1,-1,0.898,-0.188081951,-0.234617972,1,0,0,11.4601,Basalt_rect,2,11.46,1,8,0,8,0,1,,,,,,,,,,,,,
65cbb75fc5c8e692295e8b7e,TCR,2024-06-24_15h16.38.485,LearnStrategy,2023.2.3,MacIntel,59.88023952,1,1,10,0.039759951,0.004178973,1,0,0,1.9214,rock_grid_rect_2,5,11,-1,-1,1.921,-0.336341894,-0.416401256,1,0,0,2.1766,Obsidian_rect,5,2.177,1,9,0,9,0,1,,,,,,,,,,,,,
65cbb75fc5c8e692295e8b7e,TCR,2024-06-24_15h16.38.485,LearnStrategy,2023.2.3,MacIntel,59.88023952,1,1,11,0.064949218,-0.013512972,1,0,0,1.1153,rock_grid_rect_2,7,14,-1,-1,1.115,0.084340292,-0.392579804,1,0,0,10.1611,Peridotite_rect,7,10.161,1,10,0,10,0,1,,,,,,,,,,,,,
65cbb75fc5c8e692295e8b7e,TCR,2024-06-24_15h16.38.485,LearnStrategy,2023.2.3,MacIntel,59.88023952,1,1,12,-0.023994847,-0.019081809,1,0,0,1.9056,rock_grid_rect_2,3,11,-1,-1,1.906,-0.400398291,-0.244961168,1,0,0,19.5758,Andesite_rect,1,19.576,0,11,0,11,0,1,,,,,,,,,,,,,
65cbb75fc5c8e692295e8b7e,TCR,2024-06-24_15h16.38.485,LearnStrategy,2023.2.3,MacIntel,59.88023952,1,1,13,0.034526697,-0.018245022,1,0,0,2.0032,rock_grid_rect_2,8,14,-1,-1,2.003,0.358678352,-0.404120997,1,0,0,8.9412,Pumice_rect,8,8.941,1,12,0,12,0,1,,,,,,,,,,,,,
65cbb75fc5c8e692295e8b7e,TCR,2024-06-24_15h16.38.485,LearnStrategy,2023.2.3,MacIntel,59.88023952,1,1,14,0.002362484,0.002360914,1,0,0,1.0818,rock_grid_rect_2,2,06,-1,-1,1.082,-0.451923754,-0.421027079,1,0,0,4.595,Obsidian_rect,5,4.595,0,13,0,13,0,1,,,,,,,,,,,,,
65cbb75fc5c8e692295e8b7e,TCR,2024-06-24_15h16.38.485,LearnStrategy,2023.2.3,MacIntel,59.88023952,1,1,15,-0.115398352,-0.012357611,1,0,0,1.7384,rock_grid_rect_2,1,14,-1,-1,1.738,-0.115360169,-0.393208481,1,0,0,14.6579,Pegmatite_rect,6,14.658,0,14,0,14,0,1,,,,,,,,,,,,,
65cbb75fc5c8e692295e8b7e,TCR,2024-06-24_15h16.38.485,LearnStrategy,2023.2.3,MacIntel,59.88023952,1,1,16,-0.032061344,-0.010807165,1,0,0,1.6861,rock_grid_rect_2,1,16,-1,-1,1.686,0.090958299,-0.417352777,1,0,0,2.2768,Peridotite_rect,7,2.277,0,15,0,15,0,1,,,,,,,,,,,,,
65cbb75fc5c8e692295e8b7e,TCR,2024-06-24_15h16.38.485,LearnStrategy,2023.2.3,MacIntel,59.88023952,1,2,1,,,,,,,,2,01,,,,,,,,,,,2,4.727,1,,,,,,-0.149767059,-0.24762452,1,0,0,4.7268,Basalt_rect,0,0,0,0,1,
65cbb75fc5c8e692295e8b7e,TCR,2024-06-24_15h16.38.485,LearnStrategy,2023.2.3,MacIntel,59.88023952,1,2,2,,,,,,,,2,08,,,,,,,,,,,2,8.727,1,,,,,,-0.198293622,-0.229614039,1,0,0,8.727,Basalt_rect,1,0,1,0,1,
65cbb75fc5c8e692295e8b7e,TCR,2024-06-24_15h16.38.485,LearnStrategy,2023.2.3,MacIntel,59.88023952,1,2,3,,,,,,,,4,05,,,,,,,,,,,7,13.412,0,,,,,,0.154747119,-0.386407807,1,0,0,13.4123,Peridotite_rect,2,0,2,0,1,
65cbb75fc5c8e692295e8b7e,TCR,2024-06-24_15h16.38.485,LearnStrategy,2023.2.3,MacIntel,59.88023952,1,2,4,,,,,,,,7,04,,,,,,,,,,,6,5.91,0,,,,,,-0.129377812,-0.415241661,1,0,0,5.9098,Pegmatite_rect,3,0,3,0,1,
65cbb75fc5c8e692295e8b7e,TCR,2024-06-24_15h16.38.485,LearnStrategy,2023.2.3,MacIntel,59.88023952,1,2,5,,,,,,,,4,11,,,,,,,,,,,4,13.812,1,,,,,,0.32968731,-0.247017089,1,0,0,13.8123,Gabbro_rect,4,0,4,0,1,
65cbb75fc5c8e692295e8b7e,TCR,2024-06-24_15h16.38.485,LearnStrategy,2023.2.3,MacIntel,59.88023952,1,2,6,,,,,,,,6,16,,,,,,,,,,,6,2.977,1,,,,,,-0.068885256,-0.40918436,1,0,0,2.9769,Pegmatite_rect,5,0,5,0,1,
65cbb75fc5c8e692295e8b7e,TCR,2024-06-24_15h16.38.485,LearnStrategy,2023.2.3,MacIntel,59.88023952,1,2,7,,,,,,,,5,05,,,,,,,,,,,5,2.408,1,,,,,,-0.446800926,-0.414757395,1,0,0,2.408,Obsidian_rect,6,0,6,0,1,
65cbb75fc5c8e692295e8b7e,TCR,2024-06-24_15h16.38.485,LearnStrategy,2023.2.3,MacIntel,59.88023952,1,2,8,,,,,,,,8,06,,,,,,,,,,,8,3.845,1,,,,,,0.396581184,-0.400217303,1,0,0,3.8449,Pumice_rect,7,0,7,0,1,
65cbb75fc5c8e692295e8b7e,TCR,2024-06-24_15h16.38.485,LearnStrategy,2023.2.3,MacIntel,59.88023952,1,2,9,,,,,,,,6,06,,,,,,,,,,,6,7.793,1,,,,,,-0.08488238,-0.416405564,1,0,0,7.7926,Pegmatite_rect,8,0,8,0,1,
65cbb75fc5c8e692295e8b7e,TCR,2024-06-24_15h16.38.485,LearnStrategy,2023.2.3,MacIntel,59.88023952,1,2,10,,,,,,,,3,13,,,,,,,,,,,6,10.075,0,,,,,,-0.047438261,-0.41269724,1,0,0,10.0753,Pegmatite_rect,9,0,9,0,1,
65cbb75fc5c8e692295e8b7e,TCR,2024-06-24_15h16.38.485,LearnStrategy,2023.2.3,MacIntel,59.88023952,1,2,11,,,,,,,,5,10,,,,,,,,,,,5,1.026,1,,,,,,-0.400015982,-0.398700842,1,0,0,1.0264,Obsidian_rect,10,0,10,0,1,
65cbb75fc5c8e692295e8b7e,TCR,2024-06-24_15h16.38.485,LearnStrategy,2023.2.3,MacIntel,59.88023952,1,2,12,,,,,,,,3,06,,,,,,,,,,,1,12.612,0,,,,,,-0.359921287,-0.241363306,1,0,0,12.6123,Andesite_rect,11,0,11,0,1,
65cbb75fc5c8e692295e8b7e,TCR,2024-06-24_15h16.38.485,LearnStrategy,2023.2.3,MacIntel,59.88023952,1,2,13,,,,,,,,1,01,,,,,,,,,,,4,3.924,0,,,,,,0.350828472,-0.243495813,1,0,0,3.9243,Gabbro_rect,12,0,12,0,1,
65cbb75fc5c8e692295e8b7e,TCR,2024-06-24_15h16.38.485,LearnStrategy,2023.2.3,MacIntel,59.88023952,1,2,14,,,,,,,,7,05,,,,,,,,,,,6,1.912,0,,,,,,-0.128876536,-0.389580832,1,0,0,1.9118,Pegmatite_rect,13,0,13,0,1,
65cbb75fc5c8e692295e8b7e,TCR,2024-06-24_15h16.38.485,LearnStrategy,2023.2.3,MacIntel,59.88023952,1,2,15,,,,,,,,1,09,,,,,,,,,,,1,8.48,1,,,,,,-0.362724815,-0.271599071,1,0,0,8.4799,Andesite_rect,14,0,14,0,1,
65cbb75fc5c8e692295e8b7e,TCR,2024-06-24_15h16.38.485,LearnStrategy,2023.2.3,MacIntel,59.88023952,1,2,16,,,,,,,,8,10,,,,,,,,,,,4,5.128,0,,,,,,0.387163883,-0.233500796,1,0,0,5.1277,Gabbro_rect,15,0,15,0,1,
65cbb75fc5c8e692295e8b7e,TCR,2024-06-24_15h16.38.485,LearnStrategy,2023.2.3,MacIntel,59.88023952,2,1,1,-0.085426075,-0.009889594,1,0,0,5.2139,rock_grid_rect_2,1,10,-1,-1,5.214,0.169015401,-0.396377198,1,0,0,3.3945,Peridotite_rect,7,3.394,0,0,0,0,0,1,,,,,,,,,,,,,
65cbb75fc5c8e692295e8b7e,TCR,2024-06-24_15h16.38.485,LearnStrategy,2023.2.3,MacIntel,59.88023952,2,1,2,-0.02138669,-0.006168603,1,0,0,1.6482,rock_grid_rect_2,8,14,-1,-1,1.648,0.327580429,-0.270350187,1,0,0,1.4283,Gabbro_rect,4,1.428,0,1,0,1,0,1,,,,,,,,,,,,,
65cbb75fc5c8e692295e8b7e,TCR,2024-06-24_15h16.38.485,LearnStrategy,2023.2.3,MacIntel,59.88023952,2,1,3,0.029684258,-0.001139226,1,0,0,0.9988,rock_grid_rect_2,6,10,-1,-1,0.999,-0.193510612,-0.398152767,1,0,0,1.5083,Pegmatite_rect,6,1.508,1,2,0,2,0,1,,,,,,,,,,,,,
65cbb75fc5c8e692295e8b7e,TCR,2024-06-24_15h16.38.485,LearnStrategy,2023.2.3,MacIntel,59.88023952,2,1,4,-0.084028545,-0.008628006,1,0,0,1.681,rock_grid_rect_2,8,15,-1,-1,1.681,0.356426987,-0.246639124,1,0,0,1.4443,Gabbro_rect,4,1.444,0,3,0,3,0,1,,,,,,,,,,,,,
65cbb75fc5c8e692295e8b7e,TCR,2024-06-24_15h16.38.485,LearnStrategy,2023.2.3,MacIntel,59.88023952,2,1,5,-0.0599777,-0.002120461,1,0,0,0.8143,rock_grid_rect_2,3,16,-1,-1,0.814,0.049546821,-0.241367687,1,0,0,1.3121,Diorite_rect,3,1.312,1,4,0,4,0,1,,,,,,,,,,,,,
65cbb75fc5c8e692295e8b7e,TCR,2024-06-24_15h16.38.485,LearnStrategy,2023.2.3,MacIntel,59.88023952,2,1,6,0.017348732,-0.007502396,1,0,0,1.2133,rock_grid_rect_2,1,16,-1,-1,1.213,-0.394880413,-0.242081273,1,0,0,1.9962,Andesite_rect,1,1.996,1,5,0,5,0,1,,,,,,,,,,,,,
65cbb75fc5c8e692295e8b7e,TCR,2024-06-24_15h16.38.485,LearnStrategy,2023.2.3,MacIntel,59.88023952,2,1,7,-0.113117346,-0.011015313,1,0,0,0.882,rock_grid_rect_2,3,10,-1,-1,0.882,0.11572711,-0.252140027,1,0,0,8.5122,Diorite_rect,3,8.512,1,6,0,6,0,1,,,,,,,,,,,,,
65cbb75fc5c8e692295e8b7e,TCR,2024-06-24_15h16.38.485,LearnStrategy,2023.2.3,MacIntel,59.88023952,2,1,8,-0.041104841,0.011684801,1,0,0,1.5703,rock_grid_rect_2,7,14,-1,-1,1.57,0.193767128,-0.393123499,1,0,0,3.6087,Peridotite_rect,7,3.609,1,7,0,7,0,1,,,,,,,,,,,,,
65cbb75fc5c8e692295e8b7e,TCR,2024-06-24_15h16.38.485,LearnStrategy,2023.2.3,MacIntel,59.88023952,2,1,9,-0.022707779,-0.006911939,1,0,0,1.0308,rock_grid_rect_2,3,10,-1,-1,1.031,0.105668355,-0.252123016,1,0,0,2.6772,Diorite_rect,3,2.677,1,8,0,8,0,1,,,,,,,,,,,,,
65cbb75fc5c8e692295e8b7e,TCR,2024-06-24_15h16.38.485,LearnStrategy,2023.2.3,MacIntel,59.88023952,2,1,10,-0.040650363,0.001158792,1,0,0,0.9316,rock_grid_rect_2,7,12,-1,-1,0.932,0.099139565,-0.396241403,1,0,0,8.1436,Peridotite_rect,7,8.144,1,9,0,9,0,1,,,,,,,,,,,,,
65cbb75fc5c8e692295e8b7e,TCR,2024-06-24_15h16.38.485,LearnStrategy,2023.2.3,MacIntel,59.88023952,2,1,11,0.011440076,0.011459643,1,0,0,1.2295,rock_grid_rect_2,4,10,-1,-1,1.23,-0.391601161,-0.389334501,1,0,0,2.0752,Obsidian_rect,5,2.075,0,10,0,10,0,1,,,,,,,,,,,,,
65cbb75fc5c8e692295e8b7e,TCR,2024-06-24_15h16.38.485,LearnStrategy,2023.2.3,MacIntel,59.88023952,2,1,12,0.017055603,-0.003445785,1,0,0,1.3378,rock_grid_rect_2,7,06,-1,-1,1.338,-0.144465834,-0.397711065,1,0,0,7.3398,Pegmatite_rect,6,7.34,0,11,0,11,0,1,,,,,,,,,,,,,
65cbb75fc5c8e692295e8b7e,TCR,2024-06-24_15h16.38.485,LearnStrategy,2023.2.3,MacIntel,59.88023952,2,1,13,-0.002467105,-0.012965043,1,0,0,1.3717,rock_grid_rect_2,4,03,-1,-1,1.372,0.379216317,-0.270762247,1,0,0,9.0948,Gabbro_rect,4,9.095,1,12,0,12,0,1,,,,,,,,,,,,,
65cbb75fc5c8e692295e8b7e,TCR,2024-06-24_15h16.38.485,LearnStrategy,2023.2.3,MacIntel,59.88023952,2,1,14,0.000124042,-0.005917928,1,0,0,0.9668,rock_grid_rect_2,7,16,-1,-1,0.967,0.079272622,-0.408228605,1,0,0,4.1931,Peridotite_rect,7,4.193,1,13,0,13,0,1,,,,,,,,,,,,,
65cbb75fc5c8e692295e8b7e,TCR,2024-06-24_15h16.38.485,LearnStrategy,2023.2.3,MacIntel,59.88023952,2,1,15,0.005705546,-0.012629459,1,0,0,1.3704,rock_grid_rect_2,3,07,-1,-1,1.37,-0.474339243,-0.248359498,1,0,0,4.9606,Andesite_rect,1,4.961,0,14,0,14,0,1,,,,,,,,,,,,,
65cbb75fc5c8e692295e8b7e,TCR,2024-06-24_15h16.38.485,LearnStrategy,2023.2.3,MacIntel,59.88023952,2,1,16,0.016503439,-0.00687799,1,0,0,1.4369,rock_grid_rect_2,4,14,-1,-1,1.437,-0.084143242,-0.25848615,1,0,0,8.1309,Basalt_rect,2,8.131,0,15,0,15,0,1,,,,,,,,,,,,,
65cbb75fc5c8e692295e8b7e,TCR,2024-06-24_15h16.38.485,LearnStrategy,2023.2.3,MacIntel,59.88023952,2,2,1,,,,,,,,2,02,,,,,,,,,,,2,6.307,1,,,,,,-0.058312594,-0.23301653,1,0,0,6.3073,Basalt_rect,0,0,0,0,1,
65cbb75fc5c8e692295e8b7e,TCR,2024-06-24_15h16.38.485,LearnStrategy,2023.2.3,MacIntel,59.88023952,2,2,2,,,,,,,,2,16,,,,,,,,,,,2,28.51,1,,,,,,-0.118499245,-0.256353789,1,0,0,28.5099,Basalt_rect,1,0,1,0,1,
65cbb75fc5c8e692295e8b7e,TCR,2024-06-24_15h16.38.485,LearnStrategy,2023.2.3,MacIntel,59.88023952,2,2,3,,,,,,,,3,14,,,,,,,,,,,3,6.611,1,,,,,,0.120450618,-0.228590386,1,0,0,6.6113,Diorite_rect,2,0,2,0,1,
65cbb75fc5c8e692295e8b7e,TCR,2024-06-24_15h16.38.485,LearnStrategy,2023.2.3,MacIntel,59.88023952,2,2,4,,,,,,,,4,15,,,,,,,,,,,7,17.713,0,,,,,,0.118713233,-0.421579315,1,0,0,17.713,Peridotite_rect,3,0,3,0,1,
65cbb75fc5c8e692295e8b7e,TCR,2024-06-24_15h16.38.485,LearnStrategy,2023.2.3,MacIntel,59.88023952,2,2,5,,,,,,,,8,04,,,,,,,,,,,8,16.776,1,,,,,,0.351125763,-0.401253732,1,0,0,16.776,Pumice_rect,4,0,4,0,1,
65cbb75fc5c8e692295e8b7e,TCR,2024-06-24_15h16.38.485,LearnStrategy,2023.2.3,MacIntel,59.88023952,2,2,6,,,,,,,,1,11,,,,,,,,,,,1,7.577,1,,,,,,-0.474381698,-0.261599819,1,0,0,7.5767,Andesite_rect,5,0,5,0,1,
65cbb75fc5c8e692295e8b7e,TCR,2024-06-24_15h16.38.485,LearnStrategy,2023.2.3,MacIntel,59.88023952,2,2,7,,,,,,,,3,02,,,,,,,,,,,7,5.612,0,,,,,,0.110017986,-0.417743592,1,0,0,5.6116,Peridotite_rect,6,0,6,0,1,
65cbb75fc5c8e692295e8b7e,TCR,2024-06-24_15h16.38.485,LearnStrategy,2023.2.3,MacIntel,59.88023952,2,2,8,,,,,,,,7,08,,,,,,,,,,,7,2.392,1,,,,,,0.102835112,-0.399860437,1,0,0,2.392,Peridotite_rect,7,0,7,0,1,
65cbb75fc5c8e692295e8b7e,TCR,2024-06-24_15h16.38.485,LearnStrategy,2023.2.3,MacIntel,59.88023952,2,2,9,,,,,,,,4,13,,,,,,,,,,,6,3.943,0,,,,,,-0.117233422,-0.391135549,1,0,0,3.9428,Pegmatite_rect,8,0,8,0,1,
65cbb75fc5c8e692295e8b7e,TCR,2024-06-24_15h16.38.485,LearnStrategy,2023.2.3,MacIntel,59.88023952,2,2,10,,,,,,,,7,02,,,,,,,,,,,6,11.609,0,,,,,,-0.076064041,-0.402485606,1,0,0,11.6086,Pegmatite_rect,9,0,9,0,1,
65cbb75fc5c8e692295e8b7e,TCR,2024-06-24_15h16.38.485,LearnStrategy,2023.2.3,MacIntel,59.88023952,2,2,11,,,,,,,,8,16,,,,,,,,,,,8,7.176,1,,,,,,0.406236347,-0.402799834,1,0,0,7.1763,Pumice_rect,10,0,10,0,1,
65cbb75fc5c8e692295e8b7e,TCR,2024-06-24_15h16.38.485,LearnStrategy,2023.2.3,MacIntel,59.88023952,2,2,12,,,,,,,,1,05,,,,,,,,,,,7,6.363,0,,,,,,0.078257511,-0.410314241,1,0,0,6.3626,Peridotite_rect,11,0,11,0,1,
65cbb75fc5c8e692295e8b7e,TCR,2024-06-24_15h16.38.485,LearnStrategy,2023.2.3,MacIntel,59.88023952,2,2,13,,,,,,,,6,12,,,,,,,,,,,7,9.359,0,,,,,,0.172086506,-0.390511034,1,0,0,9.3587,Peridotite_rect,12,0,12,0,1,
65cbb75fc5c8e692295e8b7e,TCR,2024-06-24_15h16.38.485,LearnStrategy,2023.2.3,MacIntel,59.88023952,2,2,14,,,,,,,,5,04,,,,,,,,,,,5,1.908,1,,,,,,-0.376538546,-0.381365689,1,0,0,1.9082,Obsidian_rect,13,0,13,0,1,
65cbb75fc5c8e692295e8b7e,TCR,2024-06-24_15h16.38.485,LearnStrategy,2023.2.3,MacIntel,59.88023952,2,2,15,,,,,,,,5,06,,,,,,,,,,,5,1.424,1,,,,,,-0.362036673,-0.399779762,1,0,0,1.4244,Obsidian_rect,14,0,14,0,1,
65cbb75fc5c8e692295e8b7e,TCR,2024-06-24_15h16.38.485,LearnStrategy,2023.2.3,MacIntel,59.88023952,2,2,16,,,,,,,,6,15,,,,,,,,,,,7,3.076,0,,,,,,0.198320745,-0.410819752,1,0,0,3.0764,Peridotite_rect,15,0,15,0,1,
65cbb75fc5c8e692295e8b7e,TCR,2024-06-24_15h16.38.485,LearnStrategy,2023.2.3,MacIntel,59.88023952,3,1,1,0.005416724,0.000347484,1,0,0,23.1306,rock_grid_rect_2,1,10,-1,-1,23.131,-0.403257051,-0.260690789,1,0,0,14.5926,Andesite_rect,1,14.593,1,0,0,0,0,1,,,,,,,,,,,,,
65cbb75fc5c8e692295e8b7e,TCR,2024-06-24_15h16.38.485,LearnStrategy,2023.2.3,MacIntel,59.88023952,3,1,2,-0.01566917,-0.009256719,1,0,0,0.9639,rock_grid_rect_2,3,10,-1,-1,0.964,0.064061434,-0.247743524,1,0,0,4.3421,Diorite_rect,3,4.342,1,1,0,1,0,1,,,,,,,,,,,,,
65cbb75fc5c8e692295e8b7e,TCR,2024-06-24_15h16.38.485,LearnStrategy,2023.2.3,MacIntel,59.88023952,3,1,3,-0.001515731,0.008184625,1,0,0,0.7478,rock_grid_rect_2,7,06,-1,-1,0.748,0.184400787,-0.396385813,1,0,0,3.0945,Peridotite_rect,7,3.095,1,2,0,2,0,1,,,,,,,,,,,,,
65cbb75fc5c8e692295e8b7e,TCR,2024-06-24_15h16.38.485,LearnStrategy,2023.2.3,MacIntel,59.88023952,3,1,4,0.028176267,-0.020844637,1,0,0,0.948,rock_grid_rect_2,4,01,-1,-1,0.948,-0.411251342,-0.255508496,1,0,0,9.6598,Andesite_rect,1,9.66,0,3,0,3,0,1,,,,,,,,,,,,,
65cbb75fc5c8e692295e8b7e,TCR,2024-06-24_15h16.38.485,LearnStrategy,2023.2.3,MacIntel,59.88023952,3,1,5,0.004949469,-0.014651394,1,0,0,0.8883,rock_grid_rect_2,7,16,-1,-1,0.888,0.094862066,-0.399970899,1,0,0,2.5116,Peridotite_rect,7,2.512,1,4,0,4,0,1,,,,,,,,,,,,,
65cbb75fc5c8e692295e8b7e,TCR,2024-06-24_15h16.38.485,LearnStrategy,2023.2.3,MacIntel,59.88023952,3,1,6,0.062646966,-0.000858873,1,0,0,0.9965,rock_grid_rect_2,4,01,-1,-1,0.996,0.323719152,-0.249735782,1,0,0,3.0135,Gabbro_rect,4,3.014,1,5,0,5,0,1,,,,,,,,,,,,,
65cbb75fc5c8e692295e8b7e,TCR,2024-06-24_15h16.38.485,LearnStrategy,2023.2.3,MacIntel,59.88023952,3,1,7,0.02304924,0.009161625,1,0,0,1.1294,rock_grid_rect_2,7,14,-1,-1,1.129,0.086646851,-0.400994625,1,0,0,5.179,Peridotite_rect,7,5.179,1,6,0,6,0,1,,,,,,,,,,,,,
65cbb75fc5c8e692295e8b7e,TCR,2024-06-24_15h16.38.485,LearnStrategy,2023.2.3,MacIntel,59.88023952,3,1,8,0.070917376,-0.007770009,1,0,0,0.9638,rock_grid_rect_2,6,11,-1,-1,0.964,0.149382158,-0.413899253,1,0,0,4.145,Peridotite_rect,7,4.145,0,7,0,7,0,1,,,,,,,,,,,,,
65cbb75fc5c8e692295e8b7e,TCR,2024-06-24_15h16.38.485,LearnStrategy,2023.2.3,MacIntel,59.88023952,3,1,9,-0.014505414,-0.013283615,1,0,0,1.088,rock_grid_rect_2,3,16,-1,-1,1.088,0.110697623,-0.242009067,1,0,0,5.8113,Diorite_rect,3,5.811,1,8,0,8,0,1,,,,,,,,,,,,,
65cbb75fc5c8e692295e8b7e,TCR,2024-06-24_15h16.38.485,LearnStrategy,2023.2.3,MacIntel,59.88023952,3,1,10,0.090053577,-0.021226947,1,0,0,0.9307,rock_grid_rect_2,3,16,-1,-1,0.931,0.097941567,-0.259450447,1,0,0,1.1768,Diorite_rect,3,1.177,1,9,0,9,0,1,,,,,,,,,,,,,
65cbb75fc5c8e692295e8b7e,TCR,2024-06-24_15h16.38.485,LearnStrategy,2023.2.3,MacIntel,59.88023952,3,1,11,-0.013596311,-0.00414236,1,0,0,3.3479,rock_grid_rect_2,8,15,-1,-1,3.348,0.381518569,-0.389619088,1,0,0,2.2439,Pumice_rect,8,2.244,1,10,0,10,0,1,,,,,,,,,,,,,
65cbb75fc5c8e692295e8b7e,TCR,2024-06-24_15h16.38.485,LearnStrategy,2023.2.3,MacIntel,59.88023952,3,1,12,0.086183831,0.00970532,1,0,0,0.9994,rock_grid_rect_2,6,11,-1,-1,0.999,-0.11418349,-0.400760997,1,0,0,3.38,Pegmatite_rect,6,3.38,1,11,0,11,0,1,,,,,,,,,,,,,
65cbb75fc5c8e692295e8b7e,TCR,2024-06-24_15h16.38.485,LearnStrategy,2023.2.3,MacIntel,59.88023952,3,1,13,0.026553651,0.002042341,1,0,0,1.2977,rock_grid_rect_2,1,16,-1,-1,1.298,-0.402475494,-0.250118055,1,0,0,3.8438,Andesite_rect,1,3.844,1,12,0,12,0,1,,,,,,,,,,,,,
65cbb75fc5c8e692295e8b7e,TCR,2024-06-24_15h16.38.485,LearnStrategy,2023.2.3,MacIntel,59.88023952,3,1,14,0.017807445,0.020983171,1,0,0,0.9652,rock_grid_rect_2,4,14,-1,-1,0.965,0.373023074,-0.247769077,1,0,0,6.4138,Gabbro_rect,4,6.414,1,13,0,13,0,1,,,,,,,,,,,,,
65cbb75fc5c8e692295e8b7e,TCR,2024-06-24_15h16.38.485,LearnStrategy,2023.2.3,MacIntel,59.88023952,3,1,15,0.083435497,-0.022135976,1,0,0,1.0148,rock_grid_rect_2,6,10,-1,-1,1.015,-0.063898406,-0.41022079,1,0,0,3.8583,Pegmatite_rect,6,3.858,1,14,0,14,0,1,,,,,,,,,,,,,
65cbb75fc5c8e692295e8b7e,TCR,2024-06-24_15h16.38.485,LearnStrategy,2023.2.3,MacIntel,59.88023952,3,1,16,0.08278134,-0.014744845,1,0,0,0.8812,rock_grid_rect_2,7,06,-1,-1,0.881,0.130980861,-0.409931968,1,0,0,2.7939,Peridotite_rect,7,2.794,1,15,0,15,0,1,,,,,,,,,,,,,
65cbb75fc5c8e692295e8b7e,TCR,2024-06-24_15h16.38.485,LearnStrategy,2023.2.3,MacIntel,59.88023952,3,2,1,,,,,,,,1,07,,,,,,,,,,,3,11.591,0,,,,,,0.115837426,-0.250100971,1,0,0,11.5909,Diorite_rect,0,0,0,0,1,
65cbb75fc5c8e692295e8b7e,TCR,2024-06-24_15h16.38.485,LearnStrategy,2023.2.3,MacIntel,59.88023952,3,2,2,,,,,,,,2,11,,,,,,,,,,,1,21.577,0,,,,,,-0.46658285,-0.245836322,1,0,0,21.5775,Andesite_rect,1,0,1,0,1,
65cbb75fc5c8e692295e8b7e,TCR,2024-06-24_15h16.38.485,LearnStrategy,2023.2.3,MacIntel,59.88023952,3,2,3,,,,,,,,1,06,,,,,,,,,,,1,9.314,1,,,,,,-0.334872159,-0.25708862,1,0,0,9.3145,Andesite_rect,2,0,2,0,1,
65cbb75fc5c8e692295e8b7e,TCR,2024-06-24_15h16.38.485,LearnStrategy,2023.2.3,MacIntel,59.88023952,3,2,4,,,,,,,,5,07,,,,,,,,,,,5,3.176,1,,,,,,-0.343800996,-0.411843332,1,0,0,3.1759,Obsidian_rect,3,0,3,0,1,
65cbb75fc5c8e692295e8b7e,TCR,2024-06-24_15h16.38.485,LearnStrategy,2023.2.3,MacIntel,59.88023952,3,2,5,,,,,,,,4,12,,,,,,,,,,,2,13.045,0,,,,,,-0.079819018,-0.232196717,1,0,0,13.0446,Basalt_rect,4,0,4,0,1,
65cbb75fc5c8e692295e8b7e,TCR,2024-06-24_15h16.38.485,LearnStrategy,2023.2.3,MacIntel,59.88023952,3,2,6,,,,,,,,6,09,,,,,,,,,,,6,7.045,1,,,,,,-0.123885378,-0.39655147,1,0,0,7.0447,Pegmatite_rect,5,0,5,0,1,
65cbb75fc5c8e692295e8b7e,TCR,2024-06-24_15h16.38.485,LearnStrategy,2023.2.3,MacIntel,59.88023952,3,2,7,,,,,,,,8,02,,,,,,,,,,,8,11.791,1,,,,,,0.44204084,-0.391917105,1,0,0,11.7912,Pumice_rect,6,0,6,0,1,
65cbb75fc5c8e692295e8b7e,TCR,2024-06-24_15h16.38.485,LearnStrategy,2023.2.3,MacIntel,59.88023952,3,2,8,,,,,,,,3,15,,,,,,,,,,,4,20.746,0,,,,,,0.397987183,-0.250045849,1,0,0,20.7456,Gabbro_rect,7,0,7,0,1,
65cbb75fc5c8e692295e8b7e,TCR,2024-06-24_15h16.38.485,LearnStrategy,2023.2.3,MacIntel,59.88023952,3,2,9,,,,,,,,3,09,,,,,,,,,,,3,1.645,1,,,,,,0.081184205,-0.261935366,1,0,0,1.645,Diorite_rect,8,0,8,0,1,
65cbb75fc5c8e692295e8b7e,TCR,2024-06-24_15h16.38.485,LearnStrategy,2023.2.3,MacIntel,59.88023952,3,2,10,,,,,,,,6,07,,,,,,,,,,,6,5.813,1,,,,,,-0.095523013,-0.395243156,1,0,0,5.8132,Pegmatite_rect,9,0,9,0,1,
65cbb75fc5c8e692295e8b7e,TCR,2024-06-24_15h16.38.485,LearnStrategy,2023.2.3,MacIntel,59.88023952,3,2,11,,,,,,,,4,08,,,,,,,,,,,4,9.108,1,,,,,,0.322984321,-0.23939244,1,0,0,9.108,Gabbro_rect,10,0,10,0,1,
65cbb75fc5c8e692295e8b7e,TCR,2024-06-24_15h16.38.485,LearnStrategy,2023.2.3,MacIntel,59.88023952,3,2,12,,,,,,,,2,10,,,,,,,,,,,2,5.291,1,,,,,,-0.089486957,-0.253567271,1,0,0,5.2908,Basalt_rect,11,0,11,0,1,
65cbb75fc5c8e692295e8b7e,TCR,2024-06-24_15h16.38.485,LearnStrategy,2023.2.3,MacIntel,59.88023952,3,2,13,,,,,,,,8,09,,,,,,,,,,,8,2.928,1,,,,,,0.355466998,-0.418189601,1,0,0,2.928,Pumice_rect,12,0,12,0,1,
65cbb75fc5c8e692295e8b7e,TCR,2024-06-24_15h16.38.485,LearnStrategy,2023.2.3,MacIntel,59.88023952,3,2,14,,,,,,,,7,07,,,,,,,,,,,7,7.762,1,,,,,,0.094547692,-0.389143364,1,0,0,7.762,Peridotite_rect,13,0,13,0,1,
65cbb75fc5c8e692295e8b7e,TCR,2024-06-24_15h16.38.485,LearnStrategy,2023.2.3,MacIntel,59.88023952,3,2,15,,,,,,,,5,02,,,,,,,,,,,5,2.294,1,,,,,,-0.387858852,-0.412875673,1,0,0,2.2944,Obsidian_rect,14,0,14,0,1,
65cbb75fc5c8e692295e8b7e,TCR,2024-06-24_15h16.38.485,LearnStrategy,2023.2.3,MacIntel,59.88023952,3,2,16,,,,,,,,7,15,,,,,,,,,,,7,14.776,1,,,,,,0.09227092,-0.399405959,1,0,0,14.7757,Peridotite_rect,15,0,15,0,1,
65cbb75fc5c8e692295e8b7e,TCR,2024-06-24_15h16.38.485,LearnStrategy,2023.2.3,MacIntel,59.88023952,4,1,1,-0.015117006,-0.016448208,1,0,0,43.2302,rock_grid_rect_2,6,10,-1,-1,43.23,-0.200905978,-0.401164443,1,0,0,6.7909,Pegmatite_rect,6,6.791,1,0,0,0,0,1,,,,,,,,,,,,,
65cbb75fc5c8e692295e8b7e,TCR,2024-06-24_15h16.38.485,LearnStrategy,2023.2.3,MacIntel,59.88023952,4,1,2,-0.035960804,0.00974354,1,0,0,1.4969,rock_grid_rect_2,1,04,-1,-1,1.497,-0.099477741,-0.250211506,1,0,0,38.0119,Basalt_rect,2,38.012,0,1,0,1,0,1,,,,,,,,,,,,,
65cbb75fc5c8e692295e8b7e,TCR,2024-06-24_15h16.38.485,LearnStrategy,2023.2.3,MacIntel,59.88023952,4,1,3,-0.02683656,-0.014574881,1,0,0,1.0704,rock_grid_rect_2,7,16,-1,-1,1.07,0.08213996,-0.392596815,1,0,0,4.543,Peridotite_rect,7,4.543,1,2,0,2,0,1,,,,,,,,,,,,,
65cbb75fc5c8e692295e8b7e,TCR,2024-06-24_15h16.38.485,LearnStrategy,2023.2.3,MacIntel,59.88023952,4,1,4,-0.025018646,-0.001708437,1,0,0,0.9315,rock_grid_rect_2,3,08,-1,-1,0.932,0.141944338,-0.238767998,1,0,0,1.4924,Diorite_rect,3,1.492,1,3,0,3,0,1,,,,,,,,,,,,,
65cbb75fc5c8e692295e8b7e,TCR,2024-06-24_15h16.38.485,LearnStrategy,2023.2.3,MacIntel,59.88023952,4,1,5,-0.058635438,0.002658278,1,0,0,0.8477,rock_grid_rect_2,4,01,-1,-1,0.848,0.356303822,-0.243381117,1,0,0,3.6957,Gabbro_rect,4,3.696,1,4,0,4,0,1,,,,,,,,,,,,,
65cbb75fc5c8e692295e8b7e,TCR,2024-06-24_15h16.38.485,LearnStrategy,2023.2.3,MacIntel,59.88023952,4,1,6,0.093553753,0.019305289,1,0,0,1.1135,rock_grid_rect_2,8,03,-1,-1,1.114,0.422751687,-0.390005668,1,0,0,3.3629,Pumice_rect,8,3.363,1,5,0,5,0,1,,,,,,,,,,,,,
65cbb75fc5c8e692295e8b7e,TCR,2024-06-24_15h16.38.485,LearnStrategy,2023.2.3,MacIntel,59.88023952,4,1,7,-0.015308143,-0.00644045,1,0,0,1.1209,rock_grid_rect_2,1,04,-1,-1,1.121,-0.448797381,-0.241605549,1,0,0,4.7116,Andesite_rect,1,4.712,1,6,0,6,0,1,,,,,,,,,,,,,
65cbb75fc5c8e692295e8b7e,TCR,2024-06-24_15h16.38.485,LearnStrategy,2023.2.3,MacIntel,59.88023952,4,1,8,-0.003537557,-0.006729308,1,0,0,0.7814,rock_grid_rect_2,7,13,-1,-1,0.781,0.075330816,-0.387707505,1,0,0,2.3426,Peridotite_rect,7,2.343,1,7,0,7,0,1,,,,,,,,,,,,,
65cbb75fc5c8e692295e8b7e,TCR,2024-06-24_15h16.38.485,LearnStrategy,2023.2.3,MacIntel,59.88023952,4,1,9,0.053216889,0.009170094,1,0,0,0.9372,rock_grid_rect_2,1,14,-1,-1,0.937,-0.397127507,-0.248380743,1,0,0,4.6773,Andesite_rect,1,4.677,1,8,0,8,0,1,,,,,,,,,,,,,
65cbb75fc5c8e692295e8b7e,TCR,2024-06-24_15h16.38.485,LearnStrategy,2023.2.3,MacIntel,59.88023952,4,1,10,0.001415344,-0.003857809,1,0,0,0.8146,rock_grid_rect_2,3,16,-1,-1,0.815,0.170867409,-0.243665704,1,0,0,2.8279,Diorite_rect,3,2.828,1,9,0,9,0,1,,,,,,,,,,,,,
65cbb75fc5c8e692295e8b7e,TCR,2024-06-24_15h16.38.485,LearnStrategy,2023.2.3,MacIntel,59.88023952,4,1,11,0.03937337,-0.004112682,1,0,0,0.7807,rock_grid_rect_2,4,03,-1,-1,0.781,0.415708916,-0.266922143,1,0,0,3.012,Gabbro_rect,4,3.012,1,10,0,10,0,1,,,,,,,,,,,,,
65cbb75fc5c8e692295e8b7e,TCR,2024-06-24_15h16.38.485,LearnStrategy,2023.2.3,MacIntel,59.88023952,4,1,12,0.052826001,-0.005471955,1,0,0,0.7299,rock_grid_rect_2,2,09,-1,-1,0.73,-0.47416081,-0.240925912,1,0,0,4.9284,Andesite_rect,1,4.928,0,11,0,11,0,1,,,,,,,,,,,,,
65cbb75fc5c8e692295e8b7e,TCR,2024-06-24_15h16.38.485,LearnStrategy,2023.2.3,MacIntel,59.88023952,4,1,13,-0.084164487,0.014908859,1,0,0,0.9712,rock_grid_rect_2,4,10,-1,-1,0.971,0.344439785,-0.259450447,1,0,0,3.66,Gabbro_rect,4,3.66,1,12,0,12,0,1,,,,,,,,,,,,,
65cbb75fc5c8e692295e8b7e,TCR,2024-06-24_15h16.38.485,LearnStrategy,2023.2.3,MacIntel,59.88023952,4,1,14,0.03485801,0.000980395,1,0,0,0.7803,rock_grid_rect_2,3,07,-1,-1,0.78,0.097372466,-0.235246649,1,0,0,1.4135,Diorite_rect,3,1.413,1,13,0,13,0,1,,,,,,,,,,,,,
65cbb75fc5c8e692295e8b7e,TCR,2024-06-24_15h16.38.485,LearnStrategy,2023.2.3,MacIntel,59.88023952,4,1,15,-0.027979217,0.014751672,1,0,0,0.7652,rock_grid_rect_2,6,13,-1,-1,0.765,-0.084623273,-0.415759876,1,0,0,1.6454,Pegmatite_rect,6,1.645,1,14,0,14,0,1,,,,,,,,,,,,,
65cbb75fc5c8e692295e8b7e,TCR,2024-06-24_15h16.38.485,LearnStrategy,2023.2.3,MacIntel,59.88023952,4,1,16,-0.061077866,0.00231846,1,0,0,1.0075,rock_grid_rect_2,2,06,-1,-1,1.007,-0.398440055,-0.408266715,1,0,0,1.1279,Obsidian_rect,5,1.128,0,15,0,15,0,1,,,,,,,,,,,,,
65cbb75fc5c8e692295e8b7e,TCR,2024-06-24_15h16.38.485,LearnStrategy,2023.2.3,MacIntel,59.88023952,4,2,1,,,,,,,,6,12,,,,,,,,,,,3,1.641,0,,,,,,0.124757831,-0.260418906,1,0,0,1.6407,Diorite_rect,0,0,0,0,1,
65cbb75fc5c8e692295e8b7e,TCR,2024-06-24_15h16.38.485,LearnStrategy,2023.2.3,MacIntel,59.88023952,4,2,2,,,,,,,,7,05,,,,,,,,,,,4,4.544,0,,,,,,0.332312406,-0.241856114,1,0,0,4.5441,Gabbro_rect,1,0,1,0,1,
65cbb75fc5c8e692295e8b7e,TCR,2024-06-24_15h16.38.485,LearnStrategy,2023.2.3,MacIntel,59.88023952,4,2,3,,,,,,,,4,13,,,,,,,,,,,4,20.761,1,,,,,,0.331934368,-0.251863909,1,0,0,20.7614,Gabbro_rect,2,0,2,0,1,
65cbb75fc5c8e692295e8b7e,TCR,2024-06-24_15h16.38.485,LearnStrategy,2023.2.3,MacIntel,59.88023952,4,2,4,,,,,,,,6,09,,,,,,,,,,,6,12.629,1,,,,,,-0.100408016,-0.39404954,1,0,0,12.6287,Pegmatite_rect,3,0,3,0,1,
65cbb75fc5c8e692295e8b7e,TCR,2024-06-24_15h16.38.485,LearnStrategy,2023.2.3,MacIntel,59.88023952,4,2,5,,,,,,,,8,04,,,,,,,,,,,8,20.942,1,,,,,,0.347277336,-0.383697729,1,0,0,20.9423,Pumice_rect,4,0,4,0,1,
65cbb75fc5c8e692295e8b7e,TCR,2024-06-24_15h16.38.485,LearnStrategy,2023.2.3,MacIntel,59.88023952,4,2,6,,,,,,,,8,02,,,,,,,,,,,8,1.258,1,,,,,,0.370499898,-0.384254127,1,0,0,1.2582,Pumice_rect,5,0,5,0,1,
65cbb75fc5c8e692295e8b7e,TCR,2024-06-24_15h16.38.485,LearnStrategy,2023.2.3,MacIntel,59.88023952,4,2,7,,,,,,,,5,04,,,,,,,,,,,5,1.178,1,,,,,,-0.337208433,-0.385936244,1,0,0,1.1776,Obsidian_rect,6,0,6,0,1,
65cbb75fc5c8e692295e8b7e,TCR,2024-06-24_15h16.38.485,LearnStrategy,2023.2.3,MacIntel,59.88023952,4,2,8,,,,,,,,7,15,,,,,,,,,,,7,12.109,1,,,,,,0.104117946,-0.40579888,1,0,0,12.1086,Peridotite_rect,7,0,7,0,1,
65cbb75fc5c8e692295e8b7e,TCR,2024-06-24_15h16.38.485,LearnStrategy,2023.2.3,MacIntel,59.88023952,4,2,9,,,,,,,,5,06,,,,,,,,,,,5,1.478,1,,,,,,-0.388130772,-0.406427557,1,0,0,1.4779,Obsidian_rect,8,0,8,0,1,
65cbb75fc5c8e692295e8b7e,TCR,2024-06-24_15h16.38.485,LearnStrategy,2023.2.3,MacIntel,59.88023952,4,2,10,,,,,,,,3,02,,,,,,,,,,,1,10.547,0,,,,,,-0.381627389,-0.238406971,1,0,0,10.5473,Andesite_rect,9,0,9,0,1,
65cbb75fc5c8e692295e8b7e,TCR,2024-06-24_15h16.38.485,LearnStrategy,2023.2.3,MacIntel,59.88023952,4,2,11,,,,,,,,1,05,,,,,,,,,,,4,5.995,0,,,,,,0.385541195,-0.239018636,1,0,0,5.9953,Gabbro_rect,10,0,10,0,1,
65cbb75fc5c8e692295e8b7e,TCR,2024-06-24_15h16.38.485,LearnStrategy,2023.2.3,MacIntel,59.88023952,4,2,12,,,,,,,,3,15,,,,,,,,,,,2,4.143,0,,,,,,-0.08093196,-0.255576467,1,0,0,4.1426,Basalt_rect,11,0,11,0,1,
65cbb75fc5c8e692295e8b7e,TCR,2024-06-24_15h16.38.485,LearnStrategy,2023.2.3,MacIntel,59.88023952,4,2,13,,,,,,,,1,11,,,,,,,,,,,2,6.995,0,,,,,,-0.158878527,-0.252913115,1,0,0,6.9949,Basalt_rect,12,0,12,0,1,
65cbb75fc5c8e692295e8b7e,TCR,2024-06-24_15h16.38.485,LearnStrategy,2023.2.3,MacIntel,59.88023952,4,2,14,,,,,,,,2,01,,,,,,,,,,,2,1.173,1,,,,,,-0.156865097,-0.252913115,1,0,0,1.173,Basalt_rect,13,0,13,0,1,
65cbb75fc5c8e692295e8b7e,TCR,2024-06-24_15h16.38.485,LearnStrategy,2023.2.3,MacIntel,59.88023952,4,2,15,,,,,,,,2,16,,,,,,,,,,,4,4.608,0,,,,,,0.480164596,-0.24234038,1,0,0,4.6082,Gabbro_rect,14,0,14,0,1,
65cbb75fc5c8e692295e8b7e,TCR,2024-06-24_15h16.38.485,LearnStrategy,2023.2.3,MacIntel,59.88023952,4,2,16,,,,,,,,4,05,,,,,,,,,,,2,4.173,0,,,,,,-0.171846965,-0.261174909,1,0,0,4.1734,Basalt_rect,15,0,15,0,1,
65cbb75fc5c8e692295e8b7e,TCR,2024-06-24_15h16.38.485,LearnStrategy,2023.2.3,MacIntel,59.88023952,5,1,1,0.023367777,-0.015178115,1,0,0,1.5804,rock_grid_rect_2,7,16,-1,-1,1.58,0.206089878,-0.398560665,1,0,0,3.6116,Peridotite_rect,7,3.612,1,0,0,0,0,1,,,,,,,,,,,,,
65cbb75fc5c8e692295e8b7e,TCR,2024-06-24_15h16.38.485,LearnStrategy,2023.2.3,MacIntel,59.88023952,5,1,2,0.014060938,-0.00840292,1,0,0,0.8466,rock_grid_rect_2,8,08,-1,-1,0.847,-0.084062567,-0.259144541,1,0,0,6.9921,Basalt_rect,2,6.992,0,1,0,1,0,1,,,,,,,,,,,,,
65cbb75fc5c8e692295e8b7e,TCR,2024-06-24_15h16.38.485,LearnStrategy,2023.2.3,MacIntel,59.88023952,5,1,3,-0.039053155,-0.009511592,1,0,0,1.2051,rock_grid_rect_2,1,04,-1,-1,1.205,-0.370714872,-0.240356664,1,0,0,2.5283,Andesite_rect,1,2.528,1,2,0,2,0,1,,,,,,,,,,,,,
65cbb75fc5c8e692295e8b7e,TCR,2024-06-24_15h16.38.485,LearnStrategy,2023.2.3,MacIntel,59.88023952,5,1,4,0.008432635,-0.010284679,1,0,0,0.8644,rock_grid_rect_2,1,03,-1,-1,0.864,-0.151967391,-0.231024345,1,0,0,4.3948,Basalt_rect,2,4.395,0,3,0,3,0,1,,,,,,,,,,,,,
65cbb75fc5c8e692295e8b7e,TCR,2024-06-24_15h16.38.485,LearnStrategy,2023.2.3,MacIntel,59.88023952,5,1,5,-0.013970115,0.015252912,1,0,0,1.0714,rock_grid_rect_2,7,14,-1,-1,1.071,0.117621609,-0.416324816,1,0,0,6.1771,Peridotite_rect,7,6.177,1,4,0,4,0,1,,,,,,,,,,,,,
65cbb75fc5c8e692295e8b7e,TCR,2024-06-24_15h16.38.485,LearnStrategy,2023.2.3,MacIntel,59.88023952,5,1,6,0.02067471,-0.014039729,1,0,0,1.465,rock_grid_rect_2,4,14,-1,-1,1.465,-0.126663427,-0.260108838,1,0,0,2.9606,Basalt_rect,2,2.961,0,5,0,5,0,1,,,,,,,,,,,,,
65cbb75fc5c8e692295e8b7e,TCR,2024-06-24_15h16.38.485,LearnStrategy,2023.2.3,MacIntel,59.88023952,5,1,7,-0.055695967,-0.012183449,1,0,0,0.8719,rock_grid_rect_2,2,14,-1,-1,0.872,-0.176315673,-0.259972896,1,0,0,1.8605,Basalt_rect,2,1.861,1,6,0,6,0,1,,,,,,,,,,,,,
65cbb75fc5c8e692295e8b7e,TCR,2024-06-24_15h16.38.485,LearnStrategy,2023.2.3,MacIntel,59.88023952,5,1,8,-0.01846423,0.003057562,1,0,0,1.0153,rock_grid_rect_2,1,16,-1,-1,1.015,-0.367966574,-0.268650986,1,0,0,4.8451,Andesite_rect,1,4.845,1,7,0,7,0,1,,,,,,,,,,,,,
65cbb75fc5c8e692295e8b7e,TCR,2024-06-24_15h16.38.485,LearnStrategy,2023.2.3,MacIntel,59.88023952,5,1,9,-0.031891453,-0.007803995,1,0,0,0.8979,rock_grid_rect_2,3,16,-1,-1,0.898,0.152614758,-0.244103245,1,0,0,3.695,Diorite_rect,3,3.695,1,8,0,8,0,1,,,,,,,,,,,,,
65cbb75fc5c8e692295e8b7e,TCR,2024-06-24_15h16.38.485,LearnStrategy,2023.2.3,MacIntel,59.88023952,5,1,10,-0.051647789,-0.014944487,1,0,0,0.8643,rock_grid_rect_2,3,08,-1,-1,0.864,0.050596027,-0.244094703,1,0,0,1.0948,Diorite_rect,3,1.095,1,9,0,9,0,1,,,,,,,,,,,,,
65cbb75fc5c8e692295e8b7e,TCR,2024-06-24_15h16.38.485,LearnStrategy,2023.2.3,MacIntel,59.88023952,5,1,11,-0.025490063,-0.024795021,1,0,0,0.6814,rock_grid_rect_2,4,10,-1,-1,0.681,0.352174969,-0.24132943,1,0,0,5.8277,Gabbro_rect,4,5.828,1,10,0,10,0,1,,,,,,,,,,,,,
65cbb75fc5c8e692295e8b7e,TCR,2024-06-24_15h16.38.485,LearnStrategy,2023.2.3,MacIntel,59.88023952,5,1,12,0.028494876,-0.012047508,1,0,0,0.6813,rock_grid_rect_2,4,09,-1,-1,0.681,0.319641332,-0.267147374,1,0,0,5.3257,Gabbro_rect,4,5.326,1,11,0,11,0,1,,,,,,,,,,,,,
65cbb75fc5c8e692295e8b7e,TCR,2024-06-24_15h16.38.485,LearnStrategy,2023.2.3,MacIntel,59.88023952,5,1,13,0.023852043,-0.000213221,1,0,0,0.914,rock_grid_rect_2,6,05,-1,-1,0.914,-0.133927122,-0.386097593,1,0,0,6.5285,Pegmatite_rect,6,6.528,1,12,0,12,0,1,,,,,,,,,,,,,
65cbb75fc5c8e692295e8b7e,TCR,2024-06-24_15h16.38.485,LearnStrategy,2023.2.3,MacIntel,59.88023952,5,1,14,-0.026687914,-0.017157559,1,0,0,1.6549,rock_grid_rect_2,6,03,-1,-1,1.655,0.069753473,-0.393854023,1,0,0,3.9415,Peridotite_rect,7,3.941,0,13,0,13,0,1,,,,,,,,,,,,,
65cbb75fc5c8e692295e8b7e,TCR,2024-06-24_15h16.38.485,LearnStrategy,2023.2.3,MacIntel,59.88023952,5,1,15,-0.010818262,0.00578038,1,0,0,1.2227,rock_grid_rect_2,2,05,-1,-1,1.223,-0.156372362,-0.228649815,1,0,0,3.3783,Basalt_rect,2,3.378,1,14,0,14,0,1,,,,,,,,,,,,,
65cbb75fc5c8e692295e8b7e,TCR,2024-06-24_15h16.38.485,LearnStrategy,2023.2.3,MacIntel,59.88023952,5,1,16,-0.03349713,-0.012841841,1,0,0,0.9812,rock_grid_rect_2,3,07,-1,-1,0.981,0.057180085,-0.23598148,1,0,0,1.8615,Diorite_rect,3,1.861,1,15,0,15,0,1,,,,,,,,,,,,,
65cbb75fc5c8e692295e8b7e,TCR,2024-06-24_15h16.38.485,LearnStrategy,2023.2.3,MacIntel,59.88023952,5,2,1,,,,,,,,3,14,,,,,,,,,,,3,1.008,1,,,,,,0.08711834,-0.245203411,1,0,0,1.0079,Diorite_rect,0,0,0,0,1,
65cbb75fc5c8e692295e8b7e,TCR,2024-06-24_15h16.38.485,LearnStrategy,2023.2.3,MacIntel,59.88023952,5,2,2,,,,,,,,2,02,,,,,,,,,,,2,3.827,1,,,,,,-0.150599649,-0.252611516,1,0,0,3.8271,Basalt_rect,1,0,1,0,1,
65cbb75fc5c8e692295e8b7e,TCR,2024-06-24_15h16.38.485,LearnStrategy,2023.2.3,MacIntel,59.88023952,5,2,3,,,,,,,,2,08,,,,,,,,,,,2,3.058,1,,,,,,-0.140026914,-0.230816198,1,0,0,3.0584,Basalt_rect,2,0,2,0,1,
65cbb75fc5c8e692295e8b7e,TCR,2024-06-24_15h16.38.485,LearnStrategy,2023.2.3,MacIntel,59.88023952,5,2,4,,,,,,,,7,08,,,,,,,,,,,7,9.695,1,,,,,,0.072667464,-0.421978599,1,0,0,9.6953,Peridotite_rect,3,0,3,0,1,
65cbb75fc5c8e692295e8b7e,TCR,2024-06-24_15h16.38.485,LearnStrategy,2023.2.3,MacIntel,59.88023952,5,2,5,,,,,,,,5,02,,,,,,,,,,,5,1.139,1,,,,,,-0.385204005,-0.407209113,1,0,0,1.1394,Obsidian_rect,4,0,4,0,1,
65cbb75fc5c8e692295e8b7e,TCR,2024-06-24_15h16.38.485,LearnStrategy,2023.2.3,MacIntel,59.88023952,5,2,6,,,,,,,,6,07,,,,,,,,,,,6,9.876,1,,,,,,-0.048882516,-0.3883575,1,0,0,9.876,Pegmatite_rect,5,0,5,0,1,
65cbb75fc5c8e692295e8b7e,TCR,2024-06-24_15h16.38.485,LearnStrategy,2023.2.3,MacIntel,59.88023952,5,2,7,,,,,,,,5,07,,,,,,,,,,,5,1.093,1,,,,,,-0.35911425,-0.401419389,1,0,0,1.0926,Obsidian_rect,6,0,6,0,1,
65cbb75fc5c8e692295e8b7e,TCR,2024-06-24_15h16.38.485,LearnStrategy,2023.2.3,MacIntel,59.88023952,5,2,8,,,,,,,,6,16,,,,,,,,,,,3,1.729,0,,,,,,0.066703468,-0.244693665,1,0,0,1.7287,Diorite_rect,7,0,7,0,1,
65cbb75fc5c8e692295e8b7e,TCR,2024-06-24_15h16.38.485,LearnStrategy,2023.2.3,MacIntel,59.88023952,5,2,9,,,,,,,,4,12,,,,,,,,,,,2,11.294,0,,,,,,-0.123099587,-0.263872357,1,0,0,11.2943,Basalt_rect,8,0,8,0,1,
65cbb75fc5c8e692295e8b7e,TCR,2024-06-24_15h16.38.485,LearnStrategy,2023.2.3,MacIntel,59.88023952,5,2,10,,,,,,,,7,02,,,,,,,,,,,7,8.14,1,,,,,,0.090091687,-0.394478538,1,0,0,8.1404,Peridotite_rect,9,0,9,0,1,
65cbb75fc5c8e692295e8b7e,TCR,2024-06-24_15h16.38.485,LearnStrategy,2023.2.3,MacIntel,59.88023952,5,2,11,,,,,,,,3,06,,,,,,,,,,,1,14.973,0,,,,,,-0.415719977,-0.250406877,1,0,0,14.9734,Andesite_rect,10,0,10,0,1,
65cbb75fc5c8e692295e8b7e,TCR,2024-06-24_15h16.38.485,LearnStrategy,2023.2.3,MacIntel,59.88023952,5,2,12,,,,,,,,4,15,,,,,,,,,,,4,8.729,1,,,,,,0.353313391,-0.25161327,1,0,0,8.7286,Gabbro_rect,11,0,11,0,1,
65cbb75fc5c8e692295e8b7e,TCR,2024-06-24_15h16.38.485,LearnStrategy,2023.2.3,MacIntel,59.88023952,5,2,13,,,,,,,,8,09,,,,,,,,,,,8,3.076,1,,,,,,0.353292146,-0.413597728,1,0,0,3.0758,Pumice_rect,12,0,12,0,1,
65cbb75fc5c8e692295e8b7e,TCR,2024-06-24_15h16.38.485,LearnStrategy,2023.2.3,MacIntel,59.88023952,5,2,14,,,,,,,,1,06,,,,,,,,,,,1,12.108,1,,,,,,-0.366768686,-0.241711703,1,0,0,12.1084,Andesite_rect,13,0,13,0,1,
65cbb75fc5c8e692295e8b7e,TCR,2024-06-24_15h16.38.485,LearnStrategy,2023.2.3,MacIntel,59.88023952,5,2,15,,,,,,,,8,16,,,,,,,,,,,8,4.493,1,,,,,,0.324237367,-0.404851594,1,0,0,4.4932,Pumice_rect,14,0,14,0,1,
65cbb75fc5c8e692295e8b7e,TCR,2024-06-24_15h16.38.485,LearnStrategy,2023.2.3,MacIntel,59.88023952,5,2,16,,,,,,,,1,07,,,,,,,,,,,1,14.174,1,,,,,,-0.366696481,-0.250054245,1,0,0,14.1735,Andesite_rect,15,0,15,0,1,
65cbb75fc5c8e692295e8b7e,TCR,2024-06-24_15h16.38.485,LearnStrategy,2023.2.3,MacIntel,59.88023952,6,1,1,-0.016378594,0.021195553,1,0,0,1.047,rock_grid_rect_2,5,08,-1,-1,1.047,-0.43150472,-0.416970504,1,0,0,1.343,Obsidian_rect,5,1.343,1,0,0,0,0,1,,,,,,,,,,,,,
65cbb75fc5c8e692295e8b7e,TCR,2024-06-24_15h16.38.485,LearnStrategy,2023.2.3,MacIntel,59.88023952,6,1,2,-0.084822878,-0.020912608,1,0,0,0.9152,rock_grid_rect_2,8,15,-1,-1,0.915,0.407179399,-0.410904661,1,0,0,1.4431,Pumice_rect,8,1.443,1,1,0,1,0,1,,,,,,,,,,,,,
65cbb75fc5c8e692295e8b7e,TCR,2024-06-24_15h16.38.485,LearnStrategy,2023.2.3,MacIntel,59.88023952,6,1,3,0.036939338,0.00824409,1,0,0,0.7645,rock_grid_rect_2,4,09,-1,-1,0.764,-0.17143067,-0.398917458,1,0,0,12.5114,Pegmatite_rect,6,12.511,0,2,0,2,0,1,,,,,,,,,,,,,
65cbb75fc5c8e692295e8b7e,TCR,2024-06-24_15h16.38.485,LearnStrategy,2023.2.3,MacIntel,59.88023952,6,1,4,-0.088127684,-0.015190855,1,0,0,1.022,rock_grid_rect_2,6,13,-1,-1,1.022,-0.087078478,-0.39528134,1,0,0,1.3441,Pegmatite_rect,6,1.344,1,3,0,3,0,1,,,,,,,,,,,,,
65cbb75fc5c8e692295e8b7e,TCR,2024-06-24_15h16.38.485,LearnStrategy,2023.2.3,MacIntel,59.88023952,6,1,5,-0.035162237,-0.004359049,1,0,0,0.7486,rock_grid_rect_2,3,16,-1,-1,0.749,0.131197478,-0.266934993,1,0,0,1.4118,Diorite_rect,3,1.412,1,4,0,4,0,1,,,,,,,,,,,,,
65cbb75fc5c8e692295e8b7e,TCR,2024-06-24_15h16.38.485,LearnStrategy,2023.2.3,MacIntel,59.88023952,6,1,6,-0.017122041,-0.0083647,1,0,0,0.5989,rock_grid_rect_2,2,09,-1,-1,0.599,-0.165534791,-0.245704614,1,0,0,1.043,Basalt_rect,2,1.043,1,5,0,5,0,1,,,,,,,,,,,,,
65cbb75fc5c8e692295e8b7e,TCR,2024-06-24_15h16.38.485,LearnStrategy,2023.2.3,MacIntel,59.88023952,6,1,7,-0.016484749,0.024020327,1,0,0,0.6644,rock_grid_rect_2,3,10,-1,-1,0.664,-0.385603289,-0.270405381,1,0,0,2.4283,Andesite_rect,1,2.428,0,6,0,6,0,1,,,,,,,,,,,,,
65cbb75fc5c8e692295e8b7e,TCR,2024-06-24_15h16.38.485,LearnStrategy,2023.2.3,MacIntel,59.88023952,6,1,8,-0.027456767,0.002577567,1,0,0,1.0298,rock_grid_rect_2,7,13,-1,-1,1.03,-0.055126719,-0.416830328,1,0,0,1.2934,Pegmatite_rect,6,1.293,0,7,0,7,0,1,,,,,,,,,,,,,
65cbb75fc5c8e692295e8b7e,TCR,2024-06-24_15h16.38.485,LearnStrategy,2023.2.3,MacIntel,59.88023952,6,1,9,-0.016790582,-0.000523325,1,0,0,0.6476,rock_grid_rect_2,3,07,-1,-1,0.648,0.068304984,-0.257216093,1,0,0,0.9788,Diorite_rect,3,0.979,1,8,0,8,0,1,,,,,,,,,,,,,
65cbb75fc5c8e692295e8b7e,TCR,2024-06-24_15h16.38.485,LearnStrategy,2023.2.3,MacIntel,59.88023952,6,1,10,-0.051082848,-0.00980045,1,0,0,0.7164,rock_grid_rect_2,6,05,-1,-1,0.716,0.076983073,-0.237544667,1,0,0,0.8956,Diorite_rect,3,0.896,0,9,0,9,0,1,,,,,,,,,,,,,
65cbb75fc5c8e692295e8b7e,TCR,2024-06-24_15h16.38.485,LearnStrategy,2023.2.3,MacIntel,59.88023952,6,1,11,-0.045679704,-0.017068379,1,0,0,0.7332,rock_grid_rect_2,4,16,-1,-1,0.733,0.325843044,-0.249289773,1,0,0,6.3939,Gabbro_rect,4,6.394,1,10,0,10,0,1,,,,,,,,,,,,,
65cbb75fc5c8e692295e8b7e,TCR,2024-06-24_15h16.38.485,LearnStrategy,2023.2.3,MacIntel,59.88023952,6,1,12,-0.057739112,-0.010960082,1,0,0,1.0315,rock_grid_rect_2,4,09,-1,-1,1.032,0.087126809,-0.406627162,1,0,0,4.1931,Peridotite_rect,7,4.193,0,11,0,11,0,1,,,,,,,,,,,,,
65cbb75fc5c8e692295e8b7e,TCR,2024-06-24_15h16.38.485,LearnStrategy,2023.2.3,MacIntel,59.88023952,6,1,13,-0.015176435,0.021216799,1,0,0,0.7812,rock_grid_rect_2,7,12,-1,-1,0.781,0.084867048,-0.407238755,1,0,0,2.6238,Peridotite_rect,7,2.624,1,12,0,12,0,1,,,,,,,,,,,,,
65cbb75fc5c8e692295e8b7e,TCR,2024-06-24_15h16.38.485,LearnStrategy,2023.2.3,MacIntel,59.88023952,6,1,14,0.001415344,-0.022726397,1,0,0,0.8639,rock_grid_rect_2,1,03,-1,-1,0.864,-0.103037346,-0.258295014,1,0,0,1.4283,Basalt_rect,2,1.428,0,13,0,13,0,1,,,,,,,,,,,,,
65cbb75fc5c8e692295e8b7e,TCR,2024-06-24_15h16.38.485,LearnStrategy,2023.2.3,MacIntel,59.88023952,6,1,15,-0.033382507,-0.015734586,1,0,0,0.7492,rock_grid_rect_2,1,14,-1,-1,0.749,-0.082554575,-0.407833556,1,0,0,1.6751,Pegmatite_rect,6,1.675,0,14,0,14,0,1,,,,,,,,,,,,,
65cbb75fc5c8e692295e8b7e,TCR,2024-06-24_15h16.38.485,LearnStrategy,2023.2.3,MacIntel,59.88023952,6,1,16,-0.016663182,0.014904588,1,0,0,0.581,rock_grid_rect_2,2,14,-1,-1,0.581,0.354498539,-0.269776778,1,0,0,1.3613,Gabbro_rect,4,1.361,0,15,0,15,0,1,,,,,,,,,,,,,
65cbb75fc5c8e692295e8b7e,TCR,2024-06-24_15h16.38.485,LearnStrategy,2023.2.3,MacIntel,59.88023952,6,2,1,,,,,,,,3,09,,,,,,,,,,,3,1.093,1,,,,,,0.042406219,-0.235633157,1,0,0,1.0929,Diorite_rect,0,0,0,0,1,
65cbb75fc5c8e692295e8b7e,TCR,2024-06-24_15h16.38.485,LearnStrategy,2023.2.3,MacIntel,59.88023952,6,2,2,,,,,,,,1,01,,,,,,,,,,,4,15.513,0,,,,,,0.355458529,-0.239358491,1,0,0,15.5126,Gabbro_rect,1,0,1,0,1,
65cbb75fc5c8e692295e8b7e,TCR,2024-06-24_15h16.38.485,LearnStrategy,2023.2.3,MacIntel,59.88023952,6,2,3,,,,,,,,7,07,,,,,,,,,,,7,6.128,1,,,,,,0.086646851,-0.398662585,1,0,0,6.1284,Peridotite_rect,2,0,2,0,1,
65cbb75fc5c8e692295e8b7e,TCR,2024-06-24_15h16.38.485,LearnStrategy,2023.2.3,MacIntel,59.88023952,6,2,4,,,,,,,,3,13,,,,,,,,,,,7,1.427,0,,,,,,0.052388606,-0.403339295,1,0,0,1.4274,Peridotite_rect,3,0,3,0,1,
65cbb75fc5c8e692295e8b7e,TCR,2024-06-24_15h16.38.485,LearnStrategy,2023.2.3,MacIntel,59.88023952,6,2,5,,,,,,,,5,10,,,,,,,,,,,5,0.995,1,,,,,,-0.39601033,-0.413839897,1,0,0,0.9952,Obsidian_rect,4,0,4,0,1,
65cbb75fc5c8e692295e8b7e,TCR,2024-06-24_15h16.38.485,LearnStrategy,2023.2.3,MacIntel,59.88023952,6,2,6,,,,,,,,2,10,,,,,,,,,,,2,6.145,1,,,,,,-0.137873307,-0.235773333,1,0,0,6.1452,Basalt_rect,5,0,5,0,1,
65cbb75fc5c8e692295e8b7e,TCR,2024-06-24_15h16.38.485,LearnStrategy,2023.2.3,MacIntel,59.88023952,6,2,7,,,,,,,,8,06,,,,,,,,,,,8,1.244,1,,,,,,0.307620108,-0.392320697,1,0,0,1.2438,Pumice_rect,6,0,6,0,1,
65cbb75fc5c8e692295e8b7e,TCR,2024-06-24_15h16.38.485,LearnStrategy,2023.2.3,MacIntel,59.88023952,6,2,8,,,,,,,,6,15,,,,,,,,,,,6,3.076,1,,,,,,-0.113215031,-0.388310775,1,0,0,3.0758,Pegmatite_rect,7,0,7,0,1,
65cbb75fc5c8e692295e8b7e,TCR,2024-06-24_15h16.38.485,LearnStrategy,2023.2.3,MacIntel,59.88023952,6,2,9,,,,,,,,7,04,,,,,,,,,,,7,1.694,1,,,,,,0.09200327,-0.418843758,1,0,0,1.6942,Peridotite_rect,8,0,8,0,1,
65cbb75fc5c8e692295e8b7e,TCR,2024-06-24_15h16.38.485,LearnStrategy,2023.2.3,MacIntel,59.88023952,6,2,10,,,,,,,,8,10,,,,,,,,,,,4,1.06,0,,,,,,0.417199824,-0.255873758,1,0,0,1.0598,Gabbro_rect,9,0,9,0,1,
65cbb75fc5c8e692295e8b7e,TCR,2024-06-24_15h16.38.485,LearnStrategy,2023.2.3,MacIntel,59.88023952,6,2,11,,,,,,,,2,11,,,,,,,,,,,4,6.043,0,,,,,,0.329105359,-0.261799424,1,0,0,6.0433,Gabbro_rect,10,0,10,0,1,
65cbb75fc5c8e692295e8b7e,TCR,2024-06-24_15h16.38.485,LearnStrategy,2023.2.3,MacIntel,59.88023952,6,2,12,,,,,,,,4,11,,,,,,,,,,,2,2.261,0,,,,,,-0.135902368,-0.250500328,1,0,0,2.2605,Basalt_rect,11,0,11,0,1,
65cbb75fc5c8e692295e8b7e,TCR,2024-06-24_15h16.38.485,LearnStrategy,2023.2.3,MacIntel,59.88023952,6,2,13,,,,,,,,1,09,,,,,,,,,,,2,0.642,0,,,,,,-0.12738132,-0.247781781,1,0,0,0.6415,Basalt_rect,12,0,12,0,1,
65cbb75fc5c8e692295e8b7e,TCR,2024-06-24_15h16.38.485,LearnStrategy,2023.2.3,MacIntel,59.88023952,6,2,14,,,,,,,,6,06,,,,,,,,,,,6,5.443,1,,,,,,-0.091385691,-0.392855923,1,0,0,5.4425,Pegmatite_rect,13,0,13,0,1,
65cbb75fc5c8e692295e8b7e,TCR,2024-06-24_15h16.38.485,LearnStrategy,2023.2.3,MacIntel,59.88023952,6,2,15,,,,,,,,4,08,,,,,,,,,,,4,6.209,1,,,,,,0.337329043,-0.263137379,1,0,0,6.2095,Gabbro_rect,14,0,14,0,1,
65cbb75fc5c8e692295e8b7e,TCR,2024-06-24_15h16.38.485,LearnStrategy,2023.2.3,MacIntel,59.88023952,6,2,16,,,,,,,,5,05,,,,,,,,,,,5,1.259,1,,,,,,-0.412784777,-0.381641808,1,0,0,1.2588,Obsidian_rect,15,0,15,0,1,
65cbb75fc5c8e692295e8b7e,TCR,2024-06-24_15h16.38.485,LearnStrategy,2023.2.3,MacIntel,59.88023952,7,1,1,0.000293932,-0.005166122,1,0,0,1.4804,rock_grid_rect_2,3,16,-1,-1,1.48,0.116143332,-0.260210758,1,0,0,0.8938,Diorite_rect,3,0.894,1,0,0,0,0,1,,,,,,,,,,,,,
65cbb75fc5c8e692295e8b7e,TCR,2024-06-24_15h16.38.485,LearnStrategy,2023.2.3,MacIntel,59.88023952,7,1,2,0.019939879,-0.010930294,1,0,0,0.9329,rock_grid_rect_2,1,10,-1,-1,0.933,-0.347373415,-0.241677754,1,0,0,4.8277,Andesite_rect,1,4.828,1,1,0,1,0,1,,,,,,,,,,,,,
65cbb75fc5c8e692295e8b7e,TCR,2024-06-24_15h16.38.485,LearnStrategy,2023.2.3,MacIntel,59.88023952,7,1,3,-0.001209825,-0.007816734,1,0,0,1.1983,rock_grid_rect_2,4,09,-1,-1,1.198,-0.176821111,-0.251600567,1,0,0,5.9753,Basalt_rect,2,5.975,0,2,0,2,0,1,,,,,,,,,,,,,
65cbb75fc5c8e692295e8b7e,TCR,2024-06-24_15h16.38.485,LearnStrategy,2023.2.3,MacIntel,59.88023952,7,1,4,-0.073927373,-0.010454607,1,0,0,1.1386,rock_grid_rect_2,1,04,-1,-1,1.139,-0.385463112,-0.233955274,1,0,0,4.2599,Andesite_rect,1,4.26,1,3,0,3,0,1,,,,,,,,,,,,,
65cbb75fc5c8e692295e8b7e,TCR,2024-06-24_15h16.38.485,LearnStrategy,2023.2.3,MacIntel,59.88023952,7,1,5,-0.040535667,-0.015280071,1,0,0,0.9815,rock_grid_rect_2,6,11,-1,-1,0.981,-0.093573319,-0.406924526,1,0,0,1.4942,Pegmatite_rect,6,1.494,1,4,0,4,0,1,,,,,,,,,,,,,
65cbb75fc5c8e692295e8b7e,TCR,2024-06-24_15h16.38.485,LearnStrategy,2023.2.3,MacIntel,59.88023952,7,1,6,-0.018302808,0.000984666,1,0,0,0.8986,rock_grid_rect_2,8,15,-1,-1,0.899,0.349991648,-0.267211111,1,0,0,2.4783,Gabbro_rect,4,2.478,0,5,0,5,0,1,,,,,,,,,,,,,
65cbb75fc5c8e692295e8b7e,TCR,2024-06-24_15h16.38.485,LearnStrategy,2023.2.3,MacIntel,59.88023952,7,1,7,-0.132011377,0.009420733,1,0,0,1.5975,rock_grid_rect_2,3,07,-1,-1,1.597,0.105995434,-0.233683463,1,0,0,1.1261,Diorite_rect,3,1.126,1,6,0,6,0,1,,,,,,,,,,,,,
65cbb75fc5c8e692295e8b7e,TCR,2024-06-24_15h16.38.485,LearnStrategy,2023.2.3,MacIntel,59.88023952,7,1,8,-0.004106805,-0.017420938,1,0,0,1.2986,rock_grid_rect_2,2,12,-1,-1,1.299,-0.071765297,-0.266985953,1,0,0,1.095,Basalt_rect,2,1.095,1,7,0,7,0,1,,,,,,,,,,,,,
65cbb75fc5c8e692295e8b7e,TCR,2024-06-24_15h16.38.485,LearnStrategy,2023.2.3,MacIntel,59.88023952,7,1,9,-0.043169305,0.018867748,1,0,0,0.7989,rock_grid_rect_2,6,08,-1,-1,0.799,-0.100280543,-0.400387194,1,0,0,1.1943,Pegmatite_rect,6,1.194,1,8,0,8,0,1,,,,,,,,,,,,,
65cbb75fc5c8e692295e8b7e,TCR,2024-06-24_15h16.38.485,LearnStrategy,2023.2.3,MacIntel,59.88023952,7,1,10,-0.03396862,0.016875564,1,0,0,0.7478,rock_grid_rect_2,4,09,-1,-1,0.748,0.128389714,-0.409163115,1,0,0,3.4118,Peridotite_rect,7,3.412,0,9,0,9,0,1,,,,,,,,,,,,,
65cbb75fc5c8e692295e8b7e,TCR,2024-06-24_15h16.38.485,LearnStrategy,2023.2.3,MacIntel,59.88023952,7,1,11,-0.04626589,-0.014876516,1,0,0,1.4985,rock_grid_rect_2,7,16,-1,-1,1.498,0.122442802,-0.408827421,1,0,0,4.3602,Peridotite_rect,7,4.36,1,10,0,10,0,1,,,,,,,,,,,,,
65cbb75fc5c8e692295e8b7e,TCR,2024-06-24_15h16.38.485,LearnStrategy,2023.2.3,MacIntel,59.88023952,7,1,12,-0.007063213,-0.020751187,1,0,0,0.6967,rock_grid_rect_2,5,16,-1,-1,0.697,-0.377269179,-0.416116596,1,0,0,0.9946,Obsidian_rect,5,0.995,1,11,0,11,0,1,,,,,,,,,,,,,
65cbb75fc5c8e692295e8b7e,TCR,2024-06-24_15h16.38.485,LearnStrategy,2023.2.3,MacIntel,59.88023952,7,1,13,0.001105277,-0.008891421,1,0,0,0.7645,rock_grid_rect_2,3,08,-1,-1,0.764,0.12372987,-0.250351682,1,0,0,1.4436,Diorite_rect,3,1.444,1,12,0,12,0,1,,,,,,,,,,,,,
65cbb75fc5c8e692295e8b7e,TCR,2024-06-24_15h16.38.485,LearnStrategy,2023.2.3,MacIntel,59.88023952,7,1,14,-0.00199985,-0.014817051,1,0,0,1.1321,rock_grid_rect_2,2,06,-1,-1,1.132,-0.138111169,-0.24874177,1,0,0,3.3633,Basalt_rect,2,3.363,1,13,0,13,0,1,,,,,,,,,,,,,
65cbb75fc5c8e692295e8b7e,TCR,2024-06-24_15h16.38.485,LearnStrategy,2023.2.3,MacIntel,59.88023952,7,1,15,-0.043441115,-0.010700974,1,0,0,0.8814,rock_grid_rect_2,1,10,-1,-1,0.881,0.398114656,-0.23637653,1,0,0,9.6939,Gabbro_rect,4,9.694,0,14,0,14,0,1,,,,,,,,,,,,,
65cbb75fc5c8e692295e8b7e,TCR,2024-06-24_15h16.38.485,LearnStrategy,2023.2.3,MacIntel,59.88023952,7,1,16,0.008500606,0.00038147,1,0,0,0.8207,rock_grid_rect_2,4,01,-1,-1,0.821,-0.419971995,-0.235696893,1,0,0,4.5597,Andesite_rect,1,4.56,0,15,0,15,0,1,,,,,,,,,,,,,
65cbb75fc5c8e692295e8b7e,TCR,2024-06-24_15h16.38.485,LearnStrategy,2023.2.3,MacIntel,59.88023952,7,2,1,,,,,,,,8,09,,,,,,,,,,,8,2.575,1,,,,,,0.375677884,-0.415827847,1,0,0,2.5752,Pumice_rect,0,0,0,0,1,
65cbb75fc5c8e692295e8b7e,TCR,2024-06-24_15h16.38.485,LearnStrategy,2023.2.3,MacIntel,59.88023952,7,2,2,,,,,,,,4,12,,,,,,,,,,,2,1.592,0,,,,,,-0.064352884,-0.251188506,1,0,0,1.5919,Basalt_rect,1,0,1,0,1,
65cbb75fc5c8e692295e8b7e,TCR,2024-06-24_15h16.38.485,LearnStrategy,2023.2.3,MacIntel,59.88023952,7,2,3,,,,,,,,1,07,,,,,,,,,,,3,8.54,0,,,,,,0.0781131,-0.261463877,1,0,0,8.5403,Diorite_rect,2,0,2,0,1,
65cbb75fc5c8e692295e8b7e,TCR,2024-06-24_15h16.38.485,LearnStrategy,2023.2.3,MacIntel,59.88023952,7,2,4,,,,,,,,7,15,,,,,,,,,,,7,2.962,1,,,,,,0.075288325,-0.394924547,1,0,0,2.9616,Peridotite_rect,3,0,3,0,1,
65cbb75fc5c8e692295e8b7e,TCR,2024-06-24_15h16.38.485,LearnStrategy,2023.2.3,MacIntel,59.88023952,7,2,5,,,,,,,,6,07,,,,,,,,,,,6,0.912,1,,,,,,-0.061549356,-0.393561039,1,0,0,0.9119,Pegmatite_rect,4,0,4,0,1,
65cbb75fc5c8e692295e8b7e,TCR,2024-06-24_15h16.38.485,LearnStrategy,2023.2.3,MacIntel,59.88023952,7,2,6,,,,,,,,2,02,,,,,,,,,,,2,4.363,1,,,,,,-0.104099328,-0.233152472,1,0,0,4.3628,Basalt_rect,5,0,5,0,1,
65cbb75fc5c8e692295e8b7e,TCR,2024-06-24_15h16.38.485,LearnStrategy,2023.2.3,MacIntel,59.88023952,7,2,7,,,,,,,,5,10,,,,,,,,,,,5,1.042,1,,,,,,-0.374822443,-0.413695486,1,0,0,1.0417,Obsidian_rect,6,0,6,0,1,
65cbb75fc5c8e692295e8b7e,TCR,2024-06-24_15h16.38.485,LearnStrategy,2023.2.3,MacIntel,59.88023952,7,2,8,,,,,,,,3,09,,,,,,,,,,,3,1.211,1,,,,,,0.064265347,-0.230013396,1,0,0,1.2115,Diorite_rect,7,0,7,0,1,
65cbb75fc5c8e692295e8b7e,TCR,2024-06-24_15h16.38.485,LearnStrategy,2023.2.3,MacIntel,59.88023952,7,2,9,,,,,,,,3,02,,,,,,,,,,,7,9.092,0,,,,,,0.090537769,-0.417938889,1,0,0,9.0921,Peridotite_rect,8,0,8,0,1,
65cbb75fc5c8e692295e8b7e,TCR,2024-06-24_15h16.38.485,LearnStrategy,2023.2.3,MacIntel,59.88023952,7,2,10,,,,,,,,7,08,,,,,,,,,,,7,1.276,1,,,,,,0.119401412,-0.39972026,1,0,0,1.2763,Peridotite_rect,9,0,9,0,1,
65cbb75fc5c8e692295e8b7e,TCR,2024-06-24_15h16.38.485,LearnStrategy,2023.2.3,MacIntel,59.88023952,7,2,11,,,,,,,,2,11,,,,,,,,,,,1,31.062,0,,,,,,-0.361960197,-0.243975772,1,0,0,31.0623,Andesite_rect,10,0,10,0,1,
65cbb75fc5c8e692295e8b7e,TCR,2024-06-24_15h16.38.485,LearnStrategy,2023.2.3,MacIntel,59.88023952,7,2,12,,,,,,,,5,07,,,,,,,,,,,5,1.68,1,,,,,,-0.376933595,-0.397286228,1,0,0,1.6797,Obsidian_rect,11,0,11,0,1,
65cbb75fc5c8e692295e8b7e,TCR,2024-06-24_15h16.38.485,LearnStrategy,2023.2.3,MacIntel,59.88023952,7,2,13,,,,,,,,8,06,,,,,,,,,,,8,1.175,1,,,,,,0.36345282,-0.39768135,1,0,0,1.1747,Pumice_rect,12,0,12,0,1,
65cbb75fc5c8e692295e8b7e,TCR,2024-06-24_15h16.38.485,LearnStrategy,2023.2.3,MacIntel,59.88023952,7,2,14,,,,,,,,4,11,,,,,,,,,,,2,1.176,0,,,,,,-0.108550952,-0.250844417,1,0,0,1.1757,Basalt_rect,13,0,13,0,1,
65cbb75fc5c8e692295e8b7e,TCR,2024-06-24_15h16.38.485,LearnStrategy,2023.2.3,MacIntel,59.88023952,7,2,15,,,,,,,,6,12,,,,,,,,,,,1,7.825,0,,,,,,-0.393253527,-0.266960473,1,0,0,7.8249,Andesite_rect,14,0,14,0,1,
65cbb75fc5c8e692295e8b7e,TCR,2024-06-24_15h16.38.485,LearnStrategy,2023.2.3,MacIntel,59.88023952,7,2,16,,,,,,,,1,01,,,,,,,,,,,1,2.061,1,,,,,,-0.330904764,-0.237735803,1,0,0,2.0613,Andesite_rect,15,0,15,0,1,
65cbb75fc5c8e692295e8b7e,TCR,2024-06-24_15h16.38.485,LearnStrategy,2023.2.3,MacIntel,59.88023952,8,1,1,-0.021701137,-0.023529235,1,0,0,1.3157,rock_grid_rect_2,2,04,-1,-1,1.316,-0.091942162,-0.268884613,1,0,0,1.7075,Basalt_rect,2,1.707,1,0,0,0,0,1,,,,,,,,,,,,,
65cbb75fc5c8e692295e8b7e,TCR,2024-06-24_15h16.38.485,LearnStrategy,2023.2.3,MacIntel,59.88023952,8,1,2,-0.015044801,0.00609052,1,0,0,1.115,rock_grid_rect_2,1,03,-1,-1,1.115,-0.366934343,-0.248482663,1,0,0,1.8953,Andesite_rect,1,1.895,1,1,0,1,0,1,,,,,,,,,,,,,
65cbb75fc5c8e692295e8b7e,TCR,2024-06-24_15h16.38.485,LearnStrategy,2023.2.3,MacIntel,59.88023952,8,1,3,-0.03593109,-0.021001825,1,0,0,0.8312,rock_grid_rect_2,6,13,-1,-1,0.831,-0.064505837,-0.408152019,1,0,0,1.5135,Pegmatite_rect,6,1.514,1,2,0,2,0,1,,,,,,,,,,,,,
65cbb75fc5c8e692295e8b7e,TCR,2024-06-24_15h16.38.485,LearnStrategy,2023.2.3,MacIntel,59.88023952,8,1,4,-0.049634359,0.008787821,1,0,0,1.0978,rock_grid_rect_2,3,10,-1,-1,1.098,0.162524794,-0.249294007,1,0,0,1.0942,Diorite_rect,3,1.094,1,3,0,3,0,1,,,,,,,,,,,,,
65cbb75fc5c8e692295e8b7e,TCR,2024-06-24_15h16.38.485,LearnStrategy,2023.2.3,MacIntel,59.88023952,8,1,5,-0.046869086,-0.00588825,1,0,0,0.9332,rock_grid_rect_2,2,05,-1,-1,0.933,-0.068490206,-0.260771464,1,0,0,1.1108,Basalt_rect,2,1.111,1,4,0,4,0,1,,,,,,,,,,,,,
65cbb75fc5c8e692295e8b7e,TCR,2024-06-24_15h16.38.485,LearnStrategy,2023.2.3,MacIntel,59.88023952,8,1,6,-0.006009773,-0.00642771,1,0,0,0.7974,rock_grid_rect_2,4,10,-1,-1,0.797,-0.095616464,-0.237769825,1,0,0,1.6949,Basalt_rect,2,1.695,0,5,0,5,0,1,,,,,,,,,,,,,
65cbb75fc5c8e692295e8b7e,TCR,2024-06-24_15h16.38.485,LearnStrategy,2023.2.3,MacIntel,59.88023952,8,1,7,-0.059960689,-0.006657103,1,0,0,0.7631,rock_grid_rect_2,7,13,-1,-1,0.763,0.052953547,-0.414468574,1,0,0,1.6786,Peridotite_rect,7,1.679,1,6,0,6,0,1,,,,,,,,,,,,,
65cbb75fc5c8e692295e8b7e,TCR,2024-06-24_15h16.38.485,LearnStrategy,2023.2.3,MacIntel,59.88023952,8,1,8,-0.093713496,-0.001389864,1,0,0,0.8646,rock_grid_rect_2,4,09,-1,-1,0.865,0.370096307,-0.23971105,1,0,0,0.9792,Gabbro_rect,4,0.979,1,7,0,7,0,1,,,,,,,,,,,,,
65cbb75fc5c8e692295e8b7e,TCR,2024-06-24_15h16.38.485,LearnStrategy,2023.2.3,MacIntel,59.88023952,8,1,9,-0.004680214,2.89114E-05,1,0,0,0.6316,rock_grid_rect_2,1,02,-1,-1,0.632,0.088282243,-0.25556369,1,0,0,1.4428,Diorite_rect,3,1.443,0,8,0,8,0,1,,,,,,,,,,,,,
65cbb75fc5c8e692295e8b7e,TCR,2024-06-24_15h16.38.485,LearnStrategy,2023.2.3,MacIntel,59.88023952,8,1,10,-0.037566482,-0.001338831,1,0,0,0.6317,rock_grid_rect_2,6,08,-1,-1,0.632,-0.076246636,-0.411975112,1,0,0,1.1454,Pegmatite_rect,6,1.145,1,9,0,9,0,1,,,,,,,,,,,,,
65cbb75fc5c8e692295e8b7e,TCR,2024-06-24_15h16.38.485,LearnStrategy,2023.2.3,MacIntel,59.88023952,8,1,11,-0.034367904,-0.007502396,1,0,0,0.5997,rock_grid_rect_2,8,13,-1,-1,0.6,0.318681343,-0.414876326,1,0,0,1.6449,Pumice_rect,8,1.645,1,10,0,10,0,1,,,,,,,,,,,,,
65cbb75fc5c8e692295e8b7e,TCR,2024-06-24_15h16.38.485,LearnStrategy,2023.2.3,MacIntel,59.88023952,8,1,12,0.021834378,-0.001610751,1,0,0,0.6994,rock_grid_rect_2,4,16,-1,-1,0.699,-0.092163159,-0.26176971,1,0,0,1.6947,Basalt_rect,2,1.695,0,11,0,11,0,1,,,,,,,,,,,,,
65cbb75fc5c8e692295e8b7e,TCR,2024-06-24_15h16.38.485,LearnStrategy,2023.2.3,MacIntel,59.88023952,8,1,13,-0.01053791,-0.001122251,1,0,0,0.6823,rock_grid_rect_2,3,10,-1,-1,0.682,0.118908677,-0.251961594,1,0,0,1.224,Diorite_rect,3,1.224,1,12,0,12,0,1,,,,,,,,,,,,,
65cbb75fc5c8e692295e8b7e,TCR,2024-06-24_15h16.38.485,LearnStrategy,2023.2.3,MacIntel,59.88023952,8,1,14,-0.031759746,-0.01766307,1,0,0,1.8154,rock_grid_rect_2,3,11,-1,-1,1.815,0.085508429,-0.230786483,1,0,0,1.5112,Diorite_rect,3,1.511,1,13,0,13,0,1,,,,,,,,,,,,,
65cbb75fc5c8e692295e8b7e,TCR,2024-06-24_15h16.38.485,LearnStrategy,2023.2.3,MacIntel,59.88023952,8,1,15,-0.021021428,0.007492284,1,0,0,0.6483,rock_grid_rect_2,1,10,-1,-1,0.648,-0.102689022,-0.25792121,1,0,0,2.0287,Basalt_rect,2,2.029,0,14,0,14,0,1,,,,,,,,,,,,,
65cbb75fc5c8e692295e8b7e,TCR,2024-06-24_15h16.38.485,LearnStrategy,2023.2.3,MacIntel,59.88023952,8,1,16,-0.067687404,-0.021286412,1,0,0,0.7648,rock_grid_rect_2,4,16,-1,-1,0.765,0.347413205,-0.248627074,1,0,0,1.1924,Gabbro_rect,4,1.192,1,15,0,15,0,1,,,,,,,,,,,,,
65cbb75fc5c8e692295e8b7e,TCR,2024-06-24_15h16.38.485,LearnStrategy,2023.2.3,MacIntel,59.88023952,8,2,1,,,,,,,,7,04,,,,,,,,,,,6,2.861,0,,,,,,-0.147983022,-0.420666051,1,0,0,2.8613,Pegmatite_rect,0,0,0,0,1,
65cbb75fc5c8e692295e8b7e,TCR,2024-06-24_15h16.38.485,LearnStrategy,2023.2.3,MacIntel,59.88023952,8,2,2,,,,,,,,2,10,,,,,,,,,,,2,4.452,1,,,,,,-0.115398352,-0.260945662,1,0,0,4.452,Basalt_rect,1,0,1,0,1,
65cbb75fc5c8e692295e8b7e,TCR,2024-06-24_15h16.38.485,LearnStrategy,2023.2.3,MacIntel,59.88023952,8,2,3,,,,,,,,5,05,,,,,,,,,,,5,1.119,1,,,,,,-0.340793555,-0.396152186,1,0,0,1.1194,Obsidian_rect,2,0,2,0,1,
65cbb75fc5c8e692295e8b7e,TCR,2024-06-24_15h16.38.485,LearnStrategy,2023.2.3,MacIntel,59.88023952,8,2,4,,,,,,,,8,02,,,,,,,,,,,8,1.262,1,,,,,,0.398832476,-0.385333121,1,0,0,1.2615,Pumice_rect,3,0,3,0,1,
65cbb75fc5c8e692295e8b7e,TCR,2024-06-24_15h16.38.485,LearnStrategy,2023.2.3,MacIntel,59.88023952,8,2,5,,,,,,,,8,16,,,,,,,,,,,8,6.393,1,,,,,,0.407667826,-0.391037863,1,0,0,6.393,Pumice_rect,4,0,4,0,1,
65cbb75fc5c8e692295e8b7e,TCR,2024-06-24_15h16.38.485,LearnStrategy,2023.2.3,MacIntel,59.88023952,8,2,6,,,,,,,,7,02,,,,,,,,,,,7,2.535,1,,,,,,0.043931295,-0.402587526,1,0,0,2.5349,Peridotite_rect,5,0,5,0,1,
65cbb75fc5c8e692295e8b7e,TCR,2024-06-24_15h16.38.485,LearnStrategy,2023.2.3,MacIntel,59.88023952,8,2,7,,,,,,,,3,15,,,,,,,,,,,1,1.887,0,,,,,,-0.319626913,-0.254314879,1,0,0,1.8867,Andesite_rect,6,0,6,0,1,
65cbb75fc5c8e692295e8b7e,TCR,2024-06-24_15h16.38.485,LearnStrategy,2023.2.3,MacIntel,59.88023952,8,2,8,,,,,,,,2,16,,,,,,,,,,,4,6.712,0,,,,,,0.343760148,-0.238339,1,0,0,6.7117,Gabbro_rect,7,0,7,0,1,
65cbb75fc5c8e692295e8b7e,TCR,2024-06-24_15h16.38.485,LearnStrategy,2023.2.3,MacIntel,59.88023952,8,2,9,,,,,,,,3,14,,,,,,,,,,,3,0.933,1,,,,,,0.048106727,-0.251770458,1,0,0,0.9331,Diorite_rect,8,0,8,0,1,
65cbb75fc5c8e692295e8b7e,TCR,2024-06-24_15h16.38.485,LearnStrategy,2023.2.3,MacIntel,59.88023952,8,2,10,,,,,,,,6,15,,,,,,,,,,,6,1.224,1,,,,,,-0.227624446,-0.404014697,1,0,0,1.2244,Pegmatite_rect,9,0,9,0,1,
65cbb75fc5c8e692295e8b7e,TCR,2024-06-24_15h16.38.485,LearnStrategy,2023.2.3,MacIntel,59.88023952,8,2,11,,,,,,,,1,06,,,,,,,,,,,1,2.075,1,,,,,,-0.398665177,-0.264556228,1,0,0,2.0747,Andesite_rect,10,0,10,0,1,
65cbb75fc5c8e692295e8b7e,TCR,2024-06-24_15h16.38.485,LearnStrategy,2023.2.3,MacIntel,59.88023952,8,2,12,,,,,,,,1,11,,,,,,,,,,,1,1.102,1,,,,,,-0.375663502,-0.252437245,1,0,0,1.1016,Andesite_rect,11,0,11,0,1,
65cbb75fc5c8e692295e8b7e,TCR,2024-06-24_15h16.38.485,LearnStrategy,2023.2.3,MacIntel,59.88023952,8,2,13,,,,,,,,4,08,,,,,,,,,,,1,1.792,0,,,,,,-0.353936154,-0.270044354,1,0,0,1.7921,Andesite_rect,12,0,12,0,1,
65cbb75fc5c8e692295e8b7e,TCR,2024-06-24_15h16.38.485,LearnStrategy,2023.2.3,MacIntel,59.88023952,8,2,14,,,,,,,,5,06,,,,,,,,,,,5,1.335,1,,,,,,-0.392000445,-0.400845979,1,0,0,1.3347,Obsidian_rect,13,0,13,0,1,
65cbb75fc5c8e692295e8b7e,TCR,2024-06-24_15h16.38.485,LearnStrategy,2023.2.3,MacIntel,59.88023952,8,2,15,,,,,,,,6,09,,,,,,,,,,,6,1.308,1,,,,,,-0.082223263,-0.406818226,1,0,0,1.3081,Pegmatite_rect,14,0,14,0,1,
65cbb75fc5c8e692295e8b7e,TCR,2024-06-24_15h16.38.485,LearnStrategy,2023.2.3,MacIntel,59.88023952,8,2,16,,,,,,,,4,15,,,,,,,,,,,4,6.36,1,,,,,,0.382758912,-0.23009407,1,0,0,6.3598,Gabbro_rect,15,0,15,0,1,
65cbb75fc5c8e692295e8b7e,TCR,2024-06-24_15h16.38.485,LearnStrategy,2023.2.3,MacIntel,59.88023952,9,1,1,-0.013358449,-0.003534928,1,0,0,0.7974,rock_grid_rect_2,1,04,-1,-1,0.797,-0.379036242,-0.23294009,1,0,0,1.963,Andesite_rect,1,1.963,1,0,0,0,0,1,,,,,,,,,,,,,
65cbb75fc5c8e692295e8b7e,TCR,2024-06-24_15h16.38.485,LearnStrategy,2023.2.3,MacIntel,59.88023952,9,1,2,-0.112624538,0.013256456,1,0,0,0.8652,rock_grid_rect_2,3,08,-1,-1,0.865,0.126580124,-0.230803348,1,0,0,1.1283,Diorite_rect,3,1.128,1,1,0,1,0,1,,,,,,,,,,,,,
65cbb75fc5c8e692295e8b7e,TCR,2024-06-24_15h16.38.485,LearnStrategy,2023.2.3,MacIntel,59.88023952,9,1,3,-0.058622661,0.023268449,1,0,0,0.6477,rock_grid_rect_2,2,04,-1,-1,0.648,-0.157850567,-0.269046108,1,0,0,1.3118,Basalt_rect,2,1.312,1,2,0,2,0,1,,,,,,,,,,,,,
65cbb75fc5c8e692295e8b7e,TCR,2024-06-24_15h16.38.485,LearnStrategy,2023.2.3,MacIntel,59.88023952,9,1,4,-0.031479393,-0.017059874,1,0,0,0.5162,rock_grid_rect_2,4,14,-1,-1,0.516,0.374127475,-0.244341107,1,0,0,0.9086,Gabbro_rect,4,0.909,1,3,0,3,0,1,,,,,,,,,,,,,
65cbb75fc5c8e692295e8b7e,TCR,2024-06-24_15h16.38.485,LearnStrategy,2023.2.3,MacIntel,59.88023952,9,1,5,-0.036513114,0.003112793,1,0,0,0.6986,rock_grid_rect_2,1,04,-1,-1,0.699,-0.361352765,-0.269041874,1,0,0,1.362,Andesite_rect,1,1.362,1,4,0,4,0,1,,,,,,,,,,,,,
65cbb75fc5c8e692295e8b7e,TCR,2024-06-24_15h16.38.485,LearnStrategy,2023.2.3,MacIntel,59.88023952,9,1,6,-0.055271203,-0.022964295,1,0,0,0.498,rock_grid_rect_2,3,08,-1,-1,0.498,0.115238609,-0.228263307,1,0,0,0.9255,Diorite_rect,3,0.926,1,5,0,5,0,1,,,,,,,,,,,,,
65cbb75fc5c8e692295e8b7e,TCR,2024-06-24_15h16.38.485,LearnStrategy,2023.2.3,MacIntel,59.88023952,9,1,7,-0.050360721,-0.012676184,1,0,0,0.7647,rock_grid_rect_2,4,14,-1,-1,0.765,0.356146634,-0.253172222,1,0,0,1.7287,Gabbro_rect,4,1.729,1,6,0,6,0,1,,,,,,,,,,,,,
65cbb75fc5c8e692295e8b7e,TCR,2024-06-24_15h16.38.485,LearnStrategy,2023.2.3,MacIntel,59.88023952,9,1,8,-0.052896673,0.003698979,1,0,0,1.1656,rock_grid_rect_2,2,14,-1,-1,1.166,0.345939235,-0.388336255,1,0,0,1.31,Pumice_rect,8,1.31,0,7,0,7,0,1,,,,,,,,,,,,,
65cbb75fc5c8e692295e8b7e,TCR,2024-06-24_15h16.38.485,LearnStrategy,2023.2.3,MacIntel,59.88023952,9,1,9,0.042737605,-0.014914736,1,0,0,0.9813,rock_grid_rect_2,7,14,-1,-1,0.981,-0.342951432,-0.244757401,1,0,0,1.7096,Andesite_rect,1,1.71,0,8,0,8,0,1,,,,,,,,,,,,,
65cbb75fc5c8e692295e8b7e,TCR,2024-06-24_15h16.38.485,LearnStrategy,2023.2.3,MacIntel,59.88023952,9,1,10,-0.07938155,-0.003318349,1,0,0,1.0968,rock_grid_rect_2,3,12,-1,-1,1.097,0.066006893,-0.2609626,1,0,0,1.177,Diorite_rect,3,1.177,1,9,0,9,0,1,,,,,,,,,,,,,
65cbb75fc5c8e692295e8b7e,TCR,2024-06-24_15h16.38.485,LearnStrategy,2023.2.3,MacIntel,59.88023952,9,1,11,0.018113351,-0.000455354,1,0,0,1.1663,rock_grid_rect_2,6,11,-1,-1,1.166,-0.096036993,-0.386547983,1,0,0,1.9274,Pegmatite_rect,6,1.927,1,10,0,10,0,1,,,,,,,,,,,,,
65cbb75fc5c8e692295e8b7e,TCR,2024-06-24_15h16.38.485,LearnStrategy,2023.2.3,MacIntel,59.88023952,9,1,12,-0.048780596,0.022206503,1,0,0,0.5978,rock_grid_rect_2,7,12,-1,-1,0.598,-0.08345937,-0.412162014,1,0,0,2.2439,Pegmatite_rect,6,2.244,0,11,0,11,0,1,,,,,,,,,,,,,
65cbb75fc5c8e692295e8b7e,TCR,2024-06-24_15h16.38.485,LearnStrategy,2023.2.3,MacIntel,59.88023952,9,1,13,-0.017024209,0.009803005,1,0,0,1.1485,rock_grid_rect_2,4,01,-1,-1,1.149,-0.387909848,-0.254718397,1,0,0,2.328,Andesite_rect,1,2.328,0,12,0,12,0,1,,,,,,,,,,,,,
65cbb75fc5c8e692295e8b7e,TCR,2024-06-24_15h16.38.485,LearnStrategy,2023.2.3,MacIntel,59.88023952,9,1,14,-0.066897306,-0.005416724,1,0,0,0.5823,rock_grid_rect_2,8,15,-1,-1,0.582,0.394835331,-0.415437032,1,0,0,1.3437,Pumice_rect,8,1.344,1,13,0,13,0,1,,,,,,,,,,,,,
65cbb75fc5c8e692295e8b7e,TCR,2024-06-24_15h16.38.485,LearnStrategy,2023.2.3,MacIntel,59.88023952,9,1,15,-0.050764385,0.005814365,1,0,0,0.8156,rock_grid_rect_2,6,03,-1,-1,0.816,-0.130091398,-0.405985782,1,0,0,1.0953,Pegmatite_rect,6,1.095,1,14,0,14,0,1,,,,,,,,,,,,,
65cbb75fc5c8e692295e8b7e,TCR,2024-06-24_15h16.38.485,LearnStrategy,2023.2.3,MacIntel,59.88023952,9,1,16,-0.057505484,0.023204749,1,0,0,0.8306,rock_grid_rect_2,2,12,-1,-1,0.831,-0.086101477,-0.26228369,1,0,0,1.5781,Basalt_rect,2,1.578,1,15,0,15,0,1,,,,,,,,,,,,,
65cbb75fc5c8e692295e8b7e,TCR,2024-06-24_15h16.38.485,LearnStrategy,2023.2.3,MacIntel,59.88023952,9,2,1,,,,,,,,8,04,,,,,,,,,,,8,1.057,1,,,,,,0.34249856,-0.395272871,1,0,0,1.057,Pumice_rect,0,0,0,0,1,
65cbb75fc5c8e692295e8b7e,TCR,2024-06-24_15h16.38.485,LearnStrategy,2023.2.3,MacIntel,59.88023952,9,2,2,,,,,,,,8,10,,,,,,,,,,,8,1.178,1,,,,,,0.355866282,-0.402294469,1,0,0,1.1776,Pumice_rect,1,0,1,0,1,
65cbb75fc5c8e692295e8b7e,TCR,2024-06-24_15h16.38.485,LearnStrategy,2023.2.3,MacIntel,59.88023952,9,2,3,,,,,,,,4,05,,,,,,,,,,,2,2.612,0,,,,,,-0.176324142,-0.253711682,1,0,0,2.6116,Basalt_rect,2,0,2,0,1,
65cbb75fc5c8e692295e8b7e,TCR,2024-06-24_15h16.38.485,LearnStrategy,2023.2.3,MacIntel,59.88023952,9,2,4,,,,,,,,1,09,,,,,,,,,,,2,2.55,0,,,,,,-0.153373463,-0.255104978,1,0,0,2.5498,Basalt_rect,3,0,3,0,1,
65cbb75fc5c8e692295e8b7e,TCR,2024-06-24_15h16.38.485,LearnStrategy,2023.2.3,MacIntel,59.88023952,9,2,5,,,,,,,,6,06,,,,,,,,,,,6,1.224,1,,,,,,-0.123783458,-0.409405211,1,0,0,1.2237,Pegmatite_rect,4,0,4,0,1,
65cbb75fc5c8e692295e8b7e,TCR,2024-06-24_15h16.38.485,LearnStrategy,2023.2.3,MacIntel,59.88023952,9,2,6,,,,,,,,7,05,,,,,,,,,,,4,2.559,0,,,,,,0.318995645,-0.250347448,1,0,0,2.5588,Gabbro_rect,5,0,5,0,1,
65cbb75fc5c8e692295e8b7e,TCR,2024-06-24_15h16.38.485,LearnStrategy,2023.2.3,MacIntel,59.88023952,9,2,7,,,,,,,,3,13,,,,,,,,,,,3,1.134,1,,,,,,0.050634211,-0.244880567,1,0,0,1.1337,Diorite_rect,6,0,6,0,1,
65cbb75fc5c8e692295e8b7e,TCR,2024-06-24_15h16.38.485,LearnStrategy,2023.2.3,MacIntel,59.88023952,9,2,8,,,,,,,,3,06,,,,,,,,,,,1,2.456,0,,,,,,-0.396838649,-0.24371243,1,0,0,2.4562,Andesite_rect,7,0,7,0,1,
65cbb75fc5c8e692295e8b7e,TCR,2024-06-24_15h16.38.485,LearnStrategy,2023.2.3,MacIntel,59.88023952,9,2,9,,,,,,,,7,07,,,,,,,,,,,7,1.369,1,,,,,,0.09042738,-0.397825688,1,0,0,1.369,Peridotite_rect,8,0,8,0,1,
65cbb75fc5c8e692295e8b7e,TCR,2024-06-24_15h16.38.485,LearnStrategy,2023.2.3,MacIntel,59.88023952,9,2,10,,,,,,,,2,01,,,,,,,,,,,2,2.592,1,,,,,,-0.127292104,-0.248614371,1,0,0,2.5924,Basalt_rect,9,0,9,0,1,
65cbb75fc5c8e692295e8b7e,TCR,2024-06-24_15h16.38.485,LearnStrategy,2023.2.3,MacIntel,59.88023952,9,2,11,,,,,,,,1,05,,,,,,,,,,,1,1.825,1,,,,,,-0.343728828,-0.256782714,1,0,0,1.8254,Andesite_rect,10,0,10,0,1,
65cbb75fc5c8e692295e8b7e,TCR,2024-06-24_15h16.38.485,LearnStrategy,2023.2.3,MacIntel,59.88023952,9,2,12,,,,,,,,5,02,,,,,,,,,,,5,1.763,1,,,,,,-0.329672891,-0.380554345,1,0,0,1.7633,Obsidian_rect,11,0,11,0,1,
65cbb75fc5c8e692295e8b7e,TCR,2024-06-24_15h16.38.485,LearnStrategy,2023.2.3,MacIntel,59.88023952,9,2,13,,,,,,,,6,16,,,,,,,,,,,3,1.185,0,,,,,,0.099424152,-0.261701739,1,0,0,1.1853,Diorite_rect,12,0,12,0,1,
65cbb75fc5c8e692295e8b7e,TCR,2024-06-24_15h16.38.485,LearnStrategy,2023.2.3,MacIntel,59.88023952,9,2,14,,,,,,,,2,08,,,,,,,,,,,2,2.229,1,,,,,,-0.151083914,-0.255712409,1,0,0,2.2288,Basalt_rect,13,0,13,0,1,
65cbb75fc5c8e692295e8b7e,TCR,2024-06-24_15h16.38.485,LearnStrategy,2023.2.3,MacIntel,59.88023952,9,2,15,,,,,,,,5,04,,,,,,,,,,,5,1.052,1,,,,,,-0.356157805,-0.395514967,1,0,0,1.0524,Obsidian_rect,14,0,14,0,1,
65cbb75fc5c8e692295e8b7e,TCR,2024-06-24_15h16.38.485,LearnStrategy,2023.2.3,MacIntel,59.88023952,9,2,16,,,,,,,,4,13,,,,,,,,,,,4,1.847,1,,,,,,0.306443502,-0.267351287,1,0,0,1.8465,Gabbro_rect,15,0,15,0,1,
65cbb75fc5c8e692295e8b7e,TCR,2024-06-24_15h16.38.485,LearnStrategy,2023.2.3,MacIntel,59.88023952,,,,,,,,,,,,,,,,,,,,,,,,,,,,,,,,,,,,,,,,,,,1
65cbb75fc5c8e692295e8b7e,TCR,2024-06-24_15h16.38.485,LearnStrategy,2023.2.3,MacIntel,59.88023952,,,,,,,,,,,,,,,,,,,,,,,,,,,,,,,,,,,,,,,,,,,
65cbb75fc5c8e692295e8b7e,TCR,2024-06-24_15h16.38.485,LearnStrategy,2023.2.3,MacIntel,59.88023952,,,,,,,,,,,6,10,1,1,,,,,,,,,,,,,,,,,,,,,,,,,,,,,
65cbb75fc5c8e692295e8b7e,TCR,2024-06-24_15h16.38.485,LearnStrategy,2023.2.3,MacIntel,59.88023952,,,,,,,,,,,8,15,1,2,,,,,,,,,,,,,,,,,,,,,,,,,,,,,
65cbb75fc5c8e692295e8b7e,TCR,2024-06-24_15h16.38.485,LearnStrategy,2023.2.3,MacIntel,59.88023952,,,,,,,,,,,5,11,1,3,,,,,,,,,,,,,,,,,,,,,,,,,,,,,
65cbb75fc5c8e692295e8b7e,TCR,2024-06-24_15h16.38.485,LearnStrategy,2023.2.3,MacIntel,59.88023952,,,,,,,,,,,3,10,1,4,,,,,,,,,,,,,,,,,,,,,,,,,,,,,
65cbb75fc5c8e692295e8b7e,TCR,2024-06-24_15h16.38.485,LearnStrategy,2023.2.3,MacIntel,59.88023952,,,,,,,,,,,3,07,1,5,,,,,,,,,,,,,,,,,,,,,,,,,,,,,
65cbb75fc5c8e692295e8b7e,TCR,2024-06-24_15h16.38.485,LearnStrategy,2023.2.3,MacIntel,59.88023952,,,,,,,,,,,1,14,1,6,,,,,,,,,,,,,,,,,,,,,,,,,,,,,
65cbb75fc5c8e692295e8b7e,TCR,2024-06-24_15h16.38.485,LearnStrategy,2023.2.3,MacIntel,59.88023952,,,,,,,,,,,6,13,1,7,,,,,,,,,,,,,,,,,,,,,,,,,,,,,
65cbb75fc5c8e692295e8b7e,TCR,2024-06-24_15h16.38.485,LearnStrategy,2023.2.3,MacIntel,59.88023952,,,,,,,,,,,7,06,1,8,,,,,,,,,,,,,,,,,,,,,,,,,,,,,
65cbb75fc5c8e692295e8b7e,TCR,2024-06-24_15h16.38.485,LearnStrategy,2023.2.3,MacIntel,59.88023952,,,,,,,,,,,6,03,2,1,,,,,,,,,,,,,,,,,,,,,,,,,,,,,
65cbb75fc5c8e692295e8b7e,TCR,2024-06-24_15h16.38.485,LearnStrategy,2023.2.3,MacIntel,59.88023952,,,,,,,,,,,2,09,2,2,,,,,,,,,,,,,,,,,,,,,,,,,,,,,
65cbb75fc5c8e692295e8b7e,TCR,2024-06-24_15h16.38.485,LearnStrategy,2023.2.3,MacIntel,59.88023952,,,,,,,,,,,2,04,2,3,,,,,,,,,,,,,,,,,,,,,,,,,,,,,
65cbb75fc5c8e692295e8b7e,TCR,2024-06-24_15h16.38.485,LearnStrategy,2023.2.3,MacIntel,59.88023952,,,,,,,,,,,1,02,2,4,,,,,,,,,,,,,,,,,,,,,,,,,,,,,
65cbb75fc5c8e692295e8b7e,TCR,2024-06-24_15h16.38.485,LearnStrategy,2023.2.3,MacIntel,59.88023952,,,,,,,,,,,6,05,2,5,,,,,,,,,,,,,,,,,,,,,,,,,,,,,
65cbb75fc5c8e692295e8b7e,TCR,2024-06-24_15h16.38.485,LearnStrategy,2023.2.3,MacIntel,59.88023952,,,,,,,,,,,3,12,2,6,,,,,,,,,,,,,,,,,,,,,,,,,,,,,
65cbb75fc5c8e692295e8b7e,TCR,2024-06-24_15h16.38.485,LearnStrategy,2023.2.3,MacIntel,59.88023952,,,,,,,,,,,5,16,2,7,,,,,,,,,,,,,,,,,,,,,,,,,,,,,
65cbb75fc5c8e692295e8b7e,TCR,2024-06-24_15h16.38.485,LearnStrategy,2023.2.3,MacIntel,59.88023952,,,,,,,,,,,1,04,2,8,,,,,,,,,,,,,,,,,,,,,,,,,,,,,
65cbb75fc5c8e692295e8b7e,TCR,2024-06-24_15h16.38.485,LearnStrategy,2023.2.3,MacIntel,59.88023952,,,,,,,,,,,5,09,3,1,,,,,,,,,,,,,,,,,,,,,,,,,,,,,
65cbb75fc5c8e692295e8b7e,TCR,2024-06-24_15h16.38.485,LearnStrategy,2023.2.3,MacIntel,59.88023952,,,,,,,,,,,5,12,3,2,,,,,,,,,,,,,,,,,,,,,,,,,,,,,
65cbb75fc5c8e692295e8b7e,TCR,2024-06-24_15h16.38.485,LearnStrategy,2023.2.3,MacIntel,59.88023952,,,,,,,,,,,7,13,3,3,,,,,,,,,,,,,,,,,,,,,,,,,,,,,
65cbb75fc5c8e692295e8b7e,TCR,2024-06-24_15h16.38.485,LearnStrategy,2023.2.3,MacIntel,59.88023952,,,,,,,,,,,4,09,3,4,,,,,,,,,,,,,,,,,,,,,,,,,,,,,
65cbb75fc5c8e692295e8b7e,TCR,2024-06-24_15h16.38.485,LearnStrategy,2023.2.3,MacIntel,59.88023952,,,,,,,,,,,7,10,3,5,,,,,,,,,,,,,,,,,,,,,,,,,,,,,
65cbb75fc5c8e692295e8b7e,TCR,2024-06-24_15h16.38.485,LearnStrategy,2023.2.3,MacIntel,59.88023952,,,,,,,,,,,8,14,3,6,,,,,,,,,,,,,,,,,,,,,,,,,,,,,
65cbb75fc5c8e692295e8b7e,TCR,2024-06-24_15h16.38.485,LearnStrategy,2023.2.3,MacIntel,59.88023952,,,,,,,,,,,4,01,3,7,,,,,,,,,,,,,,,,,,,,,,,,,,,,,
65cbb75fc5c8e692295e8b7e,TCR,2024-06-24_15h16.38.485,LearnStrategy,2023.2.3,MacIntel,59.88023952,,,,,,,,,,,8,13,3,8,,,,,,,,,,,,,,,,,,,,,,,,,,,,,
65cbb75fc5c8e692295e8b7e,TCR,2024-06-24_15h16.38.485,LearnStrategy,2023.2.3,MacIntel,59.88023952,,,,,,,,,,,6,08,4,1,,,,,,,,,,,,,,,,,,,,,,,,,,,,,
65cbb75fc5c8e692295e8b7e,TCR,2024-06-24_15h16.38.485,LearnStrategy,2023.2.3,MacIntel,59.88023952,,,,,,,,,,,3,16,4,2,,,,,,,,,,,,,,,,,,,,,,,,,,,,,
65cbb75fc5c8e692295e8b7e,TCR,2024-06-24_15h16.38.485,LearnStrategy,2023.2.3,MacIntel,59.88023952,,,,,,,,,,,6,11,4,3,,,,,,,,,,,,,,,,,,,,,,,,,,,,,
65cbb75fc5c8e692295e8b7e,TCR,2024-06-24_15h16.38.485,LearnStrategy,2023.2.3,MacIntel,59.88023952,,,,,,,,,,,7,16,4,4,,,,,,,,,,,,,,,,,,,,,,,,,,,,,
65cbb75fc5c8e692295e8b7e,TCR,2024-06-24_15h16.38.485,LearnStrategy,2023.2.3,MacIntel,59.88023952,,,,,,,,,,,7,14,4,5,,,,,,,,,,,,,,,,,,,,,,,,,,,,,
65cbb75fc5c8e692295e8b7e,TCR,2024-06-24_15h16.38.485,LearnStrategy,2023.2.3,MacIntel,59.88023952,,,,,,,,,,,3,11,4,6,,,,,,,,,,,,,,,,,,,,,,,,,,,,,
65cbb75fc5c8e692295e8b7e,TCR,2024-06-24_15h16.38.485,LearnStrategy,2023.2.3,MacIntel,59.88023952,,,,,,,,,,,2,14,4,7,,,,,,,,,,,,,,,,,,,,,,,,,,,,,
65cbb75fc5c8e692295e8b7e,TCR,2024-06-24_15h16.38.485,LearnStrategy,2023.2.3,MacIntel,59.88023952,,,,,,,,,,,7,12,4,8,,,,,,,,,,,,,,,,,,,,,,,,,,,,,
65cbb75fc5c8e692295e8b7e,TCR,2024-06-24_15h16.38.485,LearnStrategy,2023.2.3,MacIntel,59.88023952,,,,,,,,,,,1,03,5,1,,,,,,,,,,,,,,,,,,,,,,,,,,,,,
65cbb75fc5c8e692295e8b7e,TCR,2024-06-24_15h16.38.485,LearnStrategy,2023.2.3,MacIntel,59.88023952,,,,,,,,,,,5,14,5,2,,,,,,,,,,,,,,,,,,,,,,,,,,,,,
65cbb75fc5c8e692295e8b7e,TCR,2024-06-24_15h16.38.485,LearnStrategy,2023.2.3,MacIntel,59.88023952,,,,,,,,,,,1,16,5,3,,,,,,,,,,,,,,,,,,,,,,,,,,,,,
65cbb75fc5c8e692295e8b7e,TCR,2024-06-24_15h16.38.485,LearnStrategy,2023.2.3,MacIntel,59.88023952,,,,,,,,,,,2,05,5,4,,,,,,,,,,,,,,,,,,,,,,,,,,,,,
65cbb75fc5c8e692295e8b7e,TCR,2024-06-24_15h16.38.485,LearnStrategy,2023.2.3,MacIntel,59.88023952,,,,,,,,,,,2,06,5,5,,,,,,,,,,,,,,,,,,,,,,,,,,,,,
65cbb75fc5c8e692295e8b7e,TCR,2024-06-24_15h16.38.485,LearnStrategy,2023.2.3,MacIntel,59.88023952,,,,,,,,,,,8,03,5,6,,,,,,,,,,,,,,,,,,,,,,,,,,,,,
65cbb75fc5c8e692295e8b7e,TCR,2024-06-24_15h16.38.485,LearnStrategy,2023.2.3,MacIntel,59.88023952,,,,,,,,,,,8,08,5,7,,,,,,,,,,,,,,,,,,,,,,,,,,,,,
65cbb75fc5c8e692295e8b7e,TCR,2024-06-24_15h16.38.485,LearnStrategy,2023.2.3,MacIntel,59.88023952,,,,,,,,,,,4,16,5,8,,,,,,,,,,,,,,,,,,,,,,,,,,,,,
65cbb75fc5c8e692295e8b7e,TCR,2024-06-24_15h16.38.485,LearnStrategy,2023.2.3,MacIntel,59.88023952,,,,,,,,,,,2,12,6,1,,,,,,,,,,,,,,,,,,,,,,,,,,,,,
65cbb75fc5c8e692295e8b7e,TCR,2024-06-24_15h16.38.485,LearnStrategy,2023.2.3,MacIntel,59.88023952,,,,,,,,,,,5,08,6,2,,,,,,,,,,,,,,,,,,,,,,,,,,,,,
65cbb75fc5c8e692295e8b7e,TCR,2024-06-24_15h16.38.485,LearnStrategy,2023.2.3,MacIntel,59.88023952,,,,,,,,,,,8,05,6,3,,,,,,,,,,,,,,,,,,,,,,,,,,,,,
65cbb75fc5c8e692295e8b7e,TCR,2024-06-24_15h16.38.485,LearnStrategy,2023.2.3,MacIntel,59.88023952,,,,,,,,,,,4,10,6,4,,,,,,,,,,,,,,,,,,,,,,,,,,,,,
65cbb75fc5c8e692295e8b7e,TCR,2024-06-24_15h16.38.485,LearnStrategy,2023.2.3,MacIntel,59.88023952,,,,,,,,,,,4,03,6,5,,,,,,,,,,,,,,,,,,,,,,,,,,,,,
65cbb75fc5c8e692295e8b7e,TCR,2024-06-24_15h16.38.485,LearnStrategy,2023.2.3,MacIntel,59.88023952,,,,,,,,,,,3,08,6,6,,,,,,,,,,,,,,,,,,,,,,,,,,,,,
65cbb75fc5c8e692295e8b7e,TCR,2024-06-24_15h16.38.485,LearnStrategy,2023.2.3,MacIntel,59.88023952,,,,,,,,,,,1,10,6,7,,,,,,,,,,,,,,,,,,,,,,,,,,,,,
65cbb75fc5c8e692295e8b7e,TCR,2024-06-24_15h16.38.485,LearnStrategy,2023.2.3,MacIntel,59.88023952,,,,,,,,,,,4,14,6,8,,,,,,,,,,,,,,,,,,,,,,,,,,,,,