participant,condition,date,expName,psychopyVersion,OS,frameRate,block,phase,trial,learn_mouse_2.x,learn_mouse_2.y,learn_mouse_2.leftButton,learn_mouse_2.midButton,learn_mouse_2.rightButton,learn_mouse_2.time,learn_mouse_2.clicked_name,cat,token,row,col,t_select,cat_mouse_l.x,cat_mouse_l.y,cat_mouse_l.leftButton,cat_mouse_l.midButton,cat_mouse_l.rightButton,cat_mouse_l.time,cat_mouse_l.clicked_name,resp,t_resp,corr,train_trials.thisRepN,train_trials.thisTrialN,train_trials.thisN,train_trials.thisIndex,train_trials.ran,cat_mouse_t.x,cat_mouse_t.y,cat_mouse_t.leftButton,cat_mouse_t.midButton,cat_mouse_t.rightButton,cat_mouse_t.time,cat_mouse_t.clicked_name,test_trials.thisRepN,test_trials.thisTrialN,test_trials.thisN,test_trials.thisIndex,test_trials.ran,Bonus
65cbb3a92efd76eb9e9205d6,TCR,2024-06-24_14h49.52.122,LearnStrategy,2023.2.3,Win32,59.88023952,,,,,,,,,,,,,,,,,,,,,,,,,,,,,,,,,,,,,,,,,,,
65cbb3a92efd76eb9e9205d6,TCR,2024-06-24_14h49.52.122,LearnStrategy,2023.2.3,Win32,59.88023952,1,1,1,0.125,-0.009259259,1,0,0,2.6922,rock_grid_rect_2,1,01,-1,-1,2.692,-0.111111111,-0.260185171,1,0,0,4.4882,Basalt_rect,2,4.488,0,0,0,0,0,1,,,,,,,,,,,,,
65cbb3a92efd76eb9e9205d6,TCR,2024-06-24_14h49.52.122,LearnStrategy,2023.2.3,Win32,59.88023952,1,1,2,-0.049074032,-0.000925947,1,0,0,1.4098,rock_grid_rect_2,8,02,-1,-1,1.41,0.059259273,-0.228703746,1,0,0,3.3611,Diorite_rect,3,3.361,0,1,0,1,0,1,,,,,,,,,,,,,
65cbb3a92efd76eb9e9205d6,TCR,2024-06-24_14h49.52.122,LearnStrategy,2023.2.3,Win32,59.88023952,1,1,3,0.12962963,-0.003703718,1,0,0,5.5756,rock_grid_rect_2,1,10,-1,-1,5.576,-0.091666681,-0.405555584,1,0,0,10.228,Pegmatite_rect,6,10.228,0,2,0,2,0,1,,,,,,,,,,,,,
65cbb3a92efd76eb9e9205d6,TCR,2024-06-24_14h49.52.122,LearnStrategy,2023.2.3,Win32,59.88023952,1,1,4,0.064814815,0.000925912,1,0,0,1.2091,rock_grid_rect_2,8,16,-1,-1,1.209,0.335185157,-0.24537037,1,0,0,4.6614,Gabbro_rect,4,4.661,0,3,0,3,0,1,,,,,,,,,,,,,
65cbb3a92efd76eb9e9205d6,TCR,2024-06-24_14h49.52.122,LearnStrategy,2023.2.3,Win32,59.88023952,1,1,5,0.097222222,0.00462963,1,0,0,1.2262,rock_grid_rect_2,3,06,-1,-1,1.226,0.122222265,-0.228703746,1,0,0,6.5284,Diorite_rect,3,6.528,1,4,0,4,0,1,,,,,,,,,,,,,
65cbb3a92efd76eb9e9205d6,TCR,2024-06-24_14h49.52.122,LearnStrategy,2023.2.3,Win32,59.88023952,1,1,6,0.017592607,0.000925912,1,0,0,1.0594,rock_grid_rect_2,2,06,-1,-1,1.059,0.151851866,-0.400925954,1,0,0,3.2949,Peridotite_rect,7,3.295,0,5,0,5,0,1,,,,,,,,,,,,,
65cbb3a92efd76eb9e9205d6,TCR,2024-06-24_14h49.52.122,LearnStrategy,2023.2.3,Win32,59.88023952,1,1,7,0.045370384,-0.014814836,1,0,0,1.1435,rock_grid_rect_2,2,08,-1,-1,1.143,-0.097222222,-0.246296282,1,0,0,1.7944,Basalt_rect,2,1.794,1,6,0,6,0,1,,,,,,,,,,,,,
65cbb3a92efd76eb9e9205d6,TCR,2024-06-24_14h49.52.122,LearnStrategy,2023.2.3,Win32,59.88023952,1,1,8,-0.058333291,-0.009259259,1,0,0,1.215,rock_grid_rect_2,7,05,-1,-1,1.215,-0.055555556,-0.391666695,1,0,0,3.3785,Pegmatite_rect,6,3.378,0,7,0,7,0,1,,,,,,,,,,,,,
65cbb3a92efd76eb9e9205d6,TCR,2024-06-24_14h49.52.122,LearnStrategy,2023.2.3,Win32,59.88023952,1,1,9,-0.017592607,-0.005555577,1,0,0,1.7757,rock_grid_rect_2,3,12,-1,-1,1.776,-0.193518533,-0.393518519,1,0,0,3.6455,Pegmatite_rect,6,3.645,0,8,0,8,0,1,,,,,,,,,,,,,
65cbb3a92efd76eb9e9205d6,TCR,2024-06-24_14h49.52.122,LearnStrategy,2023.2.3,Win32,59.88023952,1,1,10,0.012037065,0.021296289,1,0,0,1.0983,rock_grid_rect_2,4,15,-1,-1,1.098,0.150000042,-0.239814829,1,0,0,1.9284,Diorite_rect,3,1.928,0,9,0,9,0,1,,,,,,,,,,,,,
65cbb3a92efd76eb9e9205d6,TCR,2024-06-24_14h49.52.122,LearnStrategy,2023.2.3,Win32,59.88023952,1,1,11,0.035185213,-0.009259259,1,0,0,0.8983,rock_grid_rect_2,5,02,-1,-1,0.898,-0.348148134,-0.417592578,1,0,0,3.0611,Obsidian_rect,5,3.061,1,10,0,10,0,1,,,,,,,,,,,,,
65cbb3a92efd76eb9e9205d6,TCR,2024-06-24_14h49.52.122,LearnStrategy,2023.2.3,Win32,59.88023952,1,1,12,0.124074088,-0.011111118,1,0,0,1.5984,rock_grid_rect_2,5,08,-1,-1,1.598,-0.323148127,-0.400925954,1,0,0,2.1951,Obsidian_rect,5,2.195,1,11,0,11,0,1,,,,,,,,,,,,,
65cbb3a92efd76eb9e9205d6,TCR,2024-06-24_14h49.52.122,LearnStrategy,2023.2.3,Win32,59.88023952,1,1,13,0.117592635,-0.012962977,1,0,0,1.582,rock_grid_rect_2,4,11,-1,-1,1.582,-0.117592564,-0.413888931,1,0,0,3.4498,Pegmatite_rect,6,3.45,0,12,0,12,0,1,,,,,,,,,,,,,
65cbb3a92efd76eb9e9205d6,TCR,2024-06-24_14h49.52.122,LearnStrategy,2023.2.3,Win32,59.88023952,1,1,14,0.133333347,-0.000925947,1,0,0,1.6631,rock_grid_rect_2,6,09,-1,-1,1.663,0.141666695,-0.39444443,1,0,0,5.9416,Peridotite_rect,7,5.942,0,13,0,13,0,1,,,,,,,,,,,,,
65cbb3a92efd76eb9e9205d6,TCR,2024-06-24_14h49.52.122,LearnStrategy,2023.2.3,Win32,59.88023952,1,1,15,0.130555541,0,1,0,0,1.0098,rock_grid_rect_2,6,11,-1,-1,1.01,-0.079629616,-0.40370369,1,0,0,2.2279,Pegmatite_rect,6,2.228,1,14,0,14,0,1,,,,,,,,,,,,,
65cbb3a92efd76eb9e9205d6,TCR,2024-06-24_14h49.52.122,LearnStrategy,2023.2.3,Win32,59.88023952,1,1,16,0.110185199,-0.003703718,1,0,0,0.8988,rock_grid_rect_2,7,16,-1,-1,0.899,-0.07222218,-0.231481481,1,0,0,3.7441,Basalt_rect,2,3.744,0,15,0,15,0,1,,,,,,,,,,,,,
65cbb3a92efd76eb9e9205d6,TCR,2024-06-24_14h49.52.122,LearnStrategy,2023.2.3,Win32,59.88023952,1,2,1,,,,,,,,1,07,,,,,,,,,,,7,8.228,0,,,,,,0.172222208,-0.398148148,1,0,0,8.2277,Peridotite_rect,0,0,0,0,1,
65cbb3a92efd76eb9e9205d6,TCR,2024-06-24_14h49.52.122,LearnStrategy,2023.2.3,Win32,59.88023952,1,2,2,,,,,,,,5,05,,,,,,,,,,,5,2.345,1,,,,,,-0.366666653,-0.397222236,1,0,0,2.3446,Obsidian_rect,1,0,1,0,1,
65cbb3a92efd76eb9e9205d6,TCR,2024-06-24_14h49.52.122,LearnStrategy,2023.2.3,Win32,59.88023952,1,2,3,,,,,,,,8,03,,,,,,,,,,,8,2.945,1,,,,,,0.325925898,-0.405555584,1,0,0,2.945,Pumice_rect,2,0,2,0,1,
65cbb3a92efd76eb9e9205d6,TCR,2024-06-24_14h49.52.122,LearnStrategy,2023.2.3,Win32,59.88023952,1,2,4,,,,,,,,7,02,,,,,,,,,,,7,4.128,1,,,,,,0.095370399,-0.402777778,1,0,0,4.1278,Peridotite_rect,3,0,3,0,1,
65cbb3a92efd76eb9e9205d6,TCR,2024-06-24_14h49.52.122,LearnStrategy,2023.2.3,Win32,59.88023952,1,2,5,,,,,,,,3,14,,,,,,,,,,,4,4.011,0,,,,,,0.384259259,-0.248148176,1,0,0,4.0114,Gabbro_rect,4,0,4,0,1,
65cbb3a92efd76eb9e9205d6,TCR,2024-06-24_14h49.52.122,LearnStrategy,2023.2.3,Win32,59.88023952,1,2,6,,,,,,,,4,13,,,,,,,,,,,1,4.311,0,,,,,,-0.389814801,-0.237963005,1,0,0,4.3108,Andesite_rect,5,0,5,0,1,
65cbb3a92efd76eb9e9205d6,TCR,2024-06-24_14h49.52.122,LearnStrategy,2023.2.3,Win32,59.88023952,1,2,7,,,,,,,,4,01,,,,,,,,,,,1,2.344,0,,,,,,-0.451851845,-0.256481524,1,0,0,2.3443,Andesite_rect,6,0,6,0,1,
65cbb3a92efd76eb9e9205d6,TCR,2024-06-24_14h49.52.122,LearnStrategy,2023.2.3,Win32,59.88023952,1,2,8,,,,,,,,6,03,,,,,,,,,,,7,7.777,0,,,,,,0.135185171,-0.393518519,1,0,0,7.7774,Peridotite_rect,7,0,7,0,1,
65cbb3a92efd76eb9e9205d6,TCR,2024-06-24_14h49.52.122,LearnStrategy,2023.2.3,Win32,59.88023952,1,2,9,,,,,,,,7,14,,,,,,,,,,,4,15.345,0,,,,,,0.328703704,-0.247222265,1,0,0,15.3448,Gabbro_rect,8,0,8,0,1,
65cbb3a92efd76eb9e9205d6,TCR,2024-06-24_14h49.52.122,LearnStrategy,2023.2.3,Win32,59.88023952,1,2,10,,,,,,,,2,02,,,,,,,,,,,6,4.962,0,,,,,,-0.15370369,-0.410185213,1,0,0,4.9617,Pegmatite_rect,9,0,9,0,1,
65cbb3a92efd76eb9e9205d6,TCR,2024-06-24_14h49.52.122,LearnStrategy,2023.2.3,Win32,59.88023952,1,2,11,,,,,,,,3,16,,,,,,,,,,,4,4.344,0,,,,,,0.368518547,-0.241666653,1,0,0,4.3445,Gabbro_rect,10,0,10,0,1,
65cbb3a92efd76eb9e9205d6,TCR,2024-06-24_14h49.52.122,LearnStrategy,2023.2.3,Win32,59.88023952,1,2,12,,,,,,,,2,05,,,,,,,,,,,1,2.578,0,,,,,,-0.363888882,-0.247222265,1,0,0,2.5777,Andesite_rect,11,0,11,0,1,
65cbb3a92efd76eb9e9205d6,TCR,2024-06-24_14h49.52.122,LearnStrategy,2023.2.3,Win32,59.88023952,1,2,13,,,,,,,,5,06,,,,,,,,,,,5,1.762,1,,,,,,-0.39907406,-0.400925954,1,0,0,1.7616,Obsidian_rect,12,0,12,0,1,
65cbb3a92efd76eb9e9205d6,TCR,2024-06-24_14h49.52.122,LearnStrategy,2023.2.3,Win32,59.88023952,1,2,14,,,,,,,,8,08,,,,,,,,,,,8,1.962,1,,,,,,0.36018527,-0.395370413,1,0,0,1.9617,Pumice_rect,13,0,13,0,1,
65cbb3a92efd76eb9e9205d6,TCR,2024-06-24_14h49.52.122,LearnStrategy,2023.2.3,Win32,59.88023952,1,2,15,,,,,,,,6,07,,,,,,,,,,,6,3.261,1,,,,,,-0.174074032,-0.405555584,0,0,1,3.261,Pegmatite_rect,14,0,14,0,1,
65cbb3a92efd76eb9e9205d6,TCR,2024-06-24_14h49.52.122,LearnStrategy,2023.2.3,Win32,59.88023952,1,2,16,,,,,,,,1,14,,,,,,,,,,,2,2.811,0,,,,,,-0.062962921,-0.234259288,1,0,0,2.8111,Basalt_rect,15,0,15,0,1,
65cbb3a92efd76eb9e9205d6,TCR,2024-06-24_14h49.52.122,LearnStrategy,2023.2.3,Win32,59.88023952,2,1,1,0.053703732,0.000925912,1,0,0,1.2853,rock_grid_rect_2,6,06,-1,-1,1.285,0.093518504,-0.234259288,1,0,0,2.8088,Diorite_rect,3,2.809,0,0,0,0,0,1,,,,,,,,,,,,,
65cbb3a92efd76eb9e9205d6,TCR,2024-06-24_14h49.52.122,LearnStrategy,2023.2.3,Win32,59.88023952,2,1,2,0.150000042,-0.015740748,1,0,0,1.0317,rock_grid_rect_2,4,11,-1,-1,1.032,-0.04351849,-0.246296282,1,0,0,3.0283,Basalt_rect,2,3.028,0,1,0,1,0,1,,,,,,,,,,,,,
65cbb3a92efd76eb9e9205d6,TCR,2024-06-24_14h49.52.122,LearnStrategy,2023.2.3,Win32,59.88023952,2,1,3,0.143518519,0,1,0,0,0.8986,rock_grid_rect_2,1,10,-1,-1,0.899,0.357407464,-0.261111153,1,0,0,2.1115,Gabbro_rect,4,2.111,0,2,0,2,0,1,,,,,,,,,,,,,
65cbb3a92efd76eb9e9205d6,TCR,2024-06-24_14h49.52.122,LearnStrategy,2023.2.3,Win32,59.88023952,2,1,4,0.134259259,-0.015740748,1,0,0,1.7818,rock_grid_rect_2,7,08,-1,-1,1.782,0.164814843,-0.412037037,1,0,0,4.111,Peridotite_rect,7,4.111,1,3,0,3,0,1,,,,,,,,,,,,,
65cbb3a92efd76eb9e9205d6,TCR,2024-06-24_14h49.52.122,LearnStrategy,2023.2.3,Win32,59.88023952,2,1,5,0.078703704,0.005555541,1,0,0,1.4317,rock_grid_rect_2,1,01,-1,-1,1.432,-0.386111118,-0.271296325,1,0,0,1.678,Andesite_rect,1,1.678,1,4,0,4,0,1,,,,,,,,,,,,,
65cbb3a92efd76eb9e9205d6,TCR,2024-06-24_14h49.52.122,LearnStrategy,2023.2.3,Win32,59.88023952,2,1,6,0.092592593,-0.015740748,1,0,0,1.0317,rock_grid_rect_2,2,14,-1,-1,1.032,-0.349074081,-0.238888917,1,0,0,2.6114,Andesite_rect,1,2.611,0,5,0,5,0,1,,,,,,,,,,,,,
65cbb3a92efd76eb9e9205d6,TCR,2024-06-24_14h49.52.122,LearnStrategy,2023.2.3,Win32,59.88023952,2,1,7,-0.001851824,-0.019444466,1,0,0,0.9818,rock_grid_rect_2,4,15,-1,-1,0.982,0.387037065,-0.251851894,1,0,0,2.2447,Gabbro_rect,4,2.245,1,6,0,6,0,1,,,,,,,,,,,,,
65cbb3a92efd76eb9e9205d6,TCR,2024-06-24_14h49.52.122,LearnStrategy,2023.2.3,Win32,59.88023952,2,1,8,0.102777764,0.022222201,1,0,0,1.2483,rock_grid_rect_2,2,12,-1,-1,1.248,0.372222194,-0.396296325,1,0,0,3.5174,Pumice_rect,8,3.517,0,7,0,7,0,1,,,,,,,,,,,,,
65cbb3a92efd76eb9e9205d6,TCR,2024-06-24_14h49.52.122,LearnStrategy,2023.2.3,Win32,59.88023952,2,1,9,0.148148148,-0.022222236,1,0,0,1.4014,rock_grid_rect_2,3,10,-1,-1,1.401,-0.077777792,-0.401851866,1,0,0,2.2751,Pegmatite_rect,6,2.275,0,8,0,8,0,1,,,,,,,,,,,,,
65cbb3a92efd76eb9e9205d6,TCR,2024-06-24_14h49.52.122,LearnStrategy,2023.2.3,Win32,59.88023952,2,1,10,0.140740783,-0.01203703,1,0,0,0.9652,rock_grid_rect_2,4,08,-1,-1,0.965,-0.078703704,-0.247222265,1,0,0,2.0612,Basalt_rect,2,2.061,0,9,0,9,0,1,,,,,,,,,,,,,
65cbb3a92efd76eb9e9205d6,TCR,2024-06-24_14h49.52.122,LearnStrategy,2023.2.3,Win32,59.88023952,2,1,11,0.124074088,-0.0074074,1,0,0,1.8485,rock_grid_rect_2,3,10,-1,-1,1.849,0.106481481,-0.241666653,1,0,0,2.4116,Diorite_rect,3,2.412,1,10,0,10,0,1,,,,,,,,,,,,,
65cbb3a92efd76eb9e9205d6,TCR,2024-06-24_14h49.52.122,LearnStrategy,2023.2.3,Win32,59.88023952,2,1,12,0.114814829,-0.00462963,1,0,0,0.9315,rock_grid_rect_2,3,07,-1,-1,0.932,-0.075925898,-0.418518561,1,0,0,3.5783,Pegmatite_rect,6,3.578,0,11,0,11,0,1,,,,,,,,,,,,,
65cbb3a92efd76eb9e9205d6,TCR,2024-06-24_14h49.52.122,LearnStrategy,2023.2.3,Win32,59.88023952,2,1,13,0.056481467,0.0074074,1,0,0,0.8485,rock_grid_rect_2,2,12,-1,-1,0.849,0.117592635,-0.415740755,1,0,0,4.3281,Peridotite_rect,7,4.328,0,12,0,12,0,1,,,,,,,,,,,,,
65cbb3a92efd76eb9e9205d6,TCR,2024-06-24_14h49.52.122,LearnStrategy,2023.2.3,Win32,59.88023952,2,1,14,0.05740745,-0.012962977,1,0,0,2.0988,rock_grid_rect_2,7,06,-1,-1,2.099,-0.10555557,-0.415740755,1,0,0,2.4442,Pegmatite_rect,6,2.444,0,13,0,13,0,1,,,,,,,,,,,,,
65cbb3a92efd76eb9e9205d6,TCR,2024-06-24_14h49.52.122,LearnStrategy,2023.2.3,Win32,59.88023952,2,1,15,0.040740755,0.005555541,1,0,0,0.865,rock_grid_rect_2,6,05,-1,-1,0.865,-0.070370356,-0.401851866,1,0,0,4.311,Pegmatite_rect,6,4.311,1,14,0,14,0,1,,,,,,,,,,,,,
65cbb3a92efd76eb9e9205d6,TCR,2024-06-24_14h49.52.122,LearnStrategy,2023.2.3,Win32,59.88023952,2,1,16,0.133333347,-0.024074095,1,0,0,0.9485,rock_grid_rect_2,1,10,-1,-1,0.948,-0.19722218,-0.240740741,1,0,0,4.0446,Basalt_rect,2,4.045,0,15,0,15,0,1,,,,,,,,,,,,,
65cbb3a92efd76eb9e9205d6,TCR,2024-06-24_14h49.52.122,LearnStrategy,2023.2.3,Win32,59.88023952,2,2,1,,,,,,,,8,13,,,,,,,,,,,8,2.794,1,,,,,,0.342592593,-0.401851866,1,0,0,2.7942,Pumice_rect,0,0,0,0,1,
65cbb3a92efd76eb9e9205d6,TCR,2024-06-24_14h49.52.122,LearnStrategy,2023.2.3,Win32,59.88023952,2,2,2,,,,,,,,7,07,,,,,,,,,,,3,5.761,0,,,,,,0.150925954,-0.250925912,1,0,0,5.7615,Diorite_rect,1,0,1,0,1,
65cbb3a92efd76eb9e9205d6,TCR,2024-06-24_14h49.52.122,LearnStrategy,2023.2.3,Win32,59.88023952,2,2,3,,,,,,,,1,11,,,,,,,,,,,4,4.395,0,,,,,,0.336111139,-0.262962977,1,0,0,4.3948,Gabbro_rect,2,0,2,0,1,
65cbb3a92efd76eb9e9205d6,TCR,2024-06-24_14h49.52.122,LearnStrategy,2023.2.3,Win32,59.88023952,2,2,4,,,,,,,,1,04,,,,,,,,,,,4,4.161,0,,,,,,0.337037122,-0.236111111,1,0,0,4.1613,Gabbro_rect,3,0,3,0,1,
65cbb3a92efd76eb9e9205d6,TCR,2024-06-24_14h49.52.122,LearnStrategy,2023.2.3,Win32,59.88023952,2,2,5,,,,,,,,5,12,,,,,,,,,,,5,1.377,1,,,,,,-0.385185171,-0.413888931,1,0,0,1.3774,Obsidian_rect,4,0,4,0,1,
65cbb3a92efd76eb9e9205d6,TCR,2024-06-24_14h49.52.122,LearnStrategy,2023.2.3,Win32,59.88023952,2,2,6,,,,,,,,6,12,,,,,,,,,,,6,2.511,1,,,,,,-0.139814801,-0.413888931,1,0,0,2.5113,Pegmatite_rect,5,0,5,0,1,
65cbb3a92efd76eb9e9205d6,TCR,2024-06-24_14h49.52.122,LearnStrategy,2023.2.3,Win32,59.88023952,2,2,7,,,,,,,,7,13,,,,,,,,,,,7,4.394,1,,,,,,0.087962963,-0.420370384,1,0,0,4.3944,Peridotite_rect,6,0,6,0,1,
65cbb3a92efd76eb9e9205d6,TCR,2024-06-24_14h49.52.122,LearnStrategy,2023.2.3,Win32,59.88023952,2,2,8,,,,,,,,3,13,,,,,,,,,,,4,3.684,0,,,,,,0.399999972,-0.262962977,1,0,0,3.6838,Gabbro_rect,7,0,7,0,1,
65cbb3a92efd76eb9e9205d6,TCR,2024-06-24_14h49.52.122,LearnStrategy,2023.2.3,Win32,59.88023952,2,2,9,,,,,,,,4,09,,,,,,,,,,,1,2.445,0,,,,,,-0.37037037,-0.24537037,1,0,0,2.4449,Andesite_rect,8,0,8,0,1,
65cbb3a92efd76eb9e9205d6,TCR,2024-06-24_14h49.52.122,LearnStrategy,2023.2.3,Win32,59.88023952,2,2,10,,,,,,,,4,14,,,,,,,,,,,2,3.061,0,,,,,,-0.196296268,-0.241666653,1,0,0,3.0612,Basalt_rect,9,0,9,0,1,
65cbb3a92efd76eb9e9205d6,TCR,2024-06-24_14h49.52.122,LearnStrategy,2023.2.3,Win32,59.88023952,2,2,11,,,,,,,,6,10,,,,,,,,,,,3,2.495,0,,,,,,0.118518547,-0.241666653,1,0,0,2.4948,Diorite_rect,10,0,10,0,1,
65cbb3a92efd76eb9e9205d6,TCR,2024-06-24_14h49.52.122,LearnStrategy,2023.2.3,Win32,59.88023952,2,2,12,,,,,,,,2,11,,,,,,,,,,,8,2.195,0,,,,,,0.334259316,-0.414814843,1,0,0,2.1947,Pumice_rect,11,0,11,0,1,
65cbb3a92efd76eb9e9205d6,TCR,2024-06-24_14h49.52.122,LearnStrategy,2023.2.3,Win32,59.88023952,2,2,13,,,,,,,,8,04,,,,,,,,,,,8,0.995,1,,,,,,0.334259316,-0.414814843,1,0,0,0.9948,Pumice_rect,12,0,12,0,1,
65cbb3a92efd76eb9e9205d6,TCR,2024-06-24_14h49.52.122,LearnStrategy,2023.2.3,Win32,59.88023952,2,2,14,,,,,,,,5,09,,,,,,,,,,,5,1.528,1,,,,,,-0.40370369,-0.404629672,1,0,0,1.528,Obsidian_rect,13,0,13,0,1,
65cbb3a92efd76eb9e9205d6,TCR,2024-06-24_14h49.52.122,LearnStrategy,2023.2.3,Win32,59.88023952,2,2,15,,,,,,,,2,10,,,,,,,,,,,2,3.994,1,,,,,,-0.163888861,-0.265740783,1,0,0,3.994,Basalt_rect,14,0,14,0,1,
65cbb3a92efd76eb9e9205d6,TCR,2024-06-24_14h49.52.122,LearnStrategy,2023.2.3,Win32,59.88023952,2,2,16,,,,,,,,3,08,,,,,,,,,,,6,7.861,0,,,,,,-0.071296268,-0.420370384,1,0,0,7.8609,Pegmatite_rect,15,0,15,0,1,
65cbb3a92efd76eb9e9205d6,TCR,2024-06-24_14h49.52.122,LearnStrategy,2023.2.3,Win32,59.88023952,3,1,1,0.056481467,0.001851859,1,0,0,1.4492,rock_grid_rect_2,1,01,-1,-1,1.449,-0.334259245,-0.237037023,1,0,0,2.1603,Andesite_rect,1,2.16,1,0,0,0,0,1,,,,,,,,,,,,,
65cbb3a92efd76eb9e9205d6,TCR,2024-06-24_14h49.52.122,LearnStrategy,2023.2.3,Win32,59.88023952,3,1,2,0.051851838,-0.005555577,1,0,0,1.2819,rock_grid_rect_2,2,08,-1,-1,1.282,-0.156481496,-0.249074088,1,0,0,2.5452,Basalt_rect,2,2.545,1,1,0,1,0,1,,,,,,,,,,,,,
65cbb3a92efd76eb9e9205d6,TCR,2024-06-24_14h49.52.122,LearnStrategy,2023.2.3,Win32,59.88023952,3,1,3,0.068518533,0.005555541,1,0,0,1.1649,rock_grid_rect_2,4,05,-1,-1,1.165,0.122222265,-0.264814801,1,0,0,3.1613,Diorite_rect,3,3.161,0,2,0,2,0,1,,,,,,,,,,,,,
65cbb3a92efd76eb9e9205d6,TCR,2024-06-24_14h49.52.122,LearnStrategy,2023.2.3,Win32,59.88023952,3,1,4,0.102777764,-0.015740748,1,0,0,0.832,rock_grid_rect_2,1,09,-1,-1,0.832,0.369444529,-0.260185171,1,0,0,1.4613,Gabbro_rect,4,1.461,0,3,0,3,0,1,,,,,,,,,,,,,
65cbb3a92efd76eb9e9205d6,TCR,2024-06-24_14h49.52.122,LearnStrategy,2023.2.3,Win32,59.88023952,3,1,5,0.173148191,-0.012962977,1,0,0,1.0989,rock_grid_rect_2,6,06,-1,-1,1.099,-0.106481481,-0.407407407,1,0,0,2.2943,Pegmatite_rect,6,2.294,1,4,0,4,0,1,,,,,,,,,,,,,
65cbb3a92efd76eb9e9205d6,TCR,2024-06-24_14h49.52.122,LearnStrategy,2023.2.3,Win32,59.88023952,3,1,6,0.070370356,0.00462963,1,0,0,0.7983,rock_grid_rect_2,7,12,-1,-1,0.798,0.194444444,-0.409259302,1,0,0,1.8279,Peridotite_rect,7,1.828,1,5,0,5,0,1,,,,,,,,,,,,,
65cbb3a92efd76eb9e9205d6,TCR,2024-06-24_14h49.52.122,LearnStrategy,2023.2.3,Win32,59.88023952,3,1,7,0.160185213,-0.002777771,1,0,0,0.9318,rock_grid_rect_2,7,04,-1,-1,0.932,0.134259259,-0.387962977,1,0,0,3.6611,Peridotite_rect,7,3.661,1,6,0,6,0,1,,,,,,,,,,,,,
65cbb3a92efd76eb9e9205d6,TCR,2024-06-24_14h49.52.122,LearnStrategy,2023.2.3,Win32,59.88023952,3,1,8,0.062037079,0.001851859,1,0,0,1.8187,rock_grid_rect_2,1,10,-1,-1,1.819,-0.319444444,-0.232407393,1,0,0,2.2743,Andesite_rect,1,2.274,1,7,0,7,0,1,,,,,,,,,,,,,
65cbb3a92efd76eb9e9205d6,TCR,2024-06-24_14h49.52.122,LearnStrategy,2023.2.3,Win32,59.88023952,3,1,9,0.074999986,-0.024074095,1,0,0,1.0821,rock_grid_rect_2,4,08,-1,-1,1.082,-0.368518511,-0.266666695,1,0,0,1.8616,Andesite_rect,1,1.862,0,8,0,8,0,1,,,,,,,,,,,,,
65cbb3a92efd76eb9e9205d6,TCR,2024-06-24_14h49.52.122,LearnStrategy,2023.2.3,Win32,59.88023952,3,1,10,-0.005555541,-0.012962977,1,0,0,0.9819,rock_grid_rect_2,3,11,-1,-1,0.982,0.170370384,-0.396296325,1,0,0,2.7619,Peridotite_rect,7,2.762,0,9,0,9,0,1,,,,,,,,,,,,,
65cbb3a92efd76eb9e9205d6,TCR,2024-06-24_14h49.52.122,LearnStrategy,2023.2.3,Win32,59.88023952,3,1,11,0.031481496,-0.01203703,1,0,0,0.8483,rock_grid_rect_2,6,05,-1,-1,0.848,-0.17314812,-0.415740755,1,0,0,2.9448,Pegmatite_rect,6,2.945,1,10,0,10,0,1,,,,,,,,,,,,,
65cbb3a92efd76eb9e9205d6,TCR,2024-06-24_14h49.52.122,LearnStrategy,2023.2.3,Win32,59.88023952,3,1,12,0.124074088,-0.017592607,1,0,0,0.9153,rock_grid_rect_2,8,02,-1,-1,0.915,0.349074046,-0.408333319,1,0,0,1.4612,Pumice_rect,8,1.461,1,11,0,11,0,1,,,,,,,,,,,,,
65cbb3a92efd76eb9e9205d6,TCR,2024-06-24_14h49.52.122,LearnStrategy,2023.2.3,Win32,59.88023952,3,1,13,0.114814829,0,1,0,0,0.9824,rock_grid_rect_2,2,08,-1,-1,0.982,-0.065740727,-0.256481524,1,0,0,1.4616,Basalt_rect,2,1.462,1,12,0,12,0,1,,,,,,,,,,,,,
65cbb3a92efd76eb9e9205d6,TCR,2024-06-24_14h49.52.122,LearnStrategy,2023.2.3,Win32,59.88023952,3,1,14,0.054629644,-0.019444466,1,0,0,0.782,rock_grid_rect_2,3,06,-1,-1,0.782,0.161111125,-0.247222265,1,0,0,1.6949,Diorite_rect,3,1.695,1,13,0,13,0,1,,,,,,,,,,,,,
65cbb3a92efd76eb9e9205d6,TCR,2024-06-24_14h49.52.122,LearnStrategy,2023.2.3,Win32,59.88023952,3,1,15,0.135185171,-0.024074095,1,0,0,1.0154,rock_grid_rect_2,4,05,-1,-1,1.015,0.175000014,-0.380555541,1,0,0,2.2449,Peridotite_rect,7,2.245,0,14,0,14,0,1,,,,,,,,,,,,,
65cbb3a92efd76eb9e9205d6,TCR,2024-06-24_14h49.52.122,LearnStrategy,2023.2.3,Win32,59.88023952,3,1,16,0.073148162,0.014814801,1,0,0,1.3649,rock_grid_rect_2,3,07,-1,-1,1.365,0.346296381,-0.268518519,0,0,1,1.6446,Gabbro_rect,4,1.645,0,15,0,15,0,1,,,,,,,,,,,,,
65cbb3a92efd76eb9e9205d6,TCR,2024-06-24_14h49.52.122,LearnStrategy,2023.2.3,Win32,59.88023952,3,2,1,,,,,,,,4,16,,,,,,,,,,,2,1.945,0,,,,,,-0.157407407,-0.25462963,1,0,0,1.9447,Basalt_rect,0,0,0,0,1,
65cbb3a92efd76eb9e9205d6,TCR,2024-06-24_14h49.52.122,LearnStrategy,2023.2.3,Win32,59.88023952,3,2,2,,,,,,,,5,10,,,,,,,,,,,5,2.278,1,,,,,,-0.381481489,-0.411111125,1,0,0,2.2779,Obsidian_rect,1,0,1,0,1,
65cbb3a92efd76eb9e9205d6,TCR,2024-06-24_14h49.52.122,LearnStrategy,2023.2.3,Win32,59.88023952,3,2,3,,,,,,,,7,10,,,,,,,,,,,3,10.828,0,,,,,,0.067592621,-0.268518519,1,0,0,10.8278,Diorite_rect,2,0,2,0,1,
65cbb3a92efd76eb9e9205d6,TCR,2024-06-24_14h49.52.122,LearnStrategy,2023.2.3,Win32,59.88023952,3,2,4,,,,,,,,2,16,,,,,,,,,,,2,1.678,1,,,,,,-0.075925898,-0.252777806,1,0,0,1.6779,Basalt_rect,3,0,3,0,1,
65cbb3a92efd76eb9e9205d6,TCR,2024-06-24_14h49.52.122,LearnStrategy,2023.2.3,Win32,59.88023952,3,2,5,,,,,,,,4,03,,,,,,,,,,,4,2.394,1,,,,,,0.357407464,-0.246296282,1,0,0,2.3941,Gabbro_rect,4,0,4,0,1,
65cbb3a92efd76eb9e9205d6,TCR,2024-06-24_14h49.52.122,LearnStrategy,2023.2.3,Win32,59.88023952,3,2,6,,,,,,,,6,16,,,,,,,,,,,6,2.212,1,,,,,,-0.082407422,-0.402777778,1,0,0,2.2115,Pegmatite_rect,5,0,5,0,1,
65cbb3a92efd76eb9e9205d6,TCR,2024-06-24_14h49.52.122,LearnStrategy,2023.2.3,Win32,59.88023952,3,2,7,,,,,,,,6,13,,,,,,,,,,,6,1.911,1,,,,,,-0.082407422,-0.402777778,1,0,0,1.9108,Pegmatite_rect,6,0,6,0,1,
65cbb3a92efd76eb9e9205d6,TCR,2024-06-24_14h49.52.122,LearnStrategy,2023.2.3,Win32,59.88023952,3,2,8,,,,,,,,5,16,,,,,,,,,,,5,1.161,1,,,,,,-0.389814801,-0.387037065,1,0,0,1.1608,Obsidian_rect,7,0,7,0,1,
65cbb3a92efd76eb9e9205d6,TCR,2024-06-24_14h49.52.122,LearnStrategy,2023.2.3,Win32,59.88023952,3,2,9,,,,,,,,3,09,,,,,,,,,,,4,1.628,0,,,,,,0.41851849,-0.239814829,1,0,0,1.6282,Gabbro_rect,8,0,8,0,1,
65cbb3a92efd76eb9e9205d6,TCR,2024-06-24_14h49.52.122,LearnStrategy,2023.2.3,Win32,59.88023952,3,2,10,,,,,,,,3,15,,,,,,,,,,,3,2.728,1,,,,,,0.163888931,-0.262037065,1,0,0,2.7276,Diorite_rect,9,0,9,0,1,
65cbb3a92efd76eb9e9205d6,TCR,2024-06-24_14h49.52.122,LearnStrategy,2023.2.3,Win32,59.88023952,3,2,11,,,,,,,,8,10,,,,,,,,,,,8,1.428,1,,,,,,0.33148151,-0.421296296,1,0,0,1.4281,Pumice_rect,10,0,10,0,1,
65cbb3a92efd76eb9e9205d6,TCR,2024-06-24_14h49.52.122,LearnStrategy,2023.2.3,Win32,59.88023952,3,2,12,,,,,,,,1,02,,,,,,,,,,,4,2.311,0,,,,,,0.401851937,-0.244444459,1,0,0,2.3113,Gabbro_rect,11,0,11,0,1,
65cbb3a92efd76eb9e9205d6,TCR,2024-06-24_14h49.52.122,LearnStrategy,2023.2.3,Win32,59.88023952,3,2,13,,,,,,,,2,09,,,,,,,,,,,2,1.577,1,,,,,,-0.149999972,-0.237037023,1,0,0,1.5773,Basalt_rect,12,0,12,0,1,
65cbb3a92efd76eb9e9205d6,TCR,2024-06-24_14h49.52.122,LearnStrategy,2023.2.3,Win32,59.88023952,3,2,14,,,,,,,,1,05,,,,,,,,,,,4,1.745,0,,,,,,0.329629686,-0.262037065,1,0,0,1.745,Gabbro_rect,13,0,13,0,1,
65cbb3a92efd76eb9e9205d6,TCR,2024-06-24_14h49.52.122,LearnStrategy,2023.2.3,Win32,59.88023952,3,2,15,,,,,,,,7,15,,,,,,,,,,,7,1.344,1,,,,,,0.184259273,-0.405555584,1,0,0,1.3443,Peridotite_rect,14,0,14,0,1,
65cbb3a92efd76eb9e9205d6,TCR,2024-06-24_14h49.52.122,LearnStrategy,2023.2.3,Win32,59.88023952,3,2,16,,,,,,,,8,15,,,,,,,,,,,8,1.861,1,,,,,,0.409259231,-0.389814801,1,0,0,1.8611,Pumice_rect,15,0,15,0,1,
65cbb3a92efd76eb9e9205d6,TCR,2024-06-24_14h49.52.122,LearnStrategy,2023.2.3,Win32,59.88023952,4,1,1,0.161111125,-0.013888889,1,0,0,1.8494,rock_grid_rect_2,3,10,-1,-1,1.849,0.130555541,-0.238888917,1,0,0,1.8116,Diorite_rect,3,1.812,1,0,0,0,0,1,,,,,,,,,,,,,
65cbb3a92efd76eb9e9205d6,TCR,2024-06-24_14h49.52.122,LearnStrategy,2023.2.3,Win32,59.88023952,4,1,2,0.07222225,-0.024074095,1,0,0,0.982,rock_grid_rect_2,2,01,-1,-1,0.982,-0.111111111,-0.228703746,1,0,0,1.3614,Basalt_rect,2,1.361,1,1,0,1,0,1,,,,,,,,,,,,,
65cbb3a92efd76eb9e9205d6,TCR,2024-06-24_14h49.52.122,LearnStrategy,2023.2.3,Win32,59.88023952,4,1,3,0.085185228,-0.008333347,1,0,0,1.4153,rock_grid_rect_2,1,16,-1,-1,1.415,0.37962963,-0.266666695,1,0,0,2.745,Gabbro_rect,4,2.745,0,2,0,2,0,1,,,,,,,,,,,,,
65cbb3a92efd76eb9e9205d6,TCR,2024-06-24_14h49.52.122,LearnStrategy,2023.2.3,Win32,59.88023952,4,1,4,0.141666695,-0.011111118,1,0,0,0.9653,rock_grid_rect_2,8,05,-1,-1,0.965,0.307407379,-0.378703718,1,0,0,1.5779,Pumice_rect,8,1.578,1,3,0,3,0,1,,,,,,,,,,,,,
65cbb3a92efd76eb9e9205d6,TCR,2024-06-24_14h49.52.122,LearnStrategy,2023.2.3,Win32,59.88023952,4,1,5,0.058333362,0,1,0,0,1.0156,rock_grid_rect_2,7,16,-1,-1,1.016,0.114814829,-0.401851866,1,0,0,1.5614,Peridotite_rect,7,1.561,1,4,0,4,0,1,,,,,,,,,,,,,
65cbb3a92efd76eb9e9205d6,TCR,2024-06-24_14h49.52.122,LearnStrategy,2023.2.3,Win32,59.88023952,4,1,6,0.047222208,-0.011111118,1,0,0,2.7318,rock_grid_rect_2,1,01,-1,-1,2.732,-0.419444437,-0.249074088,1,0,0,132.2097,Andesite_rect,1,132.21,1,5,0,5,0,1,,,,,,,,,,,,,
65cbb3a92efd76eb9e9205d6,TCR,2024-06-24_14h49.52.122,LearnStrategy,2023.2.3,Win32,59.88023952,4,1,7,0.02870369,-0.013888889,1,0,0,1.032,rock_grid_rect_2,7,05,-1,-1,1.032,0.07222225,-0.237037023,1,0,0,2.0284,Diorite_rect,3,2.028,0,6,0,6,0,1,,,,,,,,,,,,,
65cbb3a92efd76eb9e9205d6,TCR,2024-06-24_14h49.52.122,LearnStrategy,2023.2.3,Win32,59.88023952,4,1,8,0.07685188,-0.010185206,1,0,0,0.8318,rock_grid_rect_2,1,09,-1,-1,0.832,-0.155555513,-0.264814801,1,0,0,2.6287,Basalt_rect,2,2.629,0,7,0,7,0,1,,,,,,,,,,,,,
65cbb3a92efd76eb9e9205d6,TCR,2024-06-24_14h49.52.122,LearnStrategy,2023.2.3,Win32,59.88023952,4,1,9,0.003703718,-0.006481489,1,0,0,0.9653,rock_grid_rect_2,2,06,-1,-1,0.965,-0.14444443,-0.264814801,1,0,0,3.5946,Basalt_rect,2,3.595,1,8,0,8,0,1,,,,,,,,,,,,,
65cbb3a92efd76eb9e9205d6,TCR,2024-06-24_14h49.52.122,LearnStrategy,2023.2.3,Win32,59.88023952,4,1,10,0.082407422,-0.024074095,1,0,0,0.8487,rock_grid_rect_2,6,11,-1,-1,0.849,-0.077777792,-0.410185213,1,0,0,1.9613,Pegmatite_rect,6,1.961,1,9,0,9,0,1,,,,,,,,,,,,,
65cbb3a92efd76eb9e9205d6,TCR,2024-06-24_14h49.52.122,LearnStrategy,2023.2.3,Win32,59.88023952,4,1,11,-0.020370342,0.013888889,1,0,0,0.682,rock_grid_rect_2,4,05,-1,-1,0.682,0.131481524,-0.412037037,1,0,0,3.8952,Peridotite_rect,7,3.895,0,10,0,10,0,1,,,,,,,,,,,,,
65cbb3a92efd76eb9e9205d6,TCR,2024-06-24_14h49.52.122,LearnStrategy,2023.2.3,Win32,59.88023952,4,1,12,0.00462963,0.0074074,1,0,0,0.832,rock_grid_rect_2,4,08,-1,-1,0.832,0.375,-0.256481524,1,0,0,2.8781,Gabbro_rect,4,2.878,1,11,0,11,0,1,,,,,,,,,,,,,
65cbb3a92efd76eb9e9205d6,TCR,2024-06-24_14h49.52.122,LearnStrategy,2023.2.3,Win32,59.88023952,4,1,13,-0.026851866,-0.017592607,1,0,0,0.8487,rock_grid_rect_2,4,12,-1,-1,0.849,0.334259316,-0.234259288,1,0,0,2.545,Gabbro_rect,4,2.545,1,12,0,12,0,1,,,,,,,,,,,,,
65cbb3a92efd76eb9e9205d6,TCR,2024-06-24_14h49.52.122,LearnStrategy,2023.2.3,Win32,59.88023952,4,1,14,0.155555584,0.000925912,1,0,0,0.9654,rock_grid_rect_2,3,06,-1,-1,0.965,0.167592578,-0.246296282,1,0,0,1.9611,Diorite_rect,3,1.961,1,13,0,13,0,1,,,,,,,,,,,,,
65cbb3a92efd76eb9e9205d6,TCR,2024-06-24_14h49.52.122,LearnStrategy,2023.2.3,Win32,59.88023952,4,1,15,0.020370413,-0.000925947,1,0,0,1.6821,rock_grid_rect_2,3,10,-1,-1,1.682,0.169444473,-0.234259288,1,0,0,1.5283,Diorite_rect,3,1.528,1,14,0,14,0,1,,,,,,,,,,,,,
65cbb3a92efd76eb9e9205d6,TCR,2024-06-24_14h49.52.122,LearnStrategy,2023.2.3,Win32,59.88023952,4,1,16,0.037962949,0.003703683,1,0,0,1.7653,rock_grid_rect_2,1,16,-1,-1,1.765,0.338888945,-0.252777806,1,0,0,3.9621,Gabbro_rect,4,3.962,0,15,0,15,0,1,,,,,,,,,,,,,
65cbb3a92efd76eb9e9205d6,TCR,2024-06-24_14h49.52.122,LearnStrategy,2023.2.3,Win32,59.88023952,4,2,1,,,,,,,,7,13,,,,,,,,,,,7,3.011,1,,,,,,0.101851852,-0.391666695,1,0,0,3.0109,Peridotite_rect,0,0,0,0,1,
65cbb3a92efd76eb9e9205d6,TCR,2024-06-24_14h49.52.122,LearnStrategy,2023.2.3,Win32,59.88023952,4,2,2,,,,,,,,6,12,,,,,,,,,,,3,2.645,0,,,,,,0.125925912,-0.238888917,1,0,0,2.6452,Diorite_rect,1,0,1,0,1,
65cbb3a92efd76eb9e9205d6,TCR,2024-06-24_14h49.52.122,LearnStrategy,2023.2.3,Win32,59.88023952,4,2,3,,,,,,,,6,16,,,,,,,,,,,6,1.744,1,,,,,,-0.09629631,-0.406481496,1,0,0,1.7443,Pegmatite_rect,2,0,2,0,1,
65cbb3a92efd76eb9e9205d6,TCR,2024-06-24_14h49.52.122,LearnStrategy,2023.2.3,Win32,59.88023952,4,2,4,,,,,,,,7,15,,,,,,,,,,,7,3.129,1,,,,,,0.079629616,-0.413888931,1,0,0,3.1287,Peridotite_rect,3,0,3,0,1,
65cbb3a92efd76eb9e9205d6,TCR,2024-06-24_14h49.52.122,LearnStrategy,2023.2.3,Win32,59.88023952,4,2,5,,,,,,,,5,16,,,,,,,,,,,5,1.594,1,,,,,,-0.375925912,-0.392592607,1,0,0,1.5942,Obsidian_rect,4,0,4,0,1,
65cbb3a92efd76eb9e9205d6,TCR,2024-06-24_14h49.52.122,LearnStrategy,2023.2.3,Win32,59.88023952,4,2,6,,,,,,,,5,09,,,,,,,,,,,5,0.978,1,,,,,,-0.375925912,-0.392592607,1,0,0,0.9777,Obsidian_rect,5,0,5,0,1,
65cbb3a92efd76eb9e9205d6,TCR,2024-06-24_14h49.52.122,LearnStrategy,2023.2.3,Win32,59.88023952,4,2,7,,,,,,,,3,16,,,,,,,,,,,4,4.561,0,,,,,,0.407407407,-0.270370413,1,0,0,4.5612,Gabbro_rect,6,0,6,0,1,
65cbb3a92efd76eb9e9205d6,TCR,2024-06-24_14h49.52.122,LearnStrategy,2023.2.3,Win32,59.88023952,4,2,8,,,,,,,,1,07,,,,,,,,,,,4,1.428,0,,,,,,0.407407407,-0.270370413,1,0,0,1.4283,Gabbro_rect,7,0,7,0,1,
65cbb3a92efd76eb9e9205d6,TCR,2024-06-24_14h49.52.122,LearnStrategy,2023.2.3,Win32,59.88023952,4,2,9,,,,,,,,8,03,,,,,,,,,,,8,1.828,1,,,,,,0.416666667,-0.419444473,1,0,0,1.8278,Pumice_rect,8,0,8,0,1,
65cbb3a92efd76eb9e9205d6,TCR,2024-06-24_14h49.52.122,LearnStrategy,2023.2.3,Win32,59.88023952,4,2,10,,,,,,,,8,04,,,,,,,,,,,8,1.078,1,,,,,,0.416666667,-0.419444473,1,0,0,1.0778,Pumice_rect,9,0,9,0,1,
65cbb3a92efd76eb9e9205d6,TCR,2024-06-24_14h49.52.122,LearnStrategy,2023.2.3,Win32,59.88023952,4,2,11,,,,,,,,2,05,,,,,,,,,,,2,1.86,1,,,,,,-0.085185157,-0.260185171,1,0,0,1.8602,Basalt_rect,10,0,10,0,1,
65cbb3a92efd76eb9e9205d6,TCR,2024-06-24_14h49.52.122,LearnStrategy,2023.2.3,Win32,59.88023952,4,2,12,,,,,,,,3,15,,,,,,,,,,,3,2.028,1,,,,,,0.111111111,-0.262962977,1,0,0,2.0283,Diorite_rect,11,0,11,0,1,
65cbb3a92efd76eb9e9205d6,TCR,2024-06-24_14h49.52.122,LearnStrategy,2023.2.3,Win32,59.88023952,4,2,13,,,,,,,,4,03,,,,,,,,,,,4,2.145,1,,,,,,0.353703675,-0.262037065,1,0,0,2.1448,Gabbro_rect,12,0,12,0,1,
65cbb3a92efd76eb9e9205d6,TCR,2024-06-24_14h49.52.122,LearnStrategy,2023.2.3,Win32,59.88023952,4,2,14,,,,,,,,1,14,,,,,,,,,,,6,1.711,0,,,,,,-0.109259217,-0.39444443,1,0,0,1.7107,Pegmatite_rect,13,0,13,0,1,
65cbb3a92efd76eb9e9205d6,TCR,2024-06-24_14h49.52.122,LearnStrategy,2023.2.3,Win32,59.88023952,4,2,15,,,,,,,,4,09,,,,,,,,,,,1,3.845,0,,,,,,-0.41574072,-0.248148176,1,0,0,3.8447,Andesite_rect,14,0,14,0,1,
65cbb3a92efd76eb9e9205d6,TCR,2024-06-24_14h49.52.122,LearnStrategy,2023.2.3,Win32,59.88023952,4,2,16,,,,,,,,2,02,,,,,,,,,,,2,0.994,1,,,,,,-0.169444402,-0.24537037,1,0,0,0.9942,Basalt_rect,15,0,15,0,1,
65cbb3a92efd76eb9e9205d6,TCR,2024-06-24_14h49.52.122,LearnStrategy,2023.2.3,Win32,59.88023952,5,1,1,0.031481496,0.001851859,1,0,0,1.5828,rock_grid_rect_2,1,06,-1,-1,1.583,0.382407436,-0.244444459,1,0,0,9.3606,Gabbro_rect,4,9.361,0,0,0,0,0,1,,,,,,,,,,,,,
65cbb3a92efd76eb9e9205d6,TCR,2024-06-24_14h49.52.122,LearnStrategy,2023.2.3,Win32,59.88023952,5,1,2,0.102777764,-0.019444466,1,0,0,0.9487,rock_grid_rect_2,2,04,-1,-1,0.949,-0.075925898,-0.237963005,1,0,0,1.2615,Basalt_rect,2,1.261,1,1,0,1,0,1,,,,,,,,,,,,,
65cbb3a92efd76eb9e9205d6,TCR,2024-06-24_14h49.52.122,LearnStrategy,2023.2.3,Win32,59.88023952,5,1,3,0.117592635,0.01203703,1,0,0,1.1324,rock_grid_rect_2,3,10,-1,-1,1.132,0.155555584,-0.242592635,1,0,0,1.5454,Diorite_rect,3,1.545,1,2,0,2,0,1,,,,,,,,,,,,,
65cbb3a92efd76eb9e9205d6,TCR,2024-06-24_14h49.52.122,LearnStrategy,2023.2.3,Win32,59.88023952,5,1,4,0.047222208,0.003703683,1,0,0,0.7318,rock_grid_rect_2,6,08,-1,-1,0.732,-0.082407422,-0.387962977,1,0,0,2.378,Pegmatite_rect,6,2.378,1,3,0,3,0,1,,,,,,,,,,,,,
65cbb3a92efd76eb9e9205d6,TCR,2024-06-24_14h49.52.122,LearnStrategy,2023.2.3,Win32,59.88023952,5,1,5,0.102777764,-0.000925947,1,0,0,0.9654,rock_grid_rect_2,4,10,-1,-1,0.965,-0.37037037,-0.232407393,1,0,0,2.678,Andesite_rect,1,2.678,0,4,0,4,0,1,,,,,,,,,,,,,
65cbb3a92efd76eb9e9205d6,TCR,2024-06-24_14h49.52.122,LearnStrategy,2023.2.3,Win32,59.88023952,5,1,6,0.043518561,-0.014814836,1,0,0,0.882,rock_grid_rect_2,1,01,-1,-1,0.882,-0.310185185,-0.234259288,1,0,0,1.3947,Andesite_rect,1,1.395,1,5,0,5,0,1,,,,,,,,,,,,,
65cbb3a92efd76eb9e9205d6,TCR,2024-06-24_14h49.52.122,LearnStrategy,2023.2.3,Win32,59.88023952,5,1,7,0.079629616,-0.003703718,1,0,0,0.8987,rock_grid_rect_2,1,03,-1,-1,0.899,0.155555584,-0.400925954,1,0,0,2.8774,Peridotite_rect,7,2.877,0,6,0,6,0,1,,,,,,,,,,,,,
65cbb3a92efd76eb9e9205d6,TCR,2024-06-24_14h49.52.122,LearnStrategy,2023.2.3,Win32,59.88023952,5,1,8,0.046296296,-0.01666666,1,0,0,0.8652,rock_grid_rect_2,6,06,-1,-1,0.865,0.130555541,-0.228703746,1,0,0,2.3779,Diorite_rect,3,2.378,0,7,0,7,0,1,,,,,,,,,,,,,
65cbb3a92efd76eb9e9205d6,TCR,2024-06-24_14h49.52.122,LearnStrategy,2023.2.3,Win32,59.88023952,5,1,9,0.106481481,0.015740748,1,0,0,0.7985,rock_grid_rect_2,7,08,-1,-1,0.799,0.432407379,-0.246296282,1,0,0,1.7276,Gabbro_rect,4,1.728,0,8,0,8,0,1,,,,,,,,,,,,,
65cbb3a92efd76eb9e9205d6,TCR,2024-06-24_14h49.52.122,LearnStrategy,2023.2.3,Win32,59.88023952,5,1,10,0.110185199,-0.020370377,1,0,0,0.7985,rock_grid_rect_2,3,12,-1,-1,0.799,0.157407407,-0.262037065,1,0,0,2.4614,Diorite_rect,3,2.461,1,9,0,9,0,1,,,,,,,,,,,,,
65cbb3a92efd76eb9e9205d6,TCR,2024-06-24_14h49.52.122,LearnStrategy,2023.2.3,Win32,59.88023952,5,1,11,0.091666681,-0.011111118,1,0,0,1.365,rock_grid_rect_2,3,12,-1,-1,1.365,0.137037065,-0.262037065,1,0,0,1.2617,Diorite_rect,3,1.262,1,10,0,10,0,1,,,,,,,,,,,,,
65cbb3a92efd76eb9e9205d6,TCR,2024-06-24_14h49.52.122,LearnStrategy,2023.2.3,Win32,59.88023952,5,1,12,0.07685188,-0.022222236,1,0,0,0.7493,rock_grid_rect_2,4,12,-1,-1,0.749,0.339814787,-0.249074088,1,0,0,3.3283,Gabbro_rect,4,3.328,1,11,0,11,0,1,,,,,,,,,,,,,
65cbb3a92efd76eb9e9205d6,TCR,2024-06-24_14h49.52.122,LearnStrategy,2023.2.3,Win32,59.88023952,5,1,13,0.042592578,0.01203703,1,0,0,1.2485,rock_grid_rect_2,8,14,-1,-1,1.248,0.389814871,-0.39444443,1,0,0,2.2946,Pumice_rect,8,2.295,1,12,0,12,0,1,,,,,,,,,,,,,
65cbb3a92efd76eb9e9205d6,TCR,2024-06-24_14h49.52.122,LearnStrategy,2023.2.3,Win32,59.88023952,5,1,14,0.141666695,-0.01666666,1,0,0,0.9654,rock_grid_rect_2,4,05,-1,-1,0.965,0.104629658,-0.401851866,1,0,0,2.4281,Peridotite_rect,7,2.428,0,13,0,13,0,1,,,,,,,,,,,,,
65cbb3a92efd76eb9e9205d6,TCR,2024-06-24_14h49.52.122,LearnStrategy,2023.2.3,Win32,59.88023952,5,1,15,0.006481524,0.011111118,1,0,0,0.8483,rock_grid_rect_2,1,10,-1,-1,0.848,-0.396296289,-0.263888889,1,0,0,1.5115,Andesite_rect,1,1.512,1,14,0,14,0,1,,,,,,,,,,,,,
65cbb3a92efd76eb9e9205d6,TCR,2024-06-24_14h49.52.122,LearnStrategy,2023.2.3,Win32,59.88023952,5,1,16,0.108333376,0.008333312,1,0,0,0.8156,rock_grid_rect_2,7,04,-1,-1,0.816,0.165740755,-0.416666667,1,0,0,1.6283,Peridotite_rect,7,1.628,1,15,0,15,0,1,,,,,,,,,,,,,
65cbb3a92efd76eb9e9205d6,TCR,2024-06-24_14h49.52.122,LearnStrategy,2023.2.3,Win32,59.88023952,5,2,1,,,,,,,,3,08,,,,,,,,,,,4,3.928,0,,,,,,0.42314812,-0.237037023,1,0,0,3.9282,Gabbro_rect,0,0,0,0,1,
65cbb3a92efd76eb9e9205d6,TCR,2024-06-24_14h49.52.122,LearnStrategy,2023.2.3,Win32,59.88023952,5,2,2,,,,,,,,4,16,,,,,,,,,,,2,1.528,0,,,,,,-0.093518504,-0.247222265,1,0,0,1.5277,Basalt_rect,1,0,1,0,1,
65cbb3a92efd76eb9e9205d6,TCR,2024-06-24_14h49.52.122,LearnStrategy,2023.2.3,Win32,59.88023952,5,2,3,,,,,,,,7,10,,,,,,,,,,,3,2.478,0,,,,,,0.070370356,-0.251851894,1,0,0,2.4781,Diorite_rect,2,0,2,0,1,
65cbb3a92efd76eb9e9205d6,TCR,2024-06-24_14h49.52.122,LearnStrategy,2023.2.3,Win32,59.88023952,5,2,4,,,,,,,,2,09,,,,,,,,,,,1,3.562,0,,,,,,-0.348148134,-0.241666653,1,0,0,3.5616,Andesite_rect,3,0,3,0,1,
65cbb3a92efd76eb9e9205d6,TCR,2024-06-24_14h49.52.122,LearnStrategy,2023.2.3,Win32,59.88023952,5,2,5,,,,,,,,3,13,,,,,,,,,,,6,6.062,0,,,,,,-0.038888861,-0.420370384,1,0,0,6.062,Pegmatite_rect,4,0,4,0,1,
65cbb3a92efd76eb9e9205d6,TCR,2024-06-24_14h49.52.122,LearnStrategy,2023.2.3,Win32,59.88023952,5,2,6,,,,,,,,8,08,,,,,,,,,,,8,1.261,1,,,,,,0.385185242,-0.387962977,1,0,0,1.2611,Pumice_rect,5,0,5,0,1,
65cbb3a92efd76eb9e9205d6,TCR,2024-06-24_14h49.52.122,LearnStrategy,2023.2.3,Win32,59.88023952,5,2,7,,,,,,,,7,14,,,,,,,,,,,7,2.845,1,,,,,,0.218518504,-0.395370413,1,0,0,2.8453,Peridotite_rect,6,0,6,0,1,
65cbb3a92efd76eb9e9205d6,TCR,2024-06-24_14h49.52.122,LearnStrategy,2023.2.3,Win32,59.88023952,5,2,8,,,,,,,,1,02,,,,,,,,,,,4,1.877,0,,,,,,0.425925926,-0.250925912,1,0,0,1.8773,Gabbro_rect,7,0,7,0,1,
65cbb3a92efd76eb9e9205d6,TCR,2024-06-24_14h49.52.122,LearnStrategy,2023.2.3,Win32,59.88023952,5,2,9,,,,,,,,5,12,,,,,,,,,,,5,1.411,1,,,,,,-0.335185192,-0.408333319,1,0,0,1.4107,Obsidian_rect,8,0,8,0,1,
65cbb3a92efd76eb9e9205d6,TCR,2024-06-24_14h49.52.122,LearnStrategy,2023.2.3,Win32,59.88023952,5,2,10,,,,,,,,5,05,,,,,,,,,,,5,0.795,1,,,,,,-0.335185192,-0.408333319,1,0,0,0.7951,Obsidian_rect,9,0,9,0,1,
65cbb3a92efd76eb9e9205d6,TCR,2024-06-24_14h49.52.122,LearnStrategy,2023.2.3,Win32,59.88023952,5,2,11,,,,,,,,1,04,,,,,,,,,,,3,2.144,0,,,,,,0.125925912,-0.258333347,1,0,0,2.1443,Diorite_rect,10,0,10,0,1,
65cbb3a92efd76eb9e9205d6,TCR,2024-06-24_14h49.52.122,LearnStrategy,2023.2.3,Win32,59.88023952,5,2,12,,,,,,,,2,10,,,,,,,,,,,2,2.428,1,,,,,,-0.112037023,-0.255555541,1,0,0,2.4279,Basalt_rect,11,0,11,0,1,
65cbb3a92efd76eb9e9205d6,TCR,2024-06-24_14h49.52.122,LearnStrategy,2023.2.3,Win32,59.88023952,5,2,13,,,,,,,,6,10,,,,,,,,,,,7,1.727,0,,,,,,0.117592635,-0.388888889,1,0,0,1.7275,Peridotite_rect,12,0,12,0,1,
65cbb3a92efd76eb9e9205d6,TCR,2024-06-24_14h49.52.122,LearnStrategy,2023.2.3,Win32,59.88023952,5,2,14,,,,,,,,6,03,,,,,,,,,,,6,2.161,1,,,,,,-0.083333333,-0.416666667,1,0,0,2.1611,Pegmatite_rect,13,0,13,0,1,
65cbb3a92efd76eb9e9205d6,TCR,2024-06-24_14h49.52.122,LearnStrategy,2023.2.3,Win32,59.88023952,5,2,15,,,,,,,,8,15,,,,,,,,,,,8,1.312,1,,,,,,0.318518603,-0.380555541,1,0,0,1.3115,Pumice_rect,14,0,14,0,1,
65cbb3a92efd76eb9e9205d6,TCR,2024-06-24_14h49.52.122,LearnStrategy,2023.2.3,Win32,59.88023952,5,2,16,,,,,,,,4,14,,,,,,,,,,,3,3.178,0,,,,,,0.158333319,-0.233333376,1,0,0,3.1779,Diorite_rect,15,0,15,0,1,
65cbb3a92efd76eb9e9205d6,TCR,2024-06-24_14h49.52.122,LearnStrategy,2023.2.3,Win32,59.88023952,6,1,1,0.087037051,-0.008333347,1,0,0,1.2494,rock_grid_rect_2,3,12,-1,-1,1.249,-0.365740741,-0.24537037,1,0,0,1.8446,Andesite_rect,1,1.845,0,0,0,0,0,1,,,,,,,,,,,,,
65cbb3a92efd76eb9e9205d6,TCR,2024-06-24_14h49.52.122,LearnStrategy,2023.2.3,Win32,59.88023952,6,1,2,0.07222225,0.010185171,1,0,0,1.3984,rock_grid_rect_2,3,02,-1,-1,1.398,0.409259231,-0.25,1,0,0,2.6781,Gabbro_rect,4,2.678,0,1,0,1,0,1,,,,,,,,,,,,,
65cbb3a92efd76eb9e9205d6,TCR,2024-06-24_14h49.52.122,LearnStrategy,2023.2.3,Win32,59.88023952,6,1,3,0.139814801,-0.006481489,1,0,0,0.8487,rock_grid_rect_2,1,03,-1,-1,0.849,0.466666751,-0.231481481,1,0,0,1.7789,Gabbro_rect,4,1.779,0,2,0,2,0,1,,,,,,,,,,,,,
65cbb3a92efd76eb9e9205d6,TCR,2024-06-24_14h49.52.122,LearnStrategy,2023.2.3,Win32,59.88023952,6,1,4,0.093518504,-0.003703718,1,0,0,0.8821,rock_grid_rect_2,2,12,-1,-1,0.882,0.33148151,-0.39907406,1,0,0,1.5944,Pumice_rect,8,1.594,0,3,0,3,0,1,,,,,,,,,,,,,
65cbb3a92efd76eb9e9205d6,TCR,2024-06-24_14h49.52.122,LearnStrategy,2023.2.3,Win32,59.88023952,6,1,5,0.074999986,-0.002777771,1,0,0,1.5649,rock_grid_rect_2,3,11,-1,-1,1.565,0.139814801,-0.264814801,1,0,0,1.3282,Diorite_rect,3,1.328,1,4,0,4,0,1,,,,,,,,,,,,,
65cbb3a92efd76eb9e9205d6,TCR,2024-06-24_14h49.52.122,LearnStrategy,2023.2.3,Win32,59.88023952,6,1,6,0.078703704,0.014814801,1,0,0,0.8989,rock_grid_rect_2,4,08,-1,-1,0.899,-0.330555563,-0.263888889,1,0,0,1.9788,Andesite_rect,1,1.979,0,5,0,5,0,1,,,,,,,,,,,,,
65cbb3a92efd76eb9e9205d6,TCR,2024-06-24_14h49.52.122,LearnStrategy,2023.2.3,Win32,59.88023952,6,1,7,0.046296296,0.003703683,1,0,0,0.6987,rock_grid_rect_2,7,06,-1,-1,0.699,0.043518561,-0.413888931,1,0,0,2.1782,Peridotite_rect,7,2.178,1,6,0,6,0,1,,,,,,,,,,,,,
65cbb3a92efd76eb9e9205d6,TCR,2024-06-24_14h49.52.122,LearnStrategy,2023.2.3,Win32,59.88023952,6,1,8,0.063888903,-0.003703718,1,0,0,0.8484,rock_grid_rect_2,2,14,-1,-1,0.848,-0.121296282,-0.256481524,1,0,0,4.0282,Basalt_rect,2,4.028,1,7,0,7,0,1,,,,,,,,,,,,,
65cbb3a92efd76eb9e9205d6,TCR,2024-06-24_14h49.52.122,LearnStrategy,2023.2.3,Win32,59.88023952,6,1,9,0.037962949,0.000925912,1,0,0,0.8317,rock_grid_rect_2,1,09,-1,-1,0.832,-0.371296282,-0.24537037,1,0,0,3.3619,Andesite_rect,1,3.362,1,8,0,8,0,1,,,,,,,,,,,,,
65cbb3a92efd76eb9e9205d6,TCR,2024-06-24_14h49.52.122,LearnStrategy,2023.2.3,Win32,59.88023952,6,1,10,0.080555598,0.00462963,1,0,0,0.8322,rock_grid_rect_2,6,06,-1,-1,0.832,-0.097222222,-0.388888889,1,0,0,1.2941,Pegmatite_rect,6,1.294,1,9,0,9,0,1,,,,,,,,,,,,,
65cbb3a92efd76eb9e9205d6,TCR,2024-06-24_14h49.52.122,LearnStrategy,2023.2.3,Win32,59.88023952,6,1,11,0.102777764,0.01203703,1,0,0,0.7654,rock_grid_rect_2,1,01,-1,-1,0.765,-0.352777764,-0.256481524,1,0,0,2.5953,Andesite_rect,1,2.595,1,10,0,10,0,1,,,,,,,,,,,,,
65cbb3a92efd76eb9e9205d6,TCR,2024-06-24_14h49.52.122,LearnStrategy,2023.2.3,Win32,59.88023952,6,1,12,0.039814843,-0.002777771,1,0,0,1.2318,rock_grid_rect_2,4,05,-1,-1,1.232,0.383333418,-0.251851894,1,0,0,2.4942,Gabbro_rect,4,2.494,1,11,0,11,0,1,,,,,,,,,,,,,
65cbb3a92efd76eb9e9205d6,TCR,2024-06-24_14h49.52.122,LearnStrategy,2023.2.3,Win32,59.88023952,6,1,13,0.122222265,-0.01203703,1,0,0,0.7174,rock_grid_rect_2,4,15,-1,-1,0.717,0.37037037,-0.261111153,1,0,0,2.7409,Gabbro_rect,4,2.741,1,12,0,12,0,1,,,,,,,,,,,,,
65cbb3a92efd76eb9e9205d6,TCR,2024-06-24_14h49.52.122,LearnStrategy,2023.2.3,Win32,59.88023952,6,1,14,0.078703704,-0.021296289,1,0,0,0.6984,rock_grid_rect_2,6,11,-1,-1,0.698,-0.10092594,-0.413888931,1,0,0,1.4008,Pegmatite_rect,6,1.401,1,13,0,13,0,1,,,,,,,,,,,,,
65cbb3a92efd76eb9e9205d6,TCR,2024-06-24_14h49.52.122,LearnStrategy,2023.2.3,Win32,59.88023952,6,1,15,0.07222225,0.009259259,1,0,0,1.1338,rock_grid_rect_2,7,08,-1,-1,1.134,0.189814815,-0.400925954,1,0,0,1.6416,Peridotite_rect,7,1.642,1,14,0,14,0,1,,,,,,,,,,,,,
65cbb3a92efd76eb9e9205d6,TCR,2024-06-24_14h49.52.122,LearnStrategy,2023.2.3,Win32,59.88023952,6,1,16,0.053703732,-0.001851859,1,0,0,1.3185,rock_grid_rect_2,1,16,-1,-1,1.319,0.185185185,-0.263888889,1,0,0,1.4248,Diorite_rect,3,1.425,0,15,0,15,0,1,,,,,,,,,,,,,
65cbb3a92efd76eb9e9205d6,TCR,2024-06-24_14h49.52.122,LearnStrategy,2023.2.3,Win32,59.88023952,6,2,1,,,,,,,,1,05,,,,,,,,,,,1,4.411,1,,,,,,-0.305555556,-0.246296282,1,0,0,4.4115,Andesite_rect,0,0,0,0,1,
65cbb3a92efd76eb9e9205d6,TCR,2024-06-24_14h49.52.122,LearnStrategy,2023.2.3,Win32,59.88023952,6,2,2,,,,,,,,4,13,,,,,,,,,,,3,4.277,0,,,,,,0.122222265,-0.250925912,1,0,0,4.2772,Diorite_rect,1,0,1,0,1,
65cbb3a92efd76eb9e9205d6,TCR,2024-06-24_14h49.52.122,LearnStrategy,2023.2.3,Win32,59.88023952,6,2,3,,,,,,,,7,02,,,,,,,,,,,7,1.661,1,,,,,,0.108333376,-0.414814843,1,0,0,1.6607,Peridotite_rect,2,0,2,0,1,
65cbb3a92efd76eb9e9205d6,TCR,2024-06-24_14h49.52.122,LearnStrategy,2023.2.3,Win32,59.88023952,6,2,4,,,,,,,,8,13,,,,,,,,,,,8,1.178,1,,,,,,0.333333333,-0.404629672,1,0,0,1.1781,Pumice_rect,3,0,3,0,1,
65cbb3a92efd76eb9e9205d6,TCR,2024-06-24_14h49.52.122,LearnStrategy,2023.2.3,Win32,59.88023952,6,2,5,,,,,,,,3,09,,,,,,,,,,,3,1.661,1,,,,,,0.143518519,-0.232407393,1,0,0,1.6614,Diorite_rect,4,0,4,0,1,
65cbb3a92efd76eb9e9205d6,TCR,2024-06-24_14h49.52.122,LearnStrategy,2023.2.3,Win32,59.88023952,6,2,6,,,,,,,,7,07,,,,,,,,,,,4,3.477,0,,,,,,0.332407492,-0.244444459,1,0,0,3.4775,Gabbro_rect,5,0,5,0,1,
65cbb3a92efd76eb9e9205d6,TCR,2024-06-24_14h49.52.122,LearnStrategy,2023.2.3,Win32,59.88023952,6,2,7,,,,,,,,1,11,,,,,,,,,,,1,1.728,1,,,,,,-0.322222215,-0.25,1,0,0,1.7277,Andesite_rect,6,0,6,0,1,
65cbb3a92efd76eb9e9205d6,TCR,2024-06-24_14h49.52.122,LearnStrategy,2023.2.3,Win32,59.88023952,6,2,8,,,,,,,,4,01,,,,,,,,,,,1,2.578,0,,,,,,-0.322222215,-0.25,1,0,0,2.5776,Andesite_rect,7,0,7,0,1,
65cbb3a92efd76eb9e9205d6,TCR,2024-06-24_14h49.52.122,LearnStrategy,2023.2.3,Win32,59.88023952,6,2,9,,,,,,,,6,07,,,,,,,,,,,6,1.634,1,,,,,,-0.19259255,-0.400000042,1,0,0,1.6337,Pegmatite_rect,8,0,8,0,1,
65cbb3a92efd76eb9e9205d6,TCR,2024-06-24_14h49.52.122,LearnStrategy,2023.2.3,Win32,59.88023952,6,2,10,,,,,,,,8,10,,,,,,,,,,,8,1.728,1,,,,,,0.313888974,-0.386111153,1,0,0,1.7275,Pumice_rect,9,0,9,0,1,
65cbb3a92efd76eb9e9205d6,TCR,2024-06-24_14h49.52.122,LearnStrategy,2023.2.3,Win32,59.88023952,6,2,11,,,,,,,,6,13,,,,,,,,,,,6,1.412,1,,,,,,-0.156481496,-0.408333319,1,0,0,1.4117,Pegmatite_rect,10,0,10,0,1,
65cbb3a92efd76eb9e9205d6,TCR,2024-06-24_14h49.52.122,LearnStrategy,2023.2.3,Win32,59.88023952,6,2,12,,,,,,,,5,10,,,,,,,,,,,5,1.144,1,,,,,,-0.357407393,-0.383333347,1,0,0,1.1443,Obsidian_rect,11,0,11,0,1,
65cbb3a92efd76eb9e9205d6,TCR,2024-06-24_14h49.52.122,LearnStrategy,2023.2.3,Win32,59.88023952,6,2,13,,,,,,,,2,11,,,,,,,,,,,1,3.528,0,,,,,,-0.40370369,-0.267592607,1,0,0,3.5277,Andesite_rect,12,0,12,0,1,
65cbb3a92efd76eb9e9205d6,TCR,2024-06-24_14h49.52.122,LearnStrategy,2023.2.3,Win32,59.88023952,6,2,14,,,,,,,,3,14,,,,,,,,,,,3,1.561,1,,,,,,0.181481467,-0.241666653,1,0,0,1.5607,Diorite_rect,13,0,13,0,1,
65cbb3a92efd76eb9e9205d6,TCR,2024-06-24_14h49.52.122,LearnStrategy,2023.2.3,Win32,59.88023952,6,2,15,,,,,,,,5,06,,,,,,,,,,,5,1.995,1,,,,,,-0.340740734,-0.387037065,1,0,0,1.9953,Obsidian_rect,14,0,14,0,1,
65cbb3a92efd76eb9e9205d6,TCR,2024-06-24_14h49.52.122,LearnStrategy,2023.2.3,Win32,59.88023952,6,2,16,,,,,,,,2,16,,,,,,,,,,,2,1.028,1,,,,,,-0.111111111,-0.246296282,1,0,0,1.0282,Basalt_rect,15,0,15,0,1,
65cbb3a92efd76eb9e9205d6,TCR,2024-06-24_14h49.52.122,LearnStrategy,2023.2.3,Win32,59.88023952,7,1,1,0.012037065,-0.000925947,1,0,0,1.1487,rock_grid_rect_2,3,07,-1,-1,1.149,0.123148176,-0.237963005,1,0,0,1.3944,Diorite_rect,3,1.394,1,0,0,0,0,1,,,,,,,,,,,,,
65cbb3a92efd76eb9e9205d6,TCR,2024-06-24_14h49.52.122,LearnStrategy,2023.2.3,Win32,59.88023952,7,1,2,0.082407422,-0.017592607,1,0,0,0.7155,rock_grid_rect_2,1,01,-1,-1,0.716,-0.330555563,-0.238888917,1,0,0,1.3785,Andesite_rect,1,1.379,1,1,0,1,0,1,,,,,,,,,,,,,
65cbb3a92efd76eb9e9205d6,TCR,2024-06-24_14h49.52.122,LearnStrategy,2023.2.3,Win32,59.88023952,7,1,3,0.017592607,-0.00462963,1,0,0,0.948,rock_grid_rect_2,6,05,-1,-1,0.948,-0.084259245,-0.419444473,1,0,0,1.4615,Pegmatite_rect,6,1.461,1,2,0,2,0,1,,,,,,,,,,,,,
65cbb3a92efd76eb9e9205d6,TCR,2024-06-24_14h49.52.122,LearnStrategy,2023.2.3,Win32,59.88023952,7,1,4,0.060185185,0.022222201,1,0,0,0.6156,rock_grid_rect_2,1,03,-1,-1,0.616,-0.350925905,-0.247222265,1,0,0,1.7455,Andesite_rect,1,1.745,1,3,0,3,0,1,,,,,,,,,,,,,
65cbb3a92efd76eb9e9205d6,TCR,2024-06-24_14h49.52.122,LearnStrategy,2023.2.3,Win32,59.88023952,7,1,5,0.025000042,-0.019444466,1,0,0,0.7321,rock_grid_rect_2,3,10,-1,-1,0.732,0.058333362,-0.252777806,1,0,0,3.6282,Diorite_rect,3,3.628,1,4,0,4,0,1,,,,,,,,,,,,,
65cbb3a92efd76eb9e9205d6,TCR,2024-06-24_14h49.52.122,LearnStrategy,2023.2.3,Win32,59.88023952,7,1,6,0.050000014,-0.013888889,1,0,0,0.782,rock_grid_rect_2,4,15,-1,-1,0.782,0.137962977,-0.236111111,1,0,0,1.3949,Diorite_rect,3,1.395,0,5,0,5,0,1,,,,,,,,,,,,,
65cbb3a92efd76eb9e9205d6,TCR,2024-06-24_14h49.52.122,LearnStrategy,2023.2.3,Win32,59.88023952,7,1,7,0.032407407,-0.021296289,1,0,0,2.0987,rock_grid_rect_2,2,04,-1,-1,2.099,-0.058333291,-0.231481481,1,0,0,1.1302,Basalt_rect,2,1.13,1,6,0,6,0,1,,,,,,,,,,,,,
65cbb3a92efd76eb9e9205d6,TCR,2024-06-24_14h49.52.122,LearnStrategy,2023.2.3,Win32,59.88023952,7,1,8,0.158333319,-0.020370377,1,0,0,1.2653,rock_grid_rect_2,7,04,-1,-1,1.265,0.178703732,-0.419444473,1,0,0,2.0614,Peridotite_rect,7,2.061,1,7,0,7,0,1,,,,,,,,,,,,,
65cbb3a92efd76eb9e9205d6,TCR,2024-06-24_14h49.52.122,LearnStrategy,2023.2.3,Win32,59.88023952,7,1,9,0.039814843,0.009259259,1,0,0,1.1315,rock_grid_rect_2,4,05,-1,-1,1.132,0.393518519,-0.261111153,1,0,0,2.6615,Gabbro_rect,4,2.661,1,8,0,8,0,1,,,,,,,,,,,,,
65cbb3a92efd76eb9e9205d6,TCR,2024-06-24_14h49.52.122,LearnStrategy,2023.2.3,Win32,59.88023952,7,1,10,0.134259259,-0.015740748,1,0,0,1.5156,rock_grid_rect_2,3,11,-1,-1,1.516,0.218518504,-0.264814801,1,0,0,1.3612,Diorite_rect,3,1.361,1,9,0,9,0,1,,,,,,,,,,,,,
65cbb3a92efd76eb9e9205d6,TCR,2024-06-24_14h49.52.122,LearnStrategy,2023.2.3,Win32,59.88023952,7,1,11,0.088888875,-0.024074095,1,0,0,0.9987,rock_grid_rect_2,7,06,-1,-1,0.999,-0.10092594,-0.397222236,1,0,0,2.4785,Pegmatite_rect,6,2.478,0,10,0,10,0,1,,,,,,,,,,,,,
65cbb3a92efd76eb9e9205d6,TCR,2024-06-24_14h49.52.122,LearnStrategy,2023.2.3,Win32,59.88023952,7,1,12,0.054629644,-0.009259259,1,0,0,0.6983,rock_grid_rect_2,6,11,-1,-1,0.698,-0.065740727,-0.412962949,1,0,0,1.4285,Pegmatite_rect,6,1.428,1,11,0,11,0,1,,,,,,,,,,,,,
65cbb3a92efd76eb9e9205d6,TCR,2024-06-24_14h49.52.122,LearnStrategy,2023.2.3,Win32,59.88023952,7,1,13,0.147222236,-0.00462963,1,0,0,1.4816,rock_grid_rect_2,4,10,-1,-1,1.482,0.392592677,-0.271296325,1,0,0,2.5452,Gabbro_rect,4,2.545,1,12,0,12,0,1,,,,,,,,,,,,,
65cbb3a92efd76eb9e9205d6,TCR,2024-06-24_14h49.52.122,LearnStrategy,2023.2.3,Win32,59.88023952,7,1,14,0.074074074,0.002777771,1,0,0,1.3652,rock_grid_rect_2,4,11,-1,-1,1.365,0.37962963,-0.262037065,1,0,0,2.8948,Gabbro_rect,4,2.895,1,13,0,13,0,1,,,,,,,,,,,,,
65cbb3a92efd76eb9e9205d6,TCR,2024-06-24_14h49.52.122,LearnStrategy,2023.2.3,Win32,59.88023952,7,1,15,0.116666653,0.002777771,1,0,0,1.115,rock_grid_rect_2,2,04,-1,-1,1.115,-0.108333305,-0.249074088,1,0,0,1.2115,Basalt_rect,2,1.211,1,14,0,14,0,1,,,,,,,,,,,,,
65cbb3a92efd76eb9e9205d6,TCR,2024-06-24_14h49.52.122,LearnStrategy,2023.2.3,Win32,59.88023952,7,1,16,0.102777764,0.01944443,1,0,0,1.1656,rock_grid_rect_2,1,03,-1,-1,1.166,-0.323148127,-0.262037065,1,0,0,1.6115,Andesite_rect,1,1.611,1,15,0,15,0,1,,,,,,,,,,,,,
65cbb3a92efd76eb9e9205d6,TCR,2024-06-24_14h49.52.122,LearnStrategy,2023.2.3,Win32,59.88023952,7,2,1,,,,,,,,4,01,,,,,,,,,,,3,5.761,0,,,,,,0.040740755,-0.250925912,1,0,0,5.7612,Diorite_rect,0,0,0,0,1,
65cbb3a92efd76eb9e9205d6,TCR,2024-06-24_14h49.52.122,LearnStrategy,2023.2.3,Win32,59.88023952,7,2,2,,,,,,,,6,07,,,,,,,,,,,6,1.411,1,,,,,,-0.152777778,-0.409259302,1,0,0,1.4111,Pegmatite_rect,1,0,1,0,1,
65cbb3a92efd76eb9e9205d6,TCR,2024-06-24_14h49.52.122,LearnStrategy,2023.2.3,Win32,59.88023952,7,2,3,,,,,,,,7,10,,,,,,,,,,,4,1.878,0,,,,,,0.338888945,-0.231481481,1,0,0,1.8777,Gabbro_rect,2,0,2,0,1,
65cbb3a92efd76eb9e9205d6,TCR,2024-06-24_14h49.52.122,LearnStrategy,2023.2.3,Win32,59.88023952,7,2,4,,,,,,,,3,15,,,,,,,,,,,3,1.912,1,,,,,,0.135185171,-0.257407436,1,0,0,1.9118,Diorite_rect,3,0,3,0,1,
65cbb3a92efd76eb9e9205d6,TCR,2024-06-24_14h49.52.122,LearnStrategy,2023.2.3,Win32,59.88023952,7,2,5,,,,,,,,5,06,,,,,,,,,,,5,2.011,1,,,,,,-0.355555534,-0.387962977,1,0,0,2.0106,Obsidian_rect,4,0,4,0,1,
65cbb3a92efd76eb9e9205d6,TCR,2024-06-24_14h49.52.122,LearnStrategy,2023.2.3,Win32,59.88023952,7,2,6,,,,,,,,8,04,,,,,,,,,,,8,1.577,1,,,,,,0.337037122,-0.389814801,1,0,0,1.5773,Pumice_rect,5,0,5,0,1,
65cbb3a92efd76eb9e9205d6,TCR,2024-06-24_14h49.52.122,LearnStrategy,2023.2.3,Win32,59.88023952,7,2,7,,,,,,,,2,10,,,,,,,,,,,2,1.311,1,,,,,,-0.085185157,-0.256481524,1,0,0,1.3108,Basalt_rect,6,0,6,0,1,
65cbb3a92efd76eb9e9205d6,TCR,2024-06-24_14h49.52.122,LearnStrategy,2023.2.3,Win32,59.88023952,7,2,8,,,,,,,,7,07,,,,,,,,,,,4,1.794,0,,,,,,0.437037009,-0.233333376,1,0,0,1.7944,Gabbro_rect,7,0,7,0,1,
65cbb3a92efd76eb9e9205d6,TCR,2024-06-24_14h49.52.122,LearnStrategy,2023.2.3,Win32,59.88023952,7,2,9,,,,,,,,2,16,,,,,,,,,,,2,1.16,1,,,,,,-0.093518504,-0.26944443,1,0,0,1.1599,Basalt_rect,8,0,8,0,1,
65cbb3a92efd76eb9e9205d6,TCR,2024-06-24_14h49.52.122,LearnStrategy,2023.2.3,Win32,59.88023952,7,2,10,,,,,,,,5,16,,,,,,,,,,,5,1.711,1,,,,,,-0.343518504,-0.417592578,1,0,0,1.7109,Obsidian_rect,9,0,9,0,1,
65cbb3a92efd76eb9e9205d6,TCR,2024-06-24_14h49.52.122,LearnStrategy,2023.2.3,Win32,59.88023952,7,2,11,,,,,,,,4,03,,,,,,,,,,,4,3.128,1,,,,,,0.374074159,-0.258333347,1,0,0,3.1284,Gabbro_rect,10,0,10,0,1,
65cbb3a92efd76eb9e9205d6,TCR,2024-06-24_14h49.52.122,LearnStrategy,2023.2.3,Win32,59.88023952,7,2,12,,,,,,,,3,14,,,,,,,,,,,3,1.161,1,,,,,,0.187037079,-0.262962977,1,0,0,1.1612,Diorite_rect,11,0,11,0,1,
65cbb3a92efd76eb9e9205d6,TCR,2024-06-24_14h49.52.122,LearnStrategy,2023.2.3,Win32,59.88023952,7,2,13,,,,,,,,6,12,,,,,,,,,,,3,2.462,0,,,,,,0.187037079,-0.262962977,1,0,0,2.4616,Diorite_rect,12,0,12,0,1,
65cbb3a92efd76eb9e9205d6,TCR,2024-06-24_14h49.52.122,LearnStrategy,2023.2.3,Win32,59.88023952,7,2,14,,,,,,,,1,07,,,,,,,,,,,3,2.178,0,,,,,,0.187037079,-0.262962977,1,0,0,2.1778,Diorite_rect,13,0,13,0,1,
65cbb3a92efd76eb9e9205d6,TCR,2024-06-24_14h49.52.122,LearnStrategy,2023.2.3,Win32,59.88023952,7,2,15,,,,,,,,1,05,,,,,,,,,,,1,3.061,1,,,,,,-0.355555534,-0.234259288,1,0,0,3.061,Andesite_rect,14,0,14,0,1,
65cbb3a92efd76eb9e9205d6,TCR,2024-06-24_14h49.52.122,LearnStrategy,2023.2.3,Win32,59.88023952,7,2,16,,,,,,,,8,03,,,,,,,,,,,8,1.577,1,,,,,,0.420370455,-0.388888889,1,0,0,1.5772,Pumice_rect,15,0,15,0,1,
65cbb3a92efd76eb9e9205d6,TCR,2024-06-24_14h49.52.122,LearnStrategy,2023.2.3,Win32,59.88023952,8,1,1,0.00462963,-0.020370377,1,0,0,1.2156,rock_grid_rect_2,6,05,-1,-1,1.216,-0.088888875,-0.415740755,1,0,0,1.7614,Pegmatite_rect,6,1.761,1,0,0,0,0,1,,,,,,,,,,,,,
65cbb3a92efd76eb9e9205d6,TCR,2024-06-24_14h49.52.122,LearnStrategy,2023.2.3,Win32,59.88023952,8,1,2,0.148148148,0.000925912,1,0,0,1.9487,rock_grid_rect_2,2,04,-1,-1,1.949,-0.148148148,-0.246296282,1,0,0,6.2118,Basalt_rect,2,6.212,1,1,0,1,0,1,,,,,,,,,,,,,
65cbb3a92efd76eb9e9205d6,TCR,2024-06-24_14h49.52.122,LearnStrategy,2023.2.3,Win32,59.88023952,8,1,3,0.147222236,-0.022222236,1,0,0,1.1317,rock_grid_rect_2,3,10,-1,-1,1.132,0.12037037,-0.238888917,1,0,0,2.1948,Diorite_rect,3,2.195,1,2,0,2,0,1,,,,,,,,,,,,,
65cbb3a92efd76eb9e9205d6,TCR,2024-06-24_14h49.52.122,LearnStrategy,2023.2.3,Win32,59.88023952,8,1,4,0.125,-0.017592607,1,0,0,0.9147,rock_grid_rect_2,3,11,-1,-1,0.915,0.09629631,-0.270370413,1,0,0,1.8282,Diorite_rect,3,1.828,1,3,0,3,0,1,,,,,,,,,,,,,
65cbb3a92efd76eb9e9205d6,TCR,2024-06-24_14h49.52.122,LearnStrategy,2023.2.3,Win32,59.88023952,8,1,5,0.074074074,0,1,0,0,0.7985,rock_grid_rect_2,4,08,-1,-1,0.799,0.387037065,-0.24537037,1,0,0,4.4289,Gabbro_rect,4,4.429,1,4,0,4,0,1,,,,,,,,,,,,,
65cbb3a92efd76eb9e9205d6,TCR,2024-06-24_14h49.52.122,LearnStrategy,2023.2.3,Win32,59.88023952,8,1,6,0.170370384,0.000925912,1,0,0,1.2817,rock_grid_rect_2,4,11,-1,-1,1.282,0.344444416,-0.261111153,1,0,0,6.2452,Gabbro_rect,4,6.245,1,5,0,5,0,1,,,,,,,,,,,,,
65cbb3a92efd76eb9e9205d6,TCR,2024-06-24_14h49.52.122,LearnStrategy,2023.2.3,Win32,59.88023952,8,1,7,0.125925912,-0.015740748,1,0,0,1.1652,rock_grid_rect_2,7,08,-1,-1,1.165,0.060185185,-0.393518519,1,0,0,2.1792,Peridotite_rect,7,2.179,1,6,0,6,0,1,,,,,,,,,,,,,
65cbb3a92efd76eb9e9205d6,TCR,2024-06-24_14h49.52.122,LearnStrategy,2023.2.3,Win32,59.88023952,8,1,8,0.039814843,-0.010185206,1,0,0,2.276,rock_grid_rect_2,8,05,-1,-1,2.276,0.341666751,-0.40370369,1,0,0,1.5276,Pumice_rect,8,1.528,1,7,0,7,0,1,,,,,,,,,,,,,
65cbb3a92efd76eb9e9205d6,TCR,2024-06-24_14h49.52.122,LearnStrategy,2023.2.3,Win32,59.88023952,8,1,9,0.100000028,0.002777771,1,0,0,1.5153,rock_grid_rect_2,1,06,-1,-1,1.515,-0.373148141,-0.250925912,1,0,0,3.1446,Andesite_rect,1,3.145,1,8,0,8,0,1,,,,,,,,,,,,,
65cbb3a92efd76eb9e9205d6,TCR,2024-06-24_14h49.52.122,LearnStrategy,2023.2.3,Win32,59.88023952,8,1,10,0.045370384,-0.003703718,1,0,0,0.9988,rock_grid_rect_2,6,08,-1,-1,0.999,-0.148148148,-0.383333347,1,0,0,2.1115,Pegmatite_rect,6,2.111,1,9,0,9,0,1,,,,,,,,,,,,,
65cbb3a92efd76eb9e9205d6,TCR,2024-06-24_14h49.52.122,LearnStrategy,2023.2.3,Win32,59.88023952,8,1,11,0.089814857,-0.021296289,1,0,0,1.5987,rock_grid_rect_2,1,06,-1,-1,1.599,-0.328703704,-0.249074088,1,0,0,4.9281,Andesite_rect,1,4.928,1,10,0,10,0,1,,,,,,,,,,,,,
65cbb3a92efd76eb9e9205d6,TCR,2024-06-24_14h49.52.122,LearnStrategy,2023.2.3,Win32,59.88023952,8,1,12,0.123148176,0.018518519,1,0,0,0.9656,rock_grid_rect_2,4,15,-1,-1,0.966,0.183333362,-0.250925912,1,0,0,11.1284,Diorite_rect,3,11.128,0,11,0,11,0,1,,,,,,,,,,,,,
65cbb3a92efd76eb9e9205d6,TCR,2024-06-24_14h49.52.122,LearnStrategy,2023.2.3,Win32,59.88023952,8,1,13,0.065740727,-0.002777771,1,0,0,1.8983,rock_grid_rect_2,4,05,-1,-1,1.898,0.383333418,-0.259259259,1,0,0,1.3282,Gabbro_rect,4,1.328,1,12,0,12,0,1,,,,,,,,,,,,,
65cbb3a92efd76eb9e9205d6,TCR,2024-06-24_14h49.52.122,LearnStrategy,2023.2.3,Win32,59.88023952,8,1,14,0.10555557,-0.019444466,1,0,0,2.849,rock_grid_rect_2,7,04,-1,-1,2.849,0.166666667,-0.418518561,1,0,0,1.9451,Peridotite_rect,7,1.945,1,13,0,13,0,1,,,,,,,,,,,,,
65cbb3a92efd76eb9e9205d6,TCR,2024-06-24_14h49.52.122,LearnStrategy,2023.2.3,Win32,59.88023952,8,1,15,0.118518547,-0.023148148,1,0,0,1.1986,rock_grid_rect_2,7,12,-1,-1,1.199,0.358333305,-0.242592635,1,0,0,1.9613,Gabbro_rect,4,1.961,0,14,0,14,0,1,,,,,,,,,,,,,
65cbb3a92efd76eb9e9205d6,TCR,2024-06-24_14h49.52.122,LearnStrategy,2023.2.3,Win32,59.88023952,8,1,16,0.103703746,0.005555541,1,0,0,1.5152,rock_grid_rect_2,1,09,-1,-1,1.515,-0.447222215,-0.261111153,1,0,0,1.8107,Andesite_rect,1,1.811,1,15,0,15,0,1,,,,,,,,,,,,,
65cbb3a92efd76eb9e9205d6,TCR,2024-06-24_14h49.52.122,LearnStrategy,2023.2.3,Win32,59.88023952,8,2,1,,,,,,,,5,10,,,,,,,,,,,5,1.544,1,,,,,,-0.375925912,-0.412037037,1,0,0,1.5445,Obsidian_rect,0,0,0,0,1,
65cbb3a92efd76eb9e9205d6,TCR,2024-06-24_14h49.52.122,LearnStrategy,2023.2.3,Win32,59.88023952,8,2,2,,,,,,,,5,12,,,,,,,,,,,5,0.944,1,,,,,,-0.375925912,-0.412037037,1,0,0,0.944,Obsidian_rect,1,0,1,0,1,
65cbb3a92efd76eb9e9205d6,TCR,2024-06-24_14h49.52.122,LearnStrategy,2023.2.3,Win32,59.88023952,8,2,3,,,,,,,,7,14,,,,,,,,,,,7,2.627,1,,,,,,0.187962991,-0.412037037,1,0,0,2.6273,Peridotite_rect,2,0,2,0,1,
65cbb3a92efd76eb9e9205d6,TCR,2024-06-24_14h49.52.122,LearnStrategy,2023.2.3,Win32,59.88023952,8,2,4,,,,,,,,7,15,,,,,,,,,,,7,2.478,1,,,,,,0.187962991,-0.412037037,1,0,0,2.4778,Peridotite_rect,3,0,3,0,1,
65cbb3a92efd76eb9e9205d6,TCR,2024-06-24_14h49.52.122,LearnStrategy,2023.2.3,Win32,59.88023952,8,2,5,,,,,,,,6,16,,,,,,,,,,,6,1.294,1,,,,,,-0.07222218,-0.39444443,1,0,0,1.2944,Pegmatite_rect,4,0,4,0,1,
65cbb3a92efd76eb9e9205d6,TCR,2024-06-24_14h49.52.122,LearnStrategy,2023.2.3,Win32,59.88023952,8,2,6,,,,,,,,3,13,,,,,,,,,,,3,2.211,1,,,,,,0.133333347,-0.258333347,1,0,0,2.2107,Diorite_rect,5,0,5,0,1,
65cbb3a92efd76eb9e9205d6,TCR,2024-06-24_14h49.52.122,LearnStrategy,2023.2.3,Win32,59.88023952,8,2,7,,,,,,,,8,15,,,,,,,,,,,8,1.194,1,,,,,,0.352777834,-0.417592578,1,0,0,1.1936,Pumice_rect,6,0,6,0,1,
65cbb3a92efd76eb9e9205d6,TCR,2024-06-24_14h49.52.122,LearnStrategy,2023.2.3,Win32,59.88023952,8,2,8,,,,,,,,2,11,,,,,,,,,,,1,4.627,0,,,,,,-0.378703683,-0.256481524,1,0,0,4.6274,Andesite_rect,7,0,7,0,1,
65cbb3a92efd76eb9e9205d6,TCR,2024-06-24_14h49.52.122,LearnStrategy,2023.2.3,Win32,59.88023952,8,2,9,,,,,,,,2,09,,,,,,,,,,,2,1.428,1,,,,,,-0.151851866,-0.266666695,1,0,0,1.4275,Basalt_rect,8,0,8,0,1,
65cbb3a92efd76eb9e9205d6,TCR,2024-06-24_14h49.52.122,LearnStrategy,2023.2.3,Win32,59.88023952,8,2,10,,,,,,,,1,02,,,,,,,,,,,3,2.294,0,,,,,,0.05740745,-0.262037065,1,0,0,2.2941,Diorite_rect,9,0,9,0,1,
65cbb3a92efd76eb9e9205d6,TCR,2024-06-24_14h49.52.122,LearnStrategy,2023.2.3,Win32,59.88023952,8,2,11,,,,,,,,1,11,,,,,,,,,,,1,1.494,1,,,,,,-0.334259245,-0.240740741,1,0,0,1.4944,Andesite_rect,10,0,10,0,1,
65cbb3a92efd76eb9e9205d6,TCR,2024-06-24_14h49.52.122,LearnStrategy,2023.2.3,Win32,59.88023952,8,2,12,,,,,,,,4,14,,,,,,,,,,,4,2.827,1,,,,,,0.37962963,-0.244444459,1,0,0,2.8273,Gabbro_rect,11,0,11,0,1,
65cbb3a92efd76eb9e9205d6,TCR,2024-06-24_14h49.52.122,LearnStrategy,2023.2.3,Win32,59.88023952,8,2,13,,,,,,,,8,13,,,,,,,,,,,8,1.044,1,,,,,,0.334259316,-0.387962977,1,0,0,1.0442,Pumice_rect,12,0,12,0,1,
65cbb3a92efd76eb9e9205d6,TCR,2024-06-24_14h49.52.122,LearnStrategy,2023.2.3,Win32,59.88023952,8,2,14,,,,,,,,6,10,,,,,,,,,,,7,1.161,0,,,,,,0.115740741,-0.417592578,1,0,0,1.1611,Peridotite_rect,13,0,13,0,1,
65cbb3a92efd76eb9e9205d6,TCR,2024-06-24_14h49.52.122,LearnStrategy,2023.2.3,Win32,59.88023952,8,2,15,,,,,,,,3,08,,,,,,,,,,,3,1.861,1,,,,,,0.14907406,-0.253703718,1,0,0,1.8606,Diorite_rect,14,0,14,0,1,
65cbb3a92efd76eb9e9205d6,TCR,2024-06-24_14h49.52.122,LearnStrategy,2023.2.3,Win32,59.88023952,8,2,16,,,,,,,,4,16,,,,,,,,,,,4,2.894,1,,,,,,0.434259344,-0.238888917,1,0,0,2.8944,Gabbro_rect,15,0,15,0,1,
65cbb3a92efd76eb9e9205d6,TCR,2024-06-24_14h49.52.122,LearnStrategy,2023.2.3,Win32,59.88023952,9,1,1,0.102777764,-0.002777771,1,0,0,1.7321,rock_grid_rect_2,1,09,-1,-1,1.732,-0.371296282,-0.257407436,1,0,0,1.5951,Andesite_rect,1,1.595,1,0,0,0,0,1,,,,,,,,,,,,,
65cbb3a92efd76eb9e9205d6,TCR,2024-06-24_14h49.52.122,LearnStrategy,2023.2.3,Win32,59.88023952,9,1,2,-0.003703718,-0.011111118,1,0,0,1.0817,rock_grid_rect_2,1,03,-1,-1,1.082,-0.327777757,-0.237963005,1,0,0,1.4441,Andesite_rect,1,1.444,1,1,0,1,0,1,,,,,,,,,,,,,
65cbb3a92efd76eb9e9205d6,TCR,2024-06-24_14h49.52.122,LearnStrategy,2023.2.3,Win32,59.88023952,9,1,3,0.027777778,-0.00462963,1,0,0,0.8152,rock_grid_rect_2,6,11,-1,-1,0.815,-0.115740741,-0.380555541,1,0,0,1.2948,Pegmatite_rect,6,1.295,1,2,0,2,0,1,,,,,,,,,,,,,
65cbb3a92efd76eb9e9205d6,TCR,2024-06-24_14h49.52.122,LearnStrategy,2023.2.3,Win32,59.88023952,9,1,4,0.059259273,0.001851859,1,0,0,1.0488,rock_grid_rect_2,7,06,-1,-1,1.049,0.080555598,-0.410185213,1,0,0,1.6121,Peridotite_rect,7,1.612,1,3,0,3,0,1,,,,,,,,,,,,,
65cbb3a92efd76eb9e9205d6,TCR,2024-06-24_14h49.52.122,LearnStrategy,2023.2.3,Win32,59.88023952,9,1,5,0.051851838,0.02407406,1,0,0,0.6484,rock_grid_rect_2,4,12,-1,-1,0.648,0.369444529,-0.239814829,1,0,0,1.6281,Gabbro_rect,4,1.628,1,4,0,4,0,1,,,,,,,,,,,,,
65cbb3a92efd76eb9e9205d6,TCR,2024-06-24_14h49.52.122,LearnStrategy,2023.2.3,Win32,59.88023952,9,1,6,0.025000042,-0.0074074,1,0,0,0.7985,rock_grid_rect_2,2,14,-1,-1,0.799,0.350000028,-0.232407393,1,0,0,2.3451,Gabbro_rect,4,2.345,0,5,0,5,0,1,,,,,,,,,,,,,
65cbb3a92efd76eb9e9205d6,TCR,2024-06-24_14h49.52.122,LearnStrategy,2023.2.3,Win32,59.88023952,9,1,7,0.053703732,0.015740748,1,0,0,0.8481,rock_grid_rect_2,4,10,-1,-1,0.848,0.325000057,-0.255555541,1,0,0,1.4952,Gabbro_rect,4,1.495,1,6,0,6,0,1,,,,,,,,,,,,,
65cbb3a92efd76eb9e9205d6,TCR,2024-06-24_14h49.52.122,LearnStrategy,2023.2.3,Win32,59.88023952,9,1,8,0.088888875,-0.01203703,1,0,0,1.1989,rock_grid_rect_2,5,07,-1,-1,1.199,-0.331481474,-0.417592578,1,0,0,1.5609,Obsidian_rect,5,1.561,1,7,0,7,0,1,,,,,,,,,,,,,
65cbb3a92efd76eb9e9205d6,TCR,2024-06-24_14h49.52.122,LearnStrategy,2023.2.3,Win32,59.88023952,9,1,9,0.061111097,0.005555541,1,0,0,1.0819,rock_grid_rect_2,7,05,-1,-1,1.082,0.101851852,-0.387037065,1,0,0,6.7619,Peridotite_rect,7,6.762,1,8,0,8,0,1,,,,,,,,,,,,,
65cbb3a92efd76eb9e9205d6,TCR,2024-06-24_14h49.52.122,LearnStrategy,2023.2.3,Win32,59.88023952,9,1,10,0.095370399,-0.014814836,1,0,0,2.5653,rock_grid_rect_2,3,11,-1,-1,2.565,0.122222265,-0.253703718,1,0,0,2.4119,Diorite_rect,3,2.412,1,9,0,9,0,1,,,,,,,,,,,,,
65cbb3a92efd76eb9e9205d6,TCR,2024-06-24_14h49.52.122,LearnStrategy,2023.2.3,Win32,59.88023952,9,1,11,-0.027777778,0.010185171,1,0,0,1.2822,rock_grid_rect_2,6,09,-1,-1,1.282,0.119444459,-0.402777778,1,0,0,7.6116,Peridotite_rect,7,7.612,0,10,0,10,0,1,,,,,,,,,,,,,
65cbb3a92efd76eb9e9205d6,TCR,2024-06-24_14h49.52.122,LearnStrategy,2023.2.3,Win32,59.88023952,9,1,12,0.003703718,-0.011111118,1,0,0,0.8821,rock_grid_rect_2,4,08,-1,-1,0.882,0.363888917,-0.271296325,1,0,0,1.5615,Gabbro_rect,4,1.562,1,11,0,11,0,1,,,,,,,,,,,,,
65cbb3a92efd76eb9e9205d6,TCR,2024-06-24_14h49.52.122,LearnStrategy,2023.2.3,Win32,59.88023952,9,1,13,0.126851894,-0.003703718,1,0,0,1.2154,rock_grid_rect_2,2,04,-1,-1,1.215,-0.10092594,-0.248148176,1,0,0,1.6113,Basalt_rect,2,1.611,1,12,0,12,0,1,,,,,,,,,,,,,
65cbb3a92efd76eb9e9205d6,TCR,2024-06-24_14h49.52.122,LearnStrategy,2023.2.3,Win32,59.88023952,9,1,14,0.066666709,-0.012962977,1,0,0,0.9485,rock_grid_rect_2,1,09,-1,-1,0.948,-0.383333312,-0.248148176,1,0,0,1.2615,Andesite_rect,1,1.261,1,13,0,13,0,1,,,,,,,,,,,,,
65cbb3a92efd76eb9e9205d6,TCR,2024-06-24_14h49.52.122,LearnStrategy,2023.2.3,Win32,59.88023952,9,1,15,0.023148148,0.002777771,1,0,0,0.6988,rock_grid_rect_2,3,06,-1,-1,0.699,0.389814871,-0.247222265,1,0,0,2.0112,Gabbro_rect,4,2.011,0,14,0,14,0,1,,,,,,,,,,,,,
65cbb3a92efd76eb9e9205d6,TCR,2024-06-24_14h49.52.122,LearnStrategy,2023.2.3,Win32,59.88023952,9,1,16,0.046296296,-0.014814836,1,0,0,0.7985,rock_grid_rect_2,8,02,-1,-1,0.799,0.368518547,-0.415740755,1,0,0,1.5449,Pumice_rect,8,1.545,1,15,0,15,0,1,,,,,,,,,,,,,
65cbb3a92efd76eb9e9205d6,TCR,2024-06-24_14h49.52.122,LearnStrategy,2023.2.3,Win32,59.88023952,9,2,1,,,,,,,,4,13,,,,,,,,,,,3,1.794,0,,,,,,0.136111153,-0.260185171,1,0,0,1.7944,Diorite_rect,0,0,0,0,1,
65cbb3a92efd76eb9e9205d6,TCR,2024-06-24_14h49.52.122,LearnStrategy,2023.2.3,Win32,59.88023952,9,2,2,,,,,,,,1,04,,,,,,,,,,,1,4.514,1,,,,,,-0.290740755,-0.258333347,1,0,0,4.5139,Andesite_rect,1,0,1,0,1,
65cbb3a92efd76eb9e9205d6,TCR,2024-06-24_14h49.52.122,LearnStrategy,2023.2.3,Win32,59.88023952,9,2,3,,,,,,,,7,13,,,,,,,,,,,7,1.379,1,,,,,,0.198148162,-0.408333319,1,0,0,1.3787,Peridotite_rect,2,0,2,0,1,
65cbb3a92efd76eb9e9205d6,TCR,2024-06-24_14h49.52.122,LearnStrategy,2023.2.3,Win32,59.88023952,9,2,4,,,,,,,,1,14,,,,,,,,,,,6,2.611,0,,,,,,-0.135185171,-0.415740755,1,0,0,2.6115,Pegmatite_rect,3,0,3,0,1,
65cbb3a92efd76eb9e9205d6,TCR,2024-06-24_14h49.52.122,LearnStrategy,2023.2.3,Win32,59.88023952,9,2,5,,,,,,,,6,03,,,,,,,,,,,6,1.094,1,,,,,,-0.103703675,-0.395370413,1,0,0,1.0941,Pegmatite_rect,4,0,4,0,1,
65cbb3a92efd76eb9e9205d6,TCR,2024-06-24_14h49.52.122,LearnStrategy,2023.2.3,Win32,59.88023952,9,2,6,,,,,,,,6,13,,,,,,,,,,,6,0.811,1,,,,,,-0.103703675,-0.395370413,1,0,0,0.8114,Pegmatite_rect,5,0,5,0,1,
65cbb3a92efd76eb9e9205d6,TCR,2024-06-24_14h49.52.122,LearnStrategy,2023.2.3,Win32,59.88023952,9,2,7,,,,,,,,4,09,,,,,,,,,,,4,1.811,1,,,,,,0.473148205,-0.25,1,0,0,1.8114,Gabbro_rect,6,0,6,0,1,
65cbb3a92efd76eb9e9205d6,TCR,2024-06-24_14h49.52.122,LearnStrategy,2023.2.3,Win32,59.88023952,9,2,8,,,,,,,,2,05,,,,,,,,,,,2,1.294,1,,,,,,-0.099074046,-0.268518519,1,0,0,1.2942,Basalt_rect,7,0,7,0,1,
65cbb3a92efd76eb9e9205d6,TCR,2024-06-24_14h49.52.122,LearnStrategy,2023.2.3,Win32,59.88023952,9,2,9,,,,,,,,3,16,,,,,,,,,,,3,1.311,1,,,,,,0.143518519,-0.256481524,1,0,0,1.3106,Diorite_rect,8,0,8,0,1,
65cbb3a92efd76eb9e9205d6,TCR,2024-06-24_14h49.52.122,LearnStrategy,2023.2.3,Win32,59.88023952,9,2,10,,,,,,,,3,09,,,,,,,,,,,3,0.778,1,,,,,,0.143518519,-0.256481524,1,0,0,0.7782,Diorite_rect,9,0,9,0,1,
65cbb3a92efd76eb9e9205d6,TCR,2024-06-24_14h49.52.122,LearnStrategy,2023.2.3,Win32,59.88023952,9,2,11,,,,,,,,5,09,,,,,,,,,,,5,1.228,1,,,,,,-0.351851852,-0.400000042,1,0,0,1.228,Obsidian_rect,10,0,10,0,1,
65cbb3a92efd76eb9e9205d6,TCR,2024-06-24_14h49.52.122,LearnStrategy,2023.2.3,Win32,59.88023952,9,2,12,,,,,,,,5,05,,,,,,,,,,,5,1.945,1,,,,,,-0.414814808,-0.382407436,1,0,0,1.945,Obsidian_rect,11,0,11,0,1,
65cbb3a92efd76eb9e9205d6,TCR,2024-06-24_14h49.52.122,LearnStrategy,2023.2.3,Win32,59.88023952,9,2,13,,,,,,,,8,08,,,,,,,,,,,8,2.76,1,,,,,,0.419444473,-0.413888931,1,0,0,2.7599,Pumice_rect,12,0,12,0,1,
65cbb3a92efd76eb9e9205d6,TCR,2024-06-24_14h49.52.122,LearnStrategy,2023.2.3,Win32,59.88023952,9,2,14,,,,,,,,8,10,,,,,,,,,,,8,0.878,1,,,,,,0.419444473,-0.413888931,1,0,0,0.8781,Pumice_rect,13,0,13,0,1,
65cbb3a92efd76eb9e9205d6,TCR,2024-06-24_14h49.52.122,LearnStrategy,2023.2.3,Win32,59.88023952,9,2,15,,,,,,,,2,02,,,,,,,,,,,1,2.045,0,,,,,,-0.482407393,-0.268518519,1,0,0,2.0447,Andesite_rect,14,0,14,0,1,
65cbb3a92efd76eb9e9205d6,TCR,2024-06-24_14h49.52.122,LearnStrategy,2023.2.3,Win32,59.88023952,9,2,16,,,,,,,,7,02,,,,,,,,,,,7,1.394,1,,,,,,0.062037079,-0.415740755,1,0,0,1.3942,Peridotite_rect,15,0,15,0,1,
65cbb3a92efd76eb9e9205d6,TCR,2024-06-24_14h49.52.122,LearnStrategy,2023.2.3,Win32,59.88023952,,,,,,,,,,,,,,,,,,,,,,,,,,,,,,,,,,,,,,,,,,,1
65cbb3a92efd76eb9e9205d6,TCR,2024-06-24_14h49.52.122,LearnStrategy,2023.2.3,Win32,59.88023952,,,,,,,,,,,,,,,,,,,,,,,,,,,,,,,,,,,,,,,,,,,
65cbb3a92efd76eb9e9205d6,TCR,2024-06-24_14h49.52.122,LearnStrategy,2023.2.3,Win32,59.88023952,,,,,,,,,,,6,09,1,1,,,,,,,,,,,,,,,,,,,,,,,,,,,,,
65cbb3a92efd76eb9e9205d6,TCR,2024-06-24_14h49.52.122,LearnStrategy,2023.2.3,Win32,59.88023952,,,,,,,,,,,4,05,1,2,,,,,,,,,,,,,,,,,,,,,,,,,,,,,
65cbb3a92efd76eb9e9205d6,TCR,2024-06-24_14h49.52.122,LearnStrategy,2023.2.3,Win32,59.88023952,,,,,,,,,,,1,03,1,3,,,,,,,,,,,,,,,,,,,,,,,,,,,,,
65cbb3a92efd76eb9e9205d6,TCR,2024-06-24_14h49.52.122,LearnStrategy,2023.2.3,Win32,59.88023952,,,,,,,,,,,3,11,1,4,,,,,,,,,,,,,,,,,,,,,,,,,,,,,
65cbb3a92efd76eb9e9205d6,TCR,2024-06-24_14h49.52.122,LearnStrategy,2023.2.3,Win32,59.88023952,,,,,,,,,,,7,04,1,5,,,,,,,,,,,,,,,,,,,,,,,,,,,,,
65cbb3a92efd76eb9e9205d6,TCR,2024-06-24_14h49.52.122,LearnStrategy,2023.2.3,Win32,59.88023952,,,,,,,,,,,2,12,1,6,,,,,,,,,,,,,,,,,,,,,,,,,,,,,
65cbb3a92efd76eb9e9205d6,TCR,2024-06-24_14h49.52.122,LearnStrategy,2023.2.3,Win32,59.88023952,,,,,,,,,,,1,06,1,7,,,,,,,,,,,,,,,,,,,,,,,,,,,,,
65cbb3a92efd76eb9e9205d6,TCR,2024-06-24_14h49.52.122,LearnStrategy,2023.2.3,Win32,59.88023952,,,,,,,,,,,4,11,1,8,,,,,,,,,,,,,,,,,,,,,,,,,,,,,
65cbb3a92efd76eb9e9205d6,TCR,2024-06-24_14h49.52.122,LearnStrategy,2023.2.3,Win32,59.88023952,,,,,,,,,,,5,14,2,1,,,,,,,,,,,,,,,,,,,,,,,,,,,,,
65cbb3a92efd76eb9e9205d6,TCR,2024-06-24_14h49.52.122,LearnStrategy,2023.2.3,Win32,59.88023952,,,,,,,,,,,3,10,2,2,,,,,,,,,,,,,,,,,,,,,,,,,,,,,
65cbb3a92efd76eb9e9205d6,TCR,2024-06-24_14h49.52.122,LearnStrategy,2023.2.3,Win32,59.88023952,,,,,,,,,,,6,15,2,3,,,,,,,,,,,,,,,,,,,,,,,,,,,,,
65cbb3a92efd76eb9e9205d6,TCR,2024-06-24_14h49.52.122,LearnStrategy,2023.2.3,Win32,59.88023952,,,,,,,,,,,5,02,2,4,,,,,,,,,,,,,,,,,,,,,,,,,,,,,
65cbb3a92efd76eb9e9205d6,TCR,2024-06-24_14h49.52.122,LearnStrategy,2023.2.3,Win32,59.88023952,,,,,,,,,,,6,11,2,5,,,,,,,,,,,,,,,,,,,,,,,,,,,,,
65cbb3a92efd76eb9e9205d6,TCR,2024-06-24_14h49.52.122,LearnStrategy,2023.2.3,Win32,59.88023952,,,,,,,,,,,3,06,2,6,,,,,,,,,,,,,,,,,,,,,,,,,,,,,
65cbb3a92efd76eb9e9205d6,TCR,2024-06-24_14h49.52.122,LearnStrategy,2023.2.3,Win32,59.88023952,,,,,,,,,,,5,11,2,7,,,,,,,,,,,,,,,,,,,,,,,,,,,,,
65cbb3a92efd76eb9e9205d6,TCR,2024-06-24_14h49.52.122,LearnStrategy,2023.2.3,Win32,59.88023952,,,,,,,,,,,8,06,2,8,,,,,,,,,,,,,,,,,,,,,,,,,,,,,
65cbb3a92efd76eb9e9205d6,TCR,2024-06-24_14h49.52.122,LearnStrategy,2023.2.3,Win32,59.88023952,,,,,,,,,,,4,10,3,1,,,,,,,,,,,,,,,,,,,,,,,,,,,,,
65cbb3a92efd76eb9e9205d6,TCR,2024-06-24_14h49.52.122,LearnStrategy,2023.2.3,Win32,59.88023952,,,,,,,,,,,5,08,3,2,,,,,,,,,,,,,,,,,,,,,,,,,,,,,
65cbb3a92efd76eb9e9205d6,TCR,2024-06-24_14h49.52.122,LearnStrategy,2023.2.3,Win32,59.88023952,,,,,,,,,,,8,05,3,3,,,,,,,,,,,,,,,,,,,,,,,,,,,,,
65cbb3a92efd76eb9e9205d6,TCR,2024-06-24_14h49.52.122,LearnStrategy,2023.2.3,Win32,59.88023952,,,,,,,,,,,1,16,3,4,,,,,,,,,,,,,,,,,,,,,,,,,,,,,
65cbb3a92efd76eb9e9205d6,TCR,2024-06-24_14h49.52.122,LearnStrategy,2023.2.3,Win32,59.88023952,,,,,,,,,,,1,10,3,5,,,,,,,,,,,,,,,,,,,,,,,,,,,,,
65cbb3a92efd76eb9e9205d6,TCR,2024-06-24_14h49.52.122,LearnStrategy,2023.2.3,Win32,59.88023952,,,,,,,,,,,4,15,3,6,,,,,,,,,,,,,,,,,,,,,,,,,,,,,
65cbb3a92efd76eb9e9205d6,TCR,2024-06-24_14h49.52.122,LearnStrategy,2023.2.3,Win32,59.88023952,,,,,,,,,,,5,07,3,7,,,,,,,,,,,,,,,,,,,,,,,,,,,,,
65cbb3a92efd76eb9e9205d6,TCR,2024-06-24_14h49.52.122,LearnStrategy,2023.2.3,Win32,59.88023952,,,,,,,,,,,2,14,3,8,,,,,,,,,,,,,,,,,,,,,,,,,,,,,
65cbb3a92efd76eb9e9205d6,TCR,2024-06-24_14h49.52.122,LearnStrategy,2023.2.3,Win32,59.88023952,,,,,,,,,,,7,06,4,1,,,,,,,,,,,,,,,,,,,,,,,,,,,,,
65cbb3a92efd76eb9e9205d6,TCR,2024-06-24_14h49.52.122,LearnStrategy,2023.2.3,Win32,59.88023952,,,,,,,,,,,6,05,4,2,,,,,,,,,,,,,,,,,,,,,,,,,,,,,
65cbb3a92efd76eb9e9205d6,TCR,2024-06-24_14h49.52.122,LearnStrategy,2023.2.3,Win32,59.88023952,,,,,,,,,,,2,04,4,3,,,,,,,,,,,,,,,,,,,,,,,,,,,,,
65cbb3a92efd76eb9e9205d6,TCR,2024-06-24_14h49.52.122,LearnStrategy,2023.2.3,Win32,59.88023952,,,,,,,,,,,2,01,4,4,,,,,,,,,,,,,,,,,,,,,,,,,,,,,
65cbb3a92efd76eb9e9205d6,TCR,2024-06-24_14h49.52.122,LearnStrategy,2023.2.3,Win32,59.88023952,,,,,,,,,,,8,09,4,5,,,,,,,,,,,,,,,,,,,,,,,,,,,,,
65cbb3a92efd76eb9e9205d6,TCR,2024-06-24_14h49.52.122,LearnStrategy,2023.2.3,Win32,59.88023952,,,,,,,,,,,5,04,4,6,,,,,,,,,,,,,,,,,,,,,,,,,,,,,
65cbb3a92efd76eb9e9205d6,TCR,2024-06-24_14h49.52.122,LearnStrategy,2023.2.3,Win32,59.88023952,,,,,,,,,,,2,08,4,7,,,,,,,,,,,,,,,,,,,,,,,,,,,,,
65cbb3a92efd76eb9e9205d6,TCR,2024-06-24_14h49.52.122,LearnStrategy,2023.2.3,Win32,59.88023952,,,,,,,,,,,6,06,4,8,,,,,,,,,,,,,,,,,,,,,,,,,,,,,
65cbb3a92efd76eb9e9205d6,TCR,2024-06-24_14h49.52.122,LearnStrategy,2023.2.3,Win32,59.88023952,,,,,,,,,,,3,07,5,1,,,,,,,,,,,,,,,,,,,,,,,,,,,,,
65cbb3a92efd76eb9e9205d6,TCR,2024-06-24_14h49.52.122,LearnStrategy,2023.2.3,Win32,59.88023952,,,,,,,,,,,4,12,5,2,,,,,,,,,,,,,,,,,,,,,,,,,,,,,
65cbb3a92efd76eb9e9205d6,TCR,2024-06-24_14h49.52.122,LearnStrategy,2023.2.3,Win32,59.88023952,,,,,,,,,,,1,09,5,3,,,,,,,,,,,,,,,,,,,,,,,,,,,,,
65cbb3a92efd76eb9e9205d6,TCR,2024-06-24_14h49.52.122,LearnStrategy,2023.2.3,Win32,59.88023952,,,,,,,,,,,8,14,5,4,,,,,,,,,,,,,,,,,,,,,,,,,,,,,
65cbb3a92efd76eb9e9205d6,TCR,2024-06-24_14h49.52.122,LearnStrategy,2023.2.3,Win32,59.88023952,,,,,,,,,,,7,16,5,5,,,,,,,,,,,,,,,,,,,,,,,,,,,,,
65cbb3a92efd76eb9e9205d6,TCR,2024-06-24_14h49.52.122,LearnStrategy,2023.2.3,Win32,59.88023952,,,,,,,,,,,1,01,5,6,,,,,,,,,,,,,,,,,,,,,,,,,,,,,
65cbb3a92efd76eb9e9205d6,TCR,2024-06-24_14h49.52.122,LearnStrategy,2023.2.3,Win32,59.88023952,,,,,,,,,,,8,02,5,7,,,,,,,,,,,,,,,,,,,,,,,,,,,,,
65cbb3a92efd76eb9e9205d6,TCR,2024-06-24_14h49.52.122,LearnStrategy,2023.2.3,Win32,59.88023952,,,,,,,,,,,7,05,5,8,,,,,,,,,,,,,,,,,,,,,,,,,,,,,
65cbb3a92efd76eb9e9205d6,TCR,2024-06-24_14h49.52.122,LearnStrategy,2023.2.3,Win32,59.88023952,,,,,,,,,,,7,08,6,1,,,,,,,,,,,,,,,,,,,,,,,,,,,,,
65cbb3a92efd76eb9e9205d6,TCR,2024-06-24_14h49.52.122,LearnStrategy,2023.2.3,Win32,59.88023952,,,,,,,,,,,3,12,6,2,,,,,,,,,,,,,,,,,,,,,,,,,,,,,
65cbb3a92efd76eb9e9205d6,TCR,2024-06-24_14h49.52.122,LearnStrategy,2023.2.3,Win32,59.88023952,,,,,,,,,,,6,08,6,3,,,,,,,,,,,,,,,,,,,,,,,,,,,,,
65cbb3a92efd76eb9e9205d6,TCR,2024-06-24_14h49.52.122,LearnStrategy,2023.2.3,Win32,59.88023952,,,,,,,,,,,3,02,6,4,,,,,,,,,,,,,,,,,,,,,,,,,,,,,
65cbb3a92efd76eb9e9205d6,TCR,2024-06-24_14h49.52.122,LearnStrategy,2023.2.3,Win32,59.88023952,,,,,,,,,,,4,08,6,5,,,,,,,,,,,,,,,,,,,,,,,,,,,,,
65cbb3a92efd76eb9e9205d6,TCR,2024-06-24_14h49.52.122,LearnStrategy,2023.2.3,Win32,59.88023952,,,,,,,,,,,2,06,6,6,,,,,,,,,,,,,,,,,,,,,,,,,,,,,
65cbb3a92efd76eb9e9205d6,TCR,2024-06-24_14h49.52.122,LearnStrategy,2023.2.3,Win32,59.88023952,,,,,,,,,,,8,16,6,7,,,,,,,,,,,,,,,,,,,,,,,,,,,,,
65cbb3a92efd76eb9e9205d6,TCR,2024-06-24_14h49.52.122,LearnStrategy,2023.2.3,Win32,59.88023952,,,,,,,,,,,7,12,6,8,,,,,,,,,,,,,,,,,,,,,,,,,,,,,