participant,condition,date,expName,psychopyVersion,OS,frameRate,block,phase,trial,learn_mouse_2.x,learn_mouse_2.y,learn_mouse_2.leftButton,learn_mouse_2.midButton,learn_mouse_2.rightButton,learn_mouse_2.time,learn_mouse_2.clicked_name,cat,token,row,col,t_select,cat_mouse_l.x,cat_mouse_l.y,cat_mouse_l.leftButton,cat_mouse_l.midButton,cat_mouse_l.rightButton,cat_mouse_l.time,cat_mouse_l.clicked_name,resp,t_resp,corr,train_trials.thisRepN,train_trials.thisTrialN,train_trials.thisN,train_trials.thisIndex,train_trials.ran,cat_mouse_t.x,cat_mouse_t.y,cat_mouse_t.leftButton,cat_mouse_t.midButton,cat_mouse_t.rightButton,cat_mouse_t.time,cat_mouse_t.clicked_name,test_trials.thisRepN,test_trials.thisTrialN,test_trials.thisN,test_trials.thisIndex,test_trials.ran,Bonus
65cd164122345f20629bede9,TCR,2024-06-24_16h34.15.245,LearnStrategy,2023.2.3,MacIntel,59.88023952,,,,,,,,,,,,,,,,,,,,,,,,,,,,,,,,,,,,,,,,,,,
65cd164122345f20629bede9,TCR,2024-06-24_16h34.15.245,LearnStrategy,2023.2.3,MacIntel,59.88023952,1,1,1,0.107171365,-0.007447351,1,0,0,3.9019,rock_grid_rect_2,6,15,-1,-1,3.902,-0.15489555,-0.242497452,1,0,0,17.8491,Basalt_rect,2,17.849,0,0,0,0,0,1,,,,,,,,,,,,,
65cd164122345f20629bede9,TCR,2024-06-24_16h34.15.245,LearnStrategy,2023.2.3,MacIntel,59.88023952,1,1,2,0.031933594,-0.004521909,1,0,0,1.7043,rock_grid_rect_2,5,12,-1,-1,1.704,0.418911345,-0.244166101,1,0,0,5.225,Gabbro_rect,4,5.225,0,1,0,1,0,1,,,,,,,,,,,,,
65cd164122345f20629bede9,TCR,2024-06-24_16h34.15.245,LearnStrategy,2023.2.3,MacIntel,59.88023952,1,1,3,0.050972317,0.003838315,1,0,0,1.8778,rock_grid_rect_2,4,15,-1,-1,1.878,0.139788553,-0.400072181,1,0,0,4.2753,Peridotite_rect,7,4.275,0,2,0,2,0,1,,,,,,,,,,,,,
65cd164122345f20629bede9,TCR,2024-06-24_16h34.15.245,LearnStrategy,2023.2.3,MacIntel,59.88023952,1,1,4,0.060470448,0.002742867,1,0,0,1.8882,rock_grid_rect_2,2,01,-1,-1,1.888,0.391469939,-0.394764776,1,0,0,5.3916,Pumice_rect,8,5.392,0,3,0,3,0,1,,,,,,,,,,,,,
65cd164122345f20629bede9,TCR,2024-06-24_16h34.15.245,LearnStrategy,2023.2.3,MacIntel,59.88023952,1,1,5,0.01872877,-0.008547045,1,0,0,1.5708,rock_grid_rect_2,1,04,-1,-1,1.571,-0.441533628,-0.259515115,1,0,0,5.6921,Andesite_rect,1,5.692,1,4,0,4,0,1,,,,,,,,,,,,,
65cd164122345f20629bede9,TCR,2024-06-24_16h34.15.245,LearnStrategy,2023.2.3,MacIntel,59.88023952,1,1,6,-0.031424083,-0.006534477,1,0,0,3.1542,rock_grid_rect_2,5,04,-1,-1,3.154,-0.417132303,-0.400900136,1,0,0,10.2076,Obsidian_rect,5,10.208,1,5,0,5,0,1,,,,,,,,,,,,,
65cd164122345f20629bede9,TCR,2024-06-24_16h34.15.245,LearnStrategy,2023.2.3,MacIntel,59.88023952,1,1,7,0.014648438,-0.000403363,1,0,0,1.6376,rock_grid_rect_2,3,06,-1,-1,1.638,0.346671196,-0.262835428,1,0,0,14.8418,Gabbro_rect,4,14.842,0,6,0,6,0,1,,,,,,,,,,,,,
65cd164122345f20629bede9,TCR,2024-06-24_16h34.15.245,LearnStrategy,2023.2.3,MacIntel,59.88023952,1,1,8,0.023386549,-0.007663893,1,0,0,1.5383,rock_grid_rect_2,2,10,-1,-1,1.538,0.130727751,-0.418877378,1,0,0,14.9263,Peridotite_rect,7,14.926,0,7,0,7,0,1,,,,,,,,,,,,,
65cd164122345f20629bede9,TCR,2024-06-24_16h34.15.245,LearnStrategy,2023.2.3,MacIntel,59.88023952,1,1,9,0.015922215,-0.000182575,1,0,0,1.6033,rock_grid_rect_2,8,05,-1,-1,1.603,-0.13915591,-0.416461447,1,0,0,38.9247,Pegmatite_rect,6,38.925,0,8,0,8,0,1,,,,,,,,,,,,,
65cd164122345f20629bede9,TCR,2024-06-24_16h34.15.245,LearnStrategy,2023.2.3,MacIntel,59.88023952,1,1,10,-0.002993376,-0.002679178,1,0,0,1.4225,rock_grid_rect_2,4,05,-1,-1,1.423,-0.423840863,-0.241304348,1,0,0,40.5574,Andesite_rect,1,40.557,0,9,0,9,0,1,,,,,,,,,,,,,
65cd164122345f20629bede9,TCR,2024-06-24_16h34.15.245,LearnStrategy,2023.2.3,MacIntel,59.88023952,1,1,11,-0.04048913,-0.006466542,1,0,0,1.4707,rock_grid_rect_2,3,16,-1,-1,1.471,0.14009426,-0.257184103,1,0,0,33.175,Diorite_rect,3,33.175,1,10,0,10,0,1,,,,,,,,,,,,,
65cd164122345f20629bede9,TCR,2024-06-24_16h34.15.245,LearnStrategy,2023.2.3,MacIntel,59.88023952,1,1,12,-0.015391474,-0.012020211,1,0,0,1.3218,rock_grid_rect_2,8,14,-1,-1,1.322,0.38283373,-0.420053499,1,0,0,6.3587,Pumice_rect,8,6.359,1,11,0,11,0,1,,,,,,,,,,,,,
65cd164122345f20629bede9,TCR,2024-06-24_16h34.15.245,LearnStrategy,2023.2.3,MacIntel,59.88023952,1,1,13,0.055400815,0.00402089,1,0,0,1.4708,rock_grid_rect_2,1,09,-1,-1,1.471,0.140340523,-0.248055367,1,0,0,70.3737,Diorite_rect,3,70.374,0,12,0,12,0,1,,,,,,,,,,,,,
65cd164122345f20629bede9,TCR,2024-06-24_16h34.15.245,LearnStrategy,2023.2.3,MacIntel,59.88023952,1,1,14,0.008619226,-0.01158288,1,0,0,1.4225,rock_grid_rect_2,7,16,-1,-1,1.423,-0.10868716,-0.411918308,1,0,0,18.9541,Pegmatite_rect,6,18.954,0,13,0,13,0,1,,,,,,,,,,,,,
65cd164122345f20629bede9,TCR,2024-06-24_16h34.15.245,LearnStrategy,2023.2.3,MacIntel,59.88023952,1,1,15,-0.013251529,0.001757813,1,0,0,1.589,rock_grid_rect_2,6,09,-1,-1,1.589,-0.13435377,-0.416699219,1,0,0,16.7928,Pegmatite_rect,6,16.793,1,14,0,14,0,1,,,,,,,,,,,,,
65cd164122345f20629bede9,TCR,2024-06-24_16h34.15.245,LearnStrategy,2023.2.3,MacIntel,59.88023952,1,1,16,-0.018333899,0.001859715,1,0,0,1.5701,rock_grid_rect_2,7,13,-1,-1,1.57,0.437109375,-0.246832541,1,0,0,63.8095,Gabbro_rect,4,63.809,0,15,0,15,0,1,,,,,,,,,,,,,
65cd164122345f20629bede9,TCR,2024-06-24_16h34.15.245,LearnStrategy,2023.2.3,MacIntel,59.88023952,1,2,1,,,,,,,,4,12,,,,,,,,,,,1,99.906,0,,,,,,-0.406296705,-0.253995414,1,0,0,99.9062,Andesite_rect,0,0,0,0,1,
65cd164122345f20629bede9,TCR,2024-06-24_16h34.15.245,LearnStrategy,2023.2.3,MacIntel,59.88023952,1,2,2,,,,,,,,3,07,,,,,,,,,,,3,14.899,1,,,,,,0.163298234,-0.255782948,1,0,0,14.8988,Diorite_rect,1,0,1,0,1,
65cd164122345f20629bede9,TCR,2024-06-24_16h34.15.245,LearnStrategy,2023.2.3,MacIntel,59.88023952,1,2,3,,,,,,,,7,15,,,,,,,,,,,4,80.257,0,,,,,,0.383046026,-0.233873981,1,0,0,80.257,Gabbro_rect,2,0,2,0,1,
65cd164122345f20629bede9,TCR,2024-06-24_16h34.15.245,LearnStrategy,2023.2.3,MacIntel,59.88023952,1,2,4,,,,,,,,1,03,,,,,,,,,,,2,43.931,0,,,,,,-0.107158628,-0.24453125,1,0,0,43.9309,Basalt_rect,3,0,3,0,1,
65cd164122345f20629bede9,TCR,2024-06-24_16h34.15.245,LearnStrategy,2023.2.3,MacIntel,59.88023952,1,2,5,,,,,,,,8,13,,,,,,,,,,,8,2.408,1,,,,,,0.414181386,-0.398127548,1,0,0,2.4076,Pumice_rect,4,0,4,0,1,
65cd164122345f20629bede9,TCR,2024-06-24_16h34.15.245,LearnStrategy,2023.2.3,MacIntel,59.88023952,1,2,6,,,,,,,,1,05,,,,,,,,,,,3,133.339,0,,,,,,0.164898947,-0.242837126,1,0,0,133.3389,Diorite_rect,5,0,5,0,1,
65cd164122345f20629bede9,TCR,2024-06-24_16h34.15.245,LearnStrategy,2023.2.3,MacIntel,59.88023952,1,2,7,,,,,,,,4,14,,,,,,,,,,,4,52.174,1,,,,,,0.40548998,-0.258704144,1,0,0,52.1741,Gabbro_rect,6,0,6,0,1,
65cd164122345f20629bede9,TCR,2024-06-24_16h34.15.245,LearnStrategy,2023.2.3,MacIntel,59.88023952,1,2,8,,,,,,,,8,02,,,,,,,,,,,3,21.724,0,,,,,,0.160636039,-0.238226053,1,0,0,21.7243,Diorite_rect,7,0,7,0,1,
65cd164122345f20629bede9,TCR,2024-06-24_16h34.15.245,LearnStrategy,2023.2.3,MacIntel,59.88023952,1,2,9,,,,,,,,2,12,,,,,,,,,,,1,90.825,0,,,,,,-0.371556556,-0.257349694,1,0,0,90.8253,Andesite_rect,8,0,8,0,1,
65cd164122345f20629bede9,TCR,2024-06-24_16h34.15.245,LearnStrategy,2023.2.3,MacIntel,59.88023952,1,2,10,,,,,,,,5,09,,,,,,,,,,,5,8.624,1,,,,,,-0.398658288,-0.403235394,1,0,0,8.6244,Obsidian_rect,9,0,9,0,1,
65cd164122345f20629bede9,TCR,2024-06-24_16h34.15.245,LearnStrategy,2023.2.3,MacIntel,59.88023952,1,2,11,,,,,,,,7,06,,,,,,,,,,,4,43.657,0,,,,,,0.325777004,-0.257485564,1,0,0,43.6565,Gabbro_rect,10,0,10,0,1,
65cd164122345f20629bede9,TCR,2024-06-24_16h34.15.245,LearnStrategy,2023.2.3,MacIntel,59.88023952,1,2,12,,,,,,,,6,03,,,,,,,,,,,6,13.14,1,,,,,,-0.127980639,-0.403498641,1,0,0,13.1403,Pegmatite_rect,11,0,11,0,1,
65cd164122345f20629bede9,TCR,2024-06-24_16h34.15.245,LearnStrategy,2023.2.3,MacIntel,59.88023952,1,2,13,,,,,,,,2,05,,,,,,,,,,,2,7.759,1,,,,,,-0.114372452,-0.252454144,1,0,0,7.7593,Basalt_rect,12,0,12,0,1,
65cd164122345f20629bede9,TCR,2024-06-24_16h34.15.245,LearnStrategy,2023.2.3,MacIntel,59.88023952,1,2,14,,,,,,,,3,09,,,,,,,,,,,3,9.341,1,,,,,,0.115773607,-0.254619565,1,0,0,9.3408,Diorite_rect,13,0,13,0,1,
65cd164122345f20629bede9,TCR,2024-06-24_16h34.15.245,LearnStrategy,2023.2.3,MacIntel,59.88023952,1,2,15,,,,,,,,5,05,,,,,,,,,,,5,35.859,1,,,,,,-0.391580333,-0.408381454,1,0,0,35.8587,Obsidian_rect,14,0,14,0,1,
65cd164122345f20629bede9,TCR,2024-06-24_16h34.15.245,LearnStrategy,2023.2.3,MacIntel,59.88023952,1,2,16,,,,,,,,6,10,,,,,,,,,,,6,7.942,1,,,,,,-0.160377038,-0.410742188,1,0,0,7.9416,Pegmatite_rect,15,0,15,0,1,
65cd164122345f20629bede9,TCR,2024-06-24_16h34.15.245,LearnStrategy,2023.2.3,MacIntel,59.88023952,2,1,1,-0.04037449,0.000696332,1,0,0,1.9974,rock_grid_rect_2,7,08,-1,-1,1.997,0.42646909,-0.245418648,1,0,0,35.908,Gabbro_rect,4,35.908,0,0,0,0,0,1,,,,,,,,,,,,,
65cd164122345f20629bede9,TCR,2024-06-24_16h34.15.245,LearnStrategy,2023.2.3,MacIntel,59.88023952,2,1,2,0.00501019,-0.015514606,1,0,0,1.4881,rock_grid_rect_2,2,10,-1,-1,1.488,-0.177110224,-0.261646569,1,0,0,16.5415,Basalt_rect,2,16.542,1,1,0,1,0,1,,,,,,,,,,,,,
65cd164122345f20629bede9,TCR,2024-06-24_16h34.15.245,LearnStrategy,2023.2.3,MacIntel,59.88023952,2,1,3,0.046480129,-0.002844769,1,0,0,1.6709,rock_grid_rect_2,7,13,-1,-1,1.671,0.126061481,-0.405197011,1,0,0,7.3744,Peridotite_rect,7,7.374,1,2,0,2,0,1,,,,,,,,,,,,,
65cd164122345f20629bede9,TCR,2024-06-24_16h34.15.245,LearnStrategy,2023.2.3,MacIntel,59.88023952,2,1,4,-0.007918648,-0.003596298,1,0,0,1.8889,rock_grid_rect_2,8,14,-1,-1,1.889,0.411769701,-0.410767663,1,0,0,22.7757,Pumice_rect,8,22.776,1,3,0,3,0,1,,,,,,,,,,,,,
65cd164122345f20629bede9,TCR,2024-06-24_16h34.15.245,LearnStrategy,2023.2.3,MacIntel,59.88023952,2,1,5,0.028222656,-0.007621433,1,0,0,1.1634,rock_grid_rect_2,2,01,-1,-1,1.163,-0.113888417,-0.253413723,1,0,0,22.692,Basalt_rect,2,22.692,1,4,0,4,0,1,,,,,,,,,,,,,
65cd164122345f20629bede9,TCR,2024-06-24_16h34.15.245,LearnStrategy,2023.2.3,MacIntel,59.88023952,2,1,6,0.071178668,-0.011056386,1,0,0,1.3136,rock_grid_rect_2,4,15,-1,-1,1.314,0.38972911,-0.244335937,1,0,0,5.7246,Gabbro_rect,4,5.725,1,5,0,5,0,1,,,,,,,,,,,,,
65cd164122345f20629bede9,TCR,2024-06-24_16h34.15.245,LearnStrategy,2023.2.3,MacIntel,59.88023952,2,1,7,-0.033368716,-0.01953125,1,0,0,1.3459,rock_grid_rect_2,4,03,-1,-1,1.346,0.125360904,-0.249915082,1,0,0,16.1753,Diorite_rect,3,16.175,0,6,0,6,0,1,,,,,,,,,,,,,
65cd164122345f20629bede9,TCR,2024-06-24_16h34.15.245,LearnStrategy,2023.2.3,MacIntel,59.88023952,2,1,8,0.008453635,-0.007850713,1,0,0,1.4379,rock_grid_rect_2,7,04,-1,-1,1.438,-0.397350543,-0.241987942,1,0,0,32.3751,Andesite_rect,1,32.375,0,7,0,7,0,1,,,,,,,,,,,,,
65cd164122345f20629bede9,TCR,2024-06-24_16h34.15.245,LearnStrategy,2023.2.3,MacIntel,59.88023952,2,1,9,0.040293818,-0.008016304,1,0,0,1.4536,rock_grid_rect_2,1,04,-1,-1,1.454,-0.393834918,-0.242658798,1,0,0,21.6418,Andesite_rect,1,21.642,1,8,0,8,0,1,,,,,,,,,,,,,
65cd164122345f20629bede9,TCR,2024-06-24_16h34.15.245,LearnStrategy,2023.2.3,MacIntel,59.88023952,2,1,10,-0.014300272,-0.012512738,1,0,0,1.4627,rock_grid_rect_2,1,10,-1,-1,1.463,0.396267833,-0.233143682,1,0,0,21.9271,Gabbro_rect,4,21.927,0,9,0,9,0,1,,,,,,,,,,,,,
65cd164122345f20629bede9,TCR,2024-06-24_16h34.15.245,LearnStrategy,2023.2.3,MacIntel,59.88023952,2,1,11,-0.011192255,-0.006581182,1,0,0,1.3703,rock_grid_rect_2,4,05,-1,-1,1.37,0.404904042,-0.252713145,1,0,0,21.1591,Gabbro_rect,4,21.159,1,10,0,10,0,1,,,,,,,,,,,,,
65cd164122345f20629bede9,TCR,2024-06-24_16h34.15.245,LearnStrategy,2023.2.3,MacIntel,59.88023952,2,1,12,0.032222317,-0.002645211,1,0,0,1.2129,rock_grid_rect_2,7,04,-1,-1,1.213,0.123327106,-0.413964844,1,0,0,8.5754,Peridotite_rect,7,8.575,1,11,0,11,0,1,,,,,,,,,,,,,
65cd164122345f20629bede9,TCR,2024-06-24_16h34.15.245,LearnStrategy,2023.2.3,MacIntel,59.88023952,2,1,13,0.014559273,-0.007528023,1,0,0,1.5802,rock_grid_rect_2,8,09,-1,-1,1.58,0.15579144,-0.24175017,1,0,0,30.8084,Diorite_rect,3,30.808,0,12,0,12,0,1,,,,,,,,,,,,,
65cd164122345f20629bede9,TCR,2024-06-24_16h34.15.245,LearnStrategy,2023.2.3,MacIntel,59.88023952,2,1,14,0.044391135,-0.013820482,1,0,0,1.3213,rock_grid_rect_2,3,11,-1,-1,1.321,0.103685462,-0.251732337,1,0,0,21.1908,Diorite_rect,3,21.191,1,13,0,13,0,1,,,,,,,,,,,,,
65cd164122345f20629bede9,TCR,2024-06-24_16h34.15.245,LearnStrategy,2023.2.3,MacIntel,59.88023952,2,1,15,-0.025743037,-0.005804178,1,0,0,6.1216,rock_grid_rect_2,1,11,-1,-1,6.122,-0.343202276,-0.24496858,1,0,0,32.9908,Andesite_rect,1,32.991,1,14,0,14,0,1,,,,,,,,,,,,,
65cd164122345f20629bede9,TCR,2024-06-24_16h34.15.245,LearnStrategy,2023.2.3,MacIntel,59.88023952,2,1,16,-0.060224185,-0.000870414,1,0,0,1.221,rock_grid_rect_2,1,16,-1,-1,1.221,0.45482337,-0.245473845,1,0,0,57.3917,Gabbro_rect,4,57.392,0,15,0,15,0,1,,,,,,,,,,,,,
65cd164122345f20629bede9,TCR,2024-06-24_16h34.15.245,LearnStrategy,2023.2.3,MacIntel,59.88023952,2,2,1,,,,,,,,8,15,,,,,,,,,,,8,4.741,1,,,,,,0.442909307,-0.407918648,1,0,0,4.7406,Pumice_rect,0,0,0,0,1,
65cd164122345f20629bede9,TCR,2024-06-24_16h34.15.245,LearnStrategy,2023.2.3,MacIntel,59.88023952,2,2,2,,,,,,,,5,11,,,,,,,,,,,5,15.476,1,,,,,,-0.337691067,-0.406317935,1,0,0,15.4759,Obsidian_rect,1,0,1,0,1,
65cd164122345f20629bede9,TCR,2024-06-24_16h34.15.245,LearnStrategy,2023.2.3,MacIntel,59.88023952,2,2,3,,,,,,,,1,07,,,,,,,,,,,1,77.157,1,,,,,,-0.379424253,-0.248564878,1,0,0,77.1568,Andesite_rect,2,0,2,0,1,
65cd164122345f20629bede9,TCR,2024-06-24_16h34.15.245,LearnStrategy,2023.2.3,MacIntel,59.88023952,2,2,4,,,,,,,,3,13,,,,,,,,,,,4,50.94,0,,,,,,0.358322011,-0.243087636,1,0,0,50.9405,Gabbro_rect,3,0,3,0,1,
65cd164122345f20629bede9,TCR,2024-06-24_16h34.15.245,LearnStrategy,2023.2.3,MacIntel,59.88023952,2,2,5,,,,,,,,7,02,,,,,,,,,,,7,44.891,1,,,,,,0.107205333,-0.384786855,1,0,0,44.8907,Peridotite_rect,4,0,4,0,1,
65cd164122345f20629bede9,TCR,2024-06-24_16h34.15.245,LearnStrategy,2023.2.3,MacIntel,59.88023952,2,2,6,,,,,,,,3,08,,,,,,,,,,,3,12.724,1,,,,,,0.132668139,-0.262117867,1,0,0,12.7239,Diorite_rect,5,0,5,0,1,
65cd164122345f20629bede9,TCR,2024-06-24_16h34.15.245,LearnStrategy,2023.2.3,MacIntel,59.88023952,2,2,7,,,,,,,,8,08,,,,,,,,,,,8,2.424,1,,,,,,0.382591712,-0.416733186,1,0,0,2.4242,Pumice_rect,6,0,6,0,1,
65cd164122345f20629bede9,TCR,2024-06-24_16h34.15.245,LearnStrategy,2023.2.3,MacIntel,59.88023952,2,2,8,,,,,,,,5,14,,,,,,,,,,,2,21.475,0,,,,,,-0.124881114,-0.254003906,1,0,0,21.4749,Basalt_rect,7,0,7,0,1,
65cd164122345f20629bede9,TCR,2024-06-24_16h34.15.245,LearnStrategy,2023.2.3,MacIntel,59.88023952,2,2,9,,,,,,,,6,06,,,,,,,,,,,3,44.46,0,,,,,,0.097201936,-0.254882813,1,0,0,44.4601,Diorite_rect,8,0,8,0,1,
65cd164122345f20629bede9,TCR,2024-06-24_16h34.15.245,LearnStrategy,2023.2.3,MacIntel,59.88023952,2,2,10,,,,,,,,4,16,,,,,,,,,,,2,44.424,0,,,,,,-0.148220958,-0.260848336,1,0,0,44.4241,Basalt_rect,9,0,9,0,1,
65cd164122345f20629bede9,TCR,2024-06-24_16h34.15.245,LearnStrategy,2023.2.3,MacIntel,59.88023952,2,2,11,,,,,,,,4,10,,,,,,,,,,,1,58.408,0,,,,,,-0.411421535,-0.233453635,1,0,0,58.4077,Andesite_rect,10,0,10,0,1,
65cd164122345f20629bede9,TCR,2024-06-24_16h34.15.245,LearnStrategy,2023.2.3,MacIntel,59.88023952,2,2,12,,,,,,,,7,10,,,,,,,,,,,7,27.625,1,,,,,,0.139784307,-0.409757133,1,0,0,27.625,Peridotite_rect,11,0,11,0,1,
65cd164122345f20629bede9,TCR,2024-06-24_16h34.15.245,LearnStrategy,2023.2.3,MacIntel,59.88023952,2,2,13,,,,,,,,2,11,,,,,,,,,,,1,12.658,0,,,,,,-0.436255944,-0.262202785,1,0,0,12.6579,Andesite_rect,12,0,12,0,1,
65cd164122345f20629bede9,TCR,2024-06-24_16h34.15.245,LearnStrategy,2023.2.3,MacIntel,59.88023952,2,2,14,,,,,,,,2,04,,,,,,,,,,,2,8.825,1,,,,,,-0.187788723,-0.245906929,1,0,0,8.825,Basalt_rect,13,0,13,0,1,
65cd164122345f20629bede9,TCR,2024-06-24_16h34.15.245,LearnStrategy,2023.2.3,MacIntel,59.88023952,2,2,15,,,,,,,,6,12,,,,,,,,,,,3,15.958,0,,,,,,0.129122792,-0.265391474,1,0,0,15.958,Diorite_rect,14,0,14,0,1,
65cd164122345f20629bede9,TCR,2024-06-24_16h34.15.245,LearnStrategy,2023.2.3,MacIntel,59.88023952,2,2,16,,,,,,,,1,02,,,,,,,,,,,3,9.591,0,,,,,,0.120367697,-0.26877123,1,0,0,9.591,Diorite_rect,15,0,15,0,1,
65cd164122345f20629bede9,TCR,2024-06-24_16h34.15.245,LearnStrategy,2023.2.3,MacIntel,59.88023952,3,1,1,-0.109506624,0.001324728,1,0,0,1.4643,rock_grid_rect_2,6,11,-1,-1,1.464,0.130876359,-0.397032099,1,0,0,11.4739,Peridotite_rect,7,11.474,0,0,0,0,0,1,,,,,,,,,,,,,
65cd164122345f20629bede9,TCR,2024-06-24_16h34.15.245,LearnStrategy,2023.2.3,MacIntel,59.88023952,3,1,2,0.010771909,-0.005175781,1,0,0,1.2041,rock_grid_rect_2,7,16,-1,-1,1.204,0.109884511,-0.410551121,1,0,0,12.2082,Peridotite_rect,7,12.208,1,1,0,1,0,1,,,,,,,,,,,,,
65cd164122345f20629bede9,TCR,2024-06-24_16h34.15.245,LearnStrategy,2023.2.3,MacIntel,59.88023952,3,1,3,-0.033012058,-0.016351053,1,0,0,1.1633,rock_grid_rect_2,5,08,-1,-1,1.163,-0.358215863,-0.419408118,1,0,0,3.0739,Obsidian_rect,5,3.074,1,2,0,2,0,1,,,,,,,,,,,,,
65cd164122345f20629bede9,TCR,2024-06-24_16h34.15.245,LearnStrategy,2023.2.3,MacIntel,59.88023952,3,1,4,-0.019166101,0.003507133,1,0,0,1.4795,rock_grid_rect_2,6,08,-1,-1,1.479,-0.383415421,-0.418316916,1,0,0,16.2425,Obsidian_rect,5,16.243,0,3,0,3,0,1,,,,,,,,,,,,,
65cd164122345f20629bede9,TCR,2024-06-24_16h34.15.245,LearnStrategy,2023.2.3,MacIntel,59.88023952,3,1,5,-0.011977751,-0.013956352,1,0,0,1.488,rock_grid_rect_2,1,11,-1,-1,1.488,-0.385771909,-0.245775306,1,0,0,6.5934,Andesite_rect,1,6.593,1,4,0,4,0,1,,,,,,,,,,,,,
65cd164122345f20629bede9,TCR,2024-06-24_16h34.15.245,LearnStrategy,2023.2.3,MacIntel,59.88023952,3,1,6,-0.02033373,-0.00013587,1,0,0,1.4047,rock_grid_rect_2,2,01,-1,-1,1.405,-0.137975543,-0.249622113,1,0,0,3.5213,Basalt_rect,2,3.521,1,5,0,5,0,1,,,,,,,,,,,,,
65cd164122345f20629bede9,TCR,2024-06-24_16h34.15.245,LearnStrategy,2023.2.3,MacIntel,59.88023952,3,1,7,0.019764776,-0.010903533,1,0,0,1.3969,rock_grid_rect_2,2,08,-1,-1,1.397,-0.125751529,-0.247516135,1,0,0,1.9085,Basalt_rect,2,1.909,1,6,0,6,0,1,,,,,,,,,,,,,
65cd164122345f20629bede9,TCR,2024-06-24_16h34.15.245,LearnStrategy,2023.2.3,MacIntel,59.88023952,3,1,8,0.024121094,-0.00165591,1,0,0,1.5226,rock_grid_rect_2,3,12,-1,-1,1.523,0.091805367,-0.24767748,1,0,0,7.1262,Diorite_rect,3,7.126,1,7,0,7,0,1,,,,,,,,,,,,,
65cd164122345f20629bede9,TCR,2024-06-24_16h34.15.245,LearnStrategy,2023.2.3,MacIntel,59.88023952,3,1,9,0.073564878,-0.008046026,1,0,0,1.2886,rock_grid_rect_2,1,04,-1,-1,1.289,-0.392174762,-0.245953635,1,0,0,21.9262,Andesite_rect,1,21.926,1,8,0,8,0,1,,,,,,,,,,,,,
65cd164122345f20629bede9,TCR,2024-06-24_16h34.15.245,LearnStrategy,2023.2.3,MacIntel,59.88023952,3,1,10,0.00202106,-0.018847656,1,0,0,1.3809,rock_grid_rect_2,7,16,-1,-1,1.381,0.151872452,-0.417442255,1,0,0,15.4425,Peridotite_rect,7,15.443,1,9,0,9,0,1,,,,,,,,,,,,,
65cd164122345f20629bede9,TCR,2024-06-24_16h34.15.245,LearnStrategy,2023.2.3,MacIntel,59.88023952,3,1,11,0.031097147,-0.002772588,1,0,0,1.3808,rock_grid_rect_2,8,14,-1,-1,1.381,0.44921875,-0.414414912,1,0,0,1.7747,Pumice_rect,8,1.775,1,10,0,10,0,1,,,,,,,,,,,,,
65cd164122345f20629bede9,TCR,2024-06-24_16h34.15.245,LearnStrategy,2023.2.3,MacIntel,59.88023952,3,1,12,0.107319973,-0.001579484,1,0,0,2.8313,rock_grid_rect_2,4,13,-1,-1,2.831,0.409132982,-0.252280061,1,0,0,7.0591,Gabbro_rect,4,7.059,1,11,0,11,0,1,,,,,,,,,,,,,
65cd164122345f20629bede9,TCR,2024-06-24_16h34.15.245,LearnStrategy,2023.2.3,MacIntel,59.88023952,3,1,13,0.157638417,0.006848675,1,0,0,1.171,rock_grid_rect_2,1,04,-1,-1,1.171,-0.400628397,-0.248314368,1,0,0,18.4916,Andesite_rect,1,18.492,1,12,0,12,0,1,,,,,,,,,,,,,
65cd164122345f20629bede9,TCR,2024-06-24_16h34.15.245,LearnStrategy,2023.2.3,MacIntel,59.88023952,3,1,14,0.015047554,0.001528533,1,0,0,1.213,rock_grid_rect_2,3,02,-1,-1,1.213,0.133079993,-0.269331692,1,0,0,4.3261,Diorite_rect,3,4.326,1,13,0,13,0,1,,,,,,,,,,,,,
65cd164122345f20629bede9,TCR,2024-06-24_16h34.15.245,LearnStrategy,2023.2.3,MacIntel,59.88023952,3,1,15,-0.00257303,-0.00043733,1,0,0,1.1716,rock_grid_rect_2,4,05,-1,-1,1.172,0.399745245,-0.239856488,1,0,0,25.2083,Gabbro_rect,4,25.208,1,14,0,14,0,1,,,,,,,,,,,,,
65cd164122345f20629bede9,TCR,2024-06-24_16h34.15.245,LearnStrategy,2023.2.3,MacIntel,59.88023952,3,1,16,0.030842391,-0.001745075,1,0,0,1.4461,rock_grid_rect_2,4,01,-1,-1,1.446,-0.398454484,-0.267866848,1,0,0,40.0762,Andesite_rect,1,40.076,0,15,0,15,0,1,,,,,,,,,,,,,
65cd164122345f20629bede9,TCR,2024-06-24_16h34.15.245,LearnStrategy,2023.2.3,MacIntel,59.88023952,3,2,1,,,,,,,,5,02,,,,,,,,,,,5,2.691,1,,,,,,-0.418401834,-0.406852921,1,0,0,2.6905,Obsidian_rect,0,0,0,0,1,
65cd164122345f20629bede9,TCR,2024-06-24_16h34.15.245,LearnStrategy,2023.2.3,MacIntel,59.88023952,3,2,2,,,,,,,,4,11,,,,,,,,,,,1,41.724,0,,,,,,-0.436098845,-0.26247877,1,0,0,41.7235,Andesite_rect,1,0,1,0,1,
65cd164122345f20629bede9,TCR,2024-06-24_16h34.15.245,LearnStrategy,2023.2.3,MacIntel,59.88023952,3,2,3,,,,,,,,8,03,,,,,,,,,,,8,4.358,1,,,,,,0.42033373,-0.404628057,1,0,0,4.3581,Pumice_rect,2,0,2,0,1,
65cd164122345f20629bede9,TCR,2024-06-24_16h34.15.245,LearnStrategy,2023.2.3,MacIntel,59.88023952,3,2,4,,,,,,,,3,10,,,,,,,,,,,3,16.375,1,,,,,,0.157213825,-0.265115489,1,0,0,16.3753,Diorite_rect,3,0,3,0,1,
65cd164122345f20629bede9,TCR,2024-06-24_16h34.15.245,LearnStrategy,2023.2.3,MacIntel,59.88023952,3,2,5,,,,,,,,6,16,,,,,,,,,,,6,43.614,1,,,,,,-0.095036515,-0.405341372,1,0,0,43.6141,Pegmatite_rect,4,0,4,0,1,
65cd164122345f20629bede9,TCR,2024-06-24_16h34.15.245,LearnStrategy,2023.2.3,MacIntel,59.88023952,3,2,6,,,,,,,,7,05,,,,,,,,,,,7,26.125,1,,,,,,0.10992697,-0.415913723,1,0,0,26.1246,Peridotite_rect,5,0,5,0,1,
65cd164122345f20629bede9,TCR,2024-06-24_16h34.15.245,LearnStrategy,2023.2.3,MacIntel,59.88023952,3,2,7,,,,,,,,8,04,,,,,,,,,,,8,1.742,1,,,,,,0.393159817,-0.415399966,1,0,0,1.7416,Pumice_rect,6,0,6,0,1,
65cd164122345f20629bede9,TCR,2024-06-24_16h34.15.245,LearnStrategy,2023.2.3,MacIntel,59.88023952,3,2,8,,,,,,,,2,06,,,,,,,,,,,2,2.842,1,,,,,,-0.116894531,-0.258636209,1,0,0,2.8424,Basalt_rect,7,0,7,0,1,
65cd164122345f20629bede9,TCR,2024-06-24_16h34.15.245,LearnStrategy,2023.2.3,MacIntel,59.88023952,3,2,9,,,,,,,,7,07,,,,,,,,,,,7,51.241,1,,,,,,0.149146569,-0.414835258,1,0,0,51.2411,Peridotite_rect,8,0,8,0,1,
65cd164122345f20629bede9,TCR,2024-06-24_16h34.15.245,LearnStrategy,2023.2.3,MacIntel,59.88023952,3,2,10,,,,,,,,6,13,,,,,,,,,,,6,15.542,1,,,,,,-0.207731827,-0.394658628,1,0,0,15.5424,Pegmatite_rect,9,0,9,0,1,
65cd164122345f20629bede9,TCR,2024-06-24_16h34.15.245,LearnStrategy,2023.2.3,MacIntel,59.88023952,3,2,11,,,,,,,,1,06,,,,,,,,,,,1,31.292,1,,,,,,-0.389988111,-0.236769701,1,0,0,31.292,Andesite_rect,10,0,10,0,1,
65cd164122345f20629bede9,TCR,2024-06-24_16h34.15.245,LearnStrategy,2023.2.3,MacIntel,59.88023952,3,2,12,,,,,,,,2,16,,,,,,,,,,,2,53.126,1,,,,,,-0.177080503,-0.248632812,1,0,0,53.1262,Basalt_rect,11,0,11,0,1,
65cd164122345f20629bede9,TCR,2024-06-24_16h34.15.245,LearnStrategy,2023.2.3,MacIntel,59.88023952,3,2,13,,,,,,,,1,01,,,,,,,,,,,1,13.925,1,,,,,,-0.418597147,-0.23883322,1,0,0,13.9251,Andesite_rect,12,0,12,0,1,
65cd164122345f20629bede9,TCR,2024-06-24_16h34.15.245,LearnStrategy,2023.2.3,MacIntel,59.88023952,3,2,14,,,,,,,,5,06,,,,,,,,,,,5,5.107,1,,,,,,-0.395694633,-0.403129246,1,0,0,5.1073,Obsidian_rect,13,0,13,0,1,
65cd164122345f20629bede9,TCR,2024-06-24_16h34.15.245,LearnStrategy,2023.2.3,MacIntel,59.88023952,3,2,15,,,,,,,,3,15,,,,,,,,,,,4,47.741,0,,,,,,0.395299762,-0.252258832,1,0,0,47.7414,Gabbro_rect,14,0,14,0,1,
65cd164122345f20629bede9,TCR,2024-06-24_16h34.15.245,LearnStrategy,2023.2.3,MacIntel,59.88023952,3,2,16,,,,,,,,4,09,,,,,,,,,,,1,54.192,0,,,,,,-0.365765115,-0.25266644,1,0,0,54.192,Andesite_rect,15,0,15,0,1,
65cd164122345f20629bede9,TCR,2024-06-24_16h34.15.245,LearnStrategy,2023.2.3,MacIntel,59.88023952,4,1,1,-0.074261209,-0.010258152,1,0,0,1.6309,rock_grid_rect_2,3,12,-1,-1,1.631,0.161357846,-0.249121094,1,0,0,12.0912,Diorite_rect,3,12.091,1,0,0,0,0,1,,,,,,,,,,,,,
65cd164122345f20629bede9,TCR,2024-06-24_16h34.15.245,LearnStrategy,2023.2.3,MacIntel,59.88023952,4,1,2,0.022240149,-0.015748132,1,0,0,1.2803,rock_grid_rect_2,6,05,-1,-1,1.28,0.114474355,-0.263850204,1,0,0,21.2252,Diorite_rect,3,21.225,0,1,0,1,0,1,,,,,,,,,,,,,
65cd164122345f20629bede9,TCR,2024-06-24_16h34.15.245,LearnStrategy,2023.2.3,MacIntel,59.88023952,4,1,3,0.008627717,-0.00737517,1,0,0,1.4051,rock_grid_rect_2,4,05,-1,-1,1.405,0.360797385,-0.259375,1,0,0,22.0743,Gabbro_rect,4,22.074,1,2,0,2,0,1,,,,,,,,,,,,,
65cd164122345f20629bede9,TCR,2024-06-24_16h34.15.245,LearnStrategy,2023.2.3,MacIntel,59.88023952,4,1,4,0.028753397,-0.014741848,1,0,0,1.3471,rock_grid_rect_2,3,06,-1,-1,1.347,0.122023607,-0.251307745,1,0,0,10.4585,Diorite_rect,3,10.458,1,3,0,3,0,1,,,,,,,,,,,,,
65cd164122345f20629bede9,TCR,2024-06-24_16h34.15.245,LearnStrategy,2023.2.3,MacIntel,59.88023952,4,1,5,0.029411515,-0.015748132,1,0,0,1.3963,rock_grid_rect_2,6,07,-1,-1,1.396,-0.119454823,-0.406755265,1,0,0,17.8097,Pegmatite_rect,6,17.81,1,4,0,4,0,1,,,,,,,,,,,,,
65cd164122345f20629bede9,TCR,2024-06-24_16h34.15.245,LearnStrategy,2023.2.3,MacIntel,59.88023952,4,1,6,-0.003613281,-0.020898437,1,0,0,1.2217,rock_grid_rect_2,2,10,-1,-1,1.222,-0.119769022,-0.24689623,1,0,0,1.9417,Basalt_rect,2,1.942,1,5,0,5,0,1,,,,,,,,,,,,,
65cd164122345f20629bede9,TCR,2024-06-24_16h34.15.245,LearnStrategy,2023.2.3,MacIntel,59.88023952,4,1,7,0.019628906,0.004988961,1,0,0,1.2462,rock_grid_rect_2,1,09,-1,-1,1.246,-0.426065727,-0.235631793,1,0,0,23.9936,Andesite_rect,1,23.994,1,6,0,6,0,1,,,,,,,,,,,,,
65cd164122345f20629bede9,TCR,2024-06-24_16h34.15.245,LearnStrategy,2023.2.3,MacIntel,59.88023952,4,1,8,0.022431216,-0.005893342,1,0,0,1.3473,rock_grid_rect_2,3,11,-1,-1,1.347,0.109757133,-0.244310462,1,0,0,1.9589,Diorite_rect,3,1.959,1,7,0,7,0,1,,,,,,,,,,,,,
65cd164122345f20629bede9,TCR,2024-06-24_16h34.15.245,LearnStrategy,2023.2.3,MacIntel,59.88023952,4,1,9,-0.017544158,0.00546875,1,0,0,1.1635,rock_grid_rect_2,2,14,-1,-1,1.164,0.118210768,-0.401944633,1,0,0,6.0587,Peridotite_rect,7,6.059,0,8,0,8,0,1,,,,,,,,,,,,,
65cd164122345f20629bede9,TCR,2024-06-24_16h34.15.245,LearnStrategy,2023.2.3,MacIntel,59.88023952,4,1,10,0.020367697,-0.003269361,1,0,0,1.7444,rock_grid_rect_2,1,09,-1,-1,1.744,-0.346828295,-0.244590693,1,0,0,2.6084,Andesite_rect,1,2.608,1,9,0,9,0,1,,,,,,,,,,,,,
65cd164122345f20629bede9,TCR,2024-06-24_16h34.15.245,LearnStrategy,2023.2.3,MacIntel,59.88023952,4,1,11,0.03435377,-0.010640285,1,0,0,2.1972,rock_grid_rect_2,5,04,-1,-1,2.197,-0.39230214,-0.396276325,1,0,0,2.359,Obsidian_rect,5,2.359,1,10,0,10,0,1,,,,,,,,,,,,,
65cd164122345f20629bede9,TCR,2024-06-24_16h34.15.245,LearnStrategy,2023.2.3,MacIntel,59.88023952,4,1,12,0.028430707,-0.005570652,1,0,0,1.2973,rock_grid_rect_2,4,03,-1,-1,1.297,0.376473336,-0.25298913,1,0,0,19.7418,Gabbro_rect,4,19.742,1,11,0,11,0,1,,,,,,,,,,,,,
65cd164122345f20629bede9,TCR,2024-06-24_16h34.15.245,LearnStrategy,2023.2.3,MacIntel,59.88023952,4,1,13,-0.014066746,-0.003409477,1,0,0,1.6471,rock_grid_rect_2,4,08,-1,-1,1.647,0.390327785,-0.259994905,1,0,0,5.909,Gabbro_rect,4,5.909,1,12,0,12,0,1,,,,,,,,,,,,,
65cd164122345f20629bede9,TCR,2024-06-24_16h34.15.245,LearnStrategy,2023.2.3,MacIntel,59.88023952,4,1,14,0.015378736,-0.01282269,1,0,0,1.205,rock_grid_rect_2,8,16,-1,-1,1.205,-0.115026325,-0.240692935,1,0,0,3.1921,Basalt_rect,2,3.192,0,13,0,13,0,1,,,,,,,,,,,,,
65cd164122345f20629bede9,TCR,2024-06-24_16h34.15.245,LearnStrategy,2023.2.3,MacIntel,59.88023952,4,1,15,0.022244395,-0.014673913,1,0,0,1.3219,rock_grid_rect_2,4,05,-1,-1,1.322,0.420019531,-0.255061141,1,0,0,22.1419,Gabbro_rect,4,22.142,1,14,0,14,0,1,,,,,,,,,,,,,
65cd164122345f20629bede9,TCR,2024-06-24_16h34.15.245,LearnStrategy,2023.2.3,MacIntel,59.88023952,4,1,16,-0.002386209,-0.015909477,1,0,0,0.9806,rock_grid_rect_2,7,12,-1,-1,0.981,-0.08894786,-0.404199219,1,0,0,3.7087,Pegmatite_rect,6,3.709,0,15,0,15,0,1,,,,,,,,,,,,,
65cd164122345f20629bede9,TCR,2024-06-24_16h34.15.245,LearnStrategy,2023.2.3,MacIntel,59.88023952,4,2,1,,,,,,,,1,02,,,,,,,,,,,1,20.858,1,,,,,,-0.372223166,-0.248721977,1,0,0,20.8577,Andesite_rect,0,0,0,0,1,
65cd164122345f20629bede9,TCR,2024-06-24_16h34.15.245,LearnStrategy,2023.2.3,MacIntel,59.88023952,4,2,2,,,,,,,,8,08,,,,,,,,,,,8,1.942,1,,,,,,0.41013502,-0.415824558,1,0,0,1.9416,Pumice_rect,1,0,1,0,1,
65cd164122345f20629bede9,TCR,2024-06-24_16h34.15.245,LearnStrategy,2023.2.3,MacIntel,59.88023952,4,2,3,,,,,,,,1,03,,,,,,,,,,,2,5.742,0,,,,,,-0.06886464,-0.244616168,1,0,0,5.7423,Basalt_rect,2,0,2,0,1,
65cd164122345f20629bede9,TCR,2024-06-24_16h34.15.245,LearnStrategy,2023.2.3,MacIntel,59.88023952,4,2,4,,,,,,,,3,08,,,,,,,,,,,3,1.491,1,,,,,,0.13595873,-0.238828974,1,0,0,1.4906,Diorite_rect,3,0,3,0,1,
65cd164122345f20629bede9,TCR,2024-06-24_16h34.15.245,LearnStrategy,2023.2.3,MacIntel,59.88023952,4,2,5,,,,,,,,8,02,,,,,,,,,,,3,4.042,0,,,,,,0.142234205,-0.240179178,1,0,0,4.0422,Diorite_rect,4,0,4,0,1,
65cd164122345f20629bede9,TCR,2024-06-24_16h34.15.245,LearnStrategy,2023.2.3,MacIntel,59.88023952,4,2,6,,,,,,,,3,10,,,,,,,,,,,3,40.308,1,,,,,,0.102933933,-0.244488791,1,0,0,40.3082,Diorite_rect,5,0,5,0,1,
65cd164122345f20629bede9,TCR,2024-06-24_16h34.15.245,LearnStrategy,2023.2.3,MacIntel,59.88023952,4,2,7,,,,,,,,4,14,,,,,,,,,,,2,5.108,0,,,,,,-0.111935292,-0.251278023,1,0,0,5.1082,Basalt_rect,6,0,6,0,1,
65cd164122345f20629bede9,TCR,2024-06-24_16h34.15.245,LearnStrategy,2023.2.3,MacIntel,59.88023952,4,2,8,,,,,,,,5,11,,,,,,,,,,,5,1.491,1,,,,,,-0.465688689,-0.410665761,1,0,0,1.4911,Obsidian_rect,7,0,7,0,1,
65cd164122345f20629bede9,TCR,2024-06-24_16h34.15.245,LearnStrategy,2023.2.3,MacIntel,59.88023952,4,2,9,,,,,,,,7,10,,,,,,,,,,,4,10.475,0,,,,,,0.425271739,-0.265493376,1,0,0,10.4746,Gabbro_rect,8,0,8,0,1,
65cd164122345f20629bede9,TCR,2024-06-24_16h34.15.245,LearnStrategy,2023.2.3,MacIntel,59.88023952,4,2,10,,,,,,,,7,15,,,,,,,,,,,4,1.591,0,,,,,,0.427377717,-0.252314029,1,0,0,1.5906,Gabbro_rect,9,0,9,0,1,
65cd164122345f20629bede9,TCR,2024-06-24_16h34.15.245,LearnStrategy,2023.2.3,MacIntel,59.88023952,4,2,11,,,,,,,,6,16,,,,,,,,,,,6,18.708,1,,,,,,-0.080188519,-0.414228091,1,0,0,18.7077,Pegmatite_rect,10,0,10,0,1,
65cd164122345f20629bede9,TCR,2024-06-24_16h34.15.245,LearnStrategy,2023.2.3,MacIntel,59.88023952,4,2,12,,,,,,,,2,05,,,,,,,,,,,2,5.341,1,,,,,,-0.139504076,-0.242055876,1,0,0,5.3414,Basalt_rect,11,0,11,0,1,
65cd164122345f20629bede9,TCR,2024-06-24_16h34.15.245,LearnStrategy,2023.2.3,MacIntel,59.88023952,4,2,13,,,,,,,,2,11,,,,,,,,,,,1,16.632,0,,,,,,-0.384307065,-0.248823879,1,0,0,16.6316,Andesite_rect,12,0,12,0,1,
65cd164122345f20629bede9,TCR,2024-06-24_16h34.15.245,LearnStrategy,2023.2.3,MacIntel,59.88023952,4,2,14,,,,,,,,4,12,,,,,,,,,,,4,20.207,1,,,,,,0.397605299,-0.25211447,1,0,0,20.2074,Gabbro_rect,13,0,13,0,1,
65cd164122345f20629bede9,TCR,2024-06-24_16h34.15.245,LearnStrategy,2023.2.3,MacIntel,59.88023952,4,2,15,,,,,,,,6,03,,,,,,,,,,,6,16.507,1,,,,,,-0.118227751,-0.406296705,1,0,0,16.5075,Pegmatite_rect,14,0,14,0,1,
65cd164122345f20629bede9,TCR,2024-06-24_16h34.15.245,LearnStrategy,2023.2.3,MacIntel,59.88023952,4,2,16,,,,,,,,5,05,,,,,,,,,,,5,3.724,1,,,,,,-0.326027514,-0.412491508,1,0,0,3.7243,Obsidian_rect,15,0,15,0,1,
65cd164122345f20629bede9,TCR,2024-06-24_16h34.15.245,LearnStrategy,2023.2.3,MacIntel,59.88023952,5,1,1,0.018142833,-0.013519022,1,0,0,1.131,rock_grid_rect_2,6,08,-1,-1,1.131,-0.118682065,-0.404742697,1,0,0,5.4415,Pegmatite_rect,6,5.441,1,0,0,0,0,1,,,,,,,,,,,,,
65cd164122345f20629bede9,TCR,2024-06-24_16h34.15.245,LearnStrategy,2023.2.3,MacIntel,59.88023952,5,1,2,-0.093682065,-0.003112262,1,0,0,1.1806,rock_grid_rect_2,5,07,-1,-1,1.181,-0.364881963,-0.414797045,1,0,0,1.7575,Obsidian_rect,5,1.757,1,1,0,1,0,1,,,,,,,,,,,,,
65cd164122345f20629bede9,TCR,2024-06-24_16h34.15.245,LearnStrategy,2023.2.3,MacIntel,59.88023952,5,1,3,-0.031173573,0.007120414,1,0,0,1.1972,rock_grid_rect_2,8,06,-1,-1,1.197,0.43405231,-0.402827785,1,0,0,3.8274,Pumice_rect,8,3.827,1,2,0,2,0,1,,,,,,,,,,,,,
65cd164122345f20629bede9,TCR,2024-06-24_16h34.15.245,LearnStrategy,2023.2.3,MacIntel,59.88023952,5,1,4,0.052246094,-0.000390625,1,0,0,1.2974,rock_grid_rect_2,1,09,-1,-1,1.297,-0.371722147,-0.242544158,1,0,0,1.8919,Andesite_rect,1,1.892,1,3,0,3,0,1,,,,,,,,,,,,,
65cd164122345f20629bede9,TCR,2024-06-24_16h34.15.245,LearnStrategy,2023.2.3,MacIntel,59.88023952,5,1,5,0.003778872,0.004504925,1,0,0,1.1807,rock_grid_rect_2,7,16,-1,-1,1.181,0.166338315,-0.411001189,1,0,0,13.1257,Peridotite_rect,7,13.126,1,4,0,4,0,1,,,,,,,,,,,,,
65cd164122345f20629bede9,TCR,2024-06-24_16h34.15.245,LearnStrategy,2023.2.3,MacIntel,59.88023952,5,1,6,0.024503227,-0.004284137,1,0,0,1.1477,rock_grid_rect_2,1,16,-1,-1,1.148,-0.372681726,-0.242263927,1,0,0,11.0083,Andesite_rect,1,11.008,1,5,0,5,0,1,,,,,,,,,,,,,
65cd164122345f20629bede9,TCR,2024-06-24_16h34.15.245,LearnStrategy,2023.2.3,MacIntel,59.88023952,5,1,7,-0.0396357,-4.67052E-05,1,0,0,1.4132,rock_grid_rect_2,3,06,-1,-1,1.413,0.142917799,-0.254411515,1,0,0,2.5754,Diorite_rect,3,2.575,1,6,0,6,0,1,,,,,,,,,,,,,
65cd164122345f20629bede9,TCR,2024-06-24_16h34.15.245,LearnStrategy,2023.2.3,MacIntel,59.88023952,5,1,8,0.051286515,-0.002602751,1,0,0,1.3642,rock_grid_rect_2,4,05,-1,-1,1.364,0.384523607,-0.245613961,1,0,0,28.809,Gabbro_rect,4,28.809,1,7,0,7,0,1,,,,,,,,,,,,,
65cd164122345f20629bede9,TCR,2024-06-24_16h34.15.245,LearnStrategy,2023.2.3,MacIntel,59.88023952,5,1,9,-0.029330842,0.002751359,1,0,0,1.0486,rock_grid_rect_2,2,08,-1,-1,1.049,-0.125615659,-0.240824558,1,0,0,2.2254,Basalt_rect,2,2.225,1,8,0,8,0,1,,,,,,,,,,,,,
65cd164122345f20629bede9,TCR,2024-06-24_16h34.15.245,LearnStrategy,2023.2.3,MacIntel,59.88023952,5,1,10,0.026626189,-0.004144022,1,0,0,1.2139,rock_grid_rect_2,3,12,-1,-1,1.214,0.138047724,-0.246802819,1,0,0,1.9747,Diorite_rect,3,1.975,1,9,0,9,0,1,,,,,,,,,,,,,
65cd164122345f20629bede9,TCR,2024-06-24_16h34.15.245,LearnStrategy,2023.2.3,MacIntel,59.88023952,5,1,11,0.023170007,-0.01215608,1,0,0,1.331,rock_grid_rect_2,2,08,-1,-1,1.331,-0.104831861,-0.25268767,1,0,0,1.4243,Basalt_rect,2,1.424,1,10,0,10,0,1,,,,,,,,,,,,,
65cd164122345f20629bede9,TCR,2024-06-24_16h34.15.245,LearnStrategy,2023.2.3,MacIntel,59.88023952,5,1,12,-0.001961617,-0.019896399,1,0,0,1.1482,rock_grid_rect_2,4,05,-1,-1,1.148,0.385491678,-0.252623981,1,0,0,2.2755,Gabbro_rect,4,2.276,1,11,0,11,0,1,,,,,,,,,,,,,
65cd164122345f20629bede9,TCR,2024-06-24_16h34.15.245,LearnStrategy,2023.2.3,MacIntel,59.88023952,5,1,13,0.010788893,-0.001133662,1,0,0,1.3333,rock_grid_rect_2,7,08,-1,-1,1.333,0.386748471,-0.253052819,1,0,0,3.0412,Gabbro_rect,4,3.041,0,12,0,12,0,1,,,,,,,,,,,,,
65cd164122345f20629bede9,TCR,2024-06-24_16h34.15.245,LearnStrategy,2023.2.3,MacIntel,59.88023952,5,1,14,0.027144192,-0.000976563,1,0,0,1.6048,rock_grid_rect_2,4,15,-1,-1,1.605,-0.135096807,-0.232617187,1,0,0,3.0254,Basalt_rect,2,3.025,0,13,0,13,0,1,,,,,,,,,,,,,
65cd164122345f20629bede9,TCR,2024-06-24_16h34.15.245,LearnStrategy,2023.2.3,MacIntel,59.88023952,5,1,15,0.017781929,-0.002933933,1,0,0,1.0725,rock_grid_rect_2,4,03,-1,-1,1.073,-0.366444463,-0.24186481,1,0,0,4.724,Andesite_rect,1,4.724,0,14,0,14,0,1,,,,,,,,,,,,,
65cd164122345f20629bede9,TCR,2024-06-24_16h34.15.245,LearnStrategy,2023.2.3,MacIntel,59.88023952,5,1,16,-0.010245414,-0.000178329,1,0,0,0.9876,rock_grid_rect_2,7,04,-1,-1,0.988,0.151931895,-0.415264096,1,0,0,17.1259,Peridotite_rect,7,17.126,1,15,0,15,0,1,,,,,,,,,,,,,
65cd164122345f20629bede9,TCR,2024-06-24_16h34.15.245,LearnStrategy,2023.2.3,MacIntel,59.88023952,5,2,1,,,,,,,,8,15,,,,,,,,,,,8,8.042,1,,,,,,0.409060802,-0.405252208,1,0,0,8.0419,Pumice_rect,0,0,0,0,1,
65cd164122345f20629bede9,TCR,2024-06-24_16h34.15.245,LearnStrategy,2023.2.3,MacIntel,59.88023952,5,2,2,,,,,,,,6,06,,,,,,,,,,,3,3.959,0,,,,,,0.109990659,-0.253367018,1,0,0,3.9588,Diorite_rect,1,0,1,0,1,
65cd164122345f20629bede9,TCR,2024-06-24_16h34.15.245,LearnStrategy,2023.2.3,MacIntel,59.88023952,5,2,3,,,,,,,,3,07,,,,,,,,,,,3,1.842,1,,,,,,0.125025476,-0.253685462,1,0,0,1.8416,Diorite_rect,2,0,2,0,1,
65cd164122345f20629bede9,TCR,2024-06-24_16h34.15.245,LearnStrategy,2023.2.3,MacIntel,59.88023952,5,2,4,,,,,,,,1,05,,,,,,,,,,,1,4.544,1,,,,,,-0.408755095,-0.248620075,1,0,0,4.5438,Andesite_rect,3,0,3,0,1,
65cd164122345f20629bede9,TCR,2024-06-24_16h34.15.245,LearnStrategy,2023.2.3,MacIntel,59.88023952,5,2,5,,,,,,,,1,06,,,,,,,,,,,1,1.825,1,,,,,,-0.369917629,-0.253473166,1,0,0,1.825,Andesite_rect,4,0,4,0,1,
65cd164122345f20629bede9,TCR,2024-06-24_16h34.15.245,LearnStrategy,2023.2.3,MacIntel,59.88023952,5,2,6,,,,,,,,4,16,,,,,,,,,,,2,1.425,0,,,,,,-0.143359375,-0.263298234,1,0,0,1.4251,Basalt_rect,5,0,5,0,1,
65cd164122345f20629bede9,TCR,2024-06-24_16h34.15.245,LearnStrategy,2023.2.3,MacIntel,59.88023952,5,2,7,,,,,,,,2,12,,,,,,,,,,,1,17.941,0,,,,,,-0.342905061,-0.247223166,1,0,0,17.9415,Andesite_rect,6,0,6,0,1,
65cd164122345f20629bede9,TCR,2024-06-24_16h34.15.245,LearnStrategy,2023.2.3,MacIntel,59.88023952,5,2,8,,,,,,,,3,15,,,,,,,,,,,4,2.276,0,,,,,,0.407027004,-0.251316236,1,0,0,2.2758,Gabbro_rect,7,0,7,0,1,
65cd164122345f20629bede9,TCR,2024-06-24_16h34.15.245,LearnStrategy,2023.2.3,MacIntel,59.88023952,5,2,9,,,,,,,,5,06,,,,,,,,,,,5,1.808,1,,,,,,-0.378668478,-0.419119395,1,0,0,1.8078,Obsidian_rect,8,0,8,0,1,
65cd164122345f20629bede9,TCR,2024-06-24_16h34.15.245,LearnStrategy,2023.2.3,MacIntel,59.88023952,5,2,10,,,,,,,,7,07,,,,,,,,,,,4,3.242,0,,,,,,0.385118037,-0.260988451,1,0,0,3.2418,Gabbro_rect,9,0,9,0,1,
65cd164122345f20629bede9,TCR,2024-06-24_16h34.15.245,LearnStrategy,2023.2.3,MacIntel,59.88023952,5,2,11,,,,,,,,5,02,,,,,,,,,,,5,1.775,1,,,,,,-0.35680197,-0.396921705,1,0,0,1.7746,Obsidian_rect,10,0,10,0,1,
65cd164122345f20629bede9,TCR,2024-06-24_16h34.15.245,LearnStrategy,2023.2.3,MacIntel,59.88023952,5,2,12,,,,,,,,6,10,,,,,,,,,,,6,10.308,1,,,,,,-0.115620754,-0.416058084,1,0,0,10.3083,Pegmatite_rect,11,0,11,0,1,
65cd164122345f20629bede9,TCR,2024-06-24_16h34.15.245,LearnStrategy,2023.2.3,MacIntel,59.88023952,5,2,13,,,,,,,,2,06,,,,,,,,,,,2,1.559,1,,,,,,-0.127305537,-0.244819973,1,0,0,1.5589,Basalt_rect,12,0,12,0,1,
65cd164122345f20629bede9,TCR,2024-06-24_16h34.15.245,LearnStrategy,2023.2.3,MacIntel,59.88023952,5,2,14,,,,,,,,8,03,,,,,,,,,,,8,2.391,1,,,,,,0.418877378,-0.407532269,1,0,0,2.3915,Pumice_rect,13,0,13,0,1,
65cd164122345f20629bede9,TCR,2024-06-24_16h34.15.245,LearnStrategy,2023.2.3,MacIntel,59.88023952,5,2,15,,,,,,,,4,11,,,,,,,,,,,1,3.409,0,,,,,,-0.350127378,-0.249023438,1,0,0,3.4085,Andesite_rect,14,0,14,0,1,
65cd164122345f20629bede9,TCR,2024-06-24_16h34.15.245,LearnStrategy,2023.2.3,MacIntel,59.88023952,5,2,16,,,,,,,,7,05,,,,,,,,,,,7,15.125,1,,,,,,0.133678668,-0.397821841,1,0,0,15.1249,Peridotite_rect,15,0,15,0,1,
65cd164122345f20629bede9,TCR,2024-06-24_16h34.15.245,LearnStrategy,2023.2.3,MacIntel,59.88023952,6,1,1,0.009370754,-0.019238281,1,0,0,1.2973,rock_grid_rect_2,2,14,-1,-1,1.297,-0.142675781,-0.251515795,1,0,0,1.8941,Basalt_rect,2,1.894,1,0,0,0,0,1,,,,,,,,,,,,,
65cd164122345f20629bede9,TCR,2024-06-24_16h34.15.245,LearnStrategy,2023.2.3,MacIntel,59.88023952,6,1,2,-0.005358356,0.001923404,1,0,0,1.3311,rock_grid_rect_2,4,08,-1,-1,1.331,0.101439368,-0.245673404,1,0,0,2.0259,Diorite_rect,3,2.026,0,1,0,1,0,1,,,,,,,,,,,,,
65cd164122345f20629bede9,TCR,2024-06-24_16h34.15.245,LearnStrategy,2023.2.3,MacIntel,59.88023952,6,1,3,0.111659307,-0.009655231,1,0,0,1.731,rock_grid_rect_2,7,04,-1,-1,1.731,0.087546705,-0.395193614,1,0,0,2.0915,Peridotite_rect,7,2.092,1,2,0,2,0,1,,,,,,,,,,,,,
65cd164122345f20629bede9,TCR,2024-06-24_16h34.15.245,LearnStrategy,2023.2.3,MacIntel,59.88023952,6,1,4,0.032511039,-0.006245754,1,0,0,1.1307,rock_grid_rect_2,5,08,-1,-1,1.131,-0.364678159,-0.404857337,1,0,0,1.5254,Obsidian_rect,5,1.525,1,3,0,3,0,1,,,,,,,,,,,,,
65cd164122345f20629bede9,TCR,2024-06-24_16h34.15.245,LearnStrategy,2023.2.3,MacIntel,59.88023952,6,1,5,0.074647588,-0.005065387,1,0,0,1.4647,rock_grid_rect_2,4,15,-1,-1,1.465,-0.120482337,-0.260266644,1,0,0,2.9758,Basalt_rect,2,2.976,0,4,0,4,0,1,,,,,,,,,,,,,
65cd164122345f20629bede9,TCR,2024-06-24_16h34.15.245,LearnStrategy,2023.2.3,MacIntel,59.88023952,6,1,6,0.066244905,0.006394361,1,0,0,1.4134,rock_grid_rect_2,1,10,-1,-1,1.413,-0.358890965,-0.257116168,1,0,0,3.5589,Andesite_rect,1,3.559,1,5,0,5,0,1,,,,,,,,,,,,,
65cd164122345f20629bede9,TCR,2024-06-24_16h34.15.245,LearnStrategy,2023.2.3,MacIntel,59.88023952,6,1,7,0.032243546,0.010194463,1,0,0,1.0468,rock_grid_rect_2,4,05,-1,-1,1.047,-0.097269871,-0.413994565,1,0,0,2.5916,Pegmatite_rect,6,2.592,0,6,0,6,0,1,,,,,,,,,,,,,
65cd164122345f20629bede9,TCR,2024-06-24_16h34.15.245,LearnStrategy,2023.2.3,MacIntel,59.88023952,6,1,8,0.04921875,-0.007451596,1,0,0,1.3642,rock_grid_rect_2,2,01,-1,-1,1.364,-0.15861498,-0.241665251,1,0,0,1.1925,Basalt_rect,2,1.193,1,7,0,7,0,1,,,,,,,,,,,,,
65cd164122345f20629bede9,TCR,2024-06-24_16h34.15.245,LearnStrategy,2023.2.3,MacIntel,59.88023952,6,1,9,0.034850543,-0.007158628,1,0,0,1.3318,rock_grid_rect_2,4,08,-1,-1,1.332,0.393338145,-0.259128736,1,0,0,2.2919,Gabbro_rect,4,2.292,1,8,0,8,0,1,,,,,,,,,,,,,
65cd164122345f20629bede9,TCR,2024-06-24_16h34.15.245,LearnStrategy,2023.2.3,MacIntel,59.88023952,6,1,10,0.029050611,-0.010525645,1,0,0,1.2136,rock_grid_rect_2,8,10,-1,-1,1.214,0.398496943,-0.40188519,1,0,0,2.6755,Pumice_rect,8,2.676,1,9,0,9,0,1,,,,,,,,,,,,,
65cd164122345f20629bede9,TCR,2024-06-24_16h34.15.245,LearnStrategy,2023.2.3,MacIntel,59.88023952,6,1,11,-0.056220279,-0.020813519,1,0,0,2.0136,rock_grid_rect_2,6,15,-1,-1,2.014,-0.154810632,-0.402369226,1,0,0,2.6954,Pegmatite_rect,6,2.695,1,10,0,10,0,1,,,,,,,,,,,,,
65cd164122345f20629bede9,TCR,2024-06-24_16h34.15.245,LearnStrategy,2023.2.3,MacIntel,59.88023952,6,1,12,0.017408288,-0.007409137,1,0,0,1.013,rock_grid_rect_2,7,16,-1,-1,1.013,0.161149796,-0.410130774,1,0,0,2.3265,Peridotite_rect,7,2.326,1,11,0,11,0,1,,,,,,,,,,,,,
65cd164122345f20629bede9,TCR,2024-06-24_16h34.15.245,LearnStrategy,2023.2.3,MacIntel,59.88023952,6,1,13,0.071654212,0.004267154,1,0,0,0.964,rock_grid_rect_2,3,16,-1,-1,0.964,0.166554857,-0.246047045,1,0,0,1.9083,Diorite_rect,3,1.908,1,12,0,12,0,1,,,,,,,,,,,,,
65cd164122345f20629bede9,TCR,2024-06-24_16h34.15.245,LearnStrategy,2023.2.3,MacIntel,59.88023952,6,1,14,0.042353091,-0.003473166,1,0,0,0.9976,rock_grid_rect_2,1,09,-1,-1,0.998,-0.372545856,-0.254887058,1,0,0,1.6259,Andesite_rect,1,1.626,1,13,0,13,0,1,,,,,,,,,,,,,
65cd164122345f20629bede9,TCR,2024-06-24_16h34.15.245,LearnStrategy,2023.2.3,MacIntel,59.88023952,6,1,15,0.040005095,-0.010474694,1,0,0,1.2812,rock_grid_rect_2,3,16,-1,-1,1.281,0.157090693,-0.246747622,1,0,0,1.2928,Diorite_rect,3,1.293,1,14,0,14,0,1,,,,,,,,,,,,,
65cd164122345f20629bede9,TCR,2024-06-24_16h34.15.245,LearnStrategy,2023.2.3,MacIntel,59.88023952,6,1,16,-0.001511549,-0.002819293,1,0,0,1.3986,rock_grid_rect_2,6,05,-1,-1,1.399,0.119505774,-0.255638587,1,0,0,1.5086,Diorite_rect,3,1.509,0,15,0,15,0,1,,,,,,,,,,,,,
65cd164122345f20629bede9,TCR,2024-06-24_16h34.15.245,LearnStrategy,2023.2.3,MacIntel,59.88023952,6,2,1,,,,,,,,5,14,,,,,,,,,,,2,6.227,0,,,,,,-0.178001868,-0.258814538,1,0,0,6.2268,Basalt_rect,0,0,0,0,1,
65cd164122345f20629bede9,TCR,2024-06-24_16h34.15.245,LearnStrategy,2023.2.3,MacIntel,59.88023952,6,2,2,,,,,,,,6,12,,,,,,,,,,,3,2.09,0,,,,,,0.143754246,-0.252156929,1,0,0,2.0899,Diorite_rect,1,0,1,0,1,
65cd164122345f20629bede9,TCR,2024-06-24_16h34.15.245,LearnStrategy,2023.2.3,MacIntel,59.88023952,6,2,3,,,,,,,,1,01,,,,,,,,,,,1,2.676,1,,,,,,-0.368677819,-0.268057914,1,0,0,2.6765,Andesite_rect,2,0,2,0,1,
65cd164122345f20629bede9,TCR,2024-06-24_16h34.15.245,LearnStrategy,2023.2.3,MacIntel,59.88023952,6,2,4,,,,,,,,8,04,,,,,,,,,,,8,1.575,1,,,,,,0.397329314,-0.40870839,1,0,0,1.5745,Pumice_rect,3,0,3,0,1,
65cd164122345f20629bede9,TCR,2024-06-24_16h34.15.245,LearnStrategy,2023.2.3,MacIntel,59.88023952,6,2,5,,,,,,,,5,09,,,,,,,,,,,5,1.807,1,,,,,,-0.364351223,-0.387304688,1,0,0,1.8068,Obsidian_rect,4,0,4,0,1,
65cd164122345f20629bede9,TCR,2024-06-24_16h34.15.245,LearnStrategy,2023.2.3,MacIntel,59.88023952,6,2,6,,,,,,,,7,02,,,,,,,,,,,4,2.075,0,,,,,,0.362733526,-0.263463825,1,0,0,2.075,Gabbro_rect,5,0,5,0,1,
65cd164122345f20629bede9,TCR,2024-06-24_16h34.15.245,LearnStrategy,2023.2.3,MacIntel,59.88023952,6,2,7,,,,,,,,3,13,,,,,,,,,,,4,2.693,0,,,,,,0.36204144,-0.250501019,1,0,0,2.6925,Gabbro_rect,6,0,6,0,1,
65cd164122345f20629bede9,TCR,2024-06-24_16h34.15.245,LearnStrategy,2023.2.3,MacIntel,59.88023952,6,2,8,,,,,,,,8,13,,,,,,,,,,,8,1.593,1,,,,,,0.437194293,-0.411060632,1,0,0,1.5925,Pumice_rect,7,0,7,0,1,
65cd164122345f20629bede9,TCR,2024-06-24_16h34.15.245,LearnStrategy,2023.2.3,MacIntel,59.88023952,6,2,9,,,,,,,,4,09,,,,,,,,,,,1,9.742,0,,,,,,-0.372252887,-0.253923234,1,0,0,9.7416,Andesite_rect,8,0,8,0,1,
65cd164122345f20629bede9,TCR,2024-06-24_16h34.15.245,LearnStrategy,2023.2.3,MacIntel,59.88023952,6,2,10,,,,,,,,4,10,,,,,,,,,,,4,4.411,1,,,,,,0.391839334,-0.267824389,1,0,0,4.4106,Gabbro_rect,9,0,9,0,1,
65cd164122345f20629bede9,TCR,2024-06-24_16h34.15.245,LearnStrategy,2023.2.3,MacIntel,59.88023952,6,2,11,,,,,,,,7,06,,,,,,,,,,,6,5.509,0,,,,,,-0.096768852,-0.40689538,1,0,0,5.5089,Pegmatite_rect,10,0,10,0,1,
65cd164122345f20629bede9,TCR,2024-06-24_16h34.15.245,LearnStrategy,2023.2.3,MacIntel,59.88023952,6,2,12,,,,,,,,2,04,,,,,,,,,,,2,1.959,1,,,,,,-0.134608526,-0.228069803,1,0,0,1.9592,Basalt_rect,11,0,11,0,1,
65cd164122345f20629bede9,TCR,2024-06-24_16h34.15.245,LearnStrategy,2023.2.3,MacIntel,59.88023952,6,2,13,,,,,,,,3,09,,,,,,,,,,,3,1.351,1,,,,,,0.079177989,-0.246178668,1,0,0,1.351,Diorite_rect,12,0,12,0,1,
65cd164122345f20629bede9,TCR,2024-06-24_16h34.15.245,LearnStrategy,2023.2.3,MacIntel,59.88023952,6,2,14,,,,,,,,1,07,,,,,,,,,,,1,1.858,1,,,,,,-0.337907609,-0.25491678,1,0,0,1.8579,Andesite_rect,13,0,13,0,1,
65cd164122345f20629bede9,TCR,2024-06-24_16h34.15.245,LearnStrategy,2023.2.3,MacIntel,59.88023952,6,2,15,,,,,,,,2,16,,,,,,,,,,,2,1.54,1,,,,,,-0.082099185,-0.258992867,1,0,0,1.5402,Basalt_rect,14,0,14,0,1,
65cd164122345f20629bede9,TCR,2024-06-24_16h34.15.245,LearnStrategy,2023.2.3,MacIntel,59.88023952,6,2,16,,,,,,,,6,13,,,,,,,,,,,6,3.458,1,,,,,,-0.077424423,-0.388179348,1,0,0,3.4581,Pegmatite_rect,15,0,15,0,1,
65cd164122345f20629bede9,TCR,2024-06-24_16h34.15.245,LearnStrategy,2023.2.3,MacIntel,59.88023952,7,1,1,0.075624151,0.000607167,1,0,0,2.8303,rock_grid_rect_2,2,08,-1,-1,2.83,-0.105740489,-0.230965523,1,0,0,1.4239,Basalt_rect,2,1.424,1,0,0,0,0,1,,,,,,,,,,,,,
65cd164122345f20629bede9,TCR,2024-06-24_16h34.15.245,LearnStrategy,2023.2.3,MacIntel,59.88023952,7,1,2,0.008589504,0.001804518,1,0,0,1.2818,rock_grid_rect_2,2,09,-1,-1,1.282,-0.389444633,-0.249949049,1,0,0,1.5252,Andesite_rect,1,1.525,0,1,0,1,0,1,,,,,,,,,,,,,
65cd164122345f20629bede9,TCR,2024-06-24_16h34.15.245,LearnStrategy,2023.2.3,MacIntel,59.88023952,7,1,3,0.068962296,-0.00735394,1,0,0,1.2147,rock_grid_rect_2,3,11,-1,-1,1.215,0.083058764,-0.233368716,1,0,0,1.2927,Diorite_rect,3,1.293,1,2,0,2,0,1,,,,,,,,,,,,,
65cd164122345f20629bede9,TCR,2024-06-24_16h34.15.245,LearnStrategy,2023.2.3,MacIntel,59.88023952,7,1,4,0.012313179,0.003417969,1,0,0,1.1481,rock_grid_rect_2,4,13,-1,-1,1.148,0.369832711,-0.264780061,1,0,0,2.1923,Gabbro_rect,4,2.192,1,3,0,3,0,1,,,,,,,,,,,,,
65cd164122345f20629bede9,TCR,2024-06-24_16h34.15.245,LearnStrategy,2023.2.3,MacIntel,59.88023952,7,1,5,0.005180027,-0.008122452,1,0,0,1.1301,rock_grid_rect_2,3,02,-1,-1,1.13,0.128222656,-0.249910836,1,0,0,1.3918,Diorite_rect,3,1.392,1,4,0,4,0,1,,,,,,,,,,,,,
65cd164122345f20629bede9,TCR,2024-06-24_16h34.15.245,LearnStrategy,2023.2.3,MacIntel,59.88023952,7,1,6,0.036672045,-0.009481148,1,0,0,1.3982,rock_grid_rect_2,6,05,-1,-1,1.398,-0.104874321,-0.399405571,1,0,0,1.959,Pegmatite_rect,6,1.959,1,5,0,5,0,1,,,,,,,,,,,,,
65cd164122345f20629bede9,TCR,2024-06-24_16h34.15.245,LearnStrategy,2023.2.3,MacIntel,59.88023952,7,1,7,0.038336447,0.004271399,1,0,0,1.0979,rock_grid_rect_2,8,10,-1,-1,1.098,0.427471128,-0.415136719,1,0,0,1.8754,Pumice_rect,8,1.875,1,6,0,6,0,1,,,,,,,,,,,,,
65cd164122345f20629bede9,TCR,2024-06-24_16h34.15.245,LearnStrategy,2023.2.3,MacIntel,59.88023952,7,1,8,-0.036820652,-0.016707711,1,0,0,1.1648,rock_grid_rect_2,5,07,-1,-1,1.165,-0.410122283,-0.413472317,1,0,0,1.7256,Obsidian_rect,5,1.726,1,7,0,7,0,1,,,,,,,,,,,,,
65cd164122345f20629bede9,TCR,2024-06-24_16h34.15.245,LearnStrategy,2023.2.3,MacIntel,59.88023952,7,1,9,-0.020456861,-0.01236413,1,0,0,1.1978,rock_grid_rect_2,6,08,-1,-1,1.198,-0.122957711,-0.39841627,1,0,0,1.6914,Pegmatite_rect,6,1.691,1,8,0,8,0,1,,,,,,,,,,,,,
65cd164122345f20629bede9,TCR,2024-06-24_16h34.15.245,LearnStrategy,2023.2.3,MacIntel,59.88023952,7,1,10,-0.00638587,0.005337126,1,0,0,1.1977,rock_grid_rect_2,4,15,-1,-1,1.198,-0.363744056,-0.244136379,1,0,0,1.8755,Andesite_rect,1,1.875,0,9,0,9,0,1,,,,,,,,,,,,,
65cd164122345f20629bede9,TCR,2024-06-24_16h34.15.245,LearnStrategy,2023.2.3,MacIntel,59.88023952,7,1,11,0.043410326,-0.022847317,1,0,0,1.1477,rock_grid_rect_2,1,14,-1,-1,1.148,0.399282439,-0.260487432,1,0,0,2.2261,Gabbro_rect,4,2.226,0,10,0,10,0,1,,,,,,,,,,,,,
65cd164122345f20629bede9,TCR,2024-06-24_16h34.15.245,LearnStrategy,2023.2.3,MacIntel,59.88023952,7,1,12,-0.054806386,-0.003163213,1,0,0,1.3313,rock_grid_rect_2,4,08,-1,-1,1.331,0.424278193,-0.258232846,1,0,0,2.4424,Gabbro_rect,4,2.442,1,11,0,11,0,1,,,,,,,,,,,,,
65cd164122345f20629bede9,TCR,2024-06-24_16h34.15.245,LearnStrategy,2023.2.3,MacIntel,59.88023952,7,1,13,-0.039024287,0.003829823,1,0,0,0.9137,rock_grid_rect_2,7,12,-1,-1,0.914,0.389474355,-0.246356997,1,0,0,3.7584,Gabbro_rect,4,3.758,0,12,0,12,0,1,,,,,,,,,,,,,
65cd164122345f20629bede9,TCR,2024-06-24_16h34.15.245,LearnStrategy,2023.2.3,MacIntel,59.88023952,7,1,14,-0.016784137,-0.003362772,1,0,0,1.3966,rock_grid_rect_2,4,05,-1,-1,1.397,0.100624151,-0.400225034,1,0,0,2.1756,Peridotite_rect,7,2.176,0,13,0,13,0,1,,,,,,,,,,,,,
65cd164122345f20629bede9,TCR,2024-06-24_16h34.15.245,LearnStrategy,2023.2.3,MacIntel,59.88023952,7,1,15,0.034302819,0.001435122,1,0,0,1.3143,rock_grid_rect_2,7,14,-1,-1,1.314,0.401486073,-0.267030401,1,0,0,3.1247,Gabbro_rect,4,3.125,0,14,0,14,0,1,,,,,,,,,,,,,
65cd164122345f20629bede9,TCR,2024-06-24_16h34.15.245,LearnStrategy,2023.2.3,MacIntel,59.88023952,7,1,16,0.035279382,0.009400476,1,0,0,1.0653,rock_grid_rect_2,7,14,-1,-1,1.065,0.124146569,-0.417917799,1,0,0,2.0592,Peridotite_rect,7,2.059,1,15,0,15,0,1,,,,,,,,,,,,,
65cd164122345f20629bede9,TCR,2024-06-24_16h34.15.245,LearnStrategy,2023.2.3,MacIntel,59.88023952,7,2,1,,,,,,,,8,08,,,,,,,,,,,8,1.474,1,,,,,,0.377271569,-0.411795177,1,0,0,1.4743,Pumice_rect,0,0,0,0,1,
65cd164122345f20629bede9,TCR,2024-06-24_16h34.15.245,LearnStrategy,2023.2.3,MacIntel,59.88023952,7,2,2,,,,,,,,7,05,,,,,,,,,,,4,2.607,0,,,,,,0.355914572,-0.266813859,1,0,0,2.6074,Gabbro_rect,1,0,1,0,1,
65cd164122345f20629bede9,TCR,2024-06-24_16h34.15.245,LearnStrategy,2023.2.3,MacIntel,59.88023952,7,2,3,,,,,,,,6,03,,,,,,,,,,,6,1.674,1,,,,,,-0.120567255,-0.41484375,1,0,0,1.6743,Pegmatite_rect,2,0,2,0,1,
65cd164122345f20629bede9,TCR,2024-06-24_16h34.15.245,LearnStrategy,2023.2.3,MacIntel,59.88023952,7,2,4,,,,,,,,1,06,,,,,,,,,,,1,1.559,1,,,,,,-0.376481827,-0.251439368,1,0,0,1.5587,Andesite_rect,3,0,3,0,1,
65cd164122345f20629bede9,TCR,2024-06-24_16h34.15.245,LearnStrategy,2023.2.3,MacIntel,59.88023952,7,2,5,,,,,,,,3,09,,,,,,,,,,,3,1.025,1,,,,,,0.142179008,-0.257455842,1,0,0,1.0249,Diorite_rect,4,0,4,0,1,
65cd164122345f20629bede9,TCR,2024-06-24_16h34.15.245,LearnStrategy,2023.2.3,MacIntel,59.88023952,7,2,6,,,,,,,,5,14,,,,,,,,,,,2,2.592,0,,,,,,-0.121064029,-0.252623981,1,0,0,2.5922,Basalt_rect,5,0,5,0,1,
65cd164122345f20629bede9,TCR,2024-06-24_16h34.15.245,LearnStrategy,2023.2.3,MacIntel,59.88023952,7,2,7,,,,,,,,5,02,,,,,,,,,,,5,1.224,1,,,,,,-0.359574558,-0.409455673,1,0,0,1.2244,Obsidian_rect,6,0,6,0,1,
65cd164122345f20629bede9,TCR,2024-06-24_16h34.15.245,LearnStrategy,2023.2.3,MacIntel,59.88023952,7,2,8,,,,,,,,4,09,,,,,,,,,,,1,1.991,0,,,,,,-0.396373981,-0.24533373,1,0,0,1.9914,Andesite_rect,7,0,7,0,1,
65cd164122345f20629bede9,TCR,2024-06-24_16h34.15.245,LearnStrategy,2023.2.3,MacIntel,59.88023952,7,2,9,,,,,,,,1,07,,,,,,,,,,,1,2.559,1,,,,,,-0.365769361,-0.246424932,1,0,0,2.5589,Andesite_rect,8,0,8,0,1,
65cd164122345f20629bede9,TCR,2024-06-24_16h34.15.245,LearnStrategy,2023.2.3,MacIntel,59.88023952,7,2,10,,,,,,,,8,03,,,,,,,,,,,8,2.276,1,,,,,,0.346662704,-0.399626359,1,0,0,2.276,Pumice_rect,9,0,9,0,1,
65cd164122345f20629bede9,TCR,2024-06-24_16h34.15.245,LearnStrategy,2023.2.3,MacIntel,59.88023952,7,2,11,,,,,,,,3,10,,,,,,,,,,,4,1.268,0,,,,,,0.355320143,-0.24407269,1,0,0,1.2677,Gabbro_rect,10,0,10,0,1,
65cd164122345f20629bede9,TCR,2024-06-24_16h34.15.245,LearnStrategy,2023.2.3,MacIntel,59.88023952,7,2,12,,,,,,,,4,12,,,,,,,,,,,1,1.824,0,,,,,,-0.361196501,-0.248161515,1,0,0,1.8244,Andesite_rect,11,0,11,0,1,
65cd164122345f20629bede9,TCR,2024-06-24_16h34.15.245,LearnStrategy,2023.2.3,MacIntel,59.88023952,7,2,13,,,,,,,,2,04,,,,,,,,,,,2,1.192,1,,,,,,-0.09195822,-0.253286345,1,0,0,1.1919,Basalt_rect,12,0,12,0,1,
65cd164122345f20629bede9,TCR,2024-06-24_16h34.15.245,LearnStrategy,2023.2.3,MacIntel,59.88023952,7,2,14,,,,,,,,6,16,,,,,,,,,,,6,1.741,1,,,,,,-0.108920686,-0.406080163,1,0,0,1.7414,Pegmatite_rect,13,0,13,0,1,
65cd164122345f20629bede9,TCR,2024-06-24_16h34.15.245,LearnStrategy,2023.2.3,MacIntel,59.88023952,7,2,15,,,,,,,,2,16,,,,,,,,,,,2,1.508,1,,,,,,-0.120380435,-0.24232337,1,0,0,1.5083,Basalt_rect,14,0,14,0,1,
65cd164122345f20629bede9,TCR,2024-06-24_16h34.15.245,LearnStrategy,2023.2.3,MacIntel,59.88023952,7,2,16,,,,,,,,7,10,,,,,,,,,,,4,1.458,0,,,,,,0.398819633,-0.269051461,1,0,0,1.458,Gabbro_rect,15,0,15,0,1,
65cd164122345f20629bede9,TCR,2024-06-24_16h34.15.245,LearnStrategy,2023.2.3,MacIntel,59.88023952,8,1,1,-0.003473166,-0.009578804,1,0,0,1.613,rock_grid_rect_2,8,14,-1,-1,1.613,0.395579993,-0.40199983,1,0,0,1.546,Pumice_rect,8,1.546,1,0,0,0,0,1,,,,,,,,,,,,,
65cd164122345f20629bede9,TCR,2024-06-24_16h34.15.245,LearnStrategy,2023.2.3,MacIntel,59.88023952,8,1,2,0.081033458,-0.01419837,1,0,0,1.1319,rock_grid_rect_2,5,08,-1,-1,1.132,-0.362903363,-0.396259341,1,0,0,1.3586,Obsidian_rect,5,1.359,1,1,0,1,0,1,,,,,,,,,,,,,
65cd164122345f20629bede9,TCR,2024-06-24_16h34.15.245,LearnStrategy,2023.2.3,MacIntel,59.88023952,8,1,3,0.004691746,0.006840183,1,0,0,0.9806,rock_grid_rect_2,7,12,-1,-1,0.981,0.363238791,-0.259578804,1,0,0,2.3643,Gabbro_rect,4,2.364,0,2,0,2,0,1,,,,,,,,,,,,,
65cd164122345f20629bede9,TCR,2024-06-24_16h34.15.245,LearnStrategy,2023.2.3,MacIntel,59.88023952,8,1,4,0.043665082,-0.005281929,1,0,0,1.3469,rock_grid_rect_2,7,16,-1,-1,1.347,0.096785836,-0.405515455,1,0,0,1.8423,Peridotite_rect,7,1.842,1,3,0,3,0,1,,,,,,,,,,,,,
65cd164122345f20629bede9,TCR,2024-06-24_16h34.15.245,LearnStrategy,2023.2.3,MacIntel,59.88023952,8,1,5,0.00199983,0.006199049,1,0,0,0.9815,rock_grid_rect_2,3,14,-1,-1,0.981,0.170486583,-0.243418818,1,0,0,1.1259,Diorite_rect,3,1.126,1,4,0,4,0,1,,,,,,,,,,,,,
65cd164122345f20629bede9,TCR,2024-06-24_16h34.15.245,LearnStrategy,2023.2.3,MacIntel,59.88023952,8,1,6,-0.02389606,-0.01693699,1,0,0,1.0147,rock_grid_rect_2,5,04,-1,-1,1.015,-0.369153363,-0.417888077,1,0,0,1.5588,Obsidian_rect,5,1.559,1,5,0,5,0,1,,,,,,,,,,,,,
65cd164122345f20629bede9,TCR,2024-06-24_16h34.15.245,LearnStrategy,2023.2.3,MacIntel,59.88023952,8,1,7,-0.017238451,-0.002407439,1,0,0,1.2311,rock_grid_rect_2,4,01,-1,-1,1.231,0.415608016,-0.247214674,1,0,0,2.4582,Gabbro_rect,4,2.458,1,6,0,6,0,1,,,,,,,,,,,,,
65cd164122345f20629bede9,TCR,2024-06-24_16h34.15.245,LearnStrategy,2023.2.3,MacIntel,59.88023952,8,1,8,-0.008181895,0.008704144,1,0,0,0.9477,rock_grid_rect_2,1,14,-1,-1,0.948,-0.4052607,-0.243113111,1,0,0,2.2919,Andesite_rect,1,2.292,1,7,0,7,0,1,,,,,,,,,,,,,
65cd164122345f20629bede9,TCR,2024-06-24_16h34.15.245,LearnStrategy,2023.2.3,MacIntel,59.88023952,8,1,9,-0.014206861,-0.016444463,1,0,0,1.2987,rock_grid_rect_2,3,02,-1,-1,1.299,0.143418818,-0.233640455,1,0,0,1.2917,Diorite_rect,3,1.292,1,8,0,8,0,1,,,,,,,,,,,,,
65cd164122345f20629bede9,TCR,2024-06-24_16h34.15.245,LearnStrategy,2023.2.3,MacIntel,59.88023952,8,1,10,-0.031067425,-0.016741678,1,0,0,0.9818,rock_grid_rect_2,6,09,-1,-1,0.982,-0.140421196,-0.403566576,1,0,0,2.0097,Pegmatite_rect,6,2.01,1,9,0,9,0,1,,,,,,,,,,,,,
65cd164122345f20629bede9,TCR,2024-06-24_16h34.15.245,LearnStrategy,2023.2.3,MacIntel,59.88023952,8,1,11,-0.06978176,0.008262568,1,0,0,0.93,rock_grid_rect_2,2,10,-1,-1,0.93,-0.120227582,-0.250140115,1,0,0,1.2425,Basalt_rect,2,1.242,1,10,0,10,0,1,,,,,,,,,,,,,
65cd164122345f20629bede9,TCR,2024-06-24_16h34.15.245,LearnStrategy,2023.2.3,MacIntel,59.88023952,8,1,12,-0.059213655,0.001328974,1,0,0,1.0148,rock_grid_rect_2,4,13,-1,-1,1.015,0.31886464,-0.237304688,1,0,0,1.6756,Gabbro_rect,4,1.676,1,11,0,11,0,1,,,,,,,,,,,,,
65cd164122345f20629bede9,TCR,2024-06-24_16h34.15.245,LearnStrategy,2023.2.3,MacIntel,59.88023952,8,1,13,-0.017382813,-0.003957201,1,0,0,1.1312,rock_grid_rect_2,4,01,-1,-1,1.131,-0.350305707,-0.246238111,1,0,0,2.1423,Andesite_rect,1,2.142,0,12,0,12,0,1,,,,,,,,,,,,,
65cd164122345f20629bede9,TCR,2024-06-24_16h34.15.245,LearnStrategy,2023.2.3,MacIntel,59.88023952,8,1,14,0.054071841,0.014847996,1,0,0,1.263,rock_grid_rect_2,4,13,-1,-1,1.263,0.370686141,-0.228158967,1,0,0,1.0589,Gabbro_rect,4,1.059,1,13,0,13,0,1,,,,,,,,,,,,,
65cd164122345f20629bede9,TCR,2024-06-24_16h34.15.245,LearnStrategy,2023.2.3,MacIntel,59.88023952,8,1,15,-0.002980639,-0.005668308,1,0,0,0.8643,rock_grid_rect_2,7,04,-1,-1,0.864,0.121807065,-0.394824219,1,0,0,1.6089,Peridotite_rect,7,1.609,1,14,0,14,0,1,,,,,,,,,,,,,
65cd164122345f20629bede9,TCR,2024-06-24_16h34.15.245,LearnStrategy,2023.2.3,MacIntel,59.88023952,8,1,16,-0.011905571,0.004725713,1,0,0,0.9495,rock_grid_rect_2,7,12,-1,-1,0.95,0.389720618,-0.255349864,1,0,0,2.1754,Gabbro_rect,4,2.175,0,15,0,15,0,1,,,,,,,,,,,,,
65cd164122345f20629bede9,TCR,2024-06-24_16h34.15.245,LearnStrategy,2023.2.3,MacIntel,59.88023952,8,2,1,,,,,,,,6,12,,,,,,,,,,,3,1.641,0,,,,,,0.122961957,-0.260657269,1,0,0,1.6415,Diorite_rect,0,0,0,0,1,
65cd164122345f20629bede9,TCR,2024-06-24_16h34.15.245,LearnStrategy,2023.2.3,MacIntel,59.88023952,8,2,2,,,,,,,,7,15,,,,,,,,,,,7,4.268,1,,,,,,0.155596128,-0.402564538,1,0,0,4.2681,Peridotite_rect,1,0,1,0,1,
65cd164122345f20629bede9,TCR,2024-06-24_16h34.15.245,LearnStrategy,2023.2.3,MacIntel,59.88023952,8,2,3,,,,,,,,8,04,,,,,,,,,,,8,1.334,1,,,,,,0.413637908,-0.408109715,1,0,0,1.3342,Pumice_rect,2,0,2,0,1,
65cd164122345f20629bede9,TCR,2024-06-24_16h34.15.245,LearnStrategy,2023.2.3,MacIntel,59.88023952,8,2,4,,,,,,,,2,12,,,,,,,,,,,1,1.407,0,,,,,,-0.395626698,-0.239597486,1,0,0,1.4074,Andesite_rect,3,0,3,0,1,
65cd164122345f20629bede9,TCR,2024-06-24_16h34.15.245,LearnStrategy,2023.2.3,MacIntel,59.88023952,8,2,5,,,,,,,,1,01,,,,,,,,,,,4,1.393,0,,,,,,0.35268767,-0.25144786,1,0,0,1.3928,Gabbro_rect,4,0,4,0,1,
65cd164122345f20629bede9,TCR,2024-06-24_16h34.15.245,LearnStrategy,2023.2.3,MacIntel,59.88023952,8,2,6,,,,,,,,4,10,,,,,,,,,,,4,1.775,1,,,,,,0.342200238,-0.259115999,1,0,0,1.7749,Gabbro_rect,5,0,5,0,1,
65cd164122345f20629bede9,TCR,2024-06-24_16h34.15.245,LearnStrategy,2023.2.3,MacIntel,59.88023952,8,2,7,,,,,,,,1,05,,,,,,,,,,,1,1.563,1,,,,,,-0.341784137,-0.255634341,1,0,0,1.5625,Andesite_rect,6,0,6,0,1,
65cd164122345f20629bede9,TCR,2024-06-24_16h34.15.245,LearnStrategy,2023.2.3,MacIntel,59.88023952,8,2,8,,,,,,,,6,06,,,,,,,,,,,7,2.609,0,,,,,,0.12922894,-0.394348675,1,0,0,2.6086,Peridotite_rect,7,0,7,0,1,
65cd164122345f20629bede9,TCR,2024-06-24_16h34.15.245,LearnStrategy,2023.2.3,MacIntel,59.88023952,8,2,9,,,,,,,,4,16,,,,,,,,,,,2,1.041,0,,,,,,-0.1177607,-0.263918139,1,0,0,1.0414,Basalt_rect,8,0,8,0,1,
65cd164122345f20629bede9,TCR,2024-06-24_16h34.15.245,LearnStrategy,2023.2.3,MacIntel,59.88023952,8,2,10,,,,,,,,3,15,,,,,,,,,,,1,2.726,0,,,,,,-0.374600883,-0.25928159,1,0,0,2.7256,Andesite_rect,9,0,9,0,1,
65cd164122345f20629bede9,TCR,2024-06-24_16h34.15.245,LearnStrategy,2023.2.3,MacIntel,59.88023952,8,2,11,,,,,,,,5,06,,,,,,,,,,,5,2.122,1,,,,,,-0.378706692,-0.39974949,1,0,0,2.1215,Obsidian_rect,10,0,10,0,1,
65cd164122345f20629bede9,TCR,2024-06-24_16h34.15.245,LearnStrategy,2023.2.3,MacIntel,59.88023952,8,2,12,,,,,,,,5,09,,,,,,,,,,,5,1.325,1,,,,,,-0.385118037,-0.410805876,1,0,0,1.3249,Obsidian_rect,11,0,11,0,1,
65cd164122345f20629bede9,TCR,2024-06-24_16h34.15.245,LearnStrategy,2023.2.3,MacIntel,59.88023952,8,2,13,,,,,,,,3,08,,,,,,,,,,,3,1.125,1,,,,,,0.098590353,-0.24855214,1,0,0,1.125,Diorite_rect,12,0,12,0,1,
65cd164122345f20629bede9,TCR,2024-06-24_16h34.15.245,LearnStrategy,2023.2.3,MacIntel,59.88023952,8,2,14,,,,,,,,2,06,,,,,,,,,,,2,1.491,1,,,,,,-0.104657779,-0.26236413,1,0,0,1.4906,Basalt_rect,13,0,13,0,1,
65cd164122345f20629bede9,TCR,2024-06-24_16h34.15.245,LearnStrategy,2023.2.3,MacIntel,59.88023952,8,2,15,,,,,,,,8,02,,,,,,,,,,,8,1.608,1,,,,,,0.352568784,-0.402088995,1,0,0,1.6082,Pumice_rect,14,0,14,0,1,
65cd164122345f20629bede9,TCR,2024-06-24_16h34.15.245,LearnStrategy,2023.2.3,MacIntel,59.88023952,8,2,16,,,,,,,,7,02,,,,,,,,,,,4,1.878,0,,,,,,0.373794158,-0.239720618,1,0,0,1.878,Gabbro_rect,15,0,15,0,1,
65cd164122345f20629bede9,TCR,2024-06-24_16h34.15.245,LearnStrategy,2023.2.3,MacIntel,59.88023952,9,1,1,-0.004054857,-0.001345958,1,0,0,1.0153,rock_grid_rect_2,3,11,-1,-1,1.015,0.088162364,-0.260580842,1,0,0,1.2737,Diorite_rect,3,1.274,1,0,0,0,0,1,,,,,,,,,,,,,
65cd164122345f20629bede9,TCR,2024-06-24_16h34.15.245,LearnStrategy,2023.2.3,MacIntel,59.88023952,9,1,2,0.031776495,-0.021488621,1,0,0,0.9836,rock_grid_rect_2,4,15,-1,-1,0.984,0.367344599,-0.259574558,1,0,0,1.2785,Gabbro_rect,4,1.278,1,1,0,1,0,1,,,,,,,,,,,,,
65cd164122345f20629bede9,TCR,2024-06-24_16h34.15.245,LearnStrategy,2023.2.3,MacIntel,59.88023952,9,1,3,0.0036982,-0.005566406,1,0,0,0.8478,rock_grid_rect_2,7,04,-1,-1,0.848,0.143890115,-0.387818444,1,0,0,1.2757,Peridotite_rect,7,1.276,1,2,0,2,0,1,,,,,,,,,,,,,
65cd164122345f20629bede9,TCR,2024-06-24_16h34.15.245,LearnStrategy,2023.2.3,MacIntel,59.88023952,9,1,4,-0.023479959,-0.008283798,1,0,0,1.0824,rock_grid_rect_2,5,07,-1,-1,1.082,-0.358215863,-0.38513502,1,0,0,1.3089,Obsidian_rect,5,1.309,1,3,0,3,0,1,,,,,,,,,,,,,
65cd164122345f20629bede9,TCR,2024-06-24_16h34.15.245,LearnStrategy,2023.2.3,MacIntel,59.88023952,9,1,5,0.013476563,-0.010568105,1,0,0,1.266,rock_grid_rect_2,2,08,-1,-1,1.266,-0.105039912,-0.234634001,1,0,0,1.1938,Basalt_rect,2,1.194,1,4,0,4,0,1,,,,,,,,,,,,,
65cd164122345f20629bede9,TCR,2024-06-24_16h34.15.245,LearnStrategy,2023.2.3,MacIntel,59.88023952,9,1,6,0.00211447,-0.01548913,1,0,0,1.7148,rock_grid_rect_2,4,15,-1,-1,1.715,0.374108356,-0.251753567,1,0,0,1.2778,Gabbro_rect,4,1.278,1,5,0,5,0,1,,,,,,,,,,,,,
65cd164122345f20629bede9,TCR,2024-06-24_16h34.15.245,LearnStrategy,2023.2.3,MacIntel,59.88023952,9,1,7,-0.057918648,-0.00569803,1,0,0,1.1479,rock_grid_rect_2,3,14,-1,-1,1.148,0.099745245,-0.258907948,1,0,0,1.7592,Diorite_rect,3,1.759,1,6,0,6,0,1,,,,,,,,,,,,,
65cd164122345f20629bede9,TCR,2024-06-24_16h34.15.245,LearnStrategy,2023.2.3,MacIntel,59.88023952,9,1,8,-0.032536515,-0.024940557,1,0,0,1.0815,rock_grid_rect_2,1,16,-1,-1,1.082,-0.380727751,-0.258147928,1,0,0,2.1093,Andesite_rect,1,2.109,1,7,0,7,0,1,,,,,,,,,,,,,
65cd164122345f20629bede9,TCR,2024-06-24_16h34.15.245,LearnStrategy,2023.2.3,MacIntel,59.88023952,9,1,9,0.046722147,0.002564538,1,0,0,0.998,rock_grid_rect_2,7,08,-1,-1,0.998,0.398547894,-0.249626359,1,0,0,1.8267,Gabbro_rect,4,1.827,0,8,0,8,0,1,,,,,,,,,,,,,
65cd164122345f20629bede9,TCR,2024-06-24_16h34.15.245,LearnStrategy,2023.2.3,MacIntel,59.88023952,9,1,10,0.039389436,-0.006347656,1,0,0,0.9645,rock_grid_rect_2,2,01,-1,-1,0.965,-0.108130944,-0.238200577,1,0,0,1.0602,Basalt_rect,2,1.06,1,9,0,9,0,1,,,,,,,,,,,,,
65cd164122345f20629bede9,TCR,2024-06-24_16h34.15.245,LearnStrategy,2023.2.3,MacIntel,59.88023952,9,1,11,-0.007022758,-0.008177649,1,0,0,1.4312,rock_grid_rect_2,7,08,-1,-1,1.431,0.104415761,-0.401244056,1,0,0,1.7244,Peridotite_rect,7,1.724,1,10,0,10,0,1,,,,,,,,,,,,,
65cd164122345f20629bede9,TCR,2024-06-24_16h34.15.245,LearnStrategy,2023.2.3,MacIntel,59.88023952,9,1,12,-0.00891644,-0.02277089,1,0,0,1.0833,rock_grid_rect_2,6,11,-1,-1,1.083,-0.118181046,-0.416435971,1,0,0,1.9749,Pegmatite_rect,6,1.975,1,11,0,11,0,1,,,,,,,,,,,,,
65cd164122345f20629bede9,TCR,2024-06-24_16h34.15.245,LearnStrategy,2023.2.3,MacIntel,59.88023952,9,1,13,0.02835428,-0.011001189,1,0,0,1.1636,rock_grid_rect_2,6,15,-1,-1,1.164,-0.075789742,-0.405557914,1,0,0,1.5417,Pegmatite_rect,6,1.542,1,12,0,12,0,1,,,,,,,,,,,,,
65cd164122345f20629bede9,TCR,2024-06-24_16h34.15.245,LearnStrategy,2023.2.3,MacIntel,59.88023952,9,1,14,-0.032387908,-0.014559273,1,0,0,0.9807,rock_grid_rect_2,8,06,-1,-1,0.981,0.387283458,-0.418151325,1,0,0,1.2771,Pumice_rect,8,1.277,1,13,0,13,0,1,,,,,,,,,,,,,
65cd164122345f20629bede9,TCR,2024-06-24_16h34.15.245,LearnStrategy,2023.2.3,MacIntel,59.88023952,9,1,15,-0.034056556,0.006653363,1,0,0,1.1643,rock_grid_rect_2,1,11,-1,-1,1.164,-0.394013247,-0.256674592,1,0,0,1.3132,Andesite_rect,1,1.313,1,14,0,14,0,1,,,,,,,,,,,,,
65cd164122345f20629bede9,TCR,2024-06-24_16h34.15.245,LearnStrategy,2023.2.3,MacIntel,59.88023952,9,1,16,-0.027734375,0.008941916,1,0,0,1.3981,rock_grid_rect_2,4,08,-1,-1,1.398,0.408882473,-0.256666101,1,0,0,2.3758,Gabbro_rect,4,2.376,1,15,0,15,0,1,,,,,,,,,,,,,
65cd164122345f20629bede9,TCR,2024-06-24_16h34.15.245,LearnStrategy,2023.2.3,MacIntel,59.88023952,9,2,1,,,,,,,,4,11,,,,,,,,,,,1,1.542,0,,,,,,-0.394696841,-0.250594429,1,0,0,1.5419,Andesite_rect,0,0,0,0,1,
65cd164122345f20629bede9,TCR,2024-06-24_16h34.15.245,LearnStrategy,2023.2.3,MacIntel,59.88023952,9,2,2,,,,,,,,7,06,,,,,,,,,,,7,3.76,1,,,,,,0.143915591,-0.393580163,1,0,0,3.7597,Peridotite_rect,1,0,1,0,1,
65cd164122345f20629bede9,TCR,2024-06-24_16h34.15.245,LearnStrategy,2023.2.3,MacIntel,59.88023952,9,2,3,,,,,,,,1,02,,,,,,,,,,,1,4.733,1,,,,,,-0.438459579,-0.265179178,1,0,0,4.7333,Andesite_rect,2,0,2,0,1,
65cd164122345f20629bede9,TCR,2024-06-24_16h34.15.245,LearnStrategy,2023.2.3,MacIntel,59.88023952,9,2,4,,,,,,,,8,15,,,,,,,,,,,8,1.267,1,,,,,,0.358139436,-0.40321841,1,0,0,1.2666,Pumice_rect,3,0,3,0,1,
65cd164122345f20629bede9,TCR,2024-06-24_16h34.15.245,LearnStrategy,2023.2.3,MacIntel,59.88023952,9,2,5,,,,,,,,2,05,,,,,,,,,,,2,1.158,1,,,,,,-0.090845788,-0.253086787,1,0,0,1.1581,Basalt_rect,4,0,4,0,1,
65cd164122345f20629bede9,TCR,2024-06-24_16h34.15.245,LearnStrategy,2023.2.3,MacIntel,59.88023952,9,2,6,,,,,,,,4,14,,,,,,,,,,,4,4.758,1,,,,,,0.406203295,-0.257986583,1,0,0,4.7585,Gabbro_rect,5,0,5,0,1,
65cd164122345f20629bede9,TCR,2024-06-24_16h34.15.245,LearnStrategy,2023.2.3,MacIntel,59.88023952,9,2,7,,,,,,,,6,13,,,,,,,,,,,6,1.4,1,,,,,,-0.091117527,-0.404725713,1,0,0,1.4005,Pegmatite_rect,6,0,6,0,1,
65cd164122345f20629bede9,TCR,2024-06-24_16h34.15.245,LearnStrategy,2023.2.3,MacIntel,59.88023952,9,2,8,,,,,,,,2,11,,,,,,,,,,,1,2.692,0,,,,,,-0.334825068,-0.253838315,1,0,0,2.6916,Andesite_rect,7,0,7,0,1,
65cd164122345f20629bede9,TCR,2024-06-24_16h34.15.245,LearnStrategy,2023.2.3,MacIntel,59.88023952,9,2,9,,,,,,,,5,11,,,,,,,,,,,5,1.135,1,,,,,,-0.353006114,-0.408674423,1,0,0,1.1346,Obsidian_rect,8,0,8,0,1,
65cd164122345f20629bede9,TCR,2024-06-24_16h34.15.245,LearnStrategy,2023.2.3,MacIntel,59.88023952,9,2,10,,,,,,,,3,07,,,,,,,,,,,3,1.143,1,,,,,,0.145032269,-0.260720958,1,0,0,1.1428,Diorite_rect,9,0,9,0,1,
65cd164122345f20629bede9,TCR,2024-06-24_16h34.15.245,LearnStrategy,2023.2.3,MacIntel,59.88023952,9,2,11,,,,,,,,1,03,,,,,,,,,,,2,0.926,0,,,,,,-0.102420177,-0.242939029,1,0,0,0.9262,Basalt_rect,10,0,10,0,1,
65cd164122345f20629bede9,TCR,2024-06-24_16h34.15.245,LearnStrategy,2023.2.3,MacIntel,59.88023952,9,2,12,,,,,,,,8,13,,,,,,,,,,,8,1.212,1,,,,,,0.377288553,-0.417259681,1,0,0,1.212,Pumice_rect,11,0,11,0,1,
65cd164122345f20629bede9,TCR,2024-06-24_16h34.15.245,LearnStrategy,2023.2.3,MacIntel,59.88023952,9,2,13,,,,,,,,6,10,,,,,,,,,,,6,1.608,1,,,,,,-0.093070652,-0.41061481,1,0,0,1.6083,Pegmatite_rect,12,0,12,0,1,
65cd164122345f20629bede9,TCR,2024-06-24_16h34.15.245,LearnStrategy,2023.2.3,MacIntel,59.88023952,9,2,14,,,,,,,,5,05,,,,,,,,,,,5,1.676,1,,,,,,-0.420410156,-0.4125,1,0,0,1.6756,Obsidian_rect,13,0,13,0,1,
65cd164122345f20629bede9,TCR,2024-06-24_16h34.15.245,LearnStrategy,2023.2.3,MacIntel,59.88023952,9,2,15,,,,,,,,3,13,,,,,,,,,,,3,3.526,1,,,,,,0.145465353,-0.26024966,1,0,0,3.5262,Diorite_rect,14,0,14,0,1,
65cd164122345f20629bede9,TCR,2024-06-24_16h34.15.245,LearnStrategy,2023.2.3,MacIntel,59.88023952,9,2,16,,,,,,,,7,07,,,,,,,,,,,4,1.302,0,,,,,,0.40020805,-0.255014436,1,0,0,1.3024,Gabbro_rect,15,0,15,0,1,
65cd164122345f20629bede9,TCR,2024-06-24_16h34.15.245,LearnStrategy,2023.2.3,MacIntel,59.88023952,,,,,,,,,,,,,,,,,,,,,,,,,,,,,,,,,,,,,,,,,,,0
65cd164122345f20629bede9,TCR,2024-06-24_16h34.15.245,LearnStrategy,2023.2.3,MacIntel,59.88023952,,,,,,,,,,,,,,,,,,,,,,,,,,,,,,,,,,,,,,,,,,,
65cd164122345f20629bede9,TCR,2024-06-24_16h34.15.245,LearnStrategy,2023.2.3,MacIntel,59.88023952,,,,,,,,,,,5,07,1,1,,,,,,,,,,,,,,,,,,,,,,,,,,,,,
65cd164122345f20629bede9,TCR,2024-06-24_16h34.15.245,LearnStrategy,2023.2.3,MacIntel,59.88023952,,,,,,,,,,,3,14,1,2,,,,,,,,,,,,,,,,,,,,,,,,,,,,,
65cd164122345f20629bede9,TCR,2024-06-24_16h34.15.245,LearnStrategy,2023.2.3,MacIntel,59.88023952,,,,,,,,,,,8,14,1,3,,,,,,,,,,,,,,,,,,,,,,,,,,,,,
65cd164122345f20629bede9,TCR,2024-06-24_16h34.15.245,LearnStrategy,2023.2.3,MacIntel,59.88023952,,,,,,,,,,,7,12,1,4,,,,,,,,,,,,,,,,,,,,,,,,,,,,,
65cd164122345f20629bede9,TCR,2024-06-24_16h34.15.245,LearnStrategy,2023.2.3,MacIntel,59.88023952,,,,,,,,,,,4,03,1,5,,,,,,,,,,,,,,,,,,,,,,,,,,,,,
65cd164122345f20629bede9,TCR,2024-06-24_16h34.15.245,LearnStrategy,2023.2.3,MacIntel,59.88023952,,,,,,,,,,,2,14,1,6,,,,,,,,,,,,,,,,,,,,,,,,,,,,,
65cd164122345f20629bede9,TCR,2024-06-24_16h34.15.245,LearnStrategy,2023.2.3,MacIntel,59.88023952,,,,,,,,,,,6,08,1,7,,,,,,,,,,,,,,,,,,,,,,,,,,,,,
65cd164122345f20629bede9,TCR,2024-06-24_16h34.15.245,LearnStrategy,2023.2.3,MacIntel,59.88023952,,,,,,,,,,,5,08,1,8,,,,,,,,,,,,,,,,,,,,,,,,,,,,,
65cd164122345f20629bede9,TCR,2024-06-24_16h34.15.245,LearnStrategy,2023.2.3,MacIntel,59.88023952,,,,,,,,,,,6,05,2,1,,,,,,,,,,,,,,,,,,,,,,,,,,,,,
65cd164122345f20629bede9,TCR,2024-06-24_16h34.15.245,LearnStrategy,2023.2.3,MacIntel,59.88023952,,,,,,,,,,,7,04,2,2,,,,,,,,,,,,,,,,,,,,,,,,,,,,,
65cd164122345f20629bede9,TCR,2024-06-24_16h34.15.245,LearnStrategy,2023.2.3,MacIntel,59.88023952,,,,,,,,,,,6,15,2,3,,,,,,,,,,,,,,,,,,,,,,,,,,,,,
65cd164122345f20629bede9,TCR,2024-06-24_16h34.15.245,LearnStrategy,2023.2.3,MacIntel,59.88023952,,,,,,,,,,,5,16,2,4,,,,,,,,,,,,,,,,,,,,,,,,,,,,,
65cd164122345f20629bede9,TCR,2024-06-24_16h34.15.245,LearnStrategy,2023.2.3,MacIntel,59.88023952,,,,,,,,,,,4,08,2,5,,,,,,,,,,,,,,,,,,,,,,,,,,,,,
65cd164122345f20629bede9,TCR,2024-06-24_16h34.15.245,LearnStrategy,2023.2.3,MacIntel,59.88023952,,,,,,,,,,,6,09,2,6,,,,,,,,,,,,,,,,,,,,,,,,,,,,,
65cd164122345f20629bede9,TCR,2024-06-24_16h34.15.245,LearnStrategy,2023.2.3,MacIntel,59.88023952,,,,,,,,,,,5,10,2,7,,,,,,,,,,,,,,,,,,,,,,,,,,,,,
65cd164122345f20629bede9,TCR,2024-06-24_16h34.15.245,LearnStrategy,2023.2.3,MacIntel,59.88023952,,,,,,,,,,,1,11,2,8,,,,,,,,,,,,,,,,,,,,,,,,,,,,,
65cd164122345f20629bede9,TCR,2024-06-24_16h34.15.245,LearnStrategy,2023.2.3,MacIntel,59.88023952,,,,,,,,,,,3,16,3,1,,,,,,,,,,,,,,,,,,,,,,,,,,,,,
65cd164122345f20629bede9,TCR,2024-06-24_16h34.15.245,LearnStrategy,2023.2.3,MacIntel,59.88023952,,,,,,,,,,,1,10,3,2,,,,,,,,,,,,,,,,,,,,,,,,,,,,,
65cd164122345f20629bede9,TCR,2024-06-24_16h34.15.245,LearnStrategy,2023.2.3,MacIntel,59.88023952,,,,,,,,,,,1,16,3,3,,,,,,,,,,,,,,,,,,,,,,,,,,,,,
65cd164122345f20629bede9,TCR,2024-06-24_16h34.15.245,LearnStrategy,2023.2.3,MacIntel,59.88023952,,,,,,,,,,,4,13,3,4,,,,,,,,,,,,,,,,,,,,,,,,,,,,,
65cd164122345f20629bede9,TCR,2024-06-24_16h34.15.245,LearnStrategy,2023.2.3,MacIntel,59.88023952,,,,,,,,,,,5,12,3,5,,,,,,,,,,,,,,,,,,,,,,,,,,,,,
65cd164122345f20629bede9,TCR,2024-06-24_16h34.15.245,LearnStrategy,2023.2.3,MacIntel,59.88023952,,,,,,,,,,,4,05,3,6,,,,,,,,,,,,,,,,,,,,,,,,,,,,,
65cd164122345f20629bede9,TCR,2024-06-24_16h34.15.245,LearnStrategy,2023.2.3,MacIntel,59.88023952,,,,,,,,,,,8,09,3,7,,,,,,,,,,,,,,,,,,,,,,,,,,,,,
65cd164122345f20629bede9,TCR,2024-06-24_16h34.15.245,LearnStrategy,2023.2.3,MacIntel,59.88023952,,,,,,,,,,,3,11,3,8,,,,,,,,,,,,,,,,,,,,,,,,,,,,,
65cd164122345f20629bede9,TCR,2024-06-24_16h34.15.245,LearnStrategy,2023.2.3,MacIntel,59.88023952,,,,,,,,,,,1,14,4,1,,,,,,,,,,,,,,,,,,,,,,,,,,,,,
65cd164122345f20629bede9,TCR,2024-06-24_16h34.15.245,LearnStrategy,2023.2.3,MacIntel,59.88023952,,,,,,,,,,,2,08,4,2,,,,,,,,,,,,,,,,,,,,,,,,,,,,,
65cd164122345f20629bede9,TCR,2024-06-24_16h34.15.245,LearnStrategy,2023.2.3,MacIntel,59.88023952,,,,,,,,,,,3,02,4,3,,,,,,,,,,,,,,,,,,,,,,,,,,,,,
65cd164122345f20629bede9,TCR,2024-06-24_16h34.15.245,LearnStrategy,2023.2.3,MacIntel,59.88023952,,,,,,,,,,,6,07,4,4,,,,,,,,,,,,,,,,,,,,,,,,,,,,,
65cd164122345f20629bede9,TCR,2024-06-24_16h34.15.245,LearnStrategy,2023.2.3,MacIntel,59.88023952,,,,,,,,,,,3,12,4,5,,,,,,,,,,,,,,,,,,,,,,,,,,,,,
65cd164122345f20629bede9,TCR,2024-06-24_16h34.15.245,LearnStrategy,2023.2.3,MacIntel,59.88023952,,,,,,,,,,,4,15,4,6,,,,,,,,,,,,,,,,,,,,,,,,,,,,,
65cd164122345f20629bede9,TCR,2024-06-24_16h34.15.245,LearnStrategy,2023.2.3,MacIntel,59.88023952,,,,,,,,,,,7,16,4,7,,,,,,,,,,,,,,,,,,,,,,,,,,,,,
65cd164122345f20629bede9,TCR,2024-06-24_16h34.15.245,LearnStrategy,2023.2.3,MacIntel,59.88023952,,,,,,,,,,,1,09,4,8,,,,,,,,,,,,,,,,,,,,,,,,,,,,,
65cd164122345f20629bede9,TCR,2024-06-24_16h34.15.245,LearnStrategy,2023.2.3,MacIntel,59.88023952,,,,,,,,,,,2,02,5,1,,,,,,,,,,,,,,,,,,,,,,,,,,,,,
65cd164122345f20629bede9,TCR,2024-06-24_16h34.15.245,LearnStrategy,2023.2.3,MacIntel,59.88023952,,,,,,,,,,,8,05,5,2,,,,,,,,,,,,,,,,,,,,,,,,,,,,,
65cd164122345f20629bede9,TCR,2024-06-24_16h34.15.245,LearnStrategy,2023.2.3,MacIntel,59.88023952,,,,,,,,,,,1,04,5,3,,,,,,,,,,,,,,,,,,,,,,,,,,,,,
65cd164122345f20629bede9,TCR,2024-06-24_16h34.15.245,LearnStrategy,2023.2.3,MacIntel,59.88023952,,,,,,,,,,,8,16,5,4,,,,,,,,,,,,,,,,,,,,,,,,,,,,,
65cd164122345f20629bede9,TCR,2024-06-24_16h34.15.245,LearnStrategy,2023.2.3,MacIntel,59.88023952,,,,,,,,,,,7,13,5,5,,,,,,,,,,,,,,,,,,,,,,,,,,,,,
65cd164122345f20629bede9,TCR,2024-06-24_16h34.15.245,LearnStrategy,2023.2.3,MacIntel,59.88023952,,,,,,,,,,,2,09,5,6,,,,,,,,,,,,,,,,,,,,,,,,,,,,,
65cd164122345f20629bede9,TCR,2024-06-24_16h34.15.245,LearnStrategy,2023.2.3,MacIntel,59.88023952,,,,,,,,,,,3,06,5,7,,,,,,,,,,,,,,,,,,,,,,,,,,,,,
65cd164122345f20629bede9,TCR,2024-06-24_16h34.15.245,LearnStrategy,2023.2.3,MacIntel,59.88023952,,,,,,,,,,,2,01,5,8,,,,,,,,,,,,,,,,,,,,,,,,,,,,,
65cd164122345f20629bede9,TCR,2024-06-24_16h34.15.245,LearnStrategy,2023.2.3,MacIntel,59.88023952,,,,,,,,,,,7,08,6,1,,,,,,,,,,,,,,,,,,,,,,,,,,,,,
65cd164122345f20629bede9,TCR,2024-06-24_16h34.15.245,LearnStrategy,2023.2.3,MacIntel,59.88023952,,,,,,,,,,,6,11,6,2,,,,,,,,,,,,,,,,,,,,,,,,,,,,,
65cd164122345f20629bede9,TCR,2024-06-24_16h34.15.245,LearnStrategy,2023.2.3,MacIntel,59.88023952,,,,,,,,,,,5,04,6,3,,,,,,,,,,,,,,,,,,,,,,,,,,,,,
65cd164122345f20629bede9,TCR,2024-06-24_16h34.15.245,LearnStrategy,2023.2.3,MacIntel,59.88023952,,,,,,,,,,,8,06,6,4,,,,,,,,,,,,,,,,,,,,,,,,,,,,,
65cd164122345f20629bede9,TCR,2024-06-24_16h34.15.245,LearnStrategy,2023.2.3,MacIntel,59.88023952,,,,,,,,,,,2,10,6,5,,,,,,,,,,,,,,,,,,,,,,,,,,,,,
65cd164122345f20629bede9,TCR,2024-06-24_16h34.15.245,LearnStrategy,2023.2.3,MacIntel,59.88023952,,,,,,,,,,,7,14,6,6,,,,,,,,,,,,,,,,,,,,,,,,,,,,,
65cd164122345f20629bede9,TCR,2024-06-24_16h34.15.245,LearnStrategy,2023.2.3,MacIntel,59.88023952,,,,,,,,,,,4,01,6,7,,,,,,,,,,,,,,,,,,,,,,,,,,,,,
65cd164122345f20629bede9,TCR,2024-06-24_16h34.15.245,LearnStrategy,2023.2.3,MacIntel,59.88023952,,,,,,,,,,,8,10,6,8,,,,,,,,,,,,,,,,,,,,,,,,,,,,,