participant,condition,date,expName,psychopyVersion,OS,frameRate,block,phase,trial,learn_mouse_2.x,learn_mouse_2.y,learn_mouse_2.leftButton,learn_mouse_2.midButton,learn_mouse_2.rightButton,learn_mouse_2.time,learn_mouse_2.clicked_name,cat,token,row,col,t_select,cat_mouse_l.x,cat_mouse_l.y,cat_mouse_l.leftButton,cat_mouse_l.midButton,cat_mouse_l.rightButton,cat_mouse_l.time,cat_mouse_l.clicked_name,resp,t_resp,corr,train_trials.thisRepN,train_trials.thisTrialN,train_trials.thisN,train_trials.thisIndex,train_trials.ran,cat_mouse_t.x,cat_mouse_t.y,cat_mouse_t.leftButton,cat_mouse_t.midButton,cat_mouse_t.rightButton,cat_mouse_t.time,cat_mouse_t.clicked_name,test_trials.thisRepN,test_trials.thisTrialN,test_trials.thisN,test_trials.thisIndex,test_trials.ran,Bonus
65d563ecf8df20ade2f17888,TCN,2024-06-25_09h42.23.242,LearnStrategy,2023.2.3,MacIntel,129.8701299,,,,,,,,,,,,,,,,,,,,,,,,,,,,,,,,,,,,,,,,,,,
65d563ecf8df20ade2f17888,TCN,2024-06-25_09h42.23.242,LearnStrategy,2023.2.3,MacIntel,129.8701299,1,1,1,-0.013859954,-0.003133267,1,0,0,2.0726,rock_grid_rect_2,5,07,-1,-1,2.073,0.127054398,-0.243402778,1,0,0,7.9279,Diorite_rect,3,7.928,0,0,0,0,0,1,,,,,,,,,,,,,
65d563ecf8df20ade2f17888,TCN,2024-06-25_09h42.23.242,LearnStrategy,2023.2.3,MacIntel,129.8701299,1,1,2,-0.022176753,-0.001876653,1,0,0,3.5516,rock_grid_rect_2,2,12,-1,-1,3.552,-0.125479497,-0.392745536,1,0,0,4.0934,Pegmatite_rect,6,4.093,0,1,0,1,0,1,,,,,,,,,,,,,
65d563ecf8df20ade2f17888,TCN,2024-06-25_09h42.23.242,LearnStrategy,2023.2.3,MacIntel,129.8701299,1,1,3,-0.005762235,0.002914187,1,0,0,3.6733,rock_grid_rect_2,2,14,-1,-1,3.673,-0.318787202,-0.240740741,1,0,0,2.4416,Andesite_rect,1,2.442,0,2,0,2,0,1,,,,,,,,,,,,,
65d563ecf8df20ade2f17888,TCN,2024-06-25_09h42.23.242,LearnStrategy,2023.2.3,MacIntel,129.8701299,1,1,4,0.018018353,-0.003654101,1,0,0,4.2244,rock_grid_rect_2,5,12,-1,-1,4.224,-0.111578208,-0.41046627,1,0,0,5.5853,Pegmatite_rect,6,5.585,0,3,0,3,0,1,,,,,,,,,,,,,
65d563ecf8df20ade2f17888,TCN,2024-06-25_09h42.23.242,LearnStrategy,2023.2.3,MacIntel,129.8701299,1,1,5,0.003695437,-0.000648975,1,0,0,5.3876,rock_grid_rect_2,8,06,-1,-1,5.388,-0.101248347,-0.235036376,1,0,0,3.52,Basalt_rect,2,3.52,0,4,0,4,0,1,,,,,,,,,,,,,
65d563ecf8df20ade2f17888,TCN,2024-06-25_09h42.23.242,LearnStrategy,2023.2.3,MacIntel,129.8701299,1,1,6,-0.038769015,0.002104001,1,0,0,2.389,rock_grid_rect_2,3,07,-1,-1,2.389,0.114434524,-0.40322834,1,0,0,4.613,Peridotite_rect,7,4.613,0,5,0,5,0,1,,,,,,,,,,,,,
65d563ecf8df20ade2f17888,TCN,2024-06-25_09h42.23.242,LearnStrategy,2023.2.3,MacIntel,129.8701299,1,1,7,0.034494874,0.002004795,1,0,0,2.2046,rock_grid_rect_2,7,14,-1,-1,2.205,0.351273148,-0.256915509,1,0,0,4.2729,Gabbro_rect,4,4.273,0,6,0,6,0,1,,,,,,,,,,,,,
65d563ecf8df20ade2f17888,TCN,2024-06-25_09h42.23.242,LearnStrategy,2023.2.3,MacIntel,129.8701299,1,1,8,0.014244378,0.013760747,1,0,0,1.1969,rock_grid_rect_2,4,12,-1,-1,1.197,-0.119857804,-0.24995453,1,0,0,7.6342,Basalt_rect,2,7.634,0,7,0,7,0,1,,,,,,,,,,,,,
65d563ecf8df20ade2f17888,TCN,2024-06-25_09h42.23.242,LearnStrategy,2023.2.3,MacIntel,129.8701299,1,1,9,-0.007746362,-0.009209656,1,0,0,1.7047,rock_grid_rect_2,7,12,-1,-1,1.705,0.124239418,-0.242369378,1,0,0,5.4267,Diorite_rect,3,5.427,0,8,0,8,0,1,,,,,,,,,,,,,
65d563ecf8df20ade2f17888,TCN,2024-06-25_09h42.23.242,LearnStrategy,2023.2.3,MacIntel,129.8701299,1,1,10,-0.028844246,0.003005126,1,0,0,1.2018,rock_grid_rect_2,8,14,-1,-1,1.202,0.369150959,-0.406820437,1,0,0,3.8217,Pumice_rect,8,3.822,1,9,0,9,0,1,,,,,,,,,,,,,
65d563ecf8df20ade2f17888,TCN,2024-06-25_09h42.23.242,LearnStrategy,2023.2.3,MacIntel,129.8701299,1,1,11,0.007386739,0.009437004,1,0,0,1.1212,rock_grid_rect_2,1,05,-1,-1,1.121,0.350830853,-0.257676091,1,0,0,4.3568,Gabbro_rect,4,4.357,0,10,0,10,0,1,,,,,,,,,,,,,
65d563ecf8df20ade2f17888,TCN,2024-06-25_09h42.23.242,LearnStrategy,2023.2.3,MacIntel,129.8701299,1,1,12,0.003959987,-0.000285218,1,0,0,1.9545,rock_grid_rect_2,3,02,-1,-1,1.954,-0.187950562,-0.252236276,1,0,0,3.8178,Basalt_rect,2,3.818,0,11,0,11,0,1,,,,,,,,,,,,,
65d563ecf8df20ade2f17888,TCN,2024-06-25_09h42.23.242,LearnStrategy,2023.2.3,MacIntel,129.8701299,1,1,13,-0.009933036,-0.00943287,1,0,0,1.5041,rock_grid_rect_2,6,07,-1,-1,1.504,-0.079154266,-0.401603836,1,0,0,12.207,Pegmatite_rect,6,12.207,1,12,0,12,0,1,,,,,,,,,,,,,
65d563ecf8df20ade2f17888,TCN,2024-06-25_09h42.23.242,LearnStrategy,2023.2.3,MacIntel,129.8701299,1,1,14,0.001942791,0.000454696,1,0,0,1.489,rock_grid_rect_2,6,10,-1,-1,1.489,0.099334491,-0.394572586,1,0,0,11.0377,Peridotite_rect,7,11.038,0,13,0,13,0,1,,,,,,,,,,,,,
65d563ecf8df20ade2f17888,TCN,2024-06-25_09h42.23.242,LearnStrategy,2023.2.3,MacIntel,129.8701299,1,1,15,-0.052781911,-0.007527282,1,0,0,11.0885,rock_grid_rect_2,4,14,-1,-1,11.088,-0.190968089,-0.233597884,1,0,0,3.3461,Basalt_rect,2,3.346,0,14,0,14,0,1,,,,,,,,,,,,,
65d563ecf8df20ade2f17888,TCN,2024-06-25_09h42.23.242,LearnStrategy,2023.2.3,MacIntel,129.8701299,1,1,16,-0.011499669,0.002740575,1,0,0,1.3077,rock_grid_rect_2,1,02,-1,-1,1.308,-0.310941634,-0.233589616,1,0,0,10.5057,Andesite_rect,1,10.506,1,15,0,15,0,1,,,,,,,,,,,,,
65d563ecf8df20ade2f17888,TCN,2024-06-25_09h42.23.242,LearnStrategy,2023.2.3,MacIntel,129.8701299,1,2,1,,,,,,,,4,15,,,,,,,,,,,1,2.781,0,,,,,,-0.351178075,-0.254203869,1,0,0,2.7811,Andesite_rect,0,0,0,0,1,
65d563ecf8df20ade2f17888,TCN,2024-06-25_09h42.23.242,LearnStrategy,2023.2.3,MacIntel,129.8701299,1,2,2,,,,,,,,6,05,,,,,,,,,,,7,3.876,0,,,,,,0.113206845,-0.404679233,1,0,0,3.8764,Peridotite_rect,1,0,1,0,1,
65d563ecf8df20ade2f17888,TCN,2024-06-25_09h42.23.242,LearnStrategy,2023.2.3,MacIntel,129.8701299,1,2,3,,,,,,,,2,02,,,,,,,,,,,4,4.364,0,,,,,,0.333374669,-0.249971065,1,0,0,4.3637,Gabbro_rect,2,0,2,0,1,
65d563ecf8df20ade2f17888,TCN,2024-06-25_09h42.23.242,LearnStrategy,2023.2.3,MacIntel,129.8701299,1,2,4,,,,,,,,7,10,,,,,,,,,,,7,7.296,1,,,,,,0.150086806,-0.403480489,1,0,0,7.2956,Peridotite_rect,3,0,3,0,1,
65d563ecf8df20ade2f17888,TCN,2024-06-25_09h42.23.242,LearnStrategy,2023.2.3,MacIntel,129.8701299,1,2,5,,,,,,,,3,13,,,,,,,,,,,4,9.884,0,,,,,,0.354220403,-0.236846892,1,0,0,9.8837,Gabbro_rect,4,0,4,0,1,
65d563ecf8df20ade2f17888,TCN,2024-06-25_09h42.23.242,LearnStrategy,2023.2.3,MacIntel,129.8701299,1,2,6,,,,,,,,1,01,,,,,,,,,,,4,3.461,0,,,,,,0.354220403,-0.236846892,1,0,0,3.4612,Gabbro_rect,5,0,5,0,1,
65d563ecf8df20ade2f17888,TCN,2024-06-25_09h42.23.242,LearnStrategy,2023.2.3,MacIntel,129.8701299,1,2,7,,,,,,,,4,11,,,,,,,,,,,4,6.124,1,,,,,,0.377852183,-0.231076389,1,0,0,6.1236,Gabbro_rect,6,0,6,0,1,
65d563ecf8df20ade2f17888,TCN,2024-06-25_09h42.23.242,LearnStrategy,2023.2.3,MacIntel,129.8701299,1,2,8,,,,,,,,1,06,,,,,,,,,,,4,9.582,0,,,,,,0.369940476,-0.238744213,1,0,0,9.5824,Gabbro_rect,7,0,7,0,1,
65d563ecf8df20ade2f17888,TCN,2024-06-25_09h42.23.242,LearnStrategy,2023.2.3,MacIntel,129.8701299,1,2,9,,,,,,,,6,08,,,,,,,,,,,6,10.421,1,,,,,,-0.104166667,-0.409804894,1,0,0,10.4212,Pegmatite_rect,8,0,8,0,1,
65d563ecf8df20ade2f17888,TCN,2024-06-25_09h42.23.242,LearnStrategy,2023.2.3,MacIntel,129.8701299,1,2,10,,,,,,,,8,03,,,,,,,,,,,8,3.62,1,,,,,,0.346486442,-0.40073578,1,0,0,3.6201,Pumice_rect,9,0,9,0,1,
65d563ecf8df20ade2f17888,TCN,2024-06-25_09h42.23.242,LearnStrategy,2023.2.3,MacIntel,129.8701299,1,2,11,,,,,,,,2,09,,,,,,,,,,,7,10.45,0,,,,,,0.082258598,-0.403013393,1,0,0,10.45,Peridotite_rect,10,0,10,0,1,
65d563ecf8df20ade2f17888,TCN,2024-06-25_09h42.23.242,LearnStrategy,2023.2.3,MacIntel,129.8701299,1,2,12,,,,,,,,8,10,,,,,,,,,,,2,7.606,0,,,,,,-0.102728175,-0.251231812,1,0,0,7.6059,Basalt_rect,11,0,11,0,1,
65d563ecf8df20ade2f17888,TCN,2024-06-25_09h42.23.242,LearnStrategy,2023.2.3,MacIntel,129.8701299,1,2,13,,,,,,,,5,16,,,,,,,,,,,5,2.385,1,,,,,,-0.38813244,-0.397441303,1,0,0,2.3848,Obsidian_rect,12,0,12,0,1,
65d563ecf8df20ade2f17888,TCN,2024-06-25_09h42.23.242,LearnStrategy,2023.2.3,MacIntel,129.8701299,1,2,14,,,,,,,,7,04,,,,,,,,,,,4,8.629,0,,,,,,0.366741071,-0.236656746,1,0,0,8.6289,Gabbro_rect,13,0,13,0,1,
65d563ecf8df20ade2f17888,TCN,2024-06-25_09h42.23.242,LearnStrategy,2023.2.3,MacIntel,129.8701299,1,2,15,,,,,,,,3,14,,,,,,,,,,,3,3.749,1,,,,,,0.094919808,-0.261338459,1,0,0,3.7492,Diorite_rect,14,0,14,0,1,
65d563ecf8df20ade2f17888,TCN,2024-06-25_09h42.23.242,LearnStrategy,2023.2.3,MacIntel,129.8701299,1,2,16,,,,,,,,5,08,,,,,,,,,,,5,3.868,1,,,,,,-0.392080026,-0.409883433,1,0,0,3.8679,Obsidian_rect,15,0,15,0,1,
65d563ecf8df20ade2f17888,TCN,2024-06-25_09h42.23.242,LearnStrategy,2023.2.3,MacIntel,129.8701299,2,1,1,-0.005795304,-0.007014716,1,0,0,74.428,rock_grid_rect_2,4,10,-1,-1,74.428,0.063252315,-0.405241402,1,0,0,10.3081,Peridotite_rect,7,10.308,0,0,0,0,0,1,,,,,,,,,,,,,
65d563ecf8df20ade2f17888,TCN,2024-06-25_09h42.23.242,LearnStrategy,2023.2.3,MacIntel,129.8701299,2,1,2,0.018931878,-0.001281415,1,0,0,20.4847,rock_grid_rect_2,6,15,-1,-1,20.485,0.104497354,-0.399049272,1,0,0,6.2334,Peridotite_rect,7,6.233,0,1,0,1,0,1,,,,,,,,,,,,,
65d563ecf8df20ade2f17888,TCN,2024-06-25_09h42.23.242,LearnStrategy,2023.2.3,MacIntel,129.8701299,2,1,3,0.041840278,0.005340608,1,0,0,5.8164,rock_grid_rect_2,7,15,-1,-1,5.816,-0.140674603,-0.250334821,1,0,0,6.7705,Basalt_rect,2,6.77,0,2,0,2,0,1,,,,,,,,,,,,,
65d563ecf8df20ade2f17888,TCN,2024-06-25_09h42.23.242,LearnStrategy,2023.2.3,MacIntel,129.8701299,2,1,4,0.030051257,-0.003583829,1,0,0,1.4029,rock_grid_rect_2,3,15,-1,-1,1.403,0.385127315,-0.24677166,1,0,0,4.0573,Gabbro_rect,4,4.057,0,3,0,3,0,1,,,,,,,,,,,,,
65d563ecf8df20ade2f17888,TCN,2024-06-25_09h42.23.242,LearnStrategy,2023.2.3,MacIntel,129.8701299,2,1,5,-0.011958499,-0.001136739,1,0,0,1.3546,rock_grid_rect_2,1,11,-1,-1,1.355,0.362185847,-0.259540344,1,0,0,8.1581,Gabbro_rect,4,8.158,0,4,0,4,0,1,,,,,,,,,,,,,
65d563ecf8df20ade2f17888,TCN,2024-06-25_09h42.23.242,LearnStrategy,2023.2.3,MacIntel,129.8701299,2,1,6,-0.025227348,-0.005625827,1,0,0,1.1039,rock_grid_rect_2,6,11,-1,-1,1.104,0.087801753,-0.246478175,1,0,0,9.1351,Diorite_rect,3,9.135,0,5,0,5,0,1,,,,,,,,,,,,,
65d563ecf8df20ade2f17888,TCN,2024-06-25_09h42.23.242,LearnStrategy,2023.2.3,MacIntel,129.8701299,2,1,7,-0.033986442,0.011685681,1,0,0,1.0375,rock_grid_rect_2,2,01,-1,-1,1.038,-0.402542163,-0.397503307,1,0,0,3.8559,Obsidian_rect,5,3.856,0,6,0,6,0,1,,,,,,,,,,,,,
65d563ecf8df20ade2f17888,TCN,2024-06-25_09h42.23.242,LearnStrategy,2023.2.3,MacIntel,129.8701299,2,1,8,0.0020792,-0.003629299,1,0,0,1.2533,rock_grid_rect_2,7,08,-1,-1,1.253,0.151153274,-0.380873843,1,0,0,12.4408,Peridotite_rect,7,12.441,1,7,0,7,0,1,,,,,,,,,,,,,
65d563ecf8df20ade2f17888,TCN,2024-06-25_09h42.23.242,LearnStrategy,2023.2.3,MacIntel,129.8701299,2,1,9,-0.0057333,-0.00552662,1,0,0,7.7538,rock_grid_rect_2,3,10,-1,-1,7.754,-0.428869048,-0.24985119,1,0,0,19.9211,Andesite_rect,1,19.921,0,8,0,8,0,1,,,,,,,,,,,,,
65d563ecf8df20ade2f17888,TCN,2024-06-25_09h42.23.242,LearnStrategy,2023.2.3,MacIntel,129.8701299,2,1,10,0.033006779,0.014591601,1,0,0,0.9952,rock_grid_rect_2,5,09,-1,-1,0.995,-0.39301422,-0.402397487,1,0,0,2.7618,Obsidian_rect,5,2.762,1,9,0,9,0,1,,,,,,,,,,,,,
65d563ecf8df20ade2f17888,TCN,2024-06-25_09h42.23.242,LearnStrategy,2023.2.3,MacIntel,129.8701299,2,1,11,-0.073995536,-0.011197917,1,0,0,0.991,rock_grid_rect_2,8,02,-1,-1,0.991,0.415467923,-0.408812831,1,0,0,4.804,Pumice_rect,8,4.804,1,10,0,10,0,1,,,,,,,,,,,,,
65d563ecf8df20ade2f17888,TCN,2024-06-25_09h42.23.242,LearnStrategy,2023.2.3,MacIntel,129.8701299,2,1,12,-0.019522983,0.006229332,1,0,0,0.9018,rock_grid_rect_2,1,16,-1,-1,0.902,0.123383763,-0.24989666,1,0,0,4.0863,Diorite_rect,3,4.086,0,11,0,11,0,1,,,,,,,,,,,,,
65d563ecf8df20ade2f17888,TCN,2024-06-25_09h42.23.242,LearnStrategy,2023.2.3,MacIntel,129.8701299,2,1,13,-0.011871693,0.000322421,1,0,0,1.2021,rock_grid_rect_2,2,10,-1,-1,1.202,-0.4010458,-0.405865575,1,0,0,7.1398,Obsidian_rect,5,7.14,0,12,0,12,0,1,,,,,,,,,,,,,
65d563ecf8df20ade2f17888,TCN,2024-06-25_09h42.23.242,LearnStrategy,2023.2.3,MacIntel,129.8701299,2,1,14,0.024847057,-0.017679398,1,0,0,0.9893,rock_grid_rect_2,8,15,-1,-1,0.989,0.434986772,-0.232659557,1,0,0,7.035,Gabbro_rect,4,7.035,0,13,0,13,0,1,,,,,,,,,,,,,
65d563ecf8df20ade2f17888,TCN,2024-06-25_09h42.23.242,LearnStrategy,2023.2.3,MacIntel,129.8701299,2,1,15,-0.00499752,0.005873843,1,0,0,0.9051,rock_grid_rect_2,5,05,-1,-1,0.905,-0.337983631,-0.271548446,1,0,0,5.476,Andesite_rect,1,5.476,0,14,0,14,0,1,,,,,,,,,,,,,
65d563ecf8df20ade2f17888,TCN,2024-06-25_09h42.23.242,LearnStrategy,2023.2.3,MacIntel,129.8701299,2,1,16,0.051996528,-0.009734623,1,0,0,1.9563,rock_grid_rect_2,4,08,-1,-1,1.956,-0.168456515,-0.405828373,1,0,0,4.5958,Pegmatite_rect,6,4.596,0,15,0,15,0,1,,,,,,,,,,,,,
65d563ecf8df20ade2f17888,TCN,2024-06-25_09h42.23.242,LearnStrategy,2023.2.3,MacIntel,129.8701299,2,2,1,,,,,,,,8,13,,,,,,,,,,,8,4.091,1,,,,,,0.373582176,-0.392195767,1,0,0,4.0905,Pumice_rect,0,0,0,0,1,
65d563ecf8df20ade2f17888,TCN,2024-06-25_09h42.23.242,LearnStrategy,2023.2.3,MacIntel,129.8701299,2,2,2,,,,,,,,5,02,,,,,,,,,,,5,2.186,1,,,,,,-0.360073578,-0.381630291,1,0,0,2.1863,Obsidian_rect,1,0,1,0,1,
65d563ecf8df20ade2f17888,TCN,2024-06-25_09h42.23.242,LearnStrategy,2023.2.3,MacIntel,129.8701299,2,2,3,,,,,,,,1,10,,,,,,,,,,,1,8.299,1,,,,,,-0.341803075,-0.243625992,1,0,0,8.299,Andesite_rect,2,0,2,0,1,
65d563ecf8df20ade2f17888,TCN,2024-06-25_09h42.23.242,LearnStrategy,2023.2.3,MacIntel,129.8701299,2,2,4,,,,,,,,8,05,,,,,,,,,,,8,3.658,1,,,,,,0.349231151,-0.391001157,1,0,0,3.6577,Pumice_rect,3,0,3,0,1,
65d563ecf8df20ade2f17888,TCN,2024-06-25_09h42.23.242,LearnStrategy,2023.2.3,MacIntel,129.8701299,2,2,5,,,,,,,,7,07,,,,,,,,,,,3,12.92,0,,,,,,0.144175761,-0.233031581,1,0,0,12.92,Diorite_rect,4,0,4,0,1,
65d563ecf8df20ade2f17888,TCN,2024-06-25_09h42.23.242,LearnStrategy,2023.2.3,MacIntel,129.8701299,2,2,6,,,,,,,,4,13,,,,,,,,,,,3,5.652,0,,,,,,0.109623016,-0.234829696,1,0,0,5.6521,Diorite_rect,5,0,5,0,1,
65d563ecf8df20ade2f17888,TCN,2024-06-25_09h42.23.242,LearnStrategy,2023.2.3,MacIntel,129.8701299,2,2,7,,,,,,,,7,02,,,,,,,,,,,7,7.11,1,,,,,,0.122011409,-0.393448247,1,0,0,7.1102,Peridotite_rect,6,0,6,0,1,
65d563ecf8df20ade2f17888,TCN,2024-06-25_09h42.23.242,LearnStrategy,2023.2.3,MacIntel,129.8701299,2,2,8,,,,,,,,3,06,,,,,,,,,,,1,18.033,0,,,,,,-0.353984788,-0.25838707,1,0,0,18.0328,Andesite_rect,7,0,7,0,1,
65d563ecf8df20ade2f17888,TCN,2024-06-25_09h42.23.242,LearnStrategy,2023.2.3,MacIntel,129.8701299,2,2,9,,,,,,,,6,16,,,,,,,,,,,6,23.555,1,,,,,,-0.086516204,-0.39099289,1,0,0,23.5554,Pegmatite_rect,8,0,8,0,1,
65d563ecf8df20ade2f17888,TCN,2024-06-25_09h42.23.242,LearnStrategy,2023.2.3,MacIntel,129.8701299,2,2,10,,,,,,,,3,09,,,,,,,,,,,1,21.91,0,,,,,,-0.376525298,-0.260412533,1,0,0,21.9105,Andesite_rect,9,0,9,0,1,
65d563ecf8df20ade2f17888,TCN,2024-06-25_09h42.23.242,LearnStrategy,2023.2.3,MacIntel,129.8701299,2,2,11,,,,,,,,5,06,,,,,,,,,,,5,1.919,1,,,,,,-0.432395007,-0.395399306,1,0,0,1.9186,Obsidian_rect,10,0,10,0,1,
65d563ecf8df20ade2f17888,TCN,2024-06-25_09h42.23.242,LearnStrategy,2023.2.3,MacIntel,129.8701299,2,2,12,,,,,,,,1,03,,,,,,,,,,,1,7.601,1,,,,,,-0.423697917,-0.2328125,1,0,0,7.6012,Andesite_rect,11,0,11,0,1,
65d563ecf8df20ade2f17888,TCN,2024-06-25_09h42.23.242,LearnStrategy,2023.2.3,MacIntel,129.8701299,2,2,13,,,,,,,,2,11,,,,,,,,,,,8,2.064,0,,,,,,0.405187665,-0.392385913,1,0,0,2.0641,Pumice_rect,12,0,12,0,1,
65d563ecf8df20ade2f17888,TCN,2024-06-25_09h42.23.242,LearnStrategy,2023.2.3,MacIntel,129.8701299,2,2,14,,,,,,,,6,09,,,,,,,,,,,6,7.333,1,,,,,,-0.163322586,-0.385094246,1,0,0,7.3326,Pegmatite_rect,13,0,13,0,1,
65d563ecf8df20ade2f17888,TCN,2024-06-25_09h42.23.242,LearnStrategy,2023.2.3,MacIntel,129.8701299,2,2,15,,,,,,,,4,16,,,,,,,,,,,2,7.558,0,,,,,,-0.157312335,-0.249235284,1,0,0,7.5576,Basalt_rect,14,0,14,0,1,
65d563ecf8df20ade2f17888,TCN,2024-06-25_09h42.23.242,LearnStrategy,2023.2.3,MacIntel,129.8701299,2,2,16,,,,,,,,2,16,,,,,,,,,,,2,2.106,1,,,,,,-0.140215774,-0.249946263,1,0,0,2.1057,Basalt_rect,15,0,15,0,1,
65d563ecf8df20ade2f17888,TCN,2024-06-25_09h42.23.242,LearnStrategy,2023.2.3,MacIntel,129.8701299,3,1,1,0.103232474,0.00328621,1,0,0,5.8989,rock_grid_rect_2,6,03,-1,-1,5.899,-0.109680886,-0.404402282,1,0,0,6.6035,Pegmatite_rect,6,6.603,1,0,0,0,0,1,,,,,,,,,,,,,
65d563ecf8df20ade2f17888,TCN,2024-06-25_09h42.23.242,LearnStrategy,2023.2.3,MacIntel,129.8701299,3,1,2,-0.040715939,-0.017162698,1,0,0,0.9808,rock_grid_rect_2,4,05,-1,-1,0.981,0.101979993,-0.394080688,1,0,0,8.2139,Peridotite_rect,7,8.214,0,1,0,1,0,1,,,,,,,,,,,,,
65d563ecf8df20ade2f17888,TCN,2024-06-25_09h42.23.242,LearnStrategy,2023.2.3,MacIntel,129.8701299,3,1,3,-0.007965443,0.014203042,1,0,0,4.5861,rock_grid_rect_2,5,11,-1,-1,4.586,-0.335987103,-0.38832672,1,0,0,1.5408,Obsidian_rect,5,1.541,1,2,0,2,0,1,,,,,,,,,,,,,
65d563ecf8df20ade2f17888,TCN,2024-06-25_09h42.23.242,LearnStrategy,2023.2.3,MacIntel,129.8701299,3,1,4,0.005849041,0.005195933,1,0,0,1.847,rock_grid_rect_2,3,11,-1,-1,1.847,0.368262235,-0.265765542,1,0,0,8.7314,Gabbro_rect,4,8.731,0,3,0,3,0,1,,,,,,,,,,,,,
65d563ecf8df20ade2f17888,TCN,2024-06-25_09h42.23.242,LearnStrategy,2023.2.3,MacIntel,129.8701299,3,1,5,-0.007725694,-0.002591766,1,0,0,1.5294,rock_grid_rect_2,8,16,-1,-1,1.529,0.422875331,-0.393138228,1,0,0,1.9016,Pumice_rect,8,1.902,1,4,0,4,0,1,,,,,,,,,,,,,
65d563ecf8df20ade2f17888,TCN,2024-06-25_09h42.23.242,LearnStrategy,2023.2.3,MacIntel,129.8701299,3,1,6,0.007142857,-0.003005126,1,0,0,1.0046,rock_grid_rect_2,8,08,-1,-1,1.005,-0.360197586,-0.234507275,1,0,0,12.8809,Andesite_rect,1,12.881,0,5,0,5,0,1,,,,,,,,,,,,,
65d563ecf8df20ade2f17888,TCN,2024-06-25_09h42.23.242,LearnStrategy,2023.2.3,MacIntel,129.8701299,3,1,7,-0.03766121,-0.0104208,1,0,0,1.0057,rock_grid_rect_2,6,13,-1,-1,1.006,-0.089823082,-0.389079034,1,0,0,1.5069,Pegmatite_rect,6,1.507,1,6,0,6,0,1,,,,,,,,,,,,,
65d563ecf8df20ade2f17888,TCN,2024-06-25_09h42.23.242,LearnStrategy,2023.2.3,MacIntel,129.8701299,3,1,8,-0.028356481,-0.009920635,1,0,0,1.3474,rock_grid_rect_2,1,09,-1,-1,1.347,-0.400558036,-0.265356316,1,0,0,3.0228,Andesite_rect,1,3.023,1,7,0,7,0,1,,,,,,,,,,,,,
65d563ecf8df20ade2f17888,TCN,2024-06-25_09h42.23.242,LearnStrategy,2023.2.3,MacIntel,129.8701299,3,1,9,0.004592427,0.002207341,1,0,0,2.2041,rock_grid_rect_2,4,01,-1,-1,2.204,0.418473049,-0.245023148,1,0,0,11.5692,Gabbro_rect,4,11.569,1,8,0,8,0,1,,,,,,,,,,,,,
65d563ecf8df20ade2f17888,TCN,2024-06-25_09h42.23.242,LearnStrategy,2023.2.3,MacIntel,129.8701299,3,1,10,0.032833168,0.016786541,1,0,0,1.2374,rock_grid_rect_2,2,05,-1,-1,1.237,-0.138996362,-0.233808697,1,0,0,2.733,Basalt_rect,2,2.733,1,9,0,9,0,1,,,,,,,,,,,,,
65d563ecf8df20ade2f17888,TCN,2024-06-25_09h42.23.242,LearnStrategy,2023.2.3,MacIntel,129.8701299,3,1,11,0.020709325,-0.002219742,1,0,0,0.9871,rock_grid_rect_2,5,04,-1,-1,0.987,-0.338963294,-0.384308862,1,0,0,1.4078,Obsidian_rect,5,1.408,1,10,0,10,0,1,,,,,,,,,,,,,
65d563ecf8df20ade2f17888,TCN,2024-06-25_09h42.23.242,LearnStrategy,2023.2.3,MacIntel,129.8701299,3,1,12,0.027848049,-0.009321263,1,0,0,13.8147,rock_grid_rect_2,7,06,-1,-1,13.815,-0.076616237,-0.40244709,1,0,0,4.512,Pegmatite_rect,6,4.512,0,11,0,11,0,1,,,,,,,,,,,,,
65d563ecf8df20ade2f17888,TCN,2024-06-25_09h42.23.242,LearnStrategy,2023.2.3,MacIntel,129.8701299,3,1,13,0.019605655,0.009548611,1,0,0,1.0617,rock_grid_rect_2,1,04,-1,-1,1.062,0.164963624,-0.251479828,1,0,0,4.0692,Diorite_rect,3,4.069,0,12,0,12,0,1,,,,,,,,,,,,,
65d563ecf8df20ade2f17888,TCN,2024-06-25_09h42.23.242,LearnStrategy,2023.2.3,MacIntel,129.8701299,3,1,14,-0.016426918,0.011586475,1,0,0,1.0473,rock_grid_rect_2,3,12,-1,-1,1.047,0.37995205,-0.238562335,1,0,0,8.7033,Gabbro_rect,4,8.703,0,13,0,13,0,1,,,,,,,,,,,,,
65d563ecf8df20ade2f17888,TCN,2024-06-25_09h42.23.242,LearnStrategy,2023.2.3,MacIntel,129.8701299,3,1,15,0.067547123,-4.1336E-05,1,0,0,1.1053,rock_grid_rect_2,7,13,-1,-1,1.105,-0.083664021,-0.416968419,1,0,0,26.7697,Pegmatite_rect,6,26.77,0,14,0,14,0,1,,,,,,,,,,,,,
65d563ecf8df20ade2f17888,TCN,2024-06-25_09h42.23.242,LearnStrategy,2023.2.3,MacIntel,129.8701299,3,1,16,0.026913856,-0.006630291,1,0,0,3.2042,rock_grid_rect_2,2,06,-1,-1,3.204,-0.121027612,-0.255753968,1,0,0,1.3085,Basalt_rect,2,1.309,1,15,0,15,0,1,,,,,,,,,,,,,
65d563ecf8df20ade2f17888,TCN,2024-06-25_09h42.23.242,LearnStrategy,2023.2.3,MacIntel,129.8701299,3,2,1,,,,,,,,6,06,,,,,,,,,,,7,19.505,0,,,,,,0.157680225,-0.399937996,1,0,0,19.5045,Peridotite_rect,0,0,0,0,1,
65d563ecf8df20ade2f17888,TCN,2024-06-25_09h42.23.242,LearnStrategy,2023.2.3,MacIntel,129.8701299,3,2,2,,,,,,,,8,09,,,,,,,,,,,8,6.948,1,,,,,,0.400202546,-0.397466104,1,0,0,6.9484,Pumice_rect,1,0,1,0,1,
65d563ecf8df20ade2f17888,TCN,2024-06-25_09h42.23.242,LearnStrategy,2023.2.3,MacIntel,129.8701299,3,2,3,,,,,,,,7,05,,,,,,,,,,,7,23.73,1,,,,,,0.092853009,-0.400053737,1,0,0,23.7305,Peridotite_rect,2,0,2,0,1,
65d563ecf8df20ade2f17888,TCN,2024-06-25_09h42.23.242,LearnStrategy,2023.2.3,MacIntel,129.8701299,3,2,4,,,,,,,,3,16,,,,,,,,,,,3,11.638,1,,,,,,0.090298446,-0.237421462,1,0,0,11.6376,Diorite_rect,3,0,3,0,1,
65d563ecf8df20ade2f17888,TCN,2024-06-25_09h42.23.242,LearnStrategy,2023.2.3,MacIntel,129.8701299,3,2,5,,,,,,,,8,04,,,,,,,,,,,8,1.137,1,,,,,,0.361292989,-0.387400794,1,0,0,1.1373,Pumice_rect,4,0,4,0,1,
65d563ecf8df20ade2f17888,TCN,2024-06-25_09h42.23.242,LearnStrategy,2023.2.3,MacIntel,129.8701299,3,2,6,,,,,,,,2,04,,,,,,,,,,,2,1.334,1,,,,,,-0.171879134,-0.240571263,1,0,0,1.3337,Basalt_rect,5,0,5,0,1,
65d563ecf8df20ade2f17888,TCN,2024-06-25_09h42.23.242,LearnStrategy,2023.2.3,MacIntel,129.8701299,3,2,7,,,,,,,,6,12,,,,,,,,,,,6,5.198,1,,,,,,-0.095911872,-0.393799603,1,0,0,5.1985,Pegmatite_rect,6,0,6,0,1,
65d563ecf8df20ade2f17888,TCN,2024-06-25_09h42.23.242,LearnStrategy,2023.2.3,MacIntel,129.8701299,3,2,8,,,,,,,,1,07,,,,,,,,,,,3,5.263,0,,,,,,0.159015377,-0.24468006,1,0,0,5.2633,Diorite_rect,7,0,7,0,1,
65d563ecf8df20ade2f17888,TCN,2024-06-25_09h42.23.242,LearnStrategy,2023.2.3,MacIntel,129.8701299,3,2,9,,,,,,,,2,08,,,,,,,,,,,2,4.305,1,,,,,,-0.082353671,-0.251756779,1,0,0,4.3054,Basalt_rect,8,0,8,0,1,
65d563ecf8df20ade2f17888,TCN,2024-06-25_09h42.23.242,LearnStrategy,2023.2.3,MacIntel,129.8701299,3,2,10,,,,,,,,4,09,,,,,,,,,,,4,18.161,1,,,,,,0.44854084,-0.264393188,1,0,0,18.1611,Gabbro_rect,9,0,9,0,1,
65d563ecf8df20ade2f17888,TCN,2024-06-25_09h42.23.242,LearnStrategy,2023.2.3,MacIntel,129.8701299,3,2,11,,,,,,,,4,03,,,,,,,,,,,3,11.466,0,,,,,,0.143539187,-0.239066634,1,0,0,11.4661,Diorite_rect,10,0,10,0,1,
65d563ecf8df20ade2f17888,TCN,2024-06-25_09h42.23.242,LearnStrategy,2023.2.3,MacIntel,129.8701299,3,2,12,,,,,,,,5,10,,,,,,,,,,,5,1.67,1,,,,,,-0.39057953,-0.419990079,1,0,0,1.6704,Obsidian_rect,11,0,11,0,1,
65d563ecf8df20ade2f17888,TCN,2024-06-25_09h42.23.242,LearnStrategy,2023.2.3,MacIntel,129.8701299,3,2,13,,,,,,,,1,14,,,,,,,,,,,1,12.303,1,,,,,,-0.373900463,-0.23969494,1,0,0,12.3029,Andesite_rect,12,0,12,0,1,
65d563ecf8df20ade2f17888,TCN,2024-06-25_09h42.23.242,LearnStrategy,2023.2.3,MacIntel,129.8701299,3,2,14,,,,,,,,3,08,,,,,,,,,,,7,17.084,0,,,,,,0.100070271,-0.403546627,1,0,0,17.0838,Peridotite_rect,13,0,13,0,1,
65d563ecf8df20ade2f17888,TCN,2024-06-25_09h42.23.242,LearnStrategy,2023.2.3,MacIntel,129.8701299,3,2,15,,,,,,,,7,16,,,,,,,,,,,7,7.094,1,,,,,,0.100070271,-0.403546627,1,0,0,7.0942,Peridotite_rect,14,0,14,0,1,
65d563ecf8df20ade2f17888,TCN,2024-06-25_09h42.23.242,LearnStrategy,2023.2.3,MacIntel,129.8701299,3,2,16,,,,,,,,5,14,,,,,,,,,,,5,1.315,1,,,,,,-0.410825893,-0.409358466,1,0,0,1.3149,Obsidian_rect,15,0,15,0,1,
65d563ecf8df20ade2f17888,TCN,2024-06-25_09h42.23.242,LearnStrategy,2023.2.3,MacIntel,129.8701299,4,1,1,0.098842593,0.007002315,1,0,0,1.3815,rock_grid_rect_2,1,04,-1,-1,1.381,-0.417286706,-0.246585648,1,0,0,7.5944,Andesite_rect,1,7.594,1,0,0,0,0,1,,,,,,,,,,,,,
65d563ecf8df20ade2f17888,TCN,2024-06-25_09h42.23.242,LearnStrategy,2023.2.3,MacIntel,129.8701299,4,1,2,-0.011784888,-0.015174438,1,0,0,0.92,rock_grid_rect_2,3,15,-1,-1,0.92,0.101434358,-0.400491898,1,0,0,4.376,Peridotite_rect,7,4.376,0,1,0,1,0,1,,,,,,,,,,,,,
65d563ecf8df20ade2f17888,TCN,2024-06-25_09h42.23.242,LearnStrategy,2023.2.3,MacIntel,129.8701299,4,1,3,0.013496197,-0.012818287,1,0,0,0.864,rock_grid_rect_2,7,12,-1,-1,0.864,0.084879299,-0.38046875,1,0,0,1.9432,Peridotite_rect,7,1.943,1,2,0,2,0,1,,,,,,,,,,,,,
65d563ecf8df20ade2f17888,TCN,2024-06-25_09h42.23.242,LearnStrategy,2023.2.3,MacIntel,129.8701299,4,1,4,0.042344577,-0.012876157,1,0,0,0.8719,rock_grid_rect_2,2,12,-1,-1,0.872,0.388558201,-0.386239253,1,0,0,21.8405,Pumice_rect,8,21.841,0,3,0,3,0,1,,,,,,,,,,,,,
65d563ecf8df20ade2f17888,TCN,2024-06-25_09h42.23.242,LearnStrategy,2023.2.3,MacIntel,129.8701299,4,1,5,0.026405423,0.002306548,1,0,0,1.4708,rock_grid_rect_2,8,02,-1,-1,1.471,0.429518022,-0.398635913,1,0,0,1.3863,Pumice_rect,8,1.386,1,4,0,4,0,1,,,,,,,,,,,,,
65d563ecf8df20ade2f17888,TCN,2024-06-25_09h42.23.242,LearnStrategy,2023.2.3,MacIntel,129.8701299,4,1,6,0.01916336,0.008267196,1,0,0,1.0116,rock_grid_rect_2,4,14,-1,-1,1.012,-0.353947586,-0.2526083,1,0,0,6.1403,Andesite_rect,1,6.14,0,5,0,5,0,1,,,,,,,,,,,,,
65d563ecf8df20ade2f17888,TCN,2024-06-25_09h42.23.242,LearnStrategy,2023.2.3,MacIntel,129.8701299,4,1,7,0.053145668,0.014248512,1,0,0,1.6147,rock_grid_rect_2,6,13,-1,-1,1.615,0.093311839,-0.384395668,1,0,0,4.7593,Peridotite_rect,7,4.759,0,6,0,6,0,1,,,,,,,,,,,,,
65d563ecf8df20ade2f17888,TCN,2024-06-25_09h42.23.242,LearnStrategy,2023.2.3,MacIntel,129.8701299,4,1,8,0.000128142,-0.008812831,1,0,0,0.8627,rock_grid_rect_2,8,06,-1,-1,0.863,0.35014881,-0.389595734,1,0,0,1.839,Pumice_rect,8,1.839,1,7,0,7,0,1,,,,,,,,,,,,,
65d563ecf8df20ade2f17888,TCN,2024-06-25_09h42.23.242,LearnStrategy,2023.2.3,MacIntel,129.8701299,4,1,9,0.041005291,0.005253803,1,0,0,0.8695,rock_grid_rect_2,3,11,-1,-1,0.87,0.113938492,-0.234135251,1,0,0,2.3419,Diorite_rect,3,2.342,1,8,0,8,0,1,,,,,,,,,,,,,
65d563ecf8df20ade2f17888,TCN,2024-06-25_09h42.23.242,LearnStrategy,2023.2.3,MacIntel,129.8701299,4,1,10,0.037388393,-0.00818039,1,0,0,0.8811,rock_grid_rect_2,4,05,-1,-1,0.881,0.099235284,-0.245845734,1,0,0,2.2863,Diorite_rect,3,2.286,0,9,0,9,0,1,,,,,,,,,,,,,
65d563ecf8df20ade2f17888,TCN,2024-06-25_09h42.23.242,LearnStrategy,2023.2.3,MacIntel,129.8701299,4,1,11,0.036582341,0.00213707,1,0,0,0.9267,rock_grid_rect_2,5,09,-1,-1,0.927,-0.360842427,-0.395039683,1,0,0,1.0592,Obsidian_rect,5,1.059,1,10,0,10,0,1,,,,,,,,,,,,,
65d563ecf8df20ade2f17888,TCN,2024-06-25_09h42.23.242,LearnStrategy,2023.2.3,MacIntel,129.8701299,4,1,12,-0.028654101,-0.009895833,1,0,0,0.8317,rock_grid_rect_2,5,05,-1,-1,0.832,-0.315724206,-0.379575893,1,0,0,1.5882,Obsidian_rect,5,1.588,1,11,0,11,0,1,,,,,,,,,,,,,
65d563ecf8df20ade2f17888,TCN,2024-06-25_09h42.23.242,LearnStrategy,2023.2.3,MacIntel,129.8701299,4,1,13,0.032299934,-0.003645833,1,0,0,0.7805,rock_grid_rect_2,1,05,-1,-1,0.781,0.14901207,-0.249847057,1,0,0,4.6783,Diorite_rect,3,4.678,0,12,0,12,0,1,,,,,,,,,,,,,
65d563ecf8df20ade2f17888,TCN,2024-06-25_09h42.23.242,LearnStrategy,2023.2.3,MacIntel,129.8701299,4,1,14,0.010933366,0.002430556,1,0,0,0.8634,rock_grid_rect_2,6,15,-1,-1,0.863,-0.110222388,-0.409709821,1,0,0,1.7537,Pegmatite_rect,6,1.754,1,13,0,13,0,1,,,,,,,,,,,,,
65d563ecf8df20ade2f17888,TCN,2024-06-25_09h42.23.242,LearnStrategy,2023.2.3,MacIntel,129.8701299,4,1,15,0.016017692,-0.007200728,1,0,0,0.781,rock_grid_rect_2,7,13,-1,-1,0.781,0.086908896,-0.399305556,1,0,0,9.6997,Peridotite_rect,7,9.7,1,14,0,14,0,1,,,,,,,,,,,,,
65d563ecf8df20ade2f17888,TCN,2024-06-25_09h42.23.242,LearnStrategy,2023.2.3,MacIntel,129.8701299,4,1,16,0.027186673,0.001116071,1,0,0,0.9188,rock_grid_rect_2,2,05,-1,-1,0.919,-0.098921131,-0.237743882,1,0,0,1.4406,Basalt_rect,2,1.441,1,15,0,15,0,1,,,,,,,,,,,,,
65d563ecf8df20ade2f17888,TCN,2024-06-25_09h42.23.242,LearnStrategy,2023.2.3,MacIntel,129.8701299,4,2,1,,,,,,,,7,16,,,,,,,,,,,4,21.881,0,,,,,,0.326798115,-0.268501984,1,0,0,21.881,Gabbro_rect,0,0,0,0,1,
65d563ecf8df20ade2f17888,TCN,2024-06-25_09h42.23.242,LearnStrategy,2023.2.3,MacIntel,129.8701299,4,2,2,,,,,,,,5,14,,,,,,,,,,,5,1.336,1,,,,,,-0.382845569,-0.409098049,1,0,0,1.3359,Obsidian_rect,1,0,1,0,1,
65d563ecf8df20ade2f17888,TCN,2024-06-25_09h42.23.242,LearnStrategy,2023.2.3,MacIntel,129.8701299,4,2,3,,,,,,,,2,16,,,,,,,,,,,2,4.916,1,,,,,,-0.186541005,-0.253083664,1,0,0,4.9162,Basalt_rect,2,0,2,0,1,
65d563ecf8df20ade2f17888,TCN,2024-06-25_09h42.23.242,LearnStrategy,2023.2.3,MacIntel,129.8701299,4,2,4,,,,,,,,3,08,,,,,,,,,,,3,13.182,1,,,,,,0.103145668,-0.238206845,1,0,0,13.182,Diorite_rect,3,0,3,0,1,
65d563ecf8df20ade2f17888,TCN,2024-06-25_09h42.23.242,LearnStrategy,2023.2.3,MacIntel,129.8701299,4,2,5,,,,,,,,6,16,,,,,,,,,,,7,8.01,0,,,,,,0.091174769,-0.410714286,1,0,0,8.0095,Peridotite_rect,4,0,4,0,1,
65d563ecf8df20ade2f17888,TCN,2024-06-25_09h42.23.242,LearnStrategy,2023.2.3,MacIntel,129.8701299,4,2,6,,,,,,,,1,03,,,,,,,,,,,1,8.737,1,,,,,,-0.378339947,-0.250078538,1,0,0,8.7371,Andesite_rect,5,0,5,0,1,
65d563ecf8df20ade2f17888,TCN,2024-06-25_09h42.23.242,LearnStrategy,2023.2.3,MacIntel,129.8701299,4,2,7,,,,,,,,4,09,,,,,,,,,,,4,7.423,1,,,,,,0.35744461,-0.230547288,1,0,0,7.4233,Gabbro_rect,6,0,6,0,1,
65d563ecf8df20ade2f17888,TCN,2024-06-25_09h42.23.242,LearnStrategy,2023.2.3,MacIntel,129.8701299,4,2,8,,,,,,,,7,07,,,,,,,,,,,7,26.147,1,,,,,,0.095171958,-0.400496032,1,0,0,26.1472,Peridotite_rect,7,0,7,0,1,
65d563ecf8df20ade2f17888,TCN,2024-06-25_09h42.23.242,LearnStrategy,2023.2.3,MacIntel,129.8701299,4,2,9,,,,,,,,4,11,,,,,,,,,,,4,21.032,1,,,,,,0.380634094,-0.231390542,1,0,0,21.0322,Gabbro_rect,8,0,8,0,1,
65d563ecf8df20ade2f17888,TCN,2024-06-25_09h42.23.242,LearnStrategy,2023.2.3,MacIntel,129.8701299,4,2,10,,,,,,,,3,14,,,,,,,,,,,3,9.58,1,,,,,,0.153881448,-0.24682953,1,0,0,9.5801,Diorite_rect,9,0,9,0,1,
65d563ecf8df20ade2f17888,TCN,2024-06-25_09h42.23.242,LearnStrategy,2023.2.3,MacIntel,129.8701299,4,2,11,,,,,,,,8,09,,,,,,,,,,,8,1.817,1,,,,,,0.371213624,-0.395316634,1,0,0,1.8166,Pumice_rect,10,0,10,0,1,
65d563ecf8df20ade2f17888,TCN,2024-06-25_09h42.23.242,LearnStrategy,2023.2.3,MacIntel,129.8701299,4,2,12,,,,,,,,2,08,,,,,,,,,,,2,1.064,1,,,,,,-0.15162037,-0.244998347,1,0,0,1.0643,Basalt_rect,11,0,11,0,1,
65d563ecf8df20ade2f17888,TCN,2024-06-25_09h42.23.242,LearnStrategy,2023.2.3,MacIntel,129.8701299,4,2,13,,,,,,,,8,05,,,,,,,,,,,8,1.477,1,,,,,,0.328125,-0.391447586,1,0,0,1.4775,Pumice_rect,12,0,12,0,1,
65d563ecf8df20ade2f17888,TCN,2024-06-25_09h42.23.242,LearnStrategy,2023.2.3,MacIntel,129.8701299,4,2,14,,,,,,,,1,06,,,,,,,,,,,1,12.238,1,,,,,,-0.378889716,-0.250905258,1,0,0,12.2378,Andesite_rect,13,0,13,0,1,
65d563ecf8df20ade2f17888,TCN,2024-06-25_09h42.23.242,LearnStrategy,2023.2.3,MacIntel,129.8701299,4,2,15,,,,,,,,6,09,,,,,,,,,,,6,15.796,1,,,,,,-0.112516534,-0.380567956,1,0,0,15.7959,Pegmatite_rect,14,0,14,0,1,
65d563ecf8df20ade2f17888,TCN,2024-06-25_09h42.23.242,LearnStrategy,2023.2.3,MacIntel,129.8701299,4,2,16,,,,,,,,5,10,,,,,,,,,,,5,1.103,1,,,,,,-0.338033234,-0.421606316,1,0,0,1.1027,Obsidian_rect,15,0,15,0,1,
65d563ecf8df20ade2f17888,TCN,2024-06-25_09h42.23.242,LearnStrategy,2023.2.3,MacIntel,129.8701299,5,1,1,-0.027331349,0.012781085,1,0,0,1.1794,rock_grid_rect_2,2,01,-1,-1,1.179,-0.123226687,-0.252174272,1,0,0,2.9171,Basalt_rect,2,2.917,1,0,0,0,0,1,,,,,,,,,,,,,
65d563ecf8df20ade2f17888,TCN,2024-06-25_09h42.23.242,LearnStrategy,2023.2.3,MacIntel,129.8701299,5,1,2,-0.008188657,0.001492229,1,0,0,1.2808,rock_grid_rect_2,1,02,-1,-1,1.281,-0.362524802,-0.233792163,1,0,0,8.7878,Andesite_rect,1,8.788,1,1,0,1,0,1,,,,,,,,,,,,,
65d563ecf8df20ade2f17888,TCN,2024-06-25_09h42.23.242,LearnStrategy,2023.2.3,MacIntel,129.8701299,5,1,3,0.05140129,-0.00238922,1,0,0,0.8974,rock_grid_rect_2,5,12,-1,-1,0.897,-0.339976025,-0.402318948,1,0,0,1.2481,Obsidian_rect,5,1.248,1,2,0,2,0,1,,,,,,,,,,,,,
65d563ecf8df20ade2f17888,TCN,2024-06-25_09h42.23.242,LearnStrategy,2023.2.3,MacIntel,129.8701299,5,1,4,-0.074359292,-0.014471726,1,0,0,1.0312,rock_grid_rect_2,8,14,-1,-1,1.031,0.38057209,-0.382585152,1,0,0,1.3349,Pumice_rect,8,1.335,1,3,0,3,0,1,,,,,,,,,,,,,
65d563ecf8df20ade2f17888,TCN,2024-06-25_09h42.23.242,LearnStrategy,2023.2.3,MacIntel,129.8701299,5,1,5,-0.040678737,-0.005877976,1,0,0,1.0893,rock_grid_rect_2,7,15,-1,-1,1.089,0.140219907,-0.259482474,1,0,0,5.9997,Diorite_rect,3,6,0,4,0,4,0,1,,,,,,,,,,,,,
65d563ecf8df20ade2f17888,TCN,2024-06-25_09h42.23.242,LearnStrategy,2023.2.3,MacIntel,129.8701299,5,1,6,0.021114418,-0.007432209,1,0,0,1.0469,rock_grid_rect_2,6,03,-1,-1,1.047,-0.11078869,-0.403153935,1,0,0,1.978,Pegmatite_rect,6,1.978,1,5,0,5,0,1,,,,,,,,,,,,,
65d563ecf8df20ade2f17888,TCN,2024-06-25_09h42.23.242,LearnStrategy,2023.2.3,MacIntel,129.8701299,5,1,7,-0.018287037,-0.010842427,1,0,0,0.9646,rock_grid_rect_2,1,09,-1,-1,0.965,-0.361441799,-0.260999504,1,0,0,5.6382,Andesite_rect,1,5.638,1,6,0,6,0,1,,,,,,,,,,,,,
65d563ecf8df20ade2f17888,TCN,2024-06-25_09h42.23.242,LearnStrategy,2023.2.3,MacIntel,129.8701299,5,1,8,0.001207011,0.004245205,1,0,0,1.1972,rock_grid_rect_2,4,08,-1,-1,1.197,0.354166667,-0.237719081,1,0,0,8.6566,Gabbro_rect,4,8.657,1,7,0,7,0,1,,,,,,,,,,,,,
65d563ecf8df20ade2f17888,TCN,2024-06-25_09h42.23.242,LearnStrategy,2023.2.3,MacIntel,129.8701299,5,1,9,0.012264385,-0.012012235,1,0,0,1.1146,rock_grid_rect_2,6,10,-1,-1,1.115,-0.094754464,-0.394051753,1,0,0,3.6003,Pegmatite_rect,6,3.6,1,8,0,8,0,1,,,,,,,,,,,,,
65d563ecf8df20ade2f17888,TCN,2024-06-25_09h42.23.242,LearnStrategy,2023.2.3,MacIntel,129.8701299,5,1,10,-0.03030754,-0.00483631,1,0,0,0.9883,rock_grid_rect_2,7,14,-1,-1,0.988,0.083362269,-0.387239583,1,0,0,3.9703,Peridotite_rect,7,3.97,1,9,0,9,0,1,,,,,,,,,,,,,
65d563ecf8df20ade2f17888,TCN,2024-06-25_09h42.23.242,LearnStrategy,2023.2.3,MacIntel,129.8701299,5,1,11,0.029092262,-0.017650463,1,0,0,0.8148,rock_grid_rect_2,5,04,-1,-1,0.815,-0.341521991,-0.40620453,1,0,0,1.192,Obsidian_rect,5,1.192,1,10,0,10,0,1,,,,,,,,,,,,,
65d563ecf8df20ade2f17888,TCN,2024-06-25_09h42.23.242,LearnStrategy,2023.2.3,MacIntel,129.8701299,5,1,12,0.020738261,0.009970238,1,0,0,1.0643,rock_grid_rect_2,3,12,-1,-1,1.064,0.103414352,-0.381134259,1,0,0,3.896,Peridotite_rect,7,3.896,0,11,0,11,0,1,,,,,,,,,,,,,
65d563ecf8df20ade2f17888,TCN,2024-06-25_09h42.23.242,LearnStrategy,2023.2.3,MacIntel,129.8701299,5,1,13,0.033750827,-0.024537037,1,0,0,0.8727,rock_grid_rect_2,3,10,-1,-1,0.873,0.115749008,-0.265372851,1,0,0,1.0807,Diorite_rect,3,1.081,1,12,0,12,0,1,,,,,,,,,,,,,
65d563ecf8df20ade2f17888,TCN,2024-06-25_09h42.23.242,LearnStrategy,2023.2.3,MacIntel,129.8701299,5,1,14,0.020531581,0.022743056,1,0,0,0.7811,rock_grid_rect_2,4,10,-1,-1,0.781,0.428864914,-0.239880952,1,0,0,1.3898,Gabbro_rect,4,1.39,1,13,0,13,0,1,,,,,,,,,,,,,
65d563ecf8df20ade2f17888,TCN,2024-06-25_09h42.23.242,LearnStrategy,2023.2.3,MacIntel,129.8701299,5,1,15,0.048743386,0.009279927,1,0,0,0.832,rock_grid_rect_2,8,16,-1,-1,0.832,0.36860119,-0.388210979,1,0,0,1.268,Pumice_rect,8,1.268,1,14,0,14,0,1,,,,,,,,,,,,,
65d563ecf8df20ade2f17888,TCN,2024-06-25_09h42.23.242,LearnStrategy,2023.2.3,MacIntel,129.8701299,5,1,16,0.04864418,-0.012371858,1,0,0,0.9235,rock_grid_rect_2,2,14,-1,-1,0.924,0.359871032,-0.383841766,1,0,0,4.7493,Pumice_rect,8,4.749,0,15,0,15,0,1,,,,,,,,,,,,,
65d563ecf8df20ade2f17888,TCN,2024-06-25_09h42.23.242,LearnStrategy,2023.2.3,MacIntel,129.8701299,5,2,1,,,,,,,,3,13,,,,,,,,,,,3,26.091,1,,,,,,0.150289352,-0.259941303,1,0,0,26.0907,Diorite_rect,0,0,0,0,1,
65d563ecf8df20ade2f17888,TCN,2024-06-25_09h42.23.242,LearnStrategy,2023.2.3,MacIntel,129.8701299,5,2,2,,,,,,,,6,06,,,,,,,,,,,7,12.351,0,,,,,,0.130576224,-0.414219577,1,0,0,12.3509,Peridotite_rect,1,0,1,0,1,
65d563ecf8df20ade2f17888,TCN,2024-06-25_09h42.23.242,LearnStrategy,2023.2.3,MacIntel,129.8701299,5,2,3,,,,,,,,3,06,,,,,,,,,,,3,10.525,1,,,,,,0.146924603,-0.236388062,1,0,0,10.5254,Diorite_rect,2,0,2,0,1,
65d563ecf8df20ade2f17888,TCN,2024-06-25_09h42.23.242,LearnStrategy,2023.2.3,MacIntel,129.8701299,5,2,4,,,,,,,,2,04,,,,,,,,,,,2,5.14,1,,,,,,-0.166617063,-0.264880952,1,0,0,5.1405,Basalt_rect,3,0,3,0,1,
65d563ecf8df20ade2f17888,TCN,2024-06-25_09h42.23.242,LearnStrategy,2023.2.3,MacIntel,129.8701299,5,2,5,,,,,,,,6,12,,,,,,,,,,,6,4.266,1,,,,,,-0.168960813,-0.399537037,1,0,0,4.2661,Pegmatite_rect,4,0,4,0,1,
65d563ecf8df20ade2f17888,TCN,2024-06-25_09h42.23.242,LearnStrategy,2023.2.3,MacIntel,129.8701299,5,2,6,,,,,,,,8,13,,,,,,,,,,,8,2.925,1,,,,,,0.367815807,-0.390058697,1,0,0,2.9254,Pumice_rect,5,0,5,0,1,
65d563ecf8df20ade2f17888,TCN,2024-06-25_09h42.23.242,LearnStrategy,2023.2.3,MacIntel,129.8701299,5,2,7,,,,,,,,4,16,,,,,,,,,,,4,7.709,1,,,,,,0.377637235,-0.229046792,1,0,0,7.7093,Gabbro_rect,6,0,6,0,1,
65d563ecf8df20ade2f17888,TCN,2024-06-25_09h42.23.242,LearnStrategy,2023.2.3,MacIntel,129.8701299,5,2,8,,,,,,,,2,11,,,,,,,,,,,8,7.961,0,,,,,,0.409713955,-0.39927662,1,0,0,7.9614,Pumice_rect,7,0,7,0,1,
65d563ecf8df20ade2f17888,TCN,2024-06-25_09h42.23.242,LearnStrategy,2023.2.3,MacIntel,129.8701299,5,2,9,,,,,,,,8,04,,,,,,,,,,,8,2.187,1,,,,,,0.357051918,-0.406299603,1,0,0,2.1869,Pumice_rect,8,0,8,0,1,
65d563ecf8df20ade2f17888,TCN,2024-06-25_09h42.23.242,LearnStrategy,2023.2.3,MacIntel,129.8701299,5,2,10,,,,,,,,5,02,,,,,,,,,,,5,1.177,1,,,,,,-0.366083829,-0.399549438,1,0,0,1.1774,Obsidian_rect,9,0,9,0,1,
65d563ecf8df20ade2f17888,TCN,2024-06-25_09h42.23.242,LearnStrategy,2023.2.3,MacIntel,129.8701299,5,2,11,,,,,,,,1,01,,,,,,,,,,,1,4.528,1,,,,,,-0.398883929,-0.255923446,1,0,0,4.5283,Andesite_rect,10,0,10,0,1,
65d563ecf8df20ade2f17888,TCN,2024-06-25_09h42.23.242,LearnStrategy,2023.2.3,MacIntel,129.8701299,5,2,12,,,,,,,,1,14,,,,,,,,,,,1,14.28,1,,,,,,-0.379906581,-0.256407077,1,0,0,14.2804,Andesite_rect,11,0,11,0,1,
65d563ecf8df20ade2f17888,TCN,2024-06-25_09h42.23.242,LearnStrategy,2023.2.3,MacIntel,129.8701299,5,2,13,,,,,,,,5,16,,,,,,,,,,,5,0.904,1,,,,,,-0.360858962,-0.391286376,1,0,0,0.9036,Obsidian_rect,12,0,12,0,1,
65d563ecf8df20ade2f17888,TCN,2024-06-25_09h42.23.242,LearnStrategy,2023.2.3,MacIntel,129.8701299,5,2,14,,,,,,,,7,05,,,,,,,,,,,7,7.062,1,,,,,,0.093191964,-0.386044974,1,0,0,7.0623,Peridotite_rect,13,0,13,0,1,
65d563ecf8df20ade2f17888,TCN,2024-06-25_09h42.23.242,LearnStrategy,2023.2.3,MacIntel,129.8701299,5,2,15,,,,,,,,4,13,,,,,,,,,,,3,5.046,0,,,,,,0.094357639,-0.246147487,1,0,0,5.0462,Diorite_rect,14,0,14,0,1,
65d563ecf8df20ade2f17888,TCN,2024-06-25_09h42.23.242,LearnStrategy,2023.2.3,MacIntel,129.8701299,5,2,16,,,,,,,,7,02,,,,,,,,,,,7,6.553,1,,,,,,0.087313988,-0.392253638,1,0,0,6.553,Peridotite_rect,15,0,15,0,1,
65d563ecf8df20ade2f17888,TCN,2024-06-25_09h42.23.242,LearnStrategy,2023.2.3,MacIntel,129.8701299,6,1,1,0.01000744,-0.008167989,1,0,0,1.3044,rock_grid_rect_2,8,15,-1,-1,1.304,0.380691964,-0.401314484,1,0,0,1.6999,Pumice_rect,8,1.7,1,0,0,0,0,1,,,,,,,,,,,,,
65d563ecf8df20ade2f17888,TCN,2024-06-25_09h42.23.242,LearnStrategy,2023.2.3,MacIntel,129.8701299,6,1,2,0.03369709,-0.006584821,1,0,0,0.9006,rock_grid_rect_2,1,16,-1,-1,0.901,0.132688492,-0.385590278,1,0,0,3.482,Peridotite_rect,7,3.482,0,1,0,1,0,1,,,,,,,,,,,,,
65d563ecf8df20ade2f17888,TCN,2024-06-25_09h42.23.242,LearnStrategy,2023.2.3,MacIntel,129.8701299,6,1,3,-0.021333499,7.02712E-05,1,0,0,0.9368,rock_grid_rect_2,1,11,-1,-1,0.937,-0.334933036,-0.23051422,1,0,0,2.3961,Andesite_rect,1,2.396,1,2,0,2,0,1,,,,,,,,,,,,,
65d563ecf8df20ade2f17888,TCN,2024-06-25_09h42.23.242,LearnStrategy,2023.2.3,MacIntel,129.8701299,6,1,4,-0.028790509,-0.010718419,1,0,0,1.0491,rock_grid_rect_2,2,06,-1,-1,1.049,-0.17016369,-0.258151455,1,0,0,2.107,Basalt_rect,2,2.107,1,3,0,3,0,1,,,,,,,,,,,,,
65d563ecf8df20ade2f17888,TCN,2024-06-25_09h42.23.242,LearnStrategy,2023.2.3,MacIntel,129.8701299,6,1,5,-0.051686508,0.006613757,1,0,0,0.8653,rock_grid_rect_2,5,11,-1,-1,0.865,-0.391699735,-0.408333333,1,0,0,1.0227,Obsidian_rect,5,1.023,1,4,0,4,0,1,,,,,,,,,,,,,
65d563ecf8df20ade2f17888,TCN,2024-06-25_09h42.23.242,LearnStrategy,2023.2.3,MacIntel,129.8701299,6,1,6,0.006588955,0.004807374,1,0,0,0.8787,rock_grid_rect_2,6,11,-1,-1,0.879,-0.108184524,-0.3791708,1,0,0,1.7967,Pegmatite_rect,6,1.797,1,5,0,5,0,1,,,,,,,,,,,,,
65d563ecf8df20ade2f17888,TCN,2024-06-25_09h42.23.242,LearnStrategy,2023.2.3,MacIntel,129.8701299,6,1,7,-0.042117229,0.005522487,1,0,0,0.8208,rock_grid_rect_2,5,07,-1,-1,0.821,-0.341261574,-0.390587798,1,0,0,1.544,Obsidian_rect,5,1.544,1,6,0,6,0,1,,,,,,,,,,,,,
65d563ecf8df20ade2f17888,TCN,2024-06-25_09h42.23.242,LearnStrategy,2023.2.3,MacIntel,129.8701299,6,1,8,-0.001996528,-0.009002976,1,0,0,1.3329,rock_grid_rect_2,8,08,-1,-1,1.333,-0.185379464,-0.255861442,1,0,0,6.058,Basalt_rect,2,6.058,0,7,0,7,0,1,,,,,,,,,,,,,
65d563ecf8df20ade2f17888,TCN,2024-06-25_09h42.23.242,LearnStrategy,2023.2.3,MacIntel,129.8701299,6,1,9,0.036975033,-0.005596892,1,0,0,2.2806,rock_grid_rect_2,7,08,-1,-1,2.281,0.11624504,-0.406543485,1,0,0,21.4159,Peridotite_rect,7,21.416,1,8,0,8,0,1,,,,,,,,,,,,,
65d563ecf8df20ade2f17888,TCN,2024-06-25_09h42.23.242,LearnStrategy,2023.2.3,MacIntel,129.8701299,6,1,10,0.021122685,0.000529101,1,0,0,1.1203,rock_grid_rect_2,4,12,-1,-1,1.12,0.360238922,-0.236722884,1,0,0,2.4,Gabbro_rect,4,2.4,1,9,0,9,0,1,,,,,,,,,,,,,
65d563ecf8df20ade2f17888,TCN,2024-06-25_09h42.23.242,LearnStrategy,2023.2.3,MacIntel,129.8701299,6,1,11,0.034019511,-0.013020833,1,0,0,0.8877,rock_grid_rect_2,6,07,-1,-1,0.888,-0.129427083,-0.397106481,1,0,0,1.4086,Pegmatite_rect,6,1.409,1,10,0,10,0,1,,,,,,,,,,,,,
65d563ecf8df20ade2f17888,TCN,2024-06-25_09h42.23.242,LearnStrategy,2023.2.3,MacIntel,129.8701299,6,1,12,-0.011999835,-0.011813823,1,0,0,0.9093,rock_grid_rect_2,4,01,-1,-1,0.909,0.137206515,-0.25296379,1,0,0,17.2215,Diorite_rect,3,17.222,0,11,0,11,0,1,,,,,,,,,,,,,
65d563ecf8df20ade2f17888,TCN,2024-06-25_09h42.23.242,LearnStrategy,2023.2.3,MacIntel,129.8701299,6,1,13,0.001851852,-0.000690311,1,0,0,1.0211,rock_grid_rect_2,7,06,-1,-1,1.021,0.098578042,-0.38005539,1,0,0,1.7432,Peridotite_rect,7,1.743,1,12,0,12,0,1,,,,,,,,,,,,,
65d563ecf8df20ade2f17888,TCN,2024-06-25_09h42.23.242,LearnStrategy,2023.2.3,MacIntel,129.8701299,6,1,14,0.011020172,-0.008506944,1,0,0,0.8035,rock_grid_rect_2,3,02,-1,-1,0.803,0.094018684,-0.245796131,1,0,0,3.2984,Diorite_rect,3,3.298,1,13,0,13,0,1,,,,,,,,,,,,,
65d563ecf8df20ade2f17888,TCN,2024-06-25_09h42.23.242,LearnStrategy,2023.2.3,MacIntel,129.8701299,6,1,15,-0.019159226,-0.006803902,1,0,0,0.8209,rock_grid_rect_2,3,07,-1,-1,0.821,0.06474041,-0.399433697,1,0,0,4.993,Peridotite_rect,7,4.993,0,14,0,14,0,1,,,,,,,,,,,,,
65d563ecf8df20ade2f17888,TCN,2024-06-25_09h42.23.242,LearnStrategy,2023.2.3,MacIntel,129.8701299,6,1,16,0.036119378,0.006820437,1,0,0,0.7707,rock_grid_rect_2,2,10,-1,-1,0.771,-0.160176918,-0.267121362,1,0,0,1.1891,Basalt_rect,2,1.189,1,15,0,15,0,1,,,,,,,,,,,,,
65d563ecf8df20ade2f17888,TCN,2024-06-25_09h42.23.242,LearnStrategy,2023.2.3,MacIntel,129.8701299,6,2,1,,,,,,,,3,09,,,,,,,,,,,3,12.574,1,,,,,,0.091683201,-0.248714451,1,0,0,12.5736,Diorite_rect,0,0,0,0,1,
65d563ecf8df20ade2f17888,TCN,2024-06-25_09h42.23.242,LearnStrategy,2023.2.3,MacIntel,129.8701299,6,2,2,,,,,,,,4,03,,,,,,,,,,,4,11.022,1,,,,,,0.362421462,-0.243311839,1,0,0,11.0222,Gabbro_rect,1,0,1,0,1,
65d563ecf8df20ade2f17888,TCN,2024-06-25_09h42.23.242,LearnStrategy,2023.2.3,MacIntel,129.8701299,6,2,3,,,,,,,,6,08,,,,,,,,,,,6,4.941,1,,,,,,-0.17817047,-0.410978836,1,0,0,4.941,Pegmatite_rect,2,0,2,0,1,
65d563ecf8df20ade2f17888,TCN,2024-06-25_09h42.23.242,LearnStrategy,2023.2.3,MacIntel,129.8701299,6,2,4,,,,,,,,2,02,,,,,,,,,,,4,31.518,0,,,,,,0.431485615,-0.238764881,1,0,0,31.5176,Gabbro_rect,3,0,3,0,1,
65d563ecf8df20ade2f17888,TCN,2024-06-25_09h42.23.242,LearnStrategy,2023.2.3,MacIntel,129.8701299,6,2,5,,,,,,,,3,16,,,,,,,,,,,3,2.807,1,,,,,,0.123648313,-0.267001488,1,0,0,2.807,Diorite_rect,4,0,4,0,1,
65d563ecf8df20ade2f17888,TCN,2024-06-25_09h42.23.242,LearnStrategy,2023.2.3,MacIntel,129.8701299,6,2,6,,,,,,,,8,10,,,,,,,,,,,8,5.789,1,,,,,,0.340777943,-0.4078125,1,0,0,5.7889,Pumice_rect,5,0,5,0,1,
65d563ecf8df20ade2f17888,TCN,2024-06-25_09h42.23.242,LearnStrategy,2023.2.3,MacIntel,129.8701299,6,2,7,,,,,,,,1,10,,,,,,,,,,,1,5.79,1,,,,,,-0.417059358,-0.253224206,1,0,0,5.7896,Andesite_rect,6,0,6,0,1,
65d563ecf8df20ade2f17888,TCN,2024-06-25_09h42.23.242,LearnStrategy,2023.2.3,MacIntel,129.8701299,6,2,8,,,,,,,,2,09,,,,,,,,,,,2,5.543,1,,,,,,-0.109312996,-0.239207176,1,0,0,5.5433,Basalt_rect,7,0,7,0,1,
65d563ecf8df20ade2f17888,TCN,2024-06-25_09h42.23.242,LearnStrategy,2023.2.3,MacIntel,129.8701299,6,2,9,,,,,,,,6,05,,,,,,,,,,,6,1.607,1,,,,,,-0.144936343,-0.396279762,1,0,0,1.6066,Pegmatite_rect,8,0,8,0,1,
65d563ecf8df20ade2f17888,TCN,2024-06-25_09h42.23.242,LearnStrategy,2023.2.3,MacIntel,129.8701299,6,2,10,,,,,,,,4,15,,,,,,,,,,,3,12.92,0,,,,,,0.114136905,-0.236193783,1,0,0,12.9199,Diorite_rect,9,0,9,0,1,
65d563ecf8df20ade2f17888,TCN,2024-06-25_09h42.23.242,LearnStrategy,2023.2.3,MacIntel,129.8701299,6,2,11,,,,,,,,5,08,,,,,,,,,,,5,1.274,1,,,,,,-0.387847222,-0.405584491,1,0,0,1.2737,Obsidian_rect,10,0,10,0,1,
65d563ecf8df20ade2f17888,TCN,2024-06-25_09h42.23.242,LearnStrategy,2023.2.3,MacIntel,129.8701299,6,2,12,,,,,,,,8,03,,,,,,,,,,,8,1.436,1,,,,,,0.339666005,-0.421378968,1,0,0,1.4358,Pumice_rect,11,0,11,0,1,
65d563ecf8df20ade2f17888,TCN,2024-06-25_09h42.23.242,LearnStrategy,2023.2.3,MacIntel,129.8701299,6,2,13,,,,,,,,5,06,,,,,,,,,,,5,2.271,1,,,,,,-0.428844246,-0.39535797,1,0,0,2.2713,Obsidian_rect,12,0,12,0,1,
65d563ecf8df20ade2f17888,TCN,2024-06-25_09h42.23.242,LearnStrategy,2023.2.3,MacIntel,129.8701299,6,2,14,,,,,,,,7,04,,,,,,,,,,,7,4.459,1,,,,,,0.13723545,-0.400024802,1,0,0,4.4586,Peridotite_rect,13,0,13,0,1,
65d563ecf8df20ade2f17888,TCN,2024-06-25_09h42.23.242,LearnStrategy,2023.2.3,MacIntel,129.8701299,6,2,15,,,,,,,,7,10,,,,,,,,,,,7,10.995,1,,,,,,0.130720899,-0.386553406,1,0,0,10.9948,Peridotite_rect,14,0,14,0,1,
65d563ecf8df20ade2f17888,TCN,2024-06-25_09h42.23.242,LearnStrategy,2023.2.3,MacIntel,129.8701299,6,2,16,,,,,,,,1,07,,,,,,,,,,,1,9.307,1,,,,,,-0.39068287,-0.256361607,1,0,0,9.3073,Andesite_rect,15,0,15,0,1,
65d563ecf8df20ade2f17888,TCN,2024-06-25_09h42.23.242,LearnStrategy,2023.2.3,MacIntel,129.8701299,7,1,1,0.012929894,-0.002430556,1,0,0,1.18,rock_grid_rect_2,3,10,-1,-1,1.18,-0.348210152,-0.230923446,1,0,0,9.9169,Andesite_rect,1,9.917,0,0,0,0,0,1,,,,,,,,,,,,,
65d563ecf8df20ade2f17888,TCN,2024-06-25_09h42.23.242,LearnStrategy,2023.2.3,MacIntel,129.8701299,7,1,2,0.0104208,-0.004596561,1,0,0,10.0706,rock_grid_rect_2,4,08,-1,-1,10.071,0.349842923,-0.258568948,1,0,0,35.5516,Gabbro_rect,4,35.552,1,1,0,1,0,1,,,,,,,,,,,,,
65d563ecf8df20ade2f17888,TCN,2024-06-25_09h42.23.242,LearnStrategy,2023.2.3,MacIntel,129.8701299,7,1,3,0.047771991,0.007060185,1,0,0,1.0131,rock_grid_rect_2,4,10,-1,-1,1.013,0.402223876,-0.240873016,1,0,0,7.4697,Gabbro_rect,4,7.47,1,2,0,2,0,1,,,,,,,,,,,,,
65d563ecf8df20ade2f17888,TCN,2024-06-25_09h42.23.242,LearnStrategy,2023.2.3,MacIntel,129.8701299,7,1,4,0.005815972,0.002376819,1,0,0,0.9312,rock_grid_rect_2,2,12,-1,-1,0.931,-0.117042824,-0.241823743,1,0,0,1.8506,Basalt_rect,2,1.851,1,3,0,3,0,1,,,,,,,,,,,,,
65d563ecf8df20ade2f17888,TCN,2024-06-25_09h42.23.242,LearnStrategy,2023.2.3,MacIntel,129.8701299,7,1,5,0.079013724,-0.020523313,1,0,0,0.8551,rock_grid_rect_2,6,03,-1,-1,0.855,-0.109800761,-0.421387235,1,0,0,1.1834,Pegmatite_rect,6,1.183,1,4,0,4,0,1,,,,,,,,,,,,,
65d563ecf8df20ade2f17888,TCN,2024-06-25_09h42.23.242,LearnStrategy,2023.2.3,MacIntel,129.8701299,7,1,6,-0.007320602,-0.004108796,1,0,0,0.8477,rock_grid_rect_2,2,06,-1,-1,0.848,-0.090207507,-0.246391369,1,0,0,1.7552,Basalt_rect,2,1.755,1,5,0,5,0,1,,,,,,,,,,,,,
65d563ecf8df20ade2f17888,TCN,2024-06-25_09h42.23.242,LearnStrategy,2023.2.3,MacIntel,129.8701299,7,1,7,0.007556217,-0.009114583,1,0,0,0.8473,rock_grid_rect_2,7,06,-1,-1,0.847,0.104278274,-0.395957341,1,0,0,1.4295,Peridotite_rect,7,1.43,1,6,0,6,0,1,,,,,,,,,,,,,
65d563ecf8df20ade2f17888,TCN,2024-06-25_09h42.23.242,LearnStrategy,2023.2.3,MacIntel,129.8701299,7,1,8,0.005770503,-0.003220073,1,0,0,0.8039,rock_grid_rect_2,5,07,-1,-1,0.804,-0.330291005,-0.390269511,1,0,0,1.1267,Obsidian_rect,5,1.127,1,7,0,7,0,1,,,,,,,,,,,,,
65d563ecf8df20ade2f17888,TCN,2024-06-25_09h42.23.242,LearnStrategy,2023.2.3,MacIntel,129.8701299,7,1,9,0.033829365,-0.009730489,1,0,0,0.9232,rock_grid_rect_2,5,11,-1,-1,0.923,-0.36155754,-0.399470899,1,0,0,1.138,Obsidian_rect,5,1.138,1,8,0,8,0,1,,,,,,,,,,,,,
65d563ecf8df20ade2f17888,TCN,2024-06-25_09h42.23.242,LearnStrategy,2023.2.3,MacIntel,129.8701299,7,1,10,0.024590774,-0.015215774,1,0,0,0.8316,rock_grid_rect_2,1,11,-1,-1,0.832,-0.356564153,-0.243154762,1,0,0,1.5928,Andesite_rect,1,1.593,1,9,0,9,0,1,,,,,,,,,,,,,
65d563ecf8df20ade2f17888,TCN,2024-06-25_09h42.23.242,LearnStrategy,2023.2.3,MacIntel,129.8701299,7,1,11,-0.011197917,-0.009031911,1,0,0,0.9541,rock_grid_rect_2,8,06,-1,-1,0.954,0.377666171,-0.41973793,1,0,0,1.3715,Pumice_rect,8,1.371,1,10,0,10,0,1,,,,,,,,,,,,,
65d563ecf8df20ade2f17888,TCN,2024-06-25_09h42.23.242,LearnStrategy,2023.2.3,MacIntel,129.8701299,7,1,12,-0.028678902,-0.00063244,1,0,0,0.9159,rock_grid_rect_2,6,13,-1,-1,0.916,0.114678406,-0.407725694,1,0,0,1.782,Peridotite_rect,7,1.782,0,11,0,11,0,1,,,,,,,,,,,,,
65d563ecf8df20ade2f17888,TCN,2024-06-25_09h42.23.242,LearnStrategy,2023.2.3,MacIntel,129.8701299,7,1,13,0.046957672,0.011140046,1,0,0,1.1208,rock_grid_rect_2,3,15,-1,-1,1.121,0.158556548,-0.241273975,1,0,0,3.9829,Diorite_rect,3,3.983,1,12,0,12,0,1,,,,,,,,,,,,,
65d563ecf8df20ade2f17888,TCN,2024-06-25_09h42.23.242,LearnStrategy,2023.2.3,MacIntel,129.8701299,7,1,14,0.021102017,0.013781415,1,0,0,1.4206,rock_grid_rect_2,1,16,-1,-1,1.421,-0.325591104,-0.238029101,1,0,0,1.7754,Andesite_rect,1,1.775,1,13,0,13,0,1,,,,,,,,,,,,,
65d563ecf8df20ade2f17888,TCN,2024-06-25_09h42.23.242,LearnStrategy,2023.2.3,MacIntel,129.8701299,7,1,15,-0.043080357,0.00229828,1,0,0,1.0864,rock_grid_rect_2,7,12,-1,-1,1.086,0.087541336,-0.408672288,1,0,0,3.0401,Peridotite_rect,7,3.04,1,14,0,14,0,1,,,,,,,,,,,,,
65d563ecf8df20ade2f17888,TCN,2024-06-25_09h42.23.242,LearnStrategy,2023.2.3,MacIntel,129.8701299,7,1,16,-0.027037864,-0.021999008,1,0,0,1.2526,rock_grid_rect_2,8,02,-1,-1,1.253,0.375243882,-0.404555225,1,0,0,1.251,Pumice_rect,8,1.251,1,15,0,15,0,1,,,,,,,,,,,,,
65d563ecf8df20ade2f17888,TCN,2024-06-25_09h42.23.242,LearnStrategy,2023.2.3,MacIntel,129.8701299,7,2,1,,,,,,,,3,16,,,,,,,,,,,1,5.022,0,,,,,,-0.324921462,-0.228488757,1,0,0,5.022,Andesite_rect,0,0,0,0,1,
65d563ecf8df20ade2f17888,TCN,2024-06-25_09h42.23.242,LearnStrategy,2023.2.3,MacIntel,129.8701299,7,2,2,,,,,,,,5,16,,,,,,,,,,,5,1.026,1,,,,,,-0.387392526,-0.414492394,1,0,0,1.0265,Obsidian_rect,1,0,1,0,1,
65d563ecf8df20ade2f17888,TCN,2024-06-25_09h42.23.242,LearnStrategy,2023.2.3,MacIntel,129.8701299,7,2,3,,,,,,,,4,03,,,,,,,,,,,4,20.239,1,,,,,,0.370093419,-0.253381283,1,0,0,20.2387,Gabbro_rect,2,0,2,0,1,
65d563ecf8df20ade2f17888,TCN,2024-06-25_09h42.23.242,LearnStrategy,2023.2.3,MacIntel,129.8701299,7,2,4,,,,,,,,1,01,,,,,,,,,,,4,9.848,0,,,,,,0.418816138,-0.239604001,1,0,0,9.8475,Gabbro_rect,3,0,3,0,1,
65d563ecf8df20ade2f17888,TCN,2024-06-25_09h42.23.242,LearnStrategy,2023.2.3,MacIntel,129.8701299,7,2,5,,,,,,,,5,06,,,,,,,,,,,5,1.196,1,,,,,,-0.329402282,-0.406440146,1,0,0,1.1964,Obsidian_rect,4,0,4,0,1,
65d563ecf8df20ade2f17888,TCN,2024-06-25_09h42.23.242,LearnStrategy,2023.2.3,MacIntel,129.8701299,7,2,6,,,,,,,,8,04,,,,,,,,,,,8,1.799,1,,,,,,0.361921296,-0.391736938,1,0,0,1.7991,Pumice_rect,5,0,5,0,1,
65d563ecf8df20ade2f17888,TCN,2024-06-25_09h42.23.242,LearnStrategy,2023.2.3,MacIntel,129.8701299,7,2,7,,,,,,,,7,10,,,,,,,,,,,7,6.366,1,,,,,,0.101521164,-0.414186508,1,0,0,6.3662,Peridotite_rect,6,0,6,0,1,
65d563ecf8df20ade2f17888,TCN,2024-06-25_09h42.23.242,LearnStrategy,2023.2.3,MacIntel,129.8701299,7,2,8,,,,,,,,8,10,,,,,,,,,,,8,6.131,1,,,,,,0.423040675,-0.409193122,1,0,0,6.1315,Pumice_rect,7,0,7,0,1,
65d563ecf8df20ade2f17888,TCN,2024-06-25_09h42.23.242,LearnStrategy,2023.2.3,MacIntel,129.8701299,7,2,9,,,,,,,,6,16,,,,,,,,,,,6,5.144,1,,,,,,-0.118708664,-0.396002811,1,0,0,5.1438,Pegmatite_rect,8,0,8,0,1,
65d563ecf8df20ade2f17888,TCN,2024-06-25_09h42.23.242,LearnStrategy,2023.2.3,MacIntel,129.8701299,7,2,10,,,,,,,,1,14,,,,,,,,,,,7,15.21,0,,,,,,0.14208416,-0.399875992,1,0,0,15.2103,Peridotite_rect,9,0,9,0,1,
65d563ecf8df20ade2f17888,TCN,2024-06-25_09h42.23.242,LearnStrategy,2023.2.3,MacIntel,129.8701299,7,2,11,,,,,,,,3,08,,,,,,,,,,,3,7.465,1,,,,,,0.121469907,-0.271647652,1,0,0,7.4645,Diorite_rect,10,0,10,0,1,
65d563ecf8df20ade2f17888,TCN,2024-06-25_09h42.23.242,LearnStrategy,2023.2.3,MacIntel,129.8701299,7,2,12,,,,,,,,7,05,,,,,,,,,,,7,18.355,1,,,,,,0.114186508,-0.381159061,1,0,0,18.3555,Peridotite_rect,11,0,11,0,1,
65d563ecf8df20ade2f17888,TCN,2024-06-25_09h42.23.242,LearnStrategy,2023.2.3,MacIntel,129.8701299,7,2,13,,,,,,,,2,11,,,,,,,,,,,4,10.167,0,,,,,,0.45297619,-0.229199735,1,0,0,10.167,Gabbro_rect,12,0,12,0,1,
65d563ecf8df20ade2f17888,TCN,2024-06-25_09h42.23.242,LearnStrategy,2023.2.3,MacIntel,129.8701299,7,2,14,,,,,,,,2,08,,,,,,,,,,,2,0.975,1,,,,,,-0.13552414,-0.240868882,1,0,0,0.9747,Basalt_rect,13,0,13,0,1,
65d563ecf8df20ade2f17888,TCN,2024-06-25_09h42.23.242,LearnStrategy,2023.2.3,MacIntel,129.8701299,7,2,15,,,,,,,,4,11,,,,,,,,,,,4,19.518,1,,,,,,0.418890542,-0.26323578,1,0,0,19.5183,Gabbro_rect,14,0,14,0,1,
65d563ecf8df20ade2f17888,TCN,2024-06-25_09h42.23.242,LearnStrategy,2023.2.3,MacIntel,129.8701299,7,2,16,,,,,,,,6,12,,,,,,,,,,,6,1.33,1,,,,,,-0.127013062,-0.397792659,1,0,0,1.3302,Pegmatite_rect,15,0,15,0,1,
65d563ecf8df20ade2f17888,TCN,2024-06-25_09h42.23.242,LearnStrategy,2023.2.3,MacIntel,129.8701299,8,1,1,-0.011164848,0.018861607,1,0,0,1.2564,rock_grid_rect_2,8,08,-1,-1,1.256,0.405931713,-0.390997024,1,0,0,7.9429,Pumice_rect,8,7.943,1,0,0,0,0,1,,,,,,,,,,,,,
65d563ecf8df20ade2f17888,TCN,2024-06-25_09h42.23.242,LearnStrategy,2023.2.3,MacIntel,129.8701299,8,1,2,0.025438161,-0.004253472,1,0,0,0.8552,rock_grid_rect_2,5,05,-1,-1,0.855,-0.390699405,-0.40557209,1,0,0,1.2379,Obsidian_rect,5,1.238,1,1,0,1,0,1,,,,,,,,,,,,,
65d563ecf8df20ade2f17888,TCN,2024-06-25_09h42.23.242,LearnStrategy,2023.2.3,MacIntel,129.8701299,8,1,3,0.006018519,-0.010255456,1,0,0,0.8214,rock_grid_rect_2,4,05,-1,-1,0.821,0.325545635,-0.246482308,1,0,0,4.4136,Gabbro_rect,4,4.414,1,2,0,2,0,1,,,,,,,,,,,,,
65d563ecf8df20ade2f17888,TCN,2024-06-25_09h42.23.242,LearnStrategy,2023.2.3,MacIntel,129.8701299,8,1,4,-0.004179067,-0.007208995,1,0,0,0.8232,rock_grid_rect_2,2,10,-1,-1,0.823,-0.190963955,-0.250545635,1,0,0,1.4504,Basalt_rect,2,1.45,1,3,0,3,0,1,,,,,,,,,,,,,
65d563ecf8df20ade2f17888,TCN,2024-06-25_09h42.23.242,LearnStrategy,2023.2.3,MacIntel,129.8701299,8,1,5,-0.011933697,-0.008411872,1,0,0,0.7808,rock_grid_rect_2,6,15,-1,-1,0.781,-0.119535384,-0.403261409,1,0,0,1.1367,Pegmatite_rect,6,1.137,1,4,0,4,0,1,,,,,,,,,,,,,
65d563ecf8df20ade2f17888,TCN,2024-06-25_09h42.23.242,LearnStrategy,2023.2.3,MacIntel,129.8701299,8,1,6,0.007266865,-0.018902943,1,0,0,0.7641,rock_grid_rect_2,4,14,-1,-1,0.764,0.395527447,-0.243535053,1,0,0,2.3695,Gabbro_rect,4,2.369,1,5,0,5,0,1,,,,,,,,,,,,,
65d563ecf8df20ade2f17888,TCN,2024-06-25_09h42.23.242,LearnStrategy,2023.2.3,MacIntel,129.8701299,8,1,7,0.08239914,-0.003939319,1,0,0,0.7363,rock_grid_rect_2,2,01,-1,-1,0.736,-0.109085648,-0.239360119,1,0,0,0.9525,Basalt_rect,2,0.953,1,6,0,6,0,1,,,,,,,,,,,,,
65d563ecf8df20ade2f17888,TCN,2024-06-25_09h42.23.242,LearnStrategy,2023.2.3,MacIntel,129.8701299,8,1,8,0.044283234,-0.003625165,1,0,0,0.7818,rock_grid_rect_2,7,08,-1,-1,0.782,0.105348876,-0.40411293,1,0,0,1.2557,Peridotite_rect,7,1.256,1,7,0,7,0,1,,,,,,,,,,,,,
65d563ecf8df20ade2f17888,TCN,2024-06-25_09h42.23.242,LearnStrategy,2023.2.3,MacIntel,129.8701299,8,1,9,0.033552414,-0.020924272,1,0,0,0.6891,rock_grid_rect_2,6,11,-1,-1,0.689,-0.117385913,-0.386929563,1,0,0,1.4569,Pegmatite_rect,6,1.457,1,8,0,8,0,1,,,,,,,,,,,,,
65d563ecf8df20ade2f17888,TCN,2024-06-25_09h42.23.242,LearnStrategy,2023.2.3,MacIntel,129.8701299,8,1,10,0.004340278,0.005357143,1,0,0,0.8635,rock_grid_rect_2,3,12,-1,-1,0.863,0.081278935,-0.245353836,1,0,0,1.7486,Diorite_rect,3,1.749,1,9,0,9,0,1,,,,,,,,,,,,,
65d563ecf8df20ade2f17888,TCN,2024-06-25_09h42.23.242,LearnStrategy,2023.2.3,MacIntel,129.8701299,8,1,11,0.038822751,0.005005787,1,0,0,1.2048,rock_grid_rect_2,7,15,-1,-1,1.205,0.14292328,-0.269713128,1,0,0,1.1387,Diorite_rect,3,1.139,0,10,0,10,0,1,,,,,,,,,,,,,
65d563ecf8df20ade2f17888,TCN,2024-06-25_09h42.23.242,LearnStrategy,2023.2.3,MacIntel,129.8701299,8,1,12,0.020052083,0.005861442,1,0,0,0.6732,rock_grid_rect_2,1,09,-1,-1,0.673,-0.327554563,-0.236181382,1,0,0,2.3129,Andesite_rect,1,2.313,1,11,0,11,0,1,,,,,,,,,,,,,
65d563ecf8df20ade2f17888,TCN,2024-06-25_09h42.23.242,LearnStrategy,2023.2.3,MacIntel,129.8701299,8,1,13,-0.069159226,0.023280423,1,0,0,0.7044,rock_grid_rect_2,8,16,-1,-1,0.704,0.378100198,-0.408738426,1,0,0,6.5005,Pumice_rect,8,6.501,1,12,0,12,0,1,,,,,,,,,,,,,
65d563ecf8df20ade2f17888,TCN,2024-06-25_09h42.23.242,LearnStrategy,2023.2.3,MacIntel,129.8701299,8,1,14,0.033085317,-0.018712798,1,0,0,0.7143,rock_grid_rect_2,1,04,-1,-1,0.714,-0.363938492,-0.243774802,1,0,0,2.7349,Andesite_rect,1,2.735,1,13,0,13,0,1,,,,,,,,,,,,,
65d563ecf8df20ade2f17888,TCN,2024-06-25_09h42.23.242,LearnStrategy,2023.2.3,MacIntel,129.8701299,8,1,15,0.04422123,0.008482143,1,0,0,0.7253,rock_grid_rect_2,5,04,-1,-1,0.725,-0.364810681,-0.40958168,1,0,0,1.2424,Obsidian_rect,5,1.242,1,14,0,14,0,1,,,,,,,,,,,,,
65d563ecf8df20ade2f17888,TCN,2024-06-25_09h42.23.242,LearnStrategy,2023.2.3,MacIntel,129.8701299,8,1,16,0.032113922,-0.02015129,1,0,0,0.8871,rock_grid_rect_2,3,07,-1,-1,0.887,0.097544643,-0.268361442,1,0,0,1.7478,Diorite_rect,3,1.748,1,15,0,15,0,1,,,,,,,,,,,,,
65d563ecf8df20ade2f17888,TCN,2024-06-25_09h42.23.242,LearnStrategy,2023.2.3,MacIntel,129.8701299,8,2,1,,,,,,,,8,13,,,,,,,,,,,8,1.705,1,,,,,,0.406981647,-0.383738426,1,0,0,1.7046,Pumice_rect,0,0,0,0,1,
65d563ecf8df20ade2f17888,TCN,2024-06-25_09h42.23.242,LearnStrategy,2023.2.3,MacIntel,129.8701299,8,2,2,,,,,,,,3,13,,,,,,,,,,,3,1.111,1,,,,,,0.145854001,-0.235904431,1,0,0,1.1109,Diorite_rect,1,0,1,0,1,
65d563ecf8df20ade2f17888,TCN,2024-06-25_09h42.23.242,LearnStrategy,2023.2.3,MacIntel,129.8701299,8,2,3,,,,,,,,3,14,,,,,,,,,,,3,0.691,1,,,,,,0.145854001,-0.235904431,1,0,0,0.691,Diorite_rect,2,0,2,0,1,
65d563ecf8df20ade2f17888,TCN,2024-06-25_09h42.23.242,LearnStrategy,2023.2.3,MacIntel,129.8701299,8,2,4,,,,,,,,7,07,,,,,,,,,,,7,1.16,1,,,,,,0.134738757,-0.397999339,1,0,0,1.1602,Peridotite_rect,3,0,3,0,1,
65d563ecf8df20ade2f17888,TCN,2024-06-25_09h42.23.242,LearnStrategy,2023.2.3,MacIntel,129.8701299,8,2,5,,,,,,,,8,03,,,,,,,,,,,8,1.102,1,,,,,,0.370659722,-0.411780754,1,0,0,1.1016,Pumice_rect,4,0,4,0,1,
65d563ecf8df20ade2f17888,TCN,2024-06-25_09h42.23.242,LearnStrategy,2023.2.3,MacIntel,129.8701299,8,2,6,,,,,,,,1,07,,,,,,,,,,,1,1.56,1,,,,,,-0.342179233,-0.229224537,1,0,0,1.5598,Andesite_rect,5,0,5,0,1,
65d563ecf8df20ade2f17888,TCN,2024-06-25_09h42.23.242,LearnStrategy,2023.2.3,MacIntel,129.8701299,8,2,7,,,,,,,,4,13,,,,,,,,,,,4,24.712,1,,,,,,0.428550761,-0.239546131,1,0,0,24.7123,Gabbro_rect,6,0,6,0,1,
65d563ecf8df20ade2f17888,TCN,2024-06-25_09h42.23.242,LearnStrategy,2023.2.3,MacIntel,129.8701299,8,2,8,,,,,,,,2,09,,,,,,,,,,,2,9.046,1,,,,,,-0.141232639,-0.269155093,1,0,0,9.0464,Basalt_rect,7,0,7,0,1,
65d563ecf8df20ade2f17888,TCN,2024-06-25_09h42.23.242,LearnStrategy,2023.2.3,MacIntel,129.8701299,8,2,9,,,,,,,,6,06,,,,,,,,,,,6,9.11,1,,,,,,-0.112148644,-0.389471726,1,0,0,9.1099,Pegmatite_rect,8,0,8,0,1,
65d563ecf8df20ade2f17888,TCN,2024-06-25_09h42.23.242,LearnStrategy,2023.2.3,MacIntel,129.8701299,8,2,10,,,,,,,,2,04,,,,,,,,,,,2,1.167,1,,,,,,-0.11546379,-0.254559358,1,0,0,1.167,Basalt_rect,9,0,9,0,1,
65d563ecf8df20ade2f17888,TCN,2024-06-25_09h42.23.242,LearnStrategy,2023.2.3,MacIntel,129.8701299,8,2,11,,,,,,,,5,02,,,,,,,,,,,5,1.365,1,,,,,,-0.321275628,-0.391364914,1,0,0,1.3654,Obsidian_rect,10,0,10,0,1,
65d563ecf8df20ade2f17888,TCN,2024-06-25_09h42.23.242,LearnStrategy,2023.2.3,MacIntel,129.8701299,8,2,12,,,,,,,,5,10,,,,,,,,,,,5,0.873,1,,,,,,-0.326347553,-0.391422784,1,0,0,0.8733,Obsidian_rect,11,0,11,0,1,
65d563ecf8df20ade2f17888,TCN,2024-06-25_09h42.23.242,LearnStrategy,2023.2.3,MacIntel,129.8701299,8,2,13,,,,,,,,1,06,,,,,,,,,,,1,2.193,1,,,,,,-0.357676091,-0.23656994,1,0,0,2.1935,Andesite_rect,12,0,12,0,1,
65d563ecf8df20ade2f17888,TCN,2024-06-25_09h42.23.242,LearnStrategy,2023.2.3,MacIntel,129.8701299,8,2,14,,,,,,,,6,08,,,,,,,,,,,6,1.835,1,,,,,,-0.141216104,-0.395614253,1,0,0,1.8353,Pegmatite_rect,13,0,13,0,1,
65d563ecf8df20ade2f17888,TCN,2024-06-25_09h42.23.242,LearnStrategy,2023.2.3,MacIntel,129.8701299,8,2,15,,,,,,,,7,04,,,,,,,,,,,7,21.416,1,,,,,,0.124475033,-0.401438492,1,0,0,21.4155,Peridotite_rect,14,0,14,0,1,
65d563ecf8df20ade2f17888,TCN,2024-06-25_09h42.23.242,LearnStrategy,2023.2.3,MacIntel,129.8701299,8,2,16,,,,,,,,4,15,,,,,,,,,,,4,4.591,1,,,,,,0.358366402,-0.250276951,1,0,0,4.5906,Gabbro_rect,15,0,15,0,1,
65d563ecf8df20ade2f17888,TCN,2024-06-25_09h42.23.242,LearnStrategy,2023.2.3,MacIntel,129.8701299,9,1,1,0.043262235,0.005195933,1,0,0,1.1123,rock_grid_rect_2,3,02,-1,-1,1.112,0.113760747,-0.230725033,1,0,0,2.0663,Diorite_rect,3,2.066,1,0,0,0,0,1,,,,,,,,,,,,,
65d563ecf8df20ade2f17888,TCN,2024-06-25_09h42.23.242,LearnStrategy,2023.2.3,MacIntel,129.8701299,9,1,2,0.069328704,-0.002116402,1,0,0,1.0143,rock_grid_rect_2,7,13,-1,-1,1.014,0.138574735,-0.407849702,1,0,0,1.5032,Peridotite_rect,7,1.503,1,1,0,1,0,1,,,,,,,,,,,,,
65d563ecf8df20ade2f17888,TCN,2024-06-25_09h42.23.242,LearnStrategy,2023.2.3,MacIntel,129.8701299,9,1,3,0.075706845,-0.004083995,1,0,0,0.7886,rock_grid_rect_2,4,12,-1,-1,0.789,0.337433862,-0.271023479,1,0,0,3.1121,Gabbro_rect,4,3.112,1,2,0,2,0,1,,,,,,,,,,,,,
65d563ecf8df20ade2f17888,TCN,2024-06-25_09h42.23.242,LearnStrategy,2023.2.3,MacIntel,129.8701299,9,1,4,0.092824074,0.010040509,1,0,0,0.881,rock_grid_rect_2,2,05,-1,-1,0.881,-0.180348876,-0.26708416,1,0,0,1.0222,Basalt_rect,2,1.022,1,3,0,3,0,1,,,,,,,,,,,,,
65d563ecf8df20ade2f17888,TCN,2024-06-25_09h42.23.242,LearnStrategy,2023.2.3,MacIntel,129.8701299,9,1,5,0.00453869,-0.000607639,1,0,0,0.9649,rock_grid_rect_2,6,10,-1,-1,0.965,-0.149809854,-0.390203373,1,0,0,1.1425,Pegmatite_rect,6,1.142,1,4,0,4,0,1,,,,,,,,,,,,,
65d563ecf8df20ade2f17888,TCN,2024-06-25_09h42.23.242,LearnStrategy,2023.2.3,MacIntel,129.8701299,9,1,6,-0.047743056,0.002335483,1,0,0,0.7518,rock_grid_rect_2,3,11,-1,-1,0.752,0.135379464,-0.237615741,1,0,0,1.5935,Diorite_rect,3,1.593,1,5,0,5,0,1,,,,,,,,,,,,,
65d563ecf8df20ade2f17888,TCN,2024-06-25_09h42.23.242,LearnStrategy,2023.2.3,MacIntel,129.8701299,9,1,7,0.013930225,-0.003249008,1,0,0,0.6978,rock_grid_rect_2,4,01,-1,-1,0.698,0.380084325,-0.233424272,1,0,0,3.5419,Gabbro_rect,4,3.542,1,6,0,6,0,1,,,,,,,,,,,,,
65d563ecf8df20ade2f17888,TCN,2024-06-25_09h42.23.242,LearnStrategy,2023.2.3,MacIntel,129.8701299,9,1,8,0.037570271,0.006936177,1,0,0,0.9143,rock_grid_rect_2,6,07,-1,-1,0.914,-0.119208829,-0.407700893,1,0,0,1.4478,Pegmatite_rect,6,1.448,1,7,0,7,0,1,,,,,,,,,,,,,
65d563ecf8df20ade2f17888,TCN,2024-06-25_09h42.23.242,LearnStrategy,2023.2.3,MacIntel,129.8701299,9,1,9,0.033850033,0.023499504,1,0,0,0.7145,rock_grid_rect_2,1,05,-1,-1,0.715,-0.357762897,-0.254699901,1,0,0,2.1355,Andesite_rect,1,2.135,1,8,0,8,0,1,,,,,,,,,,,,,
65d563ecf8df20ade2f17888,TCN,2024-06-25_09h42.23.242,LearnStrategy,2023.2.3,MacIntel,129.8701299,9,1,10,0.043812004,0.003567295,1,0,0,0.7493,rock_grid_rect_2,8,15,-1,-1,0.749,0.424119544,-0.4109375,1,0,0,1.5856,Pumice_rect,8,1.586,1,9,0,9,0,1,,,,,,,,,,,,,
65d563ecf8df20ade2f17888,TCN,2024-06-25_09h42.23.242,LearnStrategy,2023.2.3,MacIntel,129.8701299,9,1,11,-0.000152943,-0.011516204,1,0,0,0.7893,rock_grid_rect_2,1,02,-1,-1,0.789,-0.307440476,-0.240033896,1,0,0,1.4439,Andesite_rect,1,1.444,1,10,0,10,0,1,,,,,,,,,,,,,
65d563ecf8df20ade2f17888,TCN,2024-06-25_09h42.23.242,LearnStrategy,2023.2.3,MacIntel,129.8701299,9,1,12,0.032035384,0.010296792,1,0,0,0.8475,rock_grid_rect_2,8,14,-1,-1,0.847,0.360805225,-0.388165509,1,0,0,1.9519,Pumice_rect,8,1.952,1,11,0,11,0,1,,,,,,,,,,,,,
65d563ecf8df20ade2f17888,TCN,2024-06-25_09h42.23.242,LearnStrategy,2023.2.3,MacIntel,129.8701299,9,1,13,0.068754134,-0.013996362,1,0,0,0.615,rock_grid_rect_2,2,14,-1,-1,0.615,0.317795139,-0.228513558,1,0,0,7.5489,Gabbro_rect,4,7.549,0,12,0,12,0,1,,,,,,,,,,,,,
65d563ecf8df20ade2f17888,TCN,2024-06-25_09h42.23.242,LearnStrategy,2023.2.3,MacIntel,129.8701299,9,1,14,-0.035896164,-0.016476521,1,0,0,0.8376,rock_grid_rect_2,5,09,-1,-1,0.838,-0.359387401,-0.396250827,1,0,0,1.6258,Obsidian_rect,5,1.626,1,13,0,13,0,1,,,,,,,,,,,,,
65d563ecf8df20ade2f17888,TCN,2024-06-25_09h42.23.242,LearnStrategy,2023.2.3,MacIntel,129.8701299,9,1,15,0.01911789,0.007485946,1,0,0,0.7648,rock_grid_rect_2,7,14,-1,-1,0.765,0.097110615,-0.412231316,1,0,0,1.7765,Peridotite_rect,7,1.776,1,14,0,14,0,1,,,,,,,,,,,,,
65d563ecf8df20ade2f17888,TCN,2024-06-25_09h42.23.242,LearnStrategy,2023.2.3,MacIntel,129.8701299,9,1,16,0.04015377,0.022523975,1,0,0,0.9551,rock_grid_rect_2,5,12,-1,-1,0.955,-0.351541832,-0.390455522,1,0,0,1.7348,Obsidian_rect,5,1.735,1,15,0,15,0,1,,,,,,,,,,,,,
65d563ecf8df20ade2f17888,TCN,2024-06-25_09h42.23.242,LearnStrategy,2023.2.3,MacIntel,129.8701299,9,2,1,,,,,,,,7,16,,,,,,,,,,,7,11.437,1,,,,,,0.158895503,-0.406365741,1,0,0,11.4371,Peridotite_rect,0,0,0,0,1,
65d563ecf8df20ade2f17888,TCN,2024-06-25_09h42.23.242,LearnStrategy,2023.2.3,MacIntel,129.8701299,9,2,2,,,,,,,,5,14,,,,,,,,,,,5,1.156,1,,,,,,-0.365054563,-0.392356978,1,0,0,1.1564,Obsidian_rect,1,0,1,0,1,
65d563ecf8df20ade2f17888,TCN,2024-06-25_09h42.23.242,LearnStrategy,2023.2.3,MacIntel,129.8701299,9,2,3,,,,,,,,4,16,,,,,,,,,,,4,13.697,1,,,,,,0.399470899,-0.258056382,1,0,0,13.6967,Gabbro_rect,2,0,2,0,1,
65d563ecf8df20ade2f17888,TCN,2024-06-25_09h42.23.242,LearnStrategy,2023.2.3,MacIntel,129.8701299,9,2,4,,,,,,,,6,09,,,,,,,,,,,6,1.108,1,,,,,,-0.152104001,-0.397156085,1,0,0,1.1082,Pegmatite_rect,3,0,3,0,1,
65d563ecf8df20ade2f17888,TCN,2024-06-25_09h42.23.242,LearnStrategy,2023.2.3,MacIntel,129.8701299,9,2,5,,,,,,,,6,05,,,,,,,,,,,6,1.553,1,,,,,,-0.124479167,-0.41255787,1,0,0,1.5532,Pegmatite_rect,4,0,4,0,1,
65d563ecf8df20ade2f17888,TCN,2024-06-25_09h42.23.242,LearnStrategy,2023.2.3,MacIntel,129.8701299,9,2,6,,,,,,,,8,05,,,,,,,,,,,8,2.517,1,,,,,,0.356212798,-0.379600694,1,0,0,2.5171,Pumice_rect,5,0,5,0,1,
65d563ecf8df20ade2f17888,TCN,2024-06-25_09h42.23.242,LearnStrategy,2023.2.3,MacIntel,129.8701299,9,2,7,,,,,,,,1,10,,,,,,,,,,,1,1.517,1,,,,,,-0.439318783,-0.242088294,1,0,0,1.5167,Andesite_rect,6,0,6,0,1,
65d563ecf8df20ade2f17888,TCN,2024-06-25_09h42.23.242,LearnStrategy,2023.2.3,MacIntel,129.8701299,9,2,8,,,,,,,,8,09,,,,,,,,,,,8,2.077,1,,,,,,0.363917824,-0.406464947,1,0,0,2.0766,Pumice_rect,7,0,7,0,1,
65d563ecf8df20ade2f17888,TCN,2024-06-25_09h42.23.242,LearnStrategy,2023.2.3,MacIntel,129.8701299,9,2,9,,,,,,,,3,06,,,,,,,,,,,3,1.912,1,,,,,,0.127463624,-0.24463459,1,0,0,1.912,Diorite_rect,8,0,8,0,1,
65d563ecf8df20ade2f17888,TCN,2024-06-25_09h42.23.242,LearnStrategy,2023.2.3,MacIntel,129.8701299,9,2,10,,,,,,,,3,09,,,,,,,,,,,3,0.882,1,,,,,,0.120126488,-0.240765542,1,0,0,0.8822,Diorite_rect,9,0,9,0,1,
65d563ecf8df20ade2f17888,TCN,2024-06-25_09h42.23.242,LearnStrategy,2023.2.3,MacIntel,129.8701299,9,2,11,,,,,,,,2,02,,,,,,,,,,,2,1.111,1,,,,,,-0.095138889,-0.269704861,1,0,0,1.1109,Basalt_rect,10,0,10,0,1,
65d563ecf8df20ade2f17888,TCN,2024-06-25_09h42.23.242,LearnStrategy,2023.2.3,MacIntel,129.8701299,9,2,12,,,,,,,,7,02,,,,,,,,,,,7,2.944,1,,,,,,0.098292824,-0.380650628,1,0,0,2.9442,Peridotite_rect,11,0,11,0,1,
65d563ecf8df20ade2f17888,TCN,2024-06-25_09h42.23.242,LearnStrategy,2023.2.3,MacIntel,129.8701299,9,2,13,,,,,,,,2,16,,,,,,,,,,,2,1.105,1,,,,,,-0.079542824,-0.230890377,1,0,0,1.1047,Basalt_rect,12,0,12,0,1,
65d563ecf8df20ade2f17888,TCN,2024-06-25_09h42.23.242,LearnStrategy,2023.2.3,MacIntel,129.8701299,9,2,14,,,,,,,,5,08,,,,,,,,,,,5,1.118,1,,,,,,-0.359160053,-0.396631118,1,0,0,1.118,Obsidian_rect,13,0,13,0,1,
65d563ecf8df20ade2f17888,TCN,2024-06-25_09h42.23.242,LearnStrategy,2023.2.3,MacIntel,129.8701299,9,2,15,,,,,,,,4,09,,,,,,,,,,,4,1.696,1,,,,,,0.331010251,-0.251946925,1,0,0,1.6957,Gabbro_rect,14,0,14,0,1,
65d563ecf8df20ade2f17888,TCN,2024-06-25_09h42.23.242,LearnStrategy,2023.2.3,MacIntel,129.8701299,9,2,16,,,,,,,,1,03,,,,,,,,,,,1,1.107,1,,,,,,-0.394766865,-0.270920139,1,0,0,1.1067,Andesite_rect,15,0,15,0,1,
65d563ecf8df20ade2f17888,TCN,2024-06-25_09h42.23.242,LearnStrategy,2023.2.3,MacIntel,129.8701299,,,,,,,,,,,,,,,,,,,,,,,,,,,,,,,,,,,,,,,,,,,1
65d563ecf8df20ade2f17888,TCN,2024-06-25_09h42.23.242,LearnStrategy,2023.2.3,MacIntel,129.8701299,,,,,,,,,,,,,,,,,,,,,,,,,,,,,,,,,,,,,,,,,,,
65d563ecf8df20ade2f17888,TCN,2024-06-25_09h42.23.242,LearnStrategy,2023.2.3,MacIntel,129.8701299,,,,,,,,,,,2,01,1,1,,,,,,,,,,,,,,,,,,,,,,,,,,,,,
65d563ecf8df20ade2f17888,TCN,2024-06-25_09h42.23.242,LearnStrategy,2023.2.3,MacIntel,129.8701299,,,,,,,,,,,3,15,1,2,,,,,,,,,,,,,,,,,,,,,,,,,,,,,
65d563ecf8df20ade2f17888,TCN,2024-06-25_09h42.23.242,LearnStrategy,2023.2.3,MacIntel,129.8701299,,,,,,,,,,,8,15,1,3,,,,,,,,,,,,,,,,,,,,,,,,,,,,,
65d563ecf8df20ade2f17888,TCN,2024-06-25_09h42.23.242,LearnStrategy,2023.2.3,MacIntel,129.8701299,,,,,,,,,,,3,11,1,4,,,,,,,,,,,,,,,,,,,,,,,,,,,,,
65d563ecf8df20ade2f17888,TCN,2024-06-25_09h42.23.242,LearnStrategy,2023.2.3,MacIntel,129.8701299,,,,,,,,,,,6,07,1,5,,,,,,,,,,,,,,,,,,,,,,,,,,,,,
65d563ecf8df20ade2f17888,TCN,2024-06-25_09h42.23.242,LearnStrategy,2023.2.3,MacIntel,129.8701299,,,,,,,,,,,5,12,1,6,,,,,,,,,,,,,,,,,,,,,,,,,,,,,
65d563ecf8df20ade2f17888,TCN,2024-06-25_09h42.23.242,LearnStrategy,2023.2.3,MacIntel,129.8701299,,,,,,,,,,,2,14,1,7,,,,,,,,,,,,,,,,,,,,,,,,,,,,,
65d563ecf8df20ade2f17888,TCN,2024-06-25_09h42.23.242,LearnStrategy,2023.2.3,MacIntel,129.8701299,,,,,,,,,,,2,12,1,8,,,,,,,,,,,,,,,,,,,,,,,,,,,,,
65d563ecf8df20ade2f17888,TCN,2024-06-25_09h42.23.242,LearnStrategy,2023.2.3,MacIntel,129.8701299,,,,,,,,,,,4,08,2,1,,,,,,,,,,,,,,,,,,,,,,,,,,,,,
65d563ecf8df20ade2f17888,TCN,2024-06-25_09h42.23.242,LearnStrategy,2023.2.3,MacIntel,129.8701299,,,,,,,,,,,2,10,2,2,,,,,,,,,,,,,,,,,,,,,,,,,,,,,
65d563ecf8df20ade2f17888,TCN,2024-06-25_09h42.23.242,LearnStrategy,2023.2.3,MacIntel,129.8701299,,,,,,,,,,,1,09,2,3,,,,,,,,,,,,,,,,,,,,,,,,,,,,,
65d563ecf8df20ade2f17888,TCN,2024-06-25_09h42.23.242,LearnStrategy,2023.2.3,MacIntel,129.8701299,,,,,,,,,,,3,10,2,4,,,,,,,,,,,,,,,,,,,,,,,,,,,,,
65d563ecf8df20ade2f17888,TCN,2024-06-25_09h42.23.242,LearnStrategy,2023.2.3,MacIntel,129.8701299,,,,,,,,,,,3,02,2,5,,,,,,,,,,,,,,,,,,,,,,,,,,,,,
65d563ecf8df20ade2f17888,TCN,2024-06-25_09h42.23.242,LearnStrategy,2023.2.3,MacIntel,129.8701299,,,,,,,,,,,6,15,2,6,,,,,,,,,,,,,,,,,,,,,,,,,,,,,
65d563ecf8df20ade2f17888,TCN,2024-06-25_09h42.23.242,LearnStrategy,2023.2.3,MacIntel,129.8701299,,,,,,,,,,,1,11,2,7,,,,,,,,,,,,,,,,,,,,,,,,,,,,,
65d563ecf8df20ade2f17888,TCN,2024-06-25_09h42.23.242,LearnStrategy,2023.2.3,MacIntel,129.8701299,,,,,,,,,,,8,16,2,8,,,,,,,,,,,,,,,,,,,,,,,,,,,,,
65d563ecf8df20ade2f17888,TCN,2024-06-25_09h42.23.242,LearnStrategy,2023.2.3,MacIntel,129.8701299,,,,,,,,,,,1,05,3,1,,,,,,,,,,,,,,,,,,,,,,,,,,,,,
65d563ecf8df20ade2f17888,TCN,2024-06-25_09h42.23.242,LearnStrategy,2023.2.3,MacIntel,129.8701299,,,,,,,,,,,5,07,3,2,,,,,,,,,,,,,,,,,,,,,,,,,,,,,
65d563ecf8df20ade2f17888,TCN,2024-06-25_09h42.23.242,LearnStrategy,2023.2.3,MacIntel,129.8701299,,,,,,,,,,,6,03,3,3,,,,,,,,,,,,,,,,,,,,,,,,,,,,,
65d563ecf8df20ade2f17888,TCN,2024-06-25_09h42.23.242,LearnStrategy,2023.2.3,MacIntel,129.8701299,,,,,,,,,,,6,10,3,4,,,,,,,,,,,,,,,,,,,,,,,,,,,,,
65d563ecf8df20ade2f17888,TCN,2024-06-25_09h42.23.242,LearnStrategy,2023.2.3,MacIntel,129.8701299,,,,,,,,,,,2,05,3,5,,,,,,,,,,,,,,,,,,,,,,,,,,,,,
65d563ecf8df20ade2f17888,TCN,2024-06-25_09h42.23.242,LearnStrategy,2023.2.3,MacIntel,129.8701299,,,,,,,,,,,3,07,3,6,,,,,,,,,,,,,,,,,,,,,,,,,,,,,
65d563ecf8df20ade2f17888,TCN,2024-06-25_09h42.23.242,LearnStrategy,2023.2.3,MacIntel,129.8701299,,,,,,,,,,,8,02,3,7,,,,,,,,,,,,,,,,,,,,,,,,,,,,,
65d563ecf8df20ade2f17888,TCN,2024-06-25_09h42.23.242,LearnStrategy,2023.2.3,MacIntel,129.8701299,,,,,,,,,,,7,14,3,8,,,,,,,,,,,,,,,,,,,,,,,,,,,,,
65d563ecf8df20ade2f17888,TCN,2024-06-25_09h42.23.242,LearnStrategy,2023.2.3,MacIntel,129.8701299,,,,,,,,,,,3,12,4,1,,,,,,,,,,,,,,,,,,,,,,,,,,,,,
65d563ecf8df20ade2f17888,TCN,2024-06-25_09h42.23.242,LearnStrategy,2023.2.3,MacIntel,129.8701299,,,,,,,,,,,5,04,4,2,,,,,,,,,,,,,,,,,,,,,,,,,,,,,
65d563ecf8df20ade2f17888,TCN,2024-06-25_09h42.23.242,LearnStrategy,2023.2.3,MacIntel,129.8701299,,,,,,,,,,,5,05,4,3,,,,,,,,,,,,,,,,,,,,,,,,,,,,,
65d563ecf8df20ade2f17888,TCN,2024-06-25_09h42.23.242,LearnStrategy,2023.2.3,MacIntel,129.8701299,,,,,,,,,,,7,12,4,4,,,,,,,,,,,,,,,,,,,,,,,,,,,,,
65d563ecf8df20ade2f17888,TCN,2024-06-25_09h42.23.242,LearnStrategy,2023.2.3,MacIntel,129.8701299,,,,,,,,,,,1,16,4,5,,,,,,,,,,,,,,,,,,,,,,,,,,,,,
65d563ecf8df20ade2f17888,TCN,2024-06-25_09h42.23.242,LearnStrategy,2023.2.3,MacIntel,129.8701299,,,,,,,,,,,4,01,4,6,,,,,,,,,,,,,,,,,,,,,,,,,,,,,
65d563ecf8df20ade2f17888,TCN,2024-06-25_09h42.23.242,LearnStrategy,2023.2.3,MacIntel,129.8701299,,,,,,,,,,,6,13,4,7,,,,,,,,,,,,,,,,,,,,,,,,,,,,,
65d563ecf8df20ade2f17888,TCN,2024-06-25_09h42.23.242,LearnStrategy,2023.2.3,MacIntel,129.8701299,,,,,,,,,,,1,04,4,8,,,,,,,,,,,,,,,,,,,,,,,,,,,,,
65d563ecf8df20ade2f17888,TCN,2024-06-25_09h42.23.242,LearnStrategy,2023.2.3,MacIntel,129.8701299,,,,,,,,,,,7,13,5,1,,,,,,,,,,,,,,,,,,,,,,,,,,,,,
65d563ecf8df20ade2f17888,TCN,2024-06-25_09h42.23.242,LearnStrategy,2023.2.3,MacIntel,129.8701299,,,,,,,,,,,4,14,5,2,,,,,,,,,,,,,,,,,,,,,,,,,,,,,
65d563ecf8df20ade2f17888,TCN,2024-06-25_09h42.23.242,LearnStrategy,2023.2.3,MacIntel,129.8701299,,,,,,,,,,,4,10,5,3,,,,,,,,,,,,,,,,,,,,,,,,,,,,,
65d563ecf8df20ade2f17888,TCN,2024-06-25_09h42.23.242,LearnStrategy,2023.2.3,MacIntel,129.8701299,,,,,,,,,,,7,08,5,4,,,,,,,,,,,,,,,,,,,,,,,,,,,,,
65d563ecf8df20ade2f17888,TCN,2024-06-25_09h42.23.242,LearnStrategy,2023.2.3,MacIntel,129.8701299,,,,,,,,,,,5,11,5,5,,,,,,,,,,,,,,,,,,,,,,,,,,,,,
65d563ecf8df20ade2f17888,TCN,2024-06-25_09h42.23.242,LearnStrategy,2023.2.3,MacIntel,129.8701299,,,,,,,,,,,7,06,5,6,,,,,,,,,,,,,,,,,,,,,,,,,,,,,
65d563ecf8df20ade2f17888,TCN,2024-06-25_09h42.23.242,LearnStrategy,2023.2.3,MacIntel,129.8701299,,,,,,,,,,,7,15,5,7,,,,,,,,,,,,,,,,,,,,,,,,,,,,,
65d563ecf8df20ade2f17888,TCN,2024-06-25_09h42.23.242,LearnStrategy,2023.2.3,MacIntel,129.8701299,,,,,,,,,,,2,06,5,8,,,,,,,,,,,,,,,,,,,,,,,,,,,,,
65d563ecf8df20ade2f17888,TCN,2024-06-25_09h42.23.242,LearnStrategy,2023.2.3,MacIntel,129.8701299,,,,,,,,,,,5,09,6,1,,,,,,,,,,,,,,,,,,,,,,,,,,,,,
65d563ecf8df20ade2f17888,TCN,2024-06-25_09h42.23.242,LearnStrategy,2023.2.3,MacIntel,129.8701299,,,,,,,,,,,8,14,6,2,,,,,,,,,,,,,,,,,,,,,,,,,,,,,
65d563ecf8df20ade2f17888,TCN,2024-06-25_09h42.23.242,LearnStrategy,2023.2.3,MacIntel,129.8701299,,,,,,,,,,,6,11,6,3,,,,,,,,,,,,,,,,,,,,,,,,,,,,,
65d563ecf8df20ade2f17888,TCN,2024-06-25_09h42.23.242,LearnStrategy,2023.2.3,MacIntel,129.8701299,,,,,,,,,,,8,06,6,4,,,,,,,,,,,,,,,,,,,,,,,,,,,,,
65d563ecf8df20ade2f17888,TCN,2024-06-25_09h42.23.242,LearnStrategy,2023.2.3,MacIntel,129.8701299,,,,,,,,,,,1,02,6,5,,,,,,,,,,,,,,,,,,,,,,,,,,,,,
65d563ecf8df20ade2f17888,TCN,2024-06-25_09h42.23.242,LearnStrategy,2023.2.3,MacIntel,129.8701299,,,,,,,,,,,4,05,6,6,,,,,,,,,,,,,,,,,,,,,,,,,,,,,
65d563ecf8df20ade2f17888,TCN,2024-06-25_09h42.23.242,LearnStrategy,2023.2.3,MacIntel,129.8701299,,,,,,,,,,,8,08,6,7,,,,,,,,,,,,,,,,,,,,,,,,,,,,,
65d563ecf8df20ade2f17888,TCN,2024-06-25_09h42.23.242,LearnStrategy,2023.2.3,MacIntel,129.8701299,,,,,,,,,,,4,12,6,8,,,,,,,,,,,,,,,,,,,,,,,,,,,,,