participant,condition,date,expName,psychopyVersion,OS,frameRate,block,phase,trial,learn_mouse.x,learn_mouse.y,learn_mouse.leftButton,learn_mouse.midButton,learn_mouse.rightButton,learn_mouse.time,learn_mouse.clicked_name,cat,token,row,col,t_select,cat_mouse_l.x,cat_mouse_l.y,cat_mouse_l.leftButton,cat_mouse_l.midButton,cat_mouse_l.rightButton,cat_mouse_l.time,cat_mouse_l.clicked_name,resp,t_resp,corr,train_trials.thisRepN,train_trials.thisTrialN,train_trials.thisN,train_trials.thisIndex,train_trials.ran,cat_mouse_t.x,cat_mouse_t.y,cat_mouse_t.leftButton,cat_mouse_t.midButton,cat_mouse_t.rightButton,cat_mouse_t.time,cat_mouse_t.clicked_name,test_trials.thisRepN,test_trials.thisTrialN,test_trials.thisN,test_trials.thisIndex,test_trials.ran,Bonus
65d62d6afc0dcc5b81ceff41,SCN,2024-06-26_12h35.02.163,LearnStrategy,2023.2.3,Win32,59.88023952,,,,,,,,,,,,,,,,,,,,,,,,,,,,,,,,,,,,,,,,,,,
65d62d6afc0dcc5b81ceff41,SCN,2024-06-26_12h35.02.163,LearnStrategy,2023.2.3,Win32,59.88023952,1,1,1,0.401388875,-0.441203718,1,0,0,4.399,Pumice_02,8,02,1,7,4.399,0.397685228,-0.407407407,1,0,0,4.0371,Pumice_rect,8,4.037,1,0,0,0,0,1,,,,,,,,,,,,,
65d62d6afc0dcc5b81ceff41,SCN,2024-06-26_12h35.02.163,LearnStrategy,2023.2.3,Win32,59.88023952,1,1,2,0.260185171,-0.423148191,1,0,0,1.8889,Gabbro_01,4,01,1,6,1.889,-0.102314772,-0.254166709,1,0,0,1.8384,Basalt_rect,2,1.838,0,1,0,1,0,1,,,,,,,,,,,,,
65d62d6afc0dcc5b81ceff41,SCN,2024-06-26_12h35.02.163,LearnStrategy,2023.2.3,Win32,59.88023952,1,1,3,-0.228703711,-0.238425926,1,0,0,1.4701,Pegmatite_13,6,13,2,3,1.47,-0.365277785,-0.405092593,1,0,0,1.5443,Obsidian_rect,5,1.544,0,2,0,2,0,1,,,,,,,,,,,,,
65d62d6afc0dcc5b81ceff41,SCN,2024-06-26_12h35.02.163,LearnStrategy,2023.2.3,Win32,59.88023952,1,1,4,0.232870384,-0.447685171,1,0,0,2.8973,Gabbro_01,4,01,1,6,2.897,0.363425926,-0.267129616,1,0,0,1.4456,Gabbro_rect,4,1.446,1,3,0,3,0,1,,,,,,,,,,,,,
65d62d6afc0dcc5b81ceff41,SCN,2024-06-26_12h35.02.163,LearnStrategy,2023.2.3,Win32,59.88023952,1,1,5,0.388425968,-0.431944459,1,0,0,1.8661,Pumice_02,8,02,1,7,1.866,0.385185171,-0.419907393,0,0,1,0.7959,Pumice_rect,8,0.796,1,4,0,4,0,1,,,,,,,,,,,,,
65d62d6afc0dcc5b81ceff41,SCN,2024-06-26_12h35.02.163,LearnStrategy,2023.2.3,Win32,59.88023952,1,1,6,0.226388931,-0.438425912,1,0,0,1.2742,Gabbro_01,4,01,1,6,1.274,0.414814843,-0.237963005,1,0,0,2.4637,Gabbro_rect,4,2.464,1,5,0,5,0,1,,,,,,,,,,,,,
65d62d6afc0dcc5b81ceff41,SCN,2024-06-26_12h35.02.163,LearnStrategy,2023.2.3,Win32,59.88023952,1,1,7,0.404166681,-0.433333362,1,0,0,1.1185,Pumice_02,8,02,1,7,1.119,0.398148148,-0.419907393,0,0,1,1.5776,Pumice_rect,8,1.578,1,6,0,6,0,1,,,,,,,,,,,,,
65d62d6afc0dcc5b81ceff41,SCN,2024-06-26_12h35.02.163,LearnStrategy,2023.2.3,Win32,59.88023952,1,1,8,0.549074102,-0.43240745,1,0,0,3.0996,Peridotite_02,7,02,1,8,3.1,0.159259302,-0.39398151,1,0,0,1.3488,Peridotite_rect,7,1.349,1,7,0,7,0,1,,,,,,,,,,,,,
65d62d6afc0dcc5b81ceff41,SCN,2024-06-26_12h35.02.163,LearnStrategy,2023.2.3,Win32,59.88023952,1,1,9,0.239814829,-0.415277764,1,0,0,1.3848,Gabbro_01,4,01,1,6,1.385,0.385185171,-0.261574074,1,0,0,1.7007,Gabbro_rect,4,1.701,1,8,0,8,0,1,,,,,,,,,,,,,
65d62d6afc0dcc5b81ceff41,SCN,2024-06-26_12h35.02.163,LearnStrategy,2023.2.3,Win32,59.88023952,1,1,10,0.429166653,-0.451388889,1,0,0,1.0383,Pumice_02,8,02,1,7,1.038,0.394907422,-0.412500028,1,0,0,0.7185,Pumice_rect,8,0.718,1,9,0,9,0,1,,,,,,,,,,,,,
65d62d6afc0dcc5b81ceff41,SCN,2024-06-26_12h35.02.163,LearnStrategy,2023.2.3,Win32,59.88023952,1,1,11,0.499074159,-0.425463005,1,0,0,1.0268,Peridotite_02,7,02,1,8,1.027,0.166666667,-0.401851866,1,0,0,1.079,Peridotite_rect,7,1.079,1,10,0,10,0,1,,,,,,,,,,,,,
65d62d6afc0dcc5b81ceff41,SCN,2024-06-26_12h35.02.163,LearnStrategy,2023.2.3,Win32,59.88023952,1,1,12,-0.541666667,-0.422685199,1,0,0,1.4228,Pegmatite_12,6,12,1,1,1.423,-0.414814808,-0.245833362,1,0,0,1.7018,Andesite_rect,1,1.702,0,11,0,11,0,1,,,,,,,,,,,,,
65d62d6afc0dcc5b81ceff41,SCN,2024-06-26_12h35.02.163,LearnStrategy,2023.2.3,Win32,59.88023952,1,1,13,-0.559722212,-0.421296296,1,0,0,1.3852,Pegmatite_12,6,12,1,1,1.385,-0.078703704,-0.40370369,1,0,0,1.3583,Pegmatite_rect,6,1.358,1,12,0,12,0,1,,,,,,,,,,,,,
65d62d6afc0dcc5b81ceff41,SCN,2024-06-26_12h35.02.163,LearnStrategy,2023.2.3,Win32,59.88023952,1,1,14,0.224074116,-0.406018504,1,0,0,1.2537,Gabbro_01,4,01,1,6,1.254,0.374537079,-0.243518547,1,0,0,2.149,Gabbro_rect,4,2.149,1,13,0,13,0,1,,,,,,,,,,,,,
65d62d6afc0dcc5b81ceff41,SCN,2024-06-26_12h35.02.163,LearnStrategy,2023.2.3,Win32,59.88023952,1,1,15,0.364814829,-0.423148191,1,0,0,1.3997,Pumice_02,8,02,1,7,1.4,0.353240755,-0.412500028,1,0,0,2.0969,Pumice_rect,8,2.097,1,14,0,14,0,1,,,,,,,,,,,,,
65d62d6afc0dcc5b81ceff41,SCN,2024-06-26_12h35.02.163,LearnStrategy,2023.2.3,Win32,59.88023952,1,1,16,0.547222279,-0.393055598,1,0,0,0.9585,Peridotite_02,7,02,1,8,0.959,-0.065740727,-0.387962977,1,0,0,1.8594,Pegmatite_rect,6,1.859,0,15,0,15,0,1,,,,,,,,,,,,,
65d62d6afc0dcc5b81ceff41,SCN,2024-06-26_12h35.02.163,LearnStrategy,2023.2.3,Win32,59.88023952,1,2,1,,,,,,,,5,02,,,,,,,,,,,3,5.325,0,,,,,,0.157870399,-0.243055556,1,0,0,5.3248,Diorite_rect,0,0,0,0,1,
65d62d6afc0dcc5b81ceff41,SCN,2024-06-26_12h35.02.163,LearnStrategy,2023.2.3,Win32,59.88023952,1,2,2,,,,,,,,2,12,,,,,,,,,,,2,1.518,1,,,,,,-0.104166667,-0.260185171,1,0,0,1.5183,Basalt_rect,1,0,1,0,1,
65d62d6afc0dcc5b81ceff41,SCN,2024-06-26_12h35.02.163,LearnStrategy,2023.2.3,Win32,59.88023952,1,2,3,,,,,,,,4,03,,,,,,,,,,,5,1.787,0,,,,,,-0.376851859,-0.388888889,1,0,0,1.7869,Obsidian_rect,2,0,2,0,1,
65d62d6afc0dcc5b81ceff41,SCN,2024-06-26_12h35.02.163,LearnStrategy,2023.2.3,Win32,59.88023952,1,2,4,,,,,,,,2,08,,,,,,,,,,,1,2.298,0,,,,,,-0.397222201,-0.250462991,1,0,0,2.2983,Andesite_rect,3,0,3,0,1,
65d62d6afc0dcc5b81ceff41,SCN,2024-06-26_12h35.02.163,LearnStrategy,2023.2.3,Win32,59.88023952,1,2,5,,,,,,,,6,05,,,,,,,,,,,4,1.735,0,,,,,,0.400000042,-0.263425968,1,0,0,1.7348,Gabbro_rect,4,0,4,0,1,
65d62d6afc0dcc5b81ceff41,SCN,2024-06-26_12h35.02.163,LearnStrategy,2023.2.3,Win32,59.88023952,1,2,6,,,,,,,,5,04,,,,,,,,,,,2,0.892,0,,,,,,-0.098148134,-0.239814829,1,0,0,0.8924,Basalt_rect,5,0,5,0,1,
65d62d6afc0dcc5b81ceff41,SCN,2024-06-26_12h35.02.163,LearnStrategy,2023.2.3,Win32,59.88023952,1,2,7,,,,,,,,1,07,,,,,,,,,,,6,0.822,0,,,,,,-0.126388903,-0.389814801,1,0,0,0.8221,Pegmatite_rect,6,0,6,0,1,
65d62d6afc0dcc5b81ceff41,SCN,2024-06-26_12h35.02.163,LearnStrategy,2023.2.3,Win32,59.88023952,1,2,8,,,,,,,,6,16,,,,,,,,,,,3,1.062,0,,,,,,0.163888931,-0.255092621,1,0,0,1.062,Diorite_rect,7,0,7,0,1,
65d62d6afc0dcc5b81ceff41,SCN,2024-06-26_12h35.02.163,LearnStrategy,2023.2.3,Win32,59.88023952,1,2,9,,,,,,,,1,03,,,,,,,,,,,7,3.127,0,,,,,,0.130555541,-0.404629672,1,0,0,3.1274,Peridotite_rect,8,0,8,0,1,
65d62d6afc0dcc5b81ceff41,SCN,2024-06-26_12h35.02.163,LearnStrategy,2023.2.3,Win32,59.88023952,1,2,10,,,,,,,,3,16,,,,,,,,,,,7,0.884,0,,,,,,0.130555541,-0.404629672,1,0,0,0.8839,Peridotite_rect,9,0,9,0,1,
65d62d6afc0dcc5b81ceff41,SCN,2024-06-26_12h35.02.163,LearnStrategy,2023.2.3,Win32,59.88023952,1,2,11,,,,,,,,3,13,,,,,,,,,,,2,1.136,0,,,,,,-0.10555557,-0.243518547,1,0,0,1.1355,Basalt_rect,10,0,10,0,1,
65d62d6afc0dcc5b81ceff41,SCN,2024-06-26_12h35.02.163,LearnStrategy,2023.2.3,Win32,59.88023952,1,2,12,,,,,,,,7,06,,,,,,,,,,,4,0.881,0,,,,,,0.390277792,-0.252777806,1,0,0,0.8809,Gabbro_rect,11,0,11,0,1,
65d62d6afc0dcc5b81ceff41,SCN,2024-06-26_12h35.02.163,LearnStrategy,2023.2.3,Win32,59.88023952,1,2,13,,,,,,,,7,15,,,,,,,,,,,1,1.033,0,,,,,,-0.455555545,-0.250925912,1,0,0,1.033,Andesite_rect,12,0,12,0,1,
65d62d6afc0dcc5b81ceff41,SCN,2024-06-26_12h35.02.163,LearnStrategy,2023.2.3,Win32,59.88023952,1,2,14,,,,,,,,4,05,,,,,,,,,,,5,1.681,0,,,,,,-0.418518526,-0.407870399,1,0,0,1.6811,Obsidian_rect,13,0,13,0,1,
65d62d6afc0dcc5b81ceff41,SCN,2024-06-26_12h35.02.163,LearnStrategy,2023.2.3,Win32,59.88023952,1,2,15,,,,,,,,8,15,,,,,,,,,,,6,0.924,0,,,,,,-0.154629601,-0.381481524,1,0,0,0.9238,Pegmatite_rect,14,0,14,0,1,
65d62d6afc0dcc5b81ceff41,SCN,2024-06-26_12h35.02.163,LearnStrategy,2023.2.3,Win32,59.88023952,1,2,16,,,,,,,,8,09,,,,,,,,,,,8,1.775,1,,,,,,0.407870399,-0.403240769,1,0,0,1.7752,Pumice_rect,15,0,15,0,1,
65d62d6afc0dcc5b81ceff41,SCN,2024-06-26_12h35.02.163,LearnStrategy,2023.2.3,Win32,59.88023952,2,1,1,0.073611153,-0.418518561,1,0,0,6.3198,Obsidian_16,5,16,1,5,6.32,-0.331481474,-0.390277792,1,0,0,2.7706,Obsidian_rect,5,2.771,1,0,0,0,0,1,,,,,,,,,,,,,
65d62d6afc0dcc5b81ceff41,SCN,2024-06-26_12h35.02.163,LearnStrategy,2023.2.3,Win32,59.88023952,2,1,2,0.252314815,0.068981489,1,0,0,1.2688,Obsidian_11,5,11,4,6,1.269,-0.390740748,-0.39907406,1,0,0,1.034,Obsidian_rect,5,1.034,1,1,0,1,0,1,,,,,,,,,,,,,
65d62d6afc0dcc5b81ceff41,SCN,2024-06-26_12h35.02.163,LearnStrategy,2023.2.3,Win32,59.88023952,2,1,3,-0.252777771,0.142592571,1,0,0,0.7585,Obsidian_09,5,09,4,3,0.758,-0.42083334,-0.40370369,1,0,0,0.7213,Obsidian_rect,5,0.721,1,2,0,2,0,1,,,,,,,,,,,,,
65d62d6afc0dcc5b81ceff41,SCN,2024-06-26_12h35.02.163,LearnStrategy,2023.2.3,Win32,59.88023952,2,1,4,-0.251851859,-0.436574088,1,0,0,1.4384,Peridotite_12,7,12,1,3,1.438,0.106018561,-0.387037065,1,0,0,1.0954,Peridotite_rect,7,1.095,1,3,0,3,0,1,,,,,,,,,,,,,
65d62d6afc0dcc5b81ceff41,SCN,2024-06-26_12h35.02.163,LearnStrategy,2023.2.3,Win32,59.88023952,2,1,5,-0.517592589,-0.41805557,1,0,0,2.0901,Pegmatite_12,6,12,1,1,2.09,0.104629658,-0.400000042,1,0,0,1.0944,Peridotite_rect,7,1.094,0,4,0,4,0,1,,,,,,,,,,,,,
65d62d6afc0dcc5b81ceff41,SCN,2024-06-26_12h35.02.163,LearnStrategy,2023.2.3,Win32,59.88023952,2,1,6,-0.544444437,0.109259252,1,0,0,4.793,Diorite_02,3,02,4,1,4.793,-0.094907407,-0.251388903,1,0,0,0.7996,Basalt_rect,2,0.8,0,5,0,5,0,1,,,,,,,,,,,,,
65d62d6afc0dcc5b81ceff41,SCN,2024-06-26_12h35.02.163,LearnStrategy,2023.2.3,Win32,59.88023952,2,1,7,0.238888917,0.392592589,1,0,0,4.4028,Pumice_16,8,16,6,6,4.403,0.327314801,-0.255555541,1,0,0,1.1999,Gabbro_rect,4,1.2,0,6,0,6,0,1,,,,,,,,,,,,,
65d62d6afc0dcc5b81ceff41,SCN,2024-06-26_12h35.02.163,LearnStrategy,2023.2.3,Win32,59.88023952,2,1,8,0.056481467,0.286111108,1,0,0,0.9211,Basalt_16,2,16,5,5,0.921,0.352777764,-0.384259259,1,0,0,1.4729,Pumice_rect,8,1.473,0,7,0,7,0,1,,,,,,,,,,,,,
65d62d6afc0dcc5b81ceff41,SCN,2024-06-26_12h35.02.163,LearnStrategy,2023.2.3,Win32,59.88023952,2,1,9,0.253240727,-0.12962963,1,0,0,0.8841,Gabbro_14,4,14,3,6,0.884,0.393055598,-0.420370384,1,0,0,0.743,Pumice_rect,8,0.743,0,8,0,8,0,1,,,,,,,,,,,,,
65d62d6afc0dcc5b81ceff41,SCN,2024-06-26_12h35.02.163,LearnStrategy,2023.2.3,Win32,59.88023952,2,1,10,0.575463048,-0.111574102,1,0,0,1.475,Pumice_13,8,13,3,8,1.475,0.401388875,-0.404166681,1,0,0,1.2892,Pumice_rect,8,1.289,1,9,0,9,0,1,,,,,,,,,,,,,
65d62d6afc0dcc5b81ceff41,SCN,2024-06-26_12h35.02.163,LearnStrategy,2023.2.3,Win32,59.88023952,2,1,11,-0.255555541,-0.255555541,1,0,0,1.7887,Pegmatite_13,6,13,2,3,1.789,0.392129616,-0.39444443,1,0,0,0.7969,Pumice_rect,8,0.797,0,10,0,10,0,1,,,,,,,,,,,,,
65d62d6afc0dcc5b81ceff41,SCN,2024-06-26_12h35.02.163,LearnStrategy,2023.2.3,Win32,59.88023952,2,1,12,-0.530555548,0.458796294,1,0,0,2.6621,Diorite_07,3,07,6,1,2.662,0.110648191,-0.400000042,1,0,0,5.1676,Peridotite_rect,7,5.168,0,11,0,11,0,1,,,,,,,,,,,,,
65d62d6afc0dcc5b81ceff41,SCN,2024-06-26_12h35.02.163,LearnStrategy,2023.2.3,Win32,59.88023952,2,1,13,0.227314843,0.074999986,1,0,0,1.171,Obsidian_11,5,11,4,6,1.171,0.128703718,-0.251388903,1,0,0,0.8773,Diorite_rect,3,0.877,0,12,0,12,0,1,,,,,,,,,,,,,
65d62d6afc0dcc5b81ceff41,SCN,2024-06-26_12h35.02.163,LearnStrategy,2023.2.3,Win32,59.88023952,2,1,14,-0.20694443,0.107407393,1,0,0,0.9517,Obsidian_09,5,09,4,3,0.952,-0.390740748,-0.403240769,1,0,0,0.9058,Obsidian_rect,5,0.906,1,13,0,13,0,1,,,,,,,,,,,,,
65d62d6afc0dcc5b81ceff41,SCN,2024-06-26_12h35.02.163,LearnStrategy,2023.2.3,Win32,59.88023952,2,1,15,-0.523611104,0.256481471,1,0,0,1.1122,Obsidian_14,5,14,5,1,1.112,0.38472225,-0.421296296,1,0,0,1.1258,Pumice_rect,8,1.126,0,14,0,14,0,1,,,,,,,,,,,,,
65d62d6afc0dcc5b81ceff41,SCN,2024-06-26_12h35.02.163,LearnStrategy,2023.2.3,Win32,59.88023952,2,1,16,-0.528703707,-0.217592593,1,0,0,2.6427,Peridotite_10,7,10,2,1,2.643,-0.350462949,-0.265277792,1,0,0,2.4921,Andesite_rect,1,2.492,0,15,0,15,0,1,,,,,,,,,,,,,
65d62d6afc0dcc5b81ceff41,SCN,2024-06-26_12h35.02.163,LearnStrategy,2023.2.3,Win32,59.88023952,2,2,1,,,,,,,,1,02,,,,,,,,,,,6,3.998,0,,,,,,-0.175925926,-0.401851866,1,0,0,3.9978,Pegmatite_rect,0,0,0,0,1,
65d62d6afc0dcc5b81ceff41,SCN,2024-06-26_12h35.02.163,LearnStrategy,2023.2.3,Win32,59.88023952,2,2,2,,,,,,,,3,08,,,,,,,,,,,7,1.478,0,,,,,,0.141203704,-0.398148148,1,0,0,1.4784,Peridotite_rect,1,0,1,0,1,
65d62d6afc0dcc5b81ceff41,SCN,2024-06-26_12h35.02.163,LearnStrategy,2023.2.3,Win32,59.88023952,2,2,3,,,,,,,,4,13,,,,,,,,,,,8,1.929,0,,,,,,0.400000042,-0.409259302,1,0,0,1.9288,Pumice_rect,2,0,2,0,1,
65d62d6afc0dcc5b81ceff41,SCN,2024-06-26_12h35.02.163,LearnStrategy,2023.2.3,Win32,59.88023952,2,2,4,,,,,,,,2,02,,,,,,,,,,,2,2.237,1,,,,,,-0.106481481,-0.262499986,1,0,0,2.2372,Basalt_rect,3,0,3,0,1,
65d62d6afc0dcc5b81ceff41,SCN,2024-06-26_12h35.02.163,LearnStrategy,2023.2.3,Win32,59.88023952,2,2,5,,,,,,,,8,03,,,,,,,,,,,8,1.412,1,,,,,,0.407870399,-0.383333347,1,0,0,1.4116,Pumice_rect,4,0,4,0,1,
65d62d6afc0dcc5b81ceff41,SCN,2024-06-26_12h35.02.163,LearnStrategy,2023.2.3,Win32,59.88023952,2,2,6,,,,,,,,7,07,,,,,,,,,,,6,1.32,0,,,,,,-0.158333319,-0.380555541,1,0,0,1.3205,Pegmatite_rect,5,0,5,0,1,
65d62d6afc0dcc5b81ceff41,SCN,2024-06-26_12h35.02.163,LearnStrategy,2023.2.3,Win32,59.88023952,2,2,7,,,,,,,,6,11,,,,,,,,,,,2,1.815,0,,,,,,-0.062037009,-0.258796339,1,0,0,1.8145,Basalt_rect,6,0,6,0,1,
65d62d6afc0dcc5b81ceff41,SCN,2024-06-26_12h35.02.163,LearnStrategy,2023.2.3,Win32,59.88023952,2,2,8,,,,,,,,2,06,,,,,,,,,,,5,1.973,0,,,,,,-0.443055541,-0.404166681,1,0,0,1.973,Obsidian_rect,7,0,7,0,1,
65d62d6afc0dcc5b81ceff41,SCN,2024-06-26_12h35.02.163,LearnStrategy,2023.2.3,Win32,59.88023952,2,2,9,,,,,,,,7,16,,,,,,,,,,,3,1.25,0,,,,,,0.058333362,-0.260648162,1,0,0,1.2497,Diorite_rect,8,0,8,0,1,
65d62d6afc0dcc5b81ceff41,SCN,2024-06-26_12h35.02.163,LearnStrategy,2023.2.3,Win32,59.88023952,2,2,10,,,,,,,,5,07,,,,,,,,,,,5,1.16,1,,,,,,-0.418055534,-0.418518561,1,0,0,1.1604,Obsidian_rect,9,0,9,0,1,
65d62d6afc0dcc5b81ceff41,SCN,2024-06-26_12h35.02.163,LearnStrategy,2023.2.3,Win32,59.88023952,2,2,11,,,,,,,,5,05,,,,,,,,,,,5,0.971,1,,,,,,-0.418055534,-0.418518561,1,0,0,0.9712,Obsidian_rect,10,0,10,0,1,
65d62d6afc0dcc5b81ceff41,SCN,2024-06-26_12h35.02.163,LearnStrategy,2023.2.3,Win32,59.88023952,2,2,12,,,,,,,,6,15,,,,,,,,,,,1,1.236,0,,,,,,-0.404629637,-0.241203732,1,0,0,1.2361,Andesite_rect,11,0,11,0,1,
65d62d6afc0dcc5b81ceff41,SCN,2024-06-26_12h35.02.163,LearnStrategy,2023.2.3,Win32,59.88023952,2,2,13,,,,,,,,8,14,,,,,,,,,,,8,1.895,1,,,,,,0.367129644,-0.418518561,1,0,0,1.8945,Pumice_rect,12,0,12,0,1,
65d62d6afc0dcc5b81ceff41,SCN,2024-06-26_12h35.02.163,LearnStrategy,2023.2.3,Win32,59.88023952,2,2,14,,,,,,,,4,16,,,,,,,,,,,8,2.626,0,,,,,,0.35092594,-0.389814801,1,0,0,2.6258,Pumice_rect,13,0,13,0,1,
65d62d6afc0dcc5b81ceff41,SCN,2024-06-26_12h35.02.163,LearnStrategy,2023.2.3,Win32,59.88023952,2,2,15,,,,,,,,1,04,,,,,,,,,,,7,0.973,0,,,,,,0.102314843,-0.389814801,1,0,0,0.9734,Peridotite_rect,14,0,14,0,1,
65d62d6afc0dcc5b81ceff41,SCN,2024-06-26_12h35.02.163,LearnStrategy,2023.2.3,Win32,59.88023952,2,2,16,,,,,,,,3,06,,,,,,,,,,,7,0.879,0,,,,,,0.102314843,-0.389814801,1,0,0,0.8786,Peridotite_rect,15,0,15,0,1,
65d62d6afc0dcc5b81ceff41,SCN,2024-06-26_12h35.02.163,LearnStrategy,2023.2.3,Win32,59.88023952,3,1,1,-0.585648148,0.413888887,1,0,0,3.7112,Diorite_07,3,07,6,1,3.711,-0.10601849,-0.388888889,1,0,0,2.1351,Pegmatite_rect,6,2.135,0,0,0,0,0,1,,,,,,,,,,,,,
65d62d6afc0dcc5b81ceff41,SCN,2024-06-26_12h35.02.163,LearnStrategy,2023.2.3,Win32,59.88023952,3,1,2,-0.239351838,0.395833333,1,0,0,1.4293,Pegmatite_03,6,03,6,3,1.429,0.077777792,-0.237500014,1,0,0,1.0037,Diorite_rect,3,1.004,0,1,0,1,0,1,,,,,,,,,,,,,
65d62d6afc0dcc5b81ceff41,SCN,2024-06-26_12h35.02.163,LearnStrategy,2023.2.3,Win32,59.88023952,3,1,3,-0.2425926,-0.260648162,1,0,0,3.7397,Pegmatite_13,6,13,2,3,3.74,-0.101851852,-0.411574116,1,0,0,1.9049,Pegmatite_rect,6,1.905,1,2,0,2,0,1,,,,,,,,,,,,,
65d62d6afc0dcc5b81ceff41,SCN,2024-06-26_12h35.02.163,LearnStrategy,2023.2.3,Win32,59.88023952,3,1,4,0.081018519,-0.115740741,1,0,0,2.8707,Pumice_10,8,10,3,5,2.871,-0.125462921,-0.250462991,1,0,0,1.2692,Basalt_rect,2,1.269,0,3,0,3,0,1,,,,,,,,,,,,,
65d62d6afc0dcc5b81ceff41,SCN,2024-06-26_12h35.02.163,LearnStrategy,2023.2.3,Win32,59.88023952,3,1,5,0.202777792,-0.076388889,1,0,0,0.8718,Gabbro_14,4,14,3,6,0.872,0.408333319,-0.395833333,1,0,0,1.6811,Pumice_rect,8,1.681,0,4,0,4,0,1,,,,,,,,,,,,,
65d62d6afc0dcc5b81ceff41,SCN,2024-06-26_12h35.02.163,LearnStrategy,2023.2.3,Win32,59.88023952,3,1,6,0.366203732,0.07916666,1,0,0,4.481,Andesite_06,1,06,4,7,4.481,-0.114351838,-0.411574116,1,0,0,2.4405,Pegmatite_rect,6,2.44,0,5,0,5,0,1,,,,,,,,,,,,,
65d62d6afc0dcc5b81ceff41,SCN,2024-06-26_12h35.02.163,LearnStrategy,2023.2.3,Win32,59.88023952,3,1,7,0.557407379,0.08657406,1,0,0,1.2949,Peridotite_08,7,08,4,8,1.295,-0.112962935,-0.381481524,1,0,0,1.7133,Pegmatite_rect,6,1.713,0,6,0,6,0,1,,,,,,,,,,,,,
65d62d6afc0dcc5b81ceff41,SCN,2024-06-26_12h35.02.163,LearnStrategy,2023.2.3,Win32,59.88023952,3,1,8,-0.543518508,-0.404629672,1,0,0,1.0937,Pegmatite_12,6,12,1,1,1.094,0.110648191,-0.408333319,1,0,0,3.7814,Peridotite_rect,7,3.781,0,7,0,7,0,1,,,,,,,,,,,,,
65d62d6afc0dcc5b81ceff41,SCN,2024-06-26_12h35.02.163,LearnStrategy,2023.2.3,Win32,59.88023952,3,1,9,-0.398611104,-0.454629616,1,0,0,0.8402,Andesite_09,1,09,1,2,0.84,-0.125,-0.400000042,1,0,0,1.3041,Pegmatite_rect,6,1.304,0,8,0,8,0,1,,,,,,,,,,,,,
65d62d6afc0dcc5b81ceff41,SCN,2024-06-26_12h35.02.163,LearnStrategy,2023.2.3,Win32,59.88023952,3,1,10,-0.220833319,-0.400462963,1,0,0,1.3848,Peridotite_12,7,12,1,3,1.385,-0.077777792,-0.397222236,1,0,0,1.1408,Pegmatite_rect,6,1.141,0,9,0,9,0,1,,,,,,,,,,,,,
65d62d6afc0dcc5b81ceff41,SCN,2024-06-26_12h35.02.163,LearnStrategy,2023.2.3,Win32,59.88023952,3,1,11,-0.102777764,-0.411574116,1,0,0,0.8268,Diorite_10,3,10,1,4,0.827,0.078240783,-0.387499986,1,0,0,1.242,Peridotite_rect,7,1.242,0,10,0,10,0,1,,,,,,,,,,,,,
65d62d6afc0dcc5b81ceff41,SCN,2024-06-26_12h35.02.163,LearnStrategy,2023.2.3,Win32,59.88023952,3,1,12,0.10092594,-0.437037079,1,0,0,0.7845,Obsidian_16,5,16,1,5,0.784,-0.380092586,-0.408333319,1,0,0,1.7138,Obsidian_rect,5,1.714,1,11,0,11,0,1,,,,,,,,,,,,,
65d62d6afc0dcc5b81ceff41,SCN,2024-06-26_12h35.02.163,LearnStrategy,2023.2.3,Win32,59.88023952,3,1,13,-0.518055545,-0.231018561,1,0,0,0.9806,Peridotite_10,7,10,2,1,0.981,-0.158796275,-0.395833333,1,0,0,1.5324,Pegmatite_rect,6,1.532,0,12,0,12,0,1,,,,,,,,,,,,,
65d62d6afc0dcc5b81ceff41,SCN,2024-06-26_12h35.02.163,LearnStrategy,2023.2.3,Win32,59.88023952,3,1,14,-0.415277764,-0.305555556,1,0,0,0.802,Basalt_04,2,04,2,2,0.802,-0.324074074,-0.397685228,1,0,0,2.226,Obsidian_rect,5,2.226,0,13,0,13,0,1,,,,,,,,,,,,,
65d62d6afc0dcc5b81ceff41,SCN,2024-06-26_12h35.02.163,LearnStrategy,2023.2.3,Win32,59.88023952,3,1,15,-0.205092571,-0.220833319,1,0,0,0.8014,Pegmatite_13,6,13,2,3,0.801,-0.084259245,-0.396759245,1,0,0,1.3063,Pegmatite_rect,6,1.306,1,14,0,14,0,1,,,,,,,,,,,,,
65d62d6afc0dcc5b81ceff41,SCN,2024-06-26_12h35.02.163,LearnStrategy,2023.2.3,Win32,59.88023952,3,1,16,-0.087499972,-0.289814843,1,0,0,0.8422,Gabbro_10,4,10,2,4,0.842,0.089351866,-0.402777778,1,0,0,1.0351,Peridotite_rect,7,1.035,0,15,0,15,0,1,,,,,,,,,,,,,
65d62d6afc0dcc5b81ceff41,SCN,2024-06-26_12h35.02.163,LearnStrategy,2023.2.3,Win32,59.88023952,3,2,1,,,,,,,,6,08,,,,,,,,,,,5,5.997,0,,,,,,-0.371759238,-0.417592578,1,0,0,5.9975,Obsidian_rect,0,0,0,0,1,
65d62d6afc0dcc5b81ceff41,SCN,2024-06-26_12h35.02.163,LearnStrategy,2023.2.3,Win32,59.88023952,3,2,2,,,,,,,,1,16,,,,,,,,,,,7,4.381,0,,,,,,0.128240727,-0.383333347,1,0,0,4.3807,Peridotite_rect,1,0,1,0,1,
65d62d6afc0dcc5b81ceff41,SCN,2024-06-26_12h35.02.163,LearnStrategy,2023.2.3,Win32,59.88023952,3,2,3,,,,,,,,1,11,,,,,,,,,,,6,2.256,0,,,,,,-0.071296268,-0.400925954,1,0,0,2.256,Pegmatite_rect,2,0,2,0,1,
65d62d6afc0dcc5b81ceff41,SCN,2024-06-26_12h35.02.163,LearnStrategy,2023.2.3,Win32,59.88023952,3,2,4,,,,,,,,2,10,,,,,,,,,,,5,1.76,0,,,,,,-0.412037037,-0.417129658,1,0,0,1.7601,Obsidian_rect,3,0,3,0,1,
65d62d6afc0dcc5b81ceff41,SCN,2024-06-26_12h35.02.163,LearnStrategy,2023.2.3,Win32,59.88023952,3,2,5,,,,,,,,6,09,,,,,,,,,,,2,2.876,0,,,,,,-0.121296282,-0.261111153,1,0,0,2.8764,Basalt_rect,4,0,4,0,1,
65d62d6afc0dcc5b81ceff41,SCN,2024-06-26_12h35.02.163,LearnStrategy,2023.2.3,Win32,59.88023952,3,2,6,,,,,,,,3,11,,,,,,,,,,,7,2.326,0,,,,,,0.123611097,-0.405092593,1,0,0,2.3263,Peridotite_rect,5,0,5,0,1,
65d62d6afc0dcc5b81ceff41,SCN,2024-06-26_12h35.02.163,LearnStrategy,2023.2.3,Win32,59.88023952,3,2,7,,,,,,,,8,08,,,,,,,,,,,8,1.335,1,,,,,,0.433796282,-0.421296296,1,0,0,1.3348,Pumice_rect,6,0,6,0,1,
65d62d6afc0dcc5b81ceff41,SCN,2024-06-26_12h35.02.163,LearnStrategy,2023.2.3,Win32,59.88023952,3,2,8,,,,,,,,5,10,,,,,,,,,,,5,1.799,1,,,,,,-0.344444452,-0.392592607,1,0,0,1.7987,Obsidian_rect,7,0,7,0,1,
65d62d6afc0dcc5b81ceff41,SCN,2024-06-26_12h35.02.163,LearnStrategy,2023.2.3,Win32,59.88023952,3,2,9,,,,,,,,8,04,,,,,,,,,,,8,1.197,1,,,,,,0.421759288,-0.41805557,1,0,0,1.1972,Pumice_rect,8,0,8,0,1,
65d62d6afc0dcc5b81ceff41,SCN,2024-06-26_12h35.02.163,LearnStrategy,2023.2.3,Win32,59.88023952,3,2,10,,,,,,,,4,15,,,,,,,,,,,7,2.109,0,,,,,,0.150462963,-0.399537051,1,0,0,2.1094,Peridotite_rect,9,0,9,0,1,
65d62d6afc0dcc5b81ceff41,SCN,2024-06-26_12h35.02.163,LearnStrategy,2023.2.3,Win32,59.88023952,3,2,11,,,,,,,,7,04,,,,,,,,,,,7,0.978,1,,,,,,0.150462963,-0.402777778,1,0,0,0.9784,Peridotite_rect,10,0,10,0,1,
65d62d6afc0dcc5b81ceff41,SCN,2024-06-26_12h35.02.163,LearnStrategy,2023.2.3,Win32,59.88023952,3,2,12,,,,,,,,4,11,,,,,,,,,,,7,1.417,0,,,,,,0.11990745,-0.395833333,1,0,0,1.4165,Peridotite_rect,11,0,11,0,1,
65d62d6afc0dcc5b81ceff41,SCN,2024-06-26_12h35.02.163,LearnStrategy,2023.2.3,Win32,59.88023952,3,2,13,,,,,,,,5,06,,,,,,,,,,,5,1.721,1,,,,,,-0.3824074,-0.400925954,1,0,0,1.7211,Obsidian_rect,12,0,12,0,1,
65d62d6afc0dcc5b81ceff41,SCN,2024-06-26_12h35.02.163,LearnStrategy,2023.2.3,Win32,59.88023952,3,2,14,,,,,,,,7,05,,,,,,,,,,,1,1.283,0,,,,,,-0.373148141,-0.247222265,1,0,0,1.283,Andesite_rect,13,0,13,0,1,
65d62d6afc0dcc5b81ceff41,SCN,2024-06-26_12h35.02.163,LearnStrategy,2023.2.3,Win32,59.88023952,3,2,15,,,,,,,,3,15,,,,,,,,,,,7,1.15,0,,,,,,0.128703718,-0.400462963,1,0,0,1.1504,Peridotite_rect,14,0,14,0,1,
65d62d6afc0dcc5b81ceff41,SCN,2024-06-26_12h35.02.163,LearnStrategy,2023.2.3,Win32,59.88023952,3,2,16,,,,,,,,2,14,,,,,,,,,,,8,1.234,0,,,,,,0.45185188,-0.408333319,1,0,0,1.2336,Pumice_rect,15,0,15,0,1,
65d62d6afc0dcc5b81ceff41,SCN,2024-06-26_12h35.02.163,LearnStrategy,2023.2.3,Win32,59.88023952,4,1,1,0.547222279,0.397222219,1,0,0,3.8844,Gabbro_09,4,09,6,8,3.884,0.09629631,-0.233796296,1,0,0,3.1049,Diorite_rect,3,3.105,0,0,0,0,0,1,,,,,,,,,,,,,
65d62d6afc0dcc5b81ceff41,SCN,2024-06-26_12h35.02.163,LearnStrategy,2023.2.3,Win32,59.88023952,4,1,2,0.532407407,0.416203702,1,0,0,1.2425,Gabbro_09,4,09,6,8,1.242,0.337500042,-0.245833362,1,0,0,1.2741,Gabbro_rect,4,1.274,1,1,0,1,0,1,,,,,,,,,,,,,
65d62d6afc0dcc5b81ceff41,SCN,2024-06-26_12h35.02.163,LearnStrategy,2023.2.3,Win32,59.88023952,4,1,3,0.404166681,0.420370367,1,0,0,0.8429,Basalt_01,2,01,6,7,0.843,-0.409259266,-0.251851894,1,0,0,2.9112,Andesite_rect,1,2.911,0,2,0,2,0,1,,,,,,,,,,,,,
65d62d6afc0dcc5b81ceff41,SCN,2024-06-26_12h35.02.163,LearnStrategy,2023.2.3,Win32,59.88023952,4,1,4,-0.05787037,0.406481478,1,0,0,1.2541,Basalt_09,2,09,6,4,1.254,-0.119907379,-0.24027782,1,0,0,1.185,Basalt_rect,2,1.185,1,3,0,3,0,1,,,,,,,,,,,,,
65d62d6afc0dcc5b81ceff41,SCN,2024-06-26_12h35.02.163,LearnStrategy,2023.2.3,Win32,59.88023952,4,1,5,-0.195370356,0.103703711,1,0,0,0.8671,Obsidian_09,5,09,4,3,0.867,-0.384722215,-0.420370384,1,0,0,1.6162,Obsidian_rect,5,1.616,1,4,0,4,0,1,,,,,,,,,,,,,
65d62d6afc0dcc5b81ceff41,SCN,2024-06-26_12h35.02.163,LearnStrategy,2023.2.3,Win32,59.88023952,4,1,6,-0.253703683,-0.249537079,1,0,0,7.3603,Pegmatite_13,6,13,2,3,7.36,-0.131018533,-0.400462963,1,0,0,2.5469,Pegmatite_rect,6,2.547,1,5,0,5,0,1,,,,,,,,,,,,,
65d62d6afc0dcc5b81ceff41,SCN,2024-06-26_12h35.02.163,LearnStrategy,2023.2.3,Win32,59.88023952,4,1,7,-0.21157406,0.403703698,1,0,0,5.7545,Pegmatite_03,6,03,6,3,5.755,0.113425926,-0.416666667,1,0,0,1.6644,Peridotite_rect,7,1.664,0,6,0,6,0,1,,,,,,,,,,,,,
65d62d6afc0dcc5b81ceff41,SCN,2024-06-26_12h35.02.163,LearnStrategy,2023.2.3,Win32,59.88023952,4,1,8,-0.513425915,-0.137037065,1,0,0,3.0407,Obsidian_08,5,08,3,1,3.041,-0.424537023,-0.380555541,1,0,0,1.8387,Obsidian_rect,5,1.839,1,7,0,7,0,1,,,,,,,,,,,,,
65d62d6afc0dcc5b81ceff41,SCN,2024-06-26_12h35.02.163,LearnStrategy,2023.2.3,Win32,59.88023952,4,1,9,0.055092635,-0.085185192,1,0,0,0.8352,Pumice_10,8,10,3,5,0.835,0.387499986,-0.403240769,1,0,0,2.0068,Pumice_rect,8,2.007,1,8,0,8,0,1,,,,,,,,,,,,,
65d62d6afc0dcc5b81ceff41,SCN,2024-06-26_12h35.02.163,LearnStrategy,2023.2.3,Win32,59.88023952,4,1,10,-0.215277778,-0.103703746,1,0,0,0.9037,Diorite_12,3,12,3,3,0.904,-0.3824074,-0.256018533,1,0,0,1.8415,Andesite_rect,1,1.841,0,9,0,9,0,1,,,,,,,,,,,,,
65d62d6afc0dcc5b81ceff41,SCN,2024-06-26_12h35.02.163,LearnStrategy,2023.2.3,Win32,59.88023952,4,1,11,0.050925926,-0.12962963,1,0,0,0.8691,Pumice_10,8,10,3,5,0.869,0.377314815,-0.40370369,1,0,0,1.2308,Pumice_rect,8,1.231,1,10,0,10,0,1,,,,,,,,,,,,,
65d62d6afc0dcc5b81ceff41,SCN,2024-06-26_12h35.02.163,LearnStrategy,2023.2.3,Win32,59.88023952,4,1,12,0.402314857,-0.129166709,1,0,0,0.8685,Pumice_06,8,06,3,7,0.869,0.394907422,-0.391666695,1,0,0,0.9715,Pumice_rect,8,0.971,1,11,0,11,0,1,,,,,,,,,,,,,
65d62d6afc0dcc5b81ceff41,SCN,2024-06-26_12h35.02.163,LearnStrategy,2023.2.3,Win32,59.88023952,4,1,13,-0.420370349,-0.236574102,1,0,0,0.7867,Basalt_04,2,04,2,2,0.787,-0.157870363,-0.243055556,1,0,0,1.4023,Basalt_rect,2,1.402,1,12,0,12,0,1,,,,,,,,,,,,,
65d62d6afc0dcc5b81ceff41,SCN,2024-06-26_12h35.02.163,LearnStrategy,2023.2.3,Win32,59.88023952,4,1,14,-0.407407407,-0.436574088,1,0,0,0.9879,Andesite_09,1,09,1,2,0.988,-0.102314772,-0.406018504,1,0,0,2.5679,Pegmatite_rect,6,2.568,0,13,0,13,0,1,,,,,,,,,,,,,
65d62d6afc0dcc5b81ceff41,SCN,2024-06-26_12h35.02.163,LearnStrategy,2023.2.3,Win32,59.88023952,4,1,15,-0.559722212,-0.431481467,1,0,0,0.8252,Pegmatite_12,6,12,1,1,0.825,-0.129166638,-0.250462991,1,0,0,1.6279,Basalt_rect,2,1.628,0,14,0,14,0,1,,,,,,,,,,,,,
65d62d6afc0dcc5b81ceff41,SCN,2024-06-26_12h35.02.163,LearnStrategy,2023.2.3,Win32,59.88023952,4,1,16,-0.58287036,-0.235648191,1,0,0,0.8475,Peridotite_10,7,10,2,1,0.847,-0.174537023,-0.389814801,1,0,0,1.3944,Pegmatite_rect,6,1.394,0,15,0,15,0,1,,,,,,,,,,,,,
65d62d6afc0dcc5b81ceff41,SCN,2024-06-26_12h35.02.163,LearnStrategy,2023.2.3,Win32,59.88023952,4,2,1,,,,,,,,7,05,,,,,,,,,,,7,1.712,1,,,,,,0.11527782,-0.419907393,1,0,0,1.7121,Peridotite_rect,0,0,0,0,1,
65d62d6afc0dcc5b81ceff41,SCN,2024-06-26_12h35.02.163,LearnStrategy,2023.2.3,Win32,59.88023952,4,2,2,,,,,,,,8,04,,,,,,,,,,,8,1.113,1,,,,,,0.414351852,-0.411111125,1,0,0,1.1126,Pumice_rect,1,0,1,0,1,
65d62d6afc0dcc5b81ceff41,SCN,2024-06-26_12h35.02.163,LearnStrategy,2023.2.3,Win32,59.88023952,4,2,3,,,,,,,,3,16,,,,,,,,,,,7,1.697,0,,,,,,0.150462963,-0.401388875,1,0,0,1.6975,Peridotite_rect,2,0,2,0,1,
65d62d6afc0dcc5b81ceff41,SCN,2024-06-26_12h35.02.163,LearnStrategy,2023.2.3,Win32,59.88023952,4,2,4,,,,,,,,7,04,,,,,,,,,,,7,1.019,1,,,,,,0.150462963,-0.401388875,1,0,0,1.0192,Peridotite_rect,3,0,3,0,1,
65d62d6afc0dcc5b81ceff41,SCN,2024-06-26_12h35.02.163,LearnStrategy,2023.2.3,Win32,59.88023952,4,2,5,,,,,,,,6,08,,,,,,,,,,,2,1.396,0,,,,,,-0.087037051,-0.250925912,1,0,0,1.396,Basalt_rect,4,0,4,0,1,
65d62d6afc0dcc5b81ceff41,SCN,2024-06-26_12h35.02.163,LearnStrategy,2023.2.3,Win32,59.88023952,4,2,6,,,,,,,,1,11,,,,,,,,,,,6,1.895,0,,,,,,-0.13472218,-0.398148148,1,0,0,1.8955,Pegmatite_rect,5,0,5,0,1,
65d62d6afc0dcc5b81ceff41,SCN,2024-06-26_12h35.02.163,LearnStrategy,2023.2.3,Win32,59.88023952,4,2,7,,,,,,,,6,11,,,,,,,,,,,6,1.773,1,,,,,,-0.133796268,-0.397222236,1,0,0,1.7727,Pegmatite_rect,6,0,6,0,1,
65d62d6afc0dcc5b81ceff41,SCN,2024-06-26_12h35.02.163,LearnStrategy,2023.2.3,Win32,59.88023952,4,2,8,,,,,,,,4,16,,,,,,,,,,,3,2.86,0,,,,,,0.219907407,-0.238888917,1,0,0,2.8595,Diorite_rect,7,0,7,0,1,
65d62d6afc0dcc5b81ceff41,SCN,2024-06-26_12h35.02.163,LearnStrategy,2023.2.3,Win32,59.88023952,4,2,9,,,,,,,,2,08,,,,,,,,,,,2,1.775,1,,,,,,-0.187037044,-0.260185171,1,0,0,1.7755,Basalt_rect,8,0,8,0,1,
65d62d6afc0dcc5b81ceff41,SCN,2024-06-26_12h35.02.163,LearnStrategy,2023.2.3,Win32,59.88023952,4,2,10,,,,,,,,2,14,,,,,,,,,,,8,1.174,0,,,,,,0.409722222,-0.387962977,1,0,0,1.1737,Pumice_rect,9,0,9,0,1,
65d62d6afc0dcc5b81ceff41,SCN,2024-06-26_12h35.02.163,LearnStrategy,2023.2.3,Win32,59.88023952,4,2,11,,,,,,,,5,10,,,,,,,,,,,5,1.432,1,,,,,,-0.413425905,-0.405092593,1,0,0,1.4324,Obsidian_rect,10,0,10,0,1,
65d62d6afc0dcc5b81ceff41,SCN,2024-06-26_12h35.02.163,LearnStrategy,2023.2.3,Win32,59.88023952,4,2,12,,,,,,,,3,13,,,,,,,,,,,6,1.699,0,,,,,,-0.038888861,-0.398148148,1,0,0,1.6988,Pegmatite_rect,11,0,11,0,1,
65d62d6afc0dcc5b81ceff41,SCN,2024-06-26_12h35.02.163,LearnStrategy,2023.2.3,Win32,59.88023952,4,2,13,,,,,,,,4,13,,,,,,,,,,,7,1.592,0,,,,,,0.162500028,-0.412962949,1,0,0,1.5925,Peridotite_rect,12,0,12,0,1,
65d62d6afc0dcc5b81ceff41,SCN,2024-06-26_12h35.02.163,LearnStrategy,2023.2.3,Win32,59.88023952,4,2,14,,,,,,,,8,03,,,,,,,,,,,8,1.079,1,,,,,,0.374074088,-0.403240769,1,0,0,1.0788,Pumice_rect,13,0,13,0,1,
65d62d6afc0dcc5b81ceff41,SCN,2024-06-26_12h35.02.163,LearnStrategy,2023.2.3,Win32,59.88023952,4,2,15,,,,,,,,5,04,,,,,,,,,,,5,1.147,1,,,,,,-0.400462963,-0.400000042,1,0,0,1.1466,Obsidian_rect,14,0,14,0,1,
65d62d6afc0dcc5b81ceff41,SCN,2024-06-26_12h35.02.163,LearnStrategy,2023.2.3,Win32,59.88023952,4,2,16,,,,,,,,1,07,,,,,,,,,,,6,2.74,0,,,,,,-0.116203661,-0.383796339,1,0,0,2.7398,Pegmatite_rect,15,0,15,0,1,
65d62d6afc0dcc5b81ceff41,SCN,2024-06-26_12h35.02.163,LearnStrategy,2023.2.3,Win32,59.88023952,5,1,1,-0.536574063,0.425462961,1,0,0,1.0321,Diorite_07,3,07,6,1,1.032,-0.137962977,-0.407870399,1,0,0,1.6249,Pegmatite_rect,6,1.625,0,0,0,0,0,1,,,,,,,,,,,,,
65d62d6afc0dcc5b81ceff41,SCN,2024-06-26_12h35.02.163,LearnStrategy,2023.2.3,Win32,59.88023952,5,1,2,-0.3824074,0.399074069,1,0,0,0.9245,Andesite_10,1,10,6,2,0.924,-0.351388896,-0.241666653,1,0,0,2.2287,Andesite_rect,1,2.229,1,1,0,1,0,1,,,,,,,,,,,,,
65d62d6afc0dcc5b81ceff41,SCN,2024-06-26_12h35.02.163,LearnStrategy,2023.2.3,Win32,59.88023952,5,1,3,-0.1949074,0.393055554,1,0,0,1.0366,Pegmatite_03,6,03,6,3,1.037,0.111574102,-0.416203746,1,0,0,2.125,Peridotite_rect,7,2.125,0,2,0,2,0,1,,,,,,,,,,,,,
65d62d6afc0dcc5b81ceff41,SCN,2024-06-26_12h35.02.163,LearnStrategy,2023.2.3,Win32,59.88023952,5,1,4,-0.078703704,0.401851848,1,0,0,1.6362,Basalt_09,2,09,6,4,1.636,-0.126388903,-0.242592635,1,0,0,1.1246,Basalt_rect,2,1.125,1,3,0,3,0,1,,,,,,,,,,,,,
65d62d6afc0dcc5b81ceff41,SCN,2024-06-26_12h35.02.163,LearnStrategy,2023.2.3,Win32,59.88023952,5,1,5,-0.362037023,0.069444444,1,0,0,1.782,Basalt_11,2,11,4,2,1.782,-0.34861109,-0.261111153,1,0,0,1.8319,Andesite_rect,1,1.832,0,4,0,4,0,1,,,,,,,,,,,,,
65d62d6afc0dcc5b81ceff41,SCN,2024-06-26_12h35.02.163,LearnStrategy,2023.2.3,Win32,59.88023952,5,1,6,0.393055598,0.075462942,1,0,0,1.0872,Andesite_06,1,06,4,7,1.087,0.098148134,-0.398148148,1,0,0,1.1812,Peridotite_rect,7,1.181,0,5,0,5,0,1,,,,,,,,,,,,,
65d62d6afc0dcc5b81ceff41,SCN,2024-06-26_12h35.02.163,LearnStrategy,2023.2.3,Win32,59.88023952,5,1,7,-0.090740698,-0.151388875,1,0,0,0.7085,Peridotite_14,7,14,3,4,0.709,-0.111111111,-0.255092621,1,0,0,1.4678,Basalt_rect,2,1.468,0,6,0,6,0,1,,,,,,,,,,,,,
65d62d6afc0dcc5b81ceff41,SCN,2024-06-26_12h35.02.163,LearnStrategy,2023.2.3,Win32,59.88023952,5,1,8,-0.239814794,-0.45648151,1,0,0,0.7654,Peridotite_12,7,12,1,3,0.765,-0.084259245,-0.404629672,1,0,0,1.2579,Pegmatite_rect,6,1.258,0,7,0,7,0,1,,,,,,,,,,,,,
65d62d6afc0dcc5b81ceff41,SCN,2024-06-26_12h35.02.163,LearnStrategy,2023.2.3,Win32,59.88023952,5,1,9,-0.375462956,-0.236111111,1,0,0,0.8258,Basalt_04,2,04,2,2,0.826,-0.146759245,-0.231944473,1,0,0,1.0837,Basalt_rect,2,1.084,1,8,0,8,0,1,,,,,,,,,,,,,
65d62d6afc0dcc5b81ceff41,SCN,2024-06-26_12h35.02.163,LearnStrategy,2023.2.3,Win32,59.88023952,5,1,10,0.584259316,-0.270833333,1,0,0,1.7986,Gabbro_12,4,12,2,8,1.799,0.093981496,-0.40370369,1,0,0,1.7036,Peridotite_rect,7,1.704,0,9,0,9,0,1,,,,,,,,,,,,,
65d62d6afc0dcc5b81ceff41,SCN,2024-06-26_12h35.02.163,LearnStrategy,2023.2.3,Win32,59.88023952,5,1,11,0.085648148,0.077777757,1,0,0,2.053,Andesite_05,1,05,4,5,2.053,0.361574102,-0.228240755,1,0,0,0.933,Gabbro_rect,4,0.933,0,10,0,10,0,1,,,,,,,,,,,,,
65d62d6afc0dcc5b81ceff41,SCN,2024-06-26_12h35.02.163,LearnStrategy,2023.2.3,Win32,59.88023952,5,1,12,0.567592621,0.099537037,1,0,0,1.8044,Peridotite_08,7,08,4,8,1.804,-0.049537023,-0.395370413,1,0,0,2.6904,Pegmatite_rect,6,2.69,0,11,0,11,0,1,,,,,,,,,,,,,
65d62d6afc0dcc5b81ceff41,SCN,2024-06-26_12h35.02.163,LearnStrategy,2023.2.3,Win32,59.88023952,5,1,13,-0.537962966,-0.30787037,1,0,0,1.7864,Peridotite_10,7,10,2,1,1.786,0.08194443,-0.421296296,1,0,0,1.3745,Peridotite_rect,7,1.375,1,12,0,12,0,1,,,,,,,,,,,,,
65d62d6afc0dcc5b81ceff41,SCN,2024-06-26_12h35.02.163,LearnStrategy,2023.2.3,Win32,59.88023952,5,1,14,-0.221296275,-0.421759288,1,0,0,2.6028,Peridotite_12,7,12,1,3,2.603,0.135185171,-0.399537051,1,0,0,1.0485,Peridotite_rect,7,1.048,1,13,0,13,0,1,,,,,,,,,,,,,
65d62d6afc0dcc5b81ceff41,SCN,2024-06-26_12h35.02.163,LearnStrategy,2023.2.3,Win32,59.88023952,5,1,15,-0.539814808,0.082407386,1,0,0,0.9588,Diorite_02,3,02,4,1,0.959,-0.190277771,-0.412962949,1,0,0,1.8057,Pegmatite_rect,6,1.806,0,14,0,14,0,1,,,,,,,,,,,,,
65d62d6afc0dcc5b81ceff41,SCN,2024-06-26_12h35.02.163,LearnStrategy,2023.2.3,Win32,59.88023952,5,1,16,0.217129672,-0.261111153,1,0,0,4.0641,Diorite_14,3,14,2,6,4.064,0.165277764,-0.260185171,1,0,0,0.8872,Diorite_rect,3,0.887,1,15,0,15,0,1,,,,,,,,,,,,,
65d62d6afc0dcc5b81ceff41,SCN,2024-06-26_12h35.02.163,LearnStrategy,2023.2.3,Win32,59.88023952,5,2,1,,,,,,,,2,10,,,,,,,,,,,2,1.265,1,,,,,,-0.107407393,-0.243981467,1,0,0,1.2652,Basalt_rect,0,0,0,0,1,
65d62d6afc0dcc5b81ceff41,SCN,2024-06-26_12h35.02.163,LearnStrategy,2023.2.3,Win32,59.88023952,5,2,2,,,,,,,,5,05,,,,,,,,,,,5,1.549,1,,,,,,-0.377777771,-0.390740783,1,0,0,1.5491,Obsidian_rect,1,0,1,0,1,
65d62d6afc0dcc5b81ceff41,SCN,2024-06-26_12h35.02.163,LearnStrategy,2023.2.3,Win32,59.88023952,5,2,3,,,,,,,,7,06,,,,,,,,,,,3,2.931,0,,,,,,0.087500042,-0.268518519,1,0,0,2.9311,Diorite_rect,2,0,2,0,1,
65d62d6afc0dcc5b81ceff41,SCN,2024-06-26_12h35.02.163,LearnStrategy,2023.2.3,Win32,59.88023952,5,2,4,,,,,,,,7,15,,,,,,,,,,,7,2.413,1,,,,,,0.110185199,-0.412037037,1,0,0,2.4126,Peridotite_rect,3,0,3,0,1,
65d62d6afc0dcc5b81ceff41,SCN,2024-06-26_12h35.02.163,LearnStrategy,2023.2.3,Win32,59.88023952,5,2,5,,,,,,,,1,02,,,,,,,,,,,4,3.056,0,,,,,,0.431018547,-0.261574074,1,0,0,3.0564,Gabbro_rect,4,0,4,0,1,
65d62d6afc0dcc5b81ceff41,SCN,2024-06-26_12h35.02.163,LearnStrategy,2023.2.3,Win32,59.88023952,5,2,6,,,,,,,,8,15,,,,,,,,,,,8,0.916,1,,,,,,0.380092621,-0.400462963,1,0,0,0.9155,Pumice_rect,5,0,5,0,1,
65d62d6afc0dcc5b81ceff41,SCN,2024-06-26_12h35.02.163,LearnStrategy,2023.2.3,Win32,59.88023952,5,2,7,,,,,,,,6,09,,,,,,,,,,,3,3.994,0,,,,,,0.137499986,-0.263425968,1,0,0,3.9938,Diorite_rect,6,0,6,0,1,
65d62d6afc0dcc5b81ceff41,SCN,2024-06-26_12h35.02.163,LearnStrategy,2023.2.3,Win32,59.88023952,5,2,8,,,,,,,,3,11,,,,,,,,,,,3,4.575,1,,,,,,0.132870356,-0.260185171,1,0,0,4.575,Diorite_rect,7,0,7,0,1,
65d62d6afc0dcc5b81ceff41,SCN,2024-06-26_12h35.02.163,LearnStrategy,2023.2.3,Win32,59.88023952,5,2,9,,,,,,,,3,08,,,,,,,,,,,7,2.144,0,,,,,,0.111111111,-0.417129658,1,0,0,2.1443,Peridotite_rect,8,0,8,0,1,
65d62d6afc0dcc5b81ceff41,SCN,2024-06-26_12h35.02.163,LearnStrategy,2023.2.3,Win32,59.88023952,5,2,10,,,,,,,,1,04,,,,,,,,,,,2,2.019,0,,,,,,-0.121759273,-0.254166709,1,0,0,2.019,Basalt_rect,9,0,9,0,1,
65d62d6afc0dcc5b81ceff41,SCN,2024-06-26_12h35.02.163,LearnStrategy,2023.2.3,Win32,59.88023952,5,2,11,,,,,,,,8,08,,,,,,,,,,,8,1.075,1,,,,,,0.338425954,-0.406944487,1,0,0,1.0747,Pumice_rect,10,0,10,0,1,
65d62d6afc0dcc5b81ceff41,SCN,2024-06-26_12h35.02.163,LearnStrategy,2023.2.3,Win32,59.88023952,5,2,12,,,,,,,,4,05,,,,,,,,,,,6,2.939,0,,,,,,-0.171759252,-0.388425968,1,0,0,2.9389,Pegmatite_rect,11,0,11,0,1,
65d62d6afc0dcc5b81ceff41,SCN,2024-06-26_12h35.02.163,LearnStrategy,2023.2.3,Win32,59.88023952,5,2,13,,,,,,,,6,05,,,,,,,,,,,6,3.215,1,,,,,,-0.135185171,-0.411574116,1,0,0,3.2154,Pegmatite_rect,12,0,12,0,1,
65d62d6afc0dcc5b81ceff41,SCN,2024-06-26_12h35.02.163,LearnStrategy,2023.2.3,Win32,59.88023952,5,2,14,,,,,,,,5,07,,,,,,,,,,,5,1.067,1,,,,,,-0.377314815,-0.411111125,1,0,0,1.0671,Obsidian_rect,13,0,13,0,1,
65d62d6afc0dcc5b81ceff41,SCN,2024-06-26_12h35.02.163,LearnStrategy,2023.2.3,Win32,59.88023952,5,2,15,,,,,,,,2,12,,,,,,,,,,,8,3.975,0,,,,,,0.39444443,-0.416203746,1,0,0,3.9746,Pumice_rect,14,0,14,0,1,
65d62d6afc0dcc5b81ceff41,SCN,2024-06-26_12h35.02.163,LearnStrategy,2023.2.3,Win32,59.88023952,5,2,16,,,,,,,,4,11,,,,,,,,,,,2,2.983,0,,,,,,-0.097685143,-0.257407436,1,0,0,2.9827,Basalt_rect,15,0,15,0,1,
65d62d6afc0dcc5b81ceff41,SCN,2024-06-26_12h35.02.163,LearnStrategy,2023.2.3,Win32,59.88023952,6,1,1,0.118055556,0.104629623,1,0,0,3.6208,Andesite_05,1,05,4,5,3.621,0.121296282,-0.267592607,1,0,0,2.5717,Diorite_rect,3,2.572,0,0,0,0,0,1,,,,,,,,,,,,,
65d62d6afc0dcc5b81ceff41,SCN,2024-06-26_12h35.02.163,LearnStrategy,2023.2.3,Win32,59.88023952,6,1,2,0.360185199,0.067592586,1,0,0,2.3922,Andesite_06,1,06,4,7,2.392,-0.338425919,-0.256481524,1,0,0,1.1002,Andesite_rect,1,1.1,1,1,0,1,0,1,,,,,,,,,,,,,
65d62d6afc0dcc5b81ceff41,SCN,2024-06-26_12h35.02.163,LearnStrategy,2023.2.3,Win32,59.88023952,6,1,3,0.231944473,-0.400000042,1,0,0,5.0566,Gabbro_01,4,01,1,6,5.057,-0.361574067,-0.259259259,1,0,0,1.157,Andesite_rect,1,1.157,0,2,0,2,0,1,,,,,,,,,,,,,
65d62d6afc0dcc5b81ceff41,SCN,2024-06-26_12h35.02.163,LearnStrategy,2023.2.3,Win32,59.88023952,6,1,4,0.425000014,0.100925905,1,0,0,0.787,Andesite_06,1,06,4,7,0.787,-0.381481489,-0.255555541,1,0,0,2.0597,Andesite_rect,1,2.06,1,3,0,3,0,1,,,,,,,,,,,,,
65d62d6afc0dcc5b81ceff41,SCN,2024-06-26_12h35.02.163,LearnStrategy,2023.2.3,Win32,59.88023952,6,1,5,0.538888861,-0.241203732,1,0,0,1.2643,Gabbro_12,4,12,2,8,1.264,0.351388931,-0.228703746,1,0,0,1.072,Gabbro_rect,4,1.072,1,4,0,4,0,1,,,,,,,,,,,,,
65d62d6afc0dcc5b81ceff41,SCN,2024-06-26_12h35.02.163,LearnStrategy,2023.2.3,Win32,59.88023952,6,1,6,-0.39444443,-0.107870384,1,0,0,1.5829,Andesite_14,1,14,3,2,1.583,-0.179629608,-0.243981467,1,0,0,3.1125,Basalt_rect,2,3.112,0,5,0,5,0,1,,,,,,,,,,,,,
65d62d6afc0dcc5b81ceff41,SCN,2024-06-26_12h35.02.163,LearnStrategy,2023.2.3,Win32,59.88023952,6,1,7,0.419907393,0.082870377,1,0,0,0.8062,Andesite_06,1,06,4,7,0.806,-0.381944444,-0.255555541,1,0,0,2.5681,Andesite_rect,1,2.568,1,6,0,6,0,1,,,,,,,,,,,,,
65d62d6afc0dcc5b81ceff41,SCN,2024-06-26_12h35.02.163,LearnStrategy,2023.2.3,Win32,59.88023952,6,1,8,-0.545370367,-0.245833362,1,0,0,1.5168,Peridotite_10,7,10,2,1,1.517,-0.116203661,-0.415740755,1,0,0,1.4519,Pegmatite_rect,6,1.452,0,7,0,7,0,1,,,,,,,,,,,,,
65d62d6afc0dcc5b81ceff41,SCN,2024-06-26_12h35.02.163,LearnStrategy,2023.2.3,Win32,59.88023952,6,1,9,-0.200925933,-0.376388903,1,0,0,0.9092,Peridotite_12,7,12,1,3,0.909,0.098148134,-0.407870399,1,0,0,1.8196,Peridotite_rect,7,1.82,1,8,0,8,0,1,,,,,,,,,,,,,
65d62d6afc0dcc5b81ceff41,SCN,2024-06-26_12h35.02.163,LearnStrategy,2023.2.3,Win32,59.88023952,6,1,10,-0.365740741,0.07916666,1,0,0,1.4059,Basalt_11,2,11,4,2,1.406,-0.39907406,-0.265277792,1,0,0,2.6448,Andesite_rect,1,2.645,0,9,0,9,0,1,,,,,,,,,,,,,
65d62d6afc0dcc5b81ceff41,SCN,2024-06-26_12h35.02.163,LearnStrategy,2023.2.3,Win32,59.88023952,6,1,11,-0.049537023,-0.099074116,1,0,0,1.2008,Peridotite_14,7,14,3,4,1.201,-0.106481481,-0.235648191,1,0,0,2.3654,Basalt_rect,2,2.365,0,10,0,10,0,1,,,,,,,,,,,,,
65d62d6afc0dcc5b81ceff41,SCN,2024-06-26_12h35.02.163,LearnStrategy,2023.2.3,Win32,59.88023952,6,1,12,-0.10601849,0.397222219,1,0,0,1.3399,Basalt_09,2,09,6,4,1.34,-0.167592578,-0.260185171,1,0,0,1.0784,Basalt_rect,2,1.078,1,11,0,11,0,1,,,,,,,,,,,,,
65d62d6afc0dcc5b81ceff41,SCN,2024-06-26_12h35.02.163,LearnStrategy,2023.2.3,Win32,59.88023952,6,1,13,0.534259231,-0.428240741,1,0,0,1.6587,Peridotite_02,7,02,1,8,1.659,0.212500042,-0.409722222,1,0,0,1.8552,Peridotite_rect,7,1.855,1,12,0,12,0,1,,,,,,,,,,,,,
65d62d6afc0dcc5b81ceff41,SCN,2024-06-26_12h35.02.163,LearnStrategy,2023.2.3,Win32,59.88023952,6,1,14,0.384259259,-0.446296339,1,0,0,1.7349,Pumice_02,8,02,1,7,1.735,0.354629658,-0.406481496,1,0,0,1.2559,Pumice_rect,8,1.256,1,13,0,13,0,1,,,,,,,,,,,,,
65d62d6afc0dcc5b81ceff41,SCN,2024-06-26_12h35.02.163,LearnStrategy,2023.2.3,Win32,59.88023952,6,1,15,-0.103240755,-0.441203718,1,0,0,1.0169,Diorite_10,3,10,1,4,1.017,-0.333796289,-0.251388903,1,0,0,1.9954,Andesite_rect,1,1.995,0,14,0,14,0,1,,,,,,,,,,,,,
65d62d6afc0dcc5b81ceff41,SCN,2024-06-26_12h35.02.163,LearnStrategy,2023.2.3,Win32,59.88023952,6,1,16,-0.249537044,-0.392592607,1,0,0,1.8645,Peridotite_12,7,12,1,3,1.865,0.123611097,-0.381481524,1,0,0,1.1755,Peridotite_rect,7,1.176,1,15,0,15,0,1,,,,,,,,,,,,,
65d62d6afc0dcc5b81ceff41,SCN,2024-06-26_12h35.02.163,LearnStrategy,2023.2.3,Win32,59.88023952,6,2,1,,,,,,,,7,07,,,,,,,,,,,7,3.334,1,,,,,,0.110185199,-0.401388875,1,0,0,3.3342,Peridotite_rect,0,0,0,0,1,
65d62d6afc0dcc5b81ceff41,SCN,2024-06-26_12h35.02.163,LearnStrategy,2023.2.3,Win32,59.88023952,6,2,2,,,,,,,,6,15,,,,,,,,,,,5,1.577,0,,,,,,-0.375,-0.405092593,1,0,0,1.5774,Obsidian_rect,1,0,1,0,1,
65d62d6afc0dcc5b81ceff41,SCN,2024-06-26_12h35.02.163,LearnStrategy,2023.2.3,Win32,59.88023952,6,2,3,,,,,,,,6,16,,,,,,,,,,,5,1.192,0,,,,,,-0.375,-0.405092593,1,0,0,1.1922,Obsidian_rect,2,0,2,0,1,
65d62d6afc0dcc5b81ceff41,SCN,2024-06-26_12h35.02.163,LearnStrategy,2023.2.3,Win32,59.88023952,6,2,4,,,,,,,,8,09,,,,,,,,,,,8,0.999,1,,,,,,0.397222236,-0.411111125,1,0,0,0.9994,Pumice_rect,3,0,3,0,1,
65d62d6afc0dcc5b81ceff41,SCN,2024-06-26_12h35.02.163,LearnStrategy,2023.2.3,Win32,59.88023952,6,2,5,,,,,,,,8,14,,,,,,,,,,,8,0.867,1,,,,,,0.400000042,-0.417129658,1,0,0,0.8673,Pumice_rect,4,0,4,0,1,
65d62d6afc0dcc5b81ceff41,SCN,2024-06-26_12h35.02.163,LearnStrategy,2023.2.3,Win32,59.88023952,6,2,6,,,,,,,,5,02,,,,,,,,,,,5,1.143,1,,,,,,-0.355555534,-0.409259302,1,0,0,1.143,Obsidian_rect,5,0,5,0,1,
65d62d6afc0dcc5b81ceff41,SCN,2024-06-26_12h35.02.163,LearnStrategy,2023.2.3,Win32,59.88023952,6,2,7,,,,,,,,2,02,,,,,,,,,,,2,1.188,1,,,,,,-0.09120369,-0.263425968,1,0,0,1.1882,Basalt_rect,6,0,6,0,1,
65d62d6afc0dcc5b81ceff41,SCN,2024-06-26_12h35.02.163,LearnStrategy,2023.2.3,Win32,59.88023952,6,2,8,,,,,,,,1,03,,,,,,,,,,,1,2.597,1,,,,,,-0.385648127,-0.252777806,1,0,0,2.5969,Andesite_rect,7,0,7,0,1,
65d62d6afc0dcc5b81ceff41,SCN,2024-06-26_12h35.02.163,LearnStrategy,2023.2.3,Win32,59.88023952,6,2,9,,,,,,,,2,06,,,,,,,,,,,2,1.226,1,,,,,,-0.146296254,-0.262499986,1,0,0,1.2259,Basalt_rect,8,0,8,0,1,
65d62d6afc0dcc5b81ceff41,SCN,2024-06-26_12h35.02.163,LearnStrategy,2023.2.3,Win32,59.88023952,6,2,10,,,,,,,,4,15,,,,,,,,,,,3,1.997,0,,,,,,0.154166681,-0.266666695,1,0,0,1.9967,Diorite_rect,9,0,9,0,1,
65d62d6afc0dcc5b81ceff41,SCN,2024-06-26_12h35.02.163,LearnStrategy,2023.2.3,Win32,59.88023952,6,2,11,,,,,,,,3,06,,,,,,,,,,,3,1.16,1,,,,,,0.154166681,-0.266666695,1,0,0,1.1598,Diorite_rect,10,0,10,0,1,
65d62d6afc0dcc5b81ceff41,SCN,2024-06-26_12h35.02.163,LearnStrategy,2023.2.3,Win32,59.88023952,6,2,12,,,,,,,,3,15,,,,,,,,,,,3,1.613,1,,,,,,0.156481496,-0.269907422,1,0,0,1.6132,Diorite_rect,11,0,11,0,1,
65d62d6afc0dcc5b81ceff41,SCN,2024-06-26_12h35.02.163,LearnStrategy,2023.2.3,Win32,59.88023952,6,2,13,,,,,,,,1,16,,,,,,,,,,,6,2.453,0,,,,,,-0.092129601,-0.397222236,1,0,0,2.4531,Pegmatite_rect,12,0,12,0,1,
65d62d6afc0dcc5b81ceff41,SCN,2024-06-26_12h35.02.163,LearnStrategy,2023.2.3,Win32,59.88023952,6,2,14,,,,,,,,4,03,,,,,,,,,,,6,0.844,0,,,,,,-0.092129601,-0.397222236,1,0,0,0.8444,Pegmatite_rect,13,0,13,0,1,
65d62d6afc0dcc5b81ceff41,SCN,2024-06-26_12h35.02.163,LearnStrategy,2023.2.3,Win32,59.88023952,6,2,15,,,,,,,,7,16,,,,,,,,,,,3,1.445,0,,,,,,0.140740783,-0.249537079,1,0,0,1.4452,Diorite_rect,14,0,14,0,1,
65d62d6afc0dcc5b81ceff41,SCN,2024-06-26_12h35.02.163,LearnStrategy,2023.2.3,Win32,59.88023952,6,2,16,,,,,,,,5,06,,,,,,,,,,,5,1.21,1,,,,,,-0.346296275,-0.407870399,1,0,0,1.2105,Obsidian_rect,15,0,15,0,1,
65d62d6afc0dcc5b81ceff41,SCN,2024-06-26_12h35.02.163,LearnStrategy,2023.2.3,Win32,59.88023952,7,1,1,-0.366203697,0.085185192,1,0,0,1.2522,Basalt_11,2,11,4,2,1.252,0.381944444,-0.239351838,1,0,0,1.186,Gabbro_rect,4,1.186,0,0,0,0,0,1,,,,,,,,,,,,,
65d62d6afc0dcc5b81ceff41,SCN,2024-06-26_12h35.02.163,LearnStrategy,2023.2.3,Win32,59.88023952,7,1,2,0.088425954,0.381018515,1,0,0,3.4028,Pegmatite_10,6,10,6,5,3.403,0.388425968,-0.24537037,1,0,0,1.2858,Gabbro_rect,4,1.286,0,1,0,1,0,1,,,,,,,,,,,,,
65d62d6afc0dcc5b81ceff41,SCN,2024-06-26_12h35.02.163,LearnStrategy,2023.2.3,Win32,59.88023952,7,1,3,0.555092564,0.387037039,1,0,0,1.0802,Gabbro_09,4,09,6,8,1.08,0.359722208,-0.26898151,1,0,0,1.1389,Gabbro_rect,4,1.139,1,2,0,2,0,1,,,,,,,,,,,,,
65d62d6afc0dcc5b81ceff41,SCN,2024-06-26_12h35.02.163,LearnStrategy,2023.2.3,Win32,59.88023952,7,1,4,0.251388903,0.26203703,1,0,0,3.0997,Andesite_01,1,01,5,6,3.1,0.36527782,-0.25,1,0,0,0.9469,Gabbro_rect,4,0.947,0,3,0,3,0,1,,,,,,,,,,,,,
65d62d6afc0dcc5b81ceff41,SCN,2024-06-26_12h35.02.163,LearnStrategy,2023.2.3,Win32,59.88023952,7,1,5,-0.576851845,-0.256018533,1,0,0,4.0787,Peridotite_10,7,10,2,1,4.079,0.169907393,-0.397685228,1,0,0,1.1623,Peridotite_rect,7,1.162,1,4,0,4,0,1,,,,,,,,,,,,,
65d62d6afc0dcc5b81ceff41,SCN,2024-06-26_12h35.02.163,LearnStrategy,2023.2.3,Win32,59.88023952,7,1,6,-0.545833323,-0.411111125,1,0,0,1.095,Pegmatite_12,6,12,1,1,1.095,0.351851852,-0.250925912,1,0,0,1.0957,Gabbro_rect,4,1.096,0,5,0,5,0,1,,,,,,,,,,,,,
65d62d6afc0dcc5b81ceff41,SCN,2024-06-26_12h35.02.163,LearnStrategy,2023.2.3,Win32,59.88023952,7,1,7,-0.082407422,0.089814822,1,0,0,6.9792,Pegmatite_07,6,07,4,4,6.979,0.338425954,-0.234259288,1,0,0,1.6572,Gabbro_rect,4,1.657,0,6,0,6,0,1,,,,,,,,,,,,,
65d62d6afc0dcc5b81ceff41,SCN,2024-06-26_12h35.02.163,LearnStrategy,2023.2.3,Win32,59.88023952,7,1,8,0.585185157,0.407870372,1,0,0,2.7437,Gabbro_09,4,09,6,8,2.744,0.463425954,-0.233796296,1,0,0,0.9833,Gabbro_rect,4,0.983,1,7,0,7,0,1,,,,,,,,,,,,,
65d62d6afc0dcc5b81ceff41,SCN,2024-06-26_12h35.02.163,LearnStrategy,2023.2.3,Win32,59.88023952,7,1,9,-0.216666645,0.395833333,1,0,0,1.9915,Pegmatite_03,6,03,6,3,1.992,-0.104166667,-0.388425968,1,0,0,1.1235,Pegmatite_rect,6,1.123,1,8,0,8,0,1,,,,,,,,,,,,,
65d62d6afc0dcc5b81ceff41,SCN,2024-06-26_12h35.02.163,LearnStrategy,2023.2.3,Win32,59.88023952,7,1,10,-0.081018519,-0.27407406,1,0,0,4.2047,Gabbro_10,4,10,2,4,4.205,0.402314857,-0.255555541,1,0,0,1.3311,Gabbro_rect,4,1.331,1,9,0,9,0,1,,,,,,,,,,,,,
65d62d6afc0dcc5b81ceff41,SCN,2024-06-26_12h35.02.163,LearnStrategy,2023.2.3,Win32,59.88023952,7,1,11,0.223148134,0.258796286,1,0,0,2.4107,Andesite_01,1,01,5,6,2.411,0.408333319,-0.247222265,1,0,0,2.3326,Gabbro_rect,4,2.333,0,10,0,10,0,1,,,,,,,,,,,,,
65d62d6afc0dcc5b81ceff41,SCN,2024-06-26_12h35.02.163,LearnStrategy,2023.2.3,Win32,59.88023952,7,1,12,0.405092593,-0.276388875,1,0,0,3.9815,Gabbro_08,4,08,2,7,3.982,0.381944444,-0.243055556,1,0,0,1.9038,Gabbro_rect,4,1.904,1,11,0,11,0,1,,,,,,,,,,,,,
65d62d6afc0dcc5b81ceff41,SCN,2024-06-26_12h35.02.163,LearnStrategy,2023.2.3,Win32,59.88023952,7,1,13,0.350000028,-0.390277792,1,0,0,2.8597,Pumice_02,8,02,1,7,2.86,0.350000028,-0.390277792,1,0,0,0.9902,Pumice_rect,8,0.99,1,12,0,12,0,1,,,,,,,,,,,,,
65d62d6afc0dcc5b81ceff41,SCN,2024-06-26_12h35.02.163,LearnStrategy,2023.2.3,Win32,59.88023952,7,1,14,-0.257870356,-0.442592621,1,0,0,0.8796,Peridotite_12,7,12,1,3,0.88,0.126388903,-0.408333319,1,0,0,1.6381,Peridotite_rect,7,1.638,1,13,0,13,0,1,,,,,,,,,,,,,
65d62d6afc0dcc5b81ceff41,SCN,2024-06-26_12h35.02.163,LearnStrategy,2023.2.3,Win32,59.88023952,7,1,15,-0.381481489,-0.431018547,1,0,0,0.9188,Andesite_09,1,09,1,2,0.919,-0.383796303,-0.25462963,1,0,0,1.4634,Andesite_rect,1,1.463,1,14,0,14,0,1,,,,,,,,,,,,,
65d62d6afc0dcc5b81ceff41,SCN,2024-06-26_12h35.02.163,LearnStrategy,2023.2.3,Win32,59.88023952,7,1,16,-0.559259256,-0.385185171,1,0,0,0.7527,Pegmatite_12,6,12,1,1,0.753,-0.140277792,-0.411574116,1,0,0,1.263,Pegmatite_rect,6,1.263,1,15,0,15,0,1,,,,,,,,,,,,,
65d62d6afc0dcc5b81ceff41,SCN,2024-06-26_12h35.02.163,LearnStrategy,2023.2.3,Win32,59.88023952,7,2,1,,,,,,,,1,02,,,,,,,,,,,1,3.238,1,,,,,,-0.382870356,-0.242592635,1,0,0,3.2379,Andesite_rect,0,0,0,0,1,
65d62d6afc0dcc5b81ceff41,SCN,2024-06-26_12h35.02.163,LearnStrategy,2023.2.3,Win32,59.88023952,7,2,2,,,,,,,,3,16,,,,,,,,,,,6,4.765,0,,,,,,-0.124074088,-0.389814801,1,0,0,4.7646,Pegmatite_rect,1,0,1,0,1,
65d62d6afc0dcc5b81ceff41,SCN,2024-06-26_12h35.02.163,LearnStrategy,2023.2.3,Win32,59.88023952,7,2,3,,,,,,,,5,07,,,,,,,,,,,5,1.145,1,,,,,,-0.358796296,-0.41805557,1,0,0,1.1453,Obsidian_rect,2,0,2,0,1,
65d62d6afc0dcc5b81ceff41,SCN,2024-06-26_12h35.02.163,LearnStrategy,2023.2.3,Win32,59.88023952,7,2,4,,,,,,,,6,11,,,,,,,,,,,6,2.722,1,,,,,,-0.130555541,-0.41342594,1,0,0,2.7219,Pegmatite_rect,3,0,3,0,1,
65d62d6afc0dcc5b81ceff41,SCN,2024-06-26_12h35.02.163,LearnStrategy,2023.2.3,Win32,59.88023952,7,2,5,,,,,,,,8,04,,,,,,,,,,,8,1.381,1,,,,,,0.453703704,-0.396759245,1,0,0,1.3807,Pumice_rect,4,0,4,0,1,
65d62d6afc0dcc5b81ceff41,SCN,2024-06-26_12h35.02.163,LearnStrategy,2023.2.3,Win32,59.88023952,7,2,6,,,,,,,,8,08,,,,,,,,,,,8,0.914,1,,,,,,0.453703704,-0.396759245,1,0,0,0.9141,Pumice_rect,5,0,5,0,1,
65d62d6afc0dcc5b81ceff41,SCN,2024-06-26_12h35.02.163,LearnStrategy,2023.2.3,Win32,59.88023952,7,2,7,,,,,,,,3,15,,,,,,,,,,,6,3.098,0,,,,,,-0.135648162,-0.378703718,1,0,0,3.0982,Pegmatite_rect,6,0,6,0,1,
65d62d6afc0dcc5b81ceff41,SCN,2024-06-26_12h35.02.163,LearnStrategy,2023.2.3,Win32,59.88023952,7,2,8,,,,,,,,4,03,,,,,,,,,,,6,1.244,0,,,,,,-0.135648162,-0.382870356,1,0,0,1.2439,Pegmatite_rect,7,0,7,0,1,
65d62d6afc0dcc5b81ceff41,SCN,2024-06-26_12h35.02.163,LearnStrategy,2023.2.3,Win32,59.88023952,7,2,9,,,,,,,,2,06,,,,,,,,,,,2,1.249,1,,,,,,-0.144907422,-0.253240727,1,0,0,1.2488,Basalt_rect,8,0,8,0,1,
65d62d6afc0dcc5b81ceff41,SCN,2024-06-26_12h35.02.163,LearnStrategy,2023.2.3,Win32,59.88023952,7,2,10,,,,,,,,2,14,,,,,,,,,,,8,1.324,0,,,,,,0.375,-0.402777778,1,0,0,1.324,Pumice_rect,9,0,9,0,1,
65d62d6afc0dcc5b81ceff41,SCN,2024-06-26_12h35.02.163,LearnStrategy,2023.2.3,Win32,59.88023952,7,2,11,,,,,,,,7,06,,,,,,,,,,,7,1.346,1,,,,,,0.050925926,-0.404629672,1,0,0,1.3464,Peridotite_rect,10,0,10,0,1,
65d62d6afc0dcc5b81ceff41,SCN,2024-06-26_12h35.02.163,LearnStrategy,2023.2.3,Win32,59.88023952,7,2,12,,,,,,,,4,16,,,,,,,,,,,4,2.248,1,,,,,,0.387962977,-0.243055556,1,0,0,2.2476,Gabbro_rect,11,0,11,0,1,
65d62d6afc0dcc5b81ceff41,SCN,2024-06-26_12h35.02.163,LearnStrategy,2023.2.3,Win32,59.88023952,7,2,13,,,,,,,,6,09,,,,,,,,,,,6,1.884,1,,,,,,-0.111111111,-0.412037037,1,0,0,1.8841,Pegmatite_rect,12,0,12,0,1,
65d62d6afc0dcc5b81ceff41,SCN,2024-06-26_12h35.02.163,LearnStrategy,2023.2.3,Win32,59.88023952,7,2,14,,,,,,,,5,06,,,,,,,,,,,5,1.088,1,,,,,,-0.395370377,-0.412500028,1,0,0,1.0884,Obsidian_rect,13,0,13,0,1,
65d62d6afc0dcc5b81ceff41,SCN,2024-06-26_12h35.02.163,LearnStrategy,2023.2.3,Win32,59.88023952,7,2,15,,,,,,,,1,16,,,,,,,,,,,3,1.798,0,,,,,,0.143055598,-0.258333347,1,0,0,1.7983,Diorite_rect,14,0,14,0,1,
65d62d6afc0dcc5b81ceff41,SCN,2024-06-26_12h35.02.163,LearnStrategy,2023.2.3,Win32,59.88023952,7,2,16,,,,,,,,7,04,,,,,,,,,,,3,0.897,0,,,,,,0.143055598,-0.262962977,1,0,0,0.8969,Diorite_rect,15,0,15,0,1,
65d62d6afc0dcc5b81ceff41,SCN,2024-06-26_12h35.02.163,LearnStrategy,2023.2.3,Win32,59.88023952,8,1,1,-0.082407422,0.085648148,1,0,0,2.9897,Pegmatite_07,6,07,4,4,2.99,-0.130555541,-0.410648134,1,0,0,1.121,Pegmatite_rect,6,1.121,1,0,0,0,0,1,,,,,,,,,,,,,
65d62d6afc0dcc5b81ceff41,SCN,2024-06-26_12h35.02.163,LearnStrategy,2023.2.3,Win32,59.88023952,8,1,2,-0.567592586,0.441203705,1,0,0,0.9323,Diorite_07,3,07,6,1,0.932,-0.443055541,-0.251388903,1,0,0,2.4264,Andesite_rect,1,2.426,0,1,0,1,0,1,,,,,,,,,,,,,
65d62d6afc0dcc5b81ceff41,SCN,2024-06-26_12h35.02.163,LearnStrategy,2023.2.3,Win32,59.88023952,8,1,3,-0.357407393,0.428703701,1,0,0,1.4682,Andesite_10,1,10,6,2,1.468,-0.413888896,-0.258796339,1,0,0,3.6312,Andesite_rect,1,3.631,1,2,0,2,0,1,,,,,,,,,,,,,
65d62d6afc0dcc5b81ceff41,SCN,2024-06-26_12h35.02.163,LearnStrategy,2023.2.3,Win32,59.88023952,8,1,4,-0.221296275,0.410185187,1,0,0,1.0448,Pegmatite_03,6,03,6,3,1.045,-0.095370328,-0.410185213,1,0,0,1.0097,Pegmatite_rect,6,1.01,1,3,0,3,0,1,,,,,,,,,,,,,
65d62d6afc0dcc5b81ceff41,SCN,2024-06-26_12h35.02.163,LearnStrategy,2023.2.3,Win32,59.88023952,8,1,5,-0.074999986,0.405555557,1,0,0,0.9713,Basalt_09,2,09,6,4,0.971,-0.10601849,-0.239351838,1,0,0,1.1423,Basalt_rect,2,1.142,1,4,0,4,0,1,,,,,,,,,,,,,
65d62d6afc0dcc5b81ceff41,SCN,2024-06-26_12h35.02.163,LearnStrategy,2023.2.3,Win32,59.88023952,8,1,6,0.097685213,0.44398148,1,0,0,0.7244,Pegmatite_10,6,10,6,5,0.724,-0.134259259,-0.398148148,1,0,0,0.9609,Pegmatite_rect,6,0.961,1,5,0,5,0,1,,,,,,,,,,,,,
65d62d6afc0dcc5b81ceff41,SCN,2024-06-26_12h35.02.163,LearnStrategy,2023.2.3,Win32,59.88023952,8,1,7,0.229166667,0.399537034,1,0,0,1.0768,Pumice_16,8,16,6,6,1.077,0.445370427,-0.415740755,1,0,0,1.6973,Pumice_rect,8,1.697,1,6,0,6,0,1,,,,,,,,,,,,,
65d62d6afc0dcc5b81ceff41,SCN,2024-06-26_12h35.02.163,LearnStrategy,2023.2.3,Win32,59.88023952,8,1,8,0.403240769,0.392592589,1,0,0,0.9347,Basalt_01,2,01,6,7,0.935,-0.125,-0.265740783,1,0,0,2.1181,Basalt_rect,2,2.118,1,7,0,7,0,1,,,,,,,,,,,,,
65d62d6afc0dcc5b81ceff41,SCN,2024-06-26_12h35.02.163,LearnStrategy,2023.2.3,Win32,59.88023952,8,1,9,0.568055612,0.450925924,1,0,0,1.0377,Gabbro_09,4,09,6,8,1.038,0.365740741,-0.262499986,1,0,0,1.8229,Gabbro_rect,4,1.823,1,8,0,8,0,1,,,,,,,,,,,,,
65d62d6afc0dcc5b81ceff41,SCN,2024-06-26_12h35.02.163,LearnStrategy,2023.2.3,Win32,59.88023952,8,1,10,-0.567592586,0.239351855,1,0,0,1.0083,Obsidian_14,5,14,5,1,1.008,-0.379166674,-0.401851866,1,0,0,1.2534,Obsidian_rect,5,1.253,1,9,0,9,0,1,,,,,,,,,,,,,
65d62d6afc0dcc5b81ceff41,SCN,2024-06-26_12h35.02.163,LearnStrategy,2023.2.3,Win32,59.88023952,8,1,11,-0.374074053,0.244444441,1,0,0,0.9328,Pumice_05,8,05,5,2,0.933,0.431018547,-0.410185213,1,0,0,1.8101,Pumice_rect,8,1.81,1,10,0,10,0,1,,,,,,,,,,,,,
65d62d6afc0dcc5b81ceff41,SCN,2024-06-26_12h35.02.163,LearnStrategy,2023.2.3,Win32,59.88023952,8,1,12,-0.23333334,0.269444448,1,0,0,0.7913,Peridotite_13,7,13,5,3,0.791,-0.139814801,-0.404166681,1,0,0,1.5064,Pegmatite_rect,6,1.506,0,11,0,11,0,1,,,,,,,,,,,,,
65d62d6afc0dcc5b81ceff41,SCN,2024-06-26_12h35.02.163,LearnStrategy,2023.2.3,Win32,59.88023952,8,1,13,-0.07222218,0.234259252,1,0,0,1.0578,Pegmatite_06,6,06,5,4,1.058,0.151851866,-0.261111153,1,0,0,2.2697,Diorite_rect,3,2.27,0,12,0,12,0,1,,,,,,,,,,,,,
65d62d6afc0dcc5b81ceff41,SCN,2024-06-26_12h35.02.163,LearnStrategy,2023.2.3,Win32,59.88023952,8,1,14,0.049074102,0.235185182,1,0,0,1.2203,Basalt_16,2,16,5,5,1.22,-0.381481489,-0.261111153,1,0,0,2.7901,Andesite_rect,1,2.79,0,13,0,13,0,1,,,,,,,,,,,,,
65d62d6afc0dcc5b81ceff41,SCN,2024-06-26_12h35.02.163,LearnStrategy,2023.2.3,Win32,59.88023952,8,1,15,0.276851866,0.276851848,1,0,0,0.8316,Andesite_01,1,01,5,6,0.832,0.09629631,-0.270370413,1,0,0,1.8017,Diorite_rect,3,1.802,0,14,0,14,0,1,,,,,,,,,,,,,
65d62d6afc0dcc5b81ceff41,SCN,2024-06-26_12h35.02.163,LearnStrategy,2023.2.3,Win32,59.88023952,8,1,16,0.384259259,0.240740741,1,0,0,1.0303,Diorite_09,3,09,5,7,1.03,-0.114351838,-0.392129616,1,0,0,1.5971,Pegmatite_rect,6,1.597,0,15,0,15,0,1,,,,,,,,,,,,,
65d62d6afc0dcc5b81ceff41,SCN,2024-06-26_12h35.02.163,LearnStrategy,2023.2.3,Win32,59.88023952,8,2,1,,,,,,,,6,16,,,,,,,,,,,6,1.923,1,,,,,,-0.151388875,-0.399537051,1,0,0,1.9234,Pegmatite_rect,0,0,0,0,1,
65d62d6afc0dcc5b81ceff41,SCN,2024-06-26_12h35.02.163,LearnStrategy,2023.2.3,Win32,59.88023952,8,2,2,,,,,,,,1,03,,,,,,,,,,,2,1.824,0,,,,,,-0.14907406,-0.260648162,1,0,0,1.8243,Basalt_rect,1,0,1,0,1,
65d62d6afc0dcc5b81ceff41,SCN,2024-06-26_12h35.02.163,LearnStrategy,2023.2.3,Win32,59.88023952,8,2,3,,,,,,,,3,13,,,,,,,,,,,7,1.536,0,,,,,,0.113888917,-0.412037037,1,0,0,1.5363,Peridotite_rect,2,0,2,0,1,
65d62d6afc0dcc5b81ceff41,SCN,2024-06-26_12h35.02.163,LearnStrategy,2023.2.3,Win32,59.88023952,8,2,4,,,,,,,,2,08,,,,,,,,,,,2,1.15,1,,,,,,-0.166666667,-0.257870356,1,0,0,1.1497,Basalt_rect,3,0,3,0,1,
65d62d6afc0dcc5b81ceff41,SCN,2024-06-26_12h35.02.163,LearnStrategy,2023.2.3,Win32,59.88023952,8,2,5,,,,,,,,5,10,,,,,,,,,,,5,2.302,1,,,,,,-0.380092586,-0.391666695,1,0,0,2.3018,Obsidian_rect,4,0,4,0,1,
65d62d6afc0dcc5b81ceff41,SCN,2024-06-26_12h35.02.163,LearnStrategy,2023.2.3,Win32,59.88023952,8,2,6,,,,,,,,7,07,,,,,,,,,,,7,1.533,1,,,,,,0.14398151,-0.393055598,1,0,0,1.5334,Peridotite_rect,5,0,5,0,1,
65d62d6afc0dcc5b81ceff41,SCN,2024-06-26_12h35.02.163,LearnStrategy,2023.2.3,Win32,59.88023952,8,2,7,,,,,,,,5,05,,,,,,,,,,,5,1.282,1,,,,,,-0.344444452,-0.407870399,1,0,0,1.2817,Obsidian_rect,6,0,6,0,1,
65d62d6afc0dcc5b81ceff41,SCN,2024-06-26_12h35.02.163,LearnStrategy,2023.2.3,Win32,59.88023952,8,2,8,,,,,,,,3,11,,,,,,,,,,,3,2.159,1,,,,,,0.12037037,-0.262037065,1,0,0,2.159,Diorite_rect,7,0,7,0,1,
65d62d6afc0dcc5b81ceff41,SCN,2024-06-26_12h35.02.163,LearnStrategy,2023.2.3,Win32,59.88023952,8,2,9,,,,,,,,4,15,,,,,,,,,,,1,2.39,0,,,,,,-0.372222229,-0.24027782,1,0,0,2.3898,Andesite_rect,8,0,8,0,1,
65d62d6afc0dcc5b81ceff41,SCN,2024-06-26_12h35.02.163,LearnStrategy,2023.2.3,Win32,59.88023952,8,2,10,,,,,,,,8,14,,,,,,,,,,,8,2.122,1,,,,,,0.395833333,-0.388888889,1,0,0,2.1217,Pumice_rect,9,0,9,0,1,
65d62d6afc0dcc5b81ceff41,SCN,2024-06-26_12h35.02.163,LearnStrategy,2023.2.3,Win32,59.88023952,8,2,11,,,,,,,,8,03,,,,,,,,,,,8,1.08,1,,,,,,0.416666667,-0.400462963,1,0,0,1.0798,Pumice_rect,10,0,10,0,1,
65d62d6afc0dcc5b81ceff41,SCN,2024-06-26_12h35.02.163,LearnStrategy,2023.2.3,Win32,59.88023952,8,2,12,,,,,,,,4,13,,,,,,,,,,,1,4.69,0,,,,,,-0.350462949,-0.247685185,1,0,0,4.6899,Andesite_rect,11,0,11,0,1,
65d62d6afc0dcc5b81ceff41,SCN,2024-06-26_12h35.02.163,LearnStrategy,2023.2.3,Win32,59.88023952,8,2,13,,,,,,,,7,05,,,,,,,,,,,7,2.308,1,,,,,,0.087500042,-0.400925954,1,0,0,2.308,Peridotite_rect,12,0,12,0,1,
65d62d6afc0dcc5b81ceff41,SCN,2024-06-26_12h35.02.163,LearnStrategy,2023.2.3,Win32,59.88023952,8,2,14,,,,,,,,6,15,,,,,,,,,,,5,1.142,0,,,,,,-0.40370369,-0.385185171,1,0,0,1.142,Obsidian_rect,13,0,13,0,1,
65d62d6afc0dcc5b81ceff41,SCN,2024-06-26_12h35.02.163,LearnStrategy,2023.2.3,Win32,59.88023952,8,2,15,,,,,,,,1,11,,,,,,,,,,,3,1.892,0,,,,,,0.131944444,-0.247222265,1,0,0,1.8917,Diorite_rect,14,0,14,0,1,
65d62d6afc0dcc5b81ceff41,SCN,2024-06-26_12h35.02.163,LearnStrategy,2023.2.3,Win32,59.88023952,8,2,16,,,,,,,,2,02,,,,,,,,,,,2,1.058,1,,,,,,-0.147222236,-0.237500014,1,0,0,1.0584,Basalt_rect,15,0,15,0,1,
65d62d6afc0dcc5b81ceff41,SCN,2024-06-26_12h35.02.163,LearnStrategy,2023.2.3,Win32,59.88023952,9,1,1,-0.5662037,0.452777779,1,0,0,1.9779,Diorite_07,3,07,6,1,1.978,0.104166667,-0.253703718,1,0,0,1.7291,Diorite_rect,3,1.729,1,0,0,0,0,1,,,,,,,,,,,,,
65d62d6afc0dcc5b81ceff41,SCN,2024-06-26_12h35.02.163,LearnStrategy,2023.2.3,Win32,59.88023952,9,1,2,-0.359259252,0.406481478,1,0,0,0.9905,Andesite_10,1,10,6,2,0.991,-0.388888889,-0.241203732,1,0,0,2.7664,Andesite_rect,1,2.766,1,1,0,1,0,1,,,,,,,,,,,,,
65d62d6afc0dcc5b81ceff41,SCN,2024-06-26_12h35.02.163,LearnStrategy,2023.2.3,Win32,59.88023952,9,1,3,-0.580092589,0.092592593,1,0,0,1.235,Diorite_02,3,02,4,1,1.235,0.151851866,-0.257407436,1,0,0,1.907,Diorite_rect,3,1.907,1,2,0,2,0,1,,,,,,,,,,,,,
65d62d6afc0dcc5b81ceff41,SCN,2024-06-26_12h35.02.163,LearnStrategy,2023.2.3,Win32,59.88023952,9,1,4,-0.059722194,0.082870377,1,0,0,0.6778,Pegmatite_07,6,07,4,4,0.678,-0.135185171,-0.392129616,1,0,0,1.0514,Pegmatite_rect,6,1.051,1,3,0,3,0,1,,,,,,,,,,,,,
65d62d6afc0dcc5b81ceff41,SCN,2024-06-26_12h35.02.163,LearnStrategy,2023.2.3,Win32,59.88023952,9,1,5,-0.21620369,-0.270370413,1,0,0,0.9984,Pegmatite_13,6,13,2,3,0.998,-0.138888889,-0.405555584,1,0,0,1.2185,Pegmatite_rect,6,1.218,1,4,0,4,0,1,,,,,,,,,,,,,
65d62d6afc0dcc5b81ceff41,SCN,2024-06-26_12h35.02.163,LearnStrategy,2023.2.3,Win32,59.88023952,9,1,6,0.087962963,-0.142129616,1,0,0,0.69,Pumice_10,8,10,3,5,0.69,0.364814829,-0.409722222,1,0,0,1.1655,Pumice_rect,8,1.165,1,5,0,5,0,1,,,,,,,,,,,,,
65d62d6afc0dcc5b81ceff41,SCN,2024-06-26_12h35.02.163,LearnStrategy,2023.2.3,Win32,59.88023952,9,1,7,0.248611097,-0.118055556,1,0,0,0.971,Gabbro_14,4,14,3,6,0.971,-0.413888896,-0.268518519,1,0,0,2.158,Andesite_rect,1,2.158,0,6,0,6,0,1,,,,,,,,,,,,,
65d62d6afc0dcc5b81ceff41,SCN,2024-06-26_12h35.02.163,LearnStrategy,2023.2.3,Win32,59.88023952,9,1,8,-0.393518519,-0.298611111,1,0,0,0.9685,Basalt_04,2,04,2,2,0.968,-0.165277764,-0.262499986,1,0,0,1.1037,Basalt_rect,2,1.104,1,7,0,7,0,1,,,,,,,,,,,,,
65d62d6afc0dcc5b81ceff41,SCN,2024-06-26_12h35.02.163,LearnStrategy,2023.2.3,Win32,59.88023952,9,1,9,0.125925912,-0.112500014,1,0,0,0.6284,Pumice_10,8,10,3,5,0.628,0.363425926,-0.398148148,1,0,0,1.0283,Pumice_rect,8,1.028,1,8,0,8,0,1,,,,,,,,,,,,,
65d62d6afc0dcc5b81ceff41,SCN,2024-06-26_12h35.02.163,LearnStrategy,2023.2.3,Win32,59.88023952,9,1,10,-0.209259245,0.110185164,1,0,0,0.759,Obsidian_09,5,09,4,3,0.759,-0.398148148,-0.39444443,1,0,0,1.4921,Obsidian_rect,5,1.492,1,9,0,9,0,1,,,,,,,,,,,,,
65d62d6afc0dcc5b81ceff41,SCN,2024-06-26_12h35.02.163,LearnStrategy,2023.2.3,Win32,59.88023952,9,1,11,0.411111125,0.081018519,1,0,0,1.1254,Andesite_06,1,06,4,7,1.125,0.07222225,-0.420370384,1,0,0,2.5835,Peridotite_rect,7,2.583,0,10,0,10,0,1,,,,,,,,,,,,,
65d62d6afc0dcc5b81ceff41,SCN,2024-06-26_12h35.02.163,LearnStrategy,2023.2.3,Win32,59.88023952,9,1,12,0.394907422,0.281481478,1,0,0,1.1117,Diorite_09,3,09,5,7,1.112,0.084722236,-0.247685185,1,0,0,1.5735,Diorite_rect,3,1.573,1,11,0,11,0,1,,,,,,,,,,,,,
65d62d6afc0dcc5b81ceff41,SCN,2024-06-26_12h35.02.163,LearnStrategy,2023.2.3,Win32,59.88023952,9,1,13,0.580555527,0.080555563,1,0,0,0.854,Peridotite_08,7,08,4,8,0.854,0.086111139,-0.402314857,1,0,0,2.0327,Peridotite_rect,7,2.033,1,12,0,12,0,1,,,,,,,,,,,,,
65d62d6afc0dcc5b81ceff41,SCN,2024-06-26_12h35.02.163,LearnStrategy,2023.2.3,Win32,59.88023952,9,1,14,-0.262499986,0.207407404,1,0,0,1.4138,Peridotite_13,7,13,5,3,1.414,0.126851894,-0.402777778,1,0,0,4.1863,Peridotite_rect,7,4.186,1,13,0,13,0,1,,,,,,,,,,,,,
65d62d6afc0dcc5b81ceff41,SCN,2024-06-26_12h35.02.163,LearnStrategy,2023.2.3,Win32,59.88023952,9,1,15,0.422685199,-0.25972225,1,0,0,1.5405,Gabbro_08,4,08,2,7,1.541,-0.354166667,-0.257407436,1,0,0,1.5884,Andesite_rect,1,1.588,0,14,0,14,0,1,,,,,,,,,,,,,
65d62d6afc0dcc5b81ceff41,SCN,2024-06-26_12h35.02.163,LearnStrategy,2023.2.3,Win32,59.88023952,9,1,16,0.545833305,-0.25972225,1,0,0,1.3805,Gabbro_12,4,12,2,8,1.38,-0.397222201,-0.260185171,1,0,0,1.6966,Andesite_rect,1,1.697,0,15,0,15,0,1,,,,,,,,,,,,,
65d62d6afc0dcc5b81ceff41,SCN,2024-06-26_12h35.02.163,LearnStrategy,2023.2.3,Win32,59.88023952,9,2,1,,,,,,,,8,09,,,,,,,,,,,8,1.409,1,,,,,,0.359722208,-0.421759288,1,0,0,1.4089,Pumice_rect,0,0,0,0,1,
65d62d6afc0dcc5b81ceff41,SCN,2024-06-26_12h35.02.163,LearnStrategy,2023.2.3,Win32,59.88023952,9,2,2,,,,,,,,6,05,,,,,,,,,,,6,2.923,1,,,,,,-0.069444444,-0.39444443,1,0,0,2.9232,Pegmatite_rect,1,0,1,0,1,
65d62d6afc0dcc5b81ceff41,SCN,2024-06-26_12h35.02.163,LearnStrategy,2023.2.3,Win32,59.88023952,9,2,3,,,,,,,,8,15,,,,,,,,,,,8,1.791,1,,,,,,0.378703718,-0.412500028,1,0,0,1.7905,Pumice_rect,2,0,2,0,1,
65d62d6afc0dcc5b81ceff41,SCN,2024-06-26_12h35.02.163,LearnStrategy,2023.2.3,Win32,59.88023952,9,2,4,,,,,,,,7,16,,,,,,,,,,,4,2.62,0,,,,,,0.348148134,-0.256018533,1,0,0,2.6195,Gabbro_rect,3,0,3,0,1,
65d62d6afc0dcc5b81ceff41,SCN,2024-06-26_12h35.02.163,LearnStrategy,2023.2.3,Win32,59.88023952,9,2,5,,,,,,,,1,07,,,,,,,,,,,3,1.48,0,,,,,,0.121296282,-0.25972225,1,0,0,1.4801,Diorite_rect,4,0,4,0,1,
65d62d6afc0dcc5b81ceff41,SCN,2024-06-26_12h35.02.163,LearnStrategy,2023.2.3,Win32,59.88023952,9,2,6,,,,,,,,3,08,,,,,,,,,,,7,1.443,0,,,,,,0.147685228,-0.413888931,1,0,0,1.4431,Peridotite_rect,5,0,5,0,1,
65d62d6afc0dcc5b81ceff41,SCN,2024-06-26_12h35.02.163,LearnStrategy,2023.2.3,Win32,59.88023952,9,2,7,,,,,,,,1,04,,,,,,,,,,,2,1.649,0,,,,,,-0.156944416,-0.243518547,1,0,0,1.6488,Basalt_rect,6,0,6,0,1,
65d62d6afc0dcc5b81ceff41,SCN,2024-06-26_12h35.02.163,LearnStrategy,2023.2.3,Win32,59.88023952,9,2,8,,,,,,,,2,10,,,,,,,,,,,2,2.28,1,,,,,,-0.159259266,-0.261111153,1,0,0,2.2795,Basalt_rect,7,0,7,0,1,
65d62d6afc0dcc5b81ceff41,SCN,2024-06-26_12h35.02.163,LearnStrategy,2023.2.3,Win32,59.88023952,9,2,9,,,,,,,,6,08,,,,,,,,,,,6,1.661,1,,,,,,-0.159259266,-0.41805557,1,0,0,1.6615,Pegmatite_rect,8,0,8,0,1,
65d62d6afc0dcc5b81ceff41,SCN,2024-06-26_12h35.02.163,LearnStrategy,2023.2.3,Win32,59.88023952,9,2,10,,,,,,,,3,06,,,,,,,,,,,1,5.434,0,,,,,,-0.389351845,-0.263888889,1,0,0,5.4345,Andesite_rect,9,0,9,0,1,
65d62d6afc0dcc5b81ceff41,SCN,2024-06-26_12h35.02.163,LearnStrategy,2023.2.3,Win32,59.88023952,9,2,11,,,,,,,,2,12,,,,,,,,,,,8,1.46,0,,,,,,0.415740755,-0.403240769,1,0,0,1.4604,Pumice_rect,10,0,10,0,1,
65d62d6afc0dcc5b81ceff41,SCN,2024-06-26_12h35.02.163,LearnStrategy,2023.2.3,Win32,59.88023952,9,2,12,,,,,,,,5,04,,,,,,,,,,,5,1.153,1,,,,,,-0.414351852,-0.414814843,1,0,0,1.153,Obsidian_rect,11,0,11,0,1,
65d62d6afc0dcc5b81ceff41,SCN,2024-06-26_12h35.02.163,LearnStrategy,2023.2.3,Win32,59.88023952,9,2,13,,,,,,,,4,05,,,,,,,,,,,4,2.189,1,,,,,,0.476388861,-0.231018561,1,0,0,2.1886,Gabbro_rect,12,0,12,0,1,
65d62d6afc0dcc5b81ceff41,SCN,2024-06-26_12h35.02.163,LearnStrategy,2023.2.3,Win32,59.88023952,9,2,14,,,,,,,,4,11,,,,,,,,,,,2,1.858,0,,,,,,-0.187037044,-0.271296325,1,0,0,1.8582,Basalt_rect,13,0,13,0,1,
65d62d6afc0dcc5b81ceff41,SCN,2024-06-26_12h35.02.163,LearnStrategy,2023.2.3,Win32,59.88023952,9,2,15,,,,,,,,5,02,,,,,,,,,,,5,1.203,1,,,,,,-0.373148141,-0.39907406,1,0,0,1.2034,Obsidian_rect,14,0,14,0,1,
65d62d6afc0dcc5b81ceff41,SCN,2024-06-26_12h35.02.163,LearnStrategy,2023.2.3,Win32,59.88023952,9,2,16,,,,,,,,7,15,,,,,,,,,,,7,1.435,1,,,,,,0.168518561,-0.409259302,1,0,0,1.4346,Peridotite_rect,15,0,15,0,1,
65d62d6afc0dcc5b81ceff41,SCN,2024-06-26_12h35.02.163,LearnStrategy,2023.2.3,Win32,59.88023952,,,,,,,,,,,,,,,,,,,,,,,,,,,,,,,,,,,,,,,,,,,0
65d62d6afc0dcc5b81ceff41,SCN,2024-06-26_12h35.02.163,LearnStrategy,2023.2.3,Win32,59.88023952,,,,,,,,,,,,,,,,,,,,,,,,,,,,,,,,,,,,,,,,,,,
65d62d6afc0dcc5b81ceff41,SCN,2024-06-26_12h35.02.163,LearnStrategy,2023.2.3,Win32,59.88023952,,,,,,,,,,,6,12,1,1,,,,,,,,,,,,,,,,,,,,,,,,,,,,,
65d62d6afc0dcc5b81ceff41,SCN,2024-06-26_12h35.02.163,LearnStrategy,2023.2.3,Win32,59.88023952,,,,,,,,,,,1,09,1,2,,,,,,,,,,,,,,,,,,,,,,,,,,,,,
65d62d6afc0dcc5b81ceff41,SCN,2024-06-26_12h35.02.163,LearnStrategy,2023.2.3,Win32,59.88023952,,,,,,,,,,,7,12,1,3,,,,,,,,,,,,,,,,,,,,,,,,,,,,,
65d62d6afc0dcc5b81ceff41,SCN,2024-06-26_12h35.02.163,LearnStrategy,2023.2.3,Win32,59.88023952,,,,,,,,,,,3,10,1,4,,,,,,,,,,,,,,,,,,,,,,,,,,,,,
65d62d6afc0dcc5b81ceff41,SCN,2024-06-26_12h35.02.163,LearnStrategy,2023.2.3,Win32,59.88023952,,,,,,,,,,,5,16,1,5,,,,,,,,,,,,,,,,,,,,,,,,,,,,,
65d62d6afc0dcc5b81ceff41,SCN,2024-06-26_12h35.02.163,LearnStrategy,2023.2.3,Win32,59.88023952,,,,,,,,,,,4,01,1,6,,,,,,,,,,,,,,,,,,,,,,,,,,,,,
65d62d6afc0dcc5b81ceff41,SCN,2024-06-26_12h35.02.163,LearnStrategy,2023.2.3,Win32,59.88023952,,,,,,,,,,,8,02,1,7,,,,,,,,,,,,,,,,,,,,,,,,,,,,,
65d62d6afc0dcc5b81ceff41,SCN,2024-06-26_12h35.02.163,LearnStrategy,2023.2.3,Win32,59.88023952,,,,,,,,,,,7,02,1,8,,,,,,,,,,,,,,,,,,,,,,,,,,,,,
65d62d6afc0dcc5b81ceff41,SCN,2024-06-26_12h35.02.163,LearnStrategy,2023.2.3,Win32,59.88023952,,,,,,,,,,,7,10,2,1,,,,,,,,,,,,,,,,,,,,,,,,,,,,,
65d62d6afc0dcc5b81ceff41,SCN,2024-06-26_12h35.02.163,LearnStrategy,2023.2.3,Win32,59.88023952,,,,,,,,,,,2,04,2,2,,,,,,,,,,,,,,,,,,,,,,,,,,,,,
65d62d6afc0dcc5b81ceff41,SCN,2024-06-26_12h35.02.163,LearnStrategy,2023.2.3,Win32,59.88023952,,,,,,,,,,,6,13,2,3,,,,,,,,,,,,,,,,,,,,,,,,,,,,,
65d62d6afc0dcc5b81ceff41,SCN,2024-06-26_12h35.02.163,LearnStrategy,2023.2.3,Win32,59.88023952,,,,,,,,,,,4,10,2,4,,,,,,,,,,,,,,,,,,,,,,,,,,,,,
65d62d6afc0dcc5b81ceff41,SCN,2024-06-26_12h35.02.163,LearnStrategy,2023.2.3,Win32,59.88023952,,,,,,,,,,,2,05,2,5,,,,,,,,,,,,,,,,,,,,,,,,,,,,,
65d62d6afc0dcc5b81ceff41,SCN,2024-06-26_12h35.02.163,LearnStrategy,2023.2.3,Win32,59.88023952,,,,,,,,,,,3,14,2,6,,,,,,,,,,,,,,,,,,,,,,,,,,,,,
65d62d6afc0dcc5b81ceff41,SCN,2024-06-26_12h35.02.163,LearnStrategy,2023.2.3,Win32,59.88023952,,,,,,,,,,,4,08,2,7,,,,,,,,,,,,,,,,,,,,,,,,,,,,,
65d62d6afc0dcc5b81ceff41,SCN,2024-06-26_12h35.02.163,LearnStrategy,2023.2.3,Win32,59.88023952,,,,,,,,,,,4,12,2,8,,,,,,,,,,,,,,,,,,,,,,,,,,,,,
65d62d6afc0dcc5b81ceff41,SCN,2024-06-26_12h35.02.163,LearnStrategy,2023.2.3,Win32,59.88023952,,,,,,,,,,,5,08,3,1,,,,,,,,,,,,,,,,,,,,,,,,,,,,,
65d62d6afc0dcc5b81ceff41,SCN,2024-06-26_12h35.02.163,LearnStrategy,2023.2.3,Win32,59.88023952,,,,,,,,,,,1,14,3,2,,,,,,,,,,,,,,,,,,,,,,,,,,,,,
65d62d6afc0dcc5b81ceff41,SCN,2024-06-26_12h35.02.163,LearnStrategy,2023.2.3,Win32,59.88023952,,,,,,,,,,,3,12,3,3,,,,,,,,,,,,,,,,,,,,,,,,,,,,,
65d62d6afc0dcc5b81ceff41,SCN,2024-06-26_12h35.02.163,LearnStrategy,2023.2.3,Win32,59.88023952,,,,,,,,,,,7,14,3,4,,,,,,,,,,,,,,,,,,,,,,,,,,,,,
65d62d6afc0dcc5b81ceff41,SCN,2024-06-26_12h35.02.163,LearnStrategy,2023.2.3,Win32,59.88023952,,,,,,,,,,,8,10,3,5,,,,,,,,,,,,,,,,,,,,,,,,,,,,,
65d62d6afc0dcc5b81ceff41,SCN,2024-06-26_12h35.02.163,LearnStrategy,2023.2.3,Win32,59.88023952,,,,,,,,,,,4,14,3,6,,,,,,,,,,,,,,,,,,,,,,,,,,,,,
65d62d6afc0dcc5b81ceff41,SCN,2024-06-26_12h35.02.163,LearnStrategy,2023.2.3,Win32,59.88023952,,,,,,,,,,,8,06,3,7,,,,,,,,,,,,,,,,,,,,,,,,,,,,,
65d62d6afc0dcc5b81ceff41,SCN,2024-06-26_12h35.02.163,LearnStrategy,2023.2.3,Win32,59.88023952,,,,,,,,,,,8,13,3,8,,,,,,,,,,,,,,,,,,,,,,,,,,,,,
65d62d6afc0dcc5b81ceff41,SCN,2024-06-26_12h35.02.163,LearnStrategy,2023.2.3,Win32,59.88023952,,,,,,,,,,,3,02,4,1,,,,,,,,,,,,,,,,,,,,,,,,,,,,,
65d62d6afc0dcc5b81ceff41,SCN,2024-06-26_12h35.02.163,LearnStrategy,2023.2.3,Win32,59.88023952,,,,,,,,,,,2,11,4,2,,,,,,,,,,,,,,,,,,,,,,,,,,,,,
65d62d6afc0dcc5b81ceff41,SCN,2024-06-26_12h35.02.163,LearnStrategy,2023.2.3,Win32,59.88023952,,,,,,,,,,,5,09,4,3,,,,,,,,,,,,,,,,,,,,,,,,,,,,,
65d62d6afc0dcc5b81ceff41,SCN,2024-06-26_12h35.02.163,LearnStrategy,2023.2.3,Win32,59.88023952,,,,,,,,,,,6,07,4,4,,,,,,,,,,,,,,,,,,,,,,,,,,,,,
65d62d6afc0dcc5b81ceff41,SCN,2024-06-26_12h35.02.163,LearnStrategy,2023.2.3,Win32,59.88023952,,,,,,,,,,,1,05,4,5,,,,,,,,,,,,,,,,,,,,,,,,,,,,,
65d62d6afc0dcc5b81ceff41,SCN,2024-06-26_12h35.02.163,LearnStrategy,2023.2.3,Win32,59.88023952,,,,,,,,,,,5,11,4,6,,,,,,,,,,,,,,,,,,,,,,,,,,,,,
65d62d6afc0dcc5b81ceff41,SCN,2024-06-26_12h35.02.163,LearnStrategy,2023.2.3,Win32,59.88023952,,,,,,,,,,,1,06,4,7,,,,,,,,,,,,,,,,,,,,,,,,,,,,,
65d62d6afc0dcc5b81ceff41,SCN,2024-06-26_12h35.02.163,LearnStrategy,2023.2.3,Win32,59.88023952,,,,,,,,,,,7,08,4,8,,,,,,,,,,,,,,,,,,,,,,,,,,,,,
65d62d6afc0dcc5b81ceff41,SCN,2024-06-26_12h35.02.163,LearnStrategy,2023.2.3,Win32,59.88023952,,,,,,,,,,,5,14,5,1,,,,,,,,,,,,,,,,,,,,,,,,,,,,,
65d62d6afc0dcc5b81ceff41,SCN,2024-06-26_12h35.02.163,LearnStrategy,2023.2.3,Win32,59.88023952,,,,,,,,,,,8,05,5,2,,,,,,,,,,,,,,,,,,,,,,,,,,,,,
65d62d6afc0dcc5b81ceff41,SCN,2024-06-26_12h35.02.163,LearnStrategy,2023.2.3,Win32,59.88023952,,,,,,,,,,,7,13,5,3,,,,,,,,,,,,,,,,,,,,,,,,,,,,,
65d62d6afc0dcc5b81ceff41,SCN,2024-06-26_12h35.02.163,LearnStrategy,2023.2.3,Win32,59.88023952,,,,,,,,,,,6,06,5,4,,,,,,,,,,,,,,,,,,,,,,,,,,,,,
65d62d6afc0dcc5b81ceff41,SCN,2024-06-26_12h35.02.163,LearnStrategy,2023.2.3,Win32,59.88023952,,,,,,,,,,,2,16,5,5,,,,,,,,,,,,,,,,,,,,,,,,,,,,,
65d62d6afc0dcc5b81ceff41,SCN,2024-06-26_12h35.02.163,LearnStrategy,2023.2.3,Win32,59.88023952,,,,,,,,,,,1,01,5,6,,,,,,,,,,,,,,,,,,,,,,,,,,,,,
65d62d6afc0dcc5b81ceff41,SCN,2024-06-26_12h35.02.163,LearnStrategy,2023.2.3,Win32,59.88023952,,,,,,,,,,,3,09,5,7,,,,,,,,,,,,,,,,,,,,,,,,,,,,,
65d62d6afc0dcc5b81ceff41,SCN,2024-06-26_12h35.02.163,LearnStrategy,2023.2.3,Win32,59.88023952,,,,,,,,,,,5,12,5,8,,,,,,,,,,,,,,,,,,,,,,,,,,,,,
65d62d6afc0dcc5b81ceff41,SCN,2024-06-26_12h35.02.163,LearnStrategy,2023.2.3,Win32,59.88023952,,,,,,,,,,,3,07,6,1,,,,,,,,,,,,,,,,,,,,,,,,,,,,,
65d62d6afc0dcc5b81ceff41,SCN,2024-06-26_12h35.02.163,LearnStrategy,2023.2.3,Win32,59.88023952,,,,,,,,,,,1,10,6,2,,,,,,,,,,,,,,,,,,,,,,,,,,,,,
65d62d6afc0dcc5b81ceff41,SCN,2024-06-26_12h35.02.163,LearnStrategy,2023.2.3,Win32,59.88023952,,,,,,,,,,,6,03,6,3,,,,,,,,,,,,,,,,,,,,,,,,,,,,,
65d62d6afc0dcc5b81ceff41,SCN,2024-06-26_12h35.02.163,LearnStrategy,2023.2.3,Win32,59.88023952,,,,,,,,,,,2,09,6,4,,,,,,,,,,,,,,,,,,,,,,,,,,,,,
65d62d6afc0dcc5b81ceff41,SCN,2024-06-26_12h35.02.163,LearnStrategy,2023.2.3,Win32,59.88023952,,,,,,,,,,,6,10,6,5,,,,,,,,,,,,,,,,,,,,,,,,,,,,,
65d62d6afc0dcc5b81ceff41,SCN,2024-06-26_12h35.02.163,LearnStrategy,2023.2.3,Win32,59.88023952,,,,,,,,,,,8,16,6,6,,,,,,,,,,,,,,,,,,,,,,,,,,,,,
65d62d6afc0dcc5b81ceff41,SCN,2024-06-26_12h35.02.163,LearnStrategy,2023.2.3,Win32,59.88023952,,,,,,,,,,,2,01,6,7,,,,,,,,,,,,,,,,,,,,,,,,,,,,,
65d62d6afc0dcc5b81ceff41,SCN,2024-06-26_12h35.02.163,LearnStrategy,2023.2.3,Win32,59.88023952,,,,,,,,,,,4,09,6,8,,,,,,,,,,,,,,,,,,,,,,,,,,,,,