participant,condition,date,expName,psychopyVersion,OS,frameRate,block,phase,trial,learn_mouse.x,learn_mouse.y,learn_mouse.leftButton,learn_mouse.midButton,learn_mouse.rightButton,learn_mouse.time,learn_mouse.clicked_name,cat,token,row,col,t_select,cat_rec,token_rec,cat_mouse_l.x,cat_mouse_l.y,cat_mouse_l.leftButton,cat_mouse_l.midButton,cat_mouse_l.rightButton,cat_mouse_l.time,cat_mouse_l.clicked_name,resp,t_resp,corr,train_trials.thisRepN,train_trials.thisTrialN,train_trials.thisN,train_trials.thisIndex,train_trials.ran,cat_mouse_t.x,cat_mouse_t.y,cat_mouse_t.leftButton,cat_mouse_t.midButton,cat_mouse_t.rightButton,cat_mouse_t.time,cat_mouse_t.clicked_name,test_trials.thisRepN,test_trials.thisTrialN,test_trials.thisN,test_trials.thisIndex,test_trials.ran,Bonus
65e1e69cc010f4b4a1ef32e6,SCR,2024-06-25_19h14.20.082,LearnStrategy,2023.2.3,Win32,58.47953216,,,,,,,,,,,,,,,,,,,,,,,,,,,,,,,,,,,,,,,,,,,,,
65e1e69cc010f4b4a1ef32e6,SCR,2024-06-25_19h14.20.082,LearnStrategy,2023.2.3,Win32,58.47953216,1,1,1,0.240885417,0.4609375,1,0,0,18.4264,Gabbro_09,4,09,6,6,18.426,4,09,0.127604167,-0.260416667,1,0,0,1.2724,Diorite_rect,3,1.272,0,0,0,0,0,1,,,,,,,,,,,,,
65e1e69cc010f4b4a1ef32e6,SCR,2024-06-25_19h14.20.082,LearnStrategy,2023.2.3,Win32,58.47953216,1,1,2,0.095052083,-0.377604167,1,0,0,1.2837,Gabbro_03,4,03,1,5,1.284,4,03,0.083333333,-0.270833333,1,0,0,1.0416,Diorite_rect,3,1.042,0,1,0,1,0,1,,,,,,,,,,,,,
65e1e69cc010f4b4a1ef32e6,SCR,2024-06-25_19h14.20.082,LearnStrategy,2023.2.3,Win32,58.47953216,1,1,3,0.256510417,-0.393229167,1,0,0,1.1545,Pegmatite_05,6,05,1,6,1.154,6,05,0.147135417,-0.240885417,1,0,0,0.7102,Diorite_rect,3,0.71,0,2,0,2,0,1,,,,,,,,,,,,,
65e1e69cc010f4b4a1ef32e6,SCR,2024-06-25_19h14.20.082,LearnStrategy,2023.2.3,Win32,58.47953216,1,1,4,0.08984375,-0.376302083,1,0,0,1.2922,Gabbro_03,4,03,1,5,1.292,2,11,0.381510417,-0.229166667,1,0,0,0.6527,Gabbro_rect,4,0.653,1,3,0,3,0,1,,,,,,,,,,,,,
65e1e69cc010f4b4a1ef32e6,SCR,2024-06-25_19h14.20.082,LearnStrategy,2023.2.3,Win32,58.47953216,1,1,5,0.098958333,-0.424479167,1,0,0,1.3742,Gabbro_03,4,03,1,5,1.374,7,13,0.3671875,-0.24609375,1,0,0,1.2971,Gabbro_rect,4,1.297,1,4,0,4,0,1,,,,,,,,,,,,,
65e1e69cc010f4b4a1ef32e6,SCR,2024-06-25_19h14.20.082,LearnStrategy,2023.2.3,Win32,58.47953216,1,1,6,0.0625,-0.389322917,1,0,0,1.1658,Gabbro_03,4,03,1,5,1.166,3,06,0.361979167,-0.24609375,1,0,0,0.8061,Gabbro_rect,4,0.806,1,5,0,5,0,1,,,,,,,,,,,,,
65e1e69cc010f4b4a1ef32e6,SCR,2024-06-25_19h14.20.082,LearnStrategy,2023.2.3,Win32,58.47953216,1,1,7,0.088541667,-0.44140625,1,0,0,0.7664,Gabbro_03,4,03,1,5,0.766,7,05,0.39453125,-0.2578125,1,0,0,0.8758,Gabbro_rect,4,0.876,1,6,0,6,0,1,,,,,,,,,,,,,
65e1e69cc010f4b4a1ef32e6,SCR,2024-06-25_19h14.20.082,LearnStrategy,2023.2.3,Win32,58.47953216,1,1,8,0.052083333,-0.395833333,1,0,0,0.8848,Gabbro_03,4,03,1,5,0.885,6,13,0.44140625,-0.243489583,1,0,0,0.8693,Gabbro_rect,4,0.869,1,7,0,7,0,1,,,,,,,,,,,,,
65e1e69cc010f4b4a1ef32e6,SCR,2024-06-25_19h14.20.082,LearnStrategy,2023.2.3,Win32,58.47953216,1,1,9,0.596354167,-0.115885417,1,0,0,0.9524,Andesite_16,1,16,3,8,0.952,1,16,0.135416667,-0.393229167,1,0,0,0.8563,Peridotite_rect,7,0.856,0,8,0,8,0,1,,,,,,,,,,,,,
65e1e69cc010f4b4a1ef32e6,SCR,2024-06-25_19h14.20.082,LearnStrategy,2023.2.3,Win32,58.47953216,1,1,10,0.076822917,-0.216145833,1,0,0,0.9429,Pumice_05,8,05,2,5,0.943,5,10,0.08984375,-0.403645833,1,0,0,0.7904,Peridotite_rect,7,0.79,0,9,0,9,0,1,,,,,,,,,,,,,
65e1e69cc010f4b4a1ef32e6,SCR,2024-06-25_19h14.20.082,LearnStrategy,2023.2.3,Win32,58.47953216,1,1,11,-0.067708333,-0.111979167,1,0,0,0.8494,Pumice_14,8,14,3,4,0.849,3,09,0.03125,-0.39453125,1,0,0,0.7052,Peridotite_rect,7,0.705,0,10,0,10,0,1,,,,,,,,,,,,,
65e1e69cc010f4b4a1ef32e6,SCR,2024-06-25_19h14.20.082,LearnStrategy,2023.2.3,Win32,58.47953216,1,1,12,-0.063802083,-0.115885417,1,0,0,1.0463,Pumice_14,8,14,3,4,1.046,5,06,0.0390625,-0.26171875,1,0,0,0.5202,Diorite_rect,3,0.52,0,11,0,11,0,1,,,,,,,,,,,,,
65e1e69cc010f4b4a1ef32e6,SCR,2024-06-25_19h14.20.082,LearnStrategy,2023.2.3,Win32,58.47953216,1,1,13,-0.061197917,-0.09375,1,0,0,0.8075,Pumice_14,8,14,3,4,0.808,8,06,0.08984375,-0.248697917,1,0,0,0.6396,Diorite_rect,3,0.64,0,12,0,12,0,1,,,,,,,,,,,,,
65e1e69cc010f4b4a1ef32e6,SCR,2024-06-25_19h14.20.082,LearnStrategy,2023.2.3,Win32,58.47953216,1,1,14,-0.05859375,-0.092447917,1,0,0,0.5675,Pumice_14,8,14,3,4,0.568,2,14,-0.079427083,-0.25390625,1,0,0,0.9247,Basalt_rect,2,0.925,0,13,0,13,0,1,,,,,,,,,,,,,
65e1e69cc010f4b4a1ef32e6,SCR,2024-06-25_19h14.20.082,LearnStrategy,2023.2.3,Win32,58.47953216,1,1,15,0.091145833,-0.092447917,1,0,0,0.6398,Diorite_09,3,09,3,5,0.64,8,10,0.096354167,-0.401041667,1,0,0,0.935,Peridotite_rect,7,0.935,0,14,0,14,0,1,,,,,,,,,,,,,
65e1e69cc010f4b4a1ef32e6,SCR,2024-06-25_19h14.20.082,LearnStrategy,2023.2.3,Win32,58.47953216,1,1,16,0.08984375,-0.119791667,1,0,0,0.7195,Diorite_09,3,09,3,5,0.719,1,02,0.092447917,-0.248697917,1,0,0,0.511,Diorite_rect,3,0.511,1,15,0,15,0,1,,,,,,,,,,,,,
65e1e69cc010f4b4a1ef32e6,SCR,2024-06-25_19h14.20.082,LearnStrategy,2023.2.3,Win32,58.47953216,1,2,1,,,,,,,,7,07,,,,,,,,,,,,,3,0.759,0,,,,,,0.153645833,-0.26171875,1,0,0,0.7589,Diorite_rect,0,0,0,0,1,
65e1e69cc010f4b4a1ef32e6,SCR,2024-06-25_19h14.20.082,LearnStrategy,2023.2.3,Win32,58.47953216,1,2,2,,,,,,,,1,14,,,,,,,,,,,,,3,0.658,0,,,,,,0.134114583,-0.25,1,0,0,0.6578,Diorite_rect,1,0,1,0,1,
65e1e69cc010f4b4a1ef32e6,SCR,2024-06-25_19h14.20.082,LearnStrategy,2023.2.3,Win32,58.47953216,1,2,3,,,,,,,,5,02,,,,,,,,,,,,,3,0.745,0,,,,,,0.127604167,-0.26171875,1,0,0,0.7453,Diorite_rect,2,0,2,0,1,
65e1e69cc010f4b4a1ef32e6,SCR,2024-06-25_19h14.20.082,LearnStrategy,2023.2.3,Win32,58.47953216,1,2,4,,,,,,,,2,09,,,,,,,,,,,,,3,0.311,0,,,,,,0.12890625,-0.259114583,1,0,0,0.3108,Diorite_rect,3,0,3,0,1,
65e1e69cc010f4b4a1ef32e6,SCR,2024-06-25_19h14.20.082,LearnStrategy,2023.2.3,Win32,58.47953216,1,2,5,,,,,,,,7,16,,,,,,,,,,,,,3,0.225,0,,,,,,0.131510417,-0.2578125,1,0,0,0.2249,Diorite_rect,4,0,4,0,1,
65e1e69cc010f4b4a1ef32e6,SCR,2024-06-25_19h14.20.082,LearnStrategy,2023.2.3,Win32,58.47953216,1,2,6,,,,,,,,8,08,,,,,,,,,,,,,3,0.148,0,,,,,,0.1328125,-0.2578125,1,0,0,0.1481,Diorite_rect,5,0,5,0,1,
65e1e69cc010f4b4a1ef32e6,SCR,2024-06-25_19h14.20.082,LearnStrategy,2023.2.3,Win32,58.47953216,1,2,7,,,,,,,,8,02,,,,,,,,,,,,,3,0.116,0,,,,,,0.1328125,-0.2578125,1,0,0,0.116,Diorite_rect,6,0,6,0,1,
65e1e69cc010f4b4a1ef32e6,SCR,2024-06-25_19h14.20.082,LearnStrategy,2023.2.3,Win32,58.47953216,1,2,8,,,,,,,,5,16,,,,,,,,,,,,,3,0.081,0,,,,,,0.1328125,-0.260416667,1,0,0,0.0806,Diorite_rect,7,0,7,0,1,
65e1e69cc010f4b4a1ef32e6,SCR,2024-06-25_19h14.20.082,LearnStrategy,2023.2.3,Win32,58.47953216,1,2,9,,,,,,,,4,11,,,,,,,,,,,,,3,0.056,0,,,,,,0.135416667,-0.256510417,1,0,0,0.0561,Diorite_rect,8,0,8,0,1,
65e1e69cc010f4b4a1ef32e6,SCR,2024-06-25_19h14.20.082,LearnStrategy,2023.2.3,Win32,58.47953216,1,2,10,,,,,,,,4,15,,,,,,,,,,,,,3,0.044,0,,,,,,0.138020833,-0.256510417,1,0,0,0.0438,Diorite_rect,9,0,9,0,1,
65e1e69cc010f4b4a1ef32e6,SCR,2024-06-25_19h14.20.082,LearnStrategy,2023.2.3,Win32,58.47953216,1,2,11,,,,,,,,3,08,,,,,,,,,,,,,3,0.071,1,,,,,,0.13671875,-0.256510417,1,0,0,0.0709,Diorite_rect,10,0,10,0,1,
65e1e69cc010f4b4a1ef32e6,SCR,2024-06-25_19h14.20.082,LearnStrategy,2023.2.3,Win32,58.47953216,1,2,12,,,,,,,,6,06,,,,,,,,,,,,,3,0.108,0,,,,,,0.13671875,-0.256510417,1,0,0,0.1083,Diorite_rect,11,0,11,0,1,
65e1e69cc010f4b4a1ef32e6,SCR,2024-06-25_19h14.20.082,LearnStrategy,2023.2.3,Win32,58.47953216,1,2,13,,,,,,,,6,09,,,,,,,,,,,,,3,0.108,0,,,,,,0.135416667,-0.256510417,1,0,0,0.1084,Diorite_rect,12,0,12,0,1,
65e1e69cc010f4b4a1ef32e6,SCR,2024-06-25_19h14.20.082,LearnStrategy,2023.2.3,Win32,58.47953216,1,2,14,,,,,,,,1,09,,,,,,,,,,,,,3,0.086,0,,,,,,0.134114583,-0.256510417,1,0,0,0.0861,Diorite_rect,13,0,13,0,1,
65e1e69cc010f4b4a1ef32e6,SCR,2024-06-25_19h14.20.082,LearnStrategy,2023.2.3,Win32,58.47953216,1,2,15,,,,,,,,2,12,,,,,,,,,,,,,3,0.106,0,,,,,,0.12890625,-0.25390625,1,0,0,0.1061,Diorite_rect,14,0,14,0,1,
65e1e69cc010f4b4a1ef32e6,SCR,2024-06-25_19h14.20.082,LearnStrategy,2023.2.3,Win32,58.47953216,1,2,16,,,,,,,,3,15,,,,,,,,,,,,,2,0.13,0,,,,,,-0.233072917,-0.263020833,1,0,0,0.1301,Basalt_rect,15,0,15,0,1,
65e1e69cc010f4b4a1ef32e6,SCR,2024-06-25_19h14.20.082,LearnStrategy,2023.2.3,Win32,58.47953216,2,1,1,0.026041667,-0.098958333,1,0,0,0.3378,Diorite_09,3,09,3,5,0.338,6,13,-0.05078125,-0.26953125,1,0,0,1.2611,Basalt_rect,2,1.261,0,0,0,0,0,1,,,,,,,,,,,,,
65e1e69cc010f4b4a1ef32e6,SCR,2024-06-25_19h14.20.082,LearnStrategy,2023.2.3,Win32,58.47953216,2,1,2,0.06640625,-0.075520833,1,0,0,0.46,Diorite_09,3,09,3,5,0.46,1,10,0.059895833,-0.255208333,1,0,0,0.4858,Diorite_rect,3,0.486,1,1,0,1,0,1,,,,,,,,,,,,,
65e1e69cc010f4b4a1ef32e6,SCR,2024-06-25_19h14.20.082,LearnStrategy,2023.2.3,Win32,58.47953216,2,1,3,0.05859375,-0.1171875,1,0,0,0.6972,Diorite_09,3,09,3,5,0.697,3,09,-0.03125,-0.264322917,1,0,0,0.5323,Basalt_rect,2,0.532,0,2,0,2,0,1,,,,,,,,,,,,,
65e1e69cc010f4b4a1ef32e6,SCR,2024-06-25_19h14.20.082,LearnStrategy,2023.2.3,Win32,58.47953216,2,1,4,0.057291667,-0.114583333,1,0,0,0.5742,Diorite_09,3,09,3,5,0.574,7,04,0.095052083,-0.240885417,1,0,0,0.6789,Diorite_rect,3,0.679,1,3,0,3,0,1,,,,,,,,,,,,,
65e1e69cc010f4b4a1ef32e6,SCR,2024-06-25_19h14.20.082,LearnStrategy,2023.2.3,Win32,58.47953216,2,1,5,-0.067708333,-0.143229167,1,0,0,0.5484,Pumice_14,8,14,3,4,0.548,4,05,-0.061197917,-0.2578125,1,0,0,0.7684,Basalt_rect,2,0.768,0,4,0,4,0,1,,,,,,,,,,,,,
65e1e69cc010f4b4a1ef32e6,SCR,2024-06-25_19h14.20.082,LearnStrategy,2023.2.3,Win32,58.47953216,2,1,6,-0.044270833,-0.092447917,1,0,0,0.6234,Pumice_14,8,14,3,4,0.623,1,16,-0.0703125,-0.2578125,1,0,0,0.9466,Basalt_rect,2,0.947,0,5,0,5,0,1,,,,,,,,,,,,,
65e1e69cc010f4b4a1ef32e6,SCR,2024-06-25_19h14.20.082,LearnStrategy,2023.2.3,Win32,58.47953216,2,1,7,-0.061197917,-0.106770833,1,0,0,0.6223,Pumice_14,8,14,3,4,0.622,7,04,0.100260417,-0.266927083,1,0,0,0.661,Diorite_rect,3,0.661,0,6,0,6,0,1,,,,,,,,,,,,,
65e1e69cc010f4b4a1ef32e6,SCR,2024-06-25_19h14.20.082,LearnStrategy,2023.2.3,Win32,58.47953216,2,1,8,-0.057291667,-0.141927083,1,0,0,0.6861,Pumice_14,8,14,3,4,0.686,5,14,0.102864583,-0.264322917,1,0,0,0.5192,Diorite_rect,3,0.519,0,7,0,7,0,1,,,,,,,,,,,,,
65e1e69cc010f4b4a1ef32e6,SCR,2024-06-25_19h14.20.082,LearnStrategy,2023.2.3,Win32,58.47953216,2,1,9,-0.053385417,-0.227864583,1,0,0,0.5828,Pumice_15,8,15,2,4,0.583,8,15,0.0859375,-0.25,1,0,0,0.9112,Diorite_rect,3,0.911,0,8,0,8,0,1,,,,,,,,,,,,,
65e1e69cc010f4b4a1ef32e6,SCR,2024-06-25_19h14.20.082,LearnStrategy,2023.2.3,Win32,58.47953216,2,1,10,-0.084635417,-0.234375,1,0,0,0.6196,Pumice_15,8,15,2,4,0.62,2,04,-0.0703125,-0.247395833,1,0,0,0.6237,Basalt_rect,2,0.624,0,9,0,9,0,1,,,,,,,,,,,,,
65e1e69cc010f4b4a1ef32e6,SCR,2024-06-25_19h14.20.082,LearnStrategy,2023.2.3,Win32,58.47953216,2,1,11,0.04296875,-0.231770833,1,0,0,0.5496,Pumice_05,8,05,2,5,0.55,5,08,0.0546875,-0.260416667,1,0,0,0.5713,Diorite_rect,3,0.571,0,10,0,10,0,1,,,,,,,,,,,,,
65e1e69cc010f4b4a1ef32e6,SCR,2024-06-25_19h14.20.082,LearnStrategy,2023.2.3,Win32,58.47953216,2,1,12,0.063802083,-0.25390625,1,0,0,0.7097,Pumice_05,8,05,2,5,0.71,2,11,0.076822917,-0.25390625,1,0,0,0.8395,Diorite_rect,3,0.84,0,11,0,11,0,1,,,,,,,,,,,,,
65e1e69cc010f4b4a1ef32e6,SCR,2024-06-25_19h14.20.082,LearnStrategy,2023.2.3,Win32,58.47953216,2,1,13,0.079427083,-0.087239583,1,0,0,0.6484,Diorite_09,3,09,3,5,0.648,3,13,0.09375,-0.263020833,1,0,0,0.8719,Diorite_rect,3,0.872,1,12,0,12,0,1,,,,,,,,,,,,,
65e1e69cc010f4b4a1ef32e6,SCR,2024-06-25_19h14.20.082,LearnStrategy,2023.2.3,Win32,58.47953216,2,1,14,0.091145833,-0.115885417,1,0,0,0.7697,Diorite_09,3,09,3,5,0.77,4,10,0.09375,-0.251302083,1,0,0,0.5642,Diorite_rect,3,0.564,1,13,0,13,0,1,,,,,,,,,,,,,
65e1e69cc010f4b4a1ef32e6,SCR,2024-06-25_19h14.20.082,LearnStrategy,2023.2.3,Win32,58.47953216,2,1,15,0.0703125,-0.126302083,1,0,0,0.692,Diorite_09,3,09,3,5,0.692,8,13,0.080729167,-0.255208333,1,0,0,1.0566,Diorite_rect,3,1.057,1,14,0,14,0,1,,,,,,,,,,,,,
65e1e69cc010f4b4a1ef32e6,SCR,2024-06-25_19h14.20.082,LearnStrategy,2023.2.3,Win32,58.47953216,2,1,16,-0.04296875,-0.07421875,1,0,0,0.8934,Pumice_14,8,14,3,4,0.893,6,10,-0.055989583,-0.2421875,1,0,0,0.8442,Basalt_rect,2,0.844,0,15,0,15,0,1,,,,,,,,,,,,,
65e1e69cc010f4b4a1ef32e6,SCR,2024-06-25_19h14.20.082,LearnStrategy,2023.2.3,Win32,58.47953216,2,2,1,,,,,,,,8,09,,,,,,,,,,,,,3,0.702,0,,,,,,0.063802083,-0.25,1,0,0,0.702,Diorite_rect,0,0,0,0,1,
65e1e69cc010f4b4a1ef32e6,SCR,2024-06-25_19h14.20.082,LearnStrategy,2023.2.3,Win32,58.47953216,2,2,2,,,,,,,,7,12,,,,,,,,,,,,,3,0.29,0,,,,,,0.063802083,-0.252604167,1,0,0,0.2903,Diorite_rect,1,0,1,0,1,
65e1e69cc010f4b4a1ef32e6,SCR,2024-06-25_19h14.20.082,LearnStrategy,2023.2.3,Win32,58.47953216,2,2,3,,,,,,,,3,02,,,,,,,,,,,,,2,0.153,0,,,,,,-0.130208333,-0.264322917,1,0,0,0.1532,Basalt_rect,2,0,2,0,1,
65e1e69cc010f4b4a1ef32e6,SCR,2024-06-25_19h14.20.082,LearnStrategy,2023.2.3,Win32,58.47953216,2,2,4,,,,,,,,8,16,,,,,,,,,,,,,6,0.233,0,,,,,,-0.123697917,-0.39453125,1,0,0,0.2326,Pegmatite_rect,3,0,3,0,1,
65e1e69cc010f4b4a1ef32e6,SCR,2024-06-25_19h14.20.082,LearnStrategy,2023.2.3,Win32,58.47953216,2,2,5,,,,,,,,4,16,,,,,,,,,,,,,7,0.317,0,,,,,,0.223958333,-0.397135417,1,0,0,0.3167,Peridotite_rect,4,0,4,0,1,
65e1e69cc010f4b4a1ef32e6,SCR,2024-06-25_19h14.20.082,LearnStrategy,2023.2.3,Win32,58.47953216,2,2,6,,,,,,,,1,04,,,,,,,,,,,,,4,0.217,0,,,,,,0.359375,-0.264322917,1,0,0,0.2167,Gabbro_rect,5,0,5,0,1,
65e1e69cc010f4b4a1ef32e6,SCR,2024-06-25_19h14.20.082,LearnStrategy,2023.2.3,Win32,58.47953216,2,2,7,,,,,,,,5,04,,,,,,,,,,,,,2,0.097,0,,,,,,-0.041666667,-0.266927083,1,0,0,0.0975,Basalt_rect,6,0,6,0,1,
65e1e69cc010f4b4a1ef32e6,SCR,2024-06-25_19h14.20.082,LearnStrategy,2023.2.3,Win32,58.47953216,2,2,8,,,,,,,,5,11,,,,,,,,,,,,,7,1.316,0,,,,,,0.044270833,-0.3828125,1,0,0,1.3159,Peridotite_rect,7,0,7,0,1,
65e1e69cc010f4b4a1ef32e6,SCR,2024-06-25_19h14.20.082,LearnStrategy,2023.2.3,Win32,58.47953216,2,2,9,,,,,,,,2,02,,,,,,,,,,,,,3,0.374,0,,,,,,0.080729167,-0.25390625,1,0,0,0.3739,Diorite_rect,8,0,8,0,1,
65e1e69cc010f4b4a1ef32e6,SCR,2024-06-25_19h14.20.082,LearnStrategy,2023.2.3,Win32,58.47953216,2,2,10,,,,,,,,7,15,,,,,,,,,,,,,3,0.166,0,,,,,,0.080729167,-0.25390625,1,0,0,0.1661,Diorite_rect,9,0,9,0,1,
65e1e69cc010f4b4a1ef32e6,SCR,2024-06-25_19h14.20.082,LearnStrategy,2023.2.3,Win32,58.47953216,2,2,11,,,,,,,,4,08,,,,,,,,,,,,,3,0.069,0,,,,,,0.080729167,-0.255208333,1,0,0,0.0693,Diorite_rect,10,0,10,0,1,
65e1e69cc010f4b4a1ef32e6,SCR,2024-06-25_19h14.20.082,LearnStrategy,2023.2.3,Win32,58.47953216,2,2,12,,,,,,,,3,07,,,,,,,,,,,,,3,0.044,1,,,,,,0.080729167,-0.255208333,1,0,0,0.0439,Diorite_rect,11,0,11,0,1,
65e1e69cc010f4b4a1ef32e6,SCR,2024-06-25_19h14.20.082,LearnStrategy,2023.2.3,Win32,58.47953216,2,2,13,,,,,,,,6,16,,,,,,,,,,,,,3,0.091,0,,,,,,0.080729167,-0.256510417,1,0,0,0.0912,Diorite_rect,12,0,12,0,1,
65e1e69cc010f4b4a1ef32e6,SCR,2024-06-25_19h14.20.082,LearnStrategy,2023.2.3,Win32,58.47953216,2,2,14,,,,,,,,6,03,,,,,,,,,,,,,3,0.123,0,,,,,,0.080729167,-0.256510417,1,0,0,0.1232,Diorite_rect,13,0,13,0,1,
65e1e69cc010f4b4a1ef32e6,SCR,2024-06-25_19h14.20.082,LearnStrategy,2023.2.3,Win32,58.47953216,2,2,15,,,,,,,,2,16,,,,,,,,,,,,,3,0.148,0,,,,,,0.078125,-0.256510417,1,0,0,0.1477,Diorite_rect,14,0,14,0,1,
65e1e69cc010f4b4a1ef32e6,SCR,2024-06-25_19h14.20.082,LearnStrategy,2023.2.3,Win32,58.47953216,2,2,16,,,,,,,,1,01,,,,,,,,,,,,,3,0.201,0,,,,,,0.079427083,-0.256510417,1,0,0,0.2011,Diorite_rect,15,0,15,0,1,
65e1e69cc010f4b4a1ef32e6,SCR,2024-06-25_19h14.20.082,LearnStrategy,2023.2.3,Win32,58.47953216,3,1,1,-0.052083333,-0.088541667,1,0,0,0.7959,Pumice_14,8,14,3,4,0.796,5,06,-0.079427083,-0.244791667,1,0,0,0.7559,Basalt_rect,2,0.756,0,0,0,0,0,1,,,,,,,,,,,,,
65e1e69cc010f4b4a1ef32e6,SCR,2024-06-25_19h14.20.082,LearnStrategy,2023.2.3,Win32,58.47953216,3,1,2,0.0546875,-0.125,1,0,0,0.4891,Diorite_09,3,09,3,5,0.489,7,13,0.065104167,-0.239583333,1,0,0,0.4823,Diorite_rect,3,0.482,1,1,0,1,0,1,,,,,,,,,,,,,
65e1e69cc010f4b4a1ef32e6,SCR,2024-06-25_19h14.20.082,LearnStrategy,2023.2.3,Win32,58.47953216,3,1,3,0.1015625,-0.108072917,1,0,0,0.7566,Diorite_09,3,09,3,5,0.757,2,14,0.072916667,-0.259114583,1,0,0,0.5143,Diorite_rect,3,0.514,1,2,0,2,0,1,,,,,,,,,,,,,
65e1e69cc010f4b4a1ef32e6,SCR,2024-06-25_19h14.20.082,LearnStrategy,2023.2.3,Win32,58.47953216,3,1,4,0.12890625,-0.151041667,1,0,0,0.6139,Diorite_09,3,09,3,5,0.614,2,01,0.084635417,-0.26171875,1,0,0,1.1929,Diorite_rect,3,1.193,1,3,0,3,0,1,,,,,,,,,,,,,
65e1e69cc010f4b4a1ef32e6,SCR,2024-06-25_19h14.20.082,LearnStrategy,2023.2.3,Win32,58.47953216,3,1,5,0.079427083,-0.096354167,1,0,0,0.6455,Diorite_09,3,09,3,5,0.645,7,13,0.084635417,-0.234375,1,0,0,0.4457,Diorite_rect,3,0.446,1,4,0,4,0,1,,,,,,,,,,,,,
65e1e69cc010f4b4a1ef32e6,SCR,2024-06-25_19h14.20.082,LearnStrategy,2023.2.3,Win32,58.47953216,3,1,6,0.061197917,-0.108072917,1,0,0,0.742,Diorite_09,3,09,3,5,0.742,3,16,0.076822917,-0.2578125,1,0,0,0.4483,Diorite_rect,3,0.448,1,5,0,5,0,1,,,,,,,,,,,,,
65e1e69cc010f4b4a1ef32e6,SCR,2024-06-25_19h14.20.082,LearnStrategy,2023.2.3,Win32,58.47953216,3,1,7,0.065104167,-0.069010417,1,0,0,1.1224,Diorite_09,3,09,3,5,1.122,8,10,0.057291667,-0.260416667,1,0,0,0.9605,Diorite_rect,3,0.961,1,6,0,6,0,1,,,,,,,,,,,,,
65e1e69cc010f4b4a1ef32e6,SCR,2024-06-25_19h14.20.082,LearnStrategy,2023.2.3,Win32,58.47953216,3,1,8,0.10546875,-0.109375,1,0,0,0.6233,Diorite_09,3,09,3,5,0.623,4,14,0.088541667,-0.266927083,1,0,0,0.795,Diorite_rect,3,0.795,1,7,0,7,0,1,,,,,,,,,,,,,
65e1e69cc010f4b4a1ef32e6,SCR,2024-06-25_19h14.20.082,LearnStrategy,2023.2.3,Win32,58.47953216,3,1,9,0.067708333,-0.09765625,1,0,0,0.6194,Diorite_09,3,09,3,5,0.619,5,09,0.0859375,-0.252604167,1,0,0,0.7441,Diorite_rect,3,0.744,1,8,0,8,0,1,,,,,,,,,,,,,
65e1e69cc010f4b4a1ef32e6,SCR,2024-06-25_19h14.20.082,LearnStrategy,2023.2.3,Win32,58.47953216,3,1,10,0.046875,-0.109375,1,0,0,0.5972,Diorite_09,3,09,3,5,0.597,6,13,0.079427083,-0.259114583,1,0,0,0.4799,Diorite_rect,3,0.48,1,9,0,9,0,1,,,,,,,,,,,,,
65e1e69cc010f4b4a1ef32e6,SCR,2024-06-25_19h14.20.082,LearnStrategy,2023.2.3,Win32,58.47953216,3,1,11,0.092447917,-0.087239583,1,0,0,0.7726,Diorite_09,3,09,3,5,0.773,1,16,0.09765625,-0.23828125,1,0,0,0.7432,Diorite_rect,3,0.743,1,10,0,10,0,1,,,,,,,,,,,,,
65e1e69cc010f4b4a1ef32e6,SCR,2024-06-25_19h14.20.082,LearnStrategy,2023.2.3,Win32,58.47953216,3,1,12,0.106770833,-0.259114583,1,0,0,0.7214,Pumice_05,8,05,2,5,0.721,8,05,0.096354167,-0.247395833,1,0,0,0.5886,Diorite_rect,3,0.589,0,11,0,11,0,1,,,,,,,,,,,,,
65e1e69cc010f4b4a1ef32e6,SCR,2024-06-25_19h14.20.082,LearnStrategy,2023.2.3,Win32,58.47953216,3,1,13,0.087239583,-0.118489583,1,0,0,0.8493,Diorite_09,3,09,3,5,0.849,6,10,0.08984375,-0.247395833,1,0,0,0.6689,Diorite_rect,3,0.669,1,12,0,12,0,1,,,,,,,,,,,,,
65e1e69cc010f4b4a1ef32e6,SCR,2024-06-25_19h14.20.082,LearnStrategy,2023.2.3,Win32,58.47953216,3,1,14,0.072916667,-0.09765625,1,0,0,0.665,Diorite_09,3,09,3,5,0.665,3,06,0.076822917,-0.252604167,1,0,0,0.6216,Diorite_rect,3,0.622,1,13,0,13,0,1,,,,,,,,,,,,,
65e1e69cc010f4b4a1ef32e6,SCR,2024-06-25_19h14.20.082,LearnStrategy,2023.2.3,Win32,58.47953216,3,1,15,-0.037760417,-0.104166667,1,0,0,0.5755,Pumice_14,8,14,3,4,0.576,1,05,-0.0625,-0.2578125,1,0,0,0.7462,Basalt_rect,2,0.746,0,14,0,14,0,1,,,,,,,,,,,,,
65e1e69cc010f4b4a1ef32e6,SCR,2024-06-25_19h14.20.082,LearnStrategy,2023.2.3,Win32,58.47953216,3,1,16,0.19140625,-0.080729167,1,0,0,0.8376,Pumice_06,8,06,3,6,0.838,4,10,0.149739583,-0.239583333,1,0,0,0.5941,Diorite_rect,3,0.594,0,15,0,15,0,1,,,,,,,,,,,,,
65e1e69cc010f4b4a1ef32e6,SCR,2024-06-25_19h14.20.082,LearnStrategy,2023.2.3,Win32,58.47953216,3,2,1,,,,,,,,8,03,,,,,,,,,,,,,3,0.534,0,,,,,,0.041666667,-0.25390625,1,0,0,0.5343,Diorite_rect,0,0,0,0,1,
65e1e69cc010f4b4a1ef32e6,SCR,2024-06-25_19h14.20.082,LearnStrategy,2023.2.3,Win32,58.47953216,3,2,2,,,,,,,,3,12,,,,,,,,,,,,,2,1.053,0,,,,,,-0.059895833,-0.26953125,1,0,0,1.0532,Basalt_rect,1,0,1,0,1,
65e1e69cc010f4b4a1ef32e6,SCR,2024-06-25_19h14.20.082,LearnStrategy,2023.2.3,Win32,58.47953216,3,2,3,,,,,,,,5,05,,,,,,,,,,,,,2,0.073,0,,,,,,-0.069010417,-0.263020833,1,0,0,0.0726,Basalt_rect,2,0,2,0,1,
65e1e69cc010f4b4a1ef32e6,SCR,2024-06-25_19h14.20.082,LearnStrategy,2023.2.3,Win32,58.47953216,3,2,4,,,,,,,,6,11,,,,,,,,,,,,,7,1.04,0,,,,,,0.140625,-0.40625,1,0,0,1.0398,Peridotite_rect,3,0,3,0,1,
65e1e69cc010f4b4a1ef32e6,SCR,2024-06-25_19h14.20.082,LearnStrategy,2023.2.3,Win32,58.47953216,3,2,5,,,,,,,,1,06,,,,,,,,,,,,,7,0.111,0,,,,,,0.147135417,-0.401041667,1,0,0,0.1114,Peridotite_rect,4,0,4,0,1,
65e1e69cc010f4b4a1ef32e6,SCR,2024-06-25_19h14.20.082,LearnStrategy,2023.2.3,Win32,58.47953216,3,2,6,,,,,,,,2,10,,,,,,,,,,,,,7,0.114,0,,,,,,0.139322917,-0.403645833,1,0,0,0.1141,Peridotite_rect,5,0,5,0,1,
65e1e69cc010f4b4a1ef32e6,SCR,2024-06-25_19h14.20.082,LearnStrategy,2023.2.3,Win32,58.47953216,3,2,7,,,,,,,,6,15,,,,,,,,,,,,,7,0.134,0,,,,,,0.138020833,-0.403645833,1,0,0,0.1336,Peridotite_rect,6,0,6,0,1,
65e1e69cc010f4b4a1ef32e6,SCR,2024-06-25_19h14.20.082,LearnStrategy,2023.2.3,Win32,58.47953216,3,2,8,,,,,,,,2,08,,,,,,,,,,,,,4,0.592,0,,,,,,0.33984375,-0.25390625,1,0,0,0.5923,Gabbro_rect,7,0,7,0,1,
65e1e69cc010f4b4a1ef32e6,SCR,2024-06-25_19h14.20.082,LearnStrategy,2023.2.3,Win32,58.47953216,3,2,9,,,,,,,,5,07,,,,,,,,,,,,,4,0.123,0,,,,,,0.34765625,-0.264322917,1,0,0,0.123,Gabbro_rect,8,0,8,0,1,
65e1e69cc010f4b4a1ef32e6,SCR,2024-06-25_19h14.20.082,LearnStrategy,2023.2.3,Win32,58.47953216,3,2,10,,,,,,,,4,12,,,,,,,,,,,,,4,0.148,1,,,,,,0.361979167,-0.265625,1,0,0,0.1475,Gabbro_rect,9,0,9,0,1,
65e1e69cc010f4b4a1ef32e6,SCR,2024-06-25_19h14.20.082,LearnStrategy,2023.2.3,Win32,58.47953216,3,2,11,,,,,,,,7,02,,,,,,,,,,,,,4,0.135,0,,,,,,0.364583333,-0.264322917,1,0,0,0.1351,Gabbro_rect,10,0,10,0,1,
65e1e69cc010f4b4a1ef32e6,SCR,2024-06-25_19h14.20.082,LearnStrategy,2023.2.3,Win32,58.47953216,3,2,12,,,,,,,,1,07,,,,,,,,,,,,,4,0.232,0,,,,,,0.36328125,-0.259114583,1,0,0,0.2319,Gabbro_rect,11,0,11,0,1,
65e1e69cc010f4b4a1ef32e6,SCR,2024-06-25_19h14.20.082,LearnStrategy,2023.2.3,Win32,58.47953216,3,2,13,,,,,,,,3,14,,,,,,,,,,,,,4,0.258,0,,,,,,0.36328125,-0.2578125,1,0,0,0.2581,Gabbro_rect,12,0,12,0,1,
65e1e69cc010f4b4a1ef32e6,SCR,2024-06-25_19h14.20.082,LearnStrategy,2023.2.3,Win32,58.47953216,3,2,14,,,,,,,,8,04,,,,,,,,,,,,,2,0.717,0,,,,,,-0.197916667,-0.24609375,1,0,0,0.7168,Basalt_rect,13,0,13,0,1,
65e1e69cc010f4b4a1ef32e6,SCR,2024-06-25_19h14.20.082,LearnStrategy,2023.2.3,Win32,58.47953216,3,2,15,,,,,,,,4,13,,,,,,,,,,,,,1,0.315,0,,,,,,-0.348958333,-0.264322917,1,0,0,0.3147,Andesite_rect,14,0,14,0,1,
65e1e69cc010f4b4a1ef32e6,SCR,2024-06-25_19h14.20.082,LearnStrategy,2023.2.3,Win32,58.47953216,3,2,16,,,,,,,,7,06,,,,,,,,,,,,,1,0.139,0,,,,,,-0.348958333,-0.26171875,1,0,0,0.1392,Andesite_rect,15,0,15,0,1,
65e1e69cc010f4b4a1ef32e6,SCR,2024-06-25_19h14.20.082,LearnStrategy,2023.2.3,Win32,58.47953216,4,1,1,0.057291667,-0.08203125,1,0,0,0.5918,Diorite_09,3,09,3,5,0.592,7,05,0.079427083,-0.23828125,1,0,0,0.5069,Diorite_rect,3,0.507,1,0,0,0,0,1,,,,,,,,,,,,,
65e1e69cc010f4b4a1ef32e6,SCR,2024-06-25_19h14.20.082,LearnStrategy,2023.2.3,Win32,58.47953216,4,1,2,-0.231770833,-0.108072917,1,0,0,1.0545,Diorite_06,3,06,3,3,1.054,1,11,0.438802083,-0.263020833,1,0,0,0.7716,Gabbro_rect,4,0.772,0,1,0,1,0,1,,,,,,,,,,,,,
65e1e69cc010f4b4a1ef32e6,SCR,2024-06-25_19h14.20.082,LearnStrategy,2023.2.3,Win32,58.47953216,4,1,3,-0.08203125,-0.12890625,1,0,0,0.7973,Pumice_14,8,14,3,4,0.797,2,14,-0.37109375,-0.380208333,1,0,0,1.1505,Obsidian_rect,5,1.15,0,2,0,2,0,1,,,,,,,,,,,,,
65e1e69cc010f4b4a1ef32e6,SCR,2024-06-25_19h14.20.082,LearnStrategy,2023.2.3,Win32,58.47953216,4,1,4,-0.049479167,-0.1328125,1,0,0,0.4807,Pumice_14,8,14,3,4,0.481,5,09,-0.072916667,-0.268229167,1,0,0,0.6125,Basalt_rect,2,0.612,0,3,0,3,0,1,,,,,,,,,,,,,
65e1e69cc010f4b4a1ef32e6,SCR,2024-06-25_19h14.20.082,LearnStrategy,2023.2.3,Win32,58.47953216,4,1,5,-0.071614583,0.098958333,1,0,0,0.7312,Basalt_11,2,11,4,4,0.731,5,10,-0.0703125,-0.25390625,1,0,0,0.6212,Basalt_rect,2,0.621,1,4,0,4,0,1,,,,,,,,,,,,,
65e1e69cc010f4b4a1ef32e6,SCR,2024-06-25_19h14.20.082,LearnStrategy,2023.2.3,Win32,58.47953216,4,1,6,0.279947917,-0.109375,1,0,0,0.9893,Pumice_06,8,06,3,6,0.989,1,11,0.200520833,-0.248697917,1,0,0,0.5246,Diorite_rect,3,0.525,0,5,0,5,0,1,,,,,,,,,,,,,
65e1e69cc010f4b4a1ef32e6,SCR,2024-06-25_19h14.20.082,LearnStrategy,2023.2.3,Win32,58.47953216,4,1,7,0.415364583,0.096354167,1,0,0,0.9531,Diorite_10,3,10,4,7,0.953,6,12,0.114583333,-0.265625,1,0,0,0.6263,Diorite_rect,3,0.626,1,6,0,6,0,1,,,,,,,,,,,,,
65e1e69cc010f4b4a1ef32e6,SCR,2024-06-25_19h14.20.082,LearnStrategy,2023.2.3,Win32,58.47953216,4,1,8,0.065104167,0.12109375,1,0,0,0.5742,Andesite_11,1,11,4,5,0.574,8,05,0.108072917,-0.24609375,1,0,0,1.1044,Diorite_rect,3,1.104,0,7,0,7,0,1,,,,,,,,,,,,,
65e1e69cc010f4b4a1ef32e6,SCR,2024-06-25_19h14.20.082,LearnStrategy,2023.2.3,Win32,58.47953216,4,1,9,0.079427083,0.131510417,1,0,0,0.5824,Andesite_11,1,11,4,5,0.582,6,13,0.119791667,-0.264322917,1,0,0,0.758,Diorite_rect,3,0.758,0,8,0,8,0,1,,,,,,,,,,,,,
65e1e69cc010f4b4a1ef32e6,SCR,2024-06-25_19h14.20.082,LearnStrategy,2023.2.3,Win32,58.47953216,4,1,10,0.100260417,0.270833333,1,0,0,0.7767,Obsidian_08,5,08,5,5,0.777,3,09,0.123697917,-0.25,1,0,0,0.7833,Diorite_rect,3,0.783,0,9,0,9,0,1,,,,,,,,,,,,,
65e1e69cc010f4b4a1ef32e6,SCR,2024-06-25_19h14.20.082,LearnStrategy,2023.2.3,Win32,58.47953216,4,1,11,-0.190104167,-0.11328125,1,0,0,0.6561,Diorite_06,3,06,3,3,0.656,8,13,-0.045572917,-0.252604167,1,0,0,0.6802,Basalt_rect,2,0.68,0,10,0,10,0,1,,,,,,,,,,,,,
65e1e69cc010f4b4a1ef32e6,SCR,2024-06-25_19h14.20.082,LearnStrategy,2023.2.3,Win32,58.47953216,4,1,12,0.12109375,0.12890625,1,0,0,0.6457,Andesite_11,1,11,4,5,0.646,3,06,0.118489583,-0.2578125,1,0,0,0.5976,Diorite_rect,3,0.598,0,11,0,11,0,1,,,,,,,,,,,,,
65e1e69cc010f4b4a1ef32e6,SCR,2024-06-25_19h14.20.082,LearnStrategy,2023.2.3,Win32,58.47953216,4,1,13,-0.036458333,0.125,1,0,0,0.5596,Basalt_11,2,11,4,4,0.56,2,04,-0.067708333,-0.2421875,1,0,0,1.104,Basalt_rect,2,1.104,1,12,0,12,0,1,,,,,,,,,,,,,
65e1e69cc010f4b4a1ef32e6,SCR,2024-06-25_19h14.20.082,LearnStrategy,2023.2.3,Win32,58.47953216,4,1,14,-0.044270833,0.100260417,1,0,0,0.6065,Basalt_11,2,11,4,4,0.607,7,14,0.106770833,-0.23046875,1,0,0,0.6716,Diorite_rect,3,0.672,0,13,0,13,0,1,,,,,,,,,,,,,
65e1e69cc010f4b4a1ef32e6,SCR,2024-06-25_19h14.20.082,LearnStrategy,2023.2.3,Win32,58.47953216,4,1,15,-0.046875,0.046875,1,0,0,0.5589,Basalt_11,2,11,4,4,0.559,4,05,-0.075520833,-0.26953125,1,0,0,0.7986,Basalt_rect,2,0.799,1,14,0,14,0,1,,,,,,,,,,,,,
65e1e69cc010f4b4a1ef32e6,SCR,2024-06-25_19h14.20.082,LearnStrategy,2023.2.3,Win32,58.47953216,4,1,16,0.048177083,-0.115885417,1,0,0,0.5913,Diorite_09,3,09,3,5,0.591,4,14,0.0546875,-0.266927083,1,0,0,0.8273,Diorite_rect,3,0.827,1,15,0,15,0,1,,,,,,,,,,,,,
65e1e69cc010f4b4a1ef32e6,SCR,2024-06-25_19h14.20.082,LearnStrategy,2023.2.3,Win32,58.47953216,4,2,1,,,,,,,,7,16,,,,,,,,,,,,,3,0.755,0,,,,,,0.076822917,-0.235677083,1,0,0,0.7545,Diorite_rect,0,0,0,0,1,
65e1e69cc010f4b4a1ef32e6,SCR,2024-06-25_19h14.20.082,LearnStrategy,2023.2.3,Win32,58.47953216,4,2,2,,,,,,,,6,03,,,,,,,,,,,,,2,0.231,0,,,,,,-0.048177083,-0.247395833,1,0,0,0.2305,Basalt_rect,1,0,1,0,1,
65e1e69cc010f4b4a1ef32e6,SCR,2024-06-25_19h14.20.082,LearnStrategy,2023.2.3,Win32,58.47953216,4,2,3,,,,,,,,4,08,,,,,,,,,,,,,1,0.38,0,,,,,,-0.321614583,-0.265625,1,0,0,0.3796,Andesite_rect,2,0,2,0,1,
65e1e69cc010f4b4a1ef32e6,SCR,2024-06-25_19h14.20.082,LearnStrategy,2023.2.3,Win32,58.47953216,4,2,4,,,,,,,,1,07,,,,,,,,,,,,,5,0.595,0,,,,,,-0.329427083,-0.399739583,1,0,0,0.5948,Obsidian_rect,3,0,3,0,1,
65e1e69cc010f4b4a1ef32e6,SCR,2024-06-25_19h14.20.082,LearnStrategy,2023.2.3,Win32,58.47953216,4,2,5,,,,,,,,2,16,,,,,,,,,,,,,6,0.247,0,,,,,,-0.16015625,-0.40234375,1,0,0,0.2468,Pegmatite_rect,4,0,4,0,1,
65e1e69cc010f4b4a1ef32e6,SCR,2024-06-25_19h14.20.082,LearnStrategy,2023.2.3,Win32,58.47953216,4,2,6,,,,,,,,3,02,,,,,,,,,,,,,7,0.256,0,,,,,,0.069010417,-0.393229167,1,0,0,0.2557,Peridotite_rect,5,0,5,0,1,
65e1e69cc010f4b4a1ef32e6,SCR,2024-06-25_19h14.20.082,LearnStrategy,2023.2.3,Win32,58.47953216,4,2,7,,,,,,,,6,15,,,,,,,,,,,,,8,0.23,0,,,,,,0.32421875,-0.395833333,1,0,0,0.2302,Pumice_rect,6,0,6,0,1,
65e1e69cc010f4b4a1ef32e6,SCR,2024-06-25_19h14.20.082,LearnStrategy,2023.2.3,Win32,58.47953216,4,2,8,,,,,,,,5,11,,,,,,,,,,,,,4,0.175,0,,,,,,0.342447917,-0.268229167,1,0,0,0.1749,Gabbro_rect,7,0,7,0,1,
65e1e69cc010f4b4a1ef32e6,SCR,2024-06-25_19h14.20.082,LearnStrategy,2023.2.3,Win32,58.47953216,4,2,9,,,,,,,,2,02,,,,,,,,,,,,,3,0.137,0,,,,,,0.12109375,-0.255208333,1,0,0,0.1365,Diorite_rect,8,0,8,0,1,
65e1e69cc010f4b4a1ef32e6,SCR,2024-06-25_19h14.20.082,LearnStrategy,2023.2.3,Win32,58.47953216,4,2,10,,,,,,,,1,01,,,,,,,,,,,,,2,0.105,0,,,,,,-0.10546875,-0.259114583,1,0,0,0.1048,Basalt_rect,9,0,9,0,1,
65e1e69cc010f4b4a1ef32e6,SCR,2024-06-25_19h14.20.082,LearnStrategy,2023.2.3,Win32,58.47953216,4,2,11,,,,,,,,8,09,,,,,,,,,,,,,1,0.133,0,,,,,,-0.37890625,-0.260416667,1,0,0,0.1332,Andesite_rect,10,0,10,0,1,
65e1e69cc010f4b4a1ef32e6,SCR,2024-06-25_19h14.20.082,LearnStrategy,2023.2.3,Win32,58.47953216,4,2,12,,,,,,,,3,07,,,,,,,,,,,,,5,0.237,0,,,,,,-0.368489583,-0.391927083,1,0,0,0.2371,Obsidian_rect,11,0,11,0,1,
65e1e69cc010f4b4a1ef32e6,SCR,2024-06-25_19h14.20.082,LearnStrategy,2023.2.3,Win32,58.47953216,4,2,13,,,,,,,,5,02,,,,,,,,,,,,,3,0.631,0,,,,,,0.102864583,-0.270833333,1,0,0,0.631,Diorite_rect,12,0,12,0,1,
65e1e69cc010f4b4a1ef32e6,SCR,2024-06-25_19h14.20.082,LearnStrategy,2023.2.3,Win32,58.47953216,4,2,14,,,,,,,,7,07,,,,,,,,,,,,,7,0.563,1,,,,,,0.071614583,-0.39453125,1,0,0,0.5629,Peridotite_rect,13,0,13,0,1,
65e1e69cc010f4b4a1ef32e6,SCR,2024-06-25_19h14.20.082,LearnStrategy,2023.2.3,Win32,58.47953216,4,2,15,,,,,,,,4,16,,,,,,,,,,,,,2,0.296,0,,,,,,-0.15234375,-0.2421875,1,0,0,0.296,Basalt_rect,14,0,14,0,1,
65e1e69cc010f4b4a1ef32e6,SCR,2024-06-25_19h14.20.082,LearnStrategy,2023.2.3,Win32,58.47953216,4,2,16,,,,,,,,8,02,,,,,,,,,,,,,3,0.161,0,,,,,,0.106770833,-0.236979167,1,0,0,0.1606,Diorite_rect,15,0,15,0,1,
65e1e69cc010f4b4a1ef32e6,SCR,2024-06-25_19h14.20.082,LearnStrategy,2023.2.3,Win32,58.47953216,5,1,1,-0.053385417,-0.095052083,1,0,0,0.666,Pumice_14,8,14,3,4,0.666,2,01,0.059895833,-0.243489583,1,0,0,0.7281,Diorite_rect,3,0.728,0,0,0,0,0,1,,,,,,,,,,,,,
65e1e69cc010f4b4a1ef32e6,SCR,2024-06-25_19h14.20.082,LearnStrategy,2023.2.3,Win32,58.47953216,5,1,2,-0.080729167,-0.130208333,1,0,0,0.9167,Pumice_14,8,14,3,4,0.917,8,14,-0.0625,-0.235677083,1,0,0,1.5631,Basalt_rect,2,1.563,0,1,0,1,0,1,,,,,,,,,,,,,
65e1e69cc010f4b4a1ef32e6,SCR,2024-06-25_19h14.20.082,LearnStrategy,2023.2.3,Win32,58.47953216,5,1,3,-0.059895833,-0.106770833,1,0,0,0.7007,Pumice_14,8,14,3,4,0.701,7,05,-0.057291667,-0.263020833,1,0,0,0.6646,Basalt_rect,2,0.665,0,2,0,2,0,1,,,,,,,,,,,,,
65e1e69cc010f4b4a1ef32e6,SCR,2024-06-25_19h14.20.082,LearnStrategy,2023.2.3,Win32,58.47953216,5,1,4,0.126302083,-0.111979167,1,0,0,0.6944,Diorite_09,3,09,3,5,0.694,4,10,0.126302083,-0.247395833,1,0,0,0.8186,Diorite_rect,3,0.819,1,3,0,3,0,1,,,,,,,,,,,,,
65e1e69cc010f4b4a1ef32e6,SCR,2024-06-25_19h14.20.082,LearnStrategy,2023.2.3,Win32,58.47953216,5,1,5,0.111979167,-0.1015625,1,0,0,0.7757,Diorite_09,3,09,3,5,0.776,7,05,0.123697917,-0.23828125,1,0,0,0.831,Diorite_rect,3,0.831,1,4,0,4,0,1,,,,,,,,,,,,,
65e1e69cc010f4b4a1ef32e6,SCR,2024-06-25_19h14.20.082,LearnStrategy,2023.2.3,Win32,58.47953216,5,1,6,0.0546875,-0.135416667,1,0,0,0.6714,Diorite_09,3,09,3,5,0.671,2,14,0.087239583,-0.26171875,1,0,0,0.6876,Diorite_rect,3,0.688,1,5,0,5,0,1,,,,,,,,,,,,,
65e1e69cc010f4b4a1ef32e6,SCR,2024-06-25_19h14.20.082,LearnStrategy,2023.2.3,Win32,58.47953216,5,1,7,0.11328125,-0.122395833,1,0,0,0.6015,Diorite_09,3,09,3,5,0.602,5,08,0.088541667,-0.260416667,1,0,0,0.7016,Diorite_rect,3,0.702,1,6,0,6,0,1,,,,,,,,,,,,,
65e1e69cc010f4b4a1ef32e6,SCR,2024-06-25_19h14.20.082,LearnStrategy,2023.2.3,Win32,58.47953216,5,1,8,0.114583333,-0.087239583,1,0,0,0.8726,Diorite_09,3,09,3,5,0.873,5,12,0.161458333,-0.248697917,1,0,0,2.8293,Diorite_rect,3,2.829,1,7,0,7,0,1,,,,,,,,,,,,,
65e1e69cc010f4b4a1ef32e6,SCR,2024-06-25_19h14.20.082,LearnStrategy,2023.2.3,Win32,58.47953216,5,1,9,0.0859375,-0.115885417,1,0,0,0.7051,Diorite_09,3,09,3,5,0.705,3,06,0.095052083,-0.255208333,1,0,0,0.5573,Diorite_rect,3,0.557,1,8,0,8,0,1,,,,,,,,,,,,,
65e1e69cc010f4b4a1ef32e6,SCR,2024-06-25_19h14.20.082,LearnStrategy,2023.2.3,Win32,58.47953216,5,1,10,0.045572917,-0.069010417,1,0,0,0.5969,Diorite_09,3,09,3,5,0.597,3,16,0.145833333,-0.260416667,1,0,0,0.9556,Diorite_rect,3,0.956,1,9,0,9,0,1,,,,,,,,,,,,,
65e1e69cc010f4b4a1ef32e6,SCR,2024-06-25_19h14.20.082,LearnStrategy,2023.2.3,Win32,58.47953216,5,1,11,0.201822917,-0.065104167,1,0,0,0.5233,Pumice_06,8,06,3,6,0.523,8,06,0.1953125,-0.255208333,1,0,0,0.6401,Diorite_rect,3,0.64,0,10,0,10,0,1,,,,,,,,,,,,,
65e1e69cc010f4b4a1ef32e6,SCR,2024-06-25_19h14.20.082,LearnStrategy,2023.2.3,Win32,58.47953216,5,1,12,-0.03125,-0.096354167,1,0,0,0.7074,Pumice_14,8,14,3,4,0.707,1,02,0.04296875,-0.236979167,1,0,0,0.6484,Diorite_rect,3,0.648,0,11,0,11,0,1,,,,,,,,,,,,,
65e1e69cc010f4b4a1ef32e6,SCR,2024-06-25_19h14.20.082,LearnStrategy,2023.2.3,Win32,58.47953216,5,1,13,-0.059895833,-0.08203125,1,0,0,0.5732,Pumice_14,8,14,3,4,0.573,1,05,-0.065104167,-0.23046875,1,0,0,0.7202,Basalt_rect,2,0.72,0,12,0,12,0,1,,,,,,,,,,,,,
65e1e69cc010f4b4a1ef32e6,SCR,2024-06-25_19h14.20.082,LearnStrategy,2023.2.3,Win32,58.47953216,5,1,14,0.087239583,-0.083333333,1,0,0,0.5163,Diorite_09,3,09,3,5,0.516,6,05,0.108072917,-0.264322917,1,0,0,0.5156,Diorite_rect,3,0.516,1,13,0,13,0,1,,,,,,,,,,,,,
65e1e69cc010f4b4a1ef32e6,SCR,2024-06-25_19h14.20.082,LearnStrategy,2023.2.3,Win32,58.47953216,5,1,15,0.087239583,-0.10546875,1,0,0,0.7119,Diorite_09,3,09,3,5,0.712,4,05,0.12890625,-0.24609375,1,0,0,0.9023,Diorite_rect,3,0.902,1,14,0,14,0,1,,,,,,,,,,,,,
65e1e69cc010f4b4a1ef32e6,SCR,2024-06-25_19h14.20.082,LearnStrategy,2023.2.3,Win32,58.47953216,5,1,16,-0.041666667,-0.092447917,1,0,0,0.5451,Pumice_14,8,14,3,4,0.545,6,07,-0.123697917,-0.4140625,1,0,0,1.3139,Pegmatite_rect,6,1.314,0,15,0,15,0,1,,,,,,,,,,,,,
65e1e69cc010f4b4a1ef32e6,SCR,2024-06-25_19h14.20.082,LearnStrategy,2023.2.3,Win32,58.47953216,5,2,1,,,,,,,,1,09,,,,,,,,,,,,,3,0.299,0,,,,,,0.0390625,-0.264322917,1,0,0,0.2985,Diorite_rect,0,0,0,0,1,
65e1e69cc010f4b4a1ef32e6,SCR,2024-06-25_19h14.20.082,LearnStrategy,2023.2.3,Win32,58.47953216,5,2,2,,,,,,,,8,16,,,,,,,,,,,,,2,0.206,0,,,,,,-0.098958333,-0.270833333,1,0,0,0.2058,Basalt_rect,1,0,1,0,1,
65e1e69cc010f4b4a1ef32e6,SCR,2024-06-25_19h14.20.082,LearnStrategy,2023.2.3,Win32,58.47953216,5,2,3,,,,,,,,5,07,,,,,,,,,,,,,6,0.151,0,,,,,,-0.078125,-0.395833333,1,0,0,0.1514,Pegmatite_rect,2,0,2,0,1,
65e1e69cc010f4b4a1ef32e6,SCR,2024-06-25_19h14.20.082,LearnStrategy,2023.2.3,Win32,58.47953216,5,2,4,,,,,,,,6,11,,,,,,,,,,,,,3,0.527,0,,,,,,0.127604167,-0.255208333,1,0,0,0.5269,Diorite_rect,3,0,3,0,1,
65e1e69cc010f4b4a1ef32e6,SCR,2024-06-25_19h14.20.082,LearnStrategy,2023.2.3,Win32,58.47953216,5,2,5,,,,,,,,8,04,,,,,,,,,,,,,2,0.217,0,,,,,,-0.111979167,-0.2421875,1,0,0,0.2169,Basalt_rect,4,0,4,0,1,
65e1e69cc010f4b4a1ef32e6,SCR,2024-06-25_19h14.20.082,LearnStrategy,2023.2.3,Win32,58.47953216,5,2,6,,,,,,,,3,14,,,,,,,,,,,,,1,0.15,0,,,,,,-0.34375,-0.25,1,0,0,0.1499,Andesite_rect,5,0,5,0,1,
65e1e69cc010f4b4a1ef32e6,SCR,2024-06-25_19h14.20.082,LearnStrategy,2023.2.3,Win32,58.47953216,5,2,7,,,,,,,,7,02,,,,,,,,,,,,,5,0.296,0,,,,,,-0.348958333,-0.388020833,1,0,0,0.2964,Obsidian_rect,6,0,6,0,1,
65e1e69cc010f4b4a1ef32e6,SCR,2024-06-25_19h14.20.082,LearnStrategy,2023.2.3,Win32,58.47953216,5,2,8,,,,,,,,2,09,,,,,,,,,,,,,6,0.15,0,,,,,,-0.154947917,-0.41015625,1,0,0,0.1504,Pegmatite_rect,7,0,7,0,1,
65e1e69cc010f4b4a1ef32e6,SCR,2024-06-25_19h14.20.082,LearnStrategy,2023.2.3,Win32,58.47953216,5,2,9,,,,,,,,5,05,,,,,,,,,,,,,7,0.174,0,,,,,,0.0625,-0.390625,1,0,0,0.174,Peridotite_rect,8,0,8,0,1,
65e1e69cc010f4b4a1ef32e6,SCR,2024-06-25_19h14.20.082,LearnStrategy,2023.2.3,Win32,58.47953216,5,2,10,,,,,,,,4,12,,,,,,,,,,,,,8,0.129,0,,,,,,0.31640625,-0.390625,1,0,0,0.1285,Pumice_rect,9,0,9,0,1,
65e1e69cc010f4b4a1ef32e6,SCR,2024-06-25_19h14.20.082,LearnStrategy,2023.2.3,Win32,58.47953216,5,2,11,,,,,,,,4,13,,,,,,,,,,,,,4,0.126,1,,,,,,0.35546875,-0.2578125,1,0,0,0.1265,Gabbro_rect,10,0,10,0,1,
65e1e69cc010f4b4a1ef32e6,SCR,2024-06-25_19h14.20.082,LearnStrategy,2023.2.3,Win32,58.47953216,5,2,12,,,,,,,,7,15,,,,,,,,,,,,,3,0.089,0,,,,,,0.125,-0.256510417,1,0,0,0.089,Diorite_rect,11,0,11,0,1,
65e1e69cc010f4b4a1ef32e6,SCR,2024-06-25_19h14.20.082,LearnStrategy,2023.2.3,Win32,58.47953216,5,2,13,,,,,,,,3,15,,,,,,,,,,,,,2,0.051,0,,,,,,-0.09375,-0.259114583,1,0,0,0.0514,Basalt_rect,12,0,12,0,1,
65e1e69cc010f4b4a1ef32e6,SCR,2024-06-25_19h14.20.082,LearnStrategy,2023.2.3,Win32,58.47953216,5,2,14,,,,,,,,2,12,,,,,,,,,,,,,1,0.05,0,,,,,,-0.393229167,-0.236979167,1,0,0,0.0505,Andesite_rect,13,0,13,0,1,
65e1e69cc010f4b4a1ef32e6,SCR,2024-06-25_19h14.20.082,LearnStrategy,2023.2.3,Win32,58.47953216,5,2,15,,,,,,,,6,09,,,,,,,,,,,,,5,0.067,0,,,,,,-0.397135417,-0.390625,1,0,0,0.0675,Obsidian_rect,14,0,14,0,1,
65e1e69cc010f4b4a1ef32e6,SCR,2024-06-25_19h14.20.082,LearnStrategy,2023.2.3,Win32,58.47953216,5,2,16,,,,,,,,1,04,,,,,,,,,,,,,6,0.109,0,,,,,,-0.119791667,-0.397135417,1,0,0,0.1086,Pegmatite_rect,15,0,15,0,1,
65e1e69cc010f4b4a1ef32e6,SCR,2024-06-25_19h14.20.082,LearnStrategy,2023.2.3,Win32,58.47953216,6,1,1,0.061197917,-0.0546875,1,0,0,0.3266,Diorite_09,3,09,3,5,0.327,5,10,0.140625,-0.239583333,1,0,0,1.0139,Diorite_rect,3,1.014,1,0,0,0,0,1,,,,,,,,,,,,,
65e1e69cc010f4b4a1ef32e6,SCR,2024-06-25_19h14.20.082,LearnStrategy,2023.2.3,Win32,58.47953216,6,1,2,-0.084635417,-0.10546875,1,0,0,0.4738,Pumice_14,8,14,3,4,0.474,2,01,0.37109375,-0.25390625,1,0,0,2.6391,Gabbro_rect,4,2.639,0,1,0,1,0,1,,,,,,,,,,,,,
65e1e69cc010f4b4a1ef32e6,SCR,2024-06-25_19h14.20.082,LearnStrategy,2023.2.3,Win32,58.47953216,6,1,3,-0.0859375,-0.091145833,1,0,0,0.7035,Pumice_14,8,14,3,4,0.704,4,03,-0.127604167,-0.2421875,1,0,0,0.7154,Basalt_rect,2,0.715,0,2,0,2,0,1,,,,,,,,,,,,,
65e1e69cc010f4b4a1ef32e6,SCR,2024-06-25_19h14.20.082,LearnStrategy,2023.2.3,Win32,58.47953216,6,1,4,0.083333333,-0.127604167,1,0,0,0.6614,Diorite_09,3,09,3,5,0.661,1,10,0.114583333,-0.247395833,1,0,0,0.7305,Diorite_rect,3,0.731,1,3,0,3,0,1,,,,,,,,,,,,,
65e1e69cc010f4b4a1ef32e6,SCR,2024-06-25_19h14.20.082,LearnStrategy,2023.2.3,Win32,58.47953216,6,1,5,0.399739583,0.102864583,1,0,0,0.8876,Diorite_10,3,10,4,7,0.888,2,14,0.489583333,-0.268229167,1,0,0,0.9126,Gabbro_rect,4,0.913,0,4,0,4,0,1,,,,,,,,,,,,,
65e1e69cc010f4b4a1ef32e6,SCR,2024-06-25_19h14.20.082,LearnStrategy,2023.2.3,Win32,58.47953216,6,1,6,0.072916667,0.087239583,1,0,0,0.6107,Andesite_11,1,11,4,5,0.611,3,11,0.0625,-0.266927083,1,0,0,0.6549,Diorite_rect,3,0.655,0,5,0,5,0,1,,,,,,,,,,,,,
65e1e69cc010f4b4a1ef32e6,SCR,2024-06-25_19h14.20.082,LearnStrategy,2023.2.3,Win32,58.47953216,6,1,7,0.360677083,0.25,1,0,0,0.7021,Obsidian_10,5,10,5,7,0.702,6,08,0.3671875,-0.266927083,1,0,0,1.0081,Gabbro_rect,4,1.008,0,6,0,6,0,1,,,,,,,,,,,,,
65e1e69cc010f4b4a1ef32e6,SCR,2024-06-25_19h14.20.082,LearnStrategy,2023.2.3,Win32,58.47953216,6,1,8,-0.3828125,0.239583333,1,0,0,1.241,Gabbro_14,4,14,5,2,1.241,8,10,-0.104166667,-0.260416667,1,0,0,0.9466,Basalt_rect,2,0.947,0,7,0,7,0,1,,,,,,,,,,,,,
65e1e69cc010f4b4a1ef32e6,SCR,2024-06-25_19h14.20.082,LearnStrategy,2023.2.3,Win32,58.47953216,6,1,9,0.05078125,-0.12109375,1,0,0,0.7416,Diorite_09,3,09,3,5,0.742,4,03,0.076822917,-0.2578125,1,0,0,0.6867,Diorite_rect,3,0.687,1,8,0,8,0,1,,,,,,,,,,,,,
65e1e69cc010f4b4a1ef32e6,SCR,2024-06-25_19h14.20.082,LearnStrategy,2023.2.3,Win32,58.47953216,6,1,10,0.096354167,0.282552083,1,0,0,0.7763,Obsidian_08,5,08,5,5,0.776,6,12,0.157552083,-0.3984375,1,0,0,0.7346,Peridotite_rect,7,0.735,0,9,0,9,0,1,,,,,,,,,,,,,
65e1e69cc010f4b4a1ef32e6,SCR,2024-06-25_19h14.20.082,LearnStrategy,2023.2.3,Win32,58.47953216,6,1,11,0.528645833,0.114583333,1,0,0,0.8377,Peridotite_14,7,14,4,8,0.838,1,05,0.40234375,-0.259114583,1,0,0,0.6646,Gabbro_rect,4,0.665,0,10,0,10,0,1,,,,,,,,,,,,,
65e1e69cc010f4b4a1ef32e6,SCR,2024-06-25_19h14.20.082,LearnStrategy,2023.2.3,Win32,58.47953216,6,1,12,-0.537760417,0.428385417,1,0,0,0.9888,Peridotite_04,7,04,6,1,0.989,3,13,0.106770833,-0.255208333,1,0,0,0.8568,Diorite_rect,3,0.857,0,11,0,11,0,1,,,,,,,,,,,,,
65e1e69cc010f4b4a1ef32e6,SCR,2024-06-25_19h14.20.082,LearnStrategy,2023.2.3,Win32,58.47953216,6,1,13,0.079427083,0.227864583,1,0,0,0.6081,Obsidian_08,5,08,5,5,0.608,5,09,-0.143229167,-0.385416667,1,0,0,0.9992,Pegmatite_rect,6,0.999,0,12,0,12,0,1,,,,,,,,,,,,,
65e1e69cc010f4b4a1ef32e6,SCR,2024-06-25_19h14.20.082,LearnStrategy,2023.2.3,Win32,58.47953216,6,1,14,0.221354167,-0.282552083,1,0,0,0.8672,Pumice_10,8,10,2,6,0.867,7,10,0.102864583,-0.25390625,1,0,0,0.4561,Diorite_rect,3,0.456,0,13,0,13,0,1,,,,,,,,,,,,,
65e1e69cc010f4b4a1ef32e6,SCR,2024-06-25_19h14.20.082,LearnStrategy,2023.2.3,Win32,58.47953216,6,1,15,0.42578125,-0.287760417,1,0,0,1.0224,Andesite_02,1,02,2,7,1.022,7,04,0.098958333,-0.421875,1,0,0,0.8625,Peridotite_rect,7,0.863,0,14,0,14,0,1,,,,,,,,,,,,,
65e1e69cc010f4b4a1ef32e6,SCR,2024-06-25_19h14.20.082,LearnStrategy,2023.2.3,Win32,58.47953216,6,1,16,-0.049479167,-0.110677083,1,0,0,0.6969,Pumice_14,8,14,3,4,0.697,8,13,0.049479167,-0.24609375,1,0,0,0.4767,Diorite_rect,3,0.477,0,15,0,15,0,1,,,,,,,,,,,,,
65e1e69cc010f4b4a1ef32e6,SCR,2024-06-25_19h14.20.082,LearnStrategy,2023.2.3,Win32,58.47953216,6,2,1,,,,,,,,4,11,,,,,,,,,,,,,3,0.685,0,,,,,,0.05859375,-0.26953125,1,0,0,0.6845,Diorite_rect,0,0,0,0,1,
65e1e69cc010f4b4a1ef32e6,SCR,2024-06-25_19h14.20.082,LearnStrategy,2023.2.3,Win32,58.47953216,6,2,2,,,,,,,,3,12,,,,,,,,,,,,,4,0.203,0,,,,,,0.36328125,-0.255208333,1,0,0,0.2029,Gabbro_rect,1,0,1,0,1,
65e1e69cc010f4b4a1ef32e6,SCR,2024-06-25_19h14.20.082,LearnStrategy,2023.2.3,Win32,58.47953216,6,2,3,,,,,,,,6,06,,,,,,,,,,,,,7,0.608,0,,,,,,0.13671875,-0.384114583,1,0,0,0.6076,Peridotite_rect,2,0,2,0,1,
65e1e69cc010f4b4a1ef32e6,SCR,2024-06-25_19h14.20.082,LearnStrategy,2023.2.3,Win32,58.47953216,6,2,4,,,,,,,,2,08,,,,,,,,,,,,,6,0.26,0,,,,,,-0.048177083,-0.388020833,1,0,0,0.2595,Pegmatite_rect,3,0,3,0,1,
65e1e69cc010f4b4a1ef32e6,SCR,2024-06-25_19h14.20.082,LearnStrategy,2023.2.3,Win32,58.47953216,6,2,5,,,,,,,,8,03,,,,,,,,,,,,,2,0.188,0,,,,,,-0.096354167,-0.255208333,1,0,0,0.1883,Basalt_rect,4,0,4,0,1,
65e1e69cc010f4b4a1ef32e6,SCR,2024-06-25_19h14.20.082,LearnStrategy,2023.2.3,Win32,58.47953216,6,2,6,,,,,,,,4,15,,,,,,,,,,,,,1,0.312,0,,,,,,-0.337239583,-0.2578125,1,0,0,0.3123,Andesite_rect,5,0,5,0,1,
65e1e69cc010f4b4a1ef32e6,SCR,2024-06-25_19h14.20.082,LearnStrategy,2023.2.3,Win32,58.47953216,6,2,7,,,,,,,,2,10,,,,,,,,,,,,,5,0.253,0,,,,,,-0.337239583,-0.381510417,1,0,0,0.2531,Obsidian_rect,6,0,6,0,1,
65e1e69cc010f4b4a1ef32e6,SCR,2024-06-25_19h14.20.082,LearnStrategy,2023.2.3,Win32,58.47953216,6,2,8,,,,,,,,7,12,,,,,,,,,,,,,6,0.315,0,,,,,,-0.16015625,-0.3984375,1,0,0,0.3147,Pegmatite_rect,7,0,7,0,1,
65e1e69cc010f4b4a1ef32e6,SCR,2024-06-25_19h14.20.082,LearnStrategy,2023.2.3,Win32,58.47953216,6,2,9,,,,,,,,6,16,,,,,,,,,,,,,3,0.264,0,,,,,,0.109375,-0.266927083,1,0,0,0.2643,Diorite_rect,8,0,8,0,1,
65e1e69cc010f4b4a1ef32e6,SCR,2024-06-25_19h14.20.082,LearnStrategy,2023.2.3,Win32,58.47953216,6,2,10,,,,,,,,8,08,,,,,,,,,,,,,7,0.194,0,,,,,,0.153645833,-0.39453125,1,0,0,0.1936,Peridotite_rect,9,0,9,0,1,
65e1e69cc010f4b4a1ef32e6,SCR,2024-06-25_19h14.20.082,LearnStrategy,2023.2.3,Win32,58.47953216,6,2,11,,,,,,,,7,06,,,,,,,,,,,,,6,0.282,0,,,,,,-0.053385417,-0.404947917,1,0,0,0.282,Pegmatite_rect,10,0,10,0,1,
65e1e69cc010f4b4a1ef32e6,SCR,2024-06-25_19h14.20.082,LearnStrategy,2023.2.3,Win32,58.47953216,6,2,12,,,,,,,,1,06,,,,,,,,,,,,,2,0.191,0,,,,,,-0.110677083,-0.2421875,1,0,0,0.1906,Basalt_rect,11,0,11,0,1,
65e1e69cc010f4b4a1ef32e6,SCR,2024-06-25_19h14.20.082,LearnStrategy,2023.2.3,Win32,58.47953216,6,2,13,,,,,,,,5,16,,,,,,,,,,,,,1,0.045,0,,,,,,-0.32421875,-0.243489583,1,0,0,0.0449,Andesite_rect,12,0,12,0,1,
65e1e69cc010f4b4a1ef32e6,SCR,2024-06-25_19h14.20.082,LearnStrategy,2023.2.3,Win32,58.47953216,6,2,14,,,,,,,,3,08,,,,,,,,,,,,,3,1.329,1,,,,,,0.087239583,-0.248697917,1,0,0,1.3294,Diorite_rect,13,0,13,0,1,
65e1e69cc010f4b4a1ef32e6,SCR,2024-06-25_19h14.20.082,LearnStrategy,2023.2.3,Win32,58.47953216,6,2,15,,,,,,,,5,04,,,,,,,,,,,,,3,0.181,0,,,,,,0.180989583,-0.252604167,1,0,0,0.1809,Diorite_rect,14,0,14,0,1,
65e1e69cc010f4b4a1ef32e6,SCR,2024-06-25_19h14.20.082,LearnStrategy,2023.2.3,Win32,58.47953216,6,2,16,,,,,,,,1,14,,,,,,,,,,,,,4,0.213,0,,,,,,0.34765625,-0.244791667,1,0,0,0.2127,Gabbro_rect,15,0,15,0,1,
65e1e69cc010f4b4a1ef32e6,SCR,2024-06-25_19h14.20.082,LearnStrategy,2023.2.3,Win32,58.47953216,7,1,1,0.09375,-0.096354167,1,0,0,0.8322,Diorite_09,3,09,3,5,0.832,1,11,0.09375,-0.244791667,1,0,0,0.413,Diorite_rect,3,0.413,1,0,0,0,0,1,,,,,,,,,,,,,
65e1e69cc010f4b4a1ef32e6,SCR,2024-06-25_19h14.20.082,LearnStrategy,2023.2.3,Win32,58.47953216,7,1,2,0.359375,-0.087239583,1,0,0,0.718,Andesite_05,1,05,3,7,0.718,6,12,0.127604167,-0.24609375,1,0,0,0.5724,Diorite_rect,3,0.572,0,1,0,1,0,1,,,,,,,,,,,,,
65e1e69cc010f4b4a1ef32e6,SCR,2024-06-25_19h14.20.082,LearnStrategy,2023.2.3,Win32,58.47953216,7,1,3,0.111979167,0.102864583,1,0,0,0.5828,Andesite_11,1,11,4,5,0.583,2,05,0.095052083,-0.260416667,1,0,0,0.5574,Diorite_rect,3,0.557,0,2,0,2,0,1,,,,,,,,,,,,,
65e1e69cc010f4b4a1ef32e6,SCR,2024-06-25_19h14.20.082,LearnStrategy,2023.2.3,Win32,58.47953216,7,1,4,0.352864583,0.061197917,1,0,0,1.0933,Diorite_10,3,10,4,7,1.093,5,09,0.432291667,-0.265625,1,0,0,0.7781,Gabbro_rect,4,0.778,0,3,0,3,0,1,,,,,,,,,,,,,
65e1e69cc010f4b4a1ef32e6,SCR,2024-06-25_19h14.20.082,LearnStrategy,2023.2.3,Win32,58.47953216,7,1,5,0.416666667,0.061197917,1,0,0,0.8252,Diorite_10,3,10,4,7,0.825,3,10,0.397135417,-0.41796875,1,0,0,0.6376,Pumice_rect,8,0.638,0,4,0,4,0,1,,,,,,,,,,,,,
65e1e69cc010f4b4a1ef32e6,SCR,2024-06-25_19h14.20.082,LearnStrategy,2023.2.3,Win32,58.47953216,7,1,6,0.114583333,0.096354167,1,0,0,0.8182,Andesite_11,1,11,4,5,0.818,3,10,0.125,-0.247395833,1,0,0,0.5835,Diorite_rect,3,0.583,0,5,0,5,0,1,,,,,,,,,,,,,
65e1e69cc010f4b4a1ef32e6,SCR,2024-06-25_19h14.20.082,LearnStrategy,2023.2.3,Win32,58.47953216,7,1,7,-0.190104167,0.109375,1,0,0,0.6046,Andesite_10,1,10,4,3,0.605,7,13,-0.127604167,-0.2421875,1,0,0,0.8436,Basalt_rect,2,0.844,0,6,0,6,0,1,,,,,,,,,,,,,
65e1e69cc010f4b4a1ef32e6,SCR,2024-06-25_19h14.20.082,LearnStrategy,2023.2.3,Win32,58.47953216,7,1,8,-0.06640625,0.24609375,1,0,0,0.6591,Pegmatite_08,6,08,5,4,0.659,6,13,-0.065104167,-0.231770833,1,0,0,0.7123,Basalt_rect,2,0.712,0,7,0,7,0,1,,,,,,,,,,,,,
65e1e69cc010f4b4a1ef32e6,SCR,2024-06-25_19h14.20.082,LearnStrategy,2023.2.3,Win32,58.47953216,7,1,9,0.065104167,0.15234375,1,0,0,0.5551,Andesite_11,1,11,4,5,0.555,8,10,0.10546875,-0.263020833,1,0,0,0.6582,Diorite_rect,3,0.658,0,8,0,8,0,1,,,,,,,,,,,,,
65e1e69cc010f4b4a1ef32e6,SCR,2024-06-25_19h14.20.082,LearnStrategy,2023.2.3,Win32,58.47953216,7,1,10,0.10546875,0.266927083,1,0,0,0.6177,Obsidian_08,5,08,5,5,0.618,2,01,0.342447917,-0.25390625,1,0,0,0.8235,Gabbro_rect,4,0.824,0,9,0,9,0,1,,,,,,,,,,,,,
65e1e69cc010f4b4a1ef32e6,SCR,2024-06-25_19h14.20.082,LearnStrategy,2023.2.3,Win32,58.47953216,7,1,11,0.0390625,0.119791667,1,0,0,0.5383,Andesite_11,1,11,4,5,0.538,4,03,0.057291667,-0.25390625,1,0,0,0.6635,Diorite_rect,3,0.663,0,10,0,10,0,1,,,,,,,,,,,,,
65e1e69cc010f4b4a1ef32e6,SCR,2024-06-25_19h14.20.082,LearnStrategy,2023.2.3,Win32,58.47953216,7,1,12,-0.046875,0.080729167,1,0,0,0.9554,Basalt_11,2,11,4,4,0.955,4,09,-0.096354167,-0.265625,1,0,0,1.0417,Basalt_rect,2,1.042,1,11,0,11,0,1,,,,,,,,,,,,,
65e1e69cc010f4b4a1ef32e6,SCR,2024-06-25_19h14.20.082,LearnStrategy,2023.2.3,Win32,58.47953216,7,1,13,0.42578125,0.24609375,1,0,0,0.8026,Obsidian_10,5,10,5,7,0.803,1,05,0.184895833,-0.243489583,1,0,0,0.6751,Diorite_rect,3,0.675,0,12,0,12,0,1,,,,,,,,,,,,,
65e1e69cc010f4b4a1ef32e6,SCR,2024-06-25_19h14.20.082,LearnStrategy,2023.2.3,Win32,58.47953216,7,1,14,0.561197917,-0.111979167,1,0,0,0.971,Andesite_16,1,16,3,8,0.971,5,08,0.12890625,-0.260416667,1,0,0,0.5603,Diorite_rect,3,0.56,0,13,0,13,0,1,,,,,,,,,,,,,
65e1e69cc010f4b4a1ef32e6,SCR,2024-06-25_19h14.20.082,LearnStrategy,2023.2.3,Win32,58.47953216,7,1,15,0.272135417,0.09375,1,0,0,0.797,Gabbro_05,4,05,4,6,0.797,8,15,0.345052083,-0.270833333,1,0,0,1.1505,Gabbro_rect,4,1.15,1,14,0,14,0,1,,,,,,,,,,,,,
65e1e69cc010f4b4a1ef32e6,SCR,2024-06-25_19h14.20.082,LearnStrategy,2023.2.3,Win32,58.47953216,7,1,16,-0.37109375,-0.130208333,1,0,0,1.4554,Peridotite_05,7,05,3,2,1.455,7,05,-0.313802083,-0.247395833,1,0,0,0.7125,Andesite_rect,1,0.713,0,15,0,15,0,1,,,,,,,,,,,,,
65e1e69cc010f4b4a1ef32e6,SCR,2024-06-25_19h14.20.082,LearnStrategy,2023.2.3,Win32,58.47953216,7,2,1,,,,,,,,2,10,,,,,,,,,,,,,3,0.79,0,,,,,,0.106770833,-0.25390625,1,0,0,0.7904,Diorite_rect,0,0,0,0,1,
65e1e69cc010f4b4a1ef32e6,SCR,2024-06-25_19h14.20.082,LearnStrategy,2023.2.3,Win32,58.47953216,7,2,2,,,,,,,,4,16,,,,,,,,,,,,,2,0.288,0,,,,,,-0.063802083,-0.252604167,1,0,0,0.2876,Basalt_rect,1,0,1,0,1,
65e1e69cc010f4b4a1ef32e6,SCR,2024-06-25_19h14.20.082,LearnStrategy,2023.2.3,Win32,58.47953216,7,2,3,,,,,,,,3,12,,,,,,,,,,,,,1,0.225,0,,,,,,-0.372395833,-0.26953125,1,0,0,0.2251,Andesite_rect,2,0,2,0,1,
65e1e69cc010f4b4a1ef32e6,SCR,2024-06-25_19h14.20.082,LearnStrategy,2023.2.3,Win32,58.47953216,7,2,4,,,,,,,,6,06,,,,,,,,,,,,,5,0.211,0,,,,,,-0.376302083,-0.384114583,1,0,0,0.2109,Obsidian_rect,3,0,3,0,1,
65e1e69cc010f4b4a1ef32e6,SCR,2024-06-25_19h14.20.082,LearnStrategy,2023.2.3,Win32,58.47953216,7,2,5,,,,,,,,5,16,,,,,,,,,,,,,1,0.486,0,,,,,,-0.359375,-0.2578125,1,0,0,0.4855,Andesite_rect,4,0,4,0,1,
65e1e69cc010f4b4a1ef32e6,SCR,2024-06-25_19h14.20.082,LearnStrategy,2023.2.3,Win32,58.47953216,7,2,6,,,,,,,,7,15,,,,,,,,,,,,,2,0.235,0,,,,,,-0.1796875,-0.252604167,1,0,0,0.2347,Basalt_rect,5,0,5,0,1,
65e1e69cc010f4b4a1ef32e6,SCR,2024-06-25_19h14.20.082,LearnStrategy,2023.2.3,Win32,58.47953216,7,2,7,,,,,,,,3,14,,,,,,,,,,,,,3,0.279,1,,,,,,0.052083333,-0.25390625,1,0,0,0.2788,Diorite_rect,6,0,6,0,1,
65e1e69cc010f4b4a1ef32e6,SCR,2024-06-25_19h14.20.082,LearnStrategy,2023.2.3,Win32,58.47953216,7,2,8,,,,,,,,8,02,,,,,,,,,,,,,6,0.285,0,,,,,,-0.127604167,-0.389322917,1,0,0,0.2854,Pegmatite_rect,7,0,7,0,1,
65e1e69cc010f4b4a1ef32e6,SCR,2024-06-25_19h14.20.082,LearnStrategy,2023.2.3,Win32,58.47953216,7,2,9,,,,,,,,8,04,,,,,,,,,,,,,7,0.227,0,,,,,,0.067708333,-0.3984375,1,0,0,0.227,Peridotite_rect,8,0,8,0,1,
65e1e69cc010f4b4a1ef32e6,SCR,2024-06-25_19h14.20.082,LearnStrategy,2023.2.3,Win32,58.47953216,7,2,10,,,,,,,,1,14,,,,,,,,,,,,,3,0.549,0,,,,,,0.095052083,-0.26953125,1,0,0,0.549,Diorite_rect,9,0,9,0,1,
65e1e69cc010f4b4a1ef32e6,SCR,2024-06-25_19h14.20.082,LearnStrategy,2023.2.3,Win32,58.47953216,7,2,11,,,,,,,,1,09,,,,,,,,,,,,,2,0.308,0,,,,,,-0.134114583,-0.251302083,1,0,0,0.3075,Basalt_rect,10,0,10,0,1,
65e1e69cc010f4b4a1ef32e6,SCR,2024-06-25_19h14.20.082,LearnStrategy,2023.2.3,Win32,58.47953216,7,2,12,,,,,,,,6,09,,,,,,,,,,,,,7,0.299,0,,,,,,0.10546875,-0.389322917,1,0,0,0.2994,Peridotite_rect,11,0,11,0,1,
65e1e69cc010f4b4a1ef32e6,SCR,2024-06-25_19h14.20.082,LearnStrategy,2023.2.3,Win32,58.47953216,7,2,13,,,,,,,,7,16,,,,,,,,,,,,,3,0.244,0,,,,,,0.098958333,-0.25390625,1,0,0,0.2441,Diorite_rect,12,0,12,0,1,
65e1e69cc010f4b4a1ef32e6,SCR,2024-06-25_19h14.20.082,LearnStrategy,2023.2.3,Win32,58.47953216,7,2,14,,,,,,,,4,13,,,,,,,,,,,,,2,0.251,0,,,,,,-0.12890625,-0.259114583,1,0,0,0.2509,Basalt_rect,13,0,13,0,1,
65e1e69cc010f4b4a1ef32e6,SCR,2024-06-25_19h14.20.082,LearnStrategy,2023.2.3,Win32,58.47953216,7,2,15,,,,,,,,2,09,,,,,,,,,,,,,6,0.21,0,,,,,,-0.130208333,-0.401041667,1,0,0,0.2099,Pegmatite_rect,14,0,14,0,1,
65e1e69cc010f4b4a1ef32e6,SCR,2024-06-25_19h14.20.082,LearnStrategy,2023.2.3,Win32,58.47953216,7,2,16,,,,,,,,5,05,,,,,,,,,,,,,3,0.194,0,,,,,,0.083333333,-0.260416667,1,0,0,0.1937,Diorite_rect,15,0,15,0,1,
65e1e69cc010f4b4a1ef32e6,SCR,2024-06-25_19h14.20.082,LearnStrategy,2023.2.3,Win32,58.47953216,8,1,1,0.063802083,-0.080729167,1,0,0,0.5771,Diorite_09,3,09,3,5,0.577,2,01,-0.1171875,-0.2578125,1,0,0,0.6817,Basalt_rect,2,0.682,0,0,0,0,0,1,,,,,,,,,,,,,
65e1e69cc010f4b4a1ef32e6,SCR,2024-06-25_19h14.20.082,LearnStrategy,2023.2.3,Win32,58.47953216,8,1,2,0.087239583,-0.131510417,1,0,0,0.701,Diorite_09,3,09,3,5,0.701,7,05,0.11328125,-0.236979167,1,0,0,0.7794,Diorite_rect,3,0.779,1,1,0,1,0,1,,,,,,,,,,,,,
65e1e69cc010f4b4a1ef32e6,SCR,2024-06-25_19h14.20.082,LearnStrategy,2023.2.3,Win32,58.47953216,8,1,3,0.115885417,0.106770833,1,0,0,0.3971,Andesite_11,1,11,4,5,0.397,5,10,0.08984375,-0.247395833,1,0,0,0.6478,Diorite_rect,3,0.648,0,2,0,2,0,1,,,,,,,,,,,,,
65e1e69cc010f4b4a1ef32e6,SCR,2024-06-25_19h14.20.082,LearnStrategy,2023.2.3,Win32,58.47953216,8,1,4,0.065104167,0.216145833,1,0,0,0.7383,Obsidian_08,5,08,5,5,0.738,4,01,-0.09765625,-0.243489583,1,0,0,0.663,Basalt_rect,2,0.663,0,3,0,3,0,1,,,,,,,,,,,,,
65e1e69cc010f4b4a1ef32e6,SCR,2024-06-25_19h14.20.082,LearnStrategy,2023.2.3,Win32,58.47953216,8,1,5,-0.114583333,0.065104167,1,0,0,0.6273,Basalt_11,2,11,4,4,0.627,5,12,-0.075520833,-0.26953125,1,0,0,0.5942,Basalt_rect,2,0.594,1,4,0,4,0,1,,,,,,,,,,,,,
65e1e69cc010f4b4a1ef32e6,SCR,2024-06-25_19h14.20.082,LearnStrategy,2023.2.3,Win32,58.47953216,8,1,6,-0.22265625,0.278645833,1,0,0,0.9047,Pegmatite_12,6,12,5,3,0.905,8,05,-0.083333333,-0.234375,1,0,0,0.7299,Basalt_rect,2,0.73,0,5,0,5,0,1,,,,,,,,,,,,,
65e1e69cc010f4b4a1ef32e6,SCR,2024-06-25_19h14.20.082,LearnStrategy,2023.2.3,Win32,58.47953216,8,1,7,0.110677083,0.106770833,1,0,0,0.9307,Andesite_11,1,11,4,5,0.931,7,13,0.165364583,-0.252604167,1,0,0,1.2882,Diorite_rect,3,1.288,0,6,0,6,0,1,,,,,,,,,,,,,
65e1e69cc010f4b4a1ef32e6,SCR,2024-06-25_19h14.20.082,LearnStrategy,2023.2.3,Win32,58.47953216,8,1,8,-0.09765625,0.1328125,1,0,0,0.6036,Basalt_11,2,11,4,4,0.604,1,03,-0.102864583,-0.247395833,1,0,0,0.979,Basalt_rect,2,0.979,1,7,0,7,0,1,,,,,,,,,,,,,
65e1e69cc010f4b4a1ef32e6,SCR,2024-06-25_19h14.20.082,LearnStrategy,2023.2.3,Win32,58.47953216,8,1,9,0.091145833,0.111979167,1,0,0,0.6736,Andesite_11,1,11,4,5,0.674,2,04,0.361979167,-0.2421875,1,0,0,0.9371,Gabbro_rect,4,0.937,0,8,0,8,0,1,,,,,,,,,,,,,
65e1e69cc010f4b4a1ef32e6,SCR,2024-06-25_19h14.20.082,LearnStrategy,2023.2.3,Win32,58.47953216,8,1,10,-0.119791667,0.106770833,1,0,0,0.5111,Basalt_11,2,11,4,4,0.511,3,13,-0.165364583,-0.235677083,1,0,0,0.9996,Basalt_rect,2,1,1,9,0,9,0,1,,,,,,,,,,,,,
65e1e69cc010f4b4a1ef32e6,SCR,2024-06-25_19h14.20.082,LearnStrategy,2023.2.3,Win32,58.47953216,8,1,11,-0.06640625,0.091145833,1,0,0,0.9248,Basalt_11,2,11,4,4,0.925,6,10,-0.045572917,-0.229166667,1,0,0,0.7888,Basalt_rect,2,0.789,1,10,0,10,0,1,,,,,,,,,,,,,
65e1e69cc010f4b4a1ef32e6,SCR,2024-06-25_19h14.20.082,LearnStrategy,2023.2.3,Win32,58.47953216,8,1,12,0.0859375,0.071614583,1,0,0,0.8174,Andesite_11,1,11,4,5,0.817,3,10,0.384114583,-0.25,1,0,0,1.1397,Gabbro_rect,4,1.14,0,11,0,11,0,1,,,,,,,,,,,,,
65e1e69cc010f4b4a1ef32e6,SCR,2024-06-25_19h14.20.082,LearnStrategy,2023.2.3,Win32,58.47953216,8,1,13,-0.05078125,0.10546875,1,0,0,0.5127,Basalt_11,2,11,4,4,0.513,8,10,-0.079427083,-0.270833333,1,0,0,1.2088,Basalt_rect,2,1.209,1,12,0,12,0,1,,,,,,,,,,,,,
65e1e69cc010f4b4a1ef32e6,SCR,2024-06-25_19h14.20.082,LearnStrategy,2023.2.3,Win32,58.47953216,8,1,14,-0.08984375,0.1015625,1,0,0,0.7737,Basalt_11,2,11,4,4,0.774,6,13,0.341145833,-0.259114583,1,0,0,0.8804,Gabbro_rect,4,0.88,0,13,0,13,0,1,,,,,,,,,,,,,
65e1e69cc010f4b4a1ef32e6,SCR,2024-06-25_19h14.20.082,LearnStrategy,2023.2.3,Win32,58.47953216,8,1,15,0.213541667,0.12890625,1,0,0,0.6275,Gabbro_05,4,05,4,6,0.628,4,14,0.091145833,-0.25,1,0,0,0.6078,Diorite_rect,3,0.608,0,14,0,14,0,1,,,,,,,,,,,,,
65e1e69cc010f4b4a1ef32e6,SCR,2024-06-25_19h14.20.082,LearnStrategy,2023.2.3,Win32,58.47953216,8,1,16,-0.0703125,0.098958333,1,0,0,1.0412,Basalt_11,2,11,4,4,1.041,1,10,-0.10546875,-0.25,1,0,0,0.6503,Basalt_rect,2,0.65,1,15,0,15,0,1,,,,,,,,,,,,,
65e1e69cc010f4b4a1ef32e6,SCR,2024-06-25_19h14.20.082,LearnStrategy,2023.2.3,Win32,58.47953216,8,2,1,,,,,,,,3,07,,,,,,,,,,,,,3,1.155,1,,,,,,0.122395833,-0.240885417,1,0,0,1.1546,Diorite_rect,0,0,0,0,1,
65e1e69cc010f4b4a1ef32e6,SCR,2024-06-25_19h14.20.082,LearnStrategy,2023.2.3,Win32,58.47953216,8,2,2,,,,,,,,1,06,,,,,,,,,,,,,1,16.397,1,,,,,,-0.364583333,-0.25,1,0,0,16.3973,Andesite_rect,1,0,1,0,1,
65e1e69cc010f4b4a1ef32e6,SCR,2024-06-25_19h14.20.082,LearnStrategy,2023.2.3,Win32,58.47953216,8,2,3,,,,,,,,5,11,,,,,,,,,,,,,3,0.983,0,,,,,,0.180989583,-0.263020833,1,0,0,0.9828,Diorite_rect,2,0,2,0,1,
65e1e69cc010f4b4a1ef32e6,SCR,2024-06-25_19h14.20.082,LearnStrategy,2023.2.3,Win32,58.47953216,8,2,4,,,,,,,,8,08,,,,,,,,,,,,,6,0.552,0,,,,,,-0.108072917,-0.40625,1,0,0,0.5524,Pegmatite_rect,3,0,3,0,1,
65e1e69cc010f4b4a1ef32e6,SCR,2024-06-25_19h14.20.082,LearnStrategy,2023.2.3,Win32,58.47953216,8,2,5,,,,,,,,4,12,,,,,,,,,,,,,2,0.274,0,,,,,,-0.114583333,-0.240885417,1,0,0,0.2742,Basalt_rect,4,0,4,0,1,
65e1e69cc010f4b4a1ef32e6,SCR,2024-06-25_19h14.20.082,LearnStrategy,2023.2.3,Win32,58.47953216,8,2,6,,,,,,,,7,02,,,,,,,,,,,,,3,0.244,0,,,,,,0.084635417,-0.23828125,1,0,0,0.2444,Diorite_rect,5,0,5,0,1,
65e1e69cc010f4b4a1ef32e6,SCR,2024-06-25_19h14.20.082,LearnStrategy,2023.2.3,Win32,58.47953216,8,2,7,,,,,,,,3,15,,,,,,,,,,,,,7,0.338,0,,,,,,0.139322917,-0.416666667,1,0,0,0.3379,Peridotite_rect,6,0,6,0,1,
65e1e69cc010f4b4a1ef32e6,SCR,2024-06-25_19h14.20.082,LearnStrategy,2023.2.3,Win32,58.47953216,8,2,8,,,,,,,,2,12,,,,,,,,,,,,,4,0.567,0,,,,,,0.352864583,-0.255208333,1,0,0,0.5673,Gabbro_rect,7,0,7,0,1,
65e1e69cc010f4b4a1ef32e6,SCR,2024-06-25_19h14.20.082,LearnStrategy,2023.2.3,Win32,58.47953216,8,2,9,,,,,,,,4,15,,,,,,,,,,,,,3,0.271,0,,,,,,0.174479167,-0.256510417,1,0,0,0.2714,Diorite_rect,8,0,8,0,1,
65e1e69cc010f4b4a1ef32e6,SCR,2024-06-25_19h14.20.082,LearnStrategy,2023.2.3,Win32,58.47953216,8,2,10,,,,,,,,6,16,,,,,,,,,,,,,2,0.216,0,,,,,,-0.076822917,-0.259114583,1,0,0,0.2161,Basalt_rect,9,0,9,0,1,
65e1e69cc010f4b4a1ef32e6,SCR,2024-06-25_19h14.20.082,LearnStrategy,2023.2.3,Win32,58.47953216,8,2,11,,,,,,,,5,07,,,,,,,,,,,,,1,0.122,0,,,,,,-0.376302083,-0.263020833,1,0,0,0.1218,Andesite_rect,10,0,10,0,1,
65e1e69cc010f4b4a1ef32e6,SCR,2024-06-25_19h14.20.082,LearnStrategy,2023.2.3,Win32,58.47953216,8,2,12,,,,,,,,7,07,,,,,,,,,,,,,5,0.132,0,,,,,,-0.37890625,-0.40625,1,0,0,0.1319,Obsidian_rect,11,0,11,0,1,
65e1e69cc010f4b4a1ef32e6,SCR,2024-06-25_19h14.20.082,LearnStrategy,2023.2.3,Win32,58.47953216,8,2,13,,,,,,,,8,16,,,,,,,,,,,,,6,0.325,0,,,,,,-0.1484375,-0.388020833,1,0,0,0.3249,Pegmatite_rect,12,0,12,0,1,
65e1e69cc010f4b4a1ef32e6,SCR,2024-06-25_19h14.20.082,LearnStrategy,2023.2.3,Win32,58.47953216,8,2,14,,,,,,,,6,03,,,,,,,,,,,,,2,0.379,0,,,,,,-0.138020833,-0.266927083,1,0,0,0.3787,Basalt_rect,13,0,13,0,1,
65e1e69cc010f4b4a1ef32e6,SCR,2024-06-25_19h14.20.082,LearnStrategy,2023.2.3,Win32,58.47953216,8,2,15,,,,,,,,2,02,,,,,,,,,,,,,7,0.219,0,,,,,,0.158854167,-0.38671875,1,0,0,0.2191,Peridotite_rect,14,0,14,0,1,
65e1e69cc010f4b4a1ef32e6,SCR,2024-06-25_19h14.20.082,LearnStrategy,2023.2.3,Win32,58.47953216,8,2,16,,,,,,,,1,04,,,,,,,,,,,,,3,0.163,0,,,,,,0.12890625,-0.247395833,1,0,0,0.1632,Diorite_rect,15,0,15,0,1,
65e1e69cc010f4b4a1ef32e6,SCR,2024-06-25_19h14.20.082,LearnStrategy,2023.2.3,Win32,58.47953216,9,1,1,-0.0546875,0.0625,1,0,0,0.8537,Basalt_11,2,11,4,4,0.854,1,10,0.078125,-0.266927083,1,0,0,0.6819,Diorite_rect,3,0.682,0,0,0,0,0,1,,,,,,,,,,,,,
65e1e69cc010f4b4a1ef32e6,SCR,2024-06-25_19h14.20.082,LearnStrategy,2023.2.3,Win32,58.47953216,9,1,2,-0.040364583,0.104166667,1,0,0,0.5324,Basalt_11,2,11,4,4,0.532,7,14,-0.067708333,-0.229166667,1,0,0,1.0462,Basalt_rect,2,1.046,1,1,0,1,0,1,,,,,,,,,,,,,
65e1e69cc010f4b4a1ef32e6,SCR,2024-06-25_19h14.20.082,LearnStrategy,2023.2.3,Win32,58.47953216,9,1,3,0.122395833,0.102864583,1,0,0,0.6652,Andesite_11,1,11,4,5,0.665,8,06,0.372395833,-0.239583333,1,0,0,0.8291,Gabbro_rect,4,0.829,0,2,0,2,0,1,,,,,,,,,,,,,
65e1e69cc010f4b4a1ef32e6,SCR,2024-06-25_19h14.20.082,LearnStrategy,2023.2.3,Win32,58.47953216,9,1,4,0.05859375,0.12109375,1,0,0,0.4952,Andesite_11,1,11,4,5,0.495,4,14,0.044270833,-0.403645833,1,0,0,0.6308,Peridotite_rect,7,0.631,0,3,0,3,0,1,,,,,,,,,,,,,
65e1e69cc010f4b4a1ef32e6,SCR,2024-06-25_19h14.20.082,LearnStrategy,2023.2.3,Win32,58.47953216,9,1,5,0.083333333,0.106770833,1,0,0,0.5301,Andesite_11,1,11,4,5,0.53,2,05,-0.104166667,-0.403645833,1,0,0,1.3341,Pegmatite_rect,6,1.334,0,4,0,4,0,1,,,,,,,,,,,,,
65e1e69cc010f4b4a1ef32e6,SCR,2024-06-25_19h14.20.082,LearnStrategy,2023.2.3,Win32,58.47953216,9,1,6,0.110677083,0.125,1,0,0,1.0887,Andesite_11,1,11,4,5,1.089,7,04,-0.381510417,-0.234375,1,0,0,0.8044,Andesite_rect,1,0.804,1,5,0,5,0,1,,,,,,,,,,,,,
65e1e69cc010f4b4a1ef32e6,SCR,2024-06-25_19h14.20.082,LearnStrategy,2023.2.3,Win32,58.47953216,9,1,7,0.09765625,0.075520833,1,0,0,0.6802,Andesite_11,1,11,4,5,0.68,3,13,0.10546875,-0.268229167,1,0,0,0.7968,Diorite_rect,3,0.797,0,6,0,6,0,1,,,,,,,,,,,,,
65e1e69cc010f4b4a1ef32e6,SCR,2024-06-25_19h14.20.082,LearnStrategy,2023.2.3,Win32,58.47953216,9,1,8,0.388020833,-0.098958333,1,0,0,0.8607,Andesite_05,1,05,3,7,0.861,6,10,0.337239583,-0.24609375,1,0,0,0.675,Gabbro_rect,4,0.675,0,7,0,7,0,1,,,,,,,,,,,,,
65e1e69cc010f4b4a1ef32e6,SCR,2024-06-25_19h14.20.082,LearnStrategy,2023.2.3,Win32,58.47953216,9,1,9,0.040364583,-0.240885417,1,0,0,0.6574,Pumice_05,8,05,2,5,0.657,8,14,0.08203125,-0.401041667,1,0,0,0.5952,Peridotite_rect,7,0.595,0,8,0,8,0,1,,,,,,,,,,,,,
65e1e69cc010f4b4a1ef32e6,SCR,2024-06-25_19h14.20.082,LearnStrategy,2023.2.3,Win32,58.47953216,9,1,10,-0.096354167,-0.130208333,1,0,0,0.7588,Pumice_14,8,14,3,4,0.759,2,06,0.075520833,-0.240885417,1,0,0,0.887,Diorite_rect,3,0.887,0,9,0,9,0,1,,,,,,,,,,,,,
65e1e69cc010f4b4a1ef32e6,SCR,2024-06-25_19h14.20.082,LearnStrategy,2023.2.3,Win32,58.47953216,9,1,11,-0.248697917,0.44140625,1,0,0,1.005,Obsidian_12,5,12,6,3,1.005,5,06,0.407552083,-0.239583333,1,0,0,1.0007,Gabbro_rect,4,1.001,0,10,0,10,0,1,,,,,,,,,,,,,
65e1e69cc010f4b4a1ef32e6,SCR,2024-06-25_19h14.20.082,LearnStrategy,2023.2.3,Win32,58.47953216,9,1,12,-0.22265625,0.076822917,1,0,0,0.6689,Andesite_10,1,10,4,3,0.669,3,09,-0.15625,-0.255208333,1,0,0,0.885,Basalt_rect,2,0.885,0,11,0,11,0,1,,,,,,,,,,,,,
65e1e69cc010f4b4a1ef32e6,SCR,2024-06-25_19h14.20.082,LearnStrategy,2023.2.3,Win32,58.47953216,9,1,13,0.106770833,0.227864583,1,0,0,0.7804,Obsidian_08,5,08,5,5,0.78,6,05,0.356770833,-0.268229167,1,0,0,0.6602,Gabbro_rect,4,0.66,0,12,0,12,0,1,,,,,,,,,,,,,
65e1e69cc010f4b4a1ef32e6,SCR,2024-06-25_19h14.20.082,LearnStrategy,2023.2.3,Win32,58.47953216,9,1,14,-0.356770833,0.104166667,1,0,0,1.1752,Gabbro_10,4,10,4,2,1.175,5,08,-0.151041667,-0.25,1,0,0,0.7115,Basalt_rect,2,0.712,0,13,0,13,0,1,,,,,,,,,,,,,
65e1e69cc010f4b4a1ef32e6,SCR,2024-06-25_19h14.20.082,LearnStrategy,2023.2.3,Win32,58.47953216,9,1,15,-0.08203125,0.305989583,1,0,0,0.6566,Pegmatite_08,6,08,5,4,0.657,1,05,0.10546875,-0.256510417,1,0,0,0.9442,Diorite_rect,3,0.944,0,14,0,14,0,1,,,,,,,,,,,,,
65e1e69cc010f4b4a1ef32e6,SCR,2024-06-25_19h14.20.082,LearnStrategy,2023.2.3,Win32,58.47953216,9,1,16,-0.2578125,-0.08203125,1,0,0,0.6283,Diorite_06,3,06,3,3,0.628,4,03,-0.403645833,-0.248697917,1,0,0,0.8995,Andesite_rect,1,0.9,0,15,0,15,0,1,,,,,,,,,,,,,
65e1e69cc010f4b4a1ef32e6,SCR,2024-06-25_19h14.20.082,LearnStrategy,2023.2.3,Win32,58.47953216,9,2,1,,,,,,,,4,11,,,,,,,,,,,,,3,0.713,0,,,,,,0.0234375,-0.2421875,1,0,0,0.7131,Diorite_rect,0,0,0,0,1,
65e1e69cc010f4b4a1ef32e6,SCR,2024-06-25_19h14.20.082,LearnStrategy,2023.2.3,Win32,58.47953216,9,2,2,,,,,,,,3,02,,,,,,,,,,,,,2,1.176,0,,,,,,-0.110677083,-0.26953125,1,0,0,1.176,Basalt_rect,1,0,1,0,1,
65e1e69cc010f4b4a1ef32e6,SCR,2024-06-25_19h14.20.082,LearnStrategy,2023.2.3,Win32,58.47953216,9,2,3,,,,,,,,2,16,,,,,,,,,,,,,2,1.278,1,,,,,,-0.111979167,-0.239583333,1,0,0,1.2784,Basalt_rect,2,0,2,0,1,
65e1e69cc010f4b4a1ef32e6,SCR,2024-06-25_19h14.20.082,LearnStrategy,2023.2.3,Win32,58.47953216,9,2,4,,,,,,,,4,08,,,,,,,,,,,,,3,1.055,0,,,,,,0.118489583,-0.264322917,1,0,0,1.0555,Diorite_rect,3,0,3,0,1,
65e1e69cc010f4b4a1ef32e6,SCR,2024-06-25_19h14.20.082,LearnStrategy,2023.2.3,Win32,58.47953216,9,2,5,,,,,,,,3,08,,,,,,,,,,,,,6,0.477,0,,,,,,-0.08203125,-0.38671875,1,0,0,0.4771,Pegmatite_rect,4,0,4,0,1,
65e1e69cc010f4b4a1ef32e6,SCR,2024-06-25_19h14.20.082,LearnStrategy,2023.2.3,Win32,58.47953216,9,2,6,,,,,,,,8,03,,,,,,,,,,,,,2,0.737,0,,,,,,-0.080729167,-0.260416667,1,0,0,0.7369,Basalt_rect,5,0,5,0,1,
65e1e69cc010f4b4a1ef32e6,SCR,2024-06-25_19h14.20.082,LearnStrategy,2023.2.3,Win32,58.47953216,9,2,7,,,,,,,,7,12,,,,,,,,,,,,,7,0.237,1,,,,,,0.14453125,-0.389322917,1,0,0,0.2366,Peridotite_rect,6,0,6,0,1,
65e1e69cc010f4b4a1ef32e6,SCR,2024-06-25_19h14.20.082,LearnStrategy,2023.2.3,Win32,58.47953216,9,2,8,,,,,,,,5,04,,,,,,,,,,,,,8,0.284,0,,,,,,0.345052083,-0.395833333,1,0,0,0.2837,Pumice_rect,7,0,7,0,1,
65e1e69cc010f4b4a1ef32e6,SCR,2024-06-25_19h14.20.082,LearnStrategy,2023.2.3,Win32,58.47953216,9,2,9,,,,,,,,2,08,,,,,,,,,,,,,4,0.481,0,,,,,,0.3828125,-0.247395833,1,0,0,0.4815,Gabbro_rect,8,0,8,0,1,
65e1e69cc010f4b4a1ef32e6,SCR,2024-06-25_19h14.20.082,LearnStrategy,2023.2.3,Win32,58.47953216,9,2,10,,,,,,,,1,07,,,,,,,,,,,,,3,0.183,0,,,,,,0.139322917,-0.264322917,1,0,0,0.1832,Diorite_rect,9,0,9,0,1,
65e1e69cc010f4b4a1ef32e6,SCR,2024-06-25_19h14.20.082,LearnStrategy,2023.2.3,Win32,58.47953216,9,2,11,,,,,,,,6,11,,,,,,,,,,,,,1,0.336,0,,,,,,-0.333333333,-0.236979167,1,0,0,0.3364,Andesite_rect,10,0,10,0,1,
65e1e69cc010f4b4a1ef32e6,SCR,2024-06-25_19h14.20.082,LearnStrategy,2023.2.3,Win32,58.47953216,9,2,12,,,,,,,,1,01,,,,,,,,,,,,,2,0.243,0,,,,,,-0.221354167,-0.2578125,1,0,0,0.2426,Basalt_rect,11,0,11,0,1,
65e1e69cc010f4b4a1ef32e6,SCR,2024-06-25_19h14.20.082,LearnStrategy,2023.2.3,Win32,58.47953216,9,2,13,,,,,,,,8,09,,,,,,,,,,,,,5,0.245,0,,,,,,-0.34765625,-0.399739583,1,0,0,0.2448,Obsidian_rect,12,0,12,0,1,
65e1e69cc010f4b4a1ef32e6,SCR,2024-06-25_19h14.20.082,LearnStrategy,2023.2.3,Win32,58.47953216,9,2,14,,,,,,,,6,15,,,,,,,,,,,,,6,0.276,1,,,,,,-0.149739583,-0.38671875,1,0,0,0.2756,Pegmatite_rect,13,0,13,0,1,
65e1e69cc010f4b4a1ef32e6,SCR,2024-06-25_19h14.20.082,LearnStrategy,2023.2.3,Win32,58.47953216,9,2,15,,,,,,,,7,06,,,,,,,,,,,,,3,0.564,0,,,,,,0.09375,-0.243489583,1,0,0,0.5639,Diorite_rect,14,0,14,0,1,
65e1e69cc010f4b4a1ef32e6,SCR,2024-06-25_19h14.20.082,LearnStrategy,2023.2.3,Win32,58.47953216,9,2,16,,,,,,,,5,02,,,,,,,,,,,,,4,0.944,0,,,,,,0.330729167,-0.243489583,1,0,0,0.9441,Gabbro_rect,15,0,15,0,1,
65e1e69cc010f4b4a1ef32e6,SCR,2024-06-25_19h14.20.082,LearnStrategy,2023.2.3,Win32,58.47953216,,,,,,,,,,,,,,,,,,,,,,,,,,,,,,,,,,,,,,,,,,,,,0
65e1e69cc010f4b4a1ef32e6,SCR,2024-06-25_19h14.20.082,LearnStrategy,2023.2.3,Win32,58.47953216,,,,,,,,,,,,,,,,,,,,,,,,,,,,,,,,,,,,,,,,,,,,,
65e1e69cc010f4b4a1ef32e6,SCR,2024-06-25_19h14.20.082,LearnStrategy,2023.2.3,Win32,58.47953216,,,,,,,,,,,3,16,1,1,,,,,,,,,,,,,,,,,,,,,,,,,,,,,,,
65e1e69cc010f4b4a1ef32e6,SCR,2024-06-25_19h14.20.082,LearnStrategy,2023.2.3,Win32,58.47953216,,,,,,,,,,,6,07,1,2,,,,,,,,,,,,,,,,,,,,,,,,,,,,,,,
65e1e69cc010f4b4a1ef32e6,SCR,2024-06-25_19h14.20.082,LearnStrategy,2023.2.3,Win32,58.47953216,,,,,,,,,,,6,13,1,3,,,,,,,,,,,,,,,,,,,,,,,,,,,,,,,
65e1e69cc010f4b4a1ef32e6,SCR,2024-06-25_19h14.20.082,LearnStrategy,2023.2.3,Win32,58.47953216,,,,,,,,,,,5,09,1,4,,,,,,,,,,,,,,,,,,,,,,,,,,,,,,,
65e1e69cc010f4b4a1ef32e6,SCR,2024-06-25_19h14.20.082,LearnStrategy,2023.2.3,Win32,58.47953216,,,,,,,,,,,4,03,1,5,,,,,,,,,,,,,,,,,,,,,,,,,,,,,,,
65e1e69cc010f4b4a1ef32e6,SCR,2024-06-25_19h14.20.082,LearnStrategy,2023.2.3,Win32,58.47953216,,,,,,,,,,,6,05,1,6,,,,,,,,,,,,,,,,,,,,,,,,,,,,,,,
65e1e69cc010f4b4a1ef32e6,SCR,2024-06-25_19h14.20.082,LearnStrategy,2023.2.3,Win32,58.47953216,,,,,,,,,,,3,11,1,7,,,,,,,,,,,,,,,,,,,,,,,,,,,,,,,
65e1e69cc010f4b4a1ef32e6,SCR,2024-06-25_19h14.20.082,LearnStrategy,2023.2.3,Win32,58.47953216,,,,,,,,,,,8,13,1,8,,,,,,,,,,,,,,,,,,,,,,,,,,,,,,,
65e1e69cc010f4b4a1ef32e6,SCR,2024-06-25_19h14.20.082,LearnStrategy,2023.2.3,Win32,58.47953216,,,,,,,,,,,2,01,2,1,,,,,,,,,,,,,,,,,,,,,,,,,,,,,,,
65e1e69cc010f4b4a1ef32e6,SCR,2024-06-25_19h14.20.082,LearnStrategy,2023.2.3,Win32,58.47953216,,,,,,,,,,,3,13,2,2,,,,,,,,,,,,,,,,,,,,,,,,,,,,,,,
65e1e69cc010f4b4a1ef32e6,SCR,2024-06-25_19h14.20.082,LearnStrategy,2023.2.3,Win32,58.47953216,,,,,,,,,,,4,01,2,3,,,,,,,,,,,,,,,,,,,,,,,,,,,,,,,
65e1e69cc010f4b4a1ef32e6,SCR,2024-06-25_19h14.20.082,LearnStrategy,2023.2.3,Win32,58.47953216,,,,,,,,,,,8,15,2,4,,,,,,,,,,,,,,,,,,,,,,,,,,,,,,,
65e1e69cc010f4b4a1ef32e6,SCR,2024-06-25_19h14.20.082,LearnStrategy,2023.2.3,Win32,58.47953216,,,,,,,,,,,8,05,2,5,,,,,,,,,,,,,,,,,,,,,,,,,,,,,,,
65e1e69cc010f4b4a1ef32e6,SCR,2024-06-25_19h14.20.082,LearnStrategy,2023.2.3,Win32,58.47953216,,,,,,,,,,,8,10,2,6,,,,,,,,,,,,,,,,,,,,,,,,,,,,,,,
65e1e69cc010f4b4a1ef32e6,SCR,2024-06-25_19h14.20.082,LearnStrategy,2023.2.3,Win32,58.47953216,,,,,,,,,,,1,02,2,7,,,,,,,,,,,,,,,,,,,,,,,,,,,,,,,
65e1e69cc010f4b4a1ef32e6,SCR,2024-06-25_19h14.20.082,LearnStrategy,2023.2.3,Win32,58.47953216,,,,,,,,,,,2,04,2,8,,,,,,,,,,,,,,,,,,,,,,,,,,,,,,,
65e1e69cc010f4b4a1ef32e6,SCR,2024-06-25_19h14.20.082,LearnStrategy,2023.2.3,Win32,58.47953216,,,,,,,,,,,1,03,3,1,,,,,,,,,,,,,,,,,,,,,,,,,,,,,,,
65e1e69cc010f4b4a1ef32e6,SCR,2024-06-25_19h14.20.082,LearnStrategy,2023.2.3,Win32,58.47953216,,,,,,,,,,,7,05,3,2,,,,,,,,,,,,,,,,,,,,,,,,,,,,,,,
65e1e69cc010f4b4a1ef32e6,SCR,2024-06-25_19h14.20.082,LearnStrategy,2023.2.3,Win32,58.47953216,,,,,,,,,,,3,06,3,3,,,,,,,,,,,,,,,,,,,,,,,,,,,,,,,
65e1e69cc010f4b4a1ef32e6,SCR,2024-06-25_19h14.20.082,LearnStrategy,2023.2.3,Win32,58.47953216,,,,,,,,,,,8,14,3,4,,,,,,,,,,,,,,,,,,,,,,,,,,,,,,,
65e1e69cc010f4b4a1ef32e6,SCR,2024-06-25_19h14.20.082,LearnStrategy,2023.2.3,Win32,58.47953216,,,,,,,,,,,3,09,3,5,,,,,,,,,,,,,,,,,,,,,,,,,,,,,,,
65e1e69cc010f4b4a1ef32e6,SCR,2024-06-25_19h14.20.082,LearnStrategy,2023.2.3,Win32,58.47953216,,,,,,,,,,,8,06,3,6,,,,,,,,,,,,,,,,,,,,,,,,,,,,,,,
65e1e69cc010f4b4a1ef32e6,SCR,2024-06-25_19h14.20.082,LearnStrategy,2023.2.3,Win32,58.47953216,,,,,,,,,,,1,05,3,7,,,,,,,,,,,,,,,,,,,,,,,,,,,,,,,
65e1e69cc010f4b4a1ef32e6,SCR,2024-06-25_19h14.20.082,LearnStrategy,2023.2.3,Win32,58.47953216,,,,,,,,,,,1,16,3,8,,,,,,,,,,,,,,,,,,,,,,,,,,,,,,,
65e1e69cc010f4b4a1ef32e6,SCR,2024-06-25_19h14.20.082,LearnStrategy,2023.2.3,Win32,58.47953216,,,,,,,,,,,2,06,4,1,,,,,,,,,,,,,,,,,,,,,,,,,,,,,,,
65e1e69cc010f4b4a1ef32e6,SCR,2024-06-25_19h14.20.082,LearnStrategy,2023.2.3,Win32,58.47953216,,,,,,,,,,,4,10,4,2,,,,,,,,,,,,,,,,,,,,,,,,,,,,,,,
65e1e69cc010f4b4a1ef32e6,SCR,2024-06-25_19h14.20.082,LearnStrategy,2023.2.3,Win32,58.47953216,,,,,,,,,,,1,10,4,3,,,,,,,,,,,,,,,,,,,,,,,,,,,,,,,
65e1e69cc010f4b4a1ef32e6,SCR,2024-06-25_19h14.20.082,LearnStrategy,2023.2.3,Win32,58.47953216,,,,,,,,,,,2,11,4,4,,,,,,,,,,,,,,,,,,,,,,,,,,,,,,,
65e1e69cc010f4b4a1ef32e6,SCR,2024-06-25_19h14.20.082,LearnStrategy,2023.2.3,Win32,58.47953216,,,,,,,,,,,1,11,4,5,,,,,,,,,,,,,,,,,,,,,,,,,,,,,,,
65e1e69cc010f4b4a1ef32e6,SCR,2024-06-25_19h14.20.082,LearnStrategy,2023.2.3,Win32,58.47953216,,,,,,,,,,,4,05,4,6,,,,,,,,,,,,,,,,,,,,,,,,,,,,,,,
65e1e69cc010f4b4a1ef32e6,SCR,2024-06-25_19h14.20.082,LearnStrategy,2023.2.3,Win32,58.47953216,,,,,,,,,,,3,10,4,7,,,,,,,,,,,,,,,,,,,,,,,,,,,,,,,
65e1e69cc010f4b4a1ef32e6,SCR,2024-06-25_19h14.20.082,LearnStrategy,2023.2.3,Win32,58.47953216,,,,,,,,,,,7,14,4,8,,,,,,,,,,,,,,,,,,,,,,,,,,,,,,,
65e1e69cc010f4b4a1ef32e6,SCR,2024-06-25_19h14.20.082,LearnStrategy,2023.2.3,Win32,58.47953216,,,,,,,,,,,6,10,5,1,,,,,,,,,,,,,,,,,,,,,,,,,,,,,,,
65e1e69cc010f4b4a1ef32e6,SCR,2024-06-25_19h14.20.082,LearnStrategy,2023.2.3,Win32,58.47953216,,,,,,,,,,,4,14,5,2,,,,,,,,,,,,,,,,,,,,,,,,,,,,,,,
65e1e69cc010f4b4a1ef32e6,SCR,2024-06-25_19h14.20.082,LearnStrategy,2023.2.3,Win32,58.47953216,,,,,,,,,,,6,12,5,3,,,,,,,,,,,,,,,,,,,,,,,,,,,,,,,
65e1e69cc010f4b4a1ef32e6,SCR,2024-06-25_19h14.20.082,LearnStrategy,2023.2.3,Win32,58.47953216,,,,,,,,,,,6,08,5,4,,,,,,,,,,,,,,,,,,,,,,,,,,,,,,,
65e1e69cc010f4b4a1ef32e6,SCR,2024-06-25_19h14.20.082,LearnStrategy,2023.2.3,Win32,58.47953216,,,,,,,,,,,5,08,5,5,,,,,,,,,,,,,,,,,,,,,,,,,,,,,,,
65e1e69cc010f4b4a1ef32e6,SCR,2024-06-25_19h14.20.082,LearnStrategy,2023.2.3,Win32,58.47953216,,,,,,,,,,,2,14,5,6,,,,,,,,,,,,,,,,,,,,,,,,,,,,,,,
65e1e69cc010f4b4a1ef32e6,SCR,2024-06-25_19h14.20.082,LearnStrategy,2023.2.3,Win32,58.47953216,,,,,,,,,,,5,10,5,7,,,,,,,,,,,,,,,,,,,,,,,,,,,,,,,
65e1e69cc010f4b4a1ef32e6,SCR,2024-06-25_19h14.20.082,LearnStrategy,2023.2.3,Win32,58.47953216,,,,,,,,,,,7,08,5,8,,,,,,,,,,,,,,,,,,,,,,,,,,,,,,,
65e1e69cc010f4b4a1ef32e6,SCR,2024-06-25_19h14.20.082,LearnStrategy,2023.2.3,Win32,58.47953216,,,,,,,,,,,7,04,6,1,,,,,,,,,,,,,,,,,,,,,,,,,,,,,,,
65e1e69cc010f4b4a1ef32e6,SCR,2024-06-25_19h14.20.082,LearnStrategy,2023.2.3,Win32,58.47953216,,,,,,,,,,,7,10,6,2,,,,,,,,,,,,,,,,,,,,,,,,,,,,,,,
65e1e69cc010f4b4a1ef32e6,SCR,2024-06-25_19h14.20.082,LearnStrategy,2023.2.3,Win32,58.47953216,,,,,,,,,,,5,12,6,3,,,,,,,,,,,,,,,,,,,,,,,,,,,,,,,
65e1e69cc010f4b4a1ef32e6,SCR,2024-06-25_19h14.20.082,LearnStrategy,2023.2.3,Win32,58.47953216,,,,,,,,,,,2,05,6,4,,,,,,,,,,,,,,,,,,,,,,,,,,,,,,,
65e1e69cc010f4b4a1ef32e6,SCR,2024-06-25_19h14.20.082,LearnStrategy,2023.2.3,Win32,58.47953216,,,,,,,,,,,5,14,6,5,,,,,,,,,,,,,,,,,,,,,,,,,,,,,,,
65e1e69cc010f4b4a1ef32e6,SCR,2024-06-25_19h14.20.082,LearnStrategy,2023.2.3,Win32,58.47953216,,,,,,,,,,,4,09,6,6,,,,,,,,,,,,,,,,,,,,,,,,,,,,,,,
65e1e69cc010f4b4a1ef32e6,SCR,2024-06-25_19h14.20.082,LearnStrategy,2023.2.3,Win32,58.47953216,,,,,,,,,,,5,06,6,7,,,,,,,,,,,,,,,,,,,,,,,,,,,,,,,
65e1e69cc010f4b4a1ef32e6,SCR,2024-06-25_19h14.20.082,LearnStrategy,2023.2.3,Win32,58.47953216,,,,,,,,,,,7,13,6,8,,,,,,,,,,,,,,,,,,,,,,,,,,,,,,,