participant,condition,date,expName,psychopyVersion,OS,frameRate,block,phase,trial,learn_mouse_2.x,learn_mouse_2.y,learn_mouse_2.leftButton,learn_mouse_2.midButton,learn_mouse_2.rightButton,learn_mouse_2.time,learn_mouse_2.clicked_name,cat,token,row,col,t_select,cat_mouse_l.x,cat_mouse_l.y,cat_mouse_l.leftButton,cat_mouse_l.midButton,cat_mouse_l.rightButton,cat_mouse_l.time,cat_mouse_l.clicked_name,resp,t_resp,corr,train_trials.thisRepN,train_trials.thisTrialN,train_trials.thisN,train_trials.thisIndex,train_trials.ran,cat_mouse_t.x,cat_mouse_t.y,cat_mouse_t.leftButton,cat_mouse_t.midButton,cat_mouse_t.rightButton,cat_mouse_t.time,cat_mouse_t.clicked_name,test_trials.thisRepN,test_trials.thisTrialN,test_trials.thisN,test_trials.thisIndex,test_trials.ran,Bonus
65e1e10fd349a80ffaf53948,TCR,2024-06-24_14h48.06.065,LearnStrategy,2023.2.3,Win32,60.24096386,,,,,,,,,,,,,,,,,,,,,,,,,,,,,,,,,,,,,,,,,,,
65e1e10fd349a80ffaf53948,TCR,2024-06-24_14h48.06.065,LearnStrategy,2023.2.3,Win32,60.24096386,1,1,1,0.005208333,-0.01171875,1,0,0,5.2509,rock_grid_rect_2,5,02,-1,-1,5.251,-0.3984375,-0.404947917,1,0,0,4.9552,Obsidian_rect,5,4.955,1,0,0,0,0,1,,,,,,,,,,,,,
65e1e10fd349a80ffaf53948,TCR,2024-06-24_14h48.06.065,LearnStrategy,2023.2.3,Win32,60.24096386,1,1,2,-0.01953125,0.005208333,1,0,0,1.6589,rock_grid_rect_2,6,05,-1,-1,1.659,-0.1015625,-0.399739583,1,0,0,7.1276,Pegmatite_rect,6,7.128,1,1,0,1,0,1,,,,,,,,,,,,,
65e1e10fd349a80ffaf53948,TCR,2024-06-24_14h48.06.065,LearnStrategy,2023.2.3,Win32,60.24096386,1,1,3,0.036458333,-0.009114583,1,0,0,1.9861,rock_grid_rect_2,8,05,-1,-1,1.986,0.415364583,-0.4140625,1,0,0,2.1787,Pumice_rect,8,2.179,1,2,0,2,0,1,,,,,,,,,,,,,
65e1e10fd349a80ffaf53948,TCR,2024-06-24_14h48.06.065,LearnStrategy,2023.2.3,Win32,60.24096386,1,1,4,-0.06640625,0.013020833,1,0,0,1.9272,rock_grid_rect_2,7,14,-1,-1,1.927,-0.1953125,-0.24609375,1,0,0,6.6273,Basalt_rect,2,6.627,0,3,0,3,0,1,,,,,,,,,,,,,
65e1e10fd349a80ffaf53948,TCR,2024-06-24_14h48.06.065,LearnStrategy,2023.2.3,Win32,60.24096386,1,1,5,0.024739583,0.020833333,1,0,0,2.0435,rock_grid_rect_2,2,12,-1,-1,2.043,0.401041667,-0.411458333,1,0,0,7.1708,Pumice_rect,8,7.171,0,4,0,4,0,1,,,,,,,,,,,,,
65e1e10fd349a80ffaf53948,TCR,2024-06-24_14h48.06.065,LearnStrategy,2023.2.3,Win32,60.24096386,1,1,6,-0.045572917,0.001302083,1,0,0,1.4405,rock_grid_rect_2,6,09,-1,-1,1.441,0.1015625,-0.266927083,1,0,0,4.5334,Diorite_rect,3,4.533,0,5,0,5,0,1,,,,,,,,,,,,,
65e1e10fd349a80ffaf53948,TCR,2024-06-24_14h48.06.065,LearnStrategy,2023.2.3,Win32,60.24096386,1,1,7,0.049479167,-0.00390625,1,0,0,1.8369,rock_grid_rect_2,3,12,-1,-1,1.837,-0.35546875,-0.25,1,0,0,4.0676,Andesite_rect,1,4.068,0,6,0,6,0,1,,,,,,,,,,,,,
65e1e10fd349a80ffaf53948,TCR,2024-06-24_14h48.06.065,LearnStrategy,2023.2.3,Win32,60.24096386,1,1,8,-0.018229167,-0.0078125,1,0,0,1.7109,rock_grid_rect_2,1,01,-1,-1,1.711,0.424479167,-0.24609375,1,0,0,2.9031,Gabbro_rect,4,2.903,0,7,0,7,0,1,,,,,,,,,,,,,
65e1e10fd349a80ffaf53948,TCR,2024-06-24_14h48.06.065,LearnStrategy,2023.2.3,Win32,60.24096386,1,1,9,0.01171875,-0.013020833,1,0,0,1.4779,rock_grid_rect_2,7,15,-1,-1,1.478,0.302083333,-0.244791667,1,0,0,2.8457,Gabbro_rect,4,2.846,0,8,0,8,0,1,,,,,,,,,,,,,
65e1e10fd349a80ffaf53948,TCR,2024-06-24_14h48.06.065,LearnStrategy,2023.2.3,Win32,60.24096386,1,1,10,-0.02734375,-0.00390625,1,0,0,1.7101,rock_grid_rect_2,1,05,-1,-1,1.71,-0.1484375,-0.416666667,1,0,0,7.4183,Pegmatite_rect,6,7.418,0,9,0,9,0,1,,,,,,,,,,,,,
65e1e10fd349a80ffaf53948,TCR,2024-06-24_14h48.06.065,LearnStrategy,2023.2.3,Win32,60.24096386,1,1,11,-0.1015625,0.016927083,1,0,0,1.571,rock_grid_rect_2,4,12,-1,-1,1.571,0.328125,-0.23828125,1,0,0,6.0085,Gabbro_rect,4,6.009,1,10,0,10,0,1,,,,,,,,,,,,,
65e1e10fd349a80ffaf53948,TCR,2024-06-24_14h48.06.065,LearnStrategy,2023.2.3,Win32,60.24096386,1,1,12,0.001302083,0,1,0,0,1.6759,rock_grid_rect_2,4,05,-1,-1,1.676,-0.4296875,-0.23828125,1,0,0,3.45,Andesite_rect,1,3.45,0,11,0,11,0,1,,,,,,,,,,,,,
65e1e10fd349a80ffaf53948,TCR,2024-06-24_14h48.06.065,LearnStrategy,2023.2.3,Win32,60.24096386,1,1,13,0.072916667,-0.014322917,1,0,0,1.9602,rock_grid_rect_2,3,11,-1,-1,1.96,0.20703125,-0.390625,1,0,0,3.5142,Peridotite_rect,7,3.514,0,12,0,12,0,1,,,,,,,,,,,,,
65e1e10fd349a80ffaf53948,TCR,2024-06-24_14h48.06.065,LearnStrategy,2023.2.3,Win32,60.24096386,1,1,14,0.125,0.002604167,1,0,0,1.6871,rock_grid_rect_2,8,03,-1,-1,1.687,0.373697917,-0.40625,1,0,0,2.4251,Pumice_rect,8,2.425,1,13,0,13,0,1,,,,,,,,,,,,,
65e1e10fd349a80ffaf53948,TCR,2024-06-24_14h48.06.065,LearnStrategy,2023.2.3,Win32,60.24096386,1,1,15,-0.046875,0.002604167,1,0,0,1.4037,rock_grid_rect_2,5,06,-1,-1,1.404,-0.399739583,-0.411458333,1,0,0,1.7843,Obsidian_rect,5,1.784,1,14,0,14,0,1,,,,,,,,,,,,,
65e1e10fd349a80ffaf53948,TCR,2024-06-24_14h48.06.065,LearnStrategy,2023.2.3,Win32,60.24096386,1,1,16,0.063802083,0.010416667,1,0,0,1.3111,rock_grid_rect_2,2,06,-1,-1,1.311,-0.369791667,-0.399739583,1,0,0,2.5543,Obsidian_rect,5,2.554,0,15,0,15,0,1,,,,,,,,,,,,,
65e1e10fd349a80ffaf53948,TCR,2024-06-24_14h48.06.065,LearnStrategy,2023.2.3,Win32,60.24096386,1,2,1,,,,,,,,1,10,,,,,,,,,,,3,34.384,0,,,,,,0.205729167,-0.251302083,1,0,0,34.384,Diorite_rect,0,0,0,0,1,
65e1e10fd349a80ffaf53948,TCR,2024-06-24_14h48.06.065,LearnStrategy,2023.2.3,Win32,60.24096386,1,2,2,,,,,,,,6,12,,,,,,,,,,,6,9.177,1,,,,,,-0.08203125,-0.395833333,1,0,0,9.1773,Pegmatite_rect,1,0,1,0,1,
65e1e10fd349a80ffaf53948,TCR,2024-06-24_14h48.06.065,LearnStrategy,2023.2.3,Win32,60.24096386,1,2,3,,,,,,,,2,14,,,,,,,,,,,2,10.839,1,,,,,,-0.114583333,-0.239583333,1,0,0,10.8391,Basalt_rect,2,0,2,0,1,
65e1e10fd349a80ffaf53948,TCR,2024-06-24_14h48.06.065,LearnStrategy,2023.2.3,Win32,60.24096386,1,2,4,,,,,,,,1,11,,,,,,,,,,,6,8.802,0,,,,,,-0.11328125,-0.39453125,1,0,0,8.8016,Pegmatite_rect,3,0,3,0,1,
65e1e10fd349a80ffaf53948,TCR,2024-06-24_14h48.06.065,LearnStrategy,2023.2.3,Win32,60.24096386,1,2,5,,,,,,,,5,07,,,,,,,,,,,5,6.318,1,,,,,,-0.3984375,-0.415364583,1,0,0,6.3181,Obsidian_rect,4,0,4,0,1,
65e1e10fd349a80ffaf53948,TCR,2024-06-24_14h48.06.065,LearnStrategy,2023.2.3,Win32,60.24096386,1,2,6,,,,,,,,6,06,,,,,,,,,,,6,70.14,1,,,,,,-0.106770833,-0.407552083,1,0,0,70.1395,Pegmatite_rect,5,0,5,0,1,
65e1e10fd349a80ffaf53948,TCR,2024-06-24_14h48.06.065,LearnStrategy,2023.2.3,Win32,60.24096386,1,2,7,,,,,,,,7,13,,,,,,,,,,,7,2.548,1,,,,,,0.173177083,-0.401041667,1,0,0,2.5476,Peridotite_rect,6,0,6,0,1,
65e1e10fd349a80ffaf53948,TCR,2024-06-24_14h48.06.065,LearnStrategy,2023.2.3,Win32,60.24096386,1,2,8,,,,,,,,5,16,,,,,,,,,,,5,1.839,1,,,,,,-0.453125,-0.39453125,1,0,0,1.8394,Obsidian_rect,7,0,7,0,1,
65e1e10fd349a80ffaf53948,TCR,2024-06-24_14h48.06.065,LearnStrategy,2023.2.3,Win32,60.24096386,1,2,9,,,,,,,,4,09,,,,,,,,,,,2,4.619,0,,,,,,-0.158854167,-0.244791667,1,0,0,4.619,Basalt_rect,8,0,8,0,1,
65e1e10fd349a80ffaf53948,TCR,2024-06-24_14h48.06.065,LearnStrategy,2023.2.3,Win32,60.24096386,1,2,10,,,,,,,,3,06,,,,,,,,,,,3,12.916,1,,,,,,0.104166667,-0.25,1,0,0,12.9163,Diorite_rect,9,0,9,0,1,
65e1e10fd349a80ffaf53948,TCR,2024-06-24_14h48.06.065,LearnStrategy,2023.2.3,Win32,60.24096386,1,2,11,,,,,,,,7,10,,,,,,,,,,,7,2.277,1,,,,,,0.126302083,-0.40625,1,0,0,2.2772,Peridotite_rect,10,0,10,0,1,
65e1e10fd349a80ffaf53948,TCR,2024-06-24_14h48.06.065,LearnStrategy,2023.2.3,Win32,60.24096386,1,2,12,,,,,,,,3,15,,,,,,,,,,,3,5.475,1,,,,,,0.145833333,-0.24609375,1,0,0,5.4749,Diorite_rect,11,0,11,0,1,
65e1e10fd349a80ffaf53948,TCR,2024-06-24_14h48.06.065,LearnStrategy,2023.2.3,Win32,60.24096386,1,2,13,,,,,,,,2,10,,,,,,,,,,,1,25.473,0,,,,,,-0.373697917,-0.26171875,1,0,0,25.473,Andesite_rect,12,0,12,0,1,
65e1e10fd349a80ffaf53948,TCR,2024-06-24_14h48.06.065,LearnStrategy,2023.2.3,Win32,60.24096386,1,2,14,,,,,,,,4,03,,,,,,,,,,,4,12.582,1,,,,,,0.369791667,-0.256510417,1,0,0,12.5823,Gabbro_rect,13,0,13,0,1,
65e1e10fd349a80ffaf53948,TCR,2024-06-24_14h48.06.065,LearnStrategy,2023.2.3,Win32,60.24096386,1,2,15,,,,,,,,8,08,,,,,,,,,,,8,1.78,1,,,,,,0.401041667,-0.40234375,1,0,0,1.7804,Pumice_rect,14,0,14,0,1,
65e1e10fd349a80ffaf53948,TCR,2024-06-24_14h48.06.065,LearnStrategy,2023.2.3,Win32,60.24096386,1,2,16,,,,,,,,8,09,,,,,,,,,,,8,1.894,1,,,,,,0.401041667,-0.40234375,1,0,0,1.8942,Pumice_rect,15,0,15,0,1,
65e1e10fd349a80ffaf53948,TCR,2024-06-24_14h48.06.065,LearnStrategy,2023.2.3,Win32,60.24096386,2,1,1,0.037760417,-0.016927083,1,0,0,3.4055,rock_grid_rect_2,4,11,-1,-1,3.405,0.473958333,-0.25390625,1,0,0,1.8781,Gabbro_rect,4,1.878,1,0,0,0,0,1,,,,,,,,,,,,,
65e1e10fd349a80ffaf53948,TCR,2024-06-24_14h48.06.065,LearnStrategy,2023.2.3,Win32,60.24096386,2,1,2,0.024739583,-0.005208333,1,0,0,1.7435,rock_grid_rect_2,5,14,-1,-1,1.743,-0.373697917,-0.385416667,1,0,0,1.6646,Obsidian_rect,5,1.665,1,1,0,1,0,1,,,,,,,,,,,,,
65e1e10fd349a80ffaf53948,TCR,2024-06-24_14h48.06.065,LearnStrategy,2023.2.3,Win32,60.24096386,2,1,3,0.08984375,0.014322917,1,0,0,1.5707,rock_grid_rect_2,1,02,-1,-1,1.571,0.157552083,-0.247395833,1,0,0,6.2246,Diorite_rect,3,6.225,0,2,0,2,0,1,,,,,,,,,,,,,
65e1e10fd349a80ffaf53948,TCR,2024-06-24_14h48.06.065,LearnStrategy,2023.2.3,Win32,60.24096386,2,1,4,-0.03125,-0.005208333,1,0,0,1.654,rock_grid_rect_2,7,08,-1,-1,1.654,0.069010417,-0.397135417,1,0,0,1.9979,Peridotite_rect,7,1.998,1,3,0,3,0,1,,,,,,,,,,,,,
65e1e10fd349a80ffaf53948,TCR,2024-06-24_14h48.06.065,LearnStrategy,2023.2.3,Win32,60.24096386,2,1,5,-0.033854167,-0.006510417,1,0,0,1.6603,rock_grid_rect_2,2,06,-1,-1,1.66,-0.345052083,-0.240885417,1,0,0,3.4615,Andesite_rect,1,3.462,0,4,0,4,0,1,,,,,,,,,,,,,
65e1e10fd349a80ffaf53948,TCR,2024-06-24_14h48.06.065,LearnStrategy,2023.2.3,Win32,60.24096386,2,1,6,0.055989583,0.005208333,1,0,0,1.4289,rock_grid_rect_2,1,01,-1,-1,1.429,0.1171875,-0.260416667,1,0,0,1.5632,Diorite_rect,3,1.563,0,5,0,5,0,1,,,,,,,,,,,,,
65e1e10fd349a80ffaf53948,TCR,2024-06-24_14h48.06.065,LearnStrategy,2023.2.3,Win32,60.24096386,2,1,7,0.05078125,0.020833333,1,0,0,1.5268,rock_grid_rect_2,2,05,-1,-1,1.527,0.428385417,-0.229166667,1,0,0,1.8883,Gabbro_rect,4,1.888,0,6,0,6,0,1,,,,,,,,,,,,,
65e1e10fd349a80ffaf53948,TCR,2024-06-24_14h48.06.065,LearnStrategy,2023.2.3,Win32,60.24096386,2,1,8,0.016927083,-0.00390625,1,0,0,1.5892,rock_grid_rect_2,4,16,-1,-1,1.589,0.3515625,-0.256510417,1,0,0,4.4126,Gabbro_rect,4,4.413,1,7,0,7,0,1,,,,,,,,,,,,,
65e1e10fd349a80ffaf53948,TCR,2024-06-24_14h48.06.065,LearnStrategy,2023.2.3,Win32,60.24096386,2,1,9,-0.0859375,-0.002604167,1,0,0,1.6934,rock_grid_rect_2,1,01,-1,-1,1.693,-0.352864583,-0.234375,1,0,0,1.8475,Andesite_rect,1,1.847,1,8,0,8,0,1,,,,,,,,,,,,,
65e1e10fd349a80ffaf53948,TCR,2024-06-24_14h48.06.065,LearnStrategy,2023.2.3,Win32,60.24096386,2,1,10,0.01171875,-0.01171875,1,0,0,1.6103,rock_grid_rect_2,2,12,-1,-1,1.61,0.385416667,-0.380208333,1,0,0,1.697,Pumice_rect,8,1.697,0,9,0,9,0,1,,,,,,,,,,,,,
65e1e10fd349a80ffaf53948,TCR,2024-06-24_14h48.06.065,LearnStrategy,2023.2.3,Win32,60.24096386,2,1,11,-0.118489583,-0.00390625,1,0,0,1.5032,rock_grid_rect_2,1,02,-1,-1,1.503,-0.412760417,-0.259114583,1,0,0,2.9657,Andesite_rect,1,2.966,1,10,0,10,0,1,,,,,,,,,,,,,
65e1e10fd349a80ffaf53948,TCR,2024-06-24_14h48.06.065,LearnStrategy,2023.2.3,Win32,60.24096386,2,1,12,0.07421875,0.010416667,1,0,0,1.2893,rock_grid_rect_2,3,08,-1,-1,1.289,0.127604167,-0.25390625,1,0,0,1.643,Diorite_rect,3,1.643,1,11,0,11,0,1,,,,,,,,,,,,,
65e1e10fd349a80ffaf53948,TCR,2024-06-24_14h48.06.065,LearnStrategy,2023.2.3,Win32,60.24096386,2,1,13,0.002604167,0.005208333,1,0,0,1.611,rock_grid_rect_2,6,15,-1,-1,1.611,-0.130208333,-0.403645833,1,0,0,3.0549,Pegmatite_rect,6,3.055,1,12,0,12,0,1,,,,,,,,,,,,,
65e1e10fd349a80ffaf53948,TCR,2024-06-24_14h48.06.065,LearnStrategy,2023.2.3,Win32,60.24096386,2,1,14,-0.01171875,-0.005208333,1,0,0,1.377,rock_grid_rect_2,1,09,-1,-1,1.377,-0.173177083,-0.26171875,1,0,0,4.0106,Basalt_rect,2,4.011,0,13,0,13,0,1,,,,,,,,,,,,,
65e1e10fd349a80ffaf53948,TCR,2024-06-24_14h48.06.065,LearnStrategy,2023.2.3,Win32,60.24096386,2,1,15,-0.065104167,0.020833333,1,0,0,1.303,rock_grid_rect_2,1,05,-1,-1,1.303,0.096354167,-0.248697917,1,0,0,5.8669,Diorite_rect,3,5.867,0,14,0,14,0,1,,,,,,,,,,,,,
65e1e10fd349a80ffaf53948,TCR,2024-06-24_14h48.06.065,LearnStrategy,2023.2.3,Win32,60.24096386,2,1,16,0.002604167,-0.001302083,1,0,0,1.2046,rock_grid_rect_2,4,16,-1,-1,1.205,0.40625,-0.244791667,1,0,0,1.5221,Gabbro_rect,4,1.522,1,15,0,15,0,1,,,,,,,,,,,,,
65e1e10fd349a80ffaf53948,TCR,2024-06-24_14h48.06.065,LearnStrategy,2023.2.3,Win32,60.24096386,2,2,1,,,,,,,,6,10,,,,,,,,,,,7,1.881,0,,,,,,0.141927083,-0.41015625,1,0,0,1.8806,Peridotite_rect,0,0,0,0,1,
65e1e10fd349a80ffaf53948,TCR,2024-06-24_14h48.06.065,LearnStrategy,2023.2.3,Win32,60.24096386,2,2,2,,,,,,,,8,13,,,,,,,,,,,2,3.868,0,,,,,,-0.1484375,-0.2421875,1,0,0,3.8679,Basalt_rect,1,0,1,0,1,
65e1e10fd349a80ffaf53948,TCR,2024-06-24_14h48.06.065,LearnStrategy,2023.2.3,Win32,60.24096386,2,2,3,,,,,,,,4,13,,,,,,,,,,,1,2.645,0,,,,,,-0.45703125,-0.23046875,1,0,0,2.6447,Andesite_rect,2,0,2,0,1,
65e1e10fd349a80ffaf53948,TCR,2024-06-24_14h48.06.065,LearnStrategy,2023.2.3,Win32,60.24096386,2,2,4,,,,,,,,7,07,,,,,,,,,,,7,2.348,1,,,,,,0.138020833,-0.401041667,1,0,0,2.3481,Peridotite_rect,3,0,3,0,1,
65e1e10fd349a80ffaf53948,TCR,2024-06-24_14h48.06.065,LearnStrategy,2023.2.3,Win32,60.24096386,2,2,5,,,,,,,,3,14,,,,,,,,,,,3,2.737,1,,,,,,0.122395833,-0.239583333,1,0,0,2.737,Diorite_rect,4,0,4,0,1,
65e1e10fd349a80ffaf53948,TCR,2024-06-24_14h48.06.065,LearnStrategy,2023.2.3,Win32,60.24096386,2,2,6,,,,,,,,5,08,,,,,,,,,,,5,1.748,1,,,,,,-0.346354167,-0.391927083,1,0,0,1.7481,Obsidian_rect,5,0,5,0,1,
65e1e10fd349a80ffaf53948,TCR,2024-06-24_14h48.06.065,LearnStrategy,2023.2.3,Win32,60.24096386,2,2,7,,,,,,,,5,04,,,,,,,,,,,5,1.683,1,,,,,,-0.4140625,-0.39453125,1,0,0,1.6827,Obsidian_rect,6,0,6,0,1,
65e1e10fd349a80ffaf53948,TCR,2024-06-24_14h48.06.065,LearnStrategy,2023.2.3,Win32,60.24096386,2,2,8,,,,,,,,2,02,,,,,,,,,,,2,3.657,1,,,,,,-0.135416667,-0.270833333,1,0,0,3.6571,Basalt_rect,7,0,7,0,1,
65e1e10fd349a80ffaf53948,TCR,2024-06-24_14h48.06.065,LearnStrategy,2023.2.3,Win32,60.24096386,2,2,9,,,,,,,,4,10,,,,,,,,,,,1,9.026,0,,,,,,-0.342447917,-0.2578125,1,0,0,9.026,Andesite_rect,8,0,8,0,1,
65e1e10fd349a80ffaf53948,TCR,2024-06-24_14h48.06.065,LearnStrategy,2023.2.3,Win32,60.24096386,2,2,10,,,,,,,,1,14,,,,,,,,,,,3,3.739,0,,,,,,0.126302083,-0.251302083,1,0,0,3.7392,Diorite_rect,9,0,9,0,1,
65e1e10fd349a80ffaf53948,TCR,2024-06-24_14h48.06.065,LearnStrategy,2023.2.3,Win32,60.24096386,2,2,11,,,,,,,,1,06,,,,,,,,,,,1,2.82,1,,,,,,-0.395833333,-0.251302083,1,0,0,2.8197,Andesite_rect,10,0,10,0,1,
65e1e10fd349a80ffaf53948,TCR,2024-06-24_14h48.06.065,LearnStrategy,2023.2.3,Win32,60.24096386,2,2,12,,,,,,,,7,12,,,,,,,,,,,7,1.94,1,,,,,,0.1015625,-0.389322917,1,0,0,1.9397,Peridotite_rect,11,0,11,0,1,
65e1e10fd349a80ffaf53948,TCR,2024-06-24_14h48.06.065,LearnStrategy,2023.2.3,Win32,60.24096386,2,2,13,,,,,,,,3,07,,,,,,,,,,,3,1.589,1,,,,,,0.10546875,-0.248697917,1,0,0,1.5889,Diorite_rect,12,0,12,0,1,
65e1e10fd349a80ffaf53948,TCR,2024-06-24_14h48.06.065,LearnStrategy,2023.2.3,Win32,60.24096386,2,2,14,,,,,,,,6,11,,,,,,,,,,,5,6.06,0,,,,,,-0.4296875,-0.3984375,1,0,0,6.0597,Obsidian_rect,13,0,13,0,1,
65e1e10fd349a80ffaf53948,TCR,2024-06-24_14h48.06.065,LearnStrategy,2023.2.3,Win32,60.24096386,2,2,15,,,,,,,,8,06,,,,,,,,,,,8,3.208,1,,,,,,0.395833333,-0.399739583,1,0,0,3.2083,Pumice_rect,14,0,14,0,1,
65e1e10fd349a80ffaf53948,TCR,2024-06-24_14h48.06.065,LearnStrategy,2023.2.3,Win32,60.24096386,2,2,16,,,,,,,,2,09,,,,,,,,,,,4,4.274,0,,,,,,0.401041667,-0.25390625,1,0,0,4.2737,Gabbro_rect,15,0,15,0,1,
65e1e10fd349a80ffaf53948,TCR,2024-06-24_14h48.06.065,LearnStrategy,2023.2.3,Win32,60.24096386,3,1,1,0.03515625,0.010416667,1,0,0,1.5218,rock_grid_rect_2,4,08,-1,-1,1.522,-0.109375,-0.243489583,1,0,0,6.6885,Basalt_rect,2,6.688,0,0,0,0,0,1,,,,,,,,,,,,,
65e1e10fd349a80ffaf53948,TCR,2024-06-24_14h48.06.065,LearnStrategy,2023.2.3,Win32,60.24096386,3,1,2,0.048177083,-0.002604167,1,0,0,1.4305,rock_grid_rect_2,5,11,-1,-1,1.43,-0.444010417,-0.40234375,1,0,0,1.5609,Obsidian_rect,5,1.561,1,1,0,1,0,1,,,,,,,,,,,,,
65e1e10fd349a80ffaf53948,TCR,2024-06-24_14h48.06.065,LearnStrategy,2023.2.3,Win32,60.24096386,3,1,3,-0.026041667,0.010416667,1,0,0,1.7253,rock_grid_rect_2,1,05,-1,-1,1.725,-0.34375,-0.2421875,1,0,0,1.8538,Andesite_rect,1,1.854,1,2,0,2,0,1,,,,,,,,,,,,,
65e1e10fd349a80ffaf53948,TCR,2024-06-24_14h48.06.065,LearnStrategy,2023.2.3,Win32,60.24096386,3,1,4,0.029947917,-0.001302083,1,0,0,1.8085,rock_grid_rect_2,2,05,-1,-1,1.808,-0.139322917,-0.252604167,1,0,0,3.5216,Basalt_rect,2,3.522,1,3,0,3,0,1,,,,,,,,,,,,,
65e1e10fd349a80ffaf53948,TCR,2024-06-24_14h48.06.065,LearnStrategy,2023.2.3,Win32,60.24096386,3,1,5,-0.005208333,0.006510417,1,0,0,1.3607,rock_grid_rect_2,1,02,-1,-1,1.361,0.140625,-0.260416667,1,0,0,1.8022,Diorite_rect,3,1.802,0,4,0,4,0,1,,,,,,,,,,,,,
65e1e10fd349a80ffaf53948,TCR,2024-06-24_14h48.06.065,LearnStrategy,2023.2.3,Win32,60.24096386,3,1,6,-0.126302083,-0.001302083,1,0,0,1.7562,rock_grid_rect_2,1,02,-1,-1,1.756,-0.416666667,-0.2421875,1,0,0,1.8875,Andesite_rect,1,1.887,1,5,0,5,0,1,,,,,,,,,,,,,
65e1e10fd349a80ffaf53948,TCR,2024-06-24_14h48.06.065,LearnStrategy,2023.2.3,Win32,60.24096386,3,1,7,0.005208333,0.016927083,1,0,0,1.2722,rock_grid_rect_2,6,16,-1,-1,1.272,-0.380208333,-0.385416667,1,0,0,3.197,Obsidian_rect,5,3.197,0,6,0,6,0,1,,,,,,,,,,,,,
65e1e10fd349a80ffaf53948,TCR,2024-06-24_14h48.06.065,LearnStrategy,2023.2.3,Win32,60.24096386,3,1,8,0.029947917,0.002604167,1,0,0,1.4437,rock_grid_rect_2,8,16,-1,-1,1.444,0.3828125,-0.39453125,1,0,0,2.6945,Pumice_rect,8,2.694,1,7,0,7,0,1,,,,,,,,,,,,,
65e1e10fd349a80ffaf53948,TCR,2024-06-24_14h48.06.065,LearnStrategy,2023.2.3,Win32,60.24096386,3,1,9,0.02734375,0.00390625,1,0,0,1.4941,rock_grid_rect_2,6,09,-1,-1,1.494,-0.123697917,-0.40234375,1,0,0,2.9996,Pegmatite_rect,6,3,1,8,0,8,0,1,,,,,,,,,,,,,
65e1e10fd349a80ffaf53948,TCR,2024-06-24_14h48.06.065,LearnStrategy,2023.2.3,Win32,60.24096386,3,1,10,-0.024739583,-0.013020833,1,0,0,1.2606,rock_grid_rect_2,2,08,-1,-1,1.261,0.39453125,-0.256510417,1,0,0,1.5923,Gabbro_rect,4,1.592,0,9,0,9,0,1,,,,,,,,,,,,,
65e1e10fd349a80ffaf53948,TCR,2024-06-24_14h48.06.065,LearnStrategy,2023.2.3,Win32,60.24096386,3,1,11,-0.08203125,0.006510417,1,0,0,1.3441,rock_grid_rect_2,4,14,-1,-1,1.344,0.39453125,-0.252604167,1,0,0,1.6617,Gabbro_rect,4,1.662,1,10,0,10,0,1,,,,,,,,,,,,,
65e1e10fd349a80ffaf53948,TCR,2024-06-24_14h48.06.065,LearnStrategy,2023.2.3,Win32,60.24096386,3,1,12,-0.0625,-0.013020833,1,0,0,1.3096,rock_grid_rect_2,4,16,-1,-1,1.31,0.401041667,-0.2421875,1,0,0,2.2009,Gabbro_rect,4,2.201,1,11,0,11,0,1,,,,,,,,,,,,,
65e1e10fd349a80ffaf53948,TCR,2024-06-24_14h48.06.065,LearnStrategy,2023.2.3,Win32,60.24096386,3,1,13,-0.00390625,0.001302083,1,0,0,1.2564,rock_grid_rect_2,3,08,-1,-1,1.256,0.153645833,-0.248697917,1,0,0,1.6005,Diorite_rect,3,1.6,1,12,0,12,0,1,,,,,,,,,,,,,
65e1e10fd349a80ffaf53948,TCR,2024-06-24_14h48.06.065,LearnStrategy,2023.2.3,Win32,60.24096386,3,1,14,-0.055989583,0.015625,1,0,0,1.311,rock_grid_rect_2,7,08,-1,-1,1.311,0.091145833,-0.39453125,1,0,0,1.6021,Peridotite_rect,7,1.602,1,13,0,13,0,1,,,,,,,,,,,,,
65e1e10fd349a80ffaf53948,TCR,2024-06-24_14h48.06.065,LearnStrategy,2023.2.3,Win32,60.24096386,3,1,15,0.00390625,-0.01953125,1,0,0,1.6599,rock_grid_rect_2,6,13,-1,-1,1.66,-0.130208333,-0.420572917,1,0,0,2.7225,Pegmatite_rect,6,2.723,1,14,0,14,0,1,,,,,,,,,,,,,
65e1e10fd349a80ffaf53948,TCR,2024-06-24_14h48.06.065,LearnStrategy,2023.2.3,Win32,60.24096386,3,1,16,-0.006510417,-0.006510417,1,0,0,1.2272,rock_grid_rect_2,4,16,-1,-1,1.227,0.446614583,-0.2578125,1,0,0,1.5235,Gabbro_rect,4,1.524,1,15,0,15,0,1,,,,,,,,,,,,,
65e1e10fd349a80ffaf53948,TCR,2024-06-24_14h48.06.065,LearnStrategy,2023.2.3,Win32,60.24096386,3,2,1,,,,,,,,7,06,,,,,,,,,,,7,2.427,1,,,,,,0.110677083,-0.403645833,1,0,0,2.4274,Peridotite_rect,0,0,0,0,1,
65e1e10fd349a80ffaf53948,TCR,2024-06-24_14h48.06.065,LearnStrategy,2023.2.3,Win32,60.24096386,3,2,2,,,,,,,,3,13,,,,,,,,,,,3,2.216,1,,,,,,0.123697917,-0.244791667,1,0,0,2.216,Diorite_rect,1,0,1,0,1,
65e1e10fd349a80ffaf53948,TCR,2024-06-24_14h48.06.065,LearnStrategy,2023.2.3,Win32,60.24096386,3,2,3,,,,,,,,2,11,,,,,,,,,,,2,3.813,1,,,,,,-0.122395833,-0.25390625,1,0,0,3.8129,Basalt_rect,2,0,2,0,1,
65e1e10fd349a80ffaf53948,TCR,2024-06-24_14h48.06.065,LearnStrategy,2023.2.3,Win32,60.24096386,3,2,4,,,,,,,,8,04,,,,,,,,,,,8,1.953,1,,,,,,0.37109375,-0.408854167,1,0,0,1.9535,Pumice_rect,3,0,3,0,1,
65e1e10fd349a80ffaf53948,TCR,2024-06-24_14h48.06.065,LearnStrategy,2023.2.3,Win32,60.24096386,3,2,5,,,,,,,,4,01,,,,,,,,,,,4,16.799,1,,,,,,0.37109375,-0.25,1,0,0,16.7991,Gabbro_rect,4,0,4,0,1,
65e1e10fd349a80ffaf53948,TCR,2024-06-24_14h48.06.065,LearnStrategy,2023.2.3,Win32,60.24096386,3,2,6,,,,,,,,6,03,,,,,,,,,,,6,2.211,1,,,,,,-0.169270833,-0.39453125,1,0,0,2.2109,Pegmatite_rect,5,0,5,0,1,
65e1e10fd349a80ffaf53948,TCR,2024-06-24_14h48.06.065,LearnStrategy,2023.2.3,Win32,60.24096386,3,2,7,,,,,,,,7,05,,,,,,,,,,,7,4.887,1,,,,,,0.115885417,-0.40234375,1,0,0,4.8874,Peridotite_rect,6,0,6,0,1,
65e1e10fd349a80ffaf53948,TCR,2024-06-24_14h48.06.065,LearnStrategy,2023.2.3,Win32,60.24096386,3,2,8,,,,,,,,1,03,,,,,,,,,,,2,3.455,0,,,,,,-0.109375,-0.24609375,1,0,0,3.4545,Basalt_rect,7,0,7,0,1,
65e1e10fd349a80ffaf53948,TCR,2024-06-24_14h48.06.065,LearnStrategy,2023.2.3,Win32,60.24096386,3,2,9,,,,,,,,8,10,,,,,,,,,,,8,1.735,1,,,,,,0.43359375,-0.393229167,1,0,0,1.7353,Pumice_rect,8,0,8,0,1,
65e1e10fd349a80ffaf53948,TCR,2024-06-24_14h48.06.065,LearnStrategy,2023.2.3,Win32,60.24096386,3,2,10,,,,,,,,4,15,,,,,,,,,,,1,4.986,0,,,,,,-0.430989583,-0.255208333,1,0,0,4.9861,Andesite_rect,9,0,9,0,1,
65e1e10fd349a80ffaf53948,TCR,2024-06-24_14h48.06.065,LearnStrategy,2023.2.3,Win32,60.24096386,3,2,11,,,,,,,,1,07,,,,,,,,,,,3,3.675,0,,,,,,0.135416667,-0.25390625,1,0,0,3.6751,Diorite_rect,10,0,10,0,1,
65e1e10fd349a80ffaf53948,TCR,2024-06-24_14h48.06.065,LearnStrategy,2023.2.3,Win32,60.24096386,3,2,12,,,,,,,,2,01,,,,,,,,,,,2,2.204,1,,,,,,-0.153645833,-0.248697917,1,0,0,2.2041,Basalt_rect,11,0,11,0,1,
65e1e10fd349a80ffaf53948,TCR,2024-06-24_14h48.06.065,LearnStrategy,2023.2.3,Win32,60.24096386,3,2,13,,,,,,,,5,09,,,,,,,,,,,5,1.707,1,,,,,,-0.37109375,-0.384114583,1,0,0,1.7067,Obsidian_rect,12,0,12,0,1,
65e1e10fd349a80ffaf53948,TCR,2024-06-24_14h48.06.065,LearnStrategy,2023.2.3,Win32,60.24096386,3,2,14,,,,,,,,6,08,,,,,,,,,,,6,1.704,1,,,,,,-0.15625,-0.41015625,1,0,0,1.7038,Pegmatite_rect,13,0,13,0,1,
65e1e10fd349a80ffaf53948,TCR,2024-06-24_14h48.06.065,LearnStrategy,2023.2.3,Win32,60.24096386,3,2,15,,,,,,,,5,12,,,,,,,,,,,5,1.729,1,,,,,,-0.420572917,-0.390625,1,0,0,1.7288,Obsidian_rect,14,0,14,0,1,
65e1e10fd349a80ffaf53948,TCR,2024-06-24_14h48.06.065,LearnStrategy,2023.2.3,Win32,60.24096386,3,2,16,,,,,,,,3,10,,,,,,,,,,,3,9.759,1,,,,,,0.125,-0.24609375,1,0,0,9.7589,Diorite_rect,15,0,15,0,1,
65e1e10fd349a80ffaf53948,TCR,2024-06-24_14h48.06.065,LearnStrategy,2023.2.3,Win32,60.24096386,4,1,1,-0.028645833,-0.001302083,1,0,0,1.6009,rock_grid_rect_2,2,05,-1,-1,1.601,-0.1171875,-0.231770833,1,0,0,2,Basalt_rect,2,2,1,0,0,0,0,1,,,,,,,,,,,,,
65e1e10fd349a80ffaf53948,TCR,2024-06-24_14h48.06.065,LearnStrategy,2023.2.3,Win32,60.24096386,4,1,2,0.071614583,-0.013020833,1,0,0,1.3603,rock_grid_rect_2,8,02,-1,-1,1.36,0.428385417,-0.415364583,1,0,0,2.0629,Pumice_rect,8,2.063,1,1,0,1,0,1,,,,,,,,,,,,,
65e1e10fd349a80ffaf53948,TCR,2024-06-24_14h48.06.065,LearnStrategy,2023.2.3,Win32,60.24096386,4,1,3,0.069010417,-0.00390625,1,0,0,0.7855,rock_grid_rect_2,1,05,-1,-1,0.785,-0.408854167,-0.2421875,1,0,0,4.5736,Andesite_rect,1,4.574,1,2,0,2,0,1,,,,,,,,,,,,,
65e1e10fd349a80ffaf53948,TCR,2024-06-24_14h48.06.065,LearnStrategy,2023.2.3,Win32,60.24096386,4,1,4,0.018229167,0.001302083,1,0,0,1.6711,rock_grid_rect_2,7,04,-1,-1,1.671,-0.119791667,-0.411458333,1,0,0,5.0859,Pegmatite_rect,6,5.086,0,3,0,3,0,1,,,,,,,,,,,,,
65e1e10fd349a80ffaf53948,TCR,2024-06-24_14h48.06.065,LearnStrategy,2023.2.3,Win32,60.24096386,4,1,5,-0.130208333,-0.009114583,1,0,0,1.4433,rock_grid_rect_2,1,04,-1,-1,1.443,-0.333333333,-0.247395833,1,0,0,3.77,Andesite_rect,1,3.77,1,4,0,4,0,1,,,,,,,,,,,,,
65e1e10fd349a80ffaf53948,TCR,2024-06-24_14h48.06.065,LearnStrategy,2023.2.3,Win32,60.24096386,4,1,6,-0.046875,-0.022135417,1,0,0,1.4436,rock_grid_rect_2,1,09,-1,-1,1.444,-0.14453125,-0.24609375,1,0,0,2.5997,Basalt_rect,2,2.6,0,5,0,5,0,1,,,,,,,,,,,,,
65e1e10fd349a80ffaf53948,TCR,2024-06-24_14h48.06.065,LearnStrategy,2023.2.3,Win32,60.24096386,4,1,7,-0.153645833,-0.016927083,1,0,0,1.314,rock_grid_rect_2,1,16,-1,-1,1.314,-0.372395833,-0.2421875,1,0,0,2.8965,Andesite_rect,1,2.896,1,6,0,6,0,1,,,,,,,,,,,,,
65e1e10fd349a80ffaf53948,TCR,2024-06-24_14h48.06.065,LearnStrategy,2023.2.3,Win32,60.24096386,4,1,8,0.005208333,-0.010416667,1,0,0,1.1605,rock_grid_rect_2,4,05,-1,-1,1.16,-0.141927083,-0.401041667,1,0,0,3.9069,Pegmatite_rect,6,3.907,0,7,0,7,0,1,,,,,,,,,,,,,
65e1e10fd349a80ffaf53948,TCR,2024-06-24_14h48.06.065,LearnStrategy,2023.2.3,Win32,60.24096386,4,1,9,0.018229167,-0.01171875,1,0,0,1.305,rock_grid_rect_2,6,07,-1,-1,1.305,-0.123697917,-0.389322917,1,0,0,1.5853,Pegmatite_rect,6,1.585,1,8,0,8,0,1,,,,,,,,,,,,,
65e1e10fd349a80ffaf53948,TCR,2024-06-24_14h48.06.065,LearnStrategy,2023.2.3,Win32,60.24096386,4,1,10,0.014322917,-0.006510417,1,0,0,1.4534,rock_grid_rect_2,4,14,-1,-1,1.453,0.407552083,-0.233072917,1,0,0,1.7775,Gabbro_rect,4,1.777,1,9,0,9,0,1,,,,,,,,,,,,,
65e1e10fd349a80ffaf53948,TCR,2024-06-24_14h48.06.065,LearnStrategy,2023.2.3,Win32,60.24096386,4,1,11,0.026041667,0.001302083,1,0,0,1.5255,rock_grid_rect_2,5,02,-1,-1,1.525,-0.350260417,-0.388020833,1,0,0,1.6776,Obsidian_rect,5,1.678,1,10,0,10,0,1,,,,,,,,,,,,,
65e1e10fd349a80ffaf53948,TCR,2024-06-24_14h48.06.065,LearnStrategy,2023.2.3,Win32,60.24096386,4,1,12,0.016927083,-0.00390625,1,0,0,1.2112,rock_grid_rect_2,4,11,-1,-1,1.211,0.381510417,-0.236979167,1,0,0,2.0387,Gabbro_rect,4,2.039,1,11,0,11,0,1,,,,,,,,,,,,,
65e1e10fd349a80ffaf53948,TCR,2024-06-24_14h48.06.065,LearnStrategy,2023.2.3,Win32,60.24096386,4,1,13,0.009114583,0.002604167,1,0,0,1.4938,rock_grid_rect_2,3,11,-1,-1,1.494,0.131510417,-0.263020833,1,0,0,1.832,Diorite_rect,3,1.832,1,12,0,12,0,1,,,,,,,,,,,,,
65e1e10fd349a80ffaf53948,TCR,2024-06-24_14h48.06.065,LearnStrategy,2023.2.3,Win32,60.24096386,4,1,14,-0.028645833,-0.020833333,1,0,0,1.1768,rock_grid_rect_2,1,01,-1,-1,1.177,0.135416667,-0.234375,1,0,0,1.7724,Diorite_rect,3,1.772,0,13,0,13,0,1,,,,,,,,,,,,,
65e1e10fd349a80ffaf53948,TCR,2024-06-24_14h48.06.065,LearnStrategy,2023.2.3,Win32,60.24096386,4,1,15,-0.065104167,-0.00390625,1,0,0,1.1732,rock_grid_rect_2,2,05,-1,-1,1.173,-0.138020833,-0.251302083,1,0,0,1.5184,Basalt_rect,2,1.518,1,14,0,14,0,1,,,,,,,,,,,,,
65e1e10fd349a80ffaf53948,TCR,2024-06-24_14h48.06.065,LearnStrategy,2023.2.3,Win32,60.24096386,4,1,16,-0.014322917,-0.00390625,1,0,0,1.361,rock_grid_rect_2,6,05,-1,-1,1.361,0.08984375,-0.23828125,1,0,0,3.9378,Diorite_rect,3,3.938,0,15,0,15,0,1,,,,,,,,,,,,,
65e1e10fd349a80ffaf53948,TCR,2024-06-24_14h48.06.065,LearnStrategy,2023.2.3,Win32,60.24096386,4,2,1,,,,,,,,4,09,,,,,,,,,,,4,5.038,1,,,,,,0.40234375,-0.259114583,1,0,0,5.0382,Gabbro_rect,0,0,0,0,1,
65e1e10fd349a80ffaf53948,TCR,2024-06-24_14h48.06.065,LearnStrategy,2023.2.3,Win32,60.24096386,4,2,2,,,,,,,,3,10,,,,,,,,,,,3,2.863,1,,,,,,0.118489583,-0.23828125,1,0,0,2.8635,Diorite_rect,1,0,1,0,1,
65e1e10fd349a80ffaf53948,TCR,2024-06-24_14h48.06.065,LearnStrategy,2023.2.3,Win32,60.24096386,4,2,3,,,,,,,,8,08,,,,,,,,,,,8,1.726,1,,,,,,0.421875,-0.40234375,1,0,0,1.7265,Pumice_rect,2,0,2,0,1,
65e1e10fd349a80ffaf53948,TCR,2024-06-24_14h48.06.065,LearnStrategy,2023.2.3,Win32,60.24096386,4,2,4,,,,,,,,1,10,,,,,,,,,,,1,3.239,1,,,,,,-0.393229167,-0.244791667,1,0,0,3.2391,Andesite_rect,3,0,3,0,1,
65e1e10fd349a80ffaf53948,TCR,2024-06-24_14h48.06.065,LearnStrategy,2023.2.3,Win32,60.24096386,4,2,5,,,,,,,,2,10,,,,,,,,,,,4,2.598,0,,,,,,0.393229167,-0.234375,1,0,0,2.5977,Gabbro_rect,4,0,4,0,1,
65e1e10fd349a80ffaf53948,TCR,2024-06-24_14h48.06.065,LearnStrategy,2023.2.3,Win32,60.24096386,4,2,6,,,,,,,,6,06,,,,,,,,,,,6,3.695,1,,,,,,-0.16796875,-0.40234375,1,0,0,3.6954,Pegmatite_rect,5,0,5,0,1,
65e1e10fd349a80ffaf53948,TCR,2024-06-24_14h48.06.065,LearnStrategy,2023.2.3,Win32,60.24096386,4,2,7,,,,,,,,8,10,,,,,,,,,,,8,1.757,1,,,,,,0.3671875,-0.40625,1,0,0,1.7569,Pumice_rect,6,0,6,0,1,
65e1e10fd349a80ffaf53948,TCR,2024-06-24_14h48.06.065,LearnStrategy,2023.2.3,Win32,60.24096386,4,2,8,,,,,,,,5,08,,,,,,,,,,,5,1.512,1,,,,,,-0.4140625,-0.401041667,1,0,0,1.5124,Obsidian_rect,7,0,7,0,1,
65e1e10fd349a80ffaf53948,TCR,2024-06-24_14h48.06.065,LearnStrategy,2023.2.3,Win32,60.24096386,4,2,9,,,,,,,,4,10,,,,,,,,,,,1,11.696,0,,,,,,-0.4140625,-0.244791667,1,0,0,11.6963,Andesite_rect,8,0,8,0,1,
65e1e10fd349a80ffaf53948,TCR,2024-06-24_14h48.06.065,LearnStrategy,2023.2.3,Win32,60.24096386,4,2,10,,,,,,,,2,09,,,,,,,,,,,2,2.322,1,,,,,,-0.127604167,-0.259114583,1,0,0,2.3215,Basalt_rect,9,0,9,0,1,
65e1e10fd349a80ffaf53948,TCR,2024-06-24_14h48.06.065,LearnStrategy,2023.2.3,Win32,60.24096386,4,2,11,,,,,,,,1,14,,,,,,,,,,,1,4.112,1,,,,,,-0.395833333,-0.255208333,1,0,0,4.1122,Andesite_rect,10,0,10,0,1,
65e1e10fd349a80ffaf53948,TCR,2024-06-24_14h48.06.065,LearnStrategy,2023.2.3,Win32,60.24096386,4,2,12,,,,,,,,7,06,,,,,,,,,,,7,1.647,1,,,,,,0.165364583,-0.399739583,1,0,0,1.6467,Peridotite_rect,11,0,11,0,1,
65e1e10fd349a80ffaf53948,TCR,2024-06-24_14h48.06.065,LearnStrategy,2023.2.3,Win32,60.24096386,4,2,13,,,,,,,,6,11,,,,,,,,,,,6,1.661,1,,,,,,-0.15234375,-0.384114583,1,0,0,1.6608,Pegmatite_rect,12,0,12,0,1,
65e1e10fd349a80ffaf53948,TCR,2024-06-24_14h48.06.065,LearnStrategy,2023.2.3,Win32,60.24096386,4,2,14,,,,,,,,3,14,,,,,,,,,,,3,5.285,1,,,,,,0.139322917,-0.2578125,1,0,0,5.2854,Diorite_rect,13,0,13,0,1,
65e1e10fd349a80ffaf53948,TCR,2024-06-24_14h48.06.065,LearnStrategy,2023.2.3,Win32,60.24096386,4,2,15,,,,,,,,7,07,,,,,,,,,,,7,1.629,1,,,,,,0.139322917,-0.41796875,1,0,0,1.6286,Peridotite_rect,14,0,14,0,1,
65e1e10fd349a80ffaf53948,TCR,2024-06-24_14h48.06.065,LearnStrategy,2023.2.3,Win32,60.24096386,4,2,16,,,,,,,,5,07,,,,,,,,,,,5,1.599,1,,,,,,-0.32421875,-0.395833333,1,0,0,1.599,Obsidian_rect,15,0,15,0,1,
65e1e10fd349a80ffaf53948,TCR,2024-06-24_14h48.06.065,LearnStrategy,2023.2.3,Win32,60.24096386,5,1,1,0.01171875,-0.006510417,1,0,0,1.4485,rock_grid_rect_2,6,15,-1,-1,1.448,-0.12890625,-0.404947917,1,0,0,1.7144,Pegmatite_rect,6,1.714,1,0,0,0,0,1,,,,,,,,,,,,,
65e1e10fd349a80ffaf53948,TCR,2024-06-24_14h48.06.065,LearnStrategy,2023.2.3,Win32,60.24096386,5,1,2,0.014322917,-0.005208333,1,0,0,2.2808,rock_grid_rect_2,2,08,-1,-1,2.281,-0.130208333,-0.268229167,1,0,0,3.0318,Basalt_rect,2,3.032,1,1,0,1,0,1,,,,,,,,,,,,,
65e1e10fd349a80ffaf53948,TCR,2024-06-24_14h48.06.065,LearnStrategy,2023.2.3,Win32,60.24096386,5,1,3,-0.04296875,-0.01171875,1,0,0,1.356,rock_grid_rect_2,2,16,-1,-1,1.356,0.380208333,-0.244791667,1,0,0,2.2742,Gabbro_rect,4,2.274,0,2,0,2,0,1,,,,,,,,,,,,,
65e1e10fd349a80ffaf53948,TCR,2024-06-24_14h48.06.065,LearnStrategy,2023.2.3,Win32,60.24096386,5,1,4,-0.03125,0.001302083,1,0,0,1.4779,rock_grid_rect_2,4,05,-1,-1,1.478,-0.44921875,-0.23828125,1,0,0,5.0827,Andesite_rect,1,5.083,0,3,0,3,0,1,,,,,,,,,,,,,
65e1e10fd349a80ffaf53948,TCR,2024-06-24_14h48.06.065,LearnStrategy,2023.2.3,Win32,60.24096386,5,1,5,0.065104167,0.020833333,1,0,0,1.3587,rock_grid_rect_2,5,10,-1,-1,1.359,-0.450520833,-0.404947917,1,0,0,1.7336,Obsidian_rect,5,1.734,1,4,0,4,0,1,,,,,,,,,,,,,
65e1e10fd349a80ffaf53948,TCR,2024-06-24_14h48.06.065,LearnStrategy,2023.2.3,Win32,60.24096386,5,1,6,-0.055989583,-0.0078125,1,0,0,1.6103,rock_grid_rect_2,1,05,-1,-1,1.61,-0.381510417,-0.2421875,1,0,0,1.6512,Andesite_rect,1,1.651,1,5,0,5,0,1,,,,,,,,,,,,,
65e1e10fd349a80ffaf53948,TCR,2024-06-24_14h48.06.065,LearnStrategy,2023.2.3,Win32,60.24096386,5,1,7,0.069010417,-0.002604167,1,0,0,1.5101,rock_grid_rect_2,3,08,-1,-1,1.51,0.174479167,-0.247395833,1,0,0,1.795,Diorite_rect,3,1.795,1,6,0,6,0,1,,,,,,,,,,,,,
65e1e10fd349a80ffaf53948,TCR,2024-06-24_14h48.06.065,LearnStrategy,2023.2.3,Win32,60.24096386,5,1,8,-0.016927083,0.024739583,1,0,0,1.1273,rock_grid_rect_2,8,14,-1,-1,1.127,0.364583333,-0.380208333,1,0,0,1.9506,Pumice_rect,8,1.951,1,7,0,7,0,1,,,,,,,,,,,,,
65e1e10fd349a80ffaf53948,TCR,2024-06-24_14h48.06.065,LearnStrategy,2023.2.3,Win32,60.24096386,5,1,9,-0.091145833,-0.001302083,1,0,0,1.1221,rock_grid_rect_2,4,08,-1,-1,1.122,-0.08984375,-0.229166667,1,0,0,2.2897,Basalt_rect,2,2.29,0,8,0,8,0,1,,,,,,,,,,,,,
65e1e10fd349a80ffaf53948,TCR,2024-06-24_14h48.06.065,LearnStrategy,2023.2.3,Win32,60.24096386,5,1,10,0.005208333,-0.002604167,1,0,0,1.2832,rock_grid_rect_2,1,05,-1,-1,1.283,-0.4140625,-0.236979167,1,0,0,1.7451,Andesite_rect,1,1.745,1,9,0,9,0,1,,,,,,,,,,,,,
65e1e10fd349a80ffaf53948,TCR,2024-06-24_14h48.06.065,LearnStrategy,2023.2.3,Win32,60.24096386,5,1,11,0.0625,-0.015625,1,0,0,1.3755,rock_grid_rect_2,4,11,-1,-1,1.376,0.412760417,-0.248697917,1,0,0,1.5475,Gabbro_rect,4,1.547,1,10,0,10,0,1,,,,,,,,,,,,,
65e1e10fd349a80ffaf53948,TCR,2024-06-24_14h48.06.065,LearnStrategy,2023.2.3,Win32,60.24096386,5,1,12,-0.03515625,-0.01171875,1,0,0,1.3615,rock_grid_rect_2,4,08,-1,-1,1.361,0.419270833,-0.251302083,1,0,0,2.5498,Gabbro_rect,4,2.55,1,11,0,11,0,1,,,,,,,,,,,,,
65e1e10fd349a80ffaf53948,TCR,2024-06-24_14h48.06.065,LearnStrategy,2023.2.3,Win32,60.24096386,5,1,13,-0.024739583,-0.01171875,1,0,0,1.511,rock_grid_rect_2,1,02,-1,-1,1.511,-0.385416667,-0.247395833,1,0,0,2.2653,Andesite_rect,1,2.265,1,12,0,12,0,1,,,,,,,,,,,,,
65e1e10fd349a80ffaf53948,TCR,2024-06-24_14h48.06.065,LearnStrategy,2023.2.3,Win32,60.24096386,5,1,14,0.002604167,0.005208333,1,0,0,1.2558,rock_grid_rect_2,1,01,-1,-1,1.256,-0.381510417,-0.25,1,0,0,2.5317,Andesite_rect,1,2.532,1,13,0,13,0,1,,,,,,,,,,,,,
65e1e10fd349a80ffaf53948,TCR,2024-06-24_14h48.06.065,LearnStrategy,2023.2.3,Win32,60.24096386,5,1,15,0.071614583,-0.006510417,1,0,0,1.4273,rock_grid_rect_2,2,06,-1,-1,1.427,-0.165364583,-0.264322917,1,0,0,1.6422,Basalt_rect,2,1.642,1,14,0,14,0,1,,,,,,,,,,,,,
65e1e10fd349a80ffaf53948,TCR,2024-06-24_14h48.06.065,LearnStrategy,2023.2.3,Win32,60.24096386,5,1,16,-0.037760417,-0.002604167,1,0,0,1.163,rock_grid_rect_2,7,16,-1,-1,1.163,0.131510417,-0.3828125,1,0,0,1.8348,Peridotite_rect,7,1.835,1,15,0,15,0,1,,,,,,,,,,,,,
65e1e10fd349a80ffaf53948,TCR,2024-06-24_14h48.06.065,LearnStrategy,2023.2.3,Win32,60.24096386,5,2,1,,,,,,,,3,13,,,,,,,,,,,3,2.33,1,,,,,,0.154947917,-0.252604167,1,0,0,2.33,Diorite_rect,0,0,0,0,1,
65e1e10fd349a80ffaf53948,TCR,2024-06-24_14h48.06.065,LearnStrategy,2023.2.3,Win32,60.24096386,5,2,2,,,,,,,,5,16,,,,,,,,,,,5,1.715,1,,,,,,-0.361979167,-0.39453125,1,0,0,1.7148,Obsidian_rect,1,0,1,0,1,
65e1e10fd349a80ffaf53948,TCR,2024-06-24_14h48.06.065,LearnStrategy,2023.2.3,Win32,60.24096386,5,2,3,,,,,,,,3,15,,,,,,,,,,,3,2.452,1,,,,,,0.141927083,-0.24609375,1,0,0,2.4515,Diorite_rect,2,0,2,0,1,
65e1e10fd349a80ffaf53948,TCR,2024-06-24_14h48.06.065,LearnStrategy,2023.2.3,Win32,60.24096386,5,2,4,,,,,,,,2,01,,,,,,,,,,,2,1.738,1,,,,,,-0.180989583,-0.260416667,1,0,0,1.7378,Basalt_rect,3,0,3,0,1,
65e1e10fd349a80ffaf53948,TCR,2024-06-24_14h48.06.065,LearnStrategy,2023.2.3,Win32,60.24096386,5,2,5,,,,,,,,5,04,,,,,,,,,,,5,1.623,1,,,,,,-0.3515625,-0.390625,1,0,0,1.6229,Obsidian_rect,4,0,4,0,1,
65e1e10fd349a80ffaf53948,TCR,2024-06-24_14h48.06.065,LearnStrategy,2023.2.3,Win32,60.24096386,5,2,6,,,,,,,,6,10,,,,,,,,,,,7,1.757,0,,,,,,0.106770833,-0.415364583,1,0,0,1.7571,Peridotite_rect,5,0,5,0,1,
65e1e10fd349a80ffaf53948,TCR,2024-06-24_14h48.06.065,LearnStrategy,2023.2.3,Win32,60.24096386,5,2,7,,,,,,,,4,03,,,,,,,,,,,4,6.157,1,,,,,,0.40625,-0.259114583,1,0,0,6.157,Gabbro_rect,6,0,6,0,1,
65e1e10fd349a80ffaf53948,TCR,2024-06-24_14h48.06.065,LearnStrategy,2023.2.3,Win32,60.24096386,5,2,8,,,,,,,,8,13,,,,,,,,,,,8,3.801,1,,,,,,0.420572917,-0.407552083,1,0,0,3.8014,Pumice_rect,7,0,7,0,1,
65e1e10fd349a80ffaf53948,TCR,2024-06-24_14h48.06.065,LearnStrategy,2023.2.3,Win32,60.24096386,5,2,9,,,,,,,,6,12,,,,,,,,,,,6,2.191,1,,,,,,-0.157552083,-0.393229167,1,0,0,2.1911,Pegmatite_rect,8,0,8,0,1,
65e1e10fd349a80ffaf53948,TCR,2024-06-24_14h48.06.065,LearnStrategy,2023.2.3,Win32,60.24096386,5,2,10,,,,,,,,1,11,,,,,,,,,,,1,4.35,1,,,,,,-0.453125,-0.26171875,1,0,0,4.3495,Andesite_rect,9,0,9,0,1,
65e1e10fd349a80ffaf53948,TCR,2024-06-24_14h48.06.065,LearnStrategy,2023.2.3,Win32,60.24096386,5,2,11,,,,,,,,8,09,,,,,,,,,,,8,1.499,1,,,,,,0.397135417,-0.395833333,1,0,0,1.4994,Pumice_rect,10,0,10,0,1,
65e1e10fd349a80ffaf53948,TCR,2024-06-24_14h48.06.065,LearnStrategy,2023.2.3,Win32,60.24096386,5,2,12,,,,,,,,1,03,,,,,,,,,,,2,3.637,0,,,,,,-0.119791667,-0.2578125,1,0,0,3.6366,Basalt_rect,11,0,11,0,1,
65e1e10fd349a80ffaf53948,TCR,2024-06-24_14h48.06.065,LearnStrategy,2023.2.3,Win32,60.24096386,5,2,13,,,,,,,,7,13,,,,,,,,,,,7,1.755,1,,,,,,0.123697917,-0.4140625,1,0,0,1.7552,Peridotite_rect,12,0,12,0,1,
65e1e10fd349a80ffaf53948,TCR,2024-06-24_14h48.06.065,LearnStrategy,2023.2.3,Win32,60.24096386,5,2,14,,,,,,,,2,11,,,,,,,,,,,2,2.865,1,,,,,,-0.147135417,-0.263020833,1,0,0,2.8645,Basalt_rect,13,0,13,0,1,
65e1e10fd349a80ffaf53948,TCR,2024-06-24_14h48.06.065,LearnStrategy,2023.2.3,Win32,60.24096386,5,2,15,,,,,,,,7,05,,,,,,,,,,,7,1.893,1,,,,,,0.104166667,-0.416666667,1,0,0,1.8928,Peridotite_rect,14,0,14,0,1,
65e1e10fd349a80ffaf53948,TCR,2024-06-24_14h48.06.065,LearnStrategy,2023.2.3,Win32,60.24096386,5,2,16,,,,,,,,4,15,,,,,,,,,,,1,2.719,0,,,,,,-0.4140625,-0.23828125,1,0,0,2.719,Andesite_rect,15,0,15,0,1,
65e1e10fd349a80ffaf53948,TCR,2024-06-24_14h48.06.065,LearnStrategy,2023.2.3,Win32,60.24096386,6,1,1,0.100260417,-0.009114583,1,0,0,1.3455,rock_grid_rect_2,1,05,-1,-1,1.345,-0.395833333,-0.263020833,1,0,0,1.6993,Andesite_rect,1,1.699,1,0,0,0,0,1,,,,,,,,,,,,,
65e1e10fd349a80ffaf53948,TCR,2024-06-24_14h48.06.065,LearnStrategy,2023.2.3,Win32,60.24096386,6,1,2,-0.006510417,0.00390625,1,0,0,1.4772,rock_grid_rect_2,4,12,-1,-1,1.477,0.39453125,-0.256510417,1,0,0,1.5063,Gabbro_rect,4,1.506,1,1,0,1,0,1,,,,,,,,,,,,,
65e1e10fd349a80ffaf53948,TCR,2024-06-24_14h48.06.065,LearnStrategy,2023.2.3,Win32,60.24096386,6,1,3,-0.032552083,-0.013020833,1,0,0,1.1031,rock_grid_rect_2,2,16,-1,-1,1.103,0.365885417,-0.240885417,1,0,0,1.9874,Gabbro_rect,4,1.987,0,2,0,2,0,1,,,,,,,,,,,,,
65e1e10fd349a80ffaf53948,TCR,2024-06-24_14h48.06.065,LearnStrategy,2023.2.3,Win32,60.24096386,6,1,4,-0.006510417,0.001302083,1,0,0,1.5201,rock_grid_rect_2,1,05,-1,-1,1.52,-0.372395833,-0.239583333,1,0,0,1.4479,Andesite_rect,1,1.448,1,3,0,3,0,1,,,,,,,,,,,,,
65e1e10fd349a80ffaf53948,TCR,2024-06-24_14h48.06.065,LearnStrategy,2023.2.3,Win32,60.24096386,6,1,5,-0.055989583,0.010416667,1,0,0,1.2774,rock_grid_rect_2,1,09,-1,-1,1.277,-0.0859375,-0.259114583,1,0,0,2.1514,Basalt_rect,2,2.151,0,4,0,4,0,1,,,,,,,,,,,,,
65e1e10fd349a80ffaf53948,TCR,2024-06-24_14h48.06.065,LearnStrategy,2023.2.3,Win32,60.24096386,6,1,6,0.006510417,-0.015625,1,0,0,1.2052,rock_grid_rect_2,3,12,-1,-1,1.205,0.106770833,-0.235677083,1,0,0,1.4683,Diorite_rect,3,1.468,1,5,0,5,0,1,,,,,,,,,,,,,
65e1e10fd349a80ffaf53948,TCR,2024-06-24_14h48.06.065,LearnStrategy,2023.2.3,Win32,60.24096386,6,1,7,0.005208333,-0.013020833,1,0,0,1.3168,rock_grid_rect_2,5,02,-1,-1,1.317,-0.37109375,-0.3984375,1,0,0,2.2674,Obsidian_rect,5,2.267,1,6,0,6,0,1,,,,,,,,,,,,,
65e1e10fd349a80ffaf53948,TCR,2024-06-24_14h48.06.065,LearnStrategy,2023.2.3,Win32,60.24096386,6,1,8,-0.009114583,-0.00390625,1,0,0,1.3779,rock_grid_rect_2,4,16,-1,-1,1.378,0.40234375,-0.243489583,1,0,0,1.7295,Gabbro_rect,4,1.729,1,7,0,7,0,1,,,,,,,,,,,,,
65e1e10fd349a80ffaf53948,TCR,2024-06-24_14h48.06.065,LearnStrategy,2023.2.3,Win32,60.24096386,6,1,9,-0.006510417,-0.0078125,1,0,0,1.3937,rock_grid_rect_2,6,16,-1,-1,1.394,-0.087239583,-0.40234375,1,0,0,3.7137,Pegmatite_rect,6,3.714,1,8,0,8,0,1,,,,,,,,,,,,,
65e1e10fd349a80ffaf53948,TCR,2024-06-24_14h48.06.065,LearnStrategy,2023.2.3,Win32,60.24096386,6,1,10,0.028645833,0.002604167,1,0,0,1.4439,rock_grid_rect_2,1,02,-1,-1,1.444,-0.3359375,-0.240885417,1,0,0,2.4643,Andesite_rect,1,2.464,1,9,0,9,0,1,,,,,,,,,,,,,
65e1e10fd349a80ffaf53948,TCR,2024-06-24_14h48.06.065,LearnStrategy,2023.2.3,Win32,60.24096386,6,1,11,-0.029947917,0.009114583,1,0,0,1.3354,rock_grid_rect_2,7,16,-1,-1,1.335,0.14453125,-0.40625,1,0,0,1.6902,Peridotite_rect,7,1.69,1,10,0,10,0,1,,,,,,,,,,,,,
65e1e10fd349a80ffaf53948,TCR,2024-06-24_14h48.06.065,LearnStrategy,2023.2.3,Win32,60.24096386,6,1,12,0.010416667,-0.009114583,1,0,0,1.2704,rock_grid_rect_2,2,08,-1,-1,1.27,-0.130208333,-0.25,1,0,0,2.2027,Basalt_rect,2,2.203,1,11,0,11,0,1,,,,,,,,,,,,,
65e1e10fd349a80ffaf53948,TCR,2024-06-24_14h48.06.065,LearnStrategy,2023.2.3,Win32,60.24096386,6,1,13,-0.013020833,0.001302083,1,0,0,1.3101,rock_grid_rect_2,4,12,-1,-1,1.31,0.451822917,-0.259114583,1,0,0,1.5214,Gabbro_rect,4,1.521,1,12,0,12,0,1,,,,,,,,,,,,,
65e1e10fd349a80ffaf53948,TCR,2024-06-24_14h48.06.065,LearnStrategy,2023.2.3,Win32,60.24096386,6,1,14,-0.104166667,-0.010416667,1,0,0,1.111,rock_grid_rect_2,4,11,-1,-1,1.111,0.3515625,-0.260416667,1,0,0,1.4695,Gabbro_rect,4,1.469,1,13,0,13,0,1,,,,,,,,,,,,,
65e1e10fd349a80ffaf53948,TCR,2024-06-24_14h48.06.065,LearnStrategy,2023.2.3,Win32,60.24096386,6,1,15,-0.095052083,0.020833333,1,0,0,0.979,rock_grid_rect_2,6,09,-1,-1,0.979,-0.192708333,-0.39453125,1,0,0,3.7395,Pegmatite_rect,6,3.739,1,14,0,14,0,1,,,,,,,,,,,,,
65e1e10fd349a80ffaf53948,TCR,2024-06-24_14h48.06.065,LearnStrategy,2023.2.3,Win32,60.24096386,6,1,16,-0.018229167,-0.005208333,1,0,0,0.99,rock_grid_rect_2,8,15,-1,-1,0.99,0.3515625,-0.3984375,1,0,0,1.5614,Pumice_rect,8,1.561,1,15,0,15,0,1,,,,,,,,,,,,,
65e1e10fd349a80ffaf53948,TCR,2024-06-24_14h48.06.065,LearnStrategy,2023.2.3,Win32,60.24096386,6,2,1,,,,,,,,8,06,,,,,,,,,,,8,1.471,1,,,,,,0.3515625,-0.401041667,1,0,0,1.4715,Pumice_rect,0,0,0,0,1,
65e1e10fd349a80ffaf53948,TCR,2024-06-24_14h48.06.065,LearnStrategy,2023.2.3,Win32,60.24096386,6,2,2,,,,,,,,6,03,,,,,,,,,,,6,1.764,1,,,,,,-0.16015625,-0.40625,1,0,0,1.7635,Pegmatite_rect,1,0,1,0,1,
65e1e10fd349a80ffaf53948,TCR,2024-06-24_14h48.06.065,LearnStrategy,2023.2.3,Win32,60.24096386,6,2,3,,,,,,,,3,07,,,,,,,,,,,3,1.657,1,,,,,,0.10546875,-0.251302083,1,0,0,1.6573,Diorite_rect,2,0,2,0,1,
65e1e10fd349a80ffaf53948,TCR,2024-06-24_14h48.06.065,LearnStrategy,2023.2.3,Win32,60.24096386,6,2,4,,,,,,,,8,04,,,,,,,,,,,8,2.088,1,,,,,,0.428385417,-0.404947917,1,0,0,2.0882,Pumice_rect,3,0,3,0,1,
65e1e10fd349a80ffaf53948,TCR,2024-06-24_14h48.06.065,LearnStrategy,2023.2.3,Win32,60.24096386,6,2,5,,,,,,,,7,12,,,,,,,,,,,7,2.479,1,,,,,,0.102864583,-0.397135417,1,0,0,2.4793,Peridotite_rect,4,0,4,0,1,
65e1e10fd349a80ffaf53948,TCR,2024-06-24_14h48.06.065,LearnStrategy,2023.2.3,Win32,60.24096386,6,2,6,,,,,,,,5,09,,,,,,,,,,,5,1.873,1,,,,,,-0.395833333,-0.40234375,1,0,0,1.873,Obsidian_rect,5,0,5,0,1,
65e1e10fd349a80ffaf53948,TCR,2024-06-24_14h48.06.065,LearnStrategy,2023.2.3,Win32,60.24096386,6,2,7,,,,,,,,5,12,,,,,,,,,,,5,1.296,1,,,,,,-0.424479167,-0.391927083,1,0,0,1.2957,Obsidian_rect,6,0,6,0,1,
65e1e10fd349a80ffaf53948,TCR,2024-06-24_14h48.06.065,LearnStrategy,2023.2.3,Win32,60.24096386,6,2,8,,,,,,,,4,01,,,,,,,,,,,4,4.115,1,,,,,,0.408854167,-0.2578125,1,0,0,4.1147,Gabbro_rect,7,0,7,0,1,
65e1e10fd349a80ffaf53948,TCR,2024-06-24_14h48.06.065,LearnStrategy,2023.2.3,Win32,60.24096386,6,2,9,,,,,,,,2,14,,,,,,,,,,,2,5.02,1,,,,,,-0.151041667,-0.251302083,1,0,0,5.0195,Basalt_rect,8,0,8,0,1,
65e1e10fd349a80ffaf53948,TCR,2024-06-24_14h48.06.065,LearnStrategy,2023.2.3,Win32,60.24096386,6,2,10,,,,,,,,3,06,,,,,,,,,,,3,1.429,1,,,,,,0.076822917,-0.263020833,1,0,0,1.4289,Diorite_rect,9,0,9,0,1,
65e1e10fd349a80ffaf53948,TCR,2024-06-24_14h48.06.065,LearnStrategy,2023.2.3,Win32,60.24096386,6,2,11,,,,,,,,4,13,,,,,,,,,,,1,3.306,0,,,,,,-0.359375,-0.243489583,1,0,0,3.3058,Andesite_rect,10,0,10,0,1,
65e1e10fd349a80ffaf53948,TCR,2024-06-24_14h48.06.065,LearnStrategy,2023.2.3,Win32,60.24096386,6,2,12,,,,,,,,1,06,,,,,,,,,,,2,7.043,0,,,,,,-0.165364583,-0.255208333,1,0,0,7.0429,Basalt_rect,11,0,11,0,1,
65e1e10fd349a80ffaf53948,TCR,2024-06-24_14h48.06.065,LearnStrategy,2023.2.3,Win32,60.24096386,6,2,13,,,,,,,,1,07,,,,,,,,,,,1,4.553,1,,,,,,-0.4296875,-0.251302083,1,0,0,4.5533,Andesite_rect,12,0,12,0,1,
65e1e10fd349a80ffaf53948,TCR,2024-06-24_14h48.06.065,LearnStrategy,2023.2.3,Win32,60.24096386,6,2,14,,,,,,,,2,02,,,,,,,,,,,2,1.729,1,,,,,,-0.147135417,-0.247395833,1,0,0,1.729,Basalt_rect,13,0,13,0,1,
65e1e10fd349a80ffaf53948,TCR,2024-06-24_14h48.06.065,LearnStrategy,2023.2.3,Win32,60.24096386,6,2,15,,,,,,,,6,08,,,,,,,,,,,6,1.747,1,,,,,,-0.143229167,-0.401041667,1,0,0,1.7473,Pegmatite_rect,14,0,14,0,1,
65e1e10fd349a80ffaf53948,TCR,2024-06-24_14h48.06.065,LearnStrategy,2023.2.3,Win32,60.24096386,6,2,16,,,,,,,,7,10,,,,,,,,,,,7,1.542,1,,,,,,0.118489583,-0.389322917,1,0,0,1.5424,Peridotite_rect,15,0,15,0,1,
65e1e10fd349a80ffaf53948,TCR,2024-06-24_14h48.06.065,LearnStrategy,2023.2.3,Win32,60.24096386,7,1,1,0.065104167,0.0078125,1,0,0,1.3158,rock_grid_rect_2,4,14,-1,-1,1.316,0.380208333,-0.233072917,1,0,0,5.9566,Gabbro_rect,4,5.957,1,0,0,0,0,1,,,,,,,,,,,,,
65e1e10fd349a80ffaf53948,TCR,2024-06-24_14h48.06.065,LearnStrategy,2023.2.3,Win32,60.24096386,7,1,2,-0.05859375,-0.009114583,1,0,0,1.2248,rock_grid_rect_2,3,09,-1,-1,1.225,0.15625,-0.244791667,1,0,0,2.3447,Diorite_rect,3,2.345,1,1,0,1,0,1,,,,,,,,,,,,,
65e1e10fd349a80ffaf53948,TCR,2024-06-24_14h48.06.065,LearnStrategy,2023.2.3,Win32,60.24096386,7,1,3,-0.083333333,0.0078125,1,0,0,1.4107,rock_grid_rect_2,1,16,-1,-1,1.411,-0.408854167,-0.229166667,1,0,0,1.8261,Andesite_rect,1,1.826,1,2,0,2,0,1,,,,,,,,,,,,,
65e1e10fd349a80ffaf53948,TCR,2024-06-24_14h48.06.065,LearnStrategy,2023.2.3,Win32,60.24096386,7,1,4,-0.024739583,-0.015625,1,0,0,1.2603,rock_grid_rect_2,4,11,-1,-1,1.26,0.365885417,-0.2421875,1,0,0,1.511,Gabbro_rect,4,1.511,1,3,0,3,0,1,,,,,,,,,,,,,
65e1e10fd349a80ffaf53948,TCR,2024-06-24_14h48.06.065,LearnStrategy,2023.2.3,Win32,60.24096386,7,1,5,-0.006510417,-0.006510417,1,0,0,1.1936,rock_grid_rect_2,1,01,-1,-1,1.194,-0.423177083,-0.244791667,1,0,0,3.9032,Andesite_rect,1,3.903,1,4,0,4,0,1,,,,,,,,,,,,,
65e1e10fd349a80ffaf53948,TCR,2024-06-24_14h48.06.065,LearnStrategy,2023.2.3,Win32,60.24096386,7,1,6,0.076822917,-0.0078125,1,0,0,1.1777,rock_grid_rect_2,4,16,-1,-1,1.178,0.41796875,-0.25390625,1,0,0,1.5557,Gabbro_rect,4,1.556,1,5,0,5,0,1,,,,,,,,,,,,,
65e1e10fd349a80ffaf53948,TCR,2024-06-24_14h48.06.065,LearnStrategy,2023.2.3,Win32,60.24096386,7,1,7,-0.161458333,-0.01171875,1,0,0,1.3105,rock_grid_rect_2,6,16,-1,-1,1.311,-0.10546875,-0.391927083,1,0,0,1.4763,Pegmatite_rect,6,1.476,1,6,0,6,0,1,,,,,,,,,,,,,
65e1e10fd349a80ffaf53948,TCR,2024-06-24_14h48.06.065,LearnStrategy,2023.2.3,Win32,60.24096386,7,1,8,-0.075520833,0,1,0,0,1.3735,rock_grid_rect_2,1,16,-1,-1,1.373,-0.399739583,-0.23046875,1,0,0,2.0486,Andesite_rect,1,2.049,1,7,0,7,0,1,,,,,,,,,,,,,
65e1e10fd349a80ffaf53948,TCR,2024-06-24_14h48.06.065,LearnStrategy,2023.2.3,Win32,60.24096386,7,1,9,0.055989583,-0.0078125,1,0,0,1.5099,rock_grid_rect_2,1,05,-1,-1,1.51,-0.372395833,-0.236979167,1,0,0,1.6657,Andesite_rect,1,1.666,1,8,0,8,0,1,,,,,,,,,,,,,
65e1e10fd349a80ffaf53948,TCR,2024-06-24_14h48.06.065,LearnStrategy,2023.2.3,Win32,60.24096386,7,1,10,0.01171875,0.009114583,1,0,0,1.2776,rock_grid_rect_2,4,08,-1,-1,1.278,-0.109375,-0.247395833,1,0,0,2.3447,Basalt_rect,2,2.345,0,9,0,9,0,1,,,,,,,,,,,,,
65e1e10fd349a80ffaf53948,TCR,2024-06-24_14h48.06.065,LearnStrategy,2023.2.3,Win32,60.24096386,7,1,11,-0.0234375,-0.00390625,1,0,0,1.3049,rock_grid_rect_2,2,08,-1,-1,1.305,-0.131510417,-0.247395833,1,0,0,1.4385,Basalt_rect,2,1.438,1,10,0,10,0,1,,,,,,,,,,,,,
65e1e10fd349a80ffaf53948,TCR,2024-06-24_14h48.06.065,LearnStrategy,2023.2.3,Win32,60.24096386,7,1,12,-0.03125,0.00390625,1,0,0,1.2366,rock_grid_rect_2,5,06,-1,-1,1.237,-0.352864583,-0.390625,1,0,0,1.5475,Obsidian_rect,5,1.547,1,11,0,11,0,1,,,,,,,,,,,,,
65e1e10fd349a80ffaf53948,TCR,2024-06-24_14h48.06.065,LearnStrategy,2023.2.3,Win32,60.24096386,7,1,13,-0.024739583,-0.016927083,1,0,0,1.2225,rock_grid_rect_2,2,05,-1,-1,1.223,-0.125,-0.23046875,1,0,0,2.2935,Basalt_rect,2,2.293,1,12,0,12,0,1,,,,,,,,,,,,,
65e1e10fd349a80ffaf53948,TCR,2024-06-24_14h48.06.065,LearnStrategy,2023.2.3,Win32,60.24096386,7,1,14,-0.032552083,-0.001302083,1,0,0,1.2106,rock_grid_rect_2,7,08,-1,-1,1.211,0.118489583,-0.3828125,1,0,0,1.8999,Peridotite_rect,7,1.9,1,13,0,13,0,1,,,,,,,,,,,,,
65e1e10fd349a80ffaf53948,TCR,2024-06-24_14h48.06.065,LearnStrategy,2023.2.3,Win32,60.24096386,7,1,15,-0.041666667,0.009114583,1,0,0,1.2933,rock_grid_rect_2,8,03,-1,-1,1.293,0.37109375,-0.408854167,1,0,0,2.6169,Pumice_rect,8,2.617,1,14,0,14,0,1,,,,,,,,,,,,,
65e1e10fd349a80ffaf53948,TCR,2024-06-24_14h48.06.065,LearnStrategy,2023.2.3,Win32,60.24096386,7,1,16,-0.033854167,-0.005208333,1,0,0,1.3934,rock_grid_rect_2,6,05,-1,-1,1.393,-0.373697917,-0.247395833,1,0,0,4.4286,Andesite_rect,1,4.429,0,15,0,15,0,1,,,,,,,,,,,,,
65e1e10fd349a80ffaf53948,TCR,2024-06-24_14h48.06.065,LearnStrategy,2023.2.3,Win32,60.24096386,7,2,1,,,,,,,,5,09,,,,,,,,,,,5,1.358,1,,,,,,-0.368489583,-0.420572917,1,0,0,1.3575,Obsidian_rect,0,0,0,0,1,
65e1e10fd349a80ffaf53948,TCR,2024-06-24_14h48.06.065,LearnStrategy,2023.2.3,Win32,60.24096386,7,2,2,,,,,,,,2,09,,,,,,,,,,,2,1.247,1,,,,,,-0.078125,-0.247395833,1,0,0,1.2471,Basalt_rect,1,0,1,0,1,
65e1e10fd349a80ffaf53948,TCR,2024-06-24_14h48.06.065,LearnStrategy,2023.2.3,Win32,60.24096386,7,2,3,,,,,,,,7,05,,,,,,,,,,,7,1.848,1,,,,,,0.166666667,-0.407552083,1,0,0,1.8478,Peridotite_rect,2,0,2,0,1,
65e1e10fd349a80ffaf53948,TCR,2024-06-24_14h48.06.065,LearnStrategy,2023.2.3,Win32,60.24096386,7,2,4,,,,,,,,1,10,,,,,,,,,,,1,2.521,1,,,,,,-0.334635417,-0.244791667,1,0,0,2.521,Andesite_rect,3,0,3,0,1,
65e1e10fd349a80ffaf53948,TCR,2024-06-24_14h48.06.065,LearnStrategy,2023.2.3,Win32,60.24096386,7,2,5,,,,,,,,1,06,,,,,,,,,,,2,8.569,0,,,,,,-0.09375,-0.23828125,1,0,0,8.5694,Basalt_rect,4,0,4,0,1,
65e1e10fd349a80ffaf53948,TCR,2024-06-24_14h48.06.065,LearnStrategy,2023.2.3,Win32,60.24096386,7,2,6,,,,,,,,6,06,,,,,,,,,,,6,1.636,1,,,,,,-0.15625,-0.401041667,1,0,0,1.6356,Pegmatite_rect,5,0,5,0,1,
65e1e10fd349a80ffaf53948,TCR,2024-06-24_14h48.06.065,LearnStrategy,2023.2.3,Win32,60.24096386,7,2,7,,,,,,,,8,13,,,,,,,,,,,2,6.464,0,,,,,,-0.157552083,-0.266927083,1,0,0,6.4638,Basalt_rect,6,0,6,0,1,
65e1e10fd349a80ffaf53948,TCR,2024-06-24_14h48.06.065,LearnStrategy,2023.2.3,Win32,60.24096386,7,2,8,,,,,,,,8,09,,,,,,,,,,,8,1.405,1,,,,,,0.444010417,-0.416666667,1,0,0,1.4052,Pumice_rect,7,0,7,0,1,
65e1e10fd349a80ffaf53948,TCR,2024-06-24_14h48.06.065,LearnStrategy,2023.2.3,Win32,60.24096386,7,2,9,,,,,,,,5,08,,,,,,,,,,,5,1.492,1,,,,,,-0.421875,-0.412760417,1,0,0,1.4924,Obsidian_rect,8,0,8,0,1,
65e1e10fd349a80ffaf53948,TCR,2024-06-24_14h48.06.065,LearnStrategy,2023.2.3,Win32,60.24096386,7,2,10,,,,,,,,2,11,,,,,,,,,,,4,7.275,0,,,,,,0.407552083,-0.251302083,1,0,0,7.2749,Gabbro_rect,9,0,9,0,1,
65e1e10fd349a80ffaf53948,TCR,2024-06-24_14h48.06.065,LearnStrategy,2023.2.3,Win32,60.24096386,7,2,11,,,,,,,,6,12,,,,,,,,,,,1,3.011,0,,,,,,-0.33203125,-0.255208333,1,0,0,3.0108,Andesite_rect,10,0,10,0,1,
65e1e10fd349a80ffaf53948,TCR,2024-06-24_14h48.06.065,LearnStrategy,2023.2.3,Win32,60.24096386,7,2,12,,,,,,,,4,15,,,,,,,,,,,1,5.278,0,,,,,,-0.37109375,-0.263020833,1,0,0,5.2784,Andesite_rect,11,0,11,0,1,
65e1e10fd349a80ffaf53948,TCR,2024-06-24_14h48.06.065,LearnStrategy,2023.2.3,Win32,60.24096386,7,2,13,,,,,,,,4,13,,,,,,,,,,,1,2.892,0,,,,,,-0.37109375,-0.25,1,0,0,2.8921,Andesite_rect,12,0,12,0,1,
65e1e10fd349a80ffaf53948,TCR,2024-06-24_14h48.06.065,LearnStrategy,2023.2.3,Win32,60.24096386,7,2,14,,,,,,,,3,06,,,,,,,,,,,3,1.661,1,,,,,,0.130208333,-0.24609375,1,0,0,1.6612,Diorite_rect,13,0,13,0,1,
65e1e10fd349a80ffaf53948,TCR,2024-06-24_14h48.06.065,LearnStrategy,2023.2.3,Win32,60.24096386,7,2,15,,,,,,,,7,12,,,,,,,,,,,7,1.581,1,,,,,,0.130208333,-0.408854167,1,0,0,1.5808,Peridotite_rect,14,0,14,0,1,
65e1e10fd349a80ffaf53948,TCR,2024-06-24_14h48.06.065,LearnStrategy,2023.2.3,Win32,60.24096386,7,2,16,,,,,,,,3,07,,,,,,,,,,,3,1.362,1,,,,,,0.135416667,-0.240885417,1,0,0,1.3619,Diorite_rect,15,0,15,0,1,
65e1e10fd349a80ffaf53948,TCR,2024-06-24_14h48.06.065,LearnStrategy,2023.2.3,Win32,60.24096386,8,1,1,0.015625,0,1,0,0,1.3948,rock_grid_rect_2,1,16,-1,-1,1.395,-0.388020833,-0.23828125,1,0,0,1.479,Andesite_rect,1,1.479,1,0,0,0,0,1,,,,,,,,,,,,,
65e1e10fd349a80ffaf53948,TCR,2024-06-24_14h48.06.065,LearnStrategy,2023.2.3,Win32,60.24096386,8,1,2,0.09765625,-0.01171875,1,0,0,3.055,rock_grid_rect_2,8,16,-1,-1,3.055,0.352864583,-0.416666667,1,0,0,2.4906,Pumice_rect,8,2.491,1,1,0,1,0,1,,,,,,,,,,,,,
65e1e10fd349a80ffaf53948,TCR,2024-06-24_14h48.06.065,LearnStrategy,2023.2.3,Win32,60.24096386,8,1,3,0.139322917,-0.022135417,1,0,0,0.8227,rock_grid_rect_2,6,05,-1,-1,0.823,-0.088541667,-0.40234375,1,0,0,2.2543,Pegmatite_rect,6,2.254,1,2,0,2,0,1,,,,,,,,,,,,,
65e1e10fd349a80ffaf53948,TCR,2024-06-24_14h48.06.065,LearnStrategy,2023.2.3,Win32,60.24096386,8,1,4,0.110677083,-0.01171875,1,0,0,0.8586,rock_grid_rect_2,4,08,-1,-1,0.859,-0.385416667,-0.26953125,1,0,0,2.6274,Andesite_rect,1,2.627,0,3,0,3,0,1,,,,,,,,,,,,,
65e1e10fd349a80ffaf53948,TCR,2024-06-24_14h48.06.065,LearnStrategy,2023.2.3,Win32,60.24096386,8,1,5,0.111979167,0.006510417,1,0,0,1.489,rock_grid_rect_2,8,05,-1,-1,1.489,0.388020833,-0.3984375,1,0,0,1.4122,Pumice_rect,8,1.412,1,4,0,4,0,1,,,,,,,,,,,,,
65e1e10fd349a80ffaf53948,TCR,2024-06-24_14h48.06.065,LearnStrategy,2023.2.3,Win32,60.24096386,8,1,6,0.125,0.00390625,1,0,0,1.2881,rock_grid_rect_2,7,04,-1,-1,1.288,0.138020833,-0.393229167,1,0,0,1.269,Peridotite_rect,7,1.269,1,5,0,5,0,1,,,,,,,,,,,,,
65e1e10fd349a80ffaf53948,TCR,2024-06-24_14h48.06.065,LearnStrategy,2023.2.3,Win32,60.24096386,8,1,7,0.108072917,-0.006510417,1,0,0,0.6671,rock_grid_rect_2,2,05,-1,-1,0.667,-0.154947917,-0.264322917,1,0,0,0.9096,Basalt_rect,2,0.91,1,6,0,6,0,1,,,,,,,,,,,,,
65e1e10fd349a80ffaf53948,TCR,2024-06-24_14h48.06.065,LearnStrategy,2023.2.3,Win32,60.24096386,8,1,8,0.115885417,-0.016927083,1,0,0,0.8065,rock_grid_rect_2,4,08,-1,-1,0.806,0.389322917,-0.25390625,1,0,0,1.6383,Gabbro_rect,4,1.638,1,7,0,7,0,1,,,,,,,,,,,,,
65e1e10fd349a80ffaf53948,TCR,2024-06-24_14h48.06.065,LearnStrategy,2023.2.3,Win32,60.24096386,8,1,9,0.158854167,-0.0078125,1,0,0,0.7339,rock_grid_rect_2,4,12,-1,-1,0.734,0.411458333,-0.2421875,1,0,0,1.0759,Gabbro_rect,4,1.076,1,8,0,8,0,1,,,,,,,,,,,,,
65e1e10fd349a80ffaf53948,TCR,2024-06-24_14h48.06.065,LearnStrategy,2023.2.3,Win32,60.24096386,8,1,10,0.139322917,0.006510417,1,0,0,0.8107,rock_grid_rect_2,4,14,-1,-1,0.811,0.356770833,-0.255208333,1,0,0,2.2136,Gabbro_rect,4,2.214,1,9,0,9,0,1,,,,,,,,,,,,,
65e1e10fd349a80ffaf53948,TCR,2024-06-24_14h48.06.065,LearnStrategy,2023.2.3,Win32,60.24096386,8,1,11,0.11328125,-0.006510417,1,0,0,0.6056,rock_grid_rect_2,1,01,-1,-1,0.606,-0.3515625,-0.23046875,1,0,0,1.6072,Andesite_rect,1,1.607,1,10,0,10,0,1,,,,,,,,,,,,,
65e1e10fd349a80ffaf53948,TCR,2024-06-24_14h48.06.065,LearnStrategy,2023.2.3,Win32,60.24096386,8,1,12,0.149739583,0.001302083,1,0,0,0.6464,rock_grid_rect_2,1,02,-1,-1,0.646,-0.384114583,-0.268229167,1,0,0,1.6626,Andesite_rect,1,1.663,1,11,0,11,0,1,,,,,,,,,,,,,
65e1e10fd349a80ffaf53948,TCR,2024-06-24_14h48.06.065,LearnStrategy,2023.2.3,Win32,60.24096386,8,1,13,0.111979167,-0.00390625,1,0,0,0.5717,rock_grid_rect_2,6,05,-1,-1,0.572,-0.334635417,-0.248697917,1,0,0,1.4045,Andesite_rect,1,1.405,0,12,0,12,0,1,,,,,,,,,,,,,
65e1e10fd349a80ffaf53948,TCR,2024-06-24_14h48.06.065,LearnStrategy,2023.2.3,Win32,60.24096386,8,1,14,0.14453125,0.001302083,1,0,0,0.6333,rock_grid_rect_2,2,04,-1,-1,0.633,-0.127604167,-0.2421875,1,0,0,0.9906,Basalt_rect,2,0.991,1,13,0,13,0,1,,,,,,,,,,,,,
65e1e10fd349a80ffaf53948,TCR,2024-06-24_14h48.06.065,LearnStrategy,2023.2.3,Win32,60.24096386,8,1,15,0.091145833,-0.006510417,1,0,0,0.7055,rock_grid_rect_2,3,16,-1,-1,0.706,0.118489583,-0.25390625,1,0,0,1.3845,Diorite_rect,3,1.384,1,14,0,14,0,1,,,,,,,,,,,,,
65e1e10fd349a80ffaf53948,TCR,2024-06-24_14h48.06.065,LearnStrategy,2023.2.3,Win32,60.24096386,8,1,16,0.09375,-0.013020833,1,0,0,0.7575,rock_grid_rect_2,1,05,-1,-1,0.757,-0.3359375,-0.26953125,1,0,0,1.0634,Andesite_rect,1,1.063,1,15,0,15,0,1,,,,,,,,,,,,,
65e1e10fd349a80ffaf53948,TCR,2024-06-24_14h48.06.065,LearnStrategy,2023.2.3,Win32,60.24096386,8,2,1,,,,,,,,8,10,,,,,,,,,,,8,1.575,1,,,,,,0.388020833,-0.3984375,1,0,0,1.5752,Pumice_rect,0,0,0,0,1,
65e1e10fd349a80ffaf53948,TCR,2024-06-24_14h48.06.065,LearnStrategy,2023.2.3,Win32,60.24096386,8,2,2,,,,,,,,6,11,,,,,,,,,,,6,1.119,1,,,,,,-0.125,-0.407552083,1,0,0,1.119,Pegmatite_rect,1,0,1,0,1,
65e1e10fd349a80ffaf53948,TCR,2024-06-24_14h48.06.065,LearnStrategy,2023.2.3,Win32,60.24096386,8,2,3,,,,,,,,6,08,,,,,,,,,,,6,1.054,1,,,,,,-0.12109375,-0.408854167,1,0,0,1.0536,Pegmatite_rect,2,0,2,0,1,
65e1e10fd349a80ffaf53948,TCR,2024-06-24_14h48.06.065,LearnStrategy,2023.2.3,Win32,60.24096386,8,2,4,,,,,,,,1,07,,,,,,,,,,,6,8.418,0,,,,,,-0.15625,-0.416666667,1,0,0,8.4183,Pegmatite_rect,3,0,3,0,1,
65e1e10fd349a80ffaf53948,TCR,2024-06-24_14h48.06.065,LearnStrategy,2023.2.3,Win32,60.24096386,8,2,5,,,,,,,,5,12,,,,,,,,,,,5,1.631,1,,,,,,-0.39453125,-0.404947917,1,0,0,1.6309,Obsidian_rect,4,0,4,0,1,
65e1e10fd349a80ffaf53948,TCR,2024-06-24_14h48.06.065,LearnStrategy,2023.2.3,Win32,60.24096386,8,2,6,,,,,,,,1,03,,,,,,,,,,,2,1.738,0,,,,,,-0.151041667,-0.2578125,1,0,0,1.7383,Basalt_rect,5,0,5,0,1,
65e1e10fd349a80ffaf53948,TCR,2024-06-24_14h48.06.065,LearnStrategy,2023.2.3,Win32,60.24096386,8,2,7,,,,,,,,4,10,,,,,,,,,,,4,1.315,1,,,,,,0.381510417,-0.25390625,1,0,0,1.3147,Gabbro_rect,6,0,6,0,1,
65e1e10fd349a80ffaf53948,TCR,2024-06-24_14h48.06.065,LearnStrategy,2023.2.3,Win32,60.24096386,8,2,8,,,,,,,,7,13,,,,,,,,,,,7,1.079,1,,,,,,0.12109375,-0.40625,1,0,0,1.079,Peridotite_rect,7,0,7,0,1,
65e1e10fd349a80ffaf53948,TCR,2024-06-24_14h48.06.065,LearnStrategy,2023.2.3,Win32,60.24096386,8,2,9,,,,,,,,3,15,,,,,,,,,,,3,2.18,1,,,,,,0.10546875,-0.266927083,1,0,0,2.1797,Diorite_rect,8,0,8,0,1,
65e1e10fd349a80ffaf53948,TCR,2024-06-24_14h48.06.065,LearnStrategy,2023.2.3,Win32,60.24096386,8,2,10,,,,,,,,8,08,,,,,,,,,,,8,1.029,1,,,,,,0.342447917,-0.385416667,1,0,0,1.0291,Pumice_rect,9,0,9,0,1,
65e1e10fd349a80ffaf53948,TCR,2024-06-24_14h48.06.065,LearnStrategy,2023.2.3,Win32,60.24096386,8,2,11,,,,,,,,4,03,,,,,,,,,,,4,1.125,1,,,,,,0.372395833,-0.266927083,1,0,0,1.1246,Gabbro_rect,10,0,10,0,1,
65e1e10fd349a80ffaf53948,TCR,2024-06-24_14h48.06.065,LearnStrategy,2023.2.3,Win32,60.24096386,8,2,12,,,,,,,,2,01,,,,,,,,,,,2,0.99,1,,,,,,-0.134114583,-0.248697917,1,0,0,0.9895,Basalt_rect,11,0,11,0,1,
65e1e10fd349a80ffaf53948,TCR,2024-06-24_14h48.06.065,LearnStrategy,2023.2.3,Win32,60.24096386,8,2,13,,,,,,,,2,14,,,,,,,,,,,4,7.178,0,,,,,,0.401041667,-0.239583333,1,0,0,7.1781,Gabbro_rect,12,0,12,0,1,
65e1e10fd349a80ffaf53948,TCR,2024-06-24_14h48.06.065,LearnStrategy,2023.2.3,Win32,60.24096386,8,2,14,,,,,,,,5,16,,,,,,,,,,,5,1.072,1,,,,,,-0.364583333,-0.40234375,1,0,0,1.0722,Obsidian_rect,13,0,13,0,1,
65e1e10fd349a80ffaf53948,TCR,2024-06-24_14h48.06.065,LearnStrategy,2023.2.3,Win32,60.24096386,8,2,15,,,,,,,,7,07,,,,,,,,,,,7,1.622,1,,,,,,0.09765625,-0.415364583,1,0,0,1.622,Peridotite_rect,14,0,14,0,1,
65e1e10fd349a80ffaf53948,TCR,2024-06-24_14h48.06.065,LearnStrategy,2023.2.3,Win32,60.24096386,8,2,16,,,,,,,,3,13,,,,,,,,,,,3,3.034,1,,,,,,0.102864583,-0.263020833,1,0,0,3.0345,Diorite_rect,15,0,15,0,1,
65e1e10fd349a80ffaf53948,TCR,2024-06-24_14h48.06.065,LearnStrategy,2023.2.3,Win32,60.24096386,9,1,1,-0.006510417,-0.018229167,1,0,0,1.2104,rock_grid_rect_2,6,15,-1,-1,1.21,-0.154947917,-0.39453125,1,0,0,1.4796,Pegmatite_rect,6,1.48,1,0,0,0,0,1,,,,,,,,,,,,,
65e1e10fd349a80ffaf53948,TCR,2024-06-24_14h48.06.065,LearnStrategy,2023.2.3,Win32,60.24096386,9,1,2,0.032552083,0.020833333,1,0,0,1.4438,rock_grid_rect_2,7,16,-1,-1,1.444,0.138020833,-0.393229167,1,0,0,1.5864,Peridotite_rect,7,1.586,1,1,0,1,0,1,,,,,,,,,,,,,
65e1e10fd349a80ffaf53948,TCR,2024-06-24_14h48.06.065,LearnStrategy,2023.2.3,Win32,60.24096386,9,1,3,-0.020833333,-0.00390625,1,0,0,1.3553,rock_grid_rect_2,1,02,-1,-1,1.355,-0.384114583,-0.235677083,1,0,0,1.6469,Andesite_rect,1,1.647,1,2,0,2,0,1,,,,,,,,,,,,,
65e1e10fd349a80ffaf53948,TCR,2024-06-24_14h48.06.065,LearnStrategy,2023.2.3,Win32,60.24096386,9,1,4,0.036458333,-0.020833333,1,0,0,1.3939,rock_grid_rect_2,1,01,-1,-1,1.394,-0.330729167,-0.235677083,1,0,0,1.8317,Andesite_rect,1,1.832,1,3,0,3,0,1,,,,,,,,,,,,,
65e1e10fd349a80ffaf53948,TCR,2024-06-24_14h48.06.065,LearnStrategy,2023.2.3,Win32,60.24096386,9,1,5,0,-0.00390625,1,0,0,1.1564,rock_grid_rect_2,2,04,-1,-1,1.156,-0.122395833,-0.26171875,1,0,0,1.3592,Basalt_rect,2,1.359,1,4,0,4,0,1,,,,,,,,,,,,,
65e1e10fd349a80ffaf53948,TCR,2024-06-24_14h48.06.065,LearnStrategy,2023.2.3,Win32,60.24096386,9,1,6,-0.014322917,0.005208333,1,0,0,1.4606,rock_grid_rect_2,1,05,-1,-1,1.461,-0.471354167,-0.235677083,1,0,0,1.5966,Andesite_rect,1,1.597,1,5,0,5,0,1,,,,,,,,,,,,,
65e1e10fd349a80ffaf53948,TCR,2024-06-24_14h48.06.065,LearnStrategy,2023.2.3,Win32,60.24096386,9,1,7,0.026041667,0.013020833,1,0,0,1.4094,rock_grid_rect_2,2,06,-1,-1,1.409,-0.11328125,-0.23828125,1,0,0,2.4505,Basalt_rect,2,2.45,1,6,0,6,0,1,,,,,,,,,,,,,
65e1e10fd349a80ffaf53948,TCR,2024-06-24_14h48.06.065,LearnStrategy,2023.2.3,Win32,60.24096386,9,1,8,0.010416667,-0.015625,1,0,0,1.1777,rock_grid_rect_2,8,02,-1,-1,1.178,0.384114583,-0.3984375,1,0,0,2.0527,Pumice_rect,8,2.053,1,7,0,7,0,1,,,,,,,,,,,,,
65e1e10fd349a80ffaf53948,TCR,2024-06-24_14h48.06.065,LearnStrategy,2023.2.3,Win32,60.24096386,9,1,9,-0.016927083,-0.014322917,1,0,0,1.2272,rock_grid_rect_2,4,08,-1,-1,1.227,0.389322917,-0.26171875,1,0,0,1.8122,Gabbro_rect,4,1.812,1,8,0,8,0,1,,,,,,,,,,,,,
65e1e10fd349a80ffaf53948,TCR,2024-06-24_14h48.06.065,LearnStrategy,2023.2.3,Win32,60.24096386,9,1,10,-0.041666667,-0.01953125,1,0,0,1.4772,rock_grid_rect_2,4,14,-1,-1,1.477,0.37890625,-0.2421875,1,0,0,1.5127,Gabbro_rect,4,1.513,1,9,0,9,0,1,,,,,,,,,,,,,
65e1e10fd349a80ffaf53948,TCR,2024-06-24_14h48.06.065,LearnStrategy,2023.2.3,Win32,60.24096386,9,1,11,-0.055989583,0.002604167,1,0,0,1.0785,rock_grid_rect_2,1,16,-1,-1,1.079,-0.420572917,-0.2421875,1,0,0,1.6606,Andesite_rect,1,1.661,1,10,0,10,0,1,,,,,,,,,,,,,
65e1e10fd349a80ffaf53948,TCR,2024-06-24_14h48.06.065,LearnStrategy,2023.2.3,Win32,60.24096386,9,1,12,0.03515625,-0.013020833,1,0,0,1.2259,rock_grid_rect_2,6,13,-1,-1,1.226,-0.154947917,-0.41015625,1,0,0,1.7224,Pegmatite_rect,6,1.722,1,11,0,11,0,1,,,,,,,,,,,,,
65e1e10fd349a80ffaf53948,TCR,2024-06-24_14h48.06.065,LearnStrategy,2023.2.3,Win32,60.24096386,9,1,13,-0.036458333,0.002604167,1,0,0,1.1216,rock_grid_rect_2,4,16,-1,-1,1.122,0.385416667,-0.231770833,1,0,0,1.6541,Gabbro_rect,4,1.654,1,12,0,12,0,1,,,,,,,,,,,,,
65e1e10fd349a80ffaf53948,TCR,2024-06-24_14h48.06.065,LearnStrategy,2023.2.3,Win32,60.24096386,9,1,14,-0.095052083,0.0078125,1,0,0,1.0686,rock_grid_rect_2,3,09,-1,-1,1.069,0.098958333,-0.2421875,1,0,0,1.6555,Diorite_rect,3,1.656,1,13,0,13,0,1,,,,,,,,,,,,,
65e1e10fd349a80ffaf53948,TCR,2024-06-24_14h48.06.065,LearnStrategy,2023.2.3,Win32,60.24096386,9,1,15,0.00390625,-0.016927083,1,0,0,1.0777,rock_grid_rect_2,1,04,-1,-1,1.078,-0.37890625,-0.229166667,1,0,0,1.8372,Andesite_rect,1,1.837,1,14,0,14,0,1,,,,,,,,,,,,,
65e1e10fd349a80ffaf53948,TCR,2024-06-24_14h48.06.065,LearnStrategy,2023.2.3,Win32,60.24096386,9,1,16,0.014322917,-0.013020833,1,0,0,1.2273,rock_grid_rect_2,2,06,-1,-1,1.227,-0.109375,-0.25,1,0,0,1.4668,Basalt_rect,2,1.467,1,15,0,15,0,1,,,,,,,,,,,,,
65e1e10fd349a80ffaf53948,TCR,2024-06-24_14h48.06.065,LearnStrategy,2023.2.3,Win32,60.24096386,9,2,1,,,,,,,,2,10,,,,,,,,,,,2,1.929,1,,,,,,-0.131510417,-0.252604167,1,0,0,1.9288,Basalt_rect,0,0,0,0,1,
65e1e10fd349a80ffaf53948,TCR,2024-06-24_14h48.06.065,LearnStrategy,2023.2.3,Win32,60.24096386,9,2,2,,,,,,,,6,10,,,,,,,,,,,7,1.751,0,,,,,,0.157552083,-0.421875,1,0,0,1.7509,Peridotite_rect,1,0,1,0,1,
65e1e10fd349a80ffaf53948,TCR,2024-06-24_14h48.06.065,LearnStrategy,2023.2.3,Win32,60.24096386,9,2,3,,,,,,,,3,14,,,,,,,,,,,3,2.227,1,,,,,,0.119791667,-0.244791667,1,0,0,2.2273,Diorite_rect,2,0,2,0,1,
65e1e10fd349a80ffaf53948,TCR,2024-06-24_14h48.06.065,LearnStrategy,2023.2.3,Win32,60.24096386,9,2,4,,,,,,,,1,11,,,,,,,,,,,1,15.178,1,,,,,,-0.451822917,-0.266927083,1,0,0,15.1784,Andesite_rect,3,0,3,0,1,
65e1e10fd349a80ffaf53948,TCR,2024-06-24_14h48.06.065,LearnStrategy,2023.2.3,Win32,60.24096386,9,2,5,,,,,,,,8,04,,,,,,,,,,,8,1.443,1,,,,,,0.444010417,-0.389322917,1,0,0,1.4428,Pumice_rect,4,0,4,0,1,
65e1e10fd349a80ffaf53948,TCR,2024-06-24_14h48.06.065,LearnStrategy,2023.2.3,Win32,60.24096386,9,2,6,,,,,,,,2,02,,,,,,,,,,,2,1.281,1,,,,,,-0.1328125,-0.265625,1,0,0,1.2809,Basalt_rect,5,0,5,0,1,
65e1e10fd349a80ffaf53948,TCR,2024-06-24_14h48.06.065,LearnStrategy,2023.2.3,Win32,60.24096386,9,2,7,,,,,,,,1,14,,,,,,,,,,,1,3.286,1,,,,,,-0.41015625,-0.239583333,1,0,0,3.2864,Andesite_rect,6,0,6,0,1,
65e1e10fd349a80ffaf53948,TCR,2024-06-24_14h48.06.065,LearnStrategy,2023.2.3,Win32,60.24096386,9,2,8,,,,,,,,3,10,,,,,,,,,,,3,3.837,1,,,,,,0.12890625,-0.24609375,1,0,0,3.837,Diorite_rect,7,0,7,0,1,
65e1e10fd349a80ffaf53948,TCR,2024-06-24_14h48.06.065,LearnStrategy,2023.2.3,Win32,60.24096386,9,2,9,,,,,,,,4,09,,,,,,,,,,,6,13.773,0,,,,,,-0.143229167,-0.399739583,1,0,0,13.7725,Pegmatite_rect,8,0,8,0,1,
65e1e10fd349a80ffaf53948,TCR,2024-06-24_14h48.06.065,LearnStrategy,2023.2.3,Win32,60.24096386,9,2,10,,,,,,,,6,03,,,,,,,,,,,6,1.991,1,,,,,,-0.1484375,-0.401041667,1,0,0,1.9909,Pegmatite_rect,9,0,9,0,1,
65e1e10fd349a80ffaf53948,TCR,2024-06-24_14h48.06.065,LearnStrategy,2023.2.3,Win32,60.24096386,9,2,11,,,,,,,,8,06,,,,,,,,,,,8,1.795,1,,,,,,0.373697917,-0.397135417,1,0,0,1.7946,Pumice_rect,10,0,10,0,1,
65e1e10fd349a80ffaf53948,TCR,2024-06-24_14h48.06.065,LearnStrategy,2023.2.3,Win32,60.24096386,9,2,12,,,,,,,,7,06,,,,,,,,,,,7,1.745,1,,,,,,0.151041667,-0.40234375,1,0,0,1.7446,Peridotite_rect,11,0,11,0,1,
65e1e10fd349a80ffaf53948,TCR,2024-06-24_14h48.06.065,LearnStrategy,2023.2.3,Win32,60.24096386,9,2,13,,,,,,,,4,01,,,,,,,,,,,4,6.416,1,,,,,,0.3828125,-0.247395833,1,0,0,6.4157,Gabbro_rect,12,0,12,0,1,
65e1e10fd349a80ffaf53948,TCR,2024-06-24_14h48.06.065,LearnStrategy,2023.2.3,Win32,60.24096386,9,2,14,,,,,,,,5,04,,,,,,,,,,,5,2.408,1,,,,,,-0.41015625,-0.40234375,1,0,0,2.4076,Obsidian_rect,13,0,13,0,1,
65e1e10fd349a80ffaf53948,TCR,2024-06-24_14h48.06.065,LearnStrategy,2023.2.3,Win32,60.24096386,9,2,15,,,,,,,,7,10,,,,,,,,,,,7,1.968,1,,,,,,0.145833333,-0.404947917,1,0,0,1.9682,Peridotite_rect,14,0,14,0,1,
65e1e10fd349a80ffaf53948,TCR,2024-06-24_14h48.06.065,LearnStrategy,2023.2.3,Win32,60.24096386,9,2,16,,,,,,,,5,07,,,,,,,,,,,5,1.788,1,,,,,,-0.3828125,-0.404947917,1,0,0,1.7875,Obsidian_rect,15,0,15,0,1,
65e1e10fd349a80ffaf53948,TCR,2024-06-24_14h48.06.065,LearnStrategy,2023.2.3,Win32,60.24096386,,,,,,,,,,,,,,,,,,,,,,,,,,,,,,,,,,,,,,,,,,,1
65e1e10fd349a80ffaf53948,TCR,2024-06-24_14h48.06.065,LearnStrategy,2023.2.3,Win32,60.24096386,,,,,,,,,,,,,,,,,,,,,,,,,,,,,,,,,,,,,,,,,,,
65e1e10fd349a80ffaf53948,TCR,2024-06-24_14h48.06.065,LearnStrategy,2023.2.3,Win32,60.24096386,,,,,,,,,,,4,12,1,1,,,,,,,,,,,,,,,,,,,,,,,,,,,,,
65e1e10fd349a80ffaf53948,TCR,2024-06-24_14h48.06.065,LearnStrategy,2023.2.3,Win32,60.24096386,,,,,,,,,,,7,16,1,2,,,,,,,,,,,,,,,,,,,,,,,,,,,,,
65e1e10fd349a80ffaf53948,TCR,2024-06-24_14h48.06.065,LearnStrategy,2023.2.3,Win32,60.24096386,,,,,,,,,,,3,09,1,3,,,,,,,,,,,,,,,,,,,,,,,,,,,,,
65e1e10fd349a80ffaf53948,TCR,2024-06-24_14h48.06.065,LearnStrategy,2023.2.3,Win32,60.24096386,,,,,,,,,,,5,14,1,4,,,,,,,,,,,,,,,,,,,,,,,,,,,,,
65e1e10fd349a80ffaf53948,TCR,2024-06-24_14h48.06.065,LearnStrategy,2023.2.3,Win32,60.24096386,,,,,,,,,,,6,15,1,5,,,,,,,,,,,,,,,,,,,,,,,,,,,,,
65e1e10fd349a80ffaf53948,TCR,2024-06-24_14h48.06.065,LearnStrategy,2023.2.3,Win32,60.24096386,,,,,,,,,,,4,11,1,6,,,,,,,,,,,,,,,,,,,,,,,,,,,,,
65e1e10fd349a80ffaf53948,TCR,2024-06-24_14h48.06.065,LearnStrategy,2023.2.3,Win32,60.24096386,,,,,,,,,,,2,06,1,7,,,,,,,,,,,,,,,,,,,,,,,,,,,,,
65e1e10fd349a80ffaf53948,TCR,2024-06-24_14h48.06.065,LearnStrategy,2023.2.3,Win32,60.24096386,,,,,,,,,,,8,03,1,8,,,,,,,,,,,,,,,,,,,,,,,,,,,,,
65e1e10fd349a80ffaf53948,TCR,2024-06-24_14h48.06.065,LearnStrategy,2023.2.3,Win32,60.24096386,,,,,,,,,,,8,02,2,1,,,,,,,,,,,,,,,,,,,,,,,,,,,,,
65e1e10fd349a80ffaf53948,TCR,2024-06-24_14h48.06.065,LearnStrategy,2023.2.3,Win32,60.24096386,,,,,,,,,,,3,11,2,2,,,,,,,,,,,,,,,,,,,,,,,,,,,,,
65e1e10fd349a80ffaf53948,TCR,2024-06-24_14h48.06.065,LearnStrategy,2023.2.3,Win32,60.24096386,,,,,,,,,,,4,08,2,3,,,,,,,,,,,,,,,,,,,,,,,,,,,,,
65e1e10fd349a80ffaf53948,TCR,2024-06-24_14h48.06.065,LearnStrategy,2023.2.3,Win32,60.24096386,,,,,,,,,,,1,01,2,4,,,,,,,,,,,,,,,,,,,,,,,,,,,,,
65e1e10fd349a80ffaf53948,TCR,2024-06-24_14h48.06.065,LearnStrategy,2023.2.3,Win32,60.24096386,,,,,,,,,,,7,04,2,5,,,,,,,,,,,,,,,,,,,,,,,,,,,,,
65e1e10fd349a80ffaf53948,TCR,2024-06-24_14h48.06.065,LearnStrategy,2023.2.3,Win32,60.24096386,,,,,,,,,,,1,02,2,6,,,,,,,,,,,,,,,,,,,,,,,,,,,,,
65e1e10fd349a80ffaf53948,TCR,2024-06-24_14h48.06.065,LearnStrategy,2023.2.3,Win32,60.24096386,,,,,,,,,,,7,14,2,7,,,,,,,,,,,,,,,,,,,,,,,,,,,,,
65e1e10fd349a80ffaf53948,TCR,2024-06-24_14h48.06.065,LearnStrategy,2023.2.3,Win32,60.24096386,,,,,,,,,,,8,05,2,8,,,,,,,,,,,,,,,,,,,,,,,,,,,,,
65e1e10fd349a80ffaf53948,TCR,2024-06-24_14h48.06.065,LearnStrategy,2023.2.3,Win32,60.24096386,,,,,,,,,,,8,14,3,1,,,,,,,,,,,,,,,,,,,,,,,,,,,,,
65e1e10fd349a80ffaf53948,TCR,2024-06-24_14h48.06.065,LearnStrategy,2023.2.3,Win32,60.24096386,,,,,,,,,,,2,16,3,2,,,,,,,,,,,,,,,,,,,,,,,,,,,,,
65e1e10fd349a80ffaf53948,TCR,2024-06-24_14h48.06.065,LearnStrategy,2023.2.3,Win32,60.24096386,,,,,,,,,,,6,09,3,3,,,,,,,,,,,,,,,,,,,,,,,,,,,,,
65e1e10fd349a80ffaf53948,TCR,2024-06-24_14h48.06.065,LearnStrategy,2023.2.3,Win32,60.24096386,,,,,,,,,,,1,16,3,4,,,,,,,,,,,,,,,,,,,,,,,,,,,,,
65e1e10fd349a80ffaf53948,TCR,2024-06-24_14h48.06.065,LearnStrategy,2023.2.3,Win32,60.24096386,,,,,,,,,,,4,14,3,5,,,,,,,,,,,,,,,,,,,,,,,,,,,,,
65e1e10fd349a80ffaf53948,TCR,2024-06-24_14h48.06.065,LearnStrategy,2023.2.3,Win32,60.24096386,,,,,,,,,,,6,16,3,6,,,,,,,,,,,,,,,,,,,,,,,,,,,,,
65e1e10fd349a80ffaf53948,TCR,2024-06-24_14h48.06.065,LearnStrategy,2023.2.3,Win32,60.24096386,,,,,,,,,,,6,07,3,7,,,,,,,,,,,,,,,,,,,,,,,,,,,,,
65e1e10fd349a80ffaf53948,TCR,2024-06-24_14h48.06.065,LearnStrategy,2023.2.3,Win32,60.24096386,,,,,,,,,,,1,09,3,8,,,,,,,,,,,,,,,,,,,,,,,,,,,,,
65e1e10fd349a80ffaf53948,TCR,2024-06-24_14h48.06.065,LearnStrategy,2023.2.3,Win32,60.24096386,,,,,,,,,,,4,05,4,1,,,,,,,,,,,,,,,,,,,,,,,,,,,,,
65e1e10fd349a80ffaf53948,TCR,2024-06-24_14h48.06.065,LearnStrategy,2023.2.3,Win32,60.24096386,,,,,,,,,,,2,04,4,2,,,,,,,,,,,,,,,,,,,,,,,,,,,,,
65e1e10fd349a80ffaf53948,TCR,2024-06-24_14h48.06.065,LearnStrategy,2023.2.3,Win32,60.24096386,,,,,,,,,,,4,16,4,3,,,,,,,,,,,,,,,,,,,,,,,,,,,,,
65e1e10fd349a80ffaf53948,TCR,2024-06-24_14h48.06.065,LearnStrategy,2023.2.3,Win32,60.24096386,,,,,,,,,,,7,02,4,4,,,,,,,,,,,,,,,,,,,,,,,,,,,,,
65e1e10fd349a80ffaf53948,TCR,2024-06-24_14h48.06.065,LearnStrategy,2023.2.3,Win32,60.24096386,,,,,,,,,,,3,12,4,5,,,,,,,,,,,,,,,,,,,,,,,,,,,,,
65e1e10fd349a80ffaf53948,TCR,2024-06-24_14h48.06.065,LearnStrategy,2023.2.3,Win32,60.24096386,,,,,,,,,,,6,13,4,6,,,,,,,,,,,,,,,,,,,,,,,,,,,,,
65e1e10fd349a80ffaf53948,TCR,2024-06-24_14h48.06.065,LearnStrategy,2023.2.3,Win32,60.24096386,,,,,,,,,,,1,05,4,7,,,,,,,,,,,,,,,,,,,,,,,,,,,,,
65e1e10fd349a80ffaf53948,TCR,2024-06-24_14h48.06.065,LearnStrategy,2023.2.3,Win32,60.24096386,,,,,,,,,,,1,04,4,8,,,,,,,,,,,,,,,,,,,,,,,,,,,,,
65e1e10fd349a80ffaf53948,TCR,2024-06-24_14h48.06.065,LearnStrategy,2023.2.3,Win32,60.24096386,,,,,,,,,,,2,12,5,1,,,,,,,,,,,,,,,,,,,,,,,,,,,,,
65e1e10fd349a80ffaf53948,TCR,2024-06-24_14h48.06.065,LearnStrategy,2023.2.3,Win32,60.24096386,,,,,,,,,,,2,08,5,2,,,,,,,,,,,,,,,,,,,,,,,,,,,,,
65e1e10fd349a80ffaf53948,TCR,2024-06-24_14h48.06.065,LearnStrategy,2023.2.3,Win32,60.24096386,,,,,,,,,,,5,05,5,3,,,,,,,,,,,,,,,,,,,,,,,,,,,,,
65e1e10fd349a80ffaf53948,TCR,2024-06-24_14h48.06.065,LearnStrategy,2023.2.3,Win32,60.24096386,,,,,,,,,,,5,06,5,4,,,,,,,,,,,,,,,,,,,,,,,,,,,,,
65e1e10fd349a80ffaf53948,TCR,2024-06-24_14h48.06.065,LearnStrategy,2023.2.3,Win32,60.24096386,,,,,,,,,,,3,16,5,5,,,,,,,,,,,,,,,,,,,,,,,,,,,,,
65e1e10fd349a80ffaf53948,TCR,2024-06-24_14h48.06.065,LearnStrategy,2023.2.3,Win32,60.24096386,,,,,,,,,,,6,05,5,6,,,,,,,,,,,,,,,,,,,,,,,,,,,,,
65e1e10fd349a80ffaf53948,TCR,2024-06-24_14h48.06.065,LearnStrategy,2023.2.3,Win32,60.24096386,,,,,,,,,,,7,08,5,7,,,,,,,,,,,,,,,,,,,,,,,,,,,,,
65e1e10fd349a80ffaf53948,TCR,2024-06-24_14h48.06.065,LearnStrategy,2023.2.3,Win32,60.24096386,,,,,,,,,,,7,15,5,8,,,,,,,,,,,,,,,,,,,,,,,,,,,,,
65e1e10fd349a80ffaf53948,TCR,2024-06-24_14h48.06.065,LearnStrategy,2023.2.3,Win32,60.24096386,,,,,,,,,,,3,02,6,1,,,,,,,,,,,,,,,,,,,,,,,,,,,,,
65e1e10fd349a80ffaf53948,TCR,2024-06-24_14h48.06.065,LearnStrategy,2023.2.3,Win32,60.24096386,,,,,,,,,,,5,10,6,2,,,,,,,,,,,,,,,,,,,,,,,,,,,,,
65e1e10fd349a80ffaf53948,TCR,2024-06-24_14h48.06.065,LearnStrategy,2023.2.3,Win32,60.24096386,,,,,,,,,,,8,16,6,3,,,,,,,,,,,,,,,,,,,,,,,,,,,,,
65e1e10fd349a80ffaf53948,TCR,2024-06-24_14h48.06.065,LearnStrategy,2023.2.3,Win32,60.24096386,,,,,,,,,,,3,08,6,4,,,,,,,,,,,,,,,,,,,,,,,,,,,,,
65e1e10fd349a80ffaf53948,TCR,2024-06-24_14h48.06.065,LearnStrategy,2023.2.3,Win32,60.24096386,,,,,,,,,,,8,15,6,5,,,,,,,,,,,,,,,,,,,,,,,,,,,,,
65e1e10fd349a80ffaf53948,TCR,2024-06-24_14h48.06.065,LearnStrategy,2023.2.3,Win32,60.24096386,,,,,,,,,,,5,11,6,6,,,,,,,,,,,,,,,,,,,,,,,,,,,,,
65e1e10fd349a80ffaf53948,TCR,2024-06-24_14h48.06.065,LearnStrategy,2023.2.3,Win32,60.24096386,,,,,,,,,,,2,05,6,7,,,,,,,,,,,,,,,,,,,,,,,,,,,,,
65e1e10fd349a80ffaf53948,TCR,2024-06-24_14h48.06.065,LearnStrategy,2023.2.3,Win32,60.24096386,,,,,,,,,,,5,02,6,8,,,,,,,,,,,,,,,,,,,,,,,,,,,,,