participant,condition,date,expName,psychopyVersion,OS,frameRate,block,phase,trial,learn_mouse.x,learn_mouse.y,learn_mouse.leftButton,learn_mouse.midButton,learn_mouse.rightButton,learn_mouse.time,learn_mouse.clicked_name,cat,token,row,col,t_select,cat_rec,token_rec,cat_mouse_l.x,cat_mouse_l.y,cat_mouse_l.leftButton,cat_mouse_l.midButton,cat_mouse_l.rightButton,cat_mouse_l.time,cat_mouse_l.clicked_name,resp,t_resp,corr,train_trials.thisRepN,train_trials.thisTrialN,train_trials.thisN,train_trials.thisIndex,train_trials.ran,cat_mouse_t.x,cat_mouse_t.y,cat_mouse_t.leftButton,cat_mouse_t.midButton,cat_mouse_t.rightButton,cat_mouse_t.time,cat_mouse_t.clicked_name,test_trials.thisRepN,test_trials.thisTrialN,test_trials.thisN,test_trials.thisIndex,test_trials.ran
65e257541a1445e571e8525f,SCR,2024-06-10_13h50.21.558,LearnStrategy,2023.2.3,Win32,61.34969325,,,,,,,,,,,,,,,,,,,,,,,,,,,,,,,,,,,,,,,,,,,,
65e257541a1445e571e8525f,SCR,2024-06-10_13h50.21.558,LearnStrategy,2023.2.3,Win32,61.34969325,1,1,1,0.078703732,-0.095370399,1,0,0,5.202,Pegmatite_05,6,05,3,5,5.202,6,05,0.105555556,-0.387037065,1,0,0,10.3867,Peridotite_rect,7,10.387,0,0,0,0,0,1,,,,,,,,,,,,
65e257541a1445e571e8525f,SCR,2024-06-10_13h50.21.558,LearnStrategy,2023.2.3,Win32,61.34969325,1,1,2,0.414814843,-0.440740797,1,0,0,1.4415,Peridotite_12,7,12,1,7,1.441,7,12,-0.355555556,-0.239814843,1,0,0,3.0079,Andesite_rect,1,3.008,0,1,0,1,0,1,,,,,,,,,,,,
65e257541a1445e571e8525f,SCR,2024-06-10_13h50.21.558,LearnStrategy,2023.2.3,Win32,61.34969325,1,1,3,-0.080555556,-0.268518575,1,0,0,1.1452,Peridotite_14,7,14,2,4,1.145,7,14,0.365740797,-0.411111111,1,0,0,2.5774,Pumice_rect,8,2.577,0,2,0,2,0,1,,,,,,,,,,,,
65e257541a1445e571e8525f,SCR,2024-06-10_13h50.21.558,LearnStrategy,2023.2.3,Win32,61.34969325,1,1,4,0.53148151,0.411111111,1,0,0,1.2097,Basalt_01,2,01,6,8,1.21,2,01,0.441666667,-0.399074131,1,0,0,7.1309,Pumice_rect,8,7.131,0,3,0,3,0,1,,,,,,,,,,,,
65e257541a1445e571e8525f,SCR,2024-06-10_13h50.21.558,LearnStrategy,2023.2.3,Win32,61.34969325,1,1,5,0.259259288,0.252777778,1,0,0,1.3602,Diorite_16,3,16,5,6,1.36,3,16,0.354629686,-0.397222222,1,0,0,2.1297,Pumice_rect,8,2.13,0,4,0,4,0,1,,,,,,,,,,,,
65e257541a1445e571e8525f,SCR,2024-06-10_13h50.21.558,LearnStrategy,2023.2.3,Win32,61.34969325,1,1,6,-0.382407379,-0.259259288,1,0,0,1.0786,Andesite_05,1,05,2,2,1.079,1,05,0.394444444,-0.411111111,1,0,0,1.9451,Pumice_rect,8,1.945,0,5,0,5,0,1,,,,,,,,,,,,
65e257541a1445e571e8525f,SCR,2024-06-10_13h50.21.558,LearnStrategy,2023.2.3,Win32,61.34969325,1,1,7,-0.574074067,0.270370356,1,0,0,1.2342,Gabbro_01,4,01,5,1,1.234,4,01,-0.372222222,-0.253703732,1,0,0,9.5072,Andesite_rect,1,9.507,0,6,0,6,0,1,,,,,,,,,,,,
65e257541a1445e571e8525f,SCR,2024-06-10_13h50.21.558,LearnStrategy,2023.2.3,Win32,61.34969325,1,1,8,0.103703732,-0.421296353,1,0,0,1.0641,Obsidian_09,5,09,1,5,1.064,5,09,-0.375,-0.38148151,1,0,0,1.5963,Obsidian_rect,5,1.596,1,7,0,7,0,1,,,,,,,,,,,,
65e257541a1445e571e8525f,SCR,2024-06-10_13h50.21.558,LearnStrategy,2023.2.3,Win32,61.34969325,1,1,9,-0.082407379,0.231481467,1,0,0,1.2322,Pumice_13,8,13,5,4,1.232,8,13,0.35,-0.238888889,1,0,0,6.4426,Gabbro_rect,4,6.443,0,8,0,8,0,1,,,,,,,,,,,,
65e257541a1445e571e8525f,SCR,2024-06-10_13h50.21.558,LearnStrategy,2023.2.3,Win32,61.34969325,1,1,10,-0.237962935,-0.425,1,0,0,1.695,Pumice_05,8,05,1,3,1.695,8,05,0.388888889,-0.403703732,1,0,0,9.5702,Pumice_rect,8,9.57,1,9,0,9,0,1,,,,,,,,,,,,
65e257541a1445e571e8525f,SCR,2024-06-10_13h50.21.558,LearnStrategy,2023.2.3,Win32,61.34969325,1,1,11,0.574074131,-0.415740797,1,0,0,1.192,Diorite_09,3,09,1,8,1.192,3,09,0.140740797,-0.237037065,1,0,0,7.5269,Diorite_rect,3,7.527,1,10,0,10,0,1,,,,,,,,,,,,
65e257541a1445e571e8525f,SCR,2024-06-10_13h50.21.558,LearnStrategy,2023.2.3,Win32,61.34969325,1,1,12,0.060185242,0.27870369,1,0,0,0.9772,Basalt_16,2,16,5,5,0.977,2,16,0.391666667,-0.389814843,1,0,0,4.5631,Pumice_rect,8,4.563,0,11,0,11,0,1,,,,,,,,,,,,
65e257541a1445e571e8525f,SCR,2024-06-10_13h50.21.558,LearnStrategy,2023.2.3,Win32,61.34969325,1,1,13,0.413888889,0.081481467,1,0,0,1.167,Andesite_03,1,03,4,7,1.167,1,03,-0.408333333,-0.266666667,1,0,0,16.9332,Andesite_rect,1,16.933,1,12,0,12,0,1,,,,,,,,,,,,
65e257541a1445e571e8525f,SCR,2024-06-10_13h50.21.558,LearnStrategy,2023.2.3,Win32,61.34969325,1,1,14,0.589814928,0.058333333,1,0,0,1.1256,Gabbro_09,4,09,4,8,1.126,4,09,0.113888889,-0.255555556,1,0,0,8.4492,Diorite_rect,3,8.449,0,13,0,13,0,1,,,,,,,,,,,,
65e257541a1445e571e8525f,SCR,2024-06-10_13h50.21.558,LearnStrategy,2023.2.3,Win32,61.34969325,1,1,15,-0.401851824,-0.432407464,1,0,0,1.193,Obsidian_02,5,02,1,2,1.193,5,02,-0.356481467,-0.401851908,1,0,0,1.4825,Obsidian_rect,5,1.483,1,14,0,14,0,1,,,,,,,,,,,,
65e257541a1445e571e8525f,SCR,2024-06-10_13h50.21.558,LearnStrategy,2023.2.3,Win32,61.34969325,1,1,16,0.536111111,0.266666667,1,0,0,3.6043,Pegmatite_03,6,03,5,8,3.604,6,03,0.139814843,-0.400925954,1,0,0,12.9865,Peridotite_rect,7,12.986,0,15,0,15,0,1,,,,,,,,,,,,
65e257541a1445e571e8525f,SCR,2024-06-10_13h50.21.558,LearnStrategy,2023.2.3,Win32,61.34969325,1,2,1,,,,,,,,6,16,,,,,,,,,,,,,6,5.539,1,,,,,,-0.146296268,-0.401851908,1,0,0,5.5394,Pegmatite_rect,0,0,0,0,1
65e257541a1445e571e8525f,SCR,2024-06-10_13h50.21.558,LearnStrategy,2023.2.3,Win32,61.34969325,1,2,2,,,,,,,,3,02,,,,,,,,,,,,,3,12.175,1,,,,,,0.133333333,-0.269444444,1,0,0,12.1749,Diorite_rect,1,0,1,0,1
65e257541a1445e571e8525f,SCR,2024-06-10_13h50.21.558,LearnStrategy,2023.2.3,Win32,61.34969325,1,2,3,,,,,,,,6,15,,,,,,,,,,,,,6,3.163,1,,,,,,-0.133333333,-0.4,1,0,0,3.1635,Pegmatite_rect,2,0,2,0,1
65e257541a1445e571e8525f,SCR,2024-06-10_13h50.21.558,LearnStrategy,2023.2.3,Win32,61.34969325,1,2,4,,,,,,,,2,09,,,,,,,,,,,,,2,3.164,1,,,,,,-0.142592536,-0.251851908,1,0,0,3.1638,Basalt_rect,3,0,3,0,1
65e257541a1445e571e8525f,SCR,2024-06-10_13h50.21.558,LearnStrategy,2023.2.3,Win32,61.34969325,1,2,5,,,,,,,,2,14,,,,,,,,,,,,,2,13.175,1,,,,,,-0.142592536,-0.245370399,1,0,0,13.1746,Basalt_rect,4,0,4,0,1
65e257541a1445e571e8525f,SCR,2024-06-10_13h50.21.558,LearnStrategy,2023.2.3,Win32,61.34969325,1,2,6,,,,,,,,8,15,,,,,,,,,,,,,8,4.727,1,,,,,,0.421296353,-0.40648151,1,0,0,4.7272,Pumice_rect,5,0,5,0,1
65e257541a1445e571e8525f,SCR,2024-06-10_13h50.21.558,LearnStrategy,2023.2.3,Win32,61.34969325,1,2,7,,,,,,,,5,12,,,,,,,,,,,,,5,1.449,1,,,,,,-0.337962935,-0.387963019,1,0,0,1.4491,Obsidian_rect,6,0,6,0,1
65e257541a1445e571e8525f,SCR,2024-06-10_13h50.21.558,LearnStrategy,2023.2.3,Win32,61.34969325,1,2,8,,,,,,,,7,13,,,,,,,,,,,,,4,18.787,0,,,,,,0.375,-0.233333333,1,0,0,18.7872,Gabbro_rect,7,0,7,0,1
65e257541a1445e571e8525f,SCR,2024-06-10_13h50.21.558,LearnStrategy,2023.2.3,Win32,61.34969325,1,2,9,,,,,,,,8,16,,,,,,,,,,,,,8,2.105,1,,,,,,0.376851908,-0.411111111,1,0,0,2.1053,Pumice_rect,8,0,8,0,1
65e257541a1445e571e8525f,SCR,2024-06-10_13h50.21.558,LearnStrategy,2023.2.3,Win32,61.34969325,1,2,10,,,,,,,,1,06,,,,,,,,,,,,,4,14.498,0,,,,,,0.432407464,-0.259259288,1,0,0,14.4983,Gabbro_rect,9,0,9,0,1
65e257541a1445e571e8525f,SCR,2024-06-10_13h50.21.558,LearnStrategy,2023.2.3,Win32,61.34969325,1,2,11,,,,,,,,4,15,,,,,,,,,,,,,1,2.04,0,,,,,,-0.337962935,-0.254629686,1,0,0,2.0402,Andesite_rect,10,0,10,0,1
65e257541a1445e571e8525f,SCR,2024-06-10_13h50.21.558,LearnStrategy,2023.2.3,Win32,61.34969325,1,2,12,,,,,,,,3,14,,,,,,,,,,,,,3,3.35,1,,,,,,0.104629686,-0.261111111,1,0,0,3.3503,Diorite_rect,11,0,11,0,1
65e257541a1445e571e8525f,SCR,2024-06-10_13h50.21.558,LearnStrategy,2023.2.3,Win32,61.34969325,1,2,13,,,,,,,,4,10,,,,,,,,,,,,,4,2.745,1,,,,,,0.365740797,-0.246296353,1,0,0,2.7448,Gabbro_rect,12,0,12,0,1
65e257541a1445e571e8525f,SCR,2024-06-10_13h50.21.558,LearnStrategy,2023.2.3,Win32,61.34969325,1,2,14,,,,,,,,7,15,,,,,,,,,,,,,6,1.747,0,,,,,,-0.072222222,-0.385185242,1,0,0,1.7472,Pegmatite_rect,13,0,13,0,1
65e257541a1445e571e8525f,SCR,2024-06-10_13h50.21.558,LearnStrategy,2023.2.3,Win32,61.34969325,1,2,15,,,,,,,,1,04,,,,,,,,,,,,,1,9.896,1,,,,,,-0.315740712,-0.260185242,1,0,0,9.8964,Andesite_rect,14,0,14,0,1
65e257541a1445e571e8525f,SCR,2024-06-10_13h50.21.558,LearnStrategy,2023.2.3,Win32,61.34969325,1,2,16,,,,,,,,5,04,,,,,,,,,,,,,5,1.062,1,,,,,,-0.374074046,-0.395370399,1,0,0,1.0619,Obsidian_rect,15,0,15,0,1
65e257541a1445e571e8525f,SCR,2024-06-10_13h50.21.558,LearnStrategy,2023.2.3,Win32,61.34969325,2,1,1,-0.069444444,0.398148145,1,0,0,5.7919,Peridotite_06,7,06,6,4,5.792,7,06,0.163888889,-0.383333333,1,0,0,4.3398,Peridotite_rect,7,4.34,1,0,0,0,0,1,,,,,,,,,,,,
65e257541a1445e571e8525f,SCR,2024-06-10_13h50.21.558,LearnStrategy,2023.2.3,Win32,61.34969325,2,1,2,-0.06851849,-0.268518575,1,0,0,1.0269,Peridotite_14,7,14,2,4,1.027,7,14,-0.383333333,-0.246296353,1,0,0,4.7156,Andesite_rect,1,4.716,0,1,0,1,0,1,,,,,,,,,,,,
65e257541a1445e571e8525f,SCR,2024-06-10_13h50.21.558,LearnStrategy,2023.2.3,Win32,61.34969325,2,1,3,-0.397222222,0.425925922,1,0,0,1.3596,Gabbro_14,4,14,6,2,1.36,4,14,-0.106481425,-0.228703732,1,0,0,1.4681,Basalt_rect,2,1.468,0,2,0,2,0,1,,,,,,,,,,,,
65e257541a1445e571e8525f,SCR,2024-06-10_13h50.21.558,LearnStrategy,2023.2.3,Win32,61.34969325,2,1,4,0.268518575,-0.273148176,1,0,0,1.1972,Gabbro_05,4,05,2,6,1.197,4,05,0.330555556,-0.240740797,1,0,0,1.9962,Gabbro_rect,4,1.996,1,3,0,3,0,1,,,,,,,,,,,,
65e257541a1445e571e8525f,SCR,2024-06-10_13h50.21.558,LearnStrategy,2023.2.3,Win32,61.34969325,2,1,5,-0.361111111,0.087962935,1,0,0,0.7817,Gabbro_16,4,16,4,2,0.782,4,16,0.377777778,-0.244444444,1,0,0,1.6173,Gabbro_rect,4,1.617,1,4,0,4,0,1,,,,,,,,,,,,
65e257541a1445e571e8525f,SCR,2024-06-10_13h50.21.558,LearnStrategy,2023.2.3,Win32,61.34969325,2,1,6,0.416666667,-0.45,1,0,0,1.3349,Peridotite_12,7,12,1,7,1.335,7,12,0.111111111,-0.401851908,1,0,0,8.6685,Peridotite_rect,7,8.668,1,5,0,5,0,1,,,,,,,,,,,,
65e257541a1445e571e8525f,SCR,2024-06-10_13h50.21.558,LearnStrategy,2023.2.3,Win32,61.34969325,2,1,7,-0.405555556,0.252777778,1,0,0,1.1751,Basalt_06,2,06,5,2,1.175,2,06,-0.137962935,-0.229629686,1,0,0,1.2323,Basalt_rect,2,1.232,1,6,0,6,0,1,,,,,,,,,,,,
65e257541a1445e571e8525f,SCR,2024-06-10_13h50.21.558,LearnStrategy,2023.2.3,Win32,61.34969325,2,1,8,-0.066666667,0.397222222,1,0,0,1.1656,Peridotite_06,7,06,6,4,1.166,7,06,0.142592621,-0.398148176,1,0,0,2.0145,Peridotite_rect,7,2.014,1,7,0,7,0,1,,,,,,,,,,,,
65e257541a1445e571e8525f,SCR,2024-06-10_13h50.21.558,LearnStrategy,2023.2.3,Win32,61.34969325,2,1,9,0.412963019,0.081481467,1,0,0,0.996,Andesite_03,1,03,4,7,0.996,1,03,0.35,-0.265740797,1,0,0,1.3831,Gabbro_rect,4,1.383,0,8,0,8,0,1,,,,,,,,,,,,
65e257541a1445e571e8525f,SCR,2024-06-10_13h50.21.558,LearnStrategy,2023.2.3,Win32,61.34969325,2,1,10,0.429629686,0.425925922,1,0,0,1.4463,Peridotite_16,7,16,6,7,1.446,7,16,0.160185242,-0.250925954,1,0,0,4.9344,Diorite_rect,3,4.934,0,9,0,9,0,1,,,,,,,,,,,,
65e257541a1445e571e8525f,SCR,2024-06-10_13h50.21.558,LearnStrategy,2023.2.3,Win32,61.34969325,2,1,11,0.233333333,0.259259245,1,0,0,0.827,Diorite_16,3,16,5,6,0.827,3,16,0.155555556,-0.254629686,1,0,0,7.2788,Diorite_rect,3,7.279,1,10,0,10,0,1,,,,,,,,,,,,
65e257541a1445e571e8525f,SCR,2024-06-10_13h50.21.558,LearnStrategy,2023.2.3,Win32,61.34969325,2,1,12,-0.55,0.261111111,1,0,0,0.9441,Gabbro_01,4,01,5,1,0.944,4,01,0.378703732,-0.234259288,1,0,0,4.8187,Gabbro_rect,4,4.819,1,11,0,11,0,1,,,,,,,,,,,,
65e257541a1445e571e8525f,SCR,2024-06-10_13h50.21.558,LearnStrategy,2023.2.3,Win32,61.34969325,2,1,13,0.233333333,-0.430555556,1,0,0,1.2621,Pumice_09,8,09,1,6,1.262,8,09,0.403703732,-0.398148176,1,0,0,2.3153,Pumice_rect,8,2.315,1,12,0,12,0,1,,,,,,,,,,,,
65e257541a1445e571e8525f,SCR,2024-06-10_13h50.21.558,LearnStrategy,2023.2.3,Win32,61.34969325,2,1,14,-0.412037023,-0.422222222,1,0,0,0.996,Obsidian_02,5,02,1,2,0.996,5,02,-0.411111111,-0.412963019,0,0,1,0.5342,Obsidian_rect,5,0.534,1,13,0,13,0,1,,,,,,,,,,,,
65e257541a1445e571e8525f,SCR,2024-06-10_13h50.21.558,LearnStrategy,2023.2.3,Win32,61.34969325,2,1,15,-0.535185178,-0.098148176,1,0,0,0.9305,Pegmatite_13,6,13,3,1,0.93,6,13,0.075925954,-0.411111111,1,0,0,2.6316,Peridotite_rect,7,2.632,0,14,0,14,0,1,,,,,,,,,,,,
65e257541a1445e571e8525f,SCR,2024-06-10_13h50.21.558,LearnStrategy,2023.2.3,Win32,61.34969325,2,1,16,0.079629686,0.417592589,1,0,0,1.0124,Andesite_01,1,01,6,5,1.012,1,01,0.385185242,-0.251851908,1,0,0,1.5486,Gabbro_rect,4,1.549,0,15,0,15,0,1,,,,,,,,,,,,
65e257541a1445e571e8525f,SCR,2024-06-10_13h50.21.558,LearnStrategy,2023.2.3,Win32,61.34969325,2,2,1,,,,,,,,6,06,,,,,,,,,,,,,7,1.447,0,,,,,,0.103703732,-0.392592621,0,0,1,1.4475,Peridotite_rect,0,0,0,0,1
65e257541a1445e571e8525f,SCR,2024-06-10_13h50.21.558,LearnStrategy,2023.2.3,Win32,61.34969325,2,2,2,,,,,,,,3,06,,,,,,,,,,,,,3,4.777,1,,,,,,0.137037065,-0.244444444,1,0,0,4.7769,Diorite_rect,1,0,1,0,1
65e257541a1445e571e8525f,SCR,2024-06-10_13h50.21.558,LearnStrategy,2023.2.3,Win32,61.34969325,2,2,3,,,,,,,,5,14,,,,,,,,,,,,,5,1.095,1,,,,,,-0.434259245,-0.398148176,1,0,0,1.0949,Obsidian_rect,2,0,2,0,1
65e257541a1445e571e8525f,SCR,2024-06-10_13h50.21.558,LearnStrategy,2023.2.3,Win32,61.34969325,2,2,4,,,,,,,,3,15,,,,,,,,,,,,,6,3.196,0,,,,,,-0.122222222,-0.403703732,1,0,0,3.1964,Pegmatite_rect,3,0,3,0,1
65e257541a1445e571e8525f,SCR,2024-06-10_13h50.21.558,LearnStrategy,2023.2.3,Win32,61.34969325,2,2,5,,,,,,,,8,06,,,,,,,,,,,,,8,1.162,1,,,,,,0.411111111,-0.393518575,1,0,0,1.1621,Pumice_rect,4,0,4,0,1
65e257541a1445e571e8525f,SCR,2024-06-10_13h50.21.558,LearnStrategy,2023.2.3,Win32,61.34969325,2,2,6,,,,,,,,5,07,,,,,,,,,,,,,5,1.329,1,,,,,,-0.411111111,-0.393518575,1,0,0,1.3294,Obsidian_rect,5,0,5,0,1
65e257541a1445e571e8525f,SCR,2024-06-10_13h50.21.558,LearnStrategy,2023.2.3,Win32,61.34969325,2,2,7,,,,,,,,1,02,,,,,,,,,,,,,4,1.317,0,,,,,,0.374074131,-0.260185242,1,0,0,1.3169,Gabbro_rect,6,0,6,0,1
65e257541a1445e571e8525f,SCR,2024-06-10_13h50.21.558,LearnStrategy,2023.2.3,Win32,61.34969325,2,2,8,,,,,,,,7,05,,,,,,,,,,,,,7,2.595,1,,,,,,0.10648151,-0.404629686,1,0,0,2.5949,Peridotite_rect,7,0,7,0,1
65e257541a1445e571e8525f,SCR,2024-06-10_13h50.21.558,LearnStrategy,2023.2.3,Win32,61.34969325,2,2,9,,,,,,,,1,07,,,,,,,,,,,,,4,2.038,0,,,,,,0.358333333,-0.25,1,0,0,2.0381,Gabbro_rect,8,0,8,0,1
65e257541a1445e571e8525f,SCR,2024-06-10_13h50.21.558,LearnStrategy,2023.2.3,Win32,61.34969325,2,2,10,,,,,,,,2,05,,,,,,,,,,,,,2,1.616,1,,,,,,-0.179629601,-0.261111111,1,0,0,1.6158,Basalt_rect,9,0,9,0,1
65e257541a1445e571e8525f,SCR,2024-06-10_13h50.21.558,LearnStrategy,2023.2.3,Win32,61.34969325,2,2,11,,,,,,,,7,10,,,,,,,,,,,,,6,2.299,0,,,,,,-0.115740712,-0.401851908,1,0,0,2.2991,Pegmatite_rect,10,0,10,0,1
65e257541a1445e571e8525f,SCR,2024-06-10_13h50.21.558,LearnStrategy,2023.2.3,Win32,61.34969325,2,2,12,,,,,,,,2,10,,,,,,,,,,,,,2,1.817,1,,,,,,-0.151851824,-0.25,1,0,0,1.8168,Basalt_rect,11,0,11,0,1
65e257541a1445e571e8525f,SCR,2024-06-10_13h50.21.558,LearnStrategy,2023.2.3,Win32,61.34969325,2,2,13,,,,,,,,8,08,,,,,,,,,,,,,8,1.299,1,,,,,,0.35648151,-0.411111111,1,0,0,1.2994,Pumice_rect,12,0,12,0,1
65e257541a1445e571e8525f,SCR,2024-06-10_13h50.21.558,LearnStrategy,2023.2.3,Win32,61.34969325,2,2,14,,,,,,,,6,08,,,,,,,,,,,,,1,2.182,0,,,,,,-0.323148134,-0.25,1,0,0,2.1816,Andesite_rect,13,0,13,0,1
65e257541a1445e571e8525f,SCR,2024-06-10_13h50.21.558,LearnStrategy,2023.2.3,Win32,61.34969325,2,2,15,,,,,,,,4,12,,,,,,,,,,,,,1,2.58,0,,,,,,-0.358333333,-0.249074131,1,0,0,2.5797,Andesite_rect,14,0,14,0,1
65e257541a1445e571e8525f,SCR,2024-06-10_13h50.21.558,LearnStrategy,2023.2.3,Win32,61.34969325,2,2,16,,,,,,,,4,08,,,,,,,,,,,,,1,1.068,0,,,,,,-0.385185157,-0.244444444,1,0,0,1.0677,Andesite_rect,15,0,15,0,1
65e257541a1445e571e8525f,SCR,2024-06-10_13h50.21.558,LearnStrategy,2023.2.3,Win32,61.34969325,3,1,1,-0.41851849,0.06851849,1,0,0,1.0283,Gabbro_16,4,16,4,2,1.028,4,16,0.445370399,-0.246296353,1,0,0,4.066,Gabbro_rect,4,4.066,1,0,0,0,0,1,,,,,,,,,,,,
65e257541a1445e571e8525f,SCR,2024-06-10_13h50.21.558,LearnStrategy,2023.2.3,Win32,61.34969325,3,1,2,-0.187962935,0.243518511,1,0,0,0.8631,Basalt_08,2,08,5,3,0.863,2,08,-0.154629601,-0.238888889,1,0,0,1.0655,Basalt_rect,2,1.066,1,1,0,1,0,1,,,,,,,,,,,,
65e257541a1445e571e8525f,SCR,2024-06-10_13h50.21.558,LearnStrategy,2023.2.3,Win32,61.34969325,3,1,3,0.090740797,0.389814811,1,0,0,0.996,Andesite_01,1,01,6,5,0.996,1,01,0.108333333,-0.258333333,1,0,0,1.7019,Diorite_rect,3,1.702,0,2,0,2,0,1,,,,,,,,,,,,
65e257541a1445e571e8525f,SCR,2024-06-10_13h50.21.558,LearnStrategy,2023.2.3,Win32,61.34969325,3,1,4,0.375925954,0.116666667,1,0,0,0.9801,Andesite_03,1,03,4,7,0.98,1,03,0.134259288,-0.265740797,1,0,0,2.2522,Diorite_rect,3,2.252,0,3,0,3,0,1,,,,,,,,,,,,
65e257541a1445e571e8525f,SCR,2024-06-10_13h50.21.558,LearnStrategy,2023.2.3,Win32,61.34969325,3,1,5,-0.565740734,-0.086111111,1,0,0,0.8319,Pegmatite_13,6,13,3,1,0.832,6,13,-0.070370314,-0.393518575,1,0,0,1.9311,Pegmatite_rect,6,1.931,1,4,0,4,0,1,,,,,,,,,,,,
65e257541a1445e571e8525f,SCR,2024-06-10_13h50.21.558,LearnStrategy,2023.2.3,Win32,61.34969325,3,1,6,-0.120370314,0.445370367,1,0,0,0.9968,Peridotite_06,7,06,6,4,0.997,7,06,0.112037065,-0.415740797,1,0,0,1.3016,Peridotite_rect,7,1.302,1,5,0,5,0,1,,,,,,,,,,,,
65e257541a1445e571e8525f,SCR,2024-06-10_13h50.21.558,LearnStrategy,2023.2.3,Win32,61.34969325,3,1,7,-0.527777778,0.230555556,1,0,0,0.9813,Gabbro_01,4,01,5,1,0.981,4,01,-0.372222222,-0.247222222,1,0,0,1.4848,Andesite_rect,1,1.485,0,6,0,6,0,1,,,,,,,,,,,,
65e257541a1445e571e8525f,SCR,2024-06-10_13h50.21.558,LearnStrategy,2023.2.3,Win32,61.34969325,3,1,8,-0.512037023,-0.245370399,1,0,0,1.0615,Pegmatite_11,6,11,2,1,1.062,6,11,-0.462037023,-0.407407464,1,0,0,1.6142,Obsidian_rect,5,1.614,0,7,0,7,0,1,,,,,,,,,,,,
65e257541a1445e571e8525f,SCR,2024-06-10_13h50.21.558,LearnStrategy,2023.2.3,Win32,61.34969325,3,1,9,-0.095370314,-0.291666667,1,0,0,0.7646,Peridotite_14,7,14,2,4,0.765,7,14,0.1,-0.261111111,1,0,0,1.6967,Diorite_rect,3,1.697,0,8,0,8,0,1,,,,,,,,,,,,
65e257541a1445e571e8525f,SCR,2024-06-10_13h50.21.558,LearnStrategy,2023.2.3,Win32,61.34969325,3,1,10,0.387037065,0.267592578,1,0,0,1.0583,Andesite_09,1,09,5,7,1.058,1,09,-0.356481467,-0.237037065,1,0,0,1.3675,Andesite_rect,1,1.367,1,9,0,9,0,1,,,,,,,,,,,,
65e257541a1445e571e8525f,SCR,2024-06-10_13h50.21.558,LearnStrategy,2023.2.3,Win32,61.34969325,3,1,11,-0.585185178,0.409259256,1,0,0,0.8787,Diorite_10,3,10,6,1,0.879,3,10,-0.372222222,-0.266666667,1,0,0,2.7308,Andesite_rect,1,2.731,0,10,0,10,0,1,,,,,,,,,,,,
65e257541a1445e571e8525f,SCR,2024-06-10_13h50.21.558,LearnStrategy,2023.2.3,Win32,61.34969325,3,1,12,0.385185242,0.225925912,1,0,0,1.1992,Andesite_09,1,09,5,7,1.199,1,09,0.199074131,-0.245370399,1,0,0,1.6499,Diorite_rect,3,1.65,0,11,0,11,0,1,,,,,,,,,,,,
65e257541a1445e571e8525f,SCR,2024-06-10_13h50.21.558,LearnStrategy,2023.2.3,Win32,61.34969325,3,1,13,0.212963019,0.409259256,1,0,0,0.8304,Peridotite_08,7,08,6,6,0.83,7,08,0.117592621,-0.234259288,1,0,0,1.6467,Diorite_rect,3,1.647,0,12,0,12,0,1,,,,,,,,,,,,
65e257541a1445e571e8525f,SCR,2024-06-10_13h50.21.558,LearnStrategy,2023.2.3,Win32,61.34969325,3,1,14,-0.372222222,0.405555556,1,0,0,1.0956,Gabbro_14,4,14,6,2,1.096,4,14,-0.225925912,-0.254629686,1,0,0,1.9333,Basalt_rect,2,1.933,0,13,0,13,0,1,,,,,,,,,,,,
65e257541a1445e571e8525f,SCR,2024-06-10_13h50.21.558,LearnStrategy,2023.2.3,Win32,61.34969325,3,1,15,-0.421296268,0.14351849,1,0,0,0.7315,Gabbro_16,4,16,4,2,0.731,4,16,0.418518575,-0.242592621,1,0,0,2.0529,Gabbro_rect,4,2.053,1,14,0,14,0,1,,,,,,,,,,,,
65e257541a1445e571e8525f,SCR,2024-06-10_13h50.21.558,LearnStrategy,2023.2.3,Win32,61.34969325,3,1,16,0.602777778,0.219444444,1,0,0,1.1643,Pegmatite_03,6,03,5,8,1.164,6,03,0.119444444,-0.399074131,1,0,0,1.5515,Peridotite_rect,7,1.551,0,15,0,15,0,1,,,,,,,,,,,,
65e257541a1445e571e8525f,SCR,2024-06-10_13h50.21.558,LearnStrategy,2023.2.3,Win32,61.34969325,3,2,1,,,,,,,,5,08,,,,,,,,,,,,,5,1.377,1,,,,,,-0.40370369,-0.409259288,1,0,0,1.377,Obsidian_rect,0,0,0,0,1
65e257541a1445e571e8525f,SCR,2024-06-10_13h50.21.558,LearnStrategy,2023.2.3,Win32,61.34969325,3,2,2,,,,,,,,3,12,,,,,,,,,,,,,3,11.243,1,,,,,,0.116666667,-0.233333333,1,0,0,11.243,Diorite_rect,1,0,1,0,1
65e257541a1445e571e8525f,SCR,2024-06-10_13h50.21.558,LearnStrategy,2023.2.3,Win32,61.34969325,3,2,3,,,,,,,,8,04,,,,,,,,,,,,,8,1.366,1,,,,,,0.387037065,-0.400925954,1,0,0,1.3661,Pumice_rect,2,0,2,0,1
65e257541a1445e571e8525f,SCR,2024-06-10_13h50.21.558,LearnStrategy,2023.2.3,Win32,61.34969325,3,2,4,,,,,,,,7,02,,,,,,,,,,,,,7,5.161,1,,,,,,0.099074131,-0.398148176,1,0,0,5.1611,Peridotite_rect,3,0,3,0,1
65e257541a1445e571e8525f,SCR,2024-06-10_13h50.21.558,LearnStrategy,2023.2.3,Win32,61.34969325,3,2,5,,,,,,,,8,10,,,,,,,,,,,,,8,1.471,1,,,,,,0.342592621,-0.400925954,1,0,0,1.4715,Pumice_rect,4,0,4,0,1
65e257541a1445e571e8525f,SCR,2024-06-10_13h50.21.558,LearnStrategy,2023.2.3,Win32,61.34969325,3,2,6,,,,,,,,1,10,,,,,,,,,,,,,1,1.911,1,,,,,,-0.355555556,-0.255555556,1,0,0,1.9115,Andesite_rect,5,0,5,0,1
65e257541a1445e571e8525f,SCR,2024-06-10_13h50.21.558,LearnStrategy,2023.2.3,Win32,61.34969325,3,2,7,,,,,,,,6,09,,,,,,,,,,,,,6,1.898,1,,,,,,-0.145370314,-0.388888889,1,0,0,1.8981,Pegmatite_rect,6,0,6,0,1
65e257541a1445e571e8525f,SCR,2024-06-10_13h50.21.558,LearnStrategy,2023.2.3,Win32,61.34969325,3,2,8,,,,,,,,7,04,,,,,,,,,,,,,7,3.033,1,,,,,,0.095370399,-0.396296353,1,0,0,3.0327,Peridotite_rect,7,0,7,0,1
65e257541a1445e571e8525f,SCR,2024-06-10_13h50.21.558,LearnStrategy,2023.2.3,Win32,61.34969325,3,2,9,,,,,,,,5,05,,,,,,,,,,,,,5,1.466,1,,,,,,-0.394444444,-0.412037065,1,0,0,1.4658,Obsidian_rect,8,0,8,0,1
65e257541a1445e571e8525f,SCR,2024-06-10_13h50.21.558,LearnStrategy,2023.2.3,Win32,61.34969325,3,2,10,,,,,,,,2,02,,,,,,,,,,,,,2,1.138,1,,,,,,-0.187962935,-0.252777778,1,0,0,1.1384,Basalt_rect,9,0,9,0,1
65e257541a1445e571e8525f,SCR,2024-06-10_13h50.21.558,LearnStrategy,2023.2.3,Win32,61.34969325,3,2,11,,,,,,,,4,13,,,,,,,,,,,,,4,1.401,1,,,,,,0.429629686,-0.245370399,1,0,0,1.4009,Gabbro_rect,10,0,10,0,1
65e257541a1445e571e8525f,SCR,2024-06-10_13h50.21.558,LearnStrategy,2023.2.3,Win32,61.34969325,3,2,12,,,,,,,,6,12,,,,,,,,,,,,,6,1.814,1,,,,,,-0.082407379,-0.411111111,1,0,0,1.8137,Pegmatite_rect,11,0,11,0,1
65e257541a1445e571e8525f,SCR,2024-06-10_13h50.21.558,LearnStrategy,2023.2.3,Win32,61.34969325,3,2,13,,,,,,,,3,07,,,,,,,,,,,,,1,1.562,0,,,,,,-0.370370356,-0.247222222,1,0,0,1.5622,Andesite_rect,12,0,12,0,1
65e257541a1445e571e8525f,SCR,2024-06-10_13h50.21.558,LearnStrategy,2023.2.3,Win32,61.34969325,3,2,14,,,,,,,,1,11,,,,,,,,,,,,,1,0.618,1,,,,,,-0.370370356,-0.247222222,1,0,0,0.6183,Andesite_rect,13,0,13,0,1
65e257541a1445e571e8525f,SCR,2024-06-10_13h50.21.558,LearnStrategy,2023.2.3,Win32,61.34969325,3,2,15,,,,,,,,2,11,,,,,,,,,,,,,1,1.049,0,,,,,,-0.370370356,-0.247222222,1,0,0,1.049,Andesite_rect,14,0,14,0,1
65e257541a1445e571e8525f,SCR,2024-06-10_13h50.21.558,LearnStrategy,2023.2.3,Win32,61.34969325,3,2,16,,,,,,,,4,11,,,,,,,,,,,,,2,2.759,0,,,,,,-0.091666667,-0.248148176,1,0,0,2.759,Basalt_rect,15,0,15,0,1
65e257541a1445e571e8525f,SCR,2024-06-10_13h50.21.558,LearnStrategy,2023.2.3,Win32,61.34969325,4,1,1,0.402777778,0.383333333,1,0,0,2.1411,Peridotite_16,7,16,6,7,2.141,7,16,0.110185242,-0.411111111,1,0,0,3.1187,Peridotite_rect,7,3.119,1,0,0,0,0,1,,,,,,,,,,,,
65e257541a1445e571e8525f,SCR,2024-06-10_13h50.21.558,LearnStrategy,2023.2.3,Win32,61.34969325,4,1,2,0.393518575,0.251851845,1,0,0,1.0155,Andesite_09,1,09,5,7,1.015,1,09,-0.473148134,-0.270370399,1,0,0,2.6783,Andesite_rect,1,2.678,1,1,0,1,0,1,,,,,,,,,,,,
65e257541a1445e571e8525f,SCR,2024-06-10_13h50.21.558,LearnStrategy,2023.2.3,Win32,61.34969325,4,1,3,-0.395370356,0.421296295,1,0,0,1.1171,Gabbro_14,4,14,6,2,1.117,4,14,0.403703732,-0.235185242,1,0,0,0.9956,Gabbro_rect,4,0.996,1,2,0,2,0,1,,,,,,,,,,,,
65e257541a1445e571e8525f,SCR,2024-06-10_13h50.21.558,LearnStrategy,2023.2.3,Win32,61.34969325,4,1,4,-0.236111111,-0.437037065,1,0,0,1.3176,Pumice_05,8,05,1,3,1.318,8,05,0.378703732,-0.392592621,1,0,0,0.9735,Pumice_rect,8,0.973,1,3,0,3,0,1,,,,,,,,,,,,
65e257541a1445e571e8525f,SCR,2024-06-10_13h50.21.558,LearnStrategy,2023.2.3,Win32,61.34969325,4,1,5,-0.566666667,-0.418518575,1,0,0,0.8789,Pegmatite_10,6,10,1,1,0.879,6,10,-0.142592536,-0.402777778,1,0,0,1.1318,Pegmatite_rect,6,1.132,1,4,0,4,0,1,,,,,,,,,,,,
65e257541a1445e571e8525f,SCR,2024-06-10_13h50.21.558,LearnStrategy,2023.2.3,Win32,61.34969325,4,1,6,-0.569444444,-0.089814843,1,0,0,0.7823,Pegmatite_13,6,13,3,1,0.782,6,13,0.098148176,-0.242592621,1,0,0,3.2312,Diorite_rect,3,3.231,0,5,0,5,0,1,,,,,,,,,,,,
65e257541a1445e571e8525f,SCR,2024-06-10_13h50.21.558,LearnStrategy,2023.2.3,Win32,61.34969325,4,1,7,-0.385185157,0.417592589,1,0,0,1.0293,Gabbro_14,4,14,6,2,1.029,4,14,0.089814843,-0.262037065,1,0,0,2.5655,Diorite_rect,3,2.566,0,6,0,6,0,1,,,,,,,,,,,,
65e257541a1445e571e8525f,SCR,2024-06-10_13h50.21.558,LearnStrategy,2023.2.3,Win32,61.34969325,4,1,8,-0.447222222,0.139814801,1,0,0,0.9304,Gabbro_16,4,16,4,2,0.93,4,16,0.351851908,-0.257407464,1,0,0,1.4014,Gabbro_rect,4,1.401,1,7,0,7,0,1,,,,,,,,,,,,
65e257541a1445e571e8525f,SCR,2024-06-10_13h50.21.558,LearnStrategy,2023.2.3,Win32,61.34969325,4,1,9,-0.394444444,-0.394444444,1,0,0,0.93,Obsidian_02,5,02,1,2,0.93,5,02,-0.394444444,-0.394444444,0,0,1,0.4912,Obsidian_rect,5,0.491,1,8,0,8,0,1,,,,,,,,,,,,
65e257541a1445e571e8525f,SCR,2024-06-10_13h50.21.558,LearnStrategy,2023.2.3,Win32,61.34969325,4,1,10,-0.251851824,-0.148148176,1,0,0,0.7834,Diorite_13,3,13,3,3,0.783,3,13,0.163888889,-0.249074131,1,0,0,1.2543,Diorite_rect,3,1.254,1,9,0,9,0,1,,,,,,,,,,,,
65e257541a1445e571e8525f,SCR,2024-06-10_13h50.21.558,LearnStrategy,2023.2.3,Win32,61.34969325,4,1,11,0.065740797,0.1,1,0,0,0.6995,Basalt_12,2,12,4,5,0.7,2,12,-0.397222222,-0.248148176,1,0,0,1.7691,Andesite_rect,1,1.769,0,10,0,10,0,1,,,,,,,,,,,,
65e257541a1445e571e8525f,SCR,2024-06-10_13h50.21.558,LearnStrategy,2023.2.3,Win32,61.34969325,4,1,12,0.225925954,-0.245370399,1,0,0,1.1523,Gabbro_05,4,05,2,6,1.152,4,05,-0.367592578,-0.246296353,1,0,0,3.7147,Andesite_rect,1,3.715,0,11,0,11,0,1,,,,,,,,,,,,
65e257541a1445e571e8525f,SCR,2024-06-10_13h50.21.558,LearnStrategy,2023.2.3,Win32,61.34969325,4,1,13,-0.564814801,0.424074072,1,0,0,1.1222,Diorite_10,3,10,6,1,1.122,3,10,0.129629686,-0.235185242,1,0,0,1.5195,Diorite_rect,3,1.519,1,12,0,12,0,1,,,,,,,,,,,,
65e257541a1445e571e8525f,SCR,2024-06-10_13h50.21.558,LearnStrategy,2023.2.3,Win32,61.34969325,4,1,14,-0.35370369,0.233333333,1,0,0,1.1637,Basalt_06,2,06,5,2,1.164,2,06,-0.082407379,-0.25,1,0,0,0.8156,Basalt_rect,2,0.816,1,13,0,13,0,1,,,,,,,,,,,,
65e257541a1445e571e8525f,SCR,2024-06-10_13h50.21.558,LearnStrategy,2023.2.3,Win32,61.34969325,4,1,15,-0.055555556,-0.261111111,1,0,0,1.0975,Peridotite_14,7,14,2,4,1.098,7,14,0.135185242,-0.243518575,1,0,0,2.6025,Diorite_rect,3,2.603,0,14,0,14,0,1,,,,,,,,,,,,
65e257541a1445e571e8525f,SCR,2024-06-10_13h50.21.558,LearnStrategy,2023.2.3,Win32,61.34969325,4,1,16,-0.086111111,-0.262963019,1,0,0,1.394,Peridotite_14,7,14,2,4,1.394,1,14,0.113888889,-0.397222222,1,0,0,0.8485,Peridotite_rect,7,0.848,1,15,0,15,0,1,,,,,,,,,,,,
65e257541a1445e571e8525f,SCR,2024-06-10_13h50.21.558,LearnStrategy,2023.2.3,Win32,61.34969325,4,2,1,,,,,,,,6,06,,,,,,,,,,,,,6,4.11,1,,,,,,-0.102777778,-0.40648151,1,0,0,4.1104,Pegmatite_rect,0,0,0,0,1
65e257541a1445e571e8525f,SCR,2024-06-10_13h50.21.558,LearnStrategy,2023.2.3,Win32,61.34969325,4,2,2,,,,,,,,4,08,,,,,,,,,,,,,1,3.673,0,,,,,,-0.380555556,-0.252777778,1,0,0,3.6727,Andesite_rect,1,0,1,0,1
65e257541a1445e571e8525f,SCR,2024-06-10_13h50.21.558,LearnStrategy,2023.2.3,Win32,61.34969325,4,2,3,,,,,,,,8,04,,,,,,,,,,,,,8,1.14,1,,,,,,0.394444444,-0.402777778,1,0,0,1.1401,Pumice_rect,2,0,2,0,1
65e257541a1445e571e8525f,SCR,2024-06-10_13h50.21.558,LearnStrategy,2023.2.3,Win32,61.34969325,4,2,4,,,,,,,,1,06,,,,,,,,,,,,,3,2.565,0,,,,,,0.146296353,-0.259259288,1,0,0,2.5647,Diorite_rect,3,0,3,0,1
65e257541a1445e571e8525f,SCR,2024-06-10_13h50.21.558,LearnStrategy,2023.2.3,Win32,61.34969325,4,2,5,,,,,,,,4,15,,,,,,,,,,,,,4,1.782,1,,,,,,0.369444444,-0.258333333,1,0,0,1.7819,Gabbro_rect,4,0,4,0,1
65e257541a1445e571e8525f,SCR,2024-06-10_13h50.21.558,LearnStrategy,2023.2.3,Win32,61.34969325,4,2,6,,,,,,,,5,14,,,,,,,,,,,,,5,1.113,1,,,,,,-0.416666667,-0.411111111,1,0,0,1.1134,Obsidian_rect,5,0,5,0,1
65e257541a1445e571e8525f,SCR,2024-06-10_13h50.21.558,LearnStrategy,2023.2.3,Win32,61.34969325,4,2,7,,,,,,,,8,16,,,,,,,,,,,,,4,3.344,0,,,,,,0.378703732,-0.25,1,0,0,3.3442,Gabbro_rect,6,0,6,0,1
65e257541a1445e571e8525f,SCR,2024-06-10_13h50.21.558,LearnStrategy,2023.2.3,Win32,61.34969325,4,2,8,,,,,,,,7,02,,,,,,,,,,,,,7,2.532,1,,,,,,0.107407464,-0.388888889,1,0,0,2.5318,Peridotite_rect,7,0,7,0,1
65e257541a1445e571e8525f,SCR,2024-06-10_13h50.21.558,LearnStrategy,2023.2.3,Win32,61.34969325,4,2,9,,,,,,,,3,12,,,,,,,,,,,,,1,3.128,0,,,,,,-0.394444444,-0.238888889,1,0,0,3.1276,Andesite_rect,8,0,8,0,1
65e257541a1445e571e8525f,SCR,2024-06-10_13h50.21.558,LearnStrategy,2023.2.3,Win32,61.34969325,4,2,10,,,,,,,,2,05,,,,,,,,,,,,,2,1.201,1,,,,,,-0.166666667,-0.245370399,1,0,0,1.2005,Basalt_rect,9,0,9,0,1
65e257541a1445e571e8525f,SCR,2024-06-10_13h50.21.558,LearnStrategy,2023.2.3,Win32,61.34969325,4,2,11,,,,,,,,5,07,,,,,,,,,,,,,5,1.332,1,,,,,,-0.395370356,-0.410185242,1,0,0,1.3316,Obsidian_rect,10,0,10,0,1
65e257541a1445e571e8525f,SCR,2024-06-10_13h50.21.558,LearnStrategy,2023.2.3,Win32,61.34969325,4,2,12,,,,,,,,1,10,,,,,,,,,,,,,3,2.197,0,,,,,,0.142592621,-0.239814843,1,0,0,2.1975,Diorite_rect,11,0,11,0,1
65e257541a1445e571e8525f,SCR,2024-06-10_13h50.21.558,LearnStrategy,2023.2.3,Win32,61.34969325,4,2,13,,,,,,,,3,07,,,,,,,,,,,,,3,0.918,1,,,,,,0.142592621,-0.237963019,1,0,0,0.9182,Diorite_rect,12,0,12,0,1
65e257541a1445e571e8525f,SCR,2024-06-10_13h50.21.558,LearnStrategy,2023.2.3,Win32,61.34969325,4,2,14,,,,,,,,2,02,,,,,,,,,,,,,2,0.918,1,,,,,,-0.127777778,-0.249074131,1,0,0,0.9176,Basalt_rect,13,0,13,0,1
65e257541a1445e571e8525f,SCR,2024-06-10_13h50.21.558,LearnStrategy,2023.2.3,Win32,61.34969325,4,2,15,,,,,,,,6,12,,,,,,,,,,,,,6,1.136,1,,,,,,-0.129629601,-0.4,1,0,0,1.136,Pegmatite_rect,14,0,14,0,1
65e257541a1445e571e8525f,SCR,2024-06-10_13h50.21.558,LearnStrategy,2023.2.3,Win32,61.34969325,4,2,16,,,,,,,,7,13,,,,,,,,,,,,,7,1.799,1,,,,,,0.128703732,-0.400925954,1,0,0,1.7988,Peridotite_rect,15,0,15,0,1
65e257541a1445e571e8525f,SCR,2024-06-10_13h50.21.558,LearnStrategy,2023.2.3,Win32,61.34969325,5,1,1,0.260185242,-0.396296353,1,0,0,1.6623,Pumice_09,8,09,1,6,1.662,5,09,0.334259288,-0.388888889,1,0,0,1.935,Pumice_rect,8,1.935,1,0,0,0,0,1,,,,,,,,,,,,
65e257541a1445e571e8525f,SCR,2024-06-10_13h50.21.558,LearnStrategy,2023.2.3,Win32,61.34969325,5,1,2,-0.081481425,-0.12129631,1,0,0,0.9481,Andesite_14,1,14,3,4,0.948,1,14,-0.354629601,-0.240740797,1,0,0,1.6343,Andesite_rect,1,1.634,1,1,0,1,0,1,,,,,,,,,,,,
65e257541a1445e571e8525f,SCR,2024-06-10_13h50.21.558,LearnStrategy,2023.2.3,Win32,61.34969325,5,1,3,0.413888889,-0.095370399,1,0,0,1.0306,Pegmatite_07,6,07,3,7,1.031,1,14,0.105555556,-0.4,1,0,0,2.5978,Peridotite_rect,7,2.598,0,2,0,2,0,1,,,,,,,,,,,,
65e257541a1445e571e8525f,SCR,2024-06-10_13h50.21.558,LearnStrategy,2023.2.3,Win32,61.34969325,5,1,4,0.086111111,0.07870369,1,0,0,0.9965,Basalt_12,2,12,4,5,0.996,7,06,0.385185242,-0.264814843,1,0,0,2.0178,Gabbro_rect,4,2.018,0,3,0,3,0,1,,,,,,,,,,,,
65e257541a1445e571e8525f,SCR,2024-06-10_13h50.21.558,LearnStrategy,2023.2.3,Win32,61.34969325,5,1,5,-0.375,0.090740712,1,0,0,1.1805,Gabbro_16,4,16,4,2,1.181,1,05,0.399074131,-0.252777778,1,0,0,0.9545,Gabbro_rect,4,0.955,1,4,0,4,0,1,,,,,,,,,,,,
65e257541a1445e571e8525f,SCR,2024-06-10_13h50.21.558,LearnStrategy,2023.2.3,Win32,61.34969325,5,1,6,-0.26851849,-0.116666667,1,0,0,1.425,Diorite_13,3,13,3,3,1.425,3,13,-0.387962935,-0.25,1,0,0,1.7332,Andesite_rect,1,1.733,0,5,0,5,0,1,,,,,,,,,,,,
65e257541a1445e571e8525f,SCR,2024-06-10_13h50.21.558,LearnStrategy,2023.2.3,Win32,61.34969325,5,1,7,-0.404629601,-0.249074131,1,0,0,1.19,Andesite_05,1,05,2,2,1.19,1,05,-0.391666667,-0.237963019,1,0,0,1.2836,Andesite_rect,1,1.284,1,6,0,6,0,1,,,,,,,,,,,,
65e257541a1445e571e8525f,SCR,2024-06-10_13h50.21.558,LearnStrategy,2023.2.3,Win32,61.34969325,5,1,8,0.415740797,0.251851845,1,0,0,1.9136,Andesite_09,1,09,5,7,1.914,1,09,-0.113888889,-0.240740797,1,0,0,1.5135,Basalt_rect,2,1.514,0,7,0,7,0,1,,,,,,,,,,,,
65e257541a1445e571e8525f,SCR,2024-06-10_13h50.21.558,LearnStrategy,2023.2.3,Win32,61.34969325,5,1,9,-0.265740712,-0.088888889,1,0,0,0.7685,Diorite_13,3,13,3,3,0.769,3,13,0.125,-0.262963019,1,0,0,0.9584,Diorite_rect,3,0.958,1,8,0,8,0,1,,,,,,,,,,,,
65e257541a1445e571e8525f,SCR,2024-06-10_13h50.21.558,LearnStrategy,2023.2.3,Win32,61.34969325,5,1,10,-0.539814801,0.246296289,1,0,0,1.3484,Gabbro_01,4,01,5,1,1.348,4,01,-0.377777778,-0.237963019,1,0,0,2.1785,Andesite_rect,1,2.178,0,9,0,9,0,1,,,,,,,,,,,,
65e257541a1445e571e8525f,SCR,2024-06-10_13h50.21.558,LearnStrategy,2023.2.3,Win32,61.34969325,5,1,11,-0.401851824,0.437037034,1,0,0,1.2644,Gabbro_14,4,14,6,2,1.264,4,14,0.340740797,-0.230555556,1,0,0,1.015,Gabbro_rect,4,1.015,1,10,0,10,0,1,,,,,,,,,,,,
65e257541a1445e571e8525f,SCR,2024-06-10_13h50.21.558,LearnStrategy,2023.2.3,Win32,61.34969325,5,1,12,-0.558333333,0.2074074,1,0,0,1.7948,Gabbro_01,4,01,5,1,1.795,4,01,0.410185242,-0.243518575,1,0,0,0.9627,Gabbro_rect,4,0.963,1,11,0,11,0,1,,,,,,,,,,,,
65e257541a1445e571e8525f,SCR,2024-06-10_13h50.21.558,LearnStrategy,2023.2.3,Win32,61.34969325,5,1,13,0.042592621,0.104629601,1,0,0,1.0803,Basalt_12,2,12,4,5,1.08,2,12,-0.154629601,-0.249074131,1,0,0,0.9503,Basalt_rect,2,0.95,1,12,0,12,0,1,,,,,,,,,,,,
65e257541a1445e571e8525f,SCR,2024-06-10_13h50.21.558,LearnStrategy,2023.2.3,Win32,61.34969325,5,1,14,-0.573148134,-0.425,1,0,0,1.6456,Pegmatite_10,6,10,1,1,1.646,6,10,-0.089814758,-0.403703732,1,0,0,1.365,Pegmatite_rect,6,1.365,1,13,0,13,0,1,,,,,,,,,,,,
65e257541a1445e571e8525f,SCR,2024-06-10_13h50.21.558,LearnStrategy,2023.2.3,Win32,61.34969325,5,1,15,0.561111111,-0.428703732,1,0,0,1.4644,Diorite_09,3,09,1,8,1.464,3,09,0.145370399,-0.250925954,1,0,0,2.3229,Diorite_rect,3,2.323,1,14,0,14,0,1,,,,,,,,,,,,
65e257541a1445e571e8525f,SCR,2024-06-10_13h50.21.558,LearnStrategy,2023.2.3,Win32,61.34969325,5,1,16,0.037037065,-0.218518575,1,0,0,0.9236,Pumice_14,8,14,2,5,0.924,8,14,0.396296353,-0.400925954,1,0,0,1.6471,Pumice_rect,8,1.647,1,15,0,15,0,1,,,,,,,,,,,,
65e257541a1445e571e8525f,SCR,2024-06-10_13h50.21.558,LearnStrategy,2023.2.3,Win32,61.34969325,5,2,1,,,,,,,,3,14,,,,,,,,,,,,,3,2.681,1,,,,,,0.154629686,-0.25648151,1,0,0,2.6814,Diorite_rect,0,0,0,0,1
65e257541a1445e571e8525f,SCR,2024-06-10_13h50.21.558,LearnStrategy,2023.2.3,Win32,61.34969325,5,2,2,,,,,,,,8,08,,,,,,,,,,,,,8,1.517,1,,,,,,0.339814843,-0.405555556,1,0,0,1.5171,Pumice_rect,1,0,1,0,1
65e257541a1445e571e8525f,SCR,2024-06-10_13h50.21.558,LearnStrategy,2023.2.3,Win32,61.34969325,5,2,3,,,,,,,,5,04,,,,,,,,,,,,,5,1.064,1,,,,,,-0.387962935,-0.399074131,1,0,0,1.0638,Obsidian_rect,2,0,2,0,1
65e257541a1445e571e8525f,SCR,2024-06-10_13h50.21.558,LearnStrategy,2023.2.3,Win32,61.34969325,5,2,4,,,,,,,,6,15,,,,,,,,,,,,,6,1.019,1,,,,,,-0.162036981,-0.388888889,1,0,0,1.0191,Pegmatite_rect,3,0,3,0,1
65e257541a1445e571e8525f,SCR,2024-06-10_13h50.21.558,LearnStrategy,2023.2.3,Win32,61.34969325,5,2,5,,,,,,,,6,16,,,,,,,,,,,,,7,1.763,0,,,,,,0.117592621,-0.412037065,1,0,0,1.7631,Peridotite_rect,4,0,4,0,1
65e257541a1445e571e8525f,SCR,2024-06-10_13h50.21.558,LearnStrategy,2023.2.3,Win32,61.34969325,5,2,6,,,,,,,,2,11,,,,,,,,,,,,,2,1.741,1,,,,,,-0.073148092,-0.251851908,1,0,0,1.7407,Basalt_rect,5,0,5,0,1
65e257541a1445e571e8525f,SCR,2024-06-10_13h50.21.558,LearnStrategy,2023.2.3,Win32,61.34969325,5,2,7,,,,,,,,2,14,,,,,,,,,,,,,4,1.745,0,,,,,,0.371296353,-0.253703732,1,0,0,1.7446,Gabbro_rect,6,0,6,0,1
65e257541a1445e571e8525f,SCR,2024-06-10_13h50.21.558,LearnStrategy,2023.2.3,Win32,61.34969325,5,2,8,,,,,,,,3,02,,,,,,,,,,,,,3,1.278,1,,,,,,0.154629686,-0.241666667,1,0,0,1.2782,Diorite_rect,7,0,7,0,1
65e257541a1445e571e8525f,SCR,2024-06-10_13h50.21.558,LearnStrategy,2023.2.3,Win32,61.34969325,5,2,9,,,,,,,,7,10,,,,,,,,,,,,,7,1.347,1,,,,,,0.112963019,-0.391666667,1,0,0,1.347,Peridotite_rect,8,0,8,0,1
65e257541a1445e571e8525f,SCR,2024-06-10_13h50.21.558,LearnStrategy,2023.2.3,Win32,61.34969325,5,2,10,,,,,,,,8,06,,,,,,,,,,,,,8,1.595,1,,,,,,0.427777778,-0.400925954,1,0,0,1.5949,Pumice_rect,9,0,9,0,1
65e257541a1445e571e8525f,SCR,2024-06-10_13h50.21.558,LearnStrategy,2023.2.3,Win32,61.34969325,5,2,11,,,,,,,,7,05,,,,,,,,,,,,,6,1.813,0,,,,,,-0.06851849,-0.391666667,1,0,0,1.8133,Pegmatite_rect,10,0,10,0,1
65e257541a1445e571e8525f,SCR,2024-06-10_13h50.21.558,LearnStrategy,2023.2.3,Win32,61.34969325,5,2,12,,,,,,,,4,13,,,,,,,,,,,,,4,1.761,1,,,,,,0.379629686,-0.236111111,1,0,0,1.761,Gabbro_rect,11,0,11,0,1
65e257541a1445e571e8525f,SCR,2024-06-10_13h50.21.558,LearnStrategy,2023.2.3,Win32,61.34969325,5,2,13,,,,,,,,4,12,,,,,,,,,,,,,1,1.837,0,,,,,,-0.340740712,-0.242592621,1,0,0,1.8375,Andesite_rect,12,0,12,0,1
65e257541a1445e571e8525f,SCR,2024-06-10_13h50.21.558,LearnStrategy,2023.2.3,Win32,61.34969325,5,2,14,,,,,,,,1,04,,,,,,,,,,,,,1,1.047,1,,,,,,-0.340740712,-0.242592621,1,0,0,1.0472,Andesite_rect,13,0,13,0,1
65e257541a1445e571e8525f,SCR,2024-06-10_13h50.21.558,LearnStrategy,2023.2.3,Win32,61.34969325,5,2,15,,,,,,,,1,11,,,,,,,,,,,,,1,2.462,1,,,,,,-0.361111111,-0.242592621,1,0,0,2.4624,Andesite_rect,14,0,14,0,1
65e257541a1445e571e8525f,SCR,2024-06-10_13h50.21.558,LearnStrategy,2023.2.3,Win32,61.34969325,5,2,16,,,,,,,,5,08,,,,,,,,,,,,,5,0.971,1,,,,,,-0.37870369,-0.401851908,1,0,0,0.9712,Obsidian_rect,15,0,15,0,1
65e257541a1445e571e8525f,SCR,2024-06-10_13h50.21.558,LearnStrategy,2023.2.3,Win32,61.34969325,6,1,1,0.581481595,-0.098148176,1,0,0,0.9618,Gabbro_03,4,03,3,8,0.962,4,03,-0.370370356,-0.262963019,1,0,0,1.4226,Andesite_rect,1,1.423,0,0,0,0,0,1,,,,,,,,,,,,
65e257541a1445e571e8525f,SCR,2024-06-10_13h50.21.558,LearnStrategy,2023.2.3,Win32,61.34969325,6,1,2,0.063888889,0.249074067,1,0,0,0.9315,Basalt_16,2,16,5,5,0.932,2,16,0.424074131,-0.23148151,1,0,0,0.7831,Gabbro_rect,4,0.783,0,1,0,1,0,1,,,,,,,,,,,,
65e257541a1445e571e8525f,SCR,2024-06-10_13h50.21.558,LearnStrategy,2023.2.3,Win32,61.34969325,6,1,3,0.544444444,-0.108333333,1,0,0,0.9638,Gabbro_03,4,03,3,8,0.964,4,03,0.412963019,-0.257407464,1,0,0,1.0359,Gabbro_rect,4,1.036,1,2,0,2,0,1,,,,,,,,,,,,
65e257541a1445e571e8525f,SCR,2024-06-10_13h50.21.558,LearnStrategy,2023.2.3,Win32,61.34969325,6,1,4,0.496296353,-0.073148176,1,0,0,0.5466,Gabbro_03,4,03,3,8,0.547,3,13,0.352777778,-0.253703732,1,0,0,2.2207,Gabbro_rect,4,2.221,1,3,0,3,0,1,,,,,,,,,,,,
65e257541a1445e571e8525f,SCR,2024-06-10_13h50.21.558,LearnStrategy,2023.2.3,Win32,61.34969325,6,1,5,-0.404629601,0.072222222,1,0,0,1.4892,Gabbro_16,4,16,4,2,1.489,4,16,0.386111111,-0.253703732,1,0,0,0.9623,Gabbro_rect,4,0.962,1,4,0,4,0,1,,,,,,,,,,,,
65e257541a1445e571e8525f,SCR,2024-06-10_13h50.21.558,LearnStrategy,2023.2.3,Win32,61.34969325,6,1,6,-0.09351849,-0.237963019,1,0,0,0.7627,Peridotite_14,7,14,2,4,0.763,7,14,0.05,-0.258333333,0,0,1,1.412,Diorite_rect,3,1.412,0,5,0,5,0,1,,,,,,,,,,,,
65e257541a1445e571e8525f,SCR,2024-06-10_13h50.21.558,LearnStrategy,2023.2.3,Win32,61.34969325,6,1,7,-0.065740712,-0.271296353,1,0,0,0.9625,Peridotite_14,7,14,2,4,0.962,1,14,0.117592621,-0.407407464,1,0,0,0.9064,Peridotite_rect,7,0.906,1,6,0,6,0,1,,,,,,,,,,,,
65e257541a1445e571e8525f,SCR,2024-06-10_13h50.21.558,LearnStrategy,2023.2.3,Win32,61.34969325,6,1,8,0.123148176,0.10370369,1,0,0,0.8199,Basalt_12,2,12,4,5,0.82,6,05,-0.138888889,-0.247222222,1,0,0,0.8677,Basalt_rect,2,0.868,1,7,0,7,0,1,,,,,,,,,,,,
65e257541a1445e571e8525f,SCR,2024-06-10_13h50.21.558,LearnStrategy,2023.2.3,Win32,61.34969325,6,1,9,0.239814843,-0.118518533,1,0,0,1.1881,Obsidian_10,5,10,3,6,1.188,8,02,-0.362037023,-0.382407464,1,0,0,0.888,Obsidian_rect,5,0.888,1,8,0,8,0,1,,,,,,,,,,,,
65e257541a1445e571e8525f,SCR,2024-06-10_13h50.21.558,LearnStrategy,2023.2.3,Win32,61.34969325,6,1,10,-0.563888889,-0.099074088,1,0,0,0.9911,Pegmatite_13,6,13,3,1,0.991,6,13,0.125925954,-0.398148176,1,0,0,1.2787,Peridotite_rect,7,1.279,0,9,0,9,0,1,,,,,,,,,,,,
65e257541a1445e571e8525f,SCR,2024-06-10_13h50.21.558,LearnStrategy,2023.2.3,Win32,61.34969325,6,1,11,0.395370399,0.415740739,1,0,0,1.5287,Peridotite_16,7,16,6,7,1.529,1,09,-0.399074046,-0.241666667,1,0,0,3.3625,Andesite_rect,1,3.362,0,10,0,10,0,1,,,,,,,,,,,,
65e257541a1445e571e8525f,SCR,2024-06-10_13h50.21.558,LearnStrategy,2023.2.3,Win32,61.34969325,6,1,12,0.528703732,-0.268518575,1,0,0,1.0607,Diorite_11,3,11,2,8,1.061,5,16,0.126851908,-0.245370399,1,0,0,0.8016,Diorite_rect,3,0.802,1,11,0,11,0,1,,,,,,,,,,,,
65e257541a1445e571e8525f,SCR,2024-06-10_13h50.21.558,LearnStrategy,2023.2.3,Win32,61.34969325,6,1,13,-0.215740712,0.092592578,1,0,0,1.9451,Diorite_08,3,08,4,3,1.945,1,05,0.114814843,-0.235185242,1,0,0,0.961,Diorite_rect,3,0.961,1,12,0,12,0,1,,,,,,,,,,,,
65e257541a1445e571e8525f,SCR,2024-06-10_13h50.21.558,LearnStrategy,2023.2.3,Win32,61.34969325,6,1,14,-0.082407379,-0.239814843,1,0,0,0.9052,Peridotite_14,7,14,2,4,0.905,3,10,0.089814843,-0.407407464,1,0,0,0.8971,Peridotite_rect,7,0.897,1,13,0,13,0,1,,,,,,,,,,,,
65e257541a1445e571e8525f,SCR,2024-06-10_13h50.21.558,LearnStrategy,2023.2.3,Win32,61.34969325,6,1,15,0.062037065,0.081481467,1,0,0,0.9076,Basalt_12,2,12,4,5,0.908,7,12,-0.101851824,-0.237963019,1,0,0,1.5919,Basalt_rect,2,1.592,1,14,0,14,0,1,,,,,,,,,,,,
65e257541a1445e571e8525f,SCR,2024-06-10_13h50.21.558,LearnStrategy,2023.2.3,Win32,61.34969325,6,1,16,0.238888889,0.102777778,1,0,0,1.189,Andesite_16,1,16,4,6,1.189,2,16,0.117592621,-0.398148176,1,0,0,2.0102,Peridotite_rect,7,2.01,0,15,0,15,0,1,,,,,,,,,,,,
65e257541a1445e571e8525f,SCR,2024-06-10_13h50.21.558,LearnStrategy,2023.2.3,Win32,61.34969325,6,2,1,,,,,,,,6,09,,,,,,,,,,,,,6,1.616,1,,,,,,-0.114814758,-0.410185242,1,0,0,1.616,Pegmatite_rect,0,0,0,0,1
65e257541a1445e571e8525f,SCR,2024-06-10_13h50.21.558,LearnStrategy,2023.2.3,Win32,61.34969325,6,2,2,,,,,,,,7,15,,,,,,,,,,,,,6,1.434,0,,,,,,-0.062962935,-0.396296353,1,0,0,1.4338,Pegmatite_rect,1,0,1,0,1
65e257541a1445e571e8525f,SCR,2024-06-10_13h50.21.558,LearnStrategy,2023.2.3,Win32,61.34969325,6,2,3,,,,,,,,3,06,,,,,,,,,,,,,3,1.994,1,,,,,,0.160185242,-0.232407464,1,0,0,1.9938,Diorite_rect,2,0,2,0,1
65e257541a1445e571e8525f,SCR,2024-06-10_13h50.21.558,LearnStrategy,2023.2.3,Win32,61.34969325,6,2,4,,,,,,,,5,05,,,,,,,,,,,,,5,1.338,1,,,,,,-0.412962935,-0.415740797,1,0,0,1.3379,Obsidian_rect,3,0,3,0,1
65e257541a1445e571e8525f,SCR,2024-06-10_13h50.21.558,LearnStrategy,2023.2.3,Win32,61.34969325,6,2,5,,,,,,,,2,09,,,,,,,,,,,,,2,1.063,1,,,,,,-0.137036981,-0.252777778,1,0,0,1.063,Basalt_rect,4,0,4,0,1
65e257541a1445e571e8525f,SCR,2024-06-10_13h50.21.558,LearnStrategy,2023.2.3,Win32,61.34969325,6,2,6,,,,,,,,1,07,,,,,,,,,,,,,1,1.734,1,,,,,,-0.348148134,-0.253703732,1,0,0,1.7341,Andesite_rect,5,0,5,0,1
65e257541a1445e571e8525f,SCR,2024-06-10_13h50.21.558,LearnStrategy,2023.2.3,Win32,61.34969325,6,2,7,,,,,,,,5,12,,,,,,,,,,,,,5,0.994,1,,,,,,-0.351851824,-0.397222222,1,0,0,0.9936,Obsidian_rect,6,0,6,0,1
65e257541a1445e571e8525f,SCR,2024-06-10_13h50.21.558,LearnStrategy,2023.2.3,Win32,61.34969325,6,2,8,,,,,,,,6,08,,,,,,,,,,,,,6,1.337,1,,,,,,-0.138888889,-0.394444444,1,0,0,1.337,Pegmatite_rect,7,0,7,0,1
65e257541a1445e571e8525f,SCR,2024-06-10_13h50.21.558,LearnStrategy,2023.2.3,Win32,61.34969325,6,2,9,,,,,,,,8,10,,,,,,,,,,,,,8,1.463,1,,,,,,0.350925954,-0.405555556,1,0,0,1.4628,Pumice_rect,8,0,8,0,1
65e257541a1445e571e8525f,SCR,2024-06-10_13h50.21.558,LearnStrategy,2023.2.3,Win32,61.34969325,6,2,10,,,,,,,,7,04,,,,,,,,,,,,,7,3.288,1,,,,,,0.137963019,-0.405555556,1,0,0,3.2885,Peridotite_rect,9,0,9,0,1
65e257541a1445e571e8525f,SCR,2024-06-10_13h50.21.558,LearnStrategy,2023.2.3,Win32,61.34969325,6,2,11,,,,,,,,4,11,,,,,,,,,,,,,1,2.947,0,,,,,,-0.375,-0.240740797,1,0,0,2.9465,Andesite_rect,10,0,10,0,1
65e257541a1445e571e8525f,SCR,2024-06-10_13h50.21.558,LearnStrategy,2023.2.3,Win32,61.34969325,6,2,12,,,,,,,,3,15,,,,,,,,,,,,,7,1.518,0,,,,,,0.086111111,-0.394444444,1,0,0,1.518,Peridotite_rect,11,0,11,0,1
65e257541a1445e571e8525f,SCR,2024-06-10_13h50.21.558,LearnStrategy,2023.2.3,Win32,61.34969325,6,2,13,,,,,,,,1,02,,,,,,,,,,,,,7,3.345,0,,,,,,0.105555556,-0.416666667,1,0,0,3.3445,Peridotite_rect,12,0,12,0,1
65e257541a1445e571e8525f,SCR,2024-06-10_13h50.21.558,LearnStrategy,2023.2.3,Win32,61.34969325,6,2,14,,,,,,,,8,15,,,,,,,,,,,,,8,1.003,1,,,,,,0.351851908,-0.390740797,1,0,0,1.0028,Pumice_rect,13,0,13,0,1
65e257541a1445e571e8525f,SCR,2024-06-10_13h50.21.558,LearnStrategy,2023.2.3,Win32,61.34969325,6,2,15,,,,,,,,4,10,,,,,,,,,,,,,4,1.87,1,,,,,,0.365740797,-0.259259288,1,0,0,1.8699,Gabbro_rect,14,0,14,0,1
65e257541a1445e571e8525f,SCR,2024-06-10_13h50.21.558,LearnStrategy,2023.2.3,Win32,61.34969325,6,2,16,,,,,,,,2,10,,,,,,,,,,,,,2,1.458,1,,,,,,-0.116666667,-0.262037065,1,0,0,1.4578,Basalt_rect,15,0,15,0,1
65e257541a1445e571e8525f,SCR,2024-06-10_13h50.21.558,LearnStrategy,2023.2.3,Win32,61.34969325,7,1,1,-0.554629623,-0.435185242,1,0,0,2.5146,Pegmatite_10,6,10,1,1,2.515,1,01,-0.096296268,-0.40648151,1,0,0,0.9499,Pegmatite_rect,6,0.95,1,0,0,0,0,1,,,,,,,,,,,,
65e257541a1445e571e8525f,SCR,2024-06-10_13h50.21.558,LearnStrategy,2023.2.3,Win32,61.34969325,7,1,2,-0.367592578,0.073148134,1,0,0,0.9459,Gabbro_16,4,16,4,2,0.946,4,16,0.362037065,-0.25,1,0,0,1.6726,Gabbro_rect,4,1.673,1,1,0,1,0,1,,,,,,,,,,,,
65e257541a1445e571e8525f,SCR,2024-06-10_13h50.21.558,LearnStrategy,2023.2.3,Win32,61.34969325,7,1,3,0.08148151,0.405555556,1,0,0,0.9724,Andesite_01,1,01,6,5,0.972,1,01,-0.398148134,-0.23148151,1,0,0,1.1716,Andesite_rect,1,1.172,1,2,0,2,0,1,,,,,,,,,,,,
65e257541a1445e571e8525f,SCR,2024-06-10_13h50.21.558,LearnStrategy,2023.2.3,Win32,61.34969325,7,1,4,0.416666667,0.425,1,0,0,1.0616,Peridotite_16,7,16,6,7,1.062,7,16,0.152777778,-0.398148176,1,0,0,1.0115,Peridotite_rect,7,1.012,1,3,0,3,0,1,,,,,,,,,,,,
65e257541a1445e571e8525f,SCR,2024-06-10_13h50.21.558,LearnStrategy,2023.2.3,Win32,61.34969325,7,1,5,-0.066666667,-0.253703732,1,0,0,2.8064,Peridotite_14,7,14,2,4,2.806,6,10,0.172222222,-0.400925954,1,0,0,0.7499,Peridotite_rect,7,0.75,1,4,0,4,0,1,,,,,,,,,,,,
65e257541a1445e571e8525f,SCR,2024-06-10_13h50.21.558,LearnStrategy,2023.2.3,Win32,61.34969325,7,1,6,0.272222222,0.087037023,1,0,0,1.4473,Andesite_16,1,16,4,6,1.447,7,16,-0.35370369,-0.253703732,1,0,0,1.1262,Andesite_rect,1,1.126,1,5,0,5,0,1,,,,,,,,,,,,
65e257541a1445e571e8525f,SCR,2024-06-10_13h50.21.558,LearnStrategy,2023.2.3,Win32,61.34969325,7,1,7,0.412037065,0.4074074,1,0,0,1.0389,Peridotite_16,7,16,6,7,1.039,1,16,0.141666667,-0.404629686,1,0,0,1.0266,Peridotite_rect,7,1.027,1,6,0,6,0,1,,,,,,,,,,,,
65e257541a1445e571e8525f,SCR,2024-06-10_13h50.21.558,LearnStrategy,2023.2.3,Win32,61.34969325,7,1,8,0.548148261,-0.115740755,1,0,0,0.8055,Gabbro_03,4,03,3,8,0.805,8,02,-0.394444444,-0.239814843,1,0,0,1.0915,Andesite_rect,1,1.091,0,7,0,7,0,1,,,,,,,,,,,,
65e257541a1445e571e8525f,SCR,2024-06-10_13h50.21.558,LearnStrategy,2023.2.3,Win32,61.34969325,7,1,9,0.505555556,-0.242592621,1,0,0,1.3626,Diorite_11,3,11,2,8,1.363,3,16,0.163888889,-0.236111111,1,0,0,0.7481,Diorite_rect,3,0.748,1,8,0,8,0,1,,,,,,,,,,,,
65e257541a1445e571e8525f,SCR,2024-06-10_13h50.21.558,LearnStrategy,2023.2.3,Win32,61.34969325,7,1,10,-0.086111111,0.11851849,1,0,0,0.913,Pumice_02,8,02,4,4,0.913,6,13,0.38148151,-0.378703732,1,0,0,0.9498,Pumice_rect,8,0.95,1,9,0,9,0,1,,,,,,,,,,,,
65e257541a1445e571e8525f,SCR,2024-06-10_13h50.21.558,LearnStrategy,2023.2.3,Win32,61.34969325,7,1,11,0.087963019,0.4037037,1,0,0,0.8962,Andesite_01,1,01,6,5,0.896,7,12,0.366666667,-0.25648151,1,0,0,2.1733,Gabbro_rect,4,2.173,0,10,0,10,0,1,,,,,,,,,,,,
65e257541a1445e571e8525f,SCR,2024-06-10_13h50.21.558,LearnStrategy,2023.2.3,Win32,61.34969325,7,1,12,-0.576851845,0.123148134,1,0,0,1.3724,Obsidian_06,5,06,4,1,1.372,5,06,-0.39351849,-0.4,1,0,0,1.0339,Obsidian_rect,5,1.034,1,11,0,11,0,1,,,,,,,,,,,,
65e257541a1445e571e8525f,SCR,2024-06-10_13h50.21.558,LearnStrategy,2023.2.3,Win32,61.34969325,7,1,13,0.269444444,-0.223148176,1,0,0,1.1962,Gabbro_05,4,05,2,6,1.196,4,05,0.358333333,-0.238888889,1,0,0,1.0587,Gabbro_rect,4,1.059,1,12,0,12,0,1,,,,,,,,,,,,
65e257541a1445e571e8525f,SCR,2024-06-10_13h50.21.558,LearnStrategy,2023.2.3,Win32,61.34969325,7,1,14,-0.421296268,0.404629623,1,0,0,1.1324,Gabbro_14,4,14,6,2,1.132,4,14,0.370370399,-0.260185242,1,0,0,1.0084,Gabbro_rect,4,1.008,1,13,0,13,0,1,,,,,,,,,,,,
65e257541a1445e571e8525f,SCR,2024-06-10_13h50.21.558,LearnStrategy,2023.2.3,Win32,61.34969325,7,1,15,0.565740797,-0.420370399,1,0,0,1.0127,Diorite_09,3,09,1,8,1.013,3,09,0.075,-0.270370399,1,0,0,0.6138,Diorite_rect,3,0.614,1,14,0,14,0,1,,,,,,,,,,,,
65e257541a1445e571e8525f,SCR,2024-06-10_13h50.21.558,LearnStrategy,2023.2.3,Win32,61.34969325,7,1,16,0.397222222,0.087962935,1,0,0,0.839,Andesite_03,1,03,4,7,0.839,2,01,-0.400925912,-0.258333333,1,0,0,3.3911,Andesite_rect,1,3.391,1,15,0,15,0,1,,,,,,,,,,,,
65e257541a1445e571e8525f,SCR,2024-06-10_13h50.21.558,LearnStrategy,2023.2.3,Win32,61.34969325,7,2,1,,,,,,,,8,04,,,,,,,,,,,,,8,1.298,1,,,,,,0.360185242,-0.408333333,1,0,0,1.2981,Pumice_rect,0,0,0,0,1
65e257541a1445e571e8525f,SCR,2024-06-10_13h50.21.558,LearnStrategy,2023.2.3,Win32,61.34969325,7,2,2,,,,,,,,5,04,,,,,,,,,,,,,5,2.064,1,,,,,,-0.391666667,-0.387037065,1,0,0,2.0641,Obsidian_rect,1,0,1,0,1
65e257541a1445e571e8525f,SCR,2024-06-10_13h50.21.558,LearnStrategy,2023.2.3,Win32,61.34969325,7,2,3,,,,,,,,8,15,,,,,,,,,,,,,8,1.736,1,,,,,,0.392592621,-0.405555556,1,0,0,1.7364,Pumice_rect,2,0,2,0,1
65e257541a1445e571e8525f,SCR,2024-06-10_13h50.21.558,LearnStrategy,2023.2.3,Win32,61.34969325,7,2,4,,,,,,,,7,05,,,,,,,,,,,,,7,2.129,1,,,,,,0.110185242,-0.404629686,1,0,0,2.1287,Peridotite_rect,3,0,3,0,1
65e257541a1445e571e8525f,SCR,2024-06-10_13h50.21.558,LearnStrategy,2023.2.3,Win32,61.34969325,7,2,5,,,,,,,,2,10,,,,,,,,,,,,,2,2.066,1,,,,,,-0.175,-0.244444444,1,0,0,2.0659,Basalt_rect,4,0,4,0,1
65e257541a1445e571e8525f,SCR,2024-06-10_13h50.21.558,LearnStrategy,2023.2.3,Win32,61.34969325,7,2,6,,,,,,,,1,06,,,,,,,,,,,,,1,1.955,1,,,,,,-0.379629601,-0.252777778,1,0,0,1.9546,Andesite_rect,5,0,5,0,1
65e257541a1445e571e8525f,SCR,2024-06-10_13h50.21.558,LearnStrategy,2023.2.3,Win32,61.34969325,7,2,7,,,,,,,,2,09,,,,,,,,,,,,,2,1.235,1,,,,,,-0.130555556,-0.271296353,1,0,0,1.2345,Basalt_rect,6,0,6,0,1
65e257541a1445e571e8525f,SCR,2024-06-10_13h50.21.558,LearnStrategy,2023.2.3,Win32,61.34969325,7,2,8,,,,,,,,5,07,,,,,,,,,,,,,5,0.989,1,,,,,,-0.370370356,-0.379629686,1,0,0,0.9892,Obsidian_rect,7,0,7,0,1
65e257541a1445e571e8525f,SCR,2024-06-10_13h50.21.558,LearnStrategy,2023.2.3,Win32,61.34969325,7,2,9,,,,,,,,4,10,,,,,,,,,,,,,4,1.71,1,,,,,,0.368518575,-0.255555556,1,0,0,1.7104,Gabbro_rect,8,0,8,0,1
65e257541a1445e571e8525f,SCR,2024-06-10_13h50.21.558,LearnStrategy,2023.2.3,Win32,61.34969325,7,2,10,,,,,,,,3,07,,,,,,,,,,,,,3,1.085,1,,,,,,0.143518575,-0.241666667,1,0,0,1.0848,Diorite_rect,9,0,9,0,1
65e257541a1445e571e8525f,SCR,2024-06-10_13h50.21.558,LearnStrategy,2023.2.3,Win32,61.34969325,7,2,11,,,,,,,,6,06,,,,,,,,,,,,,6,1.403,1,,,,,,-0.114814758,-0.400925954,1,0,0,1.4032,Pegmatite_rect,10,0,10,0,1
65e257541a1445e571e8525f,SCR,2024-06-10_13h50.21.558,LearnStrategy,2023.2.3,Win32,61.34969325,7,2,12,,,,,,,,7,10,,,,,,,,,,,,,7,1.236,1,,,,,,0.130555556,-0.382407464,1,0,0,1.2359,Peridotite_rect,11,0,11,0,1
65e257541a1445e571e8525f,SCR,2024-06-10_13h50.21.558,LearnStrategy,2023.2.3,Win32,61.34969325,7,2,13,,,,,,,,6,16,,,,,,,,,,,,,3,3.005,0,,,,,,0.137037065,-0.247222222,1,0,0,3.0052,Diorite_rect,12,0,12,0,1
65e257541a1445e571e8525f,SCR,2024-06-10_13h50.21.558,LearnStrategy,2023.2.3,Win32,61.34969325,7,2,14,,,,,,,,1,02,,,,,,,,,,,,,3,1.135,0,,,,,,0.137037065,-0.247222222,1,0,0,1.1346,Diorite_rect,13,0,13,0,1
65e257541a1445e571e8525f,SCR,2024-06-10_13h50.21.558,LearnStrategy,2023.2.3,Win32,61.34969325,7,2,15,,,,,,,,4,12,,,,,,,,,,,,,1,1.119,0,,,,,,-0.372222222,-0.245370399,1,0,0,1.1194,Andesite_rect,14,0,14,0,1
65e257541a1445e571e8525f,SCR,2024-06-10_13h50.21.558,LearnStrategy,2023.2.3,Win32,61.34969325,7,2,16,,,,,,,,3,06,,,,,,,,,,,,,3,1.321,1,,,,,,0.133333333,-0.258333333,1,0,0,1.321,Diorite_rect,15,0,15,0,1
65e257541a1445e571e8525f,SCR,2024-06-10_13h50.21.558,LearnStrategy,2023.2.3,Win32,61.34969325,8,1,1,0.060185242,-0.118518533,1,0,0,0.631,Pegmatite_05,6,05,3,5,0.631,6,05,0.147222222,-0.255555556,1,0,0,1.2451,Diorite_rect,3,1.245,0,0,0,0,0,1,,,,,,,,,,,,
65e257541a1445e571e8525f,SCR,2024-06-10_13h50.21.558,LearnStrategy,2023.2.3,Win32,61.34969325,8,1,2,-0.080555556,-0.115740755,1,0,0,1.0621,Andesite_14,1,14,3,4,1.062,4,16,0.151851908,-0.232407464,1,0,0,3.618,Diorite_rect,3,3.618,0,1,0,1,0,1,,,,,,,,,,,,
65e257541a1445e571e8525f,SCR,2024-06-10_13h50.21.558,LearnStrategy,2023.2.3,Win32,61.34969325,8,1,3,0.044444444,-0.252777778,1,0,0,0.9469,Pumice_14,8,14,2,5,0.947,1,01,0.344444444,-0.394444444,1,0,0,0.9338,Pumice_rect,8,0.934,1,2,0,2,0,1,,,,,,,,,,,,
65e257541a1445e571e8525f,SCR,2024-06-10_13h50.21.558,LearnStrategy,2023.2.3,Win32,61.34969325,8,1,4,0.396296353,-0.093518533,1,0,0,0.9276,Pegmatite_07,6,07,3,7,0.928,2,04,-0.075,-0.400925954,1,0,0,1.0095,Pegmatite_rect,6,1.009,1,3,0,3,0,1,,,,,,,,,,,,
65e257541a1445e571e8525f,SCR,2024-06-10_13h50.21.558,LearnStrategy,2023.2.3,Win32,61.34969325,8,1,5,0.549074131,0.258333333,1,0,0,1.3872,Pegmatite_03,6,03,5,8,1.387,1,05,-0.11851849,-0.40648151,1,0,0,1.623,Pegmatite_rect,6,1.623,1,4,0,4,0,1,,,,,,,,,,,,
65e257541a1445e571e8525f,SCR,2024-06-10_13h50.21.558,LearnStrategy,2023.2.3,Win32,61.34969325,8,1,6,-0.42870369,0.050925912,1,0,0,1.1124,Gabbro_16,4,16,4,2,1.112,4,16,0.35648151,-0.262037065,1,0,0,0.7796,Gabbro_rect,4,0.78,1,5,0,5,0,1,,,,,,,,,,,,
65e257541a1445e571e8525f,SCR,2024-06-10_13h50.21.558,LearnStrategy,2023.2.3,Win32,61.34969325,8,1,7,0.418518575,0.239814801,1,0,0,1.274,Andesite_09,1,09,5,7,1.274,1,09,-0.325,-0.252777778,1,0,0,1.2079,Andesite_rect,1,1.208,1,6,0,6,0,1,,,,,,,,,,,,
65e257541a1445e571e8525f,SCR,2024-06-10_13h50.21.558,LearnStrategy,2023.2.3,Win32,61.34969325,8,1,8,0.387037065,0.375925922,1,0,0,1.1457,Peridotite_16,7,16,6,7,1.146,7,16,0.121296353,-0.391666667,1,0,0,0.9194,Peridotite_rect,7,0.919,1,7,0,7,0,1,,,,,,,,,,,,
65e257541a1445e571e8525f,SCR,2024-06-10_13h50.21.558,LearnStrategy,2023.2.3,Win32,61.34969325,8,1,9,-0.073148092,-0.101851866,1,0,0,0.5821,Andesite_14,1,14,3,4,0.582,1,14,0.101851908,-0.249074131,1,0,0,1.2171,Diorite_rect,3,1.217,0,8,0,8,0,1,,,,,,,,,,,,
65e257541a1445e571e8525f,SCR,2024-06-10_13h50.21.558,LearnStrategy,2023.2.3,Win32,61.34969325,8,1,10,0.374074131,-0.287037065,1,0,0,0.9119,Obsidian_16,5,16,2,7,0.912,5,16,-0.394444444,-0.403703732,1,0,0,0.643,Obsidian_rect,5,0.643,1,9,0,9,0,1,,,,,,,,,,,,
65e257541a1445e571e8525f,SCR,2024-06-10_13h50.21.558,LearnStrategy,2023.2.3,Win32,61.34969325,8,1,11,-0.031481425,0.075925912,1,0,0,1.0623,Pumice_02,8,02,4,4,1.062,8,02,0.374074131,-0.395370399,1,0,0,1.1832,Pumice_rect,8,1.183,1,10,0,10,0,1,,,,,,,,,,,,
65e257541a1445e571e8525f,SCR,2024-06-10_13h50.21.558,LearnStrategy,2023.2.3,Win32,61.34969325,8,1,12,0.395370399,0.404629623,1,0,0,0.9962,Peridotite_16,7,16,6,7,0.996,7,16,0.141666667,-0.413888889,1,0,0,1.4882,Peridotite_rect,7,1.488,1,11,0,11,0,1,,,,,,,,,,,,
65e257541a1445e571e8525f,SCR,2024-06-10_13h50.21.558,LearnStrategy,2023.2.3,Win32,61.34969325,8,1,13,0.2,0.238888889,1,0,0,0.7637,Diorite_16,3,16,5,6,0.764,3,16,0.125,-0.234259288,1,0,0,1.3634,Diorite_rect,3,1.363,1,12,0,12,0,1,,,,,,,,,,,,
65e257541a1445e571e8525f,SCR,2024-06-10_13h50.21.558,LearnStrategy,2023.2.3,Win32,61.34969325,8,1,14,0.195370399,0.237962956,1,0,0,0.7465,Diorite_16,3,16,5,6,0.746,3,16,0.127777778,-0.236111111,1,0,0,1.6106,Diorite_rect,3,1.611,1,13,0,13,0,1,,,,,,,,,,,,
65e257541a1445e571e8525f,SCR,2024-06-10_13h50.21.558,LearnStrategy,2023.2.3,Win32,61.34969325,8,1,15,-0.538888889,-0.386111111,1,0,0,1.0289,Pegmatite_10,6,10,1,1,1.029,6,10,-0.071296268,-0.388888889,1,0,0,0.637,Pegmatite_rect,6,0.637,1,14,0,14,0,1,,,,,,,,,,,,
65e257541a1445e571e8525f,SCR,2024-06-10_13h50.21.558,LearnStrategy,2023.2.3,Win32,61.34969325,8,1,16,-0.414814801,0.405555556,1,0,0,1.0953,Gabbro_14,4,14,6,2,1.095,4,14,0.409259288,-0.242592621,1,0,0,0.967,Gabbro_rect,4,0.967,1,15,0,15,0,1,,,,,,,,,,,,
65e257541a1445e571e8525f,SCR,2024-06-10_13h50.21.558,LearnStrategy,2023.2.3,Win32,61.34969325,8,2,1,,,,,,,,5,14,,,,,,,,,,,,,5,1.847,1,,,,,,-0.388888889,-0.392592621,1,0,0,1.8471,Obsidian_rect,0,0,0,0,1
65e257541a1445e571e8525f,SCR,2024-06-10_13h50.21.558,LearnStrategy,2023.2.3,Win32,61.34969325,8,2,2,,,,,,,,6,08,,,,,,,,,,,,,6,1.339,1,,,,,,-0.15,-0.408333333,1,0,0,1.3387,Pegmatite_rect,1,0,1,0,1
65e257541a1445e571e8525f,SCR,2024-06-10_13h50.21.558,LearnStrategy,2023.2.3,Win32,61.34969325,8,2,3,,,,,,,,1,04,,,,,,,,,,,,,1,3.081,1,,,,,,-0.369444444,-0.255555556,1,0,0,3.0809,Andesite_rect,2,0,2,0,1
65e257541a1445e571e8525f,SCR,2024-06-10_13h50.21.558,LearnStrategy,2023.2.3,Win32,61.34969325,8,2,4,,,,,,,,3,15,,,,,,,,,,,,,3,1.549,1,,,,,,0.105555556,-0.258333333,1,0,0,1.5489,Diorite_rect,3,0,3,0,1
65e257541a1445e571e8525f,SCR,2024-06-10_13h50.21.558,LearnStrategy,2023.2.3,Win32,61.34969325,8,2,5,,,,,,,,2,11,,,,,,,,,,,,,1,2.814,0,,,,,,-0.433333333,-0.250925954,1,0,0,2.8142,Andesite_rect,4,0,4,0,1
65e257541a1445e571e8525f,SCR,2024-06-10_13h50.21.558,LearnStrategy,2023.2.3,Win32,61.34969325,8,2,6,,,,,,,,5,12,,,,,,,,,,,,,5,1.02,1,,,,,,-0.375925912,-0.411111111,1,0,0,1.0204,Obsidian_rect,5,0,5,0,1
65e257541a1445e571e8525f,SCR,2024-06-10_13h50.21.558,LearnStrategy,2023.2.3,Win32,61.34969325,8,2,7,,,,,,,,8,08,,,,,,,,,,,,,8,1.331,1,,,,,,0.401851908,-0.404629686,1,0,0,1.3308,Pumice_rect,6,0,6,0,1
65e257541a1445e571e8525f,SCR,2024-06-10_13h50.21.558,LearnStrategy,2023.2.3,Win32,61.34969325,8,2,8,,,,,,,,4,15,,,,,,,,,,,,,4,2.841,1,,,,,,0.35648151,-0.258333333,1,0,0,2.841,Gabbro_rect,7,0,7,0,1
65e257541a1445e571e8525f,SCR,2024-06-10_13h50.21.558,LearnStrategy,2023.2.3,Win32,61.34969325,8,2,9,,,,,,,,1,10,,,,,,,,,,,,,1,1.693,1,,,,,,-0.367592578,-0.248148176,1,0,0,1.6929,Andesite_rect,8,0,8,0,1
65e257541a1445e571e8525f,SCR,2024-06-10_13h50.21.558,LearnStrategy,2023.2.3,Win32,61.34969325,8,2,10,,,,,,,,7,04,,,,,,,,,,,,,3,1.413,0,,,,,,0.111111111,-0.25,1,0,0,1.4135,Diorite_rect,9,0,9,0,1
65e257541a1445e571e8525f,SCR,2024-06-10_13h50.21.558,LearnStrategy,2023.2.3,Win32,61.34969325,8,2,11,,,,,,,,3,14,,,,,,,,,,,,,3,0.764,1,,,,,,0.111111111,-0.25,1,0,0,0.7643,Diorite_rect,10,0,10,0,1
65e257541a1445e571e8525f,SCR,2024-06-10_13h50.21.558,LearnStrategy,2023.2.3,Win32,61.34969325,8,2,12,,,,,,,,7,15,,,,,,,,,,,,,7,1.327,1,,,,,,0.095370399,-0.403703732,1,0,0,1.3274,Peridotite_rect,11,0,11,0,1
65e257541a1445e571e8525f,SCR,2024-06-10_13h50.21.558,LearnStrategy,2023.2.3,Win32,61.34969325,8,2,13,,,,,,,,6,12,,,,,,,,,,,,,6,1.999,1,,,,,,-0.14351849,-0.411111111,1,0,0,1.999,Pegmatite_rect,12,0,12,0,1
65e257541a1445e571e8525f,SCR,2024-06-10_13h50.21.558,LearnStrategy,2023.2.3,Win32,61.34969325,8,2,14,,,,,,,,8,06,,,,,,,,,,,,,8,1.141,1,,,,,,0.360185242,-0.403703732,1,0,0,1.1407,Pumice_rect,13,0,13,0,1
65e257541a1445e571e8525f,SCR,2024-06-10_13h50.21.558,LearnStrategy,2023.2.3,Win32,61.34969325,8,2,15,,,,,,,,2,05,,,,,,,,,,,,,2,2.369,1,,,,,,-0.131481425,-0.244444444,1,0,0,2.3693,Basalt_rect,14,0,14,0,1
65e257541a1445e571e8525f,SCR,2024-06-10_13h50.21.558,LearnStrategy,2023.2.3,Win32,61.34969325,8,2,16,,,,,,,,4,13,,,,,,,,,,,,,1,2.121,0,,,,,,-0.37870369,-0.244444444,1,0,0,2.1206,Andesite_rect,15,0,15,0,1
65e257541a1445e571e8525f,SCR,2024-06-10_13h50.21.558,LearnStrategy,2023.2.3,Win32,61.34969325,9,1,1,-0.204629601,-0.250925954,1,0,0,0.8569,Pumice_03,8,03,2,3,0.857,8,03,0.365740797,-0.394444444,1,0,0,1.1602,Pumice_rect,8,1.16,1,0,0,0,0,1,,,,,,,,,,,,
65e257541a1445e571e8525f,SCR,2024-06-10_13h50.21.558,LearnStrategy,2023.2.3,Win32,61.34969325,9,1,2,0.397222222,-0.12129631,1,0,0,3.2109,Pegmatite_07,6,07,3,7,3.211,4,05,0.08148151,-0.414814843,1,0,0,1.3478,Peridotite_rect,7,1.348,0,1,0,1,0,1,,,,,,,,,,,,
65e257541a1445e571e8525f,SCR,2024-06-10_13h50.21.558,LearnStrategy,2023.2.3,Win32,61.34969325,9,1,3,-0.099074046,0.416666667,1,0,0,1.0967,Peridotite_06,7,06,6,4,1.097,4,09,0.084259288,-0.400925954,1,0,0,1.6798,Peridotite_rect,7,1.68,1,2,0,2,0,1,,,,,,,,,,,,
65e257541a1445e571e8525f,SCR,2024-06-10_13h50.21.558,LearnStrategy,2023.2.3,Win32,61.34969325,9,1,4,0.566666667,0.235185178,1,0,0,3.011,Pegmatite_03,6,03,5,8,3.011,7,12,-0.079629601,-0.405555556,1,0,0,1.0995,Pegmatite_rect,6,1.1,1,3,0,3,0,1,,,,,,,,,,,,
65e257541a1445e571e8525f,SCR,2024-06-10_13h50.21.558,LearnStrategy,2023.2.3,Win32,61.34969325,9,1,5,-0.231481467,0.366666667,1,0,0,1.4942,Peridotite_07,7,07,6,3,1.494,7,07,0.073148176,-0.412037065,1,0,0,1.8644,Peridotite_rect,7,1.864,1,4,0,4,0,1,,,,,,,,,,,,
65e257541a1445e571e8525f,SCR,2024-06-10_13h50.21.558,LearnStrategy,2023.2.3,Win32,61.34969325,9,1,6,0.386111111,0.239814801,1,0,0,1.1218,Andesite_09,1,09,5,7,1.122,1,09,-0.408333333,-0.266666667,1,0,0,0.9537,Andesite_rect,1,0.954,1,5,0,5,0,1,,,,,,,,,,,,
65e257541a1445e571e8525f,SCR,2024-06-10_13h50.21.558,LearnStrategy,2023.2.3,Win32,61.34969325,9,1,7,-0.256481467,-0.264814843,1,0,0,1.3786,Pumice_03,8,03,2,3,1.379,5,02,0.412037065,-0.415740797,1,0,0,1.5355,Pumice_rect,8,1.535,1,6,0,6,0,1,,,,,,,,,,,,
65e257541a1445e571e8525f,SCR,2024-06-10_13h50.21.558,LearnStrategy,2023.2.3,Win32,61.34969325,9,1,8,0.078703732,-0.103703732,1,0,0,1.046,Pegmatite_05,6,05,3,5,1.046,7,14,0.097222222,-0.401851908,1,0,0,1.7662,Peridotite_rect,7,1.766,0,7,0,7,0,1,,,,,,,,,,,,
65e257541a1445e571e8525f,SCR,2024-06-10_13h50.21.558,LearnStrategy,2023.2.3,Win32,61.34969325,9,1,9,0.051851908,-0.120370399,1,0,0,0.7466,Pegmatite_05,6,05,3,5,0.747,2,01,-0.177777778,-0.407407464,1,0,0,0.8678,Pegmatite_rect,6,0.868,1,8,0,8,0,1,,,,,,,,,,,,
65e257541a1445e571e8525f,SCR,2024-06-10_13h50.21.558,LearnStrategy,2023.2.3,Win32,61.34969325,9,1,10,0.221296353,0.209259245,1,0,0,0.879,Diorite_16,3,16,5,6,0.879,3,16,0.117592621,-0.253703732,1,0,0,0.9143,Diorite_rect,3,0.914,1,9,0,9,0,1,,,,,,,,,,,,
65e257541a1445e571e8525f,SCR,2024-06-10_13h50.21.558,LearnStrategy,2023.2.3,Win32,61.34969325,9,1,11,-0.4,-0.25,1,0,0,1.0853,Andesite_05,1,05,2,2,1.085,1,05,-0.380555556,-0.236111111,0,0,1,1.0453,Andesite_rect,1,1.045,1,10,0,10,0,1,,,,,,,,,,,,
65e257541a1445e571e8525f,SCR,2024-06-10_13h50.21.558,LearnStrategy,2023.2.3,Win32,61.34969325,9,1,12,-0.191666667,0.094444444,1,0,0,1.3606,Diorite_08,3,08,4,3,1.361,3,08,0.146296353,-0.250925954,1,0,0,0.8844,Diorite_rect,3,0.884,1,11,0,11,0,1,,,,,,,,,,,,
65e257541a1445e571e8525f,SCR,2024-06-10_13h50.21.558,LearnStrategy,2023.2.3,Win32,61.34969325,9,1,13,0.113888889,-0.129629644,1,0,0,0.8471,Pegmatite_05,6,05,3,5,0.847,6,05,-0.112962935,-0.412037065,1,0,0,1.5917,Pegmatite_rect,6,1.592,1,12,0,12,0,1,,,,,,,,,,,,
65e257541a1445e571e8525f,SCR,2024-06-10_13h50.21.558,LearnStrategy,2023.2.3,Win32,61.34969325,9,1,14,-0.525925912,-0.083333333,1,0,0,1.1704,Pegmatite_13,6,13,3,1,1.17,6,13,0.070370399,-0.400925954,1,0,0,2.1972,Peridotite_rect,7,2.197,0,13,0,13,0,1,,,,,,,,,,,,
65e257541a1445e571e8525f,SCR,2024-06-10_13h50.21.558,LearnStrategy,2023.2.3,Win32,61.34969325,9,1,15,0.051851908,0.208333333,1,0,0,1.5396,Basalt_16,2,16,5,5,1.54,2,16,-0.141666667,-0.238888889,1,0,0,0.855,Basalt_rect,2,0.855,1,14,0,14,0,1,,,,,,,,,,,,
65e257541a1445e571e8525f,SCR,2024-06-10_13h50.21.558,LearnStrategy,2023.2.3,Win32,61.34969325,9,1,16,-0.391666667,0.393518511,1,0,0,1.0438,Gabbro_14,4,14,6,2,1.044,4,14,0.404629686,-0.255555556,1,0,0,1.3266,Gabbro_rect,4,1.327,1,15,0,15,0,1,,,,,,,,,,,,
65e257541a1445e571e8525f,SCR,2024-06-10_13h50.21.558,LearnStrategy,2023.2.3,Win32,61.34969325,9,2,1,,,,,,,,4,11,,,,,,,,,,,,,1,2.456,0,,,,,,-0.41851849,-0.239814843,1,0,0,2.4557,Andesite_rect,0,0,0,0,1
65e257541a1445e571e8525f,SCR,2024-06-10_13h50.21.558,LearnStrategy,2023.2.3,Win32,61.34969325,9,2,2,,,,,,,,7,02,,,,,,,,,,,,,7,1.42,1,,,,,,0.141666667,-0.396296353,1,0,0,1.4202,Peridotite_rect,1,0,1,0,1
65e257541a1445e571e8525f,SCR,2024-06-10_13h50.21.558,LearnStrategy,2023.2.3,Win32,61.34969325,9,2,3,,,,,,,,2,02,,,,,,,,,,,,,2,1.209,1,,,,,,-0.123148092,-0.249074131,1,0,0,1.2093,Basalt_rect,2,0,2,0,1
65e257541a1445e571e8525f,SCR,2024-06-10_13h50.21.558,LearnStrategy,2023.2.3,Win32,61.34969325,9,2,4,,,,,,,,6,09,,,,,,,,,,,,,6,1.346,1,,,,,,-0.1,-0.397222222,1,0,0,1.346,Pegmatite_rect,3,0,3,0,1
65e257541a1445e571e8525f,SCR,2024-06-10_13h50.21.558,LearnStrategy,2023.2.3,Win32,61.34969325,9,2,5,,,,,,,,8,10,,,,,,,,,,,,,8,2.263,1,,,,,,0.399074131,-0.38148151,1,0,0,2.263,Pumice_rect,4,0,4,0,1
65e257541a1445e571e8525f,SCR,2024-06-10_13h50.21.558,LearnStrategy,2023.2.3,Win32,61.34969325,9,2,6,,,,,,,,1,11,,,,,,,,,,,,,1,1.578,1,,,,,,-0.396296268,-0.243518575,1,0,0,1.5779,Andesite_rect,5,0,5,0,1
65e257541a1445e571e8525f,SCR,2024-06-10_13h50.21.558,LearnStrategy,2023.2.3,Win32,61.34969325,9,2,7,,,,,,,,4,08,,,,,,,,,,,,,4,2.812,1,,,,,,0.35648151,-0.253703732,1,0,0,2.8122,Gabbro_rect,6,0,6,0,1
65e257541a1445e571e8525f,SCR,2024-06-10_13h50.21.558,LearnStrategy,2023.2.3,Win32,61.34969325,9,2,8,,,,,,,,5,08,,,,,,,,,,,,,5,0.978,1,,,,,,-0.400925912,-0.412037065,1,0,0,0.9778,Obsidian_rect,7,0,7,0,1
65e257541a1445e571e8525f,SCR,2024-06-10_13h50.21.558,LearnStrategy,2023.2.3,Win32,61.34969325,9,2,9,,,,,,,,6,15,,,,,,,,,,,,,6,1.209,1,,,,,,-0.125,-0.398148176,1,0,0,1.2092,Pegmatite_rect,8,0,8,0,1
65e257541a1445e571e8525f,SCR,2024-06-10_13h50.21.558,LearnStrategy,2023.2.3,Win32,61.34969325,9,2,10,,,,,,,,7,13,,,,,,,,,,,,,7,1.296,1,,,,,,0.129629686,-0.4,1,0,0,1.2958,Peridotite_rect,9,0,9,0,1
65e257541a1445e571e8525f,SCR,2024-06-10_13h50.21.558,LearnStrategy,2023.2.3,Win32,61.34969325,9,2,11,,,,,,,,1,07,,,,,,,,,,,,,3,1.018,0,,,,,,0.123148176,-0.262963019,1,0,0,1.0178,Diorite_rect,10,0,10,0,1
65e257541a1445e571e8525f,SCR,2024-06-10_13h50.21.558,LearnStrategy,2023.2.3,Win32,61.34969325,9,2,12,,,,,,,,8,16,,,,,,,,,,,,,8,1.963,1,,,,,,0.369444444,-0.385185242,1,0,0,1.9627,Pumice_rect,11,0,11,0,1
65e257541a1445e571e8525f,SCR,2024-06-10_13h50.21.558,LearnStrategy,2023.2.3,Win32,61.34969325,9,2,13,,,,,,,,2,14,,,,,,,,,,,,,4,1.596,0,,,,,,0.352777778,-0.25648151,1,0,0,1.5957,Gabbro_rect,12,0,12,0,1
65e257541a1445e571e8525f,SCR,2024-06-10_13h50.21.558,LearnStrategy,2023.2.3,Win32,61.34969325,9,2,14,,,,,,,,3,02,,,,,,,,,,,,,3,1.059,1,,,,,,0.171296353,-0.25,1,0,0,1.0591,Diorite_rect,13,0,13,0,1
65e257541a1445e571e8525f,SCR,2024-06-10_13h50.21.558,LearnStrategy,2023.2.3,Win32,61.34969325,9,2,15,,,,,,,,5,05,,,,,,,,,,,,,5,1.229,1,,,,,,-0.405555556,-0.408333333,1,0,0,1.2292,Obsidian_rect,14,0,14,0,1
65e257541a1445e571e8525f,SCR,2024-06-10_13h50.21.558,LearnStrategy,2023.2.3,Win32,61.34969325,9,2,16,,,,,,,,3,12,,,,,,,,,,,,,3,1.529,1,,,,,,0.101851908,-0.253703732,1,0,0,1.5292,Diorite_rect,15,0,15,0,1
65e257541a1445e571e8525f,SCR,2024-06-10_13h50.21.558,LearnStrategy,2023.2.3,Win32,61.34969325,,,,,,,,,,,,,,,,,,,,,,,,,,,,,,,,,,,,,,,,,,,,
65e257541a1445e571e8525f,SCR,2024-06-10_13h50.21.558,LearnStrategy,2023.2.3,Win32,61.34969325,,,,,,,,,,,,,,,,,,,,,,,,,,,,,,,,,,,,,,,,,,,,
65e257541a1445e571e8525f,SCR,2024-06-10_13h50.21.558,LearnStrategy,2023.2.3,Win32,61.34969325,,,,,,,,,,,6,10,1,1,,,,,,,,,,,,,,,,,,,,,,,,,,,,,,
65e257541a1445e571e8525f,SCR,2024-06-10_13h50.21.558,LearnStrategy,2023.2.3,Win32,61.34969325,,,,,,,,,,,5,02,1,2,,,,,,,,,,,,,,,,,,,,,,,,,,,,,,
65e257541a1445e571e8525f,SCR,2024-06-10_13h50.21.558,LearnStrategy,2023.2.3,Win32,61.34969325,,,,,,,,,,,8,05,1,3,,,,,,,,,,,,,,,,,,,,,,,,,,,,,,
65e257541a1445e571e8525f,SCR,2024-06-10_13h50.21.558,LearnStrategy,2023.2.3,Win32,61.34969325,,,,,,,,,,,5,11,1,4,,,,,,,,,,,,,,,,,,,,,,,,,,,,,,
65e257541a1445e571e8525f,SCR,2024-06-10_13h50.21.558,LearnStrategy,2023.2.3,Win32,61.34969325,,,,,,,,,,,5,09,1,5,,,,,,,,,,,,,,,,,,,,,,,,,,,,,,
65e257541a1445e571e8525f,SCR,2024-06-10_13h50.21.558,LearnStrategy,2023.2.3,Win32,61.34969325,,,,,,,,,,,8,09,1,6,,,,,,,,,,,,,,,,,,,,,,,,,,,,,,
65e257541a1445e571e8525f,SCR,2024-06-10_13h50.21.558,LearnStrategy,2023.2.3,Win32,61.34969325,,,,,,,,,,,7,12,1,7,,,,,,,,,,,,,,,,,,,,,,,,,,,,,,
65e257541a1445e571e8525f,SCR,2024-06-10_13h50.21.558,LearnStrategy,2023.2.3,Win32,61.34969325,,,,,,,,,,,3,09,1,8,,,,,,,,,,,,,,,,,,,,,,,,,,,,,,
65e257541a1445e571e8525f,SCR,2024-06-10_13h50.21.558,LearnStrategy,2023.2.3,Win32,61.34969325,,,,,,,,,,,6,11,2,1,,,,,,,,,,,,,,,,,,,,,,,,,,,,,,
65e257541a1445e571e8525f,SCR,2024-06-10_13h50.21.558,LearnStrategy,2023.2.3,Win32,61.34969325,,,,,,,,,,,1,05,2,2,,,,,,,,,,,,,,,,,,,,,,,,,,,,,,
65e257541a1445e571e8525f,SCR,2024-06-10_13h50.21.558,LearnStrategy,2023.2.3,Win32,61.34969325,,,,,,,,,,,8,03,2,3,,,,,,,,,,,,,,,,,,,,,,,,,,,,,,
65e257541a1445e571e8525f,SCR,2024-06-10_13h50.21.558,LearnStrategy,2023.2.3,Win32,61.34969325,,,,,,,,,,,7,14,2,4,,,,,,,,,,,,,,,,,,,,,,,,,,,,,,
65e257541a1445e571e8525f,SCR,2024-06-10_13h50.21.558,LearnStrategy,2023.2.3,Win32,61.34969325,,,,,,,,,,,8,14,2,5,,,,,,,,,,,,,,,,,,,,,,,,,,,,,,
65e257541a1445e571e8525f,SCR,2024-06-10_13h50.21.558,LearnStrategy,2023.2.3,Win32,61.34969325,,,,,,,,,,,4,05,2,6,,,,,,,,,,,,,,,,,,,,,,,,,,,,,,
65e257541a1445e571e8525f,SCR,2024-06-10_13h50.21.558,LearnStrategy,2023.2.3,Win32,61.34969325,,,,,,,,,,,5,16,2,7,,,,,,,,,,,,,,,,,,,,,,,,,,,,,,
65e257541a1445e571e8525f,SCR,2024-06-10_13h50.21.558,LearnStrategy,2023.2.3,Win32,61.34969325,,,,,,,,,,,3,11,2,8,,,,,,,,,,,,,,,,,,,,,,,,,,,,,,
65e257541a1445e571e8525f,SCR,2024-06-10_13h50.21.558,LearnStrategy,2023.2.3,Win32,61.34969325,,,,,,,,,,,6,13,3,1,,,,,,,,,,,,,,,,,,,,,,,,,,,,,,
65e257541a1445e571e8525f,SCR,2024-06-10_13h50.21.558,LearnStrategy,2023.2.3,Win32,61.34969325,,,,,,,,,,,2,04,3,2,,,,,,,,,,,,,,,,,,,,,,,,,,,,,,
65e257541a1445e571e8525f,SCR,2024-06-10_13h50.21.558,LearnStrategy,2023.2.3,Win32,61.34969325,,,,,,,,,,,3,13,3,3,,,,,,,,,,,,,,,,,,,,,,,,,,,,,,
65e257541a1445e571e8525f,SCR,2024-06-10_13h50.21.558,LearnStrategy,2023.2.3,Win32,61.34969325,,,,,,,,,,,1,14,3,4,,,,,,,,,,,,,,,,,,,,,,,,,,,,,,
65e257541a1445e571e8525f,SCR,2024-06-10_13h50.21.558,LearnStrategy,2023.2.3,Win32,61.34969325,,,,,,,,,,,6,05,3,5,,,,,,,,,,,,,,,,,,,,,,,,,,,,,,
65e257541a1445e571e8525f,SCR,2024-06-10_13h50.21.558,LearnStrategy,2023.2.3,Win32,61.34969325,,,,,,,,,,,5,10,3,6,,,,,,,,,,,,,,,,,,,,,,,,,,,,,,
65e257541a1445e571e8525f,SCR,2024-06-10_13h50.21.558,LearnStrategy,2023.2.3,Win32,61.34969325,,,,,,,,,,,6,07,3,7,,,,,,,,,,,,,,,,,,,,,,,,,,,,,,
65e257541a1445e571e8525f,SCR,2024-06-10_13h50.21.558,LearnStrategy,2023.2.3,Win32,61.34969325,,,,,,,,,,,4,03,3,8,,,,,,,,,,,,,,,,,,,,,,,,,,,,,,
65e257541a1445e571e8525f,SCR,2024-06-10_13h50.21.558,LearnStrategy,2023.2.3,Win32,61.34969325,,,,,,,,,,,5,06,4,1,,,,,,,,,,,,,,,,,,,,,,,,,,,,,,
65e257541a1445e571e8525f,SCR,2024-06-10_13h50.21.558,LearnStrategy,2023.2.3,Win32,61.34969325,,,,,,,,,,,4,16,4,2,,,,,,,,,,,,,,,,,,,,,,,,,,,,,,
65e257541a1445e571e8525f,SCR,2024-06-10_13h50.21.558,LearnStrategy,2023.2.3,Win32,61.34969325,,,,,,,,,,,3,08,4,3,,,,,,,,,,,,,,,,,,,,,,,,,,,,,,
65e257541a1445e571e8525f,SCR,2024-06-10_13h50.21.558,LearnStrategy,2023.2.3,Win32,61.34969325,,,,,,,,,,,8,02,4,4,,,,,,,,,,,,,,,,,,,,,,,,,,,,,,
65e257541a1445e571e8525f,SCR,2024-06-10_13h50.21.558,LearnStrategy,2023.2.3,Win32,61.34969325,,,,,,,,,,,2,12,4,5,,,,,,,,,,,,,,,,,,,,,,,,,,,,,,
65e257541a1445e571e8525f,SCR,2024-06-10_13h50.21.558,LearnStrategy,2023.2.3,Win32,61.34969325,,,,,,,,,,,1,16,4,6,,,,,,,,,,,,,,,,,,,,,,,,,,,,,,
65e257541a1445e571e8525f,SCR,2024-06-10_13h50.21.558,LearnStrategy,2023.2.3,Win32,61.34969325,,,,,,,,,,,1,03,4,7,,,,,,,,,,,,,,,,,,,,,,,,,,,,,,
65e257541a1445e571e8525f,SCR,2024-06-10_13h50.21.558,LearnStrategy,2023.2.3,Win32,61.34969325,,,,,,,,,,,4,09,4,8,,,,,,,,,,,,,,,,,,,,,,,,,,,,,,
65e257541a1445e571e8525f,SCR,2024-06-10_13h50.21.558,LearnStrategy,2023.2.3,Win32,61.34969325,,,,,,,,,,,4,01,5,1,,,,,,,,,,,,,,,,,,,,,,,,,,,,,,
65e257541a1445e571e8525f,SCR,2024-06-10_13h50.21.558,LearnStrategy,2023.2.3,Win32,61.34969325,,,,,,,,,,,2,06,5,2,,,,,,,,,,,,,,,,,,,,,,,,,,,,,,
65e257541a1445e571e8525f,SCR,2024-06-10_13h50.21.558,LearnStrategy,2023.2.3,Win32,61.34969325,,,,,,,,,,,2,08,5,3,,,,,,,,,,,,,,,,,,,,,,,,,,,,,,
65e257541a1445e571e8525f,SCR,2024-06-10_13h50.21.558,LearnStrategy,2023.2.3,Win32,61.34969325,,,,,,,,,,,8,13,5,4,,,,,,,,,,,,,,,,,,,,,,,,,,,,,,
65e257541a1445e571e8525f,SCR,2024-06-10_13h50.21.558,LearnStrategy,2023.2.3,Win32,61.34969325,,,,,,,,,,,2,16,5,5,,,,,,,,,,,,,,,,,,,,,,,,,,,,,,
65e257541a1445e571e8525f,SCR,2024-06-10_13h50.21.558,LearnStrategy,2023.2.3,Win32,61.34969325,,,,,,,,,,,3,16,5,6,,,,,,,,,,,,,,,,,,,,,,,,,,,,,,
65e257541a1445e571e8525f,SCR,2024-06-10_13h50.21.558,LearnStrategy,2023.2.3,Win32,61.34969325,,,,,,,,,,,1,09,5,7,,,,,,,,,,,,,,,,,,,,,,,,,,,,,,
65e257541a1445e571e8525f,SCR,2024-06-10_13h50.21.558,LearnStrategy,2023.2.3,Win32,61.34969325,,,,,,,,,,,6,03,5,8,,,,,,,,,,,,,,,,,,,,,,,,,,,,,,
65e257541a1445e571e8525f,SCR,2024-06-10_13h50.21.558,LearnStrategy,2023.2.3,Win32,61.34969325,,,,,,,,,,,3,10,6,1,,,,,,,,,,,,,,,,,,,,,,,,,,,,,,
65e257541a1445e571e8525f,SCR,2024-06-10_13h50.21.558,LearnStrategy,2023.2.3,Win32,61.34969325,,,,,,,,,,,4,14,6,2,,,,,,,,,,,,,,,,,,,,,,,,,,,,,,
65e257541a1445e571e8525f,SCR,2024-06-10_13h50.21.558,LearnStrategy,2023.2.3,Win32,61.34969325,,,,,,,,,,,7,07,6,3,,,,,,,,,,,,,,,,,,,,,,,,,,,,,,
65e257541a1445e571e8525f,SCR,2024-06-10_13h50.21.558,LearnStrategy,2023.2.3,Win32,61.34969325,,,,,,,,,,,7,06,6,4,,,,,,,,,,,,,,,,,,,,,,,,,,,,,,
65e257541a1445e571e8525f,SCR,2024-06-10_13h50.21.558,LearnStrategy,2023.2.3,Win32,61.34969325,,,,,,,,,,,1,01,6,5,,,,,,,,,,,,,,,,,,,,,,,,,,,,,,
65e257541a1445e571e8525f,SCR,2024-06-10_13h50.21.558,LearnStrategy,2023.2.3,Win32,61.34969325,,,,,,,,,,,7,08,6,6,,,,,,,,,,,,,,,,,,,,,,,,,,,,,,
65e257541a1445e571e8525f,SCR,2024-06-10_13h50.21.558,LearnStrategy,2023.2.3,Win32,61.34969325,,,,,,,,,,,7,16,6,7,,,,,,,,,,,,,,,,,,,,,,,,,,,,,,
65e257541a1445e571e8525f,SCR,2024-06-10_13h50.21.558,LearnStrategy,2023.2.3,Win32,61.34969325,,,,,,,,,,,2,01,6,8,,,,,,,,,,,,,,,,,,,,,,,,,,,,,,