participant,condition,date,expName,psychopyVersion,OS,frameRate,block,phase,trial,learn_mouse.x,learn_mouse.y,learn_mouse.leftButton,learn_mouse.midButton,learn_mouse.rightButton,learn_mouse.time,learn_mouse.clicked_name,cat,token,row,col,t_select,cat_rec,token_rec,cat_mouse_l.x,cat_mouse_l.y,cat_mouse_l.leftButton,cat_mouse_l.midButton,cat_mouse_l.rightButton,cat_mouse_l.time,cat_mouse_l.clicked_name,resp,t_resp,corr,train_trials.thisRepN,train_trials.thisTrialN,train_trials.thisN,train_trials.thisIndex,train_trials.ran,cat_mouse_t.x,cat_mouse_t.y,cat_mouse_t.leftButton,cat_mouse_t.midButton,cat_mouse_t.rightButton,cat_mouse_t.time,cat_mouse_t.clicked_name,test_trials.thisRepN,test_trials.thisTrialN,test_trials.thisN,test_trials.thisIndex,test_trials.ran
65e78c194623f14aa083ecaa,SCR,2024-06-10_15h07.50.817,LearnStrategy,2023.2.3,MacIntel,58.47953216,,,,,,,,,,,,,,,,,,,,,,,,,,,,,,,,,,,,,,,,,,,,
65e78c194623f14aa083ecaa,SCR,2024-06-10_15h07.50.817,LearnStrategy,2023.2.3,MacIntel,58.47953216,1,1,1,-0.563405541,0.411001129,1,0,0,2.671,Andesite_05,1,05,6,1,2.671,6,13,-0.390492893,-0.246499023,1,0,0,8.9864,Andesite_rect,1,8.986,1,0,0,0,0,1,,,,,,,,,,,,
65e78c194623f14aa083ecaa,SCR,2024-06-10_15h07.50.817,LearnStrategy,2023.2.3,MacIntel,58.47953216,1,1,2,-0.364925741,0.400619524,1,0,0,1.53,Obsidian_09,5,09,6,2,1.53,3,07,-0.378914015,-0.399273885,1,0,0,4.7295,Obsidian_rect,5,4.73,1,1,0,1,0,1,,,,,,,,,,,,
65e78c194623f14aa083ecaa,SCR,2024-06-10_15h07.50.817,LearnStrategy,2023.2.3,MacIntel,58.47953216,1,1,3,-0.21391588,0.379413995,1,0,0,1.3624,Basalt_11,2,11,6,3,1.362,7,10,0.362299127,-0.415053847,1,0,0,9.4787,Pumice_rect,8,9.479,0,2,0,2,0,1,,,,,,,,,,,,
65e78c194623f14aa083ecaa,SCR,2024-06-10_15h07.50.817,LearnStrategy,2023.2.3,MacIntel,58.47953216,1,1,4,-0.196573758,0.382198876,1,0,0,3.395,Basalt_11,2,11,6,3,3.395,7,07,-0.079805433,-0.230182699,1,0,0,5.7781,Basalt_rect,2,5.778,1,3,0,3,0,1,,,,,,,,,,,,
65e78c194623f14aa083ecaa,SCR,2024-06-10_15h07.50.817,LearnStrategy,2023.2.3,MacIntel,58.47953216,1,1,5,-0.091163873,0.41965939,1,0,0,1.1475,Pumice_03,8,03,6,4,1.148,8,13,0.30922153,-0.236773885,1,0,0,8.0804,Gabbro_rect,4,8.08,0,4,0,4,0,1,,,,,,,,,,,,
65e78c194623f14aa083ecaa,SCR,2024-06-10_15h07.50.817,LearnStrategy,2023.2.3,MacIntel,58.47953216,1,1,6,0.067441949,0.383475545,1,0,0,4.4998,Diorite_13,3,13,6,5,4.5,5,14,0.136861572,-0.237546251,1,0,0,5.5985,Diorite_rect,3,5.599,1,5,0,5,0,1,,,,,,,,,,,,
65e78c194623f14aa083ecaa,SCR,2024-06-10_15h07.50.817,LearnStrategy,2023.2.3,MacIntel,58.47953216,1,1,7,0.567870822,0.098871799,1,0,0,4.0013,Pegmatite_16,6,16,4,8,4.001,6,16,0.37456231,-0.241212836,1,0,0,4.8008,Gabbro_rect,4,4.801,0,6,0,6,0,1,,,,,,,,,,,,
65e78c194623f14aa083ecaa,SCR,2024-06-10_15h07.50.817,LearnStrategy,2023.2.3,MacIntel,58.47953216,1,1,8,-0.387017856,-0.424098172,1,0,0,2.8477,Pumice_06,8,06,1,2,2.848,8,06,0.375510661,-0.257425741,1,0,0,11.8356,Gabbro_rect,4,11.836,0,7,0,7,0,1,,,,,,,,,,,,
65e78c194623f14aa083ecaa,SCR,2024-06-10_15h07.50.817,LearnStrategy,2023.2.3,MacIntel,58.47953216,1,1,9,0.055889079,-0.417351413,1,0,0,1.5344,Gabbro_03,4,03,1,5,1.534,4,03,-0.320240479,-0.253731689,1,0,0,1.7581,Andesite_rect,1,1.758,0,8,0,8,0,1,,,,,,,,,,,,
65e78c194623f14aa083ecaa,SCR,2024-06-10_15h07.50.817,LearnStrategy,2023.2.3,MacIntel,58.47953216,1,1,10,-0.600226152,-0.256567247,1,0,0,2.2278,Basalt_02,2,02,2,1,2.228,2,02,-0.106216634,-0.236997884,1,0,0,2.5962,Basalt_rect,2,2.596,1,9,0,9,0,1,,,,,,,,,,,,
65e78c194623f14aa083ecaa,SCR,2024-06-10_15h07.50.817,LearnStrategy,2023.2.3,MacIntel,58.47953216,1,1,11,0.424256185,0.402376183,1,0,0,2.0994,Gabbro_05,4,05,6,7,2.099,4,05,0.13028361,-0.385089789,1,0,0,19.0457,Peridotite_rect,7,19.046,0,10,0,10,0,1,,,,,,,,,,,,
65e78c194623f14aa083ecaa,SCR,2024-06-10_15h07.50.817,LearnStrategy,2023.2.3,MacIntel,58.47953216,1,1,12,0.087229818,0.211013726,1,0,0,2.465,Andesite_02,1,02,5,5,2.465,1,02,-0.11347073,-0.41633016,1,0,0,11.5168,Pegmatite_rect,6,11.517,0,11,0,11,0,1,,,,,,,,,,,,
65e78c194623f14aa083ecaa,SCR,2024-06-10_15h07.50.817,LearnStrategy,2023.2.3,MacIntel,58.47953216,1,1,13,0.5752516,0.385188599,1,0,0,1.8306,Andesite_07,1,07,6,8,1.831,1,07,-0.331998223,-0.249658339,1,0,0,1.7106,Andesite_rect,1,1.711,1,12,0,12,0,1,,,,,,,,,,,,
65e78c194623f14aa083ecaa,SCR,2024-06-10_15h07.50.817,LearnStrategy,2023.2.3,MacIntel,58.47953216,1,1,14,-0.38121148,0.246277228,1,0,0,1.4993,Basalt_16,2,16,5,2,1.499,2,16,0.212188992,-0.23857761,1,0,0,10.5781,Diorite_rect,3,10.578,0,13,0,13,0,1,,,,,,,,,,,,
65e78c194623f14aa083ecaa,SCR,2024-06-10_15h07.50.817,LearnStrategy,2023.2.3,MacIntel,58.47953216,1,1,15,0.059916314,-0.0651356,1,0,0,1.1135,Obsidian_10,5,10,3,5,1.113,5,10,-0.322412788,-0.392205607,1,0,0,2.144,Obsidian_rect,5,2.144,1,14,0,14,0,1,,,,,,,,,,,,
65e78c194623f14aa083ecaa,SCR,2024-06-10_15h07.50.817,LearnStrategy,2023.2.3,MacIntel,58.47953216,1,1,16,0.581805556,0.291850366,1,0,0,1.8143,Diorite_16,3,16,5,8,1.814,3,16,0.079780138,-0.270540229,1,0,0,6.725,Diorite_rect,3,6.725,1,15,0,15,0,1,,,,,,,,,,,,
65e78c194623f14aa083ecaa,SCR,2024-06-10_15h07.50.817,LearnStrategy,2023.2.3,MacIntel,58.47953216,1,2,1,,,,,,,,5,02,,,,,,,,,,,,,5,3.646,1,,,,,,-0.401119113,-0.37945482,1,0,0,3.6457,Obsidian_rect,0,0,0,0,1
65e78c194623f14aa083ecaa,SCR,2024-06-10_15h07.50.817,LearnStrategy,2023.2.3,MacIntel,58.47953216,1,2,2,,,,,,,,6,07,,,,,,,,,,,,,4,9.6,0,,,,,,0.366717801,-0.23904914,1,0,0,9.5995,Gabbro_rect,1,0,1,0,1
65e78c194623f14aa083ecaa,SCR,2024-06-10_15h07.50.817,LearnStrategy,2023.2.3,MacIntel,58.47953216,1,2,3,,,,,,,,3,08,,,,,,,,,,,,,3,4.612,1,,,,,,0.150529921,-0.243380669,1,0,0,4.6117,Diorite_rect,2,0,2,0,1
65e78c194623f14aa083ecaa,SCR,2024-06-10_15h07.50.817,LearnStrategy,2023.2.3,MacIntel,58.47953216,1,2,4,,,,,,,,1,03,,,,,,,,,,,,,2,3.827,0,,,,,,-0.065186157,-0.249917535,1,0,0,3.8269,Basalt_rect,3,0,3,0,1
65e78c194623f14aa083ecaa,SCR,2024-06-10_15h07.50.817,LearnStrategy,2023.2.3,MacIntel,58.47953216,1,2,5,,,,,,,,8,16,,,,,,,,,,,,,8,2.447,1,,,,,,0.394431966,-0.403026666,1,0,0,2.4472,Pumice_rect,4,0,4,0,1
65e78c194623f14aa083ecaa,SCR,2024-06-10_15h07.50.817,LearnStrategy,2023.2.3,MacIntel,58.47953216,1,2,6,,,,,,,,7,13,,,,,,,,,,,,,7,2.33,1,,,,,,0.078157145,-0.38758667,1,0,0,2.3301,Peridotite_rect,5,0,5,0,1
65e78c194623f14aa083ecaa,SCR,2024-06-10_15h07.50.817,LearnStrategy,2023.2.3,MacIntel,58.47953216,1,2,7,,,,,,,,7,04,,,,,,,,,,,,,3,5.829,0,,,,,,0.112002631,-0.230386013,1,0,0,5.829,Diorite_rect,6,0,6,0,1
65e78c194623f14aa083ecaa,SCR,2024-06-10_15h07.50.817,LearnStrategy,2023.2.3,MacIntel,58.47953216,1,2,8,,,,,,,,3,15,,,,,,,,,,,,,1,2.162,0,,,,,,-0.341656765,-0.234328952,1,0,0,2.1619,Andesite_rect,7,0,7,0,1
65e78c194623f14aa083ecaa,SCR,2024-06-10_15h07.50.817,LearnStrategy,2023.2.3,MacIntel,58.47953216,1,2,9,,,,,,,,8,14,,,,,,,,,,,,,8,1.896,1,,,,,,0.32974684,-0.395724352,1,0,0,1.8955,Pumice_rect,8,0,8,0,1
65e78c194623f14aa083ecaa,SCR,2024-06-10_15h07.50.817,LearnStrategy,2023.2.3,MacIntel,58.47953216,1,2,10,,,,,,,,2,14,,,,,,,,,,,,,8,4.281,0,,,,,,0.329298435,-0.398120185,1,0,0,4.2812,Pumice_rect,9,0,9,0,1
65e78c194623f14aa083ecaa,SCR,2024-06-10_15h07.50.817,LearnStrategy,2023.2.3,MacIntel,58.47953216,1,2,11,,,,,,,,4,08,,,,,,,,,,,,,2,3.713,0,,,,,,-0.069882134,-0.259077555,1,0,0,3.7128,Basalt_rect,10,0,10,0,1
65e78c194623f14aa083ecaa,SCR,2024-06-10_15h07.50.817,LearnStrategy,2023.2.3,MacIntel,58.47953216,1,2,12,,,,,,,,5,08,,,,,,,,,,,,,5,3.414,1,,,,,,-0.34071089,-0.409058567,1,0,0,3.4143,Obsidian_rect,11,0,11,0,1
65e78c194623f14aa083ecaa,SCR,2024-06-10_15h07.50.817,LearnStrategy,2023.2.3,MacIntel,58.47953216,1,2,13,,,,,,,,4,14,,,,,,,,,,,,,6,23.33,0,,,,,,-0.223395182,-0.390411377,1,0,0,23.3299,Pegmatite_rect,12,0,12,0,1
65e78c194623f14aa083ecaa,SCR,2024-06-10_15h07.50.817,LearnStrategy,2023.2.3,MacIntel,58.47953216,1,2,14,,,,,,,,6,06,,,,,,,,,,,,,3,4.631,0,,,,,,0.124814317,-0.236439616,1,0,0,4.6313,Diorite_rect,13,0,13,0,1
65e78c194623f14aa083ecaa,SCR,2024-06-10_15h07.50.817,LearnStrategy,2023.2.3,MacIntel,58.47953216,1,2,15,,,,,,,,2,10,,,,,,,,,,,,,2,3.313,1,,,,,,-0.061148546,-0.262363959,1,0,0,3.3127,Basalt_rect,14,0,14,0,1
65e78c194623f14aa083ecaa,SCR,2024-06-10_15h07.50.817,LearnStrategy,2023.2.3,MacIntel,58.47953216,1,2,16,,,,,,,,1,04,,,,,,,,,,,,,4,22.896,0,,,,,,0.452544623,-0.25155938,1,0,0,22.8959,Gabbro_rect,15,0,15,0,1
65e78c194623f14aa083ecaa,SCR,2024-06-10_15h07.50.817,LearnStrategy,2023.2.3,MacIntel,58.47953216,2,1,1,0.258124864,0.406477661,1,0,0,1.9158,Pegmatite_13,6,13,6,6,1.916,6,13,0.187364977,-0.249160631,1,0,0,3.5616,Diorite_rect,3,3.562,0,0,0,0,0,1,,,,,,,,,,,,
65e78c194623f14aa083ecaa,SCR,2024-06-10_15h07.50.817,LearnStrategy,2023.2.3,MacIntel,58.47953216,2,1,2,0.583702121,0.07333391,1,0,0,1.7104,Pegmatite_16,6,16,4,8,1.71,6,16,0.167040134,-0.243901503,1,0,0,1.9152,Diorite_rect,3,1.915,0,1,0,1,0,1,,,,,,,,,,,,
65e78c194623f14aa083ecaa,SCR,2024-06-10_15h07.50.817,LearnStrategy,2023.2.3,MacIntel,58.47953216,2,1,3,-0.096074558,0.086501126,1,0,0,1.0619,Andesite_01,1,01,4,4,1.062,1,01,-0.358944295,-0.236268582,1,0,0,1.4617,Andesite_rect,1,1.462,1,2,0,2,0,1,,,,,,,,,,,,
65e78c194623f14aa083ecaa,SCR,2024-06-10_15h07.50.817,LearnStrategy,2023.2.3,MacIntel,58.47953216,2,1,4,0.072517632,0.427890778,1,0,0,2.1293,Diorite_13,3,13,6,5,2.129,3,13,0.099161716,-0.231692505,1,0,0,6.8803,Diorite_rect,3,6.88,1,3,0,3,0,1,,,,,,,,,,,,
65e78c194623f14aa083ecaa,SCR,2024-06-10_15h07.50.817,LearnStrategy,2023.2.3,MacIntel,58.47953216,2,1,5,-0.407151354,0.225559828,1,0,0,1.6325,Basalt_16,2,16,5,2,1.632,2,16,-0.164194539,-0.231371528,1,0,0,1.2806,Basalt_rect,2,1.281,1,4,0,4,0,1,,,,,,,,,,,,
65e78c194623f14aa083ecaa,SCR,2024-06-10_15h07.50.817,LearnStrategy,2023.2.3,MacIntel,58.47953216,2,1,6,-0.355076396,-0.090345662,1,0,0,1.362,Peridotite_05,7,05,3,2,1.362,7,05,0.060091281,-0.403767632,1,0,0,3.9988,Peridotite_rect,7,3.999,1,5,0,5,0,1,,,,,,,,,,,,
65e78c194623f14aa083ecaa,SCR,2024-06-10_15h07.50.817,LearnStrategy,2023.2.3,MacIntel,58.47953216,2,1,7,-0.538481479,0.244737905,1,0,0,1.434,Pegmatite_11,6,11,5,1,1.434,6,11,0.192816637,-0.261829563,1,0,0,7.4599,Diorite_rect,3,7.46,0,6,0,6,0,1,,,,,,,,,,,,
65e78c194623f14aa083ecaa,SCR,2024-06-10_15h07.50.817,LearnStrategy,2023.2.3,MacIntel,58.47953216,2,1,8,0.583706462,-0.117267388,1,0,0,1.1986,Gabbro_01,4,01,3,8,1.199,4,01,-0.331793382,-0.262108086,1,0,0,7.0803,Andesite_rect,1,7.08,0,7,0,7,0,1,,,,,,,,,,,,
65e78c194623f14aa083ecaa,SCR,2024-06-10_15h07.50.817,LearnStrategy,2023.2.3,MacIntel,58.47953216,2,1,9,0.051372138,-0.408160265,1,0,0,1.4473,Gabbro_03,4,03,1,5,1.447,4,03,-0.33905348,-0.25520067,1,0,0,1.9156,Andesite_rect,1,1.916,0,8,0,8,0,1,,,,,,,,,,,,
65e78c194623f14aa083ecaa,SCR,2024-06-10_15h07.50.817,LearnStrategy,2023.2.3,MacIntel,58.47953216,2,1,10,-0.201762017,-0.097070719,1,0,0,1.2986,Andesite_16,1,16,3,3,1.299,1,16,0.421354574,-0.23914232,1,0,0,1.1772,Gabbro_rect,4,1.177,0,9,0,9,0,1,,,,,,,,,,,,
65e78c194623f14aa083ecaa,SCR,2024-06-10_15h07.50.817,LearnStrategy,2023.2.3,MacIntel,58.47953216,2,1,11,-0.227731323,-0.123953111,1,0,0,2.4311,Andesite_16,1,16,3,3,2.431,2,11,-0.089485609,-0.233261108,1,0,0,3.7107,Basalt_rect,2,3.711,0,10,0,10,0,1,,,,,,,,,,,,
65e78c194623f14aa083ecaa,SCR,2024-06-10_15h07.50.817,LearnStrategy,2023.2.3,MacIntel,58.47953216,2,1,12,0.524064263,0.227222256,1,0,0,1.6488,Diorite_16,3,16,5,8,1.649,3,16,0.397155084,-0.238252563,1,0,0,3.2439,Gabbro_rect,4,3.244,0,11,0,11,0,1,,,,,,,,,,,,
65e78c194623f14aa083ecaa,SCR,2024-06-10_15h07.50.817,LearnStrategy,2023.2.3,MacIntel,58.47953216,2,1,13,-0.079982232,0.428165165,1,0,0,1.4807,Pumice_03,8,03,6,4,1.481,8,03,0.309814385,-0.385246175,1,0,0,1.3149,Pumice_rect,8,1.315,1,12,0,12,0,1,,,,,,,,,,,,
65e78c194623f14aa083ecaa,SCR,2024-06-10_15h07.50.817,LearnStrategy,2023.2.3,MacIntel,58.47953216,2,1,14,0.044326172,0.253432939,1,0,0,1.1813,Andesite_02,1,02,5,5,1.181,1,02,0.137863702,-0.39426039,1,0,0,9.1769,Peridotite_rect,7,9.177,0,13,0,13,0,1,,,,,,,,,,,,
65e78c194623f14aa083ecaa,SCR,2024-06-10_15h07.50.817,LearnStrategy,2023.2.3,MacIntel,58.47953216,2,1,15,0.424275309,0.399638909,1,0,0,1.6823,Gabbro_05,4,05,6,7,1.682,4,05,0.354786919,-0.234117974,1,0,0,2.8773,Gabbro_rect,4,2.877,1,14,0,14,0,1,,,,,,,,,,,,
65e78c194623f14aa083ecaa,SCR,2024-06-10_15h07.50.817,LearnStrategy,2023.2.3,MacIntel,58.47953216,2,1,16,-0.408680454,-0.127294108,1,0,0,1.2477,Peridotite_05,7,05,3,2,1.248,7,05,0.055026449,-0.409128554,1,0,0,3.6285,Peridotite_rect,7,3.628,1,15,0,15,0,1,,,,,,,,,,,,
65e78c194623f14aa083ecaa,SCR,2024-06-10_15h07.50.817,LearnStrategy,2023.2.3,MacIntel,58.47953216,2,2,1,,,,,,,,8,15,,,,,,,,,,,,,8,3.429,1,,,,,,0.440807563,-0.400775079,1,0,0,3.4293,Pumice_rect,0,0,0,0,1
65e78c194623f14aa083ecaa,SCR,2024-06-10_15h07.50.817,LearnStrategy,2023.2.3,MacIntel,58.47953216,2,2,2,,,,,,,,2,01,,,,,,,,,,,,,2,2.228,1,,,,,,-0.089544746,-0.263450385,1,0,0,2.2283,Basalt_rect,1,0,1,0,1
65e78c194623f14aa083ecaa,SCR,2024-06-10_15h07.50.817,LearnStrategy,2023.2.3,MacIntel,58.47953216,2,2,3,,,,,,,,8,09,,,,,,,,,,,,,8,2.079,1,,,,,,0.358034668,-0.402785373,1,0,0,2.0795,Pumice_rect,2,0,2,0,1
65e78c194623f14aa083ecaa,SCR,2024-06-10_15h07.50.817,LearnStrategy,2023.2.3,MacIntel,58.47953216,2,2,4,,,,,,,,3,09,,,,,,,,,,,,,3,6.919,1,,,,,,0.146564535,-0.256884969,1,0,0,6.9188,Diorite_rect,3,0,3,0,1
65e78c194623f14aa083ecaa,SCR,2024-06-10_15h07.50.817,LearnStrategy,2023.2.3,MacIntel,58.47953216,2,2,5,,,,,,,,1,14,,,,,,,,,,,,,1,5.897,1,,,,,,-0.345053202,-0.262178819,1,0,0,5.8968,Andesite_rect,4,0,4,0,1
65e78c194623f14aa083ecaa,SCR,2024-06-10_15h07.50.817,LearnStrategy,2023.2.3,MacIntel,58.47953216,2,2,6,,,,,,,,4,10,,,,,,,,,,,,,2,4.745,0,,,,,,-0.170579359,-0.269229736,1,0,0,4.7451,Basalt_rect,5,0,5,0,1
65e78c194623f14aa083ecaa,SCR,2024-06-10_15h07.50.817,LearnStrategy,2023.2.3,MacIntel,58.47953216,2,2,7,,,,,,,,3,14,,,,,,,,,,,,,4,9.649,0,,,,,,0.319515042,-0.249601712,1,0,0,9.6488,Gabbro_rect,6,0,6,0,1
65e78c194623f14aa083ecaa,SCR,2024-06-10_15h07.50.817,LearnStrategy,2023.2.3,MacIntel,58.47953216,2,2,8,,,,,,,,5,12,,,,,,,,,,,,,5,1.696,1,,,,,,-0.35824802,-0.421245456,1,0,0,1.6958,Obsidian_rect,7,0,7,0,1
65e78c194623f14aa083ecaa,SCR,2024-06-10_15h07.50.817,LearnStrategy,2023.2.3,MacIntel,58.47953216,2,2,9,,,,,,,,4,09,,,,,,,,,,,,,2,2.882,0,,,,,,-0.155048218,-0.253138563,1,0,0,2.8818,Basalt_rect,8,0,8,0,1
65e78c194623f14aa083ecaa,SCR,2024-06-10_15h07.50.817,LearnStrategy,2023.2.3,MacIntel,58.47953216,2,2,10,,,,,,,,5,11,,,,,,,,,,,,,5,1.279,1,,,,,,-0.36167216,-0.389277005,1,0,0,1.2785,Obsidian_rect,9,0,9,0,1
65e78c194623f14aa083ecaa,SCR,2024-06-10_15h07.50.817,LearnStrategy,2023.2.3,MacIntel,58.47953216,2,2,11,,,,,,,,1,06,,,,,,,,,,,,,1,11.464,1,,,,,,-0.394438477,-0.257144775,1,0,0,11.4639,Andesite_rect,10,0,10,0,1
65e78c194623f14aa083ecaa,SCR,2024-06-10_15h07.50.817,LearnStrategy,2023.2.3,MacIntel,58.47953216,2,2,12,,,,,,,,6,08,,,,,,,,,,,,,3,2.762,0,,,,,,0.082587687,-0.262376709,1,0,0,2.7625,Diorite_rect,11,0,11,0,1
65e78c194623f14aa083ecaa,SCR,2024-06-10_15h07.50.817,LearnStrategy,2023.2.3,MacIntel,58.47953216,2,2,13,,,,,,,,6,12,,,,,,,,,,,,,4,3.629,0,,,,,,0.3351081,-0.246729736,1,0,0,3.6287,Gabbro_rect,12,0,12,0,1
65e78c194623f14aa083ecaa,SCR,2024-06-10_15h07.50.817,LearnStrategy,2023.2.3,MacIntel,58.47953216,2,2,14,,,,,,,,7,14,,,,,,,,,,,,,6,2.31,0,,,,,,-0.084420709,-0.411958754,1,0,0,2.3103,Pegmatite_rect,13,0,13,0,1
65e78c194623f14aa083ecaa,SCR,2024-06-10_15h07.50.817,LearnStrategy,2023.2.3,MacIntel,58.47953216,2,2,15,,,,,,,,7,16,,,,,,,,,,,,,7,2.614,1,,,,,,0.061345215,-0.398319567,1,0,0,2.6138,Peridotite_rect,14,0,14,0,1
65e78c194623f14aa083ecaa,SCR,2024-06-10_15h07.50.817,LearnStrategy,2023.2.3,MacIntel,58.47953216,2,2,16,,,,,,,,2,05,,,,,,,,,,,,,2,2.579,1,,,,,,-0.066510078,-0.264147475,1,0,0,2.5789,Basalt_rect,15,0,15,0,1
65e78c194623f14aa083ecaa,SCR,2024-06-10_15h07.50.817,LearnStrategy,2023.2.3,MacIntel,58.47953216,3,1,1,0.224709608,0.22709198,1,0,0,2.4682,Pegmatite_03,6,03,5,6,2.468,6,03,0.136611803,-0.237719184,1,0,0,5.6103,Diorite_rect,3,5.61,0,0,0,0,0,1,,,,,,,,,,,,
65e78c194623f14aa083ecaa,SCR,2024-06-10_15h07.50.817,LearnStrategy,2023.2.3,MacIntel,58.47953216,3,1,2,-0.254608731,0.110752089,1,0,0,1.6336,Peridotite_10,7,10,4,3,1.634,7,10,0.146568332,-0.409244385,1,0,0,4.3122,Peridotite_rect,7,4.312,1,1,0,1,0,1,,,,,,,,,,,,
65e78c194623f14aa083ecaa,SCR,2024-06-10_15h07.50.817,LearnStrategy,2023.2.3,MacIntel,58.47953216,3,1,3,-0.275007731,-0.426457384,1,0,0,1.7819,Gabbro_15,4,15,1,3,1.782,4,15,-0.33477105,-0.25593065,1,0,0,2.6457,Andesite_rect,1,2.646,0,2,0,2,0,1,,,,,,,,,,,,
65e78c194623f14aa083ecaa,SCR,2024-06-10_15h07.50.817,LearnStrategy,2023.2.3,MacIntel,58.47953216,3,1,4,-0.064066298,-0.11012085,1,0,0,1.0824,Diorite_07,3,07,3,4,1.082,3,07,0.168266466,-0.2431073,1,0,0,1.1445,Diorite_rect,3,1.144,1,3,0,3,0,1,,,,,,,,,,,,
65e78c194623f14aa083ecaa,SCR,2024-06-10_15h07.50.817,LearnStrategy,2023.2.3,MacIntel,58.47953216,3,1,5,-0.545725742,0.261044278,1,0,0,1.4509,Pegmatite_11,6,11,5,1,1.451,6,11,-0.227427504,-0.419342719,1,0,0,4.9422,Pegmatite_rect,6,4.942,1,4,0,4,0,1,,,,,,,,,,,,
65e78c194623f14aa083ecaa,SCR,2024-06-10_15h07.50.817,LearnStrategy,2023.2.3,MacIntel,58.47953216,3,1,6,-0.250153843,-0.10886773,1,0,0,1.0162,Andesite_16,1,16,3,3,1.016,1,16,-0.411419474,-0.230037977,1,0,0,2.0296,Andesite_rect,1,2.03,1,5,0,5,0,1,,,,,,,,,,,,
65e78c194623f14aa083ecaa,SCR,2024-06-10_15h07.50.817,LearnStrategy,2023.2.3,MacIntel,58.47953216,3,1,7,-0.042780151,0.234432153,1,0,0,1.2811,Peridotite_06,7,06,5,4,1.281,7,06,0.160969916,-0.393917304,1,0,0,1.7794,Peridotite_rect,7,1.779,1,6,0,6,0,1,,,,,,,,,,,,
65e78c194623f14aa083ecaa,SCR,2024-06-10_15h07.50.817,LearnStrategy,2023.2.3,MacIntel,58.47953216,3,1,8,-0.206901109,0.235642192,1,0,0,1.4154,Gabbro_16,4,16,5,3,1.415,4,16,-0.126289062,-0.258513387,1,0,0,2.2455,Basalt_rect,2,2.245,0,7,0,7,0,1,,,,,,,,,,,,
65e78c194623f14aa083ecaa,SCR,2024-06-10_15h07.50.817,LearnStrategy,2023.2.3,MacIntel,58.47953216,3,1,9,-0.367194994,0.213470188,1,0,0,1.7108,Basalt_16,2,16,5,2,1.711,2,16,-0.173495416,-0.24622796,1,0,0,1.2611,Basalt_rect,2,1.261,1,8,0,8,0,1,,,,,,,,,,,,
65e78c194623f14aa083ecaa,SCR,2024-06-10_15h07.50.817,LearnStrategy,2023.2.3,MacIntel,58.47953216,3,1,10,0.56477322,-0.240269097,1,0,0,1.849,Andesite_09,1,09,2,8,1.849,1,09,-0.321795519,-0.256594984,1,0,0,5.5955,Andesite_rect,1,5.596,1,9,0,9,0,1,,,,,,,,,,,,
65e78c194623f14aa083ecaa,SCR,2024-06-10_15h07.50.817,LearnStrategy,2023.2.3,MacIntel,58.47953216,3,1,11,-0.222990112,0.377648519,1,0,0,2.0324,Basalt_11,2,11,6,3,2.032,2,11,-0.054735718,-0.252702298,1,0,0,3.6586,Basalt_rect,2,3.659,1,10,0,10,0,1,,,,,,,,,,,,
65e78c194623f14aa083ecaa,SCR,2024-06-10_15h07.50.817,LearnStrategy,2023.2.3,MacIntel,58.47953216,3,1,12,0.519013265,-0.10902025,1,0,0,1.7967,Gabbro_01,4,01,3,8,1.797,4,01,0.385428738,-0.228710598,1,0,0,4.5813,Gabbro_rect,4,4.581,1,11,0,11,0,1,,,,,,,,,,,,
65e78c194623f14aa083ecaa,SCR,2024-06-10_15h07.50.817,LearnStrategy,2023.2.3,MacIntel,58.47953216,3,1,13,0.247246433,0.386057468,1,0,0,1.617,Pegmatite_13,6,13,6,6,1.617,6,13,0.121316054,-0.242847087,1,0,0,2.6279,Diorite_rect,3,2.628,0,12,0,12,0,1,,,,,,,,,,,,
65e78c194623f14aa083ecaa,SCR,2024-06-10_15h07.50.817,LearnStrategy,2023.2.3,MacIntel,58.47953216,3,1,14,0.514842801,0.101513875,1,0,0,1.3329,Pegmatite_16,6,16,4,8,1.333,6,16,-0.076664497,-0.410516357,1,0,0,2.3779,Pegmatite_rect,6,2.378,1,13,0,13,0,1,,,,,,,,,,,,
65e78c194623f14aa083ecaa,SCR,2024-06-10_15h07.50.817,LearnStrategy,2023.2.3,MacIntel,58.47953216,3,1,15,-0.226692573,0.279609443,1,0,0,1.1988,Gabbro_16,4,16,5,3,1.199,4,16,0.338988037,-0.251871406,1,0,0,8.0641,Gabbro_rect,4,8.064,1,14,0,14,0,1,,,,,,,,,,,,
65e78c194623f14aa083ecaa,SCR,2024-06-10_15h07.50.817,LearnStrategy,2023.2.3,MacIntel,58.47953216,3,1,16,0.066352946,0.370979106,1,0,0,1.4967,Diorite_13,3,13,6,5,1.497,3,13,0.170846897,-0.231886461,1,0,0,4.8467,Diorite_rect,3,4.847,1,15,0,15,0,1,,,,,,,,,,,,
65e78c194623f14aa083ecaa,SCR,2024-06-10_15h07.50.817,LearnStrategy,2023.2.3,MacIntel,58.47953216,3,2,1,,,,,,,,1,11,,,,,,,,,,,,,6,19.278,0,,,,,,-0.128195597,-0.395679321,1,0,0,19.2777,Pegmatite_rect,0,0,0,0,1
65e78c194623f14aa083ecaa,SCR,2024-06-10_15h07.50.817,LearnStrategy,2023.2.3,MacIntel,58.47953216,3,2,2,,,,,,,,4,12,,,,,,,,,,,,,4,5.63,1,,,,,,0.444473606,-0.237766791,1,0,0,5.6303,Gabbro_rect,1,0,1,0,1
65e78c194623f14aa083ecaa,SCR,2024-06-10_15h07.50.817,LearnStrategy,2023.2.3,MacIntel,58.47953216,3,2,3,,,,,,,,6,10,,,,,,,,,,,,,7,3.91,0,,,,,,0.196551107,-0.381314629,1,0,0,3.9098,Peridotite_rect,2,0,2,0,1
65e78c194623f14aa083ecaa,SCR,2024-06-10_15h07.50.817,LearnStrategy,2023.2.3,MacIntel,58.47953216,3,2,4,,,,,,,,2,08,,,,,,,,,,,,,2,3.946,1,,,,,,-0.073913303,-0.256587185,1,0,0,3.9461,Basalt_rect,3,0,3,0,1
65e78c194623f14aa083ecaa,SCR,2024-06-10_15h07.50.817,LearnStrategy,2023.2.3,MacIntel,58.47953216,3,2,5,,,,,,,,1,10,,,,,,,,,,,,,1,2.897,1,,,,,,-0.38639523,-0.257291802,1,0,0,2.8971,Andesite_rect,4,0,4,0,1
65e78c194623f14aa083ecaa,SCR,2024-06-10_15h07.50.817,LearnStrategy,2023.2.3,MacIntel,58.47953216,3,2,6,,,,,,,,4,11,,,,,,,,,,,,,2,3.914,0,,,,,,-0.19922153,-0.250603434,1,0,0,3.9136,Basalt_rect,5,0,5,0,1
65e78c194623f14aa083ecaa,SCR,2024-06-10_15h07.50.817,LearnStrategy,2023.2.3,MacIntel,58.47953216,3,2,7,,,,,,,,7,15,,,,,,,,,,,,,7,1.514,1,,,,,,0.078665636,-0.416245592,1,0,0,1.5145,Peridotite_rect,6,0,6,0,1
65e78c194623f14aa083ecaa,SCR,2024-06-10_15h07.50.817,LearnStrategy,2023.2.3,MacIntel,58.47953216,3,2,8,,,,,,,,8,08,,,,,,,,,,,,,8,2.647,1,,,,,,0.324161309,-0.416594577,1,0,0,2.6474,Pumice_rect,7,0,7,0,1
65e78c194623f14aa083ecaa,SCR,2024-06-10_15h07.50.817,LearnStrategy,2023.2.3,MacIntel,58.47953216,3,2,9,,,,,,,,5,16,,,,,,,,,,,,,5,1.464,1,,,,,,-0.46163303,-0.413043009,1,0,0,1.4643,Obsidian_rect,8,0,8,0,1
65e78c194623f14aa083ecaa,SCR,2024-06-10_15h07.50.817,LearnStrategy,2023.2.3,MacIntel,58.47953216,3,2,10,,,,,,,,3,11,,,,,,,,,,,,,3,36.963,1,,,,,,0.107912191,-0.257232123,1,0,0,36.9631,Diorite_rect,9,0,9,0,1
65e78c194623f14aa083ecaa,SCR,2024-06-10_15h07.50.817,LearnStrategy,2023.2.3,MacIntel,58.47953216,3,2,11,,,,,,,,2,04,,,,,,,,,,,,,2,2.347,1,,,,,,-0.125605876,-0.256062893,1,0,0,2.3471,Basalt_rect,10,0,10,0,1
65e78c194623f14aa083ecaa,SCR,2024-06-10_15h07.50.817,LearnStrategy,2023.2.3,MacIntel,58.47953216,3,2,12,,,,,,,,6,15,,,,,,,,,,,,,6,2.364,1,,,,,,-0.065586277,-0.401826647,1,0,0,2.3637,Pegmatite_rect,11,0,11,0,1
65e78c194623f14aa083ecaa,SCR,2024-06-10_15h07.50.817,LearnStrategy,2023.2.3,MacIntel,58.47953216,3,2,13,,,,,,,,8,04,,,,,,,,,,,,,8,1.847,1,,,,,,0.405837674,-0.390177816,1,0,0,1.8469,Pumice_rect,12,0,12,0,1
65e78c194623f14aa083ecaa,SCR,2024-06-10_15h07.50.817,LearnStrategy,2023.2.3,MacIntel,58.47953216,3,2,14,,,,,,,,7,08,,,,,,,,,,,,,7,1.595,1,,,,,,0.214645521,-0.400489434,1,0,0,1.5946,Peridotite_rect,13,0,13,0,1
65e78c194623f14aa083ecaa,SCR,2024-06-10_15h07.50.817,LearnStrategy,2023.2.3,MacIntel,58.47953216,3,2,15,,,,,,,,3,06,,,,,,,,,,,,,3,5.777,1,,,,,,0.164179755,-0.241212294,1,0,0,5.7772,Diorite_rect,14,0,14,0,1
65e78c194623f14aa083ecaa,SCR,2024-06-10_15h07.50.817,LearnStrategy,2023.2.3,MacIntel,58.47953216,3,2,16,,,,,,,,5,06,,,,,,,,,,,,,5,1.822,1,,,,,,-0.422905375,-0.420066461,1,0,0,1.8224,Obsidian_rect,15,0,15,0,1
65e78c194623f14aa083ecaa,SCR,2024-06-10_15h07.50.817,LearnStrategy,2023.2.3,MacIntel,58.47953216,4,1,1,-0.097902561,0.209427626,1,0,0,1.8662,Peridotite_06,7,06,5,4,1.866,7,06,0.126662598,-0.407201335,1,0,0,1.7774,Peridotite_rect,7,1.777,1,0,0,0,0,1,,,,,,,,,,,,
65e78c194623f14aa083ecaa,SCR,2024-06-10_15h07.50.817,LearnStrategy,2023.2.3,MacIntel,58.47953216,4,1,2,-0.383885159,-0.063703512,1,0,0,1.267,Peridotite_05,7,05,3,2,1.267,7,05,0.071258477,-0.394424506,1,0,0,2.2638,Peridotite_rect,7,2.264,1,1,0,1,0,1,,,,,,,,,,,,
65e78c194623f14aa083ecaa,SCR,2024-06-10_15h07.50.817,LearnStrategy,2023.2.3,MacIntel,58.47953216,4,1,3,0.213699002,-0.115321587,1,0,0,1.1152,Pegmatite_09,6,09,3,6,1.115,6,09,-0.139846598,-0.402498169,1,0,0,2.5957,Pegmatite_rect,6,2.596,1,2,0,2,0,1,,,,,,,,,,,,
65e78c194623f14aa083ecaa,SCR,2024-06-10_15h07.50.817,LearnStrategy,2023.2.3,MacIntel,58.47953216,4,1,4,-0.209236111,-0.429214003,1,0,0,1.3826,Gabbro_15,4,15,1,3,1.383,4,15,0.376745605,-0.253447266,1,0,0,2.5942,Gabbro_rect,4,2.594,1,3,0,3,0,1,,,,,,,,,,,,
65e78c194623f14aa083ecaa,SCR,2024-06-10_15h07.50.817,LearnStrategy,2023.2.3,MacIntel,58.47953216,4,1,5,-0.077830404,-0.077597656,1,0,0,0.997,Diorite_07,3,07,3,4,0.997,3,07,0.10574056,-0.241959635,1,0,0,1.9595,Diorite_rect,3,1.959,1,4,0,4,0,1,,,,,,,,,,,,
65e78c194623f14aa083ecaa,SCR,2024-06-10_15h07.50.817,LearnStrategy,2023.2.3,MacIntel,58.47953216,4,1,6,0.385013428,-0.27973036,1,0,0,1.3638,Pumice_02,8,02,2,7,1.364,8,02,0.382801921,-0.413833076,1,0,0,1.2954,Pumice_rect,8,1.295,1,5,0,5,0,1,,,,,,,,,,,,
65e78c194623f14aa083ecaa,SCR,2024-06-10_15h07.50.817,LearnStrategy,2023.2.3,MacIntel,58.47953216,4,1,7,0.521324327,0.362239024,1,0,0,1.4813,Andesite_07,1,07,6,8,1.481,1,07,-0.150473429,-0.403168538,1,0,0,4.6839,Pegmatite_rect,6,4.684,0,6,0,6,0,1,,,,,,,,,,,,
65e78c194623f14aa083ecaa,SCR,2024-06-10_15h07.50.817,LearnStrategy,2023.2.3,MacIntel,58.47953216,4,1,8,-0.269221327,-0.409044596,1,0,0,1.2254,Gabbro_15,4,15,1,3,1.225,4,15,0.365963813,-0.25539544,1,0,0,5.6842,Gabbro_rect,4,5.684,1,7,0,7,0,1,,,,,,,,,,,,
65e78c194623f14aa083ecaa,SCR,2024-06-10_15h07.50.817,LearnStrategy,2023.2.3,MacIntel,58.47953216,4,1,9,0.217549778,0.234800398,1,0,0,1.8994,Pegmatite_03,6,03,5,6,1.899,6,03,-0.106864217,-0.390297716,1,0,0,1.6606,Pegmatite_rect,6,1.661,1,8,0,8,0,1,,,,,,,,,,,,
65e78c194623f14aa083ecaa,SCR,2024-06-10_15h07.50.817,LearnStrategy,2023.2.3,MacIntel,58.47953216,4,1,10,0.369892985,0.385913713,1,0,0,1.4147,Gabbro_05,4,05,6,7,1.415,4,05,0.42803087,-0.232662557,1,0,0,3.964,Gabbro_rect,4,3.964,1,9,0,9,0,1,,,,,,,,,,,,
65e78c194623f14aa083ecaa,SCR,2024-06-10_15h07.50.817,LearnStrategy,2023.2.3,MacIntel,58.47953216,4,1,11,0.033984578,-0.251982218,1,0,0,1.1995,Diorite_02,3,02,2,5,1.199,3,02,0.17058492,-0.229572415,1,0,0,12.757,Diorite_rect,3,12.757,1,10,0,10,0,1,,,,,,,,,,,,
65e78c194623f14aa083ecaa,SCR,2024-06-10_15h07.50.817,LearnStrategy,2023.2.3,MacIntel,58.47953216,4,1,12,-0.214944797,-0.223594089,1,0,0,1.1915,Obsidian_04,5,04,2,3,1.192,5,04,-0.396017015,-0.39174079,1,0,0,1.1939,Obsidian_rect,5,1.194,1,11,0,11,0,1,,,,,,,,,,,,
65e78c194623f14aa083ecaa,SCR,2024-06-10_15h07.50.817,LearnStrategy,2023.2.3,MacIntel,58.47953216,4,1,13,-0.366520318,0.089884406,1,0,0,1.0641,Pegmatite_05,6,05,4,2,1.064,6,05,-0.181307576,-0.400508491,1,0,0,1.7616,Pegmatite_rect,6,1.762,1,12,0,12,0,1,,,,,,,,,,,,
65e78c194623f14aa083ecaa,SCR,2024-06-10_15h07.50.817,LearnStrategy,2023.2.3,MacIntel,58.47953216,4,1,14,0.251117554,0.207379252,1,0,0,1.8275,Pegmatite_03,6,03,5,6,1.827,6,03,-0.195712823,-0.411608276,1,0,0,0.9773,Pegmatite_rect,6,0.977,1,13,0,13,0,1,,,,,,,,,,,,
65e78c194623f14aa083ecaa,SCR,2024-06-10_15h07.50.817,LearnStrategy,2023.2.3,MacIntel,58.47953216,4,1,15,0.5211537,-0.410920003,1,0,0,1.5978,Basalt_06,2,06,1,8,1.598,2,06,-0.065643378,-0.242219713,1,0,0,1.2272,Basalt_rect,2,1.227,1,14,0,14,0,1,,,,,,,,,,,,
65e78c194623f14aa083ecaa,SCR,2024-06-10_15h07.50.817,LearnStrategy,2023.2.3,MacIntel,58.47953216,4,1,16,0.053633491,-0.434915704,1,0,0,1.5628,Gabbro_03,4,03,1,5,1.563,4,03,0.372278781,-0.250955946,1,0,0,4.7661,Gabbro_rect,4,4.766,1,15,0,15,0,1,,,,,,,,,,,,
65e78c194623f14aa083ecaa,SCR,2024-06-10_15h07.50.817,LearnStrategy,2023.2.3,MacIntel,58.47953216,4,2,1,,,,,,,,1,14,,,,,,,,,,,,,6,4.881,0,,,,,,-0.151472304,-0.407364977,1,0,0,4.8806,Pegmatite_rect,0,0,0,0,1
65e78c194623f14aa083ecaa,SCR,2024-06-10_15h07.50.817,LearnStrategy,2023.2.3,MacIntel,58.47953216,4,2,2,,,,,,,,4,10,,,,,,,,,,,,,2,5.413,0,,,,,,-0.136055366,-0.241633233,1,0,0,5.413,Basalt_rect,1,0,1,0,1
65e78c194623f14aa083ecaa,SCR,2024-06-10_15h07.50.817,LearnStrategy,2023.2.3,MacIntel,58.47953216,4,2,3,,,,,,,,4,09,,,,,,,,,,,,,2,6.079,0,,,,,,-0.137584839,-0.25903144,1,0,0,6.0793,Basalt_rect,2,0,2,0,1
65e78c194623f14aa083ecaa,SCR,2024-06-10_15h07.50.817,LearnStrategy,2023.2.3,MacIntel,58.47953216,4,2,4,,,,,,,,8,16,,,,,,,,,,,,,8,1.431,1,,,,,,0.426464572,-0.398224216,1,0,0,1.4309,Pumice_rect,3,0,3,0,1
65e78c194623f14aa083ecaa,SCR,2024-06-10_15h07.50.817,LearnStrategy,2023.2.3,MacIntel,58.47953216,4,2,5,,,,,,,,6,06,,,,,,,,,,,,,6,1.794,1,,,,,,-0.17884786,-0.394212714,1,0,0,1.794,Pegmatite_rect,4,0,4,0,1
65e78c194623f14aa083ecaa,SCR,2024-06-10_15h07.50.817,LearnStrategy,2023.2.3,MacIntel,58.47953216,4,2,6,,,,,,,,6,07,,,,,,,,,,,,,6,1.629,1,,,,,,-0.158254869,-0.392634074,1,0,0,1.6291,Pegmatite_rect,5,0,5,0,1
65e78c194623f14aa083ecaa,SCR,2024-06-10_15h07.50.817,LearnStrategy,2023.2.3,MacIntel,58.47953216,4,2,7,,,,,,,,1,03,,,,,,,,,,,,,1,5.796,1,,,,,,-0.35237932,-0.237178819,1,0,0,5.7959,Andesite_rect,6,0,6,0,1
65e78c194623f14aa083ecaa,SCR,2024-06-10_15h07.50.817,LearnStrategy,2023.2.3,MacIntel,58.47953216,4,2,8,,,,,,,,3,08,,,,,,,,,,,,,3,1.661,1,,,,,,0.107003852,-0.252505493,1,0,0,1.6606,Diorite_rect,7,0,7,0,1
65e78c194623f14aa083ecaa,SCR,2024-06-10_15h07.50.817,LearnStrategy,2023.2.3,MacIntel,58.47953216,4,2,9,,,,,,,,7,04,,,,,,,,,,,,,4,11.948,0,,,,,,0.326541341,-0.247399089,1,0,0,11.9477,Gabbro_rect,8,0,8,0,1
65e78c194623f14aa083ecaa,SCR,2024-06-10_15h07.50.817,LearnStrategy,2023.2.3,MacIntel,58.47953216,4,2,10,,,,,,,,7,14,,,,,,,,,,,,,7,3.281,1,,,,,,0.192134128,-0.397842543,1,0,0,3.2807,Peridotite_rect,9,0,9,0,1
65e78c194623f14aa083ecaa,SCR,2024-06-10_15h07.50.817,LearnStrategy,2023.2.3,MacIntel,58.47953216,4,2,11,,,,,,,,8,04,,,,,,,,,,,,,8,1.281,1,,,,,,0.302120158,-0.396240506,1,0,0,1.2814,Pumice_rect,10,0,10,0,1
65e78c194623f14aa083ecaa,SCR,2024-06-10_15h07.50.817,LearnStrategy,2023.2.3,MacIntel,58.47953216,4,2,12,,,,,,,,5,12,,,,,,,,,,,,,5,1.315,1,,,,,,-0.419040866,-0.417226223,1,0,0,1.3153,Obsidian_rect,11,0,11,0,1
65e78c194623f14aa083ecaa,SCR,2024-06-10_15h07.50.817,LearnStrategy,2023.2.3,MacIntel,58.47953216,4,2,13,,,,,,,,5,06,,,,,,,,,,,,,5,1.042,1,,,,,,-0.418088074,-0.406156548,1,0,0,1.0417,Obsidian_rect,12,0,12,0,1
65e78c194623f14aa083ecaa,SCR,2024-06-10_15h07.50.817,LearnStrategy,2023.2.3,MacIntel,58.47953216,4,2,14,,,,,,,,3,14,,,,,,,,,,,,,3,3.845,1,,,,,,0.133991699,-0.243426446,1,0,0,3.845,Diorite_rect,13,0,13,0,1
65e78c194623f14aa083ecaa,SCR,2024-06-10_15h07.50.817,LearnStrategy,2023.2.3,MacIntel,58.47953216,4,2,15,,,,,,,,2,08,,,,,,,,,,,,,2,1.483,1,,,,,,-0.069623617,-0.264614597,1,0,0,1.4832,Basalt_rect,14,0,14,0,1
65e78c194623f14aa083ecaa,SCR,2024-06-10_15h07.50.817,LearnStrategy,2023.2.3,MacIntel,58.47953216,4,2,16,,,,,,,,2,05,,,,,,,,,,,,,2,1.694,1,,,,,,-0.070435316,-0.265142619,1,0,0,1.6944,Basalt_rect,15,0,15,0,1
65e78c194623f14aa083ecaa,SCR,2024-06-10_15h07.50.817,LearnStrategy,2023.2.3,MacIntel,58.47953216,5,1,1,0.37624783,0.374827542,1,0,0,2.6497,Gabbro_05,4,05,6,7,2.65,4,05,0.392922228,-0.230779555,1,0,0,5.3802,Gabbro_rect,4,5.38,1,0,0,0,0,1,,,,,,,,,,,,
65e78c194623f14aa083ecaa,SCR,2024-06-10_15h07.50.817,LearnStrategy,2023.2.3,MacIntel,58.47953216,5,1,2,0.089847344,-0.458351169,1,0,0,1.2803,Gabbro_03,4,03,1,5,1.28,4,03,0.342354329,-0.237875163,1,0,0,3.799,Gabbro_rect,4,3.799,1,1,0,1,0,1,,,,,,,,,,,,
65e78c194623f14aa083ecaa,SCR,2024-06-10_15h07.50.817,LearnStrategy,2023.2.3,MacIntel,58.47953216,5,1,3,-0.421036919,-0.4120617,1,0,0,1.2303,Pumice_06,8,06,1,2,1.23,8,06,0.352524414,-0.381478814,1,0,0,1.0339,Pumice_rect,8,1.034,1,2,0,2,0,1,,,,,,,,,,,,
65e78c194623f14aa083ecaa,SCR,2024-06-10_15h07.50.817,LearnStrategy,2023.2.3,MacIntel,58.47953216,5,1,4,-0.096050754,-0.280199721,1,0,0,0.8661,Obsidian_07,5,07,2,4,0.866,5,07,-0.365106032,-0.38623013,1,0,0,1.0798,Obsidian_rect,5,1.08,1,3,0,3,0,1,,,,,,,,,,,,
65e78c194623f14aa083ecaa,SCR,2024-06-10_15h07.50.817,LearnStrategy,2023.2.3,MacIntel,58.47953216,5,1,5,0.046687419,0.240744069,1,0,0,1.3321,Andesite_02,1,02,5,5,1.332,1,02,-0.39262797,-0.266331041,1,0,0,4.8971,Andesite_rect,1,4.897,1,4,0,4,0,1,,,,,,,,,,,,
65e78c194623f14aa083ecaa,SCR,2024-06-10_15h07.50.817,LearnStrategy,2023.2.3,MacIntel,58.47953216,5,1,6,0.197647705,0.25274526,1,0,0,1.0653,Pegmatite_03,6,03,5,6,1.065,6,03,-0.148128933,-0.415181274,1,0,0,0.9966,Pegmatite_rect,6,0.997,1,5,0,5,0,1,,,,,,,,,,,,
65e78c194623f14aa083ecaa,SCR,2024-06-10_15h07.50.817,LearnStrategy,2023.2.3,MacIntel,58.47953216,5,1,7,0.561792942,-0.101063504,1,0,0,1.2674,Gabbro_01,4,01,3,8,1.267,4,01,0.408443468,-0.251900431,1,0,0,5.4085,Gabbro_rect,4,5.409,1,6,0,6,0,1,,,,,,,,,,,,
65e78c194623f14aa083ecaa,SCR,2024-06-10_15h07.50.817,LearnStrategy,2023.2.3,MacIntel,58.47953216,5,1,8,-0.597459378,-0.240200941,1,0,0,1.9637,Basalt_02,2,02,2,1,1.964,2,02,-0.132915107,-0.263512505,1,0,0,1.3299,Basalt_rect,2,1.33,1,7,0,7,0,1,,,,,,,,,,,,
65e78c194623f14aa083ecaa,SCR,2024-06-10_15h07.50.817,LearnStrategy,2023.2.3,MacIntel,58.47953216,5,1,9,0.540179443,-0.111630385,1,0,0,2.0997,Gabbro_01,4,01,3,8,2.1,4,01,0.414317898,-0.240780029,1,0,0,2.5647,Gabbro_rect,4,2.565,1,8,0,8,0,1,,,,,,,,,,,,
65e78c194623f14aa083ecaa,SCR,2024-06-10_15h07.50.817,LearnStrategy,2023.2.3,MacIntel,58.47953216,5,1,10,-0.376256748,-0.092890557,1,0,0,1.1304,Peridotite_05,7,05,3,2,1.13,7,05,0.162547607,-0.393989665,1,0,0,3.946,Peridotite_rect,7,3.946,1,9,0,9,0,1,,,,,,,,,,,,
65e78c194623f14aa083ecaa,SCR,2024-06-10_15h07.50.817,LearnStrategy,2023.2.3,MacIntel,58.47953216,5,1,11,-0.198354899,-0.420189412,1,0,0,1.1982,Gabbro_15,4,15,1,3,1.198,4,15,0.312881266,-0.252957831,1,0,0,5.3626,Gabbro_rect,4,5.363,1,10,0,10,0,1,,,,,,,,,,,,
65e78c194623f14aa083ecaa,SCR,2024-06-10_15h07.50.817,LearnStrategy,2023.2.3,MacIntel,58.47953216,5,1,12,-0.546647288,0.245871243,1,0,0,1.5985,Pegmatite_11,6,11,5,1,1.598,6,11,-0.118219198,-0.394261949,1,0,0,1.045,Pegmatite_rect,6,1.045,1,11,0,11,0,1,,,,,,,,,,,,
65e78c194623f14aa083ecaa,SCR,2024-06-10_15h07.50.817,LearnStrategy,2023.2.3,MacIntel,58.47953216,5,1,13,-0.556817949,-0.428551161,1,0,0,1.447,Peridotite_12,7,12,1,1,1.447,7,12,-0.402440965,-0.233965725,1,0,0,3.6286,Andesite_rect,1,3.629,0,12,0,12,0,1,,,,,,,,,,,,
65e78c194623f14aa083ecaa,SCR,2024-06-10_15h07.50.817,LearnStrategy,2023.2.3,MacIntel,58.47953216,5,1,14,-0.214864977,-0.115242445,1,0,0,1.0474,Andesite_16,1,16,3,3,1.047,1,16,-0.405800273,-0.243617486,1,0,0,6.0623,Andesite_rect,1,6.062,1,13,0,13,0,1,,,,,,,,,,,,
65e78c194623f14aa083ecaa,SCR,2024-06-10_15h07.50.817,LearnStrategy,2023.2.3,MacIntel,58.47953216,5,1,15,0.109261136,-0.278505724,1,0,0,0.9301,Diorite_02,3,02,2,5,0.93,3,02,0.129412367,-0.244156019,1,0,0,3.5495,Diorite_rect,3,3.55,1,14,0,14,0,1,,,,,,,,,,,,
65e78c194623f14aa083ecaa,SCR,2024-06-10_15h07.50.817,LearnStrategy,2023.2.3,MacIntel,58.47953216,5,1,16,-0.405005493,0.058640917,1,0,0,1.2669,Pegmatite_05,6,05,4,2,1.267,6,05,-0.076598307,-0.391570367,1,0,0,0.9282,Pegmatite_rect,6,0.928,1,15,0,15,0,1,,,,,,,,,,,,
65e78c194623f14aa083ecaa,SCR,2024-06-10_15h07.50.817,LearnStrategy,2023.2.3,MacIntel,58.47953216,5,2,1,,,,,,,,6,15,,,,,,,,,,,,,6,2.311,1,,,,,,-0.08271342,-0.400966458,1,0,0,2.3107,Pegmatite_rect,0,0,0,0,1
65e78c194623f14aa083ecaa,SCR,2024-06-10_15h07.50.817,LearnStrategy,2023.2.3,MacIntel,58.47953216,5,2,2,,,,,,,,8,15,,,,,,,,,,,,,8,1.586,1,,,,,,0.340478516,-0.394066569,1,0,0,1.5864,Pumice_rect,1,0,1,0,1
65e78c194623f14aa083ecaa,SCR,2024-06-10_15h07.50.817,LearnStrategy,2023.2.3,MacIntel,58.47953216,5,2,3,,,,,,,,6,12,,,,,,,,,,,,,6,8.495,1,,,,,,-0.104403754,-0.411114638,1,0,0,8.4955,Pegmatite_rect,2,0,2,0,1
65e78c194623f14aa083ecaa,SCR,2024-06-10_15h07.50.817,LearnStrategy,2023.2.3,MacIntel,58.47953216,5,2,4,,,,,,,,7,15,,,,,,,,,,,,,7,1.347,1,,,,,,0.118952162,-0.384145237,1,0,0,1.3468,Peridotite_rect,3,0,3,0,1
65e78c194623f14aa083ecaa,SCR,2024-06-10_15h07.50.817,LearnStrategy,2023.2.3,MacIntel,58.47953216,5,2,5,,,,,,,,3,09,,,,,,,,,,,,,3,1.945,1,,,,,,0.152511529,-0.254342109,1,0,0,1.9453,Diorite_rect,4,0,4,0,1
65e78c194623f14aa083ecaa,SCR,2024-06-10_15h07.50.817,LearnStrategy,2023.2.3,MacIntel,58.47953216,5,2,6,,,,,,,,4,12,,,,,,,,,,,,,4,1.846,1,,,,,,0.332120361,-0.266283027,1,0,0,1.8462,Gabbro_rect,5,0,5,0,1
65e78c194623f14aa083ecaa,SCR,2024-06-10_15h07.50.817,LearnStrategy,2023.2.3,MacIntel,58.47953216,5,2,7,,,,,,,,8,08,,,,,,,,,,,,,8,2.41,1,,,,,,0.334669596,-0.401316121,1,0,0,2.4099,Pumice_rect,6,0,6,0,1
65e78c194623f14aa083ecaa,SCR,2024-06-10_15h07.50.817,LearnStrategy,2023.2.3,MacIntel,58.47953216,5,2,8,,,,,,,,5,16,,,,,,,,,,,,,5,1.313,1,,,,,,-0.360917697,-0.400023397,1,0,0,1.3132,Obsidian_rect,7,0,7,0,1
65e78c194623f14aa083ecaa,SCR,2024-06-10_15h07.50.817,LearnStrategy,2023.2.3,MacIntel,58.47953216,5,2,9,,,,,,,,2,14,,,,,,,,,,,,,4,5.761,0,,,,,,0.356840549,-0.251361694,1,0,0,5.7609,Gabbro_rect,8,0,8,0,1
65e78c194623f14aa083ecaa,SCR,2024-06-10_15h07.50.817,LearnStrategy,2023.2.3,MacIntel,58.47953216,5,2,10,,,,,,,,7,16,,,,,,,,,,,,,7,1.313,1,,,,,,0.157771878,-0.398908895,1,0,0,1.3125,Peridotite_rect,9,0,9,0,1
65e78c194623f14aa083ecaa,SCR,2024-06-10_15h07.50.817,LearnStrategy,2023.2.3,MacIntel,58.47953216,5,2,11,,,,,,,,5,11,,,,,,,,,,,,,5,1.231,1,,,,,,-0.327534485,-0.407049832,1,0,0,1.2313,Obsidian_rect,10,0,10,0,1
65e78c194623f14aa083ecaa,SCR,2024-06-10_15h07.50.817,LearnStrategy,2023.2.3,MacIntel,58.47953216,5,2,12,,,,,,,,2,01,,,,,,,,,,,,,2,2.503,1,,,,,,-0.1105405,-0.256546495,1,0,0,2.5029,Basalt_rect,11,0,11,0,1
65e78c194623f14aa083ecaa,SCR,2024-06-10_15h07.50.817,LearnStrategy,2023.2.3,MacIntel,58.47953216,5,2,13,,,,,,,,1,11,,,,,,,,,,,,,6,12.792,0,,,,,,-0.118131646,-0.390302667,1,0,0,12.7924,Pegmatite_rect,12,0,12,0,1
65e78c194623f14aa083ecaa,SCR,2024-06-10_15h07.50.817,LearnStrategy,2023.2.3,MacIntel,58.47953216,5,2,14,,,,,,,,3,15,,,,,,,,,,,,,4,6.58,0,,,,,,0.344140082,-0.257510512,1,0,0,6.5795,Gabbro_rect,13,0,13,0,1
65e78c194623f14aa083ecaa,SCR,2024-06-10_15h07.50.817,LearnStrategy,2023.2.3,MacIntel,58.47953216,5,2,15,,,,,,,,4,08,,,,,,,,,,,,,4,5.014,1,,,,,,0.441254205,-0.255989583,1,0,0,5.0135,Gabbro_rect,14,0,14,0,1
65e78c194623f14aa083ecaa,SCR,2024-06-10_15h07.50.817,LearnStrategy,2023.2.3,MacIntel,58.47953216,5,2,16,,,,,,,,1,04,,,,,,,,,,,,,1,19.039,1,,,,,,-0.473768141,-0.232157796,1,0,0,19.0387,Andesite_rect,15,0,15,0,1
65e78c194623f14aa083ecaa,SCR,2024-06-10_15h07.50.817,LearnStrategy,2023.2.3,MacIntel,58.47953216,6,1,1,-0.52021837,0.071557244,1,0,0,1.8972,Pumice_13,8,13,4,1,1.897,8,13,0.331571587,-0.39116055,1,0,0,1.3917,Pumice_rect,8,1.392,1,0,0,0,0,1,,,,,,,,,,,,
65e78c194623f14aa083ecaa,SCR,2024-06-10_15h07.50.817,LearnStrategy,2023.2.3,MacIntel,58.47953216,6,1,2,0.377941081,-0.098956909,1,0,0,1.3633,Diorite_10,3,10,3,7,1.363,3,10,0.359094781,-0.254864977,1,0,0,2.321,Gabbro_rect,4,2.321,0,1,0,1,0,1,,,,,,,,,,,,
65e78c194623f14aa083ecaa,SCR,2024-06-10_15h07.50.817,LearnStrategy,2023.2.3,MacIntel,58.47953216,6,1,3,-0.530184953,-0.114458957,1,0,0,1.2661,Peridotite_02,7,02,3,1,1.266,7,02,0.112937758,-0.399460178,1,0,0,1.687,Peridotite_rect,7,1.687,1,2,0,2,0,1,,,,,,,,,,,,
65e78c194623f14aa083ecaa,SCR,2024-06-10_15h07.50.817,LearnStrategy,2023.2.3,MacIntel,58.47953216,6,1,4,0.041802707,0.252801853,1,0,0,1.2646,Andesite_02,1,02,5,5,1.265,1,02,-0.415239902,-0.245273777,1,0,0,6.7536,Andesite_rect,1,6.754,1,3,0,3,0,1,,,,,,,,,,,,
65e78c194623f14aa083ecaa,SCR,2024-06-10_15h07.50.817,LearnStrategy,2023.2.3,MacIntel,58.47953216,6,1,5,-0.560636614,0.428289659,1,0,0,1.4983,Andesite_05,1,05,6,1,1.498,1,05,-0.360816786,-0.24264011,1,0,0,1.9883,Andesite_rect,1,1.988,1,4,0,4,0,1,,,,,,,,,,,,
65e78c194623f14aa083ecaa,SCR,2024-06-10_15h07.50.817,LearnStrategy,2023.2.3,MacIntel,58.47953216,6,1,6,-0.231965298,-0.417650689,1,0,0,1.6642,Gabbro_15,4,15,1,3,1.664,4,15,0.370898031,-0.242926297,1,0,0,1.6885,Gabbro_rect,4,1.688,1,5,0,5,0,1,,,,,,,,,,,,
65e78c194623f14aa083ecaa,SCR,2024-06-10_15h07.50.817,LearnStrategy,2023.2.3,MacIntel,58.47953216,6,1,7,-0.526077949,0.226105618,1,0,0,1.432,Pegmatite_11,6,11,5,1,1.432,6,11,-0.173569132,-0.421524929,1,0,0,1.1225,Pegmatite_rect,6,1.122,1,6,0,6,0,1,,,,,,,,,,,,
65e78c194623f14aa083ecaa,SCR,2024-06-10_15h07.50.817,LearnStrategy,2023.2.3,MacIntel,58.47953216,6,1,8,0.523252224,0.251465234,1,0,0,1.3672,Diorite_16,3,16,5,8,1.367,3,16,0.163404541,-0.257031453,1,0,0,2.0875,Diorite_rect,3,2.088,1,7,0,7,0,1,,,,,,,,,,,,
65e78c194623f14aa083ecaa,SCR,2024-06-10_15h07.50.817,LearnStrategy,2023.2.3,MacIntel,58.47953216,6,1,9,0.368428413,0.247884589,1,0,0,1.9656,Peridotite_07,7,07,5,7,1.966,7,07,0.079630059,-0.408326009,1,0,0,4.122,Peridotite_rect,7,4.122,1,8,0,8,0,1,,,,,,,,,,,,
65e78c194623f14aa083ecaa,SCR,2024-06-10_15h07.50.817,LearnStrategy,2023.2.3,MacIntel,58.47953216,6,1,10,0.118686591,-0.40870931,1,0,0,1.8167,Gabbro_03,4,03,1,5,1.817,4,03,0.390325385,-0.263933105,1,0,0,3.4224,Gabbro_rect,4,3.422,1,9,0,9,0,1,,,,,,,,,,,,
65e78c194623f14aa083ecaa,SCR,2024-06-10_15h07.50.817,LearnStrategy,2023.2.3,MacIntel,58.47953216,6,1,11,-0.396275228,0.281046143,1,0,0,5.6302,Basalt_16,2,16,5,2,5.63,5,09,-0.135946181,-0.24450453,1,0,0,2.4446,Basalt_rect,2,2.445,1,10,0,10,0,1,,,,,,,,,,,,
65e78c194623f14aa083ecaa,SCR,2024-06-10_15h07.50.817,LearnStrategy,2023.2.3,MacIntel,58.47953216,6,1,12,0.557344428,-0.076208089,1,0,0,2.0982,Gabbro_01,4,01,3,8,2.098,4,01,0.161070353,-0.412567003,1,0,0,6.0206,Peridotite_rect,7,6.021,0,11,0,11,0,1,,,,,,,,,,,,
65e78c194623f14aa083ecaa,SCR,2024-06-10_15h07.50.817,LearnStrategy,2023.2.3,MacIntel,58.47953216,6,1,13,-0.241419135,-0.39266371,1,0,0,2.0309,Gabbro_15,4,15,1,3,2.031,4,15,0.315066393,-0.232615289,1,0,0,3.0869,Gabbro_rect,4,3.087,1,12,0,12,0,1,,,,,,,,,,,,
65e78c194623f14aa083ecaa,SCR,2024-06-10_15h07.50.817,LearnStrategy,2023.2.3,MacIntel,58.47953216,6,1,14,-0.374366048,0.224450836,1,0,0,1.1988,Basalt_16,2,16,5,2,1.199,2,16,-0.180636597,-0.230956963,1,0,0,0.9868,Basalt_rect,2,0.987,1,13,0,13,0,1,,,,,,,,,,,,
65e78c194623f14aa083ecaa,SCR,2024-06-10_15h07.50.817,LearnStrategy,2023.2.3,MacIntel,58.47953216,6,1,15,0.557846951,-0.415485026,1,0,0,1.7971,Basalt_06,2,06,1,8,1.797,2,06,-0.084127875,-0.257818807,1,0,0,1.0889,Basalt_rect,2,1.089,1,14,0,14,0,1,,,,,,,,,,,,
65e78c194623f14aa083ecaa,SCR,2024-06-10_15h07.50.817,LearnStrategy,2023.2.3,MacIntel,58.47953216,6,1,16,0.228328654,-0.123491075,1,0,0,1.6324,Pegmatite_09,6,09,3,6,1.632,6,09,-0.123917033,-0.39478285,1,0,0,1.1879,Pegmatite_rect,6,1.188,1,15,0,15,0,1,,,,,,,,,,,,
65e78c194623f14aa083ecaa,SCR,2024-06-10_15h07.50.817,LearnStrategy,2023.2.3,MacIntel,58.47953216,6,2,1,,,,,,,,2,10,,,,,,,,,,,,,2,8.322,1,,,,,,-0.138100518,-0.251544189,1,0,0,8.3219,Basalt_rect,0,0,0,0,1
65e78c194623f14aa083ecaa,SCR,2024-06-10_15h07.50.817,LearnStrategy,2023.2.3,MacIntel,58.47953216,6,2,2,,,,,,,,6,10,,,,,,,,,,,,,6,1.889,1,,,,,,-0.181085748,-0.396995307,1,0,0,1.8892,Pegmatite_rect,1,0,1,0,1
65e78c194623f14aa083ecaa,SCR,2024-06-10_15h07.50.817,LearnStrategy,2023.2.3,MacIntel,58.47953216,6,2,3,,,,,,,,2,04,,,,,,,,,,,,,2,2.757,1,,,,,,-0.092580363,-0.248752577,1,0,0,2.757,Basalt_rect,2,0,2,0,1
65e78c194623f14aa083ecaa,SCR,2024-06-10_15h07.50.817,LearnStrategy,2023.2.3,MacIntel,58.47953216,6,2,4,,,,,,,,8,14,,,,,,,,,,,,,8,1.543,1,,,,,,0.370123698,-0.399699571,1,0,0,1.5433,Pumice_rect,3,0,3,0,1
65e78c194623f14aa083ecaa,SCR,2024-06-10_15h07.50.817,LearnStrategy,2023.2.3,MacIntel,58.47953216,6,2,5,,,,,,,,3,11,,,,,,,,,,,,,3,3.888,1,,,,,,0.202236938,-0.256615397,1,0,0,3.8884,Diorite_rect,4,0,4,0,1
65e78c194623f14aa083ecaa,SCR,2024-06-10_15h07.50.817,LearnStrategy,2023.2.3,MacIntel,58.47953216,6,2,6,,,,,,,,7,13,,,,,,,,,,,,,7,1.344,1,,,,,,0.12570855,-0.408231066,1,0,0,1.3442,Peridotite_rect,5,0,5,0,1
65e78c194623f14aa083ecaa,SCR,2024-06-10_15h07.50.817,LearnStrategy,2023.2.3,MacIntel,58.47953216,6,2,7,,,,,,,,7,08,,,,,,,,,,,,,7,2.422,1,,,,,,0.12570855,-0.408231066,1,0,0,2.4218,Peridotite_rect,6,0,6,0,1
65e78c194623f14aa083ecaa,SCR,2024-06-10_15h07.50.817,LearnStrategy,2023.2.3,MacIntel,58.47953216,6,2,8,,,,,,,,4,14,,,,,,,,,,,,,1,29.822,0,,,,,,-0.373960843,-0.255453016,1,0,0,29.8218,Andesite_rect,7,0,7,0,1
65e78c194623f14aa083ecaa,SCR,2024-06-10_15h07.50.817,LearnStrategy,2023.2.3,MacIntel,58.47953216,6,2,9,,,,,,,,6,08,,,,,,,,,,,,,6,1.157,1,,,,,,-0.086738688,-0.419375,1,0,0,1.1574,Pegmatite_rect,8,0,8,0,1
65e78c194623f14aa083ecaa,SCR,2024-06-10_15h07.50.817,LearnStrategy,2023.2.3,MacIntel,58.47953216,6,2,10,,,,,,,,8,09,,,,,,,,,,,,,8,2.255,1,,,,,,0.410878364,-0.408092516,1,0,0,2.2548,Pumice_rect,9,0,9,0,1
65e78c194623f14aa083ecaa,SCR,2024-06-10_15h07.50.817,LearnStrategy,2023.2.3,MacIntel,58.47953216,6,2,11,,,,,,,,5,02,,,,,,,,,,,,,5,1.554,1,,,,,,-0.312107103,-0.390666572,1,0,0,1.5545,Obsidian_rect,10,0,10,0,1
65e78c194623f14aa083ecaa,SCR,2024-06-10_15h07.50.817,LearnStrategy,2023.2.3,MacIntel,58.47953216,6,2,12,,,,,,,,1,10,,,,,,,,,,,,,1,6.829,1,,,,,,-0.363212687,-0.247977973,1,0,0,6.8287,Andesite_rect,11,0,11,0,1
65e78c194623f14aa083ecaa,SCR,2024-06-10_15h07.50.817,LearnStrategy,2023.2.3,MacIntel,58.47953216,6,2,13,,,,,,,,1,06,,,,,,,,,,,,,4,1.923,0,,,,,,0.358288574,-0.253356798,1,0,0,1.9227,Gabbro_rect,12,0,12,0,1
65e78c194623f14aa083ecaa,SCR,2024-06-10_15h07.50.817,LearnStrategy,2023.2.3,MacIntel,58.47953216,6,2,14,,,,,,,,5,08,,,,,,,,,,,,,5,1.589,1,,,,,,-0.320457458,-0.392811686,1,0,0,1.5893,Obsidian_rect,13,0,13,0,1
65e78c194623f14aa083ecaa,SCR,2024-06-10_15h07.50.817,LearnStrategy,2023.2.3,MacIntel,58.47953216,6,2,15,,,,,,,,4,11,,,,,,,,,,,,,4,8.156,1,,,,,,0.435114882,-0.250046115,1,0,0,8.1555,Gabbro_rect,14,0,14,0,1
65e78c194623f14aa083ecaa,SCR,2024-06-10_15h07.50.817,LearnStrategy,2023.2.3,MacIntel,58.47953216,6,2,16,,,,,,,,3,06,,,,,,,,,,,,,3,1.39,1,,,,,,0.161956584,-0.254472182,1,0,0,1.3899,Diorite_rect,15,0,15,0,1
65e78c194623f14aa083ecaa,SCR,2024-06-10_15h07.50.817,LearnStrategy,2023.2.3,MacIntel,58.47953216,7,1,1,0.563847114,0.079771729,1,0,0,1.2314,Pegmatite_16,6,16,4,8,1.231,6,16,-0.121512112,-0.384708998,1,0,0,0.9233,Pegmatite_rect,6,0.923,1,0,0,0,0,1,,,,,,,,,,,,
65e78c194623f14aa083ecaa,SCR,2024-06-10_15h07.50.817,LearnStrategy,2023.2.3,MacIntel,58.47953216,7,1,2,0.414455566,0.386007453,1,0,0,1.4643,Gabbro_05,4,05,6,7,1.464,4,05,0.393657091,-0.269431763,1,0,0,1.3552,Gabbro_rect,4,1.355,1,1,0,1,0,1,,,,,,,,,,,,
65e78c194623f14aa083ecaa,SCR,2024-06-10_15h07.50.817,LearnStrategy,2023.2.3,MacIntel,58.47953216,7,1,3,-0.566163093,-0.384761692,1,0,0,2.0315,Peridotite_12,7,12,1,1,2.032,7,12,-0.07430976,-0.382170817,1,0,0,10.2868,Pegmatite_rect,6,10.287,0,2,0,2,0,1,,,,,,,,,,,,
65e78c194623f14aa083ecaa,SCR,2024-06-10_15h07.50.817,LearnStrategy,2023.2.3,MacIntel,58.47953216,7,1,4,0.205970934,-0.455135905,1,0,0,1.2304,Basalt_09,2,09,1,6,1.23,2,09,-0.107474501,-0.25550076,1,0,0,4.2551,Basalt_rect,2,4.255,1,3,0,3,0,1,,,,,,,,,,,,
65e78c194623f14aa083ecaa,SCR,2024-06-10_15h07.50.817,LearnStrategy,2023.2.3,MacIntel,58.47953216,7,1,5,-0.348920288,-0.449374186,1,0,0,6.932,Pumice_06,8,06,1,2,6.932,8,06,0.465925971,-0.411458944,1,0,0,1.1105,Pumice_rect,8,1.111,1,4,0,4,0,1,,,,,,,,,,,,
65e78c194623f14aa083ecaa,SCR,2024-06-10_15h07.50.817,LearnStrategy,2023.2.3,MacIntel,58.47953216,7,1,6,-0.409285685,-0.245986667,1,0,0,1.166,Obsidian_14,5,14,2,2,1.166,5,14,-0.422231581,-0.407809245,1,0,0,1.1869,Obsidian_rect,5,1.187,1,5,0,5,0,1,,,,,,,,,,,,
65e78c194623f14aa083ecaa,SCR,2024-06-10_15h07.50.817,LearnStrategy,2023.2.3,MacIntel,58.47953216,7,1,7,-0.53275233,0.393064406,1,0,0,1.6652,Andesite_05,1,05,6,1,1.665,1,05,-0.431711663,-0.243371446,1,0,0,1.3544,Andesite_rect,1,1.354,1,6,0,6,0,1,,,,,,,,,,,,
65e78c194623f14aa083ecaa,SCR,2024-06-10_15h07.50.817,LearnStrategy,2023.2.3,MacIntel,58.47953216,7,1,8,0.252485962,0.412925161,1,0,0,1.0639,Pegmatite_13,6,13,6,6,1.064,6,13,-0.20313246,-0.417563477,1,0,0,0.7879,Pegmatite_rect,6,0.788,1,7,0,7,0,1,,,,,,,,,,,,
65e78c194623f14aa083ecaa,SCR,2024-06-10_15h07.50.817,LearnStrategy,2023.2.3,MacIntel,58.47953216,7,1,9,-0.065929362,-0.105216132,1,0,0,0.8314,Diorite_07,3,07,3,4,0.831,3,07,0.173056776,-0.247900865,1,0,0,0.7214,Diorite_rect,3,0.721,1,8,0,8,0,1,,,,,,,,,,,,
65e78c194623f14aa083ecaa,SCR,2024-06-10_15h07.50.817,LearnStrategy,2023.2.3,MacIntel,58.47953216,7,1,10,-0.075643243,-0.089773627,1,0,0,1.2326,Diorite_07,3,07,3,4,1.233,3,07,0.139306302,-0.245358615,1,0,0,0.754,Diorite_rect,3,0.754,1,9,0,9,0,1,,,,,,,,,,,,
65e78c194623f14aa083ecaa,SCR,2024-06-10_15h07.50.817,LearnStrategy,2023.2.3,MacIntel,58.47953216,7,1,11,-0.267356906,-0.432520684,1,0,0,1.2308,Gabbro_15,4,15,1,3,1.231,4,15,0.334917535,-0.231483629,1,0,0,1.6882,Gabbro_rect,4,1.688,1,10,0,10,0,1,,,,,,,,,,,,
65e78c194623f14aa083ecaa,SCR,2024-06-10_15h07.50.817,LearnStrategy,2023.2.3,MacIntel,58.47953216,7,1,12,-0.388407694,0.272001885,1,0,0,1.3315,Basalt_16,2,16,5,2,1.332,2,16,-0.16359002,-0.253549466,1,0,0,3.2547,Basalt_rect,2,3.255,1,11,0,11,0,1,,,,,,,,,,,,
65e78c194623f14aa083ecaa,SCR,2024-06-10_15h07.50.817,LearnStrategy,2023.2.3,MacIntel,58.47953216,7,1,13,0.57054796,-0.289749146,1,0,0,1.3991,Andesite_09,1,09,2,8,1.399,1,09,-0.315273505,-0.249041206,1,0,0,2.7864,Andesite_rect,1,2.786,1,12,0,12,0,1,,,,,,,,,,,,
65e78c194623f14aa083ecaa,SCR,2024-06-10_15h07.50.817,LearnStrategy,2023.2.3,MacIntel,58.47953216,7,1,14,-0.228271281,-0.418251139,1,0,0,1.1314,Gabbro_15,4,15,1,3,1.131,4,15,0.455733507,-0.255218506,1,0,0,3.123,Gabbro_rect,4,3.123,1,13,0,13,0,1,,,,,,,,,,,,
65e78c194623f14aa083ecaa,SCR,2024-06-10_15h07.50.817,LearnStrategy,2023.2.3,MacIntel,58.47953216,7,1,15,0.597639025,-0.085509237,1,0,0,1.1643,Gabbro_01,4,01,3,8,1.164,4,01,0.359233534,-0.253709581,1,0,0,3.7282,Gabbro_rect,4,3.728,1,14,0,14,0,1,,,,,,,,,,,,
65e78c194623f14aa083ecaa,SCR,2024-06-10_15h07.50.817,LearnStrategy,2023.2.3,MacIntel,58.47953216,7,1,16,0.560066325,0.428189053,1,0,0,1.4305,Andesite_07,1,07,6,8,1.43,1,07,-0.337406141,-0.22949212,1,0,0,4.6873,Andesite_rect,1,4.687,1,15,0,15,0,1,,,,,,,,,,,,
65e78c194623f14aa083ecaa,SCR,2024-06-10_15h07.50.817,LearnStrategy,2023.2.3,MacIntel,58.47953216,7,2,1,,,,,,,,7,13,,,,,,,,,,,,,7,2.056,1,,,,,,0.164524807,-0.387392917,1,0,0,2.0558,Peridotite_rect,0,0,0,0,1
65e78c194623f14aa083ecaa,SCR,2024-06-10_15h07.50.817,LearnStrategy,2023.2.3,MacIntel,58.47953216,7,2,2,,,,,,,,6,15,,,,,,,,,,,,,6,2.123,1,,,,,,-0.161314697,-0.400763821,1,0,0,2.1229,Pegmatite_rect,1,0,1,0,1
65e78c194623f14aa083ecaa,SCR,2024-06-10_15h07.50.817,LearnStrategy,2023.2.3,MacIntel,58.47953216,7,2,3,,,,,,,,8,16,,,,,,,,,,,,,8,1.455,1,,,,,,0.344768473,-0.408437636,1,0,0,1.4545,Pumice_rect,2,0,2,0,1
65e78c194623f14aa083ecaa,SCR,2024-06-10_15h07.50.817,LearnStrategy,2023.2.3,MacIntel,58.47953216,7,2,4,,,,,,,,2,14,,,,,,,,,,,,,8,5.922,0,,,,,,0.354239231,-0.394170871,1,0,0,5.9217,Pumice_rect,3,0,3,0,1
65e78c194623f14aa083ecaa,SCR,2024-06-10_15h07.50.817,LearnStrategy,2023.2.3,MacIntel,58.47953216,7,2,5,,,,,,,,1,10,,,,,,,,,,,,,1,5.178,1,,,,,,-0.48912852,-0.243859185,1,0,0,5.1775,Andesite_rect,4,0,4,0,1
65e78c194623f14aa083ecaa,SCR,2024-06-10_15h07.50.817,LearnStrategy,2023.2.3,MacIntel,58.47953216,7,2,6,,,,,,,,4,10,,,,,,,,,,,,,2,2.447,0,,,,,,-0.064691976,-0.237062107,1,0,0,2.4467,Basalt_rect,5,0,5,0,1
65e78c194623f14aa083ecaa,SCR,2024-06-10_15h07.50.817,LearnStrategy,2023.2.3,MacIntel,58.47953216,7,2,7,,,,,,,,1,11,,,,,,,,,,,,,1,8.645,1,,,,,,-0.351198018,-0.264986776,1,0,0,8.6448,Andesite_rect,6,0,6,0,1
65e78c194623f14aa083ecaa,SCR,2024-06-10_15h07.50.817,LearnStrategy,2023.2.3,MacIntel,58.47953216,7,2,8,,,,,,,,2,08,,,,,,,,,,,,,2,1.743,1,,,,,,-0.185199178,-0.25379971,1,0,0,1.7434,Basalt_rect,7,0,7,0,1
65e78c194623f14aa083ecaa,SCR,2024-06-10_15h07.50.817,LearnStrategy,2023.2.3,MacIntel,58.47953216,7,2,9,,,,,,,,5,02,,,,,,,,,,,,,5,1.089,1,,,,,,-0.330942891,-0.38907274,1,0,0,1.0886,Obsidian_rect,8,0,8,0,1
65e78c194623f14aa083ecaa,SCR,2024-06-10_15h07.50.817,LearnStrategy,2023.2.3,MacIntel,58.47953216,7,2,10,,,,,,,,3,15,,,,,,,,,,,,,4,3.088,0,,,,,,0.356743707,-0.24884847,1,0,0,3.0881,Gabbro_rect,9,0,9,0,1
65e78c194623f14aa083ecaa,SCR,2024-06-10_15h07.50.817,LearnStrategy,2023.2.3,MacIntel,58.47953216,7,2,11,,,,,,,,5,16,,,,,,,,,,,,,5,2.322,1,,,,,,-0.386757948,-0.400955404,1,0,0,2.3224,Obsidian_rect,10,0,10,0,1
65e78c194623f14aa083ecaa,SCR,2024-06-10_15h07.50.817,LearnStrategy,2023.2.3,MacIntel,58.47953216,7,2,12,,,,,,,,3,06,,,,,,,,,,,,,3,1.977,1,,,,,,0.174337701,-0.252990112,1,0,0,1.9773,Diorite_rect,11,0,11,0,1
65e78c194623f14aa083ecaa,SCR,2024-06-10_15h07.50.817,LearnStrategy,2023.2.3,MacIntel,58.47953216,7,2,13,,,,,,,,6,06,,,,,,,,,,,,,6,1.322,1,,,,,,-0.118988308,-0.415344713,1,0,0,1.322,Pegmatite_rect,12,0,12,0,1
65e78c194623f14aa083ecaa,SCR,2024-06-10_15h07.50.817,LearnStrategy,2023.2.3,MacIntel,58.47953216,7,2,14,,,,,,,,4,12,,,,,,,,,,,,,4,4.79,1,,,,,,0.357112766,-0.257007514,1,0,0,4.79,Gabbro_rect,13,0,13,0,1
65e78c194623f14aa083ecaa,SCR,2024-06-10_15h07.50.817,LearnStrategy,2023.2.3,MacIntel,58.47953216,7,2,15,,,,,,,,8,08,,,,,,,,,,,,,8,1.377,1,,,,,,0.344422336,-0.389808689,1,0,0,1.3772,Pumice_rect,14,0,14,0,1
65e78c194623f14aa083ecaa,SCR,2024-06-10_15h07.50.817,LearnStrategy,2023.2.3,MacIntel,58.47953216,7,2,16,,,,,,,,7,15,,,,,,,,,,,,,7,1.222,1,,,,,,0.185038927,-0.400491876,1,0,0,1.2218,Peridotite_rect,15,0,15,0,1
65e78c194623f14aa083ecaa,SCR,2024-06-10_15h07.50.817,LearnStrategy,2023.2.3,MacIntel,58.47953216,8,1,1,0.244062432,0.072499084,1,0,0,1.2627,Diorite_12,3,12,4,6,1.263,3,12,0.115863987,-0.263993462,1,0,0,1.289,Diorite_rect,3,1.289,1,0,0,0,0,1,,,,,,,,,,,,
65e78c194623f14aa083ecaa,SCR,2024-06-10_15h07.50.817,LearnStrategy,2023.2.3,MacIntel,58.47953216,8,1,2,-0.360934618,0.258044654,1,0,0,1.3664,Basalt_16,2,16,5,2,1.366,2,16,-0.158038805,-0.267817858,1,0,0,1.2874,Basalt_rect,2,1.287,1,1,0,1,0,1,,,,,,,,,,,,
65e78c194623f14aa083ecaa,SCR,2024-06-10_15h07.50.817,LearnStrategy,2023.2.3,MacIntel,58.47953216,8,1,3,0.103206448,0.252675459,1,0,0,0.9974,Andesite_02,1,02,5,5,0.997,1,02,0.152539469,-0.252076891,1,0,0,1.288,Diorite_rect,3,1.288,0,2,0,2,0,1,,,,,,,,,,,,
65e78c194623f14aa083ecaa,SCR,2024-06-10_15h07.50.817,LearnStrategy,2023.2.3,MacIntel,58.47953216,8,1,4,0.572840576,-0.132314453,1,0,0,1.2983,Gabbro_01,4,01,3,8,1.298,4,01,0.350074463,-0.265187988,1,0,0,1.9213,Gabbro_rect,4,1.921,1,3,0,3,0,1,,,,,,,,,,,,
65e78c194623f14aa083ecaa,SCR,2024-06-10_15h07.50.817,LearnStrategy,2023.2.3,MacIntel,58.47953216,8,1,5,-0.098864678,-0.120092095,1,0,0,0.9651,Diorite_07,3,07,3,4,0.965,3,07,0.150366143,-0.250846558,1,0,0,2.7971,Diorite_rect,3,2.797,1,4,0,4,0,1,,,,,,,,,,,,
65e78c194623f14aa083ecaa,SCR,2024-06-10_15h07.50.817,LearnStrategy,2023.2.3,MacIntel,58.47953216,8,1,6,0.407513292,-0.131067437,1,0,0,0.9989,Diorite_10,3,10,3,7,0.999,3,10,0.361364068,-0.237692803,1,0,0,6.2534,Gabbro_rect,4,6.253,0,5,0,5,0,1,,,,,,,,,,,,
65e78c194623f14aa083ecaa,SCR,2024-06-10_15h07.50.817,LearnStrategy,2023.2.3,MacIntel,58.47953216,8,1,7,-0.541507738,-0.096647407,1,0,0,1.2655,Peridotite_02,7,02,3,1,1.265,7,02,0.164361437,-0.407837931,1,0,0,1.4866,Peridotite_rect,7,1.487,1,6,0,6,0,1,,,,,,,,,,,,
65e78c194623f14aa083ecaa,SCR,2024-06-10_15h07.50.817,LearnStrategy,2023.2.3,MacIntel,58.47953216,8,1,8,0.271469659,0.398170098,1,0,0,1.5983,Pegmatite_13,6,13,6,6,1.598,6,13,-0.199560343,-0.413653768,1,0,0,1.2871,Pegmatite_rect,6,1.287,1,7,0,7,0,1,,,,,,,,,,,,
65e78c194623f14aa083ecaa,SCR,2024-06-10_15h07.50.817,LearnStrategy,2023.2.3,MacIntel,58.47953216,8,1,9,0.218535902,-0.429987522,1,0,0,1.1341,Basalt_09,2,09,1,6,1.134,2,09,-0.081292453,-0.249498427,1,0,0,0.9545,Basalt_rect,2,0.955,1,8,0,8,0,1,,,,,,,,,,,,
65e78c194623f14aa083ecaa,SCR,2024-06-10_15h07.50.817,LearnStrategy,2023.2.3,MacIntel,58.47953216,8,1,10,0.396317139,0.409475335,1,0,0,1.4966,Gabbro_05,4,05,6,7,1.497,4,05,0.358268229,-0.247798937,1,0,0,1.3571,Gabbro_rect,4,1.357,1,9,0,9,0,1,,,,,,,,,,,,
65e78c194623f14aa083ecaa,SCR,2024-06-10_15h07.50.817,LearnStrategy,2023.2.3,MacIntel,58.47953216,8,1,11,-0.191348945,-0.082902289,1,0,0,0.7985,Andesite_16,1,16,3,3,0.799,1,16,-0.368708157,-0.244266629,1,0,0,1.0533,Andesite_rect,1,1.053,1,10,0,10,0,1,,,,,,,,,,,,
65e78c194623f14aa083ecaa,SCR,2024-06-10_15h07.50.817,LearnStrategy,2023.2.3,MacIntel,58.47953216,8,1,12,-0.065473701,-0.255048896,1,0,0,0.8644,Obsidian_07,5,07,2,4,0.864,5,07,-0.357238973,-0.4131368,1,0,0,1.3196,Obsidian_rect,5,1.32,1,11,0,11,0,1,,,,,,,,,,,,
65e78c194623f14aa083ecaa,SCR,2024-06-10_15h07.50.817,LearnStrategy,2023.2.3,MacIntel,58.47953216,8,1,13,-0.342945319,-0.398532647,1,0,0,1.0981,Pumice_06,8,06,1,2,1.098,8,06,0.460239393,-0.39609809,1,0,0,0.9554,Pumice_rect,8,0.955,1,12,0,12,0,1,,,,,,,,,,,,
65e78c194623f14aa083ecaa,SCR,2024-06-10_15h07.50.817,LearnStrategy,2023.2.3,MacIntel,58.47953216,8,1,14,0.233637899,-0.418330417,1,0,0,1.1001,Basalt_09,2,09,1,6,1.1,2,09,-0.168191596,-0.267962172,1,0,0,1.4548,Basalt_rect,2,1.455,1,13,0,13,0,1,,,,,,,,,,,,
65e78c194623f14aa083ecaa,SCR,2024-06-10_15h07.50.817,LearnStrategy,2023.2.3,MacIntel,58.47953216,8,1,15,-0.212015652,0.251331177,1,0,0,1.3985,Gabbro_16,4,16,5,3,1.399,4,16,-0.162870755,-0.233822835,1,0,0,1.1539,Basalt_rect,2,1.154,0,14,0,14,0,1,,,,,,,,,,,,
65e78c194623f14aa083ecaa,SCR,2024-06-10_15h07.50.817,LearnStrategy,2023.2.3,MacIntel,58.47953216,8,1,16,0.536438395,-0.097594333,1,0,0,0.8318,Gabbro_01,4,01,3,8,0.832,4,01,0.37322035,-0.257010769,1,0,0,1.2221,Gabbro_rect,4,1.222,1,15,0,15,0,1,,,,,,,,,,,,
65e78c194623f14aa083ecaa,SCR,2024-06-10_15h07.50.817,LearnStrategy,2023.2.3,MacIntel,58.47953216,8,2,1,,,,,,,,7,08,,,,,,,,,,,,,7,1.554,1,,,,,,0.133576525,-0.392909817,1,0,0,1.5545,Peridotite_rect,0,0,0,0,1
65e78c194623f14aa083ecaa,SCR,2024-06-10_15h07.50.817,LearnStrategy,2023.2.3,MacIntel,58.47953216,8,2,2,,,,,,,,8,04,,,,,,,,,,,,,8,1.055,1,,,,,,0.325523139,-0.406533949,1,0,0,1.0553,Pumice_rect,1,0,1,0,1
65e78c194623f14aa083ecaa,SCR,2024-06-10_15h07.50.817,LearnStrategy,2023.2.3,MacIntel,58.47953216,8,2,3,,,,,,,,5,12,,,,,,,,,,,,,5,1.322,1,,,,,,-0.446024238,-0.401327311,1,0,0,1.3215,Obsidian_rect,2,0,2,0,1
65e78c194623f14aa083ecaa,SCR,2024-06-10_15h07.50.817,LearnStrategy,2023.2.3,MacIntel,58.47953216,8,2,4,,,,,,,,8,14,,,,,,,,,,,,,8,1.321,1,,,,,,0.344683295,-0.384178196,1,0,0,1.3213,Pumice_rect,3,0,3,0,1
65e78c194623f14aa083ecaa,SCR,2024-06-10_15h07.50.817,LearnStrategy,2023.2.3,MacIntel,58.47953216,8,2,5,,,,,,,,7,14,,,,,,,,,,,,,7,2.255,1,,,,,,0.067077094,-0.403699816,1,0,0,2.2551,Peridotite_rect,4,0,4,0,1
65e78c194623f14aa083ecaa,SCR,2024-06-10_15h07.50.817,LearnStrategy,2023.2.3,MacIntel,58.47953216,8,2,6,,,,,,,,3,09,,,,,,,,,,,,,3,1.478,1,,,,,,0.120050659,-0.26049235,1,0,0,1.4781,Diorite_rect,5,0,5,0,1
65e78c194623f14aa083ecaa,SCR,2024-06-10_15h07.50.817,LearnStrategy,2023.2.3,MacIntel,58.47953216,8,2,7,,,,,,,,4,08,,,,,,,,,,,,,4,3.157,1,,,,,,0.367729357,-0.236761068,1,0,0,3.1571,Gabbro_rect,6,0,6,0,1
65e78c194623f14aa083ecaa,SCR,2024-06-10_15h07.50.817,LearnStrategy,2023.2.3,MacIntel,58.47953216,8,2,8,,,,,,,,5,11,,,,,,,,,,,,,5,1.213,1,,,,,,-0.34218438,-0.406504924,1,0,0,1.2126,Obsidian_rect,7,0,7,0,1
65e78c194623f14aa083ecaa,SCR,2024-06-10_15h07.50.817,LearnStrategy,2023.2.3,MacIntel,58.47953216,8,2,9,,,,,,,,6,10,,,,,,,,,,,,,6,1.256,1,,,,,,-0.138664686,-0.393439602,1,0,0,1.2557,Pegmatite_rect,8,0,8,0,1
65e78c194623f14aa083ecaa,SCR,2024-06-10_15h07.50.817,LearnStrategy,2023.2.3,MacIntel,58.47953216,8,2,10,,,,,,,,2,04,,,,,,,,,,,,,2,1.189,1,,,,,,-0.131480306,-0.258165894,1,0,0,1.1887,Basalt_rect,9,0,9,0,1
65e78c194623f14aa083ecaa,SCR,2024-06-10_15h07.50.817,LearnStrategy,2023.2.3,MacIntel,58.47953216,8,2,11,,,,,,,,3,14,,,,,,,,,,,,,3,1.121,1,,,,,,0.064843479,-0.24588718,1,0,0,1.1215,Diorite_rect,10,0,10,0,1
65e78c194623f14aa083ecaa,SCR,2024-06-10_15h07.50.817,LearnStrategy,2023.2.3,MacIntel,58.47953216,8,2,12,,,,,,,,2,10,,,,,,,,,,,,,2,1.188,1,,,,,,-0.088667263,-0.260275269,1,0,0,1.1881,Basalt_rect,11,0,11,0,1
65e78c194623f14aa083ecaa,SCR,2024-06-10_15h07.50.817,LearnStrategy,2023.2.3,MacIntel,58.47953216,8,2,13,,,,,,,,4,11,,,,,,,,,,,,,2,1.088,0,,,,,,-0.089222819,-0.259719713,1,0,0,1.0876,Basalt_rect,12,0,12,0,1
65e78c194623f14aa083ecaa,SCR,2024-06-10_15h07.50.817,LearnStrategy,2023.2.3,MacIntel,58.47953216,8,2,14,,,,,,,,1,03,,,,,,,,,,,,,1,2.421,1,,,,,,-0.325758565,-0.243771227,1,0,0,2.4212,Andesite_rect,13,0,13,0,1
65e78c194623f14aa083ecaa,SCR,2024-06-10_15h07.50.817,LearnStrategy,2023.2.3,MacIntel,58.47953216,8,2,15,,,,,,,,6,12,,,,,,,,,,,,,6,4.655,1,,,,,,-0.087454563,-0.409719645,1,0,0,4.6553,Pegmatite_rect,14,0,14,0,1
65e78c194623f14aa083ecaa,SCR,2024-06-10_15h07.50.817,LearnStrategy,2023.2.3,MacIntel,58.47953216,8,2,16,,,,,,,,1,14,,,,,,,,,,,,,1,4.71,1,,,,,,-0.327559374,-0.25646342,1,0,0,4.7103,Andesite_rect,15,0,15,0,1
65e78c194623f14aa083ecaa,SCR,2024-06-10_15h07.50.817,LearnStrategy,2023.2.3,MacIntel,58.47953216,9,1,1,0.218668823,0.401484833,1,0,0,1.3988,Pegmatite_13,6,13,6,6,1.399,6,13,-0.159407484,-0.389818183,1,0,0,1.287,Pegmatite_rect,6,1.287,1,0,0,0,0,1,,,,,,,,,,,,
65e78c194623f14aa083ecaa,SCR,2024-06-10_15h07.50.817,LearnStrategy,2023.2.3,MacIntel,58.47953216,9,1,2,0.088558282,-0.40695638,1,0,0,1.1639,Gabbro_03,4,03,1,5,1.164,4,03,0.384212375,-0.228955485,1,0,0,1.4895,Gabbro_rect,4,1.49,1,1,0,1,0,1,,,,,,,,,,,,
65e78c194623f14aa083ecaa,SCR,2024-06-10_15h07.50.817,LearnStrategy,2023.2.3,MacIntel,58.47953216,9,1,3,-0.257518819,0.274016842,1,0,0,1.2324,Gabbro_16,4,16,5,3,1.232,4,16,0.352958713,-0.246230808,1,0,0,1.2879,Gabbro_rect,4,1.288,1,2,0,2,0,1,,,,,,,,,,,,
65e78c194623f14aa083ecaa,SCR,2024-06-10_15h07.50.817,LearnStrategy,2023.2.3,MacIntel,58.47953216,9,1,4,0.030385267,-0.109956868,1,0,0,0.7649,Obsidian_10,5,10,3,5,0.765,5,10,-0.428343269,-0.402216254,1,0,0,0.7221,Obsidian_rect,5,0.722,1,3,0,3,0,1,,,,,,,,,,,,
65e78c194623f14aa083ecaa,SCR,2024-06-10_15h07.50.817,LearnStrategy,2023.2.3,MacIntel,58.47953216,9,1,5,-0.224256117,0.246517368,1,0,0,1.2315,Gabbro_16,4,16,5,3,1.232,4,16,0.361011556,-0.23699056,1,0,0,1.0206,Gabbro_rect,4,1.021,1,4,0,4,0,1,,,,,,,,,,,,
65e78c194623f14aa083ecaa,SCR,2024-06-10_15h07.50.817,LearnStrategy,2023.2.3,MacIntel,58.47953216,9,1,6,-0.562107866,-0.389009738,1,0,0,1.1315,Peridotite_12,7,12,1,1,1.131,7,12,0.041951633,-0.412076145,1,0,0,3.9895,Peridotite_rect,7,3.989,1,5,0,5,0,1,,,,,,,,,,,,
65e78c194623f14aa083ecaa,SCR,2024-06-10_15h07.50.817,LearnStrategy,2023.2.3,MacIntel,58.47953216,9,1,7,-0.094504055,-0.437093438,1,0,0,0.9959,Gabbro_13,4,13,1,4,0.996,4,13,0.342186686,-0.235689765,1,0,0,3.8212,Gabbro_rect,4,3.821,1,6,0,6,0,1,,,,,,,,,,,,
65e78c194623f14aa083ecaa,SCR,2024-06-10_15h07.50.817,LearnStrategy,2023.2.3,MacIntel,58.47953216,9,1,8,-0.099098443,0.080810988,1,0,0,0.9675,Andesite_01,1,01,4,4,0.967,1,01,0.364582655,-0.248093533,1,0,0,1.1547,Gabbro_rect,4,1.155,0,7,0,7,0,1,,,,,,,,,,,,
65e78c194623f14aa083ecaa,SCR,2024-06-10_15h07.50.817,LearnStrategy,2023.2.3,MacIntel,58.47953216,9,1,9,0.229843547,-0.427314114,1,0,0,1.0653,Basalt_09,2,09,1,6,1.065,2,09,-0.129117771,-0.246821764,1,0,0,0.9543,Basalt_rect,2,0.954,1,8,0,8,0,1,,,,,,,,,,,,
65e78c194623f14aa083ecaa,SCR,2024-06-10_15h07.50.817,LearnStrategy,2023.2.3,MacIntel,58.47953216,9,1,10,0.5353361,0.395337491,1,0,0,1.9986,Andesite_07,1,07,6,8,1.999,1,07,-0.359941169,-0.229026761,1,0,0,1.3545,Andesite_rect,1,1.354,1,9,0,9,0,1,,,,,,,,,,,,
65e78c194623f14aa083ecaa,SCR,2024-06-10_15h07.50.817,LearnStrategy,2023.2.3,MacIntel,58.47953216,9,1,11,0.358706055,-0.115264689,1,0,0,0.8984,Diorite_10,3,10,3,7,0.898,3,10,0.192521973,-0.256283434,1,0,0,4.922,Diorite_rect,3,4.922,1,10,0,10,0,1,,,,,,,,,,,,
65e78c194623f14aa083ecaa,SCR,2024-06-10_15h07.50.817,LearnStrategy,2023.2.3,MacIntel,58.47953216,9,1,12,0.431592068,-0.28799174,1,0,0,1.0641,Pumice_02,8,02,2,7,1.064,8,02,0.404602593,-0.401182387,1,0,0,0.7893,Pumice_rect,8,0.789,1,11,0,11,0,1,,,,,,,,,,,,
65e78c194623f14aa083ecaa,SCR,2024-06-10_15h07.50.817,LearnStrategy,2023.2.3,MacIntel,58.47953216,9,1,13,0.373462457,0.414064551,1,0,0,1.5653,Gabbro_05,4,05,6,7,1.565,4,05,0.368678657,-0.234332818,1,0,0,1.52,Gabbro_rect,4,1.52,1,12,0,12,0,1,,,,,,,,,,,,
65e78c194623f14aa083ecaa,SCR,2024-06-10_15h07.50.817,LearnStrategy,2023.2.3,MacIntel,58.47953216,9,1,14,-0.394243435,0.26808002,1,0,0,1.1988,Basalt_16,2,16,5,2,1.199,2,16,-0.168514404,-0.260449965,1,0,0,1.0865,Basalt_rect,2,1.087,1,13,0,13,0,1,,,,,,,,,,,,
65e78c194623f14aa083ecaa,SCR,2024-06-10_15h07.50.817,LearnStrategy,2023.2.3,MacIntel,58.47953216,9,1,15,0.214240519,-0.392485623,1,0,0,1.0979,Basalt_09,2,09,1,6,1.098,2,09,-0.069574856,-0.242186008,1,0,0,0.7216,Basalt_rect,2,0.722,1,14,0,14,0,1,,,,,,,,,,,,
65e78c194623f14aa083ecaa,SCR,2024-06-10_15h07.50.817,LearnStrategy,2023.2.3,MacIntel,58.47953216,9,1,16,0.374718289,-0.121451484,1,0,0,1.398,Diorite_10,3,10,3,7,1.398,3,10,0.174747857,-0.244748603,1,0,0,1.6891,Diorite_rect,3,1.689,1,15,0,15,0,1,,,,,,,,,,,,
65e78c194623f14aa083ecaa,SCR,2024-06-10_15h07.50.817,LearnStrategy,2023.2.3,MacIntel,58.47953216,9,2,1,,,,,,,,2,01,,,,,,,,,,,,,2,1.388,1,,,,,,-0.081712375,-0.231754286,1,0,0,1.3882,Basalt_rect,0,0,0,0,1
65e78c194623f14aa083ecaa,SCR,2024-06-10_15h07.50.817,LearnStrategy,2023.2.3,MacIntel,58.47953216,9,2,2,,,,,,,,6,08,,,,,,,,,,,,,6,1.189,1,,,,,,-0.100814955,-0.412888184,1,0,0,1.1887,Pegmatite_rect,1,0,1,0,1
65e78c194623f14aa083ecaa,SCR,2024-06-10_15h07.50.817,LearnStrategy,2023.2.3,MacIntel,58.47953216,9,2,3,,,,,,,,6,07,,,,,,,,,,,,,6,1.854,1,,,,,,-0.101370511,-0.412888184,1,0,0,1.8542,Pegmatite_rect,2,0,2,0,1
65e78c194623f14aa083ecaa,SCR,2024-06-10_15h07.50.817,LearnStrategy,2023.2.3,MacIntel,58.47953216,9,2,4,,,,,,,,8,09,,,,,,,,,,,,,8,1.822,1,,,,,,0.399317356,-0.409995049,1,0,0,1.8221,Pumice_rect,3,0,3,0,1
65e78c194623f14aa083ecaa,SCR,2024-06-10_15h07.50.817,LearnStrategy,2023.2.3,MacIntel,58.47953216,9,2,5,,,,,,,,3,11,,,,,,,,,,,,,3,1.855,1,,,,,,0.192443848,-0.25485711,1,0,0,1.8551,Diorite_rect,4,0,4,0,1
65e78c194623f14aa083ecaa,SCR,2024-06-10_15h07.50.817,LearnStrategy,2023.2.3,MacIntel,58.47953216,9,2,6,,,,,,,,2,05,,,,,,,,,,,,,2,1.189,1,,,,,,-0.087401666,-0.263259142,1,0,0,1.1886,Basalt_rect,5,0,5,0,1
65e78c194623f14aa083ecaa,SCR,2024-06-10_15h07.50.817,LearnStrategy,2023.2.3,MacIntel,58.47953216,9,2,7,,,,,,,,4,14,,,,,,,,,,,,,4,2.962,1,,,,,,0.436564399,-0.237792426,1,0,0,2.9619,Gabbro_rect,6,0,6,0,1
65e78c194623f14aa083ecaa,SCR,2024-06-10_15h07.50.817,LearnStrategy,2023.2.3,MacIntel,58.47953216,9,2,8,,,,,,,,7,16,,,,,,,,,,,,,7,1.278,1,,,,,,0.147858751,-0.406257053,1,0,0,1.2775,Peridotite_rect,7,0,7,0,1
65e78c194623f14aa083ecaa,SCR,2024-06-10_15h07.50.817,LearnStrategy,2023.2.3,MacIntel,58.47953216,9,2,9,,,,,,,,3,08,,,,,,,,,,,,,3,1.255,1,,,,,,0.14398173,-0.258050062,1,0,0,1.2546,Diorite_rect,8,0,8,0,1
65e78c194623f14aa083ecaa,SCR,2024-06-10_15h07.50.817,LearnStrategy,2023.2.3,MacIntel,58.47953216,9,2,10,,,,,,,,5,08,,,,,,,,,,,,,5,1.288,1,,,,,,-0.440877245,-0.415343831,1,0,0,1.2879,Obsidian_rect,9,0,9,0,1
65e78c194623f14aa083ecaa,SCR,2024-06-10_15h07.50.817,LearnStrategy,2023.2.3,MacIntel,58.47953216,9,2,11,,,,,,,,7,04,,,,,,,,,,,,,3,31.322,0,,,,,,0.10124349,-0.257977431,1,0,0,31.3217,Diorite_rect,10,0,10,0,1
65e78c194623f14aa083ecaa,SCR,2024-06-10_15h07.50.817,LearnStrategy,2023.2.3,MacIntel,58.47953216,9,2,12,,,,,,,,1,04,,,,,,,,,,,,,4,7.244,0,,,,,,0.327519192,-0.254033,1,0,0,7.2443,Gabbro_rect,11,0,11,0,1
65e78c194623f14aa083ecaa,SCR,2024-06-10_15h07.50.817,LearnStrategy,2023.2.3,MacIntel,58.47953216,9,2,13,,,,,,,,5,06,,,,,,,,,,,,,5,1.279,1,,,,,,-0.4587559,-0.401803657,1,0,0,1.2794,Obsidian_rect,12,0,12,0,1
65e78c194623f14aa083ecaa,SCR,2024-06-10_15h07.50.817,LearnStrategy,2023.2.3,MacIntel,58.47953216,9,2,14,,,,,,,,8,15,,,,,,,,,,,,,8,1.355,1,,,,,,0.42922187,-0.417174479,1,0,0,1.355,Pumice_rect,13,0,13,0,1
65e78c194623f14aa083ecaa,SCR,2024-06-10_15h07.50.817,LearnStrategy,2023.2.3,MacIntel,58.47953216,9,2,15,,,,,,,,4,09,,,,,,,,,,,,,2,2.122,0,,,,,,-0.073825277,-0.252090861,1,0,0,2.1221,Basalt_rect,14,0,14,0,1
65e78c194623f14aa083ecaa,SCR,2024-06-10_15h07.50.817,LearnStrategy,2023.2.3,MacIntel,58.47953216,9,2,16,,,,,,,,1,06,,,,,,,,,,,,,1,3.311,1,,,,,,-0.432357788,-0.25608785,1,0,0,3.3106,Andesite_rect,15,0,15,0,1
65e78c194623f14aa083ecaa,SCR,2024-06-10_15h07.50.817,LearnStrategy,2023.2.3,MacIntel,58.47953216,,,,,,,,,,,,,,,,,,,,,,,,,,,,,,,,,,,,,,,,,,,,
65e78c194623f14aa083ecaa,SCR,2024-06-10_15h07.50.817,LearnStrategy,2023.2.3,MacIntel,58.47953216,,,,,,,,,,,,,,,,,,,,,,,,,,,,,,,,,,,,,,,,,,,,
65e78c194623f14aa083ecaa,SCR,2024-06-10_15h07.50.817,LearnStrategy,2023.2.3,MacIntel,58.47953216,,,,,,,,,,,7,12,1,1,,,,,,,,,,,,,,,,,,,,,,,,,,,,,,
65e78c194623f14aa083ecaa,SCR,2024-06-10_15h07.50.817,LearnStrategy,2023.2.3,MacIntel,58.47953216,,,,,,,,,,,8,06,1,2,,,,,,,,,,,,,,,,,,,,,,,,,,,,,,
65e78c194623f14aa083ecaa,SCR,2024-06-10_15h07.50.817,LearnStrategy,2023.2.3,MacIntel,58.47953216,,,,,,,,,,,4,15,1,3,,,,,,,,,,,,,,,,,,,,,,,,,,,,,,
65e78c194623f14aa083ecaa,SCR,2024-06-10_15h07.50.817,LearnStrategy,2023.2.3,MacIntel,58.47953216,,,,,,,,,,,4,13,1,4,,,,,,,,,,,,,,,,,,,,,,,,,,,,,,
65e78c194623f14aa083ecaa,SCR,2024-06-10_15h07.50.817,LearnStrategy,2023.2.3,MacIntel,58.47953216,,,,,,,,,,,4,03,1,5,,,,,,,,,,,,,,,,,,,,,,,,,,,,,,
65e78c194623f14aa083ecaa,SCR,2024-06-10_15h07.50.817,LearnStrategy,2023.2.3,MacIntel,58.47953216,,,,,,,,,,,2,09,1,6,,,,,,,,,,,,,,,,,,,,,,,,,,,,,,
65e78c194623f14aa083ecaa,SCR,2024-06-10_15h07.50.817,LearnStrategy,2023.2.3,MacIntel,58.47953216,,,,,,,,,,,2,12,1,7,,,,,,,,,,,,,,,,,,,,,,,,,,,,,,
65e78c194623f14aa083ecaa,SCR,2024-06-10_15h07.50.817,LearnStrategy,2023.2.3,MacIntel,58.47953216,,,,,,,,,,,2,06,1,8,,,,,,,,,,,,,,,,,,,,,,,,,,,,,,
65e78c194623f14aa083ecaa,SCR,2024-06-10_15h07.50.817,LearnStrategy,2023.2.3,MacIntel,58.47953216,,,,,,,,,,,2,02,2,1,,,,,,,,,,,,,,,,,,,,,,,,,,,,,,
65e78c194623f14aa083ecaa,SCR,2024-06-10_15h07.50.817,LearnStrategy,2023.2.3,MacIntel,58.47953216,,,,,,,,,,,5,14,2,2,,,,,,,,,,,,,,,,,,,,,,,,,,,,,,
65e78c194623f14aa083ecaa,SCR,2024-06-10_15h07.50.817,LearnStrategy,2023.2.3,MacIntel,58.47953216,,,,,,,,,,,5,04,2,3,,,,,,,,,,,,,,,,,,,,,,,,,,,,,,
65e78c194623f14aa083ecaa,SCR,2024-06-10_15h07.50.817,LearnStrategy,2023.2.3,MacIntel,58.47953216,,,,,,,,,,,5,07,2,4,,,,,,,,,,,,,,,,,,,,,,,,,,,,,,
65e78c194623f14aa083ecaa,SCR,2024-06-10_15h07.50.817,LearnStrategy,2023.2.3,MacIntel,58.47953216,,,,,,,,,,,3,02,2,5,,,,,,,,,,,,,,,,,,,,,,,,,,,,,,
65e78c194623f14aa083ecaa,SCR,2024-06-10_15h07.50.817,LearnStrategy,2023.2.3,MacIntel,58.47953216,,,,,,,,,,,5,05,2,6,,,,,,,,,,,,,,,,,,,,,,,,,,,,,,
65e78c194623f14aa083ecaa,SCR,2024-06-10_15h07.50.817,LearnStrategy,2023.2.3,MacIntel,58.47953216,,,,,,,,,,,8,02,2,7,,,,,,,,,,,,,,,,,,,,,,,,,,,,,,
65e78c194623f14aa083ecaa,SCR,2024-06-10_15h07.50.817,LearnStrategy,2023.2.3,MacIntel,58.47953216,,,,,,,,,,,1,09,2,8,,,,,,,,,,,,,,,,,,,,,,,,,,,,,,
65e78c194623f14aa083ecaa,SCR,2024-06-10_15h07.50.817,LearnStrategy,2023.2.3,MacIntel,58.47953216,,,,,,,,,,,7,02,3,1,,,,,,,,,,,,,,,,,,,,,,,,,,,,,,
65e78c194623f14aa083ecaa,SCR,2024-06-10_15h07.50.817,LearnStrategy,2023.2.3,MacIntel,58.47953216,,,,,,,,,,,7,05,3,2,,,,,,,,,,,,,,,,,,,,,,,,,,,,,,
65e78c194623f14aa083ecaa,SCR,2024-06-10_15h07.50.817,LearnStrategy,2023.2.3,MacIntel,58.47953216,,,,,,,,,,,1,16,3,3,,,,,,,,,,,,,,,,,,,,,,,,,,,,,,
65e78c194623f14aa083ecaa,SCR,2024-06-10_15h07.50.817,LearnStrategy,2023.2.3,MacIntel,58.47953216,,,,,,,,,,,3,07,3,4,,,,,,,,,,,,,,,,,,,,,,,,,,,,,,
65e78c194623f14aa083ecaa,SCR,2024-06-10_15h07.50.817,LearnStrategy,2023.2.3,MacIntel,58.47953216,,,,,,,,,,,5,10,3,5,,,,,,,,,,,,,,,,,,,,,,,,,,,,,,
65e78c194623f14aa083ecaa,SCR,2024-06-10_15h07.50.817,LearnStrategy,2023.2.3,MacIntel,58.47953216,,,,,,,,,,,6,09,3,6,,,,,,,,,,,,,,,,,,,,,,,,,,,,,,
65e78c194623f14aa083ecaa,SCR,2024-06-10_15h07.50.817,LearnStrategy,2023.2.3,MacIntel,58.47953216,,,,,,,,,,,3,10,3,7,,,,,,,,,,,,,,,,,,,,,,,,,,,,,,
65e78c194623f14aa083ecaa,SCR,2024-06-10_15h07.50.817,LearnStrategy,2023.2.3,MacIntel,58.47953216,,,,,,,,,,,4,01,3,8,,,,,,,,,,,,,,,,,,,,,,,,,,,,,,
65e78c194623f14aa083ecaa,SCR,2024-06-10_15h07.50.817,LearnStrategy,2023.2.3,MacIntel,58.47953216,,,,,,,,,,,8,13,4,1,,,,,,,,,,,,,,,,,,,,,,,,,,,,,,
65e78c194623f14aa083ecaa,SCR,2024-06-10_15h07.50.817,LearnStrategy,2023.2.3,MacIntel,58.47953216,,,,,,,,,,,6,05,4,2,,,,,,,,,,,,,,,,,,,,,,,,,,,,,,
65e78c194623f14aa083ecaa,SCR,2024-06-10_15h07.50.817,LearnStrategy,2023.2.3,MacIntel,58.47953216,,,,,,,,,,,7,10,4,3,,,,,,,,,,,,,,,,,,,,,,,,,,,,,,
65e78c194623f14aa083ecaa,SCR,2024-06-10_15h07.50.817,LearnStrategy,2023.2.3,MacIntel,58.47953216,,,,,,,,,,,1,01,4,4,,,,,,,,,,,,,,,,,,,,,,,,,,,,,,
65e78c194623f14aa083ecaa,SCR,2024-06-10_15h07.50.817,LearnStrategy,2023.2.3,MacIntel,58.47953216,,,,,,,,,,,8,10,4,5,,,,,,,,,,,,,,,,,,,,,,,,,,,,,,
65e78c194623f14aa083ecaa,SCR,2024-06-10_15h07.50.817,LearnStrategy,2023.2.3,MacIntel,58.47953216,,,,,,,,,,,3,12,4,6,,,,,,,,,,,,,,,,,,,,,,,,,,,,,,
65e78c194623f14aa083ecaa,SCR,2024-06-10_15h07.50.817,LearnStrategy,2023.2.3,MacIntel,58.47953216,,,,,,,,,,,8,05,4,7,,,,,,,,,,,,,,,,,,,,,,,,,,,,,,
65e78c194623f14aa083ecaa,SCR,2024-06-10_15h07.50.817,LearnStrategy,2023.2.3,MacIntel,58.47953216,,,,,,,,,,,6,16,4,8,,,,,,,,,,,,,,,,,,,,,,,,,,,,,,
65e78c194623f14aa083ecaa,SCR,2024-06-10_15h07.50.817,LearnStrategy,2023.2.3,MacIntel,58.47953216,,,,,,,,,,,6,11,5,1,,,,,,,,,,,,,,,,,,,,,,,,,,,,,,
65e78c194623f14aa083ecaa,SCR,2024-06-10_15h07.50.817,LearnStrategy,2023.2.3,MacIntel,58.47953216,,,,,,,,,,,2,16,5,2,,,,,,,,,,,,,,,,,,,,,,,,,,,,,,
65e78c194623f14aa083ecaa,SCR,2024-06-10_15h07.50.817,LearnStrategy,2023.2.3,MacIntel,58.47953216,,,,,,,,,,,4,16,5,3,,,,,,,,,,,,,,,,,,,,,,,,,,,,,,
65e78c194623f14aa083ecaa,SCR,2024-06-10_15h07.50.817,LearnStrategy,2023.2.3,MacIntel,58.47953216,,,,,,,,,,,7,06,5,4,,,,,,,,,,,,,,,,,,,,,,,,,,,,,,
65e78c194623f14aa083ecaa,SCR,2024-06-10_15h07.50.817,LearnStrategy,2023.2.3,MacIntel,58.47953216,,,,,,,,,,,1,02,5,5,,,,,,,,,,,,,,,,,,,,,,,,,,,,,,
65e78c194623f14aa083ecaa,SCR,2024-06-10_15h07.50.817,LearnStrategy,2023.2.3,MacIntel,58.47953216,,,,,,,,,,,6,03,5,6,,,,,,,,,,,,,,,,,,,,,,,,,,,,,,
65e78c194623f14aa083ecaa,SCR,2024-06-10_15h07.50.817,LearnStrategy,2023.2.3,MacIntel,58.47953216,,,,,,,,,,,7,07,5,7,,,,,,,,,,,,,,,,,,,,,,,,,,,,,,
65e78c194623f14aa083ecaa,SCR,2024-06-10_15h07.50.817,LearnStrategy,2023.2.3,MacIntel,58.47953216,,,,,,,,,,,3,16,5,8,,,,,,,,,,,,,,,,,,,,,,,,,,,,,,
65e78c194623f14aa083ecaa,SCR,2024-06-10_15h07.50.817,LearnStrategy,2023.2.3,MacIntel,58.47953216,,,,,,,,,,,1,05,6,1,,,,,,,,,,,,,,,,,,,,,,,,,,,,,,
65e78c194623f14aa083ecaa,SCR,2024-06-10_15h07.50.817,LearnStrategy,2023.2.3,MacIntel,58.47953216,,,,,,,,,,,5,09,6,2,,,,,,,,,,,,,,,,,,,,,,,,,,,,,,
65e78c194623f14aa083ecaa,SCR,2024-06-10_15h07.50.817,LearnStrategy,2023.2.3,MacIntel,58.47953216,,,,,,,,,,,2,11,6,3,,,,,,,,,,,,,,,,,,,,,,,,,,,,,,
65e78c194623f14aa083ecaa,SCR,2024-06-10_15h07.50.817,LearnStrategy,2023.2.3,MacIntel,58.47953216,,,,,,,,,,,8,03,6,4,,,,,,,,,,,,,,,,,,,,,,,,,,,,,,
65e78c194623f14aa083ecaa,SCR,2024-06-10_15h07.50.817,LearnStrategy,2023.2.3,MacIntel,58.47953216,,,,,,,,,,,3,13,6,5,,,,,,,,,,,,,,,,,,,,,,,,,,,,,,
65e78c194623f14aa083ecaa,SCR,2024-06-10_15h07.50.817,LearnStrategy,2023.2.3,MacIntel,58.47953216,,,,,,,,,,,6,13,6,6,,,,,,,,,,,,,,,,,,,,,,,,,,,,,,
65e78c194623f14aa083ecaa,SCR,2024-06-10_15h07.50.817,LearnStrategy,2023.2.3,MacIntel,58.47953216,,,,,,,,,,,4,05,6,7,,,,,,,,,,,,,,,,,,,,,,,,,,,,,,
65e78c194623f14aa083ecaa,SCR,2024-06-10_15h07.50.817,LearnStrategy,2023.2.3,MacIntel,58.47953216,,,,,,,,,,,1,07,6,8,,,,,,,,,,,,,,,,,,,,,,,,,,,,,,