participant,condition,date,expName,psychopyVersion,OS,frameRate,block,phase,trial,learn_mouse_2.x,learn_mouse_2.y,learn_mouse_2.leftButton,learn_mouse_2.midButton,learn_mouse_2.rightButton,learn_mouse_2.time,learn_mouse_2.clicked_name,cat,token,row,col,t_select,cat_mouse_l.x,cat_mouse_l.y,cat_mouse_l.leftButton,cat_mouse_l.midButton,cat_mouse_l.rightButton,cat_mouse_l.time,cat_mouse_l.clicked_name,resp,t_resp,corr,train_trials.thisRepN,train_trials.thisTrialN,train_trials.thisN,train_trials.thisIndex,train_trials.ran,cat_mouse_t.x,cat_mouse_t.y,cat_mouse_t.leftButton,cat_mouse_t.midButton,cat_mouse_t.rightButton,cat_mouse_t.time,cat_mouse_t.clicked_name,test_trials.thisRepN,test_trials.thisTrialN,test_trials.thisN,test_trials.thisIndex,test_trials.ran,Bonus
65e8cf8f4c7424fa062e54a3,TCR,2024-06-25_12h46.26.766,LearnStrategy,2023.2.3,Win32,59.88023952,,,,,,,,,,,,,,,,,,,,,,,,,,,,,,,,,,,,,,,,,,,
65e8cf8f4c7424fa062e54a3,TCR,2024-06-25_12h46.26.766,LearnStrategy,2023.2.3,Win32,59.88023952,1,1,1,-0.002777735,-0.01203703,1,0,0,2.2918,rock_grid_rect_2,1,09,-1,-1,2.292,0.392592677,-0.387037065,1,0,0,4.4991,Pumice_rect,8,4.499,0,0,0,0,0,1,,,,,,,,,,,,,
65e8cf8f4c7424fa062e54a3,TCR,2024-06-25_12h46.26.766,LearnStrategy,2023.2.3,Win32,59.88023952,1,1,2,0.050000014,-0.001851859,1,0,0,1.4251,rock_grid_rect_2,3,14,-1,-1,1.425,-0.155555513,-0.420370384,1,0,0,3.8832,Pegmatite_rect,6,3.883,0,1,0,1,0,1,,,,,,,,,,,,,
65e8cf8f4c7424fa062e54a3,TCR,2024-06-25_12h46.26.766,LearnStrategy,2023.2.3,Win32,59.88023952,1,1,3,0.038888931,-0.000925947,1,0,0,1.3161,rock_grid_rect_2,2,04,-1,-1,1.316,-0.386111118,-0.421296296,1,0,0,4.174,Obsidian_rect,5,4.174,0,2,0,2,0,1,,,,,,,,,,,,,
65e8cf8f4c7424fa062e54a3,TCR,2024-06-25_12h46.26.766,LearnStrategy,2023.2.3,Win32,59.88023952,1,1,4,-0.021296254,0.000925912,1,0,0,1.2289,rock_grid_rect_2,6,08,-1,-1,1.229,0.137037065,-0.249074088,1,0,0,4.2662,Diorite_rect,3,4.266,0,3,0,3,0,1,,,,,,,,,,,,,
65e8cf8f4c7424fa062e54a3,TCR,2024-06-25_12h46.26.766,LearnStrategy,2023.2.3,Win32,59.88023952,1,1,5,-0.038888861,0.006481489,1,0,0,207.1115,rock_grid_rect_2,3,02,-1,-1,207.111,-0.326851845,-0.40370369,1,0,0,3.5939,Obsidian_rect,5,3.594,0,4,0,4,0,1,,,,,,,,,,,,,
65e8cf8f4c7424fa062e54a3,TCR,2024-06-25_12h46.26.766,LearnStrategy,2023.2.3,Win32,59.88023952,1,1,6,0.050000014,0.002777771,1,0,0,1.4253,rock_grid_rect_2,4,01,-1,-1,1.425,-0.075925898,-0.243518547,1,0,0,3.916,Basalt_rect,2,3.916,0,5,0,5,0,1,,,,,,,,,,,,,
65e8cf8f4c7424fa062e54a3,TCR,2024-06-25_12h46.26.766,LearnStrategy,2023.2.3,Win32,59.88023952,1,1,7,0.101851852,-0.008333347,1,0,0,1.3835,rock_grid_rect_2,1,01,-1,-1,1.384,0.154629672,-0.267592607,1,0,0,2.8484,Diorite_rect,3,2.848,0,6,0,6,0,1,,,,,,,,,,,,,
65e8cf8f4c7424fa062e54a3,TCR,2024-06-25_12h46.26.766,LearnStrategy,2023.2.3,Win32,59.88023952,1,1,8,0.062037079,-0.000925947,1,0,0,1.8422,rock_grid_rect_2,7,05,-1,-1,1.842,0.095370399,-0.40370369,1,0,0,7.937,Peridotite_rect,7,7.937,1,7,0,7,0,1,,,,,,,,,,,,,
65e8cf8f4c7424fa062e54a3,TCR,2024-06-25_12h46.26.766,LearnStrategy,2023.2.3,Win32,59.88023952,1,1,9,0.041666667,0.003703683,1,0,0,1.2794,rock_grid_rect_2,2,06,-1,-1,1.279,-0.079629616,-0.257407436,1,0,0,4.5238,Basalt_rect,2,4.524,1,8,0,8,0,1,,,,,,,,,,,,,
65e8cf8f4c7424fa062e54a3,TCR,2024-06-25_12h46.26.766,LearnStrategy,2023.2.3,Win32,59.88023952,1,1,10,0.050000014,-0.001851859,1,0,0,1.4104,rock_grid_rect_2,6,16,-1,-1,1.41,-0.125,-0.416666667,1,0,0,4.5351,Pegmatite_rect,6,4.535,1,9,0,9,0,1,,,,,,,,,,,,,
65e8cf8f4c7424fa062e54a3,TCR,2024-06-25_12h46.26.766,LearnStrategy,2023.2.3,Win32,59.88023952,1,1,11,0.037962949,-0.00462963,1,0,0,1.0588,rock_grid_rect_2,4,05,-1,-1,1.059,0.409259231,-0.252777806,1,0,0,3.5063,Gabbro_rect,4,3.506,1,10,0,10,0,1,,,,,,,,,,,,,
65e8cf8f4c7424fa062e54a3,TCR,2024-06-25_12h46.26.766,LearnStrategy,2023.2.3,Win32,59.88023952,1,1,12,0.02407406,0.011111118,1,0,0,1.7426,rock_grid_rect_2,7,06,-1,-1,1.743,0.377777806,-0.239814829,1,0,0,4.9428,Gabbro_rect,4,4.943,0,11,0,11,0,1,,,,,,,,,,,,,
65e8cf8f4c7424fa062e54a3,TCR,2024-06-25_12h46.26.766,LearnStrategy,2023.2.3,Win32,59.88023952,1,1,13,0.05277782,0.017592571,1,0,0,26.486,rock_grid_rect_2,5,14,-1,-1,26.486,-0.450925933,-0.39444443,1,0,0,4.7824,Obsidian_rect,5,4.782,1,12,0,12,0,1,,,,,,,,,,,,,
65e8cf8f4c7424fa062e54a3,TCR,2024-06-25_12h46.26.766,LearnStrategy,2023.2.3,Win32,59.88023952,1,1,14,0.137037065,-0.008333347,1,0,0,1.3422,rock_grid_rect_2,8,02,-1,-1,1.342,0.410185213,-0.419444473,1,0,0,2.0398,Pumice_rect,8,2.04,1,13,0,13,0,1,,,,,,,,,,,,,
65e8cf8f4c7424fa062e54a3,TCR,2024-06-25_12h46.26.766,LearnStrategy,2023.2.3,Win32,59.88023952,1,1,15,0.012037065,-0.018518519,1,0,0,1.2785,rock_grid_rect_2,8,04,-1,-1,1.279,0.431481538,-0.407407407,1,0,0,1.8233,Pumice_rect,8,1.823,1,14,0,14,0,1,,,,,,,,,,,,,
65e8cf8f4c7424fa062e54a3,TCR,2024-06-25_12h46.26.766,LearnStrategy,2023.2.3,Win32,59.88023952,1,1,16,0.05740745,-0.014814836,1,0,0,4.9469,rock_grid_rect_2,5,05,-1,-1,4.947,-0.334259245,-0.410185213,1,0,0,3.4105,Obsidian_rect,5,3.411,1,15,0,15,0,1,,,,,,,,,,,,,
65e8cf8f4c7424fa062e54a3,TCR,2024-06-25_12h46.26.766,LearnStrategy,2023.2.3,Win32,59.88023952,1,2,1,,,,,,,,3,08,,,,,,,,,,,6,5.232,0,,,,,,-0.094444416,-0.387962977,1,0,0,5.2316,Pegmatite_rect,0,0,0,0,1,
65e8cf8f4c7424fa062e54a3,TCR,2024-06-25_12h46.26.766,LearnStrategy,2023.2.3,Win32,59.88023952,1,2,2,,,,,,,,1,06,,,,,,,,,,,4,7.428,0,,,,,,0.455555527,-0.255555541,1,0,0,7.4283,Gabbro_rect,1,0,1,0,1,
65e8cf8f4c7424fa062e54a3,TCR,2024-06-25_12h46.26.766,LearnStrategy,2023.2.3,Win32,59.88023952,1,2,3,,,,,,,,8,10,,,,,,,,,,,8,1.615,1,,,,,,0.373148176,-0.396296325,1,0,0,1.615,Pumice_rect,2,0,2,0,1,
65e8cf8f4c7424fa062e54a3,TCR,2024-06-25_12h46.26.766,LearnStrategy,2023.2.3,Win32,59.88023952,1,2,4,,,,,,,,3,09,,,,,,,,,,,6,3.508,0,,,,,,-0.128703718,-0.39907406,1,0,0,3.5083,Pegmatite_rect,3,0,3,0,1,
65e8cf8f4c7424fa062e54a3,TCR,2024-06-25_12h46.26.766,LearnStrategy,2023.2.3,Win32,59.88023952,1,2,5,,,,,,,,6,11,,,,,,,,,,,4,5.51,0,,,,,,0.455555527,-0.242592635,1,0,0,5.5096,Gabbro_rect,4,0,4,0,1,
65e8cf8f4c7424fa062e54a3,TCR,2024-06-25_12h46.26.766,LearnStrategy,2023.2.3,Win32,59.88023952,1,2,6,,,,,,,,4,09,,,,,,,,,,,5,6.963,0,,,,,,-0.38703703,-0.401851866,1,0,0,6.9631,Obsidian_rect,5,0,5,0,1,
65e8cf8f4c7424fa062e54a3,TCR,2024-06-25_12h46.26.766,LearnStrategy,2023.2.3,Win32,59.88023952,1,2,7,,,,,,,,4,11,,,,,,,,,,,2,4.168,0,,,,,,-0.138888889,-0.263888889,1,0,0,4.1683,Basalt_rect,6,0,6,0,1,
65e8cf8f4c7424fa062e54a3,TCR,2024-06-25_12h46.26.766,LearnStrategy,2023.2.3,Win32,59.88023952,1,2,8,,,,,,,,5,12,,,,,,,,,,,5,1.343,1,,,,,,-0.373148141,-0.419444473,1,0,0,1.3425,Obsidian_rect,7,0,7,0,1,
65e8cf8f4c7424fa062e54a3,TCR,2024-06-25_12h46.26.766,LearnStrategy,2023.2.3,Win32,59.88023952,1,2,9,,,,,,,,2,09,,,,,,,,,,,1,3.717,0,,,,,,-0.405555548,-0.248148176,1,0,0,3.7172,Andesite_rect,8,0,8,0,1,
65e8cf8f4c7424fa062e54a3,TCR,2024-06-25_12h46.26.766,LearnStrategy,2023.2.3,Win32,59.88023952,1,2,10,,,,,,,,5,10,,,,,,,,,,,5,1.356,1,,,,,,-0.343518504,-0.393518519,1,0,0,1.3558,Obsidian_rect,9,0,9,0,1,
65e8cf8f4c7424fa062e54a3,TCR,2024-06-25_12h46.26.766,LearnStrategy,2023.2.3,Win32,59.88023952,1,2,11,,,,,,,,1,05,,,,,,,,,,,4,2.832,0,,,,,,0.337962963,-0.240740741,1,0,0,2.8323,Gabbro_rect,10,0,10,0,1,
65e8cf8f4c7424fa062e54a3,TCR,2024-06-25_12h46.26.766,LearnStrategy,2023.2.3,Win32,59.88023952,1,2,12,,,,,,,,7,08,,,,,,,,,,,3,3.458,0,,,,,,0.186111097,-0.264814801,1,0,0,3.4582,Diorite_rect,11,0,11,0,1,
65e8cf8f4c7424fa062e54a3,TCR,2024-06-25_12h46.26.766,LearnStrategy,2023.2.3,Win32,59.88023952,1,2,13,,,,,,,,8,13,,,,,,,,,,,8,1.533,1,,,,,,0.443518603,-0.409259302,1,0,0,1.5329,Pumice_rect,12,0,12,0,1,
65e8cf8f4c7424fa062e54a3,TCR,2024-06-25_12h46.26.766,LearnStrategy,2023.2.3,Win32,59.88023952,1,2,14,,,,,,,,6,07,,,,,,,,,,,6,3.448,1,,,,,,-0.087037051,-0.409259302,1,0,0,3.4484,Pegmatite_rect,13,0,13,0,1,
65e8cf8f4c7424fa062e54a3,TCR,2024-06-25_12h46.26.766,LearnStrategy,2023.2.3,Win32,59.88023952,1,2,15,,,,,,,,2,10,,,,,,,,,,,7,4.148,0,,,,,,0.065740727,-0.410185213,1,0,0,4.1482,Peridotite_rect,14,0,14,0,1,
65e8cf8f4c7424fa062e54a3,TCR,2024-06-25_12h46.26.766,LearnStrategy,2023.2.3,Win32,59.88023952,1,2,16,,,,,,,,7,14,,,,,,,,,,,7,1.628,1,,,,,,0.102777764,-0.402777778,1,0,0,1.6277,Peridotite_rect,15,0,15,0,1,
65e8cf8f4c7424fa062e54a3,TCR,2024-06-25_12h46.26.766,LearnStrategy,2023.2.3,Win32,59.88023952,2,1,1,0.083333333,0.005555541,1,0,0,1.928,rock_grid_rect_2,7,13,-1,-1,1.928,0.358333305,-0.238888917,1,0,0,11.4091,Gabbro_rect,4,11.409,0,0,0,0,0,1,,,,,,,,,,,,,
65e8cf8f4c7424fa062e54a3,TCR,2024-06-25_12h46.26.766,LearnStrategy,2023.2.3,Win32,59.88023952,2,1,2,0.016666695,-0.001851859,1,0,0,1.8579,rock_grid_rect_2,2,06,-1,-1,1.858,-0.386111118,-0.262037065,1,0,0,1.795,Andesite_rect,1,1.795,0,1,0,1,0,1,,,,,,,,,,,,,
65e8cf8f4c7424fa062e54a3,TCR,2024-06-25_12h46.26.766,LearnStrategy,2023.2.3,Win32,59.88023952,2,1,3,0.10555557,-0.011111118,1,0,0,1.8758,rock_grid_rect_2,6,16,-1,-1,1.876,-0.109259217,-0.39907406,1,0,0,2.0426,Pegmatite_rect,6,2.043,1,2,0,2,0,1,,,,,,,,,,,,,
65e8cf8f4c7424fa062e54a3,TCR,2024-06-25_12h46.26.766,LearnStrategy,2023.2.3,Win32,59.88023952,2,1,4,0.112037023,-0.006481489,1,0,0,8.9496,rock_grid_rect_2,4,05,-1,-1,8.95,0.383333418,-0.246296282,1,0,0,8.777,Gabbro_rect,4,8.777,1,3,0,3,0,1,,,,,,,,,,,,,
65e8cf8f4c7424fa062e54a3,TCR,2024-06-25_12h46.26.766,LearnStrategy,2023.2.3,Win32,59.88023952,2,1,5,0.032407407,0.00462963,1,0,0,4.6144,rock_grid_rect_2,1,09,-1,-1,4.614,0.135185171,-0.24537037,1,0,0,3.1653,Diorite_rect,3,3.165,0,4,0,4,0,1,,,,,,,,,,,,,
65e8cf8f4c7424fa062e54a3,TCR,2024-06-25_12h46.26.766,LearnStrategy,2023.2.3,Win32,59.88023952,2,1,6,-0.062037009,-0.000925947,1,0,0,10.807,rock_grid_rect_2,2,11,-1,-1,10.807,0.404629601,-0.390740783,1,0,0,2.6955,Pumice_rect,8,2.696,0,5,0,5,0,1,,,,,,,,,,,,,
65e8cf8f4c7424fa062e54a3,TCR,2024-06-25_12h46.26.766,LearnStrategy,2023.2.3,Win32,59.88023952,2,1,7,0.067592621,0.012962942,1,0,0,1.6772,rock_grid_rect_2,6,08,-1,-1,1.677,0.376851824,-0.246296282,1,0,0,4.8677,Gabbro_rect,4,4.868,0,6,0,6,0,1,,,,,,,,,,,,,
65e8cf8f4c7424fa062e54a3,TCR,2024-06-25_12h46.26.766,LearnStrategy,2023.2.3,Win32,59.88023952,2,1,8,0.000925912,0.005555541,1,0,0,1.7397,rock_grid_rect_2,4,05,-1,-1,1.74,0.482407464,-0.253703718,1,0,0,3.0332,Gabbro_rect,4,3.033,1,7,0,7,0,1,,,,,,,,,,,,,
65e8cf8f4c7424fa062e54a3,TCR,2024-06-25_12h46.26.766,LearnStrategy,2023.2.3,Win32,59.88023952,2,1,9,-0.099999958,0.018518519,1,0,0,12.2928,rock_grid_rect_2,2,14,-1,-1,12.293,0.139814801,-0.239814829,1,0,0,8.4498,Diorite_rect,3,8.45,0,8,0,8,0,1,,,,,,,,,,,,,
65e8cf8f4c7424fa062e54a3,TCR,2024-06-25_12h46.26.766,LearnStrategy,2023.2.3,Win32,59.88023952,2,1,10,0.005555541,0.015740748,1,0,0,1.0459,rock_grid_rect_2,7,16,-1,-1,1.046,0.145370413,-0.248148176,1,0,0,2.9255,Diorite_rect,3,2.925,0,9,0,9,0,1,,,,,,,,,,,,,
65e8cf8f4c7424fa062e54a3,TCR,2024-06-25_12h46.26.766,LearnStrategy,2023.2.3,Win32,59.88023952,2,1,11,0.036111125,0.021296289,1,0,0,1.0212,rock_grid_rect_2,3,13,-1,-1,1.021,-0.12037037,-0.418518561,1,0,0,1.7792,Pegmatite_rect,6,1.779,0,10,0,10,0,1,,,,,,,,,,,,,
65e8cf8f4c7424fa062e54a3,TCR,2024-06-25_12h46.26.766,LearnStrategy,2023.2.3,Win32,59.88023952,2,1,12,0.085185228,-0.018518519,1,0,0,1.3557,rock_grid_rect_2,3,11,-1,-1,1.356,0.119444459,-0.246296282,1,0,0,1.4066,Diorite_rect,3,1.407,1,11,0,11,0,1,,,,,,,,,,,,,
65e8cf8f4c7424fa062e54a3,TCR,2024-06-25_12h46.26.766,LearnStrategy,2023.2.3,Win32,59.88023952,2,1,13,-0.071296268,0.000925912,1,0,0,10.3479,rock_grid_rect_2,4,08,-1,-1,10.348,-0.346296275,-0.24537037,1,0,0,2.704,Andesite_rect,1,2.704,0,12,0,12,0,1,,,,,,,,,,,,,
65e8cf8f4c7424fa062e54a3,TCR,2024-06-25_12h46.26.766,LearnStrategy,2023.2.3,Win32,59.88023952,2,1,14,0.089814857,0.011111118,1,0,0,5.0418,rock_grid_rect_2,1,09,-1,-1,5.042,-0.397222201,-0.241666653,1,0,0,2.9628,Andesite_rect,1,2.963,1,13,0,13,0,1,,,,,,,,,,,,,
65e8cf8f4c7424fa062e54a3,TCR,2024-06-25_12h46.26.766,LearnStrategy,2023.2.3,Win32,59.88023952,2,1,15,0.047222208,0.011111118,1,0,0,1.2164,rock_grid_rect_2,1,16,-1,-1,1.216,0.37037037,-0.248148176,1,0,0,3.4635,Gabbro_rect,4,3.463,0,14,0,14,0,1,,,,,,,,,,,,,
65e8cf8f4c7424fa062e54a3,TCR,2024-06-25_12h46.26.766,LearnStrategy,2023.2.3,Win32,59.88023952,2,1,16,0.071296339,-0.0074074,1,0,0,9.005,rock_grid_rect_2,3,02,-1,-1,9.005,0.113888917,-0.257407436,1,0,0,1.7838,Diorite_rect,3,1.784,1,15,0,15,0,1,,,,,,,,,,,,,
65e8cf8f4c7424fa062e54a3,TCR,2024-06-25_12h46.26.766,LearnStrategy,2023.2.3,Win32,59.88023952,2,2,1,,,,,,,,4,16,,,,,,,,,,,2,4.898,0,,,,,,-0.187037009,-0.239814829,1,0,0,4.8983,Basalt_rect,0,0,0,0,1,
65e8cf8f4c7424fa062e54a3,TCR,2024-06-25_12h46.26.766,LearnStrategy,2023.2.3,Win32,59.88023952,2,2,2,,,,,,,,6,05,,,,,,,,,,,6,3.101,1,,,,,,-0.083333333,-0.404629672,1,0,0,3.1012,Pegmatite_rect,1,0,1,0,1,
65e8cf8f4c7424fa062e54a3,TCR,2024-06-25_12h46.26.766,LearnStrategy,2023.2.3,Win32,59.88023952,2,2,3,,,,,,,,5,11,,,,,,,,,,,5,1.381,1,,,,,,-0.330555563,-0.393518519,1,0,0,1.3807,Obsidian_rect,2,0,2,0,1,
65e8cf8f4c7424fa062e54a3,TCR,2024-06-25_12h46.26.766,LearnStrategy,2023.2.3,Win32,59.88023952,2,2,4,,,,,,,,4,15,,,,,,,,,,,4,4.39,1,,,,,,0.453703704,-0.242592635,1,0,0,4.3896,Gabbro_rect,3,0,3,0,1,
65e8cf8f4c7424fa062e54a3,TCR,2024-06-25_12h46.26.766,LearnStrategy,2023.2.3,Win32,59.88023952,2,2,5,,,,,,,,1,10,,,,,,,,,,,1,3.188,1,,,,,,-0.348148134,-0.258333347,1,0,0,3.1875,Andesite_rect,4,0,4,0,1,
65e8cf8f4c7424fa062e54a3,TCR,2024-06-25_12h46.26.766,LearnStrategy,2023.2.3,Win32,59.88023952,2,2,6,,,,,,,,5,16,,,,,,,,,,,5,0.988,1,,,,,,-0.354629623,-0.412037037,1,0,0,0.9882,Obsidian_rect,5,0,5,0,1,
65e8cf8f4c7424fa062e54a3,TCR,2024-06-25_12h46.26.766,LearnStrategy,2023.2.3,Win32,59.88023952,2,2,7,,,,,,,,7,04,,,,,,,,,,,7,4.509,1,,,,,,0.056481467,-0.408333319,1,0,0,4.5094,Peridotite_rect,6,0,6,0,1,
65e8cf8f4c7424fa062e54a3,TCR,2024-06-25_12h46.26.766,LearnStrategy,2023.2.3,Win32,59.88023952,2,2,8,,,,,,,,1,02,,,,,,,,,,,7,3.357,0,,,,,,0.07685188,-0.413888931,1,0,0,3.3572,Peridotite_rect,7,0,7,0,1,
65e8cf8f4c7424fa062e54a3,TCR,2024-06-25_12h46.26.766,LearnStrategy,2023.2.3,Win32,59.88023952,2,2,9,,,,,,,,7,12,,,,,,,,,,,3,2.891,0,,,,,,0.125,-0.244444459,1,0,0,2.8908,Diorite_rect,8,0,8,0,1,
65e8cf8f4c7424fa062e54a3,TCR,2024-06-25_12h46.26.766,LearnStrategy,2023.2.3,Win32,59.88023952,2,2,10,,,,,,,,2,02,,,,,,,,,,,2,4.889,1,,,,,,-0.184259273,-0.242592635,1,0,0,4.8887,Basalt_rect,9,0,9,0,1,
65e8cf8f4c7424fa062e54a3,TCR,2024-06-25_12h46.26.766,LearnStrategy,2023.2.3,Win32,59.88023952,2,2,11,,,,,,,,8,16,,,,,,,,,,,7,7.159,0,,,,,,0.172222208,-0.408333319,1,0,0,7.159,Peridotite_rect,10,0,10,0,1,
65e8cf8f4c7424fa062e54a3,TCR,2024-06-25_12h46.26.766,LearnStrategy,2023.2.3,Win32,59.88023952,2,2,12,,,,,,,,3,10,,,,,,,,,,,3,1.424,1,,,,,,0.118518547,-0.248148176,1,0,0,1.4239,Diorite_rect,11,0,11,0,1,
65e8cf8f4c7424fa062e54a3,TCR,2024-06-25_12h46.26.766,LearnStrategy,2023.2.3,Win32,59.88023952,2,2,13,,,,,,,,2,12,,,,,,,,,,,3,2.965,0,,,,,,0.181481467,-0.243518547,1,0,0,2.9645,Diorite_rect,12,0,12,0,1,
65e8cf8f4c7424fa062e54a3,TCR,2024-06-25_12h46.26.766,LearnStrategy,2023.2.3,Win32,59.88023952,2,2,14,,,,,,,,8,03,,,,,,,,,,,8,1.238,1,,,,,,0.400925954,-0.400925954,1,0,0,1.2377,Pumice_rect,13,0,13,0,1,
65e8cf8f4c7424fa062e54a3,TCR,2024-06-25_12h46.26.766,LearnStrategy,2023.2.3,Win32,59.88023952,2,2,15,,,,,,,,3,16,,,,,,,,,,,3,1.935,1,,,,,,0.135185171,-0.26944443,1,0,0,1.935,Diorite_rect,14,0,14,0,1,
65e8cf8f4c7424fa062e54a3,TCR,2024-06-25_12h46.26.766,LearnStrategy,2023.2.3,Win32,59.88023952,2,2,16,,,,,,,,6,09,,,,,,,,,,,6,3.168,1,,,,,,-0.108333305,-0.395370413,1,0,0,3.1677,Pegmatite_rect,15,0,15,0,1,
65e8cf8f4c7424fa062e54a3,TCR,2024-06-25_12h46.26.766,LearnStrategy,2023.2.3,Win32,59.88023952,3,1,1,0.122222265,0.018518519,1,0,0,1.3945,rock_grid_rect_2,1,11,-1,-1,1.394,0.163888931,-0.39907406,1,0,0,12.5541,Peridotite_rect,7,12.554,0,0,0,0,0,1,,,,,,,,,,,,,
65e8cf8f4c7424fa062e54a3,TCR,2024-06-25_12h46.26.766,LearnStrategy,2023.2.3,Win32,59.88023952,3,1,2,0.067592621,-0.001851859,1,0,0,1.3013,rock_grid_rect_2,3,15,-1,-1,1.301,0.063888903,-0.248148176,1,0,0,3.23,Diorite_rect,3,3.23,1,1,0,1,0,1,,,,,,,,,,,,,
65e8cf8f4c7424fa062e54a3,TCR,2024-06-25_12h46.26.766,LearnStrategy,2023.2.3,Win32,59.88023952,3,1,3,0.022222236,-0.00462963,1,0,0,1.041,rock_grid_rect_2,4,08,-1,-1,1.041,-0.324074074,-0.248148176,1,0,0,3.8899,Andesite_rect,1,3.89,0,2,0,2,0,1,,,,,,,,,,,,,
65e8cf8f4c7424fa062e54a3,TCR,2024-06-25_12h46.26.766,LearnStrategy,2023.2.3,Win32,59.88023952,3,1,4,0.041666667,-0.008333347,1,0,0,1.2746,rock_grid_rect_2,3,15,-1,-1,1.275,0.159259302,-0.249074088,1,0,0,1.3395,Diorite_rect,3,1.34,1,3,0,3,0,1,,,,,,,,,,,,,
65e8cf8f4c7424fa062e54a3,TCR,2024-06-25_12h46.26.766,LearnStrategy,2023.2.3,Win32,59.88023952,3,1,5,0.103703746,-0.000925947,1,0,0,2.6574,rock_grid_rect_2,4,05,-1,-1,2.657,0.464814787,-0.241666653,1,0,0,7.5022,Gabbro_rect,4,7.502,1,4,0,4,0,1,,,,,,,,,,,,,
65e8cf8f4c7424fa062e54a3,TCR,2024-06-25_12h46.26.766,LearnStrategy,2023.2.3,Win32,59.88023952,3,1,6,0.078703704,0.014814801,1,0,0,1.726,rock_grid_rect_2,1,03,-1,-1,1.726,-0.424074067,-0.246296282,1,0,0,10.5673,Andesite_rect,1,10.567,1,5,0,5,0,1,,,,,,,,,,,,,
65e8cf8f4c7424fa062e54a3,TCR,2024-06-25_12h46.26.766,LearnStrategy,2023.2.3,Win32,59.88023952,3,1,7,0.097222222,0.001851859,1,0,0,1.0073,rock_grid_rect_2,7,15,-1,-1,1.007,0.374074159,-0.252777806,1,0,0,1.6345,Gabbro_rect,4,1.635,0,6,0,6,0,1,,,,,,,,,,,,,
65e8cf8f4c7424fa062e54a3,TCR,2024-06-25_12h46.26.766,LearnStrategy,2023.2.3,Win32,59.88023952,3,1,8,0.031481496,0.003703683,1,0,0,0.8627,rock_grid_rect_2,4,10,-1,-1,0.863,0.142592607,-0.234259288,1,0,0,3.2197,Diorite_rect,3,3.22,0,7,0,7,0,1,,,,,,,,,,,,,
65e8cf8f4c7424fa062e54a3,TCR,2024-06-25_12h46.26.766,LearnStrategy,2023.2.3,Win32,59.88023952,3,1,9,0.113888917,-0.015740748,1,0,0,1.0105,rock_grid_rect_2,2,06,-1,-1,1.01,-0.16851849,-0.261111153,1,0,0,2.4677,Basalt_rect,2,2.468,1,8,0,8,0,1,,,,,,,,,,,,,
65e8cf8f4c7424fa062e54a3,TCR,2024-06-25_12h46.26.766,LearnStrategy,2023.2.3,Win32,59.88023952,3,1,10,0.064814815,-0.010185206,1,0,0,1.2588,rock_grid_rect_2,2,11,-1,-1,1.259,0.339814787,-0.253703718,1,0,0,3.2583,Gabbro_rect,4,3.258,0,9,0,9,0,1,,,,,,,,,,,,,
65e8cf8f4c7424fa062e54a3,TCR,2024-06-25_12h46.26.766,LearnStrategy,2023.2.3,Win32,59.88023952,3,1,11,0.161111125,-0.01203703,1,0,0,1.1976,rock_grid_rect_2,8,04,-1,-1,1.198,0.382407436,-0.411111125,1,0,0,1.5351,Pumice_rect,8,1.535,1,10,0,10,0,1,,,,,,,,,,,,,
65e8cf8f4c7424fa062e54a3,TCR,2024-06-25_12h46.26.766,LearnStrategy,2023.2.3,Win32,59.88023952,3,1,12,-0.047222208,0.001851859,1,0,0,1.0319,rock_grid_rect_2,2,01,-1,-1,1.032,-0.070370356,-0.243518547,1,0,0,1.2957,Basalt_rect,2,1.296,1,11,0,11,0,1,,,,,,,,,,,,,
65e8cf8f4c7424fa062e54a3,TCR,2024-06-25_12h46.26.766,LearnStrategy,2023.2.3,Win32,59.88023952,3,1,13,0.12962963,0.006481489,1,0,0,0.8766,rock_grid_rect_2,6,13,-1,-1,0.877,-0.135185171,-0.408333319,1,0,0,4.0524,Pegmatite_rect,6,4.052,1,12,0,12,0,1,,,,,,,,,,,,,
65e8cf8f4c7424fa062e54a3,TCR,2024-06-25_12h46.26.766,LearnStrategy,2023.2.3,Win32,59.88023952,3,1,14,0.117592635,0,1,0,0,1.4177,rock_grid_rect_2,7,05,-1,-1,1.418,0.375925982,-0.257407436,1,0,0,1.5987,Gabbro_rect,4,1.599,0,13,0,13,0,1,,,,,,,,,,,,,
65e8cf8f4c7424fa062e54a3,TCR,2024-06-25_12h46.26.766,LearnStrategy,2023.2.3,Win32,59.88023952,3,1,15,0.119444459,0.012962942,1,0,0,11.1736,rock_grid_rect_2,5,04,-1,-1,11.174,-0.328703704,-0.39907406,1,0,0,1.1818,Obsidian_rect,5,1.182,1,14,0,14,0,1,,,,,,,,,,,,,
65e8cf8f4c7424fa062e54a3,TCR,2024-06-25_12h46.26.766,LearnStrategy,2023.2.3,Win32,59.88023952,3,1,16,0.074999986,-0.015740748,1,0,0,0.9396,rock_grid_rect_2,1,01,-1,-1,0.94,-0.378703683,-0.240740741,1,0,0,3.938,Andesite_rect,1,3.938,1,15,0,15,0,1,,,,,,,,,,,,,
65e8cf8f4c7424fa062e54a3,TCR,2024-06-25_12h46.26.766,LearnStrategy,2023.2.3,Win32,59.88023952,3,2,1,,,,,,,,8,05,,,,,,,,,,,8,1.231,1,,,,,,0.416666667,-0.397222236,1,0,0,1.2311,Pumice_rect,0,0,0,0,1,
65e8cf8f4c7424fa062e54a3,TCR,2024-06-25_12h46.26.766,LearnStrategy,2023.2.3,Win32,59.88023952,3,2,2,,,,,,,,4,13,,,,,,,,,,,7,4.453,0,,,,,,0.169444473,-0.415740755,1,0,0,4.4528,Peridotite_rect,1,0,1,0,1,
65e8cf8f4c7424fa062e54a3,TCR,2024-06-25_12h46.26.766,LearnStrategy,2023.2.3,Win32,59.88023952,3,2,3,,,,,,,,1,07,,,,,,,,,,,4,3.72,0,,,,,,0.374074159,-0.244444459,1,0,0,3.7203,Gabbro_rect,2,0,2,0,1,
65e8cf8f4c7424fa062e54a3,TCR,2024-06-25_12h46.26.766,LearnStrategy,2023.2.3,Win32,59.88023952,3,2,4,,,,,,,,3,12,,,,,,,,,,,3,3.351,1,,,,,,0.086111139,-0.259259259,1,0,0,3.351,Diorite_rect,3,0,3,0,1,
65e8cf8f4c7424fa062e54a3,TCR,2024-06-25_12h46.26.766,LearnStrategy,2023.2.3,Win32,59.88023952,3,2,5,,,,,,,,2,05,,,,,,,,,,,2,1.703,1,,,,,,-0.167592578,-0.240740741,1,0,0,1.7034,Basalt_rect,4,0,4,0,1,
65e8cf8f4c7424fa062e54a3,TCR,2024-06-25_12h46.26.766,LearnStrategy,2023.2.3,Win32,59.88023952,3,2,6,,,,,,,,3,07,,,,,,,,,,,3,2.455,1,,,,,,0.132407436,-0.263888889,1,0,0,2.4553,Diorite_rect,5,0,5,0,1,
65e8cf8f4c7424fa062e54a3,TCR,2024-06-25_12h46.26.766,LearnStrategy,2023.2.3,Win32,59.88023952,3,2,7,,,,,,,,5,02,,,,,,,,,,,5,1.202,1,,,,,,-0.3824074,-0.386111153,1,0,0,1.2024,Obsidian_rect,6,0,6,0,1,
65e8cf8f4c7424fa062e54a3,TCR,2024-06-25_12h46.26.766,LearnStrategy,2023.2.3,Win32,59.88023952,3,2,8,,,,,,,,2,16,,,,,,,,,,,2,3.172,1,,,,,,-0.112037023,-0.246296282,1,0,0,3.1716,Basalt_rect,7,0,7,0,1,
65e8cf8f4c7424fa062e54a3,TCR,2024-06-25_12h46.26.766,LearnStrategy,2023.2.3,Win32,59.88023952,3,2,9,,,,,,,,6,03,,,,,,,,,,,7,2.703,0,,,,,,0.164814843,-0.418518561,1,0,0,2.7028,Peridotite_rect,8,0,8,0,1,
65e8cf8f4c7424fa062e54a3,TCR,2024-06-25_12h46.26.766,LearnStrategy,2023.2.3,Win32,59.88023952,3,2,10,,,,,,,,8,08,,,,,,,,,,,8,1.404,1,,,,,,0.363888917,-0.389814801,1,0,0,1.4036,Pumice_rect,9,0,9,0,1,
65e8cf8f4c7424fa062e54a3,TCR,2024-06-25_12h46.26.766,LearnStrategy,2023.2.3,Win32,59.88023952,3,2,11,,,,,,,,7,10,,,,,,,,,,,4,4.021,0,,,,,,0.359259288,-0.247222265,1,0,0,4.0206,Gabbro_rect,10,0,10,0,1,
65e8cf8f4c7424fa062e54a3,TCR,2024-06-25_12h46.26.766,LearnStrategy,2023.2.3,Win32,59.88023952,3,2,12,,,,,,,,1,14,,,,,,,,,,,4,6.109,0,,,,,,0.414814843,-0.244444459,1,0,0,6.109,Gabbro_rect,11,0,11,0,1,
65e8cf8f4c7424fa062e54a3,TCR,2024-06-25_12h46.26.766,LearnStrategy,2023.2.3,Win32,59.88023952,3,2,13,,,,,,,,4,03,,,,,,,,,,,3,4.443,0,,,,,,0.175925926,-0.247222265,1,0,0,4.4431,Diorite_rect,12,0,12,0,1,
65e8cf8f4c7424fa062e54a3,TCR,2024-06-25_12h46.26.766,LearnStrategy,2023.2.3,Win32,59.88023952,3,2,14,,,,,,,,6,12,,,,,,,,,,,1,3.908,0,,,,,,-0.318518497,-0.247222265,1,0,0,3.9075,Andesite_rect,13,0,13,0,1,
65e8cf8f4c7424fa062e54a3,TCR,2024-06-25_12h46.26.766,LearnStrategy,2023.2.3,Win32,59.88023952,3,2,15,,,,,,,,7,07,,,,,,,,,,,4,2.327,0,,,,,,0.411111196,-0.259259259,1,0,0,2.3273,Gabbro_rect,14,0,14,0,1,
65e8cf8f4c7424fa062e54a3,TCR,2024-06-25_12h46.26.766,LearnStrategy,2023.2.3,Win32,59.88023952,3,2,16,,,,,,,,5,08,,,,,,,,,,,5,1.22,1,,,,,,-0.467592593,-0.410185213,1,0,0,1.2203,Obsidian_rect,15,0,15,0,1,
65e8cf8f4c7424fa062e54a3,TCR,2024-06-25_12h46.26.766,LearnStrategy,2023.2.3,Win32,59.88023952,4,1,1,0.162962949,0.008333312,1,0,0,10.2628,rock_grid_rect_2,7,13,-1,-1,10.263,-0.164814772,-0.265740783,1,0,0,3.4503,Basalt_rect,2,3.45,0,0,0,0,0,1,,,,,,,,,,,,,
65e8cf8f4c7424fa062e54a3,TCR,2024-06-25_12h46.26.766,LearnStrategy,2023.2.3,Win32,59.88023952,4,1,2,0.017592607,0.009259259,1,0,0,1.5746,rock_grid_rect_2,1,16,-1,-1,1.575,0.171296296,-0.25,1,0,0,1.3482,Diorite_rect,3,1.348,0,1,0,1,0,1,,,,,,,,,,,,,
65e8cf8f4c7424fa062e54a3,TCR,2024-06-25_12h46.26.766,LearnStrategy,2023.2.3,Win32,59.88023952,4,1,3,-0.053703661,-0.005555577,1,0,0,4.2016,rock_grid_rect_2,2,08,-1,-1,4.202,-0.166666667,-0.237963005,1,0,0,1.6153,Basalt_rect,2,1.615,1,2,0,2,0,1,,,,,,,,,,,,,
65e8cf8f4c7424fa062e54a3,TCR,2024-06-25_12h46.26.766,LearnStrategy,2023.2.3,Win32,59.88023952,4,1,4,0.119444459,0.000925912,1,0,0,13.3721,rock_grid_rect_2,1,11,-1,-1,13.372,0.425925926,-0.24537037,1,0,0,3.1585,Gabbro_rect,4,3.159,0,3,0,3,0,1,,,,,,,,,,,,,
65e8cf8f4c7424fa062e54a3,TCR,2024-06-25_12h46.26.766,LearnStrategy,2023.2.3,Win32,59.88023952,4,1,5,-0.034259231,0.014814801,1,0,0,1.3709,rock_grid_rect_2,7,15,-1,-1,1.371,0.184259273,-0.412962949,1,0,0,3.2709,Peridotite_rect,7,3.271,1,4,0,4,0,1,,,,,,,,,,,,,
65e8cf8f4c7424fa062e54a3,TCR,2024-06-25_12h46.26.766,LearnStrategy,2023.2.3,Win32,59.88023952,4,1,6,0.030555584,0.006481489,1,0,0,1.1576,rock_grid_rect_2,6,15,-1,-1,1.158,-0.137036995,-0.413888931,1,0,0,2.8583,Pegmatite_rect,6,2.858,1,5,0,5,0,1,,,,,,,,,,,,,
65e8cf8f4c7424fa062e54a3,TCR,2024-06-25_12h46.26.766,LearnStrategy,2023.2.3,Win32,59.88023952,4,1,7,-0.00462963,0.017592571,1,0,0,0.9071,rock_grid_rect_2,7,15,-1,-1,0.907,0.164814843,-0.392592607,1,0,0,1.4972,Peridotite_rect,7,1.497,1,6,0,6,0,1,,,,,,,,,,,,,
65e8cf8f4c7424fa062e54a3,TCR,2024-06-25_12h46.26.766,LearnStrategy,2023.2.3,Win32,59.88023952,4,1,8,0.062962991,0.005555541,1,0,0,19.6361,rock_grid_rect_2,3,14,-1,-1,19.636,0.167592578,-0.268518519,1,0,0,1.9822,Diorite_rect,3,1.982,1,7,0,7,0,1,,,,,,,,,,,,,
65e8cf8f4c7424fa062e54a3,TCR,2024-06-25_12h46.26.766,LearnStrategy,2023.2.3,Win32,59.88023952,4,1,9,0.08148151,-0.009259259,1,0,0,1.077,rock_grid_rect_2,4,10,-1,-1,1.077,0.312962991,-0.243518547,1,0,0,3.6241,Gabbro_rect,4,3.624,1,8,0,8,0,1,,,,,,,,,,,,,
65e8cf8f4c7424fa062e54a3,TCR,2024-06-25_12h46.26.766,LearnStrategy,2023.2.3,Win32,59.88023952,4,1,10,-0.035185143,0.002777771,1,0,0,6.691,rock_grid_rect_2,4,05,-1,-1,6.691,0.449074074,-0.258333347,1,0,0,2.6516,Gabbro_rect,4,2.652,1,9,0,9,0,1,,,,,,,,,,,,,
65e8cf8f4c7424fa062e54a3,TCR,2024-06-25_12h46.26.766,LearnStrategy,2023.2.3,Win32,59.88023952,4,1,11,0.132407436,0.006481489,1,0,0,1.0416,rock_grid_rect_2,6,08,-1,-1,1.042,-0.082407422,-0.416666667,1,0,0,1.3755,Pegmatite_rect,6,1.375,1,10,0,10,0,1,,,,,,,,,,,,,
65e8cf8f4c7424fa062e54a3,TCR,2024-06-25_12h46.26.766,LearnStrategy,2023.2.3,Win32,59.88023952,4,1,12,0.009259259,-0.011111118,1,0,0,1.5608,rock_grid_rect_2,2,11,-1,-1,1.561,-0.339814822,-0.249074088,1,0,0,6.751,Andesite_rect,1,6.751,0,11,0,11,0,1,,,,,,,,,,,,,
65e8cf8f4c7424fa062e54a3,TCR,2024-06-25_12h46.26.766,LearnStrategy,2023.2.3,Win32,59.88023952,4,1,13,-0.058333291,-0.00462963,1,0,0,2.3566,rock_grid_rect_2,4,08,-1,-1,2.357,0.381481453,-0.248148176,1,0,0,1.9431,Gabbro_rect,4,1.943,1,12,0,12,0,1,,,,,,,,,,,,,
65e8cf8f4c7424fa062e54a3,TCR,2024-06-25_12h46.26.766,LearnStrategy,2023.2.3,Win32,59.88023952,4,1,14,-0.012962977,-0.010185206,1,0,0,0.8604,rock_grid_rect_2,8,02,-1,-1,0.86,0.409259231,-0.416666667,1,0,0,2.139,Pumice_rect,8,2.139,1,13,0,13,0,1,,,,,,,,,,,,,
65e8cf8f4c7424fa062e54a3,TCR,2024-06-25_12h46.26.766,LearnStrategy,2023.2.3,Win32,59.88023952,4,1,15,-0.086111069,0.000925912,1,0,0,1.0906,rock_grid_rect_2,4,14,-1,-1,1.091,0.17777782,-0.250925912,1,0,0,7.5354,Diorite_rect,3,7.535,0,14,0,14,0,1,,,,,,,,,,,,,
65e8cf8f4c7424fa062e54a3,TCR,2024-06-25_12h46.26.766,LearnStrategy,2023.2.3,Win32,59.88023952,4,1,16,0.088888875,-0.010185206,1,0,0,0.8555,rock_grid_rect_2,1,01,-1,-1,0.855,-0.375,-0.259259259,1,0,0,2.6911,Andesite_rect,1,2.691,1,15,0,15,0,1,,,,,,,,,,,,,
65e8cf8f4c7424fa062e54a3,TCR,2024-06-25_12h46.26.766,LearnStrategy,2023.2.3,Win32,59.88023952,4,2,1,,,,,,,,3,08,,,,,,,,,,,3,2.455,1,,,,,,0.194444444,-0.25462963,1,0,0,2.4553,Diorite_rect,0,0,0,0,1,
65e8cf8f4c7424fa062e54a3,TCR,2024-06-25_12h46.26.766,LearnStrategy,2023.2.3,Win32,59.88023952,4,2,2,,,,,,,,7,10,,,,,,,,,,,7,1.488,1,,,,,,0.19722225,-0.39444443,1,0,0,1.4883,Peridotite_rect,1,0,1,0,1,
65e8cf8f4c7424fa062e54a3,TCR,2024-06-25_12h46.26.766,LearnStrategy,2023.2.3,Win32,59.88023952,4,2,3,,,,,,,,5,10,,,,,,,,,,,5,1.156,1,,,,,,-0.351851852,-0.409259302,1,0,0,1.1561,Obsidian_rect,2,0,2,0,1,
65e8cf8f4c7424fa062e54a3,TCR,2024-06-25_12h46.26.766,LearnStrategy,2023.2.3,Win32,59.88023952,4,2,4,,,,,,,,1,14,,,,,,,,,,,1,2.536,1,,,,,,-0.376851859,-0.241666653,1,0,0,2.5361,Andesite_rect,3,0,3,0,1,
65e8cf8f4c7424fa062e54a3,TCR,2024-06-25_12h46.26.766,LearnStrategy,2023.2.3,Win32,59.88023952,4,2,5,,,,,,,,4,13,,,,,,,,,,,4,2.349,1,,,,,,0.367592564,-0.255555541,1,0,0,2.3494,Gabbro_rect,4,0,4,0,1,
65e8cf8f4c7424fa062e54a3,TCR,2024-06-25_12h46.26.766,LearnStrategy,2023.2.3,Win32,59.88023952,4,2,6,,,,,,,,4,03,,,,,,,,,,,1,6.216,0,,,,,,-0.339814822,-0.25462963,1,0,0,6.2155,Andesite_rect,5,0,5,0,1,
65e8cf8f4c7424fa062e54a3,TCR,2024-06-25_12h46.26.766,LearnStrategy,2023.2.3,Win32,59.88023952,4,2,7,,,,,,,,5,08,,,,,,,,,,,5,1.03,1,,,,,,-0.359259252,-0.393518519,1,0,0,1.0297,Obsidian_rect,6,0,6,0,1,
65e8cf8f4c7424fa062e54a3,TCR,2024-06-25_12h46.26.766,LearnStrategy,2023.2.3,Win32,59.88023952,4,2,8,,,,,,,,8,05,,,,,,,,,,,8,1.206,1,,,,,,0.475926011,-0.405555584,1,0,0,1.2059,Pumice_rect,7,0,7,0,1,
65e8cf8f4c7424fa062e54a3,TCR,2024-06-25_12h46.26.766,LearnStrategy,2023.2.3,Win32,59.88023952,4,2,9,,,,,,,,6,12,,,,,,,,,,,6,3.353,1,,,,,,-0.148148148,-0.402777778,1,0,0,3.3531,Pegmatite_rect,8,0,8,0,1,
65e8cf8f4c7424fa062e54a3,TCR,2024-06-25_12h46.26.766,LearnStrategy,2023.2.3,Win32,59.88023952,4,2,10,,,,,,,,7,04,,,,,,,,,,,7,2.205,1,,,,,,0.148148148,-0.413888931,1,0,0,2.2053,Peridotite_rect,9,0,9,0,1,
65e8cf8f4c7424fa062e54a3,TCR,2024-06-25_12h46.26.766,LearnStrategy,2023.2.3,Win32,59.88023952,4,2,11,,,,,,,,2,12,,,,,,,,,,,2,2.06,1,,,,,,-0.167592578,-0.250925912,1,0,0,2.06,Basalt_rect,10,0,10,0,1,
65e8cf8f4c7424fa062e54a3,TCR,2024-06-25_12h46.26.766,LearnStrategy,2023.2.3,Win32,59.88023952,4,2,12,,,,,,,,6,03,,,,,,,,,,,7,1.476,0,,,,,,0.125,-0.419444473,1,0,0,1.4762,Peridotite_rect,11,0,11,0,1,
65e8cf8f4c7424fa062e54a3,TCR,2024-06-25_12h46.26.766,LearnStrategy,2023.2.3,Win32,59.88023952,4,2,13,,,,,,,,8,13,,,,,,,,,,,8,1.489,1,,,,,,0.442592621,-0.414814843,1,0,0,1.4891,Pumice_rect,12,0,12,0,1,
65e8cf8f4c7424fa062e54a3,TCR,2024-06-25_12h46.26.766,LearnStrategy,2023.2.3,Win32,59.88023952,4,2,14,,,,,,,,1,10,,,,,,,,,,,1,1.608,1,,,,,,-0.388888889,-0.243518547,1,0,0,1.6082,Andesite_rect,13,0,13,0,1,
65e8cf8f4c7424fa062e54a3,TCR,2024-06-25_12h46.26.766,LearnStrategy,2023.2.3,Win32,59.88023952,4,2,15,,,,,,,,3,09,,,,,,,,,,,3,1.704,1,,,,,,0.166666667,-0.252777806,1,0,0,1.7035,Diorite_rect,14,0,14,0,1,
65e8cf8f4c7424fa062e54a3,TCR,2024-06-25_12h46.26.766,LearnStrategy,2023.2.3,Win32,59.88023952,4,2,16,,,,,,,,2,16,,,,,,,,,,,2,1.174,1,,,,,,-0.093518504,-0.253703718,1,0,0,1.1738,Basalt_rect,15,0,15,0,1,
65e8cf8f4c7424fa062e54a3,TCR,2024-06-25_12h46.26.766,LearnStrategy,2023.2.3,Win32,59.88023952,5,1,1,-0.015740712,-0.000925947,1,0,0,3.2955,rock_grid_rect_2,7,16,-1,-1,3.295,0.450925898,-0.264814801,1,0,0,4.3922,Gabbro_rect,4,4.392,0,0,0,0,0,1,,,,,,,,,,,,,
65e8cf8f4c7424fa062e54a3,TCR,2024-06-25_12h46.26.766,LearnStrategy,2023.2.3,Win32,59.88023952,5,1,2,0.061111097,-0.0074074,1,0,0,1.6526,rock_grid_rect_2,4,01,-1,-1,1.653,0.424074102,-0.231481481,1,0,0,1.3472,Gabbro_rect,4,1.347,1,1,0,1,0,1,,,,,,,,,,,,,
65e8cf8f4c7424fa062e54a3,TCR,2024-06-25_12h46.26.766,LearnStrategy,2023.2.3,Win32,59.88023952,5,1,3,-0.041666667,-0.011111118,1,0,0,1.6961,rock_grid_rect_2,6,13,-1,-1,1.696,0.151851866,-0.414814843,1,0,0,1.9104,Peridotite_rect,7,1.91,0,2,0,2,0,1,,,,,,,,,,,,,
65e8cf8f4c7424fa062e54a3,TCR,2024-06-25_12h46.26.766,LearnStrategy,2023.2.3,Win32,59.88023952,5,1,4,0.116666653,-0.005555577,1,0,0,1.0774,rock_grid_rect_2,3,06,-1,-1,1.077,0.137037065,-0.246296282,1,0,0,1.119,Diorite_rect,3,1.119,1,3,0,3,0,1,,,,,,,,,,,,,
65e8cf8f4c7424fa062e54a3,TCR,2024-06-25_12h46.26.766,LearnStrategy,2023.2.3,Win32,59.88023952,5,1,5,0.058333362,-0.00462963,1,0,0,1.0609,rock_grid_rect_2,4,14,-1,-1,1.061,0.404629601,-0.258333347,1,0,0,1.402,Gabbro_rect,4,1.402,1,4,0,4,0,1,,,,,,,,,,,,,
65e8cf8f4c7424fa062e54a3,TCR,2024-06-25_12h46.26.766,LearnStrategy,2023.2.3,Win32,59.88023952,5,1,6,0.059259273,-0.002777771,1,0,0,1.1914,rock_grid_rect_2,7,15,-1,-1,1.191,0.155555584,-0.408333319,1,0,0,1.0049,Peridotite_rect,7,1.005,1,5,0,5,0,1,,,,,,,,,,,,,
65e8cf8f4c7424fa062e54a3,TCR,2024-06-25_12h46.26.766,LearnStrategy,2023.2.3,Win32,59.88023952,5,1,7,0.139814801,-0.006481489,1,0,0,0.8951,rock_grid_rect_2,6,16,-1,-1,0.895,-0.114814829,-0.398148148,1,0,0,1.4804,Pegmatite_rect,6,1.48,1,6,0,6,0,1,,,,,,,,,,,,,
65e8cf8f4c7424fa062e54a3,TCR,2024-06-25_12h46.26.766,LearnStrategy,2023.2.3,Win32,59.88023952,5,1,8,0.068518533,-0.011111118,1,0,0,1.1119,rock_grid_rect_2,1,16,-1,-1,1.112,-0.388888889,-0.246296282,1,0,0,2.0296,Andesite_rect,1,2.03,1,7,0,7,0,1,,,,,,,,,,,,,
65e8cf8f4c7424fa062e54a3,TCR,2024-06-25_12h46.26.766,LearnStrategy,2023.2.3,Win32,59.88023952,5,1,9,0.059259273,0.003703683,1,0,0,0.8847,rock_grid_rect_2,7,16,-1,-1,0.885,0.411111196,-0.248148176,1,0,0,2.2256,Gabbro_rect,4,2.226,0,8,0,8,0,1,,,,,,,,,,,,,
65e8cf8f4c7424fa062e54a3,TCR,2024-06-25_12h46.26.766,LearnStrategy,2023.2.3,Win32,59.88023952,5,1,10,0.058333362,0.0074074,1,0,0,1.0437,rock_grid_rect_2,1,03,-1,-1,1.044,-0.12037037,-0.258333347,1,0,0,1.4409,Basalt_rect,2,1.441,0,9,0,9,0,1,,,,,,,,,,,,,
65e8cf8f4c7424fa062e54a3,TCR,2024-06-25_12h46.26.766,LearnStrategy,2023.2.3,Win32,59.88023952,5,1,11,0.066666709,-0.017592607,1,0,0,0.9304,rock_grid_rect_2,6,15,-1,-1,0.93,-0.061111097,-0.380555541,1,0,0,1.2985,Pegmatite_rect,6,1.299,1,10,0,10,0,1,,,,,,,,,,,,,
65e8cf8f4c7424fa062e54a3,TCR,2024-06-25_12h46.26.766,LearnStrategy,2023.2.3,Win32,59.88023952,5,1,12,0.133333347,-0.006481489,1,0,0,2.9014,rock_grid_rect_2,4,12,-1,-1,2.901,-0.110185199,-0.233333376,1,0,0,1.4806,Basalt_rect,2,1.481,0,11,0,11,0,1,,,,,,,,,,,,,
65e8cf8f4c7424fa062e54a3,TCR,2024-06-25_12h46.26.766,LearnStrategy,2023.2.3,Win32,59.88023952,5,1,13,0.094444487,-0.000925947,1,0,0,0.8937,rock_grid_rect_2,8,02,-1,-1,0.894,0.359259288,-0.412962949,1,0,0,1.053,Pumice_rect,8,1.053,1,12,0,12,0,1,,,,,,,,,,,,,
65e8cf8f4c7424fa062e54a3,TCR,2024-06-25_12h46.26.766,LearnStrategy,2023.2.3,Win32,59.88023952,5,1,14,0.133333347,-0.0074074,1,0,0,1.0769,rock_grid_rect_2,1,09,-1,-1,1.077,-0.137962977,-0.262962977,1,0,0,1.1237,Basalt_rect,2,1.124,0,13,0,13,0,1,,,,,,,,,,,,,
65e8cf8f4c7424fa062e54a3,TCR,2024-06-25_12h46.26.766,LearnStrategy,2023.2.3,Win32,59.88023952,5,1,15,0.041666667,0.002777771,1,0,0,0.7777,rock_grid_rect_2,2,01,-1,-1,0.778,-0.135185171,-0.246296282,1,0,0,1.1328,Basalt_rect,2,1.133,1,14,0,14,0,1,,,,,,,,,,,,,
65e8cf8f4c7424fa062e54a3,TCR,2024-06-25_12h46.26.766,LearnStrategy,2023.2.3,Win32,59.88023952,5,1,16,0.09629631,-0.011111118,1,0,0,0.8701,rock_grid_rect_2,4,08,-1,-1,0.87,0.352777834,-0.236111111,1,0,0,1.2143,Gabbro_rect,4,1.214,1,15,0,15,0,1,,,,,,,,,,,,,
65e8cf8f4c7424fa062e54a3,TCR,2024-06-25_12h46.26.766,LearnStrategy,2023.2.3,Win32,59.88023952,5,2,1,,,,,,,,8,08,,,,,,,,,,,8,1.187,1,,,,,,0.338888945,-0.390740783,1,0,0,1.1866,Pumice_rect,0,0,0,0,1,
65e8cf8f4c7424fa062e54a3,TCR,2024-06-25_12h46.26.766,LearnStrategy,2023.2.3,Win32,59.88023952,5,2,2,,,,,,,,5,12,,,,,,,,,,,5,1.224,1,,,,,,-0.385185171,-0.380555541,1,0,0,1.2243,Obsidian_rect,1,0,1,0,1,
65e8cf8f4c7424fa062e54a3,TCR,2024-06-25_12h46.26.766,LearnStrategy,2023.2.3,Win32,59.88023952,5,2,3,,,,,,,,4,15,,,,,,,,,,,4,3.355,1,,,,,,0.352777834,-0.259259259,1,0,0,3.355,Gabbro_rect,2,0,2,0,1,
65e8cf8f4c7424fa062e54a3,TCR,2024-06-25_12h46.26.766,LearnStrategy,2023.2.3,Win32,59.88023952,5,2,4,,,,,,,,7,12,,,,,,,,,,,7,1.2,1,,,,,,0.123148176,-0.398148148,1,0,0,1.2,Peridotite_rect,3,0,3,0,1,
65e8cf8f4c7424fa062e54a3,TCR,2024-06-25_12h46.26.766,LearnStrategy,2023.2.3,Win32,59.88023952,5,2,5,,,,,,,,4,16,,,,,,,,,,,4,3.329,1,,,,,,0.375925982,-0.237963005,1,0,0,3.3288,Gabbro_rect,4,0,4,0,1,
65e8cf8f4c7424fa062e54a3,TCR,2024-06-25_12h46.26.766,LearnStrategy,2023.2.3,Win32,59.88023952,5,2,6,,,,,,,,6,09,,,,,,,,,,,7,1.783,0,,,,,,0.100000028,-0.406481496,1,0,0,1.7831,Peridotite_rect,5,0,5,0,1,
65e8cf8f4c7424fa062e54a3,TCR,2024-06-25_12h46.26.766,LearnStrategy,2023.2.3,Win32,59.88023952,5,2,7,,,,,,,,6,11,,,,,,,,,,,7,1.037,0,,,,,,0.113888917,-0.401851866,1,0,0,1.0367,Peridotite_rect,6,0,6,0,1,
65e8cf8f4c7424fa062e54a3,TCR,2024-06-25_12h46.26.766,LearnStrategy,2023.2.3,Win32,59.88023952,5,2,8,,,,,,,,5,02,,,,,,,,,,,5,1.149,1,,,,,,-0.384259259,-0.385185171,1,0,0,1.1485,Obsidian_rect,7,0,7,0,1,
65e8cf8f4c7424fa062e54a3,TCR,2024-06-25_12h46.26.766,LearnStrategy,2023.2.3,Win32,59.88023952,5,2,9,,,,,,,,1,02,,,,,,,,,,,1,3.123,1,,,,,,-0.371296282,-0.266666695,1,0,0,3.1233,Andesite_rect,8,0,8,0,1,
65e8cf8f4c7424fa062e54a3,TCR,2024-06-25_12h46.26.766,LearnStrategy,2023.2.3,Win32,59.88023952,5,2,10,,,,,,,,3,12,,,,,,,,,,,3,1.129,1,,,,,,0.112037023,-0.243518547,1,0,0,1.1292,Diorite_rect,9,0,9,0,1,
65e8cf8f4c7424fa062e54a3,TCR,2024-06-25_12h46.26.766,LearnStrategy,2023.2.3,Win32,59.88023952,5,2,11,,,,,,,,8,16,,,,,,,,,,,2,2.57,0,,,,,,-0.149999972,-0.228703746,1,0,0,2.5696,Basalt_rect,10,0,10,0,1,
65e8cf8f4c7424fa062e54a3,TCR,2024-06-25_12h46.26.766,LearnStrategy,2023.2.3,Win32,59.88023952,5,2,12,,,,,,,,1,06,,,,,,,,,,,1,3.262,1,,,,,,-0.381481489,-0.244444459,1,0,0,3.2615,Andesite_rect,11,0,11,0,1,
65e8cf8f4c7424fa062e54a3,TCR,2024-06-25_12h46.26.766,LearnStrategy,2023.2.3,Win32,59.88023952,5,2,13,,,,,,,,7,14,,,,,,,,,,,7,1.211,1,,,,,,0.095370399,-0.410185213,1,0,0,1.2113,Peridotite_rect,12,0,12,0,1,
65e8cf8f4c7424fa062e54a3,TCR,2024-06-25_12h46.26.766,LearnStrategy,2023.2.3,Win32,59.88023952,5,2,14,,,,,,,,2,10,,,,,,,,,,,2,2.827,1,,,,,,-0.150925884,-0.244444459,1,0,0,2.8269,Basalt_rect,13,0,13,0,1,
65e8cf8f4c7424fa062e54a3,TCR,2024-06-25_12h46.26.766,LearnStrategy,2023.2.3,Win32,59.88023952,5,2,15,,,,,,,,3,10,,,,,,,,,,,3,1.957,1,,,,,,0.179629644,-0.249074088,1,0,0,1.9569,Diorite_rect,14,0,14,0,1,
65e8cf8f4c7424fa062e54a3,TCR,2024-06-25_12h46.26.766,LearnStrategy,2023.2.3,Win32,59.88023952,5,2,16,,,,,,,,2,02,,,,,,,,,,,2,1.036,1,,,,,,-0.160185143,-0.233333376,1,0,0,1.0356,Basalt_rect,15,0,15,0,1,
65e8cf8f4c7424fa062e54a3,TCR,2024-06-25_12h46.26.766,LearnStrategy,2023.2.3,Win32,59.88023952,6,1,1,-0.02407406,0.017592571,1,0,0,1.0626,rock_grid_rect_2,4,08,-1,-1,1.063,0.381481453,-0.257407436,1,0,0,1.4886,Gabbro_rect,4,1.489,1,0,0,0,0,1,,,,,,,,,,,,,
65e8cf8f4c7424fa062e54a3,TCR,2024-06-25_12h46.26.766,LearnStrategy,2023.2.3,Win32,59.88023952,6,1,2,0.015740783,-0.002777771,1,0,0,0.9559,rock_grid_rect_2,3,15,-1,-1,0.956,0.137037065,-0.263888889,1,0,0,1.2444,Diorite_rect,3,1.244,1,1,0,1,0,1,,,,,,,,,,,,,
65e8cf8f4c7424fa062e54a3,TCR,2024-06-25_12h46.26.766,LearnStrategy,2023.2.3,Win32,59.88023952,6,1,3,0.037037037,0.001851859,1,0,0,1.0208,rock_grid_rect_2,4,01,-1,-1,1.021,0.371296353,-0.259259259,1,0,0,9.2582,Gabbro_rect,4,9.258,1,2,0,2,0,1,,,,,,,,,,,,,
65e8cf8f4c7424fa062e54a3,TCR,2024-06-25_12h46.26.766,LearnStrategy,2023.2.3,Win32,59.88023952,6,1,4,0.152777778,-0.00462963,1,0,0,0.9696,rock_grid_rect_2,6,10,-1,-1,0.97,0.12962963,-0.396296325,1,0,0,1.2219,Peridotite_rect,7,1.222,0,3,0,3,0,1,,,,,,,,,,,,,
65e8cf8f4c7424fa062e54a3,TCR,2024-06-25_12h46.26.766,LearnStrategy,2023.2.3,Win32,59.88023952,6,1,5,0.075925968,-0.010185206,1,0,0,0.9436,rock_grid_rect_2,4,12,-1,-1,0.944,-0.375,-0.240740741,1,0,0,6.7625,Andesite_rect,1,6.763,0,4,0,4,0,1,,,,,,,,,,,,,
65e8cf8f4c7424fa062e54a3,TCR,2024-06-25_12h46.26.766,LearnStrategy,2023.2.3,Win32,59.88023952,6,1,6,0.078703704,-0.01666666,1,0,0,0.8775,rock_grid_rect_2,8,15,-1,-1,0.878,0.382407436,-0.407407407,1,0,0,1.3416,Pumice_rect,8,1.342,1,5,0,5,0,1,,,,,,,,,,,,,
65e8cf8f4c7424fa062e54a3,TCR,2024-06-25_12h46.26.766,LearnStrategy,2023.2.3,Win32,59.88023952,6,1,7,0.061111097,-0.021296289,1,0,0,0.8588,rock_grid_rect_2,6,08,-1,-1,0.859,-0.12962963,-0.405555584,1,0,0,1.8157,Pegmatite_rect,6,1.816,1,6,0,6,0,1,,,,,,,,,,,,,
65e8cf8f4c7424fa062e54a3,TCR,2024-06-25_12h46.26.766,LearnStrategy,2023.2.3,Win32,59.88023952,6,1,8,0.087037051,0,1,0,0,1.0274,rock_grid_rect_2,1,11,-1,-1,1.027,-0.346296275,-0.239814829,1,0,0,1.3662,Andesite_rect,1,1.366,1,7,0,7,0,1,,,,,,,,,,,,,
65e8cf8f4c7424fa062e54a3,TCR,2024-06-25_12h46.26.766,LearnStrategy,2023.2.3,Win32,59.88023952,6,1,9,0.068518533,0.006481489,1,0,0,0.9767,rock_grid_rect_2,6,15,-1,-1,0.977,-0.14907406,-0.398148148,1,0,0,1.5851,Pegmatite_rect,6,1.585,1,8,0,8,0,1,,,,,,,,,,,,,
65e8cf8f4c7424fa062e54a3,TCR,2024-06-25_12h46.26.766,LearnStrategy,2023.2.3,Win32,59.88023952,6,1,10,0.062962991,0.001851859,1,0,0,1.0204,rock_grid_rect_2,8,02,-1,-1,1.02,0.351851852,-0.396296325,1,0,0,1.0657,Pumice_rect,8,1.066,1,9,0,9,0,1,,,,,,,,,,,,,
65e8cf8f4c7424fa062e54a3,TCR,2024-06-25_12h46.26.766,LearnStrategy,2023.2.3,Win32,59.88023952,6,1,11,-0.008333347,-0.00462963,1,0,0,0.9399,rock_grid_rect_2,2,01,-1,-1,0.94,-0.14444443,-0.247222265,1,0,0,1.1259,Basalt_rect,2,1.126,1,10,0,10,0,1,,,,,,,,,,,,,
65e8cf8f4c7424fa062e54a3,TCR,2024-06-25_12h46.26.766,LearnStrategy,2023.2.3,Win32,59.88023952,6,1,12,0.104629658,-0.009259259,1,0,0,0.9267,rock_grid_rect_2,7,15,-1,-1,0.927,0.09629631,-0.40370369,1,0,0,1.2235,Peridotite_rect,7,1.224,1,11,0,11,0,1,,,,,,,,,,,,,
65e8cf8f4c7424fa062e54a3,TCR,2024-06-25_12h46.26.766,LearnStrategy,2023.2.3,Win32,59.88023952,6,1,13,0.110185199,0.001851859,1,0,0,1.154,rock_grid_rect_2,1,09,-1,-1,1.154,-0.340740734,-0.250925912,1,0,0,1.7099,Andesite_rect,1,1.71,1,12,0,12,0,1,,,,,,,,,,,,,
65e8cf8f4c7424fa062e54a3,TCR,2024-06-25_12h46.26.766,LearnStrategy,2023.2.3,Win32,59.88023952,6,1,14,0.068518533,-0.003703718,1,0,0,0.8143,rock_grid_rect_2,5,14,-1,-1,0.814,-0.398148148,-0.393518519,1,0,0,1.1757,Obsidian_rect,5,1.176,1,13,0,13,0,1,,,,,,,,,,,,,
65e8cf8f4c7424fa062e54a3,TCR,2024-06-25_12h46.26.766,LearnStrategy,2023.2.3,Win32,59.88023952,6,1,15,0.046296296,-0.000925947,1,0,0,0.7769,rock_grid_rect_2,7,13,-1,-1,0.777,0.156481496,-0.39907406,1,0,0,1.2609,Peridotite_rect,7,1.261,1,14,0,14,0,1,,,,,,,,,,,,,
65e8cf8f4c7424fa062e54a3,TCR,2024-06-25_12h46.26.766,LearnStrategy,2023.2.3,Win32,59.88023952,6,1,16,0.119444459,0.002777771,1,0,0,0.857,rock_grid_rect_2,6,06,-1,-1,0.857,-0.122222194,-0.412962949,1,0,0,1.5126,Pegmatite_rect,6,1.513,1,15,0,15,0,1,,,,,,,,,,,,,
65e8cf8f4c7424fa062e54a3,TCR,2024-06-25_12h46.26.766,LearnStrategy,2023.2.3,Win32,59.88023952,6,2,1,,,,,,,,6,05,,,,,,,,,,,6,1.769,1,,,,,,-0.094444416,-0.400925954,1,0,0,1.7689,Pegmatite_rect,0,0,0,0,1,
65e8cf8f4c7424fa062e54a3,TCR,2024-06-25_12h46.26.766,LearnStrategy,2023.2.3,Win32,59.88023952,6,2,2,,,,,,,,8,10,,,,,,,,,,,8,1.242,1,,,,,,0.387963048,-0.418518561,1,0,0,1.2424,Pumice_rect,1,0,1,0,1,
65e8cf8f4c7424fa062e54a3,TCR,2024-06-25_12h46.26.766,LearnStrategy,2023.2.3,Win32,59.88023952,6,2,3,,,,,,,,2,09,,,,,,,,,,,2,1.215,1,,,,,,-0.175925926,-0.260185171,1,0,0,1.2147,Basalt_rect,2,0,2,0,1,
65e8cf8f4c7424fa062e54a3,TCR,2024-06-25_12h46.26.766,LearnStrategy,2023.2.3,Win32,59.88023952,6,2,4,,,,,,,,8,03,,,,,,,,,,,8,1.254,1,,,,,,0.350926011,-0.395370413,1,0,0,1.2542,Pumice_rect,3,0,3,0,1,
65e8cf8f4c7424fa062e54a3,TCR,2024-06-25_12h46.26.766,LearnStrategy,2023.2.3,Win32,59.88023952,6,2,5,,,,,,,,7,08,,,,,,,,,,,7,1.334,1,,,,,,0.108333376,-0.407407407,1,0,0,1.3337,Peridotite_rect,4,0,4,0,1,
65e8cf8f4c7424fa062e54a3,TCR,2024-06-25_12h46.26.766,LearnStrategy,2023.2.3,Win32,59.88023952,6,2,6,,,,,,,,3,07,,,,,,,,,,,3,1.835,1,,,,,,0.112963005,-0.25462963,1,0,0,1.8348,Diorite_rect,5,0,5,0,1,
65e8cf8f4c7424fa062e54a3,TCR,2024-06-25_12h46.26.766,LearnStrategy,2023.2.3,Win32,59.88023952,6,2,7,,,,,,,,1,05,,,,,,,,,,,1,1.664,1,,,,,,-0.390740748,-0.265740783,1,0,0,1.6642,Andesite_rect,6,0,6,0,1,
65e8cf8f4c7424fa062e54a3,TCR,2024-06-25_12h46.26.766,LearnStrategy,2023.2.3,Win32,59.88023952,6,2,8,,,,,,,,6,07,,,,,,,,,,,6,1.775,1,,,,,,-0.112962935,-0.396296325,1,0,0,1.7751,Pegmatite_rect,7,0,7,0,1,
65e8cf8f4c7424fa062e54a3,TCR,2024-06-25_12h46.26.766,LearnStrategy,2023.2.3,Win32,59.88023952,6,2,9,,,,,,,,5,16,,,,,,,,,,,5,1.01,1,,,,,,-0.447222215,-0.398148148,1,0,0,1.0097,Obsidian_rect,8,0,8,0,1,
65e8cf8f4c7424fa062e54a3,TCR,2024-06-25_12h46.26.766,LearnStrategy,2023.2.3,Win32,59.88023952,6,2,10,,,,,,,,3,16,,,,,,,,,,,3,1.341,1,,,,,,0.162962949,-0.251851894,1,0,0,1.3409,Diorite_rect,9,0,9,0,1,
65e8cf8f4c7424fa062e54a3,TCR,2024-06-25_12h46.26.766,LearnStrategy,2023.2.3,Win32,59.88023952,6,2,11,,,,,,,,2,05,,,,,,,,,,,2,2.056,1,,,,,,-0.145370342,-0.258333347,1,0,0,2.0556,Basalt_rect,10,0,10,0,1,
65e8cf8f4c7424fa062e54a3,TCR,2024-06-25_12h46.26.766,LearnStrategy,2023.2.3,Win32,59.88023952,6,2,12,,,,,,,,4,09,,,,,,,,,,,5,16.172,0,,,,,,-0.376851859,-0.411111125,1,0,0,16.172,Obsidian_rect,11,0,11,0,1,
65e8cf8f4c7424fa062e54a3,TCR,2024-06-25_12h46.26.766,LearnStrategy,2023.2.3,Win32,59.88023952,6,2,13,,,,,,,,1,07,,,,,,,,,,,1,1.29,1,,,,,,-0.380555541,-0.231481481,1,0,0,1.2896,Andesite_rect,12,0,12,0,1,
65e8cf8f4c7424fa062e54a3,TCR,2024-06-25_12h46.26.766,LearnStrategy,2023.2.3,Win32,59.88023952,6,2,14,,,,,,,,5,11,,,,,,,,,,,5,1.054,1,,,,,,-0.402777778,-0.396296325,1,0,0,1.0537,Obsidian_rect,13,0,13,0,1,
65e8cf8f4c7424fa062e54a3,TCR,2024-06-25_12h46.26.766,LearnStrategy,2023.2.3,Win32,59.88023952,6,2,15,,,,,,,,7,07,,,,,,,,,,,7,1.089,1,,,,,,0.078703704,-0.405555584,1,0,0,1.0887,Peridotite_rect,14,0,14,0,1,
65e8cf8f4c7424fa062e54a3,TCR,2024-06-25_12h46.26.766,LearnStrategy,2023.2.3,Win32,59.88023952,6,2,16,,,,,,,,4,11,,,,,,,,,,,1,4.308,0,,,,,,-0.342592593,-0.228703746,1,0,0,4.3084,Andesite_rect,15,0,15,0,1,
65e8cf8f4c7424fa062e54a3,TCR,2024-06-25_12h46.26.766,LearnStrategy,2023.2.3,Win32,59.88023952,7,1,1,0.087962963,-0.005555577,1,0,0,0.8283,rock_grid_rect_2,4,10,-1,-1,0.828,0.362962935,-0.241666653,1,0,0,1.3357,Gabbro_rect,4,1.336,1,0,0,0,0,1,,,,,,,,,,,,,
65e8cf8f4c7424fa062e54a3,TCR,2024-06-25_12h46.26.766,LearnStrategy,2023.2.3,Win32,59.88023952,7,1,2,0.055555556,-0.006481489,1,0,0,1.2463,rock_grid_rect_2,6,10,-1,-1,1.246,-0.157407407,-0.413888931,1,0,0,1.1844,Pegmatite_rect,6,1.184,1,1,0,1,0,1,,,,,,,,,,,,,
65e8cf8f4c7424fa062e54a3,TCR,2024-06-25_12h46.26.766,LearnStrategy,2023.2.3,Win32,59.88023952,7,1,3,0.059259273,-0.003703718,1,0,0,0.902,rock_grid_rect_2,6,13,-1,-1,0.902,-0.130555541,-0.408333319,1,0,0,1.1504,Pegmatite_rect,6,1.15,1,2,0,2,0,1,,,,,,,,,,,,,
65e8cf8f4c7424fa062e54a3,TCR,2024-06-25_12h46.26.766,LearnStrategy,2023.2.3,Win32,59.88023952,7,1,4,0.005555541,0.008333312,1,0,0,0.8235,rock_grid_rect_2,8,14,-1,-1,0.823,0.422222279,-0.393518519,1,0,0,1.0509,Pumice_rect,8,1.051,1,3,0,3,0,1,,,,,,,,,,,,,
65e8cf8f4c7424fa062e54a3,TCR,2024-06-25_12h46.26.766,LearnStrategy,2023.2.3,Win32,59.88023952,7,1,5,0.029629672,-0.01666666,1,0,0,0.9315,rock_grid_rect_2,7,15,-1,-1,0.932,0.189814815,-0.265740783,1,0,0,0.9166,Diorite_rect,3,0.917,0,4,0,4,0,1,,,,,,,,,,,,,
65e8cf8f4c7424fa062e54a3,TCR,2024-06-25_12h46.26.766,LearnStrategy,2023.2.3,Win32,59.88023952,7,1,6,0.002777806,-0.003703718,1,0,0,1.0979,rock_grid_rect_2,4,05,-1,-1,1.098,0.396296325,-0.249074088,1,0,0,1.2975,Gabbro_rect,4,1.297,1,5,0,5,0,1,,,,,,,,,,,,,
65e8cf8f4c7424fa062e54a3,TCR,2024-06-25_12h46.26.766,LearnStrategy,2023.2.3,Win32,59.88023952,7,1,7,0.02407406,0,1,0,0,0.9099,rock_grid_rect_2,8,04,-1,-1,0.91,0.384259259,-0.397222236,1,0,0,0.9847,Pumice_rect,8,0.985,1,6,0,6,0,1,,,,,,,,,,,,,
65e8cf8f4c7424fa062e54a3,TCR,2024-06-25_12h46.26.766,LearnStrategy,2023.2.3,Win32,59.88023952,7,1,8,0.05277782,-0.006481489,1,0,0,1.1434,rock_grid_rect_2,7,13,-1,-1,1.143,0.150925954,-0.406481496,1,0,0,1.1488,Peridotite_rect,7,1.149,1,7,0,7,0,1,,,,,,,,,,,,,
65e8cf8f4c7424fa062e54a3,TCR,2024-06-25_12h46.26.766,LearnStrategy,2023.2.3,Win32,59.88023952,7,1,9,-0.033333319,-0.008333347,1,0,0,0.9887,rock_grid_rect_2,3,13,-1,-1,0.989,0.155555584,-0.249074088,1,0,0,2.3094,Diorite_rect,3,2.309,1,8,0,8,0,1,,,,,,,,,,,,,
65e8cf8f4c7424fa062e54a3,TCR,2024-06-25_12h46.26.766,LearnStrategy,2023.2.3,Win32,59.88023952,7,1,10,0.032407407,-0.022222236,1,0,0,1.0099,rock_grid_rect_2,1,16,-1,-1,1.01,-0.353703711,-0.262962977,1,0,0,1.1477,Andesite_rect,1,1.148,1,9,0,9,0,1,,,,,,,,,,,,,
65e8cf8f4c7424fa062e54a3,TCR,2024-06-25_12h46.26.766,LearnStrategy,2023.2.3,Win32,59.88023952,7,1,11,0.061111097,-0.021296289,1,0,0,1.0731,rock_grid_rect_2,6,10,-1,-1,1.073,-0.095370328,-0.39444443,1,0,0,1.1834,Pegmatite_rect,6,1.183,1,10,0,10,0,1,,,,,,,,,,,,,
65e8cf8f4c7424fa062e54a3,TCR,2024-06-25_12h46.26.766,LearnStrategy,2023.2.3,Win32,59.88023952,7,1,12,0.050000014,-0.021296289,1,0,0,0.8608,rock_grid_rect_2,2,14,-1,-1,0.861,0.3648149,-0.236111111,1,0,0,1.5275,Gabbro_rect,4,1.527,0,11,0,11,0,1,,,,,,,,,,,,,
65e8cf8f4c7424fa062e54a3,TCR,2024-06-25_12h46.26.766,LearnStrategy,2023.2.3,Win32,59.88023952,7,1,13,0.008333347,0.0074074,1,0,0,0.8289,rock_grid_rect_2,1,04,-1,-1,0.829,-0.362037023,-0.238888917,1,0,0,1.0256,Andesite_rect,1,1.026,1,12,0,12,0,1,,,,,,,,,,,,,
65e8cf8f4c7424fa062e54a3,TCR,2024-06-25_12h46.26.766,LearnStrategy,2023.2.3,Win32,59.88023952,7,1,14,0.07222225,0.005555541,1,0,0,0.8924,rock_grid_rect_2,4,14,-1,-1,0.892,0.387963048,-0.253703718,1,0,0,1.1157,Gabbro_rect,4,1.116,1,13,0,13,0,1,,,,,,,,,,,,,
65e8cf8f4c7424fa062e54a3,TCR,2024-06-25_12h46.26.766,LearnStrategy,2023.2.3,Win32,59.88023952,7,1,15,0.070370356,-0.012962977,1,0,0,0.8435,rock_grid_rect_2,5,07,-1,-1,0.843,-0.366666653,-0.411111125,1,0,0,1.3613,Obsidian_rect,5,1.361,1,14,0,14,0,1,,,,,,,,,,,,,
65e8cf8f4c7424fa062e54a3,TCR,2024-06-25_12h46.26.766,LearnStrategy,2023.2.3,Win32,59.88023952,7,1,16,-0.02407406,-0.012962977,1,0,0,1.0768,rock_grid_rect_2,4,08,-1,-1,1.077,0.362962935,-0.239814829,1,0,0,1.2998,Gabbro_rect,4,1.3,1,15,0,15,0,1,,,,,,,,,,,,,
65e8cf8f4c7424fa062e54a3,TCR,2024-06-25_12h46.26.766,LearnStrategy,2023.2.3,Win32,59.88023952,7,2,1,,,,,,,,3,12,,,,,,,,,,,3,1.005,1,,,,,,0.188888903,-0.267592607,1,0,0,1.0053,Diorite_rect,0,0,0,0,1,
65e8cf8f4c7424fa062e54a3,TCR,2024-06-25_12h46.26.766,LearnStrategy,2023.2.3,Win32,59.88023952,7,2,2,,,,,,,,6,11,,,,,,,,,,,6,0.9,1,,,,,,-0.143518519,-0.412037037,1,0,0,0.8999,Pegmatite_rect,1,0,1,0,1,
65e8cf8f4c7424fa062e54a3,TCR,2024-06-25_12h46.26.766,LearnStrategy,2023.2.3,Win32,59.88023952,7,2,3,,,,,,,,4,11,,,,,,,,,,,4,1.764,1,,,,,,0.458333333,-0.249074088,1,0,0,1.7637,Gabbro_rect,2,0,2,0,1,
65e8cf8f4c7424fa062e54a3,TCR,2024-06-25_12h46.26.766,LearnStrategy,2023.2.3,Win32,59.88023952,7,2,4,,,,,,,,5,12,,,,,,,,,,,5,2.007,1,,,,,,-0.375925912,-0.406481496,1,0,0,2.0071,Obsidian_rect,3,0,3,0,1,
65e8cf8f4c7424fa062e54a3,TCR,2024-06-25_12h46.26.766,LearnStrategy,2023.2.3,Win32,59.88023952,7,2,5,,,,,,,,4,15,,,,,,,,,,,4,1.165,1,,,,,,0.457407492,-0.252777806,1,0,0,1.1647,Gabbro_rect,4,0,4,0,1,
65e8cf8f4c7424fa062e54a3,TCR,2024-06-25_12h46.26.766,LearnStrategy,2023.2.3,Win32,59.88023952,7,2,6,,,,,,,,8,03,,,,,,,,,,,8,1.091,1,,,,,,0.359259288,-0.388888889,1,0,0,1.0911,Pumice_rect,5,0,5,0,1,
65e8cf8f4c7424fa062e54a3,TCR,2024-06-25_12h46.26.766,LearnStrategy,2023.2.3,Win32,59.88023952,7,2,7,,,,,,,,6,03,,,,,,,,,,,6,1.965,1,,,,,,-0.108333305,-0.409259302,1,0,0,1.9652,Pegmatite_rect,6,0,6,0,1,
65e8cf8f4c7424fa062e54a3,TCR,2024-06-25_12h46.26.766,LearnStrategy,2023.2.3,Win32,59.88023952,7,2,8,,,,,,,,7,04,,,,,,,,,,,7,1.336,1,,,,,,0.099074116,-0.410185213,1,0,0,1.3358,Peridotite_rect,7,0,7,0,1,
65e8cf8f4c7424fa062e54a3,TCR,2024-06-25_12h46.26.766,LearnStrategy,2023.2.3,Win32,59.88023952,7,2,9,,,,,,,,2,09,,,,,,,,,,,2,1.202,1,,,,,,-0.14907406,-0.236111111,1,0,0,1.2023,Basalt_rect,8,0,8,0,1,
65e8cf8f4c7424fa062e54a3,TCR,2024-06-25_12h46.26.766,LearnStrategy,2023.2.3,Win32,59.88023952,7,2,10,,,,,,,,3,07,,,,,,,,,,,3,2.248,1,,,,,,0.164814843,-0.253703718,1,0,0,2.2484,Diorite_rect,9,0,9,0,1,
65e8cf8f4c7424fa062e54a3,TCR,2024-06-25_12h46.26.766,LearnStrategy,2023.2.3,Win32,59.88023952,7,2,11,,,,,,,,1,10,,,,,,,,,,,1,1.3,1,,,,,,-0.373148141,-0.240740741,1,0,0,1.3,Andesite_rect,10,0,10,0,1,
65e8cf8f4c7424fa062e54a3,TCR,2024-06-25_12h46.26.766,LearnStrategy,2023.2.3,Win32,59.88023952,7,2,12,,,,,,,,7,14,,,,,,,,,,,7,1.342,1,,,,,,0.103703746,-0.398148148,1,0,0,1.3418,Peridotite_rect,11,0,11,0,1,
65e8cf8f4c7424fa062e54a3,TCR,2024-06-25_12h46.26.766,LearnStrategy,2023.2.3,Win32,59.88023952,7,2,13,,,,,,,,2,02,,,,,,,,,,,2,1.288,1,,,,,,-0.143518519,-0.246296282,1,0,0,1.2882,Basalt_rect,12,0,12,0,1,
65e8cf8f4c7424fa062e54a3,TCR,2024-06-25_12h46.26.766,LearnStrategy,2023.2.3,Win32,59.88023952,7,2,14,,,,,,,,5,02,,,,,,,,,,,5,1.055,1,,,,,,-0.412037037,-0.397222236,1,0,0,1.0552,Obsidian_rect,13,0,13,0,1,
65e8cf8f4c7424fa062e54a3,TCR,2024-06-25_12h46.26.766,LearnStrategy,2023.2.3,Win32,59.88023952,7,2,15,,,,,,,,8,16,,,,,,,,,,,8,1.749,1,,,,,,0.40370376,-0.404629672,1,0,0,1.7494,Pumice_rect,14,0,14,0,1,
65e8cf8f4c7424fa062e54a3,TCR,2024-06-25_12h46.26.766,LearnStrategy,2023.2.3,Win32,59.88023952,7,2,16,,,,,,,,1,02,,,,,,,,,,,1,1.694,1,,,,,,-0.392592571,-0.238888917,1,0,0,1.6941,Andesite_rect,15,0,15,0,1,
65e8cf8f4c7424fa062e54a3,TCR,2024-06-25_12h46.26.766,LearnStrategy,2023.2.3,Win32,59.88023952,8,1,1,-0.029629601,0.015740748,1,0,0,0.7951,rock_grid_rect_2,1,04,-1,-1,0.795,-0.369444423,-0.243518547,1,0,0,1.3023,Andesite_rect,1,1.302,1,0,0,0,0,1,,,,,,,,,,,,,
65e8cf8f4c7424fa062e54a3,TCR,2024-06-25_12h46.26.766,LearnStrategy,2023.2.3,Win32,59.88023952,8,1,2,0.032407407,0.006481489,1,0,0,0.9059,rock_grid_rect_2,5,05,-1,-1,0.906,-0.397222201,-0.397222236,1,0,0,1.7911,Obsidian_rect,5,1.791,1,1,0,1,0,1,,,,,,,,,,,,,
65e8cf8f4c7424fa062e54a3,TCR,2024-06-25_12h46.26.766,LearnStrategy,2023.2.3,Win32,59.88023952,8,1,3,-0.007407365,-0.003703718,1,0,0,0.9144,rock_grid_rect_2,6,13,-1,-1,0.914,-0.143518519,-0.389814801,1,0,0,1.6422,Pegmatite_rect,6,1.642,1,2,0,2,0,1,,,,,,,,,,,,,
65e8cf8f4c7424fa062e54a3,TCR,2024-06-25_12h46.26.766,LearnStrategy,2023.2.3,Win32,59.88023952,8,1,4,0.012962977,0.003703683,1,0,0,0.939,rock_grid_rect_2,6,13,-1,-1,0.939,-0.137036995,-0.420370384,1,0,0,1.2066,Pegmatite_rect,6,1.207,1,3,0,3,0,1,,,,,,,,,,,,,
65e8cf8f4c7424fa062e54a3,TCR,2024-06-25_12h46.26.766,LearnStrategy,2023.2.3,Win32,59.88023952,8,1,5,0.015740783,0.000925912,1,0,0,0.8921,rock_grid_rect_2,2,14,-1,-1,0.892,0.334259316,-0.24537037,1,0,0,1.4493,Gabbro_rect,4,1.449,0,4,0,4,0,1,,,,,,,,,,,,,
65e8cf8f4c7424fa062e54a3,TCR,2024-06-25_12h46.26.766,LearnStrategy,2023.2.3,Win32,59.88023952,8,1,6,0.051851838,-0.003703718,1,0,0,0.9153,rock_grid_rect_2,8,06,-1,-1,0.915,0.363888917,-0.409259302,1,0,0,1.1932,Pumice_rect,8,1.193,1,5,0,5,0,1,,,,,,,,,,,,,
65e8cf8f4c7424fa062e54a3,TCR,2024-06-25_12h46.26.766,LearnStrategy,2023.2.3,Win32,59.88023952,8,1,7,-0.000925912,-0.015740748,1,0,0,0.9736,rock_grid_rect_2,1,09,-1,-1,0.974,-0.359259252,-0.233333376,1,0,0,1.3595,Andesite_rect,1,1.36,1,6,0,6,0,1,,,,,,,,,,,,,
65e8cf8f4c7424fa062e54a3,TCR,2024-06-25_12h46.26.766,LearnStrategy,2023.2.3,Win32,59.88023952,8,1,8,0.020370413,-0.012962977,1,0,0,0.8776,rock_grid_rect_2,8,15,-1,-1,0.878,0.351851852,-0.402777778,1,0,0,1.0409,Pumice_rect,8,1.041,1,7,0,7,0,1,,,,,,,,,,,,,
65e8cf8f4c7424fa062e54a3,TCR,2024-06-25_12h46.26.766,LearnStrategy,2023.2.3,Win32,59.88023952,8,1,9,0.062962991,-0.00462963,1,0,0,0.9948,rock_grid_rect_2,7,16,-1,-1,0.995,0.374074159,-0.261111153,1,0,0,3.7087,Gabbro_rect,4,3.709,0,8,0,8,0,1,,,,,,,,,,,,,
65e8cf8f4c7424fa062e54a3,TCR,2024-06-25_12h46.26.766,LearnStrategy,2023.2.3,Win32,59.88023952,8,1,10,0.073148162,-0.005555577,1,0,0,0.7766,rock_grid_rect_2,6,16,-1,-1,0.777,-0.156481496,-0.390740783,1,0,0,1.2499,Pegmatite_rect,6,1.25,1,9,0,9,0,1,,,,,,,,,,,,,
65e8cf8f4c7424fa062e54a3,TCR,2024-06-25_12h46.26.766,LearnStrategy,2023.2.3,Win32,59.88023952,8,1,11,0.036111125,-0.005555577,1,0,0,1.1853,rock_grid_rect_2,4,14,-1,-1,1.185,0.362037094,-0.243518547,1,0,0,2.4236,Gabbro_rect,4,2.424,1,10,0,10,0,1,,,,,,,,,,,,,
65e8cf8f4c7424fa062e54a3,TCR,2024-06-25_12h46.26.766,LearnStrategy,2023.2.3,Win32,59.88023952,8,1,12,0.090740769,-0.0074074,1,0,0,5.995,rock_grid_rect_2,7,15,-1,-1,5.995,0.161111125,-0.418518561,1,0,0,1.2422,Peridotite_rect,7,1.242,1,11,0,11,0,1,,,,,,,,,,,,,
65e8cf8f4c7424fa062e54a3,TCR,2024-06-25_12h46.26.766,LearnStrategy,2023.2.3,Win32,59.88023952,8,1,13,0.078703704,-0.001851859,1,0,0,1.6605,rock_grid_rect_2,4,01,-1,-1,1.66,0.385185242,-0.248148176,1,0,0,1.8555,Gabbro_rect,4,1.855,1,12,0,12,0,1,,,,,,,,,,,,,
65e8cf8f4c7424fa062e54a3,TCR,2024-06-25_12h46.26.766,LearnStrategy,2023.2.3,Win32,59.88023952,8,1,14,-0.006481453,-0.01203703,1,0,0,1.8452,rock_grid_rect_2,4,05,-1,-1,1.845,0.35555564,-0.259259259,1,0,0,1.0878,Gabbro_rect,4,1.088,1,13,0,13,0,1,,,,,,,,,,,,,
65e8cf8f4c7424fa062e54a3,TCR,2024-06-25_12h46.26.766,LearnStrategy,2023.2.3,Win32,59.88023952,8,1,15,-0.068518533,0.003703683,1,0,0,1.2817,rock_grid_rect_2,3,11,-1,-1,1.282,0.15370369,-0.255555541,1,0,0,1.8195,Diorite_rect,3,1.82,1,14,0,14,0,1,,,,,,,,,,,,,
65e8cf8f4c7424fa062e54a3,TCR,2024-06-25_12h46.26.766,LearnStrategy,2023.2.3,Win32,59.88023952,8,1,16,0.058333362,-0.013888889,1,0,0,1.051,rock_grid_rect_2,4,05,-1,-1,1.051,0.458333333,-0.237037023,1,0,0,1.0305,Gabbro_rect,4,1.031,1,15,0,15,0,1,,,,,,,,,,,,,
65e8cf8f4c7424fa062e54a3,TCR,2024-06-25_12h46.26.766,LearnStrategy,2023.2.3,Win32,59.88023952,8,2,1,,,,,,,,1,06,,,,,,,,,,,1,1.607,1,,,,,,-0.454629616,-0.25,1,0,0,1.6066,Andesite_rect,0,0,0,0,1,
65e8cf8f4c7424fa062e54a3,TCR,2024-06-25_12h46.26.766,LearnStrategy,2023.2.3,Win32,59.88023952,8,2,2,,,,,,,,7,10,,,,,,,,,,,7,1.372,1,,,,,,0.099074116,-0.412037037,1,0,0,1.3719,Peridotite_rect,1,0,1,0,1,
65e8cf8f4c7424fa062e54a3,TCR,2024-06-25_12h46.26.766,LearnStrategy,2023.2.3,Win32,59.88023952,8,2,3,,,,,,,,3,16,,,,,,,,,,,3,1.218,1,,,,,,0.192592621,-0.267592607,1,0,0,1.218,Diorite_rect,2,0,2,0,1,
65e8cf8f4c7424fa062e54a3,TCR,2024-06-25_12h46.26.766,LearnStrategy,2023.2.3,Win32,59.88023952,8,2,4,,,,,,,,4,16,,,,,,,,,,,4,2.302,1,,,,,,0.414814843,-0.248148176,1,0,0,2.3015,Gabbro_rect,3,0,3,0,1,
65e8cf8f4c7424fa062e54a3,TCR,2024-06-25_12h46.26.766,LearnStrategy,2023.2.3,Win32,59.88023952,8,2,5,,,,,,,,6,12,,,,,,,,,,,6,4.517,1,,,,,,-0.115740741,-0.407407407,1,0,0,4.5174,Pegmatite_rect,4,0,4,0,1,
65e8cf8f4c7424fa062e54a3,TCR,2024-06-25_12h46.26.766,LearnStrategy,2023.2.3,Win32,59.88023952,8,2,6,,,,,,,,4,13,,,,,,,,,,,4,1.587,1,,,,,,0.371296353,-0.247222265,1,0,0,1.5874,Gabbro_rect,5,0,5,0,1,
65e8cf8f4c7424fa062e54a3,TCR,2024-06-25_12h46.26.766,LearnStrategy,2023.2.3,Win32,59.88023952,8,2,7,,,,,,,,1,07,,,,,,,,,,,1,1.211,1,,,,,,-0.395370377,-0.241666653,1,0,0,1.2106,Andesite_rect,6,0,6,0,1,
65e8cf8f4c7424fa062e54a3,TCR,2024-06-25_12h46.26.766,LearnStrategy,2023.2.3,Win32,59.88023952,8,2,8,,,,,,,,6,05,,,,,,,,,,,6,1.792,1,,,,,,-0.161111125,-0.40370369,1,0,0,1.7916,Pegmatite_rect,7,0,7,0,1,
65e8cf8f4c7424fa062e54a3,TCR,2024-06-25_12h46.26.766,LearnStrategy,2023.2.3,Win32,59.88023952,8,2,9,,,,,,,,3,10,,,,,,,,,,,3,0.98,1,,,,,,0.137037065,-0.257407436,1,0,0,0.98,Diorite_rect,8,0,8,0,1,
65e8cf8f4c7424fa062e54a3,TCR,2024-06-25_12h46.26.766,LearnStrategy,2023.2.3,Win32,59.88023952,8,2,10,,,,,,,,8,13,,,,,,,,,,,8,1.432,1,,,,,,0.411111196,-0.40370369,1,0,0,1.4319,Pumice_rect,9,0,9,0,1,
65e8cf8f4c7424fa062e54a3,TCR,2024-06-25_12h46.26.766,LearnStrategy,2023.2.3,Win32,59.88023952,8,2,11,,,,,,,,7,08,,,,,,,,,,,7,1.37,1,,,,,,0.127777806,-0.414814843,1,0,0,1.3704,Peridotite_rect,10,0,10,0,1,
65e8cf8f4c7424fa062e54a3,TCR,2024-06-25_12h46.26.766,LearnStrategy,2023.2.3,Win32,59.88023952,8,2,12,,,,,,,,2,16,,,,,,,,,,,2,1.925,1,,,,,,-0.12962963,-0.252777806,1,0,0,1.9248,Basalt_rect,11,0,11,0,1,
65e8cf8f4c7424fa062e54a3,TCR,2024-06-25_12h46.26.766,LearnStrategy,2023.2.3,Win32,59.88023952,8,2,13,,,,,,,,2,10,,,,,,,,,,,2,3.588,1,,,,,,-0.125925912,-0.24537037,1,0,0,3.5883,Basalt_rect,12,0,12,0,1,
65e8cf8f4c7424fa062e54a3,TCR,2024-06-25_12h46.26.766,LearnStrategy,2023.2.3,Win32,59.88023952,8,2,14,,,,,,,,5,08,,,,,,,,,,,5,1.356,1,,,,,,-0.3824074,-0.400925954,1,0,0,1.356,Obsidian_rect,13,0,13,0,1,
65e8cf8f4c7424fa062e54a3,TCR,2024-06-25_12h46.26.766,LearnStrategy,2023.2.3,Win32,59.88023952,8,2,15,,,,,,,,5,16,,,,,,,,,,,5,1.162,1,,,,,,-0.374074053,-0.400925954,1,0,0,1.162,Obsidian_rect,14,0,14,0,1,
65e8cf8f4c7424fa062e54a3,TCR,2024-06-25_12h46.26.766,LearnStrategy,2023.2.3,Win32,59.88023952,8,2,16,,,,,,,,8,05,,,,,,,,,,,8,1.21,1,,,,,,0.385185242,-0.415740755,1,0,0,1.2103,Pumice_rect,15,0,15,0,1,
65e8cf8f4c7424fa062e54a3,TCR,2024-06-25_12h46.26.766,LearnStrategy,2023.2.3,Win32,59.88023952,9,1,1,0.031481496,-0.010185206,1,0,0,1.0969,rock_grid_rect_2,5,05,-1,-1,1.097,-0.390740748,-0.391666695,1,0,0,1.2057,Obsidian_rect,5,1.206,1,0,0,0,0,1,,,,,,,,,,,,,
65e8cf8f4c7424fa062e54a3,TCR,2024-06-25_12h46.26.766,LearnStrategy,2023.2.3,Win32,59.88023952,9,1,2,0.027777778,0,1,0,0,0.8453,rock_grid_rect_2,4,14,-1,-1,0.845,0.443518603,-0.256481524,1,0,0,1.6518,Gabbro_rect,4,1.652,1,1,0,1,0,1,,,,,,,,,,,,,
65e8cf8f4c7424fa062e54a3,TCR,2024-06-25_12h46.26.766,LearnStrategy,2023.2.3,Win32,59.88023952,9,1,3,0.059259273,0.00462963,1,0,0,0.9442,rock_grid_rect_2,2,11,-1,-1,0.944,-0.150925884,-0.255555541,1,0,0,1.8672,Basalt_rect,2,1.867,1,2,0,2,0,1,,,,,,,,,,,,,
65e8cf8f4c7424fa062e54a3,TCR,2024-06-25_12h46.26.766,LearnStrategy,2023.2.3,Win32,59.88023952,9,1,4,-0.006481453,-0.002777771,1,0,0,2.0281,rock_grid_rect_2,6,08,-1,-1,2.028,-0.087962963,-0.417592578,1,0,0,1.4921,Pegmatite_rect,6,1.492,1,3,0,3,0,1,,,,,,,,,,,,,
65e8cf8f4c7424fa062e54a3,TCR,2024-06-25_12h46.26.766,LearnStrategy,2023.2.3,Win32,59.88023952,9,1,5,0.035185213,-0.009259259,1,0,0,0.8622,rock_grid_rect_2,4,10,-1,-1,0.862,0.366666723,-0.246296282,1,0,0,1.6469,Gabbro_rect,4,1.647,1,4,0,4,0,1,,,,,,,,,,,,,
65e8cf8f4c7424fa062e54a3,TCR,2024-06-25_12h46.26.766,LearnStrategy,2023.2.3,Win32,59.88023952,9,1,6,0.012037065,-0.006481489,1,0,0,1.0581,rock_grid_rect_2,6,15,-1,-1,1.058,-0.164814772,-0.417592578,1,0,0,5.3853,Pegmatite_rect,6,5.385,1,5,0,5,0,1,,,,,,,,,,,,,
65e8cf8f4c7424fa062e54a3,TCR,2024-06-25_12h46.26.766,LearnStrategy,2023.2.3,Win32,59.88023952,9,1,7,0.035185213,0,1,0,0,1.4422,rock_grid_rect_2,3,06,-1,-1,1.442,0.131481524,-0.24537037,1,0,0,1.3532,Diorite_rect,3,1.353,1,6,0,6,0,1,,,,,,,,,,,,,
65e8cf8f4c7424fa062e54a3,TCR,2024-06-25_12h46.26.766,LearnStrategy,2023.2.3,Win32,59.88023952,9,1,8,0.033333319,0.023148148,1,0,0,1.2124,rock_grid_rect_2,7,06,-1,-1,1.212,-0.154629601,-0.389814801,1,0,0,1.6028,Pegmatite_rect,6,1.603,0,7,0,7,0,1,,,,,,,,,,,,,
65e8cf8f4c7424fa062e54a3,TCR,2024-06-25_12h46.26.766,LearnStrategy,2023.2.3,Win32,59.88023952,9,1,9,0.008333347,0.006481489,1,0,0,2.2561,rock_grid_rect_2,6,06,-1,-1,2.256,0.108333376,-0.409259302,1,0,0,2.239,Peridotite_rect,7,2.239,0,8,0,8,0,1,,,,,,,,,,,,,
65e8cf8f4c7424fa062e54a3,TCR,2024-06-25_12h46.26.766,LearnStrategy,2023.2.3,Win32,59.88023952,9,1,10,0.033333319,0.005555541,1,0,0,0.9786,rock_grid_rect_2,1,11,-1,-1,0.979,-0.414814808,-0.251851894,1,0,0,1.643,Andesite_rect,1,1.643,1,9,0,9,0,1,,,,,,,,,,,,,
65e8cf8f4c7424fa062e54a3,TCR,2024-06-25_12h46.26.766,LearnStrategy,2023.2.3,Win32,59.88023952,9,1,11,0.00462963,-0.003703718,1,0,0,0.9901,rock_grid_rect_2,4,14,-1,-1,0.99,0.324074074,-0.257407436,1,0,0,2.1089,Gabbro_rect,4,2.109,1,10,0,10,0,1,,,,,,,,,,,,,
65e8cf8f4c7424fa062e54a3,TCR,2024-06-25_12h46.26.766,LearnStrategy,2023.2.3,Win32,59.88023952,9,1,12,-0.044444402,-0.009259259,1,0,0,0.9398,rock_grid_rect_2,8,14,-1,-1,0.94,0.439814815,-0.416666667,1,0,0,1.1021,Pumice_rect,8,1.102,1,11,0,11,0,1,,,,,,,,,,,,,
65e8cf8f4c7424fa062e54a3,TCR,2024-06-25_12h46.26.766,LearnStrategy,2023.2.3,Win32,59.88023952,9,1,13,-0.051851838,-0.000925947,1,0,0,1.0866,rock_grid_rect_2,1,03,-1,-1,1.087,-0.376851859,-0.24537037,1,0,0,3.2058,Andesite_rect,1,3.206,1,12,0,12,0,1,,,,,,,,,,,,,
65e8cf8f4c7424fa062e54a3,TCR,2024-06-25_12h46.26.766,LearnStrategy,2023.2.3,Win32,59.88023952,9,1,14,0.075925968,-0.001851859,1,0,0,0.7578,rock_grid_rect_2,7,15,-1,-1,0.758,0.138888889,-0.408333319,1,0,0,1.1596,Peridotite_rect,7,1.16,1,13,0,13,0,1,,,,,,,,,,,,,
65e8cf8f4c7424fa062e54a3,TCR,2024-06-25_12h46.26.766,LearnStrategy,2023.2.3,Win32,59.88023952,9,1,15,-0.05277775,-0.006481489,1,0,0,0.8116,rock_grid_rect_2,4,12,-1,-1,0.812,0.434259344,-0.25462963,1,0,0,2.3801,Gabbro_rect,4,2.38,1,14,0,14,0,1,,,,,,,,,,,,,
65e8cf8f4c7424fa062e54a3,TCR,2024-06-25_12h46.26.766,LearnStrategy,2023.2.3,Win32,59.88023952,9,1,16,0.036111125,-0.000925947,1,0,0,0.8393,rock_grid_rect_2,8,06,-1,-1,0.839,0.382407436,-0.395370413,1,0,0,1.1235,Pumice_rect,8,1.123,1,15,0,15,0,1,,,,,,,,,,,,,
65e8cf8f4c7424fa062e54a3,TCR,2024-06-25_12h46.26.766,LearnStrategy,2023.2.3,Win32,59.88023952,9,2,1,,,,,,,,1,14,,,,,,,,,,,1,2.765,1,,,,,,-0.341666645,-0.246296282,1,0,0,2.7653,Andesite_rect,0,0,0,0,1,
65e8cf8f4c7424fa062e54a3,TCR,2024-06-25_12h46.26.766,LearnStrategy,2023.2.3,Win32,59.88023952,9,2,2,,,,,,,,8,10,,,,,,,,,,,8,2.119,1,,,,,,0.375,-0.400000042,1,0,0,2.1191,Pumice_rect,1,0,1,0,1,
65e8cf8f4c7424fa062e54a3,TCR,2024-06-25_12h46.26.766,LearnStrategy,2023.2.3,Win32,59.88023952,9,2,3,,,,,,,,6,07,,,,,,,,,,,6,1.772,1,,,,,,-0.103703675,-0.400000042,1,0,0,1.772,Pegmatite_rect,2,0,2,0,1,
65e8cf8f4c7424fa062e54a3,TCR,2024-06-25_12h46.26.766,LearnStrategy,2023.2.3,Win32,59.88023952,9,2,4,,,,,,,,5,11,,,,,,,,,,,5,1.123,1,,,,,,-0.389814801,-0.400000042,1,0,0,1.1226,Obsidian_rect,3,0,3,0,1,
65e8cf8f4c7424fa062e54a3,TCR,2024-06-25_12h46.26.766,LearnStrategy,2023.2.3,Win32,59.88023952,9,2,5,,,,,,,,5,10,,,,,,,,,,,5,1.037,1,,,,,,-0.361111111,-0.387962977,1,0,0,1.0366,Obsidian_rect,4,0,4,0,1,
65e8cf8f4c7424fa062e54a3,TCR,2024-06-25_12h46.26.766,LearnStrategy,2023.2.3,Win32,59.88023952,9,2,6,,,,,,,,4,09,,,,,,,,,,,4,5.412,1,,,,,,0.437962991,-0.256481524,1,0,0,5.412,Gabbro_rect,5,0,5,0,1,
65e8cf8f4c7424fa062e54a3,TCR,2024-06-25_12h46.26.766,LearnStrategy,2023.2.3,Win32,59.88023952,9,2,7,,,,,,,,1,05,,,,,,,,,,,1,1.226,1,,,,,,-0.425925926,-0.246296282,1,0,0,1.2262,Andesite_rect,6,0,6,0,1,
65e8cf8f4c7424fa062e54a3,TCR,2024-06-25_12h46.26.766,LearnStrategy,2023.2.3,Win32,59.88023952,9,2,8,,,,,,,,7,12,,,,,,,,,,,7,1.157,1,,,,,,0.125,-0.402777778,1,0,0,1.1573,Peridotite_rect,7,0,7,0,1,
65e8cf8f4c7424fa062e54a3,TCR,2024-06-25_12h46.26.766,LearnStrategy,2023.2.3,Win32,59.88023952,9,2,9,,,,,,,,3,09,,,,,,,,,,,3,1.278,1,,,,,,0.133333347,-0.251851894,1,0,0,1.2779,Diorite_rect,8,0,8,0,1,
65e8cf8f4c7424fa062e54a3,TCR,2024-06-25_12h46.26.766,LearnStrategy,2023.2.3,Win32,59.88023952,9,2,10,,,,,,,,6,09,,,,,,,,,,,6,1.23,1,,,,,,-0.134259259,-0.405555584,1,0,0,1.2297,Pegmatite_rect,9,0,9,0,1,
65e8cf8f4c7424fa062e54a3,TCR,2024-06-25_12h46.26.766,LearnStrategy,2023.2.3,Win32,59.88023952,9,2,11,,,,,,,,7,07,,,,,,,,,,,7,1.08,1,,,,,,0.098148134,-0.398148148,1,0,0,1.0795,Peridotite_rect,10,0,10,0,1,
65e8cf8f4c7424fa062e54a3,TCR,2024-06-25_12h46.26.766,LearnStrategy,2023.2.3,Win32,59.88023952,9,2,12,,,,,,,,3,08,,,,,,,,,,,3,1.094,1,,,,,,0.109259288,-0.235185199,1,0,0,1.094,Diorite_rect,11,0,11,0,1,
65e8cf8f4c7424fa062e54a3,TCR,2024-06-25_12h46.26.766,LearnStrategy,2023.2.3,Win32,59.88023952,9,2,13,,,,,,,,8,08,,,,,,,,,,,8,1.125,1,,,,,,0.381481453,-0.396296325,1,0,0,1.1253,Pumice_rect,12,0,12,0,1,
65e8cf8f4c7424fa062e54a3,TCR,2024-06-25_12h46.26.766,LearnStrategy,2023.2.3,Win32,59.88023952,9,2,14,,,,,,,,2,12,,,,,,,,,,,2,3.391,1,,,,,,-0.117592564,-0.260185171,1,0,0,3.3913,Basalt_rect,13,0,13,0,1,
65e8cf8f4c7424fa062e54a3,TCR,2024-06-25_12h46.26.766,LearnStrategy,2023.2.3,Win32,59.88023952,9,2,15,,,,,,,,4,03,,,,,,,,,,,3,1.279,0,,,,,,0.091666681,-0.257407436,1,0,0,1.2794,Diorite_rect,14,0,14,0,1,
65e8cf8f4c7424fa062e54a3,TCR,2024-06-25_12h46.26.766,LearnStrategy,2023.2.3,Win32,59.88023952,9,2,16,,,,,,,,2,05,,,,,,,,,,,2,1.74,1,,,,,,-0.121296282,-0.25,1,0,0,1.7403,Basalt_rect,15,0,15,0,1,
65e8cf8f4c7424fa062e54a3,TCR,2024-06-25_12h46.26.766,LearnStrategy,2023.2.3,Win32,59.88023952,,,,,,,,,,,,,,,,,,,,,,,,,,,,,,,,,,,,,,,,,,,1
65e8cf8f4c7424fa062e54a3,TCR,2024-06-25_12h46.26.766,LearnStrategy,2023.2.3,Win32,59.88023952,,,,,,,,,,,,,,,,,,,,,,,,,,,,,,,,,,,,,,,,,,,
65e8cf8f4c7424fa062e54a3,TCR,2024-06-25_12h46.26.766,LearnStrategy,2023.2.3,Win32,59.88023952,,,,,,,,,,,2,04,1,1,,,,,,,,,,,,,,,,,,,,,,,,,,,,,
65e8cf8f4c7424fa062e54a3,TCR,2024-06-25_12h46.26.766,LearnStrategy,2023.2.3,Win32,59.88023952,,,,,,,,,,,7,15,1,2,,,,,,,,,,,,,,,,,,,,,,,,,,,,,
65e8cf8f4c7424fa062e54a3,TCR,2024-06-25_12h46.26.766,LearnStrategy,2023.2.3,Win32,59.88023952,,,,,,,,,,,5,14,1,3,,,,,,,,,,,,,,,,,,,,,,,,,,,,,
65e8cf8f4c7424fa062e54a3,TCR,2024-06-25_12h46.26.766,LearnStrategy,2023.2.3,Win32,59.88023952,,,,,,,,,,,3,06,1,4,,,,,,,,,,,,,,,,,,,,,,,,,,,,,
65e8cf8f4c7424fa062e54a3,TCR,2024-06-25_12h46.26.766,LearnStrategy,2023.2.3,Win32,59.88023952,,,,,,,,,,,1,11,1,5,,,,,,,,,,,,,,,,,,,,,,,,,,,,,
65e8cf8f4c7424fa062e54a3,TCR,2024-06-25_12h46.26.766,LearnStrategy,2023.2.3,Win32,59.88023952,,,,,,,,,,,5,04,1,6,,,,,,,,,,,,,,,,,,,,,,,,,,,,,
65e8cf8f4c7424fa062e54a3,TCR,2024-06-25_12h46.26.766,LearnStrategy,2023.2.3,Win32,59.88023952,,,,,,,,,,,2,06,1,7,,,,,,,,,,,,,,,,,,,,,,,,,,,,,
65e8cf8f4c7424fa062e54a3,TCR,2024-06-25_12h46.26.766,LearnStrategy,2023.2.3,Win32,59.88023952,,,,,,,,,,,6,13,1,8,,,,,,,,,,,,,,,,,,,,,,,,,,,,,
65e8cf8f4c7424fa062e54a3,TCR,2024-06-25_12h46.26.766,LearnStrategy,2023.2.3,Win32,59.88023952,,,,,,,,,,,4,01,2,1,,,,,,,,,,,,,,,,,,,,,,,,,,,,,
65e8cf8f4c7424fa062e54a3,TCR,2024-06-25_12h46.26.766,LearnStrategy,2023.2.3,Win32,59.88023952,,,,,,,,,,,5,09,2,2,,,,,,,,,,,,,,,,,,,,,,,,,,,,,
65e8cf8f4c7424fa062e54a3,TCR,2024-06-25_12h46.26.766,LearnStrategy,2023.2.3,Win32,59.88023952,,,,,,,,,,,2,14,2,3,,,,,,,,,,,,,,,,,,,,,,,,,,,,,
65e8cf8f4c7424fa062e54a3,TCR,2024-06-25_12h46.26.766,LearnStrategy,2023.2.3,Win32,59.88023952,,,,,,,,,,,2,01,2,4,,,,,,,,,,,,,,,,,,,,,,,,,,,,,
65e8cf8f4c7424fa062e54a3,TCR,2024-06-25_12h46.26.766,LearnStrategy,2023.2.3,Win32,59.88023952,,,,,,,,,,,8,02,2,5,,,,,,,,,,,,,,,,,,,,,,,,,,,,,
65e8cf8f4c7424fa062e54a3,TCR,2024-06-25_12h46.26.766,LearnStrategy,2023.2.3,Win32,59.88023952,,,,,,,,,,,5,05,2,6,,,,,,,,,,,,,,,,,,,,,,,,,,,,,
65e8cf8f4c7424fa062e54a3,TCR,2024-06-25_12h46.26.766,LearnStrategy,2023.2.3,Win32,59.88023952,,,,,,,,,,,6,06,2,7,,,,,,,,,,,,,,,,,,,,,,,,,,,,,
65e8cf8f4c7424fa062e54a3,TCR,2024-06-25_12h46.26.766,LearnStrategy,2023.2.3,Win32,59.88023952,,,,,,,,,,,6,08,2,8,,,,,,,,,,,,,,,,,,,,,,,,,,,,,
65e8cf8f4c7424fa062e54a3,TCR,2024-06-25_12h46.26.766,LearnStrategy,2023.2.3,Win32,59.88023952,,,,,,,,,,,3,15,3,1,,,,,,,,,,,,,,,,,,,,,,,,,,,,,
65e8cf8f4c7424fa062e54a3,TCR,2024-06-25_12h46.26.766,LearnStrategy,2023.2.3,Win32,59.88023952,,,,,,,,,,,8,15,3,2,,,,,,,,,,,,,,,,,,,,,,,,,,,,,
65e8cf8f4c7424fa062e54a3,TCR,2024-06-25_12h46.26.766,LearnStrategy,2023.2.3,Win32,59.88023952,,,,,,,,,,,5,07,3,3,,,,,,,,,,,,,,,,,,,,,,,,,,,,,
65e8cf8f4c7424fa062e54a3,TCR,2024-06-25_12h46.26.766,LearnStrategy,2023.2.3,Win32,59.88023952,,,,,,,,,,,7,05,3,4,,,,,,,,,,,,,,,,,,,,,,,,,,,,,
65e8cf8f4c7424fa062e54a3,TCR,2024-06-25_12h46.26.766,LearnStrategy,2023.2.3,Win32,59.88023952,,,,,,,,,,,7,06,3,5,,,,,,,,,,,,,,,,,,,,,,,,,,,,,
65e8cf8f4c7424fa062e54a3,TCR,2024-06-25_12h46.26.766,LearnStrategy,2023.2.3,Win32,59.88023952,,,,,,,,,,,4,10,3,6,,,,,,,,,,,,,,,,,,,,,,,,,,,,,
65e8cf8f4c7424fa062e54a3,TCR,2024-06-25_12h46.26.766,LearnStrategy,2023.2.3,Win32,59.88023952,,,,,,,,,,,8,06,3,7,,,,,,,,,,,,,,,,,,,,,,,,,,,,,
65e8cf8f4c7424fa062e54a3,TCR,2024-06-25_12h46.26.766,LearnStrategy,2023.2.3,Win32,59.88023952,,,,,,,,,,,4,05,3,8,,,,,,,,,,,,,,,,,,,,,,,,,,,,,
65e8cf8f4c7424fa062e54a3,TCR,2024-06-25_12h46.26.766,LearnStrategy,2023.2.3,Win32,59.88023952,,,,,,,,,,,1,04,4,1,,,,,,,,,,,,,,,,,,,,,,,,,,,,,
65e8cf8f4c7424fa062e54a3,TCR,2024-06-25_12h46.26.766,LearnStrategy,2023.2.3,Win32,59.88023952,,,,,,,,,,,6,10,4,2,,,,,,,,,,,,,,,,,,,,,,,,,,,,,
65e8cf8f4c7424fa062e54a3,TCR,2024-06-25_12h46.26.766,LearnStrategy,2023.2.3,Win32,59.88023952,,,,,,,,,,,6,15,4,3,,,,,,,,,,,,,,,,,,,,,,,,,,,,,
65e8cf8f4c7424fa062e54a3,TCR,2024-06-25_12h46.26.766,LearnStrategy,2023.2.3,Win32,59.88023952,,,,,,,,,,,4,14,4,4,,,,,,,,,,,,,,,,,,,,,,,,,,,,,
65e8cf8f4c7424fa062e54a3,TCR,2024-06-25_12h46.26.766,LearnStrategy,2023.2.3,Win32,59.88023952,,,,,,,,,,,7,16,4,5,,,,,,,,,,,,,,,,,,,,,,,,,,,,,
65e8cf8f4c7424fa062e54a3,TCR,2024-06-25_12h46.26.766,LearnStrategy,2023.2.3,Win32,59.88023952,,,,,,,,,,,3,02,4,6,,,,,,,,,,,,,,,,,,,,,,,,,,,,,
65e8cf8f4c7424fa062e54a3,TCR,2024-06-25_12h46.26.766,LearnStrategy,2023.2.3,Win32,59.88023952,,,,,,,,,,,1,03,4,7,,,,,,,,,,,,,,,,,,,,,,,,,,,,,
65e8cf8f4c7424fa062e54a3,TCR,2024-06-25_12h46.26.766,LearnStrategy,2023.2.3,Win32,59.88023952,,,,,,,,,,,4,08,4,8,,,,,,,,,,,,,,,,,,,,,,,,,,,,,
65e8cf8f4c7424fa062e54a3,TCR,2024-06-25_12h46.26.766,LearnStrategy,2023.2.3,Win32,59.88023952,,,,,,,,,,,3,11,5,1,,,,,,,,,,,,,,,,,,,,,,,,,,,,,
65e8cf8f4c7424fa062e54a3,TCR,2024-06-25_12h46.26.766,LearnStrategy,2023.2.3,Win32,59.88023952,,,,,,,,,,,5,06,5,2,,,,,,,,,,,,,,,,,,,,,,,,,,,,,
65e8cf8f4c7424fa062e54a3,TCR,2024-06-25_12h46.26.766,LearnStrategy,2023.2.3,Win32,59.88023952,,,,,,,,,,,3,13,5,3,,,,,,,,,,,,,,,,,,,,,,,,,,,,,
65e8cf8f4c7424fa062e54a3,TCR,2024-06-25_12h46.26.766,LearnStrategy,2023.2.3,Win32,59.88023952,,,,,,,,,,,1,01,5,4,,,,,,,,,,,,,,,,,,,,,,,,,,,,,
65e8cf8f4c7424fa062e54a3,TCR,2024-06-25_12h46.26.766,LearnStrategy,2023.2.3,Win32,59.88023952,,,,,,,,,,,2,11,5,5,,,,,,,,,,,,,,,,,,,,,,,,,,,,,
65e8cf8f4c7424fa062e54a3,TCR,2024-06-25_12h46.26.766,LearnStrategy,2023.2.3,Win32,59.88023952,,,,,,,,,,,3,14,5,6,,,,,,,,,,,,,,,,,,,,,,,,,,,,,
65e8cf8f4c7424fa062e54a3,TCR,2024-06-25_12h46.26.766,LearnStrategy,2023.2.3,Win32,59.88023952,,,,,,,,,,,7,13,5,7,,,,,,,,,,,,,,,,,,,,,,,,,,,,,
65e8cf8f4c7424fa062e54a3,TCR,2024-06-25_12h46.26.766,LearnStrategy,2023.2.3,Win32,59.88023952,,,,,,,,,,,2,08,5,8,,,,,,,,,,,,,,,,,,,,,,,,,,,,,
65e8cf8f4c7424fa062e54a3,TCR,2024-06-25_12h46.26.766,LearnStrategy,2023.2.3,Win32,59.88023952,,,,,,,,,,,1,09,6,1,,,,,,,,,,,,,,,,,,,,,,,,,,,,,
65e8cf8f4c7424fa062e54a3,TCR,2024-06-25_12h46.26.766,LearnStrategy,2023.2.3,Win32,59.88023952,,,,,,,,,,,1,16,6,2,,,,,,,,,,,,,,,,,,,,,,,,,,,,,
65e8cf8f4c7424fa062e54a3,TCR,2024-06-25_12h46.26.766,LearnStrategy,2023.2.3,Win32,59.88023952,,,,,,,,,,,8,09,6,3,,,,,,,,,,,,,,,,,,,,,,,,,,,,,
65e8cf8f4c7424fa062e54a3,TCR,2024-06-25_12h46.26.766,LearnStrategy,2023.2.3,Win32,59.88023952,,,,,,,,,,,4,12,6,4,,,,,,,,,,,,,,,,,,,,,,,,,,,,,
65e8cf8f4c7424fa062e54a3,TCR,2024-06-25_12h46.26.766,LearnStrategy,2023.2.3,Win32,59.88023952,,,,,,,,,,,7,02,6,5,,,,,,,,,,,,,,,,,,,,,,,,,,,,,
65e8cf8f4c7424fa062e54a3,TCR,2024-06-25_12h46.26.766,LearnStrategy,2023.2.3,Win32,59.88023952,,,,,,,,,,,8,14,6,6,,,,,,,,,,,,,,,,,,,,,,,,,,,,,
65e8cf8f4c7424fa062e54a3,TCR,2024-06-25_12h46.26.766,LearnStrategy,2023.2.3,Win32,59.88023952,,,,,,,,,,,6,16,6,7,,,,,,,,,,,,,,,,,,,,,,,,,,,,,
65e8cf8f4c7424fa062e54a3,TCR,2024-06-25_12h46.26.766,LearnStrategy,2023.2.3,Win32,59.88023952,,,,,,,,,,,8,04,6,8,,,,,,,,,,,,,,,,,,,,,,,,,,,,,