participant,condition,date,expName,psychopyVersion,OS,frameRate,block,phase,trial,learn_mouse_2.x,learn_mouse_2.y,learn_mouse_2.leftButton,learn_mouse_2.midButton,learn_mouse_2.rightButton,learn_mouse_2.time,learn_mouse_2.clicked_name,cat,token,row,col,t_select,cat_mouse_l.x,cat_mouse_l.y,cat_mouse_l.leftButton,cat_mouse_l.midButton,cat_mouse_l.rightButton,cat_mouse_l.time,cat_mouse_l.clicked_name,resp,t_resp,corr,train_trials.thisRepN,train_trials.thisTrialN,train_trials.thisN,train_trials.thisIndex,train_trials.ran,cat_mouse_t.x,cat_mouse_t.y,cat_mouse_t.leftButton,cat_mouse_t.midButton,cat_mouse_t.rightButton,cat_mouse_t.time,cat_mouse_t.clicked_name,test_trials.thisRepN,test_trials.thisTrialN,test_trials.thisN,test_trials.thisIndex,test_trials.ran,Bonus
65f05f1dbfcc8387b992be3b,TCN,2024-06-21_17h50.05.764,LearnStrategy,2023.2.3,Win32,60.60606061,,,,,,,,,,,,,,,,,,,,,,,,,,,,,,,,,,,,,,,,,,,
65f05f1dbfcc8387b992be3b,TCN,2024-06-21_17h50.05.764,LearnStrategy,2023.2.3,Win32,60.60606061,1,1,1,-0.013020833,0.00390625,1,0,0,4.3805,rock_grid_rect_2,5,08,-1,-1,4.381,-0.134114583,-0.2578125,1,0,0,8.1794,Basalt_rect,2,8.179,0,0,0,0,0,1,,,,,,,,,,,,,
65f05f1dbfcc8387b992be3b,TCN,2024-06-21_17h50.05.764,LearnStrategy,2023.2.3,Win32,60.60606061,1,1,2,-0.022135417,-0.01171875,1,0,0,3.839,rock_grid_rect_2,6,16,-1,-1,3.839,-0.3828125,-0.248697917,1,0,0,7.0492,Andesite_rect,1,7.049,0,1,0,1,0,1,,,,,,,,,,,,,
65f05f1dbfcc8387b992be3b,TCN,2024-06-21_17h50.05.764,LearnStrategy,2023.2.3,Win32,60.60606061,1,1,3,0.048177083,-0.01171875,1,0,0,1.7755,rock_grid_rect_2,4,11,-1,-1,1.776,0.114583333,-0.239583333,1,0,0,1.075,Diorite_rect,3,1.075,0,2,0,2,0,1,,,,,,,,,,,,,
65f05f1dbfcc8387b992be3b,TCN,2024-06-21_17h50.05.764,LearnStrategy,2023.2.3,Win32,60.60606061,1,1,4,0,-0.00390625,1,0,0,1.0743,rock_grid_rect_2,8,08,-1,-1,1.074,-0.067708333,-0.399739583,1,0,0,0.9173,Pegmatite_rect,6,0.917,0,3,0,3,0,1,,,,,,,,,,,,,
65f05f1dbfcc8387b992be3b,TCN,2024-06-21_17h50.05.764,LearnStrategy,2023.2.3,Win32,60.60606061,1,1,5,-0.040364583,-0.009114583,1,0,0,1.6029,rock_grid_rect_2,8,15,-1,-1,1.603,-0.19140625,-0.251302083,1,0,0,0.9983,Basalt_rect,2,0.998,0,4,0,4,0,1,,,,,,,,,,,,,
65f05f1dbfcc8387b992be3b,TCN,2024-06-21_17h50.05.764,LearnStrategy,2023.2.3,Win32,60.60606061,1,1,6,0.069010417,-0.015625,1,0,0,1.3558,rock_grid_rect_2,4,01,-1,-1,1.356,0.376302083,-0.399739583,1,0,0,1.8434,Pumice_rect,8,1.843,0,5,0,5,0,1,,,,,,,,,,,,,
65f05f1dbfcc8387b992be3b,TCN,2024-06-21_17h50.05.764,LearnStrategy,2023.2.3,Win32,60.60606061,1,1,7,0.0078125,-0.009114583,1,0,0,1.1142,rock_grid_rect_2,7,15,-1,-1,1.114,0.134114583,-0.3984375,1,0,0,0.8738,Peridotite_rect,7,0.874,1,6,0,6,0,1,,,,,,,,,,,,,
65f05f1dbfcc8387b992be3b,TCN,2024-06-21_17h50.05.764,LearnStrategy,2023.2.3,Win32,60.60606061,1,1,8,-0.010416667,0.00390625,1,0,0,1.2838,rock_grid_rect_2,1,06,-1,-1,1.284,-0.084635417,-0.389322917,1,0,0,1.7649,Pegmatite_rect,6,1.765,0,7,0,7,0,1,,,,,,,,,,,,,
65f05f1dbfcc8387b992be3b,TCN,2024-06-21_17h50.05.764,LearnStrategy,2023.2.3,Win32,60.60606061,1,1,9,0.078125,0.014322917,1,0,0,1.1838,rock_grid_rect_2,6,07,-1,-1,1.184,-0.337239583,-0.384114583,1,0,0,1.2489,Obsidian_rect,5,1.249,0,8,0,8,0,1,,,,,,,,,,,,,
65f05f1dbfcc8387b992be3b,TCN,2024-06-21_17h50.05.764,LearnStrategy,2023.2.3,Win32,60.60606061,1,1,10,-0.053385417,-0.005208333,1,0,0,1.1806,rock_grid_rect_2,2,14,-1,-1,1.181,-0.399739583,-0.236979167,1,0,0,1.3499,Andesite_rect,1,1.35,0,9,0,9,0,1,,,,,,,,,,,,,
65f05f1dbfcc8387b992be3b,TCN,2024-06-21_17h50.05.764,LearnStrategy,2023.2.3,Win32,60.60606061,1,1,11,-0.088541667,0.002604167,1,0,0,1.0796,rock_grid_rect_2,2,06,-1,-1,1.08,-0.196614583,-0.236979167,1,0,0,1.2204,Basalt_rect,2,1.22,1,10,0,10,0,1,,,,,,,,,,,,,
65f05f1dbfcc8387b992be3b,TCN,2024-06-21_17h50.05.764,LearnStrategy,2023.2.3,Win32,60.60606061,1,1,12,-0.01953125,0.014322917,1,0,0,1.0305,rock_grid_rect_2,1,09,-1,-1,1.031,0.048177083,-0.26171875,1,0,0,1.8785,Diorite_rect,3,1.879,0,11,0,11,0,1,,,,,,,,,,,,,
65f05f1dbfcc8387b992be3b,TCN,2024-06-21_17h50.05.764,LearnStrategy,2023.2.3,Win32,60.60606061,1,1,13,0.044270833,0.001302083,1,0,0,1.5231,rock_grid_rect_2,7,05,-1,-1,1.523,0.401041667,-0.25,1,0,0,1.3198,Gabbro_rect,4,1.32,0,12,0,12,0,1,,,,,,,,,,,,,
65f05f1dbfcc8387b992be3b,TCN,2024-06-21_17h50.05.764,LearnStrategy,2023.2.3,Win32,60.60606061,1,1,14,-0.09375,-0.002604167,1,0,0,1.1844,rock_grid_rect_2,3,08,-1,-1,1.184,-0.108072917,-0.393229167,1,0,0,1.2375,Pegmatite_rect,6,1.237,0,13,0,13,0,1,,,,,,,,,,,,,
65f05f1dbfcc8387b992be3b,TCN,2024-06-21_17h50.05.764,LearnStrategy,2023.2.3,Win32,60.60606061,1,1,15,0.033854167,-0.002604167,1,0,0,3.321,rock_grid_rect_2,5,16,-1,-1,3.321,-0.12890625,-0.248697917,1,0,0,5.5043,Basalt_rect,2,5.504,0,14,0,14,0,1,,,,,,,,,,,,,
65f05f1dbfcc8387b992be3b,TCN,2024-06-21_17h50.05.764,LearnStrategy,2023.2.3,Win32,60.60606061,1,1,16,-0.126302083,-0.002604167,1,0,0,1.4924,rock_grid_rect_2,3,09,-1,-1,1.492,-0.4375,-0.37890625,1,0,0,2.0589,Obsidian_rect,5,2.059,0,15,0,15,0,1,,,,,,,,,,,,,
65f05f1dbfcc8387b992be3b,TCN,2024-06-21_17h50.05.764,LearnStrategy,2023.2.3,Win32,60.60606061,1,2,1,,,,,,,,2,10,,,,,,,,,,,2,1.727,1,,,,,,-0.143229167,-0.260416667,1,0,0,1.7271,Basalt_rect,0,0,0,0,1,
65f05f1dbfcc8387b992be3b,TCN,2024-06-21_17h50.05.764,LearnStrategy,2023.2.3,Win32,60.60606061,1,2,2,,,,,,,,5,11,,,,,,,,,,,2,1.614,0,,,,,,-0.1328125,-0.256510417,1,0,0,1.6144,Basalt_rect,1,0,1,0,1,
65f05f1dbfcc8387b992be3b,TCN,2024-06-21_17h50.05.764,LearnStrategy,2023.2.3,Win32,60.60606061,1,2,3,,,,,,,,3,16,,,,,,,,,,,4,4.382,0,,,,,,0.43359375,-0.248697917,1,0,0,4.3824,Gabbro_rect,2,0,2,0,1,
65f05f1dbfcc8387b992be3b,TCN,2024-06-21_17h50.05.764,LearnStrategy,2023.2.3,Win32,60.60606061,1,2,4,,,,,,,,8,13,,,,,,,,,,,3,2.46,0,,,,,,0.131510417,-0.251302083,1,0,0,2.4602,Diorite_rect,3,0,3,0,1,
65f05f1dbfcc8387b992be3b,TCN,2024-06-21_17h50.05.764,LearnStrategy,2023.2.3,Win32,60.60606061,1,2,5,,,,,,,,7,04,,,,,,,,,,,1,2.134,0,,,,,,-0.459635417,-0.234375,1,0,0,2.1339,Andesite_rect,4,0,4,0,1,
65f05f1dbfcc8387b992be3b,TCN,2024-06-21_17h50.05.764,LearnStrategy,2023.2.3,Win32,60.60606061,1,2,6,,,,,,,,4,05,,,,,,,,,,,2,1.332,0,,,,,,-0.08984375,-0.2578125,1,0,0,1.3323,Basalt_rect,5,0,5,0,1,
65f05f1dbfcc8387b992be3b,TCN,2024-06-21_17h50.05.764,LearnStrategy,2023.2.3,Win32,60.60606061,1,2,7,,,,,,,,6,13,,,,,,,,,,,5,2.575,0,,,,,,-0.373697917,-0.4140625,1,0,0,2.5753,Obsidian_rect,6,0,6,0,1,
65f05f1dbfcc8387b992be3b,TCN,2024-06-21_17h50.05.764,LearnStrategy,2023.2.3,Win32,60.60606061,1,2,8,,,,,,,,3,12,,,,,,,,,,,4,2.04,0,,,,,,0.421875,-0.231770833,1,0,0,2.04,Gabbro_rect,7,0,7,0,1,
65f05f1dbfcc8387b992be3b,TCN,2024-06-21_17h50.05.764,LearnStrategy,2023.2.3,Win32,60.60606061,1,2,9,,,,,,,,1,02,,,,,,,,,,,2,1.359,0,,,,,,-0.083333333,-0.236979167,1,0,0,1.3589,Basalt_rect,8,0,8,0,1,
65f05f1dbfcc8387b992be3b,TCN,2024-06-21_17h50.05.764,LearnStrategy,2023.2.3,Win32,60.60606061,1,2,10,,,,,,,,8,02,,,,,,,,,,,3,1.053,0,,,,,,0.151041667,-0.2421875,1,0,0,1.0528,Diorite_rect,9,0,9,0,1,
65f05f1dbfcc8387b992be3b,TCN,2024-06-21_17h50.05.764,LearnStrategy,2023.2.3,Win32,60.60606061,1,2,11,,,,,,,,1,10,,,,,,,,,,,2,4.235,0,,,,,,-0.1484375,-0.263020833,1,0,0,4.2346,Basalt_rect,10,0,10,0,1,
65f05f1dbfcc8387b992be3b,TCN,2024-06-21_17h50.05.764,LearnStrategy,2023.2.3,Win32,60.60606061,1,2,12,,,,,,,,6,11,,,,,,,,,,,4,3.973,0,,,,,,0.388020833,-0.236979167,1,0,0,3.9731,Gabbro_rect,11,0,11,0,1,
65f05f1dbfcc8387b992be3b,TCN,2024-06-21_17h50.05.764,LearnStrategy,2023.2.3,Win32,60.60606061,1,2,13,,,,,,,,2,01,,,,,,,,,,,2,1.668,1,,,,,,-0.11328125,-0.264322917,1,0,0,1.6685,Basalt_rect,12,0,12,0,1,
65f05f1dbfcc8387b992be3b,TCN,2024-06-21_17h50.05.764,LearnStrategy,2023.2.3,Win32,60.60606061,1,2,14,,,,,,,,7,16,,,,,,,,,,,3,1.75,0,,,,,,0.123697917,-0.260416667,1,0,0,1.7501,Diorite_rect,13,0,13,0,1,
65f05f1dbfcc8387b992be3b,TCN,2024-06-21_17h50.05.764,LearnStrategy,2023.2.3,Win32,60.60606061,1,2,15,,,,,,,,5,10,,,,,,,,,,,4,1.676,0,,,,,,0.391927083,-0.252604167,1,0,0,1.6764,Gabbro_rect,14,0,14,0,1,
65f05f1dbfcc8387b992be3b,TCN,2024-06-21_17h50.05.764,LearnStrategy,2023.2.3,Win32,60.60606061,1,2,16,,,,,,,,4,12,,,,,,,,,,,2,3.341,0,,,,,,-0.138020833,-0.263020833,1,0,0,3.3411,Basalt_rect,15,0,15,0,1,
65f05f1dbfcc8387b992be3b,TCN,2024-06-21_17h50.05.764,LearnStrategy,2023.2.3,Win32,60.60606061,2,1,1,0.024739583,0.005208333,1,0,0,1.9639,rock_grid_rect_2,4,08,-1,-1,1.964,-0.173177083,-0.25,1,0,0,2.0275,Basalt_rect,2,2.027,0,0,0,0,0,1,,,,,,,,,,,,,
65f05f1dbfcc8387b992be3b,TCN,2024-06-21_17h50.05.764,LearnStrategy,2023.2.3,Win32,60.60606061,2,1,2,-0.036458333,0.009114583,1,0,0,1.3389,rock_grid_rect_2,1,11,-1,-1,1.339,0.12890625,-0.270833333,1,0,0,1.2428,Diorite_rect,3,1.243,0,1,0,1,0,1,,,,,,,,,,,,,
65f05f1dbfcc8387b992be3b,TCN,2024-06-21_17h50.05.764,LearnStrategy,2023.2.3,Win32,60.60606061,2,1,3,-0.075520833,-0.001302083,1,0,0,1.3066,rock_grid_rect_2,6,15,-1,-1,1.307,-0.069010417,-0.26171875,1,0,0,2.6427,Basalt_rect,2,2.643,0,2,0,2,0,1,,,,,,,,,,,,,
65f05f1dbfcc8387b992be3b,TCN,2024-06-21_17h50.05.764,LearnStrategy,2023.2.3,Win32,60.60606061,2,1,4,0.08984375,-0.013020833,1,0,0,1.6484,rock_grid_rect_2,8,16,-1,-1,1.648,0.096354167,-0.397135417,1,0,0,1.4046,Peridotite_rect,7,1.405,0,3,0,3,0,1,,,,,,,,,,,,,
65f05f1dbfcc8387b992be3b,TCN,2024-06-21_17h50.05.764,LearnStrategy,2023.2.3,Win32,60.60606061,2,1,5,0.028645833,-0.009114583,1,0,0,1.4785,rock_grid_rect_2,7,07,-1,-1,1.478,0.118489583,-0.263020833,1,0,0,1.4964,Diorite_rect,3,1.496,0,4,0,4,0,1,,,,,,,,,,,,,
65f05f1dbfcc8387b992be3b,TCN,2024-06-21_17h50.05.764,LearnStrategy,2023.2.3,Win32,60.60606061,2,1,6,0.044270833,0.010416667,1,0,0,1.1753,rock_grid_rect_2,6,10,-1,-1,1.175,0.384114583,-0.407552083,1,0,0,1.9697,Pumice_rect,8,1.97,0,5,0,5,0,1,,,,,,,,,,,,,
65f05f1dbfcc8387b992be3b,TCN,2024-06-21_17h50.05.764,LearnStrategy,2023.2.3,Win32,60.60606061,2,1,7,-0.009114583,0,1,0,0,0.8514,rock_grid_rect_2,1,05,-1,-1,0.851,0.453125,-0.244791667,1,0,0,1.5503,Gabbro_rect,4,1.55,0,6,0,6,0,1,,,,,,,,,,,,,
65f05f1dbfcc8387b992be3b,TCN,2024-06-21_17h50.05.764,LearnStrategy,2023.2.3,Win32,60.60606061,2,1,8,0.044270833,0.0078125,1,0,0,1.8669,rock_grid_rect_2,2,04,-1,-1,1.867,-0.11328125,-0.264322917,1,0,0,1.6032,Basalt_rect,2,1.603,1,7,0,7,0,1,,,,,,,,,,,,,
65f05f1dbfcc8387b992be3b,TCN,2024-06-21_17h50.05.764,LearnStrategy,2023.2.3,Win32,60.60606061,2,1,9,0.044270833,0.010416667,1,0,0,1.191,rock_grid_rect_2,3,06,-1,-1,1.191,-0.376302083,-0.256510417,1,0,0,1.797,Andesite_rect,1,1.797,0,8,0,8,0,1,,,,,,,,,,,,,
65f05f1dbfcc8387b992be3b,TCN,2024-06-21_17h50.05.764,LearnStrategy,2023.2.3,Win32,60.60606061,2,1,10,0.087239583,-0.014322917,1,0,0,1.6145,rock_grid_rect_2,7,12,-1,-1,1.614,0.397135417,-0.256510417,1,0,0,2.4346,Gabbro_rect,4,2.435,0,9,0,9,0,1,,,,,,,,,,,,,
65f05f1dbfcc8387b992be3b,TCN,2024-06-21_17h50.05.764,LearnStrategy,2023.2.3,Win32,60.60606061,2,1,11,-0.02734375,0,1,0,0,1.2861,rock_grid_rect_2,4,03,-1,-1,1.286,0.100260417,-0.39453125,1,0,0,2.5675,Peridotite_rect,7,2.567,0,10,0,10,0,1,,,,,,,,,,,,,
65f05f1dbfcc8387b992be3b,TCN,2024-06-21_17h50.05.764,LearnStrategy,2023.2.3,Win32,60.60606061,2,1,12,-0.044270833,0.001302083,1,0,0,1.5034,rock_grid_rect_2,2,02,-1,-1,1.503,0.350260417,-0.263020833,1,0,0,2.4008,Gabbro_rect,4,2.401,0,11,0,11,0,1,,,,,,,,,,,,,
65f05f1dbfcc8387b992be3b,TCN,2024-06-21_17h50.05.764,LearnStrategy,2023.2.3,Win32,60.60606061,2,1,13,0.12890625,-0.006510417,1,0,0,1.3958,rock_grid_rect_2,5,14,-1,-1,1.396,0.09765625,-0.399739583,1,0,0,2.0792,Peridotite_rect,7,2.079,0,12,0,12,0,1,,,,,,,,,,,,,
65f05f1dbfcc8387b992be3b,TCN,2024-06-21_17h50.05.764,LearnStrategy,2023.2.3,Win32,60.60606061,2,1,14,-0.075520833,-0.002604167,1,0,0,1.574,rock_grid_rect_2,5,06,-1,-1,1.574,-0.345052083,-0.384114583,1,0,0,1.4723,Obsidian_rect,5,1.472,1,13,0,13,0,1,,,,,,,,,,,,,
65f05f1dbfcc8387b992be3b,TCN,2024-06-21_17h50.05.764,LearnStrategy,2023.2.3,Win32,60.60606061,2,1,15,0.095052083,0.001302083,1,0,0,1.0973,rock_grid_rect_2,8,14,-1,-1,1.097,0.092447917,-0.395833333,1,0,0,3.9825,Peridotite_rect,7,3.983,0,14,0,14,0,1,,,,,,,,,,,,,
65f05f1dbfcc8387b992be3b,TCN,2024-06-21_17h50.05.764,LearnStrategy,2023.2.3,Win32,60.60606061,2,1,16,0.041666667,0.005208333,1,0,0,1.2506,rock_grid_rect_2,3,15,-1,-1,1.251,0.069010417,-0.407552083,1,0,0,2.627,Peridotite_rect,7,2.627,0,15,0,15,0,1,,,,,,,,,,,,,
65f05f1dbfcc8387b992be3b,TCN,2024-06-21_17h50.05.764,LearnStrategy,2023.2.3,Win32,60.60606061,2,2,1,,,,,,,,3,10,,,,,,,,,,,4,1.836,0,,,,,,0.393229167,-0.263020833,1,0,0,1.8356,Gabbro_rect,0,0,0,0,1,
65f05f1dbfcc8387b992be3b,TCN,2024-06-21_17h50.05.764,LearnStrategy,2023.2.3,Win32,60.60606061,2,2,2,,,,,,,,1,07,,,,,,,,,,,7,2.46,0,,,,,,0.07421875,-0.40625,1,0,0,2.4603,Peridotite_rect,1,0,1,0,1,
65f05f1dbfcc8387b992be3b,TCN,2024-06-21_17h50.05.764,LearnStrategy,2023.2.3,Win32,60.60606061,2,2,3,,,,,,,,8,05,,,,,,,,,,,6,1.612,0,,,,,,-0.088541667,-0.407552083,1,0,0,1.6117,Pegmatite_rect,2,0,2,0,1,
65f05f1dbfcc8387b992be3b,TCN,2024-06-21_17h50.05.764,LearnStrategy,2023.2.3,Win32,60.60606061,2,2,4,,,,,,,,3,02,,,,,,,,,,,5,4.931,0,,,,,,-0.37109375,-0.389322917,1,0,0,4.9305,Obsidian_rect,3,0,3,0,1,
65f05f1dbfcc8387b992be3b,TCN,2024-06-21_17h50.05.764,LearnStrategy,2023.2.3,Win32,60.60606061,2,2,5,,,,,,,,7,13,,,,,,,,,,,2,2.755,0,,,,,,-0.1328125,-0.259114583,1,0,0,2.7553,Basalt_rect,4,0,4,0,1,
65f05f1dbfcc8387b992be3b,TCN,2024-06-21_17h50.05.764,LearnStrategy,2023.2.3,Win32,60.60606061,2,2,6,,,,,,,,2,16,,,,,,,,,,,7,2.035,0,,,,,,0.131510417,-0.408854167,1,0,0,2.035,Peridotite_rect,5,0,5,0,1,
65f05f1dbfcc8387b992be3b,TCN,2024-06-21_17h50.05.764,LearnStrategy,2023.2.3,Win32,60.60606061,2,2,7,,,,,,,,5,09,,,,,,,,,,,3,4.612,0,,,,,,0.119791667,-0.255208333,1,0,0,4.6125,Diorite_rect,6,0,6,0,1,
65f05f1dbfcc8387b992be3b,TCN,2024-06-21_17h50.05.764,LearnStrategy,2023.2.3,Win32,60.60606061,2,2,8,,,,,,,,8,10,,,,,,,,,,,8,3.533,1,,,,,,0.3203125,-0.40625,1,0,0,3.5327,Pumice_rect,7,0,7,0,1,
65f05f1dbfcc8387b992be3b,TCN,2024-06-21_17h50.05.764,LearnStrategy,2023.2.3,Win32,60.60606061,2,2,9,,,,,,,,4,16,,,,,,,,,,,2,1.564,0,,,,,,-0.170572917,-0.260416667,1,0,0,1.5636,Basalt_rect,8,0,8,0,1,
65f05f1dbfcc8387b992be3b,TCN,2024-06-21_17h50.05.764,LearnStrategy,2023.2.3,Win32,60.60606061,2,2,10,,,,,,,,7,14,,,,,,,,,,,3,2.275,0,,,,,,0.147135417,-0.26171875,1,0,0,2.2747,Diorite_rect,9,0,9,0,1,
65f05f1dbfcc8387b992be3b,TCN,2024-06-21_17h50.05.764,LearnStrategy,2023.2.3,Win32,60.60606061,2,2,11,,,,,,,,1,14,,,,,,,,,,,5,1.308,0,,,,,,-0.3671875,-0.4140625,1,0,0,1.3083,Obsidian_rect,10,0,10,0,1,
65f05f1dbfcc8387b992be3b,TCN,2024-06-21_17h50.05.764,LearnStrategy,2023.2.3,Win32,60.60606061,2,2,12,,,,,,,,6,09,,,,,,,,,,,5,2.02,0,,,,,,-0.427083333,-0.39453125,1,0,0,2.02,Obsidian_rect,11,0,11,0,1,
65f05f1dbfcc8387b992be3b,TCN,2024-06-21_17h50.05.764,LearnStrategy,2023.2.3,Win32,60.60606061,2,2,13,,,,,,,,6,08,,,,,,,,,,,5,1.747,0,,,,,,-0.350260417,-0.393229167,1,0,0,1.747,Obsidian_rect,12,0,12,0,1,
65f05f1dbfcc8387b992be3b,TCN,2024-06-21_17h50.05.764,LearnStrategy,2023.2.3,Win32,60.60606061,2,2,14,,,,,,,,4,09,,,,,,,,,,,2,1.581,0,,,,,,-0.095052083,-0.26171875,1,0,0,1.5813,Basalt_rect,13,0,13,0,1,
65f05f1dbfcc8387b992be3b,TCN,2024-06-21_17h50.05.764,LearnStrategy,2023.2.3,Win32,60.60606061,2,2,15,,,,,,,,2,11,,,,,,,,,,,1,1.019,0,,,,,,-0.395833333,-0.2578125,1,0,0,1.019,Andesite_rect,14,0,14,0,1,
65f05f1dbfcc8387b992be3b,TCN,2024-06-21_17h50.05.764,LearnStrategy,2023.2.3,Win32,60.60606061,2,2,16,,,,,,,,5,07,,,,,,,,,,,6,0.582,0,,,,,,-0.095052083,-0.403645833,1,0,0,0.582,Pegmatite_rect,15,0,15,0,1,
65f05f1dbfcc8387b992be3b,TCN,2024-06-21_17h50.05.764,LearnStrategy,2023.2.3,Win32,60.60606061,3,1,1,0.1328125,-0.001302083,1,0,0,1.3125,rock_grid_rect_2,8,03,-1,-1,1.313,0.212239583,-0.265625,1,0,0,1.388,Diorite_rect,3,1.388,0,0,0,0,0,1,,,,,,,,,,,,,
65f05f1dbfcc8387b992be3b,TCN,2024-06-21_17h50.05.764,LearnStrategy,2023.2.3,Win32,60.60606061,3,1,2,0.045572917,-0.0078125,1,0,0,1.0452,rock_grid_rect_2,5,05,-1,-1,1.045,0.158854167,-0.265625,1,0,0,1.6895,Diorite_rect,3,1.69,0,1,0,1,0,1,,,,,,,,,,,,,
65f05f1dbfcc8387b992be3b,TCN,2024-06-21_17h50.05.764,LearnStrategy,2023.2.3,Win32,60.60606061,3,1,3,0.032552083,0.009114583,1,0,0,1.4739,rock_grid_rect_2,6,05,-1,-1,1.474,-0.430989583,-0.40625,1,0,0,2.0695,Obsidian_rect,5,2.069,0,2,0,2,0,1,,,,,,,,,,,,,
65f05f1dbfcc8387b992be3b,TCN,2024-06-21_17h50.05.764,LearnStrategy,2023.2.3,Win32,60.60606061,3,1,4,0.03515625,0.006510417,1,0,0,1.1022,rock_grid_rect_2,4,14,-1,-1,1.102,-0.071614583,-0.415364583,1,0,0,3.2341,Pegmatite_rect,6,3.234,0,3,0,3,0,1,,,,,,,,,,,,,
65f05f1dbfcc8387b992be3b,TCN,2024-06-21_17h50.05.764,LearnStrategy,2023.2.3,Win32,60.60606061,3,1,5,0.1171875,0.009114583,1,0,0,1.2482,rock_grid_rect_2,7,10,-1,-1,1.248,0.1328125,-0.420572917,1,0,0,1.5433,Peridotite_rect,7,1.543,1,4,0,4,0,1,,,,,,,,,,,,,
65f05f1dbfcc8387b992be3b,TCN,2024-06-21_17h50.05.764,LearnStrategy,2023.2.3,Win32,60.60606061,3,1,6,0.053385417,-0.020833333,1,0,0,1.1943,rock_grid_rect_2,1,16,-1,-1,1.194,0.466145833,-0.40625,1,0,0,3.8409,Pumice_rect,8,3.841,0,5,0,5,0,1,,,,,,,,,,,,,
65f05f1dbfcc8387b992be3b,TCN,2024-06-21_17h50.05.764,LearnStrategy,2023.2.3,Win32,60.60606061,3,1,7,0.015625,-0.009114583,1,0,0,1.7135,rock_grid_rect_2,2,12,-1,-1,1.713,-0.17578125,-0.244791667,1,0,0,1.5814,Basalt_rect,2,1.581,1,6,0,6,0,1,,,,,,,,,,,,,
65f05f1dbfcc8387b992be3b,TCN,2024-06-21_17h50.05.764,LearnStrategy,2023.2.3,Win32,60.60606061,3,1,8,0.104166667,-0.006510417,1,0,0,1.3245,rock_grid_rect_2,3,11,-1,-1,1.325,-0.350260417,-0.25,1,0,0,3.2797,Andesite_rect,1,3.28,0,7,0,7,0,1,,,,,,,,,,,,,
65f05f1dbfcc8387b992be3b,TCN,2024-06-21_17h50.05.764,LearnStrategy,2023.2.3,Win32,60.60606061,3,1,9,0.12109375,0.005208333,1,0,0,1.1256,rock_grid_rect_2,5,12,-1,-1,1.126,-0.337239583,-0.384114583,1,0,0,1.2666,Obsidian_rect,5,1.267,1,8,0,8,0,1,,,,,,,,,,,,,
65f05f1dbfcc8387b992be3b,TCN,2024-06-21_17h50.05.764,LearnStrategy,2023.2.3,Win32,60.60606061,3,1,10,0.095052083,-0.00390625,1,0,0,1.2799,rock_grid_rect_2,7,08,-1,-1,1.28,-0.3125,-0.244791667,1,0,0,2.7848,Andesite_rect,1,2.785,0,9,0,9,0,1,,,,,,,,,,,,,
65f05f1dbfcc8387b992be3b,TCN,2024-06-21_17h50.05.764,LearnStrategy,2023.2.3,Win32,60.60606061,3,1,11,0.032552083,-0.006510417,1,0,0,1.1484,rock_grid_rect_2,4,10,-1,-1,1.148,0.346354167,-0.399739583,1,0,0,2.6796,Pumice_rect,8,2.68,0,10,0,10,0,1,,,,,,,,,,,,,
65f05f1dbfcc8387b992be3b,TCN,2024-06-21_17h50.05.764,LearnStrategy,2023.2.3,Win32,60.60606061,3,1,12,0.037760417,0.002604167,1,0,0,1.1587,rock_grid_rect_2,1,01,-1,-1,1.159,0.325520833,-0.399739583,1,0,0,1.6951,Pumice_rect,8,1.695,0,11,0,11,0,1,,,,,,,,,,,,,
65f05f1dbfcc8387b992be3b,TCN,2024-06-21_17h50.05.764,LearnStrategy,2023.2.3,Win32,60.60606061,3,1,13,0.001302083,-0.015625,1,0,0,1.1465,rock_grid_rect_2,6,12,-1,-1,1.146,-0.067708333,-0.389322917,1,0,0,5.9234,Pegmatite_rect,6,5.923,1,12,0,12,0,1,,,,,,,,,,,,,
65f05f1dbfcc8387b992be3b,TCN,2024-06-21_17h50.05.764,LearnStrategy,2023.2.3,Win32,60.60606061,3,1,14,0.052083333,-0.0078125,1,0,0,1.4259,rock_grid_rect_2,8,04,-1,-1,1.426,0.16796875,-0.397135417,1,0,0,4.5303,Peridotite_rect,7,4.53,0,13,0,13,0,1,,,,,,,,,,,,,
65f05f1dbfcc8387b992be3b,TCN,2024-06-21_17h50.05.764,LearnStrategy,2023.2.3,Win32,60.60606061,3,1,15,0.154947917,-0.00390625,1,0,0,1.1284,rock_grid_rect_2,3,07,-1,-1,1.128,0.134114583,-0.397135417,1,0,0,1.2651,Peridotite_rect,7,1.265,0,14,0,14,0,1,,,,,,,,,,,,,
65f05f1dbfcc8387b992be3b,TCN,2024-06-21_17h50.05.764,LearnStrategy,2023.2.3,Win32,60.60606061,3,1,16,0.080729167,-0.006510417,1,0,0,1.3313,rock_grid_rect_2,2,08,-1,-1,1.331,-0.111979167,-0.25,1,0,0,1.2105,Basalt_rect,2,1.211,1,15,0,15,0,1,,,,,,,,,,,,,
65f05f1dbfcc8387b992be3b,TCN,2024-06-21_17h50.05.764,LearnStrategy,2023.2.3,Win32,60.60606061,3,2,1,,,,,,,,4,15,,,,,,,,,,,3,1.309,0,,,,,,0.096354167,-0.248697917,1,0,0,1.3094,Diorite_rect,0,0,0,0,1,
65f05f1dbfcc8387b992be3b,TCN,2024-06-21_17h50.05.764,LearnStrategy,2023.2.3,Win32,60.60606061,3,2,2,,,,,,,,8,06,,,,,,,,,,,8,4.082,1,,,,,,0.389322917,-0.415364583,1,0,0,4.0816,Pumice_rect,1,0,1,0,1,
65f05f1dbfcc8387b992be3b,TCN,2024-06-21_17h50.05.764,LearnStrategy,2023.2.3,Win32,60.60606061,3,2,3,,,,,,,,4,13,,,,,,,,,,,7,2.72,0,,,,,,0.158854167,-0.40625,1,0,0,2.7196,Peridotite_rect,2,0,2,0,1,
65f05f1dbfcc8387b992be3b,TCN,2024-06-21_17h50.05.764,LearnStrategy,2023.2.3,Win32,60.60606061,3,2,4,,,,,,,,3,13,,,,,,,,,,,4,2.726,0,,,,,,0.360677083,-0.256510417,1,0,0,2.7264,Gabbro_rect,3,0,3,0,1,
65f05f1dbfcc8387b992be3b,TCN,2024-06-21_17h50.05.764,LearnStrategy,2023.2.3,Win32,60.60606061,3,2,5,,,,,,,,2,05,,,,,,,,,,,2,1.174,1,,,,,,-0.188802083,-0.252604167,1,0,0,1.1745,Basalt_rect,4,0,4,0,1,
65f05f1dbfcc8387b992be3b,TCN,2024-06-21_17h50.05.764,LearnStrategy,2023.2.3,Win32,60.60606061,3,2,6,,,,,,,,1,03,,,,,,,,,,,2,1.12,0,,,,,,-0.149739583,-0.2578125,1,0,0,1.1203,Basalt_rect,5,0,5,0,1,
65f05f1dbfcc8387b992be3b,TCN,2024-06-21_17h50.05.764,LearnStrategy,2023.2.3,Win32,60.60606061,3,2,7,,,,,,,,5,02,,,,,,,,,,,5,1.34,1,,,,,,-0.38671875,-0.407552083,1,0,0,1.3405,Obsidian_rect,6,0,6,0,1,
65f05f1dbfcc8387b992be3b,TCN,2024-06-21_17h50.05.764,LearnStrategy,2023.2.3,Win32,60.60606061,3,2,8,,,,,,,,7,06,,,,,,,,,,,1,2.124,0,,,,,,-0.3984375,-0.234375,1,0,0,2.1244,Andesite_rect,7,0,7,0,1,
65f05f1dbfcc8387b992be3b,TCN,2024-06-21_17h50.05.764,LearnStrategy,2023.2.3,Win32,60.60606061,3,2,9,,,,,,,,1,04,,,,,,,,,,,1,0.442,1,,,,,,-0.3984375,-0.234375,1,0,0,0.4423,Andesite_rect,8,0,8,0,1,
65f05f1dbfcc8387b992be3b,TCN,2024-06-21_17h50.05.764,LearnStrategy,2023.2.3,Win32,60.60606061,3,2,10,,,,,,,,2,09,,,,,,,,,,,1,0.448,0,,,,,,-0.3984375,-0.234375,1,0,0,0.4478,Andesite_rect,9,0,9,0,1,
65f05f1dbfcc8387b992be3b,TCN,2024-06-21_17h50.05.764,LearnStrategy,2023.2.3,Win32,60.60606061,3,2,11,,,,,,,,6,06,,,,,,,,,,,2,1.151,0,,,,,,-0.157552083,-0.255208333,1,0,0,1.1513,Basalt_rect,10,0,10,0,1,
65f05f1dbfcc8387b992be3b,TCN,2024-06-21_17h50.05.764,LearnStrategy,2023.2.3,Win32,60.60606061,3,2,12,,,,,,,,8,09,,,,,,,,,,,4,3.218,0,,,,,,0.38671875,-0.247395833,1,0,0,3.2182,Gabbro_rect,11,0,11,0,1,
65f05f1dbfcc8387b992be3b,TCN,2024-06-21_17h50.05.764,LearnStrategy,2023.2.3,Win32,60.60606061,3,2,13,,,,,,,,5,04,,,,,,,,,,,3,1.699,0,,,,,,0.0859375,-0.251302083,1,0,0,1.6988,Diorite_rect,12,0,12,0,1,
65f05f1dbfcc8387b992be3b,TCN,2024-06-21_17h50.05.764,LearnStrategy,2023.2.3,Win32,60.60606061,3,2,14,,,,,,,,6,03,,,,,,,,,,,6,2.215,1,,,,,,-0.049479167,-0.411458333,1,0,0,2.2149,Pegmatite_rect,13,0,13,0,1,
65f05f1dbfcc8387b992be3b,TCN,2024-06-21_17h50.05.764,LearnStrategy,2023.2.3,Win32,60.60606061,3,2,15,,,,,,,,3,14,,,,,,,,,,,7,1.053,0,,,,,,0.1328125,-0.415364583,1,0,0,1.0525,Peridotite_rect,14,0,14,0,1,
65f05f1dbfcc8387b992be3b,TCN,2024-06-21_17h50.05.764,LearnStrategy,2023.2.3,Win32,60.60606061,3,2,16,,,,,,,,7,02,,,,,,,,,,,1,2.709,0,,,,,,-0.403645833,-0.231770833,1,0,0,2.7094,Andesite_rect,15,0,15,0,1,
65f05f1dbfcc8387b992be3b,TCN,2024-06-21_17h50.05.764,LearnStrategy,2023.2.3,Win32,60.60606061,4,1,1,0.0390625,-0.009114583,1,0,0,1.7118,rock_grid_rect_2,4,08,-1,-1,1.712,-0.3203125,-0.243489583,1,0,0,2.464,Andesite_rect,1,2.464,0,0,0,0,0,1,,,,,,,,,,,,,
65f05f1dbfcc8387b992be3b,TCN,2024-06-21_17h50.05.764,LearnStrategy,2023.2.3,Win32,60.60606061,4,1,2,-0.013020833,0.015625,1,0,0,1.1995,rock_grid_rect_2,1,05,-1,-1,1.2,-0.360677083,-0.255208333,1,0,0,2.9012,Andesite_rect,1,2.901,1,1,0,1,0,1,,,,,,,,,,,,,
65f05f1dbfcc8387b992be3b,TCN,2024-06-21_17h50.05.764,LearnStrategy,2023.2.3,Win32,60.60606061,4,1,3,-0.029947917,-0.009114583,1,0,0,1.1328,rock_grid_rect_2,2,06,-1,-1,1.133,-0.182291667,-0.255208333,1,0,0,1.2519,Basalt_rect,2,1.252,1,2,0,2,0,1,,,,,,,,,,,,,
65f05f1dbfcc8387b992be3b,TCN,2024-06-21_17h50.05.764,LearnStrategy,2023.2.3,Win32,60.60606061,4,1,4,0.088541667,-0.009114583,1,0,0,1.5957,rock_grid_rect_2,3,07,-1,-1,1.596,0.3984375,-0.412760417,1,0,0,4.3291,Pumice_rect,8,4.329,0,3,0,3,0,1,,,,,,,,,,,,,
65f05f1dbfcc8387b992be3b,TCN,2024-06-21_17h50.05.764,LearnStrategy,2023.2.3,Win32,60.60606061,4,1,5,0.0234375,-0.00390625,1,0,0,0.8796,rock_grid_rect_2,2,14,-1,-1,0.88,-0.1015625,-0.247395833,1,0,0,1.915,Basalt_rect,2,1.915,1,4,0,4,0,1,,,,,,,,,,,,,
65f05f1dbfcc8387b992be3b,TCN,2024-06-21_17h50.05.764,LearnStrategy,2023.2.3,Win32,60.60606061,4,1,6,0.067708333,0.001302083,1,0,0,1.4675,rock_grid_rect_2,7,10,-1,-1,1.468,-0.096354167,-0.399739583,1,0,0,3.3511,Pegmatite_rect,6,3.351,0,5,0,5,0,1,,,,,,,,,,,,,
65f05f1dbfcc8387b992be3b,TCN,2024-06-21_17h50.05.764,LearnStrategy,2023.2.3,Win32,60.60606061,4,1,7,0.07421875,0.006510417,1,0,0,1.2081,rock_grid_rect_2,8,14,-1,-1,1.208,-0.165364583,-0.39453125,1,0,0,1.511,Pegmatite_rect,6,1.511,0,6,0,6,0,1,,,,,,,,,,,,,
65f05f1dbfcc8387b992be3b,TCN,2024-06-21_17h50.05.764,LearnStrategy,2023.2.3,Win32,60.60606061,4,1,8,0.053385417,-0.009114583,1,0,0,1.0029,rock_grid_rect_2,5,08,-1,-1,1.003,0.173177083,-0.26171875,1,0,0,2.3721,Diorite_rect,3,2.372,0,7,0,7,0,1,,,,,,,,,,,,,
65f05f1dbfcc8387b992be3b,TCN,2024-06-21_17h50.05.764,LearnStrategy,2023.2.3,Win32,60.60606061,4,1,9,0.02734375,-0.014322917,1,0,0,1.292,rock_grid_rect_2,3,11,-1,-1,1.292,0.13671875,-0.24609375,1,0,0,1.3206,Diorite_rect,3,1.321,1,8,0,8,0,1,,,,,,,,,,,,,
65f05f1dbfcc8387b992be3b,TCN,2024-06-21_17h50.05.764,LearnStrategy,2023.2.3,Win32,60.60606061,4,1,10,0.079427083,-0.018229167,1,0,0,1.0594,rock_grid_rect_2,8,08,-1,-1,1.059,0.380208333,-0.407552083,1,0,0,1.9777,Pumice_rect,8,1.978,1,9,0,9,0,1,,,,,,,,,,,,,
65f05f1dbfcc8387b992be3b,TCN,2024-06-21_17h50.05.764,LearnStrategy,2023.2.3,Win32,60.60606061,4,1,11,0.076822917,-0.005208333,1,0,0,1.2221,rock_grid_rect_2,7,15,-1,-1,1.222,-0.076822917,-0.388020833,1,0,0,1.6826,Pegmatite_rect,6,1.683,0,10,0,10,0,1,,,,,,,,,,,,,
65f05f1dbfcc8387b992be3b,TCN,2024-06-21_17h50.05.764,LearnStrategy,2023.2.3,Win32,60.60606061,4,1,12,0.024739583,0.009114583,1,0,0,1.1677,rock_grid_rect_2,1,09,-1,-1,1.168,-0.3984375,-0.248697917,1,0,0,2.9129,Andesite_rect,1,2.913,1,11,0,11,0,1,,,,,,,,,,,,,
65f05f1dbfcc8387b992be3b,TCN,2024-06-21_17h50.05.764,LearnStrategy,2023.2.3,Win32,60.60606061,4,1,13,-0.018229167,0.002604167,1,0,0,1.0608,rock_grid_rect_2,6,16,-1,-1,1.061,0.149739583,-0.248697917,1,0,0,1.5876,Diorite_rect,3,1.588,0,12,0,12,0,1,,,,,,,,,,,,,
65f05f1dbfcc8387b992be3b,TCN,2024-06-21_17h50.05.764,LearnStrategy,2023.2.3,Win32,60.60606061,4,1,14,-0.024739583,-0.00390625,1,0,0,1.3319,rock_grid_rect_2,5,12,-1,-1,1.332,-0.3359375,-0.37890625,1,0,0,1.6329,Obsidian_rect,5,1.633,1,13,0,13,0,1,,,,,,,,,,,,,
65f05f1dbfcc8387b992be3b,TCN,2024-06-21_17h50.05.764,LearnStrategy,2023.2.3,Win32,60.60606061,4,1,15,0.130208333,0.002604167,1,0,0,1.927,rock_grid_rect_2,4,11,-1,-1,1.927,-0.134114583,-0.24609375,1,0,0,3.4703,Basalt_rect,2,3.47,0,14,0,14,0,1,,,,,,,,,,,,,
65f05f1dbfcc8387b992be3b,TCN,2024-06-21_17h50.05.764,LearnStrategy,2023.2.3,Win32,60.60606061,4,1,16,0.108072917,0.010416667,1,0,0,1.1776,rock_grid_rect_2,6,12,-1,-1,1.178,0.177083333,-0.24609375,1,0,0,1.8982,Diorite_rect,3,1.898,0,15,0,15,0,1,,,,,,,,,,,,,
65f05f1dbfcc8387b992be3b,TCN,2024-06-21_17h50.05.764,LearnStrategy,2023.2.3,Win32,60.60606061,4,2,1,,,,,,,,5,10,,,,,,,,,,,5,3.255,1,,,,,,-0.415364583,-0.404947917,1,0,0,3.2555,Obsidian_rect,0,0,0,0,1,
65f05f1dbfcc8387b992be3b,TCN,2024-06-21_17h50.05.764,LearnStrategy,2023.2.3,Win32,60.60606061,4,2,2,,,,,,,,4,16,,,,,,,,,,,2,1.233,0,,,,,,-0.235677083,-0.264322917,1,0,0,1.2335,Basalt_rect,1,0,1,0,1,
65f05f1dbfcc8387b992be3b,TCN,2024-06-21_17h50.05.764,LearnStrategy,2023.2.3,Win32,60.60606061,4,2,3,,,,,,,,7,04,,,,,,,,,,,8,2.512,0,,,,,,0.47265625,-0.395833333,1,0,0,2.5124,Pumice_rect,2,0,2,0,1,
65f05f1dbfcc8387b992be3b,TCN,2024-06-21_17h50.05.764,LearnStrategy,2023.2.3,Win32,60.60606061,4,2,4,,,,,,,,3,13,,,,,,,,,,,3,1.849,1,,,,,,0.17578125,-0.231770833,1,0,0,1.849,Diorite_rect,3,0,3,0,1,
65f05f1dbfcc8387b992be3b,TCN,2024-06-21_17h50.05.764,LearnStrategy,2023.2.3,Win32,60.60606061,4,2,5,,,,,,,,7,13,,,,,,,,,,,6,2.455,0,,,,,,-0.061197917,-0.40234375,1,0,0,2.4546,Pegmatite_rect,4,0,4,0,1,
65f05f1dbfcc8387b992be3b,TCN,2024-06-21_17h50.05.764,LearnStrategy,2023.2.3,Win32,60.60606061,4,2,6,,,,,,,,2,05,,,,,,,,,,,2,0.98,1,,,,,,-0.104166667,-0.252604167,1,0,0,0.9796,Basalt_rect,5,0,5,0,1,
65f05f1dbfcc8387b992be3b,TCN,2024-06-21_17h50.05.764,LearnStrategy,2023.2.3,Win32,60.60606061,4,2,7,,,,,,,,6,03,,,,,,,,,,,8,1.858,0,,,,,,0.322916667,-0.38671875,1,0,0,1.8581,Pumice_rect,6,0,6,0,1,
65f05f1dbfcc8387b992be3b,TCN,2024-06-21_17h50.05.764,LearnStrategy,2023.2.3,Win32,60.60606061,4,2,8,,,,,,,,8,06,,,,,,,,,,,8,1.777,1,,,,,,0.373697917,-0.39453125,1,0,0,1.7774,Pumice_rect,7,0,7,0,1,
65f05f1dbfcc8387b992be3b,TCN,2024-06-21_17h50.05.764,LearnStrategy,2023.2.3,Win32,60.60606061,4,2,9,,,,,,,,2,11,,,,,,,,,,,6,3.351,0,,,,,,-0.061197917,-0.41796875,1,0,0,3.3512,Pegmatite_rect,8,0,8,0,1,
65f05f1dbfcc8387b992be3b,TCN,2024-06-21_17h50.05.764,LearnStrategy,2023.2.3,Win32,60.60606061,4,2,10,,,,,,,,1,14,,,,,,,,,,,1,1.295,1,,,,,,-0.341145833,-0.25,1,0,0,1.2949,Andesite_rect,9,0,9,0,1,
65f05f1dbfcc8387b992be3b,TCN,2024-06-21_17h50.05.764,LearnStrategy,2023.2.3,Win32,60.60606061,4,2,11,,,,,,,,1,02,,,,,,,,,,,8,4.234,0,,,,,,0.389322917,-0.391927083,1,0,0,4.234,Pumice_rect,10,0,10,0,1,
65f05f1dbfcc8387b992be3b,TCN,2024-06-21_17h50.05.764,LearnStrategy,2023.2.3,Win32,60.60606061,4,2,12,,,,,,,,4,13,,,,,,,,,,,7,1.913,0,,,,,,0.075520833,-0.399739583,1,0,0,1.9134,Peridotite_rect,11,0,11,0,1,
65f05f1dbfcc8387b992be3b,TCN,2024-06-21_17h50.05.764,LearnStrategy,2023.2.3,Win32,60.60606061,4,2,13,,,,,,,,8,09,,,,,,,,,,,8,3.942,1,,,,,,0.321614583,-0.399739583,1,0,0,3.9418,Pumice_rect,12,0,12,0,1,
65f05f1dbfcc8387b992be3b,TCN,2024-06-21_17h50.05.764,LearnStrategy,2023.2.3,Win32,60.60606061,4,2,14,,,,,,,,3,14,,,,,,,,,,,6,1.198,0,,,,,,-0.079427083,-0.39453125,1,0,0,1.1985,Pegmatite_rect,13,0,13,0,1,
65f05f1dbfcc8387b992be3b,TCN,2024-06-21_17h50.05.764,LearnStrategy,2023.2.3,Win32,60.60606061,4,2,15,,,,,,,,5,07,,,,,,,,,,,5,1.295,1,,,,,,-0.459635417,-0.403645833,1,0,0,1.2946,Obsidian_rect,14,0,14,0,1,
65f05f1dbfcc8387b992be3b,TCN,2024-06-21_17h50.05.764,LearnStrategy,2023.2.3,Win32,60.60606061,4,2,16,,,,,,,,6,13,,,,,,,,,,,7,1.409,0,,,,,,0.088541667,-0.415364583,1,0,0,1.4087,Peridotite_rect,15,0,15,0,1,
65f05f1dbfcc8387b992be3b,TCN,2024-06-21_17h50.05.764,LearnStrategy,2023.2.3,Win32,60.60606061,5,1,1,-0.0859375,-0.00390625,1,0,0,1.3472,rock_grid_rect_2,4,03,-1,-1,1.347,-0.080729167,-0.26171875,1,0,0,1.3714,Basalt_rect,2,1.371,0,0,0,0,0,1,,,,,,,,,,,,,
65f05f1dbfcc8387b992be3b,TCN,2024-06-21_17h50.05.764,LearnStrategy,2023.2.3,Win32,60.60606061,5,1,2,-0.009114583,-0.0078125,1,0,0,1.1777,rock_grid_rect_2,6,10,-1,-1,1.178,0.436197917,-0.24609375,1,0,0,1.5101,Gabbro_rect,4,1.51,0,1,0,1,0,1,,,,,,,,,,,,,
65f05f1dbfcc8387b992be3b,TCN,2024-06-21_17h50.05.764,LearnStrategy,2023.2.3,Win32,60.60606061,5,1,3,0.095052083,-0.01171875,1,0,0,1.4033,rock_grid_rect_2,7,05,-1,-1,1.403,-0.391927083,-0.233072917,1,0,0,2.5859,Andesite_rect,1,2.586,0,2,0,2,0,1,,,,,,,,,,,,,
65f05f1dbfcc8387b992be3b,TCN,2024-06-21_17h50.05.764,LearnStrategy,2023.2.3,Win32,60.60606061,5,1,4,0.0390625,-0.014322917,1,0,0,1.0879,rock_grid_rect_2,8,16,-1,-1,1.088,0.384114583,-0.416666667,1,0,0,1.8698,Pumice_rect,8,1.87,1,3,0,3,0,1,,,,,,,,,,,,,
65f05f1dbfcc8387b992be3b,TCN,2024-06-21_17h50.05.764,LearnStrategy,2023.2.3,Win32,60.60606061,5,1,5,0.04296875,-0.009114583,1,0,0,1.198,rock_grid_rect_2,1,11,-1,-1,1.198,-0.100260417,-0.397135417,1,0,0,2.7593,Pegmatite_rect,6,2.759,0,4,0,4,0,1,,,,,,,,,,,,,
65f05f1dbfcc8387b992be3b,TCN,2024-06-21_17h50.05.764,LearnStrategy,2023.2.3,Win32,60.60606061,5,1,6,-0.00390625,0.009114583,1,0,0,0.8547,rock_grid_rect_2,2,08,-1,-1,0.855,-0.165364583,-0.244791667,1,0,0,1.4887,Basalt_rect,2,1.489,1,5,0,5,0,1,,,,,,,,,,,,,
65f05f1dbfcc8387b992be3b,TCN,2024-06-21_17h50.05.764,LearnStrategy,2023.2.3,Win32,60.60606061,5,1,7,0.041666667,-0.005208333,1,0,0,1.3801,rock_grid_rect_2,3,06,-1,-1,1.38,0.10546875,-0.243489583,1,0,0,2.8153,Diorite_rect,3,2.815,1,6,0,6,0,1,,,,,,,,,,,,,
65f05f1dbfcc8387b992be3b,TCN,2024-06-21_17h50.05.764,LearnStrategy,2023.2.3,Win32,60.60606061,5,1,8,0.048177083,-0.001302083,1,0,0,1.0504,rock_grid_rect_2,7,07,-1,-1,1.05,-0.071614583,-0.40234375,1,0,0,2.8622,Pegmatite_rect,6,2.862,0,7,0,7,0,1,,,,,,,,,,,,,
65f05f1dbfcc8387b992be3b,TCN,2024-06-21_17h50.05.764,LearnStrategy,2023.2.3,Win32,60.60606061,5,1,9,0.119791667,0.002604167,1,0,0,1.1225,rock_grid_rect_2,2,04,-1,-1,1.122,-0.084635417,-0.23046875,1,0,0,1.4598,Basalt_rect,2,1.46,1,8,0,8,0,1,,,,,,,,,,,,,
65f05f1dbfcc8387b992be3b,TCN,2024-06-21_17h50.05.764,LearnStrategy,2023.2.3,Win32,60.60606061,5,1,10,0.05859375,-0.009114583,1,0,0,1.3339,rock_grid_rect_2,3,15,-1,-1,1.334,0.102864583,-0.391927083,1,0,0,1.2995,Peridotite_rect,7,1.3,0,9,0,9,0,1,,,,,,,,,,,,,
65f05f1dbfcc8387b992be3b,TCN,2024-06-21_17h50.05.764,LearnStrategy,2023.2.3,Win32,60.60606061,5,1,11,0,-0.005208333,1,0,0,1.0348,rock_grid_rect_2,6,05,-1,-1,1.035,-0.341145833,-0.393229167,1,0,0,2.601,Obsidian_rect,5,2.601,0,10,0,10,0,1,,,,,,,,,,,,,
65f05f1dbfcc8387b992be3b,TCN,2024-06-21_17h50.05.764,LearnStrategy,2023.2.3,Win32,60.60606061,5,1,12,0.08984375,0,1,0,0,0.8595,rock_grid_rect_2,5,16,-1,-1,0.86,-0.326822917,-0.3984375,1,0,0,1.787,Obsidian_rect,5,1.787,1,11,0,11,0,1,,,,,,,,,,,,,
65f05f1dbfcc8387b992be3b,TCN,2024-06-21_17h50.05.764,LearnStrategy,2023.2.3,Win32,60.60606061,5,1,13,0.065104167,-0.016927083,1,0,0,0.8972,rock_grid_rect_2,5,05,-1,-1,0.897,-0.45703125,-0.40625,1,0,0,1.4461,Obsidian_rect,5,1.446,1,12,0,12,0,1,,,,,,,,,,,,,
65f05f1dbfcc8387b992be3b,TCN,2024-06-21_17h50.05.764,LearnStrategy,2023.2.3,Win32,60.60606061,5,1,14,0.087239583,-0.005208333,1,0,0,1.0788,rock_grid_rect_2,1,06,-1,-1,1.079,0.384114583,-0.23828125,1,0,0,3.3979,Gabbro_rect,4,3.398,0,13,0,13,0,1,,,,,,,,,,,,,
65f05f1dbfcc8387b992be3b,TCN,2024-06-21_17h50.05.764,LearnStrategy,2023.2.3,Win32,60.60606061,5,1,15,0.065104167,-0.001302083,1,0,0,0.9572,rock_grid_rect_2,4,14,-1,-1,0.957,0.376302083,-0.247395833,1,0,0,1.0302,Gabbro_rect,4,1.03,1,14,0,14,0,1,,,,,,,,,,,,,
65f05f1dbfcc8387b992be3b,TCN,2024-06-21_17h50.05.764,LearnStrategy,2023.2.3,Win32,60.60606061,5,1,16,0.044270833,0.018229167,1,0,0,1.2274,rock_grid_rect_2,8,15,-1,-1,1.227,0.37890625,-0.401041667,1,0,0,1.6808,Pumice_rect,8,1.681,1,15,0,15,0,1,,,,,,,,,,,,,
65f05f1dbfcc8387b992be3b,TCN,2024-06-21_17h50.05.764,LearnStrategy,2023.2.3,Win32,60.60606061,5,2,1,,,,,,,,1,10,,,,,,,,,,,1,3.204,1,,,,,,-0.381510417,-0.229166667,1,0,0,3.2045,Andesite_rect,0,0,0,0,1,
65f05f1dbfcc8387b992be3b,TCN,2024-06-21_17h50.05.764,LearnStrategy,2023.2.3,Win32,60.60606061,5,2,2,,,,,,,,6,09,,,,,,,,,,,3,4.785,0,,,,,,0.083333333,-0.234375,1,0,0,4.7852,Diorite_rect,1,0,1,0,1,
65f05f1dbfcc8387b992be3b,TCN,2024-06-21_17h50.05.764,LearnStrategy,2023.2.3,Win32,60.60606061,5,2,3,,,,,,,,2,16,,,,,,,,,,,8,3.902,0,,,,,,0.38671875,-0.407552083,1,0,0,3.9016,Pumice_rect,2,0,2,0,1,
65f05f1dbfcc8387b992be3b,TCN,2024-06-21_17h50.05.764,LearnStrategy,2023.2.3,Win32,60.60606061,5,2,4,,,,,,,,7,14,,,,,,,,,,,3,2.307,0,,,,,,0.1328125,-0.240885417,1,0,0,2.3066,Diorite_rect,3,0,3,0,1,
65f05f1dbfcc8387b992be3b,TCN,2024-06-21_17h50.05.764,LearnStrategy,2023.2.3,Win32,60.60606061,5,2,5,,,,,,,,6,08,,,,,,,,,,,6,1.684,1,,,,,,-0.154947917,-0.40234375,1,0,0,1.684,Pegmatite_rect,4,0,4,0,1,
65f05f1dbfcc8387b992be3b,TCN,2024-06-21_17h50.05.764,LearnStrategy,2023.2.3,Win32,60.60606061,5,2,6,,,,,,,,8,05,,,,,,,,,,,8,3.043,1,,,,,,0.368489583,-0.412760417,1,0,0,3.0425,Pumice_rect,5,0,5,0,1,
65f05f1dbfcc8387b992be3b,TCN,2024-06-21_17h50.05.764,LearnStrategy,2023.2.3,Win32,60.60606061,5,2,7,,,,,,,,5,04,,,,,,,,,,,5,1.435,1,,,,,,-0.45703125,-0.395833333,1,0,0,1.4349,Obsidian_rect,6,0,6,0,1,
65f05f1dbfcc8387b992be3b,TCN,2024-06-21_17h50.05.764,LearnStrategy,2023.2.3,Win32,60.60606061,5,2,8,,,,,,,,8,10,,,,,,,,,,,1,1.464,0,,,,,,-0.372395833,-0.23828125,1,0,0,1.4638,Andesite_rect,7,0,7,0,1,
65f05f1dbfcc8387b992be3b,TCN,2024-06-21_17h50.05.764,LearnStrategy,2023.2.3,Win32,60.60606061,5,2,9,,,,,,,,1,04,,,,,,,,,,,1,0.688,1,,,,,,-0.372395833,-0.23828125,1,0,0,0.6884,Andesite_rect,8,0,8,0,1,
65f05f1dbfcc8387b992be3b,TCN,2024-06-21_17h50.05.764,LearnStrategy,2023.2.3,Win32,60.60606061,5,2,10,,,,,,,,5,02,,,,,,,,,,,2,1.199,0,,,,,,-0.204427083,-0.252604167,1,0,0,1.1988,Basalt_rect,9,0,9,0,1,
65f05f1dbfcc8387b992be3b,TCN,2024-06-21_17h50.05.764,LearnStrategy,2023.2.3,Win32,60.60606061,5,2,11,,,,,,,,2,01,,,,,,,,,,,2,1.086,1,,,,,,-0.147135417,-0.252604167,1,0,0,1.0863,Basalt_rect,10,0,10,0,1,
65f05f1dbfcc8387b992be3b,TCN,2024-06-21_17h50.05.764,LearnStrategy,2023.2.3,Win32,60.60606061,5,2,12,,,,,,,,4,15,,,,,,,,,,,7,4.235,0,,,,,,0.100260417,-0.404947917,1,0,0,4.2346,Peridotite_rect,11,0,11,0,1,
65f05f1dbfcc8387b992be3b,TCN,2024-06-21_17h50.05.764,LearnStrategy,2023.2.3,Win32,60.60606061,5,2,13,,,,,,,,3,16,,,,,,,,,,,7,0.691,0,,,,,,0.09765625,-0.403645833,1,0,0,0.6914,Peridotite_rect,12,0,12,0,1,
65f05f1dbfcc8387b992be3b,TCN,2024-06-21_17h50.05.764,LearnStrategy,2023.2.3,Win32,60.60606061,5,2,14,,,,,,,,7,06,,,,,,,,,,,6,0.523,0,,,,,,-0.0859375,-0.401041667,1,0,0,0.5233,Pegmatite_rect,13,0,13,0,1,
65f05f1dbfcc8387b992be3b,TCN,2024-06-21_17h50.05.764,LearnStrategy,2023.2.3,Win32,60.60606061,5,2,15,,,,,,,,4,05,,,,,,,,,,,7,0.763,0,,,,,,0.213541667,-0.401041667,1,0,0,0.7627,Peridotite_rect,14,0,14,0,1,
65f05f1dbfcc8387b992be3b,TCN,2024-06-21_17h50.05.764,LearnStrategy,2023.2.3,Win32,60.60606061,5,2,16,,,,,,,,3,02,,,,,,,,,,,3,1.44,1,,,,,,0.143229167,-0.259114583,1,0,0,1.4395,Diorite_rect,15,0,15,0,1,
65f05f1dbfcc8387b992be3b,TCN,2024-06-21_17h50.05.764,LearnStrategy,2023.2.3,Win32,60.60606061,6,1,1,0.0625,-0.001302083,1,0,0,1.5302,rock_grid_rect_2,6,07,-1,-1,1.53,0.12109375,-0.255208333,1,0,0,2.2512,Diorite_rect,3,2.251,0,0,0,0,0,1,,,,,,,,,,,,,
65f05f1dbfcc8387b992be3b,TCN,2024-06-21_17h50.05.764,LearnStrategy,2023.2.3,Win32,60.60606061,6,1,2,-0.072916667,0.01171875,1,0,0,1.1415,rock_grid_rect_2,8,04,-1,-1,1.142,0.3515625,-0.3984375,1,0,0,2.0118,Pumice_rect,8,2.012,1,1,0,1,0,1,,,,,,,,,,,,,
65f05f1dbfcc8387b992be3b,TCN,2024-06-21_17h50.05.764,LearnStrategy,2023.2.3,Win32,60.60606061,6,1,3,0.076822917,-0.001302083,1,0,0,1.1621,rock_grid_rect_2,2,12,-1,-1,1.162,0.3515625,-0.3984375,1,0,0,1.7118,Pumice_rect,8,1.712,0,2,0,2,0,1,,,,,,,,,,,,,
65f05f1dbfcc8387b992be3b,TCN,2024-06-21_17h50.05.764,LearnStrategy,2023.2.3,Win32,60.60606061,6,1,4,0.01953125,-0.009114583,1,0,0,0.9151,rock_grid_rect_2,6,15,-1,-1,0.915,-0.19921875,-0.408854167,1,0,0,1.5779,Pegmatite_rect,6,1.578,1,3,0,3,0,1,,,,,,,,,,,,,
65f05f1dbfcc8387b992be3b,TCN,2024-06-21_17h50.05.764,LearnStrategy,2023.2.3,Win32,60.60606061,6,1,5,0.05859375,-0.009114583,1,0,0,1.1264,rock_grid_rect_2,2,02,-1,-1,1.126,-0.106770833,-0.243489583,1,0,0,1.1805,Basalt_rect,2,1.181,1,4,0,4,0,1,,,,,,,,,,,,,
65f05f1dbfcc8387b992be3b,TCN,2024-06-21_17h50.05.764,LearnStrategy,2023.2.3,Win32,60.60606061,6,1,6,0.014322917,-0.005208333,1,0,0,0.9648,rock_grid_rect_2,1,01,-1,-1,0.965,-0.346354167,-0.2421875,1,0,0,1.467,Andesite_rect,1,1.467,1,5,0,5,0,1,,,,,,,,,,,,,
65f05f1dbfcc8387b992be3b,TCN,2024-06-21_17h50.05.764,LearnStrategy,2023.2.3,Win32,60.60606061,6,1,7,0.033854167,0.00390625,1,0,0,1.1432,rock_grid_rect_2,3,08,-1,-1,1.143,0.170572917,-0.229166667,1,0,0,1.9676,Diorite_rect,3,1.968,1,6,0,6,0,1,,,,,,,,,,,,,
65f05f1dbfcc8387b992be3b,TCN,2024-06-21_17h50.05.764,LearnStrategy,2023.2.3,Win32,60.60606061,6,1,8,0.026041667,-0.010416667,1,0,0,1.1001,rock_grid_rect_2,3,09,-1,-1,1.1,0.130208333,-0.247395833,1,0,0,1.1801,Diorite_rect,3,1.18,1,7,0,7,0,1,,,,,,,,,,,,,
65f05f1dbfcc8387b992be3b,TCN,2024-06-21_17h50.05.764,LearnStrategy,2023.2.3,Win32,60.60606061,6,1,9,0.091145833,0.002604167,1,0,0,0.9875,rock_grid_rect_2,5,14,-1,-1,0.987,-0.2109375,-0.248697917,1,0,0,1.3065,Basalt_rect,2,1.307,0,8,0,8,0,1,,,,,,,,,,,,,
65f05f1dbfcc8387b992be3b,TCN,2024-06-21_17h50.05.764,LearnStrategy,2023.2.3,Win32,60.60606061,6,1,10,-0.028645833,-0.009114583,1,0,0,1.0423,rock_grid_rect_2,4,01,-1,-1,1.042,0.1015625,-0.266927083,1,0,0,1.0807,Diorite_rect,3,1.081,0,9,0,9,0,1,,,,,,,,,,,,,
65f05f1dbfcc8387b992be3b,TCN,2024-06-21_17h50.05.764,LearnStrategy,2023.2.3,Win32,60.60606061,6,1,11,0.028645833,0.010416667,1,0,0,0.8899,rock_grid_rect_2,5,06,-1,-1,0.89,-0.399739583,-0.393229167,1,0,0,1.5461,Obsidian_rect,5,1.546,1,10,0,10,0,1,,,,,,,,,,,,,
65f05f1dbfcc8387b992be3b,TCN,2024-06-21_17h50.05.764,LearnStrategy,2023.2.3,Win32,60.60606061,6,1,12,0.087239583,0.001302083,1,0,0,1.2461,rock_grid_rect_2,4,10,-1,-1,1.246,0.333333333,-0.270833333,1,0,0,3.244,Gabbro_rect,4,3.244,1,11,0,11,0,1,,,,,,,,,,,,,
65f05f1dbfcc8387b992be3b,TCN,2024-06-21_17h50.05.764,LearnStrategy,2023.2.3,Win32,60.60606061,6,1,13,0.076822917,-0.00390625,1,0,0,0.8852,rock_grid_rect_2,1,16,-1,-1,0.885,-0.334635417,-0.243489583,1,0,0,1.9712,Andesite_rect,1,1.971,1,12,0,12,0,1,,,,,,,,,,,,,
65f05f1dbfcc8387b992be3b,TCN,2024-06-21_17h50.05.764,LearnStrategy,2023.2.3,Win32,60.60606061,6,1,14,0.063802083,0.005208333,1,0,0,0.9606,rock_grid_rect_2,8,03,-1,-1,0.961,0.381510417,-0.41796875,1,0,0,1.4981,Pumice_rect,8,1.498,1,13,0,13,0,1,,,,,,,,,,,,,
65f05f1dbfcc8387b992be3b,TCN,2024-06-21_17h50.05.764,LearnStrategy,2023.2.3,Win32,60.60606061,6,1,15,0.026041667,-0.00390625,1,0,0,1.2804,rock_grid_rect_2,7,08,-1,-1,1.28,0.192708333,-0.395833333,1,0,0,1.6869,Peridotite_rect,7,1.687,1,14,0,14,0,1,,,,,,,,,,,,,
65f05f1dbfcc8387b992be3b,TCN,2024-06-21_17h50.05.764,LearnStrategy,2023.2.3,Win32,60.60606061,6,1,16,-0.041666667,-0.001302083,1,0,0,1.0466,rock_grid_rect_2,7,12,-1,-1,1.047,-0.059895833,-0.395833333,1,0,0,1.3319,Pegmatite_rect,6,1.332,0,15,0,15,0,1,,,,,,,,,,,,,
65f05f1dbfcc8387b992be3b,TCN,2024-06-21_17h50.05.764,LearnStrategy,2023.2.3,Win32,60.60606061,6,2,1,,,,,,,,7,16,,,,,,,,,,,2,1.606,0,,,,,,-0.05859375,-0.24609375,1,0,0,1.6062,Basalt_rect,0,0,0,0,1,
65f05f1dbfcc8387b992be3b,TCN,2024-06-21_17h50.05.764,LearnStrategy,2023.2.3,Win32,60.60606061,6,2,2,,,,,,,,4,12,,,,,,,,,,,2,1.632,0,,,,,,-0.083333333,-0.251302083,1,0,0,1.6318,Basalt_rect,1,0,1,0,1,
65f05f1dbfcc8387b992be3b,TCN,2024-06-21_17h50.05.764,LearnStrategy,2023.2.3,Win32,60.60606061,6,2,3,,,,,,,,1,03,,,,,,,,,,,1,1.972,1,,,,,,-0.36328125,-0.24609375,1,0,0,1.9716,Andesite_rect,2,0,2,0,1,
65f05f1dbfcc8387b992be3b,TCN,2024-06-21_17h50.05.764,LearnStrategy,2023.2.3,Win32,60.60606061,6,2,4,,,,,,,,8,13,,,,,,,,,,,8,1.366,1,,,,,,0.458333333,-0.4140625,1,0,0,1.3664,Pumice_rect,3,0,3,0,1,
65f05f1dbfcc8387b992be3b,TCN,2024-06-21_17h50.05.764,LearnStrategy,2023.2.3,Win32,60.60606061,6,2,5,,,,,,,,2,10,,,,,,,,,,,2,1.157,1,,,,,,-0.106770833,-0.259114583,1,0,0,1.1566,Basalt_rect,4,0,4,0,1,
65f05f1dbfcc8387b992be3b,TCN,2024-06-21_17h50.05.764,LearnStrategy,2023.2.3,Win32,60.60606061,6,2,6,,,,,,,,7,02,,,,,,,,,,,6,2.002,0,,,,,,-0.08203125,-0.399739583,1,0,0,2.002,Pegmatite_rect,5,0,5,0,1,
65f05f1dbfcc8387b992be3b,TCN,2024-06-21_17h50.05.764,LearnStrategy,2023.2.3,Win32,60.60606061,6,2,7,,,,,,,,8,02,,,,,,,,,,,8,1.582,1,,,,,,0.368489583,-0.420572917,1,0,0,1.5819,Pumice_rect,6,0,6,0,1,
65f05f1dbfcc8387b992be3b,TCN,2024-06-21_17h50.05.764,LearnStrategy,2023.2.3,Win32,60.60606061,6,2,8,,,,,,,,3,12,,,,,,,,,,,3,1.019,1,,,,,,0.166666667,-0.270833333,1,0,0,1.0194,Diorite_rect,7,0,7,0,1,
65f05f1dbfcc8387b992be3b,TCN,2024-06-21_17h50.05.764,LearnStrategy,2023.2.3,Win32,60.60606061,6,2,9,,,,,,,,3,10,,,,,,,,,,,3,0.871,1,,,,,,0.1640625,-0.268229167,1,0,0,0.8712,Diorite_rect,8,0,8,0,1,
65f05f1dbfcc8387b992be3b,TCN,2024-06-21_17h50.05.764,LearnStrategy,2023.2.3,Win32,60.60606061,6,2,10,,,,,,,,1,07,,,,,,,,,,,3,0.596,0,,,,,,0.1640625,-0.268229167,1,0,0,0.5965,Diorite_rect,9,0,9,0,1,
65f05f1dbfcc8387b992be3b,TCN,2024-06-21_17h50.05.764,LearnStrategy,2023.2.3,Win32,60.60606061,6,2,11,,,,,,,,2,09,,,,,,,,,,,2,1.92,1,,,,,,-0.091145833,-0.239583333,1,0,0,1.9204,Basalt_rect,10,0,10,0,1,
65f05f1dbfcc8387b992be3b,TCN,2024-06-21_17h50.05.764,LearnStrategy,2023.2.3,Win32,60.60606061,6,2,12,,,,,,,,6,11,,,,,,,,,,,5,2.115,0,,,,,,-0.368489583,-0.41015625,1,0,0,2.115,Obsidian_rect,11,0,11,0,1,
65f05f1dbfcc8387b992be3b,TCN,2024-06-21_17h50.05.764,LearnStrategy,2023.2.3,Win32,60.60606061,6,2,13,,,,,,,,5,09,,,,,,,,,,,5,5.267,1,,,,,,-0.35546875,-0.41796875,1,0,0,5.2673,Obsidian_rect,12,0,12,0,1,
65f05f1dbfcc8387b992be3b,TCN,2024-06-21_17h50.05.764,LearnStrategy,2023.2.3,Win32,60.60606061,6,2,14,,,,,,,,4,09,,,,,,,,,,,2,1.203,0,,,,,,-0.1484375,-0.259114583,1,0,0,1.2027,Basalt_rect,13,0,13,0,1,
65f05f1dbfcc8387b992be3b,TCN,2024-06-21_17h50.05.764,LearnStrategy,2023.2.3,Win32,60.60606061,6,2,15,,,,,,,,6,06,,,,,,,,,,,3,1.718,0,,,,,,0.153645833,-0.251302083,1,0,0,1.7184,Diorite_rect,14,0,14,0,1,
65f05f1dbfcc8387b992be3b,TCN,2024-06-21_17h50.05.764,LearnStrategy,2023.2.3,Win32,60.60606061,6,2,16,,,,,,,,5,11,,,,,,,,,,,5,2.454,1,,,,,,-0.49609375,-0.399739583,1,0,0,2.454,Obsidian_rect,15,0,15,0,1,
65f05f1dbfcc8387b992be3b,TCN,2024-06-21_17h50.05.764,LearnStrategy,2023.2.3,Win32,60.60606061,7,1,1,0.0078125,0.002604167,1,0,0,3.9839,rock_grid_rect_2,1,06,-1,-1,3.984,-0.388020833,-0.247395833,1,0,0,3.988,Andesite_rect,1,3.988,1,0,0,0,0,1,,,,,,,,,,,,,
65f05f1dbfcc8387b992be3b,TCN,2024-06-21_17h50.05.764,LearnStrategy,2023.2.3,Win32,60.60606061,7,1,2,0.03515625,0.005208333,1,0,0,1.177,rock_grid_rect_2,2,14,-1,-1,1.177,-0.131510417,-0.26171875,1,0,0,1.6975,Basalt_rect,2,1.697,1,1,0,1,0,1,,,,,,,,,,,,,
65f05f1dbfcc8387b992be3b,TCN,2024-06-21_17h50.05.764,LearnStrategy,2023.2.3,Win32,60.60606061,7,1,3,0.032552083,0.002604167,1,0,0,1.2313,rock_grid_rect_2,3,07,-1,-1,1.231,0.071614583,-0.26171875,1,0,0,1.0858,Diorite_rect,3,1.086,1,2,0,2,0,1,,,,,,,,,,,,,
65f05f1dbfcc8387b992be3b,TCN,2024-06-21_17h50.05.764,LearnStrategy,2023.2.3,Win32,60.60606061,7,1,4,0.166666667,0,1,0,0,1.0012,rock_grid_rect_2,6,12,-1,-1,1.001,0.1953125,-0.268229167,1,0,0,1.848,Diorite_rect,3,1.848,0,3,0,3,0,1,,,,,,,,,,,,,
65f05f1dbfcc8387b992be3b,TCN,2024-06-21_17h50.05.764,LearnStrategy,2023.2.3,Win32,60.60606061,7,1,5,0.048177083,0.001302083,1,0,0,1.211,rock_grid_rect_2,8,16,-1,-1,1.211,0.354166667,-0.391927083,1,0,0,1.4588,Pumice_rect,8,1.459,1,4,0,4,0,1,,,,,,,,,,,,,
65f05f1dbfcc8387b992be3b,TCN,2024-06-21_17h50.05.764,LearnStrategy,2023.2.3,Win32,60.60606061,7,1,6,0.078125,-0.014322917,1,0,0,1.0005,rock_grid_rect_2,1,16,-1,-1,1.001,-0.328125,-0.244791667,1,0,0,2.8204,Andesite_rect,1,2.82,1,5,0,5,0,1,,,,,,,,,,,,,
65f05f1dbfcc8387b992be3b,TCN,2024-06-21_17h50.05.764,LearnStrategy,2023.2.3,Win32,60.60606061,7,1,7,0.072916667,-0.00390625,1,0,0,1.2101,rock_grid_rect_2,3,08,-1,-1,1.21,0.109375,-0.231770833,1,0,0,1.1812,Diorite_rect,3,1.181,1,6,0,6,0,1,,,,,,,,,,,,,
65f05f1dbfcc8387b992be3b,TCN,2024-06-21_17h50.05.764,LearnStrategy,2023.2.3,Win32,60.60606061,7,1,8,0.131510417,-0.006510417,1,0,0,0.8392,rock_grid_rect_2,6,05,-1,-1,0.839,-0.130208333,-0.389322917,1,0,0,1.5583,Pegmatite_rect,6,1.558,1,7,0,7,0,1,,,,,,,,,,,,,
65f05f1dbfcc8387b992be3b,TCN,2024-06-21_17h50.05.764,LearnStrategy,2023.2.3,Win32,60.60606061,7,1,9,0.0625,0.009114583,1,0,0,1.1971,rock_grid_rect_2,4,14,-1,-1,1.197,0.088541667,-0.39453125,1,0,0,1.1488,Peridotite_rect,7,1.149,0,8,0,8,0,1,,,,,,,,,,,,,
65f05f1dbfcc8387b992be3b,TCN,2024-06-21_17h50.05.764,LearnStrategy,2023.2.3,Win32,60.60606061,7,1,10,0.044270833,0.00390625,1,0,0,1.2478,rock_grid_rect_2,4,01,-1,-1,1.248,-0.3984375,-0.240885417,1,0,0,3.6512,Andesite_rect,1,3.651,0,9,0,9,0,1,,,,,,,,,,,,,
65f05f1dbfcc8387b992be3b,TCN,2024-06-21_17h50.05.764,LearnStrategy,2023.2.3,Win32,60.60606061,7,1,11,0.1015625,0.010416667,1,0,0,1.3943,rock_grid_rect_2,7,07,-1,-1,1.394,0.069010417,-0.390625,1,0,0,3.1957,Peridotite_rect,7,3.196,1,10,0,10,0,1,,,,,,,,,,,,,
65f05f1dbfcc8387b992be3b,TCN,2024-06-21_17h50.05.764,LearnStrategy,2023.2.3,Win32,60.60606061,7,1,12,0.20703125,0.010416667,1,0,0,1.3578,rock_grid_rect_2,2,02,-1,-1,1.358,-0.151041667,-0.247395833,1,0,0,1.6158,Basalt_rect,2,1.616,1,11,0,11,0,1,,,,,,,,,,,,,
65f05f1dbfcc8387b992be3b,TCN,2024-06-21_17h50.05.764,LearnStrategy,2023.2.3,Win32,60.60606061,7,1,13,0.169270833,0.002604167,1,0,0,1.6648,rock_grid_rect_2,8,14,-1,-1,1.665,0.404947917,-0.40625,1,0,0,1.6065,Pumice_rect,8,1.607,1,12,0,12,0,1,,,,,,,,,,,,,
65f05f1dbfcc8387b992be3b,TCN,2024-06-21_17h50.05.764,LearnStrategy,2023.2.3,Win32,60.60606061,7,1,14,0.048177083,0.018229167,1,0,0,2.4608,rock_grid_rect_2,5,06,-1,-1,2.461,-0.4921875,-0.397135417,1,0,0,1.8615,Obsidian_rect,5,1.861,1,13,0,13,0,1,,,,,,,,,,,,,
65f05f1dbfcc8387b992be3b,TCN,2024-06-21_17h50.05.764,LearnStrategy,2023.2.3,Win32,60.60606061,7,1,15,0.053385417,-0.006510417,1,0,0,1.328,rock_grid_rect_2,7,05,-1,-1,1.328,0.373697917,-0.264322917,1,0,0,1.1554,Gabbro_rect,4,1.155,0,14,0,14,0,1,,,,,,,,,,,,,
65f05f1dbfcc8387b992be3b,TCN,2024-06-21_17h50.05.764,LearnStrategy,2023.2.3,Win32,60.60606061,7,1,16,0.071614583,-0.009114583,1,0,0,0.8261,rock_grid_rect_2,5,05,-1,-1,0.826,-0.350260417,-0.4140625,1,0,0,1.4383,Obsidian_rect,5,1.438,1,15,0,15,0,1,,,,,,,,,,,,,
65f05f1dbfcc8387b992be3b,TCN,2024-06-21_17h50.05.764,LearnStrategy,2023.2.3,Win32,60.60606061,7,2,1,,,,,,,,4,16,,,,,,,,,,,2,1.538,0,,,,,,-0.1953125,-0.264322917,1,0,0,1.538,Basalt_rect,0,0,0,0,1,
65f05f1dbfcc8387b992be3b,TCN,2024-06-21_17h50.05.764,LearnStrategy,2023.2.3,Win32,60.60606061,7,2,2,,,,,,,,5,11,,,,,,,,,,,5,2.07,1,,,,,,-0.34375,-0.3828125,1,0,0,2.0697,Obsidian_rect,1,0,1,0,1,
65f05f1dbfcc8387b992be3b,TCN,2024-06-21_17h50.05.764,LearnStrategy,2023.2.3,Win32,60.60606061,7,2,3,,,,,,,,3,16,,,,,,,,,,,3,1.271,1,,,,,,0.08203125,-0.25,1,0,0,1.2708,Diorite_rect,2,0,2,0,1,
65f05f1dbfcc8387b992be3b,TCN,2024-06-21_17h50.05.764,LearnStrategy,2023.2.3,Win32,60.60606061,7,2,4,,,,,,,,7,06,,,,,,,,,,,6,1.965,0,,,,,,-0.125,-0.408854167,1,0,0,1.9651,Pegmatite_rect,3,0,3,0,1,
65f05f1dbfcc8387b992be3b,TCN,2024-06-21_17h50.05.764,LearnStrategy,2023.2.3,Win32,60.60606061,7,2,5,,,,,,,,8,06,,,,,,,,,,,8,1.309,1,,,,,,0.33984375,-0.412760417,1,0,0,1.3085,Pumice_rect,4,0,4,0,1,
65f05f1dbfcc8387b992be3b,TCN,2024-06-21_17h50.05.764,LearnStrategy,2023.2.3,Win32,60.60606061,7,2,6,,,,,,,,6,06,,,,,,,,,,,7,3.212,0,,,,,,0.106770833,-0.411458333,1,0,0,3.2118,Peridotite_rect,5,0,5,0,1,
65f05f1dbfcc8387b992be3b,TCN,2024-06-21_17h50.05.764,LearnStrategy,2023.2.3,Win32,60.60606061,7,2,7,,,,,,,,8,10,,,,,,,,,,,1,1.231,0,,,,,,-0.380208333,-0.231770833,1,0,0,1.2311,Andesite_rect,6,0,6,0,1,
65f05f1dbfcc8387b992be3b,TCN,2024-06-21_17h50.05.764,LearnStrategy,2023.2.3,Win32,60.60606061,7,2,8,,,,,,,,4,13,,,,,,,,,,,1,1.024,0,,,,,,-0.373697917,-0.239583333,1,0,0,1.0242,Andesite_rect,7,0,7,0,1,
65f05f1dbfcc8387b992be3b,TCN,2024-06-21_17h50.05.764,LearnStrategy,2023.2.3,Win32,60.60606061,7,2,9,,,,,,,,7,04,,,,,,,,,,,1,0.924,0,,,,,,-0.373697917,-0.239583333,1,0,0,0.9244,Andesite_rect,8,0,8,0,1,
65f05f1dbfcc8387b992be3b,TCN,2024-06-21_17h50.05.764,LearnStrategy,2023.2.3,Win32,60.60606061,7,2,10,,,,,,,,2,10,,,,,,,,,,,2,1.372,1,,,,,,-0.149739583,-0.26953125,1,0,0,1.3717,Basalt_rect,9,0,9,0,1,
65f05f1dbfcc8387b992be3b,TCN,2024-06-21_17h50.05.764,LearnStrategy,2023.2.3,Win32,60.60606061,7,2,11,,,,,,,,3,13,,,,,,,,,,,3,1.269,1,,,,,,0.05078125,-0.252604167,1,0,0,1.2685,Diorite_rect,10,0,10,0,1,
65f05f1dbfcc8387b992be3b,TCN,2024-06-21_17h50.05.764,LearnStrategy,2023.2.3,Win32,60.60606061,7,2,12,,,,,,,,2,01,,,,,,,,,,,2,2.206,1,,,,,,-0.141927083,-0.255208333,1,0,0,2.2059,Basalt_rect,11,0,11,0,1,
65f05f1dbfcc8387b992be3b,TCN,2024-06-21_17h50.05.764,LearnStrategy,2023.2.3,Win32,60.60606061,7,2,13,,,,,,,,1,02,,,,,,,,,,,8,2.532,0,,,,,,0.43359375,-0.393229167,1,0,0,2.5322,Pumice_rect,12,0,12,0,1,
65f05f1dbfcc8387b992be3b,TCN,2024-06-21_17h50.05.764,LearnStrategy,2023.2.3,Win32,60.60606061,7,2,14,,,,,,,,6,09,,,,,,,,,,,7,2.803,0,,,,,,0.029947917,-0.393229167,1,0,0,2.8035,Peridotite_rect,13,0,13,0,1,
65f05f1dbfcc8387b992be3b,TCN,2024-06-21_17h50.05.764,LearnStrategy,2023.2.3,Win32,60.60606061,7,2,15,,,,,,,,5,10,,,,,,,,,,,5,2.385,1,,,,,,-0.397135417,-0.4140625,1,0,0,2.385,Obsidian_rect,14,0,14,0,1,
65f05f1dbfcc8387b992be3b,TCN,2024-06-21_17h50.05.764,LearnStrategy,2023.2.3,Win32,60.60606061,7,2,16,,,,,,,,1,04,,,,,,,,,,,8,1.688,0,,,,,,0.38671875,-0.416666667,1,0,0,1.6883,Pumice_rect,15,0,15,0,1,
65f05f1dbfcc8387b992be3b,TCN,2024-06-21_17h50.05.764,LearnStrategy,2023.2.3,Win32,60.60606061,8,1,1,0.006510417,-0.00390625,1,0,0,1.3944,rock_grid_rect_2,4,08,-1,-1,1.394,0.126302083,-0.240885417,1,0,0,5.2201,Diorite_rect,3,5.22,0,0,0,0,0,1,,,,,,,,,,,,,
65f05f1dbfcc8387b992be3b,TCN,2024-06-21_17h50.05.764,LearnStrategy,2023.2.3,Win32,60.60606061,8,1,2,0.052083333,0.016927083,1,0,0,1.0607,rock_grid_rect_2,4,10,-1,-1,1.061,-0.1015625,-0.25390625,1,0,0,1.4005,Basalt_rect,2,1.401,0,1,0,1,0,1,,,,,,,,,,,,,
65f05f1dbfcc8387b992be3b,TCN,2024-06-21_17h50.05.764,LearnStrategy,2023.2.3,Win32,60.60606061,8,1,3,0.03125,-0.002604167,1,0,0,1.214,rock_grid_rect_2,6,07,-1,-1,1.214,0.08203125,-0.244791667,1,0,0,1.2744,Diorite_rect,3,1.274,0,2,0,2,0,1,,,,,,,,,,,,,
65f05f1dbfcc8387b992be3b,TCN,2024-06-21_17h50.05.764,LearnStrategy,2023.2.3,Win32,60.60606061,8,1,4,-0.001302083,-0.001302083,1,0,0,0.929,rock_grid_rect_2,8,15,-1,-1,0.929,0.376302083,-0.411458333,1,0,0,1.6791,Pumice_rect,8,1.679,1,3,0,3,0,1,,,,,,,,,,,,,
65f05f1dbfcc8387b992be3b,TCN,2024-06-21_17h50.05.764,LearnStrategy,2023.2.3,Win32,60.60606061,8,1,5,0.014322917,-0.0078125,1,0,0,0.844,rock_grid_rect_2,5,14,-1,-1,0.844,-0.115885417,-0.234375,1,0,0,1.239,Basalt_rect,2,1.239,0,4,0,4,0,1,,,,,,,,,,,,,
65f05f1dbfcc8387b992be3b,TCN,2024-06-21_17h50.05.764,LearnStrategy,2023.2.3,Win32,60.60606061,8,1,6,0.005208333,0.0078125,1,0,0,0.8497,rock_grid_rect_2,5,08,-1,-1,0.85,-0.375,-0.389322917,1,0,0,1.2413,Obsidian_rect,5,1.241,1,5,0,5,0,1,,,,,,,,,,,,,
65f05f1dbfcc8387b992be3b,TCN,2024-06-21_17h50.05.764,LearnStrategy,2023.2.3,Win32,60.60606061,8,1,7,-0.037760417,0.0078125,1,0,0,1.1248,rock_grid_rect_2,1,09,-1,-1,1.125,-0.072916667,-0.265625,1,0,0,2.1474,Basalt_rect,2,2.147,0,6,0,6,0,1,,,,,,,,,,,,,
65f05f1dbfcc8387b992be3b,TCN,2024-06-21_17h50.05.764,LearnStrategy,2023.2.3,Win32,60.60606061,8,1,8,-0.009114583,0.001302083,1,0,0,0.914,rock_grid_rect_2,6,10,-1,-1,0.914,0.063802083,-0.404947917,1,0,0,1.4072,Peridotite_rect,7,1.407,0,7,0,7,0,1,,,,,,,,,,,,,
65f05f1dbfcc8387b992be3b,TCN,2024-06-21_17h50.05.764,LearnStrategy,2023.2.3,Win32,60.60606061,8,1,9,-0.009114583,0.002604167,1,0,0,0.9438,rock_grid_rect_2,7,15,-1,-1,0.944,-0.069010417,-0.404947917,1,0,0,2.2259,Pegmatite_rect,6,2.226,0,8,0,8,0,1,,,,,,,,,,,,,
65f05f1dbfcc8387b992be3b,TCN,2024-06-21_17h50.05.764,LearnStrategy,2023.2.3,Win32,60.60606061,8,1,10,0.04296875,0.006510417,1,0,0,0.8308,rock_grid_rect_2,2,12,-1,-1,0.831,-0.059895833,-0.239583333,1,0,0,1.1542,Basalt_rect,2,1.154,1,9,0,9,0,1,,,,,,,,,,,,,
65f05f1dbfcc8387b992be3b,TCN,2024-06-21_17h50.05.764,LearnStrategy,2023.2.3,Win32,60.60606061,8,1,11,0.044270833,0.001302083,1,0,0,1.0344,rock_grid_rect_2,3,15,-1,-1,1.034,0.13671875,-0.256510417,1,0,0,2.1021,Diorite_rect,3,2.102,1,10,0,10,0,1,,,,,,,,,,,,,
65f05f1dbfcc8387b992be3b,TCN,2024-06-21_17h50.05.764,LearnStrategy,2023.2.3,Win32,60.60606061,8,1,12,-0.01953125,-0.002604167,1,0,0,0.9735,rock_grid_rect_2,2,06,-1,-1,0.974,-0.1171875,-0.229166667,1,0,0,1.2178,Basalt_rect,2,1.218,1,11,0,11,0,1,,,,,,,,,,,,,
65f05f1dbfcc8387b992be3b,TCN,2024-06-21_17h50.05.764,LearnStrategy,2023.2.3,Win32,60.60606061,8,1,13,0.029947917,-0.00390625,1,0,0,0.8436,rock_grid_rect_2,8,04,-1,-1,0.844,0.372395833,-0.390625,1,0,0,1.4083,Pumice_rect,8,1.408,1,12,0,12,0,1,,,,,,,,,,,,,
65f05f1dbfcc8387b992be3b,TCN,2024-06-21_17h50.05.764,LearnStrategy,2023.2.3,Win32,60.60606061,8,1,14,0.03125,-0.020833333,1,0,0,0.8183,rock_grid_rect_2,3,06,-1,-1,0.818,0.1484375,-0.235677083,1,0,0,1.3106,Diorite_rect,3,1.311,1,13,0,13,0,1,,,,,,,,,,,,,
65f05f1dbfcc8387b992be3b,TCN,2024-06-21_17h50.05.764,LearnStrategy,2023.2.3,Win32,60.60606061,8,1,15,-0.002604167,0.01171875,1,0,0,1.0972,rock_grid_rect_2,7,12,-1,-1,1.097,0.04296875,-0.391927083,1,0,0,1.4914,Peridotite_rect,7,1.491,1,14,0,14,0,1,,,,,,,,,,,,,
65f05f1dbfcc8387b992be3b,TCN,2024-06-21_17h50.05.764,LearnStrategy,2023.2.3,Win32,60.60606061,8,1,16,0.0703125,0.0078125,1,0,0,0.8997,rock_grid_rect_2,1,11,-1,-1,0.9,-0.322916667,-0.26171875,1,0,0,2.6631,Andesite_rect,1,2.663,1,15,0,15,0,1,,,,,,,,,,,,,
65f05f1dbfcc8387b992be3b,TCN,2024-06-21_17h50.05.764,LearnStrategy,2023.2.3,Win32,60.60606061,8,2,1,,,,,,,,6,03,,,,,,,,,,,6,2.689,1,,,,,,-0.135416667,-0.401041667,1,0,0,2.6893,Pegmatite_rect,0,0,0,0,1,
65f05f1dbfcc8387b992be3b,TCN,2024-06-21_17h50.05.764,LearnStrategy,2023.2.3,Win32,60.60606061,8,2,2,,,,,,,,2,09,,,,,,,,,,,2,1.144,1,,,,,,-0.115885417,-0.26953125,1,0,0,1.1438,Basalt_rect,1,0,1,0,1,
65f05f1dbfcc8387b992be3b,TCN,2024-06-21_17h50.05.764,LearnStrategy,2023.2.3,Win32,60.60606061,8,2,3,,,,,,,,8,05,,,,,,,,,,,8,1.403,1,,,,,,0.358072917,-0.407552083,1,0,0,1.4027,Pumice_rect,2,0,2,0,1,
65f05f1dbfcc8387b992be3b,TCN,2024-06-21_17h50.05.764,LearnStrategy,2023.2.3,Win32,60.60606061,8,2,4,,,,,,,,3,12,,,,,,,,,,,3,1.862,1,,,,,,0.190104167,-0.26953125,1,0,0,1.8617,Diorite_rect,3,0,3,0,1,
65f05f1dbfcc8387b992be3b,TCN,2024-06-21_17h50.05.764,LearnStrategy,2023.2.3,Win32,60.60606061,8,2,5,,,,,,,,8,02,,,,,,,,,,,1,2.633,0,,,,,,-0.334635417,-0.231770833,1,0,0,2.633,Andesite_rect,4,0,4,0,1,
65f05f1dbfcc8387b992be3b,TCN,2024-06-21_17h50.05.764,LearnStrategy,2023.2.3,Win32,60.60606061,8,2,6,,,,,,,,5,07,,,,,,,,,,,5,1.51,1,,,,,,-0.328125,-0.416666667,1,0,0,1.5098,Obsidian_rect,5,0,5,0,1,
65f05f1dbfcc8387b992be3b,TCN,2024-06-21_17h50.05.764,LearnStrategy,2023.2.3,Win32,60.60606061,8,2,7,,,,,,,,4,15,,,,,,,,,,,6,5.567,0,,,,,,-0.135416667,-0.407552083,1,0,0,5.567,Pegmatite_rect,6,0,6,0,1,
65f05f1dbfcc8387b992be3b,TCN,2024-06-21_17h50.05.764,LearnStrategy,2023.2.3,Win32,60.60606061,8,2,8,,,,,,,,3,02,,,,,,,,,,,3,1.199,1,,,,,,0.153645833,-0.240885417,1,0,0,1.1993,Diorite_rect,7,0,7,0,1,
65f05f1dbfcc8387b992be3b,TCN,2024-06-21_17h50.05.764,LearnStrategy,2023.2.3,Win32,60.60606061,8,2,9,,,,,,,,4,12,,,,,,,,,,,2,1.298,0,,,,,,-0.104166667,-0.243489583,1,0,0,1.2982,Basalt_rect,8,0,8,0,1,
65f05f1dbfcc8387b992be3b,TCN,2024-06-21_17h50.05.764,LearnStrategy,2023.2.3,Win32,60.60606061,8,2,10,,,,,,,,6,08,,,,,,,,,,,6,1.181,1,,,,,,-0.09375,-0.416666667,1,0,0,1.1812,Pegmatite_rect,9,0,9,0,1,
65f05f1dbfcc8387b992be3b,TCN,2024-06-21_17h50.05.764,LearnStrategy,2023.2.3,Win32,60.60606061,8,2,11,,,,,,,,7,13,,,,,,,,,,,7,1.013,1,,,,,,0.084635417,-0.4140625,1,0,0,1.0132,Peridotite_rect,10,0,10,0,1,
65f05f1dbfcc8387b992be3b,TCN,2024-06-21_17h50.05.764,LearnStrategy,2023.2.3,Win32,60.60606061,8,2,12,,,,,,,,1,07,,,,,,,,,,,3,1.513,0,,,,,,0.075520833,-0.248697917,1,0,0,1.5133,Diorite_rect,11,0,11,0,1,
65f05f1dbfcc8387b992be3b,TCN,2024-06-21_17h50.05.764,LearnStrategy,2023.2.3,Win32,60.60606061,8,2,13,,,,,,,,1,14,,,,,,,,,,,1,1.968,1,,,,,,-0.352864583,-0.229166667,1,0,0,1.9678,Andesite_rect,12,0,12,0,1,
65f05f1dbfcc8387b992be3b,TCN,2024-06-21_17h50.05.764,LearnStrategy,2023.2.3,Win32,60.60606061,8,2,14,,,,,,,,7,02,,,,,,,,,,,1,0.813,0,,,,,,-0.35546875,-0.244791667,1,0,0,0.8132,Andesite_rect,13,0,13,0,1,
65f05f1dbfcc8387b992be3b,TCN,2024-06-21_17h50.05.764,LearnStrategy,2023.2.3,Win32,60.60606061,8,2,15,,,,,,,,5,02,,,,,,,,,,,5,3.208,1,,,,,,-0.373697917,-0.403645833,1,0,0,3.2083,Obsidian_rect,14,0,14,0,1,
65f05f1dbfcc8387b992be3b,TCN,2024-06-21_17h50.05.764,LearnStrategy,2023.2.3,Win32,60.60606061,8,2,16,,,,,,,,2,16,,,,,,,,,,,4,3.286,0,,,,,,0.388020833,-0.243489583,1,0,0,3.2862,Gabbro_rect,15,0,15,0,1,
65f05f1dbfcc8387b992be3b,TCN,2024-06-21_17h50.05.764,LearnStrategy,2023.2.3,Win32,60.60606061,9,1,1,0.046875,-0.005208333,1,0,0,1.0422,rock_grid_rect_2,5,16,-1,-1,1.042,-0.13671875,-0.2421875,1,0,0,1.1593,Basalt_rect,2,1.159,0,0,0,0,0,1,,,,,,,,,,,,,
65f05f1dbfcc8387b992be3b,TCN,2024-06-21_17h50.05.764,LearnStrategy,2023.2.3,Win32,60.60606061,9,1,2,-0.069010417,-0.005208333,1,0,0,1.5422,rock_grid_rect_2,2,04,-1,-1,1.542,-0.09765625,-0.263020833,1,0,0,1.0233,Basalt_rect,2,1.023,1,1,0,1,0,1,,,,,,,,,,,,,
65f05f1dbfcc8387b992be3b,TCN,2024-06-21_17h50.05.764,LearnStrategy,2023.2.3,Win32,60.60606061,9,1,3,-0.015625,0.005208333,1,0,0,1.2663,rock_grid_rect_2,6,15,-1,-1,1.266,-0.12109375,-0.395833333,1,0,0,1.2592,Pegmatite_rect,6,1.259,1,2,0,2,0,1,,,,,,,,,,,,,
65f05f1dbfcc8387b992be3b,TCN,2024-06-21_17h50.05.764,LearnStrategy,2023.2.3,Win32,60.60606061,9,1,4,0.04296875,0.006510417,1,0,0,1.0352,rock_grid_rect_2,4,11,-1,-1,1.035,-0.131510417,-0.229166667,1,0,0,1.3819,Basalt_rect,2,1.382,0,3,0,3,0,1,,,,,,,,,,,,,
65f05f1dbfcc8387b992be3b,TCN,2024-06-21_17h50.05.764,LearnStrategy,2023.2.3,Win32,60.60606061,9,1,5,0.065104167,-0.001302083,1,0,0,1.1227,rock_grid_rect_2,3,11,-1,-1,1.123,0.07421875,-0.248697917,1,0,0,1.1586,Diorite_rect,3,1.159,1,4,0,4,0,1,,,,,,,,,,,,,
65f05f1dbfcc8387b992be3b,TCN,2024-06-21_17h50.05.764,LearnStrategy,2023.2.3,Win32,60.60606061,9,1,6,0.122395833,0.018229167,1,0,0,1.3098,rock_grid_rect_2,7,10,-1,-1,1.31,0.072916667,-0.41015625,1,0,0,1.5837,Peridotite_rect,7,1.584,1,5,0,5,0,1,,,,,,,,,,,,,
65f05f1dbfcc8387b992be3b,TCN,2024-06-21_17h50.05.764,LearnStrategy,2023.2.3,Win32,60.60606061,9,1,7,0.061197917,0.013020833,1,0,0,1.0803,rock_grid_rect_2,5,12,-1,-1,1.08,-0.368489583,-0.41796875,1,0,0,1.7957,Obsidian_rect,5,1.796,1,6,0,6,0,1,,,,,,,,,,,,,
65f05f1dbfcc8387b992be3b,TCN,2024-06-21_17h50.05.764,LearnStrategy,2023.2.3,Win32,60.60606061,9,1,8,0.0234375,-0.00390625,1,0,0,1.0666,rock_grid_rect_2,8,03,-1,-1,1.067,0.299479167,-0.385416667,1,0,0,1.4575,Pumice_rect,8,1.457,1,7,0,7,0,1,,,,,,,,,,,,,
65f05f1dbfcc8387b992be3b,TCN,2024-06-21_17h50.05.764,LearnStrategy,2023.2.3,Win32,60.60606061,9,1,9,-0.03515625,0.00390625,1,0,0,1.2957,rock_grid_rect_2,4,03,-1,-1,1.296,0.109375,-0.25390625,1,0,0,1.5856,Diorite_rect,3,1.586,0,8,0,8,0,1,,,,,,,,,,,,,
65f05f1dbfcc8387b992be3b,TCN,2024-06-21_17h50.05.764,LearnStrategy,2023.2.3,Win32,60.60606061,9,1,10,-0.020833333,-0.006510417,1,0,0,1.1996,rock_grid_rect_2,3,09,-1,-1,1.2,0.169270833,-0.256510417,1,0,0,1.3768,Diorite_rect,3,1.377,1,9,0,9,0,1,,,,,,,,,,,,,
65f05f1dbfcc8387b992be3b,TCN,2024-06-21_17h50.05.764,LearnStrategy,2023.2.3,Win32,60.60606061,9,1,11,0.014322917,-0.015625,1,0,0,1.0501,rock_grid_rect_2,2,08,-1,-1,1.05,-0.078125,-0.23046875,1,0,0,1.0657,Basalt_rect,2,1.066,1,10,0,10,0,1,,,,,,,,,,,,,
65f05f1dbfcc8387b992be3b,TCN,2024-06-21_17h50.05.764,LearnStrategy,2023.2.3,Win32,60.60606061,9,1,12,-0.024739583,0.002604167,1,0,0,1.1135,rock_grid_rect_2,1,05,-1,-1,1.113,-0.442708333,-0.252604167,1,0,0,3.2179,Andesite_rect,1,3.218,1,11,0,11,0,1,,,,,,,,,,,,,
65f05f1dbfcc8387b992be3b,TCN,2024-06-21_17h50.05.764,LearnStrategy,2023.2.3,Win32,60.60606061,9,1,13,0.05859375,-0.013020833,1,0,0,1.3439,rock_grid_rect_2,1,01,-1,-1,1.344,0.16015625,-0.239583333,1,0,0,1.6221,Diorite_rect,3,1.622,0,12,0,12,0,1,,,,,,,,,,,,,
65f05f1dbfcc8387b992be3b,TCN,2024-06-21_17h50.05.764,LearnStrategy,2023.2.3,Win32,60.60606061,9,1,14,-0.015625,0.001302083,1,0,0,1.0534,rock_grid_rect_2,6,16,-1,-1,1.053,0.080729167,-0.260416667,1,0,0,1.8053,Diorite_rect,3,1.805,0,13,0,13,0,1,,,,,,,,,,,,,
65f05f1dbfcc8387b992be3b,TCN,2024-06-21_17h50.05.764,LearnStrategy,2023.2.3,Win32,60.60606061,9,1,15,0.014322917,-0.015625,1,0,0,1.0141,rock_grid_rect_2,7,08,-1,-1,1.014,-0.368489583,-0.247395833,1,0,0,1.8458,Andesite_rect,1,1.846,0,14,0,14,0,1,,,,,,,,,,,,,
65f05f1dbfcc8387b992be3b,TCN,2024-06-21_17h50.05.764,LearnStrategy,2023.2.3,Win32,60.60606061,9,1,16,0.076822917,-0.020833333,1,0,0,1.1153,rock_grid_rect_2,8,08,-1,-1,1.115,0.380208333,-0.40625,1,0,0,1.732,Pumice_rect,8,1.732,1,15,0,15,0,1,,,,,,,,,,,,,
65f05f1dbfcc8387b992be3b,TCN,2024-06-21_17h50.05.764,LearnStrategy,2023.2.3,Win32,60.60606061,9,2,1,,,,,,,,7,16,,,,,,,,,,,7,2.779,1,,,,,,0.09375,-0.401041667,1,0,0,2.7793,Peridotite_rect,0,0,0,0,1,
65f05f1dbfcc8387b992be3b,TCN,2024-06-21_17h50.05.764,LearnStrategy,2023.2.3,Win32,60.60606061,9,2,2,,,,,,,,7,14,,,,,,,,,,,7,1.522,1,,,,,,0.09375,-0.3984375,1,0,0,1.5223,Peridotite_rect,1,0,1,0,1,
65f05f1dbfcc8387b992be3b,TCN,2024-06-21_17h50.05.764,LearnStrategy,2023.2.3,Win32,60.60606061,9,2,3,,,,,,,,4,09,,,,,,,,,,,2,2.412,0,,,,,,-0.145833333,-0.263020833,1,0,0,2.4117,Basalt_rect,2,0,2,0,1,
65f05f1dbfcc8387b992be3b,TCN,2024-06-21_17h50.05.764,LearnStrategy,2023.2.3,Win32,60.60606061,9,2,4,,,,,,,,2,05,,,,,,,,,,,2,0.839,1,,,,,,-0.1328125,-0.252604167,1,0,0,0.8385,Basalt_rect,3,0,3,0,1,
65f05f1dbfcc8387b992be3b,TCN,2024-06-21_17h50.05.764,LearnStrategy,2023.2.3,Win32,60.60606061,9,2,5,,,,,,,,2,11,,,,,,,,,,,1,1.271,0,,,,,,-0.3828125,-0.229166667,1,0,0,1.2707,Andesite_rect,4,0,4,0,1,
65f05f1dbfcc8387b992be3b,TCN,2024-06-21_17h50.05.764,LearnStrategy,2023.2.3,Win32,60.60606061,9,2,6,,,,,,,,1,03,,,,,,,,,,,1,0.527,1,,,,,,-0.38671875,-0.251302083,1,0,0,0.527,Andesite_rect,5,0,5,0,1,
65f05f1dbfcc8387b992be3b,TCN,2024-06-21_17h50.05.764,LearnStrategy,2023.2.3,Win32,60.60606061,9,2,7,,,,,,,,6,13,,,,,,,,,,,6,2.694,1,,,,,,-0.104166667,-0.404947917,1,0,0,2.694,Pegmatite_rect,6,0,6,0,1,
65f05f1dbfcc8387b992be3b,TCN,2024-06-21_17h50.05.764,LearnStrategy,2023.2.3,Win32,60.60606061,9,2,8,,,,,,,,8,13,,,,,,,,,,,8,1.479,1,,,,,,0.40234375,-0.421875,1,0,0,1.479,Pumice_rect,7,0,7,0,1,
65f05f1dbfcc8387b992be3b,TCN,2024-06-21_17h50.05.764,LearnStrategy,2023.2.3,Win32,60.60606061,9,2,9,,,,,,,,6,11,,,,,,,,,,,6,1.226,1,,,,,,-0.240885417,-0.3984375,1,0,0,1.2261,Pegmatite_rect,8,0,8,0,1,
65f05f1dbfcc8387b992be3b,TCN,2024-06-21_17h50.05.764,LearnStrategy,2023.2.3,Win32,60.60606061,9,2,10,,,,,,,,3,10,,,,,,,,,,,3,2.432,1,,,,,,0.149739583,-0.25,1,0,0,2.4322,Diorite_rect,9,0,9,0,1,
65f05f1dbfcc8387b992be3b,TCN,2024-06-21_17h50.05.764,LearnStrategy,2023.2.3,Win32,60.60606061,9,2,11,,,,,,,,5,04,,,,,,,,,,,5,1.55,1,,,,,,-0.38671875,-0.393229167,1,0,0,1.5503,Obsidian_rect,10,0,10,0,1,
65f05f1dbfcc8387b992be3b,TCN,2024-06-21_17h50.05.764,LearnStrategy,2023.2.3,Win32,60.60606061,9,2,12,,,,,,,,1,10,,,,,,,,,,,1,1.826,1,,,,,,-0.3203125,-0.259114583,1,0,0,1.8262,Andesite_rect,11,0,11,0,1,
65f05f1dbfcc8387b992be3b,TCN,2024-06-21_17h50.05.764,LearnStrategy,2023.2.3,Win32,60.60606061,9,2,13,,,,,,,,4,05,,,,,,,,,,,7,3.779,0,,,,,,0.037760417,-0.411458333,1,0,0,3.7788,Peridotite_rect,12,0,12,0,1,
65f05f1dbfcc8387b992be3b,TCN,2024-06-21_17h50.05.764,LearnStrategy,2023.2.3,Win32,60.60606061,9,2,14,,,,,,,,3,14,,,,,,,,,,,3,1.262,1,,,,,,0.09375,-0.251302083,1,0,0,1.2624,Diorite_rect,13,0,13,0,1,
65f05f1dbfcc8387b992be3b,TCN,2024-06-21_17h50.05.764,LearnStrategy,2023.2.3,Win32,60.60606061,9,2,15,,,,,,,,5,09,,,,,,,,,,,5,2.262,1,,,,,,-0.388020833,-0.393229167,1,0,0,2.2616,Obsidian_rect,14,0,14,0,1,
65f05f1dbfcc8387b992be3b,TCN,2024-06-21_17h50.05.764,LearnStrategy,2023.2.3,Win32,60.60606061,9,2,16,,,,,,,,8,09,,,,,,,,,,,8,2.449,1,,,,,,0.380208333,-0.407552083,1,0,0,2.4486,Pumice_rect,15,0,15,0,1,
65f05f1dbfcc8387b992be3b,TCN,2024-06-21_17h50.05.764,LearnStrategy,2023.2.3,Win32,60.60606061,,,,,,,,,,,,,,,,,,,,,,,,,,,,,,,,,,,,,,,,,,,0
65f05f1dbfcc8387b992be3b,TCN,2024-06-21_17h50.05.764,LearnStrategy,2023.2.3,Win32,60.60606061,,,,,,,,,,,,,,,,,,,,,,,,,,,,,,,,,,,,,,,,,,,
65f05f1dbfcc8387b992be3b,TCN,2024-06-21_17h50.05.764,LearnStrategy,2023.2.3,Win32,60.60606061,,,,,,,,,,,5,12,1,1,,,,,,,,,,,,,,,,,,,,,,,,,,,,,
65f05f1dbfcc8387b992be3b,TCN,2024-06-21_17h50.05.764,LearnStrategy,2023.2.3,Win32,60.60606061,,,,,,,,,,,8,15,1,2,,,,,,,,,,,,,,,,,,,,,,,,,,,,,
65f05f1dbfcc8387b992be3b,TCN,2024-06-21_17h50.05.764,LearnStrategy,2023.2.3,Win32,60.60606061,,,,,,,,,,,8,14,1,3,,,,,,,,,,,,,,,,,,,,,,,,,,,,,
65f05f1dbfcc8387b992be3b,TCN,2024-06-21_17h50.05.764,LearnStrategy,2023.2.3,Win32,60.60606061,,,,,,,,,,,8,08,1,4,,,,,,,,,,,,,,,,,,,,,,,,,,,,,
65f05f1dbfcc8387b992be3b,TCN,2024-06-21_17h50.05.764,LearnStrategy,2023.2.3,Win32,60.60606061,,,,,,,,,,,1,16,1,5,,,,,,,,,,,,,,,,,,,,,,,,,,,,,
65f05f1dbfcc8387b992be3b,TCN,2024-06-21_17h50.05.764,LearnStrategy,2023.2.3,Win32,60.60606061,,,,,,,,,,,5,08,1,6,,,,,,,,,,,,,,,,,,,,,,,,,,,,,
65f05f1dbfcc8387b992be3b,TCN,2024-06-21_17h50.05.764,LearnStrategy,2023.2.3,Win32,60.60606061,,,,,,,,,,,7,12,1,7,,,,,,,,,,,,,,,,,,,,,,,,,,,,,
65f05f1dbfcc8387b992be3b,TCN,2024-06-21_17h50.05.764,LearnStrategy,2023.2.3,Win32,60.60606061,,,,,,,,,,,8,04,1,8,,,,,,,,,,,,,,,,,,,,,,,,,,,,,
65f05f1dbfcc8387b992be3b,TCN,2024-06-21_17h50.05.764,LearnStrategy,2023.2.3,Win32,60.60606061,,,,,,,,,,,2,08,2,1,,,,,,,,,,,,,,,,,,,,,,,,,,,,,
65f05f1dbfcc8387b992be3b,TCN,2024-06-21_17h50.05.764,LearnStrategy,2023.2.3,Win32,60.60606061,,,,,,,,,,,3,07,2,2,,,,,,,,,,,,,,,,,,,,,,,,,,,,,
65f05f1dbfcc8387b992be3b,TCN,2024-06-21_17h50.05.764,LearnStrategy,2023.2.3,Win32,60.60606061,,,,,,,,,,,4,11,2,3,,,,,,,,,,,,,,,,,,,,,,,,,,,,,
65f05f1dbfcc8387b992be3b,TCN,2024-06-21_17h50.05.764,LearnStrategy,2023.2.3,Win32,60.60606061,,,,,,,,,,,8,16,2,4,,,,,,,,,,,,,,,,,,,,,,,,,,,,,
65f05f1dbfcc8387b992be3b,TCN,2024-06-21_17h50.05.764,LearnStrategy,2023.2.3,Win32,60.60606061,,,,,,,,,,,2,14,2,5,,,,,,,,,,,,,,,,,,,,,,,,,,,,,
65f05f1dbfcc8387b992be3b,TCN,2024-06-21_17h50.05.764,LearnStrategy,2023.2.3,Win32,60.60606061,,,,,,,,,,,2,04,2,6,,,,,,,,,,,,,,,,,,,,,,,,,,,,,
65f05f1dbfcc8387b992be3b,TCN,2024-06-21_17h50.05.764,LearnStrategy,2023.2.3,Win32,60.60606061,,,,,,,,,,,2,12,2,7,,,,,,,,,,,,,,,,,,,,,,,,,,,,,
65f05f1dbfcc8387b992be3b,TCN,2024-06-21_17h50.05.764,LearnStrategy,2023.2.3,Win32,60.60606061,,,,,,,,,,,8,03,2,8,,,,,,,,,,,,,,,,,,,,,,,,,,,,,
65f05f1dbfcc8387b992be3b,TCN,2024-06-21_17h50.05.764,LearnStrategy,2023.2.3,Win32,60.60606061,,,,,,,,,,,5,05,3,1,,,,,,,,,,,,,,,,,,,,,,,,,,,,,
65f05f1dbfcc8387b992be3b,TCN,2024-06-21_17h50.05.764,LearnStrategy,2023.2.3,Win32,60.60606061,,,,,,,,,,,7,10,3,2,,,,,,,,,,,,,,,,,,,,,,,,,,,,,
65f05f1dbfcc8387b992be3b,TCN,2024-06-21_17h50.05.764,LearnStrategy,2023.2.3,Win32,60.60606061,,,,,,,,,,,3,08,3,3,,,,,,,,,,,,,,,,,,,,,,,,,,,,,
65f05f1dbfcc8387b992be3b,TCN,2024-06-21_17h50.05.764,LearnStrategy,2023.2.3,Win32,60.60606061,,,,,,,,,,,1,11,3,4,,,,,,,,,,,,,,,,,,,,,,,,,,,,,
65f05f1dbfcc8387b992be3b,TCN,2024-06-21_17h50.05.764,LearnStrategy,2023.2.3,Win32,60.60606061,,,,,,,,,,,1,01,3,5,,,,,,,,,,,,,,,,,,,,,,,,,,,,,
65f05f1dbfcc8387b992be3b,TCN,2024-06-21_17h50.05.764,LearnStrategy,2023.2.3,Win32,60.60606061,,,,,,,,,,,7,05,3,6,,,,,,,,,,,,,,,,,,,,,,,,,,,,,
65f05f1dbfcc8387b992be3b,TCN,2024-06-21_17h50.05.764,LearnStrategy,2023.2.3,Win32,60.60606061,,,,,,,,,,,2,06,3,7,,,,,,,,,,,,,,,,,,,,,,,,,,,,,
65f05f1dbfcc8387b992be3b,TCN,2024-06-21_17h50.05.764,LearnStrategy,2023.2.3,Win32,60.60606061,,,,,,,,,,,4,03,3,8,,,,,,,,,,,,,,,,,,,,,,,,,,,,,
65f05f1dbfcc8387b992be3b,TCN,2024-06-21_17h50.05.764,LearnStrategy,2023.2.3,Win32,60.60606061,,,,,,,,,,,4,08,4,1,,,,,,,,,,,,,,,,,,,,,,,,,,,,,
65f05f1dbfcc8387b992be3b,TCN,2024-06-21_17h50.05.764,LearnStrategy,2023.2.3,Win32,60.60606061,,,,,,,,,,,6,07,4,2,,,,,,,,,,,,,,,,,,,,,,,,,,,,,
65f05f1dbfcc8387b992be3b,TCN,2024-06-21_17h50.05.764,LearnStrategy,2023.2.3,Win32,60.60606061,,,,,,,,,,,6,05,4,3,,,,,,,,,,,,,,,,,,,,,,,,,,,,,
65f05f1dbfcc8387b992be3b,TCN,2024-06-21_17h50.05.764,LearnStrategy,2023.2.3,Win32,60.60606061,,,,,,,,,,,3,15,4,4,,,,,,,,,,,,,,,,,,,,,,,,,,,,,
65f05f1dbfcc8387b992be3b,TCN,2024-06-21_17h50.05.764,LearnStrategy,2023.2.3,Win32,60.60606061,,,,,,,,,,,1,09,4,5,,,,,,,,,,,,,,,,,,,,,,,,,,,,,
65f05f1dbfcc8387b992be3b,TCN,2024-06-21_17h50.05.764,LearnStrategy,2023.2.3,Win32,60.60606061,,,,,,,,,,,7,07,4,6,,,,,,,,,,,,,,,,,,,,,,,,,,,,,
65f05f1dbfcc8387b992be3b,TCN,2024-06-21_17h50.05.764,LearnStrategy,2023.2.3,Win32,60.60606061,,,,,,,,,,,3,11,4,7,,,,,,,,,,,,,,,,,,,,,,,,,,,,,
65f05f1dbfcc8387b992be3b,TCN,2024-06-21_17h50.05.764,LearnStrategy,2023.2.3,Win32,60.60606061,,,,,,,,,,,2,02,4,8,,,,,,,,,,,,,,,,,,,,,,,,,,,,,
65f05f1dbfcc8387b992be3b,TCN,2024-06-21_17h50.05.764,LearnStrategy,2023.2.3,Win32,60.60606061,,,,,,,,,,,5,16,5,1,,,,,,,,,,,,,,,,,,,,,,,,,,,,,
65f05f1dbfcc8387b992be3b,TCN,2024-06-21_17h50.05.764,LearnStrategy,2023.2.3,Win32,60.60606061,,,,,,,,,,,6,15,5,2,,,,,,,,,,,,,,,,,,,,,,,,,,,,,
65f05f1dbfcc8387b992be3b,TCN,2024-06-21_17h50.05.764,LearnStrategy,2023.2.3,Win32,60.60606061,,,,,,,,,,,7,15,5,3,,,,,,,,,,,,,,,,,,,,,,,,,,,,,
65f05f1dbfcc8387b992be3b,TCN,2024-06-21_17h50.05.764,LearnStrategy,2023.2.3,Win32,60.60606061,,,,,,,,,,,4,10,5,4,,,,,,,,,,,,,,,,,,,,,,,,,,,,,
65f05f1dbfcc8387b992be3b,TCN,2024-06-21_17h50.05.764,LearnStrategy,2023.2.3,Win32,60.60606061,,,,,,,,,,,3,06,5,5,,,,,,,,,,,,,,,,,,,,,,,,,,,,,
65f05f1dbfcc8387b992be3b,TCN,2024-06-21_17h50.05.764,LearnStrategy,2023.2.3,Win32,60.60606061,,,,,,,,,,,7,08,5,6,,,,,,,,,,,,,,,,,,,,,,,,,,,,,
65f05f1dbfcc8387b992be3b,TCN,2024-06-21_17h50.05.764,LearnStrategy,2023.2.3,Win32,60.60606061,,,,,,,,,,,3,09,5,7,,,,,,,,,,,,,,,,,,,,,,,,,,,,,
65f05f1dbfcc8387b992be3b,TCN,2024-06-21_17h50.05.764,LearnStrategy,2023.2.3,Win32,60.60606061,,,,,,,,,,,1,05,5,8,,,,,,,,,,,,,,,,,,,,,,,,,,,,,
65f05f1dbfcc8387b992be3b,TCN,2024-06-21_17h50.05.764,LearnStrategy,2023.2.3,Win32,60.60606061,,,,,,,,,,,4,01,6,1,,,,,,,,,,,,,,,,,,,,,,,,,,,,,
65f05f1dbfcc8387b992be3b,TCN,2024-06-21_17h50.05.764,LearnStrategy,2023.2.3,Win32,60.60606061,,,,,,,,,,,6,16,6,2,,,,,,,,,,,,,,,,,,,,,,,,,,,,,
65f05f1dbfcc8387b992be3b,TCN,2024-06-21_17h50.05.764,LearnStrategy,2023.2.3,Win32,60.60606061,,,,,,,,,,,6,10,6,3,,,,,,,,,,,,,,,,,,,,,,,,,,,,,
65f05f1dbfcc8387b992be3b,TCN,2024-06-21_17h50.05.764,LearnStrategy,2023.2.3,Win32,60.60606061,,,,,,,,,,,1,06,6,4,,,,,,,,,,,,,,,,,,,,,,,,,,,,,
65f05f1dbfcc8387b992be3b,TCN,2024-06-21_17h50.05.764,LearnStrategy,2023.2.3,Win32,60.60606061,,,,,,,,,,,6,12,6,5,,,,,,,,,,,,,,,,,,,,,,,,,,,,,
65f05f1dbfcc8387b992be3b,TCN,2024-06-21_17h50.05.764,LearnStrategy,2023.2.3,Win32,60.60606061,,,,,,,,,,,4,14,6,6,,,,,,,,,,,,,,,,,,,,,,,,,,,,,
65f05f1dbfcc8387b992be3b,TCN,2024-06-21_17h50.05.764,LearnStrategy,2023.2.3,Win32,60.60606061,,,,,,,,,,,5,06,6,7,,,,,,,,,,,,,,,,,,,,,,,,,,,,,
65f05f1dbfcc8387b992be3b,TCN,2024-06-21_17h50.05.764,LearnStrategy,2023.2.3,Win32,60.60606061,,,,,,,,,,,5,14,6,8,,,,,,,,,,,,,,,,,,,,,,,,,,,,,