participant,condition,date,expName,psychopyVersion,OS,frameRate,block,phase,trial,learn_mouse.x,learn_mouse.y,learn_mouse.leftButton,learn_mouse.midButton,learn_mouse.rightButton,learn_mouse.time,learn_mouse.clicked_name,cat,token,row,col,t_select,cat_rec,token_rec,cat_mouse_l.x,cat_mouse_l.y,cat_mouse_l.leftButton,cat_mouse_l.midButton,cat_mouse_l.rightButton,cat_mouse_l.time,cat_mouse_l.clicked_name,resp,t_resp,corr,train_trials.thisRepN,train_trials.thisTrialN,train_trials.thisN,train_trials.thisIndex,train_trials.ran,cat_mouse_t.x,cat_mouse_t.y,cat_mouse_t.leftButton,cat_mouse_t.midButton,cat_mouse_t.rightButton,cat_mouse_t.time,cat_mouse_t.clicked_name,test_trials.thisRepN,test_trials.thisTrialN,test_trials.thisN,test_trials.thisIndex,test_trials.ran,Bonus
65f4ab7884f8411c9e11a34e,SCR,2024-06-26_12h35.58.305,LearnStrategy,2023.2.3,Win32,59.52380952,,,,,,,,,,,,,,,,,,,,,,,,,,,,,,,,,,,,,,,,,,,,,
65f4ab7884f8411c9e11a34e,SCR,2024-06-26_12h35.58.305,LearnStrategy,2023.2.3,Win32,59.52380952,1,1,1,-0.567592586,0.250925929,1,0,0,5.424,Peridotite_05,7,05,5,1,5.424,8,10,0.126851894,-0.401851866,1,0,0,11.6053,Peridotite_rect,7,11.605,1,0,0,0,0,1,,,,,,,,,,,,,
65f4ab7884f8411c9e11a34e,SCR,2024-06-26_12h35.58.305,LearnStrategy,2023.2.3,Win32,59.52380952,1,1,2,0.068518533,-0.077777792,1,0,0,1.6831,Gabbro_03,4,03,3,5,1.683,3,10,-0.157407407,-0.229629658,1,0,0,2.027,Basalt_rect,2,2.027,0,1,0,1,0,1,,,,,,,,,,,,,
65f4ab7884f8411c9e11a34e,SCR,2024-06-26_12h35.58.305,LearnStrategy,2023.2.3,Win32,59.52380952,1,1,3,-0.527777778,0.078703704,1,0,0,1.5169,Basalt_16,2,16,4,1,1.517,8,08,-0.156481496,-0.384259259,1,0,0,4.8966,Pegmatite_rect,6,4.897,0,2,0,2,0,1,,,,,,,,,,,,,
65f4ab7884f8411c9e11a34e,SCR,2024-06-26_12h35.58.305,LearnStrategy,2023.2.3,Win32,59.52380952,1,1,4,-0.585185192,-0.218518504,1,0,0,2.1836,Diorite_07,3,07,2,1,2.184,1,06,-0.397222201,-0.237963005,1,0,0,4.1087,Andesite_rect,1,4.109,0,3,0,3,0,1,,,,,,,,,,,,,
65f4ab7884f8411c9e11a34e,SCR,2024-06-26_12h35.58.305,LearnStrategy,2023.2.3,Win32,59.52380952,1,1,5,0.223148134,-0.422222208,1,0,0,1.2154,Obsidian_08,5,08,1,6,1.215,1,14,-0.340740734,-0.40370369,1,0,0,1.2936,Obsidian_rect,5,1.294,1,4,0,4,0,1,,,,,,,,,,,,,
65f4ab7884f8411c9e11a34e,SCR,2024-06-26_12h35.58.305,LearnStrategy,2023.2.3,Win32,59.52380952,1,1,6,0.561111168,-0.25,1,0,0,1.4483,Pegmatite_10,6,10,2,8,1.448,2,05,-0.123148106,-0.410185213,1,0,0,6.3988,Pegmatite_rect,6,6.399,1,5,0,5,0,1,,,,,,,,,,,,,
65f4ab7884f8411c9e11a34e,SCR,2024-06-26_12h35.58.305,LearnStrategy,2023.2.3,Win32,59.52380952,1,1,7,0.36018527,-0.416666667,1,0,0,1.6815,Gabbro_01,4,01,1,7,1.681,7,02,-0.386111118,-0.237037023,1,0,0,3.9975,Andesite_rect,1,3.998,0,6,0,6,0,1,,,,,,,,,,,,,
65f4ab7884f8411c9e11a34e,SCR,2024-06-26_12h35.58.305,LearnStrategy,2023.2.3,Win32,59.52380952,1,1,8,0.424074102,-0.415740755,1,0,0,0.865,Gabbro_01,4,01,1,7,0.865,6,13,0.399074131,-0.244444459,1,0,0,1.276,Gabbro_rect,4,1.276,1,7,0,7,0,1,,,,,,,,,,,,,
65f4ab7884f8411c9e11a34e,SCR,2024-06-26_12h35.58.305,LearnStrategy,2023.2.3,Win32,59.52380952,1,1,9,0.574074074,-0.262037065,1,0,0,0.8151,Pegmatite_10,6,10,2,8,0.815,7,14,0.067592621,-0.405555584,1,0,0,2.4947,Peridotite_rect,7,2.495,0,8,0,8,0,1,,,,,,,,,,,,,
65f4ab7884f8411c9e11a34e,SCR,2024-06-26_12h35.58.305,LearnStrategy,2023.2.3,Win32,59.52380952,1,1,10,0.545370455,-0.298148191,1,0,0,0.8319,Pegmatite_10,6,10,2,8,0.832,5,10,-0.107407393,-0.391666695,1,0,0,0.9611,Pegmatite_rect,6,0.961,1,9,0,9,0,1,,,,,,,,,,,,,
65f4ab7884f8411c9e11a34e,SCR,2024-06-26_12h35.58.305,LearnStrategy,2023.2.3,Win32,59.52380952,1,1,11,-0.416666667,-0.414814843,1,0,0,1.4669,Obsidian_10,5,10,1,2,1.467,4,05,-0.467592593,-0.40370369,1,0,0,1.2269,Obsidian_rect,5,1.227,1,10,0,10,0,1,,,,,,,,,,,,,
65f4ab7884f8411c9e11a34e,SCR,2024-06-26_12h35.58.305,LearnStrategy,2023.2.3,Win32,59.52380952,1,1,12,-0.503703683,0.102777764,1,0,0,2.1839,Basalt_16,2,16,4,1,2.184,5,16,-0.170370384,-0.262962977,1,0,0,1.3107,Basalt_rect,2,1.311,1,11,0,11,0,1,,,,,,,,,,,,,
65f4ab7884f8411c9e11a34e,SCR,2024-06-26_12h35.58.305,LearnStrategy,2023.2.3,Win32,59.52380952,1,1,13,-0.567592586,0.24537037,1,0,0,0.9659,Peridotite_05,7,05,5,1,0.966,3,16,0.136111153,-0.398148148,1,0,0,1.329,Peridotite_rect,7,1.329,1,12,0,12,0,1,,,,,,,,,,,,,
65f4ab7884f8411c9e11a34e,SCR,2024-06-26_12h35.58.305,LearnStrategy,2023.2.3,Win32,59.52380952,1,1,14,-0.591666645,0.413888887,1,0,0,1.1156,Pegmatite_13,6,13,6,1,1.116,2,09,-0.447222215,-0.236111111,1,0,0,2.7329,Andesite_rect,1,2.733,0,13,0,13,0,1,,,,,,,,,,,,,
65f4ab7884f8411c9e11a34e,SCR,2024-06-26_12h35.58.305,LearnStrategy,2023.2.3,Win32,59.52380952,1,1,15,-0.570370356,-0.276851866,1,0,0,0.8821,Diorite_07,3,07,2,1,0.882,4,01,-0.089814787,-0.391666695,1,0,0,2.695,Pegmatite_rect,6,2.695,0,14,0,14,0,1,,,,,,,,,,,,,
65f4ab7884f8411c9e11a34e,SCR,2024-06-26_12h35.58.305,LearnStrategy,2023.2.3,Win32,59.52380952,1,1,16,-0.553703697,0.451851849,1,0,0,0.8656,Pegmatite_13,6,13,6,1,0.866,6,06,-0.170370384,-0.402777778,1,0,0,2.6451,Pegmatite_rect,6,2.645,1,15,0,15,0,1,,,,,,,,,,,,,
65f4ab7884f8411c9e11a34e,SCR,2024-06-26_12h35.58.305,LearnStrategy,2023.2.3,Win32,59.52380952,1,2,1,,,,,,,,6,05,,,,,,,,,,,,,1,9.436,0,,,,,,-0.380555541,-0.243518547,1,0,0,9.4359,Andesite_rect,0,0,0,0,1,
65f4ab7884f8411c9e11a34e,SCR,2024-06-26_12h35.58.305,LearnStrategy,2023.2.3,Win32,59.52380952,1,2,2,,,,,,,,4,10,,,,,,,,,,,,,7,5.834,0,,,,,,0.132407436,-0.396296325,1,0,0,5.8343,Peridotite_rect,1,0,1,0,1,
65f4ab7884f8411c9e11a34e,SCR,2024-06-26_12h35.58.305,LearnStrategy,2023.2.3,Win32,59.52380952,1,2,3,,,,,,,,6,15,,,,,,,,,,,,,6,3.83,1,,,,,,-0.104629587,-0.389814801,1,0,0,3.8301,Pegmatite_rect,2,0,2,0,1,
65f4ab7884f8411c9e11a34e,SCR,2024-06-26_12h35.58.305,LearnStrategy,2023.2.3,Win32,59.52380952,1,2,4,,,,,,,,8,03,,,,,,,,,,,,,2,1.403,0,,,,,,-0.143518519,-0.257407436,1,0,0,1.4031,Basalt_rect,3,0,3,0,1,
65f4ab7884f8411c9e11a34e,SCR,2024-06-26_12h35.58.305,LearnStrategy,2023.2.3,Win32,59.52380952,1,2,5,,,,,,,,8,14,,,,,,,,,,,,,2,1.007,0,,,,,,-0.127777735,-0.237037023,1,0,0,1.0075,Basalt_rect,4,0,4,0,1,
65f4ab7884f8411c9e11a34e,SCR,2024-06-26_12h35.58.305,LearnStrategy,2023.2.3,Win32,59.52380952,1,2,6,,,,,,,,3,08,,,,,,,,,,,,,1,1.376,0,,,,,,-0.417592578,-0.240740741,1,0,0,1.376,Andesite_rect,5,0,5,0,1,
65f4ab7884f8411c9e11a34e,SCR,2024-06-26_12h35.58.305,LearnStrategy,2023.2.3,Win32,59.52380952,1,2,7,,,,,,,,1,03,,,,,,,,,,,,,4,4.297,0,,,,,,0.301851908,-0.234259288,1,0,0,4.2975,Gabbro_rect,6,0,6,0,1,
65f4ab7884f8411c9e11a34e,SCR,2024-06-26_12h35.58.305,LearnStrategy,2023.2.3,Win32,59.52380952,1,2,8,,,,,,,,4,08,,,,,,,,,,,,,3,3.184,0,,,,,,0.110185199,-0.260185171,1,0,0,3.1844,Diorite_rect,7,0,7,0,1,
65f4ab7884f8411c9e11a34e,SCR,2024-06-26_12h35.58.305,LearnStrategy,2023.2.3,Win32,59.52380952,1,2,9,,,,,,,,5,06,,,,,,,,,,,,,5,1.661,1,,,,,,-0.363888882,-0.404629672,1,0,0,1.6605,Obsidian_rect,8,0,8,0,1,
65f4ab7884f8411c9e11a34e,SCR,2024-06-26_12h35.58.305,LearnStrategy,2023.2.3,Win32,59.52380952,1,2,10,,,,,,,,7,13,,,,,,,,,,,,,7,6.768,1,,,,,,0.157407407,-0.411111125,1,0,0,6.7677,Peridotite_rect,9,0,9,0,1,
65f4ab7884f8411c9e11a34e,SCR,2024-06-26_12h35.58.305,LearnStrategy,2023.2.3,Win32,59.52380952,1,2,11,,,,,,,,7,12,,,,,,,,,,,,,1,1.312,0,,,,,,-0.433333326,-0.234259288,1,0,0,1.3116,Andesite_rect,10,0,10,0,1,
65f4ab7884f8411c9e11a34e,SCR,2024-06-26_12h35.58.305,LearnStrategy,2023.2.3,Win32,59.52380952,1,2,12,,,,,,,,5,07,,,,,,,,,,,,,5,1.475,1,,,,,,-0.429629608,-0.39907406,1,0,0,1.4746,Obsidian_rect,11,0,11,0,1,
65f4ab7884f8411c9e11a34e,SCR,2024-06-26_12h35.58.305,LearnStrategy,2023.2.3,Win32,59.52380952,1,2,13,,,,,,,,3,11,,,,,,,,,,,,,3,3.78,1,,,,,,0.093518504,-0.229629658,1,0,0,3.78,Diorite_rect,12,0,12,0,1,
65f4ab7884f8411c9e11a34e,SCR,2024-06-26_12h35.58.305,LearnStrategy,2023.2.3,Win32,59.52380952,1,2,14,,,,,,,,1,09,,,,,,,,,,,,,6,2.328,0,,,,,,-0.112037023,-0.396296325,1,0,0,2.3281,Pegmatite_rect,13,0,13,0,1,
65f4ab7884f8411c9e11a34e,SCR,2024-06-26_12h35.58.305,LearnStrategy,2023.2.3,Win32,59.52380952,1,2,15,,,,,,,,2,06,,,,,,,,,,,,,4,3.18,0,,,,,,0.340740769,-0.237963005,1,0,0,3.1804,Gabbro_rect,14,0,14,0,1,
65f4ab7884f8411c9e11a34e,SCR,2024-06-26_12h35.58.305,LearnStrategy,2023.2.3,Win32,59.52380952,1,2,16,,,,,,,,2,08,,,,,,,,,,,,,4,1.277,0,,,,,,0.329629686,-0.228703746,1,0,0,1.2775,Gabbro_rect,15,0,15,0,1,
65f4ab7884f8411c9e11a34e,SCR,2024-06-26_12h35.58.305,LearnStrategy,2023.2.3,Win32,59.52380952,2,1,1,-0.237037023,0.441666665,1,0,0,3.9029,Pegmatite_07,6,07,6,3,3.903,8,06,-0.439814815,-0.259259259,1,0,0,1.6866,Andesite_rect,1,1.687,0,0,0,0,0,1,,,,,,,,,,,,,
65f4ab7884f8411c9e11a34e,SCR,2024-06-26_12h35.58.305,LearnStrategy,2023.2.3,Win32,59.52380952,2,1,2,-0.550925926,-0.225000028,1,0,0,1.5001,Diorite_07,3,07,2,1,1.5,4,05,-0.452777757,-0.246296282,1,0,0,1.2438,Andesite_rect,1,1.244,0,1,0,1,0,1,,,,,,,,,,,,,
65f4ab7884f8411c9e11a34e,SCR,2024-06-26_12h35.58.305,LearnStrategy,2023.2.3,Win32,59.52380952,2,1,3,-0.257407365,0.386111109,1,0,0,2.6349,Pegmatite_07,6,07,6,3,2.635,1,14,0.179629644,-0.253703718,1,0,0,0.9405,Diorite_rect,3,0.94,0,2,0,2,0,1,,,,,,,,,,,,,
65f4ab7884f8411c9e11a34e,SCR,2024-06-26_12h35.58.305,LearnStrategy,2023.2.3,Win32,59.52380952,2,1,4,0.55277775,0.244444441,1,0,0,2.0178,Pegmatite_03,6,03,5,8,2.018,3,02,-0.09629631,-0.391666695,1,0,0,2.9666,Pegmatite_rect,6,2.967,1,3,0,3,0,1,,,,,,,,,,,,,
65f4ab7884f8411c9e11a34e,SCR,2024-06-26_12h35.58.305,LearnStrategy,2023.2.3,Win32,59.52380952,2,1,5,-0.241666653,0.429629631,1,0,0,0.9153,Pegmatite_07,6,07,6,3,0.915,1,02,-0.112962935,-0.390740783,1,0,0,0.7604,Pegmatite_rect,6,0.76,1,4,0,4,0,1,,,,,,,,,,,,,
65f4ab7884f8411c9e11a34e,SCR,2024-06-26_12h35.58.305,LearnStrategy,2023.2.3,Win32,59.52380952,2,1,6,-0.538888896,-0.227777764,1,0,0,1.9168,Diorite_07,3,07,2,1,1.917,1,01,0.109259288,-0.257407436,1,0,0,1.4762,Diorite_rect,3,1.476,1,5,0,5,0,1,,,,,,,,,,,,,
65f4ab7884f8411c9e11a34e,SCR,2024-06-26_12h35.58.305,LearnStrategy,2023.2.3,Win32,59.52380952,2,1,7,-0.562037044,0.399999998,1,0,0,0.9489,Pegmatite_13,6,13,6,1,0.949,2,02,-0.145370342,-0.410185213,1,0,0,2.0942,Pegmatite_rect,6,2.094,1,6,0,6,0,1,,,,,,,,,,,,,
65f4ab7884f8411c9e11a34e,SCR,2024-06-26_12h35.58.305,LearnStrategy,2023.2.3,Win32,59.52380952,2,1,8,-0.588888875,-0.414814843,1,0,0,2.1998,Basalt_09,2,09,1,1,2.2,8,04,-0.189814815,-0.24537037,1,0,0,1.06,Basalt_rect,2,1.06,1,7,0,7,0,1,,,,,,,,,,,,,
65f4ab7884f8411c9e11a34e,SCR,2024-06-26_12h35.58.305,LearnStrategy,2023.2.3,Win32,59.52380952,2,1,9,0.067592621,-0.10092594,1,0,0,1.8504,Gabbro_03,4,03,3,5,1.85,4,01,-0.410185178,-0.246296282,1,0,0,1.8118,Andesite_rect,1,1.812,0,8,0,8,0,1,,,,,,,,,,,,,
65f4ab7884f8411c9e11a34e,SCR,2024-06-26_12h35.58.305,LearnStrategy,2023.2.3,Win32,59.52380952,2,1,10,0.045370384,-0.093518504,1,0,0,0.8992,Gabbro_03,4,03,3,5,0.899,3,06,0.333333333,-0.236111111,1,0,0,2.2441,Gabbro_rect,4,2.244,1,9,0,9,0,1,,,,,,,,,,,,,
65f4ab7884f8411c9e11a34e,SCR,2024-06-26_12h35.58.305,LearnStrategy,2023.2.3,Win32,59.52380952,2,1,11,-0.063888903,-0.25,1,0,0,1.0661,Gabbro_11,4,11,2,4,1.066,2,09,0.368518547,-0.238888917,1,0,0,0.9911,Gabbro_rect,4,0.991,1,10,0,10,0,1,,,,,,,,,,,,,
65f4ab7884f8411c9e11a34e,SCR,2024-06-26_12h35.58.305,LearnStrategy,2023.2.3,Win32,59.52380952,2,1,12,0.534259231,0.415740737,1,0,0,1.8842,Basalt_12,2,12,6,8,1.884,4,03,0.393518519,-0.260185171,1,0,0,1.8595,Gabbro_rect,4,1.86,0,11,0,11,0,1,,,,,,,,,,,,,
65f4ab7884f8411c9e11a34e,SCR,2024-06-26_12h35.58.305,LearnStrategy,2023.2.3,Win32,59.52380952,2,1,13,-0.375925912,0.089814822,1,0,0,1.1155,Basalt_10,2,10,4,2,1.115,7,15,-0.132407365,-0.265740783,1,0,0,1.127,Basalt_rect,2,1.127,1,12,0,12,0,1,,,,,,,,,,,,,
65f4ab7884f8411c9e11a34e,SCR,2024-06-26_12h35.58.305,LearnStrategy,2023.2.3,Win32,59.52380952,2,1,14,0.393518519,0.259259259,1,0,0,3.152,Basalt_02,2,02,5,7,3.152,7,15,-0.151851866,-0.237963005,1,0,0,1.042,Basalt_rect,2,1.042,1,13,0,13,0,1,,,,,,,,,,,,,
65f4ab7884f8411c9e11a34e,SCR,2024-06-26_12h35.58.305,LearnStrategy,2023.2.3,Win32,59.52380952,2,1,15,0.42314812,-0.260185171,1,0,0,2.0519,Pegmatite_06,6,06,2,7,2.052,6,07,0.135185171,-0.248148176,1,0,0,4.3626,Diorite_rect,3,4.363,0,14,0,14,0,1,,,,,,,,,,,,,
65f4ab7884f8411c9e11a34e,SCR,2024-06-26_12h35.58.305,LearnStrategy,2023.2.3,Win32,59.52380952,2,1,16,-0.250925912,0.430555556,1,0,0,1.4992,Pegmatite_07,6,07,6,3,1.499,2,10,-0.134259259,-0.395370413,1,0,0,1.1107,Pegmatite_rect,6,1.111,1,15,0,15,0,1,,,,,,,,,,,,,
65f4ab7884f8411c9e11a34e,SCR,2024-06-26_12h35.58.305,LearnStrategy,2023.2.3,Win32,59.52380952,2,2,1,,,,,,,,3,14,,,,,,,,,,,,,1,2.747,0,,,,,,-0.422222208,-0.250925912,1,0,0,2.7467,Andesite_rect,0,0,0,0,1,
65f4ab7884f8411c9e11a34e,SCR,2024-06-26_12h35.58.305,LearnStrategy,2023.2.3,Win32,59.52380952,2,2,2,,,,,,,,2,11,,,,,,,,,,,,,4,6.799,0,,,,,,0.362037094,-0.259259259,1,0,0,6.7992,Gabbro_rect,1,0,1,0,1,
65f4ab7884f8411c9e11a34e,SCR,2024-06-26_12h35.58.305,LearnStrategy,2023.2.3,Win32,59.52380952,2,2,3,,,,,,,,6,08,,,,,,,,,,,,,6,8.818,1,,,,,,-0.134259259,-0.40370369,1,0,0,8.8185,Pegmatite_rect,2,0,2,0,1,
65f4ab7884f8411c9e11a34e,SCR,2024-06-26_12h35.58.305,LearnStrategy,2023.2.3,Win32,59.52380952,2,2,4,,,,,,,,6,16,,,,,,,,,,,,,6,1.36,1,,,,,,-0.117592564,-0.387962977,1,0,0,1.3601,Pegmatite_rect,3,0,3,0,1,
65f4ab7884f8411c9e11a34e,SCR,2024-06-26_12h35.58.305,LearnStrategy,2023.2.3,Win32,59.52380952,2,2,5,,,,,,,,4,13,,,,,,,,,,,,,3,5.616,0,,,,,,0.086111139,-0.252777806,1,0,0,5.6158,Diorite_rect,4,0,4,0,1,
65f4ab7884f8411c9e11a34e,SCR,2024-06-26_12h35.58.305,LearnStrategy,2023.2.3,Win32,59.52380952,2,2,6,,,,,,,,4,12,,,,,,,,,,,,,2,1.528,0,,,,,,-0.117592564,-0.249074088,1,0,0,1.5278,Basalt_rect,5,0,5,0,1,
65f4ab7884f8411c9e11a34e,SCR,2024-06-26_12h35.58.305,LearnStrategy,2023.2.3,Win32,59.52380952,2,2,7,,,,,,,,3,15,,,,,,,,,,,,,1,2.127,0,,,,,,-0.38703703,-0.238888917,1,0,0,2.1272,Andesite_rect,6,0,6,0,1,
65f4ab7884f8411c9e11a34e,SCR,2024-06-26_12h35.58.305,LearnStrategy,2023.2.3,Win32,59.52380952,2,2,8,,,,,,,,8,13,,,,,,,,,,,,,3,3.686,0,,,,,,0.180555556,-0.251851894,1,0,0,3.6857,Diorite_rect,7,0,7,0,1,
65f4ab7884f8411c9e11a34e,SCR,2024-06-26_12h35.58.305,LearnStrategy,2023.2.3,Win32,59.52380952,2,2,9,,,,,,,,7,08,,,,,,,,,,,,,1,2.762,0,,,,,,-0.39907406,-0.25,1,0,0,2.7619,Andesite_rect,8,0,8,0,1,
65f4ab7884f8411c9e11a34e,SCR,2024-06-26_12h35.58.305,LearnStrategy,2023.2.3,Win32,59.52380952,2,2,10,,,,,,,,1,11,,,,,,,,,,,,,6,2.686,0,,,,,,-0.041666667,-0.396296325,1,0,0,2.6864,Pegmatite_rect,9,0,9,0,1,
65f4ab7884f8411c9e11a34e,SCR,2024-06-26_12h35.58.305,LearnStrategy,2023.2.3,Win32,59.52380952,2,2,11,,,,,,,,8,09,,,,,,,,,,,,,7,1.715,0,,,,,,0.189814815,-0.386111153,1,0,0,1.7147,Peridotite_rect,10,0,10,0,1,
65f4ab7884f8411c9e11a34e,SCR,2024-06-26_12h35.58.305,LearnStrategy,2023.2.3,Win32,59.52380952,2,2,12,,,,,,,,5,12,,,,,,,,,,,,,5,1.144,1,,,,,,-0.443518497,-0.387962977,1,0,0,1.1441,Obsidian_rect,11,0,11,0,1,
65f4ab7884f8411c9e11a34e,SCR,2024-06-26_12h35.58.305,LearnStrategy,2023.2.3,Win32,59.52380952,2,2,13,,,,,,,,2,04,,,,,,,,,,,,,2,1.645,1,,,,,,-0.162037037,-0.239814829,1,0,0,1.6447,Basalt_rect,12,0,12,0,1,
65f4ab7884f8411c9e11a34e,SCR,2024-06-26_12h35.58.305,LearnStrategy,2023.2.3,Win32,59.52380952,2,2,14,,,,,,,,1,07,,,,,,,,,,,,,1,1.444,1,,,,,,-0.361111111,-0.241666653,1,0,0,1.4439,Andesite_rect,13,0,13,0,1,
65f4ab7884f8411c9e11a34e,SCR,2024-06-26_12h35.58.305,LearnStrategy,2023.2.3,Win32,59.52380952,2,2,15,,,,,,,,5,05,,,,,,,,,,,,,6,2.28,0,,,,,,-0.079629616,-0.388888889,1,0,0,2.2798,Pegmatite_rect,14,0,14,0,1,
65f4ab7884f8411c9e11a34e,SCR,2024-06-26_12h35.58.305,LearnStrategy,2023.2.3,Win32,59.52380952,2,2,16,,,,,,,,7,04,,,,,,,,,,,,,6,1.161,0,,,,,,-0.079629616,-0.388888889,1,0,0,1.1614,Pegmatite_rect,15,0,15,0,1,
65f4ab7884f8411c9e11a34e,SCR,2024-06-26_12h35.58.305,LearnStrategy,2023.2.3,Win32,59.52380952,3,1,1,-0.108333305,0.111111111,1,0,0,1.8011,Pumice_10,8,10,4,4,1.801,3,16,0.351851852,-0.240740741,1,0,0,1.7266,Gabbro_rect,4,1.727,0,0,0,0,0,1,,,,,,,,,,,,,
65f4ab7884f8411c9e11a34e,SCR,2024-06-26_12h35.58.305,LearnStrategy,2023.2.3,Win32,59.52380952,3,1,2,-0.112037023,0.409259257,1,0,0,3.7191,Pegmatite_12,6,12,6,4,3.719,4,03,-0.078703704,-0.39907406,1,0,0,2.0261,Pegmatite_rect,6,2.026,1,1,0,1,0,1,,,,,,,,,,,,,
65f4ab7884f8411c9e11a34e,SCR,2024-06-26_12h35.58.305,LearnStrategy,2023.2.3,Win32,59.52380952,3,1,3,0.266666695,-0.106481481,1,0,0,4.8371,Diorite_10,3,10,3,6,4.837,1,02,-0.360185164,-0.247222265,1,0,0,1.922,Andesite_rect,1,1.922,0,2,0,2,0,1,,,,,,,,,,,,,
65f4ab7884f8411c9e11a34e,SCR,2024-06-26_12h35.58.305,LearnStrategy,2023.2.3,Win32,59.52380952,3,1,4,-0.572222215,-0.208333333,1,0,0,1.249,Diorite_07,3,07,2,1,1.249,3,02,-0.41574072,-0.249074088,1,0,0,0.8601,Andesite_rect,1,0.86,0,3,0,3,0,1,,,,,,,,,,,,,
65f4ab7884f8411c9e11a34e,SCR,2024-06-26_12h35.58.305,LearnStrategy,2023.2.3,Win32,59.52380952,3,1,5,-0.539814808,0.255555559,1,0,0,2.2843,Peridotite_05,7,05,5,1,2.284,8,10,-0.159259231,-0.241666653,1,0,0,1.7775,Basalt_rect,2,1.778,0,4,0,4,0,1,,,,,,,,,,,,,
65f4ab7884f8411c9e11a34e,SCR,2024-06-26_12h35.58.305,LearnStrategy,2023.2.3,Win32,59.52380952,3,1,6,0.058333362,0.259259259,1,0,0,3.2695,Pumice_16,8,16,5,5,3.269,6,13,0.104629658,-0.396296325,1,0,0,7.0762,Peridotite_rect,7,7.076,0,5,0,5,0,1,,,,,,,,,,,,,
65f4ab7884f8411c9e11a34e,SCR,2024-06-26_12h35.58.305,LearnStrategy,2023.2.3,Win32,59.52380952,3,1,7,0.545370455,0.104629623,1,0,0,1.3664,Pumice_08,8,08,4,8,1.366,4,01,0.410185213,-0.391666695,1,0,0,1.3447,Pumice_rect,8,1.345,1,6,0,6,0,1,,,,,,,,,,,,,
65f4ab7884f8411c9e11a34e,SCR,2024-06-26_12h35.58.305,LearnStrategy,2023.2.3,Win32,59.52380952,3,1,8,0.362962935,-0.39907406,1,0,0,1.1994,Gabbro_01,4,01,1,7,1.199,7,02,-0.385185171,-0.258333347,1,0,0,1.8951,Andesite_rect,1,1.895,0,7,0,7,0,1,,,,,,,,,,,,,
65f4ab7884f8411c9e11a34e,SCR,2024-06-26_12h35.58.305,LearnStrategy,2023.2.3,Win32,59.52380952,3,1,9,-0.568518497,-0.220370399,1,0,0,1.5333,Diorite_07,3,07,2,1,1.533,8,05,-0.488888882,-0.250925912,1,0,0,0.9602,Andesite_rect,1,0.96,0,8,0,8,0,1,,,,,,,,,,,,,
65f4ab7884f8411c9e11a34e,SCR,2024-06-26_12h35.58.305,LearnStrategy,2023.2.3,Win32,59.52380952,3,1,10,-0.563888868,0.27037036,1,0,0,3.6011,Peridotite_05,7,05,5,1,3.601,4,14,0.413888861,-0.257407436,1,0,0,1.9062,Gabbro_rect,4,1.906,0,9,0,9,0,1,,,,,,,,,,,,,
65f4ab7884f8411c9e11a34e,SCR,2024-06-26_12h35.58.305,LearnStrategy,2023.2.3,Win32,59.52380952,3,1,11,0.592592593,-0.280555584,1,0,0,1.7345,Pegmatite_10,6,10,2,8,1.734,1,02,0.061111097,-0.404629672,1,0,0,1.3928,Peridotite_rect,7,1.393,0,10,0,10,0,1,,,,,,,,,,,,,
65f4ab7884f8411c9e11a34e,SCR,2024-06-26_12h35.58.305,LearnStrategy,2023.2.3,Win32,59.52380952,3,1,12,0.344444416,-0.264814801,1,0,0,1.5152,Pegmatite_06,6,06,2,7,1.515,5,11,-0.151851866,-0.412962949,1,0,0,0.9274,Pegmatite_rect,6,0.927,1,11,0,11,0,1,,,,,,,,,,,,,
65f4ab7884f8411c9e11a34e,SCR,2024-06-26_12h35.58.305,LearnStrategy,2023.2.3,Win32,59.52380952,3,1,13,-0.412962949,0.145370377,1,0,0,1.8335,Basalt_10,2,10,4,2,1.833,7,02,-0.140740712,-0.243518547,1,0,0,0.7943,Basalt_rect,2,0.794,1,12,0,12,0,1,,,,,,,,,,,,,
65f4ab7884f8411c9e11a34e,SCR,2024-06-26_12h35.58.305,LearnStrategy,2023.2.3,Win32,59.52380952,3,1,14,-0.089814787,0.405555557,1,0,0,1.6842,Pegmatite_12,6,12,6,4,1.684,2,10,-0.121296282,-0.40370369,1,0,0,2.2273,Pegmatite_rect,6,2.227,1,13,0,13,0,1,,,,,,,,,,,,,
65f4ab7884f8411c9e11a34e,SCR,2024-06-26_12h35.58.305,LearnStrategy,2023.2.3,Win32,59.52380952,3,1,15,0.243518547,0.244444441,1,0,0,2.4828,Andesite_06,1,06,5,6,2.483,2,09,0.359259288,-0.263888889,1,0,0,7.3499,Gabbro_rect,4,7.35,0,14,0,14,0,1,,,,,,,,,,,,,
65f4ab7884f8411c9e11a34e,SCR,2024-06-26_12h35.58.305,LearnStrategy,2023.2.3,Win32,59.52380952,3,1,16,-0.210185157,0.252777771,1,0,0,1.8669,Pumice_06,8,06,5,3,1.867,8,16,0.161111125,-0.412037037,1,0,0,3.7961,Peridotite_rect,7,3.796,0,15,0,15,0,1,,,,,,,,,,,,,
65f4ab7884f8411c9e11a34e,SCR,2024-06-26_12h35.58.305,LearnStrategy,2023.2.3,Win32,59.52380952,3,2,1,,,,,,,,7,16,,,,,,,,,,,,,7,4.447,1,,,,,,0.146296325,-0.412037037,1,0,0,4.4472,Peridotite_rect,0,0,0,0,1,
65f4ab7884f8411c9e11a34e,SCR,2024-06-26_12h35.58.305,LearnStrategy,2023.2.3,Win32,59.52380952,3,2,2,,,,,,,,8,02,,,,,,,,,,,,,8,1.878,1,,,,,,0.376851824,-0.400925954,1,0,0,1.8784,Pumice_rect,1,0,1,0,1,
65f4ab7884f8411c9e11a34e,SCR,2024-06-26_12h35.58.305,LearnStrategy,2023.2.3,Win32,59.52380952,3,2,3,,,,,,,,5,02,,,,,,,,,,,,,5,1.16,1,,,,,,-0.425925926,-0.39444443,1,0,0,1.1602,Obsidian_rect,2,0,2,0,1,
65f4ab7884f8411c9e11a34e,SCR,2024-06-26_12h35.58.305,LearnStrategy,2023.2.3,Win32,59.52380952,3,2,4,,,,,,,,6,11,,,,,,,,,,,,,6,3.762,1,,,,,,-0.181481467,-0.385185171,1,0,0,3.7621,Pegmatite_rect,3,0,3,0,1,
65f4ab7884f8411c9e11a34e,SCR,2024-06-26_12h35.58.305,LearnStrategy,2023.2.3,Win32,59.52380952,3,2,5,,,,,,,,3,12,,,,,,,,,,,,,1,1.377,0,,,,,,-0.397222201,-0.25462963,1,0,0,1.377,Andesite_rect,4,0,4,0,1,
65f4ab7884f8411c9e11a34e,SCR,2024-06-26_12h35.58.305,LearnStrategy,2023.2.3,Win32,59.52380952,3,2,6,,,,,,,,2,14,,,,,,,,,,,,,8,2.211,0,,,,,,0.475926011,-0.392592607,1,0,0,2.2111,Pumice_rect,5,0,5,0,1,
65f4ab7884f8411c9e11a34e,SCR,2024-06-26_12h35.58.305,LearnStrategy,2023.2.3,Win32,59.52380952,3,2,7,,,,,,,,1,16,,,,,,,,,,,,,7,2.412,0,,,,,,0.107407393,-0.411111125,1,0,0,2.412,Peridotite_rect,6,0,6,0,1,
65f4ab7884f8411c9e11a34e,SCR,2024-06-26_12h35.58.305,LearnStrategy,2023.2.3,Win32,59.52380952,3,2,8,,,,,,,,2,01,,,,,,,,,,,,,2,1.394,1,,,,,,-0.14907406,-0.242592635,1,0,0,1.3938,Basalt_rect,7,0,7,0,1,
65f4ab7884f8411c9e11a34e,SCR,2024-06-26_12h35.58.305,LearnStrategy,2023.2.3,Win32,59.52380952,3,2,9,,,,,,,,4,09,,,,,,,,,,,,,6,4.681,0,,,,,,-0.090740698,-0.39907406,1,0,0,4.6807,Pegmatite_rect,8,0,8,0,1,
65f4ab7884f8411c9e11a34e,SCR,2024-06-26_12h35.58.305,LearnStrategy,2023.2.3,Win32,59.52380952,3,2,10,,,,,,,,5,04,,,,,,,,,,,,,5,1.094,1,,,,,,-0.443518497,-0.39444443,1,0,0,1.0942,Obsidian_rect,9,0,9,0,1,
65f4ab7884f8411c9e11a34e,SCR,2024-06-26_12h35.58.305,LearnStrategy,2023.2.3,Win32,59.52380952,3,2,11,,,,,,,,8,15,,,,,,,,,,,,,8,1.528,1,,,,,,0.3648149,-0.388888889,1,0,0,1.5282,Pumice_rect,10,0,10,0,1,
65f4ab7884f8411c9e11a34e,SCR,2024-06-26_12h35.58.305,LearnStrategy,2023.2.3,Win32,59.52380952,3,2,12,,,,,,,,3,13,,,,,,,,,,,,,1,1.11,0,,,,,,-0.349999993,-0.249074088,1,0,0,1.1096,Andesite_rect,11,0,11,0,1,
65f4ab7884f8411c9e11a34e,SCR,2024-06-26_12h35.58.305,LearnStrategy,2023.2.3,Win32,59.52380952,3,2,13,,,,,,,,7,06,,,,,,,,,,,,,6,3.214,0,,,,,,-0.10555557,-0.400925954,1,0,0,3.2143,Pegmatite_rect,12,0,12,0,1,
65f4ab7884f8411c9e11a34e,SCR,2024-06-26_12h35.58.305,LearnStrategy,2023.2.3,Win32,59.52380952,3,2,14,,,,,,,,1,04,,,,,,,,,,,,,7,1.56,0,,,,,,0.115740741,-0.385185171,1,0,0,1.5601,Peridotite_rect,13,0,13,0,1,
65f4ab7884f8411c9e11a34e,SCR,2024-06-26_12h35.58.305,LearnStrategy,2023.2.3,Win32,59.52380952,3,2,15,,,,,,,,6,09,,,,,,,,,,,,,6,7,1,,,,,,-0.097222222,-0.407407407,1,0,0,7.0004,Pegmatite_rect,14,0,14,0,1,
65f4ab7884f8411c9e11a34e,SCR,2024-06-26_12h35.58.305,LearnStrategy,2023.2.3,Win32,59.52380952,3,2,16,,,,,,,,4,15,,,,,,,,,,,,,7,2.662,0,,,,,,0.103703746,-0.396296325,1,0,0,2.6617,Peridotite_rect,15,0,15,0,1,
65f4ab7884f8411c9e11a34e,SCR,2024-06-26_12h35.58.305,LearnStrategy,2023.2.3,Win32,59.52380952,4,1,1,-0.231481481,-0.09629631,1,0,0,2.0291,Peridotite_02,7,02,3,3,2.029,4,01,-0.06759255,-0.386111153,1,0,0,3.5957,Pegmatite_rect,6,3.596,0,0,0,0,0,1,,,,,,,,,,,,,
65f4ab7884f8411c9e11a34e,SCR,2024-06-26_12h35.58.305,LearnStrategy,2023.2.3,Win32,59.52380952,4,1,2,-0.241666653,0.387962959,1,0,0,1.183,Pegmatite_07,6,07,6,3,1.183,1,01,-0.111111111,-0.411111125,1,0,0,0.977,Pegmatite_rect,6,0.977,1,1,0,1,0,1,,,,,,,,,,,,,
65f4ab7884f8411c9e11a34e,SCR,2024-06-26_12h35.58.305,LearnStrategy,2023.2.3,Win32,59.52380952,4,1,3,-0.078703704,-0.113888917,1,0,0,1.5511,Diorite_09,3,09,3,4,1.551,1,06,-0.409259266,-0.253703718,1,0,0,0.8429,Andesite_rect,1,0.843,0,2,0,2,0,1,,,,,,,,,,,,,
65f4ab7884f8411c9e11a34e,SCR,2024-06-26_12h35.58.305,LearnStrategy,2023.2.3,Win32,59.52380952,4,1,4,0.394444501,0.094444452,1,0,0,1.6009,Diorite_16,3,16,4,7,1.601,3,16,0.158333319,-0.257407436,1,0,0,3.4784,Diorite_rect,3,3.478,1,3,0,3,0,1,,,,,,,,,,,,,
65f4ab7884f8411c9e11a34e,SCR,2024-06-26_12h35.58.305,LearnStrategy,2023.2.3,Win32,59.52380952,4,1,5,-0.559259238,0.393518519,1,0,0,1.0657,Pegmatite_13,6,13,6,1,1.066,2,09,-0.158333319,-0.386111153,1,0,0,1.31,Pegmatite_rect,6,1.31,1,4,0,4,0,1,,,,,,,,,,,,,
65f4ab7884f8411c9e11a34e,SCR,2024-06-26_12h35.58.305,LearnStrategy,2023.2.3,Win32,59.52380952,4,1,6,-0.39444443,0.267592589,1,0,0,1.6595,Andesite_14,1,14,5,2,1.66,7,02,-0.170370384,-0.393518519,1,0,0,1.9104,Pegmatite_rect,6,1.91,0,5,0,5,0,1,,,,,,,,,,,,,
65f4ab7884f8411c9e11a34e,SCR,2024-06-26_12h35.58.305,LearnStrategy,2023.2.3,Win32,59.52380952,4,1,7,-0.10092594,-0.387962977,1,0,0,2.067,Diorite_02,3,02,1,4,2.067,4,05,-0.402777778,-0.24537037,1,0,0,2.7283,Andesite_rect,1,2.728,0,6,0,6,0,1,,,,,,,,,,,,,
65f4ab7884f8411c9e11a34e,SCR,2024-06-26_12h35.58.305,LearnStrategy,2023.2.3,Win32,59.52380952,4,1,8,0.394444501,0.118518511,1,0,0,1.2663,Diorite_16,3,16,4,7,1.266,7,07,0.158333319,-0.231481481,1,0,0,1.1454,Diorite_rect,3,1.145,1,7,0,7,0,1,,,,,,,,,,,,,
65f4ab7884f8411c9e11a34e,SCR,2024-06-26_12h35.58.305,LearnStrategy,2023.2.3,Win32,59.52380952,4,1,9,0.562037009,0.277777778,1,0,0,1.3581,Pegmatite_03,6,03,5,8,1.358,4,05,-0.05277775,-0.397222236,1,0,0,1.244,Pegmatite_rect,6,1.244,1,8,0,8,0,1,,,,,,,,,,,,,
65f4ab7884f8411c9e11a34e,SCR,2024-06-26_12h35.58.305,LearnStrategy,2023.2.3,Win32,59.52380952,4,1,10,0.231481481,0.398148148,1,0,0,1.2828,Diorite_06,3,06,6,6,1.283,3,09,0.114814829,-0.233333376,1,0,0,2.1954,Diorite_rect,3,2.195,1,9,0,9,0,1,,,,,,,,,,,,,
65f4ab7884f8411c9e11a34e,SCR,2024-06-26_12h35.58.305,LearnStrategy,2023.2.3,Win32,59.52380952,4,1,11,0.575000057,0.421296296,1,0,0,1.0324,Basalt_12,2,12,6,8,1.032,5,10,0.429629714,-0.387037065,1,0,0,1.3261,Pumice_rect,8,1.326,0,10,0,10,0,1,,,,,,,,,,,,,
65f4ab7884f8411c9e11a34e,SCR,2024-06-26_12h35.58.305,LearnStrategy,2023.2.3,Win32,59.52380952,4,1,12,-0.407407407,0.103703711,1,0,0,1.0343,Basalt_10,2,10,4,2,1.034,1,01,-0.148148148,-0.244444459,1,0,0,0.7926,Basalt_rect,2,0.793,1,11,0,11,0,1,,,,,,,,,,,,,
65f4ab7884f8411c9e11a34e,SCR,2024-06-26_12h35.58.305,LearnStrategy,2023.2.3,Win32,59.52380952,4,1,13,-0.423148155,0.250925929,1,0,0,1.3168,Andesite_14,1,14,5,2,1.317,6,12,-0.091666681,-0.404629672,1,0,0,2.3445,Pegmatite_rect,6,2.344,0,12,0,12,0,1,,,,,,,,,,,,,
65f4ab7884f8411c9e11a34e,SCR,2024-06-26_12h35.58.305,LearnStrategy,2023.2.3,Win32,59.52380952,4,1,14,-0.227777764,0.428703701,1,0,0,0.8831,Pegmatite_07,6,07,6,3,0.883,8,04,-0.424999979,-0.261111153,1,0,0,1.3078,Andesite_rect,1,1.308,0,13,0,13,0,1,,,,,,,,,,,,,
65f4ab7884f8411c9e11a34e,SCR,2024-06-26_12h35.58.305,LearnStrategy,2023.2.3,Win32,59.52380952,4,1,15,-0.075925898,0.439814815,1,0,0,2.0332,Pegmatite_12,6,12,6,4,2.033,3,10,-0.110185199,-0.410185213,1,0,0,4.9285,Pegmatite_rect,6,4.928,1,14,0,14,0,1,,,,,,,,,,,,,
65f4ab7884f8411c9e11a34e,SCR,2024-06-26_12h35.58.305,LearnStrategy,2023.2.3,Win32,59.52380952,4,1,16,0.237963005,0.410185187,1,0,0,1.7664,Diorite_06,3,06,6,6,1.766,2,02,0.137037065,-0.256481524,1,0,0,2.7978,Diorite_rect,3,2.798,1,15,0,15,0,1,,,,,,,,,,,,,
65f4ab7884f8411c9e11a34e,SCR,2024-06-26_12h35.58.305,LearnStrategy,2023.2.3,Win32,59.52380952,4,2,1,,,,,,,,2,06,,,,,,,,,,,,,2,1.528,1,,,,,,-0.140740712,-0.246296282,1,0,0,1.5277,Basalt_rect,0,0,0,0,1,
65f4ab7884f8411c9e11a34e,SCR,2024-06-26_12h35.58.305,LearnStrategy,2023.2.3,Win32,59.52380952,4,2,2,,,,,,,,7,06,,,,,,,,,,,,,1,6.065,0,,,,,,-0.388888889,-0.243518547,1,0,0,6.0652,Andesite_rect,1,0,1,0,1,
65f4ab7884f8411c9e11a34e,SCR,2024-06-26_12h35.58.305,LearnStrategy,2023.2.3,Win32,59.52380952,4,2,3,,,,,,,,1,07,,,,,,,,,,,,,3,6.032,0,,,,,,0.137037065,-0.265740783,1,0,0,6.0324,Diorite_rect,2,0,2,0,1,
65f4ab7884f8411c9e11a34e,SCR,2024-06-26_12h35.58.305,LearnStrategy,2023.2.3,Win32,59.52380952,4,2,4,,,,,,,,7,04,,,,,,,,,,,,,7,4.914,1,,,,,,0.069444444,-0.40370369,1,0,0,4.9144,Peridotite_rect,3,0,3,0,1,
65f4ab7884f8411c9e11a34e,SCR,2024-06-26_12h35.58.305,LearnStrategy,2023.2.3,Win32,59.52380952,4,2,5,,,,,,,,3,11,,,,,,,,,,,,,3,4.197,1,,,,,,0.166666667,-0.248148176,1,0,0,4.1973,Diorite_rect,4,0,4,0,1,
65f4ab7884f8411c9e11a34e,SCR,2024-06-26_12h35.58.305,LearnStrategy,2023.2.3,Win32,59.52380952,4,2,6,,,,,,,,8,13,,,,,,,,,,,,,8,3.664,1,,,,,,0.376851824,-0.390740783,1,0,0,3.664,Pumice_rect,5,0,5,0,1,
65f4ab7884f8411c9e11a34e,SCR,2024-06-26_12h35.58.305,LearnStrategy,2023.2.3,Win32,59.52380952,4,2,7,,,,,,,,5,06,,,,,,,,,,,,,5,1.143,1,,,,,,-0.375925912,-0.409259302,1,0,0,1.1432,Obsidian_rect,6,0,6,0,1,
65f4ab7884f8411c9e11a34e,SCR,2024-06-26_12h35.58.305,LearnStrategy,2023.2.3,Win32,59.52380952,4,2,8,,,,,,,,4,08,,,,,,,,,,,,,6,3.431,0,,,,,,-0.070370356,-0.40370369,1,0,0,3.4308,Pegmatite_rect,7,0,7,0,1,
65f4ab7884f8411c9e11a34e,SCR,2024-06-26_12h35.58.305,LearnStrategy,2023.2.3,Win32,59.52380952,4,2,9,,,,,,,,6,16,,,,,,,,,,,,,1,2.262,0,,,,,,-0.393518519,-0.241666653,1,0,0,2.2615,Andesite_rect,8,0,8,0,1,
65f4ab7884f8411c9e11a34e,SCR,2024-06-26_12h35.58.305,LearnStrategy,2023.2.3,Win32,59.52380952,4,2,10,,,,,,,,6,11,,,,,,,,,,,,,1,4.898,0,,,,,,-0.404629637,-0.252777806,1,0,0,4.8975,Andesite_rect,9,0,9,0,1,
65f4ab7884f8411c9e11a34e,SCR,2024-06-26_12h35.58.305,LearnStrategy,2023.2.3,Win32,59.52380952,4,2,11,,,,,,,,3,13,,,,,,,,,,,,,3,2.897,1,,,,,,0.152777778,-0.246296282,1,0,0,2.897,Diorite_rect,10,0,10,0,1,
65f4ab7884f8411c9e11a34e,SCR,2024-06-26_12h35.58.305,LearnStrategy,2023.2.3,Win32,59.52380952,4,2,12,,,,,,,,2,14,,,,,,,,,,,,,8,1.433,0,,,,,,0.378703788,-0.404629672,1,0,0,1.4326,Pumice_rect,11,0,11,0,1,
65f4ab7884f8411c9e11a34e,SCR,2024-06-26_12h35.58.305,LearnStrategy,2023.2.3,Win32,59.52380952,4,2,13,,,,,,,,8,14,,,,,,,,,,,,,8,1.211,1,,,,,,0.3648149,-0.383333347,1,0,0,1.2105,Pumice_rect,12,0,12,0,1,
65f4ab7884f8411c9e11a34e,SCR,2024-06-26_12h35.58.305,LearnStrategy,2023.2.3,Win32,59.52380952,4,2,14,,,,,,,,1,04,,,,,,,,,,,,,7,3.227,0,,,,,,0.080555598,-0.383333347,1,0,0,3.2269,Peridotite_rect,13,0,13,0,1,
65f4ab7884f8411c9e11a34e,SCR,2024-06-26_12h35.58.305,LearnStrategy,2023.2.3,Win32,59.52380952,4,2,15,,,,,,,,5,05,,,,,,,,,,,,,5,3.012,1,,,,,,-0.424074067,-0.400000042,1,0,0,3.012,Obsidian_rect,14,0,14,0,1,
65f4ab7884f8411c9e11a34e,SCR,2024-06-26_12h35.58.305,LearnStrategy,2023.2.3,Win32,59.52380952,4,2,16,,,,,,,,4,10,,,,,,,,,,,,,6,4.331,0,,,,,,-0.103703675,-0.389814801,1,0,0,4.3308,Pegmatite_rect,15,0,15,0,1,
65f4ab7884f8411c9e11a34e,SCR,2024-06-26_12h35.58.305,LearnStrategy,2023.2.3,Win32,59.52380952,5,1,1,-0.547222208,-0.267592607,1,0,0,10.3414,Diorite_07,3,07,2,1,10.341,3,02,-0.175925926,-0.404629672,1,0,0,3.774,Pegmatite_rect,6,3.774,0,0,0,0,0,1,,,,,,,,,,,,,
65f4ab7884f8411c9e11a34e,SCR,2024-06-26_12h35.58.305,LearnStrategy,2023.2.3,Win32,59.52380952,5,1,2,-0.577777757,-0.236111111,1,0,0,1.016,Diorite_07,3,07,2,1,1.016,8,10,0.141666695,-0.25,1,0,0,1.5446,Diorite_rect,3,1.545,1,1,0,1,0,1,,,,,,,,,,,,,
65f4ab7884f8411c9e11a34e,SCR,2024-06-26_12h35.58.305,LearnStrategy,2023.2.3,Win32,59.52380952,5,1,3,-0.062037009,-0.082407422,1,0,0,1.1997,Diorite_09,3,09,3,4,1.2,7,10,0.103703746,-0.251851894,1,0,0,0.7099,Diorite_rect,3,0.71,1,2,0,2,0,1,,,,,,,,,,,,,
65f4ab7884f8411c9e11a34e,SCR,2024-06-26_12h35.58.305,LearnStrategy,2023.2.3,Win32,59.52380952,5,1,4,0.253703718,0.135185171,1,0,0,1.6657,Peridotite_15,7,15,4,6,1.666,2,12,0.36018527,-0.241666653,1,0,0,1.6609,Gabbro_rect,4,1.661,0,3,0,3,0,1,,,,,,,,,,,,,
65f4ab7884f8411c9e11a34e,SCR,2024-06-26_12h35.58.305,LearnStrategy,2023.2.3,Win32,59.52380952,5,1,5,-0.368518511,0.424999996,1,0,0,0.9993,Peridotite_14,7,14,6,2,0.999,4,11,-0.108333305,-0.252777806,1,0,0,1.4269,Basalt_rect,2,1.427,0,4,0,4,0,1,,,,,,,,,,,,,
65f4ab7884f8411c9e11a34e,SCR,2024-06-26_12h35.58.305,LearnStrategy,2023.2.3,Win32,59.52380952,5,1,6,-0.409259266,0.212037034,1,0,0,1.1176,Andesite_14,1,14,5,2,1.118,6,13,-0.480555534,-0.246296282,1,0,0,1.2768,Andesite_rect,1,1.277,1,5,0,5,0,1,,,,,,,,,,,,,
65f4ab7884f8411c9e11a34e,SCR,2024-06-26_12h35.58.305,LearnStrategy,2023.2.3,Win32,59.52380952,5,1,7,0.067592621,0.097222222,1,0,0,2.3809,Basalt_05,2,05,4,5,2.381,4,14,-0.194444444,-0.23055557,1,0,0,0.7536,Basalt_rect,2,0.754,1,6,0,6,0,1,,,,,,,,,,,,,
65f4ab7884f8411c9e11a34e,SCR,2024-06-26_12h35.58.305,LearnStrategy,2023.2.3,Win32,59.52380952,5,1,8,0.561111168,0.400925928,1,0,0,1.484,Basalt_12,2,12,6,8,1.484,2,05,-0.162037037,-0.258333347,1,0,0,1.5601,Basalt_rect,2,1.56,1,7,0,7,0,1,,,,,,,,,,,,,
65f4ab7884f8411c9e11a34e,SCR,2024-06-26_12h35.58.305,LearnStrategy,2023.2.3,Win32,59.52380952,5,1,9,0.240740741,-0.117592635,1,0,0,1.4501,Diorite_10,3,10,3,6,1.45,6,12,0.07222225,-0.250925912,1,0,0,1.5276,Diorite_rect,3,1.528,1,8,0,8,0,1,,,,,,,,,,,,,
65f4ab7884f8411c9e11a34e,SCR,2024-06-26_12h35.58.305,LearnStrategy,2023.2.3,Win32,59.52380952,5,1,10,0.57222225,-0.258333347,1,0,0,0.9826,Pegmatite_10,6,10,2,8,0.983,1,05,-0.113888847,-0.395370413,1,0,0,1.4775,Pegmatite_rect,6,1.477,1,9,0,9,0,1,,,,,,,,,,,,,
65f4ab7884f8411c9e11a34e,SCR,2024-06-26_12h35.58.305,LearnStrategy,2023.2.3,Win32,59.52380952,5,1,11,-0.073148162,0.099999993,1,0,0,1.7679,Pumice_10,8,10,4,4,1.768,5,16,0.366666723,-0.400925954,1,0,0,1.0435,Pumice_rect,8,1.043,1,10,0,10,0,1,,,,,,,,,,,,,
65f4ab7884f8411c9e11a34e,SCR,2024-06-26_12h35.58.305,LearnStrategy,2023.2.3,Win32,59.52380952,5,1,12,0.047222208,0.107407393,1,0,0,0.7994,Basalt_05,2,05,4,5,0.799,3,07,-0.160185143,-0.249074088,1,0,0,0.9084,Basalt_rect,2,0.908,1,11,0,11,0,1,,,,,,,,,,,,,
65f4ab7884f8411c9e11a34e,SCR,2024-06-26_12h35.58.305,LearnStrategy,2023.2.3,Win32,59.52380952,5,1,13,0.248148176,0.098148134,1,0,0,0.767,Peridotite_15,7,15,4,6,0.767,1,02,-0.078703704,-0.387037065,1,0,0,1.4271,Pegmatite_rect,6,1.427,0,12,0,12,0,1,,,,,,,,,,,,,
65f4ab7884f8411c9e11a34e,SCR,2024-06-26_12h35.58.305,LearnStrategy,2023.2.3,Win32,59.52380952,5,1,14,-0.416666667,-0.107407393,1,0,0,1.9009,Peridotite_07,7,07,3,2,1.901,7,02,0.091666681,-0.390740783,1,0,0,1.4269,Peridotite_rect,7,1.427,1,13,0,13,0,1,,,,,,,,,,,,,
65f4ab7884f8411c9e11a34e,SCR,2024-06-26_12h35.58.305,LearnStrategy,2023.2.3,Win32,59.52380952,5,1,15,-0.217592593,-0.268518519,1,0,0,1.5741,Pumice_05,8,05,2,3,1.574,1,14,0.412037037,-0.409259302,1,0,0,0.8939,Pumice_rect,8,0.894,1,14,0,14,0,1,,,,,,,,,,,,,
65f4ab7884f8411c9e11a34e,SCR,2024-06-26_12h35.58.305,LearnStrategy,2023.2.3,Win32,59.52380952,5,1,16,-0.081481439,-0.396296325,1,0,0,2.6845,Diorite_02,3,02,1,4,2.685,4,01,0.097222222,-0.258333347,1,0,0,1.9946,Diorite_rect,3,1.995,1,15,0,15,0,1,,,,,,,,,,,,,
65f4ab7884f8411c9e11a34e,SCR,2024-06-26_12h35.58.305,LearnStrategy,2023.2.3,Win32,59.52380952,5,2,1,,,,,,,,8,03,,,,,,,,,,,,,8,1.494,1,,,,,,0.394444501,-0.412037037,1,0,0,1.494,Pumice_rect,0,0,0,0,1,
65f4ab7884f8411c9e11a34e,SCR,2024-06-26_12h35.58.305,LearnStrategy,2023.2.3,Win32,59.52380952,5,2,2,,,,,,,,3,14,,,,,,,,,,,,,3,1.765,1,,,,,,0.138888889,-0.239814829,1,0,0,1.765,Diorite_rect,1,0,1,0,1,
65f4ab7884f8411c9e11a34e,SCR,2024-06-26_12h35.58.305,LearnStrategy,2023.2.3,Win32,59.52380952,5,2,3,,,,,,,,8,02,,,,,,,,,,,,,8,1.744,1,,,,,,0.411111196,-0.388888889,1,0,0,1.7441,Pumice_rect,2,0,2,0,1,
65f4ab7884f8411c9e11a34e,SCR,2024-06-26_12h35.58.305,LearnStrategy,2023.2.3,Win32,59.52380952,5,2,4,,,,,,,,2,08,,,,,,,,,,,,,2,1.177,1,,,,,,-0.188888903,-0.260185171,1,0,0,1.1766,Basalt_rect,3,0,3,0,1,
65f4ab7884f8411c9e11a34e,SCR,2024-06-26_12h35.58.305,LearnStrategy,2023.2.3,Win32,59.52380952,5,2,5,,,,,,,,5,07,,,,,,,,,,,,,5,1.028,1,,,,,,-0.398148148,-0.384259259,1,0,0,1.0279,Obsidian_rect,4,0,4,0,1,
65f4ab7884f8411c9e11a34e,SCR,2024-06-26_12h35.58.305,LearnStrategy,2023.2.3,Win32,59.52380952,5,2,6,,,,,,,,3,08,,,,,,,,,,,,,3,2.112,1,,,,,,0.094444487,-0.237037023,1,0,0,2.1117,Diorite_rect,5,0,5,0,1,
65f4ab7884f8411c9e11a34e,SCR,2024-06-26_12h35.58.305,LearnStrategy,2023.2.3,Win32,59.52380952,5,2,7,,,,,,,,1,11,,,,,,,,,,,,,6,4.183,0,,,,,,-0.124074088,-0.387037065,1,0,0,4.1825,Pegmatite_rect,6,0,6,0,1,
65f4ab7884f8411c9e11a34e,SCR,2024-06-26_12h35.58.305,LearnStrategy,2023.2.3,Win32,59.52380952,5,2,8,,,,,,,,4,09,,,,,,,,,,,,,6,3.213,0,,,,,,-0.118518476,-0.383333347,1,0,0,3.2129,Pegmatite_rect,7,0,7,0,1,
65f4ab7884f8411c9e11a34e,SCR,2024-06-26_12h35.58.305,LearnStrategy,2023.2.3,Win32,59.52380952,5,2,9,,,,,,,,6,15,,,,,,,,,,,,,1,2.296,0,,,,,,-0.40648146,-0.255555541,1,0,0,2.2964,Andesite_rect,8,0,8,0,1,
65f4ab7884f8411c9e11a34e,SCR,2024-06-26_12h35.58.305,LearnStrategy,2023.2.3,Win32,59.52380952,5,2,10,,,,,,,,2,01,,,,,,,,,,,,,2,1.012,1,,,,,,-0.166666667,-0.266666695,1,0,0,1.012,Basalt_rect,9,0,9,0,1,
65f4ab7884f8411c9e11a34e,SCR,2024-06-26_12h35.58.305,LearnStrategy,2023.2.3,Win32,59.52380952,5,2,11,,,,,,,,7,16,,,,,,,,,,,,,7,1.861,1,,,,,,0.10092594,-0.397222236,1,0,0,1.861,Peridotite_rect,10,0,10,0,1,
65f4ab7884f8411c9e11a34e,SCR,2024-06-26_12h35.58.305,LearnStrategy,2023.2.3,Win32,59.52380952,5,2,12,,,,,,,,1,03,,,,,,,,,,,,,6,3.896,0,,,,,,-0.133333347,-0.395370413,1,0,0,3.8964,Pegmatite_rect,11,0,11,0,1,
65f4ab7884f8411c9e11a34e,SCR,2024-06-26_12h35.58.305,LearnStrategy,2023.2.3,Win32,59.52380952,5,2,13,,,,,,,,6,05,,,,,,,,,,,,,1,2.078,0,,,,,,-0.381481489,-0.267592607,1,0,0,2.0779,Andesite_rect,12,0,12,0,1,
65f4ab7884f8411c9e11a34e,SCR,2024-06-26_12h35.58.305,LearnStrategy,2023.2.3,Win32,59.52380952,5,2,14,,,,,,,,4,12,,,,,,,,,,,,,2,1.311,0,,,,,,-0.131481453,-0.250925912,1,0,0,1.3112,Basalt_rect,13,0,13,0,1,
65f4ab7884f8411c9e11a34e,SCR,2024-06-26_12h35.58.305,LearnStrategy,2023.2.3,Win32,59.52380952,5,2,15,,,,,,,,7,08,,,,,,,,,,,,,7,1.41,1,,,,,,0.111111111,-0.405555584,1,0,0,1.4099,Peridotite_rect,14,0,14,0,1,
65f4ab7884f8411c9e11a34e,SCR,2024-06-26_12h35.58.305,LearnStrategy,2023.2.3,Win32,59.52380952,5,2,16,,,,,,,,5,04,,,,,,,,,,,,,5,1.278,1,,,,,,-0.431481467,-0.39444443,1,0,0,1.2779,Obsidian_rect,15,0,15,0,1,
65f4ab7884f8411c9e11a34e,SCR,2024-06-26_12h35.58.305,LearnStrategy,2023.2.3,Win32,59.52380952,6,1,1,-0.228703675,-0.106481481,1,0,0,2.3683,Peridotite_02,7,02,3,3,2.368,1,02,0.185185185,-0.39444443,1,0,0,1.0767,Peridotite_rect,7,1.077,1,0,0,0,0,1,,,,,,,,,,,,,
65f4ab7884f8411c9e11a34e,SCR,2024-06-26_12h35.58.305,LearnStrategy,2023.2.3,Win32,59.52380952,6,1,2,-0.365740741,-0.099074116,1,0,0,4.6876,Peridotite_07,7,07,3,2,4.688,7,10,0.091666681,-0.400925954,1,0,0,1.104,Peridotite_rect,7,1.104,1,1,0,1,0,1,,,,,,,,,,,,,
65f4ab7884f8411c9e11a34e,SCR,2024-06-26_12h35.58.305,LearnStrategy,2023.2.3,Win32,59.52380952,6,1,3,0.558333362,0.096296275,1,0,0,0.9844,Pumice_08,8,08,4,8,0.984,4,11,0.372222194,-0.412962949,1,0,0,1.1418,Pumice_rect,8,1.142,1,2,0,2,0,1,,,,,,,,,,,,,
65f4ab7884f8411c9e11a34e,SCR,2024-06-26_12h35.58.305,LearnStrategy,2023.2.3,Win32,59.52380952,6,1,4,-0.275925884,0.112037023,1,0,0,3.0524,Obsidian_16,5,16,4,3,3.052,8,05,-0.396296289,-0.402777778,1,0,0,0.8266,Obsidian_rect,5,0.827,1,3,0,3,0,1,,,,,,,,,,,,,
65f4ab7884f8411c9e11a34e,SCR,2024-06-26_12h35.58.305,LearnStrategy,2023.2.3,Win32,59.52380952,6,1,5,0.57222225,0.244444441,1,0,0,1.1333,Pegmatite_03,6,03,5,8,1.133,2,02,-0.436111097,-0.239814829,1,0,0,0.8771,Andesite_rect,1,0.877,0,4,0,4,0,1,,,,,,,,,,,,,
65f4ab7884f8411c9e11a34e,SCR,2024-06-26_12h35.58.305,LearnStrategy,2023.2.3,Win32,59.52380952,6,1,6,0.550000085,0.234259252,1,0,0,0.766,Pegmatite_03,6,03,5,8,0.766,6,13,-0.137036995,-0.412962949,1,0,0,0.9603,Pegmatite_rect,6,0.96,1,5,0,5,0,1,,,,,,,,,,,,,
65f4ab7884f8411c9e11a34e,SCR,2024-06-26_12h35.58.305,LearnStrategy,2023.2.3,Win32,59.52380952,6,1,7,-0.053703661,0.394444439,1,0,0,2.468,Pegmatite_12,6,12,6,4,2.468,4,11,-0.414814808,-0.244444459,1,0,0,1.5778,Andesite_rect,1,1.578,0,6,0,6,0,1,,,,,,,,,,,,,
65f4ab7884f8411c9e11a34e,SCR,2024-06-26_12h35.58.305,LearnStrategy,2023.2.3,Win32,59.52380952,6,1,8,-0.537037037,0.406481478,1,0,0,1.0326,Pegmatite_13,6,13,6,1,1.033,6,10,-0.121296282,-0.402777778,1,0,0,1.6938,Pegmatite_rect,6,1.694,1,7,0,7,0,1,,,,,,,,,,,,,
65f4ab7884f8411c9e11a34e,SCR,2024-06-26_12h35.58.305,LearnStrategy,2023.2.3,Win32,59.52380952,6,1,9,-0.567592586,-0.226851852,1,0,0,1.4335,Diorite_07,3,07,2,1,1.434,1,06,0.087037051,-0.228703746,1,0,0,1.0605,Diorite_rect,3,1.061,1,8,0,8,0,1,,,,,,,,,,,,,
65f4ab7884f8411c9e11a34e,SCR,2024-06-26_12h35.58.305,LearnStrategy,2023.2.3,Win32,59.52380952,6,1,10,-0.404629637,0.251851841,1,0,0,1.8499,Andesite_14,1,14,5,2,1.85,4,05,-0.369444423,-0.249074088,1,0,0,0.8591,Andesite_rect,1,0.859,1,9,0,9,0,1,,,,,,,,,,,,,
65f4ab7884f8411c9e11a34e,SCR,2024-06-26_12h35.58.305,LearnStrategy,2023.2.3,Win32,59.52380952,6,1,11,0.387037065,-0.431481467,1,0,0,4.7697,Gabbro_01,4,01,1,7,4.77,1,10,0.077777792,-0.401851866,1,0,0,1.6892,Peridotite_rect,7,1.689,0,10,0,10,0,1,,,,,,,,,,,,,
65f4ab7884f8411c9e11a34e,SCR,2024-06-26_12h35.58.305,LearnStrategy,2023.2.3,Win32,59.52380952,6,1,12,-0.087037051,-0.407407407,1,0,0,1.2832,Diorite_02,3,02,1,4,1.283,5,14,0.080555598,-0.243518547,1,0,0,0.8097,Diorite_rect,3,0.81,1,11,0,11,0,1,,,,,,,,,,,,,
65f4ab7884f8411c9e11a34e,SCR,2024-06-26_12h35.58.305,LearnStrategy,2023.2.3,Win32,59.52380952,6,1,13,0.050925926,-0.385185171,1,0,0,1.134,Andesite_02,1,02,1,5,1.134,6,07,-0.113888847,-0.400925954,1,0,0,3.6128,Pegmatite_rect,6,3.613,0,12,0,12,0,1,,,,,,,,,,,,,
65f4ab7884f8411c9e11a34e,SCR,2024-06-26_12h35.58.305,LearnStrategy,2023.2.3,Win32,59.52380952,6,1,14,-0.077777792,-0.263888889,1,0,0,1.8507,Gabbro_11,4,11,2,4,1.851,7,15,-0.128703718,-0.251851894,1,0,0,1.3612,Basalt_rect,2,1.361,0,13,0,13,0,1,,,,,,,,,,,,,
65f4ab7884f8411c9e11a34e,SCR,2024-06-26_12h35.58.305,LearnStrategy,2023.2.3,Win32,59.52380952,6,1,15,-0.256481453,-0.431481467,1,0,0,2.2676,Gabbro_16,4,16,1,3,2.268,1,01,0.395370342,-0.26944443,1,0,0,2.2116,Gabbro_rect,4,2.212,1,14,0,14,0,1,,,,,,,,,,,,,
65f4ab7884f8411c9e11a34e,SCR,2024-06-26_12h35.58.305,LearnStrategy,2023.2.3,Win32,59.52380952,6,1,16,-0.578703704,0.103703711,1,0,0,3.5022,Basalt_16,2,16,4,1,3.502,3,16,-0.143518519,-0.259259259,1,0,0,1.539,Basalt_rect,2,1.539,1,15,0,15,0,1,,,,,,,,,,,,,
65f4ab7884f8411c9e11a34e,SCR,2024-06-26_12h35.58.305,LearnStrategy,2023.2.3,Win32,59.52380952,6,2,1,,,,,,,,6,09,,,,,,,,,,,,,7,2.296,0,,,,,,0.088888875,-0.402777778,1,0,0,2.2957,Peridotite_rect,0,0,0,0,1,
65f4ab7884f8411c9e11a34e,SCR,2024-06-26_12h35.58.305,LearnStrategy,2023.2.3,Win32,59.52380952,6,2,2,,,,,,,,4,13,,,,,,,,,,,,,4,1.878,1,,,,,,0.429629714,-0.258333347,1,0,0,1.8779,Gabbro_rect,1,0,1,0,1,
65f4ab7884f8411c9e11a34e,SCR,2024-06-26_12h35.58.305,LearnStrategy,2023.2.3,Win32,59.52380952,6,2,3,,,,,,,,1,16,,,,,,,,,,,,,1,3.263,1,,,,,,-0.371296282,-0.232407393,1,0,0,3.263,Andesite_rect,2,0,2,0,1,
65f4ab7884f8411c9e11a34e,SCR,2024-06-26_12h35.58.305,LearnStrategy,2023.2.3,Win32,59.52380952,6,2,4,,,,,,,,3,12,,,,,,,,,,,,,3,1.427,1,,,,,,0.147222236,-0.236111111,1,0,0,1.4274,Diorite_rect,3,0,3,0,1,
65f4ab7884f8411c9e11a34e,SCR,2024-06-26_12h35.58.305,LearnStrategy,2023.2.3,Win32,59.52380952,6,2,5,,,,,,,,2,04,,,,,,,,,,,,,2,1.037,1,,,,,,-0.199999986,-0.237963005,1,0,0,1.0369,Basalt_rect,4,0,4,0,1,
65f4ab7884f8411c9e11a34e,SCR,2024-06-26_12h35.58.305,LearnStrategy,2023.2.3,Win32,59.52380952,6,2,6,,,,,,,,1,09,,,,,,,,,,,,,1,3.397,1,,,,,,-0.438888868,-0.234259288,1,0,0,3.3965,Andesite_rect,5,0,5,0,1,
65f4ab7884f8411c9e11a34e,SCR,2024-06-26_12h35.58.305,LearnStrategy,2023.2.3,Win32,59.52380952,6,2,7,,,,,,,,7,13,,,,,,,,,,,,,7,1.127,1,,,,,,0.151851866,-0.398148148,1,0,0,1.127,Peridotite_rect,6,0,6,0,1,
65f4ab7884f8411c9e11a34e,SCR,2024-06-26_12h35.58.305,LearnStrategy,2023.2.3,Win32,59.52380952,6,2,8,,,,,,,,4,15,,,,,,,,,,,,,3,2.029,0,,,,,,0.128703718,-0.24537037,1,0,0,2.0293,Diorite_rect,7,0,7,0,1,
65f4ab7884f8411c9e11a34e,SCR,2024-06-26_12h35.58.305,LearnStrategy,2023.2.3,Win32,59.52380952,6,2,9,,,,,,,,7,12,,,,,,,,,,,,,3,2.412,0,,,,,,0.087037051,-0.247222265,1,0,0,2.4124,Diorite_rect,8,0,8,0,1,
65f4ab7884f8411c9e11a34e,SCR,2024-06-26_12h35.58.305,LearnStrategy,2023.2.3,Win32,59.52380952,6,2,10,,,,,,,,3,15,,,,,,,,,,,,,3,1.319,1,,,,,,0.069444444,-0.260185171,1,0,0,1.3194,Diorite_rect,9,0,9,0,1,
65f4ab7884f8411c9e11a34e,SCR,2024-06-26_12h35.58.305,LearnStrategy,2023.2.3,Win32,59.52380952,6,2,11,,,,,,,,2,11,,,,,,,,,,,,,8,8.734,0,,,,,,0.413888861,-0.398148148,1,0,0,8.7342,Pumice_rect,10,0,10,0,1,
65f4ab7884f8411c9e11a34e,SCR,2024-06-26_12h35.58.305,LearnStrategy,2023.2.3,Win32,59.52380952,6,2,12,,,,,,,,5,02,,,,,,,,,,,,,5,1.244,1,,,,,,-0.465740734,-0.405555584,1,0,0,1.2436,Obsidian_rect,11,0,11,0,1,
65f4ab7884f8411c9e11a34e,SCR,2024-06-26_12h35.58.305,LearnStrategy,2023.2.3,Win32,59.52380952,6,2,13,,,,,,,,5,12,,,,,,,,,,,,,5,1.227,1,,,,,,-0.397222201,-0.385185171,1,0,0,1.2268,Obsidian_rect,12,0,12,0,1,
65f4ab7884f8411c9e11a34e,SCR,2024-06-26_12h35.58.305,LearnStrategy,2023.2.3,Win32,59.52380952,6,2,14,,,,,,,,8,15,,,,,,,,,,,,,8,1.827,1,,,,,,0.353703675,-0.400000042,1,0,0,1.8275,Pumice_rect,13,0,13,0,1,
65f4ab7884f8411c9e11a34e,SCR,2024-06-26_12h35.58.305,LearnStrategy,2023.2.3,Win32,59.52380952,6,2,15,,,,,,,,6,08,,,,,,,,,,,,,6,2.245,1,,,,,,-0.163888861,-0.388888889,1,0,0,2.2455,Pegmatite_rect,14,0,14,0,1,
65f4ab7884f8411c9e11a34e,SCR,2024-06-26_12h35.58.305,LearnStrategy,2023.2.3,Win32,59.52380952,6,2,16,,,,,,,,8,09,,,,,,,,,,,,,8,1.444,1,,,,,,0.377777806,-0.395370413,1,0,0,1.4437,Pumice_rect,15,0,15,0,1,
65f4ab7884f8411c9e11a34e,SCR,2024-06-26_12h35.58.305,LearnStrategy,2023.2.3,Win32,59.52380952,7,1,1,-0.24537037,-0.12962963,1,0,0,8.2067,Peridotite_02,7,02,3,3,8.207,7,07,0.174074102,-0.405555584,1,0,0,1.0207,Peridotite_rect,7,1.021,1,0,0,0,0,1,,,,,,,,,,,,,
65f4ab7884f8411c9e11a34e,SCR,2024-06-26_12h35.58.305,LearnStrategy,2023.2.3,Win32,59.52380952,7,1,2,0.514814871,0.087037016,1,0,0,1.5337,Pumice_08,8,08,4,8,1.534,1,01,0.386111083,-0.407407407,1,0,0,0.9601,Pumice_rect,8,0.96,1,1,0,1,0,1,,,,,,,,,,,,,
65f4ab7884f8411c9e11a34e,SCR,2024-06-26_12h35.58.305,LearnStrategy,2023.2.3,Win32,59.52380952,7,1,3,-0.255555541,0.250925929,1,0,0,1.5347,Pumice_06,8,06,5,3,1.535,8,05,0.358333305,-0.408333319,1,0,0,1.01,Pumice_rect,8,1.01,1,2,0,2,0,1,,,,,,,,,,,,,
65f4ab7884f8411c9e11a34e,SCR,2024-06-26_12h35.58.305,LearnStrategy,2023.2.3,Win32,59.52380952,7,1,4,0.061111097,0.283333337,1,0,0,0.9012,Pumice_16,8,16,5,5,0.901,4,11,0.371296353,-0.398148148,1,0,0,0.993,Pumice_rect,8,0.993,1,3,0,3,0,1,,,,,,,,,,,,,
65f4ab7884f8411c9e11a34e,SCR,2024-06-26_12h35.58.305,LearnStrategy,2023.2.3,Win32,59.52380952,7,1,5,0.251851894,0.230555552,1,0,0,1.0654,Andesite_06,1,06,5,6,1.065,5,09,-0.390740748,-0.256481524,1,0,0,1.4285,Andesite_rect,1,1.428,1,4,0,4,0,1,,,,,,,,,,,,,
65f4ab7884f8411c9e11a34e,SCR,2024-06-26_12h35.58.305,LearnStrategy,2023.2.3,Win32,59.52380952,7,1,6,0.233333376,0.403703698,1,0,0,1.2324,Diorite_06,3,06,6,6,1.232,1,01,0.110185199,-0.238888917,1,0,0,0.9779,Diorite_rect,3,0.978,1,5,0,5,0,1,,,,,,,,,,,,,
65f4ab7884f8411c9e11a34e,SCR,2024-06-26_12h35.58.305,LearnStrategy,2023.2.3,Win32,59.52380952,7,1,7,0.359259288,0.422222217,1,0,0,0.9494,Gabbro_14,4,14,6,7,0.949,6,12,0.392592677,-0.264814801,1,0,0,2.2615,Gabbro_rect,4,2.262,1,6,0,6,0,1,,,,,,,,,,,,,
65f4ab7884f8411c9e11a34e,SCR,2024-06-26_12h35.58.305,LearnStrategy,2023.2.3,Win32,59.52380952,7,1,8,0.549074102,0.441666665,1,0,0,0.9493,Basalt_12,2,12,6,8,0.949,6,07,-0.04814812,-0.258333347,1,0,0,1.6108,Basalt_rect,2,1.611,1,7,0,7,0,1,,,,,,,,,,,,,
65f4ab7884f8411c9e11a34e,SCR,2024-06-26_12h35.58.305,LearnStrategy,2023.2.3,Win32,59.52380952,7,1,9,-0.37962963,0.091666645,1,0,0,1.1327,Basalt_10,2,10,4,2,1.133,3,16,-0.176851838,-0.244444459,1,0,0,1.2596,Basalt_rect,2,1.26,1,8,0,8,0,1,,,,,,,,,,,,,
65f4ab7884f8411c9e11a34e,SCR,2024-06-26_12h35.58.305,LearnStrategy,2023.2.3,Win32,59.52380952,7,1,10,-0.210185157,0.260185189,1,0,0,1.3331,Pumice_06,8,06,5,3,1.333,7,07,0.353703675,-0.404629672,1,0,0,1.1442,Pumice_rect,8,1.144,1,9,0,9,0,1,,,,,,,,,,,,,
65f4ab7884f8411c9e11a34e,SCR,2024-06-26_12h35.58.305,LearnStrategy,2023.2.3,Win32,59.52380952,7,1,11,-0.418518526,0.2537037,1,0,0,1.0494,Andesite_14,1,14,5,2,1.049,4,03,-0.39907406,-0.244444459,1,0,0,2.2781,Andesite_rect,1,2.278,1,10,0,10,0,1,,,,,,,,,,,,,
65f4ab7884f8411c9e11a34e,SCR,2024-06-26_12h35.58.305,LearnStrategy,2023.2.3,Win32,59.52380952,7,1,12,-0.535185178,-0.112037023,1,0,0,0.9492,Andesite_10,1,10,3,1,0.949,4,03,0.416666667,-0.401851866,1,0,0,2.5793,Pumice_rect,8,2.579,0,11,0,11,0,1,,,,,,,,,,,,,
65f4ab7884f8411c9e11a34e,SCR,2024-06-26_12h35.58.305,LearnStrategy,2023.2.3,Win32,59.52380952,7,1,13,-0.570370356,-0.244444459,1,0,0,1.1325,Diorite_07,3,07,2,1,1.132,6,03,0.079629616,-0.241666653,1,0,0,1.0269,Diorite_rect,3,1.027,1,12,0,12,0,1,,,,,,,,,,,,,
65f4ab7884f8411c9e11a34e,SCR,2024-06-26_12h35.58.305,LearnStrategy,2023.2.3,Win32,59.52380952,7,1,14,0.117592635,0.098148134,1,0,0,1.8013,Basalt_05,2,05,4,5,1.801,1,02,-0.196296268,-0.243518547,1,0,0,1.1279,Basalt_rect,2,1.128,1,13,0,13,0,1,,,,,,,,,,,,,
65f4ab7884f8411c9e11a34e,SCR,2024-06-26_12h35.58.305,LearnStrategy,2023.2.3,Win32,59.52380952,7,1,15,-0.574074074,-0.418518561,1,0,0,1.2487,Basalt_09,2,09,1,1,1.249,2,16,-0.434259238,-0.238888917,1,0,0,2.9347,Andesite_rect,1,2.935,0,14,0,14,0,1,,,,,,,,,,,,,
65f4ab7884f8411c9e11a34e,SCR,2024-06-26_12h35.58.305,LearnStrategy,2023.2.3,Win32,59.52380952,7,1,16,0.056481467,-0.113888917,1,0,0,1.1166,Gabbro_03,4,03,3,5,1.117,2,05,0.14444443,-0.238888917,1,0,0,0.9589,Diorite_rect,3,0.959,0,15,0,15,0,1,,,,,,,,,,,,,
65f4ab7884f8411c9e11a34e,SCR,2024-06-26_12h35.58.305,LearnStrategy,2023.2.3,Win32,59.52380952,7,2,1,,,,,,,,2,06,,,,,,,,,,,,,2,1.395,1,,,,,,-0.172222208,-0.25462963,1,0,0,1.3949,Basalt_rect,0,0,0,0,1,
65f4ab7884f8411c9e11a34e,SCR,2024-06-26_12h35.58.305,LearnStrategy,2023.2.3,Win32,59.52380952,7,2,2,,,,,,,,4,10,,,,,,,,,,,,,4,2.979,1,,,,,,0.386111083,-0.251851894,1,0,0,2.9793,Gabbro_rect,1,0,1,0,1,
65f4ab7884f8411c9e11a34e,SCR,2024-06-26_12h35.58.305,LearnStrategy,2023.2.3,Win32,59.52380952,7,2,3,,,,,,,,6,11,,,,,,,,,,,,,6,3.525,1,,,,,,-0.15370369,-0.414814843,1,0,0,3.525,Pegmatite_rect,2,0,2,0,1,
65f4ab7884f8411c9e11a34e,SCR,2024-06-26_12h35.58.305,LearnStrategy,2023.2.3,Win32,59.52380952,7,2,4,,,,,,,,2,08,,,,,,,,,,,,,2,0.994,1,,,,,,-0.155555513,-0.233333376,1,0,0,0.9942,Basalt_rect,3,0,3,0,1,
65f4ab7884f8411c9e11a34e,SCR,2024-06-26_12h35.58.305,LearnStrategy,2023.2.3,Win32,59.52380952,7,2,5,,,,,,,,4,09,,,,,,,,,,,,,4,1.312,1,,,,,,0.32685188,-0.267592607,1,0,0,1.3117,Gabbro_rect,4,0,4,0,1,
65f4ab7884f8411c9e11a34e,SCR,2024-06-26_12h35.58.305,LearnStrategy,2023.2.3,Win32,59.52380952,7,2,6,,,,,,,,3,14,,,,,,,,,,,,,3,0.994,1,,,,,,0.062037079,-0.232407393,1,0,0,0.9936,Diorite_rect,5,0,5,0,1,
65f4ab7884f8411c9e11a34e,SCR,2024-06-26_12h35.58.305,LearnStrategy,2023.2.3,Win32,59.52380952,7,2,7,,,,,,,,1,03,,,,,,,,,,,,,1,3.08,1,,,,,,-0.39444443,-0.266666695,1,0,0,3.0799,Andesite_rect,6,0,6,0,1,
65f4ab7884f8411c9e11a34e,SCR,2024-06-26_12h35.58.305,LearnStrategy,2023.2.3,Win32,59.52380952,7,2,8,,,,,,,,8,09,,,,,,,,,,,,,8,1.043,1,,,,,,0.412037037,-0.410185213,1,0,0,1.0428,Pumice_rect,7,0,7,0,1,
65f4ab7884f8411c9e11a34e,SCR,2024-06-26_12h35.58.305,LearnStrategy,2023.2.3,Win32,59.52380952,7,2,9,,,,,,,,7,13,,,,,,,,,,,,,7,1.077,1,,,,,,0.113888917,-0.404629672,1,0,0,1.0772,Peridotite_rect,8,0,8,0,1,
65f4ab7884f8411c9e11a34e,SCR,2024-06-26_12h35.58.305,LearnStrategy,2023.2.3,Win32,59.52380952,7,2,10,,,,,,,,5,05,,,,,,,,,,,,,5,1.155,1,,,,,,-0.400925919,-0.400925954,1,0,0,1.1548,Obsidian_rect,9,0,9,0,1,
65f4ab7884f8411c9e11a34e,SCR,2024-06-26_12h35.58.305,LearnStrategy,2023.2.3,Win32,59.52380952,7,2,11,,,,,,,,6,16,,,,,,,,,,,,,6,4.347,1,,,,,,-0.156481496,-0.414814843,1,0,0,4.3475,Pegmatite_rect,10,0,10,0,1,
65f4ab7884f8411c9e11a34e,SCR,2024-06-26_12h35.58.305,LearnStrategy,2023.2.3,Win32,59.52380952,7,2,12,,,,,,,,3,12,,,,,,,,,,,,,3,1.911,1,,,,,,0.12962963,-0.256481524,1,0,0,1.9113,Diorite_rect,11,0,11,0,1,
65f4ab7884f8411c9e11a34e,SCR,2024-06-26_12h35.58.305,LearnStrategy,2023.2.3,Win32,59.52380952,7,2,13,,,,,,,,5,12,,,,,,,,,,,,,5,0.978,1,,,,,,-0.449074074,-0.389814801,1,0,0,0.978,Obsidian_rect,12,0,12,0,1,
65f4ab7884f8411c9e11a34e,SCR,2024-06-26_12h35.58.305,LearnStrategy,2023.2.3,Win32,59.52380952,7,2,14,,,,,,,,1,16,,,,,,,,,,,,,1,6.551,1,,,,,,-0.447222215,-0.263888889,1,0,0,6.5514,Andesite_rect,13,0,13,0,1,
65f4ab7884f8411c9e11a34e,SCR,2024-06-26_12h35.58.305,LearnStrategy,2023.2.3,Win32,59.52380952,7,2,15,,,,,,,,8,03,,,,,,,,,,,,,8,1.478,1,,,,,,0.406481566,-0.396296325,1,0,0,1.4777,Pumice_rect,14,0,14,0,1,
65f4ab7884f8411c9e11a34e,SCR,2024-06-26_12h35.58.305,LearnStrategy,2023.2.3,Win32,59.52380952,7,2,16,,,,,,,,7,08,,,,,,,,,,,,,7,1.21,1,,,,,,0.172222208,-0.387962977,1,0,0,1.2102,Peridotite_rect,15,0,15,0,1,
65f4ab7884f8411c9e11a34e,SCR,2024-06-26_12h35.58.305,LearnStrategy,2023.2.3,Win32,59.52380952,8,1,1,-0.080555527,0.062962956,1,0,0,1.1341,Pumice_10,8,10,4,4,1.134,6,07,0.392592677,-0.410185213,1,0,0,1.091,Pumice_rect,8,1.091,1,0,0,0,0,1,,,,,,,,,,,,,
65f4ab7884f8411c9e11a34e,SCR,2024-06-26_12h35.58.305,LearnStrategy,2023.2.3,Win32,59.52380952,8,1,2,0.100000028,0.252777771,1,0,0,0.9337,Pumice_16,8,16,5,5,0.934,4,01,0.387963048,-0.405555584,1,0,0,1.1271,Pumice_rect,8,1.127,1,1,0,1,0,1,,,,,,,,,,,,,
65f4ab7884f8411c9e11a34e,SCR,2024-06-26_12h35.58.305,LearnStrategy,2023.2.3,Win32,59.52380952,8,1,3,0.087037051,0.094444452,1,0,0,1.0831,Basalt_05,2,05,4,5,1.083,2,12,-0.210185157,-0.244444459,1,0,0,1.1262,Basalt_rect,2,1.126,1,2,0,2,0,1,,,,,,,,,,,,,
65f4ab7884f8411c9e11a34e,SCR,2024-06-26_12h35.58.305,LearnStrategy,2023.2.3,Win32,59.52380952,8,1,4,-0.032407407,-0.110185199,1,0,0,1.2169,Diorite_09,3,09,3,4,1.217,3,09,0.099074116,-0.237037023,1,0,0,1.0263,Diorite_rect,3,1.026,1,3,0,3,0,1,,,,,,,,,,,,,
65f4ab7884f8411c9e11a34e,SCR,2024-06-26_12h35.58.305,LearnStrategy,2023.2.3,Win32,59.52380952,8,1,5,0.387037065,-0.116666653,1,0,0,1.0507,Obsidian_14,5,14,3,7,1.051,2,02,-0.340740734,-0.37962963,1,0,0,1.1609,Obsidian_rect,5,1.161,1,4,0,4,0,1,,,,,,,,,,,,,
65f4ab7884f8411c9e11a34e,SCR,2024-06-26_12h35.58.305,LearnStrategy,2023.2.3,Win32,59.52380952,8,1,6,0.550925926,-0.412037037,1,0,0,1.0502,Andesite_01,1,01,1,8,1.05,4,14,0.339814787,-0.261111153,1,0,0,3.3725,Gabbro_rect,4,3.373,0,5,0,5,0,1,,,,,,,,,,,,,
65f4ab7884f8411c9e11a34e,SCR,2024-06-26_12h35.58.305,LearnStrategy,2023.2.3,Win32,59.52380952,8,1,7,0.539814843,-0.426851838,1,0,0,0.7326,Andesite_01,1,01,1,8,0.733,1,14,-0.385185171,-0.251851894,1,0,0,1.0108,Andesite_rect,1,1.011,1,6,0,6,0,1,,,,,,,,,,,,,
65f4ab7884f8411c9e11a34e,SCR,2024-06-26_12h35.58.305,LearnStrategy,2023.2.3,Win32,59.52380952,8,1,8,-0.562962956,0.292592596,1,0,0,1.0503,Peridotite_05,7,05,5,1,1.05,5,09,0.09629631,-0.406481496,1,0,0,1.993,Peridotite_rect,7,1.993,1,7,0,7,0,1,,,,,,,,,,,,,
65f4ab7884f8411c9e11a34e,SCR,2024-06-26_12h35.58.305,LearnStrategy,2023.2.3,Win32,59.52380952,8,1,9,-0.565740727,-0.125,1,0,0,0.7495,Andesite_10,1,10,3,1,0.749,6,10,-0.424074067,-0.241666653,1,0,0,1.177,Andesite_rect,1,1.177,1,8,0,8,0,1,,,,,,,,,,,,,
65f4ab7884f8411c9e11a34e,SCR,2024-06-26_12h35.58.305,LearnStrategy,2023.2.3,Win32,59.52380952,8,1,10,-0.576851845,-0.389814801,1,0,0,0.849,Basalt_09,2,09,1,1,0.849,6,12,-0.451851845,-0.249074088,1,0,0,2.3978,Andesite_rect,1,2.398,0,9,0,9,0,1,,,,,,,,,,,,,
65f4ab7884f8411c9e11a34e,SCR,2024-06-26_12h35.58.305,LearnStrategy,2023.2.3,Win32,59.52380952,8,1,11,-0.547222208,-0.12037037,1,0,0,1.082,Andesite_10,1,10,3,1,1.082,7,07,-0.437037044,-0.258333347,1,0,0,1.1095,Andesite_rect,1,1.109,1,10,0,10,0,1,,,,,,,,,,,,,
65f4ab7884f8411c9e11a34e,SCR,2024-06-26_12h35.58.305,LearnStrategy,2023.2.3,Win32,59.52380952,8,1,12,-0.553703697,-0.228703746,1,0,0,0.6669,Diorite_07,3,07,2,1,0.667,1,01,0.108333376,-0.241666653,1,0,0,1.0782,Diorite_rect,3,1.078,1,11,0,11,0,1,,,,,,,,,,,,,
65f4ab7884f8411c9e11a34e,SCR,2024-06-26_12h35.58.305,LearnStrategy,2023.2.3,Win32,59.52380952,8,1,13,0.094444487,-0.08425928,1,0,0,1.0833,Gabbro_03,4,03,3,5,1.083,7,14,0.091666681,-0.247222265,1,0,0,0.9943,Diorite_rect,3,0.994,0,12,0,12,0,1,,,,,,,,,,,,,
65f4ab7884f8411c9e11a34e,SCR,2024-06-26_12h35.58.305,LearnStrategy,2023.2.3,Win32,59.52380952,8,1,14,-0.19259255,0.074999986,1,0,0,3.3681,Obsidian_16,5,16,4,3,3.368,4,14,-0.435185185,-0.391666695,1,0,0,1.3046,Obsidian_rect,5,1.305,1,13,0,13,0,1,,,,,,,,,,,,,
65f4ab7884f8411c9e11a34e,SCR,2024-06-26_12h35.58.305,LearnStrategy,2023.2.3,Win32,59.52380952,8,1,15,-0.088888875,0.256481471,1,0,0,1.4329,Obsidian_11,5,11,5,4,1.433,1,06,-0.445370356,-0.398148148,1,0,0,0.994,Obsidian_rect,5,0.994,1,14,0,14,0,1,,,,,,,,,,,,,
65f4ab7884f8411c9e11a34e,SCR,2024-06-26_12h35.58.305,LearnStrategy,2023.2.3,Win32,59.52380952,8,1,16,0.119444459,0.413888887,1,0,0,0.9823,Obsidian_09,5,09,6,5,0.982,8,08,-0.402777778,-0.409259302,1,0,0,1.1774,Obsidian_rect,5,1.177,1,15,0,15,0,1,,,,,,,,,,,,,
65f4ab7884f8411c9e11a34e,SCR,2024-06-26_12h35.58.305,LearnStrategy,2023.2.3,Win32,59.52380952,8,2,1,,,,,,,,1,09,,,,,,,,,,,,,1,3.453,1,,,,,,-0.427777785,-0.246296282,1,0,0,3.4531,Andesite_rect,0,0,0,0,1,
65f4ab7884f8411c9e11a34e,SCR,2024-06-26_12h35.58.305,LearnStrategy,2023.2.3,Win32,59.52380952,8,2,2,,,,,,,,3,11,,,,,,,,,,,,,3,0.977,1,,,,,,0.165740755,-0.24537037,1,0,0,0.9773,Diorite_rect,1,0,1,0,1,
65f4ab7884f8411c9e11a34e,SCR,2024-06-26_12h35.58.305,LearnStrategy,2023.2.3,Win32,59.52380952,8,2,3,,,,,,,,4,12,,,,,,,,,,,,,4,2.429,1,,,,,,0.338888945,-0.239814829,1,0,0,2.4291,Gabbro_rect,2,0,2,0,1,
65f4ab7884f8411c9e11a34e,SCR,2024-06-26_12h35.58.305,LearnStrategy,2023.2.3,Win32,59.52380952,8,2,4,,,,,,,,8,15,,,,,,,,,,,,,8,1.07,1,,,,,,0.372222194,-0.414814843,1,0,0,1.0695,Pumice_rect,3,0,3,0,1,
65f4ab7884f8411c9e11a34e,SCR,2024-06-26_12h35.58.305,LearnStrategy,2023.2.3,Win32,59.52380952,8,2,5,,,,,,,,2,01,,,,,,,,,,,,,2,1.128,1,,,,,,-0.175000014,-0.241666653,1,0,0,1.1279,Basalt_rect,4,0,4,0,1,
65f4ab7884f8411c9e11a34e,SCR,2024-06-26_12h35.58.305,LearnStrategy,2023.2.3,Win32,59.52380952,8,2,6,,,,,,,,5,07,,,,,,,,,,,,,5,0.994,1,,,,,,-0.435185185,-0.397222236,1,0,0,0.9936,Obsidian_rect,5,0,5,0,1,
65f4ab7884f8411c9e11a34e,SCR,2024-06-26_12h35.58.305,LearnStrategy,2023.2.3,Win32,59.52380952,8,2,7,,,,,,,,7,16,,,,,,,,,,,,,7,1.428,1,,,,,,0.080555598,-0.391666695,1,0,0,1.4284,Peridotite_rect,6,0,6,0,1,
65f4ab7884f8411c9e11a34e,SCR,2024-06-26_12h35.58.305,LearnStrategy,2023.2.3,Win32,59.52380952,8,2,8,,,,,,,,4,13,,,,,,,,,,,,,4,4.981,1,,,,,,0.401851937,-0.25,1,0,0,4.9813,Gabbro_rect,7,0,7,0,1,
65f4ab7884f8411c9e11a34e,SCR,2024-06-26_12h35.58.305,LearnStrategy,2023.2.3,Win32,59.52380952,8,2,9,,,,,,,,5,04,,,,,,,,,,,,,5,0.911,1,,,,,,-0.437962956,-0.40370369,1,0,0,0.911,Obsidian_rect,8,0,8,0,1,
65f4ab7884f8411c9e11a34e,SCR,2024-06-26_12h35.58.305,LearnStrategy,2023.2.3,Win32,59.52380952,8,2,10,,,,,,,,1,04,,,,,,,,,,,,,1,1.998,1,,,,,,-0.466666645,-0.251851894,1,0,0,1.9979,Andesite_rect,9,0,9,0,1,
65f4ab7884f8411c9e11a34e,SCR,2024-06-26_12h35.58.305,LearnStrategy,2023.2.3,Win32,59.52380952,8,2,11,,,,,,,,8,02,,,,,,,,,,,,,8,1.292,1,,,,,,0.425000085,-0.395370413,1,0,0,1.2922,Pumice_rect,10,0,10,0,1,
65f4ab7884f8411c9e11a34e,SCR,2024-06-26_12h35.58.305,LearnStrategy,2023.2.3,Win32,59.52380952,8,2,12,,,,,,,,6,15,,,,,,,,,,,,,6,3.38,1,,,,,,-0.130555541,-0.401851866,1,0,0,3.3795,Pegmatite_rect,11,0,11,0,1,
65f4ab7884f8411c9e11a34e,SCR,2024-06-26_12h35.58.305,LearnStrategy,2023.2.3,Win32,59.52380952,8,2,13,,,,,,,,6,09,,,,,,,,,,,,,7,1.561,0,,,,,,0.099074116,-0.413888931,1,0,0,1.5608,Peridotite_rect,12,0,12,0,1,
65f4ab7884f8411c9e11a34e,SCR,2024-06-26_12h35.58.305,LearnStrategy,2023.2.3,Win32,59.52380952,8,2,14,,,,,,,,2,11,,,,,,,,,,,,,1,11.372,0,,,,,,-0.408333319,-0.243518547,1,0,0,11.3721,Andesite_rect,13,0,13,0,1,
65f4ab7884f8411c9e11a34e,SCR,2024-06-26_12h35.58.305,LearnStrategy,2023.2.3,Win32,59.52380952,8,2,15,,,,,,,,3,13,,,,,,,,,,,,,3,1.161,1,,,,,,0.142592607,-0.240740741,1,0,0,1.1608,Diorite_rect,14,0,14,0,1,
65f4ab7884f8411c9e11a34e,SCR,2024-06-26_12h35.58.305,LearnStrategy,2023.2.3,Win32,59.52380952,8,2,16,,,,,,,,7,06,,,,,,,,,,,,,7,1.328,1,,,,,,0.102777764,-0.408333319,1,0,0,1.3278,Peridotite_rect,15,0,15,0,1,
65f4ab7884f8411c9e11a34e,SCR,2024-06-26_12h35.58.305,LearnStrategy,2023.2.3,Win32,59.52380952,9,1,1,0.025000042,0.107407393,1,0,0,1.033,Basalt_05,2,05,4,5,1.033,7,15,-0.182407379,-0.243518547,1,0,0,0.7763,Basalt_rect,2,0.776,1,0,0,0,0,1,,,,,,,,,,,,,
65f4ab7884f8411c9e11a34e,SCR,2024-06-26_12h35.58.305,LearnStrategy,2023.2.3,Win32,59.52380952,9,1,2,0.398148148,-0.241666653,1,0,0,0.9341,Pegmatite_06,6,06,2,7,0.934,6,10,-0.150925884,-0.409259302,1,0,0,3.3121,Pegmatite_rect,6,3.312,1,1,0,1,0,1,,,,,,,,,,,,,
65f4ab7884f8411c9e11a34e,SCR,2024-06-26_12h35.58.305,LearnStrategy,2023.2.3,Win32,59.52380952,9,1,3,0.540740826,0.105555534,1,0,0,0.85,Pumice_08,8,08,4,8,0.85,2,16,0.387037065,-0.402777778,1,0,0,1.5605,Pumice_rect,8,1.561,1,2,0,2,0,1,,,,,,,,,,,,,
65f4ab7884f8411c9e11a34e,SCR,2024-06-26_12h35.58.305,LearnStrategy,2023.2.3,Win32,59.52380952,9,1,4,0.40833339,0.125925912,1,0,0,0.6825,Diorite_16,3,16,4,7,0.683,6,13,0.118518547,-0.239814829,1,0,0,1.1114,Diorite_rect,3,1.111,1,3,0,3,0,1,,,,,,,,,,,,,
65f4ab7884f8411c9e11a34e,SCR,2024-06-26_12h35.58.305,LearnStrategy,2023.2.3,Win32,59.52380952,9,1,5,0.557407379,0.248148141,1,0,0,0.8335,Pegmatite_03,6,03,5,8,0.834,6,12,0.087037051,-0.40370369,1,0,0,1.6613,Peridotite_rect,7,1.661,0,4,0,4,0,1,,,,,,,,,,,,,
65f4ab7884f8411c9e11a34e,SCR,2024-06-26_12h35.58.305,LearnStrategy,2023.2.3,Win32,59.52380952,9,1,6,0.425000085,0.262962959,1,0,0,0.7822,Basalt_02,2,02,5,7,0.782,8,10,-0.150925884,-0.244444459,1,0,0,0.9441,Basalt_rect,2,0.944,1,5,0,5,0,1,,,,,,,,,,,,,
65f4ab7884f8411c9e11a34e,SCR,2024-06-26_12h35.58.305,LearnStrategy,2023.2.3,Win32,59.52380952,9,1,7,0.551851908,-0.233333376,1,0,0,1.1841,Pegmatite_10,6,10,2,8,1.184,5,09,0.112037023,-0.418518561,1,0,0,1.1267,Peridotite_rect,7,1.127,0,6,0,6,0,1,,,,,,,,,,,,,
65f4ab7884f8411c9e11a34e,SCR,2024-06-26_12h35.58.305,LearnStrategy,2023.2.3,Win32,59.52380952,9,1,8,0.359259288,-0.42777782,1,0,0,0.8998,Gabbro_01,4,01,1,7,0.9,7,02,0.37037037,-0.248148176,1,0,0,4.5147,Gabbro_rect,4,4.515,1,7,0,7,0,1,,,,,,,,,,,,,
65f4ab7884f8411c9e11a34e,SCR,2024-06-26_12h35.58.305,LearnStrategy,2023.2.3,Win32,59.52380952,9,1,9,-0.543518526,-0.424074102,1,0,0,0.8324,Basalt_09,2,09,1,1,0.832,1,05,-0.181481467,-0.238888917,1,0,0,1.0435,Basalt_rect,2,1.043,1,8,0,8,0,1,,,,,,,,,,,,,
65f4ab7884f8411c9e11a34e,SCR,2024-06-26_12h35.58.305,LearnStrategy,2023.2.3,Win32,59.52380952,9,1,10,-0.082407422,-0.092592593,1,0,0,1.0171,Diorite_09,3,09,3,4,1.017,1,02,0.135185171,-0.253703718,1,0,0,0.8089,Diorite_rect,3,0.809,1,9,0,9,0,1,,,,,,,,,,,,,
65f4ab7884f8411c9e11a34e,SCR,2024-06-26_12h35.58.305,LearnStrategy,2023.2.3,Win32,59.52380952,9,1,11,-0.542592578,-0.111111111,1,0,0,1.0326,Andesite_10,1,10,3,1,1.033,2,02,-0.368518511,-0.248148176,1,0,0,0.9944,Andesite_rect,1,0.994,1,10,0,10,0,1,,,,,,,,,,,,,
65f4ab7884f8411c9e11a34e,SCR,2024-06-26_12h35.58.305,LearnStrategy,2023.2.3,Win32,59.52380952,9,1,12,-0.101851852,-0.247222265,1,0,0,0.9004,Gabbro_11,4,11,2,4,0.9,2,09,-0.125925912,-0.260185171,1,0,0,1.1766,Basalt_rect,2,1.177,0,11,0,11,0,1,,,,,,,,,,,,,
65f4ab7884f8411c9e11a34e,SCR,2024-06-26_12h35.58.305,LearnStrategy,2023.2.3,Win32,59.52380952,9,1,13,-0.258333347,-0.252777806,1,0,0,1.2841,Pumice_05,8,05,2,3,1.284,3,02,0.412963019,-0.401851866,1,0,0,0.894,Pumice_rect,8,0.894,1,12,0,12,0,1,,,,,,,,,,,,,
65f4ab7884f8411c9e11a34e,SCR,2024-06-26_12h35.58.305,LearnStrategy,2023.2.3,Win32,59.52380952,9,1,14,0.218518504,-0.234259288,1,0,0,1.0508,Peridotite_10,7,10,2,6,1.051,4,11,0.130555541,-0.406481496,1,0,0,1.2754,Peridotite_rect,7,1.275,1,13,0,13,0,1,,,,,,,,,,,,,
65f4ab7884f8411c9e11a34e,SCR,2024-06-26_12h35.58.305,LearnStrategy,2023.2.3,Win32,59.52380952,9,1,15,0.193518533,-0.387037065,1,0,0,1.6174,Obsidian_08,5,08,1,6,1.617,4,14,-0.423148155,-0.402777778,1,0,0,1.0931,Obsidian_rect,5,1.093,1,14,0,14,0,1,,,,,,,,,,,,,
65f4ab7884f8411c9e11a34e,SCR,2024-06-26_12h35.58.305,LearnStrategy,2023.2.3,Win32,59.52380952,9,1,16,0.358333305,-0.418518561,1,0,0,0.9339,Gabbro_01,4,01,1,7,0.934,6,12,0.351851852,-0.252777806,1,0,0,1.6271,Gabbro_rect,4,1.627,1,15,0,15,0,1,,,,,,,,,,,,,
65f4ab7884f8411c9e11a34e,SCR,2024-06-26_12h35.58.305,LearnStrategy,2023.2.3,Win32,59.52380952,9,2,1,,,,,,,,2,04,,,,,,,,,,,,,2,1.244,1,,,,,,-0.158333319,-0.239814829,1,0,0,1.2435,Basalt_rect,0,0,0,0,1,
65f4ab7884f8411c9e11a34e,SCR,2024-06-26_12h35.58.305,LearnStrategy,2023.2.3,Win32,59.52380952,9,2,2,,,,,,,,1,07,,,,,,,,,,,,,3,4.398,0,,,,,,0.136111153,-0.234259288,1,0,0,4.3981,Diorite_rect,1,0,1,0,1,
65f4ab7884f8411c9e11a34e,SCR,2024-06-26_12h35.58.305,LearnStrategy,2023.2.3,Win32,59.52380952,9,2,3,,,,,,,,7,04,,,,,,,,,,,,,4,5.027,0,,,,,,0.374074159,-0.267592607,1,0,0,5.0269,Gabbro_rect,2,0,2,0,1,
65f4ab7884f8411c9e11a34e,SCR,2024-06-26_12h35.58.305,LearnStrategy,2023.2.3,Win32,59.52380952,9,2,4,,,,,,,,7,12,,,,,,,,,,,,,3,4.331,0,,,,,,0.12037037,-0.249074088,1,0,0,4.3313,Diorite_rect,3,0,3,0,1,
65f4ab7884f8411c9e11a34e,SCR,2024-06-26_12h35.58.305,LearnStrategy,2023.2.3,Win32,59.52380952,9,2,5,,,,,,,,8,13,,,,,,,,,,,,,8,1.974,1,,,,,,0.373148176,-0.40370369,1,0,0,1.9739,Pumice_rect,4,0,4,0,1,
65f4ab7884f8411c9e11a34e,SCR,2024-06-26_12h35.58.305,LearnStrategy,2023.2.3,Win32,59.52380952,9,2,6,,,,,,,,1,11,,,,,,,,,,,,,1,1.161,1,,,,,,-0.375925912,-0.233333376,1,0,0,1.1608,Andesite_rect,5,0,5,0,1,
65f4ab7884f8411c9e11a34e,SCR,2024-06-26_12h35.58.305,LearnStrategy,2023.2.3,Win32,59.52380952,9,2,7,,,,,,,,5,06,,,,,,,,,,,,,5,0.845,1,,,,,,-0.442592586,-0.400000042,1,0,0,0.8454,Obsidian_rect,6,0,6,0,1,
65f4ab7884f8411c9e11a34e,SCR,2024-06-26_12h35.58.305,LearnStrategy,2023.2.3,Win32,59.52380952,9,2,8,,,,,,,,4,08,,,,,,,,,,,,,4,1.945,1,,,,,,0.358333305,-0.259259259,1,0,0,1.9446,Gabbro_rect,7,0,7,0,1,
65f4ab7884f8411c9e11a34e,SCR,2024-06-26_12h35.58.305,LearnStrategy,2023.2.3,Win32,59.52380952,9,2,9,,,,,,,,2,14,,,,,,,,,,,,,8,1.761,0,,,,,,0.361111111,-0.400925954,1,0,0,1.7612,Pumice_rect,8,0,8,0,1,
65f4ab7884f8411c9e11a34e,SCR,2024-06-26_12h35.58.305,LearnStrategy,2023.2.3,Win32,59.52380952,9,2,10,,,,,,,,5,02,,,,,,,,,,,,,5,0.966,1,,,,,,-0.386111118,-0.389814801,1,0,0,0.9656,Obsidian_rect,9,0,9,0,1,
65f4ab7884f8411c9e11a34e,SCR,2024-06-26_12h35.58.305,LearnStrategy,2023.2.3,Win32,59.52380952,9,2,11,,,,,,,,6,08,,,,,,,,,,,,,6,3.546,1,,,,,,-0.145370342,-0.410185213,1,0,0,3.5463,Pegmatite_rect,10,0,10,0,1,
65f4ab7884f8411c9e11a34e,SCR,2024-06-26_12h35.58.305,LearnStrategy,2023.2.3,Win32,59.52380952,9,2,12,,,,,,,,4,15,,,,,,,,,,,,,4,8.719,1,,,,,,0.357407464,-0.238888917,1,0,0,8.7193,Gabbro_rect,11,0,11,0,1,
65f4ab7884f8411c9e11a34e,SCR,2024-06-26_12h35.58.305,LearnStrategy,2023.2.3,Win32,59.52380952,9,2,13,,,,,,,,6,05,,,,,,,,,,,,,6,1.378,1,,,,,,-0.150925884,-0.412037037,1,0,0,1.3778,Pegmatite_rect,12,0,12,0,1,
65f4ab7884f8411c9e11a34e,SCR,2024-06-26_12h35.58.305,LearnStrategy,2023.2.3,Win32,59.52380952,9,2,14,,,,,,,,3,15,,,,,,,,,,,,,3,2.782,1,,,,,,0.128703718,-0.25,1,0,0,2.7817,Diorite_rect,13,0,13,0,1,
65f4ab7884f8411c9e11a34e,SCR,2024-06-26_12h35.58.305,LearnStrategy,2023.2.3,Win32,59.52380952,9,2,15,,,,,,,,3,08,,,,,,,,,,,,,3,1.689,1,,,,,,0.122222265,-0.251851894,1,0,0,1.6894,Diorite_rect,14,0,14,0,1,
65f4ab7884f8411c9e11a34e,SCR,2024-06-26_12h35.58.305,LearnStrategy,2023.2.3,Win32,59.52380952,9,2,16,,,,,,,,8,14,,,,,,,,,,,,,8,2.196,1,,,,,,0.356481481,-0.407407407,1,0,0,2.1963,Pumice_rect,15,0,15,0,1,
65f4ab7884f8411c9e11a34e,SCR,2024-06-26_12h35.58.305,LearnStrategy,2023.2.3,Win32,59.52380952,,,,,,,,,,,,,,,,,,,,,,,,,,,,,,,,,,,,,,,,,,,,,1
65f4ab7884f8411c9e11a34e,SCR,2024-06-26_12h35.58.305,LearnStrategy,2023.2.3,Win32,59.52380952,,,,,,,,,,,,,,,,,,,,,,,,,,,,,,,,,,,,,,,,,,,,,
65f4ab7884f8411c9e11a34e,SCR,2024-06-26_12h35.58.305,LearnStrategy,2023.2.3,Win32,59.52380952,,,,,,,,,,,2,09,1,1,,,,,,,,,,,,,,,,,,,,,,,,,,,,,,,
65f4ab7884f8411c9e11a34e,SCR,2024-06-26_12h35.58.305,LearnStrategy,2023.2.3,Win32,59.52380952,,,,,,,,,,,5,10,1,2,,,,,,,,,,,,,,,,,,,,,,,,,,,,,,,
65f4ab7884f8411c9e11a34e,SCR,2024-06-26_12h35.58.305,LearnStrategy,2023.2.3,Win32,59.52380952,,,,,,,,,,,4,16,1,3,,,,,,,,,,,,,,,,,,,,,,,,,,,,,,,
65f4ab7884f8411c9e11a34e,SCR,2024-06-26_12h35.58.305,LearnStrategy,2023.2.3,Win32,59.52380952,,,,,,,,,,,3,02,1,4,,,,,,,,,,,,,,,,,,,,,,,,,,,,,,,
65f4ab7884f8411c9e11a34e,SCR,2024-06-26_12h35.58.305,LearnStrategy,2023.2.3,Win32,59.52380952,,,,,,,,,,,1,02,1,5,,,,,,,,,,,,,,,,,,,,,,,,,,,,,,,
65f4ab7884f8411c9e11a34e,SCR,2024-06-26_12h35.58.305,LearnStrategy,2023.2.3,Win32,59.52380952,,,,,,,,,,,5,08,1,6,,,,,,,,,,,,,,,,,,,,,,,,,,,,,,,
65f4ab7884f8411c9e11a34e,SCR,2024-06-26_12h35.58.305,LearnStrategy,2023.2.3,Win32,59.52380952,,,,,,,,,,,4,01,1,7,,,,,,,,,,,,,,,,,,,,,,,,,,,,,,,
65f4ab7884f8411c9e11a34e,SCR,2024-06-26_12h35.58.305,LearnStrategy,2023.2.3,Win32,59.52380952,,,,,,,,,,,1,01,1,8,,,,,,,,,,,,,,,,,,,,,,,,,,,,,,,
65f4ab7884f8411c9e11a34e,SCR,2024-06-26_12h35.58.305,LearnStrategy,2023.2.3,Win32,59.52380952,,,,,,,,,,,3,07,2,1,,,,,,,,,,,,,,,,,,,,,,,,,,,,,,,
65f4ab7884f8411c9e11a34e,SCR,2024-06-26_12h35.58.305,LearnStrategy,2023.2.3,Win32,59.52380952,,,,,,,,,,,4,05,2,2,,,,,,,,,,,,,,,,,,,,,,,,,,,,,,,
65f4ab7884f8411c9e11a34e,SCR,2024-06-26_12h35.58.305,LearnStrategy,2023.2.3,Win32,59.52380952,,,,,,,,,,,8,05,2,3,,,,,,,,,,,,,,,,,,,,,,,,,,,,,,,
65f4ab7884f8411c9e11a34e,SCR,2024-06-26_12h35.58.305,LearnStrategy,2023.2.3,Win32,59.52380952,,,,,,,,,,,4,11,2,4,,,,,,,,,,,,,,,,,,,,,,,,,,,,,,,
65f4ab7884f8411c9e11a34e,SCR,2024-06-26_12h35.58.305,LearnStrategy,2023.2.3,Win32,59.52380952,,,,,,,,,,,8,04,2,5,,,,,,,,,,,,,,,,,,,,,,,,,,,,,,,
65f4ab7884f8411c9e11a34e,SCR,2024-06-26_12h35.58.305,LearnStrategy,2023.2.3,Win32,59.52380952,,,,,,,,,,,7,10,2,6,,,,,,,,,,,,,,,,,,,,,,,,,,,,,,,
65f4ab7884f8411c9e11a34e,SCR,2024-06-26_12h35.58.305,LearnStrategy,2023.2.3,Win32,59.52380952,,,,,,,,,,,6,06,2,7,,,,,,,,,,,,,,,,,,,,,,,,,,,,,,,
65f4ab7884f8411c9e11a34e,SCR,2024-06-26_12h35.58.305,LearnStrategy,2023.2.3,Win32,59.52380952,,,,,,,,,,,6,10,2,8,,,,,,,,,,,,,,,,,,,,,,,,,,,,,,,
65f4ab7884f8411c9e11a34e,SCR,2024-06-26_12h35.58.305,LearnStrategy,2023.2.3,Win32,59.52380952,,,,,,,,,,,1,10,3,1,,,,,,,,,,,,,,,,,,,,,,,,,,,,,,,
65f4ab7884f8411c9e11a34e,SCR,2024-06-26_12h35.58.305,LearnStrategy,2023.2.3,Win32,59.52380952,,,,,,,,,,,7,07,3,2,,,,,,,,,,,,,,,,,,,,,,,,,,,,,,,
65f4ab7884f8411c9e11a34e,SCR,2024-06-26_12h35.58.305,LearnStrategy,2023.2.3,Win32,59.52380952,,,,,,,,,,,7,02,3,3,,,,,,,,,,,,,,,,,,,,,,,,,,,,,,,
65f4ab7884f8411c9e11a34e,SCR,2024-06-26_12h35.58.305,LearnStrategy,2023.2.3,Win32,59.52380952,,,,,,,,,,,3,09,3,4,,,,,,,,,,,,,,,,,,,,,,,,,,,,,,,
65f4ab7884f8411c9e11a34e,SCR,2024-06-26_12h35.58.305,LearnStrategy,2023.2.3,Win32,59.52380952,,,,,,,,,,,4,03,3,5,,,,,,,,,,,,,,,,,,,,,,,,,,,,,,,
65f4ab7884f8411c9e11a34e,SCR,2024-06-26_12h35.58.305,LearnStrategy,2023.2.3,Win32,59.52380952,,,,,,,,,,,3,10,3,6,,,,,,,,,,,,,,,,,,,,,,,,,,,,,,,
65f4ab7884f8411c9e11a34e,SCR,2024-06-26_12h35.58.305,LearnStrategy,2023.2.3,Win32,59.52380952,,,,,,,,,,,5,14,3,7,,,,,,,,,,,,,,,,,,,,,,,,,,,,,,,
65f4ab7884f8411c9e11a34e,SCR,2024-06-26_12h35.58.305,LearnStrategy,2023.2.3,Win32,59.52380952,,,,,,,,,,,1,05,3,8,,,,,,,,,,,,,,,,,,,,,,,,,,,,,,,
65f4ab7884f8411c9e11a34e,SCR,2024-06-26_12h35.58.305,LearnStrategy,2023.2.3,Win32,59.52380952,,,,,,,,,,,2,16,4,1,,,,,,,,,,,,,,,,,,,,,,,,,,,,,,,
65f4ab7884f8411c9e11a34e,SCR,2024-06-26_12h35.58.305,LearnStrategy,2023.2.3,Win32,59.52380952,,,,,,,,,,,2,10,4,2,,,,,,,,,,,,,,,,,,,,,,,,,,,,,,,
65f4ab7884f8411c9e11a34e,SCR,2024-06-26_12h35.58.305,LearnStrategy,2023.2.3,Win32,59.52380952,,,,,,,,,,,5,16,4,3,,,,,,,,,,,,,,,,,,,,,,,,,,,,,,,
65f4ab7884f8411c9e11a34e,SCR,2024-06-26_12h35.58.305,LearnStrategy,2023.2.3,Win32,59.52380952,,,,,,,,,,,8,10,4,4,,,,,,,,,,,,,,,,,,,,,,,,,,,,,,,
65f4ab7884f8411c9e11a34e,SCR,2024-06-26_12h35.58.305,LearnStrategy,2023.2.3,Win32,59.52380952,,,,,,,,,,,2,05,4,5,,,,,,,,,,,,,,,,,,,,,,,,,,,,,,,
65f4ab7884f8411c9e11a34e,SCR,2024-06-26_12h35.58.305,LearnStrategy,2023.2.3,Win32,59.52380952,,,,,,,,,,,7,15,4,6,,,,,,,,,,,,,,,,,,,,,,,,,,,,,,,
65f4ab7884f8411c9e11a34e,SCR,2024-06-26_12h35.58.305,LearnStrategy,2023.2.3,Win32,59.52380952,,,,,,,,,,,3,16,4,7,,,,,,,,,,,,,,,,,,,,,,,,,,,,,,,
65f4ab7884f8411c9e11a34e,SCR,2024-06-26_12h35.58.305,LearnStrategy,2023.2.3,Win32,59.52380952,,,,,,,,,,,8,08,4,8,,,,,,,,,,,,,,,,,,,,,,,,,,,,,,,
65f4ab7884f8411c9e11a34e,SCR,2024-06-26_12h35.58.305,LearnStrategy,2023.2.3,Win32,59.52380952,,,,,,,,,,,7,05,5,1,,,,,,,,,,,,,,,,,,,,,,,,,,,,,,,
65f4ab7884f8411c9e11a34e,SCR,2024-06-26_12h35.58.305,LearnStrategy,2023.2.3,Win32,59.52380952,,,,,,,,,,,1,14,5,2,,,,,,,,,,,,,,,,,,,,,,,,,,,,,,,
65f4ab7884f8411c9e11a34e,SCR,2024-06-26_12h35.58.305,LearnStrategy,2023.2.3,Win32,59.52380952,,,,,,,,,,,8,06,5,3,,,,,,,,,,,,,,,,,,,,,,,,,,,,,,,
65f4ab7884f8411c9e11a34e,SCR,2024-06-26_12h35.58.305,LearnStrategy,2023.2.3,Win32,59.52380952,,,,,,,,,,,5,11,5,4,,,,,,,,,,,,,,,,,,,,,,,,,,,,,,,
65f4ab7884f8411c9e11a34e,SCR,2024-06-26_12h35.58.305,LearnStrategy,2023.2.3,Win32,59.52380952,,,,,,,,,,,8,16,5,5,,,,,,,,,,,,,,,,,,,,,,,,,,,,,,,
65f4ab7884f8411c9e11a34e,SCR,2024-06-26_12h35.58.305,LearnStrategy,2023.2.3,Win32,59.52380952,,,,,,,,,,,1,06,5,6,,,,,,,,,,,,,,,,,,,,,,,,,,,,,,,
65f4ab7884f8411c9e11a34e,SCR,2024-06-26_12h35.58.305,LearnStrategy,2023.2.3,Win32,59.52380952,,,,,,,,,,,2,02,5,7,,,,,,,,,,,,,,,,,,,,,,,,,,,,,,,
65f4ab7884f8411c9e11a34e,SCR,2024-06-26_12h35.58.305,LearnStrategy,2023.2.3,Win32,59.52380952,,,,,,,,,,,6,03,5,8,,,,,,,,,,,,,,,,,,,,,,,,,,,,,,,
65f4ab7884f8411c9e11a34e,SCR,2024-06-26_12h35.58.305,LearnStrategy,2023.2.3,Win32,59.52380952,,,,,,,,,,,6,13,6,1,,,,,,,,,,,,,,,,,,,,,,,,,,,,,,,
65f4ab7884f8411c9e11a34e,SCR,2024-06-26_12h35.58.305,LearnStrategy,2023.2.3,Win32,59.52380952,,,,,,,,,,,7,14,6,2,,,,,,,,,,,,,,,,,,,,,,,,,,,,,,,
65f4ab7884f8411c9e11a34e,SCR,2024-06-26_12h35.58.305,LearnStrategy,2023.2.3,Win32,59.52380952,,,,,,,,,,,6,07,6,3,,,,,,,,,,,,,,,,,,,,,,,,,,,,,,,
65f4ab7884f8411c9e11a34e,SCR,2024-06-26_12h35.58.305,LearnStrategy,2023.2.3,Win32,59.52380952,,,,,,,,,,,6,12,6,4,,,,,,,,,,,,,,,,,,,,,,,,,,,,,,,
65f4ab7884f8411c9e11a34e,SCR,2024-06-26_12h35.58.305,LearnStrategy,2023.2.3,Win32,59.52380952,,,,,,,,,,,5,09,6,5,,,,,,,,,,,,,,,,,,,,,,,,,,,,,,,
65f4ab7884f8411c9e11a34e,SCR,2024-06-26_12h35.58.305,LearnStrategy,2023.2.3,Win32,59.52380952,,,,,,,,,,,3,06,6,6,,,,,,,,,,,,,,,,,,,,,,,,,,,,,,,
65f4ab7884f8411c9e11a34e,SCR,2024-06-26_12h35.58.305,LearnStrategy,2023.2.3,Win32,59.52380952,,,,,,,,,,,4,14,6,7,,,,,,,,,,,,,,,,,,,,,,,,,,,,,,,
65f4ab7884f8411c9e11a34e,SCR,2024-06-26_12h35.58.305,LearnStrategy,2023.2.3,Win32,59.52380952,,,,,,,,,,,2,12,6,8,,,,,,,,,,,,,,,,,,,,,,,,,,,,,,,