participant,condition,date,expName,psychopyVersion,OS,frameRate,block,phase,trial,learn_mouse_2.x,learn_mouse_2.y,learn_mouse_2.leftButton,learn_mouse_2.midButton,learn_mouse_2.rightButton,learn_mouse_2.time,learn_mouse_2.clicked_name,cat,token,row,col,t_select,cat_mouse_l.x,cat_mouse_l.y,cat_mouse_l.leftButton,cat_mouse_l.midButton,cat_mouse_l.rightButton,cat_mouse_l.time,cat_mouse_l.clicked_name,resp,t_resp,corr,train_trials.thisRepN,train_trials.thisTrialN,train_trials.thisN,train_trials.thisIndex,train_trials.ran,cat_mouse_t.x,cat_mouse_t.y,cat_mouse_t.leftButton,cat_mouse_t.midButton,cat_mouse_t.rightButton,cat_mouse_t.time,cat_mouse_t.clicked_name,test_trials.thisRepN,test_trials.thisTrialN,test_trials.thisN,test_trials.thisIndex,test_trials.ran,Bonus
65fb5f438050e2495c957083,TCN,2024-06-11_18h55.16.728,LearnStrategy,2023.2.3,Win32,60.24096386,,,,,,,,,,,,,,,,,,,,,,,,,,,,,,,,,,,,,,,,,,,
65fb5f438050e2495c957083,TCN,2024-06-11_18h55.16.728,LearnStrategy,2023.2.3,Win32,60.24096386,1,1,1,-0.025,0.009259245,1,0,0,2.2172,rock_grid_rect_2,1,16,-1,-1,2.217,-0.128703647,-0.255555556,1,0,0,3.3698,Basalt_rect,2,3.37,0,0,0,0,0,1,,,,,,,,,,,,,
65fb5f438050e2495c957083,TCN,2024-06-11_18h55.16.728,LearnStrategy,2023.2.3,Win32,60.24096386,1,1,2,-0.079629601,-0.013888889,1,0,0,1.9287,rock_grid_rect_2,8,10,-1,-1,1.929,-0.155555556,-0.228703732,1,0,0,1.3733,Basalt_rect,2,1.373,0,1,0,1,0,1,,,,,,,,,,,,,
65fb5f438050e2495c957083,TCN,2024-06-11_18h55.16.728,LearnStrategy,2023.2.3,Win32,60.24096386,1,1,3,-0.098148092,0.014814801,1,0,0,1.9133,rock_grid_rect_2,7,08,-1,-1,1.913,-0.197222222,-0.236111111,1,0,0,2.6021,Basalt_rect,2,2.602,0,2,0,2,0,1,,,,,,,,,,,,,
65fb5f438050e2495c957083,TCN,2024-06-11_18h55.16.728,LearnStrategy,2023.2.3,Win32,60.24096386,1,1,4,-0.127777778,-0.000925954,1,0,0,1.3141,rock_grid_rect_2,8,15,-1,-1,1.314,-0.414814801,-0.380555556,1,0,0,2.172,Obsidian_rect,5,2.172,0,3,0,3,0,1,,,,,,,,,,,,,
65fb5f438050e2495c957083,TCN,2024-06-11_18h55.16.728,LearnStrategy,2023.2.3,Win32,60.24096386,1,1,5,-0.046296268,0.007407379,1,0,0,1.3962,rock_grid_rect_2,5,08,-1,-1,1.396,0.133333333,-0.252777778,1,0,0,1.5991,Diorite_rect,3,1.599,0,4,0,4,0,1,,,,,,,,,,,,,
65fb5f438050e2495c957083,TCN,2024-06-11_18h55.16.728,LearnStrategy,2023.2.3,Win32,60.24096386,1,1,6,-0.084259203,0.016666667,1,0,0,1.543,rock_grid_rect_2,4,12,-1,-1,1.543,-0.138888889,-0.236111111,1,0,0,3.018,Basalt_rect,2,3.018,0,5,0,5,0,1,,,,,,,,,,,,,
65fb5f438050e2495c957083,TCN,2024-06-11_18h55.16.728,LearnStrategy,2023.2.3,Win32,60.24096386,1,1,7,-0.087036981,0.000925912,1,0,0,1.3381,rock_grid_rect_2,5,09,-1,-1,1.338,-0.373148134,-0.414814843,1,0,0,3.2624,Obsidian_rect,5,3.262,1,6,0,6,0,1,,,,,,,,,,,,,
65fb5f438050e2495c957083,TCN,2024-06-11_18h55.16.728,LearnStrategy,2023.2.3,Win32,60.24096386,1,1,8,-0.107407379,0.023148134,1,0,0,1.2945,rock_grid_rect_2,1,06,-1,-1,1.294,-0.162962935,-0.385185242,1,0,0,2.9274,Pegmatite_rect,6,2.927,0,7,0,7,0,1,,,,,,,,,,,,,
65fb5f438050e2495c957083,TCN,2024-06-11_18h55.16.728,LearnStrategy,2023.2.3,Win32,60.24096386,1,1,9,-0.148148092,0.019444444,1,0,0,1.6919,rock_grid_rect_2,3,06,-1,-1,1.692,-0.095370314,-0.25,1,0,0,2.9566,Basalt_rect,2,2.957,0,8,0,8,0,1,,,,,,,,,,,,,
65fb5f438050e2495c957083,TCN,2024-06-11_18h55.16.728,LearnStrategy,2023.2.3,Win32,60.24096386,1,1,10,-0.122222222,-0.016666667,1,0,0,1.9286,rock_grid_rect_2,2,09,-1,-1,1.929,0.376851908,-0.262963019,1,0,0,4.1869,Gabbro_rect,4,4.187,0,9,0,9,0,1,,,,,,,,,,,,,
65fb5f438050e2495c957083,TCN,2024-06-11_18h55.16.728,LearnStrategy,2023.2.3,Win32,60.24096386,1,1,11,-0.079629601,-0.005555556,1,0,0,1.3632,rock_grid_rect_2,6,07,-1,-1,1.363,-0.34351849,-0.388888889,1,0,0,1.7424,Obsidian_rect,5,1.742,0,10,0,10,0,1,,,,,,,,,,,,,
65fb5f438050e2495c957083,TCN,2024-06-11_18h55.16.728,LearnStrategy,2023.2.3,Win32,60.24096386,1,1,12,-0.139814758,0.007407379,1,0,0,1.6626,rock_grid_rect_2,6,05,-1,-1,1.663,-0.345370356,-0.393518575,1,0,0,2.9569,Obsidian_rect,5,2.957,0,11,0,11,0,1,,,,,,,,,,,,,
65fb5f438050e2495c957083,TCN,2024-06-11_18h55.16.728,LearnStrategy,2023.2.3,Win32,60.24096386,1,1,13,-0.162962935,-0.003703732,1,0,0,1.2935,rock_grid_rect_2,2,04,-1,-1,1.294,-0.130555556,-0.229629686,1,0,0,1.8914,Basalt_rect,2,1.891,1,12,0,12,0,1,,,,,,,,,,,,,
65fb5f438050e2495c957083,TCN,2024-06-11_18h55.16.728,LearnStrategy,2023.2.3,Win32,60.24096386,1,1,14,-0.100925869,-0.009259288,1,0,0,1.3291,rock_grid_rect_2,3,14,-1,-1,1.329,0.125,-0.236111111,1,0,0,2.6811,Diorite_rect,3,2.681,1,13,0,13,0,1,,,,,,,,,,,,,
65fb5f438050e2495c957083,TCN,2024-06-11_18h55.16.728,LearnStrategy,2023.2.3,Win32,60.24096386,1,1,15,-0.077777778,0,1,0,0,1.2857,rock_grid_rect_2,7,07,-1,-1,1.286,-0.100925869,-0.392592621,1,0,0,1.7478,Pegmatite_rect,6,1.748,0,14,0,14,0,1,,,,,,,,,,,,,
65fb5f438050e2495c957083,TCN,2024-06-11_18h55.16.728,LearnStrategy,2023.2.3,Win32,60.24096386,1,1,16,-0.161111111,0,1,0,0,1.3288,rock_grid_rect_2,4,16,-1,-1,1.329,-0.369444444,-0.387963019,1,0,0,4.6347,Obsidian_rect,5,4.635,0,15,0,15,0,1,,,,,,,,,,,,,
65fb5f438050e2495c957083,TCN,2024-06-11_18h55.16.728,LearnStrategy,2023.2.3,Win32,60.24096386,1,2,1,,,,,,,,1,03,,,,,,,,,,,2,2.157,0,,,,,,-0.205555556,-0.229629686,1,0,0,2.1575,Basalt_rect,0,0,0,0,1,
65fb5f438050e2495c957083,TCN,2024-06-11_18h55.16.728,LearnStrategy,2023.2.3,Win32,60.24096386,1,2,2,,,,,,,,3,10,,,,,,,,,,,2,1.192,0,,,,,,-0.098148092,-0.260185242,1,0,0,1.1917,Basalt_rect,1,0,1,0,1,
65fb5f438050e2495c957083,TCN,2024-06-11_18h55.16.728,LearnStrategy,2023.2.3,Win32,60.24096386,1,2,3,,,,,,,,2,12,,,,,,,,,,,3,1.032,0,,,,,,0.077777778,-0.249074131,1,0,0,1.0319,Diorite_rect,2,0,2,0,1,
65fb5f438050e2495c957083,TCN,2024-06-11_18h55.16.728,LearnStrategy,2023.2.3,Win32,60.24096386,1,2,4,,,,,,,,3,13,,,,,,,,,,,1,2.913,0,,,,,,-0.35370369,-0.25,1,0,0,2.9134,Andesite_rect,3,0,3,0,1,
65fb5f438050e2495c957083,TCN,2024-06-11_18h55.16.728,LearnStrategy,2023.2.3,Win32,60.24096386,1,2,5,,,,,,,,7,04,,,,,,,,,,,6,2.585,0,,,,,,-0.182407379,-0.378703732,1,0,0,2.5846,Pegmatite_rect,4,0,4,0,1,
65fb5f438050e2495c957083,TCN,2024-06-11_18h55.16.728,LearnStrategy,2023.2.3,Win32,60.24096386,1,2,6,,,,,,,,5,04,,,,,,,,,,,5,1.814,1,,,,,,-0.351851824,-0.402777778,1,0,0,1.8143,Obsidian_rect,5,0,5,0,1,
65fb5f438050e2495c957083,TCN,2024-06-11_18h55.16.728,LearnStrategy,2023.2.3,Win32,60.24096386,1,2,7,,,,,,,,4,03,,,,,,,,,,,7,2.486,0,,,,,,0.092592621,-0.393518575,1,0,0,2.4861,Peridotite_rect,6,0,6,0,1,
65fb5f438050e2495c957083,TCN,2024-06-11_18h55.16.728,LearnStrategy,2023.2.3,Win32,60.24096386,1,2,8,,,,,,,,2,06,,,,,,,,,,,2,1.899,1,,,,,,-0.122222222,-0.251851908,1,0,0,1.8992,Basalt_rect,7,0,7,0,1,
65fb5f438050e2495c957083,TCN,2024-06-11_18h55.16.728,LearnStrategy,2023.2.3,Win32,60.24096386,1,2,9,,,,,,,,5,06,,,,,,,,,,,5,3.853,1,,,,,,-0.371296268,-0.392592621,1,0,0,3.853,Obsidian_rect,8,0,8,0,1,
65fb5f438050e2495c957083,TCN,2024-06-11_18h55.16.728,LearnStrategy,2023.2.3,Win32,60.24096386,1,2,10,,,,,,,,8,16,,,,,,,,,,,1,1.585,0,,,,,,-0.372222222,-0.268518575,1,0,0,1.5851,Andesite_rect,9,0,9,0,1,
65fb5f438050e2495c957083,TCN,2024-06-11_18h55.16.728,LearnStrategy,2023.2.3,Win32,60.24096386,1,2,11,,,,,,,,4,08,,,,,,,,,,,6,3.613,0,,,,,,-0.138888889,-0.387037065,1,0,0,3.6128,Pegmatite_rect,10,0,10,0,1,
65fb5f438050e2495c957083,TCN,2024-06-11_18h55.16.728,LearnStrategy,2023.2.3,Win32,60.24096386,1,2,12,,,,,,,,6,08,,,,,,,,,,,7,3.266,0,,,,,,0.071296353,-0.395370399,1,0,0,3.2658,Peridotite_rect,11,0,11,0,1,
65fb5f438050e2495c957083,TCN,2024-06-11_18h55.16.728,LearnStrategy,2023.2.3,Win32,60.24096386,1,2,13,,,,,,,,6,13,,,,,,,,,,,3,2.453,0,,,,,,0.112963019,-0.265740797,1,0,0,2.4526,Diorite_rect,12,0,12,0,1,
65fb5f438050e2495c957083,TCN,2024-06-11_18h55.16.728,LearnStrategy,2023.2.3,Win32,60.24096386,1,2,14,,,,,,,,8,05,,,,,,,,,,,8,2.389,1,,,,,,0.426851908,-0.385185242,1,0,0,2.3886,Pumice_rect,13,0,13,0,1,
65fb5f438050e2495c957083,TCN,2024-06-11_18h55.16.728,LearnStrategy,2023.2.3,Win32,60.24096386,1,2,15,,,,,,,,1,05,,,,,,,,,,,2,2.815,0,,,,,,-0.129629601,-0.262037065,1,0,0,2.8155,Basalt_rect,14,0,14,0,1,
65fb5f438050e2495c957083,TCN,2024-06-11_18h55.16.728,LearnStrategy,2023.2.3,Win32,60.24096386,1,2,16,,,,,,,,7,06,,,,,,,,,,,7,4.245,1,,,,,,0.118518575,-0.411111111,1,0,0,4.2448,Peridotite_rect,15,0,15,0,1,
65fb5f438050e2495c957083,TCN,2024-06-11_18h55.16.728,LearnStrategy,2023.2.3,Win32,60.24096386,2,1,1,-0.087962935,0.002777778,1,0,0,1.8148,rock_grid_rect_2,2,02,-1,-1,1.815,-0.148148092,-0.242592621,1,0,0,1.3988,Basalt_rect,2,1.399,1,0,0,0,0,1,,,,,,,,,,,,,
65fb5f438050e2495c957083,TCN,2024-06-11_18h55.16.728,LearnStrategy,2023.2.3,Win32,60.24096386,2,1,2,-0.088888889,-0.008333333,1,0,0,1.5367,rock_grid_rect_2,7,10,-1,-1,1.537,0.175925954,-0.403703732,1,0,0,4.4753,Peridotite_rect,7,4.475,1,1,0,1,0,1,,,,,,,,,,,,,
65fb5f438050e2495c957083,TCN,2024-06-11_18h55.16.728,LearnStrategy,2023.2.3,Win32,60.24096386,2,1,3,-0.078703647,0.005555556,1,0,0,1.313,rock_grid_rect_2,6,16,-1,-1,1.313,-0.188888889,-0.398148176,1,0,0,2.2877,Pegmatite_rect,6,2.288,1,2,0,2,0,1,,,,,,,,,,,,,
65fb5f438050e2495c957083,TCN,2024-06-11_18h55.16.728,LearnStrategy,2023.2.3,Win32,60.24096386,2,1,4,-0.071296268,0.00370369,1,0,0,1.5819,rock_grid_rect_2,3,11,-1,-1,1.582,0.138888889,-0.251851908,1,0,0,1.883,Diorite_rect,3,1.883,1,3,0,3,0,1,,,,,,,,,,,,,
65fb5f438050e2495c957083,TCN,2024-06-11_18h55.16.728,LearnStrategy,2023.2.3,Win32,60.24096386,2,1,5,-0.015740712,0.01851849,1,0,0,1.3598,rock_grid_rect_2,5,07,-1,-1,1.36,-0.410185157,-0.392592621,1,0,0,1.3255,Obsidian_rect,5,1.325,1,4,0,4,0,1,,,,,,,,,,,,,
65fb5f438050e2495c957083,TCN,2024-06-11_18h55.16.728,LearnStrategy,2023.2.3,Win32,60.24096386,2,1,6,-0.172222222,0.010185157,1,0,0,1.298,rock_grid_rect_2,2,01,-1,-1,1.298,-0.132407379,-0.241666667,1,0,0,2.5136,Basalt_rect,2,2.514,1,5,0,5,0,1,,,,,,,,,,,,,
65fb5f438050e2495c957083,TCN,2024-06-11_18h55.16.728,LearnStrategy,2023.2.3,Win32,60.24096386,2,1,7,-0.134259203,-0.002777778,1,0,0,1.3633,rock_grid_rect_2,3,16,-1,-1,1.363,0.400925954,-0.383333333,1,0,0,1.6125,Pumice_rect,8,1.613,0,6,0,6,0,1,,,,,,,,,,,,,
65fb5f438050e2495c957083,TCN,2024-06-11_18h55.16.728,LearnStrategy,2023.2.3,Win32,60.24096386,2,1,8,-0.095370314,0.013888889,1,0,0,1.3127,rock_grid_rect_2,4,15,-1,-1,1.313,-0.467592578,-0.241666667,1,0,0,1.7077,Andesite_rect,1,1.708,0,7,0,7,0,1,,,,,,,,,,,,,
65fb5f438050e2495c957083,TCN,2024-06-11_18h55.16.728,LearnStrategy,2023.2.3,Win32,60.24096386,2,1,9,-0.120370314,-0.012037065,1,0,0,1.2648,rock_grid_rect_2,8,02,-1,-1,1.265,-0.382407379,-0.23148151,1,0,0,1.2166,Andesite_rect,1,1.217,0,8,0,8,0,1,,,,,,,,,,,,,
65fb5f438050e2495c957083,TCN,2024-06-11_18h55.16.728,LearnStrategy,2023.2.3,Win32,60.24096386,2,1,10,-0.088888889,-0.008333333,1,0,0,1.1286,rock_grid_rect_2,1,01,-1,-1,1.129,-0.366666667,-0.254629686,1,0,0,2.0756,Andesite_rect,1,2.076,1,9,0,9,0,1,,,,,,,,,,,,,
65fb5f438050e2495c957083,TCN,2024-06-11_18h55.16.728,LearnStrategy,2023.2.3,Win32,60.24096386,2,1,11,-0.127777778,0.012962935,1,0,0,1.6458,rock_grid_rect_2,8,04,-1,-1,1.646,0.372222222,-0.255555556,1,0,0,2.0296,Gabbro_rect,4,2.03,0,10,0,10,0,1,,,,,,,,,,,,,
65fb5f438050e2495c957083,TCN,2024-06-11_18h55.16.728,LearnStrategy,2023.2.3,Win32,60.24096386,2,1,12,-0.094444444,-0.017592621,1,0,0,1.1507,rock_grid_rect_2,5,12,-1,-1,1.151,-0.39351849,-0.391666667,1,0,0,1.7628,Obsidian_rect,5,1.763,1,11,0,11,0,1,,,,,,,,,,,,,
65fb5f438050e2495c957083,TCN,2024-06-11_18h55.16.728,LearnStrategy,2023.2.3,Win32,60.24096386,2,1,13,-0.113888889,-0.00648151,1,0,0,2.0624,rock_grid_rect_2,4,13,-1,-1,2.062,-0.139814758,-0.243518575,1,0,0,2.436,Basalt_rect,2,2.436,0,12,0,12,0,1,,,,,,,,,,,,,
65fb5f438050e2495c957083,TCN,2024-06-11_18h55.16.728,LearnStrategy,2023.2.3,Win32,60.24096386,2,1,14,-0.023148092,0.019444444,1,0,0,1.1607,rock_grid_rect_2,6,03,-1,-1,1.161,-0.384259245,-0.388888889,1,0,0,1.4754,Obsidian_rect,5,1.475,0,13,0,13,0,1,,,,,,,,,,,,,
65fb5f438050e2495c957083,TCN,2024-06-11_18h55.16.728,LearnStrategy,2023.2.3,Win32,60.24096386,2,1,15,-0.104629601,0.004629601,1,0,0,1.1811,rock_grid_rect_2,1,14,-1,-1,1.181,-0.125925869,-0.236111111,1,0,0,2.4406,Basalt_rect,2,2.441,0,14,0,14,0,1,,,,,,,,,,,,,
65fb5f438050e2495c957083,TCN,2024-06-11_18h55.16.728,LearnStrategy,2023.2.3,Win32,60.24096386,2,1,16,-0.023148092,-0.014814843,1,0,0,1.3475,rock_grid_rect_2,7,12,-1,-1,1.347,0.108333333,-0.263888889,1,0,0,3.3207,Diorite_rect,3,3.321,0,15,0,15,0,1,,,,,,,,,,,,,
65fb5f438050e2495c957083,TCN,2024-06-11_18h55.16.728,LearnStrategy,2023.2.3,Win32,60.24096386,2,2,1,,,,,,,,1,11,,,,,,,,,,,2,2.474,0,,,,,,-0.120370314,-0.247222222,1,0,0,2.4743,Basalt_rect,0,0,0,0,1,
65fb5f438050e2495c957083,TCN,2024-06-11_18h55.16.728,LearnStrategy,2023.2.3,Win32,60.24096386,2,2,2,,,,,,,,7,13,,,,,,,,,,,5,2.262,0,,,,,,-0.423148134,-0.414814843,1,0,0,2.2622,Obsidian_rect,1,0,1,0,1,
65fb5f438050e2495c957083,TCN,2024-06-11_18h55.16.728,LearnStrategy,2023.2.3,Win32,60.24096386,2,2,3,,,,,,,,4,14,,,,,,,,,,,4,3.155,1,,,,,,0.359259288,-0.237037065,1,0,0,3.1548,Gabbro_rect,2,0,2,0,1,
65fb5f438050e2495c957083,TCN,2024-06-11_18h55.16.728,LearnStrategy,2023.2.3,Win32,60.24096386,2,2,4,,,,,,,,8,08,,,,,,,,,,,8,2.029,1,,,,,,0.318518575,-0.407407464,1,0,0,2.0289,Pumice_rect,3,0,3,0,1,
65fb5f438050e2495c957083,TCN,2024-06-11_18h55.16.728,LearnStrategy,2023.2.3,Win32,60.24096386,2,2,5,,,,,,,,6,11,,,,,,,,,,,5,1.374,0,,,,,,-0.36851849,-0.401851908,1,0,0,1.3745,Obsidian_rect,4,0,4,0,1,
65fb5f438050e2495c957083,TCN,2024-06-11_18h55.16.728,LearnStrategy,2023.2.3,Win32,60.24096386,2,2,6,,,,,,,,2,11,,,,,,,,,,,7,3.339,0,,,,,,0.100925954,-0.416666667,1,0,0,3.3387,Peridotite_rect,5,0,5,0,1,
65fb5f438050e2495c957083,TCN,2024-06-11_18h55.16.728,LearnStrategy,2023.2.3,Win32,60.24096386,2,2,7,,,,,,,,7,16,,,,,,,,,,,6,2.805,0,,,,,,-0.129629601,-0.397222222,1,0,0,2.8049,Pegmatite_rect,6,0,6,0,1,
65fb5f438050e2495c957083,TCN,2024-06-11_18h55.16.728,LearnStrategy,2023.2.3,Win32,60.24096386,2,2,8,,,,,,,,3,15,,,,,,,,,,,1,2.275,0,,,,,,-0.367592578,-0.242592621,1,0,0,2.275,Andesite_rect,7,0,7,0,1,
65fb5f438050e2495c957083,TCN,2024-06-11_18h55.16.728,LearnStrategy,2023.2.3,Win32,60.24096386,2,2,9,,,,,,,,1,10,,,,,,,,,,,1,2.282,1,,,,,,-0.352777778,-0.243518575,1,0,0,2.2817,Andesite_rect,8,0,8,0,1,
65fb5f438050e2495c957083,TCN,2024-06-11_18h55.16.728,LearnStrategy,2023.2.3,Win32,60.24096386,2,2,10,,,,,,,,8,13,,,,,,,,,,,8,2.44,1,,,,,,0.369444444,-0.395370399,1,0,0,2.4403,Pumice_rect,9,0,9,0,1,
65fb5f438050e2495c957083,TCN,2024-06-11_18h55.16.728,LearnStrategy,2023.2.3,Win32,60.24096386,2,2,11,,,,,,,,5,05,,,,,,,,,,,5,2.124,1,,,,,,-0.36851849,-0.4,1,0,0,2.1245,Obsidian_rect,10,0,10,0,1,
65fb5f438050e2495c957083,TCN,2024-06-11_18h55.16.728,LearnStrategy,2023.2.3,Win32,60.24096386,2,2,12,,,,,,,,4,05,,,,,,,,,,,4,2.43,1,,,,,,0.392592621,-0.266666667,1,0,0,2.4295,Gabbro_rect,11,0,11,0,1,
65fb5f438050e2495c957083,TCN,2024-06-11_18h55.16.728,LearnStrategy,2023.2.3,Win32,60.24096386,2,2,13,,,,,,,,2,14,,,,,,,,,,,5,2.9,0,,,,,,-0.337037023,-0.38148151,1,0,0,2.9001,Obsidian_rect,12,0,12,0,1,
65fb5f438050e2495c957083,TCN,2024-06-11_18h55.16.728,LearnStrategy,2023.2.3,Win32,60.24096386,2,2,14,,,,,,,,5,02,,,,,,,,,,,5,3.046,1,,,,,,-0.357407379,-0.416666667,1,0,0,3.0465,Obsidian_rect,13,0,13,0,1,
65fb5f438050e2495c957083,TCN,2024-06-11_18h55.16.728,LearnStrategy,2023.2.3,Win32,60.24096386,2,2,15,,,,,,,,3,07,,,,,,,,,,,7,3.267,0,,,,,,0.149074131,-0.399074131,1,0,0,3.267,Peridotite_rect,14,0,14,0,1,
65fb5f438050e2495c957083,TCN,2024-06-11_18h55.16.728,LearnStrategy,2023.2.3,Win32,60.24096386,2,2,16,,,,,,,,6,06,,,,,,,,,,,6,4.53,1,,,,,,-0.146296268,-0.391666667,1,0,0,4.5296,Pegmatite_rect,15,0,15,0,1,
65fb5f438050e2495c957083,TCN,2024-06-11_18h55.16.728,LearnStrategy,2023.2.3,Win32,60.24096386,3,1,1,-0.086111111,0.012962935,1,0,0,1.7803,rock_grid_rect_2,7,05,-1,-1,1.78,-0.195370356,-0.230555556,1,0,0,1.681,Basalt_rect,2,1.681,0,0,0,0,0,1,,,,,,,,,,,,,
65fb5f438050e2495c957083,TCN,2024-06-11_18h55.16.728,LearnStrategy,2023.2.3,Win32,60.24096386,3,1,2,-0.092592536,-0.010185199,1,0,0,0.9954,rock_grid_rect_2,5,11,-1,-1,0.995,-0.365740712,-0.420370399,1,0,0,1.9837,Obsidian_rect,5,1.984,1,1,0,1,0,1,,,,,,,,,,,,,
65fb5f438050e2495c957083,TCN,2024-06-11_18h55.16.728,LearnStrategy,2023.2.3,Win32,60.24096386,3,1,3,-0.125,-0.005555556,1,0,0,1.302,rock_grid_rect_2,2,16,-1,-1,1.302,-0.085185157,-0.237963019,1,0,0,1.8516,Basalt_rect,2,1.852,1,2,0,2,0,1,,,,,,,,,,,,,
65fb5f438050e2495c957083,TCN,2024-06-11_18h55.16.728,LearnStrategy,2023.2.3,Win32,60.24096386,3,1,4,-0.110185157,-0.016666667,1,0,0,1.7465,rock_grid_rect_2,7,14,-1,-1,1.746,-0.374074046,-0.246296353,1,0,0,1.6232,Andesite_rect,1,1.623,0,3,0,3,0,1,,,,,,,,,,,,,
65fb5f438050e2495c957083,TCN,2024-06-11_18h55.16.728,LearnStrategy,2023.2.3,Win32,60.24096386,3,1,5,-0.04351849,-0.025,1,0,0,1.4631,rock_grid_rect_2,5,14,-1,-1,1.463,-0.356481467,-0.405555556,1,0,0,2.3655,Obsidian_rect,5,2.365,1,4,0,4,0,1,,,,,,,,,,,,,
65fb5f438050e2495c957083,TCN,2024-06-11_18h55.16.728,LearnStrategy,2023.2.3,Win32,60.24096386,3,1,6,-0.090740712,-0.007407422,1,0,0,1.2624,rock_grid_rect_2,6,15,-1,-1,1.262,0.183333333,-0.264814843,1,0,0,3.7165,Diorite_rect,3,3.716,0,5,0,5,0,1,,,,,,,,,,,,,
65fb5f438050e2495c957083,TCN,2024-06-11_18h55.16.728,LearnStrategy,2023.2.3,Win32,60.24096386,3,1,7,-0.046296268,0.004629601,1,0,0,1.4131,rock_grid_rect_2,1,04,-1,-1,1.413,-0.337962935,-0.233333333,1,0,0,1.5725,Andesite_rect,1,1.572,1,6,0,6,0,1,,,,,,,,,,,,,
65fb5f438050e2495c957083,TCN,2024-06-11_18h55.16.728,LearnStrategy,2023.2.3,Win32,60.24096386,3,1,8,-0.116666667,-0.023148176,1,0,0,1.7289,rock_grid_rect_2,2,10,-1,-1,1.729,0.346296353,-0.23148151,1,0,0,1.3235,Gabbro_rect,4,1.323,0,7,0,7,0,1,,,,,,,,,,,,,
65fb5f438050e2495c957083,TCN,2024-06-11_18h55.16.728,LearnStrategy,2023.2.3,Win32,60.24096386,3,1,9,-0.037962935,0.012962935,1,0,0,1.364,rock_grid_rect_2,3,02,-1,-1,1.364,0.117592621,-0.268518575,1,0,0,3.9237,Diorite_rect,3,3.924,1,8,0,8,0,1,,,,,,,,,,,,,
65fb5f438050e2495c957083,TCN,2024-06-11_18h55.16.728,LearnStrategy,2023.2.3,Win32,60.24096386,3,1,10,-0.030555556,-0.013888889,1,0,0,2.297,rock_grid_rect_2,4,01,-1,-1,2.297,-0.389814801,-0.239814843,1,0,0,2.1714,Andesite_rect,1,2.171,0,9,0,9,0,1,,,,,,,,,,,,,
65fb5f438050e2495c957083,TCN,2024-06-11_18h55.16.728,LearnStrategy,2023.2.3,Win32,60.24096386,3,1,11,-0.086111111,-0.016666667,1,0,0,1.8133,rock_grid_rect_2,3,08,-1,-1,1.813,-0.384259245,-0.262963019,1,0,0,2.687,Andesite_rect,1,2.687,0,10,0,10,0,1,,,,,,,,,,,,,
65fb5f438050e2495c957083,TCN,2024-06-11_18h55.16.728,LearnStrategy,2023.2.3,Win32,60.24096386,3,1,12,-0.084259203,0.000925912,1,0,0,1.0962,rock_grid_rect_2,8,06,-1,-1,1.096,0.357407464,-0.397222222,1,0,0,3.3159,Pumice_rect,8,3.316,1,11,0,11,0,1,,,,,,,,,,,,,
65fb5f438050e2495c957083,TCN,2024-06-11_18h55.16.728,LearnStrategy,2023.2.3,Win32,60.24096386,3,1,13,-0.123148092,0.001851824,1,0,0,1.078,rock_grid_rect_2,6,09,-1,-1,1.078,-0.330555556,-0.379629686,1,0,0,1.5073,Obsidian_rect,5,1.507,0,12,0,12,0,1,,,,,,,,,,,,,
65fb5f438050e2495c957083,TCN,2024-06-11_18h55.16.728,LearnStrategy,2023.2.3,Win32,60.24096386,3,1,14,-0.029629601,0.006481467,1,0,0,1.3129,rock_grid_rect_2,1,07,-1,-1,1.313,0.087963019,-0.387963019,1,0,0,2.7839,Peridotite_rect,7,2.784,0,13,0,13,0,1,,,,,,,,,,,,,
65fb5f438050e2495c957083,TCN,2024-06-11_18h55.16.728,LearnStrategy,2023.2.3,Win32,60.24096386,3,1,15,-0.065740712,-0.009259288,1,0,0,1.5142,rock_grid_rect_2,8,09,-1,-1,1.514,0.344444444,-0.419444444,1,0,0,2.0878,Pumice_rect,8,2.088,1,14,0,14,0,1,,,,,,,,,,,,,
65fb5f438050e2495c957083,TCN,2024-06-11_18h55.16.728,LearnStrategy,2023.2.3,Win32,60.24096386,3,1,16,-0.142592536,-0.011111111,1,0,0,2.012,rock_grid_rect_2,4,11,-1,-1,2.012,-0.1,-0.240740797,1,0,0,2.9892,Basalt_rect,2,2.989,0,15,0,15,0,1,,,,,,,,,,,,,
65fb5f438050e2495c957083,TCN,2024-06-11_18h55.16.728,LearnStrategy,2023.2.3,Win32,60.24096386,3,2,1,,,,,,,,1,02,,,,,,,,,,,2,3.022,0,,,,,,-0.125925869,-0.268518575,1,0,0,3.0223,Basalt_rect,0,0,0,0,1,
65fb5f438050e2495c957083,TCN,2024-06-11_18h55.16.728,LearnStrategy,2023.2.3,Win32,60.24096386,3,2,2,,,,,,,,6,10,,,,,,,,,,,6,2.729,1,,,,,,-0.137962935,-0.399074131,1,0,0,2.7289,Pegmatite_rect,1,0,1,0,1,
65fb5f438050e2495c957083,TCN,2024-06-11_18h55.16.728,LearnStrategy,2023.2.3,Win32,60.24096386,3,2,3,,,,,,,,6,12,,,,,,,,,,,7,1.806,0,,,,,,0.107407464,-0.408333333,1,0,0,1.8062,Peridotite_rect,2,0,2,0,1,
65fb5f438050e2495c957083,TCN,2024-06-11_18h55.16.728,LearnStrategy,2023.2.3,Win32,60.24096386,3,2,4,,,,,,,,2,05,,,,,,,,,,,2,5.827,1,,,,,,-0.125,-0.267592621,1,0,0,5.8272,Basalt_rect,3,0,3,0,1,
65fb5f438050e2495c957083,TCN,2024-06-11_18h55.16.728,LearnStrategy,2023.2.3,Win32,60.24096386,3,2,5,,,,,,,,4,10,,,,,,,,,,,7,2.63,0,,,,,,0.061111111,-0.392592621,1,0,0,2.6295,Peridotite_rect,4,0,4,0,1,
65fb5f438050e2495c957083,TCN,2024-06-11_18h55.16.728,LearnStrategy,2023.2.3,Win32,60.24096386,3,2,6,,,,,,,,3,09,,,,,,,,,,,6,2.223,0,,,,,,-0.111111111,-0.404629686,1,0,0,2.2229,Pegmatite_rect,5,0,5,0,1,
65fb5f438050e2495c957083,TCN,2024-06-11_18h55.16.728,LearnStrategy,2023.2.3,Win32,60.24096386,3,2,7,,,,,,,,3,12,,,,,,,,,,,1,2.061,0,,,,,,-0.35,-0.266666667,1,0,0,2.0605,Andesite_rect,6,0,6,0,1,
65fb5f438050e2495c957083,TCN,2024-06-11_18h55.16.728,LearnStrategy,2023.2.3,Win32,60.24096386,3,2,8,,,,,,,,8,03,,,,,,,,,,,8,1.919,1,,,,,,0.359259288,-0.412037065,1,0,0,1.9193,Pumice_rect,7,0,7,0,1,
65fb5f438050e2495c957083,TCN,2024-06-11_18h55.16.728,LearnStrategy,2023.2.3,Win32,60.24096386,3,2,9,,,,,,,,7,02,,,,,,,,,,,3,2.633,0,,,,,,0.082407464,-0.257407464,1,0,0,2.6332,Diorite_rect,8,0,8,0,1,
65fb5f438050e2495c957083,TCN,2024-06-11_18h55.16.728,LearnStrategy,2023.2.3,Win32,60.24096386,3,2,10,,,,,,,,1,09,,,,,,,,,,,6,2.303,0,,,,,,-0.125925869,-0.404629686,1,0,0,2.3031,Pegmatite_rect,9,0,9,0,1,
65fb5f438050e2495c957083,TCN,2024-06-11_18h55.16.728,LearnStrategy,2023.2.3,Win32,60.24096386,3,2,11,,,,,,,,7,15,,,,,,,,,,,3,5.205,0,,,,,,0.162037065,-0.249074131,1,0,0,5.2047,Diorite_rect,10,0,10,0,1,
65fb5f438050e2495c957083,TCN,2024-06-11_18h55.16.728,LearnStrategy,2023.2.3,Win32,60.24096386,3,2,12,,,,,,,,4,09,,,,,,,,,,,5,1.589,0,,,,,,-0.351851824,-0.38148151,1,0,0,1.5891,Obsidian_rect,11,0,11,0,1,
65fb5f438050e2495c957083,TCN,2024-06-11_18h55.16.728,LearnStrategy,2023.2.3,Win32,60.24096386,3,2,13,,,,,,,,8,14,,,,,,,,,,,8,1.857,1,,,,,,0.375,-0.419444444,1,0,0,1.8573,Pumice_rect,12,0,12,0,1,
65fb5f438050e2495c957083,TCN,2024-06-11_18h55.16.728,LearnStrategy,2023.2.3,Win32,60.24096386,3,2,14,,,,,,,,5,16,,,,,,,,,,,5,1.374,1,,,,,,-0.406481467,-0.38148151,1,0,0,1.3737,Obsidian_rect,13,0,13,0,1,
65fb5f438050e2495c957083,TCN,2024-06-11_18h55.16.728,LearnStrategy,2023.2.3,Win32,60.24096386,3,2,15,,,,,,,,5,10,,,,,,,,,,,5,0.839,1,,,,,,-0.406481467,-0.38148151,1,0,0,0.8387,Obsidian_rect,14,0,14,0,1,
65fb5f438050e2495c957083,TCN,2024-06-11_18h55.16.728,LearnStrategy,2023.2.3,Win32,60.24096386,3,2,16,,,,,,,,2,08,,,,,,,,,,,2,2.299,1,,,,,,-0.130555556,-0.268518575,1,0,0,2.2992,Basalt_rect,15,0,15,0,1,
65fb5f438050e2495c957083,TCN,2024-06-11_18h55.16.728,LearnStrategy,2023.2.3,Win32,60.24096386,4,1,1,-0.053703647,-0.010185199,1,0,0,2.1786,rock_grid_rect_2,8,02,-1,-1,2.179,0.348148176,-0.407407464,1,0,0,2.0901,Pumice_rect,8,2.09,1,0,0,0,0,1,,,,,,,,,,,,,
65fb5f438050e2495c957083,TCN,2024-06-11_18h55.16.728,LearnStrategy,2023.2.3,Win32,60.24096386,4,1,2,-0.142592536,-0.011111111,1,0,0,1.8647,rock_grid_rect_2,5,14,-1,-1,1.865,-0.351851824,-0.400925954,1,0,0,2.6957,Obsidian_rect,5,2.696,1,1,0,1,0,1,,,,,,,,,,,,,
65fb5f438050e2495c957083,TCN,2024-06-11_18h55.16.728,LearnStrategy,2023.2.3,Win32,60.24096386,4,1,3,-0.096296268,0,1,0,0,1.5569,rock_grid_rect_2,3,06,-1,-1,1.557,-0.386111111,-0.253703732,1,0,0,3.0654,Andesite_rect,1,3.065,0,2,0,2,0,1,,,,,,,,,,,,,
65fb5f438050e2495c957083,TCN,2024-06-11_18h55.16.728,LearnStrategy,2023.2.3,Win32,60.24096386,4,1,4,-0.062962935,-0.005555556,1,0,0,3.2627,rock_grid_rect_2,5,08,-1,-1,3.263,-0.365740712,-0.379629686,1,0,0,3.1489,Obsidian_rect,5,3.149,1,3,0,3,0,1,,,,,,,,,,,,,
65fb5f438050e2495c957083,TCN,2024-06-11_18h55.16.728,LearnStrategy,2023.2.3,Win32,60.24096386,4,1,5,-0.140740712,-0.014814843,1,0,0,1.4805,rock_grid_rect_2,3,02,-1,-1,1.481,0.099074131,-0.258333333,1,0,0,4.9646,Diorite_rect,3,4.965,1,4,0,4,0,1,,,,,,,,,,,,,
65fb5f438050e2495c957083,TCN,2024-06-11_18h55.16.728,LearnStrategy,2023.2.3,Win32,60.24096386,4,1,6,-0.095370314,-0.002777778,1,0,0,1.529,rock_grid_rect_2,2,16,-1,-1,1.529,-0.137962935,-0.255555556,1,0,0,1.4258,Basalt_rect,2,1.426,1,5,0,5,0,1,,,,,,,,,,,,,
65fb5f438050e2495c957083,TCN,2024-06-11_18h55.16.728,LearnStrategy,2023.2.3,Win32,60.24096386,4,1,7,-0.006481425,0.010185157,1,0,0,1.1623,rock_grid_rect_2,1,06,-1,-1,1.162,0.059259288,-0.396296353,1,0,0,2.0873,Peridotite_rect,7,2.087,0,6,0,6,0,1,,,,,,,,,,,,,
65fb5f438050e2495c957083,TCN,2024-06-11_18h55.16.728,LearnStrategy,2023.2.3,Win32,60.24096386,4,1,8,-0.085185157,-0.012037065,1,0,0,1.2655,rock_grid_rect_2,4,13,-1,-1,1.265,-0.087036981,-0.401851908,1,0,0,1.6538,Pegmatite_rect,6,1.654,0,7,0,7,0,1,,,,,,,,,,,,,
65fb5f438050e2495c957083,TCN,2024-06-11_18h55.16.728,LearnStrategy,2023.2.3,Win32,60.24096386,4,1,9,-0.081481425,-0.011111111,1,0,0,1.5634,rock_grid_rect_2,2,09,-1,-1,1.563,-0.098148092,-0.246296353,1,0,0,1.4365,Basalt_rect,2,1.437,1,8,0,8,0,1,,,,,,,,,,,,,
65fb5f438050e2495c957083,TCN,2024-06-11_18h55.16.728,LearnStrategy,2023.2.3,Win32,60.24096386,4,1,10,-0.016666667,-0.018518533,1,0,0,1.3144,rock_grid_rect_2,8,10,-1,-1,1.314,0.397222222,-0.396296353,1,0,0,1.8719,Pumice_rect,8,1.872,1,9,0,9,0,1,,,,,,,,,,,,,
65fb5f438050e2495c957083,TCN,2024-06-11_18h55.16.728,LearnStrategy,2023.2.3,Win32,60.24096386,4,1,11,-0.088888889,-0.010185199,1,0,0,1.5309,rock_grid_rect_2,1,14,-1,-1,1.531,-0.114814758,-0.4,1,0,0,2.4013,Pegmatite_rect,6,2.401,0,10,0,10,0,1,,,,,,,,,,,,,
65fb5f438050e2495c957083,TCN,2024-06-11_18h55.16.728,LearnStrategy,2023.2.3,Win32,60.24096386,4,1,12,-0.008333333,0.000925912,1,0,0,1.4957,rock_grid_rect_2,6,07,-1,-1,1.496,-0.086111111,-0.394444444,1,0,0,1.3838,Pegmatite_rect,6,1.384,1,11,0,11,0,1,,,,,,,,,,,,,
65fb5f438050e2495c957083,TCN,2024-06-11_18h55.16.728,LearnStrategy,2023.2.3,Win32,60.24096386,4,1,13,-0.037962935,-0.010185199,1,0,0,1.2771,rock_grid_rect_2,7,05,-1,-1,1.277,0.109259288,-0.396296353,1,0,0,1.2683,Peridotite_rect,7,1.268,1,12,0,12,0,1,,,,,,,,,,,,,
65fb5f438050e2495c957083,TCN,2024-06-11_18h55.16.728,LearnStrategy,2023.2.3,Win32,60.24096386,4,1,14,-0.031481425,-0.009259288,1,0,0,1.2269,rock_grid_rect_2,4,16,-1,-1,1.227,0.322222222,-0.246296353,1,0,0,1.7232,Gabbro_rect,4,1.723,1,13,0,13,0,1,,,,,,,,,,,,,
65fb5f438050e2495c957083,TCN,2024-06-11_18h55.16.728,LearnStrategy,2023.2.3,Win32,60.24096386,4,1,15,-0.039814758,-0.023148176,1,0,0,1.1806,rock_grid_rect_2,6,15,-1,-1,1.181,-0.186111111,-0.40648151,1,0,0,1.4855,Pegmatite_rect,6,1.486,1,14,0,14,0,1,,,,,,,,,,,,,
65fb5f438050e2495c957083,TCN,2024-06-11_18h55.16.728,LearnStrategy,2023.2.3,Win32,60.24096386,4,1,16,-0.119444444,0.004629601,1,0,0,1.3536,rock_grid_rect_2,7,08,-1,-1,1.354,-0.336111111,-0.237037065,1,0,0,2.7158,Andesite_rect,1,2.716,0,15,0,15,0,1,,,,,,,,,,,,,
65fb5f438050e2495c957083,TCN,2024-06-11_18h55.16.728,LearnStrategy,2023.2.3,Win32,60.24096386,4,2,1,,,,,,,,8,16,,,,,,,,,,,2,3.573,0,,,,,,-0.165740712,-0.264814843,1,0,0,3.5735,Basalt_rect,0,0,0,0,1,
65fb5f438050e2495c957083,TCN,2024-06-11_18h55.16.728,LearnStrategy,2023.2.3,Win32,60.24096386,4,2,2,,,,,,,,7,04,,,,,,,,,,,6,2.449,0,,,,,,-0.123148092,-0.387037065,1,0,0,2.4492,Pegmatite_rect,1,0,1,0,1,
65fb5f438050e2495c957083,TCN,2024-06-11_18h55.16.728,LearnStrategy,2023.2.3,Win32,60.24096386,4,2,3,,,,,,,,5,05,,,,,,,,,,,5,1.303,1,,,,,,-0.347222222,-0.408333333,1,0,0,1.3029,Obsidian_rect,2,0,2,0,1,
65fb5f438050e2495c957083,TCN,2024-06-11_18h55.16.728,LearnStrategy,2023.2.3,Win32,60.24096386,4,2,4,,,,,,,,1,03,,,,,,,,,,,2,2.791,0,,,,,,-0.120370314,-0.25648151,1,0,0,2.7906,Basalt_rect,3,0,3,0,1,
65fb5f438050e2495c957083,TCN,2024-06-11_18h55.16.728,LearnStrategy,2023.2.3,Win32,60.24096386,4,2,5,,,,,,,,8,08,,,,,,,,,,,8,1.58,1,,,,,,0.305555556,-0.389814843,1,0,0,1.5798,Pumice_rect,4,0,4,0,1,
65fb5f438050e2495c957083,TCN,2024-06-11_18h55.16.728,LearnStrategy,2023.2.3,Win32,60.24096386,4,2,6,,,,,,,,1,09,,,,,,,,,,,3,3.285,0,,,,,,0.139814843,-0.266666667,1,0,0,3.285,Diorite_rect,5,0,5,0,1,
65fb5f438050e2495c957083,TCN,2024-06-11_18h55.16.728,LearnStrategy,2023.2.3,Win32,60.24096386,4,2,7,,,,,,,,4,10,,,,,,,,,,,7,2.78,0,,,,,,0.128703732,-0.413888889,1,0,0,2.7804,Peridotite_rect,6,0,6,0,1,
65fb5f438050e2495c957083,TCN,2024-06-11_18h55.16.728,LearnStrategy,2023.2.3,Win32,60.24096386,4,2,8,,,,,,,,6,10,,,,,,,,,,,6,1.808,1,,,,,,-0.15,-0.411111111,1,0,0,1.8082,Pegmatite_rect,7,0,7,0,1,
65fb5f438050e2495c957083,TCN,2024-06-11_18h55.16.728,LearnStrategy,2023.2.3,Win32,60.24096386,4,2,9,,,,,,,,5,02,,,,,,,,,,,5,1.565,1,,,,,,-0.325,-0.398148176,1,0,0,1.5646,Obsidian_rect,8,0,8,0,1,
65fb5f438050e2495c957083,TCN,2024-06-11_18h55.16.728,LearnStrategy,2023.2.3,Win32,60.24096386,4,2,10,,,,,,,,4,09,,,,,,,,,,,7,2.05,0,,,,,,0.095370399,-0.407407464,1,0,0,2.0498,Peridotite_rect,9,0,9,0,1,
65fb5f438050e2495c957083,TCN,2024-06-11_18h55.16.728,LearnStrategy,2023.2.3,Win32,60.24096386,4,2,11,,,,,,,,3,15,,,,,,,,,,,1,3.631,0,,,,,,-0.388888889,-0.230555556,1,0,0,3.6307,Andesite_rect,10,0,10,0,1,
65fb5f438050e2495c957083,TCN,2024-06-11_18h55.16.728,LearnStrategy,2023.2.3,Win32,60.24096386,4,2,12,,,,,,,,6,08,,,,,,,,,,,6,1.701,1,,,,,,-0.144444444,-0.380555556,1,0,0,1.7011,Pegmatite_rect,11,0,11,0,1,
65fb5f438050e2495c957083,TCN,2024-06-11_18h55.16.728,LearnStrategy,2023.2.3,Win32,60.24096386,4,2,13,,,,,,,,2,08,,,,,,,,,,,2,1.404,1,,,,,,-0.125,-0.251851908,1,0,0,1.4037,Basalt_rect,12,0,12,0,1,
65fb5f438050e2495c957083,TCN,2024-06-11_18h55.16.728,LearnStrategy,2023.2.3,Win32,60.24096386,4,2,14,,,,,,,,3,09,,,,,,,,,,,3,3.4,1,,,,,,0.119444444,-0.251851908,1,0,0,3.3998,Diorite_rect,13,0,13,0,1,
65fb5f438050e2495c957083,TCN,2024-06-11_18h55.16.728,LearnStrategy,2023.2.3,Win32,60.24096386,4,2,15,,,,,,,,7,02,,,,,,,,,,,7,3.533,1,,,,,,0.121296353,-0.38148151,1,0,0,3.5329,Peridotite_rect,14,0,14,0,1,
65fb5f438050e2495c957083,TCN,2024-06-11_18h55.16.728,LearnStrategy,2023.2.3,Win32,60.24096386,4,2,16,,,,,,,,2,14,,,,,,,,,,,4,1.22,0,,,,,,0.342592621,-0.249074131,1,0,0,1.2196,Gabbro_rect,15,0,15,0,1,
65fb5f438050e2495c957083,TCN,2024-06-11_18h55.16.728,LearnStrategy,2023.2.3,Win32,60.24096386,5,1,1,-0.019444444,-0.008333333,1,0,0,1.3974,rock_grid_rect_2,1,04,-1,-1,1.397,-0.348148134,-0.25,1,0,0,2.9505,Andesite_rect,1,2.95,1,0,0,0,0,1,,,,,,,,,,,,,
65fb5f438050e2495c957083,TCN,2024-06-11_18h55.16.728,LearnStrategy,2023.2.3,Win32,60.24096386,5,1,2,-0.128703647,-0.020370399,1,0,0,1.6959,rock_grid_rect_2,6,09,-1,-1,1.696,-0.083333333,-0.416666667,1,0,0,1.1749,Pegmatite_rect,6,1.175,1,1,0,1,0,1,,,,,,,,,,,,,
65fb5f438050e2495c957083,TCN,2024-06-11_18h55.16.728,LearnStrategy,2023.2.3,Win32,60.24096386,5,1,3,-0.166666667,-0.005555556,1,0,0,1.4117,rock_grid_rect_2,2,10,-1,-1,1.412,-0.102777778,-0.255555556,1,0,0,1.3862,Basalt_rect,2,1.386,1,2,0,2,0,1,,,,,,,,,,,,,
65fb5f438050e2495c957083,TCN,2024-06-11_18h55.16.728,LearnStrategy,2023.2.3,Win32,60.24096386,5,1,4,-0.028703647,0.00370369,1,0,0,1.0798,rock_grid_rect_2,8,09,-1,-1,1.08,0.323148176,-0.418518575,1,0,0,1.3515,Pumice_rect,8,1.351,1,3,0,3,0,1,,,,,,,,,,,,,
65fb5f438050e2495c957083,TCN,2024-06-11_18h55.16.728,LearnStrategy,2023.2.3,Win32,60.24096386,5,1,5,-0.05,-0.017592621,1,0,0,1.0316,rock_grid_rect_2,3,16,-1,-1,1.032,0.093518575,-0.252777778,1,0,0,1.9746,Diorite_rect,3,1.975,1,4,0,4,0,1,,,,,,,,,,,,,
65fb5f438050e2495c957083,TCN,2024-06-11_18h55.16.728,LearnStrategy,2023.2.3,Win32,60.24096386,5,1,6,0.047222222,0.020370356,1,0,0,1.0301,rock_grid_rect_2,5,11,-1,-1,1.03,-0.330555556,-0.405555556,1,0,0,1.4418,Obsidian_rect,5,1.442,1,5,0,5,0,1,,,,,,,,,,,,,
65fb5f438050e2495c957083,TCN,2024-06-11_18h55.16.728,LearnStrategy,2023.2.3,Win32,60.24096386,5,1,7,-0.056481425,-0.015740755,1,0,0,1.2131,rock_grid_rect_2,1,01,-1,-1,1.213,0.099074131,-0.382407464,1,0,0,2.4066,Peridotite_rect,7,2.407,0,6,0,6,0,1,,,,,,,,,,,,,
65fb5f438050e2495c957083,TCN,2024-06-11_18h55.16.728,LearnStrategy,2023.2.3,Win32,60.24096386,5,1,8,-0.021296268,0.010185157,1,0,0,1.1958,rock_grid_rect_2,4,12,-1,-1,1.196,0.108333333,-0.252777778,1,0,0,2.0174,Diorite_rect,3,2.017,0,7,0,7,0,1,,,,,,,,,,,,,
65fb5f438050e2495c957083,TCN,2024-06-11_18h55.16.728,LearnStrategy,2023.2.3,Win32,60.24096386,5,1,9,-0.051851824,-0.005555556,1,0,0,1.7118,rock_grid_rect_2,7,10,-1,-1,1.712,0.070370399,-0.394444444,1,0,0,4.6908,Peridotite_rect,7,4.691,1,8,0,8,0,1,,,,,,,,,,,,,
65fb5f438050e2495c957083,TCN,2024-06-11_18h55.16.728,LearnStrategy,2023.2.3,Win32,60.24096386,5,1,10,-0.1,-0.012962977,1,0,0,2.1955,rock_grid_rect_2,4,15,-1,-1,2.196,0.346296353,-0.262037065,1,0,0,1.7347,Gabbro_rect,4,1.735,1,9,0,9,0,1,,,,,,,,,,,,,
65fb5f438050e2495c957083,TCN,2024-06-11_18h55.16.728,LearnStrategy,2023.2.3,Win32,60.24096386,5,1,11,-0.100925869,0.008333333,1,0,0,1.3466,rock_grid_rect_2,2,02,-1,-1,1.347,-0.101851824,-0.268518575,1,0,0,1.3094,Basalt_rect,2,1.309,1,10,0,10,0,1,,,,,,,,,,,,,
65fb5f438050e2495c957083,TCN,2024-06-11_18h55.16.728,LearnStrategy,2023.2.3,Win32,60.24096386,5,1,12,-0.01851849,0.000925912,1,0,0,1.0277,rock_grid_rect_2,8,04,-1,-1,1.028,0.311111111,-0.382407464,1,0,0,2.9707,Pumice_rect,8,2.971,1,11,0,11,0,1,,,,,,,,,,,,,
65fb5f438050e2495c957083,TCN,2024-06-11_18h55.16.728,LearnStrategy,2023.2.3,Win32,60.24096386,5,1,13,-0.154629601,-0.002777778,1,0,0,1.2806,rock_grid_rect_2,5,07,-1,-1,1.281,-0.419444444,-0.412963019,1,0,0,2.7896,Obsidian_rect,5,2.79,1,12,0,12,0,1,,,,,,,,,,,,,
65fb5f438050e2495c957083,TCN,2024-06-11_18h55.16.728,LearnStrategy,2023.2.3,Win32,60.24096386,5,1,14,-0.138888889,0.007407379,1,0,0,1.7475,rock_grid_rect_2,7,14,-1,-1,1.747,0.059259288,-0.386111111,1,0,0,5.122,Peridotite_rect,7,5.122,1,13,0,13,0,1,,,,,,,,,,,,,
65fb5f438050e2495c957083,TCN,2024-06-11_18h55.16.728,LearnStrategy,2023.2.3,Win32,60.24096386,5,1,15,0.022222222,0,1,0,0,1.8635,rock_grid_rect_2,3,14,-1,-1,1.864,-0.420370356,-0.236111111,1,0,0,3.5347,Andesite_rect,1,3.535,0,14,0,14,0,1,,,,,,,,,,,,,
65fb5f438050e2495c957083,TCN,2024-06-11_18h55.16.728,LearnStrategy,2023.2.3,Win32,60.24096386,5,1,16,-0.079629601,0.008333333,1,0,0,1.2467,rock_grid_rect_2,6,03,-1,-1,1.247,-0.080555556,-0.415740797,1,0,0,1.3754,Pegmatite_rect,6,1.375,1,15,0,15,0,1,,,,,,,,,,,,,
65fb5f438050e2495c957083,TCN,2024-06-11_18h55.16.728,LearnStrategy,2023.2.3,Win32,60.24096386,5,2,1,,,,,,,,8,14,,,,,,,,,,,8,1.526,1,,,,,,0.344444444,-0.396296353,1,0,0,1.5257,Pumice_rect,0,0,0,0,1,
65fb5f438050e2495c957083,TCN,2024-06-11_18h55.16.728,LearnStrategy,2023.2.3,Win32,60.24096386,5,2,2,,,,,,,,4,08,,,,,,,,,,,3,3.014,0,,,,,,0.087963019,-0.249074131,1,0,0,3.0138,Diorite_rect,1,0,1,0,1,
65fb5f438050e2495c957083,TCN,2024-06-11_18h55.16.728,LearnStrategy,2023.2.3,Win32,60.24096386,5,2,3,,,,,,,,7,13,,,,,,,,,,,1,2.475,0,,,,,,-0.372222222,-0.244444444,1,0,0,2.475,Andesite_rect,2,0,2,0,1,
65fb5f438050e2495c957083,TCN,2024-06-11_18h55.16.728,LearnStrategy,2023.2.3,Win32,60.24096386,5,2,4,,,,,,,,6,06,,,,,,,,,,,6,1.755,1,,,,,,-0.119444444,-0.413888889,1,0,0,1.7546,Pegmatite_rect,3,0,3,0,1,
65fb5f438050e2495c957083,TCN,2024-06-11_18h55.16.728,LearnStrategy,2023.2.3,Win32,60.24096386,5,2,5,,,,,,,,6,11,,,,,,,,,,,6,1.449,1,,,,,,-0.174074046,-0.417592621,1,0,0,1.4492,Pegmatite_rect,4,0,4,0,1,
65fb5f438050e2495c957083,TCN,2024-06-11_18h55.16.728,LearnStrategy,2023.2.3,Win32,60.24096386,5,2,6,,,,,,,,7,06,,,,,,,,,,,7,3.595,1,,,,,,0.074074131,-0.416666667,1,0,0,3.5945,Peridotite_rect,5,0,5,0,1,
65fb5f438050e2495c957083,TCN,2024-06-11_18h55.16.728,LearnStrategy,2023.2.3,Win32,60.24096386,5,2,7,,,,,,,,4,05,,,,,,,,,,,2,2.108,0,,,,,,-0.100925869,-0.239814843,1,0,0,2.1078,Basalt_rect,6,0,6,0,1,
65fb5f438050e2495c957083,TCN,2024-06-11_18h55.16.728,LearnStrategy,2023.2.3,Win32,60.24096386,5,2,8,,,,,,,,3,13,,,,,,,,,,,1,5.49,0,,,,,,-0.375,-0.269444444,1,0,0,5.4901,Andesite_rect,7,0,7,0,1,
65fb5f438050e2495c957083,TCN,2024-06-11_18h55.16.728,LearnStrategy,2023.2.3,Win32,60.24096386,5,2,9,,,,,,,,2,11,,,,,,,,,,,8,2.631,0,,,,,,0.336111111,-0.379629686,1,0,0,2.6309,Pumice_rect,8,0,8,0,1,
65fb5f438050e2495c957083,TCN,2024-06-11_18h55.16.728,LearnStrategy,2023.2.3,Win32,60.24096386,5,2,10,,,,,,,,2,06,,,,,,,,,,,2,2.27,1,,,,,,-0.177777778,-0.245370399,1,0,0,2.27,Basalt_rect,9,0,9,0,1,
65fb5f438050e2495c957083,TCN,2024-06-11_18h55.16.728,LearnStrategy,2023.2.3,Win32,60.24096386,5,2,11,,,,,,,,5,04,,,,,,,,,,,5,1.332,1,,,,,,-0.377777778,-0.4,1,0,0,1.3324,Obsidian_rect,10,0,10,0,1,
65fb5f438050e2495c957083,TCN,2024-06-11_18h55.16.728,LearnStrategy,2023.2.3,Win32,60.24096386,5,2,12,,,,,,,,1,10,,,,,,,,,,,4,3.015,0,,,,,,0.336111111,-0.228703732,1,0,0,3.0149,Gabbro_rect,11,0,11,0,1,
65fb5f438050e2495c957083,TCN,2024-06-11_18h55.16.728,LearnStrategy,2023.2.3,Win32,60.24096386,5,2,13,,,,,,,,5,10,,,,,,,,,,,5,1.475,1,,,,,,-0.344444444,-0.384259288,1,0,0,1.4747,Obsidian_rect,12,0,12,0,1,
65fb5f438050e2495c957083,TCN,2024-06-11_18h55.16.728,LearnStrategy,2023.2.3,Win32,60.24096386,5,2,14,,,,,,,,1,11,,,,,,,,,,,1,4.795,1,,,,,,-0.349074046,-0.254629686,1,0,0,4.7953,Andesite_rect,13,0,13,0,1,
65fb5f438050e2495c957083,TCN,2024-06-11_18h55.16.728,LearnStrategy,2023.2.3,Win32,60.24096386,5,2,15,,,,,,,,8,13,,,,,,,,,,,8,1.614,1,,,,,,0.33148151,-0.387963019,1,0,0,1.6142,Pumice_rect,14,0,14,0,1,
65fb5f438050e2495c957083,TCN,2024-06-11_18h55.16.728,LearnStrategy,2023.2.3,Win32,60.24096386,5,2,16,,,,,,,,3,07,,,,,,,,,,,3,1.897,1,,,,,,0.098148176,-0.251851908,1,0,0,1.8969,Diorite_rect,15,0,15,0,1,
65fb5f438050e2495c957083,TCN,2024-06-11_18h55.16.728,LearnStrategy,2023.2.3,Win32,60.24096386,6,1,1,-0.056481425,0.001851824,1,0,0,1.5401,rock_grid_rect_2,6,05,-1,-1,1.54,-0.111111111,-0.412037065,1,0,0,2.4654,Pegmatite_rect,6,2.465,1,0,0,0,0,1,,,,,,,,,,,,,
65fb5f438050e2495c957083,TCN,2024-06-11_18h55.16.728,LearnStrategy,2023.2.3,Win32,60.24096386,6,1,2,-0.064814758,-0.005555556,1,0,0,2.7353,rock_grid_rect_2,3,08,-1,-1,2.735,0.10648151,-0.257407464,1,0,0,1.9664,Diorite_rect,3,1.966,1,1,0,1,0,1,,,,,,,,,,,,,
65fb5f438050e2495c957083,TCN,2024-06-11_18h55.16.728,LearnStrategy,2023.2.3,Win32,60.24096386,6,1,3,-0.012962935,-0.012037065,1,0,0,3.4617,rock_grid_rect_2,2,04,-1,-1,3.462,-0.160185157,-0.268518575,1,0,0,1.9427,Basalt_rect,2,1.943,1,2,0,2,0,1,,,,,,,,,,,,,
65fb5f438050e2495c957083,TCN,2024-06-11_18h55.16.728,LearnStrategy,2023.2.3,Win32,60.24096386,6,1,4,-0.013888889,-0.016666667,1,0,0,1.7805,rock_grid_rect_2,7,07,-1,-1,1.78,0.087037065,-0.384259288,1,0,0,3.7984,Peridotite_rect,7,3.798,1,3,0,3,0,1,,,,,,,,,,,,,
65fb5f438050e2495c957083,TCN,2024-06-11_18h55.16.728,LearnStrategy,2023.2.3,Win32,60.24096386,6,1,5,-0.136111111,0.004629601,1,0,0,1.6617,rock_grid_rect_2,8,06,-1,-1,1.662,0.352777778,-0.388888889,1,0,0,2.0864,Pumice_rect,8,2.086,1,4,0,4,0,1,,,,,,,,,,,,,
65fb5f438050e2495c957083,TCN,2024-06-11_18h55.16.728,LearnStrategy,2023.2.3,Win32,60.24096386,6,1,6,-0.081481425,-0.024074088,1,0,0,1.363,rock_grid_rect_2,3,11,-1,-1,1.363,-0.39351849,-0.230555556,1,0,0,1.0825,Andesite_rect,1,1.082,0,5,0,5,0,1,,,,,,,,,,,,,
65fb5f438050e2495c957083,TCN,2024-06-11_18h55.16.728,LearnStrategy,2023.2.3,Win32,60.24096386,6,1,7,-0.073148092,0.000925912,1,0,0,1.2774,rock_grid_rect_2,5,09,-1,-1,1.277,-0.422222222,-0.383333333,1,0,0,1.9172,Obsidian_rect,5,1.917,1,6,0,6,0,1,,,,,,,,,,,,,
65fb5f438050e2495c957083,TCN,2024-06-11_18h55.16.728,LearnStrategy,2023.2.3,Win32,60.24096386,6,1,8,0.020370399,-0.020370399,1,0,0,1.3629,rock_grid_rect_2,4,11,-1,-1,1.363,-0.383333333,-0.244444444,1,0,0,4.6907,Andesite_rect,1,4.691,0,7,0,7,0,1,,,,,,,,,,,,,
65fb5f438050e2495c957083,TCN,2024-06-11_18h55.16.728,LearnStrategy,2023.2.3,Win32,60.24096386,6,1,9,-0.052777778,0.002777778,1,0,0,1.2644,rock_grid_rect_2,6,16,-1,-1,1.264,-0.107407379,-0.388888889,1,0,0,1.3462,Pegmatite_rect,6,1.346,1,8,0,8,0,1,,,,,,,,,,,,,
65fb5f438050e2495c957083,TCN,2024-06-11_18h55.16.728,LearnStrategy,2023.2.3,Win32,60.24096386,6,1,10,-0.075925869,-0.002777778,1,0,0,1.5051,rock_grid_rect_2,1,16,-1,-1,1.505,0.107407464,-0.265740797,1,0,0,1.5285,Diorite_rect,3,1.528,0,9,0,9,0,1,,,,,,,,,,,,,
65fb5f438050e2495c957083,TCN,2024-06-11_18h55.16.728,LearnStrategy,2023.2.3,Win32,60.24096386,6,1,11,-0.027777778,-0.013888889,1,0,0,1.1284,rock_grid_rect_2,2,01,-1,-1,1.128,-0.099074046,-0.246296353,1,0,0,1.1447,Basalt_rect,2,1.145,1,10,0,10,0,1,,,,,,,,,,,,,
65fb5f438050e2495c957083,TCN,2024-06-11_18h55.16.728,LearnStrategy,2023.2.3,Win32,60.24096386,6,1,12,0.005555556,0.000925912,1,0,0,1.2972,rock_grid_rect_2,8,15,-1,-1,1.297,0.35,-0.387037065,1,0,0,1.4901,Pumice_rect,8,1.49,1,11,0,11,0,1,,,,,,,,,,,,,
65fb5f438050e2495c957083,TCN,2024-06-11_18h55.16.728,LearnStrategy,2023.2.3,Win32,60.24096386,6,1,13,-0.079629601,-0.013888889,1,0,0,1.3115,rock_grid_rect_2,7,12,-1,-1,1.312,0.114814843,-0.250925954,1,0,0,1.6906,Diorite_rect,3,1.691,0,12,0,12,0,1,,,,,,,,,,,,,
65fb5f438050e2495c957083,TCN,2024-06-11_18h55.16.728,LearnStrategy,2023.2.3,Win32,60.24096386,6,1,14,-0.01851849,-0.020370399,1,0,0,1.2976,rock_grid_rect_2,1,07,-1,-1,1.298,-0.365740712,-0.237963019,1,0,0,2.8021,Andesite_rect,1,2.802,1,13,0,13,0,1,,,,,,,,,,,,,
65fb5f438050e2495c957083,TCN,2024-06-11_18h55.16.728,LearnStrategy,2023.2.3,Win32,60.24096386,6,1,15,-0.012036981,-0.010185199,1,0,0,1.265,rock_grid_rect_2,4,01,-1,-1,1.265,0.099074131,-0.250925954,1,0,0,2.0543,Diorite_rect,3,2.054,0,14,0,14,0,1,,,,,,,,,,,,,
65fb5f438050e2495c957083,TCN,2024-06-11_18h55.16.728,LearnStrategy,2023.2.3,Win32,60.24096386,6,1,16,0.000925954,-0.005555556,1,0,0,1.5118,rock_grid_rect_2,5,12,-1,-1,1.512,-0.412037023,-0.409259288,1,0,0,1.5247,Obsidian_rect,5,1.525,1,15,0,15,0,1,,,,,,,,,,,,,
65fb5f438050e2495c957083,TCN,2024-06-11_18h55.16.728,LearnStrategy,2023.2.3,Win32,60.24096386,6,2,1,,,,,,,,8,05,,,,,,,,,,,8,2.216,1,,,,,,0.359259288,-0.393518575,1,0,0,2.2159,Pumice_rect,0,0,0,0,1,
65fb5f438050e2495c957083,TCN,2024-06-11_18h55.16.728,LearnStrategy,2023.2.3,Win32,60.24096386,6,2,2,,,,,,,,1,05,,,,,,,,,,,4,4.894,0,,,,,,0.366666667,-0.240740797,1,0,0,4.8938,Gabbro_rect,1,0,1,0,1,
65fb5f438050e2495c957083,TCN,2024-06-11_18h55.16.728,LearnStrategy,2023.2.3,Win32,60.24096386,6,2,3,,,,,,,,3,10,,,,,,,,,,,1,4.449,0,,,,,,-0.384259245,-0.248148176,1,0,0,4.4492,Andesite_rect,2,0,2,0,1,
65fb5f438050e2495c957083,TCN,2024-06-11_18h55.16.728,LearnStrategy,2023.2.3,Win32,60.24096386,6,2,4,,,,,,,,5,16,,,,,,,,,,,5,2.466,1,,,,,,-0.401851824,-0.408333333,1,0,0,2.4663,Obsidian_rect,3,0,3,0,1,
65fb5f438050e2495c957083,TCN,2024-06-11_18h55.16.728,LearnStrategy,2023.2.3,Win32,60.24096386,6,2,5,,,,,,,,8,03,,,,,,,,,,,8,1.351,1,,,,,,0.346296353,-0.390740797,1,0,0,1.3507,Pumice_rect,4,0,4,0,1,
65fb5f438050e2495c957083,TCN,2024-06-11_18h55.16.728,LearnStrategy,2023.2.3,Win32,60.24096386,6,2,6,,,,,,,,2,05,,,,,,,,,,,2,1.537,1,,,,,,-0.147222222,-0.254629686,1,0,0,1.5373,Basalt_rect,5,0,5,0,1,
65fb5f438050e2495c957083,TCN,2024-06-11_18h55.16.728,LearnStrategy,2023.2.3,Win32,60.24096386,6,2,7,,,,,,,,3,12,,,,,,,,,,,3,4.782,1,,,,,,0.127777778,-0.245370399,1,0,0,4.7815,Diorite_rect,6,0,6,0,1,
65fb5f438050e2495c957083,TCN,2024-06-11_18h55.16.728,LearnStrategy,2023.2.3,Win32,60.24096386,6,2,8,,,,,,,,2,12,,,,,,,,,,,2,1.316,1,,,,,,-0.135185157,-0.250925954,1,0,0,1.3158,Basalt_rect,7,0,7,0,1,
65fb5f438050e2495c957083,TCN,2024-06-11_18h55.16.728,LearnStrategy,2023.2.3,Win32,60.24096386,6,2,9,,,,,,,,4,03,,,,,,,,,,,3,2.771,0,,,,,,0.116666667,-0.251851908,1,0,0,2.7706,Diorite_rect,8,0,8,0,1,
65fb5f438050e2495c957083,TCN,2024-06-11_18h55.16.728,LearnStrategy,2023.2.3,Win32,60.24096386,6,2,10,,,,,,,,7,16,,,,,,,,,,,7,4.157,1,,,,,,0.112963019,-0.383333333,1,0,0,4.1565,Peridotite_rect,9,0,9,0,1,
65fb5f438050e2495c957083,TCN,2024-06-11_18h55.16.728,LearnStrategy,2023.2.3,Win32,60.24096386,6,2,11,,,,,,,,6,13,,,,,,,,,,,6,2.162,1,,,,,,-0.166666667,-0.417592621,1,0,0,2.1622,Pegmatite_rect,10,0,10,0,1,
65fb5f438050e2495c957083,TCN,2024-06-11_18h55.16.728,LearnStrategy,2023.2.3,Win32,60.24096386,6,2,12,,,,,,,,7,15,,,,,,,,,,,7,2.757,1,,,,,,0.100925954,-0.392592621,1,0,0,2.7569,Peridotite_rect,11,0,11,0,1,
65fb5f438050e2495c957083,TCN,2024-06-11_18h55.16.728,LearnStrategy,2023.2.3,Win32,60.24096386,6,2,13,,,,,,,,5,06,,,,,,,,,,,5,1.224,1,,,,,,-0.499074046,-0.393518575,1,0,0,1.2242,Obsidian_rect,12,0,12,0,1,
65fb5f438050e2495c957083,TCN,2024-06-11_18h55.16.728,LearnStrategy,2023.2.3,Win32,60.24096386,6,2,14,,,,,,,,6,12,,,,,,,,,,,1,3.448,0,,,,,,-0.440740712,-0.248148176,1,0,0,3.4484,Andesite_rect,13,0,13,0,1,
65fb5f438050e2495c957083,TCN,2024-06-11_18h55.16.728,LearnStrategy,2023.2.3,Win32,60.24096386,6,2,15,,,,,,,,4,14,,,,,,,,,,,2,1.412,0,,,,,,-0.158333333,-0.262963019,1,0,0,1.4118,Basalt_rect,14,0,14,0,1,
65fb5f438050e2495c957083,TCN,2024-06-11_18h55.16.728,LearnStrategy,2023.2.3,Win32,60.24096386,6,2,16,,,,,,,,1,02,,,,,,,,,,,4,2.049,0,,,,,,0.345370399,-0.267592621,1,0,0,2.0495,Gabbro_rect,15,0,15,0,1,
65fb5f438050e2495c957083,TCN,2024-06-11_18h55.16.728,LearnStrategy,2023.2.3,Win32,60.24096386,7,1,1,-0.032407379,-0.005555556,1,0,0,1.678,rock_grid_rect_2,7,08,-1,-1,1.678,0.089814843,-0.390740797,1,0,0,1.9413,Peridotite_rect,7,1.941,1,0,0,0,0,1,,,,,,,,,,,,,
65fb5f438050e2495c957083,TCN,2024-06-11_18h55.16.728,LearnStrategy,2023.2.3,Win32,60.24096386,7,1,2,-0.090740712,-0.022222222,1,0,0,2.0452,rock_grid_rect_2,8,10,-1,-1,2.045,-0.117592536,-0.268518575,1,0,0,1.5385,Basalt_rect,2,1.538,0,1,0,1,0,1,,,,,,,,,,,,,
65fb5f438050e2495c957083,TCN,2024-06-11_18h55.16.728,LearnStrategy,2023.2.3,Win32,60.24096386,7,1,3,-0.005555556,0.013888889,1,0,0,1.3446,rock_grid_rect_2,3,14,-1,-1,1.345,0.086111111,-0.255555556,1,0,0,2.3399,Diorite_rect,3,2.34,1,2,0,2,0,1,,,,,,,,,,,,,
65fb5f438050e2495c957083,TCN,2024-06-11_18h55.16.728,LearnStrategy,2023.2.3,Win32,60.24096386,7,1,4,-0.113888889,0.017592578,1,0,0,1.2637,rock_grid_rect_2,4,01,-1,-1,1.264,0.110185242,-0.388888889,1,0,0,2.1214,Peridotite_rect,7,2.121,0,3,0,3,0,1,,,,,,,,,,,,,
65fb5f438050e2495c957083,TCN,2024-06-11_18h55.16.728,LearnStrategy,2023.2.3,Win32,60.24096386,7,1,5,-0.054629601,-0.005555556,1,0,0,1.1628,rock_grid_rect_2,4,13,-1,-1,1.163,0.388888889,-0.269444444,1,0,0,1.9948,Gabbro_rect,4,1.995,1,4,0,4,0,1,,,,,,,,,,,,,
65fb5f438050e2495c957083,TCN,2024-06-11_18h55.16.728,LearnStrategy,2023.2.3,Win32,60.24096386,7,1,6,-0.012036981,0.019444444,1,0,0,1.6622,rock_grid_rect_2,6,15,-1,-1,1.662,-0.115740712,-0.417592621,1,0,0,3.1409,Pegmatite_rect,6,3.141,1,5,0,5,0,1,,,,,,,,,,,,,
65fb5f438050e2495c957083,TCN,2024-06-11_18h55.16.728,LearnStrategy,2023.2.3,Win32,60.24096386,7,1,7,-0.099074046,0.000925912,1,0,0,1.3796,rock_grid_rect_2,6,03,-1,-1,1.38,-0.124074046,-0.421296353,1,0,0,1.7709,Pegmatite_rect,6,1.771,1,6,0,6,0,1,,,,,,,,,,,,,
65fb5f438050e2495c957083,TCN,2024-06-11_18h55.16.728,LearnStrategy,2023.2.3,Win32,60.24096386,7,1,8,-0.027777778,-0.019444444,1,0,0,1.4794,rock_grid_rect_2,7,05,-1,-1,1.479,0.122222222,-0.385185242,1,0,0,2.9579,Peridotite_rect,7,2.958,1,7,0,7,0,1,,,,,,,,,,,,,
65fb5f438050e2495c957083,TCN,2024-06-11_18h55.16.728,LearnStrategy,2023.2.3,Win32,60.24096386,7,1,9,-0.025925869,0.009259245,1,0,0,1.4778,rock_grid_rect_2,2,02,-1,-1,1.478,-0.101851824,-0.254629686,1,0,0,1.5145,Basalt_rect,2,1.514,1,8,0,8,0,1,,,,,,,,,,,,,
65fb5f438050e2495c957083,TCN,2024-06-11_18h55.16.728,LearnStrategy,2023.2.3,Win32,60.24096386,7,1,10,-0.039814758,-0.003703732,1,0,0,5.2763,rock_grid_rect_2,5,08,-1,-1,5.276,-0.370370356,-0.403703732,1,0,0,3.316,Obsidian_rect,5,3.316,1,9,0,9,0,1,,,,,,,,,,,,,
65fb5f438050e2495c957083,TCN,2024-06-11_18h55.16.728,LearnStrategy,2023.2.3,Win32,60.24096386,7,1,11,-0.079629601,-0.016666667,1,0,0,1.2459,rock_grid_rect_2,1,14,-1,-1,1.246,-0.36851849,-0.247222222,1,0,0,2.4057,Andesite_rect,1,2.406,1,10,0,10,0,1,,,,,,,,,,,,,
65fb5f438050e2495c957083,TCN,2024-06-11_18h55.16.728,LearnStrategy,2023.2.3,Win32,60.24096386,7,1,12,-0.102777778,-0.011111111,1,0,0,1.2796,rock_grid_rect_2,3,06,-1,-1,1.28,0.127777778,-0.25,1,0,0,2.0084,Diorite_rect,3,2.008,1,11,0,11,0,1,,,,,,,,,,,,,
65fb5f438050e2495c957083,TCN,2024-06-11_18h55.16.728,LearnStrategy,2023.2.3,Win32,60.24096386,7,1,13,-0.150925869,0.011111111,1,0,0,1.0813,rock_grid_rect_2,8,06,-1,-1,1.081,0.334259288,-0.404629686,1,0,0,2.1001,Pumice_rect,8,2.1,1,12,0,12,0,1,,,,,,,,,,,,,
65fb5f438050e2495c957083,TCN,2024-06-11_18h55.16.728,LearnStrategy,2023.2.3,Win32,60.24096386,7,1,14,-0.120370314,-0.009259288,1,0,0,1.1628,rock_grid_rect_2,5,09,-1,-1,1.163,-0.375,-0.405555556,1,0,0,1.3674,Obsidian_rect,5,1.367,1,13,0,13,0,1,,,,,,,,,,,,,
65fb5f438050e2495c957083,TCN,2024-06-11_18h55.16.728,LearnStrategy,2023.2.3,Win32,60.24096386,7,1,15,-0.030555556,0.002777778,1,0,0,1.4287,rock_grid_rect_2,2,04,-1,-1,1.429,-0.128703647,-0.250925954,1,0,0,1.1636,Basalt_rect,2,1.164,1,14,0,14,0,1,,,,,,,,,,,,,
65fb5f438050e2495c957083,TCN,2024-06-11_18h55.16.728,LearnStrategy,2023.2.3,Win32,60.24096386,7,1,16,-0.083333333,0.000925912,1,0,0,1.3791,rock_grid_rect_2,1,16,-1,-1,1.379,-0.363888889,-0.263888889,1,0,0,1.8818,Andesite_rect,1,1.882,1,15,0,15,0,1,,,,,,,,,,,,,
65fb5f438050e2495c957083,TCN,2024-06-11_18h55.16.728,LearnStrategy,2023.2.3,Win32,60.24096386,7,2,1,,,,,,,,6,13,,,,,,,,,,,6,2.211,1,,,,,,-0.116666667,-0.404629686,1,0,0,2.2111,Pegmatite_rect,0,0,0,0,1,
65fb5f438050e2495c957083,TCN,2024-06-11_18h55.16.728,LearnStrategy,2023.2.3,Win32,60.24096386,7,2,2,,,,,,,,6,06,,,,,,,,,,,6,0.892,1,,,,,,-0.116666667,-0.404629686,1,0,0,0.8916,Pegmatite_rect,1,0,1,0,1,
65fb5f438050e2495c957083,TCN,2024-06-11_18h55.16.728,LearnStrategy,2023.2.3,Win32,60.24096386,7,2,3,,,,,,,,3,13,,,,,,,,,,,3,4.556,1,,,,,,0.095370399,-0.257407464,1,0,0,4.5557,Diorite_rect,2,0,2,0,1,
65fb5f438050e2495c957083,TCN,2024-06-11_18h55.16.728,LearnStrategy,2023.2.3,Win32,60.24096386,7,2,4,,,,,,,,1,02,,,,,,,,,,,4,2.254,0,,,,,,0.319444444,-0.268518575,1,0,0,2.2536,Gabbro_rect,3,0,3,0,1,
65fb5f438050e2495c957083,TCN,2024-06-11_18h55.16.728,LearnStrategy,2023.2.3,Win32,60.24096386,7,2,5,,,,,,,,7,02,,,,,,,,,,,7,1.432,1,,,,,,0.091666667,-0.379629686,1,0,0,1.4325,Peridotite_rect,4,0,4,0,1,
65fb5f438050e2495c957083,TCN,2024-06-11_18h55.16.728,LearnStrategy,2023.2.3,Win32,60.24096386,7,2,6,,,,,,,,8,08,,,,,,,,,,,8,2.454,1,,,,,,0.330555556,-0.383333333,1,0,0,2.4543,Pumice_rect,5,0,5,0,1,
65fb5f438050e2495c957083,TCN,2024-06-11_18h55.16.728,LearnStrategy,2023.2.3,Win32,60.24096386,7,2,7,,,,,,,,2,06,,,,,,,,,,,2,1.434,1,,,,,,-0.163888889,-0.247222222,1,0,0,1.4342,Basalt_rect,6,0,6,0,1,
65fb5f438050e2495c957083,TCN,2024-06-11_18h55.16.728,LearnStrategy,2023.2.3,Win32,60.24096386,7,2,8,,,,,,,,5,05,,,,,,,,,,,5,3.045,1,,,,,,-0.389814801,-0.415740797,1,0,0,3.0448,Obsidian_rect,7,0,7,0,1,
65fb5f438050e2495c957083,TCN,2024-06-11_18h55.16.728,LearnStrategy,2023.2.3,Win32,60.24096386,7,2,9,,,,,,,,3,09,,,,,,,,,,,3,5.836,1,,,,,,0.078703732,-0.237037065,1,0,0,5.8365,Diorite_rect,8,0,8,0,1,
65fb5f438050e2495c957083,TCN,2024-06-11_18h55.16.728,LearnStrategy,2023.2.3,Win32,60.24096386,7,2,10,,,,,,,,1,10,,,,,,,,,,,4,2.763,0,,,,,,0.366666667,-0.264814843,1,0,0,2.7627,Gabbro_rect,9,0,9,0,1,
65fb5f438050e2495c957083,TCN,2024-06-11_18h55.16.728,LearnStrategy,2023.2.3,Win32,60.24096386,7,2,11,,,,,,,,7,13,,,,,,,,,,,7,1.751,1,,,,,,0.119444444,-0.407407464,1,0,0,1.7512,Peridotite_rect,10,0,10,0,1,
65fb5f438050e2495c957083,TCN,2024-06-11_18h55.16.728,LearnStrategy,2023.2.3,Win32,60.24096386,7,2,12,,,,,,,,8,14,,,,,,,,,,,8,1.861,1,,,,,,0.357407464,-0.399074131,1,0,0,1.8607,Pumice_rect,11,0,11,0,1,
65fb5f438050e2495c957083,TCN,2024-06-11_18h55.16.728,LearnStrategy,2023.2.3,Win32,60.24096386,7,2,13,,,,,,,,2,12,,,,,,,,,,,2,1.166,1,,,,,,-0.096296268,-0.238888889,1,0,0,1.1655,Basalt_rect,12,0,12,0,1,
65fb5f438050e2495c957083,TCN,2024-06-11_18h55.16.728,LearnStrategy,2023.2.3,Win32,60.24096386,7,2,14,,,,,,,,4,14,,,,,,,,,,,1,2.362,0,,,,,,-0.350925912,-0.241666667,1,0,0,2.3618,Andesite_rect,13,0,13,0,1,
65fb5f438050e2495c957083,TCN,2024-06-11_18h55.16.728,LearnStrategy,2023.2.3,Win32,60.24096386,7,2,15,,,,,,,,5,10,,,,,,,,,,,5,2.082,1,,,,,,-0.372222222,-0.412963019,1,0,0,2.0824,Obsidian_rect,14,0,14,0,1,
65fb5f438050e2495c957083,TCN,2024-06-11_18h55.16.728,LearnStrategy,2023.2.3,Win32,60.24096386,7,2,16,,,,,,,,4,05,,,,,,,,,,,3,2.865,0,,,,,,0.095370399,-0.259259288,1,0,0,2.8651,Diorite_rect,15,0,15,0,1,
65fb5f438050e2495c957083,TCN,2024-06-11_18h55.16.728,LearnStrategy,2023.2.3,Win32,60.24096386,8,1,1,-0.065740712,0,1,0,0,1.795,rock_grid_rect_2,3,16,-1,-1,1.795,-0.388888889,-0.257407464,1,0,0,2.614,Andesite_rect,1,2.614,0,0,0,0,0,1,,,,,,,,,,,,,
65fb5f438050e2495c957083,TCN,2024-06-11_18h55.16.728,LearnStrategy,2023.2.3,Win32,60.24096386,8,1,2,-0.112962935,0.009259245,1,0,0,1.4948,rock_grid_rect_2,1,01,-1,-1,1.495,0.148148176,-0.246296353,1,0,0,1.9934,Diorite_rect,3,1.993,0,1,0,1,0,1,,,,,,,,,,,,,
65fb5f438050e2495c957083,TCN,2024-06-11_18h55.16.728,LearnStrategy,2023.2.3,Win32,60.24096386,8,1,3,-0.132407379,-0.007407422,1,0,0,1.2773,rock_grid_rect_2,6,07,-1,-1,1.277,-0.116666667,-0.412037065,1,0,0,1.9217,Pegmatite_rect,6,1.922,1,2,0,2,0,1,,,,,,,,,,,,,
65fb5f438050e2495c957083,TCN,2024-06-11_18h55.16.728,LearnStrategy,2023.2.3,Win32,60.24096386,8,1,4,-0.151851824,0.002777778,1,0,0,1.2637,rock_grid_rect_2,4,15,-1,-1,1.264,0.060185242,-0.258333333,1,0,0,1.6059,Diorite_rect,3,1.606,0,3,0,3,0,1,,,,,,,,,,,,,
65fb5f438050e2495c957083,TCN,2024-06-11_18h55.16.728,LearnStrategy,2023.2.3,Win32,60.24096386,8,1,5,-0.110185157,-0.014814843,1,0,0,1.6159,rock_grid_rect_2,7,12,-1,-1,1.616,0.090740797,-0.393518575,1,0,0,1.6341,Peridotite_rect,7,1.634,1,4,0,4,0,1,,,,,,,,,,,,,
65fb5f438050e2495c957083,TCN,2024-06-11_18h55.16.728,LearnStrategy,2023.2.3,Win32,60.24096386,8,1,6,-0.058333333,0.016666667,1,0,0,1.48,rock_grid_rect_2,8,04,-1,-1,1.48,0.305555556,-0.391666667,1,0,0,1.4181,Pumice_rect,8,1.418,1,5,0,5,0,1,,,,,,,,,,,,,
65fb5f438050e2495c957083,TCN,2024-06-11_18h55.16.728,LearnStrategy,2023.2.3,Win32,60.24096386,8,1,7,-0.146296268,0.022222222,1,0,0,1.7442,rock_grid_rect_2,6,16,-1,-1,1.744,-0.105555556,-0.393518575,1,0,0,1.5737,Pegmatite_rect,6,1.574,1,6,0,6,0,1,,,,,,,,,,,,,
65fb5f438050e2495c957083,TCN,2024-06-11_18h55.16.728,LearnStrategy,2023.2.3,Win32,60.24096386,8,1,8,-0.166666667,0.00370369,1,0,0,1.08,rock_grid_rect_2,2,01,-1,-1,1.08,-0.095370314,-0.245370399,1,0,0,1.0897,Basalt_rect,2,1.09,1,7,0,7,0,1,,,,,,,,,,,,,
65fb5f438050e2495c957083,TCN,2024-06-11_18h55.16.728,LearnStrategy,2023.2.3,Win32,60.24096386,8,1,9,-0.052777778,0.005555556,1,0,0,1.1113,rock_grid_rect_2,7,14,-1,-1,1.111,0.120370399,-0.407407464,1,0,0,1.698,Peridotite_rect,7,1.698,1,8,0,8,0,1,,,,,,,,,,,,,
65fb5f438050e2495c957083,TCN,2024-06-11_18h55.16.728,LearnStrategy,2023.2.3,Win32,60.24096386,8,1,10,-0.003703647,0.021296268,1,0,0,1.5143,rock_grid_rect_2,1,06,-1,-1,1.514,-0.324074046,-0.236111111,1,0,0,1.7274,Andesite_rect,1,1.727,1,9,0,9,0,1,,,,,,,,,,,,,
65fb5f438050e2495c957083,TCN,2024-06-11_18h55.16.728,LearnStrategy,2023.2.3,Win32,60.24096386,8,1,11,-0.153703647,-0.013888889,1,0,0,1.7941,rock_grid_rect_2,2,16,-1,-1,1.794,0.315740797,-0.255555556,1,0,0,2.1248,Gabbro_rect,4,2.125,0,10,0,10,0,1,,,,,,,,,,,,,
65fb5f438050e2495c957083,TCN,2024-06-11_18h55.16.728,LearnStrategy,2023.2.3,Win32,60.24096386,8,1,12,-0.114814758,-0.005555556,1,0,0,1.1196,rock_grid_rect_2,4,16,-1,-1,1.12,0.362963019,-0.235185242,1,0,0,1.324,Gabbro_rect,4,1.324,1,11,0,11,0,1,,,,,,,,,,,,,
65fb5f438050e2495c957083,TCN,2024-06-11_18h55.16.728,LearnStrategy,2023.2.3,Win32,60.24096386,8,1,13,-0.136111111,-0.019444444,1,0,0,1.2445,rock_grid_rect_2,5,07,-1,-1,1.244,-0.345370356,-0.387963019,1,0,0,2.1449,Obsidian_rect,5,2.145,1,12,0,12,0,1,,,,,,,,,,,,,
65fb5f438050e2495c957083,TCN,2024-06-11_18h55.16.728,LearnStrategy,2023.2.3,Win32,60.24096386,8,1,14,-0.117592536,-0.012037065,1,0,0,1.7807,rock_grid_rect_2,5,14,-1,-1,1.781,-0.395370356,-0.411111111,1,0,0,1.2863,Obsidian_rect,5,1.286,1,13,0,13,0,1,,,,,,,,,,,,,
65fb5f438050e2495c957083,TCN,2024-06-11_18h55.16.728,LearnStrategy,2023.2.3,Win32,60.24096386,8,1,15,-0.115740712,-0.000925954,1,0,0,1.7284,rock_grid_rect_2,8,09,-1,-1,1.728,0.33148151,-0.387037065,1,0,0,2.1656,Pumice_rect,8,2.166,1,14,0,14,0,1,,,,,,,,,,,,,
65fb5f438050e2495c957083,TCN,2024-06-11_18h55.16.728,LearnStrategy,2023.2.3,Win32,60.24096386,8,1,16,-0.083333333,0.014814801,1,0,0,1.0314,rock_grid_rect_2,3,02,-1,-1,1.031,-0.351851824,-0.257407464,1,0,0,2.2805,Andesite_rect,1,2.28,0,15,0,15,0,1,,,,,,,,,,,,,
65fb5f438050e2495c957083,TCN,2024-06-11_18h55.16.728,LearnStrategy,2023.2.3,Win32,60.24096386,8,2,1,,,,,,,,7,15,,,,,,,,,,,7,1.721,1,,,,,,0.05,-0.404629686,1,0,0,1.7208,Peridotite_rect,0,0,0,0,1,
65fb5f438050e2495c957083,TCN,2024-06-11_18h55.16.728,LearnStrategy,2023.2.3,Win32,60.24096386,8,2,2,,,,,,,,2,14,,,,,,,,,,,2,1.411,1,,,,,,-0.17870369,-0.253703732,1,0,0,1.4114,Basalt_rect,1,0,1,0,1,
65fb5f438050e2495c957083,TCN,2024-06-11_18h55.16.728,LearnStrategy,2023.2.3,Win32,60.24096386,8,2,3,,,,,,,,3,12,,,,,,,,,,,4,4.183,0,,,,,,0.340740797,-0.252777778,1,0,0,4.1826,Gabbro_rect,2,0,2,0,1,
65fb5f438050e2495c957083,TCN,2024-06-11_18h55.16.728,LearnStrategy,2023.2.3,Win32,60.24096386,8,2,4,,,,,,,,8,03,,,,,,,,,,,8,1.173,1,,,,,,0.342592621,-0.404629686,1,0,0,1.1725,Pumice_rect,3,0,3,0,1,
65fb5f438050e2495c957083,TCN,2024-06-11_18h55.16.728,LearnStrategy,2023.2.3,Win32,60.24096386,8,2,5,,,,,,,,7,04,,,,,,,,,,,6,3.099,0,,,,,,-0.104629601,-0.416666667,1,0,0,3.0988,Pegmatite_rect,4,0,4,0,1,
65fb5f438050e2495c957083,TCN,2024-06-11_18h55.16.728,LearnStrategy,2023.2.3,Win32,60.24096386,8,2,6,,,,,,,,6,08,,,,,,,,,,,6,1.229,1,,,,,,-0.106481425,-0.415740797,1,0,0,1.229,Pegmatite_rect,5,0,5,0,1,
65fb5f438050e2495c957083,TCN,2024-06-11_18h55.16.728,LearnStrategy,2023.2.3,Win32,60.24096386,8,2,7,,,,,,,,2,08,,,,,,,,,,,2,1.411,1,,,,,,-0.16851849,-0.265740797,1,0,0,1.4113,Basalt_rect,6,0,6,0,1,
65fb5f438050e2495c957083,TCN,2024-06-11_18h55.16.728,LearnStrategy,2023.2.3,Win32,60.24096386,8,2,8,,,,,,,,8,05,,,,,,,,,,,8,1.626,1,,,,,,0.350925954,-0.412037065,1,0,0,1.6258,Pumice_rect,7,0,7,0,1,
65fb5f438050e2495c957083,TCN,2024-06-11_18h55.16.728,LearnStrategy,2023.2.3,Win32,60.24096386,8,2,9,,,,,,,,1,05,,,,,,,,,,,4,2.409,0,,,,,,0.333333333,-0.233333333,1,0,0,2.4093,Gabbro_rect,8,0,8,0,1,
65fb5f438050e2495c957083,TCN,2024-06-11_18h55.16.728,LearnStrategy,2023.2.3,Win32,60.24096386,8,2,10,,,,,,,,5,02,,,,,,,,,,,5,1.508,1,,,,,,-0.380555556,-0.396296353,1,0,0,1.5079,Obsidian_rect,9,0,9,0,1,
65fb5f438050e2495c957083,TCN,2024-06-11_18h55.16.728,LearnStrategy,2023.2.3,Win32,60.24096386,8,2,11,,,,,,,,3,15,,,,,,,,,,,1,1.669,0,,,,,,-0.425,-0.262037065,1,0,0,1.6695,Andesite_rect,10,0,10,0,1,
65fb5f438050e2495c957083,TCN,2024-06-11_18h55.16.728,LearnStrategy,2023.2.3,Win32,60.24096386,8,2,12,,,,,,,,4,10,,,,,,,,,,,3,1.595,0,,,,,,0.094444444,-0.252777778,1,0,0,1.5952,Diorite_rect,11,0,11,0,1,
65fb5f438050e2495c957083,TCN,2024-06-11_18h55.16.728,LearnStrategy,2023.2.3,Win32,60.24096386,8,2,13,,,,,,,,5,06,,,,,,,,,,,5,2.837,1,,,,,,-0.420370356,-0.402777778,1,0,0,2.8369,Obsidian_rect,12,0,12,0,1,
65fb5f438050e2495c957083,TCN,2024-06-11_18h55.16.728,LearnStrategy,2023.2.3,Win32,60.24096386,8,2,14,,,,,,,,4,03,,,,,,,,,,,3,2.098,0,,,,,,0.096296353,-0.268518575,1,0,0,2.0976,Diorite_rect,13,0,13,0,1,
65fb5f438050e2495c957083,TCN,2024-06-11_18h55.16.728,LearnStrategy,2023.2.3,Win32,60.24096386,8,2,15,,,,,,,,1,11,,,,,,,,,,,2,1.884,0,,,,,,-0.106481425,-0.233333333,1,0,0,1.8837,Basalt_rect,14,0,14,0,1,
65fb5f438050e2495c957083,TCN,2024-06-11_18h55.16.728,LearnStrategy,2023.2.3,Win32,60.24096386,8,2,16,,,,,,,,6,12,,,,,,,,,,,6,2.45,1,,,,,,-0.087036981,-0.393518575,1,0,0,2.4499,Pegmatite_rect,15,0,15,0,1,
65fb5f438050e2495c957083,TCN,2024-06-11_18h55.16.728,LearnStrategy,2023.2.3,Win32,60.24096386,9,1,1,-0.131481425,-0.013888889,1,0,0,1.6626,rock_grid_rect_2,3,08,-1,-1,1.663,0.095370399,-0.268518575,1,0,0,2.6068,Diorite_rect,3,2.607,1,0,0,0,0,1,,,,,,,,,,,,,
65fb5f438050e2495c957083,TCN,2024-06-11_18h55.16.728,LearnStrategy,2023.2.3,Win32,60.24096386,9,1,2,-0.133333333,0.00370369,1,0,0,1.2288,rock_grid_rect_2,7,07,-1,-1,1.229,0.363888889,-0.238888889,1,0,0,1.2797,Gabbro_rect,4,1.28,0,1,0,1,0,1,,,,,,,,,,,,,
65fb5f438050e2495c957083,TCN,2024-06-11_18h55.16.728,LearnStrategy,2023.2.3,Win32,60.24096386,9,1,3,-0.120370314,-0.019444444,1,0,0,1.1621,rock_grid_rect_2,4,11,-1,-1,1.162,-0.167592536,-0.237037065,1,0,0,1.5226,Basalt_rect,2,1.523,0,2,0,2,0,1,,,,,,,,,,,,,
65fb5f438050e2495c957083,TCN,2024-06-11_18h55.16.728,LearnStrategy,2023.2.3,Win32,60.24096386,9,1,4,-0.091666667,-0.023148176,1,0,0,1.4627,rock_grid_rect_2,1,04,-1,-1,1.463,-0.376851824,-0.259259288,1,0,0,1.8045,Andesite_rect,1,1.805,1,3,0,3,0,1,,,,,,,,,,,,,
65fb5f438050e2495c957083,TCN,2024-06-11_18h55.16.728,LearnStrategy,2023.2.3,Win32,60.24096386,9,1,5,-0.137036981,0.011111111,1,0,0,0.9303,rock_grid_rect_2,2,10,-1,-1,0.93,-0.363888889,-0.410185242,1,0,0,1.8638,Obsidian_rect,5,1.864,0,4,0,4,0,1,,,,,,,,,,,,,
65fb5f438050e2495c957083,TCN,2024-06-11_18h55.16.728,LearnStrategy,2023.2.3,Win32,60.24096386,9,1,6,-0.025,0.022222222,1,0,0,0.8448,rock_grid_rect_2,6,09,-1,-1,0.845,-0.132407379,-0.391666667,1,0,0,2.1865,Pegmatite_rect,6,2.186,1,5,0,5,0,1,,,,,,,,,,,,,
65fb5f438050e2495c957083,TCN,2024-06-11_18h55.16.728,LearnStrategy,2023.2.3,Win32,60.24096386,9,1,7,-0.060185157,-0.005555556,1,0,0,1.1789,rock_grid_rect_2,6,05,-1,-1,1.179,-0.101851824,-0.396296353,1,0,0,1.2238,Pegmatite_rect,6,1.224,1,6,0,6,0,1,,,,,,,,,,,,,
65fb5f438050e2495c957083,TCN,2024-06-11_18h55.16.728,LearnStrategy,2023.2.3,Win32,60.24096386,9,1,8,0.026851908,-0.002777778,1,0,0,1.1317,rock_grid_rect_2,7,10,-1,-1,1.132,0.091666667,-0.416666667,1,0,0,1.3468,Peridotite_rect,7,1.347,1,7,0,7,0,1,,,,,,,,,,,,,
65fb5f438050e2495c957083,TCN,2024-06-11_18h55.16.728,LearnStrategy,2023.2.3,Win32,60.24096386,9,1,9,-0.096296268,0.005555556,1,0,0,1.1929,rock_grid_rect_2,8,02,-1,-1,1.193,0.307407464,-0.393518575,1,0,0,1.5164,Pumice_rect,8,1.516,1,8,0,8,0,1,,,,,,,,,,,,,
65fb5f438050e2495c957083,TCN,2024-06-11_18h55.16.728,LearnStrategy,2023.2.3,Win32,60.24096386,9,1,10,-0.050925869,0.010185157,1,0,0,1.2284,rock_grid_rect_2,2,09,-1,-1,1.228,-0.150925869,-0.244444444,1,0,0,1.1483,Basalt_rect,2,1.148,1,9,0,9,0,1,,,,,,,,,,,,,
65fb5f438050e2495c957083,TCN,2024-06-11_18h55.16.728,LearnStrategy,2023.2.3,Win32,60.24096386,9,1,11,-0.089814758,0.014814801,1,0,0,1.2794,rock_grid_rect_2,5,11,-1,-1,1.279,-0.326851824,-0.386111111,1,0,0,1.2773,Obsidian_rect,5,1.277,1,10,0,10,0,1,,,,,,,,,,,,,
65fb5f438050e2495c957083,TCN,2024-06-11_18h55.16.728,LearnStrategy,2023.2.3,Win32,60.24096386,9,1,12,-0.181481467,0.002777778,1,0,0,1.277,rock_grid_rect_2,1,07,-1,-1,1.277,-0.327777778,-0.249074131,1,0,0,2.8794,Andesite_rect,1,2.879,1,11,0,11,0,1,,,,,,,,,,,,,
65fb5f438050e2495c957083,TCN,2024-06-11_18h55.16.728,LearnStrategy,2023.2.3,Win32,60.24096386,9,1,13,-0.111111111,0.017592578,1,0,0,1.3274,rock_grid_rect_2,3,11,-1,-1,1.327,0.104629686,-0.25648151,1,0,0,2.9087,Diorite_rect,3,2.909,1,12,0,12,0,1,,,,,,,,,,,,,
65fb5f438050e2495c957083,TCN,2024-06-11_18h55.16.728,LearnStrategy,2023.2.3,Win32,60.24096386,9,1,14,-0.037962935,-0.015740755,1,0,0,1.1276,rock_grid_rect_2,8,15,-1,-1,1.128,0.369444444,-0.403703732,1,0,0,1.5932,Pumice_rect,8,1.593,1,13,0,13,0,1,,,,,,,,,,,,,
65fb5f438050e2495c957083,TCN,2024-06-11_18h55.16.728,LearnStrategy,2023.2.3,Win32,60.24096386,9,1,15,-0.069444444,-0.022222222,1,0,0,1.2772,rock_grid_rect_2,5,12,-1,-1,1.277,-0.341666667,-0.391666667,1,0,0,2.5224,Obsidian_rect,5,2.522,1,14,0,14,0,1,,,,,,,,,,,,,
65fb5f438050e2495c957083,TCN,2024-06-11_18h55.16.728,LearnStrategy,2023.2.3,Win32,60.24096386,9,1,16,-0.131481425,-0.009259288,1,0,0,1.6605,rock_grid_rect_2,4,12,-1,-1,1.66,0.116666667,-0.247222222,1,0,0,2.7899,Diorite_rect,3,2.79,0,15,0,15,0,1,,,,,,,,,,,,,
65fb5f438050e2495c957083,TCN,2024-06-11_18h55.16.728,LearnStrategy,2023.2.3,Win32,60.24096386,9,2,1,,,,,,,,6,10,,,,,,,,,,,6,1.461,1,,,,,,-0.155555556,-0.403703732,1,0,0,1.4606,Pegmatite_rect,0,0,0,0,1,
65fb5f438050e2495c957083,TCN,2024-06-11_18h55.16.728,LearnStrategy,2023.2.3,Win32,60.24096386,9,2,2,,,,,,,,2,05,,,,,,,,,,,2,2.051,1,,,,,,-0.169444444,-0.239814843,1,0,0,2.0512,Basalt_rect,1,0,1,0,1,
65fb5f438050e2495c957083,TCN,2024-06-11_18h55.16.728,LearnStrategy,2023.2.3,Win32,60.24096386,9,2,3,,,,,,,,8,16,,,,,,,,,,,8,1.624,1,,,,,,0.390740797,-0.390740797,1,0,0,1.6236,Pumice_rect,2,0,2,0,1,
65fb5f438050e2495c957083,TCN,2024-06-11_18h55.16.728,LearnStrategy,2023.2.3,Win32,60.24096386,9,2,4,,,,,,,,6,11,,,,,,,,,,,6,1.981,1,,,,,,-0.141666667,-0.412037065,1,0,0,1.9814,Pegmatite_rect,3,0,3,0,1,
65fb5f438050e2495c957083,TCN,2024-06-11_18h55.16.728,LearnStrategy,2023.2.3,Win32,60.24096386,9,2,5,,,,,,,,4,09,,,,,,,,,,,4,4.262,1,,,,,,0.341666667,-0.244444444,1,0,0,4.2623,Gabbro_rect,4,0,4,0,1,
65fb5f438050e2495c957083,TCN,2024-06-11_18h55.16.728,LearnStrategy,2023.2.3,Win32,60.24096386,9,2,6,,,,,,,,5,04,,,,,,,,,,,5,3.024,1,,,,,,-0.387962935,-0.384259288,1,0,0,3.0239,Obsidian_rect,5,0,5,0,1,
65fb5f438050e2495c957083,TCN,2024-06-11_18h55.16.728,LearnStrategy,2023.2.3,Win32,60.24096386,9,2,7,,,,,,,,7,06,,,,,,,,,,,7,2.215,1,,,,,,0.101851908,-0.413888889,1,0,0,2.2151,Peridotite_rect,6,0,6,0,1,
65fb5f438050e2495c957083,TCN,2024-06-11_18h55.16.728,LearnStrategy,2023.2.3,Win32,60.24096386,9,2,8,,,,,,,,3,07,,,,,,,,,,,3,3.595,1,,,,,,0.111111111,-0.264814843,1,0,0,3.5954,Diorite_rect,7,0,7,0,1,
65fb5f438050e2495c957083,TCN,2024-06-11_18h55.16.728,LearnStrategy,2023.2.3,Win32,60.24096386,9,2,9,,,,,,,,2,11,,,,,,,,,,,4,5.262,0,,,,,,0.380555556,-0.25648151,1,0,0,5.2625,Gabbro_rect,8,0,8,0,1,
65fb5f438050e2495c957083,TCN,2024-06-11_18h55.16.728,LearnStrategy,2023.2.3,Win32,60.24096386,9,2,10,,,,,,,,3,10,,,,,,,,,,,1,3.411,0,,,,,,-0.364814801,-0.270370399,1,0,0,3.4106,Andesite_rect,9,0,9,0,1,
65fb5f438050e2495c957083,TCN,2024-06-11_18h55.16.728,LearnStrategy,2023.2.3,Win32,60.24096386,9,2,11,,,,,,,,1,03,,,,,,,,,,,2,2.055,0,,,,,,-0.138888889,-0.239814843,1,0,0,2.0552,Basalt_rect,10,0,10,0,1,
65fb5f438050e2495c957083,TCN,2024-06-11_18h55.16.728,LearnStrategy,2023.2.3,Win32,60.24096386,9,2,12,,,,,,,,1,09,,,,,,,,,,,3,3.344,0,,,,,,0.136111111,-0.262037065,1,0,0,3.3441,Diorite_rect,11,0,11,0,1,
65fb5f438050e2495c957083,TCN,2024-06-11_18h55.16.728,LearnStrategy,2023.2.3,Win32,60.24096386,9,2,13,,,,,,,,5,16,,,,,,,,,,,5,1.415,1,,,,,,-0.345370356,-0.420370399,1,0,0,1.415,Obsidian_rect,12,0,12,0,1,
65fb5f438050e2495c957083,TCN,2024-06-11_18h55.16.728,LearnStrategy,2023.2.3,Win32,60.24096386,9,2,14,,,,,,,,4,08,,,,,,,,,,,4,5.437,1,,,,,,0.348148176,-0.241666667,1,0,0,5.4368,Gabbro_rect,13,0,13,0,1,
65fb5f438050e2495c957083,TCN,2024-06-11_18h55.16.728,LearnStrategy,2023.2.3,Win32,60.24096386,9,2,15,,,,,,,,8,13,,,,,,,,,,,8,1.167,1,,,,,,0.395370399,-0.380555556,1,0,0,1.1674,Pumice_rect,14,0,14,0,1,
65fb5f438050e2495c957083,TCN,2024-06-11_18h55.16.728,LearnStrategy,2023.2.3,Win32,60.24096386,9,2,16,,,,,,,,7,16,,,,,,,,,,,7,2.247,1,,,,,,0.065740797,-0.4,1,0,0,2.2474,Peridotite_rect,15,0,15,0,1,
65fb5f438050e2495c957083,TCN,2024-06-11_18h55.16.728,LearnStrategy,2023.2.3,Win32,60.24096386,,,,,,,,,,,,,,,,,,,,,,,,,,,,,,,,,,,,,,,,,,,1
65fb5f438050e2495c957083,TCN,2024-06-11_18h55.16.728,LearnStrategy,2023.2.3,Win32,60.24096386,,,,,,,,,,,,,,,,,,,,,,,,,,,,,,,,,,,,,,,,,,,
65fb5f438050e2495c957083,TCN,2024-06-11_18h55.16.728,LearnStrategy,2023.2.3,Win32,60.24096386,,,,,,,,,,,4,13,1,1,,,,,,,,,,,,,,,,,,,,,,,,,,,,,
65fb5f438050e2495c957083,TCN,2024-06-11_18h55.16.728,LearnStrategy,2023.2.3,Win32,60.24096386,,,,,,,,,,,1,07,1,2,,,,,,,,,,,,,,,,,,,,,,,,,,,,,
65fb5f438050e2495c957083,TCN,2024-06-11_18h55.16.728,LearnStrategy,2023.2.3,Win32,60.24096386,,,,,,,,,,,7,08,1,3,,,,,,,,,,,,,,,,,,,,,,,,,,,,,
65fb5f438050e2495c957083,TCN,2024-06-11_18h55.16.728,LearnStrategy,2023.2.3,Win32,60.24096386,,,,,,,,,,,5,09,1,4,,,,,,,,,,,,,,,,,,,,,,,,,,,,,
65fb5f438050e2495c957083,TCN,2024-06-11_18h55.16.728,LearnStrategy,2023.2.3,Win32,60.24096386,,,,,,,,,,,7,12,1,5,,,,,,,,,,,,,,,,,,,,,,,,,,,,,
65fb5f438050e2495c957083,TCN,2024-06-11_18h55.16.728,LearnStrategy,2023.2.3,Win32,60.24096386,,,,,,,,,,,2,04,1,6,,,,,,,,,,,,,,,,,,,,,,,,,,,,,
65fb5f438050e2495c957083,TCN,2024-06-11_18h55.16.728,LearnStrategy,2023.2.3,Win32,60.24096386,,,,,,,,,,,5,14,1,7,,,,,,,,,,,,,,,,,,,,,,,,,,,,,
65fb5f438050e2495c957083,TCN,2024-06-11_18h55.16.728,LearnStrategy,2023.2.3,Win32,60.24096386,,,,,,,,,,,5,12,1,8,,,,,,,,,,,,,,,,,,,,,,,,,,,,,
65fb5f438050e2495c957083,TCN,2024-06-11_18h55.16.728,LearnStrategy,2023.2.3,Win32,60.24096386,,,,,,,,,,,3,11,2,1,,,,,,,,,,,,,,,,,,,,,,,,,,,,,
65fb5f438050e2495c957083,TCN,2024-06-11_18h55.16.728,LearnStrategy,2023.2.3,Win32,60.24096386,,,,,,,,,,,2,09,2,2,,,,,,,,,,,,,,,,,,,,,,,,,,,,,
65fb5f438050e2495c957083,TCN,2024-06-11_18h55.16.728,LearnStrategy,2023.2.3,Win32,60.24096386,,,,,,,,,,,4,16,2,3,,,,,,,,,,,,,,,,,,,,,,,,,,,,,
65fb5f438050e2495c957083,TCN,2024-06-11_18h55.16.728,LearnStrategy,2023.2.3,Win32,60.24096386,,,,,,,,,,,2,16,2,4,,,,,,,,,,,,,,,,,,,,,,,,,,,,,
65fb5f438050e2495c957083,TCN,2024-06-11_18h55.16.728,LearnStrategy,2023.2.3,Win32,60.24096386,,,,,,,,,,,5,07,2,5,,,,,,,,,,,,,,,,,,,,,,,,,,,,,
65fb5f438050e2495c957083,TCN,2024-06-11_18h55.16.728,LearnStrategy,2023.2.3,Win32,60.24096386,,,,,,,,,,,1,14,2,6,,,,,,,,,,,,,,,,,,,,,,,,,,,,,
65fb5f438050e2495c957083,TCN,2024-06-11_18h55.16.728,LearnStrategy,2023.2.3,Win32,60.24096386,,,,,,,,,,,3,08,2,7,,,,,,,,,,,,,,,,,,,,,,,,,,,,,
65fb5f438050e2495c957083,TCN,2024-06-11_18h55.16.728,LearnStrategy,2023.2.3,Win32,60.24096386,,,,,,,,,,,2,02,2,8,,,,,,,,,,,,,,,,,,,,,,,,,,,,,
65fb5f438050e2495c957083,TCN,2024-06-11_18h55.16.728,LearnStrategy,2023.2.3,Win32,60.24096386,,,,,,,,,,,8,04,3,1,,,,,,,,,,,,,,,,,,,,,,,,,,,,,
65fb5f438050e2495c957083,TCN,2024-06-11_18h55.16.728,LearnStrategy,2023.2.3,Win32,60.24096386,,,,,,,,,,,7,10,3,2,,,,,,,,,,,,,,,,,,,,,,,,,,,,,
65fb5f438050e2495c957083,TCN,2024-06-11_18h55.16.728,LearnStrategy,2023.2.3,Win32,60.24096386,,,,,,,,,,,3,16,3,3,,,,,,,,,,,,,,,,,,,,,,,,,,,,,
65fb5f438050e2495c957083,TCN,2024-06-11_18h55.16.728,LearnStrategy,2023.2.3,Win32,60.24096386,,,,,,,,,,,6,07,3,4,,,,,,,,,,,,,,,,,,,,,,,,,,,,,
65fb5f438050e2495c957083,TCN,2024-06-11_18h55.16.728,LearnStrategy,2023.2.3,Win32,60.24096386,,,,,,,,,,,7,14,3,5,,,,,,,,,,,,,,,,,,,,,,,,,,,,,
65fb5f438050e2495c957083,TCN,2024-06-11_18h55.16.728,LearnStrategy,2023.2.3,Win32,60.24096386,,,,,,,,,,,7,05,3,6,,,,,,,,,,,,,,,,,,,,,,,,,,,,,
65fb5f438050e2495c957083,TCN,2024-06-11_18h55.16.728,LearnStrategy,2023.2.3,Win32,60.24096386,,,,,,,,,,,1,01,3,7,,,,,,,,,,,,,,,,,,,,,,,,,,,,,
65fb5f438050e2495c957083,TCN,2024-06-11_18h55.16.728,LearnStrategy,2023.2.3,Win32,60.24096386,,,,,,,,,,,6,09,3,8,,,,,,,,,,,,,,,,,,,,,,,,,,,,,
65fb5f438050e2495c957083,TCN,2024-06-11_18h55.16.728,LearnStrategy,2023.2.3,Win32,60.24096386,,,,,,,,,,,1,06,4,1,,,,,,,,,,,,,,,,,,,,,,,,,,,,,
65fb5f438050e2495c957083,TCN,2024-06-11_18h55.16.728,LearnStrategy,2023.2.3,Win32,60.24096386,,,,,,,,,,,6,05,4,2,,,,,,,,,,,,,,,,,,,,,,,,,,,,,
65fb5f438050e2495c957083,TCN,2024-06-11_18h55.16.728,LearnStrategy,2023.2.3,Win32,60.24096386,,,,,,,,,,,4,12,4,3,,,,,,,,,,,,,,,,,,,,,,,,,,,,,
65fb5f438050e2495c957083,TCN,2024-06-11_18h55.16.728,LearnStrategy,2023.2.3,Win32,60.24096386,,,,,,,,,,,4,01,4,4,,,,,,,,,,,,,,,,,,,,,,,,,,,,,
65fb5f438050e2495c957083,TCN,2024-06-11_18h55.16.728,LearnStrategy,2023.2.3,Win32,60.24096386,,,,,,,,,,,1,04,4,5,,,,,,,,,,,,,,,,,,,,,,,,,,,,,
65fb5f438050e2495c957083,TCN,2024-06-11_18h55.16.728,LearnStrategy,2023.2.3,Win32,60.24096386,,,,,,,,,,,4,11,4,6,,,,,,,,,,,,,,,,,,,,,,,,,,,,,
65fb5f438050e2495c957083,TCN,2024-06-11_18h55.16.728,LearnStrategy,2023.2.3,Win32,60.24096386,,,,,,,,,,,3,02,4,7,,,,,,,,,,,,,,,,,,,,,,,,,,,,,
65fb5f438050e2495c957083,TCN,2024-06-11_18h55.16.728,LearnStrategy,2023.2.3,Win32,60.24096386,,,,,,,,,,,2,01,4,8,,,,,,,,,,,,,,,,,,,,,,,,,,,,,
65fb5f438050e2495c957083,TCN,2024-06-11_18h55.16.728,LearnStrategy,2023.2.3,Win32,60.24096386,,,,,,,,,,,6,03,5,1,,,,,,,,,,,,,,,,,,,,,,,,,,,,,
65fb5f438050e2495c957083,TCN,2024-06-11_18h55.16.728,LearnStrategy,2023.2.3,Win32,60.24096386,,,,,,,,,,,5,11,5,2,,,,,,,,,,,,,,,,,,,,,,,,,,,,,
65fb5f438050e2495c957083,TCN,2024-06-11_18h55.16.728,LearnStrategy,2023.2.3,Win32,60.24096386,,,,,,,,,,,8,06,5,3,,,,,,,,,,,,,,,,,,,,,,,,,,,,,
65fb5f438050e2495c957083,TCN,2024-06-11_18h55.16.728,LearnStrategy,2023.2.3,Win32,60.24096386,,,,,,,,,,,8,09,5,4,,,,,,,,,,,,,,,,,,,,,,,,,,,,,
65fb5f438050e2495c957083,TCN,2024-06-11_18h55.16.728,LearnStrategy,2023.2.3,Win32,60.24096386,,,,,,,,,,,8,02,5,5,,,,,,,,,,,,,,,,,,,,,,,,,,,,,
65fb5f438050e2495c957083,TCN,2024-06-11_18h55.16.728,LearnStrategy,2023.2.3,Win32,60.24096386,,,,,,,,,,,5,08,5,6,,,,,,,,,,,,,,,,,,,,,,,,,,,,,
65fb5f438050e2495c957083,TCN,2024-06-11_18h55.16.728,LearnStrategy,2023.2.3,Win32,60.24096386,,,,,,,,,,,3,06,5,7,,,,,,,,,,,,,,,,,,,,,,,,,,,,,
65fb5f438050e2495c957083,TCN,2024-06-11_18h55.16.728,LearnStrategy,2023.2.3,Win32,60.24096386,,,,,,,,,,,4,15,5,8,,,,,,,,,,,,,,,,,,,,,,,,,,,,,
65fb5f438050e2495c957083,TCN,2024-06-11_18h55.16.728,LearnStrategy,2023.2.3,Win32,60.24096386,,,,,,,,,,,7,07,6,1,,,,,,,,,,,,,,,,,,,,,,,,,,,,,
65fb5f438050e2495c957083,TCN,2024-06-11_18h55.16.728,LearnStrategy,2023.2.3,Win32,60.24096386,,,,,,,,,,,8,15,6,2,,,,,,,,,,,,,,,,,,,,,,,,,,,,,
65fb5f438050e2495c957083,TCN,2024-06-11_18h55.16.728,LearnStrategy,2023.2.3,Win32,60.24096386,,,,,,,,,,,2,10,6,3,,,,,,,,,,,,,,,,,,,,,,,,,,,,,
65fb5f438050e2495c957083,TCN,2024-06-11_18h55.16.728,LearnStrategy,2023.2.3,Win32,60.24096386,,,,,,,,,,,6,16,6,4,,,,,,,,,,,,,,,,,,,,,,,,,,,,,
65fb5f438050e2495c957083,TCN,2024-06-11_18h55.16.728,LearnStrategy,2023.2.3,Win32,60.24096386,,,,,,,,,,,6,15,6,5,,,,,,,,,,,,,,,,,,,,,,,,,,,,,
65fb5f438050e2495c957083,TCN,2024-06-11_18h55.16.728,LearnStrategy,2023.2.3,Win32,60.24096386,,,,,,,,,,,8,10,6,6,,,,,,,,,,,,,,,,,,,,,,,,,,,,,
65fb5f438050e2495c957083,TCN,2024-06-11_18h55.16.728,LearnStrategy,2023.2.3,Win32,60.24096386,,,,,,,,,,,1,16,6,7,,,,,,,,,,,,,,,,,,,,,,,,,,,,,
65fb5f438050e2495c957083,TCN,2024-06-11_18h55.16.728,LearnStrategy,2023.2.3,Win32,60.24096386,,,,,,,,,,,3,14,6,8,,,,,,,,,,,,,,,,,,,,,,,,,,,,,