participant,condition,date,expName,psychopyVersion,OS,frameRate,block,phase,trial,learn_mouse_2.x,learn_mouse_2.y,learn_mouse_2.leftButton,learn_mouse_2.midButton,learn_mouse_2.rightButton,learn_mouse_2.time,learn_mouse_2.clicked_name,cat,token,row,col,t_select,cat_mouse_l.x,cat_mouse_l.y,cat_mouse_l.leftButton,cat_mouse_l.midButton,cat_mouse_l.rightButton,cat_mouse_l.time,cat_mouse_l.clicked_name,resp,t_resp,corr,train_trials.thisRepN,train_trials.thisTrialN,train_trials.thisN,train_trials.thisIndex,train_trials.ran,cat_mouse_t.x,cat_mouse_t.y,cat_mouse_t.leftButton,cat_mouse_t.midButton,cat_mouse_t.rightButton,cat_mouse_t.time,cat_mouse_t.clicked_name,test_trials.thisRepN,test_trials.thisTrialN,test_trials.thisN,test_trials.thisIndex,test_trials.ran,Bonus
65fcdef120c3e7513256ac68,TCN,2024-06-24_16h32.32.272,LearnStrategy,2023.2.3,Win32,60.60606061,,,,,,,,,,,,,,,,,,,,,,,,,,,,,,,,,,,,,,,,,,,
65fcdef120c3e7513256ac68,TCN,2024-06-24_16h32.32.272,LearnStrategy,2023.2.3,Win32,60.60606061,1,1,1,-0.006666629,-0.002916686,1,0,0,2.0358,rock_grid_rect_2,3,16,-1,-1,2.036,0.133750025,-0.401666705,1,0,0,6.8054,Peridotite_rect,7,6.805,0,0,0,0,0,1,,,,,,,,,,,,,
65fcdef120c3e7513256ac68,TCN,2024-06-24_16h32.32.272,LearnStrategy,2023.2.3,Win32,60.60606061,1,1,2,0.100416692,-0.000833352,1,0,0,1.3549,rock_grid_rect_2,2,09,-1,-1,1.355,0.386666743,-0.387916692,1,0,0,4.0682,Pumice_rect,8,4.068,0,1,0,1,0,1,,,,,,,,,,,,,
65fcdef120c3e7513256ac68,TCN,2024-06-24_16h32.32.272,LearnStrategy,2023.2.3,Win32,60.60606061,1,1,3,0.054999987,-0.002916686,1,0,0,1.1469,rock_grid_rect_2,5,02,-1,-1,1.147,-0.330416648,-0.410833359,1,0,0,1.8494,Obsidian_rect,5,1.849,1,2,0,2,0,1,,,,,,,,,,,,,
65fcdef120c3e7513256ac68,TCN,2024-06-24_16h32.32.272,LearnStrategy,2023.2.3,Win32,60.60606061,1,1,4,0.059583346,-0.004166667,1,0,0,0.9785,rock_grid_rect_2,4,12,-1,-1,0.978,-0.097499975,-0.392083359,1,0,0,4.8805,Pegmatite_rect,6,4.881,0,3,0,3,0,1,,,,,,,,,,,,,
65fcdef120c3e7513256ac68,TCN,2024-06-24_16h32.32.272,LearnStrategy,2023.2.3,Win32,60.60606061,1,1,5,0.078333346,0.002499994,1,0,0,1.0944,rock_grid_rect_2,6,13,-1,-1,1.094,-0.39958334,-0.252916654,1,0,0,4.9051,Andesite_rect,1,4.905,0,4,0,4,0,1,,,,,,,,,,,,,
65fcdef120c3e7513256ac68,TCN,2024-06-24_16h32.32.272,LearnStrategy,2023.2.3,Win32,60.60606061,1,1,6,0.099166679,-0.002499994,1,0,0,1.1306,rock_grid_rect_2,8,14,-1,-1,1.131,0.421250025,-0.392083359,1,0,0,5.1423,Pumice_rect,8,5.142,1,5,0,5,0,1,,,,,,,,,,,,,
65fcdef120c3e7513256ac68,TCN,2024-06-24_16h32.32.272,LearnStrategy,2023.2.3,Win32,60.60606061,1,1,7,-0.061249987,0.005416648,1,0,0,1.1984,rock_grid_rect_2,5,04,-1,-1,1.198,-0.440416654,-0.407916705,1,0,0,1.4896,Obsidian_rect,5,1.49,1,6,0,6,0,1,,,,,,,,,,,,,
65fcdef120c3e7513256ac68,TCN,2024-06-24_16h32.32.272,LearnStrategy,2023.2.3,Win32,60.60606061,1,1,8,0.039166705,-0.001250013,1,0,0,1.2746,rock_grid_rect_2,1,05,-1,-1,1.275,-0.358749994,-0.259583346,1,0,0,3.0495,Andesite_rect,1,3.049,1,7,0,7,0,1,,,,,,,,,,,,,
65fcdef120c3e7513256ac68,TCN,2024-06-24_16h32.32.272,LearnStrategy,2023.2.3,Win32,60.60606061,1,1,9,0.085416667,0.004166667,1,0,0,1.2553,rock_grid_rect_2,1,11,-1,-1,1.255,0.132500013,-0.408333333,1,0,0,2.9644,Peridotite_rect,7,2.964,0,8,0,8,0,1,,,,,,,,,,,,,
65fcdef120c3e7513256ac68,TCN,2024-06-24_16h32.32.272,LearnStrategy,2023.2.3,Win32,60.60606061,1,1,10,-0.006666629,-0.00625,1,0,0,1.4252,rock_grid_rect_2,4,05,-1,-1,1.425,0.119166692,-0.240000025,1,0,0,2.9041,Diorite_rect,3,2.904,0,9,0,9,0,1,,,,,,,,,,,,,
65fcdef120c3e7513256ac68,TCN,2024-06-24_16h32.32.272,LearnStrategy,2023.2.3,Win32,60.60606061,1,1,11,0.08125,-0.001666673,1,0,0,1.2682,rock_grid_rect_2,6,15,-1,-1,1.268,0.140000025,-0.382916705,1,0,0,4.1221,Peridotite_rect,7,4.122,0,10,0,10,0,1,,,,,,,,,,,,,
65fcdef120c3e7513256ac68,TCN,2024-06-24_16h32.32.272,LearnStrategy,2023.2.3,Win32,60.60606061,1,1,12,0.041666667,-0.007500013,1,0,0,1.2152,rock_grid_rect_2,2,11,-1,-1,1.215,0.385833359,-0.242083359,1,0,0,3.4036,Gabbro_rect,4,3.404,0,11,0,11,0,1,,,,,,,,,,,,,
65fcdef120c3e7513256ac68,TCN,2024-06-24_16h32.32.272,LearnStrategy,2023.2.3,Win32,60.60606061,1,1,13,0.003750038,-0.010416667,1,0,0,1.1937,rock_grid_rect_2,7,16,-1,-1,1.194,-0.071249962,-0.394583321,1,0,0,2.9395,Pegmatite_rect,6,2.94,0,12,0,12,0,1,,,,,,,,,,,,,
65fcdef120c3e7513256ac68,TCN,2024-06-24_16h32.32.272,LearnStrategy,2023.2.3,Win32,60.60606061,1,1,14,0.091666667,0.008333333,1,0,0,1.1086,rock_grid_rect_2,3,07,-1,-1,1.109,0.074583371,-0.255416679,1,0,0,5.696,Diorite_rect,3,5.696,1,13,0,13,0,1,,,,,,,,,,,,,
65fcdef120c3e7513256ac68,TCN,2024-06-24_16h32.32.272,LearnStrategy,2023.2.3,Win32,60.60606061,1,1,15,0.035000038,-0.016250006,1,0,0,1.4313,rock_grid_rect_2,7,10,-1,-1,1.431,0.399166743,-0.24375,1,0,0,3.171,Gabbro_rect,4,3.171,0,14,0,14,0,1,,,,,,,,,,,,,
65fcdef120c3e7513256ac68,TCN,2024-06-24_16h32.32.272,LearnStrategy,2023.2.3,Win32,60.60606061,1,1,16,0.065833346,-0.014166673,1,0,0,1.014,rock_grid_rect_2,8,16,-1,-1,1.014,0.374166743,-0.385833359,1,0,0,1.7702,Pumice_rect,8,1.77,1,15,0,15,0,1,,,,,,,,,,,,,
65fcdef120c3e7513256ac68,TCN,2024-06-24_16h32.32.272,LearnStrategy,2023.2.3,Win32,60.60606061,1,2,1,,,,,,,,6,12,,,,,,,,,,,4,16.351,0,,,,,,0.408750025,-0.252916654,1,0,0,16.3508,Gabbro_rect,0,0,0,0,1,
65fcdef120c3e7513256ac68,TCN,2024-06-24_16h32.32.272,LearnStrategy,2023.2.3,Win32,60.60606061,1,2,2,,,,,,,,1,03,,,,,,,,,,,1,9.717,1,,,,,,-0.445833333,-0.2375,1,0,0,9.7168,Andesite_rect,1,0,1,0,1,
65fcdef120c3e7513256ac68,TCN,2024-06-24_16h32.32.272,LearnStrategy,2023.2.3,Win32,60.60606061,1,2,3,,,,,,,,8,02,,,,,,,,,,,8,7.6,1,,,,,,0.360416667,-0.38125,1,0,0,7.5999,Pumice_rect,2,0,2,0,1,
65fcdef120c3e7513256ac68,TCN,2024-06-24_16h32.32.272,LearnStrategy,2023.2.3,Win32,60.60606061,1,2,4,,,,,,,,5,06,,,,,,,,,,,5,7.307,1,,,,,,-0.371249994,-0.382916705,1,0,0,7.3068,Obsidian_rect,3,0,3,0,1,
65fcdef120c3e7513256ac68,TCN,2024-06-24_16h32.32.272,LearnStrategy,2023.2.3,Win32,60.60606061,1,2,5,,,,,,,,1,16,,,,,,,,,,,1,5.978,1,,,,,,-0.363749981,-0.253333346,1,0,0,5.9782,Andesite_rect,4,0,4,0,1,
65fcdef120c3e7513256ac68,TCN,2024-06-24_16h32.32.272,LearnStrategy,2023.2.3,Win32,60.60606061,1,2,6,,,,,,,,7,06,,,,,,,,,,,7,13.798,1,,,,,,0.069166692,-0.410000038,1,0,0,13.7984,Peridotite_rect,5,0,5,0,1,
65fcdef120c3e7513256ac68,TCN,2024-06-24_16h32.32.272,LearnStrategy,2023.2.3,Win32,60.60606061,1,2,7,,,,,,,,4,09,,,,,,,,,,,2,2.434,0,,,,,,-0.139999962,-0.23125,1,0,0,2.4337,Basalt_rect,6,0,6,0,1,
65fcdef120c3e7513256ac68,TCN,2024-06-24_16h32.32.272,LearnStrategy,2023.2.3,Win32,60.60606061,1,2,8,,,,,,,,3,12,,,,,,,,,,,7,29.263,0,,,,,,0.132500013,-0.391666667,1,0,0,29.2634,Peridotite_rect,7,0,7,0,1,
65fcdef120c3e7513256ac68,TCN,2024-06-24_16h32.32.272,LearnStrategy,2023.2.3,Win32,60.60606061,1,2,9,,,,,,,,2,10,,,,,,,,,,,6,37.697,0,,,,,,-0.039166641,-0.409166654,1,0,0,37.6968,Pegmatite_rect,8,0,8,0,1,
65fcdef120c3e7513256ac68,TCN,2024-06-24_16h32.32.272,LearnStrategy,2023.2.3,Win32,60.60606061,1,2,10,,,,,,,,6,03,,,,,,,,,,,7,19.06,0,,,,,,0.063750013,-0.383750025,1,0,0,19.0604,Peridotite_rect,9,0,9,0,1,
65fcdef120c3e7513256ac68,TCN,2024-06-24_16h32.32.272,LearnStrategy,2023.2.3,Win32,60.60606061,1,2,11,,,,,,,,2,16,,,,,,,,,,,8,11.616,0,,,,,,0.384166718,-0.396250025,1,0,0,11.6161,Pumice_rect,10,0,10,0,1,
65fcdef120c3e7513256ac68,TCN,2024-06-24_16h32.32.272,LearnStrategy,2023.2.3,Win32,60.60606061,1,2,12,,,,,,,,7,04,,,,,,,,,,,3,20.939,0,,,,,,0.068333371,-0.255833371,1,0,0,20.9395,Diorite_rect,11,0,11,0,1,
65fcdef120c3e7513256ac68,TCN,2024-06-24_16h32.32.272,LearnStrategy,2023.2.3,Win32,60.60606061,1,2,13,,,,,,,,3,08,,,,,,,,,,,3,3.823,1,,,,,,0.069166692,-0.242083359,1,0,0,3.8228,Diorite_rect,12,0,12,0,1,
65fcdef120c3e7513256ac68,TCN,2024-06-24_16h32.32.272,LearnStrategy,2023.2.3,Win32,60.60606061,1,2,14,,,,,,,,5,07,,,,,,,,,,,5,6.385,1,,,,,,-0.388333321,-0.402083333,1,0,0,6.3849,Obsidian_rect,13,0,13,0,1,
65fcdef120c3e7513256ac68,TCN,2024-06-24_16h32.32.272,LearnStrategy,2023.2.3,Win32,60.60606061,1,2,15,,,,,,,,8,15,,,,,,,,,,,8,2.749,1,,,,,,0.375416692,-0.396250025,1,0,0,2.7489,Pumice_rect,14,0,14,0,1,
65fcdef120c3e7513256ac68,TCN,2024-06-24_16h32.32.272,LearnStrategy,2023.2.3,Win32,60.60606061,1,2,16,,,,,,,,4,11,,,,,,,,,,,7,6.673,0,,,,,,0.098333359,-0.380833371,1,0,0,6.673,Peridotite_rect,15,0,15,0,1,
65fcdef120c3e7513256ac68,TCN,2024-06-24_16h32.32.272,LearnStrategy,2023.2.3,Win32,60.60606061,2,1,1,0.097500038,0.005416648,1,0,0,1.6455,rock_grid_rect_2,1,06,-1,-1,1.645,0.147500038,-0.388333321,1,0,0,7.934,Peridotite_rect,7,7.934,0,0,0,0,0,1,,,,,,,,,,,,,
65fcdef120c3e7513256ac68,TCN,2024-06-24_16h32.32.272,LearnStrategy,2023.2.3,Win32,60.60606061,2,1,2,-0.045833333,-0.005000019,1,0,0,1.3898,rock_grid_rect_2,7,05,-1,-1,1.39,0.401250076,-0.254166667,1,0,0,65.1524,Gabbro_rect,4,65.152,0,1,0,1,0,1,,,,,,,,,,,,,
65fcdef120c3e7513256ac68,TCN,2024-06-24_16h32.32.272,LearnStrategy,2023.2.3,Win32,60.60606061,2,1,3,0.158333333,-0.01291666,1,0,0,1.2329,rock_grid_rect_2,8,13,-1,-1,1.233,0.424166743,-0.402083333,1,0,0,15.0077,Pumice_rect,8,15.008,1,2,0,2,0,1,,,,,,,,,,,,,
65fcdef120c3e7513256ac68,TCN,2024-06-24_16h32.32.272,LearnStrategy,2023.2.3,Win32,60.60606061,2,1,4,0.054583359,-0.010000006,1,0,0,1.3117,rock_grid_rect_2,4,01,-1,-1,1.312,-0.052083333,-0.229999987,1,0,0,9.3549,Basalt_rect,2,9.355,0,3,0,3,0,1,,,,,,,,,,,,,
65fcdef120c3e7513256ac68,TCN,2024-06-24_16h32.32.272,LearnStrategy,2023.2.3,Win32,60.60606061,2,1,5,0.025,0.01291666,1,0,0,7.6361,rock_grid_rect_2,6,10,-1,-1,7.636,0.122083346,-0.4,1,0,0,3.7353,Peridotite_rect,7,3.735,0,4,0,4,0,1,,,,,,,,,,,,,
65fcdef120c3e7513256ac68,TCN,2024-06-24_16h32.32.272,LearnStrategy,2023.2.3,Win32,60.60606061,2,1,6,-0.065416654,0.003750006,1,0,0,4.4006,rock_grid_rect_2,4,15,-1,-1,4.401,-0.36291666,-0.263333321,1,0,0,11.7988,Andesite_rect,1,11.799,0,5,0,5,0,1,,,,,,,,,,,,,
65fcdef120c3e7513256ac68,TCN,2024-06-24_16h32.32.272,LearnStrategy,2023.2.3,Win32,60.60606061,2,1,7,0.061666679,-0.021249994,1,0,0,1.0721,rock_grid_rect_2,3,15,-1,-1,1.072,-0.357916673,-0.232083321,1,0,0,3.892,Andesite_rect,1,3.892,0,6,0,6,0,1,,,,,,,,,,,,,
65fcdef120c3e7513256ac68,TCN,2024-06-24_16h32.32.272,LearnStrategy,2023.2.3,Win32,60.60606061,2,1,8,-0.013750013,-0.016250006,1,0,0,0.9018,rock_grid_rect_2,5,10,-1,-1,0.902,-0.334583314,-0.384166654,1,0,0,1.4899,Obsidian_rect,5,1.49,1,7,0,7,0,1,,,,,,,,,,,,,
65fcdef120c3e7513256ac68,TCN,2024-06-24_16h32.32.272,LearnStrategy,2023.2.3,Win32,60.60606061,2,1,9,0.074166679,-0.00666666,1,0,0,1.0471,rock_grid_rect_2,2,14,-1,-1,1.047,0.40333341,-0.404583359,1,0,0,1.5465,Pumice_rect,8,1.546,0,8,0,8,0,1,,,,,,,,,,,,,
65fcdef120c3e7513256ac68,TCN,2024-06-24_16h32.32.272,LearnStrategy,2023.2.3,Win32,60.60606061,2,1,10,-0.054583295,-0.001666673,1,0,0,1.2551,rock_grid_rect_2,6,05,-1,-1,1.255,-0.357083321,-0.240416654,1,0,0,5.3993,Andesite_rect,1,5.399,0,9,0,9,0,1,,,,,,,,,,,,,
65fcdef120c3e7513256ac68,TCN,2024-06-24_16h32.32.272,LearnStrategy,2023.2.3,Win32,60.60606061,2,1,11,-0.059166654,0.003333314,1,0,0,6.0391,rock_grid_rect_2,3,06,-1,-1,6.039,0.126250013,-0.245000013,1,0,0,2.7026,Diorite_rect,3,2.703,1,10,0,10,0,1,,,,,,,,,,,,,
65fcdef120c3e7513256ac68,TCN,2024-06-24_16h32.32.272,LearnStrategy,2023.2.3,Win32,60.60606061,2,1,12,0.099583371,-0.005000019,1,0,0,1.116,rock_grid_rect_2,2,06,-1,-1,1.116,-0.096249962,-0.244583321,1,0,0,2.1083,Basalt_rect,2,2.108,1,11,0,11,0,1,,,,,,,,,,,,,
65fcdef120c3e7513256ac68,TCN,2024-06-24_16h32.32.272,LearnStrategy,2023.2.3,Win32,60.60606061,2,1,13,0.082083321,-0.009166686,1,0,0,0.9676,rock_grid_rect_2,5,05,-1,-1,0.968,-0.379999987,-0.411249987,1,0,0,1.5649,Obsidian_rect,5,1.565,1,12,0,12,0,1,,,,,,,,,,,,,
65fcdef120c3e7513256ac68,TCN,2024-06-24_16h32.32.272,LearnStrategy,2023.2.3,Win32,60.60606061,2,1,14,0.048749987,0.007916673,1,0,0,0.8308,rock_grid_rect_2,7,13,-1,-1,0.831,-0.070416641,-0.403333346,1,0,0,2.1589,Pegmatite_rect,6,2.159,0,13,0,13,0,1,,,,,,,,,,,,,
65fcdef120c3e7513256ac68,TCN,2024-06-24_16h32.32.272,LearnStrategy,2023.2.3,Win32,60.60606061,2,1,15,0.125833321,-0.008333333,1,0,0,4.3595,rock_grid_rect_2,8,05,-1,-1,4.359,0.387916692,-0.389166705,1,0,0,1.2338,Pumice_rect,8,1.234,1,14,0,14,0,1,,,,,,,,,,,,,
65fcdef120c3e7513256ac68,TCN,2024-06-24_16h32.32.272,LearnStrategy,2023.2.3,Win32,60.60606061,2,1,16,0.015000025,0.007916673,1,0,0,0.8454,rock_grid_rect_2,1,04,-1,-1,0.845,-0.372916667,-0.254583359,1,0,0,2.9542,Andesite_rect,1,2.954,1,15,0,15,0,1,,,,,,,,,,,,,
65fcdef120c3e7513256ac68,TCN,2024-06-24_16h32.32.272,LearnStrategy,2023.2.3,Win32,60.60606061,2,2,1,,,,,,,,3,02,,,,,,,,,,,3,2.685,1,,,,,,0.162083371,-0.261249987,1,0,0,2.6849,Diorite_rect,0,0,0,0,1,
65fcdef120c3e7513256ac68,TCN,2024-06-24_16h32.32.272,LearnStrategy,2023.2.3,Win32,60.60606061,2,2,2,,,,,,,,2,01,,,,,,,,,,,2,4.649,1,,,,,,-0.077083333,-0.260416667,1,0,0,4.6494,Basalt_rect,1,0,1,0,1,
65fcdef120c3e7513256ac68,TCN,2024-06-24_16h32.32.272,LearnStrategy,2023.2.3,Win32,60.60606061,2,2,3,,,,,,,,6,07,,,,,,,,,,,7,3.38,0,,,,,,0.098333359,-0.402500025,1,0,0,3.3803,Peridotite_rect,2,0,2,0,1,
65fcdef120c3e7513256ac68,TCN,2024-06-24_16h32.32.272,LearnStrategy,2023.2.3,Win32,60.60606061,2,2,4,,,,,,,,6,09,,,,,,,,,,,7,2.842,0,,,,,,0.098333359,-0.402500025,1,0,0,2.8424,Peridotite_rect,3,0,3,0,1,
65fcdef120c3e7513256ac68,TCN,2024-06-24_16h32.32.272,LearnStrategy,2023.2.3,Win32,60.60606061,2,2,5,,,,,,,,3,10,,,,,,,,,,,3,1.651,1,,,,,,0.142083359,-0.252500025,1,0,0,1.6511,Diorite_rect,4,0,4,0,1,
65fcdef120c3e7513256ac68,TCN,2024-06-24_16h32.32.272,LearnStrategy,2023.2.3,Win32,60.60606061,2,2,6,,,,,,,,4,13,,,,,,,,,,,2,6.919,0,,,,,,-0.113333321,-0.24375,1,0,0,6.9195,Basalt_rect,5,0,5,0,1,
65fcdef120c3e7513256ac68,TCN,2024-06-24_16h32.32.272,LearnStrategy,2023.2.3,Win32,60.60606061,2,2,7,,,,,,,,7,07,,,,,,,,,,,3,5.496,0,,,,,,0.079166667,-0.229166667,1,0,0,5.4963,Diorite_rect,6,0,6,0,1,
65fcdef120c3e7513256ac68,TCN,2024-06-24_16h32.32.272,LearnStrategy,2023.2.3,Win32,60.60606061,2,2,8,,,,,,,,5,12,,,,,,,,,,,5,1.367,1,,,,,,-0.3375,-0.414583333,1,0,0,1.3666,Obsidian_rect,7,0,7,0,1,
65fcdef120c3e7513256ac68,TCN,2024-06-24_16h32.32.272,LearnStrategy,2023.2.3,Win32,60.60606061,2,2,9,,,,,,,,1,07,,,,,,,,,,,4,5.787,0,,,,,,0.430833308,-0.241250038,1,0,0,5.7869,Gabbro_rect,8,0,8,0,1,
65fcdef120c3e7513256ac68,TCN,2024-06-24_16h32.32.272,LearnStrategy,2023.2.3,Win32,60.60606061,2,2,10,,,,,,,,1,10,,,,,,,,,,,2,5.633,0,,,,,,-0.134166654,-0.254583359,1,0,0,5.6327,Basalt_rect,9,0,9,0,1,
65fcdef120c3e7513256ac68,TCN,2024-06-24_16h32.32.272,LearnStrategy,2023.2.3,Win32,60.60606061,2,2,11,,,,,,,,8,06,,,,,,,,,,,8,1.133,1,,,,,,0.392083359,-0.397916667,1,0,0,1.1325,Pumice_rect,10,0,10,0,1,
65fcdef120c3e7513256ac68,TCN,2024-06-24_16h32.32.272,LearnStrategy,2023.2.3,Win32,60.60606061,2,2,12,,,,,,,,7,02,,,,,,,,,,,6,4.195,0,,,,,,-0.071666654,-0.393333371,1,0,0,4.1948,Pegmatite_rect,11,0,11,0,1,
65fcdef120c3e7513256ac68,TCN,2024-06-24_16h32.32.272,LearnStrategy,2023.2.3,Win32,60.60606061,2,2,13,,,,,,,,8,03,,,,,,,,,,,8,2.193,1,,,,,,0.366666667,-0.390833346,1,0,0,2.193,Pumice_rect,12,0,12,0,1,
65fcdef120c3e7513256ac68,TCN,2024-06-24_16h32.32.272,LearnStrategy,2023.2.3,Win32,60.60606061,2,2,14,,,,,,,,5,09,,,,,,,,,,,5,1.246,1,,,,,,-0.377916654,-0.407500013,1,0,0,1.2457,Obsidian_rect,13,0,13,0,1,
65fcdef120c3e7513256ac68,TCN,2024-06-24_16h32.32.272,LearnStrategy,2023.2.3,Win32,60.60606061,2,2,15,,,,,,,,4,08,,,,,,,,,,,2,2.404,0,,,,,,-0.107916641,-0.246250025,1,0,0,2.4035,Basalt_rect,14,0,14,0,1,
65fcdef120c3e7513256ac68,TCN,2024-06-24_16h32.32.272,LearnStrategy,2023.2.3,Win32,60.60606061,2,2,16,,,,,,,,2,12,,,,,,,,,,,1,1.71,0,,,,,,-0.341250006,-0.260416667,1,0,0,1.7103,Andesite_rect,15,0,15,0,1,
65fcdef120c3e7513256ac68,TCN,2024-06-24_16h32.32.272,LearnStrategy,2023.2.3,Win32,60.60606061,3,1,1,0.010000038,-0.008333333,1,0,0,1.0031,rock_grid_rect_2,7,15,-1,-1,1.003,0.095000013,-0.402500025,1,0,0,2.5996,Peridotite_rect,7,2.6,1,0,0,0,0,1,,,,,,,,,,,,,
65fcdef120c3e7513256ac68,TCN,2024-06-24_16h32.32.272,LearnStrategy,2023.2.3,Win32,60.60606061,3,1,2,0.036249987,-0.015416686,1,0,0,1.3056,rock_grid_rect_2,8,04,-1,-1,1.306,0.347916667,-0.404166667,1,0,0,1.297,Pumice_rect,8,1.297,1,1,0,1,0,1,,,,,,,,,,,,,
65fcdef120c3e7513256ac68,TCN,2024-06-24_16h32.32.272,LearnStrategy,2023.2.3,Win32,60.60606061,3,1,3,0.070000013,0.016250006,1,0,0,0.9206,rock_grid_rect_2,4,10,-1,-1,0.921,-0.170833333,-0.261249987,1,0,0,1.335,Basalt_rect,2,1.335,0,2,0,2,0,1,,,,,,,,,,,,,
65fcdef120c3e7513256ac68,TCN,2024-06-24_16h32.32.272,LearnStrategy,2023.2.3,Win32,60.60606061,3,1,4,0.037916692,-0.017916679,1,0,0,1.0383,rock_grid_rect_2,5,16,-1,-1,1.038,-0.353750006,-0.404999987,1,0,0,1.1856,Obsidian_rect,5,1.186,1,3,0,3,0,1,,,,,,,,,,,,,
65fcdef120c3e7513256ac68,TCN,2024-06-24_16h32.32.272,LearnStrategy,2023.2.3,Win32,60.60606061,3,1,5,0.042499987,0.004999987,1,0,0,0.974,rock_grid_rect_2,2,05,-1,-1,0.974,-0.410833327,-0.255416679,1,0,0,2.7572,Andesite_rect,1,2.757,0,4,0,4,0,1,,,,,,,,,,,,,
65fcdef120c3e7513256ac68,TCN,2024-06-24_16h32.32.272,LearnStrategy,2023.2.3,Win32,60.60606061,3,1,6,0.146666654,-0.020000013,1,0,0,1.0263,rock_grid_rect_2,1,09,-1,-1,1.026,0.079583359,-0.246666654,1,0,0,1.627,Diorite_rect,3,1.627,0,5,0,5,0,1,,,,,,,,,,,,,
65fcdef120c3e7513256ac68,TCN,2024-06-24_16h32.32.272,LearnStrategy,2023.2.3,Win32,60.60606061,3,1,7,0.068333371,-0.004166667,1,0,0,1.0381,rock_grid_rect_2,2,02,-1,-1,1.038,-0.338749981,-0.235000038,1,0,0,1.17,Andesite_rect,1,1.17,0,6,0,6,0,1,,,,,,,,,,,,,
65fcdef120c3e7513256ac68,TCN,2024-06-24_16h32.32.272,LearnStrategy,2023.2.3,Win32,60.60606061,3,1,8,0.095416705,0.008749994,1,0,0,0.9592,rock_grid_rect_2,3,13,-1,-1,0.959,-0.067083295,-0.394166692,1,0,0,1.8503,Pegmatite_rect,6,1.85,0,7,0,7,0,1,,,,,,,,,,,,,
65fcdef120c3e7513256ac68,TCN,2024-06-24_16h32.32.272,LearnStrategy,2023.2.3,Win32,60.60606061,3,1,9,0.04375,0.014166673,1,0,0,0.8578,rock_grid_rect_2,8,09,-1,-1,0.858,0.430000051,-0.414583333,1,0,0,1.0968,Pumice_rect,8,1.097,1,8,0,8,0,1,,,,,,,,,,,,,
65fcdef120c3e7513256ac68,TCN,2024-06-24_16h32.32.272,LearnStrategy,2023.2.3,Win32,60.60606061,3,1,10,0.000416692,0.000833321,1,0,0,1.2291,rock_grid_rect_2,6,08,-1,-1,1.229,-0.064583333,-0.421250025,1,0,0,2.3908,Pegmatite_rect,6,2.391,1,9,0,9,0,1,,,,,,,,,,,,,
65fcdef120c3e7513256ac68,TCN,2024-06-24_16h32.32.272,LearnStrategy,2023.2.3,Win32,60.60606061,3,1,11,0.080416679,-0.01875,1,0,0,0.9304,rock_grid_rect_2,7,14,-1,-1,0.93,0.152083333,-0.392499987,1,0,0,1.6954,Peridotite_rect,7,1.695,1,10,0,10,0,1,,,,,,,,,,,,,
65fcdef120c3e7513256ac68,TCN,2024-06-24_16h32.32.272,LearnStrategy,2023.2.3,Win32,60.60606061,3,1,12,0.053333346,0.010000006,1,0,0,0.7713,rock_grid_rect_2,3,09,-1,-1,0.771,0.096666654,-0.250416692,1,0,0,1.6065,Diorite_rect,3,1.606,1,11,0,11,0,1,,,,,,,,,,,,,
65fcdef120c3e7513256ac68,TCN,2024-06-24_16h32.32.272,LearnStrategy,2023.2.3,Win32,60.60606061,3,1,13,0.0625,-0.010000006,1,0,0,1.2482,rock_grid_rect_2,5,08,-1,-1,1.248,-0.376666673,-0.414166705,1,0,0,1.22,Obsidian_rect,5,1.22,1,12,0,12,0,1,,,,,,,,,,,,,
65fcdef120c3e7513256ac68,TCN,2024-06-24_16h32.32.272,LearnStrategy,2023.2.3,Win32,60.60606061,3,1,14,0.097083346,0.00041666,1,0,0,0.8583,rock_grid_rect_2,6,06,-1,-1,0.858,-0.345833333,-0.234583346,1,0,0,2.3357,Andesite_rect,1,2.336,0,13,0,13,0,1,,,,,,,,,,,,,
65fcdef120c3e7513256ac68,TCN,2024-06-24_16h32.32.272,LearnStrategy,2023.2.3,Win32,60.60606061,3,1,15,0.130833371,-0.003750006,1,0,0,0.9482,rock_grid_rect_2,1,01,-1,-1,0.948,0.127916654,-0.260000038,1,0,0,3.7144,Diorite_rect,3,3.714,0,14,0,14,0,1,,,,,,,,,,,,,
65fcdef120c3e7513256ac68,TCN,2024-06-24_16h32.32.272,LearnStrategy,2023.2.3,Win32,60.60606061,3,1,16,0.055416679,-0.010000006,1,0,0,0.9662,rock_grid_rect_2,4,16,-1,-1,0.966,0.418333308,-0.240416654,1,0,0,3.0268,Gabbro_rect,4,3.027,1,15,0,15,0,1,,,,,,,,,,,,,
65fcdef120c3e7513256ac68,TCN,2024-06-24_16h32.32.272,LearnStrategy,2023.2.3,Win32,60.60606061,3,2,1,,,,,,,,5,11,,,,,,,,,,,5,1.045,1,,,,,,-0.365416654,-0.399583371,1,0,0,1.0449,Obsidian_rect,0,0,0,0,1,
65fcdef120c3e7513256ac68,TCN,2024-06-24_16h32.32.272,LearnStrategy,2023.2.3,Win32,60.60606061,3,2,2,,,,,,,,7,08,,,,,,,,,,,7,3.04,1,,,,,,0.145833333,-0.408750025,1,0,0,3.0398,Peridotite_rect,1,0,1,0,1,
65fcdef120c3e7513256ac68,TCN,2024-06-24_16h32.32.272,LearnStrategy,2023.2.3,Win32,60.60606061,3,2,3,,,,,,,,8,10,,,,,,,,,,,1,3.173,0,,,,,,-0.31208334,-0.256666692,1,0,0,3.1726,Andesite_rect,2,0,2,0,1,
65fcdef120c3e7513256ac68,TCN,2024-06-24_16h32.32.272,LearnStrategy,2023.2.3,Win32,60.60606061,3,2,4,,,,,,,,3,14,,,,,,,,,,,3,1.321,1,,,,,,0.180416679,-0.254583359,1,0,0,1.3206,Diorite_rect,3,0,3,0,1,
65fcdef120c3e7513256ac68,TCN,2024-06-24_16h32.32.272,LearnStrategy,2023.2.3,Win32,60.60606061,3,2,5,,,,,,,,2,04,,,,,,,,,,,2,2.388,1,,,,,,-0.082083321,-0.241666667,1,0,0,2.3882,Basalt_rect,4,0,4,0,1,
65fcdef120c3e7513256ac68,TCN,2024-06-24_16h32.32.272,LearnStrategy,2023.2.3,Win32,60.60606061,3,2,6,,,,,,,,1,14,,,,,,,,,,,3,2.116,0,,,,,,0.119583321,-0.241250038,1,0,0,2.1165,Diorite_rect,5,0,5,0,1,
65fcdef120c3e7513256ac68,TCN,2024-06-24_16h32.32.272,LearnStrategy,2023.2.3,Win32,60.60606061,3,2,7,,,,,,,,5,14,,,,,,,,,,,5,1.881,1,,,,,,-0.369999981,-0.395833333,1,0,0,1.8813,Obsidian_rect,6,0,6,0,1,
65fcdef120c3e7513256ac68,TCN,2024-06-24_16h32.32.272,LearnStrategy,2023.2.3,Win32,60.60606061,3,2,8,,,,,,,,2,08,,,,,,,,,,,2,3.434,1,,,,,,-0.099583308,-0.247500038,1,0,0,3.4336,Basalt_rect,7,0,7,0,1,
65fcdef120c3e7513256ac68,TCN,2024-06-24_16h32.32.272,LearnStrategy,2023.2.3,Win32,60.60606061,3,2,9,,,,,,,,8,08,,,,,,,,,,,1,2.138,0,,,,,,-0.35583334,-0.267916679,1,0,0,2.1381,Andesite_rect,8,0,8,0,1,
65fcdef120c3e7513256ac68,TCN,2024-06-24_16h32.32.272,LearnStrategy,2023.2.3,Win32,60.60606061,3,2,10,,,,,,,,4,03,,,,,,,,,,,3,2.087,0,,,,,,0.146250025,-0.251250013,1,0,0,2.0871,Diorite_rect,9,0,9,0,1,
65fcdef120c3e7513256ac68,TCN,2024-06-24_16h32.32.272,LearnStrategy,2023.2.3,Win32,60.60606061,3,2,11,,,,,,,,3,11,,,,,,,,,,,6,1.362,0,,,,,,-0.069583321,-0.416250038,1,0,0,1.362,Pegmatite_rect,10,0,10,0,1,
65fcdef120c3e7513256ac68,TCN,2024-06-24_16h32.32.272,LearnStrategy,2023.2.3,Win32,60.60606061,3,2,12,,,,,,,,6,16,,,,,,,,,,,6,1.582,1,,,,,,-0.040416654,-0.399166679,1,0,0,1.582,Pegmatite_rect,11,0,11,0,1,
65fcdef120c3e7513256ac68,TCN,2024-06-24_16h32.32.272,LearnStrategy,2023.2.3,Win32,60.60606061,3,2,13,,,,,,,,6,11,,,,,,,,,,,7,1.247,0,,,,,,0.101250013,-0.397500038,1,0,0,1.2473,Peridotite_rect,12,0,12,0,1,
65fcdef120c3e7513256ac68,TCN,2024-06-24_16h32.32.272,LearnStrategy,2023.2.3,Win32,60.60606061,3,2,14,,,,,,,,1,02,,,,,,,,,,,4,1.661,0,,,,,,0.335416667,-0.266666667,1,0,0,1.6608,Gabbro_rect,13,0,13,0,1,
65fcdef120c3e7513256ac68,TCN,2024-06-24_16h32.32.272,LearnStrategy,2023.2.3,Win32,60.60606061,3,2,15,,,,,,,,7,12,,,,,,,,,,,6,1.878,0,,,,,,-0.052499962,-0.410000038,1,0,0,1.8781,Pegmatite_rect,14,0,14,0,1,
65fcdef120c3e7513256ac68,TCN,2024-06-24_16h32.32.272,LearnStrategy,2023.2.3,Win32,60.60606061,3,2,16,,,,,,,,4,14,,,,,,,,,,,2,3.114,0,,,,,,-0.091249975,-0.267916679,1,0,0,3.1141,Basalt_rect,15,0,15,0,1,
65fcdef120c3e7513256ac68,TCN,2024-06-24_16h32.32.272,LearnStrategy,2023.2.3,Win32,60.60606061,4,1,1,0.035416667,0,1,0,0,1.1799,rock_grid_rect_2,7,10,-1,-1,1.18,0.116666667,-0.406666692,1,0,0,2.0218,Peridotite_rect,7,2.022,1,0,0,0,0,1,,,,,,,,,,,,,
65fcdef120c3e7513256ac68,TCN,2024-06-24_16h32.32.272,LearnStrategy,2023.2.3,Win32,60.60606061,4,1,2,0.048333359,-0.014166673,1,0,0,0.9426,rock_grid_rect_2,7,13,-1,-1,0.943,0.071666654,-0.418333371,1,0,0,1.0896,Peridotite_rect,7,1.09,1,1,0,1,0,1,,,,,,,,,,,,,
65fcdef120c3e7513256ac68,TCN,2024-06-24_16h32.32.272,LearnStrategy,2023.2.3,Win32,60.60606061,4,1,3,0.041666667,-0.0125,1,0,0,0.7918,rock_grid_rect_2,8,09,-1,-1,0.792,0.4,-0.394583321,1,0,0,1.2827,Pumice_rect,8,1.283,1,2,0,2,0,1,,,,,,,,,,,,,
65fcdef120c3e7513256ac68,TCN,2024-06-24_16h32.32.272,LearnStrategy,2023.2.3,Win32,60.60606061,4,1,4,0.054166667,-0.010416667,1,0,0,0.9432,rock_grid_rect_2,5,10,-1,-1,0.943,-0.315416654,-0.38125,1,0,0,1.0774,Obsidian_rect,5,1.077,1,3,0,3,0,1,,,,,,,,,,,,,
65fcdef120c3e7513256ac68,TCN,2024-06-24_16h32.32.272,LearnStrategy,2023.2.3,Win32,60.60606061,4,1,5,0.084583346,-0.00625,1,0,0,0.8533,rock_grid_rect_2,5,04,-1,-1,0.853,-0.34416666,-0.386249987,1,0,0,1.1159,Obsidian_rect,5,1.116,1,4,0,4,0,1,,,,,,,,,,,,,
65fcdef120c3e7513256ac68,TCN,2024-06-24_16h32.32.272,LearnStrategy,2023.2.3,Win32,60.60606061,4,1,6,0.045000013,-0.009583346,1,0,0,0.7588,rock_grid_rect_2,3,09,-1,-1,0.759,0.157083321,-0.240000025,1,0,0,1.4432,Diorite_rect,3,1.443,1,5,0,5,0,1,,,,,,,,,,,,,
65fcdef120c3e7513256ac68,TCN,2024-06-24_16h32.32.272,LearnStrategy,2023.2.3,Win32,60.60606061,4,1,7,0.017499987,-0.00583334,1,0,0,0.8348,rock_grid_rect_2,1,04,-1,-1,0.835,-0.353333314,-0.250833321,1,0,0,2.46,Andesite_rect,1,2.46,1,6,0,6,0,1,,,,,,,,,,,,,
65fcdef120c3e7513256ac68,TCN,2024-06-24_16h32.32.272,LearnStrategy,2023.2.3,Win32,60.60606061,4,1,8,0.107916705,-0.0125,1,0,0,0.8684,rock_grid_rect_2,6,06,-1,-1,0.868,-0.098333295,-0.405833371,1,0,0,2.4048,Pegmatite_rect,6,2.405,1,7,0,7,0,1,,,,,,,,,,,,,
65fcdef120c3e7513256ac68,TCN,2024-06-24_16h32.32.272,LearnStrategy,2023.2.3,Win32,60.60606061,4,1,9,0.063750013,0.017916648,1,0,0,0.8434,rock_grid_rect_2,1,11,-1,-1,0.843,0.375833384,-0.2375,1,0,0,3.4022,Gabbro_rect,4,3.402,0,8,0,8,0,1,,,,,,,,,,,,,
65fcdef120c3e7513256ac68,TCN,2024-06-24_16h32.32.272,LearnStrategy,2023.2.3,Win32,60.60606061,4,1,10,0.120833333,-0.004583327,1,0,0,2.3535,rock_grid_rect_2,4,15,-1,-1,2.353,-0.102916654,-0.267083359,1,0,0,2.0191,Basalt_rect,2,2.019,0,9,0,9,0,1,,,,,,,,,,,,,
65fcdef120c3e7513256ac68,TCN,2024-06-24_16h32.32.272,LearnStrategy,2023.2.3,Win32,60.60606061,4,1,11,0.126666705,-0.002499994,1,0,0,0.8554,rock_grid_rect_2,3,16,-1,-1,0.855,0.160833359,-0.254999987,1,0,0,1.4066,Diorite_rect,3,1.407,1,10,0,10,0,1,,,,,,,,,,,,,
65fcdef120c3e7513256ac68,TCN,2024-06-24_16h32.32.272,LearnStrategy,2023.2.3,Win32,60.60606061,4,1,12,0.090416654,0.002499994,1,0,0,0.7886,rock_grid_rect_2,8,05,-1,-1,0.789,0.47208341,-0.407083321,1,0,0,1.458,Pumice_rect,8,1.458,1,11,0,11,0,1,,,,,,,,,,,,,
65fcdef120c3e7513256ac68,TCN,2024-06-24_16h32.32.272,LearnStrategy,2023.2.3,Win32,60.60606061,4,1,13,0.071250025,0.00625,1,0,0,0.9753,rock_grid_rect_2,4,01,-1,-1,0.975,0.35958341,-0.25625,1,0,0,2.3457,Gabbro_rect,4,2.346,1,12,0,12,0,1,,,,,,,,,,,,,
65fcdef120c3e7513256ac68,TCN,2024-06-24_16h32.32.272,LearnStrategy,2023.2.3,Win32,60.60606061,4,1,14,0.000416692,0.016666667,1,0,0,1.0453,rock_grid_rect_2,6,05,-1,-1,1.045,-0.087916629,-0.398749987,1,0,0,1.7678,Pegmatite_rect,6,1.768,1,13,0,13,0,1,,,,,,,,,,,,,
65fcdef120c3e7513256ac68,TCN,2024-06-24_16h32.32.272,LearnStrategy,2023.2.3,Win32,60.60606061,4,1,15,0.000833321,0.020416673,1,0,0,1.0454,rock_grid_rect_2,2,06,-1,-1,1.045,-0.049166679,-0.255416679,1,0,0,1.6911,Basalt_rect,2,1.691,1,14,0,14,0,1,,,,,,,,,,,,,
65fcdef120c3e7513256ac68,TCN,2024-06-24_16h32.32.272,LearnStrategy,2023.2.3,Win32,60.60606061,4,1,16,0.085416667,-0.009583346,1,0,0,1.0673,rock_grid_rect_2,2,02,-1,-1,1.067,-0.063750013,-0.232083321,1,0,0,1.0934,Basalt_rect,2,1.093,1,15,0,15,0,1,,,,,,,,,,,,,
65fcdef120c3e7513256ac68,TCN,2024-06-24_16h32.32.272,LearnStrategy,2023.2.3,Win32,60.60606061,4,2,1,,,,,,,,2,04,,,,,,,,,,,2,1.041,1,,,,,,-0.059166654,-0.236666679,1,0,0,1.041,Basalt_rect,0,0,0,0,1,
65fcdef120c3e7513256ac68,TCN,2024-06-24_16h32.32.272,LearnStrategy,2023.2.3,Win32,60.60606061,4,2,2,,,,,,,,7,04,,,,,,,,,,,6,1.141,0,,,,,,-0.105833308,-0.396666654,1,0,0,1.1406,Pegmatite_rect,1,0,1,0,1,
65fcdef120c3e7513256ac68,TCN,2024-06-24_16h32.32.272,LearnStrategy,2023.2.3,Win32,60.60606061,4,2,3,,,,,,,,1,03,,,,,,,,,,,4,1.555,0,,,,,,0.402916718,-0.242083359,1,0,0,1.5551,Gabbro_rect,2,0,2,0,1,
65fcdef120c3e7513256ac68,TCN,2024-06-24_16h32.32.272,LearnStrategy,2023.2.3,Win32,60.60606061,4,2,4,,,,,,,,5,14,,,,,,,,,,,5,1.322,1,,,,,,-0.361666648,-0.405833371,1,0,0,1.3223,Obsidian_rect,3,0,3,0,1,
65fcdef120c3e7513256ac68,TCN,2024-06-24_16h32.32.272,LearnStrategy,2023.2.3,Win32,60.60606061,4,2,5,,,,,,,,7,06,,,,,,,,,,,6,1.236,0,,,,,,-0.181666629,-0.410000038,1,0,0,1.2359,Pegmatite_rect,4,0,4,0,1,
65fcdef120c3e7513256ac68,TCN,2024-06-24_16h32.32.272,LearnStrategy,2023.2.3,Win32,60.60606061,4,2,6,,,,,,,,2,10,,,,,,,,,,,2,5.348,1,,,,,,-0.121249962,-0.264166705,1,0,0,5.3479,Basalt_rect,5,0,5,0,1,
65fcdef120c3e7513256ac68,TCN,2024-06-24_16h32.32.272,LearnStrategy,2023.2.3,Win32,60.60606061,4,2,7,,,,,,,,4,03,,,,,,,,,,,3,2.277,0,,,,,,0.147083346,-0.257500013,1,0,0,2.2768,Diorite_rect,6,0,6,0,1,
65fcdef120c3e7513256ac68,TCN,2024-06-24_16h32.32.272,LearnStrategy,2023.2.3,Win32,60.60606061,4,2,8,,,,,,,,8,08,,,,,,,,,,,8,1.563,1,,,,,,0.367916743,-0.385833359,1,0,0,1.5628,Pumice_rect,7,0,7,0,1,
65fcdef120c3e7513256ac68,TCN,2024-06-24_16h32.32.272,LearnStrategy,2023.2.3,Win32,60.60606061,4,2,9,,,,,,,,1,07,,,,,,,,,,,3,2.772,0,,,,,,0.143333371,-0.243333371,1,0,0,2.7719,Diorite_rect,8,0,8,0,1,
65fcdef120c3e7513256ac68,TCN,2024-06-24_16h32.32.272,LearnStrategy,2023.2.3,Win32,60.60606061,4,2,10,,,,,,,,4,11,,,,,,,,,,,4,3.522,1,,,,,,0.355833308,-0.260833359,1,0,0,3.5217,Gabbro_rect,9,0,9,0,1,
65fcdef120c3e7513256ac68,TCN,2024-06-24_16h32.32.272,LearnStrategy,2023.2.3,Win32,60.60606061,4,2,11,,,,,,,,5,06,,,,,,,,,,,5,2.512,1,,,,,,-0.322916667,-0.385833359,1,0,0,2.5121,Obsidian_rect,10,0,10,0,1,
65fcdef120c3e7513256ac68,TCN,2024-06-24_16h32.32.272,LearnStrategy,2023.2.3,Win32,60.60606061,4,2,12,,,,,,,,8,10,,,,,,,,,,,8,1.26,1,,,,,,0.411250051,-0.396250025,1,0,0,1.2603,Pumice_rect,11,0,11,0,1,
65fcdef120c3e7513256ac68,TCN,2024-06-24_16h32.32.272,LearnStrategy,2023.2.3,Win32,60.60606061,4,2,13,,,,,,,,3,12,,,,,,,,,,,1,2.242,0,,,,,,-0.329999987,-0.264166705,1,0,0,2.2421,Andesite_rect,12,0,12,0,1,
65fcdef120c3e7513256ac68,TCN,2024-06-24_16h32.32.272,LearnStrategy,2023.2.3,Win32,60.60606061,4,2,14,,,,,,,,3,10,,,,,,,,,,,1,1.181,0,,,,,,-0.376666673,-0.251250013,1,0,0,1.1813,Andesite_rect,13,0,13,0,1,
65fcdef120c3e7513256ac68,TCN,2024-06-24_16h32.32.272,LearnStrategy,2023.2.3,Win32,60.60606061,4,2,15,,,,,,,,6,09,,,,,,,,,,,6,1.029,1,,,,,,-0.148333295,-0.392499987,1,0,0,1.0292,Pegmatite_rect,14,0,14,0,1,
65fcdef120c3e7513256ac68,TCN,2024-06-24_16h32.32.272,LearnStrategy,2023.2.3,Win32,60.60606061,4,2,16,,,,,,,,6,07,,,,,,,,,,,6,0.714,1,,,,,,-0.148333295,-0.392499987,1,0,0,0.7139,Pegmatite_rect,15,0,15,0,1,
65fcdef120c3e7513256ac68,TCN,2024-06-24_16h32.32.272,LearnStrategy,2023.2.3,Win32,60.60606061,5,1,1,0.049583371,-0.00583334,1,0,0,0.738,rock_grid_rect_2,8,13,-1,-1,0.738,0.434166718,-0.404583359,1,0,0,1.5849,Pumice_rect,8,1.585,1,0,0,0,0,1,,,,,,,,,,,,,
65fcdef120c3e7513256ac68,TCN,2024-06-24_16h32.32.272,LearnStrategy,2023.2.3,Win32,60.60606061,5,1,2,0.034583346,0.010416667,1,0,0,0.8529,rock_grid_rect_2,4,10,-1,-1,0.853,0.357916641,-0.239583333,1,0,0,2.6409,Gabbro_rect,4,2.641,1,1,0,1,0,1,,,,,,,,,,,,,
65fcdef120c3e7513256ac68,TCN,2024-06-24_16h32.32.272,LearnStrategy,2023.2.3,Win32,60.60606061,5,1,3,0.077500025,-0.007083352,1,0,0,1.1055,rock_grid_rect_2,2,09,-1,-1,1.106,-0.091666667,-0.238750013,1,0,0,0.9524,Basalt_rect,2,0.952,1,2,0,2,0,1,,,,,,,,,,,,,
65fcdef120c3e7513256ac68,TCN,2024-06-24_16h32.32.272,LearnStrategy,2023.2.3,Win32,60.60606061,5,1,4,0.027916654,0.011666648,1,0,0,0.776,rock_grid_rect_2,5,16,-1,-1,0.776,-0.382499981,-0.404583359,1,0,0,1.0998,Obsidian_rect,5,1.1,1,3,0,3,0,1,,,,,,,,,,,,,
65fcdef120c3e7513256ac68,TCN,2024-06-24_16h32.32.272,LearnStrategy,2023.2.3,Win32,60.60606061,5,1,5,0.044166692,-0.002499994,1,0,0,0.7855,rock_grid_rect_2,3,13,-1,-1,0.785,-0.087916629,-0.387916692,1,0,0,1.2594,Pegmatite_rect,6,1.259,0,4,0,4,0,1,,,,,,,,,,,,,
65fcdef120c3e7513256ac68,TCN,2024-06-24_16h32.32.272,LearnStrategy,2023.2.3,Win32,60.60606061,5,1,6,0.013750013,0.009166654,1,0,0,0.7083,rock_grid_rect_2,7,15,-1,-1,0.708,0.141666667,-0.401666705,1,0,0,1.2504,Peridotite_rect,7,1.25,1,5,0,5,0,1,,,,,,,,,,,,,
65fcdef120c3e7513256ac68,TCN,2024-06-24_16h32.32.272,LearnStrategy,2023.2.3,Win32,60.60606061,5,1,7,0.003750038,0.003750006,1,0,0,0.9381,rock_grid_rect_2,1,01,-1,-1,0.938,0.099166679,-0.240833346,1,0,0,1.5919,Diorite_rect,3,1.592,0,6,0,6,0,1,,,,,,,,,,,,,
65fcdef120c3e7513256ac68,TCN,2024-06-24_16h32.32.272,LearnStrategy,2023.2.3,Win32,60.60606061,5,1,8,0.05,0.015416654,1,0,0,0.7966,rock_grid_rect_2,5,02,-1,-1,0.797,-0.389583333,-0.416666667,1,0,0,1.0791,Obsidian_rect,5,1.079,1,7,0,7,0,1,,,,,,,,,,,,,
65fcdef120c3e7513256ac68,TCN,2024-06-24_16h32.32.272,LearnStrategy,2023.2.3,Win32,60.60606061,5,1,9,0.049583371,-0.008749994,1,0,0,0.7273,rock_grid_rect_2,4,05,-1,-1,0.727,0.336666743,-0.246666654,1,0,0,3.4976,Gabbro_rect,4,3.498,1,8,0,8,0,1,,,,,,,,,,,,,
65fcdef120c3e7513256ac68,TCN,2024-06-24_16h32.32.272,LearnStrategy,2023.2.3,Win32,60.60606061,5,1,10,0.072916667,-0.00625,1,0,0,0.823,rock_grid_rect_2,7,05,-1,-1,0.823,-0.39375,-0.251250013,1,0,0,2.915,Andesite_rect,1,2.915,0,9,0,9,0,1,,,,,,,,,,,,,
65fcdef120c3e7513256ac68,TCN,2024-06-24_16h32.32.272,LearnStrategy,2023.2.3,Win32,60.60606061,5,1,11,0.038333321,0.022500006,1,0,0,0.9495,rock_grid_rect_2,6,15,-1,-1,0.949,-0.077499962,-0.385833359,1,0,0,1.3798,Pegmatite_rect,6,1.38,1,10,0,10,0,1,,,,,,,,,,,,,
65fcdef120c3e7513256ac68,TCN,2024-06-24_16h32.32.272,LearnStrategy,2023.2.3,Win32,60.60606061,5,1,12,0.051666705,0.008749994,1,0,0,0.9345,rock_grid_rect_2,2,11,-1,-1,0.935,0.424166743,-0.40625,1,0,0,1.8158,Pumice_rect,8,1.816,0,11,0,11,0,1,,,,,,,,,,,,,
65fcdef120c3e7513256ac68,TCN,2024-06-24_16h32.32.272,LearnStrategy,2023.2.3,Win32,60.60606061,5,1,13,0.054583359,-0.014166673,1,0,0,0.7564,rock_grid_rect_2,1,06,-1,-1,0.756,0.145416705,-0.246666654,1,0,0,1.7035,Diorite_rect,3,1.703,0,12,0,12,0,1,,,,,,,,,,,,,
65fcdef120c3e7513256ac68,TCN,2024-06-24_16h32.32.272,LearnStrategy,2023.2.3,Win32,60.60606061,5,1,14,0.039166705,-0.024166679,1,0,0,0.7595,rock_grid_rect_2,8,14,-1,-1,0.759,0.425,-0.411666679,1,0,0,1.1556,Pumice_rect,8,1.156,1,13,0,13,0,1,,,,,,,,,,,,,
65fcdef120c3e7513256ac68,TCN,2024-06-24_16h32.32.272,LearnStrategy,2023.2.3,Win32,60.60606061,5,1,15,0.047083346,-0.004166667,1,0,0,0.7434,rock_grid_rect_2,6,10,-1,-1,0.743,0.073333359,-0.404166667,1,0,0,1.8977,Peridotite_rect,7,1.898,0,14,0,14,0,1,,,,,,,,,,,,,
65fcdef120c3e7513256ac68,TCN,2024-06-24_16h32.32.272,LearnStrategy,2023.2.3,Win32,60.60606061,5,1,16,0.019583321,0.004583327,1,0,0,1.1107,rock_grid_rect_2,3,06,-1,-1,1.111,0.1625,-0.252083333,1,0,0,2.2358,Diorite_rect,3,2.236,1,15,0,15,0,1,,,,,,,,,,,,,
65fcdef120c3e7513256ac68,TCN,2024-06-24_16h32.32.272,LearnStrategy,2023.2.3,Win32,60.60606061,5,2,1,,,,,,,,7,08,,,,,,,,,,,6,3.11,0,,,,,,-0.039999962,-0.393333371,1,0,0,3.1099,Pegmatite_rect,0,0,0,0,1,
65fcdef120c3e7513256ac68,TCN,2024-06-24_16h32.32.272,LearnStrategy,2023.2.3,Win32,60.60606061,5,2,2,,,,,,,,3,02,,,,,,,,,,,3,1.689,1,,,,,,0.078333346,-0.245416705,1,0,0,1.6893,Diorite_rect,1,0,1,0,1,
65fcdef120c3e7513256ac68,TCN,2024-06-24_16h32.32.272,LearnStrategy,2023.2.3,Win32,60.60606061,5,2,3,,,,,,,,2,12,,,,,,,,,,,4,2.902,0,,,,,,0.414583333,-0.270833333,1,0,0,2.9018,Gabbro_rect,2,0,2,0,1,
65fcdef120c3e7513256ac68,TCN,2024-06-24_16h32.32.272,LearnStrategy,2023.2.3,Win32,60.60606061,5,2,4,,,,,,,,7,12,,,,,,,,,,,3,3.017,0,,,,,,0.148749987,-0.247083346,1,0,0,3.0172,Diorite_rect,3,0,3,0,1,
65fcdef120c3e7513256ac68,TCN,2024-06-24_16h32.32.272,LearnStrategy,2023.2.3,Win32,60.60606061,5,2,5,,,,,,,,4,13,,,,,,,,,,,4,4.783,1,,,,,,0.355416743,-0.269583321,1,0,0,4.7835,Gabbro_rect,4,0,4,0,1,
65fcdef120c3e7513256ac68,TCN,2024-06-24_16h32.32.272,LearnStrategy,2023.2.3,Win32,60.60606061,5,2,6,,,,,,,,3,11,,,,,,,,,,,3,2.68,1,,,,,,0.130833371,-0.265833346,1,0,0,2.6798,Diorite_rect,5,0,5,0,1,
65fcdef120c3e7513256ac68,TCN,2024-06-24_16h32.32.272,LearnStrategy,2023.2.3,Win32,60.60606061,5,2,7,,,,,,,,4,08,,,,,,,,,,,4,3.198,1,,,,,,0.337916692,-0.231666692,1,0,0,3.1976,Gabbro_rect,6,0,6,0,1,
65fcdef120c3e7513256ac68,TCN,2024-06-24_16h32.32.272,LearnStrategy,2023.2.3,Win32,60.60606061,5,2,8,,,,,,,,6,12,,,,,,,,,,,6,2.723,1,,,,,,-0.070000013,-0.391666667,1,0,0,2.7231,Pegmatite_rect,7,0,7,0,1,
65fcdef120c3e7513256ac68,TCN,2024-06-24_16h32.32.272,LearnStrategy,2023.2.3,Win32,60.60606061,5,2,9,,,,,,,,8,02,,,,,,,,,,,8,1.242,1,,,,,,0.36875,-0.397083346,1,0,0,1.2418,Pumice_rect,8,0,8,0,1,
65fcdef120c3e7513256ac68,TCN,2024-06-24_16h32.32.272,LearnStrategy,2023.2.3,Win32,60.60606061,5,2,10,,,,,,,,6,03,,,,,,,,,,,6,1.722,1,,,,,,-0.084166654,-0.394166692,1,0,0,1.7219,Pegmatite_rect,9,0,9,0,1,
65fcdef120c3e7513256ac68,TCN,2024-06-24_16h32.32.272,LearnStrategy,2023.2.3,Win32,60.60606061,5,2,11,,,,,,,,2,08,,,,,,,,,,,2,2.737,1,,,,,,-0.087083308,-0.263333321,1,0,0,2.737,Basalt_rect,10,0,10,0,1,
65fcdef120c3e7513256ac68,TCN,2024-06-24_16h32.32.272,LearnStrategy,2023.2.3,Win32,60.60606061,5,2,12,,,,,,,,1,02,,,,,,,,,,,1,3.09,1,,,,,,-0.329166667,-0.229999987,1,0,0,3.0903,Andesite_rect,11,0,11,0,1,
65fcdef120c3e7513256ac68,TCN,2024-06-24_16h32.32.272,LearnStrategy,2023.2.3,Win32,60.60606061,5,2,13,,,,,,,,5,07,,,,,,,,,,,5,1.004,1,,,,,,-0.352083333,-0.403333346,1,0,0,1.0036,Obsidian_rect,12,0,12,0,1,
65fcdef120c3e7513256ac68,TCN,2024-06-24_16h32.32.272,LearnStrategy,2023.2.3,Win32,60.60606061,5,2,14,,,,,,,,8,15,,,,,,,,,,,8,1.182,1,,,,,,0.322499975,-0.387916692,1,0,0,1.1818,Pumice_rect,13,0,13,0,1,
65fcdef120c3e7513256ac68,TCN,2024-06-24_16h32.32.272,LearnStrategy,2023.2.3,Win32,60.60606061,5,2,15,,,,,,,,1,10,,,,,,,,,,,4,1.311,0,,,,,,0.379583359,-0.245000013,1,0,0,1.3113,Gabbro_rect,14,0,14,0,1,
65fcdef120c3e7513256ac68,TCN,2024-06-24_16h32.32.272,LearnStrategy,2023.2.3,Win32,60.60606061,5,2,16,,,,,,,,5,09,,,,,,,,,,,5,1.534,1,,,,,,-0.427499994,-0.407916705,1,0,0,1.5336,Obsidian_rect,15,0,15,0,1,
65fcdef120c3e7513256ac68,TCN,2024-06-24_16h32.32.272,LearnStrategy,2023.2.3,Win32,60.60606061,6,1,1,0.101666705,-0.013333352,1,0,0,1.0628,rock_grid_rect_2,8,04,-1,-1,1.063,0.449166743,-0.38125,1,0,0,1.2371,Pumice_rect,8,1.237,1,0,0,0,0,1,,,,,,,,,,,,,
65fcdef120c3e7513256ac68,TCN,2024-06-24_16h32.32.272,LearnStrategy,2023.2.3,Win32,60.60606061,6,1,2,0.065833346,-0.002083333,1,0,0,0.9184,rock_grid_rect_2,3,15,-1,-1,0.918,0.204999987,-0.260833359,1,0,0,5.5928,Diorite_rect,3,5.593,1,1,0,1,0,1,,,,,,,,,,,,,
65fcdef120c3e7513256ac68,TCN,2024-06-24_16h32.32.272,LearnStrategy,2023.2.3,Win32,60.60606061,6,1,3,0.158750025,-0.016250006,1,0,0,0.9845,rock_grid_rect_2,7,14,-1,-1,0.985,-0.102083333,-0.394583321,1,0,0,1.4381,Pegmatite_rect,6,1.438,0,2,0,2,0,1,,,,,,,,,,,,,
65fcdef120c3e7513256ac68,TCN,2024-06-24_16h32.32.272,LearnStrategy,2023.2.3,Win32,60.60606061,6,1,4,0.092499987,0.003750006,1,0,0,0.913,rock_grid_rect_2,8,16,-1,-1,0.913,0.41583341,-0.405833371,1,0,0,1.1938,Pumice_rect,8,1.194,1,3,0,3,0,1,,,,,,,,,,,,,
65fcdef120c3e7513256ac68,TCN,2024-06-24_16h32.32.272,LearnStrategy,2023.2.3,Win32,60.60606061,6,1,5,0.007500013,0.019583321,1,0,0,0.6829,rock_grid_rect_2,7,16,-1,-1,0.683,-0.057916641,-0.384583346,1,0,0,2.8681,Pegmatite_rect,6,2.868,0,4,0,4,0,1,,,,,,,,,,,,,
65fcdef120c3e7513256ac68,TCN,2024-06-24_16h32.32.272,LearnStrategy,2023.2.3,Win32,60.60606061,6,1,6,0.041250038,0.014583333,1,0,0,0.8077,rock_grid_rect_2,3,07,-1,-1,0.808,0.098333359,-0.237083371,1,0,0,1.458,Diorite_rect,3,1.458,1,5,0,5,0,1,,,,,,,,,,,,,
65fcdef120c3e7513256ac68,TCN,2024-06-24_16h32.32.272,LearnStrategy,2023.2.3,Win32,60.60606061,6,1,7,0.042083359,-0.002083333,1,0,0,0.6973,rock_grid_rect_2,6,13,-1,-1,0.697,-0.134583346,-0.394583321,1,0,0,1.2665,Pegmatite_rect,6,1.266,1,6,0,6,0,1,,,,,,,,,,,,,
65fcdef120c3e7513256ac68,TCN,2024-06-24_16h32.32.272,LearnStrategy,2023.2.3,Win32,60.60606061,6,1,8,0.0625,0.007499981,1,0,0,0.7675,rock_grid_rect_2,2,14,-1,-1,0.767,0.377500025,-0.239583333,1,0,0,1.6537,Gabbro_rect,4,1.654,0,7,0,7,0,1,,,,,,,,,,,,,
65fcdef120c3e7513256ac68,TCN,2024-06-24_16h32.32.272,LearnStrategy,2023.2.3,Win32,60.60606061,6,1,9,0.052083333,0.011249987,1,0,0,0.7172,rock_grid_rect_2,5,05,-1,-1,0.717,-0.33791666,-0.396250025,1,0,0,1.2043,Obsidian_rect,5,1.204,1,8,0,8,0,1,,,,,,,,,,,,,
65fcdef120c3e7513256ac68,TCN,2024-06-24_16h32.32.272,LearnStrategy,2023.2.3,Win32,60.60606061,6,1,10,0.093333371,-0.02458334,1,0,0,0.6546,rock_grid_rect_2,5,08,-1,-1,0.655,-0.379166667,-0.400833321,1,0,0,1.0888,Obsidian_rect,5,1.089,1,9,0,9,0,1,,,,,,,,,,,,,
65fcdef120c3e7513256ac68,TCN,2024-06-24_16h32.32.272,LearnStrategy,2023.2.3,Win32,60.60606061,6,1,11,0.099583371,-0.017500019,1,0,0,1.1682,rock_grid_rect_2,4,12,-1,-1,1.168,-0.176666641,-0.23125,1,0,0,1.7825,Basalt_rect,2,1.783,0,10,0,10,0,1,,,,,,,,,,,,,
65fcdef120c3e7513256ac68,TCN,2024-06-24_16h32.32.272,LearnStrategy,2023.2.3,Win32,60.60606061,6,1,12,-0.044583321,0.005416648,1,0,0,0.6804,rock_grid_rect_2,4,16,-1,-1,0.68,-0.06875,-0.247916667,1,0,0,1.011,Basalt_rect,2,1.011,0,11,0,11,0,1,,,,,,,,,,,,,
65fcdef120c3e7513256ac68,TCN,2024-06-24_16h32.32.272,LearnStrategy,2023.2.3,Win32,60.60606061,6,1,13,0.009583346,-0.01208334,1,0,0,0.7059,rock_grid_rect_2,1,05,-1,-1,0.706,-0.304166667,-0.261249987,1,0,0,1.6978,Andesite_rect,1,1.698,1,12,0,12,0,1,,,,,,,,,,,,,
65fcdef120c3e7513256ac68,TCN,2024-06-24_16h32.32.272,LearnStrategy,2023.2.3,Win32,60.60606061,6,1,14,0.006666692,0.02458334,1,0,0,0.7412,rock_grid_rect_2,6,08,-1,-1,0.741,-0.10625,-0.40625,1,0,0,1.0608,Pegmatite_rect,6,1.061,1,13,0,13,0,1,,,,,,,,,,,,,
65fcdef120c3e7513256ac68,TCN,2024-06-24_16h32.32.272,LearnStrategy,2023.2.3,Win32,60.60606061,6,1,15,0.017083359,0.017916648,1,0,0,0.6564,rock_grid_rect_2,1,09,-1,-1,0.656,0.327083333,-0.229583359,1,0,0,1.4485,Gabbro_rect,4,1.448,0,14,0,14,0,1,,,,,,,,,,,,,
65fcdef120c3e7513256ac68,TCN,2024-06-24_16h32.32.272,LearnStrategy,2023.2.3,Win32,60.60606061,6,1,16,0.015416654,-0.011666679,1,0,0,1.1777,rock_grid_rect_2,2,05,-1,-1,1.178,-0.070000013,-0.258750025,1,0,0,1.136,Basalt_rect,2,1.136,1,15,0,15,0,1,,,,,,,,,,,,,
65fcdef120c3e7513256ac68,TCN,2024-06-24_16h32.32.272,LearnStrategy,2023.2.3,Win32,60.60606061,6,2,1,,,,,,,,1,16,,,,,,,,,,,4,2.326,0,,,,,,0.378749975,-0.248749987,1,0,0,2.3258,Gabbro_rect,0,0,0,0,1,
65fcdef120c3e7513256ac68,TCN,2024-06-24_16h32.32.272,LearnStrategy,2023.2.3,Win32,60.60606061,6,2,2,,,,,,,,8,03,,,,,,,,,,,8,1.171,1,,,,,,0.410416667,-0.384166654,1,0,0,1.1713,Pumice_rect,1,0,1,0,1,
65fcdef120c3e7513256ac68,TCN,2024-06-24_16h32.32.272,LearnStrategy,2023.2.3,Win32,60.60606061,6,2,3,,,,,,,,6,11,,,,,,,,,,,6,2.595,1,,,,,,-0.080833308,-0.395833333,1,0,0,2.5945,Pegmatite_rect,2,0,2,0,1,
65fcdef120c3e7513256ac68,TCN,2024-06-24_16h32.32.272,LearnStrategy,2023.2.3,Win32,60.60606061,6,2,4,,,,,,,,4,09,,,,,,,,,,,2,3.139,0,,,,,,-0.062916629,-0.257916705,1,0,0,3.1395,Basalt_rect,3,0,3,0,1,
65fcdef120c3e7513256ac68,TCN,2024-06-24_16h32.32.272,LearnStrategy,2023.2.3,Win32,60.60606061,6,2,5,,,,,,,,3,14,,,,,,,,,,,3,1.133,1,,,,,,0.118333371,-0.257916705,1,0,0,1.1327,Diorite_rect,4,0,4,0,1,
65fcdef120c3e7513256ac68,TCN,2024-06-24_16h32.32.272,LearnStrategy,2023.2.3,Win32,60.60606061,6,2,6,,,,,,,,5,12,,,,,,,,,,,5,1.133,1,,,,,,-0.375833321,-0.403333346,1,0,0,1.1329,Obsidian_rect,5,0,5,0,1,
65fcdef120c3e7513256ac68,TCN,2024-06-24_16h32.32.272,LearnStrategy,2023.2.3,Win32,60.60606061,6,2,7,,,,,,,,1,14,,,,,,,,,,,2,2.432,0,,,,,,-0.063333321,-0.248333359,1,0,0,2.4324,Basalt_rect,6,0,6,0,1,
65fcdef120c3e7513256ac68,TCN,2024-06-24_16h32.32.272,LearnStrategy,2023.2.3,Win32,60.60606061,6,2,8,,,,,,,,8,06,,,,,,,,,,,8,1.359,1,,,,,,0.326666641,-0.382083321,1,0,0,1.3595,Pumice_rect,7,0,7,0,1,
65fcdef120c3e7513256ac68,TCN,2024-06-24_16h32.32.272,LearnStrategy,2023.2.3,Win32,60.60606061,6,2,9,,,,,,,,7,02,,,,,,,,,,,7,2.099,1,,,,,,0.101666705,-0.406666692,1,0,0,2.0986,Peridotite_rect,8,0,8,0,1,
65fcdef120c3e7513256ac68,TCN,2024-06-24_16h32.32.272,LearnStrategy,2023.2.3,Win32,60.60606061,6,2,10,,,,,,,,4,14,,,,,,,,,,,4,2.296,1,,,,,,0.414583333,-0.265416654,1,0,0,2.2957,Gabbro_rect,9,0,9,0,1,
65fcdef120c3e7513256ac68,TCN,2024-06-24_16h32.32.272,LearnStrategy,2023.2.3,Win32,60.60606061,6,2,11,,,,,,,,3,08,,,,,,,,,,,3,1.173,1,,,,,,0.128750038,-0.262916692,1,0,0,1.1732,Diorite_rect,10,0,10,0,1,
65fcdef120c3e7513256ac68,TCN,2024-06-24_16h32.32.272,LearnStrategy,2023.2.3,Win32,60.60606061,6,2,12,,,,,,,,2,16,,,,,,,,,,,2,1.565,1,,,,,,-0.074166679,-0.255833371,1,0,0,1.5652,Basalt_rect,11,0,11,0,1,
65fcdef120c3e7513256ac68,TCN,2024-06-24_16h32.32.272,LearnStrategy,2023.2.3,Win32,60.60606061,6,2,13,,,,,,,,2,01,,,,,,,,,,,2,3.384,1,,,,,,-0.035833295,-0.259583346,1,0,0,3.384,Basalt_rect,12,0,12,0,1,
65fcdef120c3e7513256ac68,TCN,2024-06-24_16h32.32.272,LearnStrategy,2023.2.3,Win32,60.60606061,6,2,14,,,,,,,,7,07,,,,,,,,,,,6,1.855,0,,,,,,-0.06875,-0.397083346,1,0,0,1.855,Pegmatite_rect,13,0,13,0,1,
65fcdef120c3e7513256ac68,TCN,2024-06-24_16h32.32.272,LearnStrategy,2023.2.3,Win32,60.60606061,6,2,15,,,,,,,,6,16,,,,,,,,,,,6,1.11,1,,,,,,-0.070416641,-0.395416705,1,0,0,1.1097,Pegmatite_rect,14,0,14,0,1,
65fcdef120c3e7513256ac68,TCN,2024-06-24_16h32.32.272,LearnStrategy,2023.2.3,Win32,60.60606061,6,2,16,,,,,,,,5,11,,,,,,,,,,,5,1.026,1,,,,,,-0.322083314,-0.389583333,1,0,0,1.0263,Obsidian_rect,15,0,15,0,1,
65fcdef120c3e7513256ac68,TCN,2024-06-24_16h32.32.272,LearnStrategy,2023.2.3,Win32,60.60606061,7,1,1,0.104999987,0.00625,1,0,0,1.0482,rock_grid_rect_2,6,08,-1,-1,1.048,-0.066249975,-0.414583333,1,0,0,1.1101,Pegmatite_rect,6,1.11,1,0,0,0,0,1,,,,,,,,,,,,,
65fcdef120c3e7513256ac68,TCN,2024-06-24_16h32.32.272,LearnStrategy,2023.2.3,Win32,60.60606061,7,1,2,0.082500013,-0.011666679,1,0,0,1.1123,rock_grid_rect_2,4,01,-1,-1,1.112,0.420416641,-0.241250038,1,0,0,2.2263,Gabbro_rect,4,2.226,1,1,0,1,0,1,,,,,,,,,,,,,
65fcdef120c3e7513256ac68,TCN,2024-06-24_16h32.32.272,LearnStrategy,2023.2.3,Win32,60.60606061,7,1,3,0.074166679,0.007916673,1,0,0,0.885,rock_grid_rect_2,6,15,-1,-1,0.885,-0.077499962,-0.399583371,1,0,0,1.16,Pegmatite_rect,6,1.16,1,2,0,2,0,1,,,,,,,,,,,,,
65fcdef120c3e7513256ac68,TCN,2024-06-24_16h32.32.272,LearnStrategy,2023.2.3,Win32,60.60606061,7,1,4,0.049583371,0.011249987,1,0,0,0.7427,rock_grid_rect_2,2,06,-1,-1,0.743,-0.076666641,-0.257500013,1,0,0,1.146,Basalt_rect,2,1.146,1,3,0,3,0,1,,,,,,,,,,,,,
65fcdef120c3e7513256ac68,TCN,2024-06-24_16h32.32.272,LearnStrategy,2023.2.3,Win32,60.60606061,7,1,5,0.075,0.002083333,1,0,0,0.9319,rock_grid_rect_2,8,05,-1,-1,0.932,0.353749975,-0.392499987,1,0,0,1.4495,Pumice_rect,8,1.449,1,4,0,4,0,1,,,,,,,,,,,,,
65fcdef120c3e7513256ac68,TCN,2024-06-24_16h32.32.272,LearnStrategy,2023.2.3,Win32,60.60606061,7,1,6,0.003333346,0.00583334,1,0,0,0.9175,rock_grid_rect_2,4,12,-1,-1,0.918,-0.045416641,-0.240000025,1,0,0,2.1101,Basalt_rect,2,2.11,0,5,0,5,0,1,,,,,,,,,,,,,
65fcdef120c3e7513256ac68,TCN,2024-06-24_16h32.32.272,LearnStrategy,2023.2.3,Win32,60.60606061,7,1,7,0.051666705,-0.0125,1,0,0,0.7085,rock_grid_rect_2,5,02,-1,-1,0.708,-0.332499981,-0.415416654,1,0,0,1.0421,Obsidian_rect,5,1.042,1,6,0,6,0,1,,,,,,,,,,,,,
65fcdef120c3e7513256ac68,TCN,2024-06-24_16h32.32.272,LearnStrategy,2023.2.3,Win32,60.60606061,7,1,8,0.000416692,-0.004166667,1,0,0,1.0848,rock_grid_rect_2,1,09,-1,-1,1.085,0.107916705,-0.252500025,1,0,0,2.6748,Diorite_rect,3,2.675,0,7,0,7,0,1,,,,,,,,,,,,,
65fcdef120c3e7513256ac68,TCN,2024-06-24_16h32.32.272,LearnStrategy,2023.2.3,Win32,60.60606061,7,1,9,0.057083321,-0.004583327,1,0,0,1.1267,rock_grid_rect_2,3,07,-1,-1,1.127,0.074583371,-0.245000013,1,0,0,2.5627,Diorite_rect,3,2.563,1,8,0,8,0,1,,,,,,,,,,,,,
65fcdef120c3e7513256ac68,TCN,2024-06-24_16h32.32.272,LearnStrategy,2023.2.3,Win32,60.60606061,7,1,10,0.022916667,-0.008749994,1,0,0,0.7576,rock_grid_rect_2,5,10,-1,-1,0.758,-0.410000006,-0.395000013,1,0,0,0.977,Obsidian_rect,5,0.977,1,9,0,9,0,1,,,,,,,,,,,,,
65fcdef120c3e7513256ac68,TCN,2024-06-24_16h32.32.272,LearnStrategy,2023.2.3,Win32,60.60606061,7,1,11,0.064583333,-0.00583334,1,0,0,1.1339,rock_grid_rect_2,7,14,-1,-1,1.134,-0.070833333,-0.391250038,1,0,0,1.1747,Pegmatite_rect,6,1.175,0,10,0,10,0,1,,,,,,,,,,,,,
65fcdef120c3e7513256ac68,TCN,2024-06-24_16h32.32.272,LearnStrategy,2023.2.3,Win32,60.60606061,7,1,12,0.0875,0.001666673,1,0,0,0.7018,rock_grid_rect_2,3,13,-1,-1,0.702,0.084583346,-0.239166705,1,0,0,2.0493,Diorite_rect,3,2.049,1,11,0,11,0,1,,,,,,,,,,,,,
65fcdef120c3e7513256ac68,TCN,2024-06-24_16h32.32.272,LearnStrategy,2023.2.3,Win32,60.60606061,7,1,13,0.083333333,0,1,0,0,0.7599,rock_grid_rect_2,8,04,-1,-1,0.76,0.47208341,-0.39375,1,0,0,1.1813,Pumice_rect,8,1.181,1,12,0,12,0,1,,,,,,,,,,,,,
65fcdef120c3e7513256ac68,TCN,2024-06-24_16h32.32.272,LearnStrategy,2023.2.3,Win32,60.60606061,7,1,14,0.047083346,-0.016250006,1,0,0,1.1842,rock_grid_rect_2,1,06,-1,-1,1.184,-0.062916629,-0.228750038,1,0,0,1.3443,Basalt_rect,2,1.344,0,13,0,13,0,1,,,,,,,,,,,,,
65fcdef120c3e7513256ac68,TCN,2024-06-24_16h32.32.272,LearnStrategy,2023.2.3,Win32,60.60606061,7,1,15,0.027500025,-0.003750006,1,0,0,0.7102,rock_grid_rect_2,2,02,-1,-1,0.71,-0.116666667,-0.252083333,1,0,0,2.2813,Basalt_rect,2,2.281,1,14,0,14,0,1,,,,,,,,,,,,,
65fcdef120c3e7513256ac68,TCN,2024-06-24_16h32.32.272,LearnStrategy,2023.2.3,Win32,60.60606061,7,1,16,0.044583321,-0.00041666,1,0,0,1.0957,rock_grid_rect_2,7,15,-1,-1,1.096,0.065833346,-0.410416667,1,0,0,1.2919,Peridotite_rect,7,1.292,1,15,0,15,0,1,,,,,,,,,,,,,
65fcdef120c3e7513256ac68,TCN,2024-06-24_16h32.32.272,LearnStrategy,2023.2.3,Win32,60.60606061,7,2,1,,,,,,,,8,06,,,,,,,,,,,8,1.058,1,,,,,,0.368333308,-0.390416654,1,0,0,1.0581,Pumice_rect,0,0,0,0,1,
65fcdef120c3e7513256ac68,TCN,2024-06-24_16h32.32.272,LearnStrategy,2023.2.3,Win32,60.60606061,7,2,2,,,,,,,,4,08,,,,,,,,,,,4,1.932,1,,,,,,0.389166641,-0.255833371,1,0,0,1.932,Gabbro_rect,1,0,1,0,1,
65fcdef120c3e7513256ac68,TCN,2024-06-24_16h32.32.272,LearnStrategy,2023.2.3,Win32,60.60606061,7,2,3,,,,,,,,6,12,,,,,,,,,,,6,1.353,1,,,,,,-0.104583295,-0.40625,1,0,0,1.3527,Pegmatite_rect,2,0,2,0,1,
65fcdef120c3e7513256ac68,TCN,2024-06-24_16h32.32.272,LearnStrategy,2023.2.3,Win32,60.60606061,7,2,4,,,,,,,,1,14,,,,,,,,,,,3,2.048,0,,,,,,0.145416705,-0.267499987,1,0,0,2.0483,Diorite_rect,3,0,3,0,1,
65fcdef120c3e7513256ac68,TCN,2024-06-24_16h32.32.272,LearnStrategy,2023.2.3,Win32,60.60606061,7,2,5,,,,,,,,2,16,,,,,,,,,,,2,3.45,1,,,,,,-0.073333295,-0.246250025,1,0,0,3.4504,Basalt_rect,4,0,4,0,1,
65fcdef120c3e7513256ac68,TCN,2024-06-24_16h32.32.272,LearnStrategy,2023.2.3,Win32,60.60606061,7,2,6,,,,,,,,5,14,,,,,,,,,,,5,1.147,1,,,,,,-0.325,-0.378750038,1,0,0,1.1466,Obsidian_rect,5,0,5,0,1,
65fcdef120c3e7513256ac68,TCN,2024-06-24_16h32.32.272,LearnStrategy,2023.2.3,Win32,60.60606061,7,2,7,,,,,,,,4,03,,,,,,,,,,,3,2.045,0,,,,,,0.209583346,-0.252916654,1,0,0,2.0453,Diorite_rect,6,0,6,0,1,
65fcdef120c3e7513256ac68,TCN,2024-06-24_16h32.32.272,LearnStrategy,2023.2.3,Win32,60.60606061,7,2,8,,,,,,,,2,08,,,,,,,,,,,2,1.844,1,,,,,,-0.063333321,-0.252083333,1,0,0,1.8437,Basalt_rect,7,0,7,0,1,
65fcdef120c3e7513256ac68,TCN,2024-06-24_16h32.32.272,LearnStrategy,2023.2.3,Win32,60.60606061,7,2,9,,,,,,,,1,10,,,,,,,,,,,4,1.374,0,,,,,,0.371666718,-0.238750013,1,0,0,1.3743,Gabbro_rect,8,0,8,0,1,
65fcdef120c3e7513256ac68,TCN,2024-06-24_16h32.32.272,LearnStrategy,2023.2.3,Win32,60.60606061,7,2,10,,,,,,,,6,07,,,,,,,,,,,6,1.079,1,,,,,,-0.048749987,-0.390833346,1,0,0,1.0793,Pegmatite_rect,9,0,9,0,1,
65fcdef120c3e7513256ac68,TCN,2024-06-24_16h32.32.272,LearnStrategy,2023.2.3,Win32,60.60606061,7,2,11,,,,,,,,3,02,,,,,,,,,,,3,1.203,1,,,,,,0.121250025,-0.238333321,1,0,0,1.2034,Diorite_rect,10,0,10,0,1,
65fcdef120c3e7513256ac68,TCN,2024-06-24_16h32.32.272,LearnStrategy,2023.2.3,Win32,60.60606061,7,2,12,,,,,,,,7,12,,,,,,,,,,,6,1.458,0,,,,,,-0.072499975,-0.393333371,1,0,0,1.458,Pegmatite_rect,11,0,11,0,1,
65fcdef120c3e7513256ac68,TCN,2024-06-24_16h32.32.272,LearnStrategy,2023.2.3,Win32,60.60606061,7,2,13,,,,,,,,5,06,,,,,,,,,,,5,1.027,1,,,,,,-0.315416654,-0.395833333,1,0,0,1.027,Obsidian_rect,12,0,12,0,1,
65fcdef120c3e7513256ac68,TCN,2024-06-24_16h32.32.272,LearnStrategy,2023.2.3,Win32,60.60606061,7,2,14,,,,,,,,8,15,,,,,,,,,,,8,1.233,1,,,,,,0.328749975,-0.401250013,1,0,0,1.2334,Pumice_rect,13,0,13,0,1,
65fcdef120c3e7513256ac68,TCN,2024-06-24_16h32.32.272,LearnStrategy,2023.2.3,Win32,60.60606061,7,2,15,,,,,,,,7,02,,,,,,,,,,,7,2.207,1,,,,,,0.143333371,-0.40625,1,0,0,2.2069,Peridotite_rect,14,0,14,0,1,
65fcdef120c3e7513256ac68,TCN,2024-06-24_16h32.32.272,LearnStrategy,2023.2.3,Win32,60.60606061,7,2,16,,,,,,,,3,10,,,,,,,,,,,4,1.765,0,,,,,,0.339166641,-0.260000038,1,0,0,1.7655,Gabbro_rect,15,0,15,0,1,
65fcdef120c3e7513256ac68,TCN,2024-06-24_16h32.32.272,LearnStrategy,2023.2.3,Win32,60.60606061,8,1,1,0.057083321,0.007499981,1,0,0,0.8179,rock_grid_rect_2,5,04,-1,-1,0.818,-0.369583321,-0.387083371,1,0,0,1.1911,Obsidian_rect,5,1.191,1,0,0,0,0,1,,,,,,,,,,,,,
65fcdef120c3e7513256ac68,TCN,2024-06-24_16h32.32.272,LearnStrategy,2023.2.3,Win32,60.60606061,8,1,2,0.066666667,0.001249981,1,0,0,0.7592,rock_grid_rect_2,4,05,-1,-1,0.759,-0.10625,-0.394583321,1,0,0,1.7451,Pegmatite_rect,6,1.745,0,1,0,1,0,1,,,,,,,,,,,,,
65fcdef120c3e7513256ac68,TCN,2024-06-24_16h32.32.272,LearnStrategy,2023.2.3,Win32,60.60606061,8,1,3,0.04375,-0.005000019,1,0,0,0.9627,rock_grid_rect_2,2,09,-1,-1,0.963,-0.084583346,-0.252083333,1,0,0,1.8087,Basalt_rect,2,1.809,1,2,0,2,0,1,,,,,,,,,,,,,
65fcdef120c3e7513256ac68,TCN,2024-06-24_16h32.32.272,LearnStrategy,2023.2.3,Win32,60.60606061,8,1,4,0.059583346,0.004999987,1,0,0,0.8837,rock_grid_rect_2,1,11,-1,-1,0.884,-0.348333327,-0.247083346,1,0,0,0.8781,Andesite_rect,1,0.878,1,3,0,3,0,1,,,,,,,,,,,,,
65fcdef120c3e7513256ac68,TCN,2024-06-24_16h32.32.272,LearnStrategy,2023.2.3,Win32,60.60606061,8,1,5,0.028333346,0.007083321,1,0,0,0.6675,rock_grid_rect_2,6,05,-1,-1,0.668,-0.097916667,-0.380416679,1,0,0,1.1684,Pegmatite_rect,6,1.168,1,4,0,4,0,1,,,,,,,,,,,,,
65fcdef120c3e7513256ac68,TCN,2024-06-24_16h32.32.272,LearnStrategy,2023.2.3,Win32,60.60606061,8,1,6,0.077500025,0.004999987,1,0,0,0.7837,rock_grid_rect_2,5,05,-1,-1,0.784,-0.340833314,-0.383750025,1,0,0,1.7644,Obsidian_rect,5,1.764,1,5,0,5,0,1,,,,,,,,,,,,,
65fcdef120c3e7513256ac68,TCN,2024-06-24_16h32.32.272,LearnStrategy,2023.2.3,Win32,60.60606061,8,1,7,0.045833333,-0.000833352,1,0,0,0.9061,rock_grid_rect_2,8,14,-1,-1,0.906,0.37833341,-0.414583333,1,0,0,1.9823,Pumice_rect,8,1.982,1,6,0,6,0,1,,,,,,,,,,,,,
65fcdef120c3e7513256ac68,TCN,2024-06-24_16h32.32.272,LearnStrategy,2023.2.3,Win32,60.60606061,8,1,8,-0.002916654,-0.014583333,1,0,0,0.6796,rock_grid_rect_2,7,10,-1,-1,0.68,0.083750025,-0.399583371,1,0,0,1.7985,Peridotite_rect,7,1.798,1,7,0,7,0,1,,,,,,,,,,,,,
65fcdef120c3e7513256ac68,TCN,2024-06-24_16h32.32.272,LearnStrategy,2023.2.3,Win32,60.60606061,8,1,9,0.039583333,-0.004166667,1,0,0,0.7516,rock_grid_rect_2,3,15,-1,-1,0.752,0.102083333,-0.233750025,1,0,0,1.2058,Diorite_rect,3,1.206,1,8,0,8,0,1,,,,,,,,,,,,,
65fcdef120c3e7513256ac68,TCN,2024-06-24_16h32.32.272,LearnStrategy,2023.2.3,Win32,60.60606061,8,1,10,0.040000025,0.020416673,1,0,0,0.8232,rock_grid_rect_2,6,10,-1,-1,0.823,0.123333359,-0.404583359,1,0,0,2.2866,Peridotite_rect,7,2.287,0,9,0,9,0,1,,,,,,,,,,,,,
65fcdef120c3e7513256ac68,TCN,2024-06-24_16h32.32.272,LearnStrategy,2023.2.3,Win32,60.60606061,8,1,11,0.04375,0.002499994,1,0,0,0.819,rock_grid_rect_2,1,01,-1,-1,0.819,0.181666692,-0.240416654,1,0,0,1.5917,Diorite_rect,3,1.592,0,10,0,10,0,1,,,,,,,,,,,,,
65fcdef120c3e7513256ac68,TCN,2024-06-24_16h32.32.272,LearnStrategy,2023.2.3,Win32,60.60606061,8,1,12,0.058333333,-0.005416679,1,0,0,0.7837,rock_grid_rect_2,3,16,-1,-1,0.784,0.117499987,-0.264583333,1,0,0,0.9672,Diorite_rect,3,0.967,1,11,0,11,0,1,,,,,,,,,,,,,
65fcdef120c3e7513256ac68,TCN,2024-06-24_16h32.32.272,LearnStrategy,2023.2.3,Win32,60.60606061,8,1,13,0.034583346,-0.002499994,1,0,0,1.1245,rock_grid_rect_2,8,16,-1,-1,1.125,0.36875,-0.404583359,1,0,0,1.5367,Pumice_rect,8,1.537,1,12,0,12,0,1,,,,,,,,,,,,,
65fcdef120c3e7513256ac68,TCN,2024-06-24_16h32.32.272,LearnStrategy,2023.2.3,Win32,60.60606061,8,1,14,0.075416692,-0.004166667,1,0,0,1.3308,rock_grid_rect_2,2,14,-1,-1,1.331,0.364583333,-0.403333346,1,0,0,1.8875,Pumice_rect,8,1.888,0,13,0,13,0,1,,,,,,,,,,,,,
65fcdef120c3e7513256ac68,TCN,2024-06-24_16h32.32.272,LearnStrategy,2023.2.3,Win32,60.60606061,8,1,15,0.067916679,0.022500006,1,0,0,0.7102,rock_grid_rect_2,7,16,-1,-1,0.71,-0.059166654,-0.395833333,1,0,0,2.3468,Pegmatite_rect,6,2.347,0,14,0,14,0,1,,,,,,,,,,,,,
65fcdef120c3e7513256ac68,TCN,2024-06-24_16h32.32.272,LearnStrategy,2023.2.3,Win32,60.60606061,8,1,16,0.081666692,-0.01875,1,0,0,0.9501,rock_grid_rect_2,4,16,-1,-1,0.95,-0.086249987,-0.240416654,1,0,0,1.0321,Basalt_rect,2,1.032,0,15,0,15,0,1,,,,,,,,,,,,,
65fcdef120c3e7513256ac68,TCN,2024-06-24_16h32.32.272,LearnStrategy,2023.2.3,Win32,60.60606061,8,2,1,,,,,,,,6,09,,,,,,,,,,,6,1.827,1,,,,,,-0.087083308,-0.4,1,0,0,1.8274,Pegmatite_rect,0,0,0,0,1,
65fcdef120c3e7513256ac68,TCN,2024-06-24_16h32.32.272,LearnStrategy,2023.2.3,Win32,60.60606061,8,2,2,,,,,,,,1,03,,,,,,,,,,,2,1.418,0,,,,,,-0.064166641,-0.271666654,1,0,0,1.418,Basalt_rect,1,0,1,0,1,
65fcdef120c3e7513256ac68,TCN,2024-06-24_16h32.32.272,LearnStrategy,2023.2.3,Win32,60.60606061,8,2,3,,,,,,,,5,07,,,,,,,,,,,5,1.039,1,,,,,,-0.344999981,-0.397500038,1,0,0,1.0393,Obsidian_rect,2,0,2,0,1,
65fcdef120c3e7513256ac68,TCN,2024-06-24_16h32.32.272,LearnStrategy,2023.2.3,Win32,60.60606061,8,2,4,,,,,,,,4,14,,,,,,,,,,,2,2.467,0,,,,,,-0.144166629,-0.264166705,1,0,0,2.4671,Basalt_rect,3,0,3,0,1,
65fcdef120c3e7513256ac68,TCN,2024-06-24_16h32.32.272,LearnStrategy,2023.2.3,Win32,60.60606061,8,2,5,,,,,,,,3,14,,,,,,,,,,,3,1.055,1,,,,,,0.090416654,-0.255833371,1,0,0,1.055,Diorite_rect,4,0,4,0,1,
65fcdef120c3e7513256ac68,TCN,2024-06-24_16h32.32.272,LearnStrategy,2023.2.3,Win32,60.60606061,8,2,6,,,,,,,,8,10,,,,,,,,,,,1,2.455,0,,,,,,-0.392083327,-0.261666679,1,0,0,2.4548,Andesite_rect,5,0,5,0,1,
65fcdef120c3e7513256ac68,TCN,2024-06-24_16h32.32.272,LearnStrategy,2023.2.3,Win32,60.60606061,8,2,7,,,,,,,,7,06,,,,,,,,,,,6,1.71,0,,,,,,-0.134999975,-0.408333333,1,0,0,1.7103,Pegmatite_rect,6,0,6,0,1,
65fcdef120c3e7513256ac68,TCN,2024-06-24_16h32.32.272,LearnStrategy,2023.2.3,Win32,60.60606061,8,2,8,,,,,,,,2,10,,,,,,,,,,,2,2.337,1,,,,,,-0.109999975,-0.23125,1,0,0,2.3374,Basalt_rect,7,0,7,0,1,
65fcdef120c3e7513256ac68,TCN,2024-06-24_16h32.32.272,LearnStrategy,2023.2.3,Win32,60.60606061,8,2,9,,,,,,,,2,01,,,,,,,,,,,2,1.041,1,,,,,,-0.098749987,-0.239583333,1,0,0,1.0411,Basalt_rect,8,0,8,0,1,
65fcdef120c3e7513256ac68,TCN,2024-06-24_16h32.32.272,LearnStrategy,2023.2.3,Win32,60.60606061,8,2,10,,,,,,,,6,16,,,,,,,,,,,6,1.028,1,,,,,,-0.086666679,-0.383750025,1,0,0,1.028,Pegmatite_rect,9,0,9,0,1,
65fcdef120c3e7513256ac68,TCN,2024-06-24_16h32.32.272,LearnStrategy,2023.2.3,Win32,60.60606061,8,2,11,,,,,,,,3,12,,,,,,,,,,,4,2.896,0,,,,,,0.334999975,-0.246250025,1,0,0,2.8955,Gabbro_rect,10,0,10,0,1,
65fcdef120c3e7513256ac68,TCN,2024-06-24_16h32.32.272,LearnStrategy,2023.2.3,Win32,60.60606061,8,2,12,,,,,,,,5,12,,,,,,,,,,,5,1.485,1,,,,,,-0.38125,-0.409583346,1,0,0,1.4846,Obsidian_rect,11,0,11,0,1,
65fcdef120c3e7513256ac68,TCN,2024-06-24_16h32.32.272,LearnStrategy,2023.2.3,Win32,60.60606061,8,2,13,,,,,,,,4,09,,,,,,,,,,,2,1.969,0,,,,,,-0.061666679,-0.242499987,1,0,0,1.9695,Basalt_rect,12,0,12,0,1,
65fcdef120c3e7513256ac68,TCN,2024-06-24_16h32.32.272,LearnStrategy,2023.2.3,Win32,60.60606061,8,2,14,,,,,,,,1,02,,,,,,,,,,,6,1.341,0,,,,,,-0.077083333,-0.385416667,1,0,0,1.3407,Pegmatite_rect,13,0,13,0,1,
65fcdef120c3e7513256ac68,TCN,2024-06-24_16h32.32.272,LearnStrategy,2023.2.3,Win32,60.60606061,8,2,15,,,,,,,,7,07,,,,,,,,,,,7,1.069,1,,,,,,0.054583359,-0.401250013,1,0,0,1.0692,Peridotite_rect,14,0,14,0,1,
65fcdef120c3e7513256ac68,TCN,2024-06-24_16h32.32.272,LearnStrategy,2023.2.3,Win32,60.60606061,8,2,16,,,,,,,,8,08,,,,,,,,,,,1,1.454,0,,,,,,-0.342499987,-0.269583321,1,0,0,1.454,Andesite_rect,15,0,15,0,1,
65fcdef120c3e7513256ac68,TCN,2024-06-24_16h32.32.272,LearnStrategy,2023.2.3,Win32,60.60606061,9,1,1,-0.032916641,-0.003333346,1,0,0,0.87,rock_grid_rect_2,8,13,-1,-1,0.87,0.380833308,-0.38125,1,0,0,1.5033,Pumice_rect,8,1.503,1,0,0,0,0,1,,,,,,,,,,,,,
65fcdef120c3e7513256ac68,TCN,2024-06-24_16h32.32.272,LearnStrategy,2023.2.3,Win32,60.60606061,9,1,2,0.070000013,0.004166667,1,0,0,1.1775,rock_grid_rect_2,1,04,-1,-1,1.178,-0.345833333,-0.239583333,1,0,0,3.1793,Andesite_rect,1,3.179,1,1,0,1,0,1,,,,,,,,,,,,,
65fcdef120c3e7513256ac68,TCN,2024-06-24_16h32.32.272,LearnStrategy,2023.2.3,Win32,60.60606061,9,1,3,0.114583333,-0.007083352,1,0,0,1.0234,rock_grid_rect_2,2,05,-1,-1,1.023,-0.087083308,-0.254999987,1,0,0,1.2925,Basalt_rect,2,1.293,1,2,0,2,0,1,,,,,,,,,,,,,
65fcdef120c3e7513256ac68,TCN,2024-06-24_16h32.32.272,LearnStrategy,2023.2.3,Win32,60.60606061,9,1,4,0.065000025,0.002499994,1,0,0,0.7904,rock_grid_rect_2,7,13,-1,-1,0.79,0.196250025,-0.383333333,1,0,0,1.1489,Peridotite_rect,7,1.149,1,3,0,3,0,1,,,,,,,,,,,,,
65fcdef120c3e7513256ac68,TCN,2024-06-24_16h32.32.272,LearnStrategy,2023.2.3,Win32,60.60606061,9,1,5,0.084583346,-0.010833327,1,0,0,0.7121,rock_grid_rect_2,5,08,-1,-1,0.712,-0.359166654,-0.402916654,1,0,0,1.3743,Obsidian_rect,5,1.374,1,4,0,4,0,1,,,,,,,,,,,,,
65fcdef120c3e7513256ac68,TCN,2024-06-24_16h32.32.272,LearnStrategy,2023.2.3,Win32,60.60606061,9,1,6,0.079999987,-0.008333333,1,0,0,0.7308,rock_grid_rect_2,5,16,-1,-1,0.731,-0.325833321,-0.383333333,1,0,0,1.2216,Obsidian_rect,5,1.222,1,5,0,5,0,1,,,,,,,,,,,,,
65fcdef120c3e7513256ac68,TCN,2024-06-24_16h32.32.272,LearnStrategy,2023.2.3,Win32,60.60606061,9,1,7,0.083750025,0.007916673,1,0,0,0.732,rock_grid_rect_2,3,09,-1,-1,0.732,0.135000038,-0.25,1,0,0,0.9608,Diorite_rect,3,0.961,1,6,0,6,0,1,,,,,,,,,,,,,
65fcdef120c3e7513256ac68,TCN,2024-06-24_16h32.32.272,LearnStrategy,2023.2.3,Win32,60.60606061,9,1,8,0.086666679,-0.017500019,1,0,0,1.1494,rock_grid_rect_2,3,06,-1,-1,1.149,0.361250051,-0.244583321,1,0,0,2.0656,Gabbro_rect,4,2.066,0,7,0,7,0,1,,,,,,,,,,,,,
65fcdef120c3e7513256ac68,TCN,2024-06-24_16h32.32.272,LearnStrategy,2023.2.3,Win32,60.60606061,9,1,9,0.117083359,0.017916648,1,0,0,0.7672,rock_grid_rect_2,2,11,-1,-1,0.767,0.467083359,-0.257916705,1,0,0,2.1916,Gabbro_rect,4,2.192,0,8,0,8,0,1,,,,,,,,,,,,,
65fcdef120c3e7513256ac68,TCN,2024-06-24_16h32.32.272,LearnStrategy,2023.2.3,Win32,60.60606061,9,1,10,0.168333371,-0.011250019,1,0,0,0.9968,rock_grid_rect_2,8,09,-1,-1,0.997,0.422499975,-0.390416654,1,0,0,2.3049,Pumice_rect,8,2.305,1,9,0,9,0,1,,,,,,,,,,,,,
65fcdef120c3e7513256ac68,TCN,2024-06-24_16h32.32.272,LearnStrategy,2023.2.3,Win32,60.60606061,9,1,11,0.122916667,0.008749994,1,0,0,1.0756,rock_grid_rect_2,4,15,-1,-1,1.076,0.410833359,-0.240000025,1,0,0,2.8002,Gabbro_rect,4,2.8,1,10,0,10,0,1,,,,,,,,,,,,,
65fcdef120c3e7513256ac68,TCN,2024-06-24_16h32.32.272,LearnStrategy,2023.2.3,Win32,60.60606061,9,1,12,0.083333333,0.001666673,1,0,0,1.1314,rock_grid_rect_2,4,10,-1,-1,1.131,-0.097083346,-0.254166667,1,0,0,1.6244,Basalt_rect,2,1.624,0,11,0,11,0,1,,,,,,,,,,,,,
65fcdef120c3e7513256ac68,TCN,2024-06-24_16h32.32.272,LearnStrategy,2023.2.3,Win32,60.60606061,9,1,13,0.097500038,-0.005000019,1,0,0,0.7803,rock_grid_rect_2,1,05,-1,-1,0.78,-0.060416667,-0.379583359,1,0,0,1.9542,Pegmatite_rect,6,1.954,0,12,0,12,0,1,,,,,,,,,,,,,
65fcdef120c3e7513256ac68,TCN,2024-06-24_16h32.32.272,LearnStrategy,2023.2.3,Win32,60.60606061,9,1,14,0.092916679,-0.014166673,1,0,0,0.7752,rock_grid_rect_2,6,13,-1,-1,0.775,-0.089166641,-0.380833371,1,0,0,1.3398,Pegmatite_rect,6,1.34,1,13,0,13,0,1,,,,,,,,,,,,,
65fcdef120c3e7513256ac68,TCN,2024-06-24_16h32.32.272,LearnStrategy,2023.2.3,Win32,60.60606061,9,1,15,0.123749987,0.00666666,1,0,0,0.6317,rock_grid_rect_2,7,05,-1,-1,0.632,0.115416654,-0.4,1,0,0,1.4292,Peridotite_rect,7,1.429,1,14,0,14,0,1,,,,,,,,,,,,,
65fcdef120c3e7513256ac68,TCN,2024-06-24_16h32.32.272,LearnStrategy,2023.2.3,Win32,60.60606061,9,1,16,0.093333371,-0.015416686,1,0,0,0.7009,rock_grid_rect_2,6,06,-1,-1,0.701,-0.124166679,-0.399583371,1,0,0,1.1701,Pegmatite_rect,6,1.17,1,15,0,15,0,1,,,,,,,,,,,,,
65fcdef120c3e7513256ac68,TCN,2024-06-24_16h32.32.272,LearnStrategy,2023.2.3,Win32,60.60606061,9,2,1,,,,,,,,6,03,,,,,,,,,,,7,1.51,0,,,,,,0.185833359,-0.408333333,1,0,0,1.5098,Peridotite_rect,0,0,0,0,1,
65fcdef120c3e7513256ac68,TCN,2024-06-24_16h32.32.272,LearnStrategy,2023.2.3,Win32,60.60606061,9,2,2,,,,,,,,5,11,,,,,,,,,,,5,0.944,1,,,,,,-0.340833314,-0.384166654,1,0,0,0.9436,Obsidian_rect,1,0,1,0,1,
65fcdef120c3e7513256ac68,TCN,2024-06-24_16h32.32.272,LearnStrategy,2023.2.3,Win32,60.60606061,9,2,3,,,,,,,,8,03,,,,,,,,,,,8,1.316,1,,,,,,0.320416641,-0.405416679,1,0,0,1.316,Pumice_rect,2,0,2,0,1,
65fcdef120c3e7513256ac68,TCN,2024-06-24_16h32.32.272,LearnStrategy,2023.2.3,Win32,60.60606061,9,2,4,,,,,,,,3,11,,,,,,,,,,,3,1.982,1,,,,,,0.150416692,-0.258750025,1,0,0,1.9823,Diorite_rect,3,0,3,0,1,
65fcdef120c3e7513256ac68,TCN,2024-06-24_16h32.32.272,LearnStrategy,2023.2.3,Win32,60.60606061,9,2,5,,,,,,,,3,08,,,,,,,,,,,3,1.059,1,,,,,,0.150416692,-0.258750025,1,0,0,1.059,Diorite_rect,4,0,4,0,1,
65fcdef120c3e7513256ac68,TCN,2024-06-24_16h32.32.272,LearnStrategy,2023.2.3,Win32,60.60606061,9,2,6,,,,,,,,7,08,,,,,,,,,,,6,2.398,0,,,,,,-0.110833295,-0.395833333,1,0,0,2.3981,Pegmatite_rect,5,0,5,0,1,
65fcdef120c3e7513256ac68,TCN,2024-06-24_16h32.32.272,LearnStrategy,2023.2.3,Win32,60.60606061,9,2,7,,,,,,,,2,04,,,,,,,,,,,2,1.273,1,,,,,,-0.080416679,-0.243333371,1,0,0,1.2733,Basalt_rect,6,0,6,0,1,
65fcdef120c3e7513256ac68,TCN,2024-06-24_16h32.32.272,LearnStrategy,2023.2.3,Win32,60.60606061,9,2,8,,,,,,,,5,09,,,,,,,,,,,5,1.013,1,,,,,,-0.382499981,-0.405833371,1,0,0,1.0134,Obsidian_rect,7,0,7,0,1,
65fcdef120c3e7513256ac68,TCN,2024-06-24_16h32.32.272,LearnStrategy,2023.2.3,Win32,60.60606061,9,2,9,,,,,,,,7,04,,,,,,,,,,,6,1.163,0,,,,,,-0.098749987,-0.409166654,1,0,0,1.1633,Pegmatite_rect,8,0,8,0,1,
65fcdef120c3e7513256ac68,TCN,2024-06-24_16h32.32.272,LearnStrategy,2023.2.3,Win32,60.60606061,9,2,10,,,,,,,,8,02,,,,,,,,,,,8,1.427,1,,,,,,0.319583384,-0.382083321,1,0,0,1.4266,Pumice_rect,9,0,9,0,1,
65fcdef120c3e7513256ac68,TCN,2024-06-24_16h32.32.272,LearnStrategy,2023.2.3,Win32,60.60606061,9,2,11,,,,,,,,4,11,,,,,,,,,,,4,1.749,1,,,,,,0.344166692,-0.246250025,1,0,0,1.749,Gabbro_rect,10,0,10,0,1,
65fcdef120c3e7513256ac68,TCN,2024-06-24_16h32.32.272,LearnStrategy,2023.2.3,Win32,60.60606061,9,2,12,,,,,,,,1,16,,,,,,,,,,,6,3.478,0,,,,,,-0.044583321,-0.407916705,1,0,0,3.4777,Pegmatite_rect,11,0,11,0,1,
65fcdef120c3e7513256ac68,TCN,2024-06-24_16h32.32.272,LearnStrategy,2023.2.3,Win32,60.60606061,9,2,13,,,,,,,,6,11,,,,,,,,,,,6,1.573,1,,,,,,-0.084166654,-0.390416654,1,0,0,1.573,Pegmatite_rect,12,0,12,0,1,
65fcdef120c3e7513256ac68,TCN,2024-06-24_16h32.32.272,LearnStrategy,2023.2.3,Win32,60.60606061,9,2,14,,,,,,,,2,12,,,,,,,,,,,2,2.331,1,,,,,,-0.055416679,-0.2375,1,0,0,2.3312,Basalt_rect,13,0,13,0,1,
65fcdef120c3e7513256ac68,TCN,2024-06-24_16h32.32.272,LearnStrategy,2023.2.3,Win32,60.60606061,9,2,15,,,,,,,,4,13,,,,,,,,,,,1,3.038,0,,,,,,-0.355416648,-0.260833359,1,0,0,3.0377,Andesite_rect,14,0,14,0,1,
65fcdef120c3e7513256ac68,TCN,2024-06-24_16h32.32.272,LearnStrategy,2023.2.3,Win32,60.60606061,9,2,16,,,,,,,,1,07,,,,,,,,,,,3,1.258,0,,,,,,0.198749987,-0.270416705,1,0,0,1.2582,Diorite_rect,15,0,15,0,1,
65fcdef120c3e7513256ac68,TCN,2024-06-24_16h32.32.272,LearnStrategy,2023.2.3,Win32,60.60606061,,,,,,,,,,,,,,,,,,,,,,,,,,,,,,,,,,,,,,,,,,,0
65fcdef120c3e7513256ac68,TCN,2024-06-24_16h32.32.272,LearnStrategy,2023.2.3,Win32,60.60606061,,,,,,,,,,,,,,,,,,,,,,,,,,,,,,,,,,,,,,,,,,,
65fcdef120c3e7513256ac68,TCN,2024-06-24_16h32.32.272,LearnStrategy,2023.2.3,Win32,60.60606061,,,,,,,,,,,8,14,1,1,,,,,,,,,,,,,,,,,,,,,,,,,,,,,
65fcdef120c3e7513256ac68,TCN,2024-06-24_16h32.32.272,LearnStrategy,2023.2.3,Win32,60.60606061,,,,,,,,,,,2,11,1,2,,,,,,,,,,,,,,,,,,,,,,,,,,,,,
65fcdef120c3e7513256ac68,TCN,2024-06-24_16h32.32.272,LearnStrategy,2023.2.3,Win32,60.60606061,,,,,,,,,,,5,04,1,3,,,,,,,,,,,,,,,,,,,,,,,,,,,,,
65fcdef120c3e7513256ac68,TCN,2024-06-24_16h32.32.272,LearnStrategy,2023.2.3,Win32,60.60606061,,,,,,,,,,,6,15,1,4,,,,,,,,,,,,,,,,,,,,,,,,,,,,,
65fcdef120c3e7513256ac68,TCN,2024-06-24_16h32.32.272,LearnStrategy,2023.2.3,Win32,60.60606061,,,,,,,,,,,6,10,1,5,,,,,,,,,,,,,,,,,,,,,,,,,,,,,
65fcdef120c3e7513256ac68,TCN,2024-06-24_16h32.32.272,LearnStrategy,2023.2.3,Win32,60.60606061,,,,,,,,,,,5,02,1,6,,,,,,,,,,,,,,,,,,,,,,,,,,,,,
65fcdef120c3e7513256ac68,TCN,2024-06-24_16h32.32.272,LearnStrategy,2023.2.3,Win32,60.60606061,,,,,,,,,,,7,05,1,7,,,,,,,,,,,,,,,,,,,,,,,,,,,,,
65fcdef120c3e7513256ac68,TCN,2024-06-24_16h32.32.272,LearnStrategy,2023.2.3,Win32,60.60606061,,,,,,,,,,,2,06,1,8,,,,,,,,,,,,,,,,,,,,,,,,,,,,,
65fcdef120c3e7513256ac68,TCN,2024-06-24_16h32.32.272,LearnStrategy,2023.2.3,Win32,60.60606061,,,,,,,,,,,6,06,2,1,,,,,,,,,,,,,,,,,,,,,,,,,,,,,
65fcdef120c3e7513256ac68,TCN,2024-06-24_16h32.32.272,LearnStrategy,2023.2.3,Win32,60.60606061,,,,,,,,,,,5,08,2,2,,,,,,,,,,,,,,,,,,,,,,,,,,,,,
65fcdef120c3e7513256ac68,TCN,2024-06-24_16h32.32.272,LearnStrategy,2023.2.3,Win32,60.60606061,,,,,,,,,,,1,09,2,3,,,,,,,,,,,,,,,,,,,,,,,,,,,,,
65fcdef120c3e7513256ac68,TCN,2024-06-24_16h32.32.272,LearnStrategy,2023.2.3,Win32,60.60606061,,,,,,,,,,,8,05,2,4,,,,,,,,,,,,,,,,,,,,,,,,,,,,,
65fcdef120c3e7513256ac68,TCN,2024-06-24_16h32.32.272,LearnStrategy,2023.2.3,Win32,60.60606061,,,,,,,,,,,2,02,2,5,,,,,,,,,,,,,,,,,,,,,,,,,,,,,
65fcdef120c3e7513256ac68,TCN,2024-06-24_16h32.32.272,LearnStrategy,2023.2.3,Win32,60.60606061,,,,,,,,,,,8,16,2,6,,,,,,,,,,,,,,,,,,,,,,,,,,,,,
65fcdef120c3e7513256ac68,TCN,2024-06-24_16h32.32.272,LearnStrategy,2023.2.3,Win32,60.60606061,,,,,,,,,,,3,13,2,7,,,,,,,,,,,,,,,,,,,,,,,,,,,,,
65fcdef120c3e7513256ac68,TCN,2024-06-24_16h32.32.272,LearnStrategy,2023.2.3,Win32,60.60606061,,,,,,,,,,,1,06,2,8,,,,,,,,,,,,,,,,,,,,,,,,,,,,,
65fcdef120c3e7513256ac68,TCN,2024-06-24_16h32.32.272,LearnStrategy,2023.2.3,Win32,60.60606061,,,,,,,,,,,8,04,3,1,,,,,,,,,,,,,,,,,,,,,,,,,,,,,
65fcdef120c3e7513256ac68,TCN,2024-06-24_16h32.32.272,LearnStrategy,2023.2.3,Win32,60.60606061,,,,,,,,,,,4,12,3,2,,,,,,,,,,,,,,,,,,,,,,,,,,,,,
65fcdef120c3e7513256ac68,TCN,2024-06-24_16h32.32.272,LearnStrategy,2023.2.3,Win32,60.60606061,,,,,,,,,,,5,16,3,3,,,,,,,,,,,,,,,,,,,,,,,,,,,,,
65fcdef120c3e7513256ac68,TCN,2024-06-24_16h32.32.272,LearnStrategy,2023.2.3,Win32,60.60606061,,,,,,,,,,,2,05,3,4,,,,,,,,,,,,,,,,,,,,,,,,,,,,,
65fcdef120c3e7513256ac68,TCN,2024-06-24_16h32.32.272,LearnStrategy,2023.2.3,Win32,60.60606061,,,,,,,,,,,2,14,3,5,,,,,,,,,,,,,,,,,,,,,,,,,,,,,
65fcdef120c3e7513256ac68,TCN,2024-06-24_16h32.32.272,LearnStrategy,2023.2.3,Win32,60.60606061,,,,,,,,,,,3,15,3,6,,,,,,,,,,,,,,,,,,,,,,,,,,,,,
65fcdef120c3e7513256ac68,TCN,2024-06-24_16h32.32.272,LearnStrategy,2023.2.3,Win32,60.60606061,,,,,,,,,,,6,13,3,7,,,,,,,,,,,,,,,,,,,,,,,,,,,,,
65fcdef120c3e7513256ac68,TCN,2024-06-24_16h32.32.272,LearnStrategy,2023.2.3,Win32,60.60606061,,,,,,,,,,,1,11,3,8,,,,,,,,,,,,,,,,,,,,,,,,,,,,,
65fcdef120c3e7513256ac68,TCN,2024-06-24_16h32.32.272,LearnStrategy,2023.2.3,Win32,60.60606061,,,,,,,,,,,6,08,4,1,,,,,,,,,,,,,,,,,,,,,,,,,,,,,
65fcdef120c3e7513256ac68,TCN,2024-06-24_16h32.32.272,LearnStrategy,2023.2.3,Win32,60.60606061,,,,,,,,,,,1,04,4,2,,,,,,,,,,,,,,,,,,,,,,,,,,,,,
65fcdef120c3e7513256ac68,TCN,2024-06-24_16h32.32.272,LearnStrategy,2023.2.3,Win32,60.60606061,,,,,,,,,,,7,10,4,3,,,,,,,,,,,,,,,,,,,,,,,,,,,,,
65fcdef120c3e7513256ac68,TCN,2024-06-24_16h32.32.272,LearnStrategy,2023.2.3,Win32,60.60606061,,,,,,,,,,,3,09,4,4,,,,,,,,,,,,,,,,,,,,,,,,,,,,,
65fcdef120c3e7513256ac68,TCN,2024-06-24_16h32.32.272,LearnStrategy,2023.2.3,Win32,60.60606061,,,,,,,,,,,5,10,4,5,,,,,,,,,,,,,,,,,,,,,,,,,,,,,
65fcdef120c3e7513256ac68,TCN,2024-06-24_16h32.32.272,LearnStrategy,2023.2.3,Win32,60.60606061,,,,,,,,,,,7,14,4,6,,,,,,,,,,,,,,,,,,,,,,,,,,,,,
65fcdef120c3e7513256ac68,TCN,2024-06-24_16h32.32.272,LearnStrategy,2023.2.3,Win32,60.60606061,,,,,,,,,,,5,05,4,7,,,,,,,,,,,,,,,,,,,,,,,,,,,,,
65fcdef120c3e7513256ac68,TCN,2024-06-24_16h32.32.272,LearnStrategy,2023.2.3,Win32,60.60606061,,,,,,,,,,,3,07,4,8,,,,,,,,,,,,,,,,,,,,,,,,,,,,,
65fcdef120c3e7513256ac68,TCN,2024-06-24_16h32.32.272,LearnStrategy,2023.2.3,Win32,60.60606061,,,,,,,,,,,2,09,5,1,,,,,,,,,,,,,,,,,,,,,,,,,,,,,
65fcdef120c3e7513256ac68,TCN,2024-06-24_16h32.32.272,LearnStrategy,2023.2.3,Win32,60.60606061,,,,,,,,,,,3,16,5,2,,,,,,,,,,,,,,,,,,,,,,,,,,,,,
65fcdef120c3e7513256ac68,TCN,2024-06-24_16h32.32.272,LearnStrategy,2023.2.3,Win32,60.60606061,,,,,,,,,,,4,05,5,3,,,,,,,,,,,,,,,,,,,,,,,,,,,,,
65fcdef120c3e7513256ac68,TCN,2024-06-24_16h32.32.272,LearnStrategy,2023.2.3,Win32,60.60606061,,,,,,,,,,,7,15,5,4,,,,,,,,,,,,,,,,,,,,,,,,,,,,,
65fcdef120c3e7513256ac68,TCN,2024-06-24_16h32.32.272,LearnStrategy,2023.2.3,Win32,60.60606061,,,,,,,,,,,1,05,5,5,,,,,,,,,,,,,,,,,,,,,,,,,,,,,
65fcdef120c3e7513256ac68,TCN,2024-06-24_16h32.32.272,LearnStrategy,2023.2.3,Win32,60.60606061,,,,,,,,,,,6,05,5,6,,,,,,,,,,,,,,,,,,,,,,,,,,,,,
65fcdef120c3e7513256ac68,TCN,2024-06-24_16h32.32.272,LearnStrategy,2023.2.3,Win32,60.60606061,,,,,,,,,,,4,10,5,7,,,,,,,,,,,,,,,,,,,,,,,,,,,,,
65fcdef120c3e7513256ac68,TCN,2024-06-24_16h32.32.272,LearnStrategy,2023.2.3,Win32,60.60606061,,,,,,,,,,,8,13,5,8,,,,,,,,,,,,,,,,,,,,,,,,,,,,,
65fcdef120c3e7513256ac68,TCN,2024-06-24_16h32.32.272,LearnStrategy,2023.2.3,Win32,60.60606061,,,,,,,,,,,7,13,6,1,,,,,,,,,,,,,,,,,,,,,,,,,,,,,
65fcdef120c3e7513256ac68,TCN,2024-06-24_16h32.32.272,LearnStrategy,2023.2.3,Win32,60.60606061,,,,,,,,,,,3,06,6,2,,,,,,,,,,,,,,,,,,,,,,,,,,,,,
65fcdef120c3e7513256ac68,TCN,2024-06-24_16h32.32.272,LearnStrategy,2023.2.3,Win32,60.60606061,,,,,,,,,,,4,01,6,3,,,,,,,,,,,,,,,,,,,,,,,,,,,,,
65fcdef120c3e7513256ac68,TCN,2024-06-24_16h32.32.272,LearnStrategy,2023.2.3,Win32,60.60606061,,,,,,,,,,,8,09,6,4,,,,,,,,,,,,,,,,,,,,,,,,,,,,,
65fcdef120c3e7513256ac68,TCN,2024-06-24_16h32.32.272,LearnStrategy,2023.2.3,Win32,60.60606061,,,,,,,,,,,4,15,6,5,,,,,,,,,,,,,,,,,,,,,,,,,,,,,
65fcdef120c3e7513256ac68,TCN,2024-06-24_16h32.32.272,LearnStrategy,2023.2.3,Win32,60.60606061,,,,,,,,,,,7,16,6,6,,,,,,,,,,,,,,,,,,,,,,,,,,,,,
65fcdef120c3e7513256ac68,TCN,2024-06-24_16h32.32.272,LearnStrategy,2023.2.3,Win32,60.60606061,,,,,,,,,,,1,01,6,7,,,,,,,,,,,,,,,,,,,,,,,,,,,,,
65fcdef120c3e7513256ac68,TCN,2024-06-24_16h32.32.272,LearnStrategy,2023.2.3,Win32,60.60606061,,,,,,,,,,,4,16,6,8,,,,,,,,,,,,,,,,,,,,,,,,,,,,,