participant,condition,date,expName,psychopyVersion,OS,frameRate,block,phase,trial,learn_mouse_2.x,learn_mouse_2.y,learn_mouse_2.leftButton,learn_mouse_2.midButton,learn_mouse_2.rightButton,learn_mouse_2.time,learn_mouse_2.clicked_name,cat,token,row,col,t_select,cat_mouse_l.x,cat_mouse_l.y,cat_mouse_l.leftButton,cat_mouse_l.midButton,cat_mouse_l.rightButton,cat_mouse_l.time,cat_mouse_l.clicked_name,resp,t_resp,corr,train_trials.thisRepN,train_trials.thisTrialN,train_trials.thisN,train_trials.thisIndex,train_trials.ran,cat_mouse_t.x,cat_mouse_t.y,cat_mouse_t.leftButton,cat_mouse_t.midButton,cat_mouse_t.rightButton,cat_mouse_t.time,cat_mouse_t.clicked_name,test_trials.thisRepN,test_trials.thisTrialN,test_trials.thisN,test_trials.thisIndex,test_trials.ran,Bonus
65fccfbedce99b1065ef1768,TCR,2024-06-21_13h47.30.104,LearnStrategy,2023.2.3,Linux x86_64,59.88023952,,,,,,,,,,,,,,,,,,,,,,,,,,,,,,,,,,,,,,,,,,,
65fccfbedce99b1065ef1768,TCR,2024-06-21_13h47.30.104,LearnStrategy,2023.2.3,Linux x86_64,59.88023952,1,1,1,0.105963601,-0.011915207,1,0,0,3.685,rock_grid_rect_2,8,05,-1,-1,3.685,0.43885888,-0.384839941,1,0,0,4.0467,Pumice_rect,8,4.047,1,0,0,0,0,1,,,,,,,,,,,,,
65fccfbedce99b1065ef1768,TCR,2024-06-21_13h47.30.104,LearnStrategy,2023.2.3,Linux x86_64,59.88023952,1,1,2,0.141766372,0.00581653,1,0,0,1.5198,rock_grid_rect_2,6,11,-1,-1,1.52,-0.326941243,-0.410023937,1,0,0,6.1128,Obsidian_rect,5,6.113,0,1,0,1,0,1,,,,,,,,,,,,,
65fccfbedce99b1065ef1768,TCR,2024-06-21_13h47.30.104,LearnStrategy,2023.2.3,Linux x86_64,59.88023952,1,1,3,0.014172024,0.004642628,1,0,0,1.9857,rock_grid_rect_2,7,07,-1,-1,1.986,-0.096915422,-0.242307239,1,0,0,3.77,Basalt_rect,2,3.77,0,2,0,2,0,1,,,,,,,,,,,,,
65fccfbedce99b1065ef1768,TCR,2024-06-21_13h47.30.104,LearnStrategy,2023.2.3,Linux x86_64,59.88023952,1,1,4,0.084504869,0.002103099,1,0,0,1.7463,rock_grid_rect_2,5,09,-1,-1,1.746,-0.339570222,-0.418552752,1,0,0,1.6459,Obsidian_rect,5,1.646,1,3,0,3,0,1,,,,,,,,,,,,,
65fccfbedce99b1065ef1768,TCR,2024-06-21_13h47.30.104,LearnStrategy,2023.2.3,Linux x86_64,59.88023952,1,1,5,0.074423543,-0.015140216,1,0,0,1.274,rock_grid_rect_2,8,09,-1,-1,1.274,0.145530983,-0.256749966,1,0,0,3.8331,Diorite_rect,3,3.833,0,4,0,4,0,1,,,,,,,,,,,,,
65fccfbedce99b1065ef1768,TCR,2024-06-21_13h47.30.104,LearnStrategy,2023.2.3,Linux x86_64,59.88023952,1,1,6,0.119648827,-0.004373021,1,0,0,1.3628,rock_grid_rect_2,3,11,-1,-1,1.363,-0.136563972,-0.393281654,1,0,0,4.7585,Pegmatite_rect,6,4.758,0,5,0,5,0,1,,,,,,,,,,,,,
65fccfbedce99b1065ef1768,TCR,2024-06-21_13h47.30.104,LearnStrategy,2023.2.3,Linux x86_64,59.88023952,1,1,7,0.064060706,-0.00222803,1,0,0,1.3619,rock_grid_rect_2,7,16,-1,-1,1.362,-0.122198105,-0.256551884,1,0,0,2.1942,Basalt_rect,2,2.194,0,6,0,6,0,1,,,,,,,,,,,,,
65fccfbedce99b1065ef1768,TCR,2024-06-21_13h47.30.104,LearnStrategy,2023.2.3,Linux x86_64,59.88023952,1,1,8,-0.021351073,0.001862597,1,0,0,1.2158,rock_grid_rect_2,5,10,-1,-1,1.216,-0.323527407,-0.389514075,1,0,0,1.2384,Obsidian_rect,5,1.238,1,7,0,7,0,1,,,,,,,,,,,,,
65fccfbedce99b1065ef1768,TCR,2024-06-21_13h47.30.104,LearnStrategy,2023.2.3,Linux x86_64,59.88023952,1,1,9,0.100701579,0.003509839,1,0,0,1.2882,rock_grid_rect_2,1,16,-1,-1,1.288,0.156481284,-0.411453742,1,0,0,2.5665,Peridotite_rect,7,2.566,0,8,0,8,0,1,,,,,,,,,,,,,
65fccfbedce99b1065ef1768,TCR,2024-06-21_13h47.30.104,LearnStrategy,2023.2.3,Linux x86_64,59.88023952,1,1,10,0.132374869,-0.009516186,1,0,0,0.8822,rock_grid_rect_2,2,10,-1,-1,0.882,-0.085504673,-0.265860169,1,0,0,1.9999,Basalt_rect,2,2,1,9,0,9,0,1,,,,,,,,,,,,,
65fccfbedce99b1065ef1768,TCR,2024-06-21_13h47.30.104,LearnStrategy,2023.2.3,Linux x86_64,59.88023952,1,1,11,0.072408747,-0.003286291,1,0,0,1.1077,rock_grid_rect_2,6,07,-1,-1,1.108,-0.131434476,-0.394847305,1,0,0,2.1355,Pegmatite_rect,6,2.135,1,10,0,10,0,1,,,,,,,,,,,,,
65fccfbedce99b1065ef1768,TCR,2024-06-21_13h47.30.104,LearnStrategy,2023.2.3,Linux x86_64,59.88023952,1,1,12,0.086431362,-0.007476312,1,0,0,1.3864,rock_grid_rect_2,2,08,-1,-1,1.386,0.347756704,-0.256163209,1,0,0,3.4302,Gabbro_rect,4,3.43,0,11,0,11,0,1,,,,,,,,,,,,,
65fccfbedce99b1065ef1768,TCR,2024-06-21_13h47.30.104,LearnStrategy,2023.2.3,Linux x86_64,59.88023952,1,1,13,0.082383262,-0.00684498,1,0,0,1.1161,rock_grid_rect_2,4,01,-1,-1,1.116,0.16066198,-0.40398188,1,0,0,2.6222,Peridotite_rect,7,2.622,0,12,0,12,0,1,,,,,,,,,,,,,
65fccfbedce99b1065ef1768,TCR,2024-06-21_13h47.30.104,LearnStrategy,2023.2.3,Linux x86_64,59.88023952,1,1,14,0.09215913,-0.001530506,1,0,0,0.9074,rock_grid_rect_2,4,14,-1,-1,0.907,-0.14022806,-0.232699288,1,0,0,1.7138,Basalt_rect,2,1.714,0,13,0,13,0,1,,,,,,,,,,,,,
65fccfbedce99b1065ef1768,TCR,2024-06-21_13h47.30.104,LearnStrategy,2023.2.3,Linux x86_64,59.88023952,1,1,15,0.142892272,-0.010759212,1,0,0,0.9283,rock_grid_rect_2,1,14,-1,-1,0.928,0.099658683,-0.416435595,1,0,0,1.5101,Peridotite_rect,7,1.51,0,14,0,14,0,1,,,,,,,,,,,,,
65fccfbedce99b1065ef1768,TCR,2024-06-21_13h47.30.104,LearnStrategy,2023.2.3,Linux x86_64,59.88023952,1,1,16,0.156874975,0.016793887,1,0,0,0.9228,rock_grid_rect_2,3,10,-1,-1,0.923,0.099520224,-0.417835871,1,0,0,1.8919,Peridotite_rect,7,1.892,0,15,0,15,0,1,,,,,,,,,,,,,
65fccfbedce99b1065ef1768,TCR,2024-06-21_13h47.30.104,LearnStrategy,2023.2.3,Linux x86_64,59.88023952,1,2,1,,,,,,,,4,12,,,,,,,,,,,3,8.168,0,,,,,,0.187072189,-0.249064481,1,0,0,8.1682,Diorite_rect,0,0,0,0,1,
65fccfbedce99b1065ef1768,TCR,2024-06-21_13h47.30.104,LearnStrategy,2023.2.3,Linux x86_64,59.88023952,1,2,2,,,,,,,,3,15,,,,,,,,,,,7,3.415,0,,,,,,0.109195285,-0.392814566,1,0,0,3.4146,Peridotite_rect,1,0,1,0,1,
65fccfbedce99b1065ef1768,TCR,2024-06-21_13h47.30.104,LearnStrategy,2023.2.3,Linux x86_64,59.88023952,1,2,3,,,,,,,,1,02,,,,,,,,,,,1,2.826,1,,,,,,-0.391084848,-0.265408481,1,0,0,2.8257,Andesite_rect,2,0,2,0,1,
65fccfbedce99b1065ef1768,TCR,2024-06-21_13h47.30.104,LearnStrategy,2023.2.3,Linux x86_64,59.88023952,1,2,4,,,,,,,,5,04,,,,,,,,,,,5,0.995,1,,,,,,-0.398074786,-0.401666641,1,0,0,0.9949,Obsidian_rect,3,0,3,0,1,
65fccfbedce99b1065ef1768,TCR,2024-06-21_13h47.30.104,LearnStrategy,2023.2.3,Linux x86_64,59.88023952,1,2,5,,,,,,,,1,04,,,,,,,,,,,7,2.959,0,,,,,,0.114503649,-0.391455474,1,0,0,2.9587,Peridotite_rect,4,0,4,0,1,
65fccfbedce99b1065ef1768,TCR,2024-06-21_13h47.30.104,LearnStrategy,2023.2.3,Linux x86_64,59.88023952,1,2,6,,,,,,,,6,09,,,,,,,,,,,6,1.816,1,,,,,,-0.132605517,-0.392044562,1,0,0,1.8155,Pegmatite_rect,5,0,5,0,1,
65fccfbedce99b1065ef1768,TCR,2024-06-21_13h47.30.104,LearnStrategy,2023.2.3,Linux x86_64,59.88023952,1,2,7,,,,,,,,8,14,,,,,,,,,,,8,1.29,1,,,,,,0.375036593,-0.392775359,1,0,0,1.29,Pumice_rect,6,0,6,0,1,
65fccfbedce99b1065ef1768,TCR,2024-06-21_13h47.30.104,LearnStrategy,2023.2.3,Linux x86_64,59.88023952,1,2,8,,,,,,,,4,15,,,,,,,,,,,4,2.052,1,,,,,,0.393086186,-0.240147414,1,0,0,2.0516,Gabbro_rect,7,0,7,0,1,
65fccfbedce99b1065ef1768,TCR,2024-06-21_13h47.30.104,LearnStrategy,2023.2.3,Linux x86_64,59.88023952,1,2,9,,,,,,,,2,12,,,,,,,,,,,8,1.658,0,,,,,,0.402228744,-0.407400555,1,0,0,1.6577,Pumice_rect,8,0,8,0,1,
65fccfbedce99b1065ef1768,TCR,2024-06-21_13h47.30.104,LearnStrategy,2023.2.3,Linux x86_64,59.88023952,1,2,10,,,,,,,,7,14,,,,,,,,,,,3,1.96,0,,,,,,0.195267783,-0.231274287,1,0,0,1.9597,Diorite_rect,9,0,9,0,1,
65fccfbedce99b1065ef1768,TCR,2024-06-21_13h47.30.104,LearnStrategy,2023.2.3,Linux x86_64,59.88023952,1,2,11,,,,,,,,5,12,,,,,,,,,,,5,1.42,1,,,,,,-0.368838204,-0.391114906,1,0,0,1.4199,Obsidian_rect,10,0,10,0,1,
65fccfbedce99b1065ef1768,TCR,2024-06-21_13h47.30.104,LearnStrategy,2023.2.3,Linux x86_64,59.88023952,1,2,12,,,,,,,,2,04,,,,,,,,,,,2,1.225,1,,,,,,-0.098196877,-0.253179691,1,0,0,1.2252,Basalt_rect,11,0,11,0,1,
65fccfbedce99b1065ef1768,TCR,2024-06-21_13h47.30.104,LearnStrategy,2023.2.3,Linux x86_64,59.88023952,1,2,13,,,,,,,,3,07,,,,,,,,,,,3,2.221,1,,,,,,0.061528877,-0.266949406,1,0,0,2.2214,Diorite_rect,12,0,12,0,1,
65fccfbedce99b1065ef1768,TCR,2024-06-21_13h47.30.104,LearnStrategy,2023.2.3,Linux x86_64,59.88023952,1,2,14,,,,,,,,8,03,,,,,,,,,,,8,1.35,1,,,,,,0.341467398,-0.401957123,1,0,0,1.3501,Pumice_rect,13,0,13,0,1,
65fccfbedce99b1065ef1768,TCR,2024-06-21_13h47.30.104,LearnStrategy,2023.2.3,Linux x86_64,59.88023952,1,2,15,,,,,,,,6,16,,,,,,,,,,,6,1.665,1,,,,,,-0.171932856,-0.396242989,1,0,0,1.6652,Pegmatite_rect,14,0,14,0,1,
65fccfbedce99b1065ef1768,TCR,2024-06-21_13h47.30.104,LearnStrategy,2023.2.3,Linux x86_64,59.88023952,1,2,16,,,,,,,,7,08,,,,,,,,,,,3,2.282,0,,,,,,0.150788272,-0.240469685,1,0,0,2.2821,Diorite_rect,15,0,15,0,1,
65fccfbedce99b1065ef1768,TCR,2024-06-21_13h47.30.104,LearnStrategy,2023.2.3,Linux x86_64,59.88023952,2,1,1,0.067086114,-0.001158326,1,0,0,1.9654,rock_grid_rect_2,2,09,-1,-1,1.965,-0.111551355,-0.245395731,1,0,0,4.9847,Basalt_rect,2,4.985,1,0,0,0,0,1,,,,,,,,,,,,,
65fccfbedce99b1065ef1768,TCR,2024-06-21_13h47.30.104,LearnStrategy,2023.2.3,Linux x86_64,59.88023952,2,1,2,0.098970978,-0.000188545,1,0,0,1.0331,rock_grid_rect_2,7,06,-1,-1,1.033,-0.11007867,-0.4138481,1,0,0,2.5052,Pegmatite_rect,6,2.505,0,1,0,1,0,1,,,,,,,,,,,,,
65fccfbedce99b1065ef1768,TCR,2024-06-21_13h47.30.104,LearnStrategy,2023.2.3,Linux x86_64,59.88023952,2,1,3,0.115256415,-0.005666556,1,0,0,1.1453,rock_grid_rect_2,3,12,-1,-1,1.145,-0.152741538,-0.400857078,1,0,0,1.3932,Pegmatite_rect,6,1.393,0,2,0,2,0,1,,,,,,,,,,,,,
65fccfbedce99b1065ef1768,TCR,2024-06-21_13h47.30.104,LearnStrategy,2023.2.3,Linux x86_64,59.88023952,2,1,4,0.108887072,-0.005036813,1,0,0,1.0242,rock_grid_rect_2,3,13,-1,-1,1.024,-0.379939079,-0.255765562,1,0,0,1.8782,Andesite_rect,1,1.878,0,3,0,3,0,1,,,,,,,,,,,,,
65fccfbedce99b1065ef1768,TCR,2024-06-21_13h47.30.104,LearnStrategy,2023.2.3,Linux x86_64,59.88023952,2,1,5,0.111687907,0.003913032,1,0,0,1.0615,rock_grid_rect_2,4,14,-1,-1,1.062,-0.169425187,-0.251875277,1,0,0,1.2881,Basalt_rect,2,1.288,0,4,0,4,0,1,,,,,,,,,,,,,
65fccfbedce99b1065ef1768,TCR,2024-06-21_13h47.30.104,LearnStrategy,2023.2.3,Linux x86_64,59.88023952,2,1,6,0.105125851,-0.001232818,1,0,0,0.7691,rock_grid_rect_2,4,11,-1,-1,0.769,-0.357141389,-0.249321902,1,0,0,2.0095,Andesite_rect,1,2.01,0,5,0,5,0,1,,,,,,,,,,,,,
65fccfbedce99b1065ef1768,TCR,2024-06-21_13h47.30.104,LearnStrategy,2023.2.3,Linux x86_64,59.88023952,2,1,7,0.065239447,0.004918169,1,0,0,0.8641,rock_grid_rect_2,3,02,-1,-1,0.864,-0.106954857,-0.386854737,1,0,0,2.0024,Pegmatite_rect,6,2.002,0,6,0,6,0,1,,,,,,,,,,,,,
65fccfbedce99b1065ef1768,TCR,2024-06-21_13h47.30.104,LearnStrategy,2023.2.3,Linux x86_64,59.88023952,2,1,8,0.119391477,-0.015261332,1,0,0,0.7349,rock_grid_rect_2,8,13,-1,-1,0.735,0.382993769,-0.399017617,1,0,0,1.3861,Pumice_rect,8,1.386,1,7,0,7,0,1,,,,,,,,,,,,,
65fccfbedce99b1065ef1768,TCR,2024-06-21_13h47.30.104,LearnStrategy,2023.2.3,Linux x86_64,59.88023952,2,1,9,0.046624078,0.01474377,1,0,0,1.2555,rock_grid_rect_2,7,07,-1,-1,1.256,0.179777145,-0.410930845,1,0,0,2.8559,Peridotite_rect,7,2.856,1,8,0,8,0,1,,,,,,,,,,,,,
65fccfbedce99b1065ef1768,TCR,2024-06-21_13h47.30.104,LearnStrategy,2023.2.3,Linux x86_64,59.88023952,2,1,10,0.068927553,-0.011281225,1,0,0,1.0722,rock_grid_rect_2,7,12,-1,-1,1.072,-0.359888147,-0.243371964,1,0,0,3.3316,Andesite_rect,1,3.332,0,9,0,9,0,1,,,,,,,,,,,,,
65fccfbedce99b1065ef1768,TCR,2024-06-21_13h47.30.104,LearnStrategy,2023.2.3,Linux x86_64,59.88023952,2,1,11,0.091853601,0.001330552,1,0,0,1.0946,rock_grid_rect_2,7,13,-1,-1,1.095,0.121253897,-0.257430606,1,0,0,2.61,Diorite_rect,3,2.61,0,10,0,10,0,1,,,,,,,,,,,,,
65fccfbedce99b1065ef1768,TCR,2024-06-21_13h47.30.104,LearnStrategy,2023.2.3,Linux x86_64,59.88023952,2,1,12,0.1038119,-0.004535781,1,0,0,1.063,rock_grid_rect_2,2,14,-1,-1,1.063,-0.097695315,-0.251542833,1,0,0,1.51,Basalt_rect,2,1.51,1,11,0,11,0,1,,,,,,,,,,,,,
65fccfbedce99b1065ef1768,TCR,2024-06-21_13h47.30.104,LearnStrategy,2023.2.3,Linux x86_64,59.88023952,2,1,13,0.118789108,0.002614269,1,0,0,1.1018,rock_grid_rect_2,1,07,-1,-1,1.102,0.130615941,-0.23518421,1,0,0,2.0254,Diorite_rect,3,2.025,0,12,0,12,0,1,,,,,,,,,,,,,
65fccfbedce99b1065ef1768,TCR,2024-06-21_13h47.30.104,LearnStrategy,2023.2.3,Linux x86_64,59.88023952,2,1,14,0.107637759,0.006020334,1,0,0,1.1064,rock_grid_rect_2,1,10,-1,-1,1.106,-0.377596996,-0.242789869,1,0,0,2.28,Andesite_rect,1,2.28,1,13,0,13,0,1,,,,,,,,,,,,,
65fccfbedce99b1065ef1768,TCR,2024-06-21_13h47.30.104,LearnStrategy,2023.2.3,Linux x86_64,59.88023952,2,1,15,0.102275495,0.011972533,1,0,0,0.9342,rock_grid_rect_2,5,14,-1,-1,0.934,-0.370045415,-0.40123883,1,0,0,1.5277,Obsidian_rect,5,1.528,1,14,0,14,0,1,,,,,,,,,,,,,
65fccfbedce99b1065ef1768,TCR,2024-06-21_13h47.30.104,LearnStrategy,2023.2.3,Linux x86_64,59.88023952,2,1,16,0.146730917,-0.001268846,1,0,0,0.8945,rock_grid_rect_2,7,07,-1,-1,0.894,0.109991215,-0.407913491,1,0,0,1.8632,Peridotite_rect,7,1.863,1,15,0,15,0,1,,,,,,,,,,,,,
65fccfbedce99b1065ef1768,TCR,2024-06-21_13h47.30.104,LearnStrategy,2023.2.3,Linux x86_64,59.88023952,2,2,1,,,,,,,,3,08,,,,,,,,,,,3,2.393,1,,,,,,0.155888522,-0.245059261,1,0,0,2.3929,Diorite_rect,0,0,0,0,1,
65fccfbedce99b1065ef1768,TCR,2024-06-21_13h47.30.104,LearnStrategy,2023.2.3,Linux x86_64,59.88023952,2,2,2,,,,,,,,7,02,,,,,,,,,,,7,2.586,1,,,,,,0.094623071,-0.406261373,1,0,0,2.5857,Peridotite_rect,1,0,1,0,1,
65fccfbedce99b1065ef1768,TCR,2024-06-21_13h47.30.104,LearnStrategy,2023.2.3,Linux x86_64,59.88023952,2,2,3,,,,,,,,4,16,,,,,,,,,,,2,1.345,0,,,,,,-0.142482475,-0.247478061,1,0,0,1.3448,Basalt_rect,2,0,2,0,1,
65fccfbedce99b1065ef1768,TCR,2024-06-21_13h47.30.104,LearnStrategy,2023.2.3,Linux x86_64,59.88023952,2,2,4,,,,,,,,3,09,,,,,,,,,,,1,4.863,0,,,,,,-0.405654165,-0.255378158,1,0,0,4.8633,Andesite_rect,3,0,3,0,1,
65fccfbedce99b1065ef1768,TCR,2024-06-21_13h47.30.104,LearnStrategy,2023.2.3,Linux x86_64,59.88023952,2,2,5,,,,,,,,2,06,,,,,,,,,,,2,1.357,1,,,,,,-0.119516726,-0.248523783,1,0,0,1.3575,Basalt_rect,4,0,4,0,1,
65fccfbedce99b1065ef1768,TCR,2024-06-21_13h47.30.104,LearnStrategy,2023.2.3,Linux x86_64,59.88023952,2,2,6,,,,,,,,5,08,,,,,,,,,,,5,1.043,1,,,,,,-0.335557726,-0.393130055,1,0,0,1.0432,Obsidian_rect,5,0,5,0,1,
65fccfbedce99b1065ef1768,TCR,2024-06-21_13h47.30.104,LearnStrategy,2023.2.3,Linux x86_64,59.88023952,2,2,7,,,,,,,,1,11,,,,,,,,,,,1,2.508,1,,,,,,-0.346749659,-0.240911131,1,0,0,2.5077,Andesite_rect,6,0,6,0,1,
65fccfbedce99b1065ef1768,TCR,2024-06-21_13h47.30.104,LearnStrategy,2023.2.3,Linux x86_64,59.88023952,2,2,8,,,,,,,,8,15,,,,,,,,,,,8,1.304,1,,,,,,0.373881587,-0.402636422,1,0,0,1.3035,Pumice_rect,7,0,7,0,1,
65fccfbedce99b1065ef1768,TCR,2024-06-21_13h47.30.104,LearnStrategy,2023.2.3,Linux x86_64,59.88023952,2,2,9,,,,,,,,4,05,,,,,,,,,,,6,1.883,0,,,,,,-0.057162885,-0.403261255,1,0,0,1.8833,Pegmatite_rect,8,0,8,0,1,
65fccfbedce99b1065ef1768,TCR,2024-06-21_13h47.30.104,LearnStrategy,2023.2.3,Linux x86_64,59.88023952,2,2,10,,,,,,,,8,02,,,,,,,,,,,8,1.245,1,,,,,,0.431642744,-0.401970828,1,0,0,1.245,Pumice_rect,9,0,9,0,1,
65fccfbedce99b1065ef1768,TCR,2024-06-21_13h47.30.104,LearnStrategy,2023.2.3,Linux x86_64,59.88023952,2,2,11,,,,,,,,6,12,,,,,,,,,,,4,2.09,0,,,,,,0.452592073,-0.245712492,1,0,0,2.0897,Gabbro_rect,10,0,10,0,1,
65fccfbedce99b1065ef1768,TCR,2024-06-21_13h47.30.104,LearnStrategy,2023.2.3,Linux x86_64,59.88023952,2,2,12,,,,,,,,5,07,,,,,,,,,,,5,1.101,1,,,,,,-0.391397088,-0.389404226,1,0,0,1.1009,Obsidian_rect,11,0,11,0,1,
65fccfbedce99b1065ef1768,TCR,2024-06-21_13h47.30.104,LearnStrategy,2023.2.3,Linux x86_64,59.88023952,2,2,13,,,,,,,,6,08,,,,,,,,,,,6,2.883,1,,,,,,-0.131095321,-0.417177059,1,0,0,2.8829,Pegmatite_rect,12,0,12,0,1,
65fccfbedce99b1065ef1768,TCR,2024-06-21_13h47.30.104,LearnStrategy,2023.2.3,Linux x86_64,59.88023952,2,2,14,,,,,,,,7,15,,,,,,,,,,,7,1.376,1,,,,,,0.110477942,-0.411749593,1,0,0,1.376,Peridotite_rect,13,0,13,0,1,
65fccfbedce99b1065ef1768,TCR,2024-06-21_13h47.30.104,LearnStrategy,2023.2.3,Linux x86_64,59.88023952,2,2,15,,,,,,,,2,05,,,,,,,,,,,2,1.482,1,,,,,,-0.099202968,-0.249779171,1,0,0,1.4816,Basalt_rect,14,0,14,0,1,
65fccfbedce99b1065ef1768,TCR,2024-06-21_13h47.30.104,LearnStrategy,2023.2.3,Linux x86_64,59.88023952,2,2,16,,,,,,,,1,06,,,,,,,,,,,3,1.99,0,,,,,,0.147773672,-0.252070957,1,0,0,1.9905,Diorite_rect,15,0,15,0,1,
65fccfbedce99b1065ef1768,TCR,2024-06-21_13h47.30.104,LearnStrategy,2023.2.3,Linux x86_64,59.88023952,3,1,1,0.118316297,-0.01148291,1,0,0,2.9446,rock_grid_rect_2,2,11,-1,-1,2.945,0.158987681,-0.253498925,1,0,0,2.8725,Diorite_rect,3,2.873,0,0,0,0,0,1,,,,,,,,,,,,,
65fccfbedce99b1065ef1768,TCR,2024-06-21_13h47.30.104,LearnStrategy,2023.2.3,Linux x86_64,59.88023952,3,1,2,0.154887376,-0.012623999,1,0,0,0.8507,rock_grid_rect_2,4,01,-1,-1,0.851,0.108637986,-0.407942171,1,0,0,1.848,Peridotite_rect,7,1.848,0,1,0,1,0,1,,,,,,,,,,,,,
65fccfbedce99b1065ef1768,TCR,2024-06-21_13h47.30.104,LearnStrategy,2023.2.3,Linux x86_64,59.88023952,3,1,3,0.134724299,-0.013466552,1,0,0,1.1369,rock_grid_rect_2,1,16,-1,-1,1.137,0.111538357,-0.395026525,1,0,0,2.0822,Peridotite_rect,7,2.082,0,2,0,2,0,1,,,,,,,,,,,,,
65fccfbedce99b1065ef1768,TCR,2024-06-21_13h47.30.104,LearnStrategy,2023.2.3,Linux x86_64,59.88023952,3,1,4,0.119944396,0.001797817,1,0,0,1.0188,rock_grid_rect_2,3,10,-1,-1,1.019,-0.081915326,-0.414447926,1,0,0,1.7802,Pegmatite_rect,6,1.78,0,3,0,3,0,1,,,,,,,,,,,,,
65fccfbedce99b1065ef1768,TCR,2024-06-21_13h47.30.104,LearnStrategy,2023.2.3,Linux x86_64,59.88023952,3,1,5,0.125767249,-0.014491328,1,0,0,1.1371,rock_grid_rect_2,7,05,-1,-1,1.137,0.112909317,-0.39178594,1,0,0,1.3184,Peridotite_rect,7,1.318,1,4,0,4,0,1,,,,,,,,,,,,,
65fccfbedce99b1065ef1768,TCR,2024-06-21_13h47.30.104,LearnStrategy,2023.2.3,Linux x86_64,59.88023952,3,1,6,0.046497133,0.001015275,1,0,0,1.101,rock_grid_rect_2,7,16,-1,-1,1.101,-0.084148054,-0.420401679,1,0,0,3.5402,Pegmatite_rect,6,3.54,0,5,0,5,0,1,,,,,,,,,,,,,
65fccfbedce99b1065ef1768,TCR,2024-06-21_13h47.30.104,LearnStrategy,2023.2.3,Linux x86_64,59.88023952,3,1,7,0.194830011,0.00494141,1,0,0,0.8014,rock_grid_rect_2,4,10,-1,-1,0.801,0.390139686,-0.26424627,1,0,0,2.6115,Gabbro_rect,4,2.612,1,6,0,6,0,1,,,,,,,,,,,,,
65fccfbedce99b1065ef1768,TCR,2024-06-21_13h47.30.104,LearnStrategy,2023.2.3,Linux x86_64,59.88023952,3,1,8,0.128266864,-0.012121766,1,0,0,0.9862,rock_grid_rect_2,4,13,-1,-1,0.986,0.132121687,-0.398590582,1,0,0,4.9098,Peridotite_rect,7,4.91,0,7,0,7,0,1,,,,,,,,,,,,,
65fccfbedce99b1065ef1768,TCR,2024-06-21_13h47.30.104,LearnStrategy,2023.2.3,Linux x86_64,59.88023952,3,1,9,0.127206449,0.018127088,1,0,0,0.9648,rock_grid_rect_2,1,07,-1,-1,0.965,0.168641973,-0.247368212,1,0,0,3.1698,Diorite_rect,3,3.17,0,8,0,8,0,1,,,,,,,,,,,,,
65fccfbedce99b1065ef1768,TCR,2024-06-21_13h47.30.104,LearnStrategy,2023.2.3,Linux x86_64,59.88023952,3,1,10,0.147323185,-0.015878819,1,0,0,1.0188,rock_grid_rect_2,1,05,-1,-1,1.019,0.135112197,-0.242859523,1,0,0,1.5597,Diorite_rect,3,1.56,0,9,0,9,0,1,,,,,,,,,,,,,
65fccfbedce99b1065ef1768,TCR,2024-06-21_13h47.30.104,LearnStrategy,2023.2.3,Linux x86_64,59.88023952,3,1,11,0.162048693,-0.001012555,1,0,0,0.8337,rock_grid_rect_2,4,01,-1,-1,0.834,-0.407021911,-0.237233409,1,0,0,1.226,Andesite_rect,1,1.226,0,10,0,10,0,1,,,,,,,,,,,,,
65fccfbedce99b1065ef1768,TCR,2024-06-21_13h47.30.104,LearnStrategy,2023.2.3,Linux x86_64,59.88023952,3,1,12,0.133040605,-0.002114155,1,0,0,1.0098,rock_grid_rect_2,3,02,-1,-1,1.01,0.098984542,-0.396925396,1,0,0,3.9374,Peridotite_rect,7,3.937,0,11,0,11,0,1,,,,,,,,,,,,,
65fccfbedce99b1065ef1768,TCR,2024-06-21_13h47.30.104,LearnStrategy,2023.2.3,Linux x86_64,59.88023952,3,1,13,0.104510201,0.00855075,1,0,0,0.9763,rock_grid_rect_2,6,13,-1,-1,0.976,-0.141677079,-0.410735448,1,0,0,1.6599,Pegmatite_rect,6,1.66,1,12,0,12,0,1,,,,,,,,,,,,,
65fccfbedce99b1065ef1768,TCR,2024-06-21_13h47.30.104,LearnStrategy,2023.2.3,Linux x86_64,59.88023952,3,1,14,0.135954468,0.002303123,1,0,0,0.9307,rock_grid_rect_2,6,11,-1,-1,0.931,-0.115341257,-0.399097089,1,0,0,1.3925,Pegmatite_rect,6,1.392,1,13,0,13,0,1,,,,,,,,,,,,,
65fccfbedce99b1065ef1768,TCR,2024-06-21_13h47.30.104,LearnStrategy,2023.2.3,Linux x86_64,59.88023952,3,1,15,0.148598212,-0.013100483,1,0,0,0.9973,rock_grid_rect_2,3,10,-1,-1,0.997,-0.383114179,-0.271509736,1,0,0,1.6261,Andesite_rect,1,1.626,0,14,0,14,0,1,,,,,,,,,,,,,
65fccfbedce99b1065ef1768,TCR,2024-06-21_13h47.30.104,LearnStrategy,2023.2.3,Linux x86_64,59.88023952,3,1,16,0.094326231,0.017577171,1,0,0,1.0099,rock_grid_rect_2,8,06,-1,-1,1.01,0.367563318,-0.391822179,1,0,0,1.2984,Pumice_rect,8,1.298,1,15,0,15,0,1,,,,,,,,,,,,,
65fccfbedce99b1065ef1768,TCR,2024-06-21_13h47.30.104,LearnStrategy,2023.2.3,Linux x86_64,59.88023952,3,2,1,,,,,,,,5,11,,,,,,,,,,,5,1.157,1,,,,,,-0.305143957,-0.412816648,1,0,0,1.1568,Obsidian_rect,0,0,0,0,1,
65fccfbedce99b1065ef1768,TCR,2024-06-21_13h47.30.104,LearnStrategy,2023.2.3,Linux x86_64,59.88023952,3,2,2,,,,,,,,7,10,,,,,,,,,,,7,1.479,1,,,,,,0.151606595,-0.404321953,1,0,0,1.4789,Peridotite_rect,1,0,1,0,1,
65fccfbedce99b1065ef1768,TCR,2024-06-21_13h47.30.104,LearnStrategy,2023.2.3,Linux x86_64,59.88023952,3,2,3,,,,,,,,7,04,,,,,,,,,,,7,1.127,1,,,,,,0.127537268,-0.412695567,1,0,0,1.1274,Peridotite_rect,2,0,2,0,1,
65fccfbedce99b1065ef1768,TCR,2024-06-21_13h47.30.104,LearnStrategy,2023.2.3,Linux x86_64,59.88023952,3,2,4,,,,,,,,3,06,,,,,,,,,,,1,3.463,0,,,,,,-0.339361297,-0.252636521,1,0,0,3.4627,Andesite_rect,3,0,3,0,1,
65fccfbedce99b1065ef1768,TCR,2024-06-21_13h47.30.104,LearnStrategy,2023.2.3,Linux x86_64,59.88023952,3,2,5,,,,,,,,6,03,,,,,,,,,,,7,1.656,0,,,,,,0.183357309,-0.407758501,1,0,0,1.6565,Peridotite_rect,4,0,4,0,1,
65fccfbedce99b1065ef1768,TCR,2024-06-21_13h47.30.104,LearnStrategy,2023.2.3,Linux x86_64,59.88023952,3,2,6,,,,,,,,8,04,,,,,,,,,,,8,1.255,1,,,,,,0.435185892,-0.411568748,1,0,0,1.2553,Pumice_rect,5,0,5,0,1,
65fccfbedce99b1065ef1768,TCR,2024-06-21_13h47.30.104,LearnStrategy,2023.2.3,Linux x86_64,59.88023952,3,2,7,,,,,,,,2,02,,,,,,,,,,,2,1.385,1,,,,,,-0.124165924,-0.246043947,1,0,0,1.3849,Basalt_rect,6,0,6,0,1,
65fccfbedce99b1065ef1768,TCR,2024-06-21_13h47.30.104,LearnStrategy,2023.2.3,Linux x86_64,59.88023952,3,2,8,,,,,,,,1,03,,,,,,,,,,,4,1.848,0,,,,,,0.374982339,-0.252041216,1,0,0,1.8476,Gabbro_rect,7,0,7,0,1,
65fccfbedce99b1065ef1768,TCR,2024-06-21_13h47.30.104,LearnStrategy,2023.2.3,Linux x86_64,59.88023952,3,2,9,,,,,,,,8,08,,,,,,,,,,,8,3.172,1,,,,,,0.3566814,-0.394110503,1,0,0,3.1725,Pumice_rect,8,0,8,0,1,
65fccfbedce99b1065ef1768,TCR,2024-06-21_13h47.30.104,LearnStrategy,2023.2.3,Linux x86_64,59.88023952,3,2,10,,,,,,,,4,08,,,,,,,,,,,8,2.291,0,,,,,,0.341793625,-0.402521981,1,0,0,2.2913,Pumice_rect,9,0,9,0,1,
65fccfbedce99b1065ef1768,TCR,2024-06-21_13h47.30.104,LearnStrategy,2023.2.3,Linux x86_64,59.88023952,3,2,11,,,,,,,,1,01,,,,,,,,,,,4,2.211,0,,,,,,0.391246937,-0.247068052,1,0,0,2.2114,Gabbro_rect,10,0,10,0,1,
65fccfbedce99b1065ef1768,TCR,2024-06-21_13h47.30.104,LearnStrategy,2023.2.3,Linux x86_64,59.88023952,3,2,12,,,,,,,,2,16,,,,,,,,,,,2,1.181,1,,,,,,-0.095547782,-0.257356785,1,0,0,1.1811,Basalt_rect,11,0,11,0,1,
65fccfbedce99b1065ef1768,TCR,2024-06-21_13h47.30.104,LearnStrategy,2023.2.3,Linux x86_64,59.88023952,3,2,13,,,,,,,,4,09,,,,,,,,,,,4,6.108,1,,,,,,0.400373247,-0.248205962,1,0,0,6.1078,Gabbro_rect,12,0,12,0,1,
65fccfbedce99b1065ef1768,TCR,2024-06-21_13h47.30.104,LearnStrategy,2023.2.3,Linux x86_64,59.88023952,3,2,14,,,,,,,,6,15,,,,,,,,,,,6,2.327,1,,,,,,-0.085556878,-0.411991473,1,0,0,2.3274,Pegmatite_rect,13,0,13,0,1,
65fccfbedce99b1065ef1768,TCR,2024-06-21_13h47.30.104,LearnStrategy,2023.2.3,Linux x86_64,59.88023952,3,2,15,,,,,,,,3,16,,,,,,,,,,,1,1.326,0,,,,,,-0.418691035,-0.232459316,1,0,0,1.3262,Andesite_rect,14,0,14,0,1,
65fccfbedce99b1065ef1768,TCR,2024-06-21_13h47.30.104,LearnStrategy,2023.2.3,Linux x86_64,59.88023952,3,2,16,,,,,,,,5,16,,,,,,,,,,,5,1.414,1,,,,,,-0.392850805,-0.409388154,1,0,0,1.4141,Obsidian_rect,15,0,15,0,1,
65fccfbedce99b1065ef1768,TCR,2024-06-21_13h47.30.104,LearnStrategy,2023.2.3,Linux x86_64,59.88023952,4,1,1,0.116678803,-0.017631142,1,0,0,1.4505,rock_grid_rect_2,6,13,-1,-1,1.45,0.204236631,-0.391532757,1,0,0,4.9051,Peridotite_rect,7,4.905,0,0,0,0,0,1,,,,,,,,,,,,,
65fccfbedce99b1065ef1768,TCR,2024-06-21_13h47.30.104,LearnStrategy,2023.2.3,Linux x86_64,59.88023952,4,1,2,0.123595202,-0.007455685,1,0,0,1.3815,rock_grid_rect_2,1,05,-1,-1,1.381,-0.34463448,-0.266680188,1,0,0,1.5847,Andesite_rect,1,1.585,1,1,0,1,0,1,,,,,,,,,,,,,
65fccfbedce99b1065ef1768,TCR,2024-06-21_13h47.30.104,LearnStrategy,2023.2.3,Linux x86_64,59.88023952,4,1,3,0.103047618,-0.00783719,1,0,0,1.1307,rock_grid_rect_2,3,10,-1,-1,1.131,-0.356393355,-0.249494906,1,0,0,1.4794,Andesite_rect,1,1.479,0,2,0,2,0,1,,,,,,,,,,,,,
65fccfbedce99b1065ef1768,TCR,2024-06-21_13h47.30.104,LearnStrategy,2023.2.3,Linux x86_64,59.88023952,4,1,4,0.079719826,0.006092213,1,0,0,0.8965,rock_grid_rect_2,1,14,-1,-1,0.897,0.126651693,-0.418850863,1,0,0,1.8764,Peridotite_rect,7,1.876,0,3,0,3,0,1,,,,,,,,,,,,,
65fccfbedce99b1065ef1768,TCR,2024-06-21_13h47.30.104,LearnStrategy,2023.2.3,Linux x86_64,59.88023952,4,1,5,0.070082135,0.013526634,1,0,0,0.7779,rock_grid_rect_2,1,05,-1,-1,0.778,-0.380000256,-0.244878769,1,0,0,1.3499,Andesite_rect,1,1.35,1,4,0,4,0,1,,,,,,,,,,,,,
65fccfbedce99b1065ef1768,TCR,2024-06-21_13h47.30.104,LearnStrategy,2023.2.3,Linux x86_64,59.88023952,4,1,6,0.116618898,-0.020924886,1,0,0,0.8799,rock_grid_rect_2,8,06,-1,-1,0.88,0.419058199,-0.410824175,1,0,0,1.2752,Pumice_rect,8,1.275,1,5,0,5,0,1,,,,,,,,,,,,,
65fccfbedce99b1065ef1768,TCR,2024-06-21_13h47.30.104,LearnStrategy,2023.2.3,Linux x86_64,59.88023952,4,1,7,0.048412182,0.005817095,1,0,0,1.2245,rock_grid_rect_2,4,10,-1,-1,1.224,0.417171196,-0.251228262,1,0,0,2.7465,Gabbro_rect,4,2.746,1,6,0,6,0,1,,,,,,,,,,,,,
65fccfbedce99b1065ef1768,TCR,2024-06-21_13h47.30.104,LearnStrategy,2023.2.3,Linux x86_64,59.88023952,4,1,8,0.097825227,-0.000644083,1,0,0,1.0081,rock_grid_rect_2,4,10,-1,-1,1.008,0.362541905,-0.235677013,1,0,0,0.9676,Gabbro_rect,4,0.968,1,7,0,7,0,1,,,,,,,,,,,,,
65fccfbedce99b1065ef1768,TCR,2024-06-21_13h47.30.104,LearnStrategy,2023.2.3,Linux x86_64,59.88023952,4,1,9,0.149838836,0.012462016,1,0,0,1.2642,rock_grid_rect_2,3,11,-1,-1,1.264,0.125085336,-0.395796529,1,0,0,1.9416,Peridotite_rect,7,1.942,0,8,0,8,0,1,,,,,,,,,,,,,
65fccfbedce99b1065ef1768,TCR,2024-06-21_13h47.30.104,LearnStrategy,2023.2.3,Linux x86_64,59.88023952,4,1,10,0.098025499,0.00846386,1,0,0,0.7099,rock_grid_rect_2,3,14,-1,-1,0.71,-0.043515241,-0.243089747,1,0,0,3.3946,Basalt_rect,2,3.395,0,9,0,9,0,1,,,,,,,,,,,,,
65fccfbedce99b1065ef1768,TCR,2024-06-21_13h47.30.104,LearnStrategy,2023.2.3,Linux x86_64,59.88023952,4,1,11,0.184143773,-0.005852664,1,0,0,0.6256,rock_grid_rect_2,4,13,-1,-1,0.626,0.414373327,-0.258238828,1,0,0,1.5086,Gabbro_rect,4,1.509,1,10,0,10,0,1,,,,,,,,,,,,,
65fccfbedce99b1065ef1768,TCR,2024-06-21_13h47.30.104,LearnStrategy,2023.2.3,Linux x86_64,59.88023952,4,1,12,0.125118891,0.005513792,1,0,0,0.8256,rock_grid_rect_2,2,08,-1,-1,0.826,-0.142145439,-0.234233715,1,0,0,1.4951,Basalt_rect,2,1.495,1,11,0,11,0,1,,,,,,,,,,,,,
65fccfbedce99b1065ef1768,TCR,2024-06-21_13h47.30.104,LearnStrategy,2023.2.3,Linux x86_64,59.88023952,4,1,13,0.082240493,0.016856052,1,0,0,0.9574,rock_grid_rect_2,7,07,-1,-1,0.957,0.132188161,-0.394244653,1,0,0,1.3547,Peridotite_rect,7,1.355,1,12,0,12,0,1,,,,,,,,,,,,,
65fccfbedce99b1065ef1768,TCR,2024-06-21_13h47.30.104,LearnStrategy,2023.2.3,Linux x86_64,59.88023952,4,1,14,0.062900684,-0.001387031,1,0,0,0.8733,rock_grid_rect_2,6,11,-1,-1,0.873,-0.090665181,-0.389039781,1,0,0,1.3047,Pegmatite_rect,6,1.305,1,13,0,13,0,1,,,,,,,,,,,,,
65fccfbedce99b1065ef1768,TCR,2024-06-21_13h47.30.104,LearnStrategy,2023.2.3,Linux x86_64,59.88023952,4,1,15,0.097289403,-0.011489197,1,0,0,0.8196,rock_grid_rect_2,3,14,-1,-1,0.82,0.13620751,-0.241025289,1,0,0,1.6063,Diorite_rect,3,1.606,1,14,0,14,0,1,,,,,,,,,,,,,
65fccfbedce99b1065ef1768,TCR,2024-06-21_13h47.30.104,LearnStrategy,2023.2.3,Linux x86_64,59.88023952,4,1,16,0.090173933,-0.007222388,1,0,0,0.9733,rock_grid_rect_2,1,10,-1,-1,0.973,0.381011398,-0.247460189,1,0,0,2.2663,Gabbro_rect,4,2.266,0,15,0,15,0,1,,,,,,,,,,,,,
65fccfbedce99b1065ef1768,TCR,2024-06-21_13h47.30.104,LearnStrategy,2023.2.3,Linux x86_64,59.88023952,4,2,1,,,,,,,,1,01,,,,,,,,,,,4,2.598,0,,,,,,0.390690415,-0.240621708,1,0,0,2.5985,Gabbro_rect,0,0,0,0,1,
65fccfbedce99b1065ef1768,TCR,2024-06-21_13h47.30.104,LearnStrategy,2023.2.3,Linux x86_64,59.88023952,4,2,2,,,,,,,,2,05,,,,,,,,,,,2,1.269,1,,,,,,-0.186235852,-0.237014982,1,0,0,1.2695,Basalt_rect,1,0,1,0,1,
65fccfbedce99b1065ef1768,TCR,2024-06-21_13h47.30.104,LearnStrategy,2023.2.3,Linux x86_64,59.88023952,4,2,3,,,,,,,,5,16,,,,,,,,,,,5,2.679,1,,,,,,-0.410146466,-0.391775555,1,0,0,2.6786,Obsidian_rect,2,0,2,0,1,
65fccfbedce99b1065ef1768,TCR,2024-06-21_13h47.30.104,LearnStrategy,2023.2.3,Linux x86_64,59.88023952,4,2,4,,,,,,,,6,15,,,,,,,,,,,6,2.186,1,,,,,,-0.149925585,-0.404309237,1,0,0,2.1862,Pegmatite_rect,3,0,3,0,1,
65fccfbedce99b1065ef1768,TCR,2024-06-21_13h47.30.104,LearnStrategy,2023.2.3,Linux x86_64,59.88023952,4,2,5,,,,,,,,4,16,,,,,,,,,,,2,1.32,0,,,,,,-0.088522664,-0.254495621,1,0,0,1.3197,Basalt_rect,4,0,4,0,1,
65fccfbedce99b1065ef1768,TCR,2024-06-21_13h47.30.104,LearnStrategy,2023.2.3,Linux x86_64,59.88023952,4,2,6,,,,,,,,6,16,,,,,,,,,,,6,4.782,1,,,,,,-0.176974332,-0.39564938,1,0,0,4.7815,Pegmatite_rect,5,0,5,0,1,
65fccfbedce99b1065ef1768,TCR,2024-06-21_13h47.30.104,LearnStrategy,2023.2.3,Linux x86_64,59.88023952,4,2,7,,,,,,,,8,04,,,,,,,,,,,8,1.175,1,,,,,,0.353814443,-0.380164464,1,0,0,1.1752,Pumice_rect,6,0,6,0,1,
65fccfbedce99b1065ef1768,TCR,2024-06-21_13h47.30.104,LearnStrategy,2023.2.3,Linux x86_64,59.88023952,4,2,8,,,,,,,,5,07,,,,,,,,,,,5,1.691,1,,,,,,-0.419770135,-0.409384339,1,0,0,1.6906,Obsidian_rect,7,0,7,0,1,
65fccfbedce99b1065ef1768,TCR,2024-06-21_13h47.30.104,LearnStrategy,2023.2.3,Linux x86_64,59.88023952,4,2,9,,,,,,,,2,12,,,,,,,,,,,4,1.807,0,,,,,,0.446154842,-0.246834013,1,0,0,1.8073,Gabbro_rect,8,0,8,0,1,
65fccfbedce99b1065ef1768,TCR,2024-06-21_13h47.30.104,LearnStrategy,2023.2.3,Linux x86_64,59.88023952,4,2,10,,,,,,,,1,04,,,,,,,,,,,3,1.881,0,,,,,,0.118522573,-0.231231901,1,0,0,1.8813,Diorite_rect,9,0,9,0,1,
65fccfbedce99b1065ef1768,TCR,2024-06-21_13h47.30.104,LearnStrategy,2023.2.3,Linux x86_64,59.88023952,4,2,11,,,,,,,,7,15,,,,,,,,,,,7,0.979,1,,,,,,0.106018843,-0.403041486,1,0,0,0.979,Peridotite_rect,10,0,10,0,1,
65fccfbedce99b1065ef1768,TCR,2024-06-21_13h47.30.104,LearnStrategy,2023.2.3,Linux x86_64,59.88023952,4,2,12,,,,,,,,7,02,,,,,,,,,,,7,0.95,1,,,,,,0.106849317,-0.398040913,1,0,0,0.9496,Peridotite_rect,11,0,11,0,1,
65fccfbedce99b1065ef1768,TCR,2024-06-21_13h47.30.104,LearnStrategy,2023.2.3,Linux x86_64,59.88023952,4,2,13,,,,,,,,3,16,,,,,,,,,,,3,1.738,1,,,,,,0.148480097,-0.269577803,1,0,0,1.7375,Diorite_rect,12,0,12,0,1,
65fccfbedce99b1065ef1768,TCR,2024-06-21_13h47.30.104,LearnStrategy,2023.2.3,Linux x86_64,59.88023952,4,2,14,,,,,,,,4,05,,,,,,,,,,,4,2.164,1,,,,,,0.399965498,-0.242009057,1,0,0,2.1638,Gabbro_rect,13,0,13,0,1,
65fccfbedce99b1065ef1768,TCR,2024-06-21_13h47.30.104,LearnStrategy,2023.2.3,Linux x86_64,59.88023952,4,2,15,,,,,,,,3,09,,,,,,,,,,,1,1.568,0,,,,,,-0.381796378,-0.23335146,1,0,0,1.5676,Andesite_rect,14,0,14,0,1,
65fccfbedce99b1065ef1768,TCR,2024-06-21_13h47.30.104,LearnStrategy,2023.2.3,Linux x86_64,59.88023952,4,2,16,,,,,,,,8,14,,,,,,,,,,,8,1.144,1,,,,,,0.386708577,-0.382044474,1,0,0,1.1442,Pumice_rect,15,0,15,0,1,
65fccfbedce99b1065ef1768,TCR,2024-06-21_13h47.30.104,LearnStrategy,2023.2.3,Linux x86_64,59.88023952,5,1,1,0.145163854,-0.001237375,1,0,0,1.2115,rock_grid_rect_2,2,14,-1,-1,1.212,0.428580955,-0.254777838,1,0,0,1.7985,Gabbro_rect,4,1.798,0,0,0,0,0,1,,,,,,,,,,,,,
65fccfbedce99b1065ef1768,TCR,2024-06-21_13h47.30.104,LearnStrategy,2023.2.3,Linux x86_64,59.88023952,5,1,2,0.024240776,0.009388676,1,0,0,0.8964,rock_grid_rect_2,8,13,-1,-1,0.896,0.381669645,-0.394533722,1,0,0,2.0978,Pumice_rect,8,2.098,1,1,0,1,0,1,,,,,,,,,,,,,
65fccfbedce99b1065ef1768,TCR,2024-06-21_13h47.30.104,LearnStrategy,2023.2.3,Linux x86_64,59.88023952,5,1,3,0.098554611,-0.011869148,1,0,0,0.9626,rock_grid_rect_2,4,11,-1,-1,0.963,0.386204331,-0.263233538,1,0,0,1.6001,Gabbro_rect,4,1.6,1,2,0,2,0,1,,,,,,,,,,,,,
65fccfbedce99b1065ef1768,TCR,2024-06-21_13h47.30.104,LearnStrategy,2023.2.3,Linux x86_64,59.88023952,5,1,4,0.068114811,-0.003026892,1,0,0,0.9819,rock_grid_rect_2,1,14,-1,-1,0.982,0.209639585,-0.237891939,1,0,0,2.616,Diorite_rect,3,2.616,0,3,0,3,0,1,,,,,,,,,,,,,
65fccfbedce99b1065ef1768,TCR,2024-06-21_13h47.30.104,LearnStrategy,2023.2.3,Linux x86_64,59.88023952,5,1,5,0.046543404,-0.005696897,1,0,0,0.8322,rock_grid_rect_2,4,10,-1,-1,0.832,0.416160301,-0.234843007,1,0,0,2.0708,Gabbro_rect,4,2.071,1,4,0,4,0,1,,,,,,,,,,,,,
65fccfbedce99b1065ef1768,TCR,2024-06-21_13h47.30.104,LearnStrategy,2023.2.3,Linux x86_64,59.88023952,5,1,6,0.105882574,0.012284385,1,0,0,0.687,rock_grid_rect_2,3,14,-1,-1,0.687,0.104831625,-0.235193464,1,0,0,3.1893,Diorite_rect,3,3.189,1,5,0,5,0,1,,,,,,,,,,,,,
65fccfbedce99b1065ef1768,TCR,2024-06-21_13h47.30.104,LearnStrategy,2023.2.3,Linux x86_64,59.88023952,5,1,7,0.109171549,-0.012845746,1,0,0,0.875,rock_grid_rect_2,5,05,-1,-1,0.875,-0.401299265,-0.38714536,1,0,0,1.6359,Obsidian_rect,5,1.636,1,6,0,6,0,1,,,,,,,,,,,,,
65fccfbedce99b1065ef1768,TCR,2024-06-21_13h47.30.104,LearnStrategy,2023.2.3,Linux x86_64,59.88023952,5,1,8,0.15052308,0.00509202,1,0,0,0.6111,rock_grid_rect_2,2,10,-1,-1,0.611,-0.123034159,-0.24266462,1,0,0,2.1858,Basalt_rect,2,2.186,1,7,0,7,0,1,,,,,,,,,,,,,
65fccfbedce99b1065ef1768,TCR,2024-06-21_13h47.30.104,LearnStrategy,2023.2.3,Linux x86_64,59.88023952,5,1,9,0.169279452,0.013906514,1,0,0,0.9492,rock_grid_rect_2,1,09,-1,-1,0.949,-0.359742553,-0.248842522,1,0,0,1.4067,Andesite_rect,1,1.407,1,8,0,8,0,1,,,,,,,,,,,,,
65fccfbedce99b1065ef1768,TCR,2024-06-21_13h47.30.104,LearnStrategy,2023.2.3,Linux x86_64,59.88023952,5,1,10,0.084860272,0.000347102,1,0,0,1.1064,rock_grid_rect_2,3,10,-1,-1,1.106,0.157243658,-0.40667873,1,0,0,1.9008,Peridotite_rect,7,1.901,0,9,0,9,0,1,,,,,,,,,,,,,
65fccfbedce99b1065ef1768,TCR,2024-06-21_13h47.30.104,LearnStrategy,2023.2.3,Linux x86_64,59.88023952,5,1,11,0.108494088,-0.007363496,1,0,0,0.7923,rock_grid_rect_2,3,12,-1,-1,0.792,0.127241841,-0.263731144,1,0,0,1.5519,Diorite_rect,3,1.552,1,10,0,10,0,1,,,,,,,,,,,,,
65fccfbedce99b1065ef1768,TCR,2024-06-21_13h47.30.104,LearnStrategy,2023.2.3,Linux x86_64,59.88023952,5,1,12,0.100052021,0.010160764,1,0,0,0.9185,rock_grid_rect_2,6,05,-1,-1,0.918,0.131323497,-0.243464081,1,0,0,4.4251,Diorite_rect,3,4.425,0,11,0,11,0,1,,,,,,,,,,,,,
65fccfbedce99b1065ef1768,TCR,2024-06-21_13h47.30.104,LearnStrategy,2023.2.3,Linux x86_64,59.88023952,5,1,13,0.080704795,0.020764139,1,0,0,0.6113,rock_grid_rect_2,4,13,-1,-1,0.611,0.396373466,-0.271059531,1,0,0,1.7131,Gabbro_rect,4,1.713,1,12,0,12,0,1,,,,,,,,,,,,,
65fccfbedce99b1065ef1768,TCR,2024-06-21_13h47.30.104,LearnStrategy,2023.2.3,Linux x86_64,59.88023952,5,1,14,0.07961033,-0.011091621,1,0,0,0.6801,rock_grid_rect_2,1,07,-1,-1,0.68,0.146663454,-0.261844494,1,0,0,1.8287,Diorite_rect,3,1.829,0,13,0,13,0,1,,,,,,,,,,,,,
65fccfbedce99b1065ef1768,TCR,2024-06-21_13h47.30.104,LearnStrategy,2023.2.3,Linux x86_64,59.88023952,5,1,15,0.073947412,0.011231528,1,0,0,0.7777,rock_grid_rect_2,1,05,-1,-1,0.778,-0.37192546,-0.268497891,1,0,0,1.2386,Andesite_rect,1,1.239,1,14,0,14,0,1,,,,,,,,,,,,,
65fccfbedce99b1065ef1768,TCR,2024-06-21_13h47.30.104,LearnStrategy,2023.2.3,Linux x86_64,59.88023952,5,1,16,0.115147555,0.007659241,1,0,0,0.7087,rock_grid_rect_2,7,16,-1,-1,0.709,0.124101215,-0.396586312,1,0,0,2.9542,Peridotite_rect,7,2.954,1,15,0,15,0,1,,,,,,,,,,,,,
65fccfbedce99b1065ef1768,TCR,2024-06-21_13h47.30.104,LearnStrategy,2023.2.3,Linux x86_64,59.88023952,5,2,1,,,,,,,,7,08,,,,,,,,,,,7,1.381,1,,,,,,0.086949101,-0.385746285,1,0,0,1.3809,Peridotite_rect,0,0,0,0,1,
65fccfbedce99b1065ef1768,TCR,2024-06-21_13h47.30.104,LearnStrategy,2023.2.3,Linux x86_64,59.88023952,5,2,2,,,,,,,,8,15,,,,,,,,,,,8,1.098,1,,,,,,0.341674805,-0.403447964,1,0,0,1.0981,Pumice_rect,1,0,1,0,1,
65fccfbedce99b1065ef1768,TCR,2024-06-21_13h47.30.104,LearnStrategy,2023.2.3,Linux x86_64,59.88023952,5,2,3,,,,,,,,3,07,,,,,,,,,,,1,2.269,0,,,,,,-0.369209466,-0.245847914,1,0,0,2.269,Andesite_rect,2,0,2,0,1,
65fccfbedce99b1065ef1768,TCR,2024-06-21_13h47.30.104,LearnStrategy,2023.2.3,Linux x86_64,59.88023952,5,2,4,,,,,,,,1,11,,,,,,,,,,,1,1.279,1,,,,,,-0.36090925,-0.250884233,1,0,0,1.2786,Andesite_rect,3,0,3,0,1,
65fccfbedce99b1065ef1768,TCR,2024-06-21_13h47.30.104,LearnStrategy,2023.2.3,Linux x86_64,59.88023952,5,2,5,,,,,,,,7,14,,,,,,,,,,,7,2.188,1,,,,,,0.110844718,-0.387780649,1,0,0,2.1883,Peridotite_rect,4,0,4,0,1,
65fccfbedce99b1065ef1768,TCR,2024-06-21_13h47.30.104,LearnStrategy,2023.2.3,Linux x86_64,59.88023952,5,2,6,,,,,,,,5,11,,,,,,,,,,,5,1.016,1,,,,,,-0.422089224,-0.391389635,1,0,0,1.0164,Obsidian_rect,5,0,5,0,1,
65fccfbedce99b1065ef1768,TCR,2024-06-21_13h47.30.104,LearnStrategy,2023.2.3,Linux x86_64,59.88023952,5,2,7,,,,,,,,4,12,,,,,,,,,,,4,2.629,1,,,,,,0.435362215,-0.263750641,1,0,0,2.6293,Gabbro_rect,6,0,6,0,1,
65fccfbedce99b1065ef1768,TCR,2024-06-21_13h47.30.104,LearnStrategy,2023.2.3,Linux x86_64,59.88023952,5,2,8,,,,,,,,8,08,,,,,,,,,,,8,1.186,1,,,,,,0.379667918,-0.393024162,1,0,0,1.1856,Pumice_rect,7,0,7,0,1,
65fccfbedce99b1065ef1768,TCR,2024-06-21_13h47.30.104,LearnStrategy,2023.2.3,Linux x86_64,59.88023952,5,2,9,,,,,,,,4,15,,,,,,,,,,,4,4.562,1,,,,,,0.41847342,-0.245667564,1,0,0,4.5618,Gabbro_rect,8,0,8,0,1,
65fccfbedce99b1065ef1768,TCR,2024-06-21_13h47.30.104,LearnStrategy,2023.2.3,Linux x86_64,59.88023952,5,2,10,,,,,,,,2,06,,,,,,,,,,,2,1.517,1,,,,,,-0.104261045,-0.269324762,1,0,0,1.5173,Basalt_rect,9,0,9,0,1,
65fccfbedce99b1065ef1768,TCR,2024-06-21_13h47.30.104,LearnStrategy,2023.2.3,Linux x86_64,59.88023952,5,2,11,,,,,,,,1,06,,,,,,,,,,,3,1.445,0,,,,,,0.192546915,-0.270988676,1,0,0,1.4448,Diorite_rect,10,0,10,0,1,
65fccfbedce99b1065ef1768,TCR,2024-06-21_13h47.30.104,LearnStrategy,2023.2.3,Linux x86_64,59.88023952,5,2,12,,,,,,,,5,04,,,,,,,,,,,5,0.967,1,,,,,,-0.409559674,-0.392848191,1,0,0,0.9666,Obsidian_rect,11,0,11,0,1,
65fccfbedce99b1065ef1768,TCR,2024-06-21_13h47.30.104,LearnStrategy,2023.2.3,Linux x86_64,59.88023952,5,2,13,,,,,,,,6,08,,,,,,,,,,,6,2.078,1,,,,,,-0.175328219,-0.396649043,1,0,0,2.0777,Pegmatite_rect,12,0,12,0,1,
65fccfbedce99b1065ef1768,TCR,2024-06-21_13h47.30.104,LearnStrategy,2023.2.3,Linux x86_64,59.88023952,5,2,14,,,,,,,,3,15,,,,,,,,,,,3,7.804,1,,,,,,0.108185945,-0.26341622,1,0,0,7.8043,Diorite_rect,13,0,13,0,1,
65fccfbedce99b1065ef1768,TCR,2024-06-21_13h47.30.104,LearnStrategy,2023.2.3,Linux x86_64,59.88023952,5,2,15,,,,,,,,6,09,,,,,,,,,,,6,2.346,1,,,,,,-0.13110726,-0.405806577,1,0,0,2.3461,Pegmatite_rect,14,0,14,0,1,
65fccfbedce99b1065ef1768,TCR,2024-06-21_13h47.30.104,LearnStrategy,2023.2.3,Linux x86_64,59.88023952,5,2,16,,,,,,,,2,02,,,,,,,,,,,2,1.456,1,,,,,,-0.131423173,-0.25498701,1,0,0,1.4564,Basalt_rect,15,0,15,0,1,
65fccfbedce99b1065ef1768,TCR,2024-06-21_13h47.30.104,LearnStrategy,2023.2.3,Linux x86_64,59.88023952,6,1,1,0.038017485,0.005152561,1,0,0,0.9391,rock_grid_rect_2,2,09,-1,-1,0.939,-0.062589363,-0.238025171,1,0,0,3.1994,Basalt_rect,2,3.199,1,0,0,0,0,1,,,,,,,,,,,,,
65fccfbedce99b1065ef1768,TCR,2024-06-21_13h47.30.104,LearnStrategy,2023.2.3,Linux x86_64,59.88023952,6,1,2,0.100774482,-0.018642355,1,0,0,1.1867,rock_grid_rect_2,5,02,-1,-1,1.187,-0.4072829,-0.396168956,1,0,0,1.1913,Obsidian_rect,5,1.191,1,1,0,1,0,1,,,,,,,,,,,,,
65fccfbedce99b1065ef1768,TCR,2024-06-21_13h47.30.104,LearnStrategy,2023.2.3,Linux x86_64,59.88023952,6,1,3,0.061610045,0.001741692,1,0,0,1.527,rock_grid_rect_2,1,07,-1,-1,1.527,0.108481301,-0.242418854,1,0,0,2.6178,Diorite_rect,3,2.618,0,2,0,2,0,1,,,,,,,,,,,,,
65fccfbedce99b1065ef1768,TCR,2024-06-21_13h47.30.104,LearnStrategy,2023.2.3,Linux x86_64,59.88023952,6,1,4,0.010611993,-0.012567026,1,0,0,1.1184,rock_grid_rect_2,8,16,-1,-1,1.118,0.370733756,-0.399470506,1,0,0,1.463,Pumice_rect,8,1.463,1,3,0,3,0,1,,,,,,,,,,,,,
65fccfbedce99b1065ef1768,TCR,2024-06-21_13h47.30.104,LearnStrategy,2023.2.3,Linux x86_64,59.88023952,6,1,5,-0.043452016,-0.000883138,1,0,0,1.6141,rock_grid_rect_2,4,03,-1,-1,1.614,-0.440933969,-0.233861217,1,0,0,2.9623,Andesite_rect,1,2.962,0,4,0,4,0,1,,,,,,,,,,,,,
65fccfbedce99b1065ef1768,TCR,2024-06-21_13h47.30.104,LearnStrategy,2023.2.3,Linux x86_64,59.88023952,6,1,6,0.009065204,0.000907545,1,0,0,1.8701,rock_grid_rect_2,3,14,-1,-1,1.87,-0.356476325,-0.2400447,1,0,0,2.8619,Andesite_rect,1,2.862,0,5,0,5,0,1,,,,,,,,,,,,,
65fccfbedce99b1065ef1768,TCR,2024-06-21_13h47.30.104,LearnStrategy,2023.2.3,Linux x86_64,59.88023952,6,1,7,0.087251239,-0.001837377,1,0,0,0.7302,rock_grid_rect_2,3,12,-1,-1,0.73,0.131271857,-0.266293844,1,0,0,4.6238,Diorite_rect,3,4.624,1,6,0,6,0,1,,,,,,,,,,,,,
65fccfbedce99b1065ef1768,TCR,2024-06-21_13h47.30.104,LearnStrategy,2023.2.3,Linux x86_64,59.88023952,6,1,8,0.146202723,0.017264401,1,0,0,0.6958,rock_grid_rect_2,1,16,-1,-1,0.696,-0.346233686,-0.262074506,1,0,0,3.9667,Andesite_rect,1,3.967,1,7,0,7,0,1,,,,,,,,,,,,,
65fccfbedce99b1065ef1768,TCR,2024-06-21_13h47.30.104,LearnStrategy,2023.2.3,Linux x86_64,59.88023952,6,1,9,0.078138705,0.00271776,1,0,0,0.8373,rock_grid_rect_2,1,07,-1,-1,0.837,0.129598335,-0.244347254,1,0,0,1.9124,Diorite_rect,3,1.912,0,8,0,8,0,1,,,,,,,,,,,,,
65fccfbedce99b1065ef1768,TCR,2024-06-21_13h47.30.104,LearnStrategy,2023.2.3,Linux x86_64,59.88023952,6,1,10,0.08761194,0.00335054,1,0,0,0.9604,rock_grid_rect_2,1,09,-1,-1,0.96,0.362038365,-0.250119174,1,0,0,1.9234,Gabbro_rect,4,1.923,0,9,0,9,0,1,,,,,,,,,,,,,
65fccfbedce99b1065ef1768,TCR,2024-06-21_13h47.30.104,LearnStrategy,2023.2.3,Linux x86_64,59.88023952,6,1,11,0.121714627,-0.005959652,1,0,0,0.94,rock_grid_rect_2,3,11,-1,-1,0.94,0.146803609,-0.412571236,1,0,0,2.4318,Peridotite_rect,7,2.432,0,10,0,10,0,1,,,,,,,,,,,,,
65fccfbedce99b1065ef1768,TCR,2024-06-21_13h47.30.104,LearnStrategy,2023.2.3,Linux x86_64,59.88023952,6,1,12,0.08232152,0.005208934,1,0,0,0.6387,rock_grid_rect_2,4,11,-1,-1,0.639,0.392961149,-0.246635649,1,0,0,2.0402,Gabbro_rect,4,2.04,1,11,0,11,0,1,,,,,,,,,,,,,
65fccfbedce99b1065ef1768,TCR,2024-06-21_13h47.30.104,LearnStrategy,2023.2.3,Linux x86_64,59.88023952,6,1,13,0.118570328,-0.016749735,1,0,0,0.7686,rock_grid_rect_2,4,11,-1,-1,0.769,0.465117843,-0.231530084,1,0,0,1.9728,Gabbro_rect,4,1.973,1,12,0,12,0,1,,,,,,,,,,,,,
65fccfbedce99b1065ef1768,TCR,2024-06-21_13h47.30.104,LearnStrategy,2023.2.3,Linux x86_64,59.88023952,6,1,14,0.079765744,-0.000603287,1,0,0,0.9582,rock_grid_rect_2,3,13,-1,-1,0.958,-0.347574305,-0.238685467,1,0,0,2.9535,Andesite_rect,1,2.953,0,13,0,13,0,1,,,,,,,,,,,,,
65fccfbedce99b1065ef1768,TCR,2024-06-21_13h47.30.104,LearnStrategy,2023.2.3,Linux x86_64,59.88023952,6,1,15,0.096310086,-0.002120407,1,0,0,0.8433,rock_grid_rect_2,7,05,-1,-1,0.843,0.127686253,-0.409819003,1,0,0,1.8218,Peridotite_rect,7,1.822,1,14,0,14,0,1,,,,,,,,,,,,,
65fccfbedce99b1065ef1768,TCR,2024-06-21_13h47.30.104,LearnStrategy,2023.2.3,Linux x86_64,59.88023952,6,1,16,0.115793864,0.001386607,1,0,0,0.7472,rock_grid_rect_2,6,10,-1,-1,0.747,-0.088490592,-0.407666171,1,0,0,1.7437,Pegmatite_rect,6,1.744,1,15,0,15,0,1,,,,,,,,,,,,,
65fccfbedce99b1065ef1768,TCR,2024-06-21_13h47.30.104,LearnStrategy,2023.2.3,Linux x86_64,59.88023952,6,2,1,,,,,,,,3,08,,,,,,,,,,,1,1.857,0,,,,,,-0.363651452,-0.246166371,1,0,0,1.857,Andesite_rect,0,0,0,0,1,
65fccfbedce99b1065ef1768,TCR,2024-06-21_13h47.30.104,LearnStrategy,2023.2.3,Linux x86_64,59.88023952,6,2,2,,,,,,,,2,16,,,,,,,,,,,2,2.521,1,,,,,,-0.098835203,-0.25089271,1,0,0,2.5206,Basalt_rect,1,0,1,0,1,
65fccfbedce99b1065ef1768,TCR,2024-06-21_13h47.30.104,LearnStrategy,2023.2.3,Linux x86_64,59.88023952,6,2,3,,,,,,,,6,12,,,,,,,,,,,3,2.105,0,,,,,,0.15431058,-0.250978258,1,0,0,2.105,Diorite_rect,2,0,2,0,1,
65fccfbedce99b1065ef1768,TCR,2024-06-21_13h47.30.104,LearnStrategy,2023.2.3,Linux x86_64,59.88023952,6,2,4,,,,,,,,8,02,,,,,,,,,,,8,1.167,1,,,,,,0.40637419,-0.391511776,1,0,0,1.1671,Pumice_rect,3,0,3,0,1,
65fccfbedce99b1065ef1768,TCR,2024-06-21_13h47.30.104,LearnStrategy,2023.2.3,Linux x86_64,59.88023952,6,2,5,,,,,,,,8,03,,,,,,,,,,,8,0.718,1,,,,,,0.40637419,-0.392334196,1,0,0,0.7177,Pumice_rect,4,0,4,0,1,
65fccfbedce99b1065ef1768,TCR,2024-06-21_13h47.30.104,LearnStrategy,2023.2.3,Linux x86_64,59.88023952,6,2,6,,,,,,,,6,03,,,,,,,,,,,6,2.215,1,,,,,,-0.086081681,-0.405852353,1,0,0,2.2154,Pegmatite_rect,5,0,5,0,1,
65fccfbedce99b1065ef1768,TCR,2024-06-21_13h47.30.104,LearnStrategy,2023.2.3,Linux x86_64,59.88023952,6,2,7,,,,,,,,3,06,,,,,,,,,,,1,1.93,0,,,,,,-0.341313044,-0.25333673,1,0,0,1.93,Andesite_rect,6,0,6,0,1,
65fccfbedce99b1065ef1768,TCR,2024-06-21_13h47.30.104,LearnStrategy,2023.2.3,Linux x86_64,59.88023952,6,2,8,,,,,,,,7,04,,,,,,,,,,,3,3.332,0,,,,,,0.107961372,-0.266065315,1,0,0,3.3319,Diorite_rect,7,0,7,0,1,
65fccfbedce99b1065ef1768,TCR,2024-06-21_13h47.30.104,LearnStrategy,2023.2.3,Linux x86_64,59.88023952,6,2,9,,,,,,,,4,08,,,,,,,,,,,4,1.753,1,,,,,,0.340869338,-0.24263163,1,0,0,1.7525,Gabbro_rect,8,0,8,0,1,
65fccfbedce99b1065ef1768,TCR,2024-06-21_13h47.30.104,LearnStrategy,2023.2.3,Linux x86_64,59.88023952,6,2,10,,,,,,,,7,10,,,,,,,,,,,7,1.227,1,,,,,,0.113557745,-0.395069193,1,0,0,1.227,Peridotite_rect,9,0,9,0,1,
65fccfbedce99b1065ef1768,TCR,2024-06-21_13h47.30.104,LearnStrategy,2023.2.3,Linux x86_64,59.88023952,6,2,11,,,,,,,,2,04,,,,,,,,,,,2,1.289,1,,,,,,-0.041848077,-0.267100087,1,0,0,1.2891,Basalt_rect,10,0,10,0,1,
65fccfbedce99b1065ef1768,TCR,2024-06-21_13h47.30.104,LearnStrategy,2023.2.3,Linux x86_64,59.88023952,6,2,12,,,,,,,,5,08,,,,,,,,,,,5,1.287,1,,,,,,-0.392309895,-0.400774991,1,0,0,1.2867,Obsidian_rect,11,0,11,0,1,
65fccfbedce99b1065ef1768,TCR,2024-06-21_13h47.30.104,LearnStrategy,2023.2.3,Linux x86_64,59.88023952,6,2,13,,,,,,,,1,03,,,,,,,,,,,3,2.267,0,,,,,,0.163485845,-0.235080224,1,0,0,2.2665,Diorite_rect,12,0,12,0,1,
65fccfbedce99b1065ef1768,TCR,2024-06-21_13h47.30.104,LearnStrategy,2023.2.3,Linux x86_64,59.88023952,6,2,14,,,,,,,,4,09,,,,,,,,,,,5,1.513,0,,,,,,-0.393650761,-0.395000528,1,0,0,1.513,Obsidian_rect,13,0,13,0,1,
65fccfbedce99b1065ef1768,TCR,2024-06-21_13h47.30.104,LearnStrategy,2023.2.3,Linux x86_64,59.88023952,6,2,15,,,,,,,,5,12,,,,,,,,,,,5,0.747,1,,,,,,-0.386340212,-0.387839211,1,0,0,0.7472,Obsidian_rect,14,0,14,0,1,
65fccfbedce99b1065ef1768,TCR,2024-06-21_13h47.30.104,LearnStrategy,2023.2.3,Linux x86_64,59.88023952,6,2,16,,,,,,,,1,02,,,,,,,,,,,1,1.334,1,,,,,,-0.358621209,-0.252378322,1,0,0,1.3344,Andesite_rect,15,0,15,0,1,
65fccfbedce99b1065ef1768,TCR,2024-06-21_13h47.30.104,LearnStrategy,2023.2.3,Linux x86_64,59.88023952,7,1,1,0.152908466,0.01431066,1,0,0,1.4465,rock_grid_rect_2,3,11,-1,-1,1.446,0.162621039,-0.413930752,1,0,0,3.4867,Peridotite_rect,7,3.487,0,0,0,0,0,1,,,,,,,,,,,,,
65fccfbedce99b1065ef1768,TCR,2024-06-21_13h47.30.104,LearnStrategy,2023.2.3,Linux x86_64,59.88023952,7,1,2,0.172777458,0.012616228,1,0,0,0.7619,rock_grid_rect_2,3,13,-1,-1,0.762,0.150750973,-0.256926148,1,0,0,2.3033,Diorite_rect,3,2.303,1,1,0,1,0,1,,,,,,,,,,,,,
65fccfbedce99b1065ef1768,TCR,2024-06-21_13h47.30.104,LearnStrategy,2023.2.3,Linux x86_64,59.88023952,7,1,3,0.09074416,0.013747215,1,0,0,0.7966,rock_grid_rect_2,1,16,-1,-1,0.797,0.416128512,-0.262907311,1,0,0,1.8575,Gabbro_rect,4,1.857,0,2,0,2,0,1,,,,,,,,,,,,,
65fccfbedce99b1065ef1768,TCR,2024-06-21_13h47.30.104,LearnStrategy,2023.2.3,Linux x86_64,59.88023952,7,1,4,0.13060711,-0.00669218,1,0,0,0.8646,rock_grid_rect_2,6,11,-1,-1,0.865,-0.101246657,-0.406612326,1,0,0,1.7609,Pegmatite_rect,6,1.761,1,3,0,3,0,1,,,,,,,,,,,,,
65fccfbedce99b1065ef1768,TCR,2024-06-21_13h47.30.104,LearnStrategy,2023.2.3,Linux x86_64,59.88023952,7,1,5,0.125008618,-0.000891897,1,0,0,0.8554,rock_grid_rect_2,4,10,-1,-1,0.855,0.41074004,-0.244431955,1,0,0,2.9609,Gabbro_rect,4,2.961,1,4,0,4,0,1,,,,,,,,,,,,,
65fccfbedce99b1065ef1768,TCR,2024-06-21_13h47.30.104,LearnStrategy,2023.2.3,Linux x86_64,59.88023952,7,1,6,0.112911436,-0.003492249,1,0,0,0.7486,rock_grid_rect_2,5,05,-1,-1,0.749,-0.414193895,-0.399709631,1,0,0,1.2036,Obsidian_rect,5,1.204,1,5,0,5,0,1,,,,,,,,,,,,,
65fccfbedce99b1065ef1768,TCR,2024-06-21_13h47.30.104,LearnStrategy,2023.2.3,Linux x86_64,59.88023952,7,1,7,0.135295656,-0.015355711,1,0,0,0.871,rock_grid_rect_2,7,07,-1,-1,0.871,0.130186081,-0.412891882,1,0,0,1.3901,Peridotite_rect,7,1.39,1,6,0,6,0,1,,,,,,,,,,,,,
65fccfbedce99b1065ef1768,TCR,2024-06-21_13h47.30.104,LearnStrategy,2023.2.3,Linux x86_64,59.88023952,7,1,8,0.092982893,0.004054493,1,0,0,0.8516,rock_grid_rect_2,2,14,-1,-1,0.852,-0.11071085,-0.245027401,1,0,0,1.6174,Basalt_rect,2,1.617,1,7,0,7,0,1,,,,,,,,,,,,,
65fccfbedce99b1065ef1768,TCR,2024-06-21_13h47.30.104,LearnStrategy,2023.2.3,Linux x86_64,59.88023952,7,1,9,0.082952358,-0.005688879,1,0,0,0.7361,rock_grid_rect_2,4,11,-1,-1,0.736,-0.373627168,-0.2329666,1,0,0,1.4934,Andesite_rect,1,1.493,0,8,0,8,0,1,,,,,,,,,,,,,
65fccfbedce99b1065ef1768,TCR,2024-06-21_13h47.30.104,LearnStrategy,2023.2.3,Linux x86_64,59.88023952,7,1,10,0.111490885,-0.008008851,1,0,0,0.8435,rock_grid_rect_2,6,05,-1,-1,0.844,0.159150088,-0.416460461,1,0,0,3.7753,Peridotite_rect,7,3.775,0,9,0,9,0,1,,,,,,,,,,,,,
65fccfbedce99b1065ef1768,TCR,2024-06-21_13h47.30.104,LearnStrategy,2023.2.3,Linux x86_64,59.88023952,7,1,11,0.085301646,-0.003567166,1,0,0,0.7603,rock_grid_rect_2,3,10,-1,-1,0.76,-0.34473677,-0.244644871,1,0,0,1.751,Andesite_rect,1,1.751,0,10,0,10,0,1,,,,,,,,,,,,,
65fccfbedce99b1065ef1768,TCR,2024-06-21_13h47.30.104,LearnStrategy,2023.2.3,Linux x86_64,59.88023952,7,1,12,0.15164559,-0.005009404,1,0,0,0.6462,rock_grid_rect_2,1,09,-1,-1,0.646,-0.368172434,-0.252151842,1,0,0,1.9073,Andesite_rect,1,1.907,1,11,0,11,0,1,,,,,,,,,,,,,
65fccfbedce99b1065ef1768,TCR,2024-06-21_13h47.30.104,LearnStrategy,2023.2.3,Linux x86_64,59.88023952,7,1,13,0.098071204,-0.005853441,1,0,0,0.7959,rock_grid_rect_2,3,14,-1,-1,0.796,0.105197129,-0.265572725,1,0,0,3.0442,Diorite_rect,3,3.044,1,12,0,12,0,1,,,,,,,,,,,,,
65fccfbedce99b1065ef1768,TCR,2024-06-21_13h47.30.104,LearnStrategy,2023.2.3,Linux x86_64,59.88023952,7,1,14,0.112660726,-0.006055761,1,0,0,0.8124,rock_grid_rect_2,1,10,-1,-1,0.812,0.344389032,-0.238906083,1,0,0,2.2836,Gabbro_rect,4,2.284,0,13,0,13,0,1,,,,,,,,,,,,,
65fccfbedce99b1065ef1768,TCR,2024-06-21_13h47.30.104,LearnStrategy,2023.2.3,Linux x86_64,59.88023952,7,1,15,0.101849803,-0.007777709,1,0,0,0.6803,rock_grid_rect_2,1,05,-1,-1,0.68,-0.357031963,-0.254288002,1,0,0,1.852,Andesite_rect,1,1.852,1,14,0,14,0,1,,,,,,,,,,,,,
65fccfbedce99b1065ef1768,TCR,2024-06-21_13h47.30.104,LearnStrategy,2023.2.3,Linux x86_64,59.88023952,7,1,16,0.170443076,0.014113356,1,0,0,0.7129,rock_grid_rect_2,7,12,-1,-1,0.713,0.093699703,-0.414846279,1,0,0,1.4142,Peridotite_rect,7,1.414,1,15,0,15,0,1,,,,,,,,,,,,,
65fccfbedce99b1065ef1768,TCR,2024-06-21_13h47.30.104,LearnStrategy,2023.2.3,Linux x86_64,59.88023952,7,2,1,,,,,,,,1,06,,,,,,,,,,,1,96.36,1,,,,,,-0.365070202,-0.24542201,1,0,0,96.3595,Andesite_rect,0,0,0,0,1,
65fccfbedce99b1065ef1768,TCR,2024-06-21_13h47.30.104,LearnStrategy,2023.2.3,Linux x86_64,59.88023952,7,2,2,,,,,,,,7,14,,,,,,,,,,,7,4.263,1,,,,,,0.135318897,-0.413311711,1,0,0,4.2626,Peridotite_rect,1,0,1,0,1,
65fccfbedce99b1065ef1768,TCR,2024-06-21_13h47.30.104,LearnStrategy,2023.2.3,Linux x86_64,59.88023952,7,2,3,,,,,,,,6,12,,,,,,,,,,,3,1.597,0,,,,,,0.124701182,-0.23261042,1,0,0,1.597,Diorite_rect,2,0,2,0,1,
65fccfbedce99b1065ef1768,TCR,2024-06-21_13h47.30.104,LearnStrategy,2023.2.3,Linux x86_64,59.88023952,7,2,4,,,,,,,,8,08,,,,,,,,,,,8,1.247,1,,,,,,0.443571303,-0.383345922,1,0,0,1.2474,Pumice_rect,3,0,3,0,1,
65fccfbedce99b1065ef1768,TCR,2024-06-21_13h47.30.104,LearnStrategy,2023.2.3,Linux x86_64,59.88023952,7,2,5,,,,,,,,8,02,,,,,,,,,,,8,0.752,1,,,,,,0.445254997,-0.385870969,1,0,0,0.7524,Pumice_rect,4,0,4,0,1,
65fccfbedce99b1065ef1768,TCR,2024-06-21_13h47.30.104,LearnStrategy,2023.2.3,Linux x86_64,59.88023952,7,2,6,,,,,,,,2,06,,,,,,,,,,,2,1.714,1,,,,,,-0.195234299,-0.23952025,1,0,0,1.7136,Basalt_rect,5,0,5,0,1,
65fccfbedce99b1065ef1768,TCR,2024-06-21_13h47.30.104,LearnStrategy,2023.2.3,Linux x86_64,59.88023952,7,2,7,,,,,,,,5,07,,,,,,,,,,,5,1.18,1,,,,,,-0.396321261,-0.397141139,1,0,0,1.1801,Obsidian_rect,6,0,6,0,1,
65fccfbedce99b1065ef1768,TCR,2024-06-21_13h47.30.104,LearnStrategy,2023.2.3,Linux x86_64,59.88023952,7,2,8,,,,,,,,1,11,,,,,,,,,,,1,1.191,1,,,,,,-0.385250445,-0.247509356,1,0,0,1.191,Andesite_rect,7,0,7,0,1,
65fccfbedce99b1065ef1768,TCR,2024-06-21_13h47.30.104,LearnStrategy,2023.2.3,Linux x86_64,59.88023952,7,2,9,,,,,,,,4,15,,,,,,,,,,,4,2.413,1,,,,,,0.382917192,-0.26862427,1,0,0,2.4126,Gabbro_rect,8,0,8,0,1,
65fccfbedce99b1065ef1768,TCR,2024-06-21_13h47.30.104,LearnStrategy,2023.2.3,Linux x86_64,59.88023952,7,2,10,,,,,,,,6,03,,,,,,,,,,,7,1.601,0,,,,,,0.128148538,-0.394579428,1,0,0,1.6007,Peridotite_rect,9,0,9,0,1,
65fccfbedce99b1065ef1768,TCR,2024-06-21_13h47.30.104,LearnStrategy,2023.2.3,Linux x86_64,59.88023952,7,2,11,,,,,,,,7,02,,,,,,,,,,,7,0.743,1,,,,,,0.128990032,-0.39373751,1,0,0,0.7432,Peridotite_rect,10,0,10,0,1,
65fccfbedce99b1065ef1768,TCR,2024-06-21_13h47.30.104,LearnStrategy,2023.2.3,Linux x86_64,59.88023952,7,2,12,,,,,,,,4,12,,,,,,,,,,,1,2.386,0,,,,,,-0.414301378,-0.266253365,1,0,0,2.3857,Andesite_rect,11,0,11,0,1,
65fccfbedce99b1065ef1768,TCR,2024-06-21_13h47.30.104,LearnStrategy,2023.2.3,Linux x86_64,59.88023952,7,2,13,,,,,,,,2,16,,,,,,,,,,,2,1.2,1,,,,,,-0.194162227,-0.259021265,1,0,0,1.1997,Basalt_rect,12,0,12,0,1,
65fccfbedce99b1065ef1768,TCR,2024-06-21_13h47.30.104,LearnStrategy,2023.2.3,Linux x86_64,59.88023952,7,2,14,,,,,,,,5,11,,,,,,,,,,,5,1.088,1,,,,,,-0.363213257,-0.395353741,1,0,0,1.0885,Obsidian_rect,13,0,13,0,1,
65fccfbedce99b1065ef1768,TCR,2024-06-21_13h47.30.104,LearnStrategy,2023.2.3,Linux x86_64,59.88023952,7,2,15,,,,,,,,3,09,,,,,,,,,,,3,1.803,1,,,,,,0.167717474,-0.23060403,1,0,0,1.8027,Diorite_rect,14,0,14,0,1,
65fccfbedce99b1065ef1768,TCR,2024-06-21_13h47.30.104,LearnStrategy,2023.2.3,Linux x86_64,59.88023952,7,2,16,,,,,,,,3,16,,,,,,,,,,,3,0.779,1,,,,,,0.165217859,-0.233099973,1,0,0,0.7787,Diorite_rect,15,0,15,0,1,
65fccfbedce99b1065ef1768,TCR,2024-06-21_13h47.30.104,LearnStrategy,2023.2.3,Linux x86_64,59.88023952,8,1,1,0.121256652,-0.016672594,1,0,0,3.5847,rock_grid_rect_2,4,03,-1,-1,3.585,0.175400275,-0.244865912,1,0,0,3.2288,Diorite_rect,3,3.229,0,0,0,0,0,1,,,,,,,,,,,,,
65fccfbedce99b1065ef1768,TCR,2024-06-21_13h47.30.104,LearnStrategy,2023.2.3,Linux x86_64,59.88023952,8,1,2,0.081282227,-0.021739501,1,0,0,1.135,rock_grid_rect_2,8,10,-1,-1,1.135,0.3909922,-0.390170768,1,0,0,1.1526,Pumice_rect,8,1.153,1,1,0,1,0,1,,,,,,,,,,,,,
65fccfbedce99b1065ef1768,TCR,2024-06-21_13h47.30.104,LearnStrategy,2023.2.3,Linux x86_64,59.88023952,8,1,3,0.097767724,-0.022993971,1,0,0,1.2375,rock_grid_rect_2,6,06,-1,-1,1.237,-0.372587133,-0.250175476,1,0,0,2.0398,Andesite_rect,1,2.04,0,2,0,2,0,1,,,,,,,,,,,,,
65fccfbedce99b1065ef1768,TCR,2024-06-21_13h47.30.104,LearnStrategy,2023.2.3,Linux x86_64,59.88023952,8,1,4,0.043515241,-0.001537712,1,0,0,1.7336,rock_grid_rect_2,4,14,-1,-1,1.734,0.37586961,-0.240543154,1,0,0,1.9208,Gabbro_rect,4,1.921,1,3,0,3,0,1,,,,,,,,,,,,,
65fccfbedce99b1065ef1768,TCR,2024-06-21_13h47.30.104,LearnStrategy,2023.2.3,Linux x86_64,59.88023952,8,1,5,0.153074123,-0.005185622,1,0,0,0.7751,rock_grid_rect_2,1,14,-1,-1,0.775,-0.367641343,-0.258989334,1,0,0,2.5742,Andesite_rect,1,2.574,1,4,0,4,0,1,,,,,,,,,,,,,
65fccfbedce99b1065ef1768,TCR,2024-06-21_13h47.30.104,LearnStrategy,2023.2.3,Linux x86_64,59.88023952,8,1,6,0.10875278,0.000773289,1,0,0,0.6798,rock_grid_rect_2,1,09,-1,-1,0.68,-0.364322168,-0.235017494,1,0,0,1.8866,Andesite_rect,1,1.887,1,5,0,5,0,1,,,,,,,,,,,,,
65fccfbedce99b1065ef1768,TCR,2024-06-21_13h47.30.104,LearnStrategy,2023.2.3,Linux x86_64,59.88023952,8,1,7,0.142142896,-0.007836342,1,0,0,0.6918,rock_grid_rect_2,6,05,-1,-1,0.692,-0.120902733,-0.414405258,1,0,0,4.3223,Pegmatite_rect,6,4.322,1,6,0,6,0,1,,,,,,,,,,,,,
65fccfbedce99b1065ef1768,TCR,2024-06-21_13h47.30.104,LearnStrategy,2023.2.3,Linux x86_64,59.88023952,8,1,8,0.144393497,0.022283766,1,0,0,0.6425,rock_grid_rect_2,2,10,-1,-1,0.643,-0.124674338,-0.232270064,1,0,0,1.2658,Basalt_rect,2,1.266,1,7,0,7,0,1,,,,,,,,,,,,,
65fccfbedce99b1065ef1768,TCR,2024-06-21_13h47.30.104,LearnStrategy,2023.2.3,Linux x86_64,59.88023952,8,1,9,0.140165682,-0.014190109,1,0,0,0.9007,rock_grid_rect_2,6,05,-1,-1,0.901,-0.146310241,-0.399415899,1,0,0,1.2844,Pegmatite_rect,6,1.284,1,8,0,8,0,1,,,,,,,,,,,,,
65fccfbedce99b1065ef1768,TCR,2024-06-21_13h47.30.104,LearnStrategy,2023.2.3,Linux x86_64,59.88023952,8,1,10,0.124189024,-0.018702013,1,0,0,0.9327,rock_grid_rect_2,3,10,-1,-1,0.933,0.126718521,-0.233236313,1,0,0,2.2897,Diorite_rect,3,2.29,1,9,0,9,0,1,,,,,,,,,,,,,
65fccfbedce99b1065ef1768,TCR,2024-06-21_13h47.30.104,LearnStrategy,2023.2.3,Linux x86_64,59.88023952,8,1,11,0.180201424,0.009905144,1,0,0,0.9787,rock_grid_rect_2,4,03,-1,-1,0.979,0.415182043,-0.238109659,1,0,0,2.9713,Gabbro_rect,4,2.971,1,10,0,10,0,1,,,,,,,,,,,,,
65fccfbedce99b1065ef1768,TCR,2024-06-21_13h47.30.104,LearnStrategy,2023.2.3,Linux x86_64,59.88023952,8,1,12,0.089804755,0.003940476,1,0,0,0.7913,rock_grid_rect_2,3,11,-1,-1,0.791,0.126083727,-0.414362519,1,0,0,1.4461,Peridotite_rect,7,1.446,0,11,0,11,0,1,,,,,,,,,,,,,
65fccfbedce99b1065ef1768,TCR,2024-06-21_13h47.30.104,LearnStrategy,2023.2.3,Linux x86_64,59.88023952,8,1,13,0.10137226,0.016181133,1,0,0,0.6785,rock_grid_rect_2,3,12,-1,-1,0.678,0.16142605,-0.404750047,1,0,0,1.2304,Peridotite_rect,7,1.23,0,12,0,12,0,1,,,,,,,,,,,,,
65fccfbedce99b1065ef1768,TCR,2024-06-21_13h47.30.104,LearnStrategy,2023.2.3,Linux x86_64,59.88023952,8,1,14,0.14622985,-0.01064244,1,0,0,0.6582,rock_grid_rect_2,5,02,-1,-1,0.658,-0.392380608,-0.408566298,1,0,0,1.1622,Obsidian_rect,5,1.162,1,13,0,13,0,1,,,,,,,,,,,,,
65fccfbedce99b1065ef1768,TCR,2024-06-21_13h47.30.104,LearnStrategy,2023.2.3,Linux x86_64,59.88023952,8,1,15,0.08113628,-0.004540408,1,0,0,1.0634,rock_grid_rect_2,7,06,-1,-1,1.063,0.15403691,-0.408454612,1,0,0,1.2329,Peridotite_rect,7,1.233,1,14,0,14,0,1,,,,,,,,,,,,,
65fccfbedce99b1065ef1768,TCR,2024-06-21_13h47.30.104,LearnStrategy,2023.2.3,Linux x86_64,59.88023952,8,1,16,0.131421054,-5.94104E-05,1,0,0,0.8711,rock_grid_rect_2,1,16,-1,-1,0.871,0.14475554,-0.255589379,1,0,0,2.2423,Diorite_rect,3,2.242,0,15,0,15,0,1,,,,,,,,,,,,,
65fccfbedce99b1065ef1768,TCR,2024-06-21_13h47.30.104,LearnStrategy,2023.2.3,Linux x86_64,59.88023952,8,2,1,,,,,,,,8,14,,,,,,,,,,,8,1.224,1,,,,,,0.408009988,-0.41386463,1,0,0,1.2237,Pumice_rect,0,0,0,0,1,
65fccfbedce99b1065ef1768,TCR,2024-06-21_13h47.30.104,LearnStrategy,2023.2.3,Linux x86_64,59.88023952,8,2,2,,,,,,,,4,05,,,,,,,,,,,4,2.644,1,,,,,,0.38711011,-0.243954199,1,0,0,2.6435,Gabbro_rect,1,0,1,0,1,
65fccfbedce99b1065ef1768,TCR,2024-06-21_13h47.30.104,LearnStrategy,2023.2.3,Linux x86_64,59.88023952,8,2,3,,,,,,,,1,03,,,,,,,,,,,1,5.116,1,,,,,,-0.324028227,-0.267775571,1,0,0,5.1156,Andesite_rect,2,0,2,0,1,
65fccfbedce99b1065ef1768,TCR,2024-06-21_13h47.30.104,LearnStrategy,2023.2.3,Linux x86_64,59.88023952,8,2,4,,,,,,,,1,02,,,,,,,,,,,1,1.552,1,,,,,,-0.324028227,-0.267775571,1,0,0,1.5515,Andesite_rect,3,0,3,0,1,
65fccfbedce99b1065ef1768,TCR,2024-06-21_13h47.30.104,LearnStrategy,2023.2.3,Linux x86_64,59.88023952,8,2,5,,,,,,,,5,04,,,,,,,,,,,5,1.091,1,,,,,,-0.314811141,-0.406389519,1,0,0,1.0908,Obsidian_rect,4,0,4,0,1,
65fccfbedce99b1065ef1768,TCR,2024-06-21_13h47.30.104,LearnStrategy,2023.2.3,Linux x86_64,59.88023952,8,2,6,,,,,,,,6,08,,,,,,,,,,,6,1.117,1,,,,,,-0.050752357,-0.400762699,1,0,0,1.1166,Pegmatite_rect,5,0,5,0,1,
65fccfbedce99b1065ef1768,TCR,2024-06-21_13h47.30.104,LearnStrategy,2023.2.3,Linux x86_64,59.88023952,8,2,7,,,,,,,,2,04,,,,,,,,,,,2,1.212,1,,,,,,-0.089281647,-0.232276705,1,0,0,1.2124,Basalt_rect,6,0,6,0,1,
65fccfbedce99b1065ef1768,TCR,2024-06-21_13h47.30.104,LearnStrategy,2023.2.3,Linux x86_64,59.88023952,8,2,8,,,,,,,,2,12,,,,,,,,,,,4,2.055,0,,,,,,0.425870542,-0.23316673,1,0,0,2.0554,Gabbro_rect,7,0,7,0,1,
65fccfbedce99b1065ef1768,TCR,2024-06-21_13h47.30.104,LearnStrategy,2023.2.3,Linux x86_64,59.88023952,8,2,9,,,,,,,,4,08,,,,,,,,,,,4,1.076,1,,,,,,0.420024024,-0.243934561,1,0,0,1.0756,Gabbro_rect,8,0,8,0,1,
65fccfbedce99b1065ef1768,TCR,2024-06-21_13h47.30.104,LearnStrategy,2023.2.3,Linux x86_64,59.88023952,8,2,10,,,,,,,,5,08,,,,,,,,,,,5,1.01,1,,,,,,-0.38218417,-0.387449476,1,0,0,1.0101,Obsidian_rect,9,0,9,0,1,
65fccfbedce99b1065ef1768,TCR,2024-06-21_13h47.30.104,LearnStrategy,2023.2.3,Linux x86_64,59.88023952,8,2,11,,,,,,,,8,03,,,,,,,,,,,8,1.104,1,,,,,,0.456420757,-0.394292549,1,0,0,1.1039,Pumice_rect,10,0,10,0,1,
65fccfbedce99b1065ef1768,TCR,2024-06-21_13h47.30.104,LearnStrategy,2023.2.3,Linux x86_64,59.88023952,8,2,12,,,,,,,,3,08,,,,,,,,,,,6,2.584,0,,,,,,-0.052844931,-0.418131087,1,0,0,2.5841,Pegmatite_rect,11,0,11,0,1,
65fccfbedce99b1065ef1768,TCR,2024-06-21_13h47.30.104,LearnStrategy,2023.2.3,Linux x86_64,59.88023952,8,2,13,,,,,,,,3,06,,,,,,,,,,,6,3.679,0,,,,,,-0.120651245,-0.414789765,1,0,0,3.6795,Pegmatite_rect,12,0,12,0,1,
65fccfbedce99b1065ef1768,TCR,2024-06-21_13h47.30.104,LearnStrategy,2023.2.3,Linux x86_64,59.88023952,8,2,14,,,,,,,,6,09,,,,,,,,,,,6,0.762,1,,,,,,-0.120651245,-0.414789765,1,0,0,0.762,Pegmatite_rect,13,0,13,0,1,
65fccfbedce99b1065ef1768,TCR,2024-06-21_13h47.30.104,LearnStrategy,2023.2.3,Linux x86_64,59.88023952,8,2,15,,,,,,,,7,15,,,,,,,,,,,7,1.01,1,,,,,,0.099754263,-0.41062242,1,0,0,1.0099,Peridotite_rect,14,0,14,0,1,
65fccfbedce99b1065ef1768,TCR,2024-06-21_13h47.30.104,LearnStrategy,2023.2.3,Linux x86_64,59.88023952,8,2,16,,,,,,,,7,10,,,,,,,,,,,7,0.831,1,,,,,,0.098912204,-0.411464267,1,0,0,0.8313,Peridotite_rect,15,0,15,0,1,
65fccfbedce99b1065ef1768,TCR,2024-06-21_13h47.30.104,LearnStrategy,2023.2.3,Linux x86_64,59.88023952,9,1,1,0.055367293,-0.0078433,1,0,0,53.1309,rock_grid_rect_2,5,14,-1,-1,53.131,-0.372168294,-0.403256664,1,0,0,1.8455,Obsidian_rect,5,1.845,1,0,0,0,0,1,,,,,,,,,,,,,
65fccfbedce99b1065ef1768,TCR,2024-06-21_13h47.30.104,LearnStrategy,2023.2.3,Linux x86_64,59.88023952,9,1,2,0.100505122,0.004311774,1,0,0,1.2515,rock_grid_rect_2,2,08,-1,-1,1.252,-0.12164681,-0.243312906,1,0,0,1.4659,Basalt_rect,2,1.466,1,1,0,1,0,1,,,,,,,,,,,,,
65fccfbedce99b1065ef1768,TCR,2024-06-21_13h47.30.104,LearnStrategy,2023.2.3,Linux x86_64,59.88023952,9,1,3,0.172266289,-0.014454948,1,0,0,0.9405,rock_grid_rect_2,6,07,-1,-1,0.94,-0.070284243,-0.392621782,1,0,0,1.1085,Pegmatite_rect,6,1.109,1,2,0,2,0,1,,,,,,,,,,,,,
65fccfbedce99b1065ef1768,TCR,2024-06-21_13h47.30.104,LearnStrategy,2023.2.3,Linux x86_64,59.88023952,9,1,4,0.130107526,-0.005936481,1,0,0,0.8682,rock_grid_rect_2,3,02,-1,-1,0.868,0.147014477,-0.240561379,1,0,0,3.2997,Diorite_rect,3,3.3,1,3,0,3,0,1,,,,,,,,,,,,,
65fccfbedce99b1065ef1768,TCR,2024-06-21_13h47.30.104,LearnStrategy,2023.2.3,Linux x86_64,59.88023952,9,1,5,0.097610403,-0.008837488,1,0,0,0.6609,rock_grid_rect_2,4,13,-1,-1,0.661,0.416587406,-0.251267892,1,0,0,1.451,Gabbro_rect,4,1.451,1,4,0,4,0,1,,,,,,,,,,,,,
65fccfbedce99b1065ef1768,TCR,2024-06-21_13h47.30.104,LearnStrategy,2023.2.3,Linux x86_64,59.88023952,9,1,6,0.091303437,-0.00493092,1,0,0,0.885,rock_grid_rect_2,3,11,-1,-1,0.885,0.15974179,-0.408190621,1,0,0,1.477,Peridotite_rect,7,1.477,0,5,0,5,0,1,,,,,,,,,,,,,
65fccfbedce99b1065ef1768,TCR,2024-06-21_13h47.30.104,LearnStrategy,2023.2.3,Linux x86_64,59.88023952,9,1,7,0.126772492,0.004714012,1,0,0,0.7649,rock_grid_rect_2,3,12,-1,-1,0.765,0.124478517,-0.270774912,1,0,0,1.2328,Diorite_rect,3,1.233,1,6,0,6,0,1,,,,,,,,,,,,,
65fccfbedce99b1065ef1768,TCR,2024-06-21_13h47.30.104,LearnStrategy,2023.2.3,Linux x86_64,59.88023952,9,1,8,0.116188826,-0.014971415,1,0,0,1.163,rock_grid_rect_2,6,05,-1,-1,1.163,-0.090278414,-0.409003646,1,0,0,1.335,Pegmatite_rect,6,1.335,1,7,0,7,0,1,,,,,,,,,,,,,
65fccfbedce99b1065ef1768,TCR,2024-06-21_13h47.30.104,LearnStrategy,2023.2.3,Linux x86_64,59.88023952,9,1,9,0.10490693,0.003365446,1,0,0,1.1119,rock_grid_rect_2,1,05,-1,-1,1.112,-0.409517853,-0.252792994,1,0,0,2.1206,Andesite_rect,1,2.121,1,8,0,8,0,1,,,,,,,,,,,,,
65fccfbedce99b1065ef1768,TCR,2024-06-21_13h47.30.104,LearnStrategy,2023.2.3,Linux x86_64,59.88023952,9,1,10,0.114924042,-0.007444205,1,0,0,0.8847,rock_grid_rect_2,8,05,-1,-1,0.885,0.388621719,-0.386884407,1,0,0,1.1696,Pumice_rect,8,1.17,1,9,0,9,0,1,,,,,,,,,,,,,
65fccfbedce99b1065ef1768,TCR,2024-06-21_13h47.30.104,LearnStrategy,2023.2.3,Linux x86_64,59.88023952,9,1,11,0.125822067,0.021036819,1,0,0,1.0693,rock_grid_rect_2,1,16,-1,-1,1.069,-0.366988606,-0.246291549,1,0,0,2.6319,Andesite_rect,1,2.632,1,10,0,10,0,1,,,,,,,,,,,,,
65fccfbedce99b1065ef1768,TCR,2024-06-21_13h47.30.104,LearnStrategy,2023.2.3,Linux x86_64,59.88023952,9,1,12,0.170075028,-0.00412118,1,0,0,1.1056,rock_grid_rect_2,7,16,-1,-1,1.106,0.146356441,-0.417197545,1,0,0,1.8168,Peridotite_rect,7,1.817,1,11,0,11,0,1,,,,,,,,,,,,,
65fccfbedce99b1065ef1768,TCR,2024-06-21_13h47.30.104,LearnStrategy,2023.2.3,Linux x86_64,59.88023952,9,1,13,0.047614769,0.00117249,1,0,0,0.6236,rock_grid_rect_2,3,13,-1,-1,0.624,0.149088542,-0.248168875,1,0,0,1.9434,Diorite_rect,3,1.943,1,12,0,12,0,1,,,,,,,,,,,,,
65fccfbedce99b1065ef1768,TCR,2024-06-21_13h47.30.104,LearnStrategy,2023.2.3,Linux x86_64,59.88023952,9,1,14,0.09302662,0.006326675,1,0,0,1.1431,rock_grid_rect_2,6,06,-1,-1,1.143,-0.107404991,-0.397640935,1,0,0,1.4623,Pegmatite_rect,6,1.462,1,13,0,13,0,1,,,,,,,,,,,,,
65fccfbedce99b1065ef1768,TCR,2024-06-21_13h47.30.104,LearnStrategy,2023.2.3,Linux x86_64,59.88023952,9,1,15,0.106778321,-0.010061582,1,0,0,0.5909,rock_grid_rect_2,4,14,-1,-1,0.591,0.430633969,-0.246887702,1,0,0,1.4127,Gabbro_rect,4,1.413,1,14,0,14,0,1,,,,,,,,,,,,,
65fccfbedce99b1065ef1768,TCR,2024-06-21_13h47.30.104,LearnStrategy,2023.2.3,Linux x86_64,59.88023952,9,1,16,0.108285339,-0.010649752,1,0,0,0.7427,rock_grid_rect_2,2,14,-1,-1,0.743,0.378478015,-0.240559119,1,0,0,1.6817,Gabbro_rect,4,1.682,0,15,0,15,0,1,,,,,,,,,,,,,
65fccfbedce99b1065ef1768,TCR,2024-06-21_13h47.30.104,LearnStrategy,2023.2.3,Linux x86_64,59.88023952,9,2,1,,,,,,,,7,04,,,,,,,,,,,6,3.253,0,,,,,,-0.13957617,-0.403828515,1,0,0,3.2526,Pegmatite_rect,0,0,0,0,1,
65fccfbedce99b1065ef1768,TCR,2024-06-21_13h47.30.104,LearnStrategy,2023.2.3,Linux x86_64,59.88023952,9,2,2,,,,,,,,4,09,,,,,,,,,,,4,2.994,1,,,,,,0.411710245,-0.240936774,1,0,0,2.9939,Gabbro_rect,1,0,1,0,1,
65fccfbedce99b1065ef1768,TCR,2024-06-21_13h47.30.104,LearnStrategy,2023.2.3,Linux x86_64,59.88023952,9,2,3,,,,,,,,8,04,,,,,,,,,,,8,1.032,1,,,,,,0.40734171,-0.396162174,1,0,0,1.0318,Pumice_rect,2,0,2,0,1,
65fccfbedce99b1065ef1768,TCR,2024-06-21_13h47.30.104,LearnStrategy,2023.2.3,Linux x86_64,59.88023952,9,2,4,,,,,,,,5,16,,,,,,,,,,,5,1.053,1,,,,,,-0.417544789,-0.379334344,1,0,0,1.0527,Obsidian_rect,3,0,3,0,1,
65fccfbedce99b1065ef1768,TCR,2024-06-21_13h47.30.104,LearnStrategy,2023.2.3,Linux x86_64,59.88023952,9,2,5,,,,,,,,7,08,,,,,,,,,,,7,2.196,1,,,,,,0.160651242,-0.409193745,1,0,0,2.1958,Peridotite_rect,4,0,4,0,1,
65fccfbedce99b1065ef1768,TCR,2024-06-21_13h47.30.104,LearnStrategy,2023.2.3,Linux x86_64,59.88023952,9,2,6,,,,,,,,8,15,,,,,,,,,,,8,0.911,1,,,,,,0.32872306,-0.400024909,1,0,0,0.9113,Pumice_rect,5,0,5,0,1,
65fccfbedce99b1065ef1768,TCR,2024-06-21_13h47.30.104,LearnStrategy,2023.2.3,Linux x86_64,59.88023952,9,2,7,,,,,,,,2,05,,,,,,,,,,,2,1.342,1,,,,,,-0.108703401,-0.23737639,1,0,0,1.3416,Basalt_rect,6,0,6,0,1,
65fccfbedce99b1065ef1768,TCR,2024-06-21_13h47.30.104,LearnStrategy,2023.2.3,Linux x86_64,59.88023952,9,2,8,,,,,,,,3,15,,,,,,,,,,,3,2.527,1,,,,,,0.13007489,-0.238218096,1,0,0,2.5269,Diorite_rect,7,0,7,0,1,
65fccfbedce99b1065ef1768,TCR,2024-06-21_13h47.30.104,LearnStrategy,2023.2.3,Linux x86_64,59.88023952,9,2,9,,,,,,,,2,02,,,,,,,,,,,2,1.169,1,,,,,,-0.089994713,-0.260675006,1,0,0,1.1687,Basalt_rect,8,0,8,0,1,
65fccfbedce99b1065ef1768,TCR,2024-06-21_13h47.30.104,LearnStrategy,2023.2.3,Linux x86_64,59.88023952,9,2,10,,,,,,,,1,01,,,,,,,,,,,4,1.964,0,,,,,,0.400433152,-0.24800343,1,0,0,1.9637,Gabbro_rect,9,0,9,0,1,
65fccfbedce99b1065ef1768,TCR,2024-06-21_13h47.30.104,LearnStrategy,2023.2.3,Linux x86_64,59.88023952,9,2,11,,,,,,,,5,12,,,,,,,,,,,5,0.993,1,,,,,,-0.375030694,-0.379127714,1,0,0,0.9934,Obsidian_rect,10,0,10,0,1,
65fccfbedce99b1065ef1768,TCR,2024-06-21_13h47.30.104,LearnStrategy,2023.2.3,Linux x86_64,59.88023952,9,2,12,,,,,,,,6,15,,,,,,,,,,,6,0.966,1,,,,,,-0.135737172,-0.390847312,1,0,0,0.9664,Pegmatite_rect,11,0,11,0,1,
65fccfbedce99b1065ef1768,TCR,2024-06-21_13h47.30.104,LearnStrategy,2023.2.3,Linux x86_64,59.88023952,9,2,13,,,,,,,,3,07,,,,,,,,,,,3,2.28,1,,,,,,0.142712628,-0.261469735,1,0,0,2.2804,Diorite_rect,12,0,12,0,1,
65fccfbedce99b1065ef1768,TCR,2024-06-21_13h47.30.104,LearnStrategy,2023.2.3,Linux x86_64,59.88023952,9,2,14,,,,,,,,6,16,,,,,,,,,,,6,1.464,1,,,,,,-0.132565534,-0.399614829,1,0,0,1.464,Pegmatite_rect,13,0,13,0,1,
65fccfbedce99b1065ef1768,TCR,2024-06-21_13h47.30.104,LearnStrategy,2023.2.3,Linux x86_64,59.88023952,9,2,15,,,,,,,,4,16,,,,,,,,,,,2,1.141,0,,,,,,-0.131707933,-0.255364665,1,0,0,1.1411,Basalt_rect,14,0,14,0,1,
65fccfbedce99b1065ef1768,TCR,2024-06-21_13h47.30.104,LearnStrategy,2023.2.3,Linux x86_64,59.88023952,9,2,16,,,,,,,,1,04,,,,,,,,,,,1,1.11,1,,,,,,-0.359273027,-0.26500158,1,0,0,1.1096,Andesite_rect,15,0,15,0,1,
65fccfbedce99b1065ef1768,TCR,2024-06-21_13h47.30.104,LearnStrategy,2023.2.3,Linux x86_64,59.88023952,,,,,,,,,,,,,,,,,,,,,,,,,,,,,,,,,,,,,,,,,,,1
65fccfbedce99b1065ef1768,TCR,2024-06-21_13h47.30.104,LearnStrategy,2023.2.3,Linux x86_64,59.88023952,,,,,,,,,,,,,,,,,,,,,,,,,,,,,,,,,,,,,,,,,,,
65fccfbedce99b1065ef1768,TCR,2024-06-21_13h47.30.104,LearnStrategy,2023.2.3,Linux x86_64,59.88023952,,,,,,,,,,,1,10,1,1,,,,,,,,,,,,,,,,,,,,,,,,,,,,,
65fccfbedce99b1065ef1768,TCR,2024-06-21_13h47.30.104,LearnStrategy,2023.2.3,Linux x86_64,59.88023952,,,,,,,,,,,7,07,1,2,,,,,,,,,,,,,,,,,,,,,,,,,,,,,
65fccfbedce99b1065ef1768,TCR,2024-06-21_13h47.30.104,LearnStrategy,2023.2.3,Linux x86_64,59.88023952,,,,,,,,,,,2,08,1,3,,,,,,,,,,,,,,,,,,,,,,,,,,,,,
65fccfbedce99b1065ef1768,TCR,2024-06-21_13h47.30.104,LearnStrategy,2023.2.3,Linux x86_64,59.88023952,,,,,,,,,,,4,11,1,4,,,,,,,,,,,,,,,,,,,,,,,,,,,,,
65fccfbedce99b1065ef1768,TCR,2024-06-21_13h47.30.104,LearnStrategy,2023.2.3,Linux x86_64,59.88023952,,,,,,,,,,,5,02,1,5,,,,,,,,,,,,,,,,,,,,,,,,,,,,,
65fccfbedce99b1065ef1768,TCR,2024-06-21_13h47.30.104,LearnStrategy,2023.2.3,Linux x86_64,59.88023952,,,,,,,,,,,6,05,1,6,,,,,,,,,,,,,,,,,,,,,,,,,,,,,
65fccfbedce99b1065ef1768,TCR,2024-06-21_13h47.30.104,LearnStrategy,2023.2.3,Linux x86_64,59.88023952,,,,,,,,,,,7,06,1,7,,,,,,,,,,,,,,,,,,,,,,,,,,,,,
65fccfbedce99b1065ef1768,TCR,2024-06-21_13h47.30.104,LearnStrategy,2023.2.3,Linux x86_64,59.88023952,,,,,,,,,,,3,02,1,8,,,,,,,,,,,,,,,,,,,,,,,,,,,,,
65fccfbedce99b1065ef1768,TCR,2024-06-21_13h47.30.104,LearnStrategy,2023.2.3,Linux x86_64,59.88023952,,,,,,,,,,,5,10,2,1,,,,,,,,,,,,,,,,,,,,,,,,,,,,,
65fccfbedce99b1065ef1768,TCR,2024-06-21_13h47.30.104,LearnStrategy,2023.2.3,Linux x86_64,59.88023952,,,,,,,,,,,4,01,2,2,,,,,,,,,,,,,,,,,,,,,,,,,,,,,
65fccfbedce99b1065ef1768,TCR,2024-06-21_13h47.30.104,LearnStrategy,2023.2.3,Linux x86_64,59.88023952,,,,,,,,,,,4,03,2,3,,,,,,,,,,,,,,,,,,,,,,,,,,,,,
65fccfbedce99b1065ef1768,TCR,2024-06-21_13h47.30.104,LearnStrategy,2023.2.3,Linux x86_64,59.88023952,,,,,,,,,,,6,10,2,4,,,,,,,,,,,,,,,,,,,,,,,,,,,,,
65fccfbedce99b1065ef1768,TCR,2024-06-21_13h47.30.104,LearnStrategy,2023.2.3,Linux x86_64,59.88023952,,,,,,,,,,,6,07,2,5,,,,,,,,,,,,,,,,,,,,,,,,,,,,,
65fccfbedce99b1065ef1768,TCR,2024-06-21_13h47.30.104,LearnStrategy,2023.2.3,Linux x86_64,59.88023952,,,,,,,,,,,8,13,2,6,,,,,,,,,,,,,,,,,,,,,,,,,,,,,
65fccfbedce99b1065ef1768,TCR,2024-06-21_13h47.30.104,LearnStrategy,2023.2.3,Linux x86_64,59.88023952,,,,,,,,,,,5,06,2,7,,,,,,,,,,,,,,,,,,,,,,,,,,,,,
65fccfbedce99b1065ef1768,TCR,2024-06-21_13h47.30.104,LearnStrategy,2023.2.3,Linux x86_64,59.88023952,,,,,,,,,,,3,11,2,8,,,,,,,,,,,,,,,,,,,,,,,,,,,,,
65fccfbedce99b1065ef1768,TCR,2024-06-21_13h47.30.104,LearnStrategy,2023.2.3,Linux x86_64,59.88023952,,,,,,,,,,,6,13,3,1,,,,,,,,,,,,,,,,,,,,,,,,,,,,,
65fccfbedce99b1065ef1768,TCR,2024-06-21_13h47.30.104,LearnStrategy,2023.2.3,Linux x86_64,59.88023952,,,,,,,,,,,8,06,3,2,,,,,,,,,,,,,,,,,,,,,,,,,,,,,
65fccfbedce99b1065ef1768,TCR,2024-06-21_13h47.30.104,LearnStrategy,2023.2.3,Linux x86_64,59.88023952,,,,,,,,,,,5,09,3,3,,,,,,,,,,,,,,,,,,,,,,,,,,,,,
65fccfbedce99b1065ef1768,TCR,2024-06-21_13h47.30.104,LearnStrategy,2023.2.3,Linux x86_64,59.88023952,,,,,,,,,,,4,10,3,4,,,,,,,,,,,,,,,,,,,,,,,,,,,,,
65fccfbedce99b1065ef1768,TCR,2024-06-21_13h47.30.104,LearnStrategy,2023.2.3,Linux x86_64,59.88023952,,,,,,,,,,,1,05,3,5,,,,,,,,,,,,,,,,,,,,,,,,,,,,,
65fccfbedce99b1065ef1768,TCR,2024-06-21_13h47.30.104,LearnStrategy,2023.2.3,Linux x86_64,59.88023952,,,,,,,,,,,2,09,3,6,,,,,,,,,,,,,,,,,,,,,,,,,,,,,
65fccfbedce99b1065ef1768,TCR,2024-06-21_13h47.30.104,LearnStrategy,2023.2.3,Linux x86_64,59.88023952,,,,,,,,,,,2,11,3,7,,,,,,,,,,,,,,,,,,,,,,,,,,,,,
65fccfbedce99b1065ef1768,TCR,2024-06-21_13h47.30.104,LearnStrategy,2023.2.3,Linux x86_64,59.88023952,,,,,,,,,,,8,16,3,8,,,,,,,,,,,,,,,,,,,,,,,,,,,,,
65fccfbedce99b1065ef1768,TCR,2024-06-21_13h47.30.104,LearnStrategy,2023.2.3,Linux x86_64,59.88023952,,,,,,,,,,,1,16,4,1,,,,,,,,,,,,,,,,,,,,,,,,,,,,,
65fccfbedce99b1065ef1768,TCR,2024-06-21_13h47.30.104,LearnStrategy,2023.2.3,Linux x86_64,59.88023952,,,,,,,,,,,5,05,4,2,,,,,,,,,,,,,,,,,,,,,,,,,,,,,
65fccfbedce99b1065ef1768,TCR,2024-06-21_13h47.30.104,LearnStrategy,2023.2.3,Linux x86_64,59.88023952,,,,,,,,,,,5,14,4,3,,,,,,,,,,,,,,,,,,,,,,,,,,,,,
65fccfbedce99b1065ef1768,TCR,2024-06-21_13h47.30.104,LearnStrategy,2023.2.3,Linux x86_64,59.88023952,,,,,,,,,,,7,12,4,4,,,,,,,,,,,,,,,,,,,,,,,,,,,,,
65fccfbedce99b1065ef1768,TCR,2024-06-21_13h47.30.104,LearnStrategy,2023.2.3,Linux x86_64,59.88023952,,,,,,,,,,,3,14,4,5,,,,,,,,,,,,,,,,,,,,,,,,,,,,,
65fccfbedce99b1065ef1768,TCR,2024-06-21_13h47.30.104,LearnStrategy,2023.2.3,Linux x86_64,59.88023952,,,,,,,,,,,3,12,4,6,,,,,,,,,,,,,,,,,,,,,,,,,,,,,
65fccfbedce99b1065ef1768,TCR,2024-06-21_13h47.30.104,LearnStrategy,2023.2.3,Linux x86_64,59.88023952,,,,,,,,,,,7,16,4,7,,,,,,,,,,,,,,,,,,,,,,,,,,,,,
65fccfbedce99b1065ef1768,TCR,2024-06-21_13h47.30.104,LearnStrategy,2023.2.3,Linux x86_64,59.88023952,,,,,,,,,,,3,10,4,8,,,,,,,,,,,,,,,,,,,,,,,,,,,,,
65fccfbedce99b1065ef1768,TCR,2024-06-21_13h47.30.104,LearnStrategy,2023.2.3,Linux x86_64,59.88023952,,,,,,,,,,,4,13,5,1,,,,,,,,,,,,,,,,,,,,,,,,,,,,,
65fccfbedce99b1065ef1768,TCR,2024-06-21_13h47.30.104,LearnStrategy,2023.2.3,Linux x86_64,59.88023952,,,,,,,,,,,7,13,5,2,,,,,,,,,,,,,,,,,,,,,,,,,,,,,
65fccfbedce99b1065ef1768,TCR,2024-06-21_13h47.30.104,LearnStrategy,2023.2.3,Linux x86_64,59.88023952,,,,,,,,,,,1,07,5,3,,,,,,,,,,,,,,,,,,,,,,,,,,,,,
65fccfbedce99b1065ef1768,TCR,2024-06-21_13h47.30.104,LearnStrategy,2023.2.3,Linux x86_64,59.88023952,,,,,,,,,,,7,05,5,4,,,,,,,,,,,,,,,,,,,,,,,,,,,,,
65fccfbedce99b1065ef1768,TCR,2024-06-21_13h47.30.104,LearnStrategy,2023.2.3,Linux x86_64,59.88023952,,,,,,,,,,,2,01,5,5,,,,,,,,,,,,,,,,,,,,,,,,,,,,,
65fccfbedce99b1065ef1768,TCR,2024-06-21_13h47.30.104,LearnStrategy,2023.2.3,Linux x86_64,59.88023952,,,,,,,,,,,6,11,5,6,,,,,,,,,,,,,,,,,,,,,,,,,,,,,
65fccfbedce99b1065ef1768,TCR,2024-06-21_13h47.30.104,LearnStrategy,2023.2.3,Linux x86_64,59.88023952,,,,,,,,,,,1,14,5,7,,,,,,,,,,,,,,,,,,,,,,,,,,,,,
65fccfbedce99b1065ef1768,TCR,2024-06-21_13h47.30.104,LearnStrategy,2023.2.3,Linux x86_64,59.88023952,,,,,,,,,,,3,13,5,8,,,,,,,,,,,,,,,,,,,,,,,,,,,,,
65fccfbedce99b1065ef1768,TCR,2024-06-21_13h47.30.104,LearnStrategy,2023.2.3,Linux x86_64,59.88023952,,,,,,,,,,,8,09,6,1,,,,,,,,,,,,,,,,,,,,,,,,,,,,,
65fccfbedce99b1065ef1768,TCR,2024-06-21_13h47.30.104,LearnStrategy,2023.2.3,Linux x86_64,59.88023952,,,,,,,,,,,4,14,6,2,,,,,,,,,,,,,,,,,,,,,,,,,,,,,
65fccfbedce99b1065ef1768,TCR,2024-06-21_13h47.30.104,LearnStrategy,2023.2.3,Linux x86_64,59.88023952,,,,,,,,,,,8,10,6,3,,,,,,,,,,,,,,,,,,,,,,,,,,,,,
65fccfbedce99b1065ef1768,TCR,2024-06-21_13h47.30.104,LearnStrategy,2023.2.3,Linux x86_64,59.88023952,,,,,,,,,,,8,05,6,4,,,,,,,,,,,,,,,,,,,,,,,,,,,,,
65fccfbedce99b1065ef1768,TCR,2024-06-21_13h47.30.104,LearnStrategy,2023.2.3,Linux x86_64,59.88023952,,,,,,,,,,,6,06,6,5,,,,,,,,,,,,,,,,,,,,,,,,,,,,,
65fccfbedce99b1065ef1768,TCR,2024-06-21_13h47.30.104,LearnStrategy,2023.2.3,Linux x86_64,59.88023952,,,,,,,,,,,2,14,6,6,,,,,,,,,,,,,,,,,,,,,,,,,,,,,
65fccfbedce99b1065ef1768,TCR,2024-06-21_13h47.30.104,LearnStrategy,2023.2.3,Linux x86_64,59.88023952,,,,,,,,,,,2,10,6,7,,,,,,,,,,,,,,,,,,,,,,,,,,,,,
65fccfbedce99b1065ef1768,TCR,2024-06-21_13h47.30.104,LearnStrategy,2023.2.3,Linux x86_64,59.88023952,,,,,,,,,,,1,09,6,8,,,,,,,,,,,,,,,,,,,,,,,,,,,,,