participant,condition,date,expName,psychopyVersion,OS,frameRate,block,phase,trial,learn_mouse_2.x,learn_mouse_2.y,learn_mouse_2.leftButton,learn_mouse_2.midButton,learn_mouse_2.rightButton,learn_mouse_2.time,learn_mouse_2.clicked_name,cat,token,row,col,t_select,cat_mouse_l.x,cat_mouse_l.y,cat_mouse_l.leftButton,cat_mouse_l.midButton,cat_mouse_l.rightButton,cat_mouse_l.time,cat_mouse_l.clicked_name,resp,t_resp,corr,train_trials.thisRepN,train_trials.thisTrialN,train_trials.thisN,train_trials.thisIndex,train_trials.ran,cat_mouse_t.x,cat_mouse_t.y,cat_mouse_t.leftButton,cat_mouse_t.midButton,cat_mouse_t.rightButton,cat_mouse_t.time,cat_mouse_t.clicked_name,test_trials.thisRepN,test_trials.thisTrialN,test_trials.thisN,test_trials.thisIndex,test_trials.ran,Bonus
65ff67c31641a4be4c903b68,TCR,2024-06-25_11h42.28.283,LearnStrategy,2023.2.3,Win32,59.88023952,,,,,,,,,,,,,,,,,,,,,,,,,,,,,,,,,,,,,,,,,,,
65ff67c31641a4be4c903b68,TCR,2024-06-25_11h42.28.283,LearnStrategy,2023.2.3,Win32,59.88023952,1,1,1,0.01171875,-0.0078125,1,0,0,5.9998,rock_grid_rect_2,8,06,-1,-1,6,0.390625,-0.397135417,1,0,0,5.9112,Pumice_rect,8,5.911,1,0,0,0,0,1,,,,,,,,,,,,,
65ff67c31641a4be4c903b68,TCR,2024-06-25_11h42.28.283,LearnStrategy,2023.2.3,Win32,59.88023952,1,1,2,0.015625,-0.002604167,1,0,0,1.6655,rock_grid_rect_2,2,04,-1,-1,1.665,0.0703125,-0.388020833,1,0,0,8.8418,Peridotite_rect,7,8.842,0,1,0,1,0,1,,,,,,,,,,,,,
65ff67c31641a4be4c903b68,TCR,2024-06-25_11h42.28.283,LearnStrategy,2023.2.3,Win32,59.88023952,1,1,3,0.00390625,-0.020833333,1,0,0,1.9549,rock_grid_rect_2,4,16,-1,-1,1.955,0.14453125,-0.251302083,1,0,0,5.8378,Diorite_rect,3,5.838,0,2,0,2,0,1,,,,,,,,,,,,,
65ff67c31641a4be4c903b68,TCR,2024-06-25_11h42.28.283,LearnStrategy,2023.2.3,Win32,59.88023952,1,1,4,-0.0234375,-0.014322917,1,0,0,1.4071,rock_grid_rect_2,7,05,-1,-1,1.407,0.123697917,-0.40625,1,0,0,6.5038,Peridotite_rect,7,6.504,1,3,0,3,0,1,,,,,,,,,,,,,
65ff67c31641a4be4c903b68,TCR,2024-06-25_11h42.28.283,LearnStrategy,2023.2.3,Win32,59.88023952,1,1,5,0.03515625,-0.006510417,1,0,0,1.4063,rock_grid_rect_2,2,14,-1,-1,1.406,-0.415364583,-0.39453125,1,0,0,3.7008,Obsidian_rect,5,3.701,0,4,0,4,0,1,,,,,,,,,,,,,
65ff67c31641a4be4c903b68,TCR,2024-06-25_11h42.28.283,LearnStrategy,2023.2.3,Win32,59.88023952,1,1,6,-0.02734375,-0.009114583,1,0,0,1.1976,rock_grid_rect_2,3,06,-1,-1,1.198,-0.381510417,-0.3984375,1,0,0,6.2116,Obsidian_rect,5,6.212,0,5,0,5,0,1,,,,,,,,,,,,,
65ff67c31641a4be4c903b68,TCR,2024-06-25_11h42.28.283,LearnStrategy,2023.2.3,Win32,59.88023952,1,1,7,0.049479167,-0.006510417,1,0,0,1.3667,rock_grid_rect_2,6,11,-1,-1,1.367,-0.091145833,-0.401041667,1,0,0,5.2906,Pegmatite_rect,6,5.291,1,6,0,6,0,1,,,,,,,,,,,,,
65ff67c31641a4be4c903b68,TCR,2024-06-25_11h42.28.283,LearnStrategy,2023.2.3,Win32,59.88023952,1,1,8,-0.0078125,-0.0078125,1,0,0,1.3057,rock_grid_rect_2,5,05,-1,-1,1.306,0.157552083,-0.3828125,1,0,0,4.5553,Peridotite_rect,7,4.555,0,7,0,7,0,1,,,,,,,,,,,,,
65ff67c31641a4be4c903b68,TCR,2024-06-25_11h42.28.283,LearnStrategy,2023.2.3,Win32,59.88023952,1,1,9,0.0703125,-0.00390625,1,0,0,1.3357,rock_grid_rect_2,8,13,-1,-1,1.336,0.377604167,-0.390625,1,0,0,3.7912,Pumice_rect,8,3.791,1,8,0,8,0,1,,,,,,,,,,,,,
65ff67c31641a4be4c903b68,TCR,2024-06-25_11h42.28.283,LearnStrategy,2023.2.3,Win32,59.88023952,1,1,10,0.001302083,-0.002604167,1,0,0,1.3639,rock_grid_rect_2,4,05,-1,-1,1.364,-0.16015625,-0.248697917,1,0,0,7.5409,Basalt_rect,2,7.541,0,9,0,9,0,1,,,,,,,,,,,,,
65ff67c31641a4be4c903b68,TCR,2024-06-25_11h42.28.283,LearnStrategy,2023.2.3,Win32,59.88023952,1,1,11,-0.041666667,0.006510417,1,0,0,1.1637,rock_grid_rect_2,7,04,-1,-1,1.164,0.13671875,-0.395833333,1,0,0,3.5945,Peridotite_rect,7,3.595,1,10,0,10,0,1,,,,,,,,,,,,,
65ff67c31641a4be4c903b68,TCR,2024-06-25_11h42.28.283,LearnStrategy,2023.2.3,Win32,59.88023952,1,1,12,0.071614583,-0.001302083,1,0,0,1.2807,rock_grid_rect_2,1,14,-1,-1,1.281,0.37109375,-0.247395833,1,0,0,4.193,Gabbro_rect,4,4.193,0,11,0,11,0,1,,,,,,,,,,,,,
65ff67c31641a4be4c903b68,TCR,2024-06-25_11h42.28.283,LearnStrategy,2023.2.3,Win32,59.88023952,1,1,13,-0.020833333,-0.014322917,1,0,0,1.1512,rock_grid_rect_2,1,03,-1,-1,1.151,-0.141927083,-0.265625,1,0,0,3.5502,Basalt_rect,2,3.55,0,12,0,12,0,1,,,,,,,,,,,,,
65ff67c31641a4be4c903b68,TCR,2024-06-25_11h42.28.283,LearnStrategy,2023.2.3,Win32,59.88023952,1,1,14,-0.032552083,-0.015625,1,0,0,1.2185,rock_grid_rect_2,5,09,-1,-1,1.219,0.059895833,-0.270833333,1,0,0,10.6723,Diorite_rect,3,10.672,0,13,0,13,0,1,,,,,,,,,,,,,
65ff67c31641a4be4c903b68,TCR,2024-06-25_11h42.28.283,LearnStrategy,2023.2.3,Win32,59.88023952,1,1,15,-0.022135417,-0.00390625,1,0,0,1.478,rock_grid_rect_2,3,11,-1,-1,1.478,-0.0703125,-0.39453125,1,0,0,4.048,Pegmatite_rect,6,4.048,0,14,0,14,0,1,,,,,,,,,,,,,
65ff67c31641a4be4c903b68,TCR,2024-06-25_11h42.28.283,LearnStrategy,2023.2.3,Win32,59.88023952,1,1,16,-0.006510417,-0.002604167,1,0,0,1.1728,rock_grid_rect_2,6,06,-1,-1,1.173,0.127604167,-0.264322917,1,0,0,3.7069,Diorite_rect,3,3.707,0,15,0,15,0,1,,,,,,,,,,,,,
65ff67c31641a4be4c903b68,TCR,2024-06-25_11h42.28.283,LearnStrategy,2023.2.3,Win32,59.88023952,1,2,1,,,,,,,,7,13,,,,,,,,,,,1,7.603,0,,,,,,-0.360677083,-0.24609375,1,0,0,7.6029,Andesite_rect,0,0,0,0,1,
65ff67c31641a4be4c903b68,TCR,2024-06-25_11h42.28.283,LearnStrategy,2023.2.3,Win32,59.88023952,1,2,2,,,,,,,,6,09,,,,,,,,,,,6,5.285,1,,,,,,-0.106770833,-0.389322917,1,0,0,5.2847,Pegmatite_rect,1,0,1,0,1,
65ff67c31641a4be4c903b68,TCR,2024-06-25_11h42.28.283,LearnStrategy,2023.2.3,Win32,59.88023952,1,2,3,,,,,,,,4,11,,,,,,,,,,,4,9.744,1,,,,,,0.35546875,-0.2421875,1,0,0,9.7438,Gabbro_rect,2,0,2,0,1,
65ff67c31641a4be4c903b68,TCR,2024-06-25_11h42.28.283,LearnStrategy,2023.2.3,Win32,59.88023952,1,2,4,,,,,,,,1,06,,,,,,,,,,,5,5.453,0,,,,,,-0.420572917,-0.40625,1,0,0,5.4534,Obsidian_rect,3,0,3,0,1,
65ff67c31641a4be4c903b68,TCR,2024-06-25_11h42.28.283,LearnStrategy,2023.2.3,Win32,59.88023952,1,2,5,,,,,,,,3,12,,,,,,,,,,,1,6.706,0,,,,,,-0.438802083,-0.268229167,1,0,0,6.7058,Andesite_rect,4,0,4,0,1,
65ff67c31641a4be4c903b68,TCR,2024-06-25_11h42.28.283,LearnStrategy,2023.2.3,Win32,59.88023952,1,2,6,,,,,,,,5,02,,,,,,,,,,,5,3.953,1,,,,,,-0.42578125,-0.388020833,1,0,0,3.9529,Obsidian_rect,5,0,5,0,1,
65ff67c31641a4be4c903b68,TCR,2024-06-25_11h42.28.283,LearnStrategy,2023.2.3,Win32,59.88023952,1,2,7,,,,,,,,1,07,,,,,,,,,,,6,3.781,0,,,,,,-0.170572917,-0.380208333,1,0,0,3.7815,Pegmatite_rect,6,0,6,0,1,
65ff67c31641a4be4c903b68,TCR,2024-06-25_11h42.28.283,LearnStrategy,2023.2.3,Win32,59.88023952,1,2,8,,,,,,,,8,16,,,,,,,,,,,8,2.83,1,,,,,,0.40234375,-0.401041667,1,0,0,2.8296,Pumice_rect,7,0,7,0,1,
65ff67c31641a4be4c903b68,TCR,2024-06-25_11h42.28.283,LearnStrategy,2023.2.3,Win32,59.88023952,1,2,9,,,,,,,,2,05,,,,,,,,,,,2,3.607,1,,,,,,-0.147135417,-0.240885417,1,0,0,3.607,Basalt_rect,8,0,8,0,1,
65ff67c31641a4be4c903b68,TCR,2024-06-25_11h42.28.283,LearnStrategy,2023.2.3,Win32,59.88023952,1,2,10,,,,,,,,2,11,,,,,,,,,,,8,5.209,0,,,,,,0.412760417,-0.40234375,1,0,0,5.2085,Pumice_rect,9,0,9,0,1,
65ff67c31641a4be4c903b68,TCR,2024-06-25_11h42.28.283,LearnStrategy,2023.2.3,Win32,59.88023952,1,2,11,,,,,,,,4,08,,,,,,,,,,,1,4.914,0,,,,,,-0.444010417,-0.244791667,1,0,0,4.9143,Andesite_rect,10,0,10,0,1,
65ff67c31641a4be4c903b68,TCR,2024-06-25_11h42.28.283,LearnStrategy,2023.2.3,Win32,59.88023952,1,2,12,,,,,,,,3,14,,,,,,,,,,,5,3.159,0,,,,,,-0.388020833,-0.408854167,1,0,0,3.1594,Obsidian_rect,11,0,11,0,1,
65ff67c31641a4be4c903b68,TCR,2024-06-25_11h42.28.283,LearnStrategy,2023.2.3,Win32,59.88023952,1,2,13,,,,,,,,8,05,,,,,,,,,,,8,2.455,1,,,,,,0.399739583,-0.419270833,1,0,0,2.4554,Pumice_rect,12,0,12,0,1,
65ff67c31641a4be4c903b68,TCR,2024-06-25_11h42.28.283,LearnStrategy,2023.2.3,Win32,59.88023952,1,2,14,,,,,,,,5,08,,,,,,,,,,,5,1.694,1,,,,,,-0.4375,-0.401041667,1,0,0,1.6943,Obsidian_rect,13,0,13,0,1,
65ff67c31641a4be4c903b68,TCR,2024-06-25_11h42.28.283,LearnStrategy,2023.2.3,Win32,59.88023952,1,2,15,,,,,,,,6,08,,,,,,,,,,,6,2.187,1,,,,,,-0.15234375,-0.420572917,1,0,0,2.1867,Pegmatite_rect,14,0,14,0,1,
65ff67c31641a4be4c903b68,TCR,2024-06-25_11h42.28.283,LearnStrategy,2023.2.3,Win32,59.88023952,1,2,16,,,,,,,,7,12,,,,,,,,,,,3,2.452,0,,,,,,0.119791667,-0.266927083,1,0,0,2.4516,Diorite_rect,15,0,15,0,1,
65ff67c31641a4be4c903b68,TCR,2024-06-25_11h42.28.283,LearnStrategy,2023.2.3,Win32,59.88023952,2,1,1,0.0078125,0.0078125,1,0,0,2.635,rock_grid_rect_2,2,01,-1,-1,2.635,-0.161458333,-0.248697917,1,0,0,3.1137,Basalt_rect,2,3.114,1,0,0,0,0,1,,,,,,,,,,,,,
65ff67c31641a4be4c903b68,TCR,2024-06-25_11h42.28.283,LearnStrategy,2023.2.3,Win32,59.88023952,2,1,2,-0.041666667,0.00390625,1,0,0,1.3938,rock_grid_rect_2,3,06,-1,-1,1.394,0.127604167,-0.260416667,1,0,0,2.4927,Diorite_rect,3,2.493,1,1,0,1,0,1,,,,,,,,,,,,,
65ff67c31641a4be4c903b68,TCR,2024-06-25_11h42.28.283,LearnStrategy,2023.2.3,Win32,59.88023952,2,1,3,0.022135417,-0.001302083,1,0,0,1.3428,rock_grid_rect_2,3,08,-1,-1,1.343,0.154947917,-0.252604167,1,0,0,2.1053,Diorite_rect,3,2.105,1,2,0,2,0,1,,,,,,,,,,,,,
65ff67c31641a4be4c903b68,TCR,2024-06-25_11h42.28.283,LearnStrategy,2023.2.3,Win32,59.88023952,2,1,4,0.006510417,0.001302083,1,0,0,1.1369,rock_grid_rect_2,7,06,-1,-1,1.137,-0.329427083,-0.244791667,1,0,0,7.0847,Andesite_rect,1,7.085,0,3,0,3,0,1,,,,,,,,,,,,,
65ff67c31641a4be4c903b68,TCR,2024-06-25_11h42.28.283,LearnStrategy,2023.2.3,Win32,59.88023952,2,1,5,-0.01171875,0.009114583,1,0,0,1.0741,rock_grid_rect_2,4,12,-1,-1,1.074,-0.14453125,-0.263020833,1,0,0,6.3486,Basalt_rect,2,6.349,0,4,0,4,0,1,,,,,,,,,,,,,
65ff67c31641a4be4c903b68,TCR,2024-06-25_11h42.28.283,LearnStrategy,2023.2.3,Win32,59.88023952,2,1,6,-0.106770833,0.001302083,1,0,0,1.1994,rock_grid_rect_2,4,01,-1,-1,1.199,0.390625,-0.233072917,1,0,0,2.2716,Gabbro_rect,4,2.272,1,5,0,5,0,1,,,,,,,,,,,,,
65ff67c31641a4be4c903b68,TCR,2024-06-25_11h42.28.283,LearnStrategy,2023.2.3,Win32,59.88023952,2,1,7,0.014322917,-0.006510417,1,0,0,1.1984,rock_grid_rect_2,5,06,-1,-1,1.198,-0.385416667,-0.37890625,1,0,0,1.5596,Obsidian_rect,5,1.56,1,6,0,6,0,1,,,,,,,,,,,,,
65ff67c31641a4be4c903b68,TCR,2024-06-25_11h42.28.283,LearnStrategy,2023.2.3,Win32,59.88023952,2,1,8,0.0234375,0.009114583,1,0,0,1.1957,rock_grid_rect_2,7,15,-1,-1,1.196,-0.350260417,-0.243489583,1,0,0,3.6588,Andesite_rect,1,3.659,0,7,0,7,0,1,,,,,,,,,,,,,
65ff67c31641a4be4c903b68,TCR,2024-06-25_11h42.28.283,LearnStrategy,2023.2.3,Win32,59.88023952,2,1,9,-0.0703125,-0.013020833,1,0,0,1.0473,rock_grid_rect_2,2,04,-1,-1,1.047,-0.11328125,-0.24609375,1,0,0,4.3818,Basalt_rect,2,4.382,1,8,0,8,0,1,,,,,,,,,,,,,
65ff67c31641a4be4c903b68,TCR,2024-06-25_11h42.28.283,LearnStrategy,2023.2.3,Win32,59.88023952,2,1,10,0.059895833,0.014322917,1,0,0,1.7874,rock_grid_rect_2,1,03,-1,-1,1.787,0.059895833,-0.265625,1,0,0,6.2043,Diorite_rect,3,6.204,0,9,0,9,0,1,,,,,,,,,,,,,
65ff67c31641a4be4c903b68,TCR,2024-06-25_11h42.28.283,LearnStrategy,2023.2.3,Win32,59.88023952,2,1,11,-0.013020833,0.009114583,1,0,0,1.0924,rock_grid_rect_2,7,15,-1,-1,1.092,0.092447917,-0.399739583,1,0,0,5.3359,Peridotite_rect,7,5.336,1,10,0,10,0,1,,,,,,,,,,,,,
65ff67c31641a4be4c903b68,TCR,2024-06-25_11h42.28.283,LearnStrategy,2023.2.3,Win32,59.88023952,2,1,12,0.033854167,0.013020833,1,0,0,1.232,rock_grid_rect_2,1,09,-1,-1,1.232,-0.07421875,-0.233072917,1,0,0,2.5338,Basalt_rect,2,2.534,0,11,0,11,0,1,,,,,,,,,,,,,
65ff67c31641a4be4c903b68,TCR,2024-06-25_11h42.28.283,LearnStrategy,2023.2.3,Win32,59.88023952,2,1,13,-0.014322917,-0.006510417,1,0,0,1.0601,rock_grid_rect_2,1,03,-1,-1,1.06,-0.37109375,-0.236979167,1,0,0,2.5851,Andesite_rect,1,2.585,1,12,0,12,0,1,,,,,,,,,,,,,
65ff67c31641a4be4c903b68,TCR,2024-06-25_11h42.28.283,LearnStrategy,2023.2.3,Win32,59.88023952,2,1,14,0.052083333,-0.0078125,1,0,0,1.229,rock_grid_rect_2,1,16,-1,-1,1.229,-0.3671875,-0.259114583,1,0,0,1.5712,Andesite_rect,1,1.571,1,13,0,13,0,1,,,,,,,,,,,,,
65ff67c31641a4be4c903b68,TCR,2024-06-25_11h42.28.283,LearnStrategy,2023.2.3,Win32,59.88023952,2,1,15,-0.041666667,-0.001302083,1,0,0,1.2229,rock_grid_rect_2,3,11,-1,-1,1.223,0.130208333,-0.259114583,1,0,0,7.6062,Diorite_rect,3,7.606,1,14,0,14,0,1,,,,,,,,,,,,,
65ff67c31641a4be4c903b68,TCR,2024-06-25_11h42.28.283,LearnStrategy,2023.2.3,Win32,59.88023952,2,1,16,0.0546875,0.006510417,1,0,0,1.3049,rock_grid_rect_2,8,09,-1,-1,1.305,0.421875,-0.397135417,1,0,0,1.4713,Pumice_rect,8,1.471,1,15,0,15,0,1,,,,,,,,,,,,,
65ff67c31641a4be4c903b68,TCR,2024-06-25_11h42.28.283,LearnStrategy,2023.2.3,Win32,59.88023952,2,2,1,,,,,,,,5,16,,,,,,,,,,,5,1.909,1,,,,,,-0.376302083,-0.393229167,1,0,0,1.9086,Obsidian_rect,0,0,0,0,1,
65ff67c31641a4be4c903b68,TCR,2024-06-25_11h42.28.283,LearnStrategy,2023.2.3,Win32,59.88023952,2,2,2,,,,,,,,2,02,,,,,,,,,,,2,8.494,1,,,,,,-0.126302083,-0.23828125,1,0,0,8.4936,Basalt_rect,1,0,1,0,1,
65ff67c31641a4be4c903b68,TCR,2024-06-25_11h42.28.283,LearnStrategy,2023.2.3,Win32,59.88023952,2,2,3,,,,,,,,6,13,,,,,,,,,,,6,7.761,1,,,,,,-0.16015625,-0.404947917,1,0,0,7.7606,Pegmatite_rect,2,0,2,0,1,
65ff67c31641a4be4c903b68,TCR,2024-06-25_11h42.28.283,LearnStrategy,2023.2.3,Win32,59.88023952,2,2,4,,,,,,,,4,09,,,,,,,,,,,2,12.83,0,,,,,,-0.173177083,-0.243489583,1,0,0,12.8296,Basalt_rect,3,0,3,0,1,
65ff67c31641a4be4c903b68,TCR,2024-06-25_11h42.28.283,LearnStrategy,2023.2.3,Win32,59.88023952,2,2,5,,,,,,,,7,08,,,,,,,,,,,7,1.879,1,,,,,,0.16015625,-0.411458333,1,0,0,1.8789,Peridotite_rect,4,0,4,0,1,
65ff67c31641a4be4c903b68,TCR,2024-06-25_11h42.28.283,LearnStrategy,2023.2.3,Win32,59.88023952,2,2,6,,,,,,,,2,08,,,,,,,,,,,2,2.705,1,,,,,,-0.106770833,-0.240885417,1,0,0,2.7046,Basalt_rect,5,0,5,0,1,
65ff67c31641a4be4c903b68,TCR,2024-06-25_11h42.28.283,LearnStrategy,2023.2.3,Win32,59.88023952,2,2,7,,,,,,,,8,04,,,,,,,,,,,8,1.631,1,,,,,,0.399739583,-0.416666667,1,0,0,1.6313,Pumice_rect,6,0,6,0,1,
65ff67c31641a4be4c903b68,TCR,2024-06-25_11h42.28.283,LearnStrategy,2023.2.3,Win32,59.88023952,2,2,8,,,,,,,,8,08,,,,,,,,,,,8,2.006,1,,,,,,0.401041667,-0.416666667,1,0,0,2.0065,Pumice_rect,7,0,7,0,1,
65ff67c31641a4be4c903b68,TCR,2024-06-25_11h42.28.283,LearnStrategy,2023.2.3,Win32,59.88023952,2,2,9,,,,,,,,5,04,,,,,,,,,,,5,1.483,1,,,,,,-0.346354167,-0.419270833,1,0,0,1.4834,Obsidian_rect,8,0,8,0,1,
65ff67c31641a4be4c903b68,TCR,2024-06-25_11h42.28.283,LearnStrategy,2023.2.3,Win32,59.88023952,2,2,10,,,,,,,,1,05,,,,,,,,,,,1,2.806,1,,,,,,-0.3828125,-0.233072917,1,0,0,2.8061,Andesite_rect,9,0,9,0,1,
65ff67c31641a4be4c903b68,TCR,2024-06-25_11h42.28.283,LearnStrategy,2023.2.3,Win32,59.88023952,2,2,11,,,,,,,,1,04,,,,,,,,,,,3,3.111,0,,,,,,0.140625,-0.2421875,1,0,0,3.1108,Diorite_rect,10,0,10,0,1,
65ff67c31641a4be4c903b68,TCR,2024-06-25_11h42.28.283,LearnStrategy,2023.2.3,Win32,59.88023952,2,2,12,,,,,,,,7,14,,,,,,,,,,,7,3.76,1,,,,,,0.143229167,-0.421875,1,0,0,3.7601,Peridotite_rect,11,0,11,0,1,
65ff67c31641a4be4c903b68,TCR,2024-06-25_11h42.28.283,LearnStrategy,2023.2.3,Win32,59.88023952,2,2,13,,,,,,,,3,10,,,,,,,,,,,1,2.6,0,,,,,,-0.397135417,-0.23828125,1,0,0,2.5998,Andesite_rect,12,0,12,0,1,
65ff67c31641a4be4c903b68,TCR,2024-06-25_11h42.28.283,LearnStrategy,2023.2.3,Win32,59.88023952,2,2,14,,,,,,,,3,13,,,,,,,,,,,3,2.052,1,,,,,,0.15234375,-0.231770833,1,0,0,2.0521,Diorite_rect,13,0,13,0,1,
65ff67c31641a4be4c903b68,TCR,2024-06-25_11h42.28.283,LearnStrategy,2023.2.3,Win32,59.88023952,2,2,15,,,,,,,,6,05,,,,,,,,,,,5,1.618,0,,,,,,-0.408854167,-0.412760417,1,0,0,1.6184,Obsidian_rect,14,0,14,0,1,
65ff67c31641a4be4c903b68,TCR,2024-06-25_11h42.28.283,LearnStrategy,2023.2.3,Win32,59.88023952,2,2,16,,,,,,,,4,15,,,,,,,,,,,3,4.646,0,,,,,,0.166666667,-0.266927083,1,0,0,4.6463,Diorite_rect,15,0,15,0,1,
65ff67c31641a4be4c903b68,TCR,2024-06-25_11h42.28.283,LearnStrategy,2023.2.3,Win32,59.88023952,3,1,1,0.013020833,-0.005208333,1,0,0,1.4994,rock_grid_rect_2,5,14,-1,-1,1.499,-0.430989583,-0.391927083,1,0,0,1.3582,Obsidian_rect,5,1.358,1,0,0,0,0,1,,,,,,,,,,,,,
65ff67c31641a4be4c903b68,TCR,2024-06-25_11h42.28.283,LearnStrategy,2023.2.3,Win32,59.88023952,3,1,2,-0.005208333,-0.0078125,1,0,0,1.2524,rock_grid_rect_2,1,03,-1,-1,1.252,0.428385417,-0.24609375,1,0,0,2.7988,Gabbro_rect,4,2.799,0,1,0,1,0,1,,,,,,,,,,,,,
65ff67c31641a4be4c903b68,TCR,2024-06-25_11h42.28.283,LearnStrategy,2023.2.3,Win32,59.88023952,3,1,3,0.080729167,-0.010416667,1,0,0,1.4837,rock_grid_rect_2,4,14,-1,-1,1.484,-0.095052083,-0.24609375,1,0,0,8.1742,Basalt_rect,2,8.174,0,2,0,2,0,1,,,,,,,,,,,,,
65ff67c31641a4be4c903b68,TCR,2024-06-25_11h42.28.283,LearnStrategy,2023.2.3,Win32,59.88023952,3,1,4,0.005208333,0.006510417,1,0,0,1.0993,rock_grid_rect_2,3,06,-1,-1,1.099,0.141927083,-0.255208333,1,0,0,1.5947,Diorite_rect,3,1.595,1,3,0,3,0,1,,,,,,,,,,,,,
65ff67c31641a4be4c903b68,TCR,2024-06-25_11h42.28.283,LearnStrategy,2023.2.3,Win32,59.88023952,3,1,5,0.022135417,0.015625,1,0,0,1.33,rock_grid_rect_2,1,14,-1,-1,1.33,-0.126302083,-0.399739583,1,0,0,3.3944,Pegmatite_rect,6,3.394,0,4,0,4,0,1,,,,,,,,,,,,,
65ff67c31641a4be4c903b68,TCR,2024-06-25_11h42.28.283,LearnStrategy,2023.2.3,Win32,59.88023952,3,1,6,-0.036458333,-0.0078125,1,0,0,1.0163,rock_grid_rect_2,7,04,-1,-1,1.016,0.1875,-0.412760417,1,0,0,1.5119,Peridotite_rect,7,1.512,1,5,0,5,0,1,,,,,,,,,,,,,
65ff67c31641a4be4c903b68,TCR,2024-06-25_11h42.28.283,LearnStrategy,2023.2.3,Win32,59.88023952,3,1,7,0.013020833,0.0078125,1,0,0,1.2155,rock_grid_rect_2,1,16,-1,-1,1.216,-0.420572917,-0.248697917,1,0,0,3.6906,Andesite_rect,1,3.691,1,6,0,6,0,1,,,,,,,,,,,,,
65ff67c31641a4be4c903b68,TCR,2024-06-25_11h42.28.283,LearnStrategy,2023.2.3,Win32,59.88023952,3,1,8,-0.036458333,0.014322917,1,0,0,1.3035,rock_grid_rect_2,6,10,-1,-1,1.303,0.135416667,-0.393229167,1,0,0,2.7307,Peridotite_rect,7,2.731,0,7,0,7,0,1,,,,,,,,,,,,,
65ff67c31641a4be4c903b68,TCR,2024-06-25_11h42.28.283,LearnStrategy,2023.2.3,Win32,59.88023952,3,1,9,0.041666667,0.009114583,1,0,0,0.9684,rock_grid_rect_2,4,05,-1,-1,0.968,-0.3359375,-0.380208333,1,0,0,3.1803,Obsidian_rect,5,3.18,0,8,0,8,0,1,,,,,,,,,,,,,
65ff67c31641a4be4c903b68,TCR,2024-06-25_11h42.28.283,LearnStrategy,2023.2.3,Win32,59.88023952,3,1,10,-0.010416667,-0.013020833,1,0,0,0.9071,rock_grid_rect_2,3,11,-1,-1,0.907,0.115885417,-0.264322917,1,0,0,2.1893,Diorite_rect,3,2.189,1,9,0,9,0,1,,,,,,,,,,,,,
65ff67c31641a4be4c903b68,TCR,2024-06-25_11h42.28.283,LearnStrategy,2023.2.3,Win32,59.88023952,3,1,11,0.037760417,0.006510417,1,0,0,1.2116,rock_grid_rect_2,7,06,-1,-1,1.212,0.1328125,-0.395833333,1,0,0,2.7061,Peridotite_rect,7,2.706,1,10,0,10,0,1,,,,,,,,,,,,,
65ff67c31641a4be4c903b68,TCR,2024-06-25_11h42.28.283,LearnStrategy,2023.2.3,Win32,59.88023952,3,1,12,0,-0.001302083,1,0,0,1.0465,rock_grid_rect_2,8,13,-1,-1,1.047,0.407552083,-0.384114583,1,0,0,1.4579,Pumice_rect,8,1.458,1,11,0,11,0,1,,,,,,,,,,,,,
65ff67c31641a4be4c903b68,TCR,2024-06-25_11h42.28.283,LearnStrategy,2023.2.3,Win32,59.88023952,3,1,13,-0.005208333,0.0078125,1,0,0,1.3196,rock_grid_rect_2,3,08,-1,-1,1.32,0.102864583,-0.24609375,1,0,0,1.6697,Diorite_rect,3,1.67,1,12,0,12,0,1,,,,,,,,,,,,,
65ff67c31641a4be4c903b68,TCR,2024-06-25_11h42.28.283,LearnStrategy,2023.2.3,Win32,59.88023952,3,1,14,0.001302083,0.022135417,1,0,0,1.1869,rock_grid_rect_2,6,11,-1,-1,1.187,-0.157552083,-0.401041667,1,0,0,1.8802,Pegmatite_rect,6,1.88,1,13,0,13,0,1,,,,,,,,,,,,,
65ff67c31641a4be4c903b68,TCR,2024-06-25_11h42.28.283,LearnStrategy,2023.2.3,Win32,59.88023952,3,1,15,-0.032552083,0.005208333,1,0,0,1.2044,rock_grid_rect_2,2,09,-1,-1,1.204,-0.115885417,-0.23046875,1,0,0,1.9346,Basalt_rect,2,1.935,1,14,0,14,0,1,,,,,,,,,,,,,
65ff67c31641a4be4c903b68,TCR,2024-06-25_11h42.28.283,LearnStrategy,2023.2.3,Win32,59.88023952,3,1,16,-0.033854167,0.002604167,1,0,0,1.2889,rock_grid_rect_2,4,01,-1,-1,1.289,0.385416667,-0.236979167,1,0,0,1.2891,Gabbro_rect,4,1.289,1,15,0,15,0,1,,,,,,,,,,,,,
65ff67c31641a4be4c903b68,TCR,2024-06-25_11h42.28.283,LearnStrategy,2023.2.3,Win32,59.88023952,3,2,1,,,,,,,,1,11,,,,,,,,,,,4,3.918,0,,,,,,0.385416667,-0.259114583,1,0,0,3.9183,Gabbro_rect,0,0,0,0,1,
65ff67c31641a4be4c903b68,TCR,2024-06-25_11h42.28.283,LearnStrategy,2023.2.3,Win32,59.88023952,3,2,2,,,,,,,,5,12,,,,,,,,,,,5,1.237,1,,,,,,-0.345052083,-0.390625,1,0,0,1.2373,Obsidian_rect,1,0,1,0,1,
65ff67c31641a4be4c903b68,TCR,2024-06-25_11h42.28.283,LearnStrategy,2023.2.3,Win32,59.88023952,3,2,3,,,,,,,,1,02,,,,,,,,,,,1,5.037,1,,,,,,-0.403645833,-0.236979167,1,0,0,5.0373,Andesite_rect,2,0,2,0,1,
65ff67c31641a4be4c903b68,TCR,2024-06-25_11h42.28.283,LearnStrategy,2023.2.3,Win32,59.88023952,3,2,4,,,,,,,,5,11,,,,,,,,,,,5,1.237,1,,,,,,-0.37890625,-0.3828125,1,0,0,1.2367,Obsidian_rect,3,0,3,0,1,
65ff67c31641a4be4c903b68,TCR,2024-06-25_11h42.28.283,LearnStrategy,2023.2.3,Win32,59.88023952,3,2,5,,,,,,,,7,07,,,,,,,,,,,7,5.606,1,,,,,,0.09375,-0.3828125,1,0,0,5.606,Peridotite_rect,4,0,4,0,1,
65ff67c31641a4be4c903b68,TCR,2024-06-25_11h42.28.283,LearnStrategy,2023.2.3,Win32,59.88023952,3,2,6,,,,,,,,7,16,,,,,,,,,,,4,6.865,0,,,,,,0.372395833,-0.248697917,1,0,0,6.8645,Gabbro_rect,5,0,5,0,1,
65ff67c31641a4be4c903b68,TCR,2024-06-25_11h42.28.283,LearnStrategy,2023.2.3,Win32,59.88023952,3,2,7,,,,,,,,2,10,,,,,,,,,,,2,2.084,1,,,,,,-0.165364583,-0.239583333,1,0,0,2.0844,Basalt_rect,6,0,6,0,1,
65ff67c31641a4be4c903b68,TCR,2024-06-25_11h42.28.283,LearnStrategy,2023.2.3,Win32,59.88023952,3,2,8,,,,,,,,3,09,,,,,,,,,,,3,1.821,1,,,,,,0.123697917,-0.2421875,1,0,0,1.8206,Diorite_rect,7,0,7,0,1,
65ff67c31641a4be4c903b68,TCR,2024-06-25_11h42.28.283,LearnStrategy,2023.2.3,Win32,59.88023952,3,2,9,,,,,,,,8,15,,,,,,,,,,,8,1.425,1,,,,,,0.385416667,-0.38671875,1,0,0,1.4255,Pumice_rect,8,0,8,0,1,
65ff67c31641a4be4c903b68,TCR,2024-06-25_11h42.28.283,LearnStrategy,2023.2.3,Win32,59.88023952,3,2,10,,,,,,,,6,03,,,,,,,,,,,6,13.61,1,,,,,,-0.162760417,-0.388020833,1,0,0,13.6103,Pegmatite_rect,9,0,9,0,1,
65ff67c31641a4be4c903b68,TCR,2024-06-25_11h42.28.283,LearnStrategy,2023.2.3,Win32,59.88023952,3,2,11,,,,,,,,8,02,,,,,,,,,,,8,1.389,1,,,,,,0.404947917,-0.401041667,1,0,0,1.3892,Pumice_rect,10,0,10,0,1,
65ff67c31641a4be4c903b68,TCR,2024-06-25_11h42.28.283,LearnStrategy,2023.2.3,Win32,59.88023952,3,2,12,,,,,,,,4,03,,,,,,,,,,,4,2.084,1,,,,,,0.391927083,-0.243489583,1,0,0,2.0837,Gabbro_rect,11,0,11,0,1,
65ff67c31641a4be4c903b68,TCR,2024-06-25_11h42.28.283,LearnStrategy,2023.2.3,Win32,59.88023952,3,2,13,,,,,,,,6,15,,,,,,,,,,,6,2.178,1,,,,,,-0.162760417,-0.40625,1,0,0,2.178,Pegmatite_rect,12,0,12,0,1,
65ff67c31641a4be4c903b68,TCR,2024-06-25_11h42.28.283,LearnStrategy,2023.2.3,Win32,59.88023952,3,2,14,,,,,,,,3,15,,,,,,,,,,,3,1.906,1,,,,,,0.102864583,-0.233072917,1,0,0,1.9064,Diorite_rect,13,0,13,0,1,
65ff67c31641a4be4c903b68,TCR,2024-06-25_11h42.28.283,LearnStrategy,2023.2.3,Win32,59.88023952,3,2,15,,,,,,,,2,16,,,,,,,,,,,2,2.42,1,,,,,,-0.178385417,-0.25,1,0,0,2.4195,Basalt_rect,14,0,14,0,1,
65ff67c31641a4be4c903b68,TCR,2024-06-25_11h42.28.283,LearnStrategy,2023.2.3,Win32,59.88023952,3,2,16,,,,,,,,4,13,,,,,,,,,,,3,2.701,0,,,,,,0.0625,-0.270833333,1,0,0,2.7014,Diorite_rect,15,0,15,0,1,
65ff67c31641a4be4c903b68,TCR,2024-06-25_11h42.28.283,LearnStrategy,2023.2.3,Win32,59.88023952,4,1,1,-0.022135417,-0.009114583,1,0,0,1.6344,rock_grid_rect_2,5,10,-1,-1,1.634,-0.401041667,-0.416666667,1,0,0,1.6937,Obsidian_rect,5,1.694,1,0,0,0,0,1,,,,,,,,,,,,,
65ff67c31641a4be4c903b68,TCR,2024-06-25_11h42.28.283,LearnStrategy,2023.2.3,Win32,59.88023952,4,1,2,-0.057291667,0.013020833,1,0,0,1.1726,rock_grid_rect_2,4,05,-1,-1,1.173,0.401041667,-0.264322917,1,0,0,1.6049,Gabbro_rect,4,1.605,1,1,0,1,0,1,,,,,,,,,,,,,
65ff67c31641a4be4c903b68,TCR,2024-06-25_11h42.28.283,LearnStrategy,2023.2.3,Win32,59.88023952,4,1,3,-0.026041667,0.015625,1,0,0,1.3137,rock_grid_rect_2,7,06,-1,-1,1.314,0.131510417,-0.41796875,1,0,0,2.4695,Peridotite_rect,7,2.47,1,2,0,2,0,1,,,,,,,,,,,,,
65ff67c31641a4be4c903b68,TCR,2024-06-25_11h42.28.283,LearnStrategy,2023.2.3,Win32,59.88023952,4,1,4,0.001302083,0.006510417,1,0,0,1.1988,rock_grid_rect_2,4,10,-1,-1,1.199,-0.149739583,-0.23046875,1,0,0,2.7351,Basalt_rect,2,2.735,0,3,0,3,0,1,,,,,,,,,,,,,
65ff67c31641a4be4c903b68,TCR,2024-06-25_11h42.28.283,LearnStrategy,2023.2.3,Win32,59.88023952,4,1,5,-0.07421875,-0.005208333,1,0,0,1.0111,rock_grid_rect_2,4,16,-1,-1,1.011,-0.171875,-0.263020833,1,0,0,1.572,Basalt_rect,2,1.572,0,4,0,4,0,1,,,,,,,,,,,,,
65ff67c31641a4be4c903b68,TCR,2024-06-25_11h42.28.283,LearnStrategy,2023.2.3,Win32,59.88023952,4,1,6,-0.078125,-0.002604167,1,0,0,1.0033,rock_grid_rect_2,7,15,-1,-1,1.003,0.067708333,-0.39453125,1,0,0,3.0613,Peridotite_rect,7,3.061,1,5,0,5,0,1,,,,,,,,,,,,,
65ff67c31641a4be4c903b68,TCR,2024-06-25_11h42.28.283,LearnStrategy,2023.2.3,Win32,59.88023952,4,1,7,0.01171875,0.0078125,1,0,0,1.2877,rock_grid_rect_2,8,09,-1,-1,1.288,0.412760417,-0.404947917,1,0,0,1.4639,Pumice_rect,8,1.464,1,6,0,6,0,1,,,,,,,,,,,,,
65ff67c31641a4be4c903b68,TCR,2024-06-25_11h42.28.283,LearnStrategy,2023.2.3,Win32,59.88023952,4,1,8,0.041666667,-0.005208333,1,0,0,1.2101,rock_grid_rect_2,7,04,-1,-1,1.21,0.119791667,-0.393229167,1,0,0,1.7529,Peridotite_rect,7,1.753,1,7,0,7,0,1,,,,,,,,,,,,,
65ff67c31641a4be4c903b68,TCR,2024-06-25_11h42.28.283,LearnStrategy,2023.2.3,Win32,59.88023952,4,1,9,-0.0078125,0.014322917,1,0,0,1.0452,rock_grid_rect_2,1,14,-1,-1,1.045,-0.36328125,-0.240885417,1,0,0,1.9885,Andesite_rect,1,1.988,1,8,0,8,0,1,,,,,,,,,,,,,
65ff67c31641a4be4c903b68,TCR,2024-06-25_11h42.28.283,LearnStrategy,2023.2.3,Win32,59.88023952,4,1,10,-0.091145833,-0.002604167,1,0,0,1.0026,rock_grid_rect_2,3,08,-1,-1,1.003,0.135416667,-0.25390625,1,0,0,1.5255,Diorite_rect,3,1.525,1,9,0,9,0,1,,,,,,,,,,,,,
65ff67c31641a4be4c903b68,TCR,2024-06-25_11h42.28.283,LearnStrategy,2023.2.3,Win32,59.88023952,4,1,11,-0.026041667,0.014322917,1,0,0,1.1729,rock_grid_rect_2,3,11,-1,-1,1.173,0.134114583,-0.240885417,1,0,0,6.7787,Diorite_rect,3,6.779,1,10,0,10,0,1,,,,,,,,,,,,,
65ff67c31641a4be4c903b68,TCR,2024-06-25_11h42.28.283,LearnStrategy,2023.2.3,Win32,59.88023952,4,1,12,-0.028645833,-0.01171875,1,0,0,1.0193,rock_grid_rect_2,2,04,-1,-1,1.019,-0.174479167,-0.23828125,1,0,0,1.5426,Basalt_rect,2,1.543,1,11,0,11,0,1,,,,,,,,,,,,,
65ff67c31641a4be4c903b68,TCR,2024-06-25_11h42.28.283,LearnStrategy,2023.2.3,Win32,59.88023952,4,1,13,-0.032552083,0.005208333,1,0,0,1.3849,rock_grid_rect_2,6,10,-1,-1,1.385,-0.122395833,-0.389322917,1,0,0,1.5579,Pegmatite_rect,6,1.558,1,12,0,12,0,1,,,,,,,,,,,,,
65ff67c31641a4be4c903b68,TCR,2024-06-25_11h42.28.283,LearnStrategy,2023.2.3,Win32,59.88023952,4,1,14,0.002604167,0.00390625,1,0,0,0.888,rock_grid_rect_2,1,16,-1,-1,0.888,0.4375,-0.265625,1,0,0,1.4482,Gabbro_rect,4,1.448,0,13,0,13,0,1,,,,,,,,,,,,,
65ff67c31641a4be4c903b68,TCR,2024-06-25_11h42.28.283,LearnStrategy,2023.2.3,Win32,59.88023952,4,1,15,0.0390625,0.01953125,1,0,0,0.9753,rock_grid_rect_2,4,12,-1,-1,0.975,-0.360677083,-0.231770833,1,0,0,2.9706,Andesite_rect,1,2.971,0,14,0,14,0,1,,,,,,,,,,,,,
65ff67c31641a4be4c903b68,TCR,2024-06-25_11h42.28.283,LearnStrategy,2023.2.3,Win32,59.88023952,4,1,16,-0.006510417,-0.015625,1,0,0,1.1169,rock_grid_rect_2,1,10,-1,-1,1.117,0.4140625,-0.411458333,1,0,0,4.5464,Pumice_rect,8,4.546,0,15,0,15,0,1,,,,,,,,,,,,,
65ff67c31641a4be4c903b68,TCR,2024-06-25_11h42.28.283,LearnStrategy,2023.2.3,Win32,59.88023952,4,2,1,,,,,,,,5,12,,,,,,,,,,,5,1.248,1,,,,,,-0.334635417,-0.380208333,1,0,0,1.2476,Obsidian_rect,0,0,0,0,1,
65ff67c31641a4be4c903b68,TCR,2024-06-25_11h42.28.283,LearnStrategy,2023.2.3,Win32,59.88023952,4,2,2,,,,,,,,1,05,,,,,,,,,,,1,2.683,1,,,,,,-0.31640625,-0.252604167,1,0,0,2.6827,Andesite_rect,1,0,1,0,1,
65ff67c31641a4be4c903b68,TCR,2024-06-25_11h42.28.283,LearnStrategy,2023.2.3,Win32,59.88023952,4,2,3,,,,,,,,2,11,,,,,,,,,,,4,11.09,0,,,,,,0.352864583,-0.255208333,1,0,0,11.0904,Gabbro_rect,2,0,2,0,1,
65ff67c31641a4be4c903b68,TCR,2024-06-25_11h42.28.283,LearnStrategy,2023.2.3,Win32,59.88023952,4,2,4,,,,,,,,2,10,,,,,,,,,,,2,3.861,1,,,,,,-0.12109375,-0.247395833,1,0,0,3.8612,Basalt_rect,3,0,3,0,1,
65ff67c31641a4be4c903b68,TCR,2024-06-25_11h42.28.283,LearnStrategy,2023.2.3,Win32,59.88023952,4,2,5,,,,,,,,7,14,,,,,,,,,,,1,11.236,0,,,,,,-0.345052083,-0.24609375,1,0,0,11.2364,Andesite_rect,4,0,4,0,1,
65ff67c31641a4be4c903b68,TCR,2024-06-25_11h42.28.283,LearnStrategy,2023.2.3,Win32,59.88023952,4,2,6,,,,,,,,3,12,,,,,,,,,,,3,3.554,1,,,,,,0.118489583,-0.235677083,1,0,0,3.5537,Diorite_rect,5,0,5,0,1,
65ff67c31641a4be4c903b68,TCR,2024-06-25_11h42.28.283,LearnStrategy,2023.2.3,Win32,59.88023952,4,2,7,,,,,,,,6,05,,,,,,,,,,,5,4.871,0,,,,,,-0.446614583,-0.38671875,1,0,0,4.8714,Obsidian_rect,6,0,6,0,1,
65ff67c31641a4be4c903b68,TCR,2024-06-25_11h42.28.283,LearnStrategy,2023.2.3,Win32,59.88023952,4,2,8,,,,,,,,4,08,,,,,,,,,,,4,5.154,1,,,,,,0.4140625,-0.259114583,1,0,0,5.1539,Gabbro_rect,7,0,7,0,1,
65ff67c31641a4be4c903b68,TCR,2024-06-25_11h42.28.283,LearnStrategy,2023.2.3,Win32,59.88023952,4,2,9,,,,,,,,6,15,,,,,,,,,,,6,1.531,1,,,,,,-0.157552083,-0.421875,1,0,0,1.5314,Pegmatite_rect,8,0,8,0,1,
65ff67c31641a4be4c903b68,TCR,2024-06-25_11h42.28.283,LearnStrategy,2023.2.3,Win32,59.88023952,4,2,10,,,,,,,,5,16,,,,,,,,,,,5,1.138,1,,,,,,-0.315104167,-0.411458333,1,0,0,1.1379,Obsidian_rect,9,0,9,0,1,
65ff67c31641a4be4c903b68,TCR,2024-06-25_11h42.28.283,LearnStrategy,2023.2.3,Win32,59.88023952,4,2,11,,,,,,,,8,15,,,,,,,,,,,8,1.39,1,,,,,,0.389322917,-0.4140625,1,0,0,1.39,Pumice_rect,10,0,10,0,1,
65ff67c31641a4be4c903b68,TCR,2024-06-25_11h42.28.283,LearnStrategy,2023.2.3,Win32,59.88023952,4,2,12,,,,,,,,4,11,,,,,,,,,,,4,2.535,1,,,,,,0.391927083,-0.235677083,1,0,0,2.5353,Gabbro_rect,11,0,11,0,1,
65ff67c31641a4be4c903b68,TCR,2024-06-25_11h42.28.283,LearnStrategy,2023.2.3,Win32,59.88023952,4,2,13,,,,,,,,8,04,,,,,,,,,,,8,1.635,1,,,,,,0.37890625,-0.3984375,1,0,0,1.6353,Pumice_rect,12,0,12,0,1,
65ff67c31641a4be4c903b68,TCR,2024-06-25_11h42.28.283,LearnStrategy,2023.2.3,Win32,59.88023952,4,2,14,,,,,,,,3,13,,,,,,,,,,,3,1.498,1,,,,,,0.122395833,-0.229166667,1,0,0,1.4975,Diorite_rect,13,0,13,0,1,
65ff67c31641a4be4c903b68,TCR,2024-06-25_11h42.28.283,LearnStrategy,2023.2.3,Win32,59.88023952,4,2,15,,,,,,,,7,07,,,,,,,,,,,7,3.288,1,,,,,,0.044270833,-0.408854167,1,0,0,3.2882,Peridotite_rect,14,0,14,0,1,
65ff67c31641a4be4c903b68,TCR,2024-06-25_11h42.28.283,LearnStrategy,2023.2.3,Win32,59.88023952,4,2,16,,,,,,,,1,07,,,,,,,,,,,3,2.463,0,,,,,,0.114583333,-0.23828125,1,0,0,2.4626,Diorite_rect,15,0,15,0,1,
65ff67c31641a4be4c903b68,TCR,2024-06-25_11h42.28.283,LearnStrategy,2023.2.3,Win32,59.88023952,5,1,1,0.075520833,0.009114583,1,0,0,1.4998,rock_grid_rect_2,1,10,-1,-1,1.5,-0.365885417,-0.2421875,1,0,0,3.3584,Andesite_rect,1,3.358,1,0,0,0,0,1,,,,,,,,,,,,,
65ff67c31641a4be4c903b68,TCR,2024-06-25_11h42.28.283,LearnStrategy,2023.2.3,Win32,59.88023952,5,1,2,0.009114583,0,1,0,0,1.1967,rock_grid_rect_2,1,09,-1,-1,1.197,-0.4609375,-0.243489583,1,0,0,2.2849,Andesite_rect,1,2.285,1,1,0,1,0,1,,,,,,,,,,,,,
65ff67c31641a4be4c903b68,TCR,2024-06-25_11h42.28.283,LearnStrategy,2023.2.3,Win32,59.88023952,5,1,3,-0.013020833,-0.005208333,1,0,0,1.2376,rock_grid_rect_2,4,14,-1,-1,1.238,0.348958333,-0.235677083,1,0,0,5.6365,Gabbro_rect,4,5.636,1,2,0,2,0,1,,,,,,,,,,,,,
65ff67c31641a4be4c903b68,TCR,2024-06-25_11h42.28.283,LearnStrategy,2023.2.3,Win32,59.88023952,5,1,4,-0.0390625,0.009114583,1,0,0,1.0516,rock_grid_rect_2,1,03,-1,-1,1.052,0.372395833,-0.265625,1,0,0,3.3946,Gabbro_rect,4,3.395,0,3,0,3,0,1,,,,,,,,,,,,,
65ff67c31641a4be4c903b68,TCR,2024-06-25_11h42.28.283,LearnStrategy,2023.2.3,Win32,59.88023952,5,1,5,0.0390625,0.01953125,1,0,0,1.1276,rock_grid_rect_2,4,01,-1,-1,1.128,-0.37890625,-0.243489583,1,0,0,1.4731,Andesite_rect,1,1.473,0,4,0,4,0,1,,,,,,,,,,,,,
65ff67c31641a4be4c903b68,TCR,2024-06-25_11h42.28.283,LearnStrategy,2023.2.3,Win32,59.88023952,5,1,6,0.013020833,-0.0234375,1,0,0,1.1715,rock_grid_rect_2,6,12,-1,-1,1.172,0.139322917,-0.25390625,1,0,0,2.6028,Diorite_rect,3,2.603,0,5,0,5,0,1,,,,,,,,,,,,,
65ff67c31641a4be4c903b68,TCR,2024-06-25_11h42.28.283,LearnStrategy,2023.2.3,Win32,59.88023952,5,1,7,0.069010417,0.0234375,1,0,0,0.9749,rock_grid_rect_2,3,08,-1,-1,0.975,0.177083333,-0.251302083,1,0,0,2.4417,Diorite_rect,3,2.442,1,6,0,6,0,1,,,,,,,,,,,,,
65ff67c31641a4be4c903b68,TCR,2024-06-25_11h42.28.283,LearnStrategy,2023.2.3,Win32,59.88023952,5,1,8,-0.016927083,0.0078125,1,0,0,1.444,rock_grid_rect_2,7,15,-1,-1,1.444,0.118489583,-0.393229167,1,0,0,1.5332,Peridotite_rect,7,1.533,1,7,0,7,0,1,,,,,,,,,,,,,
65ff67c31641a4be4c903b68,TCR,2024-06-25_11h42.28.283,LearnStrategy,2023.2.3,Win32,59.88023952,5,1,9,-0.016927083,-0.00390625,1,0,0,1.1771,rock_grid_rect_2,5,14,-1,-1,1.177,-0.377604167,-0.390625,1,0,0,1.4587,Obsidian_rect,5,1.459,1,8,0,8,0,1,,,,,,,,,,,,,
65ff67c31641a4be4c903b68,TCR,2024-06-25_11h42.28.283,LearnStrategy,2023.2.3,Win32,59.88023952,5,1,10,0.013020833,-0.0078125,1,0,0,1.2656,rock_grid_rect_2,7,04,-1,-1,1.266,0.088541667,-0.388020833,1,0,0,1.7435,Peridotite_rect,7,1.744,1,9,0,9,0,1,,,,,,,,,,,,,
65ff67c31641a4be4c903b68,TCR,2024-06-25_11h42.28.283,LearnStrategy,2023.2.3,Win32,59.88023952,5,1,11,-0.018229167,-0.002604167,1,0,0,0.9738,rock_grid_rect_2,2,04,-1,-1,0.974,-0.0859375,-0.23828125,1,0,0,3.8517,Basalt_rect,2,3.852,1,10,0,10,0,1,,,,,,,,,,,,,
65ff67c31641a4be4c903b68,TCR,2024-06-25_11h42.28.283,LearnStrategy,2023.2.3,Win32,59.88023952,5,1,12,0.0390625,0.009114583,1,0,0,1.1996,rock_grid_rect_2,6,16,-1,-1,1.2,-0.091145833,-0.39453125,1,0,0,7.158,Pegmatite_rect,6,7.158,1,11,0,11,0,1,,,,,,,,,,,,,
65ff67c31641a4be4c903b68,TCR,2024-06-25_11h42.28.283,LearnStrategy,2023.2.3,Win32,59.88023952,5,1,13,-0.010416667,-0.001302083,1,0,0,1.1231,rock_grid_rect_2,7,15,-1,-1,1.123,0.114583333,-0.391927083,1,0,0,1.3999,Peridotite_rect,7,1.4,1,12,0,12,0,1,,,,,,,,,,,,,
65ff67c31641a4be4c903b68,TCR,2024-06-25_11h42.28.283,LearnStrategy,2023.2.3,Win32,59.88023952,5,1,14,-0.005208333,-0.002604167,1,0,0,1.1448,rock_grid_rect_2,2,06,-1,-1,1.145,-0.115885417,-0.26953125,1,0,0,1.5141,Basalt_rect,2,1.514,1,13,0,13,0,1,,,,,,,,,,,,,
65ff67c31641a4be4c903b68,TCR,2024-06-25_11h42.28.283,LearnStrategy,2023.2.3,Win32,59.88023952,5,1,15,-0.013020833,-0.013020833,1,0,0,1.2399,rock_grid_rect_2,8,14,-1,-1,1.24,0.395833333,-0.4140625,1,0,0,1.5697,Pumice_rect,8,1.57,1,14,0,14,0,1,,,,,,,,,,,,,
65ff67c31641a4be4c903b68,TCR,2024-06-25_11h42.28.283,LearnStrategy,2023.2.3,Win32,59.88023952,5,1,16,0.05078125,-0.009114583,1,0,0,1.3783,rock_grid_rect_2,3,06,-1,-1,1.378,-0.372395833,-0.247395833,1,0,0,1.5405,Andesite_rect,1,1.541,0,15,0,15,0,1,,,,,,,,,,,,,
65ff67c31641a4be4c903b68,TCR,2024-06-25_11h42.28.283,LearnStrategy,2023.2.3,Win32,59.88023952,5,2,1,,,,,,,,8,16,,,,,,,,,,,8,1.483,1,,,,,,0.328125,-0.407552083,1,0,0,1.4827,Pumice_rect,0,0,0,0,1,
65ff67c31641a4be4c903b68,TCR,2024-06-25_11h42.28.283,LearnStrategy,2023.2.3,Win32,59.88023952,5,2,2,,,,,,,,3,09,,,,,,,,,,,3,9.859,1,,,,,,0.13671875,-0.26171875,1,0,0,9.8592,Diorite_rect,1,0,1,0,1,
65ff67c31641a4be4c903b68,TCR,2024-06-25_11h42.28.283,LearnStrategy,2023.2.3,Win32,59.88023952,5,2,3,,,,,,,,5,02,,,,,,,,,,,5,1.377,1,,,,,,-0.407552083,-0.395833333,1,0,0,1.3774,Obsidian_rect,2,0,2,0,1,
65ff67c31641a4be4c903b68,TCR,2024-06-25_11h42.28.283,LearnStrategy,2023.2.3,Win32,59.88023952,5,2,4,,,,,,,,1,11,,,,,,,,,,,1,2.167,1,,,,,,-0.342447917,-0.2421875,1,0,0,2.1666,Andesite_rect,3,0,3,0,1,
65ff67c31641a4be4c903b68,TCR,2024-06-25_11h42.28.283,LearnStrategy,2023.2.3,Win32,59.88023952,5,2,5,,,,,,,,2,08,,,,,,,,,,,2,1.49,1,,,,,,-0.12890625,-0.240885417,1,0,0,1.4903,Basalt_rect,4,0,4,0,1,
65ff67c31641a4be4c903b68,TCR,2024-06-25_11h42.28.283,LearnStrategy,2023.2.3,Win32,59.88023952,5,2,6,,,,,,,,6,13,,,,,,,,,,,6,3.48,1,,,,,,-0.127604167,-0.399739583,1,0,0,3.4799,Pegmatite_rect,5,0,5,0,1,
65ff67c31641a4be4c903b68,TCR,2024-06-25_11h42.28.283,LearnStrategy,2023.2.3,Win32,59.88023952,5,2,7,,,,,,,,4,09,,,,,,,,,,,4,5.031,1,,,,,,0.399739583,-0.25390625,1,0,0,5.0313,Gabbro_rect,6,0,6,0,1,
65ff67c31641a4be4c903b68,TCR,2024-06-25_11h42.28.283,LearnStrategy,2023.2.3,Win32,59.88023952,5,2,8,,,,,,,,5,04,,,,,,,,,,,5,1.486,1,,,,,,-0.37109375,-0.380208333,1,0,0,1.4858,Obsidian_rect,7,0,7,0,1,
65ff67c31641a4be4c903b68,TCR,2024-06-25_11h42.28.283,LearnStrategy,2023.2.3,Win32,59.88023952,5,2,9,,,,,,,,3,10,,,,,,,,,,,1,1.949,0,,,,,,-0.345052083,-0.25390625,1,0,0,1.9492,Andesite_rect,8,0,8,0,1,
65ff67c31641a4be4c903b68,TCR,2024-06-25_11h42.28.283,LearnStrategy,2023.2.3,Win32,59.88023952,5,2,10,,,,,,,,8,05,,,,,,,,,,,8,1.298,1,,,,,,0.3515625,-0.408854167,1,0,0,1.2976,Pumice_rect,9,0,9,0,1,
65ff67c31641a4be4c903b68,TCR,2024-06-25_11h42.28.283,LearnStrategy,2023.2.3,Win32,59.88023952,5,2,11,,,,,,,,4,13,,,,,,,,,,,3,29.227,0,,,,,,0.1796875,-0.268229167,1,0,0,29.227,Diorite_rect,10,0,10,0,1,
65ff67c31641a4be4c903b68,TCR,2024-06-25_11h42.28.283,LearnStrategy,2023.2.3,Win32,59.88023952,5,2,12,,,,,,,,6,03,,,,,,,,,,,6,1.479,1,,,,,,-0.104166667,-0.380208333,1,0,0,1.4794,Pegmatite_rect,11,0,11,0,1,
65ff67c31641a4be4c903b68,TCR,2024-06-25_11h42.28.283,LearnStrategy,2023.2.3,Win32,59.88023952,5,2,13,,,,,,,,2,02,,,,,,,,,,,2,4.534,1,,,,,,-0.119791667,-0.251302083,1,0,0,4.5337,Basalt_rect,12,0,12,0,1,
65ff67c31641a4be4c903b68,TCR,2024-06-25_11h42.28.283,LearnStrategy,2023.2.3,Win32,59.88023952,5,2,14,,,,,,,,7,16,,,,,,,,,,,5,2.597,0,,,,,,-0.358072917,-0.391927083,1,0,0,2.5967,Obsidian_rect,13,0,13,0,1,
65ff67c31641a4be4c903b68,TCR,2024-06-25_11h42.28.283,LearnStrategy,2023.2.3,Win32,59.88023952,5,2,15,,,,,,,,1,06,,,,,,,,,,,1,1.598,1,,,,,,-0.345052083,-0.2578125,1,0,0,1.5976,Andesite_rect,14,0,14,0,1,
65ff67c31641a4be4c903b68,TCR,2024-06-25_11h42.28.283,LearnStrategy,2023.2.3,Win32,59.88023952,5,2,16,,,,,,,,7,13,,,,,,,,,,,7,2.67,1,,,,,,0.192708333,-0.399739583,1,0,0,2.67,Peridotite_rect,15,0,15,0,1,
65ff67c31641a4be4c903b68,TCR,2024-06-25_11h42.28.283,LearnStrategy,2023.2.3,Win32,59.88023952,6,1,1,-0.087239583,-0.009114583,1,0,0,2.0227,rock_grid_rect_2,2,01,-1,-1,2.023,-0.13671875,-0.234375,1,0,0,4.7902,Basalt_rect,2,4.79,1,0,0,0,0,1,,,,,,,,,,,,,
65ff67c31641a4be4c903b68,TCR,2024-06-25_11h42.28.283,LearnStrategy,2023.2.3,Win32,59.88023952,6,1,2,-0.098958333,-0.005208333,1,0,0,1.3388,rock_grid_rect_2,1,09,-1,-1,1.339,-0.375,-0.263020833,1,0,0,1.5669,Andesite_rect,1,1.567,1,1,0,1,0,1,,,,,,,,,,,,,
65ff67c31641a4be4c903b68,TCR,2024-06-25_11h42.28.283,LearnStrategy,2023.2.3,Win32,59.88023952,6,1,3,-0.0078125,-0.002604167,1,0,0,1.2702,rock_grid_rect_2,4,05,-1,-1,1.27,-0.361979167,-0.403645833,1,0,0,3.1912,Obsidian_rect,5,3.191,0,2,0,2,0,1,,,,,,,,,,,,,
65ff67c31641a4be4c903b68,TCR,2024-06-25_11h42.28.283,LearnStrategy,2023.2.3,Win32,59.88023952,6,1,4,-0.048177083,0,1,0,0,1.1114,rock_grid_rect_2,6,07,-1,-1,1.111,-0.143229167,-0.403645833,1,0,0,1.451,Pegmatite_rect,6,1.451,1,3,0,3,0,1,,,,,,,,,,,,,
65ff67c31641a4be4c903b68,TCR,2024-06-25_11h42.28.283,LearnStrategy,2023.2.3,Win32,59.88023952,6,1,5,0.045572917,-0.009114583,1,0,0,0.9767,rock_grid_rect_2,3,06,-1,-1,0.977,-0.41015625,-0.260416667,1,0,0,2.3478,Andesite_rect,1,2.348,0,4,0,4,0,1,,,,,,,,,,,,,
65ff67c31641a4be4c903b68,TCR,2024-06-25_11h42.28.283,LearnStrategy,2023.2.3,Win32,59.88023952,6,1,6,-0.049479167,0.0234375,1,0,0,1.0438,rock_grid_rect_2,8,10,-1,-1,1.044,0.416666667,-0.391927083,1,0,0,1.733,Pumice_rect,8,1.733,1,5,0,5,0,1,,,,,,,,,,,,,
65ff67c31641a4be4c903b68,TCR,2024-06-25_11h42.28.283,LearnStrategy,2023.2.3,Win32,59.88023952,6,1,7,0.009114583,-0.016927083,1,0,0,1.0787,rock_grid_rect_2,7,06,-1,-1,1.079,0.12890625,-0.380208333,1,0,0,2.0488,Peridotite_rect,7,2.049,1,6,0,6,0,1,,,,,,,,,,,,,
65ff67c31641a4be4c903b68,TCR,2024-06-25_11h42.28.283,LearnStrategy,2023.2.3,Win32,59.88023952,6,1,8,0.015625,0.005208333,1,0,0,1.1906,rock_grid_rect_2,5,05,-1,-1,1.191,-0.376302083,-0.389322917,1,0,0,1.7847,Obsidian_rect,5,1.785,1,7,0,7,0,1,,,,,,,,,,,,,
65ff67c31641a4be4c903b68,TCR,2024-06-25_11h42.28.283,LearnStrategy,2023.2.3,Win32,59.88023952,6,1,9,0.03125,0.010416667,1,0,0,1.0464,rock_grid_rect_2,7,06,-1,-1,1.046,0.100260417,-0.39453125,1,0,0,1.8082,Peridotite_rect,7,1.808,1,8,0,8,0,1,,,,,,,,,,,,,
65ff67c31641a4be4c903b68,TCR,2024-06-25_11h42.28.283,LearnStrategy,2023.2.3,Win32,59.88023952,6,1,10,0.033854167,0.005208333,1,0,0,1.0857,rock_grid_rect_2,3,08,-1,-1,1.086,0.125,-0.266927083,1,0,0,2.0541,Diorite_rect,3,2.054,1,9,0,9,0,1,,,,,,,,,,,,,
65ff67c31641a4be4c903b68,TCR,2024-06-25_11h42.28.283,LearnStrategy,2023.2.3,Win32,59.88023952,6,1,11,0.0078125,0.0078125,1,0,0,1.1092,rock_grid_rect_2,1,01,-1,-1,1.109,0.196614583,-0.25390625,1,0,0,3.8917,Diorite_rect,3,3.892,0,10,0,10,0,1,,,,,,,,,,,,,
65ff67c31641a4be4c903b68,TCR,2024-06-25_11h42.28.283,LearnStrategy,2023.2.3,Win32,59.88023952,6,1,12,-0.022135417,0.016927083,1,0,0,1.0444,rock_grid_rect_2,3,06,-1,-1,1.044,-0.432291667,-0.244791667,1,0,0,1.5879,Andesite_rect,1,1.588,0,11,0,11,0,1,,,,,,,,,,,,,
65ff67c31641a4be4c903b68,TCR,2024-06-25_11h42.28.283,LearnStrategy,2023.2.3,Win32,59.88023952,6,1,13,-0.079427083,-0.006510417,1,0,0,0.8434,rock_grid_rect_2,1,14,-1,-1,0.843,-0.424479167,-0.248697917,1,0,0,2.6508,Andesite_rect,1,2.651,1,12,0,12,0,1,,,,,,,,,,,,,
65ff67c31641a4be4c903b68,TCR,2024-06-25_11h42.28.283,LearnStrategy,2023.2.3,Win32,59.88023952,6,1,14,-0.028645833,0.013020833,1,0,0,1.8487,rock_grid_rect_2,7,02,-1,-1,1.849,0.084635417,-0.403645833,1,0,0,2.245,Peridotite_rect,7,2.245,1,13,0,13,0,1,,,,,,,,,,,,,
65ff67c31641a4be4c903b68,TCR,2024-06-25_11h42.28.283,LearnStrategy,2023.2.3,Win32,59.88023952,6,1,15,0.009114583,0.010416667,1,0,0,0.9704,rock_grid_rect_2,4,16,-1,-1,0.97,0.369791667,-0.233072917,1,0,0,2.5037,Gabbro_rect,4,2.504,1,14,0,14,0,1,,,,,,,,,,,,,
65ff67c31641a4be4c903b68,TCR,2024-06-25_11h42.28.283,LearnStrategy,2023.2.3,Win32,59.88023952,6,1,16,0.078125,0.001302083,1,0,0,1.1504,rock_grid_rect_2,4,12,-1,-1,1.15,0.458333333,-0.268229167,1,0,0,1.8021,Gabbro_rect,4,1.802,1,15,0,15,0,1,,,,,,,,,,,,,
65ff67c31641a4be4c903b68,TCR,2024-06-25_11h42.28.283,LearnStrategy,2023.2.3,Win32,59.88023952,6,2,1,,,,,,,,7,12,,,,,,,,,,,3,11.56,0,,,,,,0.10546875,-0.263020833,1,0,0,11.5598,Diorite_rect,0,0,0,0,1,
65ff67c31641a4be4c903b68,TCR,2024-06-25_11h42.28.283,LearnStrategy,2023.2.3,Win32,59.88023952,6,2,2,,,,,,,,8,08,,,,,,,,,,,8,1.35,1,,,,,,0.342447917,-0.384114583,1,0,0,1.3497,Pumice_rect,1,0,1,0,1,
65ff67c31641a4be4c903b68,TCR,2024-06-25_11h42.28.283,LearnStrategy,2023.2.3,Win32,59.88023952,6,2,3,,,,,,,,4,15,,,,,,,,,,,3,7.986,0,,,,,,0.131510417,-0.23046875,1,0,0,7.9856,Diorite_rect,2,0,2,0,1,
65ff67c31641a4be4c903b68,TCR,2024-06-25_11h42.28.283,LearnStrategy,2023.2.3,Win32,59.88023952,6,2,4,,,,,,,,6,08,,,,,,,,,,,6,1.636,1,,,,,,-0.134114583,-0.404947917,1,0,0,1.6362,Pegmatite_rect,3,0,3,0,1,
65ff67c31641a4be4c903b68,TCR,2024-06-25_11h42.28.283,LearnStrategy,2023.2.3,Win32,59.88023952,6,2,5,,,,,,,,3,14,,,,,,,,,,,3,9.521,1,,,,,,0.131510417,-0.263020833,1,0,0,9.5214,Diorite_rect,4,0,4,0,1,
65ff67c31641a4be4c903b68,TCR,2024-06-25_11h42.28.283,LearnStrategy,2023.2.3,Win32,59.88023952,6,2,6,,,,,,,,3,15,,,,,,,,,,,1,6.481,0,,,,,,-0.3515625,-0.234375,1,0,0,6.4809,Andesite_rect,5,0,5,0,1,
65ff67c31641a4be4c903b68,TCR,2024-06-25_11h42.28.283,LearnStrategy,2023.2.3,Win32,59.88023952,6,2,7,,,,,,,,8,02,,,,,,,,,,,8,1.39,1,,,,,,0.4140625,-0.399739583,1,0,0,1.3896,Pumice_rect,6,0,6,0,1,
65ff67c31641a4be4c903b68,TCR,2024-06-25_11h42.28.283,LearnStrategy,2023.2.3,Win32,59.88023952,6,2,8,,,,,,,,5,11,,,,,,,,,,,5,1.238,1,,,,,,-0.35546875,-0.37890625,1,0,0,1.2384,Obsidian_rect,7,0,7,0,1,
65ff67c31641a4be4c903b68,TCR,2024-06-25_11h42.28.283,LearnStrategy,2023.2.3,Win32,59.88023952,6,2,9,,,,,,,,6,09,,,,,,,,,,,6,1.236,1,,,,,,-0.118489583,-0.390625,1,0,0,1.2364,Pegmatite_rect,8,0,8,0,1,
65ff67c31641a4be4c903b68,TCR,2024-06-25_11h42.28.283,LearnStrategy,2023.2.3,Win32,59.88023952,6,2,10,,,,,,,,5,08,,,,,,,,,,,5,1.405,1,,,,,,-0.411458333,-0.381510417,1,0,0,1.4046,Obsidian_rect,9,0,9,0,1,
65ff67c31641a4be4c903b68,TCR,2024-06-25_11h42.28.283,LearnStrategy,2023.2.3,Win32,59.88023952,6,2,11,,,,,,,,7,08,,,,,,,,,,,7,1.739,1,,,,,,0.125,-0.38671875,1,0,0,1.7388,Peridotite_rect,10,0,10,0,1,
65ff67c31641a4be4c903b68,TCR,2024-06-25_11h42.28.283,LearnStrategy,2023.2.3,Win32,59.88023952,6,2,12,,,,,,,,4,03,,,,,,,,,,,1,5.028,0,,,,,,-0.375,-0.248697917,1,0,0,5.0282,Andesite_rect,11,0,11,0,1,
65ff67c31641a4be4c903b68,TCR,2024-06-25_11h42.28.283,LearnStrategy,2023.2.3,Win32,59.88023952,6,2,13,,,,,,,,2,05,,,,,,,,,,,2,2.678,1,,,,,,-0.139322917,-0.248697917,1,0,0,2.6783,Basalt_rect,12,0,12,0,1,
65ff67c31641a4be4c903b68,TCR,2024-06-25_11h42.28.283,LearnStrategy,2023.2.3,Win32,59.88023952,6,2,14,,,,,,,,1,04,,,,,,,,,,,3,5.244,0,,,,,,0.173177083,-0.247395833,1,0,0,5.2439,Diorite_rect,13,0,13,0,1,
65ff67c31641a4be4c903b68,TCR,2024-06-25_11h42.28.283,LearnStrategy,2023.2.3,Win32,59.88023952,6,2,15,,,,,,,,1,02,,,,,,,,,,,4,3.463,0,,,,,,0.44140625,-0.248697917,1,0,0,3.4633,Gabbro_rect,14,0,14,0,1,
65ff67c31641a4be4c903b68,TCR,2024-06-25_11h42.28.283,LearnStrategy,2023.2.3,Win32,59.88023952,6,2,16,,,,,,,,2,16,,,,,,,,,,,4,3.317,0,,,,,,0.44140625,-0.25,1,0,0,3.3173,Gabbro_rect,15,0,15,0,1,
65ff67c31641a4be4c903b68,TCR,2024-06-25_11h42.28.283,LearnStrategy,2023.2.3,Win32,59.88023952,7,1,1,0.016927083,0.006510417,1,0,0,1.3747,rock_grid_rect_2,5,10,-1,-1,1.375,-0.415364583,-0.407552083,1,0,0,2.1017,Obsidian_rect,5,2.102,1,0,0,0,0,1,,,,,,,,,,,,,
65ff67c31641a4be4c903b68,TCR,2024-06-25_11h42.28.283,LearnStrategy,2023.2.3,Win32,59.88023952,7,1,2,0.010416667,-0.0234375,1,0,0,1.4056,rock_grid_rect_2,4,05,-1,-1,1.406,0.47265625,-0.2421875,1,0,0,4.9138,Gabbro_rect,4,4.914,1,1,0,1,0,1,,,,,,,,,,,,,
65ff67c31641a4be4c903b68,TCR,2024-06-25_11h42.28.283,LearnStrategy,2023.2.3,Win32,59.88023952,7,1,3,0.028645833,-0.002604167,1,0,0,1.3134,rock_grid_rect_2,4,16,-1,-1,1.313,0.391927083,-0.251302083,1,0,0,1.9535,Gabbro_rect,4,1.954,1,2,0,2,0,1,,,,,,,,,,,,,
65ff67c31641a4be4c903b68,TCR,2024-06-25_11h42.28.283,LearnStrategy,2023.2.3,Win32,59.88023952,7,1,4,0.01171875,-0.020833333,1,0,0,1.3135,rock_grid_rect_2,3,06,-1,-1,1.313,-0.3984375,-0.248697917,1,0,0,2.3537,Andesite_rect,1,2.354,0,3,0,3,0,1,,,,,,,,,,,,,
65ff67c31641a4be4c903b68,TCR,2024-06-25_11h42.28.283,LearnStrategy,2023.2.3,Win32,59.88023952,7,1,5,0.1171875,0.001302083,1,0,0,0.8819,rock_grid_rect_2,2,12,-1,-1,0.882,0.455729167,-0.240885417,1,0,0,2.0203,Gabbro_rect,4,2.02,0,4,0,4,0,1,,,,,,,,,,,,,
65ff67c31641a4be4c903b68,TCR,2024-06-25_11h42.28.283,LearnStrategy,2023.2.3,Win32,59.88023952,7,1,6,0.01953125,-0.001302083,1,0,0,1.101,rock_grid_rect_2,3,02,-1,-1,1.101,-0.375,-0.25,1,0,0,2.1029,Andesite_rect,1,2.103,0,5,0,5,0,1,,,,,,,,,,,,,
65ff67c31641a4be4c903b68,TCR,2024-06-25_11h42.28.283,LearnStrategy,2023.2.3,Win32,59.88023952,7,1,7,0.072916667,-0.015625,1,0,0,0.9636,rock_grid_rect_2,4,12,-1,-1,0.964,0.380208333,-0.236979167,1,0,0,1.39,Gabbro_rect,4,1.39,1,6,0,6,0,1,,,,,,,,,,,,,
65ff67c31641a4be4c903b68,TCR,2024-06-25_11h42.28.283,LearnStrategy,2023.2.3,Win32,59.88023952,7,1,8,0.006510417,-0.014322917,1,0,0,1.1688,rock_grid_rect_2,3,07,-1,-1,1.169,0.158854167,-0.255208333,1,0,0,3.9242,Diorite_rect,3,3.924,1,7,0,7,0,1,,,,,,,,,,,,,
65ff67c31641a4be4c903b68,TCR,2024-06-25_11h42.28.283,LearnStrategy,2023.2.3,Win32,59.88023952,7,1,9,0.059895833,-0.001302083,1,0,0,1.0473,rock_grid_rect_2,7,02,-1,-1,1.047,0.134114583,-0.411458333,1,0,0,1.8874,Peridotite_rect,7,1.887,1,8,0,8,0,1,,,,,,,,,,,,,
65ff67c31641a4be4c903b68,TCR,2024-06-25_11h42.28.283,LearnStrategy,2023.2.3,Win32,59.88023952,7,1,10,0.037760417,-0.010416667,1,0,0,1.17,rock_grid_rect_2,1,10,-1,-1,1.17,-0.41015625,-0.259114583,1,0,0,2.0288,Andesite_rect,1,2.029,1,9,0,9,0,1,,,,,,,,,,,,,
65ff67c31641a4be4c903b68,TCR,2024-06-25_11h42.28.283,LearnStrategy,2023.2.3,Win32,59.88023952,7,1,11,0.01953125,-0.005208333,1,0,0,1.0533,rock_grid_rect_2,6,10,-1,-1,1.053,-0.15625,-0.384114583,1,0,0,1.4141,Pegmatite_rect,6,1.414,1,10,0,10,0,1,,,,,,,,,,,,,
65ff67c31641a4be4c903b68,TCR,2024-06-25_11h42.28.283,LearnStrategy,2023.2.3,Win32,59.88023952,7,1,12,0.037760417,-0.013020833,1,0,0,1.583,rock_grid_rect_2,4,10,-1,-1,1.583,0.44921875,-0.260416667,1,0,0,4.7766,Gabbro_rect,4,4.777,1,11,0,11,0,1,,,,,,,,,,,,,
65ff67c31641a4be4c903b68,TCR,2024-06-25_11h42.28.283,LearnStrategy,2023.2.3,Win32,59.88023952,7,1,13,-0.009114583,0.01953125,1,0,0,1.1693,rock_grid_rect_2,2,04,-1,-1,1.169,-0.1484375,-0.235677083,1,0,0,1.3137,Basalt_rect,2,1.314,1,12,0,12,0,1,,,,,,,,,,,,,
65ff67c31641a4be4c903b68,TCR,2024-06-25_11h42.28.283,LearnStrategy,2023.2.3,Win32,59.88023952,7,1,14,0.010416667,-0.018229167,1,0,0,1.2199,rock_grid_rect_2,1,10,-1,-1,1.22,-0.356770833,-0.251302083,1,0,0,3.2005,Andesite_rect,1,3.2,1,13,0,13,0,1,,,,,,,,,,,,,
65ff67c31641a4be4c903b68,TCR,2024-06-25_11h42.28.283,LearnStrategy,2023.2.3,Win32,59.88023952,7,1,15,-0.002604167,0.00390625,1,0,0,1.0623,rock_grid_rect_2,1,01,-1,-1,1.062,0.1328125,-0.264322917,1,0,0,1.3226,Diorite_rect,3,1.323,0,14,0,14,0,1,,,,,,,,,,,,,
65ff67c31641a4be4c903b68,TCR,2024-06-25_11h42.28.283,LearnStrategy,2023.2.3,Win32,59.88023952,7,1,16,-0.05859375,-0.009114583,1,0,0,1.0287,rock_grid_rect_2,7,15,-1,-1,1.029,0.126302083,-0.412760417,1,0,0,1.982,Peridotite_rect,7,1.982,1,15,0,15,0,1,,,,,,,,,,,,,
65ff67c31641a4be4c903b68,TCR,2024-06-25_11h42.28.283,LearnStrategy,2023.2.3,Win32,59.88023952,7,2,1,,,,,,,,8,08,,,,,,,,,,,8,1.338,1,,,,,,0.369791667,-0.388020833,1,0,0,1.3381,Pumice_rect,0,0,0,0,1,
65ff67c31641a4be4c903b68,TCR,2024-06-25_11h42.28.283,LearnStrategy,2023.2.3,Win32,59.88023952,7,2,2,,,,,,,,2,10,,,,,,,,,,,2,10.015,1,,,,,,-0.125,-0.248697917,1,0,0,10.0154,Basalt_rect,1,0,1,0,1,
65ff67c31641a4be4c903b68,TCR,2024-06-25_11h42.28.283,LearnStrategy,2023.2.3,Win32,59.88023952,7,2,3,,,,,,,,4,11,,,,,,,,,,,1,3.659,0,,,,,,-0.4375,-0.260416667,1,0,0,3.6587,Andesite_rect,2,0,2,0,1,
65ff67c31641a4be4c903b68,TCR,2024-06-25_11h42.28.283,LearnStrategy,2023.2.3,Win32,59.88023952,7,2,4,,,,,,,,4,13,,,,,,,,,,,3,13.306,0,,,,,,0.204427083,-0.26171875,1,0,0,13.3057,Diorite_rect,3,0,3,0,1,
65ff67c31641a4be4c903b68,TCR,2024-06-25_11h42.28.283,LearnStrategy,2023.2.3,Win32,59.88023952,7,2,5,,,,,,,,7,14,,,,,,,,,,,1,5.757,0,,,,,,-0.4453125,-0.239583333,1,0,0,5.7572,Andesite_rect,4,0,4,0,1,
65ff67c31641a4be4c903b68,TCR,2024-06-25_11h42.28.283,LearnStrategy,2023.2.3,Win32,59.88023952,7,2,6,,,,,,,,1,05,,,,,,,,,,,3,1.937,0,,,,,,0.106770833,-0.233072917,1,0,0,1.9368,Diorite_rect,5,0,5,0,1,
65ff67c31641a4be4c903b68,TCR,2024-06-25_11h42.28.283,LearnStrategy,2023.2.3,Win32,59.88023952,7,2,7,,,,,,,,2,02,,,,,,,,,,,2,4.91,1,,,,,,-0.177083333,-0.24609375,1,0,0,4.9102,Basalt_rect,6,0,6,0,1,
65ff67c31641a4be4c903b68,TCR,2024-06-25_11h42.28.283,LearnStrategy,2023.2.3,Win32,59.88023952,7,2,8,,,,,,,,5,04,,,,,,,,,,,5,1.394,1,,,,,,-0.3984375,-0.401041667,1,0,0,1.3944,Obsidian_rect,7,0,7,0,1,
65ff67c31641a4be4c903b68,TCR,2024-06-25_11h42.28.283,LearnStrategy,2023.2.3,Win32,59.88023952,7,2,9,,,,,,,,3,09,,,,,,,,,,,3,1.35,1,,,,,,0.174479167,-0.252604167,1,0,0,1.35,Diorite_rect,8,0,8,0,1,
65ff67c31641a4be4c903b68,TCR,2024-06-25_11h42.28.283,LearnStrategy,2023.2.3,Win32,59.88023952,7,2,10,,,,,,,,7,13,,,,,,,,,,,7,2.472,1,,,,,,0.134114583,-0.3828125,1,0,0,2.472,Peridotite_rect,9,0,9,0,1,
65ff67c31641a4be4c903b68,TCR,2024-06-25_11h42.28.283,LearnStrategy,2023.2.3,Win32,59.88023952,7,2,11,,,,,,,,5,02,,,,,,,,,,,5,1.136,1,,,,,,-0.375,-0.41015625,1,0,0,1.1362,Obsidian_rect,10,0,10,0,1,
65ff67c31641a4be4c903b68,TCR,2024-06-25_11h42.28.283,LearnStrategy,2023.2.3,Win32,59.88023952,7,2,12,,,,,,,,1,02,,,,,,,,,,,3,2.719,0,,,,,,0.122395833,-0.234375,1,0,0,2.719,Diorite_rect,11,0,11,0,1,
65ff67c31641a4be4c903b68,TCR,2024-06-25_11h42.28.283,LearnStrategy,2023.2.3,Win32,59.88023952,7,2,13,,,,,,,,3,13,,,,,,,,,,,3,2.294,1,,,,,,0.122395833,-0.234375,1,0,0,2.2936,Diorite_rect,12,0,12,0,1,
65ff67c31641a4be4c903b68,TCR,2024-06-25_11h42.28.283,LearnStrategy,2023.2.3,Win32,59.88023952,7,2,14,,,,,,,,6,03,,,,,,,,,,,6,1.232,1,,,,,,-0.151041667,-0.411458333,1,0,0,1.2324,Pegmatite_rect,13,0,13,0,1,
65ff67c31641a4be4c903b68,TCR,2024-06-25_11h42.28.283,LearnStrategy,2023.2.3,Win32,59.88023952,7,2,15,,,,,,,,8,15,,,,,,,,,,,8,1.373,1,,,,,,0.415364583,-0.385416667,1,0,0,1.3732,Pumice_rect,14,0,14,0,1,
65ff67c31641a4be4c903b68,TCR,2024-06-25_11h42.28.283,LearnStrategy,2023.2.3,Win32,59.88023952,7,2,16,,,,,,,,6,08,,,,,,,,,,,6,1.283,1,,,,,,-0.19921875,-0.401041667,1,0,0,1.2833,Pegmatite_rect,15,0,15,0,1,
65ff67c31641a4be4c903b68,TCR,2024-06-25_11h42.28.283,LearnStrategy,2023.2.3,Win32,59.88023952,8,1,1,-0.09765625,0.014322917,1,0,0,1.1164,rock_grid_rect_2,2,14,-1,-1,1.116,0.384114583,-0.23828125,1,0,0,2.1222,Gabbro_rect,4,2.122,0,0,0,0,0,1,,,,,,,,,,,,,
65ff67c31641a4be4c903b68,TCR,2024-06-25_11h42.28.283,LearnStrategy,2023.2.3,Win32,59.88023952,8,1,2,0.029947917,-0.002604167,1,0,0,1.2447,rock_grid_rect_2,4,01,-1,-1,1.245,-0.423177083,-0.255208333,1,0,0,2.0862,Andesite_rect,1,2.086,0,1,0,1,0,1,,,,,,,,,,,,,
65ff67c31641a4be4c903b68,TCR,2024-06-25_11h42.28.283,LearnStrategy,2023.2.3,Win32,59.88023952,8,1,3,-0.057291667,-0.015625,1,0,0,1.0194,rock_grid_rect_2,3,02,-1,-1,1.019,0.139322917,-0.251302083,1,0,0,2.6262,Diorite_rect,3,2.626,1,2,0,2,0,1,,,,,,,,,,,,,
65ff67c31641a4be4c903b68,TCR,2024-06-25_11h42.28.283,LearnStrategy,2023.2.3,Win32,59.88023952,8,1,4,0.037760417,0.0078125,1,0,0,1.0539,rock_grid_rect_2,1,01,-1,-1,1.054,0.096354167,-0.2578125,1,0,0,6.2024,Diorite_rect,3,6.202,0,3,0,3,0,1,,,,,,,,,,,,,
65ff67c31641a4be4c903b68,TCR,2024-06-25_11h42.28.283,LearnStrategy,2023.2.3,Win32,59.88023952,8,1,5,0.040364583,-0.01953125,1,0,0,1.1306,rock_grid_rect_2,4,14,-1,-1,1.131,-0.415364583,-0.251302083,1,0,0,2.0799,Andesite_rect,1,2.08,0,4,0,4,0,1,,,,,,,,,,,,,
65ff67c31641a4be4c903b68,TCR,2024-06-25_11h42.28.283,LearnStrategy,2023.2.3,Win32,59.88023952,8,1,6,-0.02734375,-0.001302083,1,0,0,2.5671,rock_grid_rect_2,4,16,-1,-1,2.567,0.455729167,-0.263020833,1,0,0,1.7253,Gabbro_rect,4,1.725,1,5,0,5,0,1,,,,,,,,,,,,,
65ff67c31641a4be4c903b68,TCR,2024-06-25_11h42.28.283,LearnStrategy,2023.2.3,Win32,59.88023952,8,1,7,-0.0390625,-0.005208333,1,0,0,1.1872,rock_grid_rect_2,6,10,-1,-1,1.187,-0.108072917,-0.38671875,1,0,0,1.4977,Pegmatite_rect,6,1.498,1,6,0,6,0,1,,,,,,,,,,,,,
65ff67c31641a4be4c903b68,TCR,2024-06-25_11h42.28.283,LearnStrategy,2023.2.3,Win32,59.88023952,8,1,8,-0.001302083,0.014322917,1,0,0,1.3062,rock_grid_rect_2,3,16,-1,-1,1.306,-0.34765625,-0.2578125,1,0,0,3.5549,Andesite_rect,1,3.555,0,7,0,7,0,1,,,,,,,,,,,,,
65ff67c31641a4be4c903b68,TCR,2024-06-25_11h42.28.283,LearnStrategy,2023.2.3,Win32,59.88023952,8,1,9,-0.029947917,-0.002604167,1,0,0,1.4361,rock_grid_rect_2,1,14,-1,-1,1.436,-0.35546875,-0.231770833,1,0,0,1.3708,Andesite_rect,1,1.371,1,8,0,8,0,1,,,,,,,,,,,,,
65ff67c31641a4be4c903b68,TCR,2024-06-25_11h42.28.283,LearnStrategy,2023.2.3,Win32,59.88023952,8,1,10,-0.05078125,-0.005208333,1,0,0,1.0637,rock_grid_rect_2,5,09,-1,-1,1.064,-0.34765625,-0.404947917,1,0,0,1.3185,Obsidian_rect,5,1.319,1,9,0,9,0,1,,,,,,,,,,,,,
65ff67c31641a4be4c903b68,TCR,2024-06-25_11h42.28.283,LearnStrategy,2023.2.3,Win32,59.88023952,8,1,11,-0.0078125,-0.00390625,1,0,0,1.3718,rock_grid_rect_2,7,10,-1,-1,1.372,0.17578125,-0.395833333,1,0,0,2.1408,Peridotite_rect,7,2.141,1,10,0,10,0,1,,,,,,,,,,,,,
65ff67c31641a4be4c903b68,TCR,2024-06-25_11h42.28.283,LearnStrategy,2023.2.3,Win32,59.88023952,8,1,12,-0.01953125,0.01171875,1,0,0,1.7251,rock_grid_rect_2,7,15,-1,-1,1.725,0.108072917,-0.381510417,1,0,0,1.6138,Peridotite_rect,7,1.614,1,11,0,11,0,1,,,,,,,,,,,,,
65ff67c31641a4be4c903b68,TCR,2024-06-25_11h42.28.283,LearnStrategy,2023.2.3,Win32,59.88023952,8,1,13,0.032552083,-0.005208333,1,0,0,1.2572,rock_grid_rect_2,1,01,-1,-1,1.257,0.141927083,-0.26953125,1,0,0,8.8757,Diorite_rect,3,8.876,0,12,0,12,0,1,,,,,,,,,,,,,
65ff67c31641a4be4c903b68,TCR,2024-06-25_11h42.28.283,LearnStrategy,2023.2.3,Win32,59.88023952,8,1,14,0.018229167,-0.01953125,1,0,0,1.0704,rock_grid_rect_2,1,10,-1,-1,1.07,-0.391927083,-0.252604167,1,0,0,2.3695,Andesite_rect,1,2.37,1,13,0,13,0,1,,,,,,,,,,,,,
65ff67c31641a4be4c903b68,TCR,2024-06-25_11h42.28.283,LearnStrategy,2023.2.3,Win32,59.88023952,8,1,15,-0.055989583,-0.0078125,1,0,0,1.9145,rock_grid_rect_2,4,14,-1,-1,1.915,0.399739583,-0.247395833,1,0,0,2.0879,Gabbro_rect,4,2.088,1,14,0,14,0,1,,,,,,,,,,,,,
65ff67c31641a4be4c903b68,TCR,2024-06-25_11h42.28.283,LearnStrategy,2023.2.3,Win32,59.88023952,8,1,16,0.016927083,-0.020833333,1,0,0,1.1139,rock_grid_rect_2,7,06,-1,-1,1.114,0.1171875,-0.408854167,1,0,0,2.8627,Peridotite_rect,7,2.863,1,15,0,15,0,1,,,,,,,,,,,,,
65ff67c31641a4be4c903b68,TCR,2024-06-25_11h42.28.283,LearnStrategy,2023.2.3,Win32,59.88023952,8,2,1,,,,,,,,7,16,,,,,,,,,,,3,26.309,0,,,,,,0.100260417,-0.2578125,1,0,0,26.3095,Diorite_rect,0,0,0,0,1,
65ff67c31641a4be4c903b68,TCR,2024-06-25_11h42.28.283,LearnStrategy,2023.2.3,Win32,59.88023952,8,2,2,,,,,,,,4,03,,,,,,,,,,,1,4.085,0,,,,,,-0.438802083,-0.2421875,1,0,0,4.0853,Andesite_rect,1,0,1,0,1,
65ff67c31641a4be4c903b68,TCR,2024-06-25_11h42.28.283,LearnStrategy,2023.2.3,Win32,59.88023952,8,2,3,,,,,,,,6,15,,,,,,,,,,,6,1.686,1,,,,,,-0.166666667,-0.407552083,1,0,0,1.6858,Pegmatite_rect,2,0,2,0,1,
65ff67c31641a4be4c903b68,TCR,2024-06-25_11h42.28.283,LearnStrategy,2023.2.3,Win32,59.88023952,8,2,4,,,,,,,,2,16,,,,,,,,,,,4,2.088,0,,,,,,0.411458333,-0.270833333,1,0,0,2.0881,Gabbro_rect,3,0,3,0,1,
65ff67c31641a4be4c903b68,TCR,2024-06-25_11h42.28.283,LearnStrategy,2023.2.3,Win32,59.88023952,8,2,5,,,,,,,,7,08,,,,,,,,,,,7,2.713,1,,,,,,0.171875,-0.40234375,1,0,0,2.7129,Peridotite_rect,4,0,4,0,1,
65ff67c31641a4be4c903b68,TCR,2024-06-25_11h42.28.283,LearnStrategy,2023.2.3,Win32,59.88023952,8,2,6,,,,,,,,5,08,,,,,,,,,,,5,1.466,1,,,,,,-0.388020833,-0.404947917,1,0,0,1.4657,Obsidian_rect,5,0,5,0,1,
65ff67c31641a4be4c903b68,TCR,2024-06-25_11h42.28.283,LearnStrategy,2023.2.3,Win32,59.88023952,8,2,7,,,,,,,,3,15,,,,,,,,,,,3,2.418,1,,,,,,0.149739583,-0.264322917,1,0,0,2.418,Diorite_rect,6,0,6,0,1,
65ff67c31641a4be4c903b68,TCR,2024-06-25_11h42.28.283,LearnStrategy,2023.2.3,Win32,59.88023952,8,2,8,,,,,,,,8,16,,,,,,,,,,,8,1.522,1,,,,,,0.3125,-0.380208333,1,0,0,1.5222,Pumice_rect,7,0,7,0,1,
65ff67c31641a4be4c903b68,TCR,2024-06-25_11h42.28.283,LearnStrategy,2023.2.3,Win32,59.88023952,8,2,9,,,,,,,,5,11,,,,,,,,,,,5,1.45,1,,,,,,-0.313802083,-0.3828125,1,0,0,1.4505,Obsidian_rect,8,0,8,0,1,
65ff67c31641a4be4c903b68,TCR,2024-06-25_11h42.28.283,LearnStrategy,2023.2.3,Win32,59.88023952,8,2,10,,,,,,,,2,08,,,,,,,,,,,2,2.272,1,,,,,,-0.153645833,-0.26171875,1,0,0,2.2723,Basalt_rect,9,0,9,0,1,
65ff67c31641a4be4c903b68,TCR,2024-06-25_11h42.28.283,LearnStrategy,2023.2.3,Win32,59.88023952,8,2,11,,,,,,,,1,06,,,,,,,,,,,1,2.036,1,,,,,,-0.3671875,-0.26953125,1,0,0,2.0364,Andesite_rect,10,0,10,0,1,
65ff67c31641a4be4c903b68,TCR,2024-06-25_11h42.28.283,LearnStrategy,2023.2.3,Win32,59.88023952,8,2,12,,,,,,,,3,10,,,,,,,,,,,1,2.377,0,,,,,,-0.3359375,-0.244791667,1,0,0,2.3768,Andesite_rect,11,0,11,0,1,
65ff67c31641a4be4c903b68,TCR,2024-06-25_11h42.28.283,LearnStrategy,2023.2.3,Win32,59.88023952,8,2,13,,,,,,,,8,02,,,,,,,,,,,8,1.272,1,,,,,,0.391927083,-0.40234375,1,0,0,1.2723,Pumice_rect,12,0,12,0,1,
65ff67c31641a4be4c903b68,TCR,2024-06-25_11h42.28.283,LearnStrategy,2023.2.3,Win32,59.88023952,8,2,14,,,,,,,,1,04,,,,,,,,,,,3,2.407,0,,,,,,0.083333333,-0.252604167,1,0,0,2.4072,Diorite_rect,13,0,13,0,1,
65ff67c31641a4be4c903b68,TCR,2024-06-25_11h42.28.283,LearnStrategy,2023.2.3,Win32,59.88023952,8,2,15,,,,,,,,4,09,,,,,,,,,,,2,5.683,0,,,,,,-0.14453125,-0.244791667,1,0,0,5.6826,Basalt_rect,14,0,14,0,1,
65ff67c31641a4be4c903b68,TCR,2024-06-25_11h42.28.283,LearnStrategy,2023.2.3,Win32,59.88023952,8,2,16,,,,,,,,6,05,,,,,,,,,,,5,12.343,0,,,,,,-0.346354167,-0.380208333,1,0,0,12.3426,Obsidian_rect,15,0,15,0,1,
65ff67c31641a4be4c903b68,TCR,2024-06-25_11h42.28.283,LearnStrategy,2023.2.3,Win32,59.88023952,9,1,1,0.015625,0.013020833,1,0,0,1.4069,rock_grid_rect_2,6,12,-1,-1,1.407,0.096354167,-0.234375,1,0,0,2.9011,Diorite_rect,3,2.901,0,0,0,0,0,1,,,,,,,,,,,,,
65ff67c31641a4be4c903b68,TCR,2024-06-25_11h42.28.283,LearnStrategy,2023.2.3,Win32,59.88023952,9,1,2,-0.014322917,-0.00390625,1,0,0,1.2107,rock_grid_rect_2,3,16,-1,-1,1.211,0.115885417,-0.244791667,1,0,0,1.5143,Diorite_rect,3,1.514,1,1,0,1,0,1,,,,,,,,,,,,,
65ff67c31641a4be4c903b68,TCR,2024-06-25_11h42.28.283,LearnStrategy,2023.2.3,Win32,59.88023952,9,1,3,-0.018229167,-0.009114583,1,0,0,1.0409,rock_grid_rect_2,3,07,-1,-1,1.041,0.135416667,-0.248697917,1,0,0,1.5903,Diorite_rect,3,1.59,1,2,0,2,0,1,,,,,,,,,,,,,
65ff67c31641a4be4c903b68,TCR,2024-06-25_11h42.28.283,LearnStrategy,2023.2.3,Win32,59.88023952,9,1,4,0.015625,0.016927083,1,0,0,1.0113,rock_grid_rect_2,2,01,-1,-1,1.011,0.358072917,-0.239583333,1,0,0,2.1125,Gabbro_rect,4,2.112,0,3,0,3,0,1,,,,,,,,,,,,,
65ff67c31641a4be4c903b68,TCR,2024-06-25_11h42.28.283,LearnStrategy,2023.2.3,Win32,59.88023952,9,1,5,0.04296875,-0.01171875,1,0,0,1.0678,rock_grid_rect_2,4,12,-1,-1,1.068,-0.436197917,-0.243489583,1,0,0,1.7888,Andesite_rect,1,1.789,0,4,0,4,0,1,,,,,,,,,,,,,
65ff67c31641a4be4c903b68,TCR,2024-06-25_11h42.28.283,LearnStrategy,2023.2.3,Win32,59.88023952,9,1,6,-0.002604167,-0.016927083,1,0,0,1.0043,rock_grid_rect_2,7,06,-1,-1,1.004,0.109375,-0.411458333,1,0,0,1.7687,Peridotite_rect,7,1.769,1,5,0,5,0,1,,,,,,,,,,,,,
65ff67c31641a4be4c903b68,TCR,2024-06-25_11h42.28.283,LearnStrategy,2023.2.3,Win32,59.88023952,9,1,7,0.010416667,0.00390625,1,0,0,1.1365,rock_grid_rect_2,1,14,-1,-1,1.137,-0.45703125,-0.26171875,1,0,0,7.1847,Andesite_rect,1,7.185,1,6,0,6,0,1,,,,,,,,,,,,,
65ff67c31641a4be4c903b68,TCR,2024-06-25_11h42.28.283,LearnStrategy,2023.2.3,Win32,59.88023952,9,1,8,0.022135417,0.006510417,1,0,0,1.1209,rock_grid_rect_2,5,06,-1,-1,1.121,-0.438802083,-0.395833333,1,0,0,1.545,Obsidian_rect,5,1.545,1,7,0,7,0,1,,,,,,,,,,,,,
65ff67c31641a4be4c903b68,TCR,2024-06-25_11h42.28.283,LearnStrategy,2023.2.3,Win32,59.88023952,9,1,9,0.0703125,-0.005208333,1,0,0,1.2117,rock_grid_rect_2,2,12,-1,-1,1.212,0.352864583,-0.391927083,1,0,0,2.9863,Pumice_rect,8,2.986,0,8,0,8,0,1,,,,,,,,,,,,,
65ff67c31641a4be4c903b68,TCR,2024-06-25_11h42.28.283,LearnStrategy,2023.2.3,Win32,59.88023952,9,1,10,0.092447917,-0.006510417,1,0,0,1.1635,rock_grid_rect_2,7,02,-1,-1,1.164,0.114583333,-0.389322917,1,0,0,1.6741,Peridotite_rect,7,1.674,1,9,0,9,0,1,,,,,,,,,,,,,
65ff67c31641a4be4c903b68,TCR,2024-06-25_11h42.28.283,LearnStrategy,2023.2.3,Win32,59.88023952,9,1,11,0.076822917,-0.015625,1,0,0,1.4394,rock_grid_rect_2,4,05,-1,-1,1.439,-0.385416667,-0.265625,1,0,0,4.5339,Andesite_rect,1,4.534,0,10,0,10,0,1,,,,,,,,,,,,,
65ff67c31641a4be4c903b68,TCR,2024-06-25_11h42.28.283,LearnStrategy,2023.2.3,Win32,59.88023952,9,1,12,-0.016927083,-0.002604167,1,0,0,1.0258,rock_grid_rect_2,4,12,-1,-1,1.026,0.401041667,-0.239583333,1,0,0,1.6398,Gabbro_rect,4,1.64,1,11,0,11,0,1,,,,,,,,,,,,,
65ff67c31641a4be4c903b68,TCR,2024-06-25_11h42.28.283,LearnStrategy,2023.2.3,Win32,59.88023952,9,1,13,-0.005208333,-0.010416667,1,0,0,1.151,rock_grid_rect_2,1,03,-1,-1,1.151,-0.42578125,-0.243489583,1,0,0,3.7238,Andesite_rect,1,3.724,1,12,0,12,0,1,,,,,,,,,,,,,
65ff67c31641a4be4c903b68,TCR,2024-06-25_11h42.28.283,LearnStrategy,2023.2.3,Win32,59.88023952,9,1,14,0.046875,-0.01171875,1,0,0,1.2042,rock_grid_rect_2,8,09,-1,-1,1.204,0.404947917,-0.412760417,1,0,0,1.9701,Pumice_rect,8,1.97,1,13,0,13,0,1,,,,,,,,,,,,,
65ff67c31641a4be4c903b68,TCR,2024-06-25_11h42.28.283,LearnStrategy,2023.2.3,Win32,59.88023952,9,1,15,0.05078125,-0.018229167,1,0,0,1.2055,rock_grid_rect_2,1,16,-1,-1,1.206,0.13671875,-0.259114583,1,0,0,2.2484,Diorite_rect,3,2.248,0,14,0,14,0,1,,,,,,,,,,,,,
65ff67c31641a4be4c903b68,TCR,2024-06-25_11h42.28.283,LearnStrategy,2023.2.3,Win32,59.88023952,9,1,16,-0.059895833,-0.006510417,1,0,0,0.9472,rock_grid_rect_2,4,14,-1,-1,0.947,0.377604167,-0.231770833,1,0,0,2.702,Gabbro_rect,4,2.702,1,15,0,15,0,1,,,,,,,,,,,,,
65ff67c31641a4be4c903b68,TCR,2024-06-25_11h42.28.283,LearnStrategy,2023.2.3,Win32,59.88023952,9,2,1,,,,,,,,2,05,,,,,,,,,,,2,1.582,1,,,,,,-0.106770833,-0.233072917,1,0,0,1.5819,Basalt_rect,0,0,0,0,1,
65ff67c31641a4be4c903b68,TCR,2024-06-25_11h42.28.283,LearnStrategy,2023.2.3,Win32,59.88023952,9,2,2,,,,,,,,6,09,,,,,,,,,,,6,4.515,1,,,,,,-0.104166667,-0.399739583,1,0,0,4.5152,Pegmatite_rect,1,0,1,0,1,
65ff67c31641a4be4c903b68,TCR,2024-06-25_11h42.28.283,LearnStrategy,2023.2.3,Win32,59.88023952,9,2,3,,,,,,,,2,11,,,,,,,,,,,8,13.72,0,,,,,,0.444010417,-0.399739583,1,0,0,13.7201,Pumice_rect,2,0,2,0,1,
65ff67c31641a4be4c903b68,TCR,2024-06-25_11h42.28.283,LearnStrategy,2023.2.3,Win32,59.88023952,9,2,4,,,,,,,,8,04,,,,,,,,,,,8,2.293,1,,,,,,0.399739583,-0.390625,1,0,0,2.2932,Pumice_rect,3,0,3,0,1,
65ff67c31641a4be4c903b68,TCR,2024-06-25_11h42.28.283,LearnStrategy,2023.2.3,Win32,59.88023952,9,2,5,,,,,,,,5,16,,,,,,,,,,,5,1.45,1,,,,,,-0.3828125,-0.391927083,1,0,0,1.4498,Obsidian_rect,4,0,4,0,1,
65ff67c31641a4be4c903b68,TCR,2024-06-25_11h42.28.283,LearnStrategy,2023.2.3,Win32,59.88023952,9,2,6,,,,,,,,6,13,,,,,,,,,,,6,6.23,1,,,,,,-0.122395833,-0.389322917,1,0,0,6.2298,Pegmatite_rect,5,0,5,0,1,
65ff67c31641a4be4c903b68,TCR,2024-06-25_11h42.28.283,LearnStrategy,2023.2.3,Win32,59.88023952,9,2,7,,,,,,,,1,11,,,,,,,,,,,3,7.281,0,,,,,,0.092447917,-0.255208333,1,0,0,7.2813,Diorite_rect,6,0,6,0,1,
65ff67c31641a4be4c903b68,TCR,2024-06-25_11h42.28.283,LearnStrategy,2023.2.3,Win32,59.88023952,9,2,8,,,,,,,,5,12,,,,,,,,,,,5,1.469,1,,,,,,-0.38671875,-0.407552083,1,0,0,1.4694,Obsidian_rect,7,0,7,0,1,
65ff67c31641a4be4c903b68,TCR,2024-06-25_11h42.28.283,LearnStrategy,2023.2.3,Win32,59.88023952,9,2,9,,,,,,,,7,07,,,,,,,,,,,7,1.562,1,,,,,,0.125,-0.40625,1,0,0,1.5618,Peridotite_rect,8,0,8,0,1,
65ff67c31641a4be4c903b68,TCR,2024-06-25_11h42.28.283,LearnStrategy,2023.2.3,Win32,59.88023952,9,2,10,,,,,,,,7,12,,,,,,,,,,,3,1.934,0,,,,,,0.1171875,-0.25390625,1,0,0,1.9339,Diorite_rect,9,0,9,0,1,
65ff67c31641a4be4c903b68,TCR,2024-06-25_11h42.28.283,LearnStrategy,2023.2.3,Win32,59.88023952,9,2,11,,,,,,,,3,12,,,,,,,,,,,3,2.385,1,,,,,,0.1171875,-0.25390625,1,0,0,2.3849,Diorite_rect,10,0,10,0,1,
65ff67c31641a4be4c903b68,TCR,2024-06-25_11h42.28.283,LearnStrategy,2023.2.3,Win32,59.88023952,9,2,12,,,,,,,,4,08,,,,,,,,,,,2,2.67,0,,,,,,-0.130208333,-0.26171875,1,0,0,2.6703,Basalt_rect,11,0,11,0,1,
65ff67c31641a4be4c903b68,TCR,2024-06-25_11h42.28.283,LearnStrategy,2023.2.3,Win32,59.88023952,9,2,13,,,,,,,,8,05,,,,,,,,,,,8,1.36,1,,,,,,0.39453125,-0.393229167,1,0,0,1.36,Pumice_rect,12,0,12,0,1,
65ff67c31641a4be4c903b68,TCR,2024-06-25_11h42.28.283,LearnStrategy,2023.2.3,Win32,59.88023952,9,2,14,,,,,,,,4,15,,,,,,,,,,,4,1.333,1,,,,,,0.421875,-0.265625,1,0,0,1.333,Gabbro_rect,13,0,13,0,1,
65ff67c31641a4be4c903b68,TCR,2024-06-25_11h42.28.283,LearnStrategy,2023.2.3,Win32,59.88023952,9,2,15,,,,,,,,3,14,,,,,,,,,,,3,1.815,1,,,,,,0.1328125,-0.247395833,1,0,0,1.8151,Diorite_rect,14,0,14,0,1,
65ff67c31641a4be4c903b68,TCR,2024-06-25_11h42.28.283,LearnStrategy,2023.2.3,Win32,59.88023952,9,2,16,,,,,,,,1,07,,,,,,,,,,,3,2.627,0,,,,,,0.171875,-0.247395833,1,0,0,2.6266,Diorite_rect,15,0,15,0,1,
65ff67c31641a4be4c903b68,TCR,2024-06-25_11h42.28.283,LearnStrategy,2023.2.3,Win32,59.88023952,,,,,,,,,,,,,,,,,,,,,,,,,,,,,,,,,,,,,,,,,,,0
65ff67c31641a4be4c903b68,TCR,2024-06-25_11h42.28.283,LearnStrategy,2023.2.3,Win32,59.88023952,,,,,,,,,,,,,,,,,,,,,,,,,,,,,,,,,,,,,,,,,,,
65ff67c31641a4be4c903b68,TCR,2024-06-25_11h42.28.283,LearnStrategy,2023.2.3,Win32,59.88023952,,,,,,,,,,,2,09,1,1,,,,,,,,,,,,,,,,,,,,,,,,,,,,,
65ff67c31641a4be4c903b68,TCR,2024-06-25_11h42.28.283,LearnStrategy,2023.2.3,Win32,59.88023952,,,,,,,,,,,6,12,1,2,,,,,,,,,,,,,,,,,,,,,,,,,,,,,
65ff67c31641a4be4c903b68,TCR,2024-06-25_11h42.28.283,LearnStrategy,2023.2.3,Win32,59.88023952,,,,,,,,,,,3,08,1,3,,,,,,,,,,,,,,,,,,,,,,,,,,,,,
65ff67c31641a4be4c903b68,TCR,2024-06-25_11h42.28.283,LearnStrategy,2023.2.3,Win32,59.88023952,,,,,,,,,,,4,16,1,4,,,,,,,,,,,,,,,,,,,,,,,,,,,,,
65ff67c31641a4be4c903b68,TCR,2024-06-25_11h42.28.283,LearnStrategy,2023.2.3,Win32,59.88023952,,,,,,,,,,,4,01,1,5,,,,,,,,,,,,,,,,,,,,,,,,,,,,,
65ff67c31641a4be4c903b68,TCR,2024-06-25_11h42.28.283,LearnStrategy,2023.2.3,Win32,59.88023952,,,,,,,,,,,3,07,1,6,,,,,,,,,,,,,,,,,,,,,,,,,,,,,
65ff67c31641a4be4c903b68,TCR,2024-06-25_11h42.28.283,LearnStrategy,2023.2.3,Win32,59.88023952,,,,,,,,,,,8,03,1,7,,,,,,,,,,,,,,,,,,,,,,,,,,,,,
65ff67c31641a4be4c903b68,TCR,2024-06-25_11h42.28.283,LearnStrategy,2023.2.3,Win32,59.88023952,,,,,,,,,,,4,12,1,8,,,,,,,,,,,,,,,,,,,,,,,,,,,,,
65ff67c31641a4be4c903b68,TCR,2024-06-25_11h42.28.283,LearnStrategy,2023.2.3,Win32,59.88023952,,,,,,,,,,,7,05,2,1,,,,,,,,,,,,,,,,,,,,,,,,,,,,,
65ff67c31641a4be4c903b68,TCR,2024-06-25_11h42.28.283,LearnStrategy,2023.2.3,Win32,59.88023952,,,,,,,,,,,1,09,2,2,,,,,,,,,,,,,,,,,,,,,,,,,,,,,
65ff67c31641a4be4c903b68,TCR,2024-06-25_11h42.28.283,LearnStrategy,2023.2.3,Win32,59.88023952,,,,,,,,,,,6,07,2,3,,,,,,,,,,,,,,,,,,,,,,,,,,,,,
65ff67c31641a4be4c903b68,TCR,2024-06-25_11h42.28.283,LearnStrategy,2023.2.3,Win32,59.88023952,,,,,,,,,,,8,10,2,4,,,,,,,,,,,,,,,,,,,,,,,,,,,,,
65ff67c31641a4be4c903b68,TCR,2024-06-25_11h42.28.283,LearnStrategy,2023.2.3,Win32,59.88023952,,,,,,,,,,,7,04,2,5,,,,,,,,,,,,,,,,,,,,,,,,,,,,,
65ff67c31641a4be4c903b68,TCR,2024-06-25_11h42.28.283,LearnStrategy,2023.2.3,Win32,59.88023952,,,,,,,,,,,6,10,2,6,,,,,,,,,,,,,,,,,,,,,,,,,,,,,
65ff67c31641a4be4c903b68,TCR,2024-06-25_11h42.28.283,LearnStrategy,2023.2.3,Win32,59.88023952,,,,,,,,,,,1,14,2,7,,,,,,,,,,,,,,,,,,,,,,,,,,,,,
65ff67c31641a4be4c903b68,TCR,2024-06-25_11h42.28.283,LearnStrategy,2023.2.3,Win32,59.88023952,,,,,,,,,,,5,09,2,8,,,,,,,,,,,,,,,,,,,,,,,,,,,,,
65ff67c31641a4be4c903b68,TCR,2024-06-25_11h42.28.283,LearnStrategy,2023.2.3,Win32,59.88023952,,,,,,,,,,,1,10,3,1,,,,,,,,,,,,,,,,,,,,,,,,,,,,,
65ff67c31641a4be4c903b68,TCR,2024-06-25_11h42.28.283,LearnStrategy,2023.2.3,Win32,59.88023952,,,,,,,,,,,1,01,3,2,,,,,,,,,,,,,,,,,,,,,,,,,,,,,
65ff67c31641a4be4c903b68,TCR,2024-06-25_11h42.28.283,LearnStrategy,2023.2.3,Win32,59.88023952,,,,,,,,,,,5,10,3,3,,,,,,,,,,,,,,,,,,,,,,,,,,,,,
65ff67c31641a4be4c903b68,TCR,2024-06-25_11h42.28.283,LearnStrategy,2023.2.3,Win32,59.88023952,,,,,,,,,,,4,10,3,4,,,,,,,,,,,,,,,,,,,,,,,,,,,,,
65ff67c31641a4be4c903b68,TCR,2024-06-25_11h42.28.283,LearnStrategy,2023.2.3,Win32,59.88023952,,,,,,,,,,,8,09,3,5,,,,,,,,,,,,,,,,,,,,,,,,,,,,,
65ff67c31641a4be4c903b68,TCR,2024-06-25_11h42.28.283,LearnStrategy,2023.2.3,Win32,59.88023952,,,,,,,,,,,8,13,3,6,,,,,,,,,,,,,,,,,,,,,,,,,,,,,
65ff67c31641a4be4c903b68,TCR,2024-06-25_11h42.28.283,LearnStrategy,2023.2.3,Win32,59.88023952,,,,,,,,,,,8,06,3,7,,,,,,,,,,,,,,,,,,,,,,,,,,,,,
65ff67c31641a4be4c903b68,TCR,2024-06-25_11h42.28.283,LearnStrategy,2023.2.3,Win32,59.88023952,,,,,,,,,,,6,11,3,8,,,,,,,,,,,,,,,,,,,,,,,,,,,,,
65ff67c31641a4be4c903b68,TCR,2024-06-25_11h42.28.283,LearnStrategy,2023.2.3,Win32,59.88023952,,,,,,,,,,,2,01,4,1,,,,,,,,,,,,,,,,,,,,,,,,,,,,,
65ff67c31641a4be4c903b68,TCR,2024-06-25_11h42.28.283,LearnStrategy,2023.2.3,Win32,59.88023952,,,,,,,,,,,6,06,4,2,,,,,,,,,,,,,,,,,,,,,,,,,,,,,
65ff67c31641a4be4c903b68,TCR,2024-06-25_11h42.28.283,LearnStrategy,2023.2.3,Win32,59.88023952,,,,,,,,,,,5,07,4,3,,,,,,,,,,,,,,,,,,,,,,,,,,,,,
65ff67c31641a4be4c903b68,TCR,2024-06-25_11h42.28.283,LearnStrategy,2023.2.3,Win32,59.88023952,,,,,,,,,,,5,06,4,4,,,,,,,,,,,,,,,,,,,,,,,,,,,,,
65ff67c31641a4be4c903b68,TCR,2024-06-25_11h42.28.283,LearnStrategy,2023.2.3,Win32,59.88023952,,,,,,,,,,,7,10,4,5,,,,,,,,,,,,,,,,,,,,,,,,,,,,,
65ff67c31641a4be4c903b68,TCR,2024-06-25_11h42.28.283,LearnStrategy,2023.2.3,Win32,59.88023952,,,,,,,,,,,2,12,4,6,,,,,,,,,,,,,,,,,,,,,,,,,,,,,
65ff67c31641a4be4c903b68,TCR,2024-06-25_11h42.28.283,LearnStrategy,2023.2.3,Win32,59.88023952,,,,,,,,,,,7,02,4,7,,,,,,,,,,,,,,,,,,,,,,,,,,,,,
65ff67c31641a4be4c903b68,TCR,2024-06-25_11h42.28.283,LearnStrategy,2023.2.3,Win32,59.88023952,,,,,,,,,,,6,16,4,8,,,,,,,,,,,,,,,,,,,,,,,,,,,,,
65ff67c31641a4be4c903b68,TCR,2024-06-25_11h42.28.283,LearnStrategy,2023.2.3,Win32,59.88023952,,,,,,,,,,,2,06,5,1,,,,,,,,,,,,,,,,,,,,,,,,,,,,,
65ff67c31641a4be4c903b68,TCR,2024-06-25_11h42.28.283,LearnStrategy,2023.2.3,Win32,59.88023952,,,,,,,,,,,8,14,5,2,,,,,,,,,,,,,,,,,,,,,,,,,,,,,
65ff67c31641a4be4c903b68,TCR,2024-06-25_11h42.28.283,LearnStrategy,2023.2.3,Win32,59.88023952,,,,,,,,,,,7,15,5,3,,,,,,,,,,,,,,,,,,,,,,,,,,,,,
65ff67c31641a4be4c903b68,TCR,2024-06-25_11h42.28.283,LearnStrategy,2023.2.3,Win32,59.88023952,,,,,,,,,,,3,02,5,4,,,,,,,,,,,,,,,,,,,,,,,,,,,,,
65ff67c31641a4be4c903b68,TCR,2024-06-25_11h42.28.283,LearnStrategy,2023.2.3,Win32,59.88023952,,,,,,,,,,,5,14,5,5,,,,,,,,,,,,,,,,,,,,,,,,,,,,,
65ff67c31641a4be4c903b68,TCR,2024-06-25_11h42.28.283,LearnStrategy,2023.2.3,Win32,59.88023952,,,,,,,,,,,3,11,5,6,,,,,,,,,,,,,,,,,,,,,,,,,,,,,
65ff67c31641a4be4c903b68,TCR,2024-06-25_11h42.28.283,LearnStrategy,2023.2.3,Win32,59.88023952,,,,,,,,,,,5,05,5,7,,,,,,,,,,,,,,,,,,,,,,,,,,,,,
65ff67c31641a4be4c903b68,TCR,2024-06-25_11h42.28.283,LearnStrategy,2023.2.3,Win32,59.88023952,,,,,,,,,,,3,06,5,8,,,,,,,,,,,,,,,,,,,,,,,,,,,,,
65ff67c31641a4be4c903b68,TCR,2024-06-25_11h42.28.283,LearnStrategy,2023.2.3,Win32,59.88023952,,,,,,,,,,,1,16,6,1,,,,,,,,,,,,,,,,,,,,,,,,,,,,,
65ff67c31641a4be4c903b68,TCR,2024-06-25_11h42.28.283,LearnStrategy,2023.2.3,Win32,59.88023952,,,,,,,,,,,4,14,6,2,,,,,,,,,,,,,,,,,,,,,,,,,,,,,
65ff67c31641a4be4c903b68,TCR,2024-06-25_11h42.28.283,LearnStrategy,2023.2.3,Win32,59.88023952,,,,,,,,,,,2,14,6,3,,,,,,,,,,,,,,,,,,,,,,,,,,,,,
65ff67c31641a4be4c903b68,TCR,2024-06-25_11h42.28.283,LearnStrategy,2023.2.3,Win32,59.88023952,,,,,,,,,,,2,04,6,4,,,,,,,,,,,,,,,,,,,,,,,,,,,,,
65ff67c31641a4be4c903b68,TCR,2024-06-25_11h42.28.283,LearnStrategy,2023.2.3,Win32,59.88023952,,,,,,,,,,,1,03,6,5,,,,,,,,,,,,,,,,,,,,,,,,,,,,,
65ff67c31641a4be4c903b68,TCR,2024-06-25_11h42.28.283,LearnStrategy,2023.2.3,Win32,59.88023952,,,,,,,,,,,7,06,6,6,,,,,,,,,,,,,,,,,,,,,,,,,,,,,
65ff67c31641a4be4c903b68,TCR,2024-06-25_11h42.28.283,LearnStrategy,2023.2.3,Win32,59.88023952,,,,,,,,,,,4,05,6,7,,,,,,,,,,,,,,,,,,,,,,,,,,,,,
65ff67c31641a4be4c903b68,TCR,2024-06-25_11h42.28.283,LearnStrategy,2023.2.3,Win32,59.88023952,,,,,,,,,,,3,16,6,8,,,,,,,,,,,,,,,,,,,,,,,,,,,,,