participant,condition,date,expName,psychopyVersion,OS,frameRate,block,phase,trial,learn_mouse.x,learn_mouse.y,learn_mouse.leftButton,learn_mouse.midButton,learn_mouse.rightButton,learn_mouse.time,learn_mouse.clicked_name,cat,token,row,col,t_select,cat_rec,token_rec,cat_mouse_l.x,cat_mouse_l.y,cat_mouse_l.leftButton,cat_mouse_l.midButton,cat_mouse_l.rightButton,cat_mouse_l.time,cat_mouse_l.clicked_name,resp,t_resp,corr,train_trials.thisRepN,train_trials.thisTrialN,train_trials.thisN,train_trials.thisIndex,train_trials.ran,cat_mouse_t.x,cat_mouse_t.y,cat_mouse_t.leftButton,cat_mouse_t.midButton,cat_mouse_t.rightButton,cat_mouse_t.time,cat_mouse_t.clicked_name,test_trials.thisRepN,test_trials.thisTrialN,test_trials.thisN,test_trials.thisIndex,test_trials.ran,Bonus
6601a1251731342a7891c4f1,SCR,2024-06-21_12h48.10.012,LearnStrategy,2023.2.3,Win32,60.24096386,,,,,,,,,,,,,,,,,,,,,,,,,,,,,,,,,,,,,,,,,,,,,
6601a1251731342a7891c4f1,SCR,2024-06-21_12h48.10.012,LearnStrategy,2023.2.3,Win32,60.24096386,1,1,1,-0.383333312,0.252777771,1,0,0,4.9395,Andesite_07,1,07,5,2,4.94,1,07,-0.157407407,-0.261111153,1,0,0,14.3609,Basalt_rect,2,14.361,0,0,0,0,0,1,,,,,,,,,,,,,
6601a1251731342a7891c4f1,SCR,2024-06-21_12h48.10.012,LearnStrategy,2023.2.3,Win32,60.24096386,1,1,2,0.373148176,-0.111111111,1,0,0,5.0789,Obsidian_11,5,11,3,7,5.079,5,11,0.375925982,-0.252777806,1,0,0,13.4931,Gabbro_rect,4,13.493,0,1,0,1,0,1,,,,,,,,,,,,,
6601a1251731342a7891c4f1,SCR,2024-06-21_12h48.10.012,LearnStrategy,2023.2.3,Win32,60.24096386,1,1,3,0.232407393,0.234259252,1,0,0,2.2377,Basalt_14,2,14,5,6,2.238,2,14,-0.356481481,-0.237963005,1,0,0,8.6604,Andesite_rect,1,8.66,0,2,0,2,0,1,,,,,,,,,,,,,
6601a1251731342a7891c4f1,SCR,2024-06-21_12h48.10.012,LearnStrategy,2023.2.3,Win32,60.24096386,1,1,4,-0.240740741,0.24537037,1,0,0,1.5232,Pegmatite_10,6,10,5,3,1.523,6,10,-0.125,-0.402777778,1,0,0,3.5303,Pegmatite_rect,6,3.53,1,3,0,3,0,1,,,,,,,,,,,,,
6601a1251731342a7891c4f1,SCR,2024-06-21_12h48.10.012,LearnStrategy,2023.2.3,Win32,60.24096386,1,1,5,-0.376851859,0.400925928,1,0,0,1.9897,Gabbro_10,4,10,6,2,1.99,4,10,-0.375925912,-0.404629672,1,0,0,16.2107,Obsidian_rect,5,16.211,0,4,0,4,0,1,,,,,,,,,,,,,
6601a1251731342a7891c4f1,SCR,2024-06-21_12h48.10.012,LearnStrategy,2023.2.3,Win32,60.24096386,1,1,6,-0.07222218,-0.259259259,1,0,0,2.0153,Peridotite_10,7,10,2,4,2.015,7,10,0.340740769,-0.247222265,1,0,0,9.5532,Gabbro_rect,4,9.553,0,5,0,5,0,1,,,,,,,,,,,,,
6601a1251731342a7891c4f1,SCR,2024-06-21_12h48.10.012,LearnStrategy,2023.2.3,Win32,60.24096386,1,1,7,0.062962991,0.240740741,1,0,0,1.4603,Diorite_14,3,14,5,5,1.46,3,14,0.131481524,-0.261111153,1,0,0,3.4925,Diorite_rect,3,3.493,1,6,0,6,0,1,,,,,,,,,,,,,
6601a1251731342a7891c4f1,SCR,2024-06-21_12h48.10.012,LearnStrategy,2023.2.3,Win32,60.24096386,1,1,8,-0.38703703,-0.210185228,1,0,0,1.4289,Obsidian_05,5,05,2,2,1.429,5,05,0.389814871,-0.398148148,1,0,0,6.3014,Pumice_rect,8,6.301,0,7,0,7,0,1,,,,,,,,,,,,,
6601a1251731342a7891c4f1,SCR,2024-06-21_12h48.10.012,LearnStrategy,2023.2.3,Win32,60.24096386,1,1,9,0.532407407,-0.10092594,1,0,0,2.4229,Pumice_02,8,02,3,8,2.423,8,02,0.412037037,-0.404629672,1,0,0,3.7494,Pumice_rect,8,3.749,1,8,0,8,0,1,,,,,,,,,,,,,
6601a1251731342a7891c4f1,SCR,2024-06-21_12h48.10.012,LearnStrategy,2023.2.3,Win32,60.24096386,1,1,10,-0.346296275,-0.373148176,1,0,0,4.5854,Pumice_15,8,15,1,2,4.585,8,15,-0.133333347,-0.405555584,1,0,0,7.0993,Pegmatite_rect,6,7.099,0,9,0,9,0,1,,,,,,,,,,,,,
6601a1251731342a7891c4f1,SCR,2024-06-21_12h48.10.012,LearnStrategy,2023.2.3,Win32,60.24096386,1,1,11,0.381481453,-0.372222265,1,0,0,2.5896,Diorite_02,3,02,1,7,2.59,3,02,0.165740755,-0.25,1,0,0,12.7283,Diorite_rect,3,12.728,1,10,0,10,0,1,,,,,,,,,,,,,
6601a1251731342a7891c4f1,SCR,2024-06-21_12h48.10.012,LearnStrategy,2023.2.3,Win32,60.24096386,1,1,12,0.40370376,0.078703704,1,0,0,1.3894,Peridotite_15,7,15,4,7,1.389,7,15,-0.099074046,-0.408333319,1,0,0,20.2845,Pegmatite_rect,6,20.284,0,11,0,11,0,1,,,,,,,,,,,,,
6601a1251731342a7891c4f1,SCR,2024-06-21_12h48.10.012,LearnStrategy,2023.2.3,Win32,60.24096386,1,1,13,-0.374074053,-0.10092594,1,0,0,3.1601,Andesite_06,1,06,3,2,3.16,1,06,0.40370376,-0.389814801,1,0,0,32.9177,Pumice_rect,8,32.918,0,12,0,12,0,1,,,,,,,,,,,,,
6601a1251731342a7891c4f1,SCR,2024-06-21_12h48.10.012,LearnStrategy,2023.2.3,Win32,60.24096386,1,1,14,-0.545370349,0.086111104,1,0,0,2.8709,Basalt_04,2,04,4,1,2.871,2,04,0.410185213,-0.392592607,1,0,0,19.6811,Pumice_rect,8,19.681,0,13,0,13,0,1,,,,,,,,,,,,,
6601a1251731342a7891c4f1,SCR,2024-06-21_12h48.10.012,LearnStrategy,2023.2.3,Win32,60.24096386,1,1,15,0.445370427,0.249074071,1,0,0,1.4431,Gabbro_13,4,13,5,7,1.443,4,13,0.398148148,-0.271296325,1,0,0,5.4635,Gabbro_rect,4,5.463,1,14,0,14,0,1,,,,,,,,,,,,,
6601a1251731342a7891c4f1,SCR,2024-06-21_12h48.10.012,LearnStrategy,2023.2.3,Win32,60.24096386,1,1,16,-0.533333319,-0.237037023,1,0,0,2.4311,Pegmatite_12,6,12,2,1,2.431,6,12,0.17777782,-0.260185171,1,0,0,13.7916,Diorite_rect,3,13.792,0,15,0,15,0,1,,,,,,,,,,,,,
6601a1251731342a7891c4f1,SCR,2024-06-21_12h48.10.012,LearnStrategy,2023.2.3,Win32,60.24096386,1,2,1,,,,,,,,5,07,,,,,,,,,,,,,4,12.838,0,,,,,,0.388888889,-0.24537037,1,0,0,12.8384,Gabbro_rect,0,0,0,0,1,
6601a1251731342a7891c4f1,SCR,2024-06-21_12h48.10.012,LearnStrategy,2023.2.3,Win32,60.24096386,1,2,2,,,,,,,,6,06,,,,,,,,,,,,,3,34.881,0,,,,,,0.17777782,-0.249074088,1,0,0,34.8807,Diorite_rect,1,0,1,0,1,
6601a1251731342a7891c4f1,SCR,2024-06-21_12h48.10.012,LearnStrategy,2023.2.3,Win32,60.24096386,1,2,3,,,,,,,,5,10,,,,,,,,,,,,,6,23.86,0,,,,,,-0.124074088,-0.420370384,1,0,0,23.8599,Pegmatite_rect,2,0,2,0,1,
6601a1251731342a7891c4f1,SCR,2024-06-21_12h48.10.012,LearnStrategy,2023.2.3,Win32,60.24096386,1,2,4,,,,,,,,2,16,,,,,,,,,,,,,2,23.224,1,,,,,,-0.128703718,-0.25462963,1,0,0,23.2237,Basalt_rect,3,0,3,0,1,
6601a1251731342a7891c4f1,SCR,2024-06-21_12h48.10.012,LearnStrategy,2023.2.3,Win32,60.24096386,1,2,5,,,,,,,,8,14,,,,,,,,,,,,,8,16.436,1,,,,,,0.415740826,-0.40370369,1,0,0,16.4364,Pumice_rect,4,0,4,0,1,
6601a1251731342a7891c4f1,SCR,2024-06-21_12h48.10.012,LearnStrategy,2023.2.3,Win32,60.24096386,1,2,6,,,,,,,,6,15,,,,,,,,,,,,,6,14.023,1,,,,,,-0.125,-0.398148148,1,0,0,14.0226,Pegmatite_rect,5,0,5,0,1,
6601a1251731342a7891c4f1,SCR,2024-06-21_12h48.10.012,LearnStrategy,2023.2.3,Win32,60.24096386,1,2,7,,,,,,,,4,12,,,,,,,,,,,,,1,10.388,0,,,,,,-0.350925905,-0.257407436,1,0,0,10.3884,Andesite_rect,6,0,6,0,1,
6601a1251731342a7891c4f1,SCR,2024-06-21_12h48.10.012,LearnStrategy,2023.2.3,Win32,60.24096386,1,2,8,,,,,,,,7,08,,,,,,,,,,,,,3,16.394,0,,,,,,0.143518519,-0.259259259,1,0,0,16.3937,Diorite_rect,7,0,7,0,1,
6601a1251731342a7891c4f1,SCR,2024-06-21_12h48.10.012,LearnStrategy,2023.2.3,Win32,60.24096386,1,2,9,,,,,,,,1,03,,,,,,,,,,,,,4,33.215,0,,,,,,0.417592649,-0.24537037,1,0,0,33.2147,Gabbro_rect,8,0,8,0,1,
6601a1251731342a7891c4f1,SCR,2024-06-21_12h48.10.012,LearnStrategy,2023.2.3,Win32,60.24096386,1,2,10,,,,,,,,8,09,,,,,,,,,,,,,7,20.191,0,,,,,,0.170370384,-0.395370413,1,0,0,20.1912,Peridotite_rect,9,0,9,0,1,
6601a1251731342a7891c4f1,SCR,2024-06-21_12h48.10.012,LearnStrategy,2023.2.3,Win32,60.24096386,1,2,11,,,,,,,,1,11,,,,,,,,,,,,,5,10.671,0,,,,,,-0.39166666,-0.392592607,1,0,0,10.6708,Obsidian_rect,10,0,10,0,1,
6601a1251731342a7891c4f1,SCR,2024-06-21_12h48.10.012,LearnStrategy,2023.2.3,Win32,60.24096386,1,2,12,,,,,,,,2,10,,,,,,,,,,,,,2,11.321,1,,,,,,-0.154629601,-0.249074088,1,0,0,11.3208,Basalt_rect,11,0,11,0,1,
6601a1251731342a7891c4f1,SCR,2024-06-21_12h48.10.012,LearnStrategy,2023.2.3,Win32,60.24096386,1,2,13,,,,,,,,4,15,,,,,,,,,,,,,1,7.114,0,,,,,,-0.36296297,-0.252777806,1,0,0,7.1136,Andesite_rect,12,0,12,0,1,
6601a1251731342a7891c4f1,SCR,2024-06-21_12h48.10.012,LearnStrategy,2023.2.3,Win32,60.24096386,1,2,14,,,,,,,,3,07,,,,,,,,,,,,,5,16.261,0,,,,,,-0.341666645,-0.390740783,1,0,0,16.2609,Obsidian_rect,13,0,13,0,1,
6601a1251731342a7891c4f1,SCR,2024-06-21_12h48.10.012,LearnStrategy,2023.2.3,Win32,60.24096386,1,2,15,,,,,,,,3,06,,,,,,,,,,,,,7,24.267,0,,,,,,0.139814801,-0.395370413,1,0,0,24.2665,Peridotite_rect,14,0,14,0,1,
6601a1251731342a7891c4f1,SCR,2024-06-21_12h48.10.012,LearnStrategy,2023.2.3,Win32,60.24096386,1,2,16,,,,,,,,7,13,,,,,,,,,,,,,8,11.959,0,,,,,,0.397222307,-0.417592578,1,0,0,11.9592,Pumice_rect,15,0,15,0,1,
6601a1251731342a7891c4f1,SCR,2024-06-21_12h48.10.012,LearnStrategy,2023.2.3,Win32,60.24096386,2,1,1,-0.393518519,-0.104629658,1,0,0,6.3312,Andesite_06,1,06,3,2,6.331,1,06,0.380555612,-0.388888889,1,0,0,12.0987,Pumice_rect,8,12.099,0,0,0,0,0,1,,,,,,,,,,,,,
6601a1251731342a7891c4f1,SCR,2024-06-21_12h48.10.012,LearnStrategy,2023.2.3,Win32,60.24096386,2,1,2,-0.555555556,0.264814818,1,0,0,3.491,Andesite_05,1,05,5,1,3.491,1,05,-0.464814822,-0.242592635,1,0,0,11.9997,Andesite_rect,1,12,1,1,0,1,0,1,,,,,,,,,,,,,
6601a1251731342a7891c4f1,SCR,2024-06-21_12h48.10.012,LearnStrategy,2023.2.3,Win32,60.24096386,2,1,3,-0.407407407,0.097222222,1,0,0,1.3233,Gabbro_11,4,11,4,2,1.323,4,11,0.339814787,-0.262962977,1,0,0,29.5477,Gabbro_rect,4,29.548,1,2,0,2,0,1,,,,,,,,,,,,,
6601a1251731342a7891c4f1,SCR,2024-06-21_12h48.10.012,LearnStrategy,2023.2.3,Win32,60.24096386,2,1,4,0.389814871,-0.10555557,1,0,0,1.4927,Obsidian_11,5,11,3,7,1.493,5,11,-0.344444452,-0.389814801,1,0,0,14.9389,Obsidian_rect,5,14.939,1,3,0,3,0,1,,,,,,,,,,,,,
6601a1251731342a7891c4f1,SCR,2024-06-21_12h48.10.012,LearnStrategy,2023.2.3,Win32,60.24096386,2,1,5,-0.069444444,0.399074069,1,0,0,1.4616,Peridotite_16,7,16,6,4,1.462,7,16,0.376851824,-0.259259259,1,0,0,13.2726,Gabbro_rect,4,13.273,0,4,0,4,0,1,,,,,,,,,,,,,
6601a1251731342a7891c4f1,SCR,2024-06-21_12h48.10.012,LearnStrategy,2023.2.3,Win32,60.24096386,2,1,6,-0.054629644,-0.099074116,1,0,0,1.1935,Pegmatite_08,6,08,3,4,1.193,6,08,-0.101851852,-0.392592607,1,0,0,9.8463,Pegmatite_rect,6,9.846,1,5,0,5,0,1,,,,,,,,,,,,,
6601a1251731342a7891c4f1,SCR,2024-06-21_12h48.10.012,LearnStrategy,2023.2.3,Win32,60.24096386,2,1,7,-0.233333305,-0.284259302,1,0,0,1.2732,Gabbro_03,4,03,2,3,1.273,4,03,0.179629644,-0.237037023,1,0,0,19.4936,Diorite_rect,3,19.494,0,6,0,6,0,1,,,,,,,,,,,,,
6601a1251731342a7891c4f1,SCR,2024-06-21_12h48.10.012,LearnStrategy,2023.2.3,Win32,60.24096386,2,1,8,-0.529629637,-0.081481474,1,0,0,1.527,Diorite_12,3,12,3,1,1.527,3,12,0.098148134,-0.239814829,1,0,0,17.3207,Diorite_rect,3,17.321,1,7,0,7,0,1,,,,,,,,,,,,,
6601a1251731342a7891c4f1,SCR,2024-06-21_12h48.10.012,LearnStrategy,2023.2.3,Win32,60.24096386,2,1,9,0.399999972,0.247222212,1,0,0,1.4237,Gabbro_13,4,13,5,7,1.424,4,13,0.409259231,-0.246296282,1,0,0,19.5765,Gabbro_rect,4,19.577,1,8,0,8,0,1,,,,,,,,,,,,,
6601a1251731342a7891c4f1,SCR,2024-06-21_12h48.10.012,LearnStrategy,2023.2.3,Win32,60.24096386,2,1,10,0.239814829,-0.440740727,1,0,0,1.7764,Peridotite_04,7,04,1,6,1.776,7,04,-0.425925926,-0.252777806,1,0,0,18.8284,Andesite_rect,1,18.828,0,9,0,9,0,1,,,,,,,,,,,,,
6601a1251731342a7891c4f1,SCR,2024-06-21_12h48.10.012,LearnStrategy,2023.2.3,Win32,60.24096386,2,1,11,0.088888875,-0.435185185,1,0,0,1.509,Andesite_09,1,09,1,5,1.509,1,09,0.425000085,-0.270370413,1,0,0,12.0963,Gabbro_rect,4,12.096,0,10,0,10,0,1,,,,,,,,,,,,,
6601a1251731342a7891c4f1,SCR,2024-06-21_12h48.10.012,LearnStrategy,2023.2.3,Win32,60.24096386,2,1,12,-0.37962963,-0.237963005,1,0,0,1.2838,Obsidian_05,5,05,2,2,1.284,5,05,-0.393518519,-0.400925954,1,0,0,12.8495,Obsidian_rect,5,12.849,1,11,0,11,0,1,,,,,,,,,,,,,
6601a1251731342a7891c4f1,SCR,2024-06-21_12h48.10.012,LearnStrategy,2023.2.3,Win32,60.24096386,2,1,13,0.432407379,-0.109259288,1,0,0,1.344,Obsidian_11,5,11,3,7,1.344,5,11,-0.362037023,-0.382407436,1,0,0,14.1791,Obsidian_rect,5,14.179,1,12,0,12,0,1,,,,,,,,,,,,,
6601a1251731342a7891c4f1,SCR,2024-06-21_12h48.10.012,LearnStrategy,2023.2.3,Win32,60.24096386,2,1,14,0.233333376,-0.428703732,1,0,0,1.7937,Peridotite_04,7,04,1,6,1.794,7,04,0.187962991,-0.412962949,1,0,0,9.9309,Peridotite_rect,7,9.931,1,13,0,13,0,1,,,,,,,,,,,,,
6601a1251731342a7891c4f1,SCR,2024-06-21_12h48.10.012,LearnStrategy,2023.2.3,Win32,60.24096386,2,1,15,0.560185185,-0.12037037,1,0,0,1.4721,Pumice_02,8,02,3,8,1.472,8,02,0.464814787,-0.414814843,1,0,0,14.544,Pumice_rect,8,14.544,1,14,0,14,0,1,,,,,,,,,,,,,
6601a1251731342a7891c4f1,SCR,2024-06-21_12h48.10.012,LearnStrategy,2023.2.3,Win32,60.24096386,2,1,16,-0.25462963,0.445370369,1,0,0,1.4871,Diorite_15,3,15,6,3,1.487,3,15,0.116666653,-0.246296282,1,0,0,22.4479,Diorite_rect,3,22.448,1,15,0,15,0,1,,,,,,,,,,,,,
6601a1251731342a7891c4f1,SCR,2024-06-21_12h48.10.012,LearnStrategy,2023.2.3,Win32,60.24096386,2,2,1,,,,,,,,7,06,,,,,,,,,,,,,3,21.813,0,,,,,,0.160185213,-0.241666653,1,0,0,21.8132,Diorite_rect,0,0,0,0,1,
6601a1251731342a7891c4f1,SCR,2024-06-21_12h48.10.012,LearnStrategy,2023.2.3,Win32,60.24096386,2,2,2,,,,,,,,2,08,,,,,,,,,,,,,2,7.756,1,,,,,,-0.109259217,-0.252777806,1,0,0,7.756,Basalt_rect,1,0,1,0,1,
6601a1251731342a7891c4f1,SCR,2024-06-21_12h48.10.012,LearnStrategy,2023.2.3,Win32,60.24096386,2,2,3,,,,,,,,6,16,,,,,,,,,,,,,6,14.587,1,,,,,,-0.103703675,-0.382407436,1,0,0,14.5866,Pegmatite_rect,2,0,2,0,1,
6601a1251731342a7891c4f1,SCR,2024-06-21_12h48.10.012,LearnStrategy,2023.2.3,Win32,60.24096386,2,2,4,,,,,,,,7,05,,,,,,,,,,,,,7,19.638,1,,,,,,0.141666695,-0.400000042,1,0,0,19.6384,Peridotite_rect,3,0,3,0,1,
6601a1251731342a7891c4f1,SCR,2024-06-21_12h48.10.012,LearnStrategy,2023.2.3,Win32,60.24096386,2,2,5,,,,,,,,4,08,,,,,,,,,,,,,3,12.752,0,,,,,,0.132407436,-0.260185171,1,0,0,12.7516,Diorite_rect,4,0,4,0,1,
6601a1251731342a7891c4f1,SCR,2024-06-21_12h48.10.012,LearnStrategy,2023.2.3,Win32,60.24096386,2,2,6,,,,,,,,2,06,,,,,,,,,,,,,2,14.662,1,,,,,,-0.117592564,-0.240740741,1,0,0,14.662,Basalt_rect,5,0,5,0,1,
6601a1251731342a7891c4f1,SCR,2024-06-21_12h48.10.012,LearnStrategy,2023.2.3,Win32,60.24096386,2,2,7,,,,,,,,5,16,,,,,,,,,,,,,5,10.554,1,,,,,,-0.349999993,-0.40370369,1,0,0,10.5545,Obsidian_rect,6,0,6,0,1,
6601a1251731342a7891c4f1,SCR,2024-06-21_12h48.10.012,LearnStrategy,2023.2.3,Win32,60.24096386,2,2,8,,,,,,,,8,05,,,,,,,,,,,,,8,9.69,1,,,,,,0.404629601,-0.409259302,1,0,0,9.6897,Pumice_rect,7,0,7,0,1,
6601a1251731342a7891c4f1,SCR,2024-06-21_12h48.10.012,LearnStrategy,2023.2.3,Win32,60.24096386,2,2,9,,,,,,,,4,05,,,,,,,,,,,,,4,12.129,1,,,,,,0.40833339,-0.248148176,1,0,0,12.1288,Gabbro_rect,8,0,8,0,1,
6601a1251731342a7891c4f1,SCR,2024-06-21_12h48.10.012,LearnStrategy,2023.2.3,Win32,60.24096386,2,2,10,,,,,,,,3,11,,,,,,,,,,,,,6,9.813,0,,,,,,-0.077777792,-0.390740783,1,0,0,9.8125,Pegmatite_rect,9,0,9,0,1,
6601a1251731342a7891c4f1,SCR,2024-06-21_12h48.10.012,LearnStrategy,2023.2.3,Win32,60.24096386,2,2,11,,,,,,,,5,09,,,,,,,,,,,,,5,7.297,1,,,,,,-0.37037037,-0.40370369,1,0,0,7.297,Obsidian_rect,10,0,10,0,1,
6601a1251731342a7891c4f1,SCR,2024-06-21_12h48.10.012,LearnStrategy,2023.2.3,Win32,60.24096386,2,2,12,,,,,,,,8,13,,,,,,,,,,,,,8,15.579,1,,,,,,0.432407379,-0.406481496,1,0,0,15.579,Pumice_rect,11,0,11,0,1,
6601a1251731342a7891c4f1,SCR,2024-06-21_12h48.10.012,LearnStrategy,2023.2.3,Win32,60.24096386,2,2,13,,,,,,,,6,05,,,,,,,,,,,,,6,10.08,1,,,,,,-0.071296268,-0.395370413,1,0,0,10.0801,Pegmatite_rect,12,0,12,0,1,
6601a1251731342a7891c4f1,SCR,2024-06-21_12h48.10.012,LearnStrategy,2023.2.3,Win32,60.24096386,2,2,14,,,,,,,,1,02,,,,,,,,,,,,,4,7.605,0,,,,,,0.383333418,-0.238888917,1,0,0,7.6053,Gabbro_rect,13,0,13,0,1,
6601a1251731342a7891c4f1,SCR,2024-06-21_12h48.10.012,LearnStrategy,2023.2.3,Win32,60.24096386,2,2,15,,,,,,,,3,10,,,,,,,,,,,,,3,10.704,1,,,,,,0.126851894,-0.247222265,1,0,0,10.7043,Diorite_rect,14,0,14,0,1,
6601a1251731342a7891c4f1,SCR,2024-06-21_12h48.10.012,LearnStrategy,2023.2.3,Win32,60.24096386,2,2,16,,,,,,,,1,16,,,,,,,,,,,,,1,5.747,1,,,,,,-0.384259259,-0.237037023,1,0,0,5.7472,Andesite_rect,15,0,15,0,1,
6601a1251731342a7891c4f1,SCR,2024-06-21_12h48.10.012,LearnStrategy,2023.2.3,Win32,60.24096386,3,1,1,0.07222225,-0.253703718,1,0,0,1.739,Obsidian_12,5,12,2,5,1.739,5,12,-0.373148141,-0.402777778,1,0,0,24.0322,Obsidian_rect,5,24.032,1,0,0,0,0,1,,,,,,,,,,,,,
6601a1251731342a7891c4f1,SCR,2024-06-21_12h48.10.012,LearnStrategy,2023.2.3,Win32,60.24096386,3,1,2,-0.39444443,0.249074071,1,0,0,1.5215,Andesite_07,1,07,5,2,1.522,1,07,0.12037037,-0.237037023,1,0,0,12.5943,Diorite_rect,3,12.594,0,1,0,1,0,1,,,,,,,,,,,,,
6601a1251731342a7891c4f1,SCR,2024-06-21_12h48.10.012,LearnStrategy,2023.2.3,Win32,60.24096386,3,1,3,0.553703732,-0.39444443,1,0,0,1.9535,Obsidian_02,5,02,1,8,1.954,5,02,-0.449999986,-0.407407407,1,0,0,7.8362,Obsidian_rect,5,7.836,1,2,0,2,0,1,,,,,,,,,,,,,
6601a1251731342a7891c4f1,SCR,2024-06-21_12h48.10.012,LearnStrategy,2023.2.3,Win32,60.24096386,3,1,4,0.531481566,-0.111111111,1,0,0,2.7441,Pumice_02,8,02,3,8,2.744,8,02,0.356481481,-0.420370384,1,0,0,9.4469,Pumice_rect,8,9.447,1,3,0,3,0,1,,,,,,,,,,,,,
6601a1251731342a7891c4f1,SCR,2024-06-21_12h48.10.012,LearnStrategy,2023.2.3,Win32,60.24096386,3,1,5,-0.070370356,-0.112037023,1,0,0,0.9962,Pegmatite_08,6,08,3,4,0.996,6,08,-0.133333347,-0.406481496,1,0,0,7.2308,Pegmatite_rect,6,7.231,1,4,0,4,0,1,,,,,,,,,,,,,
6601a1251731342a7891c4f1,SCR,2024-06-21_12h48.10.012,LearnStrategy,2023.2.3,Win32,60.24096386,3,1,6,-0.199074074,0.073148127,1,0,0,1.621,Diorite_13,3,13,4,3,1.621,3,13,0.139814801,-0.255555541,1,0,0,11.9396,Diorite_rect,3,11.94,1,5,0,5,0,1,,,,,,,,,,,,,
6601a1251731342a7891c4f1,SCR,2024-06-21_12h48.10.012,LearnStrategy,2023.2.3,Win32,60.24096386,3,1,7,-0.542592578,0.384259259,1,0,0,2.063,Andesite_10,1,10,6,1,2.063,1,10,0.14444443,-0.395370413,1,0,0,14.6137,Peridotite_rect,7,14.614,0,6,0,6,0,1,,,,,,,,,,,,,
6601a1251731342a7891c4f1,SCR,2024-06-21_12h48.10.012,LearnStrategy,2023.2.3,Win32,60.24096386,3,1,8,0.40370376,0.234259252,1,0,0,1.2324,Gabbro_13,4,13,5,7,1.232,4,13,0.450925898,-0.255555541,1,0,0,10.985,Gabbro_rect,4,10.985,1,7,0,7,0,1,,,,,,,,,,,,,
6601a1251731342a7891c4f1,SCR,2024-06-21_12h48.10.012,LearnStrategy,2023.2.3,Win32,60.24096386,3,1,9,-0.378703683,0.065740727,1,0,0,1.2279,Gabbro_11,4,11,4,2,1.228,4,11,0.378703788,-0.247222265,1,0,0,14.1445,Gabbro_rect,4,14.144,1,8,0,8,0,1,,,,,,,,,,,,,
6601a1251731342a7891c4f1,SCR,2024-06-21_12h48.10.012,LearnStrategy,2023.2.3,Win32,60.24096386,3,1,10,0.37037037,0.220370363,1,0,0,1.3901,Gabbro_13,4,13,5,7,1.39,4,13,0.371296353,-0.253703718,1,0,0,9.8427,Gabbro_rect,4,9.843,1,9,0,9,0,1,,,,,,,,,,,,,
6601a1251731342a7891c4f1,SCR,2024-06-21_12h48.10.012,LearnStrategy,2023.2.3,Win32,60.24096386,3,1,11,0.239814829,-0.409259302,1,0,0,1.3623,Peridotite_04,7,04,1,6,1.362,7,04,0.167592578,-0.412037037,1,0,0,5.7896,Peridotite_rect,7,5.79,1,10,0,10,0,1,,,,,,,,,,,,,
6601a1251731342a7891c4f1,SCR,2024-06-21_12h48.10.012,LearnStrategy,2023.2.3,Win32,60.24096386,3,1,12,0.3648149,0.087037016,1,0,0,1.196,Peridotite_15,7,15,4,7,1.196,7,15,0.156481496,-0.255555541,1,0,0,13.3625,Diorite_rect,3,13.362,0,11,0,11,0,1,,,,,,,,,,,,,
6601a1251731342a7891c4f1,SCR,2024-06-21_12h48.10.012,LearnStrategy,2023.2.3,Win32,60.24096386,3,1,13,0.069444444,-0.431481467,1,0,0,1.2213,Andesite_09,1,09,1,5,1.221,1,09,-0.355555534,-0.239814829,1,0,0,8.0742,Andesite_rect,1,8.074,1,12,0,12,0,1,,,,,,,,,,,,,
6601a1251731342a7891c4f1,SCR,2024-06-21_12h48.10.012,LearnStrategy,2023.2.3,Win32,60.24096386,3,1,14,0.392592677,0.074074074,1,0,0,1.207,Peridotite_15,7,15,4,7,1.207,7,15,0.175000014,-0.40370369,1,0,0,8.7906,Peridotite_rect,7,8.791,1,13,0,13,0,1,,,,,,,,,,,,,
6601a1251731342a7891c4f1,SCR,2024-06-21_12h48.10.012,LearnStrategy,2023.2.3,Win32,60.24096386,3,1,15,0.358333305,-0.437962991,1,0,0,1.3758,Diorite_02,3,02,1,7,1.376,3,02,-0.36296297,-0.25,1,0,0,8.0031,Andesite_rect,1,8.003,0,14,0,14,0,1,,,,,,,,,,,,,
6601a1251731342a7891c4f1,SCR,2024-06-21_12h48.10.012,LearnStrategy,2023.2.3,Win32,60.24096386,3,1,16,-0.52407406,-0.077777792,1,0,0,2.023,Diorite_12,3,12,3,1,2.023,3,12,0.107407393,-0.25462963,1,0,0,8.9801,Diorite_rect,3,8.98,1,15,0,15,0,1,,,,,,,,,,,,,
6601a1251731342a7891c4f1,SCR,2024-06-21_12h48.10.012,LearnStrategy,2023.2.3,Win32,60.24096386,3,2,1,,,,,,,,8,08,,,,,,,,,,,,,8,34.155,1,,,,,,0.425925926,-0.386111153,1,0,0,34.155,Pumice_rect,0,0,0,0,1,
6601a1251731342a7891c4f1,SCR,2024-06-21_12h48.10.012,LearnStrategy,2023.2.3,Win32,60.24096386,3,2,2,,,,,,,,6,09,,,,,,,,,,,,,6,17.527,1,,,,,,-0.088888875,-0.412037037,1,0,0,17.5271,Pegmatite_rect,1,0,1,0,1,
6601a1251731342a7891c4f1,SCR,2024-06-21_12h48.10.012,LearnStrategy,2023.2.3,Win32,60.24096386,3,2,3,,,,,,,,3,16,,,,,,,,,,,,,3,12.82,1,,,,,,0.146296325,-0.247222265,1,0,0,12.8196,Diorite_rect,2,0,2,0,1,
6601a1251731342a7891c4f1,SCR,2024-06-21_12h48.10.012,LearnStrategy,2023.2.3,Win32,60.24096386,3,2,4,,,,,,,,4,16,,,,,,,,,,,,,4,7.275,1,,,,,,0.440740797,-0.240740741,1,0,0,7.2752,Gabbro_rect,3,0,3,0,1,
6601a1251731342a7891c4f1,SCR,2024-06-21_12h48.10.012,LearnStrategy,2023.2.3,Win32,60.24096386,3,2,5,,,,,,,,5,14,,,,,,,,,,,,,5,8.139,1,,,,,,-0.420370349,-0.409259302,1,0,0,8.1391,Obsidian_rect,4,0,4,0,1,
6601a1251731342a7891c4f1,SCR,2024-06-21_12h48.10.012,LearnStrategy,2023.2.3,Win32,60.24096386,3,2,6,,,,,,,,4,09,,,,,,,,,,,,,4,7.463,1,,,,,,0.391666695,-0.255555541,1,0,0,7.4626,Gabbro_rect,5,0,5,0,1,
6601a1251731342a7891c4f1,SCR,2024-06-21_12h48.10.012,LearnStrategy,2023.2.3,Win32,60.24096386,3,2,7,,,,,,,,1,04,,,,,,,,,,,,,7,7.573,0,,,,,,0.169444473,-0.404629672,1,0,0,7.5727,Peridotite_rect,6,0,6,0,1,
6601a1251731342a7891c4f1,SCR,2024-06-21_12h48.10.012,LearnStrategy,2023.2.3,Win32,60.24096386,3,2,8,,,,,,,,5,06,,,,,,,,,,,,,5,8.521,1,,,,,,-0.402777778,-0.407407407,1,0,0,8.5212,Obsidian_rect,7,0,7,0,1,
6601a1251731342a7891c4f1,SCR,2024-06-21_12h48.10.012,LearnStrategy,2023.2.3,Win32,60.24096386,3,2,9,,,,,,,,2,02,,,,,,,,,,,,,3,12.205,0,,,,,,0.158333319,-0.23055557,1,0,0,12.2047,Diorite_rect,8,0,8,0,1,
6601a1251731342a7891c4f1,SCR,2024-06-21_12h48.10.012,LearnStrategy,2023.2.3,Win32,60.24096386,3,2,10,,,,,,,,2,01,,,,,,,,,,,,,2,11.795,1,,,,,,-0.137036995,-0.238888917,1,0,0,11.7954,Basalt_rect,9,0,9,0,1,
6601a1251731342a7891c4f1,SCR,2024-06-21_12h48.10.012,LearnStrategy,2023.2.3,Win32,60.24096386,3,2,11,,,,,,,,1,14,,,,,,,,,,,,,4,6.706,0,,,,,,0.391666695,-0.26944443,1,0,0,6.706,Gabbro_rect,10,0,10,0,1,
6601a1251731342a7891c4f1,SCR,2024-06-21_12h48.10.012,LearnStrategy,2023.2.3,Win32,60.24096386,3,2,12,,,,,,,,8,03,,,,,,,,,,,,,8,7.513,1,,,,,,0.40370376,-0.411111125,1,0,0,7.513,Pumice_rect,11,0,11,0,1,
6601a1251731342a7891c4f1,SCR,2024-06-21_12h48.10.012,LearnStrategy,2023.2.3,Win32,60.24096386,3,2,13,,,,,,,,7,12,,,,,,,,,,,,,6,8.473,0,,,,,,-0.098148134,-0.400925954,1,0,0,8.4729,Pegmatite_rect,12,0,12,0,1,
6601a1251731342a7891c4f1,SCR,2024-06-21_12h48.10.012,LearnStrategy,2023.2.3,Win32,60.24096386,3,2,14,,,,,,,,3,08,,,,,,,,,,,,,1,6.822,0,,,,,,-0.345370363,-0.241666653,1,0,0,6.8217,Andesite_rect,13,0,13,0,1,
6601a1251731342a7891c4f1,SCR,2024-06-21_12h48.10.012,LearnStrategy,2023.2.3,Win32,60.24096386,3,2,15,,,,,,,,7,02,,,,,,,,,,,,,7,3.34,1,,,,,,0.162962949,-0.411111125,1,0,0,3.3404,Peridotite_rect,14,0,14,0,1,
6601a1251731342a7891c4f1,SCR,2024-06-21_12h48.10.012,LearnStrategy,2023.2.3,Win32,60.24096386,3,2,16,,,,,,,,6,07,,,,,,,,,,,,,6,8.557,1,,,,,,-0.07222218,-0.400000042,1,0,0,8.5566,Pegmatite_rect,15,0,15,0,1,
6601a1251731342a7891c4f1,SCR,2024-06-21_12h48.10.012,LearnStrategy,2023.2.3,Win32,60.24096386,4,1,1,0.380555612,0.229629623,1,0,0,1.6758,Gabbro_13,4,13,5,7,1.676,4,13,0.442592621,-0.232407393,1,0,0,5.8034,Gabbro_rect,4,5.803,1,0,0,0,0,1,,,,,,,,,,,,,
6601a1251731342a7891c4f1,SCR,2024-06-21_12h48.10.012,LearnStrategy,2023.2.3,Win32,60.24096386,4,1,2,0.063888903,-0.392592607,1,0,0,1.3108,Andesite_09,1,09,1,5,1.311,1,09,-0.329629616,-0.255555541,1,0,0,5.3968,Andesite_rect,1,5.397,1,1,0,1,0,1,,,,,,,,,,,,,
6601a1251731342a7891c4f1,SCR,2024-06-21_12h48.10.012,LearnStrategy,2023.2.3,Win32,60.24096386,4,1,3,0.348148205,-0.073148162,1,0,0,1.2456,Obsidian_11,5,11,3,7,1.246,5,11,-0.344444452,-0.392592607,1,0,0,17.0121,Obsidian_rect,5,17.012,1,2,0,2,0,1,,,,,,,,,,,,,
6601a1251731342a7891c4f1,SCR,2024-06-21_12h48.10.012,LearnStrategy,2023.2.3,Win32,60.24096386,4,1,4,-0.562037044,0.390740739,1,0,0,1.4793,Andesite_10,1,10,6,1,1.479,1,10,0.312037009,-0.25462963,1,0,0,12.5296,Gabbro_rect,4,12.53,0,3,0,3,0,1,,,,,,,,,,,,,
6601a1251731342a7891c4f1,SCR,2024-06-21_12h48.10.012,LearnStrategy,2023.2.3,Win32,60.24096386,4,1,5,-0.10555557,-0.417592578,1,0,0,1.1105,Andesite_01,1,01,1,4,1.11,1,01,-0.384259259,-0.262962977,1,0,0,6.9137,Andesite_rect,1,6.914,1,4,0,4,0,1,,,,,,,,,,,,,
6601a1251731342a7891c4f1,SCR,2024-06-21_12h48.10.012,LearnStrategy,2023.2.3,Win32,60.24096386,4,1,6,-0.509259259,-0.08888891,1,0,0,1.6402,Diorite_12,3,12,3,1,1.64,3,12,0.078703704,-0.242592635,1,0,0,5.1711,Diorite_rect,3,5.171,1,5,0,5,0,1,,,,,,,,,,,,,
6601a1251731342a7891c4f1,SCR,2024-06-21_12h48.10.012,LearnStrategy,2023.2.3,Win32,60.24096386,4,1,7,0.582407492,0.081481474,1,0,0,1.2272,Pumice_04,8,04,4,8,1.227,8,04,0.407407407,-0.40370369,1,0,0,11.163,Pumice_rect,8,11.163,1,6,0,6,0,1,,,,,,,,,,,,,
6601a1251731342a7891c4f1,SCR,2024-06-21_12h48.10.012,LearnStrategy,2023.2.3,Win32,60.24096386,4,1,8,-0.371296282,0.235185182,1,0,0,1.3058,Andesite_07,1,07,5,2,1.306,1,07,0.097222222,-0.231481481,1,0,0,17.3217,Diorite_rect,3,17.322,0,7,0,7,0,1,,,,,,,,,,,,,
6601a1251731342a7891c4f1,SCR,2024-06-21_12h48.10.012,LearnStrategy,2023.2.3,Win32,60.24096386,4,1,9,0.02870369,0.085185192,1,0,0,1.028,Pegmatite_13,6,13,4,5,1.028,6,13,0.174074102,-0.249074088,1,0,0,11.7025,Diorite_rect,3,11.702,0,8,0,8,0,1,,,,,,,,,,,,,
6601a1251731342a7891c4f1,SCR,2024-06-21_12h48.10.012,LearnStrategy,2023.2.3,Win32,60.24096386,4,1,10,0.214814857,0.387037039,1,0,0,1.1457,Basalt_09,2,09,6,6,1.146,2,09,-0.378703683,-0.265740783,1,0,0,31.2386,Andesite_rect,1,31.239,0,9,0,9,0,1,,,,,,,,,,,,,
6601a1251731342a7891c4f1,SCR,2024-06-21_12h48.10.012,LearnStrategy,2023.2.3,Win32,60.24096386,4,1,11,0.346296381,-0.433333362,1,0,0,1.5117,Diorite_02,3,02,1,7,1.512,3,02,-0.35833334,-0.257407436,1,0,0,3.9975,Andesite_rect,1,3.997,0,10,0,10,0,1,,,,,,,,,,,,,
6601a1251731342a7891c4f1,SCR,2024-06-21_12h48.10.012,LearnStrategy,2023.2.3,Win32,60.24096386,4,1,12,-0.578703704,-0.087037051,1,0,0,2.2284,Diorite_12,3,12,3,1,2.228,3,12,0.138888889,-0.250925912,1,0,0,4.3562,Diorite_rect,3,4.356,1,11,0,11,0,1,,,,,,,,,,,,,
6601a1251731342a7891c4f1,SCR,2024-06-21_12h48.10.012,LearnStrategy,2023.2.3,Win32,60.24096386,4,1,13,-0.063888903,0.099999993,1,0,0,1.0081,Gabbro_01,4,01,4,4,1.008,4,01,0.154629672,-0.248148176,1,0,0,3.5142,Diorite_rect,3,3.514,0,12,0,12,0,1,,,,,,,,,,,,,
6601a1251731342a7891c4f1,SCR,2024-06-21_12h48.10.012,LearnStrategy,2023.2.3,Win32,60.24096386,4,1,14,0.369444529,0.068518497,1,0,0,1.1771,Peridotite_15,7,15,4,7,1.177,7,15,0.137962977,-0.409259302,1,0,0,5.7746,Peridotite_rect,7,5.775,1,13,0,13,0,1,,,,,,,,,,,,,
6601a1251731342a7891c4f1,SCR,2024-06-21_12h48.10.012,LearnStrategy,2023.2.3,Win32,60.24096386,4,1,15,0.417592649,0.099999993,1,0,0,1.1131,Peridotite_15,7,15,4,7,1.113,7,15,0.139814801,-0.413888931,1,0,0,1.7485,Peridotite_rect,7,1.749,1,14,0,14,0,1,,,,,,,,,,,,,
6601a1251731342a7891c4f1,SCR,2024-06-21_12h48.10.012,LearnStrategy,2023.2.3,Win32,60.24096386,4,1,16,0.05277782,0.409259257,1,0,0,1.6613,Peridotite_14,7,14,6,5,1.661,7,14,0.160185213,-0.408333319,1,0,0,4.8655,Peridotite_rect,7,4.865,1,15,0,15,0,1,,,,,,,,,,,,,
6601a1251731342a7891c4f1,SCR,2024-06-21_12h48.10.012,LearnStrategy,2023.2.3,Win32,60.24096386,4,2,1,,,,,,,,2,10,,,,,,,,,,,,,2,11.863,1,,,,,,-0.111111111,-0.262037065,1,0,0,11.8634,Basalt_rect,0,0,0,0,1,
6601a1251731342a7891c4f1,SCR,2024-06-21_12h48.10.012,LearnStrategy,2023.2.3,Win32,60.24096386,4,2,2,,,,,,,,4,15,,,,,,,,,,,,,4,11.279,1,,,,,,0.3648149,-0.262962977,1,0,0,11.2789,Gabbro_rect,1,0,1,0,1,
6601a1251731342a7891c4f1,SCR,2024-06-21_12h48.10.012,LearnStrategy,2023.2.3,Win32,60.24096386,4,2,3,,,,,,,,8,14,,,,,,,,,,,,,8,6.689,1,,,,,,0.376851824,-0.389814801,1,0,0,6.6892,Pumice_rect,2,0,2,0,1,
6601a1251731342a7891c4f1,SCR,2024-06-21_12h48.10.012,LearnStrategy,2023.2.3,Win32,60.24096386,4,2,4,,,,,,,,3,07,,,,,,,,,,,,,3,4.306,1,,,,,,0.113888917,-0.25462963,1,0,0,4.3059,Diorite_rect,3,0,3,0,1,
6601a1251731342a7891c4f1,SCR,2024-06-21_12h48.10.012,LearnStrategy,2023.2.3,Win32,60.24096386,4,2,5,,,,,,,,1,04,,,,,,,,,,,,,6,10.722,0,,,,,,-0.10555557,-0.389814801,1,0,0,10.7217,Pegmatite_rect,4,0,4,0,1,
6601a1251731342a7891c4f1,SCR,2024-06-21_12h48.10.012,LearnStrategy,2023.2.3,Win32,60.24096386,4,2,6,,,,,,,,6,15,,,,,,,,,,,,,6,2.807,1,,,,,,-0.10555557,-0.389814801,1,0,0,2.8071,Pegmatite_rect,5,0,5,0,1,
6601a1251731342a7891c4f1,SCR,2024-06-21_12h48.10.012,LearnStrategy,2023.2.3,Win32,60.24096386,4,2,7,,,,,,,,7,05,,,,,,,,,,,,,6,5.298,0,,,,,,-0.10555557,-0.389814801,1,0,0,5.2977,Pegmatite_rect,6,0,6,0,1,
6601a1251731342a7891c4f1,SCR,2024-06-21_12h48.10.012,LearnStrategy,2023.2.3,Win32,60.24096386,4,2,8,,,,,,,,2,06,,,,,,,,,,,,,2,6.28,1,,,,,,-0.123148106,-0.262037065,1,0,0,6.2803,Basalt_rect,7,0,7,0,1,
6601a1251731342a7891c4f1,SCR,2024-06-21_12h48.10.012,LearnStrategy,2023.2.3,Win32,60.24096386,4,2,9,,,,,,,,1,03,,,,,,,,,,,,,2,0.991,0,,,,,,-0.123148106,-0.262037065,1,0,0,0.9911,Basalt_rect,8,0,8,0,1,
6601a1251731342a7891c4f1,SCR,2024-06-21_12h48.10.012,LearnStrategy,2023.2.3,Win32,60.24096386,4,2,10,,,,,,,,5,09,,,,,,,,,,,,,5,5.998,1,,,,,,-0.342592593,-0.415740755,1,0,0,5.9985,Obsidian_rect,9,0,9,0,1,
6601a1251731342a7891c4f1,SCR,2024-06-21_12h48.10.012,LearnStrategy,2023.2.3,Win32,60.24096386,4,2,11,,,,,,,,6,16,,,,,,,,,,,,,6,14.461,1,,,,,,-0.138888889,-0.408333319,1,0,0,14.4613,Pegmatite_rect,10,0,10,0,1,
6601a1251731342a7891c4f1,SCR,2024-06-21_12h48.10.012,LearnStrategy,2023.2.3,Win32,60.24096386,4,2,12,,,,,,,,8,05,,,,,,,,,,,,,8,6.123,1,,,,,,0.366666723,-0.382407436,1,0,0,6.1232,Pumice_rect,11,0,11,0,1,
6601a1251731342a7891c4f1,SCR,2024-06-21_12h48.10.012,LearnStrategy,2023.2.3,Win32,60.24096386,4,2,13,,,,,,,,7,02,,,,,,,,,,,,,5,9.54,0,,,,,,-0.3824074,-0.415740755,1,0,0,9.54,Obsidian_rect,12,0,12,0,1,
6601a1251731342a7891c4f1,SCR,2024-06-21_12h48.10.012,LearnStrategy,2023.2.3,Win32,60.24096386,4,2,14,,,,,,,,5,14,,,,,,,,,,,,,5,8.406,1,,,,,,-0.3824074,-0.415740755,1,0,0,8.4059,Obsidian_rect,13,0,13,0,1,
6601a1251731342a7891c4f1,SCR,2024-06-21_12h48.10.012,LearnStrategy,2023.2.3,Win32,60.24096386,4,2,15,,,,,,,,4,05,,,,,,,,,,,,,7,9.947,0,,,,,,0.098148134,-0.418518561,1,0,0,9.9474,Peridotite_rect,14,0,14,0,1,
6601a1251731342a7891c4f1,SCR,2024-06-21_12h48.10.012,LearnStrategy,2023.2.3,Win32,60.24096386,4,2,16,,,,,,,,3,10,,,,,,,,,,,,,4,6.259,0,,,,,,0.376851824,-0.243518547,1,0,0,6.259,Gabbro_rect,15,0,15,0,1,
6601a1251731342a7891c4f1,SCR,2024-06-21_12h48.10.012,LearnStrategy,2023.2.3,Win32,60.24096386,5,1,1,-0.056481467,0.225925922,1,0,0,1.5593,Basalt_05,2,05,5,4,1.559,2,05,-0.135185171,-0.265740783,1,0,0,53.8256,Basalt_rect,2,53.826,1,0,0,0,0,1,,,,,,,,,,,,,
6601a1251731342a7891c4f1,SCR,2024-06-21_12h48.10.012,LearnStrategy,2023.2.3,Win32,60.24096386,5,1,2,-0.069444444,0.068518497,1,0,0,1.0296,Gabbro_01,4,01,4,4,1.03,4,01,0.160185213,-0.252777806,1,0,0,1.2828,Diorite_rect,3,1.283,0,1,0,1,0,1,,,,,,,,,,,,,
6601a1251731342a7891c4f1,SCR,2024-06-21_12h48.10.012,LearnStrategy,2023.2.3,Win32,60.24096386,5,1,3,-0.062037009,-0.395370413,1,0,0,1.3003,Andesite_01,1,01,1,4,1.3,1,01,-0.353703711,-0.242592635,1,0,0,4.6479,Andesite_rect,1,4.648,1,2,0,2,0,1,,,,,,,,,,,,,
6601a1251731342a7891c4f1,SCR,2024-06-21_12h48.10.012,LearnStrategy,2023.2.3,Win32,60.24096386,5,1,4,-0.560185185,-0.412962949,1,0,0,2.1089,Diorite_09,3,09,1,1,2.109,3,09,-0.118518476,-0.37962963,1,0,0,7.4579,Pegmatite_rect,6,7.458,0,3,0,3,0,1,,,,,,,,,,,,,
6601a1251731342a7891c4f1,SCR,2024-06-21_12h48.10.012,LearnStrategy,2023.2.3,Win32,60.24096386,5,1,5,-0.211111069,-0.237037023,1,0,0,0.9948,Gabbro_03,4,03,2,3,0.995,4,03,-0.398148148,-0.271296325,1,0,0,6.106,Andesite_rect,1,6.106,0,4,0,4,0,1,,,,,,,,,,,,,
6601a1251731342a7891c4f1,SCR,2024-06-21_12h48.10.012,LearnStrategy,2023.2.3,Win32,60.24096386,5,1,6,-0.073148162,0.360185182,1,0,0,1.3462,Peridotite_16,7,16,6,4,1.346,7,16,0.12962963,-0.385185171,1,0,0,6.3153,Peridotite_rect,7,6.315,1,5,0,5,0,1,,,,,,,,,,,,,
6601a1251731342a7891c4f1,SCR,2024-06-21_12h48.10.012,LearnStrategy,2023.2.3,Win32,60.24096386,5,1,7,-0.546296296,0.398148148,1,0,0,1.1947,Andesite_10,1,10,6,1,1.195,1,10,-0.424999979,-0.239814829,1,0,0,6.4024,Andesite_rect,1,6.402,1,6,0,6,0,1,,,,,,,,,,,,,
6601a1251731342a7891c4f1,SCR,2024-06-21_12h48.10.012,LearnStrategy,2023.2.3,Win32,60.24096386,5,1,8,0.369444529,-0.124074088,1,0,0,1.4946,Obsidian_11,5,11,3,7,1.495,5,11,-0.414814808,-0.415740755,1,0,0,5.0417,Obsidian_rect,5,5.042,1,7,0,7,0,1,,,,,,,,,,,,,
6601a1251731342a7891c4f1,SCR,2024-06-21_12h48.10.012,LearnStrategy,2023.2.3,Win32,60.24096386,5,1,9,-0.213888875,0.240740741,1,0,0,1.3115,Pegmatite_10,6,10,5,3,1.312,6,10,-0.082407422,-0.409259302,1,0,0,6.997,Pegmatite_rect,6,6.997,1,8,0,8,0,1,,,,,,,,,,,,,
6601a1251731342a7891c4f1,SCR,2024-06-21_12h48.10.012,LearnStrategy,2023.2.3,Win32,60.24096386,5,1,10,-0.074999986,0.402777778,1,0,0,1.1122,Peridotite_16,7,16,6,4,1.112,7,16,0.126851894,-0.388888889,1,0,0,15.2776,Peridotite_rect,7,15.278,1,9,0,9,0,1,,,,,,,,,,,,,
6601a1251731342a7891c4f1,SCR,2024-06-21_12h48.10.012,LearnStrategy,2023.2.3,Win32,60.24096386,5,1,11,0.092592593,-0.420370384,1,0,0,1.6764,Andesite_09,1,09,1,5,1.676,1,09,-0.365740741,-0.241666653,1,0,0,10.7438,Andesite_rect,1,10.744,1,10,0,10,0,1,,,,,,,,,,,,,
6601a1251731342a7891c4f1,SCR,2024-06-21_12h48.10.012,LearnStrategy,2023.2.3,Win32,60.24096386,5,1,12,0.396296325,0.091666645,1,0,0,1.1316,Peridotite_15,7,15,4,7,1.132,7,15,0.157407407,-0.404629672,1,0,0,15.2854,Peridotite_rect,7,15.285,1,11,0,11,0,1,,,,,,,,,,,,,
6601a1251731342a7891c4f1,SCR,2024-06-21_12h48.10.012,LearnStrategy,2023.2.3,Win32,60.24096386,5,1,13,-0.380555541,-0.079629651,1,0,0,1.8127,Andesite_06,1,06,3,2,1.813,1,06,-0.395370377,-0.255555541,1,0,0,4.0995,Andesite_rect,1,4.099,1,12,0,12,0,1,,,,,,,,,,,,,
6601a1251731342a7891c4f1,SCR,2024-06-21_12h48.10.012,LearnStrategy,2023.2.3,Win32,60.24096386,5,1,14,0.387963048,-0.39444443,1,0,0,1.6106,Diorite_02,3,02,1,7,1.611,3,02,0.099074116,-0.240740741,1,0,0,7.3422,Diorite_rect,3,7.342,1,13,0,13,0,1,,,,,,,,,,,,,
6601a1251731342a7891c4f1,SCR,2024-06-21_12h48.10.012,LearnStrategy,2023.2.3,Win32,60.24096386,5,1,15,0.381481453,0.409259257,1,0,0,1.1119,Pumice_10,8,10,6,7,1.112,8,10,0.138888889,-0.237963005,1,0,0,7.0479,Diorite_rect,3,7.048,0,14,0,14,0,1,,,,,,,,,,,,,
6601a1251731342a7891c4f1,SCR,2024-06-21_12h48.10.012,LearnStrategy,2023.2.3,Win32,60.24096386,5,1,16,0.384259259,-0.416666667,1,0,0,1.3605,Diorite_02,3,02,1,7,1.36,3,02,0.192592621,-0.244444459,1,0,0,7.8078,Diorite_rect,3,7.808,1,15,0,15,0,1,,,,,,,,,,,,,
6601a1251731342a7891c4f1,SCR,2024-06-21_12h48.10.012,LearnStrategy,2023.2.3,Win32,60.24096386,5,2,1,,,,,,,,1,02,,,,,,,,,,,,,8,17.986,0,,,,,,0.357407464,-0.408333319,1,0,0,17.9857,Pumice_rect,0,0,0,0,1,
6601a1251731342a7891c4f1,SCR,2024-06-21_12h48.10.012,LearnStrategy,2023.2.3,Win32,60.24096386,5,2,2,,,,,,,,5,07,,,,,,,,,,,,,5,8.823,1,,,,,,-0.312962956,-0.400000042,1,0,0,8.8234,Obsidian_rect,1,0,1,0,1,
6601a1251731342a7891c4f1,SCR,2024-06-21_12h48.10.012,LearnStrategy,2023.2.3,Win32,60.24096386,5,2,3,,,,,,,,2,02,,,,,,,,,,,,,3,13.933,0,,,,,,0.178703732,-0.250925912,1,0,0,13.9326,Diorite_rect,2,0,2,0,1,
6601a1251731342a7891c4f1,SCR,2024-06-21_12h48.10.012,LearnStrategy,2023.2.3,Win32,60.24096386,5,2,4,,,,,,,,6,07,,,,,,,,,,,,,3,2.749,0,,,,,,0.155555584,-0.271296325,1,0,0,2.7486,Diorite_rect,3,0,3,0,1,
6601a1251731342a7891c4f1,SCR,2024-06-21_12h48.10.012,LearnStrategy,2023.2.3,Win32,60.24096386,5,2,5,,,,,,,,5,10,,,,,,,,,,,,,5,6.44,1,,,,,,-0.376851859,-0.397222236,1,0,0,6.44,Obsidian_rect,4,0,4,0,1,
6601a1251731342a7891c4f1,SCR,2024-06-21_12h48.10.012,LearnStrategy,2023.2.3,Win32,60.24096386,5,2,6,,,,,,,,8,13,,,,,,,,,,,,,8,7.14,1,,,,,,0.405555584,-0.37962963,1,0,0,7.1395,Pumice_rect,5,0,5,0,1,
6601a1251731342a7891c4f1,SCR,2024-06-21_12h48.10.012,LearnStrategy,2023.2.3,Win32,60.24096386,5,2,7,,,,,,,,7,13,,,,,,,,,,,,,3,4.482,0,,,,,,0.131481524,-0.258333347,1,0,0,4.482,Diorite_rect,6,0,6,0,1,
6601a1251731342a7891c4f1,SCR,2024-06-21_12h48.10.012,LearnStrategy,2023.2.3,Win32,60.24096386,5,2,8,,,,,,,,3,16,,,,,,,,,,,,,6,13.687,0,,,,,,-0.062962921,-0.407407407,1,0,0,13.6872,Pegmatite_rect,7,0,7,0,1,
6601a1251731342a7891c4f1,SCR,2024-06-21_12h48.10.012,LearnStrategy,2023.2.3,Win32,60.24096386,5,2,9,,,,,,,,8,08,,,,,,,,,,,,,8,6.199,1,,,,,,0.350000028,-0.405555584,1,0,0,6.1988,Pumice_rect,8,0,8,0,1,
6601a1251731342a7891c4f1,SCR,2024-06-21_12h48.10.012,LearnStrategy,2023.2.3,Win32,60.24096386,5,2,10,,,,,,,,4,08,,,,,,,,,,,,,8,3.703,0,,,,,,0.350000028,-0.405555584,1,0,0,3.7026,Pumice_rect,9,0,9,0,1,
6601a1251731342a7891c4f1,SCR,2024-06-21_12h48.10.012,LearnStrategy,2023.2.3,Win32,60.24096386,5,2,11,,,,,,,,2,16,,,,,,,,,,,,,8,17.744,0,,,,,,0.375925982,-0.39907406,1,0,0,17.7437,Pumice_rect,10,0,10,0,1,
6601a1251731342a7891c4f1,SCR,2024-06-21_12h48.10.012,LearnStrategy,2023.2.3,Win32,60.24096386,5,2,12,,,,,,,,6,06,,,,,,,,,,,,,7,6.823,0,,,,,,0.151851866,-0.412037037,1,0,0,6.8231,Peridotite_rect,11,0,11,0,1,
6601a1251731342a7891c4f1,SCR,2024-06-21_12h48.10.012,LearnStrategy,2023.2.3,Win32,60.24096386,5,2,13,,,,,,,,7,08,,,,,,,,,,,,,3,8.48,0,,,,,,0.146296325,-0.251851894,1,0,0,8.4802,Diorite_rect,12,0,12,0,1,
6601a1251731342a7891c4f1,SCR,2024-06-21_12h48.10.012,LearnStrategy,2023.2.3,Win32,60.24096386,5,2,14,,,,,,,,4,09,,,,,,,,,,,,,3,4.732,0,,,,,,0.146296325,-0.251851894,1,0,0,4.7317,Diorite_rect,13,0,13,0,1,
6601a1251731342a7891c4f1,SCR,2024-06-21_12h48.10.012,LearnStrategy,2023.2.3,Win32,60.24096386,5,2,15,,,,,,,,1,16,,,,,,,,,,,,,3,4.948,0,,,,,,0.118518547,-0.252777806,1,0,0,4.9479,Diorite_rect,14,0,14,0,1,
6601a1251731342a7891c4f1,SCR,2024-06-21_12h48.10.012,LearnStrategy,2023.2.3,Win32,60.24096386,5,2,16,,,,,,,,3,06,,,,,,,,,,,,,8,5.781,0,,,,,,0.431481538,-0.39907406,1,0,0,5.7808,Pumice_rect,15,0,15,0,1,
6601a1251731342a7891c4f1,SCR,2024-06-21_12h48.10.012,LearnStrategy,2023.2.3,Win32,60.24096386,6,1,1,0.531481566,-0.280555584,1,0,0,2.3582,Basalt_11,2,11,2,8,2.358,2,11,0.359259288,-0.398148148,1,0,0,3.6813,Pumice_rect,8,3.681,0,0,0,0,0,1,,,,,,,,,,,,,
6601a1251731342a7891c4f1,SCR,2024-06-21_12h48.10.012,LearnStrategy,2023.2.3,Win32,60.24096386,6,1,2,-0.526851831,0.36851852,1,0,0,1.1944,Andesite_10,1,10,6,1,1.194,1,10,-0.186111097,-0.247222265,1,0,0,2.7429,Basalt_rect,2,2.743,0,1,0,1,0,1,,,,,,,,,,,,,
6601a1251731342a7891c4f1,SCR,2024-06-21_12h48.10.012,LearnStrategy,2023.2.3,Win32,60.24096386,6,1,3,0.506481453,0.223148152,1,0,0,1.3203,Pumice_06,8,06,5,8,1.32,8,06,0.430555556,-0.396296325,1,0,0,2.8996,Pumice_rect,8,2.9,1,2,0,2,0,1,,,,,,,,,,,,,
6601a1251731342a7891c4f1,SCR,2024-06-21_12h48.10.012,LearnStrategy,2023.2.3,Win32,60.24096386,6,1,4,-0.388888889,0.391666668,1,0,0,1.9755,Gabbro_10,4,10,6,2,1.976,4,10,0.356481481,-0.409259302,1,0,0,3.718,Pumice_rect,8,3.718,0,3,0,3,0,1,,,,,,,,,,,,,
6601a1251731342a7891c4f1,SCR,2024-06-21_12h48.10.012,LearnStrategy,2023.2.3,Win32,60.24096386,6,1,5,-0.385185171,-0.076851845,1,0,0,1.5949,Andesite_06,1,06,3,2,1.595,1,06,-0.349999993,-0.39907406,1,0,0,5.4484,Obsidian_rect,5,5.448,0,4,0,4,0,1,,,,,,,,,,,,,
6601a1251731342a7891c4f1,SCR,2024-06-21_12h48.10.012,LearnStrategy,2023.2.3,Win32,60.24096386,6,1,6,0.039814843,-0.070370392,1,0,0,0.9267,Peridotite_07,7,07,3,5,0.927,7,07,-0.151851866,-0.251851894,1,0,0,1.7659,Basalt_rect,2,1.766,0,5,0,5,0,1,,,,,,,,,,,,,
6601a1251731342a7891c4f1,SCR,2024-06-21_12h48.10.012,LearnStrategy,2023.2.3,Win32,60.24096386,6,1,7,0.100000028,-0.109259288,1,0,0,1.2457,Peridotite_07,7,07,3,5,1.246,7,07,0.111111111,-0.256481524,1,0,0,1.934,Diorite_rect,3,1.934,0,6,0,6,0,1,,,,,,,,,,,,,
6601a1251731342a7891c4f1,SCR,2024-06-21_12h48.10.012,LearnStrategy,2023.2.3,Win32,60.24096386,6,1,8,-0.075925898,0.148148148,1,0,0,0.8948,Gabbro_01,4,01,4,4,0.895,4,01,0.414814843,-0.39444443,1,0,0,3.9566,Pumice_rect,8,3.957,0,7,0,7,0,1,,,,,,,,,,,,,
6601a1251731342a7891c4f1,SCR,2024-06-21_12h48.10.012,LearnStrategy,2023.2.3,Win32,60.24096386,6,1,9,0.080555598,-0.385185171,1,0,0,1.3086,Andesite_09,1,09,1,5,1.309,1,09,-0.458333333,-0.263888889,1,0,0,5.9913,Andesite_rect,1,5.991,1,8,0,8,0,1,,,,,,,,,,,,,
6601a1251731342a7891c4f1,SCR,2024-06-21_12h48.10.012,LearnStrategy,2023.2.3,Win32,60.24096386,6,1,10,-0.241666653,0.386111109,1,0,0,1.1464,Diorite_15,3,15,6,3,1.146,3,15,0.125,-0.256481524,1,0,0,6.4977,Diorite_rect,3,6.498,1,9,0,9,0,1,,,,,,,,,,,,,
6601a1251731342a7891c4f1,SCR,2024-06-21_12h48.10.012,LearnStrategy,2023.2.3,Win32,60.24096386,6,1,11,-0.053703661,0.205555545,1,0,0,1.1314,Basalt_05,2,05,5,4,1.131,2,05,-0.127777735,-0.24537037,1,0,0,5.7809,Basalt_rect,2,5.781,1,10,0,10,0,1,,,,,,,,,,,,,
6601a1251731342a7891c4f1,SCR,2024-06-21_12h48.10.012,LearnStrategy,2023.2.3,Win32,60.24096386,6,1,12,-0.222222222,0.382407409,1,0,0,1.9469,Diorite_15,3,15,6,3,1.947,3,15,0.108333376,-0.258333347,1,0,0,6.6388,Diorite_rect,3,6.639,1,11,0,11,0,1,,,,,,,,,,,,,
6601a1251731342a7891c4f1,SCR,2024-06-21_12h48.10.012,LearnStrategy,2023.2.3,Win32,60.24096386,6,1,13,0.227777764,-0.433333362,1,0,0,1.2132,Peridotite_04,7,04,1,6,1.213,7,04,0.137037065,-0.401851866,1,0,0,7.9631,Peridotite_rect,7,7.963,1,12,0,12,0,1,,,,,,,,,,,,,
6601a1251731342a7891c4f1,SCR,2024-06-21_12h48.10.012,LearnStrategy,2023.2.3,Win32,60.24096386,6,1,14,-0.063888903,-0.101851852,1,0,0,0.9297,Pegmatite_08,6,08,3,4,0.93,6,08,-0.137962977,-0.411111125,1,0,0,7.5782,Pegmatite_rect,6,7.578,1,13,0,13,0,1,,,,,,,,,,,,,
6601a1251731342a7891c4f1,SCR,2024-06-21_12h48.10.012,LearnStrategy,2023.2.3,Win32,60.24096386,6,1,15,0.588888945,0.430555556,1,0,0,1.3136,Pegmatite_11,6,11,6,8,1.314,6,11,0.101851852,-0.414814843,1,0,0,3.7898,Peridotite_rect,7,3.79,0,14,0,14,0,1,,,,,,,,,,,,,
6601a1251731342a7891c4f1,SCR,2024-06-21_12h48.10.012,LearnStrategy,2023.2.3,Win32,60.24096386,6,1,16,-0.223148134,0.079629616,1,0,0,1.2793,Diorite_13,3,13,4,3,1.279,3,13,0.337037122,-0.244444459,1,0,0,3.8801,Gabbro_rect,4,3.88,0,15,0,15,0,1,,,,,,,,,,,,,
6601a1251731342a7891c4f1,SCR,2024-06-21_12h48.10.012,LearnStrategy,2023.2.3,Win32,60.24096386,6,2,1,,,,,,,,3,08,,,,,,,,,,,,,4,4.648,0,,,,,,0.435185185,-0.268518519,1,0,0,4.6482,Gabbro_rect,0,0,0,0,1,
6601a1251731342a7891c4f1,SCR,2024-06-21_12h48.10.012,LearnStrategy,2023.2.3,Win32,60.24096386,6,2,2,,,,,,,,3,11,,,,,,,,,,,,,7,7.274,0,,,,,,0.09629631,-0.417592578,1,0,0,7.2744,Peridotite_rect,1,0,1,0,1,
6601a1251731342a7891c4f1,SCR,2024-06-21_12h48.10.012,LearnStrategy,2023.2.3,Win32,60.24096386,6,2,3,,,,,,,,6,09,,,,,,,,,,,,,6,4.599,1,,,,,,-0.084259245,-0.420370384,1,0,0,4.5988,Pegmatite_rect,2,0,2,0,1,
6601a1251731342a7891c4f1,SCR,2024-06-21_12h48.10.012,LearnStrategy,2023.2.3,Win32,60.24096386,6,2,4,,,,,,,,1,14,,,,,,,,,,,,,7,2.999,0,,,,,,0.12037037,-0.409259302,1,0,0,2.9987,Peridotite_rect,3,0,3,0,1,
6601a1251731342a7891c4f1,SCR,2024-06-21_12h48.10.012,LearnStrategy,2023.2.3,Win32,60.24096386,6,2,5,,,,,,,,1,11,,,,,,,,,,,,,7,7.131,0,,,,,,0.087037051,-0.401851866,1,0,0,7.131,Peridotite_rect,4,0,4,0,1,
6601a1251731342a7891c4f1,SCR,2024-06-21_12h48.10.012,LearnStrategy,2023.2.3,Win32,60.24096386,6,2,6,,,,,,,,2,01,,,,,,,,,,,,,2,24.192,1,,,,,,-0.071296268,-0.26944443,1,0,0,24.1916,Basalt_rect,5,0,5,0,1,
6601a1251731342a7891c4f1,SCR,2024-06-21_12h48.10.012,LearnStrategy,2023.2.3,Win32,60.24096386,6,2,7,,,,,,,,5,06,,,,,,,,,,,,,5,6.416,1,,,,,,-0.331481474,-0.404629672,1,0,0,6.4155,Obsidian_rect,6,0,6,0,1,
6601a1251731342a7891c4f1,SCR,2024-06-21_12h48.10.012,LearnStrategy,2023.2.3,Win32,60.24096386,6,2,8,,,,,,,,2,08,,,,,,,,,,,,,2,3.447,1,,,,,,-0.142592607,-0.242592635,1,0,0,3.4468,Basalt_rect,7,0,7,0,1,
6601a1251731342a7891c4f1,SCR,2024-06-21_12h48.10.012,LearnStrategy,2023.2.3,Win32,60.24096386,6,2,9,,,,,,,,7,12,,,,,,,,,,,,,7,5.598,1,,,,,,0.041666667,-0.387037065,1,0,0,5.598,Peridotite_rect,8,0,8,0,1,
6601a1251731342a7891c4f1,SCR,2024-06-21_12h48.10.012,LearnStrategy,2023.2.3,Win32,60.24096386,6,2,10,,,,,,,,8,09,,,,,,,,,,,,,8,6.265,1,,,,,,0.40833339,-0.39907406,1,0,0,6.2646,Pumice_rect,9,0,9,0,1,
6601a1251731342a7891c4f1,SCR,2024-06-21_12h48.10.012,LearnStrategy,2023.2.3,Win32,60.24096386,6,2,11,,,,,,,,4,16,,,,,,,,,,,,,2,6.281,0,,,,,,-0.083333333,-0.25462963,1,0,0,6.281,Basalt_rect,10,0,10,0,1,
6601a1251731342a7891c4f1,SCR,2024-06-21_12h48.10.012,LearnStrategy,2023.2.3,Win32,60.24096386,6,2,12,,,,,,,,8,03,,,,,,,,,,,,,8,6.848,1,,,,,,0.42777775,-0.409259302,1,0,0,6.8475,Pumice_rect,11,0,11,0,1,
6601a1251731342a7891c4f1,SCR,2024-06-21_12h48.10.012,LearnStrategy,2023.2.3,Win32,60.24096386,6,2,13,,,,,,,,5,16,,,,,,,,,,,,,5,6.533,1,,,,,,-0.365740741,-0.400925954,1,0,0,6.5332,Obsidian_rect,12,0,12,0,1,
6601a1251731342a7891c4f1,SCR,2024-06-21_12h48.10.012,LearnStrategy,2023.2.3,Win32,60.24096386,6,2,14,,,,,,,,6,05,,,,,,,,,,,,,6,8.699,1,,,,,,-0.108333305,-0.406481496,1,0,0,8.6994,Pegmatite_rect,13,0,13,0,1,
6601a1251731342a7891c4f1,SCR,2024-06-21_12h48.10.012,LearnStrategy,2023.2.3,Win32,60.24096386,6,2,15,,,,,,,,4,12,,,,,,,,,,,,,4,6.506,1,,,,,,0.440740797,-0.25,1,0,0,6.5059,Gabbro_rect,14,0,14,0,1,
6601a1251731342a7891c4f1,SCR,2024-06-21_12h48.10.012,LearnStrategy,2023.2.3,Win32,60.24096386,6,2,16,,,,,,,,7,06,,,,,,,,,,,,,3,13.021,0,,,,,,0.155555584,-0.248148176,1,0,0,13.0215,Diorite_rect,15,0,15,0,1,
6601a1251731342a7891c4f1,SCR,2024-06-21_12h48.10.012,LearnStrategy,2023.2.3,Win32,60.24096386,7,1,1,-0.534259266,-0.390740783,1,0,0,1.555,Diorite_09,3,09,1,1,1.555,3,09,0.163888931,-0.248148176,1,0,0,4.1546,Diorite_rect,3,4.155,1,0,0,0,0,1,,,,,,,,,,,,,
6601a1251731342a7891c4f1,SCR,2024-06-21_12h48.10.012,LearnStrategy,2023.2.3,Win32,60.24096386,7,1,2,0.444444444,-0.246296282,1,0,0,7.3765,Basalt_12,2,12,2,7,7.376,2,12,-0.321296303,-0.239814829,1,0,0,1.4408,Andesite_rect,1,1.441,0,1,0,1,0,1,,,,,,,,,,,,,
6601a1251731342a7891c4f1,SCR,2024-06-21_12h48.10.012,LearnStrategy,2023.2.3,Win32,60.24096386,7,1,3,-0.242592564,-0.101851852,1,0,0,1.1492,Pumice_16,8,16,3,3,1.149,8,16,0.358333305,-0.388888889,1,0,0,4.9992,Pumice_rect,8,4.999,1,2,0,2,0,1,,,,,,,,,,,,,
6601a1251731342a7891c4f1,SCR,2024-06-21_12h48.10.012,LearnStrategy,2023.2.3,Win32,60.24096386,7,1,4,-0.348148134,0.048148155,1,0,0,1.1143,Gabbro_11,4,11,4,2,1.114,4,11,0.365740741,-0.248148176,1,0,0,4.3479,Gabbro_rect,4,4.348,1,3,0,3,0,1,,,,,,,,,,,,,
6601a1251731342a7891c4f1,SCR,2024-06-21_12h48.10.012,LearnStrategy,2023.2.3,Win32,60.24096386,7,1,5,0.07685188,0.25462963,1,0,0,4.1945,Diorite_14,3,14,5,5,4.195,3,14,0.389814871,-0.238888917,1,0,0,3.9281,Gabbro_rect,4,3.928,0,4,0,4,0,1,,,,,,,,,,,,,
6601a1251731342a7891c4f1,SCR,2024-06-21_12h48.10.012,LearnStrategy,2023.2.3,Win32,60.24096386,7,1,6,-0.213888875,-0.387962977,1,0,0,1.1722,Obsidian_04,5,04,1,3,1.172,5,04,-0.417592578,-0.412037037,1,0,0,3.82,Obsidian_rect,5,3.82,1,5,0,5,0,1,,,,,,,,,,,,,
6601a1251731342a7891c4f1,SCR,2024-06-21_12h48.10.012,LearnStrategy,2023.2.3,Win32,60.24096386,7,1,7,0.039814843,0.130555541,1,0,0,1.012,Pegmatite_13,6,13,4,5,1.012,6,13,0.116666653,-0.397222236,1,0,0,8.6969,Peridotite_rect,7,8.697,0,6,0,6,0,1,,,,,,,,,,,,,
6601a1251731342a7891c4f1,SCR,2024-06-21_12h48.10.012,LearnStrategy,2023.2.3,Win32,60.24096386,7,1,8,0.409259231,0.091666645,1,0,0,13.1189,Peridotite_15,7,15,4,7,13.119,7,15,0.166666667,-0.401851866,1,0,0,2.8846,Peridotite_rect,7,2.885,1,7,0,7,0,1,,,,,,,,,,,,,
6601a1251731342a7891c4f1,SCR,2024-06-21_12h48.10.012,LearnStrategy,2023.2.3,Win32,60.24096386,7,1,9,0.102777764,-0.410185213,1,0,0,10.5281,Andesite_09,1,09,1,5,10.528,1,09,0.347222222,-0.248148176,1,0,0,1.2482,Gabbro_rect,4,1.248,0,8,0,8,0,1,,,,,,,,,,,,,
6601a1251731342a7891c4f1,SCR,2024-06-21_12h48.10.012,LearnStrategy,2023.2.3,Win32,60.24096386,7,1,10,-0.51666666,-0.079629651,1,0,0,1.3289,Diorite_12,3,12,3,1,1.329,3,12,0.167592578,-0.229629658,1,0,0,4.6147,Diorite_rect,3,4.615,1,9,0,9,0,1,,,,,,,,,,,,,
6601a1251731342a7891c4f1,SCR,2024-06-21_12h48.10.012,LearnStrategy,2023.2.3,Win32,60.24096386,7,1,11,0.397222307,0.067592586,1,0,0,1.5294,Peridotite_15,7,15,4,7,1.529,7,15,0.14907406,-0.415740755,1,0,0,7.197,Peridotite_rect,7,7.197,1,10,0,10,0,1,,,,,,,,,,,,,
6601a1251731342a7891c4f1,SCR,2024-06-21_12h48.10.012,LearnStrategy,2023.2.3,Win32,60.24096386,7,1,12,-0.366666653,0.070370356,1,0,0,1.289,Gabbro_11,4,11,4,2,1.289,4,11,0.37037037,-0.250925912,1,0,0,6.2247,Gabbro_rect,4,6.225,1,11,0,11,0,1,,,,,,,,,,,,,
6601a1251731342a7891c4f1,SCR,2024-06-21_12h48.10.012,LearnStrategy,2023.2.3,Win32,60.24096386,7,1,13,0.347222222,0.075925933,1,0,0,1.5619,Peridotite_15,7,15,4,7,1.562,7,15,0.152777778,-0.416666667,1,0,0,4.054,Peridotite_rect,7,4.054,1,12,0,12,0,1,,,,,,,,,,,,,
6601a1251731342a7891c4f1,SCR,2024-06-21_12h48.10.012,LearnStrategy,2023.2.3,Win32,60.24096386,7,1,14,0.409259231,-0.397222236,1,0,0,1.2792,Diorite_02,3,02,1,7,1.279,3,02,0.155555584,-0.244444459,1,0,0,5.1146,Diorite_rect,3,5.115,1,13,0,13,0,1,,,,,,,,,,,,,
6601a1251731342a7891c4f1,SCR,2024-06-21_12h48.10.012,LearnStrategy,2023.2.3,Win32,60.24096386,7,1,15,-0.567592586,0.235185182,1,0,0,1.2449,Andesite_05,1,05,5,1,1.245,1,05,-0.373148141,-0.252777806,1,0,0,4.4321,Andesite_rect,1,4.432,1,14,0,14,0,1,,,,,,,,,,,,,
6601a1251731342a7891c4f1,SCR,2024-06-21_12h48.10.012,LearnStrategy,2023.2.3,Win32,60.24096386,7,1,16,-0.374074053,-0.070370392,1,0,0,1.1787,Andesite_06,1,06,3,2,1.179,1,06,-0.424074067,-0.24537037,1,0,0,3.9981,Andesite_rect,1,3.998,1,15,0,15,0,1,,,,,,,,,,,,,
6601a1251731342a7891c4f1,SCR,2024-06-21_12h48.10.012,LearnStrategy,2023.2.3,Win32,60.24096386,7,2,1,,,,,,,,6,16,,,,,,,,,,,,,8,14.964,0,,,,,,0.382407436,-0.405555584,1,0,0,14.9637,Pumice_rect,0,0,0,0,1,
6601a1251731342a7891c4f1,SCR,2024-06-21_12h48.10.012,LearnStrategy,2023.2.3,Win32,60.24096386,7,2,2,,,,,,,,5,09,,,,,,,,,,,,,5,5.864,1,,,,,,-0.362037023,-0.417592578,1,0,0,5.8643,Obsidian_rect,1,0,1,0,1,
6601a1251731342a7891c4f1,SCR,2024-06-21_12h48.10.012,LearnStrategy,2023.2.3,Win32,60.24096386,7,2,3,,,,,,,,8,08,,,,,,,,,,,,,8,20.254,1,,,,,,0.392592677,-0.402777778,1,0,0,20.2543,Pumice_rect,2,0,2,0,1,
6601a1251731342a7891c4f1,SCR,2024-06-21_12h48.10.012,LearnStrategy,2023.2.3,Win32,60.24096386,7,2,4,,,,,,,,3,16,,,,,,,,,,,,,5,15.963,0,,,,,,-0.323148127,-0.37962963,1,0,0,15.9631,Obsidian_rect,3,0,3,0,1,
6601a1251731342a7891c4f1,SCR,2024-06-21_12h48.10.012,LearnStrategy,2023.2.3,Win32,60.24096386,7,2,5,,,,,,,,3,08,,,,,,,,,,,,,1,4.706,0,,,,,,-0.318518497,-0.261111153,1,0,0,4.7062,Andesite_rect,4,0,4,0,1,
6601a1251731342a7891c4f1,SCR,2024-06-21_12h48.10.012,LearnStrategy,2023.2.3,Win32,60.24096386,7,2,6,,,,,,,,2,08,,,,,,,,,,,,,4,10.988,0,,,,,,0.399999972,-0.235185199,1,0,0,10.9879,Gabbro_rect,5,0,5,0,1,
6601a1251731342a7891c4f1,SCR,2024-06-21_12h48.10.012,LearnStrategy,2023.2.3,Win32,60.24096386,7,2,7,,,,,,,,7,12,,,,,,,,,,,,,6,10.48,0,,,,,,-0.116666653,-0.393518519,1,0,0,10.4795,Pegmatite_rect,6,0,6,0,1,
6601a1251731342a7891c4f1,SCR,2024-06-21_12h48.10.012,LearnStrategy,2023.2.3,Win32,60.24096386,7,2,8,,,,,,,,8,03,,,,,,,,,,,,,8,6.885,1,,,,,,0.395370342,-0.406481496,1,0,0,6.8845,Pumice_rect,7,0,7,0,1,
6601a1251731342a7891c4f1,SCR,2024-06-21_12h48.10.012,LearnStrategy,2023.2.3,Win32,60.24096386,7,2,9,,,,,,,,1,04,,,,,,,,,,,,,2,8.248,0,,,,,,-0.107407393,-0.246296282,1,0,0,8.2485,Basalt_rect,8,0,8,0,1,
6601a1251731342a7891c4f1,SCR,2024-06-21_12h48.10.012,LearnStrategy,2023.2.3,Win32,60.24096386,7,2,10,,,,,,,,4,08,,,,,,,,,,,,,1,32.338,0,,,,,,-0.356481481,-0.232407393,1,0,0,32.3381,Andesite_rect,9,0,9,0,1,
6601a1251731342a7891c4f1,SCR,2024-06-21_12h48.10.012,LearnStrategy,2023.2.3,Win32,60.24096386,7,2,11,,,,,,,,6,09,,,,,,,,,,,,,6,8.607,1,,,,,,-0.151851866,-0.412962949,1,0,0,8.6066,Pegmatite_rect,10,0,10,0,1,
6601a1251731342a7891c4f1,SCR,2024-06-21_12h48.10.012,LearnStrategy,2023.2.3,Win32,60.24096386,7,2,12,,,,,,,,4,12,,,,,,,,,,,,,4,10.055,1,,,,,,0.479629658,-0.234259288,1,0,0,10.0549,Gabbro_rect,11,0,11,0,1,
6601a1251731342a7891c4f1,SCR,2024-06-21_12h48.10.012,LearnStrategy,2023.2.3,Win32,60.24096386,7,2,13,,,,,,,,7,06,,,,,,,,,,,,,4,5.215,0,,,,,,0.450000057,-0.268518519,1,0,0,5.2146,Gabbro_rect,12,0,12,0,1,
6601a1251731342a7891c4f1,SCR,2024-06-21_12h48.10.012,LearnStrategy,2023.2.3,Win32,60.24096386,7,2,14,,,,,,,,5,14,,,,,,,,,,,,,5,7.097,1,,,,,,-0.321296303,-0.402777778,1,0,0,7.0972,Obsidian_rect,13,0,13,0,1,
6601a1251731342a7891c4f1,SCR,2024-06-21_12h48.10.012,LearnStrategy,2023.2.3,Win32,60.24096386,7,2,15,,,,,,,,2,10,,,,,,,,,,,,,2,18.702,1,,,,,,-0.139814801,-0.241666653,1,0,0,18.7022,Basalt_rect,14,0,14,0,1,
6601a1251731342a7891c4f1,SCR,2024-06-21_12h48.10.012,LearnStrategy,2023.2.3,Win32,60.24096386,7,2,16,,,,,,,,1,02,,,,,,,,,,,,,8,9.513,0,,,,,,0.382407436,-0.417592578,1,0,0,9.5134,Pumice_rect,15,0,15,0,1,
6601a1251731342a7891c4f1,SCR,2024-06-21_12h48.10.012,LearnStrategy,2023.2.3,Win32,60.24096386,8,1,1,-0.359259252,0.392592589,1,0,0,1.9793,Gabbro_10,4,10,6,2,1.979,4,10,0.382407436,-0.262037065,1,0,0,10.9285,Gabbro_rect,4,10.928,1,0,0,0,0,1,,,,,,,,,,,,,
6601a1251731342a7891c4f1,SCR,2024-06-21_12h48.10.012,LearnStrategy,2023.2.3,Win32,60.24096386,8,1,2,-0.208333333,0.242592582,1,0,0,1.4457,Pegmatite_10,6,10,5,3,1.446,6,10,-0.09629631,-0.417592578,1,0,0,5.5058,Pegmatite_rect,6,5.506,1,1,0,1,0,1,,,,,,,,,,,,,
6601a1251731342a7891c4f1,SCR,2024-06-21_12h48.10.012,LearnStrategy,2023.2.3,Win32,60.24096386,8,1,3,-0.543518526,0.24166667,1,0,0,1.2736,Andesite_05,1,05,5,1,1.274,1,05,-0.351851852,-0.24537037,1,0,0,6.6746,Andesite_rect,1,6.675,1,2,0,2,0,1,,,,,,,,,,,,,
6601a1251731342a7891c4f1,SCR,2024-06-21_12h48.10.012,LearnStrategy,2023.2.3,Win32,60.24096386,8,1,4,0.193518533,0.417592587,1,0,0,1.2132,Basalt_09,2,09,6,6,1.213,2,09,-0.073148162,-0.268518519,1,0,0,15.9435,Basalt_rect,2,15.943,1,3,0,3,0,1,,,,,,,,,,,,,
6601a1251731342a7891c4f1,SCR,2024-06-21_12h48.10.012,LearnStrategy,2023.2.3,Win32,60.24096386,8,1,5,0.094444487,0.226851852,1,0,0,1.5614,Diorite_14,3,14,5,5,1.561,3,14,-0.337037016,-0.408333319,1,0,0,7.3468,Obsidian_rect,5,7.347,0,4,0,4,0,1,,,,,,,,,,,,,
6601a1251731342a7891c4f1,SCR,2024-06-21_12h48.10.012,LearnStrategy,2023.2.3,Win32,60.24096386,8,1,6,-0.553703697,-0.240740741,1,0,0,1.311,Pegmatite_12,6,12,2,1,1.311,6,12,-0.146296254,-0.39444443,1,0,0,9.3733,Pegmatite_rect,6,9.373,1,5,0,5,0,1,,,,,,,,,,,,,
6601a1251731342a7891c4f1,SCR,2024-06-21_12h48.10.012,LearnStrategy,2023.2.3,Win32,60.24096386,8,1,7,-0.423148155,-0.434259273,1,0,0,1.2663,Pumice_15,8,15,1,2,1.266,8,15,0.42314812,-0.409259302,1,0,0,5.3797,Pumice_rect,8,5.38,1,6,0,6,0,1,,,,,,,,,,,,,
6601a1251731342a7891c4f1,SCR,2024-06-21_12h48.10.012,LearnStrategy,2023.2.3,Win32,60.24096386,8,1,8,0.087962963,0.402777778,1,0,0,1.095,Peridotite_14,7,14,6,5,1.095,7,14,0.134259259,-0.390740783,1,0,0,8.0986,Peridotite_rect,7,8.099,1,7,0,7,0,1,,,,,,,,,,,,,
6601a1251731342a7891c4f1,SCR,2024-06-21_12h48.10.012,LearnStrategy,2023.2.3,Win32,60.24096386,8,1,9,-0.228703675,0.099074081,1,0,0,0.9781,Diorite_13,3,13,4,3,0.978,3,13,0.119444459,-0.262962977,1,0,0,11.2065,Diorite_rect,3,11.207,1,8,0,8,0,1,,,,,,,,,,,,,
6601a1251731342a7891c4f1,SCR,2024-06-21_12h48.10.012,LearnStrategy,2023.2.3,Win32,60.24096386,8,1,10,0.20648151,-0.244444459,1,0,0,1.2281,Gabbro_14,4,14,2,6,1.228,4,14,-0.122222194,-0.250925912,1,0,0,6.0053,Basalt_rect,2,6.005,0,9,0,9,0,1,,,,,,,,,,,,,
6601a1251731342a7891c4f1,SCR,2024-06-21_12h48.10.012,LearnStrategy,2023.2.3,Win32,60.24096386,8,1,11,-0.049074032,-0.400925954,1,0,0,1.1778,Andesite_01,1,01,1,4,1.178,1,01,0.186111097,-0.268518519,1,0,0,19.2291,Diorite_rect,3,19.229,0,10,0,10,0,1,,,,,,,,,,,,,
6601a1251731342a7891c4f1,SCR,2024-06-21_12h48.10.012,LearnStrategy,2023.2.3,Win32,60.24096386,8,1,12,-0.207407422,0.078703704,1,0,0,0.9897,Diorite_13,3,13,4,3,0.99,3,13,0.154629672,-0.242592635,1,0,0,7.9572,Diorite_rect,3,7.957,1,11,0,11,0,1,,,,,,,,,,,,,
6601a1251731342a7891c4f1,SCR,2024-06-21_12h48.10.012,LearnStrategy,2023.2.3,Win32,60.24096386,8,1,13,-0.523148148,0.234259252,1,0,0,1.3781,Andesite_05,1,05,5,1,1.378,1,05,-0.465740734,-0.251851894,1,0,0,4.6334,Andesite_rect,1,4.633,1,12,0,12,0,1,,,,,,,,,,,,,
6601a1251731342a7891c4f1,SCR,2024-06-21_12h48.10.012,LearnStrategy,2023.2.3,Win32,60.24096386,8,1,14,-0.068518533,0.274074078,1,0,0,0.9786,Basalt_05,2,05,5,4,0.979,2,05,-0.084259245,-0.26944443,1,0,0,8.6795,Basalt_rect,2,8.679,1,13,0,13,0,1,,,,,,,,,,,,,
6601a1251731342a7891c4f1,SCR,2024-06-21_12h48.10.012,LearnStrategy,2023.2.3,Win32,60.24096386,8,1,15,0.233333376,-0.408333319,1,0,0,1.2618,Peridotite_04,7,04,1,6,1.262,7,04,0.170370384,-0.39444443,1,0,0,9.9967,Peridotite_rect,7,9.997,1,14,0,14,0,1,,,,,,,,,,,,,
6601a1251731342a7891c4f1,SCR,2024-06-21_12h48.10.012,LearnStrategy,2023.2.3,Win32,60.24096386,8,1,16,0.097222222,-0.076851845,1,0,0,0.9807,Peridotite_07,7,07,3,5,0.981,7,07,0.140740783,-0.23055557,1,0,0,10.014,Diorite_rect,3,10.014,0,15,0,15,0,1,,,,,,,,,,,,,
6601a1251731342a7891c4f1,SCR,2024-06-21_12h48.10.012,LearnStrategy,2023.2.3,Win32,60.24096386,8,2,1,,,,,,,,5,06,,,,,,,,,,,,,5,6.19,1,,,,,,-0.347222222,-0.412037037,1,0,0,6.1903,Obsidian_rect,0,0,0,0,1,
6601a1251731342a7891c4f1,SCR,2024-06-21_12h48.10.012,LearnStrategy,2023.2.3,Win32,60.24096386,8,2,2,,,,,,,,2,01,,,,,,,,,,,,,2,13.826,1,,,,,,-0.142592607,-0.267592607,1,0,0,13.8259,Basalt_rect,1,0,1,0,1,
6601a1251731342a7891c4f1,SCR,2024-06-21_12h48.10.012,LearnStrategy,2023.2.3,Win32,60.24096386,8,2,3,,,,,,,,6,15,,,,,,,,,,,,,6,7.106,1,,,,,,-0.073148162,-0.391666695,1,0,0,7.1058,Pegmatite_rect,2,0,2,0,1,
6601a1251731342a7891c4f1,SCR,2024-06-21_12h48.10.012,LearnStrategy,2023.2.3,Win32,60.24096386,8,2,4,,,,,,,,5,10,,,,,,,,,,,,,5,7.445,1,,,,,,-0.400925919,-0.416666667,1,0,0,7.4455,Obsidian_rect,3,0,3,0,1,
6601a1251731342a7891c4f1,SCR,2024-06-21_12h48.10.012,LearnStrategy,2023.2.3,Win32,60.24096386,8,2,5,,,,,,,,7,13,,,,,,,,,,,,,3,7.465,0,,,,,,0.063888903,-0.255555541,1,0,0,7.4652,Diorite_rect,4,0,4,0,1,
6601a1251731342a7891c4f1,SCR,2024-06-21_12h48.10.012,LearnStrategy,2023.2.3,Win32,60.24096386,8,2,6,,,,,,,,3,10,,,,,,,,,,,,,3,2.816,1,,,,,,0.142592607,-0.246296282,1,0,0,2.8164,Diorite_rect,5,0,5,0,1,
6601a1251731342a7891c4f1,SCR,2024-06-21_12h48.10.012,LearnStrategy,2023.2.3,Win32,60.24096386,8,2,7,,,,,,,,2,02,,,,,,,,,,,,,2,8.964,1,,,,,,-0.107407393,-0.237963005,1,0,0,8.9643,Basalt_rect,6,0,6,0,1,
6601a1251731342a7891c4f1,SCR,2024-06-21_12h48.10.012,LearnStrategy,2023.2.3,Win32,60.24096386,8,2,8,,,,,,,,8,09,,,,,,,,,,,,,8,5.829,1,,,,,,0.40370376,-0.416666667,1,0,0,5.8295,Pumice_rect,7,0,7,0,1,
6601a1251731342a7891c4f1,SCR,2024-06-21_12h48.10.012,LearnStrategy,2023.2.3,Win32,60.24096386,8,2,9,,,,,,,,7,02,,,,,,,,,,,,,7,10.18,1,,,,,,0.147222236,-0.39444443,1,0,0,10.1799,Peridotite_rect,8,0,8,0,1,
6601a1251731342a7891c4f1,SCR,2024-06-21_12h48.10.012,LearnStrategy,2023.2.3,Win32,60.24096386,8,2,10,,,,,,,,4,15,,,,,,,,,,,,,7,5.382,0,,,,,,0.139814801,-0.402777778,1,0,0,5.3823,Peridotite_rect,9,0,9,0,1,
6601a1251731342a7891c4f1,SCR,2024-06-21_12h48.10.012,LearnStrategy,2023.2.3,Win32,60.24096386,8,2,11,,,,,,,,3,07,,,,,,,,,,,,,6,1.94,0,,,,,,-0.083333333,-0.400925954,1,0,0,1.9396,Pegmatite_rect,10,0,10,0,1,
6601a1251731342a7891c4f1,SCR,2024-06-21_12h48.10.012,LearnStrategy,2023.2.3,Win32,60.24096386,8,2,12,,,,,,,,1,03,,,,,,,,,,,,,2,7.631,0,,,,,,-0.125925912,-0.25,1,0,0,7.6309,Basalt_rect,11,0,11,0,1,
6601a1251731342a7891c4f1,SCR,2024-06-21_12h48.10.012,LearnStrategy,2023.2.3,Win32,60.24096386,8,2,13,,,,,,,,1,14,,,,,,,,,,,,,7,2.415,0,,,,,,0.087037051,-0.391666695,1,0,0,2.415,Peridotite_rect,12,0,12,0,1,
6601a1251731342a7891c4f1,SCR,2024-06-21_12h48.10.012,LearnStrategy,2023.2.3,Win32,60.24096386,8,2,14,,,,,,,,6,07,,,,,,,,,,,,,5,2.317,0,,,,,,-0.395370377,-0.396296325,1,0,0,2.3169,Obsidian_rect,13,0,13,0,1,
6601a1251731342a7891c4f1,SCR,2024-06-21_12h48.10.012,LearnStrategy,2023.2.3,Win32,60.24096386,8,2,15,,,,,,,,8,05,,,,,,,,,,,,,8,6.189,1,,,,,,0.37962963,-0.412037037,1,0,0,6.1895,Pumice_rect,14,0,14,0,1,
6601a1251731342a7891c4f1,SCR,2024-06-21_12h48.10.012,LearnStrategy,2023.2.3,Win32,60.24096386,8,2,16,,,,,,,,4,09,,,,,,,,,,,,,5,3.04,0,,,,,,-0.375,-0.39444443,1,0,0,3.0404,Obsidian_rect,15,0,15,0,1,
6601a1251731342a7891c4f1,SCR,2024-06-21_12h48.10.012,LearnStrategy,2023.2.3,Win32,60.24096386,9,1,1,-0.577777757,0.418518517,1,0,0,1.6449,Andesite_10,1,10,6,1,1.645,1,10,0.098148134,-0.412962949,1,0,0,10.2076,Peridotite_rect,7,10.208,0,0,0,0,0,1,,,,,,,,,,,,,
6601a1251731342a7891c4f1,SCR,2024-06-21_12h48.10.012,LearnStrategy,2023.2.3,Win32,60.24096386,9,1,2,-0.544444437,0.091666645,1,0,0,1.2737,Basalt_04,2,04,4,1,1.274,2,04,-0.150925884,-0.241666653,1,0,0,9.0304,Basalt_rect,2,9.03,1,1,0,1,0,1,,,,,,,,,,,,,
6601a1251731342a7891c4f1,SCR,2024-06-21_12h48.10.012,LearnStrategy,2023.2.3,Win32,60.24096386,9,1,3,0.088888875,-0.375,1,0,0,1.3303,Andesite_09,1,09,1,5,1.33,1,09,-0.350925905,-0.250925912,1,0,0,7.3788,Andesite_rect,1,7.379,1,2,0,2,0,1,,,,,,,,,,,,,
6601a1251731342a7891c4f1,SCR,2024-06-21_12h48.10.012,LearnStrategy,2023.2.3,Win32,60.24096386,9,1,4,-0.228703675,-0.268518519,1,0,0,1.0784,Gabbro_03,4,03,2,3,1.078,4,03,0.42314812,-0.253703718,1,0,0,5.6313,Gabbro_rect,4,5.631,1,3,0,3,0,1,,,,,,,,,,,,,
6601a1251731342a7891c4f1,SCR,2024-06-21_12h48.10.012,LearnStrategy,2023.2.3,Win32,60.24096386,9,1,5,-0.401851831,-0.108333376,1,0,0,1.0607,Andesite_06,1,06,3,2,1.061,1,06,-0.392592571,-0.251851894,1,0,0,6.5575,Andesite_rect,1,6.557,1,4,0,4,0,1,,,,,,,,,,,,,
6601a1251731342a7891c4f1,SCR,2024-06-21_12h48.10.012,LearnStrategy,2023.2.3,Win32,60.24096386,9,1,6,-0.515740748,-0.223148134,1,0,0,1.1623,Pegmatite_12,6,12,2,1,1.162,6,12,-0.161111125,-0.414814843,1,0,0,5.5895,Pegmatite_rect,6,5.59,1,5,0,5,0,1,,,,,,,,,,,,,
6601a1251731342a7891c4f1,SCR,2024-06-21_12h48.10.012,LearnStrategy,2023.2.3,Win32,60.24096386,9,1,7,-0.522222201,-0.385185171,1,0,0,1.229,Diorite_09,3,09,1,1,1.229,3,09,0.130555541,-0.412037037,1,0,0,8.8615,Peridotite_rect,7,8.861,0,6,0,6,0,1,,,,,,,,,,,,,
6601a1251731342a7891c4f1,SCR,2024-06-21_12h48.10.012,LearnStrategy,2023.2.3,Win32,60.24096386,9,1,8,-0.239814829,-0.20648151,1,0,0,0.9287,Gabbro_03,4,03,2,3,0.929,4,03,0.394444501,-0.243518547,1,0,0,5.6469,Gabbro_rect,4,5.647,1,7,0,7,0,1,,,,,,,,,,,,,
6601a1251731342a7891c4f1,SCR,2024-06-21_12h48.10.012,LearnStrategy,2023.2.3,Win32,60.24096386,9,1,9,0.341666751,0.237037041,1,0,0,1.3953,Gabbro_13,4,13,5,7,1.395,4,13,0.468518575,-0.259259259,1,0,0,6.5158,Gabbro_rect,4,6.516,1,8,0,8,0,1,,,,,,,,,,,,,
6601a1251731342a7891c4f1,SCR,2024-06-21_12h48.10.012,LearnStrategy,2023.2.3,Win32,60.24096386,9,1,10,-0.193518533,0.101851852,1,0,0,1.1283,Diorite_13,3,13,4,3,1.128,3,13,0.146296325,-0.258333347,1,0,0,5.7088,Diorite_rect,3,5.709,1,9,0,9,0,1,,,,,,,,,,,,,
6601a1251731342a7891c4f1,SCR,2024-06-21_12h48.10.012,LearnStrategy,2023.2.3,Win32,60.24096386,9,1,11,-0.543518526,-0.066666674,1,0,0,1.1611,Diorite_12,3,12,3,1,1.161,3,12,0.122222265,-0.25,1,0,0,5.7603,Diorite_rect,3,5.76,1,10,0,10,0,1,,,,,,,,,,,,,
6601a1251731342a7891c4f1,SCR,2024-06-21_12h48.10.012,LearnStrategy,2023.2.3,Win32,60.24096386,9,1,12,0.07222225,-0.066666674,1,0,0,0.8955,Peridotite_07,7,07,3,5,0.896,7,07,0.171296296,-0.249074088,1,0,0,2.1571,Diorite_rect,3,2.157,0,11,0,11,0,1,,,,,,,,,,,,,
6601a1251731342a7891c4f1,SCR,2024-06-21_12h48.10.012,LearnStrategy,2023.2.3,Win32,60.24096386,9,1,13,-0.061111097,0.417592587,1,0,0,1.1296,Peridotite_16,7,16,6,4,1.13,7,16,0.082407422,-0.391666695,1,0,0,9.1479,Peridotite_rect,7,9.148,1,12,0,12,0,1,,,,,,,,,,,,,
6601a1251731342a7891c4f1,SCR,2024-06-21_12h48.10.012,LearnStrategy,2023.2.3,Win32,60.24096386,9,1,14,0.373148176,-0.130555541,1,0,0,1.6613,Obsidian_11,5,11,3,7,1.661,5,11,-0.3824074,-0.421296296,1,0,0,1.6218,Obsidian_rect,5,1.622,1,13,0,13,0,1,,,,,,,,,,,,,
6601a1251731342a7891c4f1,SCR,2024-06-21_12h48.10.012,LearnStrategy,2023.2.3,Win32,60.24096386,9,1,15,0.087962963,0.068518497,1,0,0,0.9302,Pegmatite_13,6,13,4,5,0.93,6,13,-0.082407422,-0.246296282,1,0,0,1.3995,Basalt_rect,2,1.399,0,14,0,14,0,1,,,,,,,,,,,,,
6601a1251731342a7891c4f1,SCR,2024-06-21_12h48.10.012,LearnStrategy,2023.2.3,Win32,60.24096386,9,1,16,-0.054629644,-0.244444459,1,0,0,1.0467,Peridotite_10,7,10,2,4,1.047,7,10,0.116666653,-0.255555541,1,0,0,10.1905,Diorite_rect,3,10.19,0,15,0,15,0,1,,,,,,,,,,,,,
6601a1251731342a7891c4f1,SCR,2024-06-21_12h48.10.012,LearnStrategy,2023.2.3,Win32,60.24096386,9,2,1,,,,,,,,6,05,,,,,,,,,,,,,5,3.707,0,,,,,,-0.36296297,-0.406481496,1,0,0,3.7071,Obsidian_rect,0,0,0,0,1,
6601a1251731342a7891c4f1,SCR,2024-06-21_12h48.10.012,LearnStrategy,2023.2.3,Win32,60.24096386,9,2,2,,,,,,,,8,13,,,,,,,,,,,,,8,7.241,1,,,,,,0.389814871,-0.387962977,1,0,0,7.2413,Pumice_rect,1,0,1,0,1,
6601a1251731342a7891c4f1,SCR,2024-06-21_12h48.10.012,LearnStrategy,2023.2.3,Win32,60.24096386,9,2,3,,,,,,,,7,08,,,,,,,,,,,,,3,12.261,0,,,,,,0.162037037,-0.235185199,1,0,0,12.2609,Diorite_rect,2,0,2,0,1,
6601a1251731342a7891c4f1,SCR,2024-06-21_12h48.10.012,LearnStrategy,2023.2.3,Win32,60.24096386,9,2,4,,,,,,,,1,11,,,,,,,,,,,,,1,9.846,1,,,,,,-0.363888882,-0.236111111,1,0,0,9.8465,Andesite_rect,3,0,3,0,1,
6601a1251731342a7891c4f1,SCR,2024-06-21_12h48.10.012,LearnStrategy,2023.2.3,Win32,60.24096386,9,2,5,,,,,,,,3,06,,,,,,,,,,,,,6,6.181,0,,,,,,-0.085185157,-0.40370369,1,0,0,6.1808,Pegmatite_rect,4,0,4,0,1,
6601a1251731342a7891c4f1,SCR,2024-06-21_12h48.10.012,LearnStrategy,2023.2.3,Win32,60.24096386,9,2,6,,,,,,,,4,05,,,,,,,,,,,,,7,1.616,0,,,,,,0.106481481,-0.398148148,1,0,0,1.6157,Peridotite_rect,5,0,5,0,1,
6601a1251731342a7891c4f1,SCR,2024-06-21_12h48.10.012,LearnStrategy,2023.2.3,Win32,60.24096386,9,2,7,,,,,,,,7,05,,,,,,,,,,,,,6,1.224,0,,,,,,-0.088888875,-0.414814843,1,0,0,1.2245,Pegmatite_rect,6,0,6,0,1,
6601a1251731342a7891c4f1,SCR,2024-06-21_12h48.10.012,LearnStrategy,2023.2.3,Win32,60.24096386,9,2,8,,,,,,,,3,11,,,,,,,,,,,,,6,4.624,0,,,,,,-0.088888875,-0.414814843,1,0,0,4.6237,Pegmatite_rect,7,0,7,0,1,
6601a1251731342a7891c4f1,SCR,2024-06-21_12h48.10.012,LearnStrategy,2023.2.3,Win32,60.24096386,9,2,9,,,,,,,,4,16,,,,,,,,,,,,,2,5.46,0,,,,,,-0.077777792,-0.233333376,1,0,0,5.4598,Basalt_rect,8,0,8,0,1,
6601a1251731342a7891c4f1,SCR,2024-06-21_12h48.10.012,LearnStrategy,2023.2.3,Win32,60.24096386,9,2,10,,,,,,,,8,14,,,,,,,,,,,,,8,7.99,1,,,,,,0.40370376,-0.400000042,1,0,0,7.9895,Pumice_rect,9,0,9,0,1,
6601a1251731342a7891c4f1,SCR,2024-06-21_12h48.10.012,LearnStrategy,2023.2.3,Win32,60.24096386,9,2,11,,,,,,,,6,06,,,,,,,,,,,,,6,14.053,1,,,,,,-0.126851824,-0.410185213,1,0,0,14.0535,Pegmatite_rect,10,0,10,0,1,
6601a1251731342a7891c4f1,SCR,2024-06-21_12h48.10.012,LearnStrategy,2023.2.3,Win32,60.24096386,9,2,12,,,,,,,,1,16,,,,,,,,,,,,,7,1.545,0,,,,,,0.118518547,-0.389814801,1,0,0,1.5446,Peridotite_rect,11,0,11,0,1,
6601a1251731342a7891c4f1,SCR,2024-06-21_12h48.10.012,LearnStrategy,2023.2.3,Win32,60.24096386,9,2,13,,,,,,,,2,06,,,,,,,,,,,,,2,7.796,1,,,,,,-0.161111125,-0.249074088,1,0,0,7.7956,Basalt_rect,12,0,12,0,1,
6601a1251731342a7891c4f1,SCR,2024-06-21_12h48.10.012,LearnStrategy,2023.2.3,Win32,60.24096386,9,2,14,,,,,,,,2,16,,,,,,,,,,,,,2,13.937,1,,,,,,-0.142592607,-0.251851894,1,0,0,13.9373,Basalt_rect,13,0,13,0,1,
6601a1251731342a7891c4f1,SCR,2024-06-21_12h48.10.012,LearnStrategy,2023.2.3,Win32,60.24096386,9,2,15,,,,,,,,5,07,,,,,,,,,,,,,5,1.898,1,,,,,,-0.337962963,-0.387962977,1,0,0,1.8982,Obsidian_rect,14,0,14,0,1,
6601a1251731342a7891c4f1,SCR,2024-06-21_12h48.10.012,LearnStrategy,2023.2.3,Win32,60.24096386,9,2,16,,,,,,,,5,16,,,,,,,,,,,,,5,1.057,1,,,,,,-0.337962963,-0.387962977,1,0,0,1.0574,Obsidian_rect,15,0,15,0,1,
6601a1251731342a7891c4f1,SCR,2024-06-21_12h48.10.012,LearnStrategy,2023.2.3,Win32,60.24096386,,,,,,,,,,,,,,,,,,,,,,,,,,,,,,,,,,,,,,,,,,,,,0
6601a1251731342a7891c4f1,SCR,2024-06-21_12h48.10.012,LearnStrategy,2023.2.3,Win32,60.24096386,,,,,,,,,,,,,,,,,,,,,,,,,,,,,,,,,,,,,,,,,,,,,
6601a1251731342a7891c4f1,SCR,2024-06-21_12h48.10.012,LearnStrategy,2023.2.3,Win32,60.24096386,,,,,,,,,,,3,09,1,1,,,,,,,,,,,,,,,,,,,,,,,,,,,,,,,
6601a1251731342a7891c4f1,SCR,2024-06-21_12h48.10.012,LearnStrategy,2023.2.3,Win32,60.24096386,,,,,,,,,,,8,15,1,2,,,,,,,,,,,,,,,,,,,,,,,,,,,,,,,
6601a1251731342a7891c4f1,SCR,2024-06-21_12h48.10.012,LearnStrategy,2023.2.3,Win32,60.24096386,,,,,,,,,,,5,04,1,3,,,,,,,,,,,,,,,,,,,,,,,,,,,,,,,
6601a1251731342a7891c4f1,SCR,2024-06-21_12h48.10.012,LearnStrategy,2023.2.3,Win32,60.24096386,,,,,,,,,,,1,01,1,4,,,,,,,,,,,,,,,,,,,,,,,,,,,,,,,
6601a1251731342a7891c4f1,SCR,2024-06-21_12h48.10.012,LearnStrategy,2023.2.3,Win32,60.24096386,,,,,,,,,,,1,09,1,5,,,,,,,,,,,,,,,,,,,,,,,,,,,,,,,
6601a1251731342a7891c4f1,SCR,2024-06-21_12h48.10.012,LearnStrategy,2023.2.3,Win32,60.24096386,,,,,,,,,,,7,04,1,6,,,,,,,,,,,,,,,,,,,,,,,,,,,,,,,
6601a1251731342a7891c4f1,SCR,2024-06-21_12h48.10.012,LearnStrategy,2023.2.3,Win32,60.24096386,,,,,,,,,,,3,02,1,7,,,,,,,,,,,,,,,,,,,,,,,,,,,,,,,
6601a1251731342a7891c4f1,SCR,2024-06-21_12h48.10.012,LearnStrategy,2023.2.3,Win32,60.24096386,,,,,,,,,,,5,02,1,8,,,,,,,,,,,,,,,,,,,,,,,,,,,,,,,
6601a1251731342a7891c4f1,SCR,2024-06-21_12h48.10.012,LearnStrategy,2023.2.3,Win32,60.24096386,,,,,,,,,,,6,12,2,1,,,,,,,,,,,,,,,,,,,,,,,,,,,,,,,
6601a1251731342a7891c4f1,SCR,2024-06-21_12h48.10.012,LearnStrategy,2023.2.3,Win32,60.24096386,,,,,,,,,,,5,05,2,2,,,,,,,,,,,,,,,,,,,,,,,,,,,,,,,
6601a1251731342a7891c4f1,SCR,2024-06-21_12h48.10.012,LearnStrategy,2023.2.3,Win32,60.24096386,,,,,,,,,,,4,03,2,3,,,,,,,,,,,,,,,,,,,,,,,,,,,,,,,
6601a1251731342a7891c4f1,SCR,2024-06-21_12h48.10.012,LearnStrategy,2023.2.3,Win32,60.24096386,,,,,,,,,,,7,10,2,4,,,,,,,,,,,,,,,,,,,,,,,,,,,,,,,
6601a1251731342a7891c4f1,SCR,2024-06-21_12h48.10.012,LearnStrategy,2023.2.3,Win32,60.24096386,,,,,,,,,,,5,12,2,5,,,,,,,,,,,,,,,,,,,,,,,,,,,,,,,
6601a1251731342a7891c4f1,SCR,2024-06-21_12h48.10.012,LearnStrategy,2023.2.3,Win32,60.24096386,,,,,,,,,,,4,14,2,6,,,,,,,,,,,,,,,,,,,,,,,,,,,,,,,
6601a1251731342a7891c4f1,SCR,2024-06-21_12h48.10.012,LearnStrategy,2023.2.3,Win32,60.24096386,,,,,,,,,,,2,12,2,7,,,,,,,,,,,,,,,,,,,,,,,,,,,,,,,
6601a1251731342a7891c4f1,SCR,2024-06-21_12h48.10.012,LearnStrategy,2023.2.3,Win32,60.24096386,,,,,,,,,,,2,11,2,8,,,,,,,,,,,,,,,,,,,,,,,,,,,,,,,
6601a1251731342a7891c4f1,SCR,2024-06-21_12h48.10.012,LearnStrategy,2023.2.3,Win32,60.24096386,,,,,,,,,,,3,12,3,1,,,,,,,,,,,,,,,,,,,,,,,,,,,,,,,
6601a1251731342a7891c4f1,SCR,2024-06-21_12h48.10.012,LearnStrategy,2023.2.3,Win32,60.24096386,,,,,,,,,,,1,06,3,2,,,,,,,,,,,,,,,,,,,,,,,,,,,,,,,
6601a1251731342a7891c4f1,SCR,2024-06-21_12h48.10.012,LearnStrategy,2023.2.3,Win32,60.24096386,,,,,,,,,,,8,16,3,3,,,,,,,,,,,,,,,,,,,,,,,,,,,,,,,
6601a1251731342a7891c4f1,SCR,2024-06-21_12h48.10.012,LearnStrategy,2023.2.3,Win32,60.24096386,,,,,,,,,,,6,08,3,4,,,,,,,,,,,,,,,,,,,,,,,,,,,,,,,
6601a1251731342a7891c4f1,SCR,2024-06-21_12h48.10.012,LearnStrategy,2023.2.3,Win32,60.24096386,,,,,,,,,,,7,07,3,5,,,,,,,,,,,,,,,,,,,,,,,,,,,,,,,
6601a1251731342a7891c4f1,SCR,2024-06-21_12h48.10.012,LearnStrategy,2023.2.3,Win32,60.24096386,,,,,,,,,,,5,08,3,6,,,,,,,,,,,,,,,,,,,,,,,,,,,,,,,
6601a1251731342a7891c4f1,SCR,2024-06-21_12h48.10.012,LearnStrategy,2023.2.3,Win32,60.24096386,,,,,,,,,,,5,11,3,7,,,,,,,,,,,,,,,,,,,,,,,,,,,,,,,
6601a1251731342a7891c4f1,SCR,2024-06-21_12h48.10.012,LearnStrategy,2023.2.3,Win32,60.24096386,,,,,,,,,,,8,02,3,8,,,,,,,,,,,,,,,,,,,,,,,,,,,,,,,
6601a1251731342a7891c4f1,SCR,2024-06-21_12h48.10.012,LearnStrategy,2023.2.3,Win32,60.24096386,,,,,,,,,,,2,04,4,1,,,,,,,,,,,,,,,,,,,,,,,,,,,,,,,
6601a1251731342a7891c4f1,SCR,2024-06-21_12h48.10.012,LearnStrategy,2023.2.3,Win32,60.24096386,,,,,,,,,,,4,11,4,2,,,,,,,,,,,,,,,,,,,,,,,,,,,,,,,
6601a1251731342a7891c4f1,SCR,2024-06-21_12h48.10.012,LearnStrategy,2023.2.3,Win32,60.24096386,,,,,,,,,,,3,13,4,3,,,,,,,,,,,,,,,,,,,,,,,,,,,,,,,
6601a1251731342a7891c4f1,SCR,2024-06-21_12h48.10.012,LearnStrategy,2023.2.3,Win32,60.24096386,,,,,,,,,,,4,01,4,4,,,,,,,,,,,,,,,,,,,,,,,,,,,,,,,
6601a1251731342a7891c4f1,SCR,2024-06-21_12h48.10.012,LearnStrategy,2023.2.3,Win32,60.24096386,,,,,,,,,,,6,13,4,5,,,,,,,,,,,,,,,,,,,,,,,,,,,,,,,
6601a1251731342a7891c4f1,SCR,2024-06-21_12h48.10.012,LearnStrategy,2023.2.3,Win32,60.24096386,,,,,,,,,,,6,03,4,6,,,,,,,,,,,,,,,,,,,,,,,,,,,,,,,
6601a1251731342a7891c4f1,SCR,2024-06-21_12h48.10.012,LearnStrategy,2023.2.3,Win32,60.24096386,,,,,,,,,,,7,15,4,7,,,,,,,,,,,,,,,,,,,,,,,,,,,,,,,
6601a1251731342a7891c4f1,SCR,2024-06-21_12h48.10.012,LearnStrategy,2023.2.3,Win32,60.24096386,,,,,,,,,,,8,04,4,8,,,,,,,,,,,,,,,,,,,,,,,,,,,,,,,
6601a1251731342a7891c4f1,SCR,2024-06-21_12h48.10.012,LearnStrategy,2023.2.3,Win32,60.24096386,,,,,,,,,,,1,05,5,1,,,,,,,,,,,,,,,,,,,,,,,,,,,,,,,
6601a1251731342a7891c4f1,SCR,2024-06-21_12h48.10.012,LearnStrategy,2023.2.3,Win32,60.24096386,,,,,,,,,,,1,07,5,2,,,,,,,,,,,,,,,,,,,,,,,,,,,,,,,
6601a1251731342a7891c4f1,SCR,2024-06-21_12h48.10.012,LearnStrategy,2023.2.3,Win32,60.24096386,,,,,,,,,,,6,10,5,3,,,,,,,,,,,,,,,,,,,,,,,,,,,,,,,
6601a1251731342a7891c4f1,SCR,2024-06-21_12h48.10.012,LearnStrategy,2023.2.3,Win32,60.24096386,,,,,,,,,,,2,05,5,4,,,,,,,,,,,,,,,,,,,,,,,,,,,,,,,
6601a1251731342a7891c4f1,SCR,2024-06-21_12h48.10.012,LearnStrategy,2023.2.3,Win32,60.24096386,,,,,,,,,,,3,14,5,5,,,,,,,,,,,,,,,,,,,,,,,,,,,,,,,
6601a1251731342a7891c4f1,SCR,2024-06-21_12h48.10.012,LearnStrategy,2023.2.3,Win32,60.24096386,,,,,,,,,,,2,14,5,6,,,,,,,,,,,,,,,,,,,,,,,,,,,,,,,
6601a1251731342a7891c4f1,SCR,2024-06-21_12h48.10.012,LearnStrategy,2023.2.3,Win32,60.24096386,,,,,,,,,,,4,13,5,7,,,,,,,,,,,,,,,,,,,,,,,,,,,,,,,
6601a1251731342a7891c4f1,SCR,2024-06-21_12h48.10.012,LearnStrategy,2023.2.3,Win32,60.24096386,,,,,,,,,,,8,06,5,8,,,,,,,,,,,,,,,,,,,,,,,,,,,,,,,
6601a1251731342a7891c4f1,SCR,2024-06-21_12h48.10.012,LearnStrategy,2023.2.3,Win32,60.24096386,,,,,,,,,,,1,10,6,1,,,,,,,,,,,,,,,,,,,,,,,,,,,,,,,
6601a1251731342a7891c4f1,SCR,2024-06-21_12h48.10.012,LearnStrategy,2023.2.3,Win32,60.24096386,,,,,,,,,,,4,10,6,2,,,,,,,,,,,,,,,,,,,,,,,,,,,,,,,
6601a1251731342a7891c4f1,SCR,2024-06-21_12h48.10.012,LearnStrategy,2023.2.3,Win32,60.24096386,,,,,,,,,,,3,15,6,3,,,,,,,,,,,,,,,,,,,,,,,,,,,,,,,
6601a1251731342a7891c4f1,SCR,2024-06-21_12h48.10.012,LearnStrategy,2023.2.3,Win32,60.24096386,,,,,,,,,,,7,16,6,4,,,,,,,,,,,,,,,,,,,,,,,,,,,,,,,
6601a1251731342a7891c4f1,SCR,2024-06-21_12h48.10.012,LearnStrategy,2023.2.3,Win32,60.24096386,,,,,,,,,,,7,14,6,5,,,,,,,,,,,,,,,,,,,,,,,,,,,,,,,
6601a1251731342a7891c4f1,SCR,2024-06-21_12h48.10.012,LearnStrategy,2023.2.3,Win32,60.24096386,,,,,,,,,,,2,09,6,6,,,,,,,,,,,,,,,,,,,,,,,,,,,,,,,
6601a1251731342a7891c4f1,SCR,2024-06-21_12h48.10.012,LearnStrategy,2023.2.3,Win32,60.24096386,,,,,,,,,,,8,10,6,7,,,,,,,,,,,,,,,,,,,,,,,,,,,,,,,
6601a1251731342a7891c4f1,SCR,2024-06-21_12h48.10.012,LearnStrategy,2023.2.3,Win32,60.24096386,,,,,,,,,,,6,11,6,8,,,,,,,,,,,,,,,,,,,,,,,,,,,,,,,