participant,condition,date,expName,psychopyVersion,OS,frameRate,block,phase,trial,learn_mouse_2.x,learn_mouse_2.y,learn_mouse_2.leftButton,learn_mouse_2.midButton,learn_mouse_2.rightButton,learn_mouse_2.time,learn_mouse_2.clicked_name,cat,token,row,col,t_select,cat_mouse_l.x,cat_mouse_l.y,cat_mouse_l.leftButton,cat_mouse_l.midButton,cat_mouse_l.rightButton,cat_mouse_l.time,cat_mouse_l.clicked_name,resp,t_resp,corr,train_trials.thisRepN,train_trials.thisTrialN,train_trials.thisN,train_trials.thisIndex,train_trials.ran,cat_mouse_t.x,cat_mouse_t.y,cat_mouse_t.leftButton,cat_mouse_t.midButton,cat_mouse_t.rightButton,cat_mouse_t.time,cat_mouse_t.clicked_name,test_trials.thisRepN,test_trials.thisTrialN,test_trials.thisN,test_trials.thisIndex,test_trials.ran,Bonus
66049d37ea3bcf8f98554347,TCR,2024-06-11_13h16.00.573,LearnStrategy,2023.2.3,Win32,59.88023952,,,,,,,,,,,,,,,,,,,,,,,,,,,,,,,,,,,,,,,,,,,
66049d37ea3bcf8f98554347,TCR,2024-06-11_13h16.00.573,LearnStrategy,2023.2.3,Win32,59.88023952,1,1,1,0.00390625,0,1,0,0,5.5618,rock_grid_rect_2,5,16,-1,-1,5.562,-0.39453125,-0.412760417,1,0,0,47.2003,Obsidian_rect,5,47.2,1,0,0,0,0,1,,,,,,,,,,,,,
66049d37ea3bcf8f98554347,TCR,2024-06-11_13h16.00.573,LearnStrategy,2023.2.3,Win32,59.88023952,1,1,2,-0.057291667,-0.009114583,1,0,0,1.8478,rock_grid_rect_2,8,13,-1,-1,1.848,-0.17578125,-0.229166667,1,0,0,18.355,Basalt_rect,2,18.355,0,1,0,1,0,1,,,,,,,,,,,,,
66049d37ea3bcf8f98554347,TCR,2024-06-11_13h16.00.573,LearnStrategy,2023.2.3,Win32,59.88023952,1,1,3,-0.022135417,-0.001302083,1,0,0,2.7124,rock_grid_rect_2,7,16,-1,-1,2.712,0.391927083,-0.23828125,1,0,0,7.5725,Gabbro_rect,4,7.572,0,2,0,2,0,1,,,,,,,,,,,,,
66049d37ea3bcf8f98554347,TCR,2024-06-11_13h16.00.573,LearnStrategy,2023.2.3,Win32,59.88023952,1,1,4,-0.0703125,-0.013020833,1,0,0,2.3667,rock_grid_rect_2,4,16,-1,-1,2.367,-0.197916667,-0.236979167,1,0,0,15.8889,Basalt_rect,2,15.889,0,3,0,3,0,1,,,,,,,,,,,,,
66049d37ea3bcf8f98554347,TCR,2024-06-11_13h16.00.573,LearnStrategy,2023.2.3,Win32,59.88023952,1,1,5,-0.044270833,0.002604167,1,0,0,2.7999,rock_grid_rect_2,3,02,-1,-1,2.8,0.147135417,-0.24609375,1,0,0,4.4085,Diorite_rect,3,4.409,1,4,0,4,0,1,,,,,,,,,,,,,
66049d37ea3bcf8f98554347,TCR,2024-06-11_13h16.00.573,LearnStrategy,2023.2.3,Win32,59.88023952,1,1,6,-0.088541667,-0.006510417,1,0,0,2.6292,rock_grid_rect_2,8,10,-1,-1,2.629,0.404947917,-0.40625,1,0,0,4.6021,Pumice_rect,8,4.602,1,5,0,5,0,1,,,,,,,,,,,,,
66049d37ea3bcf8f98554347,TCR,2024-06-11_13h16.00.573,LearnStrategy,2023.2.3,Win32,59.88023952,1,1,7,-0.05859375,-0.001302083,1,0,0,2.2127,rock_grid_rect_2,2,09,-1,-1,2.213,-0.147135417,-0.40625,1,0,0,5.6895,Pegmatite_rect,6,5.69,0,6,0,6,0,1,,,,,,,,,,,,,
66049d37ea3bcf8f98554347,TCR,2024-06-11_13h16.00.573,LearnStrategy,2023.2.3,Win32,59.88023952,1,1,8,-0.02734375,-0.009114583,1,0,0,2.084,rock_grid_rect_2,7,07,-1,-1,2.084,0.12109375,-0.25,1,0,0,21.9871,Diorite_rect,3,21.987,0,7,0,7,0,1,,,,,,,,,,,,,
66049d37ea3bcf8f98554347,TCR,2024-06-11_13h16.00.573,LearnStrategy,2023.2.3,Win32,59.88023952,1,1,9,0.09375,0.0078125,1,0,0,2.1503,rock_grid_rect_2,3,09,-1,-1,2.15,-0.408854167,-0.244791667,1,0,0,6.4837,Andesite_rect,1,6.484,0,8,0,8,0,1,,,,,,,,,,,,,
66049d37ea3bcf8f98554347,TCR,2024-06-11_13h16.00.573,LearnStrategy,2023.2.3,Win32,59.88023952,1,1,10,-0.020833333,-0.01171875,1,0,0,1.622,rock_grid_rect_2,1,06,-1,-1,1.622,-0.35546875,-0.243489583,1,0,0,4.7029,Andesite_rect,1,4.703,1,9,0,9,0,1,,,,,,,,,,,,,
66049d37ea3bcf8f98554347,TCR,2024-06-11_13h16.00.573,LearnStrategy,2023.2.3,Win32,59.88023952,1,1,11,-0.032552083,0.002604167,1,0,0,1.8801,rock_grid_rect_2,4,10,-1,-1,1.88,-0.095052083,-0.239583333,1,0,0,4.104,Basalt_rect,2,4.104,0,10,0,10,0,1,,,,,,,,,,,,,
66049d37ea3bcf8f98554347,TCR,2024-06-11_13h16.00.573,LearnStrategy,2023.2.3,Win32,59.88023952,1,1,12,-0.01171875,-0.01171875,1,0,0,1.6317,rock_grid_rect_2,6,11,-1,-1,1.632,-0.190104167,-0.401041667,1,0,0,8.87,Pegmatite_rect,6,8.87,1,11,0,11,0,1,,,,,,,,,,,,,
66049d37ea3bcf8f98554347,TCR,2024-06-11_13h16.00.573,LearnStrategy,2023.2.3,Win32,59.88023952,1,1,13,-0.069010417,-0.01171875,1,0,0,1.9626,rock_grid_rect_2,5,08,-1,-1,1.963,-0.377604167,-0.415364583,1,0,0,2.0397,Obsidian_rect,5,2.04,1,12,0,12,0,1,,,,,,,,,,,,,
66049d37ea3bcf8f98554347,TCR,2024-06-11_13h16.00.573,LearnStrategy,2023.2.3,Win32,59.88023952,1,1,14,-0.005208333,0.001302083,1,0,0,1.8469,rock_grid_rect_2,2,04,-1,-1,1.847,-0.157552083,-0.265625,1,0,0,21.4425,Basalt_rect,2,21.442,1,13,0,13,0,1,,,,,,,,,,,,,
66049d37ea3bcf8f98554347,TCR,2024-06-11_13h16.00.573,LearnStrategy,2023.2.3,Win32,59.88023952,1,1,15,-0.029947917,-0.001302083,1,0,0,1.8476,rock_grid_rect_2,6,10,-1,-1,1.848,-0.111979167,-0.388020833,1,0,0,4.854,Pegmatite_rect,6,4.854,1,14,0,14,0,1,,,,,,,,,,,,,
66049d37ea3bcf8f98554347,TCR,2024-06-11_13h16.00.573,LearnStrategy,2023.2.3,Win32,59.88023952,1,1,16,-0.059895833,0.005208333,1,0,0,1.5006,rock_grid_rect_2,1,11,-1,-1,1.501,-0.338541667,-0.263020833,1,0,0,7.8324,Andesite_rect,1,7.832,1,15,0,15,0,1,,,,,,,,,,,,,
66049d37ea3bcf8f98554347,TCR,2024-06-11_13h16.00.573,LearnStrategy,2023.2.3,Win32,59.88023952,1,2,1,,,,,,,,8,06,,,,,,,,,,,8,3.656,1,,,,,,0.37890625,-0.399739583,1,0,0,3.656,Pumice_rect,0,0,0,0,1,
66049d37ea3bcf8f98554347,TCR,2024-06-11_13h16.00.573,LearnStrategy,2023.2.3,Win32,59.88023952,1,2,2,,,,,,,,4,05,,,,,,,,,,,4,10.008,1,,,,,,0.385416667,-0.247395833,1,0,0,10.0081,Gabbro_rect,1,0,1,0,1,
66049d37ea3bcf8f98554347,TCR,2024-06-11_13h16.00.573,LearnStrategy,2023.2.3,Win32,59.88023952,1,2,3,,,,,,,,6,06,,,,,,,,,,,6,14.589,1,,,,,,-0.12109375,-0.399739583,1,0,0,14.5885,Pegmatite_rect,2,0,2,0,1,
66049d37ea3bcf8f98554347,TCR,2024-06-11_13h16.00.573,LearnStrategy,2023.2.3,Win32,59.88023952,1,2,4,,,,,,,,1,05,,,,,,,,,,,7,16.161,0,,,,,,0.114583333,-0.3984375,1,0,0,16.1606,Peridotite_rect,3,0,3,0,1,
66049d37ea3bcf8f98554347,TCR,2024-06-11_13h16.00.573,LearnStrategy,2023.2.3,Win32,59.88023952,1,2,5,,,,,,,,5,12,,,,,,,,,,,5,2.228,1,,,,,,-0.38671875,-0.393229167,1,0,0,2.2278,Obsidian_rect,4,0,4,0,1,
66049d37ea3bcf8f98554347,TCR,2024-06-11_13h16.00.573,LearnStrategy,2023.2.3,Win32,59.88023952,1,2,6,,,,,,,,2,16,,,,,,,,,,,2,20.902,1,,,,,,-0.15625,-0.239583333,1,0,0,20.9022,Basalt_rect,5,0,5,0,1,
66049d37ea3bcf8f98554347,TCR,2024-06-11_13h16.00.573,LearnStrategy,2023.2.3,Win32,59.88023952,1,2,7,,,,,,,,8,15,,,,,,,,,,,8,2.959,1,,,,,,0.3359375,-0.385416667,1,0,0,2.959,Pumice_rect,6,0,6,0,1,
66049d37ea3bcf8f98554347,TCR,2024-06-11_13h16.00.573,LearnStrategy,2023.2.3,Win32,59.88023952,1,2,8,,,,,,,,6,07,,,,,,,,,,,6,7.425,1,,,,,,-0.078125,-0.41015625,1,0,0,7.4252,Pegmatite_rect,7,0,7,0,1,
66049d37ea3bcf8f98554347,TCR,2024-06-11_13h16.00.573,LearnStrategy,2023.2.3,Win32,59.88023952,1,2,9,,,,,,,,3,13,,,,,,,,,,,3,9.56,1,,,,,,0.134114583,-0.240885417,1,0,0,9.5595,Diorite_rect,8,0,8,0,1,
66049d37ea3bcf8f98554347,TCR,2024-06-11_13h16.00.573,LearnStrategy,2023.2.3,Win32,59.88023952,1,2,10,,,,,,,,7,14,,,,,,,,,,,7,54.655,1,,,,,,0.11328125,-0.397135417,1,0,0,54.6548,Peridotite_rect,9,0,9,0,1,
66049d37ea3bcf8f98554347,TCR,2024-06-11_13h16.00.573,LearnStrategy,2023.2.3,Win32,59.88023952,1,2,11,,,,,,,,2,02,,,,,,,,,,,4,10.993,0,,,,,,0.3828125,-0.2578125,1,0,0,10.9931,Gabbro_rect,10,0,10,0,1,
66049d37ea3bcf8f98554347,TCR,2024-06-11_13h16.00.573,LearnStrategy,2023.2.3,Win32,59.88023952,1,2,12,,,,,,,,5,10,,,,,,,,,,,5,2.186,1,,,,,,-0.37890625,-0.399739583,1,0,0,2.1861,Obsidian_rect,11,0,11,0,1,
66049d37ea3bcf8f98554347,TCR,2024-06-11_13h16.00.573,LearnStrategy,2023.2.3,Win32,59.88023952,1,2,13,,,,,,,,3,14,,,,,,,,,,,5,0.837,0,,,,,,-0.37890625,-0.399739583,1,0,0,0.8371,Obsidian_rect,12,0,12,0,1,
66049d37ea3bcf8f98554347,TCR,2024-06-11_13h16.00.573,LearnStrategy,2023.2.3,Win32,59.88023952,1,2,14,,,,,,,,4,08,,,,,,,,,,,4,9.086,1,,,,,,0.434895833,-0.23046875,1,0,0,9.0856,Gabbro_rect,13,0,13,0,1,
66049d37ea3bcf8f98554347,TCR,2024-06-11_13h16.00.573,LearnStrategy,2023.2.3,Win32,59.88023952,1,2,15,,,,,,,,1,03,,,,,,,,,,,1,5.44,1,,,,,,-0.40234375,-0.265625,1,0,0,5.4399,Andesite_rect,14,0,14,0,1,
66049d37ea3bcf8f98554347,TCR,2024-06-11_13h16.00.573,LearnStrategy,2023.2.3,Win32,59.88023952,1,2,16,,,,,,,,7,13,,,,,,,,,,,7,16.17,1,,,,,,0.092447917,-0.408854167,1,0,0,16.17,Peridotite_rect,15,0,15,0,1,
66049d37ea3bcf8f98554347,TCR,2024-06-11_13h16.00.573,LearnStrategy,2023.2.3,Win32,59.88023952,2,1,1,-0.018229167,-0.014322917,1,0,0,4.4315,rock_grid_rect_2,1,09,-1,-1,4.432,-0.399739583,-0.233072917,1,0,0,9.2025,Andesite_rect,1,9.202,1,0,0,0,0,1,,,,,,,,,,,,,
66049d37ea3bcf8f98554347,TCR,2024-06-11_13h16.00.573,LearnStrategy,2023.2.3,Win32,59.88023952,2,1,2,-0.076822917,-0.0078125,1,0,0,1.732,rock_grid_rect_2,6,11,-1,-1,1.732,-0.158854167,-0.415364583,1,0,0,2.4677,Pegmatite_rect,6,2.468,1,1,0,1,0,1,,,,,,,,,,,,,
66049d37ea3bcf8f98554347,TCR,2024-06-11_13h16.00.573,LearnStrategy,2023.2.3,Win32,59.88023952,2,1,3,0.005208333,0.001302083,1,0,0,1.8137,rock_grid_rect_2,3,15,-1,-1,1.814,0.087239583,-0.384114583,1,0,0,19.0748,Peridotite_rect,7,19.075,0,2,0,2,0,1,,,,,,,,,,,,,
66049d37ea3bcf8f98554347,TCR,2024-06-11_13h16.00.573,LearnStrategy,2023.2.3,Win32,59.88023952,2,1,4,0.018229167,-0.005208333,1,0,0,1.7351,rock_grid_rect_2,2,14,-1,-1,1.735,0.389322917,-0.244791667,1,0,0,10.9062,Gabbro_rect,4,10.906,0,3,0,3,0,1,,,,,,,,,,,,,
66049d37ea3bcf8f98554347,TCR,2024-06-11_13h16.00.573,LearnStrategy,2023.2.3,Win32,59.88023952,2,1,5,-0.009114583,0.005208333,1,0,0,1.5648,rock_grid_rect_2,2,05,-1,-1,1.565,-0.134114583,-0.229166667,1,0,0,16.9542,Basalt_rect,2,16.954,1,4,0,4,0,1,,,,,,,,,,,,,
66049d37ea3bcf8f98554347,TCR,2024-06-11_13h16.00.573,LearnStrategy,2023.2.3,Win32,59.88023952,2,1,6,-0.010416667,-0.005208333,1,0,0,2.1797,rock_grid_rect_2,5,06,-1,-1,2.18,-0.395833333,-0.3984375,1,0,0,2.2184,Obsidian_rect,5,2.218,1,5,0,5,0,1,,,,,,,,,,,,,
66049d37ea3bcf8f98554347,TCR,2024-06-11_13h16.00.573,LearnStrategy,2023.2.3,Win32,59.88023952,2,1,7,0.022135417,-0.00390625,1,0,0,1.4619,rock_grid_rect_2,1,01,-1,-1,1.462,0.111979167,-0.25390625,1,0,0,28.6549,Diorite_rect,3,28.655,0,6,0,6,0,1,,,,,,,,,,,,,
66049d37ea3bcf8f98554347,TCR,2024-06-11_13h16.00.573,LearnStrategy,2023.2.3,Win32,59.88023952,2,1,8,-0.002604167,-0.005208333,1,0,0,1.598,rock_grid_rect_2,7,07,-1,-1,1.598,0.10546875,-0.41015625,1,0,0,6.0998,Peridotite_rect,7,6.1,1,7,0,7,0,1,,,,,,,,,,,,,
66049d37ea3bcf8f98554347,TCR,2024-06-11_13h16.00.573,LearnStrategy,2023.2.3,Win32,59.88023952,2,1,9,-0.032552083,0.002604167,1,0,0,1.8463,rock_grid_rect_2,3,16,-1,-1,1.846,0.12109375,-0.25390625,1,0,0,6.1533,Diorite_rect,3,6.153,1,8,0,8,0,1,,,,,,,,,,,,,
66049d37ea3bcf8f98554347,TCR,2024-06-11_13h16.00.573,LearnStrategy,2023.2.3,Win32,59.88023952,2,1,10,-0.048177083,0.002604167,1,0,0,2.013,rock_grid_rect_2,3,09,-1,-1,2.013,0.1171875,-0.239583333,1,0,0,16.8554,Diorite_rect,3,16.855,1,9,0,9,0,1,,,,,,,,,,,,,
66049d37ea3bcf8f98554347,TCR,2024-06-11_13h16.00.573,LearnStrategy,2023.2.3,Win32,59.88023952,2,1,11,0.036458333,-0.002604167,1,0,0,1.8156,rock_grid_rect_2,8,16,-1,-1,1.816,0.385416667,-0.3984375,1,0,0,4.1507,Pumice_rect,8,4.151,1,10,0,10,0,1,,,,,,,,,,,,,
66049d37ea3bcf8f98554347,TCR,2024-06-11_13h16.00.573,LearnStrategy,2023.2.3,Win32,59.88023952,2,1,12,-0.05078125,0.00390625,1,0,0,1.9801,rock_grid_rect_2,1,01,-1,-1,1.98,-0.420572917,-0.25,1,0,0,5.9726,Andesite_rect,1,5.973,1,11,0,11,0,1,,,,,,,,,,,,,
66049d37ea3bcf8f98554347,TCR,2024-06-11_13h16.00.573,LearnStrategy,2023.2.3,Win32,59.88023952,2,1,13,0.018229167,-0.010416667,1,0,0,1.9621,rock_grid_rect_2,4,09,-1,-1,1.962,-0.373697917,-0.240885417,1,0,0,6.6996,Andesite_rect,1,6.7,0,12,0,12,0,1,,,,,,,,,,,,,
66049d37ea3bcf8f98554347,TCR,2024-06-11_13h16.00.573,LearnStrategy,2023.2.3,Win32,59.88023952,2,1,14,-0.037760417,-0.006510417,1,0,0,1.8478,rock_grid_rect_2,3,07,-1,-1,1.848,0.118489583,-0.252604167,1,0,0,15.27,Diorite_rect,3,15.27,1,13,0,13,0,1,,,,,,,,,,,,,
66049d37ea3bcf8f98554347,TCR,2024-06-11_13h16.00.573,LearnStrategy,2023.2.3,Win32,59.88023952,2,1,15,-0.028645833,-0.001302083,1,0,0,1.8958,rock_grid_rect_2,2,11,-1,-1,1.896,-0.1484375,-0.255208333,1,0,0,15.5236,Basalt_rect,2,15.524,1,14,0,14,0,1,,,,,,,,,,,,,
66049d37ea3bcf8f98554347,TCR,2024-06-11_13h16.00.573,LearnStrategy,2023.2.3,Win32,59.88023952,2,1,16,0.036458333,-0.001302083,1,0,0,1.5963,rock_grid_rect_2,2,04,-1,-1,1.596,0.38671875,-0.2421875,1,0,0,12.5878,Gabbro_rect,4,12.588,0,15,0,15,0,1,,,,,,,,,,,,,
66049d37ea3bcf8f98554347,TCR,2024-06-11_13h16.00.573,LearnStrategy,2023.2.3,Win32,59.88023952,2,2,1,,,,,,,,4,11,,,,,,,,,,,4,7.789,1,,,,,,0.37109375,-0.23046875,1,0,0,7.7892,Gabbro_rect,0,0,0,0,1,
66049d37ea3bcf8f98554347,TCR,2024-06-11_13h16.00.573,LearnStrategy,2023.2.3,Win32,59.88023952,2,2,2,,,,,,,,3,10,,,,,,,,,,,3,10.286,1,,,,,,0.165364583,-0.234375,1,0,0,10.286,Diorite_rect,1,0,1,0,1,
66049d37ea3bcf8f98554347,TCR,2024-06-11_13h16.00.573,LearnStrategy,2023.2.3,Win32,59.88023952,2,2,3,,,,,,,,7,05,,,,,,,,,,,7,10.119,1,,,,,,0.143229167,-0.39453125,1,0,0,10.1188,Peridotite_rect,2,0,2,0,1,
66049d37ea3bcf8f98554347,TCR,2024-06-11_13h16.00.573,LearnStrategy,2023.2.3,Win32,59.88023952,2,2,4,,,,,,,,8,05,,,,,,,,,,,8,2.801,1,,,,,,0.37890625,-0.401041667,1,0,0,2.8009,Pumice_rect,3,0,3,0,1,
66049d37ea3bcf8f98554347,TCR,2024-06-11_13h16.00.573,LearnStrategy,2023.2.3,Win32,59.88023952,2,2,5,,,,,,,,3,12,,,,,,,,,,,3,5.174,1,,,,,,0.145833333,-0.256510417,1,0,0,5.1739,Diorite_rect,4,0,4,0,1,
66049d37ea3bcf8f98554347,TCR,2024-06-11_13h16.00.573,LearnStrategy,2023.2.3,Win32,59.88023952,2,2,6,,,,,,,,4,03,,,,,,,,,,,4,9.036,1,,,,,,0.39453125,-0.260416667,1,0,0,9.0363,Gabbro_rect,5,0,5,0,1,
66049d37ea3bcf8f98554347,TCR,2024-06-11_13h16.00.573,LearnStrategy,2023.2.3,Win32,59.88023952,2,2,7,,,,,,,,8,02,,,,,,,,,,,8,4.902,1,,,,,,0.389322917,-0.399739583,1,0,0,4.9023,Pumice_rect,6,0,6,0,1,
66049d37ea3bcf8f98554347,TCR,2024-06-11_13h16.00.573,LearnStrategy,2023.2.3,Win32,59.88023952,2,2,8,,,,,,,,1,16,,,,,,,,,,,7,19.36,0,,,,,,0.127604167,-0.399739583,1,0,0,19.3603,Peridotite_rect,7,0,7,0,1,
66049d37ea3bcf8f98554347,TCR,2024-06-11_13h16.00.573,LearnStrategy,2023.2.3,Win32,59.88023952,2,2,9,,,,,,,,6,15,,,,,,,,,,,6,2.322,1,,,,,,-0.1328125,-0.4140625,1,0,0,2.3218,Pegmatite_rect,8,0,8,0,1,
66049d37ea3bcf8f98554347,TCR,2024-06-11_13h16.00.573,LearnStrategy,2023.2.3,Win32,59.88023952,2,2,10,,,,,,,,5,11,,,,,,,,,,,5,1.388,1,,,,,,-0.368489583,-0.420572917,1,0,0,1.3876,Obsidian_rect,9,0,9,0,1,
66049d37ea3bcf8f98554347,TCR,2024-06-11_13h16.00.573,LearnStrategy,2023.2.3,Win32,59.88023952,2,2,11,,,,,,,,7,10,,,,,,,,,,,7,4.47,1,,,,,,0.095052083,-0.411458333,1,0,0,4.4699,Peridotite_rect,10,0,10,0,1,
66049d37ea3bcf8f98554347,TCR,2024-06-11_13h16.00.573,LearnStrategy,2023.2.3,Win32,59.88023952,2,2,12,,,,,,,,6,05,,,,,,,,,,,6,18.494,1,,,,,,-0.110677083,-0.397135417,1,0,0,18.4939,Pegmatite_rect,11,0,11,0,1,
66049d37ea3bcf8f98554347,TCR,2024-06-11_13h16.00.573,LearnStrategy,2023.2.3,Win32,59.88023952,2,2,13,,,,,,,,2,01,,,,,,,,,,,2,24.013,1,,,,,,-0.1328125,-0.247395833,1,0,0,24.0134,Basalt_rect,12,0,12,0,1,
66049d37ea3bcf8f98554347,TCR,2024-06-11_13h16.00.573,LearnStrategy,2023.2.3,Win32,59.88023952,2,2,14,,,,,,,,1,04,,,,,,,,,,,1,22.583,1,,,,,,-0.384114583,-0.25390625,1,0,0,22.5832,Andesite_rect,13,0,13,0,1,
66049d37ea3bcf8f98554347,TCR,2024-06-11_13h16.00.573,LearnStrategy,2023.2.3,Win32,59.88023952,2,2,15,,,,,,,,5,07,,,,,,,,,,,5,2.836,1,,,,,,-0.421875,-0.389322917,1,0,0,2.8356,Obsidian_rect,14,0,14,0,1,
66049d37ea3bcf8f98554347,TCR,2024-06-11_13h16.00.573,LearnStrategy,2023.2.3,Win32,59.88023952,2,2,16,,,,,,,,2,10,,,,,,,,,,,2,18.534,1,,,,,,-0.158854167,-0.256510417,1,0,0,18.5344,Basalt_rect,15,0,15,0,1,
66049d37ea3bcf8f98554347,TCR,2024-06-11_13h16.00.573,LearnStrategy,2023.2.3,Win32,59.88023952,3,1,1,-0.032552083,-0.005208333,1,0,0,2.6814,rock_grid_rect_2,1,07,-1,-1,2.681,-0.43359375,-0.25390625,1,0,0,12.6535,Andesite_rect,1,12.653,1,0,0,0,0,1,,,,,,,,,,,,,
66049d37ea3bcf8f98554347,TCR,2024-06-11_13h16.00.573,LearnStrategy,2023.2.3,Win32,59.88023952,3,1,2,-0.114583333,-0.009114583,1,0,0,1.7982,rock_grid_rect_2,3,09,-1,-1,1.798,0.096354167,-0.244791667,1,0,0,4.4981,Diorite_rect,3,4.498,1,1,0,1,0,1,,,,,,,,,,,,,
66049d37ea3bcf8f98554347,TCR,2024-06-11_13h16.00.573,LearnStrategy,2023.2.3,Win32,59.88023952,3,1,3,-0.015625,0.006510417,1,0,0,1.5769,rock_grid_rect_2,1,01,-1,-1,1.577,0.091145833,-0.391927083,1,0,0,12.4764,Peridotite_rect,7,12.476,0,2,0,2,0,1,,,,,,,,,,,,,
66049d37ea3bcf8f98554347,TCR,2024-06-11_13h16.00.573,LearnStrategy,2023.2.3,Win32,59.88023952,3,1,4,-0.026041667,0.006510417,1,0,0,1.7142,rock_grid_rect_2,1,06,-1,-1,1.714,-0.412760417,-0.2421875,1,0,0,12.3915,Andesite_rect,1,12.391,1,3,0,3,0,1,,,,,,,,,,,,,
66049d37ea3bcf8f98554347,TCR,2024-06-11_13h16.00.573,LearnStrategy,2023.2.3,Win32,59.88023952,3,1,5,0,-0.00390625,1,0,0,1.7957,rock_grid_rect_2,3,11,-1,-1,1.796,0.095052083,-0.260416667,1,0,0,10.4763,Diorite_rect,3,10.476,1,4,0,4,0,1,,,,,,,,,,,,,
66049d37ea3bcf8f98554347,TCR,2024-06-11_13h16.00.573,LearnStrategy,2023.2.3,Win32,59.88023952,3,1,6,-0.0390625,-0.005208333,1,0,0,1.7624,rock_grid_rect_2,4,09,-1,-1,1.762,0.4140625,-0.248697917,1,0,0,6.802,Gabbro_rect,4,6.802,1,5,0,5,0,1,,,,,,,,,,,,,
66049d37ea3bcf8f98554347,TCR,2024-06-11_13h16.00.573,LearnStrategy,2023.2.3,Win32,59.88023952,3,1,7,-0.016927083,0.015625,1,0,0,1.8956,rock_grid_rect_2,8,16,-1,-1,1.896,0.350260417,-0.385416667,1,0,0,2.2438,Pumice_rect,8,2.244,1,6,0,6,0,1,,,,,,,,,,,,,
66049d37ea3bcf8f98554347,TCR,2024-06-11_13h16.00.573,LearnStrategy,2023.2.3,Win32,59.88023952,3,1,8,-0.063802083,0.001302083,1,0,0,1.8285,rock_grid_rect_2,6,13,-1,-1,1.829,0.1171875,-0.24609375,1,0,0,54.3654,Diorite_rect,3,54.365,0,7,0,7,0,1,,,,,,,,,,,,,
66049d37ea3bcf8f98554347,TCR,2024-06-11_13h16.00.573,LearnStrategy,2023.2.3,Win32,59.88023952,3,1,9,-0.006510417,-0.0078125,1,0,0,1.8651,rock_grid_rect_2,1,01,-1,-1,1.865,-0.3984375,-0.243489583,1,0,0,38.3031,Andesite_rect,1,38.303,1,8,0,8,0,1,,,,,,,,,,,,,
66049d37ea3bcf8f98554347,TCR,2024-06-11_13h16.00.573,LearnStrategy,2023.2.3,Win32,59.88023952,3,1,10,-0.00390625,-0.010416667,1,0,0,2.8491,rock_grid_rect_2,2,12,-1,-1,2.849,-0.15625,-0.256510417,1,0,0,8.0873,Basalt_rect,2,8.087,1,9,0,9,0,1,,,,,,,,,,,,,
66049d37ea3bcf8f98554347,TCR,2024-06-11_13h16.00.573,LearnStrategy,2023.2.3,Win32,59.88023952,3,1,11,-0.015625,-0.001302083,1,0,0,1.9121,rock_grid_rect_2,7,15,-1,-1,1.912,0.162760417,-0.390625,1,0,0,9.8691,Peridotite_rect,7,9.869,1,10,0,10,0,1,,,,,,,,,,,,,
66049d37ea3bcf8f98554347,TCR,2024-06-11_13h16.00.573,LearnStrategy,2023.2.3,Win32,59.88023952,3,1,12,-0.052083333,0.01171875,1,0,0,1.7968,rock_grid_rect_2,2,11,-1,-1,1.797,-0.131510417,-0.252604167,1,0,0,3.2832,Basalt_rect,2,3.283,1,11,0,11,0,1,,,,,,,,,,,,,
66049d37ea3bcf8f98554347,TCR,2024-06-11_13h16.00.573,LearnStrategy,2023.2.3,Win32,59.88023952,3,1,13,-0.022135417,0.00390625,1,0,0,1.6504,rock_grid_rect_2,7,06,-1,-1,1.65,0.087239583,-0.385416667,1,0,0,4.1469,Peridotite_rect,7,4.147,1,12,0,12,0,1,,,,,,,,,,,,,
66049d37ea3bcf8f98554347,TCR,2024-06-11_13h16.00.573,LearnStrategy,2023.2.3,Win32,59.88023952,3,1,14,0.018229167,0,1,0,0,1.7316,rock_grid_rect_2,3,11,-1,-1,1.732,0.149739583,-0.24609375,1,0,0,5.6193,Diorite_rect,3,5.619,1,13,0,13,0,1,,,,,,,,,,,,,
66049d37ea3bcf8f98554347,TCR,2024-06-11_13h16.00.573,LearnStrategy,2023.2.3,Win32,59.88023952,3,1,15,-0.032552083,-0.00390625,1,0,0,1.9457,rock_grid_rect_2,2,04,-1,-1,1.946,0.393229167,-0.266927083,1,0,0,9.0041,Gabbro_rect,4,9.004,0,14,0,14,0,1,,,,,,,,,,,,,
66049d37ea3bcf8f98554347,TCR,2024-06-11_13h16.00.573,LearnStrategy,2023.2.3,Win32,59.88023952,3,1,16,-0.002604167,0.001302083,1,0,0,2.264,rock_grid_rect_2,5,06,-1,-1,2.264,-0.43359375,-0.421875,1,0,0,1.8272,Obsidian_rect,5,1.827,1,15,0,15,0,1,,,,,,,,,,,,,
66049d37ea3bcf8f98554347,TCR,2024-06-11_13h16.00.573,LearnStrategy,2023.2.3,Win32,59.88023952,3,2,1,,,,,,,,2,06,,,,,,,,,,,2,11.482,1,,,,,,-0.119791667,-0.2421875,1,0,0,11.4824,Basalt_rect,0,0,0,0,1,
66049d37ea3bcf8f98554347,TCR,2024-06-11_13h16.00.573,LearnStrategy,2023.2.3,Win32,59.88023952,3,2,2,,,,,,,,6,09,,,,,,,,,,,6,8.019,1,,,,,,-0.13671875,-0.395833333,1,0,0,8.019,Pegmatite_rect,1,0,1,0,1,
66049d37ea3bcf8f98554347,TCR,2024-06-11_13h16.00.573,LearnStrategy,2023.2.3,Win32,59.88023952,3,2,3,,,,,,,,6,03,,,,,,,,,,,6,7.937,1,,,,,,-0.158854167,-0.393229167,1,0,0,7.9365,Pegmatite_rect,2,0,2,0,1,
66049d37ea3bcf8f98554347,TCR,2024-06-11_13h16.00.573,LearnStrategy,2023.2.3,Win32,59.88023952,3,2,4,,,,,,,,7,08,,,,,,,,,,,7,8.127,1,,,,,,0.134114583,-0.391927083,1,0,0,8.1273,Peridotite_rect,3,0,3,0,1,
66049d37ea3bcf8f98554347,TCR,2024-06-11_13h16.00.573,LearnStrategy,2023.2.3,Win32,59.88023952,3,2,5,,,,,,,,5,05,,,,,,,,,,,5,4.319,1,,,,,,-0.440104167,-0.403645833,1,0,0,4.3189,Obsidian_rect,4,0,4,0,1,
66049d37ea3bcf8f98554347,TCR,2024-06-11_13h16.00.573,LearnStrategy,2023.2.3,Win32,59.88023952,3,2,6,,,,,,,,5,09,,,,,,,,,,,5,1.652,1,,,,,,-0.430989583,-0.403645833,1,0,0,1.6523,Obsidian_rect,5,0,5,0,1,
66049d37ea3bcf8f98554347,TCR,2024-06-11_13h16.00.573,LearnStrategy,2023.2.3,Win32,59.88023952,3,2,7,,,,,,,,8,14,,,,,,,,,,,8,2.655,1,,,,,,0.389322917,-0.391927083,1,0,0,2.6545,Pumice_rect,6,0,6,0,1,
66049d37ea3bcf8f98554347,TCR,2024-06-11_13h16.00.573,LearnStrategy,2023.2.3,Win32,59.88023952,3,2,8,,,,,,,,1,10,,,,,,,,,,,4,40.735,0,,,,,,0.3984375,-0.26171875,1,0,0,40.7354,Gabbro_rect,7,0,7,0,1,
66049d37ea3bcf8f98554347,TCR,2024-06-11_13h16.00.573,LearnStrategy,2023.2.3,Win32,59.88023952,3,2,9,,,,,,,,4,14,,,,,,,,,,,4,10.644,1,,,,,,0.3984375,-0.26171875,1,0,0,10.6437,Gabbro_rect,8,0,8,0,1,
66049d37ea3bcf8f98554347,TCR,2024-06-11_13h16.00.573,LearnStrategy,2023.2.3,Win32,59.88023952,3,2,10,,,,,,,,8,08,,,,,,,,,,,8,2.044,1,,,,,,0.397135417,-0.415364583,1,0,0,2.0445,Pumice_rect,9,0,9,0,1,
66049d37ea3bcf8f98554347,TCR,2024-06-11_13h16.00.573,LearnStrategy,2023.2.3,Win32,59.88023952,3,2,11,,,,,,,,1,14,,,,,,,,,,,3,12.969,0,,,,,,0.13671875,-0.25390625,1,0,0,12.969,Diorite_rect,10,0,10,0,1,
66049d37ea3bcf8f98554347,TCR,2024-06-11_13h16.00.573,LearnStrategy,2023.2.3,Win32,59.88023952,3,2,12,,,,,,,,4,01,,,,,,,,,,,7,12.286,0,,,,,,0.138020833,-0.384114583,1,0,0,12.2865,Peridotite_rect,11,0,11,0,1,
66049d37ea3bcf8f98554347,TCR,2024-06-11_13h16.00.573,LearnStrategy,2023.2.3,Win32,59.88023952,3,2,13,,,,,,,,7,12,,,,,,,,,,,7,10.039,1,,,,,,0.118489583,-0.39453125,1,0,0,10.0391,Peridotite_rect,12,0,12,0,1,
66049d37ea3bcf8f98554347,TCR,2024-06-11_13h16.00.573,LearnStrategy,2023.2.3,Win32,59.88023952,3,2,14,,,,,,,,2,08,,,,,,,,,,,2,26.687,1,,,,,,-0.154947917,-0.23828125,1,0,0,26.687,Basalt_rect,13,0,13,0,1,
66049d37ea3bcf8f98554347,TCR,2024-06-11_13h16.00.573,LearnStrategy,2023.2.3,Win32,59.88023952,3,2,15,,,,,,,,3,06,,,,,,,,,,,3,8.236,1,,,,,,0.104166667,-0.239583333,1,0,0,8.2365,Diorite_rect,14,0,14,0,1,
66049d37ea3bcf8f98554347,TCR,2024-06-11_13h16.00.573,LearnStrategy,2023.2.3,Win32,59.88023952,3,2,16,,,,,,,,3,08,,,,,,,,,,,3,4.374,1,,,,,,0.104166667,-0.239583333,1,0,0,4.3742,Diorite_rect,15,0,15,0,1,
66049d37ea3bcf8f98554347,TCR,2024-06-11_13h16.00.573,LearnStrategy,2023.2.3,Win32,59.88023952,4,1,1,-0.057291667,-0.006510417,1,0,0,2.881,rock_grid_rect_2,7,07,-1,-1,2.881,0.134114583,-0.399739583,1,0,0,13.9519,Peridotite_rect,7,13.952,1,0,0,0,0,1,,,,,,,,,,,,,
66049d37ea3bcf8f98554347,TCR,2024-06-11_13h16.00.573,LearnStrategy,2023.2.3,Win32,59.88023952,4,1,2,-0.084635417,0.002604167,1,0,0,1.713,rock_grid_rect_2,1,09,-1,-1,1.713,-0.388020833,-0.236979167,1,0,0,9.8719,Andesite_rect,1,9.872,1,1,0,1,0,1,,,,,,,,,,,,,
66049d37ea3bcf8f98554347,TCR,2024-06-11_13h16.00.573,LearnStrategy,2023.2.3,Win32,59.88023952,4,1,3,-0.041666667,-0.002604167,1,0,0,1.8293,rock_grid_rect_2,2,05,-1,-1,1.829,-0.115885417,-0.23828125,1,0,0,2.8693,Basalt_rect,2,2.869,1,2,0,2,0,1,,,,,,,,,,,,,
66049d37ea3bcf8f98554347,TCR,2024-06-11_13h16.00.573,LearnStrategy,2023.2.3,Win32,59.88023952,4,1,4,-0.00390625,0.006510417,1,0,0,1.6318,rock_grid_rect_2,3,16,-1,-1,1.632,0.149739583,-0.233072917,1,0,0,16.9735,Diorite_rect,3,16.974,1,3,0,3,0,1,,,,,,,,,,,,,
66049d37ea3bcf8f98554347,TCR,2024-06-11_13h16.00.573,LearnStrategy,2023.2.3,Win32,59.88023952,4,1,5,-0.020833333,0.00390625,1,0,0,2.6453,rock_grid_rect_2,5,16,-1,-1,2.645,-0.384114583,-0.389322917,1,0,0,1.9016,Obsidian_rect,5,1.902,1,4,0,4,0,1,,,,,,,,,,,,,
66049d37ea3bcf8f98554347,TCR,2024-06-11_13h16.00.573,LearnStrategy,2023.2.3,Win32,59.88023952,4,1,6,-0.005208333,0.005208333,1,0,0,1.6467,rock_grid_rect_2,1,01,-1,-1,1.647,-0.395833333,-0.268229167,1,0,0,7.8215,Andesite_rect,1,7.821,1,5,0,5,0,1,,,,,,,,,,,,,
66049d37ea3bcf8f98554347,TCR,2024-06-11_13h16.00.573,LearnStrategy,2023.2.3,Win32,59.88023952,4,1,7,-0.01953125,-0.00390625,1,0,0,1.6456,rock_grid_rect_2,4,13,-1,-1,1.646,-0.122395833,-0.23828125,1,0,0,8.9938,Basalt_rect,2,8.994,0,6,0,6,0,1,,,,,,,,,,,,,
66049d37ea3bcf8f98554347,TCR,2024-06-11_13h16.00.573,LearnStrategy,2023.2.3,Win32,59.88023952,4,1,8,-0.055989583,0.009114583,1,0,0,1.4866,rock_grid_rect_2,1,02,-1,-1,1.487,0.389322917,-0.24609375,1,0,0,20.3671,Gabbro_rect,4,20.367,0,7,0,7,0,1,,,,,,,,,,,,,
66049d37ea3bcf8f98554347,TCR,2024-06-11_13h16.00.573,LearnStrategy,2023.2.3,Win32,59.88023952,4,1,9,-0.079427083,0.014322917,1,0,0,1.3487,rock_grid_rect_2,6,16,-1,-1,1.349,0.1171875,-0.235677083,1,0,0,14.2714,Diorite_rect,3,14.271,0,8,0,8,0,1,,,,,,,,,,,,,
66049d37ea3bcf8f98554347,TCR,2024-06-11_13h16.00.573,LearnStrategy,2023.2.3,Win32,59.88023952,4,1,10,0.016927083,0.00390625,1,0,0,1.8645,rock_grid_rect_2,4,16,-1,-1,1.864,-0.13671875,-0.24609375,1,0,0,8.4514,Basalt_rect,2,8.451,0,9,0,9,0,1,,,,,,,,,,,,,
66049d37ea3bcf8f98554347,TCR,2024-06-11_13h16.00.573,LearnStrategy,2023.2.3,Win32,59.88023952,4,1,11,0.010416667,0.00390625,1,0,0,1.6288,rock_grid_rect_2,1,09,-1,-1,1.629,-0.393229167,-0.233072917,1,0,0,8.0523,Andesite_rect,1,8.052,1,10,0,10,0,1,,,,,,,,,,,,,
66049d37ea3bcf8f98554347,TCR,2024-06-11_13h16.00.573,LearnStrategy,2023.2.3,Win32,59.88023952,4,1,12,-0.053385417,-0.010416667,1,0,0,1.6298,rock_grid_rect_2,4,10,-1,-1,1.63,0.376302083,-0.25,1,0,0,6.3117,Gabbro_rect,4,6.312,1,11,0,11,0,1,,,,,,,,,,,,,
66049d37ea3bcf8f98554347,TCR,2024-06-11_13h16.00.573,LearnStrategy,2023.2.3,Win32,59.88023952,4,1,13,-0.061197917,0.020833333,1,0,0,1.6648,rock_grid_rect_2,1,06,-1,-1,1.665,-0.419270833,-0.244791667,1,0,0,12.0318,Andesite_rect,1,12.032,1,12,0,12,0,1,,,,,,,,,,,,,
66049d37ea3bcf8f98554347,TCR,2024-06-11_13h16.00.573,LearnStrategy,2023.2.3,Win32,59.88023952,4,1,14,0,0.01171875,1,0,0,2.0128,rock_grid_rect_2,3,07,-1,-1,2.013,0.12109375,-0.244791667,1,0,0,6.144,Diorite_rect,3,6.144,1,13,0,13,0,1,,,,,,,,,,,,,
66049d37ea3bcf8f98554347,TCR,2024-06-11_13h16.00.573,LearnStrategy,2023.2.3,Win32,59.88023952,4,1,15,0.009114583,-0.006510417,1,0,0,1.7676,rock_grid_rect_2,8,13,-1,-1,1.768,0.365885417,-0.393229167,1,0,0,3.3162,Pumice_rect,8,3.316,1,14,0,14,0,1,,,,,,,,,,,,,
66049d37ea3bcf8f98554347,TCR,2024-06-11_13h16.00.573,LearnStrategy,2023.2.3,Win32,59.88023952,4,1,16,-0.0625,-0.015625,1,0,0,1.7954,rock_grid_rect_2,1,07,-1,-1,1.795,-0.403645833,-0.235677083,1,0,0,17.8066,Andesite_rect,1,17.807,1,15,0,15,0,1,,,,,,,,,,,,,
66049d37ea3bcf8f98554347,TCR,2024-06-11_13h16.00.573,LearnStrategy,2023.2.3,Win32,59.88023952,4,2,1,,,,,,,,6,06,,,,,,,,,,,6,3.689,1,,,,,,-0.125,-0.40625,1,0,0,3.6886,Pegmatite_rect,0,0,0,0,1,
66049d37ea3bcf8f98554347,TCR,2024-06-11_13h16.00.573,LearnStrategy,2023.2.3,Win32,59.88023952,4,2,2,,,,,,,,6,07,,,,,,,,,,,6,5.17,1,,,,,,-0.125,-0.411458333,1,0,0,5.1696,Pegmatite_rect,1,0,1,0,1,
66049d37ea3bcf8f98554347,TCR,2024-06-11_13h16.00.573,LearnStrategy,2023.2.3,Win32,59.88023952,4,2,3,,,,,,,,2,01,,,,,,,,,,,2,12.637,1,,,,,,-0.1328125,-0.26171875,1,0,0,12.6374,Basalt_rect,2,0,2,0,1,
66049d37ea3bcf8f98554347,TCR,2024-06-11_13h16.00.573,LearnStrategy,2023.2.3,Win32,59.88023952,4,2,4,,,,,,,,3,08,,,,,,,,,,,3,4.63,1,,,,,,0.118489583,-0.247395833,1,0,0,4.6305,Diorite_rect,3,0,3,0,1,
66049d37ea3bcf8f98554347,TCR,2024-06-11_13h16.00.573,LearnStrategy,2023.2.3,Win32,59.88023952,4,2,5,,,,,,,,3,12,,,,,,,,,,,3,6.992,1,,,,,,0.118489583,-0.247395833,1,0,0,6.9921,Diorite_rect,4,0,4,0,1,
66049d37ea3bcf8f98554347,TCR,2024-06-11_13h16.00.573,LearnStrategy,2023.2.3,Win32,59.88023952,4,2,6,,,,,,,,4,03,,,,,,,,,,,1,12.221,0,,,,,,-0.3984375,-0.252604167,1,0,0,12.2207,Andesite_rect,5,0,5,0,1,
66049d37ea3bcf8f98554347,TCR,2024-06-11_13h16.00.573,LearnStrategy,2023.2.3,Win32,59.88023952,4,2,7,,,,,,,,1,03,,,,,,,,,,,1,9.819,1,,,,,,-0.423177083,-0.240885417,1,0,0,9.8192,Andesite_rect,6,0,6,0,1,
66049d37ea3bcf8f98554347,TCR,2024-06-11_13h16.00.573,LearnStrategy,2023.2.3,Win32,59.88023952,4,2,8,,,,,,,,5,09,,,,,,,,,,,5,1.502,1,,,,,,-0.43359375,-0.404947917,1,0,0,1.5021,Obsidian_rect,7,0,7,0,1,
66049d37ea3bcf8f98554347,TCR,2024-06-11_13h16.00.573,LearnStrategy,2023.2.3,Win32,59.88023952,4,2,9,,,,,,,,8,06,,,,,,,,,,,8,2.186,1,,,,,,0.373697917,-0.388020833,1,0,0,2.1855,Pumice_rect,8,0,8,0,1,
66049d37ea3bcf8f98554347,TCR,2024-06-11_13h16.00.573,LearnStrategy,2023.2.3,Win32,59.88023952,4,2,10,,,,,,,,4,11,,,,,,,,,,,2,7.381,0,,,,,,-0.126302083,-0.24609375,1,0,0,7.3807,Basalt_rect,9,0,9,0,1,
66049d37ea3bcf8f98554347,TCR,2024-06-11_13h16.00.573,LearnStrategy,2023.2.3,Win32,59.88023952,4,2,11,,,,,,,,5,10,,,,,,,,,,,5,1.869,1,,,,,,-0.39453125,-0.389322917,1,0,0,1.8695,Obsidian_rect,10,0,10,0,1,
66049d37ea3bcf8f98554347,TCR,2024-06-11_13h16.00.573,LearnStrategy,2023.2.3,Win32,59.88023952,4,2,12,,,,,,,,2,08,,,,,,,,,,,2,5.103,1,,,,,,-0.153645833,-0.248697917,1,0,0,5.1028,Basalt_rect,11,0,11,0,1,
66049d37ea3bcf8f98554347,TCR,2024-06-11_13h16.00.573,LearnStrategy,2023.2.3,Win32,59.88023952,4,2,13,,,,,,,,1,16,,,,,,,,,,,7,10.389,0,,,,,,0.14453125,-0.393229167,1,0,0,10.3894,Peridotite_rect,12,0,12,0,1,
66049d37ea3bcf8f98554347,TCR,2024-06-11_13h16.00.573,LearnStrategy,2023.2.3,Win32,59.88023952,4,2,14,,,,,,,,7,10,,,,,,,,,,,7,1.202,1,,,,,,0.14453125,-0.393229167,1,0,0,1.2015,Peridotite_rect,13,0,13,0,1,
66049d37ea3bcf8f98554347,TCR,2024-06-11_13h16.00.573,LearnStrategy,2023.2.3,Win32,59.88023952,4,2,15,,,,,,,,8,14,,,,,,,,,,,8,1.894,1,,,,,,0.358072917,-0.411458333,1,0,0,1.8941,Pumice_rect,14,0,14,0,1,
66049d37ea3bcf8f98554347,TCR,2024-06-11_13h16.00.573,LearnStrategy,2023.2.3,Win32,59.88023952,4,2,16,,,,,,,,7,05,,,,,,,,,,,7,2.953,1,,,,,,0.151041667,-0.397135417,1,0,0,2.9531,Peridotite_rect,15,0,15,0,1,
66049d37ea3bcf8f98554347,TCR,2024-06-11_13h16.00.573,LearnStrategy,2023.2.3,Win32,59.88023952,5,1,1,-0.032552083,-0.00390625,1,0,0,2.4136,rock_grid_rect_2,1,02,-1,-1,2.414,-0.39453125,-0.240885417,1,0,0,6.5767,Andesite_rect,1,6.577,1,0,0,0,0,1,,,,,,,,,,,,,
66049d37ea3bcf8f98554347,TCR,2024-06-11_13h16.00.573,LearnStrategy,2023.2.3,Win32,59.88023952,5,1,2,-0.00390625,0.002604167,1,0,0,1.9482,rock_grid_rect_2,4,13,-1,-1,1.948,-0.388020833,-0.25390625,1,0,0,7.9824,Andesite_rect,1,7.982,0,1,0,1,0,1,,,,,,,,,,,,,
66049d37ea3bcf8f98554347,TCR,2024-06-11_13h16.00.573,LearnStrategy,2023.2.3,Win32,59.88023952,5,1,3,-0.020833333,-0.0078125,1,0,0,1.7071,rock_grid_rect_2,1,07,-1,-1,1.707,-0.411458333,-0.243489583,1,0,0,12.3212,Andesite_rect,1,12.321,1,2,0,2,0,1,,,,,,,,,,,,,
66049d37ea3bcf8f98554347,TCR,2024-06-11_13h16.00.573,LearnStrategy,2023.2.3,Win32,59.88023952,5,1,4,-0.01953125,0.0078125,1,0,0,1.9308,rock_grid_rect_2,4,12,-1,-1,1.931,-0.1640625,-0.26171875,1,0,0,11.1079,Basalt_rect,2,11.108,0,3,0,3,0,1,,,,,,,,,,,,,
66049d37ea3bcf8f98554347,TCR,2024-06-11_13h16.00.573,LearnStrategy,2023.2.3,Win32,59.88023952,5,1,5,0.001302083,0.002604167,1,0,0,1.3569,rock_grid_rect_2,7,04,-1,-1,1.357,-0.141927083,-0.24609375,1,0,0,16.8369,Basalt_rect,2,16.837,0,4,0,4,0,1,,,,,,,,,,,,,
66049d37ea3bcf8f98554347,TCR,2024-06-11_13h16.00.573,LearnStrategy,2023.2.3,Win32,59.88023952,5,1,6,-0.006510417,-0.00390625,1,0,0,1.3625,rock_grid_rect_2,3,02,-1,-1,1.362,0.106770833,-0.239583333,1,0,0,12.7552,Diorite_rect,3,12.755,1,5,0,5,0,1,,,,,,,,,,,,,
66049d37ea3bcf8f98554347,TCR,2024-06-11_13h16.00.573,LearnStrategy,2023.2.3,Win32,59.88023952,5,1,7,-0.03515625,-0.001302083,1,0,0,1.7621,rock_grid_rect_2,1,02,-1,-1,1.762,-0.419270833,-0.264322917,1,0,0,7.3023,Andesite_rect,1,7.302,1,6,0,6,0,1,,,,,,,,,,,,,
66049d37ea3bcf8f98554347,TCR,2024-06-11_13h16.00.573,LearnStrategy,2023.2.3,Win32,59.88023952,5,1,8,-0.020833333,-0.001302083,1,0,0,1.4127,rock_grid_rect_2,4,16,-1,-1,1.413,0.399739583,-0.251302083,1,0,0,13.2903,Gabbro_rect,4,13.29,1,7,0,7,0,1,,,,,,,,,,,,,
66049d37ea3bcf8f98554347,TCR,2024-06-11_13h16.00.573,LearnStrategy,2023.2.3,Win32,59.88023952,5,1,9,-0.028645833,0.0078125,1,0,0,1.6977,rock_grid_rect_2,1,11,-1,-1,1.698,-0.3984375,-0.235677083,1,0,0,7.3448,Andesite_rect,1,7.345,1,8,0,8,0,1,,,,,,,,,,,,,
66049d37ea3bcf8f98554347,TCR,2024-06-11_13h16.00.573,LearnStrategy,2023.2.3,Win32,59.88023952,5,1,10,0.01171875,0.018229167,1,0,0,1.6298,rock_grid_rect_2,2,11,-1,-1,1.63,-0.13671875,-0.235677083,1,0,0,11.1199,Basalt_rect,2,11.12,1,9,0,9,0,1,,,,,,,,,,,,,
66049d37ea3bcf8f98554347,TCR,2024-06-11_13h16.00.573,LearnStrategy,2023.2.3,Win32,59.88023952,5,1,11,-0.006510417,0.002604167,1,0,0,1.615,rock_grid_rect_2,8,04,-1,-1,1.615,0.39453125,-0.389322917,1,0,0,2.2083,Pumice_rect,8,2.208,1,10,0,10,0,1,,,,,,,,,,,,,
66049d37ea3bcf8f98554347,TCR,2024-06-11_13h16.00.573,LearnStrategy,2023.2.3,Win32,59.88023952,5,1,12,-0.029947917,-0.006510417,1,0,0,1.7471,rock_grid_rect_2,4,10,-1,-1,1.747,0.3671875,-0.247395833,1,0,0,6.536,Gabbro_rect,4,6.536,1,11,0,11,0,1,,,,,,,,,,,,,
66049d37ea3bcf8f98554347,TCR,2024-06-11_13h16.00.573,LearnStrategy,2023.2.3,Win32,59.88023952,5,1,13,-0.033854167,-0.0078125,1,0,0,4.0298,rock_grid_rect_2,4,10,-1,-1,4.03,0.391927083,-0.243489583,1,0,0,3.0526,Gabbro_rect,4,3.053,1,12,0,12,0,1,,,,,,,,,,,,,
66049d37ea3bcf8f98554347,TCR,2024-06-11_13h16.00.573,LearnStrategy,2023.2.3,Win32,59.88023952,5,1,14,-0.108072917,-0.005208333,1,0,0,1.6631,rock_grid_rect_2,5,08,-1,-1,1.663,-0.4375,-0.412760417,1,0,0,1.5533,Obsidian_rect,5,1.553,1,13,0,13,0,1,,,,,,,,,,,,,
66049d37ea3bcf8f98554347,TCR,2024-06-11_13h16.00.573,LearnStrategy,2023.2.3,Win32,59.88023952,5,1,15,0.024739583,-0.001302083,1,0,0,1.5296,rock_grid_rect_2,6,13,-1,-1,1.53,-0.138020833,-0.391927083,1,0,0,6.6951,Pegmatite_rect,6,6.695,1,14,0,14,0,1,,,,,,,,,,,,,
66049d37ea3bcf8f98554347,TCR,2024-06-11_13h16.00.573,LearnStrategy,2023.2.3,Win32,59.88023952,5,1,16,0.013020833,-0.01171875,1,0,0,3.2465,rock_grid_rect_2,1,01,-1,-1,3.246,-0.393229167,-0.255208333,1,0,0,5.7174,Andesite_rect,1,5.717,1,15,0,15,0,1,,,,,,,,,,,,,
66049d37ea3bcf8f98554347,TCR,2024-06-11_13h16.00.573,LearnStrategy,2023.2.3,Win32,59.88023952,5,2,1,,,,,,,,2,10,,,,,,,,,,,2,15.057,1,,,,,,-0.127604167,-0.240885417,1,0,0,15.0566,Basalt_rect,0,0,0,0,1,
66049d37ea3bcf8f98554347,TCR,2024-06-11_13h16.00.573,LearnStrategy,2023.2.3,Win32,59.88023952,5,2,2,,,,,,,,6,09,,,,,,,,,,,6,8.086,1,,,,,,-0.1484375,-0.390625,1,0,0,8.086,Pegmatite_rect,1,0,1,0,1,
66049d37ea3bcf8f98554347,TCR,2024-06-11_13h16.00.573,LearnStrategy,2023.2.3,Win32,59.88023952,5,2,3,,,,,,,,8,05,,,,,,,,,,,8,2.438,1,,,,,,0.44921875,-0.40234375,1,0,0,2.4384,Pumice_rect,2,0,2,0,1,
66049d37ea3bcf8f98554347,TCR,2024-06-11_13h16.00.573,LearnStrategy,2023.2.3,Win32,59.88023952,5,2,4,,,,,,,,7,13,,,,,,,,,,,7,8.642,1,,,,,,0.153645833,-0.39453125,1,0,0,8.6418,Peridotite_rect,3,0,3,0,1,
66049d37ea3bcf8f98554347,TCR,2024-06-11_13h16.00.573,LearnStrategy,2023.2.3,Win32,59.88023952,5,2,5,,,,,,,,7,14,,,,,,,,,,,3,24.156,0,,,,,,0.11328125,-0.255208333,1,0,0,24.1558,Diorite_rect,4,0,4,0,1,
66049d37ea3bcf8f98554347,TCR,2024-06-11_13h16.00.573,LearnStrategy,2023.2.3,Win32,59.88023952,5,2,6,,,,,,,,4,05,,,,,,,,,,,4,13.887,1,,,,,,0.408854167,-0.247395833,1,0,0,13.8871,Gabbro_rect,5,0,5,0,1,
66049d37ea3bcf8f98554347,TCR,2024-06-11_13h16.00.573,LearnStrategy,2023.2.3,Win32,59.88023952,5,2,7,,,,,,,,1,04,,,,,,,,,,,1,15.17,1,,,,,,-0.393229167,-0.255208333,1,0,0,15.1701,Andesite_rect,6,0,6,0,1,
66049d37ea3bcf8f98554347,TCR,2024-06-11_13h16.00.573,LearnStrategy,2023.2.3,Win32,59.88023952,5,2,8,,,,,,,,2,02,,,,,,,,,,,2,9.004,1,,,,,,-0.15234375,-0.251302083,1,0,0,9.0038,Basalt_rect,7,0,7,0,1,
66049d37ea3bcf8f98554347,TCR,2024-06-11_13h16.00.573,LearnStrategy,2023.2.3,Win32,59.88023952,5,2,9,,,,,,,,6,05,,,,,,,,,,,6,9.401,1,,,,,,-0.143229167,-0.397135417,1,0,0,9.401,Pegmatite_rect,8,0,8,0,1,
66049d37ea3bcf8f98554347,TCR,2024-06-11_13h16.00.573,LearnStrategy,2023.2.3,Win32,59.88023952,5,2,10,,,,,,,,5,07,,,,,,,,,,,5,2.069,1,,,,,,-0.395833333,-0.403645833,1,0,0,2.0691,Obsidian_rect,9,0,9,0,1,
66049d37ea3bcf8f98554347,TCR,2024-06-11_13h16.00.573,LearnStrategy,2023.2.3,Win32,59.88023952,5,2,11,,,,,,,,4,14,,,,,,,,,,,4,12.689,1,,,,,,0.432291667,-0.240885417,1,0,0,12.6887,Gabbro_rect,10,0,10,0,1,
66049d37ea3bcf8f98554347,TCR,2024-06-11_13h16.00.573,LearnStrategy,2023.2.3,Win32,59.88023952,5,2,12,,,,,,,,1,14,,,,,,,,,,,1,17.628,1,,,,,,-0.450520833,-0.234375,1,0,0,17.6283,Andesite_rect,11,0,11,0,1,
66049d37ea3bcf8f98554347,TCR,2024-06-11_13h16.00.573,LearnStrategy,2023.2.3,Win32,59.88023952,5,2,13,,,,,,,,3,10,,,,,,,,,,,3,8.068,1,,,,,,0.10546875,-0.2421875,1,0,0,8.0676,Diorite_rect,12,0,12,0,1,
66049d37ea3bcf8f98554347,TCR,2024-06-11_13h16.00.573,LearnStrategy,2023.2.3,Win32,59.88023952,5,2,14,,,,,,,,3,14,,,,,,,,,,,3,3.908,1,,,,,,0.10546875,-0.2421875,1,0,0,3.9082,Diorite_rect,13,0,13,0,1,
66049d37ea3bcf8f98554347,TCR,2024-06-11_13h16.00.573,LearnStrategy,2023.2.3,Win32,59.88023952,5,2,15,,,,,,,,5,05,,,,,,,,,,,5,3.248,1,,,,,,-0.372395833,-0.401041667,1,0,0,3.2476,Obsidian_rect,14,0,14,0,1,
66049d37ea3bcf8f98554347,TCR,2024-06-11_13h16.00.573,LearnStrategy,2023.2.3,Win32,59.88023952,5,2,16,,,,,,,,8,02,,,,,,,,,,,8,2.064,1,,,,,,0.40625,-0.37890625,1,0,0,2.0636,Pumice_rect,15,0,15,0,1,
66049d37ea3bcf8f98554347,TCR,2024-06-11_13h16.00.573,LearnStrategy,2023.2.3,Win32,59.88023952,6,1,1,-0.00390625,-0.00390625,1,0,0,2.3285,rock_grid_rect_2,4,12,-1,-1,2.329,-0.153645833,-0.260416667,1,0,0,6.6719,Basalt_rect,2,6.672,0,0,0,0,0,1,,,,,,,,,,,,,
66049d37ea3bcf8f98554347,TCR,2024-06-11_13h16.00.573,LearnStrategy,2023.2.3,Win32,59.88023952,6,1,2,0.005208333,0.009114583,1,0,0,1.3335,rock_grid_rect_2,7,02,-1,-1,1.334,0.088541667,-0.399739583,1,0,0,20.1655,Peridotite_rect,7,20.165,1,1,0,1,0,1,,,,,,,,,,,,,
66049d37ea3bcf8f98554347,TCR,2024-06-11_13h16.00.573,LearnStrategy,2023.2.3,Win32,59.88023952,6,1,3,-0.045572917,-0.00390625,1,0,0,1.6139,rock_grid_rect_2,1,09,-1,-1,1.614,-0.3828125,-0.25390625,1,0,0,5.1366,Andesite_rect,1,5.137,1,2,0,2,0,1,,,,,,,,,,,,,
66049d37ea3bcf8f98554347,TCR,2024-06-11_13h16.00.573,LearnStrategy,2023.2.3,Win32,59.88023952,6,1,4,-0.00390625,-0.010416667,1,0,0,1.7788,rock_grid_rect_2,2,04,-1,-1,1.779,-0.1171875,-0.25,1,0,0,2.4884,Basalt_rect,2,2.488,1,3,0,3,0,1,,,,,,,,,,,,,
66049d37ea3bcf8f98554347,TCR,2024-06-11_13h16.00.573,LearnStrategy,2023.2.3,Win32,59.88023952,6,1,5,-0.03125,0.001302083,1,0,0,1.747,rock_grid_rect_2,4,10,-1,-1,1.747,0.388020833,-0.234375,1,0,0,2.3365,Gabbro_rect,4,2.336,1,4,0,4,0,1,,,,,,,,,,,,,
66049d37ea3bcf8f98554347,TCR,2024-06-11_13h16.00.573,LearnStrategy,2023.2.3,Win32,59.88023952,6,1,6,-0.001302083,0.001302083,1,0,0,1.6971,rock_grid_rect_2,7,04,-1,-1,1.697,0.139322917,-0.390625,1,0,0,9.4199,Peridotite_rect,7,9.42,1,5,0,5,0,1,,,,,,,,,,,,,
66049d37ea3bcf8f98554347,TCR,2024-06-11_13h16.00.573,LearnStrategy,2023.2.3,Win32,59.88023952,6,1,7,-0.049479167,0.013020833,1,0,0,1.3308,rock_grid_rect_2,1,01,-1,-1,1.331,-0.390625,-0.247395833,1,0,0,6.1947,Andesite_rect,1,6.195,1,6,0,6,0,1,,,,,,,,,,,,,
66049d37ea3bcf8f98554347,TCR,2024-06-11_13h16.00.573,LearnStrategy,2023.2.3,Win32,59.88023952,6,1,8,-0.026041667,0.009114583,1,0,0,1.6123,rock_grid_rect_2,6,10,-1,-1,1.612,-0.145833333,-0.416666667,1,0,0,5.9037,Pegmatite_rect,6,5.904,1,7,0,7,0,1,,,,,,,,,,,,,
66049d37ea3bcf8f98554347,TCR,2024-06-11_13h16.00.573,LearnStrategy,2023.2.3,Win32,59.88023952,6,1,9,-0.013020833,0.009114583,1,0,0,1.5802,rock_grid_rect_2,1,02,-1,-1,1.58,-0.37890625,-0.233072917,1,0,0,3.9378,Andesite_rect,1,3.938,1,8,0,8,0,1,,,,,,,,,,,,,
66049d37ea3bcf8f98554347,TCR,2024-06-11_13h16.00.573,LearnStrategy,2023.2.3,Win32,59.88023952,6,1,10,-0.0234375,0.00390625,1,0,0,1.7792,rock_grid_rect_2,8,04,-1,-1,1.779,0.365885417,-0.399739583,1,0,0,1.7922,Pumice_rect,8,1.792,1,9,0,9,0,1,,,,,,,,,,,,,
66049d37ea3bcf8f98554347,TCR,2024-06-11_13h16.00.573,LearnStrategy,2023.2.3,Win32,59.88023952,6,1,11,-0.033854167,-0.001302083,1,0,0,1.6482,rock_grid_rect_2,3,11,-1,-1,1.648,0.0859375,-0.240885417,1,0,0,5.6577,Diorite_rect,3,5.658,1,10,0,10,0,1,,,,,,,,,,,,,
66049d37ea3bcf8f98554347,TCR,2024-06-11_13h16.00.573,LearnStrategy,2023.2.3,Win32,59.88023952,6,1,12,-0.045572917,0.01171875,1,0,0,1.4645,rock_grid_rect_2,4,09,-1,-1,1.465,-0.151041667,-0.2421875,1,0,0,6.1312,Basalt_rect,2,6.131,0,11,0,11,0,1,,,,,,,,,,,,,
66049d37ea3bcf8f98554347,TCR,2024-06-11_13h16.00.573,LearnStrategy,2023.2.3,Win32,59.88023952,6,1,13,-0.015625,-0.010416667,1,0,0,1.8937,rock_grid_rect_2,5,14,-1,-1,1.894,-0.408854167,-0.399739583,1,0,0,4.7015,Obsidian_rect,5,4.701,1,12,0,12,0,1,,,,,,,,,,,,,
66049d37ea3bcf8f98554347,TCR,2024-06-11_13h16.00.573,LearnStrategy,2023.2.3,Win32,59.88023952,6,1,14,0.04296875,0.002604167,1,0,0,1.5786,rock_grid_rect_2,4,13,-1,-1,1.579,0.36328125,-0.231770833,1,0,0,8.4192,Gabbro_rect,4,8.419,1,13,0,13,0,1,,,,,,,,,,,,,
66049d37ea3bcf8f98554347,TCR,2024-06-11_13h16.00.573,LearnStrategy,2023.2.3,Win32,59.88023952,6,1,15,-0.088541667,0.006510417,1,0,0,2.4121,rock_grid_rect_2,7,15,-1,-1,2.412,0.15234375,-0.395833333,1,0,0,9.9346,Peridotite_rect,7,9.935,1,14,0,14,0,1,,,,,,,,,,,,,
66049d37ea3bcf8f98554347,TCR,2024-06-11_13h16.00.573,LearnStrategy,2023.2.3,Win32,59.88023952,6,1,16,-0.026041667,-0.005208333,1,0,0,1.6957,rock_grid_rect_2,1,01,-1,-1,1.696,-0.436197917,-0.2578125,1,0,0,9.3762,Andesite_rect,1,9.376,1,15,0,15,0,1,,,,,,,,,,,,,
66049d37ea3bcf8f98554347,TCR,2024-06-11_13h16.00.573,LearnStrategy,2023.2.3,Win32,59.88023952,6,2,1,,,,,,,,7,08,,,,,,,,,,,7,9.857,1,,,,,,0.09765625,-0.40625,1,0,0,9.8567,Peridotite_rect,0,0,0,0,1,
66049d37ea3bcf8f98554347,TCR,2024-06-11_13h16.00.573,LearnStrategy,2023.2.3,Win32,59.88023952,6,2,2,,,,,,,,7,12,,,,,,,,,,,7,1.704,1,,,,,,0.09765625,-0.40625,1,0,0,1.7044,Peridotite_rect,1,0,1,0,1,
66049d37ea3bcf8f98554347,TCR,2024-06-11_13h16.00.573,LearnStrategy,2023.2.3,Win32,59.88023952,6,2,3,,,,,,,,3,06,,,,,,,,,,,3,13.246,1,,,,,,0.118489583,-0.255208333,1,0,0,13.2465,Diorite_rect,2,0,2,0,1,
66049d37ea3bcf8f98554347,TCR,2024-06-11_13h16.00.573,LearnStrategy,2023.2.3,Win32,59.88023952,6,2,4,,,,,,,,8,08,,,,,,,,,,,8,2.32,1,,,,,,0.384114583,-0.416666667,1,0,0,2.32,Pumice_rect,3,0,3,0,1,
66049d37ea3bcf8f98554347,TCR,2024-06-11_13h16.00.573,LearnStrategy,2023.2.3,Win32,59.88023952,6,2,5,,,,,,,,6,03,,,,,,,,,,,6,2.558,1,,,,,,-0.135416667,-0.41015625,1,0,0,2.5582,Pegmatite_rect,4,0,4,0,1,
66049d37ea3bcf8f98554347,TCR,2024-06-11_13h16.00.573,LearnStrategy,2023.2.3,Win32,59.88023952,6,2,6,,,,,,,,5,11,,,,,,,,,,,5,1.571,1,,,,,,-0.388020833,-0.415364583,1,0,0,1.5711,Obsidian_rect,5,0,5,0,1,
66049d37ea3bcf8f98554347,TCR,2024-06-11_13h16.00.573,LearnStrategy,2023.2.3,Win32,59.88023952,6,2,7,,,,,,,,8,15,,,,,,,,,,,8,2.036,1,,,,,,0.337239583,-0.40234375,1,0,0,2.0363,Pumice_rect,6,0,6,0,1,
66049d37ea3bcf8f98554347,TCR,2024-06-11_13h16.00.573,LearnStrategy,2023.2.3,Win32,59.88023952,6,2,8,,,,,,,,4,01,,,,,,,,,,,4,26.53,1,,,,,,0.415364583,-0.233072917,1,0,0,26.5295,Gabbro_rect,7,0,7,0,1,
66049d37ea3bcf8f98554347,TCR,2024-06-11_13h16.00.573,LearnStrategy,2023.2.3,Win32,59.88023952,6,2,9,,,,,,,,4,08,,,,,,,,,,,4,7.486,1,,,,,,0.415364583,-0.233072917,1,0,0,7.486,Gabbro_rect,8,0,8,0,1,
66049d37ea3bcf8f98554347,TCR,2024-06-11_13h16.00.573,LearnStrategy,2023.2.3,Win32,59.88023952,6,2,10,,,,,,,,2,16,,,,,,,,,,,2,7.421,1,,,,,,-0.127604167,-0.252604167,1,0,0,7.4206,Basalt_rect,9,0,9,0,1,
66049d37ea3bcf8f98554347,TCR,2024-06-11_13h16.00.573,LearnStrategy,2023.2.3,Win32,59.88023952,6,2,11,,,,,,,,1,10,,,,,,,,,,,1,18.887,1,,,,,,-0.404947917,-0.233072917,1,0,0,18.8867,Andesite_rect,10,0,10,0,1,
66049d37ea3bcf8f98554347,TCR,2024-06-11_13h16.00.573,LearnStrategy,2023.2.3,Win32,59.88023952,6,2,12,,,,,,,,1,05,,,,,,,,,,,1,2.12,1,,,,,,-0.404947917,-0.233072917,1,0,0,2.1197,Andesite_rect,11,0,11,0,1,
66049d37ea3bcf8f98554347,TCR,2024-06-11_13h16.00.573,LearnStrategy,2023.2.3,Win32,59.88023952,6,2,13,,,,,,,,3,13,,,,,,,,,,,3,11.093,1,,,,,,0.11328125,-0.251302083,1,0,0,11.0926,Diorite_rect,12,0,12,0,1,
66049d37ea3bcf8f98554347,TCR,2024-06-11_13h16.00.573,LearnStrategy,2023.2.3,Win32,59.88023952,6,2,14,,,,,,,,2,06,,,,,,,,,,,2,16.805,1,,,,,,-0.151041667,-0.256510417,1,0,0,16.8046,Basalt_rect,13,0,13,0,1,
66049d37ea3bcf8f98554347,TCR,2024-06-11_13h16.00.573,LearnStrategy,2023.2.3,Win32,59.88023952,6,2,15,,,,,,,,6,15,,,,,,,,,,,6,3.053,1,,,,,,-0.158854167,-0.39453125,1,0,0,3.0533,Pegmatite_rect,14,0,14,0,1,
66049d37ea3bcf8f98554347,TCR,2024-06-11_13h16.00.573,LearnStrategy,2023.2.3,Win32,59.88023952,6,2,16,,,,,,,,5,12,,,,,,,,,,,5,1.538,1,,,,,,-0.399739583,-0.399739583,1,0,0,1.5381,Obsidian_rect,15,0,15,0,1,
66049d37ea3bcf8f98554347,TCR,2024-06-11_13h16.00.573,LearnStrategy,2023.2.3,Win32,59.88023952,7,1,1,-0.0078125,0.00390625,1,0,0,5.8808,rock_grid_rect_2,4,12,-1,-1,5.881,0.388020833,-0.234375,1,0,0,14.0292,Gabbro_rect,4,14.029,1,0,0,0,0,1,,,,,,,,,,,,,
66049d37ea3bcf8f98554347,TCR,2024-06-11_13h16.00.573,LearnStrategy,2023.2.3,Win32,59.88023952,7,1,2,-0.018229167,-0.010416667,1,0,0,1.4684,rock_grid_rect_2,7,04,-1,-1,1.468,0.114583333,-0.39453125,1,0,0,10.6175,Peridotite_rect,7,10.617,1,1,0,1,0,1,,,,,,,,,,,,,
66049d37ea3bcf8f98554347,TCR,2024-06-11_13h16.00.573,LearnStrategy,2023.2.3,Win32,59.88023952,7,1,3,-0.05859375,-0.013020833,1,0,0,1.3294,rock_grid_rect_2,2,09,-1,-1,1.329,-0.131510417,-0.239583333,1,0,0,3.5947,Basalt_rect,2,3.595,1,2,0,2,0,1,,,,,,,,,,,,,
66049d37ea3bcf8f98554347,TCR,2024-06-11_13h16.00.573,LearnStrategy,2023.2.3,Win32,59.88023952,7,1,4,-0.028645833,-0.002604167,1,0,0,1.7467,rock_grid_rect_2,1,11,-1,-1,1.747,-0.412760417,-0.23828125,1,0,0,11.089,Andesite_rect,1,11.089,1,3,0,3,0,1,,,,,,,,,,,,,
66049d37ea3bcf8f98554347,TCR,2024-06-11_13h16.00.573,LearnStrategy,2023.2.3,Win32,59.88023952,7,1,5,0.032552083,0.005208333,1,0,0,1.3953,rock_grid_rect_2,1,02,-1,-1,1.395,-0.390625,-0.239583333,1,0,0,6.9698,Andesite_rect,1,6.97,1,4,0,4,0,1,,,,,,,,,,,,,
66049d37ea3bcf8f98554347,TCR,2024-06-11_13h16.00.573,LearnStrategy,2023.2.3,Win32,59.88023952,7,1,6,-0.0546875,0.009114583,1,0,0,1.2463,rock_grid_rect_2,6,13,-1,-1,1.246,-0.119791667,-0.412760417,1,0,0,1.9561,Pegmatite_rect,6,1.956,1,5,0,5,0,1,,,,,,,,,,,,,
66049d37ea3bcf8f98554347,TCR,2024-06-11_13h16.00.573,LearnStrategy,2023.2.3,Win32,59.88023952,7,1,7,-0.01953125,-0.002604167,1,0,0,1.4635,rock_grid_rect_2,4,13,-1,-1,1.463,0.389322917,-0.24609375,1,0,0,5.5029,Gabbro_rect,4,5.503,1,6,0,6,0,1,,,,,,,,,,,,,
66049d37ea3bcf8f98554347,TCR,2024-06-11_13h16.00.573,LearnStrategy,2023.2.3,Win32,59.88023952,7,1,8,-0.040364583,0.002604167,1,0,0,1.7962,rock_grid_rect_2,1,01,-1,-1,1.796,-0.380208333,-0.251302083,1,0,0,10.2776,Andesite_rect,1,10.278,1,7,0,7,0,1,,,,,,,,,,,,,
66049d37ea3bcf8f98554347,TCR,2024-06-11_13h16.00.573,LearnStrategy,2023.2.3,Win32,59.88023952,7,1,9,0.013020833,0.005208333,1,0,0,1.613,rock_grid_rect_2,7,04,-1,-1,1.613,0.126302083,-0.401041667,1,0,0,6.7364,Peridotite_rect,7,6.736,1,8,0,8,0,1,,,,,,,,,,,,,
66049d37ea3bcf8f98554347,TCR,2024-06-11_13h16.00.573,LearnStrategy,2023.2.3,Win32,59.88023952,7,1,10,-0.002604167,0.015625,1,0,0,2.4459,rock_grid_rect_2,5,02,-1,-1,2.446,-0.37109375,-0.391927083,1,0,0,1.2689,Obsidian_rect,5,1.269,1,9,0,9,0,1,,,,,,,,,,,,,
66049d37ea3bcf8f98554347,TCR,2024-06-11_13h16.00.573,LearnStrategy,2023.2.3,Win32,59.88023952,7,1,11,-0.032552083,-0.006510417,1,0,0,1.3311,rock_grid_rect_2,1,07,-1,-1,1.331,-0.4140625,-0.244791667,1,0,0,11.7223,Andesite_rect,1,11.722,1,10,0,10,0,1,,,,,,,,,,,,,
66049d37ea3bcf8f98554347,TCR,2024-06-11_13h16.00.573,LearnStrategy,2023.2.3,Win32,59.88023952,7,1,12,-0.024739583,-0.001302083,1,0,0,1.4801,rock_grid_rect_2,3,16,-1,-1,1.48,0.12890625,-0.260416667,1,0,0,7.5037,Diorite_rect,3,7.504,1,11,0,11,0,1,,,,,,,,,,,,,
66049d37ea3bcf8f98554347,TCR,2024-06-11_13h16.00.573,LearnStrategy,2023.2.3,Win32,59.88023952,7,1,13,-0.08203125,0.002604167,1,0,0,1.6454,rock_grid_rect_2,3,07,-1,-1,1.645,0.102864583,-0.233072917,1,0,0,8.9356,Diorite_rect,3,8.936,1,12,0,12,0,1,,,,,,,,,,,,,
66049d37ea3bcf8f98554347,TCR,2024-06-11_13h16.00.573,LearnStrategy,2023.2.3,Win32,59.88023952,7,1,14,-0.014322917,0.0078125,1,0,0,1.5128,rock_grid_rect_2,8,10,-1,-1,1.513,0.40625,-0.40625,1,0,0,2.1692,Pumice_rect,8,2.169,1,13,0,13,0,1,,,,,,,,,,,,,
66049d37ea3bcf8f98554347,TCR,2024-06-11_13h16.00.573,LearnStrategy,2023.2.3,Win32,59.88023952,7,1,15,-0.046875,0.016927083,1,0,0,1.6633,rock_grid_rect_2,7,15,-1,-1,1.663,0.131510417,-0.3984375,1,0,0,5.5533,Peridotite_rect,7,5.553,1,14,0,14,0,1,,,,,,,,,,,,,
66049d37ea3bcf8f98554347,TCR,2024-06-11_13h16.00.573,LearnStrategy,2023.2.3,Win32,59.88023952,7,1,16,-0.022135417,-0.006510417,1,0,0,1.563,rock_grid_rect_2,4,16,-1,-1,1.563,0.381510417,-0.247395833,1,0,0,8.9861,Gabbro_rect,4,8.986,1,15,0,15,0,1,,,,,,,,,,,,,
66049d37ea3bcf8f98554347,TCR,2024-06-11_13h16.00.573,LearnStrategy,2023.2.3,Win32,59.88023952,7,2,1,,,,,,,,6,09,,,,,,,,,,,6,2.65,1,,,,,,-0.147135417,-0.401041667,1,0,0,2.6499,Pegmatite_rect,0,0,0,0,1,
66049d37ea3bcf8f98554347,TCR,2024-06-11_13h16.00.573,LearnStrategy,2023.2.3,Win32,59.88023952,7,2,2,,,,,,,,3,06,,,,,,,,,,,3,7.149,1,,,,,,0.108072917,-0.264322917,1,0,0,7.1485,Diorite_rect,1,0,1,0,1,
66049d37ea3bcf8f98554347,TCR,2024-06-11_13h16.00.573,LearnStrategy,2023.2.3,Win32,59.88023952,7,2,3,,,,,,,,4,05,,,,,,,,,,,4,22.039,1,,,,,,0.376302083,-0.25390625,1,0,0,22.0391,Gabbro_rect,2,0,2,0,1,
66049d37ea3bcf8f98554347,TCR,2024-06-11_13h16.00.573,LearnStrategy,2023.2.3,Win32,59.88023952,7,2,4,,,,,,,,2,02,,,,,,,,,,,2,13.22,1,,,,,,-0.11328125,-0.256510417,1,0,0,13.2195,Basalt_rect,3,0,3,0,1,
66049d37ea3bcf8f98554347,TCR,2024-06-11_13h16.00.573,LearnStrategy,2023.2.3,Win32,59.88023952,7,2,5,,,,,,,,6,06,,,,,,,,,,,6,4.42,1,,,,,,-0.1328125,-0.401041667,1,0,0,4.4201,Pegmatite_rect,4,0,4,0,1,
66049d37ea3bcf8f98554347,TCR,2024-06-11_13h16.00.573,LearnStrategy,2023.2.3,Win32,59.88023952,7,2,6,,,,,,,,2,08,,,,,,,,,,,2,4.535,1,,,,,,-0.1484375,-0.251302083,1,0,0,4.5354,Basalt_rect,5,0,5,0,1,
66049d37ea3bcf8f98554347,TCR,2024-06-11_13h16.00.573,LearnStrategy,2023.2.3,Win32,59.88023952,7,2,7,,,,,,,,4,03,,,,,,,,,,,3,5.728,0,,,,,,0.09375,-0.247395833,1,0,0,5.7276,Diorite_rect,6,0,6,0,1,
66049d37ea3bcf8f98554347,TCR,2024-06-11_13h16.00.573,LearnStrategy,2023.2.3,Win32,59.88023952,7,2,8,,,,,,,,5,07,,,,,,,,,,,5,2.044,1,,,,,,-0.399739583,-0.393229167,1,0,0,2.0445,Obsidian_rect,7,0,7,0,1,
66049d37ea3bcf8f98554347,TCR,2024-06-11_13h16.00.573,LearnStrategy,2023.2.3,Win32,59.88023952,7,2,9,,,,,,,,1,14,,,,,,,,,,,7,32.695,0,,,,,,0.139322917,-0.401041667,1,0,0,32.6949,Peridotite_rect,8,0,8,0,1,
66049d37ea3bcf8f98554347,TCR,2024-06-11_13h16.00.573,LearnStrategy,2023.2.3,Win32,59.88023952,7,2,10,,,,,,,,7,14,,,,,,,,,,,3,14.71,0,,,,,,0.102864583,-0.233072917,1,0,0,14.7095,Diorite_rect,9,0,9,0,1,
66049d37ea3bcf8f98554347,TCR,2024-06-11_13h16.00.573,LearnStrategy,2023.2.3,Win32,59.88023952,7,2,11,,,,,,,,1,04,,,,,,,,,,,1,14.899,1,,,,,,-0.385416667,-0.235677083,1,0,0,14.8989,Andesite_rect,10,0,10,0,1,
66049d37ea3bcf8f98554347,TCR,2024-06-11_13h16.00.573,LearnStrategy,2023.2.3,Win32,59.88023952,7,2,12,,,,,,,,5,12,,,,,,,,,,,5,1.685,1,,,,,,-0.444010417,-0.403645833,1,0,0,1.6853,Obsidian_rect,11,0,11,0,1,
66049d37ea3bcf8f98554347,TCR,2024-06-11_13h16.00.573,LearnStrategy,2023.2.3,Win32,59.88023952,7,2,13,,,,,,,,7,08,,,,,,,,,,,7,2.751,1,,,,,,0.135416667,-0.397135417,1,0,0,2.7513,Peridotite_rect,12,0,12,0,1,
66049d37ea3bcf8f98554347,TCR,2024-06-11_13h16.00.573,LearnStrategy,2023.2.3,Win32,59.88023952,7,2,14,,,,,,,,8,05,,,,,,,,,,,8,1.357,1,,,,,,0.419270833,-0.389322917,1,0,0,1.3572,Pumice_rect,13,0,13,0,1,
66049d37ea3bcf8f98554347,TCR,2024-06-11_13h16.00.573,LearnStrategy,2023.2.3,Win32,59.88023952,7,2,15,,,,,,,,8,08,,,,,,,,,,,8,0.998,1,,,,,,0.419270833,-0.389322917,1,0,0,0.9978,Pumice_rect,14,0,14,0,1,
66049d37ea3bcf8f98554347,TCR,2024-06-11_13h16.00.573,LearnStrategy,2023.2.3,Win32,59.88023952,7,2,16,,,,,,,,3,08,,,,,,,,,,,3,8.215,1,,,,,,0.143229167,-0.239583333,1,0,0,8.215,Diorite_rect,15,0,15,0,1,
66049d37ea3bcf8f98554347,TCR,2024-06-11_13h16.00.573,LearnStrategy,2023.2.3,Win32,59.88023952,8,1,1,-0.044270833,-0.0078125,1,0,0,2.3305,rock_grid_rect_2,5,02,-1,-1,2.331,-0.3515625,-0.3828125,1,0,0,1.5266,Obsidian_rect,5,1.527,1,0,0,0,0,1,,,,,,,,,,,,,
66049d37ea3bcf8f98554347,TCR,2024-06-11_13h16.00.573,LearnStrategy,2023.2.3,Win32,59.88023952,8,1,2,-0.049479167,0.001302083,1,0,0,1.4282,rock_grid_rect_2,1,09,-1,-1,1.428,0.109375,-0.40625,1,0,0,2.5492,Peridotite_rect,7,2.549,0,1,0,1,0,1,,,,,,,,,,,,,
66049d37ea3bcf8f98554347,TCR,2024-06-11_13h16.00.573,LearnStrategy,2023.2.3,Win32,59.88023952,8,1,3,-0.006510417,0.001302083,1,0,0,1.2491,rock_grid_rect_2,2,05,-1,-1,1.249,-0.09375,-0.234375,1,0,0,1.9828,Basalt_rect,2,1.983,1,2,0,2,0,1,,,,,,,,,,,,,
66049d37ea3bcf8f98554347,TCR,2024-06-11_13h16.00.573,LearnStrategy,2023.2.3,Win32,59.88023952,8,1,4,0.02734375,0.005208333,1,0,0,1.2303,rock_grid_rect_2,6,10,-1,-1,1.23,-0.139322917,-0.39453125,1,0,0,1.7532,Pegmatite_rect,6,1.753,1,3,0,3,0,1,,,,,,,,,,,,,
66049d37ea3bcf8f98554347,TCR,2024-06-11_13h16.00.573,LearnStrategy,2023.2.3,Win32,59.88023952,8,1,5,-0.014322917,-0.0078125,1,0,0,1.3309,rock_grid_rect_2,7,16,-1,-1,1.331,0.131510417,-0.40625,1,0,0,17.9117,Peridotite_rect,7,17.912,1,4,0,4,0,1,,,,,,,,,,,,,
66049d37ea3bcf8f98554347,TCR,2024-06-11_13h16.00.573,LearnStrategy,2023.2.3,Win32,59.88023952,8,1,6,-0.098958333,-0.015625,1,0,0,1.8146,rock_grid_rect_2,4,16,-1,-1,1.815,0.360677083,-0.23828125,1,0,0,6.7149,Gabbro_rect,4,6.715,1,5,0,5,0,1,,,,,,,,,,,,,
66049d37ea3bcf8f98554347,TCR,2024-06-11_13h16.00.573,LearnStrategy,2023.2.3,Win32,59.88023952,8,1,7,-0.071614583,-0.006510417,1,0,0,1.5463,rock_grid_rect_2,1,01,-1,-1,1.546,-0.407552083,-0.247395833,1,0,0,9.9878,Andesite_rect,1,9.988,1,6,0,6,0,1,,,,,,,,,,,,,
66049d37ea3bcf8f98554347,TCR,2024-06-11_13h16.00.573,LearnStrategy,2023.2.3,Win32,59.88023952,8,1,8,-0.036458333,0,1,0,0,1.3305,rock_grid_rect_2,4,16,-1,-1,1.331,0.356770833,-0.239583333,1,0,0,2.0861,Gabbro_rect,4,2.086,1,7,0,7,0,1,,,,,,,,,,,,,
66049d37ea3bcf8f98554347,TCR,2024-06-11_13h16.00.573,LearnStrategy,2023.2.3,Win32,59.88023952,8,1,9,-0.009114583,0,1,0,0,1.247,rock_grid_rect_2,3,02,-1,-1,1.247,0.083333333,-0.240885417,1,0,0,13.1789,Diorite_rect,3,13.179,1,8,0,8,0,1,,,,,,,,,,,,,
66049d37ea3bcf8f98554347,TCR,2024-06-11_13h16.00.573,LearnStrategy,2023.2.3,Win32,59.88023952,8,1,10,-0.037760417,-0.00390625,1,0,0,1.5448,rock_grid_rect_2,8,10,-1,-1,1.545,0.350260417,-0.380208333,1,0,0,1.875,Pumice_rect,8,1.875,1,9,0,9,0,1,,,,,,,,,,,,,
66049d37ea3bcf8f98554347,TCR,2024-06-11_13h16.00.573,LearnStrategy,2023.2.3,Win32,59.88023952,8,1,11,-0.036458333,0.009114583,1,0,0,1.8476,rock_grid_rect_2,3,15,-1,-1,1.848,0.147135417,-0.26171875,1,0,0,2.2698,Diorite_rect,3,2.27,1,10,0,10,0,1,,,,,,,,,,,,,
66049d37ea3bcf8f98554347,TCR,2024-06-11_13h16.00.573,LearnStrategy,2023.2.3,Win32,59.88023952,8,1,12,-0.037760417,0,1,0,0,1.4464,rock_grid_rect_2,4,10,-1,-1,1.446,0.3828125,-0.239583333,1,0,0,15.5718,Gabbro_rect,4,15.572,1,11,0,11,0,1,,,,,,,,,,,,,
66049d37ea3bcf8f98554347,TCR,2024-06-11_13h16.00.573,LearnStrategy,2023.2.3,Win32,59.88023952,8,1,13,-0.091145833,-0.009114583,1,0,0,1.3469,rock_grid_rect_2,7,04,-1,-1,1.347,0.102864583,-0.40234375,1,0,0,9.4372,Peridotite_rect,7,9.437,1,12,0,12,0,1,,,,,,,,,,,,,
66049d37ea3bcf8f98554347,TCR,2024-06-11_13h16.00.573,LearnStrategy,2023.2.3,Win32,59.88023952,8,1,14,0.010416667,0.001302083,1,0,0,1.546,rock_grid_rect_2,1,11,-1,-1,1.546,-0.393229167,-0.23828125,1,0,0,10.5368,Andesite_rect,1,10.537,1,13,0,13,0,1,,,,,,,,,,,,,
66049d37ea3bcf8f98554347,TCR,2024-06-11_13h16.00.573,LearnStrategy,2023.2.3,Win32,59.88023952,8,1,15,-0.04296875,-0.009114583,1,0,0,1.4487,rock_grid_rect_2,7,07,-1,-1,1.449,0.14453125,-0.3984375,1,0,0,16.1795,Peridotite_rect,7,16.179,1,14,0,14,0,1,,,,,,,,,,,,,
66049d37ea3bcf8f98554347,TCR,2024-06-11_13h16.00.573,LearnStrategy,2023.2.3,Win32,59.88023952,8,1,16,-0.041666667,0.006510417,1,0,0,1.7462,rock_grid_rect_2,1,11,-1,-1,1.746,-0.399739583,-0.236979167,1,0,0,15.2183,Andesite_rect,1,15.218,1,15,0,15,0,1,,,,,,,,,,,,,
66049d37ea3bcf8f98554347,TCR,2024-06-11_13h16.00.573,LearnStrategy,2023.2.3,Win32,59.88023952,8,2,1,,,,,,,,3,12,,,,,,,,,,,3,10.269,1,,,,,,0.127604167,-0.25390625,1,0,0,10.269,Diorite_rect,0,0,0,0,1,
66049d37ea3bcf8f98554347,TCR,2024-06-11_13h16.00.573,LearnStrategy,2023.2.3,Win32,59.88023952,8,2,2,,,,,,,,6,15,,,,,,,,,,,6,2.019,1,,,,,,-0.143229167,-0.407552083,1,0,0,2.0195,Pegmatite_rect,1,0,1,0,1,
66049d37ea3bcf8f98554347,TCR,2024-06-11_13h16.00.573,LearnStrategy,2023.2.3,Win32,59.88023952,8,2,3,,,,,,,,6,03,,,,,,,,,,,6,2.135,1,,,,,,-0.143229167,-0.39453125,1,0,0,2.1347,Pegmatite_rect,2,0,2,0,1,
66049d37ea3bcf8f98554347,TCR,2024-06-11_13h16.00.573,LearnStrategy,2023.2.3,Win32,59.88023952,8,2,4,,,,,,,,8,06,,,,,,,,,,,8,1.759,1,,,,,,0.395833333,-0.407552083,1,0,0,1.7594,Pumice_rect,3,0,3,0,1,
66049d37ea3bcf8f98554347,TCR,2024-06-11_13h16.00.573,LearnStrategy,2023.2.3,Win32,59.88023952,8,2,5,,,,,,,,7,05,,,,,,,,,,,7,7.245,1,,,,,,0.15625,-0.40625,1,0,0,7.2451,Peridotite_rect,4,0,4,0,1,
66049d37ea3bcf8f98554347,TCR,2024-06-11_13h16.00.573,LearnStrategy,2023.2.3,Win32,59.88023952,8,2,6,,,,,,,,8,02,,,,,,,,,,,8,2.304,1,,,,,,0.373697917,-0.385416667,1,0,0,2.3041,Pumice_rect,5,0,5,0,1,
66049d37ea3bcf8f98554347,TCR,2024-06-11_13h16.00.573,LearnStrategy,2023.2.3,Win32,59.88023952,8,2,7,,,,,,,,5,09,,,,,,,,,,,5,1.67,1,,,,,,-0.466145833,-0.41796875,1,0,0,1.6696,Obsidian_rect,6,0,6,0,1,
66049d37ea3bcf8f98554347,TCR,2024-06-11_13h16.00.573,LearnStrategy,2023.2.3,Win32,59.88023952,8,2,8,,,,,,,,1,16,,,,,,,,,,,1,33.207,1,,,,,,-0.39453125,-0.25,1,0,0,33.2067,Andesite_rect,7,0,7,0,1,
66049d37ea3bcf8f98554347,TCR,2024-06-11_13h16.00.573,LearnStrategy,2023.2.3,Win32,59.88023952,8,2,9,,,,,,,,5,11,,,,,,,,,,,5,1.458,1,,,,,,-0.427083333,-0.399739583,1,0,0,1.4576,Obsidian_rect,8,0,8,0,1,
66049d37ea3bcf8f98554347,TCR,2024-06-11_13h16.00.573,LearnStrategy,2023.2.3,Win32,59.88023952,8,2,10,,,,,,,,4,01,,,,,,,,,,,4,14.653,1,,,,,,0.377604167,-0.26171875,1,0,0,14.6535,Gabbro_rect,9,0,9,0,1,
66049d37ea3bcf8f98554347,TCR,2024-06-11_13h16.00.573,LearnStrategy,2023.2.3,Win32,59.88023952,8,2,11,,,,,,,,3,14,,,,,,,,,,,3,8.108,1,,,,,,0.141927083,-0.256510417,1,0,0,8.1078,Diorite_rect,10,0,10,0,1,
66049d37ea3bcf8f98554347,TCR,2024-06-11_13h16.00.573,LearnStrategy,2023.2.3,Win32,59.88023952,8,2,12,,,,,,,,7,13,,,,,,,,,,,7,8.654,1,,,,,,0.17578125,-0.407552083,1,0,0,8.6539,Peridotite_rect,11,0,11,0,1,
66049d37ea3bcf8f98554347,TCR,2024-06-11_13h16.00.573,LearnStrategy,2023.2.3,Win32,59.88023952,8,2,13,,,,,,,,1,05,,,,,,,,,,,1,6.122,1,,,,,,-0.411458333,-0.252604167,1,0,0,6.1218,Andesite_rect,12,0,12,0,1,
66049d37ea3bcf8f98554347,TCR,2024-06-11_13h16.00.573,LearnStrategy,2023.2.3,Win32,59.88023952,8,2,14,,,,,,,,2,06,,,,,,,,,,,2,2.833,1,,,,,,-0.1484375,-0.240885417,1,0,0,2.8327,Basalt_rect,13,0,13,0,1,
66049d37ea3bcf8f98554347,TCR,2024-06-11_13h16.00.573,LearnStrategy,2023.2.3,Win32,59.88023952,8,2,15,,,,,,,,4,11,,,,,,,,,,,4,35.955,1,,,,,,0.368489583,-0.243489583,1,0,0,35.9546,Gabbro_rect,14,0,14,0,1,
66049d37ea3bcf8f98554347,TCR,2024-06-11_13h16.00.573,LearnStrategy,2023.2.3,Win32,59.88023952,8,2,16,,,,,,,,2,10,,,,,,,,,,,2,3.774,1,,,,,,-0.141927083,-0.260416667,1,0,0,3.774,Basalt_rect,15,0,15,0,1,
66049d37ea3bcf8f98554347,TCR,2024-06-11_13h16.00.573,LearnStrategy,2023.2.3,Win32,59.88023952,9,1,1,0.01953125,-0.00390625,1,0,0,2.2971,rock_grid_rect_2,6,13,-1,-1,2.297,-0.115885417,-0.393229167,1,0,0,2.3665,Pegmatite_rect,6,2.366,1,0,0,0,0,1,,,,,,,,,,,,,
66049d37ea3bcf8f98554347,TCR,2024-06-11_13h16.00.573,LearnStrategy,2023.2.3,Win32,59.88023952,9,1,2,-0.014322917,0.01171875,1,0,0,1.547,rock_grid_rect_2,7,07,-1,-1,1.547,0.091145833,-0.395833333,1,0,0,3.1546,Peridotite_rect,7,3.155,1,1,0,1,0,1,,,,,,,,,,,,,
66049d37ea3bcf8f98554347,TCR,2024-06-11_13h16.00.573,LearnStrategy,2023.2.3,Win32,59.88023952,9,1,3,-0.02734375,0,1,0,0,1.6459,rock_grid_rect_2,1,09,-1,-1,1.646,-0.415364583,-0.24609375,1,0,0,11.8435,Andesite_rect,1,11.843,1,2,0,2,0,1,,,,,,,,,,,,,
66049d37ea3bcf8f98554347,TCR,2024-06-11_13h16.00.573,LearnStrategy,2023.2.3,Win32,59.88023952,9,1,4,0.01953125,0.014322917,1,0,0,1.6134,rock_grid_rect_2,4,13,-1,-1,1.613,0.390625,-0.2421875,1,0,0,8.2044,Gabbro_rect,4,8.204,1,3,0,3,0,1,,,,,,,,,,,,,
66049d37ea3bcf8f98554347,TCR,2024-06-11_13h16.00.573,LearnStrategy,2023.2.3,Win32,59.88023952,9,1,5,-0.04296875,-0.001302083,1,0,0,1.4617,rock_grid_rect_2,3,07,-1,-1,1.462,0.161458333,-0.243489583,1,0,0,8.7389,Diorite_rect,3,8.739,1,4,0,4,0,1,,,,,,,,,,,,,
66049d37ea3bcf8f98554347,TCR,2024-06-11_13h16.00.573,LearnStrategy,2023.2.3,Win32,59.88023952,9,1,6,-0.044270833,-0.013020833,1,0,0,1.7795,rock_grid_rect_2,1,02,-1,-1,1.78,-0.36328125,-0.24609375,1,0,0,5.4073,Andesite_rect,1,5.407,1,5,0,5,0,1,,,,,,,,,,,,,
66049d37ea3bcf8f98554347,TCR,2024-06-11_13h16.00.573,LearnStrategy,2023.2.3,Win32,59.88023952,9,1,7,-0.018229167,-0.0078125,1,0,0,1.7293,rock_grid_rect_2,4,12,-1,-1,1.729,0.354166667,-0.236979167,1,0,0,4.5758,Gabbro_rect,4,4.576,1,6,0,6,0,1,,,,,,,,,,,,,
66049d37ea3bcf8f98554347,TCR,2024-06-11_13h16.00.573,LearnStrategy,2023.2.3,Win32,59.88023952,9,1,8,-0.048177083,-0.0078125,1,0,0,1.8128,rock_grid_rect_2,1,01,-1,-1,1.813,-0.40625,-0.252604167,1,0,0,7.7049,Andesite_rect,1,7.705,1,7,0,7,0,1,,,,,,,,,,,,,
66049d37ea3bcf8f98554347,TCR,2024-06-11_13h16.00.573,LearnStrategy,2023.2.3,Win32,59.88023952,9,1,9,-0.010416667,-0.002604167,1,0,0,1.4461,rock_grid_rect_2,8,04,-1,-1,1.446,0.37109375,-0.393229167,1,0,0,1.8201,Pumice_rect,8,1.82,1,8,0,8,0,1,,,,,,,,,,,,,
66049d37ea3bcf8f98554347,TCR,2024-06-11_13h16.00.573,LearnStrategy,2023.2.3,Win32,59.88023952,9,1,10,-0.0390625,0.010416667,1,0,0,2.3988,rock_grid_rect_2,1,06,-1,-1,2.399,-0.381510417,-0.235677083,1,0,0,2.6942,Andesite_rect,1,2.694,1,9,0,9,0,1,,,,,,,,,,,,,
66049d37ea3bcf8f98554347,TCR,2024-06-11_13h16.00.573,LearnStrategy,2023.2.3,Win32,59.88023952,9,1,11,-0.006510417,-0.005208333,1,0,0,1.7126,rock_grid_rect_2,5,16,-1,-1,1.713,-0.38671875,-0.412760417,1,0,0,1.4114,Obsidian_rect,5,1.411,1,10,0,10,0,1,,,,,,,,,,,,,
66049d37ea3bcf8f98554347,TCR,2024-06-11_13h16.00.573,LearnStrategy,2023.2.3,Win32,59.88023952,9,1,12,-0.002604167,-0.001302083,1,0,0,1.8807,rock_grid_rect_2,7,04,-1,-1,1.881,0.083333333,-0.407552083,1,0,0,5.1896,Peridotite_rect,7,5.19,1,11,0,11,0,1,,,,,,,,,,,,,
66049d37ea3bcf8f98554347,TCR,2024-06-11_13h16.00.573,LearnStrategy,2023.2.3,Win32,59.88023952,9,1,13,-0.01171875,0.013020833,1,0,0,1.812,rock_grid_rect_2,7,04,-1,-1,1.812,0.143229167,-0.388020833,1,0,0,1.4564,Peridotite_rect,7,1.456,1,12,0,12,0,1,,,,,,,,,,,,,
66049d37ea3bcf8f98554347,TCR,2024-06-11_13h16.00.573,LearnStrategy,2023.2.3,Win32,59.88023952,9,1,14,-0.002604167,0.005208333,1,0,0,1.9966,rock_grid_rect_2,3,09,-1,-1,1.997,0.141927083,-0.248697917,1,0,0,6.9516,Diorite_rect,3,6.952,1,13,0,13,0,1,,,,,,,,,,,,,
66049d37ea3bcf8f98554347,TCR,2024-06-11_13h16.00.573,LearnStrategy,2023.2.3,Win32,59.88023952,9,1,15,-0.015625,0.006510417,1,0,0,1.8479,rock_grid_rect_2,4,09,-1,-1,1.848,0.385416667,-0.243489583,1,0,0,6.9197,Gabbro_rect,4,6.92,1,14,0,14,0,1,,,,,,,,,,,,,
66049d37ea3bcf8f98554347,TCR,2024-06-11_13h16.00.573,LearnStrategy,2023.2.3,Win32,59.88023952,9,1,16,-0.075520833,0,1,0,0,1.6963,rock_grid_rect_2,2,04,-1,-1,1.696,-0.127604167,-0.24609375,1,0,0,1.7879,Basalt_rect,2,1.788,1,15,0,15,0,1,,,,,,,,,,,,,
66049d37ea3bcf8f98554347,TCR,2024-06-11_13h16.00.573,LearnStrategy,2023.2.3,Win32,59.88023952,9,2,1,,,,,,,,4,08,,,,,,,,,,,4,8.036,1,,,,,,0.375,-0.236979167,1,0,0,8.036,Gabbro_rect,0,0,0,0,1,
66049d37ea3bcf8f98554347,TCR,2024-06-11_13h16.00.573,LearnStrategy,2023.2.3,Win32,59.88023952,9,2,2,,,,,,,,2,16,,,,,,,,,,,2,2.238,1,,,,,,-0.131510417,-0.252604167,1,0,0,2.2383,Basalt_rect,1,0,1,0,1,
66049d37ea3bcf8f98554347,TCR,2024-06-11_13h16.00.573,LearnStrategy,2023.2.3,Win32,59.88023952,9,2,3,,,,,,,,5,05,,,,,,,,,,,5,1.886,1,,,,,,-0.421875,-0.3984375,1,0,0,1.886,Obsidian_rect,2,0,2,0,1,
66049d37ea3bcf8f98554347,TCR,2024-06-11_13h16.00.573,LearnStrategy,2023.2.3,Win32,59.88023952,9,2,4,,,,,,,,1,03,,,,,,,,,,,1,12.894,1,,,,,,-0.430989583,-0.25,1,0,0,12.8944,Andesite_rect,3,0,3,0,1,
66049d37ea3bcf8f98554347,TCR,2024-06-11_13h16.00.573,LearnStrategy,2023.2.3,Win32,59.88023952,9,2,5,,,,,,,,3,10,,,,,,,,,,,3,5.703,1,,,,,,0.09765625,-0.25,1,0,0,5.7026,Diorite_rect,4,0,4,0,1,
66049d37ea3bcf8f98554347,TCR,2024-06-11_13h16.00.573,LearnStrategy,2023.2.3,Win32,59.88023952,9,2,6,,,,,,,,6,07,,,,,,,,,,,6,1.758,1,,,,,,-0.143229167,-0.41015625,1,0,0,1.7581,Pegmatite_rect,5,0,5,0,1,
66049d37ea3bcf8f98554347,TCR,2024-06-11_13h16.00.573,LearnStrategy,2023.2.3,Win32,59.88023952,9,2,7,,,,,,,,2,01,,,,,,,,,,,2,1.866,1,,,,,,-0.154947917,-0.251302083,1,0,0,1.866,Basalt_rect,6,0,6,0,1,
66049d37ea3bcf8f98554347,TCR,2024-06-11_13h16.00.573,LearnStrategy,2023.2.3,Win32,59.88023952,9,2,8,,,,,,,,3,13,,,,,,,,,,,3,4.704,1,,,,,,0.102864583,-0.255208333,1,0,0,4.7041,Diorite_rect,7,0,7,0,1,
66049d37ea3bcf8f98554347,TCR,2024-06-11_13h16.00.573,LearnStrategy,2023.2.3,Win32,59.88023952,9,2,9,,,,,,,,6,05,,,,,,,,,,,6,5.319,1,,,,,,-0.080729167,-0.401041667,1,0,0,5.3186,Pegmatite_rect,8,0,8,0,1,
66049d37ea3bcf8f98554347,TCR,2024-06-11_13h16.00.573,LearnStrategy,2023.2.3,Win32,59.88023952,9,2,10,,,,,,,,5,10,,,,,,,,,,,5,2.37,1,,,,,,-0.375,-0.40625,1,0,0,2.3698,Obsidian_rect,9,0,9,0,1,
66049d37ea3bcf8f98554347,TCR,2024-06-11_13h16.00.573,LearnStrategy,2023.2.3,Win32,59.88023952,9,2,11,,,,,,,,4,14,,,,,,,,,,,4,6.76,1,,,,,,0.436197917,-0.234375,1,0,0,6.7597,Gabbro_rect,10,0,10,0,1,
66049d37ea3bcf8f98554347,TCR,2024-06-11_13h16.00.573,LearnStrategy,2023.2.3,Win32,59.88023952,9,2,12,,,,,,,,7,10,,,,,,,,,,,7,9.376,1,,,,,,0.145833333,-0.41015625,1,0,0,9.3763,Peridotite_rect,11,0,11,0,1,
66049d37ea3bcf8f98554347,TCR,2024-06-11_13h16.00.573,LearnStrategy,2023.2.3,Win32,59.88023952,9,2,13,,,,,,,,1,10,,,,,,,,,,,1,5.953,1,,,,,,-0.38671875,-0.2578125,1,0,0,5.9527,Andesite_rect,12,0,12,0,1,
66049d37ea3bcf8f98554347,TCR,2024-06-11_13h16.00.573,LearnStrategy,2023.2.3,Win32,59.88023952,9,2,14,,,,,,,,8,15,,,,,,,,,,,8,2.503,1,,,,,,0.408854167,-0.397135417,1,0,0,2.5028,Pumice_rect,13,0,13,0,1,
66049d37ea3bcf8f98554347,TCR,2024-06-11_13h16.00.573,LearnStrategy,2023.2.3,Win32,59.88023952,9,2,15,,,,,,,,7,12,,,,,,,,,,,7,1.7,1,,,,,,0.16015625,-0.401041667,1,0,0,1.7003,Peridotite_rect,14,0,14,0,1,
66049d37ea3bcf8f98554347,TCR,2024-06-11_13h16.00.573,LearnStrategy,2023.2.3,Win32,59.88023952,9,2,16,,,,,,,,8,14,,,,,,,,,,,8,1.575,1,,,,,,0.41796875,-0.40234375,1,0,0,1.5753,Pumice_rect,15,0,15,0,1,
66049d37ea3bcf8f98554347,TCR,2024-06-11_13h16.00.573,LearnStrategy,2023.2.3,Win32,59.88023952,,,,,,,,,,,,,,,,,,,,,,,,,,,,,,,,,,,,,,,,,,,1
66049d37ea3bcf8f98554347,TCR,2024-06-11_13h16.00.573,LearnStrategy,2023.2.3,Win32,59.88023952,,,,,,,,,,,,,,,,,,,,,,,,,,,,,,,,,,,,,,,,,,,
66049d37ea3bcf8f98554347,TCR,2024-06-11_13h16.00.573,LearnStrategy,2023.2.3,Win32,59.88023952,,,,,,,,,,,2,14,1,1,,,,,,,,,,,,,,,,,,,,,,,,,,,,,
66049d37ea3bcf8f98554347,TCR,2024-06-11_13h16.00.573,LearnStrategy,2023.2.3,Win32,59.88023952,,,,,,,,,,,2,11,1,2,,,,,,,,,,,,,,,,,,,,,,,,,,,,,
66049d37ea3bcf8f98554347,TCR,2024-06-11_13h16.00.573,LearnStrategy,2023.2.3,Win32,59.88023952,,,,,,,,,,,1,02,1,3,,,,,,,,,,,,,,,,,,,,,,,,,,,,,
66049d37ea3bcf8f98554347,TCR,2024-06-11_13h16.00.573,LearnStrategy,2023.2.3,Win32,59.88023952,,,,,,,,,,,5,06,1,4,,,,,,,,,,,,,,,,,,,,,,,,,,,,,
66049d37ea3bcf8f98554347,TCR,2024-06-11_13h16.00.573,LearnStrategy,2023.2.3,Win32,59.88023952,,,,,,,,,,,8,13,1,5,,,,,,,,,,,,,,,,,,,,,,,,,,,,,
66049d37ea3bcf8f98554347,TCR,2024-06-11_13h16.00.573,LearnStrategy,2023.2.3,Win32,59.88023952,,,,,,,,,,,6,10,1,6,,,,,,,,,,,,,,,,,,,,,,,,,,,,,
66049d37ea3bcf8f98554347,TCR,2024-06-11_13h16.00.573,LearnStrategy,2023.2.3,Win32,59.88023952,,,,,,,,,,,6,13,1,7,,,,,,,,,,,,,,,,,,,,,,,,,,,,,
66049d37ea3bcf8f98554347,TCR,2024-06-11_13h16.00.573,LearnStrategy,2023.2.3,Win32,59.88023952,,,,,,,,,,,6,08,1,8,,,,,,,,,,,,,,,,,,,,,,,,,,,,,
66049d37ea3bcf8f98554347,TCR,2024-06-11_13h16.00.573,LearnStrategy,2023.2.3,Win32,59.88023952,,,,,,,,,,,2,05,2,1,,,,,,,,,,,,,,,,,,,,,,,,,,,,,
66049d37ea3bcf8f98554347,TCR,2024-06-11_13h16.00.573,LearnStrategy,2023.2.3,Win32,59.88023952,,,,,,,,,,,4,16,2,2,,,,,,,,,,,,,,,,,,,,,,,,,,,,,
66049d37ea3bcf8f98554347,TCR,2024-06-11_13h16.00.573,LearnStrategy,2023.2.3,Win32,59.88023952,,,,,,,,,,,7,04,2,3,,,,,,,,,,,,,,,,,,,,,,,,,,,,,
66049d37ea3bcf8f98554347,TCR,2024-06-11_13h16.00.573,LearnStrategy,2023.2.3,Win32,59.88023952,,,,,,,,,,,8,04,2,4,,,,,,,,,,,,,,,,,,,,,,,,,,,,,
66049d37ea3bcf8f98554347,TCR,2024-06-11_13h16.00.573,LearnStrategy,2023.2.3,Win32,59.88023952,,,,,,,,,,,8,03,2,5,,,,,,,,,,,,,,,,,,,,,,,,,,,,,
66049d37ea3bcf8f98554347,TCR,2024-06-11_13h16.00.573,LearnStrategy,2023.2.3,Win32,59.88023952,,,,,,,,,,,4,13,2,6,,,,,,,,,,,,,,,,,,,,,,,,,,,,,
66049d37ea3bcf8f98554347,TCR,2024-06-11_13h16.00.573,LearnStrategy,2023.2.3,Win32,59.88023952,,,,,,,,,,,1,09,2,7,,,,,,,,,,,,,,,,,,,,,,,,,,,,,
66049d37ea3bcf8f98554347,TCR,2024-06-11_13h16.00.573,LearnStrategy,2023.2.3,Win32,59.88023952,,,,,,,,,,,1,01,2,8,,,,,,,,,,,,,,,,,,,,,,,,,,,,,
66049d37ea3bcf8f98554347,TCR,2024-06-11_13h16.00.573,LearnStrategy,2023.2.3,Win32,59.88023952,,,,,,,,,,,6,12,3,1,,,,,,,,,,,,,,,,,,,,,,,,,,,,,
66049d37ea3bcf8f98554347,TCR,2024-06-11_13h16.00.573,LearnStrategy,2023.2.3,Win32,59.88023952,,,,,,,,,,,2,04,3,2,,,,,,,,,,,,,,,,,,,,,,,,,,,,,
66049d37ea3bcf8f98554347,TCR,2024-06-11_13h16.00.573,LearnStrategy,2023.2.3,Win32,59.88023952,,,,,,,,,,,7,15,3,3,,,,,,,,,,,,,,,,,,,,,,,,,,,,,
66049d37ea3bcf8f98554347,TCR,2024-06-11_13h16.00.573,LearnStrategy,2023.2.3,Win32,59.88023952,,,,,,,,,,,6,11,3,4,,,,,,,,,,,,,,,,,,,,,,,,,,,,,
66049d37ea3bcf8f98554347,TCR,2024-06-11_13h16.00.573,LearnStrategy,2023.2.3,Win32,59.88023952,,,,,,,,,,,2,09,3,5,,,,,,,,,,,,,,,,,,,,,,,,,,,,,
66049d37ea3bcf8f98554347,TCR,2024-06-11_13h16.00.573,LearnStrategy,2023.2.3,Win32,59.88023952,,,,,,,,,,,7,06,3,6,,,,,,,,,,,,,,,,,,,,,,,,,,,,,
66049d37ea3bcf8f98554347,TCR,2024-06-11_13h16.00.573,LearnStrategy,2023.2.3,Win32,59.88023952,,,,,,,,,,,1,06,3,7,,,,,,,,,,,,,,,,,,,,,,,,,,,,,
66049d37ea3bcf8f98554347,TCR,2024-06-11_13h16.00.573,LearnStrategy,2023.2.3,Win32,59.88023952,,,,,,,,,,,3,02,3,8,,,,,,,,,,,,,,,,,,,,,,,,,,,,,
66049d37ea3bcf8f98554347,TCR,2024-06-11_13h16.00.573,LearnStrategy,2023.2.3,Win32,59.88023952,,,,,,,,,,,3,07,4,1,,,,,,,,,,,,,,,,,,,,,,,,,,,,,
66049d37ea3bcf8f98554347,TCR,2024-06-11_13h16.00.573,LearnStrategy,2023.2.3,Win32,59.88023952,,,,,,,,,,,3,16,4,2,,,,,,,,,,,,,,,,,,,,,,,,,,,,,
66049d37ea3bcf8f98554347,TCR,2024-06-11_13h16.00.573,LearnStrategy,2023.2.3,Win32,59.88023952,,,,,,,,,,,7,07,4,3,,,,,,,,,,,,,,,,,,,,,,,,,,,,,
66049d37ea3bcf8f98554347,TCR,2024-06-11_13h16.00.573,LearnStrategy,2023.2.3,Win32,59.88023952,,,,,,,,,,,4,09,4,4,,,,,,,,,,,,,,,,,,,,,,,,,,,,,
66049d37ea3bcf8f98554347,TCR,2024-06-11_13h16.00.573,LearnStrategy,2023.2.3,Win32,59.88023952,,,,,,,,,,,5,08,4,5,,,,,,,,,,,,,,,,,,,,,,,,,,,,,
66049d37ea3bcf8f98554347,TCR,2024-06-11_13h16.00.573,LearnStrategy,2023.2.3,Win32,59.88023952,,,,,,,,,,,5,02,4,6,,,,,,,,,,,,,,,,,,,,,,,,,,,,,
66049d37ea3bcf8f98554347,TCR,2024-06-11_13h16.00.573,LearnStrategy,2023.2.3,Win32,59.88023952,,,,,,,,,,,4,12,4,7,,,,,,,,,,,,,,,,,,,,,,,,,,,,,
66049d37ea3bcf8f98554347,TCR,2024-06-11_13h16.00.573,LearnStrategy,2023.2.3,Win32,59.88023952,,,,,,,,,,,3,09,4,8,,,,,,,,,,,,,,,,,,,,,,,,,,,,,
66049d37ea3bcf8f98554347,TCR,2024-06-11_13h16.00.573,LearnStrategy,2023.2.3,Win32,59.88023952,,,,,,,,,,,7,02,5,1,,,,,,,,,,,,,,,,,,,,,,,,,,,,,
66049d37ea3bcf8f98554347,TCR,2024-06-11_13h16.00.573,LearnStrategy,2023.2.3,Win32,59.88023952,,,,,,,,,,,7,16,5,2,,,,,,,,,,,,,,,,,,,,,,,,,,,,,
66049d37ea3bcf8f98554347,TCR,2024-06-11_13h16.00.573,LearnStrategy,2023.2.3,Win32,59.88023952,,,,,,,,,,,3,11,5,3,,,,,,,,,,,,,,,,,,,,,,,,,,,,,
66049d37ea3bcf8f98554347,TCR,2024-06-11_13h16.00.573,LearnStrategy,2023.2.3,Win32,59.88023952,,,,,,,,,,,1,11,5,4,,,,,,,,,,,,,,,,,,,,,,,,,,,,,
66049d37ea3bcf8f98554347,TCR,2024-06-11_13h16.00.573,LearnStrategy,2023.2.3,Win32,59.88023952,,,,,,,,,,,8,10,5,5,,,,,,,,,,,,,,,,,,,,,,,,,,,,,
66049d37ea3bcf8f98554347,TCR,2024-06-11_13h16.00.573,LearnStrategy,2023.2.3,Win32,59.88023952,,,,,,,,,,,2,12,5,6,,,,,,,,,,,,,,,,,,,,,,,,,,,,,
66049d37ea3bcf8f98554347,TCR,2024-06-11_13h16.00.573,LearnStrategy,2023.2.3,Win32,59.88023952,,,,,,,,,,,5,16,5,7,,,,,,,,,,,,,,,,,,,,,,,,,,,,,
66049d37ea3bcf8f98554347,TCR,2024-06-11_13h16.00.573,LearnStrategy,2023.2.3,Win32,59.88023952,,,,,,,,,,,8,09,5,8,,,,,,,,,,,,,,,,,,,,,,,,,,,,,
66049d37ea3bcf8f98554347,TCR,2024-06-11_13h16.00.573,LearnStrategy,2023.2.3,Win32,59.88023952,,,,,,,,,,,5,04,6,1,,,,,,,,,,,,,,,,,,,,,,,,,,,,,
66049d37ea3bcf8f98554347,TCR,2024-06-11_13h16.00.573,LearnStrategy,2023.2.3,Win32,59.88023952,,,,,,,,,,,5,14,6,2,,,,,,,,,,,,,,,,,,,,,,,,,,,,,
66049d37ea3bcf8f98554347,TCR,2024-06-11_13h16.00.573,LearnStrategy,2023.2.3,Win32,59.88023952,,,,,,,,,,,8,16,6,3,,,,,,,,,,,,,,,,,,,,,,,,,,,,,
66049d37ea3bcf8f98554347,TCR,2024-06-11_13h16.00.573,LearnStrategy,2023.2.3,Win32,59.88023952,,,,,,,,,,,4,15,6,4,,,,,,,,,,,,,,,,,,,,,,,,,,,,,
66049d37ea3bcf8f98554347,TCR,2024-06-11_13h16.00.573,LearnStrategy,2023.2.3,Win32,59.88023952,,,,,,,,,,,3,15,6,5,,,,,,,,,,,,,,,,,,,,,,,,,,,,,
66049d37ea3bcf8f98554347,TCR,2024-06-11_13h16.00.573,LearnStrategy,2023.2.3,Win32,59.88023952,,,,,,,,,,,6,16,6,6,,,,,,,,,,,,,,,,,,,,,,,,,,,,,
66049d37ea3bcf8f98554347,TCR,2024-06-11_13h16.00.573,LearnStrategy,2023.2.3,Win32,59.88023952,,,,,,,,,,,4,10,6,7,,,,,,,,,,,,,,,,,,,,,,,,,,,,,
66049d37ea3bcf8f98554347,TCR,2024-06-11_13h16.00.573,LearnStrategy,2023.2.3,Win32,59.88023952,,,,,,,,,,,1,07,6,8,,,,,,,,,,,,,,,,,,,,,,,,,,,,,