participant,condition,date,expName,psychopyVersion,OS,frameRate,block,phase,trial,learn_mouse_2.x,learn_mouse_2.y,learn_mouse_2.leftButton,learn_mouse_2.midButton,learn_mouse_2.rightButton,learn_mouse_2.time,learn_mouse_2.clicked_name,cat,token,row,col,t_select,cat_mouse_l.x,cat_mouse_l.y,cat_mouse_l.leftButton,cat_mouse_l.midButton,cat_mouse_l.rightButton,cat_mouse_l.time,cat_mouse_l.clicked_name,resp,t_resp,corr,train_trials.thisRepN,train_trials.thisTrialN,train_trials.thisN,train_trials.thisIndex,train_trials.ran,cat_mouse_t.x,cat_mouse_t.y,cat_mouse_t.leftButton,cat_mouse_t.midButton,cat_mouse_t.rightButton,cat_mouse_t.time,cat_mouse_t.clicked_name,test_trials.thisRepN,test_trials.thisTrialN,test_trials.thisN,test_trials.thisIndex,test_trials.ran,Bonus
66058466b7348848934eec50,TCN,2024-06-11_19h10.59.555,LearnStrategy,2023.2.3,MacIntel,59.88023952,,,,,,,,,,,,,,,,,,,,,,,,,,,,,,,,,,,,,,,,,,,
66058466b7348848934eec50,TCN,2024-06-11_19h10.59.555,LearnStrategy,2023.2.3,MacIntel,59.88023952,1,1,1,0.005799204,-0.001831156,1,0,0,14.4583,rock_grid_rect_2,6,16,-1,-1,14.458,0.122297174,-0.232312916,1,0,0,2.3333,Diorite_rect,3,2.333,0,0,0,0,0,1,,,,,,,,,,,,,
66058466b7348848934eec50,TCN,2024-06-11_19h10.59.555,LearnStrategy,2023.2.3,MacIntel,59.88023952,1,1,2,-0.021056672,-0.014089821,1,0,0,17.138,rock_grid_rect_2,7,13,-1,-1,17.138,0.088773678,-0.256173241,1,0,0,6.0899,Diorite_rect,3,6.09,0,1,0,1,0,1,,,,,,,,,,,,,
66058466b7348848934eec50,TCN,2024-06-11_19h10.59.555,LearnStrategy,2023.2.3,MacIntel,59.88023952,1,1,3,-0.002566221,0.012853872,1,0,0,1.3637,rock_grid_rect_2,6,09,-1,-1,1.364,0.095506349,-0.259406224,1,0,0,2.8273,Diorite_rect,3,2.827,0,2,0,2,0,1,,,,,,,,,,,,,
66058466b7348848934eec50,TCN,2024-06-11_19h10.59.555,LearnStrategy,2023.2.3,MacIntel,59.88023952,1,1,4,0.059530469,-0.004566507,1,0,0,2.5302,rock_grid_rect_2,1,04,-1,-1,2.53,-0.096550401,-0.411216564,1,0,0,4.5418,Pegmatite_rect,6,4.542,0,3,0,3,0,1,,,,,,,,,,,,,
66058466b7348848934eec50,TCN,2024-06-11_19h10.59.555,LearnStrategy,2023.2.3,MacIntel,59.88023952,1,1,5,-0.12177027,-0.007197778,1,0,0,3.2315,rock_grid_rect_2,3,10,-1,-1,3.231,0.306463364,-0.23057283,1,0,0,2.6448,Gabbro_rect,4,2.645,0,4,0,4,0,1,,,,,,,,,,,,,
66058466b7348848934eec50,TCN,2024-06-11_19h10.59.555,LearnStrategy,2023.2.3,MacIntel,59.88023952,1,1,6,-0.005678861,0.000328502,1,0,0,1.3313,rock_grid_rect_2,7,06,-1,-1,1.331,-0.08173202,-0.242493235,1,0,0,1.0451,Basalt_rect,2,1.045,0,5,0,5,0,1,,,,,,,,,,,,,
66058466b7348848934eec50,TCN,2024-06-11_19h10.59.555,LearnStrategy,2023.2.3,MacIntel,59.88023952,1,1,7,0.074150448,-0.005145452,1,0,0,5.1304,rock_grid_rect_2,1,14,-1,-1,5.13,0.12916645,-0.23024758,1,0,0,2.7461,Diorite_rect,3,2.746,0,6,0,6,0,1,,,,,,,,,,,,,
66058466b7348848934eec50,TCN,2024-06-11_19h10.59.555,LearnStrategy,2023.2.3,MacIntel,59.88023952,1,1,8,-0.175042933,-0.009698949,1,0,0,4.0312,rock_grid_rect_2,5,02,-1,-1,4.031,-0.341274849,-0.395113447,1,0,0,3.2443,Obsidian_rect,5,3.244,1,7,0,7,0,1,,,,,,,,,,,,,
66058466b7348848934eec50,TCN,2024-06-11_19h10.59.555,LearnStrategy,2023.2.3,MacIntel,59.88023952,1,1,9,0.172463702,-0.001805136,1,0,0,3.3642,rock_grid_rect_2,2,02,-1,-1,3.364,0.420678081,-0.247329699,1,0,0,1.3429,Gabbro_rect,4,1.343,0,8,0,8,0,1,,,,,,,,,,,,,
66058466b7348848934eec50,TCN,2024-06-11_19h10.59.555,LearnStrategy,2023.2.3,MacIntel,59.88023952,1,1,10,-0.038805553,-0.016906484,1,0,0,2.1483,rock_grid_rect_2,8,09,-1,-1,2.148,-0.134812786,-0.395240295,1,0,0,2.3783,Pegmatite_rect,6,2.378,0,9,0,9,0,1,,,,,,,,,,,,,
66058466b7348848934eec50,TCN,2024-06-11_19h10.59.555,LearnStrategy,2023.2.3,MacIntel,59.88023952,1,1,11,0.011722002,-0.006384653,1,0,0,1.7974,rock_grid_rect_2,3,07,-1,-1,1.797,-0.366254033,-0.268571763,1,0,0,2.5262,Andesite_rect,1,2.526,0,10,0,10,0,1,,,,,,,,,,,,,
66058466b7348848934eec50,TCN,2024-06-11_19h10.59.555,LearnStrategy,2023.2.3,MacIntel,59.88023952,1,1,12,-0.006491986,0.017924516,1,0,0,1.5137,rock_grid_rect_2,4,12,-1,-1,1.514,0.115535231,-0.237458368,1,0,0,2.6096,Diorite_rect,3,2.61,0,11,0,11,0,1,,,,,,,,,,,,,
66058466b7348848934eec50,TCN,2024-06-11_19h10.59.555,LearnStrategy,2023.2.3,MacIntel,59.88023952,1,1,13,0.054358998,-0.024832822,1,0,0,1.7062,rock_grid_rect_2,8,13,-1,-1,1.706,0.340328372,-0.23458316,1,0,0,1.4959,Gabbro_rect,4,1.496,0,12,0,12,0,1,,,,,,,,,,,,,
66058466b7348848934eec50,TCN,2024-06-11_19h10.59.555,LearnStrategy,2023.2.3,MacIntel,59.88023952,1,1,14,0.01110728,-0.009575354,1,0,0,1.8316,rock_grid_rect_2,5,04,-1,-1,1.832,-0.365262021,-0.408682868,1,0,0,2.3108,Obsidian_rect,5,2.311,1,13,0,13,0,1,,,,,,,,,,,,,
66058466b7348848934eec50,TCN,2024-06-11_19h10.59.555,LearnStrategy,2023.2.3,MacIntel,59.88023952,1,1,15,0.005262542,0.001795379,1,0,0,1.6978,rock_grid_rect_2,4,14,-1,-1,1.698,0.125084565,-0.249603195,1,0,0,1.9804,Diorite_rect,3,1.98,0,14,0,14,0,1,,,,,,,,,,,,,
66058466b7348848934eec50,TCN,2024-06-11_19h10.59.555,LearnStrategy,2023.2.3,MacIntel,59.88023952,1,1,16,0.05014376,-0.014496383,1,0,0,3.5537,rock_grid_rect_2,2,08,-1,-1,3.554,-0.091242324,-0.253968047,1,0,0,2.8431,Basalt_rect,2,2.843,1,15,0,15,0,1,,,,,,,,,,,,,
66058466b7348848934eec50,TCN,2024-06-11_19h10.59.555,LearnStrategy,2023.2.3,MacIntel,59.88023952,1,2,1,,,,,,,,4,15,,,,,,,,,,,3,7.157,0,,,,,,0.107251119,-0.244116231,1,0,0,7.1571,Diorite_rect,0,0,0,0,1,
66058466b7348848934eec50,TCN,2024-06-11_19h10.59.555,LearnStrategy,2023.2.3,MacIntel,59.88023952,1,2,2,,,,,,,,1,09,,,,,,,,,,,3,2.693,0,,,,,,0.108236626,-0.244116231,1,0,0,2.6931,Diorite_rect,1,0,1,0,1,
66058466b7348848934eec50,TCN,2024-06-11_19h10.59.555,LearnStrategy,2023.2.3,MacIntel,59.88023952,1,2,3,,,,,,,,4,08,,,,,,,,,,,3,1.944,0,,,,,,0.107325926,-0.244282109,1,0,0,1.9437,Diorite_rect,2,0,2,0,1,
66058466b7348848934eec50,TCN,2024-06-11_19h10.59.555,LearnStrategy,2023.2.3,MacIntel,59.88023952,1,2,4,,,,,,,,2,10,,,,,,,,,,,8,2.393,0,,,,,,0.336584747,-0.408357619,1,0,0,2.3929,Pumice_rect,3,0,3,0,1,
66058466b7348848934eec50,TCN,2024-06-11_19h10.59.555,LearnStrategy,2023.2.3,MacIntel,59.88023952,1,2,5,,,,,,,,2,09,,,,,,,,,,,4,1.092,0,,,,,,0.380168219,-0.264642746,1,0,0,1.092,Gabbro_rect,4,0,4,0,1,
66058466b7348848934eec50,TCN,2024-06-11_19h10.59.555,LearnStrategy,2023.2.3,MacIntel,59.88023952,1,2,6,,,,,,,,8,02,,,,,,,,,,,2,1.592,0,,,,,,-0.126024537,-0.257675895,1,0,0,1.5921,Basalt_rect,5,0,5,0,1,
66058466b7348848934eec50,TCN,2024-06-11_19h10.59.555,LearnStrategy,2023.2.3,MacIntel,59.88023952,1,2,7,,,,,,,,8,04,,,,,,,,,,,2,1.509,0,,,,,,-0.12505204,-0.257675895,1,0,0,1.5094,Basalt_rect,6,0,6,0,1,
66058466b7348848934eec50,TCN,2024-06-11_19h10.59.555,LearnStrategy,2023.2.3,MacIntel,59.88023952,1,2,8,,,,,,,,1,10,,,,,,,,,,,2,1.275,0,,,,,,-0.113639025,-0.259838806,1,0,0,1.2752,Basalt_rect,7,0,7,0,1,
66058466b7348848934eec50,TCN,2024-06-11_19h10.59.555,LearnStrategy,2023.2.3,MacIntel,59.88023952,1,2,9,,,,,,,,5,06,,,,,,,,,,,5,3.226,1,,,,,,-0.37074248,-0.401059013,1,0,0,3.2264,Obsidian_rect,8,0,8,0,1,
66058466b7348848934eec50,TCN,2024-06-11_19h10.59.555,LearnStrategy,2023.2.3,MacIntel,59.88023952,1,2,10,,,,,,,,5,07,,,,,,,,,,,5,0.743,1,,,,,,-0.37074248,-0.401059013,1,0,0,0.7427,Obsidian_rect,9,0,9,0,1,
66058466b7348848934eec50,TCN,2024-06-11_19h10.59.555,LearnStrategy,2023.2.3,MacIntel,59.88023952,1,2,11,,,,,,,,6,06,,,,,,,,,,,3,3.275,0,,,,,,0.095691741,-0.256918063,1,0,0,3.2754,Diorite_rect,10,0,10,0,1,
66058466b7348848934eec50,TCN,2024-06-11_19h10.59.555,LearnStrategy,2023.2.3,MacIntel,59.88023952,1,2,12,,,,,,,,3,06,,,,,,,,,,,3,0.924,1,,,,,,0.095691741,-0.256918063,1,0,0,0.9237,Diorite_rect,11,0,11,0,1,
66058466b7348848934eec50,TCN,2024-06-11_19h10.59.555,LearnStrategy,2023.2.3,MacIntel,59.88023952,1,2,13,,,,,,,,7,12,,,,,,,,,,,3,1.758,0,,,,,,0.095691741,-0.256918063,1,0,0,1.7584,Diorite_rect,12,0,12,0,1,
66058466b7348848934eec50,TCN,2024-06-11_19h10.59.555,LearnStrategy,2023.2.3,MacIntel,59.88023952,1,2,14,,,,,,,,3,13,,,,,,,,,,,3,3.808,1,,,,,,0.095691741,-0.256918063,1,0,0,3.8081,Diorite_rect,13,0,13,0,1,
66058466b7348848934eec50,TCN,2024-06-11_19h10.59.555,LearnStrategy,2023.2.3,MacIntel,59.88023952,1,2,15,,,,,,,,7,04,,,,,,,,,,,2,3.126,0,,,,,,-0.151059013,-0.253509445,1,0,0,3.1261,Basalt_rect,14,0,14,0,1,
66058466b7348848934eec50,TCN,2024-06-11_19h10.59.555,LearnStrategy,2023.2.3,MacIntel,59.88023952,1,2,16,,,,,,,,6,10,,,,,,,,,,,3,8.991,0,,,,,,0.124723538,-0.266978039,1,0,0,8.9914,Diorite_rect,15,0,15,0,1,
66058466b7348848934eec50,TCN,2024-06-11_19h10.59.555,LearnStrategy,2023.2.3,MacIntel,59.88023952,2,1,1,0.052342449,-0.008206052,1,0,0,2.9641,rock_grid_rect_2,3,09,-1,-1,2.964,0.162511058,-0.256778206,1,0,0,5.8587,Diorite_rect,3,5.859,1,0,0,0,0,1,,,,,,,,,,,,,
66058466b7348848934eec50,TCN,2024-06-11_19h10.59.555,LearnStrategy,2023.2.3,MacIntel,59.88023952,2,1,2,-0.015878695,-0.017384601,1,0,0,2.4866,rock_grid_rect_2,1,05,-1,-1,2.487,0.096618703,-0.393331078,1,0,0,5.8268,Peridotite_rect,7,5.827,0,1,0,1,0,1,,,,,,,,,,,,,
66058466b7348848934eec50,TCN,2024-06-11_19h10.59.555,LearnStrategy,2023.2.3,MacIntel,59.88023952,2,1,3,0.036232827,-0.008645139,1,0,0,1.4554,rock_grid_rect_2,7,05,-1,-1,1.455,0.145061407,-0.248656718,1,0,0,1.4437,Diorite_rect,3,1.444,0,2,0,2,0,1,,,,,,,,,,,,,
66058466b7348848934eec50,TCN,2024-06-11_19h10.59.555,LearnStrategy,2023.2.3,MacIntel,59.88023952,2,1,4,0.025727259,-0.006384653,1,0,0,3.2822,rock_grid_rect_2,1,02,-1,-1,3.282,0.355839535,-0.251749844,1,0,0,2.7284,Gabbro_rect,4,2.728,0,3,0,3,0,1,,,,,,,,,,,,,
66058466b7348848934eec50,TCN,2024-06-11_19h10.59.555,LearnStrategy,2023.2.3,MacIntel,59.88023952,2,1,5,0.052638426,-0.008407707,1,0,0,2.3972,rock_grid_rect_2,8,06,-1,-1,2.397,-0.365512464,-0.400444291,1,0,0,2.7104,Obsidian_rect,5,2.71,0,4,0,4,0,1,,,,,,,,,,,,,
66058466b7348848934eec50,TCN,2024-06-11_19h10.59.555,LearnStrategy,2023.2.3,MacIntel,59.88023952,2,1,6,0.039839847,-0.017017069,1,0,0,2.5062,rock_grid_rect_2,8,10,-1,-1,2.506,0.151699755,-0.389304486,1,0,0,2.143,Peridotite_rect,7,2.143,0,5,0,5,0,1,,,,,,,,,,,,,
66058466b7348848934eec50,TCN,2024-06-11_19h10.59.555,LearnStrategy,2023.2.3,MacIntel,59.88023952,2,1,7,0.131638348,-0.013732046,1,0,0,1.8389,rock_grid_rect_2,2,14,-1,-1,1.839,0.390891705,-0.392706599,1,0,0,7.994,Pumice_rect,8,7.994,0,6,0,6,0,1,,,,,,,,,,,,,
66058466b7348848934eec50,TCN,2024-06-11_19h10.59.555,LearnStrategy,2023.2.3,MacIntel,59.88023952,2,1,8,-0.032424152,-0.01529975,1,0,0,2.9897,rock_grid_rect_2,4,01,-1,-1,2.99,0.091681411,-0.267475671,1,0,0,2.0593,Diorite_rect,3,2.059,0,7,0,7,0,1,,,,,,,,,,,,,
66058466b7348848934eec50,TCN,2024-06-11_19h10.59.555,LearnStrategy,2023.2.3,MacIntel,59.88023952,2,1,9,0.027571425,-0.003457405,1,0,0,2.123,rock_grid_rect_2,2,11,-1,-1,2.123,-0.114117142,-0.3976569,1,0,0,6.2919,Pegmatite_rect,6,6.292,0,8,0,8,0,1,,,,,,,,,,,,,
66058466b7348848934eec50,TCN,2024-06-11_19h10.59.555,LearnStrategy,2023.2.3,MacIntel,59.88023952,2,1,10,0.061621826,-0.004224995,1,0,0,2.6307,rock_grid_rect_2,4,11,-1,-1,2.631,-0.095418531,-0.246344192,1,0,0,3.7258,Basalt_rect,2,3.726,0,9,0,9,0,1,,,,,,,,,,,,,
66058466b7348848934eec50,TCN,2024-06-11_19h10.59.555,LearnStrategy,2023.2.3,MacIntel,59.88023952,2,1,11,-0.031038588,0.00033826,1,0,0,3.1722,rock_grid_rect_2,5,14,-1,-1,3.172,-0.397455246,-0.397302378,1,0,0,2.7093,Obsidian_rect,5,2.709,1,10,0,10,0,1,,,,,,,,,,,,,
66058466b7348848934eec50,TCN,2024-06-11_19h10.59.555,LearnStrategy,2023.2.3,MacIntel,59.88023952,2,1,12,0.018002576,-0.000783852,1,0,0,4.1382,rock_grid_rect_2,7,08,-1,-1,4.138,0.095252654,-0.262414785,1,0,0,5.659,Diorite_rect,3,5.659,0,11,0,11,0,1,,,,,,,,,,,,,
66058466b7348848934eec50,TCN,2024-06-11_19h10.59.555,LearnStrategy,2023.2.3,MacIntel,59.88023952,2,1,13,0.067957692,0.010811303,1,0,0,1.4553,rock_grid_rect_2,5,08,-1,-1,1.455,-0.387339977,-0.411372684,1,0,0,2.3592,Obsidian_rect,5,2.359,1,12,0,12,0,1,,,,,,,,,,,,,
66058466b7348848934eec50,TCN,2024-06-11_19h10.59.555,LearnStrategy,2023.2.3,MacIntel,59.88023952,2,1,14,0.057117116,0.007035153,1,0,0,1.747,rock_grid_rect_2,6,03,-1,-1,1.747,0.114100879,-0.231792517,1,0,0,0.8963,Diorite_rect,3,0.896,0,13,0,13,0,1,,,,,,,,,,,,,
66058466b7348848934eec50,TCN,2024-06-11_19h10.59.555,LearnStrategy,2023.2.3,MacIntel,59.88023952,2,1,15,0.123741283,-0.004644567,1,0,0,17.7808,rock_grid_rect_2,6,11,-1,-1,17.781,-0.130991101,-0.247030469,1,0,0,1.4295,Basalt_rect,2,1.429,0,14,0,14,0,1,,,,,,,,,,,,,
66058466b7348848934eec50,TCN,2024-06-11_19h10.59.555,LearnStrategy,2023.2.3,MacIntel,59.88023952,2,1,16,0.068217891,-0.013413301,1,0,0,2.2643,rock_grid_rect_2,3,02,-1,-1,2.264,0.107299906,-0.259243599,1,0,0,1.4429,Diorite_rect,3,1.443,1,15,0,15,0,1,,,,,,,,,,,,,
66058466b7348848934eec50,TCN,2024-06-11_19h10.59.555,LearnStrategy,2023.2.3,MacIntel,59.88023952,2,2,1,,,,,,,,7,14,,,,,,,,,,,2,3.173,0,,,,,,-0.203375442,-0.247921654,1,0,0,3.1731,Basalt_rect,0,0,0,0,1,
66058466b7348848934eec50,TCN,2024-06-11_19h10.59.555,LearnStrategy,2023.2.3,MacIntel,59.88023952,2,2,2,,,,,,,,3,08,,,,,,,,,,,7,1.061,0,,,,,,0.09830675,-0.405986548,1,0,0,1.0608,Peridotite_rect,1,0,1,0,1,
66058466b7348848934eec50,TCN,2024-06-11_19h10.59.555,LearnStrategy,2023.2.3,MacIntel,59.88023952,2,2,3,,,,,,,,4,03,,,,,,,,,,,2,2.111,0,,,,,,-0.110376769,-0.251265222,1,0,0,2.1106,Basalt_rect,2,0,2,0,1,
66058466b7348848934eec50,TCN,2024-06-11_19h10.59.555,LearnStrategy,2023.2.3,MacIntel,59.88023952,2,2,4,,,,,,,,1,03,,,,,,,,,,,2,2.312,0,,,,,,-0.134562344,-0.228914056,1,0,0,2.3123,Basalt_rect,3,0,3,0,1,
66058466b7348848934eec50,TCN,2024-06-11_19h10.59.555,LearnStrategy,2023.2.3,MacIntel,59.88023952,2,2,5,,,,,,,,2,04,,,,,,,,,,,6,2.092,0,,,,,,-0.142215471,-0.381218776,1,0,0,2.0923,Pegmatite_rect,4,0,4,0,1,
66058466b7348848934eec50,TCN,2024-06-11_19h10.59.555,LearnStrategy,2023.2.3,MacIntel,59.88023952,2,2,6,,,,,,,,1,16,,,,,,,,,,,6,1.377,0,,,,,,-0.107856083,-0.400652451,1,0,0,1.3771,Pegmatite_rect,5,0,5,0,1,
66058466b7348848934eec50,TCN,2024-06-11_19h10.59.555,LearnStrategy,2023.2.3,MacIntel,59.88023952,2,2,7,,,,,,,,5,09,,,,,,,,,,,7,0.744,0,,,,,,0.154139129,-0.389750078,1,0,0,0.7438,Peridotite_rect,6,0,6,0,1,
66058466b7348848934eec50,TCN,2024-06-11_19h10.59.555,LearnStrategy,2023.2.3,MacIntel,59.88023952,2,2,8,,,,,,,,6,15,,,,,,,,,,,4,0.394,0,,,,,,0.37833381,-0.235783332,1,0,0,0.3945,Gabbro_rect,7,0,7,0,1,
66058466b7348848934eec50,TCN,2024-06-11_19h10.59.555,LearnStrategy,2023.2.3,MacIntel,59.88023952,2,2,9,,,,,,,,6,05,,,,,,,,,,,1,0.743,0,,,,,,-0.495739228,-0.234092033,1,0,0,0.743,Andesite_rect,8,0,8,0,1,
66058466b7348848934eec50,TCN,2024-06-11_19h10.59.555,LearnStrategy,2023.2.3,MacIntel,59.88023952,2,2,10,,,,,,,,2,16,,,,,,,,,,,1,0.742,0,,,,,,-0.495739228,-0.234092033,1,0,0,0.7415,Andesite_rect,9,0,9,0,1,
66058466b7348848934eec50,TCN,2024-06-11_19h10.59.555,LearnStrategy,2023.2.3,MacIntel,59.88023952,2,2,11,,,,,,,,7,10,,,,,,,,,,,2,0.86,0,,,,,,-0.189588104,-0.261751275,1,0,0,0.8601,Basalt_rect,10,0,10,0,1,
66058466b7348848934eec50,TCN,2024-06-11_19h10.59.555,LearnStrategy,2023.2.3,MacIntel,59.88023952,2,2,12,,,,,,,,8,05,,,,,,,,,,,5,0.243,0,,,,,,-0.421227753,-0.388107567,1,0,0,0.2429,Obsidian_rect,11,0,11,0,1,
66058466b7348848934eec50,TCN,2024-06-11_19h10.59.555,LearnStrategy,2023.2.3,MacIntel,59.88023952,2,2,13,,,,,,,,5,12,,,,,,,,,,,6,0.291,0,,,,,,-0.132822257,-0.394758925,1,0,0,0.2914,Pegmatite_rect,12,0,12,0,1,
66058466b7348848934eec50,TCN,2024-06-11_19h10.59.555,LearnStrategy,2023.2.3,MacIntel,59.88023952,2,2,14,,,,,,,,3,15,,,,,,,,,,,2,0.859,0,,,,,,-0.146612849,-0.255473954,1,0,0,0.8589,Basalt_rect,13,0,13,0,1,
66058466b7348848934eec50,TCN,2024-06-11_19h10.59.555,LearnStrategy,2023.2.3,MacIntel,59.88023952,2,2,15,,,,,,,,8,15,,,,,,,,,,,7,0.457,0,,,,,,0.151312708,-0.415402529,1,0,0,0.4575,Peridotite_rect,14,0,14,0,1,
66058466b7348848934eec50,TCN,2024-06-11_19h10.59.555,LearnStrategy,2023.2.3,MacIntel,59.88023952,2,2,16,,,,,,,,4,16,,,,,,,,,,,8,6.842,0,,,,,,0.450158722,-0.397598356,1,0,0,6.8423,Pumice_rect,15,0,15,0,1,
66058466b7348848934eec50,TCN,2024-06-11_19h10.59.555,LearnStrategy,2023.2.3,MacIntel,59.88023952,3,1,1,-0.141704829,-0.010421003,1,0,0,3.6656,rock_grid_rect_2,1,06,-1,-1,3.666,-0.122830584,-0.255633326,1,0,0,0.8081,Basalt_rect,2,0.808,0,0,0,0,0,1,,,,,,,,,,,,,
66058466b7348848934eec50,TCN,2024-06-11_19h10.59.555,LearnStrategy,2023.2.3,MacIntel,59.88023952,3,1,2,0.111817626,0.004966564,1,0,0,0.7976,rock_grid_rect_2,7,02,-1,-1,0.798,0.151660725,-0.251844166,1,0,0,4.7771,Diorite_rect,3,4.777,0,1,0,1,0,1,,,,,,,,,,,,,
66058466b7348848934eec50,TCN,2024-06-11_19h10.59.555,LearnStrategy,2023.2.3,MacIntel,59.88023952,3,1,3,0.037855823,-0.010385226,1,0,0,1.6144,rock_grid_rect_2,4,13,-1,-1,1.614,0.348244952,-0.400750026,1,0,0,1.5619,Pumice_rect,8,1.562,0,2,0,2,0,1,,,,,,,,,,,,,
66058466b7348848934eec50,TCN,2024-06-11_19h10.59.555,LearnStrategy,2023.2.3,MacIntel,59.88023952,3,1,4,0.014538666,0.008781744,1,0,0,0.7478,rock_grid_rect_2,6,07,-1,-1,0.748,-0.140504658,-0.269745915,1,0,0,0.9111,Basalt_rect,2,0.911,0,3,0,3,0,1,,,,,,,,,,,,,
66058466b7348848934eec50,TCN,2024-06-11_19h10.59.555,LearnStrategy,2023.2.3,MacIntel,59.88023952,3,1,5,-0.099965524,-0.006963598,1,0,0,2.1486,rock_grid_rect_2,2,12,-1,-1,2.149,-0.381274068,-0.405456391,1,0,0,0.9462,Obsidian_rect,5,0.946,0,4,0,4,0,1,,,,,,,,,,,,,
66058466b7348848934eec50,TCN,2024-06-11_19h10.59.555,LearnStrategy,2023.2.3,MacIntel,59.88023952,3,1,6,0.020598069,-0.014623231,1,0,0,0.9153,rock_grid_rect_2,6,08,-1,-1,0.915,-0.310151697,-0.41015625,1,0,0,1.3608,Obsidian_rect,5,1.361,0,5,0,5,0,1,,,,,,,,,,,,,
66058466b7348848934eec50,TCN,2024-06-11_19h10.59.555,LearnStrategy,2023.2.3,MacIntel,59.88023952,3,1,7,-0.051285387,0.023122008,1,0,0,1.5985,rock_grid_rect_2,7,07,-1,-1,1.599,-0.10908878,-0.23777386,1,0,0,0.8945,Basalt_rect,2,0.894,0,6,0,6,0,1,,,,,,,,,,,,,
66058466b7348848934eec50,TCN,2024-06-11_19h10.59.555,LearnStrategy,2023.2.3,MacIntel,59.88023952,3,1,8,0.05544208,0.002029559,1,0,0,1.0324,rock_grid_rect_2,8,08,-1,-1,1.032,0.107342189,-0.420177196,1,0,0,2.0085,Peridotite_rect,7,2.009,0,7,0,7,0,1,,,,,,,,,,,,,
66058466b7348848934eec50,TCN,2024-06-11_19h10.59.555,LearnStrategy,2023.2.3,MacIntel,59.88023952,3,1,9,0.094019957,-0.020396414,1,0,0,0.8489,rock_grid_rect_2,1,11,-1,-1,0.849,0.39828138,-0.239367584,1,0,0,1.3449,Gabbro_rect,4,1.345,0,8,0,8,0,1,,,,,,,,,,,,,
66058466b7348848934eec50,TCN,2024-06-11_19h10.59.555,LearnStrategy,2023.2.3,MacIntel,59.88023952,3,1,10,-0.006423683,-0.017472419,1,0,0,54.2158,rock_grid_rect_2,5,11,-1,-1,54.216,-0.345190857,-0.405882468,1,0,0,1.4775,Obsidian_rect,5,1.477,1,9,0,9,0,1,,,,,,,,,,,,,
66058466b7348848934eec50,TCN,2024-06-11_19h10.59.555,LearnStrategy,2023.2.3,MacIntel,59.88023952,3,1,11,-0.047854002,-0.003356578,1,0,0,0.9149,rock_grid_rect_2,2,01,-1,-1,0.915,-0.086861209,-0.261920405,1,0,0,1.2612,Basalt_rect,2,1.261,1,10,0,10,0,1,,,,,,,,,,,,,
66058466b7348848934eec50,TCN,2024-06-11_19h10.59.555,LearnStrategy,2023.2.3,MacIntel,59.88023952,3,1,12,-0.027815362,0.002042569,1,0,0,1.4316,rock_grid_rect_2,4,09,-1,-1,1.432,-0.14824235,-0.264990763,1,0,0,1.2954,Basalt_rect,2,1.295,0,11,0,11,0,1,,,,,,,,,,,,,
66058466b7348848934eec50,TCN,2024-06-11_19h10.59.555,LearnStrategy,2023.2.3,MacIntel,59.88023952,3,1,13,0.08262971,0.001749844,1,0,0,2.531,rock_grid_rect_2,3,16,-1,-1,2.531,0.336799412,-0.239217969,1,0,0,0.911,Gabbro_rect,4,0.911,0,12,0,12,0,1,,,,,,,,,,,,,
66058466b7348848934eec50,TCN,2024-06-11_19h10.59.555,LearnStrategy,2023.2.3,MacIntel,59.88023952,3,1,14,0.132438463,-0.016890222,1,0,0,3.9821,rock_grid_rect_2,5,05,-1,-1,3.982,-0.417679278,-0.399312422,1,0,0,1.262,Obsidian_rect,5,1.262,1,13,0,13,0,1,,,,,,,,,,,,,
66058466b7348848934eec50,TCN,2024-06-11_19h10.59.555,LearnStrategy,2023.2.3,MacIntel,59.88023952,3,1,15,-0.019775187,-0.016708082,1,0,0,1.0541,rock_grid_rect_2,3,12,-1,-1,1.054,-0.145972107,-0.251818146,1,0,0,1.0621,Basalt_rect,2,1.062,0,14,0,14,0,1,,,,,,,,,,,,,
66058466b7348848934eec50,TCN,2024-06-11_19h10.59.555,LearnStrategy,2023.2.3,MacIntel,59.88023952,3,1,16,0.078651905,-0.002914238,1,0,0,15.7985,rock_grid_rect_2,8,03,-1,-1,15.799,-0.095317704,-0.271625859,1,0,0,1.3447,Basalt_rect,2,1.345,0,15,0,15,0,1,,,,,,,,,,,,,
66058466b7348848934eec50,TCN,2024-06-11_19h10.59.555,LearnStrategy,2023.2.3,MacIntel,59.88023952,3,2,1,,,,,,,,6,13,,,,,,,,,,,3,0.643,0,,,,,,0.120078971,-0.241911038,1,0,0,0.6426,Diorite_rect,0,0,0,0,1,
66058466b7348848934eec50,TCN,2024-06-11_19h10.59.555,LearnStrategy,2023.2.3,MacIntel,59.88023952,3,2,2,,,,,,,,2,06,,,,,,,,,,,2,1.575,1,,,,,,-0.078635642,-0.266415357,1,0,0,1.5748,Basalt_rect,1,0,1,0,1,
66058466b7348848934eec50,TCN,2024-06-11_19h10.59.555,LearnStrategy,2023.2.3,MacIntel,59.88023952,3,2,3,,,,,,,,7,15,,,,,,,,,,,7,1.663,1,,,,,,0.044276254,-0.383804512,1,0,0,1.6628,Peridotite_rect,2,0,2,0,1,
66058466b7348848934eec50,TCN,2024-06-11_19h10.59.555,LearnStrategy,2023.2.3,MacIntel,59.88023952,3,2,4,,,,,,,,1,01,,,,,,,,,,,1,2.809,1,,,,,,-0.339011111,-0.258856552,1,0,0,2.8091,Andesite_rect,3,0,3,0,1,
66058466b7348848934eec50,TCN,2024-06-11_19h10.59.555,LearnStrategy,2023.2.3,MacIntel,59.88023952,3,2,5,,,,,,,,8,14,,,,,,,,,,,8,6.826,1,,,,,,0.342296133,-0.41337297,1,0,0,6.8257,Pumice_rect,4,0,4,0,1,
66058466b7348848934eec50,TCN,2024-06-11_19h10.59.555,LearnStrategy,2023.2.3,MacIntel,59.88023952,3,2,6,,,,,,,,2,05,,,,,,,,,,,2,1.843,1,,,,,,-0.106330662,-0.260011189,1,0,0,1.8429,Basalt_rect,5,0,5,0,1,
66058466b7348848934eec50,TCN,2024-06-11_19h10.59.555,LearnStrategy,2023.2.3,MacIntel,59.88023952,3,2,7,,,,,,,,3,14,,,,,,,,,,,3,1.859,1,,,,,,0.060714379,-0.258313385,1,0,0,1.8589,Diorite_rect,6,0,6,0,1,
66058466b7348848934eec50,TCN,2024-06-11_19h10.59.555,LearnStrategy,2023.2.3,MacIntel,59.88023952,3,2,8,,,,,,,,8,16,,,,,,,,,,,8,2.858,1,,,,,,0.329962661,-0.404766861,1,0,0,2.8579,Pumice_rect,7,0,7,0,1,
66058466b7348848934eec50,TCN,2024-06-11_19h10.59.555,LearnStrategy,2023.2.3,MacIntel,59.88023952,3,2,9,,,,,,,,7,16,,,,,,,,,,,7,1.909,1,,,,,,0.144222263,-0.416885668,1,0,0,1.9086,Peridotite_rect,8,0,8,0,1,
66058466b7348848934eec50,TCN,2024-06-11_19h10.59.555,LearnStrategy,2023.2.3,MacIntel,59.88023952,3,2,10,,,,,,,,5,16,,,,,,,,,,,5,1.426,1,,,,,,-0.327646883,-0.404828658,1,0,0,1.4258,Obsidian_rect,9,0,9,0,1,
66058466b7348848934eec50,TCN,2024-06-11_19h10.59.555,LearnStrategy,2023.2.3,MacIntel,59.88023952,3,2,11,,,,,,,,4,10,,,,,,,,,,,3,3.11,0,,,,,,0.090240555,-0.268542491,1,0,0,3.1095,Diorite_rect,10,0,10,0,1,
66058466b7348848934eec50,TCN,2024-06-11_19h10.59.555,LearnStrategy,2023.2.3,MacIntel,59.88023952,3,2,12,,,,,,,,6,12,,,,,,,,,,,6,1.625,1,,,,,,-0.112152633,-0.408643838,1,0,0,1.6245,Pegmatite_rect,11,0,11,0,1,
66058466b7348848934eec50,TCN,2024-06-11_19h10.59.555,LearnStrategy,2023.2.3,MacIntel,59.88023952,3,2,13,,,,,,,,3,11,,,,,,,,,,,1,3.542,0,,,,,,-0.340614592,-0.270445202,1,0,0,3.542,Andesite_rect,12,0,12,0,1,
66058466b7348848934eec50,TCN,2024-06-11_19h10.59.555,LearnStrategy,2023.2.3,MacIntel,59.88023952,3,2,14,,,,,,,,1,07,,,,,,,,,,,3,2.159,0,,,,,,0.087918271,-0.253668818,1,0,0,2.1585,Diorite_rect,13,0,13,0,1,
66058466b7348848934eec50,TCN,2024-06-11_19h10.59.555,LearnStrategy,2023.2.3,MacIntel,59.88023952,3,2,15,,,,,,,,5,10,,,,,,,,,,,3,0.56,0,,,,,,0.084646258,-0.253668818,1,0,0,0.5597,Diorite_rect,14,0,14,0,1,
66058466b7348848934eec50,TCN,2024-06-11_19h10.59.555,LearnStrategy,2023.2.3,MacIntel,59.88023952,3,2,16,,,,,,,,4,05,,,,,,,,,,,7,2.593,0,,,,,,0.153700042,-0.391434872,1,0,0,2.5932,Peridotite_rect,15,0,15,0,1,
66058466b7348848934eec50,TCN,2024-06-11_19h10.59.555,LearnStrategy,2023.2.3,MacIntel,59.88023952,4,1,1,0.10516952,-0.014431333,1,0,0,43.2304,rock_grid_rect_2,5,05,-1,-1,43.23,-0.371890612,-0.393451421,1,0,0,1.9279,Obsidian_rect,5,1.928,1,0,0,0,0,1,,,,,,,,,,,,,
66058466b7348848934eec50,TCN,2024-06-11_19h10.59.555,LearnStrategy,2023.2.3,MacIntel,59.88023952,4,1,2,0.098905209,-0.010206338,1,0,0,1.2986,rock_grid_rect_2,7,08,-1,-1,1.299,0.137980719,-0.231717709,1,0,0,0.9103,Diorite_rect,3,0.91,0,1,0,1,0,1,,,,,,,,,,,,,
66058466b7348848934eec50,TCN,2024-06-11_19h10.59.555,LearnStrategy,2023.2.3,MacIntel,59.88023952,4,1,3,0.174083446,-0.005503226,1,0,0,13.0652,rock_grid_rect_2,3,10,-1,-1,13.065,0.127097861,-0.228152971,1,0,0,1.0108,Diorite_rect,3,1.011,1,2,0,2,0,1,,,,,,,,,,,,,
66058466b7348848934eec50,TCN,2024-06-11_19h10.59.555,LearnStrategy,2023.2.3,MacIntel,59.88023952,4,1,4,0.110438567,-0.014106083,1,0,0,2.9821,rock_grid_rect_2,2,14,-1,-1,2.982,0.137034242,-0.244207301,1,0,0,1.5113,Diorite_rect,3,1.511,0,3,0,3,0,1,,,,,,,,,,,,,
66058466b7348848934eec50,TCN,2024-06-11_19h10.59.555,LearnStrategy,2023.2.3,MacIntel,59.88023952,4,1,5,0.103754684,-0.01533878,1,0,0,6.9814,rock_grid_rect_2,6,09,-1,-1,6.981,0.187223538,-0.255486964,1,0,0,1.0955,Diorite_rect,3,1.096,0,4,0,4,0,1,,,,,,,,,,,,,
66058466b7348848934eec50,TCN,2024-06-11_19h10.59.555,LearnStrategy,2023.2.3,MacIntel,59.88023952,4,1,6,0.086708342,-0.0162755,1,0,0,6.47,rock_grid_rect_2,5,04,-1,-1,6.47,-0.35121123,-0.396011137,1,0,0,1.2932,Obsidian_rect,5,1.293,1,5,0,5,0,1,,,,,,,,,,,,,
66058466b7348848934eec50,TCN,2024-06-11_19h10.59.555,LearnStrategy,2023.2.3,MacIntel,59.88023952,4,1,7,0.035868547,0.018022091,1,0,0,46.8822,rock_grid_rect_2,6,08,-1,-1,46.882,-0.397295873,-0.390852675,1,0,0,1.3778,Obsidian_rect,5,1.378,0,6,0,6,0,1,,,,,,,,,,,,,
66058466b7348848934eec50,TCN,2024-06-11_19h10.59.555,LearnStrategy,2023.2.3,MacIntel,59.88023952,4,1,8,-0.04675791,-0.009494041,1,0,0,13.4321,rock_grid_rect_2,2,02,-1,-1,13.432,-0.164319447,-0.235168609,1,0,0,0.9941,Basalt_rect,2,0.994,1,7,0,7,0,1,,,,,,,,,,,,,
66058466b7348848934eec50,TCN,2024-06-11_19h10.59.555,LearnStrategy,2023.2.3,MacIntel,59.88023952,4,1,9,0.027288458,-0.011728507,1,0,0,3.6152,rock_grid_rect_2,1,06,-1,-1,3.615,-0.122700484,-0.261413015,1,0,0,0.7441,Basalt_rect,2,0.744,0,8,0,8,0,1,,,,,,,,,,,,,
66058466b7348848934eec50,TCN,2024-06-11_19h10.59.555,LearnStrategy,2023.2.3,MacIntel,59.88023952,4,1,10,0.025776046,-0.004914524,1,0,0,0.6869,rock_grid_rect_2,4,09,-1,-1,0.687,0.081348225,-0.262021232,1,0,0,0.7805,Diorite_rect,3,0.78,0,9,0,9,0,1,,,,,,,,,,,,,
66058466b7348848934eec50,TCN,2024-06-11_19h10.59.555,LearnStrategy,2023.2.3,MacIntel,59.88023952,4,1,11,-0.064051442,-0.022874818,1,0,0,0.449,rock_grid_rect_2,8,08,-1,-1,0.449,-0.128337063,-0.23111925,1,0,0,1.146,Basalt_rect,2,1.146,0,10,0,10,0,1,,,,,,,,,,,,,
66058466b7348848934eec50,TCN,2024-06-11_19h10.59.555,LearnStrategy,2023.2.3,MacIntel,59.88023952,4,1,12,-0.094289915,-0.007431958,1,0,0,1.3486,rock_grid_rect_2,3,02,-1,-1,1.349,-0.366374376,-0.242568042,1,0,0,0.7801,Andesite_rect,1,0.78,0,11,0,11,0,1,,,,,,,,,,,,,
66058466b7348848934eec50,TCN,2024-06-11_19h10.59.555,LearnStrategy,2023.2.3,MacIntel,59.88023952,4,1,13,0.014193901,-0.021333134,1,0,0,0.8991,rock_grid_rect_2,4,11,-1,-1,0.899,0.226344583,-0.237367298,1,0,0,0.479,Diorite_rect,3,0.479,0,12,0,12,0,1,,,,,,,,,,,,,
66058466b7348848934eec50,TCN,2024-06-11_19h10.59.555,LearnStrategy,2023.2.3,MacIntel,59.88023952,4,1,14,0.178129553,-0.01184885,1,0,0,1.1987,rock_grid_rect_2,1,14,-1,-1,1.199,0.391499922,-0.242821737,1,0,0,0.7141,Gabbro_rect,4,0.714,0,13,0,13,0,1,,,,,,,,,,,,,
66058466b7348848934eec50,TCN,2024-06-11_19h10.59.555,LearnStrategy,2023.2.3,MacIntel,59.88023952,4,1,15,0.155267746,0.006078919,1,0,0,1.9489,rock_grid_rect_2,8,13,-1,-1,1.949,0.14471339,-0.391148652,1,0,0,0.8471,Peridotite_rect,7,0.847,0,14,0,14,0,1,,,,,,,,,,,,,
66058466b7348848934eec50,TCN,2024-06-11_19h10.59.555,LearnStrategy,2023.2.3,MacIntel,59.88023952,4,1,16,0.007649875,-0.014099578,1,0,0,1.2978,rock_grid_rect_2,7,06,-1,-1,1.298,0.381846508,-0.405732853,1,0,0,1.8796,Pumice_rect,8,1.88,0,15,0,15,0,1,,,,,,,,,,,,,
66058466b7348848934eec50,TCN,2024-06-11_19h10.59.555,LearnStrategy,2023.2.3,MacIntel,59.88023952,4,2,1,,,,,,,,2,05,,,,,,,,,,,2,0.564,1,,,,,,-0.089863265,-0.248643708,1,0,0,0.5637,Basalt_rect,0,0,0,0,1,
66058466b7348848934eec50,TCN,2024-06-11_19h10.59.555,LearnStrategy,2023.2.3,MacIntel,59.88023952,4,2,2,,,,,,,,1,03,,,,,,,,,,,4,1.296,0,,,,,,0.457971222,-0.25377615,1,0,0,1.2962,Gabbro_rect,1,0,1,0,1,
66058466b7348848934eec50,TCN,2024-06-11_19h10.59.555,LearnStrategy,2023.2.3,MacIntel,59.88023952,4,2,3,,,,,,,,1,16,,,,,,,,,,,8,1.079,0,,,,,,0.368927586,-0.42154975,1,0,0,1.079,Pumice_rect,2,0,2,0,1,
66058466b7348848934eec50,TCN,2024-06-11_19h10.59.555,LearnStrategy,2023.2.3,MacIntel,59.88023952,4,2,4,,,,,,,,6,12,,,,,,,,,,,8,0.278,0,,,,,,0.368927586,-0.42154975,1,0,0,0.2778,Pumice_rect,3,0,3,0,1,
66058466b7348848934eec50,TCN,2024-06-11_19h10.59.555,LearnStrategy,2023.2.3,MacIntel,59.88023952,4,2,5,,,,,,,,6,13,,,,,,,,,,,6,0.695,1,,,,,,-0.126853924,-0.38708303,1,0,0,0.6952,Pegmatite_rect,4,0,4,0,1,
66058466b7348848934eec50,TCN,2024-06-11_19h10.59.555,LearnStrategy,2023.2.3,MacIntel,59.88023952,4,2,6,,,,,,,,4,16,,,,,,,,,,,6,0.094,0,,,,,,-0.126853924,-0.38708303,1,0,0,0.094,Pegmatite_rect,5,0,5,0,1,
66058466b7348848934eec50,TCN,2024-06-11_19h10.59.555,LearnStrategy,2023.2.3,MacIntel,59.88023952,4,2,7,,,,,,,,8,15,,,,,,,,,,,5,0.611,0,,,,,,-0.400216616,-0.401289941,1,0,0,0.6111,Obsidian_rect,6,0,6,0,1,
66058466b7348848934eec50,TCN,2024-06-11_19h10.59.555,LearnStrategy,2023.2.3,MacIntel,59.88023952,4,2,8,,,,,,,,5,10,,,,,,,,,,,5,0.777,1,,,,,,-0.39110637,-0.396912078,1,0,0,0.7773,Obsidian_rect,7,0,7,0,1,
66058466b7348848934eec50,TCN,2024-06-11_19h10.59.555,LearnStrategy,2023.2.3,MacIntel,59.88023952,4,2,9,,,,,,,,3,08,,,,,,,,,,,1,0.545,0,,,,,,-0.364979054,-0.246864592,1,0,0,0.5449,Andesite_rect,8,0,8,0,1,
66058466b7348848934eec50,TCN,2024-06-11_19h10.59.555,LearnStrategy,2023.2.3,MacIntel,59.88023952,4,2,10,,,,,,,,8,16,,,,,,,,,,,2,1.146,0,,,,,,-0.154955506,-0.253063853,1,0,0,1.1459,Basalt_rect,9,0,9,0,1,
66058466b7348848934eec50,TCN,2024-06-11_19h10.59.555,LearnStrategy,2023.2.3,MacIntel,59.88023952,4,2,11,,,,,,,,5,06,,,,,,,,,,,3,0.395,0,,,,,,0.080135044,-0.232563359,1,0,0,0.395,Diorite_rect,10,0,10,0,1,
66058466b7348848934eec50,TCN,2024-06-11_19h10.59.555,LearnStrategy,2023.2.3,MacIntel,59.88023952,4,2,12,,,,,,,,7,14,,,,,,,,,,,8,0.996,0,,,,,,0.368534034,-0.392065857,1,0,0,0.9957,Pumice_rect,11,0,11,0,1,
66058466b7348848934eec50,TCN,2024-06-11_19h10.59.555,LearnStrategy,2023.2.3,MacIntel,59.88023952,4,2,13,,,,,,,,2,06,,,,,,,,,,,8,0.018,0,,,,,,0.382685653,-0.390608738,1,0,0,0.0177,Pumice_rect,12,0,12,0,1,
66058466b7348848934eec50,TCN,2024-06-11_19h10.59.555,LearnStrategy,2023.2.3,MacIntel,59.88023952,4,2,14,,,,,,,,7,10,,,,,,,,,,,8,0.062,0,,,,,,0.382685653,-0.390608738,1,0,0,0.0624,Pumice_rect,13,0,13,0,1,
66058466b7348848934eec50,TCN,2024-06-11_19h10.59.555,LearnStrategy,2023.2.3,MacIntel,59.88023952,4,2,15,,,,,,,,3,06,,,,,,,,,,,3,0.246,1,,,,,,0.033035621,-0.251128617,1,0,0,0.2461,Diorite_rect,14,0,14,0,1,
66058466b7348848934eec50,TCN,2024-06-11_19h10.59.555,LearnStrategy,2023.2.3,MacIntel,59.88023952,4,2,16,,,,,,,,4,05,,,,,,,,,,,3,0.018,0,,,,,,0.04283865,-0.262635954,1,0,0,0.0177,Diorite_rect,15,0,15,0,1,
66058466b7348848934eec50,TCN,2024-06-11_19h10.59.555,LearnStrategy,2023.2.3,MacIntel,59.88023952,5,1,1,-0.060990841,-0.016337297,1,0,0,0.6325,rock_grid_rect_2,1,11,-1,-1,0.632,-0.180344505,-0.245862823,1,0,0,0.9959,Basalt_rect,2,0.996,0,0,0,0,0,1,,,,,,,,,,,,,
66058466b7348848934eec50,TCN,2024-06-11_19h10.59.555,LearnStrategy,2023.2.3,MacIntel,59.88023952,5,1,2,-0.099350801,-0.014483373,1,0,0,1.7991,rock_grid_rect_2,6,11,-1,-1,1.799,-0.403943979,-0.255096664,1,0,0,0.7126,Andesite_rect,1,0.713,0,1,0,1,0,1,,,,,,,,,,,,,
66058466b7348848934eec50,TCN,2024-06-11_19h10.59.555,LearnStrategy,2023.2.3,MacIntel,59.88023952,5,1,3,-0.09812461,-0.017885486,1,0,0,0.8989,rock_grid_rect_2,4,01,-1,-1,0.899,0.133049932,-0.233965185,1,0,0,0.9292,Diorite_rect,3,0.929,0,2,0,2,0,1,,,,,,,,,,,,,
66058466b7348848934eec50,TCN,2024-06-11_19h10.59.555,LearnStrategy,2023.2.3,MacIntel,59.88023952,5,1,4,0.156763895,-0.003262255,1,0,0,1.349,rock_grid_rect_2,5,02,-1,-1,1.349,0.340266575,-0.232130776,1,0,0,0.8614,Gabbro_rect,4,0.861,0,3,0,3,0,1,,,,,,,,,,,,,
66058466b7348848934eec50,TCN,2024-06-11_19h10.59.555,LearnStrategy,2023.2.3,MacIntel,59.88023952,5,1,5,0.083716044,-0.004641315,1,0,0,1.349,rock_grid_rect_2,7,13,-1,-1,1.349,0.342774251,-0.389785856,1,0,0,0.8626,Pumice_rect,8,0.863,0,4,0,4,0,1,,,,,,,,,,,,,
66058466b7348848934eec50,TCN,2024-06-11_19h10.59.555,LearnStrategy,2023.2.3,MacIntel,59.88023952,5,1,6,0.032476192,-0.001681541,1,0,0,0.7486,rock_grid_rect_2,6,16,-1,-1,0.749,-0.084857671,-0.395409424,1,0,0,1.0802,Pegmatite_rect,6,1.08,1,5,0,5,0,1,,,,,,,,,,,,,
66058466b7348848934eec50,TCN,2024-06-11_19h10.59.555,LearnStrategy,2023.2.3,MacIntel,59.88023952,5,1,7,-0.159147976,0.009256609,1,0,0,2.2995,rock_grid_rect_2,7,07,-1,-1,2.299,-0.378981057,-0.248741283,1,0,0,1.0796,Andesite_rect,1,1.08,0,6,0,6,0,1,,,,,,,,,,,,,
66058466b7348848934eec50,TCN,2024-06-11_19h10.59.555,LearnStrategy,2023.2.3,MacIntel,59.88023952,5,1,8,0.080274901,-0.001362797,1,0,0,2.1822,rock_grid_rect_2,3,16,-1,-1,2.182,0.110393032,-0.234654715,1,0,0,1.0787,Diorite_rect,3,1.079,1,7,0,7,0,1,,,,,,,,,,,,,
66058466b7348848934eec50,TCN,2024-06-11_19h10.59.555,LearnStrategy,2023.2.3,MacIntel,59.88023952,5,1,9,0.119769983,0.009907109,1,0,0,1.3488,rock_grid_rect_2,5,11,-1,-1,1.349,0.320732072,-0.253473668,1,0,0,0.995,Gabbro_rect,4,0.995,0,8,0,8,0,1,,,,,,,,,,,,,
66058466b7348848934eec50,TCN,2024-06-11_19h10.59.555,LearnStrategy,2023.2.3,MacIntel,59.88023952,5,1,10,0.110422304,-0.011917152,1,0,0,1.1321,rock_grid_rect_2,8,03,-1,-1,1.132,0.290880646,-0.246962167,1,0,0,1.7965,Gabbro_rect,4,1.797,0,9,0,9,0,1,,,,,,,,,,,,,
66058466b7348848934eec50,TCN,2024-06-11_19h10.59.555,LearnStrategy,2023.2.3,MacIntel,59.88023952,5,1,11,0.154887203,-0.00445267,1,0,0,1.1987,rock_grid_rect_2,3,12,-1,-1,1.199,0.383417465,-0.404705063,1,0,0,1.1963,Pumice_rect,8,1.196,0,10,0,10,0,1,,,,,,,,,,,,,
66058466b7348848934eec50,TCN,2024-06-11_19h10.59.555,LearnStrategy,2023.2.3,MacIntel,59.88023952,5,1,12,-0.077767225,-0.009289134,1,0,0,1.4989,rock_grid_rect_2,2,12,-1,-1,1.499,-0.162413484,-0.249469843,1,0,0,1.1447,Basalt_rect,2,1.145,1,11,0,11,0,1,,,,,,,,,,,,,
66058466b7348848934eec50,TCN,2024-06-11_19h10.59.555,LearnStrategy,2023.2.3,MacIntel,59.88023952,5,1,13,-0.106756739,-0.005369874,1,0,0,1.3819,rock_grid_rect_2,4,14,-1,-1,1.382,-0.385046966,-0.248562396,1,0,0,1.0458,Andesite_rect,1,1.046,0,12,0,12,0,1,,,,,,,,,,,,,
66058466b7348848934eec50,TCN,2024-06-11_19h10.59.555,LearnStrategy,2023.2.3,MacIntel,59.88023952,5,1,14,-0.09820267,-0.018135928,1,0,0,1.7154,rock_grid_rect_2,8,06,-1,-1,1.715,-0.074963572,-0.38324183,1,0,0,1.0128,Pegmatite_rect,6,1.013,0,13,0,13,0,1,,,,,,,,,,,,,
66058466b7348848934eec50,TCN,2024-06-11_19h10.59.555,LearnStrategy,2023.2.3,MacIntel,59.88023952,5,1,15,0.045853716,0.013637724,1,0,0,1.8163,rock_grid_rect_2,2,01,-1,-1,1.816,0.140114358,-0.384744484,1,0,0,1.5615,Peridotite_rect,7,1.562,0,14,0,14,0,1,,,,,,,,,,,,,
66058466b7348848934eec50,TCN,2024-06-11_19h10.59.555,LearnStrategy,2023.2.3,MacIntel,59.88023952,5,1,16,0.054814347,-0.013062032,1,0,0,1.1652,rock_grid_rect_2,1,02,-1,-1,1.165,0.405222211,-0.379911272,1,0,0,0.6286,Pumice_rect,8,0.629,0,15,0,15,0,1,,,,,,,,,,,,,
66058466b7348848934eec50,TCN,2024-06-11_19h10.59.555,LearnStrategy,2023.2.3,MacIntel,59.88023952,5,2,1,,,,,,,,5,09,,,,,,,,,,,2,0.56,0,,,,,,-0.100908748,-0.270354132,1,0,0,0.56,Basalt_rect,0,0,0,0,1,
66058466b7348848934eec50,TCN,2024-06-11_19h10.59.555,LearnStrategy,2023.2.3,MacIntel,59.88023952,5,2,2,,,,,,,,3,15,,,,,,,,,,,2,0.018,0,,,,,,-0.24208342,-0.259555839,1,0,0,0.018,Basalt_rect,1,0,1,0,1,
66058466b7348848934eec50,TCN,2024-06-11_19h10.59.555,LearnStrategy,2023.2.3,MacIntel,59.88023952,5,2,3,,,,,,,,2,16,,,,,,,,,,,5,1.079,0,,,,,,-0.340907317,-0.400990711,1,0,0,1.0794,Obsidian_rect,2,0,2,0,1,
66058466b7348848934eec50,TCN,2024-06-11_19h10.59.555,LearnStrategy,2023.2.3,MacIntel,59.88023952,5,2,4,,,,,,,,4,15,,,,,,,,,,,6,1.029,0,,,,,,-0.0431639,-0.410045665,1,0,0,1.0285,Pegmatite_rect,3,0,3,0,1,
66058466b7348848934eec50,TCN,2024-06-11_19h10.59.555,LearnStrategy,2023.2.3,MacIntel,59.88023952,5,2,5,,,,,,,,1,01,,,,,,,,,,,3,0.329,0,,,,,,0.22265625,-0.247762281,1,0,0,0.3289,Diorite_rect,4,0,4,0,1,
66058466b7348848934eec50,TCN,2024-06-11_19h10.59.555,LearnStrategy,2023.2.3,MacIntel,59.88023952,5,2,6,,,,,,,,8,05,,,,,,,,,,,4,0.018,0,,,,,,0.333023262,-0.236024016,1,0,0,0.0178,Gabbro_rect,5,0,5,0,1,
66058466b7348848934eec50,TCN,2024-06-11_19h10.59.555,LearnStrategy,2023.2.3,MacIntel,59.88023952,5,2,7,,,,,,,,7,15,,,,,,,,,,,8,1.378,0,,,,,,0.361394801,-0.421429408,1,0,0,1.3783,Pumice_rect,6,0,6,0,1,
66058466b7348848934eec50,TCN,2024-06-11_19h10.59.555,LearnStrategy,2023.2.3,MacIntel,59.88023952,5,2,8,,,,,,,,3,13,,,,,,,,,,,2,1.062,0,,,,,,-0.169390092,-0.269274303,1,0,0,1.0619,Basalt_rect,7,0,7,0,1,
66058466b7348848934eec50,TCN,2024-06-11_19h10.59.555,LearnStrategy,2023.2.3,MacIntel,59.88023952,5,2,9,,,,,,,,4,03,,,,,,,,,,,2,0.018,0,,,,,,-0.226673085,-0.263904429,1,0,0,0.0177,Basalt_rect,8,0,8,0,1,
66058466b7348848934eec50,TCN,2024-06-11_19h10.59.555,LearnStrategy,2023.2.3,MacIntel,59.88023952,5,2,10,,,,,,,,7,16,,,,,,,,,,,1,0.261,0,,,,,,-0.403023522,-0.260710476,1,0,0,0.2613,Andesite_rect,9,0,9,0,1,
66058466b7348848934eec50,TCN,2024-06-11_19h10.59.555,LearnStrategy,2023.2.3,MacIntel,59.88023952,5,2,11,,,,,,,,6,15,,,,,,,,,,,5,0.397,0,,,,,,-0.360223902,-0.40985702,1,0,0,0.3969,Obsidian_rect,10,0,10,0,1,
66058466b7348848934eec50,TCN,2024-06-11_19h10.59.555,LearnStrategy,2023.2.3,MacIntel,59.88023952,5,2,12,,,,,,,,1,09,,,,,,,,,,,6,0.195,0,,,,,,-0.083517642,-0.415207379,1,0,0,0.1953,Pegmatite_rect,11,0,11,0,1,
66058466b7348848934eec50,TCN,2024-06-11_19h10.59.555,LearnStrategy,2023.2.3,MacIntel,59.88023952,5,2,13,,,,,,,,2,04,,,,,,,,,,,7,0.296,0,,,,,,0.079995186,-0.404893708,1,0,0,0.2959,Peridotite_rect,12,0,12,0,1,
66058466b7348848934eec50,TCN,2024-06-11_19h10.59.555,LearnStrategy,2023.2.3,MacIntel,59.88023952,5,2,14,,,,,,,,5,16,,,,,,,,,,,2,0.697,0,,,,,,-0.153381297,-0.243550297,1,0,0,0.6967,Basalt_rect,13,0,13,0,1,
66058466b7348848934eec50,TCN,2024-06-11_19h10.59.555,LearnStrategy,2023.2.3,MacIntel,59.88023952,5,2,15,,,,,,,,8,02,,,,,,,,,,,2,0.018,0,,,,,,-0.172834487,-0.240554746,1,0,0,0.0178,Basalt_rect,14,0,14,0,1,
66058466b7348848934eec50,TCN,2024-06-11_19h10.59.555,LearnStrategy,2023.2.3,MacIntel,59.88023952,5,2,16,,,,,,,,6,06,,,,,,,,,,,1,0.095,0,,,,,,-0.390501405,-0.237253461,1,0,0,0.0952,Andesite_rect,15,0,15,0,1,
66058466b7348848934eec50,TCN,2024-06-11_19h10.59.555,LearnStrategy,2023.2.3,MacIntel,59.88023952,6,1,1,0.122586647,0.008329647,1,0,0,1.0493,rock_grid_rect_2,4,12,-1,-1,1.049,0.10977831,-0.23362042,1,0,0,1.046,Diorite_rect,3,1.046,0,0,0,0,0,1,,,,,,,,,,,,,
66058466b7348848934eec50,TCN,2024-06-11_19h10.59.555,LearnStrategy,2023.2.3,MacIntel,59.88023952,6,1,2,-0.08236951,0.001109102,1,0,0,0.8988,rock_grid_rect_2,8,10,-1,-1,0.899,-0.181037287,-0.245895348,1,0,0,1.0474,Basalt_rect,2,1.047,0,1,0,1,0,1,,,,,,,,,,,,,
66058466b7348848934eec50,TCN,2024-06-11_19h10.59.555,LearnStrategy,2023.2.3,MacIntel,59.88023952,6,1,3,-0.168121617,-0.018119666,1,0,0,1.3489,rock_grid_rect_2,3,07,-1,-1,1.349,-0.457701265,-0.266659294,1,0,0,0.7461,Andesite_rect,1,0.746,0,2,0,2,0,1,,,,,,,,,,,,,
66058466b7348848934eec50,TCN,2024-06-11_19h10.59.555,LearnStrategy,2023.2.3,MacIntel,59.88023952,6,1,4,-0.0583986,-0.01626249,1,0,0,0.5989,rock_grid_rect_2,5,08,-1,-1,0.599,-0.17125052,-0.416866153,1,0,0,0.8967,Pegmatite_rect,6,0.897,0,3,0,3,0,1,,,,,,,,,,,,,
66058466b7348848934eec50,TCN,2024-06-11_19h10.59.555,LearnStrategy,2023.2.3,MacIntel,59.88023952,6,1,5,-0.175163275,-0.014128851,1,0,0,0.5989,rock_grid_rect_2,8,09,-1,-1,0.599,-0.365089639,-0.401205376,1,0,0,2.5794,Obsidian_rect,5,2.579,0,4,0,4,0,1,,,,,,,,,,,,,
66058466b7348848934eec50,TCN,2024-06-11_19h10.59.555,LearnStrategy,2023.2.3,MacIntel,59.88023952,6,1,6,0.154597731,0.022783748,1,0,0,0.9931,rock_grid_rect_2,2,11,-1,-1,0.993,0.166866153,-0.234342475,1,0,0,1.112,Diorite_rect,3,1.112,0,5,0,5,0,1,,,,,,,,,,,,,
66058466b7348848934eec50,TCN,2024-06-11_19h10.59.555,LearnStrategy,2023.2.3,MacIntel,59.88023952,6,1,7,0.13286454,0.003262255,1,0,0,1.099,rock_grid_rect_2,6,07,-1,-1,1.099,0.146710424,-0.389499636,1,0,0,3.1455,Peridotite_rect,7,3.146,0,6,0,6,0,1,,,,,,,,,,,,,
66058466b7348848934eec50,TCN,2024-06-11_19h10.59.555,LearnStrategy,2023.2.3,MacIntel,59.88023952,6,1,8,0.153056047,-0.008088962,1,0,0,1.6487,rock_grid_rect_2,1,04,-1,-1,1.649,0.386725255,-0.389167881,1,0,0,1.2966,Pumice_rect,8,1.297,0,7,0,7,0,1,,,,,,,,,,,,,
66058466b7348848934eec50,TCN,2024-06-11_19h10.59.555,LearnStrategy,2023.2.3,MacIntel,59.88023952,6,1,9,0.141981292,-0.012255412,1,0,0,1.415,rock_grid_rect_2,7,02,-1,-1,1.415,0.06709578,-0.410761215,1,0,0,0.8294,Peridotite_rect,7,0.829,1,8,0,8,0,1,,,,,,,,,,,,,
66058466b7348848934eec50,TCN,2024-06-11_19h10.59.555,LearnStrategy,2023.2.3,MacIntel,59.88023952,6,1,10,0.014171133,0.007269333,1,0,0,0.9653,rock_grid_rect_2,4,13,-1,-1,0.965,-0.075126197,-0.402912937,1,0,0,0.5295,Pegmatite_rect,6,0.529,0,9,0,9,0,1,,,,,,,,,,,,,
66058466b7348848934eec50,TCN,2024-06-11_19h10.59.555,LearnStrategy,2023.2.3,MacIntel,59.88023952,6,1,11,0.016525942,0.02384081,1,0,0,0.599,rock_grid_rect_2,7,05,-1,-1,0.599,0.049493261,-0.268285543,1,0,0,0.5132,Diorite_rect,3,0.513,0,10,0,10,0,1,,,,,,,,,,,,,
66058466b7348848934eec50,TCN,2024-06-11_19h10.59.555,LearnStrategy,2023.2.3,MacIntel,59.88023952,6,1,12,0.023135018,-0.02306021,1,0,0,0.3986,rock_grid_rect_2,1,05,-1,-1,0.399,-0.178005959,-0.266321035,1,0,0,1.3457,Basalt_rect,2,1.346,0,11,0,11,0,1,,,,,,,,,,,,,
66058466b7348848934eec50,TCN,2024-06-11_19h10.59.555,LearnStrategy,2023.2.3,MacIntel,59.88023952,6,1,13,-0.138686511,0.00359401,1,0,0,0.8652,rock_grid_rect_2,5,14,-1,-1,0.865,-0.446008535,-0.243107957,1,0,0,0.6295,Andesite_rect,1,0.63,0,12,0,12,0,1,,,,,,,,,,,,,
66058466b7348848934eec50,TCN,2024-06-11_19h10.59.555,LearnStrategy,2023.2.3,MacIntel,59.88023952,6,1,14,0.004986079,-0.007614098,1,0,0,0.8991,rock_grid_rect_2,6,03,-1,-1,0.899,0.331998725,-0.233213858,1,0,0,0.8965,Gabbro_rect,4,0.896,0,13,0,13,0,1,,,,,,,,,,,,,
66058466b7348848934eec50,TCN,2024-06-11_19h10.59.555,LearnStrategy,2023.2.3,MacIntel,59.88023952,6,1,15,0.092289628,-0.024549854,1,0,0,0.8988,rock_grid_rect_2,3,09,-1,-1,0.899,0.158487719,-0.255041372,1,0,0,1.6466,Diorite_rect,3,1.647,1,14,0,14,0,1,,,,,,,,,,,,,
66058466b7348848934eec50,TCN,2024-06-11_19h10.59.555,LearnStrategy,2023.2.3,MacIntel,59.88023952,6,1,16,0.113948012,-0.014551676,1,0,0,1.4988,rock_grid_rect_2,2,08,-1,-1,1.499,0.340907317,-0.409704153,1,0,0,1.1959,Pumice_rect,8,1.196,0,15,0,15,0,1,,,,,,,,,,,,,
66058466b7348848934eec50,TCN,2024-06-11_19h10.59.555,LearnStrategy,2023.2.3,MacIntel,59.88023952,6,2,1,,,,,,,,7,12,,,,,,,,,,,3,0.795,0,,,,,,0.114445644,-0.23419286,1,0,0,0.7954,Diorite_rect,0,0,0,0,1,
66058466b7348848934eec50,TCN,2024-06-11_19h10.59.555,LearnStrategy,2023.2.3,MacIntel,59.88023952,6,2,2,,,,,,,,4,10,,,,,,,,,,,3,0.094,0,,,,,,0.118332379,-0.23419286,1,0,0,0.0943,Diorite_rect,1,0,1,0,1,
66058466b7348848934eec50,TCN,2024-06-11_19h10.59.555,LearnStrategy,2023.2.3,MacIntel,59.88023952,6,2,3,,,,,,,,8,14,,,,,,,,,,,4,0.096,0,,,,,,0.347935965,-0.262193615,1,0,0,0.0961,Gabbro_rect,2,0,2,0,1,
66058466b7348848934eec50,TCN,2024-06-11_19h10.59.555,LearnStrategy,2023.2.3,MacIntel,59.88023952,6,2,4,,,,,,,,4,08,,,,,,,,,,,1,0.096,0,,,,,,-0.33639285,-0.238596742,1,0,0,0.096,Andesite_rect,3,0,3,0,1,
66058466b7348848934eec50,TCN,2024-06-11_19h10.59.555,LearnStrategy,2023.2.3,MacIntel,59.88023952,6,2,5,,,,,,,,5,12,,,,,,,,,,,1,0.016,0,,,,,,-0.344182582,-0.260154299,1,0,0,0.0164,Andesite_rect,4,0,4,0,1,
66058466b7348848934eec50,TCN,2024-06-11_19h10.59.555,LearnStrategy,2023.2.3,MacIntel,59.88023952,6,2,6,,,,,,,,7,04,,,,,,,,,,,5,0.18,0,,,,,,-0.403420327,-0.401911168,1,0,0,0.1797,Obsidian_rect,5,0,5,0,1,
66058466b7348848934eec50,TCN,2024-06-11_19h10.59.555,LearnStrategy,2023.2.3,MacIntel,59.88023952,6,2,7,,,,,,,,6,10,,,,,,,,,,,6,0.396,1,,,,,,-0.155215706,-0.396186771,1,0,0,0.3959,Pegmatite_rect,6,0,6,0,1,
66058466b7348848934eec50,TCN,2024-06-11_19h10.59.555,LearnStrategy,2023.2.3,MacIntel,59.88023952,6,2,8,,,,,,,,3,14,,,,,,,,,,,1,0.018,0,,,,,,-0.2929037,-0.258804512,1,0,0,0.0182,Andesite_rect,7,0,7,0,1,
66058466b7348848934eec50,TCN,2024-06-11_19h10.59.555,LearnStrategy,2023.2.3,MacIntel,59.88023952,6,2,9,,,,,,,,1,10,,,,,,,,,,,2,0.395,0,,,,,,-0.169689321,-0.265787625,1,0,0,0.3951,Basalt_rect,8,0,8,0,1,
66058466b7348848934eec50,TCN,2024-06-11_19h10.59.555,LearnStrategy,2023.2.3,MacIntel,59.88023952,6,2,10,,,,,,,,1,07,,,,,,,,,,,7,0.396,0,,,,,,0.151829855,-0.416752316,1,0,0,0.3955,Peridotite_rect,9,0,9,0,1,
66058466b7348848934eec50,TCN,2024-06-11_19h10.59.555,LearnStrategy,2023.2.3,MacIntel,59.88023952,6,2,11,,,,,,,,6,05,,,,,,,,,,,3,0.211,0,,,,,,0.154399329,-0.236333004,1,0,0,0.2112,Diorite_rect,10,0,10,0,1,
66058466b7348848934eec50,TCN,2024-06-11_19h10.59.555,LearnStrategy,2023.2.3,MacIntel,59.88023952,6,2,12,,,,,,,,3,11,,,,,,,,,,,4,0.33,0,,,,,,0.384786766,-0.231831547,1,0,0,0.3295,Gabbro_rect,11,0,11,0,1,
66058466b7348848934eec50,TCN,2024-06-11_19h10.59.555,LearnStrategy,2023.2.3,MacIntel,59.88023952,6,2,13,,,,,,,,2,09,,,,,,,,,,,2,0.846,1,,,,,,-0.090666632,-0.260017694,1,0,0,0.8459,Basalt_rect,12,0,12,0,1,
66058466b7348848934eec50,TCN,2024-06-11_19h10.59.555,LearnStrategy,2023.2.3,MacIntel,59.88023952,6,2,14,,,,,,,,2,10,,,,,,,,,,,6,0.696,0,,,,,,-0.165044754,-0.420173944,1,0,0,0.6959,Pegmatite_rect,13,0,13,0,1,
66058466b7348848934eec50,TCN,2024-06-11_19h10.59.555,LearnStrategy,2023.2.3,MacIntel,59.88023952,6,2,15,,,,,,,,8,04,,,,,,,,,,,2,2.346,0,,,,,,-0.102622814,-0.264766341,1,0,0,2.3463,Basalt_rect,14,0,14,0,1,
66058466b7348848934eec50,TCN,2024-06-11_19h10.59.555,LearnStrategy,2023.2.3,MacIntel,59.88023952,6,2,16,,,,,,,,5,07,,,,,,,,,,,3,0.721,0,,,,,,0.094172825,-0.253629788,1,0,0,0.7212,Diorite_rect,15,0,15,0,1,
66058466b7348848934eec50,TCN,2024-06-11_19h10.59.555,LearnStrategy,2023.2.3,MacIntel,59.88023952,7,1,1,-0.027834877,-0.001840914,1,0,0,0.0158,rock_grid_rect_2,1,05,-1,-1,0.016,-0.224422356,-0.231740477,1,0,0,0.5124,Basalt_rect,2,0.512,0,0,0,0,0,1,,,,,,,,,,,,,
66058466b7348848934eec50,TCN,2024-06-11_19h10.59.555,LearnStrategy,2023.2.3,MacIntel,59.88023952,7,1,2,-0.105881817,0.005926051,1,0,0,1.1994,rock_grid_rect_2,6,08,-1,-1,1.199,-0.358350463,-0.264346768,1,0,0,0.5634,Andesite_rect,1,0.563,0,1,0,1,0,1,,,,,,,,,,,,,
66058466b7348848934eec50,TCN,2024-06-11_19h10.59.555,LearnStrategy,2023.2.3,MacIntel,59.88023952,7,1,3,-0.05083329,-0.010860091,1,0,0,1.0491,rock_grid_rect_2,4,11,-1,-1,1.049,-0.055838884,-0.242194005,1,0,0,1.0793,Basalt_rect,2,1.079,0,2,0,2,0,1,,,,,,,,,,,,,
66058466b7348848934eec50,TCN,2024-06-11_19h10.59.555,LearnStrategy,2023.2.3,MacIntel,59.88023952,7,1,4,0.076193016,-0.021560809,1,0,0,0.4493,rock_grid_rect_2,3,02,-1,-1,0.449,0.110675999,-0.244376431,1,0,0,2.0962,Diorite_rect,3,2.096,1,3,0,3,0,1,,,,,,,,,,,,,
66058466b7348848934eec50,TCN,2024-06-11_19h10.59.555,LearnStrategy,2023.2.3,MacIntel,59.88023952,7,1,5,0.068439061,-0.005363369,1,0,0,0.8649,rock_grid_rect_2,7,13,-1,-1,0.865,0.375774095,-0.237637255,1,0,0,0.8125,Gabbro_rect,4,0.813,0,4,0,4,0,1,,,,,,,,,,,,,
66058466b7348848934eec50,TCN,2024-06-11_19h10.59.555,LearnStrategy,2023.2.3,MacIntel,59.88023952,7,1,6,0.096608946,-0.019710137,1,0,0,1.3157,rock_grid_rect_2,7,05,-1,-1,1.316,0.119818771,-0.391194187,1,0,0,1.9448,Peridotite_rect,7,1.945,1,5,0,5,0,1,,,,,,,,,,,,,
66058466b7348848934eec50,TCN,2024-06-11_19h10.59.555,LearnStrategy,2023.2.3,MacIntel,59.88023952,7,1,7,0.059182452,-0.005493469,1,0,0,1.6157,rock_grid_rect_2,5,08,-1,-1,1.616,-0.348983269,-0.411945124,1,0,0,1.5293,Obsidian_rect,5,1.529,1,6,0,6,0,1,,,,,,,,,,,,,
66058466b7348848934eec50,TCN,2024-06-11_19h10.59.555,LearnStrategy,2023.2.3,MacIntel,59.88023952,7,1,8,-0.058395348,-0.004176207,1,0,0,0.9323,rock_grid_rect_2,6,03,-1,-1,0.932,-0.106213572,-0.256283826,1,0,0,1.3792,Basalt_rect,2,1.379,0,7,0,7,0,1,,,,,,,,,,,,,
66058466b7348848934eec50,TCN,2024-06-11_19h10.59.555,LearnStrategy,2023.2.3,MacIntel,59.88023952,7,1,9,0.060922539,-0.011572388,1,0,0,1.3156,rock_grid_rect_2,2,12,-1,-1,1.316,0.385756011,-0.413353455,1,0,0,1.0119,Pumice_rect,8,1.012,0,8,0,8,0,1,,,,,,,,,,,,,
66058466b7348848934eec50,TCN,2024-06-11_19h10.59.555,LearnStrategy,2023.2.3,MacIntel,59.88023952,7,1,10,0.060128929,-0.014158123,1,0,0,0.6492,rock_grid_rect_2,5,14,-1,-1,0.649,-0.072394099,-0.270907057,1,0,0,0.6302,Basalt_rect,2,0.63,0,9,0,9,0,1,,,,,,,,,,,,,
66058466b7348848934eec50,TCN,2024-06-11_19h10.59.555,LearnStrategy,2023.2.3,MacIntel,59.88023952,7,1,11,-0.058122138,-0.00376314,1,0,0,0.4494,rock_grid_rect_2,2,11,-1,-1,0.449,-0.121984934,-0.244021909,1,0,0,1.0467,Basalt_rect,2,1.047,1,10,0,10,0,1,,,,,,,,,,,,,
66058466b7348848934eec50,TCN,2024-06-11_19h10.59.555,LearnStrategy,2023.2.3,MacIntel,59.88023952,7,1,12,0.08125065,0.020731422,1,0,0,1.9488,rock_grid_rect_2,8,06,-1,-1,1.949,0.150148314,-0.380421914,1,0,0,1.0462,Peridotite_rect,7,1.046,0,11,0,11,0,1,,,,,,,,,,,,,
66058466b7348848934eec50,TCN,2024-06-11_19h10.59.555,LearnStrategy,2023.2.3,MacIntel,59.88023952,7,1,13,0.089294078,0.011735012,1,0,0,0.8996,rock_grid_rect_2,4,13,-1,-1,0.9,0.178783306,-0.238730095,1,0,0,1.0802,Diorite_rect,3,1.08,0,12,0,12,0,1,,,,,,,,,,,,,
66058466b7348848934eec50,TCN,2024-06-11_19h10.59.555,LearnStrategy,2023.2.3,MacIntel,59.88023952,7,1,14,0.156217475,0.01954426,1,0,0,0.7491,rock_grid_rect_2,3,16,-1,-1,0.749,0.406370342,-0.391708082,1,0,0,1.1956,Pumice_rect,8,1.196,0,13,0,13,0,1,,,,,,,,,,,,,
66058466b7348848934eec50,TCN,2024-06-11_19h10.59.555,LearnStrategy,2023.2.3,MacIntel,59.88023952,7,1,15,0.135258378,-0.006212271,1,0,0,0.5987,rock_grid_rect_2,8,13,-1,-1,0.599,0.069928705,-0.247072752,1,0,0,0.8964,Diorite_rect,3,0.896,0,14,0,14,0,1,,,,,,,,,,,,,
66058466b7348848934eec50,TCN,2024-06-11_19h10.59.555,LearnStrategy,2023.2.3,MacIntel,59.88023952,7,1,16,-0.022211308,-0.007028648,1,0,0,1.575,rock_grid_rect_2,1,06,-1,-1,1.575,-0.146713676,-0.237006271,1,0,0,1.2299,Basalt_rect,2,1.23,0,15,0,15,0,1,,,,,,,,,,,,,
66058466b7348848934eec50,TCN,2024-06-11_19h10.59.555,LearnStrategy,2023.2.3,MacIntel,59.88023952,7,2,1,,,,,,,,4,05,,,,,,,,,,,1,0.911,0,,,,,,-0.367740425,-0.249811355,1,0,0,0.911,Andesite_rect,0,0,0,0,1,
66058466b7348848934eec50,TCN,2024-06-11_19h10.59.555,LearnStrategy,2023.2.3,MacIntel,59.88023952,7,2,2,,,,,,,,8,05,,,,,,,,,,,6,0.579,0,,,,,,-0.093623153,-0.418681047,1,0,0,0.5785,Pegmatite_rect,1,0,1,0,1,
66058466b7348848934eec50,TCN,2024-06-11_19h10.59.555,LearnStrategy,2023.2.3,MacIntel,59.88023952,7,2,3,,,,,,,,5,12,,,,,,,,,,,7,0.512,0,,,,,,0.151703008,-0.418037052,1,0,0,0.5124,Peridotite_rect,2,0,2,0,1,
66058466b7348848934eec50,TCN,2024-06-11_19h10.59.555,LearnStrategy,2023.2.3,MacIntel,59.88023952,7,2,4,,,,,,,,3,15,,,,,,,,,,,3,0.246,1,,,,,,0.166830376,-0.234059508,1,0,0,0.2459,Diorite_rect,3,0,3,0,1,
66058466b7348848934eec50,TCN,2024-06-11_19h10.59.555,LearnStrategy,2023.2.3,MacIntel,59.88023952,7,2,5,,,,,,,,6,13,,,,,,,,,,,4,0.578,0,,,,,,0.342901098,-0.246929642,1,0,0,0.5784,Gabbro_rect,4,0,4,0,1,
66058466b7348848934eec50,TCN,2024-06-11_19h10.59.555,LearnStrategy,2023.2.3,MacIntel,59.88023952,7,2,6,,,,,,,,1,07,,,,,,,,,,,2,0.996,0,,,,,,-0.036154767,-0.255473954,1,0,0,0.9959,Basalt_rect,5,0,5,0,1,
66058466b7348848934eec50,TCN,2024-06-11_19h10.59.555,LearnStrategy,2023.2.3,MacIntel,59.88023952,7,2,7,,,,,,,,1,09,,,,,,,,,,,1,0.511,1,,,,,,-0.413639675,-0.248617688,1,0,0,0.5112,Andesite_rect,6,0,6,0,1,
66058466b7348848934eec50,TCN,2024-06-11_19h10.59.555,LearnStrategy,2023.2.3,MacIntel,59.88023952,7,2,8,,,,,,,,8,04,,,,,,,,,,,2,2.378,0,,,,,,-0.132106708,-0.25368508,1,0,0,2.3784,Basalt_rect,7,0,7,0,1,
66058466b7348848934eec50,TCN,2024-06-11_19h10.59.555,LearnStrategy,2023.2.3,MacIntel,59.88023952,7,2,9,,,,,,,,4,10,,,,,,,,,,,7,0.62,0,,,,,,0.114266757,-0.400349969,1,0,0,0.62,Peridotite_rect,8,0,8,0,1,
66058466b7348848934eec50,TCN,2024-06-11_19h10.59.555,LearnStrategy,2023.2.3,MacIntel,59.88023952,7,2,10,,,,,,,,5,06,,,,,,,,,,,6,1.897,0,,,,,,-0.132913327,-0.40584669,1,0,0,1.897,Pegmatite_rect,9,0,9,0,1,
66058466b7348848934eec50,TCN,2024-06-11_19h10.59.555,LearnStrategy,2023.2.3,MacIntel,59.88023952,7,2,11,,,,,,,,3,06,,,,,,,,,,,5,0.129,0,,,,,,-0.326472731,-0.406191455,1,0,0,0.1292,Obsidian_rect,10,0,10,0,1,
66058466b7348848934eec50,TCN,2024-06-11_19h10.59.555,LearnStrategy,2023.2.3,MacIntel,59.88023952,7,2,12,,,,,,,,2,04,,,,,,,,,,,1,0.663,0,,,,,,-0.372371982,-0.249255178,1,0,0,0.6629,Andesite_rect,11,0,11,0,1,
66058466b7348848934eec50,TCN,2024-06-11_19h10.59.555,LearnStrategy,2023.2.3,MacIntel,59.88023952,7,2,13,,,,,,,,6,12,,,,,,,,,,,2,0.246,0,,,,,,-0.193585424,-0.266792647,1,0,0,0.2463,Basalt_rect,12,0,12,0,1,
66058466b7348848934eec50,TCN,2024-06-11_19h10.59.555,LearnStrategy,2023.2.3,MacIntel,59.88023952,7,2,14,,,,,,,,2,06,,,,,,,,,,,5,1.028,0,,,,,,-0.37143201,-0.384760746,1,0,0,1.0282,Obsidian_rect,13,0,13,0,1,
66058466b7348848934eec50,TCN,2024-06-11_19h10.59.555,LearnStrategy,2023.2.3,MacIntel,59.88023952,7,2,15,,,,,,,,7,10,,,,,,,,,,,6,0.015,0,,,,,,-0.175761735,-0.401956703,1,0,0,0.0152,Pegmatite_rect,14,0,14,0,1,
66058466b7348848934eec50,TCN,2024-06-11_19h10.59.555,LearnStrategy,2023.2.3,MacIntel,59.88023952,7,2,16,,,,,,,,7,14,,,,,,,,,,,7,0.212,1,,,,,,0.118316117,-0.382451473,1,0,0,0.2117,Peridotite_rect,15,0,15,0,1,
66058466b7348848934eec50,TCN,2024-06-11_19h10.59.555,LearnStrategy,2023.2.3,MacIntel,59.88023952,8,1,1,0.090438957,0.018048111,1,0,0,0.6326,rock_grid_rect_2,5,04,-1,-1,0.633,-0.151146831,-0.3943361,1,0,0,1.3117,Pegmatite_rect,6,1.312,0,0,0,0,0,1,,,,,,,,,,,,,
66058466b7348848934eec50,TCN,2024-06-11_19h10.59.555,LearnStrategy,2023.2.3,MacIntel,59.88023952,8,1,2,-0.044074599,-0.004364852,1,0,0,1.149,rock_grid_rect_2,3,07,-1,-1,1.149,0.0983718,-0.24656211,1,0,0,1.2781,Diorite_rect,3,1.278,1,1,0,1,0,1,,,,,,,,,,,,,
66058466b7348848934eec50,TCN,2024-06-11_19h10.59.555,LearnStrategy,2023.2.3,MacIntel,59.88023952,8,1,3,-0.079582119,-0.017836699,1,0,0,1.8657,rock_grid_rect_2,2,08,-1,-1,1.866,-0.162498049,-0.2425778,1,0,0,1.0454,Basalt_rect,2,1.045,1,2,0,2,0,1,,,,,,,,,,,,,
66058466b7348848934eec50,TCN,2024-06-11_19h10.59.555,LearnStrategy,2023.2.3,MacIntel,59.88023952,8,1,4,-0.105862302,-0.011845597,1,0,0,1.415,rock_grid_rect_2,6,16,-1,-1,1.415,-0.441178575,-0.244438229,1,0,0,1.0788,Andesite_rect,1,1.079,0,3,0,3,0,1,,,,,,,,,,,,,
66058466b7348848934eec50,TCN,2024-06-11_19h10.59.555,LearnStrategy,2023.2.3,MacIntel,59.88023952,8,1,5,0.128766393,0.000295977,1,0,0,0.6995,rock_grid_rect_2,5,02,-1,-1,0.699,0.349054824,-0.404477389,1,0,0,1.7132,Pumice_rect,8,1.713,0,4,0,4,0,1,,,,,,,,,,,,,
66058466b7348848934eec50,TCN,2024-06-11_19h10.59.555,LearnStrategy,2023.2.3,MacIntel,59.88023952,8,1,6,0.122645192,-0.013693016,1,0,0,1.149,rock_grid_rect_2,1,04,-1,-1,1.149,0.308037573,-0.244991153,1,0,0,1.079,Gabbro_rect,4,1.079,0,5,0,5,0,1,,,,,,,,,,,,,
66058466b7348848934eec50,TCN,2024-06-11_19h10.59.555,LearnStrategy,2023.2.3,MacIntel,59.88023952,8,1,7,0.10940102,-0.009731474,1,0,0,1.3823,rock_grid_rect_2,2,14,-1,-1,1.382,0.083172877,-0.259731474,1,0,0,0.4455,Diorite_rect,3,0.446,0,6,0,6,0,1,,,,,,,,,,,,,
66058466b7348848934eec50,TCN,2024-06-11_19h10.59.555,LearnStrategy,2023.2.3,MacIntel,59.88023952,8,1,8,-0.00770842,0.017130907,1,0,0,0.8993,rock_grid_rect_2,8,10,-1,-1,0.899,-0.135336438,-0.235936199,1,0,0,1.3466,Basalt_rect,2,1.347,0,7,0,7,0,1,,,,,,,,,,,,,
66058466b7348848934eec50,TCN,2024-06-11_19h10.59.555,LearnStrategy,2023.2.3,MacIntel,59.88023952,8,1,9,-0.067847107,-0.001730329,1,0,0,1.4657,rock_grid_rect_2,6,09,-1,-1,1.466,-0.0823565,-0.420352831,1,0,0,1.1127,Pegmatite_rect,6,1.113,1,8,0,8,0,1,,,,,,,,,,,,,
66058466b7348848934eec50,TCN,2024-06-11_19h10.59.555,LearnStrategy,2023.2.3,MacIntel,59.88023952,8,1,10,-0.08630178,-0.006270816,1,0,0,0.6819,rock_grid_rect_2,8,03,-1,-1,0.682,-0.150600411,-0.253047591,1,0,0,0.4466,Basalt_rect,2,0.447,0,9,0,9,0,1,,,,,,,,,,,,,
66058466b7348848934eec50,TCN,2024-06-11_19h10.59.555,LearnStrategy,2023.2.3,MacIntel,59.88023952,8,1,11,-0.163662443,-0.007705168,1,0,0,0.5987,rock_grid_rect_2,4,01,-1,-1,0.599,-0.360412547,-0.26877667,1,0,0,0.7472,Andesite_rect,1,0.747,0,10,0,10,0,1,,,,,,,,,,,,,
66058466b7348848934eec50,TCN,2024-06-11_19h10.59.555,LearnStrategy,2023.2.3,MacIntel,59.88023952,8,1,12,0.047814972,-0.007936095,1,0,0,1.4654,rock_grid_rect_2,7,06,-1,-1,1.465,0.100469661,-0.228175739,1,0,0,0.512,Diorite_rect,3,0.512,0,11,0,11,0,1,,,,,,,,,,,,,
66058466b7348848934eec50,TCN,2024-06-11_19h10.59.555,LearnStrategy,2023.2.3,MacIntel,59.88023952,8,1,13,0.128909502,-0.004751899,1,0,0,5.0989,rock_grid_rect_2,4,09,-1,-1,5.099,0.191149303,-0.255200744,1,0,0,0.8958,Diorite_rect,3,0.896,0,12,0,12,0,1,,,,,,,,,,,,,
66058466b7348848934eec50,TCN,2024-06-11_19h10.59.555,LearnStrategy,2023.2.3,MacIntel,59.88023952,8,1,14,0.088064634,0.003483425,1,0,0,2.2488,rock_grid_rect_2,7,08,-1,-1,2.249,0.424896571,-0.271996643,1,0,0,0.9623,Gabbro_rect,4,0.962,0,13,0,13,0,1,,,,,,,,,,,,,
66058466b7348848934eec50,TCN,2024-06-11_19h10.59.555,LearnStrategy,2023.2.3,MacIntel,59.88023952,8,1,15,-0.053510096,0.009133014,1,0,0,2.0985,rock_grid_rect_2,1,02,-1,-1,2.099,-0.189516549,-0.266613759,1,0,0,0.929,Basalt_rect,2,0.929,0,14,0,14,0,1,,,,,,,,,,,,,
66058466b7348848934eec50,TCN,2024-06-11_19h10.59.555,LearnStrategy,2023.2.3,MacIntel,59.88023952,8,1,16,-0.085732593,-0.015361548,1,0,0,1.0486,rock_grid_rect_2,3,09,-1,-1,1.049,-0.208855901,-0.420534971,1,0,0,0.8631,Pegmatite_rect,6,0.863,0,15,0,15,0,1,,,,,,,,,,,,,
66058466b7348848934eec50,TCN,2024-06-11_19h10.59.555,LearnStrategy,2023.2.3,MacIntel,59.88023952,8,2,1,,,,,,,,8,02,,,,,,,,,,,3,1.345,0,,,,,,0.132536038,-0.243468984,1,0,0,1.3449,Diorite_rect,0,0,0,0,1,
66058466b7348848934eec50,TCN,2024-06-11_19h10.59.555,LearnStrategy,2023.2.3,MacIntel,59.88023952,8,2,2,,,,,,,,4,03,,,,,,,,,,,4,0.162,1,,,,,,0.385339691,-0.231063957,1,0,0,0.1618,Gabbro_rect,1,0,1,0,1,
66058466b7348848934eec50,TCN,2024-06-11_19h10.59.555,LearnStrategy,2023.2.3,MacIntel,59.88023952,8,2,3,,,,,,,,6,06,,,,,,,,,,,2,0.661,0,,,,,,-0.083982749,-0.242587557,1,0,0,0.6608,Basalt_rect,2,0,2,0,1,
66058466b7348848934eec50,TCN,2024-06-11_19h10.59.555,LearnStrategy,2023.2.3,MacIntel,59.88023952,8,2,4,,,,,,,,2,16,,,,,,,,,,,2,0.179,1,,,,,,-0.172154715,-0.248770556,1,0,0,0.1791,Basalt_rect,3,0,3,0,1,
66058466b7348848934eec50,TCN,2024-06-11_19h10.59.555,LearnStrategy,2023.2.3,MacIntel,59.88023952,8,2,5,,,,,,,,3,14,,,,,,,,,,,1,0.696,0,,,,,,-0.376040799,-0.266779637,1,0,0,0.6956,Andesite_rect,4,0,4,0,1,
66058466b7348848934eec50,TCN,2024-06-11_19h10.59.555,LearnStrategy,2023.2.3,MacIntel,59.88023952,8,2,6,,,,,,,,5,07,,,,,,,,,,,7,0.495,0,,,,,,0.117925817,-0.407147689,1,0,0,0.4955,Peridotite_rect,5,0,5,0,1,
66058466b7348848934eec50,TCN,2024-06-11_19h10.59.555,LearnStrategy,2023.2.3,MacIntel,59.88023952,8,2,7,,,,,,,,5,16,,,,,,,,,,,8,1.462,0,,,,,,0.375878174,-0.397585346,1,0,0,1.4619,Pumice_rect,6,0,6,0,1,
66058466b7348848934eec50,TCN,2024-06-11_19h10.59.555,LearnStrategy,2023.2.3,MacIntel,59.88023952,8,2,8,,,,,,,,3,11,,,,,,,,,,,3,0.679,1,,,,,,0.161203554,-0.265595728,1,0,0,0.6789,Diorite_rect,7,0,7,0,1,
66058466b7348848934eec50,TCN,2024-06-11_19h10.59.555,LearnStrategy,2023.2.3,MacIntel,59.88023952,8,2,9,,,,,,,,2,09,,,,,,,,,,,3,0.017,0,,,,,,0.161203554,-0.265595728,1,0,0,0.0168,Diorite_rect,8,0,8,0,1,
66058466b7348848934eec50,TCN,2024-06-11_19h10.59.555,LearnStrategy,2023.2.3,MacIntel,59.88023952,8,2,10,,,,,,,,4,08,,,,,,,,,,,2,0.08,0,,,,,,-0.106037937,-0.256313098,1,0,0,0.0803,Basalt_rect,9,0,9,0,1,
66058466b7348848934eec50,TCN,2024-06-11_19h10.59.555,LearnStrategy,2023.2.3,MacIntel,59.88023952,8,2,11,,,,,,,,8,14,,,,,,,,,,,2,0.097,0,,,,,,-0.163246123,-0.256313098,1,0,0,0.0966,Basalt_rect,10,0,10,0,1,
66058466b7348848934eec50,TCN,2024-06-11_19h10.59.555,LearnStrategy,2023.2.3,MacIntel,59.88023952,8,2,12,,,,,,,,1,01,,,,,,,,,,,1,0.695,1,,,,,,-0.404249714,-0.244148756,1,0,0,0.6953,Andesite_rect,11,0,11,0,1,
66058466b7348848934eec50,TCN,2024-06-11_19h10.59.555,LearnStrategy,2023.2.3,MacIntel,59.88023952,8,2,13,,,,,,,,7,04,,,,,,,,,,,1,0.245,0,,,,,,-0.404467631,-0.243930839,1,0,0,0.2454,Andesite_rect,12,0,12,0,1,
66058466b7348848934eec50,TCN,2024-06-11_19h10.59.555,LearnStrategy,2023.2.3,MacIntel,59.88023952,8,2,14,,,,,,,,7,15,,,,,,,,,,,5,0.015,0,,,,,,-0.362012776,-0.421299308,1,0,0,0.0152,Obsidian_rect,13,0,13,0,1,
66058466b7348848934eec50,TCN,2024-06-11_19h10.59.555,LearnStrategy,2023.2.3,MacIntel,59.88023952,8,2,15,,,,,,,,6,10,,,,,,,,,,,5,0.029,0,,,,,,-0.358574886,-0.41037742,1,0,0,0.0288,Obsidian_rect,14,0,14,0,1,
66058466b7348848934eec50,TCN,2024-06-11_19h10.59.555,LearnStrategy,2023.2.3,MacIntel,59.88023952,8,2,16,,,,,,,,1,16,,,,,,,,,,,2,0.363,0,,,,,,-0.128798918,-0.264727311,1,0,0,0.3626,Basalt_rect,15,0,15,0,1,
66058466b7348848934eec50,TCN,2024-06-11_19h10.59.555,LearnStrategy,2023.2.3,MacIntel,59.88023952,9,1,1,-0.149871852,0.002761371,1,0,0,0.5817,rock_grid_rect_2,7,02,-1,-1,0.582,-0.123757546,-0.244896831,1,0,0,1.0454,Basalt_rect,2,1.045,0,0,0,0,0,1,,,,,,,,,,,,,
66058466b7348848934eec50,TCN,2024-06-11_19h10.59.555,LearnStrategy,2023.2.3,MacIntel,59.88023952,9,1,2,0.067713754,0.007848277,1,0,0,0.7488,rock_grid_rect_2,4,14,-1,-1,0.749,0.344237875,-0.240694603,1,0,0,0.7469,Gabbro_rect,4,0.747,1,1,0,1,0,1,,,,,,,,,,,,,
66058466b7348848934eec50,TCN,2024-06-11_19h10.59.555,LearnStrategy,2023.2.3,MacIntel,59.88023952,9,1,3,0.099679304,0.008674412,1,0,0,1.7988,rock_grid_rect_2,6,07,-1,-1,1.799,-0.059377602,-0.407866491,1,0,0,0.7454,Pegmatite_rect,6,0.745,1,2,0,2,0,1,,,,,,,,,,,,,
66058466b7348848934eec50,TCN,2024-06-11_19h10.59.555,LearnStrategy,2023.2.3,MacIntel,59.88023952,9,1,4,0.037410231,-0.009477779,1,0,0,2.2156,rock_grid_rect_2,1,11,-1,-1,2.216,0.136656953,-0.388016497,1,0,0,0.9284,Peridotite_rect,7,0.928,0,3,0,3,0,1,,,,,,,,,,,,,
66058466b7348848934eec50,TCN,2024-06-11_19h10.59.555,LearnStrategy,2023.2.3,MacIntel,59.88023952,9,1,5,0.123929928,-0.004982827,1,0,0,1.4323,rock_grid_rect_2,5,11,-1,-1,1.432,0.338386631,-0.239761137,1,0,0,0.9622,Gabbro_rect,4,0.962,0,4,0,4,0,1,,,,,,,,,,,,,
66058466b7348848934eec50,TCN,2024-06-11_19h10.59.555,LearnStrategy,2023.2.3,MacIntel,59.88023952,9,1,6,-0.087567001,0.00412742,1,0,0,1.3158,rock_grid_rect_2,8,09,-1,-1,1.316,-0.195523912,-0.243433207,1,0,0,1.8622,Basalt_rect,2,1.862,0,5,0,5,0,1,,,,,,,,,,,,,
66058466b7348848934eec50,TCN,2024-06-11_19h10.59.555,LearnStrategy,2023.2.3,MacIntel,59.88023952,9,1,7,-0.165516367,-0.0038412,1,0,0,0.5312,rock_grid_rect_2,7,07,-1,-1,0.531,-0.148603377,-0.237546185,1,0,0,0.4632,Basalt_rect,2,0.463,0,6,0,6,0,1,,,,,,,,,,,,,
66058466b7348848934eec50,TCN,2024-06-11_19h10.59.555,LearnStrategy,2023.2.3,MacIntel,59.88023952,9,1,8,-0.198340576,-0.019241778,1,0,0,0.7488,rock_grid_rect_2,5,05,-1,-1,0.749,-0.375445592,-0.26167972,1,0,0,0.7454,Andesite_rect,1,0.745,0,7,0,7,0,1,,,,,,,,,,,,,
66058466b7348848934eec50,TCN,2024-06-11_19h10.59.555,LearnStrategy,2023.2.3,MacIntel,59.88023952,9,1,9,-0.063322882,0.006254553,1,0,0,0.749,rock_grid_rect_2,8,08,-1,-1,0.749,0.097568433,-0.23375052,1,0,0,0.5459,Diorite_rect,3,0.546,0,8,0,8,0,1,,,,,,,,,,,,,
66058466b7348848934eec50,TCN,2024-06-11_19h10.59.555,LearnStrategy,2023.2.3,MacIntel,59.88023952,9,1,10,0.084304746,0.002806906,1,0,0,1.3488,rock_grid_rect_2,3,10,-1,-1,1.349,0.388429564,-0.260362458,1,0,0,0.8966,Gabbro_rect,4,0.897,0,9,0,9,0,1,,,,,,,,,,,,,
66058466b7348848934eec50,TCN,2024-06-11_19h10.59.555,LearnStrategy,2023.2.3,MacIntel,59.88023952,9,1,11,0.142267511,-0.023170795,1,0,0,1.0497,rock_grid_rect_2,2,02,-1,-1,1.05,0.078616127,-0.383732957,1,0,0,0.4453,Peridotite_rect,7,0.445,0,10,0,10,0,1,,,,,,,,,,,,,
66058466b7348848934eec50,TCN,2024-06-11_19h10.59.555,LearnStrategy,2023.2.3,MacIntel,59.88023952,9,1,12,0.044594999,-0.012886397,1,0,0,1.0489,rock_grid_rect_2,2,01,-1,-1,1.049,-0.098303497,-0.408201499,1,0,0,0.7463,Pegmatite_rect,6,0.746,0,11,0,11,0,1,,,,,,,,,,,,,
66058466b7348848934eec50,TCN,2024-06-11_19h10.59.555,LearnStrategy,2023.2.3,MacIntel,59.88023952,9,1,13,0.095942184,-0.005099917,1,0,0,0.8991,rock_grid_rect_2,6,11,-1,-1,0.899,0.235045015,-0.397442236,1,0,0,0.4463,Peridotite_rect,7,0.446,0,12,0,12,0,1,,,,,,,,,,,,,
66058466b7348848934eec50,TCN,2024-06-11_19h10.59.555,LearnStrategy,2023.2.3,MacIntel,59.88023952,9,1,14,0.092367688,-0.024673449,1,0,0,1.9489,rock_grid_rect_2,3,12,-1,-1,1.949,0.356613629,-0.380174724,1,0,0,1.4125,Pumice_rect,8,1.412,0,13,0,13,0,1,,,,,,,,,,,,,
66058466b7348848934eec50,TCN,2024-06-11_19h10.59.555,LearnStrategy,2023.2.3,MacIntel,59.88023952,9,1,15,0.01569005,-0.022780495,1,0,0,2.0988,rock_grid_rect_2,4,12,-1,-1,2.099,0.063540799,-0.258258092,1,0,0,1.7964,Diorite_rect,3,1.796,0,14,0,14,0,1,,,,,,,,,,,,,
66058466b7348848934eec50,TCN,2024-06-11_19h10.59.555,LearnStrategy,2023.2.3,MacIntel,59.88023952,9,1,16,0.007984882,-0.001971014,1,0,0,0.8656,rock_grid_rect_2,1,14,-1,-1,0.866,-0.10162755,-0.244597601,1,0,0,1.679,Basalt_rect,2,1.679,0,15,0,15,0,1,,,,,,,,,,,,,
66058466b7348848934eec50,TCN,2024-06-11_19h10.59.555,LearnStrategy,2023.2.3,MacIntel,59.88023952,9,2,1,,,,,,,,6,05,,,,,,,,,,,1,1.426,0,,,,,,-0.345379501,-0.26611938,1,0,0,1.4256,Andesite_rect,0,0,0,0,1,
66058466b7348848934eec50,TCN,2024-06-11_19h10.59.555,LearnStrategy,2023.2.3,MacIntel,59.88023952,9,2,2,,,,,,,,8,15,,,,,,,,,,,5,0.595,0,,,,,,-0.34375,-0.39460931,1,0,0,0.595,Obsidian_rect,1,0,1,0,1,
66058466b7348848934eec50,TCN,2024-06-11_19h10.59.555,LearnStrategy,2023.2.3,MacIntel,59.88023952,9,2,3,,,,,,,,8,16,,,,,,,,,,,6,1.096,0,,,,,,-0.155082353,-0.402223408,1,0,0,1.096,Pegmatite_rect,2,0,2,0,1,
66058466b7348848934eec50,TCN,2024-06-11_19h10.59.555,LearnStrategy,2023.2.3,MacIntel,59.88023952,9,2,4,,,,,,,,3,08,,,,,,,,,,,4,0.246,0,,,,,,0.370248101,-0.247258144,1,0,0,0.2461,Gabbro_rect,3,0,3,0,1,
66058466b7348848934eec50,TCN,2024-06-11_19h10.59.555,LearnStrategy,2023.2.3,MacIntel,59.88023952,9,2,5,,,,,,,,1,10,,,,,,,,,,,8,0.096,0,,,,,,0.394775187,-0.398470025,1,0,0,0.096,Pumice_rect,4,0,4,0,1,
66058466b7348848934eec50,TCN,2024-06-11_19h10.59.555,LearnStrategy,2023.2.3,MacIntel,59.88023952,9,2,6,,,,,,,,4,15,,,,,,,,,,,3,0.096,0,,,,,,0.161268604,-0.263084799,1,0,0,0.0962,Diorite_rect,5,0,5,0,1,
66058466b7348848934eec50,TCN,2024-06-11_19h10.59.555,LearnStrategy,2023.2.3,MacIntel,59.88023952,9,2,7,,,,,,,,5,10,,,,,,,,,,,2,0.545,0,,,,,,-0.154129371,-0.246636917,1,0,0,0.5454,Basalt_rect,6,0,6,0,1,
66058466b7348848934eec50,TCN,2024-06-11_19h10.59.555,LearnStrategy,2023.2.3,MacIntel,59.88023952,9,2,8,,,,,,,,2,10,,,,,,,,,,,1,0.395,0,,,,,,-0.384962401,-0.256947336,1,0,0,0.3953,Andesite_rect,7,0,7,0,1,
66058466b7348848934eec50,TCN,2024-06-11_19h10.59.555,LearnStrategy,2023.2.3,MacIntel,59.88023952,9,2,9,,,,,,,,2,05,,,,,,,,,,,6,0.279,0,,,,,,-0.202292361,-0.398769255,1,0,0,0.2788,Pegmatite_rect,8,0,8,0,1,
66058466b7348848934eec50,TCN,2024-06-11_19h10.59.555,LearnStrategy,2023.2.3,MacIntel,59.88023952,9,2,10,,,,,,,,7,16,,,,,,,,,,,7,0.062,1,,,,,,0.088487458,-0.400772794,1,0,0,0.0624,Peridotite_rect,9,0,9,0,1,
66058466b7348848934eec50,TCN,2024-06-11_19h10.59.555,LearnStrategy,2023.2.3,MacIntel,59.88023952,9,2,11,,,,,,,,7,12,,,,,,,,,,,5,1.513,0,,,,,,-0.354980875,-0.416901931,1,0,0,1.5129,Obsidian_rect,10,0,10,0,1,
66058466b7348848934eec50,TCN,2024-06-11_19h10.59.555,LearnStrategy,2023.2.3,MacIntel,59.88023952,9,2,12,,,,,,,,4,16,,,,,,,,,,,2,0.928,0,,,,,,-0.077510278,-0.245332665,1,0,0,0.9283,Basalt_rect,11,0,11,0,1,
66058466b7348848934eec50,TCN,2024-06-11_19h10.59.555,LearnStrategy,2023.2.3,MacIntel,59.88023952,9,2,13,,,,,,,,3,13,,,,,,,,,,,3,0.062,1,,,,,,0.107927638,-0.241475203,1,0,0,0.062,Diorite_rect,12,0,12,0,1,
66058466b7348848934eec50,TCN,2024-06-11_19h10.59.555,LearnStrategy,2023.2.3,MacIntel,59.88023952,9,2,14,,,,,,,,1,03,,,,,,,,,,,2,0.029,0,,,,,,-0.229749948,-0.240587271,1,0,0,0.0293,Basalt_rect,13,0,13,0,1,
66058466b7348848934eec50,TCN,2024-06-11_19h10.59.555,LearnStrategy,2023.2.3,MacIntel,59.88023952,9,2,15,,,,,,,,6,15,,,,,,,,,,,4,1.128,0,,,,,,0.368963364,-0.254904767,1,0,0,1.1283,Gabbro_rect,14,0,14,0,1,
66058466b7348848934eec50,TCN,2024-06-11_19h10.59.555,LearnStrategy,2023.2.3,MacIntel,59.88023952,9,2,16,,,,,,,,5,09,,,,,,,,,,,8,0.062,0,,,,,,0.356623387,-0.405257988,1,0,0,0.0622,Pumice_rect,15,0,15,0,1,
66058466b7348848934eec50,TCN,2024-06-11_19h10.59.555,LearnStrategy,2023.2.3,MacIntel,59.88023952,,,,,,,,,,,,,,,,,,,,,,,,,,,,,,,,,,,,,,,,,,,0
66058466b7348848934eec50,TCN,2024-06-11_19h10.59.555,LearnStrategy,2023.2.3,MacIntel,59.88023952,,,,,,,,,,,,,,,,,,,,,,,,,,,,,,,,,,,,,,,,,,,
66058466b7348848934eec50,TCN,2024-06-11_19h10.59.555,LearnStrategy,2023.2.3,MacIntel,59.88023952,,,,,,,,,,,2,01,1,1,,,,,,,,,,,,,,,,,,,,,,,,,,,,,
66058466b7348848934eec50,TCN,2024-06-11_19h10.59.555,LearnStrategy,2023.2.3,MacIntel,59.88023952,,,,,,,,,,,8,08,1,2,,,,,,,,,,,,,,,,,,,,,,,,,,,,,
66058466b7348848934eec50,TCN,2024-06-11_19h10.59.555,LearnStrategy,2023.2.3,MacIntel,59.88023952,,,,,,,,,,,5,08,1,3,,,,,,,,,,,,,,,,,,,,,,,,,,,,,
66058466b7348848934eec50,TCN,2024-06-11_19h10.59.555,LearnStrategy,2023.2.3,MacIntel,59.88023952,,,,,,,,,,,4,13,1,4,,,,,,,,,,,,,,,,,,,,,,,,,,,,,
66058466b7348848934eec50,TCN,2024-06-11_19h10.59.555,LearnStrategy,2023.2.3,MacIntel,59.88023952,,,,,,,,,,,4,01,1,5,,,,,,,,,,,,,,,,,,,,,,,,,,,,,
66058466b7348848934eec50,TCN,2024-06-11_19h10.59.555,LearnStrategy,2023.2.3,MacIntel,59.88023952,,,,,,,,,,,7,07,1,6,,,,,,,,,,,,,,,,,,,,,,,,,,,,,
66058466b7348848934eec50,TCN,2024-06-11_19h10.59.555,LearnStrategy,2023.2.3,MacIntel,59.88023952,,,,,,,,,,,7,02,1,7,,,,,,,,,,,,,,,,,,,,,,,,,,,,,
66058466b7348848934eec50,TCN,2024-06-11_19h10.59.555,LearnStrategy,2023.2.3,MacIntel,59.88023952,,,,,,,,,,,8,03,1,8,,,,,,,,,,,,,,,,,,,,,,,,,,,,,
66058466b7348848934eec50,TCN,2024-06-11_19h10.59.555,LearnStrategy,2023.2.3,MacIntel,59.88023952,,,,,,,,,,,2,12,2,1,,,,,,,,,,,,,,,,,,,,,,,,,,,,,
66058466b7348848934eec50,TCN,2024-06-11_19h10.59.555,LearnStrategy,2023.2.3,MacIntel,59.88023952,,,,,,,,,,,6,09,2,2,,,,,,,,,,,,,,,,,,,,,,,,,,,,,
66058466b7348848934eec50,TCN,2024-06-11_19h10.59.555,LearnStrategy,2023.2.3,MacIntel,59.88023952,,,,,,,,,,,6,03,2,3,,,,,,,,,,,,,,,,,,,,,,,,,,,,,
66058466b7348848934eec50,TCN,2024-06-11_19h10.59.555,LearnStrategy,2023.2.3,MacIntel,59.88023952,,,,,,,,,,,1,06,2,4,,,,,,,,,,,,,,,,,,,,,,,,,,,,,
66058466b7348848934eec50,TCN,2024-06-11_19h10.59.555,LearnStrategy,2023.2.3,MacIntel,59.88023952,,,,,,,,,,,1,14,2,5,,,,,,,,,,,,,,,,,,,,,,,,,,,,,
66058466b7348848934eec50,TCN,2024-06-11_19h10.59.555,LearnStrategy,2023.2.3,MacIntel,59.88023952,,,,,,,,,,,4,09,2,6,,,,,,,,,,,,,,,,,,,,,,,,,,,,,
66058466b7348848934eec50,TCN,2024-06-11_19h10.59.555,LearnStrategy,2023.2.3,MacIntel,59.88023952,,,,,,,,,,,2,14,2,7,,,,,,,,,,,,,,,,,,,,,,,,,,,,,
66058466b7348848934eec50,TCN,2024-06-11_19h10.59.555,LearnStrategy,2023.2.3,MacIntel,59.88023952,,,,,,,,,,,5,11,2,8,,,,,,,,,,,,,,,,,,,,,,,,,,,,,
66058466b7348848934eec50,TCN,2024-06-11_19h10.59.555,LearnStrategy,2023.2.3,MacIntel,59.88023952,,,,,,,,,,,1,11,3,1,,,,,,,,,,,,,,,,,,,,,,,,,,,,,
66058466b7348848934eec50,TCN,2024-06-11_19h10.59.555,LearnStrategy,2023.2.3,MacIntel,59.88023952,,,,,,,,,,,8,10,3,2,,,,,,,,,,,,,,,,,,,,,,,,,,,,,
66058466b7348848934eec50,TCN,2024-06-11_19h10.59.555,LearnStrategy,2023.2.3,MacIntel,59.88023952,,,,,,,,,,,6,08,3,3,,,,,,,,,,,,,,,,,,,,,,,,,,,,,
66058466b7348848934eec50,TCN,2024-06-11_19h10.59.555,LearnStrategy,2023.2.3,MacIntel,59.88023952,,,,,,,,,,,3,09,3,4,,,,,,,,,,,,,,,,,,,,,,,,,,,,,
66058466b7348848934eec50,TCN,2024-06-11_19h10.59.555,LearnStrategy,2023.2.3,MacIntel,59.88023952,,,,,,,,,,,5,05,3,5,,,,,,,,,,,,,,,,,,,,,,,,,,,,,
66058466b7348848934eec50,TCN,2024-06-11_19h10.59.555,LearnStrategy,2023.2.3,MacIntel,59.88023952,,,,,,,,,,,5,02,3,6,,,,,,,,,,,,,,,,,,,,,,,,,,,,,
66058466b7348848934eec50,TCN,2024-06-11_19h10.59.555,LearnStrategy,2023.2.3,MacIntel,59.88023952,,,,,,,,,,,6,16,3,7,,,,,,,,,,,,,,,,,,,,,,,,,,,,,
66058466b7348848934eec50,TCN,2024-06-11_19h10.59.555,LearnStrategy,2023.2.3,MacIntel,59.88023952,,,,,,,,,,,2,02,3,8,,,,,,,,,,,,,,,,,,,,,,,,,,,,,
66058466b7348848934eec50,TCN,2024-06-11_19h10.59.555,LearnStrategy,2023.2.3,MacIntel,59.88023952,,,,,,,,,,,8,06,4,1,,,,,,,,,,,,,,,,,,,,,,,,,,,,,
66058466b7348848934eec50,TCN,2024-06-11_19h10.59.555,LearnStrategy,2023.2.3,MacIntel,59.88023952,,,,,,,,,,,1,04,4,2,,,,,,,,,,,,,,,,,,,,,,,,,,,,,
66058466b7348848934eec50,TCN,2024-06-11_19h10.59.555,LearnStrategy,2023.2.3,MacIntel,59.88023952,,,,,,,,,,,8,09,4,3,,,,,,,,,,,,,,,,,,,,,,,,,,,,,
66058466b7348848934eec50,TCN,2024-06-11_19h10.59.555,LearnStrategy,2023.2.3,MacIntel,59.88023952,,,,,,,,,,,3,07,4,4,,,,,,,,,,,,,,,,,,,,,,,,,,,,,
66058466b7348848934eec50,TCN,2024-06-11_19h10.59.555,LearnStrategy,2023.2.3,MacIntel,59.88023952,,,,,,,,,,,7,05,4,5,,,,,,,,,,,,,,,,,,,,,,,,,,,,,
66058466b7348848934eec50,TCN,2024-06-11_19h10.59.555,LearnStrategy,2023.2.3,MacIntel,59.88023952,,,,,,,,,,,4,14,4,6,,,,,,,,,,,,,,,,,,,,,,,,,,,,,
66058466b7348848934eec50,TCN,2024-06-11_19h10.59.555,LearnStrategy,2023.2.3,MacIntel,59.88023952,,,,,,,,,,,4,12,4,7,,,,,,,,,,,,,,,,,,,,,,,,,,,,,
66058466b7348848934eec50,TCN,2024-06-11_19h10.59.555,LearnStrategy,2023.2.3,MacIntel,59.88023952,,,,,,,,,,,5,04,4,8,,,,,,,,,,,,,,,,,,,,,,,,,,,,,
66058466b7348848934eec50,TCN,2024-06-11_19h10.59.555,LearnStrategy,2023.2.3,MacIntel,59.88023952,,,,,,,,,,,6,07,5,1,,,,,,,,,,,,,,,,,,,,,,,,,,,,,
66058466b7348848934eec50,TCN,2024-06-11_19h10.59.555,LearnStrategy,2023.2.3,MacIntel,59.88023952,,,,,,,,,,,7,13,5,2,,,,,,,,,,,,,,,,,,,,,,,,,,,,,
66058466b7348848934eec50,TCN,2024-06-11_19h10.59.555,LearnStrategy,2023.2.3,MacIntel,59.88023952,,,,,,,,,,,4,11,5,3,,,,,,,,,,,,,,,,,,,,,,,,,,,,,
66058466b7348848934eec50,TCN,2024-06-11_19h10.59.555,LearnStrategy,2023.2.3,MacIntel,59.88023952,,,,,,,,,,,3,10,5,4,,,,,,,,,,,,,,,,,,,,,,,,,,,,,
66058466b7348848934eec50,TCN,2024-06-11_19h10.59.555,LearnStrategy,2023.2.3,MacIntel,59.88023952,,,,,,,,,,,7,06,5,5,,,,,,,,,,,,,,,,,,,,,,,,,,,,,
66058466b7348848934eec50,TCN,2024-06-11_19h10.59.555,LearnStrategy,2023.2.3,MacIntel,59.88023952,,,,,,,,,,,8,13,5,6,,,,,,,,,,,,,,,,,,,,,,,,,,,,,
66058466b7348848934eec50,TCN,2024-06-11_19h10.59.555,LearnStrategy,2023.2.3,MacIntel,59.88023952,,,,,,,,,,,1,05,5,7,,,,,,,,,,,,,,,,,,,,,,,,,,,,,
66058466b7348848934eec50,TCN,2024-06-11_19h10.59.555,LearnStrategy,2023.2.3,MacIntel,59.88023952,,,,,,,,,,,6,11,5,8,,,,,,,,,,,,,,,,,,,,,,,,,,,,,
66058466b7348848934eec50,TCN,2024-06-11_19h10.59.555,LearnStrategy,2023.2.3,MacIntel,59.88023952,,,,,,,,,,,5,14,6,1,,,,,,,,,,,,,,,,,,,,,,,,,,,,,
66058466b7348848934eec50,TCN,2024-06-11_19h10.59.555,LearnStrategy,2023.2.3,MacIntel,59.88023952,,,,,,,,,,,3,12,6,2,,,,,,,,,,,,,,,,,,,,,,,,,,,,,
66058466b7348848934eec50,TCN,2024-06-11_19h10.59.555,LearnStrategy,2023.2.3,MacIntel,59.88023952,,,,,,,,,,,3,16,6,3,,,,,,,,,,,,,,,,,,,,,,,,,,,,,
66058466b7348848934eec50,TCN,2024-06-11_19h10.59.555,LearnStrategy,2023.2.3,MacIntel,59.88023952,,,,,,,,,,,2,11,6,4,,,,,,,,,,,,,,,,,,,,,,,,,,,,,
66058466b7348848934eec50,TCN,2024-06-11_19h10.59.555,LearnStrategy,2023.2.3,MacIntel,59.88023952,,,,,,,,,,,7,08,6,5,,,,,,,,,,,,,,,,,,,,,,,,,,,,,
66058466b7348848934eec50,TCN,2024-06-11_19h10.59.555,LearnStrategy,2023.2.3,MacIntel,59.88023952,,,,,,,,,,,1,02,6,6,,,,,,,,,,,,,,,,,,,,,,,,,,,,,
66058466b7348848934eec50,TCN,2024-06-11_19h10.59.555,LearnStrategy,2023.2.3,MacIntel,59.88023952,,,,,,,,,,,3,02,6,7,,,,,,,,,,,,,,,,,,,,,,,,,,,,,
66058466b7348848934eec50,TCN,2024-06-11_19h10.59.555,LearnStrategy,2023.2.3,MacIntel,59.88023952,,,,,,,,,,,2,08,6,8,,,,,,,,,,,,,,,,,,,,,,,,,,,,,