participant,condition,date,expName,psychopyVersion,OS,frameRate,block,phase,trial,learn_mouse.x,learn_mouse.y,learn_mouse.leftButton,learn_mouse.midButton,learn_mouse.rightButton,learn_mouse.time,learn_mouse.clicked_name,cat,token,row,col,t_select,cat_mouse_l.x,cat_mouse_l.y,cat_mouse_l.leftButton,cat_mouse_l.midButton,cat_mouse_l.rightButton,cat_mouse_l.time,cat_mouse_l.clicked_name,resp,t_resp,corr,train_trials.thisRepN,train_trials.thisTrialN,train_trials.thisN,train_trials.thisIndex,train_trials.ran,cat_mouse_t.x,cat_mouse_t.y,cat_mouse_t.leftButton,cat_mouse_t.midButton,cat_mouse_t.rightButton,cat_mouse_t.time,cat_mouse_t.clicked_name,test_trials.thisRepN,test_trials.thisTrialN,test_trials.thisN,test_trials.thisIndex,test_trials.ran,Bonus
66060f19dda14ccd05dfcef9,SCN,2024-06-21_10h47.25.031,LearnStrategy,2023.2.3,Win32,59.88023952,,,,,,,,,,,,,,,,,,,,,,,,,,,,,,,,,,,,,,,,,,,
66060f19dda14ccd05dfcef9,SCN,2024-06-21_10h47.25.031,LearnStrategy,2023.2.3,Win32,59.88023952,1,1,1,-0.073148148,0.100925926,1,0,0,2.6998,Obsidian_07,5,07,4,4,2.7,0.137037037,-0.262037037,1,0,0,3.1787,Diorite_rect,3,3.179,0,0,0,0,0,1,,,,,,,,,,,,,
66060f19dda14ccd05dfcef9,SCN,2024-06-21_10h47.25.031,LearnStrategy,2023.2.3,Win32,59.88023952,1,1,2,-0.077777778,-0.251851852,1,0,0,1.5831,Pegmatite_16,6,16,2,4,1.583,-0.063888889,-0.24537037,1,0,0,1.2463,Basalt_rect,2,1.246,0,1,0,1,0,1,,,,,,,,,,,,,
66060f19dda14ccd05dfcef9,SCN,2024-06-21_10h47.25.031,LearnStrategy,2023.2.3,Win32,59.88023952,1,1,3,0.408333333,0.093518519,1,0,0,2.1848,Basalt_02,2,02,4,7,2.185,-0.341666667,-0.262962963,1,0,0,3.9095,Andesite_rect,1,3.91,0,2,0,2,0,1,,,,,,,,,,,,,
66060f19dda14ccd05dfcef9,SCN,2024-06-21_10h47.25.031,LearnStrategy,2023.2.3,Win32,59.88023952,1,1,4,-0.541666667,0.082407407,1,0,0,2.984,Diorite_02,3,02,4,1,2.984,-0.316666667,-0.394444444,1,0,0,3.045,Obsidian_rect,5,3.045,0,3,0,3,0,1,,,,,,,,,,,,,
66060f19dda14ccd05dfcef9,SCN,2024-06-21_10h47.25.031,LearnStrategy,2023.2.3,Win32,59.88023952,1,1,5,0.075925926,0.083333333,1,0,0,1.4324,Basalt_16,2,16,4,5,1.432,0.385185185,-0.392592593,1,0,0,1.2986,Pumice_rect,8,1.299,0,4,0,4,0,1,,,,,,,,,,,,,
66060f19dda14ccd05dfcef9,SCN,2024-06-21_10h47.25.031,LearnStrategy,2023.2.3,Win32,59.88023952,1,1,6,-0.257407407,0.406481481,1,0,0,2.5167,Obsidian_09,5,09,6,3,2.517,-0.398148148,-0.403703704,1,0,0,1.2876,Obsidian_rect,5,1.288,1,5,0,5,0,1,,,,,,,,,,,,,
66060f19dda14ccd05dfcef9,SCN,2024-06-21_10h47.25.031,LearnStrategy,2023.2.3,Win32,59.88023952,1,1,7,0.252777778,0.087962963,1,0,0,2.1179,Pumice_02,8,02,4,6,2.118,0.462962963,-0.390740741,1,0,0,2.211,Pumice_rect,8,2.211,1,6,0,6,0,1,,,,,,,,,,,,,
66060f19dda14ccd05dfcef9,SCN,2024-06-21_10h47.25.031,LearnStrategy,2023.2.3,Win32,59.88023952,1,1,8,-0.244444444,-0.405555556,1,0,0,2.5333,Pegmatite_09,6,09,1,3,2.533,0.107407407,-0.391666667,1,0,0,2.1937,Peridotite_rect,7,2.194,0,7,0,7,0,1,,,,,,,,,,,,,
66060f19dda14ccd05dfcef9,SCN,2024-06-21_10h47.25.031,LearnStrategy,2023.2.3,Win32,59.88023952,1,1,9,0.389814815,0.4,1,0,0,2.6169,Diorite_15,3,15,6,7,2.617,-0.122222222,-0.238888889,1,0,0,2.5282,Basalt_rect,2,2.528,0,8,0,8,0,1,,,,,,,,,,,,,
66060f19dda14ccd05dfcef9,SCN,2024-06-21_10h47.25.031,LearnStrategy,2023.2.3,Win32,59.88023952,1,1,10,-0.539814815,0.248148148,1,0,0,2.8345,Andesite_05,1,05,5,1,2.834,-0.108333333,-0.251851852,1,0,0,1.3258,Basalt_rect,2,1.326,0,9,0,9,0,1,,,,,,,,,,,,,
66060f19dda14ccd05dfcef9,SCN,2024-06-21_10h47.25.031,LearnStrategy,2023.2.3,Win32,59.88023952,1,1,11,-0.22037037,-0.437037037,1,0,0,1.2663,Pegmatite_09,6,09,1,3,1.266,-0.114814815,-0.400925926,1,0,0,2.1926,Pegmatite_rect,6,2.193,1,10,0,10,0,1,,,,,,,,,,,,,
66060f19dda14ccd05dfcef9,SCN,2024-06-21_10h47.25.031,LearnStrategy,2023.2.3,Win32,59.88023952,1,1,12,-0.400925926,0.090740741,1,0,0,2.648,Gabbro_09,4,09,4,2,2.648,0.109259259,-0.252777778,1,0,0,2.402,Diorite_rect,3,2.402,0,11,0,11,0,1,,,,,,,,,,,,,
66060f19dda14ccd05dfcef9,SCN,2024-06-21_10h47.25.031,LearnStrategy,2023.2.3,Win32,59.88023952,1,1,13,0.387962963,-0.4,1,0,0,2.1307,Diorite_08,3,08,1,7,2.131,-0.386111111,-0.240740741,1,0,0,2.1462,Andesite_rect,1,2.146,0,12,0,12,0,1,,,,,,,,,,,,,
66060f19dda14ccd05dfcef9,SCN,2024-06-21_10h47.25.031,LearnStrategy,2023.2.3,Win32,59.88023952,1,1,14,-0.386111111,0.257407407,1,0,0,1.6636,Peridotite_06,7,06,5,2,1.664,-0.137962963,-0.237962963,1,0,0,1.6928,Basalt_rect,2,1.693,0,13,0,13,0,1,,,,,,,,,,,,,
66060f19dda14ccd05dfcef9,SCN,2024-06-21_10h47.25.031,LearnStrategy,2023.2.3,Win32,59.88023952,1,1,15,0.249074074,0.265740741,1,0,0,4.0819,Pumice_09,8,09,5,6,4.082,0.378703704,-0.403703704,1,0,0,1.321,Pumice_rect,8,1.321,1,14,0,14,0,1,,,,,,,,,,,,,
66060f19dda14ccd05dfcef9,SCN,2024-06-21_10h47.25.031,LearnStrategy,2023.2.3,Win32,59.88023952,1,1,16,0.075925926,0.423148148,1,0,0,2.5144,Obsidian_16,5,16,6,5,2.514,-0.408333333,-0.405555556,1,0,0,1.4939,Obsidian_rect,5,1.494,1,15,0,15,0,1,,,,,,,,,,,,,
66060f19dda14ccd05dfcef9,SCN,2024-06-21_10h47.25.031,LearnStrategy,2023.2.3,Win32,59.88023952,1,2,1,,,,,,,,1,07,,,,,,,,,,,3,3.642,0,,,,,,0.146296296,-0.247222222,1,0,0,3.6421,Diorite_rect,0,0,0,0,1,
66060f19dda14ccd05dfcef9,SCN,2024-06-21_10h47.25.031,LearnStrategy,2023.2.3,Win32,59.88023952,1,2,2,,,,,,,,6,10,,,,,,,,,,,2,3.526,0,,,,,,-0.161111111,-0.240740741,1,0,0,3.5257,Basalt_rect,1,0,1,0,1,
66060f19dda14ccd05dfcef9,SCN,2024-06-21_10h47.25.031,LearnStrategy,2023.2.3,Win32,59.88023952,1,2,3,,,,,,,,2,01,,,,,,,,,,,2,4.725,1,,,,,,-0.148148148,-0.248148148,1,0,0,4.7251,Basalt_rect,2,0,2,0,1,
66060f19dda14ccd05dfcef9,SCN,2024-06-21_10h47.25.031,LearnStrategy,2023.2.3,Win32,59.88023952,1,2,4,,,,,,,,7,16,,,,,,,,,,,7,2.377,1,,,,,,0.100925926,-0.405555556,1,0,0,2.3766,Peridotite_rect,3,0,3,0,1,
66060f19dda14ccd05dfcef9,SCN,2024-06-21_10h47.25.031,LearnStrategy,2023.2.3,Win32,59.88023952,1,2,5,,,,,,,,3,11,,,,,,,,,,,1,4.359,0,,,,,,-0.310185185,-0.251851852,1,0,0,4.359,Andesite_rect,4,0,4,0,1,
66060f19dda14ccd05dfcef9,SCN,2024-06-21_10h47.25.031,LearnStrategy,2023.2.3,Win32,59.88023952,1,2,6,,,,,,,,8,08,,,,,,,,,,,8,1.577,1,,,,,,0.446296296,-0.415740741,1,0,0,1.5767,Pumice_rect,5,0,5,0,1,
66060f19dda14ccd05dfcef9,SCN,2024-06-21_10h47.25.031,LearnStrategy,2023.2.3,Win32,59.88023952,1,2,7,,,,,,,,2,09,,,,,,,,,,,2,2.593,1,,,,,,-0.112962963,-0.24537037,1,0,0,2.5931,Basalt_rect,6,0,6,0,1,
66060f19dda14ccd05dfcef9,SCN,2024-06-21_10h47.25.031,LearnStrategy,2023.2.3,Win32,59.88023952,1,2,8,,,,,,,,1,03,,,,,,,,,,,7,2.627,0,,,,,,0.127777778,-0.390740741,1,0,0,2.6273,Peridotite_rect,7,0,7,0,1,
66060f19dda14ccd05dfcef9,SCN,2024-06-21_10h47.25.031,LearnStrategy,2023.2.3,Win32,59.88023952,1,2,9,,,,,,,,5,08,,,,,,,,,,,5,1.594,1,,,,,,-0.376851852,-0.398148148,1,0,0,1.5937,Obsidian_rect,8,0,8,0,1,
66060f19dda14ccd05dfcef9,SCN,2024-06-21_10h47.25.031,LearnStrategy,2023.2.3,Win32,59.88023952,1,2,10,,,,,,,,3,06,,,,,,,,,,,3,15.264,1,,,,,,0.181481481,-0.255555556,1,0,0,15.2638,Diorite_rect,9,0,9,0,1,
66060f19dda14ccd05dfcef9,SCN,2024-06-21_10h47.25.031,LearnStrategy,2023.2.3,Win32,59.88023952,1,2,11,,,,,,,,4,13,,,,,,,,,,,2,3.928,0,,,,,,-0.077777778,-0.250925926,1,0,0,3.9281,Basalt_rect,10,0,10,0,1,
66060f19dda14ccd05dfcef9,SCN,2024-06-21_10h47.25.031,LearnStrategy,2023.2.3,Win32,59.88023952,1,2,12,,,,,,,,8,04,,,,,,,,,,,8,1.142,1,,,,,,0.473148148,-0.4,1,0,0,1.1419,Pumice_rect,11,0,11,0,1,
66060f19dda14ccd05dfcef9,SCN,2024-06-21_10h47.25.031,LearnStrategy,2023.2.3,Win32,59.88023952,1,2,13,,,,,,,,6,15,,,,,,,,,,,6,5.942,1,,,,,,-0.072222222,-0.389814815,1,0,0,5.9422,Pegmatite_rect,12,0,12,0,1,
66060f19dda14ccd05dfcef9,SCN,2024-06-21_10h47.25.031,LearnStrategy,2023.2.3,Win32,59.88023952,1,2,14,,,,,,,,4,12,,,,,,,,,,,1,8.411,0,,,,,,-0.356481481,-0.25462963,1,0,0,8.4106,Andesite_rect,13,0,13,0,1,
66060f19dda14ccd05dfcef9,SCN,2024-06-21_10h47.25.031,LearnStrategy,2023.2.3,Win32,59.88023952,1,2,15,,,,,,,,5,06,,,,,,,,,,,5,1.341,1,,,,,,-0.412037037,-0.398148148,1,0,0,1.3412,Obsidian_rect,14,0,14,0,1,
66060f19dda14ccd05dfcef9,SCN,2024-06-21_10h47.25.031,LearnStrategy,2023.2.3,Win32,59.88023952,1,2,16,,,,,,,,7,02,,,,,,,,,,,3,3.692,0,,,,,,0.133333333,-0.249074074,1,0,0,3.6923,Diorite_rect,15,0,15,0,1,
66060f19dda14ccd05dfcef9,SCN,2024-06-21_10h47.25.031,LearnStrategy,2023.2.3,Win32,59.88023952,2,1,1,-0.235185185,0.427777778,1,0,0,2.9663,Obsidian_09,5,09,6,3,2.966,-0.401851852,-0.412962963,1,0,0,1.3609,Obsidian_rect,5,1.361,1,0,0,0,0,1,,,,,,,,,,,,,
66060f19dda14ccd05dfcef9,SCN,2024-06-21_10h47.25.031,LearnStrategy,2023.2.3,Win32,59.88023952,2,1,2,-0.246296296,-0.275925926,1,0,0,2.6165,Obsidian_05,5,05,2,3,2.616,-0.350925926,-0.403703704,1,0,0,1.5722,Obsidian_rect,5,1.572,1,1,0,1,0,1,,,,,,,,,,,,,
66060f19dda14ccd05dfcef9,SCN,2024-06-21_10h47.25.031,LearnStrategy,2023.2.3,Win32,59.88023952,2,1,3,0.098148148,-0.098148148,1,0,0,1.2497,Gabbro_03,4,03,3,5,1.25,-0.150925926,-0.241666667,1,0,0,1.3435,Basalt_rect,2,1.344,0,2,0,2,0,1,,,,,,,,,,,,,
66060f19dda14ccd05dfcef9,SCN,2024-06-21_10h47.25.031,LearnStrategy,2023.2.3,Win32,59.88023952,2,1,4,0.414814815,-0.077777778,1,0,0,1.3644,Pegmatite_08,6,08,3,7,1.364,-0.10462963,-0.244444444,1,0,0,1.6944,Basalt_rect,2,1.694,0,3,0,3,0,1,,,,,,,,,,,,,
66060f19dda14ccd05dfcef9,SCN,2024-06-21_10h47.25.031,LearnStrategy,2023.2.3,Win32,59.88023952,2,1,5,0.549074074,-0.415740741,1,0,0,1.0131,Diorite_10,3,10,1,8,1.013,0.139814815,-0.246296296,1,0,0,2.6774,Diorite_rect,3,2.677,1,4,0,4,0,1,,,,,,,,,,,,,
66060f19dda14ccd05dfcef9,SCN,2024-06-21_10h47.25.031,LearnStrategy,2023.2.3,Win32,59.88023952,2,1,6,-0.253703704,0.087037037,1,0,0,1.5144,Diorite_12,3,12,4,3,1.514,0.138888889,-0.391666667,1,0,0,2.294,Peridotite_rect,7,2.294,0,5,0,5,0,1,,,,,,,,,,,,,
66060f19dda14ccd05dfcef9,SCN,2024-06-21_10h47.25.031,LearnStrategy,2023.2.3,Win32,59.88023952,2,1,7,-0.213888889,0.240740741,1,0,0,4.1477,Andesite_01,1,01,5,3,4.148,-0.125,-0.403703704,1,0,0,2.0051,Pegmatite_rect,6,2.005,0,6,0,6,0,1,,,,,,,,,,,,,
66060f19dda14ccd05dfcef9,SCN,2024-06-21_10h47.25.031,LearnStrategy,2023.2.3,Win32,59.88023952,2,1,8,-0.37037037,-0.425925926,1,0,0,1.9304,Basalt_11,2,11,1,2,1.93,0.384259259,-0.391666667,1,0,0,1.3462,Pumice_rect,8,1.346,0,7,0,7,0,1,,,,,,,,,,,,,
66060f19dda14ccd05dfcef9,SCN,2024-06-21_10h47.25.031,LearnStrategy,2023.2.3,Win32,59.88023952,2,1,9,0.543518519,-0.242592593,1,0,0,2.9979,Peridotite_12,7,12,2,8,2.998,0.124074074,-0.264814815,1,0,0,2.0731,Diorite_rect,3,2.073,0,8,0,8,0,1,,,,,,,,,,,,,
66060f19dda14ccd05dfcef9,SCN,2024-06-21_10h47.25.031,LearnStrategy,2023.2.3,Win32,59.88023952,2,1,10,-0.539814815,0.39537037,1,0,0,2.1813,Pegmatite_12,6,12,6,1,2.181,-0.07962963,-0.243518519,1,0,0,1.4882,Basalt_rect,2,1.488,0,9,0,9,0,1,,,,,,,,,,,,,
66060f19dda14ccd05dfcef9,SCN,2024-06-21_10h47.25.031,LearnStrategy,2023.2.3,Win32,59.88023952,2,1,11,0.546296296,0.109259259,1,0,0,2.3639,Pumice_15,8,15,4,8,2.364,0.407407407,-0.416666667,1,0,0,1.1952,Pumice_rect,8,1.195,1,10,0,10,0,1,,,,,,,,,,,,,
66060f19dda14ccd05dfcef9,SCN,2024-06-21_10h47.25.031,LearnStrategy,2023.2.3,Win32,59.88023952,2,1,12,-0.069444444,-0.247222222,1,0,0,1.6808,Pegmatite_16,6,16,2,4,1.681,0.089814815,-0.250925926,1,0,0,2.2603,Diorite_rect,3,2.26,0,11,0,11,0,1,,,,,,,,,,,,,
66060f19dda14ccd05dfcef9,SCN,2024-06-21_10h47.25.031,LearnStrategy,2023.2.3,Win32,59.88023952,2,1,13,-0.392592593,0.089814815,1,0,0,2.6303,Gabbro_09,4,09,4,2,2.63,0.350925926,-0.244444444,1,0,0,3.026,Gabbro_rect,4,3.026,1,12,0,12,0,1,,,,,,,,,,,,,
66060f19dda14ccd05dfcef9,SCN,2024-06-21_10h47.25.031,LearnStrategy,2023.2.3,Win32,59.88023952,2,1,14,-0.224074074,0.112037037,1,0,0,2.0305,Diorite_12,3,12,4,3,2.031,-0.123148148,-0.389814815,1,0,0,1.9092,Pegmatite_rect,6,1.909,0,13,0,13,0,1,,,,,,,,,,,,,
66060f19dda14ccd05dfcef9,SCN,2024-06-21_10h47.25.031,LearnStrategy,2023.2.3,Win32,59.88023952,2,1,15,-0.062962963,-0.402777778,1,0,0,2.2476,Peridotite_07,7,07,1,4,2.248,-0.159259259,-0.253703704,1,0,0,1.1758,Basalt_rect,2,1.176,0,14,0,14,0,1,,,,,,,,,,,,,
66060f19dda14ccd05dfcef9,SCN,2024-06-21_10h47.25.031,LearnStrategy,2023.2.3,Win32,59.88023952,2,1,16,0.253703704,-0.085185185,1,0,0,1.764,Basalt_04,2,04,3,6,1.764,-0.04537037,-0.236111111,1,0,0,1.2609,Basalt_rect,2,1.261,1,15,0,15,0,1,,,,,,,,,,,,,
66060f19dda14ccd05dfcef9,SCN,2024-06-21_10h47.25.031,LearnStrategy,2023.2.3,Win32,59.88023952,2,2,1,,,,,,,,8,06,,,,,,,,,,,8,15.293,1,,,,,,0.405555556,-0.399074074,1,0,0,15.2932,Pumice_rect,0,0,0,0,1,
66060f19dda14ccd05dfcef9,SCN,2024-06-21_10h47.25.031,LearnStrategy,2023.2.3,Win32,59.88023952,2,2,2,,,,,,,,1,10,,,,,,,,,,,3,4.593,0,,,,,,0.17037037,-0.253703704,1,0,0,4.5932,Diorite_rect,1,0,1,0,1,
66060f19dda14ccd05dfcef9,SCN,2024-06-21_10h47.25.031,LearnStrategy,2023.2.3,Win32,59.88023952,2,2,3,,,,,,,,6,06,,,,,,,,,,,3,5.063,0,,,,,,0.185185185,-0.263888889,1,0,0,5.0626,Diorite_rect,2,0,2,0,1,
66060f19dda14ccd05dfcef9,SCN,2024-06-21_10h47.25.031,LearnStrategy,2023.2.3,Win32,59.88023952,2,2,4,,,,,,,,3,16,,,,,,,,,,,6,5.54,0,,,,,,-0.059259259,-0.392592593,1,0,0,5.5404,Pegmatite_rect,3,0,3,0,1,
66060f19dda14ccd05dfcef9,SCN,2024-06-21_10h47.25.031,LearnStrategy,2023.2.3,Win32,59.88023952,2,2,5,,,,,,,,8,10,,,,,,,,,,,8,1.475,1,,,,,,0.406481481,-0.397222222,1,0,0,1.475,Pumice_rect,4,0,4,0,1,
66060f19dda14ccd05dfcef9,SCN,2024-06-21_10h47.25.031,LearnStrategy,2023.2.3,Win32,59.88023952,2,2,6,,,,,,,,4,01,,,,,,,,,,,7,6.159,0,,,,,,0.096296296,-0.402777778,1,0,0,6.1589,Peridotite_rect,5,0,5,0,1,
66060f19dda14ccd05dfcef9,SCN,2024-06-21_10h47.25.031,LearnStrategy,2023.2.3,Win32,59.88023952,2,2,7,,,,,,,,6,03,,,,,,,,,,,7,2.76,0,,,,,,0.133333333,-0.403703704,1,0,0,2.7602,Peridotite_rect,6,0,6,0,1,
66060f19dda14ccd05dfcef9,SCN,2024-06-21_10h47.25.031,LearnStrategy,2023.2.3,Win32,59.88023952,2,2,8,,,,,,,,3,07,,,,,,,,,,,3,5.693,1,,,,,,0.080555556,-0.259259259,1,0,0,5.693,Diorite_rect,7,0,7,0,1,
66060f19dda14ccd05dfcef9,SCN,2024-06-21_10h47.25.031,LearnStrategy,2023.2.3,Win32,59.88023952,2,2,9,,,,,,,,2,05,,,,,,,,,,,2,15.942,1,,,,,,-0.137037037,-0.259259259,1,0,0,15.9419,Basalt_rect,8,0,8,0,1,
66060f19dda14ccd05dfcef9,SCN,2024-06-21_10h47.25.031,LearnStrategy,2023.2.3,Win32,59.88023952,2,2,10,,,,,,,,5,02,,,,,,,,,,,5,1.607,1,,,,,,-0.423148148,-0.401851852,1,0,0,1.6073,Obsidian_rect,9,0,9,0,1,
66060f19dda14ccd05dfcef9,SCN,2024-06-21_10h47.25.031,LearnStrategy,2023.2.3,Win32,59.88023952,2,2,11,,,,,,,,7,13,,,,,,,,,,,6,3.893,0,,,,,,-0.049074074,-0.413888889,1,0,0,3.8928,Pegmatite_rect,10,0,10,0,1,
66060f19dda14ccd05dfcef9,SCN,2024-06-21_10h47.25.031,LearnStrategy,2023.2.3,Win32,59.88023952,2,2,12,,,,,,,,7,08,,,,,,,,,,,7,2.977,1,,,,,,0.163888889,-0.397222222,1,0,0,2.9773,Peridotite_rect,11,0,11,0,1,
66060f19dda14ccd05dfcef9,SCN,2024-06-21_10h47.25.031,LearnStrategy,2023.2.3,Win32,59.88023952,2,2,13,,,,,,,,5,11,,,,,,,,,,,5,2.625,1,,,,,,-0.442592593,-0.40462963,1,0,0,2.6254,Obsidian_rect,12,0,12,0,1,
66060f19dda14ccd05dfcef9,SCN,2024-06-21_10h47.25.031,LearnStrategy,2023.2.3,Win32,59.88023952,2,2,14,,,,,,,,1,14,,,,,,,,,,,1,5.191,1,,,,,,-0.372222222,-0.265740741,1,0,0,5.1906,Andesite_rect,13,0,13,0,1,
66060f19dda14ccd05dfcef9,SCN,2024-06-21_10h47.25.031,LearnStrategy,2023.2.3,Win32,59.88023952,2,2,15,,,,,,,,4,14,,,,,,,,,,,2,17.108,0,,,,,,-0.107407407,-0.253703704,1,0,0,17.1077,Basalt_rect,14,0,14,0,1,
66060f19dda14ccd05dfcef9,SCN,2024-06-21_10h47.25.031,LearnStrategy,2023.2.3,Win32,59.88023952,2,2,16,,,,,,,,2,14,,,,,,,,,,,8,1.71,0,,,,,,0.450925926,-0.417592593,1,0,0,1.7097,Pumice_rect,15,0,15,0,1,
66060f19dda14ccd05dfcef9,SCN,2024-06-21_10h47.25.031,LearnStrategy,2023.2.3,Win32,59.88023952,3,1,1,0.578703704,0.233333333,1,0,0,2.8137,Gabbro_05,4,05,5,8,2.814,-0.065740741,-0.238888889,1,0,0,2.6291,Basalt_rect,2,2.629,0,0,0,0,0,1,,,,,,,,,,,,,
66060f19dda14ccd05dfcef9,SCN,2024-06-21_10h47.25.031,LearnStrategy,2023.2.3,Win32,59.88023952,3,1,2,-0.077777778,-0.236111111,1,0,0,2.1159,Pegmatite_16,6,16,2,4,2.116,0.15462963,-0.257407407,1,0,0,1.4599,Diorite_rect,3,1.46,0,1,0,1,0,1,,,,,,,,,,,,,
66060f19dda14ccd05dfcef9,SCN,2024-06-21_10h47.25.031,LearnStrategy,2023.2.3,Win32,59.88023952,3,1,3,0.412037037,-0.258333333,1,0,0,1.8148,Diorite_13,3,13,2,7,1.815,0.149074074,-0.398148148,1,0,0,2.2101,Peridotite_rect,7,2.21,0,2,0,2,0,1,,,,,,,,,,,,,
66060f19dda14ccd05dfcef9,SCN,2024-06-21_10h47.25.031,LearnStrategy,2023.2.3,Win32,59.88023952,3,1,4,-0.235185185,-0.093518519,1,0,0,2.0802,Obsidian_10,5,10,3,3,2.08,0.436111111,-0.247222222,1,0,0,2.41,Gabbro_rect,4,2.41,0,3,0,3,0,1,,,,,,,,,,,,,
66060f19dda14ccd05dfcef9,SCN,2024-06-21_10h47.25.031,LearnStrategy,2023.2.3,Win32,59.88023952,3,1,5,-0.571296296,0.090740741,1,0,0,1.0632,Diorite_02,3,02,4,1,1.063,0.112962963,-0.260185185,1,0,0,1.978,Diorite_rect,3,1.978,1,4,0,4,0,1,,,,,,,,,,,,,
66060f19dda14ccd05dfcef9,SCN,2024-06-21_10h47.25.031,LearnStrategy,2023.2.3,Win32,59.88023952,3,1,6,0.081481481,0.106481481,1,0,0,1.563,Basalt_16,2,16,4,5,1.563,-0.180555556,-0.24537037,1,0,0,2.1959,Basalt_rect,2,2.196,1,5,0,5,0,1,,,,,,,,,,,,,
66060f19dda14ccd05dfcef9,SCN,2024-06-21_10h47.25.031,LearnStrategy,2023.2.3,Win32,59.88023952,3,1,7,-0.234259259,0.252777778,1,0,0,1.796,Andesite_01,1,01,5,3,1.796,0.380555556,-0.232407407,1,0,0,1.8447,Gabbro_rect,4,1.845,0,6,0,6,0,1,,,,,,,,,,,,,
66060f19dda14ccd05dfcef9,SCN,2024-06-21_10h47.25.031,LearnStrategy,2023.2.3,Win32,59.88023952,3,1,8,-0.380555556,-0.431481481,1,0,0,1.3629,Basalt_11,2,11,1,2,1.363,-0.137037037,-0.401851852,1,0,0,2.5096,Pegmatite_rect,6,2.51,0,7,0,7,0,1,,,,,,,,,,,,,
66060f19dda14ccd05dfcef9,SCN,2024-06-21_10h47.25.031,LearnStrategy,2023.2.3,Win32,59.88023952,3,1,9,-0.513888889,0.103703704,1,0,0,2.4641,Diorite_02,3,02,4,1,2.464,-0.342592593,-0.388888889,1,0,0,2.0603,Obsidian_rect,5,2.06,0,8,0,8,0,1,,,,,,,,,,,,,
66060f19dda14ccd05dfcef9,SCN,2024-06-21_10h47.25.031,LearnStrategy,2023.2.3,Win32,59.88023952,3,1,10,0.255555556,-0.398148148,1,0,0,0.9642,Gabbro_16,4,16,1,6,0.964,-0.181481481,-0.240740741,1,0,0,4.7764,Basalt_rect,2,4.776,0,9,0,9,0,1,,,,,,,,,,,,,
66060f19dda14ccd05dfcef9,SCN,2024-06-21_10h47.25.031,LearnStrategy,2023.2.3,Win32,59.88023952,3,1,11,0.242592593,0.116666667,1,0,0,2.8961,Pumice_02,8,02,4,6,2.896,0.388888889,-0.405555556,1,0,0,1.4447,Pumice_rect,8,1.445,1,10,0,10,0,1,,,,,,,,,,,,,
66060f19dda14ccd05dfcef9,SCN,2024-06-21_10h47.25.031,LearnStrategy,2023.2.3,Win32,59.88023952,3,1,12,0.090740741,-0.098148148,1,0,0,3.1152,Gabbro_03,4,03,3,5,3.115,-0.166666667,-0.239814815,1,0,0,1.36,Basalt_rect,2,1.36,0,11,0,11,0,1,,,,,,,,,,,,,
66060f19dda14ccd05dfcef9,SCN,2024-06-21_10h47.25.031,LearnStrategy,2023.2.3,Win32,59.88023952,3,1,13,-0.551851852,-0.42962963,1,0,0,1.031,Andesite_09,1,09,1,1,1.031,-0.147222222,-0.244444444,1,0,0,1.3441,Basalt_rect,2,1.344,0,12,0,12,0,1,,,,,,,,,,,,,
66060f19dda14ccd05dfcef9,SCN,2024-06-21_10h47.25.031,LearnStrategy,2023.2.3,Win32,59.88023952,3,1,14,-0.524074074,0.088888889,1,0,0,1.8152,Diorite_02,3,02,4,1,1.815,-0.12037037,-0.394444444,1,0,0,1.5934,Pegmatite_rect,6,1.593,0,13,0,13,0,1,,,,,,,,,,,,,
66060f19dda14ccd05dfcef9,SCN,2024-06-21_10h47.25.031,LearnStrategy,2023.2.3,Win32,59.88023952,3,1,15,-0.387037037,0.261111111,1,0,0,2.0655,Peridotite_06,7,06,5,2,2.065,0.158333333,-0.394444444,1,0,0,1.559,Peridotite_rect,7,1.559,1,14,0,14,0,1,,,,,,,,,,,,,
66060f19dda14ccd05dfcef9,SCN,2024-06-21_10h47.25.031,LearnStrategy,2023.2.3,Win32,59.88023952,3,1,16,0.580555556,0.123148148,1,0,0,1.331,Pumice_15,8,15,4,8,1.331,0.436111111,-0.412962963,1,0,0,0.8766,Pumice_rect,8,0.877,1,15,0,15,0,1,,,,,,,,,,,,,
66060f19dda14ccd05dfcef9,SCN,2024-06-21_10h47.25.031,LearnStrategy,2023.2.3,Win32,59.88023952,3,2,1,,,,,,,,6,11,,,,,,,,,,,3,8.33,0,,,,,,0.12962963,-0.253703704,1,0,0,8.3303,Diorite_rect,0,0,0,0,1,
66060f19dda14ccd05dfcef9,SCN,2024-06-21_10h47.25.031,LearnStrategy,2023.2.3,Win32,59.88023952,3,2,2,,,,,,,,3,14,,,,,,,,,,,4,7.18,0,,,,,,0.359259259,-0.25462963,1,0,0,7.1802,Gabbro_rect,1,0,1,0,1,
66060f19dda14ccd05dfcef9,SCN,2024-06-21_10h47.25.031,LearnStrategy,2023.2.3,Win32,59.88023952,3,2,3,,,,,,,,5,14,,,,,,,,,,,5,1.626,1,,,,,,-0.350925926,-0.419444444,1,0,0,1.6264,Obsidian_rect,2,0,2,0,1,
66060f19dda14ccd05dfcef9,SCN,2024-06-21_10h47.25.031,LearnStrategy,2023.2.3,Win32,59.88023952,3,2,4,,,,,,,,5,12,,,,,,,,,,,5,1.245,1,,,,,,-0.412962963,-0.402777778,1,0,0,1.2452,Obsidian_rect,3,0,3,0,1,
66060f19dda14ccd05dfcef9,SCN,2024-06-21_10h47.25.031,LearnStrategy,2023.2.3,Win32,59.88023952,3,2,5,,,,,,,,3,09,,,,,,,,,,,6,4.526,0,,,,,,-0.093518519,-0.399074074,1,0,0,4.5255,Pegmatite_rect,4,0,4,0,1,
66060f19dda14ccd05dfcef9,SCN,2024-06-21_10h47.25.031,LearnStrategy,2023.2.3,Win32,59.88023952,3,2,6,,,,,,,,4,11,,,,,,,,,,,2,10.892,0,,,,,,-0.15462963,-0.261111111,1,0,0,10.8923,Basalt_rect,5,0,5,0,1,
66060f19dda14ccd05dfcef9,SCN,2024-06-21_10h47.25.031,LearnStrategy,2023.2.3,Win32,59.88023952,3,2,7,,,,,,,,1,16,,,,,,,,,,,3,5.726,0,,,,,,0.118518519,-0.264814815,1,0,0,5.7257,Diorite_rect,6,0,6,0,1,
66060f19dda14ccd05dfcef9,SCN,2024-06-21_10h47.25.031,LearnStrategy,2023.2.3,Win32,59.88023952,3,2,8,,,,,,,,6,13,,,,,,,,,,,6,3.491,1,,,,,,-0.090740741,-0.412037037,1,0,0,3.491,Pegmatite_rect,7,0,7,0,1,
66060f19dda14ccd05dfcef9,SCN,2024-06-21_10h47.25.031,LearnStrategy,2023.2.3,Win32,59.88023952,3,2,9,,,,,,,,2,08,,,,,,,,,,,2,13.258,1,,,,,,-0.049074074,-0.24537037,1,0,0,13.2575,Basalt_rect,8,0,8,0,1,
66060f19dda14ccd05dfcef9,SCN,2024-06-21_10h47.25.031,LearnStrategy,2023.2.3,Win32,59.88023952,3,2,10,,,,,,,,2,06,,,,,,,,,,,2,1.325,1,,,,,,-0.083333333,-0.238888889,1,0,0,1.3245,Basalt_rect,9,0,9,0,1,
66060f19dda14ccd05dfcef9,SCN,2024-06-21_10h47.25.031,LearnStrategy,2023.2.3,Win32,59.88023952,3,2,11,,,,,,,,8,14,,,,,,,,,,,8,1.476,1,,,,,,0.405555556,-0.413888889,1,0,0,1.4755,Pumice_rect,10,0,10,0,1,
66060f19dda14ccd05dfcef9,SCN,2024-06-21_10h47.25.031,LearnStrategy,2023.2.3,Win32,59.88023952,3,2,12,,,,,,,,7,15,,,,,,,,,,,7,2.96,1,,,,,,0.162037037,-0.396296296,1,0,0,2.96,Peridotite_rect,11,0,11,0,1,
66060f19dda14ccd05dfcef9,SCN,2024-06-21_10h47.25.031,LearnStrategy,2023.2.3,Win32,59.88023952,3,2,13,,,,,,,,1,11,,,,,,,,,,,4,1.457,0,,,,,,0.376851852,-0.253703704,1,0,0,1.4574,Gabbro_rect,12,0,12,0,1,
66060f19dda14ccd05dfcef9,SCN,2024-06-21_10h47.25.031,LearnStrategy,2023.2.3,Win32,59.88023952,3,2,14,,,,,,,,4,10,,,,,,,,,,,4,7.276,1,,,,,,0.353703704,-0.248148148,1,0,0,7.2765,Gabbro_rect,13,0,13,0,1,
66060f19dda14ccd05dfcef9,SCN,2024-06-21_10h47.25.031,LearnStrategy,2023.2.3,Win32,59.88023952,3,2,15,,,,,,,,8,13,,,,,,,,,,,8,3.49,1,,,,,,0.401851852,-0.402777778,1,0,0,3.4905,Pumice_rect,14,0,14,0,1,
66060f19dda14ccd05dfcef9,SCN,2024-06-21_10h47.25.031,LearnStrategy,2023.2.3,Win32,59.88023952,3,2,16,,,,,,,,7,04,,,,,,,,,,,7,16.875,1,,,,,,0.175925926,-0.401851852,1,0,0,16.8746,Peridotite_rect,15,0,15,0,1,
66060f19dda14ccd05dfcef9,SCN,2024-06-21_10h47.25.031,LearnStrategy,2023.2.3,Win32,59.88023952,4,1,1,-0.392592593,-0.087962963,1,0,0,1.5223,Peridotite_14,7,14,3,2,1.522,-0.325925926,-0.241666667,1,0,0,1.9461,Andesite_rect,1,1.946,0,0,0,0,0,1,,,,,,,,,,,,,
66060f19dda14ccd05dfcef9,SCN,2024-06-21_10h47.25.031,LearnStrategy,2023.2.3,Win32,59.88023952,4,1,2,-0.372222222,0.248148148,1,0,0,1.4961,Peridotite_06,7,06,5,2,1.496,-0.086111111,-0.389814815,1,0,0,1.4295,Pegmatite_rect,6,1.429,0,1,0,1,0,1,,,,,,,,,,,,,
66060f19dda14ccd05dfcef9,SCN,2024-06-21_10h47.25.031,LearnStrategy,2023.2.3,Win32,59.88023952,4,1,3,-0.084259259,0.275925926,1,0,0,0.6647,Andesite_02,1,02,5,4,0.665,0.125,-0.25,1,0,0,1.2266,Diorite_rect,3,1.227,0,2,0,2,0,1,,,,,,,,,,,,,
66060f19dda14ccd05dfcef9,SCN,2024-06-21_10h47.25.031,LearnStrategy,2023.2.3,Win32,59.88023952,4,1,4,-0.260185185,-0.262037037,1,0,0,0.9312,Obsidian_05,5,05,2,3,0.931,-0.335185185,-0.385185185,1,0,0,1.2424,Obsidian_rect,5,1.242,1,3,0,3,0,1,,,,,,,,,,,,,
66060f19dda14ccd05dfcef9,SCN,2024-06-21_10h47.25.031,LearnStrategy,2023.2.3,Win32,59.88023952,4,1,5,0.268518519,-0.405555556,1,0,0,0.9629,Gabbro_16,4,16,1,6,0.963,0.409259259,-0.238888889,1,0,0,3.7627,Gabbro_rect,4,3.763,1,4,0,4,0,1,,,,,,,,,,,,,
66060f19dda14ccd05dfcef9,SCN,2024-06-21_10h47.25.031,LearnStrategy,2023.2.3,Win32,59.88023952,4,1,6,0.226851852,0.112037037,1,0,0,1.3808,Pumice_02,8,02,4,6,1.381,0.411111111,-0.419444444,1,0,0,0.9938,Pumice_rect,8,0.994,1,5,0,5,0,1,,,,,,,,,,,,,
66060f19dda14ccd05dfcef9,SCN,2024-06-21_10h47.25.031,LearnStrategy,2023.2.3,Win32,59.88023952,4,1,7,-0.37962963,-0.1,1,0,0,1.9758,Peridotite_14,7,14,3,2,1.976,-0.371296296,-0.237037037,1,0,0,0.875,Andesite_rect,1,0.875,0,6,0,6,0,1,,,,,,,,,,,,,
66060f19dda14ccd05dfcef9,SCN,2024-06-21_10h47.25.031,LearnStrategy,2023.2.3,Win32,59.88023952,4,1,8,-0.232407407,-0.264814815,1,0,0,4.2161,Obsidian_05,5,05,2,3,4.216,-0.365740741,-0.40462963,1,0,0,1.3372,Obsidian_rect,5,1.337,1,7,0,7,0,1,,,,,,,,,,,,,
66060f19dda14ccd05dfcef9,SCN,2024-06-21_10h47.25.031,LearnStrategy,2023.2.3,Win32,59.88023952,4,1,9,-0.393518519,-0.409259259,1,0,0,2.3309,Basalt_11,2,11,1,2,2.331,-0.362037037,-0.249074074,1,0,0,1.8613,Andesite_rect,1,1.861,0,8,0,8,0,1,,,,,,,,,,,,,
66060f19dda14ccd05dfcef9,SCN,2024-06-21_10h47.25.031,LearnStrategy,2023.2.3,Win32,59.88023952,4,1,10,-0.528703704,0.090740741,1,0,0,0.9971,Diorite_02,3,02,4,1,0.997,-0.121296296,-0.401851852,1,0,0,1.3594,Pegmatite_rect,6,1.359,0,9,0,9,0,1,,,,,,,,,,,,,
66060f19dda14ccd05dfcef9,SCN,2024-06-21_10h47.25.031,LearnStrategy,2023.2.3,Win32,59.88023952,4,1,11,-0.534259259,0.260185185,1,0,0,1.6152,Andesite_05,1,05,5,1,1.615,-0.183333333,-0.237037037,1,0,0,1.3769,Basalt_rect,2,1.377,0,10,0,10,0,1,,,,,,,,,,,,,
66060f19dda14ccd05dfcef9,SCN,2024-06-21_10h47.25.031,LearnStrategy,2023.2.3,Win32,59.88023952,4,1,12,-0.39537037,0.382407407,1,0,0,1.7317,Obsidian_04,5,04,6,2,1.732,-0.366666667,-0.397222222,1,0,0,1.2086,Obsidian_rect,5,1.209,1,11,0,11,0,1,,,,,,,,,,,,,
66060f19dda14ccd05dfcef9,SCN,2024-06-21_10h47.25.031,LearnStrategy,2023.2.3,Win32,59.88023952,4,1,13,-0.428703704,-0.409259259,1,0,0,2.0813,Basalt_11,2,11,1,2,2.081,-0.182407407,-0.243518519,1,0,0,0.8761,Basalt_rect,2,0.876,1,12,0,12,0,1,,,,,,,,,,,,,
66060f19dda14ccd05dfcef9,SCN,2024-06-21_10h47.25.031,LearnStrategy,2023.2.3,Win32,59.88023952,4,1,14,0.386111111,-0.1,1,0,0,2.0147,Pegmatite_08,6,08,3,7,2.015,0.066666667,-0.399074074,1,0,0,1.7255,Peridotite_rect,7,1.726,0,13,0,13,0,1,,,,,,,,,,,,,
66060f19dda14ccd05dfcef9,SCN,2024-06-21_10h47.25.031,LearnStrategy,2023.2.3,Win32,59.88023952,4,1,15,-0.403703704,0.082407407,1,0,0,1.6811,Gabbro_09,4,09,4,2,1.681,0.397222222,-0.24537037,1,0,0,1.4111,Gabbro_rect,4,1.411,1,14,0,14,0,1,,,,,,,,,,,,,
66060f19dda14ccd05dfcef9,SCN,2024-06-21_10h47.25.031,LearnStrategy,2023.2.3,Win32,59.88023952,4,1,16,-0.226851852,0.088888889,1,0,0,2.9667,Diorite_12,3,12,4,3,2.967,-0.069444444,-0.25,1,0,0,1.6535,Basalt_rect,2,1.653,0,15,0,15,0,1,,,,,,,,,,,,,
66060f19dda14ccd05dfcef9,SCN,2024-06-21_10h47.25.031,LearnStrategy,2023.2.3,Win32,59.88023952,4,2,1,,,,,,,,5,02,,,,,,,,,,,5,1.777,1,,,,,,-0.412962963,-0.414814815,1,0,0,1.7768,Obsidian_rect,0,0,0,0,1,
66060f19dda14ccd05dfcef9,SCN,2024-06-21_10h47.25.031,LearnStrategy,2023.2.3,Win32,59.88023952,4,2,2,,,,,,,,1,11,,,,,,,,,,,7,3.424,0,,,,,,0.160185185,-0.406481481,1,0,0,3.424,Peridotite_rect,1,0,1,0,1,
66060f19dda14ccd05dfcef9,SCN,2024-06-21_10h47.25.031,LearnStrategy,2023.2.3,Win32,59.88023952,4,2,3,,,,,,,,3,06,,,,,,,,,,,3,12.726,1,,,,,,0.090740741,-0.241666667,1,0,0,12.7256,Diorite_rect,2,0,2,0,1,
66060f19dda14ccd05dfcef9,SCN,2024-06-21_10h47.25.031,LearnStrategy,2023.2.3,Win32,59.88023952,4,2,4,,,,,,,,1,10,,,,,,,,,,,2,4.143,0,,,,,,-0.114814815,-0.253703704,1,0,0,4.1426,Basalt_rect,3,0,3,0,1,
66060f19dda14ccd05dfcef9,SCN,2024-06-21_10h47.25.031,LearnStrategy,2023.2.3,Win32,59.88023952,4,2,5,,,,,,,,5,06,,,,,,,,,,,5,1.209,1,,,,,,-0.375,-0.387962963,1,0,0,1.2087,Obsidian_rect,4,0,4,0,1,
66060f19dda14ccd05dfcef9,SCN,2024-06-21_10h47.25.031,LearnStrategy,2023.2.3,Win32,59.88023952,4,2,6,,,,,,,,4,10,,,,,,,,,,,4,1.862,1,,,,,,0.459259259,-0.260185185,1,0,0,1.8617,Gabbro_rect,5,0,5,0,1,
66060f19dda14ccd05dfcef9,SCN,2024-06-21_10h47.25.031,LearnStrategy,2023.2.3,Win32,59.88023952,4,2,7,,,,,,,,4,13,,,,,,,,,,,2,5.792,0,,,,,,-0.164814815,-0.259259259,1,0,0,5.7924,Basalt_rect,6,0,6,0,1,
66060f19dda14ccd05dfcef9,SCN,2024-06-21_10h47.25.031,LearnStrategy,2023.2.3,Win32,59.88023952,4,2,8,,,,,,,,6,10,,,,,,,,,,,7,4.759,0,,,,,,0.112037037,-0.392592593,1,0,0,4.7586,Peridotite_rect,7,0,7,0,1,
66060f19dda14ccd05dfcef9,SCN,2024-06-21_10h47.25.031,LearnStrategy,2023.2.3,Win32,59.88023952,4,2,9,,,,,,,,6,15,,,,,,,,,,,6,5.244,1,,,,,,-0.107407407,-0.398148148,1,0,0,5.2437,Pegmatite_rect,8,0,8,0,1,
66060f19dda14ccd05dfcef9,SCN,2024-06-21_10h47.25.031,LearnStrategy,2023.2.3,Win32,59.88023952,4,2,10,,,,,,,,2,05,,,,,,,,,,,2,2.226,1,,,,,,-0.137037037,-0.255555556,1,0,0,2.226,Basalt_rect,9,0,9,0,1,
66060f19dda14ccd05dfcef9,SCN,2024-06-21_10h47.25.031,LearnStrategy,2023.2.3,Win32,59.88023952,4,2,11,,,,,,,,7,04,,,,,,,,,,,3,5.06,0,,,,,,0.14537037,-0.249074074,1,0,0,5.0601,Diorite_rect,10,0,10,0,1,
66060f19dda14ccd05dfcef9,SCN,2024-06-21_10h47.25.031,LearnStrategy,2023.2.3,Win32,59.88023952,4,2,12,,,,,,,,2,06,,,,,,,,,,,2,2.813,1,,,,,,-0.086111111,-0.243518519,1,0,0,2.8125,Basalt_rect,11,0,11,0,1,
66060f19dda14ccd05dfcef9,SCN,2024-06-21_10h47.25.031,LearnStrategy,2023.2.3,Win32,59.88023952,4,2,13,,,,,,,,8,13,,,,,,,,,,,8,1.921,1,,,,,,0.416666667,-0.417592593,1,0,0,1.9208,Pumice_rect,12,0,12,0,1,
66060f19dda14ccd05dfcef9,SCN,2024-06-21_10h47.25.031,LearnStrategy,2023.2.3,Win32,59.88023952,4,2,14,,,,,,,,3,14,,,,,,,,,,,3,10.375,1,,,,,,0.15,-0.244444444,1,0,0,10.375,Diorite_rect,13,0,13,0,1,
66060f19dda14ccd05dfcef9,SCN,2024-06-21_10h47.25.031,LearnStrategy,2023.2.3,Win32,59.88023952,4,2,15,,,,,,,,7,08,,,,,,,,,,,7,4.442,1,,,,,,0.177777778,-0.394444444,1,0,0,4.4416,Peridotite_rect,14,0,14,0,1,
66060f19dda14ccd05dfcef9,SCN,2024-06-21_10h47.25.031,LearnStrategy,2023.2.3,Win32,59.88023952,4,2,16,,,,,,,,8,08,,,,,,,,,,,8,1.259,1,,,,,,0.374074074,-0.406481481,1,0,0,1.2587,Pumice_rect,15,0,15,0,1,
66060f19dda14ccd05dfcef9,SCN,2024-06-21_10h47.25.031,LearnStrategy,2023.2.3,Win32,59.88023952,5,1,1,-0.083333333,0.084259259,1,0,0,1.2308,Obsidian_07,5,07,4,4,1.231,-0.355555556,-0.398148148,1,0,0,1.0933,Obsidian_rect,5,1.093,1,0,0,0,0,1,,,,,,,,,,,,,
66060f19dda14ccd05dfcef9,SCN,2024-06-21_10h47.25.031,LearnStrategy,2023.2.3,Win32,59.88023952,5,1,2,0.24537037,0.108333333,1,0,0,1.0816,Pumice_02,8,02,4,6,1.082,0.399074074,-0.391666667,1,0,0,1.1256,Pumice_rect,8,1.126,1,1,0,1,0,1,,,,,,,,,,,,,
66060f19dda14ccd05dfcef9,SCN,2024-06-21_10h47.25.031,LearnStrategy,2023.2.3,Win32,59.88023952,5,1,3,0.084259259,0.097222222,1,0,0,1.3816,Basalt_16,2,16,4,5,1.382,0.39537037,-0.409259259,1,0,0,1.5583,Pumice_rect,8,1.558,0,2,0,2,0,1,,,,,,,,,,,,,
66060f19dda14ccd05dfcef9,SCN,2024-06-21_10h47.25.031,LearnStrategy,2023.2.3,Win32,59.88023952,5,1,4,-0.525,-0.246296296,1,0,0,1.5152,Peridotite_05,7,05,2,1,1.515,-0.382407407,-0.252777778,1,0,0,1.4966,Andesite_rect,1,1.497,0,3,0,3,0,1,,,,,,,,,,,,,
66060f19dda14ccd05dfcef9,SCN,2024-06-21_10h47.25.031,LearnStrategy,2023.2.3,Win32,59.88023952,5,1,5,-0.55462963,0.094444444,1,0,0,0.9482,Diorite_02,3,02,4,1,0.948,-0.358333333,-0.242592593,1,0,0,0.7757,Andesite_rect,1,0.776,0,4,0,4,0,1,,,,,,,,,,,,,
66060f19dda14ccd05dfcef9,SCN,2024-06-21_10h47.25.031,LearnStrategy,2023.2.3,Win32,59.88023952,5,1,6,-0.55462963,0.255555556,1,0,0,0.7818,Andesite_05,1,05,5,1,0.782,-0.365740741,-0.244444444,1,0,0,0.9621,Andesite_rect,1,0.962,1,5,0,5,0,1,,,,,,,,,,,,,
66060f19dda14ccd05dfcef9,SCN,2024-06-21_10h47.25.031,LearnStrategy,2023.2.3,Win32,59.88023952,5,1,7,0.085185185,0.097222222,1,0,0,1.5821,Basalt_16,2,16,4,5,1.582,0.399074074,-0.391666667,1,0,0,1.4428,Pumice_rect,8,1.443,0,6,0,6,0,1,,,,,,,,,,,,,
66060f19dda14ccd05dfcef9,SCN,2024-06-21_10h47.25.031,LearnStrategy,2023.2.3,Win32,59.88023952,5,1,8,-0.539814815,0.267592593,1,0,0,1.7328,Andesite_05,1,05,5,1,1.733,-0.181481481,-0.241666667,1,0,0,1.2105,Basalt_rect,2,1.21,0,7,0,7,0,1,,,,,,,,,,,,,
66060f19dda14ccd05dfcef9,SCN,2024-06-21_10h47.25.031,LearnStrategy,2023.2.3,Win32,59.88023952,5,1,9,-0.532407407,-0.411111111,1,0,0,2.7152,Andesite_09,1,09,1,1,2.715,-0.127777778,-0.246296296,1,0,0,0.7916,Basalt_rect,2,0.792,0,8,0,8,0,1,,,,,,,,,,,,,
66060f19dda14ccd05dfcef9,SCN,2024-06-21_10h47.25.031,LearnStrategy,2023.2.3,Win32,59.88023952,5,1,10,-0.236111111,0.248148148,1,0,0,4.9985,Andesite_01,1,01,5,3,4.999,0.34537037,-0.22962963,1,0,0,1.4553,Gabbro_rect,4,1.455,0,9,0,9,0,1,,,,,,,,,,,,,
66060f19dda14ccd05dfcef9,SCN,2024-06-21_10h47.25.031,LearnStrategy,2023.2.3,Win32,59.88023952,5,1,11,0.392592593,0.092592593,1,0,0,1.5818,Basalt_02,2,02,4,7,1.582,-0.068518519,-0.253703704,1,0,0,1.0271,Basalt_rect,2,1.027,1,10,0,10,0,1,,,,,,,,,,,,,
66060f19dda14ccd05dfcef9,SCN,2024-06-21_10h47.25.031,LearnStrategy,2023.2.3,Win32,59.88023952,5,1,12,-0.062037037,0.430555556,1,0,0,1.131,Pumice_03,8,03,6,4,1.131,0.425925926,-0.389814815,1,0,0,1.0271,Pumice_rect,8,1.027,1,11,0,11,0,1,,,,,,,,,,,,,
66060f19dda14ccd05dfcef9,SCN,2024-06-21_10h47.25.031,LearnStrategy,2023.2.3,Win32,59.88023952,5,1,13,0.576851852,0.262037037,1,0,0,1.4319,Gabbro_05,4,05,5,8,1.432,0.117592593,-0.399074074,1,0,0,2.345,Peridotite_rect,7,2.345,0,12,0,12,0,1,,,,,,,,,,,,,
66060f19dda14ccd05dfcef9,SCN,2024-06-21_10h47.25.031,LearnStrategy,2023.2.3,Win32,59.88023952,5,1,14,0.072222222,0.412962963,1,0,0,0.8645,Obsidian_16,5,16,6,5,0.865,-0.37962963,-0.393518519,1,0,0,2.5947,Obsidian_rect,5,2.595,1,13,0,13,0,1,,,,,,,,,,,,,
66060f19dda14ccd05dfcef9,SCN,2024-06-21_10h47.25.031,LearnStrategy,2023.2.3,Win32,59.88023952,5,1,15,-0.384259259,0.275,1,0,0,0.799,Peridotite_06,7,06,5,2,0.799,-0.125,-0.39537037,1,0,0,1.5599,Pegmatite_rect,6,1.56,0,14,0,14,0,1,,,,,,,,,,,,,
66060f19dda14ccd05dfcef9,SCN,2024-06-21_10h47.25.031,LearnStrategy,2023.2.3,Win32,59.88023952,5,1,16,0.239814815,0.109259259,1,0,0,0.9816,Pumice_02,8,02,4,6,0.982,0.344444444,-0.403703704,1,0,0,1.129,Pumice_rect,8,1.129,1,15,0,15,0,1,,,,,,,,,,,,,
66060f19dda14ccd05dfcef9,SCN,2024-06-21_10h47.25.031,LearnStrategy,2023.2.3,Win32,59.88023952,5,2,1,,,,,,,,7,13,,,,,,,,,,,7,2.46,1,,,,,,0.160185185,-0.380555556,1,0,0,2.4601,Peridotite_rect,0,0,0,0,1,
66060f19dda14ccd05dfcef9,SCN,2024-06-21_10h47.25.031,LearnStrategy,2023.2.3,Win32,59.88023952,5,2,2,,,,,,,,8,06,,,,,,,,,,,8,1.545,1,,,,,,0.385185185,-0.407407407,1,0,0,1.5451,Pumice_rect,1,0,1,0,1,
66060f19dda14ccd05dfcef9,SCN,2024-06-21_10h47.25.031,LearnStrategy,2023.2.3,Win32,59.88023952,5,2,3,,,,,,,,4,12,,,,,,,,,,,4,6.66,1,,,,,,0.34537037,-0.251851852,1,0,0,6.66,Gabbro_rect,2,0,2,0,1,
66060f19dda14ccd05dfcef9,SCN,2024-06-21_10h47.25.031,LearnStrategy,2023.2.3,Win32,59.88023952,5,2,4,,,,,,,,8,10,,,,,,,,,,,8,1.013,1,,,,,,0.362962963,-0.412037037,1,0,0,1.0132,Pumice_rect,3,0,3,0,1,
66060f19dda14ccd05dfcef9,SCN,2024-06-21_10h47.25.031,LearnStrategy,2023.2.3,Win32,59.88023952,5,2,5,,,,,,,,6,11,,,,,,,,,,,6,6.577,1,,,,,,-0.158333333,-0.391666667,1,0,0,6.5768,Pegmatite_rect,4,0,4,0,1,
66060f19dda14ccd05dfcef9,SCN,2024-06-21_10h47.25.031,LearnStrategy,2023.2.3,Win32,59.88023952,5,2,6,,,,,,,,7,16,,,,,,,,,,,7,5.459,1,,,,,,0.07037037,-0.405555556,1,0,0,5.4586,Peridotite_rect,5,0,5,0,1,
66060f19dda14ccd05dfcef9,SCN,2024-06-21_10h47.25.031,LearnStrategy,2023.2.3,Win32,59.88023952,5,2,7,,,,,,,,4,14,,,,,,,,,,,1,1.493,0,,,,,,-0.373148148,-0.25,1,0,0,1.4933,Andesite_rect,6,0,6,0,1,
66060f19dda14ccd05dfcef9,SCN,2024-06-21_10h47.25.031,LearnStrategy,2023.2.3,Win32,59.88023952,5,2,8,,,,,,,,3,11,,,,,,,,,,,3,4.242,1,,,,,,0.169444444,-0.247222222,1,0,0,4.2418,Diorite_rect,7,0,7,0,1,
66060f19dda14ccd05dfcef9,SCN,2024-06-21_10h47.25.031,LearnStrategy,2023.2.3,Win32,59.88023952,5,2,9,,,,,,,,3,16,,,,,,,,,,,3,5.277,1,,,,,,0.184259259,-0.25462963,1,0,0,5.2769,Diorite_rect,8,0,8,0,1,
66060f19dda14ccd05dfcef9,SCN,2024-06-21_10h47.25.031,LearnStrategy,2023.2.3,Win32,59.88023952,5,2,10,,,,,,,,1,03,,,,,,,,,,,2,1.776,0,,,,,,-0.099074074,-0.255555556,1,0,0,1.7757,Basalt_rect,9,0,9,0,1,
66060f19dda14ccd05dfcef9,SCN,2024-06-21_10h47.25.031,LearnStrategy,2023.2.3,Win32,59.88023952,5,2,11,,,,,,,,2,14,,,,,,,,,,,2,2.043,1,,,,,,-0.085185185,-0.268518519,1,0,0,2.0435,Basalt_rect,10,0,10,0,1,
66060f19dda14ccd05dfcef9,SCN,2024-06-21_10h47.25.031,LearnStrategy,2023.2.3,Win32,59.88023952,5,2,12,,,,,,,,1,14,,,,,,,,,,,1,1.668,1,,,,,,-0.391666667,-0.232407407,1,0,0,1.6684,Andesite_rect,11,0,11,0,1,
66060f19dda14ccd05dfcef9,SCN,2024-06-21_10h47.25.031,LearnStrategy,2023.2.3,Win32,59.88023952,5,2,13,,,,,,,,2,01,,,,,,,,,,,2,1.407,1,,,,,,-0.135185185,-0.234259259,1,0,0,1.4073,Basalt_rect,12,0,12,0,1,
66060f19dda14ccd05dfcef9,SCN,2024-06-21_10h47.25.031,LearnStrategy,2023.2.3,Win32,59.88023952,5,2,14,,,,,,,,5,14,,,,,,,,,,,5,1.258,1,,,,,,-0.37962963,-0.40462963,1,0,0,1.2581,Obsidian_rect,13,0,13,0,1,
66060f19dda14ccd05dfcef9,SCN,2024-06-21_10h47.25.031,LearnStrategy,2023.2.3,Win32,59.88023952,5,2,15,,,,,,,,6,06,,,,,,,,,,,6,5.097,1,,,,,,-0.062037037,-0.409259259,1,0,0,5.0967,Pegmatite_rect,14,0,14,0,1,
66060f19dda14ccd05dfcef9,SCN,2024-06-21_10h47.25.031,LearnStrategy,2023.2.3,Win32,59.88023952,5,2,16,,,,,,,,5,11,,,,,,,,,,,5,1.109,1,,,,,,-0.375925926,-0.391666667,1,0,0,1.1088,Obsidian_rect,15,0,15,0,1,
66060f19dda14ccd05dfcef9,SCN,2024-06-21_10h47.25.031,LearnStrategy,2023.2.3,Win32,59.88023952,6,1,1,-0.215740741,-0.237962963,1,0,0,1.4498,Obsidian_05,5,05,2,3,1.45,-0.355555556,-0.399074074,1,0,0,0.8767,Obsidian_rect,5,0.877,1,0,0,0,0,1,,,,,,,,,,,,,
66060f19dda14ccd05dfcef9,SCN,2024-06-21_10h47.25.031,LearnStrategy,2023.2.3,Win32,59.88023952,6,1,2,0.114814815,-0.1,1,0,0,1.2312,Gabbro_03,4,03,3,5,1.231,-0.307407407,-0.235185185,1,0,0,1.0952,Andesite_rect,1,1.095,0,1,0,1,0,1,,,,,,,,,,,,,
66060f19dda14ccd05dfcef9,SCN,2024-06-21_10h47.25.031,LearnStrategy,2023.2.3,Win32,59.88023952,6,1,3,0.226851852,0.218518519,1,0,0,1.4482,Pumice_09,8,09,5,6,1.448,0.403703704,-0.397222222,1,0,0,0.7424,Pumice_rect,8,0.742,1,2,0,2,0,1,,,,,,,,,,,,,
66060f19dda14ccd05dfcef9,SCN,2024-06-21_10h47.25.031,LearnStrategy,2023.2.3,Win32,59.88023952,6,1,4,0.097222222,0.25,1,0,0,0.9652,Pumice_16,8,16,5,5,0.965,-0.187962963,-0.25462963,1,0,0,2.3762,Basalt_rect,2,2.376,0,3,0,3,0,1,,,,,,,,,,,,,
66060f19dda14ccd05dfcef9,SCN,2024-06-21_10h47.25.031,LearnStrategy,2023.2.3,Win32,59.88023952,6,1,5,0.427777778,-0.386111111,1,0,0,69.1155,Diorite_08,3,08,1,7,69.116,0.086111111,-0.406481481,1,0,0,0.8436,Peridotite_rect,7,0.844,0,4,0,4,0,1,,,,,,,,,,,,,
66060f19dda14ccd05dfcef9,SCN,2024-06-21_10h47.25.031,LearnStrategy,2023.2.3,Win32,59.88023952,6,1,6,0.088888889,0.096296296,1,0,0,1.215,Basalt_16,2,16,4,5,1.215,-0.132407407,-0.242592593,1,0,0,1.5935,Basalt_rect,2,1.593,1,5,0,5,0,1,,,,,,,,,,,,,
66060f19dda14ccd05dfcef9,SCN,2024-06-21_10h47.25.031,LearnStrategy,2023.2.3,Win32,59.88023952,6,1,7,-0.243518519,0.096296296,1,0,0,0.9152,Diorite_12,3,12,4,3,0.915,-0.186111111,-0.405555556,1,0,0,1.3753,Pegmatite_rect,6,1.375,0,6,0,6,0,1,,,,,,,,,,,,,
66060f19dda14ccd05dfcef9,SCN,2024-06-21_10h47.25.031,LearnStrategy,2023.2.3,Win32,59.88023952,6,1,8,-0.261111111,-0.25462963,1,0,0,3.1504,Obsidian_05,5,05,2,3,3.15,-0.362037037,-0.401851852,1,0,0,1.0884,Obsidian_rect,5,1.088,1,7,0,7,0,1,,,,,,,,,,,,,
66060f19dda14ccd05dfcef9,SCN,2024-06-21_10h47.25.031,LearnStrategy,2023.2.3,Win32,59.88023952,6,1,9,-0.572222222,0.096296296,1,0,0,1.6068,Diorite_02,3,02,4,1,1.607,-0.139814815,-0.413888889,1,0,0,1.126,Pegmatite_rect,6,1.126,0,8,0,8,0,1,,,,,,,,,,,,,
66060f19dda14ccd05dfcef9,SCN,2024-06-21_10h47.25.031,LearnStrategy,2023.2.3,Win32,59.88023952,6,1,10,0.400925926,0.094444444,1,0,0,1.1323,Basalt_02,2,02,4,7,1.132,-0.126851852,-0.258333333,1,0,0,1.7597,Basalt_rect,2,1.76,1,9,0,9,0,1,,,,,,,,,,,,,
66060f19dda14ccd05dfcef9,SCN,2024-06-21_10h47.25.031,LearnStrategy,2023.2.3,Win32,59.88023952,6,1,11,-0.378703704,-0.425925926,1,0,0,1.6661,Basalt_11,2,11,1,2,1.666,-0.473148148,-0.238888889,1,0,0,1.8933,Andesite_rect,1,1.893,0,10,0,10,0,1,,,,,,,,,,,,,
66060f19dda14ccd05dfcef9,SCN,2024-06-21_10h47.25.031,LearnStrategy,2023.2.3,Win32,59.88023952,6,1,12,0.087962963,0.259259259,1,0,0,1.4817,Pumice_16,8,16,5,5,1.482,-0.150925926,-0.265740741,1,0,0,1.1261,Basalt_rect,2,1.126,0,11,0,11,0,1,,,,,,,,,,,,,
66060f19dda14ccd05dfcef9,SCN,2024-06-21_10h47.25.031,LearnStrategy,2023.2.3,Win32,59.88023952,6,1,13,0.272222222,0.098148148,1,0,0,1.0321,Pumice_02,8,02,4,6,1.032,0.426851852,-0.388888889,1,0,0,0.81,Pumice_rect,8,0.81,1,12,0,12,0,1,,,,,,,,,,,,,
66060f19dda14ccd05dfcef9,SCN,2024-06-21_10h47.25.031,LearnStrategy,2023.2.3,Win32,59.88023952,6,1,14,-0.550925926,0.232407407,1,0,0,2.0243,Andesite_05,1,05,5,1,2.024,-0.388888889,-0.246296296,1,0,0,1.3595,Andesite_rect,1,1.36,1,13,0,13,0,1,,,,,,,,,,,,,
66060f19dda14ccd05dfcef9,SCN,2024-06-21_10h47.25.031,LearnStrategy,2023.2.3,Win32,59.88023952,6,1,15,0.407407407,0.1,1,0,0,0.9988,Basalt_02,2,02,4,7,0.999,-0.14537037,-0.247222222,1,0,0,0.7431,Basalt_rect,2,0.743,1,14,0,14,0,1,,,,,,,,,,,,,
66060f19dda14ccd05dfcef9,SCN,2024-06-21_10h47.25.031,LearnStrategy,2023.2.3,Win32,59.88023952,6,1,16,-0.197222222,0.422222222,1,0,0,1.0984,Obsidian_09,5,09,6,3,1.098,-0.338888889,-0.411111111,1,0,0,0.9432,Obsidian_rect,5,0.943,1,15,0,15,0,1,,,,,,,,,,,,,
66060f19dda14ccd05dfcef9,SCN,2024-06-21_10h47.25.031,LearnStrategy,2023.2.3,Win32,59.88023952,6,2,1,,,,,,,,2,08,,,,,,,,,,,1,2.327,0,,,,,,-0.324074074,-0.259259259,1,0,0,2.3268,Andesite_rect,0,0,0,0,1,
66060f19dda14ccd05dfcef9,SCN,2024-06-21_10h47.25.031,LearnStrategy,2023.2.3,Win32,59.88023952,6,2,2,,,,,,,,1,07,,,,,,,,,,,1,1.32,1,,,,,,-0.325,-0.242592593,1,0,0,1.3196,Andesite_rect,1,0,1,0,1,
66060f19dda14ccd05dfcef9,SCN,2024-06-21_10h47.25.031,LearnStrategy,2023.2.3,Win32,59.88023952,6,2,3,,,,,,,,5,12,,,,,,,,,,,5,1.11,1,,,,,,-0.377777778,-0.388888889,1,0,0,1.1102,Obsidian_rect,2,0,2,0,1,
66060f19dda14ccd05dfcef9,SCN,2024-06-21_10h47.25.031,LearnStrategy,2023.2.3,Win32,59.88023952,6,2,4,,,,,,,,7,15,,,,,,,,,,,7,4.272,1,,,,,,0.073148148,-0.396296296,1,0,0,4.2717,Peridotite_rect,3,0,3,0,1,
66060f19dda14ccd05dfcef9,SCN,2024-06-21_10h47.25.031,LearnStrategy,2023.2.3,Win32,59.88023952,6,2,5,,,,,,,,5,08,,,,,,,,,,,5,1.375,1,,,,,,-0.346296296,-0.396296296,1,0,0,1.3753,Obsidian_rect,4,0,4,0,1,
66060f19dda14ccd05dfcef9,SCN,2024-06-21_10h47.25.031,LearnStrategy,2023.2.3,Win32,59.88023952,6,2,6,,,,,,,,6,13,,,,,,,,,,,6,7.21,1,,,,,,-0.175925926,-0.413888889,1,0,0,7.2099,Pegmatite_rect,5,0,5,0,1,
66060f19dda14ccd05dfcef9,SCN,2024-06-21_10h47.25.031,LearnStrategy,2023.2.3,Win32,59.88023952,6,2,7,,,,,,,,1,16,,,,,,,,,,,1,1.672,1,,,,,,-0.375,-0.251851852,1,0,0,1.6717,Andesite_rect,6,0,6,0,1,
66060f19dda14ccd05dfcef9,SCN,2024-06-21_10h47.25.031,LearnStrategy,2023.2.3,Win32,59.88023952,6,2,8,,,,,,,,3,09,,,,,,,,,,,3,9.493,1,,,,,,0.171296296,-0.271296296,1,0,0,9.4934,Diorite_rect,7,0,7,0,1,
66060f19dda14ccd05dfcef9,SCN,2024-06-21_10h47.25.031,LearnStrategy,2023.2.3,Win32,59.88023952,6,2,9,,,,,,,,4,11,,,,,,,,,,,4,2.62,1,,,,,,0.396296296,-0.243518519,1,0,0,2.6197,Gabbro_rect,8,0,8,0,1,
66060f19dda14ccd05dfcef9,SCN,2024-06-21_10h47.25.031,LearnStrategy,2023.2.3,Win32,59.88023952,6,2,10,,,,,,,,8,04,,,,,,,,,,,8,1.992,1,,,,,,0.402777778,-0.403703704,1,0,0,1.992,Pumice_rect,9,0,9,0,1,
66060f19dda14ccd05dfcef9,SCN,2024-06-21_10h47.25.031,LearnStrategy,2023.2.3,Win32,59.88023952,6,2,11,,,,,,,,7,02,,,,,,,,,,,7,4.937,1,,,,,,0.074074074,-0.412962963,1,0,0,4.937,Peridotite_rect,10,0,10,0,1,
66060f19dda14ccd05dfcef9,SCN,2024-06-21_10h47.25.031,LearnStrategy,2023.2.3,Win32,59.88023952,6,2,12,,,,,,,,4,01,,,,,,,,,,,1,10.527,0,,,,,,-0.388888889,-0.252777778,1,0,0,10.5267,Andesite_rect,11,0,11,0,1,
66060f19dda14ccd05dfcef9,SCN,2024-06-21_10h47.25.031,LearnStrategy,2023.2.3,Win32,59.88023952,6,2,13,,,,,,,,6,03,,,,,,,,,,,6,17.887,1,,,,,,-0.089814815,-0.40462963,1,0,0,17.8871,Pegmatite_rect,12,0,12,0,1,
66060f19dda14ccd05dfcef9,SCN,2024-06-21_10h47.25.031,LearnStrategy,2023.2.3,Win32,59.88023952,6,2,14,,,,,,,,3,07,,,,,,,,,,,3,3.138,1,,,,,,0.122222222,-0.262037037,1,0,0,3.1375,Diorite_rect,13,0,13,0,1,
66060f19dda14ccd05dfcef9,SCN,2024-06-21_10h47.25.031,LearnStrategy,2023.2.3,Win32,59.88023952,6,2,15,,,,,,,,8,14,,,,,,,,,,,8,1.019,1,,,,,,0.405555556,-0.401851852,1,0,0,1.0185,Pumice_rect,14,0,14,0,1,
66060f19dda14ccd05dfcef9,SCN,2024-06-21_10h47.25.031,LearnStrategy,2023.2.3,Win32,59.88023952,6,2,16,,,,,,,,2,09,,,,,,,,,,,2,1.125,1,,,,,,-0.1,-0.247222222,1,0,0,1.125,Basalt_rect,15,0,15,0,1,
66060f19dda14ccd05dfcef9,SCN,2024-06-21_10h47.25.031,LearnStrategy,2023.2.3,Win32,59.88023952,7,1,1,-0.230555556,-0.225925926,1,0,0,1.6995,Obsidian_05,5,05,2,3,1.699,-0.353703704,-0.403703704,1,0,0,1.0918,Obsidian_rect,5,1.092,1,0,0,0,0,1,,,,,,,,,,,,,
66060f19dda14ccd05dfcef9,SCN,2024-06-21_10h47.25.031,LearnStrategy,2023.2.3,Win32,59.88023952,7,1,2,-0.248148148,-0.27962963,1,0,0,1.0155,Obsidian_05,5,05,2,3,1.015,-0.381481481,-0.4,1,0,0,0.8432,Obsidian_rect,5,0.843,1,1,0,1,0,1,,,,,,,,,,,,,
66060f19dda14ccd05dfcef9,SCN,2024-06-21_10h47.25.031,LearnStrategy,2023.2.3,Win32,59.88023952,7,1,3,-0.251851852,-0.252777778,1,0,0,0.9149,Obsidian_05,5,05,2,3,0.915,-0.409259259,-0.400925926,1,0,0,1.2138,Obsidian_rect,5,1.214,1,2,0,2,0,1,,,,,,,,,,,,,
66060f19dda14ccd05dfcef9,SCN,2024-06-21_10h47.25.031,LearnStrategy,2023.2.3,Win32,59.88023952,7,1,4,-0.211111111,-0.249074074,1,0,0,1.2155,Obsidian_05,5,05,2,3,1.215,-0.346296296,-0.407407407,1,0,0,1.2949,Obsidian_rect,5,1.295,1,3,0,3,0,1,,,,,,,,,,,,,
66060f19dda14ccd05dfcef9,SCN,2024-06-21_10h47.25.031,LearnStrategy,2023.2.3,Win32,59.88023952,7,1,5,-0.037037037,0.085185185,1,0,0,0.9319,Obsidian_07,5,07,4,4,0.932,-0.347222222,-0.39537037,1,0,0,1.1607,Obsidian_rect,5,1.161,1,4,0,4,0,1,,,,,,,,,,,,,
66060f19dda14ccd05dfcef9,SCN,2024-06-21_10h47.25.031,LearnStrategy,2023.2.3,Win32,59.88023952,7,1,6,-0.236111111,0.392592593,1,0,0,1.6152,Obsidian_09,5,09,6,3,1.615,-0.359259259,-0.412037037,1,0,0,0.7609,Obsidian_rect,5,0.761,1,5,0,5,0,1,,,,,,,,,,,,,
66060f19dda14ccd05dfcef9,SCN,2024-06-21_10h47.25.031,LearnStrategy,2023.2.3,Win32,59.88023952,7,1,7,0.106481481,0.421296296,1,0,0,1.048,Obsidian_16,5,16,6,5,1.048,-0.325,-0.39537037,1,0,0,0.9628,Obsidian_rect,5,0.963,1,6,0,6,0,1,,,,,,,,,,,,,
66060f19dda14ccd05dfcef9,SCN,2024-06-21_10h47.25.031,LearnStrategy,2023.2.3,Win32,59.88023952,7,1,8,-0.05,-0.251851852,1,0,0,18.8668,Pegmatite_16,6,16,2,4,18.867,-0.117592593,-0.406481481,1,0,0,0.9543,Pegmatite_rect,6,0.954,1,7,0,7,0,1,,,,,,,,,,,,,
66060f19dda14ccd05dfcef9,SCN,2024-06-21_10h47.25.031,LearnStrategy,2023.2.3,Win32,59.88023952,7,1,9,0.072222222,0.114814815,1,0,0,1.0815,Basalt_16,2,16,4,5,1.082,-0.075925926,-0.255555556,1,0,0,1.0593,Basalt_rect,2,1.059,1,8,0,8,0,1,,,,,,,,,,,,,
66060f19dda14ccd05dfcef9,SCN,2024-06-21_10h47.25.031,LearnStrategy,2023.2.3,Win32,59.88023952,7,1,10,0.391666667,-0.102777778,1,0,0,2.1483,Pegmatite_08,6,08,3,7,2.148,0.447222222,-0.251851852,1,0,0,2.4764,Gabbro_rect,4,2.476,0,9,0,9,0,1,,,,,,,,,,,,,
66060f19dda14ccd05dfcef9,SCN,2024-06-21_10h47.25.031,LearnStrategy,2023.2.3,Win32,59.88023952,7,1,11,-0.227777778,-0.259259259,1,0,0,1.6666,Obsidian_05,5,05,2,3,1.667,-0.371296296,-0.399074074,1,0,0,1.192,Obsidian_rect,5,1.192,1,10,0,10,0,1,,,,,,,,,,,,,
66060f19dda14ccd05dfcef9,SCN,2024-06-21_10h47.25.031,LearnStrategy,2023.2.3,Win32,59.88023952,7,1,12,0.553703704,-0.418518519,1,0,0,1.0575,Diorite_10,3,10,1,8,1.057,-0.185185185,-0.247222222,1,0,0,2.0261,Basalt_rect,2,2.026,0,11,0,11,0,1,,,,,,,,,,,,,
66060f19dda14ccd05dfcef9,SCN,2024-06-21_10h47.25.031,LearnStrategy,2023.2.3,Win32,59.88023952,7,1,13,-0.09537037,0.113888889,1,0,0,0.9492,Obsidian_07,5,07,4,4,0.949,-0.367592593,-0.384259259,1,0,0,1.059,Obsidian_rect,5,1.059,1,12,0,12,0,1,,,,,,,,,,,,,
66060f19dda14ccd05dfcef9,SCN,2024-06-21_10h47.25.031,LearnStrategy,2023.2.3,Win32,59.88023952,7,1,14,-0.22037037,-0.243518519,1,0,0,0.8977,Obsidian_05,5,05,2,3,0.898,-0.382407407,-0.410185185,1,0,0,1.1623,Obsidian_rect,5,1.162,1,13,0,13,0,1,,,,,,,,,,,,,
66060f19dda14ccd05dfcef9,SCN,2024-06-21_10h47.25.031,LearnStrategy,2023.2.3,Win32,59.88023952,7,1,15,-0.214814815,-0.234259259,1,0,0,0.8809,Obsidian_05,5,05,2,3,0.881,-0.401851852,-0.39537037,1,0,0,1.177,Obsidian_rect,5,1.177,1,14,0,14,0,1,,,,,,,,,,,,,
66060f19dda14ccd05dfcef9,SCN,2024-06-21_10h47.25.031,LearnStrategy,2023.2.3,Win32,59.88023952,7,1,16,0.433333333,-0.075,1,0,0,4.7316,Pegmatite_08,6,08,3,7,4.732,-0.065740741,-0.386111111,1,0,0,4.1721,Pegmatite_rect,6,4.172,1,15,0,15,0,1,,,,,,,,,,,,,
66060f19dda14ccd05dfcef9,SCN,2024-06-21_10h47.25.031,LearnStrategy,2023.2.3,Win32,59.88023952,7,2,1,,,,,,,,4,11,,,,,,,,,,,1,2.493,0,,,,,,-0.299074074,-0.241666667,1,0,0,2.493,Andesite_rect,0,0,0,0,1,
66060f19dda14ccd05dfcef9,SCN,2024-06-21_10h47.25.031,LearnStrategy,2023.2.3,Win32,59.88023952,7,2,2,,,,,,,,2,05,,,,,,,,,,,2,1.958,1,,,,,,-0.127777778,-0.246296296,1,0,0,1.958,Basalt_rect,1,0,1,0,1,
66060f19dda14ccd05dfcef9,SCN,2024-06-21_10h47.25.031,LearnStrategy,2023.2.3,Win32,59.88023952,7,2,3,,,,,,,,2,09,,,,,,,,,,,2,1.034,1,,,,,,-0.066666667,-0.242592593,1,0,0,1.0337,Basalt_rect,2,0,2,0,1,
66060f19dda14ccd05dfcef9,SCN,2024-06-21_10h47.25.031,LearnStrategy,2023.2.3,Win32,59.88023952,7,2,4,,,,,,,,6,10,,,,,,,,,,,6,3.658,1,,,,,,-0.062037037,-0.408333333,1,0,0,3.6584,Pegmatite_rect,3,0,3,0,1,
66060f19dda14ccd05dfcef9,SCN,2024-06-21_10h47.25.031,LearnStrategy,2023.2.3,Win32,59.88023952,7,2,5,,,,,,,,8,06,,,,,,,,,,,8,1.005,1,,,,,,0.444444444,-0.402777778,1,0,0,1.0053,Pumice_rect,4,0,4,0,1,
66060f19dda14ccd05dfcef9,SCN,2024-06-21_10h47.25.031,LearnStrategy,2023.2.3,Win32,59.88023952,7,2,6,,,,,,,,5,08,,,,,,,,,,,5,1.263,1,,,,,,-0.388888889,-0.387037037,1,0,0,1.2632,Obsidian_rect,5,0,5,0,1,
66060f19dda14ccd05dfcef9,SCN,2024-06-21_10h47.25.031,LearnStrategy,2023.2.3,Win32,59.88023952,7,2,7,,,,,,,,4,10,,,,,,,,,,,4,1.292,1,,,,,,0.35462963,-0.265740741,1,0,0,1.2919,Gabbro_rect,6,0,6,0,1,
66060f19dda14ccd05dfcef9,SCN,2024-06-21_10h47.25.031,LearnStrategy,2023.2.3,Win32,59.88023952,7,2,8,,,,,,,,1,03,,,,,,,,,,,1,1.476,1,,,,,,-0.357407407,-0.257407407,1,0,0,1.4763,Andesite_rect,7,0,7,0,1,
66060f19dda14ccd05dfcef9,SCN,2024-06-21_10h47.25.031,LearnStrategy,2023.2.3,Win32,59.88023952,7,2,9,,,,,,,,1,10,,,,,,,,,,,4,6.58,0,,,,,,0.339814815,-0.250925926,1,0,0,6.5802,Gabbro_rect,8,0,8,0,1,
66060f19dda14ccd05dfcef9,SCN,2024-06-21_10h47.25.031,LearnStrategy,2023.2.3,Win32,59.88023952,7,2,10,,,,,,,,8,08,,,,,,,,,,,8,1.188,1,,,,,,0.387037037,-0.396296296,1,0,0,1.1885,Pumice_rect,9,0,9,0,1,
66060f19dda14ccd05dfcef9,SCN,2024-06-21_10h47.25.031,LearnStrategy,2023.2.3,Win32,59.88023952,7,2,11,,,,,,,,7,02,,,,,,,,,,,7,2.976,1,,,,,,0.176851852,-0.406481481,1,0,0,2.9758,Peridotite_rect,10,0,10,0,1,
66060f19dda14ccd05dfcef9,SCN,2024-06-21_10h47.25.031,LearnStrategy,2023.2.3,Win32,59.88023952,7,2,12,,,,,,,,6,06,,,,,,,,,,,6,1.987,1,,,,,,-0.134259259,-0.394444444,1,0,0,1.9872,Pegmatite_rect,11,0,11,0,1,
66060f19dda14ccd05dfcef9,SCN,2024-06-21_10h47.25.031,LearnStrategy,2023.2.3,Win32,59.88023952,7,2,13,,,,,,,,3,06,,,,,,,,,,,1,3.808,0,,,,,,-0.346296296,-0.255555556,1,0,0,3.8082,Andesite_rect,12,0,12,0,1,
66060f19dda14ccd05dfcef9,SCN,2024-06-21_10h47.25.031,LearnStrategy,2023.2.3,Win32,59.88023952,7,2,14,,,,,,,,5,11,,,,,,,,,,,5,1.022,1,,,,,,-0.412962963,-0.392592593,1,0,0,1.0224,Obsidian_rect,13,0,13,0,1,
66060f19dda14ccd05dfcef9,SCN,2024-06-21_10h47.25.031,LearnStrategy,2023.2.3,Win32,59.88023952,7,2,15,,,,,,,,7,04,,,,,,,,,,,3,8.024,0,,,,,,0.163888889,-0.259259259,1,0,0,8.0245,Diorite_rect,14,0,14,0,1,
66060f19dda14ccd05dfcef9,SCN,2024-06-21_10h47.25.031,LearnStrategy,2023.2.3,Win32,59.88023952,7,2,16,,,,,,,,3,11,,,,,,,,,,,1,2.37,0,,,,,,-0.328703704,-0.243518519,1,0,0,2.3697,Andesite_rect,15,0,15,0,1,
66060f19dda14ccd05dfcef9,SCN,2024-06-21_10h47.25.031,LearnStrategy,2023.2.3,Win32,59.88023952,8,1,1,-0.232407407,-0.257407407,1,0,0,1.3305,Obsidian_05,5,05,2,3,1.331,-0.348148148,-0.412962963,1,0,0,1.4954,Obsidian_rect,5,1.495,1,0,0,0,0,1,,,,,,,,,,,,,
66060f19dda14ccd05dfcef9,SCN,2024-06-21_10h47.25.031,LearnStrategy,2023.2.3,Win32,59.88023952,8,1,2,-0.236111111,-0.262037037,1,0,0,1.1315,Obsidian_05,5,05,2,3,1.131,-0.358333333,-0.393518519,1,0,0,1.2945,Obsidian_rect,5,1.294,1,1,0,1,0,1,,,,,,,,,,,,,
66060f19dda14ccd05dfcef9,SCN,2024-06-21_10h47.25.031,LearnStrategy,2023.2.3,Win32,59.88023952,8,1,3,-0.235185185,-0.25,1,0,0,0.7153,Obsidian_05,5,05,2,3,0.715,-0.380555556,-0.399074074,1,0,0,0.5611,Obsidian_rect,5,0.561,1,2,0,2,0,1,,,,,,,,,,,,,
66060f19dda14ccd05dfcef9,SCN,2024-06-21_10h47.25.031,LearnStrategy,2023.2.3,Win32,59.88023952,8,1,4,-0.236111111,-0.27037037,1,0,0,1.4315,Obsidian_05,5,05,2,3,1.431,-0.371296296,-0.398148148,1,0,0,0.7953,Obsidian_rect,5,0.795,1,3,0,3,0,1,,,,,,,,,,,,,
66060f19dda14ccd05dfcef9,SCN,2024-06-21_10h47.25.031,LearnStrategy,2023.2.3,Win32,59.88023952,8,1,5,-0.193518519,-0.25,1,0,0,0.8327,Obsidian_05,5,05,2,3,0.833,-0.35462963,-0.4,1,0,0,1.6278,Obsidian_rect,5,1.628,1,4,0,4,0,1,,,,,,,,,,,,,
66060f19dda14ccd05dfcef9,SCN,2024-06-21_10h47.25.031,LearnStrategy,2023.2.3,Win32,59.88023952,8,1,6,-0.217592593,-0.100925926,1,0,0,1.4984,Obsidian_10,5,10,3,3,1.498,-0.350925926,-0.403703704,1,0,0,0.8591,Obsidian_rect,5,0.859,1,5,0,5,0,1,,,,,,,,,,,,,
66060f19dda14ccd05dfcef9,SCN,2024-06-21_10h47.25.031,LearnStrategy,2023.2.3,Win32,59.88023952,8,1,7,0.07962963,0.083333333,1,0,0,0.966,Basalt_16,2,16,4,5,0.966,-0.148148148,-0.247222222,1,0,0,1.7766,Basalt_rect,2,1.777,1,6,0,6,0,1,,,,,,,,,,,,,
66060f19dda14ccd05dfcef9,SCN,2024-06-21_10h47.25.031,LearnStrategy,2023.2.3,Win32,59.88023952,8,1,8,0.251851852,-0.072222222,1,0,0,1.1483,Basalt_04,2,04,3,6,1.148,0.140740741,-0.246296296,1,0,0,1.5764,Diorite_rect,3,1.576,0,7,0,7,0,1,,,,,,,,,,,,,
66060f19dda14ccd05dfcef9,SCN,2024-06-21_10h47.25.031,LearnStrategy,2023.2.3,Win32,59.88023952,8,1,9,-0.500925926,0.253703704,1,0,0,1.167,Andesite_05,1,05,5,1,1.167,-0.381481481,-0.240740741,1,0,0,1.0934,Andesite_rect,1,1.093,1,8,0,8,0,1,,,,,,,,,,,,,
66060f19dda14ccd05dfcef9,SCN,2024-06-21_10h47.25.031,LearnStrategy,2023.2.3,Win32,59.88023952,8,1,10,-0.233333333,0.400925926,1,0,0,0.7644,Obsidian_09,5,09,6,3,0.764,-0.348148148,-0.40462963,1,0,0,1.0276,Obsidian_rect,5,1.028,1,9,0,9,0,1,,,,,,,,,,,,,
66060f19dda14ccd05dfcef9,SCN,2024-06-21_10h47.25.031,LearnStrategy,2023.2.3,Win32,59.88023952,8,1,11,-0.259259259,0.40462963,1,0,0,0.7643,Obsidian_09,5,09,6,3,0.764,-0.355555556,-0.409259259,1,0,0,0.8756,Obsidian_rect,5,0.876,1,10,0,10,0,1,,,,,,,,,,,,,
66060f19dda14ccd05dfcef9,SCN,2024-06-21_10h47.25.031,LearnStrategy,2023.2.3,Win32,59.88023952,8,1,12,-0.211111111,0.385185185,1,0,0,0.8474,Obsidian_09,5,09,6,3,0.847,-0.372222222,-0.392592593,1,0,0,1.1134,Obsidian_rect,5,1.113,1,11,0,11,0,1,,,,,,,,,,,,,
66060f19dda14ccd05dfcef9,SCN,2024-06-21_10h47.25.031,LearnStrategy,2023.2.3,Win32,59.88023952,8,1,13,-0.091666667,0.393518519,1,0,0,0.7809,Pumice_03,8,03,6,4,0.781,0.364814815,-0.412037037,1,0,0,0.9113,Pumice_rect,8,0.911,1,12,0,12,0,1,,,,,,,,,,,,,
66060f19dda14ccd05dfcef9,SCN,2024-06-21_10h47.25.031,LearnStrategy,2023.2.3,Win32,59.88023952,8,1,14,0.42037037,-0.412037037,1,0,0,1.6089,Diorite_08,3,08,1,7,1.609,-0.085185185,-0.401851852,1,0,0,1.6101,Pegmatite_rect,6,1.61,0,13,0,13,0,1,,,,,,,,,,,,,
66060f19dda14ccd05dfcef9,SCN,2024-06-21_10h47.25.031,LearnStrategy,2023.2.3,Win32,59.88023952,8,1,15,0.059259259,0.107407407,1,0,0,1.0808,Basalt_16,2,16,4,5,1.081,-0.10462963,-0.244444444,1,0,0,1.4287,Basalt_rect,2,1.429,1,14,0,14,0,1,,,,,,,,,,,,,
66060f19dda14ccd05dfcef9,SCN,2024-06-21_10h47.25.031,LearnStrategy,2023.2.3,Win32,59.88023952,8,1,16,0.409259259,0.103703704,1,0,0,1.4328,Basalt_02,2,02,4,7,1.433,-0.162037037,-0.261111111,1,0,0,0.8926,Basalt_rect,2,0.893,1,15,0,15,0,1,,,,,,,,,,,,,
66060f19dda14ccd05dfcef9,SCN,2024-06-21_10h47.25.031,LearnStrategy,2023.2.3,Win32,59.88023952,8,2,1,,,,,,,,8,14,,,,,,,,,,,8,1.442,1,,,,,,0.356481481,-0.391666667,1,0,0,1.4422,Pumice_rect,0,0,0,0,1,
66060f19dda14ccd05dfcef9,SCN,2024-06-21_10h47.25.031,LearnStrategy,2023.2.3,Win32,59.88023952,8,2,2,,,,,,,,6,11,,,,,,,,,,,6,9.659,1,,,,,,-0.108333333,-0.394444444,1,0,0,9.6591,Pegmatite_rect,1,0,1,0,1,
66060f19dda14ccd05dfcef9,SCN,2024-06-21_10h47.25.031,LearnStrategy,2023.2.3,Win32,59.88023952,8,2,3,,,,,,,,4,12,,,,,,,,,,,2,2.256,0,,,,,,-0.181481481,-0.237037037,1,0,0,2.2558,Basalt_rect,2,0,2,0,1,
66060f19dda14ccd05dfcef9,SCN,2024-06-21_10h47.25.031,LearnStrategy,2023.2.3,Win32,59.88023952,8,2,4,,,,,,,,7,16,,,,,,,,,,,7,5.945,1,,,,,,0.103703704,-0.389814815,1,0,0,5.9451,Peridotite_rect,3,0,3,0,1,
66060f19dda14ccd05dfcef9,SCN,2024-06-21_10h47.25.031,LearnStrategy,2023.2.3,Win32,59.88023952,8,2,5,,,,,,,,2,08,,,,,,,,,,,2,2.69,1,,,,,,-0.102777778,-0.242592593,1,0,0,2.6902,Basalt_rect,4,0,4,0,1,
66060f19dda14ccd05dfcef9,SCN,2024-06-21_10h47.25.031,LearnStrategy,2023.2.3,Win32,59.88023952,8,2,6,,,,,,,,3,16,,,,,,,,,,,1,2.037,0,,,,,,-0.397222222,-0.246296296,1,0,0,2.0368,Andesite_rect,5,0,5,0,1,
66060f19dda14ccd05dfcef9,SCN,2024-06-21_10h47.25.031,LearnStrategy,2023.2.3,Win32,59.88023952,8,2,7,,,,,,,,8,10,,,,,,,,,,,8,1.075,1,,,,,,0.397222222,-0.403703704,1,0,0,1.0749,Pumice_rect,6,0,6,0,1,
66060f19dda14ccd05dfcef9,SCN,2024-06-21_10h47.25.031,LearnStrategy,2023.2.3,Win32,59.88023952,8,2,8,,,,,,,,1,16,,,,,,,,,,,1,1.76,1,,,,,,-0.450925926,-0.233333333,1,0,0,1.7598,Andesite_rect,7,0,7,0,1,
66060f19dda14ccd05dfcef9,SCN,2024-06-21_10h47.25.031,LearnStrategy,2023.2.3,Win32,59.88023952,8,2,9,,,,,,,,6,13,,,,,,,,,,,6,6.327,1,,,,,,-0.141666667,-0.381481481,1,0,0,6.3271,Pegmatite_rect,8,0,8,0,1,
66060f19dda14ccd05dfcef9,SCN,2024-06-21_10h47.25.031,LearnStrategy,2023.2.3,Win32,59.88023952,8,2,10,,,,,,,,1,11,,,,,,,,,,,1,1.453,1,,,,,,-0.416666667,-0.255555556,1,0,0,1.4531,Andesite_rect,9,0,9,0,1,
66060f19dda14ccd05dfcef9,SCN,2024-06-21_10h47.25.031,LearnStrategy,2023.2.3,Win32,59.88023952,8,2,11,,,,,,,,7,08,,,,,,,,,,,7,3.359,1,,,,,,0.067592593,-0.4,1,0,0,3.359,Peridotite_rect,10,0,10,0,1,
66060f19dda14ccd05dfcef9,SCN,2024-06-21_10h47.25.031,LearnStrategy,2023.2.3,Win32,59.88023952,8,2,12,,,,,,,,4,13,,,,,,,,,,,2,2.955,0,,,,,,-0.071296296,-0.261111111,1,0,0,2.955,Basalt_rect,11,0,11,0,1,
66060f19dda14ccd05dfcef9,SCN,2024-06-21_10h47.25.031,LearnStrategy,2023.2.3,Win32,59.88023952,8,2,13,,,,,,,,3,07,,,,,,,,,,,3,1.62,1,,,,,,0.112962963,-0.22962963,1,0,0,1.6202,Diorite_rect,12,0,12,0,1,
66060f19dda14ccd05dfcef9,SCN,2024-06-21_10h47.25.031,LearnStrategy,2023.2.3,Win32,59.88023952,8,2,14,,,,,,,,2,06,,,,,,,,,,,2,1.563,1,,,,,,-0.07962963,-0.239814815,1,0,0,1.5629,Basalt_rect,13,0,13,0,1,
66060f19dda14ccd05dfcef9,SCN,2024-06-21_10h47.25.031,LearnStrategy,2023.2.3,Win32,59.88023952,8,2,15,,,,,,,,5,06,,,,,,,,,,,5,1.293,1,,,,,,-0.362037037,-0.388888889,1,0,0,1.2935,Obsidian_rect,14,0,14,0,1,
66060f19dda14ccd05dfcef9,SCN,2024-06-21_10h47.25.031,LearnStrategy,2023.2.3,Win32,59.88023952,8,2,16,,,,,,,,5,14,,,,,,,,,,,5,0.86,1,,,,,,-0.32037037,-0.394444444,1,0,0,0.86,Obsidian_rect,15,0,15,0,1,
66060f19dda14ccd05dfcef9,SCN,2024-06-21_10h47.25.031,LearnStrategy,2023.2.3,Win32,59.88023952,9,1,1,-0.209259259,-0.243518519,1,0,0,1.0323,Obsidian_05,5,05,2,3,1.032,-0.324074074,-0.389814815,1,0,0,1.2099,Obsidian_rect,5,1.21,1,0,0,0,0,1,,,,,,,,,,,,,
66060f19dda14ccd05dfcef9,SCN,2024-06-21_10h47.25.031,LearnStrategy,2023.2.3,Win32,59.88023952,9,1,2,-0.251851852,-0.263888889,1,0,0,1.0311,Obsidian_05,5,05,2,3,1.031,-0.369444444,-0.405555556,1,0,0,0.912,Obsidian_rect,5,0.912,1,1,0,1,0,1,,,,,,,,,,,,,
66060f19dda14ccd05dfcef9,SCN,2024-06-21_10h47.25.031,LearnStrategy,2023.2.3,Win32,59.88023952,9,1,3,-0.228703704,-0.260185185,1,0,0,1.4316,Obsidian_05,5,05,2,3,1.432,-0.376851852,-0.400925926,1,0,0,0.8102,Obsidian_rect,5,0.81,1,2,0,2,0,1,,,,,,,,,,,,,
66060f19dda14ccd05dfcef9,SCN,2024-06-21_10h47.25.031,LearnStrategy,2023.2.3,Win32,59.88023952,9,1,4,-0.243518519,-0.264814815,1,0,0,0.7473,Obsidian_05,5,05,2,3,0.747,-0.337037037,-0.384259259,1,0,0,0.729,Obsidian_rect,5,0.729,1,3,0,3,0,1,,,,,,,,,,,,,
66060f19dda14ccd05dfcef9,SCN,2024-06-21_10h47.25.031,LearnStrategy,2023.2.3,Win32,59.88023952,9,1,5,-0.243518519,-0.253703704,1,0,0,1.6618,Obsidian_05,5,05,2,3,1.662,-0.381481481,-0.401851852,1,0,0,0.9609,Obsidian_rect,5,0.961,1,4,0,4,0,1,,,,,,,,,,,,,
66060f19dda14ccd05dfcef9,SCN,2024-06-21_10h47.25.031,LearnStrategy,2023.2.3,Win32,59.88023952,9,1,6,-0.231481481,-0.261111111,1,0,0,1.2686,Obsidian_05,5,05,2,3,1.269,-0.392592593,-0.403703704,1,0,0,0.6445,Obsidian_rect,5,0.645,1,5,0,5,0,1,,,,,,,,,,,,,
66060f19dda14ccd05dfcef9,SCN,2024-06-21_10h47.25.031,LearnStrategy,2023.2.3,Win32,59.88023952,9,1,7,-0.221296296,-0.282407407,1,0,0,0.7683,Obsidian_05,5,05,2,3,0.768,-0.385185185,-0.410185185,1,0,0,0.978,Obsidian_rect,5,0.978,1,6,0,6,0,1,,,,,,,,,,,,,
66060f19dda14ccd05dfcef9,SCN,2024-06-21_10h47.25.031,LearnStrategy,2023.2.3,Win32,59.88023952,9,1,8,-0.212037037,-0.237037037,1,0,0,0.8857,Obsidian_05,5,05,2,3,0.886,-0.316666667,-0.393518519,1,0,0,0.7266,Obsidian_rect,5,0.727,1,7,0,7,0,1,,,,,,,,,,,,,
66060f19dda14ccd05dfcef9,SCN,2024-06-21_10h47.25.031,LearnStrategy,2023.2.3,Win32,59.88023952,9,1,9,-0.205555556,-0.244444444,1,0,0,0.902,Obsidian_05,5,05,2,3,0.902,-0.364814815,-0.409259259,1,0,0,0.7595,Obsidian_rect,5,0.759,1,8,0,8,0,1,,,,,,,,,,,,,
66060f19dda14ccd05dfcef9,SCN,2024-06-21_10h47.25.031,LearnStrategy,2023.2.3,Win32,59.88023952,9,1,10,-0.086111111,-0.24537037,1,0,0,1.4683,Pegmatite_16,6,16,2,4,1.468,0.116666667,-0.389814815,1,0,0,2.3266,Peridotite_rect,7,2.327,0,9,0,9,0,1,,,,,,,,,,,,,
66060f19dda14ccd05dfcef9,SCN,2024-06-21_10h47.25.031,LearnStrategy,2023.2.3,Win32,59.88023952,9,1,11,-0.087037037,0.097222222,1,0,0,0.9191,Obsidian_07,5,07,4,4,0.919,-0.367592593,-0.397222222,1,0,0,1.2418,Obsidian_rect,5,1.242,1,10,0,10,0,1,,,,,,,,,,,,,
66060f19dda14ccd05dfcef9,SCN,2024-06-21_10h47.25.031,LearnStrategy,2023.2.3,Win32,59.88023952,9,1,12,0.425925926,0.093518519,1,0,0,1.4199,Basalt_02,2,02,4,7,1.42,-0.065740741,-0.241666667,1,0,0,0.8114,Basalt_rect,2,0.811,1,11,0,11,0,1,,,,,,,,,,,,,
66060f19dda14ccd05dfcef9,SCN,2024-06-21_10h47.25.031,LearnStrategy,2023.2.3,Win32,59.88023952,9,1,13,-0.059259259,0.111111111,1,0,0,0.9353,Obsidian_07,5,07,4,4,0.935,-0.344444444,-0.397222222,1,0,0,0.9749,Obsidian_rect,5,0.975,1,12,0,12,0,1,,,,,,,,,,,,,
66060f19dda14ccd05dfcef9,SCN,2024-06-21_10h47.25.031,LearnStrategy,2023.2.3,Win32,59.88023952,9,1,14,-0.373148148,0.118518519,1,0,0,1.2839,Gabbro_09,4,09,4,2,1.284,-0.321296296,-0.243518519,1,0,0,1.5799,Andesite_rect,1,1.58,0,13,0,13,0,1,,,,,,,,,,,,,
66060f19dda14ccd05dfcef9,SCN,2024-06-21_10h47.25.031,LearnStrategy,2023.2.3,Win32,59.88023952,9,1,15,0.080555556,0.112962963,1,0,0,0.8855,Basalt_16,2,16,4,5,0.885,-0.112037037,-0.249074074,1,0,0,0.9606,Basalt_rect,2,0.961,1,14,0,14,0,1,,,,,,,,,,,,,
66060f19dda14ccd05dfcef9,SCN,2024-06-21_10h47.25.031,LearnStrategy,2023.2.3,Win32,59.88023952,9,1,16,0.421296296,-0.091666667,1,0,0,1.2515,Pegmatite_08,6,08,3,7,1.251,-0.037037037,-0.397222222,1,0,0,1.1972,Pegmatite_rect,6,1.197,1,15,0,15,0,1,,,,,,,,,,,,,
66060f19dda14ccd05dfcef9,SCN,2024-06-21_10h47.25.031,LearnStrategy,2023.2.3,Win32,59.88023952,9,2,1,,,,,,,,1,07,,,,,,,,,,,1,33.95,1,,,,,,-0.343518519,-0.22962963,1,0,0,33.95,Andesite_rect,0,0,0,0,1,
66060f19dda14ccd05dfcef9,SCN,2024-06-21_10h47.25.031,LearnStrategy,2023.2.3,Win32,59.88023952,9,2,2,,,,,,,,7,13,,,,,,,,,,,7,7.877,1,,,,,,0.119444444,-0.389814815,1,0,0,7.8772,Peridotite_rect,1,0,1,0,1,
66060f19dda14ccd05dfcef9,SCN,2024-06-21_10h47.25.031,LearnStrategy,2023.2.3,Win32,59.88023952,9,2,3,,,,,,,,3,09,,,,,,,,,,,3,6.027,1,,,,,,0.072222222,-0.261111111,1,0,0,6.0274,Diorite_rect,2,0,2,0,1,
66060f19dda14ccd05dfcef9,SCN,2024-06-21_10h47.25.031,LearnStrategy,2023.2.3,Win32,59.88023952,9,2,4,,,,,,,,8,04,,,,,,,,,,,8,1.028,1,,,,,,0.40462963,-0.409259259,1,0,0,1.0283,Pumice_rect,3,0,3,0,1,
66060f19dda14ccd05dfcef9,SCN,2024-06-21_10h47.25.031,LearnStrategy,2023.2.3,Win32,59.88023952,9,2,5,,,,,,,,2,01,,,,,,,,,,,2,1.787,1,,,,,,-0.151851852,-0.247222222,1,0,0,1.7873,Basalt_rect,4,0,4,0,1,
66060f19dda14ccd05dfcef9,SCN,2024-06-21_10h47.25.031,LearnStrategy,2023.2.3,Win32,59.88023952,9,2,6,,,,,,,,4,01,,,,,,,,,,,3,1.229,0,,,,,,0.183333333,-0.240740741,1,0,0,1.2286,Diorite_rect,5,0,5,0,1,
66060f19dda14ccd05dfcef9,SCN,2024-06-21_10h47.25.031,LearnStrategy,2023.2.3,Win32,59.88023952,9,2,7,,,,,,,,5,02,,,,,,,,,,,5,1.1,1,,,,,,-0.315740741,-0.415740741,1,0,0,1.0998,Obsidian_rect,6,0,6,0,1,
66060f19dda14ccd05dfcef9,SCN,2024-06-21_10h47.25.031,LearnStrategy,2023.2.3,Win32,59.88023952,9,2,8,,,,,,,,5,12,,,,,,,,,,,5,0.599,1,,,,,,-0.341666667,-0.405555556,1,0,0,0.599,Obsidian_rect,7,0,7,0,1,
66060f19dda14ccd05dfcef9,SCN,2024-06-21_10h47.25.031,LearnStrategy,2023.2.3,Win32,59.88023952,9,2,9,,,,,,,,6,03,,,,,,,,,,,6,14.266,1,,,,,,-0.119444444,-0.410185185,1,0,0,14.2656,Pegmatite_rect,8,0,8,0,1,
66060f19dda14ccd05dfcef9,SCN,2024-06-21_10h47.25.031,LearnStrategy,2023.2.3,Win32,59.88023952,9,2,10,,,,,,,,7,15,,,,,,,,,,,7,5.058,1,,,,,,0.110185185,-0.4,1,0,0,5.058,Peridotite_rect,9,0,9,0,1,
66060f19dda14ccd05dfcef9,SCN,2024-06-21_10h47.25.031,LearnStrategy,2023.2.3,Win32,59.88023952,9,2,11,,,,,,,,1,14,,,,,,,,,,,1,2.03,1,,,,,,-0.336111111,-0.248148148,1,0,0,2.0302,Andesite_rect,10,0,10,0,1,
66060f19dda14ccd05dfcef9,SCN,2024-06-21_10h47.25.031,LearnStrategy,2023.2.3,Win32,59.88023952,9,2,12,,,,,,,,8,13,,,,,,,,,,,8,1.352,1,,,,,,0.433333333,-0.409259259,1,0,0,1.3519,Pumice_rect,11,0,11,0,1,
66060f19dda14ccd05dfcef9,SCN,2024-06-21_10h47.25.031,LearnStrategy,2023.2.3,Win32,59.88023952,9,2,13,,,,,,,,6,15,,,,,,,,,,,6,5.72,1,,,,,,-0.112037037,-0.410185185,1,0,0,5.7198,Pegmatite_rect,12,0,12,0,1,
66060f19dda14ccd05dfcef9,SCN,2024-06-21_10h47.25.031,LearnStrategy,2023.2.3,Win32,59.88023952,9,2,14,,,,,,,,2,14,,,,,,,,,,,8,3.32,0,,,,,,0.412962963,-0.394444444,1,0,0,3.3199,Pumice_rect,13,0,13,0,1,
66060f19dda14ccd05dfcef9,SCN,2024-06-21_10h47.25.031,LearnStrategy,2023.2.3,Win32,59.88023952,9,2,15,,,,,,,,3,14,,,,,,,,,,,1,3.186,0,,,,,,-0.387962963,-0.246296296,1,0,0,3.1859,Andesite_rect,14,0,14,0,1,
66060f19dda14ccd05dfcef9,SCN,2024-06-21_10h47.25.031,LearnStrategy,2023.2.3,Win32,59.88023952,9,2,16,,,,,,,,4,14,,,,,,,,,,,2,1.552,0,,,,,,-0.119444444,-0.250925926,1,0,0,1.552,Basalt_rect,15,0,15,0,1,
66060f19dda14ccd05dfcef9,SCN,2024-06-21_10h47.25.031,LearnStrategy,2023.2.3,Win32,59.88023952,,,,,,,,,,,,,,,,,,,,,,,,,,,,,,,,,,,,,,,,,,,1
66060f19dda14ccd05dfcef9,SCN,2024-06-21_10h47.25.031,LearnStrategy,2023.2.3,Win32,59.88023952,,,,,,,,,,,,,,,,,,,,,,,,,,,,,,,,,,,,,,,,,,,
66060f19dda14ccd05dfcef9,SCN,2024-06-21_10h47.25.031,LearnStrategy,2023.2.3,Win32,59.88023952,,,,,,,,,,,1,09,1,1,,,,,,,,,,,,,,,,,,,,,,,,,,,,,
66060f19dda14ccd05dfcef9,SCN,2024-06-21_10h47.25.031,LearnStrategy,2023.2.3,Win32,59.88023952,,,,,,,,,,,2,11,1,2,,,,,,,,,,,,,,,,,,,,,,,,,,,,,
66060f19dda14ccd05dfcef9,SCN,2024-06-21_10h47.25.031,LearnStrategy,2023.2.3,Win32,59.88023952,,,,,,,,,,,6,09,1,3,,,,,,,,,,,,,,,,,,,,,,,,,,,,,
66060f19dda14ccd05dfcef9,SCN,2024-06-21_10h47.25.031,LearnStrategy,2023.2.3,Win32,59.88023952,,,,,,,,,,,7,07,1,4,,,,,,,,,,,,,,,,,,,,,,,,,,,,,
66060f19dda14ccd05dfcef9,SCN,2024-06-21_10h47.25.031,LearnStrategy,2023.2.3,Win32,59.88023952,,,,,,,,,,,8,05,1,5,,,,,,,,,,,,,,,,,,,,,,,,,,,,,
66060f19dda14ccd05dfcef9,SCN,2024-06-21_10h47.25.031,LearnStrategy,2023.2.3,Win32,59.88023952,,,,,,,,,,,4,16,1,6,,,,,,,,,,,,,,,,,,,,,,,,,,,,,
66060f19dda14ccd05dfcef9,SCN,2024-06-21_10h47.25.031,LearnStrategy,2023.2.3,Win32,59.88023952,,,,,,,,,,,3,08,1,7,,,,,,,,,,,,,,,,,,,,,,,,,,,,,
66060f19dda14ccd05dfcef9,SCN,2024-06-21_10h47.25.031,LearnStrategy,2023.2.3,Win32,59.88023952,,,,,,,,,,,3,10,1,8,,,,,,,,,,,,,,,,,,,,,,,,,,,,,
66060f19dda14ccd05dfcef9,SCN,2024-06-21_10h47.25.031,LearnStrategy,2023.2.3,Win32,59.88023952,,,,,,,,,,,7,05,2,1,,,,,,,,,,,,,,,,,,,,,,,,,,,,,
66060f19dda14ccd05dfcef9,SCN,2024-06-21_10h47.25.031,LearnStrategy,2023.2.3,Win32,59.88023952,,,,,,,,,,,6,05,2,2,,,,,,,,,,,,,,,,,,,,,,,,,,,,,
66060f19dda14ccd05dfcef9,SCN,2024-06-21_10h47.25.031,LearnStrategy,2023.2.3,Win32,59.88023952,,,,,,,,,,,5,05,2,3,,,,,,,,,,,,,,,,,,,,,,,,,,,,,
66060f19dda14ccd05dfcef9,SCN,2024-06-21_10h47.25.031,LearnStrategy,2023.2.3,Win32,59.88023952,,,,,,,,,,,6,16,2,4,,,,,,,,,,,,,,,,,,,,,,,,,,,,,
66060f19dda14ccd05dfcef9,SCN,2024-06-21_10h47.25.031,LearnStrategy,2023.2.3,Win32,59.88023952,,,,,,,,,,,6,07,2,5,,,,,,,,,,,,,,,,,,,,,,,,,,,,,
66060f19dda14ccd05dfcef9,SCN,2024-06-21_10h47.25.031,LearnStrategy,2023.2.3,Win32,59.88023952,,,,,,,,,,,1,06,2,6,,,,,,,,,,,,,,,,,,,,,,,,,,,,,
66060f19dda14ccd05dfcef9,SCN,2024-06-21_10h47.25.031,LearnStrategy,2023.2.3,Win32,59.88023952,,,,,,,,,,,3,13,2,7,,,,,,,,,,,,,,,,,,,,,,,,,,,,,
66060f19dda14ccd05dfcef9,SCN,2024-06-21_10h47.25.031,LearnStrategy,2023.2.3,Win32,59.88023952,,,,,,,,,,,7,12,2,8,,,,,,,,,,,,,,,,,,,,,,,,,,,,,
66060f19dda14ccd05dfcef9,SCN,2024-06-21_10h47.25.031,LearnStrategy,2023.2.3,Win32,59.88023952,,,,,,,,,,,4,15,3,1,,,,,,,,,,,,,,,,,,,,,,,,,,,,,
66060f19dda14ccd05dfcef9,SCN,2024-06-21_10h47.25.031,LearnStrategy,2023.2.3,Win32,59.88023952,,,,,,,,,,,7,14,3,2,,,,,,,,,,,,,,,,,,,,,,,,,,,,,
66060f19dda14ccd05dfcef9,SCN,2024-06-21_10h47.25.031,LearnStrategy,2023.2.3,Win32,59.88023952,,,,,,,,,,,5,10,3,3,,,,,,,,,,,,,,,,,,,,,,,,,,,,,
66060f19dda14ccd05dfcef9,SCN,2024-06-21_10h47.25.031,LearnStrategy,2023.2.3,Win32,59.88023952,,,,,,,,,,,7,10,3,4,,,,,,,,,,,,,,,,,,,,,,,,,,,,,
66060f19dda14ccd05dfcef9,SCN,2024-06-21_10h47.25.031,LearnStrategy,2023.2.3,Win32,59.88023952,,,,,,,,,,,4,03,3,5,,,,,,,,,,,,,,,,,,,,,,,,,,,,,
66060f19dda14ccd05dfcef9,SCN,2024-06-21_10h47.25.031,LearnStrategy,2023.2.3,Win32,59.88023952,,,,,,,,,,,2,04,3,6,,,,,,,,,,,,,,,,,,,,,,,,,,,,,
66060f19dda14ccd05dfcef9,SCN,2024-06-21_10h47.25.031,LearnStrategy,2023.2.3,Win32,59.88023952,,,,,,,,,,,6,08,3,7,,,,,,,,,,,,,,,,,,,,,,,,,,,,,
66060f19dda14ccd05dfcef9,SCN,2024-06-21_10h47.25.031,LearnStrategy,2023.2.3,Win32,59.88023952,,,,,,,,,,,4,08,3,8,,,,,,,,,,,,,,,,,,,,,,,,,,,,,
66060f19dda14ccd05dfcef9,SCN,2024-06-21_10h47.25.031,LearnStrategy,2023.2.3,Win32,59.88023952,,,,,,,,,,,3,02,4,1,,,,,,,,,,,,,,,,,,,,,,,,,,,,,
66060f19dda14ccd05dfcef9,SCN,2024-06-21_10h47.25.031,LearnStrategy,2023.2.3,Win32,59.88023952,,,,,,,,,,,4,09,4,2,,,,,,,,,,,,,,,,,,,,,,,,,,,,,
66060f19dda14ccd05dfcef9,SCN,2024-06-21_10h47.25.031,LearnStrategy,2023.2.3,Win32,59.88023952,,,,,,,,,,,3,12,4,3,,,,,,,,,,,,,,,,,,,,,,,,,,,,,
66060f19dda14ccd05dfcef9,SCN,2024-06-21_10h47.25.031,LearnStrategy,2023.2.3,Win32,59.88023952,,,,,,,,,,,5,07,4,4,,,,,,,,,,,,,,,,,,,,,,,,,,,,,
66060f19dda14ccd05dfcef9,SCN,2024-06-21_10h47.25.031,LearnStrategy,2023.2.3,Win32,59.88023952,,,,,,,,,,,2,16,4,5,,,,,,,,,,,,,,,,,,,,,,,,,,,,,
66060f19dda14ccd05dfcef9,SCN,2024-06-21_10h47.25.031,LearnStrategy,2023.2.3,Win32,59.88023952,,,,,,,,,,,8,02,4,6,,,,,,,,,,,,,,,,,,,,,,,,,,,,,
66060f19dda14ccd05dfcef9,SCN,2024-06-21_10h47.25.031,LearnStrategy,2023.2.3,Win32,59.88023952,,,,,,,,,,,2,02,4,7,,,,,,,,,,,,,,,,,,,,,,,,,,,,,
66060f19dda14ccd05dfcef9,SCN,2024-06-21_10h47.25.031,LearnStrategy,2023.2.3,Win32,59.88023952,,,,,,,,,,,8,15,4,8,,,,,,,,,,,,,,,,,,,,,,,,,,,,,
66060f19dda14ccd05dfcef9,SCN,2024-06-21_10h47.25.031,LearnStrategy,2023.2.3,Win32,59.88023952,,,,,,,,,,,1,05,5,1,,,,,,,,,,,,,,,,,,,,,,,,,,,,,
66060f19dda14ccd05dfcef9,SCN,2024-06-21_10h47.25.031,LearnStrategy,2023.2.3,Win32,59.88023952,,,,,,,,,,,7,06,5,2,,,,,,,,,,,,,,,,,,,,,,,,,,,,,
66060f19dda14ccd05dfcef9,SCN,2024-06-21_10h47.25.031,LearnStrategy,2023.2.3,Win32,59.88023952,,,,,,,,,,,1,01,5,3,,,,,,,,,,,,,,,,,,,,,,,,,,,,,
66060f19dda14ccd05dfcef9,SCN,2024-06-21_10h47.25.031,LearnStrategy,2023.2.3,Win32,59.88023952,,,,,,,,,,,1,02,5,4,,,,,,,,,,,,,,,,,,,,,,,,,,,,,
66060f19dda14ccd05dfcef9,SCN,2024-06-21_10h47.25.031,LearnStrategy,2023.2.3,Win32,59.88023952,,,,,,,,,,,8,16,5,5,,,,,,,,,,,,,,,,,,,,,,,,,,,,,
66060f19dda14ccd05dfcef9,SCN,2024-06-21_10h47.25.031,LearnStrategy,2023.2.3,Win32,59.88023952,,,,,,,,,,,8,09,5,6,,,,,,,,,,,,,,,,,,,,,,,,,,,,,
66060f19dda14ccd05dfcef9,SCN,2024-06-21_10h47.25.031,LearnStrategy,2023.2.3,Win32,59.88023952,,,,,,,,,,,2,10,5,7,,,,,,,,,,,,,,,,,,,,,,,,,,,,,
66060f19dda14ccd05dfcef9,SCN,2024-06-21_10h47.25.031,LearnStrategy,2023.2.3,Win32,59.88023952,,,,,,,,,,,4,05,5,8,,,,,,,,,,,,,,,,,,,,,,,,,,,,,
66060f19dda14ccd05dfcef9,SCN,2024-06-21_10h47.25.031,LearnStrategy,2023.2.3,Win32,59.88023952,,,,,,,,,,,6,12,6,1,,,,,,,,,,,,,,,,,,,,,,,,,,,,,
66060f19dda14ccd05dfcef9,SCN,2024-06-21_10h47.25.031,LearnStrategy,2023.2.3,Win32,59.88023952,,,,,,,,,,,5,04,6,2,,,,,,,,,,,,,,,,,,,,,,,,,,,,,
66060f19dda14ccd05dfcef9,SCN,2024-06-21_10h47.25.031,LearnStrategy,2023.2.3,Win32,59.88023952,,,,,,,,,,,5,09,6,3,,,,,,,,,,,,,,,,,,,,,,,,,,,,,
66060f19dda14ccd05dfcef9,SCN,2024-06-21_10h47.25.031,LearnStrategy,2023.2.3,Win32,59.88023952,,,,,,,,,,,8,03,6,4,,,,,,,,,,,,,,,,,,,,,,,,,,,,,
66060f19dda14ccd05dfcef9,SCN,2024-06-21_10h47.25.031,LearnStrategy,2023.2.3,Win32,59.88023952,,,,,,,,,,,5,16,6,5,,,,,,,,,,,,,,,,,,,,,,,,,,,,,
66060f19dda14ccd05dfcef9,SCN,2024-06-21_10h47.25.031,LearnStrategy,2023.2.3,Win32,59.88023952,,,,,,,,,,,1,04,6,6,,,,,,,,,,,,,,,,,,,,,,,,,,,,,
66060f19dda14ccd05dfcef9,SCN,2024-06-21_10h47.25.031,LearnStrategy,2023.2.3,Win32,59.88023952,,,,,,,,,,,3,15,6,7,,,,,,,,,,,,,,,,,,,,,,,,,,,,,
66060f19dda14ccd05dfcef9,SCN,2024-06-21_10h47.25.031,LearnStrategy,2023.2.3,Win32,59.88023952,,,,,,,,,,,2,12,6,8,,,,,,,,,,,,,,,,,,,,,,,,,,,,,