participant,condition,date,expName,psychopyVersion,OS,frameRate,block,phase,trial,learn_mouse_2.x,learn_mouse_2.y,learn_mouse_2.leftButton,learn_mouse_2.midButton,learn_mouse_2.rightButton,learn_mouse_2.time,learn_mouse_2.clicked_name,cat,token,row,col,t_select,cat_mouse_l.x,cat_mouse_l.y,cat_mouse_l.leftButton,cat_mouse_l.midButton,cat_mouse_l.rightButton,cat_mouse_l.time,cat_mouse_l.clicked_name,resp,t_resp,corr,train_trials.thisRepN,train_trials.thisTrialN,train_trials.thisN,train_trials.thisIndex,train_trials.ran,cat_mouse_t.x,cat_mouse_t.y,cat_mouse_t.leftButton,cat_mouse_t.midButton,cat_mouse_t.rightButton,cat_mouse_t.time,cat_mouse_t.clicked_name,test_trials.thisRepN,test_trials.thisTrialN,test_trials.thisN,test_trials.thisIndex,test_trials.ran,Bonus
660dfa1d1b035ba808f2b45f,TCR,2024-06-21_12h46.35.056,LearnStrategy,2023.2.3,Win32,166.6666667,,,,,,,,,,,,,,,,,,,,,,,,,,,,,,,,,,,,,,,,,,,
660dfa1d1b035ba808f2b45f,TCR,2024-06-21_12h46.35.056,LearnStrategy,2023.2.3,Win32,166.6666667,1,1,1,-0.004316252,-0.001494265,1,0,0,2.7294,rock_grid_rect_2,1,11,-1,-1,2.729,0.085652821,-0.240578728,1,0,0,3.2189,Diorite_rect,3,3.219,0,0,0,0,0,1,,,,,,,,,,,,,
660dfa1d1b035ba808f2b45f,TCR,2024-06-21_12h46.35.056,LearnStrategy,2023.2.3,Win32,166.6666667,1,1,2,-0.103448842,-0.00732558,1,0,0,1.5819,rock_grid_rect_2,1,06,-1,-1,1.582,0.326403385,-0.407188066,1,0,0,3.6223,Pumice_rect,8,3.622,0,1,0,1,0,1,,,,,,,,,,,,,
660dfa1d1b035ba808f2b45f,TCR,2024-06-21_12h46.35.056,LearnStrategy,2023.2.3,Win32,166.6666667,1,1,3,-0.146767315,-0.004826429,1,0,0,1.1993,rock_grid_rect_2,7,12,-1,-1,1.199,-0.123441977,-0.257239662,1,0,0,3.5556,Basalt_rect,2,3.556,0,2,0,2,0,1,,,,,,,,,,,,,
660dfa1d1b035ba808f2b45f,TCR,2024-06-21_12h46.35.056,LearnStrategy,2023.2.3,Win32,166.6666667,1,1,4,-0.126774179,-0.014822997,1,0,0,0.9802,rock_grid_rect_2,5,04,-1,-1,0.98,-0.358361226,-0.397191536,1,0,0,1.3062,Obsidian_rect,5,1.306,1,3,0,3,0,1,,,,,,,,,,,,,
660dfa1d1b035ba808f2b45f,TCR,2024-06-21_12h46.35.056,LearnStrategy,2023.2.3,Win32,166.6666667,1,1,5,0.05732918,-0.013156896,1,0,0,1.2873,rock_grid_rect_2,7,16,-1,-1,1.287,0.110644183,-0.385528905,1,0,0,3.1654,Peridotite_rect,7,3.165,1,4,0,4,0,1,,,,,,,,,,,,,
660dfa1d1b035ba808f2b45f,TCR,2024-06-21_12h46.35.056,LearnStrategy,2023.2.3,Win32,166.6666667,1,1,6,0.078155404,-0.009824732,1,0,0,1.7363,rock_grid_rect_2,2,14,-1,-1,1.736,0.102313754,-0.260571864,1,0,0,3.7026,Diorite_rect,3,3.703,0,5,0,5,0,1,,,,,,,,,,,,,
660dfa1d1b035ba808f2b45f,TCR,2024-06-21_12h46.35.056,LearnStrategy,2023.2.3,Win32,166.6666667,1,1,7,0.011511594,-0.001494265,1,0,0,1.5257,rock_grid_rect_2,8,04,-1,-1,1.526,0.337233003,-0.402189839,1,0,0,2.8212,Pumice_rect,8,2.821,1,6,0,6,0,1,,,,,,,,,,,,,
660dfa1d1b035ba808f2b45f,TCR,2024-06-21_12h46.35.056,LearnStrategy,2023.2.3,Win32,166.6666667,1,1,8,0.044000448,-0.015656047,1,0,0,1.1994,rock_grid_rect_2,5,11,-1,-1,1.199,-0.296715756,-0.418017684,1,0,0,2.4198,Obsidian_rect,5,2.42,1,7,0,7,0,1,,,,,,,,,,,,,
660dfa1d1b035ba808f2b45f,TCR,2024-06-21_12h46.35.056,LearnStrategy,2023.2.3,Win32,166.6666667,1,1,9,-0.045968624,0.008502303,1,0,0,1.0444,rock_grid_rect_2,4,16,-1,-1,1.044,-0.096784514,-0.255573561,1,0,0,8.1897,Basalt_rect,2,8.19,0,8,0,8,0,1,,,,,,,,,,,,,
660dfa1d1b035ba808f2b45f,TCR,2024-06-21_12h46.35.056,LearnStrategy,2023.2.3,Win32,166.6666667,1,1,10,0.043167436,-0.001494265,1,0,0,1.9088,rock_grid_rect_2,8,02,-1,-1,1.909,0.054830067,-0.238912627,1,0,0,4.4155,Diorite_rect,3,4.415,0,9,0,9,0,1,,,,,,,,,,,,,
660dfa1d1b035ba808f2b45f,TCR,2024-06-21_12h46.35.056,LearnStrategy,2023.2.3,Win32,166.6666667,1,1,11,-0.037638119,0.000171836,1,0,0,1.0203,rock_grid_rect_2,6,06,-1,-1,1.02,-0.397514409,-0.253074447,1,0,0,4.1309,Andesite_rect,1,4.131,0,10,0,10,0,1,,,,,,,,,,,,,
660dfa1d1b035ba808f2b45f,TCR,2024-06-21_12h46.35.056,LearnStrategy,2023.2.3,Win32,166.6666667,1,1,12,-0.122608965,-0.008991681,1,0,0,1.0164,rock_grid_rect_2,3,13,-1,-1,1.016,0.109811171,-0.24391093,1,0,0,4.2935,Diorite_rect,3,4.293,1,11,0,11,0,1,,,,,,,,,,,,,
660dfa1d1b035ba808f2b45f,TCR,2024-06-21_12h46.35.056,LearnStrategy,2023.2.3,Win32,166.6666667,1,1,13,-0.11427846,0.004337089,1,0,0,0.7807,rock_grid_rect_2,4,12,-1,-1,0.781,-0.163428249,-0.259738776,1,0,0,2.1297,Basalt_rect,2,2.13,0,12,0,12,0,1,,,,,,,,,,,,,
660dfa1d1b035ba808f2b45f,TCR,2024-06-21_12h46.35.056,LearnStrategy,2023.2.3,Win32,166.6666667,1,1,14,-0.155097744,-0.003993378,1,0,0,0.8111,rock_grid_rect_2,3,07,-1,-1,0.811,-0.429170214,-0.413019457,1,0,0,6.1739,Obsidian_rect,5,6.174,0,13,0,13,0,1,,,,,,,,,,,,,
660dfa1d1b035ba808f2b45f,TCR,2024-06-21_12h46.35.056,LearnStrategy,2023.2.3,Win32,166.6666667,1,1,15,-0.055965154,-0.003160328,1,0,0,1.3698,rock_grid_rect_2,2,11,-1,-1,1.37,0.349728647,-0.396358523,1,0,0,2.5689,Pumice_rect,8,2.569,0,14,0,14,0,1,,,,,,,,,,,,,
660dfa1d1b035ba808f2b45f,TCR,2024-06-21_12h46.35.056,LearnStrategy,2023.2.3,Win32,166.6666667,1,1,16,-0.134271596,0.00600319,1,0,0,0.7943,rock_grid_rect_2,6,12,-1,-1,0.794,-0.172591766,-0.389694119,1,0,0,40.3645,Pegmatite_rect,6,40.364,1,15,0,15,0,1,,,,,,,,,,,,,
660dfa1d1b035ba808f2b45f,TCR,2024-06-21_12h46.35.056,LearnStrategy,2023.2.3,Win32,166.6666667,1,2,1,,,,,,,,6,09,,,,,,,,,,,7,12.177,0,,,,,,0.130637319,-0.408854167,1,0,0,12.1767,Peridotite_rect,0,0,0,0,1,
660dfa1d1b035ba808f2b45f,TCR,2024-06-21_12h46.35.056,LearnStrategy,2023.2.3,Win32,166.6666667,1,2,2,,,,,,,,8,14,,,,,,,,,,,8,2.205,1,,,,,,0.419704584,-0.394692422,1,0,0,2.2053,Pumice_rect,1,0,1,0,1,
660dfa1d1b035ba808f2b45f,TCR,2024-06-21_12h46.35.056,LearnStrategy,2023.2.3,Win32,166.6666667,1,2,3,,,,,,,,7,10,,,,,,,,,,,7,7.737,1,,,,,,0.125639016,-0.409687255,1,0,0,7.7372,Peridotite_rect,2,0,2,0,1,
660dfa1d1b035ba808f2b45f,TCR,2024-06-21_12h46.35.056,LearnStrategy,2023.2.3,Win32,166.6666667,1,2,4,,,,,,,,4,09,,,,,,,,,,,2,7.084,0,,,,,,-0.16509435,-0.236413514,1,0,0,7.0839,Basalt_rect,3,0,3,0,1,
660dfa1d1b035ba808f2b45f,TCR,2024-06-21_12h46.35.056,LearnStrategy,2023.2.3,Win32,166.6666667,1,2,5,,,,,,,,1,10,,,,,,,,,,,6,4.789,0,,,,,,-0.105114943,-0.378031488,1,0,0,4.7889,Pegmatite_rect,4,0,4,0,1,
660dfa1d1b035ba808f2b45f,TCR,2024-06-21_12h46.35.056,LearnStrategy,2023.2.3,Win32,166.6666667,1,2,6,,,,,,,,7,02,,,,,,,,,,,7,2.327,1,,,,,,0.08398672,-0.396358523,1,0,0,2.3275,Peridotite_rect,5,0,5,0,1,
660dfa1d1b035ba808f2b45f,TCR,2024-06-21_12h46.35.056,LearnStrategy,2023.2.3,Win32,166.6666667,1,2,7,,,,,,,,3,09,,,,,,,,,,,3,5.248,1,,,,,,0.107311981,-0.268902293,1,0,0,5.248,Diorite_rect,6,0,6,0,1,
660dfa1d1b035ba808f2b45f,TCR,2024-06-21_12h46.35.056,LearnStrategy,2023.2.3,Win32,166.6666667,1,2,8,,,,,,,,3,10,,,,,,,,,,,4,4.498,0,,,,,,0.377219199,-0.250575258,1,0,0,4.4979,Gabbro_rect,7,0,7,0,1,
660dfa1d1b035ba808f2b45f,TCR,2024-06-21_12h46.35.056,LearnStrategy,2023.2.3,Win32,166.6666667,1,2,9,,,,,,,,2,02,,,,,,,,,,,1,9.109,0,,,,,,-0.389183943,-0.231415211,1,0,0,9.1087,Andesite_rect,8,0,8,0,1,
660dfa1d1b035ba808f2b45f,TCR,2024-06-21_12h46.35.056,LearnStrategy,2023.2.3,Win32,166.6666667,1,2,10,,,,,,,,6,08,,,,,,,,,,,3,8.943,0,,,,,,0.069824899,-0.230582123,1,0,0,8.9431,Diorite_rect,9,0,9,0,1,
660dfa1d1b035ba808f2b45f,TCR,2024-06-21_12h46.35.056,LearnStrategy,2023.2.3,Win32,166.6666667,1,2,11,,,,,,,,5,05,,,,,,,,,,,7,2.447,0,,,,,,0.090651048,-0.398857637,1,0,0,2.4472,Peridotite_rect,10,0,10,0,1,
660dfa1d1b035ba808f2b45f,TCR,2024-06-21_12h46.35.056,LearnStrategy,2023.2.3,Win32,166.6666667,1,2,12,,,,,,,,4,11,,,,,,,,,,,4,7.754,1,,,,,,0.326403385,-0.263904066,1,0,0,7.7539,Gabbro_rect,11,0,11,0,1,
660dfa1d1b035ba808f2b45f,TCR,2024-06-21_12h46.35.056,LearnStrategy,2023.2.3,Win32,166.6666667,1,2,13,,,,,,,,1,04,,,,,,,,,,,2,9.754,0,,,,,,-0.130106381,-0.234747413,1,0,0,9.7542,Basalt_rect,12,0,12,0,1,
660dfa1d1b035ba808f2b45f,TCR,2024-06-21_12h46.35.056,LearnStrategy,2023.2.3,Win32,166.6666667,1,2,14,,,,,,,,2,04,,,,,,,,,,,2,15.074,1,,,,,,-0.220075416,-0.246410044,1,0,0,15.0742,Basalt_rect,13,0,13,0,1,
660dfa1d1b035ba808f2b45f,TCR,2024-06-21_12h46.35.056,LearnStrategy,2023.2.3,Win32,166.6666667,1,2,15,,,,,,,,8,06,,,,,,,,,,,8,3.877,1,,,,,,0.377219199,-0.398857637,1,0,0,3.8773,Pumice_rect,14,0,14,0,1,
660dfa1d1b035ba808f2b45f,TCR,2024-06-21_12h46.35.056,LearnStrategy,2023.2.3,Win32,166.6666667,1,2,16,,,,,,,,5,09,,,,,,,,,,,5,2.012,1,,,,,,-0.380853476,-0.398857637,1,0,0,2.0117,Obsidian_rect,15,0,15,0,1,
660dfa1d1b035ba808f2b45f,TCR,2024-06-21_12h46.35.056,LearnStrategy,2023.2.3,Win32,166.6666667,2,1,1,-0.024309388,-0.008991681,1,0,0,1.4552,rock_grid_rect_2,4,13,-1,-1,1.455,0.324737284,-0.267236192,1,0,0,4.053,Gabbro_rect,4,4.053,1,0,0,0,0,1,,,,,,,,,,,,,
660dfa1d1b035ba808f2b45f,TCR,2024-06-21_12h46.35.056,LearnStrategy,2023.2.3,Win32,166.6666667,2,1,2,-0.003483239,0.000171836,1,0,0,0.9387,rock_grid_rect_2,1,16,-1,-1,0.939,-0.377521312,-0.254740548,1,0,0,6.1233,Andesite_rect,1,6.123,1,1,0,1,0,1,,,,,,,,,,,,,
660dfa1d1b035ba808f2b45f,TCR,2024-06-21_12h46.35.056,LearnStrategy,2023.2.3,Win32,166.6666667,2,1,3,-0.048467738,0.008502303,1,0,0,1.0108,rock_grid_rect_2,1,03,-1,-1,1.011,-0.136770709,-0.247243056,1,0,0,2.6112,Basalt_rect,2,2.611,0,2,0,2,0,1,,,,,,,,,,,,,
660dfa1d1b035ba808f2b45f,TCR,2024-06-21_12h46.35.056,LearnStrategy,2023.2.3,Win32,166.6666667,2,1,4,-0.113445447,-0.008158631,1,0,0,0.8779,rock_grid_rect_2,5,07,-1,-1,0.878,-0.343366356,-0.410520268,1,0,0,2.267,Obsidian_rect,5,2.267,1,3,0,3,0,1,,,,,,,,,,,,,
660dfa1d1b035ba808f2b45f,TCR,2024-06-21_12h46.35.056,LearnStrategy,2023.2.3,Win32,166.6666667,2,1,5,-0.115944561,0.007669253,1,0,0,0.7875,rock_grid_rect_2,2,11,-1,-1,0.788,-0.115111548,-0.233914324,1,0,0,3.4802,Basalt_rect,2,3.48,1,4,0,4,0,1,,,,,,,,,,,,,
660dfa1d1b035ba808f2b45f,TCR,2024-06-21_12h46.35.056,LearnStrategy,2023.2.3,Win32,166.6666667,2,1,6,-0.025142476,0.001004887,1,0,0,0.9108,rock_grid_rect_2,3,15,-1,-1,0.911,-0.105948031,-0.381363615,1,0,0,4.2491,Pegmatite_rect,6,4.249,0,5,0,5,0,1,,,,,,,,,,,,,
660dfa1d1b035ba808f2b45f,TCR,2024-06-21_12h46.35.056,LearnStrategy,2023.2.3,Win32,166.6666667,2,1,7,-0.113445447,0.004337089,1,0,0,0.7746,rock_grid_rect_2,1,11,-1,-1,0.775,-0.36086034,-0.238079539,1,0,0,3.7521,Andesite_rect,1,3.752,1,6,0,6,0,1,,,,,,,,,,,,,
660dfa1d1b035ba808f2b45f,TCR,2024-06-21_12h46.35.056,LearnStrategy,2023.2.3,Win32,166.6666667,2,1,8,-0.086787908,-0.021487362,1,0,0,0.7506,rock_grid_rect_2,6,11,-1,-1,0.751,-0.335035889,-0.395525435,1,0,0,1.5598,Obsidian_rect,5,1.56,0,7,0,7,0,1,,,,,,,,,,,,,
660dfa1d1b035ba808f2b45f,TCR,2024-06-21_12h46.35.056,LearnStrategy,2023.2.3,Win32,166.6666667,2,1,9,-0.121775876,-0.00732558,1,0,0,1.4243,rock_grid_rect_2,7,15,-1,-1,1.424,0.143133038,-0.386361917,1,0,0,1.3295,Peridotite_rect,7,1.329,1,8,0,8,0,1,,,,,,,,,,,,,
660dfa1d1b035ba808f2b45f,TCR,2024-06-21_12h46.35.056,LearnStrategy,2023.2.3,Win32,166.6666667,2,1,10,-0.013479769,-0.013156896,1,0,0,0.7221,rock_grid_rect_2,1,11,-1,-1,0.722,-0.340867242,-0.236413514,1,0,0,1.8712,Andesite_rect,1,1.871,1,9,0,9,0,1,,,,,,,,,,,,,
660dfa1d1b035ba808f2b45f,TCR,2024-06-21_12h46.35.056,LearnStrategy,2023.2.3,Win32,166.6666667,2,1,11,-0.100949728,-0.015656047,1,0,0,0.9206,rock_grid_rect_2,6,16,-1,-1,0.921,0.428035088,-0.399690649,1,0,0,2.7997,Pumice_rect,8,2.8,0,10,0,10,0,1,,,,,,,,,,,,,
660dfa1d1b035ba808f2b45f,TCR,2024-06-21_12h46.35.056,LearnStrategy,2023.2.3,Win32,166.6666667,2,1,12,0.04733265,-0.015656047,1,0,0,0.9977,rock_grid_rect_2,6,06,-1,-1,0.998,0.387215805,-0.24391093,1,0,0,6.0865,Gabbro_rect,4,6.087,0,11,0,11,0,1,,,,,,,,,,,,,
660dfa1d1b035ba808f2b45f,TCR,2024-06-21_12h46.35.056,LearnStrategy,2023.2.3,Win32,166.6666667,2,1,13,-0.009314555,0.000171836,1,0,0,0.9003,rock_grid_rect_2,3,07,-1,-1,0.9,-0.375855211,-0.413019457,1,0,0,3.0735,Obsidian_rect,5,3.074,0,12,0,12,0,1,,,,,,,,,,,,,
660dfa1d1b035ba808f2b45f,TCR,2024-06-21_12h46.35.056,LearnStrategy,2023.2.3,Win32,166.6666667,2,1,14,-0.056798242,-0.005659479,1,0,0,0.8434,rock_grid_rect_2,4,12,-1,-1,0.843,-0.120942864,-0.232248224,1,0,0,2.238,Basalt_rect,2,2.238,0,13,0,13,0,1,,,,,,,,,,,,,
660dfa1d1b035ba808f2b45f,TCR,2024-06-21_12h46.35.056,LearnStrategy,2023.2.3,Win32,166.6666667,2,1,15,-0.026808577,0.003504038,1,0,0,0.7692,rock_grid_rect_2,5,10,-1,-1,0.769,-0.376688261,-0.402189839,1,0,0,2.4967,Obsidian_rect,5,2.497,1,14,0,14,0,1,,,,,,,,,,,,,
660dfa1d1b035ba808f2b45f,TCR,2024-06-21_12h46.35.056,LearnStrategy,2023.2.3,Win32,166.6666667,2,1,16,-0.10011664,0.001837937,1,0,0,0.9572,rock_grid_rect_2,2,12,-1,-1,0.957,0.433866404,-0.412186369,1,0,0,1.8278,Pumice_rect,8,1.828,0,15,0,15,0,1,,,,,,,,,,,,,
660dfa1d1b035ba808f2b45f,TCR,2024-06-21_12h46.35.056,LearnStrategy,2023.2.3,Win32,166.6666667,2,2,1,,,,,,,,1,07,,,,,,,,,,,3,10.638,0,,,,,,0.113143373,-0.233914324,1,0,0,10.638,Diorite_rect,0,0,0,0,1,
660dfa1d1b035ba808f2b45f,TCR,2024-06-21_12h46.35.056,LearnStrategy,2023.2.3,Win32,166.6666667,2,2,2,,,,,,,,3,16,,,,,,,,,,,4,5.091,0,,,,,,0.338066016,-0.234747413,1,0,0,5.0913,Gabbro_rect,1,0,1,0,1,
660dfa1d1b035ba808f2b45f,TCR,2024-06-21_12h46.35.056,LearnStrategy,2023.2.3,Win32,166.6666667,2,2,3,,,,,,,,8,03,,,,,,,,,,,8,2.04,1,,,,,,0.403876738,-0.393026321,1,0,0,2.0396,Pumice_rect,2,0,2,0,1,
660dfa1d1b035ba808f2b45f,TCR,2024-06-21_12h46.35.056,LearnStrategy,2023.2.3,Win32,166.6666667,2,2,4,,,,,,,,6,15,,,,,,,,,,,6,8.271,1,,,,,,-0.115111548,-0.390527132,1,0,0,8.2715,Pegmatite_rect,3,0,3,0,1,
660dfa1d1b035ba808f2b45f,TCR,2024-06-21_12h46.35.056,LearnStrategy,2023.2.3,Win32,166.6666667,2,2,5,,,,,,,,6,07,,,,,,,,,,,6,5.806,1,,,,,,-0.086787908,-0.41551857,1,0,0,5.8063,Pegmatite_rect,4,0,4,0,1,
660dfa1d1b035ba808f2b45f,TCR,2024-06-21_12h46.35.056,LearnStrategy,2023.2.3,Win32,166.6666667,2,2,6,,,,,,,,7,04,,,,,,,,,,,6,3.088,0,,,,,,-0.164261261,-0.39136022,1,0,0,3.0883,Pegmatite_rect,5,0,5,0,1,
660dfa1d1b035ba808f2b45f,TCR,2024-06-21_12h46.35.056,LearnStrategy,2023.2.3,Win32,166.6666667,2,2,7,,,,,,,,1,01,,,,,,,,,,,3,3.712,0,,,,,,0.158960959,-0.228083009,1,0,0,3.7123,Diorite_rect,6,0,6,0,1,
660dfa1d1b035ba808f2b45f,TCR,2024-06-21_12h46.35.056,LearnStrategy,2023.2.3,Win32,166.6666667,2,2,8,,,,,,,,2,05,,,,,,,,,,,2,15.756,1,,,,,,-0.12844028,-0.241411741,1,0,0,15.7563,Basalt_rect,7,0,7,0,1,
660dfa1d1b035ba808f2b45f,TCR,2024-06-21_12h46.35.056,LearnStrategy,2023.2.3,Win32,166.6666667,2,2,9,,,,,,,,2,16,,,,,,,,,,,2,6.181,1,,,,,,-0.103448842,-0.258905763,1,0,0,6.1814,Basalt_rect,8,0,8,0,1,
660dfa1d1b035ba808f2b45f,TCR,2024-06-21_12h46.35.056,LearnStrategy,2023.2.3,Win32,166.6666667,2,2,10,,,,,,,,5,08,,,,,,,,,,,5,1.185,1,,,,,,-0.35086381,-0.403022851,1,0,0,1.1849,Obsidian_rect,9,0,9,0,1,
660dfa1d1b035ba808f2b45f,TCR,2024-06-21_12h46.35.056,LearnStrategy,2023.2.3,Win32,166.6666667,2,2,11,,,,,,,,7,14,,,,,,,,,,,7,4.754,1,,,,,,0.164792275,-0.40552204,1,0,0,4.7543,Peridotite_rect,10,0,10,0,1,
660dfa1d1b035ba808f2b45f,TCR,2024-06-21_12h46.35.056,LearnStrategy,2023.2.3,Win32,166.6666667,2,2,12,,,,,,,,4,10,,,,,,,,,,,8,2.882,0,,,,,,0.346396521,-0.394692422,1,0,0,2.8823,Pumice_rect,11,0,11,0,1,
660dfa1d1b035ba808f2b45f,TCR,2024-06-21_12h46.35.056,LearnStrategy,2023.2.3,Win32,166.6666667,2,2,13,,,,,,,,8,15,,,,,,,,,,,6,9.512,0,,,,,,-0.10011664,-0.395525435,1,0,0,9.5123,Pegmatite_rect,12,0,12,0,1,
660dfa1d1b035ba808f2b45f,TCR,2024-06-21_12h46.35.056,LearnStrategy,2023.2.3,Win32,166.6666667,2,2,14,,,,,,,,5,02,,,,,,,,,,,5,1.095,1,,,,,,-0.416674495,-0.397191536,1,0,0,1.0947,Obsidian_rect,13,0,13,0,1,
660dfa1d1b035ba808f2b45f,TCR,2024-06-21_12h46.35.056,LearnStrategy,2023.2.3,Win32,166.6666667,2,2,15,,,,,,,,4,03,,,,,,,,,,,4,7.54,1,,,,,,0.338899029,-0.254740548,1,0,0,7.5401,Gabbro_rect,14,0,14,0,1,
660dfa1d1b035ba808f2b45f,TCR,2024-06-21_12h46.35.056,LearnStrategy,2023.2.3,Win32,166.6666667,2,2,16,,,,,,,,3,06,,,,,,,,,,,3,5.802,1,,,,,,0.145632152,-0.247243056,1,0,0,5.802,Diorite_rect,15,0,15,0,1,
660dfa1d1b035ba808f2b45f,TCR,2024-06-21_12h46.35.056,LearnStrategy,2023.2.3,Win32,166.6666667,3,1,1,-0.010980656,0.00600319,1,0,0,1.473,rock_grid_rect_2,3,02,-1,-1,1.473,0.13230342,-0.261404877,1,0,0,2.5465,Diorite_rect,3,2.546,1,0,0,0,0,1,,,,,,,,,,,,,
660dfa1d1b035ba808f2b45f,TCR,2024-06-21_12h46.35.056,LearnStrategy,2023.2.3,Win32,166.6666667,3,1,2,-0.009314555,-0.003160328,1,0,0,0.8906,rock_grid_rect_2,8,16,-1,-1,0.891,-0.127607192,-0.231415211,1,0,0,2.2301,Basalt_rect,2,2.23,0,1,0,1,0,1,,,,,,,,,,,,,
660dfa1d1b035ba808f2b45f,TCR,2024-06-21_12h46.35.056,LearnStrategy,2023.2.3,Win32,166.6666667,3,1,3,-0.077624391,-0.008991681,1,0,0,0.8902,rock_grid_rect_2,7,07,-1,-1,0.89,0.104812868,-0.385528905,1,0,0,1.354,Peridotite_rect,7,1.354,1,2,0,2,0,1,,,,,,,,,,,,,
660dfa1d1b035ba808f2b45f,TCR,2024-06-21_12h46.35.056,LearnStrategy,2023.2.3,Win32,166.6666667,3,1,4,-0.103448842,-0.010657782,1,0,0,0.8084,rock_grid_rect_2,1,11,-1,-1,0.808,-0.117610662,-0.412186369,1,0,0,3.9634,Pegmatite_rect,6,3.963,0,3,0,3,0,1,,,,,,,,,,,,,
660dfa1d1b035ba808f2b45f,TCR,2024-06-21_12h46.35.056,LearnStrategy,2023.2.3,Win32,166.6666667,3,1,5,-0.068460873,-0.013989946,1,0,0,1.0073,rock_grid_rect_2,6,16,-1,-1,1.007,-0.101782741,-0.413019457,1,0,0,3.8043,Pegmatite_rect,6,3.804,1,4,0,4,0,1,,,,,,,,,,,,,
660dfa1d1b035ba808f2b45f,TCR,2024-06-21_12h46.35.056,LearnStrategy,2023.2.3,Win32,166.6666667,3,1,6,-0.069293962,-0.014822997,1,0,0,0.8596,rock_grid_rect_2,1,16,-1,-1,0.86,0.128138205,-0.237246526,1,0,0,2.9282,Diorite_rect,3,2.928,0,5,0,5,0,1,,,,,,,,,,,,,
660dfa1d1b035ba808f2b45f,TCR,2024-06-21_12h46.35.056,LearnStrategy,2023.2.3,Win32,166.6666667,3,1,7,-0.040970321,0.011001455,1,0,0,0.9389,rock_grid_rect_2,2,11,-1,-1,0.939,-0.180089182,-0.269735381,1,0,0,2.1683,Basalt_rect,2,2.168,1,6,0,6,0,1,,,,,,,,,,,,,
660dfa1d1b035ba808f2b45f,TCR,2024-06-21_12h46.35.056,LearnStrategy,2023.2.3,Win32,166.6666667,3,1,8,-0.057631255,0.001004887,1,0,0,0.9938,rock_grid_rect_2,1,05,-1,-1,0.994,-0.383352627,-0.245577031,1,0,0,3.3907,Andesite_rect,1,3.391,1,7,0,7,0,1,,,,,,,,,,,,,
660dfa1d1b035ba808f2b45f,TCR,2024-06-21_12h46.35.056,LearnStrategy,2023.2.3,Win32,166.6666667,3,1,9,-0.103448842,-0.011490795,1,0,0,0.8296,rock_grid_rect_2,4,05,-1,-1,0.83,0.403876738,-0.260571864,1,0,0,1.5364,Gabbro_rect,4,1.536,1,8,0,8,0,1,,,,,,,,,,,,,
660dfa1d1b035ba808f2b45f,TCR,2024-06-21_12h46.35.056,LearnStrategy,2023.2.3,Win32,166.6666667,3,1,10,-0.048467738,-0.016489097,1,0,0,0.9356,rock_grid_rect_2,1,03,-1,-1,0.936,-0.334202839,-0.233081312,1,0,0,3.6123,Andesite_rect,1,3.612,1,9,0,9,0,1,,,,,,,,,,,,,
660dfa1d1b035ba808f2b45f,TCR,2024-06-21_12h46.35.056,LearnStrategy,2023.2.3,Win32,166.6666667,3,1,11,-0.005982353,0.001004887,1,0,0,0.8142,rock_grid_rect_2,6,10,-1,-1,0.814,0.127305117,-0.404688952,1,0,0,1.2203,Peridotite_rect,7,1.22,0,10,0,10,0,1,,,,,,,,,,,,,
660dfa1d1b035ba808f2b45f,TCR,2024-06-21_12h46.35.056,LearnStrategy,2023.2.3,Win32,166.6666667,3,1,12,-0.016811971,-0.001494265,1,0,0,0.8357,rock_grid_rect_2,8,10,-1,-1,0.836,0.094816338,-0.386361917,1,0,0,1.8727,Peridotite_rect,7,1.873,0,11,0,11,0,1,,,,,,,,,,,,,
660dfa1d1b035ba808f2b45f,TCR,2024-06-21_12h46.35.056,LearnStrategy,2023.2.3,Win32,166.6666667,3,1,13,-0.014312858,-0.023986514,1,0,0,0.8598,rock_grid_rect_2,4,05,-1,-1,0.86,-0.096784514,-0.230582123,1,0,0,2.6833,Basalt_rect,2,2.683,0,12,0,12,0,1,,,,,,,,,,,,,
660dfa1d1b035ba808f2b45f,TCR,2024-06-21_12h46.35.056,LearnStrategy,2023.2.3,Win32,166.6666667,3,1,14,-0.009314555,-0.012323845,1,0,0,0.6657,rock_grid_rect_2,3,11,-1,-1,0.666,0.101480666,-0.234747413,1,0,0,3.3269,Diorite_rect,3,3.327,1,13,0,13,0,1,,,,,,,,,,,,,
660dfa1d1b035ba808f2b45f,TCR,2024-06-21_12h46.35.056,LearnStrategy,2023.2.3,Win32,166.6666667,3,1,15,-0.046801637,-0.013989946,1,0,0,0.9385,rock_grid_rect_2,7,08,-1,-1,0.938,0.372220972,-0.39136022,1,0,0,2.1315,Pumice_rect,8,2.131,0,14,0,14,0,1,,,,,,,,,,,,,
660dfa1d1b035ba808f2b45f,TCR,2024-06-21_12h46.35.056,LearnStrategy,2023.2.3,Win32,166.6666667,3,1,16,-0.062629558,0.001837937,1,0,0,0.556,rock_grid_rect_2,5,04,-1,-1,0.556,-0.370023857,-0.420516873,1,0,0,1.8921,Obsidian_rect,5,1.892,1,15,0,15,0,1,,,,,,,,,,,,,
660dfa1d1b035ba808f2b45f,TCR,2024-06-21_12h46.35.056,LearnStrategy,2023.2.3,Win32,166.6666667,3,2,1,,,,,,,,1,02,,,,,,,,,,,3,15.607,0,,,,,,0.095649351,-0.242244829,1,0,0,15.6073,Diorite_rect,0,0,0,0,1,
660dfa1d1b035ba808f2b45f,TCR,2024-06-21_12h46.35.056,LearnStrategy,2023.2.3,Win32,166.6666667,3,2,2,,,,,,,,1,14,,,,,,,,,,,6,22.783,0,,,,,,-0.166760413,-0.409687255,1,0,0,22.7832,Pegmatite_rect,1,0,1,0,1,
660dfa1d1b035ba808f2b45f,TCR,2024-06-21_12h46.35.056,LearnStrategy,2023.2.3,Win32,166.6666667,3,2,3,,,,,,,,6,13,,,,,,,,,,,6,9.754,1,,,,,,-0.165927362,-0.403855939,1,0,0,9.7539,Pegmatite_rect,2,0,2,0,1,
660dfa1d1b035ba808f2b45f,TCR,2024-06-21_12h46.35.056,LearnStrategy,2023.2.3,Win32,166.6666667,3,2,4,,,,,,,,7,06,,,,,,,,,,,7,2.206,1,,,,,,0.116475499,-0.389694119,1,0,0,2.2064,Peridotite_rect,3,0,3,0,1,
660dfa1d1b035ba808f2b45f,TCR,2024-06-21_12h46.35.056,LearnStrategy,2023.2.3,Win32,166.6666667,3,2,5,,,,,,,,7,05,,,,,,,,,,,7,10.923,1,,,,,,0.153129568,-0.421349886,1,0,0,10.9234,Peridotite_rect,4,0,4,0,1,
660dfa1d1b035ba808f2b45f,TCR,2024-06-21_12h46.35.056,LearnStrategy,2023.2.3,Win32,166.6666667,3,2,6,,,,,,,,2,10,,,,,,,,,,,2,14.605,1,,,,,,-0.150932529,-0.267236192,1,0,0,14.6053,Basalt_rect,5,0,5,0,1,
660dfa1d1b035ba808f2b45f,TCR,2024-06-21_12h46.35.056,LearnStrategy,2023.2.3,Win32,166.6666667,3,2,7,,,,,,,,8,05,,,,,,,,,,,8,1.496,1,,,,,,0.327236398,-0.402189839,1,0,0,1.4958,Pumice_rect,6,0,6,0,1,
660dfa1d1b035ba808f2b45f,TCR,2024-06-21_12h46.35.056,LearnStrategy,2023.2.3,Win32,166.6666667,3,2,8,,,,,,,,4,15,,,,,,,,,,,4,4.198,1,,,,,,0.342231231,-0.251408347,1,0,0,4.198,Gabbro_rect,7,0,7,0,1,
660dfa1d1b035ba808f2b45f,TCR,2024-06-21_12h46.35.056,LearnStrategy,2023.2.3,Win32,166.6666667,3,2,9,,,,,,,,4,01,,,,,,,,,,,1,4.74,0,,,,,,-0.373356059,-0.250575258,1,0,0,4.7404,Andesite_rect,8,0,8,0,1,
660dfa1d1b035ba808f2b45f,TCR,2024-06-21_12h46.35.056,LearnStrategy,2023.2.3,Win32,166.6666667,3,2,10,,,,,,,,3,08,,,,,,,,,,,3,5.588,1,,,,,,0.10814507,-0.269735381,1,0,0,5.5877,Diorite_rect,9,0,9,0,1,
660dfa1d1b035ba808f2b45f,TCR,2024-06-21_12h46.35.056,LearnStrategy,2023.2.3,Win32,166.6666667,3,2,11,,,,,,,,5,16,,,,,,,,,,,5,1.065,1,,,,,,-0.410010129,-0.402189839,1,0,0,1.0649,Obsidian_rect,10,0,10,0,1,
660dfa1d1b035ba808f2b45f,TCR,2024-06-21_12h46.35.056,LearnStrategy,2023.2.3,Win32,166.6666667,3,2,12,,,,,,,,3,14,,,,,,,,,,,3,3.59,1,,,,,,0.100647653,-0.240578728,1,0,0,3.5899,Diorite_rect,11,0,11,0,1,
660dfa1d1b035ba808f2b45f,TCR,2024-06-21_12h46.35.056,LearnStrategy,2023.2.3,Win32,166.6666667,3,2,13,,,,,,,,2,09,,,,,,,,,,,2,7.135,1,,,,,,-0.140102911,-0.238912627,1,0,0,7.1352,Basalt_rect,12,0,12,0,1,
660dfa1d1b035ba808f2b45f,TCR,2024-06-21_12h46.35.056,LearnStrategy,2023.2.3,Win32,166.6666667,3,2,14,,,,,,,,5,12,,,,,,,,,,,5,1.216,1,,,,,,-0.41167623,-0.407188066,1,0,0,1.2155,Obsidian_rect,13,0,13,0,1,
660dfa1d1b035ba808f2b45f,TCR,2024-06-21_12h46.35.056,LearnStrategy,2023.2.3,Win32,166.6666667,3,2,15,,,,,,,,8,13,,,,,,,,,,,8,2.129,1,,,,,,0.363057454,-0.39136022,1,0,0,2.1286,Pumice_rect,14,0,14,0,1,
660dfa1d1b035ba808f2b45f,TCR,2024-06-21_12h46.35.056,LearnStrategy,2023.2.3,Win32,166.6666667,3,2,16,,,,,,,,6,05,,,,,,,,,,,5,4.016,0,,,,,,-0.413342331,-0.388028018,1,0,0,4.0156,Obsidian_rect,15,0,15,0,1,
660dfa1d1b035ba808f2b45f,TCR,2024-06-21_12h46.35.056,LearnStrategy,2023.2.3,Win32,166.6666667,4,1,1,-0.015978959,0.003504038,1,0,0,1.0728,rock_grid_rect_2,4,14,-1,-1,1.073,0.359725253,-0.236413514,1,0,0,1.415,Gabbro_rect,4,1.415,1,0,0,0,0,1,,,,,,,,,,,,,
660dfa1d1b035ba808f2b45f,TCR,2024-06-21_12h46.35.056,LearnStrategy,2023.2.3,Win32,166.6666667,4,1,2,-0.018478072,-0.008991681,1,0,0,1.2302,rock_grid_rect_2,4,05,-1,-1,1.23,0.371387883,-0.238912627,1,0,0,2.0056,Gabbro_rect,4,2.006,1,1,0,1,0,1,,,,,,,,,,,,,
660dfa1d1b035ba808f2b45f,TCR,2024-06-21_12h46.35.056,LearnStrategy,2023.2.3,Win32,166.6666667,4,1,3,0.014843795,-0.010657782,1,0,0,1.096,rock_grid_rect_2,6,06,-1,-1,1.096,-0.061796545,-0.40135675,1,0,0,9.3387,Pegmatite_rect,6,9.339,1,2,0,2,0,1,,,,,,,,,,,,,
660dfa1d1b035ba808f2b45f,TCR,2024-06-21_12h46.35.056,LearnStrategy,2023.2.3,Win32,166.6666667,4,1,4,-0.004316252,-0.023986514,1,0,0,0.869,rock_grid_rect_2,1,05,-1,-1,0.869,-0.352529873,-0.253074447,1,0,0,10.3955,Andesite_rect,1,10.395,1,3,0,3,0,1,,,,,,,,,,,,,
660dfa1d1b035ba808f2b45f,TCR,2024-06-21_12h46.35.056,LearnStrategy,2023.2.3,Win32,166.6666667,4,1,5,-0.014312858,-0.012323845,1,0,0,0.8203,rock_grid_rect_2,3,07,-1,-1,0.82,0.151463467,-0.259738776,1,0,0,13.8963,Diorite_rect,3,13.896,1,4,0,4,0,1,,,,,,,,,,,,,
660dfa1d1b035ba808f2b45f,TCR,2024-06-21_12h46.35.056,LearnStrategy,2023.2.3,Win32,166.6666667,4,1,6,0.008179467,-0.003993378,1,0,0,1.1333,rock_grid_rect_2,7,07,-1,-1,1.133,0.078988417,-0.404688952,1,0,0,1.2421,Peridotite_rect,7,1.242,1,5,0,5,0,1,,,,,,,,,,,,,
660dfa1d1b035ba808f2b45f,TCR,2024-06-21_12h46.35.056,LearnStrategy,2023.2.3,Win32,166.6666667,4,1,7,-0.05179994,0.004337089,1,0,0,0.8361,rock_grid_rect_2,1,11,-1,-1,0.836,-0.391683094,-0.249742246,1,0,0,7.2632,Andesite_rect,1,7.263,1,6,0,6,0,1,,,,,,,,,,,,,
660dfa1d1b035ba808f2b45f,TCR,2024-06-21_12h46.35.056,LearnStrategy,2023.2.3,Win32,166.6666667,4,1,8,-0.190918801,0.00600319,1,0,0,0.7377,rock_grid_rect_2,6,16,-1,-1,0.738,-0.118443675,-0.399690649,1,0,0,4.6922,Pegmatite_rect,6,4.692,1,7,0,7,0,1,,,,,,,,,,,,,
660dfa1d1b035ba808f2b45f,TCR,2024-06-21_12h46.35.056,LearnStrategy,2023.2.3,Win32,166.6666667,4,1,9,-0.070126974,0.001837937,1,0,0,0.8174,rock_grid_rect_2,1,16,-1,-1,0.817,-0.310044488,-0.24391093,1,0,0,3.5292,Andesite_rect,1,3.529,1,8,0,8,0,1,,,,,,,,,,,,,
660dfa1d1b035ba808f2b45f,TCR,2024-06-21_12h46.35.056,LearnStrategy,2023.2.3,Win32,166.6666667,4,1,10,-0.028474602,0.004337089,1,0,0,0.8998,rock_grid_rect_2,4,16,-1,-1,0.9,0.383050514,-0.249742246,1,0,0,3.1811,Gabbro_rect,4,3.181,1,9,0,9,0,1,,,,,,,,,,,,,
660dfa1d1b035ba808f2b45f,TCR,2024-06-21_12h46.35.056,LearnStrategy,2023.2.3,Win32,166.6666667,4,1,11,-0.060130444,-0.018155198,1,0,0,0.6899,rock_grid_rect_2,2,06,-1,-1,0.69,-0.123441977,-0.258072675,1,0,0,4.2301,Basalt_rect,2,4.23,1,10,0,10,0,1,,,,,,,,,,,,,
660dfa1d1b035ba808f2b45f,TCR,2024-06-21_12h46.35.056,LearnStrategy,2023.2.3,Win32,166.6666667,4,1,12,0.007346379,-0.009824732,1,0,0,1.2819,rock_grid_rect_2,5,04,-1,-1,1.282,-0.37502216,-0.397191536,1,0,0,1.5844,Obsidian_rect,5,1.584,1,11,0,11,0,1,,,,,,,,,,,,,
660dfa1d1b035ba808f2b45f,TCR,2024-06-21_12h46.35.056,LearnStrategy,2023.2.3,Win32,166.6666667,4,1,13,0.000681975,-0.009824732,1,0,0,0.9226,rock_grid_rect_2,1,11,-1,-1,0.923,-0.346698558,-0.261404877,1,0,0,1.9138,Andesite_rect,1,1.914,1,12,0,12,0,1,,,,,,,,,,,,,
660dfa1d1b035ba808f2b45f,TCR,2024-06-21_12h46.35.056,LearnStrategy,2023.2.3,Win32,166.6666667,4,1,14,-0.025142476,-0.013156896,1,0,0,0.8176,rock_grid_rect_2,8,09,-1,-1,0.818,0.34473042,-0.382196703,1,0,0,1.5755,Pumice_rect,8,1.576,1,13,0,13,0,1,,,,,,,,,,,,,
660dfa1d1b035ba808f2b45f,TCR,2024-06-21_12h46.35.056,LearnStrategy,2023.2.3,Win32,166.6666667,4,1,15,-0.00514934,0.009335354,1,0,0,0.7963,rock_grid_rect_2,3,02,-1,-1,0.796,0.143133038,-0.238079539,1,0,0,7.7509,Diorite_rect,3,7.751,1,14,0,14,0,1,,,,,,,,,,,,,
660dfa1d1b035ba808f2b45f,TCR,2024-06-21_12h46.35.056,LearnStrategy,2023.2.3,Win32,166.6666667,4,1,16,0.004014177,0.005170139,1,0,0,0.8749,rock_grid_rect_2,1,05,-1,-1,0.875,-0.378354324,-0.255573561,1,0,0,3.8573,Andesite_rect,1,3.857,1,15,0,15,0,1,,,,,,,,,,,,,
660dfa1d1b035ba808f2b45f,TCR,2024-06-21_12h46.35.056,LearnStrategy,2023.2.3,Win32,166.6666667,4,2,1,,,,,,,,6,09,,,,,,,,,,,6,11.967,1,,,,,,-0.154264731,-0.418017684,1,0,0,11.9672,Pegmatite_rect,0,0,0,0,1,
660dfa1d1b035ba808f2b45f,TCR,2024-06-21_12h46.35.056,LearnStrategy,2023.2.3,Win32,166.6666667,4,2,2,,,,,,,,6,13,,,,,,,,,,,6,10.396,1,,,,,,-0.125108078,-0.40552204,1,0,0,10.3955,Pegmatite_rect,1,0,1,0,1,
660dfa1d1b035ba808f2b45f,TCR,2024-06-21_12h46.35.056,LearnStrategy,2023.2.3,Win32,166.6666667,4,2,3,,,,,,,,3,09,,,,,,,,,,,3,4.125,1,,,,,,0.119807701,-0.236413514,1,0,0,4.1248,Diorite_rect,2,0,2,0,1,
660dfa1d1b035ba808f2b45f,TCR,2024-06-21_12h46.35.056,LearnStrategy,2023.2.3,Win32,166.6666667,4,2,4,,,,,,,,1,07,,,,,,,,,,,1,5.223,1,,,,,,-0.387517842,-0.263904066,1,0,0,5.2232,Andesite_rect,3,0,3,0,1,
660dfa1d1b035ba808f2b45f,TCR,2024-06-21_12h46.35.056,LearnStrategy,2023.2.3,Win32,166.6666667,4,2,5,,,,,,,,8,15,,,,,,,,,,,8,2.059,1,,,,,,0.361391353,-0.403855939,1,0,0,2.0595,Pumice_rect,4,0,4,0,1,
660dfa1d1b035ba808f2b45f,TCR,2024-06-21_12h46.35.056,LearnStrategy,2023.2.3,Win32,166.6666667,4,2,6,,,,,,,,2,16,,,,,,,,,,,4,3.1,0,,,,,,0.385549704,-0.247243056,1,0,0,3.0998,Gabbro_rect,5,0,5,0,1,
660dfa1d1b035ba808f2b45f,TCR,2024-06-21_12h46.35.056,LearnStrategy,2023.2.3,Win32,166.6666667,4,2,7,,,,,,,,5,12,,,,,,,,,,,5,1.12,1,,,,,,-0.383352627,-0.400523738,1,0,0,1.12,Obsidian_rect,6,0,6,0,1,
660dfa1d1b035ba808f2b45f,TCR,2024-06-21_12h46.35.056,LearnStrategy,2023.2.3,Win32,166.6666667,4,2,8,,,,,,,,7,04,,,,,,,,,,,1,10.838,0,,,,,,-0.361693391,-0.233914324,1,0,0,10.838,Andesite_rect,7,0,7,0,1,
660dfa1d1b035ba808f2b45f,TCR,2024-06-21_12h46.35.056,LearnStrategy,2023.2.3,Win32,166.6666667,4,2,9,,,,,,,,4,11,,,,,,,,,,,2,2.111,0,,,,,,-0.129273293,-0.246410044,1,0,0,2.1114,Basalt_rect,8,0,8,0,1,
660dfa1d1b035ba808f2b45f,TCR,2024-06-21_12h46.35.056,LearnStrategy,2023.2.3,Win32,166.6666667,4,2,10,,,,,,,,3,16,,,,,,,,,,,1,4.763,0,,,,,,-0.327538473,-0.241411741,1,0,0,4.7626,Andesite_rect,9,0,9,0,1,
660dfa1d1b035ba808f2b45f,TCR,2024-06-21_12h46.35.056,LearnStrategy,2023.2.3,Win32,166.6666667,4,2,11,,,,,,,,4,03,,,,,,,,,,,1,3.939,0,,,,,,-0.430003264,-0.251408347,1,0,0,3.939,Andesite_rect,10,0,10,0,1,
660dfa1d1b035ba808f2b45f,TCR,2024-06-21_12h46.35.056,LearnStrategy,2023.2.3,Win32,166.6666667,4,2,12,,,,,,,,7,05,,,,,,,,,,,7,1.334,1,,,,,,0.10814507,-0.386361917,1,0,0,1.3338,Peridotite_rect,11,0,11,0,1,
660dfa1d1b035ba808f2b45f,TCR,2024-06-21_12h46.35.056,LearnStrategy,2023.2.3,Win32,166.6666667,4,2,13,,,,,,,,1,14,,,,,,,,,,,6,5.151,0,,,,,,-0.106781044,-0.388861031,1,0,0,5.1507,Pegmatite_rect,12,0,12,0,1,
660dfa1d1b035ba808f2b45f,TCR,2024-06-21_12h46.35.056,LearnStrategy,2023.2.3,Win32,166.6666667,4,2,14,,,,,,,,8,13,,,,,,,,,,,8,2.415,1,,,,,,0.368055682,-0.403855939,1,0,0,2.415,Pumice_rect,13,0,13,0,1,
660dfa1d1b035ba808f2b45f,TCR,2024-06-21_12h46.35.056,LearnStrategy,2023.2.3,Win32,166.6666667,4,2,15,,,,,,,,5,16,,,,,,,,,,,5,1.208,1,,,,,,-0.386684791,-0.393859334,1,0,0,1.2084,Obsidian_rect,14,0,14,0,1,
660dfa1d1b035ba808f2b45f,TCR,2024-06-21_12h46.35.056,LearnStrategy,2023.2.3,Win32,166.6666667,4,2,16,,,,,,,,2,04,,,,,,,,,,,2,1.162,1,,,,,,-0.124275066,-0.243077842,1,0,0,1.1622,Basalt_rect,15,0,15,0,1,
660dfa1d1b035ba808f2b45f,TCR,2024-06-21_12h46.35.056,LearnStrategy,2023.2.3,Win32,166.6666667,5,1,1,-0.025142476,-0.009824732,1,0,0,1.1455,rock_grid_rect_2,2,01,-1,-1,1.145,-0.151765542,-0.250575258,1,0,0,1.556,Basalt_rect,2,1.556,1,0,0,0,0,1,,,,,,,,,,,,,
660dfa1d1b035ba808f2b45f,TCR,2024-06-21_12h46.35.056,LearnStrategy,2023.2.3,Win32,166.6666667,5,1,2,-0.021810274,-0.017322148,1,0,0,0.9053,rock_grid_rect_2,5,07,-1,-1,0.905,-0.375855211,-0.380530602,1,0,0,1.2386,Obsidian_rect,5,1.239,1,1,0,1,0,1,,,,,,,,,,,,,
660dfa1d1b035ba808f2b45f,TCR,2024-06-21_12h46.35.056,LearnStrategy,2023.2.3,Win32,166.6666667,5,1,3,-0.006815441,-0.012323845,1,0,0,0.7572,rock_grid_rect_2,1,03,-1,-1,0.757,-0.420839747,-0.238912627,1,0,0,6.3992,Andesite_rect,1,6.399,1,2,0,2,0,1,,,,,,,,,,,,,
660dfa1d1b035ba808f2b45f,TCR,2024-06-21_12h46.35.056,LearnStrategy,2023.2.3,Win32,166.6666667,5,1,4,-0.055965154,-0.011490795,1,0,0,1.0301,rock_grid_rect_2,1,11,-1,-1,1.03,-0.369190807,-0.23974564,1,0,0,2.5935,Andesite_rect,1,2.594,1,3,0,3,0,1,,,,,,,,,,,,,
660dfa1d1b035ba808f2b45f,TCR,2024-06-21_12h46.35.056,LearnStrategy,2023.2.3,Win32,166.6666667,5,1,5,-0.135104608,0.001837937,1,0,0,1.03,rock_grid_rect_2,1,16,-1,-1,1.03,-0.459159879,-0.258905763,1,0,0,4.4035,Andesite_rect,1,4.403,1,4,0,4,0,1,,,,,,,,,,,,,
660dfa1d1b035ba808f2b45f,TCR,2024-06-21_12h46.35.056,LearnStrategy,2023.2.3,Win32,166.6666667,5,1,6,-0.026808577,0.001837937,1,0,0,4.0159,rock_grid_rect_2,3,13,-1,-1,4.016,0.147298253,-0.240578728,1,0,0,4.3111,Diorite_rect,3,4.311,1,5,0,5,0,1,,,,,,,,,,,,,
660dfa1d1b035ba808f2b45f,TCR,2024-06-21_12h46.35.056,LearnStrategy,2023.2.3,Win32,166.6666667,5,1,7,0.000681975,-0.004826429,1,0,0,0.9038,rock_grid_rect_2,2,06,-1,-1,0.904,-0.100949728,-0.259738776,1,0,0,1.2614,Basalt_rect,2,1.261,1,6,0,6,0,1,,,,,,,,,,,,,
660dfa1d1b035ba808f2b45f,TCR,2024-06-21_12h46.35.056,LearnStrategy,2023.2.3,Win32,166.6666667,5,1,8,-0.003483239,0.01599972,1,0,0,0.6659,rock_grid_rect_2,8,08,-1,-1,0.666,0.425535975,-0.402189839,1,0,0,1.0687,Pumice_rect,8,1.069,1,7,0,7,0,1,,,,,,,,,,,,,
660dfa1d1b035ba808f2b45f,TCR,2024-06-21_12h46.35.056,LearnStrategy,2023.2.3,Win32,166.6666667,5,1,9,-0.007648454,-0.002327277,1,0,0,0.8725,rock_grid_rect_2,7,07,-1,-1,0.873,0.182286221,-0.418850772,1,0,0,1.5734,Peridotite_rect,7,1.573,1,8,0,8,0,1,,,,,,,,,,,,,
660dfa1d1b035ba808f2b45f,TCR,2024-06-21_12h46.35.056,LearnStrategy,2023.2.3,Win32,166.6666667,5,1,10,-0.022643287,-0.005659479,1,0,0,0.872,rock_grid_rect_2,6,11,-1,-1,0.872,-0.083455706,-0.388861031,1,0,0,1.6553,Pegmatite_rect,6,1.655,1,9,0,9,0,1,,,,,,,,,,,,,
660dfa1d1b035ba808f2b45f,TCR,2024-06-21_12h46.35.056,LearnStrategy,2023.2.3,Win32,166.6666667,5,1,11,-0.017645059,-0.017322148,1,0,0,0.7202,rock_grid_rect_2,7,08,-1,-1,0.72,0.133136508,-0.409687255,1,0,0,1.4078,Peridotite_rect,7,1.408,1,10,0,10,0,1,,,,,,,,,,,,,
660dfa1d1b035ba808f2b45f,TCR,2024-06-21_12h46.35.056,LearnStrategy,2023.2.3,Win32,166.6666667,5,1,12,-0.008481542,-0.00732558,1,0,0,1.318,rock_grid_rect_2,1,09,-1,-1,1.318,-0.370856908,-0.258905763,1,0,0,2.4989,Andesite_rect,1,2.499,1,11,0,11,0,1,,,,,,,,,,,,,
660dfa1d1b035ba808f2b45f,TCR,2024-06-21_12h46.35.056,LearnStrategy,2023.2.3,Win32,166.6666667,5,1,13,-0.024309388,0.003504038,1,0,0,0.6356,rock_grid_rect_2,4,12,-1,-1,0.636,-0.103448842,-0.242244829,1,0,0,2.3264,Basalt_rect,2,2.326,0,12,0,12,0,1,,,,,,,,,,,,,
660dfa1d1b035ba808f2b45f,TCR,2024-06-21_12h46.35.056,LearnStrategy,2023.2.3,Win32,166.6666667,5,1,14,-0.015978959,0.011001455,1,0,0,0.8175,rock_grid_rect_2,4,12,-1,-1,0.817,0.400544536,-0.238912627,1,0,0,1.1078,Gabbro_rect,4,1.108,1,13,0,13,0,1,,,,,,,,,,,,,
660dfa1d1b035ba808f2b45f,TCR,2024-06-21_12h46.35.056,LearnStrategy,2023.2.3,Win32,166.6666667,5,1,15,-0.007648454,0.001004887,1,0,0,1.2329,rock_grid_rect_2,3,12,-1,-1,1.233,0.144799139,-0.245577031,1,0,0,1.9184,Diorite_rect,3,1.918,1,14,0,14,0,1,,,,,,,,,,,,,
660dfa1d1b035ba808f2b45f,TCR,2024-06-21_12h46.35.056,LearnStrategy,2023.2.3,Win32,166.6666667,5,1,16,-0.005982353,0.001004887,1,0,0,0.6773,rock_grid_rect_2,4,05,-1,-1,0.677,0.369721783,-0.236413514,1,0,0,1.4986,Gabbro_rect,4,1.499,1,15,0,15,0,1,,,,,,,,,,,,,
660dfa1d1b035ba808f2b45f,TCR,2024-06-21_12h46.35.056,LearnStrategy,2023.2.3,Win32,166.6666667,5,2,1,,,,,,,,8,03,,,,,,,,,,,8,1.587,1,,,,,,0.398878436,-0.40552204,1,0,0,1.5872,Pumice_rect,0,0,0,0,1,
660dfa1d1b035ba808f2b45f,TCR,2024-06-21_12h46.35.056,LearnStrategy,2023.2.3,Win32,166.6666667,5,2,2,,,,,,,,2,02,,,,,,,,,,,2,1.225,1,,,,,,-0.177590031,-0.257239662,1,0,0,1.2251,Basalt_rect,1,0,1,0,1,
660dfa1d1b035ba808f2b45f,TCR,2024-06-21_12h46.35.056,LearnStrategy,2023.2.3,Win32,166.6666667,5,2,3,,,,,,,,6,15,,,,,,,,,,,6,3.156,1,,,,,,-0.098450539,-0.399690649,1,0,0,3.1564,Pegmatite_rect,2,0,2,0,1,
660dfa1d1b035ba808f2b45f,TCR,2024-06-21_12h46.35.056,LearnStrategy,2023.2.3,Win32,166.6666667,5,2,4,,,,,,,,8,05,,,,,,,,,,,8,1.131,1,,,,,,0.358892164,-0.403022851,1,0,0,1.1308,Pumice_rect,3,0,3,0,1,
660dfa1d1b035ba808f2b45f,TCR,2024-06-21_12h46.35.056,LearnStrategy,2023.2.3,Win32,166.6666667,5,2,5,,,,,,,,1,02,,,,,,,,,,,6,16.101,0,,,,,,-0.182588296,-0.396358523,1,0,0,16.1009,Pegmatite_rect,4,0,4,0,1,
660dfa1d1b035ba808f2b45f,TCR,2024-06-21_12h46.35.056,LearnStrategy,2023.2.3,Win32,166.6666667,5,2,6,,,,,,,,3,08,,,,,,,,,,,3,1.516,1,,,,,,0.120640789,-0.237246526,1,0,0,1.5165,Diorite_rect,5,0,5,0,1,
660dfa1d1b035ba808f2b45f,TCR,2024-06-21_12h46.35.056,LearnStrategy,2023.2.3,Win32,166.6666667,5,2,7,,,,,,,,7,10,,,,,,,,,,,7,1.003,1,,,,,,0.144799139,-0.41551857,1,0,0,1.0034,Peridotite_rect,6,0,6,0,1,
660dfa1d1b035ba808f2b45f,TCR,2024-06-21_12h46.35.056,LearnStrategy,2023.2.3,Win32,166.6666667,5,2,8,,,,,,,,4,09,,,,,,,,,,,4,7.758,1,,,,,,0.375553098,-0.235580425,1,0,0,7.7584,Gabbro_rect,7,0,7,0,1,
660dfa1d1b035ba808f2b45f,TCR,2024-06-21_12h46.35.056,LearnStrategy,2023.2.3,Win32,166.6666667,5,2,9,,,,,,,,1,10,,,,,,,,,,,1,1.872,1,,,,,,-0.335035889,-0.228083009,1,0,0,1.8715,Andesite_rect,8,0,8,0,1,
660dfa1d1b035ba808f2b45f,TCR,2024-06-21_12h46.35.056,LearnStrategy,2023.2.3,Win32,166.6666667,5,2,10,,,,,,,,6,07,,,,,,,,,,,6,1.357,1,,,,,,-0.125108078,-0.393859334,1,0,0,1.3574,Pegmatite_rect,9,0,9,0,1,
660dfa1d1b035ba808f2b45f,TCR,2024-06-21_12h46.35.056,LearnStrategy,2023.2.3,Win32,166.6666667,5,2,11,,,,,,,,4,15,,,,,,,,,,,4,1.626,1,,,,,,0.363057454,-0.230582123,1,0,0,1.6257,Gabbro_rect,10,0,10,0,1,
660dfa1d1b035ba808f2b45f,TCR,2024-06-21_12h46.35.056,LearnStrategy,2023.2.3,Win32,166.6666667,5,2,12,,,,,,,,5,09,,,,,,,,,,,5,0.995,1,,,,,,-0.361693391,-0.412186369,1,0,0,0.9954,Obsidian_rect,11,0,11,0,1,
660dfa1d1b035ba808f2b45f,TCR,2024-06-21_12h46.35.056,LearnStrategy,2023.2.3,Win32,166.6666667,5,2,13,,,,,,,,2,09,,,,,,,,,,,2,0.838,1,,,,,,-0.11427846,-0.23974564,1,0,0,0.8384,Basalt_rect,12,0,12,0,1,
660dfa1d1b035ba808f2b45f,TCR,2024-06-21_12h46.35.056,LearnStrategy,2023.2.3,Win32,166.6666667,5,2,14,,,,,,,,5,08,,,,,,,,,,,5,1.088,1,,,,,,-0.408344028,-0.407188066,1,0,0,1.0877,Obsidian_rect,13,0,13,0,1,
660dfa1d1b035ba808f2b45f,TCR,2024-06-21_12h46.35.056,LearnStrategy,2023.2.3,Win32,166.6666667,5,2,15,,,,,,,,3,10,,,,,,,,,,,3,34.503,1,,,,,,0.172289691,-0.252241359,1,0,0,34.5033,Diorite_rect,14,0,14,0,1,
660dfa1d1b035ba808f2b45f,TCR,2024-06-21_12h46.35.056,LearnStrategy,2023.2.3,Win32,166.6666667,5,2,16,,,,,,,,7,02,,,,,,,,,,,7,1.104,1,,,,,,0.103146767,-0.395525435,1,0,0,1.104,Peridotite_rect,15,0,15,0,1,
660dfa1d1b035ba808f2b45f,TCR,2024-06-21_12h46.35.056,LearnStrategy,2023.2.3,Win32,166.6666667,6,1,1,-0.044302523,0.01766582,1,0,0,0.8724,rock_grid_rect_2,3,12,-1,-1,0.872,0.129804306,-0.244743943,1,0,0,1.2398,Diorite_rect,3,1.24,1,0,0,0,0,1,,,,,,,,,,,,,
660dfa1d1b035ba808f2b45f,TCR,2024-06-21_12h46.35.056,LearnStrategy,2023.2.3,Win32,166.6666667,6,1,2,-0.000151037,0.011834505,1,0,0,0.8722,rock_grid_rect_2,7,16,-1,-1,0.872,0.12230689,-0.413852469,1,0,0,1.2644,Peridotite_rect,7,1.264,1,1,0,1,0,1,,,,,,,,,,,,,
660dfa1d1b035ba808f2b45f,TCR,2024-06-21_12h46.35.056,LearnStrategy,2023.2.3,Win32,166.6666667,6,1,3,0.007346379,-0.018988249,1,0,0,0.6261,rock_grid_rect_2,6,03,-1,-1,0.626,-0.123441977,-0.388028018,1,0,0,1.8131,Pegmatite_rect,6,1.813,1,2,0,2,0,1,,,,,,,,,,,,,
660dfa1d1b035ba808f2b45f,TCR,2024-06-21_12h46.35.056,LearnStrategy,2023.2.3,Win32,166.6666667,6,1,4,-0.011813668,-0.005659479,1,0,0,0.6899,rock_grid_rect_2,1,09,-1,-1,0.69,-0.347531608,-0.259738776,1,0,0,1.3656,Andesite_rect,1,1.366,1,3,0,3,0,1,,,,,,,,,,,,,
660dfa1d1b035ba808f2b45f,TCR,2024-06-21_12h46.35.056,LearnStrategy,2023.2.3,Win32,166.6666667,6,1,5,0.002348076,-0.017322148,1,0,0,0.6991,rock_grid_rect_2,5,10,-1,-1,0.699,-0.397514409,-0.399690649,1,0,0,1.4189,Obsidian_rect,5,1.419,1,4,0,4,0,1,,,,,,,,,,,,,
660dfa1d1b035ba808f2b45f,TCR,2024-06-21_12h46.35.056,LearnStrategy,2023.2.3,Win32,166.6666667,6,1,6,0.006513366,-0.008991681,1,0,0,0.8618,rock_grid_rect_2,1,16,-1,-1,0.862,-0.425004961,-0.25390746,1,0,0,1.3236,Andesite_rect,1,1.324,1,5,0,5,0,1,,,,,,,,,,,,,
660dfa1d1b035ba808f2b45f,TCR,2024-06-21_12h46.35.056,LearnStrategy,2023.2.3,Win32,166.6666667,6,1,7,-0.002650151,0.001837937,1,0,0,0.8539,rock_grid_rect_2,4,05,-1,-1,0.854,0.367222669,-0.254740548,1,0,0,1.3007,Gabbro_rect,4,1.301,1,6,0,6,0,1,,,,,,,,,,,,,
660dfa1d1b035ba808f2b45f,TCR,2024-06-21_12h46.35.056,LearnStrategy,2023.2.3,Win32,166.6666667,6,1,8,0.006513366,0.005170139,1,0,0,0.6078,rock_grid_rect_2,2,11,-1,-1,0.608,0.36888877,-0.408854167,1,0,0,1.7688,Pumice_rect,8,1.769,0,7,0,7,0,1,,,,,,,,,,,,,
660dfa1d1b035ba808f2b45f,TCR,2024-06-21_12h46.35.056,LearnStrategy,2023.2.3,Win32,166.6666667,6,1,9,-0.034305993,-0.008991681,1,0,0,0.8055,rock_grid_rect_2,4,05,-1,-1,0.805,0.363057454,-0.228916022,1,0,0,1.399,Gabbro_rect,4,1.399,1,8,0,8,0,1,,,,,,,,,,,,,
660dfa1d1b035ba808f2b45f,TCR,2024-06-21_12h46.35.056,LearnStrategy,2023.2.3,Win32,166.6666667,6,1,10,-0.003483239,0.000171836,1,0,0,0.9477,rock_grid_rect_2,1,03,-1,-1,0.948,-0.403345763,-0.241411741,1,0,0,2.4582,Andesite_rect,1,2.458,1,9,0,9,0,1,,,,,,,,,,,,,
660dfa1d1b035ba808f2b45f,TCR,2024-06-21_12h46.35.056,LearnStrategy,2023.2.3,Win32,166.6666667,6,1,11,-0.04180341,-0.001494265,1,0,0,0.8115,rock_grid_rect_2,1,05,-1,-1,0.812,-0.408344028,-0.268902293,1,0,0,2.1343,Andesite_rect,1,2.134,1,10,0,10,0,1,,,,,,,,,,,,,
660dfa1d1b035ba808f2b45f,TCR,2024-06-21_12h46.35.056,LearnStrategy,2023.2.3,Win32,166.6666667,6,1,12,-0.015978959,0.015166707,1,0,0,0.7326,rock_grid_rect_2,4,13,-1,-1,0.733,0.423869874,-0.247243056,1,0,0,1.1226,Gabbro_rect,4,1.123,1,11,0,11,0,1,,,,,,,,,,,,,
660dfa1d1b035ba808f2b45f,TCR,2024-06-21_12h46.35.056,LearnStrategy,2023.2.3,Win32,166.6666667,6,1,13,-0.019311085,0.01683277,1,0,0,0.7528,rock_grid_rect_2,8,04,-1,-1,0.753,0.45385954,-0.413852469,1,0,0,1.0279,Pumice_rect,8,1.028,1,12,0,12,0,1,,,,,,,,,,,,,
660dfa1d1b035ba808f2b45f,TCR,2024-06-21_12h46.35.056,LearnStrategy,2023.2.3,Win32,166.6666667,6,1,14,-0.011813668,0.009335354,1,0,0,0.7967,rock_grid_rect_2,7,13,-1,-1,0.797,0.177287994,-0.403855939,1,0,0,1.0612,Peridotite_rect,7,1.061,1,13,0,13,0,1,,,,,,,,,,,,,
660dfa1d1b035ba808f2b45f,TCR,2024-06-21_12h46.35.056,LearnStrategy,2023.2.3,Win32,166.6666667,6,1,15,-0.015978959,-0.003160328,1,0,0,0.7358,rock_grid_rect_2,3,02,-1,-1,0.736,0.173122704,-0.23974564,1,0,0,1.1042,Diorite_rect,3,1.104,1,14,0,14,0,1,,,,,,,,,,,,,
660dfa1d1b035ba808f2b45f,TCR,2024-06-21_12h46.35.056,LearnStrategy,2023.2.3,Win32,166.6666667,6,1,16,0.007346379,-0.009824732,1,0,0,0.6747,rock_grid_rect_2,6,06,-1,-1,0.675,-0.111779346,-0.382196703,1,0,0,1.1376,Pegmatite_rect,6,1.138,1,15,0,15,0,1,,,,,,,,,,,,,
660dfa1d1b035ba808f2b45f,TCR,2024-06-21_12h46.35.056,LearnStrategy,2023.2.3,Win32,166.6666667,6,2,1,,,,,,,,4,10,,,,,,,,,,,4,19.49,1,,,,,,0.401377549,-0.262237965,1,0,0,19.4904,Gabbro_rect,0,0,0,0,1,
660dfa1d1b035ba808f2b45f,TCR,2024-06-21_12h46.35.056,LearnStrategy,2023.2.3,Win32,166.6666667,6,2,2,,,,,,,,5,05,,,,,,,,,,,5,1.038,1,,,,,,-0.416674495,-0.388861031,1,0,0,1.0383,Obsidian_rect,1,0,1,0,1,
660dfa1d1b035ba808f2b45f,TCR,2024-06-21_12h46.35.056,LearnStrategy,2023.2.3,Win32,166.6666667,6,2,3,,,,,,,,2,10,,,,,,,,,,,2,13.766,1,,,,,,-0.182588296,-0.258905763,1,0,0,13.7664,Basalt_rect,2,0,2,0,1,
660dfa1d1b035ba808f2b45f,TCR,2024-06-21_12h46.35.056,LearnStrategy,2023.2.3,Win32,166.6666667,6,2,4,,,,,,,,6,05,,,,,,,,,,,5,8.675,0,,,,,,-0.380020425,-0.404688952,1,0,0,8.6751,Obsidian_rect,3,0,3,0,1,
660dfa1d1b035ba808f2b45f,TCR,2024-06-21_12h46.35.056,LearnStrategy,2023.2.3,Win32,166.6666667,6,2,5,,,,,,,,5,02,,,,,,,,,,,5,0.896,1,,,,,,-0.439166782,-0.414685558,1,0,0,0.8956,Obsidian_rect,4,0,4,0,1,
660dfa1d1b035ba808f2b45f,TCR,2024-06-21_12h46.35.056,LearnStrategy,2023.2.3,Win32,166.6666667,6,2,6,,,,,,,,1,01,,,,,,,,,,,1,3.401,1,,,,,,-0.335035889,-0.230582123,1,0,0,3.4011,Andesite_rect,5,0,5,0,1,
660dfa1d1b035ba808f2b45f,TCR,2024-06-21_12h46.35.056,LearnStrategy,2023.2.3,Win32,166.6666667,6,2,7,,,,,,,,8,14,,,,,,,,,,,8,0.983,1,,,,,,0.369721783,-0.419683785,1,0,0,0.9829,Pumice_rect,6,0,6,0,1,
660dfa1d1b035ba808f2b45f,TCR,2024-06-21_12h46.35.056,LearnStrategy,2023.2.3,Win32,166.6666667,6,2,8,,,,,,,,7,06,,,,,,,,,,,7,1.086,1,,,,,,0.130637319,-0.398024548,1,0,0,1.0858,Peridotite_rect,7,0,7,0,1,
660dfa1d1b035ba808f2b45f,TCR,2024-06-21_12h46.35.056,LearnStrategy,2023.2.3,Win32,166.6666667,6,2,9,,,,,,,,3,14,,,,,,,,,,,3,1.253,1,,,,,,0.123972991,-0.240578728,1,0,0,1.253,Diorite_rect,8,0,8,0,1,
660dfa1d1b035ba808f2b45f,TCR,2024-06-21_12h46.35.056,LearnStrategy,2023.2.3,Win32,166.6666667,6,2,10,,,,,,,,7,14,,,,,,,,,,,7,12.01,1,,,,,,0.138134735,-0.388028018,1,0,0,12.0104,Peridotite_rect,9,0,9,0,1,
660dfa1d1b035ba808f2b45f,TCR,2024-06-21_12h46.35.056,LearnStrategy,2023.2.3,Win32,166.6666667,6,2,11,,,,,,,,4,01,,,,,,,,,,,4,3.521,1,,,,,,0.408874966,-0.24391093,1,0,0,3.5207,Gabbro_rect,10,0,10,0,1,
660dfa1d1b035ba808f2b45f,TCR,2024-06-21_12h46.35.056,LearnStrategy,2023.2.3,Win32,166.6666667,6,2,12,,,,,,,,8,06,,,,,,,,,,,8,1.095,1,,,,,,0.348895634,-0.40135675,1,0,0,1.0955,Pumice_rect,11,0,11,0,1,
660dfa1d1b035ba808f2b45f,TCR,2024-06-21_12h46.35.056,LearnStrategy,2023.2.3,Win32,166.6666667,6,2,13,,,,,,,,2,05,,,,,,,,,,,2,0.953,1,,,,,,-0.170092615,-0.25390746,1,0,0,0.9525,Basalt_rect,12,0,12,0,1,
660dfa1d1b035ba808f2b45f,TCR,2024-06-21_12h46.35.056,LearnStrategy,2023.2.3,Win32,166.6666667,6,2,14,,,,,,,,1,04,,,,,,,,,,,1,1.684,1,,,,,,-0.415008394,-0.228916022,1,0,0,1.6842,Andesite_rect,13,0,13,0,1,
660dfa1d1b035ba808f2b45f,TCR,2024-06-21_12h46.35.056,LearnStrategy,2023.2.3,Win32,166.6666667,6,2,15,,,,,,,,6,08,,,,,,,,,,,6,1.686,1,,,,,,-0.147600328,-0.393026321,1,0,0,1.6864,Pegmatite_rect,14,0,14,0,1,
660dfa1d1b035ba808f2b45f,TCR,2024-06-21_12h46.35.056,LearnStrategy,2023.2.3,Win32,166.6666667,6,2,16,,,,,,,,3,06,,,,,,,,,,,3,11.971,1,,,,,,0.106478969,-0.241411741,1,0,0,11.9712,Diorite_rect,15,0,15,0,1,
660dfa1d1b035ba808f2b45f,TCR,2024-06-21_12h46.35.056,LearnStrategy,2023.2.3,Win32,166.6666667,7,1,1,-0.023476375,-0.00649253,1,0,0,1.3995,rock_grid_rect_2,1,16,-1,-1,1.399,-0.405011826,-0.269735381,1,0,0,1.503,Andesite_rect,1,1.503,1,0,0,0,0,1,,,,,,,,,,,,,
660dfa1d1b035ba808f2b45f,TCR,2024-06-21_12h46.35.056,LearnStrategy,2023.2.3,Win32,166.6666667,7,1,2,-0.04180341,-0.009824732,1,0,0,0.7779,rock_grid_rect_2,6,06,-1,-1,0.778,-0.212577999,-0.410520268,1,0,0,1.1738,Pegmatite_rect,6,1.174,1,1,0,1,0,1,,,,,,,,,,,,,
660dfa1d1b035ba808f2b45f,TCR,2024-06-21_12h46.35.056,LearnStrategy,2023.2.3,Win32,166.6666667,7,1,3,-0.009314555,0.011001455,1,0,0,0.8689,rock_grid_rect_2,3,07,-1,-1,0.869,0.147298253,-0.23974564,1,0,0,0.9657,Diorite_rect,3,0.966,1,2,0,2,0,1,,,,,,,,,,,,,
660dfa1d1b035ba808f2b45f,TCR,2024-06-21_12h46.35.056,LearnStrategy,2023.2.3,Win32,166.6666667,7,1,4,0.006513366,-0.019821299,1,0,0,0.7997,rock_grid_rect_2,8,09,-1,-1,0.8,0.394713221,-0.402189839,1,0,0,0.9656,Pumice_rect,8,0.966,1,3,0,3,0,1,,,,,,,,,,,,,
660dfa1d1b035ba808f2b45f,TCR,2024-06-21_12h46.35.056,LearnStrategy,2023.2.3,Win32,166.6666667,7,1,5,0.003181164,-0.004826429,1,0,0,1.3911,rock_grid_rect_2,4,14,-1,-1,1.391,0.411374155,-0.24391093,1,0,0,0.8903,Gabbro_rect,4,0.89,1,4,0,4,0,1,,,,,,,,,,,,,
660dfa1d1b035ba808f2b45f,TCR,2024-06-21_12h46.35.056,LearnStrategy,2023.2.3,Win32,166.6666667,7,1,6,-0.011813668,0.008502303,1,0,0,0.6724,rock_grid_rect_2,3,15,-1,-1,0.672,-0.376688261,-0.25390746,1,0,0,2.1827,Andesite_rect,1,2.183,0,5,0,5,0,1,,,,,,,,,,,,,
660dfa1d1b035ba808f2b45f,TCR,2024-06-21_12h46.35.056,LearnStrategy,2023.2.3,Win32,166.6666667,7,1,7,-0.107614056,-0.003993378,1,0,0,0.6054,rock_grid_rect_2,1,06,-1,-1,0.605,-0.351696823,-0.252241359,1,0,0,1.0486,Andesite_rect,1,1.049,1,6,0,6,0,1,,,,,,,,,,,,,
660dfa1d1b035ba808f2b45f,TCR,2024-06-21_12h46.35.056,LearnStrategy,2023.2.3,Win32,166.6666667,7,1,8,-0.005982353,0.008502303,1,0,0,0.6387,rock_grid_rect_2,1,09,-1,-1,0.639,-0.372523009,-0.238079539,1,0,0,1.6798,Andesite_rect,1,1.68,1,7,0,7,0,1,,,,,,,,,,,,,
660dfa1d1b035ba808f2b45f,TCR,2024-06-21_12h46.35.056,LearnStrategy,2023.2.3,Win32,166.6666667,7,1,9,-0.031806804,-0.002327277,1,0,0,0.7145,rock_grid_rect_2,6,12,-1,-1,0.714,-0.112612359,-0.414685558,1,0,0,1.1337,Pegmatite_rect,6,1.134,1,8,0,8,0,1,,,,,,,,,,,,,
660dfa1d1b035ba808f2b45f,TCR,2024-06-21_12h46.35.056,LearnStrategy,2023.2.3,Win32,166.6666667,7,1,10,0.012344682,-0.00649253,1,0,0,0.8483,rock_grid_rect_2,1,11,-1,-1,0.848,-0.394182245,-0.23974564,1,0,0,1.6991,Andesite_rect,1,1.699,1,9,0,9,0,1,,,,,,,,,,,,,
660dfa1d1b035ba808f2b45f,TCR,2024-06-21_12h46.35.056,LearnStrategy,2023.2.3,Win32,166.6666667,7,1,11,-0.069293962,0.005170139,1,0,0,0.7508,rock_grid_rect_2,5,10,-1,-1,0.751,-0.370856908,-0.408854167,1,0,0,1.138,Obsidian_rect,5,1.138,1,10,0,10,0,1,,,,,,,,,,,,,
660dfa1d1b035ba808f2b45f,TCR,2024-06-21_12h46.35.056,LearnStrategy,2023.2.3,Win32,166.6666667,7,1,12,-0.050133839,-0.013156896,1,0,0,0.7053,rock_grid_rect_2,7,07,-1,-1,0.705,0.125639016,-0.39136022,1,0,0,0.8887,Peridotite_rect,7,0.889,1,11,0,11,0,1,,,,,,,,,,,,,
660dfa1d1b035ba808f2b45f,TCR,2024-06-21_12h46.35.056,LearnStrategy,2023.2.3,Win32,166.6666667,7,1,13,-0.026808577,-0.021487362,1,0,0,1.2273,rock_grid_rect_2,2,12,-1,-1,1.227,-0.134271596,-0.268902293,1,0,0,2.9822,Basalt_rect,2,2.982,1,12,0,12,0,1,,,,,,,,,,,,,
660dfa1d1b035ba808f2b45f,TCR,2024-06-21_12h46.35.056,LearnStrategy,2023.2.3,Win32,166.6666667,7,1,14,-0.028474602,0.005170139,1,0,0,0.5631,rock_grid_rect_2,7,12,-1,-1,0.563,0.150630455,-0.404688952,1,0,0,0.8642,Peridotite_rect,7,0.864,1,13,0,13,0,1,,,,,,,,,,,,,
660dfa1d1b035ba808f2b45f,TCR,2024-06-21_12h46.35.056,LearnStrategy,2023.2.3,Win32,166.6666667,7,1,15,-0.007648454,0.001004887,1,0,0,0.7022,rock_grid_rect_2,6,03,-1,-1,0.702,-0.196750116,-0.410520268,1,0,0,1.1026,Pegmatite_rect,6,1.103,1,14,0,14,0,1,,,,,,,,,,,,,
660dfa1d1b035ba808f2b45f,TCR,2024-06-21_12h46.35.056,LearnStrategy,2023.2.3,Win32,166.6666667,7,1,16,-0.088454009,0.001004887,1,0,0,0.6479,rock_grid_rect_2,4,13,-1,-1,0.648,0.365556568,-0.23974564,1,0,0,1.2833,Gabbro_rect,4,1.283,1,15,0,15,0,1,,,,,,,,,,,,,
660dfa1d1b035ba808f2b45f,TCR,2024-06-21_12h46.35.056,LearnStrategy,2023.2.3,Win32,166.6666667,7,2,1,,,,,,,,1,07,,,,,,,,,,,1,4.183,1,,,,,,-0.384185678,-0.268902293,1,0,0,4.1825,Andesite_rect,0,0,0,0,1,
660dfa1d1b035ba808f2b45f,TCR,2024-06-21_12h46.35.056,LearnStrategy,2023.2.3,Win32,166.6666667,7,2,2,,,,,,,,8,15,,,,,,,,,,,8,2.582,1,,,,,,0.402210637,-0.395525435,1,0,0,2.5815,Pumice_rect,1,0,1,0,1,
660dfa1d1b035ba808f2b45f,TCR,2024-06-21_12h46.35.056,LearnStrategy,2023.2.3,Win32,166.6666667,7,2,3,,,,,,,,7,02,,,,,,,,,,,7,1.103,1,,,,,,0.137301723,-0.409687255,1,0,0,1.1027,Peridotite_rect,2,0,2,0,1,
660dfa1d1b035ba808f2b45f,TCR,2024-06-21_12h46.35.056,LearnStrategy,2023.2.3,Win32,166.6666667,7,2,4,,,,,,,,7,10,,,,,,,,,,,7,0.934,1,,,,,,0.118974688,-0.403022851,1,0,0,0.9336,Peridotite_rect,3,0,3,0,1,
660dfa1d1b035ba808f2b45f,TCR,2024-06-21_12h46.35.056,LearnStrategy,2023.2.3,Win32,166.6666667,7,2,5,,,,,,,,6,13,,,,,,,,,,,6,1.283,1,,,,,,-0.153431643,-0.400523738,1,0,0,1.2828,Pegmatite_rect,4,0,4,0,1,
660dfa1d1b035ba808f2b45f,TCR,2024-06-21_12h46.35.056,LearnStrategy,2023.2.3,Win32,166.6666667,7,2,6,,,,,,,,2,10,,,,,,,,,,,2,2.067,1,,,,,,-0.127607192,-0.252241359,1,0,0,2.0672,Basalt_rect,5,0,5,0,1,
660dfa1d1b035ba808f2b45f,TCR,2024-06-21_12h46.35.056,LearnStrategy,2023.2.3,Win32,166.6666667,7,2,7,,,,,,,,5,12,,,,,,,,,,,5,1.384,1,,,,,,-0.357528176,-0.413852469,1,0,0,1.3838,Obsidian_rect,6,0,6,0,1,
660dfa1d1b035ba808f2b45f,TCR,2024-06-21_12h46.35.056,LearnStrategy,2023.2.3,Win32,166.6666667,7,2,8,,,,,,,,6,08,,,,,,,,,,,6,1.015,1,,,,,,-0.116777574,-0.403022851,1,0,0,1.0146,Pegmatite_rect,7,0,7,0,1,
660dfa1d1b035ba808f2b45f,TCR,2024-06-21_12h46.35.056,LearnStrategy,2023.2.3,Win32,166.6666667,7,2,9,,,,,,,,5,16,,,,,,,,,,,5,0.896,1,,,,,,-0.315875804,-0.400523738,1,0,0,0.8964,Obsidian_rect,8,0,8,0,1,
660dfa1d1b035ba808f2b45f,TCR,2024-06-21_12h46.35.056,LearnStrategy,2023.2.3,Win32,166.6666667,7,2,10,,,,,,,,8,03,,,,,,,,,,,8,1.343,1,,,,,,0.36888877,-0.386361917,1,0,0,1.3429,Pumice_rect,9,0,9,0,1,
660dfa1d1b035ba808f2b45f,TCR,2024-06-21_12h46.35.056,LearnStrategy,2023.2.3,Win32,166.6666667,7,2,11,,,,,,,,2,02,,,,,,,,,,,2,1.966,1,,,,,,-0.125108078,-0.251408347,1,0,0,1.966,Basalt_rect,10,0,10,0,1,
660dfa1d1b035ba808f2b45f,TCR,2024-06-21_12h46.35.056,LearnStrategy,2023.2.3,Win32,166.6666667,7,2,12,,,,,,,,4,10,,,,,,,,,,,4,2.129,1,,,,,,0.360558265,-0.238912627,1,0,0,2.1291,Gabbro_rect,11,0,11,0,1,
660dfa1d1b035ba808f2b45f,TCR,2024-06-21_12h46.35.056,LearnStrategy,2023.2.3,Win32,166.6666667,7,2,13,,,,,,,,1,01,,,,,,,,,,,1,2.253,1,,,,,,-0.37418911,-0.235580425,1,0,0,2.253,Andesite_rect,12,0,12,0,1,
660dfa1d1b035ba808f2b45f,TCR,2024-06-21_12h46.35.056,LearnStrategy,2023.2.3,Win32,166.6666667,7,2,14,,,,,,,,3,08,,,,,,,,,,,3,0.766,1,,,,,,0.105645956,-0.246410044,1,0,0,0.7661,Diorite_rect,13,0,13,0,1,
660dfa1d1b035ba808f2b45f,TCR,2024-06-21_12h46.35.056,LearnStrategy,2023.2.3,Win32,166.6666667,7,2,15,,,,,,,,4,09,,,,,,,,,,,4,4.881,1,,,,,,0.35472695,-0.248076145,1,0,0,4.8813,Gabbro_rect,14,0,14,0,1,
660dfa1d1b035ba808f2b45f,TCR,2024-06-21_12h46.35.056,LearnStrategy,2023.2.3,Win32,166.6666667,7,2,16,,,,,,,,3,10,,,,,,,,,,,1,2.968,0,,,,,,-0.39918051,-0.242244829,1,0,0,2.9682,Andesite_rect,15,0,15,0,1,
660dfa1d1b035ba808f2b45f,TCR,2024-06-21_12h46.35.056,LearnStrategy,2023.2.3,Win32,166.6666667,8,1,1,-0.033472905,0.011001455,1,0,0,0.7272,rock_grid_rect_2,4,13,-1,-1,0.727,0.419704584,-0.268902293,1,0,0,0.9677,Gabbro_rect,4,0.968,1,0,0,0,0,1,,,,,,,,,,,,,
660dfa1d1b035ba808f2b45f,TCR,2024-06-21_12h46.35.056,LearnStrategy,2023.2.3,Win32,166.6666667,8,1,2,-0.030140703,-0.00732558,1,0,0,0.7142,rock_grid_rect_2,3,02,-1,-1,0.714,0.100647653,-0.253074447,1,0,0,0.8632,Diorite_rect,3,0.863,1,1,0,1,0,1,,,,,,,,,,,,,
660dfa1d1b035ba808f2b45f,TCR,2024-06-21_12h46.35.056,LearnStrategy,2023.2.3,Win32,166.6666667,8,1,3,-0.002650151,0.001837937,1,0,0,0.7432,rock_grid_rect_2,1,05,-1,-1,0.743,-0.382519577,-0.247243056,1,0,0,1.9558,Andesite_rect,1,1.956,1,2,0,2,0,1,,,,,,,,,,,,,
660dfa1d1b035ba808f2b45f,TCR,2024-06-21_12h46.35.056,LearnStrategy,2023.2.3,Win32,166.6666667,8,1,4,-0.025975489,0.003504038,1,0,0,0.9385,rock_grid_rect_2,6,16,-1,-1,0.938,-0.110113246,-0.398857637,1,0,0,5.0214,Pegmatite_rect,6,5.021,1,3,0,3,0,1,,,,,,,,,,,,,
660dfa1d1b035ba808f2b45f,TCR,2024-06-21_12h46.35.056,LearnStrategy,2023.2.3,Win32,166.6666667,8,1,5,-0.005982353,-0.00649253,1,0,0,0.9328,rock_grid_rect_2,6,12,-1,-1,0.933,-0.155097744,-0.417184671,1,0,0,1.0522,Pegmatite_rect,6,1.052,1,4,0,4,0,1,,,,,,,,,,,,,
660dfa1d1b035ba808f2b45f,TCR,2024-06-21_12h46.35.056,LearnStrategy,2023.2.3,Win32,166.6666667,8,1,6,-0.080956593,0.015166707,1,0,0,0.7052,rock_grid_rect_2,1,09,-1,-1,0.705,-0.419173646,-0.233081312,1,0,0,1.108,Andesite_rect,1,1.108,1,5,0,5,0,1,,,,,,,,,,,,,
660dfa1d1b035ba808f2b45f,TCR,2024-06-21_12h46.35.056,LearnStrategy,2023.2.3,Win32,166.6666667,8,1,7,-0.027641589,0.007669253,1,0,0,0.9925,rock_grid_rect_2,2,14,-1,-1,0.993,-0.181755283,-0.242244829,1,0,0,8.189,Basalt_rect,2,8.189,1,6,0,6,0,1,,,,,,,,,,,,,
660dfa1d1b035ba808f2b45f,TCR,2024-06-21_12h46.35.056,LearnStrategy,2023.2.3,Win32,166.6666667,8,1,8,0.004014177,-0.014822997,1,0,0,0.825,rock_grid_rect_2,5,11,-1,-1,0.825,-0.408344028,-0.417184671,1,0,0,0.9481,Obsidian_rect,5,0.948,1,7,0,7,0,1,,,,,,,,,,,,,
660dfa1d1b035ba808f2b45f,TCR,2024-06-21_12h46.35.056,LearnStrategy,2023.2.3,Win32,166.6666667,8,1,9,-0.021810274,0.005170139,1,0,0,0.8239,rock_grid_rect_2,4,12,-1,-1,0.824,0.395546234,-0.244743943,1,0,0,8.7979,Gabbro_rect,4,8.798,1,8,0,8,0,1,,,,,,,,,,,,,
660dfa1d1b035ba808f2b45f,TCR,2024-06-21_12h46.35.056,LearnStrategy,2023.2.3,Win32,166.6666667,8,1,10,-0.026808577,-0.00649253,1,0,0,0.5687,rock_grid_rect_2,7,15,-1,-1,0.569,0.086485833,-0.39136022,1,0,0,1.3232,Peridotite_rect,7,1.323,1,9,0,9,0,1,,,,,,,,,,,,,
660dfa1d1b035ba808f2b45f,TCR,2024-06-21_12h46.35.056,LearnStrategy,2023.2.3,Win32,166.6666667,8,1,11,-0.061796545,0.003504038,1,0,0,0.6375,rock_grid_rect_2,7,15,-1,-1,0.638,0.105645956,-0.421349886,1,0,0,0.7915,Peridotite_rect,7,0.792,1,10,0,10,0,1,,,,,,,,,,,,,
660dfa1d1b035ba808f2b45f,TCR,2024-06-21_12h46.35.056,LearnStrategy,2023.2.3,Win32,166.6666667,8,1,12,-0.06596176,-0.011490795,1,0,0,0.5278,rock_grid_rect_2,6,11,-1,-1,0.528,-0.166760413,-0.403022851,1,0,0,0.9739,Pegmatite_rect,6,0.974,1,11,0,11,0,1,,,,,,,,,,,,,
660dfa1d1b035ba808f2b45f,TCR,2024-06-21_12h46.35.056,LearnStrategy,2023.2.3,Win32,166.6666667,8,1,13,-0.056798242,-0.008158631,1,0,0,0.6069,rock_grid_rect_2,1,05,-1,-1,0.607,-0.377521312,-0.259738776,1,0,0,1.1621,Andesite_rect,1,1.162,1,12,0,12,0,1,,,,,,,,,,,,,
660dfa1d1b035ba808f2b45f,TCR,2024-06-21_12h46.35.056,LearnStrategy,2023.2.3,Win32,166.6666667,8,1,14,-0.048467738,-0.014822997,1,0,0,0.7401,rock_grid_rect_2,3,07,-1,-1,0.74,0.134802533,-0.244743943,1,0,0,0.9016,Diorite_rect,3,0.902,1,13,0,13,0,1,,,,,,,,,,,,,
660dfa1d1b035ba808f2b45f,TCR,2024-06-21_12h46.35.056,LearnStrategy,2023.2.3,Win32,166.6666667,8,1,15,-0.01514587,-0.018155198,1,0,0,0.5414,rock_grid_rect_2,8,02,-1,-1,0.541,0.366389581,-0.39136022,1,0,0,0.9396,Pumice_rect,8,0.94,1,14,0,14,0,1,,,,,,,,,,,,,
660dfa1d1b035ba808f2b45f,TCR,2024-06-21_12h46.35.056,LearnStrategy,2023.2.3,Win32,166.6666667,8,1,16,0.029005616,-0.004826429,1,0,0,0.6726,rock_grid_rect_2,3,15,-1,-1,0.673,0.094816338,-0.262237965,1,0,0,3.8608,Diorite_rect,3,3.861,1,15,0,15,0,1,,,,,,,,,,,,,
660dfa1d1b035ba808f2b45f,TCR,2024-06-21_12h46.35.056,LearnStrategy,2023.2.3,Win32,166.6666667,8,2,1,,,,,,,,3,06,,,,,,,,,,,3,0.956,1,,,,,,0.095649351,-0.237246526,1,0,0,0.9562,Diorite_rect,0,0,0,0,1,
660dfa1d1b035ba808f2b45f,TCR,2024-06-21_12h46.35.056,LearnStrategy,2023.2.3,Win32,166.6666667,8,2,2,,,,,,,,4,03,,,,,,,,,,,4,3.186,1,,,,,,0.391381019,-0.242244829,1,0,0,3.1864,Gabbro_rect,1,0,1,0,1,
660dfa1d1b035ba808f2b45f,TCR,2024-06-21_12h46.35.056,LearnStrategy,2023.2.3,Win32,166.6666667,8,2,3,,,,,,,,5,02,,,,,,,,,,,5,0.797,1,,,,,,-0.421672797,-0.388861031,1,0,0,0.7975,Obsidian_rect,2,0,2,0,1,
660dfa1d1b035ba808f2b45f,TCR,2024-06-21_12h46.35.056,LearnStrategy,2023.2.3,Win32,166.6666667,8,2,4,,,,,,,,3,14,,,,,,,,,,,3,2.401,1,,,,,,0.111477272,-0.255573561,1,0,0,2.4012,Diorite_rect,3,0,3,0,1,
660dfa1d1b035ba808f2b45f,TCR,2024-06-21_12h46.35.056,LearnStrategy,2023.2.3,Win32,166.6666667,8,2,5,,,,,,,,2,04,,,,,,,,,,,2,1.326,1,,,,,,-0.142602025,-0.25390746,1,0,0,1.3263,Basalt_rect,4,0,4,0,1,
660dfa1d1b035ba808f2b45f,TCR,2024-06-21_12h46.35.056,LearnStrategy,2023.2.3,Win32,166.6666667,8,2,6,,,,,,,,1,10,,,,,,,,,,,1,1.472,1,,,,,,-0.405011826,-0.265570091,1,0,0,1.4724,Andesite_rect,5,0,5,0,1,
660dfa1d1b035ba808f2b45f,TCR,2024-06-21_12h46.35.056,LearnStrategy,2023.2.3,Win32,166.6666667,8,2,7,,,,,,,,7,06,,,,,,,,,,,7,1.199,1,,,,,,0.082320619,-0.388861031,1,0,0,1.1991,Peridotite_rect,6,0,6,0,1,
660dfa1d1b035ba808f2b45f,TCR,2024-06-21_12h46.35.056,LearnStrategy,2023.2.3,Win32,166.6666667,8,2,8,,,,,,,,8,05,,,,,,,,,,,8,1.158,1,,,,,,0.36888877,-0.390527132,1,0,0,1.1584,Pumice_rect,7,0,7,0,1,
660dfa1d1b035ba808f2b45f,TCR,2024-06-21_12h46.35.056,LearnStrategy,2023.2.3,Win32,166.6666667,8,2,9,,,,,,,,6,15,,,,,,,,,,,6,1.716,1,,,,,,-0.143435113,-0.379697514,1,0,0,1.7162,Pegmatite_rect,8,0,8,0,1,
660dfa1d1b035ba808f2b45f,TCR,2024-06-21_12h46.35.056,LearnStrategy,2023.2.3,Win32,166.6666667,8,2,10,,,,,,,,8,13,,,,,,,,,,,8,2.345,1,,,,,,0.433033391,-0.413852469,1,0,0,2.345,Pumice_rect,9,0,9,0,1,
660dfa1d1b035ba808f2b45f,TCR,2024-06-21_12h46.35.056,LearnStrategy,2023.2.3,Win32,166.6666667,8,2,11,,,,,,,,7,14,,,,,,,,,,,3,1.987,0,,,,,,0.074823202,-0.236413514,1,0,0,1.9872,Diorite_rect,10,0,10,0,1,
660dfa1d1b035ba808f2b45f,TCR,2024-06-21_12h46.35.056,LearnStrategy,2023.2.3,Win32,166.6666667,8,2,12,,,,,,,,4,11,,,,,,,,,,,4,8.849,1,,,,,,0.352227836,-0.257239662,1,0,0,8.8486,Gabbro_rect,11,0,11,0,1,
660dfa1d1b035ba808f2b45f,TCR,2024-06-21_12h46.35.056,LearnStrategy,2023.2.3,Win32,166.6666667,8,2,13,,,,,,,,2,05,,,,,,,,,,,2,0.873,1,,,,,,-0.205080583,-0.236413514,1,0,0,0.8727,Basalt_rect,12,0,12,0,1,
660dfa1d1b035ba808f2b45f,TCR,2024-06-21_12h46.35.056,LearnStrategy,2023.2.3,Win32,166.6666667,8,2,14,,,,,,,,5,09,,,,,,,,,,,5,1.048,1,,,,,,-0.425838012,-0.379697514,1,0,0,1.0482,Obsidian_rect,13,0,13,0,1,
660dfa1d1b035ba808f2b45f,TCR,2024-06-21_12h46.35.056,LearnStrategy,2023.2.3,Win32,166.6666667,8,2,15,,,,,,,,6,07,,,,,,,,,,,6,1.022,1,,,,,,-0.126774179,-0.394692422,1,0,0,1.0221,Pegmatite_rect,14,0,14,0,1,
660dfa1d1b035ba808f2b45f,TCR,2024-06-21_12h46.35.056,LearnStrategy,2023.2.3,Win32,166.6666667,8,2,16,,,,,,,,1,14,,,,,,,,,,,1,2.781,1,,,,,,-0.392516144,-0.25390746,1,0,0,2.7806,Andesite_rect,15,0,15,0,1,
660dfa1d1b035ba808f2b45f,TCR,2024-06-21_12h46.35.056,LearnStrategy,2023.2.3,Win32,166.6666667,9,1,1,-0.011813668,0.007669253,1,0,0,0.9887,rock_grid_rect_2,6,10,-1,-1,0.989,0.093150237,-0.402189839,1,0,0,2.58,Peridotite_rect,7,2.58,0,0,0,0,0,1,,,,,,,,,,,,,
660dfa1d1b035ba808f2b45f,TCR,2024-06-21_12h46.35.056,LearnStrategy,2023.2.3,Win32,166.6666667,9,1,2,-0.016811971,0.01599972,1,0,0,0.8358,rock_grid_rect_2,2,14,-1,-1,0.836,-0.107614056,-0.242244829,1,0,0,1.7319,Basalt_rect,2,1.732,1,1,0,1,0,1,,,,,,,,,,,,,
660dfa1d1b035ba808f2b45f,TCR,2024-06-21_12h46.35.056,LearnStrategy,2023.2.3,Win32,166.6666667,9,1,3,-0.101782741,0.015166707,1,0,0,0.9487,rock_grid_rect_2,3,07,-1,-1,0.949,0.115642486,-0.233081312,1,0,0,1.3788,Diorite_rect,3,1.379,1,2,0,2,0,1,,,,,,,,,,,,,
660dfa1d1b035ba808f2b45f,TCR,2024-06-21_12h46.35.056,LearnStrategy,2023.2.3,Win32,166.6666667,9,1,4,-0.019311085,0.007669253,1,0,0,0.7328,rock_grid_rect_2,1,09,-1,-1,0.733,-0.405844876,-0.247243056,1,0,0,1.2854,Andesite_rect,1,1.285,1,3,0,3,0,1,,,,,,,,,,,,,
660dfa1d1b035ba808f2b45f,TCR,2024-06-21_12h46.35.056,LearnStrategy,2023.2.3,Win32,166.6666667,9,1,5,-0.110946258,-0.004826429,1,0,0,0.7083,rock_grid_rect_2,7,07,-1,-1,0.708,0.103979855,-0.392193233,1,0,0,1.7438,Peridotite_rect,7,1.744,1,4,0,4,0,1,,,,,,,,,,,,,
660dfa1d1b035ba808f2b45f,TCR,2024-06-21_12h46.35.056,LearnStrategy,2023.2.3,Win32,166.6666667,9,1,6,-0.079290492,-0.017322148,1,0,0,1.0449,rock_grid_rect_2,5,10,-1,-1,1.045,-0.358361226,-0.418850772,1,0,0,1.1723,Obsidian_rect,5,1.172,1,5,0,5,0,1,,,,,,,,,,,,,
660dfa1d1b035ba808f2b45f,TCR,2024-06-21_12h46.35.056,LearnStrategy,2023.2.3,Win32,166.6666667,9,1,7,-0.057631255,-0.011490795,1,0,0,0.6611,rock_grid_rect_2,7,07,-1,-1,0.661,0.130637319,-0.413852469,1,0,0,0.9213,Peridotite_rect,7,0.921,1,6,0,6,0,1,,,,,,,,,,,,,
660dfa1d1b035ba808f2b45f,TCR,2024-06-21_12h46.35.056,LearnStrategy,2023.2.3,Win32,166.6666667,9,1,8,-0.018478072,0.003504038,1,0,0,0.6674,rock_grid_rect_2,7,13,-1,-1,0.667,0.137301723,-0.398857637,1,0,0,1.3317,Peridotite_rect,7,1.332,1,7,0,7,0,1,,,,,,,,,,,,,
660dfa1d1b035ba808f2b45f,TCR,2024-06-21_12h46.35.056,LearnStrategy,2023.2.3,Win32,166.6666667,9,1,9,-0.026808577,0.000171836,1,0,0,0.61,rock_grid_rect_2,3,12,-1,-1,0.61,0.127305117,-0.256406574,1,0,0,0.896,Diorite_rect,3,0.896,1,8,0,8,0,1,,,,,,,,,,,,,
660dfa1d1b035ba808f2b45f,TCR,2024-06-21_12h46.35.056,LearnStrategy,2023.2.3,Win32,166.6666667,9,1,10,0.018175997,0.008502303,1,0,0,0.6786,rock_grid_rect_2,1,16,-1,-1,0.679,-0.435001529,-0.263070977,1,0,0,0.9525,Andesite_rect,1,0.952,1,9,0,9,0,1,,,,,,,,,,,,,
660dfa1d1b035ba808f2b45f,TCR,2024-06-21_12h46.35.056,LearnStrategy,2023.2.3,Win32,166.6666667,9,1,11,-0.048467738,-0.012323845,1,0,0,0.6662,rock_grid_rect_2,4,14,-1,-1,0.666,-0.116777574,-0.250575258,1,0,0,1.4536,Basalt_rect,2,1.454,0,10,0,10,0,1,,,,,,,,,,,,,
660dfa1d1b035ba808f2b45f,TCR,2024-06-21_12h46.35.056,LearnStrategy,2023.2.3,Win32,166.6666667,9,1,12,-0.072626088,-0.013156896,1,0,0,0.5714,rock_grid_rect_2,8,08,-1,-1,0.571,0.367222669,-0.402189839,1,0,0,0.9842,Pumice_rect,8,0.984,1,11,0,11,0,1,,,,,,,,,,,,,
660dfa1d1b035ba808f2b45f,TCR,2024-06-21_12h46.35.056,LearnStrategy,2023.2.3,Win32,166.6666667,9,1,13,-0.095118413,0.003504038,1,0,0,1.1116,rock_grid_rect_2,6,11,-1,-1,1.112,-0.198416217,-0.410520268,1,0,0,0.9111,Pegmatite_rect,6,0.911,1,12,0,12,0,1,,,,,,,,,,,,,
660dfa1d1b035ba808f2b45f,TCR,2024-06-21_12h46.35.056,LearnStrategy,2023.2.3,Win32,166.6666667,9,1,14,0.000681975,-0.005659479,1,0,0,0.7178,rock_grid_rect_2,4,16,-1,-1,0.718,0.363890467,-0.24391093,1,0,0,1.4665,Gabbro_rect,4,1.466,1,13,0,13,0,1,,,,,,,,,,,,,
660dfa1d1b035ba808f2b45f,TCR,2024-06-21_12h46.35.056,LearnStrategy,2023.2.3,Win32,166.6666667,9,1,15,-0.059297356,-0.015656047,1,0,0,0.6656,rock_grid_rect_2,3,11,-1,-1,0.666,0.078988417,-0.228083009,1,0,0,2.1461,Diorite_rect,3,2.146,1,14,0,14,0,1,,,,,,,,,,,,,
660dfa1d1b035ba808f2b45f,TCR,2024-06-21_12h46.35.056,LearnStrategy,2023.2.3,Win32,166.6666667,9,1,16,-0.082622694,0.007669253,1,0,0,0.5472,rock_grid_rect_2,1,06,-1,-1,0.547,-0.389183943,-0.264737078,1,0,0,1.1466,Andesite_rect,1,1.147,1,15,0,15,0,1,,,,,,,,,,,,,
660dfa1d1b035ba808f2b45f,TCR,2024-06-21_12h46.35.056,LearnStrategy,2023.2.3,Win32,166.6666667,9,2,1,,,,,,,,7,05,,,,,,,,,,,7,1.056,1,,,,,,0.113976385,-0.406355053,1,0,0,1.0557,Peridotite_rect,0,0,0,0,1,
660dfa1d1b035ba808f2b45f,TCR,2024-06-21_12h46.35.056,LearnStrategy,2023.2.3,Win32,166.6666667,9,2,2,,,,,,,,8,06,,,,,,,,,,,8,1.427,1,,,,,,0.36472348,-0.403855939,1,0,0,1.4271,Pumice_rect,1,0,1,0,1,
660dfa1d1b035ba808f2b45f,TCR,2024-06-21_12h46.35.056,LearnStrategy,2023.2.3,Win32,166.6666667,9,2,3,,,,,,,,2,16,,,,,,,,,,,4,1.846,0,,,,,,0.324737284,-0.237246526,1,0,0,1.8458,Gabbro_rect,2,0,2,0,1,
660dfa1d1b035ba808f2b45f,TCR,2024-06-21_12h46.35.056,LearnStrategy,2023.2.3,Win32,166.6666667,9,2,4,,,,,,,,4,15,,,,,,,,,,,4,16.246,1,,,,,,0.374720085,-0.248909157,1,0,0,16.2456,Gabbro_rect,3,0,3,0,1,
660dfa1d1b035ba808f2b45f,TCR,2024-06-21_12h46.35.056,LearnStrategy,2023.2.3,Win32,166.6666667,9,2,5,,,,,,,,2,09,,,,,,,,,,,2,0.877,1,,,,,,-0.167593463,-0.249742246,1,0,0,0.8765,Basalt_rect,4,0,4,0,1,
660dfa1d1b035ba808f2b45f,TCR,2024-06-21_12h46.35.056,LearnStrategy,2023.2.3,Win32,166.6666667,9,2,6,,,,,,,,5,08,,,,,,,,,,,5,0.961,1,,,,,,-0.448330299,-0.411353356,1,0,0,0.9614,Obsidian_rect,5,0,5,0,1,
660dfa1d1b035ba808f2b45f,TCR,2024-06-21_12h46.35.056,LearnStrategy,2023.2.3,Win32,166.6666667,9,2,7,,,,,,,,1,04,,,,,,,,,,,1,1.734,1,,,,,,-0.424171911,-0.247243056,1,0,0,1.7338,Andesite_rect,6,0,6,0,1,
660dfa1d1b035ba808f2b45f,TCR,2024-06-21_12h46.35.056,LearnStrategy,2023.2.3,Win32,166.6666667,9,2,8,,,,,,,,1,02,,,,,,,,,,,1,19.411,1,,,,,,-0.415841444,-0.246410044,1,0,0,19.4111,Andesite_rect,7,0,7,0,1,
660dfa1d1b035ba808f2b45f,TCR,2024-06-21_12h46.35.056,LearnStrategy,2023.2.3,Win32,166.6666667,9,2,9,,,,,,,,8,14,,,,,,,,,,,8,1.071,1,,,,,,0.398878436,-0.402189839,1,0,0,1.0705,Pumice_rect,8,0,8,0,1,
660dfa1d1b035ba808f2b45f,TCR,2024-06-21_12h46.35.056,LearnStrategy,2023.2.3,Win32,166.6666667,9,2,10,,,,,,,,4,01,,,,,,,,,,,7,3.639,0,,,,,,0.135635622,-0.402189839,1,0,0,3.6395,Peridotite_rect,9,0,9,0,1,
660dfa1d1b035ba808f2b45f,TCR,2024-06-21_12h46.35.056,LearnStrategy,2023.2.3,Win32,166.6666667,9,2,11,,,,,,,,5,05,,,,,,,,,,,5,1.091,1,,,,,,-0.404178813,-0.403855939,1,0,0,1.0907,Obsidian_rect,10,0,10,0,1,
660dfa1d1b035ba808f2b45f,TCR,2024-06-21_12h46.35.056,LearnStrategy,2023.2.3,Win32,166.6666667,9,2,12,,,,,,,,3,09,,,,,,,,,,,3,1.277,1,,,,,,0.111477272,-0.235580425,1,0,0,1.2769,Diorite_rect,11,0,11,0,1,
660dfa1d1b035ba808f2b45f,TCR,2024-06-21_12h46.35.056,LearnStrategy,2023.2.3,Win32,166.6666667,9,2,13,,,,,,,,6,05,,,,,,,,,,,6,9.281,1,,,,,,-0.161762148,-0.418017684,1,0,0,9.281,Pegmatite_rect,12,0,12,0,1,
660dfa1d1b035ba808f2b45f,TCR,2024-06-21_12h46.35.056,LearnStrategy,2023.2.3,Win32,166.6666667,9,2,14,,,,,,,,3,16,,,,,,,,,,,3,0.868,1,,,,,,0.107311981,-0.238079539,1,0,0,0.8678,Diorite_rect,13,0,13,0,1,
660dfa1d1b035ba808f2b45f,TCR,2024-06-21_12h46.35.056,LearnStrategy,2023.2.3,Win32,166.6666667,9,2,15,,,,,,,,7,04,,,,,,,,,,,1,8.064,0,,,,,,-0.344199406,-0.238079539,1,0,0,8.0643,Andesite_rect,14,0,14,0,1,
660dfa1d1b035ba808f2b45f,TCR,2024-06-21_12h46.35.056,LearnStrategy,2023.2.3,Win32,166.6666667,9,2,16,,,,,,,,6,09,,,,,,,,,,,6,2.075,1,,,,,,-0.115111548,-0.393026321,1,0,0,2.0748,Pegmatite_rect,15,0,15,0,1,
660dfa1d1b035ba808f2b45f,TCR,2024-06-21_12h46.35.056,LearnStrategy,2023.2.3,Win32,166.6666667,,,,,,,,,,,,,,,,,,,,,,,,,,,,,,,,,,,,,,,,,,,1
660dfa1d1b035ba808f2b45f,TCR,2024-06-21_12h46.35.056,LearnStrategy,2023.2.3,Win32,166.6666667,,,,,,,,,,,,,,,,,,,,,,,,,,,,,,,,,,,,,,,,,,,
660dfa1d1b035ba808f2b45f,TCR,2024-06-21_12h46.35.056,LearnStrategy,2023.2.3,Win32,166.6666667,,,,,,,,,,,8,08,1,1,,,,,,,,,,,,,,,,,,,,,,,,,,,,,
660dfa1d1b035ba808f2b45f,TCR,2024-06-21_12h46.35.056,LearnStrategy,2023.2.3,Win32,166.6666667,,,,,,,,,,,8,16,1,2,,,,,,,,,,,,,,,,,,,,,,,,,,,,,
660dfa1d1b035ba808f2b45f,TCR,2024-06-21_12h46.35.056,LearnStrategy,2023.2.3,Win32,166.6666667,,,,,,,,,,,4,08,1,3,,,,,,,,,,,,,,,,,,,,,,,,,,,,,
660dfa1d1b035ba808f2b45f,TCR,2024-06-21_12h46.35.056,LearnStrategy,2023.2.3,Win32,166.6666667,,,,,,,,,,,6,16,1,4,,,,,,,,,,,,,,,,,,,,,,,,,,,,,
660dfa1d1b035ba808f2b45f,TCR,2024-06-21_12h46.35.056,LearnStrategy,2023.2.3,Win32,166.6666667,,,,,,,,,,,1,06,1,5,,,,,,,,,,,,,,,,,,,,,,,,,,,,,
660dfa1d1b035ba808f2b45f,TCR,2024-06-21_12h46.35.056,LearnStrategy,2023.2.3,Win32,166.6666667,,,,,,,,,,,2,01,1,6,,,,,,,,,,,,,,,,,,,,,,,,,,,,,
660dfa1d1b035ba808f2b45f,TCR,2024-06-21_12h46.35.056,LearnStrategy,2023.2.3,Win32,166.6666667,,,,,,,,,,,3,12,1,7,,,,,,,,,,,,,,,,,,,,,,,,,,,,,
660dfa1d1b035ba808f2b45f,TCR,2024-06-21_12h46.35.056,LearnStrategy,2023.2.3,Win32,166.6666667,,,,,,,,,,,5,04,1,8,,,,,,,,,,,,,,,,,,,,,,,,,,,,,
660dfa1d1b035ba808f2b45f,TCR,2024-06-21_12h46.35.056,LearnStrategy,2023.2.3,Win32,166.6666667,,,,,,,,,,,1,09,2,1,,,,,,,,,,,,,,,,,,,,,,,,,,,,,
660dfa1d1b035ba808f2b45f,TCR,2024-06-21_12h46.35.056,LearnStrategy,2023.2.3,Win32,166.6666667,,,,,,,,,,,1,03,2,2,,,,,,,,,,,,,,,,,,,,,,,,,,,,,
660dfa1d1b035ba808f2b45f,TCR,2024-06-21_12h46.35.056,LearnStrategy,2023.2.3,Win32,166.6666667,,,,,,,,,,,1,11,2,3,,,,,,,,,,,,,,,,,,,,,,,,,,,,,
660dfa1d1b035ba808f2b45f,TCR,2024-06-21_12h46.35.056,LearnStrategy,2023.2.3,Win32,166.6666667,,,,,,,,,,,7,13,2,4,,,,,,,,,,,,,,,,,,,,,,,,,,,,,
660dfa1d1b035ba808f2b45f,TCR,2024-06-21_12h46.35.056,LearnStrategy,2023.2.3,Win32,166.6666667,,,,,,,,,,,2,11,2,5,,,,,,,,,,,,,,,,,,,,,,,,,,,,,
660dfa1d1b035ba808f2b45f,TCR,2024-06-21_12h46.35.056,LearnStrategy,2023.2.3,Win32,166.6666667,,,,,,,,,,,8,10,2,6,,,,,,,,,,,,,,,,,,,,,,,,,,,,,
660dfa1d1b035ba808f2b45f,TCR,2024-06-21_12h46.35.056,LearnStrategy,2023.2.3,Win32,166.6666667,,,,,,,,,,,2,12,2,7,,,,,,,,,,,,,,,,,,,,,,,,,,,,,
660dfa1d1b035ba808f2b45f,TCR,2024-06-21_12h46.35.056,LearnStrategy,2023.2.3,Win32,166.6666667,,,,,,,,,,,8,02,2,8,,,,,,,,,,,,,,,,,,,,,,,,,,,,,
660dfa1d1b035ba808f2b45f,TCR,2024-06-21_12h46.35.056,LearnStrategy,2023.2.3,Win32,166.6666667,,,,,,,,,,,6,12,3,1,,,,,,,,,,,,,,,,,,,,,,,,,,,,,
660dfa1d1b035ba808f2b45f,TCR,2024-06-21_12h46.35.056,LearnStrategy,2023.2.3,Win32,166.6666667,,,,,,,,,,,1,05,3,2,,,,,,,,,,,,,,,,,,,,,,,,,,,,,
660dfa1d1b035ba808f2b45f,TCR,2024-06-21_12h46.35.056,LearnStrategy,2023.2.3,Win32,166.6666667,,,,,,,,,,,2,08,3,3,,,,,,,,,,,,,,,,,,,,,,,,,,,,,
660dfa1d1b035ba808f2b45f,TCR,2024-06-21_12h46.35.056,LearnStrategy,2023.2.3,Win32,166.6666667,,,,,,,,,,,5,11,3,4,,,,,,,,,,,,,,,,,,,,,,,,,,,,,
660dfa1d1b035ba808f2b45f,TCR,2024-06-21_12h46.35.056,LearnStrategy,2023.2.3,Win32,166.6666667,,,,,,,,,,,6,03,3,5,,,,,,,,,,,,,,,,,,,,,,,,,,,,,
660dfa1d1b035ba808f2b45f,TCR,2024-06-21_12h46.35.056,LearnStrategy,2023.2.3,Win32,166.6666667,,,,,,,,,,,7,07,3,6,,,,,,,,,,,,,,,,,,,,,,,,,,,,,
660dfa1d1b035ba808f2b45f,TCR,2024-06-21_12h46.35.056,LearnStrategy,2023.2.3,Win32,166.6666667,,,,,,,,,,,3,02,3,7,,,,,,,,,,,,,,,,,,,,,,,,,,,,,
660dfa1d1b035ba808f2b45f,TCR,2024-06-21_12h46.35.056,LearnStrategy,2023.2.3,Win32,166.6666667,,,,,,,,,,,2,14,3,8,,,,,,,,,,,,,,,,,,,,,,,,,,,,,
660dfa1d1b035ba808f2b45f,TCR,2024-06-21_12h46.35.056,LearnStrategy,2023.2.3,Win32,166.6666667,,,,,,,,,,,4,05,4,1,,,,,,,,,,,,,,,,,,,,,,,,,,,,,
660dfa1d1b035ba808f2b45f,TCR,2024-06-21_12h46.35.056,LearnStrategy,2023.2.3,Win32,166.6666667,,,,,,,,,,,3,11,4,2,,,,,,,,,,,,,,,,,,,,,,,,,,,,,
660dfa1d1b035ba808f2b45f,TCR,2024-06-21_12h46.35.056,LearnStrategy,2023.2.3,Win32,166.6666667,,,,,,,,,,,3,07,4,3,,,,,,,,,,,,,,,,,,,,,,,,,,,,,
660dfa1d1b035ba808f2b45f,TCR,2024-06-21_12h46.35.056,LearnStrategy,2023.2.3,Win32,166.6666667,,,,,,,,,,,3,13,4,4,,,,,,,,,,,,,,,,,,,,,,,,,,,,,
660dfa1d1b035ba808f2b45f,TCR,2024-06-21_12h46.35.056,LearnStrategy,2023.2.3,Win32,166.6666667,,,,,,,,,,,8,04,4,5,,,,,,,,,,,,,,,,,,,,,,,,,,,,,
660dfa1d1b035ba808f2b45f,TCR,2024-06-21_12h46.35.056,LearnStrategy,2023.2.3,Win32,166.6666667,,,,,,,,,,,6,06,4,6,,,,,,,,,,,,,,,,,,,,,,,,,,,,,
660dfa1d1b035ba808f2b45f,TCR,2024-06-21_12h46.35.056,LearnStrategy,2023.2.3,Win32,166.6666667,,,,,,,,,,,8,09,4,7,,,,,,,,,,,,,,,,,,,,,,,,,,,,,
660dfa1d1b035ba808f2b45f,TCR,2024-06-21_12h46.35.056,LearnStrategy,2023.2.3,Win32,166.6666667,,,,,,,,,,,4,14,4,8,,,,,,,,,,,,,,,,,,,,,,,,,,,,,
660dfa1d1b035ba808f2b45f,TCR,2024-06-21_12h46.35.056,LearnStrategy,2023.2.3,Win32,166.6666667,,,,,,,,,,,1,16,5,1,,,,,,,,,,,,,,,,,,,,,,,,,,,,,
660dfa1d1b035ba808f2b45f,TCR,2024-06-21_12h46.35.056,LearnStrategy,2023.2.3,Win32,166.6666667,,,,,,,,,,,7,15,5,2,,,,,,,,,,,,,,,,,,,,,,,,,,,,,
660dfa1d1b035ba808f2b45f,TCR,2024-06-21_12h46.35.056,LearnStrategy,2023.2.3,Win32,166.6666667,,,,,,,,,,,4,13,5,3,,,,,,,,,,,,,,,,,,,,,,,,,,,,,
660dfa1d1b035ba808f2b45f,TCR,2024-06-21_12h46.35.056,LearnStrategy,2023.2.3,Win32,166.6666667,,,,,,,,,,,4,12,5,4,,,,,,,,,,,,,,,,,,,,,,,,,,,,,
660dfa1d1b035ba808f2b45f,TCR,2024-06-21_12h46.35.056,LearnStrategy,2023.2.3,Win32,166.6666667,,,,,,,,,,,5,10,5,5,,,,,,,,,,,,,,,,,,,,,,,,,,,,,
660dfa1d1b035ba808f2b45f,TCR,2024-06-21_12h46.35.056,LearnStrategy,2023.2.3,Win32,166.6666667,,,,,,,,,,,3,15,5,6,,,,,,,,,,,,,,,,,,,,,,,,,,,,,
660dfa1d1b035ba808f2b45f,TCR,2024-06-21_12h46.35.056,LearnStrategy,2023.2.3,Win32,166.6666667,,,,,,,,,,,5,14,5,7,,,,,,,,,,,,,,,,,,,,,,,,,,,,,
660dfa1d1b035ba808f2b45f,TCR,2024-06-21_12h46.35.056,LearnStrategy,2023.2.3,Win32,166.6666667,,,,,,,,,,,4,16,5,8,,,,,,,,,,,,,,,,,,,,,,,,,,,,,
660dfa1d1b035ba808f2b45f,TCR,2024-06-21_12h46.35.056,LearnStrategy,2023.2.3,Win32,166.6666667,,,,,,,,,,,5,07,6,1,,,,,,,,,,,,,,,,,,,,,,,,,,,,,
660dfa1d1b035ba808f2b45f,TCR,2024-06-21_12h46.35.056,LearnStrategy,2023.2.3,Win32,166.6666667,,,,,,,,,,,6,11,6,2,,,,,,,,,,,,,,,,,,,,,,,,,,,,,
660dfa1d1b035ba808f2b45f,TCR,2024-06-21_12h46.35.056,LearnStrategy,2023.2.3,Win32,166.6666667,,,,,,,,,,,6,10,6,3,,,,,,,,,,,,,,,,,,,,,,,,,,,,,
660dfa1d1b035ba808f2b45f,TCR,2024-06-21_12h46.35.056,LearnStrategy,2023.2.3,Win32,166.6666667,,,,,,,,,,,2,06,6,4,,,,,,,,,,,,,,,,,,,,,,,,,,,,,
660dfa1d1b035ba808f2b45f,TCR,2024-06-21_12h46.35.056,LearnStrategy,2023.2.3,Win32,166.6666667,,,,,,,,,,,7,16,6,5,,,,,,,,,,,,,,,,,,,,,,,,,,,,,
660dfa1d1b035ba808f2b45f,TCR,2024-06-21_12h46.35.056,LearnStrategy,2023.2.3,Win32,166.6666667,,,,,,,,,,,7,12,6,6,,,,,,,,,,,,,,,,,,,,,,,,,,,,,
660dfa1d1b035ba808f2b45f,TCR,2024-06-21_12h46.35.056,LearnStrategy,2023.2.3,Win32,166.6666667,,,,,,,,,,,5,06,6,7,,,,,,,,,,,,,,,,,,,,,,,,,,,,,
660dfa1d1b035ba808f2b45f,TCR,2024-06-21_12h46.35.056,LearnStrategy,2023.2.3,Win32,166.6666667,,,,,,,,,,,7,08,6,8,,,,,,,,,,,,,,,,,,,,,,,,,,,,,