participant,condition,date,expName,psychopyVersion,OS,frameRate,block,phase,trial,learn_mouse_2.x,learn_mouse_2.y,learn_mouse_2.leftButton,learn_mouse_2.midButton,learn_mouse_2.rightButton,learn_mouse_2.time,learn_mouse_2.clicked_name,cat,token,row,col,t_select,cat_mouse_l.x,cat_mouse_l.y,cat_mouse_l.leftButton,cat_mouse_l.midButton,cat_mouse_l.rightButton,cat_mouse_l.time,cat_mouse_l.clicked_name,resp,t_resp,corr,train_trials.thisRepN,train_trials.thisTrialN,train_trials.thisN,train_trials.thisIndex,train_trials.ran,cat_mouse_t.x,cat_mouse_t.y,cat_mouse_t.leftButton,cat_mouse_t.midButton,cat_mouse_t.rightButton,cat_mouse_t.time,cat_mouse_t.clicked_name,test_trials.thisRepN,test_trials.thisTrialN,test_trials.thisN,test_trials.thisIndex,test_trials.ran,Bonus
66114844b8efff4b2af276ec,TCN,2024-06-21_13h46.09.200,LearnStrategy,2023.2.3,Win32,59.52380952,,,,,,,,,,,,,,,,,,,,,,,,,,,,,,,,,,,,,,,,,,,
66114844b8efff4b2af276ec,TCN,2024-06-21_13h46.09.200,LearnStrategy,2023.2.3,Win32,59.52380952,1,1,1,0.0390625,0.006510417,1,0,0,14.2628,rock_grid_rect_2,3,12,-1,-1,14.263,0.375,-0.235677083,1,0,0,13.4748,Gabbro_rect,4,13.475,0,0,0,0,0,1,,,,,,,,,,,,,
66114844b8efff4b2af276ec,TCN,2024-06-21_13h46.09.200,LearnStrategy,2023.2.3,Win32,59.52380952,1,1,2,0.1171875,-0.002604167,1,0,0,1.3571,rock_grid_rect_2,5,06,-1,-1,1.357,-0.365885417,-0.388020833,1,0,0,5.078,Obsidian_rect,5,5.078,1,1,0,1,0,1,,,,,,,,,,,,,
66114844b8efff4b2af276ec,TCN,2024-06-21_13h46.09.200,LearnStrategy,2023.2.3,Win32,59.52380952,1,1,3,0.0234375,-0.009114583,1,0,0,1.4292,rock_grid_rect_2,5,16,-1,-1,1.429,-0.0859375,-0.25,1,0,0,2.235,Basalt_rect,2,2.235,0,2,0,2,0,1,,,,,,,,,,,,,
66114844b8efff4b2af276ec,TCN,2024-06-21_13h46.09.200,LearnStrategy,2023.2.3,Win32,59.52380952,1,1,4,0.01171875,-0.006510417,1,0,0,1.1759,rock_grid_rect_2,4,05,-1,-1,1.176,0.114583333,-0.24609375,1,0,0,3.2508,Diorite_rect,3,3.251,0,3,0,3,0,1,,,,,,,,,,,,,
66114844b8efff4b2af276ec,TCN,2024-06-21_13h46.09.200,LearnStrategy,2023.2.3,Win32,59.52380952,1,1,5,0.075520833,0.005208333,1,0,0,1.316,rock_grid_rect_2,7,10,-1,-1,1.316,0.131510417,-0.399739583,1,0,0,2.9239,Peridotite_rect,7,2.924,1,4,0,4,0,1,,,,,,,,,,,,,
66114844b8efff4b2af276ec,TCN,2024-06-21_13h46.09.200,LearnStrategy,2023.2.3,Win32,59.52380952,1,1,6,0.05859375,0.006510417,1,0,0,1.4093,rock_grid_rect_2,2,09,-1,-1,1.409,0.3828125,-0.403645833,1,0,0,3.8979,Pumice_rect,8,3.898,0,5,0,5,0,1,,,,,,,,,,,,,
66114844b8efff4b2af276ec,TCN,2024-06-21_13h46.09.200,LearnStrategy,2023.2.3,Win32,59.52380952,1,1,7,0.106770833,-0.010416667,1,0,0,1.1575,rock_grid_rect_2,3,14,-1,-1,1.157,0.140625,-0.23828125,1,0,0,9.6112,Diorite_rect,3,9.611,1,6,0,6,0,1,,,,,,,,,,,,,
66114844b8efff4b2af276ec,TCN,2024-06-21_13h46.09.200,LearnStrategy,2023.2.3,Win32,59.52380952,1,1,8,0.018229167,-0.005208333,1,0,0,1.2257,rock_grid_rect_2,8,04,-1,-1,1.226,0.358072917,-0.416666667,1,0,0,4.7641,Pumice_rect,8,4.764,1,7,0,7,0,1,,,,,,,,,,,,,
66114844b8efff4b2af276ec,TCN,2024-06-21_13h46.09.200,LearnStrategy,2023.2.3,Win32,59.52380952,1,1,9,0.005208333,0.001302083,1,0,0,1.0097,rock_grid_rect_2,1,11,-1,-1,1.01,-0.08203125,-0.397135417,1,0,0,5.065,Pegmatite_rect,6,5.065,0,8,0,8,0,1,,,,,,,,,,,,,
66114844b8efff4b2af276ec,TCN,2024-06-21_13h46.09.200,LearnStrategy,2023.2.3,Win32,59.52380952,1,1,10,-0.005208333,-0.001302083,1,0,0,1.2914,rock_grid_rect_2,1,04,-1,-1,1.291,-0.091145833,-0.381510417,1,0,0,6.7535,Pegmatite_rect,6,6.753,0,9,0,9,0,1,,,,,,,,,,,,,
66114844b8efff4b2af276ec,TCN,2024-06-21_13h46.09.200,LearnStrategy,2023.2.3,Win32,59.52380952,1,1,11,0.061197917,0.002604167,1,0,0,1.3822,rock_grid_rect_2,6,07,-1,-1,1.382,0.126302083,-0.3984375,1,0,0,4.2579,Peridotite_rect,7,4.258,0,10,0,10,0,1,,,,,,,,,,,,,
66114844b8efff4b2af276ec,TCN,2024-06-21_13h46.09.200,LearnStrategy,2023.2.3,Win32,59.52380952,1,1,12,0.03125,-0.002604167,1,0,0,1.2586,rock_grid_rect_2,6,12,-1,-1,1.259,-0.080729167,-0.391927083,1,0,0,2.3502,Pegmatite_rect,6,2.35,1,11,0,11,0,1,,,,,,,,,,,,,
66114844b8efff4b2af276ec,TCN,2024-06-21_13h46.09.200,LearnStrategy,2023.2.3,Win32,59.52380952,1,1,13,0.0390625,-0.005208333,1,0,0,1.226,rock_grid_rect_2,2,06,-1,-1,1.226,-0.069010417,-0.239583333,1,0,0,2.5506,Basalt_rect,2,2.551,1,12,0,12,0,1,,,,,,,,,,,,,
66114844b8efff4b2af276ec,TCN,2024-06-21_13h46.09.200,LearnStrategy,2023.2.3,Win32,59.52380952,1,1,14,0.014322917,-0.010416667,1,0,0,1.0924,rock_grid_rect_2,8,16,-1,-1,1.092,0.338541667,-0.40234375,1,0,0,1.8331,Pumice_rect,8,1.833,1,13,0,13,0,1,,,,,,,,,,,,,
66114844b8efff4b2af276ec,TCN,2024-06-21_13h46.09.200,LearnStrategy,2023.2.3,Win32,59.52380952,1,1,15,0.01953125,-0.01171875,1,0,0,1.0934,rock_grid_rect_2,7,06,-1,-1,1.093,0.109375,-0.252604167,1,0,0,1.6433,Diorite_rect,3,1.643,0,14,0,14,0,1,,,,,,,,,,,,,
66114844b8efff4b2af276ec,TCN,2024-06-21_13h46.09.200,LearnStrategy,2023.2.3,Win32,59.52380952,1,1,16,0.063802083,-0.0078125,1,0,0,1.0656,rock_grid_rect_2,4,03,-1,-1,1.066,0.131510417,-0.251302083,1,0,0,2.4071,Diorite_rect,3,2.407,0,15,0,15,0,1,,,,,,,,,,,,,
66114844b8efff4b2af276ec,TCN,2024-06-21_13h46.09.200,LearnStrategy,2023.2.3,Win32,59.52380952,1,2,1,,,,,,,,4,12,,,,,,,,,,,4,5.651,1,,,,,,0.388020833,-0.244791667,1,0,0,5.6512,Gabbro_rect,0,0,0,0,1,
66114844b8efff4b2af276ec,TCN,2024-06-21_13h46.09.200,LearnStrategy,2023.2.3,Win32,59.52380952,1,2,2,,,,,,,,7,05,,,,,,,,,,,7,1.95,1,,,,,,0.118489583,-0.390625,1,0,0,1.9502,Peridotite_rect,1,0,1,0,1,
66114844b8efff4b2af276ec,TCN,2024-06-21_13h46.09.200,LearnStrategy,2023.2.3,Win32,59.52380952,1,2,3,,,,,,,,1,05,,,,,,,,,,,1,4.463,1,,,,,,-0.38671875,-0.231770833,1,0,0,4.4626,Andesite_rect,2,0,2,0,1,
66114844b8efff4b2af276ec,TCN,2024-06-21_13h46.09.200,LearnStrategy,2023.2.3,Win32,59.52380952,1,2,4,,,,,,,,3,13,,,,,,,,,,,3,7.643,1,,,,,,0.092447917,-0.233072917,1,0,0,7.6435,Diorite_rect,3,0,3,0,1,
66114844b8efff4b2af276ec,TCN,2024-06-21_13h46.09.200,LearnStrategy,2023.2.3,Win32,59.52380952,1,2,5,,,,,,,,1,02,,,,,,,,,,,6,2.014,0,,,,,,-0.109375,-0.391927083,1,0,0,2.0138,Pegmatite_rect,4,0,4,0,1,
66114844b8efff4b2af276ec,TCN,2024-06-21_13h46.09.200,LearnStrategy,2023.2.3,Win32,59.52380952,1,2,6,,,,,,,,6,08,,,,,,,,,,,5,4.546,0,,,,,,-0.345052083,-0.38671875,1,0,0,4.5456,Obsidian_rect,5,0,5,0,1,
66114844b8efff4b2af276ec,TCN,2024-06-21_13h46.09.200,LearnStrategy,2023.2.3,Win32,59.52380952,1,2,7,,,,,,,,8,13,,,,,,,,,,,8,1.683,1,,,,,,0.3828125,-0.408854167,1,0,0,1.6832,Pumice_rect,6,0,6,0,1,
66114844b8efff4b2af276ec,TCN,2024-06-21_13h46.09.200,LearnStrategy,2023.2.3,Win32,59.52380952,1,2,8,,,,,,,,3,10,,,,,,,,,,,3,2.016,1,,,,,,0.11328125,-0.25390625,1,0,0,2.016,Diorite_rect,7,0,7,0,1,
66114844b8efff4b2af276ec,TCN,2024-06-21_13h46.09.200,LearnStrategy,2023.2.3,Win32,59.52380952,1,2,9,,,,,,,,4,10,,,,,,,,,,,2,3.881,0,,,,,,-0.096354167,-0.240885417,1,0,0,3.8811,Basalt_rect,8,0,8,0,1,
66114844b8efff4b2af276ec,TCN,2024-06-21_13h46.09.200,LearnStrategy,2023.2.3,Win32,59.52380952,1,2,10,,,,,,,,7,08,,,,,,,,,,,7,1.6,1,,,,,,0.098958333,-0.403645833,1,0,0,1.6004,Peridotite_rect,9,0,9,0,1,
66114844b8efff4b2af276ec,TCN,2024-06-21_13h46.09.200,LearnStrategy,2023.2.3,Win32,59.52380952,1,2,11,,,,,,,,8,06,,,,,,,,,,,8,1.634,1,,,,,,0.337239583,-0.403645833,1,0,0,1.6339,Pumice_rect,10,0,10,0,1,
66114844b8efff4b2af276ec,TCN,2024-06-21_13h46.09.200,LearnStrategy,2023.2.3,Win32,59.52380952,1,2,12,,,,,,,,2,11,,,,,,,,,,,2,2.257,1,,,,,,-0.115885417,-0.2421875,1,0,0,2.2567,Basalt_rect,11,0,11,0,1,
66114844b8efff4b2af276ec,TCN,2024-06-21_13h46.09.200,LearnStrategy,2023.2.3,Win32,59.52380952,1,2,13,,,,,,,,5,05,,,,,,,,,,,5,1.58,1,,,,,,-0.338541667,-0.389322917,1,0,0,1.58,Obsidian_rect,12,0,12,0,1,
66114844b8efff4b2af276ec,TCN,2024-06-21_13h46.09.200,LearnStrategy,2023.2.3,Win32,59.52380952,1,2,14,,,,,,,,6,13,,,,,,,,,,,1,12.137,0,,,,,,-0.348958333,-0.251302083,1,0,0,12.1369,Andesite_rect,13,0,13,0,1,
66114844b8efff4b2af276ec,TCN,2024-06-21_13h46.09.200,LearnStrategy,2023.2.3,Win32,59.52380952,1,2,15,,,,,,,,5,08,,,,,,,,,,,5,1.267,1,,,,,,-0.345052083,-0.393229167,1,0,0,1.2666,Obsidian_rect,14,0,14,0,1,
66114844b8efff4b2af276ec,TCN,2024-06-21_13h46.09.200,LearnStrategy,2023.2.3,Win32,59.52380952,1,2,16,,,,,,,,2,02,,,,,,,,,,,2,1.318,1,,,,,,-0.11328125,-0.2421875,1,0,0,1.3176,Basalt_rect,15,0,15,0,1,
66114844b8efff4b2af276ec,TCN,2024-06-21_13h46.09.200,LearnStrategy,2023.2.3,Win32,59.52380952,2,1,1,-0.063802083,0.006510417,1,0,0,1.7086,rock_grid_rect_2,8,02,-1,-1,1.709,0.34375,-0.40625,1,0,0,2.4665,Pumice_rect,8,2.466,1,0,0,0,0,1,,,,,,,,,,,,,
66114844b8efff4b2af276ec,TCN,2024-06-21_13h46.09.200,LearnStrategy,2023.2.3,Win32,59.52380952,2,1,2,0.013020833,-0.014322917,1,0,0,1.191,rock_grid_rect_2,4,09,-1,-1,1.191,-0.067708333,-0.236979167,1,0,0,1.7342,Basalt_rect,2,1.734,0,1,0,1,0,1,,,,,,,,,,,,,
66114844b8efff4b2af276ec,TCN,2024-06-21_13h46.09.200,LearnStrategy,2023.2.3,Win32,59.52380952,2,1,3,0.059895833,-0.010416667,1,0,0,1.2834,rock_grid_rect_2,1,09,-1,-1,1.283,-0.096354167,-0.24609375,1,0,0,2.3927,Basalt_rect,2,2.393,0,2,0,2,0,1,,,,,,,,,,,,,
66114844b8efff4b2af276ec,TCN,2024-06-21_13h46.09.200,LearnStrategy,2023.2.3,Win32,59.52380952,2,1,4,0.04296875,-0.002604167,1,0,0,1.0901,rock_grid_rect_2,2,14,-1,-1,1.09,0.345052083,-0.408854167,1,0,0,2.2494,Pumice_rect,8,2.249,0,3,0,3,0,1,,,,,,,,,,,,,
66114844b8efff4b2af276ec,TCN,2024-06-21_13h46.09.200,LearnStrategy,2023.2.3,Win32,59.52380952,2,1,5,0.041666667,-0.005208333,1,0,0,1.194,rock_grid_rect_2,6,05,-1,-1,1.194,-0.345052083,-0.397135417,1,0,0,1.3181,Obsidian_rect,5,1.318,0,4,0,4,0,1,,,,,,,,,,,,,
66114844b8efff4b2af276ec,TCN,2024-06-21_13h46.09.200,LearnStrategy,2023.2.3,Win32,59.52380952,2,1,6,0.026041667,-0.005208333,1,0,0,1.1431,rock_grid_rect_2,1,16,-1,-1,1.143,0.123697917,-0.404947917,1,0,0,3.5152,Peridotite_rect,7,3.515,0,5,0,5,0,1,,,,,,,,,,,,,
66114844b8efff4b2af276ec,TCN,2024-06-21_13h46.09.200,LearnStrategy,2023.2.3,Win32,59.52380952,2,1,7,0.03125,-0.0078125,1,0,0,1.009,rock_grid_rect_2,7,12,-1,-1,1.009,0.100260417,-0.404947917,1,0,0,1.5347,Peridotite_rect,7,1.535,1,6,0,6,0,1,,,,,,,,,,,,,
66114844b8efff4b2af276ec,TCN,2024-06-21_13h46.09.200,LearnStrategy,2023.2.3,Win32,59.52380952,2,1,8,0.01953125,-0.00390625,1,0,0,0.9273,rock_grid_rect_2,3,16,-1,-1,0.927,0.134114583,-0.259114583,1,0,0,3.2768,Diorite_rect,3,3.277,1,7,0,7,0,1,,,,,,,,,,,,,
66114844b8efff4b2af276ec,TCN,2024-06-21_13h46.09.200,LearnStrategy,2023.2.3,Win32,59.52380952,2,1,9,0.05078125,0.002604167,1,0,0,1.171,rock_grid_rect_2,5,07,-1,-1,1.171,-0.352864583,-0.397135417,1,0,0,1.4259,Obsidian_rect,5,1.426,1,8,0,8,0,1,,,,,,,,,,,,,
66114844b8efff4b2af276ec,TCN,2024-06-21_13h46.09.200,LearnStrategy,2023.2.3,Win32,59.52380952,2,1,10,0.03125,-0.01171875,1,0,0,1.1932,rock_grid_rect_2,4,11,-1,-1,1.193,-0.0859375,-0.236979167,1,0,0,1.1686,Basalt_rect,2,1.169,0,9,0,9,0,1,,,,,,,,,,,,,
66114844b8efff4b2af276ec,TCN,2024-06-21_13h46.09.200,LearnStrategy,2023.2.3,Win32,59.52380952,2,1,11,0.057291667,0.010416667,1,0,0,1.1344,rock_grid_rect_2,5,10,-1,-1,1.134,-0.381510417,-0.407552083,1,0,0,1.2276,Obsidian_rect,5,1.228,1,10,0,10,0,1,,,,,,,,,,,,,
66114844b8efff4b2af276ec,TCN,2024-06-21_13h46.09.200,LearnStrategy,2023.2.3,Win32,59.52380952,2,1,12,0.0625,-0.01171875,1,0,0,1.2106,rock_grid_rect_2,8,10,-1,-1,1.211,0.3515625,-0.408854167,1,0,0,2.0006,Pumice_rect,8,2.001,1,11,0,11,0,1,,,,,,,,,,,,,
66114844b8efff4b2af276ec,TCN,2024-06-21_13h46.09.200,LearnStrategy,2023.2.3,Win32,59.52380952,2,1,13,0.03125,-0.001302083,1,0,0,0.7769,rock_grid_rect_2,3,15,-1,-1,0.777,0.15625,-0.231770833,1,0,0,6.6117,Diorite_rect,3,6.612,1,12,0,12,0,1,,,,,,,,,,,,,
66114844b8efff4b2af276ec,TCN,2024-06-21_13h46.09.200,LearnStrategy,2023.2.3,Win32,59.52380952,2,1,14,0.114583333,-0.0078125,1,0,0,0.9069,rock_grid_rect_2,7,04,-1,-1,0.907,0.123697917,-0.39453125,1,0,0,2.3993,Peridotite_rect,7,2.399,1,13,0,13,0,1,,,,,,,,,,,,,
66114844b8efff4b2af276ec,TCN,2024-06-21_13h46.09.200,LearnStrategy,2023.2.3,Win32,59.52380952,2,1,15,0.1015625,0.010416667,1,0,0,0.9267,rock_grid_rect_2,6,09,-1,-1,0.927,0.130208333,-0.3984375,1,0,0,3.3791,Peridotite_rect,7,3.379,0,14,0,14,0,1,,,,,,,,,,,,,
66114844b8efff4b2af276ec,TCN,2024-06-21_13h46.09.200,LearnStrategy,2023.2.3,Win32,59.52380952,2,1,16,0.119791667,-0.001302083,1,0,0,0.7962,rock_grid_rect_2,2,08,-1,-1,0.796,-0.09375,-0.251302083,1,0,0,1.4598,Basalt_rect,2,1.46,1,15,0,15,0,1,,,,,,,,,,,,,
66114844b8efff4b2af276ec,TCN,2024-06-21_13h46.09.200,LearnStrategy,2023.2.3,Win32,59.52380952,2,2,1,,,,,,,,2,16,,,,,,,,,,,8,2.968,0,,,,,,0.352864583,-0.384114583,1,0,0,2.9682,Pumice_rect,0,0,0,0,1,
66114844b8efff4b2af276ec,TCN,2024-06-21_13h46.09.200,LearnStrategy,2023.2.3,Win32,59.52380952,2,2,2,,,,,,,,3,09,,,,,,,,,,,1,5.515,0,,,,,,-0.35546875,-0.252604167,1,0,0,5.5154,Andesite_rect,1,0,1,0,1,
66114844b8efff4b2af276ec,TCN,2024-06-21_13h46.09.200,LearnStrategy,2023.2.3,Win32,59.52380952,2,2,3,,,,,,,,6,03,,,,,,,,,,,7,4.464,0,,,,,,0.106770833,-0.40234375,1,0,0,4.464,Peridotite_rect,2,0,2,0,1,
66114844b8efff4b2af276ec,TCN,2024-06-21_13h46.09.200,LearnStrategy,2023.2.3,Win32,59.52380952,2,2,4,,,,,,,,1,07,,,,,,,,,,,1,6.146,1,,,,,,-0.338541667,-0.244791667,1,0,0,6.1457,Andesite_rect,3,0,3,0,1,
66114844b8efff4b2af276ec,TCN,2024-06-21_13h46.09.200,LearnStrategy,2023.2.3,Win32,59.52380952,2,2,5,,,,,,,,7,02,,,,,,,,,,,7,1.646,1,,,,,,0.1640625,-0.407552083,1,0,0,1.6465,Peridotite_rect,4,0,4,0,1,
66114844b8efff4b2af276ec,TCN,2024-06-21_13h46.09.200,LearnStrategy,2023.2.3,Win32,59.52380952,2,2,6,,,,,,,,4,16,,,,,,,,,,,4,6.735,1,,,,,,0.384114583,-0.247395833,1,0,0,6.735,Gabbro_rect,5,0,5,0,1,
66114844b8efff4b2af276ec,TCN,2024-06-21_13h46.09.200,LearnStrategy,2023.2.3,Win32,59.52380952,2,2,7,,,,,,,,5,09,,,,,,,,,,,5,1.121,1,,,,,,-0.458333333,-0.420572917,1,0,0,1.1206,Obsidian_rect,6,0,6,0,1,
66114844b8efff4b2af276ec,TCN,2024-06-21_13h46.09.200,LearnStrategy,2023.2.3,Win32,59.52380952,2,2,8,,,,,,,,6,10,,,,,,,,,,,7,1.413,0,,,,,,0.09765625,-0.412760417,1,0,0,1.413,Peridotite_rect,7,0,7,0,1,
66114844b8efff4b2af276ec,TCN,2024-06-21_13h46.09.200,LearnStrategy,2023.2.3,Win32,59.52380952,2,2,9,,,,,,,,8,08,,,,,,,,,,,8,1.958,1,,,,,,0.33203125,-0.399739583,1,0,0,1.9584,Pumice_rect,8,0,8,0,1,
66114844b8efff4b2af276ec,TCN,2024-06-21_13h46.09.200,LearnStrategy,2023.2.3,Win32,59.52380952,2,2,10,,,,,,,,7,14,,,,,,,,,,,7,9.619,1,,,,,,0.135416667,-0.40625,1,0,0,9.6193,Peridotite_rect,9,0,9,0,1,
66114844b8efff4b2af276ec,TCN,2024-06-21_13h46.09.200,LearnStrategy,2023.2.3,Win32,59.52380952,2,2,11,,,,,,,,3,08,,,,,,,,,,,1,3.312,0,,,,,,-0.334635417,-0.25,1,0,0,3.3124,Andesite_rect,10,0,10,0,1,
66114844b8efff4b2af276ec,TCN,2024-06-21_13h46.09.200,LearnStrategy,2023.2.3,Win32,59.52380952,2,2,12,,,,,,,,5,02,,,,,,,,,,,5,1.194,1,,,,,,-0.345052083,-0.391927083,1,0,0,1.1937,Obsidian_rect,11,0,11,0,1,
66114844b8efff4b2af276ec,TCN,2024-06-21_13h46.09.200,LearnStrategy,2023.2.3,Win32,59.52380952,2,2,13,,,,,,,,8,15,,,,,,,,,,,8,1.568,1,,,,,,0.462239583,-0.411458333,1,0,0,1.5684,Pumice_rect,12,0,12,0,1,
66114844b8efff4b2af276ec,TCN,2024-06-21_13h46.09.200,LearnStrategy,2023.2.3,Win32,59.52380952,2,2,14,,,,,,,,2,12,,,,,,,,,,,8,5.112,0,,,,,,0.352864583,-0.411458333,1,0,0,5.1116,Pumice_rect,13,0,13,0,1,
66114844b8efff4b2af276ec,TCN,2024-06-21_13h46.09.200,LearnStrategy,2023.2.3,Win32,59.52380952,2,2,15,,,,,,,,1,03,,,,,,,,,,,6,2.6,0,,,,,,-0.111979167,-0.38671875,1,0,0,2.5999,Pegmatite_rect,14,0,14,0,1,
66114844b8efff4b2af276ec,TCN,2024-06-21_13h46.09.200,LearnStrategy,2023.2.3,Win32,59.52380952,2,2,16,,,,,,,,4,13,,,,,,,,,,,4,4.713,1,,,,,,0.427083333,-0.259114583,1,0,0,4.7134,Gabbro_rect,15,0,15,0,1,
66114844b8efff4b2af276ec,TCN,2024-06-21_13h46.09.200,LearnStrategy,2023.2.3,Win32,59.52380952,3,1,1,0.119791667,-0.006510417,1,0,0,1.6584,rock_grid_rect_2,1,10,-1,-1,1.658,-0.076822917,-0.395833333,1,0,0,4.0468,Pegmatite_rect,6,4.047,0,0,0,0,0,1,,,,,,,,,,,,,
66114844b8efff4b2af276ec,TCN,2024-06-21_13h46.09.200,LearnStrategy,2023.2.3,Win32,59.52380952,3,1,2,0.063802083,-0.006510417,1,0,0,1.0926,rock_grid_rect_2,5,14,-1,-1,1.093,-0.341145833,-0.401041667,1,0,0,1.2659,Obsidian_rect,5,1.266,1,1,0,1,0,1,,,,,,,,,,,,,
66114844b8efff4b2af276ec,TCN,2024-06-21_13h46.09.200,LearnStrategy,2023.2.3,Win32,59.52380952,3,1,3,0.0546875,-0.013020833,1,0,0,1.1266,rock_grid_rect_2,7,15,-1,-1,1.127,0.114583333,-0.408854167,1,0,0,1.4766,Peridotite_rect,7,1.477,1,2,0,2,0,1,,,,,,,,,,,,,
66114844b8efff4b2af276ec,TCN,2024-06-21_13h46.09.200,LearnStrategy,2023.2.3,Win32,59.52380952,3,1,4,0.071614583,-0.005208333,1,0,0,0.9524,rock_grid_rect_2,3,07,-1,-1,0.952,-0.3203125,-0.23046875,1,0,0,2.3261,Andesite_rect,1,2.326,0,3,0,3,0,1,,,,,,,,,,,,,
66114844b8efff4b2af276ec,TCN,2024-06-21_13h46.09.200,LearnStrategy,2023.2.3,Win32,59.52380952,3,1,5,0.049479167,0.005208333,1,0,0,1.06,rock_grid_rect_2,4,08,-1,-1,1.06,0.37109375,-0.25390625,1,0,0,1.3855,Gabbro_rect,4,1.385,1,4,0,4,0,1,,,,,,,,,,,,,
66114844b8efff4b2af276ec,TCN,2024-06-21_13h46.09.200,LearnStrategy,2023.2.3,Win32,59.52380952,3,1,6,0.059895833,-0.002604167,1,0,0,0.9937,rock_grid_rect_2,5,12,-1,-1,0.994,-0.337239583,-0.39453125,1,0,0,1.2549,Obsidian_rect,5,1.255,1,5,0,5,0,1,,,,,,,,,,,,,
66114844b8efff4b2af276ec,TCN,2024-06-21_13h46.09.200,LearnStrategy,2023.2.3,Win32,59.52380952,3,1,7,0.05078125,0.016927083,1,0,0,0.8601,rock_grid_rect_2,2,10,-1,-1,0.86,-0.106770833,-0.244791667,1,0,0,1.648,Basalt_rect,2,1.648,1,6,0,6,0,1,,,,,,,,,,,,,
66114844b8efff4b2af276ec,TCN,2024-06-21_13h46.09.200,LearnStrategy,2023.2.3,Win32,59.52380952,3,1,8,0.037760417,-0.0078125,1,0,0,1.0099,rock_grid_rect_2,1,06,-1,-1,1.01,0.106770833,-0.243489583,1,0,0,3.0374,Diorite_rect,3,3.037,0,7,0,7,0,1,,,,,,,,,,,,,
66114844b8efff4b2af276ec,TCN,2024-06-21_13h46.09.200,LearnStrategy,2023.2.3,Win32,59.52380952,3,1,9,0.061197917,-0.002604167,1,0,0,1.0249,rock_grid_rect_2,6,16,-1,-1,1.025,-0.115885417,-0.41015625,1,0,0,2.7373,Pegmatite_rect,6,2.737,1,8,0,8,0,1,,,,,,,,,,,,,
66114844b8efff4b2af276ec,TCN,2024-06-21_13h46.09.200,LearnStrategy,2023.2.3,Win32,59.52380952,3,1,10,0.06640625,0.00390625,1,0,0,0.9091,rock_grid_rect_2,7,13,-1,-1,0.909,0.12890625,-0.391927083,1,0,0,1.3341,Peridotite_rect,7,1.334,1,9,0,9,0,1,,,,,,,,,,,,,
66114844b8efff4b2af276ec,TCN,2024-06-21_13h46.09.200,LearnStrategy,2023.2.3,Win32,59.52380952,3,1,11,0.098958333,0.001302083,1,0,0,0.8126,rock_grid_rect_2,3,11,-1,-1,0.813,0.118489583,-0.248697917,1,0,0,3.9366,Diorite_rect,3,3.937,1,10,0,10,0,1,,,,,,,,,,,,,
66114844b8efff4b2af276ec,TCN,2024-06-21_13h46.09.200,LearnStrategy,2023.2.3,Win32,59.52380952,3,1,12,0.067708333,-0.001302083,1,0,0,0.8249,rock_grid_rect_2,2,05,-1,-1,0.825,-0.091145833,-0.24609375,1,0,0,1.4496,Basalt_rect,2,1.45,1,11,0,11,0,1,,,,,,,,,,,,,
66114844b8efff4b2af276ec,TCN,2024-06-21_13h46.09.200,LearnStrategy,2023.2.3,Win32,59.52380952,3,1,13,0.122395833,0.00390625,1,0,0,0.8601,rock_grid_rect_2,6,06,-1,-1,0.86,-0.149739583,-0.407552083,1,0,0,3.137,Pegmatite_rect,6,3.137,1,12,0,12,0,1,,,,,,,,,,,,,
66114844b8efff4b2af276ec,TCN,2024-06-21_13h46.09.200,LearnStrategy,2023.2.3,Win32,59.52380952,3,1,14,0.127604167,-0.001302083,1,0,0,0.9422,rock_grid_rect_2,8,14,-1,-1,0.942,0.361979167,-0.399739583,1,0,0,1.1808,Pumice_rect,8,1.181,1,13,0,13,0,1,,,,,,,,,,,,,
66114844b8efff4b2af276ec,TCN,2024-06-21_13h46.09.200,LearnStrategy,2023.2.3,Win32,59.52380952,3,1,15,0.080729167,0.0078125,1,0,0,0.8647,rock_grid_rect_2,8,03,-1,-1,0.865,0.388020833,-0.399739583,1,0,0,1.3108,Pumice_rect,8,1.311,1,14,0,14,0,1,,,,,,,,,,,,,
66114844b8efff4b2af276ec,TCN,2024-06-21_13h46.09.200,LearnStrategy,2023.2.3,Win32,59.52380952,3,1,16,0.0859375,-0.001302083,1,0,0,0.844,rock_grid_rect_2,4,15,-1,-1,0.844,0.360677083,-0.243489583,1,0,0,1.7176,Gabbro_rect,4,1.718,1,15,0,15,0,1,,,,,,,,,,,,,
66114844b8efff4b2af276ec,TCN,2024-06-21_13h46.09.200,LearnStrategy,2023.2.3,Win32,59.52380952,3,2,1,,,,,,,,5,11,,,,,,,,,,,5,1.311,1,,,,,,-0.37109375,-0.3984375,1,0,0,1.311,Obsidian_rect,0,0,0,0,1,
66114844b8efff4b2af276ec,TCN,2024-06-21_13h46.09.200,LearnStrategy,2023.2.3,Win32,59.52380952,3,2,2,,,,,,,,2,04,,,,,,,,,,,2,1.384,1,,,,,,-0.111979167,-0.244791667,1,0,0,1.3839,Basalt_rect,1,0,1,0,1,
66114844b8efff4b2af276ec,TCN,2024-06-21_13h46.09.200,LearnStrategy,2023.2.3,Win32,59.52380952,3,2,3,,,,,,,,1,14,,,,,,,,,,,1,3.615,1,,,,,,-0.338541667,-0.24609375,1,0,0,3.6148,Andesite_rect,2,0,2,0,1,
66114844b8efff4b2af276ec,TCN,2024-06-21_13h46.09.200,LearnStrategy,2023.2.3,Win32,59.52380952,3,2,4,,,,,,,,3,02,,,,,,,,,,,3,1.917,1,,,,,,0.118489583,-0.248697917,1,0,0,1.9167,Diorite_rect,3,0,3,0,1,
66114844b8efff4b2af276ec,TCN,2024-06-21_13h46.09.200,LearnStrategy,2023.2.3,Win32,59.52380952,3,2,5,,,,,,,,6,15,,,,,,,,,,,6,1.609,1,,,,,,-0.09375,-0.393229167,1,0,0,1.6093,Pegmatite_rect,4,0,4,0,1,
66114844b8efff4b2af276ec,TCN,2024-06-21_13h46.09.200,LearnStrategy,2023.2.3,Win32,59.52380952,3,2,6,,,,,,,,6,11,,,,,,,,,,,6,1.999,1,,,,,,-0.09375,-0.393229167,1,0,0,1.9991,Pegmatite_rect,5,0,5,0,1,
66114844b8efff4b2af276ec,TCN,2024-06-21_13h46.09.200,LearnStrategy,2023.2.3,Win32,59.52380952,3,2,7,,,,,,,,1,01,,,,,,,,,,,1,7.611,1,,,,,,-0.432291667,-0.244791667,1,0,0,7.6114,Andesite_rect,6,0,6,0,1,
66114844b8efff4b2af276ec,TCN,2024-06-21_13h46.09.200,LearnStrategy,2023.2.3,Win32,59.52380952,3,2,8,,,,,,,,3,06,,,,,,,,,,,3,2.567,1,,,,,,0.09765625,-0.243489583,1,0,0,2.5668,Diorite_rect,7,0,7,0,1,
66114844b8efff4b2af276ec,TCN,2024-06-21_13h46.09.200,LearnStrategy,2023.2.3,Win32,59.52380952,3,2,9,,,,,,,,5,04,,,,,,,,,,,5,1.231,1,,,,,,-0.330729167,-0.395833333,1,0,0,1.2307,Obsidian_rect,8,0,8,0,1,
66114844b8efff4b2af276ec,TCN,2024-06-21_13h46.09.200,LearnStrategy,2023.2.3,Win32,59.52380952,3,2,10,,,,,,,,8,05,,,,,,,,,,,8,1.383,1,,,,,,0.385416667,-0.388020833,1,0,0,1.3833,Pumice_rect,9,0,9,0,1,
66114844b8efff4b2af276ec,TCN,2024-06-21_13h46.09.200,LearnStrategy,2023.2.3,Win32,59.52380952,3,2,11,,,,,,,,7,16,,,,,,,,,,,7,1.698,1,,,,,,0.173177083,-0.391927083,1,0,0,1.6983,Peridotite_rect,10,0,10,0,1,
66114844b8efff4b2af276ec,TCN,2024-06-21_13h46.09.200,LearnStrategy,2023.2.3,Win32,59.52380952,3,2,12,,,,,,,,4,14,,,,,,,,,,,2,1.673,0,,,,,,-0.05859375,-0.248697917,1,0,0,1.6731,Basalt_rect,11,0,11,0,1,
66114844b8efff4b2af276ec,TCN,2024-06-21_13h46.09.200,LearnStrategy,2023.2.3,Win32,59.52380952,3,2,13,,,,,,,,4,01,,,,,,,,,,,3,3.337,0,,,,,,0.100260417,-0.25,1,0,0,3.3374,Diorite_rect,12,0,12,0,1,
66114844b8efff4b2af276ec,TCN,2024-06-21_13h46.09.200,LearnStrategy,2023.2.3,Win32,59.52380952,3,2,14,,,,,,,,2,01,,,,,,,,,,,2,1.153,1,,,,,,-0.08984375,-0.239583333,1,0,0,1.153,Basalt_rect,13,0,13,0,1,
66114844b8efff4b2af276ec,TCN,2024-06-21_13h46.09.200,LearnStrategy,2023.2.3,Win32,59.52380952,3,2,15,,,,,,,,7,07,,,,,,,,,,,7,1.788,1,,,,,,0.145833333,-0.3984375,1,0,0,1.7881,Peridotite_rect,14,0,14,0,1,
66114844b8efff4b2af276ec,TCN,2024-06-21_13h46.09.200,LearnStrategy,2023.2.3,Win32,59.52380952,3,2,16,,,,,,,,8,09,,,,,,,,,,,8,1.767,1,,,,,,0.334635417,-0.399739583,1,0,0,1.7667,Pumice_rect,15,0,15,0,1,
66114844b8efff4b2af276ec,TCN,2024-06-21_13h46.09.200,LearnStrategy,2023.2.3,Win32,59.52380952,4,1,1,0.076822917,0.005208333,1,0,0,1.9266,rock_grid_rect_2,6,16,-1,-1,1.927,-0.102864583,-0.3984375,1,0,0,4.5793,Pegmatite_rect,6,4.579,1,0,0,0,0,1,,,,,,,,,,,,,
66114844b8efff4b2af276ec,TCN,2024-06-21_13h46.09.200,LearnStrategy,2023.2.3,Win32,59.52380952,4,1,2,0.063802083,0.002604167,1,0,0,1.1258,rock_grid_rect_2,8,04,-1,-1,1.126,0.33984375,-0.395833333,1,0,0,1.1877,Pumice_rect,8,1.188,1,1,0,1,0,1,,,,,,,,,,,,,
66114844b8efff4b2af276ec,TCN,2024-06-21_13h46.09.200,LearnStrategy,2023.2.3,Win32,59.52380952,4,1,3,0.075520833,0,1,0,0,1.0265,rock_grid_rect_2,3,14,-1,-1,1.027,-0.319010417,-0.248697917,1,0,0,3.54,Andesite_rect,1,3.54,0,2,0,2,0,1,,,,,,,,,,,,,
66114844b8efff4b2af276ec,TCN,2024-06-21_13h46.09.200,LearnStrategy,2023.2.3,Win32,59.52380952,4,1,4,0.0859375,-0.002604167,1,0,0,0.8603,rock_grid_rect_2,3,07,-1,-1,0.86,0.10546875,-0.248697917,1,0,0,1.118,Diorite_rect,3,1.118,1,3,0,3,0,1,,,,,,,,,,,,,
66114844b8efff4b2af276ec,TCN,2024-06-21_13h46.09.200,LearnStrategy,2023.2.3,Win32,59.52380952,4,1,5,0.088541667,-0.00390625,1,0,0,0.9108,rock_grid_rect_2,5,07,-1,-1,0.911,-0.345052083,-0.404947917,1,0,0,1.1052,Obsidian_rect,5,1.105,1,4,0,4,0,1,,,,,,,,,,,,,
66114844b8efff4b2af276ec,TCN,2024-06-21_13h46.09.200,LearnStrategy,2023.2.3,Win32,59.52380952,4,1,6,0.092447917,-0.013020833,1,0,0,0.9757,rock_grid_rect_2,7,13,-1,-1,0.976,0.141927083,-0.397135417,1,0,0,1.0174,Peridotite_rect,7,1.017,1,5,0,5,0,1,,,,,,,,,,,,,
66114844b8efff4b2af276ec,TCN,2024-06-21_13h46.09.200,LearnStrategy,2023.2.3,Win32,59.52380952,4,1,7,0.091145833,0.0078125,1,0,0,0.7944,rock_grid_rect_2,7,04,-1,-1,0.794,0.102864583,-0.388020833,1,0,0,1.1176,Peridotite_rect,7,1.118,1,6,0,6,0,1,,,,,,,,,,,,,
66114844b8efff4b2af276ec,TCN,2024-06-21_13h46.09.200,LearnStrategy,2023.2.3,Win32,59.52380952,4,1,8,0.079427083,0.005208333,1,0,0,1.0109,rock_grid_rect_2,4,15,-1,-1,1.011,0.404947917,-0.255208333,1,0,0,2.561,Gabbro_rect,4,2.561,1,7,0,7,0,1,,,,,,,,,,,,,
66114844b8efff4b2af276ec,TCN,2024-06-21_13h46.09.200,LearnStrategy,2023.2.3,Win32,59.52380952,4,1,9,0.106770833,-0.01953125,1,0,0,1.026,rock_grid_rect_2,6,06,-1,-1,1.026,-0.0625,-0.404947917,1,0,0,3.3467,Pegmatite_rect,6,3.347,1,8,0,8,0,1,,,,,,,,,,,,,
66114844b8efff4b2af276ec,TCN,2024-06-21_13h46.09.200,LearnStrategy,2023.2.3,Win32,59.52380952,4,1,10,0.131510417,-0.015625,1,0,0,0.8965,rock_grid_rect_2,1,16,-1,-1,0.896,0.118489583,-0.243489583,1,0,0,1.3982,Diorite_rect,3,1.398,0,9,0,9,0,1,,,,,,,,,,,,,
66114844b8efff4b2af276ec,TCN,2024-06-21_13h46.09.200,LearnStrategy,2023.2.3,Win32,59.52380952,4,1,11,0.119791667,-0.005208333,1,0,0,0.9763,rock_grid_rect_2,4,05,-1,-1,0.976,0.342447917,-0.248697917,1,0,0,1.6909,Gabbro_rect,4,1.691,1,10,0,10,0,1,,,,,,,,,,,,,
66114844b8efff4b2af276ec,TCN,2024-06-21_13h46.09.200,LearnStrategy,2023.2.3,Win32,59.52380952,4,1,12,0.0546875,0.002604167,1,0,0,0.8942,rock_grid_rect_2,8,10,-1,-1,0.894,0.354166667,-0.407552083,1,0,0,2.0166,Pumice_rect,8,2.017,1,11,0,11,0,1,,,,,,,,,,,,,
66114844b8efff4b2af276ec,TCN,2024-06-21_13h46.09.200,LearnStrategy,2023.2.3,Win32,59.52380952,4,1,13,0.063802083,-0.010416667,1,0,0,0.7109,rock_grid_rect_2,2,06,-1,-1,0.711,-0.106770833,-0.23828125,1,0,0,1.3842,Basalt_rect,2,1.384,1,12,0,12,0,1,,,,,,,,,,,,,
66114844b8efff4b2af276ec,TCN,2024-06-21_13h46.09.200,LearnStrategy,2023.2.3,Win32,59.52380952,4,1,14,0.154947917,-0.0078125,1,0,0,0.927,rock_grid_rect_2,1,04,-1,-1,0.927,-0.358072917,-0.240885417,1,0,0,1.8509,Andesite_rect,1,1.851,1,13,0,13,0,1,,,,,,,,,,,,,
66114844b8efff4b2af276ec,TCN,2024-06-21_13h46.09.200,LearnStrategy,2023.2.3,Win32,59.52380952,4,1,15,0.091145833,-0.005208333,1,0,0,0.9271,rock_grid_rect_2,2,09,-1,-1,0.927,-0.08984375,-0.255208333,1,0,0,1.1663,Basalt_rect,2,1.166,1,14,0,14,0,1,,,,,,,,,,,,,
66114844b8efff4b2af276ec,TCN,2024-06-21_13h46.09.200,LearnStrategy,2023.2.3,Win32,59.52380952,4,1,16,0.114583333,-0.0078125,1,0,0,1.0086,rock_grid_rect_2,5,14,-1,-1,1.009,-0.322916667,-0.395833333,1,0,0,1.0918,Obsidian_rect,5,1.092,1,15,0,15,0,1,,,,,,,,,,,,,
66114844b8efff4b2af276ec,TCN,2024-06-21_13h46.09.200,LearnStrategy,2023.2.3,Win32,59.52380952,4,2,1,,,,,,,,6,03,,,,,,,,,,,7,1.283,0,,,,,,0.104166667,-0.391927083,1,0,0,1.2834,Peridotite_rect,0,0,0,0,1,
66114844b8efff4b2af276ec,TCN,2024-06-21_13h46.09.200,LearnStrategy,2023.2.3,Win32,59.52380952,4,2,2,,,,,,,,5,05,,,,,,,,,,,5,3.603,1,,,,,,-0.33984375,-0.393229167,1,0,0,3.6028,Obsidian_rect,1,0,1,0,1,
66114844b8efff4b2af276ec,TCN,2024-06-21_13h46.09.200,LearnStrategy,2023.2.3,Win32,59.52380952,4,2,3,,,,,,,,7,14,,,,,,,,,,,7,2.158,1,,,,,,0.0703125,-0.407552083,1,0,0,2.1575,Peridotite_rect,2,0,2,0,1,
66114844b8efff4b2af276ec,TCN,2024-06-21_13h46.09.200,LearnStrategy,2023.2.3,Win32,59.52380952,4,2,4,,,,,,,,2,16,,,,,,,,,,,4,4.346,0,,,,,,0.346354167,-0.248697917,1,0,0,4.346,Gabbro_rect,3,0,3,0,1,
66114844b8efff4b2af276ec,TCN,2024-06-21_13h46.09.200,LearnStrategy,2023.2.3,Win32,59.52380952,4,2,5,,,,,,,,4,10,,,,,,,,,,,4,1.516,1,,,,,,0.34765625,-0.248697917,1,0,0,1.5164,Gabbro_rect,4,0,4,0,1,
66114844b8efff4b2af276ec,TCN,2024-06-21_13h46.09.200,LearnStrategy,2023.2.3,Win32,59.52380952,4,2,6,,,,,,,,2,04,,,,,,,,,,,2,1.199,1,,,,,,-0.08203125,-0.244791667,1,0,0,1.1993,Basalt_rect,5,0,5,0,1,
66114844b8efff4b2af276ec,TCN,2024-06-21_13h46.09.200,LearnStrategy,2023.2.3,Win32,59.52380952,4,2,7,,,,,,,,7,05,,,,,,,,,,,7,1.783,1,,,,,,0.096354167,-0.407552083,1,0,0,1.7826,Peridotite_rect,6,0,6,0,1,
66114844b8efff4b2af276ec,TCN,2024-06-21_13h46.09.200,LearnStrategy,2023.2.3,Win32,59.52380952,4,2,8,,,,,,,,1,01,,,,,,,,,,,1,4.731,1,,,,,,-0.345052083,-0.234375,1,0,0,4.7305,Andesite_rect,7,0,7,0,1,
66114844b8efff4b2af276ec,TCN,2024-06-21_13h46.09.200,LearnStrategy,2023.2.3,Win32,59.52380952,4,2,9,,,,,,,,8,05,,,,,,,,,,,8,1.499,1,,,,,,0.43359375,-0.399739583,1,0,0,1.4989,Pumice_rect,8,0,8,0,1,
66114844b8efff4b2af276ec,TCN,2024-06-21_13h46.09.200,LearnStrategy,2023.2.3,Win32,59.52380952,4,2,10,,,,,,,,3,10,,,,,,,,,,,3,1.784,1,,,,,,0.165364583,-0.265625,1,0,0,1.7841,Diorite_rect,9,0,9,0,1,
66114844b8efff4b2af276ec,TCN,2024-06-21_13h46.09.200,LearnStrategy,2023.2.3,Win32,59.52380952,4,2,11,,,,,,,,4,01,,,,,,,,,,,3,4.818,0,,,,,,0.151041667,-0.24609375,1,0,0,4.818,Diorite_rect,10,0,10,0,1,
66114844b8efff4b2af276ec,TCN,2024-06-21_13h46.09.200,LearnStrategy,2023.2.3,Win32,59.52380952,4,2,12,,,,,,,,8,15,,,,,,,,,,,8,1.142,1,,,,,,0.329427083,-0.393229167,1,0,0,1.1416,Pumice_rect,11,0,11,0,1,
66114844b8efff4b2af276ec,TCN,2024-06-21_13h46.09.200,LearnStrategy,2023.2.3,Win32,59.52380952,4,2,13,,,,,,,,3,13,,,,,,,,,,,1,2.145,0,,,,,,-0.338541667,-0.240885417,1,0,0,2.1449,Andesite_rect,12,0,12,0,1,
66114844b8efff4b2af276ec,TCN,2024-06-21_13h46.09.200,LearnStrategy,2023.2.3,Win32,59.52380952,4,2,14,,,,,,,,5,04,,,,,,,,,,,5,1.086,1,,,,,,-0.358072917,-0.415364583,1,0,0,1.0856,Obsidian_rect,13,0,13,0,1,
66114844b8efff4b2af276ec,TCN,2024-06-21_13h46.09.200,LearnStrategy,2023.2.3,Win32,59.52380952,4,2,15,,,,,,,,6,15,,,,,,,,,,,6,1.782,1,,,,,,-0.169270833,-0.41015625,1,0,0,1.7824,Pegmatite_rect,14,0,14,0,1,
66114844b8efff4b2af276ec,TCN,2024-06-21_13h46.09.200,LearnStrategy,2023.2.3,Win32,59.52380952,4,2,16,,,,,,,,1,14,,,,,,,,,,,6,1.587,0,,,,,,-0.170572917,-0.397135417,1,0,0,1.587,Pegmatite_rect,15,0,15,0,1,
66114844b8efff4b2af276ec,TCN,2024-06-21_13h46.09.200,LearnStrategy,2023.2.3,Win32,59.52380952,5,1,1,0.065104167,0.005208333,1,0,0,1.1164,rock_grid_rect_2,2,10,-1,-1,1.116,-0.08984375,-0.233072917,1,0,0,1.3016,Basalt_rect,2,1.302,1,0,0,0,0,1,,,,,,,,,,,,,
66114844b8efff4b2af276ec,TCN,2024-06-21_13h46.09.200,LearnStrategy,2023.2.3,Win32,59.52380952,5,1,2,0.092447917,-0.009114583,1,0,0,1.0492,rock_grid_rect_2,8,14,-1,-1,1.049,0.342447917,-0.388020833,1,0,0,1.9116,Pumice_rect,8,1.912,1,1,0,1,0,1,,,,,,,,,,,,,
66114844b8efff4b2af276ec,TCN,2024-06-21_13h46.09.200,LearnStrategy,2023.2.3,Win32,59.52380952,5,1,3,0.037760417,-0.001302083,1,0,0,1.0105,rock_grid_rect_2,5,16,-1,-1,1.01,-0.360677083,-0.411458333,1,0,0,1.3199,Obsidian_rect,5,1.32,1,2,0,2,0,1,,,,,,,,,,,,,
66114844b8efff4b2af276ec,TCN,2024-06-21_13h46.09.200,LearnStrategy,2023.2.3,Win32,59.52380952,5,1,4,0.046875,0.001302083,1,0,0,1.06,rock_grid_rect_2,3,11,-1,-1,1.06,0.114583333,-0.247395833,1,0,0,1.3522,Diorite_rect,3,1.352,1,3,0,3,0,1,,,,,,,,,,,,,
66114844b8efff4b2af276ec,TCN,2024-06-21_13h46.09.200,LearnStrategy,2023.2.3,Win32,59.52380952,5,1,5,0.083333333,0.002604167,1,0,0,0.8934,rock_grid_rect_2,7,12,-1,-1,0.893,-0.385416667,-0.256510417,1,0,0,1.7732,Andesite_rect,1,1.773,0,4,0,4,0,1,,,,,,,,,,,,,
66114844b8efff4b2af276ec,TCN,2024-06-21_13h46.09.200,LearnStrategy,2023.2.3,Win32,59.52380952,5,1,6,0.041666667,-0.002604167,1,0,0,1.0437,rock_grid_rect_2,1,11,-1,-1,1.044,-0.178385417,-0.3828125,1,0,0,1.8508,Pegmatite_rect,6,1.851,0,5,0,5,0,1,,,,,,,,,,,,,
66114844b8efff4b2af276ec,TCN,2024-06-21_13h46.09.200,LearnStrategy,2023.2.3,Win32,59.52380952,5,1,7,0.09375,-0.009114583,1,0,0,0.9447,rock_grid_rect_2,4,03,-1,-1,0.945,0.095052083,-0.25,1,0,0,1.9683,Diorite_rect,3,1.968,0,6,0,6,0,1,,,,,,,,,,,,,
66114844b8efff4b2af276ec,TCN,2024-06-21_13h46.09.200,LearnStrategy,2023.2.3,Win32,59.52380952,5,1,8,0.092447917,0.005208333,1,0,0,0.9947,rock_grid_rect_2,3,15,-1,-1,0.995,0.140625,-0.255208333,1,0,0,3.033,Diorite_rect,3,3.033,1,7,0,7,0,1,,,,,,,,,,,,,
66114844b8efff4b2af276ec,TCN,2024-06-21_13h46.09.200,LearnStrategy,2023.2.3,Win32,59.52380952,5,1,9,0.119791667,-0.01171875,1,0,0,0.7249,rock_grid_rect_2,2,14,-1,-1,0.725,0.3828125,-0.255208333,1,0,0,2.715,Gabbro_rect,4,2.715,0,8,0,8,0,1,,,,,,,,,,,,,
66114844b8efff4b2af276ec,TCN,2024-06-21_13h46.09.200,LearnStrategy,2023.2.3,Win32,59.52380952,5,1,10,0.04296875,-0.009114583,1,0,0,0.9463,rock_grid_rect_2,6,12,-1,-1,0.946,-0.190104167,-0.401041667,1,0,0,1.3257,Pegmatite_rect,6,1.326,1,9,0,9,0,1,,,,,,,,,,,,,
66114844b8efff4b2af276ec,TCN,2024-06-21_13h46.09.200,LearnStrategy,2023.2.3,Win32,59.52380952,5,1,11,0.0703125,-0.005208333,1,0,0,0.8273,rock_grid_rect_2,7,10,-1,-1,0.827,0.091145833,-0.380208333,1,0,0,1.0061,Peridotite_rect,7,1.006,1,10,0,10,0,1,,,,,,,,,,,,,
66114844b8efff4b2af276ec,TCN,2024-06-21_13h46.09.200,LearnStrategy,2023.2.3,Win32,59.52380952,5,1,12,0.095052083,-0.005208333,1,0,0,0.8101,rock_grid_rect_2,5,12,-1,-1,0.81,-0.3515625,-0.40625,1,0,0,1.0684,Obsidian_rect,5,1.068,1,11,0,11,0,1,,,,,,,,,,,,,
66114844b8efff4b2af276ec,TCN,2024-06-21_13h46.09.200,LearnStrategy,2023.2.3,Win32,59.52380952,5,1,13,0.102864583,-0.014322917,1,0,0,0.8624,rock_grid_rect_2,4,08,-1,-1,0.862,0.37109375,-0.252604167,1,0,0,2.0339,Gabbro_rect,4,2.034,1,12,0,12,0,1,,,,,,,,,,,,,
66114844b8efff4b2af276ec,TCN,2024-06-21_13h46.09.200,LearnStrategy,2023.2.3,Win32,59.52380952,5,1,14,0.10546875,0,1,0,0,0.6945,rock_grid_rect_2,6,05,-1,-1,0.695,-0.184895833,-0.388020833,1,0,0,3.0542,Pegmatite_rect,6,3.054,1,13,0,13,0,1,,,,,,,,,,,,,
66114844b8efff4b2af276ec,TCN,2024-06-21_13h46.09.200,LearnStrategy,2023.2.3,Win32,59.52380952,5,1,15,0.104166667,-0.005208333,1,0,0,0.9092,rock_grid_rect_2,8,03,-1,-1,0.909,0.365885417,-0.407552083,1,0,0,1.2396,Pumice_rect,8,1.24,1,14,0,14,0,1,,,,,,,,,,,,,
66114844b8efff4b2af276ec,TCN,2024-06-21_13h46.09.200,LearnStrategy,2023.2.3,Win32,59.52380952,5,1,16,0.057291667,-0.01171875,1,0,0,0.8939,rock_grid_rect_2,1,06,-1,-1,0.894,-0.37890625,-0.26171875,1,0,0,4.2338,Andesite_rect,1,4.234,1,15,0,15,0,1,,,,,,,,,,,,,
66114844b8efff4b2af276ec,TCN,2024-06-21_13h46.09.200,LearnStrategy,2023.2.3,Win32,59.52380952,5,2,1,,,,,,,,7,07,,,,,,,,,,,7,1.399,1,,,,,,0.115885417,-0.401041667,1,0,0,1.3993,Peridotite_rect,0,0,0,0,1,
66114844b8efff4b2af276ec,TCN,2024-06-21_13h46.09.200,LearnStrategy,2023.2.3,Win32,59.52380952,5,2,2,,,,,,,,5,11,,,,,,,,,,,5,1.329,1,,,,,,-0.368489583,-0.3828125,1,0,0,1.3286,Obsidian_rect,1,0,1,0,1,
66114844b8efff4b2af276ec,TCN,2024-06-21_13h46.09.200,LearnStrategy,2023.2.3,Win32,59.52380952,5,2,3,,,,,,,,4,12,,,,,,,,,,,4,4.286,1,,,,,,0.329427083,-0.25,1,0,0,4.2863,Gabbro_rect,2,0,2,0,1,
66114844b8efff4b2af276ec,TCN,2024-06-21_13h46.09.200,LearnStrategy,2023.2.3,Win32,59.52380952,5,2,4,,,,,,,,6,13,,,,,,,,,,,6,1.582,1,,,,,,-0.151041667,-0.420572917,1,0,0,1.582,Pegmatite_rect,3,0,3,0,1,
66114844b8efff4b2af276ec,TCN,2024-06-21_13h46.09.200,LearnStrategy,2023.2.3,Win32,59.52380952,5,2,5,,,,,,,,4,14,,,,,,,,,,,4,4.559,1,,,,,,0.381510417,-0.24609375,1,0,0,4.5595,Gabbro_rect,4,0,4,0,1,
66114844b8efff4b2af276ec,TCN,2024-06-21_13h46.09.200,LearnStrategy,2023.2.3,Win32,59.52380952,5,2,6,,,,,,,,2,11,,,,,,,,,,,2,2.628,1,,,,,,-0.1328125,-0.244791667,1,0,0,2.6283,Basalt_rect,5,0,5,0,1,
66114844b8efff4b2af276ec,TCN,2024-06-21_13h46.09.200,LearnStrategy,2023.2.3,Win32,59.52380952,5,2,7,,,,,,,,1,07,,,,,,,,,,,6,3.194,0,,,,,,-0.139322917,-0.401041667,1,0,0,3.1939,Pegmatite_rect,6,0,6,0,1,
66114844b8efff4b2af276ec,TCN,2024-06-21_13h46.09.200,LearnStrategy,2023.2.3,Win32,59.52380952,5,2,8,,,,,,,,1,03,,,,,,,,,,,1,1.926,1,,,,,,-0.34375,-0.255208333,1,0,0,1.9258,Andesite_rect,7,0,7,0,1,
66114844b8efff4b2af276ec,TCN,2024-06-21_13h46.09.200,LearnStrategy,2023.2.3,Win32,59.52380952,5,2,9,,,,,,,,3,06,,,,,,,,,,,3,4.132,1,,,,,,0.084635417,-0.26171875,1,0,0,4.1318,Diorite_rect,8,0,8,0,1,
66114844b8efff4b2af276ec,TCN,2024-06-21_13h46.09.200,LearnStrategy,2023.2.3,Win32,59.52380952,5,2,10,,,,,,,,7,08,,,,,,,,,,,7,1.333,1,,,,,,0.102864583,-0.390625,1,0,0,1.3328,Peridotite_rect,9,0,9,0,1,
66114844b8efff4b2af276ec,TCN,2024-06-21_13h46.09.200,LearnStrategy,2023.2.3,Win32,59.52380952,5,2,11,,,,,,,,6,08,,,,,,,,,,,6,1.684,1,,,,,,-0.09375,-0.388020833,1,0,0,1.684,Pegmatite_rect,10,0,10,0,1,
66114844b8efff4b2af276ec,TCN,2024-06-21_13h46.09.200,LearnStrategy,2023.2.3,Win32,59.52380952,5,2,12,,,,,,,,8,06,,,,,,,,,,,8,1.895,1,,,,,,0.354166667,-0.393229167,1,0,0,1.8946,Pumice_rect,11,0,11,0,1,
66114844b8efff4b2af276ec,TCN,2024-06-21_13h46.09.200,LearnStrategy,2023.2.3,Win32,59.52380952,5,2,13,,,,,,,,5,09,,,,,,,,,,,5,1.087,1,,,,,,-0.419270833,-0.395833333,1,0,0,1.087,Obsidian_rect,12,0,12,0,1,
66114844b8efff4b2af276ec,TCN,2024-06-21_13h46.09.200,LearnStrategy,2023.2.3,Win32,59.52380952,5,2,14,,,,,,,,8,13,,,,,,,,,,,8,1.244,1,,,,,,0.361979167,-0.38671875,1,0,0,1.2437,Pumice_rect,13,0,13,0,1,
66114844b8efff4b2af276ec,TCN,2024-06-21_13h46.09.200,LearnStrategy,2023.2.3,Win32,59.52380952,5,2,15,,,,,,,,3,09,,,,,,,,,,,3,2.667,1,,,,,,0.182291667,-0.2578125,1,0,0,2.6665,Diorite_rect,14,0,14,0,1,
66114844b8efff4b2af276ec,TCN,2024-06-21_13h46.09.200,LearnStrategy,2023.2.3,Win32,59.52380952,5,2,16,,,,,,,,2,12,,,,,,,,,,,2,4.181,1,,,,,,-0.07421875,-0.244791667,1,0,0,4.1811,Basalt_rect,15,0,15,0,1,
66114844b8efff4b2af276ec,TCN,2024-06-21_13h46.09.200,LearnStrategy,2023.2.3,Win32,59.52380952,6,1,1,0.049479167,0.0078125,1,0,0,1.2279,rock_grid_rect_2,8,02,-1,-1,1.228,0.37890625,-0.411458333,1,0,0,1.3659,Pumice_rect,8,1.366,1,0,0,0,0,1,,,,,,,,,,,,,
66114844b8efff4b2af276ec,TCN,2024-06-21_13h46.09.200,LearnStrategy,2023.2.3,Win32,59.52380952,6,1,2,0.1328125,-0.006510417,1,0,0,1.0261,rock_grid_rect_2,6,09,-1,-1,1.026,0.122395833,-0.399739583,1,0,0,1.185,Peridotite_rect,7,1.185,0,1,0,1,0,1,,,,,,,,,,,,,
66114844b8efff4b2af276ec,TCN,2024-06-21_13h46.09.200,LearnStrategy,2023.2.3,Win32,59.52380952,6,1,3,0.044270833,-0.009114583,1,0,0,0.8089,rock_grid_rect_2,8,16,-1,-1,0.809,0.348958333,-0.395833333,1,0,0,1.7587,Pumice_rect,8,1.759,1,2,0,2,0,1,,,,,,,,,,,,,
66114844b8efff4b2af276ec,TCN,2024-06-21_13h46.09.200,LearnStrategy,2023.2.3,Win32,59.52380952,6,1,4,0.087239583,0.005208333,1,0,0,0.8454,rock_grid_rect_2,4,09,-1,-1,0.845,0.329427083,-0.243489583,1,0,0,2.657,Gabbro_rect,4,2.657,1,3,0,3,0,1,,,,,,,,,,,,,
66114844b8efff4b2af276ec,TCN,2024-06-21_13h46.09.200,LearnStrategy,2023.2.3,Win32,59.52380952,6,1,5,0.092447917,-0.01171875,1,0,0,0.8088,rock_grid_rect_2,2,05,-1,-1,0.809,-0.110677083,-0.236979167,1,0,0,1.1925,Basalt_rect,2,1.192,1,4,0,4,0,1,,,,,,,,,,,,,
66114844b8efff4b2af276ec,TCN,2024-06-21_13h46.09.200,LearnStrategy,2023.2.3,Win32,59.52380952,6,1,6,0.108072917,-0.018229167,1,0,0,0.9286,rock_grid_rect_2,5,10,-1,-1,0.929,-0.376302083,-0.415364583,1,0,0,1.218,Obsidian_rect,5,1.218,1,5,0,5,0,1,,,,,,,,,,,,,
66114844b8efff4b2af276ec,TCN,2024-06-21_13h46.09.200,LearnStrategy,2023.2.3,Win32,59.52380952,6,1,7,0.092447917,-0.00390625,1,0,0,0.8934,rock_grid_rect_2,6,07,-1,-1,0.893,-0.080729167,-0.397135417,1,0,0,2.4599,Pegmatite_rect,6,2.46,1,6,0,6,0,1,,,,,,,,,,,,,
66114844b8efff4b2af276ec,TCN,2024-06-21_13h46.09.200,LearnStrategy,2023.2.3,Win32,59.52380952,6,1,8,0.084635417,0.002604167,1,0,0,0.8924,rock_grid_rect_2,3,12,-1,-1,0.892,0.11328125,-0.24609375,1,0,0,1.6018,Diorite_rect,3,1.602,1,7,0,7,0,1,,,,,,,,,,,,,
66114844b8efff4b2af276ec,TCN,2024-06-21_13h46.09.200,LearnStrategy,2023.2.3,Win32,59.52380952,6,1,9,0.079427083,0.002604167,1,0,0,0.927,rock_grid_rect_2,1,10,-1,-1,0.927,-0.07421875,-0.243489583,1,0,0,2.1143,Basalt_rect,2,2.114,0,8,0,8,0,1,,,,,,,,,,,,,
66114844b8efff4b2af276ec,TCN,2024-06-21_13h46.09.200,LearnStrategy,2023.2.3,Win32,59.52380952,6,1,10,0.01953125,0,1,0,0,0.8849,rock_grid_rect_2,4,11,-1,-1,0.885,-0.087239583,-0.231770833,1,0,0,0.9788,Basalt_rect,2,0.979,0,9,0,9,0,1,,,,,,,,,,,,,
66114844b8efff4b2af276ec,TCN,2024-06-21_13h46.09.200,LearnStrategy,2023.2.3,Win32,59.52380952,6,1,11,0.076822917,-0.002604167,1,0,0,1.1111,rock_grid_rect_2,7,06,-1,-1,1.111,0.122395833,-0.3828125,1,0,0,1.1854,Peridotite_rect,7,1.185,1,10,0,10,0,1,,,,,,,,,,,,,
66114844b8efff4b2af276ec,TCN,2024-06-21_13h46.09.200,LearnStrategy,2023.2.3,Win32,59.52380952,6,1,12,0.119791667,-0.00390625,1,0,0,0.8443,rock_grid_rect_2,1,09,-1,-1,0.844,-0.092447917,-0.248697917,1,0,0,1.1848,Basalt_rect,2,1.185,0,11,0,11,0,1,,,,,,,,,,,,,
66114844b8efff4b2af276ec,TCN,2024-06-21_13h46.09.200,LearnStrategy,2023.2.3,Win32,59.52380952,6,1,13,0.110677083,-0.005208333,1,0,0,0.7454,rock_grid_rect_2,7,15,-1,-1,0.745,0.122395833,-0.399739583,1,0,0,1.1182,Peridotite_rect,7,1.118,1,12,0,12,0,1,,,,,,,,,,,,,
66114844b8efff4b2af276ec,TCN,2024-06-21_13h46.09.200,LearnStrategy,2023.2.3,Win32,59.52380952,6,1,14,0.1328125,0.01171875,1,0,0,0.7622,rock_grid_rect_2,2,08,-1,-1,0.762,-0.087239583,-0.243489583,1,0,0,0.9225,Basalt_rect,2,0.923,1,13,0,13,0,1,,,,,,,,,,,,,
66114844b8efff4b2af276ec,TCN,2024-06-21_13h46.09.200,LearnStrategy,2023.2.3,Win32,59.52380952,6,1,15,0.098958333,-0.013020833,1,0,0,0.7787,rock_grid_rect_2,3,16,-1,-1,0.779,0.139322917,-0.256510417,1,0,0,0.8576,Diorite_rect,3,0.858,1,14,0,14,0,1,,,,,,,,,,,,,
66114844b8efff4b2af276ec,TCN,2024-06-21_13h46.09.200,LearnStrategy,2023.2.3,Win32,59.52380952,6,1,16,0.108072917,0,1,0,0,0.677,rock_grid_rect_2,5,06,-1,-1,0.677,-0.33984375,-0.401041667,1,0,0,1.0589,Obsidian_rect,5,1.059,1,15,0,15,0,1,,,,,,,,,,,,,
66114844b8efff4b2af276ec,TCN,2024-06-21_13h46.09.200,LearnStrategy,2023.2.3,Win32,59.52380952,6,2,1,,,,,,,,6,11,,,,,,,,,,,5,6.706,0,,,,,,-0.356770833,-0.40625,1,0,0,6.7058,Obsidian_rect,0,0,0,0,1,
66114844b8efff4b2af276ec,TCN,2024-06-21_13h46.09.200,LearnStrategy,2023.2.3,Win32,59.52380952,6,2,2,,,,,,,,2,02,,,,,,,,,,,2,1.018,1,,,,,,-0.122395833,-0.24609375,1,0,0,1.0179,Basalt_rect,1,0,1,0,1,
66114844b8efff4b2af276ec,TCN,2024-06-21_13h46.09.200,LearnStrategy,2023.2.3,Win32,59.52380952,6,2,3,,,,,,,,5,02,,,,,,,,,,,5,1.111,1,,,,,,-0.330729167,-0.399739583,1,0,0,1.1112,Obsidian_rect,2,0,2,0,1,
66114844b8efff4b2af276ec,TCN,2024-06-21_13h46.09.200,LearnStrategy,2023.2.3,Win32,59.52380952,6,2,4,,,,,,,,4,13,,,,,,,,,,,4,1.318,1,,,,,,0.44140625,-0.243489583,1,0,0,1.3178,Gabbro_rect,3,0,3,0,1,
66114844b8efff4b2af276ec,TCN,2024-06-21_13h46.09.200,LearnStrategy,2023.2.3,Win32,59.52380952,6,2,5,,,,,,,,8,09,,,,,,,,,,,8,1.169,1,,,,,,0.375,-0.41015625,1,0,0,1.1689,Pumice_rect,4,0,4,0,1,
66114844b8efff4b2af276ec,TCN,2024-06-21_13h46.09.200,LearnStrategy,2023.2.3,Win32,59.52380952,6,2,6,,,,,,,,6,10,,,,,,,,,,,7,0.951,0,,,,,,0.1640625,-0.390625,1,0,0,0.9508,Peridotite_rect,5,0,5,0,1,
66114844b8efff4b2af276ec,TCN,2024-06-21_13h46.09.200,LearnStrategy,2023.2.3,Win32,59.52380952,6,2,7,,,,,,,,2,01,,,,,,,,,,,2,1.136,1,,,,,,-0.065104167,-0.240885417,1,0,0,1.1355,Basalt_rect,6,0,6,0,1,
66114844b8efff4b2af276ec,TCN,2024-06-21_13h46.09.200,LearnStrategy,2023.2.3,Win32,59.52380952,6,2,8,,,,,,,,7,16,,,,,,,,,,,4,5.527,0,,,,,,0.368489583,-0.231770833,1,0,0,5.5265,Gabbro_rect,7,0,7,0,1,
66114844b8efff4b2af276ec,TCN,2024-06-21_13h46.09.200,LearnStrategy,2023.2.3,Win32,59.52380952,6,2,9,,,,,,,,3,02,,,,,,,,,,,1,2.535,0,,,,,,-0.3203125,-0.255208333,1,0,0,2.5347,Andesite_rect,8,0,8,0,1,
66114844b8efff4b2af276ec,TCN,2024-06-21_13h46.09.200,LearnStrategy,2023.2.3,Win32,59.52380952,6,2,10,,,,,,,,1,02,,,,,,,,,,,1,1.527,1,,,,,,-0.3203125,-0.255208333,1,0,0,1.5266,Andesite_rect,9,0,9,0,1,
66114844b8efff4b2af276ec,TCN,2024-06-21_13h46.09.200,LearnStrategy,2023.2.3,Win32,59.52380952,6,2,11,,,,,,,,4,16,,,,,,,,,,,4,5.096,1,,,,,,0.3359375,-0.251302083,1,0,0,5.0964,Gabbro_rect,10,0,10,0,1,
66114844b8efff4b2af276ec,TCN,2024-06-21_13h46.09.200,LearnStrategy,2023.2.3,Win32,59.52380952,6,2,12,,,,,,,,7,02,,,,,,,,,,,7,1.336,1,,,,,,0.153645833,-0.407552083,1,0,0,1.3358,Peridotite_rect,11,0,11,0,1,
66114844b8efff4b2af276ec,TCN,2024-06-21_13h46.09.200,LearnStrategy,2023.2.3,Win32,59.52380952,6,2,13,,,,,,,,3,08,,,,,,,,,,,3,2.066,1,,,,,,0.139322917,-0.251302083,1,0,0,2.0657,Diorite_rect,12,0,12,0,1,
66114844b8efff4b2af276ec,TCN,2024-06-21_13h46.09.200,LearnStrategy,2023.2.3,Win32,59.52380952,6,2,14,,,,,,,,1,05,,,,,,,,,,,1,1.585,1,,,,,,-0.342447917,-0.251302083,1,0,0,1.5855,Andesite_rect,13,0,13,0,1,
66114844b8efff4b2af276ec,TCN,2024-06-21_13h46.09.200,LearnStrategy,2023.2.3,Win32,59.52380952,6,2,15,,,,,,,,5,08,,,,,,,,,,,5,1.134,1,,,,,,-0.346354167,-0.38671875,1,0,0,1.1337,Obsidian_rect,14,0,14,0,1,
66114844b8efff4b2af276ec,TCN,2024-06-21_13h46.09.200,LearnStrategy,2023.2.3,Win32,59.52380952,6,2,16,,,,,,,,8,08,,,,,,,,,,,8,1.086,1,,,,,,0.416666667,-0.401041667,1,0,0,1.0856,Pumice_rect,15,0,15,0,1,
66114844b8efff4b2af276ec,TCN,2024-06-21_13h46.09.200,LearnStrategy,2023.2.3,Win32,59.52380952,7,1,1,0.091145833,-0.01171875,1,0,0,16.2074,rock_grid_rect_2,4,08,-1,-1,16.207,0.333333333,-0.251302083,1,0,0,3.0648,Gabbro_rect,4,3.065,1,0,0,0,0,1,,,,,,,,,,,,,
66114844b8efff4b2af276ec,TCN,2024-06-21_13h46.09.200,LearnStrategy,2023.2.3,Win32,59.52380952,7,1,2,0.16796875,0.005208333,1,0,0,0.8099,rock_grid_rect_2,3,14,-1,-1,0.81,0.140625,-0.260416667,1,0,0,1.0448,Diorite_rect,3,1.045,1,1,0,1,0,1,,,,,,,,,,,,,
66114844b8efff4b2af276ec,TCN,2024-06-21_13h46.09.200,LearnStrategy,2023.2.3,Win32,59.52380952,7,1,3,0.134114583,0.00390625,1,0,0,0.8514,rock_grid_rect_2,6,07,-1,-1,0.851,-0.080729167,-0.404947917,1,0,0,1.9941,Pegmatite_rect,6,1.994,1,2,0,2,0,1,,,,,,,,,,,,,
66114844b8efff4b2af276ec,TCN,2024-06-21_13h46.09.200,LearnStrategy,2023.2.3,Win32,59.52380952,7,1,4,0.143229167,-0.002604167,1,0,0,0.9362,rock_grid_rect_2,8,16,-1,-1,0.936,0.3359375,-0.3984375,1,0,0,1.928,Pumice_rect,8,1.928,1,3,0,3,0,1,,,,,,,,,,,,,
66114844b8efff4b2af276ec,TCN,2024-06-21_13h46.09.200,LearnStrategy,2023.2.3,Win32,59.52380952,7,1,5,0.096354167,0.013020833,1,0,0,0.786,rock_grid_rect_2,3,07,-1,-1,0.786,0.119791667,-0.244791667,1,0,0,0.9702,Diorite_rect,3,0.97,1,4,0,4,0,1,,,,,,,,,,,,,
66114844b8efff4b2af276ec,TCN,2024-06-21_13h46.09.200,LearnStrategy,2023.2.3,Win32,59.52380952,7,1,6,0.12109375,0.005208333,1,0,0,0.7948,rock_grid_rect_2,6,12,-1,-1,0.795,-0.076822917,-0.395833333,1,0,0,1.474,Pegmatite_rect,6,1.474,1,5,0,5,0,1,,,,,,,,,,,,,
66114844b8efff4b2af276ec,TCN,2024-06-21_13h46.09.200,LearnStrategy,2023.2.3,Win32,59.52380952,7,1,7,0.135416667,0.0078125,1,0,0,0.7801,rock_grid_rect_2,7,15,-1,-1,0.78,0.1171875,-0.395833333,1,0,0,1.009,Peridotite_rect,7,1.009,1,6,0,6,0,1,,,,,,,,,,,,,
66114844b8efff4b2af276ec,TCN,2024-06-21_13h46.09.200,LearnStrategy,2023.2.3,Win32,59.52380952,7,1,8,0.12109375,-0.001302083,1,0,0,0.7791,rock_grid_rect_2,2,09,-1,-1,0.779,-0.0625,-0.24609375,1,0,0,0.9262,Basalt_rect,2,0.926,1,7,0,7,0,1,,,,,,,,,,,,,
66114844b8efff4b2af276ec,TCN,2024-06-21_13h46.09.200,LearnStrategy,2023.2.3,Win32,59.52380952,7,1,9,0.145833333,0,1,0,0,0.7449,rock_grid_rect_2,5,10,-1,-1,0.745,-0.34765625,-0.40625,1,0,0,1.093,Obsidian_rect,5,1.093,1,8,0,8,0,1,,,,,,,,,,,,,
66114844b8efff4b2af276ec,TCN,2024-06-21_13h46.09.200,LearnStrategy,2023.2.3,Win32,59.52380952,7,1,10,0.138020833,-0.00390625,1,0,0,0.7457,rock_grid_rect_2,4,05,-1,-1,0.746,0.348958333,-0.236979167,1,0,0,1.7218,Gabbro_rect,4,1.722,1,9,0,9,0,1,,,,,,,,,,,,,
66114844b8efff4b2af276ec,TCN,2024-06-21_13h46.09.200,LearnStrategy,2023.2.3,Win32,59.52380952,7,1,11,0.061197917,0.005208333,1,0,0,0.6787,rock_grid_rect_2,1,11,-1,-1,0.679,-0.3515625,-0.24609375,1,0,0,1.3406,Andesite_rect,1,1.341,1,10,0,10,0,1,,,,,,,,,,,,,
66114844b8efff4b2af276ec,TCN,2024-06-21_13h46.09.200,LearnStrategy,2023.2.3,Win32,59.52380952,7,1,12,0.13671875,-0.0078125,1,0,0,0.7284,rock_grid_rect_2,1,16,-1,-1,0.728,-0.3359375,-0.256510417,1,0,0,1.9089,Andesite_rect,1,1.909,1,11,0,11,0,1,,,,,,,,,,,,,
66114844b8efff4b2af276ec,TCN,2024-06-21_13h46.09.200,LearnStrategy,2023.2.3,Win32,59.52380952,7,1,13,0.1015625,-0.005208333,1,0,0,0.7628,rock_grid_rect_2,8,04,-1,-1,0.763,0.34765625,-0.389322917,1,0,0,1.41,Pumice_rect,8,1.41,1,12,0,12,0,1,,,,,,,,,,,,,
66114844b8efff4b2af276ec,TCN,2024-06-21_13h46.09.200,LearnStrategy,2023.2.3,Win32,59.52380952,7,1,14,0.084635417,0.002604167,1,0,0,0.8627,rock_grid_rect_2,2,10,-1,-1,0.863,-0.083333333,-0.239583333,1,0,0,1.0099,Basalt_rect,2,1.01,1,13,0,13,0,1,,,,,,,,,,,,,
66114844b8efff4b2af276ec,TCN,2024-06-21_13h46.09.200,LearnStrategy,2023.2.3,Win32,59.52380952,7,1,15,0.139322917,0.001302083,1,0,0,0.7948,rock_grid_rect_2,7,10,-1,-1,0.795,0.139322917,-0.395833333,1,0,0,1.2268,Peridotite_rect,7,1.227,1,14,0,14,0,1,,,,,,,,,,,,,
66114844b8efff4b2af276ec,TCN,2024-06-21_13h46.09.200,LearnStrategy,2023.2.3,Win32,59.52380952,7,1,16,0.091145833,0.00390625,1,0,0,0.7453,rock_grid_rect_2,5,12,-1,-1,0.745,-0.311197917,-0.39453125,1,0,0,1.0426,Obsidian_rect,5,1.043,1,15,0,15,0,1,,,,,,,,,,,,,
66114844b8efff4b2af276ec,TCN,2024-06-21_13h46.09.200,LearnStrategy,2023.2.3,Win32,59.52380952,7,2,1,,,,,,,,1,07,,,,,,,,,,,1,2.421,1,,,,,,-0.342447917,-0.252604167,1,0,0,2.421,Andesite_rect,0,0,0,0,1,
66114844b8efff4b2af276ec,TCN,2024-06-21_13h46.09.200,LearnStrategy,2023.2.3,Win32,59.52380952,7,2,2,,,,,,,,7,07,,,,,,,,,,,7,1.216,1,,,,,,0.092447917,-0.397135417,1,0,0,1.2156,Peridotite_rect,1,0,1,0,1,
66114844b8efff4b2af276ec,TCN,2024-06-21_13h46.09.200,LearnStrategy,2023.2.3,Win32,59.52380952,7,2,3,,,,,,,,3,06,,,,,,,,,,,3,1.239,1,,,,,,0.1171875,-0.235677083,1,0,0,1.2388,Diorite_rect,2,0,2,0,1,
66114844b8efff4b2af276ec,TCN,2024-06-21_13h46.09.200,LearnStrategy,2023.2.3,Win32,59.52380952,7,2,4,,,,,,,,7,05,,,,,,,,,,,4,4.319,0,,,,,,0.37890625,-0.259114583,1,0,0,4.3195,Gabbro_rect,3,0,3,0,1,
66114844b8efff4b2af276ec,TCN,2024-06-21_13h46.09.200,LearnStrategy,2023.2.3,Win32,59.52380952,7,2,5,,,,,,,,5,02,,,,,,,,,,,5,1.246,1,,,,,,-0.434895833,-0.420572917,1,0,0,1.2458,Obsidian_rect,4,0,4,0,1,
66114844b8efff4b2af276ec,TCN,2024-06-21_13h46.09.200,LearnStrategy,2023.2.3,Win32,59.52380952,7,2,6,,,,,,,,4,13,,,,,,,,,,,4,1.738,1,,,,,,0.360677083,-0.25390625,1,0,0,1.7383,Gabbro_rect,5,0,5,0,1,
66114844b8efff4b2af276ec,TCN,2024-06-21_13h46.09.200,LearnStrategy,2023.2.3,Win32,59.52380952,7,2,7,,,,,,,,3,09,,,,,,,,,,,3,1.223,1,,,,,,0.139322917,-0.248697917,1,0,0,1.2227,Diorite_rect,6,0,6,0,1,
66114844b8efff4b2af276ec,TCN,2024-06-21_13h46.09.200,LearnStrategy,2023.2.3,Win32,59.52380952,7,2,8,,,,,,,,6,03,,,,,,,,,,,6,3.255,1,,,,,,-0.109375,-0.393229167,1,0,0,3.2552,Pegmatite_rect,7,0,7,0,1,
66114844b8efff4b2af276ec,TCN,2024-06-21_13h46.09.200,LearnStrategy,2023.2.3,Win32,59.52380952,7,2,9,,,,,,,,8,06,,,,,,,,,,,8,1.738,1,,,,,,0.3984375,-0.4140625,1,0,0,1.7381,Pumice_rect,8,0,8,0,1,
66114844b8efff4b2af276ec,TCN,2024-06-21_13h46.09.200,LearnStrategy,2023.2.3,Win32,59.52380952,7,2,10,,,,,,,,5,05,,,,,,,,,,,5,1.491,1,,,,,,-0.329427083,-0.393229167,1,0,0,1.4914,Obsidian_rect,9,0,9,0,1,
66114844b8efff4b2af276ec,TCN,2024-06-21_13h46.09.200,LearnStrategy,2023.2.3,Win32,59.52380952,7,2,11,,,,,,,,1,03,,,,,,,,,,,6,3.909,0,,,,,,-0.11328125,-0.399739583,1,0,0,3.9087,Pegmatite_rect,10,0,10,0,1,
66114844b8efff4b2af276ec,TCN,2024-06-21_13h46.09.200,LearnStrategy,2023.2.3,Win32,59.52380952,7,2,12,,,,,,,,8,13,,,,,,,,,,,8,2.826,1,,,,,,0.37109375,-0.3984375,1,0,0,2.8264,Pumice_rect,11,0,11,0,1,
66114844b8efff4b2af276ec,TCN,2024-06-21_13h46.09.200,LearnStrategy,2023.2.3,Win32,59.52380952,7,2,13,,,,,,,,2,04,,,,,,,,,,,2,1.529,1,,,,,,-0.061197917,-0.24609375,1,0,0,1.5286,Basalt_rect,12,0,12,0,1,
66114844b8efff4b2af276ec,TCN,2024-06-21_13h46.09.200,LearnStrategy,2023.2.3,Win32,59.52380952,7,2,14,,,,,,,,2,11,,,,,,,,,,,2,2.416,1,,,,,,-0.0625,-0.248697917,1,0,0,2.4161,Basalt_rect,13,0,13,0,1,
66114844b8efff4b2af276ec,TCN,2024-06-21_13h46.09.200,LearnStrategy,2023.2.3,Win32,59.52380952,7,2,15,,,,,,,,4,01,,,,,,,,,,,4,2.979,1,,,,,,0.352864583,-0.26171875,1,0,0,2.9794,Gabbro_rect,14,0,14,0,1,
66114844b8efff4b2af276ec,TCN,2024-06-21_13h46.09.200,LearnStrategy,2023.2.3,Win32,59.52380952,7,2,16,,,,,,,,6,15,,,,,,,,,,,6,1.319,1,,,,,,-0.130208333,-0.38671875,1,0,0,1.3189,Pegmatite_rect,15,0,15,0,1,
66114844b8efff4b2af276ec,TCN,2024-06-21_13h46.09.200,LearnStrategy,2023.2.3,Win32,59.52380952,8,1,1,0.110677083,-0.009114583,1,0,0,1.5448,rock_grid_rect_2,5,07,-1,-1,1.545,-0.3515625,-0.391927083,1,0,0,1.2345,Obsidian_rect,5,1.234,1,0,0,0,0,1,,,,,,,,,,,,,
66114844b8efff4b2af276ec,TCN,2024-06-21_13h46.09.200,LearnStrategy,2023.2.3,Win32,59.52380952,8,1,2,0.095052083,-0.006510417,1,0,0,1.229,rock_grid_rect_2,3,12,-1,-1,1.229,0.147135417,-0.240885417,1,0,0,1.225,Diorite_rect,3,1.225,1,1,0,1,0,1,,,,,,,,,,,,,
66114844b8efff4b2af276ec,TCN,2024-06-21_13h46.09.200,LearnStrategy,2023.2.3,Win32,59.52380952,8,1,3,0.092447917,-0.005208333,1,0,0,0.8948,rock_grid_rect_2,1,04,-1,-1,0.895,-0.162760417,-0.390625,1,0,0,2.2249,Pegmatite_rect,6,2.225,0,2,0,2,0,1,,,,,,,,,,,,,
66114844b8efff4b2af276ec,TCN,2024-06-21_13h46.09.200,LearnStrategy,2023.2.3,Win32,59.52380952,8,1,4,0.065104167,0.01171875,1,0,0,0.8617,rock_grid_rect_2,4,03,-1,-1,0.862,-0.373697917,-0.255208333,1,0,0,8.8329,Andesite_rect,1,8.833,0,3,0,3,0,1,,,,,,,,,,,,,
66114844b8efff4b2af276ec,TCN,2024-06-21_13h46.09.200,LearnStrategy,2023.2.3,Win32,59.52380952,8,1,5,0.109375,-0.005208333,1,0,0,1.0277,rock_grid_rect_2,8,10,-1,-1,1.028,0.360677083,-0.411458333,1,0,0,1.0573,Pumice_rect,8,1.057,1,4,0,4,0,1,,,,,,,,,,,,,
66114844b8efff4b2af276ec,TCN,2024-06-21_13h46.09.200,LearnStrategy,2023.2.3,Win32,59.52380952,8,1,6,0.139322917,-0.0234375,1,0,0,0.8963,rock_grid_rect_2,7,04,-1,-1,0.896,0.123697917,-0.38671875,1,0,0,3.7974,Peridotite_rect,7,3.797,1,5,0,5,0,1,,,,,,,,,,,,,
66114844b8efff4b2af276ec,TCN,2024-06-21_13h46.09.200,LearnStrategy,2023.2.3,Win32,59.52380952,8,1,7,0.10546875,-0.00390625,1,0,0,0.6659,rock_grid_rect_2,6,06,-1,-1,0.666,-0.115885417,-0.391927083,1,0,0,1.7696,Pegmatite_rect,6,1.77,1,6,0,6,0,1,,,,,,,,,,,,,
66114844b8efff4b2af276ec,TCN,2024-06-21_13h46.09.200,LearnStrategy,2023.2.3,Win32,59.52380952,8,1,8,0.1171875,0.002604167,1,0,0,0.7789,rock_grid_rect_2,1,06,-1,-1,0.779,-0.354166667,-0.252604167,1,0,0,3.3395,Andesite_rect,1,3.34,1,7,0,7,0,1,,,,,,,,,,,,,
66114844b8efff4b2af276ec,TCN,2024-06-21_13h46.09.200,LearnStrategy,2023.2.3,Win32,59.52380952,8,1,9,0.096354167,-0.00390625,1,0,0,0.7605,rock_grid_rect_2,6,05,-1,-1,0.761,-0.329427083,-0.4140625,1,0,0,1.1751,Obsidian_rect,5,1.175,0,8,0,8,0,1,,,,,,,,,,,,,
66114844b8efff4b2af276ec,TCN,2024-06-21_13h46.09.200,LearnStrategy,2023.2.3,Win32,59.52380952,8,1,10,0.106770833,0.006510417,1,0,0,0.7612,rock_grid_rect_2,3,16,-1,-1,0.761,-0.080729167,-0.389322917,1,0,0,1.9065,Pegmatite_rect,6,1.907,0,9,0,9,0,1,,,,,,,,,,,,,
66114844b8efff4b2af276ec,TCN,2024-06-21_13h46.09.200,LearnStrategy,2023.2.3,Win32,59.52380952,8,1,11,0.110677083,-0.010416667,1,0,0,0.8289,rock_grid_rect_2,5,06,-1,-1,0.829,-0.330729167,-0.419270833,1,0,0,1.0915,Obsidian_rect,5,1.091,1,10,0,10,0,1,,,,,,,,,,,,,
66114844b8efff4b2af276ec,TCN,2024-06-21_13h46.09.200,LearnStrategy,2023.2.3,Win32,59.52380952,8,1,12,0.118489583,0,1,0,0,0.8126,rock_grid_rect_2,7,13,-1,-1,0.813,0.123697917,-0.419270833,1,0,0,1.027,Peridotite_rect,7,1.027,1,11,0,11,0,1,,,,,,,,,,,,,
66114844b8efff4b2af276ec,TCN,2024-06-21_13h46.09.200,LearnStrategy,2023.2.3,Win32,59.52380952,8,1,13,0.095052083,0,1,0,0,0.7964,rock_grid_rect_2,2,06,-1,-1,0.796,-0.079427083,-0.244791667,1,0,0,0.9759,Basalt_rect,2,0.976,1,12,0,12,0,1,,,,,,,,,,,,,
66114844b8efff4b2af276ec,TCN,2024-06-21_13h46.09.200,LearnStrategy,2023.2.3,Win32,59.52380952,8,1,14,0.151041667,-0.002604167,1,0,0,0.8957,rock_grid_rect_2,8,03,-1,-1,0.896,0.325520833,-0.390625,1,0,0,1.0201,Pumice_rect,8,1.02,1,13,0,13,0,1,,,,,,,,,,,,,
66114844b8efff4b2af276ec,TCN,2024-06-21_13h46.09.200,LearnStrategy,2023.2.3,Win32,59.52380952,8,1,15,0.119791667,0.0078125,1,0,0,0.8629,rock_grid_rect_2,4,11,-1,-1,0.863,-0.102864583,-0.252604167,1,0,0,1.2913,Basalt_rect,2,1.291,0,14,0,14,0,1,,,,,,,,,,,,,
66114844b8efff4b2af276ec,TCN,2024-06-21_13h46.09.200,LearnStrategy,2023.2.3,Win32,59.52380952,8,1,16,0.072916667,-0.01171875,1,0,0,0.8611,rock_grid_rect_2,2,14,-1,-1,0.861,-0.092447917,-0.247395833,1,0,0,1.1098,Basalt_rect,2,1.11,1,15,0,15,0,1,,,,,,,,,,,,,
66114844b8efff4b2af276ec,TCN,2024-06-21_13h46.09.200,LearnStrategy,2023.2.3,Win32,59.52380952,8,2,1,,,,,,,,2,12,,,,,,,,,,,2,2.803,1,,,,,,-0.069010417,-0.240885417,1,0,0,2.803,Basalt_rect,0,0,0,0,1,
66114844b8efff4b2af276ec,TCN,2024-06-21_13h46.09.200,LearnStrategy,2023.2.3,Win32,59.52380952,8,2,2,,,,,,,,7,08,,,,,,,,,,,4,2.604,0,,,,,,0.389322917,-0.240885417,1,0,0,2.6035,Gabbro_rect,1,0,1,0,1,
66114844b8efff4b2af276ec,TCN,2024-06-21_13h46.09.200,LearnStrategy,2023.2.3,Win32,59.52380952,8,2,3,,,,,,,,2,02,,,,,,,,,,,2,1.164,1,,,,,,-0.102864583,-0.25390625,1,0,0,1.1636,Basalt_rect,2,0,2,0,1,
66114844b8efff4b2af276ec,TCN,2024-06-21_13h46.09.200,LearnStrategy,2023.2.3,Win32,59.52380952,8,2,4,,,,,,,,8,15,,,,,,,,,,,8,1.058,1,,,,,,0.354166667,-0.38671875,1,0,0,1.0575,Pumice_rect,3,0,3,0,1,
66114844b8efff4b2af276ec,TCN,2024-06-21_13h46.09.200,LearnStrategy,2023.2.3,Win32,59.52380952,8,2,5,,,,,,,,1,05,,,,,,,,,,,1,1.721,1,,,,,,-0.408854167,-0.2421875,1,0,0,1.7213,Andesite_rect,4,0,4,0,1,
66114844b8efff4b2af276ec,TCN,2024-06-21_13h46.09.200,LearnStrategy,2023.2.3,Win32,59.52380952,8,2,6,,,,,,,,5,11,,,,,,,,,,,5,1.088,1,,,,,,-0.384114583,-0.3984375,1,0,0,1.0884,Obsidian_rect,5,0,5,0,1,
66114844b8efff4b2af276ec,TCN,2024-06-21_13h46.09.200,LearnStrategy,2023.2.3,Win32,59.52380952,8,2,7,,,,,,,,4,12,,,,,,,,,,,4,2.758,1,,,,,,0.365885417,-0.240885417,1,0,0,2.7577,Gabbro_rect,6,0,6,0,1,
66114844b8efff4b2af276ec,TCN,2024-06-21_13h46.09.200,LearnStrategy,2023.2.3,Win32,59.52380952,8,2,8,,,,,,,,6,10,,,,,,,,,,,7,1.251,0,,,,,,0.127604167,-0.399739583,1,0,0,1.2506,Peridotite_rect,7,0,7,0,1,
66114844b8efff4b2af276ec,TCN,2024-06-21_13h46.09.200,LearnStrategy,2023.2.3,Win32,59.52380952,8,2,9,,,,,,,,7,02,,,,,,,,,,,4,3.688,0,,,,,,0.358072917,-0.244791667,1,0,0,3.6876,Gabbro_rect,8,0,8,0,1,
66114844b8efff4b2af276ec,TCN,2024-06-21_13h46.09.200,LearnStrategy,2023.2.3,Win32,59.52380952,8,2,10,,,,,,,,8,09,,,,,,,,,,,8,1.101,1,,,,,,0.34375,-0.40625,1,0,0,1.1015,Pumice_rect,9,0,9,0,1,
66114844b8efff4b2af276ec,TCN,2024-06-21_13h46.09.200,LearnStrategy,2023.2.3,Win32,59.52380952,8,2,11,,,,,,,,3,08,,,,,,,,,,,3,1.104,1,,,,,,0.158854167,-0.243489583,1,0,0,1.1042,Diorite_rect,10,0,10,0,1,
66114844b8efff4b2af276ec,TCN,2024-06-21_13h46.09.200,LearnStrategy,2023.2.3,Win32,59.52380952,8,2,12,,,,,,,,6,11,,,,,,,,,,,6,1.357,1,,,,,,-0.108072917,-0.416666667,1,0,0,1.3568,Pegmatite_rect,11,0,11,0,1,
66114844b8efff4b2af276ec,TCN,2024-06-21_13h46.09.200,LearnStrategy,2023.2.3,Win32,59.52380952,8,2,13,,,,,,,,3,02,,,,,,,,,,,3,4.186,1,,,,,,0.153645833,-0.248697917,1,0,0,4.1861,Diorite_rect,12,0,12,0,1,
66114844b8efff4b2af276ec,TCN,2024-06-21_13h46.09.200,LearnStrategy,2023.2.3,Win32,59.52380952,8,2,14,,,,,,,,4,14,,,,,,,,,,,2,1.09,0,,,,,,-0.11328125,-0.25390625,1,0,0,1.0902,Basalt_rect,13,0,13,0,1,
66114844b8efff4b2af276ec,TCN,2024-06-21_13h46.09.200,LearnStrategy,2023.2.3,Win32,59.52380952,8,2,15,,,,,,,,5,04,,,,,,,,,,,5,1.188,1,,,,,,-0.34375,-0.399739583,1,0,0,1.1882,Obsidian_rect,14,0,14,0,1,
66114844b8efff4b2af276ec,TCN,2024-06-21_13h46.09.200,LearnStrategy,2023.2.3,Win32,59.52380952,8,2,16,,,,,,,,1,02,,,,,,,,,,,6,2.287,0,,,,,,-0.134114583,-0.41015625,1,0,0,2.2872,Pegmatite_rect,15,0,15,0,1,
66114844b8efff4b2af276ec,TCN,2024-06-21_13h46.09.200,LearnStrategy,2023.2.3,Win32,59.52380952,9,1,1,0.157552083,0.010416667,1,0,0,1.0366,rock_grid_rect_2,4,09,-1,-1,1.037,0.369791667,-0.270833333,1,0,0,3.629,Gabbro_rect,4,3.629,1,0,0,0,0,1,,,,,,,,,,,,,
66114844b8efff4b2af276ec,TCN,2024-06-21_13h46.09.200,LearnStrategy,2023.2.3,Win32,59.52380952,9,1,2,0.1328125,0.0078125,1,0,0,0.9124,rock_grid_rect_2,1,10,-1,-1,0.912,-0.061197917,-0.236979167,1,0,0,1.2247,Basalt_rect,2,1.225,0,1,0,1,0,1,,,,,,,,,,,,,
66114844b8efff4b2af276ec,TCN,2024-06-21_13h46.09.200,LearnStrategy,2023.2.3,Win32,59.52380952,9,1,3,0.106770833,-0.009114583,1,0,0,0.9685,rock_grid_rect_2,3,15,-1,-1,0.969,0.12109375,-0.244791667,1,0,0,2.1918,Diorite_rect,3,2.192,1,2,0,2,0,1,,,,,,,,,,,,,
66114844b8efff4b2af276ec,TCN,2024-06-21_13h46.09.200,LearnStrategy,2023.2.3,Win32,59.52380952,9,1,4,0.1171875,-0.0078125,1,0,0,0.8755,rock_grid_rect_2,7,06,-1,-1,0.875,0.088541667,-0.37890625,1,0,0,1.6008,Peridotite_rect,7,1.601,1,3,0,3,0,1,,,,,,,,,,,,,
66114844b8efff4b2af276ec,TCN,2024-06-21_13h46.09.200,LearnStrategy,2023.2.3,Win32,59.52380952,9,1,5,0.088541667,-0.009114583,1,0,0,0.7175,rock_grid_rect_2,2,05,-1,-1,0.717,-0.06640625,-0.240885417,1,0,0,1.0265,Basalt_rect,2,1.027,1,4,0,4,0,1,,,,,,,,,,,,,
66114844b8efff4b2af276ec,TCN,2024-06-21_13h46.09.200,LearnStrategy,2023.2.3,Win32,59.52380952,9,1,6,0.104166667,0.018229167,1,0,0,0.818,rock_grid_rect_2,3,11,-1,-1,0.818,0.1328125,-0.248697917,1,0,0,2.184,Diorite_rect,3,2.184,1,5,0,5,0,1,,,,,,,,,,,,,
66114844b8efff4b2af276ec,TCN,2024-06-21_13h46.09.200,LearnStrategy,2023.2.3,Win32,59.52380952,9,1,7,0.114583333,-0.015625,1,0,0,0.7459,rock_grid_rect_2,2,08,-1,-1,0.746,-0.0703125,-0.2421875,1,0,0,0.9592,Basalt_rect,2,0.959,1,6,0,6,0,1,,,,,,,,,,,,,
66114844b8efff4b2af276ec,TCN,2024-06-21_13h46.09.200,LearnStrategy,2023.2.3,Win32,59.52380952,9,1,8,0.1328125,0.001302083,1,0,0,0.7799,rock_grid_rect_2,5,14,-1,-1,0.78,-0.330729167,-0.395833333,1,0,0,1.1257,Obsidian_rect,5,1.126,1,7,0,7,0,1,,,,,,,,,,,,,
66114844b8efff4b2af276ec,TCN,2024-06-21_13h46.09.200,LearnStrategy,2023.2.3,Win32,59.52380952,9,1,9,0.080729167,-0.013020833,1,0,0,0.8791,rock_grid_rect_2,1,09,-1,-1,0.879,-0.34765625,-0.259114583,1,0,0,2.8072,Andesite_rect,1,2.807,1,8,0,8,0,1,,,,,,,,,,,,,
66114844b8efff4b2af276ec,TCN,2024-06-21_13h46.09.200,LearnStrategy,2023.2.3,Win32,59.52380952,9,1,10,0.061197917,-0.010416667,1,0,0,0.9119,rock_grid_rect_2,7,12,-1,-1,0.912,0.1015625,-0.38671875,1,0,0,1.3096,Peridotite_rect,7,1.31,1,9,0,9,0,1,,,,,,,,,,,,,
66114844b8efff4b2af276ec,TCN,2024-06-21_13h46.09.200,LearnStrategy,2023.2.3,Win32,59.52380952,9,1,11,0.029947917,-0.005208333,1,0,0,0.7801,rock_grid_rect_2,5,16,-1,-1,0.78,-0.350260417,-0.389322917,1,0,0,1.0762,Obsidian_rect,5,1.076,1,10,0,10,0,1,,,,,,,,,,,,,
66114844b8efff4b2af276ec,TCN,2024-06-21_13h46.09.200,LearnStrategy,2023.2.3,Win32,59.52380952,9,1,12,0.11328125,-0.009114583,1,0,0,0.7302,rock_grid_rect_2,6,16,-1,-1,0.73,-0.348958333,-0.244791667,1,0,0,6.8939,Andesite_rect,1,6.894,0,11,0,11,0,1,,,,,,,,,,,,,
66114844b8efff4b2af276ec,TCN,2024-06-21_13h46.09.200,LearnStrategy,2023.2.3,Win32,59.52380952,9,1,13,0.05078125,0.006510417,1,0,0,0.8309,rock_grid_rect_2,6,09,-1,-1,0.831,-0.111979167,-0.407552083,1,0,0,1.4979,Pegmatite_rect,6,1.498,1,12,0,12,0,1,,,,,,,,,,,,,
66114844b8efff4b2af276ec,TCN,2024-06-21_13h46.09.200,LearnStrategy,2023.2.3,Win32,59.52380952,9,1,14,0.076822917,0.010416667,1,0,0,1.1,rock_grid_rect_2,8,14,-1,-1,1.1,0.401041667,-0.391927083,1,0,0,1.772,Pumice_rect,8,1.772,1,13,0,13,0,1,,,,,,,,,,,,,
66114844b8efff4b2af276ec,TCN,2024-06-21_13h46.09.200,LearnStrategy,2023.2.3,Win32,59.52380952,9,1,15,0.095052083,-0.002604167,1,0,0,0.8968,rock_grid_rect_2,8,02,-1,-1,0.897,0.358072917,-0.389322917,1,0,0,1.1401,Pumice_rect,8,1.14,1,14,0,14,0,1,,,,,,,,,,,,,
66114844b8efff4b2af276ec,TCN,2024-06-21_13h46.09.200,LearnStrategy,2023.2.3,Win32,59.52380952,9,1,16,0.059895833,-0.005208333,1,0,0,0.8451,rock_grid_rect_2,4,15,-1,-1,0.845,-0.384114583,-0.23046875,1,0,0,4.5135,Andesite_rect,1,4.514,0,15,0,15,0,1,,,,,,,,,,,,,
66114844b8efff4b2af276ec,TCN,2024-06-21_13h46.09.200,LearnStrategy,2023.2.3,Win32,59.52380952,9,2,1,,,,,,,,6,13,,,,,,,,,,,6,1.943,1,,,,,,-0.106770833,-0.399739583,1,0,0,1.943,Pegmatite_rect,0,0,0,0,1,
66114844b8efff4b2af276ec,TCN,2024-06-21_13h46.09.200,LearnStrategy,2023.2.3,Win32,59.52380952,9,2,2,,,,,,,,4,10,,,,,,,,,,,4,1.916,1,,,,,,0.375,-0.251302083,1,0,0,1.9164,Gabbro_rect,1,0,1,0,1,
66114844b8efff4b2af276ec,TCN,2024-06-21_13h46.09.200,LearnStrategy,2023.2.3,Win32,59.52380952,9,2,3,,,,,,,,1,14,,,,,,,,,,,6,2.487,0,,,,,,-0.119791667,-0.393229167,1,0,0,2.4874,Pegmatite_rect,2,0,2,0,1,
66114844b8efff4b2af276ec,TCN,2024-06-21_13h46.09.200,LearnStrategy,2023.2.3,Win32,59.52380952,9,2,4,,,,,,,,3,10,,,,,,,,,,,3,1.393,1,,,,,,0.15625,-0.247395833,1,0,0,1.3928,Diorite_rect,3,0,3,0,1,
66114844b8efff4b2af276ec,TCN,2024-06-21_13h46.09.200,LearnStrategy,2023.2.3,Win32,59.52380952,9,2,5,,,,,,,,5,09,,,,,,,,,,,5,1.058,1,,,,,,-0.34765625,-0.3984375,1,0,0,1.0579,Obsidian_rect,4,0,4,0,1,
66114844b8efff4b2af276ec,TCN,2024-06-21_13h46.09.200,LearnStrategy,2023.2.3,Win32,59.52380952,9,2,6,,,,,,,,3,13,,,,,,,,,,,3,4.549,1,,,,,,0.067708333,-0.24609375,1,0,0,4.5493,Diorite_rect,5,0,5,0,1,
66114844b8efff4b2af276ec,TCN,2024-06-21_13h46.09.200,LearnStrategy,2023.2.3,Win32,59.52380952,9,2,7,,,,,,,,7,16,,,,,,,,,,,4,2.623,0,,,,,,0.350260417,-0.233072917,1,0,0,2.6234,Gabbro_rect,6,0,6,0,1,
66114844b8efff4b2af276ec,TCN,2024-06-21_13h46.09.200,LearnStrategy,2023.2.3,Win32,59.52380952,9,2,8,,,,,,,,7,14,,,,,,,,,,,7,8.056,1,,,,,,0.095052083,-0.399739583,1,0,0,8.056,Peridotite_rect,7,0,7,0,1,
66114844b8efff4b2af276ec,TCN,2024-06-21_13h46.09.200,LearnStrategy,2023.2.3,Win32,59.52380952,9,2,9,,,,,,,,5,08,,,,,,,,,,,5,1.196,1,,,,,,-0.432291667,-0.389322917,1,0,0,1.1962,Obsidian_rect,8,0,8,0,1,
66114844b8efff4b2af276ec,TCN,2024-06-21_13h46.09.200,LearnStrategy,2023.2.3,Win32,59.52380952,9,2,10,,,,,,,,8,05,,,,,,,,,,,8,1.041,1,,,,,,0.416666667,-0.395833333,1,0,0,1.0408,Pumice_rect,9,0,9,0,1,
66114844b8efff4b2af276ec,TCN,2024-06-21_13h46.09.200,LearnStrategy,2023.2.3,Win32,59.52380952,9,2,11,,,,,,,,1,01,,,,,,,,,,,4,2.584,0,,,,,,0.416666667,-0.256510417,1,0,0,2.5839,Gabbro_rect,10,0,10,0,1,
66114844b8efff4b2af276ec,TCN,2024-06-21_13h46.09.200,LearnStrategy,2023.2.3,Win32,59.52380952,9,2,12,,,,,,,,2,01,,,,,,,,,,,2,1.181,1,,,,,,-0.078125,-0.2421875,1,0,0,1.1813,Basalt_rect,11,0,11,0,1,
66114844b8efff4b2af276ec,TCN,2024-06-21_13h46.09.200,LearnStrategy,2023.2.3,Win32,59.52380952,9,2,13,,,,,,,,4,16,,,,,,,,,,,4,1.604,1,,,,,,0.342447917,-0.240885417,1,0,0,1.6038,Gabbro_rect,12,0,12,0,1,
66114844b8efff4b2af276ec,TCN,2024-06-21_13h46.09.200,LearnStrategy,2023.2.3,Win32,59.52380952,9,2,14,,,,,,,,8,08,,,,,,,,,,,8,1.176,1,,,,,,0.3515625,-0.39453125,1,0,0,1.1756,Pumice_rect,13,0,13,0,1,
66114844b8efff4b2af276ec,TCN,2024-06-21_13h46.09.200,LearnStrategy,2023.2.3,Win32,59.52380952,9,2,15,,,,,,,,6,08,,,,,,,,,,,6,2.539,1,,,,,,-0.076822917,-0.390625,1,0,0,2.539,Pegmatite_rect,14,0,14,0,1,
66114844b8efff4b2af276ec,TCN,2024-06-21_13h46.09.200,LearnStrategy,2023.2.3,Win32,59.52380952,9,2,16,,,,,,,,2,16,,,,,,,,,,,4,3.254,0,,,,,,0.358072917,-0.260416667,1,0,0,3.2539,Gabbro_rect,15,0,15,0,1,
66114844b8efff4b2af276ec,TCN,2024-06-21_13h46.09.200,LearnStrategy,2023.2.3,Win32,59.52380952,,,,,,,,,,,,,,,,,,,,,,,,,,,,,,,,,,,,,,,,,,,1
66114844b8efff4b2af276ec,TCN,2024-06-21_13h46.09.200,LearnStrategy,2023.2.3,Win32,59.52380952,,,,,,,,,,,,,,,,,,,,,,,,,,,,,,,,,,,,,,,,,,,
66114844b8efff4b2af276ec,TCN,2024-06-21_13h46.09.200,LearnStrategy,2023.2.3,Win32,59.52380952,,,,,,,,,,,7,12,1,1,,,,,,,,,,,,,,,,,,,,,,,,,,,,,
66114844b8efff4b2af276ec,TCN,2024-06-21_13h46.09.200,LearnStrategy,2023.2.3,Win32,59.52380952,,,,,,,,,,,5,12,1,2,,,,,,,,,,,,,,,,,,,,,,,,,,,,,
66114844b8efff4b2af276ec,TCN,2024-06-21_13h46.09.200,LearnStrategy,2023.2.3,Win32,59.52380952,,,,,,,,,,,6,05,1,3,,,,,,,,,,,,,,,,,,,,,,,,,,,,,
66114844b8efff4b2af276ec,TCN,2024-06-21_13h46.09.200,LearnStrategy,2023.2.3,Win32,59.52380952,,,,,,,,,,,2,09,1,4,,,,,,,,,,,,,,,,,,,,,,,,,,,,,
66114844b8efff4b2af276ec,TCN,2024-06-21_13h46.09.200,LearnStrategy,2023.2.3,Win32,59.52380952,,,,,,,,,,,1,09,1,5,,,,,,,,,,,,,,,,,,,,,,,,,,,,,
66114844b8efff4b2af276ec,TCN,2024-06-21_13h46.09.200,LearnStrategy,2023.2.3,Win32,59.52380952,,,,,,,,,,,5,07,1,6,,,,,,,,,,,,,,,,,,,,,,,,,,,,,
66114844b8efff4b2af276ec,TCN,2024-06-21_13h46.09.200,LearnStrategy,2023.2.3,Win32,59.52380952,,,,,,,,,,,3,12,1,7,,,,,,,,,,,,,,,,,,,,,,,,,,,,,
66114844b8efff4b2af276ec,TCN,2024-06-21_13h46.09.200,LearnStrategy,2023.2.3,Win32,59.52380952,,,,,,,,,,,1,04,1,8,,,,,,,,,,,,,,,,,,,,,,,,,,,,,
66114844b8efff4b2af276ec,TCN,2024-06-21_13h46.09.200,LearnStrategy,2023.2.3,Win32,59.52380952,,,,,,,,,,,1,06,2,1,,,,,,,,,,,,,,,,,,,,,,,,,,,,,
66114844b8efff4b2af276ec,TCN,2024-06-21_13h46.09.200,LearnStrategy,2023.2.3,Win32,59.52380952,,,,,,,,,,,5,10,2,2,,,,,,,,,,,,,,,,,,,,,,,,,,,,,
66114844b8efff4b2af276ec,TCN,2024-06-21_13h46.09.200,LearnStrategy,2023.2.3,Win32,59.52380952,,,,,,,,,,,7,10,2,3,,,,,,,,,,,,,,,,,,,,,,,,,,,,,
66114844b8efff4b2af276ec,TCN,2024-06-21_13h46.09.200,LearnStrategy,2023.2.3,Win32,59.52380952,,,,,,,,,,,2,10,2,4,,,,,,,,,,,,,,,,,,,,,,,,,,,,,
66114844b8efff4b2af276ec,TCN,2024-06-21_13h46.09.200,LearnStrategy,2023.2.3,Win32,59.52380952,,,,,,,,,,,3,15,2,5,,,,,,,,,,,,,,,,,,,,,,,,,,,,,
66114844b8efff4b2af276ec,TCN,2024-06-21_13h46.09.200,LearnStrategy,2023.2.3,Win32,59.52380952,,,,,,,,,,,1,16,2,6,,,,,,,,,,,,,,,,,,,,,,,,,,,,,
66114844b8efff4b2af276ec,TCN,2024-06-21_13h46.09.200,LearnStrategy,2023.2.3,Win32,59.52380952,,,,,,,,,,,3,14,2,7,,,,,,,,,,,,,,,,,,,,,,,,,,,,,
66114844b8efff4b2af276ec,TCN,2024-06-21_13h46.09.200,LearnStrategy,2023.2.3,Win32,59.52380952,,,,,,,,,,,5,06,2,8,,,,,,,,,,,,,,,,,,,,,,,,,,,,,
66114844b8efff4b2af276ec,TCN,2024-06-21_13h46.09.200,LearnStrategy,2023.2.3,Win32,59.52380952,,,,,,,,,,,8,03,3,1,,,,,,,,,,,,,,,,,,,,,,,,,,,,,
66114844b8efff4b2af276ec,TCN,2024-06-21_13h46.09.200,LearnStrategy,2023.2.3,Win32,59.52380952,,,,,,,,,,,7,06,3,2,,,,,,,,,,,,,,,,,,,,,,,,,,,,,
66114844b8efff4b2af276ec,TCN,2024-06-21_13h46.09.200,LearnStrategy,2023.2.3,Win32,59.52380952,,,,,,,,,,,2,14,3,3,,,,,,,,,,,,,,,,,,,,,,,,,,,,,
66114844b8efff4b2af276ec,TCN,2024-06-21_13h46.09.200,LearnStrategy,2023.2.3,Win32,59.52380952,,,,,,,,,,,2,05,3,4,,,,,,,,,,,,,,,,,,,,,,,,,,,,,
66114844b8efff4b2af276ec,TCN,2024-06-21_13h46.09.200,LearnStrategy,2023.2.3,Win32,59.52380952,,,,,,,,,,,8,14,3,5,,,,,,,,,,,,,,,,,,,,,,,,,,,,,
66114844b8efff4b2af276ec,TCN,2024-06-21_13h46.09.200,LearnStrategy,2023.2.3,Win32,59.52380952,,,,,,,,,,,4,15,3,6,,,,,,,,,,,,,,,,,,,,,,,,,,,,,
66114844b8efff4b2af276ec,TCN,2024-06-21_13h46.09.200,LearnStrategy,2023.2.3,Win32,59.52380952,,,,,,,,,,,2,06,3,7,,,,,,,,,,,,,,,,,,,,,,,,,,,,,
66114844b8efff4b2af276ec,TCN,2024-06-21_13h46.09.200,LearnStrategy,2023.2.3,Win32,59.52380952,,,,,,,,,,,6,06,3,8,,,,,,,,,,,,,,,,,,,,,,,,,,,,,
66114844b8efff4b2af276ec,TCN,2024-06-21_13h46.09.200,LearnStrategy,2023.2.3,Win32,59.52380952,,,,,,,,,,,4,09,4,1,,,,,,,,,,,,,,,,,,,,,,,,,,,,,
66114844b8efff4b2af276ec,TCN,2024-06-21_13h46.09.200,LearnStrategy,2023.2.3,Win32,59.52380952,,,,,,,,,,,4,08,4,2,,,,,,,,,,,,,,,,,,,,,,,,,,,,,
66114844b8efff4b2af276ec,TCN,2024-06-21_13h46.09.200,LearnStrategy,2023.2.3,Win32,59.52380952,,,,,,,,,,,6,09,4,3,,,,,,,,,,,,,,,,,,,,,,,,,,,,,
66114844b8efff4b2af276ec,TCN,2024-06-21_13h46.09.200,LearnStrategy,2023.2.3,Win32,59.52380952,,,,,,,,,,,4,03,4,4,,,,,,,,,,,,,,,,,,,,,,,,,,,,,
66114844b8efff4b2af276ec,TCN,2024-06-21_13h46.09.200,LearnStrategy,2023.2.3,Win32,59.52380952,,,,,,,,,,,4,11,4,5,,,,,,,,,,,,,,,,,,,,,,,,,,,,,
66114844b8efff4b2af276ec,TCN,2024-06-21_13h46.09.200,LearnStrategy,2023.2.3,Win32,59.52380952,,,,,,,,,,,1,10,4,6,,,,,,,,,,,,,,,,,,,,,,,,,,,,,
66114844b8efff4b2af276ec,TCN,2024-06-21_13h46.09.200,LearnStrategy,2023.2.3,Win32,59.52380952,,,,,,,,,,,2,08,4,7,,,,,,,,,,,,,,,,,,,,,,,,,,,,,
66114844b8efff4b2af276ec,TCN,2024-06-21_13h46.09.200,LearnStrategy,2023.2.3,Win32,59.52380952,,,,,,,,,,,7,13,4,8,,,,,,,,,,,,,,,,,,,,,,,,,,,,,
66114844b8efff4b2af276ec,TCN,2024-06-21_13h46.09.200,LearnStrategy,2023.2.3,Win32,59.52380952,,,,,,,,,,,4,05,5,1,,,,,,,,,,,,,,,,,,,,,,,,,,,,,
66114844b8efff4b2af276ec,TCN,2024-06-21_13h46.09.200,LearnStrategy,2023.2.3,Win32,59.52380952,,,,,,,,,,,5,14,5,2,,,,,,,,,,,,,,,,,,,,,,,,,,,,,
66114844b8efff4b2af276ec,TCN,2024-06-21_13h46.09.200,LearnStrategy,2023.2.3,Win32,59.52380952,,,,,,,,,,,6,16,5,3,,,,,,,,,,,,,,,,,,,,,,,,,,,,,
66114844b8efff4b2af276ec,TCN,2024-06-21_13h46.09.200,LearnStrategy,2023.2.3,Win32,59.52380952,,,,,,,,,,,3,07,5,4,,,,,,,,,,,,,,,,,,,,,,,,,,,,,
66114844b8efff4b2af276ec,TCN,2024-06-21_13h46.09.200,LearnStrategy,2023.2.3,Win32,59.52380952,,,,,,,,,,,5,16,5,5,,,,,,,,,,,,,,,,,,,,,,,,,,,,,
66114844b8efff4b2af276ec,TCN,2024-06-21_13h46.09.200,LearnStrategy,2023.2.3,Win32,59.52380952,,,,,,,,,,,3,16,5,6,,,,,,,,,,,,,,,,,,,,,,,,,,,,,
66114844b8efff4b2af276ec,TCN,2024-06-21_13h46.09.200,LearnStrategy,2023.2.3,Win32,59.52380952,,,,,,,,,,,8,10,5,7,,,,,,,,,,,,,,,,,,,,,,,,,,,,,
66114844b8efff4b2af276ec,TCN,2024-06-21_13h46.09.200,LearnStrategy,2023.2.3,Win32,59.52380952,,,,,,,,,,,6,12,5,8,,,,,,,,,,,,,,,,,,,,,,,,,,,,,
66114844b8efff4b2af276ec,TCN,2024-06-21_13h46.09.200,LearnStrategy,2023.2.3,Win32,59.52380952,,,,,,,,,,,3,11,6,1,,,,,,,,,,,,,,,,,,,,,,,,,,,,,
66114844b8efff4b2af276ec,TCN,2024-06-21_13h46.09.200,LearnStrategy,2023.2.3,Win32,59.52380952,,,,,,,,,,,8,16,6,2,,,,,,,,,,,,,,,,,,,,,,,,,,,,,
66114844b8efff4b2af276ec,TCN,2024-06-21_13h46.09.200,LearnStrategy,2023.2.3,Win32,59.52380952,,,,,,,,,,,7,04,6,3,,,,,,,,,,,,,,,,,,,,,,,,,,,,,
66114844b8efff4b2af276ec,TCN,2024-06-21_13h46.09.200,LearnStrategy,2023.2.3,Win32,59.52380952,,,,,,,,,,,8,02,6,4,,,,,,,,,,,,,,,,,,,,,,,,,,,,,
66114844b8efff4b2af276ec,TCN,2024-06-21_13h46.09.200,LearnStrategy,2023.2.3,Win32,59.52380952,,,,,,,,,,,6,07,6,5,,,,,,,,,,,,,,,,,,,,,,,,,,,,,
66114844b8efff4b2af276ec,TCN,2024-06-21_13h46.09.200,LearnStrategy,2023.2.3,Win32,59.52380952,,,,,,,,,,,8,04,6,6,,,,,,,,,,,,,,,,,,,,,,,,,,,,,
66114844b8efff4b2af276ec,TCN,2024-06-21_13h46.09.200,LearnStrategy,2023.2.3,Win32,59.52380952,,,,,,,,,,,7,15,6,7,,,,,,,,,,,,,,,,,,,,,,,,,,,,,
66114844b8efff4b2af276ec,TCN,2024-06-21_13h46.09.200,LearnStrategy,2023.2.3,Win32,59.52380952,,,,,,,,,,,1,11,6,8,,,,,,,,,,,,,,,,,,,,,,,,,,,,,