participant,condition,date,expName,psychopyVersion,OS,frameRate,block,phase,trial,learn_mouse.x,learn_mouse.y,learn_mouse.leftButton,learn_mouse.midButton,learn_mouse.rightButton,learn_mouse.time,learn_mouse.clicked_name,cat,token,row,col,t_select,cat_mouse_l.x,cat_mouse_l.y,cat_mouse_l.leftButton,cat_mouse_l.midButton,cat_mouse_l.rightButton,cat_mouse_l.time,cat_mouse_l.clicked_name,resp,t_resp,corr,train_trials.thisRepN,train_trials.thisTrialN,train_trials.thisN,train_trials.thisIndex,train_trials.ran,cat_mouse_t.x,cat_mouse_t.y,cat_mouse_t.leftButton,cat_mouse_t.midButton,cat_mouse_t.rightButton,cat_mouse_t.time,cat_mouse_t.clicked_name,test_trials.thisRepN,test_trials.thisTrialN,test_trials.thisN,test_trials.thisIndex,test_trials.ran,Bonus
66130b23ee407564e718fcfd,SCN,2024-06-12_10h38.13.721,LearnStrategy,2023.2.3,MacIntel,66.66666667,,,,,,,,,,,,,,,,,,,,,,,,,,,,,,,,,,,,,,,,,,,
66130b23ee407564e718fcfd,SCN,2024-06-12_10h38.13.721,LearnStrategy,2023.2.3,MacIntel,66.66666667,1,1,1,0.381111111,0.088888889,1,0,0,4.977,Peridotite_13,7,13,4,7,4.977,-0.332222222,-0.238888889,1,0,0,7.104,Andesite_rect,1,7.104,0,0,0,0,0,1,,,,,,,,,,,,,
66130b23ee407564e718fcfd,SCN,2024-06-12_10h38.13.721,LearnStrategy,2023.2.3,MacIntel,66.66666667,1,1,2,0.236666667,-0.08,1,0,0,3.564,Obsidian_07,5,07,3,6,3.564,-0.372222222,-0.398888889,1,0,0,9.371,Obsidian_rect,5,9.371,1,1,0,1,0,1,,,,,,,,,,,,,
66130b23ee407564e718fcfd,SCN,2024-06-12_10h38.13.721,LearnStrategy,2023.2.3,MacIntel,66.66666667,1,1,3,0.552222222,0.403333333,1,0,0,1.866,Obsidian_02,5,02,6,8,1.866,-0.09,-0.404444444,1,0,0,4.869,Pegmatite_rect,6,4.869,0,2,0,2,0,1,,,,,,,,,,,,,
66130b23ee407564e718fcfd,SCN,2024-06-12_10h38.13.721,LearnStrategy,2023.2.3,MacIntel,66.66666667,1,1,4,-0.228888889,0.094444444,1,0,0,1.782,Pegmatite_16,6,16,4,3,1.782,-0.053333333,-0.261111111,1,0,0,7.245,Basalt_rect,2,7.245,0,3,0,3,0,1,,,,,,,,,,,,,
66130b23ee407564e718fcfd,SCN,2024-06-12_10h38.13.721,LearnStrategy,2023.2.3,MacIntel,66.66666667,1,1,5,-0.067777778,0.12,1,0,0,1.548,Obsidian_05,5,05,4,4,1.548,-0.35,-0.401111111,1,0,0,3.74,Obsidian_rect,5,3.74,1,4,0,4,0,1,,,,,,,,,,,,,
66130b23ee407564e718fcfd,SCN,2024-06-12_10h38.13.721,LearnStrategy,2023.2.3,MacIntel,66.66666667,1,1,6,-0.526666667,0.25,1,0,0,2.049,Pegmatite_13,6,13,5,1,2.049,0.106666667,-0.267777778,1,0,0,3.839,Diorite_rect,3,3.839,0,5,0,5,0,1,,,,,,,,,,,,,
66130b23ee407564e718fcfd,SCN,2024-06-12_10h38.13.721,LearnStrategy,2023.2.3,MacIntel,66.66666667,1,1,7,-0.556666667,-0.404444444,1,0,0,3.648,Diorite_13,3,13,1,1,3.648,-0.35,-0.248888889,1,0,0,3.678,Andesite_rect,1,3.678,0,6,0,6,0,1,,,,,,,,,,,,,
66130b23ee407564e718fcfd,SCN,2024-06-12_10h38.13.721,LearnStrategy,2023.2.3,MacIntel,66.66666667,1,1,8,0.095555556,-0.423333333,1,0,0,4.283,Pegmatite_15,6,15,1,5,4.283,0.093333333,-0.397777778,1,0,0,3.678,Peridotite_rect,7,3.678,0,7,0,7,0,1,,,,,,,,,,,,,
66130b23ee407564e718fcfd,SCN,2024-06-12_10h38.13.721,LearnStrategy,2023.2.3,MacIntel,66.66666667,1,1,9,-0.102222222,0.4,1,0,0,2.849,Gabbro_09,4,09,6,4,2.849,0.391111111,-0.41,1,0,0,2.681,Pumice_rect,8,2.681,0,8,0,8,0,1,,,,,,,,,,,,,
66130b23ee407564e718fcfd,SCN,2024-06-12_10h38.13.721,LearnStrategy,2023.2.3,MacIntel,66.66666667,1,1,10,-0.414444444,-0.091111111,1,0,0,3.882,Gabbro_12,4,12,3,2,3.882,-0.122222222,-0.407777778,1,0,0,3.793,Pegmatite_rect,6,3.793,0,9,0,9,0,1,,,,,,,,,,,,,
66130b23ee407564e718fcfd,SCN,2024-06-12_10h38.13.721,LearnStrategy,2023.2.3,MacIntel,66.66666667,1,1,11,0.552222222,0.084444444,1,0,0,2.116,Peridotite_14,7,14,4,8,2.116,0.18,-0.405555556,1,0,0,3.562,Peridotite_rect,7,3.562,1,10,0,10,0,1,,,,,,,,,,,,,
66130b23ee407564e718fcfd,SCN,2024-06-12_10h38.13.721,LearnStrategy,2023.2.3,MacIntel,66.66666667,1,1,12,0.081111111,0.222222222,1,0,0,1.916,Gabbro_10,4,10,5,5,1.916,0.432222222,-0.407777778,1,0,0,2.354,Pumice_rect,8,2.354,0,11,0,11,0,1,,,,,,,,,,,,,
66130b23ee407564e718fcfd,SCN,2024-06-12_10h38.13.721,LearnStrategy,2023.2.3,MacIntel,66.66666667,1,1,13,-0.242222222,0.217777778,1,0,0,1.865,Peridotite_04,7,04,5,3,1.865,-0.378888889,-0.261111111,1,0,0,4.79,Andesite_rect,1,4.79,0,12,0,12,0,1,,,,,,,,,,,,,
66130b23ee407564e718fcfd,SCN,2024-06-12_10h38.13.721,LearnStrategy,2023.2.3,MacIntel,66.66666667,1,1,14,0.414444444,-0.087777778,1,0,0,3.833,Basalt_14,2,14,3,7,3.833,0.378888889,-0.402222222,1,0,0,2.683,Pumice_rect,8,2.683,0,13,0,13,0,1,,,,,,,,,,,,,
66130b23ee407564e718fcfd,SCN,2024-06-12_10h38.13.721,LearnStrategy,2023.2.3,MacIntel,66.66666667,1,1,15,0.543333333,0.233333333,1,0,0,2.197,Diorite_10,3,10,5,8,2.197,0.083333333,-0.251111111,1,0,0,4.332,Diorite_rect,3,4.332,1,14,0,14,0,1,,,,,,,,,,,,,
66130b23ee407564e718fcfd,SCN,2024-06-12_10h38.13.721,LearnStrategy,2023.2.3,MacIntel,66.66666667,1,1,16,-0.371111111,0.387777778,1,0,0,6.231,Andesite_01,1,01,6,2,6.231,0.435555556,-0.412222222,1,0,0,3.367,Pumice_rect,8,3.367,0,15,0,15,0,1,,,,,,,,,,,,,
66130b23ee407564e718fcfd,SCN,2024-06-12_10h38.13.721,LearnStrategy,2023.2.3,MacIntel,66.66666667,1,2,1,,,,,,,,4,16,,,,,,,,,,,4,50.646,1,,,,,,0.45,-0.238888889,1,0,0,50.646,Gabbro_rect,0,0,0,0,1,
66130b23ee407564e718fcfd,SCN,2024-06-12_10h38.13.721,LearnStrategy,2023.2.3,MacIntel,66.66666667,1,2,2,,,,,,,,8,16,,,,,,,,,,,2,13.118,0,,,,,,-0.082222222,-0.238888889,1,0,0,13.118,Basalt_rect,1,0,1,0,1,
66130b23ee407564e718fcfd,SCN,2024-06-12_10h38.13.721,LearnStrategy,2023.2.3,MacIntel,66.66666667,1,2,3,,,,,,,,8,13,,,,,,,,,,,8,21.098,1,,,,,,0.377777778,-0.398888889,1,0,0,21.098,Pumice_rect,2,0,2,0,1,
66130b23ee407564e718fcfd,SCN,2024-06-12_10h38.13.721,LearnStrategy,2023.2.3,MacIntel,66.66666667,1,2,4,,,,,,,,7,10,,,,,,,,,,,6,27.313,0,,,,,,-0.046666667,-0.381111111,1,0,0,27.313,Pegmatite_rect,3,0,3,0,1,
66130b23ee407564e718fcfd,SCN,2024-06-12_10h38.13.721,LearnStrategy,2023.2.3,MacIntel,66.66666667,1,2,5,,,,,,,,3,02,,,,,,,,,,,1,18.427,0,,,,,,-0.334444444,-0.258888889,1,0,0,18.427,Andesite_rect,4,0,4,0,1,
66130b23ee407564e718fcfd,SCN,2024-06-12_10h38.13.721,LearnStrategy,2023.2.3,MacIntel,66.66666667,1,2,6,,,,,,,,3,14,,,,,,,,,,,4,34.557,0,,,,,,0.371111111,-0.268888889,1,0,0,34.557,Gabbro_rect,5,0,5,0,1,
66130b23ee407564e718fcfd,SCN,2024-06-12_10h38.13.721,LearnStrategy,2023.2.3,MacIntel,66.66666667,1,2,7,,,,,,,,5,10,,,,,,,,,,,5,2.786,1,,,,,,-0.393333333,-0.416666667,1,0,0,2.786,Obsidian_rect,6,0,6,0,1,
66130b23ee407564e718fcfd,SCN,2024-06-12_10h38.13.721,LearnStrategy,2023.2.3,MacIntel,66.66666667,1,2,8,,,,,,,,2,16,,,,,,,,,,,4,17.519,0,,,,,,0.438888889,-0.24,1,0,0,17.519,Gabbro_rect,7,0,7,0,1,
66130b23ee407564e718fcfd,SCN,2024-06-12_10h38.13.721,LearnStrategy,2023.2.3,MacIntel,66.66666667,1,2,9,,,,,,,,1,09,,,,,,,,,,,7,18.111,0,,,,,,0.15,-0.39,1,0,0,18.111,Peridotite_rect,8,0,8,0,1,
66130b23ee407564e718fcfd,SCN,2024-06-12_10h38.13.721,LearnStrategy,2023.2.3,MacIntel,66.66666667,1,2,10,,,,,,,,1,11,,,,,,,,,,,4,17.513,0,,,,,,0.375555556,-0.247777778,1,0,0,17.513,Gabbro_rect,9,0,9,0,1,
66130b23ee407564e718fcfd,SCN,2024-06-12_10h38.13.721,LearnStrategy,2023.2.3,MacIntel,66.66666667,1,2,11,,,,,,,,7,06,,,,,,,,,,,3,16.03,0,,,,,,0.153333333,-0.258888889,1,0,0,16.03,Diorite_rect,10,0,10,0,1,
66130b23ee407564e718fcfd,SCN,2024-06-12_10h38.13.721,LearnStrategy,2023.2.3,MacIntel,66.66666667,1,2,12,,,,,,,,6,06,,,,,,,,,,,7,10.109,0,,,,,,0.081111111,-0.385555556,1,0,0,10.109,Peridotite_rect,11,0,11,0,1,
66130b23ee407564e718fcfd,SCN,2024-06-12_10h38.13.721,LearnStrategy,2023.2.3,MacIntel,66.66666667,1,2,13,,,,,,,,6,07,,,,,,,,,,,6,8.241,1,,,,,,-0.153333333,-0.41,1,0,0,8.241,Pegmatite_rect,12,0,12,0,1,
66130b23ee407564e718fcfd,SCN,2024-06-12_10h38.13.721,LearnStrategy,2023.2.3,MacIntel,66.66666667,1,2,14,,,,,,,,4,14,,,,,,,,,,,7,17.416,0,,,,,,0.132222222,-0.391111111,1,0,0,17.416,Peridotite_rect,13,0,13,0,1,
66130b23ee407564e718fcfd,SCN,2024-06-12_10h38.13.721,LearnStrategy,2023.2.3,MacIntel,66.66666667,1,2,15,,,,,,,,2,08,,,,,,,,,,,4,14.098,0,,,,,,0.43,-0.26,1,0,0,14.098,Gabbro_rect,14,0,14,0,1,
66130b23ee407564e718fcfd,SCN,2024-06-12_10h38.13.721,LearnStrategy,2023.2.3,MacIntel,66.66666667,1,2,16,,,,,,,,5,06,,,,,,,,,,,5,3.498,1,,,,,,-0.416666667,-0.4,1,0,0,3.498,Obsidian_rect,15,0,15,0,1,
66130b23ee407564e718fcfd,SCN,2024-06-12_10h38.13.721,LearnStrategy,2023.2.3,MacIntel,66.66666667,2,1,1,-0.531111111,-0.218888889,1,0,0,4.083,Pumice_14,8,14,2,1,4.083,0.417777778,-0.415555556,1,0,0,4.61,Pumice_rect,8,4.61,1,0,0,0,0,1,,,,,,,,,,,,,
66130b23ee407564e718fcfd,SCN,2024-06-12_10h38.13.721,LearnStrategy,2023.2.3,MacIntel,66.66666667,2,1,2,-0.538888889,-0.403333333,1,0,0,2.348,Diorite_13,3,13,1,1,2.348,0.131111111,-0.39,1,0,0,11.285,Peridotite_rect,7,11.285,0,1,0,1,0,1,,,,,,,,,,,,,
66130b23ee407564e718fcfd,SCN,2024-06-12_10h38.13.721,LearnStrategy,2023.2.3,MacIntel,66.66666667,2,1,3,-0.586666667,0.384444444,1,0,0,2.281,Andesite_14,1,14,6,1,2.281,0.141111111,-0.251111111,1,0,0,4.328,Diorite_rect,3,4.328,0,2,0,2,0,1,,,,,,,,,,,,,
66130b23ee407564e718fcfd,SCN,2024-06-12_10h38.13.721,LearnStrategy,2023.2.3,MacIntel,66.66666667,2,1,4,0.095555556,0.394444444,1,0,0,3.015,Basalt_06,2,06,6,5,3.015,0.376666667,-0.231111111,1,0,0,6.634,Gabbro_rect,4,6.634,0,3,0,3,0,1,,,,,,,,,,,,,
66130b23ee407564e718fcfd,SCN,2024-06-12_10h38.13.721,LearnStrategy,2023.2.3,MacIntel,66.66666667,2,1,5,0.39,0.407777778,1,0,0,2.814,Gabbro_15,4,15,6,7,2.814,-0.09,-0.244444444,1,0,0,4.226,Basalt_rect,2,4.226,0,4,0,4,0,1,,,,,,,,,,,,,
66130b23ee407564e718fcfd,SCN,2024-06-12_10h38.13.721,LearnStrategy,2023.2.3,MacIntel,66.66666667,2,1,6,-0.54,0.242222222,1,0,0,2.65,Pegmatite_13,6,13,5,1,2.65,-0.148888889,-0.406666667,1,0,0,3.344,Pegmatite_rect,6,3.344,1,5,0,5,0,1,,,,,,,,,,,,,
66130b23ee407564e718fcfd,SCN,2024-06-12_10h38.13.721,LearnStrategy,2023.2.3,MacIntel,66.66666667,2,1,7,-0.06,0.242222222,1,0,0,4.63,Andesite_10,1,10,5,4,4.63,0.177777778,-0.256666667,1,0,0,8.663,Diorite_rect,3,8.663,0,6,0,6,0,1,,,,,,,,,,,,,
66130b23ee407564e718fcfd,SCN,2024-06-12_10h38.13.721,LearnStrategy,2023.2.3,MacIntel,66.66666667,2,1,8,0.103333333,0.255555556,1,0,0,4.483,Gabbro_10,4,10,5,5,4.483,0.342222222,-0.256666667,1,0,0,9.791,Gabbro_rect,4,9.791,1,7,0,7,0,1,,,,,,,,,,,,,
66130b23ee407564e718fcfd,SCN,2024-06-12_10h38.13.721,LearnStrategy,2023.2.3,MacIntel,66.66666667,2,1,9,0.22,0.242222222,1,0,0,2.067,Gabbro_11,4,11,5,6,2.067,-0.115555556,-0.235555556,1,0,0,3.429,Basalt_rect,2,3.429,0,8,0,8,0,1,,,,,,,,,,,,,
66130b23ee407564e718fcfd,SCN,2024-06-12_10h38.13.721,LearnStrategy,2023.2.3,MacIntel,66.66666667,2,1,10,0.544444444,0.222222222,1,0,0,1.616,Diorite_10,3,10,5,8,1.616,0.16,-0.234444444,1,0,0,12.861,Diorite_rect,3,12.861,1,9,0,9,0,1,,,,,,,,,,,,,
66130b23ee407564e718fcfd,SCN,2024-06-12_10h38.13.721,LearnStrategy,2023.2.3,MacIntel,66.66666667,2,1,11,-0.534444444,-0.101111111,1,0,0,5.983,Pumice_10,8,10,3,1,5.983,0.365555556,-0.404444444,1,0,0,2.748,Pumice_rect,8,2.748,1,10,0,10,0,1,,,,,,,,,,,,,
66130b23ee407564e718fcfd,SCN,2024-06-12_10h38.13.721,LearnStrategy,2023.2.3,MacIntel,66.66666667,2,1,12,-0.43,-0.087777778,1,0,0,3.598,Gabbro_12,4,12,3,2,3.598,0.365555556,-0.263333333,1,0,0,6.028,Gabbro_rect,4,6.028,1,11,0,11,0,1,,,,,,,,,,,,,
66130b23ee407564e718fcfd,SCN,2024-06-12_10h38.13.721,LearnStrategy,2023.2.3,MacIntel,66.66666667,2,1,13,-0.217777778,-0.1,1,0,0,2.149,Diorite_08,3,08,3,3,2.149,-0.405555556,-0.23,1,0,0,16.395,Andesite_rect,1,16.395,0,12,0,12,0,1,,,,,,,,,,,,,
66130b23ee407564e718fcfd,SCN,2024-06-12_10h38.13.721,LearnStrategy,2023.2.3,MacIntel,66.66666667,2,1,14,-0.064444444,-0.123333333,1,0,0,3.914,Obsidian_04,5,04,3,4,3.914,-0.341111111,-0.387777778,1,0,0,1.457,Obsidian_rect,5,1.457,1,13,0,13,0,1,,,,,,,,,,,,,
66130b23ee407564e718fcfd,SCN,2024-06-12_10h38.13.721,LearnStrategy,2023.2.3,MacIntel,66.66666667,2,1,15,0.401111111,-0.113333333,1,0,0,4.848,Basalt_14,2,14,3,7,4.848,-0.088888889,-0.257777778,1,0,0,6.995,Basalt_rect,2,6.995,1,14,0,14,0,1,,,,,,,,,,,,,
66130b23ee407564e718fcfd,SCN,2024-06-12_10h38.13.721,LearnStrategy,2023.2.3,MacIntel,66.66666667,2,1,16,0.552222222,-0.107777778,1,0,0,1.75,Andesite_02,1,02,3,8,1.75,-0.386666667,-0.246666667,1,0,0,5.376,Andesite_rect,1,5.376,1,15,0,15,0,1,,,,,,,,,,,,,
66130b23ee407564e718fcfd,SCN,2024-06-12_10h38.13.721,LearnStrategy,2023.2.3,MacIntel,66.66666667,2,2,1,,,,,,,,1,07,,,,,,,,,,,4,21.164,0,,,,,,0.335555556,-0.24,1,0,0,21.164,Gabbro_rect,0,0,0,0,1,
66130b23ee407564e718fcfd,SCN,2024-06-12_10h38.13.721,LearnStrategy,2023.2.3,MacIntel,66.66666667,2,2,2,,,,,,,,6,11,,,,,,,,,,,6,9.794,1,,,,,,-0.147777778,-0.392222222,1,0,0,9.794,Pegmatite_rect,1,0,1,0,1,
66130b23ee407564e718fcfd,SCN,2024-06-12_10h38.13.721,LearnStrategy,2023.2.3,MacIntel,66.66666667,2,2,3,,,,,,,,4,03,,,,,,,,,,,4,6.761,1,,,,,,0.338888889,-0.244444444,1,0,0,6.761,Gabbro_rect,2,0,2,0,1,
66130b23ee407564e718fcfd,SCN,2024-06-12_10h38.13.721,LearnStrategy,2023.2.3,MacIntel,66.66666667,2,2,4,,,,,,,,5,09,,,,,,,,,,,5,1.877,1,,,,,,-0.39,-0.408888889,1,0,0,1.877,Obsidian_rect,3,0,3,0,1,
66130b23ee407564e718fcfd,SCN,2024-06-12_10h38.13.721,LearnStrategy,2023.2.3,MacIntel,66.66666667,2,2,5,,,,,,,,2,05,,,,,,,,,,,2,8.629,1,,,,,,-0.14,-0.27,1,0,0,8.629,Basalt_rect,4,0,4,0,1,
66130b23ee407564e718fcfd,SCN,2024-06-12_10h38.13.721,LearnStrategy,2023.2.3,MacIntel,66.66666667,2,2,6,,,,,,,,8,08,,,,,,,,,,,8,10.83,1,,,,,,0.376666667,-0.406666667,1,0,0,10.83,Pumice_rect,5,0,5,0,1,
66130b23ee407564e718fcfd,SCN,2024-06-12_10h38.13.721,LearnStrategy,2023.2.3,MacIntel,66.66666667,2,2,7,,,,,,,,8,06,,,,,,,,,,,2,16.145,0,,,,,,-0.155555556,-0.266666667,1,0,0,16.145,Basalt_rect,6,0,6,0,1,
66130b23ee407564e718fcfd,SCN,2024-06-12_10h38.13.721,LearnStrategy,2023.2.3,MacIntel,66.66666667,2,2,8,,,,,,,,5,08,,,,,,,,,,,5,1.463,1,,,,,,-0.354444444,-0.414444444,1,0,0,1.463,Obsidian_rect,7,0,7,0,1,
66130b23ee407564e718fcfd,SCN,2024-06-12_10h38.13.721,LearnStrategy,2023.2.3,MacIntel,66.66666667,2,2,9,,,,,,,,3,09,,,,,,,,,,,3,25.5,1,,,,,,0.088888889,-0.258888889,1,0,0,25.5,Diorite_rect,8,0,8,0,1,
66130b23ee407564e718fcfd,SCN,2024-06-12_10h38.13.721,LearnStrategy,2023.2.3,MacIntel,66.66666667,2,2,10,,,,,,,,7,07,,,,,,,,,,,3,33.286,0,,,,,,0.088888889,-0.258888889,1,0,0,33.286,Diorite_rect,9,0,9,0,1,
66130b23ee407564e718fcfd,SCN,2024-06-12_10h38.13.721,LearnStrategy,2023.2.3,MacIntel,66.66666667,2,2,11,,,,,,,,1,05,,,,,,,,,,,4,20.545,0,,,,,,0.357777778,-0.24,1,0,0,20.545,Gabbro_rect,10,0,10,0,1,
66130b23ee407564e718fcfd,SCN,2024-06-12_10h38.13.721,LearnStrategy,2023.2.3,MacIntel,66.66666667,2,2,12,,,,,,,,4,08,,,,,,,,,,,4,13.409,1,,,,,,0.357777778,-0.24,1,0,0,13.409,Gabbro_rect,11,0,11,0,1,
66130b23ee407564e718fcfd,SCN,2024-06-12_10h38.13.721,LearnStrategy,2023.2.3,MacIntel,66.66666667,2,2,13,,,,,,,,2,12,,,,,,,,,,,1,28.774,0,,,,,,-0.338888889,-0.256666667,1,0,0,28.774,Andesite_rect,12,0,12,0,1,
66130b23ee407564e718fcfd,SCN,2024-06-12_10h38.13.721,LearnStrategy,2023.2.3,MacIntel,66.66666667,2,2,14,,,,,,,,6,03,,,,,,,,,,,6,16.332,1,,,,,,-0.135555556,-0.386666667,1,0,0,16.332,Pegmatite_rect,13,0,13,0,1,
66130b23ee407564e718fcfd,SCN,2024-06-12_10h38.13.721,LearnStrategy,2023.2.3,MacIntel,66.66666667,2,2,15,,,,,,,,3,16,,,,,,,,,,,3,14.729,1,,,,,,0.147777778,-0.246666667,1,0,0,14.729,Diorite_rect,14,0,14,0,1,
66130b23ee407564e718fcfd,SCN,2024-06-12_10h38.13.721,LearnStrategy,2023.2.3,MacIntel,66.66666667,2,2,16,,,,,,,,7,15,,,,,,,,,,,7,41.178,1,,,,,,0.13,-0.397777778,1,0,0,41.178,Peridotite_rect,15,0,15,0,1,
66130b23ee407564e718fcfd,SCN,2024-06-12_10h38.13.721,LearnStrategy,2023.2.3,MacIntel,66.66666667,3,1,1,0.526666667,-0.11,1,0,0,4.664,Andesite_02,1,02,3,8,4.664,-0.35,-0.247777778,1,0,0,9.513,Andesite_rect,1,9.513,1,0,0,0,0,1,,,,,,,,,,,,,
66130b23ee407564e718fcfd,SCN,2024-06-12_10h38.13.721,LearnStrategy,2023.2.3,MacIntel,66.66666667,3,1,2,-0.547777778,-0.224444444,1,0,0,2.064,Pumice_14,8,14,2,1,2.064,0.394444444,-0.39,1,0,0,1.451,Pumice_rect,8,1.451,1,1,0,1,0,1,,,,,,,,,,,,,
66130b23ee407564e718fcfd,SCN,2024-06-12_10h38.13.721,LearnStrategy,2023.2.3,MacIntel,66.66666667,3,1,3,-0.391111111,-0.225555556,1,0,0,1.047,Pumice_05,8,05,2,2,1.047,0.391111111,-0.395555556,1,0,0,1.78,Pumice_rect,8,1.78,1,2,0,2,0,1,,,,,,,,,,,,,
66130b23ee407564e718fcfd,SCN,2024-06-12_10h38.13.721,LearnStrategy,2023.2.3,MacIntel,66.66666667,3,1,4,-0.19,-0.252222222,1,0,0,1.115,Pegmatite_05,6,05,2,3,1.115,-0.172222222,-0.398888889,1,0,0,2.748,Pegmatite_rect,6,2.748,1,3,0,3,0,1,,,,,,,,,,,,,
66130b23ee407564e718fcfd,SCN,2024-06-12_10h38.13.721,LearnStrategy,2023.2.3,MacIntel,66.66666667,3,1,5,-0.096666667,-0.248888889,1,0,0,1.129,Basalt_09,2,09,2,4,1.129,-0.102222222,-0.255555556,1,0,0,2.347,Basalt_rect,2,2.347,1,4,0,4,0,1,,,,,,,,,,,,,
66130b23ee407564e718fcfd,SCN,2024-06-12_10h38.13.721,LearnStrategy,2023.2.3,MacIntel,66.66666667,3,1,6,0.068888889,-0.286666667,1,0,0,1.23,Basalt_01,2,01,2,5,1.23,-0.177777778,-0.23,1,0,0,12.096,Basalt_rect,2,12.096,1,5,0,5,0,1,,,,,,,,,,,,,
66130b23ee407564e718fcfd,SCN,2024-06-12_10h38.13.721,LearnStrategy,2023.2.3,MacIntel,66.66666667,3,1,7,0.066666667,-0.237777778,1,0,0,1.115,Basalt_01,2,01,2,5,1.115,-0.098888889,-0.251111111,1,0,0,1.746,Basalt_rect,2,1.746,1,6,0,6,0,1,,,,,,,,,,,,,
66130b23ee407564e718fcfd,SCN,2024-06-12_10h38.13.721,LearnStrategy,2023.2.3,MacIntel,66.66666667,3,1,8,0.238888889,-0.266666667,1,0,0,1.099,Pumice_15,8,15,2,6,1.099,0.4,-0.406666667,1,0,0,30.363,Pumice_rect,8,30.363,1,7,0,7,0,1,,,,,,,,,,,,,
66130b23ee407564e718fcfd,SCN,2024-06-12_10h38.13.721,LearnStrategy,2023.2.3,MacIntel,66.66666667,3,1,9,0.382222222,-0.245555556,1,0,0,1.214,Basalt_10,2,10,2,7,1.214,-0.064444444,-0.252222222,1,0,0,3.573,Basalt_rect,2,3.573,1,8,0,8,0,1,,,,,,,,,,,,,
66130b23ee407564e718fcfd,SCN,2024-06-12_10h38.13.721,LearnStrategy,2023.2.3,MacIntel,66.66666667,3,1,10,0.545555556,-0.266666667,1,0,0,1.666,Obsidian_11,5,11,2,8,1.666,-0.363333333,-0.388888889,1,0,0,1.293,Obsidian_rect,5,1.293,1,9,0,9,0,1,,,,,,,,,,,,,
66130b23ee407564e718fcfd,SCN,2024-06-12_10h38.13.721,LearnStrategy,2023.2.3,MacIntel,66.66666667,3,1,11,-0.546666667,-0.396666667,1,0,0,1.816,Diorite_13,3,13,1,1,1.816,0.413333333,-0.254444444,1,0,0,11.765,Gabbro_rect,4,11.765,0,10,0,10,0,1,,,,,,,,,,,,,
66130b23ee407564e718fcfd,SCN,2024-06-12_10h38.13.721,LearnStrategy,2023.2.3,MacIntel,66.66666667,3,1,12,-0.362222222,-0.388888889,1,0,0,1.366,Pegmatite_10,6,10,1,2,1.366,0.111111111,-0.403333333,1,0,0,14.577,Peridotite_rect,7,14.577,0,11,0,11,0,1,,,,,,,,,,,,,
66130b23ee407564e718fcfd,SCN,2024-06-12_10h38.13.721,LearnStrategy,2023.2.3,MacIntel,66.66666667,3,1,13,-0.216666667,-0.41,1,0,0,1.232,Peridotite_12,7,12,1,3,1.232,-0.208888889,-0.405555556,1,0,0,4.909,Pegmatite_rect,6,4.909,0,12,0,12,0,1,,,,,,,,,,,,,
66130b23ee407564e718fcfd,SCN,2024-06-12_10h38.13.721,LearnStrategy,2023.2.3,MacIntel,66.66666667,3,1,14,-0.054444444,-0.4,1,0,0,1.866,Pumice_09,8,09,1,4,1.866,0.364444444,-0.391111111,1,0,0,1.68,Pumice_rect,8,1.68,1,13,0,13,0,1,,,,,,,,,,,,,
66130b23ee407564e718fcfd,SCN,2024-06-12_10h38.13.721,LearnStrategy,2023.2.3,MacIntel,66.66666667,3,1,15,0.068888889,-0.41,1,0,0,1.481,Pegmatite_15,6,15,1,5,1.481,-0.106666667,-0.395555556,1,0,0,11.476,Pegmatite_rect,6,11.476,1,14,0,14,0,1,,,,,,,,,,,,,
66130b23ee407564e718fcfd,SCN,2024-06-12_10h38.13.721,LearnStrategy,2023.2.3,MacIntel,66.66666667,3,1,16,0.214444444,-0.442222222,1,0,0,2.196,Peridotite_16,7,16,1,6,2.196,0.374444444,-0.271111111,1,0,0,5.668,Gabbro_rect,4,5.668,0,15,0,15,0,1,,,,,,,,,,,,,
66130b23ee407564e718fcfd,SCN,2024-06-12_10h38.13.721,LearnStrategy,2023.2.3,MacIntel,66.66666667,3,2,1,,,,,,,,8,04,,,,,,,,,,,8,6.926,1,,,,,,0.422222222,-0.388888889,1,0,0,6.926,Pumice_rect,0,0,0,0,1,
66130b23ee407564e718fcfd,SCN,2024-06-12_10h38.13.721,LearnStrategy,2023.2.3,MacIntel,66.66666667,3,2,2,,,,,,,,5,12,,,,,,,,,,,5,2.146,1,,,,,,-0.37,-0.407777778,1,0,0,2.146,Obsidian_rect,1,0,1,0,1,
66130b23ee407564e718fcfd,SCN,2024-06-12_10h38.13.721,LearnStrategy,2023.2.3,MacIntel,66.66666667,3,2,3,,,,,,,,4,01,,,,,,,,,,,4,17.167,1,,,,,,0.325555556,-0.252222222,1,0,0,17.167,Gabbro_rect,2,0,2,0,1,
66130b23ee407564e718fcfd,SCN,2024-06-12_10h38.13.721,LearnStrategy,2023.2.3,MacIntel,66.66666667,3,2,4,,,,,,,,2,02,,,,,,,,,,,2,3.97,1,,,,,,-0.133333333,-0.261111111,1,0,0,3.97,Basalt_rect,3,0,3,0,1,
66130b23ee407564e718fcfd,SCN,2024-06-12_10h38.13.721,LearnStrategy,2023.2.3,MacIntel,66.66666667,3,2,5,,,,,,,,2,04,,,,,,,,,,,2,2.244,1,,,,,,-0.12,-0.237777778,1,0,0,2.244,Basalt_rect,4,0,4,0,1,
66130b23ee407564e718fcfd,SCN,2024-06-12_10h38.13.721,LearnStrategy,2023.2.3,MacIntel,66.66666667,3,2,6,,,,,,,,5,14,,,,,,,,,,,5,1.423,1,,,,,,-0.346666667,-0.403333333,1,0,0,1.423,Obsidian_rect,5,0,5,0,1,
66130b23ee407564e718fcfd,SCN,2024-06-12_10h38.13.721,LearnStrategy,2023.2.3,MacIntel,66.66666667,3,2,7,,,,,,,,1,04,,,,,,,,,,,3,15.633,0,,,,,,0.062222222,-0.246666667,1,0,0,15.633,Diorite_rect,6,0,6,0,1,
66130b23ee407564e718fcfd,SCN,2024-06-12_10h38.13.721,LearnStrategy,2023.2.3,MacIntel,66.66666667,3,2,8,,,,,,,,3,07,,,,,,,,,,,6,8.479,0,,,,,,-0.118888889,-0.398888889,1,0,0,8.479,Pegmatite_rect,7,0,7,0,1,
66130b23ee407564e718fcfd,SCN,2024-06-12_10h38.13.721,LearnStrategy,2023.2.3,MacIntel,66.66666667,3,2,9,,,,,,,,3,11,,,,,,,,,,,3,9.223,1,,,,,,0.14,-0.24,1,0,0,9.223,Diorite_rect,8,0,8,0,1,
66130b23ee407564e718fcfd,SCN,2024-06-12_10h38.13.721,LearnStrategy,2023.2.3,MacIntel,66.66666667,3,2,10,,,,,,,,8,02,,,,,,,,,,,8,1.81,1,,,,,,0.37,-0.398888889,1,0,0,1.81,Pumice_rect,9,0,9,0,1,
66130b23ee407564e718fcfd,SCN,2024-06-12_10h38.13.721,LearnStrategy,2023.2.3,MacIntel,66.66666667,3,2,11,,,,,,,,7,05,,,,,,,,,,,7,8.529,1,,,,,,0.196666667,-0.384444444,1,0,0,8.529,Peridotite_rect,10,0,10,0,1,
66130b23ee407564e718fcfd,SCN,2024-06-12_10h38.13.721,LearnStrategy,2023.2.3,MacIntel,66.66666667,3,2,12,,,,,,,,6,08,,,,,,,,,,,6,7.197,1,,,,,,-0.092222222,-0.398888889,1,0,0,7.197,Pegmatite_rect,11,0,11,0,1,
66130b23ee407564e718fcfd,SCN,2024-06-12_10h38.13.721,LearnStrategy,2023.2.3,MacIntel,66.66666667,3,2,13,,,,,,,,6,09,,,,,,,,,,,6,1.289,1,,,,,,-0.092222222,-0.398888889,1,0,0,1.289,Pegmatite_rect,12,0,12,0,1,
66130b23ee407564e718fcfd,SCN,2024-06-12_10h38.13.721,LearnStrategy,2023.2.3,MacIntel,66.66666667,3,2,14,,,,,,,,7,08,,,,,,,,,,,7,11.079,1,,,,,,0.076666667,-0.395555556,1,0,0,11.079,Peridotite_rect,13,0,13,0,1,
66130b23ee407564e718fcfd,SCN,2024-06-12_10h38.13.721,LearnStrategy,2023.2.3,MacIntel,66.66666667,3,2,15,,,,,,,,1,03,,,,,,,,,,,4,28.911,0,,,,,,0.377777778,-0.252222222,1,0,0,28.911,Gabbro_rect,14,0,14,0,1,
66130b23ee407564e718fcfd,SCN,2024-06-12_10h38.13.721,LearnStrategy,2023.2.3,MacIntel,66.66666667,3,2,16,,,,,,,,4,13,,,,,,,,,,,4,7.03,1,,,,,,0.386666667,-0.241111111,1,0,0,7.03,Gabbro_rect,15,0,15,0,1,
66130b23ee407564e718fcfd,SCN,2024-06-12_10h38.13.721,LearnStrategy,2023.2.3,MacIntel,66.66666667,4,1,1,-0.542222222,-0.411111111,1,0,0,3.165,Diorite_13,3,13,1,1,3.165,0.144444444,-0.26,1,0,0,9.256,Diorite_rect,3,9.256,1,0,0,0,0,1,,,,,,,,,,,,,
66130b23ee407564e718fcfd,SCN,2024-06-12_10h38.13.721,LearnStrategy,2023.2.3,MacIntel,66.66666667,4,1,2,-0.413333333,-0.448888889,1,0,0,1.065,Pegmatite_10,6,10,1,2,1.065,-0.1,-0.406666667,1,0,0,5.858,Pegmatite_rect,6,5.858,1,1,0,1,0,1,,,,,,,,,,,,,
66130b23ee407564e718fcfd,SCN,2024-06-12_10h38.13.721,LearnStrategy,2023.2.3,MacIntel,66.66666667,4,1,3,-0.245555556,-0.415555556,1,0,0,1.133,Peridotite_12,7,12,1,3,1.133,0.066666667,-0.388888889,1,0,0,5.719,Peridotite_rect,7,5.719,1,2,0,2,0,1,,,,,,,,,,,,,
66130b23ee407564e718fcfd,SCN,2024-06-12_10h38.13.721,LearnStrategy,2023.2.3,MacIntel,66.66666667,4,1,4,-0.096666667,-0.404444444,1,0,0,2.481,Pumice_09,8,09,1,4,2.481,0.478888889,-0.408888889,1,0,0,1.827,Pumice_rect,8,1.827,1,3,0,3,0,1,,,,,,,,,,,,,
66130b23ee407564e718fcfd,SCN,2024-06-12_10h38.13.721,LearnStrategy,2023.2.3,MacIntel,66.66666667,4,1,5,0.095555556,-0.407777778,1,0,0,2.164,Pegmatite_15,6,15,1,5,2.164,-0.137777778,-0.416666667,1,0,0,11.877,Pegmatite_rect,6,11.877,1,4,0,4,0,1,,,,,,,,,,,,,
66130b23ee407564e718fcfd,SCN,2024-06-12_10h38.13.721,LearnStrategy,2023.2.3,MacIntel,66.66666667,4,1,6,0.255555556,-0.437777778,1,0,0,1.116,Peridotite_16,7,16,1,6,1.116,0.166666667,-0.41,1,0,0,7.061,Peridotite_rect,7,7.061,1,5,0,5,0,1,,,,,,,,,,,,,
66130b23ee407564e718fcfd,SCN,2024-06-12_10h38.13.721,LearnStrategy,2023.2.3,MacIntel,66.66666667,4,1,7,0.406666667,-0.41,1,0,0,1.066,Diorite_12,3,12,1,7,1.066,0.176666667,-0.228888889,1,0,0,4.572,Diorite_rect,3,4.572,1,6,0,6,0,1,,,,,,,,,,,,,
66130b23ee407564e718fcfd,SCN,2024-06-12_10h38.13.721,LearnStrategy,2023.2.3,MacIntel,66.66666667,4,1,8,0.55,-0.437777778,1,0,0,1.365,Andesite_06,1,06,1,8,1.365,0.39,-0.257777778,1,0,0,10.818,Gabbro_rect,4,10.818,0,7,0,7,0,1,,,,,,,,,,,,,
66130b23ee407564e718fcfd,SCN,2024-06-12_10h38.13.721,LearnStrategy,2023.2.3,MacIntel,66.66666667,4,1,9,0.39,0.237777778,1,0,0,2.364,Andesite_16,1,16,5,7,2.364,-0.435555556,-0.26,1,0,0,2.461,Andesite_rect,1,2.461,1,8,0,8,0,1,,,,,,,,,,,,,
66130b23ee407564e718fcfd,SCN,2024-06-12_10h38.13.721,LearnStrategy,2023.2.3,MacIntel,66.66666667,4,1,10,-0.275555556,0.093333333,1,0,0,2.997,Pegmatite_16,6,16,4,3,2.997,-0.125555556,-0.404444444,1,0,0,1.752,Pegmatite_rect,6,1.752,1,9,0,9,0,1,,,,,,,,,,,,,
66130b23ee407564e718fcfd,SCN,2024-06-12_10h38.13.721,LearnStrategy,2023.2.3,MacIntel,66.66666667,4,1,11,-0.078888889,0.42,1,0,0,1.531,Gabbro_09,4,09,6,4,1.531,0.44,-0.264444444,1,0,0,9.138,Gabbro_rect,4,9.138,1,10,0,10,0,1,,,,,,,,,,,,,
66130b23ee407564e718fcfd,SCN,2024-06-12_10h38.13.721,LearnStrategy,2023.2.3,MacIntel,66.66666667,4,1,12,-0.1,0.12,1,0,0,1.048,Obsidian_05,5,05,4,4,1.048,-0.34,-0.384444444,1,0,0,1.208,Obsidian_rect,5,1.208,1,11,0,11,0,1,,,,,,,,,,,,,
66130b23ee407564e718fcfd,SCN,2024-06-12_10h38.13.721,LearnStrategy,2023.2.3,MacIntel,66.66666667,4,1,13,-0.545555556,0.233333333,1,0,0,2.064,Pegmatite_13,6,13,5,1,2.064,-0.153333333,-0.391111111,1,0,0,2.37,Pegmatite_rect,6,2.37,1,12,0,12,0,1,,,,,,,,,,,,,
66130b23ee407564e718fcfd,SCN,2024-06-12_10h38.13.721,LearnStrategy,2023.2.3,MacIntel,66.66666667,4,1,14,0.233333333,-0.102222222,1,0,0,1.616,Obsidian_07,5,07,3,6,1.616,-0.354444444,-0.414444444,1,0,0,1.379,Obsidian_rect,5,1.379,1,13,0,13,0,1,,,,,,,,,,,,,
66130b23ee407564e718fcfd,SCN,2024-06-12_10h38.13.721,LearnStrategy,2023.2.3,MacIntel,66.66666667,4,1,15,-0.535555556,-0.274444444,1,0,0,3.05,Pumice_14,8,14,2,1,3.05,0.431111111,-0.378888889,1,0,0,1.338,Pumice_rect,8,1.338,1,14,0,14,0,1,,,,,,,,,,,,,
66130b23ee407564e718fcfd,SCN,2024-06-12_10h38.13.721,LearnStrategy,2023.2.3,MacIntel,66.66666667,4,1,16,0.422222222,0.09,1,0,0,2.496,Peridotite_13,7,13,4,7,2.496,0.131111111,-0.415555556,1,0,0,7.072,Peridotite_rect,7,7.072,1,15,0,15,0,1,,,,,,,,,,,,,
66130b23ee407564e718fcfd,SCN,2024-06-12_10h38.13.721,LearnStrategy,2023.2.3,MacIntel,66.66666667,4,2,1,,,,,,,,7,06,,,,,,,,,,,7,12.122,1,,,,,,0.101111111,-0.394444444,1,0,0,12.122,Peridotite_rect,0,0,0,0,1,
66130b23ee407564e718fcfd,SCN,2024-06-12_10h38.13.721,LearnStrategy,2023.2.3,MacIntel,66.66666667,4,2,2,,,,,,,,7,15,,,,,,,,,,,7,50.084,1,,,,,,0.146666667,-0.397777778,1,0,0,50.084,Peridotite_rect,1,0,1,0,1,
66130b23ee407564e718fcfd,SCN,2024-06-12_10h38.13.721,LearnStrategy,2023.2.3,MacIntel,66.66666667,4,2,3,,,,,,,,3,16,,,,,,,,,,,1,16.056,0,,,,,,-0.382222222,-0.256666667,1,0,0,16.056,Andesite_rect,2,0,2,0,1,
66130b23ee407564e718fcfd,SCN,2024-06-12_10h38.13.721,LearnStrategy,2023.2.3,MacIntel,66.66666667,4,2,4,,,,,,,,1,09,,,,,,,,,,,1,23.876,1,,,,,,-0.426666667,-0.236666667,1,0,0,23.876,Andesite_rect,3,0,3,0,1,
66130b23ee407564e718fcfd,SCN,2024-06-12_10h38.13.721,LearnStrategy,2023.2.3,MacIntel,66.66666667,4,2,5,,,,,,,,2,02,,,,,,,,,,,2,2.307,1,,,,,,-0.122222222,-0.248888889,1,0,0,2.307,Basalt_rect,4,0,4,0,1,
66130b23ee407564e718fcfd,SCN,2024-06-12_10h38.13.721,LearnStrategy,2023.2.3,MacIntel,66.66666667,4,2,6,,,,,,,,2,16,,,,,,,,,,,2,35.131,1,,,,,,-0.121111111,-0.253333333,1,0,0,35.131,Basalt_rect,5,0,5,0,1,
66130b23ee407564e718fcfd,SCN,2024-06-12_10h38.13.721,LearnStrategy,2023.2.3,MacIntel,66.66666667,4,2,7,,,,,,,,8,13,,,,,,,,,,,1,64.581,0,,,,,,-0.403333333,-0.244444444,1,0,0,64.581,Andesite_rect,6,0,6,0,1,
66130b23ee407564e718fcfd,SCN,2024-06-12_10h38.13.721,LearnStrategy,2023.2.3,MacIntel,66.66666667,4,2,8,,,,,,,,4,01,,,,,,,,,,,4,11.264,1,,,,,,0.394444444,-0.26,1,0,0,11.264,Gabbro_rect,7,0,7,0,1,
66130b23ee407564e718fcfd,SCN,2024-06-12_10h38.13.721,LearnStrategy,2023.2.3,MacIntel,66.66666667,4,2,9,,,,,,,,5,10,,,,,,,,,,,5,1.573,1,,,,,,-0.431111111,-0.4,1,0,0,1.573,Obsidian_rect,8,0,8,0,1,
66130b23ee407564e718fcfd,SCN,2024-06-12_10h38.13.721,LearnStrategy,2023.2.3,MacIntel,66.66666667,4,2,10,,,,,,,,1,04,,,,,,,,,,,7,44.731,0,,,,,,0.157777778,-0.39,1,0,0,44.731,Peridotite_rect,9,0,9,0,1,
66130b23ee407564e718fcfd,SCN,2024-06-12_10h38.13.721,LearnStrategy,2023.2.3,MacIntel,66.66666667,4,2,11,,,,,,,,6,03,,,,,,,,,,,7,35.403,0,,,,,,0.087777778,-0.414444444,1,0,0,35.403,Peridotite_rect,10,0,10,0,1,
66130b23ee407564e718fcfd,SCN,2024-06-12_10h38.13.721,LearnStrategy,2023.2.3,MacIntel,66.66666667,4,2,12,,,,,,,,3,07,,,,,,,,,,,1,21.441,0,,,,,,-0.336666667,-0.268888889,1,0,0,21.441,Andesite_rect,11,0,11,0,1,
66130b23ee407564e718fcfd,SCN,2024-06-12_10h38.13.721,LearnStrategy,2023.2.3,MacIntel,66.66666667,4,2,13,,,,,,,,6,08,,,,,,,,,,,6,6.144,1,,,,,,-0.088888889,-0.388888889,1,0,0,6.144,Pegmatite_rect,12,0,12,0,1,
66130b23ee407564e718fcfd,SCN,2024-06-12_10h38.13.721,LearnStrategy,2023.2.3,MacIntel,66.66666667,4,2,14,,,,,,,,8,04,,,,,,,,,,,8,1.939,1,,,,,,0.435555556,-0.383333333,1,0,0,1.939,Pumice_rect,13,0,13,0,1,
66130b23ee407564e718fcfd,SCN,2024-06-12_10h38.13.721,LearnStrategy,2023.2.3,MacIntel,66.66666667,4,2,15,,,,,,,,5,14,,,,,,,,,,,5,1.362,1,,,,,,-0.348888889,-0.391111111,1,0,0,1.362,Obsidian_rect,14,0,14,0,1,
66130b23ee407564e718fcfd,SCN,2024-06-12_10h38.13.721,LearnStrategy,2023.2.3,MacIntel,66.66666667,4,2,16,,,,,,,,4,16,,,,,,,,,,,4,17.171,1,,,,,,0.381111111,-0.254444444,1,0,0,17.171,Gabbro_rect,15,0,15,0,1,
66130b23ee407564e718fcfd,SCN,2024-06-12_10h38.13.721,LearnStrategy,2023.2.3,MacIntel,66.66666667,5,1,1,-0.585555556,0.393333333,1,0,0,1.948,Andesite_14,1,14,6,1,1.948,-0.377777778,-0.253333333,1,0,0,21.025,Andesite_rect,1,21.025,1,0,0,0,0,1,,,,,,,,,,,,,
66130b23ee407564e718fcfd,SCN,2024-06-12_10h38.13.721,LearnStrategy,2023.2.3,MacIntel,66.66666667,5,1,2,-0.387777778,0.388888889,1,0,0,1.781,Andesite_01,1,01,6,2,1.781,-0.395555556,-0.251111111,1,0,0,5.628,Andesite_rect,1,5.628,1,1,0,1,0,1,,,,,,,,,,,,,
66130b23ee407564e718fcfd,SCN,2024-06-12_10h38.13.721,LearnStrategy,2023.2.3,MacIntel,66.66666667,5,1,3,-0.237777778,0.412222222,1,0,0,1.214,Diorite_06,3,06,6,3,1.214,0.114444444,-0.261111111,1,0,0,8.555,Diorite_rect,3,8.555,1,2,0,2,0,1,,,,,,,,,,,,,
66130b23ee407564e718fcfd,SCN,2024-06-12_10h38.13.721,LearnStrategy,2023.2.3,MacIntel,66.66666667,5,1,4,-0.098888889,0.43,1,0,0,1.331,Gabbro_09,4,09,6,4,1.331,0.194444444,-0.256666667,1,0,0,1.753,Diorite_rect,3,1.753,0,3,0,3,0,1,,,,,,,,,,,,,
66130b23ee407564e718fcfd,SCN,2024-06-12_10h38.13.721,LearnStrategy,2023.2.3,MacIntel,66.66666667,5,1,5,0.076666667,0.412222222,1,0,0,1.397,Basalt_06,2,06,6,5,1.397,-0.085555556,-0.256666667,1,0,0,1.527,Basalt_rect,2,1.527,1,4,0,4,0,1,,,,,,,,,,,,,
66130b23ee407564e718fcfd,SCN,2024-06-12_10h38.13.721,LearnStrategy,2023.2.3,MacIntel,66.66666667,5,1,6,0.236666667,0.428888889,1,0,0,1.265,Pegmatite_12,6,12,6,6,1.265,-0.085555556,-0.382222222,1,0,0,2.545,Pegmatite_rect,6,2.545,1,5,0,5,0,1,,,,,,,,,,,,,
66130b23ee407564e718fcfd,SCN,2024-06-12_10h38.13.721,LearnStrategy,2023.2.3,MacIntel,66.66666667,5,1,7,0.384444444,0.414444444,1,0,0,0.897,Gabbro_15,4,15,6,7,0.897,0.174444444,-0.234444444,1,0,0,3.677,Diorite_rect,3,3.677,0,6,0,6,0,1,,,,,,,,,,,,,
66130b23ee407564e718fcfd,SCN,2024-06-12_10h38.13.721,LearnStrategy,2023.2.3,MacIntel,66.66666667,5,1,8,0.561111111,0.395555556,1,0,0,1.032,Obsidian_02,5,02,6,8,1.032,-0.404444444,-0.384444444,1,0,0,2.278,Obsidian_rect,5,2.278,1,7,0,7,0,1,,,,,,,,,,,,,
66130b23ee407564e718fcfd,SCN,2024-06-12_10h38.13.721,LearnStrategy,2023.2.3,MacIntel,66.66666667,5,1,9,-0.59,0.23,1,0,0,2.881,Pegmatite_13,6,13,5,1,2.881,-0.126666667,-0.395555556,1,0,0,1.338,Pegmatite_rect,6,1.338,1,8,0,8,0,1,,,,,,,,,,,,,
66130b23ee407564e718fcfd,SCN,2024-06-12_10h38.13.721,LearnStrategy,2023.2.3,MacIntel,66.66666667,5,1,10,-0.372222222,0.256666667,1,0,0,1.066,Diorite_15,3,15,5,2,1.066,0.133333333,-0.256666667,1,0,0,8.278,Diorite_rect,3,8.278,1,9,0,9,0,1,,,,,,,,,,,,,
66130b23ee407564e718fcfd,SCN,2024-06-12_10h38.13.721,LearnStrategy,2023.2.3,MacIntel,66.66666667,5,1,11,-0.212222222,0.262222222,1,0,0,1.547,Peridotite_04,7,04,5,3,1.547,-0.15,-0.383333333,1,0,0,1.634,Pegmatite_rect,6,1.634,0,10,0,10,0,1,,,,,,,,,,,,,
66130b23ee407564e718fcfd,SCN,2024-06-12_10h38.13.721,LearnStrategy,2023.2.3,MacIntel,66.66666667,5,1,12,-0.074444444,0.21,1,0,0,1.449,Andesite_10,1,10,5,4,1.449,-0.113333333,-0.248888889,1,0,0,1.961,Basalt_rect,2,1.961,0,11,0,11,0,1,,,,,,,,,,,,,
66130b23ee407564e718fcfd,SCN,2024-06-12_10h38.13.721,LearnStrategy,2023.2.3,MacIntel,66.66666667,5,1,13,0.24,0.233333333,1,0,0,1.599,Gabbro_11,4,11,5,6,1.599,-0.14,-0.25,1,0,0,14.134,Basalt_rect,2,14.134,0,12,0,12,0,1,,,,,,,,,,,,,
66130b23ee407564e718fcfd,SCN,2024-06-12_10h38.13.721,LearnStrategy,2023.2.3,MacIntel,66.66666667,5,1,14,-0.117777778,0.111111111,1,0,0,1.015,Obsidian_05,5,05,4,4,1.015,-0.391111111,-0.42,1,0,0,0.925,Obsidian_rect,5,0.925,1,13,0,13,0,1,,,,,,,,,,,,,
66130b23ee407564e718fcfd,SCN,2024-06-12_10h38.13.721,LearnStrategy,2023.2.3,MacIntel,66.66666667,5,1,15,-0.221111111,0.092222222,1,0,0,1.865,Pegmatite_16,6,16,4,3,1.865,-0.113333333,-0.404444444,1,0,0,1.062,Pegmatite_rect,6,1.062,1,14,0,14,0,1,,,,,,,,,,,,,
66130b23ee407564e718fcfd,SCN,2024-06-12_10h38.13.721,LearnStrategy,2023.2.3,MacIntel,66.66666667,5,1,16,-0.362222222,-0.14,1,0,0,1.414,Gabbro_12,4,12,3,2,1.414,-0.096666667,-0.261111111,1,0,0,1.161,Basalt_rect,2,1.161,0,15,0,15,0,1,,,,,,,,,,,,,
66130b23ee407564e718fcfd,SCN,2024-06-12_10h38.13.721,LearnStrategy,2023.2.3,MacIntel,66.66666667,5,2,1,,,,,,,,5,09,,,,,,,,,,,5,1.288,1,,,,,,-0.328888889,-0.378888889,1,0,0,1.288,Obsidian_rect,0,0,0,0,1,
66130b23ee407564e718fcfd,SCN,2024-06-12_10h38.13.721,LearnStrategy,2023.2.3,MacIntel,66.66666667,5,2,2,,,,,,,,1,05,,,,,,,,,,,3,10.481,0,,,,,,0.132222222,-0.255555556,1,0,0,10.481,Diorite_rect,1,0,1,0,1,
66130b23ee407564e718fcfd,SCN,2024-06-12_10h38.13.721,LearnStrategy,2023.2.3,MacIntel,66.66666667,5,2,3,,,,,,,,1,11,,,,,,,,,,,3,8.763,0,,,,,,0.132222222,-0.256666667,1,0,0,8.763,Diorite_rect,2,0,2,0,1,
66130b23ee407564e718fcfd,SCN,2024-06-12_10h38.13.721,LearnStrategy,2023.2.3,MacIntel,66.66666667,5,2,4,,,,,,,,4,13,,,,,,,,,,,4,18.693,1,,,,,,0.366666667,-0.235555556,1,0,0,18.693,Gabbro_rect,3,0,3,0,1,
66130b23ee407564e718fcfd,SCN,2024-06-12_10h38.13.721,LearnStrategy,2023.2.3,MacIntel,66.66666667,5,2,5,,,,,,,,7,07,,,,,,,,,,,7,22.898,1,,,,,,0.158888889,-0.41,1,0,0,22.898,Peridotite_rect,4,0,4,0,1,
66130b23ee407564e718fcfd,SCN,2024-06-12_10h38.13.721,LearnStrategy,2023.2.3,MacIntel,66.66666667,5,2,6,,,,,,,,2,08,,,,,,,,,,,2,12.917,1,,,,,,-0.063333333,-0.27,1,0,0,12.917,Basalt_rect,5,0,5,0,1,
66130b23ee407564e718fcfd,SCN,2024-06-12_10h38.13.721,LearnStrategy,2023.2.3,MacIntel,66.66666667,5,2,7,,,,,,,,3,02,,,,,,,,,,,3,6.433,1,,,,,,0.117777778,-0.245555556,1,0,0,6.433,Diorite_rect,6,0,6,0,1,
66130b23ee407564e718fcfd,SCN,2024-06-12_10h38.13.721,LearnStrategy,2023.2.3,MacIntel,66.66666667,5,2,8,,,,,,,,4,03,,,,,,,,,,,3,3.087,0,,,,,,0.117777778,-0.245555556,1,0,0,3.087,Diorite_rect,7,0,7,0,1,
66130b23ee407564e718fcfd,SCN,2024-06-12_10h38.13.721,LearnStrategy,2023.2.3,MacIntel,66.66666667,5,2,9,,,,,,,,3,11,,,,,,,,,,,3,6.402,1,,,,,,0.115555556,-0.235555556,1,0,0,6.402,Diorite_rect,8,0,8,0,1,
66130b23ee407564e718fcfd,SCN,2024-06-12_10h38.13.721,LearnStrategy,2023.2.3,MacIntel,66.66666667,5,2,10,,,,,,,,5,08,,,,,,,,,,,5,1.217,1,,,,,,-0.34,-0.411111111,1,0,0,1.217,Obsidian_rect,9,0,9,0,1,
66130b23ee407564e718fcfd,SCN,2024-06-12_10h38.13.721,LearnStrategy,2023.2.3,MacIntel,66.66666667,5,2,11,,,,,,,,7,05,,,,,,,,,,,7,4.148,1,,,,,,0.1,-0.413333333,1,0,0,4.148,Peridotite_rect,10,0,10,0,1,
66130b23ee407564e718fcfd,SCN,2024-06-12_10h38.13.721,LearnStrategy,2023.2.3,MacIntel,66.66666667,5,2,12,,,,,,,,6,11,,,,,,,,,,,6,1.8,1,,,,,,-0.06,-0.401111111,1,0,0,1.8,Pegmatite_rect,11,0,11,0,1,
66130b23ee407564e718fcfd,SCN,2024-06-12_10h38.13.721,LearnStrategy,2023.2.3,MacIntel,66.66666667,5,2,13,,,,,,,,6,07,,,,,,,,,,,6,0.865,1,,,,,,-0.06,-0.402222222,1,0,0,0.865,Pegmatite_rect,12,0,12,0,1,
66130b23ee407564e718fcfd,SCN,2024-06-12_10h38.13.721,LearnStrategy,2023.2.3,MacIntel,66.66666667,5,2,14,,,,,,,,2,05,,,,,,,,,,,2,1.655,1,,,,,,-0.114444444,-0.271111111,1,0,0,1.655,Basalt_rect,13,0,13,0,1,
66130b23ee407564e718fcfd,SCN,2024-06-12_10h38.13.721,LearnStrategy,2023.2.3,MacIntel,66.66666667,5,2,15,,,,,,,,8,08,,,,,,,,,,,8,1.545,1,,,,,,0.47,-0.394444444,1,0,0,1.545,Pumice_rect,14,0,14,0,1,
66130b23ee407564e718fcfd,SCN,2024-06-12_10h38.13.721,LearnStrategy,2023.2.3,MacIntel,66.66666667,5,2,16,,,,,,,,8,02,,,,,,,,,,,8,1.217,1,,,,,,0.454444444,-0.404444444,1,0,0,1.217,Pumice_rect,15,0,15,0,1,
66130b23ee407564e718fcfd,SCN,2024-06-12_10h38.13.721,LearnStrategy,2023.2.3,MacIntel,66.66666667,6,1,1,0.072222222,-0.093333333,1,0,0,2.067,Obsidian_16,5,16,3,5,2.067,-0.377777778,-0.392222222,1,0,0,0.883,Obsidian_rect,5,0.883,1,0,0,0,0,1,,,,,,,,,,,,,
66130b23ee407564e718fcfd,SCN,2024-06-12_10h38.13.721,LearnStrategy,2023.2.3,MacIntel,66.66666667,6,1,2,0.232222222,-0.247777778,1,0,0,1.066,Pumice_15,8,15,2,6,1.066,0.417777778,-0.41,1,0,0,0.971,Pumice_rect,8,0.971,1,1,0,1,0,1,,,,,,,,,,,,,
66130b23ee407564e718fcfd,SCN,2024-06-12_10h38.13.721,LearnStrategy,2023.2.3,MacIntel,66.66666667,6,1,3,-0.093333333,-0.41,1,0,0,1.365,Pumice_09,8,09,1,4,1.365,0.372222222,-0.4,1,0,0,2.07,Pumice_rect,8,2.07,1,2,0,2,0,1,,,,,,,,,,,,,
66130b23ee407564e718fcfd,SCN,2024-06-12_10h38.13.721,LearnStrategy,2023.2.3,MacIntel,66.66666667,6,1,4,-0.073333333,-0.096666667,1,0,0,1.316,Obsidian_04,5,04,3,4,1.316,-0.347777778,-0.378888889,1,0,0,1.357,Obsidian_rect,5,1.357,1,3,0,3,0,1,,,,,,,,,,,,,
66130b23ee407564e718fcfd,SCN,2024-06-12_10h38.13.721,LearnStrategy,2023.2.3,MacIntel,66.66666667,6,1,5,-0.528888889,0.401111111,1,0,0,1.498,Andesite_14,1,14,6,1,1.498,-0.392222222,-0.246666667,1,0,0,1.249,Andesite_rect,1,1.249,1,4,0,4,0,1,,,,,,,,,,,,,
66130b23ee407564e718fcfd,SCN,2024-06-12_10h38.13.721,LearnStrategy,2023.2.3,MacIntel,66.66666667,6,1,6,-0.397777778,0.398888889,1,0,0,1.048,Andesite_01,1,01,6,2,1.048,-0.387777778,-0.258888889,1,0,0,1.446,Andesite_rect,1,1.446,1,5,0,5,0,1,,,,,,,,,,,,,
66130b23ee407564e718fcfd,SCN,2024-06-12_10h38.13.721,LearnStrategy,2023.2.3,MacIntel,66.66666667,6,1,7,-0.064444444,-0.232222222,1,0,0,1.663,Basalt_09,2,09,2,4,1.663,-0.115555556,-0.238888889,1,0,0,0.702,Basalt_rect,2,0.702,1,6,0,6,0,1,,,,,,,,,,,,,
66130b23ee407564e718fcfd,SCN,2024-06-12_10h38.13.721,LearnStrategy,2023.2.3,MacIntel,66.66666667,6,1,8,0.444444444,-0.281111111,1,0,0,1.196,Basalt_10,2,10,2,7,1.196,-0.094444444,-0.243333333,1,0,0,1.232,Basalt_rect,2,1.232,1,7,0,7,0,1,,,,,,,,,,,,,
66130b23ee407564e718fcfd,SCN,2024-06-12_10h38.13.721,LearnStrategy,2023.2.3,MacIntel,66.66666667,6,1,9,0.556666667,-0.406666667,1,0,0,1.316,Andesite_06,1,06,1,8,1.316,0.187777778,-0.246666667,1,0,0,1.793,Diorite_rect,3,1.793,0,8,0,8,0,1,,,,,,,,,,,,,
66130b23ee407564e718fcfd,SCN,2024-06-12_10h38.13.721,LearnStrategy,2023.2.3,MacIntel,66.66666667,6,1,10,0.567777778,-0.115555556,1,0,0,1.849,Andesite_02,1,02,3,8,1.849,0.123333333,-0.26,1,0,0,2.578,Diorite_rect,3,2.578,0,9,0,9,0,1,,,,,,,,,,,,,
66130b23ee407564e718fcfd,SCN,2024-06-12_10h38.13.721,LearnStrategy,2023.2.3,MacIntel,66.66666667,6,1,11,-0.571111111,-0.076666667,1,0,0,1.215,Pumice_10,8,10,3,1,1.215,0.348888889,-0.407777778,1,0,0,1.351,Pumice_rect,8,1.351,1,10,0,10,0,1,,,,,,,,,,,,,
66130b23ee407564e718fcfd,SCN,2024-06-12_10h38.13.721,LearnStrategy,2023.2.3,MacIntel,66.66666667,6,1,12,-0.39,-0.412222222,1,0,0,1.081,Pegmatite_10,6,10,1,2,1.081,0.106666667,-0.405555556,1,0,0,1.604,Peridotite_rect,7,1.604,0,11,0,11,0,1,,,,,,,,,,,,,
66130b23ee407564e718fcfd,SCN,2024-06-12_10h38.13.721,LearnStrategy,2023.2.3,MacIntel,66.66666667,6,1,13,-0.213333333,0.083333333,1,0,0,1.399,Pegmatite_16,6,16,4,3,1.399,-0.094444444,-0.392222222,1,0,0,1.023,Pegmatite_rect,6,1.023,1,12,0,12,0,1,,,,,,,,,,,,,
66130b23ee407564e718fcfd,SCN,2024-06-12_10h38.13.721,LearnStrategy,2023.2.3,MacIntel,66.66666667,6,1,14,-0.19,-0.424444444,1,0,0,1.832,Peridotite_12,7,12,1,3,1.832,0.161111111,-0.411111111,1,0,0,2.912,Peridotite_rect,7,2.912,1,13,0,13,0,1,,,,,,,,,,,,,
66130b23ee407564e718fcfd,SCN,2024-06-12_10h38.13.721,LearnStrategy,2023.2.3,MacIntel,66.66666667,6,1,15,-0.058888889,0.104444444,1,0,0,1.115,Obsidian_05,5,05,4,4,1.115,-0.341111111,-0.404444444,1,0,0,0.927,Obsidian_rect,5,0.927,1,14,0,14,0,1,,,,,,,,,,,,,
66130b23ee407564e718fcfd,SCN,2024-06-12_10h38.13.721,LearnStrategy,2023.2.3,MacIntel,66.66666667,6,1,16,0.404444444,0.394444444,1,0,0,1.749,Gabbro_15,4,15,6,7,1.749,0.146666667,-0.245555556,1,0,0,1.776,Diorite_rect,3,1.776,0,15,0,15,0,1,,,,,,,,,,,,,
66130b23ee407564e718fcfd,SCN,2024-06-12_10h38.13.721,LearnStrategy,2023.2.3,MacIntel,66.66666667,6,2,1,,,,,,,,7,08,,,,,,,,,,,7,3.418,1,,,,,,0.103333333,-0.415555556,1,0,0,3.418,Peridotite_rect,0,0,0,0,1,
66130b23ee407564e718fcfd,SCN,2024-06-12_10h38.13.721,LearnStrategy,2023.2.3,MacIntel,66.66666667,6,2,2,,,,,,,,4,14,,,,,,,,,,,4,22.461,1,,,,,,0.414444444,-0.242222222,1,0,0,22.461,Gabbro_rect,1,0,1,0,1,
66130b23ee407564e718fcfd,SCN,2024-06-12_10h38.13.721,LearnStrategy,2023.2.3,MacIntel,66.66666667,6,2,3,,,,,,,,8,06,,,,,,,,,,,8,1.894,1,,,,,,0.428888889,-0.41,1,0,0,1.894,Pumice_rect,2,0,2,0,1,
66130b23ee407564e718fcfd,SCN,2024-06-12_10h38.13.721,LearnStrategy,2023.2.3,MacIntel,66.66666667,6,2,4,,,,,,,,2,04,,,,,,,,,,,2,1.503,1,,,,,,-0.08,-0.244444444,1,0,0,1.503,Basalt_rect,3,0,3,0,1,
66130b23ee407564e718fcfd,SCN,2024-06-12_10h38.13.721,LearnStrategy,2023.2.3,MacIntel,66.66666667,6,2,5,,,,,,,,2,12,,,,,,,,,,,1,3.963,0,,,,,,-0.353333333,-0.258888889,1,0,0,3.963,Andesite_rect,4,0,4,0,1,
66130b23ee407564e718fcfd,SCN,2024-06-12_10h38.13.721,LearnStrategy,2023.2.3,MacIntel,66.66666667,6,2,6,,,,,,,,6,09,,,,,,,,,,,6,11.636,1,,,,,,-0.144444444,-0.392222222,1,0,0,11.636,Pegmatite_rect,5,0,5,0,1,
66130b23ee407564e718fcfd,SCN,2024-06-12_10h38.13.721,LearnStrategy,2023.2.3,MacIntel,66.66666667,6,2,7,,,,,,,,5,06,,,,,,,,,,,5,2.583,1,,,,,,-0.392222222,-0.4,1,0,0,2.583,Obsidian_rect,6,0,6,0,1,
66130b23ee407564e718fcfd,SCN,2024-06-12_10h38.13.721,LearnStrategy,2023.2.3,MacIntel,66.66666667,6,2,8,,,,,,,,3,09,,,,,,,,,,,1,11.822,0,,,,,,-0.426666667,-0.25,1,0,0,11.822,Andesite_rect,7,0,7,0,1,
66130b23ee407564e718fcfd,SCN,2024-06-12_10h38.13.721,LearnStrategy,2023.2.3,MacIntel,66.66666667,6,2,9,,,,,,,,5,12,,,,,,,,,,,5,1.218,1,,,,,,-0.361111111,-0.414444444,1,0,0,1.218,Obsidian_rect,8,0,8,0,1,
66130b23ee407564e718fcfd,SCN,2024-06-12_10h38.13.721,LearnStrategy,2023.2.3,MacIntel,66.66666667,6,2,10,,,,,,,,7,10,,,,,,,,,,,6,1.413,0,,,,,,-0.107777778,-0.393333333,1,0,0,1.413,Pegmatite_rect,9,0,9,0,1,
66130b23ee407564e718fcfd,SCN,2024-06-12_10h38.13.721,LearnStrategy,2023.2.3,MacIntel,66.66666667,6,2,11,,,,,,,,1,07,,,,,,,,,,,1,30.983,1,,,,,,-0.364444444,-0.265555556,1,0,0,30.983,Andesite_rect,10,0,10,0,1,
66130b23ee407564e718fcfd,SCN,2024-06-12_10h38.13.721,LearnStrategy,2023.2.3,MacIntel,66.66666667,6,2,12,,,,,,,,3,14,,,,,,,,,,,3,13.055,1,,,,,,0.094444444,-0.266666667,1,0,0,13.055,Diorite_rect,11,0,11,0,1,
66130b23ee407564e718fcfd,SCN,2024-06-12_10h38.13.721,LearnStrategy,2023.2.3,MacIntel,66.66666667,6,2,13,,,,,,,,8,16,,,,,,,,,,,8,2.404,1,,,,,,0.355555556,-0.385555556,1,0,0,2.404,Pumice_rect,12,0,12,0,1,
66130b23ee407564e718fcfd,SCN,2024-06-12_10h38.13.721,LearnStrategy,2023.2.3,MacIntel,66.66666667,6,2,14,,,,,,,,4,08,,,,,,,,,,,1,3.846,0,,,,,,-0.383333333,-0.262222222,1,0,0,3.846,Andesite_rect,13,0,13,0,1,
66130b23ee407564e718fcfd,SCN,2024-06-12_10h38.13.721,LearnStrategy,2023.2.3,MacIntel,66.66666667,6,2,15,,,,,,,,6,06,,,,,,,,,,,6,2.443,1,,,,,,-0.093333333,-0.393333333,1,0,0,2.443,Pegmatite_rect,14,0,14,0,1,
66130b23ee407564e718fcfd,SCN,2024-06-12_10h38.13.721,LearnStrategy,2023.2.3,MacIntel,66.66666667,6,2,16,,,,,,,,1,03,,,,,,,,,,,4,8.783,0,,,,,,0.406666667,-0.247777778,1,0,0,8.783,Gabbro_rect,15,0,15,0,1,
66130b23ee407564e718fcfd,SCN,2024-06-12_10h38.13.721,LearnStrategy,2023.2.3,MacIntel,66.66666667,7,1,1,-0.102222222,-0.093333333,1,0,0,1.214,Obsidian_04,5,04,3,4,1.214,-0.405555556,-0.394444444,1,0,0,0.949,Obsidian_rect,5,0.949,1,0,0,0,0,1,,,,,,,,,,,,,
66130b23ee407564e718fcfd,SCN,2024-06-12_10h38.13.721,LearnStrategy,2023.2.3,MacIntel,66.66666667,7,1,2,-0.051111111,0.091111111,1,0,0,1.048,Obsidian_05,5,05,4,4,1.048,-0.372222222,-0.402222222,1,0,0,1.059,Obsidian_rect,5,1.059,1,1,0,1,0,1,,,,,,,,,,,,,
66130b23ee407564e718fcfd,SCN,2024-06-12_10h38.13.721,LearnStrategy,2023.2.3,MacIntel,66.66666667,7,1,3,0.566666667,0.084444444,1,0,0,1.098,Peridotite_14,7,14,4,8,1.098,0.097777778,-0.395555556,1,0,0,9.425,Peridotite_rect,7,9.425,1,2,0,2,0,1,,,,,,,,,,,,,
66130b23ee407564e718fcfd,SCN,2024-06-12_10h38.13.721,LearnStrategy,2023.2.3,MacIntel,66.66666667,7,1,4,-0.243333333,-0.276666667,1,0,0,1.347,Pegmatite_05,6,05,2,3,1.347,-0.165555556,-0.401111111,1,0,0,1.511,Pegmatite_rect,6,1.511,1,3,0,3,0,1,,,,,,,,,,,,,
66130b23ee407564e718fcfd,SCN,2024-06-12_10h38.13.721,LearnStrategy,2023.2.3,MacIntel,66.66666667,7,1,5,0.553333333,0.401111111,1,0,0,2.231,Obsidian_02,5,02,6,8,2.231,-0.423333333,-0.392222222,1,0,0,1.426,Obsidian_rect,5,1.426,1,4,0,4,0,1,,,,,,,,,,,,,
66130b23ee407564e718fcfd,SCN,2024-06-12_10h38.13.721,LearnStrategy,2023.2.3,MacIntel,66.66666667,7,1,6,-0.554444444,-0.253333333,1,0,0,1.145,Pumice_14,8,14,2,1,1.145,0.4,-0.391111111,1,0,0,1.164,Pumice_rect,8,1.164,1,5,0,5,0,1,,,,,,,,,,,,,
66130b23ee407564e718fcfd,SCN,2024-06-12_10h38.13.721,LearnStrategy,2023.2.3,MacIntel,66.66666667,7,1,7,0.087777778,-0.262222222,1,0,0,1.382,Basalt_01,2,01,2,5,1.382,-0.137777778,-0.266666667,1,0,0,0.892,Basalt_rect,2,0.892,1,6,0,6,0,1,,,,,,,,,,,,,
66130b23ee407564e718fcfd,SCN,2024-06-12_10h38.13.721,LearnStrategy,2023.2.3,MacIntel,66.66666667,7,1,8,0.387777778,-0.374444444,1,0,0,1.133,Diorite_12,3,12,1,7,1.133,0.14,-0.253333333,1,0,0,6.448,Diorite_rect,3,6.448,1,7,0,7,0,1,,,,,,,,,,,,,
66130b23ee407564e718fcfd,SCN,2024-06-12_10h38.13.721,LearnStrategy,2023.2.3,MacIntel,66.66666667,7,1,9,-0.222222222,-0.131111111,1,0,0,1.449,Diorite_08,3,08,3,3,1.449,-0.444444444,-0.255555556,1,0,0,20.22,Andesite_rect,1,20.22,0,8,0,8,0,1,,,,,,,,,,,,,
66130b23ee407564e718fcfd,SCN,2024-06-12_10h38.13.721,LearnStrategy,2023.2.3,MacIntel,66.66666667,7,1,10,-0.236666667,0.091111111,1,0,0,1.798,Pegmatite_16,6,16,4,3,1.798,-0.133333333,-0.39,1,0,0,1.011,Pegmatite_rect,6,1.011,1,9,0,9,0,1,,,,,,,,,,,,,
66130b23ee407564e718fcfd,SCN,2024-06-12_10h38.13.721,LearnStrategy,2023.2.3,MacIntel,66.66666667,7,1,11,-0.395555556,-0.085555556,1,0,0,1.332,Gabbro_12,4,12,3,2,1.332,-0.165555556,-0.26,1,0,0,0.941,Basalt_rect,2,0.941,0,10,0,10,0,1,,,,,,,,,,,,,
66130b23ee407564e718fcfd,SCN,2024-06-12_10h38.13.721,LearnStrategy,2023.2.3,MacIntel,66.66666667,7,1,12,-0.113333333,-0.247777778,1,0,0,1.3,Basalt_09,2,09,2,4,1.3,-0.165555556,-0.261111111,1,0,0,1.263,Basalt_rect,2,1.263,1,11,0,11,0,1,,,,,,,,,,,,,
66130b23ee407564e718fcfd,SCN,2024-06-12_10h38.13.721,LearnStrategy,2023.2.3,MacIntel,66.66666667,7,1,13,0.054444444,-0.237777778,1,0,0,0.999,Basalt_01,2,01,2,5,0.999,-0.114444444,-0.25,1,0,0,1.638,Basalt_rect,2,1.638,1,12,0,12,0,1,,,,,,,,,,,,,
66130b23ee407564e718fcfd,SCN,2024-06-12_10h38.13.721,LearnStrategy,2023.2.3,MacIntel,66.66666667,7,1,14,-0.275555556,-0.423333333,1,0,0,1.748,Peridotite_12,7,12,1,3,1.748,0.083333333,-0.414444444,1,0,0,2.348,Peridotite_rect,7,2.348,1,13,0,13,0,1,,,,,,,,,,,,,
66130b23ee407564e718fcfd,SCN,2024-06-12_10h38.13.721,LearnStrategy,2023.2.3,MacIntel,66.66666667,7,1,15,-0.192222222,0.382222222,1,0,0,2.465,Diorite_06,3,06,6,3,2.465,0.144444444,-0.262222222,1,0,0,2.729,Diorite_rect,3,2.729,1,14,0,14,0,1,,,,,,,,,,,,,
66130b23ee407564e718fcfd,SCN,2024-06-12_10h38.13.721,LearnStrategy,2023.2.3,MacIntel,66.66666667,7,1,16,-0.563333333,-0.42,1,0,0,1.182,Diorite_13,3,13,1,1,1.182,0.072222222,-0.238888889,1,0,0,2.252,Diorite_rect,3,2.252,1,15,0,15,0,1,,,,,,,,,,,,,
66130b23ee407564e718fcfd,SCN,2024-06-12_10h38.13.721,LearnStrategy,2023.2.3,MacIntel,66.66666667,7,2,1,,,,,,,,4,16,,,,,,,,,,,4,3.634,1,,,,,,0.342222222,-0.25,1,0,0,3.634,Gabbro_rect,0,0,0,0,1,
66130b23ee407564e718fcfd,SCN,2024-06-12_10h38.13.721,LearnStrategy,2023.2.3,MacIntel,66.66666667,7,2,2,,,,,,,,5,08,,,,,,,,,,,5,1.273,1,,,,,,-0.384444444,-0.415555556,1,0,0,1.273,Obsidian_rect,1,0,1,0,1,
66130b23ee407564e718fcfd,SCN,2024-06-12_10h38.13.721,LearnStrategy,2023.2.3,MacIntel,66.66666667,7,2,3,,,,,,,,6,06,,,,,,,,,,,6,2.63,1,,,,,,-0.155555556,-0.421111111,1,0,0,2.63,Pegmatite_rect,2,0,2,0,1,
66130b23ee407564e718fcfd,SCN,2024-06-12_10h38.13.721,LearnStrategy,2023.2.3,MacIntel,66.66666667,7,2,4,,,,,,,,1,09,,,,,,,,,,,4,8.509,0,,,,,,0.341111111,-0.26,1,0,0,8.509,Gabbro_rect,3,0,3,0,1,
66130b23ee407564e718fcfd,SCN,2024-06-12_10h38.13.721,LearnStrategy,2023.2.3,MacIntel,66.66666667,7,2,5,,,,,,,,6,11,,,,,,,,,,,6,1.334,1,,,,,,-0.167777778,-0.404444444,1,0,0,1.334,Pegmatite_rect,4,0,4,0,1,
66130b23ee407564e718fcfd,SCN,2024-06-12_10h38.13.721,LearnStrategy,2023.2.3,MacIntel,66.66666667,7,2,6,,,,,,,,3,11,,,,,,,,,,,3,9.747,1,,,,,,0.147777778,-0.253333333,1,0,0,9.747,Diorite_rect,5,0,5,0,1,
66130b23ee407564e718fcfd,SCN,2024-06-12_10h38.13.721,LearnStrategy,2023.2.3,MacIntel,66.66666667,7,2,7,,,,,,,,4,03,,,,,,,,,,,1,16.71,0,,,,,,-0.396666667,-0.247777778,1,0,0,16.71,Andesite_rect,6,0,6,0,1,
66130b23ee407564e718fcfd,SCN,2024-06-12_10h38.13.721,LearnStrategy,2023.2.3,MacIntel,66.66666667,7,2,8,,,,,,,,3,07,,,,,,,,,,,4,10.54,0,,,,,,0.344444444,-0.261111111,1,0,0,10.54,Gabbro_rect,7,0,7,0,1,
66130b23ee407564e718fcfd,SCN,2024-06-12_10h38.13.721,LearnStrategy,2023.2.3,MacIntel,66.66666667,7,2,9,,,,,,,,2,12,,,,,,,,,,,8,1.573,0,,,,,,0.33,-0.402222222,1,0,0,1.573,Pumice_rect,8,0,8,0,1,
66130b23ee407564e718fcfd,SCN,2024-06-12_10h38.13.721,LearnStrategy,2023.2.3,MacIntel,66.66666667,7,2,10,,,,,,,,1,03,,,,,,,,,,,4,2.145,0,,,,,,0.343333333,-0.247777778,1,0,0,2.145,Gabbro_rect,9,0,9,0,1,
66130b23ee407564e718fcfd,SCN,2024-06-12_10h38.13.721,LearnStrategy,2023.2.3,MacIntel,66.66666667,7,2,11,,,,,,,,5,06,,,,,,,,,,,5,1.396,1,,,,,,-0.39,-0.411111111,1,0,0,1.396,Obsidian_rect,10,0,10,0,1,
66130b23ee407564e718fcfd,SCN,2024-06-12_10h38.13.721,LearnStrategy,2023.2.3,MacIntel,66.66666667,7,2,12,,,,,,,,7,10,,,,,,,,,,,7,31.619,1,,,,,,0.08,-0.41,1,0,0,31.619,Peridotite_rect,11,0,11,0,1,
66130b23ee407564e718fcfd,SCN,2024-06-12_10h38.13.721,LearnStrategy,2023.2.3,MacIntel,66.66666667,7,2,13,,,,,,,,2,16,,,,,,,,,,,3,13.1,0,,,,,,0.095555556,-0.254444444,1,0,0,13.1,Diorite_rect,12,0,12,0,1,
66130b23ee407564e718fcfd,SCN,2024-06-12_10h38.13.721,LearnStrategy,2023.2.3,MacIntel,66.66666667,7,2,14,,,,,,,,8,08,,,,,,,,,,,8,2.331,1,,,,,,0.431111111,-0.411111111,1,0,0,2.331,Pumice_rect,13,0,13,0,1,
66130b23ee407564e718fcfd,SCN,2024-06-12_10h38.13.721,LearnStrategy,2023.2.3,MacIntel,66.66666667,7,2,15,,,,,,,,8,13,,,,,,,,,,,3,13.678,0,,,,,,0.224444444,-0.234444444,1,0,0,13.678,Diorite_rect,14,0,14,0,1,
66130b23ee407564e718fcfd,SCN,2024-06-12_10h38.13.721,LearnStrategy,2023.2.3,MacIntel,66.66666667,7,2,16,,,,,,,,7,15,,,,,,,,,,,7,9.775,1,,,,,,0.117777778,-0.406666667,1,0,0,9.775,Peridotite_rect,15,0,15,0,1,
66130b23ee407564e718fcfd,SCN,2024-06-12_10h38.13.721,LearnStrategy,2023.2.3,MacIntel,66.66666667,8,1,1,-0.126666667,-0.137777778,1,0,0,1.183,Obsidian_04,5,04,3,4,1.183,-0.348888889,-0.397777778,1,0,0,1.081,Obsidian_rect,5,1.081,1,0,0,0,0,1,,,,,,,,,,,,,
66130b23ee407564e718fcfd,SCN,2024-06-12_10h38.13.721,LearnStrategy,2023.2.3,MacIntel,66.66666667,8,1,2,-0.202222222,-0.1,1,0,0,0.648,Diorite_08,3,08,3,3,0.648,0.105555556,-0.246666667,1,0,0,2.997,Diorite_rect,3,2.997,1,1,0,1,0,1,,,,,,,,,,,,,
66130b23ee407564e718fcfd,SCN,2024-06-12_10h38.13.721,LearnStrategy,2023.2.3,MacIntel,66.66666667,8,1,3,-0.378888889,-0.097777778,1,0,0,0.948,Gabbro_12,4,12,3,2,0.948,-0.076666667,-0.237777778,1,0,0,0.897,Basalt_rect,2,0.897,0,2,0,2,0,1,,,,,,,,,,,,,
66130b23ee407564e718fcfd,SCN,2024-06-12_10h38.13.721,LearnStrategy,2023.2.3,MacIntel,66.66666667,8,1,4,-0.545555556,-0.116666667,1,0,0,1.131,Pumice_10,8,10,3,1,1.131,0.436666667,-0.412222222,1,0,0,1.413,Pumice_rect,8,1.413,1,3,0,3,0,1,,,,,,,,,,,,,
66130b23ee407564e718fcfd,SCN,2024-06-12_10h38.13.721,LearnStrategy,2023.2.3,MacIntel,66.66666667,8,1,5,-0.382222222,-0.423333333,1,0,0,0.966,Pegmatite_10,6,10,1,2,0.966,-0.078888889,-0.404444444,1,0,0,2.79,Pegmatite_rect,6,2.79,1,4,0,4,0,1,,,,,,,,,,,,,
66130b23ee407564e718fcfd,SCN,2024-06-12_10h38.13.721,LearnStrategy,2023.2.3,MacIntel,66.66666667,8,1,6,-0.57,0.246666667,1,0,0,1.232,Pegmatite_13,6,13,5,1,1.232,-0.177777778,-0.397777778,1,0,0,1.323,Pegmatite_rect,6,1.323,1,5,0,5,0,1,,,,,,,,,,,,,
66130b23ee407564e718fcfd,SCN,2024-06-12_10h38.13.721,LearnStrategy,2023.2.3,MacIntel,66.66666667,8,1,7,-0.234444444,0.232222222,1,0,0,3.747,Peridotite_04,7,04,5,3,3.747,-0.158888889,-0.4,1,0,0,1.736,Pegmatite_rect,6,1.736,0,6,0,6,0,1,,,,,,,,,,,,,
66130b23ee407564e718fcfd,SCN,2024-06-12_10h38.13.721,LearnStrategy,2023.2.3,MacIntel,66.66666667,8,1,8,-0.556666667,-0.424444444,1,0,0,0.999,Diorite_13,3,13,1,1,0.999,0.208888889,-0.4,1,0,0,4.591,Peridotite_rect,7,4.591,0,7,0,7,0,1,,,,,,,,,,,,,
66130b23ee407564e718fcfd,SCN,2024-06-12_10h38.13.721,LearnStrategy,2023.2.3,MacIntel,66.66666667,8,1,9,0.556666667,-0.424444444,1,0,0,1.083,Andesite_06,1,06,1,8,1.083,-0.365555556,-0.258888889,1,0,0,3.201,Andesite_rect,1,3.201,1,8,0,8,0,1,,,,,,,,,,,,,
66130b23ee407564e718fcfd,SCN,2024-06-12_10h38.13.721,LearnStrategy,2023.2.3,MacIntel,66.66666667,8,1,10,-0.373333333,0.082222222,1,0,0,0.931,Peridotite_02,7,02,4,2,0.931,0.091111111,-0.396666667,1,0,0,1.741,Peridotite_rect,7,1.741,1,9,0,9,0,1,,,,,,,,,,,,,
66130b23ee407564e718fcfd,SCN,2024-06-12_10h38.13.721,LearnStrategy,2023.2.3,MacIntel,66.66666667,8,1,11,-0.077777778,0.094444444,1,0,0,1.099,Obsidian_05,5,05,4,4,1.099,-0.388888889,-0.403333333,1,0,0,0.846,Obsidian_rect,5,0.846,1,10,0,10,0,1,,,,,,,,,,,,,
66130b23ee407564e718fcfd,SCN,2024-06-12_10h38.13.721,LearnStrategy,2023.2.3,MacIntel,66.66666667,8,1,12,-0.358888889,0.267777778,1,0,0,3.329,Diorite_15,3,15,5,2,3.329,0.122222222,-0.263333333,1,0,0,1.972,Diorite_rect,3,1.972,1,11,0,11,0,1,,,,,,,,,,,,,
66130b23ee407564e718fcfd,SCN,2024-06-12_10h38.13.721,LearnStrategy,2023.2.3,MacIntel,66.66666667,8,1,13,0.057777778,0.241111111,1,0,0,1.283,Gabbro_10,4,10,5,5,1.283,0.345555556,-0.246666667,1,0,0,2.445,Gabbro_rect,4,2.445,1,12,0,12,0,1,,,,,,,,,,,,,
66130b23ee407564e718fcfd,SCN,2024-06-12_10h38.13.721,LearnStrategy,2023.2.3,MacIntel,66.66666667,8,1,14,0.571111111,-0.273333333,1,0,0,1.167,Obsidian_11,5,11,2,8,1.167,-0.396666667,-0.382222222,1,0,0,1.114,Obsidian_rect,5,1.114,1,13,0,13,0,1,,,,,,,,,,,,,
66130b23ee407564e718fcfd,SCN,2024-06-12_10h38.13.721,LearnStrategy,2023.2.3,MacIntel,66.66666667,8,1,15,0.266666667,-0.097777778,1,0,0,2.916,Obsidian_07,5,07,3,6,2.916,-0.407777778,-0.386666667,1,0,0,1.229,Obsidian_rect,5,1.229,1,14,0,14,0,1,,,,,,,,,,,,,
66130b23ee407564e718fcfd,SCN,2024-06-12_10h38.13.721,LearnStrategy,2023.2.3,MacIntel,66.66666667,8,1,16,-0.187777778,-0.433333333,1,0,0,2.381,Peridotite_12,7,12,1,3,2.381,0.07,-0.414444444,1,0,0,2.129,Peridotite_rect,7,2.129,1,15,0,15,0,1,,,,,,,,,,,,,
66130b23ee407564e718fcfd,SCN,2024-06-12_10h38.13.721,LearnStrategy,2023.2.3,MacIntel,66.66666667,8,2,1,,,,,,,,3,02,,,,,,,,,,,1,17.166,0,,,,,,-0.428888889,-0.262222222,1,0,0,17.166,Andesite_rect,0,0,0,0,1,
66130b23ee407564e718fcfd,SCN,2024-06-12_10h38.13.721,LearnStrategy,2023.2.3,MacIntel,66.66666667,8,2,2,,,,,,,,6,08,,,,,,,,,,,6,1.73,1,,,,,,-0.181111111,-0.404444444,1,0,0,1.73,Pegmatite_rect,1,0,1,0,1,
66130b23ee407564e718fcfd,SCN,2024-06-12_10h38.13.721,LearnStrategy,2023.2.3,MacIntel,66.66666667,8,2,3,,,,,,,,4,13,,,,,,,,,,,4,7.344,1,,,,,,0.348888889,-0.255555556,1,0,0,7.344,Gabbro_rect,2,0,2,0,1,
66130b23ee407564e718fcfd,SCN,2024-06-12_10h38.13.721,LearnStrategy,2023.2.3,MacIntel,66.66666667,8,2,4,,,,,,,,8,02,,,,,,,,,,,8,1.294,1,,,,,,0.423333333,-0.384444444,1,0,0,1.294,Pumice_rect,3,0,3,0,1,
66130b23ee407564e718fcfd,SCN,2024-06-12_10h38.13.721,LearnStrategy,2023.2.3,MacIntel,66.66666667,8,2,5,,,,,,,,7,08,,,,,,,,,,,7,8.414,1,,,,,,0.141111111,-0.415555556,1,0,0,8.414,Peridotite_rect,4,0,4,0,1,
66130b23ee407564e718fcfd,SCN,2024-06-12_10h38.13.721,LearnStrategy,2023.2.3,MacIntel,66.66666667,8,2,6,,,,,,,,7,06,,,,,,,,,,,7,5.164,1,,,,,,0.141111111,-0.415555556,1,0,0,5.164,Peridotite_rect,5,0,5,0,1,
66130b23ee407564e718fcfd,SCN,2024-06-12_10h38.13.721,LearnStrategy,2023.2.3,MacIntel,66.66666667,8,2,7,,,,,,,,6,09,,,,,,,,,,,6,14.106,1,,,,,,-0.094444444,-0.405555556,1,0,0,14.106,Pegmatite_rect,6,0,6,0,1,
66130b23ee407564e718fcfd,SCN,2024-06-12_10h38.13.721,LearnStrategy,2023.2.3,MacIntel,66.66666667,8,2,8,,,,,,,,2,08,,,,,,,,,,,2,1.503,1,,,,,,-0.128888889,-0.258888889,1,0,0,1.503,Basalt_rect,7,0,7,0,1,
66130b23ee407564e718fcfd,SCN,2024-06-12_10h38.13.721,LearnStrategy,2023.2.3,MacIntel,66.66666667,8,2,9,,,,,,,,3,16,,,,,,,,,,,3,14.684,1,,,,,,0.155555556,-0.261111111,1,0,0,14.684,Diorite_rect,8,0,8,0,1,
66130b23ee407564e718fcfd,SCN,2024-06-12_10h38.13.721,LearnStrategy,2023.2.3,MacIntel,66.66666667,8,2,10,,,,,,,,5,12,,,,,,,,,,,5,1.431,1,,,,,,-0.39,-0.408888889,1,0,0,1.431,Obsidian_rect,9,0,9,0,1,
66130b23ee407564e718fcfd,SCN,2024-06-12_10h38.13.721,LearnStrategy,2023.2.3,MacIntel,66.66666667,8,2,11,,,,,,,,8,06,,,,,,,,,,,8,2.067,1,,,,,,0.452222222,-0.386666667,1,0,0,2.067,Pumice_rect,10,0,10,0,1,
66130b23ee407564e718fcfd,SCN,2024-06-12_10h38.13.721,LearnStrategy,2023.2.3,MacIntel,66.66666667,8,2,12,,,,,,,,2,05,,,,,,,,,,,2,1.357,1,,,,,,-0.067777778,-0.254444444,1,0,0,1.357,Basalt_rect,11,0,11,0,1,
66130b23ee407564e718fcfd,SCN,2024-06-12_10h38.13.721,LearnStrategy,2023.2.3,MacIntel,66.66666667,8,2,13,,,,,,,,4,08,,,,,,,,,,,1,7.545,0,,,,,,-0.425555556,-0.238888889,1,0,0,7.545,Andesite_rect,12,0,12,0,1,
66130b23ee407564e718fcfd,SCN,2024-06-12_10h38.13.721,LearnStrategy,2023.2.3,MacIntel,66.66666667,8,2,14,,,,,,,,1,05,,,,,,,,,,,1,11.243,1,,,,,,-0.37,-0.267777778,1,0,0,11.243,Andesite_rect,13,0,13,0,1,
66130b23ee407564e718fcfd,SCN,2024-06-12_10h38.13.721,LearnStrategy,2023.2.3,MacIntel,66.66666667,8,2,15,,,,,,,,1,11,,,,,,,,,,,1,4.584,1,,,,,,-0.37,-0.267777778,1,0,0,4.584,Andesite_rect,14,0,14,0,1,
66130b23ee407564e718fcfd,SCN,2024-06-12_10h38.13.721,LearnStrategy,2023.2.3,MacIntel,66.66666667,8,2,16,,,,,,,,5,10,,,,,,,,,,,5,1.478,1,,,,,,-0.37,-0.415555556,1,0,0,1.478,Obsidian_rect,15,0,15,0,1,
66130b23ee407564e718fcfd,SCN,2024-06-12_10h38.13.721,LearnStrategy,2023.2.3,MacIntel,66.66666667,9,1,1,0.073333333,-0.114444444,1,0,0,0.865,Obsidian_16,5,16,3,5,0.865,-0.333333333,-0.402222222,1,0,0,1.075,Obsidian_rect,5,1.075,1,0,0,0,0,1,,,,,,,,,,,,,
66130b23ee407564e718fcfd,SCN,2024-06-12_10h38.13.721,LearnStrategy,2023.2.3,MacIntel,66.66666667,9,1,2,-0.063333333,-0.094444444,1,0,0,0.649,Obsidian_04,5,04,3,4,0.649,-0.365555556,-0.385555556,1,0,0,0.921,Obsidian_rect,5,0.921,1,1,0,1,0,1,,,,,,,,,,,,,
66130b23ee407564e718fcfd,SCN,2024-06-12_10h38.13.721,LearnStrategy,2023.2.3,MacIntel,66.66666667,9,1,3,0.563333333,-0.106666667,1,0,0,1.131,Andesite_02,1,02,3,8,1.131,0.408888889,-0.242222222,1,0,0,3.143,Gabbro_rect,4,3.143,0,2,0,2,0,1,,,,,,,,,,,,,
66130b23ee407564e718fcfd,SCN,2024-06-12_10h38.13.721,LearnStrategy,2023.2.3,MacIntel,66.66666667,9,1,4,0.402222222,-0.116666667,1,0,0,1.014,Basalt_14,2,14,3,7,1.014,-0.137777778,-0.258888889,1,0,0,2.082,Basalt_rect,2,2.082,1,3,0,3,0,1,,,,,,,,,,,,,
66130b23ee407564e718fcfd,SCN,2024-06-12_10h38.13.721,LearnStrategy,2023.2.3,MacIntel,66.66666667,9,1,5,0.202222222,-0.105555556,1,0,0,1.283,Obsidian_07,5,07,3,6,1.283,-0.33,-0.413333333,1,0,0,1.332,Obsidian_rect,5,1.332,1,4,0,4,0,1,,,,,,,,,,,,,
66130b23ee407564e718fcfd,SCN,2024-06-12_10h38.13.721,LearnStrategy,2023.2.3,MacIntel,66.66666667,9,1,6,-0.576666667,0.253333333,1,0,0,1.298,Pegmatite_13,6,13,5,1,1.298,-0.175555556,-0.412222222,1,0,0,2.382,Pegmatite_rect,6,2.382,1,5,0,5,0,1,,,,,,,,,,,,,
66130b23ee407564e718fcfd,SCN,2024-06-12_10h38.13.721,LearnStrategy,2023.2.3,MacIntel,66.66666667,9,1,7,0.228888889,-0.434444444,1,0,0,1.482,Peridotite_16,7,16,1,6,1.482,0.172222222,-0.413333333,1,0,0,1.249,Peridotite_rect,7,1.249,1,6,0,6,0,1,,,,,,,,,,,,,
66130b23ee407564e718fcfd,SCN,2024-06-12_10h38.13.721,LearnStrategy,2023.2.3,MacIntel,66.66666667,9,1,8,0.418888889,-0.403333333,1,0,0,1.564,Diorite_12,3,12,1,7,1.564,0.192222222,-0.245555556,1,0,0,3.147,Diorite_rect,3,3.147,1,7,0,7,0,1,,,,,,,,,,,,,
66130b23ee407564e718fcfd,SCN,2024-06-12_10h38.13.721,LearnStrategy,2023.2.3,MacIntel,66.66666667,9,1,9,-0.533333333,0.216666667,1,0,0,1.565,Pegmatite_13,6,13,5,1,1.565,-0.194444444,-0.41,1,0,0,1.636,Pegmatite_rect,6,1.636,1,8,0,8,0,1,,,,,,,,,,,,,
66130b23ee407564e718fcfd,SCN,2024-06-12_10h38.13.721,LearnStrategy,2023.2.3,MacIntel,66.66666667,9,1,10,-0.245555556,-0.377777778,1,0,0,1.182,Peridotite_12,7,12,1,3,1.182,0.083333333,-0.421111111,1,0,0,2.769,Peridotite_rect,7,2.769,1,9,0,9,0,1,,,,,,,,,,,,,
66130b23ee407564e718fcfd,SCN,2024-06-12_10h38.13.721,LearnStrategy,2023.2.3,MacIntel,66.66666667,9,1,11,0.428888889,-0.417777778,1,0,0,1.064,Diorite_12,3,12,1,7,1.064,0.164444444,-0.256666667,1,0,0,2.358,Diorite_rect,3,2.358,1,10,0,10,0,1,,,,,,,,,,,,,
66130b23ee407564e718fcfd,SCN,2024-06-12_10h38.13.721,LearnStrategy,2023.2.3,MacIntel,66.66666667,9,1,12,0.537777778,-0.101111111,1,0,0,1.383,Andesite_02,1,02,3,8,1.383,-0.448888889,-0.261111111,1,0,0,1.539,Andesite_rect,1,1.539,1,11,0,11,0,1,,,,,,,,,,,,,
66130b23ee407564e718fcfd,SCN,2024-06-12_10h38.13.721,LearnStrategy,2023.2.3,MacIntel,66.66666667,9,1,13,0.571111111,-0.391111111,1,0,0,1,Andesite_06,1,06,1,8,1,-0.385555556,-0.236666667,1,0,0,2.666,Andesite_rect,1,2.666,1,12,0,12,0,1,,,,,,,,,,,,,
66130b23ee407564e718fcfd,SCN,2024-06-12_10h38.13.721,LearnStrategy,2023.2.3,MacIntel,66.66666667,9,1,14,0.251111111,-0.252222222,1,0,0,2.033,Pumice_15,8,15,2,6,2.033,0.404444444,-0.404444444,1,0,0,1.526,Pumice_rect,8,1.526,1,13,0,13,0,1,,,,,,,,,,,,,
66130b23ee407564e718fcfd,SCN,2024-06-12_10h38.13.721,LearnStrategy,2023.2.3,MacIntel,66.66666667,9,1,15,0.535555556,0.395555556,1,0,0,1.497,Obsidian_02,5,02,6,8,1.497,-0.363333333,-0.411111111,1,0,0,1.247,Obsidian_rect,5,1.247,1,14,0,14,0,1,,,,,,,,,,,,,
66130b23ee407564e718fcfd,SCN,2024-06-12_10h38.13.721,LearnStrategy,2023.2.3,MacIntel,66.66666667,9,1,16,-0.4,0.405555556,1,0,0,1.115,Andesite_01,1,01,6,2,1.115,-0.406666667,-0.26,1,0,0,1.655,Andesite_rect,1,1.655,1,15,0,15,0,1,,,,,,,,,,,,,
66130b23ee407564e718fcfd,SCN,2024-06-12_10h38.13.721,LearnStrategy,2023.2.3,MacIntel,66.66666667,9,2,1,,,,,,,,2,02,,,,,,,,,,,2,87.673,1,,,,,,-0.13,-0.242222222,1,0,0,87.673,Basalt_rect,0,0,0,0,1,
66130b23ee407564e718fcfd,SCN,2024-06-12_10h38.13.721,LearnStrategy,2023.2.3,MacIntel,66.66666667,9,2,2,,,,,,,,2,04,,,,,,,,,,,2,4.56,1,,,,,,-0.12,-0.242222222,1,0,0,4.56,Basalt_rect,1,0,1,0,1,
66130b23ee407564e718fcfd,SCN,2024-06-12_10h38.13.721,LearnStrategy,2023.2.3,MacIntel,66.66666667,9,2,3,,,,,,,,4,01,,,,,,,,,,,1,8.173,0,,,,,,-0.39,-0.251111111,1,0,0,8.173,Andesite_rect,2,0,2,0,1,
66130b23ee407564e718fcfd,SCN,2024-06-12_10h38.13.721,LearnStrategy,2023.2.3,MacIntel,66.66666667,9,2,4,,,,,,,,1,07,,,,,,,,,,,3,8.511,0,,,,,,0.13,-0.247777778,1,0,0,8.511,Diorite_rect,3,0,3,0,1,
66130b23ee407564e718fcfd,SCN,2024-06-12_10h38.13.721,LearnStrategy,2023.2.3,MacIntel,66.66666667,9,2,5,,,,,,,,8,04,,,,,,,,,,,8,1.483,1,,,,,,0.372222222,-0.396666667,1,0,0,1.483,Pumice_rect,4,0,4,0,1,
66130b23ee407564e718fcfd,SCN,2024-06-12_10h38.13.721,LearnStrategy,2023.2.3,MacIntel,66.66666667,9,2,6,,,,,,,,3,14,,,,,,,,,,,3,2.881,1,,,,,,0.16,-0.244444444,1,0,0,2.881,Diorite_rect,5,0,5,0,1,
66130b23ee407564e718fcfd,SCN,2024-06-12_10h38.13.721,LearnStrategy,2023.2.3,MacIntel,66.66666667,9,2,7,,,,,,,,4,14,,,,,,,,,,,4,7.129,1,,,,,,0.403333333,-0.263333333,1,0,0,7.129,Gabbro_rect,6,0,6,0,1,
66130b23ee407564e718fcfd,SCN,2024-06-12_10h38.13.721,LearnStrategy,2023.2.3,MacIntel,66.66666667,9,2,8,,,,,,,,5,09,,,,,,,,,,,5,1.345,1,,,,,,-0.382222222,-0.407777778,1,0,0,1.345,Obsidian_rect,7,0,7,0,1,
66130b23ee407564e718fcfd,SCN,2024-06-12_10h38.13.721,LearnStrategy,2023.2.3,MacIntel,66.66666667,9,2,9,,,,,,,,7,07,,,,,,,,,,,7,7.19,1,,,,,,0.123333333,-0.404444444,1,0,0,7.19,Peridotite_rect,8,0,8,0,1,
66130b23ee407564e718fcfd,SCN,2024-06-12_10h38.13.721,LearnStrategy,2023.2.3,MacIntel,66.66666667,9,2,10,,,,,,,,1,04,,,,,,,,,,,4,8.091,0,,,,,,0.428888889,-0.24,1,0,0,8.091,Gabbro_rect,9,0,9,0,1,
66130b23ee407564e718fcfd,SCN,2024-06-12_10h38.13.721,LearnStrategy,2023.2.3,MacIntel,66.66666667,9,2,11,,,,,,,,6,07,,,,,,,,,,,6,3.741,1,,,,,,-0.09,-0.402222222,1,0,0,3.741,Pegmatite_rect,10,0,10,0,1,
66130b23ee407564e718fcfd,SCN,2024-06-12_10h38.13.721,LearnStrategy,2023.2.3,MacIntel,66.66666667,9,2,12,,,,,,,,3,09,,,,,,,,,,,3,5.192,1,,,,,,0.101111111,-0.262222222,1,0,0,5.192,Diorite_rect,11,0,11,0,1,
66130b23ee407564e718fcfd,SCN,2024-06-12_10h38.13.721,LearnStrategy,2023.2.3,MacIntel,66.66666667,9,2,13,,,,,,,,8,16,,,,,,,,,,,8,4.373,1,,,,,,0.368888889,-0.387777778,1,0,0,4.373,Pumice_rect,12,0,12,0,1,
66130b23ee407564e718fcfd,SCN,2024-06-12_10h38.13.721,LearnStrategy,2023.2.3,MacIntel,66.66666667,9,2,14,,,,,,,,7,05,,,,,,,,,,,7,4.362,1,,,,,,0.171111111,-0.404444444,1,0,0,4.362,Peridotite_rect,13,0,13,0,1,
66130b23ee407564e718fcfd,SCN,2024-06-12_10h38.13.721,LearnStrategy,2023.2.3,MacIntel,66.66666667,9,2,15,,,,,,,,6,03,,,,,,,,,,,6,2.154,1,,,,,,-0.061111111,-0.414444444,1,0,0,2.154,Pegmatite_rect,14,0,14,0,1,
66130b23ee407564e718fcfd,SCN,2024-06-12_10h38.13.721,LearnStrategy,2023.2.3,MacIntel,66.66666667,9,2,16,,,,,,,,5,14,,,,,,,,,,,5,1.563,1,,,,,,-0.367777778,-0.398888889,1,0,0,1.563,Obsidian_rect,15,0,15,0,1,
66130b23ee407564e718fcfd,SCN,2024-06-12_10h38.13.721,LearnStrategy,2023.2.3,MacIntel,66.66666667,,,,,,,,,,,,,,,,,,,,,,,,,,,,,,,,,,,,,,,,,,,1
66130b23ee407564e718fcfd,SCN,2024-06-12_10h38.13.721,LearnStrategy,2023.2.3,MacIntel,66.66666667,,,,,,,,,,,,,,,,,,,,,,,,,,,,,,,,,,,,,,,,,,,
66130b23ee407564e718fcfd,SCN,2024-06-12_10h38.13.721,LearnStrategy,2023.2.3,MacIntel,66.66666667,,,,,,,,,,,3,13,1,1,,,,,,,,,,,,,,,,,,,,,,,,,,,,,
66130b23ee407564e718fcfd,SCN,2024-06-12_10h38.13.721,LearnStrategy,2023.2.3,MacIntel,66.66666667,,,,,,,,,,,6,10,1,2,,,,,,,,,,,,,,,,,,,,,,,,,,,,,
66130b23ee407564e718fcfd,SCN,2024-06-12_10h38.13.721,LearnStrategy,2023.2.3,MacIntel,66.66666667,,,,,,,,,,,7,12,1,3,,,,,,,,,,,,,,,,,,,,,,,,,,,,,
66130b23ee407564e718fcfd,SCN,2024-06-12_10h38.13.721,LearnStrategy,2023.2.3,MacIntel,66.66666667,,,,,,,,,,,8,09,1,4,,,,,,,,,,,,,,,,,,,,,,,,,,,,,
66130b23ee407564e718fcfd,SCN,2024-06-12_10h38.13.721,LearnStrategy,2023.2.3,MacIntel,66.66666667,,,,,,,,,,,6,15,1,5,,,,,,,,,,,,,,,,,,,,,,,,,,,,,
66130b23ee407564e718fcfd,SCN,2024-06-12_10h38.13.721,LearnStrategy,2023.2.3,MacIntel,66.66666667,,,,,,,,,,,7,16,1,6,,,,,,,,,,,,,,,,,,,,,,,,,,,,,
66130b23ee407564e718fcfd,SCN,2024-06-12_10h38.13.721,LearnStrategy,2023.2.3,MacIntel,66.66666667,,,,,,,,,,,3,12,1,7,,,,,,,,,,,,,,,,,,,,,,,,,,,,,
66130b23ee407564e718fcfd,SCN,2024-06-12_10h38.13.721,LearnStrategy,2023.2.3,MacIntel,66.66666667,,,,,,,,,,,1,06,1,8,,,,,,,,,,,,,,,,,,,,,,,,,,,,,
66130b23ee407564e718fcfd,SCN,2024-06-12_10h38.13.721,LearnStrategy,2023.2.3,MacIntel,66.66666667,,,,,,,,,,,8,14,2,1,,,,,,,,,,,,,,,,,,,,,,,,,,,,,
66130b23ee407564e718fcfd,SCN,2024-06-12_10h38.13.721,LearnStrategy,2023.2.3,MacIntel,66.66666667,,,,,,,,,,,8,05,2,2,,,,,,,,,,,,,,,,,,,,,,,,,,,,,
66130b23ee407564e718fcfd,SCN,2024-06-12_10h38.13.721,LearnStrategy,2023.2.3,MacIntel,66.66666667,,,,,,,,,,,6,05,2,3,,,,,,,,,,,,,,,,,,,,,,,,,,,,,
66130b23ee407564e718fcfd,SCN,2024-06-12_10h38.13.721,LearnStrategy,2023.2.3,MacIntel,66.66666667,,,,,,,,,,,2,09,2,4,,,,,,,,,,,,,,,,,,,,,,,,,,,,,
66130b23ee407564e718fcfd,SCN,2024-06-12_10h38.13.721,LearnStrategy,2023.2.3,MacIntel,66.66666667,,,,,,,,,,,2,01,2,5,,,,,,,,,,,,,,,,,,,,,,,,,,,,,
66130b23ee407564e718fcfd,SCN,2024-06-12_10h38.13.721,LearnStrategy,2023.2.3,MacIntel,66.66666667,,,,,,,,,,,8,15,2,6,,,,,,,,,,,,,,,,,,,,,,,,,,,,,
66130b23ee407564e718fcfd,SCN,2024-06-12_10h38.13.721,LearnStrategy,2023.2.3,MacIntel,66.66666667,,,,,,,,,,,2,10,2,7,,,,,,,,,,,,,,,,,,,,,,,,,,,,,
66130b23ee407564e718fcfd,SCN,2024-06-12_10h38.13.721,LearnStrategy,2023.2.3,MacIntel,66.66666667,,,,,,,,,,,5,11,2,8,,,,,,,,,,,,,,,,,,,,,,,,,,,,,
66130b23ee407564e718fcfd,SCN,2024-06-12_10h38.13.721,LearnStrategy,2023.2.3,MacIntel,66.66666667,,,,,,,,,,,8,10,3,1,,,,,,,,,,,,,,,,,,,,,,,,,,,,,
66130b23ee407564e718fcfd,SCN,2024-06-12_10h38.13.721,LearnStrategy,2023.2.3,MacIntel,66.66666667,,,,,,,,,,,4,12,3,2,,,,,,,,,,,,,,,,,,,,,,,,,,,,,
66130b23ee407564e718fcfd,SCN,2024-06-12_10h38.13.721,LearnStrategy,2023.2.3,MacIntel,66.66666667,,,,,,,,,,,3,08,3,3,,,,,,,,,,,,,,,,,,,,,,,,,,,,,
66130b23ee407564e718fcfd,SCN,2024-06-12_10h38.13.721,LearnStrategy,2023.2.3,MacIntel,66.66666667,,,,,,,,,,,5,04,3,4,,,,,,,,,,,,,,,,,,,,,,,,,,,,,
66130b23ee407564e718fcfd,SCN,2024-06-12_10h38.13.721,LearnStrategy,2023.2.3,MacIntel,66.66666667,,,,,,,,,,,5,16,3,5,,,,,,,,,,,,,,,,,,,,,,,,,,,,,
66130b23ee407564e718fcfd,SCN,2024-06-12_10h38.13.721,LearnStrategy,2023.2.3,MacIntel,66.66666667,,,,,,,,,,,5,07,3,6,,,,,,,,,,,,,,,,,,,,,,,,,,,,,
66130b23ee407564e718fcfd,SCN,2024-06-12_10h38.13.721,LearnStrategy,2023.2.3,MacIntel,66.66666667,,,,,,,,,,,2,14,3,7,,,,,,,,,,,,,,,,,,,,,,,,,,,,,
66130b23ee407564e718fcfd,SCN,2024-06-12_10h38.13.721,LearnStrategy,2023.2.3,MacIntel,66.66666667,,,,,,,,,,,1,02,3,8,,,,,,,,,,,,,,,,,,,,,,,,,,,,,
66130b23ee407564e718fcfd,SCN,2024-06-12_10h38.13.721,LearnStrategy,2023.2.3,MacIntel,66.66666667,,,,,,,,,,,2,11,4,1,,,,,,,,,,,,,,,,,,,,,,,,,,,,,
66130b23ee407564e718fcfd,SCN,2024-06-12_10h38.13.721,LearnStrategy,2023.2.3,MacIntel,66.66666667,,,,,,,,,,,7,02,4,2,,,,,,,,,,,,,,,,,,,,,,,,,,,,,
66130b23ee407564e718fcfd,SCN,2024-06-12_10h38.13.721,LearnStrategy,2023.2.3,MacIntel,66.66666667,,,,,,,,,,,6,16,4,3,,,,,,,,,,,,,,,,,,,,,,,,,,,,,
66130b23ee407564e718fcfd,SCN,2024-06-12_10h38.13.721,LearnStrategy,2023.2.3,MacIntel,66.66666667,,,,,,,,,,,5,05,4,4,,,,,,,,,,,,,,,,,,,,,,,,,,,,,
66130b23ee407564e718fcfd,SCN,2024-06-12_10h38.13.721,LearnStrategy,2023.2.3,MacIntel,66.66666667,,,,,,,,,,,8,03,4,5,,,,,,,,,,,,,,,,,,,,,,,,,,,,,
66130b23ee407564e718fcfd,SCN,2024-06-12_10h38.13.721,LearnStrategy,2023.2.3,MacIntel,66.66666667,,,,,,,,,,,4,05,4,6,,,,,,,,,,,,,,,,,,,,,,,,,,,,,
66130b23ee407564e718fcfd,SCN,2024-06-12_10h38.13.721,LearnStrategy,2023.2.3,MacIntel,66.66666667,,,,,,,,,,,7,13,4,7,,,,,,,,,,,,,,,,,,,,,,,,,,,,,
66130b23ee407564e718fcfd,SCN,2024-06-12_10h38.13.721,LearnStrategy,2023.2.3,MacIntel,66.66666667,,,,,,,,,,,7,14,4,8,,,,,,,,,,,,,,,,,,,,,,,,,,,,,
66130b23ee407564e718fcfd,SCN,2024-06-12_10h38.13.721,LearnStrategy,2023.2.3,MacIntel,66.66666667,,,,,,,,,,,6,13,5,1,,,,,,,,,,,,,,,,,,,,,,,,,,,,,
66130b23ee407564e718fcfd,SCN,2024-06-12_10h38.13.721,LearnStrategy,2023.2.3,MacIntel,66.66666667,,,,,,,,,,,3,15,5,2,,,,,,,,,,,,,,,,,,,,,,,,,,,,,
66130b23ee407564e718fcfd,SCN,2024-06-12_10h38.13.721,LearnStrategy,2023.2.3,MacIntel,66.66666667,,,,,,,,,,,7,04,5,3,,,,,,,,,,,,,,,,,,,,,,,,,,,,,
66130b23ee407564e718fcfd,SCN,2024-06-12_10h38.13.721,LearnStrategy,2023.2.3,MacIntel,66.66666667,,,,,,,,,,,1,10,5,4,,,,,,,,,,,,,,,,,,,,,,,,,,,,,
66130b23ee407564e718fcfd,SCN,2024-06-12_10h38.13.721,LearnStrategy,2023.2.3,MacIntel,66.66666667,,,,,,,,,,,4,10,5,5,,,,,,,,,,,,,,,,,,,,,,,,,,,,,
66130b23ee407564e718fcfd,SCN,2024-06-12_10h38.13.721,LearnStrategy,2023.2.3,MacIntel,66.66666667,,,,,,,,,,,4,11,5,6,,,,,,,,,,,,,,,,,,,,,,,,,,,,,
66130b23ee407564e718fcfd,SCN,2024-06-12_10h38.13.721,LearnStrategy,2023.2.3,MacIntel,66.66666667,,,,,,,,,,,1,16,5,7,,,,,,,,,,,,,,,,,,,,,,,,,,,,,
66130b23ee407564e718fcfd,SCN,2024-06-12_10h38.13.721,LearnStrategy,2023.2.3,MacIntel,66.66666667,,,,,,,,,,,3,10,5,8,,,,,,,,,,,,,,,,,,,,,,,,,,,,,
66130b23ee407564e718fcfd,SCN,2024-06-12_10h38.13.721,LearnStrategy,2023.2.3,MacIntel,66.66666667,,,,,,,,,,,1,14,6,1,,,,,,,,,,,,,,,,,,,,,,,,,,,,,
66130b23ee407564e718fcfd,SCN,2024-06-12_10h38.13.721,LearnStrategy,2023.2.3,MacIntel,66.66666667,,,,,,,,,,,1,01,6,2,,,,,,,,,,,,,,,,,,,,,,,,,,,,,
66130b23ee407564e718fcfd,SCN,2024-06-12_10h38.13.721,LearnStrategy,2023.2.3,MacIntel,66.66666667,,,,,,,,,,,3,06,6,3,,,,,,,,,,,,,,,,,,,,,,,,,,,,,
66130b23ee407564e718fcfd,SCN,2024-06-12_10h38.13.721,LearnStrategy,2023.2.3,MacIntel,66.66666667,,,,,,,,,,,4,09,6,4,,,,,,,,,,,,,,,,,,,,,,,,,,,,,
66130b23ee407564e718fcfd,SCN,2024-06-12_10h38.13.721,LearnStrategy,2023.2.3,MacIntel,66.66666667,,,,,,,,,,,2,06,6,5,,,,,,,,,,,,,,,,,,,,,,,,,,,,,
66130b23ee407564e718fcfd,SCN,2024-06-12_10h38.13.721,LearnStrategy,2023.2.3,MacIntel,66.66666667,,,,,,,,,,,6,12,6,6,,,,,,,,,,,,,,,,,,,,,,,,,,,,,
66130b23ee407564e718fcfd,SCN,2024-06-12_10h38.13.721,LearnStrategy,2023.2.3,MacIntel,66.66666667,,,,,,,,,,,4,15,6,7,,,,,,,,,,,,,,,,,,,,,,,,,,,,,
66130b23ee407564e718fcfd,SCN,2024-06-12_10h38.13.721,LearnStrategy,2023.2.3,MacIntel,66.66666667,,,,,,,,,,,5,02,6,8,,,,,,,,,,,,,,,,,,,,,,,,,,,,,