participant,condition,date,expName,psychopyVersion,OS,frameRate,block,phase,trial,learn_mouse_2.x,learn_mouse_2.y,learn_mouse_2.leftButton,learn_mouse_2.midButton,learn_mouse_2.rightButton,learn_mouse_2.time,learn_mouse_2.clicked_name,cat,token,row,col,t_select,cat_mouse_l.x,cat_mouse_l.y,cat_mouse_l.leftButton,cat_mouse_l.midButton,cat_mouse_l.rightButton,cat_mouse_l.time,cat_mouse_l.clicked_name,resp,t_resp,corr,train_trials.thisRepN,train_trials.thisTrialN,train_trials.thisN,train_trials.thisIndex,train_trials.ran,cat_mouse_t.x,cat_mouse_t.y,cat_mouse_t.leftButton,cat_mouse_t.midButton,cat_mouse_t.rightButton,cat_mouse_t.time,cat_mouse_t.clicked_name,test_trials.thisRepN,test_trials.thisTrialN,test_trials.thisN,test_trials.thisIndex,test_trials.ran,Bonus
6615517eaed830765bb6f633,TCR,2024-06-11_13h14.00.496,LearnStrategy,2023.2.3,Win32,59.70862193,,,,,,,,,,,,,,,,,,,,,,,,,,,,,,,,,,,,,,,,,,,
6615517eaed830765bb6f633,TCR,2024-06-11_13h14.00.496,LearnStrategy,2023.2.3,Win32,59.70862193,1,1,1,0.040650407,-0.00601628,1,0,0,3.7976,rock_grid_rect_2,1,02,-1,-1,3.798,-0.103739818,-0.253170752,1,0,0,7.5162,Basalt_rect,2,7.516,0,0,0,0,0,1,,,,,,,,,,,,,
6615517eaed830765bb6f633,TCR,2024-06-11_13h14.00.496,LearnStrategy,2023.2.3,Win32,59.70862193,1,1,2,0.057561015,-0.00601628,1,0,0,1.196,rock_grid_rect_2,8,04,-1,-1,1.196,0.199349653,-0.244065051,1,0,0,2.0519,Diorite_rect,3,2.052,0,1,0,1,0,1,,,,,,,,,,,,,
6615517eaed830765bb6f633,TCR,2024-06-11_13h14.00.496,LearnStrategy,2023.2.3,Win32,59.70862193,1,1,3,0.104390264,0.008292693,1,0,0,1.2488,rock_grid_rect_2,8,15,-1,-1,1.249,0.162926849,-0.406666726,1,0,0,2.0261,Peridotite_rect,7,2.026,0,2,0,2,0,1,,,,,,,,,,,,,
6615517eaed830765bb6f633,TCR,2024-06-11_13h14.00.496,LearnStrategy,2023.2.3,Win32,59.70862193,1,1,4,0.104390264,-0.015121981,1,0,0,1.248,rock_grid_rect_2,6,15,-1,-1,1.248,0.386666647,-0.385853639,1,0,0,1.4901,Pumice_rect,8,1.49,0,3,0,3,0,1,,,,,,,,,,,,,
6615517eaed830765bb6f633,TCR,2024-06-11_13h14.00.496,LearnStrategy,2023.2.3,Win32,59.70862193,1,1,5,0.08097559,-0.000813008,1,0,0,1.2019,rock_grid_rect_2,4,03,-1,-1,1.202,-0.344390224,-0.383252052,1,0,0,1.9837,Obsidian_rect,5,1.984,0,4,0,4,0,1,,,,,,,,,,,,,
6615517eaed830765bb6f633,TCR,2024-06-11_13h14.00.496,LearnStrategy,2023.2.3,Win32,59.70862193,1,1,6,0.079674797,-0.017723567,1,0,0,1.4496,rock_grid_rect_2,1,03,-1,-1,1.45,-0.101138182,-0.228455285,1,0,0,2.1398,Basalt_rect,2,2.14,0,5,0,5,0,1,,,,,,,,,,,,,
6615517eaed830765bb6f633,TCR,2024-06-11_13h14.00.496,LearnStrategy,2023.2.3,Win32,59.70862193,1,1,7,0.078374004,-0.004715437,1,0,0,1.233,rock_grid_rect_2,2,08,-1,-1,1.233,-0.142764208,-0.238861779,1,0,0,3.7649,Basalt_rect,2,3.765,1,6,0,6,0,1,,,,,,,,,,,,,
6615517eaed830765bb6f633,TCR,2024-06-11_13h14.00.496,LearnStrategy,2023.2.3,Win32,59.70862193,1,1,8,0.11999998,-0.017723567,1,0,0,1.1519,rock_grid_rect_2,5,12,-1,-1,1.152,0.15902437,-0.244065051,1,0,0,13.1997,Diorite_rect,3,13.2,0,7,0,7,0,1,,,,,,,,,,,,,
6615517eaed830765bb6f633,TCR,2024-06-11_13h14.00.496,LearnStrategy,2023.2.3,Win32,59.70862193,1,1,9,0.152520305,0.013495915,1,0,0,1.4763,rock_grid_rect_2,7,07,-1,-1,1.476,-0.431544706,-0.379349574,1,0,0,3.3297,Obsidian_rect,5,3.33,0,8,0,8,0,1,,,,,,,,,,,,,
6615517eaed830765bb6f633,TCR,2024-06-11_13h14.00.496,LearnStrategy,2023.2.3,Win32,59.70862193,1,1,10,0.086178862,-0.000813008,1,0,0,2.5022,rock_grid_rect_2,2,14,-1,-1,2.502,0.169430914,-0.404065041,1,0,0,2.4325,Peridotite_rect,7,2.433,0,9,0,9,0,1,,,,,,,,,,,,,
6615517eaed830765bb6f633,TCR,2024-06-11_13h14.00.496,LearnStrategy,2023.2.3,Win32,59.70862193,1,1,11,0.084878069,-0.016422774,1,0,0,1.4166,rock_grid_rect_2,3,16,-1,-1,1.417,0.361951279,-0.250569116,1,0,0,3.3037,Gabbro_rect,4,3.304,0,10,0,10,0,1,,,,,,,,,,,,,
6615517eaed830765bb6f633,TCR,2024-06-11_13h14.00.496,LearnStrategy,2023.2.3,Win32,59.70862193,1,1,12,0.105691057,-0.017723567,1,0,0,1.1336,rock_grid_rect_2,7,05,-1,-1,1.134,0.194146381,-0.391056911,1,0,0,4.0383,Peridotite_rect,7,4.038,1,11,0,11,0,1,,,,,,,,,,,,,
6615517eaed830765bb6f633,TCR,2024-06-11_13h14.00.496,LearnStrategy,2023.2.3,Win32,59.70862193,1,1,13,0.071869939,-0.013821138,1,0,0,0.9144,rock_grid_rect_2,6,09,-1,-1,0.914,0.423089451,-0.392357704,1,0,0,2.3599,Pumice_rect,8,2.36,0,12,0,12,0,1,,,,,,,,,,,,,
6615517eaed830765bb6f633,TCR,2024-06-11_13h14.00.496,LearnStrategy,2023.2.3,Win32,59.70862193,1,1,14,0.0419512,-0.01902441,1,0,0,1.0183,rock_grid_rect_2,4,14,-1,-1,1.018,-0.344390224,-0.387154531,1,0,0,2.8899,Obsidian_rect,5,2.89,0,13,0,13,0,1,,,,,,,,,,,,,
6615517eaed830765bb6f633,TCR,2024-06-11_13h14.00.496,LearnStrategy,2023.2.3,Win32,59.70862193,1,1,15,0.071869939,0.008292693,1,0,0,1.202,rock_grid_rect_2,5,10,-1,-1,1.202,0.126504045,-0.257073181,1,0,0,3.6609,Diorite_rect,3,3.661,0,14,0,14,0,1,,,,,,,,,,,,,
6615517eaed830765bb6f633,TCR,2024-06-11_13h14.00.496,LearnStrategy,2023.2.3,Win32,59.70862193,1,1,16,0.13300811,-0.00601628,1,0,0,1.0579,rock_grid_rect_2,3,02,-1,-1,1.058,-0.088130052,-0.229756127,1,0,0,3.3251,Basalt_rect,2,3.325,0,15,0,15,0,1,,,,,,,,,,,,,
6615517eaed830765bb6f633,TCR,2024-06-11_13h14.00.496,LearnStrategy,2023.2.3,Win32,59.70862193,1,2,1,,,,,,,,4,01,,,,,,,,,,,7,22.658,0,,,,,,0.052357743,-0.413170791,1,0,0,22.6583,Peridotite_rect,0,0,0,0,1,
6615517eaed830765bb6f633,TCR,2024-06-11_13h14.00.496,LearnStrategy,2023.2.3,Win32,59.70862193,1,2,2,,,,,,,,3,10,,,,,,,,,,,1,11.494,0,,,,,,-0.427642276,-0.250569116,1,0,0,11.4942,Andesite_rect,1,0,1,0,1,
6615517eaed830765bb6f633,TCR,2024-06-11_13h14.00.496,LearnStrategy,2023.2.3,Win32,59.70862193,1,2,3,,,,,,,,8,05,,,,,,,,,,,1,29.521,0,,,,,,-0.414634146,-0.23495935,1,0,0,29.5213,Andesite_rect,2,0,2,0,1,
6615517eaed830765bb6f633,TCR,2024-06-11_13h14.00.496,LearnStrategy,2023.2.3,Win32,59.70862193,1,2,4,,,,,,,,1,04,,,,,,,,,,,1,2.474,1,,,,,,-0.379512185,-0.253170752,1,0,0,2.4742,Andesite_rect,3,0,3,0,1,
6615517eaed830765bb6f633,TCR,2024-06-11_13h14.00.496,LearnStrategy,2023.2.3,Win32,59.70862193,1,2,5,,,,,,,,7,12,,,,,,,,,,,7,16.741,1,,,,,,0.113495915,-0.406666726,1,0,0,16.7412,Peridotite_rect,4,0,4,0,1,
6615517eaed830765bb6f633,TCR,2024-06-11_13h14.00.496,LearnStrategy,2023.2.3,Win32,59.70862193,1,2,6,,,,,,,,5,06,,,,,,,,,,,5,5.937,1,,,,,,-0.501788603,-0.394959389,1,0,0,5.9373,Obsidian_rect,5,0,5,0,1,
6615517eaed830765bb6f633,TCR,2024-06-11_13h14.00.496,LearnStrategy,2023.2.3,Win32,59.70862193,1,2,7,,,,,,,,5,08,,,,,,,,,,,5,10.293,1,,,,,,-0.505691057,-0.389756117,1,0,0,10.293,Obsidian_rect,6,0,6,0,1,
6615517eaed830765bb6f633,TCR,2024-06-11_13h14.00.496,LearnStrategy,2023.2.3,Win32,59.70862193,1,2,8,,,,,,,,2,16,,,,,,,,,,,8,4.826,0,,,,,,0.397073191,-0.396260182,1,0,0,4.8264,Pumice_rect,7,0,7,0,1,
6615517eaed830765bb6f633,TCR,2024-06-11_13h14.00.496,LearnStrategy,2023.2.3,Win32,59.70862193,1,2,9,,,,,,,,6,10,,,,,,,,,,,6,7.28,1,,,,,,-0.137560986,-0.417073171,1,0,0,7.2796,Pegmatite_rect,8,0,8,0,1,
6615517eaed830765bb6f633,TCR,2024-06-11_13h14.00.496,LearnStrategy,2023.2.3,Win32,59.70862193,1,2,10,,,,,,,,8,02,,,,,,,,,,,1,5.29,0,,,,,,-0.410731717,-0.246666687,1,0,0,5.2898,Andesite_rect,9,0,9,0,1,
6615517eaed830765bb6f633,TCR,2024-06-11_13h14.00.496,LearnStrategy,2023.2.3,Win32,59.70862193,1,2,11,,,,,,,,1,06,,,,,,,,,,,7,10.314,0,,,,,,0.049756157,-0.393658596,1,0,0,10.3142,Peridotite_rect,10,0,10,0,1,
6615517eaed830765bb6f633,TCR,2024-06-11_13h14.00.496,LearnStrategy,2023.2.3,Win32,59.70862193,1,2,12,,,,,,,,2,11,,,,,,,,,,,2,7.869,1,,,,,,-0.073821128,-0.242764257,1,0,0,7.869,Basalt_rect,11,0,11,0,1,
6615517eaed830765bb6f633,TCR,2024-06-11_13h14.00.496,LearnStrategy,2023.2.3,Win32,59.70862193,1,2,13,,,,,,,,4,10,,,,,,,,,,,8,2.962,0,,,,,,0.391869919,-0.389756117,1,0,0,2.9617,Pumice_rect,12,0,12,0,1,
6615517eaed830765bb6f633,TCR,2024-06-11_13h14.00.496,LearnStrategy,2023.2.3,Win32,59.70862193,1,2,14,,,,,,,,7,06,,,,,,,,,,,3,3.262,0,,,,,,0.147317133,-0.266178882,1,0,0,3.2624,Diorite_rect,13,0,13,0,1,
6615517eaed830765bb6f633,TCR,2024-06-11_13h14.00.496,LearnStrategy,2023.2.3,Win32,59.70862193,1,2,15,,,,,,,,6,03,,,,,,,,,,,6,11.108,1,,,,,,-0.082926829,-0.409268313,1,0,0,11.1077,Pegmatite_rect,14,0,14,0,1,
6615517eaed830765bb6f633,TCR,2024-06-11_13h14.00.496,LearnStrategy,2023.2.3,Win32,59.70862193,1,2,16,,,,,,,,3,12,,,,,,,,,,,2,21.528,0,,,,,,-0.142764208,-0.236260192,1,0,0,21.5281,Basalt_rect,15,0,15,0,1,
6615517eaed830765bb6f633,TCR,2024-06-11_13h14.00.496,LearnStrategy,2023.2.3,Win32,59.70862193,2,1,1,-0.102439024,0.004390214,1,0,0,26.5392,rock_grid_rect_2,8,09,-1,-1,26.539,-0.352195132,-0.257073181,1,0,0,4.8823,Andesite_rect,1,4.882,0,0,0,0,0,1,,,,,,,,,,,,,
6615517eaed830765bb6f633,TCR,2024-06-11_13h14.00.496,LearnStrategy,2023.2.3,Win32,59.70862193,2,1,2,0.122601666,-0.00601628,1,0,0,1.2999,rock_grid_rect_2,2,04,-1,-1,1.3,-0.421138211,-0.250569116,1,0,0,5.1971,Andesite_rect,1,5.197,0,1,0,1,0,1,,,,,,,,,,,,,
6615517eaed830765bb6f633,TCR,2024-06-11_13h14.00.496,LearnStrategy,2023.2.3,Win32,59.70862193,2,1,3,0.069268352,-0.012520345,1,0,0,1.5393,rock_grid_rect_2,1,10,-1,-1,1.539,0.44000006,-0.398861769,1,0,0,2.3281,Pumice_rect,8,2.328,0,2,0,2,0,1,,,,,,,,,,,,,
6615517eaed830765bb6f633,TCR,2024-06-11_13h14.00.496,LearnStrategy,2023.2.3,Win32,59.70862193,2,1,4,0.061463395,-0.009918709,1,0,0,0.8857,rock_grid_rect_2,3,11,-1,-1,0.886,0.112195122,-0.267479675,1,0,0,1.5439,Diorite_rect,3,1.544,1,3,0,3,0,1,,,,,,,,,,,,,
6615517eaed830765bb6f633,TCR,2024-06-11_13h14.00.496,LearnStrategy,2023.2.3,Win32,59.70862193,2,1,5,0.090081341,-0.012520345,1,0,0,0.8761,rock_grid_rect_2,4,08,-1,-1,0.876,-0.319674807,-0.241463415,1,0,0,2.0567,Andesite_rect,1,2.057,0,4,0,4,0,1,,,,,,,,,,,,,
6615517eaed830765bb6f633,TCR,2024-06-11_13h14.00.496,LearnStrategy,2023.2.3,Win32,59.70862193,2,1,6,0.183739837,0.005691057,1,0,0,0.9849,rock_grid_rect_2,2,08,-1,-1,0.985,-0.077723557,-0.268780518,1,0,0,1.7062,Basalt_rect,2,1.706,1,5,0,5,0,1,,,,,,,,,,,,,
6615517eaed830765bb6f633,TCR,2024-06-11_13h14.00.496,LearnStrategy,2023.2.3,Win32,59.70862193,2,1,7,0.108292742,0.014796758,1,0,0,0.9486,rock_grid_rect_2,3,09,-1,-1,0.949,-0.062113791,-0.396260182,1,0,0,2.7579,Pegmatite_rect,6,2.758,0,6,0,6,0,1,,,,,,,,,,,,,
6615517eaed830765bb6f633,TCR,2024-06-11_13h14.00.496,LearnStrategy,2023.2.3,Win32,59.70862193,2,1,8,0.183739837,0.001788628,1,0,0,0.9574,rock_grid_rect_2,3,08,-1,-1,0.957,0.183739837,-0.237560986,1,0,0,3.8589,Diorite_rect,3,3.859,1,7,0,7,0,1,,,,,,,,,,,,,
6615517eaed830765bb6f633,TCR,2024-06-11_13h14.00.496,LearnStrategy,2023.2.3,Win32,59.70862193,2,1,9,0.112195122,0.005691057,1,0,0,0.7992,rock_grid_rect_2,8,15,-1,-1,0.799,-0.301463405,-0.259674817,1,0,0,1.3528,Andesite_rect,1,1.353,0,8,0,8,0,1,,,,,,,,,,,,,
6615517eaed830765bb6f633,TCR,2024-06-11_13h14.00.496,LearnStrategy,2023.2.3,Win32,59.70862193,2,1,10,0.079674797,-0.024227632,1,0,0,0.8604,rock_grid_rect_2,4,03,-1,-1,0.86,0.125203252,-0.24796748,1,0,0,3.3634,Diorite_rect,3,3.363,0,9,0,9,0,1,,,,,,,,,,,,,
6615517eaed830765bb6f633,TCR,2024-06-11_13h14.00.496,LearnStrategy,2023.2.3,Win32,59.70862193,2,1,11,0.103089471,-0.008617916,1,0,0,0.8119,rock_grid_rect_2,7,05,-1,-1,0.812,-0.18699187,-0.407967519,1,0,0,2.3163,Pegmatite_rect,6,2.316,0,10,0,10,0,1,,,,,,,,,,,,,
6615517eaed830765bb6f633,TCR,2024-06-11_13h14.00.496,LearnStrategy,2023.2.3,Win32,59.70862193,2,1,12,0.144715447,-0.003414644,1,0,0,0.9932,rock_grid_rect_2,1,09,-1,-1,0.993,0.091382134,-0.242764257,1,0,0,4.0565,Diorite_rect,3,4.056,0,11,0,11,0,1,,,,,,,,,,,,,
6615517eaed830765bb6f633,TCR,2024-06-11_13h14.00.496,LearnStrategy,2023.2.3,Win32,59.70862193,2,1,13,0.127804938,0.003089421,1,0,0,1.0578,rock_grid_rect_2,7,02,-1,-1,1.058,-0.060812998,-0.411869899,1,0,0,2.8003,Pegmatite_rect,6,2.8,0,12,0,12,0,1,,,,,,,,,,,,,
6615517eaed830765bb6f633,TCR,2024-06-11_13h14.00.496,LearnStrategy,2023.2.3,Win32,59.70862193,2,1,14,0.130406524,-0.00601628,1,0,0,0.9192,rock_grid_rect_2,4,11,-1,-1,0.919,-0.06601627,-0.246666687,1,0,0,1.7733,Basalt_rect,2,1.773,0,13,0,13,0,1,,,,,,,,,,,,,
6615517eaed830765bb6f633,TCR,2024-06-11_13h14.00.496,LearnStrategy,2023.2.3,Win32,59.70862193,2,1,15,0.117398394,0.00699185,1,0,0,0.8827,rock_grid_rect_2,1,09,-1,-1,0.883,-0.305365834,-0.249268322,1,0,0,3.6532,Andesite_rect,1,3.653,1,14,0,14,0,1,,,,,,,,,,,,,
6615517eaed830765bb6f633,TCR,2024-06-11_13h14.00.496,LearnStrategy,2023.2.3,Win32,59.70862193,2,1,16,0.116097601,0.001788628,1,0,0,0.9999,rock_grid_rect_2,8,03,-1,-1,1,0.419186972,-0.405365834,1,0,0,2.2267,Pumice_rect,8,2.227,1,15,0,15,0,1,,,,,,,,,,,,,
6615517eaed830765bb6f633,TCR,2024-06-11_13h14.00.496,LearnStrategy,2023.2.3,Win32,59.70862193,2,2,1,,,,,,,,3,06,,,,,,,,,,,1,7.03,0,,,,,,-0.451056901,-0.270081311,1,0,0,7.0298,Andesite_rect,0,0,0,0,1,
6615517eaed830765bb6f633,TCR,2024-06-11_13h14.00.496,LearnStrategy,2023.2.3,Win32,59.70862193,2,2,2,,,,,,,,8,13,,,,,,,,,,,8,1.845,1,,,,,,0.430894309,-0.397560976,1,0,0,1.8448,Pumice_rect,1,0,1,0,1,
6615517eaed830765bb6f633,TCR,2024-06-11_13h14.00.496,LearnStrategy,2023.2.3,Win32,59.70862193,2,2,3,,,,,,,,3,14,,,,,,,,,,,3,2.045,1,,,,,,0.185040631,-0.251869909,1,0,0,2.0446,Diorite_rect,2,0,2,0,1,
6615517eaed830765bb6f633,TCR,2024-06-11_13h14.00.496,LearnStrategy,2023.2.3,Win32,59.70862193,2,2,4,,,,,,,,5,02,,,,,,,,,,,7,5.982,0,,,,,,0.139512175,-0.418373964,1,0,0,5.9818,Peridotite_rect,3,0,3,0,1,
6615517eaed830765bb6f633,TCR,2024-06-11_13h14.00.496,LearnStrategy,2023.2.3,Win32,59.70862193,2,2,5,,,,,,,,4,15,,,,,,,,,,,6,2.887,0,,,,,,-0.18699187,-0.380650466,1,0,0,2.8867,Pegmatite_rect,4,0,4,0,1,
6615517eaed830765bb6f633,TCR,2024-06-11_13h14.00.496,LearnStrategy,2023.2.3,Win32,59.70862193,2,2,6,,,,,,,,2,10,,,,,,,,,,,2,6.075,1,,,,,,-0.181788598,-0.255772387,1,0,0,6.0755,Basalt_rect,5,0,5,0,1,
6615517eaed830765bb6f633,TCR,2024-06-11_13h14.00.496,LearnStrategy,2023.2.3,Win32,59.70862193,2,2,7,,,,,,,,6,07,,,,,,,,,,,6,2.865,1,,,,,,-0.103739818,-0.406666726,1,0,0,2.8651,Pegmatite_rect,6,0,6,0,1,
6615517eaed830765bb6f633,TCR,2024-06-11_13h14.00.496,LearnStrategy,2023.2.3,Win32,59.70862193,2,2,8,,,,,,,,8,06,,,,,,,,,,,1,2.511,0,,,,,,-0.376910549,-0.253170752,1,0,0,2.5113,Andesite_rect,7,0,7,0,1,
6615517eaed830765bb6f633,TCR,2024-06-11_13h14.00.496,LearnStrategy,2023.2.3,Win32,59.70862193,2,2,9,,,,,,,,6,13,,,,,,,,,,,8,1.94,0,,,,,,0.363252072,-0.396260182,1,0,0,1.9402,Pumice_rect,8,0,8,0,1,
6615517eaed830765bb6f633,TCR,2024-06-11_13h14.00.496,LearnStrategy,2023.2.3,Win32,59.70862193,2,2,10,,,,,,,,2,06,,,,,,,,,,,2,1.612,1,,,,,,-0.085528465,-0.257073181,1,0,0,1.612,Basalt_rect,9,0,9,0,1,
6615517eaed830765bb6f633,TCR,2024-06-11_13h14.00.496,LearnStrategy,2023.2.3,Win32,59.70862193,2,2,11,,,,,,,,1,11,,,,,,,,,,,4,3.484,0,,,,,,0.390569126,-0.237560986,1,0,0,3.4843,Gabbro_rect,10,0,10,0,1,
6615517eaed830765bb6f633,TCR,2024-06-11_13h14.00.496,LearnStrategy,2023.2.3,Win32,59.70862193,2,2,12,,,,,,,,4,16,,,,,,,,,,,3,1.647,0,,,,,,0.211056891,-0.249268322,1,0,0,1.647,Diorite_rect,11,0,11,0,1,
6615517eaed830765bb6f633,TCR,2024-06-11_13h14.00.496,LearnStrategy,2023.2.3,Win32,59.70862193,2,2,13,,,,,,,,5,09,,,,,,,,,,,3,2.489,0,,,,,,0.160325263,-0.257073181,1,0,0,2.4889,Diorite_rect,12,0,12,0,1,
6615517eaed830765bb6f633,TCR,2024-06-11_13h14.00.496,LearnStrategy,2023.2.3,Win32,59.70862193,2,2,14,,,,,,,,7,16,,,,,,,,,,,4,2.779,0,,,,,,0.360650387,-0.24796748,1,0,0,2.779,Gabbro_rect,13,0,13,0,1,
6615517eaed830765bb6f633,TCR,2024-06-11_13h14.00.496,LearnStrategy,2023.2.3,Win32,59.70862193,2,2,15,,,,,,,,1,05,,,,,,,,,,,7,2.826,0,,,,,,0.07707321,-0.393658596,1,0,0,2.8264,Peridotite_rect,14,0,14,0,1,
6615517eaed830765bb6f633,TCR,2024-06-11_13h14.00.496,LearnStrategy,2023.2.3,Win32,59.70862193,2,2,16,,,,,,,,7,14,,,,,,,,,,,6,3.045,0,,,,,,-0.101138182,-0.417073171,1,0,0,3.0454,Pegmatite_rect,15,0,15,0,1,
6615517eaed830765bb6f633,TCR,2024-06-11_13h14.00.496,LearnStrategy,2023.2.3,Win32,59.70862193,3,1,1,0.175934979,-0.009918709,1,0,0,1.3242,rock_grid_rect_2,1,01,-1,-1,1.324,0.165528435,-0.254471545,1,0,0,5.5742,Diorite_rect,3,5.574,0,0,0,0,0,1,,,,,,,,,,,,,
6615517eaed830765bb6f633,TCR,2024-06-11_13h14.00.496,LearnStrategy,2023.2.3,Win32,59.70862193,3,1,2,0.048455265,0.005691057,1,0,0,1.0541,rock_grid_rect_2,7,10,-1,-1,1.054,0.351544735,-0.411869899,1,0,0,1.8811,Pumice_rect,8,1.881,0,1,0,1,0,1,,,,,,,,,,,,,
6615517eaed830765bb6f633,TCR,2024-06-11_13h14.00.496,LearnStrategy,2023.2.3,Win32,59.70862193,3,1,3,-0.003577256,-0.017723567,1,0,0,1.0802,rock_grid_rect_2,5,16,-1,-1,1.08,0.417886179,-0.258373974,1,0,0,3.2069,Gabbro_rect,4,3.207,0,2,0,2,0,1,,,,,,,,,,,,,
6615517eaed830765bb6f633,TCR,2024-06-11_13h14.00.496,LearnStrategy,2023.2.3,Win32,59.70862193,3,1,4,0.022439005,-0.011219502,1,0,0,1.0375,rock_grid_rect_2,3,11,-1,-1,1.037,0.309918759,-0.238861779,1,0,0,2.3203,Gabbro_rect,4,2.32,0,3,0,3,0,1,,,,,,,,,,,,,
6615517eaed830765bb6f633,TCR,2024-06-11_13h14.00.496,LearnStrategy,2023.2.3,Win32,59.70862193,3,1,5,0.056260222,0.012195122,1,0,0,1.055,rock_grid_rect_2,7,02,-1,-1,1.055,0.071869939,-0.414471584,1,0,0,1.4618,Peridotite_rect,7,1.462,1,4,0,4,0,1,,,,,,,,,,,,,
6615517eaed830765bb6f633,TCR,2024-06-11_13h14.00.496,LearnStrategy,2023.2.3,Win32,59.70862193,3,1,6,0.105691057,-0.003414644,1,0,0,1.4746,rock_grid_rect_2,4,13,-1,-1,1.475,-0.132357714,-0.394959389,1,0,0,1.7702,Pegmatite_rect,6,1.77,0,5,0,5,0,1,,,,,,,,,,,,,
6615517eaed830765bb6f633,TCR,2024-06-11_13h14.00.496,LearnStrategy,2023.2.3,Win32,59.70862193,3,1,7,0.022439005,-0.011219502,1,0,0,0.8523,rock_grid_rect_2,4,08,-1,-1,0.852,0.429593516,-0.394959389,1,0,0,3.8555,Pumice_rect,8,3.856,0,6,0,6,0,1,,,,,,,,,,,,,
6615517eaed830765bb6f633,TCR,2024-06-11_13h14.00.496,LearnStrategy,2023.2.3,Win32,59.70862193,3,1,8,0.031544755,-0.004715437,1,0,0,1.1408,rock_grid_rect_2,5,16,-1,-1,1.141,-0.196097571,-0.240162621,1,0,0,14.3471,Basalt_rect,2,14.347,0,7,0,7,0,1,,,,,,,,,,,,,
6615517eaed830765bb6f633,TCR,2024-06-11_13h14.00.496,LearnStrategy,2023.2.3,Win32,59.70862193,3,1,9,0.022439005,0.000487785,1,0,0,1.0244,rock_grid_rect_2,2,05,-1,-1,1.024,-0.103739818,-0.255772387,1,0,0,1.6737,Basalt_rect,2,1.674,1,8,0,8,0,1,,,,,,,,,,,,,
6615517eaed830765bb6f633,TCR,2024-06-11_13h14.00.496,LearnStrategy,2023.2.3,Win32,59.70862193,3,1,10,0.023739897,0.003089421,1,0,0,0.8851,rock_grid_rect_2,4,11,-1,-1,0.885,0.324227682,-0.254471545,1,0,0,3.2682,Gabbro_rect,4,3.268,1,9,0,9,0,1,,,,,,,,,,,,,
6615517eaed830765bb6f633,TCR,2024-06-11_13h14.00.496,LearnStrategy,2023.2.3,Win32,59.70862193,3,1,11,0.065365874,0.00699185,1,0,0,1.0902,rock_grid_rect_2,3,13,-1,-1,1.09,0.15902437,-0.409268313,1,0,0,2.9208,Peridotite_rect,7,2.921,0,10,0,10,0,1,,,,,,,,,,,,,
6615517eaed830765bb6f633,TCR,2024-06-11_13h14.00.496,LearnStrategy,2023.2.3,Win32,59.70862193,3,1,12,0.136910589,0.016097551,1,0,0,0.8075,rock_grid_rect_2,8,03,-1,-1,0.808,0.365853659,-0.397560976,1,0,0,1.7199,Pumice_rect,8,1.72,1,11,0,11,0,1,,,,,,,,,,,,,
6615517eaed830765bb6f633,TCR,2024-06-11_13h14.00.496,LearnStrategy,2023.2.3,Win32,59.70862193,3,1,13,0.091382134,-0.015121981,1,0,0,1.1524,rock_grid_rect_2,6,09,-1,-1,1.152,0.086178862,-0.387154531,1,0,0,2.0352,Peridotite_rect,7,2.035,0,12,0,12,0,1,,,,,,,,,,,,,
6615517eaed830765bb6f633,TCR,2024-06-11_13h14.00.496,LearnStrategy,2023.2.3,Win32,59.70862193,3,1,14,0.070569145,-0.008617916,1,0,0,0.8245,rock_grid_rect_2,8,08,-1,-1,0.825,-0.363902419,-0.253170752,1,0,0,3.1248,Andesite_rect,1,3.125,0,13,0,13,0,1,,,,,,,,,,,,,
6615517eaed830765bb6f633,TCR,2024-06-11_13h14.00.496,LearnStrategy,2023.2.3,Win32,59.70862193,3,1,15,0.065365874,0.005691057,1,0,0,1.3047,rock_grid_rect_2,7,04,-1,-1,1.305,-0.38601625,-0.253170752,1,0,0,1.407,Andesite_rect,1,1.407,0,14,0,14,0,1,,,,,,,,,,,,,
6615517eaed830765bb6f633,TCR,2024-06-11_13h14.00.496,LearnStrategy,2023.2.3,Win32,59.70862193,3,1,16,0.040650407,-0.008617916,1,0,0,0.8151,rock_grid_rect_2,1,07,-1,-1,0.815,0.105691057,-0.242764257,1,0,0,1.6722,Diorite_rect,3,1.672,0,15,0,15,0,1,,,,,,,,,,,,,
6615517eaed830765bb6f633,TCR,2024-06-11_13h14.00.496,LearnStrategy,2023.2.3,Win32,59.70862193,3,2,1,,,,,,,,7,15,,,,,,,,,,,6,2.206,0,,,,,,-0.075121921,-0.415772378,1,0,0,2.2064,Pegmatite_rect,0,0,0,0,1,
6615517eaed830765bb6f633,TCR,2024-06-11_13h14.00.496,LearnStrategy,2023.2.3,Win32,59.70862193,3,2,2,,,,,,,,1,14,,,,,,,,,,,4,4.928,0,,,,,,0.460813048,-0.24796748,1,0,0,4.9285,Gabbro_rect,1,0,1,0,1,
6615517eaed830765bb6f633,TCR,2024-06-11_13h14.00.496,LearnStrategy,2023.2.3,Win32,59.70862193,3,2,3,,,,,,,,1,16,,,,,,,,,,,1,2.589,1,,,,,,-0.349593496,-0.254471545,1,0,0,2.5893,Andesite_rect,2,0,2,0,1,
6615517eaed830765bb6f633,TCR,2024-06-11_13h14.00.496,LearnStrategy,2023.2.3,Win32,59.70862193,3,2,4,,,,,,,,8,10,,,,,,,,,,,8,1.116,1,,,,,,0.38406506,-0.391056911,1,0,0,1.1162,Pumice_rect,3,0,3,0,1,
6615517eaed830765bb6f633,TCR,2024-06-11_13h14.00.496,LearnStrategy,2023.2.3,Win32,59.70862193,3,2,5,,,,,,,,2,01,,,,,,,,,,,2,1.202,1,,,,,,-0.082926829,-0.250569116,1,0,0,1.2017,Basalt_rect,4,0,4,0,1,
6615517eaed830765bb6f633,TCR,2024-06-11_13h14.00.496,LearnStrategy,2023.2.3,Win32,59.70862193,3,2,6,,,,,,,,3,15,,,,,,,,,,,4,3.999,0,,,,,,0.378861789,-0.26097561,1,0,0,3.9988,Gabbro_rect,5,0,5,0,1,
6615517eaed830765bb6f633,TCR,2024-06-11_13h14.00.496,LearnStrategy,2023.2.3,Win32,59.70862193,3,2,7,,,,,,,,6,12,,,,,,,,,,,3,1.043,0,,,,,,0.208455304,-0.258373974,1,0,0,1.0434,Diorite_rect,6,0,6,0,1,
6615517eaed830765bb6f633,TCR,2024-06-11_13h14.00.496,LearnStrategy,2023.2.3,Win32,59.70862193,3,2,8,,,,,,,,7,08,,,,,,,,,,,8,2.094,0,,,,,,0.341138192,-0.396260182,1,0,0,2.0942,Pumice_rect,7,0,7,0,1,
6615517eaed830765bb6f633,TCR,2024-06-11_13h14.00.496,LearnStrategy,2023.2.3,Win32,59.70862193,3,2,9,,,,,,,,6,06,,,,,,,,,,,6,2.915,1,,,,,,-0.106341453,-0.414471584,1,0,0,2.9147,Pegmatite_rect,8,0,8,0,1,
6615517eaed830765bb6f633,TCR,2024-06-11_13h14.00.496,LearnStrategy,2023.2.3,Win32,59.70862193,3,2,10,,,,,,,,4,09,,,,,,,,,,,4,4.696,1,,,,,,0.315121931,-0.228455285,1,0,0,4.696,Gabbro_rect,9,0,9,0,1,
6615517eaed830765bb6f633,TCR,2024-06-11_13h14.00.496,LearnStrategy,2023.2.3,Win32,59.70862193,3,2,11,,,,,,,,3,07,,,,,,,,,,,3,2.748,1,,,,,,0.14601624,-0.255772387,1,0,0,2.748,Diorite_rect,10,0,10,0,1,
6615517eaed830765bb6f633,TCR,2024-06-11_13h14.00.496,LearnStrategy,2023.2.3,Win32,59.70862193,3,2,12,,,,,,,,4,12,,,,,,,,,,,2,1.57,0,,,,,,-0.10504066,-0.240162621,1,0,0,1.5699,Basalt_rect,11,0,11,0,1,
6615517eaed830765bb6f633,TCR,2024-06-11_13h14.00.496,LearnStrategy,2023.2.3,Win32,59.70862193,3,2,13,,,,,,,,5,05,,,,,,,,,,,5,1.285,1,,,,,,-0.374308913,-0.402764247,1,0,0,1.2853,Obsidian_rect,12,0,12,0,1,
6615517eaed830765bb6f633,TCR,2024-06-11_13h14.00.496,LearnStrategy,2023.2.3,Win32,59.70862193,3,2,14,,,,,,,,8,14,,,,,,,,,,,8,1.269,1,,,,,,0.441300853,-0.411869899,1,0,0,1.2695,Pumice_rect,13,0,13,0,1,
6615517eaed830765bb6f633,TCR,2024-06-11_13h14.00.496,LearnStrategy,2023.2.3,Win32,59.70862193,3,2,15,,,,,,,,2,09,,,,,,,,,,,2,1.861,1,,,,,,-0.098536595,-0.254471545,1,0,0,1.8612,Basalt_rect,14,0,14,0,1,
6615517eaed830765bb6f633,TCR,2024-06-11_13h14.00.496,LearnStrategy,2023.2.3,Win32,59.70862193,3,2,16,,,,,,,,5,04,,,,,,,,,,,5,1.477,1,,,,,,-0.435447135,-0.414471584,1,0,0,1.4766,Obsidian_rect,15,0,15,0,1,
6615517eaed830765bb6f633,TCR,2024-06-11_13h14.00.496,LearnStrategy,2023.2.3,Win32,59.70862193,4,1,1,0.045853678,0.021300823,1,0,0,1.0745,rock_grid_rect_2,6,09,-1,-1,1.074,0.036748027,-0.404065041,1,0,0,4.846,Peridotite_rect,7,4.846,0,0,0,0,0,1,,,,,,,,,,,,,
6615517eaed830765bb6f633,TCR,2024-06-11_13h14.00.496,LearnStrategy,2023.2.3,Win32,59.70862193,4,1,2,0.108292742,-0.007317073,1,0,0,1.608,rock_grid_rect_2,5,14,-1,-1,1.608,-0.395121951,-0.387154531,1,0,0,2.0055,Obsidian_rect,5,2.006,1,1,0,1,0,1,,,,,,,,,,,,,
6615517eaed830765bb6f633,TCR,2024-06-11_13h14.00.496,LearnStrategy,2023.2.3,Win32,59.70862193,4,1,3,0.05495933,0.008292693,1,0,0,1.1643,rock_grid_rect_2,8,15,-1,-1,1.164,0.377560995,-0.410569106,1,0,0,1.2999,Pumice_rect,8,1.3,1,2,0,2,0,1,,,,,,,,,,,,,
6615517eaed830765bb6f633,TCR,2024-06-11_13h14.00.496,LearnStrategy,2023.2.3,Win32,59.70862193,4,1,4,0.02504069,-0.000813008,1,0,0,0.8791,rock_grid_rect_2,8,09,-1,-1,0.879,0.376260202,-0.246666687,1,0,0,2.4763,Gabbro_rect,4,2.476,0,3,0,3,0,1,,,,,,,,,,,,,
6615517eaed830765bb6f633,TCR,2024-06-11_13h14.00.496,LearnStrategy,2023.2.3,Win32,59.70862193,4,1,5,0.096585406,-0.009918709,1,0,0,0.8725,rock_grid_rect_2,4,13,-1,-1,0.872,0.367154452,-0.262276453,1,0,0,2.5894,Gabbro_rect,4,2.589,1,4,0,4,0,1,,,,,,,,,,,,,
6615517eaed830765bb6f633,TCR,2024-06-11_13h14.00.496,LearnStrategy,2023.2.3,Win32,59.70862193,4,1,6,0.066666667,0.018699187,1,0,0,0.9279,rock_grid_rect_2,4,03,-1,-1,0.928,0.095284612,-0.249268322,1,0,0,4.2892,Diorite_rect,3,4.289,0,5,0,5,0,1,,,,,,,,,,,,,
6615517eaed830765bb6f633,TCR,2024-06-11_13h14.00.496,LearnStrategy,2023.2.3,Win32,59.70862193,4,1,7,0.083577275,-0.011219502,1,0,0,0.9995,rock_grid_rect_2,6,15,-1,-1,1,-0.089430894,-0.404065041,1,0,0,3.124,Pegmatite_rect,6,3.124,1,6,0,6,0,1,,,,,,,,,,,,,
6615517eaed830765bb6f633,TCR,2024-06-11_13h14.00.496,LearnStrategy,2023.2.3,Win32,59.70862193,4,1,8,0.130406524,0.00699185,1,0,0,0.8642,rock_grid_rect_2,7,04,-1,-1,0.864,0.363252072,-0.250569116,1,0,0,2.7577,Gabbro_rect,4,2.758,0,7,0,7,0,1,,,,,,,,,,,,,
6615517eaed830765bb6f633,TCR,2024-06-11_13h14.00.496,LearnStrategy,2023.2.3,Win32,59.70862193,4,1,9,0.066666667,-0.021626046,1,0,0,0.8852,rock_grid_rect_2,7,05,-1,-1,0.885,0.127804938,-0.397560976,1,0,0,3.1978,Peridotite_rect,7,3.198,1,8,0,8,0,1,,,,,,,,,,,,,
6615517eaed830765bb6f633,TCR,2024-06-11_13h14.00.496,LearnStrategy,2023.2.3,Win32,59.70862193,4,1,10,0.048455265,-0.016422774,1,0,0,1.1298,rock_grid_rect_2,1,09,-1,-1,1.13,0.393170712,-0.259674817,1,0,0,1.921,Gabbro_rect,4,1.921,0,9,0,9,0,1,,,,,,,,,,,,,
6615517eaed830765bb6f633,TCR,2024-06-11_13h14.00.496,LearnStrategy,2023.2.3,Win32,59.70862193,4,1,11,0.061463395,0.018699187,1,0,0,0.975,rock_grid_rect_2,2,12,-1,-1,0.975,-0.389918679,-0.233658556,1,0,0,1.4355,Andesite_rect,1,1.436,0,10,0,10,0,1,,,,,,,,,,,,,
6615517eaed830765bb6f633,TCR,2024-06-11_13h14.00.496,LearnStrategy,2023.2.3,Win32,59.70862193,4,1,12,0.139512175,0.008292693,1,0,0,0.8621,rock_grid_rect_2,3,11,-1,-1,0.862,0.400975669,-0.244065051,1,0,0,2.1334,Gabbro_rect,4,2.133,0,11,0,11,0,1,,,,,,,,,,,,,
6615517eaed830765bb6f633,TCR,2024-06-11_13h14.00.496,LearnStrategy,2023.2.3,Win32,59.70862193,4,1,13,0.090081341,0.021300823,1,0,0,1.1031,rock_grid_rect_2,3,13,-1,-1,1.103,0.130406524,-0.264878039,1,0,0,2.5705,Diorite_rect,3,2.571,1,12,0,12,0,1,,,,,,,,,,,,,
6615517eaed830765bb6f633,TCR,2024-06-11_13h14.00.496,LearnStrategy,2023.2.3,Win32,59.70862193,4,1,14,0.092682927,-0.00601628,1,0,0,0.9356,rock_grid_rect_2,1,03,-1,-1,0.936,0.071869939,-0.250569116,1,0,0,1.6057,Diorite_rect,3,1.606,0,13,0,13,0,1,,,,,,,,,,,,,
6615517eaed830765bb6f633,TCR,2024-06-11_13h14.00.496,LearnStrategy,2023.2.3,Win32,59.70862193,4,1,15,0.104390264,-0.016422774,1,0,0,1.0066,rock_grid_rect_2,4,03,-1,-1,1.007,0.086178862,-0.245365844,1,0,0,1.928,Diorite_rect,3,1.928,0,14,0,14,0,1,,,,,,,,,,,,,
6615517eaed830765bb6f633,TCR,2024-06-11_13h14.00.496,LearnStrategy,2023.2.3,Win32,59.70862193,4,1,16,0.101788677,-0.011219502,1,0,0,1.1697,rock_grid_rect_2,7,10,-1,-1,1.17,0.181138251,-0.409268313,1,0,0,3.0602,Peridotite_rect,7,3.06,1,15,0,15,0,1,,,,,,,,,,,,,
6615517eaed830765bb6f633,TCR,2024-06-11_13h14.00.496,LearnStrategy,2023.2.3,Win32,59.70862193,4,2,1,,,,,,,,8,10,,,,,,,,,,,8,1.924,1,,,,,,0.408780528,-0.392357704,1,0,0,1.924,Pumice_rect,0,0,0,0,1,
6615517eaed830765bb6f633,TCR,2024-06-11_13h14.00.496,LearnStrategy,2023.2.3,Win32,59.70862193,4,2,2,,,,,,,,3,06,,,,,,,,,,,4,2.501,0,,,,,,0.425691037,-0.262276453,1,0,0,2.5014,Gabbro_rect,1,0,1,0,1,
6615517eaed830765bb6f633,TCR,2024-06-11_13h14.00.496,LearnStrategy,2023.2.3,Win32,59.70862193,4,2,3,,,,,,,,5,04,,,,,,,,,,,5,2.301,1,,,,,,-0.371707327,-0.404065041,1,0,0,2.3005,Obsidian_rect,2,0,2,0,1,
6615517eaed830765bb6f633,TCR,2024-06-11_13h14.00.496,LearnStrategy,2023.2.3,Win32,59.70862193,4,2,4,,,,,,,,1,11,,,,,,,,,,,1,1.948,1,,,,,,-0.402926809,-0.240162621,1,0,0,1.9485,Andesite_rect,3,0,3,0,1,
6615517eaed830765bb6f633,TCR,2024-06-11_13h14.00.496,LearnStrategy,2023.2.3,Win32,59.70862193,4,2,5,,,,,,,,4,12,,,,,,,,,,,2,1.985,0,,,,,,-0.06601627,-0.249268322,1,0,0,1.985,Basalt_rect,4,0,4,0,1,
6615517eaed830765bb6f633,TCR,2024-06-11_13h14.00.496,LearnStrategy,2023.2.3,Win32,59.70862193,4,2,6,,,,,,,,2,11,,,,,,,,,,,8,2.304,0,,,,,,0.447804918,-0.387154531,1,0,0,2.3042,Pumice_rect,5,0,5,0,1,
6615517eaed830765bb6f633,TCR,2024-06-11_13h14.00.496,LearnStrategy,2023.2.3,Win32,59.70862193,4,2,7,,,,,,,,3,12,,,,,,,,,,,7,1.954,0,,,,,,0.166829328,-0.396260182,1,0,0,1.954,Peridotite_rect,6,0,6,0,1,
6615517eaed830765bb6f633,TCR,2024-06-11_13h14.00.496,LearnStrategy,2023.2.3,Win32,59.70862193,4,2,8,,,,,,,,4,16,,,,,,,,,,,4,2.053,1,,,,,,0.376260202,-0.258373974,1,0,0,2.0535,Gabbro_rect,7,0,7,0,1,
6615517eaed830765bb6f633,TCR,2024-06-11_13h14.00.496,LearnStrategy,2023.2.3,Win32,59.70862193,4,2,9,,,,,,,,7,06,,,,,,,,,,,3,3.731,0,,,,,,0.162926849,-0.23105692,1,0,0,3.7309,Diorite_rect,8,0,8,0,1,
6615517eaed830765bb6f633,TCR,2024-06-11_13h14.00.496,LearnStrategy,2023.2.3,Win32,59.70862193,4,2,10,,,,,,,,1,16,,,,,,,,,,,7,2.464,0,,,,,,0.156422784,-0.387154531,1,0,0,2.464,Peridotite_rect,9,0,9,0,1,
6615517eaed830765bb6f633,TCR,2024-06-11_13h14.00.496,LearnStrategy,2023.2.3,Win32,59.70862193,4,2,11,,,,,,,,6,06,,,,,,,,,,,4,4.433,0,,,,,,0.367154452,-0.26097561,1,0,0,4.4325,Gabbro_rect,10,0,10,0,1,
6615517eaed830765bb6f633,TCR,2024-06-11_13h14.00.496,LearnStrategy,2023.2.3,Win32,59.70862193,4,2,12,,,,,,,,7,12,,,,,,,,,,,7,2.441,1,,,,,,0.035447135,-0.413170791,1,0,0,2.4411,Peridotite_rect,11,0,11,0,1,
6615517eaed830765bb6f633,TCR,2024-06-11_13h14.00.496,LearnStrategy,2023.2.3,Win32,59.70862193,4,2,13,,,,,,,,6,03,,,,,,,,,,,6,1.675,1,,,,,,-0.137560986,-0.401463454,1,0,0,1.6754,Pegmatite_rect,12,0,12,0,1,
6615517eaed830765bb6f633,TCR,2024-06-11_13h14.00.496,LearnStrategy,2023.2.3,Win32,59.70862193,4,2,14,,,,,,,,8,13,,,,,,,,,,,8,1.808,1,,,,,,0.46601632,-0.400162661,1,0,0,1.8085,Pumice_rect,13,0,13,0,1,
6615517eaed830765bb6f633,TCR,2024-06-11_13h14.00.496,LearnStrategy,2023.2.3,Win32,59.70862193,4,2,15,,,,,,,,5,02,,,,,,,,,,,5,1.959,1,,,,,,-0.352195132,-0.406666726,1,0,0,1.9588,Obsidian_rect,14,0,14,0,1,
6615517eaed830765bb6f633,TCR,2024-06-11_13h14.00.496,LearnStrategy,2023.2.3,Win32,59.70862193,4,2,16,,,,,,,,2,01,,,,,,,,,,,2,1.568,1,,,,,,-0.103739818,-0.238861779,1,0,0,1.5683,Basalt_rect,15,0,15,0,1,
6615517eaed830765bb6f633,TCR,2024-06-11_13h14.00.496,LearnStrategy,2023.2.3,Win32,59.70862193,5,1,1,-0.120650377,0.022601616,1,0,0,12.4486,rock_grid_rect_2,4,14,-1,-1,12.449,0.391869919,-0.263577246,1,0,0,7.1103,Gabbro_rect,4,7.11,1,0,0,0,0,1,,,,,,,,,,,,,
6615517eaed830765bb6f633,TCR,2024-06-11_13h14.00.496,LearnStrategy,2023.2.3,Win32,59.70862193,5,1,2,0.018536625,0.017398344,1,0,0,1.036,rock_grid_rect_2,1,02,-1,-1,1.036,0.398373984,-0.414471584,1,0,0,1.605,Pumice_rect,8,1.605,0,1,0,1,0,1,,,,,,,,,,,,,
6615517eaed830765bb6f633,TCR,2024-06-11_13h14.00.496,LearnStrategy,2023.2.3,Win32,59.70862193,5,1,3,0.101788677,0.008292693,1,0,0,0.9789,rock_grid_rect_2,3,16,-1,-1,0.979,0.134309003,-0.232357714,1,0,0,2.8223,Diorite_rect,3,2.822,1,2,0,2,0,1,,,,,,,,,,,,,
6615517eaed830765bb6f633,TCR,2024-06-11_13h14.00.496,LearnStrategy,2023.2.3,Win32,59.70862193,5,1,4,0.096585406,-0.000813008,1,0,0,1.0467,rock_grid_rect_2,6,05,-1,-1,1.047,-0.397723587,-0.415772378,1,0,0,1.6179,Obsidian_rect,5,1.618,0,3,0,3,0,1,,,,,,,,,,,,,
6615517eaed830765bb6f633,TCR,2024-06-11_13h14.00.496,LearnStrategy,2023.2.3,Win32,59.70862193,5,1,5,0.126504045,0.001788628,1,0,0,0.9346,rock_grid_rect_2,2,12,-1,-1,0.935,-0.395121951,-0.251869909,1,0,0,2.6051,Andesite_rect,1,2.605,0,4,0,4,0,1,,,,,,,,,,,,,
6615517eaed830765bb6f633,TCR,2024-06-11_13h14.00.496,LearnStrategy,2023.2.3,Win32,59.70862193,5,1,6,0.096585406,-0.01902441,1,0,0,1.2343,rock_grid_rect_2,4,08,-1,-1,1.234,0.386666647,-0.241463415,1,0,0,3.1549,Gabbro_rect,4,3.155,1,5,0,5,0,1,,,,,,,,,,,,,
6615517eaed830765bb6f633,TCR,2024-06-11_13h14.00.496,LearnStrategy,2023.2.3,Win32,59.70862193,5,1,7,0.022439005,-0.003414644,1,0,0,0.9085,rock_grid_rect_2,7,10,-1,-1,0.909,0.309918759,-0.254471545,1,0,0,2.4572,Gabbro_rect,4,2.457,0,6,0,6,0,1,,,,,,,,,,,,,
6615517eaed830765bb6f633,TCR,2024-06-11_13h14.00.496,LearnStrategy,2023.2.3,Win32,59.70862193,5,1,8,0.062764287,0.013495915,1,0,0,0.858,rock_grid_rect_2,1,10,-1,-1,0.858,-0.330081301,-0.249268322,1,0,0,1.6692,Andesite_rect,1,1.669,1,7,0,7,0,1,,,,,,,,,,,,,
6615517eaed830765bb6f633,TCR,2024-06-11_13h14.00.496,LearnStrategy,2023.2.3,Win32,59.70862193,5,1,9,0.057561015,-0.017723567,1,0,0,1.2005,rock_grid_rect_2,7,07,-1,-1,1.2,0.082276482,-0.409268313,1,0,0,2.0749,Peridotite_rect,7,2.075,1,8,0,8,0,1,,,,,,,,,,,,,
6615517eaed830765bb6f633,TCR,2024-06-11_13h14.00.496,LearnStrategy,2023.2.3,Win32,59.70862193,5,1,10,0.125203252,-0.009918709,1,0,0,0.9741,rock_grid_rect_2,6,05,-1,-1,0.974,-0.348292653,-0.396260182,1,0,0,1.2952,Obsidian_rect,5,1.295,0,9,0,9,0,1,,,,,,,,,,,,,
6615517eaed830765bb6f633,TCR,2024-06-11_13h14.00.496,LearnStrategy,2023.2.3,Win32,59.70862193,5,1,11,0.062764287,0.00699185,1,0,0,1.2787,rock_grid_rect_2,5,11,-1,-1,1.279,-0.322276393,-0.400162661,1,0,0,1.758,Obsidian_rect,5,1.758,1,10,0,10,0,1,,,,,,,,,,,,,
6615517eaed830765bb6f633,TCR,2024-06-11_13h14.00.496,LearnStrategy,2023.2.3,Win32,59.70862193,5,1,12,-0.012682907,-0.002113851,1,0,0,0.9479,rock_grid_rect_2,3,08,-1,-1,0.948,-0.043902439,-0.402764247,1,0,0,1.9082,Pegmatite_rect,6,1.908,0,11,0,11,0,1,,,,,,,,,,,,,
6615517eaed830765bb6f633,TCR,2024-06-11_13h14.00.496,LearnStrategy,2023.2.3,Win32,59.70862193,5,1,13,0.112195122,0.010894279,1,0,0,2.1119,rock_grid_rect_2,4,08,-1,-1,2.112,0.112195122,-0.401463454,1,0,0,4.0608,Peridotite_rect,7,4.061,0,12,0,12,0,1,,,,,,,,,,,,,
6615517eaed830765bb6f633,TCR,2024-06-11_13h14.00.496,LearnStrategy,2023.2.3,Win32,59.70862193,5,1,14,0.013333353,0.00699185,1,0,0,0.7895,rock_grid_rect_2,3,09,-1,-1,0.789,-0.108943089,-0.385853639,1,0,0,1.5696,Pegmatite_rect,6,1.57,0,13,0,13,0,1,,,,,,,,,,,,,
6615517eaed830765bb6f633,TCR,2024-06-11_13h14.00.496,LearnStrategy,2023.2.3,Win32,59.70862193,5,1,15,0.075772417,0.005691057,1,0,0,0.7868,rock_grid_rect_2,7,05,-1,-1,0.787,0.335935019,-0.388455324,1,0,0,1.9543,Pumice_rect,8,1.954,0,14,0,14,0,1,,,,,,,,,,,,,
6615517eaed830765bb6f633,TCR,2024-06-11_13h14.00.496,LearnStrategy,2023.2.3,Win32,59.70862193,5,1,16,0.101788677,-0.004715437,1,0,0,0.9595,rock_grid_rect_2,8,09,-1,-1,0.959,0.455609776,-0.396260182,1,0,0,1.9101,Pumice_rect,8,1.91,1,15,0,15,0,1,,,,,,,,,,,,,
6615517eaed830765bb6f633,TCR,2024-06-11_13h14.00.496,LearnStrategy,2023.2.3,Win32,59.70862193,5,2,1,,,,,,,,2,06,,,,,,,,,,,2,3.198,1,,,,,,-0.144065051,-0.258373974,1,0,0,3.1985,Basalt_rect,0,0,0,0,1,
6615517eaed830765bb6f633,TCR,2024-06-11_13h14.00.496,LearnStrategy,2023.2.3,Win32,59.70862193,5,2,2,,,,,,,,8,02,,,,,,,,,,,8,1.284,1,,,,,,0.355447214,-0.397560976,1,0,0,1.2836,Pumice_rect,1,0,1,0,1,
6615517eaed830765bb6f633,TCR,2024-06-11_13h14.00.496,LearnStrategy,2023.2.3,Win32,59.70862193,5,2,3,,,,,,,,7,14,,,,,,,,,,,7,2.174,1,,,,,,0.139512175,-0.401463454,1,0,0,2.1741,Peridotite_rect,2,0,2,0,1,
6615517eaed830765bb6f633,TCR,2024-06-11_13h14.00.496,LearnStrategy,2023.2.3,Win32,59.70862193,5,2,4,,,,,,,,3,15,,,,,,,,,,,4,2.205,0,,,,,,0.342439084,-0.26097561,1,0,0,2.2052,Gabbro_rect,3,0,3,0,1,
6615517eaed830765bb6f633,TCR,2024-06-11_13h14.00.496,LearnStrategy,2023.2.3,Win32,59.70862193,5,2,5,,,,,,,,1,14,,,,,,,,,,,1,1.597,1,,,,,,-0.418536575,-0.259674817,1,0,0,1.5974,Andesite_rect,4,0,4,0,1,
6615517eaed830765bb6f633,TCR,2024-06-11_13h14.00.496,LearnStrategy,2023.2.3,Win32,59.70862193,5,2,6,,,,,,,,6,10,,,,,,,,,,,6,1.448,1,,,,,,-0.106341453,-0.401463454,1,0,0,1.448,Pegmatite_rect,5,0,5,0,1,
6615517eaed830765bb6f633,TCR,2024-06-11_13h14.00.496,LearnStrategy,2023.2.3,Win32,59.70862193,5,2,7,,,,,,,,3,14,,,,,,,,,,,4,3.346,0,,,,,,0.397073191,-0.237560986,1,0,0,3.3456,Gabbro_rect,6,0,6,0,1,
6615517eaed830765bb6f633,TCR,2024-06-11_13h14.00.496,LearnStrategy,2023.2.3,Win32,59.70862193,5,2,8,,,,,,,,5,06,,,,,,,,,,,5,2.113,1,,,,,,-0.461463395,-0.410569106,1,0,0,2.1131,Obsidian_rect,7,0,7,0,1,
6615517eaed830765bb6f633,TCR,2024-06-11_13h14.00.496,LearnStrategy,2023.2.3,Win32,59.70862193,5,2,9,,,,,,,,8,05,,,,,,,,,,,1,1.345,0,,,,,,-0.410731717,-0.250569116,1,0,0,1.3446,Andesite_rect,8,0,8,0,1,
6615517eaed830765bb6f633,TCR,2024-06-11_13h14.00.496,LearnStrategy,2023.2.3,Win32,59.70862193,5,2,10,,,,,,,,4,01,,,,,,,,,,,3,2.411,0,,,,,,0.188943109,-0.251869909,1,0,0,2.4106,Diorite_rect,9,0,9,0,1,
6615517eaed830765bb6f633,TCR,2024-06-11_13h14.00.496,LearnStrategy,2023.2.3,Win32,59.70862193,5,2,11,,,,,,,,7,08,,,,,,,,,,,4,1.221,0,,,,,,0.351544735,-0.236260192,1,0,0,1.2208,Gabbro_rect,10,0,10,0,1,
6615517eaed830765bb6f633,TCR,2024-06-11_13h14.00.496,LearnStrategy,2023.2.3,Win32,59.70862193,5,2,12,,,,,,,,5,09,,,,,,,,,,,5,1.192,1,,,,,,-0.449756107,-0.389756117,1,0,0,1.1917,Obsidian_rect,11,0,11,0,1,
6615517eaed830765bb6f633,TCR,2024-06-11_13h14.00.496,LearnStrategy,2023.2.3,Win32,59.70862193,5,2,13,,,,,,,,6,07,,,,,,,,,,,6,1.996,1,,,,,,-0.088130052,-0.404065041,1,0,0,1.9957,Pegmatite_rect,12,0,12,0,1,
6615517eaed830765bb6f633,TCR,2024-06-11_13h14.00.496,LearnStrategy,2023.2.3,Win32,59.70862193,5,2,14,,,,,,,,4,10,,,,,,,,,,,3,1.811,0,,,,,,0.160325263,-0.242764257,1,0,0,1.8108,Diorite_rect,13,0,13,0,1,
6615517eaed830765bb6f633,TCR,2024-06-11_13h14.00.496,LearnStrategy,2023.2.3,Win32,59.70862193,5,2,15,,,,,,,,2,10,,,,,,,,,,,2,1.585,1,,,,,,-0.153170702,-0.264878039,1,0,0,1.5851,Basalt_rect,14,0,14,0,1,
6615517eaed830765bb6f633,TCR,2024-06-11_13h14.00.496,LearnStrategy,2023.2.3,Win32,59.70862193,5,2,16,,,,,,,,1,05,,,,,,,,,,,7,2.628,0,,,,,,0.136910589,-0.391056911,1,0,0,2.6275,Peridotite_rect,15,0,15,0,1,
6615517eaed830765bb6f633,TCR,2024-06-11_13h14.00.496,LearnStrategy,2023.2.3,Win32,59.70862193,6,1,1,0.118699187,0.004390214,1,0,0,1.9541,rock_grid_rect_2,4,14,-1,-1,1.954,0.348943149,-0.236260192,1,0,0,5.1449,Gabbro_rect,4,5.145,1,0,0,0,0,1,,,,,,,,,,,,,
6615517eaed830765bb6f633,TCR,2024-06-11_13h14.00.496,LearnStrategy,2023.2.3,Win32,59.70862193,6,1,2,0.082276482,-0.008617916,1,0,0,0.8806,rock_grid_rect_2,3,09,-1,-1,0.881,0.116097601,-0.242764257,1,0,0,1.5458,Diorite_rect,3,1.546,1,1,0,1,0,1,,,,,,,,,,,,,
6615517eaed830765bb6f633,TCR,2024-06-11_13h14.00.496,LearnStrategy,2023.2.3,Win32,59.70862193,6,1,3,0.062764287,-0.008617916,1,0,0,0.9564,rock_grid_rect_2,1,10,-1,-1,0.956,-0.343089431,-0.242764257,1,0,0,2.0226,Andesite_rect,1,2.023,1,2,0,2,0,1,,,,,,,,,,,,,
6615517eaed830765bb6f633,TCR,2024-06-11_13h14.00.496,LearnStrategy,2023.2.3,Win32,59.70862193,6,1,4,0.09398372,-0.008617916,1,0,0,1.0437,rock_grid_rect_2,4,11,-1,-1,1.044,-0.071219492,-0.258373974,1,0,0,1.4071,Basalt_rect,2,1.407,0,3,0,3,0,1,,,,,,,,,,,,,
6615517eaed830765bb6f633,TCR,2024-06-11_13h14.00.496,LearnStrategy,2023.2.3,Win32,59.70862193,6,1,5,0.035447135,0.005691057,1,0,0,0.9007,rock_grid_rect_2,1,07,-1,-1,0.901,0.213658576,-0.238861779,1,0,0,1.6151,Diorite_rect,3,1.615,0,4,0,4,0,1,,,,,,,,,,,,,
6615517eaed830765bb6f633,TCR,2024-06-11_13h14.00.496,LearnStrategy,2023.2.3,Win32,59.70862193,6,1,6,0.001626016,-0.01902441,1,0,0,0.9852,rock_grid_rect_2,7,13,-1,-1,0.985,0.381463474,-0.242764257,1,0,0,7.5215,Gabbro_rect,4,7.522,0,5,0,5,0,1,,,,,,,,,,,,,
6615517eaed830765bb6f633,TCR,2024-06-11_13h14.00.496,LearnStrategy,2023.2.3,Win32,59.70862193,6,1,7,0.104390264,-0.017723567,1,0,0,1.0828,rock_grid_rect_2,8,16,-1,-1,1.083,0.367154452,-0.415772378,1,0,0,2.3964,Pumice_rect,8,2.396,1,6,0,6,0,1,,,,,,,,,,,,,
6615517eaed830765bb6f633,TCR,2024-06-11_13h14.00.496,LearnStrategy,2023.2.3,Win32,59.70862193,6,1,8,0.08097559,-0.003414644,1,0,0,1.0051,rock_grid_rect_2,4,05,-1,-1,1.005,0.086178862,-0.398861769,1,0,0,2.1843,Peridotite_rect,7,2.184,0,7,0,7,0,1,,,,,,,,,,,,,
6615517eaed830765bb6f633,TCR,2024-06-11_13h14.00.496,LearnStrategy,2023.2.3,Win32,59.70862193,6,1,9,0.092682927,0.003089421,1,0,0,0.7901,rock_grid_rect_2,7,05,-1,-1,0.79,0.192845588,-0.244065051,1,0,0,1.6019,Diorite_rect,3,1.602,0,8,0,8,0,1,,,,,,,,,,,,,
6615517eaed830765bb6f633,TCR,2024-06-11_13h14.00.496,LearnStrategy,2023.2.3,Win32,59.70862193,6,1,10,0.084878069,-0.011219502,1,0,0,0.9167,rock_grid_rect_2,2,08,-1,-1,0.917,-0.080325193,-0.249268322,1,0,0,1.1407,Basalt_rect,2,1.141,1,9,0,9,0,1,,,,,,,,,,,,,
6615517eaed830765bb6f633,TCR,2024-06-11_13h14.00.496,LearnStrategy,2023.2.3,Win32,59.70862193,6,1,11,0.078374004,-0.015121981,1,0,0,0.9384,rock_grid_rect_2,3,13,-1,-1,0.938,0.207154511,-0.24796748,1,0,0,2.6691,Diorite_rect,3,2.669,1,10,0,10,0,1,,,,,,,,,,,,,
6615517eaed830765bb6f633,TCR,2024-06-11_13h14.00.496,LearnStrategy,2023.2.3,Win32,59.70862193,6,1,12,0.075772417,0.009593486,1,0,0,0.9672,rock_grid_rect_2,5,16,-1,-1,0.967,-0.379512185,-0.409268313,1,0,0,3.8097,Obsidian_rect,5,3.81,1,11,0,11,0,1,,,,,,,,,,,,,
6615517eaed830765bb6f633,TCR,2024-06-11_13h14.00.496,LearnStrategy,2023.2.3,Win32,59.70862193,6,1,13,0.126504045,0.018699187,1,0,0,0.7466,rock_grid_rect_2,7,07,-1,-1,0.747,0.34504067,-0.24796748,1,0,0,2.4438,Gabbro_rect,4,2.444,0,12,0,12,0,1,,,,,,,,,,,,,
6615517eaed830765bb6f633,TCR,2024-06-11_13h14.00.496,LearnStrategy,2023.2.3,Win32,59.70862193,6,1,14,0.047154472,-0.016422774,1,0,0,0.853,rock_grid_rect_2,3,09,-1,-1,0.853,0.174634186,-0.249268322,1,0,0,1.7816,Diorite_rect,3,1.782,1,13,0,13,0,1,,,,,,,,,,,,,
6615517eaed830765bb6f633,TCR,2024-06-11_13h14.00.496,LearnStrategy,2023.2.3,Win32,59.70862193,6,1,15,0.095284612,0.021300823,1,0,0,1.2329,rock_grid_rect_2,6,08,-1,-1,1.233,-0.077723557,-0.387154531,1,0,0,3.1569,Pegmatite_rect,6,3.157,1,14,0,14,0,1,,,,,,,,,,,,,
6615517eaed830765bb6f633,TCR,2024-06-11_13h14.00.496,LearnStrategy,2023.2.3,Win32,59.70862193,6,1,16,0.05495933,0.003089421,1,0,0,1.3035,rock_grid_rect_2,8,08,-1,-1,1.303,-0.417235782,-0.240162621,1,0,0,2.5623,Andesite_rect,1,2.562,0,15,0,15,0,1,,,,,,,,,,,,,
6615517eaed830765bb6f633,TCR,2024-06-11_13h14.00.496,LearnStrategy,2023.2.3,Win32,59.70862193,6,2,1,,,,,,,,8,14,,,,,,,,,,,8,1.458,1,,,,,,0.367154452,-0.396260182,1,0,0,1.4584,Pumice_rect,0,0,0,0,1,
6615517eaed830765bb6f633,TCR,2024-06-11_13h14.00.496,LearnStrategy,2023.2.3,Win32,59.70862193,6,2,2,,,,,,,,6,13,,,,,,,,,,,7,1.948,0,,,,,,0.110894329,-0.415772378,1,0,0,1.9484,Peridotite_rect,1,0,1,0,1,
6615517eaed830765bb6f633,TCR,2024-06-11_13h14.00.496,LearnStrategy,2023.2.3,Win32,59.70862193,6,2,3,,,,,,,,1,06,,,,,,,,,,,4,1.356,0,,,,,,0.326829268,-0.233658556,1,0,0,1.3565,Gabbro_rect,2,0,2,0,1,
6615517eaed830765bb6f633,TCR,2024-06-11_13h14.00.496,LearnStrategy,2023.2.3,Win32,59.70862193,6,2,4,,,,,,,,1,04,,,,,,,,,,,1,2.076,1,,,,,,-0.371707327,-0.24796748,1,0,0,2.0758,Andesite_rect,3,0,3,0,1,
6615517eaed830765bb6f633,TCR,2024-06-11_13h14.00.496,LearnStrategy,2023.2.3,Win32,59.70862193,6,2,5,,,,,,,,7,16,,,,,,,,,,,7,1.576,1,,,,,,0.136910589,-0.419674856,1,0,0,1.5762,Peridotite_rect,4,0,4,0,1,
6615517eaed830765bb6f633,TCR,2024-06-11_13h14.00.496,LearnStrategy,2023.2.3,Win32,59.70862193,6,2,6,,,,,,,,2,16,,,,,,,,,,,4,2.414,0,,,,,,0.413983799,-0.246666687,1,0,0,2.4137,Gabbro_rect,5,0,5,0,1,
6615517eaed830765bb6f633,TCR,2024-06-11_13h14.00.496,LearnStrategy,2023.2.3,Win32,59.70862193,6,2,7,,,,,,,,3,10,,,,,,,,,,,3,2.806,1,,,,,,0.135609796,-0.232357714,1,0,0,2.8056,Diorite_rect,6,0,6,0,1,
6615517eaed830765bb6f633,TCR,2024-06-11_13h14.00.496,LearnStrategy,2023.2.3,Win32,59.70862193,6,2,8,,,,,,,,2,09,,,,,,,,,,,4,5.137,0,,,,,,0.447804918,-0.241463415,1,0,0,5.1371,Gabbro_rect,7,0,7,0,1,
6615517eaed830765bb6f633,TCR,2024-06-11_13h14.00.496,LearnStrategy,2023.2.3,Win32,59.70862193,6,2,9,,,,,,,,8,06,,,,,,,,,,,8,1.584,1,,,,,,0.347642257,-0.380650466,1,0,0,1.5843,Pumice_rect,8,0,8,0,1,
6615517eaed830765bb6f633,TCR,2024-06-11_13h14.00.496,LearnStrategy,2023.2.3,Win32,59.70862193,6,2,10,,,,,,,,7,15,,,,,,,,,,,7,0.988,1,,,,,,0.11999998,-0.397560976,1,0,0,0.9882,Peridotite_rect,9,0,9,0,1,
6615517eaed830765bb6f633,TCR,2024-06-11_13h14.00.496,LearnStrategy,2023.2.3,Win32,59.70862193,6,2,11,,,,,,,,6,12,,,,,,,,,,,3,3.289,0,,,,,,0.194146381,-0.232357714,1,0,0,3.2893,Diorite_rect,10,0,10,0,1,
6615517eaed830765bb6f633,TCR,2024-06-11_13h14.00.496,LearnStrategy,2023.2.3,Win32,59.70862193,6,2,12,,,,,,,,4,09,,,,,,,,,,,7,2.168,0,,,,,,0.161626056,-0.391056911,1,0,0,2.1683,Peridotite_rect,11,0,11,0,1,
6615517eaed830765bb6f633,TCR,2024-06-11_13h14.00.496,LearnStrategy,2023.2.3,Win32,59.70862193,6,2,13,,,,,,,,3,07,,,,,,,,,,,3,1.17,1,,,,,,0.149918719,-0.245365844,1,0,0,1.1699,Diorite_rect,12,0,12,0,1,
6615517eaed830765bb6f633,TCR,2024-06-11_13h14.00.496,LearnStrategy,2023.2.3,Win32,59.70862193,6,2,14,,,,,,,,5,08,,,,,,,,,,,5,1.646,1,,,,,,-0.341788588,-0.385853639,1,0,0,1.6464,Obsidian_rect,13,0,13,0,1,
6615517eaed830765bb6f633,TCR,2024-06-11_13h14.00.496,LearnStrategy,2023.2.3,Win32,59.70862193,6,2,15,,,,,,,,4,15,,,,,,,,,,,7,2.398,0,,,,,,0.162926849,-0.384552846,1,0,0,2.3983,Peridotite_rect,14,0,14,0,1,
6615517eaed830765bb6f633,TCR,2024-06-11_13h14.00.496,LearnStrategy,2023.2.3,Win32,59.70862193,6,2,16,,,,,,,,5,05,,,,,,,,,,,6,1.32,0,,,,,,-0.141463415,-0.419674856,1,0,0,1.3196,Pegmatite_rect,15,0,15,0,1,
6615517eaed830765bb6f633,TCR,2024-06-11_13h14.00.496,LearnStrategy,2023.2.3,Win32,59.70862193,7,1,1,0.152520305,0.004390214,1,0,0,1.0811,rock_grid_rect_2,6,16,-1,-1,1.081,0.182439044,-0.397560976,1,0,0,3.2563,Peridotite_rect,7,3.256,0,0,0,0,0,1,,,,,,,,,,,,,
6615517eaed830765bb6f633,TCR,2024-06-11_13h14.00.496,LearnStrategy,2023.2.3,Win32,59.70862193,7,1,2,0.11999998,0.00699185,1,0,0,0.9174,rock_grid_rect_2,2,14,-1,-1,0.917,0.341138192,-0.389756117,1,0,0,1.2999,Pumice_rect,8,1.3,0,1,0,1,0,1,,,,,,,,,,,,,
6615517eaed830765bb6f633,TCR,2024-06-11_13h14.00.496,LearnStrategy,2023.2.3,Win32,59.70862193,7,1,3,0.045853678,0.00699185,1,0,0,0.8642,rock_grid_rect_2,6,15,-1,-1,0.864,-0.133658507,-0.379349574,1,0,0,1.3396,Pegmatite_rect,6,1.34,1,2,0,2,0,1,,,,,,,,,,,,,
6615517eaed830765bb6f633,TCR,2024-06-11_13h14.00.496,LearnStrategy,2023.2.3,Win32,59.70862193,7,1,4,0.08097559,0.008292693,1,0,0,0.8159,rock_grid_rect_2,1,09,-1,-1,0.816,0.125203252,-0.255772387,1,0,0,1.2061,Diorite_rect,3,1.206,0,3,0,3,0,1,,,,,,,,,,,,,
6615517eaed830765bb6f633,TCR,2024-06-11_13h14.00.496,LearnStrategy,2023.2.3,Win32,59.70862193,7,1,5,0.092682927,0.016097551,1,0,0,0.8842,rock_grid_rect_2,3,11,-1,-1,0.884,0.125203252,-0.250569116,1,0,0,1.493,Diorite_rect,3,1.493,1,4,0,4,0,1,,,,,,,,,,,,,
6615517eaed830765bb6f633,TCR,2024-06-11_13h14.00.496,LearnStrategy,2023.2.3,Win32,59.70862193,7,1,6,0.118699187,-0.020325203,1,0,0,0.8532,rock_grid_rect_2,3,02,-1,-1,0.853,0.110894329,-0.262276453,1,0,0,1.9251,Diorite_rect,3,1.925,1,5,0,5,0,1,,,,,,,,,,,,,
6615517eaed830765bb6f633,TCR,2024-06-11_13h14.00.496,LearnStrategy,2023.2.3,Win32,59.70862193,7,1,7,0.066666667,0.01999998,1,0,0,0.7954,rock_grid_rect_2,4,11,-1,-1,0.795,-0.120650377,-0.249268322,1,0,0,1.5297,Basalt_rect,2,1.53,0,6,0,6,0,1,,,,,,,,,,,,,
6615517eaed830765bb6f633,TCR,2024-06-11_13h14.00.496,LearnStrategy,2023.2.3,Win32,59.70862193,7,1,8,0.121300873,-0.000813008,1,0,0,0.7492,rock_grid_rect_2,1,03,-1,-1,0.749,0.378861789,-0.254471545,1,0,0,2.259,Gabbro_rect,4,2.259,0,7,0,7,0,1,,,,,,,,,,,,,
6615517eaed830765bb6f633,TCR,2024-06-11_13h14.00.496,LearnStrategy,2023.2.3,Win32,59.70862193,7,1,9,0.103089471,-0.002113851,1,0,0,1.1563,rock_grid_rect_2,4,05,-1,-1,1.156,0.08097559,-0.405365834,1,0,0,1.3533,Peridotite_rect,7,1.353,0,8,0,8,0,1,,,,,,,,,,,,,
6615517eaed830765bb6f633,TCR,2024-06-11_13h14.00.496,LearnStrategy,2023.2.3,Win32,59.70862193,7,1,10,0.129105731,-0.004715437,1,0,0,0.9469,rock_grid_rect_2,4,03,-1,-1,0.947,0.178536566,-0.245365844,1,0,0,1.6097,Diorite_rect,3,1.61,0,9,0,9,0,1,,,,,,,,,,,,,
6615517eaed830765bb6f633,TCR,2024-06-11_13h14.00.496,LearnStrategy,2023.2.3,Win32,59.70862193,7,1,11,0.14601624,-0.011219502,1,0,0,0.9771,rock_grid_rect_2,7,04,-1,-1,0.977,0.058861808,-0.396260182,1,0,0,4.1539,Peridotite_rect,7,4.154,1,10,0,10,0,1,,,,,,,,,,,,,
6615517eaed830765bb6f633,TCR,2024-06-11_13h14.00.496,LearnStrategy,2023.2.3,Win32,59.70862193,7,1,12,0.071869939,0.001788628,1,0,0,0.8178,rock_grid_rect_2,4,14,-1,-1,0.818,0.361951279,-0.255772387,1,0,0,2.9765,Gabbro_rect,4,2.976,1,11,0,11,0,1,,,,,,,,,,,,,
6615517eaed830765bb6f633,TCR,2024-06-11_13h14.00.496,LearnStrategy,2023.2.3,Win32,59.70862193,7,1,13,0.088780547,0.023902409,1,0,0,0.8481,rock_grid_rect_2,7,02,-1,-1,0.848,0.179837458,-0.23495935,1,0,0,1.2106,Diorite_rect,3,1.211,0,12,0,12,0,1,,,,,,,,,,,,,
6615517eaed830765bb6f633,TCR,2024-06-11_13h14.00.496,LearnStrategy,2023.2.3,Win32,59.70862193,7,1,14,0.08097559,-0.003414644,1,0,0,0.8392,rock_grid_rect_2,5,11,-1,-1,0.839,-0.380812978,-0.393658596,1,0,0,1.1006,Obsidian_rect,5,1.101,1,13,0,13,0,1,,,,,,,,,,,,,
6615517eaed830765bb6f633,TCR,2024-06-11_13h14.00.496,LearnStrategy,2023.2.3,Win32,59.70862193,7,1,15,-0.003577256,-0.022926839,1,0,0,0.953,rock_grid_rect_2,2,08,-1,-1,0.953,-0.101138182,-0.267479675,1,0,0,1.064,Basalt_rect,2,1.064,1,14,0,14,0,1,,,,,,,,,,,,,
6615517eaed830765bb6f633,TCR,2024-06-11_13h14.00.496,LearnStrategy,2023.2.3,Win32,59.70862193,7,1,16,0.026341483,-0.011219502,1,0,0,0.8251,rock_grid_rect_2,8,04,-1,-1,0.825,0.408780528,-0.404065041,1,0,0,1.9716,Pumice_rect,8,1.972,1,15,0,15,0,1,,,,,,,,,,,,,
6615517eaed830765bb6f633,TCR,2024-06-11_13h14.00.496,LearnStrategy,2023.2.3,Win32,59.70862193,7,2,1,,,,,,,,7,12,,,,,,,,,,,7,1.495,1,,,,,,0.123902459,-0.417073171,1,0,0,1.495,Peridotite_rect,0,0,0,0,1,
6615517eaed830765bb6f633,TCR,2024-06-11_13h14.00.496,LearnStrategy,2023.2.3,Win32,59.70862193,7,2,2,,,,,,,,2,01,,,,,,,,,,,2,2.527,1,,,,,,-0.046504025,-0.250569116,1,0,0,2.527,Basalt_rect,1,0,1,0,1,
6615517eaed830765bb6f633,TCR,2024-06-11_13h14.00.496,LearnStrategy,2023.2.3,Win32,59.70862193,7,2,3,,,,,,,,2,09,,,,,,,,,,,1,1.629,0,,,,,,-0.382113821,-0.255772387,1,0,0,1.6286,Andesite_rect,2,0,2,0,1,
6615517eaed830765bb6f633,TCR,2024-06-11_13h14.00.496,LearnStrategy,2023.2.3,Win32,59.70862193,7,2,4,,,,,,,,3,10,,,,,,,,,,,3,1.06,1,,,,,,0.131707317,-0.259674817,1,0,0,1.0603,Diorite_rect,3,0,3,0,1,
6615517eaed830765bb6f633,TCR,2024-06-11_13h14.00.496,LearnStrategy,2023.2.3,Win32,59.70862193,7,2,5,,,,,,,,8,02,,,,,,,,,,,8,1.3,1,,,,,,0.338536605,-0.406666726,1,0,0,1.2998,Pumice_rect,4,0,4,0,1,
6615517eaed830765bb6f633,TCR,2024-06-11_13h14.00.496,LearnStrategy,2023.2.3,Win32,59.70862193,7,2,6,,,,,,,,7,06,,,,,,,,,,,7,1.967,1,,,,,,0.118699187,-0.387154531,1,0,0,1.9669,Peridotite_rect,5,0,5,0,1,
6615517eaed830765bb6f633,TCR,2024-06-11_13h14.00.496,LearnStrategy,2023.2.3,Win32,59.70862193,7,2,7,,,,,,,,6,06,,,,,,,,,,,7,1.349,0,,,,,,0.126504045,-0.37804878,1,0,0,1.3487,Peridotite_rect,6,0,6,0,1,
6615517eaed830765bb6f633,TCR,2024-06-11_13h14.00.496,LearnStrategy,2023.2.3,Win32,59.70862193,7,2,8,,,,,,,,1,06,,,,,,,,,,,2,3.749,0,,,,,,-0.112845519,-0.253170752,1,0,0,3.7489,Basalt_rect,7,0,7,0,1,
6615517eaed830765bb6f633,TCR,2024-06-11_13h14.00.496,LearnStrategy,2023.2.3,Win32,59.70862193,7,2,9,,,,,,,,4,09,,,,,,,,,,,4,2.336,1,,,,,,0.330731747,-0.266178882,1,0,0,2.3361,Gabbro_rect,8,0,8,0,1,
6615517eaed830765bb6f633,TCR,2024-06-11_13h14.00.496,LearnStrategy,2023.2.3,Win32,59.70862193,7,2,10,,,,,,,,1,11,,,,,,,,,,,7,1.651,0,,,,,,0.155121991,-0.402764247,1,0,0,1.651,Peridotite_rect,9,0,9,0,1,
6615517eaed830765bb6f633,TCR,2024-06-11_13h14.00.496,LearnStrategy,2023.2.3,Win32,59.70862193,7,2,11,,,,,,,,4,15,,,,,,,,,,,3,1.545,0,,,,,,0.134309003,-0.253170752,1,0,0,1.5447,Diorite_rect,10,0,10,0,1,
6615517eaed830765bb6f633,TCR,2024-06-11_13h14.00.496,LearnStrategy,2023.2.3,Win32,59.70862193,7,2,12,,,,,,,,5,04,,,,,,,,,,,5,1.276,1,,,,,,-0.357398354,-0.392357704,1,0,0,1.2758,Obsidian_rect,11,0,11,0,1,
6615517eaed830765bb6f633,TCR,2024-06-11_13h14.00.496,LearnStrategy,2023.2.3,Win32,59.70862193,7,2,13,,,,,,,,5,09,,,,,,,,,,,5,1.172,1,,,,,,-0.414634146,-0.394959389,1,0,0,1.1719,Obsidian_rect,12,0,12,0,1,
6615517eaed830765bb6f633,TCR,2024-06-11_13h14.00.496,LearnStrategy,2023.2.3,Win32,59.70862193,7,2,14,,,,,,,,6,13,,,,,,,,,,,7,1.888,0,,,,,,0.134309003,-0.400162661,1,0,0,1.888,Peridotite_rect,13,0,13,0,1,
6615517eaed830765bb6f633,TCR,2024-06-11_13h14.00.496,LearnStrategy,2023.2.3,Win32,59.70862193,7,2,15,,,,,,,,8,10,,,,,,,,,,,8,2.547,1,,,,,,0.402276462,-0.415772378,1,0,0,2.5473,Pumice_rect,14,0,14,0,1,
6615517eaed830765bb6f633,TCR,2024-06-11_13h14.00.496,LearnStrategy,2023.2.3,Win32,59.70862193,7,2,16,,,,,,,,3,06,,,,,,,,,,,4,1.565,0,,,,,,0.316422824,-0.253170752,1,0,0,1.5651,Gabbro_rect,15,0,15,0,1,
6615517eaed830765bb6f633,TCR,2024-06-11_13h14.00.496,LearnStrategy,2023.2.3,Win32,59.70862193,8,1,1,0.03804882,-0.012520345,1,0,0,2.0945,rock_grid_rect_2,4,14,-1,-1,2.095,0.135609796,-0.244065051,1,0,0,2.4452,Diorite_rect,3,2.445,0,0,0,0,0,1,,,,,,,,,,,,,
6615517eaed830765bb6f633,TCR,2024-06-11_13h14.00.496,LearnStrategy,2023.2.3,Win32,59.70862193,8,1,2,0.177235772,0.010894279,1,0,0,0.8965,rock_grid_rect_2,3,02,-1,-1,0.896,0.1720325,-0.255772387,1,0,0,0.9637,Diorite_rect,3,0.964,1,1,0,1,0,1,,,,,,,,,,,,,
6615517eaed830765bb6f633,TCR,2024-06-11_13h14.00.496,LearnStrategy,2023.2.3,Win32,59.70862193,8,1,3,0.117398394,0.001788628,1,0,0,0.8614,rock_grid_rect_2,1,03,-1,-1,0.861,-0.400325173,-0.268780518,1,0,0,1.3303,Andesite_rect,1,1.33,1,2,0,2,0,1,,,,,,,,,,,,,
6615517eaed830765bb6f633,TCR,2024-06-11_13h14.00.496,LearnStrategy,2023.2.3,Win32,59.70862193,8,1,4,0.066666667,0.012195122,1,0,0,0.9369,rock_grid_rect_2,6,16,-1,-1,0.937,0.135609796,-0.407967519,1,0,0,2.3298,Peridotite_rect,7,2.33,0,3,0,3,0,1,,,,,,,,,,,,,
6615517eaed830765bb6f633,TCR,2024-06-11_13h14.00.496,LearnStrategy,2023.2.3,Win32,59.70862193,8,1,5,0.048455265,-0.00601628,1,0,0,0.9822,rock_grid_rect_2,2,12,-1,-1,0.982,0.410081321,-0.418373964,1,0,0,2.1159,Pumice_rect,8,2.116,0,4,0,4,0,1,,,,,,,,,,,,,
6615517eaed830765bb6f633,TCR,2024-06-11_13h14.00.496,LearnStrategy,2023.2.3,Win32,59.70862193,8,1,6,0.05105695,-0.022926839,1,0,0,0.9112,rock_grid_rect_2,5,07,-1,-1,0.911,-0.324878029,-0.383252052,1,0,0,1.193,Obsidian_rect,5,1.193,1,5,0,5,0,1,,,,,,,,,,,,,
6615517eaed830765bb6f633,TCR,2024-06-11_13h14.00.496,LearnStrategy,2023.2.3,Win32,59.70862193,8,1,7,0.066666667,0.001788628,1,0,0,1.7688,rock_grid_rect_2,6,08,-1,-1,1.769,-0.10504066,-0.419674856,1,0,0,1.6612,Pegmatite_rect,6,1.661,1,6,0,6,0,1,,,,,,,,,,,,,
6615517eaed830765bb6f633,TCR,2024-06-11_13h14.00.496,LearnStrategy,2023.2.3,Win32,59.70862193,8,1,8,0.147317133,0.022601616,1,0,0,0.8617,rock_grid_rect_2,4,05,-1,-1,0.862,0.201951239,-0.393658596,1,0,0,1.4474,Peridotite_rect,7,1.447,0,7,0,7,0,1,,,,,,,,,,,,,
6615517eaed830765bb6f633,TCR,2024-06-11_13h14.00.496,LearnStrategy,2023.2.3,Win32,59.70862193,8,1,9,0.149918719,0.009593486,1,0,0,0.8366,rock_grid_rect_2,4,05,-1,-1,0.837,0.387967539,-0.251869909,1,0,0,1.2524,Gabbro_rect,4,1.252,1,8,0,8,0,1,,,,,,,,,,,,,
6615517eaed830765bb6f633,TCR,2024-06-11_13h14.00.496,LearnStrategy,2023.2.3,Win32,59.70862193,8,1,10,0.05495933,-0.017723567,1,0,0,0.9512,rock_grid_rect_2,3,13,-1,-1,0.951,0.091382134,-0.249268322,1,0,0,1.5208,Diorite_rect,3,1.521,1,9,0,9,0,1,,,,,,,,,,,,,
6615517eaed830765bb6f633,TCR,2024-06-11_13h14.00.496,LearnStrategy,2023.2.3,Win32,59.70862193,8,1,11,0.097886199,-0.011219502,1,0,0,0.7257,rock_grid_rect_2,2,08,-1,-1,0.726,-0.076422764,-0.241463415,1,0,0,1.171,Basalt_rect,2,1.171,1,10,0,10,0,1,,,,,,,,,,,,,
6615517eaed830765bb6f633,TCR,2024-06-11_13h14.00.496,LearnStrategy,2023.2.3,Win32,59.70862193,8,1,12,-0.023089451,-0.024227632,1,0,0,0.9704,rock_grid_rect_2,8,16,-1,-1,0.97,0.386666647,-0.402764247,1,0,0,1.0882,Pumice_rect,8,1.088,1,11,0,11,0,1,,,,,,,,,,,,,
6615517eaed830765bb6f633,TCR,2024-06-11_13h14.00.496,LearnStrategy,2023.2.3,Win32,59.70862193,8,1,13,0.053658537,-0.009918709,1,0,0,0.9366,rock_grid_rect_2,7,05,-1,-1,0.937,0.15902437,-0.392357704,1,0,0,2.3622,Peridotite_rect,7,2.362,1,12,0,12,0,1,,,,,,,,,,,,,
6615517eaed830765bb6f633,TCR,2024-06-11_13h14.00.496,LearnStrategy,2023.2.3,Win32,59.70862193,8,1,14,0.069268352,0.005691057,1,0,0,0.9376,rock_grid_rect_2,7,02,-1,-1,0.938,0.192845588,-0.407967519,1,0,0,2.5294,Peridotite_rect,7,2.529,1,13,0,13,0,1,,,,,,,,,,,,,
6615517eaed830765bb6f633,TCR,2024-06-11_13h14.00.496,LearnStrategy,2023.2.3,Win32,59.70862193,8,1,15,0.086178862,0.004390214,1,0,0,0.8156,rock_grid_rect_2,6,09,-1,-1,0.816,-0.183089441,-0.405365834,1,0,0,1.2103,Pegmatite_rect,6,1.21,1,14,0,14,0,1,,,,,,,,,,,,,
6615517eaed830765bb6f633,TCR,2024-06-11_13h14.00.496,LearnStrategy,2023.2.3,Win32,59.70862193,8,1,16,0.084878069,-0.013821138,1,0,0,0.75,rock_grid_rect_2,1,07,-1,-1,0.75,0.142113861,-0.255772387,1,0,0,1.9527,Diorite_rect,3,1.953,0,15,0,15,0,1,,,,,,,,,,,,,
6615517eaed830765bb6f633,TCR,2024-06-11_13h14.00.496,LearnStrategy,2023.2.3,Win32,59.70862193,8,2,1,,,,,,,,1,14,,,,,,,,,,,7,1.465,0,,,,,,0.095284612,-0.401463454,1,0,0,1.4651,Peridotite_rect,0,0,0,0,1,
6615517eaed830765bb6f633,TCR,2024-06-11_13h14.00.496,LearnStrategy,2023.2.3,Win32,59.70862193,8,2,2,,,,,,,,4,10,,,,,,,,,,,4,3.017,1,,,,,,0.352845528,-0.257073181,1,0,0,3.0171,Gabbro_rect,1,0,1,0,1,
6615517eaed830765bb6f633,TCR,2024-06-11_13h14.00.496,LearnStrategy,2023.2.3,Win32,59.70862193,8,2,3,,,,,,,,4,12,,,,,,,,,,,3,4.997,0,,,,,,0.177235772,-0.257073181,1,0,0,4.9974,Diorite_rect,2,0,2,0,1,
6615517eaed830765bb6f633,TCR,2024-06-11_13h14.00.496,LearnStrategy,2023.2.3,Win32,59.70862193,8,2,4,,,,,,,,7,14,,,,,,,,,,,7,1.341,1,,,,,,0.148617926,-0.383252052,1,0,0,1.3413,Peridotite_rect,3,0,3,0,1,
6615517eaed830765bb6f633,TCR,2024-06-11_13h14.00.496,LearnStrategy,2023.2.3,Win32,59.70862193,8,2,5,,,,,,,,6,10,,,,,,,,,,,6,1.507,1,,,,,,-0.153170702,-0.396260182,1,0,0,1.5072,Pegmatite_rect,4,0,4,0,1,
6615517eaed830765bb6f633,TCR,2024-06-11_13h14.00.496,LearnStrategy,2023.2.3,Win32,59.70862193,8,2,6,,,,,,,,2,11,,,,,,,,,,,4,1.894,0,,,,,,0.37105693,-0.257073181,1,0,0,1.8941,Gabbro_rect,5,0,5,0,1,
6615517eaed830765bb6f633,TCR,2024-06-11_13h14.00.496,LearnStrategy,2023.2.3,Win32,59.70862193,8,2,7,,,,,,,,1,04,,,,,,,,,,,1,2.517,1,,,,,,-0.365203262,-0.229756127,1,0,0,2.5168,Andesite_rect,6,0,6,0,1,
6615517eaed830765bb6f633,TCR,2024-06-11_13h14.00.496,LearnStrategy,2023.2.3,Win32,59.70862193,8,2,8,,,,,,,,2,06,,,,,,,,,,,2,2.04,1,,,,,,-0.110243883,-0.228455285,1,0,0,2.0403,Basalt_rect,7,0,7,0,1,
6615517eaed830765bb6f633,TCR,2024-06-11_13h14.00.496,LearnStrategy,2023.2.3,Win32,59.70862193,8,2,9,,,,,,,,5,02,,,,,,,,,,,5,1.031,1,,,,,,-0.349593496,-0.413170791,1,0,0,1.0312,Obsidian_rect,8,0,8,0,1,
6615517eaed830765bb6f633,TCR,2024-06-11_13h14.00.496,LearnStrategy,2023.2.3,Win32,59.70862193,8,2,10,,,,,,,,3,07,,,,,,,,,,,3,1.354,1,,,,,,0.151219512,-0.242764257,1,0,0,1.3538,Diorite_rect,9,0,9,0,1,
6615517eaed830765bb6f633,TCR,2024-06-11_13h14.00.496,LearnStrategy,2023.2.3,Win32,59.70862193,8,2,11,,,,,,,,7,15,,,,,,,,,,,7,1.223,1,,,,,,0.11999998,-0.396260182,1,0,0,1.2233,Peridotite_rect,10,0,10,0,1,
6615517eaed830765bb6f633,TCR,2024-06-11_13h14.00.496,LearnStrategy,2023.2.3,Win32,59.70862193,8,2,12,,,,,,,,5,05,,,,,,,,,,,6,7.835,0,,,,,,-0.153170702,-0.394959389,1,0,0,7.8346,Pegmatite_rect,11,0,11,0,1,
6615517eaed830765bb6f633,TCR,2024-06-11_13h14.00.496,LearnStrategy,2023.2.3,Win32,59.70862193,8,2,13,,,,,,,,6,03,,,,,,,,,,,6,1.596,1,,,,,,-0.077723557,-0.385853639,1,0,0,1.5965,Pegmatite_rect,12,0,12,0,1,
6615517eaed830765bb6f633,TCR,2024-06-11_13h14.00.496,LearnStrategy,2023.2.3,Win32,59.70862193,8,2,14,,,,,,,,8,14,,,,,,,,,,,8,1.031,1,,,,,,0.46601632,-0.410569106,1,0,0,1.0305,Pumice_rect,13,0,13,0,1,
6615517eaed830765bb6f633,TCR,2024-06-11_13h14.00.496,LearnStrategy,2023.2.3,Win32,59.70862193,8,2,15,,,,,,,,8,13,,,,,,,,,,,8,1.449,1,,,,,,0.381463474,-0.417073171,1,0,0,1.4492,Pumice_rect,14,0,14,0,1,
6615517eaed830765bb6f633,TCR,2024-06-11_13h14.00.496,LearnStrategy,2023.2.3,Win32,59.70862193,8,2,16,,,,,,,,3,12,,,,,,,,,,,3,1.218,1,,,,,,0.173333393,-0.229756127,1,0,0,1.2183,Diorite_rect,15,0,15,0,1,
6615517eaed830765bb6f633,TCR,2024-06-11_13h14.00.496,LearnStrategy,2023.2.3,Win32,59.70862193,9,1,1,0.13300811,-0.00601628,1,0,0,0.9924,rock_grid_rect_2,1,03,-1,-1,0.992,-0.365203262,-0.244065051,1,0,0,1.9957,Andesite_rect,1,1.996,1,0,0,0,0,1,,,,,,,,,,,,,
6615517eaed830765bb6f633,TCR,2024-06-11_13h14.00.496,LearnStrategy,2023.2.3,Win32,59.70862193,9,1,2,0.008130081,0.00699185,1,0,0,1.3161,rock_grid_rect_2,1,03,-1,-1,1.316,-0.414634146,-0.249268322,1,0,0,1.0935,Andesite_rect,1,1.093,1,1,0,1,0,1,,,,,,,,,,,,,
6615517eaed830765bb6f633,TCR,2024-06-11_13h14.00.496,LearnStrategy,2023.2.3,Win32,59.70862193,9,1,3,0.039349613,-0.016422774,1,0,0,0.927,rock_grid_rect_2,4,14,-1,-1,0.927,0.369756137,-0.257073181,1,0,0,1.6359,Gabbro_rect,4,1.636,1,2,0,2,0,1,,,,,,,,,,,,,
6615517eaed830765bb6f633,TCR,2024-06-11_13h14.00.496,LearnStrategy,2023.2.3,Win32,59.70862193,9,1,4,0.083577275,-0.013821138,1,0,0,0.9003,rock_grid_rect_2,5,16,-1,-1,0.9,-0.309268263,-0.396260182,1,0,0,1.8547,Obsidian_rect,5,1.855,1,3,0,3,0,1,,,,,,,,,,,,,
6615517eaed830765bb6f633,TCR,2024-06-11_13h14.00.496,LearnStrategy,2023.2.3,Win32,59.70862193,9,1,5,0.116097601,-0.008617916,1,0,0,0.8238,rock_grid_rect_2,2,05,-1,-1,0.824,0.130406524,-0.246666687,1,0,0,1.7786,Diorite_rect,3,1.779,0,4,0,4,0,1,,,,,,,,,,,,,
6615517eaed830765bb6f633,TCR,2024-06-11_13h14.00.496,LearnStrategy,2023.2.3,Win32,59.70862193,9,1,6,0.091382134,-0.017723567,1,0,0,0.9406,rock_grid_rect_2,2,02,-1,-1,0.941,-0.09203253,-0.245365844,1,0,0,2.1839,Basalt_rect,2,2.184,1,5,0,5,0,1,,,,,,,,,,,,,
6615517eaed830765bb6f633,TCR,2024-06-11_13h14.00.496,LearnStrategy,2023.2.3,Win32,59.70862193,9,1,7,0.044552885,-0.008617916,1,0,0,0.8491,rock_grid_rect_2,3,16,-1,-1,0.849,0.112195122,-0.254471545,1,0,0,0.9418,Diorite_rect,3,0.942,1,6,0,6,0,1,,,,,,,,,,,,,
6615517eaed830765bb6f633,TCR,2024-06-11_13h14.00.496,LearnStrategy,2023.2.3,Win32,59.70862193,9,1,8,0.099186992,-0.015121981,1,0,0,0.9904,rock_grid_rect_2,6,16,-1,-1,0.99,-0.127154442,-0.402764247,1,0,0,2.7838,Pegmatite_rect,6,2.784,1,7,0,7,0,1,,,,,,,,,,,,,
6615517eaed830765bb6f633,TCR,2024-06-11_13h14.00.496,LearnStrategy,2023.2.3,Win32,59.70862193,9,1,9,0.126504045,-0.007317073,1,0,0,0.9065,rock_grid_rect_2,4,03,-1,-1,0.907,0.15902437,-0.241463415,1,0,0,1.8225,Diorite_rect,3,1.822,0,8,0,8,0,1,,,,,,,,,,,,,
6615517eaed830765bb6f633,TCR,2024-06-11_13h14.00.496,LearnStrategy,2023.2.3,Win32,59.70862193,9,1,10,0.086178862,0.000487785,1,0,0,0.8192,rock_grid_rect_2,3,02,-1,-1,0.819,0.398373984,-0.250569116,1,0,0,1.7953,Gabbro_rect,4,1.795,0,9,0,9,0,1,,,,,,,,,,,,,
6615517eaed830765bb6f633,TCR,2024-06-11_13h14.00.496,LearnStrategy,2023.2.3,Win32,59.70862193,9,1,11,0.08097559,-0.007317073,1,0,0,0.9341,rock_grid_rect_2,1,10,-1,-1,0.934,0.387967539,-0.267479675,1,0,0,2.2906,Gabbro_rect,4,2.291,0,10,0,10,0,1,,,,,,,,,,,,,
6615517eaed830765bb6f633,TCR,2024-06-11_13h14.00.496,LearnStrategy,2023.2.3,Win32,59.70862193,9,1,12,0.108292742,-0.002113851,1,0,0,0.8822,rock_grid_rect_2,5,14,-1,-1,0.882,-0.354796718,-0.393658596,1,0,0,1.3474,Obsidian_rect,5,1.347,1,11,0,11,0,1,,,,,,,,,,,,,
6615517eaed830765bb6f633,TCR,2024-06-11_13h14.00.496,LearnStrategy,2023.2.3,Win32,59.70862193,9,1,13,0.074471525,-0.007317073,1,0,0,0.9445,rock_grid_rect_2,6,11,-1,-1,0.944,-0.072520335,-0.383252052,1,0,0,1.1887,Pegmatite_rect,6,1.189,1,12,0,12,0,1,,,,,,,,,,,,,
6615517eaed830765bb6f633,TCR,2024-06-11_13h14.00.496,LearnStrategy,2023.2.3,Win32,59.70862193,9,1,14,0.090081341,-0.003414644,1,0,0,0.7382,rock_grid_rect_2,7,13,-1,-1,0.738,0.160325263,-0.384552846,1,0,0,1.2141,Peridotite_rect,7,1.214,1,13,0,13,0,1,,,,,,,,,,,,,
6615517eaed830765bb6f633,TCR,2024-06-11_13h14.00.496,LearnStrategy,2023.2.3,Win32,59.70862193,9,1,15,0.10699185,-0.003414644,1,0,0,0.8225,rock_grid_rect_2,4,11,-1,-1,0.822,-0.073821128,-0.263577246,1,0,0,1.8082,Basalt_rect,2,1.808,0,14,0,14,0,1,,,,,,,,,,,,,
6615517eaed830765bb6f633,TCR,2024-06-11_13h14.00.496,LearnStrategy,2023.2.3,Win32,59.70862193,9,1,16,0.105691057,-0.002113851,1,0,0,0.7746,rock_grid_rect_2,8,15,-1,-1,0.775,0.3580488,-0.413170791,1,0,0,1.2113,Pumice_rect,8,1.211,1,15,0,15,0,1,,,,,,,,,,,,,
6615517eaed830765bb6f633,TCR,2024-06-11_13h14.00.496,LearnStrategy,2023.2.3,Win32,59.70862193,9,2,1,,,,,,,,3,15,,,,,,,,,,,3,1.276,1,,,,,,0.207154511,-0.242764257,1,0,0,1.2761,Diorite_rect,0,0,0,0,1,
6615517eaed830765bb6f633,TCR,2024-06-11_13h14.00.496,LearnStrategy,2023.2.3,Win32,59.70862193,9,2,2,,,,,,,,2,16,,,,,,,,,,,2,2.626,1,,,,,,-0.071219492,-0.266178882,1,0,0,2.6256,Basalt_rect,1,0,1,0,1,
6615517eaed830765bb6f633,TCR,2024-06-11_13h14.00.496,LearnStrategy,2023.2.3,Win32,59.70862193,9,2,3,,,,,,,,1,16,,,,,,,,,,,7,1.277,0,,,,,,0.142113861,-0.411869899,1,0,0,1.2767,Peridotite_rect,2,0,2,0,1,
6615517eaed830765bb6f633,TCR,2024-06-11_13h14.00.496,LearnStrategy,2023.2.3,Win32,59.70862193,9,2,4,,,,,,,,4,16,,,,,,,,,,,4,1.583,1,,,,,,0.419186972,-0.254471545,1,0,0,1.5828,Gabbro_rect,3,0,3,0,1,
6615517eaed830765bb6f633,TCR,2024-06-11_13h14.00.496,LearnStrategy,2023.2.3,Win32,59.70862193,9,2,5,,,,,,,,8,05,,,,,,,,,,,8,1.197,1,,,,,,0.380162582,-0.400162661,1,0,0,1.1974,Pumice_rect,4,0,4,0,1,
6615517eaed830765bb6f633,TCR,2024-06-11_13h14.00.496,LearnStrategy,2023.2.3,Win32,59.70862193,9,2,6,,,,,,,,8,06,,,,,,,,,,,8,1.222,1,,,,,,0.367154452,-0.400162661,1,0,0,1.2218,Pumice_rect,5,0,5,0,1,
6615517eaed830765bb6f633,TCR,2024-06-11_13h14.00.496,LearnStrategy,2023.2.3,Win32,59.70862193,9,2,7,,,,,,,,7,08,,,,,,,,,,,7,1.348,1,,,,,,0.134309003,-0.391056911,1,0,0,1.3481,Peridotite_rect,6,0,6,0,1,
6615517eaed830765bb6f633,TCR,2024-06-11_13h14.00.496,LearnStrategy,2023.2.3,Win32,59.70862193,9,2,8,,,,,,,,2,10,,,,,,,,,,,4,3.093,0,,,,,,0.313821138,-0.246666687,1,0,0,3.0929,Gabbro_rect,7,0,7,0,1,
6615517eaed830765bb6f633,TCR,2024-06-11_13h14.00.496,LearnStrategy,2023.2.3,Win32,59.70862193,9,2,9,,,,,,,,4,01,,,,,,,,,,,3,1.179,0,,,,,,0.191544696,-0.258373974,1,0,0,1.1791,Diorite_rect,8,0,8,0,1,
6615517eaed830765bb6f633,TCR,2024-06-11_13h14.00.496,LearnStrategy,2023.2.3,Win32,59.70862193,9,2,10,,,,,,,,6,07,,,,,,,,,,,6,1.163,1,,,,,,-0.088130052,-0.393658596,1,0,0,1.1629,Pegmatite_rect,9,0,9,0,1,
6615517eaed830765bb6f633,TCR,2024-06-11_13h14.00.496,LearnStrategy,2023.2.3,Win32,59.70862193,9,2,11,,,,,,,,1,05,,,,,,,,,,,7,1.712,0,,,,,,0.121300873,-0.389756117,1,0,0,1.7117,Peridotite_rect,10,0,10,0,1,
6615517eaed830765bb6f633,TCR,2024-06-11_13h14.00.496,LearnStrategy,2023.2.3,Win32,59.70862193,9,2,12,,,,,,,,7,16,,,,,,,,,,,6,1.227,0,,,,,,-0.084227622,-0.406666726,1,0,0,1.227,Pegmatite_rect,11,0,11,0,1,
6615517eaed830765bb6f633,TCR,2024-06-11_13h14.00.496,LearnStrategy,2023.2.3,Win32,59.70862193,9,2,13,,,,,,,,5,08,,,,,,,,,,,5,1.063,1,,,,,,-0.302764198,-0.397560976,1,0,0,1.0629,Obsidian_rect,12,0,12,0,1,
6615517eaed830765bb6f633,TCR,2024-06-11_13h14.00.496,LearnStrategy,2023.2.3,Win32,59.70862193,9,2,14,,,,,,,,5,06,,,,,,,,,,,5,1.69,1,,,,,,-0.339187002,-0.405365834,1,0,0,1.6896,Obsidian_rect,13,0,13,0,1,
6615517eaed830765bb6f633,TCR,2024-06-11_13h14.00.496,LearnStrategy,2023.2.3,Win32,59.70862193,9,2,15,,,,,,,,6,12,,,,,,,,,,,6,1.199,1,,,,,,-0.141463415,-0.392357704,1,0,0,1.1987,Pegmatite_rect,14,0,14,0,1,
6615517eaed830765bb6f633,TCR,2024-06-11_13h14.00.496,LearnStrategy,2023.2.3,Win32,59.70862193,9,2,16,,,,,,,,3,14,,,,,,,,,,,3,1.025,1,,,,,,0.194146381,-0.263577246,1,0,0,1.0255,Diorite_rect,15,0,15,0,1,
6615517eaed830765bb6f633,TCR,2024-06-11_13h14.00.496,LearnStrategy,2023.2.3,Win32,59.70862193,,,,,,,,,,,,,,,,,,,,,,,,,,,,,,,,,,,,,,,,,,,1
6615517eaed830765bb6f633,TCR,2024-06-11_13h14.00.496,LearnStrategy,2023.2.3,Win32,59.70862193,,,,,,,,,,,,,,,,,,,,,,,,,,,,,,,,,,,,,,,,,,,
6615517eaed830765bb6f633,TCR,2024-06-11_13h14.00.496,LearnStrategy,2023.2.3,Win32,59.70862193,,,,,,,,,,,8,04,1,1,,,,,,,,,,,,,,,,,,,,,,,,,,,,,
6615517eaed830765bb6f633,TCR,2024-06-11_13h14.00.496,LearnStrategy,2023.2.3,Win32,59.70862193,,,,,,,,,,,1,02,1,2,,,,,,,,,,,,,,,,,,,,,,,,,,,,,
6615517eaed830765bb6f633,TCR,2024-06-11_13h14.00.496,LearnStrategy,2023.2.3,Win32,59.70862193,,,,,,,,,,,6,16,1,3,,,,,,,,,,,,,,,,,,,,,,,,,,,,,
6615517eaed830765bb6f633,TCR,2024-06-11_13h14.00.496,LearnStrategy,2023.2.3,Win32,59.70862193,,,,,,,,,,,5,10,1,4,,,,,,,,,,,,,,,,,,,,,,,,,,,,,
6615517eaed830765bb6f633,TCR,2024-06-11_13h14.00.496,LearnStrategy,2023.2.3,Win32,59.70862193,,,,,,,,,,,6,05,1,5,,,,,,,,,,,,,,,,,,,,,,,,,,,,,
6615517eaed830765bb6f633,TCR,2024-06-11_13h14.00.496,LearnStrategy,2023.2.3,Win32,59.70862193,,,,,,,,,,,1,10,1,6,,,,,,,,,,,,,,,,,,,,,,,,,,,,,
6615517eaed830765bb6f633,TCR,2024-06-11_13h14.00.496,LearnStrategy,2023.2.3,Win32,59.70862193,,,,,,,,,,,6,08,1,7,,,,,,,,,,,,,,,,,,,,,,,,,,,,,
6615517eaed830765bb6f633,TCR,2024-06-11_13h14.00.496,LearnStrategy,2023.2.3,Win32,59.70862193,,,,,,,,,,,4,05,1,8,,,,,,,,,,,,,,,,,,,,,,,,,,,,,
6615517eaed830765bb6f633,TCR,2024-06-11_13h14.00.496,LearnStrategy,2023.2.3,Win32,59.70862193,,,,,,,,,,,1,01,2,1,,,,,,,,,,,,,,,,,,,,,,,,,,,,,
6615517eaed830765bb6f633,TCR,2024-06-11_13h14.00.496,LearnStrategy,2023.2.3,Win32,59.70862193,,,,,,,,,,,5,11,2,2,,,,,,,,,,,,,,,,,,,,,,,,,,,,,
6615517eaed830765bb6f633,TCR,2024-06-11_13h14.00.496,LearnStrategy,2023.2.3,Win32,59.70862193,,,,,,,,,,,2,08,2,3,,,,,,,,,,,,,,,,,,,,,,,,,,,,,
6615517eaed830765bb6f633,TCR,2024-06-11_13h14.00.496,LearnStrategy,2023.2.3,Win32,59.70862193,,,,,,,,,,,3,02,2,4,,,,,,,,,,,,,,,,,,,,,,,,,,,,,
6615517eaed830765bb6f633,TCR,2024-06-11_13h14.00.496,LearnStrategy,2023.2.3,Win32,59.70862193,,,,,,,,,,,1,07,2,5,,,,,,,,,,,,,,,,,,,,,,,,,,,,,
6615517eaed830765bb6f633,TCR,2024-06-11_13h14.00.496,LearnStrategy,2023.2.3,Win32,59.70862193,,,,,,,,,,,6,09,2,6,,,,,,,,,,,,,,,,,,,,,,,,,,,,,
6615517eaed830765bb6f633,TCR,2024-06-11_13h14.00.496,LearnStrategy,2023.2.3,Win32,59.70862193,,,,,,,,,,,7,07,2,7,,,,,,,,,,,,,,,,,,,,,,,,,,,,,
6615517eaed830765bb6f633,TCR,2024-06-11_13h14.00.496,LearnStrategy,2023.2.3,Win32,59.70862193,,,,,,,,,,,5,14,2,8,,,,,,,,,,,,,,,,,,,,,,,,,,,,,
6615517eaed830765bb6f633,TCR,2024-06-11_13h14.00.496,LearnStrategy,2023.2.3,Win32,59.70862193,,,,,,,,,,,4,11,3,1,,,,,,,,,,,,,,,,,,,,,,,,,,,,,
6615517eaed830765bb6f633,TCR,2024-06-11_13h14.00.496,LearnStrategy,2023.2.3,Win32,59.70862193,,,,,,,,,,,8,15,3,2,,,,,,,,,,,,,,,,,,,,,,,,,,,,,
6615517eaed830765bb6f633,TCR,2024-06-11_13h14.00.496,LearnStrategy,2023.2.3,Win32,59.70862193,,,,,,,,,,,3,11,3,3,,,,,,,,,,,,,,,,,,,,,,,,,,,,,
6615517eaed830765bb6f633,TCR,2024-06-11_13h14.00.496,LearnStrategy,2023.2.3,Win32,59.70862193,,,,,,,,,,,8,08,3,4,,,,,,,,,,,,,,,,,,,,,,,,,,,,,
6615517eaed830765bb6f633,TCR,2024-06-11_13h14.00.496,LearnStrategy,2023.2.3,Win32,59.70862193,,,,,,,,,,,2,05,3,5,,,,,,,,,,,,,,,,,,,,,,,,,,,,,
6615517eaed830765bb6f633,TCR,2024-06-11_13h14.00.496,LearnStrategy,2023.2.3,Win32,59.70862193,,,,,,,,,,,2,04,3,6,,,,,,,,,,,,,,,,,,,,,,,,,,,,,
6615517eaed830765bb6f633,TCR,2024-06-11_13h14.00.496,LearnStrategy,2023.2.3,Win32,59.70862193,,,,,,,,,,,5,16,3,7,,,,,,,,,,,,,,,,,,,,,,,,,,,,,
6615517eaed830765bb6f633,TCR,2024-06-11_13h14.00.496,LearnStrategy,2023.2.3,Win32,59.70862193,,,,,,,,,,,2,14,3,8,,,,,,,,,,,,,,,,,,,,,,,,,,,,,
6615517eaed830765bb6f633,TCR,2024-06-11_13h14.00.496,LearnStrategy,2023.2.3,Win32,59.70862193,,,,,,,,,,,6,11,4,1,,,,,,,,,,,,,,,,,,,,,,,,,,,,,
6615517eaed830765bb6f633,TCR,2024-06-11_13h14.00.496,LearnStrategy,2023.2.3,Win32,59.70862193,,,,,,,,,,,5,07,4,2,,,,,,,,,,,,,,,,,,,,,,,,,,,,,
6615517eaed830765bb6f633,TCR,2024-06-11_13h14.00.496,LearnStrategy,2023.2.3,Win32,59.70862193,,,,,,,,,,,7,10,4,3,,,,,,,,,,,,,,,,,,,,,,,,,,,,,
6615517eaed830765bb6f633,TCR,2024-06-11_13h14.00.496,LearnStrategy,2023.2.3,Win32,59.70862193,,,,,,,,,,,4,08,4,4,,,,,,,,,,,,,,,,,,,,,,,,,,,,,
6615517eaed830765bb6f633,TCR,2024-06-11_13h14.00.496,LearnStrategy,2023.2.3,Win32,59.70862193,,,,,,,,,,,7,05,4,5,,,,,,,,,,,,,,,,,,,,,,,,,,,,,
6615517eaed830765bb6f633,TCR,2024-06-11_13h14.00.496,LearnStrategy,2023.2.3,Win32,59.70862193,,,,,,,,,,,4,03,4,6,,,,,,,,,,,,,,,,,,,,,,,,,,,,,
6615517eaed830765bb6f633,TCR,2024-06-11_13h14.00.496,LearnStrategy,2023.2.3,Win32,59.70862193,,,,,,,,,,,8,16,4,7,,,,,,,,,,,,,,,,,,,,,,,,,,,,,
6615517eaed830765bb6f633,TCR,2024-06-11_13h14.00.496,LearnStrategy,2023.2.3,Win32,59.70862193,,,,,,,,,,,7,13,4,8,,,,,,,,,,,,,,,,,,,,,,,,,,,,,
6615517eaed830765bb6f633,TCR,2024-06-11_13h14.00.496,LearnStrategy,2023.2.3,Win32,59.70862193,,,,,,,,,,,1,03,5,1,,,,,,,,,,,,,,,,,,,,,,,,,,,,,
6615517eaed830765bb6f633,TCR,2024-06-11_13h14.00.496,LearnStrategy,2023.2.3,Win32,59.70862193,,,,,,,,,,,7,02,5,2,,,,,,,,,,,,,,,,,,,,,,,,,,,,,
6615517eaed830765bb6f633,TCR,2024-06-11_13h14.00.496,LearnStrategy,2023.2.3,Win32,59.70862193,,,,,,,,,,,3,13,5,3,,,,,,,,,,,,,,,,,,,,,,,,,,,,,
6615517eaed830765bb6f633,TCR,2024-06-11_13h14.00.496,LearnStrategy,2023.2.3,Win32,59.70862193,,,,,,,,,,,2,02,5,4,,,,,,,,,,,,,,,,,,,,,,,,,,,,,
6615517eaed830765bb6f633,TCR,2024-06-11_13h14.00.496,LearnStrategy,2023.2.3,Win32,59.70862193,,,,,,,,,,,7,04,5,5,,,,,,,,,,,,,,,,,,,,,,,,,,,,,
6615517eaed830765bb6f633,TCR,2024-06-11_13h14.00.496,LearnStrategy,2023.2.3,Win32,59.70862193,,,,,,,,,,,3,08,5,6,,,,,,,,,,,,,,,,,,,,,,,,,,,,,
6615517eaed830765bb6f633,TCR,2024-06-11_13h14.00.496,LearnStrategy,2023.2.3,Win32,59.70862193,,,,,,,,,,,3,09,5,7,,,,,,,,,,,,,,,,,,,,,,,,,,,,,
6615517eaed830765bb6f633,TCR,2024-06-11_13h14.00.496,LearnStrategy,2023.2.3,Win32,59.70862193,,,,,,,,,,,4,14,5,8,,,,,,,,,,,,,,,,,,,,,,,,,,,,,
6615517eaed830765bb6f633,TCR,2024-06-11_13h14.00.496,LearnStrategy,2023.2.3,Win32,59.70862193,,,,,,,,,,,2,12,6,1,,,,,,,,,,,,,,,,,,,,,,,,,,,,,
6615517eaed830765bb6f633,TCR,2024-06-11_13h14.00.496,LearnStrategy,2023.2.3,Win32,59.70862193,,,,,,,,,,,5,12,6,2,,,,,,,,,,,,,,,,,,,,,,,,,,,,,
6615517eaed830765bb6f633,TCR,2024-06-11_13h14.00.496,LearnStrategy,2023.2.3,Win32,59.70862193,,,,,,,,,,,8,09,6,3,,,,,,,,,,,,,,,,,,,,,,,,,,,,,
6615517eaed830765bb6f633,TCR,2024-06-11_13h14.00.496,LearnStrategy,2023.2.3,Win32,59.70862193,,,,,,,,,,,8,03,6,4,,,,,,,,,,,,,,,,,,,,,,,,,,,,,
6615517eaed830765bb6f633,TCR,2024-06-11_13h14.00.496,LearnStrategy,2023.2.3,Win32,59.70862193,,,,,,,,,,,1,09,6,5,,,,,,,,,,,,,,,,,,,,,,,,,,,,,
6615517eaed830765bb6f633,TCR,2024-06-11_13h14.00.496,LearnStrategy,2023.2.3,Win32,59.70862193,,,,,,,,,,,4,13,6,6,,,,,,,,,,,,,,,,,,,,,,,,,,,,,
6615517eaed830765bb6f633,TCR,2024-06-11_13h14.00.496,LearnStrategy,2023.2.3,Win32,59.70862193,,,,,,,,,,,3,16,6,7,,,,,,,,,,,,,,,,,,,,,,,,,,,,,
6615517eaed830765bb6f633,TCR,2024-06-11_13h14.00.496,LearnStrategy,2023.2.3,Win32,59.70862193,,,,,,,,,,,6,15,6,8,,,,,,,,,,,,,,,,,,,,,,,,,,,,,