participant,condition,date,expName,psychopyVersion,OS,frameRate,block,phase,trial,learn_mouse_2.x,learn_mouse_2.y,learn_mouse_2.leftButton,learn_mouse_2.midButton,learn_mouse_2.rightButton,learn_mouse_2.time,learn_mouse_2.clicked_name,cat,token,row,col,t_select,cat_mouse_l.x,cat_mouse_l.y,cat_mouse_l.leftButton,cat_mouse_l.midButton,cat_mouse_l.rightButton,cat_mouse_l.time,cat_mouse_l.clicked_name,resp,t_resp,corr,train_trials.thisRepN,train_trials.thisTrialN,train_trials.thisN,train_trials.thisIndex,train_trials.ran,cat_mouse_t.x,cat_mouse_t.y,cat_mouse_t.leftButton,cat_mouse_t.midButton,cat_mouse_t.rightButton,cat_mouse_t.time,cat_mouse_t.clicked_name,test_trials.thisRepN,test_trials.thisTrialN,test_trials.thisN,test_trials.thisIndex,test_trials.ran,Bonus
661ae83beeda96247e30c48b,TCN,2024-06-12_13h41.21.562,LearnStrategy,2023.2.3,Win32,60.60606061,,,,,,,,,,,,,,,,,,,,,,,,,,,,,,,,,,,,,,,,,,,
661ae83beeda96247e30c48b,TCN,2024-06-12_13h41.21.562,LearnStrategy,2023.2.3,Win32,60.60606061,1,1,1,0.108333333,0.001851852,1,0,0,5.5808,rock_grid_rect_2,1,16,-1,-1,5.581,0.125,-0.390740741,1,0,0,5.583,Peridotite_rect,7,5.583,0,0,0,0,0,1,,,,,,,,,,,,,
661ae83beeda96247e30c48b,TCN,2024-06-12_13h41.21.562,LearnStrategy,2023.2.3,Win32,60.60606061,1,1,2,0.147222222,0.012037037,1,0,0,2.0905,rock_grid_rect_2,3,06,-1,-1,2.09,-0.126851852,-0.24537037,1,0,0,2.2485,Basalt_rect,2,2.248,0,1,0,1,0,1,,,,,,,,,,,,,
661ae83beeda96247e30c48b,TCN,2024-06-12_13h41.21.562,LearnStrategy,2023.2.3,Win32,60.60606061,1,1,3,0.131481481,0.002777778,1,0,0,2.6263,rock_grid_rect_2,6,11,-1,-1,2.626,0.435185185,-0.255555556,1,0,0,2.565,Gabbro_rect,4,2.565,0,2,0,2,0,1,,,,,,,,,,,,,
661ae83beeda96247e30c48b,TCN,2024-06-12_13h41.21.562,LearnStrategy,2023.2.3,Win32,60.60606061,1,1,4,0.130555556,0.012962963,1,0,0,1.0618,rock_grid_rect_2,6,09,-1,-1,1.062,0.164814815,-0.391666667,1,0,0,2.0628,Peridotite_rect,7,2.063,0,3,0,3,0,1,,,,,,,,,,,,,
661ae83beeda96247e30c48b,TCN,2024-06-12_13h41.21.562,LearnStrategy,2023.2.3,Win32,60.60606061,1,1,5,0.160185185,0.001851852,1,0,0,0.8128,rock_grid_rect_2,8,02,-1,-1,0.813,0.358333333,-0.264814815,1,0,0,3.066,Gabbro_rect,4,3.066,0,4,0,4,0,1,,,,,,,,,,,,,
661ae83beeda96247e30c48b,TCN,2024-06-12_13h41.21.562,LearnStrategy,2023.2.3,Win32,60.60606061,1,1,6,0.135185185,0.002777778,1,0,0,0.9747,rock_grid_rect_2,5,04,-1,-1,0.975,-0.361111111,-0.381481481,1,0,0,2.5661,Obsidian_rect,5,2.566,1,5,0,5,0,1,,,,,,,,,,,,,
661ae83beeda96247e30c48b,TCN,2024-06-12_13h41.21.562,LearnStrategy,2023.2.3,Win32,60.60606061,1,1,7,0.073148148,0.010185185,1,0,0,2.5783,rock_grid_rect_2,1,14,-1,-1,2.578,-0.377777778,-0.253703704,1,0,0,15.196,Andesite_rect,1,15.196,1,6,0,6,0,1,,,,,,,,,,,,,
661ae83beeda96247e30c48b,TCN,2024-06-12_13h41.21.562,LearnStrategy,2023.2.3,Win32,60.60606061,1,1,8,0.155555556,-0.003703704,1,0,0,1.0496,rock_grid_rect_2,2,11,-1,-1,1.05,0.401851852,-0.249074074,1,0,0,5.4788,Gabbro_rect,4,5.479,0,7,0,7,0,1,,,,,,,,,,,,,
661ae83beeda96247e30c48b,TCN,2024-06-12_13h41.21.562,LearnStrategy,2023.2.3,Win32,60.60606061,1,1,9,0.172222222,0,1,0,0,1.3741,rock_grid_rect_2,2,04,-1,-1,1.374,0.415740741,-0.25,1,0,0,4.0492,Gabbro_rect,4,4.049,0,8,0,8,0,1,,,,,,,,,,,,,
661ae83beeda96247e30c48b,TCN,2024-06-12_13h41.21.562,LearnStrategy,2023.2.3,Win32,60.60606061,1,1,10,0.190740741,0.012962963,1,0,0,0.9449,rock_grid_rect_2,3,15,-1,-1,0.945,0.433333333,-0.241666667,1,0,0,4.3119,Gabbro_rect,4,4.312,0,9,0,9,0,1,,,,,,,,,,,,,
661ae83beeda96247e30c48b,TCN,2024-06-12_13h41.21.562,LearnStrategy,2023.2.3,Win32,60.60606061,1,1,11,0.15,0.011111111,1,0,0,1.0575,rock_grid_rect_2,4,01,-1,-1,1.058,0.37962963,-0.249074074,1,0,0,3.3492,Gabbro_rect,4,3.349,1,10,0,10,0,1,,,,,,,,,,,,,
661ae83beeda96247e30c48b,TCN,2024-06-12_13h41.21.562,LearnStrategy,2023.2.3,Win32,60.60606061,1,1,12,0.15,0.005555556,1,0,0,0.9504,rock_grid_rect_2,7,07,-1,-1,0.95,-0.317592593,-0.250925926,1,0,0,16.4826,Andesite_rect,1,16.483,0,11,0,11,0,1,,,,,,,,,,,,,
661ae83beeda96247e30c48b,TCN,2024-06-12_13h41.21.562,LearnStrategy,2023.2.3,Win32,60.60606061,1,1,13,0.14537037,-0.006481481,1,0,0,0.9272,rock_grid_rect_2,4,10,-1,-1,0.927,0.191666667,-0.383333333,1,0,0,1.8461,Peridotite_rect,7,1.846,0,12,0,12,0,1,,,,,,,,,,,,,
661ae83beeda96247e30c48b,TCN,2024-06-12_13h41.21.562,LearnStrategy,2023.2.3,Win32,60.60606061,1,1,14,0.152777778,-0.000925926,1,0,0,1.1417,rock_grid_rect_2,5,05,-1,-1,1.142,-0.331481481,-0.412037037,1,0,0,7.3333,Obsidian_rect,5,7.333,1,13,0,13,0,1,,,,,,,,,,,,,
661ae83beeda96247e30c48b,TCN,2024-06-12_13h41.21.562,LearnStrategy,2023.2.3,Win32,60.60606061,1,1,15,0.121296296,-0.003703704,1,0,0,3.4497,rock_grid_rect_2,7,10,-1,-1,3.45,-0.373148148,-0.253703704,1,0,0,7.2456,Andesite_rect,1,7.246,0,14,0,14,0,1,,,,,,,,,,,,,
661ae83beeda96247e30c48b,TCN,2024-06-12_13h41.21.562,LearnStrategy,2023.2.3,Win32,60.60606061,1,1,16,0.092592593,0.019444444,1,0,0,6.8316,rock_grid_rect_2,8,14,-1,-1,6.832,0.168518519,-0.231481481,1,0,0,4.6974,Diorite_rect,3,4.697,0,15,0,15,0,1,,,,,,,,,,,,,
661ae83beeda96247e30c48b,TCN,2024-06-12_13h41.21.562,LearnStrategy,2023.2.3,Win32,60.60606061,1,2,1,,,,,,,,1,03,,,,,,,,,,,2,8.764,0,,,,,,-0.122222222,-0.246296296,1,0,0,8.7636,Basalt_rect,0,0,0,0,1,
661ae83beeda96247e30c48b,TCN,2024-06-12_13h41.21.562,LearnStrategy,2023.2.3,Win32,60.60606061,1,2,2,,,,,,,,8,08,,,,,,,,,,,8,11.182,1,,,,,,0.42962963,-0.408333333,1,0,0,11.1821,Pumice_rect,1,0,1,0,1,
661ae83beeda96247e30c48b,TCN,2024-06-12_13h41.21.562,LearnStrategy,2023.2.3,Win32,60.60606061,1,2,3,,,,,,,,2,14,,,,,,,,,,,6,8.466,0,,,,,,-0.100925926,-0.396296296,1,0,0,8.466,Pegmatite_rect,2,0,2,0,1,
661ae83beeda96247e30c48b,TCN,2024-06-12_13h41.21.562,LearnStrategy,2023.2.3,Win32,60.60606061,1,2,4,,,,,,,,6,08,,,,,,,,,,,5,5.581,0,,,,,,-0.349074074,-0.391666667,1,0,0,5.5811,Obsidian_rect,3,0,3,0,1,
661ae83beeda96247e30c48b,TCN,2024-06-12_13h41.21.562,LearnStrategy,2023.2.3,Win32,60.60606061,1,2,5,,,,,,,,5,07,,,,,,,,,,,2,4.897,0,,,,,,-0.086111111,-0.233333333,1,0,0,4.8973,Basalt_rect,4,0,4,0,1,
661ae83beeda96247e30c48b,TCN,2024-06-12_13h41.21.562,LearnStrategy,2023.2.3,Win32,60.60606061,1,2,6,,,,,,,,2,05,,,,,,,,,,,2,2.747,1,,,,,,-0.102777778,-0.252777778,1,0,0,2.747,Basalt_rect,5,0,5,0,1,
661ae83beeda96247e30c48b,TCN,2024-06-12_13h41.21.562,LearnStrategy,2023.2.3,Win32,60.60606061,1,2,7,,,,,,,,8,13,,,,,,,,,,,3,12.798,0,,,,,,0.156481481,-0.256481481,1,0,0,12.7981,Diorite_rect,6,0,6,0,1,
661ae83beeda96247e30c48b,TCN,2024-06-12_13h41.21.562,LearnStrategy,2023.2.3,Win32,60.60606061,1,2,8,,,,,,,,5,06,,,,,,,,,,,4,7.748,0,,,,,,0.356481481,-0.236111111,1,0,0,7.7477,Gabbro_rect,7,0,7,0,1,
661ae83beeda96247e30c48b,TCN,2024-06-12_13h41.21.562,LearnStrategy,2023.2.3,Win32,60.60606061,1,2,9,,,,,,,,1,07,,,,,,,,,,,7,2.649,0,,,,,,0.141666667,-0.397222222,1,0,0,2.6486,Peridotite_rect,8,0,8,0,1,
661ae83beeda96247e30c48b,TCN,2024-06-12_13h41.21.562,LearnStrategy,2023.2.3,Win32,60.60606061,1,2,10,,,,,,,,4,15,,,,,,,,,,,6,2.131,0,,,,,,-0.071296296,-0.419444444,1,0,0,2.1311,Pegmatite_rect,9,0,9,0,1,
661ae83beeda96247e30c48b,TCN,2024-06-12_13h41.21.562,LearnStrategy,2023.2.3,Win32,60.60606061,1,2,11,,,,,,,,3,13,,,,,,,,,,,1,1.858,0,,,,,,-0.348148148,-0.22962963,1,0,0,1.858,Andesite_rect,10,0,10,0,1,
661ae83beeda96247e30c48b,TCN,2024-06-12_13h41.21.562,LearnStrategy,2023.2.3,Win32,60.60606061,1,2,12,,,,,,,,4,03,,,,,,,,,,,7,4.698,0,,,,,,0.150925926,-0.405555556,1,0,0,4.6982,Peridotite_rect,11,0,11,0,1,
661ae83beeda96247e30c48b,TCN,2024-06-12_13h41.21.562,LearnStrategy,2023.2.3,Win32,60.60606061,1,2,13,,,,,,,,7,08,,,,,,,,,,,6,1.563,0,,,,,,-0.069444444,-0.408333333,1,0,0,1.5631,Pegmatite_rect,12,0,12,0,1,
661ae83beeda96247e30c48b,TCN,2024-06-12_13h41.21.562,LearnStrategy,2023.2.3,Win32,60.60606061,1,2,14,,,,,,,,6,12,,,,,,,,,,,8,3.248,0,,,,,,0.412962963,-0.397222222,1,0,0,3.2477,Pumice_rect,13,0,13,0,1,
661ae83beeda96247e30c48b,TCN,2024-06-12_13h41.21.562,LearnStrategy,2023.2.3,Win32,60.60606061,1,2,15,,,,,,,,3,08,,,,,,,,,,,6,2.379,0,,,,,,-0.083333333,-0.416666667,1,0,0,2.3794,Pegmatite_rect,14,0,14,0,1,
661ae83beeda96247e30c48b,TCN,2024-06-12_13h41.21.562,LearnStrategy,2023.2.3,Win32,60.60606061,1,2,16,,,,,,,,7,14,,,,,,,,,,,4,2.297,0,,,,,,0.398148148,-0.231481481,1,0,0,2.2965,Gabbro_rect,15,0,15,0,1,
661ae83beeda96247e30c48b,TCN,2024-06-12_13h41.21.562,LearnStrategy,2023.2.3,Win32,60.60606061,2,1,1,0.15462963,0.024074074,1,0,0,1.6987,rock_grid_rect_2,7,04,-1,-1,1.699,0.177777778,-0.396296296,1,0,0,10.7175,Peridotite_rect,7,10.717,1,0,0,0,0,1,,,,,,,,,,,,,
661ae83beeda96247e30c48b,TCN,2024-06-12_13h41.21.562,LearnStrategy,2023.2.3,Win32,60.60606061,2,1,2,0.153703704,0.005555556,1,0,0,0.9471,rock_grid_rect_2,4,05,-1,-1,0.947,-0.358333333,-0.236111111,1,0,0,21.8134,Andesite_rect,1,21.813,0,1,0,1,0,1,,,,,,,,,,,,,
661ae83beeda96247e30c48b,TCN,2024-06-12_13h41.21.562,LearnStrategy,2023.2.3,Win32,60.60606061,2,1,3,0.127777778,-0.011111111,1,0,0,1.8127,rock_grid_rect_2,5,11,-1,-1,1.813,-0.339814815,-0.421296296,1,0,0,4.1001,Obsidian_rect,5,4.1,1,2,0,2,0,1,,,,,,,,,,,,,
661ae83beeda96247e30c48b,TCN,2024-06-12_13h41.21.562,LearnStrategy,2023.2.3,Win32,60.60606061,2,1,4,0.144444444,0.000925926,1,0,0,0.9628,rock_grid_rect_2,4,12,-1,-1,0.963,-0.330555556,-0.24537037,1,0,0,8.7327,Andesite_rect,1,8.733,0,3,0,3,0,1,,,,,,,,,,,,,
661ae83beeda96247e30c48b,TCN,2024-06-12_13h41.21.562,LearnStrategy,2023.2.3,Win32,60.60606061,2,1,5,0.127777778,0,1,0,0,1.9642,rock_grid_rect_2,5,08,-1,-1,1.964,-0.338888889,-0.380555556,1,0,0,4.1499,Obsidian_rect,5,4.15,1,4,0,4,0,1,,,,,,,,,,,,,
661ae83beeda96247e30c48b,TCN,2024-06-12_13h41.21.562,LearnStrategy,2023.2.3,Win32,60.60606061,2,1,6,0.148148148,0.005555556,1,0,0,0.9017,rock_grid_rect_2,2,16,-1,-1,0.902,-0.082407407,-0.394444444,1,0,0,6.4627,Pegmatite_rect,6,6.463,0,5,0,5,0,1,,,,,,,,,,,,,
661ae83beeda96247e30c48b,TCN,2024-06-12_13h41.21.562,LearnStrategy,2023.2.3,Win32,60.60606061,2,1,7,0.106481481,-0.005555556,1,0,0,2.0957,rock_grid_rect_2,8,15,-1,-1,2.096,0.165740741,-0.259259259,1,0,0,4.5665,Diorite_rect,3,4.567,0,6,0,6,0,1,,,,,,,,,,,,,
661ae83beeda96247e30c48b,TCN,2024-06-12_13h41.21.562,LearnStrategy,2023.2.3,Win32,60.60606061,2,1,8,0.119444444,-0.010185185,1,0,0,2.0292,rock_grid_rect_2,8,03,-1,-1,2.029,0.158333333,-0.258333333,1,0,0,1.3439,Diorite_rect,3,1.344,0,7,0,7,0,1,,,,,,,,,,,,,
661ae83beeda96247e30c48b,TCN,2024-06-12_13h41.21.562,LearnStrategy,2023.2.3,Win32,60.60606061,2,1,9,0.112962963,-0.010185185,1,0,0,1.4318,rock_grid_rect_2,3,11,-1,-1,1.432,-0.068518519,-0.407407407,1,0,0,2.4504,Pegmatite_rect,6,2.45,0,8,0,8,0,1,,,,,,,,,,,,,
661ae83beeda96247e30c48b,TCN,2024-06-12_13h41.21.562,LearnStrategy,2023.2.3,Win32,60.60606061,2,1,10,0.127777778,-0.017592593,1,0,0,1.033,rock_grid_rect_2,1,05,-1,-1,1.033,0.140740741,-0.382407407,1,0,0,2.9796,Peridotite_rect,7,2.98,0,9,0,9,0,1,,,,,,,,,,,,,
661ae83beeda96247e30c48b,TCN,2024-06-12_13h41.21.562,LearnStrategy,2023.2.3,Win32,60.60606061,2,1,11,0.10462963,0.001851852,1,0,0,0.8522,rock_grid_rect_2,6,13,-1,-1,0.852,0.368518519,-0.414814815,1,0,0,1.4635,Pumice_rect,8,1.464,0,10,0,10,0,1,,,,,,,,,,,,,
661ae83beeda96247e30c48b,TCN,2024-06-12_13h41.21.562,LearnStrategy,2023.2.3,Win32,60.60606061,2,1,12,0.123148148,0.00462963,1,0,0,0.8625,rock_grid_rect_2,6,06,-1,-1,0.862,-0.071296296,-0.381481481,1,0,0,2.1167,Pegmatite_rect,6,2.117,1,11,0,11,0,1,,,,,,,,,,,,,
661ae83beeda96247e30c48b,TCN,2024-06-12_13h41.21.562,LearnStrategy,2023.2.3,Win32,60.60606061,2,1,13,0.113888889,-0.00462963,1,0,0,0.8629,rock_grid_rect_2,1,01,-1,-1,0.863,-0.085185185,-0.25,1,0,0,2.6997,Basalt_rect,2,2.7,0,12,0,12,0,1,,,,,,,,,,,,,
661ae83beeda96247e30c48b,TCN,2024-06-12_13h41.21.562,LearnStrategy,2023.2.3,Win32,60.60606061,2,1,14,0.112962963,-0.008333333,1,0,0,0.75,rock_grid_rect_2,2,06,-1,-1,0.75,-0.113888889,-0.246296296,1,0,0,4.5458,Basalt_rect,2,4.546,1,13,0,13,0,1,,,,,,,,,,,,,
661ae83beeda96247e30c48b,TCN,2024-06-12_13h41.21.562,LearnStrategy,2023.2.3,Win32,60.60606061,2,1,15,0.137037037,0,1,0,0,1.4502,rock_grid_rect_2,3,02,-1,-1,1.45,-0.3,-0.249074074,1,0,0,9.7623,Andesite_rect,1,9.762,0,14,0,14,0,1,,,,,,,,,,,,,
661ae83beeda96247e30c48b,TCN,2024-06-12_13h41.21.562,LearnStrategy,2023.2.3,Win32,60.60606061,2,1,16,0.131481481,0.017592593,1,0,0,1.3005,rock_grid_rect_2,7,06,-1,-1,1.3,-0.074074074,-0.403703704,1,0,0,6.2292,Pegmatite_rect,6,6.229,0,15,0,15,0,1,,,,,,,,,,,,,
661ae83beeda96247e30c48b,TCN,2024-06-12_13h41.21.562,LearnStrategy,2023.2.3,Win32,60.60606061,2,2,1,,,,,,,,7,02,,,,,,,,,,,6,5.181,0,,,,,,-0.07037037,-0.388888889,1,0,0,5.1814,Pegmatite_rect,0,0,0,0,1,
661ae83beeda96247e30c48b,TCN,2024-06-12_13h41.21.562,LearnStrategy,2023.2.3,Win32,60.60606061,2,2,2,,,,,,,,7,12,,,,,,,,,,,4,13.466,0,,,,,,0.435185185,-0.235185185,1,0,0,13.466,Gabbro_rect,1,0,1,0,1,
661ae83beeda96247e30c48b,TCN,2024-06-12_13h41.21.562,LearnStrategy,2023.2.3,Win32,60.60606061,2,2,3,,,,,,,,3,09,,,,,,,,,,,8,1.18,0,,,,,,0.452777778,-0.385185185,1,0,0,1.1804,Pumice_rect,2,0,2,0,1,
661ae83beeda96247e30c48b,TCN,2024-06-12_13h41.21.562,LearnStrategy,2023.2.3,Win32,60.60606061,2,2,4,,,,,,,,4,13,,,,,,,,,,,7,1.813,0,,,,,,0.14537037,-0.412962963,1,0,0,1.8127,Peridotite_rect,3,0,3,0,1,
661ae83beeda96247e30c48b,TCN,2024-06-12_13h41.21.562,LearnStrategy,2023.2.3,Win32,60.60606061,2,2,5,,,,,,,,4,16,,,,,,,,,,,5,3.832,0,,,,,,-0.335185185,-0.397222222,1,0,0,3.8315,Obsidian_rect,4,0,4,0,1,
661ae83beeda96247e30c48b,TCN,2024-06-12_13h41.21.562,LearnStrategy,2023.2.3,Win32,60.60606061,2,2,6,,,,,,,,8,10,,,,,,,,,,,1,1.849,0,,,,,,-0.318518519,-0.27037037,1,0,0,1.849,Andesite_rect,5,0,5,0,1,
661ae83beeda96247e30c48b,TCN,2024-06-12_13h41.21.562,LearnStrategy,2023.2.3,Win32,60.60606061,2,2,7,,,,,,,,1,10,,,,,,,,,,,3,1.414,0,,,,,,0.140740741,-0.241666667,1,0,0,1.4144,Diorite_rect,6,0,6,0,1,
661ae83beeda96247e30c48b,TCN,2024-06-12_13h41.21.562,LearnStrategy,2023.2.3,Win32,60.60606061,2,2,8,,,,,,,,5,16,,,,,,,,,,,5,5.876,1,,,,,,-0.349074074,-0.401851852,1,0,0,5.8756,Obsidian_rect,7,0,7,0,1,
661ae83beeda96247e30c48b,TCN,2024-06-12_13h41.21.562,LearnStrategy,2023.2.3,Win32,60.60606061,2,2,9,,,,,,,,1,06,,,,,,,,,,,6,2.349,0,,,,,,-0.087962963,-0.419444444,1,0,0,2.3493,Pegmatite_rect,8,0,8,0,1,
661ae83beeda96247e30c48b,TCN,2024-06-12_13h41.21.562,LearnStrategy,2023.2.3,Win32,60.60606061,2,2,10,,,,,,,,2,10,,,,,,,,,,,3,1.598,0,,,,,,0.1,-0.234259259,1,0,0,1.5983,Diorite_rect,9,0,9,0,1,
661ae83beeda96247e30c48b,TCN,2024-06-12_13h41.21.562,LearnStrategy,2023.2.3,Win32,60.60606061,2,2,11,,,,,,,,5,10,,,,,,,,,,,5,2.682,1,,,,,,-0.341666667,-0.406481481,1,0,0,2.682,Obsidian_rect,10,0,10,0,1,
661ae83beeda96247e30c48b,TCN,2024-06-12_13h41.21.562,LearnStrategy,2023.2.3,Win32,60.60606061,2,2,12,,,,,,,,3,16,,,,,,,,,,,1,2.748,0,,,,,,-0.386111111,-0.268518519,1,0,0,2.7478,Andesite_rect,11,0,11,0,1,
661ae83beeda96247e30c48b,TCN,2024-06-12_13h41.21.562,LearnStrategy,2023.2.3,Win32,60.60606061,2,2,13,,,,,,,,2,08,,,,,,,,,,,2,3.896,1,,,,,,-0.115740741,-0.249074074,1,0,0,3.8961,Basalt_rect,12,0,12,0,1,
661ae83beeda96247e30c48b,TCN,2024-06-12_13h41.21.562,LearnStrategy,2023.2.3,Win32,60.60606061,2,2,14,,,,,,,,6,16,,,,,,,,,,,3,2.832,0,,,,,,0.133333333,-0.255555556,1,0,0,2.8319,Diorite_rect,13,0,13,0,1,
661ae83beeda96247e30c48b,TCN,2024-06-12_13h41.21.562,LearnStrategy,2023.2.3,Win32,60.60606061,2,2,15,,,,,,,,8,16,,,,,,,,,,,8,1.331,1,,,,,,0.401851852,-0.40462963,1,0,0,1.331,Pumice_rect,14,0,14,0,1,
661ae83beeda96247e30c48b,TCN,2024-06-12_13h41.21.562,LearnStrategy,2023.2.3,Win32,60.60606061,2,2,16,,,,,,,,6,10,,,,,,,,,,,7,2.098,0,,,,,,0.10462963,-0.398148148,1,0,0,2.0982,Peridotite_rect,15,0,15,0,1,
661ae83beeda96247e30c48b,TCN,2024-06-12_13h41.21.562,LearnStrategy,2023.2.3,Win32,60.60606061,3,1,1,0.183333333,0.007407407,1,0,0,1.2649,rock_grid_rect_2,1,09,-1,-1,1.265,0.112037037,-0.403703704,1,0,0,1.2109,Peridotite_rect,7,1.211,0,0,0,0,0,1,,,,,,,,,,,,,
661ae83beeda96247e30c48b,TCN,2024-06-12_13h41.21.562,LearnStrategy,2023.2.3,Win32,60.60606061,3,1,2,0.183333333,0.013888889,1,0,0,1.0814,rock_grid_rect_2,2,09,-1,-1,1.081,-0.077777778,-0.392592593,1,0,0,1.4839,Pegmatite_rect,6,1.484,0,1,0,1,0,1,,,,,,,,,,,,,
661ae83beeda96247e30c48b,TCN,2024-06-12_13h41.21.562,LearnStrategy,2023.2.3,Win32,60.60606061,3,1,3,0.162962963,-0.002777778,1,0,0,0.9456,rock_grid_rect_2,4,14,-1,-1,0.946,0.37037037,-0.251851852,1,0,0,1.5506,Gabbro_rect,4,1.551,1,2,0,2,0,1,,,,,,,,,,,,,
661ae83beeda96247e30c48b,TCN,2024-06-12_13h41.21.562,LearnStrategy,2023.2.3,Win32,60.60606061,3,1,4,0.157407407,-0.005555556,1,0,0,0.8675,rock_grid_rect_2,2,12,-1,-1,0.868,0.117592593,-0.25,1,0,0,1.8629,Diorite_rect,3,1.863,0,3,0,3,0,1,,,,,,,,,,,,,
661ae83beeda96247e30c48b,TCN,2024-06-12_13h41.21.562,LearnStrategy,2023.2.3,Win32,60.60606061,3,1,5,0.15,0.000925926,1,0,0,1.1954,rock_grid_rect_2,7,16,-1,-1,1.195,0.138888889,-0.383333333,1,0,0,1.3659,Peridotite_rect,7,1.366,1,4,0,4,0,1,,,,,,,,,,,,,
661ae83beeda96247e30c48b,TCN,2024-06-12_13h41.21.562,LearnStrategy,2023.2.3,Win32,60.60606061,3,1,6,0.134259259,-0.00462963,1,0,0,0.7313,rock_grid_rect_2,6,07,-1,-1,0.731,0.413888889,-0.380555556,1,0,0,2.0326,Pumice_rect,8,2.033,0,5,0,5,0,1,,,,,,,,,,,,,
661ae83beeda96247e30c48b,TCN,2024-06-12_13h41.21.562,LearnStrategy,2023.2.3,Win32,60.60606061,3,1,7,0.137962963,-0.010185185,1,0,0,0.78,rock_grid_rect_2,5,09,-1,-1,0.78,-0.333333333,-0.402777778,1,0,0,1.0996,Obsidian_rect,5,1.1,1,6,0,6,0,1,,,,,,,,,,,,,
661ae83beeda96247e30c48b,TCN,2024-06-12_13h41.21.562,LearnStrategy,2023.2.3,Win32,60.60606061,3,1,8,0.125,-0.011111111,1,0,0,1.1662,rock_grid_rect_2,8,04,-1,-1,1.166,0.37962963,-0.396296296,1,0,0,1.6162,Pumice_rect,8,1.616,1,7,0,7,0,1,,,,,,,,,,,,,
661ae83beeda96247e30c48b,TCN,2024-06-12_13h41.21.562,LearnStrategy,2023.2.3,Win32,60.60606061,3,1,9,0.136111111,0.008333333,1,0,0,0.8966,rock_grid_rect_2,7,15,-1,-1,0.897,-0.361111111,-0.251851852,1,0,0,1.9168,Andesite_rect,1,1.917,0,8,0,8,0,1,,,,,,,,,,,,,
661ae83beeda96247e30c48b,TCN,2024-06-12_13h41.21.562,LearnStrategy,2023.2.3,Win32,60.60606061,3,1,10,0.109259259,0.012962963,1,0,0,0.78,rock_grid_rect_2,1,11,-1,-1,0.78,0.143518519,-0.262037037,1,0,0,1.55,Diorite_rect,3,1.55,0,9,0,9,0,1,,,,,,,,,,,,,
661ae83beeda96247e30c48b,TCN,2024-06-12_13h41.21.562,LearnStrategy,2023.2.3,Win32,60.60606061,3,1,11,0.058333333,-0.007407407,1,0,0,0.7464,rock_grid_rect_2,5,14,-1,-1,0.746,-0.355555556,-0.410185185,1,0,0,1.0337,Obsidian_rect,5,1.034,1,10,0,10,0,1,,,,,,,,,,,,,
661ae83beeda96247e30c48b,TCN,2024-06-12_13h41.21.562,LearnStrategy,2023.2.3,Win32,60.60606061,3,1,12,0.122222222,0.012962963,1,0,0,0.868,rock_grid_rect_2,4,09,-1,-1,0.868,-0.333333333,-0.415740741,1,0,0,1.0291,Obsidian_rect,5,1.029,0,11,0,11,0,1,,,,,,,,,,,,,
661ae83beeda96247e30c48b,TCN,2024-06-12_13h41.21.562,LearnStrategy,2023.2.3,Win32,60.60606061,3,1,13,0.109259259,-0.003703704,1,0,0,0.7467,rock_grid_rect_2,6,03,-1,-1,0.747,0.160185185,-0.403703704,1,0,0,1.2835,Peridotite_rect,7,1.284,0,12,0,12,0,1,,,,,,,,,,,,,
661ae83beeda96247e30c48b,TCN,2024-06-12_13h41.21.562,LearnStrategy,2023.2.3,Win32,60.60606061,3,1,14,0.105555556,-0.011111111,1,0,0,0.8964,rock_grid_rect_2,8,09,-1,-1,0.896,0.439814815,-0.253703704,1,0,0,1.8507,Gabbro_rect,4,1.851,0,13,0,13,0,1,,,,,,,,,,,,,
661ae83beeda96247e30c48b,TCN,2024-06-12_13h41.21.562,LearnStrategy,2023.2.3,Win32,60.60606061,3,1,15,0.117592593,0.010185185,1,0,0,0.6004,rock_grid_rect_2,3,10,-1,-1,0.6,-0.336111111,-0.235185185,1,0,0,1.4297,Andesite_rect,1,1.43,0,14,0,14,0,1,,,,,,,,,,,,,
661ae83beeda96247e30c48b,TCN,2024-06-12_13h41.21.562,LearnStrategy,2023.2.3,Win32,60.60606061,3,1,16,0.07962963,-0.010185185,1,0,0,0.763,rock_grid_rect_2,3,14,-1,-1,0.763,0.097222222,-0.378703704,1,0,0,1.3506,Peridotite_rect,7,1.351,0,15,0,15,0,1,,,,,,,,,,,,,
661ae83beeda96247e30c48b,TCN,2024-06-12_13h41.21.562,LearnStrategy,2023.2.3,Win32,60.60606061,3,2,1,,,,,,,,2,01,,,,,,,,,,,3,6.614,0,,,,,,0.14537037,-0.250925926,1,0,0,6.6141,Diorite_rect,0,0,0,0,1,
661ae83beeda96247e30c48b,TCN,2024-06-12_13h41.21.562,LearnStrategy,2023.2.3,Win32,60.60606061,3,2,2,,,,,,,,5,02,,,,,,,,,,,5,2.465,1,,,,,,-0.367592593,-0.385185185,1,0,0,2.4652,Obsidian_rect,1,0,1,0,1,
661ae83beeda96247e30c48b,TCN,2024-06-12_13h41.21.562,LearnStrategy,2023.2.3,Win32,60.60606061,3,2,3,,,,,,,,4,11,,,,,,,,,,,7,1.308,0,,,,,,0.130555556,-0.392592593,1,0,0,1.3083,Peridotite_rect,2,0,2,0,1,
661ae83beeda96247e30c48b,TCN,2024-06-12_13h41.21.562,LearnStrategy,2023.2.3,Win32,60.60606061,3,2,4,,,,,,,,3,12,,,,,,,,,,,8,1.101,0,,,,,,0.383333333,-0.389814815,1,0,0,1.1008,Pumice_rect,3,0,3,0,1,
661ae83beeda96247e30c48b,TCN,2024-06-12_13h41.21.562,LearnStrategy,2023.2.3,Win32,60.60606061,3,2,5,,,,,,,,8,06,,,,,,,,,,,8,1.148,1,,,,,,0.375,-0.387037037,1,0,0,1.148,Pumice_rect,4,0,4,0,1,
661ae83beeda96247e30c48b,TCN,2024-06-12_13h41.21.562,LearnStrategy,2023.2.3,Win32,60.60606061,3,2,6,,,,,,,,8,05,,,,,,,,,,,8,0.95,1,,,,,,0.355555556,-0.416666667,1,0,0,0.9497,Pumice_rect,5,0,5,0,1,
661ae83beeda96247e30c48b,TCN,2024-06-12_13h41.21.562,LearnStrategy,2023.2.3,Win32,60.60606061,3,2,7,,,,,,,,3,07,,,,,,,,,,,1,1.298,0,,,,,,-0.308333333,-0.252777778,1,0,0,1.2984,Andesite_rect,6,0,6,0,1,
661ae83beeda96247e30c48b,TCN,2024-06-12_13h41.21.562,LearnStrategy,2023.2.3,Win32,60.60606061,3,2,8,,,,,,,,4,08,,,,,,,,,,,2,1.964,0,,,,,,-0.106481481,-0.271296296,1,0,0,1.9642,Basalt_rect,7,0,7,0,1,
661ae83beeda96247e30c48b,TCN,2024-06-12_13h41.21.562,LearnStrategy,2023.2.3,Win32,60.60606061,3,2,9,,,,,,,,7,13,,,,,,,,,,,6,1.449,0,,,,,,-0.140740741,-0.4,1,0,0,1.449,Pegmatite_rect,8,0,8,0,1,
661ae83beeda96247e30c48b,TCN,2024-06-12_13h41.21.562,LearnStrategy,2023.2.3,Win32,60.60606061,3,2,10,,,,,,,,5,12,,,,,,,,,,,5,1.014,1,,,,,,-0.337037037,-0.403703704,1,0,0,1.0141,Obsidian_rect,9,0,9,0,1,
661ae83beeda96247e30c48b,TCN,2024-06-12_13h41.21.562,LearnStrategy,2023.2.3,Win32,60.60606061,3,2,11,,,,,,,,2,02,,,,,,,,,,,4,1.082,0,,,,,,0.338888889,-0.231481481,1,0,0,1.0817,Gabbro_rect,10,0,10,0,1,
661ae83beeda96247e30c48b,TCN,2024-06-12_13h41.21.562,LearnStrategy,2023.2.3,Win32,60.60606061,3,2,12,,,,,,,,6,05,,,,,,,,,,,3,1.081,0,,,,,,0.125925926,-0.242592593,1,0,0,1.0809,Diorite_rect,11,0,11,0,1,
661ae83beeda96247e30c48b,TCN,2024-06-12_13h41.21.562,LearnStrategy,2023.2.3,Win32,60.60606061,3,2,13,,,,,,,,7,05,,,,,,,,,,,7,1.598,1,,,,,,0.108333333,-0.40462963,1,0,0,1.5981,Peridotite_rect,12,0,12,0,1,
661ae83beeda96247e30c48b,TCN,2024-06-12_13h41.21.562,LearnStrategy,2023.2.3,Win32,60.60606061,3,2,14,,,,,,,,1,04,,,,,,,,,,,8,1.09,0,,,,,,0.392592593,-0.380555556,1,0,0,1.0897,Pumice_rect,13,0,13,0,1,
661ae83beeda96247e30c48b,TCN,2024-06-12_13h41.21.562,LearnStrategy,2023.2.3,Win32,60.60606061,3,2,15,,,,,,,,1,02,,,,,,,,,,,1,1.383,1,,,,,,-0.297222222,-0.237037037,1,0,0,1.3834,Andesite_rect,14,0,14,0,1,
661ae83beeda96247e30c48b,TCN,2024-06-12_13h41.21.562,LearnStrategy,2023.2.3,Win32,60.60606061,3,2,16,,,,,,,,6,15,,,,,,,,,,,3,3.348,0,,,,,,0.112037037,-0.25462963,1,0,0,3.3485,Diorite_rect,15,0,15,0,1,
661ae83beeda96247e30c48b,TCN,2024-06-12_13h41.21.562,LearnStrategy,2023.2.3,Win32,60.60606061,4,1,1,0.15462963,-0.00462963,1,0,0,54.8971,rock_grid_rect_2,2,09,-1,-1,54.897,0.158333333,-0.240740741,1,0,0,1.65,Diorite_rect,3,1.65,0,0,0,0,0,1,,,,,,,,,,,,,
661ae83beeda96247e30c48b,TCN,2024-06-12_13h41.21.562,LearnStrategy,2023.2.3,Win32,60.60606061,4,1,2,0.183333333,-0.013888889,1,0,0,0.9813,rock_grid_rect_2,7,16,-1,-1,0.981,0.169444444,-0.394444444,1,0,0,1.1159,Peridotite_rect,7,1.116,1,1,0,1,0,1,,,,,,,,,,,,,
661ae83beeda96247e30c48b,TCN,2024-06-12_13h41.21.562,LearnStrategy,2023.2.3,Win32,60.60606061,4,1,3,0.15,-0.024074074,1,0,0,0.9299,rock_grid_rect_2,4,10,-1,-1,0.93,-0.419444444,-0.387962963,1,0,0,1.6164,Obsidian_rect,5,1.616,0,2,0,2,0,1,,,,,,,,,,,,,
661ae83beeda96247e30c48b,TCN,2024-06-12_13h41.21.562,LearnStrategy,2023.2.3,Win32,60.60606061,4,1,4,0.196296296,0.002777778,1,0,0,0.7483,rock_grid_rect_2,2,04,-1,-1,0.748,-0.457407407,-0.4,1,0,0,0.9329,Obsidian_rect,5,0.933,0,3,0,3,0,1,,,,,,,,,,,,,
661ae83beeda96247e30c48b,TCN,2024-06-12_13h41.21.562,LearnStrategy,2023.2.3,Win32,60.60606061,4,1,5,0.17962963,-0.005555556,1,0,0,0.8794,rock_grid_rect_2,3,10,-1,-1,0.879,-0.106481481,-0.396296296,1,0,0,1.6832,Pegmatite_rect,6,1.683,0,4,0,4,0,1,,,,,,,,,,,,,
661ae83beeda96247e30c48b,TCN,2024-06-12_13h41.21.562,LearnStrategy,2023.2.3,Win32,60.60606061,4,1,6,0.188888889,0.003703704,1,0,0,0.8126,rock_grid_rect_2,1,01,-1,-1,0.813,-0.478703704,-0.405555556,1,0,0,1.0341,Obsidian_rect,5,1.034,0,5,0,5,0,1,,,,,,,,,,,,,
661ae83beeda96247e30c48b,TCN,2024-06-12_13h41.21.562,LearnStrategy,2023.2.3,Win32,60.60606061,4,1,7,0.206481481,0.012037037,1,0,0,0.8363,rock_grid_rect_2,5,08,-1,-1,0.836,-0.478703704,-0.396296296,1,0,0,0.7958,Obsidian_rect,5,0.796,1,6,0,6,0,1,,,,,,,,,,,,,
661ae83beeda96247e30c48b,TCN,2024-06-12_13h41.21.562,LearnStrategy,2023.2.3,Win32,60.60606061,4,1,8,0.207407407,0.013888889,1,0,0,0.8133,rock_grid_rect_2,7,10,-1,-1,0.813,-0.405555556,-0.259259259,1,0,0,1.6503,Andesite_rect,1,1.65,0,7,0,7,0,1,,,,,,,,,,,,,
661ae83beeda96247e30c48b,TCN,2024-06-12_13h41.21.562,LearnStrategy,2023.2.3,Win32,60.60606061,4,1,9,0.198148148,0.008333333,1,0,0,0.7464,rock_grid_rect_2,4,01,-1,-1,0.746,0.14537037,-0.413888889,1,0,0,1.1337,Peridotite_rect,7,1.134,0,8,0,8,0,1,,,,,,,,,,,,,
661ae83beeda96247e30c48b,TCN,2024-06-12_13h41.21.562,LearnStrategy,2023.2.3,Win32,60.60606061,4,1,10,0.172222222,-0.022222222,1,0,0,0.6649,rock_grid_rect_2,6,06,-1,-1,0.665,0.376851852,-0.402777778,1,0,0,1.1995,Pumice_rect,8,1.199,0,9,0,9,0,1,,,,,,,,,,,,,
661ae83beeda96247e30c48b,TCN,2024-06-12_13h41.21.562,LearnStrategy,2023.2.3,Win32,60.60606061,4,1,11,0.201851852,-0.002777778,1,0,0,0.8632,rock_grid_rect_2,8,14,-1,-1,0.863,0.411111111,-0.399074074,1,0,0,1.1995,Pumice_rect,8,1.199,1,10,0,10,0,1,,,,,,,,,,,,,
661ae83beeda96247e30c48b,TCN,2024-06-12_13h41.21.562,LearnStrategy,2023.2.3,Win32,60.60606061,4,1,12,0.189814815,0.013888889,1,0,0,0.7962,rock_grid_rect_2,6,03,-1,-1,0.796,-0.086111111,-0.385185185,1,0,0,2.2828,Pegmatite_rect,6,2.283,1,11,0,11,0,1,,,,,,,,,,,,,
661ae83beeda96247e30c48b,TCN,2024-06-12_13h41.21.562,LearnStrategy,2023.2.3,Win32,60.60606061,4,1,13,0.175,0.006481481,1,0,0,0.75,rock_grid_rect_2,1,11,-1,-1,0.75,0.190740741,-0.231481481,1,0,0,1.7962,Diorite_rect,3,1.796,0,12,0,12,0,1,,,,,,,,,,,,,
661ae83beeda96247e30c48b,TCN,2024-06-12_13h41.21.562,LearnStrategy,2023.2.3,Win32,60.60606061,4,1,14,0.188888889,0.000925926,1,0,0,0.5648,rock_grid_rect_2,8,15,-1,-1,0.565,0.367592593,-0.391666667,1,0,0,0.9325,Pumice_rect,8,0.933,1,13,0,13,0,1,,,,,,,,,,,,,
661ae83beeda96247e30c48b,TCN,2024-06-12_13h41.21.562,LearnStrategy,2023.2.3,Win32,60.60606061,4,1,15,0.169444444,-0.002777778,1,0,0,1.0338,rock_grid_rect_2,5,04,-1,-1,1.034,-0.457407407,-0.416666667,1,0,0,1.4964,Obsidian_rect,5,1.496,1,14,0,14,0,1,,,,,,,,,,,,,
661ae83beeda96247e30c48b,TCN,2024-06-12_13h41.21.562,LearnStrategy,2023.2.3,Win32,60.60606061,4,1,16,0.185185185,0.013888889,1,0,0,0.7338,rock_grid_rect_2,3,06,-1,-1,0.734,0.402777778,-0.249074074,1,0,0,1.4129,Gabbro_rect,4,1.413,0,15,0,15,0,1,,,,,,,,,,,,,
661ae83beeda96247e30c48b,TCN,2024-06-12_13h41.21.562,LearnStrategy,2023.2.3,Win32,60.60606061,4,2,1,,,,,,,,5,07,,,,,,,,,,,5,1.348,1,,,,,,-0.439814815,-0.403703704,1,0,0,1.3479,Obsidian_rect,0,0,0,0,1,
661ae83beeda96247e30c48b,TCN,2024-06-12_13h41.21.562,LearnStrategy,2023.2.3,Win32,60.60606061,4,2,2,,,,,,,,8,13,,,,,,,,,,,8,1.083,1,,,,,,0.361111111,-0.405555556,1,0,0,1.0828,Pumice_rect,1,0,1,0,1,
661ae83beeda96247e30c48b,TCN,2024-06-12_13h41.21.562,LearnStrategy,2023.2.3,Win32,60.60606061,4,2,3,,,,,,,,6,15,,,,,,,,,,,7,1.876,0,,,,,,0.140740741,-0.390740741,1,0,0,1.8763,Peridotite_rect,2,0,2,0,1,
661ae83beeda96247e30c48b,TCN,2024-06-12_13h41.21.562,LearnStrategy,2023.2.3,Win32,60.60606061,4,2,4,,,,,,,,3,08,,,,,,,,,,,3,4.267,1,,,,,,0.173148148,-0.238888889,1,0,0,4.2668,Diorite_rect,3,0,3,0,1,
661ae83beeda96247e30c48b,TCN,2024-06-12_13h41.21.562,LearnStrategy,2023.2.3,Win32,60.60606061,4,2,5,,,,,,,,3,07,,,,,,,,,,,1,1.467,0,,,,,,-0.436111111,-0.22962963,1,0,0,1.4666,Andesite_rect,4,0,4,0,1,
661ae83beeda96247e30c48b,TCN,2024-06-12_13h41.21.562,LearnStrategy,2023.2.3,Win32,60.60606061,4,2,6,,,,,,,,2,02,,,,,,,,,,,6,3.101,0,,,,,,-0.074074074,-0.402777778,1,0,0,3.1007,Pegmatite_rect,5,0,5,0,1,
661ae83beeda96247e30c48b,TCN,2024-06-12_13h41.21.562,LearnStrategy,2023.2.3,Win32,60.60606061,4,2,7,,,,,,,,1,07,,,,,,,,,,,7,1.013,0,,,,,,0.153703704,-0.392592593,1,0,0,1.013,Peridotite_rect,6,0,6,0,1,
661ae83beeda96247e30c48b,TCN,2024-06-12_13h41.21.562,LearnStrategy,2023.2.3,Win32,60.60606061,4,2,8,,,,,,,,7,02,,,,,,,,,,,8,3.633,0,,,,,,0.360185185,-0.407407407,1,0,0,3.6331,Pumice_rect,7,0,7,0,1,
661ae83beeda96247e30c48b,TCN,2024-06-12_13h41.21.562,LearnStrategy,2023.2.3,Win32,60.60606061,4,2,9,,,,,,,,1,03,,,,,,,,,,,3,1.232,0,,,,,,0.125,-0.263888889,1,0,0,1.2318,Diorite_rect,8,0,8,0,1,
661ae83beeda96247e30c48b,TCN,2024-06-12_13h41.21.562,LearnStrategy,2023.2.3,Win32,60.60606061,4,2,10,,,,,,,,4,11,,,,,,,,,,,2,1.599,0,,,,,,-0.088888889,-0.248148148,1,0,0,1.5987,Basalt_rect,9,0,9,0,1,
661ae83beeda96247e30c48b,TCN,2024-06-12_13h41.21.562,LearnStrategy,2023.2.3,Win32,60.60606061,4,2,11,,,,,,,,5,16,,,,,,,,,,,5,0.935,1,,,,,,-0.451851852,-0.393518519,1,0,0,0.9351,Obsidian_rect,10,0,10,0,1,
661ae83beeda96247e30c48b,TCN,2024-06-12_13h41.21.562,LearnStrategy,2023.2.3,Win32,60.60606061,4,2,12,,,,,,,,7,08,,,,,,,,,,,7,1.681,1,,,,,,0.160185185,-0.411111111,1,0,0,1.6812,Peridotite_rect,11,0,11,0,1,
661ae83beeda96247e30c48b,TCN,2024-06-12_13h41.21.562,LearnStrategy,2023.2.3,Win32,60.60606061,4,2,13,,,,,,,,6,16,,,,,,,,,,,4,1.566,0,,,,,,0.415740741,-0.232407407,1,0,0,1.5658,Gabbro_rect,12,0,12,0,1,
661ae83beeda96247e30c48b,TCN,2024-06-12_13h41.21.562,LearnStrategy,2023.2.3,Win32,60.60606061,4,2,14,,,,,,,,8,06,,,,,,,,,,,8,0.933,1,,,,,,0.364814815,-0.397222222,1,0,0,0.9326,Pumice_rect,13,0,13,0,1,
661ae83beeda96247e30c48b,TCN,2024-06-12_13h41.21.562,LearnStrategy,2023.2.3,Win32,60.60606061,4,2,15,,,,,,,,2,01,,,,,,,,,,,1,3.482,0,,,,,,-0.435185185,-0.233333333,1,0,0,3.4824,Andesite_rect,14,0,14,0,1,
661ae83beeda96247e30c48b,TCN,2024-06-12_13h41.21.562,LearnStrategy,2023.2.3,Win32,60.60606061,4,2,16,,,,,,,,4,08,,,,,,,,,,,3,1.015,0,,,,,,0.187962963,-0.264814815,1,0,0,1.0153,Diorite_rect,15,0,15,0,1,
661ae83beeda96247e30c48b,TCN,2024-06-12_13h41.21.562,LearnStrategy,2023.2.3,Win32,60.60606061,5,1,1,0.168518519,0.002777778,1,0,0,1.0148,rock_grid_rect_2,3,14,-1,-1,1.015,0.150925926,-0.237037037,1,0,0,1.6146,Diorite_rect,3,1.615,1,0,0,0,0,1,,,,,,,,,,,,,
661ae83beeda96247e30c48b,TCN,2024-06-12_13h41.21.562,LearnStrategy,2023.2.3,Win32,60.60606061,5,1,2,0.12962963,-0.016666667,1,0,0,0.8691,rock_grid_rect_2,4,12,-1,-1,0.869,0.138888889,-0.397222222,1,0,0,1.3958,Peridotite_rect,7,1.396,0,1,0,1,0,1,,,,,,,,,,,,,
661ae83beeda96247e30c48b,TCN,2024-06-12_13h41.21.562,LearnStrategy,2023.2.3,Win32,60.60606061,5,1,3,0.136111111,0.013888889,1,0,0,0.6627,rock_grid_rect_2,7,06,-1,-1,0.663,-0.116666667,-0.234259259,1,0,0,1.1672,Basalt_rect,2,1.167,0,2,0,2,0,1,,,,,,,,,,,,,
661ae83beeda96247e30c48b,TCN,2024-06-12_13h41.21.562,LearnStrategy,2023.2.3,Win32,60.60606061,5,1,4,0.137962963,0.009259259,1,0,0,0.7463,rock_grid_rect_2,2,11,-1,-1,0.746,-0.365740741,-0.240740741,1,0,0,2.3445,Andesite_rect,1,2.345,0,3,0,3,0,1,,,,,,,,,,,,,
661ae83beeda96247e30c48b,TCN,2024-06-12_13h41.21.562,LearnStrategy,2023.2.3,Win32,60.60606061,5,1,5,0.147222222,0.001851852,1,0,0,0.6147,rock_grid_rect_2,1,05,-1,-1,0.615,-0.064814815,-0.269444444,1,0,0,1.2325,Basalt_rect,2,1.233,0,4,0,4,0,1,,,,,,,,,,,,,
661ae83beeda96247e30c48b,TCN,2024-06-12_13h41.21.562,LearnStrategy,2023.2.3,Win32,60.60606061,5,1,6,0.132407407,-0.003703704,1,0,0,0.6968,rock_grid_rect_2,2,06,-1,-1,0.697,-0.307407407,-0.407407407,1,0,0,1.4845,Obsidian_rect,5,1.484,0,5,0,5,0,1,,,,,,,,,,,,,
661ae83beeda96247e30c48b,TCN,2024-06-12_13h41.21.562,LearnStrategy,2023.2.3,Win32,60.60606061,5,1,7,0.124074074,-0.006481481,1,0,0,1.0837,rock_grid_rect_2,3,11,-1,-1,1.084,0.17962963,-0.396296296,1,0,0,1.0802,Peridotite_rect,7,1.08,0,6,0,6,0,1,,,,,,,,,,,,,
661ae83beeda96247e30c48b,TCN,2024-06-12_13h41.21.562,LearnStrategy,2023.2.3,Win32,60.60606061,5,1,8,0.134259259,-0.018518519,1,0,0,0.6002,rock_grid_rect_2,8,02,-1,-1,0.6,0.357407407,-0.411111111,1,0,0,1.13,Pumice_rect,8,1.13,1,7,0,7,0,1,,,,,,,,,,,,,
661ae83beeda96247e30c48b,TCN,2024-06-12_13h41.21.562,LearnStrategy,2023.2.3,Win32,60.60606061,5,1,9,0.115740741,0.002777778,1,0,0,0.817,rock_grid_rect_2,8,04,-1,-1,0.817,0.347222222,-0.421296296,1,0,0,1.1124,Pumice_rect,8,1.112,1,8,0,8,0,1,,,,,,,,,,,,,
661ae83beeda96247e30c48b,TCN,2024-06-12_13h41.21.562,LearnStrategy,2023.2.3,Win32,60.60606061,5,1,10,0.15,0.023148148,1,0,0,0.8137,rock_grid_rect_2,4,09,-1,-1,0.814,-0.388888889,-0.387037037,1,0,0,1.1988,Obsidian_rect,5,1.199,0,9,0,9,0,1,,,,,,,,,,,,,
661ae83beeda96247e30c48b,TCN,2024-06-12_13h41.21.562,LearnStrategy,2023.2.3,Win32,60.60606061,5,1,11,0.131481481,-0.00462963,1,0,0,0.7186,rock_grid_rect_2,6,09,-1,-1,0.719,0.15,-0.393518519,1,0,0,1.4634,Peridotite_rect,7,1.463,0,10,0,10,0,1,,,,,,,,,,,,,
661ae83beeda96247e30c48b,TCN,2024-06-12_13h41.21.562,LearnStrategy,2023.2.3,Win32,60.60606061,5,1,12,0.141666667,-0.002777778,1,0,0,0.6505,rock_grid_rect_2,6,07,-1,-1,0.65,-0.102777778,-0.393518519,1,0,0,1.6967,Pegmatite_rect,6,1.697,1,11,0,11,0,1,,,,,,,,,,,,,
661ae83beeda96247e30c48b,TCN,2024-06-12_13h41.21.562,LearnStrategy,2023.2.3,Win32,60.60606061,5,1,13,0.130555556,0,1,0,0,0.7168,rock_grid_rect_2,7,04,-1,-1,0.717,0.146296296,-0.400925926,1,0,0,1.3486,Peridotite_rect,7,1.349,1,12,0,12,0,1,,,,,,,,,,,,,
661ae83beeda96247e30c48b,TCN,2024-06-12_13h41.21.562,LearnStrategy,2023.2.3,Win32,60.60606061,5,1,14,0.148148148,0.001851852,1,0,0,0.7501,rock_grid_rect_2,5,09,-1,-1,0.75,-0.393518519,-0.397222222,1,0,0,1.0456,Obsidian_rect,5,1.046,1,13,0,13,0,1,,,,,,,,,,,,,
661ae83beeda96247e30c48b,TCN,2024-06-12_13h41.21.562,LearnStrategy,2023.2.3,Win32,60.60606061,5,1,15,0.134259259,0.010185185,1,0,0,0.7795,rock_grid_rect_2,1,16,-1,-1,0.78,0.133333333,-0.249074074,1,0,0,2.8674,Diorite_rect,3,2.867,0,14,0,14,0,1,,,,,,,,,,,,,
661ae83beeda96247e30c48b,TCN,2024-06-12_13h41.21.562,LearnStrategy,2023.2.3,Win32,60.60606061,5,1,16,0.122222222,0.017592593,1,0,0,0.5624,rock_grid_rect_2,5,05,-1,-1,0.562,-0.364814815,-0.417592593,1,0,0,1.0841,Obsidian_rect,5,1.084,1,15,0,15,0,1,,,,,,,,,,,,,
661ae83beeda96247e30c48b,TCN,2024-06-12_13h41.21.562,LearnStrategy,2023.2.3,Win32,60.60606061,5,2,1,,,,,,,,6,12,,,,,,,,,,,2,1.582,0,,,,,,-0.075,-0.261111111,1,0,0,1.5824,Basalt_rect,0,0,0,0,1,
661ae83beeda96247e30c48b,TCN,2024-06-12_13h41.21.562,LearnStrategy,2023.2.3,Win32,60.60606061,5,2,2,,,,,,,,6,08,,,,,,,,,,,7,2.531,0,,,,,,0.137962963,-0.396296296,1,0,0,2.5309,Peridotite_rect,1,0,1,0,1,
661ae83beeda96247e30c48b,TCN,2024-06-12_13h41.21.562,LearnStrategy,2023.2.3,Win32,60.60606061,5,2,3,,,,,,,,5,02,,,,,,,,,,,5,1.03,1,,,,,,-0.351851852,-0.408333333,1,0,0,1.0305,Obsidian_rect,2,0,2,0,1,
661ae83beeda96247e30c48b,TCN,2024-06-12_13h41.21.562,LearnStrategy,2023.2.3,Win32,60.60606061,5,2,4,,,,,,,,8,10,,,,,,,,,,,4,2,0,,,,,,0.391666667,-0.249074074,1,0,0,1.9996,Gabbro_rect,3,0,3,0,1,
661ae83beeda96247e30c48b,TCN,2024-06-12_13h41.21.562,LearnStrategy,2023.2.3,Win32,60.60606061,5,2,5,,,,,,,,7,13,,,,,,,,,,,7,1.965,1,,,,,,0.128703704,-0.390740741,1,0,0,1.9646,Peridotite_rect,4,0,4,0,1,
661ae83beeda96247e30c48b,TCN,2024-06-12_13h41.21.562,LearnStrategy,2023.2.3,Win32,60.60606061,5,2,6,,,,,,,,4,15,,,,,,,,,,,6,1.082,0,,,,,,-0.09537037,-0.389814815,1,0,0,1.0821,Pegmatite_rect,5,0,5,0,1,
661ae83beeda96247e30c48b,TCN,2024-06-12_13h41.21.562,LearnStrategy,2023.2.3,Win32,60.60606061,5,2,7,,,,,,,,3,16,,,,,,,,,,,2,1.014,0,,,,,,-0.091666667,-0.247222222,1,0,0,1.0145,Basalt_rect,6,0,6,0,1,
661ae83beeda96247e30c48b,TCN,2024-06-12_13h41.21.562,LearnStrategy,2023.2.3,Win32,60.60606061,5,2,8,,,,,,,,2,10,,,,,,,,,,,1,1.466,0,,,,,,-0.384259259,-0.231481481,1,0,0,1.4657,Andesite_rect,7,0,7,0,1,
661ae83beeda96247e30c48b,TCN,2024-06-12_13h41.21.562,LearnStrategy,2023.2.3,Win32,60.60606061,5,2,9,,,,,,,,3,09,,,,,,,,,,,7,1.415,0,,,,,,0.177777778,-0.408333333,1,0,0,1.4146,Peridotite_rect,8,0,8,0,1,
661ae83beeda96247e30c48b,TCN,2024-06-12_13h41.21.562,LearnStrategy,2023.2.3,Win32,60.60606061,5,2,10,,,,,,,,1,02,,,,,,,,,,,8,1.115,0,,,,,,0.353703704,-0.407407407,1,0,0,1.1152,Pumice_rect,9,0,9,0,1,
661ae83beeda96247e30c48b,TCN,2024-06-12_13h41.21.562,LearnStrategy,2023.2.3,Win32,60.60606061,5,2,11,,,,,,,,5,12,,,,,,,,,,,5,0.997,1,,,,,,-0.364814815,-0.37962963,1,0,0,0.9969,Obsidian_rect,10,0,10,0,1,
661ae83beeda96247e30c48b,TCN,2024-06-12_13h41.21.562,LearnStrategy,2023.2.3,Win32,60.60606061,5,2,12,,,,,,,,8,16,,,,,,,,,,,8,1.564,1,,,,,,0.375,-0.387037037,1,0,0,1.5642,Pumice_rect,11,0,11,0,1,
661ae83beeda96247e30c48b,TCN,2024-06-12_13h41.21.562,LearnStrategy,2023.2.3,Win32,60.60606061,5,2,13,,,,,,,,7,05,,,,,,,,,,,6,1.181,0,,,,,,-0.086111111,-0.383333333,1,0,0,1.1813,Pegmatite_rect,12,0,12,0,1,
661ae83beeda96247e30c48b,TCN,2024-06-12_13h41.21.562,LearnStrategy,2023.2.3,Win32,60.60606061,5,2,14,,,,,,,,4,13,,,,,,,,,,,1,1.385,0,,,,,,-0.321296296,-0.255555556,1,0,0,1.3847,Andesite_rect,13,0,13,0,1,
661ae83beeda96247e30c48b,TCN,2024-06-12_13h41.21.562,LearnStrategy,2023.2.3,Win32,60.60606061,5,2,15,,,,,,,,1,10,,,,,,,,,,,3,0.932,0,,,,,,0.038888889,-0.255555556,1,0,0,0.9322,Diorite_rect,14,0,14,0,1,
661ae83beeda96247e30c48b,TCN,2024-06-12_13h41.21.562,LearnStrategy,2023.2.3,Win32,60.60606061,5,2,16,,,,,,,,2,05,,,,,,,,,,,2,1.417,1,,,,,,-0.093518519,-0.233333333,1,0,0,1.4171,Basalt_rect,15,0,15,0,1,
661ae83beeda96247e30c48b,TCN,2024-06-12_13h41.21.562,LearnStrategy,2023.2.3,Win32,60.60606061,6,1,1,0.160185185,0.011111111,1,0,0,0.8314,rock_grid_rect_2,8,03,-1,-1,0.831,0.408333333,-0.399074074,1,0,0,1.2332,Pumice_rect,8,1.233,1,0,0,0,0,1,,,,,,,,,,,,,
661ae83beeda96247e30c48b,TCN,2024-06-12_13h41.21.562,LearnStrategy,2023.2.3,Win32,60.60606061,6,1,2,0.141666667,0.006481481,1,0,0,0.7652,rock_grid_rect_2,8,09,-1,-1,0.765,0.102777778,-0.252777778,1,0,0,1.666,Diorite_rect,3,1.666,0,1,0,1,0,1,,,,,,,,,,,,,
661ae83beeda96247e30c48b,TCN,2024-06-12_13h41.21.562,LearnStrategy,2023.2.3,Win32,60.60606061,6,1,3,0.143518519,0.003703704,1,0,0,0.6816,rock_grid_rect_2,2,16,-1,-1,0.682,-0.112962963,-0.400925926,1,0,0,1.0334,Pegmatite_rect,6,1.033,0,2,0,2,0,1,,,,,,,,,,,,,
661ae83beeda96247e30c48b,TCN,2024-06-12_13h41.21.562,LearnStrategy,2023.2.3,Win32,60.60606061,6,1,4,0.148148148,-0.000925926,1,0,0,0.7669,rock_grid_rect_2,4,14,-1,-1,0.767,0.137962963,-0.398148148,1,0,0,0.9297,Peridotite_rect,7,0.93,0,3,0,3,0,1,,,,,,,,,,,,,
661ae83beeda96247e30c48b,TCN,2024-06-12_13h41.21.562,LearnStrategy,2023.2.3,Win32,60.60606061,6,1,5,0.168518519,0.009259259,1,0,0,0.5176,rock_grid_rect_2,7,15,-1,-1,0.518,-0.060185185,-0.417592593,1,0,0,1.6493,Pegmatite_rect,6,1.649,0,4,0,4,0,1,,,,,,,,,,,,,
661ae83beeda96247e30c48b,TCN,2024-06-12_13h41.21.562,LearnStrategy,2023.2.3,Win32,60.60606061,6,1,6,0.15462963,-0.012962963,1,0,0,0.6507,rock_grid_rect_2,6,11,-1,-1,0.651,0.12962963,-0.403703704,1,0,0,1.1978,Peridotite_rect,7,1.198,0,5,0,5,0,1,,,,,,,,,,,,,
661ae83beeda96247e30c48b,TCN,2024-06-12_13h41.21.562,LearnStrategy,2023.2.3,Win32,60.60606061,6,1,7,0.083333333,-0.007407407,1,0,0,6.313,rock_grid_rect_2,3,02,-1,-1,6.313,0.40462963,-0.236111111,1,0,0,1.1007,Gabbro_rect,4,1.101,0,6,0,6,0,1,,,,,,,,,,,,,
661ae83beeda96247e30c48b,TCN,2024-06-12_13h41.21.562,LearnStrategy,2023.2.3,Win32,60.60606061,6,1,8,0.180555556,0.001851852,1,0,0,0.5505,rock_grid_rect_2,1,09,-1,-1,0.551,0.15,-0.246296296,1,0,0,1.1461,Diorite_rect,3,1.146,0,7,0,7,0,1,,,,,,,,,,,,,
661ae83beeda96247e30c48b,TCN,2024-06-12_13h41.21.562,LearnStrategy,2023.2.3,Win32,60.60606061,6,1,9,0.172222222,0.001851852,1,0,0,0.5675,rock_grid_rect_2,1,14,-1,-1,0.567,-0.306481481,-0.241666667,1,0,0,1.6797,Andesite_rect,1,1.68,1,8,0,8,0,1,,,,,,,,,,,,,
661ae83beeda96247e30c48b,TCN,2024-06-12_13h41.21.562,LearnStrategy,2023.2.3,Win32,60.60606061,6,1,10,0.117592593,-0.000925926,1,0,0,0.6128,rock_grid_rect_2,7,07,-1,-1,0.613,0.1,-0.402777778,1,0,0,1.1335,Peridotite_rect,7,1.133,1,9,0,9,0,1,,,,,,,,,,,,,
661ae83beeda96247e30c48b,TCN,2024-06-12_13h41.21.562,LearnStrategy,2023.2.3,Win32,60.60606061,6,1,11,0.114814815,-0.007407407,1,0,0,1.1319,rock_grid_rect_2,5,14,-1,-1,1.132,-0.368518519,-0.400925926,1,0,0,0.95,Obsidian_rect,5,0.95,1,10,0,10,0,1,,,,,,,,,,,,,
661ae83beeda96247e30c48b,TCN,2024-06-12_13h41.21.562,LearnStrategy,2023.2.3,Win32,60.60606061,6,1,12,0.121296296,0,1,0,0,0.7138,rock_grid_rect_2,5,11,-1,-1,0.714,-0.362962963,-0.396296296,1,0,0,0.9665,Obsidian_rect,5,0.966,1,11,0,11,0,1,,,,,,,,,,,,,
661ae83beeda96247e30c48b,TCN,2024-06-12_13h41.21.562,LearnStrategy,2023.2.3,Win32,60.60606061,6,1,13,0.130555556,0.00462963,1,0,0,0.6629,rock_grid_rect_2,6,13,-1,-1,0.663,0.372222222,-0.384259259,1,0,0,1.1669,Pumice_rect,8,1.167,0,12,0,12,0,1,,,,,,,,,,,,,
661ae83beeda96247e30c48b,TCN,2024-06-12_13h41.21.562,LearnStrategy,2023.2.3,Win32,60.60606061,6,1,14,0.186111111,0,1,0,0,0.5847,rock_grid_rect_2,2,12,-1,-1,0.585,-0.085185185,-0.246296296,1,0,0,1.2962,Basalt_rect,2,1.296,1,13,0,13,0,1,,,,,,,,,,,,,
661ae83beeda96247e30c48b,TCN,2024-06-12_13h41.21.562,LearnStrategy,2023.2.3,Win32,60.60606061,6,1,15,0.138888889,0.000925926,1,0,0,0.6152,rock_grid_rect_2,3,15,-1,-1,0.615,0.162037037,-0.397222222,1,0,0,1.1501,Peridotite_rect,7,1.15,0,14,0,14,0,1,,,,,,,,,,,,,
661ae83beeda96247e30c48b,TCN,2024-06-12_13h41.21.562,LearnStrategy,2023.2.3,Win32,60.60606061,6,1,16,0.155555556,-0.005555556,1,0,0,0.6176,rock_grid_rect_2,4,05,-1,-1,0.618,-0.315740741,-0.251851852,1,0,0,2.1957,Andesite_rect,1,2.196,0,15,0,15,0,1,,,,,,,,,,,,,
661ae83beeda96247e30c48b,TCN,2024-06-12_13h41.21.562,LearnStrategy,2023.2.3,Win32,60.60606061,6,2,1,,,,,,,,4,16,,,,,,,,,,,3,2.231,0,,,,,,0.165740741,-0.247222222,1,0,0,2.2312,Diorite_rect,0,0,0,0,1,
661ae83beeda96247e30c48b,TCN,2024-06-12_13h41.21.562,LearnStrategy,2023.2.3,Win32,60.60606061,6,2,2,,,,,,,,8,08,,,,,,,,,,,8,1.957,1,,,,,,0.361111111,-0.380555556,1,0,0,1.9574,Pumice_rect,1,0,1,0,1,
661ae83beeda96247e30c48b,TCN,2024-06-12_13h41.21.562,LearnStrategy,2023.2.3,Win32,60.60606061,6,2,3,,,,,,,,1,06,,,,,,,,,,,7,2.147,0,,,,,,0.148148148,-0.398148148,1,0,0,2.1467,Peridotite_rect,2,0,2,0,1,
661ae83beeda96247e30c48b,TCN,2024-06-12_13h41.21.562,LearnStrategy,2023.2.3,Win32,60.60606061,6,2,4,,,,,,,,7,14,,,,,,,,,,,8,1.499,0,,,,,,0.357407407,-0.396296296,1,0,0,1.4993,Pumice_rect,3,0,3,0,1,
661ae83beeda96247e30c48b,TCN,2024-06-12_13h41.21.562,LearnStrategy,2023.2.3,Win32,60.60606061,6,2,5,,,,,,,,6,10,,,,,,,,,,,6,3.682,1,,,,,,-0.1,-0.402777778,1,0,0,3.6818,Pegmatite_rect,4,0,4,0,1,
661ae83beeda96247e30c48b,TCN,2024-06-12_13h41.21.562,LearnStrategy,2023.2.3,Win32,60.60606061,6,2,6,,,,,,,,5,06,,,,,,,,,,,5,1.042,1,,,,,,-0.347222222,-0.40462963,1,0,0,1.0423,Obsidian_rect,5,0,5,0,1,
661ae83beeda96247e30c48b,TCN,2024-06-12_13h41.21.562,LearnStrategy,2023.2.3,Win32,60.60606061,6,2,7,,,,,,,,6,05,,,,,,,,,,,4,1.616,0,,,,,,0.340740741,-0.264814815,1,0,0,1.6162,Gabbro_rect,6,0,6,0,1,
661ae83beeda96247e30c48b,TCN,2024-06-12_13h41.21.562,LearnStrategy,2023.2.3,Win32,60.60606061,6,2,8,,,,,,,,2,08,,,,,,,,,,,6,1.265,0,,,,,,-0.074074074,-0.408333333,1,0,0,1.2652,Pegmatite_rect,7,0,7,0,1,
661ae83beeda96247e30c48b,TCN,2024-06-12_13h41.21.562,LearnStrategy,2023.2.3,Win32,60.60606061,6,2,9,,,,,,,,3,13,,,,,,,,,,,1,1.115,0,,,,,,-0.325,-0.246296296,1,0,0,1.1145,Andesite_rect,8,0,8,0,1,
661ae83beeda96247e30c48b,TCN,2024-06-12_13h41.21.562,LearnStrategy,2023.2.3,Win32,60.60606061,6,2,10,,,,,,,,2,14,,,,,,,,,,,7,1.265,0,,,,,,0.119444444,-0.401851852,1,0,0,1.2653,Peridotite_rect,9,0,9,0,1,
661ae83beeda96247e30c48b,TCN,2024-06-12_13h41.21.562,LearnStrategy,2023.2.3,Win32,60.60606061,6,2,11,,,,,,,,8,05,,,,,,,,,,,8,0.95,1,,,,,,0.401851852,-0.408333333,1,0,0,0.9497,Pumice_rect,10,0,10,0,1,
661ae83beeda96247e30c48b,TCN,2024-06-12_13h41.21.562,LearnStrategy,2023.2.3,Win32,60.60606061,6,2,12,,,,,,,,3,12,,,,,,,,,,,3,1.099,1,,,,,,0.167592593,-0.262962963,1,0,0,1.0987,Diorite_rect,11,0,11,0,1,
661ae83beeda96247e30c48b,TCN,2024-06-12_13h41.21.562,LearnStrategy,2023.2.3,Win32,60.60606061,6,2,13,,,,,,,,5,10,,,,,,,,,,,5,0.999,1,,,,,,-0.344444444,-0.391666667,1,0,0,0.999,Obsidian_rect,12,0,12,0,1,
661ae83beeda96247e30c48b,TCN,2024-06-12_13h41.21.562,LearnStrategy,2023.2.3,Win32,60.60606061,6,2,14,,,,,,,,1,04,,,,,,,,,,,6,1.114,0,,,,,,-0.10462963,-0.399074074,1,0,0,1.1143,Pegmatite_rect,13,0,13,0,1,
661ae83beeda96247e30c48b,TCN,2024-06-12_13h41.21.562,LearnStrategy,2023.2.3,Win32,60.60606061,6,2,15,,,,,,,,7,12,,,,,,,,,,,1,1.498,0,,,,,,-0.312962963,-0.242592593,1,0,0,1.4978,Andesite_rect,14,0,14,0,1,
661ae83beeda96247e30c48b,TCN,2024-06-12_13h41.21.562,LearnStrategy,2023.2.3,Win32,60.60606061,6,2,16,,,,,,,,4,03,,,,,,,,,,,4,1.498,1,,,,,,0.347222222,-0.25,1,0,0,1.4984,Gabbro_rect,15,0,15,0,1,
661ae83beeda96247e30c48b,TCN,2024-06-12_13h41.21.562,LearnStrategy,2023.2.3,Win32,60.60606061,7,1,1,0.158333333,-0.012037037,1,0,0,0.982,rock_grid_rect_2,2,09,-1,-1,0.982,0.097222222,-0.269444444,1,0,0,2.0501,Diorite_rect,3,2.05,0,0,0,0,0,1,,,,,,,,,,,,,
661ae83beeda96247e30c48b,TCN,2024-06-12_13h41.21.562,LearnStrategy,2023.2.3,Win32,60.60606061,7,1,2,0.140740741,0.001851852,1,0,0,0.6957,rock_grid_rect_2,7,06,-1,-1,0.696,-0.086111111,-0.406481481,1,0,0,1.0329,Pegmatite_rect,6,1.033,0,1,0,1,0,1,,,,,,,,,,,,,
661ae83beeda96247e30c48b,TCN,2024-06-12_13h41.21.562,LearnStrategy,2023.2.3,Win32,60.60606061,7,1,3,0.114814815,-0.005555556,1,0,0,0.6008,rock_grid_rect_2,7,15,-1,-1,0.601,0.107407407,-0.406481481,1,0,0,0.8456,Peridotite_rect,7,0.846,1,2,0,2,0,1,,,,,,,,,,,,,
661ae83beeda96247e30c48b,TCN,2024-06-12_13h41.21.562,LearnStrategy,2023.2.3,Win32,60.60606061,7,1,4,0.116666667,-0.003703704,1,0,0,0.6628,rock_grid_rect_2,8,14,-1,-1,0.663,0.364814815,-0.388888889,1,0,0,1.0433,Pumice_rect,8,1.043,1,3,0,3,0,1,,,,,,,,,,,,,
661ae83beeda96247e30c48b,TCN,2024-06-12_13h41.21.562,LearnStrategy,2023.2.3,Win32,60.60606061,7,1,5,0.113888889,0.009259259,1,0,0,0.7648,rock_grid_rect_2,3,11,-1,-1,0.765,-0.324074074,-0.25,1,0,0,1.2329,Andesite_rect,1,1.233,0,4,0,4,0,1,,,,,,,,,,,,,
661ae83beeda96247e30c48b,TCN,2024-06-12_13h41.21.562,LearnStrategy,2023.2.3,Win32,60.60606061,7,1,6,0.105555556,0.006481481,1,0,0,0.5819,rock_grid_rect_2,3,02,-1,-1,0.582,-0.336111111,-0.242592593,1,0,0,0.9172,Andesite_rect,1,0.917,0,5,0,5,0,1,,,,,,,,,,,,,
661ae83beeda96247e30c48b,TCN,2024-06-12_13h41.21.562,LearnStrategy,2023.2.3,Win32,60.60606061,7,1,7,0.087962963,0,1,0,0,0.6178,rock_grid_rect_2,4,05,-1,-1,0.618,-0.093518519,-0.257407407,1,0,0,1.4289,Basalt_rect,2,1.429,0,6,0,6,0,1,,,,,,,,,,,,,
661ae83beeda96247e30c48b,TCN,2024-06-12_13h41.21.562,LearnStrategy,2023.2.3,Win32,60.60606061,7,1,8,0.105555556,-0.005555556,1,0,0,0.6189,rock_grid_rect_2,6,03,-1,-1,0.619,0.375,-0.255555556,1,0,0,1.4463,Gabbro_rect,4,1.446,0,7,0,7,0,1,,,,,,,,,,,,,
661ae83beeda96247e30c48b,TCN,2024-06-12_13h41.21.562,LearnStrategy,2023.2.3,Win32,60.60606061,7,1,9,0.131481481,0.000925926,1,0,0,1.0488,rock_grid_rect_2,2,16,-1,-1,1.049,0.312962963,-0.237962963,1,0,0,1.3333,Gabbro_rect,4,1.333,0,8,0,8,0,1,,,,,,,,,,,,,
661ae83beeda96247e30c48b,TCN,2024-06-12_13h41.21.562,LearnStrategy,2023.2.3,Win32,60.60606061,7,1,10,0.093518519,-0.02037037,1,0,0,0.4812,rock_grid_rect_2,1,09,-1,-1,0.481,0.32037037,-0.230555556,1,0,0,1.2991,Gabbro_rect,4,1.299,0,9,0,9,0,1,,,,,,,,,,,,,
661ae83beeda96247e30c48b,TCN,2024-06-12_13h41.21.562,LearnStrategy,2023.2.3,Win32,60.60606061,7,1,11,0.12962963,-0.008333333,1,0,0,0.5629,rock_grid_rect_2,5,08,-1,-1,0.563,-0.368518519,-0.40462963,1,0,0,1.0169,Obsidian_rect,5,1.017,1,10,0,10,0,1,,,,,,,,,,,,,
661ae83beeda96247e30c48b,TCN,2024-06-12_13h41.21.562,LearnStrategy,2023.2.3,Win32,60.60606061,7,1,12,0.141666667,0.00462963,1,0,0,0.6299,rock_grid_rect_2,5,14,-1,-1,0.63,-0.35462963,-0.402777778,1,0,0,1.0512,Obsidian_rect,5,1.051,1,11,0,11,0,1,,,,,,,,,,,,,
661ae83beeda96247e30c48b,TCN,2024-06-12_13h41.21.562,LearnStrategy,2023.2.3,Win32,60.60606061,7,1,13,0.127777778,0.000925926,1,0,0,0.849,rock_grid_rect_2,1,01,-1,-1,0.849,0.385185185,-0.250925926,1,0,0,1.6663,Gabbro_rect,4,1.666,0,12,0,12,0,1,,,,,,,,,,,,,
661ae83beeda96247e30c48b,TCN,2024-06-12_13h41.21.562,LearnStrategy,2023.2.3,Win32,60.60606061,7,1,14,0.117592593,-0.003703704,1,0,0,0.5133,rock_grid_rect_2,8,02,-1,-1,0.513,0.360185185,-0.238888889,1,0,0,1.3668,Gabbro_rect,4,1.367,0,13,0,13,0,1,,,,,,,,,,,,,
661ae83beeda96247e30c48b,TCN,2024-06-12_13h41.21.562,LearnStrategy,2023.2.3,Win32,60.60606061,7,1,15,0.138888889,-0.00462963,1,0,0,0.5843,rock_grid_rect_2,6,07,-1,-1,0.584,0.121296296,-0.233333333,1,0,0,1.1802,Diorite_rect,3,1.18,0,14,0,14,0,1,,,,,,,,,,,,,
661ae83beeda96247e30c48b,TCN,2024-06-12_13h41.21.562,LearnStrategy,2023.2.3,Win32,60.60606061,7,1,16,0.130555556,-0.013888889,1,0,0,0.5025,rock_grid_rect_2,4,09,-1,-1,0.503,0.338888889,-0.259259259,1,0,0,1.7291,Gabbro_rect,4,1.729,1,15,0,15,0,1,,,,,,,,,,,,,
661ae83beeda96247e30c48b,TCN,2024-06-12_13h41.21.562,LearnStrategy,2023.2.3,Win32,60.60606061,7,2,1,,,,,,,,1,06,,,,,,,,,,,3,1.232,0,,,,,,0.083333333,-0.242592593,1,0,0,1.2316,Diorite_rect,0,0,0,0,1,
661ae83beeda96247e30c48b,TCN,2024-06-12_13h41.21.562,LearnStrategy,2023.2.3,Win32,60.60606061,7,2,2,,,,,,,,5,12,,,,,,,,,,,5,1.082,1,,,,,,-0.346296296,-0.400925926,1,0,0,1.082,Obsidian_rect,1,0,1,0,1,
661ae83beeda96247e30c48b,TCN,2024-06-12_13h41.21.562,LearnStrategy,2023.2.3,Win32,60.60606061,7,2,3,,,,,,,,8,05,,,,,,,,,,,8,0.816,1,,,,,,0.375925926,-0.396296296,1,0,0,0.8157,Pumice_rect,2,0,2,0,1,
661ae83beeda96247e30c48b,TCN,2024-06-12_13h41.21.562,LearnStrategy,2023.2.3,Win32,60.60606061,7,2,4,,,,,,,,1,03,,,,,,,,,,,1,1.465,1,,,,,,-0.319444444,-0.237037037,1,0,0,1.4645,Andesite_rect,3,0,3,0,1,
661ae83beeda96247e30c48b,TCN,2024-06-12_13h41.21.562,LearnStrategy,2023.2.3,Win32,60.60606061,7,2,5,,,,,,,,4,03,,,,,,,,,,,6,1.014,0,,,,,,-0.061111111,-0.393518519,1,0,0,1.014,Pegmatite_rect,4,0,4,0,1,
661ae83beeda96247e30c48b,TCN,2024-06-12_13h41.21.562,LearnStrategy,2023.2.3,Win32,60.60606061,7,2,6,,,,,,,,3,13,,,,,,,,,,,7,1.781,0,,,,,,0.138888889,-0.397222222,1,0,0,1.781,Peridotite_rect,5,0,5,0,1,
661ae83beeda96247e30c48b,TCN,2024-06-12_13h41.21.562,LearnStrategy,2023.2.3,Win32,60.60606061,7,2,7,,,,,,,,5,10,,,,,,,,,,,5,1.132,1,,,,,,-0.328703704,-0.389814815,1,0,0,1.1323,Obsidian_rect,6,0,6,0,1,
661ae83beeda96247e30c48b,TCN,2024-06-12_13h41.21.562,LearnStrategy,2023.2.3,Win32,60.60606061,7,2,8,,,,,,,,3,16,,,,,,,,,,,4,0.998,0,,,,,,0.363888889,-0.269444444,1,0,0,0.9978,Gabbro_rect,7,0,7,0,1,
661ae83beeda96247e30c48b,TCN,2024-06-12_13h41.21.562,LearnStrategy,2023.2.3,Win32,60.60606061,7,2,9,,,,,,,,2,08,,,,,,,,,,,4,1.248,0,,,,,,0.374074074,-0.246296296,1,0,0,1.2477,Gabbro_rect,8,0,8,0,1,
661ae83beeda96247e30c48b,TCN,2024-06-12_13h41.21.562,LearnStrategy,2023.2.3,Win32,60.60606061,7,2,10,,,,,,,,2,01,,,,,,,,,,,2,1.232,1,,,,,,-0.068518519,-0.239814815,1,0,0,1.2317,Basalt_rect,9,0,9,0,1,
661ae83beeda96247e30c48b,TCN,2024-06-12_13h41.21.562,LearnStrategy,2023.2.3,Win32,60.60606061,7,2,11,,,,,,,,7,12,,,,,,,,,,,6,1.098,0,,,,,,-0.064814815,-0.402777778,1,0,0,1.0977,Pegmatite_rect,10,0,10,0,1,
661ae83beeda96247e30c48b,TCN,2024-06-12_13h41.21.562,LearnStrategy,2023.2.3,Win32,60.60606061,7,2,12,,,,,,,,4,11,,,,,,,,,,,7,0.903,0,,,,,,0.161111111,-0.378703704,1,0,0,0.9029,Peridotite_rect,11,0,11,0,1,
661ae83beeda96247e30c48b,TCN,2024-06-12_13h41.21.562,LearnStrategy,2023.2.3,Win32,60.60606061,7,2,13,,,,,,,,7,13,,,,,,,,,,,3,1.333,0,,,,,,0.138888889,-0.236111111,1,0,0,1.3331,Diorite_rect,12,0,12,0,1,
661ae83beeda96247e30c48b,TCN,2024-06-12_13h41.21.562,LearnStrategy,2023.2.3,Win32,60.60606061,7,2,14,,,,,,,,6,08,,,,,,,,,,,6,1.166,1,,,,,,-0.112037037,-0.385185185,1,0,0,1.1659,Pegmatite_rect,13,0,13,0,1,
661ae83beeda96247e30c48b,TCN,2024-06-12_13h41.21.562,LearnStrategy,2023.2.3,Win32,60.60606061,7,2,15,,,,,,,,6,12,,,,,,,,,,,7,1.147,0,,,,,,0.182407407,-0.397222222,1,0,0,1.1474,Peridotite_rect,14,0,14,0,1,
661ae83beeda96247e30c48b,TCN,2024-06-12_13h41.21.562,LearnStrategy,2023.2.3,Win32,60.60606061,7,2,16,,,,,,,,8,08,,,,,,,,,,,8,1.965,1,,,,,,0.382407407,-0.40462963,1,0,0,1.9651,Pumice_rect,15,0,15,0,1,
661ae83beeda96247e30c48b,TCN,2024-06-12_13h41.21.562,LearnStrategy,2023.2.3,Win32,60.60606061,8,1,1,0.173148148,0.010185185,1,0,0,0.6648,rock_grid_rect_2,6,13,-1,-1,0.665,0.317592593,-0.387962963,1,0,0,2.7179,Pumice_rect,8,2.718,0,0,0,0,0,1,,,,,,,,,,,,,
661ae83beeda96247e30c48b,TCN,2024-06-12_13h41.21.562,LearnStrategy,2023.2.3,Win32,60.60606061,8,1,2,0.166666667,0,1,0,0,0.6983,rock_grid_rect_2,6,06,-1,-1,0.698,-0.067592593,-0.385185185,1,0,0,1.0332,Pegmatite_rect,6,1.033,1,1,0,1,0,1,,,,,,,,,,,,,
661ae83beeda96247e30c48b,TCN,2024-06-12_13h41.21.562,LearnStrategy,2023.2.3,Win32,60.60606061,8,1,3,0.166666667,0.005555556,1,0,0,0.7023,rock_grid_rect_2,7,10,-1,-1,0.702,0.146296296,-0.396296296,1,0,0,2.2286,Peridotite_rect,7,2.229,1,2,0,2,0,1,,,,,,,,,,,,,
661ae83beeda96247e30c48b,TCN,2024-06-12_13h41.21.562,LearnStrategy,2023.2.3,Win32,60.60606061,8,1,4,0.157407407,0.002777778,1,0,0,0.6339,rock_grid_rect_2,8,03,-1,-1,0.634,0.375925926,-0.418518519,1,0,0,1.079,Pumice_rect,8,1.079,1,3,0,3,0,1,,,,,,,,,,,,,
661ae83beeda96247e30c48b,TCN,2024-06-12_13h41.21.562,LearnStrategy,2023.2.3,Win32,60.60606061,8,1,5,0.130555556,0.003703704,1,0,0,0.784,rock_grid_rect_2,5,09,-1,-1,0.784,-0.368518519,-0.37962963,1,0,0,0.8961,Obsidian_rect,5,0.896,1,4,0,4,0,1,,,,,,,,,,,,,
661ae83beeda96247e30c48b,TCN,2024-06-12_13h41.21.562,LearnStrategy,2023.2.3,Win32,60.60606061,8,1,6,0.151851852,-0.001851852,1,0,0,0.7675,rock_grid_rect_2,2,11,-1,-1,0.768,0.351851852,-0.258333333,1,0,0,1.1472,Gabbro_rect,4,1.147,0,5,0,5,0,1,,,,,,,,,,,,,
661ae83beeda96247e30c48b,TCN,2024-06-12_13h41.21.562,LearnStrategy,2023.2.3,Win32,60.60606061,8,1,7,0.127777778,-0.006481481,1,0,0,1.1007,rock_grid_rect_2,4,12,-1,-1,1.101,-0.389814815,-0.258333333,1,0,0,0.9462,Andesite_rect,1,0.946,0,6,0,6,0,1,,,,,,,,,,,,,
661ae83beeda96247e30c48b,TCN,2024-06-12_13h41.21.562,LearnStrategy,2023.2.3,Win32,60.60606061,8,1,8,0.148148148,0.006481481,1,0,0,0.5149,rock_grid_rect_2,5,04,-1,-1,0.515,-0.367592593,-0.400925926,1,0,0,1.0329,Obsidian_rect,5,1.033,1,7,0,7,0,1,,,,,,,,,,,,,
661ae83beeda96247e30c48b,TCN,2024-06-12_13h41.21.562,LearnStrategy,2023.2.3,Win32,60.60606061,8,1,9,0.139814815,0.012962963,1,0,0,0.7292,rock_grid_rect_2,3,06,-1,-1,0.729,0.372222222,-0.231481481,1,0,0,1.3336,Gabbro_rect,4,1.334,0,8,0,8,0,1,,,,,,,,,,,,,
661ae83beeda96247e30c48b,TCN,2024-06-12_13h41.21.562,LearnStrategy,2023.2.3,Win32,60.60606061,8,1,10,0.14537037,-0.002777778,1,0,0,0.5198,rock_grid_rect_2,4,01,-1,-1,0.52,0.353703704,-0.256481481,1,0,0,0.8965,Gabbro_rect,4,0.897,1,9,0,9,0,1,,,,,,,,,,,,,
661ae83beeda96247e30c48b,TCN,2024-06-12_13h41.21.562,LearnStrategy,2023.2.3,Win32,60.60606061,8,1,11,0.15,0.015740741,1,0,0,0.6317,rock_grid_rect_2,3,14,-1,-1,0.632,-0.074074074,-0.386111111,1,0,0,1.5322,Pegmatite_rect,6,1.532,0,10,0,10,0,1,,,,,,,,,,,,,
661ae83beeda96247e30c48b,TCN,2024-06-12_13h41.21.562,LearnStrategy,2023.2.3,Win32,60.60606061,8,1,12,0.106481481,-0.00462963,1,0,0,0.4797,rock_grid_rect_2,2,04,-1,-1,0.48,0.397222222,-0.244444444,1,0,0,2.501,Gabbro_rect,4,2.501,0,11,0,11,0,1,,,,,,,,,,,,,
661ae83beeda96247e30c48b,TCN,2024-06-12_13h41.21.562,LearnStrategy,2023.2.3,Win32,60.60606061,8,1,13,0.140740741,-0.012962963,1,0,0,1.0346,rock_grid_rect_2,7,07,-1,-1,1.035,0.15462963,-0.411111111,1,0,0,0.8627,Peridotite_rect,7,0.863,1,12,0,12,0,1,,,,,,,,,,,,,
661ae83beeda96247e30c48b,TCN,2024-06-12_13h41.21.562,LearnStrategy,2023.2.3,Win32,60.60606061,8,1,14,0.151851852,-0.012037037,1,0,0,0.5676,rock_grid_rect_2,1,14,-1,-1,0.568,0.156481481,-0.39537037,1,0,0,1.6644,Peridotite_rect,7,1.664,0,13,0,13,0,1,,,,,,,,,,,,,
661ae83beeda96247e30c48b,TCN,2024-06-12_13h41.21.562,LearnStrategy,2023.2.3,Win32,60.60606061,8,1,15,0.152777778,-0.000925926,1,0,0,0.5298,rock_grid_rect_2,8,15,-1,-1,0.53,0.387962963,-0.406481481,1,0,0,1.0159,Pumice_rect,8,1.016,1,14,0,14,0,1,,,,,,,,,,,,,
661ae83beeda96247e30c48b,TCN,2024-06-12_13h41.21.562,LearnStrategy,2023.2.3,Win32,60.60606061,8,1,16,0.183333333,0.001851852,1,0,0,0.5985,rock_grid_rect_2,1,16,-1,-1,0.599,-0.315740741,-0.235185185,1,0,0,1.7836,Andesite_rect,1,1.784,1,15,0,15,0,1,,,,,,,,,,,,,
661ae83beeda96247e30c48b,TCN,2024-06-12_13h41.21.562,LearnStrategy,2023.2.3,Win32,60.60606061,8,2,1,,,,,,,,3,12,,,,,,,,,,,3,1.081,1,,,,,,0.163888889,-0.24537037,1,0,0,1.0808,Diorite_rect,0,0,0,0,1,
661ae83beeda96247e30c48b,TCN,2024-06-12_13h41.21.562,LearnStrategy,2023.2.3,Win32,60.60606061,8,2,2,,,,,,,,5,02,,,,,,,,,,,5,0.982,1,,,,,,-0.350925926,-0.4,1,0,0,0.9819,Obsidian_rect,1,0,1,0,1,
661ae83beeda96247e30c48b,TCN,2024-06-12_13h41.21.562,LearnStrategy,2023.2.3,Win32,60.60606061,8,2,3,,,,,,,,8,13,,,,,,,,,,,8,0.983,1,,,,,,0.368518519,-0.4,1,0,0,0.9831,Pumice_rect,2,0,2,0,1,
661ae83beeda96247e30c48b,TCN,2024-06-12_13h41.21.562,LearnStrategy,2023.2.3,Win32,60.60606061,8,2,4,,,,,,,,3,08,,,,,,,,,,,1,1.298,0,,,,,,-0.325,-0.237037037,1,0,0,1.2978,Andesite_rect,3,0,3,0,1,
661ae83beeda96247e30c48b,TCN,2024-06-12_13h41.21.562,LearnStrategy,2023.2.3,Win32,60.60606061,8,2,5,,,,,,,,5,07,,,,,,,,,,,5,1.483,1,,,,,,-0.356481481,-0.387962963,1,0,0,1.4833,Obsidian_rect,4,0,4,0,1,
661ae83beeda96247e30c48b,TCN,2024-06-12_13h41.21.562,LearnStrategy,2023.2.3,Win32,60.60606061,8,2,6,,,,,,,,7,08,,,,,,,,,,,4,1.797,0,,,,,,0.389814815,-0.25,1,0,0,1.7975,Gabbro_rect,5,0,5,0,1,
661ae83beeda96247e30c48b,TCN,2024-06-12_13h41.21.562,LearnStrategy,2023.2.3,Win32,60.60606061,8,2,7,,,,,,,,6,15,,,,,,,,,,,7,1.049,0,,,,,,0.09537037,-0.406481481,1,0,0,1.0494,Peridotite_rect,6,0,6,0,1,
661ae83beeda96247e30c48b,TCN,2024-06-12_13h41.21.562,LearnStrategy,2023.2.3,Win32,60.60606061,8,2,8,,,,,,,,6,16,,,,,,,,,,,2,1.331,0,,,,,,-0.064814815,-0.258333333,1,0,0,1.3312,Basalt_rect,7,0,7,0,1,
661ae83beeda96247e30c48b,TCN,2024-06-12_13h41.21.562,LearnStrategy,2023.2.3,Win32,60.60606061,8,2,9,,,,,,,,8,10,,,,,,,,,,,3,1.283,0,,,,,,0.158333333,-0.249074074,1,0,0,1.2832,Diorite_rect,8,0,8,0,1,
661ae83beeda96247e30c48b,TCN,2024-06-12_13h41.21.562,LearnStrategy,2023.2.3,Win32,60.60606061,8,2,10,,,,,,,,1,02,,,,,,,,,,,6,1.031,0,,,,,,-0.087037037,-0.400925926,1,0,0,1.0306,Pegmatite_rect,9,0,9,0,1,
661ae83beeda96247e30c48b,TCN,2024-06-12_13h41.21.562,LearnStrategy,2023.2.3,Win32,60.60606061,8,2,11,,,,,,,,7,02,,,,,,,,,,,7,3.333,1,,,,,,0.185185185,-0.399074074,1,0,0,3.3331,Peridotite_rect,10,0,10,0,1,
661ae83beeda96247e30c48b,TCN,2024-06-12_13h41.21.562,LearnStrategy,2023.2.3,Win32,60.60606061,8,2,12,,,,,,,,2,02,,,,,,,,,,,4,1.825,0,,,,,,0.355555556,-0.230555556,1,0,0,1.8249,Gabbro_rect,11,0,11,0,1,
661ae83beeda96247e30c48b,TCN,2024-06-12_13h41.21.562,LearnStrategy,2023.2.3,Win32,60.60606061,8,2,13,,,,,,,,4,13,,,,,,,,,,,6,1.248,0,,,,,,-0.064814815,-0.390740741,1,0,0,1.2482,Pegmatite_rect,12,0,12,0,1,
661ae83beeda96247e30c48b,TCN,2024-06-12_13h41.21.562,LearnStrategy,2023.2.3,Win32,60.60606061,8,2,14,,,,,,,,2,05,,,,,,,,,,,7,0.914,0,,,,,,0.131481481,-0.382407407,1,0,0,0.9144,Peridotite_rect,13,0,13,0,1,
661ae83beeda96247e30c48b,TCN,2024-06-12_13h41.21.562,LearnStrategy,2023.2.3,Win32,60.60606061,8,2,15,,,,,,,,4,08,,,,,,,,,,,2,1.964,0,,,,,,-0.100925926,-0.27037037,1,0,0,1.9644,Basalt_rect,14,0,14,0,1,
661ae83beeda96247e30c48b,TCN,2024-06-12_13h41.21.562,LearnStrategy,2023.2.3,Win32,60.60606061,8,2,16,,,,,,,,1,07,,,,,,,,,,,4,1.926,0,,,,,,0.349074074,-0.265740741,1,0,0,1.9257,Gabbro_rect,15,0,15,0,1,
661ae83beeda96247e30c48b,TCN,2024-06-12_13h41.21.562,LearnStrategy,2023.2.3,Win32,60.60606061,9,1,1,0.15462963,0.008333333,1,0,0,2.9025,rock_grid_rect_2,1,05,-1,-1,2.903,0.181481481,-0.237962963,1,0,0,1.1459,Diorite_rect,3,1.146,0,0,0,0,0,1,,,,,,,,,,,,,
661ae83beeda96247e30c48b,TCN,2024-06-12_13h41.21.562,LearnStrategy,2023.2.3,Win32,60.60606061,9,1,2,0.173148148,0,1,0,0,0.8132,rock_grid_rect_2,4,10,-1,-1,0.813,0.393518519,-0.25462963,1,0,0,1.1662,Gabbro_rect,4,1.166,1,1,0,1,0,1,,,,,,,,,,,,,
661ae83beeda96247e30c48b,TCN,2024-06-12_13h41.21.562,LearnStrategy,2023.2.3,Win32,60.60606061,9,1,3,0.180555556,-0.00462963,1,0,0,0.5983,rock_grid_rect_2,4,14,-1,-1,0.598,0.151851852,-0.386111111,1,0,0,0.9169,Peridotite_rect,7,0.917,0,2,0,2,0,1,,,,,,,,,,,,,
661ae83beeda96247e30c48b,TCN,2024-06-12_13h41.21.562,LearnStrategy,2023.2.3,Win32,60.60606061,9,1,4,0.137037037,-0.003703704,1,0,0,1.0464,rock_grid_rect_2,3,10,-1,-1,1.046,-0.087962963,-0.258333333,1,0,0,2.3166,Basalt_rect,2,2.317,0,3,0,3,0,1,,,,,,,,,,,,,
661ae83beeda96247e30c48b,TCN,2024-06-12_13h41.21.562,LearnStrategy,2023.2.3,Win32,60.60606061,9,1,5,0.147222222,-0.008333333,1,0,0,0.5653,rock_grid_rect_2,8,09,-1,-1,0.565,0.334259259,-0.391666667,1,0,0,1.151,Pumice_rect,8,1.151,1,4,0,4,0,1,,,,,,,,,,,,,
661ae83beeda96247e30c48b,TCN,2024-06-12_13h41.21.562,LearnStrategy,2023.2.3,Win32,60.60606061,9,1,6,0.155555556,-0.007407407,1,0,0,0.4961,rock_grid_rect_2,2,06,-1,-1,0.496,0.162037037,-0.258333333,1,0,0,1.0509,Diorite_rect,3,1.051,0,5,0,5,0,1,,,,,,,,,,,,,
661ae83beeda96247e30c48b,TCN,2024-06-12_13h41.21.562,LearnStrategy,2023.2.3,Win32,60.60606061,9,1,7,0.169444444,0.002777778,1,0,0,0.5154,rock_grid_rect_2,5,11,-1,-1,0.515,-0.340740741,-0.405555556,1,0,0,1.0673,Obsidian_rect,5,1.067,1,6,0,6,0,1,,,,,,,,,,,,,
661ae83beeda96247e30c48b,TCN,2024-06-12_13h41.21.562,LearnStrategy,2023.2.3,Win32,60.60606061,9,1,8,0.134259259,-0.002777778,1,0,0,0.6799,rock_grid_rect_2,3,15,-1,-1,0.68,0.153703704,-0.405555556,1,0,0,1.7204,Peridotite_rect,7,1.72,0,7,0,7,0,1,,,,,,,,,,,,,
661ae83beeda96247e30c48b,TCN,2024-06-12_13h41.21.562,LearnStrategy,2023.2.3,Win32,60.60606061,9,1,9,0.158333333,-0.016666667,1,0,0,0.73,rock_grid_rect_2,7,16,-1,-1,0.73,-0.435185185,-0.269444444,1,0,0,2.9834,Andesite_rect,1,2.983,0,8,0,8,0,1,,,,,,,,,,,,,
661ae83beeda96247e30c48b,TCN,2024-06-12_13h41.21.562,LearnStrategy,2023.2.3,Win32,60.60606061,9,1,10,0.163888889,0.002777778,1,0,0,0.5634,rock_grid_rect_2,5,05,-1,-1,0.563,-0.37962963,-0.393518519,1,0,0,0.9274,Obsidian_rect,5,0.927,1,9,0,9,0,1,,,,,,,,,,,,,
661ae83beeda96247e30c48b,TCN,2024-06-12_13h41.21.562,LearnStrategy,2023.2.3,Win32,60.60606061,9,1,11,0.168518519,0.006481481,1,0,0,0.6653,rock_grid_rect_2,1,11,-1,-1,0.665,0.365740741,-0.267592593,1,0,0,2.25,Gabbro_rect,4,2.25,0,10,0,10,0,1,,,,,,,,,,,,,
661ae83beeda96247e30c48b,TCN,2024-06-12_13h41.21.562,LearnStrategy,2023.2.3,Win32,60.60606061,9,1,12,0.146296296,-0.003703704,1,0,0,0.5299,rock_grid_rect_2,2,12,-1,-1,0.53,0.342592593,-0.392592593,1,0,0,1.0666,Pumice_rect,8,1.067,0,11,0,11,0,1,,,,,,,,,,,,,
661ae83beeda96247e30c48b,TCN,2024-06-12_13h41.21.562,LearnStrategy,2023.2.3,Win32,60.60606061,9,1,13,0.176851852,0.011111111,1,0,0,0.5194,rock_grid_rect_2,6,09,-1,-1,0.519,-0.111111111,-0.380555556,1,0,0,1.2627,Pegmatite_rect,6,1.263,1,12,0,12,0,1,,,,,,,,,,,,,
661ae83beeda96247e30c48b,TCN,2024-06-12_13h41.21.562,LearnStrategy,2023.2.3,Win32,60.60606061,9,1,14,0.147222222,0.005555556,1,0,0,0.519,rock_grid_rect_2,6,11,-1,-1,0.519,0.115740741,-0.40462963,1,0,0,1.0128,Peridotite_rect,7,1.013,0,13,0,13,0,1,,,,,,,,,,,,,
661ae83beeda96247e30c48b,TCN,2024-06-12_13h41.21.562,LearnStrategy,2023.2.3,Win32,60.60606061,9,1,15,0.174074074,0.002777778,1,0,0,0.5301,rock_grid_rect_2,7,04,-1,-1,0.53,-0.077777778,-0.409259259,1,0,0,1.6674,Pegmatite_rect,6,1.667,0,14,0,14,0,1,,,,,,,,,,,,,
661ae83beeda96247e30c48b,TCN,2024-06-12_13h41.21.562,LearnStrategy,2023.2.3,Win32,60.60606061,9,1,16,0.183333333,0,1,0,0,0.4816,rock_grid_rect_2,8,04,-1,-1,0.482,0.389814815,-0.415740741,1,0,0,1.0674,Pumice_rect,8,1.067,1,15,0,15,0,1,,,,,,,,,,,,,
661ae83beeda96247e30c48b,TCN,2024-06-12_13h41.21.562,LearnStrategy,2023.2.3,Win32,60.60606061,9,2,1,,,,,,,,6,05,,,,,,,,,,,7,3.318,0,,,,,,0.142592593,-0.412037037,1,0,0,3.3178,Peridotite_rect,0,0,0,0,1,
661ae83beeda96247e30c48b,TCN,2024-06-12_13h41.21.562,LearnStrategy,2023.2.3,Win32,60.60606061,9,2,2,,,,,,,,7,05,,,,,,,,,,,6,1.178,0,,,,,,-0.066666667,-0.405555556,1,0,0,1.1783,Pegmatite_rect,1,0,1,0,1,
661ae83beeda96247e30c48b,TCN,2024-06-12_13h41.21.562,LearnStrategy,2023.2.3,Win32,60.60606061,9,2,3,,,,,,,,4,16,,,,,,,,,,,2,4.381,0,,,,,,-0.078703704,-0.262962963,1,0,0,4.381,Basalt_rect,2,0,2,0,1,
661ae83beeda96247e30c48b,TCN,2024-06-12_13h41.21.562,LearnStrategy,2023.2.3,Win32,60.60606061,9,2,4,,,,,,,,2,14,,,,,,,,,,,3,1.475,0,,,,,,0.168518519,-0.257407407,1,0,0,1.4746,Diorite_rect,3,0,3,0,1,
661ae83beeda96247e30c48b,TCN,2024-06-12_13h41.21.562,LearnStrategy,2023.2.3,Win32,60.60606061,9,2,5,,,,,,,,6,10,,,,,,,,,,,6,2.132,1,,,,,,-0.069444444,-0.415740741,1,0,0,2.1317,Pegmatite_rect,4,0,4,0,1,
661ae83beeda96247e30c48b,TCN,2024-06-12_13h41.21.562,LearnStrategy,2023.2.3,Win32,60.60606061,9,2,6,,,,,,,,3,09,,,,,,,,,,,4,1.349,0,,,,,,0.406481481,-0.234259259,1,0,0,1.3487,Gabbro_rect,5,0,5,0,1,
661ae83beeda96247e30c48b,TCN,2024-06-12_13h41.21.562,LearnStrategy,2023.2.3,Win32,60.60606061,9,2,7,,,,,,,,8,16,,,,,,,,,,,8,0.899,1,,,,,,0.362962963,-0.393518519,1,0,0,0.8989,Pumice_rect,6,0,6,0,1,
661ae83beeda96247e30c48b,TCN,2024-06-12_13h41.21.562,LearnStrategy,2023.2.3,Win32,60.60606061,9,2,8,,,,,,,,5,06,,,,,,,,,,,5,1.682,1,,,,,,-0.42037037,-0.389814815,1,0,0,1.6818,Obsidian_rect,7,0,7,0,1,
661ae83beeda96247e30c48b,TCN,2024-06-12_13h41.21.562,LearnStrategy,2023.2.3,Win32,60.60606061,9,2,9,,,,,,,,1,04,,,,,,,,,,,8,3.182,0,,,,,,0.373148148,-0.37962963,1,0,0,3.1817,Pumice_rect,8,0,8,0,1,
661ae83beeda96247e30c48b,TCN,2024-06-12_13h41.21.562,LearnStrategy,2023.2.3,Win32,60.60606061,9,2,10,,,,,,,,7,14,,,,,,,,,,,1,2.576,0,,,,,,-0.440740741,-0.241666667,1,0,0,2.5761,Andesite_rect,9,0,9,0,1,
661ae83beeda96247e30c48b,TCN,2024-06-12_13h41.21.562,LearnStrategy,2023.2.3,Win32,60.60606061,9,2,11,,,,,,,,8,06,,,,,,,,,,,8,1.048,1,,,,,,0.388888889,-0.387037037,1,0,0,1.0483,Pumice_rect,10,0,10,0,1,
661ae83beeda96247e30c48b,TCN,2024-06-12_13h41.21.562,LearnStrategy,2023.2.3,Win32,60.60606061,9,2,12,,,,,,,,4,15,,,,,,,,,,,4,2.865,1,,,,,,0.362962963,-0.249074074,1,0,0,2.8654,Gabbro_rect,11,0,11,0,1,
661ae83beeda96247e30c48b,TCN,2024-06-12_13h41.21.562,LearnStrategy,2023.2.3,Win32,60.60606061,9,2,13,,,,,,,,2,10,,,,,,,,,,,2,2.642,1,,,,,,-0.061111111,-0.238888889,1,0,0,2.6416,Basalt_rect,12,0,12,0,1,
661ae83beeda96247e30c48b,TCN,2024-06-12_13h41.21.562,LearnStrategy,2023.2.3,Win32,60.60606061,9,2,14,,,,,,,,1,10,,,,,,,,,,,4,2.033,0,,,,,,0.364814815,-0.24537037,1,0,0,2.0325,Gabbro_rect,13,0,13,0,1,
661ae83beeda96247e30c48b,TCN,2024-06-12_13h41.21.562,LearnStrategy,2023.2.3,Win32,60.60606061,9,2,15,,,,,,,,5,16,,,,,,,,,,,5,0.95,1,,,,,,-0.39537037,-0.409259259,1,0,0,0.9498,Obsidian_rect,14,0,14,0,1,
661ae83beeda96247e30c48b,TCN,2024-06-12_13h41.21.562,LearnStrategy,2023.2.3,Win32,60.60606061,9,2,16,,,,,,,,3,07,,,,,,,,,,,7,1.065,0,,,,,,0.157407407,-0.40462963,1,0,0,1.0653,Peridotite_rect,15,0,15,0,1,
661ae83beeda96247e30c48b,TCN,2024-06-12_13h41.21.562,LearnStrategy,2023.2.3,Win32,60.60606061,,,,,,,,,,,,,,,,,,,,,,,,,,,,,,,,,,,,,,,,,,,0
661ae83beeda96247e30c48b,TCN,2024-06-12_13h41.21.562,LearnStrategy,2023.2.3,Win32,60.60606061,,,,,,,,,,,,,,,,,,,,,,,,,,,,,,,,,,,,,,,,,,,
661ae83beeda96247e30c48b,TCN,2024-06-12_13h41.21.562,LearnStrategy,2023.2.3,Win32,60.60606061,,,,,,,,,,,2,09,1,1,,,,,,,,,,,,,,,,,,,,,,,,,,,,,
661ae83beeda96247e30c48b,TCN,2024-06-12_13h41.21.562,LearnStrategy,2023.2.3,Win32,60.60606061,,,,,,,,,,,8,02,1,2,,,,,,,,,,,,,,,,,,,,,,,,,,,,,
661ae83beeda96247e30c48b,TCN,2024-06-12_13h41.21.562,LearnStrategy,2023.2.3,Win32,60.60606061,,,,,,,,,,,6,11,1,3,,,,,,,,,,,,,,,,,,,,,,,,,,,,,
661ae83beeda96247e30c48b,TCN,2024-06-12_13h41.21.562,LearnStrategy,2023.2.3,Win32,60.60606061,,,,,,,,,,,8,03,1,4,,,,,,,,,,,,,,,,,,,,,,,,,,,,,
661ae83beeda96247e30c48b,TCN,2024-06-12_13h41.21.562,LearnStrategy,2023.2.3,Win32,60.60606061,,,,,,,,,,,6,07,1,5,,,,,,,,,,,,,,,,,,,,,,,,,,,,,
661ae83beeda96247e30c48b,TCN,2024-06-12_13h41.21.562,LearnStrategy,2023.2.3,Win32,60.60606061,,,,,,,,,,,3,15,1,6,,,,,,,,,,,,,,,,,,,,,,,,,,,,,
661ae83beeda96247e30c48b,TCN,2024-06-12_13h41.21.562,LearnStrategy,2023.2.3,Win32,60.60606061,,,,,,,,,,,7,15,1,7,,,,,,,,,,,,,,,,,,,,,,,,,,,,,
661ae83beeda96247e30c48b,TCN,2024-06-12_13h41.21.562,LearnStrategy,2023.2.3,Win32,60.60606061,,,,,,,,,,,5,04,1,8,,,,,,,,,,,,,,,,,,,,,,,,,,,,,
661ae83beeda96247e30c48b,TCN,2024-06-12_13h41.21.562,LearnStrategy,2023.2.3,Win32,60.60606061,,,,,,,,,,,4,12,2,1,,,,,,,,,,,,,,,,,,,,,,,,,,,,,
661ae83beeda96247e30c48b,TCN,2024-06-12_13h41.21.562,LearnStrategy,2023.2.3,Win32,60.60606061,,,,,,,,,,,4,01,2,2,,,,,,,,,,,,,,,,,,,,,,,,,,,,,
661ae83beeda96247e30c48b,TCN,2024-06-12_13h41.21.562,LearnStrategy,2023.2.3,Win32,60.60606061,,,,,,,,,,,6,09,2,3,,,,,,,,,,,,,,,,,,,,,,,,,,,,,
661ae83beeda96247e30c48b,TCN,2024-06-12_13h41.21.562,LearnStrategy,2023.2.3,Win32,60.60606061,,,,,,,,,,,6,13,2,4,,,,,,,,,,,,,,,,,,,,,,,,,,,,,
661ae83beeda96247e30c48b,TCN,2024-06-12_13h41.21.562,LearnStrategy,2023.2.3,Win32,60.60606061,,,,,,,,,,,3,10,2,5,,,,,,,,,,,,,,,,,,,,,,,,,,,,,
661ae83beeda96247e30c48b,TCN,2024-06-12_13h41.21.562,LearnStrategy,2023.2.3,Win32,60.60606061,,,,,,,,,,,5,09,2,6,,,,,,,,,,,,,,,,,,,,,,,,,,,,,
661ae83beeda96247e30c48b,TCN,2024-06-12_13h41.21.562,LearnStrategy,2023.2.3,Win32,60.60606061,,,,,,,,,,,7,07,2,7,,,,,,,,,,,,,,,,,,,,,,,,,,,,,
661ae83beeda96247e30c48b,TCN,2024-06-12_13h41.21.562,LearnStrategy,2023.2.3,Win32,60.60606061,,,,,,,,,,,4,10,2,8,,,,,,,,,,,,,,,,,,,,,,,,,,,,,
661ae83beeda96247e30c48b,TCN,2024-06-12_13h41.21.562,LearnStrategy,2023.2.3,Win32,60.60606061,,,,,,,,,,,1,14,3,1,,,,,,,,,,,,,,,,,,,,,,,,,,,,,
661ae83beeda96247e30c48b,TCN,2024-06-12_13h41.21.562,LearnStrategy,2023.2.3,Win32,60.60606061,,,,,,,,,,,1,01,3,2,,,,,,,,,,,,,,,,,,,,,,,,,,,,,
661ae83beeda96247e30c48b,TCN,2024-06-12_13h41.21.562,LearnStrategy,2023.2.3,Win32,60.60606061,,,,,,,,,,,8,04,3,3,,,,,,,,,,,,,,,,,,,,,,,,,,,,,
661ae83beeda96247e30c48b,TCN,2024-06-12_13h41.21.562,LearnStrategy,2023.2.3,Win32,60.60606061,,,,,,,,,,,2,11,3,4,,,,,,,,,,,,,,,,,,,,,,,,,,,,,
661ae83beeda96247e30c48b,TCN,2024-06-12_13h41.21.562,LearnStrategy,2023.2.3,Win32,60.60606061,,,,,,,,,,,6,03,3,5,,,,,,,,,,,,,,,,,,,,,,,,,,,,,
661ae83beeda96247e30c48b,TCN,2024-06-12_13h41.21.562,LearnStrategy,2023.2.3,Win32,60.60606061,,,,,,,,,,,7,04,3,6,,,,,,,,,,,,,,,,,,,,,,,,,,,,,
661ae83beeda96247e30c48b,TCN,2024-06-12_13h41.21.562,LearnStrategy,2023.2.3,Win32,60.60606061,,,,,,,,,,,5,11,3,7,,,,,,,,,,,,,,,,,,,,,,,,,,,,,
661ae83beeda96247e30c48b,TCN,2024-06-12_13h41.21.562,LearnStrategy,2023.2.3,Win32,60.60606061,,,,,,,,,,,4,05,3,8,,,,,,,,,,,,,,,,,,,,,,,,,,,,,
661ae83beeda96247e30c48b,TCN,2024-06-12_13h41.21.562,LearnStrategy,2023.2.3,Win32,60.60606061,,,,,,,,,,,5,08,4,1,,,,,,,,,,,,,,,,,,,,,,,,,,,,,
661ae83beeda96247e30c48b,TCN,2024-06-12_13h41.21.562,LearnStrategy,2023.2.3,Win32,60.60606061,,,,,,,,,,,8,15,4,2,,,,,,,,,,,,,,,,,,,,,,,,,,,,,
661ae83beeda96247e30c48b,TCN,2024-06-12_13h41.21.562,LearnStrategy,2023.2.3,Win32,60.60606061,,,,,,,,,,,2,04,4,3,,,,,,,,,,,,,,,,,,,,,,,,,,,,,
661ae83beeda96247e30c48b,TCN,2024-06-12_13h41.21.562,LearnStrategy,2023.2.3,Win32,60.60606061,,,,,,,,,,,7,06,4,4,,,,,,,,,,,,,,,,,,,,,,,,,,,,,
661ae83beeda96247e30c48b,TCN,2024-06-12_13h41.21.562,LearnStrategy,2023.2.3,Win32,60.60606061,,,,,,,,,,,7,16,4,5,,,,,,,,,,,,,,,,,,,,,,,,,,,,,
661ae83beeda96247e30c48b,TCN,2024-06-12_13h41.21.562,LearnStrategy,2023.2.3,Win32,60.60606061,,,,,,,,,,,1,11,4,6,,,,,,,,,,,,,,,,,,,,,,,,,,,,,
661ae83beeda96247e30c48b,TCN,2024-06-12_13h41.21.562,LearnStrategy,2023.2.3,Win32,60.60606061,,,,,,,,,,,2,16,4,7,,,,,,,,,,,,,,,,,,,,,,,,,,,,,
661ae83beeda96247e30c48b,TCN,2024-06-12_13h41.21.562,LearnStrategy,2023.2.3,Win32,60.60606061,,,,,,,,,,,1,05,4,8,,,,,,,,,,,,,,,,,,,,,,,,,,,,,
661ae83beeda96247e30c48b,TCN,2024-06-12_13h41.21.562,LearnStrategy,2023.2.3,Win32,60.60606061,,,,,,,,,,,3,14,5,1,,,,,,,,,,,,,,,,,,,,,,,,,,,,,
661ae83beeda96247e30c48b,TCN,2024-06-12_13h41.21.562,LearnStrategy,2023.2.3,Win32,60.60606061,,,,,,,,,,,4,09,5,2,,,,,,,,,,,,,,,,,,,,,,,,,,,,,
661ae83beeda96247e30c48b,TCN,2024-06-12_13h41.21.562,LearnStrategy,2023.2.3,Win32,60.60606061,,,,,,,,,,,1,09,5,3,,,,,,,,,,,,,,,,,,,,,,,,,,,,,
661ae83beeda96247e30c48b,TCN,2024-06-12_13h41.21.562,LearnStrategy,2023.2.3,Win32,60.60606061,,,,,,,,,,,6,06,5,4,,,,,,,,,,,,,,,,,,,,,,,,,,,,,
661ae83beeda96247e30c48b,TCN,2024-06-12_13h41.21.562,LearnStrategy,2023.2.3,Win32,60.60606061,,,,,,,,,,,2,12,5,5,,,,,,,,,,,,,,,,,,,,,,,,,,,,,
661ae83beeda96247e30c48b,TCN,2024-06-12_13h41.21.562,LearnStrategy,2023.2.3,Win32,60.60606061,,,,,,,,,,,4,14,5,6,,,,,,,,,,,,,,,,,,,,,,,,,,,,,
661ae83beeda96247e30c48b,TCN,2024-06-12_13h41.21.562,LearnStrategy,2023.2.3,Win32,60.60606061,,,,,,,,,,,7,10,5,7,,,,,,,,,,,,,,,,,,,,,,,,,,,,,
661ae83beeda96247e30c48b,TCN,2024-06-12_13h41.21.562,LearnStrategy,2023.2.3,Win32,60.60606061,,,,,,,,,,,3,02,5,8,,,,,,,,,,,,,,,,,,,,,,,,,,,,,
661ae83beeda96247e30c48b,TCN,2024-06-12_13h41.21.562,LearnStrategy,2023.2.3,Win32,60.60606061,,,,,,,,,,,8,09,6,1,,,,,,,,,,,,,,,,,,,,,,,,,,,,,
661ae83beeda96247e30c48b,TCN,2024-06-12_13h41.21.562,LearnStrategy,2023.2.3,Win32,60.60606061,,,,,,,,,,,3,11,6,2,,,,,,,,,,,,,,,,,,,,,,,,,,,,,
661ae83beeda96247e30c48b,TCN,2024-06-12_13h41.21.562,LearnStrategy,2023.2.3,Win32,60.60606061,,,,,,,,,,,2,06,6,3,,,,,,,,,,,,,,,,,,,,,,,,,,,,,
661ae83beeda96247e30c48b,TCN,2024-06-12_13h41.21.562,LearnStrategy,2023.2.3,Win32,60.60606061,,,,,,,,,,,5,05,6,4,,,,,,,,,,,,,,,,,,,,,,,,,,,,,
661ae83beeda96247e30c48b,TCN,2024-06-12_13h41.21.562,LearnStrategy,2023.2.3,Win32,60.60606061,,,,,,,,,,,1,16,6,5,,,,,,,,,,,,,,,,,,,,,,,,,,,,,
661ae83beeda96247e30c48b,TCN,2024-06-12_13h41.21.562,LearnStrategy,2023.2.3,Win32,60.60606061,,,,,,,,,,,8,14,6,6,,,,,,,,,,,,,,,,,,,,,,,,,,,,,
661ae83beeda96247e30c48b,TCN,2024-06-12_13h41.21.562,LearnStrategy,2023.2.3,Win32,60.60606061,,,,,,,,,,,5,14,6,7,,,,,,,,,,,,,,,,,,,,,,,,,,,,,
661ae83beeda96247e30c48b,TCN,2024-06-12_13h41.21.562,LearnStrategy,2023.2.3,Win32,60.60606061,,,,,,,,,,,3,06,6,8,,,,,,,,,,,,,,,,,,,,,,,,,,,,,