participant,condition,date,expName,psychopyVersion,OS,frameRate,block,phase,trial,learn_mouse.x,learn_mouse.y,learn_mouse.leftButton,learn_mouse.midButton,learn_mouse.rightButton,learn_mouse.time,learn_mouse.clicked_name,cat,token,row,col,t_select,cat_mouse_l.x,cat_mouse_l.y,cat_mouse_l.leftButton,cat_mouse_l.midButton,cat_mouse_l.rightButton,cat_mouse_l.time,cat_mouse_l.clicked_name,resp,t_resp,corr,train_trials.thisRepN,train_trials.thisTrialN,train_trials.thisN,train_trials.thisIndex,train_trials.ran,cat_mouse_t.x,cat_mouse_t.y,cat_mouse_t.leftButton,cat_mouse_t.midButton,cat_mouse_t.rightButton,cat_mouse_t.time,cat_mouse_t.clicked_name,test_trials.thisRepN,test_trials.thisTrialN,test_trials.thisN,test_trials.thisIndex,test_trials.ran,Bonus
662004840cf5731b955a2d0f,SCN,2024-06-26_13h35.18.427,LearnStrategy,2023.2.3,Win32,59.17159763,,,,,,,,,,,,,,,,,,,,,,,,,,,,,,,,,,,,,,,,,,,
662004840cf5731b955a2d0f,SCN,2024-06-26_13h35.18.427,LearnStrategy,2023.2.3,Win32,59.17159763,1,1,1,0.531481481,-0.085185185,1,0,0,3.4939,Peridotite_15,7,15,3,8,3.494,-0.335185185,-0.414814815,1,0,0,5.2838,Obsidian_rect,5,5.284,0,0,0,0,0,1,,,,,,,,,,,,,
662004840cf5731b955a2d0f,SCN,2024-06-26_13h35.18.427,LearnStrategy,2023.2.3,Win32,59.17159763,1,1,2,-0.20462963,0.110185185,1,0,0,1.2639,Peridotite_13,7,13,4,3,1.264,0.07962963,-0.419444444,1,0,0,2.3103,Peridotite_rect,7,2.31,1,1,0,1,0,1,,,,,,,,,,,,,
662004840cf5731b955a2d0f,SCN,2024-06-26_13h35.18.427,LearnStrategy,2023.2.3,Win32,59.17159763,1,1,3,-0.086111111,0.083333333,1,0,0,1.2156,Pumice_13,8,13,4,4,1.216,0.343518519,-0.243518519,1,0,0,1.6931,Gabbro_rect,4,1.693,0,2,0,2,0,1,,,,,,,,,,,,,
662004840cf5731b955a2d0f,SCN,2024-06-26_13h35.18.427,LearnStrategy,2023.2.3,Win32,59.17159763,1,1,4,-0.539814815,-0.427777778,1,0,0,1.9318,Pegmatite_08,6,08,1,1,1.932,-0.432407407,-0.257407407,1,0,0,1.5943,Andesite_rect,1,1.594,0,3,0,3,0,1,,,,,,,,,,,,,
662004840cf5731b955a2d0f,SCN,2024-06-26_13h35.18.427,LearnStrategy,2023.2.3,Win32,59.17159763,1,1,5,-0.532407407,0.22037037,1,0,0,1.9644,Gabbro_13,4,13,5,1,1.964,-0.085185185,-0.237037037,1,0,0,1.4111,Basalt_rect,2,1.411,0,4,0,4,0,1,,,,,,,,,,,,,
662004840cf5731b955a2d0f,SCN,2024-06-26_13h35.18.427,LearnStrategy,2023.2.3,Win32,59.17159763,1,1,6,-0.072222222,0.397222222,1,0,0,2.5584,Obsidian_07,5,07,6,4,2.558,-0.355555556,-0.24537037,1,0,0,2.3834,Andesite_rect,1,2.383,0,5,0,5,0,1,,,,,,,,,,,,,
662004840cf5731b955a2d0f,SCN,2024-06-26_13h35.18.427,LearnStrategy,2023.2.3,Win32,59.17159763,1,1,7,-0.073148148,-0.394444444,1,0,0,1.6325,Pumice_08,8,08,1,4,1.632,0.386111111,-0.397222222,1,0,0,1.3596,Pumice_rect,8,1.36,1,6,0,6,0,1,,,,,,,,,,,,,
662004840cf5731b955a2d0f,SCN,2024-06-26_13h35.18.427,LearnStrategy,2023.2.3,Win32,59.17159763,1,1,8,-0.388888889,0.092592593,1,0,0,1.2589,Pegmatite_11,6,11,4,2,1.259,0.099074074,-0.243518519,1,0,0,1.5938,Diorite_rect,3,1.594,0,7,0,7,0,1,,,,,,,,,,,,,
662004840cf5731b955a2d0f,SCN,2024-06-26_13h35.18.427,LearnStrategy,2023.2.3,Win32,59.17159763,1,1,9,0.37962963,-0.42962963,1,0,0,2.1146,Obsidian_12,5,12,1,7,2.115,-0.135185185,-0.407407407,1,0,0,1.9611,Pegmatite_rect,6,1.961,0,8,0,8,0,1,,,,,,,,,,,,,
662004840cf5731b955a2d0f,SCN,2024-06-26_13h35.18.427,LearnStrategy,2023.2.3,Win32,59.17159763,1,1,10,-0.39537037,-0.239814815,1,0,0,7.4983,Obsidian_02,5,02,2,2,7.498,0.152777778,-0.261111111,1,0,0,4.0633,Diorite_rect,3,4.063,0,9,0,9,0,1,,,,,,,,,,,,,
662004840cf5731b955a2d0f,SCN,2024-06-26_13h35.18.427,LearnStrategy,2023.2.3,Win32,59.17159763,1,1,11,0.076851852,-0.39537037,1,0,0,8.7363,Basalt_06,2,06,1,5,8.736,0.413888889,-0.264814815,1,0,0,2.143,Gabbro_rect,4,2.143,0,10,0,10,0,1,,,,,,,,,,,,,
662004840cf5731b955a2d0f,SCN,2024-06-26_13h35.18.427,LearnStrategy,2023.2.3,Win32,59.17159763,1,1,12,-0.249074074,0.419444444,1,0,0,1.0974,Pegmatite_10,6,10,6,3,1.097,-0.127777778,-0.407407407,1,0,0,2.3936,Pegmatite_rect,6,2.394,1,11,0,11,0,1,,,,,,,,,,,,,
662004840cf5731b955a2d0f,SCN,2024-06-26_13h35.18.427,LearnStrategy,2023.2.3,Win32,59.17159763,1,1,13,-0.364814815,-0.085185185,1,0,0,1.4481,Diorite_07,3,07,3,2,1.448,-0.377777778,-0.256481481,1,0,0,1.1453,Andesite_rect,1,1.145,0,12,0,12,0,1,,,,,,,,,,,,,
662004840cf5731b955a2d0f,SCN,2024-06-26_13h35.18.427,LearnStrategy,2023.2.3,Win32,59.17159763,1,1,14,0.419444444,-0.242592593,1,0,0,7.6148,Pumice_16,8,16,2,7,7.615,0.387962963,-0.232407407,1,0,0,1.4471,Gabbro_rect,4,1.447,0,13,0,13,0,1,,,,,,,,,,,,,
662004840cf5731b955a2d0f,SCN,2024-06-26_13h35.18.427,LearnStrategy,2023.2.3,Win32,59.17159763,1,1,15,0.114814815,0.258333333,1,0,0,4.3253,Diorite_02,3,02,5,5,4.325,-0.162037037,-0.387962963,1,0,0,2.5921,Pegmatite_rect,6,2.592,0,14,0,14,0,1,,,,,,,,,,,,,
662004840cf5731b955a2d0f,SCN,2024-06-26_13h35.18.427,LearnStrategy,2023.2.3,Win32,59.17159763,1,1,16,-0.207407407,0.384259259,1,0,0,0.9816,Pegmatite_10,6,10,6,3,0.982,0.125,-0.399074074,1,0,0,1.8937,Peridotite_rect,7,1.894,0,15,0,15,0,1,,,,,,,,,,,,,
662004840cf5731b955a2d0f,SCN,2024-06-26_13h35.18.427,LearnStrategy,2023.2.3,Win32,59.17159763,1,2,1,,,,,,,,5,08,,,,,,,,,,,6,9.67,0,,,,,,-0.088888889,-0.37962963,1,0,0,9.6697,Pegmatite_rect,0,0,0,0,1,
662004840cf5731b955a2d0f,SCN,2024-06-26_13h35.18.427,LearnStrategy,2023.2.3,Win32,59.17159763,1,2,2,,,,,,,,7,02,,,,,,,,,,,7,3.438,1,,,,,,0.180555556,-0.40462963,1,0,0,3.4378,Peridotite_rect,1,0,1,0,1,
662004840cf5731b955a2d0f,SCN,2024-06-26_13h35.18.427,LearnStrategy,2023.2.3,Win32,59.17159763,1,2,3,,,,,,,,4,09,,,,,,,,,,,8,1.875,0,,,,,,0.368518519,-0.409259259,1,0,0,1.8755,Pumice_rect,2,0,2,0,1,
662004840cf5731b955a2d0f,SCN,2024-06-26_13h35.18.427,LearnStrategy,2023.2.3,Win32,59.17159763,1,2,4,,,,,,,,3,08,,,,,,,,,,,3,2.633,1,,,,,,0.112037037,-0.247222222,1,0,0,2.6332,Diorite_rect,3,0,3,0,1,
662004840cf5731b955a2d0f,SCN,2024-06-26_13h35.18.427,LearnStrategy,2023.2.3,Win32,59.17159763,1,2,5,,,,,,,,5,14,,,,,,,,,,,5,3.52,1,,,,,,-0.352777778,-0.39537037,1,0,0,3.5198,Obsidian_rect,4,0,4,0,1,
662004840cf5731b955a2d0f,SCN,2024-06-26_13h35.18.427,LearnStrategy,2023.2.3,Win32,59.17159763,1,2,6,,,,,,,,8,05,,,,,,,,,,,8,1.071,1,,,,,,0.407407407,-0.405555556,1,0,0,1.0711,Pumice_rect,5,0,5,0,1,
662004840cf5731b955a2d0f,SCN,2024-06-26_13h35.18.427,LearnStrategy,2023.2.3,Win32,59.17159763,1,2,7,,,,,,,,7,16,,,,,,,,,,,6,3.421,0,,,,,,-0.07037037,-0.382407407,1,0,0,3.4205,Pegmatite_rect,6,0,6,0,1,
662004840cf5731b955a2d0f,SCN,2024-06-26_13h35.18.427,LearnStrategy,2023.2.3,Win32,59.17159763,1,2,8,,,,,,,,1,14,,,,,,,,,,,8,1.782,0,,,,,,0.448148148,-0.409259259,1,0,0,1.782,Pumice_rect,7,0,7,0,1,
662004840cf5731b955a2d0f,SCN,2024-06-26_13h35.18.427,LearnStrategy,2023.2.3,Win32,59.17159763,1,2,9,,,,,,,,6,03,,,,,,,,,,,1,1.396,0,,,,,,-0.324074074,-0.249074074,1,0,0,1.3963,Andesite_rect,8,0,8,0,1,
662004840cf5731b955a2d0f,SCN,2024-06-26_13h35.18.427,LearnStrategy,2023.2.3,Win32,59.17159763,1,2,10,,,,,,,,8,10,,,,,,,,,,,8,0.954,1,,,,,,0.34537037,-0.40462963,1,0,0,0.9538,Pumice_rect,9,0,9,0,1,
662004840cf5731b955a2d0f,SCN,2024-06-26_13h35.18.427,LearnStrategy,2023.2.3,Win32,59.17159763,1,2,11,,,,,,,,1,16,,,,,,,,,,,8,0.988,0,,,,,,0.348148148,-0.400925926,1,0,0,0.9879,Pumice_rect,10,0,10,0,1,
662004840cf5731b955a2d0f,SCN,2024-06-26_13h35.18.427,LearnStrategy,2023.2.3,Win32,59.17159763,1,2,12,,,,,,,,3,06,,,,,,,,,,,4,1.537,0,,,,,,0.366666667,-0.250925926,1,0,0,1.5369,Gabbro_rect,11,0,11,0,1,
662004840cf5731b955a2d0f,SCN,2024-06-26_13h35.18.427,LearnStrategy,2023.2.3,Win32,59.17159763,1,2,13,,,,,,,,6,09,,,,,,,,,,,7,1.683,0,,,,,,0.191666667,-0.39537037,1,0,0,1.6827,Peridotite_rect,12,0,12,0,1,
662004840cf5731b955a2d0f,SCN,2024-06-26_13h35.18.427,LearnStrategy,2023.2.3,Win32,59.17159763,1,2,14,,,,,,,,2,16,,,,,,,,,,,8,0.821,0,,,,,,0.399074074,-0.406481481,1,0,0,0.8205,Pumice_rect,13,0,13,0,1,
662004840cf5731b955a2d0f,SCN,2024-06-26_13h35.18.427,LearnStrategy,2023.2.3,Win32,59.17159763,1,2,15,,,,,,,,2,04,,,,,,,,,,,8,0.671,0,,,,,,0.397222222,-0.406481481,1,0,0,0.6714,Pumice_rect,14,0,14,0,1,
662004840cf5731b955a2d0f,SCN,2024-06-26_13h35.18.427,LearnStrategy,2023.2.3,Win32,59.17159763,1,2,16,,,,,,,,4,01,,,,,,,,,,,8,2.369,0,,,,,,0.387037037,-0.408333333,1,0,0,2.3691,Pumice_rect,15,0,15,0,1,
662004840cf5731b955a2d0f,SCN,2024-06-26_13h35.18.427,LearnStrategy,2023.2.3,Win32,59.17159763,2,1,1,-0.546296296,0.402777778,1,0,0,1.4761,Peridotite_05,7,05,6,1,1.476,0.096296296,-0.412962963,1,0,0,3.547,Peridotite_rect,7,3.547,1,0,0,0,0,1,,,,,,,,,,,,,
662004840cf5731b955a2d0f,SCN,2024-06-26_13h35.18.427,LearnStrategy,2023.2.3,Win32,59.17159763,2,1,2,-0.399074074,0.391666667,1,0,0,0.948,Basalt_10,2,10,6,2,0.948,0.42962963,-0.405555556,1,0,0,0.8614,Pumice_rect,8,0.861,0,1,0,1,0,1,,,,,,,,,,,,,
662004840cf5731b955a2d0f,SCN,2024-06-26_13h35.18.427,LearnStrategy,2023.2.3,Win32,59.17159763,2,1,3,-0.247222222,0.410185185,1,0,0,1.1653,Pegmatite_10,6,10,6,3,1.165,-0.1,-0.39537037,1,0,0,1.4109,Pegmatite_rect,6,1.411,1,2,0,2,0,1,,,,,,,,,,,,,
662004840cf5731b955a2d0f,SCN,2024-06-26_13h35.18.427,LearnStrategy,2023.2.3,Win32,59.17159763,2,1,4,-0.423148148,-0.076851852,1,0,0,0.8987,Diorite_07,3,07,3,2,0.899,0.210185185,-0.257407407,1,0,0,1.394,Diorite_rect,3,1.394,1,3,0,3,0,1,,,,,,,,,,,,,
662004840cf5731b955a2d0f,SCN,2024-06-26_13h35.18.427,LearnStrategy,2023.2.3,Win32,59.17159763,2,1,5,0.078703704,-0.096296296,1,0,0,0.8656,Diorite_09,3,09,3,5,0.866,0.332407407,-0.387037037,1,0,0,0.8944,Pumice_rect,8,0.894,0,4,0,4,0,1,,,,,,,,,,,,,
662004840cf5731b955a2d0f,SCN,2024-06-26_13h35.18.427,LearnStrategy,2023.2.3,Win32,59.17159763,2,1,6,-0.248148148,-0.098148148,1,0,0,1.2314,Diorite_14,3,14,3,3,1.231,0.107407407,-0.257407407,1,0,0,0.7278,Diorite_rect,3,0.728,1,5,0,5,0,1,,,,,,,,,,,,,
662004840cf5731b955a2d0f,SCN,2024-06-26_13h35.18.427,LearnStrategy,2023.2.3,Win32,59.17159763,2,1,7,0.059259259,0.051851852,1,0,0,0.7823,Andesite_03,1,03,4,5,0.782,0.335185185,-0.405555556,1,0,0,0.944,Pumice_rect,8,0.944,0,6,0,6,0,1,,,,,,,,,,,,,
662004840cf5731b955a2d0f,SCN,2024-06-26_13h35.18.427,LearnStrategy,2023.2.3,Win32,59.17159763,2,1,8,0.431481481,0.064814815,1,0,0,1.0488,Gabbro_03,4,03,4,7,1.049,-0.089814815,-0.264814815,1,0,0,2.6433,Basalt_rect,2,2.643,0,7,0,7,0,1,,,,,,,,,,,,,
662004840cf5731b955a2d0f,SCN,2024-06-26_13h35.18.427,LearnStrategy,2023.2.3,Win32,59.17159763,2,1,9,0.539814815,-0.432407407,1,0,0,0.9483,Gabbro_14,4,14,1,8,0.948,0.442592593,-0.406481481,1,0,0,0.8273,Pumice_rect,8,0.827,0,8,0,8,0,1,,,,,,,,,,,,,
662004840cf5731b955a2d0f,SCN,2024-06-26_13h35.18.427,LearnStrategy,2023.2.3,Win32,59.17159763,2,1,10,0.39537037,-0.132407407,1,0,0,0.792,Obsidian_10,5,10,3,7,0.792,-0.357407407,-0.401851852,1,0,0,2.4503,Obsidian_rect,5,2.45,1,9,0,9,0,1,,,,,,,,,,,,,
662004840cf5731b955a2d0f,SCN,2024-06-26_13h35.18.427,LearnStrategy,2023.2.3,Win32,59.17159763,2,1,11,-0.542592593,-0.428703704,1,0,0,0.8485,Pegmatite_08,6,08,1,1,0.849,-0.450925926,-0.400925926,1,0,0,0.8767,Obsidian_rect,5,0.877,0,10,0,10,0,1,,,,,,,,,,,,,
662004840cf5731b955a2d0f,SCN,2024-06-26_13h35.18.427,LearnStrategy,2023.2.3,Win32,59.17159763,2,1,12,-0.037037037,0.066666667,1,0,0,1.0992,Pumice_13,8,13,4,4,1.099,0.431481481,-0.412037037,1,0,0,0.8774,Pumice_rect,8,0.877,1,11,0,11,0,1,,,,,,,,,,,,,
662004840cf5731b955a2d0f,SCN,2024-06-26_13h35.18.427,LearnStrategy,2023.2.3,Win32,59.17159763,2,1,13,0.057407407,0.248148148,1,0,0,0.8486,Diorite_02,3,02,5,5,0.849,-0.361111111,-0.412037037,1,0,0,1.8276,Obsidian_rect,5,1.828,0,12,0,12,0,1,,,,,,,,,,,,,
662004840cf5731b955a2d0f,SCN,2024-06-26_13h35.18.427,LearnStrategy,2023.2.3,Win32,59.17159763,2,1,14,0.239814815,-0.283333333,1,0,0,2.0426,Obsidian_06,5,06,2,6,2.043,0.206481481,-0.260185185,1,0,0,1.551,Diorite_rect,3,1.551,0,13,0,13,0,1,,,,,,,,,,,,,
662004840cf5731b955a2d0f,SCN,2024-06-26_13h35.18.427,LearnStrategy,2023.2.3,Win32,59.17159763,2,1,15,0.525925926,0.436111111,1,0,0,3.0319,Peridotite_06,7,06,6,8,3.032,0.333333333,-0.256481481,1,0,0,1.461,Gabbro_rect,4,1.461,0,14,0,14,0,1,,,,,,,,,,,,,
662004840cf5731b955a2d0f,SCN,2024-06-26_13h35.18.427,LearnStrategy,2023.2.3,Win32,59.17159763,2,1,16,0.273148148,-0.267592593,1,0,0,0.8995,Obsidian_06,5,06,2,6,0.899,0.098148148,-0.258333333,1,0,0,2.3435,Diorite_rect,3,2.344,0,15,0,15,0,1,,,,,,,,,,,,,
662004840cf5731b955a2d0f,SCN,2024-06-26_13h35.18.427,LearnStrategy,2023.2.3,Win32,59.17159763,2,2,1,,,,,,,,6,16,,,,,,,,,,,3,36.122,0,,,,,,0.181481481,-0.266666667,1,0,0,36.1225,Diorite_rect,0,0,0,0,1,
662004840cf5731b955a2d0f,SCN,2024-06-26_13h35.18.427,LearnStrategy,2023.2.3,Win32,59.17159763,2,2,2,,,,,,,,2,01,,,,,,,,,,,8,1.327,0,,,,,,0.418518519,-0.398148148,1,0,0,1.3274,Pumice_rect,1,0,1,0,1,
662004840cf5731b955a2d0f,SCN,2024-06-26_13h35.18.427,LearnStrategy,2023.2.3,Win32,59.17159763,2,2,3,,,,,,,,4,10,,,,,,,,,,,8,1.393,0,,,,,,0.37037037,-0.40462963,1,0,0,1.3934,Pumice_rect,2,0,2,0,1,
662004840cf5731b955a2d0f,SCN,2024-06-26_13h35.18.427,LearnStrategy,2023.2.3,Win32,59.17159763,2,2,4,,,,,,,,3,13,,,,,,,,,,,7,2.827,0,,,,,,0.138888889,-0.394444444,1,0,0,2.8272,Peridotite_rect,3,0,3,0,1,
662004840cf5731b955a2d0f,SCN,2024-06-26_13h35.18.427,LearnStrategy,2023.2.3,Win32,59.17159763,2,2,5,,,,,,,,7,08,,,,,,,,,,,7,2.144,1,,,,,,0.138888889,-0.39537037,1,0,0,2.1444,Peridotite_rect,4,0,4,0,1,
662004840cf5731b955a2d0f,SCN,2024-06-26_13h35.18.427,LearnStrategy,2023.2.3,Win32,59.17159763,2,2,6,,,,,,,,7,10,,,,,,,,,,,7,0.955,1,,,,,,0.138888889,-0.39537037,1,0,0,0.9546,Peridotite_rect,5,0,5,0,1,
662004840cf5731b955a2d0f,SCN,2024-06-26_13h35.18.427,LearnStrategy,2023.2.3,Win32,59.17159763,2,2,7,,,,,,,,8,15,,,,,,,,,,,8,0.711,1,,,,,,0.451851852,-0.396296296,1,0,0,0.7106,Pumice_rect,6,0,6,0,1,
662004840cf5731b955a2d0f,SCN,2024-06-26_13h35.18.427,LearnStrategy,2023.2.3,Win32,59.17159763,2,2,8,,,,,,,,5,11,,,,,,,,,,,3,2.211,0,,,,,,0.166666667,-0.263888889,1,0,0,2.211,Diorite_rect,7,0,7,0,1,
662004840cf5731b955a2d0f,SCN,2024-06-26_13h35.18.427,LearnStrategy,2023.2.3,Win32,59.17159763,2,2,9,,,,,,,,4,11,,,,,,,,,,,8,1.061,0,,,,,,0.340740741,-0.387962963,1,0,0,1.0614,Pumice_rect,8,0,8,0,1,
662004840cf5731b955a2d0f,SCN,2024-06-26_13h35.18.427,LearnStrategy,2023.2.3,Win32,59.17159763,2,2,10,,,,,,,,1,10,,,,,,,,,,,8,0.827,0,,,,,,0.338888889,-0.388888889,1,0,0,0.8272,Pumice_rect,9,0,9,0,1,
662004840cf5731b955a2d0f,SCN,2024-06-26_13h35.18.427,LearnStrategy,2023.2.3,Win32,59.17159763,2,2,11,,,,,,,,6,06,,,,,,,,,,,5,1.612,0,,,,,,-0.359259259,-0.384259259,1,0,0,1.6119,Obsidian_rect,10,0,10,0,1,
662004840cf5731b955a2d0f,SCN,2024-06-26_13h35.18.427,LearnStrategy,2023.2.3,Win32,59.17159763,2,2,12,,,,,,,,1,04,,,,,,,,,,,8,1.177,0,,,,,,0.366666667,-0.4,1,0,0,1.1767,Pumice_rect,11,0,11,0,1,
662004840cf5731b955a2d0f,SCN,2024-06-26_13h35.18.427,LearnStrategy,2023.2.3,Win32,59.17159763,2,2,13,,,,,,,,5,05,,,,,,,,,,,5,5.361,1,,,,,,-0.428703704,-0.403703704,1,0,0,5.361,Obsidian_rect,12,0,12,0,1,
662004840cf5731b955a2d0f,SCN,2024-06-26_13h35.18.427,LearnStrategy,2023.2.3,Win32,59.17159763,2,2,14,,,,,,,,2,11,,,,,,,,,,,8,0.977,0,,,,,,0.437962963,-0.400925926,1,0,0,0.977,Pumice_rect,13,0,13,0,1,
662004840cf5731b955a2d0f,SCN,2024-06-26_13h35.18.427,LearnStrategy,2023.2.3,Win32,59.17159763,2,2,15,,,,,,,,3,12,,,,,,,,,,,8,1.562,0,,,,,,0.353703704,-0.405555556,1,0,0,1.5616,Pumice_rect,14,0,14,0,1,
662004840cf5731b955a2d0f,SCN,2024-06-26_13h35.18.427,LearnStrategy,2023.2.3,Win32,59.17159763,2,2,16,,,,,,,,8,09,,,,,,,,,,,4,1.76,0,,,,,,0.325925926,-0.237962963,1,0,0,1.7604,Gabbro_rect,15,0,15,0,1,
662004840cf5731b955a2d0f,SCN,2024-06-26_13h35.18.427,LearnStrategy,2023.2.3,Win32,59.17159763,3,1,1,-0.402777778,-0.101851852,1,0,0,2.3914,Diorite_07,3,07,3,2,2.391,-0.12962963,-0.398148148,1,0,0,2.9769,Pegmatite_rect,6,2.977,0,0,0,0,0,1,,,,,,,,,,,,,
662004840cf5731b955a2d0f,SCN,2024-06-26_13h35.18.427,LearnStrategy,2023.2.3,Win32,59.17159763,3,1,2,-0.065740741,-0.143518519,1,0,0,0.7492,Andesite_09,1,09,3,4,0.749,0.373148148,-0.415740741,1,0,0,0.8109,Pumice_rect,8,0.811,0,1,0,1,0,1,,,,,,,,,,,,,
662004840cf5731b955a2d0f,SCN,2024-06-26_13h35.18.427,LearnStrategy,2023.2.3,Win32,59.17159763,3,1,3,0.256481481,-0.423148148,1,0,0,0.882,Pumice_03,8,03,1,6,0.882,0.347222222,-0.40462963,1,0,0,0.6444,Pumice_rect,8,0.644,1,2,0,2,0,1,,,,,,,,,,,,,
662004840cf5731b955a2d0f,SCN,2024-06-26_13h35.18.427,LearnStrategy,2023.2.3,Win32,59.17159763,3,1,4,-0.212962963,0.099074074,1,0,0,1.2828,Peridotite_13,7,13,4,3,1.283,0.116666667,-0.405555556,1,0,0,1.7106,Peridotite_rect,7,1.711,1,3,0,3,0,1,,,,,,,,,,,,,
662004840cf5731b955a2d0f,SCN,2024-06-26_13h35.18.427,LearnStrategy,2023.2.3,Win32,59.17159763,3,1,5,-0.235185185,0.365740741,1,0,0,1.4159,Pegmatite_10,6,10,6,3,1.416,0.192592593,-0.4,1,0,0,0.6787,Peridotite_rect,7,0.679,0,4,0,4,0,1,,,,,,,,,,,,,
662004840cf5731b955a2d0f,SCN,2024-06-26_13h35.18.427,LearnStrategy,2023.2.3,Win32,59.17159763,3,1,6,-0.552777778,-0.125925926,1,0,0,0.9322,Pegmatite_07,6,07,3,1,0.932,-0.362037037,-0.411111111,1,0,0,1.0615,Obsidian_rect,5,1.062,0,5,0,5,0,1,,,,,,,,,,,,,
662004840cf5731b955a2d0f,SCN,2024-06-26_13h35.18.427,LearnStrategy,2023.2.3,Win32,59.17159763,3,1,7,0.408333333,0.262962963,1,0,0,2.2153,Andesite_05,1,05,5,7,2.215,0.373148148,-0.261111111,1,0,0,0.945,Gabbro_rect,4,0.945,0,6,0,6,0,1,,,,,,,,,,,,,
662004840cf5731b955a2d0f,SCN,2024-06-26_13h35.18.427,LearnStrategy,2023.2.3,Win32,59.17159763,3,1,8,0.20462963,-0.107407407,1,0,0,0.9649,Pegmatite_13,6,13,3,6,0.965,0.364814815,-0.400925926,1,0,0,0.978,Pumice_rect,8,0.978,0,7,0,7,0,1,,,,,,,,,,,,,
662004840cf5731b955a2d0f,SCN,2024-06-26_13h35.18.427,LearnStrategy,2023.2.3,Win32,59.17159763,3,1,9,0.361111111,-0.427777778,1,0,0,1.5649,Obsidian_12,5,12,1,7,1.565,-0.337962963,-0.392592593,1,0,0,1.1447,Obsidian_rect,5,1.145,1,8,0,8,0,1,,,,,,,,,,,,,
662004840cf5731b955a2d0f,SCN,2024-06-26_13h35.18.427,LearnStrategy,2023.2.3,Win32,59.17159763,3,1,10,-0.510185185,-0.40462963,1,0,0,2.0484,Pegmatite_08,6,08,1,1,2.048,-0.358333333,-0.403703704,1,0,0,1.0769,Obsidian_rect,5,1.077,0,9,0,9,0,1,,,,,,,,,,,,,
662004840cf5731b955a2d0f,SCN,2024-06-26_13h35.18.427,LearnStrategy,2023.2.3,Win32,59.17159763,3,1,11,-0.362962963,0.233333333,1,0,0,1.3484,Basalt_14,2,14,5,2,1.348,0.463888889,-0.408333333,1,0,0,0.7947,Pumice_rect,8,0.795,0,10,0,10,0,1,,,,,,,,,,,,,
662004840cf5731b955a2d0f,SCN,2024-06-26_13h35.18.427,LearnStrategy,2023.2.3,Win32,59.17159763,3,1,12,-0.260185185,0.292592593,1,0,0,0.9826,Gabbro_16,4,16,5,3,0.983,-0.127777778,-0.265740741,1,0,0,1.2275,Basalt_rect,2,1.227,0,11,0,11,0,1,,,,,,,,,,,,,
662004840cf5731b955a2d0f,SCN,2024-06-26_13h35.18.427,LearnStrategy,2023.2.3,Win32,59.17159763,3,1,13,-0.080555556,0.268518519,1,0,0,1.0153,Basalt_08,2,08,5,4,1.015,0.5,-0.401851852,1,0,0,0.827,Pumice_rect,8,0.827,0,12,0,12,0,1,,,,,,,,,,,,,
662004840cf5731b955a2d0f,SCN,2024-06-26_13h35.18.427,LearnStrategy,2023.2.3,Win32,59.17159763,3,1,14,0.125925926,-0.118518519,1,0,0,1.0655,Diorite_09,3,09,3,5,1.065,0.374074074,-0.253703704,1,0,0,1.2106,Gabbro_rect,4,1.211,0,13,0,13,0,1,,,,,,,,,,,,,
662004840cf5731b955a2d0f,SCN,2024-06-26_13h35.18.427,LearnStrategy,2023.2.3,Win32,59.17159763,3,1,15,-0.52962963,0.243518519,1,0,0,3.6981,Gabbro_13,4,13,5,1,3.698,0.39537037,-0.414814815,1,0,0,0.9884,Pumice_rect,8,0.988,0,14,0,14,0,1,,,,,,,,,,,,,
662004840cf5731b955a2d0f,SCN,2024-06-26_13h35.18.427,LearnStrategy,2023.2.3,Win32,59.17159763,3,1,16,-0.367592593,0.253703704,1,0,0,0.7491,Basalt_14,2,14,5,2,0.749,0.42962963,-0.269444444,1,0,0,0.8113,Gabbro_rect,4,0.811,0,15,0,15,0,1,,,,,,,,,,,,,
662004840cf5731b955a2d0f,SCN,2024-06-26_13h35.18.427,LearnStrategy,2023.2.3,Win32,59.17159763,3,2,1,,,,,,,,5,09,,,,,,,,,,,5,9.743,1,,,,,,-0.360185185,-0.394444444,1,0,0,9.7434,Obsidian_rect,0,0,0,0,1,
662004840cf5731b955a2d0f,SCN,2024-06-26_13h35.18.427,LearnStrategy,2023.2.3,Win32,59.17159763,3,2,2,,,,,,,,7,07,,,,,,,,,,,4,2.455,0,,,,,,0.355555556,-0.258333333,1,0,0,2.4551,Gabbro_rect,1,0,1,0,1,
662004840cf5731b955a2d0f,SCN,2024-06-26_13h35.18.427,LearnStrategy,2023.2.3,Win32,59.17159763,3,2,3,,,,,,,,4,12,,,,,,,,,,,4,1.428,1,,,,,,0.346296296,-0.258333333,1,0,0,1.4279,Gabbro_rect,2,0,2,0,1,
662004840cf5731b955a2d0f,SCN,2024-06-26_13h35.18.427,LearnStrategy,2023.2.3,Win32,59.17159763,3,2,4,,,,,,,,5,16,,,,,,,,,,,5,2.695,1,,,,,,-0.375925926,-0.407407407,1,0,0,2.6951,Obsidian_rect,3,0,3,0,1,
662004840cf5731b955a2d0f,SCN,2024-06-26_13h35.18.427,LearnStrategy,2023.2.3,Win32,59.17159763,3,2,5,,,,,,,,2,09,,,,,,,,,,,8,0.989,0,,,,,,0.362962963,-0.412037037,1,0,0,0.9889,Pumice_rect,4,0,4,0,1,
662004840cf5731b955a2d0f,SCN,2024-06-26_13h35.18.427,LearnStrategy,2023.2.3,Win32,59.17159763,3,2,6,,,,,,,,6,15,,,,,,,,,,,6,2.194,1,,,,,,-0.02962963,-0.398148148,1,0,0,2.194,Pegmatite_rect,5,0,5,0,1,
662004840cf5731b955a2d0f,SCN,2024-06-26_13h35.18.427,LearnStrategy,2023.2.3,Win32,59.17159763,3,2,7,,,,,,,,3,11,,,,,,,,,,,3,2.622,1,,,,,,0.135185185,-0.253703704,1,0,0,2.6217,Diorite_rect,6,0,6,0,1,
662004840cf5731b955a2d0f,SCN,2024-06-26_13h35.18.427,LearnStrategy,2023.2.3,Win32,59.17159763,3,2,8,,,,,,,,8,14,,,,,,,,,,,8,0.978,1,,,,,,0.378703704,-0.386111111,1,0,0,0.9784,Pumice_rect,7,0,7,0,1,
662004840cf5731b955a2d0f,SCN,2024-06-26_13h35.18.427,LearnStrategy,2023.2.3,Win32,59.17159763,3,2,9,,,,,,,,1,01,,,,,,,,,,,8,0.911,0,,,,,,0.352777778,-0.387962963,1,0,0,0.9109,Pumice_rect,8,0,8,0,1,
662004840cf5731b955a2d0f,SCN,2024-06-26_13h35.18.427,LearnStrategy,2023.2.3,Win32,59.17159763,3,2,10,,,,,,,,7,14,,,,,,,,,,,4,1.245,0,,,,,,0.34537037,-0.264814815,1,0,0,1.2452,Gabbro_rect,9,0,9,0,1,
662004840cf5731b955a2d0f,SCN,2024-06-26_13h35.18.427,LearnStrategy,2023.2.3,Win32,59.17159763,3,2,11,,,,,,,,2,02,,,,,,,,,,,8,1.379,0,,,,,,0.366666667,-0.400925926,1,0,0,1.3786,Pumice_rect,10,0,10,0,1,
662004840cf5731b955a2d0f,SCN,2024-06-26_13h35.18.427,LearnStrategy,2023.2.3,Win32,59.17159763,3,2,12,,,,,,,,4,15,,,,,,,,,,,3,2.894,0,,,,,,0.177777778,-0.264814815,1,0,0,2.8941,Diorite_rect,11,0,11,0,1,
662004840cf5731b955a2d0f,SCN,2024-06-26_13h35.18.427,LearnStrategy,2023.2.3,Win32,59.17159763,3,2,13,,,,,,,,3,10,,,,,,,,,,,3,0.973,1,,,,,,0.185185185,-0.267592593,1,0,0,0.9725,Diorite_rect,12,0,12,0,1,
662004840cf5731b955a2d0f,SCN,2024-06-26_13h35.18.427,LearnStrategy,2023.2.3,Win32,59.17159763,3,2,14,,,,,,,,8,02,,,,,,,,,,,8,1.161,1,,,,,,0.37037037,-0.402777778,1,0,0,1.1611,Pumice_rect,13,0,13,0,1,
662004840cf5731b955a2d0f,SCN,2024-06-26_13h35.18.427,LearnStrategy,2023.2.3,Win32,59.17159763,3,2,15,,,,,,,,6,12,,,,,,,,,,,5,1.335,0,,,,,,-0.380555556,-0.383333333,1,0,0,1.3347,Obsidian_rect,14,0,14,0,1,
662004840cf5731b955a2d0f,SCN,2024-06-26_13h35.18.427,LearnStrategy,2023.2.3,Win32,59.17159763,3,2,16,,,,,,,,1,02,,,,,,,,,,,8,1.177,0,,,,,,0.452777778,-0.42037037,1,0,0,1.1767,Pumice_rect,15,0,15,0,1,
662004840cf5731b955a2d0f,SCN,2024-06-26_13h35.18.427,LearnStrategy,2023.2.3,Win32,59.17159763,4,1,1,-0.228703704,0.400925926,1,0,0,0.8825,Pegmatite_10,6,10,6,3,0.883,-0.488888889,-0.398148148,1,0,0,0.8939,Obsidian_rect,5,0.894,0,0,0,0,0,1,,,,,,,,,,,,,
662004840cf5731b955a2d0f,SCN,2024-06-26_13h35.18.427,LearnStrategy,2023.2.3,Win32,59.17159763,4,1,2,-0.07037037,0.409259259,1,0,0,1.4154,Obsidian_07,5,07,6,4,1.415,-0.349074074,-0.402777778,1,0,0,1.6939,Obsidian_rect,5,1.694,1,1,0,1,0,1,,,,,,,,,,,,,
662004840cf5731b955a2d0f,SCN,2024-06-26_13h35.18.427,LearnStrategy,2023.2.3,Win32,59.17159763,4,1,3,-0.418518519,-0.286111111,1,0,0,1.2143,Obsidian_02,5,02,2,2,1.214,-0.411111111,-0.384259259,1,0,0,0.6781,Obsidian_rect,5,0.678,1,2,0,2,0,1,,,,,,,,,,,,,
662004840cf5731b955a2d0f,SCN,2024-06-26_13h35.18.427,LearnStrategy,2023.2.3,Win32,59.17159763,4,1,4,-0.081481481,-0.063888889,1,0,0,0.7483,Andesite_09,1,09,3,4,0.748,0.403703704,-0.410185185,1,0,0,1.7776,Pumice_rect,8,1.778,0,3,0,3,0,1,,,,,,,,,,,,,
662004840cf5731b955a2d0f,SCN,2024-06-26_13h35.18.427,LearnStrategy,2023.2.3,Win32,59.17159763,4,1,5,0.244444444,-0.097222222,1,0,0,0.6319,Pegmatite_13,6,13,3,6,0.632,0.115740741,-0.262962963,1,0,0,1.3278,Diorite_rect,3,1.328,0,4,0,4,0,1,,,,,,,,,,,,,
662004840cf5731b955a2d0f,SCN,2024-06-26_13h35.18.427,LearnStrategy,2023.2.3,Win32,59.17159763,4,1,6,0.211111111,-0.401851852,1,0,0,0.8324,Pumice_03,8,03,1,6,0.832,0.341666667,-0.401851852,1,0,0,0.5945,Pumice_rect,8,0.595,1,5,0,5,0,1,,,,,,,,,,,,,
662004840cf5731b955a2d0f,SCN,2024-06-26_13h35.18.427,LearnStrategy,2023.2.3,Win32,59.17159763,4,1,7,0.560185185,-0.424074074,1,0,0,0.7652,Gabbro_14,4,14,1,8,0.765,0.151851852,-0.260185185,1,0,0,1.4611,Diorite_rect,3,1.461,0,6,0,6,0,1,,,,,,,,,,,,,
662004840cf5731b955a2d0f,SCN,2024-06-26_13h35.18.427,LearnStrategy,2023.2.3,Win32,59.17159763,4,1,8,0.523148148,-0.121296296,1,0,0,0.7661,Peridotite_15,7,15,3,8,0.766,-0.106481481,-0.406481481,1,0,0,1.8613,Pegmatite_rect,6,1.861,0,7,0,7,0,1,,,,,,,,,,,,,
662004840cf5731b955a2d0f,SCN,2024-06-26_13h35.18.427,LearnStrategy,2023.2.3,Win32,59.17159763,4,1,9,-0.222222222,0.085185185,1,0,0,0.9655,Peridotite_13,7,13,4,3,0.966,0.198148148,-0.419444444,1,0,0,0.628,Peridotite_rect,7,0.628,1,8,0,8,0,1,,,,,,,,,,,,,
662004840cf5731b955a2d0f,SCN,2024-06-26_13h35.18.427,LearnStrategy,2023.2.3,Win32,59.17159763,4,1,10,0.065740741,0.064814815,1,0,0,0.7157,Andesite_03,1,03,4,5,0.716,0.438888889,-0.414814815,1,0,0,0.8101,Pumice_rect,8,0.81,0,9,0,9,0,1,,,,,,,,,,,,,
662004840cf5731b955a2d0f,SCN,2024-06-26_13h35.18.427,LearnStrategy,2023.2.3,Win32,59.17159763,4,1,11,0.524074074,0.400925926,1,0,0,0.8822,Peridotite_06,7,06,6,8,0.882,0.384259259,-0.267592593,1,0,0,1.0107,Gabbro_rect,4,1.011,0,10,0,10,0,1,,,,,,,,,,,,,
662004840cf5731b955a2d0f,SCN,2024-06-26_13h35.18.427,LearnStrategy,2023.2.3,Win32,59.17159763,4,1,12,0.094444444,-0.062962963,1,0,0,0.632,Diorite_09,3,09,3,5,0.632,0.375925926,-0.256481481,1,0,0,1.0446,Gabbro_rect,4,1.045,0,11,0,11,0,1,,,,,,,,,,,,,
662004840cf5731b955a2d0f,SCN,2024-06-26_13h35.18.427,LearnStrategy,2023.2.3,Win32,59.17159763,4,1,13,-0.355555556,0.110185185,1,0,0,1.3161,Pegmatite_11,6,11,4,2,1.316,-0.323148148,-0.416666667,1,0,0,0.9605,Obsidian_rect,5,0.96,0,12,0,12,0,1,,,,,,,,,,,,,
662004840cf5731b955a2d0f,SCN,2024-06-26_13h35.18.427,LearnStrategy,2023.2.3,Win32,59.17159763,4,1,14,0.09537037,-0.440740741,1,0,0,0.8984,Basalt_06,2,06,1,5,0.898,0.326851852,-0.410185185,1,0,0,0.8118,Pumice_rect,8,0.812,0,13,0,13,0,1,,,,,,,,,,,,,
662004840cf5731b955a2d0f,SCN,2024-06-26_13h35.18.427,LearnStrategy,2023.2.3,Win32,59.17159763,4,1,15,0.237037037,-0.422222222,1,0,0,0.8992,Pumice_03,8,03,1,6,0.899,-0.150925926,-0.252777778,1,0,0,1.7368,Basalt_rect,2,1.737,0,14,0,14,0,1,,,,,,,,,,,,,
662004840cf5731b955a2d0f,SCN,2024-06-26_13h35.18.427,LearnStrategy,2023.2.3,Win32,59.17159763,4,1,16,-0.351851852,0.277777778,1,0,0,1.9767,Basalt_14,2,14,5,2,1.977,0.476851852,-0.408333333,1,0,0,1.0442,Pumice_rect,8,1.044,0,15,0,15,0,1,,,,,,,,,,,,,
662004840cf5731b955a2d0f,SCN,2024-06-26_13h35.18.427,LearnStrategy,2023.2.3,Win32,59.17159763,4,2,1,,,,,,,,8,10,,,,,,,,,,,8,4.628,1,,,,,,0.367592593,-0.407407407,1,0,0,4.6275,Pumice_rect,0,0,0,0,1,
662004840cf5731b955a2d0f,SCN,2024-06-26_13h35.18.427,LearnStrategy,2023.2.3,Win32,59.17159763,4,2,2,,,,,,,,7,07,,,,,,,,,,,2,2.172,0,,,,,,-0.078703704,-0.25,1,0,0,2.1721,Basalt_rect,1,0,1,0,1,
662004840cf5731b955a2d0f,SCN,2024-06-26_13h35.18.427,LearnStrategy,2023.2.3,Win32,59.17159763,4,2,3,,,,,,,,2,01,,,,,,,,,,,8,1.295,0,,,,,,0.403703704,-0.414814815,1,0,0,1.2946,Pumice_rect,2,0,2,0,1,
662004840cf5731b955a2d0f,SCN,2024-06-26_13h35.18.427,LearnStrategy,2023.2.3,Win32,59.17159763,4,2,4,,,,,,,,3,08,,,,,,,,,,,3,1.828,1,,,,,,0.180555556,-0.255555556,1,0,0,1.8282,Diorite_rect,3,0,3,0,1,
662004840cf5731b955a2d0f,SCN,2024-06-26_13h35.18.427,LearnStrategy,2023.2.3,Win32,59.17159763,4,2,5,,,,,,,,6,12,,,,,,,,,,,7,0.845,0,,,,,,0.143518519,-0.397222222,1,0,0,0.8449,Peridotite_rect,4,0,4,0,1,
662004840cf5731b955a2d0f,SCN,2024-06-26_13h35.18.427,LearnStrategy,2023.2.3,Win32,59.17159763,4,2,6,,,,,,,,2,11,,,,,,,,,,,8,1.128,0,,,,,,0.446296296,-0.40462963,1,0,0,1.1276,Pumice_rect,5,0,5,0,1,
662004840cf5731b955a2d0f,SCN,2024-06-26_13h35.18.427,LearnStrategy,2023.2.3,Win32,59.17159763,4,2,7,,,,,,,,7,10,,,,,,,,,,,6,1.161,0,,,,,,-0.072222222,-0.37962963,1,0,0,1.1613,Pegmatite_rect,6,0,6,0,1,
662004840cf5731b955a2d0f,SCN,2024-06-26_13h35.18.427,LearnStrategy,2023.2.3,Win32,59.17159763,4,2,8,,,,,,,,5,08,,,,,,,,,,,5,0.961,1,,,,,,-0.357407407,-0.390740741,1,0,0,0.9613,Obsidian_rect,7,0,7,0,1,
662004840cf5731b955a2d0f,SCN,2024-06-26_13h35.18.427,LearnStrategy,2023.2.3,Win32,59.17159763,4,2,9,,,,,,,,6,16,,,,,,,,,,,5,0.745,0,,,,,,-0.357407407,-0.390740741,1,0,0,0.7449,Obsidian_rect,8,0,8,0,1,
662004840cf5731b955a2d0f,SCN,2024-06-26_13h35.18.427,LearnStrategy,2023.2.3,Win32,59.17159763,4,2,10,,,,,,,,1,14,,,,,,,,,,,3,1.295,0,,,,,,0.090740741,-0.260185185,1,0,0,1.2953,Diorite_rect,9,0,9,0,1,
662004840cf5731b955a2d0f,SCN,2024-06-26_13h35.18.427,LearnStrategy,2023.2.3,Win32,59.17159763,4,2,11,,,,,,,,1,02,,,,,,,,,,,8,0.862,0,,,,,,0.313888889,-0.383333333,1,0,0,0.8618,Pumice_rect,10,0,10,0,1,
662004840cf5731b955a2d0f,SCN,2024-06-26_13h35.18.427,LearnStrategy,2023.2.3,Win32,59.17159763,4,2,12,,,,,,,,3,11,,,,,,,,,,,2,1.379,0,,,,,,-0.081481481,-0.251851852,1,0,0,1.3786,Basalt_rect,11,0,11,0,1,
662004840cf5731b955a2d0f,SCN,2024-06-26_13h35.18.427,LearnStrategy,2023.2.3,Win32,59.17159763,4,2,13,,,,,,,,8,05,,,,,,,,,,,8,1.795,1,,,,,,0.342592593,-0.392592593,1,0,0,1.7949,Pumice_rect,12,0,12,0,1,
662004840cf5731b955a2d0f,SCN,2024-06-26_13h35.18.427,LearnStrategy,2023.2.3,Win32,59.17159763,4,2,14,,,,,,,,4,12,,,,,,,,,,,4,1.055,1,,,,,,0.366666667,-0.256481481,1,0,0,1.0555,Gabbro_rect,13,0,13,0,1,
662004840cf5731b955a2d0f,SCN,2024-06-26_13h35.18.427,LearnStrategy,2023.2.3,Win32,59.17159763,4,2,15,,,,,,,,5,09,,,,,,,,,,,5,1.028,1,,,,,,-0.440740741,-0.387962963,1,0,0,1.0279,Obsidian_rect,14,0,14,0,1,
662004840cf5731b955a2d0f,SCN,2024-06-26_13h35.18.427,LearnStrategy,2023.2.3,Win32,59.17159763,4,2,16,,,,,,,,4,09,,,,,,,,,,,4,1.378,1,,,,,,0.348148148,-0.250925926,1,0,0,1.3777,Gabbro_rect,15,0,15,0,1,
662004840cf5731b955a2d0f,SCN,2024-06-26_13h35.18.427,LearnStrategy,2023.2.3,Win32,59.17159763,5,1,1,-0.231481481,0.387037037,1,0,0,18.4073,Pegmatite_10,6,10,6,3,18.407,-0.382407407,-0.396296296,1,0,0,0.6025,Obsidian_rect,5,0.602,0,0,0,0,0,1,,,,,,,,,,,,,
662004840cf5731b955a2d0f,SCN,2024-06-26_13h35.18.427,LearnStrategy,2023.2.3,Win32,59.17159763,5,1,2,-0.230555556,-0.272222222,1,0,0,0.783,Basalt_12,2,12,2,3,0.783,-0.150925926,-0.262962963,1,0,0,1.4272,Basalt_rect,2,1.427,1,1,0,1,0,1,,,,,,,,,,,,,
662004840cf5731b955a2d0f,SCN,2024-06-26_13h35.18.427,LearnStrategy,2023.2.3,Win32,59.17159763,5,1,3,0.067592593,-0.107407407,1,0,0,0.9987,Diorite_09,3,09,3,5,0.999,0.351851852,-0.267592593,1,0,0,1.4272,Gabbro_rect,4,1.427,0,2,0,2,0,1,,,,,,,,,,,,,
662004840cf5731b955a2d0f,SCN,2024-06-26_13h35.18.427,LearnStrategy,2023.2.3,Win32,59.17159763,5,1,4,0.232407407,-0.428703704,1,0,0,0.6824,Pumice_03,8,03,1,6,0.682,0.314814815,-0.403703704,1,0,0,0.4607,Pumice_rect,8,0.461,1,3,0,3,0,1,,,,,,,,,,,,,
662004840cf5731b955a2d0f,SCN,2024-06-26_13h35.18.427,LearnStrategy,2023.2.3,Win32,59.17159763,5,1,5,-0.566666667,0.063888889,1,0,0,0.8157,Pumice_06,8,06,4,1,0.816,0.368518519,-0.262962963,1,0,0,0.8442,Gabbro_rect,4,0.844,0,4,0,4,0,1,,,,,,,,,,,,,
662004840cf5731b955a2d0f,SCN,2024-06-26_13h35.18.427,LearnStrategy,2023.2.3,Win32,59.17159763,5,1,6,-0.543518519,0.233333333,1,0,0,0.7827,Gabbro_13,4,13,5,1,0.783,0.341666667,-0.268518519,1,0,0,1.2105,Gabbro_rect,4,1.211,1,5,0,5,0,1,,,,,,,,,,,,,
662004840cf5731b955a2d0f,SCN,2024-06-26_13h35.18.427,LearnStrategy,2023.2.3,Win32,59.17159763,5,1,7,-0.531481481,-0.092592593,1,0,0,1.3325,Pegmatite_07,6,07,3,1,1.332,-0.097222222,-0.390740741,1,0,0,1.2603,Pegmatite_rect,6,1.26,1,6,0,6,0,1,,,,,,,,,,,,,
662004840cf5731b955a2d0f,SCN,2024-06-26_13h35.18.427,LearnStrategy,2023.2.3,Win32,59.17159763,5,1,8,0.365740741,0.252777778,1,0,0,1.1995,Andesite_05,1,05,5,7,1.199,0.463888889,-0.250925926,1,0,0,1.1108,Gabbro_rect,4,1.111,0,7,0,7,0,1,,,,,,,,,,,,,
662004840cf5731b955a2d0f,SCN,2024-06-26_13h35.18.427,LearnStrategy,2023.2.3,Win32,59.17159763,5,1,9,0.080555556,-0.075925926,1,0,0,0.7491,Diorite_09,3,09,3,5,0.749,0.361111111,-0.257407407,1,0,0,1.2273,Gabbro_rect,4,1.227,0,8,0,8,0,1,,,,,,,,,,,,,
662004840cf5731b955a2d0f,SCN,2024-06-26_13h35.18.427,LearnStrategy,2023.2.3,Win32,59.17159763,5,1,10,0.398148148,-0.113888889,1,0,0,0.9991,Obsidian_10,5,10,3,7,0.999,-0.432407407,-0.410185185,1,0,0,0.7777,Obsidian_rect,5,0.778,1,9,0,9,0,1,,,,,,,,,,,,,
662004840cf5731b955a2d0f,SCN,2024-06-26_13h35.18.427,LearnStrategy,2023.2.3,Win32,59.17159763,5,1,11,0.108333333,-0.426851852,1,0,0,0.9658,Basalt_06,2,06,1,5,0.966,0.326851852,-0.414814815,1,0,0,1.0275,Pumice_rect,8,1.028,0,10,0,10,0,1,,,,,,,,,,,,,
662004840cf5731b955a2d0f,SCN,2024-06-26_13h35.18.427,LearnStrategy,2023.2.3,Win32,59.17159763,5,1,12,0.414814815,-0.422222222,1,0,0,1.132,Obsidian_12,5,12,1,7,1.132,-0.359259259,-0.406481481,1,0,0,0.9948,Obsidian_rect,5,0.995,1,11,0,11,0,1,,,,,,,,,,,,,
662004840cf5731b955a2d0f,SCN,2024-06-26_13h35.18.427,LearnStrategy,2023.2.3,Win32,59.17159763,5,1,13,-0.362037037,0.117592593,1,0,0,0.8989,Pegmatite_11,6,11,4,2,0.899,-0.385185185,-0.412962963,1,0,0,1.9945,Obsidian_rect,5,1.995,0,12,0,12,0,1,,,,,,,,,,,,,
662004840cf5731b955a2d0f,SCN,2024-06-26_13h35.18.427,LearnStrategy,2023.2.3,Win32,59.17159763,5,1,14,-0.556481481,0.375925926,1,0,0,1.6323,Peridotite_05,7,05,6,1,1.632,0.368518519,-0.246296296,1,0,0,1.1441,Gabbro_rect,4,1.144,0,13,0,13,0,1,,,,,,,,,,,,,
662004840cf5731b955a2d0f,SCN,2024-06-26_13h35.18.427,LearnStrategy,2023.2.3,Win32,59.17159763,5,1,15,-0.073148148,0.406481481,1,0,0,0.8325,Obsidian_07,5,07,6,4,0.833,-0.377777778,-0.415740741,1,0,0,1.1281,Obsidian_rect,5,1.128,1,14,0,14,0,1,,,,,,,,,,,,,
662004840cf5731b955a2d0f,SCN,2024-06-26_13h35.18.427,LearnStrategy,2023.2.3,Win32,59.17159763,5,1,16,0.258333333,0.371296296,1,0,0,1.7825,Basalt_05,2,05,6,6,1.783,0.374074074,-0.258333333,1,0,0,0.8773,Gabbro_rect,4,0.877,0,15,0,15,0,1,,,,,,,,,,,,,
662004840cf5731b955a2d0f,SCN,2024-06-26_13h35.18.427,LearnStrategy,2023.2.3,Win32,59.17159763,5,2,1,,,,,,,,7,14,,,,,,,,,,,2,2.311,0,,,,,,-0.14537037,-0.249074074,1,0,0,2.3111,Basalt_rect,0,0,0,0,1,
662004840cf5731b955a2d0f,SCN,2024-06-26_13h35.18.427,LearnStrategy,2023.2.3,Win32,59.17159763,5,2,2,,,,,,,,5,16,,,,,,,,,,,5,0.978,1,,,,,,-0.327777778,-0.400925926,1,0,0,0.9783,Obsidian_rect,1,0,1,0,1,
662004840cf5731b955a2d0f,SCN,2024-06-26_13h35.18.427,LearnStrategy,2023.2.3,Win32,59.17159763,5,2,3,,,,,,,,1,01,,,,,,,,,,,8,1.261,0,,,,,,0.45462963,-0.408333333,1,0,0,1.2611,Pumice_rect,2,0,2,0,1,
662004840cf5731b955a2d0f,SCN,2024-06-26_13h35.18.427,LearnStrategy,2023.2.3,Win32,59.17159763,5,2,4,,,,,,,,3,10,,,,,,,,,,,2,1.111,0,,,,,,-0.132407407,-0.260185185,1,0,0,1.1115,Basalt_rect,3,0,3,0,1,
662004840cf5731b955a2d0f,SCN,2024-06-26_13h35.18.427,LearnStrategy,2023.2.3,Win32,59.17159763,5,2,5,,,,,,,,4,01,,,,,,,,,,,4,2.044,1,,,,,,0.439814815,-0.25,1,0,0,2.0441,Gabbro_rect,4,0,4,0,1,
662004840cf5731b955a2d0f,SCN,2024-06-26_13h35.18.427,LearnStrategy,2023.2.3,Win32,59.17159763,5,2,6,,,,,,,,1,04,,,,,,,,,,,8,1.089,0,,,,,,0.344444444,-0.400925926,1,0,0,1.089,Pumice_rect,5,0,5,0,1,
662004840cf5731b955a2d0f,SCN,2024-06-26_13h35.18.427,LearnStrategy,2023.2.3,Win32,59.17159763,5,2,7,,,,,,,,3,12,,,,,,,,,,,2,1.211,0,,,,,,-0.056481481,-0.258333333,1,0,0,1.2114,Basalt_rect,6,0,6,0,1,
662004840cf5731b955a2d0f,SCN,2024-06-26_13h35.18.427,LearnStrategy,2023.2.3,Win32,59.17159763,5,2,8,,,,,,,,2,09,,,,,,,,,,,8,1.045,0,,,,,,0.472222222,-0.398148148,1,0,0,1.0446,Pumice_rect,7,0,7,0,1,
662004840cf5731b955a2d0f,SCN,2024-06-26_13h35.18.427,LearnStrategy,2023.2.3,Win32,59.17159763,5,2,9,,,,,,,,7,02,,,,,,,,,,,6,1.794,0,,,,,,-0.068518519,-0.387037037,1,0,0,1.7942,Pegmatite_rect,8,0,8,0,1,
662004840cf5731b955a2d0f,SCN,2024-06-26_13h35.18.427,LearnStrategy,2023.2.3,Win32,59.17159763,5,2,10,,,,,,,,8,14,,,,,,,,,,,8,0.878,1,,,,,,0.414814815,-0.397222222,1,0,0,0.878,Pumice_rect,9,0,9,0,1,
662004840cf5731b955a2d0f,SCN,2024-06-26_13h35.18.427,LearnStrategy,2023.2.3,Win32,59.17159763,5,2,11,,,,,,,,6,15,,,,,,,,,,,5,0.978,0,,,,,,-0.382407407,-0.390740741,1,0,0,0.9778,Obsidian_rect,10,0,10,0,1,
662004840cf5731b955a2d0f,SCN,2024-06-26_13h35.18.427,LearnStrategy,2023.2.3,Win32,59.17159763,5,2,12,,,,,,,,5,05,,,,,,,,,,,5,0.695,1,,,,,,-0.35,-0.4,1,0,0,0.6949,Obsidian_rect,11,0,11,0,1,
662004840cf5731b955a2d0f,SCN,2024-06-26_13h35.18.427,LearnStrategy,2023.2.3,Win32,59.17159763,5,2,13,,,,,,,,2,04,,,,,,,,,,,2,1.528,1,,,,,,-0.107407407,-0.260185185,1,0,0,1.5282,Basalt_rect,12,0,12,0,1,
662004840cf5731b955a2d0f,SCN,2024-06-26_13h35.18.427,LearnStrategy,2023.2.3,Win32,59.17159763,5,2,14,,,,,,,,6,09,,,,,,,,,,,5,1.011,0,,,,,,-0.307407407,-0.382407407,1,0,0,1.0111,Obsidian_rect,13,0,13,0,1,
662004840cf5731b955a2d0f,SCN,2024-06-26_13h35.18.427,LearnStrategy,2023.2.3,Win32,59.17159763,5,2,15,,,,,,,,8,02,,,,,,,,,,,8,1.061,1,,,,,,0.332407407,-0.381481481,1,0,0,1.0614,Pumice_rect,14,0,14,0,1,
662004840cf5731b955a2d0f,SCN,2024-06-26_13h35.18.427,LearnStrategy,2023.2.3,Win32,59.17159763,5,2,16,,,,,,,,4,15,,,,,,,,,,,6,1.477,0,,,,,,-0.073148148,-0.408333333,1,0,0,1.4775,Pegmatite_rect,15,0,15,0,1,
662004840cf5731b955a2d0f,SCN,2024-06-26_13h35.18.427,LearnStrategy,2023.2.3,Win32,59.17159763,6,1,1,-0.066666667,0.061111111,1,0,0,1.3757,Pumice_13,8,13,4,4,1.376,-0.111111111,-0.253703704,1,0,0,1.4151,Basalt_rect,2,1.415,0,0,0,0,0,1,,,,,,,,,,,,,
662004840cf5731b955a2d0f,SCN,2024-06-26_13h35.18.427,LearnStrategy,2023.2.3,Win32,59.17159763,6,1,2,0.063888889,-0.098148148,1,0,0,0.7828,Diorite_09,3,09,3,5,0.783,-0.082407407,-0.239814815,1,0,0,1.1443,Basalt_rect,2,1.144,0,1,0,1,0,1,,,,,,,,,,,,,
662004840cf5731b955a2d0f,SCN,2024-06-26_13h35.18.427,LearnStrategy,2023.2.3,Win32,59.17159763,6,1,3,0.234259259,-0.44537037,1,0,0,1.0321,Pumice_03,8,03,1,6,1.032,0.32962963,-0.394444444,1,0,0,0.7373,Pumice_rect,8,0.737,1,2,0,2,0,1,,,,,,,,,,,,,
662004840cf5731b955a2d0f,SCN,2024-06-26_13h35.18.427,LearnStrategy,2023.2.3,Win32,59.17159763,6,1,4,0.423148148,-0.287962963,1,0,0,0.7432,Pumice_16,8,16,2,7,0.743,0.387037037,-0.248148148,1,0,0,1.0443,Gabbro_rect,4,1.044,0,3,0,3,0,1,,,,,,,,,,,,,
662004840cf5731b955a2d0f,SCN,2024-06-26_13h35.18.427,LearnStrategy,2023.2.3,Win32,59.17159763,6,1,5,-0.246296296,-0.424074074,1,0,0,2.0146,Andesite_07,1,07,1,3,2.015,0.392592593,-0.391666667,1,0,0,1.0611,Pumice_rect,8,1.061,0,4,0,4,0,1,,,,,,,,,,,,,
662004840cf5731b955a2d0f,SCN,2024-06-26_13h35.18.427,LearnStrategy,2023.2.3,Win32,59.17159763,6,1,6,0.37962963,0.083333333,1,0,0,1.0658,Gabbro_03,4,03,4,7,1.066,0.449074074,-0.267592593,1,0,0,1.7271,Gabbro_rect,4,1.727,1,5,0,5,0,1,,,,,,,,,,,,,
662004840cf5731b955a2d0f,SCN,2024-06-26_13h35.18.427,LearnStrategy,2023.2.3,Win32,59.17159763,6,1,7,0.423148148,0.381481481,1,0,0,0.8831,Peridotite_04,7,04,6,7,0.883,-0.187962963,-0.418518519,1,0,0,1.5775,Pegmatite_rect,6,1.578,0,6,0,6,0,1,,,,,,,,,,,,,
662004840cf5731b955a2d0f,SCN,2024-06-26_13h35.18.427,LearnStrategy,2023.2.3,Win32,59.17159763,6,1,8,0.572222222,0.072222222,1,0,0,0.6985,Gabbro_08,4,08,4,8,0.698,0.178703704,-0.405555556,1,0,0,0.8947,Peridotite_rect,7,0.895,0,7,0,7,0,1,,,,,,,,,,,,,
662004840cf5731b955a2d0f,SCN,2024-06-26_13h35.18.427,LearnStrategy,2023.2.3,Win32,59.17159763,6,1,9,-0.353703704,0.089814815,1,0,0,1.2491,Pegmatite_11,6,11,4,2,1.249,0.147222222,-0.409259259,1,0,0,0.6277,Peridotite_rect,7,0.628,0,8,0,8,0,1,,,,,,,,,,,,,
662004840cf5731b955a2d0f,SCN,2024-06-26_13h35.18.427,LearnStrategy,2023.2.3,Win32,59.17159763,6,1,10,0.025,-0.259259259,1,0,0,0.7823,Obsidian_04,5,04,2,5,0.782,-0.409259259,-0.415740741,1,0,0,1.1605,Obsidian_rect,5,1.16,1,9,0,9,0,1,,,,,,,,,,,,,
662004840cf5731b955a2d0f,SCN,2024-06-26_13h35.18.427,LearnStrategy,2023.2.3,Win32,59.17159763,6,1,11,0.278703704,-0.258333333,1,0,0,1.149,Obsidian_06,5,06,2,6,1.149,-0.385185185,-0.417592593,1,0,0,0.7282,Obsidian_rect,5,0.728,1,10,0,10,0,1,,,,,,,,,,,,,
662004840cf5731b955a2d0f,SCN,2024-06-26_13h35.18.427,LearnStrategy,2023.2.3,Win32,59.17159763,6,1,12,-0.548148148,0.255555556,1,0,0,0.8154,Gabbro_13,4,13,5,1,0.815,0.337037037,-0.267592593,1,0,0,1.3103,Gabbro_rect,4,1.31,1,11,0,11,0,1,,,,,,,,,,,,,
662004840cf5731b955a2d0f,SCN,2024-06-26_13h35.18.427,LearnStrategy,2023.2.3,Win32,59.17159763,6,1,13,-0.498148148,0.40462963,1,0,0,0.6823,Peridotite_05,7,05,6,1,0.682,0.140740741,-0.261111111,1,0,0,0.9276,Diorite_rect,3,0.928,0,12,0,12,0,1,,,,,,,,,,,,,
662004840cf5731b955a2d0f,SCN,2024-06-26_13h35.18.427,LearnStrategy,2023.2.3,Win32,59.17159763,6,1,14,-0.232407407,-0.42962963,1,0,0,0.7829,Andesite_07,1,07,1,3,0.783,0.066666667,-0.396296296,1,0,0,0.9603,Peridotite_rect,7,0.96,0,13,0,13,0,1,,,,,,,,,,,,,
662004840cf5731b955a2d0f,SCN,2024-06-26_13h35.18.427,LearnStrategy,2023.2.3,Win32,59.17159763,6,1,15,-0.509259259,0.087962963,1,0,0,1.5654,Pumice_06,8,06,4,1,1.565,0.49537037,-0.413888889,1,0,0,0.7943,Pumice_rect,8,0.794,1,14,0,14,0,1,,,,,,,,,,,,,
662004840cf5731b955a2d0f,SCN,2024-06-26_13h35.18.427,LearnStrategy,2023.2.3,Win32,59.17159763,6,1,16,0.065740741,0.056481481,1,0,0,0.6323,Andesite_03,1,03,4,5,0.632,0.364814815,-0.421296296,1,0,0,0.5776,Pumice_rect,8,0.578,0,15,0,15,0,1,,,,,,,,,,,,,
662004840cf5731b955a2d0f,SCN,2024-06-26_13h35.18.427,LearnStrategy,2023.2.3,Win32,59.17159763,6,2,1,,,,,,,,8,09,,,,,,,,,,,8,2.282,1,,,,,,0.317592593,-0.387037037,1,0,0,2.2819,Pumice_rect,0,0,0,0,1,
662004840cf5731b955a2d0f,SCN,2024-06-26_13h35.18.427,LearnStrategy,2023.2.3,Win32,59.17159763,6,2,2,,,,,,,,5,11,,,,,,,,,,,5,0.845,1,,,,,,-0.403703704,-0.418518519,1,0,0,0.8452,Obsidian_rect,1,0,1,0,1,
662004840cf5731b955a2d0f,SCN,2024-06-26_13h35.18.427,LearnStrategy,2023.2.3,Win32,59.17159763,6,2,3,,,,,,,,4,11,,,,,,,,,,,4,1.379,1,,,,,,0.441666667,-0.266666667,1,0,0,1.3785,Gabbro_rect,2,0,2,0,1,
662004840cf5731b955a2d0f,SCN,2024-06-26_13h35.18.427,LearnStrategy,2023.2.3,Win32,59.17159763,6,2,4,,,,,,,,7,08,,,,,,,,,,,7,1.728,1,,,,,,0.147222222,-0.406481481,1,0,0,1.7283,Peridotite_rect,3,0,3,0,1,
662004840cf5731b955a2d0f,SCN,2024-06-26_13h35.18.427,LearnStrategy,2023.2.3,Win32,59.17159763,6,2,5,,,,,,,,3,06,,,,,,,,,,,7,1.061,0,,,,,,0.140740741,-0.405555556,1,0,0,1.0614,Peridotite_rect,4,0,4,0,1,
662004840cf5731b955a2d0f,SCN,2024-06-26_13h35.18.427,LearnStrategy,2023.2.3,Win32,59.17159763,6,2,6,,,,,,,,2,02,,,,,,,,,,,4,1.495,0,,,,,,0.34537037,-0.248148148,1,0,0,1.4952,Gabbro_rect,5,0,5,0,1,
662004840cf5731b955a2d0f,SCN,2024-06-26_13h35.18.427,LearnStrategy,2023.2.3,Win32,59.17159763,6,2,7,,,,,,,,6,03,,,,,,,,,,,5,1.328,0,,,,,,-0.374074074,-0.409259259,1,0,0,1.3283,Obsidian_rect,6,0,6,0,1,
662004840cf5731b955a2d0f,SCN,2024-06-26_13h35.18.427,LearnStrategy,2023.2.3,Win32,59.17159763,6,2,8,,,,,,,,8,15,,,,,,,,,,,8,0.978,1,,,,,,0.481481481,-0.396296296,1,0,0,0.9782,Pumice_rect,7,0,7,0,1,
662004840cf5731b955a2d0f,SCN,2024-06-26_13h35.18.427,LearnStrategy,2023.2.3,Win32,59.17159763,6,2,9,,,,,,,,7,16,,,,,,,,,,,7,3.095,1,,,,,,0.060185185,-0.410185185,1,0,0,3.0952,Peridotite_rect,8,0,8,0,1,
662004840cf5731b955a2d0f,SCN,2024-06-26_13h35.18.427,LearnStrategy,2023.2.3,Win32,59.17159763,6,2,10,,,,,,,,5,14,,,,,,,,,,,5,1.021,1,,,,,,-0.433333333,-0.383333333,1,0,0,1.0215,Obsidian_rect,9,0,9,0,1,
662004840cf5731b955a2d0f,SCN,2024-06-26_13h35.18.427,LearnStrategy,2023.2.3,Win32,59.17159763,6,2,11,,,,,,,,2,16,,,,,,,,,,,8,1.244,0,,,,,,0.462037037,-0.409259259,1,0,0,1.2443,Pumice_rect,10,0,10,0,1,
662004840cf5731b955a2d0f,SCN,2024-06-26_13h35.18.427,LearnStrategy,2023.2.3,Win32,59.17159763,6,2,12,,,,,,,,4,10,,,,,,,,,,,8,1.611,0,,,,,,0.407407407,-0.387962963,1,0,0,1.6111,Pumice_rect,11,0,11,0,1,
662004840cf5731b955a2d0f,SCN,2024-06-26_13h35.18.427,LearnStrategy,2023.2.3,Win32,59.17159763,6,2,13,,,,,,,,6,06,,,,,,,,,,,7,1.811,0,,,,,,0.159259259,-0.391666667,1,0,0,1.8109,Peridotite_rect,12,0,12,0,1,
662004840cf5731b955a2d0f,SCN,2024-06-26_13h35.18.427,LearnStrategy,2023.2.3,Win32,59.17159763,6,2,14,,,,,,,,3,13,,,,,,,,,,,6,1.861,0,,,,,,-0.063888889,-0.388888889,1,0,0,1.8613,Pegmatite_rect,13,0,13,0,1,
662004840cf5731b955a2d0f,SCN,2024-06-26_13h35.18.427,LearnStrategy,2023.2.3,Win32,59.17159763,6,2,15,,,,,,,,1,10,,,,,,,,,,,8,0.861,0,,,,,,0.350925926,-0.403703704,1,0,0,0.8606,Pumice_rect,14,0,14,0,1,
662004840cf5731b955a2d0f,SCN,2024-06-26_13h35.18.427,LearnStrategy,2023.2.3,Win32,59.17159763,6,2,16,,,,,,,,1,16,,,,,,,,,,,8,0.71,0,,,,,,0.314814815,-0.396296296,1,0,0,0.7103,Pumice_rect,15,0,15,0,1,
662004840cf5731b955a2d0f,SCN,2024-06-26_13h35.18.427,LearnStrategy,2023.2.3,Win32,59.17159763,7,1,1,-0.414814815,-0.116666667,1,0,0,1.0428,Diorite_07,3,07,3,2,1.043,0.09537037,-0.413888889,1,0,0,1.8773,Peridotite_rect,7,1.877,0,0,0,0,0,1,,,,,,,,,,,,,
662004840cf5731b955a2d0f,SCN,2024-06-26_13h35.18.427,LearnStrategy,2023.2.3,Win32,59.17159763,7,1,2,-0.053703704,-0.075,1,0,0,0.5478,Andesite_09,1,09,3,4,0.548,0.364814815,-0.413888889,1,0,0,0.7613,Pumice_rect,8,0.761,0,1,0,1,0,1,,,,,,,,,,,,,
662004840cf5731b955a2d0f,SCN,2024-06-26_13h35.18.427,LearnStrategy,2023.2.3,Win32,59.17159763,7,1,3,0.097222222,-0.078703704,1,0,0,0.4989,Diorite_09,3,09,3,5,0.499,-0.407407407,-0.262962963,1,0,0,3.4607,Andesite_rect,1,3.461,0,2,0,2,0,1,,,,,,,,,,,,,
662004840cf5731b955a2d0f,SCN,2024-06-26_13h35.18.427,LearnStrategy,2023.2.3,Win32,59.17159763,7,1,4,-0.048148148,-0.251851852,1,0,0,0.5155,Pumice_04,8,04,2,4,0.515,0.327777778,-0.40462963,1,0,0,0.5948,Pumice_rect,8,0.595,1,3,0,3,0,1,,,,,,,,,,,,,
662004840cf5731b955a2d0f,SCN,2024-06-26_13h35.18.427,LearnStrategy,2023.2.3,Win32,59.17159763,7,1,5,0.07037037,-0.237037037,1,0,0,0.5602,Obsidian_04,5,04,2,5,0.56,-0.392592593,-0.409259259,1,0,0,0.6002,Obsidian_rect,5,0.6,1,4,0,4,0,1,,,,,,,,,,,,,
662004840cf5731b955a2d0f,SCN,2024-06-26_13h35.18.427,LearnStrategy,2023.2.3,Win32,59.17159763,7,1,6,0.231481481,-0.246296296,1,0,0,0.5985,Obsidian_06,5,06,2,6,0.599,-0.357407407,-0.397222222,1,0,0,0.5448,Obsidian_rect,5,0.545,1,5,0,5,0,1,,,,,,,,,,,,,
662004840cf5731b955a2d0f,SCN,2024-06-26_13h35.18.427,LearnStrategy,2023.2.3,Win32,59.17159763,7,1,7,-0.521296296,0.125,1,0,0,0.9989,Pumice_06,8,06,4,1,0.999,0.441666667,-0.39537037,1,0,0,0.5951,Pumice_rect,8,0.595,1,6,0,6,0,1,,,,,,,,,,,,,
662004840cf5731b955a2d0f,SCN,2024-06-26_13h35.18.427,LearnStrategy,2023.2.3,Win32,59.17159763,7,1,8,0.252777778,0.232407407,1,0,0,0.6156,Diorite_15,3,15,5,6,0.616,0.165740741,-0.247222222,1,0,0,1.0105,Diorite_rect,3,1.011,1,7,0,7,0,1,,,,,,,,,,,,,
662004840cf5731b955a2d0f,SCN,2024-06-26_13h35.18.427,LearnStrategy,2023.2.3,Win32,59.17159763,7,1,9,0.363888889,0.252777778,1,0,0,0.7491,Andesite_05,1,05,5,7,0.749,0.126851852,-0.250925926,1,0,0,0.611,Diorite_rect,3,0.611,0,8,0,8,0,1,,,,,,,,,,,,,
662004840cf5731b955a2d0f,SCN,2024-06-26_13h35.18.427,LearnStrategy,2023.2.3,Win32,59.17159763,7,1,10,0.575925926,0.250925926,1,0,0,0.6316,Peridotite_12,7,12,5,8,0.632,0.142592593,-0.261111111,1,0,0,0.6781,Diorite_rect,3,0.678,0,9,0,9,0,1,,,,,,,,,,,,,
662004840cf5731b955a2d0f,SCN,2024-06-26_13h35.18.427,LearnStrategy,2023.2.3,Win32,59.17159763,7,1,11,-0.235185185,0.241666667,1,0,0,1.7154,Gabbro_16,4,16,5,3,1.715,0.155555556,-0.418518519,1,0,0,1.6107,Peridotite_rect,7,1.611,0,10,0,10,0,1,,,,,,,,,,,,,
662004840cf5731b955a2d0f,SCN,2024-06-26_13h35.18.427,LearnStrategy,2023.2.3,Win32,59.17159763,7,1,12,-0.217592593,0.394444444,1,0,0,0.9826,Pegmatite_10,6,10,6,3,0.983,-0.366666667,-0.410185185,1,0,0,1.028,Obsidian_rect,5,1.028,0,11,0,11,0,1,,,,,,,,,,,,,
662004840cf5731b955a2d0f,SCN,2024-06-26_13h35.18.427,LearnStrategy,2023.2.3,Win32,59.17159763,7,1,13,-0.416666667,-0.422222222,1,0,0,0.8664,Pegmatite_05,6,05,1,2,0.866,-0.332407407,-0.406481481,1,0,0,1.6942,Obsidian_rect,5,1.694,0,12,0,12,0,1,,,,,,,,,,,,,
662004840cf5731b955a2d0f,SCN,2024-06-26_13h35.18.427,LearnStrategy,2023.2.3,Win32,59.17159763,7,1,14,-0.211111111,-0.437962963,1,0,0,0.6657,Andesite_07,1,07,1,3,0.666,0.114814815,-0.259259259,1,0,0,1.2112,Diorite_rect,3,1.211,0,13,0,13,0,1,,,,,,,,,,,,,
662004840cf5731b955a2d0f,SCN,2024-06-26_13h35.18.427,LearnStrategy,2023.2.3,Win32,59.17159763,7,1,15,0.084259259,-0.440740741,1,0,0,0.9991,Basalt_06,2,06,1,5,0.999,-0.326851852,-0.266666667,1,0,0,1.2443,Andesite_rect,1,1.244,0,14,0,14,0,1,,,,,,,,,,,,,
662004840cf5731b955a2d0f,SCN,2024-06-26_13h35.18.427,LearnStrategy,2023.2.3,Win32,59.17159763,7,1,16,-0.423148148,-0.109259259,1,0,0,0.915,Diorite_07,3,07,3,2,0.915,-0.34537037,-0.231481481,1,0,0,0.6777,Andesite_rect,1,0.678,0,15,0,15,0,1,,,,,,,,,,,,,
662004840cf5731b955a2d0f,SCN,2024-06-26_13h35.18.427,LearnStrategy,2023.2.3,Win32,59.17159763,7,2,1,,,,,,,,7,16,,,,,,,,,,,3,2.345,0,,,,,,0.140740741,-0.236111111,1,0,0,2.3447,Diorite_rect,0,0,0,0,1,
662004840cf5731b955a2d0f,SCN,2024-06-26_13h35.18.427,LearnStrategy,2023.2.3,Win32,59.17159763,7,2,2,,,,,,,,4,12,,,,,,,,,,,8,1.095,0,,,,,,0.335185185,-0.408333333,1,0,0,1.0952,Pumice_rect,1,0,1,0,1,
662004840cf5731b955a2d0f,SCN,2024-06-26_13h35.18.427,LearnStrategy,2023.2.3,Win32,59.17159763,7,2,3,,,,,,,,6,06,,,,,,,,,,,3,1.461,0,,,,,,0.084259259,-0.249074074,1,0,0,1.4615,Diorite_rect,2,0,2,0,1,
662004840cf5731b955a2d0f,SCN,2024-06-26_13h35.18.427,LearnStrategy,2023.2.3,Win32,59.17159763,7,2,4,,,,,,,,3,11,,,,,,,,,,,6,1.212,0,,,,,,-0.066666667,-0.409259259,1,0,0,1.2116,Pegmatite_rect,3,0,3,0,1,
662004840cf5731b955a2d0f,SCN,2024-06-26_13h35.18.427,LearnStrategy,2023.2.3,Win32,59.17159763,7,2,5,,,,,,,,3,12,,,,,,,,,,,1,1.544,0,,,,,,-0.369444444,-0.271296296,1,0,0,1.5444,Andesite_rect,4,0,4,0,1,
662004840cf5731b955a2d0f,SCN,2024-06-26_13h35.18.427,LearnStrategy,2023.2.3,Win32,59.17159763,7,2,6,,,,,,,,2,04,,,,,,,,,,,8,1.444,0,,,,,,0.424074074,-0.39537037,1,0,0,1.444,Pumice_rect,5,0,5,0,1,
662004840cf5731b955a2d0f,SCN,2024-06-26_13h35.18.427,LearnStrategy,2023.2.3,Win32,59.17159763,7,2,7,,,,,,,,7,10,,,,,,,,,,,3,1.211,0,,,,,,0.20462963,-0.263888889,1,0,0,1.2113,Diorite_rect,6,0,6,0,1,
662004840cf5731b955a2d0f,SCN,2024-06-26_13h35.18.427,LearnStrategy,2023.2.3,Win32,59.17159763,7,2,8,,,,,,,,1,04,,,,,,,,,,,8,0.895,0,,,,,,0.348148148,-0.416666667,1,0,0,0.8948,Pumice_rect,7,0,7,0,1,
662004840cf5731b955a2d0f,SCN,2024-06-26_13h35.18.427,LearnStrategy,2023.2.3,Win32,59.17159763,7,2,9,,,,,,,,6,12,,,,,,,,,,,5,1.43,0,,,,,,-0.355555556,-0.400925926,1,0,0,1.4305,Obsidian_rect,8,0,8,0,1,
662004840cf5731b955a2d0f,SCN,2024-06-26_13h35.18.427,LearnStrategy,2023.2.3,Win32,59.17159763,7,2,10,,,,,,,,5,11,,,,,,,,,,,5,0.828,1,,,,,,-0.323148148,-0.4,1,0,0,0.8284,Obsidian_rect,9,0,9,0,1,
662004840cf5731b955a2d0f,SCN,2024-06-26_13h35.18.427,LearnStrategy,2023.2.3,Win32,59.17159763,7,2,11,,,,,,,,8,02,,,,,,,,,,,4,3.394,0,,,,,,0.328703704,-0.259259259,1,0,0,3.3941,Gabbro_rect,10,0,10,0,1,
662004840cf5731b955a2d0f,SCN,2024-06-26_13h35.18.427,LearnStrategy,2023.2.3,Win32,59.17159763,7,2,12,,,,,,,,1,01,,,,,,,,,,,8,1.155,0,,,,,,0.372222222,-0.387037037,1,0,0,1.155,Pumice_rect,11,0,11,0,1,
662004840cf5731b955a2d0f,SCN,2024-06-26_13h35.18.427,LearnStrategy,2023.2.3,Win32,59.17159763,7,2,13,,,,,,,,4,01,,,,,,,,,,,4,1.161,1,,,,,,0.32962963,-0.250925926,1,0,0,1.1609,Gabbro_rect,12,0,12,0,1,
662004840cf5731b955a2d0f,SCN,2024-06-26_13h35.18.427,LearnStrategy,2023.2.3,Win32,59.17159763,7,2,14,,,,,,,,2,11,,,,,,,,,,,8,1.845,0,,,,,,0.352777778,-0.37962963,1,0,0,1.8451,Pumice_rect,13,0,13,0,1,
662004840cf5731b955a2d0f,SCN,2024-06-26_13h35.18.427,LearnStrategy,2023.2.3,Win32,59.17159763,7,2,15,,,,,,,,8,15,,,,,,,,,,,8,0.787,1,,,,,,0.364814815,-0.412962963,1,0,0,0.7873,Pumice_rect,14,0,14,0,1,
662004840cf5731b955a2d0f,SCN,2024-06-26_13h35.18.427,LearnStrategy,2023.2.3,Win32,59.17159763,7,2,16,,,,,,,,5,16,,,,,,,,,,,5,1.011,1,,,,,,-0.39537037,-0.384259259,1,0,0,1.0112,Obsidian_rect,15,0,15,0,1,
662004840cf5731b955a2d0f,SCN,2024-06-26_13h35.18.427,LearnStrategy,2023.2.3,Win32,59.17159763,8,1,1,-0.544444444,-0.103703704,1,0,0,1.2158,Pegmatite_07,6,07,3,1,1.216,-0.372222222,-0.407407407,1,0,0,2.194,Obsidian_rect,5,2.194,0,0,0,0,0,1,,,,,,,,,,,,,
662004840cf5731b955a2d0f,SCN,2024-06-26_13h35.18.427,LearnStrategy,2023.2.3,Win32,59.17159763,8,1,2,-0.406481481,-0.131481481,1,0,0,0.7993,Diorite_07,3,07,3,2,0.799,0.10462963,-0.253703704,1,0,0,1.2938,Diorite_rect,3,1.294,1,1,0,1,0,1,,,,,,,,,,,,,
662004840cf5731b955a2d0f,SCN,2024-06-26_13h35.18.427,LearnStrategy,2023.2.3,Win32,59.17159763,8,1,3,-0.217592593,-0.123148148,1,0,0,0.7991,Diorite_14,3,14,3,3,0.799,0.099074074,-0.240740741,1,0,0,0.5446,Diorite_rect,3,0.545,1,2,0,2,0,1,,,,,,,,,,,,,
662004840cf5731b955a2d0f,SCN,2024-06-26_13h35.18.427,LearnStrategy,2023.2.3,Win32,59.17159763,8,1,4,-0.062037037,-0.083333333,1,0,0,0.6654,Andesite_09,1,09,3,4,0.665,0.330555556,-0.402777778,1,0,0,0.6277,Pumice_rect,8,0.628,0,3,0,3,0,1,,,,,,,,,,,,,
662004840cf5731b955a2d0f,SCN,2024-06-26_13h35.18.427,LearnStrategy,2023.2.3,Win32,59.17159763,8,1,5,0.07037037,-0.114814815,1,0,0,0.6817,Diorite_09,3,09,3,5,0.682,0.336111111,-0.238888889,1,0,0,1.3445,Gabbro_rect,4,1.345,0,4,0,4,0,1,,,,,,,,,,,,,
662004840cf5731b955a2d0f,SCN,2024-06-26_13h35.18.427,LearnStrategy,2023.2.3,Win32,59.17159763,8,1,6,0.218518519,-0.115740741,1,0,0,0.6156,Pegmatite_13,6,13,3,6,0.616,0.103703704,-0.238888889,1,0,0,1.1273,Diorite_rect,3,1.127,0,5,0,5,0,1,,,,,,,,,,,,,
662004840cf5731b955a2d0f,SCN,2024-06-26_13h35.18.427,LearnStrategy,2023.2.3,Win32,59.17159763,8,1,7,0.392592593,-0.137037037,1,0,0,0.6654,Obsidian_10,5,10,3,7,0.665,-0.483333333,-0.415740741,1,0,0,0.6451,Obsidian_rect,5,0.645,1,6,0,6,0,1,,,,,,,,,,,,,
662004840cf5731b955a2d0f,SCN,2024-06-26_13h35.18.427,LearnStrategy,2023.2.3,Win32,59.17159763,8,1,8,0.539814815,-0.102777778,1,0,0,0.632,Peridotite_15,7,15,3,8,0.632,0.111111111,-0.4,1,0,0,2.2133,Peridotite_rect,7,2.213,1,7,0,7,0,1,,,,,,,,,,,,,
662004840cf5731b955a2d0f,SCN,2024-06-26_13h35.18.427,LearnStrategy,2023.2.3,Win32,59.17159763,8,1,9,-0.549074074,-0.253703704,1,0,0,0.9322,Gabbro_05,4,05,2,1,0.932,0.086111111,-0.406481481,1,0,0,1.3604,Peridotite_rect,7,1.36,0,8,0,8,0,1,,,,,,,,,,,,,
662004840cf5731b955a2d0f,SCN,2024-06-26_13h35.18.427,LearnStrategy,2023.2.3,Win32,59.17159763,8,1,10,-0.393518519,-0.237037037,1,0,0,0.6318,Obsidian_02,5,02,2,2,0.632,-0.437037037,-0.40462963,1,0,0,0.5944,Obsidian_rect,5,0.594,1,9,0,9,0,1,,,,,,,,,,,,,
662004840cf5731b955a2d0f,SCN,2024-06-26_13h35.18.427,LearnStrategy,2023.2.3,Win32,59.17159763,8,1,11,-0.218518519,-0.282407407,1,0,0,0.6822,Basalt_12,2,12,2,3,0.682,0.393518519,-0.418518519,1,0,0,0.7944,Pumice_rect,8,0.794,0,10,0,10,0,1,,,,,,,,,,,,,
662004840cf5731b955a2d0f,SCN,2024-06-26_13h35.18.427,LearnStrategy,2023.2.3,Win32,59.17159763,8,1,12,-0.073148148,-0.242592593,1,0,0,0.5979,Pumice_04,8,04,2,4,0.598,0.392592593,-0.416666667,1,0,0,0.5271,Pumice_rect,8,0.527,1,11,0,11,0,1,,,,,,,,,,,,,
662004840cf5731b955a2d0f,SCN,2024-06-26_13h35.18.427,LearnStrategy,2023.2.3,Win32,59.17159763,8,1,13,0.058333333,-0.255555556,1,0,0,0.682,Obsidian_04,5,04,2,5,0.682,-0.374074074,-0.414814815,1,0,0,0.5374,Obsidian_rect,5,0.537,1,12,0,12,0,1,,,,,,,,,,,,,
662004840cf5731b955a2d0f,SCN,2024-06-26_13h35.18.427,LearnStrategy,2023.2.3,Win32,59.17159763,8,1,14,0.237037037,-0.282407407,1,0,0,0.7658,Obsidian_06,5,06,2,6,0.766,-0.425925926,-0.412962963,1,0,0,0.7282,Obsidian_rect,5,0.728,1,13,0,13,0,1,,,,,,,,,,,,,
662004840cf5731b955a2d0f,SCN,2024-06-26_13h35.18.427,LearnStrategy,2023.2.3,Win32,59.17159763,8,1,15,0.403703704,-0.262037037,1,0,0,0.8661,Pumice_16,8,16,2,7,0.866,0.405555556,-0.386111111,1,0,0,0.528,Pumice_rect,8,0.528,1,14,0,14,0,1,,,,,,,,,,,,,
662004840cf5731b955a2d0f,SCN,2024-06-26_13h35.18.427,LearnStrategy,2023.2.3,Win32,59.17159763,8,1,16,0.576851852,-0.248148148,1,0,0,0.9817,Diorite_16,3,16,2,8,0.982,0.125,-0.401851852,1,0,0,1.6445,Peridotite_rect,7,1.645,0,15,0,15,0,1,,,,,,,,,,,,,
662004840cf5731b955a2d0f,SCN,2024-06-26_13h35.18.427,LearnStrategy,2023.2.3,Win32,59.17159763,8,2,1,,,,,,,,5,09,,,,,,,,,,,5,1.128,1,,,,,,-0.353703704,-0.39537037,1,0,0,1.1281,Obsidian_rect,0,0,0,0,1,
662004840cf5731b955a2d0f,SCN,2024-06-26_13h35.18.427,LearnStrategy,2023.2.3,Win32,59.17159763,8,2,2,,,,,,,,3,06,,,,,,,,,,,3,2.212,1,,,,,,0.139814815,-0.25462963,1,0,0,2.2116,Diorite_rect,1,0,1,0,1,
662004840cf5731b955a2d0f,SCN,2024-06-26_13h35.18.427,LearnStrategy,2023.2.3,Win32,59.17159763,8,2,3,,,,,,,,3,10,,,,,,,,,,,3,1.039,1,,,,,,0.133333333,-0.257407407,1,0,0,1.0391,Diorite_rect,2,0,2,0,1,
662004840cf5731b955a2d0f,SCN,2024-06-26_13h35.18.427,LearnStrategy,2023.2.3,Win32,59.17159763,8,2,4,,,,,,,,6,16,,,,,,,,,,,7,1.928,0,,,,,,0.126851852,-0.401851852,1,0,0,1.9281,Peridotite_rect,3,0,3,0,1,
662004840cf5731b955a2d0f,SCN,2024-06-26_13h35.18.427,LearnStrategy,2023.2.3,Win32,59.17159763,8,2,5,,,,,,,,1,10,,,,,,,,,,,8,0.855,0,,,,,,0.403703704,-0.42037037,1,0,0,0.8548,Pumice_rect,4,0,4,0,1,
662004840cf5731b955a2d0f,SCN,2024-06-26_13h35.18.427,LearnStrategy,2023.2.3,Win32,59.17159763,8,2,6,,,,,,,,2,02,,,,,,,,,,,8,0.862,0,,,,,,0.369444444,-0.419444444,1,0,0,0.862,Pumice_rect,5,0,5,0,1,
662004840cf5731b955a2d0f,SCN,2024-06-26_13h35.18.427,LearnStrategy,2023.2.3,Win32,59.17159763,8,2,7,,,,,,,,7,14,,,,,,,,,,,4,1.045,0,,,,,,0.366666667,-0.233333333,1,0,0,1.0447,Gabbro_rect,6,0,6,0,1,
662004840cf5731b955a2d0f,SCN,2024-06-26_13h35.18.427,LearnStrategy,2023.2.3,Win32,59.17159763,8,2,8,,,,,,,,4,09,,,,,,,,,,,1,2.378,0,,,,,,-0.317592593,-0.263888889,1,0,0,2.3783,Andesite_rect,7,0,7,0,1,
662004840cf5731b955a2d0f,SCN,2024-06-26_13h35.18.427,LearnStrategy,2023.2.3,Win32,59.17159763,8,2,9,,,,,,,,6,03,,,,,,,,,,,5,1.295,0,,,,,,-0.333333333,-0.39537037,1,0,0,1.2953,Obsidian_rect,8,0,8,0,1,
662004840cf5731b955a2d0f,SCN,2024-06-26_13h35.18.427,LearnStrategy,2023.2.3,Win32,59.17159763,8,2,10,,,,,,,,4,15,,,,,,,,,,,3,0.844,0,,,,,,0.12962963,-0.262962963,1,0,0,0.8439,Diorite_rect,9,0,9,0,1,
662004840cf5731b955a2d0f,SCN,2024-06-26_13h35.18.427,LearnStrategy,2023.2.3,Win32,59.17159763,8,2,11,,,,,,,,1,16,,,,,,,,,,,3,1.028,0,,,,,,0.109259259,-0.262037037,1,0,0,1.0279,Diorite_rect,10,0,10,0,1,
662004840cf5731b955a2d0f,SCN,2024-06-26_13h35.18.427,LearnStrategy,2023.2.3,Win32,59.17159763,8,2,12,,,,,,,,2,01,,,,,,,,,,,8,1.211,0,,,,,,0.392592593,-0.394444444,1,0,0,1.2115,Pumice_rect,11,0,11,0,1,
662004840cf5731b955a2d0f,SCN,2024-06-26_13h35.18.427,LearnStrategy,2023.2.3,Win32,59.17159763,8,2,13,,,,,,,,7,07,,,,,,,,,,,7,1.194,1,,,,,,0.164814815,-0.388888889,1,0,0,1.1944,Peridotite_rect,12,0,12,0,1,
662004840cf5731b955a2d0f,SCN,2024-06-26_13h35.18.427,LearnStrategy,2023.2.3,Win32,59.17159763,8,2,14,,,,,,,,5,08,,,,,,,,,,,5,0.961,1,,,,,,-0.442592593,-0.414814815,1,0,0,0.9614,Obsidian_rect,13,0,13,0,1,
662004840cf5731b955a2d0f,SCN,2024-06-26_13h35.18.427,LearnStrategy,2023.2.3,Win32,59.17159763,8,2,15,,,,,,,,8,14,,,,,,,,,,,8,0.995,1,,,,,,0.426851852,-0.394444444,1,0,0,0.9955,Pumice_rect,14,0,14,0,1,
662004840cf5731b955a2d0f,SCN,2024-06-26_13h35.18.427,LearnStrategy,2023.2.3,Win32,59.17159763,8,2,16,,,,,,,,8,05,,,,,,,,,,,8,1.645,1,,,,,,0.396296296,-0.401851852,1,0,0,1.6449,Pumice_rect,15,0,15,0,1,
662004840cf5731b955a2d0f,SCN,2024-06-26_13h35.18.427,LearnStrategy,2023.2.3,Win32,59.17159763,9,1,1,-0.212037037,-0.232407407,1,0,0,0.7328,Basalt_12,2,12,2,3,0.733,0.32962963,-0.398148148,1,0,0,0.6607,Pumice_rect,8,0.661,0,0,0,0,0,1,,,,,,,,,,,,,
662004840cf5731b955a2d0f,SCN,2024-06-26_13h35.18.427,LearnStrategy,2023.2.3,Win32,59.17159763,9,1,2,-0.382407407,-0.277777778,1,0,0,0.8155,Obsidian_02,5,02,2,2,0.816,-0.387962963,-0.394444444,1,0,0,0.6955,Obsidian_rect,5,0.696,1,1,0,1,0,1,,,,,,,,,,,,,
662004840cf5731b955a2d0f,SCN,2024-06-26_13h35.18.427,LearnStrategy,2023.2.3,Win32,59.17159763,9,1,3,-0.521296296,-0.276851852,1,0,0,0.6985,Gabbro_05,4,05,2,1,0.699,0.114814815,-0.240740741,1,0,0,1.9777,Diorite_rect,3,1.978,0,2,0,2,0,1,,,,,,,,,,,,,
662004840cf5731b955a2d0f,SCN,2024-06-26_13h35.18.427,LearnStrategy,2023.2.3,Win32,59.17159763,9,1,4,-0.514814815,-0.448148148,1,0,0,0.7153,Pegmatite_08,6,08,1,1,0.715,-0.42037037,-0.405555556,1,0,0,0.7446,Obsidian_rect,5,0.745,0,3,0,3,0,1,,,,,,,,,,,,,
662004840cf5731b955a2d0f,SCN,2024-06-26_13h35.18.427,LearnStrategy,2023.2.3,Win32,59.17159763,9,1,5,-0.362037037,-0.387037037,1,0,0,0.7487,Pegmatite_05,6,05,1,2,0.749,0.212037037,-0.255555556,1,0,0,1.1772,Diorite_rect,3,1.177,0,4,0,4,0,1,,,,,,,,,,,,,
662004840cf5731b955a2d0f,SCN,2024-06-26_13h35.18.427,LearnStrategy,2023.2.3,Win32,59.17159763,9,1,6,-0.253703704,-0.439814815,1,0,0,0.8158,Andesite_07,1,07,1,3,0.816,0.308333333,-0.405555556,1,0,0,0.8772,Pumice_rect,8,0.877,0,5,0,5,0,1,,,,,,,,,,,,,
662004840cf5731b955a2d0f,SCN,2024-06-26_13h35.18.427,LearnStrategy,2023.2.3,Win32,59.17159763,9,1,7,-0.075,-0.269444444,1,0,0,0.9318,Pumice_04,8,04,2,4,0.932,0.362037037,-0.388888889,1,0,0,0.7109,Pumice_rect,8,0.711,1,6,0,6,0,1,,,,,,,,,,,,,
662004840cf5731b955a2d0f,SCN,2024-06-26_13h35.18.427,LearnStrategy,2023.2.3,Win32,59.17159763,9,1,8,-0.087962963,-0.45462963,1,0,0,0.649,Pumice_08,8,08,1,4,0.649,0.363888889,-0.387037037,1,0,0,0.6772,Pumice_rect,8,0.677,1,7,0,7,0,1,,,,,,,,,,,,,
662004840cf5731b955a2d0f,SCN,2024-06-26_13h35.18.427,LearnStrategy,2023.2.3,Win32,59.17159763,9,1,9,0.07037037,-0.403703704,1,0,0,0.8154,Basalt_06,2,06,1,5,0.815,0.352777778,-0.251851852,1,0,0,1.1944,Gabbro_rect,4,1.194,0,8,0,8,0,1,,,,,,,,,,,,,
662004840cf5731b955a2d0f,SCN,2024-06-26_13h35.18.427,LearnStrategy,2023.2.3,Win32,59.17159763,9,1,10,0.037962963,-0.282407407,1,0,0,0.7818,Obsidian_04,5,04,2,5,0.782,-0.328703704,-0.403703704,1,0,0,0.6557,Obsidian_rect,5,0.656,1,9,0,9,0,1,,,,,,,,,,,,,
662004840cf5731b955a2d0f,SCN,2024-06-26_13h35.18.427,LearnStrategy,2023.2.3,Win32,59.17159763,9,1,11,0.241666667,-0.271296296,1,0,0,0.6991,Obsidian_06,5,06,2,6,0.699,-0.369444444,-0.419444444,1,0,0,0.5946,Obsidian_rect,5,0.595,1,10,0,10,0,1,,,,,,,,,,,,,
662004840cf5731b955a2d0f,SCN,2024-06-26_13h35.18.427,LearnStrategy,2023.2.3,Win32,59.17159763,9,1,12,0.267592593,-0.408333333,1,0,0,0.8492,Pumice_03,8,03,1,6,0.849,0.326851852,-0.394444444,1,0,0,0.4615,Pumice_rect,8,0.461,1,11,0,11,0,1,,,,,,,,,,,,,
662004840cf5731b955a2d0f,SCN,2024-06-26_13h35.18.427,LearnStrategy,2023.2.3,Win32,59.17159763,9,1,13,0.396296296,-0.250925926,1,0,0,0.6324,Pumice_16,8,16,2,7,0.632,0.39537037,-0.384259259,1,0,0,0.5439,Pumice_rect,8,0.544,1,12,0,12,0,1,,,,,,,,,,,,,
662004840cf5731b955a2d0f,SCN,2024-06-26_13h35.18.427,LearnStrategy,2023.2.3,Win32,59.17159763,9,1,14,0.585185185,-0.299074074,1,0,0,0.7661,Diorite_16,3,16,2,8,0.766,-0.056481481,-0.266666667,1,0,0,2.3276,Basalt_rect,2,2.328,0,13,0,13,0,1,,,,,,,,,,,,,
662004840cf5731b955a2d0f,SCN,2024-06-26_13h35.18.427,LearnStrategy,2023.2.3,Win32,59.17159763,9,1,15,0.569444444,-0.402777778,1,0,0,1.0323,Gabbro_14,4,14,1,8,1.032,0.412037037,-0.412037037,1,0,0,0.6612,Pumice_rect,8,0.661,0,14,0,14,0,1,,,,,,,,,,,,,
662004840cf5731b955a2d0f,SCN,2024-06-26_13h35.18.427,LearnStrategy,2023.2.3,Win32,59.17159763,9,1,16,0.438888889,-0.430555556,1,0,0,0.699,Obsidian_12,5,12,1,7,0.699,-0.425925926,-0.400925926,1,0,0,0.8615,Obsidian_rect,5,0.861,1,15,0,15,0,1,,,,,,,,,,,,,
662004840cf5731b955a2d0f,SCN,2024-06-26_13h35.18.427,LearnStrategy,2023.2.3,Win32,59.17159763,9,2,1,,,,,,,,3,08,,,,,,,,,,,3,1.628,1,,,,,,0.125925926,-0.25,1,0,0,1.6283,Diorite_rect,0,0,0,0,1,
662004840cf5731b955a2d0f,SCN,2024-06-26_13h35.18.427,LearnStrategy,2023.2.3,Win32,59.17159763,9,2,2,,,,,,,,5,05,,,,,,,,,,,5,0.945,1,,,,,,-0.416666667,-0.414814815,1,0,0,0.945,Obsidian_rect,1,0,1,0,1,
662004840cf5731b955a2d0f,SCN,2024-06-26_13h35.18.427,LearnStrategy,2023.2.3,Win32,59.17159763,9,2,3,,,,,,,,6,15,,,,,,,,,,,5,0.578,0,,,,,,-0.412037037,-0.410185185,1,0,0,0.5784,Obsidian_rect,2,0,2,0,1,
662004840cf5731b955a2d0f,SCN,2024-06-26_13h35.18.427,LearnStrategy,2023.2.3,Win32,59.17159763,9,2,4,,,,,,,,3,13,,,,,,,,,,,4,2.261,0,,,,,,0.323148148,-0.271296296,1,0,0,2.2609,Gabbro_rect,3,0,3,0,1,
662004840cf5731b955a2d0f,SCN,2024-06-26_13h35.18.427,LearnStrategy,2023.2.3,Win32,59.17159763,9,2,5,,,,,,,,7,02,,,,,,,,,,,7,1.328,1,,,,,,0.097222222,-0.392592593,1,0,0,1.3284,Peridotite_rect,4,0,4,0,1,
662004840cf5731b955a2d0f,SCN,2024-06-26_13h35.18.427,LearnStrategy,2023.2.3,Win32,59.17159763,9,2,6,,,,,,,,5,14,,,,,,,,,,,5,1.061,1,,,,,,-0.410185185,-0.383333333,1,0,0,1.0613,Obsidian_rect,5,0,5,0,1,
662004840cf5731b955a2d0f,SCN,2024-06-26_13h35.18.427,LearnStrategy,2023.2.3,Win32,59.17159763,9,2,7,,,,,,,,1,02,,,,,,,,,,,8,0.778,0,,,,,,0.469444444,-0.408333333,1,0,0,0.7776,Pumice_rect,6,0,6,0,1,
662004840cf5731b955a2d0f,SCN,2024-06-26_13h35.18.427,LearnStrategy,2023.2.3,Win32,59.17159763,9,2,8,,,,,,,,4,11,,,,,,,,,,,8,0.578,0,,,,,,0.39537037,-0.40462963,1,0,0,0.5777,Pumice_rect,7,0,7,0,1,
662004840cf5731b955a2d0f,SCN,2024-06-26_13h35.18.427,LearnStrategy,2023.2.3,Win32,59.17159763,9,2,9,,,,,,,,1,14,,,,,,,,,,,4,2.861,0,,,,,,0.389814815,-0.259259259,1,0,0,2.8611,Gabbro_rect,8,0,8,0,1,
662004840cf5731b955a2d0f,SCN,2024-06-26_13h35.18.427,LearnStrategy,2023.2.3,Win32,59.17159763,9,2,10,,,,,,,,2,09,,,,,,,,,,,8,0.845,0,,,,,,0.392592593,-0.400925926,1,0,0,0.8451,Pumice_rect,9,0,9,0,1,
662004840cf5731b955a2d0f,SCN,2024-06-26_13h35.18.427,LearnStrategy,2023.2.3,Win32,59.17159763,9,2,11,,,,,,,,2,16,,,,,,,,,,,8,0.628,0,,,,,,0.388888889,-0.398148148,1,0,0,0.6284,Pumice_rect,10,0,10,0,1,
662004840cf5731b955a2d0f,SCN,2024-06-26_13h35.18.427,LearnStrategy,2023.2.3,Win32,59.17159763,9,2,12,,,,,,,,7,08,,,,,,,,,,,2,1.745,0,,,,,,-0.096296296,-0.261111111,1,0,0,1.7446,Basalt_rect,11,0,11,0,1,
662004840cf5731b955a2d0f,SCN,2024-06-26_13h35.18.427,LearnStrategy,2023.2.3,Win32,59.17159763,9,2,13,,,,,,,,8,10,,,,,,,,,,,8,1.378,1,,,,,,0.435185185,-0.408333333,1,0,0,1.3779,Pumice_rect,12,0,12,0,1,
662004840cf5731b955a2d0f,SCN,2024-06-26_13h35.18.427,LearnStrategy,2023.2.3,Win32,59.17159763,9,2,14,,,,,,,,6,09,,,,,,,,,,,7,1.711,0,,,,,,0.117592593,-0.406481481,1,0,0,1.7113,Peridotite_rect,13,0,13,0,1,
662004840cf5731b955a2d0f,SCN,2024-06-26_13h35.18.427,LearnStrategy,2023.2.3,Win32,59.17159763,9,2,15,,,,,,,,4,10,,,,,,,,,,,2,0.994,0,,,,,,-0.165740741,-0.263888889,1,0,0,0.9941,Basalt_rect,14,0,14,0,1,
662004840cf5731b955a2d0f,SCN,2024-06-26_13h35.18.427,LearnStrategy,2023.2.3,Win32,59.17159763,9,2,16,,,,,,,,8,09,,,,,,,,,,,8,0.895,1,,,,,,0.336111111,-0.417592593,1,0,0,0.8947,Pumice_rect,15,0,15,0,1,
662004840cf5731b955a2d0f,SCN,2024-06-26_13h35.18.427,LearnStrategy,2023.2.3,Win32,59.17159763,,,,,,,,,,,,,,,,,,,,,,,,,,,,,,,,,,,,,,,,,,,0
662004840cf5731b955a2d0f,SCN,2024-06-26_13h35.18.427,LearnStrategy,2023.2.3,Win32,59.17159763,,,,,,,,,,,,,,,,,,,,,,,,,,,,,,,,,,,,,,,,,,,
662004840cf5731b955a2d0f,SCN,2024-06-26_13h35.18.427,LearnStrategy,2023.2.3,Win32,59.17159763,,,,,,,,,,,6,08,1,1,,,,,,,,,,,,,,,,,,,,,,,,,,,,,
662004840cf5731b955a2d0f,SCN,2024-06-26_13h35.18.427,LearnStrategy,2023.2.3,Win32,59.17159763,,,,,,,,,,,6,05,1,2,,,,,,,,,,,,,,,,,,,,,,,,,,,,,
662004840cf5731b955a2d0f,SCN,2024-06-26_13h35.18.427,LearnStrategy,2023.2.3,Win32,59.17159763,,,,,,,,,,,1,07,1,3,,,,,,,,,,,,,,,,,,,,,,,,,,,,,
662004840cf5731b955a2d0f,SCN,2024-06-26_13h35.18.427,LearnStrategy,2023.2.3,Win32,59.17159763,,,,,,,,,,,8,08,1,4,,,,,,,,,,,,,,,,,,,,,,,,,,,,,
662004840cf5731b955a2d0f,SCN,2024-06-26_13h35.18.427,LearnStrategy,2023.2.3,Win32,59.17159763,,,,,,,,,,,2,06,1,5,,,,,,,,,,,,,,,,,,,,,,,,,,,,,
662004840cf5731b955a2d0f,SCN,2024-06-26_13h35.18.427,LearnStrategy,2023.2.3,Win32,59.17159763,,,,,,,,,,,8,03,1,6,,,,,,,,,,,,,,,,,,,,,,,,,,,,,
662004840cf5731b955a2d0f,SCN,2024-06-26_13h35.18.427,LearnStrategy,2023.2.3,Win32,59.17159763,,,,,,,,,,,5,12,1,7,,,,,,,,,,,,,,,,,,,,,,,,,,,,,
662004840cf5731b955a2d0f,SCN,2024-06-26_13h35.18.427,LearnStrategy,2023.2.3,Win32,59.17159763,,,,,,,,,,,4,14,1,8,,,,,,,,,,,,,,,,,,,,,,,,,,,,,
662004840cf5731b955a2d0f,SCN,2024-06-26_13h35.18.427,LearnStrategy,2023.2.3,Win32,59.17159763,,,,,,,,,,,4,05,2,1,,,,,,,,,,,,,,,,,,,,,,,,,,,,,
662004840cf5731b955a2d0f,SCN,2024-06-26_13h35.18.427,LearnStrategy,2023.2.3,Win32,59.17159763,,,,,,,,,,,5,02,2,2,,,,,,,,,,,,,,,,,,,,,,,,,,,,,
662004840cf5731b955a2d0f,SCN,2024-06-26_13h35.18.427,LearnStrategy,2023.2.3,Win32,59.17159763,,,,,,,,,,,2,12,2,3,,,,,,,,,,,,,,,,,,,,,,,,,,,,,
662004840cf5731b955a2d0f,SCN,2024-06-26_13h35.18.427,LearnStrategy,2023.2.3,Win32,59.17159763,,,,,,,,,,,8,04,2,4,,,,,,,,,,,,,,,,,,,,,,,,,,,,,
662004840cf5731b955a2d0f,SCN,2024-06-26_13h35.18.427,LearnStrategy,2023.2.3,Win32,59.17159763,,,,,,,,,,,5,04,2,5,,,,,,,,,,,,,,,,,,,,,,,,,,,,,
662004840cf5731b955a2d0f,SCN,2024-06-26_13h35.18.427,LearnStrategy,2023.2.3,Win32,59.17159763,,,,,,,,,,,5,06,2,6,,,,,,,,,,,,,,,,,,,,,,,,,,,,,
662004840cf5731b955a2d0f,SCN,2024-06-26_13h35.18.427,LearnStrategy,2023.2.3,Win32,59.17159763,,,,,,,,,,,8,16,2,7,,,,,,,,,,,,,,,,,,,,,,,,,,,,,
662004840cf5731b955a2d0f,SCN,2024-06-26_13h35.18.427,LearnStrategy,2023.2.3,Win32,59.17159763,,,,,,,,,,,3,16,2,8,,,,,,,,,,,,,,,,,,,,,,,,,,,,,
662004840cf5731b955a2d0f,SCN,2024-06-26_13h35.18.427,LearnStrategy,2023.2.3,Win32,59.17159763,,,,,,,,,,,6,07,3,1,,,,,,,,,,,,,,,,,,,,,,,,,,,,,
662004840cf5731b955a2d0f,SCN,2024-06-26_13h35.18.427,LearnStrategy,2023.2.3,Win32,59.17159763,,,,,,,,,,,3,07,3,2,,,,,,,,,,,,,,,,,,,,,,,,,,,,,
662004840cf5731b955a2d0f,SCN,2024-06-26_13h35.18.427,LearnStrategy,2023.2.3,Win32,59.17159763,,,,,,,,,,,3,14,3,3,,,,,,,,,,,,,,,,,,,,,,,,,,,,,
662004840cf5731b955a2d0f,SCN,2024-06-26_13h35.18.427,LearnStrategy,2023.2.3,Win32,59.17159763,,,,,,,,,,,1,09,3,4,,,,,,,,,,,,,,,,,,,,,,,,,,,,,
662004840cf5731b955a2d0f,SCN,2024-06-26_13h35.18.427,LearnStrategy,2023.2.3,Win32,59.17159763,,,,,,,,,,,3,09,3,5,,,,,,,,,,,,,,,,,,,,,,,,,,,,,
662004840cf5731b955a2d0f,SCN,2024-06-26_13h35.18.427,LearnStrategy,2023.2.3,Win32,59.17159763,,,,,,,,,,,6,13,3,6,,,,,,,,,,,,,,,,,,,,,,,,,,,,,
662004840cf5731b955a2d0f,SCN,2024-06-26_13h35.18.427,LearnStrategy,2023.2.3,Win32,59.17159763,,,,,,,,,,,5,10,3,7,,,,,,,,,,,,,,,,,,,,,,,,,,,,,
662004840cf5731b955a2d0f,SCN,2024-06-26_13h35.18.427,LearnStrategy,2023.2.3,Win32,59.17159763,,,,,,,,,,,7,15,3,8,,,,,,,,,,,,,,,,,,,,,,,,,,,,,
662004840cf5731b955a2d0f,SCN,2024-06-26_13h35.18.427,LearnStrategy,2023.2.3,Win32,59.17159763,,,,,,,,,,,8,06,4,1,,,,,,,,,,,,,,,,,,,,,,,,,,,,,
662004840cf5731b955a2d0f,SCN,2024-06-26_13h35.18.427,LearnStrategy,2023.2.3,Win32,59.17159763,,,,,,,,,,,6,11,4,2,,,,,,,,,,,,,,,,,,,,,,,,,,,,,
662004840cf5731b955a2d0f,SCN,2024-06-26_13h35.18.427,LearnStrategy,2023.2.3,Win32,59.17159763,,,,,,,,,,,7,13,4,3,,,,,,,,,,,,,,,,,,,,,,,,,,,,,
662004840cf5731b955a2d0f,SCN,2024-06-26_13h35.18.427,LearnStrategy,2023.2.3,Win32,59.17159763,,,,,,,,,,,8,13,4,4,,,,,,,,,,,,,,,,,,,,,,,,,,,,,
662004840cf5731b955a2d0f,SCN,2024-06-26_13h35.18.427,LearnStrategy,2023.2.3,Win32,59.17159763,,,,,,,,,,,1,03,4,5,,,,,,,,,,,,,,,,,,,,,,,,,,,,,
662004840cf5731b955a2d0f,SCN,2024-06-26_13h35.18.427,LearnStrategy,2023.2.3,Win32,59.17159763,,,,,,,,,,,1,11,4,6,,,,,,,,,,,,,,,,,,,,,,,,,,,,,
662004840cf5731b955a2d0f,SCN,2024-06-26_13h35.18.427,LearnStrategy,2023.2.3,Win32,59.17159763,,,,,,,,,,,4,03,4,7,,,,,,,,,,,,,,,,,,,,,,,,,,,,,
662004840cf5731b955a2d0f,SCN,2024-06-26_13h35.18.427,LearnStrategy,2023.2.3,Win32,59.17159763,,,,,,,,,,,4,08,4,8,,,,,,,,,,,,,,,,,,,,,,,,,,,,,
662004840cf5731b955a2d0f,SCN,2024-06-26_13h35.18.427,LearnStrategy,2023.2.3,Win32,59.17159763,,,,,,,,,,,4,13,5,1,,,,,,,,,,,,,,,,,,,,,,,,,,,,,
662004840cf5731b955a2d0f,SCN,2024-06-26_13h35.18.427,LearnStrategy,2023.2.3,Win32,59.17159763,,,,,,,,,,,2,14,5,2,,,,,,,,,,,,,,,,,,,,,,,,,,,,,
662004840cf5731b955a2d0f,SCN,2024-06-26_13h35.18.427,LearnStrategy,2023.2.3,Win32,59.17159763,,,,,,,,,,,4,16,5,3,,,,,,,,,,,,,,,,,,,,,,,,,,,,,
662004840cf5731b955a2d0f,SCN,2024-06-26_13h35.18.427,LearnStrategy,2023.2.3,Win32,59.17159763,,,,,,,,,,,2,08,5,4,,,,,,,,,,,,,,,,,,,,,,,,,,,,,
662004840cf5731b955a2d0f,SCN,2024-06-26_13h35.18.427,LearnStrategy,2023.2.3,Win32,59.17159763,,,,,,,,,,,3,02,5,5,,,,,,,,,,,,,,,,,,,,,,,,,,,,,
662004840cf5731b955a2d0f,SCN,2024-06-26_13h35.18.427,LearnStrategy,2023.2.3,Win32,59.17159763,,,,,,,,,,,3,15,5,6,,,,,,,,,,,,,,,,,,,,,,,,,,,,,
662004840cf5731b955a2d0f,SCN,2024-06-26_13h35.18.427,LearnStrategy,2023.2.3,Win32,59.17159763,,,,,,,,,,,1,05,5,7,,,,,,,,,,,,,,,,,,,,,,,,,,,,,
662004840cf5731b955a2d0f,SCN,2024-06-26_13h35.18.427,LearnStrategy,2023.2.3,Win32,59.17159763,,,,,,,,,,,7,12,5,8,,,,,,,,,,,,,,,,,,,,,,,,,,,,,
662004840cf5731b955a2d0f,SCN,2024-06-26_13h35.18.427,LearnStrategy,2023.2.3,Win32,59.17159763,,,,,,,,,,,7,05,6,1,,,,,,,,,,,,,,,,,,,,,,,,,,,,,
662004840cf5731b955a2d0f,SCN,2024-06-26_13h35.18.427,LearnStrategy,2023.2.3,Win32,59.17159763,,,,,,,,,,,2,10,6,2,,,,,,,,,,,,,,,,,,,,,,,,,,,,,
662004840cf5731b955a2d0f,SCN,2024-06-26_13h35.18.427,LearnStrategy,2023.2.3,Win32,59.17159763,,,,,,,,,,,6,10,6,3,,,,,,,,,,,,,,,,,,,,,,,,,,,,,
662004840cf5731b955a2d0f,SCN,2024-06-26_13h35.18.427,LearnStrategy,2023.2.3,Win32,59.17159763,,,,,,,,,,,5,07,6,4,,,,,,,,,,,,,,,,,,,,,,,,,,,,,
662004840cf5731b955a2d0f,SCN,2024-06-26_13h35.18.427,LearnStrategy,2023.2.3,Win32,59.17159763,,,,,,,,,,,1,06,6,5,,,,,,,,,,,,,,,,,,,,,,,,,,,,,
662004840cf5731b955a2d0f,SCN,2024-06-26_13h35.18.427,LearnStrategy,2023.2.3,Win32,59.17159763,,,,,,,,,,,2,05,6,6,,,,,,,,,,,,,,,,,,,,,,,,,,,,,
662004840cf5731b955a2d0f,SCN,2024-06-26_13h35.18.427,LearnStrategy,2023.2.3,Win32,59.17159763,,,,,,,,,,,7,04,6,7,,,,,,,,,,,,,,,,,,,,,,,,,,,,,
662004840cf5731b955a2d0f,SCN,2024-06-26_13h35.18.427,LearnStrategy,2023.2.3,Win32,59.17159763,,,,,,,,,,,7,06,6,8,,,,,,,,,,,,,,,,,,,,,,,,,,,,,