participant,condition,date,expName,psychopyVersion,OS,frameRate,block,phase,trial,learn_mouse_2.x,learn_mouse_2.y,learn_mouse_2.leftButton,learn_mouse_2.midButton,learn_mouse_2.rightButton,learn_mouse_2.time,learn_mouse_2.clicked_name,cat,token,row,col,t_select,cat_mouse_l.x,cat_mouse_l.y,cat_mouse_l.leftButton,cat_mouse_l.midButton,cat_mouse_l.rightButton,cat_mouse_l.time,cat_mouse_l.clicked_name,resp,t_resp,corr,train_trials.thisRepN,train_trials.thisTrialN,train_trials.thisN,train_trials.thisIndex,train_trials.ran,cat_mouse_t.x,cat_mouse_t.y,cat_mouse_t.leftButton,cat_mouse_t.midButton,cat_mouse_t.rightButton,cat_mouse_t.time,cat_mouse_t.clicked_name,test_trials.thisRepN,test_trials.thisTrialN,test_trials.thisN,test_trials.thisIndex,test_trials.ran,Bonus
662700c8b96591466a2904b7,TCN,2024-06-11_13h38.29.639,LearnStrategy,2023.2.3,Win32,60.24096386,,,,,,,,,,,,,,,,,,,,,,,,,,,,,,,,,,,,,,,,,,,
662700c8b96591466a2904b7,TCN,2024-06-11_13h38.29.639,LearnStrategy,2023.2.3,Win32,60.24096386,1,1,1,0.083333333,0.001302083,1,0,0,4.3647,rock_grid_rect_2,5,10,-1,-1,4.365,-0.420572917,-0.388020833,1,0,0,37.6553,Obsidian_rect,5,37.655,1,0,0,0,0,1,,,,,,,,,,,,,
662700c8b96591466a2904b7,TCN,2024-06-11_13h38.29.639,LearnStrategy,2023.2.3,Win32,60.24096386,1,1,2,0.083333333,0.01171875,1,0,0,2.4963,rock_grid_rect_2,2,01,-1,-1,2.496,0.138020833,-0.4140625,1,0,0,106.0429,Peridotite_rect,7,106.043,0,1,0,1,0,1,,,,,,,,,,,,,
662700c8b96591466a2904b7,TCN,2024-06-11_13h38.29.639,LearnStrategy,2023.2.3,Win32,60.24096386,1,1,3,0.087239583,-0.005208333,1,0,0,2.7267,rock_grid_rect_2,6,12,-1,-1,2.727,0.1328125,-0.260416667,1,0,0,49.4012,Diorite_rect,3,49.401,0,2,0,2,0,1,,,,,,,,,,,,,
662700c8b96591466a2904b7,TCN,2024-06-11_13h38.29.639,LearnStrategy,2023.2.3,Win32,60.24096386,1,1,4,0.096354167,-0.00390625,1,0,0,1.3452,rock_grid_rect_2,4,01,-1,-1,1.345,-0.384114583,-0.243489583,1,0,0,26.141,Andesite_rect,1,26.141,0,3,0,3,0,1,,,,,,,,,,,,,
662700c8b96591466a2904b7,TCN,2024-06-11_13h38.29.639,LearnStrategy,2023.2.3,Win32,60.24096386,1,1,5,0.135416667,-0.015625,1,0,0,2.1247,rock_grid_rect_2,8,03,-1,-1,2.125,0.450520833,-0.395833333,1,0,0,24.9196,Pumice_rect,8,24.92,1,4,0,4,0,1,,,,,,,,,,,,,
662700c8b96591466a2904b7,TCN,2024-06-11_13h38.29.639,LearnStrategy,2023.2.3,Win32,60.24096386,1,1,6,0.05859375,-0.009114583,1,0,0,1.2614,rock_grid_rect_2,3,10,-1,-1,1.261,0.11328125,-0.240885417,1,0,0,26.1159,Diorite_rect,3,26.116,1,5,0,5,0,1,,,,,,,,,,,,,
662700c8b96591466a2904b7,TCN,2024-06-11_13h38.29.639,LearnStrategy,2023.2.3,Win32,60.24096386,1,1,7,0.02734375,0.010416667,1,0,0,1.8129,rock_grid_rect_2,1,07,-1,-1,1.813,-0.41015625,-0.388020833,1,0,0,38.3271,Obsidian_rect,5,38.327,0,6,0,6,0,1,,,,,,,,,,,,,
662700c8b96591466a2904b7,TCN,2024-06-11_13h38.29.639,LearnStrategy,2023.2.3,Win32,60.24096386,1,1,8,0.161458333,0.00390625,1,0,0,1.4288,rock_grid_rect_2,8,05,-1,-1,1.429,0.350260417,-0.397135417,1,0,0,17.1161,Pumice_rect,8,17.116,1,7,0,7,0,1,,,,,,,,,,,,,
662700c8b96591466a2904b7,TCN,2024-06-11_13h38.29.639,LearnStrategy,2023.2.3,Win32,60.24096386,1,1,9,0.069010417,-0.001302083,1,0,0,1.292,rock_grid_rect_2,4,05,-1,-1,1.292,0.399739583,-0.259114583,1,0,0,48.753,Gabbro_rect,4,48.753,1,8,0,8,0,1,,,,,,,,,,,,,
662700c8b96591466a2904b7,TCN,2024-06-11_13h38.29.639,LearnStrategy,2023.2.3,Win32,60.24096386,1,1,10,0.0546875,0.009114583,1,0,0,2.5631,rock_grid_rect_2,7,04,-1,-1,2.563,-0.12109375,-0.415364583,1,0,0,3.0694,Pegmatite_rect,6,3.069,0,9,0,9,0,1,,,,,,,,,,,,,
662700c8b96591466a2904b7,TCN,2024-06-11_13h38.29.639,LearnStrategy,2023.2.3,Win32,60.24096386,1,1,11,0.028645833,-0.005208333,1,0,0,1.5021,rock_grid_rect_2,5,05,-1,-1,1.502,-0.368489583,-0.40625,1,0,0,19.756,Obsidian_rect,5,19.756,1,10,0,10,0,1,,,,,,,,,,,,,
662700c8b96591466a2904b7,TCN,2024-06-11_13h38.29.639,LearnStrategy,2023.2.3,Win32,60.24096386,1,1,12,0.1015625,-0.009114583,1,0,0,1.7552,rock_grid_rect_2,2,09,-1,-1,1.755,0.143229167,-0.3828125,1,0,0,26.2437,Peridotite_rect,7,26.244,0,11,0,11,0,1,,,,,,,,,,,,,
662700c8b96591466a2904b7,TCN,2024-06-11_13h38.29.639,LearnStrategy,2023.2.3,Win32,60.24096386,1,1,13,0.114583333,-0.01953125,1,0,0,1.5305,rock_grid_rect_2,1,01,-1,-1,1.53,-0.40234375,-0.244791667,1,0,0,47.8636,Andesite_rect,1,47.864,1,12,0,12,0,1,,,,,,,,,,,,,
662700c8b96591466a2904b7,TCN,2024-06-11_13h38.29.639,LearnStrategy,2023.2.3,Win32,60.24096386,1,1,14,0.0625,0.024739583,1,0,0,1.0103,rock_grid_rect_2,3,09,-1,-1,1.01,0.3828125,-0.26171875,1,0,0,2.1927,Gabbro_rect,4,2.193,0,13,0,13,0,1,,,,,,,,,,,,,
662700c8b96591466a2904b7,TCN,2024-06-11_13h38.29.639,LearnStrategy,2023.2.3,Win32,60.24096386,1,1,15,0.072916667,-0.001302083,1,0,0,1.2415,rock_grid_rect_2,7,06,-1,-1,1.242,-0.205729167,-0.395833333,1,0,0,4.9493,Pegmatite_rect,6,4.949,0,14,0,14,0,1,,,,,,,,,,,,,
662700c8b96591466a2904b7,TCN,2024-06-11_13h38.29.639,LearnStrategy,2023.2.3,Win32,60.24096386,1,1,16,0.111979167,-0.00390625,1,0,0,2.3129,rock_grid_rect_2,6,11,-1,-1,2.313,-0.39453125,-0.401041667,1,0,0,2.9699,Obsidian_rect,5,2.97,0,15,0,15,0,1,,,,,,,,,,,,,
662700c8b96591466a2904b7,TCN,2024-06-11_13h38.29.639,LearnStrategy,2023.2.3,Win32,60.24096386,1,2,1,,,,,,,,1,02,,,,,,,,,,,2,2.858,0,,,,,,-0.21875,-0.24609375,1,0,0,2.8578,Basalt_rect,0,0,0,0,1,
662700c8b96591466a2904b7,TCN,2024-06-11_13h38.29.639,LearnStrategy,2023.2.3,Win32,60.24096386,1,2,2,,,,,,,,7,15,,,,,,,,,,,8,4.36,0,,,,,,0.38671875,-0.411458333,1,0,0,4.3602,Pumice_rect,1,0,1,0,1,
662700c8b96591466a2904b7,TCN,2024-06-11_13h38.29.639,LearnStrategy,2023.2.3,Win32,60.24096386,1,2,3,,,,,,,,3,16,,,,,,,,,,,5,5.487,0,,,,,,-0.35546875,-0.412760417,1,0,0,5.4873,Obsidian_rect,2,0,2,0,1,
662700c8b96591466a2904b7,TCN,2024-06-11_13h38.29.639,LearnStrategy,2023.2.3,Win32,60.24096386,1,2,4,,,,,,,,8,06,,,,,,,,,,,4,7.682,0,,,,,,0.4296875,-0.236979167,1,0,0,7.6818,Gabbro_rect,3,0,3,0,1,
662700c8b96591466a2904b7,TCN,2024-06-11_13h38.29.639,LearnStrategy,2023.2.3,Win32,60.24096386,1,2,5,,,,,,,,8,09,,,,,,,,,,,7,2.17,0,,,,,,0.1171875,-0.40234375,1,0,0,2.1702,Peridotite_rect,4,0,4,0,1,
662700c8b96591466a2904b7,TCN,2024-06-11_13h38.29.639,LearnStrategy,2023.2.3,Win32,60.24096386,1,2,6,,,,,,,,1,06,,,,,,,,,,,6,3.71,0,,,,,,-0.18359375,-0.399739583,1,0,0,3.7103,Pegmatite_rect,5,0,5,0,1,
662700c8b96591466a2904b7,TCN,2024-06-11_13h38.29.639,LearnStrategy,2023.2.3,Win32,60.24096386,1,2,7,,,,,,,,4,13,,,,,,,,,,,7,1.749,0,,,,,,0.135416667,-0.415364583,1,0,0,1.749,Peridotite_rect,6,0,6,0,1,
662700c8b96591466a2904b7,TCN,2024-06-11_13h38.29.639,LearnStrategy,2023.2.3,Win32,60.24096386,1,2,8,,,,,,,,5,09,,,,,,,,,,,1,2.398,0,,,,,,-0.401041667,-0.264322917,1,0,0,2.3977,Andesite_rect,7,0,7,0,1,
662700c8b96591466a2904b7,TCN,2024-06-11_13h38.29.639,LearnStrategy,2023.2.3,Win32,60.24096386,1,2,9,,,,,,,,2,12,,,,,,,,,,,7,2.874,0,,,,,,0.130208333,-0.40234375,1,0,0,2.8741,Peridotite_rect,8,0,8,0,1,
662700c8b96591466a2904b7,TCN,2024-06-11_13h38.29.639,LearnStrategy,2023.2.3,Win32,60.24096386,1,2,10,,,,,,,,3,11,,,,,,,,,,,8,2.036,0,,,,,,0.404947917,-0.39453125,1,0,0,2.0363,Pumice_rect,9,0,9,0,1,
662700c8b96591466a2904b7,TCN,2024-06-11_13h38.29.639,LearnStrategy,2023.2.3,Win32,60.24096386,1,2,11,,,,,,,,2,02,,,,,,,,,,,1,5.522,0,,,,,,-0.375,-0.236979167,1,0,0,5.5225,Andesite_rect,10,0,10,0,1,
662700c8b96591466a2904b7,TCN,2024-06-11_13h38.29.639,LearnStrategy,2023.2.3,Win32,60.24096386,1,2,12,,,,,,,,6,15,,,,,,,,,,,6,4.464,1,,,,,,-0.100260417,-0.404947917,1,0,0,4.4637,Pegmatite_rect,11,0,11,0,1,
662700c8b96591466a2904b7,TCN,2024-06-11_13h38.29.639,LearnStrategy,2023.2.3,Win32,60.24096386,1,2,13,,,,,,,,7,05,,,,,,,,,,,7,3.457,1,,,,,,0.204427083,-0.389322917,1,0,0,3.4571,Peridotite_rect,12,0,12,0,1,
662700c8b96591466a2904b7,TCN,2024-06-11_13h38.29.639,LearnStrategy,2023.2.3,Win32,60.24096386,1,2,14,,,,,,,,4,08,,,,,,,,,,,3,3.419,0,,,,,,0.106770833,-0.2421875,1,0,0,3.4195,Diorite_rect,13,0,13,0,1,
662700c8b96591466a2904b7,TCN,2024-06-11_13h38.29.639,LearnStrategy,2023.2.3,Win32,60.24096386,1,2,15,,,,,,,,5,11,,,,,,,,,,,1,5.554,0,,,,,,-0.330729167,-0.244791667,1,0,0,5.5544,Andesite_rect,14,0,14,0,1,
662700c8b96591466a2904b7,TCN,2024-06-11_13h38.29.639,LearnStrategy,2023.2.3,Win32,60.24096386,1,2,16,,,,,,,,6,05,,,,,,,,,,,3,5.111,0,,,,,,0.177083333,-0.247395833,1,0,0,5.111,Diorite_rect,15,0,15,0,1,
662700c8b96591466a2904b7,TCN,2024-06-11_13h38.29.639,LearnStrategy,2023.2.3,Win32,60.24096386,2,1,1,0.143229167,0.0078125,1,0,0,2.3994,rock_grid_rect_2,1,14,-1,-1,2.399,0.153645833,-0.411458333,1,0,0,43.7724,Peridotite_rect,7,43.772,0,0,0,0,0,1,,,,,,,,,,,,,
662700c8b96591466a2904b7,TCN,2024-06-11_13h38.29.639,LearnStrategy,2023.2.3,Win32,60.24096386,2,1,2,0.080729167,-0.001302083,1,0,0,1.3931,rock_grid_rect_2,4,14,-1,-1,1.393,0.1640625,-0.388020833,1,0,0,27.0279,Peridotite_rect,7,27.028,0,1,0,1,0,1,,,,,,,,,,,,,
662700c8b96591466a2904b7,TCN,2024-06-11_13h38.29.639,LearnStrategy,2023.2.3,Win32,60.24096386,2,1,3,0.1484375,-0.005208333,1,0,0,3.3674,rock_grid_rect_2,3,15,-1,-1,3.367,0.421875,-0.251302083,1,0,0,2.7365,Gabbro_rect,4,2.736,0,2,0,2,0,1,,,,,,,,,,,,,
662700c8b96591466a2904b7,TCN,2024-06-11_13h38.29.639,LearnStrategy,2023.2.3,Win32,60.24096386,2,1,4,0.079427083,0.005208333,1,0,0,1.123,rock_grid_rect_2,7,08,-1,-1,1.123,-0.16796875,-0.40234375,1,0,0,4.8456,Pegmatite_rect,6,4.846,0,3,0,3,0,1,,,,,,,,,,,,,
662700c8b96591466a2904b7,TCN,2024-06-11_13h38.29.639,LearnStrategy,2023.2.3,Win32,60.24096386,2,1,5,0.0703125,0.001302083,1,0,0,1.1778,rock_grid_rect_2,2,04,-1,-1,1.178,0.444010417,-0.393229167,1,0,0,2.1108,Pumice_rect,8,2.111,0,4,0,4,0,1,,,,,,,,,,,,,
662700c8b96591466a2904b7,TCN,2024-06-11_13h38.29.639,LearnStrategy,2023.2.3,Win32,60.24096386,2,1,6,0.078125,0.010416667,1,0,0,1.7642,rock_grid_rect_2,6,06,-1,-1,1.764,-0.111979167,-0.416666667,1,0,0,5.409,Pegmatite_rect,6,5.409,1,5,0,5,0,1,,,,,,,,,,,,,
662700c8b96591466a2904b7,TCN,2024-06-11_13h38.29.639,LearnStrategy,2023.2.3,Win32,60.24096386,2,1,7,0.041666667,-0.001302083,1,0,0,2.0737,rock_grid_rect_2,6,09,-1,-1,2.074,0.356770833,-0.2578125,1,0,0,5.1493,Gabbro_rect,4,5.149,0,6,0,6,0,1,,,,,,,,,,,,,
662700c8b96591466a2904b7,TCN,2024-06-11_13h38.29.639,LearnStrategy,2023.2.3,Win32,60.24096386,2,1,8,0.095052083,0.00390625,1,0,0,0.8743,rock_grid_rect_2,2,16,-1,-1,0.874,-0.170572917,-0.26171875,1,0,0,2.1537,Basalt_rect,2,2.154,1,7,0,7,0,1,,,,,,,,,,,,,
662700c8b96591466a2904b7,TCN,2024-06-11_13h38.29.639,LearnStrategy,2023.2.3,Win32,60.24096386,2,1,9,0.037760417,-0.022135417,1,0,0,1.0294,rock_grid_rect_2,1,16,-1,-1,1.029,0.401041667,-0.420572917,1,0,0,4.9541,Pumice_rect,8,4.954,0,8,0,8,0,1,,,,,,,,,,,,,
662700c8b96591466a2904b7,TCN,2024-06-11_13h38.29.639,LearnStrategy,2023.2.3,Win32,60.24096386,2,1,10,0.084635417,0.0234375,1,0,0,1.1659,rock_grid_rect_2,8,02,-1,-1,1.166,-0.372395833,-0.264322917,1,0,0,4.3806,Andesite_rect,1,4.381,0,9,0,9,0,1,,,,,,,,,,,,,
662700c8b96591466a2904b7,TCN,2024-06-11_13h38.29.639,LearnStrategy,2023.2.3,Win32,60.24096386,2,1,11,0.053385417,0.01953125,1,0,0,0.9461,rock_grid_rect_2,5,04,-1,-1,0.946,0.134114583,-0.25,1,0,0,2.5731,Diorite_rect,3,2.573,0,10,0,10,0,1,,,,,,,,,,,,,
662700c8b96591466a2904b7,TCN,2024-06-11_13h38.29.639,LearnStrategy,2023.2.3,Win32,60.24096386,2,1,12,0.05859375,0.014322917,1,0,0,0.8478,rock_grid_rect_2,8,08,-1,-1,0.848,0.134114583,-0.403645833,1,0,0,1.9169,Peridotite_rect,7,1.917,0,11,0,11,0,1,,,,,,,,,,,,,
662700c8b96591466a2904b7,TCN,2024-06-11_13h38.29.639,LearnStrategy,2023.2.3,Win32,60.24096386,2,1,13,0.044270833,0.015625,1,0,0,1.8693,rock_grid_rect_2,3,06,-1,-1,1.869,-0.098958333,-0.384114583,1,0,0,2.4008,Pegmatite_rect,6,2.401,0,12,0,12,0,1,,,,,,,,,,,,,
662700c8b96591466a2904b7,TCN,2024-06-11_13h38.29.639,LearnStrategy,2023.2.3,Win32,60.24096386,2,1,14,0.020833333,0.0078125,1,0,0,1.1354,rock_grid_rect_2,4,03,-1,-1,1.135,-0.123697917,-0.256510417,1,0,0,3.202,Basalt_rect,2,3.202,0,13,0,13,0,1,,,,,,,,,,,,,
662700c8b96591466a2904b7,TCN,2024-06-11_13h38.29.639,LearnStrategy,2023.2.3,Win32,60.24096386,2,1,15,0.0625,0.002604167,1,0,0,0.9142,rock_grid_rect_2,7,14,-1,-1,0.914,0.109375,-0.420572917,1,0,0,3.8073,Peridotite_rect,7,3.807,1,14,0,14,0,1,,,,,,,,,,,,,
662700c8b96591466a2904b7,TCN,2024-06-11_13h38.29.639,LearnStrategy,2023.2.3,Win32,60.24096386,2,1,16,0.024739583,-0.016927083,1,0,0,1.0781,rock_grid_rect_2,5,08,-1,-1,1.078,0.045572917,-0.263020833,1,0,0,9.1595,Diorite_rect,3,9.159,0,15,0,15,0,1,,,,,,,,,,,,,
662700c8b96591466a2904b7,TCN,2024-06-11_13h38.29.639,LearnStrategy,2023.2.3,Win32,60.24096386,2,2,1,,,,,,,,4,11,,,,,,,,,,,2,3.774,0,,,,,,-0.109375,-0.235677083,1,0,0,3.7737,Basalt_rect,0,0,0,0,1,
662700c8b96591466a2904b7,TCN,2024-06-11_13h38.29.639,LearnStrategy,2023.2.3,Win32,60.24096386,2,2,2,,,,,,,,7,12,,,,,,,,,,,7,4.896,1,,,,,,0.09765625,-0.403645833,1,0,0,4.8962,Peridotite_rect,1,0,1,0,1,
662700c8b96591466a2904b7,TCN,2024-06-11_13h38.29.639,LearnStrategy,2023.2.3,Win32,60.24096386,2,2,3,,,,,,,,8,10,,,,,,,,,,,1,5.774,0,,,,,,-0.380208333,-0.251302083,1,0,0,5.7736,Andesite_rect,2,0,2,0,1,
662700c8b96591466a2904b7,TCN,2024-06-11_13h38.29.639,LearnStrategy,2023.2.3,Win32,60.24096386,2,2,4,,,,,,,,4,12,,,,,,,,,,,3,4.375,0,,,,,,0.141927083,-0.266927083,1,0,0,4.375,Diorite_rect,3,0,3,0,1,
662700c8b96591466a2904b7,TCN,2024-06-11_13h38.29.639,LearnStrategy,2023.2.3,Win32,60.24096386,2,2,5,,,,,,,,5,14,,,,,,,,,,,5,5.618,1,,,,,,-0.45703125,-0.393229167,1,0,0,5.6176,Obsidian_rect,4,0,4,0,1,
662700c8b96591466a2904b7,TCN,2024-06-11_13h38.29.639,LearnStrategy,2023.2.3,Win32,60.24096386,2,2,6,,,,,,,,2,08,,,,,,,,,,,6,5.598,0,,,,,,-0.109375,-0.420572917,1,0,0,5.5983,Pegmatite_rect,5,0,5,0,1,
662700c8b96591466a2904b7,TCN,2024-06-11_13h38.29.639,LearnStrategy,2023.2.3,Win32,60.24096386,2,2,7,,,,,,,,8,15,,,,,,,,,,,8,3.724,1,,,,,,0.3828125,-0.3828125,1,0,0,3.7235,Pumice_rect,6,0,6,0,1,
662700c8b96591466a2904b7,TCN,2024-06-11_13h38.29.639,LearnStrategy,2023.2.3,Win32,60.24096386,2,2,8,,,,,,,,6,08,,,,,,,,,,,2,5.691,0,,,,,,-0.12109375,-0.259114583,1,0,0,5.691,Basalt_rect,7,0,7,0,1,
662700c8b96591466a2904b7,TCN,2024-06-11_13h38.29.639,LearnStrategy,2023.2.3,Win32,60.24096386,2,2,9,,,,,,,,6,07,,,,,,,,,,,3,1.427,0,,,,,,0.122395833,-0.256510417,1,0,0,1.4269,Diorite_rect,8,0,8,0,1,
662700c8b96591466a2904b7,TCN,2024-06-11_13h38.29.639,LearnStrategy,2023.2.3,Win32,60.24096386,2,2,10,,,,,,,,1,03,,,,,,,,,,,4,3.172,0,,,,,,0.36328125,-0.23828125,1,0,0,3.1718,Gabbro_rect,9,0,9,0,1,
662700c8b96591466a2904b7,TCN,2024-06-11_13h38.29.639,LearnStrategy,2023.2.3,Win32,60.24096386,2,2,11,,,,,,,,1,09,,,,,,,,,,,6,2.533,0,,,,,,-0.080729167,-0.407552083,1,0,0,2.5334,Pegmatite_rect,10,0,10,0,1,
662700c8b96591466a2904b7,TCN,2024-06-11_13h38.29.639,LearnStrategy,2023.2.3,Win32,60.24096386,2,2,12,,,,,,,,5,16,,,,,,,,,,,5,4.343,1,,,,,,-0.419270833,-0.389322917,1,0,0,4.3427,Obsidian_rect,11,0,11,0,1,
662700c8b96591466a2904b7,TCN,2024-06-11_13h38.29.639,LearnStrategy,2023.2.3,Win32,60.24096386,2,2,13,,,,,,,,2,14,,,,,,,,,,,6,3.697,0,,,,,,-0.072916667,-0.4140625,1,0,0,3.6966,Pegmatite_rect,12,0,12,0,1,
662700c8b96591466a2904b7,TCN,2024-06-11_13h38.29.639,LearnStrategy,2023.2.3,Win32,60.24096386,2,2,14,,,,,,,,3,08,,,,,,,,,,,3,4.547,1,,,,,,0.190104167,-0.266927083,1,0,0,4.5469,Diorite_rect,13,0,13,0,1,
662700c8b96591466a2904b7,TCN,2024-06-11_13h38.29.639,LearnStrategy,2023.2.3,Win32,60.24096386,2,2,15,,,,,,,,3,07,,,,,,,,,,,4,3.179,0,,,,,,0.47265625,-0.24609375,1,0,0,3.1793,Gabbro_rect,14,0,14,0,1,
662700c8b96591466a2904b7,TCN,2024-06-11_13h38.29.639,LearnStrategy,2023.2.3,Win32,60.24096386,2,2,16,,,,,,,,7,02,,,,,,,,,,,8,2.229,0,,,,,,0.411458333,-0.408854167,1,0,0,2.2291,Pumice_rect,15,0,15,0,1,
662700c8b96591466a2904b7,TCN,2024-06-11_13h38.29.639,LearnStrategy,2023.2.3,Win32,60.24096386,3,1,1,0.130208333,-0.01171875,1,0,0,1.836,rock_grid_rect_2,3,14,-1,-1,1.836,-0.108072917,-0.38671875,1,0,0,3.461,Pegmatite_rect,6,3.461,0,0,0,0,0,1,,,,,,,,,,,,,
662700c8b96591466a2904b7,TCN,2024-06-11_13h38.29.639,LearnStrategy,2023.2.3,Win32,60.24096386,3,1,2,0.127604167,0,1,0,0,1.6836,rock_grid_rect_2,5,06,-1,-1,1.684,0.432291667,-0.268229167,1,0,0,8.0719,Gabbro_rect,4,8.072,0,1,0,1,0,1,,,,,,,,,,,,,
662700c8b96591466a2904b7,TCN,2024-06-11_13h38.29.639,LearnStrategy,2023.2.3,Win32,60.24096386,3,1,3,0.045572917,0.014322917,1,0,0,1.1313,rock_grid_rect_2,6,03,-1,-1,1.131,0.322916667,-0.391927083,1,0,0,5.2081,Pumice_rect,8,5.208,0,2,0,2,0,1,,,,,,,,,,,,,
662700c8b96591466a2904b7,TCN,2024-06-11_13h38.29.639,LearnStrategy,2023.2.3,Win32,60.24096386,3,1,4,0.053385417,0.005208333,1,0,0,1.1263,rock_grid_rect_2,3,13,-1,-1,1.126,-0.361979167,-0.390625,1,0,0,2.826,Obsidian_rect,5,2.826,0,3,0,3,0,1,,,,,,,,,,,,,
662700c8b96591466a2904b7,TCN,2024-06-11_13h38.29.639,LearnStrategy,2023.2.3,Win32,60.24096386,3,1,5,0.08984375,-0.020833333,1,0,0,1.0054,rock_grid_rect_2,4,09,-1,-1,1.005,0.15625,-0.404947917,1,0,0,2.3988,Peridotite_rect,7,2.399,0,4,0,4,0,1,,,,,,,,,,,,,
662700c8b96591466a2904b7,TCN,2024-06-11_13h38.29.639,LearnStrategy,2023.2.3,Win32,60.24096386,3,1,6,0.009114583,0.018229167,1,0,0,1.0325,rock_grid_rect_2,7,10,-1,-1,1.033,0.395833333,-0.40625,1,0,0,4.3681,Pumice_rect,8,4.368,0,5,0,5,0,1,,,,,,,,,,,,,
662700c8b96591466a2904b7,TCN,2024-06-11_13h38.29.639,LearnStrategy,2023.2.3,Win32,60.24096386,3,1,7,-0.013020833,-0.00390625,1,0,0,0.8708,rock_grid_rect_2,7,07,-1,-1,0.871,0.346354167,-0.397135417,1,0,0,2.5943,Pumice_rect,8,2.594,0,6,0,6,0,1,,,,,,,,,,,,,
662700c8b96591466a2904b7,TCN,2024-06-11_13h38.29.639,LearnStrategy,2023.2.3,Win32,60.24096386,3,1,8,0.053385417,0.0234375,1,0,0,0.8223,rock_grid_rect_2,8,16,-1,-1,0.822,-0.328125,-0.247395833,1,0,0,4.8572,Andesite_rect,1,4.857,0,7,0,7,0,1,,,,,,,,,,,,,
662700c8b96591466a2904b7,TCN,2024-06-11_13h38.29.639,LearnStrategy,2023.2.3,Win32,60.24096386,3,1,9,0.092447917,-0.020833333,1,0,0,0.948,rock_grid_rect_2,4,10,-1,-1,0.948,0.438802083,-0.39453125,1,0,0,2.3134,Pumice_rect,8,2.313,0,8,0,8,0,1,,,,,,,,,,,,,
662700c8b96591466a2904b7,TCN,2024-06-11_13h38.29.639,LearnStrategy,2023.2.3,Win32,60.24096386,3,1,10,-0.001302083,-0.01171875,1,0,0,1.8085,rock_grid_rect_2,1,05,-1,-1,1.809,0.147135417,-0.236979167,1,0,0,3.7612,Diorite_rect,3,3.761,0,9,0,9,0,1,,,,,,,,,,,,,
662700c8b96591466a2904b7,TCN,2024-06-11_13h38.29.639,LearnStrategy,2023.2.3,Win32,60.24096386,3,1,11,0.026041667,-0.018229167,1,0,0,0.866,rock_grid_rect_2,2,10,-1,-1,0.866,0.1796875,-0.411458333,1,0,0,3.2403,Peridotite_rect,7,3.24,0,10,0,10,0,1,,,,,,,,,,,,,
662700c8b96591466a2904b7,TCN,2024-06-11_13h38.29.639,LearnStrategy,2023.2.3,Win32,60.24096386,3,1,12,-0.01171875,0.010416667,1,0,0,1.1552,rock_grid_rect_2,5,12,-1,-1,1.155,-0.309895833,-0.404947917,1,0,0,6.6693,Obsidian_rect,5,6.669,1,11,0,11,0,1,,,,,,,,,,,,,
662700c8b96591466a2904b7,TCN,2024-06-11_13h38.29.639,LearnStrategy,2023.2.3,Win32,60.24096386,3,1,13,0.080729167,0.018229167,1,0,0,1.009,rock_grid_rect_2,6,16,-1,-1,1.009,-0.328125,-0.266927083,1,0,0,6.9388,Andesite_rect,1,6.939,0,12,0,12,0,1,,,,,,,,,,,,,
662700c8b96591466a2904b7,TCN,2024-06-11_13h38.29.639,LearnStrategy,2023.2.3,Win32,60.24096386,3,1,14,0.046875,0.018229167,1,0,0,0.8995,rock_grid_rect_2,1,04,-1,-1,0.899,0.16015625,-0.25,1,0,0,1.9376,Diorite_rect,3,1.938,0,13,0,13,0,1,,,,,,,,,,,,,
662700c8b96591466a2904b7,TCN,2024-06-11_13h38.29.639,LearnStrategy,2023.2.3,Win32,60.24096386,3,1,15,0.1015625,-0.002604167,1,0,0,2.0476,rock_grid_rect_2,8,04,-1,-1,2.048,0.104166667,-0.256510417,1,0,0,4.7887,Diorite_rect,3,4.789,0,14,0,14,0,1,,,,,,,,,,,,,
662700c8b96591466a2904b7,TCN,2024-06-11_13h38.29.639,LearnStrategy,2023.2.3,Win32,60.24096386,3,1,16,0.08203125,-0.005208333,1,0,0,1.9543,rock_grid_rect_2,2,05,-1,-1,1.954,0.424479167,-0.397135417,1,0,0,2.8786,Pumice_rect,8,2.879,0,15,0,15,0,1,,,,,,,,,,,,,
662700c8b96591466a2904b7,TCN,2024-06-11_13h38.29.639,LearnStrategy,2023.2.3,Win32,60.24096386,3,2,1,,,,,,,,5,02,,,,,,,,,,,3,2.418,0,,,,,,0.158854167,-0.255208333,1,0,0,2.4183,Diorite_rect,0,0,0,0,1,
662700c8b96591466a2904b7,TCN,2024-06-11_13h38.29.639,LearnStrategy,2023.2.3,Win32,60.24096386,3,2,2,,,,,,,,7,13,,,,,,,,,,,8,6.041,0,,,,,,0.420572917,-0.399739583,1,0,0,6.041,Pumice_rect,1,0,1,0,1,
662700c8b96591466a2904b7,TCN,2024-06-11_13h38.29.639,LearnStrategy,2023.2.3,Win32,60.24096386,3,2,3,,,,,,,,8,14,,,,,,,,,,,2,5.463,0,,,,,,-0.12890625,-0.233072917,1,0,0,5.4628,Basalt_rect,2,0,2,0,1,
662700c8b96591466a2904b7,TCN,2024-06-11_13h38.29.639,LearnStrategy,2023.2.3,Win32,60.24096386,3,2,4,,,,,,,,8,13,,,,,,,,,,,3,3.298,0,,,,,,0.139322917,-0.256510417,1,0,0,3.2978,Diorite_rect,3,0,3,0,1,
662700c8b96591466a2904b7,TCN,2024-06-11_13h38.29.639,LearnStrategy,2023.2.3,Win32,60.24096386,3,2,5,,,,,,,,7,16,,,,,,,,,,,6,4.967,0,,,,,,-0.126302083,-0.3828125,1,0,0,4.9674,Pegmatite_rect,4,0,4,0,1,
662700c8b96591466a2904b7,TCN,2024-06-11_13h38.29.639,LearnStrategy,2023.2.3,Win32,60.24096386,3,2,6,,,,,,,,2,06,,,,,,,,,,,2,2.472,1,,,,,,-0.12890625,-0.236979167,1,0,0,2.472,Basalt_rect,5,0,5,0,1,
662700c8b96591466a2904b7,TCN,2024-06-11_13h38.29.639,LearnStrategy,2023.2.3,Win32,60.24096386,3,2,7,,,,,,,,3,02,,,,,,,,,,,5,5.817,0,,,,,,-0.421875,-0.391927083,1,0,0,5.8171,Obsidian_rect,6,0,6,0,1,
662700c8b96591466a2904b7,TCN,2024-06-11_13h38.29.639,LearnStrategy,2023.2.3,Win32,60.24096386,3,2,8,,,,,,,,1,11,,,,,,,,,,,8,5.658,0,,,,,,0.430989583,-0.401041667,1,0,0,5.6584,Pumice_rect,7,0,7,0,1,
662700c8b96591466a2904b7,TCN,2024-06-11_13h38.29.639,LearnStrategy,2023.2.3,Win32,60.24096386,3,2,9,,,,,,,,6,10,,,,,,,,,,,7,3.28,0,,,,,,0.12109375,-0.401041667,1,0,0,3.2803,Peridotite_rect,8,0,8,0,1,
662700c8b96591466a2904b7,TCN,2024-06-11_13h38.29.639,LearnStrategy,2023.2.3,Win32,60.24096386,3,2,10,,,,,,,,1,10,,,,,,,,,,,3,2.622,0,,,,,,0.12890625,-0.235677083,1,0,0,2.6223,Diorite_rect,9,0,9,0,1,
662700c8b96591466a2904b7,TCN,2024-06-11_13h38.29.639,LearnStrategy,2023.2.3,Win32,60.24096386,3,2,11,,,,,,,,6,13,,,,,,,,,,,5,4.33,0,,,,,,-0.3828125,-0.397135417,1,0,0,4.3301,Obsidian_rect,10,0,10,0,1,
662700c8b96591466a2904b7,TCN,2024-06-11_13h38.29.639,LearnStrategy,2023.2.3,Win32,60.24096386,3,2,12,,,,,,,,4,15,,,,,,,,,,,5,0.196,0,,,,,,-0.3828125,-0.397135417,1,0,0,0.1957,Obsidian_rect,11,0,11,0,1,
662700c8b96591466a2904b7,TCN,2024-06-11_13h38.29.639,LearnStrategy,2023.2.3,Win32,60.24096386,3,2,13,,,,,,,,5,07,,,,,,,,,,,3,4.218,0,,,,,,0.131510417,-0.26171875,1,0,0,4.2184,Diorite_rect,12,0,12,0,1,
662700c8b96591466a2904b7,TCN,2024-06-11_13h38.29.639,LearnStrategy,2023.2.3,Win32,60.24096386,3,2,14,,,,,,,,4,16,,,,,,,,,,,5,5.891,0,,,,,,-0.404947917,-0.389322917,1,0,0,5.8907,Obsidian_rect,13,0,13,0,1,
662700c8b96591466a2904b7,TCN,2024-06-11_13h38.29.639,LearnStrategy,2023.2.3,Win32,60.24096386,3,2,15,,,,,,,,2,11,,,,,,,,,,,7,3.197,0,,,,,,0.141927083,-0.40625,1,0,0,3.1974,Peridotite_rect,14,0,14,0,1,
662700c8b96591466a2904b7,TCN,2024-06-11_13h38.29.639,LearnStrategy,2023.2.3,Win32,60.24096386,3,2,16,,,,,,,,3,12,,,,,,,,,,,1,5.266,0,,,,,,-0.326822917,-0.259114583,1,0,0,5.266,Andesite_rect,15,0,15,0,1,
662700c8b96591466a2904b7,TCN,2024-06-11_13h38.29.639,LearnStrategy,2023.2.3,Win32,60.24096386,4,1,1,0.079427083,0.01171875,1,0,0,1.4679,rock_grid_rect_2,3,10,-1,-1,1.468,0.3671875,-0.397135417,1,0,0,3.1902,Pumice_rect,8,3.19,0,0,0,0,0,1,,,,,,,,,,,,,
662700c8b96591466a2904b7,TCN,2024-06-11_13h38.29.639,LearnStrategy,2023.2.3,Win32,60.24096386,4,1,2,0.061197917,-0.00390625,1,0,0,1.0813,rock_grid_rect_2,6,06,-1,-1,1.081,0.092447917,-0.397135417,1,0,0,6.3077,Peridotite_rect,7,6.308,0,1,0,1,0,1,,,,,,,,,,,,,
662700c8b96591466a2904b7,TCN,2024-06-11_13h38.29.639,LearnStrategy,2023.2.3,Win32,60.24096386,4,1,3,0.041666667,0.00390625,1,0,0,1.1287,rock_grid_rect_2,8,03,-1,-1,1.129,0.385416667,-0.266927083,1,0,0,2.9429,Gabbro_rect,4,2.943,0,2,0,2,0,1,,,,,,,,,,,,,
662700c8b96591466a2904b7,TCN,2024-06-11_13h38.29.639,LearnStrategy,2023.2.3,Win32,60.24096386,4,1,4,0.096354167,-0.0078125,1,0,0,1.9531,rock_grid_rect_2,7,08,-1,-1,1.953,-0.127604167,-0.270833333,1,0,0,4.424,Basalt_rect,2,4.424,0,3,0,3,0,1,,,,,,,,,,,,,
662700c8b96591466a2904b7,TCN,2024-06-11_13h38.29.639,LearnStrategy,2023.2.3,Win32,60.24096386,4,1,5,0.126302083,-0.001302083,1,0,0,1.1053,rock_grid_rect_2,2,09,-1,-1,1.105,0.42578125,-0.408854167,1,0,0,3.5976,Pumice_rect,8,3.598,0,4,0,4,0,1,,,,,,,,,,,,,
662700c8b96591466a2904b7,TCN,2024-06-11_13h38.29.639,LearnStrategy,2023.2.3,Win32,60.24096386,4,1,6,0.087239583,-0.01171875,1,0,0,1.0487,rock_grid_rect_2,5,05,-1,-1,1.049,0.1484375,-0.259114583,1,0,0,2.0313,Diorite_rect,3,2.031,0,5,0,5,0,1,,,,,,,,,,,,,
662700c8b96591466a2904b7,TCN,2024-06-11_13h38.29.639,LearnStrategy,2023.2.3,Win32,60.24096386,4,1,7,-0.02734375,-0.016927083,1,0,0,0.8635,rock_grid_rect_2,4,14,-1,-1,0.864,0.08203125,-0.411458333,1,0,0,3.8255,Peridotite_rect,7,3.825,0,6,0,6,0,1,,,,,,,,,,,,,
662700c8b96591466a2904b7,TCN,2024-06-11_13h38.29.639,LearnStrategy,2023.2.3,Win32,60.24096386,4,1,8,0.020833333,0.014322917,1,0,0,0.9034,rock_grid_rect_2,6,12,-1,-1,0.903,-0.39453125,-0.256510417,1,0,0,2.2201,Andesite_rect,1,2.22,0,7,0,7,0,1,,,,,,,,,,,,,
662700c8b96591466a2904b7,TCN,2024-06-11_13h38.29.639,LearnStrategy,2023.2.3,Win32,60.24096386,4,1,9,0.067708333,-0.015625,1,0,0,0.8787,rock_grid_rect_2,7,07,-1,-1,0.879,-0.12109375,-0.381510417,1,0,0,5.8348,Pegmatite_rect,6,5.835,0,8,0,8,0,1,,,,,,,,,,,,,
662700c8b96591466a2904b7,TCN,2024-06-11_13h38.29.639,LearnStrategy,2023.2.3,Win32,60.24096386,4,1,10,0.0859375,-0.020833333,1,0,0,0.8838,rock_grid_rect_2,2,04,-1,-1,0.884,-0.08984375,-0.25,1,0,0,3.4268,Basalt_rect,2,3.427,1,9,0,9,0,1,,,,,,,,,,,,,
662700c8b96591466a2904b7,TCN,2024-06-11_13h38.29.639,LearnStrategy,2023.2.3,Win32,60.24096386,4,1,11,0.03125,0,1,0,0,1.2846,rock_grid_rect_2,5,10,-1,-1,1.285,-0.364583333,-0.408854167,1,0,0,2.7299,Obsidian_rect,5,2.73,1,10,0,10,0,1,,,,,,,,,,,,,
662700c8b96591466a2904b7,TCN,2024-06-11_13h38.29.639,LearnStrategy,2023.2.3,Win32,60.24096386,4,1,12,0.024739583,-0.005208333,1,0,0,1.1659,rock_grid_rect_2,8,02,-1,-1,1.166,0.359375,-0.40234375,1,0,0,3.7389,Pumice_rect,8,3.739,1,11,0,11,0,1,,,,,,,,,,,,,
662700c8b96591466a2904b7,TCN,2024-06-11_13h38.29.639,LearnStrategy,2023.2.3,Win32,60.24096386,4,1,13,0.067708333,0.00390625,1,0,0,1.0412,rock_grid_rect_2,4,09,-1,-1,1.041,-0.106770833,-0.233072917,1,0,0,4.0947,Basalt_rect,2,4.095,0,12,0,12,0,1,,,,,,,,,,,,,
662700c8b96591466a2904b7,TCN,2024-06-11_13h38.29.639,LearnStrategy,2023.2.3,Win32,60.24096386,4,1,14,0.0703125,0.009114583,1,0,0,1.7298,rock_grid_rect_2,1,16,-1,-1,1.73,0.404947917,-0.419270833,1,0,0,4.9461,Pumice_rect,8,4.946,0,13,0,13,0,1,,,,,,,,,,,,,
662700c8b96591466a2904b7,TCN,2024-06-11_13h38.29.639,LearnStrategy,2023.2.3,Win32,60.24096386,4,1,15,0.0546875,0,1,0,0,0.9494,rock_grid_rect_2,3,06,-1,-1,0.949,-0.346354167,-0.244791667,1,0,0,4.7113,Andesite_rect,1,4.711,0,14,0,14,0,1,,,,,,,,,,,,,
662700c8b96591466a2904b7,TCN,2024-06-11_13h38.29.639,LearnStrategy,2023.2.3,Win32,60.24096386,4,1,16,0.100260417,-0.001302083,1,0,0,0.9047,rock_grid_rect_2,1,01,-1,-1,0.905,-0.123697917,-0.252604167,1,0,0,2.2984,Basalt_rect,2,2.298,0,15,0,15,0,1,,,,,,,,,,,,,
662700c8b96591466a2904b7,TCN,2024-06-11_13h38.29.639,LearnStrategy,2023.2.3,Win32,60.24096386,4,2,1,,,,,,,,5,07,,,,,,,,,,,3,3.091,0,,,,,,0.149739583,-0.244791667,1,0,0,3.0907,Diorite_rect,0,0,0,0,1,
662700c8b96591466a2904b7,TCN,2024-06-11_13h38.29.639,LearnStrategy,2023.2.3,Win32,60.24096386,4,2,2,,,,,,,,2,11,,,,,,,,,,,1,5.002,0,,,,,,-0.31640625,-0.263020833,1,0,0,5.002,Andesite_rect,1,0,1,0,1,
662700c8b96591466a2904b7,TCN,2024-06-11_13h38.29.639,LearnStrategy,2023.2.3,Win32,60.24096386,4,2,3,,,,,,,,7,15,,,,,,,,,,,4,5.011,0,,,,,,0.373697917,-0.2578125,1,0,0,5.0114,Gabbro_rect,2,0,2,0,1,
662700c8b96591466a2904b7,TCN,2024-06-11_13h38.29.639,LearnStrategy,2023.2.3,Win32,60.24096386,4,2,4,,,,,,,,3,02,,,,,,,,,,,8,3.531,0,,,,,,0.391927083,-0.421875,1,0,0,3.5313,Pumice_rect,3,0,3,0,1,
662700c8b96591466a2904b7,TCN,2024-06-11_13h38.29.639,LearnStrategy,2023.2.3,Win32,60.24096386,4,2,5,,,,,,,,1,11,,,,,,,,,,,3,7.835,0,,,,,,0.197916667,-0.2578125,1,0,0,7.8349,Diorite_rect,4,0,4,0,1,
662700c8b96591466a2904b7,TCN,2024-06-11_13h38.29.639,LearnStrategy,2023.2.3,Win32,60.24096386,4,2,6,,,,,,,,1,03,,,,,,,,,,,8,5.548,0,,,,,,0.436197917,-0.403645833,1,0,0,5.5477,Pumice_rect,5,0,5,0,1,
662700c8b96591466a2904b7,TCN,2024-06-11_13h38.29.639,LearnStrategy,2023.2.3,Win32,60.24096386,4,2,7,,,,,,,,3,12,,,,,,,,,,,6,4.931,0,,,,,,-0.12890625,-0.415364583,1,0,0,4.9315,Pegmatite_rect,6,0,6,0,1,
662700c8b96591466a2904b7,TCN,2024-06-11_13h38.29.639,LearnStrategy,2023.2.3,Win32,60.24096386,4,2,8,,,,,,,,4,13,,,,,,,,,,,5,4.259,0,,,,,,-0.3984375,-0.39453125,1,0,0,4.2594,Obsidian_rect,7,0,7,0,1,
662700c8b96591466a2904b7,TCN,2024-06-11_13h38.29.639,LearnStrategy,2023.2.3,Win32,60.24096386,4,2,9,,,,,,,,6,15,,,,,,,,,,,1,1.912,0,,,,,,-0.345052083,-0.251302083,1,0,0,1.9121,Andesite_rect,8,0,8,0,1,
662700c8b96591466a2904b7,TCN,2024-06-11_13h38.29.639,LearnStrategy,2023.2.3,Win32,60.24096386,4,2,10,,,,,,,,8,13,,,,,,,,,,,8,3.057,1,,,,,,0.358072917,-0.41015625,1,0,0,3.0566,Pumice_rect,9,0,9,0,1,
662700c8b96591466a2904b7,TCN,2024-06-11_13h38.29.639,LearnStrategy,2023.2.3,Win32,60.24096386,4,2,11,,,,,,,,6,07,,,,,,,,,,,3,5.823,0,,,,,,0.166666667,-0.247395833,1,0,0,5.8233,Diorite_rect,10,0,10,0,1,
662700c8b96591466a2904b7,TCN,2024-06-11_13h38.29.639,LearnStrategy,2023.2.3,Win32,60.24096386,4,2,12,,,,,,,,5,14,,,,,,,,,,,3,5.195,0,,,,,,0.15625,-0.247395833,1,0,0,5.1948,Diorite_rect,11,0,11,0,1,
662700c8b96591466a2904b7,TCN,2024-06-11_13h38.29.639,LearnStrategy,2023.2.3,Win32,60.24096386,4,2,13,,,,,,,,7,16,,,,,,,,,,,5,2.561,0,,,,,,-0.41796875,-0.41015625,1,0,0,2.5607,Obsidian_rect,12,0,12,0,1,
662700c8b96591466a2904b7,TCN,2024-06-11_13h38.29.639,LearnStrategy,2023.2.3,Win32,60.24096386,4,2,14,,,,,,,,2,02,,,,,,,,,,,4,2.453,0,,,,,,0.356770833,-0.265625,1,0,0,2.4531,Gabbro_rect,13,0,13,0,1,
662700c8b96591466a2904b7,TCN,2024-06-11_13h38.29.639,LearnStrategy,2023.2.3,Win32,60.24096386,4,2,15,,,,,,,,4,15,,,,,,,,,,,1,5.792,0,,,,,,-0.348958333,-0.25,1,0,0,5.7923,Andesite_rect,14,0,14,0,1,
662700c8b96591466a2904b7,TCN,2024-06-11_13h38.29.639,LearnStrategy,2023.2.3,Win32,60.24096386,4,2,16,,,,,,,,8,14,,,,,,,,,,,8,3.526,1,,,,,,0.338541667,-0.415364583,1,0,0,3.5261,Pumice_rect,15,0,15,0,1,
662700c8b96591466a2904b7,TCN,2024-06-11_13h38.29.639,LearnStrategy,2023.2.3,Win32,60.24096386,5,1,1,-0.022135417,-0.013020833,1,0,0,1.3545,rock_grid_rect_2,6,09,-1,-1,1.354,0.11328125,-0.389322917,1,0,0,6.2611,Peridotite_rect,7,6.261,0,0,0,0,0,1,,,,,,,,,,,,,
662700c8b96591466a2904b7,TCN,2024-06-11_13h38.29.639,LearnStrategy,2023.2.3,Win32,60.24096386,5,1,2,0.104166667,0.009114583,1,0,0,1.288,rock_grid_rect_2,5,06,-1,-1,1.288,0.145833333,-0.24609375,1,0,0,1.8814,Diorite_rect,3,1.881,0,1,0,1,0,1,,,,,,,,,,,,,
662700c8b96591466a2904b7,TCN,2024-06-11_13h38.29.639,LearnStrategy,2023.2.3,Win32,60.24096386,5,1,3,0.069010417,0.002604167,1,0,0,1.0982,rock_grid_rect_2,7,04,-1,-1,1.098,0.1484375,-0.239583333,1,0,0,1.8688,Diorite_rect,3,1.869,0,2,0,2,0,1,,,,,,,,,,,,,
662700c8b96591466a2904b7,TCN,2024-06-11_13h38.29.639,LearnStrategy,2023.2.3,Win32,60.24096386,5,1,4,0.091145833,0.002604167,1,0,0,1.4753,rock_grid_rect_2,7,06,-1,-1,1.475,-0.311197917,-0.25390625,1,0,0,3.4961,Andesite_rect,1,3.496,0,3,0,3,0,1,,,,,,,,,,,,,
662700c8b96591466a2904b7,TCN,2024-06-11_13h38.29.639,LearnStrategy,2023.2.3,Win32,60.24096386,5,1,5,0.055989583,0,1,0,0,0.8741,rock_grid_rect_2,1,07,-1,-1,0.874,0.14453125,-0.252604167,1,0,0,2.1567,Diorite_rect,3,2.157,0,4,0,4,0,1,,,,,,,,,,,,,
662700c8b96591466a2904b7,TCN,2024-06-11_13h38.29.639,LearnStrategy,2023.2.3,Win32,60.24096386,5,1,6,0.080729167,0.0078125,1,0,0,1.0596,rock_grid_rect_2,4,10,-1,-1,1.06,0.364583333,-0.399739583,1,0,0,4.845,Pumice_rect,8,4.845,0,5,0,5,0,1,,,,,,,,,,,,,
662700c8b96591466a2904b7,TCN,2024-06-11_13h38.29.639,LearnStrategy,2023.2.3,Win32,60.24096386,5,1,7,0.09765625,-0.001302083,1,0,0,1.2005,rock_grid_rect_2,8,05,-1,-1,1.2,0.416666667,-0.385416667,1,0,0,2.9961,Pumice_rect,8,2.996,1,6,0,6,0,1,,,,,,,,,,,,,
662700c8b96591466a2904b7,TCN,2024-06-11_13h38.29.639,LearnStrategy,2023.2.3,Win32,60.24096386,5,1,8,0.123697917,0.002604167,1,0,0,1.1931,rock_grid_rect_2,1,04,-1,-1,1.193,0.408854167,-0.240885417,1,0,0,2.1063,Gabbro_rect,4,2.106,0,7,0,7,0,1,,,,,,,,,,,,,
662700c8b96591466a2904b7,TCN,2024-06-11_13h38.29.639,LearnStrategy,2023.2.3,Win32,60.24096386,5,1,9,0.1171875,0.013020833,1,0,0,0.7811,rock_grid_rect_2,2,16,-1,-1,0.781,-0.080729167,-0.2578125,1,0,0,3.0272,Basalt_rect,2,3.027,1,8,0,8,0,1,,,,,,,,,,,,,
662700c8b96591466a2904b7,TCN,2024-06-11_13h38.29.639,LearnStrategy,2023.2.3,Win32,60.24096386,5,1,10,0.071614583,-0.01171875,1,0,0,1.1763,rock_grid_rect_2,2,01,-1,-1,1.176,-0.37109375,-0.420572917,1,0,0,4.2424,Obsidian_rect,5,4.242,0,9,0,9,0,1,,,,,,,,,,,,,
662700c8b96591466a2904b7,TCN,2024-06-11_13h38.29.639,LearnStrategy,2023.2.3,Win32,60.24096386,5,1,11,0.09765625,0.0078125,1,0,0,0.8721,rock_grid_rect_2,8,16,-1,-1,0.872,0.157552083,-0.412760417,1,0,0,1.8765,Peridotite_rect,7,1.877,0,10,0,10,0,1,,,,,,,,,,,,,
662700c8b96591466a2904b7,TCN,2024-06-11_13h38.29.639,LearnStrategy,2023.2.3,Win32,60.24096386,5,1,12,0.084635417,-0.013020833,1,0,0,0.8728,rock_grid_rect_2,6,16,-1,-1,0.873,-0.365885417,-0.243489583,1,0,0,7.6644,Andesite_rect,1,7.664,0,11,0,11,0,1,,,,,,,,,,,,,
662700c8b96591466a2904b7,TCN,2024-06-11_13h38.29.639,LearnStrategy,2023.2.3,Win32,60.24096386,5,1,13,0.040364583,-0.009114583,1,0,0,1.8719,rock_grid_rect_2,4,01,-1,-1,1.872,0.178385417,-0.397135417,1,0,0,5.2966,Peridotite_rect,7,5.297,0,12,0,12,0,1,,,,,,,,,,,,,
662700c8b96591466a2904b7,TCN,2024-06-11_13h38.29.639,LearnStrategy,2023.2.3,Win32,60.24096386,5,1,14,0.11328125,0.00390625,1,0,0,1.0791,rock_grid_rect_2,3,15,-1,-1,1.079,-0.395833333,-0.397135417,1,0,0,6.3841,Obsidian_rect,5,6.384,0,13,0,13,0,1,,,,,,,,,,,,,
662700c8b96591466a2904b7,TCN,2024-06-11_13h38.29.639,LearnStrategy,2023.2.3,Win32,60.24096386,5,1,15,0.100260417,-0.010416667,1,0,0,1.0749,rock_grid_rect_2,3,09,-1,-1,1.075,0.147135417,-0.23828125,1,0,0,3.3965,Diorite_rect,3,3.397,1,14,0,14,0,1,,,,,,,,,,,,,
662700c8b96591466a2904b7,TCN,2024-06-11_13h38.29.639,LearnStrategy,2023.2.3,Win32,60.24096386,5,1,16,0.140625,0.0078125,1,0,0,1.0335,rock_grid_rect_2,5,08,-1,-1,1.034,-0.384114583,-0.391927083,1,0,0,4.5135,Obsidian_rect,5,4.514,1,15,0,15,0,1,,,,,,,,,,,,,
662700c8b96591466a2904b7,TCN,2024-06-11_13h38.29.639,LearnStrategy,2023.2.3,Win32,60.24096386,5,2,1,,,,,,,,4,11,,,,,,,,,,,2,2.007,0,,,,,,-0.114583333,-0.236979167,1,0,0,2.007,Basalt_rect,0,0,0,0,1,
662700c8b96591466a2904b7,TCN,2024-06-11_13h38.29.639,LearnStrategy,2023.2.3,Win32,60.24096386,5,2,2,,,,,,,,4,16,,,,,,,,,,,6,8.029,0,,,,,,-0.182291667,-0.412760417,1,0,0,8.0289,Pegmatite_rect,1,0,1,0,1,
662700c8b96591466a2904b7,TCN,2024-06-11_13h38.29.639,LearnStrategy,2023.2.3,Win32,60.24096386,5,2,3,,,,,,,,6,08,,,,,,,,,,,1,2.12,0,,,,,,-0.356770833,-0.252604167,1,0,0,2.12,Andesite_rect,2,0,2,0,1,
662700c8b96591466a2904b7,TCN,2024-06-11_13h38.29.639,LearnStrategy,2023.2.3,Win32,60.24096386,5,2,4,,,,,,,,5,02,,,,,,,,,,,5,2.149,1,,,,,,-0.37890625,-0.3984375,1,0,0,2.1493,Obsidian_rect,3,0,3,0,1,
662700c8b96591466a2904b7,TCN,2024-06-11_13h38.29.639,LearnStrategy,2023.2.3,Win32,60.24096386,5,2,5,,,,,,,,6,10,,,,,,,,,,,6,5.179,1,,,,,,-0.079427083,-0.40625,1,0,0,5.1787,Pegmatite_rect,4,0,4,0,1,
662700c8b96591466a2904b7,TCN,2024-06-11_13h38.29.639,LearnStrategy,2023.2.3,Win32,60.24096386,5,2,6,,,,,,,,3,16,,,,,,,,,,,1,4.783,0,,,,,,-0.364583333,-0.24609375,1,0,0,4.7825,Andesite_rect,5,0,5,0,1,
662700c8b96591466a2904b7,TCN,2024-06-11_13h38.29.639,LearnStrategy,2023.2.3,Win32,60.24096386,5,2,7,,,,,,,,7,13,,,,,,,,,,,4,5.151,0,,,,,,0.434895833,-0.248697917,1,0,0,5.1511,Gabbro_rect,6,0,6,0,1,
662700c8b96591466a2904b7,TCN,2024-06-11_13h38.29.639,LearnStrategy,2023.2.3,Win32,60.24096386,5,2,8,,,,,,,,8,09,,,,,,,,,,,8,2.717,1,,,,,,0.434895833,-0.403645833,1,0,0,2.717,Pumice_rect,7,0,7,0,1,
662700c8b96591466a2904b7,TCN,2024-06-11_13h38.29.639,LearnStrategy,2023.2.3,Win32,60.24096386,5,2,9,,,,,,,,5,16,,,,,,,,,,,5,3.365,1,,,,,,-0.416666667,-0.40625,1,0,0,3.3647,Obsidian_rect,8,0,8,0,1,
662700c8b96591466a2904b7,TCN,2024-06-11_13h38.29.639,LearnStrategy,2023.2.3,Win32,60.24096386,5,2,10,,,,,,,,7,05,,,,,,,,,,,2,3.18,0,,,,,,-0.110677083,-0.240885417,1,0,0,3.1799,Basalt_rect,9,0,9,0,1,
662700c8b96591466a2904b7,TCN,2024-06-11_13h38.29.639,LearnStrategy,2023.2.3,Win32,60.24096386,5,2,11,,,,,,,,1,10,,,,,,,,,,,2,1.579,0,,,,,,-0.076822917,-0.2421875,1,0,0,1.5791,Basalt_rect,10,0,10,0,1,
662700c8b96591466a2904b7,TCN,2024-06-11_13h38.29.639,LearnStrategy,2023.2.3,Win32,60.24096386,5,2,12,,,,,,,,1,06,,,,,,,,,,,6,7.73,0,,,,,,-0.09375,-0.419270833,1,0,0,7.73,Pegmatite_rect,11,0,11,0,1,
662700c8b96591466a2904b7,TCN,2024-06-11_13h38.29.639,LearnStrategy,2023.2.3,Win32,60.24096386,5,2,13,,,,,,,,3,07,,,,,,,,,,,4,5.454,0,,,,,,0.390625,-0.25390625,1,0,0,5.454,Gabbro_rect,12,0,12,0,1,
662700c8b96591466a2904b7,TCN,2024-06-11_13h38.29.639,LearnStrategy,2023.2.3,Win32,60.24096386,5,2,14,,,,,,,,8,10,,,,,,,,,,,8,2.627,1,,,,,,0.45703125,-0.388020833,1,0,0,2.6267,Pumice_rect,13,0,13,0,1,
662700c8b96591466a2904b7,TCN,2024-06-11_13h38.29.639,LearnStrategy,2023.2.3,Win32,60.24096386,5,2,15,,,,,,,,2,06,,,,,,,,,,,1,6.54,0,,,,,,-0.333333333,-0.255208333,1,0,0,6.5404,Andesite_rect,14,0,14,0,1,
662700c8b96591466a2904b7,TCN,2024-06-11_13h38.29.639,LearnStrategy,2023.2.3,Win32,60.24096386,5,2,16,,,,,,,,2,08,,,,,,,,,,,2,2.189,1,,,,,,-0.151041667,-0.24609375,1,0,0,2.1894,Basalt_rect,15,0,15,0,1,
662700c8b96591466a2904b7,TCN,2024-06-11_13h38.29.639,LearnStrategy,2023.2.3,Win32,60.24096386,6,1,1,0.110677083,-0.005208333,1,0,0,1.1983,rock_grid_rect_2,5,04,-1,-1,1.198,-0.4453125,-0.399739583,1,0,0,2.5714,Obsidian_rect,5,2.571,1,0,0,0,0,1,,,,,,,,,,,,,
662700c8b96591466a2904b7,TCN,2024-06-11_13h38.29.639,LearnStrategy,2023.2.3,Win32,60.24096386,6,1,2,0.123697917,-0.00390625,1,0,0,1.9107,rock_grid_rect_2,1,05,-1,-1,1.911,-0.361979167,-0.235677083,1,0,0,2.7612,Andesite_rect,1,2.761,1,1,0,1,0,1,,,,,,,,,,,,,
662700c8b96591466a2904b7,TCN,2024-06-11_13h38.29.639,LearnStrategy,2023.2.3,Win32,60.24096386,6,1,3,0.1484375,-0.018229167,1,0,0,1.2128,rock_grid_rect_2,2,10,-1,-1,1.213,-0.098958333,-0.24609375,1,0,0,2.2913,Basalt_rect,2,2.291,1,2,0,2,0,1,,,,,,,,,,,,,
662700c8b96591466a2904b7,TCN,2024-06-11_13h38.29.639,LearnStrategy,2023.2.3,Win32,60.24096386,6,1,4,0.080729167,0.006510417,1,0,0,1.2256,rock_grid_rect_2,8,08,-1,-1,1.226,0.143229167,-0.39453125,1,0,0,9.4126,Peridotite_rect,7,9.413,0,3,0,3,0,1,,,,,,,,,,,,,
662700c8b96591466a2904b7,TCN,2024-06-11_13h38.29.639,LearnStrategy,2023.2.3,Win32,60.24096386,6,1,5,0.072916667,-0.010416667,1,0,0,1.0306,rock_grid_rect_2,8,04,-1,-1,1.031,0.390625,-0.40625,1,0,0,2.0552,Pumice_rect,8,2.055,1,4,0,4,0,1,,,,,,,,,,,,,
662700c8b96591466a2904b7,TCN,2024-06-11_13h38.29.639,LearnStrategy,2023.2.3,Win32,60.24096386,6,1,6,0.1015625,-0.01171875,1,0,0,1.1585,rock_grid_rect_2,7,14,-1,-1,1.159,0.126302083,-0.407552083,1,0,0,6.1316,Peridotite_rect,7,6.132,1,5,0,5,0,1,,,,,,,,,,,,,
662700c8b96591466a2904b7,TCN,2024-06-11_13h38.29.639,LearnStrategy,2023.2.3,Win32,60.24096386,6,1,7,0.158854167,-0.002604167,1,0,0,2.836,rock_grid_rect_2,6,03,-1,-1,2.836,-0.17578125,-0.416666667,1,0,0,4.749,Pegmatite_rect,6,4.749,1,6,0,6,0,1,,,,,,,,,,,,,
662700c8b96591466a2904b7,TCN,2024-06-11_13h38.29.639,LearnStrategy,2023.2.3,Win32,60.24096386,6,1,8,0.09375,-0.01953125,1,0,0,0.9848,rock_grid_rect_2,3,13,-1,-1,0.985,0.161458333,-0.234375,1,0,0,2.4824,Diorite_rect,3,2.482,1,7,0,7,0,1,,,,,,,,,,,,,
662700c8b96591466a2904b7,TCN,2024-06-11_13h38.29.639,LearnStrategy,2023.2.3,Win32,60.24096386,6,1,9,0.044270833,-0.01171875,1,0,0,0.9686,rock_grid_rect_2,4,05,-1,-1,0.969,0.389322917,-0.259114583,1,0,0,8.2744,Gabbro_rect,4,8.274,1,8,0,8,0,1,,,,,,,,,,,,,
662700c8b96591466a2904b7,TCN,2024-06-11_13h38.29.639,LearnStrategy,2023.2.3,Win32,60.24096386,6,1,10,0.0859375,0.006510417,1,0,0,1.7295,rock_grid_rect_2,3,14,-1,-1,1.73,0.135416667,-0.248697917,1,0,0,2.2843,Diorite_rect,3,2.284,1,9,0,9,0,1,,,,,,,,,,,,,
662700c8b96591466a2904b7,TCN,2024-06-11_13h38.29.639,LearnStrategy,2023.2.3,Win32,60.24096386,6,1,11,0.0859375,0.002604167,1,0,0,0.8318,rock_grid_rect_2,5,12,-1,-1,0.832,-0.37109375,-0.389322917,1,0,0,2.2684,Obsidian_rect,5,2.268,1,10,0,10,0,1,,,,,,,,,,,,,
662700c8b96591466a2904b7,TCN,2024-06-11_13h38.29.639,LearnStrategy,2023.2.3,Win32,60.24096386,6,1,12,0.122395833,0.01171875,1,0,0,0.8505,rock_grid_rect_2,7,10,-1,-1,0.851,-0.364583333,-0.25390625,1,0,0,1.9427,Andesite_rect,1,1.943,0,11,0,11,0,1,,,,,,,,,,,,,
662700c8b96591466a2904b7,TCN,2024-06-11_13h38.29.639,LearnStrategy,2023.2.3,Win32,60.24096386,6,1,13,0.104166667,0.0078125,1,0,0,0.824,rock_grid_rect_2,1,14,-1,-1,0.824,-0.078125,-0.233072917,1,0,0,4.5621,Basalt_rect,2,4.562,0,12,0,12,0,1,,,,,,,,,,,,,
662700c8b96591466a2904b7,TCN,2024-06-11_13h38.29.639,LearnStrategy,2023.2.3,Win32,60.24096386,6,1,14,0.087239583,0.01953125,1,0,0,0.7567,rock_grid_rect_2,2,05,-1,-1,0.757,-0.134114583,-0.252604167,1,0,0,1.3012,Basalt_rect,2,1.301,1,13,0,13,0,1,,,,,,,,,,,,,
662700c8b96591466a2904b7,TCN,2024-06-11_13h38.29.639,LearnStrategy,2023.2.3,Win32,60.24096386,6,1,15,0.134114583,-0.016927083,1,0,0,1.1101,rock_grid_rect_2,6,11,-1,-1,1.11,0.119791667,-0.408854167,1,0,0,2.1301,Peridotite_rect,7,2.13,0,14,0,14,0,1,,,,,,,,,,,,,
662700c8b96591466a2904b7,TCN,2024-06-11_13h38.29.639,LearnStrategy,2023.2.3,Win32,60.24096386,6,1,16,0.084635417,-0.020833333,1,0,0,0.8982,rock_grid_rect_2,4,03,-1,-1,0.898,0.36328125,-0.403645833,1,0,0,2.0421,Pumice_rect,8,2.042,0,15,0,15,0,1,,,,,,,,,,,,,
662700c8b96591466a2904b7,TCN,2024-06-11_13h38.29.639,LearnStrategy,2023.2.3,Win32,60.24096386,6,2,1,,,,,,,,3,11,,,,,,,,,,,4,3.315,0,,,,,,0.372395833,-0.235677083,1,0,0,3.3148,Gabbro_rect,0,0,0,0,1,
662700c8b96591466a2904b7,TCN,2024-06-11_13h38.29.639,LearnStrategy,2023.2.3,Win32,60.24096386,6,2,2,,,,,,,,1,02,,,,,,,,,,,7,6.207,0,,,,,,0.040364583,-0.393229167,1,0,0,6.2074,Peridotite_rect,1,0,1,0,1,
662700c8b96591466a2904b7,TCN,2024-06-11_13h38.29.639,LearnStrategy,2023.2.3,Win32,60.24096386,6,2,3,,,,,,,,3,08,,,,,,,,,,,1,2.092,0,,,,,,-0.385416667,-0.231770833,1,0,0,2.0919,Andesite_rect,2,0,2,0,1,
662700c8b96591466a2904b7,TCN,2024-06-11_13h38.29.639,LearnStrategy,2023.2.3,Win32,60.24096386,6,2,4,,,,,,,,6,05,,,,,,,,,,,6,4.247,1,,,,,,-0.108072917,-0.403645833,1,0,0,4.2468,Pegmatite_rect,3,0,3,0,1,
662700c8b96591466a2904b7,TCN,2024-06-11_13h38.29.639,LearnStrategy,2023.2.3,Win32,60.24096386,6,2,5,,,,,,,,4,08,,,,,,,,,,,5,3.375,0,,,,,,-0.415364583,-0.389322917,1,0,0,3.3752,Obsidian_rect,4,0,4,0,1,
662700c8b96591466a2904b7,TCN,2024-06-11_13h38.29.639,LearnStrategy,2023.2.3,Win32,60.24096386,6,2,6,,,,,,,,5,09,,,,,,,,,,,5,1.184,1,,,,,,-0.3984375,-0.385416667,1,0,0,1.1837,Obsidian_rect,5,0,5,0,1,
662700c8b96591466a2904b7,TCN,2024-06-11_13h38.29.639,LearnStrategy,2023.2.3,Win32,60.24096386,6,2,7,,,,,,,,4,12,,,,,,,,,,,2,2.082,0,,,,,,-0.091145833,-0.25,1,0,0,2.0822,Basalt_rect,6,0,6,0,1,
662700c8b96591466a2904b7,TCN,2024-06-11_13h38.29.639,LearnStrategy,2023.2.3,Win32,60.24096386,6,2,8,,,,,,,,2,14,,,,,,,,,,,4,2.487,0,,,,,,0.403645833,-0.236979167,1,0,0,2.4871,Gabbro_rect,7,0,7,0,1,
662700c8b96591466a2904b7,TCN,2024-06-11_13h38.29.639,LearnStrategy,2023.2.3,Win32,60.24096386,6,2,9,,,,,,,,8,06,,,,,,,,,,,8,1.626,1,,,,,,0.3984375,-0.40625,1,0,0,1.6261,Pumice_rect,8,0,8,0,1,
662700c8b96591466a2904b7,TCN,2024-06-11_13h38.29.639,LearnStrategy,2023.2.3,Win32,60.24096386,6,2,10,,,,,,,,7,02,,,,,,,,,,,6,3.028,0,,,,,,-0.083333333,-0.419270833,1,0,0,3.0281,Pegmatite_rect,9,0,9,0,1,
662700c8b96591466a2904b7,TCN,2024-06-11_13h38.29.639,LearnStrategy,2023.2.3,Win32,60.24096386,6,2,11,,,,,,,,1,09,,,,,,,,,,,7,4.843,0,,,,,,0.083333333,-0.415364583,1,0,0,4.8428,Peridotite_rect,10,0,10,0,1,
662700c8b96591466a2904b7,TCN,2024-06-11_13h38.29.639,LearnStrategy,2023.2.3,Win32,60.24096386,6,2,12,,,,,,,,5,11,,,,,,,,,,,5,1.266,1,,,,,,-0.45703125,-0.395833333,1,0,0,1.266,Obsidian_rect,11,0,11,0,1,
662700c8b96591466a2904b7,TCN,2024-06-11_13h38.29.639,LearnStrategy,2023.2.3,Win32,60.24096386,6,2,13,,,,,,,,7,12,,,,,,,,,,,3,2.38,0,,,,,,0.131510417,-0.263020833,1,0,0,2.3798,Diorite_rect,12,0,12,0,1,
662700c8b96591466a2904b7,TCN,2024-06-11_13h38.29.639,LearnStrategy,2023.2.3,Win32,60.24096386,6,2,14,,,,,,,,8,15,,,,,,,,,,,8,1.657,1,,,,,,0.38671875,-0.385416667,1,0,0,1.657,Pumice_rect,13,0,13,0,1,
662700c8b96591466a2904b7,TCN,2024-06-11_13h38.29.639,LearnStrategy,2023.2.3,Win32,60.24096386,6,2,15,,,,,,,,2,12,,,,,,,,,,,7,2.041,0,,,,,,0.151041667,-0.41015625,1,0,0,2.0414,Peridotite_rect,14,0,14,0,1,
662700c8b96591466a2904b7,TCN,2024-06-11_13h38.29.639,LearnStrategy,2023.2.3,Win32,60.24096386,6,2,16,,,,,,,,6,13,,,,,,,,,,,1,2.214,0,,,,,,-0.415364583,-0.243489583,1,0,0,2.2143,Andesite_rect,15,0,15,0,1,
662700c8b96591466a2904b7,TCN,2024-06-11_13h38.29.639,LearnStrategy,2023.2.3,Win32,60.24096386,7,1,1,0.08203125,0.0078125,1,0,0,1.3367,rock_grid_rect_2,1,16,-1,-1,1.337,-0.428385417,-0.260416667,1,0,0,3.3128,Andesite_rect,1,3.313,1,0,0,0,0,1,,,,,,,,,,,,,
662700c8b96591466a2904b7,TCN,2024-06-11_13h38.29.639,LearnStrategy,2023.2.3,Win32,60.24096386,7,1,2,0.05078125,-0.00390625,1,0,0,1.831,rock_grid_rect_2,4,09,-1,-1,1.831,-0.114583333,-0.24609375,1,0,0,2.0522,Basalt_rect,2,2.052,0,1,0,1,0,1,,,,,,,,,,,,,
662700c8b96591466a2904b7,TCN,2024-06-11_13h38.29.639,LearnStrategy,2023.2.3,Win32,60.24096386,7,1,3,0.095052083,0.005208333,1,0,0,0.9011,rock_grid_rect_2,5,06,-1,-1,0.901,-0.377604167,-0.40234375,1,0,0,1.6026,Obsidian_rect,5,1.603,1,2,0,2,0,1,,,,,,,,,,,,,
662700c8b96591466a2904b7,TCN,2024-06-11_13h38.29.639,LearnStrategy,2023.2.3,Win32,60.24096386,7,1,4,0.065104167,0.01953125,1,0,0,1.2716,rock_grid_rect_2,3,14,-1,-1,1.272,-0.0546875,-0.412760417,1,0,0,3.3748,Pegmatite_rect,6,3.375,0,3,0,3,0,1,,,,,,,,,,,,,
662700c8b96591466a2904b7,TCN,2024-06-11_13h38.29.639,LearnStrategy,2023.2.3,Win32,60.24096386,7,1,5,0.080729167,0.016927083,1,0,0,1.1529,rock_grid_rect_2,7,08,-1,-1,1.153,0.127604167,-0.399739583,1,0,0,4.4195,Peridotite_rect,7,4.419,1,4,0,4,0,1,,,,,,,,,,,,,
662700c8b96591466a2904b7,TCN,2024-06-11_13h38.29.639,LearnStrategy,2023.2.3,Win32,60.24096386,7,1,6,0.123697917,0.016927083,1,0,0,1.1652,rock_grid_rect_2,3,10,-1,-1,1.165,0.342447917,-0.25390625,1,0,0,3.2623,Gabbro_rect,4,3.262,0,5,0,5,0,1,,,,,,,,,,,,,
662700c8b96591466a2904b7,TCN,2024-06-11_13h38.29.639,LearnStrategy,2023.2.3,Win32,60.24096386,7,1,7,0.087239583,-0.0078125,1,0,0,1.1281,rock_grid_rect_2,2,01,-1,-1,1.128,0.384114583,-0.421875,1,0,0,4.1501,Pumice_rect,8,4.15,0,6,0,6,0,1,,,,,,,,,,,,,
662700c8b96591466a2904b7,TCN,2024-06-11_13h38.29.639,LearnStrategy,2023.2.3,Win32,60.24096386,7,1,8,0.0234375,-0.015625,1,0,0,0.8909,rock_grid_rect_2,8,16,-1,-1,0.891,0.3984375,-0.3984375,1,0,0,4.0452,Pumice_rect,8,4.045,1,7,0,7,0,1,,,,,,,,,,,,,
662700c8b96591466a2904b7,TCN,2024-06-11_13h38.29.639,LearnStrategy,2023.2.3,Win32,60.24096386,7,1,9,0.11328125,0.016927083,1,0,0,1.3314,rock_grid_rect_2,7,07,-1,-1,1.331,-0.078125,-0.26171875,1,0,0,5.3454,Basalt_rect,2,5.345,0,8,0,8,0,1,,,,,,,,,,,,,
662700c8b96591466a2904b7,TCN,2024-06-11_13h38.29.639,LearnStrategy,2023.2.3,Win32,60.24096386,7,1,10,0.141927083,-0.001302083,1,0,0,0.9116,rock_grid_rect_2,6,03,-1,-1,0.912,-0.372395833,-0.231770833,1,0,0,4.7043,Andesite_rect,1,4.704,0,9,0,9,0,1,,,,,,,,,,,,,
662700c8b96591466a2904b7,TCN,2024-06-11_13h38.29.639,LearnStrategy,2023.2.3,Win32,60.24096386,7,1,11,0.061197917,0.013020833,1,0,0,1.052,rock_grid_rect_2,1,04,-1,-1,1.052,0.131510417,-0.399739583,1,0,0,5.5677,Peridotite_rect,7,5.568,0,10,0,10,0,1,,,,,,,,,,,,,
662700c8b96591466a2904b7,TCN,2024-06-11_13h38.29.639,LearnStrategy,2023.2.3,Win32,60.24096386,7,1,12,0.045572917,-0.002604167,1,0,0,1.8144,rock_grid_rect_2,2,05,-1,-1,1.814,-0.057291667,-0.255208333,1,0,0,4.4257,Basalt_rect,2,4.426,1,11,0,11,0,1,,,,,,,,,,,,,
662700c8b96591466a2904b7,TCN,2024-06-11_13h38.29.639,LearnStrategy,2023.2.3,Win32,60.24096386,7,1,13,0.110677083,0.005208333,1,0,0,1.1252,rock_grid_rect_2,4,10,-1,-1,1.125,-0.334635417,-0.248697917,1,0,0,5.9651,Andesite_rect,1,5.965,0,12,0,12,0,1,,,,,,,,,,,,,
662700c8b96591466a2904b7,TCN,2024-06-11_13h38.29.639,LearnStrategy,2023.2.3,Win32,60.24096386,7,1,14,0.141927083,0.005208333,1,0,0,1.1303,rock_grid_rect_2,8,04,-1,-1,1.13,0.462239583,-0.404947917,1,0,0,1.8632,Pumice_rect,8,1.863,1,13,0,13,0,1,,,,,,,,,,,,,
662700c8b96591466a2904b7,TCN,2024-06-11_13h38.29.639,LearnStrategy,2023.2.3,Win32,60.24096386,7,1,15,0.091145833,0.002604167,1,0,0,0.8863,rock_grid_rect_2,5,05,-1,-1,0.886,0.153645833,-0.239583333,1,0,0,2.5281,Diorite_rect,3,2.528,0,14,0,14,0,1,,,,,,,,,,,,,
662700c8b96591466a2904b7,TCN,2024-06-11_13h38.29.639,LearnStrategy,2023.2.3,Win32,60.24096386,7,1,16,0.05859375,0.005208333,1,0,0,1.0603,rock_grid_rect_2,6,11,-1,-1,1.06,-0.333333333,-0.240885417,1,0,0,2.3362,Andesite_rect,1,2.336,0,15,0,15,0,1,,,,,,,,,,,,,
662700c8b96591466a2904b7,TCN,2024-06-11_13h38.29.639,LearnStrategy,2023.2.3,Win32,60.24096386,7,2,1,,,,,,,,2,06,,,,,,,,,,,2,2.062,1,,,,,,-0.141927083,-0.256510417,1,0,0,2.0623,Basalt_rect,0,0,0,0,1,
662700c8b96591466a2904b7,TCN,2024-06-11_13h38.29.639,LearnStrategy,2023.2.3,Win32,60.24096386,7,2,2,,,,,,,,6,08,,,,,,,,,,,1,1.951,0,,,,,,-0.4140625,-0.263020833,1,0,0,1.9508,Andesite_rect,1,0,1,0,1,
662700c8b96591466a2904b7,TCN,2024-06-11_13h38.29.639,LearnStrategy,2023.2.3,Win32,60.24096386,7,2,3,,,,,,,,3,07,,,,,,,,,,,7,4.901,0,,,,,,0.09375,-0.4140625,1,0,0,4.9008,Peridotite_rect,2,0,2,0,1,
662700c8b96591466a2904b7,TCN,2024-06-11_13h38.29.639,LearnStrategy,2023.2.3,Win32,60.24096386,7,2,4,,,,,,,,4,15,,,,,,,,,,,6,1.672,0,,,,,,-0.083333333,-0.411458333,1,0,0,1.672,Pegmatite_rect,3,0,3,0,1,
662700c8b96591466a2904b7,TCN,2024-06-11_13h38.29.639,LearnStrategy,2023.2.3,Win32,60.24096386,7,2,5,,,,,,,,5,11,,,,,,,,,,,5,1.35,1,,,,,,-0.471354167,-0.391927083,1,0,0,1.3495,Obsidian_rect,4,0,4,0,1,
662700c8b96591466a2904b7,TCN,2024-06-11_13h38.29.639,LearnStrategy,2023.2.3,Win32,60.24096386,7,2,6,,,,,,,,7,16,,,,,,,,,,,8,5.181,0,,,,,,0.380208333,-0.420572917,1,0,0,5.1806,Pumice_rect,5,0,5,0,1,
662700c8b96591466a2904b7,TCN,2024-06-11_13h38.29.639,LearnStrategy,2023.2.3,Win32,60.24096386,7,2,7,,,,,,,,3,12,,,,,,,,,,,4,3.127,0,,,,,,0.41796875,-0.268229167,1,0,0,3.1272,Gabbro_rect,6,0,6,0,1,
662700c8b96591466a2904b7,TCN,2024-06-11_13h38.29.639,LearnStrategy,2023.2.3,Win32,60.24096386,7,2,8,,,,,,,,4,11,,,,,,,,,,,1,2.845,0,,,,,,-0.354166667,-0.264322917,1,0,0,2.8451,Andesite_rect,7,0,7,0,1,
662700c8b96591466a2904b7,TCN,2024-06-11_13h38.29.639,LearnStrategy,2023.2.3,Win32,60.24096386,7,2,9,,,,,,,,1,06,,,,,,,,,,,6,2.187,0,,,,,,-0.139322917,-0.395833333,1,0,0,2.1872,Pegmatite_rect,8,0,8,0,1,
662700c8b96591466a2904b7,TCN,2024-06-11_13h38.29.639,LearnStrategy,2023.2.3,Win32,60.24096386,7,2,10,,,,,,,,1,03,,,,,,,,,,,7,3.363,0,,,,,,0.200520833,-0.391927083,1,0,0,3.3632,Peridotite_rect,9,0,9,0,1,
662700c8b96591466a2904b7,TCN,2024-06-11_13h38.29.639,LearnStrategy,2023.2.3,Win32,60.24096386,7,2,11,,,,,,,,8,09,,,,,,,,,,,8,2.353,1,,,,,,0.454427083,-0.391927083,1,0,0,2.3526,Pumice_rect,10,0,10,0,1,
662700c8b96591466a2904b7,TCN,2024-06-11_13h38.29.639,LearnStrategy,2023.2.3,Win32,60.24096386,7,2,12,,,,,,,,6,15,,,,,,,,,,,3,5.645,0,,,,,,0.17578125,-0.252604167,1,0,0,5.645,Diorite_rect,11,0,11,0,1,
662700c8b96591466a2904b7,TCN,2024-06-11_13h38.29.639,LearnStrategy,2023.2.3,Win32,60.24096386,7,2,13,,,,,,,,8,10,,,,,,,,,,,8,2.368,1,,,,,,0.421875,-0.399739583,1,0,0,2.3678,Pumice_rect,12,0,12,0,1,
662700c8b96591466a2904b7,TCN,2024-06-11_13h38.29.639,LearnStrategy,2023.2.3,Win32,60.24096386,7,2,14,,,,,,,,7,02,,,,,,,,,,,7,3.237,1,,,,,,0.180989583,-0.404947917,1,0,0,3.237,Peridotite_rect,13,0,13,0,1,
662700c8b96591466a2904b7,TCN,2024-06-11_13h38.29.639,LearnStrategy,2023.2.3,Win32,60.24096386,7,2,15,,,,,,,,5,07,,,,,,,,,,,5,2.071,1,,,,,,-0.345052083,-0.40625,1,0,0,2.071,Obsidian_rect,14,0,14,0,1,
662700c8b96591466a2904b7,TCN,2024-06-11_13h38.29.639,LearnStrategy,2023.2.3,Win32,60.24096386,7,2,16,,,,,,,,2,08,,,,,,,,,,,2,1.772,1,,,,,,-0.091145833,-0.243489583,1,0,0,1.7719,Basalt_rect,15,0,15,0,1,
662700c8b96591466a2904b7,TCN,2024-06-11_13h38.29.639,LearnStrategy,2023.2.3,Win32,60.24096386,8,1,1,0.075520833,-0.005208333,1,0,0,2.2382,rock_grid_rect_2,1,14,-1,-1,2.238,-0.381510417,-0.239583333,1,0,0,2.2138,Andesite_rect,1,2.214,1,0,0,0,0,1,,,,,,,,,,,,,
662700c8b96591466a2904b7,TCN,2024-06-11_13h38.29.639,LearnStrategy,2023.2.3,Win32,60.24096386,8,1,2,0.079427083,0.01953125,1,0,0,1.5395,rock_grid_rect_2,3,15,-1,-1,1.54,-0.13671875,-0.391927083,1,0,0,7.287,Pegmatite_rect,6,7.287,0,1,0,1,0,1,,,,,,,,,,,,,
662700c8b96591466a2904b7,TCN,2024-06-11_13h38.29.639,LearnStrategy,2023.2.3,Win32,60.24096386,8,1,3,0.036458333,0.006510417,1,0,0,0.9451,rock_grid_rect_2,8,08,-1,-1,0.945,0.352864583,-0.401041667,1,0,0,1.5998,Pumice_rect,8,1.6,1,2,0,2,0,1,,,,,,,,,,,,,
662700c8b96591466a2904b7,TCN,2024-06-11_13h38.29.639,LearnStrategy,2023.2.3,Win32,60.24096386,8,1,4,0.109375,-0.01171875,1,0,0,1.165,rock_grid_rect_2,3,09,-1,-1,1.165,0.125,-0.419270833,1,0,0,3.9666,Peridotite_rect,7,3.967,0,3,0,3,0,1,,,,,,,,,,,,,
662700c8b96591466a2904b7,TCN,2024-06-11_13h38.29.639,LearnStrategy,2023.2.3,Win32,60.24096386,8,1,5,0.140625,0.010416667,1,0,0,1.1461,rock_grid_rect_2,5,12,-1,-1,1.146,-0.360677083,-0.390625,1,0,0,1.7505,Obsidian_rect,5,1.751,1,4,0,4,0,1,,,,,,,,,,,,,
662700c8b96591466a2904b7,TCN,2024-06-11_13h38.29.639,LearnStrategy,2023.2.3,Win32,60.24096386,8,1,6,0.1171875,-0.016927083,1,0,0,1.3857,rock_grid_rect_2,7,10,-1,-1,1.386,-0.115885417,-0.397135417,1,0,0,3.7304,Pegmatite_rect,6,3.73,0,5,0,5,0,1,,,,,,,,,,,,,
662700c8b96591466a2904b7,TCN,2024-06-11_13h38.29.639,LearnStrategy,2023.2.3,Win32,60.24096386,8,1,7,0.130208333,0.0078125,1,0,0,2.2521,rock_grid_rect_2,2,04,-1,-1,2.252,-0.12890625,-0.255208333,1,0,0,3.2258,Basalt_rect,2,3.226,1,6,0,6,0,1,,,,,,,,,,,,,
662700c8b96591466a2904b7,TCN,2024-06-11_13h38.29.639,LearnStrategy,2023.2.3,Win32,60.24096386,8,1,8,0.141927083,0.001302083,1,0,0,2.021,rock_grid_rect_2,7,14,-1,-1,2.021,0.135416667,-0.4140625,1,0,0,1.6482,Peridotite_rect,7,1.648,1,7,0,7,0,1,,,,,,,,,,,,,
662700c8b96591466a2904b7,TCN,2024-06-11_13h38.29.639,LearnStrategy,2023.2.3,Win32,60.24096386,8,1,9,0.10546875,-0.0078125,1,0,0,0.8612,rock_grid_rect_2,1,07,-1,-1,0.861,-0.37109375,-0.266927083,1,0,0,1.8656,Andesite_rect,1,1.866,1,8,0,8,0,1,,,,,,,,,,,,,
662700c8b96591466a2904b7,TCN,2024-06-11_13h38.29.639,LearnStrategy,2023.2.3,Win32,60.24096386,8,1,10,0.041666667,0.006510417,1,0,0,0.7722,rock_grid_rect_2,6,09,-1,-1,0.772,0.3125,-0.260416667,1,0,0,4.4205,Gabbro_rect,4,4.42,0,9,0,9,0,1,,,,,,,,,,,,,
662700c8b96591466a2904b7,TCN,2024-06-11_13h38.29.639,LearnStrategy,2023.2.3,Win32,60.24096386,8,1,11,0.0703125,-0.00390625,1,0,0,1.1653,rock_grid_rect_2,8,03,-1,-1,1.165,0.436197917,-0.391927083,1,0,0,1.5135,Pumice_rect,8,1.514,1,10,0,10,0,1,,,,,,,,,,,,,
662700c8b96591466a2904b7,TCN,2024-06-11_13h38.29.639,LearnStrategy,2023.2.3,Win32,60.24096386,8,1,12,0.138020833,0.002604167,1,0,0,1.1012,rock_grid_rect_2,4,03,-1,-1,1.101,0.395833333,-0.240885417,1,0,0,1.9542,Gabbro_rect,4,1.954,1,11,0,11,0,1,,,,,,,,,,,,,
662700c8b96591466a2904b7,TCN,2024-06-11_13h38.29.639,LearnStrategy,2023.2.3,Win32,60.24096386,8,1,13,0.147135417,0,1,0,0,0.9859,rock_grid_rect_2,5,08,-1,-1,0.986,-0.368489583,-0.416666667,1,0,0,2.3231,Obsidian_rect,5,2.323,1,12,0,12,0,1,,,,,,,,,,,,,
662700c8b96591466a2904b7,TCN,2024-06-11_13h38.29.639,LearnStrategy,2023.2.3,Win32,60.24096386,8,1,14,0.139322917,-0.0078125,1,0,0,0.9666,rock_grid_rect_2,6,16,-1,-1,0.967,-0.147135417,-0.416666667,1,0,0,2.9629,Pegmatite_rect,6,2.963,1,13,0,13,0,1,,,,,,,,,,,,,
662700c8b96591466a2904b7,TCN,2024-06-11_13h38.29.639,LearnStrategy,2023.2.3,Win32,60.24096386,8,1,15,0.059895833,-0.00390625,1,0,0,1.0357,rock_grid_rect_2,2,09,-1,-1,1.036,-0.108072917,-0.24609375,1,0,0,4.5876,Basalt_rect,2,4.588,1,14,0,14,0,1,,,,,,,,,,,,,
662700c8b96591466a2904b7,TCN,2024-06-11_13h38.29.639,LearnStrategy,2023.2.3,Win32,60.24096386,8,1,16,0.177083333,-0.006510417,1,0,0,1.2359,rock_grid_rect_2,4,14,-1,-1,1.236,0.139322917,-0.385416667,1,0,0,4.8864,Peridotite_rect,7,4.886,0,15,0,15,0,1,,,,,,,,,,,,,
662700c8b96591466a2904b7,TCN,2024-06-11_13h38.29.639,LearnStrategy,2023.2.3,Win32,60.24096386,8,2,1,,,,,,,,4,12,,,,,,,,,,,6,7.961,0,,,,,,-0.126302083,-0.40625,1,0,0,7.9611,Pegmatite_rect,0,0,0,0,1,
662700c8b96591466a2904b7,TCN,2024-06-11_13h38.29.639,LearnStrategy,2023.2.3,Win32,60.24096386,8,2,2,,,,,,,,5,16,,,,,,,,,,,5,1.314,1,,,,,,-0.350260417,-0.41015625,1,0,0,1.3144,Obsidian_rect,1,0,1,0,1,
662700c8b96591466a2904b7,TCN,2024-06-11_13h38.29.639,LearnStrategy,2023.2.3,Win32,60.24096386,8,2,3,,,,,,,,7,15,,,,,,,,,,,7,3.105,1,,,,,,0.154947917,-0.403645833,1,0,0,3.1055,Peridotite_rect,2,0,2,0,1,
662700c8b96591466a2904b7,TCN,2024-06-11_13h38.29.639,LearnStrategy,2023.2.3,Win32,60.24096386,8,2,4,,,,,,,,6,05,,,,,,,,,,,1,2.211,0,,,,,,-0.33984375,-0.23046875,1,0,0,2.2108,Andesite_rect,3,0,3,0,1,
662700c8b96591466a2904b7,TCN,2024-06-11_13h38.29.639,LearnStrategy,2023.2.3,Win32,60.24096386,8,2,5,,,,,,,,7,13,,,,,,,,,,,6,3.463,0,,,,,,-0.083333333,-0.412760417,1,0,0,3.463,Pegmatite_rect,4,0,4,0,1,
662700c8b96591466a2904b7,TCN,2024-06-11_13h38.29.639,LearnStrategy,2023.2.3,Win32,60.24096386,8,2,6,,,,,,,,8,15,,,,,,,,,,,8,1.403,1,,,,,,0.447916667,-0.407552083,1,0,0,1.403,Pumice_rect,5,0,5,0,1,
662700c8b96591466a2904b7,TCN,2024-06-11_13h38.29.639,LearnStrategy,2023.2.3,Win32,60.24096386,8,2,7,,,,,,,,4,08,,,,,,,,,,,3,3.304,0,,,,,,0.078125,-0.235677083,1,0,0,3.3042,Diorite_rect,6,0,6,0,1,
662700c8b96591466a2904b7,TCN,2024-06-11_13h38.29.639,LearnStrategy,2023.2.3,Win32,60.24096386,8,2,8,,,,,,,,3,16,,,,,,,,,,,2,3.746,0,,,,,,-0.096354167,-0.234375,1,0,0,3.7457,Basalt_rect,7,0,7,0,1,
662700c8b96591466a2904b7,TCN,2024-06-11_13h38.29.639,LearnStrategy,2023.2.3,Win32,60.24096386,8,2,9,,,,,,,,2,14,,,,,,,,,,,2,2.238,1,,,,,,-0.087239583,-0.240885417,1,0,0,2.2377,Basalt_rect,8,0,8,0,1,
662700c8b96591466a2904b7,TCN,2024-06-11_13h38.29.639,LearnStrategy,2023.2.3,Win32,60.24096386,8,2,10,,,,,,,,1,11,,,,,,,,,,,1,5.206,1,,,,,,-0.33984375,-0.234375,1,0,0,5.2056,Andesite_rect,9,0,9,0,1,
662700c8b96591466a2904b7,TCN,2024-06-11_13h38.29.639,LearnStrategy,2023.2.3,Win32,60.24096386,8,2,11,,,,,,,,3,11,,,,,,,,,,,4,3.437,0,,,,,,0.416666667,-0.260416667,1,0,0,3.4367,Gabbro_rect,10,0,10,0,1,
662700c8b96591466a2904b7,TCN,2024-06-11_13h38.29.639,LearnStrategy,2023.2.3,Win32,60.24096386,8,2,12,,,,,,,,6,10,,,,,,,,,,,7,2.878,0,,,,,,0.104166667,-0.40234375,1,0,0,2.8781,Peridotite_rect,11,0,11,0,1,
662700c8b96591466a2904b7,TCN,2024-06-11_13h38.29.639,LearnStrategy,2023.2.3,Win32,60.24096386,8,2,13,,,,,,,,1,10,,,,,,,,,,,6,3.236,0,,,,,,-0.096354167,-0.41015625,1,0,0,3.2359,Pegmatite_rect,12,0,12,0,1,
662700c8b96591466a2904b7,TCN,2024-06-11_13h38.29.639,LearnStrategy,2023.2.3,Win32,60.24096386,8,2,14,,,,,,,,5,09,,,,,,,,,,,5,1.589,1,,,,,,-0.319010417,-0.390625,1,0,0,1.5894,Obsidian_rect,13,0,13,0,1,
662700c8b96591466a2904b7,TCN,2024-06-11_13h38.29.639,LearnStrategy,2023.2.3,Win32,60.24096386,8,2,15,,,,,,,,2,02,,,,,,,,,,,2,1.56,1,,,,,,-0.138020833,-0.2578125,1,0,0,1.5599,Basalt_rect,14,0,14,0,1,
662700c8b96591466a2904b7,TCN,2024-06-11_13h38.29.639,LearnStrategy,2023.2.3,Win32,60.24096386,8,2,16,,,,,,,,8,06,,,,,,,,,,,8,1.329,1,,,,,,0.389322917,-0.389322917,1,0,0,1.3288,Pumice_rect,15,0,15,0,1,
662700c8b96591466a2904b7,TCN,2024-06-11_13h38.29.639,LearnStrategy,2023.2.3,Win32,60.24096386,9,1,1,0.119791667,-0.013020833,1,0,0,1.6462,rock_grid_rect_2,4,01,-1,-1,1.646,0.356770833,-0.251302083,1,0,0,4.3948,Gabbro_rect,4,4.395,1,0,0,0,0,1,,,,,,,,,,,,,
662700c8b96591466a2904b7,TCN,2024-06-11_13h38.29.639,LearnStrategy,2023.2.3,Win32,60.24096386,9,1,2,0.102864583,-0.015625,1,0,0,1.536,rock_grid_rect_2,6,12,-1,-1,1.536,-0.092447917,-0.397135417,1,0,0,4.3058,Pegmatite_rect,6,4.306,1,1,0,1,0,1,,,,,,,,,,,,,
662700c8b96591466a2904b7,TCN,2024-06-11_13h38.29.639,LearnStrategy,2023.2.3,Win32,60.24096386,9,1,3,0.0546875,-0.01171875,1,0,0,1.3476,rock_grid_rect_2,2,10,-1,-1,1.348,-0.1171875,-0.26171875,1,0,0,5.5307,Basalt_rect,2,5.531,1,2,0,2,0,1,,,,,,,,,,,,,
662700c8b96591466a2904b7,TCN,2024-06-11_13h38.29.639,LearnStrategy,2023.2.3,Win32,60.24096386,9,1,4,0.1171875,-0.002604167,1,0,0,0.9198,rock_grid_rect_2,6,06,-1,-1,0.92,-0.118489583,-0.412760417,1,0,0,4.1076,Pegmatite_rect,6,4.108,1,3,0,3,0,1,,,,,,,,,,,,,
662700c8b96591466a2904b7,TCN,2024-06-11_13h38.29.639,LearnStrategy,2023.2.3,Win32,60.24096386,9,1,5,0.049479167,0.020833333,1,0,0,0.8927,rock_grid_rect_2,1,05,-1,-1,0.893,-0.337239583,-0.259114583,1,0,0,2.3399,Andesite_rect,1,2.34,1,4,0,4,0,1,,,,,,,,,,,,,
662700c8b96591466a2904b7,TCN,2024-06-11_13h38.29.639,LearnStrategy,2023.2.3,Win32,60.24096386,9,1,6,0.135416667,-0.010416667,1,0,0,1.0173,rock_grid_rect_2,3,13,-1,-1,1.017,-0.3671875,-0.259114583,1,0,0,1.8715,Andesite_rect,1,1.871,0,5,0,5,0,1,,,,,,,,,,,,,
662700c8b96591466a2904b7,TCN,2024-06-11_13h38.29.639,LearnStrategy,2023.2.3,Win32,60.24096386,9,1,7,0.0546875,0.0234375,1,0,0,0.8384,rock_grid_rect_2,7,06,-1,-1,0.838,-0.147135417,-0.412760417,1,0,0,6.219,Pegmatite_rect,6,6.219,0,6,0,6,0,1,,,,,,,,,,,,,
662700c8b96591466a2904b7,TCN,2024-06-11_13h38.29.639,LearnStrategy,2023.2.3,Win32,60.24096386,9,1,8,0.071614583,-0.013020833,1,0,0,1.0035,rock_grid_rect_2,8,02,-1,-1,1.003,0.40234375,-0.408854167,1,0,0,1.4346,Pumice_rect,8,1.435,1,7,0,7,0,1,,,,,,,,,,,,,
662700c8b96591466a2904b7,TCN,2024-06-11_13h38.29.639,LearnStrategy,2023.2.3,Win32,60.24096386,9,1,9,0.055989583,-0.006510417,1,0,0,1.066,rock_grid_rect_2,7,04,-1,-1,1.066,-0.35546875,-0.233072917,1,0,0,1.7893,Andesite_rect,1,1.789,0,8,0,8,0,1,,,,,,,,,,,,,
662700c8b96591466a2904b7,TCN,2024-06-11_13h38.29.639,LearnStrategy,2023.2.3,Win32,60.24096386,9,1,10,-0.032552083,-0.006510417,1,0,0,1.4692,rock_grid_rect_2,2,16,-1,-1,1.469,-0.123697917,-0.243489583,1,0,0,1.6073,Basalt_rect,2,1.607,1,9,0,9,0,1,,,,,,,,,,,,,
662700c8b96591466a2904b7,TCN,2024-06-11_13h38.29.639,LearnStrategy,2023.2.3,Win32,60.24096386,9,1,11,0.098958333,-0.01171875,1,0,0,1.0683,rock_grid_rect_2,8,05,-1,-1,1.068,0.40625,-0.391927083,1,0,0,1.5056,Pumice_rect,8,1.506,1,10,0,10,0,1,,,,,,,,,,,,,
662700c8b96591466a2904b7,TCN,2024-06-11_13h38.29.639,LearnStrategy,2023.2.3,Win32,60.24096386,9,1,12,0.1015625,0.009114583,1,0,0,0.8999,rock_grid_rect_2,5,10,-1,-1,0.9,-0.384114583,-0.38671875,1,0,0,1.3025,Obsidian_rect,5,1.302,1,11,0,11,0,1,,,,,,,,,,,,,
662700c8b96591466a2904b7,TCN,2024-06-11_13h38.29.639,LearnStrategy,2023.2.3,Win32,60.24096386,9,1,13,0.12890625,-0.0078125,1,0,0,0.9996,rock_grid_rect_2,3,06,-1,-1,1,0.380208333,-0.25390625,1,0,0,3.895,Gabbro_rect,4,3.895,0,12,0,12,0,1,,,,,,,,,,,,,
662700c8b96591466a2904b7,TCN,2024-06-11_13h38.29.639,LearnStrategy,2023.2.3,Win32,60.24096386,9,1,14,0.072916667,0.016927083,1,0,0,0.8768,rock_grid_rect_2,4,05,-1,-1,0.877,-0.111979167,-0.420572917,1,0,0,6.3763,Pegmatite_rect,6,6.376,0,13,0,13,0,1,,,,,,,,,,,,,
662700c8b96591466a2904b7,TCN,2024-06-11_13h38.29.639,LearnStrategy,2023.2.3,Win32,60.24096386,9,1,15,0.100260417,0.002604167,1,0,0,1.2132,rock_grid_rect_2,5,04,-1,-1,1.213,-0.44140625,-0.385416667,1,0,0,1.4814,Obsidian_rect,5,1.481,1,14,0,14,0,1,,,,,,,,,,,,,
662700c8b96591466a2904b7,TCN,2024-06-11_13h38.29.639,LearnStrategy,2023.2.3,Win32,60.24096386,9,1,16,0.115885417,0.002604167,1,0,0,1.2352,rock_grid_rect_2,1,01,-1,-1,1.235,-0.33984375,-0.243489583,1,0,0,3.1477,Andesite_rect,1,3.148,1,15,0,15,0,1,,,,,,,,,,,,,
662700c8b96591466a2904b7,TCN,2024-06-11_13h38.29.639,LearnStrategy,2023.2.3,Win32,60.24096386,9,2,1,,,,,,,,7,12,,,,,,,,,,,7,4.911,1,,,,,,0.114583333,-0.390625,1,0,0,4.9111,Peridotite_rect,0,0,0,0,1,
662700c8b96591466a2904b7,TCN,2024-06-11_13h38.29.639,LearnStrategy,2023.2.3,Win32,60.24096386,9,2,2,,,,,,,,5,02,,,,,,,,,,,5,2.714,1,,,,,,-0.395833333,-0.391927083,1,0,0,2.7144,Obsidian_rect,1,0,1,0,1,
662700c8b96591466a2904b7,TCN,2024-06-11_13h38.29.639,LearnStrategy,2023.2.3,Win32,60.24096386,9,2,3,,,,,,,,3,02,,,,,,,,,,,1,1.826,0,,,,,,-0.3359375,-0.2578125,1,0,0,1.8256,Andesite_rect,2,0,2,0,1,
662700c8b96591466a2904b7,TCN,2024-06-11_13h38.29.639,LearnStrategy,2023.2.3,Win32,60.24096386,9,2,4,,,,,,,,1,02,,,,,,,,,,,6,6.729,0,,,,,,-0.08203125,-0.403645833,1,0,0,6.729,Pegmatite_rect,3,0,3,0,1,
662700c8b96591466a2904b7,TCN,2024-06-11_13h38.29.639,LearnStrategy,2023.2.3,Win32,60.24096386,9,2,5,,,,,,,,1,09,,,,,,,,,,,2,2.326,0,,,,,,-0.084635417,-0.243489583,1,0,0,2.3263,Basalt_rect,4,0,4,0,1,
662700c8b96591466a2904b7,TCN,2024-06-11_13h38.29.639,LearnStrategy,2023.2.3,Win32,60.24096386,9,2,6,,,,,,,,4,16,,,,,,,,,,,4,2.208,1,,,,,,0.38671875,-0.266927083,1,0,0,2.2081,Gabbro_rect,5,0,5,0,1,
662700c8b96591466a2904b7,TCN,2024-06-11_13h38.29.639,LearnStrategy,2023.2.3,Win32,60.24096386,9,2,7,,,,,,,,8,13,,,,,,,,,,,8,1.195,1,,,,,,0.442708333,-0.40625,1,0,0,1.1949,Pumice_rect,6,0,6,0,1,
662700c8b96591466a2904b7,TCN,2024-06-11_13h38.29.639,LearnStrategy,2023.2.3,Win32,60.24096386,9,2,8,,,,,,,,2,11,,,,,,,,,,,7,1.522,0,,,,,,0.140625,-0.37890625,1,0,0,1.522,Peridotite_rect,7,0,7,0,1,
662700c8b96591466a2904b7,TCN,2024-06-11_13h38.29.639,LearnStrategy,2023.2.3,Win32,60.24096386,9,2,9,,,,,,,,4,13,,,,,,,,,,,1,2.295,0,,,,,,-0.346354167,-0.2578125,1,0,0,2.295,Andesite_rect,8,0,8,0,1,
662700c8b96591466a2904b7,TCN,2024-06-11_13h38.29.639,LearnStrategy,2023.2.3,Win32,60.24096386,9,2,10,,,,,,,,5,14,,,,,,,,,,,5,1.183,1,,,,,,-0.391927083,-0.40234375,1,0,0,1.1833,Obsidian_rect,9,0,9,0,1,
662700c8b96591466a2904b7,TCN,2024-06-11_13h38.29.639,LearnStrategy,2023.2.3,Win32,60.24096386,9,2,11,,,,,,,,2,12,,,,,,,,,,,3,3.138,0,,,,,,0.114583333,-0.255208333,1,0,0,3.138,Diorite_rect,10,0,10,0,1,
662700c8b96591466a2904b7,TCN,2024-06-11_13h38.29.639,LearnStrategy,2023.2.3,Win32,60.24096386,9,2,12,,,,,,,,6,07,,,,,,,,,,,1,3.151,0,,,,,,-0.360677083,-0.252604167,1,0,0,3.1509,Andesite_rect,11,0,11,0,1,
662700c8b96591466a2904b7,TCN,2024-06-11_13h38.29.639,LearnStrategy,2023.2.3,Win32,60.24096386,9,2,13,,,,,,,,3,08,,,,,,,,,,,7,4.009,0,,,,,,0.204427083,-0.40625,1,0,0,4.009,Peridotite_rect,12,0,12,0,1,
662700c8b96591466a2904b7,TCN,2024-06-11_13h38.29.639,LearnStrategy,2023.2.3,Win32,60.24096386,9,2,14,,,,,,,,6,13,,,,,,,,,,,1,8.078,0,,,,,,-0.31640625,-0.229166667,1,0,0,8.0776,Andesite_rect,13,0,13,0,1,
662700c8b96591466a2904b7,TCN,2024-06-11_13h38.29.639,LearnStrategy,2023.2.3,Win32,60.24096386,9,2,15,,,,,,,,8,14,,,,,,,,,,,8,1.566,1,,,,,,0.424479167,-0.421875,1,0,0,1.5657,Pumice_rect,14,0,14,0,1,
662700c8b96591466a2904b7,TCN,2024-06-11_13h38.29.639,LearnStrategy,2023.2.3,Win32,60.24096386,9,2,16,,,,,,,,7,05,,,,,,,,,,,4,3.992,0,,,,,,0.4375,-0.236979167,1,0,0,3.9921,Gabbro_rect,15,0,15,0,1,
662700c8b96591466a2904b7,TCN,2024-06-11_13h38.29.639,LearnStrategy,2023.2.3,Win32,60.24096386,,,,,,,,,,,,,,,,,,,,,,,,,,,,,,,,,,,,,,,,,,,0
662700c8b96591466a2904b7,TCN,2024-06-11_13h38.29.639,LearnStrategy,2023.2.3,Win32,60.24096386,,,,,,,,,,,,,,,,,,,,,,,,,,,,,,,,,,,,,,,,,,,
662700c8b96591466a2904b7,TCN,2024-06-11_13h38.29.639,LearnStrategy,2023.2.3,Win32,60.24096386,,,,,,,,,,,5,10,1,1,,,,,,,,,,,,,,,,,,,,,,,,,,,,,
662700c8b96591466a2904b7,TCN,2024-06-11_13h38.29.639,LearnStrategy,2023.2.3,Win32,60.24096386,,,,,,,,,,,1,04,1,2,,,,,,,,,,,,,,,,,,,,,,,,,,,,,
662700c8b96591466a2904b7,TCN,2024-06-11_13h38.29.639,LearnStrategy,2023.2.3,Win32,60.24096386,,,,,,,,,,,3,14,1,3,,,,,,,,,,,,,,,,,,,,,,,,,,,,,
662700c8b96591466a2904b7,TCN,2024-06-11_13h38.29.639,LearnStrategy,2023.2.3,Win32,60.24096386,,,,,,,,,,,1,01,1,4,,,,,,,,,,,,,,,,,,,,,,,,,,,,,
662700c8b96591466a2904b7,TCN,2024-06-11_13h38.29.639,LearnStrategy,2023.2.3,Win32,60.24096386,,,,,,,,,,,7,07,1,5,,,,,,,,,,,,,,,,,,,,,,,,,,,,,
662700c8b96591466a2904b7,TCN,2024-06-11_13h38.29.639,LearnStrategy,2023.2.3,Win32,60.24096386,,,,,,,,,,,4,05,1,6,,,,,,,,,,,,,,,,,,,,,,,,,,,,,
662700c8b96591466a2904b7,TCN,2024-06-11_13h38.29.639,LearnStrategy,2023.2.3,Win32,60.24096386,,,,,,,,,,,5,08,1,7,,,,,,,,,,,,,,,,,,,,,,,,,,,,,
662700c8b96591466a2904b7,TCN,2024-06-11_13h38.29.639,LearnStrategy,2023.2.3,Win32,60.24096386,,,,,,,,,,,5,04,1,8,,,,,,,,,,,,,,,,,,,,,,,,,,,,,
662700c8b96591466a2904b7,TCN,2024-06-11_13h38.29.639,LearnStrategy,2023.2.3,Win32,60.24096386,,,,,,,,,,,4,03,2,1,,,,,,,,,,,,,,,,,,,,,,,,,,,,,
662700c8b96591466a2904b7,TCN,2024-06-11_13h38.29.639,LearnStrategy,2023.2.3,Win32,60.24096386,,,,,,,,,,,3,06,2,2,,,,,,,,,,,,,,,,,,,,,,,,,,,,,
662700c8b96591466a2904b7,TCN,2024-06-11_13h38.29.639,LearnStrategy,2023.2.3,Win32,60.24096386,,,,,,,,,,,8,03,2,3,,,,,,,,,,,,,,,,,,,,,,,,,,,,,
662700c8b96591466a2904b7,TCN,2024-06-11_13h38.29.639,LearnStrategy,2023.2.3,Win32,60.24096386,,,,,,,,,,,2,05,2,4,,,,,,,,,,,,,,,,,,,,,,,,,,,,,
662700c8b96591466a2904b7,TCN,2024-06-11_13h38.29.639,LearnStrategy,2023.2.3,Win32,60.24096386,,,,,,,,,,,2,04,2,5,,,,,,,,,,,,,,,,,,,,,,,,,,,,,
662700c8b96591466a2904b7,TCN,2024-06-11_13h38.29.639,LearnStrategy,2023.2.3,Win32,60.24096386,,,,,,,,,,,2,16,2,6,,,,,,,,,,,,,,,,,,,,,,,,,,,,,
662700c8b96591466a2904b7,TCN,2024-06-11_13h38.29.639,LearnStrategy,2023.2.3,Win32,60.24096386,,,,,,,,,,,3,10,2,7,,,,,,,,,,,,,,,,,,,,,,,,,,,,,
662700c8b96591466a2904b7,TCN,2024-06-11_13h38.29.639,LearnStrategy,2023.2.3,Win32,60.24096386,,,,,,,,,,,7,04,2,8,,,,,,,,,,,,,,,,,,,,,,,,,,,,,
662700c8b96591466a2904b7,TCN,2024-06-11_13h38.29.639,LearnStrategy,2023.2.3,Win32,60.24096386,,,,,,,,,,,4,10,3,1,,,,,,,,,,,,,,,,,,,,,,,,,,,,,
662700c8b96591466a2904b7,TCN,2024-06-11_13h38.29.639,LearnStrategy,2023.2.3,Win32,60.24096386,,,,,,,,,,,6,11,3,2,,,,,,,,,,,,,,,,,,,,,,,,,,,,,
662700c8b96591466a2904b7,TCN,2024-06-11_13h38.29.639,LearnStrategy,2023.2.3,Win32,60.24096386,,,,,,,,,,,6,12,3,3,,,,,,,,,,,,,,,,,,,,,,,,,,,,,
662700c8b96591466a2904b7,TCN,2024-06-11_13h38.29.639,LearnStrategy,2023.2.3,Win32,60.24096386,,,,,,,,,,,3,13,3,4,,,,,,,,,,,,,,,,,,,,,,,,,,,,,
662700c8b96591466a2904b7,TCN,2024-06-11_13h38.29.639,LearnStrategy,2023.2.3,Win32,60.24096386,,,,,,,,,,,3,15,3,5,,,,,,,,,,,,,,,,,,,,,,,,,,,,,
662700c8b96591466a2904b7,TCN,2024-06-11_13h38.29.639,LearnStrategy,2023.2.3,Win32,60.24096386,,,,,,,,,,,8,08,3,6,,,,,,,,,,,,,,,,,,,,,,,,,,,,,
662700c8b96591466a2904b7,TCN,2024-06-11_13h38.29.639,LearnStrategy,2023.2.3,Win32,60.24096386,,,,,,,,,,,5,12,3,7,,,,,,,,,,,,,,,,,,,,,,,,,,,,,
662700c8b96591466a2904b7,TCN,2024-06-11_13h38.29.639,LearnStrategy,2023.2.3,Win32,60.24096386,,,,,,,,,,,4,01,3,8,,,,,,,,,,,,,,,,,,,,,,,,,,,,,
662700c8b96591466a2904b7,TCN,2024-06-11_13h38.29.639,LearnStrategy,2023.2.3,Win32,60.24096386,,,,,,,,,,,3,09,4,1,,,,,,,,,,,,,,,,,,,,,,,,,,,,,
662700c8b96591466a2904b7,TCN,2024-06-11_13h38.29.639,LearnStrategy,2023.2.3,Win32,60.24096386,,,,,,,,,,,7,08,4,2,,,,,,,,,,,,,,,,,,,,,,,,,,,,,
662700c8b96591466a2904b7,TCN,2024-06-11_13h38.29.639,LearnStrategy,2023.2.3,Win32,60.24096386,,,,,,,,,,,6,16,4,3,,,,,,,,,,,,,,,,,,,,,,,,,,,,,
662700c8b96591466a2904b7,TCN,2024-06-11_13h38.29.639,LearnStrategy,2023.2.3,Win32,60.24096386,,,,,,,,,,,6,09,4,4,,,,,,,,,,,,,,,,,,,,,,,,,,,,,
662700c8b96591466a2904b7,TCN,2024-06-11_13h38.29.639,LearnStrategy,2023.2.3,Win32,60.24096386,,,,,,,,,,,2,01,4,5,,,,,,,,,,,,,,,,,,,,,,,,,,,,,
662700c8b96591466a2904b7,TCN,2024-06-11_13h38.29.639,LearnStrategy,2023.2.3,Win32,60.24096386,,,,,,,,,,,8,16,4,6,,,,,,,,,,,,,,,,,,,,,,,,,,,,,
662700c8b96591466a2904b7,TCN,2024-06-11_13h38.29.639,LearnStrategy,2023.2.3,Win32,60.24096386,,,,,,,,,,,1,07,4,7,,,,,,,,,,,,,,,,,,,,,,,,,,,,,
662700c8b96591466a2904b7,TCN,2024-06-11_13h38.29.639,LearnStrategy,2023.2.3,Win32,60.24096386,,,,,,,,,,,1,05,4,8,,,,,,,,,,,,,,,,,,,,,,,,,,,,,
662700c8b96591466a2904b7,TCN,2024-06-11_13h38.29.639,LearnStrategy,2023.2.3,Win32,60.24096386,,,,,,,,,,,7,14,5,1,,,,,,,,,,,,,,,,,,,,,,,,,,,,,
662700c8b96591466a2904b7,TCN,2024-06-11_13h38.29.639,LearnStrategy,2023.2.3,Win32,60.24096386,,,,,,,,,,,5,06,5,2,,,,,,,,,,,,,,,,,,,,,,,,,,,,,
662700c8b96591466a2904b7,TCN,2024-06-11_13h38.29.639,LearnStrategy,2023.2.3,Win32,60.24096386,,,,,,,,,,,4,14,5,3,,,,,,,,,,,,,,,,,,,,,,,,,,,,,
662700c8b96591466a2904b7,TCN,2024-06-11_13h38.29.639,LearnStrategy,2023.2.3,Win32,60.24096386,,,,,,,,,,,2,09,5,4,,,,,,,,,,,,,,,,,,,,,,,,,,,,,
662700c8b96591466a2904b7,TCN,2024-06-11_13h38.29.639,LearnStrategy,2023.2.3,Win32,60.24096386,,,,,,,,,,,8,04,5,5,,,,,,,,,,,,,,,,,,,,,,,,,,,,,
662700c8b96591466a2904b7,TCN,2024-06-11_13h38.29.639,LearnStrategy,2023.2.3,Win32,60.24096386,,,,,,,,,,,1,14,5,6,,,,,,,,,,,,,,,,,,,,,,,,,,,,,
662700c8b96591466a2904b7,TCN,2024-06-11_13h38.29.639,LearnStrategy,2023.2.3,Win32,60.24096386,,,,,,,,,,,6,03,5,7,,,,,,,,,,,,,,,,,,,,,,,,,,,,,
662700c8b96591466a2904b7,TCN,2024-06-11_13h38.29.639,LearnStrategy,2023.2.3,Win32,60.24096386,,,,,,,,,,,4,09,5,8,,,,,,,,,,,,,,,,,,,,,,,,,,,,,
662700c8b96591466a2904b7,TCN,2024-06-11_13h38.29.639,LearnStrategy,2023.2.3,Win32,60.24096386,,,,,,,,,,,2,10,6,1,,,,,,,,,,,,,,,,,,,,,,,,,,,,,
662700c8b96591466a2904b7,TCN,2024-06-11_13h38.29.639,LearnStrategy,2023.2.3,Win32,60.24096386,,,,,,,,,,,8,05,6,2,,,,,,,,,,,,,,,,,,,,,,,,,,,,,
662700c8b96591466a2904b7,TCN,2024-06-11_13h38.29.639,LearnStrategy,2023.2.3,Win32,60.24096386,,,,,,,,,,,6,06,6,3,,,,,,,,,,,,,,,,,,,,,,,,,,,,,
662700c8b96591466a2904b7,TCN,2024-06-11_13h38.29.639,LearnStrategy,2023.2.3,Win32,60.24096386,,,,,,,,,,,7,10,6,4,,,,,,,,,,,,,,,,,,,,,,,,,,,,,
662700c8b96591466a2904b7,TCN,2024-06-11_13h38.29.639,LearnStrategy,2023.2.3,Win32,60.24096386,,,,,,,,,,,7,06,6,5,,,,,,,,,,,,,,,,,,,,,,,,,,,,,
662700c8b96591466a2904b7,TCN,2024-06-11_13h38.29.639,LearnStrategy,2023.2.3,Win32,60.24096386,,,,,,,,,,,5,05,6,6,,,,,,,,,,,,,,,,,,,,,,,,,,,,,
662700c8b96591466a2904b7,TCN,2024-06-11_13h38.29.639,LearnStrategy,2023.2.3,Win32,60.24096386,,,,,,,,,,,8,02,6,7,,,,,,,,,,,,,,,,,,,,,,,,,,,,,
662700c8b96591466a2904b7,TCN,2024-06-11_13h38.29.639,LearnStrategy,2023.2.3,Win32,60.24096386,,,,,,,,,,,1,16,6,8,,,,,,,,,,,,,,,,,,,,,,,,,,,,,