participant,condition,date,expName,psychopyVersion,OS,frameRate,block,phase,trial,learn_mouse.x,learn_mouse.y,learn_mouse.leftButton,learn_mouse.midButton,learn_mouse.rightButton,learn_mouse.time,learn_mouse.clicked_name,cat,token,row,col,t_select,cat_mouse_l.x,cat_mouse_l.y,cat_mouse_l.leftButton,cat_mouse_l.midButton,cat_mouse_l.rightButton,cat_mouse_l.time,cat_mouse_l.clicked_name,resp,t_resp,corr,train_trials.thisRepN,train_trials.thisTrialN,train_trials.thisN,train_trials.thisIndex,train_trials.ran,cat_mouse_t.x,cat_mouse_t.y,cat_mouse_t.leftButton,cat_mouse_t.midButton,cat_mouse_t.rightButton,cat_mouse_t.time,cat_mouse_t.clicked_name,test_trials.thisRepN,test_trials.thisTrialN,test_trials.thisN,test_trials.thisIndex,test_trials.ran,Bonus
662949dcb3c06ccdd7352db5,SCN,2024-06-26_13h35.31.114,LearnStrategy,2023.2.3,MacIntel,55.55555556,,,,,,,,,,,,,,,,,,,,,,,,,,,,,,,,,,,,,,,,,,,
662949dcb3c06ccdd7352db5,SCN,2024-06-26_13h35.31.114,LearnStrategy,2023.2.3,MacIntel,55.55555556,1,1,1,0.063392857,-0.246428571,1,0,0,4.087,Diorite_08,3,08,2,5,4.087,-0.096428571,-0.266964286,1,0,0,5.209,Basalt_rect,2,5.209,0,0,0,0,0,1,,,,,,,,,,,,,
662949dcb3c06ccdd7352db5,SCN,2024-06-26_13h35.31.114,LearnStrategy,2023.2.3,MacIntel,55.55555556,1,1,2,-0.36875,0.391964286,1,0,0,5.715,Pegmatite_09,6,09,6,2,5.715,-0.125,-0.239285714,1,0,0,4.939,Basalt_rect,2,4.939,0,1,0,1,0,1,,,,,,,,,,,,,
662949dcb3c06ccdd7352db5,SCN,2024-06-26_13h35.31.114,LearnStrategy,2023.2.3,MacIntel,55.55555556,1,1,3,-0.239285714,-0.271428571,1,0,0,2.865,Diorite_09,3,09,2,3,2.865,0.369642857,-0.265178571,1,0,0,2.515,Gabbro_rect,4,2.515,0,2,0,2,0,1,,,,,,,,,,,,,
662949dcb3c06ccdd7352db5,SCN,2024-06-26_13h35.31.114,LearnStrategy,2023.2.3,MacIntel,55.55555556,1,1,4,0.565178571,0.084821429,1,0,0,5.765,Pumice_09,8,09,4,8,5.765,0.407142857,-0.398214286,1,0,0,1.215,Pumice_rect,8,1.215,1,3,0,3,0,1,,,,,,,,,,,,,
662949dcb3c06ccdd7352db5,SCN,2024-06-26_13h35.31.114,LearnStrategy,2023.2.3,MacIntel,55.55555556,1,1,5,-0.515178571,0.394642857,1,0,0,3.265,Obsidian_09,5,09,6,1,3.265,-0.410714286,-0.392857143,1,0,0,4.233,Obsidian_rect,5,4.233,1,4,0,4,0,1,,,,,,,,,,,,,
662949dcb3c06ccdd7352db5,SCN,2024-06-26_13h35.31.114,LearnStrategy,2023.2.3,MacIntel,55.55555556,1,1,6,-0.536607143,-0.100892857,1,0,0,1.232,Obsidian_06,5,06,3,1,1.232,-0.375,-0.402678571,1,0,0,2.976,Obsidian_rect,5,2.976,1,5,0,5,0,1,,,,,,,,,,,,,
662949dcb3c06ccdd7352db5,SCN,2024-06-26_13h35.31.114,LearnStrategy,2023.2.3,MacIntel,55.55555556,1,1,7,0.105357143,0.402678571,1,0,0,5.916,Basalt_08,2,08,6,5,5.916,0.427678571,-0.242857143,1,0,0,2.905,Gabbro_rect,4,2.905,0,6,0,6,0,1,,,,,,,,,,,,,
662949dcb3c06ccdd7352db5,SCN,2024-06-26_13h35.31.114,LearnStrategy,2023.2.3,MacIntel,55.55555556,1,1,8,-0.079464286,-0.10625,1,0,0,1.032,Pegmatite_16,6,16,3,4,1.032,0.158928571,-0.24375,1,0,0,1.932,Diorite_rect,3,1.932,0,7,0,7,0,1,,,,,,,,,,,,,
662949dcb3c06ccdd7352db5,SCN,2024-06-26_13h35.31.114,LearnStrategy,2023.2.3,MacIntel,55.55555556,1,1,9,-0.194642857,-0.091964286,1,0,0,1.165,Pumice_08,8,08,3,3,1.165,0.422321429,-0.270535714,1,0,0,1.789,Gabbro_rect,4,1.789,0,8,0,8,0,1,,,,,,,,,,,,,
662949dcb3c06ccdd7352db5,SCN,2024-06-26_13h35.31.114,LearnStrategy,2023.2.3,MacIntel,55.55555556,1,1,10,-0.426785714,-0.433928571,1,0,0,3.782,Pegmatite_15,6,15,1,2,3.782,-0.342857143,-0.39375,1,0,0,2.364,Obsidian_rect,5,2.364,0,9,0,9,0,1,,,,,,,,,,,,,
662949dcb3c06ccdd7352db5,SCN,2024-06-26_13h35.31.114,LearnStrategy,2023.2.3,MacIntel,55.55555556,1,1,11,0.386607143,-0.079464286,1,0,0,2.05,Gabbro_12,4,12,3,7,2.05,0.383035714,-0.236607143,1,0,0,1.595,Gabbro_rect,4,1.595,1,10,0,10,0,1,,,,,,,,,,,,,
662949dcb3c06ccdd7352db5,SCN,2024-06-26_13h35.31.114,LearnStrategy,2023.2.3,MacIntel,55.55555556,1,1,12,0.053571429,0.078571429,1,0,0,1.432,Pegmatite_03,6,03,4,5,1.432,-0.379464286,-0.25,1,0,0,3.147,Andesite_rect,1,3.147,0,11,0,11,0,1,,,,,,,,,,,,,
662949dcb3c06ccdd7352db5,SCN,2024-06-26_13h35.31.114,LearnStrategy,2023.2.3,MacIntel,55.55555556,1,1,13,-0.525,0.091071429,1,0,0,1.348,Diorite_15,3,15,4,1,1.348,-0.115178571,-0.242857143,1,0,0,2.14,Basalt_rect,2,2.14,0,12,0,12,0,1,,,,,,,,,,,,,
662949dcb3c06ccdd7352db5,SCN,2024-06-26_13h35.31.114,LearnStrategy,2023.2.3,MacIntel,55.55555556,1,1,14,0.541071429,-0.282142857,1,0,0,6.282,Andesite_07,1,07,2,8,6.282,0.114285714,-0.24375,1,0,0,2.357,Diorite_rect,3,2.357,0,13,0,13,0,1,,,,,,,,,,,,,
662949dcb3c06ccdd7352db5,SCN,2024-06-26_13h35.31.114,LearnStrategy,2023.2.3,MacIntel,55.55555556,1,1,15,-0.555357143,-0.278571429,1,0,0,3.467,Peridotite_14,7,14,2,1,3.467,0.394642857,-0.247321429,1,0,0,2.726,Gabbro_rect,4,2.726,0,14,0,14,0,1,,,,,,,,,,,,,
662949dcb3c06ccdd7352db5,SCN,2024-06-26_13h35.31.114,LearnStrategy,2023.2.3,MacIntel,55.55555556,1,1,16,-0.227678571,-0.388392857,1,0,0,3.797,Gabbro_11,4,11,1,3,3.797,-0.191964286,-0.258035714,1,0,0,1.615,Basalt_rect,2,1.615,0,15,0,15,0,1,,,,,,,,,,,,,
662949dcb3c06ccdd7352db5,SCN,2024-06-26_13h35.31.114,LearnStrategy,2023.2.3,MacIntel,55.55555556,1,2,1,,,,,,,,6,10,,,,,,,,,,,7,7.471,0,,,,,,0.141964286,-0.391071429,1,0,0,7.471,Peridotite_rect,0,0,0,0,1,
662949dcb3c06ccdd7352db5,SCN,2024-06-26_13h35.31.114,LearnStrategy,2023.2.3,MacIntel,55.55555556,1,2,2,,,,,,,,1,11,,,,,,,,,,,4,8.221,0,,,,,,0.383035714,-0.25625,1,0,0,8.221,Gabbro_rect,1,0,1,0,1,
662949dcb3c06ccdd7352db5,SCN,2024-06-26_13h35.31.114,LearnStrategy,2023.2.3,MacIntel,55.55555556,1,2,3,,,,,,,,6,13,,,,,,,,,,,6,5.568,1,,,,,,-0.091071429,-0.403571429,1,0,0,5.568,Pegmatite_rect,2,0,2,0,1,
662949dcb3c06ccdd7352db5,SCN,2024-06-26_13h35.31.114,LearnStrategy,2023.2.3,MacIntel,55.55555556,1,2,4,,,,,,,,1,09,,,,,,,,,,,4,3.411,0,,,,,,0.409821429,-0.236607143,1,0,0,3.411,Gabbro_rect,3,0,3,0,1,
662949dcb3c06ccdd7352db5,SCN,2024-06-26_13h35.31.114,LearnStrategy,2023.2.3,MacIntel,55.55555556,1,2,5,,,,,,,,5,12,,,,,,,,,,,5,2.496,1,,,,,,-0.391071429,-0.398214286,1,0,0,2.496,Obsidian_rect,4,0,4,0,1,
662949dcb3c06ccdd7352db5,SCN,2024-06-26_13h35.31.114,LearnStrategy,2023.2.3,MacIntel,55.55555556,1,2,6,,,,,,,,7,13,,,,,,,,,,,7,8.571,1,,,,,,0.109821429,-0.404464286,1,0,0,8.571,Peridotite_rect,5,0,5,0,1,
662949dcb3c06ccdd7352db5,SCN,2024-06-26_13h35.31.114,LearnStrategy,2023.2.3,MacIntel,55.55555556,1,2,7,,,,,,,,4,13,,,,,,,,,,,1,4.807,0,,,,,,-0.314285714,-0.25625,1,0,0,4.807,Andesite_rect,6,0,6,0,1,
662949dcb3c06ccdd7352db5,SCN,2024-06-26_13h35.31.114,LearnStrategy,2023.2.3,MacIntel,55.55555556,1,2,8,,,,,,,,3,13,,,,,,,,,,,3,6.986,1,,,,,,0.139285714,-0.258035714,1,0,0,6.986,Diorite_rect,7,0,7,0,1,
662949dcb3c06ccdd7352db5,SCN,2024-06-26_13h35.31.114,LearnStrategy,2023.2.3,MacIntel,55.55555556,1,2,9,,,,,,,,3,07,,,,,,,,,,,6,5.047,0,,,,,,-0.121428571,-0.41875,1,0,0,5.047,Pegmatite_rect,8,0,8,0,1,
662949dcb3c06ccdd7352db5,SCN,2024-06-26_13h35.31.114,LearnStrategy,2023.2.3,MacIntel,55.55555556,1,2,10,,,,,,,,2,12,,,,,,,,,,,8,2.917,0,,,,,,0.328571429,-0.40625,1,0,0,2.917,Pumice_rect,9,0,9,0,1,
662949dcb3c06ccdd7352db5,SCN,2024-06-26_13h35.31.114,LearnStrategy,2023.2.3,MacIntel,55.55555556,1,2,11,,,,,,,,5,04,,,,,,,,,,,5,1.333,1,,,,,,-0.339285714,-0.413392857,1,0,0,1.333,Obsidian_rect,10,0,10,0,1,
662949dcb3c06ccdd7352db5,SCN,2024-06-26_13h35.31.114,LearnStrategy,2023.2.3,MacIntel,55.55555556,1,2,12,,,,,,,,8,10,,,,,,,,,,,8,2.195,1,,,,,,0.35625,-0.397321429,1,0,0,2.195,Pumice_rect,11,0,11,0,1,
662949dcb3c06ccdd7352db5,SCN,2024-06-26_13h35.31.114,LearnStrategy,2023.2.3,MacIntel,55.55555556,1,2,13,,,,,,,,4,05,,,,,,,,,,,6,4.215,0,,,,,,-0.069642857,-0.407142857,1,0,0,4.215,Pegmatite_rect,12,0,12,0,1,
662949dcb3c06ccdd7352db5,SCN,2024-06-26_13h35.31.114,LearnStrategy,2023.2.3,MacIntel,55.55555556,1,2,14,,,,,,,,7,04,,,,,,,,,,,3,9.851,0,,,,,,0.115178571,-0.269642857,1,0,0,9.851,Diorite_rect,13,0,13,0,1,
662949dcb3c06ccdd7352db5,SCN,2024-06-26_13h35.31.114,LearnStrategy,2023.2.3,MacIntel,55.55555556,1,2,15,,,,,,,,8,04,,,,,,,,,,,8,1.334,1,,,,,,0.396428571,-0.404464286,1,0,0,1.334,Pumice_rect,14,0,14,0,1,
662949dcb3c06ccdd7352db5,SCN,2024-06-26_13h35.31.114,LearnStrategy,2023.2.3,MacIntel,55.55555556,1,2,16,,,,,,,,2,02,,,,,,,,,,,2,5.711,1,,,,,,-0.100892857,-0.2625,1,0,0,5.711,Basalt_rect,15,0,15,0,1,
662949dcb3c06ccdd7352db5,SCN,2024-06-26_13h35.31.114,LearnStrategy,2023.2.3,MacIntel,55.55555556,2,1,1,-0.391964286,0.06875,1,0,0,4.299,Basalt_01,2,01,4,2,4.299,-0.13125,-0.240178571,1,0,0,1.849,Basalt_rect,2,1.849,1,0,0,0,0,1,,,,,,,,,,,,,
662949dcb3c06ccdd7352db5,SCN,2024-06-26_13h35.31.114,LearnStrategy,2023.2.3,MacIntel,55.55555556,2,1,2,0.576785714,0.383035714,1,0,0,2.767,Obsidian_10,5,10,6,8,2.767,0.208928571,-0.261607143,1,0,0,2.209,Diorite_rect,3,2.209,0,1,0,1,0,1,,,,,,,,,,,,,
662949dcb3c06ccdd7352db5,SCN,2024-06-26_13h35.31.114,LearnStrategy,2023.2.3,MacIntel,55.55555556,2,1,3,-0.21875,-0.274107143,1,0,0,1.182,Diorite_09,3,09,2,3,1.182,-0.128571429,-0.4,1,0,0,1.278,Pegmatite_rect,6,1.278,0,2,0,2,0,1,,,,,,,,,,,,,
662949dcb3c06ccdd7352db5,SCN,2024-06-26_13h35.31.114,LearnStrategy,2023.2.3,MacIntel,55.55555556,2,1,4,-0.361607143,-0.249107143,1,0,0,0.983,Basalt_14,2,14,2,2,0.983,0.391071429,-0.416071429,1,0,0,1.696,Pumice_rect,8,1.696,0,3,0,3,0,1,,,,,,,,,,,,,
662949dcb3c06ccdd7352db5,SCN,2024-06-26_13h35.31.114,LearnStrategy,2023.2.3,MacIntel,55.55555556,2,1,5,-0.522321429,-0.421428571,1,0,0,2.5,Pumice_16,8,16,1,1,2.5,0.426785714,-0.408035714,1,0,0,1.275,Pumice_rect,8,1.275,1,4,0,4,0,1,,,,,,,,,,,,,
662949dcb3c06ccdd7352db5,SCN,2024-06-26_13h35.31.114,LearnStrategy,2023.2.3,MacIntel,55.55555556,2,1,6,-0.050892857,-0.110714286,1,0,0,1.183,Pegmatite_16,6,16,3,4,1.183,0.171428571,-0.246428571,1,0,0,1.481,Diorite_rect,3,1.481,0,5,0,5,0,1,,,,,,,,,,,,,
662949dcb3c06ccdd7352db5,SCN,2024-06-26_13h35.31.114,LearnStrategy,2023.2.3,MacIntel,55.55555556,2,1,7,-0.507142857,-0.102678571,1,0,0,1.965,Obsidian_06,5,06,3,1,1.965,-0.378571429,-0.395535714,1,0,0,0.975,Obsidian_rect,5,0.975,1,6,0,6,0,1,,,,,,,,,,,,,
662949dcb3c06ccdd7352db5,SCN,2024-06-26_13h35.31.114,LearnStrategy,2023.2.3,MacIntel,55.55555556,2,1,8,0.378571429,-0.420535714,1,0,0,2.166,Gabbro_01,4,01,1,7,2.166,0.154464286,-0.233928571,1,0,0,1.584,Diorite_rect,3,1.584,0,7,0,7,0,1,,,,,,,,,,,,,
662949dcb3c06ccdd7352db5,SCN,2024-06-26_13h35.31.114,LearnStrategy,2023.2.3,MacIntel,55.55555556,2,1,9,-0.240178571,0.271428571,1,0,0,2.764,Gabbro_14,4,14,5,3,2.764,0.401785714,-0.245535714,1,0,0,1.587,Gabbro_rect,4,1.587,1,8,0,8,0,1,,,,,,,,,,,,,
662949dcb3c06ccdd7352db5,SCN,2024-06-26_13h35.31.114,LearnStrategy,2023.2.3,MacIntel,55.55555556,2,1,10,-0.244642857,0.05,1,0,0,1.332,Diorite_06,3,06,4,3,1.332,0.135714286,-0.255357143,1,0,0,1.012,Diorite_rect,3,1.012,1,9,0,9,0,1,,,,,,,,,,,,,
662949dcb3c06ccdd7352db5,SCN,2024-06-26_13h35.31.114,LearnStrategy,2023.2.3,MacIntel,55.55555556,2,1,11,-0.401785714,0.396428571,1,0,0,1.384,Pegmatite_09,6,09,6,2,1.384,-0.141964286,-0.24375,1,0,0,1.889,Basalt_rect,2,1.889,0,10,0,10,0,1,,,,,,,,,,,,,
662949dcb3c06ccdd7352db5,SCN,2024-06-26_13h35.31.114,LearnStrategy,2023.2.3,MacIntel,55.55555556,2,1,12,-0.263392857,-0.130357143,1,0,0,1.248,Pumice_08,8,08,3,3,1.248,0.475,-0.403571429,1,0,0,1.108,Pumice_rect,8,1.108,1,11,0,11,0,1,,,,,,,,,,,,,
662949dcb3c06ccdd7352db5,SCN,2024-06-26_13h35.31.114,LearnStrategy,2023.2.3,MacIntel,55.55555556,2,1,13,-0.554464286,-0.266071429,1,0,0,2.417,Peridotite_14,7,14,2,1,2.417,-0.09375,-0.269642857,1,0,0,1.74,Basalt_rect,2,1.74,0,12,0,12,0,1,,,,,,,,,,,,,
662949dcb3c06ccdd7352db5,SCN,2024-06-26_13h35.31.114,LearnStrategy,2023.2.3,MacIntel,55.55555556,2,1,14,0.571428571,-0.109821429,1,0,0,1.166,Andesite_10,1,10,3,8,1.166,0.458035714,-0.258035714,1,0,0,1.546,Gabbro_rect,4,1.546,0,13,0,13,0,1,,,,,,,,,,,,,
662949dcb3c06ccdd7352db5,SCN,2024-06-26_13h35.31.114,LearnStrategy,2023.2.3,MacIntel,55.55555556,2,1,15,-0.049107143,-0.236607143,1,0,0,0.65,Obsidian_14,5,14,2,4,0.65,-0.298214286,-0.392857143,1,0,0,1.224,Obsidian_rect,5,1.224,1,14,0,14,0,1,,,,,,,,,,,,,
662949dcb3c06ccdd7352db5,SCN,2024-06-26_13h35.31.114,LearnStrategy,2023.2.3,MacIntel,55.55555556,2,1,16,-0.391071429,0.083928571,1,0,0,2.065,Basalt_01,2,01,4,2,2.065,-0.125,-0.241964286,1,0,0,1.828,Basalt_rect,2,1.828,1,15,0,15,0,1,,,,,,,,,,,,,
662949dcb3c06ccdd7352db5,SCN,2024-06-26_13h35.31.114,LearnStrategy,2023.2.3,MacIntel,55.55555556,2,2,1,,,,,,,,5,16,,,,,,,,,,,5,1.215,1,,,,,,-0.413392857,-0.409821429,1,0,0,1.215,Obsidian_rect,0,0,0,0,1,
662949dcb3c06ccdd7352db5,SCN,2024-06-26_13h35.31.114,LearnStrategy,2023.2.3,MacIntel,55.55555556,2,2,2,,,,,,,,1,05,,,,,,,,,,,1,8.669,1,,,,,,-0.366964286,-0.260714286,1,0,0,8.669,Andesite_rect,1,0,1,0,1,
662949dcb3c06ccdd7352db5,SCN,2024-06-26_13h35.31.114,LearnStrategy,2023.2.3,MacIntel,55.55555556,2,2,3,,,,,,,,1,14,,,,,,,,,,,7,5.252,0,,,,,,0.104464286,-0.404464286,1,0,0,5.252,Peridotite_rect,2,0,2,0,1,
662949dcb3c06ccdd7352db5,SCN,2024-06-26_13h35.31.114,LearnStrategy,2023.2.3,MacIntel,55.55555556,2,2,4,,,,,,,,6,12,,,,,,,,,,,3,5.986,0,,,,,,0.147321429,-0.269642857,1,0,0,5.986,Diorite_rect,3,0,3,0,1,
662949dcb3c06ccdd7352db5,SCN,2024-06-26_13h35.31.114,LearnStrategy,2023.2.3,MacIntel,55.55555556,2,2,5,,,,,,,,4,03,,,,,,,,,,,3,1.387,0,,,,,,0.147321429,-0.269642857,1,0,0,1.387,Diorite_rect,4,0,4,0,1,
662949dcb3c06ccdd7352db5,SCN,2024-06-26_13h35.31.114,LearnStrategy,2023.2.3,MacIntel,55.55555556,2,2,6,,,,,,,,7,06,,,,,,,,,,,7,4.47,1,,,,,,0.10625,-0.395535714,1,0,0,4.47,Peridotite_rect,5,0,5,0,1,
662949dcb3c06ccdd7352db5,SCN,2024-06-26_13h35.31.114,LearnStrategy,2023.2.3,MacIntel,55.55555556,2,2,7,,,,,,,,2,06,,,,,,,,,,,2,2.633,1,,,,,,-0.083928571,-0.257142857,1,0,0,2.633,Basalt_rect,6,0,6,0,1,
662949dcb3c06ccdd7352db5,SCN,2024-06-26_13h35.31.114,LearnStrategy,2023.2.3,MacIntel,55.55555556,2,2,8,,,,,,,,6,07,,,,,,,,,,,4,4.168,0,,,,,,0.440178571,-0.270535714,1,0,0,4.168,Gabbro_rect,7,0,7,0,1,
662949dcb3c06ccdd7352db5,SCN,2024-06-26_13h35.31.114,LearnStrategy,2023.2.3,MacIntel,55.55555556,2,2,9,,,,,,,,2,16,,,,,,,,,,,2,6.473,1,,,,,,-0.170535714,-0.24375,1,0,0,6.473,Basalt_rect,8,0,8,0,1,
662949dcb3c06ccdd7352db5,SCN,2024-06-26_13h35.31.114,LearnStrategy,2023.2.3,MacIntel,55.55555556,2,2,10,,,,,,,,4,16,,,,,,,,,,,6,4.427,0,,,,,,-0.024107143,-0.4125,1,0,0,4.427,Pegmatite_rect,9,0,9,0,1,
662949dcb3c06ccdd7352db5,SCN,2024-06-26_13h35.31.114,LearnStrategy,2023.2.3,MacIntel,55.55555556,2,2,11,,,,,,,,7,12,,,,,,,,,,,4,2.053,0,,,,,,0.333035714,-0.242857143,1,0,0,2.053,Gabbro_rect,10,0,10,0,1,
662949dcb3c06ccdd7352db5,SCN,2024-06-26_13h35.31.114,LearnStrategy,2023.2.3,MacIntel,55.55555556,2,2,12,,,,,,,,8,05,,,,,,,,,,,8,1.293,1,,,,,,0.399107143,-0.417857143,1,0,0,1.293,Pumice_rect,11,0,11,0,1,
662949dcb3c06ccdd7352db5,SCN,2024-06-26_13h35.31.114,LearnStrategy,2023.2.3,MacIntel,55.55555556,2,2,13,,,,,,,,3,11,,,,,,,,,,,3,5.286,1,,,,,,0.079464286,-0.259821429,1,0,0,5.286,Diorite_rect,12,0,12,0,1,
662949dcb3c06ccdd7352db5,SCN,2024-06-26_13h35.31.114,LearnStrategy,2023.2.3,MacIntel,55.55555556,2,2,14,,,,,,,,5,08,,,,,,,,,,,5,1.304,1,,,,,,-0.373214286,-0.408928571,1,0,0,1.304,Obsidian_rect,13,0,13,0,1,
662949dcb3c06ccdd7352db5,SCN,2024-06-26_13h35.31.114,LearnStrategy,2023.2.3,MacIntel,55.55555556,2,2,15,,,,,,,,3,12,,,,,,,,,,,3,1.569,1,,,,,,0.183035714,-0.23125,1,0,0,1.569,Diorite_rect,14,0,14,0,1,
662949dcb3c06ccdd7352db5,SCN,2024-06-26_13h35.31.114,LearnStrategy,2023.2.3,MacIntel,55.55555556,2,2,16,,,,,,,,8,02,,,,,,,,,,,8,1.683,1,,,,,,0.352678571,-0.3875,1,0,0,1.683,Pumice_rect,15,0,15,0,1,
662949dcb3c06ccdd7352db5,SCN,2024-06-26_13h35.31.114,LearnStrategy,2023.2.3,MacIntel,55.55555556,3,1,1,0.113392857,0.086607143,1,0,0,1.315,Pegmatite_03,6,03,4,5,1.315,0.126785714,-0.266071429,1,0,0,2.327,Diorite_rect,3,2.327,0,0,0,0,0,1,,,,,,,,,,,,,
662949dcb3c06ccdd7352db5,SCN,2024-06-26_13h35.31.114,LearnStrategy,2023.2.3,MacIntel,55.55555556,3,1,2,0.433928571,0.226785714,1,0,0,1.799,Basalt_11,2,11,5,7,1.799,-0.374107143,-0.240178571,1,0,0,2.147,Andesite_rect,1,2.147,0,1,0,1,0,1,,,,,,,,,,,,,
662949dcb3c06ccdd7352db5,SCN,2024-06-26_13h35.31.114,LearnStrategy,2023.2.3,MacIntel,55.55555556,3,1,3,-0.098214286,-0.109821429,1,0,0,1.149,Pegmatite_16,6,16,3,4,1.149,0.050892857,-0.260714286,1,0,0,1.878,Diorite_rect,3,1.878,0,2,0,2,0,1,,,,,,,,,,,,,
662949dcb3c06ccdd7352db5,SCN,2024-06-26_13h35.31.114,LearnStrategy,2023.2.3,MacIntel,55.55555556,3,1,4,-0.248214286,-0.429464286,1,0,0,1.434,Gabbro_11,4,11,1,3,1.434,-0.144642857,-0.269642857,1,0,0,1.469,Basalt_rect,2,1.469,0,3,0,3,0,1,,,,,,,,,,,,,
662949dcb3c06ccdd7352db5,SCN,2024-06-26_13h35.31.114,LearnStrategy,2023.2.3,MacIntel,55.55555556,3,1,5,0.559821429,-0.228571429,1,0,0,1.765,Andesite_07,1,07,2,8,1.765,0.451785714,-0.2375,1,0,0,1.058,Gabbro_rect,4,1.058,0,4,0,4,0,1,,,,,,,,,,,,,
662949dcb3c06ccdd7352db5,SCN,2024-06-26_13h35.31.114,LearnStrategy,2023.2.3,MacIntel,55.55555556,3,1,6,-0.047321429,-0.425,1,0,0,2.9,Diorite_10,3,10,1,4,2.9,0.372321429,-0.242857143,1,0,0,1.446,Gabbro_rect,4,1.446,0,5,0,5,0,1,,,,,,,,,,,,,
662949dcb3c06ccdd7352db5,SCN,2024-06-26_13h35.31.114,LearnStrategy,2023.2.3,MacIntel,55.55555556,3,1,7,-0.225,0.247321429,1,0,0,1.732,Gabbro_14,4,14,5,3,1.732,0.383035714,-0.246428571,1,0,0,1.19,Gabbro_rect,4,1.19,1,6,0,6,0,1,,,,,,,,,,,,,
662949dcb3c06ccdd7352db5,SCN,2024-06-26_13h35.31.114,LearnStrategy,2023.2.3,MacIntel,55.55555556,3,1,8,-0.414285714,0.245535714,1,0,0,2.016,Gabbro_09,4,09,5,2,2.016,-0.391964286,-0.261607143,1,0,0,1.75,Andesite_rect,1,1.75,0,7,0,7,0,1,,,,,,,,,,,,,
662949dcb3c06ccdd7352db5,SCN,2024-06-26_13h35.31.114,LearnStrategy,2023.2.3,MacIntel,55.55555556,3,1,9,-0.572321429,0.075,1,0,0,3.95,Diorite_15,3,15,4,1,3.95,-0.348214286,-0.257142857,1,0,0,2.917,Andesite_rect,1,2.917,0,8,0,8,0,1,,,,,,,,,,,,,
662949dcb3c06ccdd7352db5,SCN,2024-06-26_13h35.31.114,LearnStrategy,2023.2.3,MacIntel,55.55555556,3,1,10,0.246428571,-0.259821429,1,0,0,2.532,Diorite_02,3,02,2,6,2.532,0.161607143,-0.260714286,1,0,0,0.76,Diorite_rect,3,0.76,1,9,0,9,0,1,,,,,,,,,,,,,
662949dcb3c06ccdd7352db5,SCN,2024-06-26_13h35.31.114,LearnStrategy,2023.2.3,MacIntel,55.55555556,3,1,11,-0.050892857,-0.423214286,1,0,0,1.3,Diorite_10,3,10,1,4,1.3,0.155357143,-0.241071429,1,0,0,1.394,Diorite_rect,3,1.394,1,10,0,10,0,1,,,,,,,,,,,,,
662949dcb3c06ccdd7352db5,SCN,2024-06-26_13h35.31.114,LearnStrategy,2023.2.3,MacIntel,55.55555556,3,1,12,-0.089285714,-0.101785714,1,0,0,0.715,Pegmatite_16,6,16,3,4,0.715,-0.065178571,-0.3875,1,0,0,13.11,Pegmatite_rect,6,13.11,1,11,0,11,0,1,,,,,,,,,,,,,
662949dcb3c06ccdd7352db5,SCN,2024-06-26_13h35.31.114,LearnStrategy,2023.2.3,MacIntel,55.55555556,3,1,13,0.23125,-0.100892857,1,0,0,1.214,Peridotite_16,7,16,3,6,1.214,0.18125,-0.241071429,1,0,0,1.513,Diorite_rect,3,1.513,0,12,0,12,0,1,,,,,,,,,,,,,
662949dcb3c06ccdd7352db5,SCN,2024-06-26_13h35.31.114,LearnStrategy,2023.2.3,MacIntel,55.55555556,3,1,14,0.540178571,-0.40625,1,0,0,2.266,Pegmatite_05,6,05,1,8,2.266,0.170535714,-0.384821429,1,0,0,1.832,Peridotite_rect,7,1.832,0,13,0,13,0,1,,,,,,,,,,,,,
662949dcb3c06ccdd7352db5,SCN,2024-06-26_13h35.31.114,LearnStrategy,2023.2.3,MacIntel,55.55555556,3,1,15,-0.042857143,-0.208035714,1,0,0,0.698,Obsidian_14,5,14,2,4,0.698,-0.338392857,-0.392857143,1,0,0,1.869,Obsidian_rect,5,1.869,1,14,0,14,0,1,,,,,,,,,,,,,
662949dcb3c06ccdd7352db5,SCN,2024-06-26_13h35.31.114,LearnStrategy,2023.2.3,MacIntel,55.55555556,3,1,16,-0.408035714,0.101785714,1,0,0,2.75,Basalt_01,2,01,4,2,2.75,-0.146428571,-0.265178571,1,0,0,1.091,Basalt_rect,2,1.091,1,15,0,15,0,1,,,,,,,,,,,,,
662949dcb3c06ccdd7352db5,SCN,2024-06-26_13h35.31.114,LearnStrategy,2023.2.3,MacIntel,55.55555556,3,2,1,,,,,,,,1,16,,,,,,,,,,,3,9.424,0,,,,,,0.183035714,-0.255357143,1,0,0,9.424,Diorite_rect,0,0,0,0,1,
662949dcb3c06ccdd7352db5,SCN,2024-06-26_13h35.31.114,LearnStrategy,2023.2.3,MacIntel,55.55555556,3,2,2,,,,,,,,7,05,,,,,,,,,,,7,5.008,1,,,,,,0.152678571,-0.396428571,1,0,0,5.008,Peridotite_rect,1,0,1,0,1,
662949dcb3c06ccdd7352db5,SCN,2024-06-26_13h35.31.114,LearnStrategy,2023.2.3,MacIntel,55.55555556,3,2,3,,,,,,,,5,05,,,,,,,,,,,5,1.745,1,,,,,,-0.389285714,-0.41875,1,0,0,1.745,Obsidian_rect,2,0,2,0,1,
662949dcb3c06ccdd7352db5,SCN,2024-06-26_13h35.31.114,LearnStrategy,2023.2.3,MacIntel,55.55555556,3,2,4,,,,,,,,8,13,,,,,,,,,,,8,2.276,1,,,,,,0.333928571,-0.408035714,1,0,0,2.276,Pumice_rect,3,0,3,0,1,
662949dcb3c06ccdd7352db5,SCN,2024-06-26_13h35.31.114,LearnStrategy,2023.2.3,MacIntel,55.55555556,3,2,5,,,,,,,,7,15,,,,,,,,,,,3,12.375,0,,,,,,0.18125,-0.25,1,0,0,12.375,Diorite_rect,4,0,4,0,1,
662949dcb3c06ccdd7352db5,SCN,2024-06-26_13h35.31.114,LearnStrategy,2023.2.3,MacIntel,55.55555556,3,2,6,,,,,,,,1,03,,,,,,,,,,,4,2.742,0,,,,,,0.432142857,-0.249107143,1,0,0,2.742,Gabbro_rect,5,0,5,0,1,
662949dcb3c06ccdd7352db5,SCN,2024-06-26_13h35.31.114,LearnStrategy,2023.2.3,MacIntel,55.55555556,3,2,7,,,,,,,,6,11,,,,,,,,,,,6,6.583,1,,,,,,-0.083035714,-0.414285714,1,0,0,6.583,Pegmatite_rect,6,0,6,0,1,
662949dcb3c06ccdd7352db5,SCN,2024-06-26_13h35.31.114,LearnStrategy,2023.2.3,MacIntel,55.55555556,3,2,8,,,,,,,,4,10,,,,,,,,,,,2,4.094,0,,,,,,-0.104464286,-0.257142857,1,0,0,4.094,Basalt_rect,7,0,7,0,1,
662949dcb3c06ccdd7352db5,SCN,2024-06-26_13h35.31.114,LearnStrategy,2023.2.3,MacIntel,55.55555556,3,2,9,,,,,,,,2,05,,,,,,,,,,,1,4.39,0,,,,,,-0.3,-0.254464286,1,0,0,4.39,Andesite_rect,8,0,8,0,1,
662949dcb3c06ccdd7352db5,SCN,2024-06-26_13h35.31.114,LearnStrategy,2023.2.3,MacIntel,55.55555556,3,2,10,,,,,,,,5,07,,,,,,,,,,,5,1.754,1,,,,,,-0.365178571,-0.392857143,1,0,0,1.754,Obsidian_rect,9,0,9,0,1,
662949dcb3c06ccdd7352db5,SCN,2024-06-26_13h35.31.114,LearnStrategy,2023.2.3,MacIntel,55.55555556,3,2,11,,,,,,,,2,10,,,,,,,,,,,2,3.334,1,,,,,,-0.058035714,-0.240178571,1,0,0,3.334,Basalt_rect,10,0,10,0,1,
662949dcb3c06ccdd7352db5,SCN,2024-06-26_13h35.31.114,LearnStrategy,2023.2.3,MacIntel,55.55555556,3,2,12,,,,,,,,3,16,,,,,,,,,,,3,6.547,1,,,,,,0.202678571,-0.2625,1,0,0,6.547,Diorite_rect,11,0,11,0,1,
662949dcb3c06ccdd7352db5,SCN,2024-06-26_13h35.31.114,LearnStrategy,2023.2.3,MacIntel,55.55555556,3,2,13,,,,,,,,3,14,,,,,,,,,,,3,1.023,1,,,,,,0.202678571,-0.2625,1,0,0,1.023,Diorite_rect,12,0,12,0,1,
662949dcb3c06ccdd7352db5,SCN,2024-06-26_13h35.31.114,LearnStrategy,2023.2.3,MacIntel,55.55555556,3,2,14,,,,,,,,4,15,,,,,,,,,,,4,4.827,1,,,,,,0.346428571,-0.245535714,1,0,0,4.827,Gabbro_rect,13,0,13,0,1,
662949dcb3c06ccdd7352db5,SCN,2024-06-26_13h35.31.114,LearnStrategy,2023.2.3,MacIntel,55.55555556,3,2,15,,,,,,,,6,06,,,,,,,,,,,6,4.079,1,,,,,,-0.066071429,-0.398214286,1,0,0,4.079,Pegmatite_rect,14,0,14,0,1,
662949dcb3c06ccdd7352db5,SCN,2024-06-26_13h35.31.114,LearnStrategy,2023.2.3,MacIntel,55.55555556,3,2,16,,,,,,,,8,06,,,,,,,,,,,8,1.316,1,,,,,,0.383928571,-0.38125,1,0,0,1.316,Pumice_rect,15,0,15,0,1,
662949dcb3c06ccdd7352db5,SCN,2024-06-26_13h35.31.114,LearnStrategy,2023.2.3,MacIntel,55.55555556,4,1,1,-0.052678571,0.098214286,1,0,0,1.382,Peridotite_08,7,08,4,4,1.382,-0.370535714,-0.249107143,1,0,0,1.624,Andesite_rect,1,1.624,0,0,0,0,0,1,,,,,,,,,,,,,
662949dcb3c06ccdd7352db5,SCN,2024-06-26_13h35.31.114,LearnStrategy,2023.2.3,MacIntel,55.55555556,4,1,2,-0.423214286,0.252678571,1,0,0,1.599,Gabbro_09,4,09,5,2,1.599,-0.399107143,-0.242857143,1,0,0,0.854,Andesite_rect,1,0.854,0,1,0,1,0,1,,,,,,,,,,,,,
662949dcb3c06ccdd7352db5,SCN,2024-06-26_13h35.31.114,LearnStrategy,2023.2.3,MacIntel,55.55555556,4,1,3,0.565178571,0.366071429,1,0,0,0.934,Obsidian_10,5,10,6,8,0.934,-0.395535714,-0.252678571,1,0,0,1.588,Andesite_rect,1,1.588,0,2,0,2,0,1,,,,,,,,,,,,,
662949dcb3c06ccdd7352db5,SCN,2024-06-26_13h35.31.114,LearnStrategy,2023.2.3,MacIntel,55.55555556,4,1,4,0.428571429,0.248214286,1,0,0,1.766,Basalt_11,2,11,5,7,1.766,-0.357142857,-0.228571429,1,0,0,1.205,Andesite_rect,1,1.205,0,3,0,3,0,1,,,,,,,,,,,,,
662949dcb3c06ccdd7352db5,SCN,2024-06-26_13h35.31.114,LearnStrategy,2023.2.3,MacIntel,55.55555556,4,1,5,0.394642857,-0.057142857,1,0,0,1.248,Gabbro_12,4,12,3,7,1.248,-0.491964286,-0.242857143,1,0,0,0.96,Andesite_rect,1,0.96,0,4,0,4,0,1,,,,,,,,,,,,,
662949dcb3c06ccdd7352db5,SCN,2024-06-26_13h35.31.114,LearnStrategy,2023.2.3,MacIntel,55.55555556,4,1,6,0.120535714,0.377678571,1,0,0,1.7,Basalt_08,2,08,6,5,1.7,-0.349107143,-0.2375,1,0,0,3.177,Andesite_rect,1,3.177,0,5,0,5,0,1,,,,,,,,,,,,,
662949dcb3c06ccdd7352db5,SCN,2024-06-26_13h35.31.114,LearnStrategy,2023.2.3,MacIntel,55.55555556,4,1,7,-0.523214286,-0.415178571,1,0,0,1.616,Pumice_16,8,16,1,1,1.616,0.3125,-0.398214286,1,0,0,1.423,Pumice_rect,8,1.423,1,6,0,6,0,1,,,,,,,,,,,,,
662949dcb3c06ccdd7352db5,SCN,2024-06-26_13h35.31.114,LearnStrategy,2023.2.3,MacIntel,55.55555556,4,1,8,0.254464286,-0.116964286,1,0,0,1.567,Peridotite_16,7,16,3,6,1.567,-0.429464286,-0.241964286,1,0,0,1.884,Andesite_rect,1,1.884,0,7,0,7,0,1,,,,,,,,,,,,,
662949dcb3c06ccdd7352db5,SCN,2024-06-26_13h35.31.114,LearnStrategy,2023.2.3,MacIntel,55.55555556,4,1,9,-0.078571429,-0.097321429,1,0,0,0.715,Pegmatite_16,6,16,3,4,0.715,0.123214286,-0.402678571,1,0,0,1.242,Peridotite_rect,7,1.242,0,8,0,8,0,1,,,,,,,,,,,,,
662949dcb3c06ccdd7352db5,SCN,2024-06-26_13h35.31.114,LearnStrategy,2023.2.3,MacIntel,55.55555556,4,1,10,-0.026785714,-0.445535714,1,0,0,1.949,Diorite_10,3,10,1,4,1.949,-0.333035714,-0.260714286,1,0,0,1.952,Andesite_rect,1,1.952,0,9,0,9,0,1,,,,,,,,,,,,,
662949dcb3c06ccdd7352db5,SCN,2024-06-26_13h35.31.114,LearnStrategy,2023.2.3,MacIntel,55.55555556,4,1,11,0.574107143,-0.421428571,1,0,0,1.599,Pegmatite_05,6,05,1,8,1.599,-0.357142857,-0.25625,1,0,0,2.53,Andesite_rect,1,2.53,0,10,0,10,0,1,,,,,,,,,,,,,
662949dcb3c06ccdd7352db5,SCN,2024-06-26_13h35.31.114,LearnStrategy,2023.2.3,MacIntel,55.55555556,4,1,12,-0.108035714,0.372321429,1,0,0,1.566,Andesite_04,1,04,6,4,1.566,-0.369642857,-0.252678571,1,0,0,1.799,Andesite_rect,1,1.799,1,11,0,11,0,1,,,,,,,,,,,,,
662949dcb3c06ccdd7352db5,SCN,2024-06-26_13h35.31.114,LearnStrategy,2023.2.3,MacIntel,55.55555556,4,1,13,-0.347321429,0.408928571,1,0,0,1.483,Pegmatite_09,6,09,6,2,1.483,-0.079464286,-0.385714286,1,0,0,3.247,Pegmatite_rect,6,3.247,1,12,0,12,0,1,,,,,,,,,,,,,
662949dcb3c06ccdd7352db5,SCN,2024-06-26_13h35.31.114,LearnStrategy,2023.2.3,MacIntel,55.55555556,4,1,14,0.061607143,-0.11875,1,0,0,4.617,Pegmatite_08,6,08,3,5,4.617,-0.35625,-0.240178571,1,0,0,1.92,Andesite_rect,1,1.92,0,13,0,13,0,1,,,,,,,,,,,,,
662949dcb3c06ccdd7352db5,SCN,2024-06-26_13h35.31.114,LearnStrategy,2023.2.3,MacIntel,55.55555556,4,1,15,0.570535714,-0.39375,1,0,0,2.532,Pegmatite_05,6,05,1,8,2.532,-0.3125,-0.2375,1,0,0,1.298,Andesite_rect,1,1.298,0,14,0,14,0,1,,,,,,,,,,,,,
662949dcb3c06ccdd7352db5,SCN,2024-06-26_13h35.31.114,LearnStrategy,2023.2.3,MacIntel,55.55555556,4,1,16,0.507142857,-0.110714286,1,0,0,6.283,Andesite_10,1,10,3,8,6.283,-0.052678571,-0.233035714,1,0,0,1.583,Basalt_rect,2,1.583,0,15,0,15,0,1,,,,,,,,,,,,,
662949dcb3c06ccdd7352db5,SCN,2024-06-26_13h35.31.114,LearnStrategy,2023.2.3,MacIntel,55.55555556,4,2,1,,,,,,,,2,10,,,,,,,,,,,2,3.374,1,,,,,,-0.083928571,-0.257142857,1,0,0,3.374,Basalt_rect,0,0,0,0,1,
662949dcb3c06ccdd7352db5,SCN,2024-06-26_13h35.31.114,LearnStrategy,2023.2.3,MacIntel,55.55555556,4,2,2,,,,,,,,8,02,,,,,,,,,,,8,1.322,1,,,,,,0.419642857,-0.40625,1,0,0,1.322,Pumice_rect,1,0,1,0,1,
662949dcb3c06ccdd7352db5,SCN,2024-06-26_13h35.31.114,LearnStrategy,2023.2.3,MacIntel,55.55555556,4,2,3,,,,,,,,1,09,,,,,,,,,,,1,8.67,1,,,,,,-0.39375,-0.25625,1,0,0,8.67,Andesite_rect,2,0,2,0,1,
662949dcb3c06ccdd7352db5,SCN,2024-06-26_13h35.31.114,LearnStrategy,2023.2.3,MacIntel,55.55555556,4,2,4,,,,,,,,2,06,,,,,,,,,,,2,2.137,1,,,,,,-0.078571429,-0.25625,1,0,0,2.137,Basalt_rect,3,0,3,0,1,
662949dcb3c06ccdd7352db5,SCN,2024-06-26_13h35.31.114,LearnStrategy,2023.2.3,MacIntel,55.55555556,4,2,5,,,,,,,,8,06,,,,,,,,,,,8,1.19,1,,,,,,0.427678571,-0.41875,1,0,0,1.19,Pumice_rect,4,0,4,0,1,
662949dcb3c06ccdd7352db5,SCN,2024-06-26_13h35.31.114,LearnStrategy,2023.2.3,MacIntel,55.55555556,4,2,6,,,,,,,,4,16,,,,,,,,,,,6,8.665,0,,,,,,-0.082142857,-0.419642857,1,0,0,8.665,Pegmatite_rect,5,0,5,0,1,
662949dcb3c06ccdd7352db5,SCN,2024-06-26_13h35.31.114,LearnStrategy,2023.2.3,MacIntel,55.55555556,4,2,7,,,,,,,,7,06,,,,,,,,,,,7,8.514,1,,,,,,0.174107143,-0.416964286,1,0,0,8.514,Peridotite_rect,6,0,6,0,1,
662949dcb3c06ccdd7352db5,SCN,2024-06-26_13h35.31.114,LearnStrategy,2023.2.3,MacIntel,55.55555556,4,2,8,,,,,,,,5,07,,,,,,,,,,,5,1.302,1,,,,,,-0.363392857,-0.4125,1,0,0,1.302,Obsidian_rect,7,0,7,0,1,
662949dcb3c06ccdd7352db5,SCN,2024-06-26_13h35.31.114,LearnStrategy,2023.2.3,MacIntel,55.55555556,4,2,9,,,,,,,,4,05,,,,,,,,,,,7,2.369,0,,,,,,0.186607143,-0.391964286,1,0,0,2.369,Peridotite_rect,8,0,8,0,1,
662949dcb3c06ccdd7352db5,SCN,2024-06-26_13h35.31.114,LearnStrategy,2023.2.3,MacIntel,55.55555556,4,2,10,,,,,,,,6,10,,,,,,,,,,,6,6.153,1,,,,,,-0.098214286,-0.388392857,1,0,0,6.153,Pegmatite_rect,9,0,9,0,1,
662949dcb3c06ccdd7352db5,SCN,2024-06-26_13h35.31.114,LearnStrategy,2023.2.3,MacIntel,55.55555556,4,2,11,,,,,,,,6,13,,,,,,,,,,,6,6.352,1,,,,,,-0.097321429,-0.388392857,1,0,0,6.352,Pegmatite_rect,10,0,10,0,1,
662949dcb3c06ccdd7352db5,SCN,2024-06-26_13h35.31.114,LearnStrategy,2023.2.3,MacIntel,55.55555556,4,2,12,,,,,,,,3,13,,,,,,,,,,,4,5.605,0,,,,,,0.341071429,-0.245535714,1,0,0,5.605,Gabbro_rect,11,0,11,0,1,
662949dcb3c06ccdd7352db5,SCN,2024-06-26_13h35.31.114,LearnStrategy,2023.2.3,MacIntel,55.55555556,4,2,13,,,,,,,,7,13,,,,,,,,,,,3,2.794,0,,,,,,0.223214286,-0.246428571,1,0,0,2.794,Diorite_rect,12,0,12,0,1,
662949dcb3c06ccdd7352db5,SCN,2024-06-26_13h35.31.114,LearnStrategy,2023.2.3,MacIntel,55.55555556,4,2,14,,,,,,,,3,07,,,,,,,,,,,4,1.658,0,,,,,,0.420535714,-0.258928571,1,0,0,1.658,Gabbro_rect,13,0,13,0,1,
662949dcb3c06ccdd7352db5,SCN,2024-06-26_13h35.31.114,LearnStrategy,2023.2.3,MacIntel,55.55555556,4,2,15,,,,,,,,1,16,,,,,,,,,,,1,1.514,1,,,,,,-0.364285714,-0.265178571,1,0,0,1.514,Andesite_rect,14,0,14,0,1,
662949dcb3c06ccdd7352db5,SCN,2024-06-26_13h35.31.114,LearnStrategy,2023.2.3,MacIntel,55.55555556,4,2,16,,,,,,,,5,05,,,,,,,,,,,5,1.898,1,,,,,,-0.401785714,-0.4125,1,0,0,1.898,Obsidian_rect,15,0,15,0,1,
662949dcb3c06ccdd7352db5,SCN,2024-06-26_13h35.31.114,LearnStrategy,2023.2.3,MacIntel,55.55555556,5,1,1,0.216071429,0.132142857,1,0,0,0.567,Gabbro_08,4,08,4,6,0.567,0.360714286,-0.241071429,1,0,0,1.87,Gabbro_rect,4,1.87,1,0,0,0,0,1,,,,,,,,,,,,,
662949dcb3c06ccdd7352db5,SCN,2024-06-26_13h35.31.114,LearnStrategy,2023.2.3,MacIntel,55.55555556,5,1,2,-0.052678571,0.108035714,1,0,0,0.6,Peridotite_08,7,08,4,4,0.6,-0.094642857,-0.250892857,1,0,0,1.44,Basalt_rect,2,1.44,0,1,0,1,0,1,,,,,,,,,,,,,
662949dcb3c06ccdd7352db5,SCN,2024-06-26_13h35.31.114,LearnStrategy,2023.2.3,MacIntel,55.55555556,5,1,3,0.065178571,-0.292857143,1,0,0,0.816,Diorite_08,3,08,2,5,0.816,0.208035714,-0.246428571,1,0,0,1.888,Diorite_rect,3,1.888,1,2,0,2,0,1,,,,,,,,,,,,,
662949dcb3c06ccdd7352db5,SCN,2024-06-26_13h35.31.114,LearnStrategy,2023.2.3,MacIntel,55.55555556,5,1,4,-0.053571429,-0.402678571,1,0,0,1.55,Diorite_10,3,10,1,4,1.55,-0.298214286,-0.249107143,1,0,0,1.436,Andesite_rect,1,1.436,0,3,0,3,0,1,,,,,,,,,,,,,
662949dcb3c06ccdd7352db5,SCN,2024-06-26_13h35.31.114,LearnStrategy,2023.2.3,MacIntel,55.55555556,5,1,5,-0.233928571,-0.414285714,1,0,0,1.464,Gabbro_11,4,11,1,3,1.464,-0.173214286,-0.267857143,1,0,0,1.633,Basalt_rect,2,1.633,0,4,0,4,0,1,,,,,,,,,,,,,
662949dcb3c06ccdd7352db5,SCN,2024-06-26_13h35.31.114,LearnStrategy,2023.2.3,MacIntel,55.55555556,5,1,6,0.377678571,-0.094642857,1,0,0,0.848,Gabbro_12,4,12,3,7,0.848,0.383035714,-0.244642857,1,0,0,1.295,Gabbro_rect,4,1.295,1,5,0,5,0,1,,,,,,,,,,,,,
662949dcb3c06ccdd7352db5,SCN,2024-06-26_13h35.31.114,LearnStrategy,2023.2.3,MacIntel,55.55555556,5,1,7,0.575,-0.090178571,1,0,0,1.117,Andesite_10,1,10,3,8,1.117,0.204464286,-0.384821429,1,0,0,2.608,Peridotite_rect,7,2.608,0,6,0,6,0,1,,,,,,,,,,,,,
662949dcb3c06ccdd7352db5,SCN,2024-06-26_13h35.31.114,LearnStrategy,2023.2.3,MacIntel,55.55555556,5,1,8,0.442857143,0.236607143,1,0,0,2.483,Basalt_11,2,11,5,7,2.483,0.360714286,-0.266964286,1,0,0,2.295,Gabbro_rect,4,2.295,0,7,0,7,0,1,,,,,,,,,,,,,
662949dcb3c06ccdd7352db5,SCN,2024-06-26_13h35.31.114,LearnStrategy,2023.2.3,MacIntel,55.55555556,5,1,9,-0.369642857,-0.105357143,1,0,0,2.715,Peridotite_07,7,07,3,2,2.715,-0.074107143,-0.413392857,1,0,0,2.178,Pegmatite_rect,6,2.178,0,8,0,8,0,1,,,,,,,,,,,,,
662949dcb3c06ccdd7352db5,SCN,2024-06-26_13h35.31.114,LearnStrategy,2023.2.3,MacIntel,55.55555556,5,1,10,0.098214286,-0.288392857,1,0,0,1.166,Diorite_08,3,08,2,5,1.166,0.358035714,-0.254464286,1,0,0,1.404,Gabbro_rect,4,1.404,0,9,0,9,0,1,,,,,,,,,,,,,
662949dcb3c06ccdd7352db5,SCN,2024-06-26_13h35.31.114,LearnStrategy,2023.2.3,MacIntel,55.55555556,5,1,11,0.119642857,-0.441071429,1,0,0,0.952,Andesite_02,1,02,1,5,0.952,-0.373214286,-0.247321429,1,0,0,1.616,Andesite_rect,1,1.616,1,10,0,10,0,1,,,,,,,,,,,,,
662949dcb3c06ccdd7352db5,SCN,2024-06-26_13h35.31.114,LearnStrategy,2023.2.3,MacIntel,55.55555556,5,1,12,-0.201785714,-0.413392857,1,0,0,1,Gabbro_11,4,11,1,3,1,0.180357143,-0.39375,1,0,0,2.902,Peridotite_rect,7,2.902,0,11,0,11,0,1,,,,,,,,,,,,,
662949dcb3c06ccdd7352db5,SCN,2024-06-26_13h35.31.114,LearnStrategy,2023.2.3,MacIntel,55.55555556,5,1,13,-0.559821429,0.1,1,0,0,1.599,Diorite_15,3,15,4,1,1.599,0.178571429,-0.246428571,1,0,0,1.802,Diorite_rect,3,1.802,1,12,0,12,0,1,,,,,,,,,,,,,
662949dcb3c06ccdd7352db5,SCN,2024-06-26_13h35.31.114,LearnStrategy,2023.2.3,MacIntel,55.55555556,5,1,14,-0.375892857,0.1375,1,0,0,1.283,Basalt_01,2,01,4,2,1.283,-0.053571429,-0.259821429,1,0,0,1.037,Basalt_rect,2,1.037,1,13,0,13,0,1,,,,,,,,,,,,,
662949dcb3c06ccdd7352db5,SCN,2024-06-26_13h35.31.114,LearnStrategy,2023.2.3,MacIntel,55.55555556,5,1,15,-0.522321429,0.249107143,1,0,0,0.883,Pumice_03,8,03,5,1,0.883,0.461607143,-0.396428571,1,0,0,1.353,Pumice_rect,8,1.353,1,14,0,14,0,1,,,,,,,,,,,,,
662949dcb3c06ccdd7352db5,SCN,2024-06-26_13h35.31.114,LearnStrategy,2023.2.3,MacIntel,55.55555556,5,1,16,-0.566964286,-0.223214286,1,0,0,1.399,Peridotite_14,7,14,2,1,1.399,0.160714286,-0.257142857,1,0,0,2.247,Diorite_rect,3,2.247,0,15,0,15,0,1,,,,,,,,,,,,,
662949dcb3c06ccdd7352db5,SCN,2024-06-26_13h35.31.114,LearnStrategy,2023.2.3,MacIntel,55.55555556,5,2,1,,,,,,,,5,16,,,,,,,,,,,5,4.689,1,,,,,,-0.353571429,-0.397321429,1,0,0,4.689,Obsidian_rect,0,0,0,0,1,
662949dcb3c06ccdd7352db5,SCN,2024-06-26_13h35.31.114,LearnStrategy,2023.2.3,MacIntel,55.55555556,5,2,2,,,,,,,,7,12,,,,,,,,,,,7,4.701,1,,,,,,0.172321429,-0.41875,1,0,0,4.701,Peridotite_rect,1,0,1,0,1,
662949dcb3c06ccdd7352db5,SCN,2024-06-26_13h35.31.114,LearnStrategy,2023.2.3,MacIntel,55.55555556,5,2,3,,,,,,,,6,06,,,,,,,,,,,6,3.542,1,,,,,,-0.054464286,-0.408035714,1,0,0,3.542,Pegmatite_rect,2,0,2,0,1,
662949dcb3c06ccdd7352db5,SCN,2024-06-26_13h35.31.114,LearnStrategy,2023.2.3,MacIntel,55.55555556,5,2,4,,,,,,,,5,04,,,,,,,,,,,5,1.024,1,,,,,,-0.374107143,-0.394642857,1,0,0,1.024,Obsidian_rect,3,0,3,0,1,
662949dcb3c06ccdd7352db5,SCN,2024-06-26_13h35.31.114,LearnStrategy,2023.2.3,MacIntel,55.55555556,5,2,5,,,,,,,,4,15,,,,,,,,,,,3,4.168,0,,,,,,0.089285714,-0.235714286,1,0,0,4.168,Diorite_rect,4,0,4,0,1,
662949dcb3c06ccdd7352db5,SCN,2024-06-26_13h35.31.114,LearnStrategy,2023.2.3,MacIntel,55.55555556,5,2,6,,,,,,,,8,04,,,,,,,,,,,8,1.698,1,,,,,,0.444642857,-0.409821429,1,0,0,1.698,Pumice_rect,5,0,5,0,1,
662949dcb3c06ccdd7352db5,SCN,2024-06-26_13h35.31.114,LearnStrategy,2023.2.3,MacIntel,55.55555556,5,2,7,,,,,,,,3,16,,,,,,,,,,,3,5.82,1,,,,,,0.175,-0.257142857,1,0,0,5.82,Diorite_rect,6,0,6,0,1,
662949dcb3c06ccdd7352db5,SCN,2024-06-26_13h35.31.114,LearnStrategy,2023.2.3,MacIntel,55.55555556,5,2,8,,,,,,,,4,13,,,,,,,,,,,7,5.596,0,,,,,,0.138392857,-0.4,1,0,0,5.596,Peridotite_rect,7,0,7,0,1,
662949dcb3c06ccdd7352db5,SCN,2024-06-26_13h35.31.114,LearnStrategy,2023.2.3,MacIntel,55.55555556,5,2,9,,,,,,,,8,05,,,,,,,,,,,8,1.498,1,,,,,,0.339285714,-0.391071429,1,0,0,1.498,Pumice_rect,8,0,8,0,1,
662949dcb3c06ccdd7352db5,SCN,2024-06-26_13h35.31.114,LearnStrategy,2023.2.3,MacIntel,55.55555556,5,2,10,,,,,,,,2,16,,,,,,,,,,,2,3.549,1,,,,,,-0.08125,-0.2625,1,0,0,3.549,Basalt_rect,9,0,9,0,1,
662949dcb3c06ccdd7352db5,SCN,2024-06-26_13h35.31.114,LearnStrategy,2023.2.3,MacIntel,55.55555556,5,2,11,,,,,,,,3,14,,,,,,,,,,,3,3.632,1,,,,,,0.127678571,-0.240178571,1,0,0,3.632,Diorite_rect,10,0,10,0,1,
662949dcb3c06ccdd7352db5,SCN,2024-06-26_13h35.31.114,LearnStrategy,2023.2.3,MacIntel,55.55555556,5,2,12,,,,,,,,1,11,,,,,,,,,,,1,2.799,1,,,,,,-0.354464286,-0.245535714,1,0,0,2.799,Andesite_rect,11,0,11,0,1,
662949dcb3c06ccdd7352db5,SCN,2024-06-26_13h35.31.114,LearnStrategy,2023.2.3,MacIntel,55.55555556,5,2,13,,,,,,,,7,04,,,,,,,,,,,3,3.96,0,,,,,,0.169642857,-0.258035714,1,0,0,3.96,Diorite_rect,12,0,12,0,1,
662949dcb3c06ccdd7352db5,SCN,2024-06-26_13h35.31.114,LearnStrategy,2023.2.3,MacIntel,55.55555556,5,2,14,,,,,,,,6,11,,,,,,,,,,,6,4.951,1,,,,,,-0.115178571,-0.403571429,1,0,0,4.951,Pegmatite_rect,13,0,13,0,1,
662949dcb3c06ccdd7352db5,SCN,2024-06-26_13h35.31.114,LearnStrategy,2023.2.3,MacIntel,55.55555556,5,2,15,,,,,,,,2,05,,,,,,,,,,,2,1.885,1,,,,,,-0.095535714,-0.261607143,1,0,0,1.885,Basalt_rect,14,0,14,0,1,
662949dcb3c06ccdd7352db5,SCN,2024-06-26_13h35.31.114,LearnStrategy,2023.2.3,MacIntel,55.55555556,5,2,16,,,,,,,,1,03,,,,,,,,,,,1,6.426,1,,,,,,-0.33125,-0.25625,1,0,0,6.426,Andesite_rect,15,0,15,0,1,
662949dcb3c06ccdd7352db5,SCN,2024-06-26_13h35.31.114,LearnStrategy,2023.2.3,MacIntel,55.55555556,6,1,1,-0.375892857,0.078571429,1,0,0,0.898,Basalt_01,2,01,4,2,0.898,-0.15625,-0.258928571,1,0,0,1.257,Basalt_rect,2,1.257,1,0,0,0,0,1,,,,,,,,,,,,,
662949dcb3c06ccdd7352db5,SCN,2024-06-26_13h35.31.114,LearnStrategy,2023.2.3,MacIntel,55.55555556,6,1,2,-0.566071429,0.097321429,1,0,0,1.083,Diorite_15,3,15,4,1,1.083,0.166071429,-0.257142857,1,0,0,2.623,Diorite_rect,3,2.623,1,1,0,1,0,1,,,,,,,,,,,,,
662949dcb3c06ccdd7352db5,SCN,2024-06-26_13h35.31.114,LearnStrategy,2023.2.3,MacIntel,55.55555556,6,1,3,0.544642857,-0.394642857,1,0,0,2.248,Pegmatite_05,6,05,1,8,2.248,-0.070535714,-0.392857143,1,0,0,1.792,Pegmatite_rect,6,1.792,1,2,0,2,0,1,,,,,,,,,,,,,
662949dcb3c06ccdd7352db5,SCN,2024-06-26_13h35.31.114,LearnStrategy,2023.2.3,MacIntel,55.55555556,6,1,4,-0.371428571,-0.247321429,1,0,0,1.266,Basalt_14,2,14,2,2,1.266,0.461607143,-0.3875,1,0,0,1.554,Pumice_rect,8,1.554,0,3,0,3,0,1,,,,,,,,,,,,,
662949dcb3c06ccdd7352db5,SCN,2024-06-26_13h35.31.114,LearnStrategy,2023.2.3,MacIntel,55.55555556,6,1,5,-0.408928571,-0.425,1,0,0,1.5,Pegmatite_15,6,15,1,2,1.5,-0.080357143,-0.379464286,1,0,0,0.628,Pegmatite_rect,6,0.628,1,4,0,4,0,1,,,,,,,,,,,,,
662949dcb3c06ccdd7352db5,SCN,2024-06-26_13h35.31.114,LearnStrategy,2023.2.3,MacIntel,55.55555556,6,1,6,0.08125,-0.245535714,1,0,0,1.117,Diorite_08,3,08,2,5,1.117,0.394642857,-0.244642857,1,0,0,0.837,Gabbro_rect,4,0.837,0,5,0,5,0,1,,,,,,,,,,,,,
662949dcb3c06ccdd7352db5,SCN,2024-06-26_13h35.31.114,LearnStrategy,2023.2.3,MacIntel,55.55555556,6,1,7,-0.054464286,0.266071429,1,0,0,1.05,Andesite_06,1,06,5,4,1.05,-0.35,-0.244642857,1,0,0,1.245,Andesite_rect,1,1.245,1,6,0,6,0,1,,,,,,,,,,,,,
662949dcb3c06ccdd7352db5,SCN,2024-06-26_13h35.31.114,LearnStrategy,2023.2.3,MacIntel,55.55555556,6,1,8,0.1,0.109821429,1,0,0,1.015,Pegmatite_03,6,03,4,5,1.015,-0.130357143,-0.38125,1,0,0,1.134,Pegmatite_rect,6,1.134,1,7,0,7,0,1,,,,,,,,,,,,,
662949dcb3c06ccdd7352db5,SCN,2024-06-26_13h35.31.114,LearnStrategy,2023.2.3,MacIntel,55.55555556,6,1,9,0.083928571,-0.107142857,1,0,0,0.665,Pegmatite_08,6,08,3,5,0.665,-0.075892857,-0.396428571,1,0,0,0.976,Pegmatite_rect,6,0.976,1,8,0,8,0,1,,,,,,,,,,,,,
662949dcb3c06ccdd7352db5,SCN,2024-06-26_13h35.31.114,LearnStrategy,2023.2.3,MacIntel,55.55555556,6,1,10,0.221428571,-0.102678571,1,0,0,0.732,Peridotite_16,7,16,3,6,0.732,0.183928571,-0.248214286,1,0,0,2.097,Diorite_rect,3,2.097,0,9,0,9,0,1,,,,,,,,,,,,,
662949dcb3c06ccdd7352db5,SCN,2024-06-26_13h35.31.114,LearnStrategy,2023.2.3,MacIntel,55.55555556,6,1,11,0.416071429,-0.239285714,1,0,0,0.784,Obsidian_02,5,02,2,7,0.784,-0.294642857,-0.400892857,1,0,0,1.184,Obsidian_rect,5,1.184,1,10,0,10,0,1,,,,,,,,,,,,,
662949dcb3c06ccdd7352db5,SCN,2024-06-26_13h35.31.114,LearnStrategy,2023.2.3,MacIntel,55.55555556,6,1,12,0.089285714,-0.116964286,1,0,0,1.764,Pegmatite_08,6,08,3,5,1.764,-0.091964286,-0.419642857,1,0,0,0.793,Pegmatite_rect,6,0.793,1,11,0,11,0,1,,,,,,,,,,,,,
662949dcb3c06ccdd7352db5,SCN,2024-06-26_13h35.31.114,LearnStrategy,2023.2.3,MacIntel,55.55555556,6,1,13,0.40625,0.38125,1,0,0,3.648,Andesite_01,1,01,6,7,3.648,-0.3625,-0.25625,1,0,0,1.599,Andesite_rect,1,1.599,1,12,0,12,0,1,,,,,,,,,,,,,
662949dcb3c06ccdd7352db5,SCN,2024-06-26_13h35.31.114,LearnStrategy,2023.2.3,MacIntel,55.55555556,6,1,14,-0.222321429,0.221428571,1,0,0,0.833,Gabbro_14,4,14,5,3,0.833,0.141964286,-0.397321429,1,0,0,1.772,Peridotite_rect,7,1.772,0,13,0,13,0,1,,,,,,,,,,,,,
662949dcb3c06ccdd7352db5,SCN,2024-06-26_13h35.31.114,LearnStrategy,2023.2.3,MacIntel,55.55555556,6,1,15,-0.367857143,-0.06875,1,0,0,5.764,Peridotite_07,7,07,3,2,5.764,0.411607143,-0.25,1,0,0,1.265,Gabbro_rect,4,1.265,0,14,0,14,0,1,,,,,,,,,,,,,
662949dcb3c06ccdd7352db5,SCN,2024-06-26_13h35.31.114,LearnStrategy,2023.2.3,MacIntel,55.55555556,6,1,16,-0.230357143,-0.271428571,1,0,0,1.217,Diorite_09,3,09,2,3,1.217,0.403571429,-0.228571429,1,0,0,1.019,Gabbro_rect,4,1.019,0,15,0,15,0,1,,,,,,,,,,,,,
662949dcb3c06ccdd7352db5,SCN,2024-06-26_13h35.31.114,LearnStrategy,2023.2.3,MacIntel,55.55555556,6,2,1,,,,,,,,3,12,,,,,,,,,,,3,3.666,1,,,,,,0.199107143,-0.244642857,1,0,0,3.666,Diorite_rect,0,0,0,0,1,
662949dcb3c06ccdd7352db5,SCN,2024-06-26_13h35.31.114,LearnStrategy,2023.2.3,MacIntel,55.55555556,6,2,2,,,,,,,,7,15,,,,,,,,,,,6,1.916,0,,,,,,-0.089285714,-0.410714286,1,0,0,1.916,Pegmatite_rect,1,0,1,0,1,
662949dcb3c06ccdd7352db5,SCN,2024-06-26_13h35.31.114,LearnStrategy,2023.2.3,MacIntel,55.55555556,6,2,3,,,,,,,,1,14,,,,,,,,,,,1,2.045,1,,,,,,-0.333035714,-0.247321429,1,0,0,2.045,Andesite_rect,2,0,2,0,1,
662949dcb3c06ccdd7352db5,SCN,2024-06-26_13h35.31.114,LearnStrategy,2023.2.3,MacIntel,55.55555556,6,2,4,,,,,,,,7,05,,,,,,,,,,,6,2.123,0,,,,,,-0.134821429,-0.410714286,1,0,0,2.123,Pegmatite_rect,3,0,3,0,1,
662949dcb3c06ccdd7352db5,SCN,2024-06-26_13h35.31.114,LearnStrategy,2023.2.3,MacIntel,55.55555556,6,2,5,,,,,,,,6,07,,,,,,,,,,,7,1.694,0,,,,,,0.103571429,-0.408035714,1,0,0,1.694,Peridotite_rect,4,0,4,0,1,
662949dcb3c06ccdd7352db5,SCN,2024-06-26_13h35.31.114,LearnStrategy,2023.2.3,MacIntel,55.55555556,6,2,6,,,,,,,,2,02,,,,,,,,,,,2,2.403,1,,,,,,-0.082142857,-0.258035714,1,0,0,2.403,Basalt_rect,5,0,5,0,1,
662949dcb3c06ccdd7352db5,SCN,2024-06-26_13h35.31.114,LearnStrategy,2023.2.3,MacIntel,55.55555556,6,2,7,,,,,,,,8,13,,,,,,,,,,,8,2.435,1,,,,,,0.350892857,-0.397321429,1,0,0,2.435,Pumice_rect,6,0,6,0,1,
662949dcb3c06ccdd7352db5,SCN,2024-06-26_13h35.31.114,LearnStrategy,2023.2.3,MacIntel,55.55555556,6,2,8,,,,,,,,4,10,,,,,,,,,,,2,2.134,0,,,,,,-0.111607143,-0.244642857,1,0,0,2.134,Basalt_rect,7,0,7,0,1,
662949dcb3c06ccdd7352db5,SCN,2024-06-26_13h35.31.114,LearnStrategy,2023.2.3,MacIntel,55.55555556,6,2,9,,,,,,,,5,12,,,,,,,,,,,5,1.27,1,,,,,,-0.389285714,-0.399107143,1,0,0,1.27,Obsidian_rect,8,0,8,0,1,
662949dcb3c06ccdd7352db5,SCN,2024-06-26_13h35.31.114,LearnStrategy,2023.2.3,MacIntel,55.55555556,6,2,10,,,,,,,,5,08,,,,,,,,,,,5,0.902,1,,,,,,-0.389285714,-0.399107143,1,0,0,0.902,Obsidian_rect,9,0,9,0,1,
662949dcb3c06ccdd7352db5,SCN,2024-06-26_13h35.31.114,LearnStrategy,2023.2.3,MacIntel,55.55555556,6,2,11,,,,,,,,8,10,,,,,,,,,,,8,2.597,1,,,,,,0.355357143,-0.411607143,1,0,0,2.597,Pumice_rect,10,0,10,0,1,
662949dcb3c06ccdd7352db5,SCN,2024-06-26_13h35.31.114,LearnStrategy,2023.2.3,MacIntel,55.55555556,6,2,12,,,,,,,,2,12,,,,,,,,,,,8,1.076,0,,,,,,0.355357143,-0.411607143,1,0,0,1.076,Pumice_rect,11,0,11,0,1,
662949dcb3c06ccdd7352db5,SCN,2024-06-26_13h35.31.114,LearnStrategy,2023.2.3,MacIntel,55.55555556,6,2,13,,,,,,,,4,03,,,,,,,,,,,4,6.95,1,,,,,,0.413392857,-0.261607143,1,0,0,6.95,Gabbro_rect,12,0,12,0,1,
662949dcb3c06ccdd7352db5,SCN,2024-06-26_13h35.31.114,LearnStrategy,2023.2.3,MacIntel,55.55555556,6,2,14,,,,,,,,1,05,,,,,,,,,,,1,1.72,1,,,,,,-0.310714286,-0.255357143,1,0,0,1.72,Andesite_rect,13,0,13,0,1,
662949dcb3c06ccdd7352db5,SCN,2024-06-26_13h35.31.114,LearnStrategy,2023.2.3,MacIntel,55.55555556,6,2,15,,,,,,,,6,12,,,,,,,,,,,6,6.551,1,,,,,,-0.080357143,-0.41875,1,0,0,6.551,Pegmatite_rect,14,0,14,0,1,
662949dcb3c06ccdd7352db5,SCN,2024-06-26_13h35.31.114,LearnStrategy,2023.2.3,MacIntel,55.55555556,6,2,16,,,,,,,,3,11,,,,,,,,,,,3,4.508,1,,,,,,0.147321429,-0.257142857,1,0,0,4.508,Diorite_rect,15,0,15,0,1,
662949dcb3c06ccdd7352db5,SCN,2024-06-26_13h35.31.114,LearnStrategy,2023.2.3,MacIntel,55.55555556,7,1,1,0.091964286,0.144642857,1,0,0,0.549,Pegmatite_03,6,03,4,5,0.549,-0.095535714,-0.421428571,1,0,0,3.642,Pegmatite_rect,6,3.642,1,0,0,0,0,1,,,,,,,,,,,,,
662949dcb3c06ccdd7352db5,SCN,2024-06-26_13h35.31.114,LearnStrategy,2023.2.3,MacIntel,55.55555556,7,1,2,0.290178571,0.078571429,1,0,0,0.898,Gabbro_08,4,08,4,6,0.898,0.175,-0.260714286,1,0,0,2.225,Diorite_rect,3,2.225,0,1,0,1,0,1,,,,,,,,,,,,,
662949dcb3c06ccdd7352db5,SCN,2024-06-26_13h35.31.114,LearnStrategy,2023.2.3,MacIntel,55.55555556,7,1,3,0.410714286,-0.097321429,1,0,0,0.899,Gabbro_12,4,12,3,7,0.899,0.40625,-0.241071429,1,0,0,1.694,Gabbro_rect,4,1.694,1,2,0,2,0,1,,,,,,,,,,,,,
662949dcb3c06ccdd7352db5,SCN,2024-06-26_13h35.31.114,LearnStrategy,2023.2.3,MacIntel,55.55555556,7,1,4,0.560714286,-0.249107143,1,0,0,1.066,Andesite_07,1,07,2,8,1.066,-0.458928571,-0.2375,1,0,0,1.092,Andesite_rect,1,1.092,1,3,0,3,0,1,,,,,,,,,,,,,
662949dcb3c06ccdd7352db5,SCN,2024-06-26_13h35.31.114,LearnStrategy,2023.2.3,MacIntel,55.55555556,7,1,5,0.397321429,-0.405357143,1,0,0,0.966,Gabbro_01,4,01,1,7,0.966,0.40625,-0.235714286,1,0,0,1.394,Gabbro_rect,4,1.394,1,4,0,4,0,1,,,,,,,,,,,,,
662949dcb3c06ccdd7352db5,SCN,2024-06-26_13h35.31.114,LearnStrategy,2023.2.3,MacIntel,55.55555556,7,1,6,0.099107143,-0.116071429,1,0,0,1.548,Pegmatite_08,6,08,3,5,1.548,-0.117857143,-0.414285714,1,0,0,0.79,Pegmatite_rect,6,0.79,1,5,0,5,0,1,,,,,,,,,,,,,
662949dcb3c06ccdd7352db5,SCN,2024-06-26_13h35.31.114,LearnStrategy,2023.2.3,MacIntel,55.55555556,7,1,7,0.073214286,0.258928571,1,0,0,1.282,Peridotite_02,7,02,5,5,1.282,-0.116071429,-0.421428571,1,0,0,1.6,Pegmatite_rect,6,1.6,0,6,0,6,0,1,,,,,,,,,,,,,
662949dcb3c06ccdd7352db5,SCN,2024-06-26_13h35.31.114,LearnStrategy,2023.2.3,MacIntel,55.55555556,7,1,8,-0.221428571,-0.139285714,1,0,0,3.333,Pumice_08,8,08,3,3,3.333,0.429464286,-0.408928571,1,0,0,1.227,Pumice_rect,8,1.227,1,7,0,7,0,1,,,,,,,,,,,,,
662949dcb3c06ccdd7352db5,SCN,2024-06-26_13h35.31.114,LearnStrategy,2023.2.3,MacIntel,55.55555556,7,1,9,-0.374107143,-0.077678571,1,0,0,1.4,Peridotite_07,7,07,3,2,1.4,0.365178571,-0.239285714,1,0,0,2.805,Gabbro_rect,4,2.805,0,8,0,8,0,1,,,,,,,,,,,,,
662949dcb3c06ccdd7352db5,SCN,2024-06-26_13h35.31.114,LearnStrategy,2023.2.3,MacIntel,55.55555556,7,1,10,-0.067857143,-0.277678571,1,0,0,1.383,Obsidian_14,5,14,2,4,1.383,-0.347321429,-0.3875,1,0,0,0.881,Obsidian_rect,5,0.881,1,9,0,9,0,1,,,,,,,,,,,,,
662949dcb3c06ccdd7352db5,SCN,2024-06-26_13h35.31.114,LearnStrategy,2023.2.3,MacIntel,55.55555556,7,1,11,-0.535714286,0.110714286,1,0,0,1.165,Diorite_15,3,15,4,1,1.165,0.150892857,-0.229464286,1,0,0,1.748,Diorite_rect,3,1.748,1,10,0,10,0,1,,,,,,,,,,,,,
662949dcb3c06ccdd7352db5,SCN,2024-06-26_13h35.31.114,LearnStrategy,2023.2.3,MacIntel,55.55555556,7,1,12,-0.522321429,-0.279464286,1,0,0,1.865,Peridotite_14,7,14,2,1,1.865,0.065178571,-0.408928571,1,0,0,3.348,Peridotite_rect,7,3.348,1,11,0,11,0,1,,,,,,,,,,,,,
662949dcb3c06ccdd7352db5,SCN,2024-06-26_13h35.31.114,LearnStrategy,2023.2.3,MacIntel,55.55555556,7,1,13,-0.379464286,-0.288392857,1,0,0,3.682,Basalt_14,2,14,2,2,3.682,-0.191964286,-0.241964286,1,0,0,1.755,Basalt_rect,2,1.755,1,12,0,12,0,1,,,,,,,,,,,,,
662949dcb3c06ccdd7352db5,SCN,2024-06-26_13h35.31.114,LearnStrategy,2023.2.3,MacIntel,55.55555556,7,1,14,0.564285714,-0.242857143,1,0,0,1.149,Andesite_07,1,07,2,8,1.149,-0.404464286,-0.234821429,1,0,0,1.094,Andesite_rect,1,1.094,1,13,0,13,0,1,,,,,,,,,,,,,
662949dcb3c06ccdd7352db5,SCN,2024-06-26_13h35.31.114,LearnStrategy,2023.2.3,MacIntel,55.55555556,7,1,15,0.3875,0.269642857,1,0,0,1.349,Basalt_11,2,11,5,7,1.349,0.34375,-0.392857143,1,0,0,3.27,Pumice_rect,8,3.27,0,14,0,14,0,1,,,,,,,,,,,,,
662949dcb3c06ccdd7352db5,SCN,2024-06-26_13h35.31.114,LearnStrategy,2023.2.3,MacIntel,55.55555556,7,1,16,-0.05625,0.270535714,1,0,0,1.134,Andesite_06,1,06,5,4,1.134,-0.385714286,-0.242857143,1,0,0,1.563,Andesite_rect,1,1.563,1,15,0,15,0,1,,,,,,,,,,,,,
662949dcb3c06ccdd7352db5,SCN,2024-06-26_13h35.31.114,LearnStrategy,2023.2.3,MacIntel,55.55555556,7,2,1,,,,,,,,2,16,,,,,,,,,,,2,6.661,1,,,,,,-0.134821429,-0.264285714,1,0,0,6.661,Basalt_rect,0,0,0,0,1,
662949dcb3c06ccdd7352db5,SCN,2024-06-26_13h35.31.114,LearnStrategy,2023.2.3,MacIntel,55.55555556,7,2,2,,,,,,,,8,13,,,,,,,,,,,8,1.953,1,,,,,,0.434821429,-0.4125,1,0,0,1.953,Pumice_rect,1,0,1,0,1,
662949dcb3c06ccdd7352db5,SCN,2024-06-26_13h35.31.114,LearnStrategy,2023.2.3,MacIntel,55.55555556,7,2,3,,,,,,,,1,14,,,,,,,,,,,4,4.358,0,,,,,,0.421428571,-0.251785714,1,0,0,4.358,Gabbro_rect,2,0,2,0,1,
662949dcb3c06ccdd7352db5,SCN,2024-06-26_13h35.31.114,LearnStrategy,2023.2.3,MacIntel,55.55555556,7,2,4,,,,,,,,8,02,,,,,,,,,,,8,1.846,1,,,,,,0.405357143,-0.416071429,1,0,0,1.846,Pumice_rect,3,0,3,0,1,
662949dcb3c06ccdd7352db5,SCN,2024-06-26_13h35.31.114,LearnStrategy,2023.2.3,MacIntel,55.55555556,7,2,5,,,,,,,,3,14,,,,,,,,,,,3,4.478,1,,,,,,0.083035714,-0.266071429,1,0,0,4.478,Diorite_rect,4,0,4,0,1,
662949dcb3c06ccdd7352db5,SCN,2024-06-26_13h35.31.114,LearnStrategy,2023.2.3,MacIntel,55.55555556,7,2,6,,,,,,,,1,16,,,,,,,,,,,4,4.286,0,,,,,,0.365178571,-0.258035714,1,0,0,4.286,Gabbro_rect,5,0,5,0,1,
662949dcb3c06ccdd7352db5,SCN,2024-06-26_13h35.31.114,LearnStrategy,2023.2.3,MacIntel,55.55555556,7,2,7,,,,,,,,5,08,,,,,,,,,,,5,2.06,1,,,,,,-0.447321429,-0.409821429,1,0,0,2.06,Obsidian_rect,6,0,6,0,1,
662949dcb3c06ccdd7352db5,SCN,2024-06-26_13h35.31.114,LearnStrategy,2023.2.3,MacIntel,55.55555556,7,2,8,,,,,,,,7,06,,,,,,,,,,,6,3.394,0,,,,,,-0.173214286,-0.414285714,1,0,0,3.394,Pegmatite_rect,7,0,7,0,1,
662949dcb3c06ccdd7352db5,SCN,2024-06-26_13h35.31.114,LearnStrategy,2023.2.3,MacIntel,55.55555556,7,2,9,,,,,,,,3,16,,,,,,,,,,,3,2.389,1,,,,,,0.129464286,-0.261607143,1,0,0,2.389,Diorite_rect,8,0,8,0,1,
662949dcb3c06ccdd7352db5,SCN,2024-06-26_13h35.31.114,LearnStrategy,2023.2.3,MacIntel,55.55555556,7,2,10,,,,,,,,6,11,,,,,,,,,,,6,2.914,1,,,,,,-0.097321429,-0.41875,1,0,0,2.914,Pegmatite_rect,9,0,9,0,1,
662949dcb3c06ccdd7352db5,SCN,2024-06-26_13h35.31.114,LearnStrategy,2023.2.3,MacIntel,55.55555556,7,2,11,,,,,,,,6,07,,,,,,,,,,,6,1.151,1,,,,,,-0.094642857,-0.419642857,1,0,0,1.151,Pegmatite_rect,10,0,10,0,1,
662949dcb3c06ccdd7352db5,SCN,2024-06-26_13h35.31.114,LearnStrategy,2023.2.3,MacIntel,55.55555556,7,2,12,,,,,,,,5,07,,,,,,,,,,,5,1.097,1,,,,,,-0.351785714,-0.403571429,1,0,0,1.097,Obsidian_rect,11,0,11,0,1,
662949dcb3c06ccdd7352db5,SCN,2024-06-26_13h35.31.114,LearnStrategy,2023.2.3,MacIntel,55.55555556,7,2,13,,,,,,,,4,03,,,,,,,,,,,4,3.017,1,,,,,,0.397321429,-0.2625,1,0,0,3.017,Gabbro_rect,12,0,12,0,1,
662949dcb3c06ccdd7352db5,SCN,2024-06-26_13h35.31.114,LearnStrategy,2023.2.3,MacIntel,55.55555556,7,2,14,,,,,,,,7,12,,,,,,,,,,,3,1.687,0,,,,,,0.169642857,-0.258035714,1,0,0,1.687,Diorite_rect,13,0,13,0,1,
662949dcb3c06ccdd7352db5,SCN,2024-06-26_13h35.31.114,LearnStrategy,2023.2.3,MacIntel,55.55555556,7,2,15,,,,,,,,2,02,,,,,,,,,,,2,1.563,1,,,,,,-0.130357143,-0.255357143,1,0,0,1.563,Basalt_rect,14,0,14,0,1,
662949dcb3c06ccdd7352db5,SCN,2024-06-26_13h35.31.114,LearnStrategy,2023.2.3,MacIntel,55.55555556,7,2,16,,,,,,,,4,15,,,,,,,,,,,4,3.079,1,,,,,,0.372321429,-0.252678571,1,0,0,3.079,Gabbro_rect,15,0,15,0,1,
662949dcb3c06ccdd7352db5,SCN,2024-06-26_13h35.31.114,LearnStrategy,2023.2.3,MacIntel,55.55555556,8,1,1,-0.404464286,0.239285714,1,0,0,2.082,Gabbro_09,4,09,5,2,2.082,0.442857143,-0.267857143,1,0,0,1.953,Gabbro_rect,4,1.953,1,0,0,0,0,1,,,,,,,,,,,,,
662949dcb3c06ccdd7352db5,SCN,2024-06-26_13h35.31.114,LearnStrategy,2023.2.3,MacIntel,55.55555556,8,1,2,-0.234821429,0.108035714,1,0,0,0.832,Diorite_06,3,06,4,3,0.832,0.120535714,-0.232142857,1,0,0,2.045,Diorite_rect,3,2.045,1,1,0,1,0,1,,,,,,,,,,,,,
662949dcb3c06ccdd7352db5,SCN,2024-06-26_13h35.31.114,LearnStrategy,2023.2.3,MacIntel,55.55555556,8,1,3,-0.360714286,0.091071429,1,0,0,1.033,Basalt_01,2,01,4,2,1.033,-0.105357143,-0.246428571,1,0,0,1.486,Basalt_rect,2,1.486,1,2,0,2,0,1,,,,,,,,,,,,,
662949dcb3c06ccdd7352db5,SCN,2024-06-26_13h35.31.114,LearnStrategy,2023.2.3,MacIntel,55.55555556,8,1,4,-0.224107143,0.250892857,1,0,0,0.95,Gabbro_14,4,14,5,3,0.95,0.403571429,-0.234821429,1,0,0,1.698,Gabbro_rect,4,1.698,1,3,0,3,0,1,,,,,,,,,,,,,
662949dcb3c06ccdd7352db5,SCN,2024-06-26_13h35.31.114,LearnStrategy,2023.2.3,MacIntel,55.55555556,8,1,5,-0.439285714,-0.080357143,1,0,0,1.016,Peridotite_07,7,07,3,2,1.016,0.140178571,-0.416071429,1,0,0,2.136,Peridotite_rect,7,2.136,1,4,0,4,0,1,,,,,,,,,,,,,
662949dcb3c06ccdd7352db5,SCN,2024-06-26_13h35.31.114,LearnStrategy,2023.2.3,MacIntel,55.55555556,8,1,6,0.371428571,0.372321429,1,0,0,1.583,Andesite_01,1,01,6,7,1.583,-0.398214286,-0.2625,1,0,0,1.438,Andesite_rect,1,1.438,1,5,0,5,0,1,,,,,,,,,,,,,
662949dcb3c06ccdd7352db5,SCN,2024-06-26_13h35.31.114,LearnStrategy,2023.2.3,MacIntel,55.55555556,8,1,7,-0.408928571,-0.419642857,1,0,0,0.782,Pegmatite_15,6,15,1,2,0.782,-0.159821429,-0.397321429,1,0,0,1.58,Pegmatite_rect,6,1.58,1,6,0,6,0,1,,,,,,,,,,,,,
662949dcb3c06ccdd7352db5,SCN,2024-06-26_13h35.31.114,LearnStrategy,2023.2.3,MacIntel,55.55555556,8,1,8,-0.520535714,-0.269642857,1,0,0,1.399,Peridotite_14,7,14,2,1,1.399,0.111607143,-0.400892857,1,0,0,1.574,Peridotite_rect,7,1.574,1,7,0,7,0,1,,,,,,,,,,,,,
662949dcb3c06ccdd7352db5,SCN,2024-06-26_13h35.31.114,LearnStrategy,2023.2.3,MacIntel,55.55555556,8,1,9,0.546428571,-0.409821429,1,0,0,0.966,Pegmatite_05,6,05,1,8,0.966,-0.116964286,-0.415178571,1,0,0,1.916,Pegmatite_rect,6,1.916,1,8,0,8,0,1,,,,,,,,,,,,,
662949dcb3c06ccdd7352db5,SCN,2024-06-26_13h35.31.114,LearnStrategy,2023.2.3,MacIntel,55.55555556,8,1,10,0.402678571,-0.125892857,1,0,0,2.333,Gabbro_12,4,12,3,7,2.333,0.413392857,-0.251785714,1,0,0,0.773,Gabbro_rect,4,0.773,1,9,0,9,0,1,,,,,,,,,,,,,
662949dcb3c06ccdd7352db5,SCN,2024-06-26_13h35.31.114,LearnStrategy,2023.2.3,MacIntel,55.55555556,8,1,11,-0.38125,0.11875,1,0,0,1.233,Basalt_01,2,01,4,2,1.233,-0.179464286,-0.24375,1,0,0,1.335,Basalt_rect,2,1.335,1,10,0,10,0,1,,,,,,,,,,,,,
662949dcb3c06ccdd7352db5,SCN,2024-06-26_13h35.31.114,LearnStrategy,2023.2.3,MacIntel,55.55555556,8,1,12,-0.063392857,0.275,1,0,0,0.95,Andesite_06,1,06,5,4,0.95,-0.365178571,-0.244642857,1,0,0,1.211,Andesite_rect,1,1.211,1,11,0,11,0,1,,,,,,,,,,,,,
662949dcb3c06ccdd7352db5,SCN,2024-06-26_13h35.31.114,LearnStrategy,2023.2.3,MacIntel,55.55555556,8,1,13,0.080357143,0.084821429,1,0,0,0.899,Pegmatite_03,6,03,4,5,0.899,-0.13125,-0.405357143,1,0,0,1.124,Pegmatite_rect,6,1.124,1,12,0,12,0,1,,,,,,,,,,,,,
662949dcb3c06ccdd7352db5,SCN,2024-06-26_13h35.31.114,LearnStrategy,2023.2.3,MacIntel,55.55555556,8,1,14,0.08125,-0.395535714,1,0,0,1.233,Andesite_02,1,02,1,5,1.233,0.401785714,-0.246428571,1,0,0,2.47,Gabbro_rect,4,2.47,0,13,0,13,0,1,,,,,,,,,,,,,
662949dcb3c06ccdd7352db5,SCN,2024-06-26_13h35.31.114,LearnStrategy,2023.2.3,MacIntel,55.55555556,8,1,15,-0.253571429,-0.423214286,1,0,0,1.432,Gabbro_11,4,11,1,3,1.432,-0.166071429,-0.250892857,1,0,0,0.799,Basalt_rect,2,0.799,0,14,0,14,0,1,,,,,,,,,,,,,
662949dcb3c06ccdd7352db5,SCN,2024-06-26_13h35.31.114,LearnStrategy,2023.2.3,MacIntel,55.55555556,8,1,16,0.083035714,-0.413392857,1,0,0,2.067,Andesite_02,1,02,1,5,2.067,-0.34375,-0.266071429,1,0,0,1.181,Andesite_rect,1,1.181,1,15,0,15,0,1,,,,,,,,,,,,,
662949dcb3c06ccdd7352db5,SCN,2024-06-26_13h35.31.114,LearnStrategy,2023.2.3,MacIntel,55.55555556,8,2,1,,,,,,,,1,05,,,,,,,,,,,1,1.969,1,,,,,,-0.358035714,-0.233928571,1,0,0,1.969,Andesite_rect,0,0,0,0,1,
662949dcb3c06ccdd7352db5,SCN,2024-06-26_13h35.31.114,LearnStrategy,2023.2.3,MacIntel,55.55555556,8,2,2,,,,,,,,6,12,,,,,,,,,,,6,3.93,1,,,,,,-0.085714286,-0.397321429,1,0,0,3.93,Pegmatite_rect,1,0,1,0,1,
662949dcb3c06ccdd7352db5,SCN,2024-06-26_13h35.31.114,LearnStrategy,2023.2.3,MacIntel,55.55555556,8,2,3,,,,,,,,5,12,,,,,,,,,,,5,1.379,1,,,,,,-0.317857143,-0.400892857,1,0,0,1.379,Obsidian_rect,2,0,2,0,1,
662949dcb3c06ccdd7352db5,SCN,2024-06-26_13h35.31.114,LearnStrategy,2023.2.3,MacIntel,55.55555556,8,2,4,,,,,,,,8,06,,,,,,,,,,,8,1.519,1,,,,,,0.354464286,-0.4125,1,0,0,1.519,Pumice_rect,3,0,3,0,1,
662949dcb3c06ccdd7352db5,SCN,2024-06-26_13h35.31.114,LearnStrategy,2023.2.3,MacIntel,55.55555556,8,2,5,,,,,,,,8,10,,,,,,,,,,,8,1.396,1,,,,,,0.354464286,-0.4125,1,0,0,1.396,Pumice_rect,4,0,4,0,1,
662949dcb3c06ccdd7352db5,SCN,2024-06-26_13h35.31.114,LearnStrategy,2023.2.3,MacIntel,55.55555556,8,2,6,,,,,,,,1,11,,,,,,,,,,,1,3.344,1,,,,,,-0.367857143,-0.248214286,1,0,0,3.344,Andesite_rect,5,0,5,0,1,
662949dcb3c06ccdd7352db5,SCN,2024-06-26_13h35.31.114,LearnStrategy,2023.2.3,MacIntel,55.55555556,8,2,7,,,,,,,,3,11,,,,,,,,,,,3,2.205,1,,,,,,0.158035714,-0.251785714,1,0,0,2.205,Diorite_rect,6,0,6,0,1,
662949dcb3c06ccdd7352db5,SCN,2024-06-26_13h35.31.114,LearnStrategy,2023.2.3,MacIntel,55.55555556,8,2,8,,,,,,,,7,04,,,,,,,,,,,7,5.639,1,,,,,,0.155357143,-0.410714286,1,0,0,5.639,Peridotite_rect,7,0,7,0,1,
662949dcb3c06ccdd7352db5,SCN,2024-06-26_13h35.31.114,LearnStrategy,2023.2.3,MacIntel,55.55555556,8,2,9,,,,,,,,2,05,,,,,,,,,,,2,1.194,1,,,,,,-0.100892857,-0.259821429,1,0,0,1.194,Basalt_rect,8,0,8,0,1,
662949dcb3c06ccdd7352db5,SCN,2024-06-26_13h35.31.114,LearnStrategy,2023.2.3,MacIntel,55.55555556,8,2,10,,,,,,,,3,12,,,,,,,,,,,3,1.852,1,,,,,,0.125892857,-0.263392857,1,0,0,1.852,Diorite_rect,9,0,9,0,1,
662949dcb3c06ccdd7352db5,SCN,2024-06-26_13h35.31.114,LearnStrategy,2023.2.3,MacIntel,55.55555556,8,2,11,,,,,,,,4,10,,,,,,,,,,,4,2.218,1,,,,,,0.358035714,-0.251785714,1,0,0,2.218,Gabbro_rect,10,0,10,0,1,
662949dcb3c06ccdd7352db5,SCN,2024-06-26_13h35.31.114,LearnStrategy,2023.2.3,MacIntel,55.55555556,8,2,12,,,,,,,,7,05,,,,,,,,,,,7,1.702,1,,,,,,0.184821429,-0.40625,1,0,0,1.702,Peridotite_rect,11,0,11,0,1,
662949dcb3c06ccdd7352db5,SCN,2024-06-26_13h35.31.114,LearnStrategy,2023.2.3,MacIntel,55.55555556,8,2,13,,,,,,,,4,16,,,,,,,,,,,4,2.67,1,,,,,,0.385714286,-0.252678571,1,0,0,2.67,Gabbro_rect,12,0,12,0,1,
662949dcb3c06ccdd7352db5,SCN,2024-06-26_13h35.31.114,LearnStrategy,2023.2.3,MacIntel,55.55555556,8,2,14,,,,,,,,6,06,,,,,,,,,,,6,1.425,1,,,,,,-0.121428571,-0.405357143,1,0,0,1.425,Pegmatite_rect,13,0,13,0,1,
662949dcb3c06ccdd7352db5,SCN,2024-06-26_13h35.31.114,LearnStrategy,2023.2.3,MacIntel,55.55555556,8,2,15,,,,,,,,2,10,,,,,,,,,,,2,2.589,1,,,,,,-0.086607143,-0.252678571,1,0,0,2.589,Basalt_rect,14,0,14,0,1,
662949dcb3c06ccdd7352db5,SCN,2024-06-26_13h35.31.114,LearnStrategy,2023.2.3,MacIntel,55.55555556,8,2,16,,,,,,,,5,04,,,,,,,,,,,5,1.302,1,,,,,,-0.345535714,-0.385714286,1,0,0,1.302,Obsidian_rect,15,0,15,0,1,
662949dcb3c06ccdd7352db5,SCN,2024-06-26_13h35.31.114,LearnStrategy,2023.2.3,MacIntel,55.55555556,9,1,1,-0.073214286,-0.066964286,1,0,0,0.717,Pegmatite_16,6,16,3,4,0.717,-0.133035714,-0.402678571,1,0,0,1.213,Pegmatite_rect,6,1.213,1,0,0,0,0,1,,,,,,,,,,,,,
662949dcb3c06ccdd7352db5,SCN,2024-06-26_13h35.31.114,LearnStrategy,2023.2.3,MacIntel,55.55555556,9,1,2,0.086607143,-0.135714286,1,0,0,0.616,Pegmatite_08,6,08,3,5,0.616,-0.115178571,-0.409821429,1,0,0,1.172,Pegmatite_rect,6,1.172,1,1,0,1,0,1,,,,,,,,,,,,,
662949dcb3c06ccdd7352db5,SCN,2024-06-26_13h35.31.114,LearnStrategy,2023.2.3,MacIntel,55.55555556,9,1,3,-0.24375,0.074107143,1,0,0,0.75,Diorite_06,3,06,4,3,0.75,0.126785714,-0.238392857,1,0,0,2.621,Diorite_rect,3,2.621,1,2,0,2,0,1,,,,,,,,,,,,,
662949dcb3c06ccdd7352db5,SCN,2024-06-26_13h35.31.114,LearnStrategy,2023.2.3,MacIntel,55.55555556,9,1,4,0.233928571,-0.098214286,1,0,0,1.432,Peridotite_16,7,16,3,6,1.432,0.141071429,-0.408035714,1,0,0,1.745,Peridotite_rect,7,1.745,1,3,0,3,0,1,,,,,,,,,,,,,
662949dcb3c06ccdd7352db5,SCN,2024-06-26_13h35.31.114,LearnStrategy,2023.2.3,MacIntel,55.55555556,9,1,5,0.572321429,-0.1,1,0,0,1.149,Andesite_10,1,10,3,8,1.149,-0.317857143,-0.233928571,1,0,0,2.096,Andesite_rect,1,2.096,1,4,0,4,0,1,,,,,,,,,,,,,
662949dcb3c06ccdd7352db5,SCN,2024-06-26_13h35.31.114,LearnStrategy,2023.2.3,MacIntel,55.55555556,9,1,6,-0.225892857,0.40625,1,0,0,1.016,Basalt_04,2,04,6,3,1.016,-0.146428571,-0.23125,1,0,0,1.027,Basalt_rect,2,1.027,1,5,0,5,0,1,,,,,,,,,,,,,
662949dcb3c06ccdd7352db5,SCN,2024-06-26_13h35.31.114,LearnStrategy,2023.2.3,MacIntel,55.55555556,9,1,7,0.225,0.0875,1,0,0,3.1,Gabbro_08,4,08,4,6,3.1,0.4125,-0.257142857,1,0,0,2.649,Gabbro_rect,4,2.649,1,6,0,6,0,1,,,,,,,,,,,,,
662949dcb3c06ccdd7352db5,SCN,2024-06-26_13h35.31.114,LearnStrategy,2023.2.3,MacIntel,55.55555556,9,1,8,-0.541071429,-0.289285714,1,0,0,2.466,Peridotite_14,7,14,2,1,2.466,0.082142857,-0.411607143,1,0,0,1.682,Peridotite_rect,7,1.682,1,7,0,7,0,1,,,,,,,,,,,,,
662949dcb3c06ccdd7352db5,SCN,2024-06-26_13h35.31.114,LearnStrategy,2023.2.3,MacIntel,55.55555556,9,1,9,-0.2375,-0.101785714,1,0,0,1.332,Pumice_08,8,08,3,3,1.332,0.433928571,-0.392857143,1,0,0,2.115,Pumice_rect,8,2.115,1,8,0,8,0,1,,,,,,,,,,,,,
662949dcb3c06ccdd7352db5,SCN,2024-06-26_13h35.31.114,LearnStrategy,2023.2.3,MacIntel,55.55555556,9,1,10,-0.411607143,0.247321429,1,0,0,3.3,Gabbro_09,4,09,5,2,3.3,0.391071429,-0.228571429,1,0,0,1.747,Gabbro_rect,4,1.747,1,9,0,9,0,1,,,,,,,,,,,,,
662949dcb3c06ccdd7352db5,SCN,2024-06-26_13h35.31.114,LearnStrategy,2023.2.3,MacIntel,55.55555556,9,1,11,-0.355357143,-0.241071429,1,0,0,1.299,Basalt_14,2,14,2,2,1.299,-0.069642857,-0.26875,1,0,0,3.685,Basalt_rect,2,3.685,1,10,0,10,0,1,,,,,,,,,,,,,
662949dcb3c06ccdd7352db5,SCN,2024-06-26_13h35.31.114,LearnStrategy,2023.2.3,MacIntel,55.55555556,9,1,12,-0.204464286,-0.233035714,1,0,0,1.482,Diorite_09,3,09,2,3,1.482,0.191071429,-0.248214286,1,0,0,1.081,Diorite_rect,3,1.081,1,11,0,11,0,1,,,,,,,,,,,,,
662949dcb3c06ccdd7352db5,SCN,2024-06-26_13h35.31.114,LearnStrategy,2023.2.3,MacIntel,55.55555556,9,1,13,-0.4125,-0.128571429,1,0,0,2.867,Peridotite_07,7,07,3,2,2.867,0.097321429,-0.4125,1,0,0,2.083,Peridotite_rect,7,2.083,1,12,0,12,0,1,,,,,,,,,,,,,
662949dcb3c06ccdd7352db5,SCN,2024-06-26_13h35.31.114,LearnStrategy,2023.2.3,MacIntel,55.55555556,9,1,14,0.561607143,-0.088392857,1,0,0,1.249,Andesite_10,1,10,3,8,1.249,-0.374107143,-0.269642857,1,0,0,1.819,Andesite_rect,1,1.819,1,13,0,13,0,1,,,,,,,,,,,,,
662949dcb3c06ccdd7352db5,SCN,2024-06-26_13h35.31.114,LearnStrategy,2023.2.3,MacIntel,55.55555556,9,1,15,0.584821429,-0.384821429,1,0,0,0.849,Pegmatite_05,6,05,1,8,0.849,-0.049107143,-0.391964286,1,0,0,1.276,Pegmatite_rect,6,1.276,1,14,0,14,0,1,,,,,,,,,,,,,
662949dcb3c06ccdd7352db5,SCN,2024-06-26_13h35.31.114,LearnStrategy,2023.2.3,MacIntel,55.55555556,9,1,16,0.427678571,-0.421428571,1,0,0,1.1,Gabbro_01,4,01,1,7,1.1,0.432142857,-0.248214286,1,0,0,3.6,Gabbro_rect,4,3.6,1,15,0,15,0,1,,,,,,,,,,,,,
662949dcb3c06ccdd7352db5,SCN,2024-06-26_13h35.31.114,LearnStrategy,2023.2.3,MacIntel,55.55555556,9,2,1,,,,,,,,6,13,,,,,,,,,,,6,6.732,1,,,,,,-0.069642857,-0.40625,1,0,0,6.732,Pegmatite_rect,0,0,0,0,1,
662949dcb3c06ccdd7352db5,SCN,2024-06-26_13h35.31.114,LearnStrategy,2023.2.3,MacIntel,55.55555556,9,2,2,,,,,,,,4,05,,,,,,,,,,,4,1.872,1,,,,,,0.446428571,-0.263392857,1,0,0,1.872,Gabbro_rect,1,0,1,0,1,
662949dcb3c06ccdd7352db5,SCN,2024-06-26_13h35.31.114,LearnStrategy,2023.2.3,MacIntel,55.55555556,9,2,3,,,,,,,,5,05,,,,,,,,,,,5,1.588,1,,,,,,-0.458035714,-0.395535714,1,0,0,1.588,Obsidian_rect,2,0,2,0,1,
662949dcb3c06ccdd7352db5,SCN,2024-06-26_13h35.31.114,LearnStrategy,2023.2.3,MacIntel,55.55555556,9,2,4,,,,,,,,3,07,,,,,,,,,,,3,4.619,1,,,,,,0.134821429,-0.251785714,1,0,0,4.619,Diorite_rect,3,0,3,0,1,
662949dcb3c06ccdd7352db5,SCN,2024-06-26_13h35.31.114,LearnStrategy,2023.2.3,MacIntel,55.55555556,9,2,5,,,,,,,,2,12,,,,,,,,,,,8,1.835,0,,,,,,0.36875,-0.421428571,1,0,0,1.835,Pumice_rect,4,0,4,0,1,
662949dcb3c06ccdd7352db5,SCN,2024-06-26_13h35.31.114,LearnStrategy,2023.2.3,MacIntel,55.55555556,9,2,6,,,,,,,,6,10,,,,,,,,,,,7,2.47,0,,,,,,0.19375,-0.414285714,1,0,0,2.47,Peridotite_rect,5,0,5,0,1,
662949dcb3c06ccdd7352db5,SCN,2024-06-26_13h35.31.114,LearnStrategy,2023.2.3,MacIntel,55.55555556,9,2,7,,,,,,,,1,03,,,,,,,,,,,1,1.494,1,,,,,,-0.376785714,-0.252678571,1,0,0,1.494,Andesite_rect,6,0,6,0,1,
662949dcb3c06ccdd7352db5,SCN,2024-06-26_13h35.31.114,LearnStrategy,2023.2.3,MacIntel,55.55555556,9,2,8,,,,,,,,3,13,,,,,,,,,,,3,1.4,1,,,,,,0.115178571,-0.248214286,1,0,0,1.4,Diorite_rect,7,0,7,0,1,
662949dcb3c06ccdd7352db5,SCN,2024-06-26_13h35.31.114,LearnStrategy,2023.2.3,MacIntel,55.55555556,9,2,9,,,,,,,,8,05,,,,,,,,,,,8,1.395,1,,,,,,0.390178571,-0.413392857,1,0,0,1.395,Pumice_rect,8,0,8,0,1,
662949dcb3c06ccdd7352db5,SCN,2024-06-26_13h35.31.114,LearnStrategy,2023.2.3,MacIntel,55.55555556,9,2,10,,,,,,,,7,15,,,,,,,,,,,7,3.166,1,,,,,,0.183035714,-0.417857143,1,0,0,3.166,Peridotite_rect,9,0,9,0,1,
662949dcb3c06ccdd7352db5,SCN,2024-06-26_13h35.31.114,LearnStrategy,2023.2.3,MacIntel,55.55555556,9,2,11,,,,,,,,4,13,,,,,,,,,,,4,2.108,1,,,,,,0.39375,-0.261607143,1,0,0,2.108,Gabbro_rect,10,0,10,0,1,
662949dcb3c06ccdd7352db5,SCN,2024-06-26_13h35.31.114,LearnStrategy,2023.2.3,MacIntel,55.55555556,9,2,12,,,,,,,,7,13,,,,,,,,,,,6,3.947,0,,,,,,-0.152678571,-0.409821429,1,0,0,3.947,Pegmatite_rect,11,0,11,0,1,
662949dcb3c06ccdd7352db5,SCN,2024-06-26_13h35.31.114,LearnStrategy,2023.2.3,MacIntel,55.55555556,9,2,13,,,,,,,,2,06,,,,,,,,,,,2,1.177,1,,,,,,-0.145535714,-0.265178571,1,0,0,1.177,Basalt_rect,12,0,12,0,1,
662949dcb3c06ccdd7352db5,SCN,2024-06-26_13h35.31.114,LearnStrategy,2023.2.3,MacIntel,55.55555556,9,2,14,,,,,,,,8,04,,,,,,,,,,,8,1.222,1,,,,,,0.366071429,-0.383035714,1,0,0,1.222,Pumice_rect,13,0,13,0,1,
662949dcb3c06ccdd7352db5,SCN,2024-06-26_13h35.31.114,LearnStrategy,2023.2.3,MacIntel,55.55555556,9,2,15,,,,,,,,5,16,,,,,,,,,,,5,1.732,1,,,,,,-0.417857143,-0.4125,1,0,0,1.732,Obsidian_rect,14,0,14,0,1,
662949dcb3c06ccdd7352db5,SCN,2024-06-26_13h35.31.114,LearnStrategy,2023.2.3,MacIntel,55.55555556,9,2,16,,,,,,,,1,09,,,,,,,,,,,1,2.216,1,,,,,,-0.385714286,-0.247321429,1,0,0,2.216,Andesite_rect,15,0,15,0,1,
662949dcb3c06ccdd7352db5,SCN,2024-06-26_13h35.31.114,LearnStrategy,2023.2.3,MacIntel,55.55555556,,,,,,,,,,,,,,,,,,,,,,,,,,,,,,,,,,,,,,,,,,,1
662949dcb3c06ccdd7352db5,SCN,2024-06-26_13h35.31.114,LearnStrategy,2023.2.3,MacIntel,55.55555556,,,,,,,,,,,,,,,,,,,,,,,,,,,,,,,,,,,,,,,,,,,
662949dcb3c06ccdd7352db5,SCN,2024-06-26_13h35.31.114,LearnStrategy,2023.2.3,MacIntel,55.55555556,,,,,,,,,,,8,16,1,1,,,,,,,,,,,,,,,,,,,,,,,,,,,,,
662949dcb3c06ccdd7352db5,SCN,2024-06-26_13h35.31.114,LearnStrategy,2023.2.3,MacIntel,55.55555556,,,,,,,,,,,6,15,1,2,,,,,,,,,,,,,,,,,,,,,,,,,,,,,
662949dcb3c06ccdd7352db5,SCN,2024-06-26_13h35.31.114,LearnStrategy,2023.2.3,MacIntel,55.55555556,,,,,,,,,,,4,11,1,3,,,,,,,,,,,,,,,,,,,,,,,,,,,,,
662949dcb3c06ccdd7352db5,SCN,2024-06-26_13h35.31.114,LearnStrategy,2023.2.3,MacIntel,55.55555556,,,,,,,,,,,3,10,1,4,,,,,,,,,,,,,,,,,,,,,,,,,,,,,
662949dcb3c06ccdd7352db5,SCN,2024-06-26_13h35.31.114,LearnStrategy,2023.2.3,MacIntel,55.55555556,,,,,,,,,,,1,02,1,5,,,,,,,,,,,,,,,,,,,,,,,,,,,,,
662949dcb3c06ccdd7352db5,SCN,2024-06-26_13h35.31.114,LearnStrategy,2023.2.3,MacIntel,55.55555556,,,,,,,,,,,5,11,1,6,,,,,,,,,,,,,,,,,,,,,,,,,,,,,
662949dcb3c06ccdd7352db5,SCN,2024-06-26_13h35.31.114,LearnStrategy,2023.2.3,MacIntel,55.55555556,,,,,,,,,,,4,01,1,7,,,,,,,,,,,,,,,,,,,,,,,,,,,,,
662949dcb3c06ccdd7352db5,SCN,2024-06-26_13h35.31.114,LearnStrategy,2023.2.3,MacIntel,55.55555556,,,,,,,,,,,6,05,1,8,,,,,,,,,,,,,,,,,,,,,,,,,,,,,
662949dcb3c06ccdd7352db5,SCN,2024-06-26_13h35.31.114,LearnStrategy,2023.2.3,MacIntel,55.55555556,,,,,,,,,,,7,14,2,1,,,,,,,,,,,,,,,,,,,,,,,,,,,,,
662949dcb3c06ccdd7352db5,SCN,2024-06-26_13h35.31.114,LearnStrategy,2023.2.3,MacIntel,55.55555556,,,,,,,,,,,2,14,2,2,,,,,,,,,,,,,,,,,,,,,,,,,,,,,
662949dcb3c06ccdd7352db5,SCN,2024-06-26_13h35.31.114,LearnStrategy,2023.2.3,MacIntel,55.55555556,,,,,,,,,,,3,09,2,3,,,,,,,,,,,,,,,,,,,,,,,,,,,,,
662949dcb3c06ccdd7352db5,SCN,2024-06-26_13h35.31.114,LearnStrategy,2023.2.3,MacIntel,55.55555556,,,,,,,,,,,5,14,2,4,,,,,,,,,,,,,,,,,,,,,,,,,,,,,
662949dcb3c06ccdd7352db5,SCN,2024-06-26_13h35.31.114,LearnStrategy,2023.2.3,MacIntel,55.55555556,,,,,,,,,,,3,08,2,5,,,,,,,,,,,,,,,,,,,,,,,,,,,,,
662949dcb3c06ccdd7352db5,SCN,2024-06-26_13h35.31.114,LearnStrategy,2023.2.3,MacIntel,55.55555556,,,,,,,,,,,3,02,2,6,,,,,,,,,,,,,,,,,,,,,,,,,,,,,
662949dcb3c06ccdd7352db5,SCN,2024-06-26_13h35.31.114,LearnStrategy,2023.2.3,MacIntel,55.55555556,,,,,,,,,,,5,02,2,7,,,,,,,,,,,,,,,,,,,,,,,,,,,,,
662949dcb3c06ccdd7352db5,SCN,2024-06-26_13h35.31.114,LearnStrategy,2023.2.3,MacIntel,55.55555556,,,,,,,,,,,1,07,2,8,,,,,,,,,,,,,,,,,,,,,,,,,,,,,
662949dcb3c06ccdd7352db5,SCN,2024-06-26_13h35.31.114,LearnStrategy,2023.2.3,MacIntel,55.55555556,,,,,,,,,,,5,06,3,1,,,,,,,,,,,,,,,,,,,,,,,,,,,,,
662949dcb3c06ccdd7352db5,SCN,2024-06-26_13h35.31.114,LearnStrategy,2023.2.3,MacIntel,55.55555556,,,,,,,,,,,7,07,3,2,,,,,,,,,,,,,,,,,,,,,,,,,,,,,
662949dcb3c06ccdd7352db5,SCN,2024-06-26_13h35.31.114,LearnStrategy,2023.2.3,MacIntel,55.55555556,,,,,,,,,,,8,08,3,3,,,,,,,,,,,,,,,,,,,,,,,,,,,,,
662949dcb3c06ccdd7352db5,SCN,2024-06-26_13h35.31.114,LearnStrategy,2023.2.3,MacIntel,55.55555556,,,,,,,,,,,6,16,3,4,,,,,,,,,,,,,,,,,,,,,,,,,,,,,
662949dcb3c06ccdd7352db5,SCN,2024-06-26_13h35.31.114,LearnStrategy,2023.2.3,MacIntel,55.55555556,,,,,,,,,,,6,08,3,5,,,,,,,,,,,,,,,,,,,,,,,,,,,,,
662949dcb3c06ccdd7352db5,SCN,2024-06-26_13h35.31.114,LearnStrategy,2023.2.3,MacIntel,55.55555556,,,,,,,,,,,7,16,3,6,,,,,,,,,,,,,,,,,,,,,,,,,,,,,
662949dcb3c06ccdd7352db5,SCN,2024-06-26_13h35.31.114,LearnStrategy,2023.2.3,MacIntel,55.55555556,,,,,,,,,,,4,12,3,7,,,,,,,,,,,,,,,,,,,,,,,,,,,,,
662949dcb3c06ccdd7352db5,SCN,2024-06-26_13h35.31.114,LearnStrategy,2023.2.3,MacIntel,55.55555556,,,,,,,,,,,1,10,3,8,,,,,,,,,,,,,,,,,,,,,,,,,,,,,
662949dcb3c06ccdd7352db5,SCN,2024-06-26_13h35.31.114,LearnStrategy,2023.2.3,MacIntel,55.55555556,,,,,,,,,,,3,15,4,1,,,,,,,,,,,,,,,,,,,,,,,,,,,,,
662949dcb3c06ccdd7352db5,SCN,2024-06-26_13h35.31.114,LearnStrategy,2023.2.3,MacIntel,55.55555556,,,,,,,,,,,2,01,4,2,,,,,,,,,,,,,,,,,,,,,,,,,,,,,
662949dcb3c06ccdd7352db5,SCN,2024-06-26_13h35.31.114,LearnStrategy,2023.2.3,MacIntel,55.55555556,,,,,,,,,,,3,06,4,3,,,,,,,,,,,,,,,,,,,,,,,,,,,,,
662949dcb3c06ccdd7352db5,SCN,2024-06-26_13h35.31.114,LearnStrategy,2023.2.3,MacIntel,55.55555556,,,,,,,,,,,7,08,4,4,,,,,,,,,,,,,,,,,,,,,,,,,,,,,
662949dcb3c06ccdd7352db5,SCN,2024-06-26_13h35.31.114,LearnStrategy,2023.2.3,MacIntel,55.55555556,,,,,,,,,,,6,03,4,5,,,,,,,,,,,,,,,,,,,,,,,,,,,,,
662949dcb3c06ccdd7352db5,SCN,2024-06-26_13h35.31.114,LearnStrategy,2023.2.3,MacIntel,55.55555556,,,,,,,,,,,4,08,4,6,,,,,,,,,,,,,,,,,,,,,,,,,,,,,
662949dcb3c06ccdd7352db5,SCN,2024-06-26_13h35.31.114,LearnStrategy,2023.2.3,MacIntel,55.55555556,,,,,,,,,,,7,10,4,7,,,,,,,,,,,,,,,,,,,,,,,,,,,,,
662949dcb3c06ccdd7352db5,SCN,2024-06-26_13h35.31.114,LearnStrategy,2023.2.3,MacIntel,55.55555556,,,,,,,,,,,8,09,4,8,,,,,,,,,,,,,,,,,,,,,,,,,,,,,
662949dcb3c06ccdd7352db5,SCN,2024-06-26_13h35.31.114,LearnStrategy,2023.2.3,MacIntel,55.55555556,,,,,,,,,,,8,03,5,1,,,,,,,,,,,,,,,,,,,,,,,,,,,,,
662949dcb3c06ccdd7352db5,SCN,2024-06-26_13h35.31.114,LearnStrategy,2023.2.3,MacIntel,55.55555556,,,,,,,,,,,4,09,5,2,,,,,,,,,,,,,,,,,,,,,,,,,,,,,
662949dcb3c06ccdd7352db5,SCN,2024-06-26_13h35.31.114,LearnStrategy,2023.2.3,MacIntel,55.55555556,,,,,,,,,,,4,14,5,3,,,,,,,,,,,,,,,,,,,,,,,,,,,,,
662949dcb3c06ccdd7352db5,SCN,2024-06-26_13h35.31.114,LearnStrategy,2023.2.3,MacIntel,55.55555556,,,,,,,,,,,1,06,5,4,,,,,,,,,,,,,,,,,,,,,,,,,,,,,
662949dcb3c06ccdd7352db5,SCN,2024-06-26_13h35.31.114,LearnStrategy,2023.2.3,MacIntel,55.55555556,,,,,,,,,,,7,02,5,5,,,,,,,,,,,,,,,,,,,,,,,,,,,,,
662949dcb3c06ccdd7352db5,SCN,2024-06-26_13h35.31.114,LearnStrategy,2023.2.3,MacIntel,55.55555556,,,,,,,,,,,2,09,5,6,,,,,,,,,,,,,,,,,,,,,,,,,,,,,
662949dcb3c06ccdd7352db5,SCN,2024-06-26_13h35.31.114,LearnStrategy,2023.2.3,MacIntel,55.55555556,,,,,,,,,,,2,11,5,7,,,,,,,,,,,,,,,,,,,,,,,,,,,,,
662949dcb3c06ccdd7352db5,SCN,2024-06-26_13h35.31.114,LearnStrategy,2023.2.3,MacIntel,55.55555556,,,,,,,,,,,8,15,5,8,,,,,,,,,,,,,,,,,,,,,,,,,,,,,
662949dcb3c06ccdd7352db5,SCN,2024-06-26_13h35.31.114,LearnStrategy,2023.2.3,MacIntel,55.55555556,,,,,,,,,,,5,09,6,1,,,,,,,,,,,,,,,,,,,,,,,,,,,,,
662949dcb3c06ccdd7352db5,SCN,2024-06-26_13h35.31.114,LearnStrategy,2023.2.3,MacIntel,55.55555556,,,,,,,,,,,6,09,6,2,,,,,,,,,,,,,,,,,,,,,,,,,,,,,
662949dcb3c06ccdd7352db5,SCN,2024-06-26_13h35.31.114,LearnStrategy,2023.2.3,MacIntel,55.55555556,,,,,,,,,,,2,04,6,3,,,,,,,,,,,,,,,,,,,,,,,,,,,,,
662949dcb3c06ccdd7352db5,SCN,2024-06-26_13h35.31.114,LearnStrategy,2023.2.3,MacIntel,55.55555556,,,,,,,,,,,1,04,6,4,,,,,,,,,,,,,,,,,,,,,,,,,,,,,
662949dcb3c06ccdd7352db5,SCN,2024-06-26_13h35.31.114,LearnStrategy,2023.2.3,MacIntel,55.55555556,,,,,,,,,,,2,08,6,5,,,,,,,,,,,,,,,,,,,,,,,,,,,,,
662949dcb3c06ccdd7352db5,SCN,2024-06-26_13h35.31.114,LearnStrategy,2023.2.3,MacIntel,55.55555556,,,,,,,,,,,8,14,6,6,,,,,,,,,,,,,,,,,,,,,,,,,,,,,
662949dcb3c06ccdd7352db5,SCN,2024-06-26_13h35.31.114,LearnStrategy,2023.2.3,MacIntel,55.55555556,,,,,,,,,,,1,01,6,7,,,,,,,,,,,,,,,,,,,,,,,,,,,,,
662949dcb3c06ccdd7352db5,SCN,2024-06-26_13h35.31.114,LearnStrategy,2023.2.3,MacIntel,55.55555556,,,,,,,,,,,5,10,6,8,,,,,,,,,,,,,,,,,,,,,,,,,,,,,