participant,condition,date,expName,psychopyVersion,OS,frameRate,block,phase,trial,learn_mouse.x,learn_mouse.y,learn_mouse.leftButton,learn_mouse.midButton,learn_mouse.rightButton,learn_mouse.time,learn_mouse.clicked_name,cat,token,row,col,t_select,cat_mouse_l.x,cat_mouse_l.y,cat_mouse_l.leftButton,cat_mouse_l.midButton,cat_mouse_l.rightButton,cat_mouse_l.time,cat_mouse_l.clicked_name,resp,t_resp,corr,train_trials.thisRepN,train_trials.thisTrialN,train_trials.thisN,train_trials.thisIndex,train_trials.ran,cat_mouse_t.x,cat_mouse_t.y,cat_mouse_t.leftButton,cat_mouse_t.midButton,cat_mouse_t.rightButton,cat_mouse_t.time,cat_mouse_t.clicked_name,test_trials.thisRepN,test_trials.thisTrialN,test_trials.thisN,test_trials.thisIndex,test_trials.ran,Bonus
66296576ea9cd406efc12f7c,SCN,2024-06-24_13h48.48.419,LearnStrategy,2023.2.3,Linux x86_64,59.88023952,,,,,,,,,,,,,,,,,,,,,,,,,,,,,,,,,,,,,,,,,,,
66296576ea9cd406efc12f7c,SCN,2024-06-24_13h48.48.419,LearnStrategy,2023.2.3,Linux x86_64,59.88023952,1,1,1,0.27410078,-0.095362941,1,0,0,15.4465,Peridotite_13,7,13,3,6,15.446,0.154301961,-0.418204705,1,0,0,10.3173,Peridotite_rect,7,10.317,1,0,0,0,0,1,,,,,,,,,,,,,
66296576ea9cd406efc12f7c,SCN,2024-06-24_13h48.48.419,LearnStrategy,2023.2.3,Linux x86_64,59.88023952,1,1,2,-0.261579792,-0.259788752,1,0,0,6.9773,Obsidian_07,5,07,2,3,6.977,-0.121100187,-0.411088149,1,0,0,6.1106,Pegmatite_rect,6,6.111,0,1,0,1,0,1,,,,,,,,,,,,,
66296576ea9cd406efc12f7c,SCN,2024-06-24_13h48.48.419,LearnStrategy,2023.2.3,Linux x86_64,59.88023952,1,1,3,-0.082859198,0.238970598,1,0,0,7.7231,Obsidian_10,5,10,5,4,7.723,0.110893091,-0.251349608,1,0,0,6.1769,Diorite_rect,3,6.177,0,2,0,2,0,1,,,,,,,,,,,,,
66296576ea9cd406efc12f7c,SCN,2024-06-24_13h48.48.419,LearnStrategy,2023.2.3,Linux x86_64,59.88023952,1,1,4,-0.542596976,0.384309451,1,0,0,9.513,Pumice_16,8,16,6,1,9.513,0.388945262,-0.415597598,1,0,0,9.023,Pumice_rect,8,9.023,1,3,0,3,0,1,,,,,,,,,,,,,
66296576ea9cd406efc12f7c,SCN,2024-06-24_13h48.48.419,LearnStrategy,2023.2.3,Linux x86_64,59.88023952,1,1,5,-0.365219871,0.389234453,1,0,0,6.3997,Peridotite_07,7,07,6,2,6.4,0.424731493,-0.411427975,1,0,0,37.8582,Pumice_rect,8,37.858,0,4,0,4,0,1,,,,,,,,,,,,,
66296576ea9cd406efc12f7c,SCN,2024-06-24_13h48.48.419,LearnStrategy,2023.2.3,Linux x86_64,59.88023952,1,1,6,-0.400749604,-0.252989531,1,0,0,5.485,Pegmatite_11,6,11,2,2,5.485,-0.444883943,-0.411700805,1,0,0,3.1253,Obsidian_rect,5,3.125,0,5,0,5,0,1,,,,,,,,,,,,,
66296576ea9cd406efc12f7c,SCN,2024-06-24_13h48.48.419,LearnStrategy,2023.2.3,Linux x86_64,59.88023952,1,1,7,-0.54459246,0.281562448,1,0,0,6.5047,Pumice_09,8,09,5,1,6.505,0.380120675,-0.404978275,1,0,0,1.8074,Pumice_rect,8,1.807,1,6,0,6,0,1,,,,,,,,,,,,,
66296576ea9cd406efc12f7c,SCN,2024-06-24_13h48.48.419,LearnStrategy,2023.2.3,Linux x86_64,59.88023952,1,1,8,-0.537064711,0.078714649,1,0,0,2.2101,Basalt_02,2,02,4,1,2.21,-0.430671771,-0.249377092,1,0,0,5.7877,Andesite_rect,1,5.788,0,7,0,7,0,1,,,,,,,,,,,,,
66296576ea9cd406efc12f7c,SCN,2024-06-24_13h48.48.419,LearnStrategy,2023.2.3,Linux x86_64,59.88023952,1,1,9,-0.549116373,-0.085468968,1,0,0,2.5257,Gabbro_13,4,13,3,1,2.526,0.39825654,-0.245834033,1,0,0,5.2617,Gabbro_rect,4,5.262,1,8,0,8,0,1,,,,,,,,,,,,,
66296576ea9cd406efc12f7c,SCN,2024-06-24_13h48.48.419,LearnStrategy,2023.2.3,Linux x86_64,59.88023952,1,1,10,-0.409542084,0.272715032,1,0,0,9.1998,Andesite_03,1,03,5,2,9.2,-0.152342637,-0.238998095,1,0,0,4.4767,Basalt_rect,2,4.477,0,9,0,9,0,1,,,,,,,,,,,,,
66296576ea9cd406efc12f7c,SCN,2024-06-24_13h48.48.419,LearnStrategy,2023.2.3,Linux x86_64,59.88023952,1,1,11,-0.382731557,0.10722967,1,0,0,1.4935,Basalt_05,2,05,4,2,1.494,-0.40721945,-0.26016442,1,0,0,5.0268,Andesite_rect,1,5.027,0,10,0,10,0,1,,,,,,,,,,,,,
66296576ea9cd406efc12f7c,SCN,2024-06-24_13h48.48.419,LearnStrategy,2023.2.3,Linux x86_64,59.88023952,1,1,12,-0.37504824,-0.096180558,1,0,0,1.6158,Gabbro_10,4,10,3,2,1.616,0.353607893,-0.399406513,1,0,0,2.218,Pumice_rect,8,2.218,0,11,0,11,0,1,,,,,,,,,,,,,
66296576ea9cd406efc12f7c,SCN,2024-06-24_13h48.48.419,LearnStrategy,2023.2.3,Linux x86_64,59.88023952,1,1,13,-0.398091197,-0.242239316,1,0,0,3.315,Pegmatite_11,6,11,2,2,3.315,-0.084280491,-0.414925337,1,0,0,8.6807,Pegmatite_rect,6,8.681,1,12,0,12,0,1,,,,,,,,,,,,,
66296576ea9cd406efc12f7c,SCN,2024-06-24_13h48.48.419,LearnStrategy,2023.2.3,Linux x86_64,59.88023952,1,1,14,-0.406995018,-0.412210544,1,0,0,1.7632,Obsidian_05,5,05,1,2,1.763,-0.352030158,-0.39104406,1,0,0,3.7357,Obsidian_rect,5,3.736,1,13,0,13,0,1,,,,,,,,,,,,,
66296576ea9cd406efc12f7c,SCN,2024-06-24_13h48.48.419,LearnStrategy,2023.2.3,Linux x86_64,59.88023952,1,1,15,-0.22871991,0.40146935,1,0,0,1.4141,Pumice_10,8,10,6,3,1.414,0.445105394,-0.419428905,1,0,0,3.0386,Pumice_rect,8,3.039,1,14,0,14,0,1,,,,,,,,,,,,,
66296576ea9cd406efc12f7c,SCN,2024-06-24_13h48.48.419,LearnStrategy,2023.2.3,Linux x86_64,59.88023952,1,1,16,-0.262157202,0.263365487,1,0,0,1.281,Peridotite_08,7,08,5,3,1.281,0.191314936,-0.257309914,1,0,0,3.9919,Diorite_rect,3,3.992,0,15,0,15,0,1,,,,,,,,,,,,,
66296576ea9cd406efc12f7c,SCN,2024-06-24_13h48.48.419,LearnStrategy,2023.2.3,Linux x86_64,59.88023952,1,2,1,,,,,,,,1,16,,,,,,,,,,,2,11.055,0,,,,,,-0.103299777,-0.24203523,1,0,0,11.0553,Basalt_rect,0,0,0,0,1,
66296576ea9cd406efc12f7c,SCN,2024-06-24_13h48.48.419,LearnStrategy,2023.2.3,Linux x86_64,59.88023952,1,2,2,,,,,,,,5,02,,,,,,,,,,,5,3.359,1,,,,,,-0.340988676,-0.421048085,1,0,0,3.3588,Obsidian_rect,1,0,1,0,1,
66296576ea9cd406efc12f7c,SCN,2024-06-24_13h48.48.419,LearnStrategy,2023.2.3,Linux x86_64,59.88023952,1,2,3,,,,,,,,8,08,,,,,,,,,,,8,3.868,1,,,,,,0.45901076,-0.393678824,1,0,0,3.8681,Pumice_rect,2,0,2,0,1,
66296576ea9cd406efc12f7c,SCN,2024-06-24_13h48.48.419,LearnStrategy,2023.2.3,Linux x86_64,59.88023952,1,2,4,,,,,,,,8,14,,,,,,,,,,,8,2.616,1,,,,,,0.406202793,-0.413969914,1,0,0,2.6158,Pumice_rect,3,0,3,0,1,
66296576ea9cd406efc12f7c,SCN,2024-06-24_13h48.48.419,LearnStrategy,2023.2.3,Linux x86_64,59.88023952,1,2,5,,,,,,,,5,16,,,,,,,,,,,5,2.574,1,,,,,,-0.399119457,-0.40594991,1,0,0,2.5737,Obsidian_rect,4,0,4,0,1,
66296576ea9cd406efc12f7c,SCN,2024-06-24_13h48.48.419,LearnStrategy,2023.2.3,Linux x86_64,59.88023952,1,2,6,,,,,,,,3,12,,,,,,,,,,,7,5.945,0,,,,,,0.094807069,-0.390194575,1,0,0,5.9454,Peridotite_rect,5,0,5,0,1,
66296576ea9cd406efc12f7c,SCN,2024-06-24_13h48.48.419,LearnStrategy,2023.2.3,Linux x86_64,59.88023952,1,2,7,,,,,,,,7,14,,,,,,,,,,,7,3.985,1,,,,,,0.125001192,-0.413293441,1,0,0,3.9854,Peridotite_rect,6,0,6,0,1,
66296576ea9cd406efc12f7c,SCN,2024-06-24_13h48.48.419,LearnStrategy,2023.2.3,Linux x86_64,59.88023952,1,2,8,,,,,,,,4,14,,,,,,,,,,,4,3.514,1,,,,,,0.475953579,-0.252033472,1,0,0,3.5139,Gabbro_rect,7,0,7,0,1,
66296576ea9cd406efc12f7c,SCN,2024-06-24_13h48.48.419,LearnStrategy,2023.2.3,Linux x86_64,59.88023952,1,2,9,,,,,,,,6,07,,,,,,,,,,,6,7.908,1,,,,,,-0.186333179,-0.406900883,1,0,0,7.9076,Pegmatite_rect,8,0,8,0,1,
66296576ea9cd406efc12f7c,SCN,2024-06-24_13h48.48.419,LearnStrategy,2023.2.3,Linux x86_64,59.88023952,1,2,10,,,,,,,,4,16,,,,,,,,,,,4,3.406,1,,,,,,0.365411043,-0.268642108,1,0,0,3.4055,Gabbro_rect,9,0,9,0,1,
66296576ea9cd406efc12f7c,SCN,2024-06-24_13h48.48.419,LearnStrategy,2023.2.3,Linux x86_64,59.88023952,1,2,11,,,,,,,,6,05,,,,,,,,,,,3,6.053,0,,,,,,0.117121696,-0.238293886,1,0,0,6.0527,Diorite_rect,10,0,10,0,1,
66296576ea9cd406efc12f7c,SCN,2024-06-24_13h48.48.419,LearnStrategy,2023.2.3,Linux x86_64,59.88023952,1,2,12,,,,,,,,2,04,,,,,,,,,,,2,2.254,1,,,,,,-0.215336402,-0.255506039,1,0,0,2.2544,Basalt_rect,11,0,11,0,1,
66296576ea9cd406efc12f7c,SCN,2024-06-24_13h48.48.419,LearnStrategy,2023.2.3,Linux x86_64,59.88023952,1,2,13,,,,,,,,1,11,,,,,,,,,,,1,5.637,1,,,,,,-0.337331335,-0.25508817,1,0,0,5.6366,Andesite_rect,12,0,12,0,1,
66296576ea9cd406efc12f7c,SCN,2024-06-24_13h48.48.419,LearnStrategy,2023.2.3,Linux x86_64,59.88023952,1,2,14,,,,,,,,2,06,,,,,,,,,,,5,2.049,0,,,,,,-0.350637436,-0.412535667,1,0,0,2.0494,Obsidian_rect,13,0,13,0,1,
66296576ea9cd406efc12f7c,SCN,2024-06-24_13h48.48.419,LearnStrategy,2023.2.3,Linux x86_64,59.88023952,1,2,15,,,,,,,,7,12,,,,,,,,,,,7,3.44,1,,,,,,0.083112955,-0.387004534,1,0,0,3.4404,Peridotite_rect,14,0,14,0,1,
66296576ea9cd406efc12f7c,SCN,2024-06-24_13h48.48.419,LearnStrategy,2023.2.3,Linux x86_64,59.88023952,1,2,16,,,,,,,,3,10,,,,,,,,,,,4,3.87,0,,,,,,0.480432351,-0.264091412,1,0,0,3.87,Gabbro_rect,15,0,15,0,1,
66296576ea9cd406efc12f7c,SCN,2024-06-24_13h48.48.419,LearnStrategy,2023.2.3,Linux x86_64,59.88023952,2,1,1,0.588656902,-0.405285756,1,0,0,13.1969,Pegmatite_03,6,03,1,8,13.197,0.133241494,-0.413121382,1,0,0,1.9737,Peridotite_rect,7,1.974,0,0,0,0,0,1,,,,,,,,,,,,,
66296576ea9cd406efc12f7c,SCN,2024-06-24_13h48.48.419,LearnStrategy,2023.2.3,Linux x86_64,59.88023952,2,1,2,0.391263882,-0.40980649,1,0,0,1.9114,Pumice_05,8,05,1,7,1.911,0.372017304,-0.403773467,1,0,0,1.1696,Pumice_rect,8,1.17,1,1,0,1,0,1,,,,,,,,,,,,,
66296576ea9cd406efc12f7c,SCN,2024-06-24_13h48.48.419,LearnStrategy,2023.2.3,Linux x86_64,59.88023952,2,1,3,0.220333258,-0.415682236,1,0,0,3.3194,Andesite_10,1,10,1,6,3.319,-0.198482196,-0.251805464,1,0,0,1.7994,Basalt_rect,2,1.799,0,2,0,2,0,1,,,,,,,,,,,,,
66296576ea9cd406efc12f7c,SCN,2024-06-24_13h48.48.419,LearnStrategy,2023.2.3,Linux x86_64,59.88023952,2,1,4,0.100824277,-0.418377002,1,0,0,1.6009,Diorite_07,3,07,1,5,1.601,0.339241187,-0.398861965,1,0,0,5.2486,Pumice_rect,8,5.249,0,3,0,3,0,1,,,,,,,,,,,,,
66296576ea9cd406efc12f7c,SCN,2024-06-24_13h48.48.419,LearnStrategy,2023.2.3,Linux x86_64,59.88023952,2,1,5,0.099358002,-0.25002408,1,0,0,3.4989,Andesite_09,1,09,2,5,3.499,-0.101233085,-0.228908777,1,0,0,1.0751,Basalt_rect,2,1.075,0,4,0,4,0,1,,,,,,,,,,,,,
66296576ea9cd406efc12f7c,SCN,2024-06-24_13h48.48.419,LearnStrategy,2023.2.3,Linux x86_64,59.88023952,2,1,6,0.237793207,-0.265244563,1,0,0,1.4684,Gabbro_15,4,15,2,6,1.468,0.411178112,-0.253605604,1,0,0,1.7718,Gabbro_rect,4,1.772,1,5,0,5,0,1,,,,,,,,,,,,,
66296576ea9cd406efc12f7c,SCN,2024-06-24_13h48.48.419,LearnStrategy,2023.2.3,Linux x86_64,59.88023952,2,1,7,-0.223338803,-0.290827513,1,0,0,3.3151,Obsidian_07,5,07,2,3,3.315,-0.139617364,-0.417218208,1,0,0,3.0433,Pegmatite_rect,6,3.043,0,6,0,6,0,1,,,,,,,,,,,,,
66296576ea9cd406efc12f7c,SCN,2024-06-24_13h48.48.419,LearnStrategy,2023.2.3,Linux x86_64,59.88023952,2,1,8,-0.53534476,-0.257116159,1,0,0,2.2453,Obsidian_04,5,04,2,1,2.245,-0.363210758,-0.391466538,1,0,0,2.9462,Obsidian_rect,5,2.946,1,7,0,7,0,1,,,,,,,,,,,,,
66296576ea9cd406efc12f7c,SCN,2024-06-24_13h48.48.419,LearnStrategy,2023.2.3,Linux x86_64,59.88023952,2,1,9,-0.188115279,-0.088404457,1,0,0,1.217,Pegmatite_08,6,08,3,3,1.217,-0.317031145,-0.382914305,1,0,0,2.8838,Obsidian_rect,5,2.884,0,8,0,8,0,1,,,,,,,,,,,,,
66296576ea9cd406efc12f7c,SCN,2024-06-24_13h48.48.419,LearnStrategy,2023.2.3,Linux x86_64,59.88023952,2,1,10,0.511732896,0.242523193,1,0,0,3.31,Obsidian_08,5,08,5,8,3.31,-0.121946176,-0.396871646,1,0,0,2.0444,Pegmatite_rect,6,2.044,0,9,0,9,0,1,,,,,,,,,,,,,
66296576ea9cd406efc12f7c,SCN,2024-06-24_13h48.48.419,LearnStrategy,2023.2.3,Linux x86_64,59.88023952,2,1,11,0.107156118,0.118645112,1,0,0,1.8227,Pegmatite_15,6,15,4,5,1.823,-0.148688793,-0.412883202,1,0,0,2.6694,Pegmatite_rect,6,2.669,1,10,0,10,0,1,,,,,,,,,,,,,
66296576ea9cd406efc12f7c,SCN,2024-06-24_13h48.48.419,LearnStrategy,2023.2.3,Linux x86_64,59.88023952,2,1,12,-0.410886526,0.103685339,1,0,0,1.9272,Basalt_05,2,05,4,2,1.927,-0.111347993,-0.244349162,1,0,0,1.5895,Basalt_rect,2,1.589,1,11,0,11,0,1,,,,,,,,,,,,,
66296576ea9cd406efc12f7c,SCN,2024-06-24_13h48.48.419,LearnStrategy,2023.2.3,Linux x86_64,59.88023952,2,1,13,-0.514178793,0.078766624,1,0,0,1.7785,Basalt_02,2,02,4,1,1.779,-0.085208893,-0.258515199,1,0,0,2.1658,Basalt_rect,2,2.166,1,12,0,12,0,1,,,,,,,,,,,,,
66296576ea9cd406efc12f7c,SCN,2024-06-24_13h48.48.419,LearnStrategy,2023.2.3,Linux x86_64,59.88023952,2,1,14,0.553367933,0.248011231,1,0,0,2.5275,Obsidian_08,5,08,5,8,2.528,-0.347910961,-0.412631909,1,0,0,4.0502,Obsidian_rect,5,4.05,1,13,0,13,0,1,,,,,,,,,,,,,
66296576ea9cd406efc12f7c,SCN,2024-06-24_13h48.48.419,LearnStrategy,2023.2.3,Linux x86_64,59.88023952,2,1,15,0.379873991,0.288421571,1,0,0,1.9381,Pegmatite_09,6,09,5,7,1.938,0.089020967,-0.40365839,1,0,0,2.142,Peridotite_rect,7,2.142,0,14,0,14,0,1,,,,,,,,,,,,,
66296576ea9cd406efc12f7c,SCN,2024-06-24_13h48.48.419,LearnStrategy,2023.2.3,Linux x86_64,59.88023952,2,1,16,0.261467218,0.391908179,1,0,0,3.1016,Peridotite_05,7,05,6,6,3.102,0.132958651,-0.262814999,1,0,0,3.6219,Diorite_rect,3,3.622,0,15,0,15,0,1,,,,,,,,,,,,,
66296576ea9cd406efc12f7c,SCN,2024-06-24_13h48.48.419,LearnStrategy,2023.2.3,Linux x86_64,59.88023952,2,2,1,,,,,,,,1,06,,,,,,,,,,,2,11.776,0,,,,,,-0.174753507,-0.242268244,1,0,0,11.7762,Basalt_rect,0,0,0,0,1,
66296576ea9cd406efc12f7c,SCN,2024-06-24_13h48.48.419,LearnStrategy,2023.2.3,Linux x86_64,59.88023952,2,2,2,,,,,,,,7,06,,,,,,,,,,,7,2.448,1,,,,,,0.100966056,-0.397490104,1,0,0,2.448,Peridotite_rect,1,0,1,0,1,
66296576ea9cd406efc12f7c,SCN,2024-06-24_13h48.48.419,LearnStrategy,2023.2.3,Linux x86_64,59.88023952,2,2,3,,,,,,,,6,12,,,,,,,,,,,5,3.28,0,,,,,,-0.364103516,-0.41870149,1,0,0,3.2795,Obsidian_rect,2,0,2,0,1,
66296576ea9cd406efc12f7c,SCN,2024-06-24_13h48.48.419,LearnStrategy,2023.2.3,Linux x86_64,59.88023952,2,2,4,,,,,,,,5,12,,,,,,,,,,,5,1.069,1,,,,,,-0.421890537,-0.414969842,1,0,0,1.0687,Obsidian_rect,3,0,3,0,1,
66296576ea9cd406efc12f7c,SCN,2024-06-24_13h48.48.419,LearnStrategy,2023.2.3,Linux x86_64,59.88023952,2,2,5,,,,,,,,4,05,,,,,,,,,,,6,2.852,0,,,,,,-0.070096652,-0.39930582,1,0,0,2.8518,Pegmatite_rect,4,0,4,0,1,
66296576ea9cd406efc12f7c,SCN,2024-06-24_13h48.48.419,LearnStrategy,2023.2.3,Linux x86_64,59.88023952,2,2,6,,,,,,,,5,11,,,,,,,,,,,5,1.577,1,,,,,,-0.387928367,-0.390115738,1,0,0,1.5773,Obsidian_rect,5,0,5,0,1,
66296576ea9cd406efc12f7c,SCN,2024-06-24_13h48.48.419,LearnStrategy,2023.2.3,Linux x86_64,59.88023952,2,2,7,,,,,,,,6,06,,,,,,,,,,,1,5.619,0,,,,,,-0.465486685,-0.238365809,1,0,0,5.6188,Andesite_rect,6,0,6,0,1,
66296576ea9cd406efc12f7c,SCN,2024-06-24_13h48.48.419,LearnStrategy,2023.2.3,Linux x86_64,59.88023952,2,2,8,,,,,,,,7,16,,,,,,,,,,,7,1.991,1,,,,,,0.196772973,-0.416727304,1,0,0,1.9912,Peridotite_rect,7,0,7,0,1,
66296576ea9cd406efc12f7c,SCN,2024-06-24_13h48.48.419,LearnStrategy,2023.2.3,Linux x86_64,59.88023952,2,2,9,,,,,,,,8,03,,,,,,,,,,,8,1.696,1,,,,,,0.327888091,-0.396121264,1,0,0,1.6958,Pumice_rect,8,0,8,0,1,
66296576ea9cd406efc12f7c,SCN,2024-06-24_13h48.48.419,LearnStrategy,2023.2.3,Linux x86_64,59.88023952,2,2,10,,,,,,,,8,02,,,,,,,,,,,8,1.197,1,,,,,,0.432823976,-0.39740777,1,0,0,1.1972,Pumice_rect,9,0,9,0,1,
66296576ea9cd406efc12f7c,SCN,2024-06-24_13h48.48.419,LearnStrategy,2023.2.3,Linux x86_64,59.88023952,2,2,11,,,,,,,,3,16,,,,,,,,,,,1,2.912,0,,,,,,-0.418984016,-0.256136099,1,0,0,2.9122,Andesite_rect,10,0,10,0,1,
66296576ea9cd406efc12f7c,SCN,2024-06-24_13h48.48.419,LearnStrategy,2023.2.3,Linux x86_64,59.88023952,2,2,12,,,,,,,,1,05,,,,,,,,,,,6,5.505,0,,,,,,-0.121126254,-0.397992611,1,0,0,5.505,Pegmatite_rect,11,0,11,0,1,
66296576ea9cd406efc12f7c,SCN,2024-06-24_13h48.48.419,LearnStrategy,2023.2.3,Linux x86_64,59.88023952,2,2,13,,,,,,,,3,02,,,,,,,,,,,8,3.045,0,,,,,,0.453289191,-0.411888758,1,0,0,3.0449,Pumice_rect,12,0,12,0,1,
66296576ea9cd406efc12f7c,SCN,2024-06-24_13h48.48.419,LearnStrategy,2023.2.3,Linux x86_64,59.88023952,2,2,14,,,,,,,,2,11,,,,,,,,,,,8,0.842,0,,,,,,0.453289191,-0.411888758,1,0,0,0.8418,Pumice_rect,13,0,13,0,1,
66296576ea9cd406efc12f7c,SCN,2024-06-24_13h48.48.419,LearnStrategy,2023.2.3,Linux x86_64,59.88023952,2,2,15,,,,,,,,4,03,,,,,,,,,,,1,3.187,0,,,,,,-0.449622273,-0.244693915,1,0,0,3.1871,Andesite_rect,14,0,14,0,1,
66296576ea9cd406efc12f7c,SCN,2024-06-24_13h48.48.419,LearnStrategy,2023.2.3,Linux x86_64,59.88023952,2,2,16,,,,,,,,2,10,,,,,,,,,,,5,3.992,0,,,,,,-0.335722367,-0.413231929,1,0,0,3.9923,Obsidian_rect,15,0,15,0,1,
66296576ea9cd406efc12f7c,SCN,2024-06-24_13h48.48.419,LearnStrategy,2023.2.3,Linux x86_64,59.88023952,3,1,1,-0.236043175,-0.418486277,1,0,0,9.737,Gabbro_12,4,12,1,3,9.737,-0.391090473,-0.262321552,1,0,0,2.942,Andesite_rect,1,2.942,0,0,0,0,0,1,,,,,,,,,,,,,
66296576ea9cd406efc12f7c,SCN,2024-06-24_13h48.48.419,LearnStrategy,2023.2.3,Linux x86_64,59.88023952,3,1,2,-0.21549813,-0.286949237,1,0,0,3.5663,Obsidian_07,5,07,2,3,3.566,-0.398509383,-0.398724556,1,0,0,2.757,Obsidian_rect,5,2.757,1,1,0,1,0,1,,,,,,,,,,,,,
66296576ea9cd406efc12f7c,SCN,2024-06-24_13h48.48.419,LearnStrategy,2023.2.3,Linux x86_64,59.88023952,3,1,3,-0.222933451,-0.126958728,1,0,0,1.5368,Pegmatite_08,6,08,3,3,1.537,-0.403116266,-0.396608432,1,0,0,3.9532,Obsidian_rect,5,3.953,0,2,0,2,0,1,,,,,,,,,,,,,
66296576ea9cd406efc12f7c,SCN,2024-06-24_13h48.48.419,LearnStrategy,2023.2.3,Linux x86_64,59.88023952,3,1,4,-0.190514247,0.094344894,1,0,0,1.863,Diorite_06,3,06,4,3,1.863,0.419507583,-0.38698403,1,0,0,4.0031,Pumice_rect,8,4.003,0,3,0,3,0,1,,,,,,,,,,,,,
66296576ea9cd406efc12f7c,SCN,2024-06-24_13h48.48.419,LearnStrategy,2023.2.3,Linux x86_64,59.88023952,3,1,5,0.280686458,0.093460838,1,0,0,1.767,Diorite_11,3,11,4,6,1.767,0.057489395,-0.255389452,1,0,0,1.468,Diorite_rect,3,1.468,1,4,0,4,0,1,,,,,,,,,,,,,
66296576ea9cd406efc12f7c,SCN,2024-06-24_13h48.48.419,LearnStrategy,2023.2.3,Linux x86_64,59.88023952,3,1,6,0.382902861,-0.28269283,1,0,0,3.7328,Basalt_09,2,09,2,7,3.733,-0.145819108,-0.249908606,1,0,0,1.8115,Basalt_rect,2,1.812,1,5,0,5,0,1,,,,,,,,,,,,,
66296576ea9cd406efc12f7c,SCN,2024-06-24_13h48.48.419,LearnStrategy,2023.2.3,Linux x86_64,59.88023952,3,1,7,0.523876826,-0.24545447,1,0,0,1.3278,Gabbro_11,4,11,2,8,1.328,-0.067485174,-0.413066308,1,0,0,1.8821,Pegmatite_rect,6,1.882,0,6,0,6,0,1,,,,,,,,,,,,,
66296576ea9cd406efc12f7c,SCN,2024-06-24_13h48.48.419,LearnStrategy,2023.2.3,Linux x86_64,59.88023952,3,1,8,0.255408049,0.085762739,1,0,0,3.8683,Diorite_11,3,11,4,6,3.868,-0.123733759,-0.39393576,1,0,0,1.848,Pegmatite_rect,6,1.848,0,7,0,7,0,1,,,,,,,,,,,,,
66296576ea9cd406efc12f7c,SCN,2024-06-24_13h48.48.419,LearnStrategy,2023.2.3,Linux x86_64,59.88023952,3,1,9,0.238745928,-0.249796152,1,0,0,1.9539,Gabbro_15,4,15,2,6,1.954,0.073472897,-0.251578808,1,0,0,1.4442,Diorite_rect,3,1.444,0,8,0,8,0,1,,,,,,,,,,,,,
66296576ea9cd406efc12f7c,SCN,2024-06-24_13h48.48.419,LearnStrategy,2023.2.3,Linux x86_64,59.88023952,3,1,10,-0.067362229,-0.061647336,1,0,0,1.2605,Diorite_14,3,14,3,4,1.261,0.37219278,-0.383908192,1,0,0,1.7004,Pumice_rect,8,1.7,0,9,0,9,0,1,,,,,,,,,,,,,
66296576ea9cd406efc12f7c,SCN,2024-06-24_13h48.48.419,LearnStrategy,2023.2.3,Linux x86_64,59.88023952,3,1,11,-0.351133664,0.272269706,1,0,0,3.502,Andesite_03,1,03,5,2,3.502,-0.139797052,-0.242135127,1,0,0,1.3859,Basalt_rect,2,1.386,0,10,0,10,0,1,,,,,,,,,,,,,
66296576ea9cd406efc12f7c,SCN,2024-06-24_13h48.48.419,LearnStrategy,2023.2.3,Linux x86_64,59.88023952,3,1,12,-0.540092786,0.106728435,1,0,0,1.6712,Basalt_02,2,02,4,1,1.671,-0.392060955,-0.260940075,1,0,0,1.7897,Andesite_rect,1,1.79,0,11,0,11,0,1,,,,,,,,,,,,,
66296576ea9cd406efc12f7c,SCN,2024-06-24_13h48.48.419,LearnStrategy,2023.2.3,Linux x86_64,59.88023952,3,1,13,-0.554690878,-0.36157155,1,0,0,1.8428,Basalt_01,2,01,1,1,1.843,-0.454751134,-0.258962234,1,0,0,1.2315,Andesite_rect,1,1.231,0,12,0,12,0,1,,,,,,,,,,,,,
66296576ea9cd406efc12f7c,SCN,2024-06-24_13h48.48.419,LearnStrategy,2023.2.3,Linux x86_64,59.88023952,3,1,14,0.101437648,0.233401438,1,0,0,2.466,Andesite_01,1,01,5,5,2.466,0.32942605,-0.389735778,1,0,0,2.3832,Pumice_rect,8,2.383,0,13,0,13,0,1,,,,,,,,,,,,,
66296576ea9cd406efc12f7c,SCN,2024-06-24_13h48.48.419,LearnStrategy,2023.2.3,Linux x86_64,59.88023952,3,1,15,0.213943402,-0.250367483,1,0,0,1.4731,Gabbro_15,4,15,2,6,1.473,-0.32506001,-0.252091249,1,0,0,1.0261,Andesite_rect,1,1.026,0,14,0,14,0,1,,,,,,,,,,,,,
66296576ea9cd406efc12f7c,SCN,2024-06-24_13h48.48.419,LearnStrategy,2023.2.3,Linux x86_64,59.88023952,3,1,16,0.576434771,-0.109137495,1,0,0,1.5627,Pegmatite_16,6,16,3,8,1.563,0.073438327,-0.259750287,1,0,0,2.9035,Diorite_rect,3,2.904,0,15,0,15,0,1,,,,,,,,,,,,,
66296576ea9cd406efc12f7c,SCN,2024-06-24_13h48.48.419,LearnStrategy,2023.2.3,Linux x86_64,59.88023952,3,2,1,,,,,,,,8,06,,,,,,,,,,,8,2.028,1,,,,,,0.368341843,-0.407747746,1,0,0,2.0277,Pumice_rect,0,0,0,0,1,
66296576ea9cd406efc12f7c,SCN,2024-06-24_13h48.48.419,LearnStrategy,2023.2.3,Linux x86_64,59.88023952,3,2,2,,,,,,,,1,07,,,,,,,,,,,6,2.508,0,,,,,,-0.128823916,-0.40020601,1,0,0,2.5079,Pegmatite_rect,1,0,1,0,1,
66296576ea9cd406efc12f7c,SCN,2024-06-24_13h48.48.419,LearnStrategy,2023.2.3,Linux x86_64,59.88023952,3,2,3,,,,,,,,2,12,,,,,,,,,,,8,2.265,0,,,,,,0.364098152,-0.389266332,1,0,0,2.265,Pumice_rect,2,0,2,0,1,
66296576ea9cd406efc12f7c,SCN,2024-06-24_13h48.48.419,LearnStrategy,2023.2.3,Linux x86_64,59.88023952,3,2,4,,,,,,,,5,06,,,,,,,,,,,5,2.359,1,,,,,,-0.385512034,-0.407236497,1,0,0,2.3593,Obsidian_rect,3,0,3,0,1,
66296576ea9cd406efc12f7c,SCN,2024-06-24_13h48.48.419,LearnStrategy,2023.2.3,Linux x86_64,59.88023952,3,2,5,,,,,,,,7,10,,,,,,,,,,,7,2.008,1,,,,,,0.179894527,-0.412091255,1,0,0,2.0078,Peridotite_rect,4,0,4,0,1,
66296576ea9cd406efc12f7c,SCN,2024-06-24_13h48.48.419,LearnStrategy,2023.2.3,Linux x86_64,59.88023952,3,2,6,,,,,,,,3,08,,,,,,,,,,,3,2.955,1,,,,,,0.15197587,-0.247649034,1,0,0,2.9551,Diorite_rect,5,0,5,0,1,
66296576ea9cd406efc12f7c,SCN,2024-06-24_13h48.48.419,LearnStrategy,2023.2.3,Linux x86_64,59.88023952,3,2,7,,,,,,,,8,15,,,,,,,,,,,4,3.891,0,,,,,,0.410630147,-0.234202464,1,0,0,3.8907,Gabbro_rect,6,0,6,0,1,
66296576ea9cd406efc12f7c,SCN,2024-06-24_13h48.48.419,LearnStrategy,2023.2.3,Linux x86_64,59.88023952,3,2,8,,,,,,,,2,16,,,,,,,,,,,4,1.324,0,,,,,,0.419064442,-0.237961292,1,0,0,1.3239,Gabbro_rect,7,0,7,0,1,
66296576ea9cd406efc12f7c,SCN,2024-06-24_13h48.48.419,LearnStrategy,2023.2.3,Linux x86_64,59.88023952,3,2,9,,,,,,,,1,02,,,,,,,,,,,6,3.967,0,,,,,,-0.104094108,-0.4153138,1,0,0,3.9673,Pegmatite_rect,8,0,8,0,1,
66296576ea9cd406efc12f7c,SCN,2024-06-24_13h48.48.419,LearnStrategy,2023.2.3,Linux x86_64,59.88023952,3,2,10,,,,,,,,5,14,,,,,,,,,,,5,1.337,1,,,,,,-0.327822487,-0.390507778,1,0,0,1.3375,Obsidian_rect,9,0,9,0,1,
66296576ea9cd406efc12f7c,SCN,2024-06-24_13h48.48.419,LearnStrategy,2023.2.3,Linux x86_64,59.88023952,3,2,11,,,,,,,,4,09,,,,,,,,,,,5,1.222,0,,,,,,-0.321314335,-0.390507778,1,0,0,1.2218,Obsidian_rect,10,0,10,0,1,
66296576ea9cd406efc12f7c,SCN,2024-06-24_13h48.48.419,LearnStrategy,2023.2.3,Linux x86_64,59.88023952,3,2,12,,,,,,,,6,13,,,,,,,,,,,1,1.727,0,,,,,,-0.328381697,-0.25730149,1,0,0,1.7267,Andesite_rect,11,0,11,0,1,
66296576ea9cd406efc12f7c,SCN,2024-06-24_13h48.48.419,LearnStrategy,2023.2.3,Linux x86_64,59.88023952,3,2,13,,,,,,,,4,08,,,,,,,,,,,6,3.782,0,,,,,,-0.174107075,-0.39425079,1,0,0,3.7817,Pegmatite_rect,12,0,12,0,1,
66296576ea9cd406efc12f7c,SCN,2024-06-24_13h48.48.419,LearnStrategy,2023.2.3,Linux x86_64,59.88023952,3,2,14,,,,,,,,3,15,,,,,,,,,,,4,2.695,0,,,,,,0.441940943,-0.240753412,1,0,0,2.6952,Gabbro_rect,13,0,13,0,1,
66296576ea9cd406efc12f7c,SCN,2024-06-24_13h48.48.419,LearnStrategy,2023.2.3,Linux x86_64,59.88023952,3,2,15,,,,,,,,6,10,,,,,,,,,,,7,2.279,0,,,,,,0.079930544,-0.39586242,1,0,0,2.2795,Peridotite_rect,14,0,14,0,1,
66296576ea9cd406efc12f7c,SCN,2024-06-24_13h48.48.419,LearnStrategy,2023.2.3,Linux x86_64,59.88023952,3,2,16,,,,,,,,7,02,,,,,,,,,,,7,2.066,1,,,,,,0.105387608,-0.390953064,1,0,0,2.0657,Peridotite_rect,15,0,15,0,1,
66296576ea9cd406efc12f7c,SCN,2024-06-24_13h48.48.419,LearnStrategy,2023.2.3,Linux x86_64,59.88023952,4,1,1,-0.550644875,0.40602384,1,0,0,1.7339,Pumice_16,8,16,6,1,1.734,0.364548922,-0.408249378,1,0,0,5.1017,Pumice_rect,8,5.102,1,0,0,0,0,1,,,,,,,,,,,,,
66296576ea9cd406efc12f7c,SCN,2024-06-24_13h48.48.419,LearnStrategy,2023.2.3,Linux x86_64,59.88023952,4,1,2,-0.406609058,0.396157424,1,0,0,1.3582,Peridotite_07,7,07,6,2,1.358,0.139816205,-0.415942351,1,0,0,3.2334,Peridotite_rect,7,3.233,1,1,0,1,0,1,,,,,,,,,,,,,
66296576ea9cd406efc12f7c,SCN,2024-06-24_13h48.48.419,LearnStrategy,2023.2.3,Linux x86_64,59.88023952,4,1,3,-0.211344798,0.398233205,1,0,0,0.8424,Pumice_10,8,10,6,3,0.842,0.406243404,-0.421061039,1,0,0,1.6181,Pumice_rect,8,1.618,1,2,0,2,0,1,,,,,,,,,,,,,
66296576ea9cd406efc12f7c,SCN,2024-06-24_13h48.48.419,LearnStrategy,2023.2.3,Linux x86_64,59.88023952,4,1,4,-0.032126109,0.425075168,1,0,0,0.9869,Peridotite_15,7,15,6,4,0.987,0.117950996,-0.389689366,1,0,0,2.0464,Peridotite_rect,7,2.046,1,3,0,3,0,1,,,,,,,,,,,,,
66296576ea9cd406efc12f7c,SCN,2024-06-24_13h48.48.419,LearnStrategy,2023.2.3,Linux x86_64,59.88023952,4,1,5,0.122316996,0.417399297,1,0,0,1.2818,Basalt_14,2,14,6,5,1.282,0.360442877,-0.247524182,1,0,0,2.0377,Gabbro_rect,4,2.038,0,4,0,4,0,1,,,,,,,,,,,,,
66296576ea9cd406efc12f7c,SCN,2024-06-24_13h48.48.419,LearnStrategy,2023.2.3,Linux x86_64,59.88023952,4,1,6,0.229980787,0.401336094,1,0,0,1.5383,Peridotite_05,7,05,6,6,1.538,-0.075346073,-0.407262643,1,0,0,3.7661,Pegmatite_rect,6,3.766,0,5,0,5,0,1,,,,,,,,,,,,,
66296576ea9cd406efc12f7c,SCN,2024-06-24_13h48.48.419,LearnStrategy,2023.2.3,Linux x86_64,59.88023952,4,1,7,0.387082656,0.384670158,1,0,0,1.4347,Diorite_09,3,09,6,7,1.435,-0.337618192,-0.230765422,1,0,0,3.8742,Andesite_rect,1,3.874,0,6,0,6,0,1,,,,,,,,,,,,,
66296576ea9cd406efc12f7c,SCN,2024-06-24_13h48.48.419,LearnStrategy,2023.2.3,Linux x86_64,59.88023952,4,1,8,0.566236814,0.411113054,1,0,0,3.2085,Peridotite_04,7,04,6,8,3.208,-0.383731206,-0.235775709,1,0,0,2.5029,Andesite_rect,1,2.503,0,7,0,7,0,1,,,,,,,,,,,,,
66296576ea9cd406efc12f7c,SCN,2024-06-24_13h48.48.419,LearnStrategy,2023.2.3,Linux x86_64,59.88023952,4,1,9,-0.524627805,0.266984701,1,0,0,2.1548,Pumice_09,8,09,5,1,2.155,0.375845512,-0.378911734,1,0,0,2.2143,Pumice_rect,8,2.214,1,8,0,8,0,1,,,,,,,,,,,,,
66296576ea9cd406efc12f7c,SCN,2024-06-24_13h48.48.419,LearnStrategy,2023.2.3,Linux x86_64,59.88023952,4,1,10,-0.359345357,0.24429961,1,0,0,1.2038,Andesite_03,1,03,5,2,1.204,-0.171655337,-0.234493971,1,0,0,2.0334,Basalt_rect,2,2.033,0,9,0,9,0,1,,,,,,,,,,,,,
66296576ea9cd406efc12f7c,SCN,2024-06-24_13h48.48.419,LearnStrategy,2023.2.3,Linux x86_64,59.88023952,4,1,11,-0.223070939,0.221840362,1,0,0,2.7033,Peridotite_08,7,08,5,3,2.703,0.092316945,-0.381021738,1,0,0,1.6399,Peridotite_rect,7,1.64,1,10,0,10,0,1,,,,,,,,,,,,,
66296576ea9cd406efc12f7c,SCN,2024-06-24_13h48.48.419,LearnStrategy,2023.2.3,Linux x86_64,59.88023952,4,1,12,-0.085843086,0.275308192,1,0,0,1.0292,Obsidian_10,5,10,5,4,1.029,-0.322720607,-0.391027768,1,0,0,1.0522,Obsidian_rect,5,1.052,1,11,0,11,0,1,,,,,,,,,,,,,
66296576ea9cd406efc12f7c,SCN,2024-06-24_13h48.48.419,LearnStrategy,2023.2.3,Linux x86_64,59.88023952,4,1,13,0.119470517,0.270321945,1,0,0,1.2926,Andesite_01,1,01,5,5,1.293,0.150047143,-0.229376634,1,0,0,1.3415,Diorite_rect,3,1.341,0,12,0,12,0,1,,,,,,,,,,,,,
66296576ea9cd406efc12f7c,SCN,2024-06-24_13h48.48.419,LearnStrategy,2023.2.3,Linux x86_64,59.88023952,4,1,14,0.221863906,0.219653527,1,0,0,1.3301,Andesite_04,1,04,5,6,1.33,0.053706249,-0.22896107,1,0,0,2.628,Diorite_rect,3,2.628,0,13,0,13,0,1,,,,,,,,,,,,,
66296576ea9cd406efc12f7c,SCN,2024-06-24_13h48.48.419,LearnStrategy,2023.2.3,Linux x86_64,59.88023952,4,1,15,0.394306183,0.228580475,1,0,0,1.5316,Pegmatite_09,6,09,5,7,1.532,0.151508172,-0.394221465,1,0,0,1.9307,Peridotite_rect,7,1.931,0,14,0,14,0,1,,,,,,,,,,,,,
66296576ea9cd406efc12f7c,SCN,2024-06-24_13h48.48.419,LearnStrategy,2023.2.3,Linux x86_64,59.88023952,4,1,16,0.545561473,0.25246348,1,0,0,1.137,Obsidian_08,5,08,5,8,1.137,-0.434398651,-0.403895219,1,0,0,1.7647,Obsidian_rect,5,1.765,1,15,0,15,0,1,,,,,,,,,,,,,
66296576ea9cd406efc12f7c,SCN,2024-06-24_13h48.48.419,LearnStrategy,2023.2.3,Linux x86_64,59.88023952,4,2,1,,,,,,,,8,03,,,,,,,,,,,8,3.062,1,,,,,,0.385895411,-0.401539564,1,0,0,3.0622,Pumice_rect,0,0,0,0,1,
66296576ea9cd406efc12f7c,SCN,2024-06-24_13h48.48.419,LearnStrategy,2023.2.3,Linux x86_64,59.88023952,4,2,2,,,,,,,,6,07,,,,,,,,,,,6,5.618,1,,,,,,-0.094945192,-0.399437825,1,0,0,5.6177,Pegmatite_rect,1,0,1,0,1,
66296576ea9cd406efc12f7c,SCN,2024-06-24_13h48.48.419,LearnStrategy,2023.2.3,Linux x86_64,59.88023952,4,2,3,,,,,,,,5,16,,,,,,,,,,,5,1.221,1,,,,,,-0.379291614,-0.393980662,1,0,0,1.2211,Obsidian_rect,2,0,2,0,1,
66296576ea9cd406efc12f7c,SCN,2024-06-24_13h48.48.419,LearnStrategy,2023.2.3,Linux x86_64,59.88023952,4,2,4,,,,,,,,1,07,,,,,,,,,,,1,1.48,1,,,,,,-0.370153427,-0.245949348,1,0,0,1.4796,Andesite_rect,3,0,3,0,1,
66296576ea9cd406efc12f7c,SCN,2024-06-24_13h48.48.419,LearnStrategy,2023.2.3,Linux x86_64,59.88023952,4,2,5,,,,,,,,5,02,,,,,,,,,,,5,1.652,1,,,,,,-0.335793932,-0.414130926,1,0,0,1.6523,Obsidian_rect,4,0,4,0,1,
66296576ea9cd406efc12f7c,SCN,2024-06-24_13h48.48.419,LearnStrategy,2023.2.3,Linux x86_64,59.88023952,4,2,6,,,,,,,,8,08,,,,,,,,,,,3,2.819,0,,,,,,0.157953183,-0.239045302,1,0,0,2.8193,Diorite_rect,5,0,5,0,1,
66296576ea9cd406efc12f7c,SCN,2024-06-24_13h48.48.419,LearnStrategy,2023.2.3,Linux x86_64,59.88023952,4,2,7,,,,,,,,3,16,,,,,,,,,,,1,2.787,0,,,,,,-0.322023193,-0.254166285,1,0,0,2.7871,Andesite_rect,6,0,6,0,1,
66296576ea9cd406efc12f7c,SCN,2024-06-24_13h48.48.419,LearnStrategy,2023.2.3,Linux x86_64,59.88023952,4,2,8,,,,,,,,4,03,,,,,,,,,,,2,3.112,0,,,,,,-0.131952604,-0.258338133,1,0,0,3.1122,Basalt_rect,7,0,7,0,1,
66296576ea9cd406efc12f7c,SCN,2024-06-24_13h48.48.419,LearnStrategy,2023.2.3,Linux x86_64,59.88023952,4,2,9,,,,,,,,2,10,,,,,,,,,,,4,2.299,0,,,,,,0.348698775,-0.269676288,1,0,0,2.2988,Gabbro_rect,8,0,8,0,1,
66296576ea9cd406efc12f7c,SCN,2024-06-24_13h48.48.419,LearnStrategy,2023.2.3,Linux x86_64,59.88023952,4,2,10,,,,,,,,1,11,,,,,,,,,,,1,4.823,1,,,,,,-0.332531095,-0.241486629,1,0,0,4.8235,Andesite_rect,9,0,9,0,1,
66296576ea9cd406efc12f7c,SCN,2024-06-24_13h48.48.419,LearnStrategy,2023.2.3,Linux x86_64,59.88023952,4,2,11,,,,,,,,7,12,,,,,,,,,,,7,1.947,1,,,,,,0.091055314,-0.409537236,1,0,0,1.9473,Peridotite_rect,10,0,10,0,1,
66296576ea9cd406efc12f7c,SCN,2024-06-24_13h48.48.419,LearnStrategy,2023.2.3,Linux x86_64,59.88023952,4,2,12,,,,,,,,3,15,,,,,,,,,,,4,1.757,0,,,,,,0.473626296,-0.238371372,1,0,0,1.7568,Gabbro_rect,11,0,11,0,1,
66296576ea9cd406efc12f7c,SCN,2024-06-24_13h48.48.419,LearnStrategy,2023.2.3,Linux x86_64,59.88023952,4,2,13,,,,,,,,4,05,,,,,,,,,,,7,1.926,0,,,,,,0.100808382,-0.393784682,1,0,0,1.9257,Peridotite_rect,12,0,12,0,1,
66296576ea9cd406efc12f7c,SCN,2024-06-24_13h48.48.419,LearnStrategy,2023.2.3,Linux x86_64,59.88023952,4,2,14,,,,,,,,6,06,,,,,,,,,,,1,7.649,0,,,,,,-0.382470369,-0.245986064,1,0,0,7.6487,Andesite_rect,13,0,13,0,1,
66296576ea9cd406efc12f7c,SCN,2024-06-24_13h48.48.419,LearnStrategy,2023.2.3,Linux x86_64,59.88023952,4,2,15,,,,,,,,7,14,,,,,,,,,,,7,1.793,1,,,,,,0.075768232,-0.41178449,1,0,0,1.7934,Peridotite_rect,14,0,14,0,1,
66296576ea9cd406efc12f7c,SCN,2024-06-24_13h48.48.419,LearnStrategy,2023.2.3,Linux x86_64,59.88023952,4,2,16,,,,,,,,2,16,,,,,,,,,,,4,2.709,0,,,,,,0.426714182,-0.249100606,1,0,0,2.7092,Gabbro_rect,15,0,15,0,1,
66296576ea9cd406efc12f7c,SCN,2024-06-24_13h48.48.419,LearnStrategy,2023.2.3,Linux x86_64,59.88023952,5,1,1,-0.061846097,-0.080020905,1,0,0,1.356,Diorite_14,3,14,3,4,1.356,-0.336858869,-0.253629446,1,0,0,6.4996,Andesite_rect,1,6.5,0,0,0,0,0,1,,,,,,,,,,,,,
66296576ea9cd406efc12f7c,SCN,2024-06-24_13h48.48.419,LearnStrategy,2023.2.3,Linux x86_64,59.88023952,5,1,2,0.071641366,-0.409290711,1,0,0,2.0026,Diorite_07,3,07,1,5,2.003,0.14595294,-0.2578849,1,0,0,2.2906,Diorite_rect,3,2.291,1,1,0,1,0,1,,,,,,,,,,,,,
66296576ea9cd406efc12f7c,SCN,2024-06-24_13h48.48.419,LearnStrategy,2023.2.3,Linux x86_64,59.88023952,5,1,3,0.601645311,-0.102004965,1,0,0,3.7612,Pegmatite_16,6,16,3,8,3.761,0.154914935,-0.246609688,1,0,0,2.1207,Diorite_rect,3,2.121,0,2,0,2,0,1,,,,,,,,,,,,,
66296576ea9cd406efc12f7c,SCN,2024-06-24_13h48.48.419,LearnStrategy,2023.2.3,Linux x86_64,59.88023952,5,1,4,0.404006481,-0.108717561,1,0,0,2.0687,Andesite_14,1,14,3,7,2.069,-0.093524933,-0.239547729,1,0,0,1.8595,Basalt_rect,2,1.86,0,3,0,3,0,1,,,,,,,,,,,,,
66296576ea9cd406efc12f7c,SCN,2024-06-24_13h48.48.419,LearnStrategy,2023.2.3,Linux x86_64,59.88023952,5,1,5,0.098403136,-0.435736577,1,0,0,3.0474,Diorite_07,3,07,1,5,3.047,0.125164747,-0.234409968,1,0,0,1.1808,Diorite_rect,3,1.181,1,4,0,4,0,1,,,,,,,,,,,,,
66296576ea9cd406efc12f7c,SCN,2024-06-24_13h48.48.419,LearnStrategy,2023.2.3,Linux x86_64,59.88023952,5,1,6,0.046043158,0.239978135,1,0,0,6.0757,Andesite_01,1,01,5,5,6.076,0.06135424,-0.258145173,1,0,0,2.1351,Diorite_rect,3,2.135,0,5,0,5,0,1,,,,,,,,,,,,,
66296576ea9cd406efc12f7c,SCN,2024-06-24_13h48.48.419,LearnStrategy,2023.2.3,Linux x86_64,59.88023952,5,1,7,-0.065045277,-0.089377999,1,0,0,1.0558,Diorite_14,3,14,3,4,1.056,0.141285976,-0.258671681,1,0,0,0.7873,Diorite_rect,3,0.787,1,6,0,6,0,1,,,,,,,,,,,,,
66296576ea9cd406efc12f7c,SCN,2024-06-24_13h48.48.419,LearnStrategy,2023.2.3,Linux x86_64,59.88023952,5,1,8,-0.230711261,0.064771493,1,0,0,1.3428,Diorite_06,3,06,4,3,1.343,0.075161298,-0.24100709,1,0,0,1.5114,Diorite_rect,3,1.511,1,7,0,7,0,1,,,,,,,,,,,,,
66296576ea9cd406efc12f7c,SCN,2024-06-24_13h48.48.419,LearnStrategy,2023.2.3,Linux x86_64,59.88023952,5,1,9,-0.393582225,0.129935344,1,0,0,1.2139,Basalt_05,2,05,4,2,1.214,-0.129313548,-0.251715422,1,0,0,1.9733,Basalt_rect,2,1.973,1,8,0,8,0,1,,,,,,,,,,,,,
66296576ea9cd406efc12f7c,SCN,2024-06-24_13h48.48.419,LearnStrategy,2023.2.3,Linux x86_64,59.88023952,5,1,10,0.247149785,0.245874365,1,0,0,2.6301,Andesite_04,1,04,5,6,2.63,0.108602603,-0.234174887,1,0,0,1.871,Diorite_rect,3,1.871,0,9,0,9,0,1,,,,,,,,,,,,,
66296576ea9cd406efc12f7c,SCN,2024-06-24_13h48.48.419,LearnStrategy,2023.2.3,Linux x86_64,59.88023952,5,1,11,0.102929751,0.09957846,1,0,0,2.6923,Pegmatite_15,6,15,4,5,2.692,-0.115241687,-0.400193373,1,0,0,3.3484,Pegmatite_rect,6,3.348,1,10,0,10,0,1,,,,,,,,,,,,,
66296576ea9cd406efc12f7c,SCN,2024-06-24_13h48.48.419,LearnStrategy,2023.2.3,Linux x86_64,59.88023952,5,1,12,0.037331978,0.054638902,1,0,0,3.9019,Pegmatite_15,6,15,4,5,3.902,-0.095902125,-0.412012895,1,0,0,1.9872,Pegmatite_rect,6,1.987,1,11,0,11,0,1,,,,,,,,,,,,,
66296576ea9cd406efc12f7c,SCN,2024-06-24_13h48.48.419,LearnStrategy,2023.2.3,Linux x86_64,59.88023952,5,1,13,-0.394086679,-0.250380278,1,0,0,2.2209,Pegmatite_11,6,11,2,2,2.221,-0.198708932,-0.40671277,1,0,0,2.8068,Pegmatite_rect,6,2.807,1,12,0,12,0,1,,,,,,,,,,,,,
66296576ea9cd406efc12f7c,SCN,2024-06-24_13h48.48.419,LearnStrategy,2023.2.3,Linux x86_64,59.88023952,5,1,14,-0.217526674,-0.088401755,1,0,0,1.8668,Pegmatite_08,6,08,3,3,1.867,-0.170747042,-0.412172,1,0,0,2.0996,Pegmatite_rect,6,2.1,1,13,0,13,0,1,,,,,,,,,,,,,
66296576ea9cd406efc12f7c,SCN,2024-06-24_13h48.48.419,LearnStrategy,2023.2.3,Linux x86_64,59.88023952,5,1,15,0.412404458,-0.261398315,1,0,0,4.3434,Basalt_09,2,09,2,7,4.343,-0.117987076,-0.241901,1,0,0,1.3652,Basalt_rect,2,1.365,1,14,0,14,0,1,,,,,,,,,,,,,
66296576ea9cd406efc12f7c,SCN,2024-06-24_13h48.48.419,LearnStrategy,2023.2.3,Linux x86_64,59.88023952,5,1,16,0.546332995,-0.25383385,1,0,0,1.0818,Gabbro_11,4,11,2,8,1.082,0.075403452,-0.268522819,1,0,0,2.0397,Diorite_rect,3,2.04,0,15,0,15,0,1,,,,,,,,,,,,,
66296576ea9cd406efc12f7c,SCN,2024-06-24_13h48.48.419,LearnStrategy,2023.2.3,Linux x86_64,59.88023952,5,2,1,,,,,,,,5,11,,,,,,,,,,,5,1.922,1,,,,,,-0.406203588,-0.411189,1,0,0,1.9216,Obsidian_rect,0,0,0,0,1,
66296576ea9cd406efc12f7c,SCN,2024-06-24_13h48.48.419,LearnStrategy,2023.2.3,Linux x86_64,59.88023952,5,2,2,,,,,,,,6,12,,,,,,,,,,,3,1.703,0,,,,,,0.1865592,-0.257656972,1,0,0,1.7034,Diorite_rect,1,0,1,0,1,
66296576ea9cd406efc12f7c,SCN,2024-06-24_13h48.48.419,LearnStrategy,2023.2.3,Linux x86_64,59.88023952,5,2,3,,,,,,,,3,10,,,,,,,,,,,4,4.38,0,,,,,,0.32939895,-0.235440334,1,0,0,4.3798,Gabbro_rect,2,0,2,0,1,
66296576ea9cd406efc12f7c,SCN,2024-06-24_13h48.48.419,LearnStrategy,2023.2.3,Linux x86_64,59.88023952,5,2,4,,,,,,,,1,16,,,,,,,,,,,6,5.548,0,,,,,,-0.187498411,-0.397298495,1,0,0,5.5481,Pegmatite_rect,3,0,3,0,1,
66296576ea9cd406efc12f7c,SCN,2024-06-24_13h48.48.419,LearnStrategy,2023.2.3,Linux x86_64,59.88023952,5,2,5,,,,,,,,4,09,,,,,,,,,,,5,1.972,0,,,,,,-0.390273372,-0.400341352,1,0,0,1.9723,Obsidian_rect,4,0,4,0,1,
66296576ea9cd406efc12f7c,SCN,2024-06-24_13h48.48.419,LearnStrategy,2023.2.3,Linux x86_64,59.88023952,5,2,6,,,,,,,,2,06,,,,,,,,,,,5,0.866,0,,,,,,-0.380581856,-0.393181086,1,0,0,0.8664,Obsidian_rect,5,0,5,0,1,
66296576ea9cd406efc12f7c,SCN,2024-06-24_13h48.48.419,LearnStrategy,2023.2.3,Linux x86_64,59.88023952,5,2,7,,,,,,,,8,15,,,,,,,,,,,8,1.598,1,,,,,,0.40998594,-0.395669937,1,0,0,1.598,Pumice_rect,6,0,6,0,1,
66296576ea9cd406efc12f7c,SCN,2024-06-24_13h48.48.419,LearnStrategy,2023.2.3,Linux x86_64,59.88023952,5,2,8,,,,,,,,8,06,,,,,,,,,,,8,1.46,1,,,,,,0.397343953,-0.406195005,1,0,0,1.4604,Pumice_rect,7,0,7,0,1,
66296576ea9cd406efc12f7c,SCN,2024-06-24_13h48.48.419,LearnStrategy,2023.2.3,Linux x86_64,59.88023952,5,2,9,,,,,,,,5,06,,,,,,,,,,,5,5.346,1,,,,,,-0.377493302,-0.403943221,1,0,0,5.3457,Obsidian_rect,8,0,8,0,1,
66296576ea9cd406efc12f7c,SCN,2024-06-24_13h48.48.419,LearnStrategy,2023.2.3,Linux x86_64,59.88023952,5,2,10,,,,,,,,3,08,,,,,,,,,,,3,1.812,1,,,,,,0.086820046,-0.229219993,1,0,0,1.8118,Diorite_rect,9,0,9,0,1,
66296576ea9cd406efc12f7c,SCN,2024-06-24_13h48.48.419,LearnStrategy,2023.2.3,Linux x86_64,59.88023952,5,2,11,,,,,,,,4,16,,,,,,,,,,,4,1.797,1,,,,,,0.443093379,-0.235850096,1,0,0,1.7973,Gabbro_rect,10,0,10,0,1,
66296576ea9cd406efc12f7c,SCN,2024-06-24_13h48.48.419,LearnStrategy,2023.2.3,Linux x86_64,59.88023952,5,2,12,,,,,,,,7,06,,,,,,,,,,,7,1.582,1,,,,,,0.073710839,-0.400251945,1,0,0,1.5822,Peridotite_rect,11,0,11,0,1,
66296576ea9cd406efc12f7c,SCN,2024-06-24_13h48.48.419,LearnStrategy,2023.2.3,Linux x86_64,59.88023952,5,2,13,,,,,,,,6,13,,,,,,,,,,,6,10.48,1,,,,,,-0.16666158,-0.404747725,1,0,0,10.4796,Pegmatite_rect,12,0,12,0,1,
66296576ea9cd406efc12f7c,SCN,2024-06-24_13h48.48.419,LearnStrategy,2023.2.3,Linux x86_64,59.88023952,5,2,14,,,,,,,,7,16,,,,,,,,,,,7,2.46,1,,,,,,0.146197955,-0.408739408,1,0,0,2.46,Peridotite_rect,13,0,13,0,1,
66296576ea9cd406efc12f7c,SCN,2024-06-24_13h48.48.419,LearnStrategy,2023.2.3,Linux x86_64,59.88023952,5,2,15,,,,,,,,1,05,,,,,,,,,,,3,1.798,0,,,,,,0.192270835,-0.262358268,1,0,0,1.7984,Diorite_rect,14,0,14,0,1,
66296576ea9cd406efc12f7c,SCN,2024-06-24_13h48.48.419,LearnStrategy,2023.2.3,Linux x86_64,59.88023952,5,2,16,,,,,,,,2,04,,,,,,,,,,,2,2.841,1,,,,,,-0.159756184,-0.242267529,1,0,0,2.8413,Basalt_rect,15,0,15,0,1,
66296576ea9cd406efc12f7c,SCN,2024-06-24_13h48.48.419,LearnStrategy,2023.2.3,Linux x86_64,59.88023952,6,1,1,0.573106448,-0.100372752,1,0,0,2.0973,Pegmatite_16,6,16,3,8,2.097,0.148382425,-0.261845509,1,0,0,1.3628,Diorite_rect,3,1.363,0,0,0,0,0,1,,,,,,,,,,,,,
66296576ea9cd406efc12f7c,SCN,2024-06-24_13h48.48.419,LearnStrategy,2023.2.3,Linux x86_64,59.88023952,6,1,2,0.41314292,-0.107798855,1,0,0,1.4744,Andesite_14,1,14,3,7,1.474,0.048629204,-0.246192217,1,0,0,2.5514,Diorite_rect,3,2.551,0,1,0,1,0,1,,,,,,,,,,,,,
66296576ea9cd406efc12f7c,SCN,2024-06-24_13h48.48.419,LearnStrategy,2023.2.3,Linux x86_64,59.88023952,6,1,3,-0.048761288,-0.09914573,1,0,0,2.6755,Diorite_14,3,14,3,4,2.675,0.090849559,-0.236163378,1,0,0,1.1301,Diorite_rect,3,1.13,1,2,0,2,0,1,,,,,,,,,,,,,
66296576ea9cd406efc12f7c,SCN,2024-06-24_13h48.48.419,LearnStrategy,2023.2.3,Linux x86_64,59.88023952,6,1,4,0.382699966,-0.13525176,1,0,0,1.3924,Andesite_14,1,14,3,7,1.392,-0.378140529,-0.254028241,1,0,0,2.1378,Andesite_rect,1,2.138,1,3,0,3,0,1,,,,,,,,,,,,,
66296576ea9cd406efc12f7c,SCN,2024-06-24_13h48.48.419,LearnStrategy,2023.2.3,Linux x86_64,59.88023952,6,1,5,-0.527954062,-0.087114493,1,0,0,1.5839,Gabbro_13,4,13,3,1,1.584,0.336571455,-0.248247147,1,0,0,1.4195,Gabbro_rect,4,1.419,1,4,0,4,0,1,,,,,,,,,,,,,
66296576ea9cd406efc12f7c,SCN,2024-06-24_13h48.48.419,LearnStrategy,2023.2.3,Linux x86_64,59.88023952,6,1,6,-0.382508516,-0.434631586,1,0,0,3.0278,Obsidian_05,5,05,1,2,3.028,-0.450638652,-0.411906242,1,0,0,2.5137,Obsidian_rect,5,2.514,1,5,0,5,0,1,,,,,,,,,,,,,
66296576ea9cd406efc12f7c,SCN,2024-06-24_13h48.48.419,LearnStrategy,2023.2.3,Linux x86_64,59.88023952,6,1,7,0.266360998,0.087741097,1,0,0,1.7997,Diorite_11,3,11,4,6,1.8,-0.1851089,-0.41275239,1,0,0,2.4617,Pegmatite_rect,6,2.462,0,6,0,6,0,1,,,,,,,,,,,,,
66296576ea9cd406efc12f7c,SCN,2024-06-24_13h48.48.419,LearnStrategy,2023.2.3,Linux x86_64,59.88023952,6,1,8,0.097508351,0.085522532,1,0,0,1.0178,Pegmatite_15,6,15,4,5,1.018,-0.089639902,-0.407098373,1,0,0,3.9743,Pegmatite_rect,6,3.974,1,7,0,7,0,1,,,,,,,,,,,,,
66296576ea9cd406efc12f7c,SCN,2024-06-24_13h48.48.419,LearnStrategy,2023.2.3,Linux x86_64,59.88023952,6,1,9,-0.354118307,0.090176741,1,0,0,2.445,Basalt_05,2,05,4,2,2.445,-0.172831933,-0.23900795,1,0,0,1.4064,Basalt_rect,2,1.406,1,8,0,8,0,1,,,,,,,,,,,,,
66296576ea9cd406efc12f7c,SCN,2024-06-24_13h48.48.419,LearnStrategy,2023.2.3,Linux x86_64,59.88023952,6,1,10,-0.205777963,0.37624977,1,0,0,1.852,Pumice_10,8,10,6,3,1.852,0.371635914,-0.401445945,1,0,0,1.5678,Pumice_rect,8,1.568,1,9,0,9,0,1,,,,,,,,,,,,,
66296576ea9cd406efc12f7c,SCN,2024-06-24_13h48.48.419,LearnStrategy,2023.2.3,Linux x86_64,59.88023952,6,1,11,0.127491236,0.413656652,1,0,0,1.2054,Basalt_14,2,14,6,5,1.205,0.3516167,-0.237196763,1,0,0,2.2009,Gabbro_rect,4,2.201,0,10,0,10,0,1,,,,,,,,,,,,,
66296576ea9cd406efc12f7c,SCN,2024-06-24_13h48.48.419,LearnStrategy,2023.2.3,Linux x86_64,59.88023952,6,1,12,-0.232457121,0.056801518,1,0,0,1.498,Diorite_06,3,06,4,3,1.498,-0.327228069,-0.242779334,1,0,0,3.0713,Andesite_rect,1,3.071,0,11,0,11,0,1,,,,,,,,,,,,,
66296576ea9cd406efc12f7c,SCN,2024-06-24_13h48.48.419,LearnStrategy,2023.2.3,Linux x86_64,59.88023952,6,1,13,0.090807915,-0.358249108,1,0,0,2.113,Diorite_07,3,07,1,5,2.113,0.116406282,-0.255453587,1,0,0,1.3446,Diorite_rect,3,1.345,1,12,0,12,0,1,,,,,,,,,,,,,
66296576ea9cd406efc12f7c,SCN,2024-06-24_13h48.48.419,LearnStrategy,2023.2.3,Linux x86_64,59.88023952,6,1,14,0.128205061,-0.110571901,1,0,0,1.1872,Pumice_13,8,13,3,5,1.187,0.372325102,-0.40009292,1,0,0,2.0346,Pumice_rect,8,2.035,1,13,0,13,0,1,,,,,,,,,,,,,
66296576ea9cd406efc12f7c,SCN,2024-06-24_13h48.48.419,LearnStrategy,2023.2.3,Linux x86_64,59.88023952,6,1,15,-0.237387578,-0.083894213,1,0,0,1.302,Pegmatite_08,6,08,3,3,1.302,-0.178606351,-0.419680198,1,0,0,3.3157,Pegmatite_rect,6,3.316,1,14,0,14,0,1,,,,,,,,,,,,,
66296576ea9cd406efc12f7c,SCN,2024-06-24_13h48.48.419,LearnStrategy,2023.2.3,Linux x86_64,59.88023952,6,1,16,-0.39204069,-0.081702113,1,0,0,2.5098,Gabbro_10,4,10,3,2,2.51,0.38512818,-0.387152116,1,0,0,1.7478,Pumice_rect,8,1.748,0,15,0,15,0,1,,,,,,,,,,,,,
66296576ea9cd406efc12f7c,SCN,2024-06-24_13h48.48.419,LearnStrategy,2023.2.3,Linux x86_64,59.88023952,6,2,1,,,,,,,,3,02,,,,,,,,,,,3,2.798,1,,,,,,0.173308293,-0.260514975,1,0,0,2.7976,Diorite_rect,0,0,0,0,1,
66296576ea9cd406efc12f7c,SCN,2024-06-24_13h48.48.419,LearnStrategy,2023.2.3,Linux x86_64,59.88023952,6,2,2,,,,,,,,4,08,,,,,,,,,,,2,9.169,0,,,,,,-0.043100754,-0.232895772,1,0,0,9.1693,Basalt_rect,1,0,1,0,1,
66296576ea9cd406efc12f7c,SCN,2024-06-24_13h48.48.419,LearnStrategy,2023.2.3,Linux x86_64,59.88023952,6,2,3,,,,,,,,6,05,,,,,,,,,,,3,2.853,0,,,,,,0.10621953,-0.237656991,1,0,0,2.8531,Diorite_rect,2,0,2,0,1,
66296576ea9cd406efc12f7c,SCN,2024-06-24_13h48.48.419,LearnStrategy,2023.2.3,Linux x86_64,59.88023952,6,2,4,,,,,,,,4,14,,,,,,,,,,,2,2.537,0,,,,,,-0.135310809,-0.238875707,1,0,0,2.5373,Basalt_rect,3,0,3,0,1,
66296576ea9cd406efc12f7c,SCN,2024-06-24_13h48.48.419,LearnStrategy,2023.2.3,Linux x86_64,59.88023952,6,2,5,,,,,,,,3,12,,,,,,,,,,,3,1.33,1,,,,,,0.077836911,-0.235157172,1,0,0,1.33,Diorite_rect,4,0,4,0,1,
66296576ea9cd406efc12f7c,SCN,2024-06-24_13h48.48.419,LearnStrategy,2023.2.3,Linux x86_64,59.88023952,6,2,6,,,,,,,,6,10,,,,,,,,,,,7,1.973,0,,,,,,0.082829316,-0.393039783,1,0,0,1.9734,Peridotite_rect,5,0,5,0,1,
66296576ea9cd406efc12f7c,SCN,2024-06-24_13h48.48.419,LearnStrategy,2023.2.3,Linux x86_64,59.88023952,6,2,7,,,,,,,,8,02,,,,,,,,,,,8,1.81,1,,,,,,0.441964229,-0.415494998,1,0,0,1.8104,Pumice_rect,6,0,6,0,1,
66296576ea9cd406efc12f7c,SCN,2024-06-24_13h48.48.419,LearnStrategy,2023.2.3,Linux x86_64,59.88023952,6,2,8,,,,,,,,1,02,,,,,,,,,,,1,3.833,1,,,,,,-0.39136668,-0.236654838,1,0,0,3.8334,Andesite_rect,7,0,7,0,1,
66296576ea9cd406efc12f7c,SCN,2024-06-24_13h48.48.419,LearnStrategy,2023.2.3,Linux x86_64,59.88023952,6,2,9,,,,,,,,5,12,,,,,,,,,,,5,1.004,1,,,,,,-0.384478688,-0.401225805,1,0,0,1.0043,Obsidian_rect,8,0,8,0,1,
66296576ea9cd406efc12f7c,SCN,2024-06-24_13h48.48.419,LearnStrategy,2023.2.3,Linux x86_64,59.88023952,6,2,10,,,,,,,,8,14,,,,,,,,,,,8,1.688,1,,,,,,0.432489554,-0.389398893,1,0,0,1.6877,Pumice_rect,9,0,9,0,1,
66296576ea9cd406efc12f7c,SCN,2024-06-24_13h48.48.419,LearnStrategy,2023.2.3,Linux x86_64,59.88023952,6,2,11,,,,,,,,2,11,,,,,,,,,,,8,1.672,0,,,,,,0.432489554,-0.389398893,1,0,0,1.6724,Pumice_rect,10,0,10,0,1,
66296576ea9cd406efc12f7c,SCN,2024-06-24_13h48.48.419,LearnStrategy,2023.2.3,Linux x86_64,59.88023952,6,2,12,,,,,,,,5,14,,,,,,,,,,,5,1.678,1,,,,,,-0.403676828,-0.397842884,1,0,0,1.6779,Obsidian_rect,11,0,11,0,1,
66296576ea9cd406efc12f7c,SCN,2024-06-24_13h48.48.419,LearnStrategy,2023.2.3,Linux x86_64,59.88023952,6,2,13,,,,,,,,7,02,,,,,,,,,,,7,1.807,1,,,,,,0.153671741,-0.39522934,1,0,0,1.8073,Peridotite_rect,12,0,12,0,1,
66296576ea9cd406efc12f7c,SCN,2024-06-24_13h48.48.419,LearnStrategy,2023.2.3,Linux x86_64,59.88023952,6,2,14,,,,,,,,7,10,,,,,,,,,,,7,1.102,1,,,,,,0.146407922,-0.396034718,1,0,0,1.1018,Peridotite_rect,13,0,13,0,1,
66296576ea9cd406efc12f7c,SCN,2024-06-24_13h48.48.419,LearnStrategy,2023.2.3,Linux x86_64,59.88023952,6,2,15,,,,,,,,1,06,,,,,,,,,,,3,2.052,0,,,,,,0.154057821,-0.240845203,1,0,0,2.0518,Diorite_rect,14,0,14,0,1,
66296576ea9cd406efc12f7c,SCN,2024-06-24_13h48.48.419,LearnStrategy,2023.2.3,Linux x86_64,59.88023952,6,2,16,,,,,,,,2,12,,,,,,,,,,,8,1.465,0,,,,,,0.408279498,-0.399578571,1,0,0,1.4646,Pumice_rect,15,0,15,0,1,
66296576ea9cd406efc12f7c,SCN,2024-06-24_13h48.48.419,LearnStrategy,2023.2.3,Linux x86_64,59.88023952,7,1,1,0.259798129,-0.277441343,1,0,0,6.8683,Gabbro_15,4,15,2,6,6.868,-0.392342448,-0.238828897,1,0,0,4.601,Andesite_rect,1,4.601,0,0,0,0,0,1,,,,,,,,,,,,,
66296576ea9cd406efc12f7c,SCN,2024-06-24_13h48.48.419,LearnStrategy,2023.2.3,Linux x86_64,59.88023952,7,1,2,-0.366254489,-0.265270154,1,0,0,4.0114,Pegmatite_11,6,11,2,2,4.011,-0.366254489,-0.265270154,1,0,0,2.7103,Andesite_rect,1,2.71,0,1,0,1,0,1,,,,,,,,,,,,,
66296576ea9cd406efc12f7c,SCN,2024-06-24_13h48.48.419,LearnStrategy,2023.2.3,Linux x86_64,59.88023952,7,1,3,0.117503007,0.123005191,1,0,0,7.578,Pegmatite_15,6,15,4,5,7.578,-0.191585859,-0.408850114,1,0,0,2.1596,Pegmatite_rect,6,2.16,1,2,0,2,0,1,,,,,,,,,,,,,
66296576ea9cd406efc12f7c,SCN,2024-06-24_13h48.48.419,LearnStrategy,2023.2.3,Linux x86_64,59.88023952,7,1,4,-0.382710616,-0.412024736,1,0,0,2.0941,Obsidian_05,5,05,1,2,2.094,-0.336674611,-0.389422417,1,0,0,2.244,Obsidian_rect,5,2.244,1,3,0,3,0,1,,,,,,,,,,,,,
66296576ea9cd406efc12f7c,SCN,2024-06-24_13h48.48.419,LearnStrategy,2023.2.3,Linux x86_64,59.88023952,7,1,5,0.117357175,-0.106662472,1,0,0,3.4656,Pumice_13,8,13,3,5,3.466,0.3800927,-0.412756761,1,0,0,2.0536,Pumice_rect,8,2.054,1,4,0,4,0,1,,,,,,,,,,,,,
66296576ea9cd406efc12f7c,SCN,2024-06-24_13h48.48.419,LearnStrategy,2023.2.3,Linux x86_64,59.88023952,7,1,6,-0.360711535,0.384517203,1,0,0,1.9021,Peridotite_07,7,07,6,2,1.902,0.148818572,-0.394612551,1,0,0,1.8396,Peridotite_rect,7,1.84,1,5,0,5,0,1,,,,,,,,,,,,,
66296576ea9cd406efc12f7c,SCN,2024-06-24_13h48.48.419,LearnStrategy,2023.2.3,Linux x86_64,59.88023952,7,1,7,-0.237976948,0.415458043,1,0,0,1.1841,Pumice_10,8,10,6,3,1.184,0.334029357,-0.390363693,1,0,0,1.4139,Pumice_rect,8,1.414,1,6,0,6,0,1,,,,,,,,,,,,,
66296576ea9cd406efc12f7c,SCN,2024-06-24_13h48.48.419,LearnStrategy,2023.2.3,Linux x86_64,59.88023952,7,1,8,-0.033220689,0.3865454,1,0,0,1.0437,Peridotite_15,7,15,6,4,1.044,0.151768843,-0.393469413,1,0,0,2.2262,Peridotite_rect,7,2.226,1,7,0,7,0,1,,,,,,,,,,,,,
66296576ea9cd406efc12f7c,SCN,2024-06-24_13h48.48.419,LearnStrategy,2023.2.3,Linux x86_64,59.88023952,7,1,9,0.123168786,0.402559479,1,0,0,1.2117,Basalt_14,2,14,6,5,1.212,-0.394101381,-0.248726606,1,0,0,2.7775,Andesite_rect,1,2.777,0,8,0,8,0,1,,,,,,,,,,,,,
66296576ea9cd406efc12f7c,SCN,2024-06-24_13h48.48.419,LearnStrategy,2023.2.3,Linux x86_64,59.88023952,7,1,10,0.575602531,0.410501371,1,0,0,2.8454,Peridotite_04,7,04,6,8,2.845,-0.211666902,-0.242226521,1,0,0,1.6796,Basalt_rect,2,1.68,0,9,0,9,0,1,,,,,,,,,,,,,
66296576ea9cd406efc12f7c,SCN,2024-06-24_13h48.48.419,LearnStrategy,2023.2.3,Linux x86_64,59.88023952,7,1,11,0.055183093,0.227826099,1,0,0,3.8656,Andesite_01,1,01,5,5,3.866,0.060696999,-0.407256365,1,0,0,3.1515,Peridotite_rect,7,3.151,0,10,0,10,0,1,,,,,,,,,,,,,
66296576ea9cd406efc12f7c,SCN,2024-06-24_13h48.48.419,LearnStrategy,2023.2.3,Linux x86_64,59.88023952,7,1,12,-0.388318141,0.114209255,1,0,0,2.9059,Basalt_05,2,05,4,2,2.906,-0.129414241,-0.248939117,1,0,0,1.2035,Basalt_rect,2,1.204,1,11,0,11,0,1,,,,,,,,,,,,,
66296576ea9cd406efc12f7c,SCN,2024-06-24_13h48.48.419,LearnStrategy,2023.2.3,Linux x86_64,59.88023952,7,1,13,0.06390818,-0.132599195,1,0,0,1.0363,Pumice_13,8,13,3,5,1.036,0.346733252,-0.234003782,1,0,0,3.0102,Gabbro_rect,4,3.01,0,12,0,12,0,1,,,,,,,,,,,,,
66296576ea9cd406efc12f7c,SCN,2024-06-24_13h48.48.419,LearnStrategy,2023.2.3,Linux x86_64,59.88023952,7,1,14,0.268111944,-0.266085307,1,0,0,1.5769,Gabbro_15,4,15,2,6,1.577,-0.328838547,-0.241453568,1,0,0,1.5567,Andesite_rect,1,1.557,0,13,0,13,0,1,,,,,,,,,,,,,
66296576ea9cd406efc12f7c,SCN,2024-06-24_13h48.48.419,LearnStrategy,2023.2.3,Linux x86_64,59.88023952,7,1,15,0.538862864,-0.417996486,1,0,0,1.8954,Pegmatite_03,6,03,1,8,1.895,0.162722588,-0.421410561,1,0,0,1.5017,Peridotite_rect,7,1.502,0,14,0,14,0,1,,,,,,,,,,,,,
66296576ea9cd406efc12f7c,SCN,2024-06-24_13h48.48.419,LearnStrategy,2023.2.3,Linux x86_64,59.88023952,7,1,16,0.371217012,-0.403386354,1,0,0,1.519,Pumice_05,8,05,1,7,1.519,0.363511562,-0.385622342,1,0,0,0.9412,Pumice_rect,8,0.941,1,15,0,15,0,1,,,,,,,,,,,,,
66296576ea9cd406efc12f7c,SCN,2024-06-24_13h48.48.419,LearnStrategy,2023.2.3,Linux x86_64,59.88023952,7,2,1,,,,,,,,5,12,,,,,,,,,,,5,2.399,1,,,,,,-0.385111928,-0.405562719,1,0,0,2.399,Obsidian_rect,0,0,0,0,1,
66296576ea9cd406efc12f7c,SCN,2024-06-24_13h48.48.419,LearnStrategy,2023.2.3,Linux x86_64,59.88023952,7,2,2,,,,,,,,1,07,,,,,,,,,,,6,5.632,0,,,,,,-0.167506218,-0.40360872,1,0,0,5.6316,Pegmatite_rect,1,0,1,0,1,
66296576ea9cd406efc12f7c,SCN,2024-06-24_13h48.48.419,LearnStrategy,2023.2.3,Linux x86_64,59.88023952,7,2,3,,,,,,,,7,02,,,,,,,,,,,7,2.023,1,,,,,,0.08162276,-0.385001659,1,0,0,2.0228,Peridotite_rect,2,0,2,0,1,
66296576ea9cd406efc12f7c,SCN,2024-06-24_13h48.48.419,LearnStrategy,2023.2.3,Linux x86_64,59.88023952,7,2,4,,,,,,,,1,16,,,,,,,,,,,3,2.573,0,,,,,,0.073902051,-0.260596196,1,0,0,2.5726,Diorite_rect,3,0,3,0,1,
66296576ea9cd406efc12f7c,SCN,2024-06-24_13h48.48.419,LearnStrategy,2023.2.3,Linux x86_64,59.88023952,7,2,5,,,,,,,,3,15,,,,,,,,,,,4,3.407,0,,,,,,0.333648046,-0.248801231,1,0,0,3.4067,Gabbro_rect,4,0,4,0,1,
66296576ea9cd406efc12f7c,SCN,2024-06-24_13h48.48.419,LearnStrategy,2023.2.3,Linux x86_64,59.88023952,7,2,6,,,,,,,,5,06,,,,,,,,,,,5,2.192,1,,,,,,-0.41369168,-0.410504103,1,0,0,2.1922,Obsidian_rect,5,0,5,0,1,
66296576ea9cd406efc12f7c,SCN,2024-06-24_13h48.48.419,LearnStrategy,2023.2.3,Linux x86_64,59.88023952,7,2,7,,,,,,,,8,08,,,,,,,,,,,8,1.415,1,,,,,,0.314844608,-0.392948071,1,0,0,1.4148,Pumice_rect,6,0,6,0,1,
66296576ea9cd406efc12f7c,SCN,2024-06-24_13h48.48.419,LearnStrategy,2023.2.3,Linux x86_64,59.88023952,7,2,8,,,,,,,,6,06,,,,,,,,,,,6,9.292,1,,,,,,-0.049464862,-0.421667417,1,0,0,9.292,Pegmatite_rect,7,0,7,0,1,
66296576ea9cd406efc12f7c,SCN,2024-06-24_13h48.48.419,LearnStrategy,2023.2.3,Linux x86_64,59.88023952,7,2,9,,,,,,,,8,02,,,,,,,,,,,8,1.124,1,,,,,,0.50588131,-0.391205072,1,0,0,1.1235,Pumice_rect,8,0,8,0,1,
66296576ea9cd406efc12f7c,SCN,2024-06-24_13h48.48.419,LearnStrategy,2023.2.3,Linux x86_64,59.88023952,7,2,10,,,,,,,,2,12,,,,,,,,,,,8,1.746,0,,,,,,0.337229013,-0.404174566,1,0,0,1.7464,Pumice_rect,9,0,9,0,1,
66296576ea9cd406efc12f7c,SCN,2024-06-24_13h48.48.419,LearnStrategy,2023.2.3,Linux x86_64,59.88023952,7,2,11,,,,,,,,4,08,,,,,,,,,,,2,3.249,0,,,,,,-0.134178956,-0.261935075,1,0,0,3.2489,Basalt_rect,10,0,10,0,1,
66296576ea9cd406efc12f7c,SCN,2024-06-24_13h48.48.419,LearnStrategy,2023.2.3,Linux x86_64,59.88023952,7,2,12,,,,,,,,4,16,,,,,,,,,,,4,1.744,1,,,,,,0.418096383,-0.247508605,1,0,0,1.7439,Gabbro_rect,11,0,11,0,1,
66296576ea9cd406efc12f7c,SCN,2024-06-24_13h48.48.419,LearnStrategy,2023.2.3,Linux x86_64,59.88023952,7,2,13,,,,,,,,2,16,,,,,,,,,,,4,0.827,0,,,,,,0.418096383,-0.247508605,1,0,0,0.8268,Gabbro_rect,12,0,12,0,1,
66296576ea9cd406efc12f7c,SCN,2024-06-24_13h48.48.419,LearnStrategy,2023.2.3,Linux x86_64,59.88023952,7,2,14,,,,,,,,7,16,,,,,,,,,,,7,1.868,1,,,,,,0.110154152,-0.400222063,1,0,0,1.868,Peridotite_rect,13,0,13,0,1,
66296576ea9cd406efc12f7c,SCN,2024-06-24_13h48.48.419,LearnStrategy,2023.2.3,Linux x86_64,59.88023952,7,2,15,,,,,,,,3,08,,,,,,,,,,,1,3.391,0,,,,,,-0.351094762,-0.244368076,1,0,0,3.391,Andesite_rect,14,0,14,0,1,
66296576ea9cd406efc12f7c,SCN,2024-06-24_13h48.48.419,LearnStrategy,2023.2.3,Linux x86_64,59.88023952,7,2,16,,,,,,,,6,07,,,,,,,,,,,6,2.219,1,,,,,,-0.117995421,-0.416497628,1,0,0,2.2194,Pegmatite_rect,15,0,15,0,1,
66296576ea9cd406efc12f7c,SCN,2024-06-24_13h48.48.419,LearnStrategy,2023.2.3,Linux x86_64,59.88023952,8,1,1,-0.206223249,-0.092053135,1,0,0,2.1147,Pegmatite_08,6,08,3,3,2.115,-0.35489281,-0.241838773,1,0,0,2.0655,Andesite_rect,1,2.065,0,0,0,0,0,1,,,,,,,,,,,,,
66296576ea9cd406efc12f7c,SCN,2024-06-24_13h48.48.419,LearnStrategy,2023.2.3,Linux x86_64,59.88023952,8,1,2,-0.366793911,-0.249555429,1,0,0,3.4179,Pegmatite_11,6,11,2,2,3.418,-0.090348323,-0.389937401,1,0,0,1.5282,Pegmatite_rect,6,1.528,1,1,0,1,0,1,,,,,,,,,,,,,
66296576ea9cd406efc12f7c,SCN,2024-06-24_13h48.48.419,LearnStrategy,2023.2.3,Linux x86_64,59.88023952,8,1,3,-0.089130958,-0.080664794,1,0,0,1.0612,Diorite_14,3,14,3,4,1.061,-0.329782923,-0.235223134,1,0,0,2.197,Andesite_rect,1,2.197,0,2,0,2,0,1,,,,,,,,,,,,,
66296576ea9cd406efc12f7c,SCN,2024-06-24_13h48.48.419,LearnStrategy,2023.2.3,Linux x86_64,59.88023952,8,1,4,0.050831954,-0.403034608,1,0,0,1.5993,Diorite_07,3,07,1,5,1.599,0.071210543,-0.242830038,1,0,0,1.144,Diorite_rect,3,1.144,1,3,0,3,0,1,,,,,,,,,,,,,
66296576ea9cd406efc12f7c,SCN,2024-06-24_13h48.48.419,LearnStrategy,2023.2.3,Linux x86_64,59.88023952,8,1,5,0.385835409,-0.234371026,1,0,0,11.9459,Basalt_09,2,09,2,7,11.946,-0.089489539,-0.254342477,1,0,0,1.1866,Basalt_rect,2,1.187,1,4,0,4,0,1,,,,,,,,,,,,,
66296576ea9cd406efc12f7c,SCN,2024-06-24_13h48.48.419,LearnStrategy,2023.2.3,Linux x86_64,59.88023952,8,1,6,0.531151136,-0.236633857,1,0,0,1.052,Gabbro_11,4,11,2,8,1.052,-0.151163896,-0.252558311,1,0,0,1.3929,Basalt_rect,2,1.393,0,5,0,5,0,1,,,,,,,,,,,,,
66296576ea9cd406efc12f7c,SCN,2024-06-24_13h48.48.419,LearnStrategy,2023.2.3,Linux x86_64,59.88023952,8,1,7,0.071613391,-0.115300457,1,0,0,1.1716,Pumice_13,8,13,3,5,1.172,0.405740976,-0.386388063,1,0,0,1.3385,Pumice_rect,8,1.338,1,6,0,6,0,1,,,,,,,,,,,,,
66296576ea9cd406efc12f7c,SCN,2024-06-24_13h48.48.419,LearnStrategy,2023.2.3,Linux x86_64,59.88023952,8,1,8,-0.390264948,-0.410830736,1,0,0,4.0709,Obsidian_05,5,05,1,2,4.071,-0.349083742,-0.386462132,1,0,0,1.6818,Obsidian_rect,5,1.682,1,7,0,7,0,1,,,,,,,,,,,,,
66296576ea9cd406efc12f7c,SCN,2024-06-24_13h48.48.419,LearnStrategy,2023.2.3,Linux x86_64,59.88023952,8,1,9,-0.213688056,-0.400839408,1,0,0,1.3444,Gabbro_12,4,12,1,3,1.344,-0.143040737,-0.231732607,1,0,0,1.3118,Basalt_rect,2,1.312,0,8,0,8,0,1,,,,,,,,,,,,,
66296576ea9cd406efc12f7c,SCN,2024-06-24_13h48.48.419,LearnStrategy,2023.2.3,Linux x86_64,59.88023952,8,1,10,0.100851536,-0.127309362,1,0,0,1.3365,Pumice_13,8,13,3,5,1.337,0.346081416,-0.243275325,1,0,0,1.7414,Gabbro_rect,4,1.741,0,9,0,9,0,1,,,,,,,,,,,,,
66296576ea9cd406efc12f7c,SCN,2024-06-24_13h48.48.419,LearnStrategy,2023.2.3,Linux x86_64,59.88023952,8,1,11,0.045291344,0.225644966,1,0,0,2.881,Andesite_01,1,01,5,5,2.881,0.154747725,-0.257907152,1,0,0,1.3482,Diorite_rect,3,1.348,0,10,0,10,0,1,,,,,,,,,,,,,
66296576ea9cd406efc12f7c,SCN,2024-06-24_13h48.48.419,LearnStrategy,2023.2.3,Linux x86_64,59.88023952,8,1,12,0.211260875,0.239524066,1,0,0,3.1085,Andesite_04,1,04,5,6,3.108,-0.102748473,-0.400395632,1,0,0,1.8682,Pegmatite_rect,6,1.868,0,11,0,11,0,1,,,,,,,,,,,,,
66296576ea9cd406efc12f7c,SCN,2024-06-24_13h48.48.419,LearnStrategy,2023.2.3,Linux x86_64,59.88023952,8,1,13,-0.208959421,0.216338515,1,0,0,3.1992,Peridotite_08,7,08,5,3,3.199,0.346475204,-0.389425437,1,0,0,2.1444,Pumice_rect,8,2.144,0,12,0,12,0,1,,,,,,,,,,,,,
66296576ea9cd406efc12f7c,SCN,2024-06-24_13h48.48.419,LearnStrategy,2023.2.3,Linux x86_64,59.88023952,8,1,14,-0.424121817,-0.095107873,1,0,0,2.7827,Gabbro_10,4,10,3,2,2.783,-0.346431176,-0.250944694,1,0,0,2.7189,Andesite_rect,1,2.719,0,13,0,13,0,1,,,,,,,,,,,,,
66296576ea9cd406efc12f7c,SCN,2024-06-24_13h48.48.419,LearnStrategy,2023.2.3,Linux x86_64,59.88023952,8,1,15,0.542473316,-0.121807615,1,0,0,3.2132,Pegmatite_16,6,16,3,8,3.213,0.105483214,-0.24693799,1,0,0,0.9594,Diorite_rect,3,0.959,0,14,0,14,0,1,,,,,,,,,,,,,
66296576ea9cd406efc12f7c,SCN,2024-06-24_13h48.48.419,LearnStrategy,2023.2.3,Linux x86_64,59.88023952,8,1,16,-0.382366101,-0.243511597,1,0,0,4.3061,Pegmatite_11,6,11,2,2,4.306,-0.375403086,-0.399617751,1,0,0,2.5832,Obsidian_rect,5,2.583,0,15,0,15,0,1,,,,,,,,,,,,,
66296576ea9cd406efc12f7c,SCN,2024-06-24_13h48.48.419,LearnStrategy,2023.2.3,Linux x86_64,59.88023952,8,2,1,,,,,,,,5,14,,,,,,,,,,,5,1.412,1,,,,,,-0.487759074,-0.402201891,1,0,0,1.4119,Obsidian_rect,0,0,0,0,1,
66296576ea9cd406efc12f7c,SCN,2024-06-24_13h48.48.419,LearnStrategy,2023.2.3,Linux x86_64,59.88023952,8,2,2,,,,,,,,7,10,,,,,,,,,,,7,2.367,1,,,,,,0.154812972,-0.400402705,1,0,0,2.3675,Peridotite_rect,1,0,1,0,1,
66296576ea9cd406efc12f7c,SCN,2024-06-24_13h48.48.419,LearnStrategy,2023.2.3,Linux x86_64,59.88023952,8,2,3,,,,,,,,5,11,,,,,,,,,,,5,1.512,1,,,,,,-0.385483821,-0.402180115,1,0,0,1.5115,Obsidian_rect,2,0,2,0,1,
66296576ea9cd406efc12f7c,SCN,2024-06-24_13h48.48.419,LearnStrategy,2023.2.3,Linux x86_64,59.88023952,8,2,4,,,,,,,,4,09,,,,,,,,,,,1,6.491,0,,,,,,-0.388715704,-0.241930644,1,0,0,6.4914,Andesite_rect,3,0,3,0,1,
66296576ea9cd406efc12f7c,SCN,2024-06-24_13h48.48.419,LearnStrategy,2023.2.3,Linux x86_64,59.88023952,8,2,5,,,,,,,,8,03,,,,,,,,,,,8,1.455,1,,,,,,0.343144576,-0.390154123,1,0,0,1.4551,Pumice_rect,4,0,4,0,1,
66296576ea9cd406efc12f7c,SCN,2024-06-24_13h48.48.419,LearnStrategy,2023.2.3,Linux x86_64,59.88023952,8,2,6,,,,,,,,1,06,,,,,,,,,,,3,2.576,0,,,,,,0.156308254,-0.263631662,1,0,0,2.5764,Diorite_rect,5,0,5,0,1,
66296576ea9cd406efc12f7c,SCN,2024-06-24_13h48.48.419,LearnStrategy,2023.2.3,Linux x86_64,59.88023952,8,2,7,,,,,,,,3,02,,,,,,,,,,,3,1.649,1,,,,,,0.156308254,-0.263631662,1,0,0,1.6486,Diorite_rect,6,0,6,0,1,
66296576ea9cd406efc12f7c,SCN,2024-06-24_13h48.48.419,LearnStrategy,2023.2.3,Linux x86_64,59.88023952,8,2,8,,,,,,,,2,04,,,,,,,,,,,2,1.944,1,,,,,,-0.163140853,-0.264590899,1,0,0,1.9439,Basalt_rect,7,0,7,0,1,
66296576ea9cd406efc12f7c,SCN,2024-06-24_13h48.48.419,LearnStrategy,2023.2.3,Linux x86_64,59.88023952,8,2,9,,,,,,,,6,13,,,,,,,,,,,1,4.024,0,,,,,,-0.336408178,-0.228674094,1,0,0,4.0241,Andesite_rect,8,0,8,0,1,
66296576ea9cd406efc12f7c,SCN,2024-06-24_13h48.48.419,LearnStrategy,2023.2.3,Linux x86_64,59.88023952,8,2,10,,,,,,,,1,05,,,,,,,,,,,6,6.505,0,,,,,,-0.062494675,-0.39246726,1,0,0,6.5046,Pegmatite_rect,9,0,9,0,1,
66296576ea9cd406efc12f7c,SCN,2024-06-24_13h48.48.419,LearnStrategy,2023.2.3,Linux x86_64,59.88023952,8,2,11,,,,,,,,7,12,,,,,,,,,,,1,4.027,0,,,,,,-0.334724188,-0.246991873,1,0,0,4.0271,Andesite_rect,10,0,10,0,1,
66296576ea9cd406efc12f7c,SCN,2024-06-24_13h48.48.419,LearnStrategy,2023.2.3,Linux x86_64,59.88023952,8,2,12,,,,,,,,8,14,,,,,,,,,,,8,1.533,1,,,,,,0.415616592,-0.391026815,1,0,0,1.5332,Pumice_rect,11,0,11,0,1,
66296576ea9cd406efc12f7c,SCN,2024-06-24_13h48.48.419,LearnStrategy,2023.2.3,Linux x86_64,59.88023952,8,2,13,,,,,,,,6,05,,,,,,,,,,,5,2.641,0,,,,,,-0.345985333,-0.403426727,1,0,0,2.6406,Obsidian_rect,12,0,12,0,1,
66296576ea9cd406efc12f7c,SCN,2024-06-24_13h48.48.419,LearnStrategy,2023.2.3,Linux x86_64,59.88023952,8,2,14,,,,,,,,4,05,,,,,,,,,,,7,2.798,0,,,,,,0.196765741,-0.394689163,1,0,0,2.7979,Peridotite_rect,13,0,13,0,1,
66296576ea9cd406efc12f7c,SCN,2024-06-24_13h48.48.419,LearnStrategy,2023.2.3,Linux x86_64,59.88023952,8,2,15,,,,,,,,3,12,,,,,,,,,,,3,2.033,1,,,,,,0.160675685,-0.234039783,1,0,0,2.0328,Diorite_rect,14,0,14,0,1,
66296576ea9cd406efc12f7c,SCN,2024-06-24_13h48.48.419,LearnStrategy,2023.2.3,Linux x86_64,59.88023952,8,2,16,,,,,,,,2,06,,,,,,,,,,,1,3.649,0,,,,,,-0.349761804,-0.239466031,1,0,0,3.6493,Andesite_rect,15,0,15,0,1,
66296576ea9cd406efc12f7c,SCN,2024-06-24_13h48.48.419,LearnStrategy,2023.2.3,Linux x86_64,59.88023952,9,1,1,0.242562056,0.089398623,1,0,0,2.1443,Diorite_11,3,11,4,6,2.144,0.168236415,-0.258628925,1,0,0,2.2911,Diorite_rect,3,2.291,1,0,0,0,0,1,,,,,,,,,,,,,
66296576ea9cd406efc12f7c,SCN,2024-06-24_13h48.48.419,LearnStrategy,2023.2.3,Linux x86_64,59.88023952,9,1,2,-0.247525056,0.053066134,1,0,0,3.4551,Diorite_06,3,06,4,3,3.455,0.130391041,-0.2495989,1,0,0,1.5009,Diorite_rect,3,1.501,1,1,0,1,0,1,,,,,,,,,,,,,
66296576ea9cd406efc12f7c,SCN,2024-06-24_13h48.48.419,LearnStrategy,2023.2.3,Linux x86_64,59.88023952,9,1,3,0.593026797,-0.271848281,1,0,0,4.5278,Gabbro_11,4,11,2,8,4.528,-0.366253177,-0.255987406,1,0,0,2.3658,Andesite_rect,1,2.366,0,2,0,2,0,1,,,,,,,,,,,,,
66296576ea9cd406efc12f7c,SCN,2024-06-24_13h48.48.419,LearnStrategy,2023.2.3,Linux x86_64,59.88023952,9,1,4,0.404196819,-0.276909351,1,0,0,1.6457,Basalt_09,2,09,2,7,1.646,-0.159651995,-0.254135847,1,0,0,1.0647,Basalt_rect,2,1.065,1,3,0,3,0,1,,,,,,,,,,,,,
66296576ea9cd406efc12f7c,SCN,2024-06-24_13h48.48.419,LearnStrategy,2023.2.3,Linux x86_64,59.88023952,9,1,5,0.083425363,-0.270619631,1,0,0,1.1297,Andesite_09,1,09,2,5,1.13,-0.304323395,-0.240516822,1,0,0,1.877,Andesite_rect,1,1.877,1,4,0,4,0,1,,,,,,,,,,,,,
66296576ea9cd406efc12f7c,SCN,2024-06-24_13h48.48.419,LearnStrategy,2023.2.3,Linux x86_64,59.88023952,9,1,6,-0.044443448,-0.251898607,1,0,0,1.2037,Pumice_04,8,04,2,4,1.204,0.337670406,-0.384663343,1,0,0,1.7567,Pumice_rect,8,1.757,1,5,0,5,0,1,,,,,,,,,,,,,
66296576ea9cd406efc12f7c,SCN,2024-06-24_13h48.48.419,LearnStrategy,2023.2.3,Linux x86_64,59.88023952,9,1,7,-0.410204689,-0.24977692,1,0,0,2.1352,Pegmatite_11,6,11,2,2,2.135,-0.344187776,-0.241986036,1,0,0,3.21,Andesite_rect,1,3.21,0,6,0,6,0,1,,,,,,,,,,,,,
66296576ea9cd406efc12f7c,SCN,2024-06-24_13h48.48.419,LearnStrategy,2023.2.3,Linux x86_64,59.88023952,9,1,8,-0.247004906,-0.269035021,1,0,0,2.2484,Obsidian_07,5,07,2,3,2.248,-0.416680614,-0.413198948,1,0,0,1.2485,Obsidian_rect,5,1.249,1,7,0,7,0,1,,,,,,,,,,,,,
66296576ea9cd406efc12f7c,SCN,2024-06-24_13h48.48.419,LearnStrategy,2023.2.3,Linux x86_64,59.88023952,9,1,9,-0.190946102,0.132597287,1,0,0,3.2567,Diorite_06,3,06,4,3,3.257,0.202676932,-0.228298267,1,0,0,1.6706,Diorite_rect,3,1.671,1,8,0,8,0,1,,,,,,,,,,,,,
66296576ea9cd406efc12f7c,SCN,2024-06-24_13h48.48.419,LearnStrategy,2023.2.3,Linux x86_64,59.88023952,9,1,10,-0.417282661,0.090608795,1,0,0,4.537,Basalt_05,2,05,4,2,4.537,-0.186752637,-0.26971976,1,0,0,1.8154,Basalt_rect,2,1.815,1,9,0,9,0,1,,,,,,,,,,,,,
66296576ea9cd406efc12f7c,SCN,2024-06-24_13h48.48.419,LearnStrategy,2023.2.3,Linux x86_64,59.88023952,9,1,11,0.0569791,-0.240971565,1,0,0,1.699,Andesite_09,1,09,2,5,1.699,-0.385790745,-0.232037465,1,0,0,1.6094,Andesite_rect,1,1.609,1,10,0,10,0,1,,,,,,,,,,,,,
66296576ea9cd406efc12f7c,SCN,2024-06-24_13h48.48.419,LearnStrategy,2023.2.3,Linux x86_64,59.88023952,9,1,12,0.358383099,-0.268297354,1,0,0,2.1232,Basalt_09,2,09,2,7,2.123,-0.37408042,-0.256783803,1,0,0,1.5503,Andesite_rect,1,1.55,0,11,0,11,0,1,,,,,,,,,,,,,
66296576ea9cd406efc12f7c,SCN,2024-06-24_13h48.48.419,LearnStrategy,2023.2.3,Linux x86_64,59.88023952,9,1,13,0.539033572,-0.086880724,1,0,0,2.9342,Pegmatite_16,6,16,3,8,2.934,-0.069233576,-0.399343411,1,0,0,3.2443,Pegmatite_rect,6,3.244,1,12,0,12,0,1,,,,,,,,,,,,,
66296576ea9cd406efc12f7c,SCN,2024-06-24_13h48.48.419,LearnStrategy,2023.2.3,Linux x86_64,59.88023952,9,1,14,0.248528878,0.2315467,1,0,0,3.285,Andesite_04,1,04,5,6,3.285,-0.316851854,-0.245870829,1,0,0,1.7965,Andesite_rect,1,1.797,1,13,0,13,0,1,,,,,,,,,,,,,
66296576ea9cd406efc12f7c,SCN,2024-06-24_13h48.48.419,LearnStrategy,2023.2.3,Linux x86_64,59.88023952,9,1,15,0.102058252,0.234378695,1,0,0,1.6907,Andesite_01,1,01,5,5,1.691,0.081014315,-0.255427599,1,0,0,1.87,Diorite_rect,3,1.87,0,14,0,14,0,1,,,,,,,,,,,,,
66296576ea9cd406efc12f7c,SCN,2024-06-24_13h48.48.419,LearnStrategy,2023.2.3,Linux x86_64,59.88023952,9,1,16,-0.103115241,-0.440608263,1,0,0,8.7846,Basalt_08,2,08,1,4,8.785,-0.383328915,-0.241311073,1,0,0,1.1307,Andesite_rect,1,1.131,0,15,0,15,0,1,,,,,,,,,,,,,
66296576ea9cd406efc12f7c,SCN,2024-06-24_13h48.48.419,LearnStrategy,2023.2.3,Linux x86_64,59.88023952,9,2,1,,,,,,,,1,02,,,,,,,,,,,4,9.793,0,,,,,,0.414769491,-0.261440595,1,0,0,9.7925,Gabbro_rect,0,0,0,0,1,
66296576ea9cd406efc12f7c,SCN,2024-06-24_13h48.48.419,LearnStrategy,2023.2.3,Linux x86_64,59.88023952,9,2,2,,,,,,,,2,10,,,,,,,,,,,4,4.489,0,,,,,,0.381851355,-0.261122147,1,0,0,4.4891,Gabbro_rect,1,0,1,0,1,
66296576ea9cd406efc12f7c,SCN,2024-06-24_13h48.48.419,LearnStrategy,2023.2.3,Linux x86_64,59.88023952,9,2,3,,,,,,,,3,10,,,,,,,,,,,1,3.004,0,,,,,,-0.38552018,-0.239718358,1,0,0,3.0036,Andesite_rect,2,0,2,0,1,
66296576ea9cd406efc12f7c,SCN,2024-06-24_13h48.48.419,LearnStrategy,2023.2.3,Linux x86_64,59.88023952,9,2,4,,,,,,,,6,10,,,,,,,,,,,7,4.42,0,,,,,,0.072868268,-0.387167136,1,0,0,4.4201,Peridotite_rect,3,0,3,0,1,
66296576ea9cd406efc12f7c,SCN,2024-06-24_13h48.48.419,LearnStrategy,2023.2.3,Linux x86_64,59.88023952,9,2,5,,,,,,,,2,11,,,,,,,,,,,8,1.479,0,,,,,,0.423321883,-0.398593187,1,0,0,1.4787,Pumice_rect,4,0,4,0,1,
66296576ea9cd406efc12f7c,SCN,2024-06-24_13h48.48.419,LearnStrategy,2023.2.3,Linux x86_64,59.88023952,9,2,6,,,,,,,,6,12,,,,,,,,,,,6,7.113,1,,,,,,-0.073288997,-0.40073363,1,0,0,7.1128,Pegmatite_rect,5,0,5,0,1,
66296576ea9cd406efc12f7c,SCN,2024-06-24_13h48.48.419,LearnStrategy,2023.2.3,Linux x86_64,59.88023952,9,2,7,,,,,,,,5,16,,,,,,,,,,,5,1.191,1,,,,,,-0.336033026,-0.398305019,1,0,0,1.191,Obsidian_rect,6,0,6,0,1,
66296576ea9cd406efc12f7c,SCN,2024-06-24_13h48.48.419,LearnStrategy,2023.2.3,Linux x86_64,59.88023952,9,2,8,,,,,,,,7,14,,,,,,,,,,,7,1.92,1,,,,,,0.087881804,-0.399243832,1,0,0,1.9203,Peridotite_rect,7,0,7,0,1,
66296576ea9cd406efc12f7c,SCN,2024-06-24_13h48.48.419,LearnStrategy,2023.2.3,Linux x86_64,59.88023952,9,2,9,,,,,,,,4,03,,,,,,,,,,,1,2.397,0,,,,,,-0.417399446,-0.247063875,1,0,0,2.3972,Andesite_rect,8,0,8,0,1,
66296576ea9cd406efc12f7c,SCN,2024-06-24_13h48.48.419,LearnStrategy,2023.2.3,Linux x86_64,59.88023952,9,2,10,,,,,,,,1,11,,,,,,,,,,,2,6.521,0,,,,,,-0.08748738,-0.232523839,1,0,0,6.5212,Basalt_rect,9,0,9,0,1,
66296576ea9cd406efc12f7c,SCN,2024-06-24_13h48.48.419,LearnStrategy,2023.2.3,Linux x86_64,59.88023952,9,2,11,,,,,,,,7,06,,,,,,,,,,,7,1.544,1,,,,,,0.145477454,-0.383418957,1,0,0,1.5441,Peridotite_rect,10,0,10,0,1,
66296576ea9cd406efc12f7c,SCN,2024-06-24_13h48.48.419,LearnStrategy,2023.2.3,Linux x86_64,59.88023952,9,2,12,,,,,,,,4,14,,,,,,,,,,,4,2.015,1,,,,,,0.412561258,-0.247527599,1,0,0,2.0152,Gabbro_rect,11,0,11,0,1,
66296576ea9cd406efc12f7c,SCN,2024-06-24_13h48.48.419,LearnStrategy,2023.2.3,Linux x86_64,59.88023952,9,2,13,,,,,,,,8,15,,,,,,,,,,,8,1.715,1,,,,,,0.416870197,-0.411709627,1,0,0,1.7147,Pumice_rect,12,0,12,0,1,
66296576ea9cd406efc12f7c,SCN,2024-06-24_13h48.48.419,LearnStrategy,2023.2.3,Linux x86_64,59.88023952,9,2,14,,,,,,,,3,16,,,,,,,,,,,3,1.608,1,,,,,,0.104364713,-0.263589541,1,0,0,1.6075,Diorite_rect,13,0,13,0,1,
66296576ea9cd406efc12f7c,SCN,2024-06-24_13h48.48.419,LearnStrategy,2023.2.3,Linux x86_64,59.88023952,9,2,15,,,,,,,,5,02,,,,,,,,,,,5,1.429,1,,,,,,-0.413323482,-0.408042351,1,0,0,1.4286,Obsidian_rect,14,0,14,0,1,
66296576ea9cd406efc12f7c,SCN,2024-06-24_13h48.48.419,LearnStrategy,2023.2.3,Linux x86_64,59.88023952,9,2,16,,,,,,,,8,06,,,,,,,,,,,8,1.848,1,,,,,,0.438127597,-0.401430448,1,0,0,1.8477,Pumice_rect,15,0,15,0,1,
66296576ea9cd406efc12f7c,SCN,2024-06-24_13h48.48.419,LearnStrategy,2023.2.3,Linux x86_64,59.88023952,,,,,,,,,,,,,,,,,,,,,,,,,,,,,,,,,,,,,,,,,,,0
66296576ea9cd406efc12f7c,SCN,2024-06-24_13h48.48.419,LearnStrategy,2023.2.3,Linux x86_64,59.88023952,,,,,,,,,,,,,,,,,,,,,,,,,,,,,,,,,,,,,,,,,,,
66296576ea9cd406efc12f7c,SCN,2024-06-24_13h48.48.419,LearnStrategy,2023.2.3,Linux x86_64,59.88023952,,,,,,,,,,,2,01,1,1,,,,,,,,,,,,,,,,,,,,,,,,,,,,,
66296576ea9cd406efc12f7c,SCN,2024-06-24_13h48.48.419,LearnStrategy,2023.2.3,Linux x86_64,59.88023952,,,,,,,,,,,5,05,1,2,,,,,,,,,,,,,,,,,,,,,,,,,,,,,
66296576ea9cd406efc12f7c,SCN,2024-06-24_13h48.48.419,LearnStrategy,2023.2.3,Linux x86_64,59.88023952,,,,,,,,,,,4,12,1,3,,,,,,,,,,,,,,,,,,,,,,,,,,,,,
66296576ea9cd406efc12f7c,SCN,2024-06-24_13h48.48.419,LearnStrategy,2023.2.3,Linux x86_64,59.88023952,,,,,,,,,,,2,08,1,4,,,,,,,,,,,,,,,,,,,,,,,,,,,,,
66296576ea9cd406efc12f7c,SCN,2024-06-24_13h48.48.419,LearnStrategy,2023.2.3,Linux x86_64,59.88023952,,,,,,,,,,,3,07,1,5,,,,,,,,,,,,,,,,,,,,,,,,,,,,,
66296576ea9cd406efc12f7c,SCN,2024-06-24_13h48.48.419,LearnStrategy,2023.2.3,Linux x86_64,59.88023952,,,,,,,,,,,1,10,1,6,,,,,,,,,,,,,,,,,,,,,,,,,,,,,
66296576ea9cd406efc12f7c,SCN,2024-06-24_13h48.48.419,LearnStrategy,2023.2.3,Linux x86_64,59.88023952,,,,,,,,,,,8,05,1,7,,,,,,,,,,,,,,,,,,,,,,,,,,,,,
66296576ea9cd406efc12f7c,SCN,2024-06-24_13h48.48.419,LearnStrategy,2023.2.3,Linux x86_64,59.88023952,,,,,,,,,,,6,03,1,8,,,,,,,,,,,,,,,,,,,,,,,,,,,,,
66296576ea9cd406efc12f7c,SCN,2024-06-24_13h48.48.419,LearnStrategy,2023.2.3,Linux x86_64,59.88023952,,,,,,,,,,,5,04,2,1,,,,,,,,,,,,,,,,,,,,,,,,,,,,,
66296576ea9cd406efc12f7c,SCN,2024-06-24_13h48.48.419,LearnStrategy,2023.2.3,Linux x86_64,59.88023952,,,,,,,,,,,6,11,2,2,,,,,,,,,,,,,,,,,,,,,,,,,,,,,
66296576ea9cd406efc12f7c,SCN,2024-06-24_13h48.48.419,LearnStrategy,2023.2.3,Linux x86_64,59.88023952,,,,,,,,,,,5,07,2,3,,,,,,,,,,,,,,,,,,,,,,,,,,,,,
66296576ea9cd406efc12f7c,SCN,2024-06-24_13h48.48.419,LearnStrategy,2023.2.3,Linux x86_64,59.88023952,,,,,,,,,,,8,04,2,4,,,,,,,,,,,,,,,,,,,,,,,,,,,,,
66296576ea9cd406efc12f7c,SCN,2024-06-24_13h48.48.419,LearnStrategy,2023.2.3,Linux x86_64,59.88023952,,,,,,,,,,,1,09,2,5,,,,,,,,,,,,,,,,,,,,,,,,,,,,,
66296576ea9cd406efc12f7c,SCN,2024-06-24_13h48.48.419,LearnStrategy,2023.2.3,Linux x86_64,59.88023952,,,,,,,,,,,4,15,2,6,,,,,,,,,,,,,,,,,,,,,,,,,,,,,
66296576ea9cd406efc12f7c,SCN,2024-06-24_13h48.48.419,LearnStrategy,2023.2.3,Linux x86_64,59.88023952,,,,,,,,,,,2,09,2,7,,,,,,,,,,,,,,,,,,,,,,,,,,,,,
66296576ea9cd406efc12f7c,SCN,2024-06-24_13h48.48.419,LearnStrategy,2023.2.3,Linux x86_64,59.88023952,,,,,,,,,,,4,11,2,8,,,,,,,,,,,,,,,,,,,,,,,,,,,,,
66296576ea9cd406efc12f7c,SCN,2024-06-24_13h48.48.419,LearnStrategy,2023.2.3,Linux x86_64,59.88023952,,,,,,,,,,,4,13,3,1,,,,,,,,,,,,,,,,,,,,,,,,,,,,,
66296576ea9cd406efc12f7c,SCN,2024-06-24_13h48.48.419,LearnStrategy,2023.2.3,Linux x86_64,59.88023952,,,,,,,,,,,4,10,3,2,,,,,,,,,,,,,,,,,,,,,,,,,,,,,
66296576ea9cd406efc12f7c,SCN,2024-06-24_13h48.48.419,LearnStrategy,2023.2.3,Linux x86_64,59.88023952,,,,,,,,,,,6,08,3,3,,,,,,,,,,,,,,,,,,,,,,,,,,,,,
66296576ea9cd406efc12f7c,SCN,2024-06-24_13h48.48.419,LearnStrategy,2023.2.3,Linux x86_64,59.88023952,,,,,,,,,,,3,14,3,4,,,,,,,,,,,,,,,,,,,,,,,,,,,,,
66296576ea9cd406efc12f7c,SCN,2024-06-24_13h48.48.419,LearnStrategy,2023.2.3,Linux x86_64,59.88023952,,,,,,,,,,,8,13,3,5,,,,,,,,,,,,,,,,,,,,,,,,,,,,,
66296576ea9cd406efc12f7c,SCN,2024-06-24_13h48.48.419,LearnStrategy,2023.2.3,Linux x86_64,59.88023952,,,,,,,,,,,7,13,3,6,,,,,,,,,,,,,,,,,,,,,,,,,,,,,
66296576ea9cd406efc12f7c,SCN,2024-06-24_13h48.48.419,LearnStrategy,2023.2.3,Linux x86_64,59.88023952,,,,,,,,,,,1,14,3,7,,,,,,,,,,,,,,,,,,,,,,,,,,,,,
66296576ea9cd406efc12f7c,SCN,2024-06-24_13h48.48.419,LearnStrategy,2023.2.3,Linux x86_64,59.88023952,,,,,,,,,,,6,16,3,8,,,,,,,,,,,,,,,,,,,,,,,,,,,,,
66296576ea9cd406efc12f7c,SCN,2024-06-24_13h48.48.419,LearnStrategy,2023.2.3,Linux x86_64,59.88023952,,,,,,,,,,,2,02,4,1,,,,,,,,,,,,,,,,,,,,,,,,,,,,,
66296576ea9cd406efc12f7c,SCN,2024-06-24_13h48.48.419,LearnStrategy,2023.2.3,Linux x86_64,59.88023952,,,,,,,,,,,2,05,4,2,,,,,,,,,,,,,,,,,,,,,,,,,,,,,
66296576ea9cd406efc12f7c,SCN,2024-06-24_13h48.48.419,LearnStrategy,2023.2.3,Linux x86_64,59.88023952,,,,,,,,,,,3,06,4,3,,,,,,,,,,,,,,,,,,,,,,,,,,,,,
66296576ea9cd406efc12f7c,SCN,2024-06-24_13h48.48.419,LearnStrategy,2023.2.3,Linux x86_64,59.88023952,,,,,,,,,,,5,09,4,4,,,,,,,,,,,,,,,,,,,,,,,,,,,,,
66296576ea9cd406efc12f7c,SCN,2024-06-24_13h48.48.419,LearnStrategy,2023.2.3,Linux x86_64,59.88023952,,,,,,,,,,,6,15,4,5,,,,,,,,,,,,,,,,,,,,,,,,,,,,,
66296576ea9cd406efc12f7c,SCN,2024-06-24_13h48.48.419,LearnStrategy,2023.2.3,Linux x86_64,59.88023952,,,,,,,,,,,3,11,4,6,,,,,,,,,,,,,,,,,,,,,,,,,,,,,
66296576ea9cd406efc12f7c,SCN,2024-06-24_13h48.48.419,LearnStrategy,2023.2.3,Linux x86_64,59.88023952,,,,,,,,,,,3,13,4,7,,,,,,,,,,,,,,,,,,,,,,,,,,,,,
66296576ea9cd406efc12f7c,SCN,2024-06-24_13h48.48.419,LearnStrategy,2023.2.3,Linux x86_64,59.88023952,,,,,,,,,,,4,01,4,8,,,,,,,,,,,,,,,,,,,,,,,,,,,,,
66296576ea9cd406efc12f7c,SCN,2024-06-24_13h48.48.419,LearnStrategy,2023.2.3,Linux x86_64,59.88023952,,,,,,,,,,,8,09,5,1,,,,,,,,,,,,,,,,,,,,,,,,,,,,,
66296576ea9cd406efc12f7c,SCN,2024-06-24_13h48.48.419,LearnStrategy,2023.2.3,Linux x86_64,59.88023952,,,,,,,,,,,1,03,5,2,,,,,,,,,,,,,,,,,,,,,,,,,,,,,
66296576ea9cd406efc12f7c,SCN,2024-06-24_13h48.48.419,LearnStrategy,2023.2.3,Linux x86_64,59.88023952,,,,,,,,,,,7,08,5,3,,,,,,,,,,,,,,,,,,,,,,,,,,,,,
66296576ea9cd406efc12f7c,SCN,2024-06-24_13h48.48.419,LearnStrategy,2023.2.3,Linux x86_64,59.88023952,,,,,,,,,,,5,10,5,4,,,,,,,,,,,,,,,,,,,,,,,,,,,,,
66296576ea9cd406efc12f7c,SCN,2024-06-24_13h48.48.419,LearnStrategy,2023.2.3,Linux x86_64,59.88023952,,,,,,,,,,,1,01,5,5,,,,,,,,,,,,,,,,,,,,,,,,,,,,,
66296576ea9cd406efc12f7c,SCN,2024-06-24_13h48.48.419,LearnStrategy,2023.2.3,Linux x86_64,59.88023952,,,,,,,,,,,1,04,5,6,,,,,,,,,,,,,,,,,,,,,,,,,,,,,
66296576ea9cd406efc12f7c,SCN,2024-06-24_13h48.48.419,LearnStrategy,2023.2.3,Linux x86_64,59.88023952,,,,,,,,,,,6,09,5,7,,,,,,,,,,,,,,,,,,,,,,,,,,,,,
66296576ea9cd406efc12f7c,SCN,2024-06-24_13h48.48.419,LearnStrategy,2023.2.3,Linux x86_64,59.88023952,,,,,,,,,,,5,08,5,8,,,,,,,,,,,,,,,,,,,,,,,,,,,,,
66296576ea9cd406efc12f7c,SCN,2024-06-24_13h48.48.419,LearnStrategy,2023.2.3,Linux x86_64,59.88023952,,,,,,,,,,,8,16,6,1,,,,,,,,,,,,,,,,,,,,,,,,,,,,,
66296576ea9cd406efc12f7c,SCN,2024-06-24_13h48.48.419,LearnStrategy,2023.2.3,Linux x86_64,59.88023952,,,,,,,,,,,7,07,6,2,,,,,,,,,,,,,,,,,,,,,,,,,,,,,
66296576ea9cd406efc12f7c,SCN,2024-06-24_13h48.48.419,LearnStrategy,2023.2.3,Linux x86_64,59.88023952,,,,,,,,,,,8,10,6,3,,,,,,,,,,,,,,,,,,,,,,,,,,,,,
66296576ea9cd406efc12f7c,SCN,2024-06-24_13h48.48.419,LearnStrategy,2023.2.3,Linux x86_64,59.88023952,,,,,,,,,,,7,15,6,4,,,,,,,,,,,,,,,,,,,,,,,,,,,,,
66296576ea9cd406efc12f7c,SCN,2024-06-24_13h48.48.419,LearnStrategy,2023.2.3,Linux x86_64,59.88023952,,,,,,,,,,,2,14,6,5,,,,,,,,,,,,,,,,,,,,,,,,,,,,,
66296576ea9cd406efc12f7c,SCN,2024-06-24_13h48.48.419,LearnStrategy,2023.2.3,Linux x86_64,59.88023952,,,,,,,,,,,7,05,6,6,,,,,,,,,,,,,,,,,,,,,,,,,,,,,
66296576ea9cd406efc12f7c,SCN,2024-06-24_13h48.48.419,LearnStrategy,2023.2.3,Linux x86_64,59.88023952,,,,,,,,,,,3,09,6,7,,,,,,,,,,,,,,,,,,,,,,,,,,,,,
66296576ea9cd406efc12f7c,SCN,2024-06-24_13h48.48.419,LearnStrategy,2023.2.3,Linux x86_64,59.88023952,,,,,,,,,,,7,04,6,8,,,,,,,,,,,,,,,,,,,,,,,,,,,,,