participant,condition,date,expName,psychopyVersion,OS,frameRate,block,phase,trial,learn_mouse_2.x,learn_mouse_2.y,learn_mouse_2.leftButton,learn_mouse_2.midButton,learn_mouse_2.rightButton,learn_mouse_2.time,learn_mouse_2.clicked_name,cat,token,row,col,t_select,cat_mouse_l.x,cat_mouse_l.y,cat_mouse_l.leftButton,cat_mouse_l.midButton,cat_mouse_l.rightButton,cat_mouse_l.time,cat_mouse_l.clicked_name,resp,t_resp,corr,train_trials.thisRepN,train_trials.thisTrialN,train_trials.thisN,train_trials.thisIndex,train_trials.ran,cat_mouse_t.x,cat_mouse_t.y,cat_mouse_t.leftButton,cat_mouse_t.midButton,cat_mouse_t.rightButton,cat_mouse_t.time,cat_mouse_t.clicked_name,test_trials.thisRepN,test_trials.thisTrialN,test_trials.thisN,test_trials.thisIndex,test_trials.ran,Bonus
6629442858ac993227d2a95d,TCN,2024-06-21_10h47.30.020,LearnStrategy,2023.2.3,MacIntel,60.24096386,,,,,,,,,,,,,,,,,,,,,,,,,,,,,,,,,,,,,,,,,,,
6629442858ac993227d2a95d,TCN,2024-06-21_10h47.30.020,LearnStrategy,2023.2.3,MacIntel,60.24096386,1,1,1,-0.026879437,-0.005112078,1,0,0,2.2488,rock_grid_rect_2,8,13,-1,-1,2.249,-0.100769252,-0.250612024,1,0,0,7.1977,Basalt_rect,2,7.198,0,0,0,0,0,1,,,,,,,,,,,,,
6629442858ac993227d2a95d,TCN,2024-06-21_10h47.30.020,LearnStrategy,2023.2.3,MacIntel,60.24096386,1,1,2,0.063996476,-0.01151523,1,0,0,1.3153,rock_grid_rect_2,1,11,-1,-1,1.315,-0.096236625,-0.398108217,1,0,0,8.3256,Pegmatite_rect,6,8.326,0,1,0,1,0,1,,,,,,,,,,,,,
6629442858ac993227d2a95d,TCN,2024-06-21_10h47.30.020,LearnStrategy,2023.2.3,MacIntel,60.24096386,1,1,3,0.07107328,0.005868502,1,0,0,1.4189,rock_grid_rect_2,8,08,-1,-1,1.419,0.41186398,-0.403952263,1,0,0,3.1877,Pumice_rect,8,3.188,1,2,0,2,0,1,,,,,,,,,,,,,
6629442858ac993227d2a95d,TCN,2024-06-21_10h47.30.020,LearnStrategy,2023.2.3,MacIntel,60.24096386,1,1,4,-0.043331477,-0.008581919,1,0,0,1.9331,rock_grid_rect_2,6,10,-1,-1,1.933,0.084626707,-0.400646262,1,0,0,3.3742,Peridotite_rect,7,3.374,0,3,0,3,0,1,,,,,,,,,,,,,
6629442858ac993227d2a95d,TCN,2024-06-21_10h47.30.020,LearnStrategy,2023.2.3,MacIntel,60.24096386,1,1,5,0.120743564,0.007267155,1,0,0,1.3376,rock_grid_rect_2,5,12,-1,-1,1.338,0.170726341,-0.41308761,1,0,0,13.9871,Peridotite_rect,7,13.987,0,4,0,4,0,1,,,,,,,,,,,,,
6629442858ac993227d2a95d,TCN,2024-06-21_10h47.30.020,LearnStrategy,2023.2.3,MacIntel,60.24096386,1,1,6,0.070884879,-0.00029246,1,0,0,1.5316,rock_grid_rect_2,1,04,-1,-1,1.532,-0.12786921,-0.233838155,1,0,0,5.3243,Basalt_rect,2,5.324,0,5,0,5,0,1,,,,,,,,,,,,,
6629442858ac993227d2a95d,TCN,2024-06-21_10h47.30.020,LearnStrategy,2023.2.3,MacIntel,60.24096386,1,1,7,0.03412353,-0.003344044,1,0,0,1.2794,rock_grid_rect_2,3,09,-1,-1,1.279,-0.393808443,-0.40569713,1,0,0,4.1383,Obsidian_rect,5,4.138,0,6,0,6,0,1,,,,,,,,,,,,,
6629442858ac993227d2a95d,TCN,2024-06-21_10h47.30.020,LearnStrategy,2023.2.3,MacIntel,60.24096386,1,1,8,0.103084407,-0.020944186,1,0,0,1.313,rock_grid_rect_2,7,07,-1,-1,1.313,0.058481155,-0.40713933,1,0,0,11.6891,Peridotite_rect,7,11.689,1,7,0,7,0,1,,,,,,,,,,,,,
6629442858ac993227d2a95d,TCN,2024-06-21_10h47.30.020,LearnStrategy,2023.2.3,MacIntel,60.24096386,1,1,9,0.074652406,-0.002410366,1,0,0,1.2774,rock_grid_rect_2,7,06,-1,-1,1.277,0.100287869,-0.391065833,1,0,0,2.8015,Peridotite_rect,7,2.802,1,8,0,8,0,1,,,,,,,,,,,,,
6629442858ac993227d2a95d,TCN,2024-06-21_10h47.30.020,LearnStrategy,2023.2.3,MacIntel,60.24096386,1,1,10,0.038346521,-0.002585354,1,0,0,1.4982,rock_grid_rect_2,2,06,-1,-1,1.498,-0.361935446,-0.393428924,1,0,0,2.2283,Obsidian_rect,5,2.228,0,9,0,9,0,1,,,,,,,,,,,,,
6629442858ac993227d2a95d,TCN,2024-06-21_10h47.30.020,LearnStrategy,2023.2.3,MacIntel,60.24096386,1,1,11,0.079992425,0.002458024,1,0,0,1.4668,rock_grid_rect_2,4,03,-1,-1,1.467,0.065661983,-0.243713658,1,0,0,2.5269,Diorite_rect,3,2.527,0,10,0,10,0,1,,,,,,,,,,,,,
6629442858ac993227d2a95d,TCN,2024-06-21_10h47.30.020,LearnStrategy,2023.2.3,MacIntel,60.24096386,1,1,12,0.141337286,0.00702824,1,0,0,0.9972,rock_grid_rect_2,5,06,-1,-1,0.997,-0.425651968,-0.393732358,1,0,0,2.6165,Obsidian_rect,5,2.616,1,11,0,11,0,1,,,,,,,,,,,,,
6629442858ac993227d2a95d,TCN,2024-06-21_10h47.30.020,LearnStrategy,2023.2.3,MacIntel,60.24096386,1,1,13,0.044666308,-0.016743246,1,0,0,1.2991,rock_grid_rect_2,4,01,-1,-1,1.299,-0.439933847,-0.253163447,1,0,0,7.9262,Andesite_rect,1,7.926,0,12,0,12,0,1,,,,,,,,,,,,,
6629442858ac993227d2a95d,TCN,2024-06-21_10h47.30.020,LearnStrategy,2023.2.3,MacIntel,60.24096386,1,1,14,0.060797844,0.001368867,1,0,0,1.4507,rock_grid_rect_2,6,08,-1,-1,1.451,-0.313672767,-0.396211389,1,0,0,10.7728,Obsidian_rect,5,10.773,0,13,0,13,0,1,,,,,,,,,,,,,
6629442858ac993227d2a95d,TCN,2024-06-21_10h47.30.020,LearnStrategy,2023.2.3,MacIntel,60.24096386,1,1,15,0.122624994,-0.010732154,1,0,0,1.3165,rock_grid_rect_2,2,12,-1,-1,1.317,0.373918507,-0.392713294,1,0,0,4.0382,Pumice_rect,8,4.038,0,14,0,14,0,1,,,,,,,,,,,,,
6629442858ac993227d2a95d,TCN,2024-06-21_10h47.30.020,LearnStrategy,2023.2.3,MacIntel,60.24096386,1,1,16,0.119166962,0.018326746,1,0,0,1.3312,rock_grid_rect_2,3,02,-1,-1,1.331,0.341790256,-0.254348825,1,0,0,4.5564,Gabbro_rect,4,4.556,0,15,0,15,0,1,,,,,,,,,,,,,
6629442858ac993227d2a95d,TCN,2024-06-21_10h47.30.020,LearnStrategy,2023.2.3,MacIntel,60.24096386,1,2,1,,,,,,,,6,05,,,,,,,,,,,2,9.075,0,,,,,,-0.073367951,-0.26051024,1,0,0,9.0751,Basalt_rect,0,0,0,0,1,
6629442858ac993227d2a95d,TCN,2024-06-21_10h47.30.020,LearnStrategy,2023.2.3,MacIntel,60.24096386,1,2,2,,,,,,,,8,04,,,,,,,,,,,8,2.448,1,,,,,,0.354227423,-0.395008592,1,0,0,2.4476,Pumice_rect,1,0,1,0,1,
6629442858ac993227d2a95d,TCN,2024-06-21_10h47.30.020,LearnStrategy,2023.2.3,MacIntel,60.24096386,1,2,3,,,,,,,,3,16,,,,,,,,,,,4,4.445,0,,,,,,0.41844658,-0.246898773,1,0,0,4.4446,Gabbro_rect,2,0,2,0,1,
6629442858ac993227d2a95d,TCN,2024-06-21_10h47.30.020,LearnStrategy,2023.2.3,MacIntel,60.24096386,1,2,4,,,,,,,,2,05,,,,,,,,,,,3,2.638,0,,,,,,0.199939257,-0.250893231,1,0,0,2.6381,Diorite_rect,3,0,3,0,1,
6629442858ac993227d2a95d,TCN,2024-06-21_10h47.30.020,LearnStrategy,2023.2.3,MacIntel,60.24096386,1,2,5,,,,,,,,7,13,,,,,,,,,,,7,1.911,1,,,,,,0.14810543,-0.409467096,1,0,0,1.9109,Peridotite_rect,4,0,4,0,1,
6629442858ac993227d2a95d,TCN,2024-06-21_10h47.30.020,LearnStrategy,2023.2.3,MacIntel,60.24096386,1,2,6,,,,,,,,4,09,,,,,,,,,,,5,5.518,0,,,,,,-0.393116955,-0.40528584,1,0,0,5.5183,Obsidian_rect,5,0,5,0,1,
6629442858ac993227d2a95d,TCN,2024-06-21_10h47.30.020,LearnStrategy,2023.2.3,MacIntel,60.24096386,1,2,7,,,,,,,,1,05,,,,,,,,,,,1,3.793,1,,,,,,-0.324869095,-0.24710292,1,0,0,3.7932,Andesite_rect,6,0,6,0,1,
6629442858ac993227d2a95d,TCN,2024-06-21_10h47.30.020,LearnStrategy,2023.2.3,MacIntel,60.24096386,1,2,8,,,,,,,,6,11,,,,,,,,,,,6,3.082,1,,,,,,-0.09290575,-0.410759843,1,0,0,3.0817,Pegmatite_rect,7,0,7,0,1,
6629442858ac993227d2a95d,TCN,2024-06-21_10h47.30.020,LearnStrategy,2023.2.3,MacIntel,60.24096386,1,2,9,,,,,,,,7,15,,,,,,,,,,,7,2.568,1,,,,,,0.135703309,-0.390096516,1,0,0,2.568,Peridotite_rect,8,0,8,0,1,
6629442858ac993227d2a95d,TCN,2024-06-21_10h47.30.020,LearnStrategy,2023.2.3,MacIntel,60.24096386,1,2,10,,,,,,,,4,14,,,,,,,,,,,2,3.851,0,,,,,,-0.124261656,-0.267183347,1,0,0,3.8514,Basalt_rect,9,0,9,0,1,
6629442858ac993227d2a95d,TCN,2024-06-21_10h47.30.020,LearnStrategy,2023.2.3,MacIntel,60.24096386,1,2,11,,,,,,,,5,09,,,,,,,,,,,5,1.786,1,,,,,,-0.428660737,-0.387194908,1,0,0,1.7865,Obsidian_rect,10,0,10,0,1,
6629442858ac993227d2a95d,TCN,2024-06-21_10h47.30.020,LearnStrategy,2023.2.3,MacIntel,60.24096386,1,2,12,,,,,,,,3,15,,,,,,,,,,,4,5.335,0,,,,,,0.374614141,-0.254268071,1,0,0,5.3349,Gabbro_rect,11,0,11,0,1,
6629442858ac993227d2a95d,TCN,2024-06-21_10h47.30.020,LearnStrategy,2023.2.3,MacIntel,60.24096386,1,2,13,,,,,,,,1,10,,,,,,,,,,,8,3.686,0,,,,,,0.377282548,-0.384758518,1,0,0,3.6864,Pumice_rect,12,0,12,0,1,
6629442858ac993227d2a95d,TCN,2024-06-21_10h47.30.020,LearnStrategy,2023.2.3,MacIntel,60.24096386,1,2,14,,,,,,,,2,08,,,,,,,,,,,3,4.339,0,,,,,,0.149026392,-0.260202417,1,0,0,4.3388,Diorite_rect,13,0,13,0,1,
6629442858ac993227d2a95d,TCN,2024-06-21_10h47.30.020,LearnStrategy,2023.2.3,MacIntel,60.24096386,1,2,15,,,,,,,,8,09,,,,,,,,,,,8,2.512,1,,,,,,0.392090959,-0.395819956,1,0,0,2.512,Pumice_rect,14,0,14,0,1,
6629442858ac993227d2a95d,TCN,2024-06-21_10h47.30.020,LearnStrategy,2023.2.3,MacIntel,60.24096386,1,2,16,,,,,,,,5,04,,,,,,,,,,,5,1.5,1,,,,,,-0.349549211,-0.414651531,1,0,0,1.4998,Obsidian_rect,15,0,15,0,1,
6629442858ac993227d2a95d,TCN,2024-06-21_10h47.30.020,LearnStrategy,2023.2.3,MacIntel,60.24096386,2,1,1,0.12174305,-0.003033782,1,0,0,1.5512,rock_grid_rect_2,3,12,-1,-1,1.551,-0.349350777,-0.250570149,1,0,0,6.7201,Andesite_rect,1,6.72,0,0,0,0,0,1,,,,,,,,,,,,,
6629442858ac993227d2a95d,TCN,2024-06-21_10h47.30.020,LearnStrategy,2023.2.3,MacIntel,60.24096386,2,1,2,0.090353421,0.000172619,1,0,0,1.1068,rock_grid_rect_2,7,16,-1,-1,1.107,0.104067798,-0.415122115,1,0,0,1.8159,Peridotite_rect,7,1.816,1,1,0,1,0,1,,,,,,,,,,,,,
6629442858ac993227d2a95d,TCN,2024-06-21_10h47.30.020,LearnStrategy,2023.2.3,MacIntel,60.24096386,2,1,3,0.060590143,0.005062156,1,0,0,1.2586,rock_grid_rect_2,8,02,-1,-1,1.259,0.38928585,-0.400428458,1,0,0,2.2363,Pumice_rect,8,2.236,1,2,0,2,0,1,,,,,,,,,,,,,
6629442858ac993227d2a95d,TCN,2024-06-21_10h47.30.020,LearnStrategy,2023.2.3,MacIntel,60.24096386,2,1,4,0.073684483,-0.008161257,1,0,0,1.2986,rock_grid_rect_2,3,13,-1,-1,1.299,-0.117617951,-0.244897921,1,0,0,3.5905,Basalt_rect,2,3.591,0,3,0,3,0,1,,,,,,,,,,,,,
6629442858ac993227d2a95d,TCN,2024-06-21_10h47.30.020,LearnStrategy,2023.2.3,MacIntel,60.24096386,2,1,5,0.099333602,-0.002235865,1,0,0,1.5682,rock_grid_rect_2,2,10,-1,-1,1.568,-0.13715582,-0.39929457,1,0,0,5.7921,Pegmatite_rect,6,5.792,0,4,0,4,0,1,,,,,,,,,,,,,
6629442858ac993227d2a95d,TCN,2024-06-21_10h47.30.020,LearnStrategy,2023.2.3,MacIntel,60.24096386,2,1,6,0.059263186,-0.01503569,1,0,0,1.6823,rock_grid_rect_2,6,12,-1,-1,1.682,-0.118473976,-0.409699113,1,0,0,4.1311,Pegmatite_rect,6,4.131,1,5,0,5,0,1,,,,,,,,,,,,,
6629442858ac993227d2a95d,TCN,2024-06-21_10h47.30.020,LearnStrategy,2023.2.3,MacIntel,60.24096386,2,1,7,0.010256763,0.01118417,1,0,0,1.0889,rock_grid_rect_2,2,02,-1,-1,1.089,0.340439609,-0.25741605,1,0,0,4.8438,Gabbro_rect,4,4.844,0,6,0,6,0,1,,,,,,,,,,,,,
6629442858ac993227d2a95d,TCN,2024-06-21_10h47.30.020,LearnStrategy,2023.2.3,MacIntel,60.24096386,2,1,8,0.044032615,-0.015317037,1,0,0,1.409,rock_grid_rect_2,6,07,-1,-1,1.409,-0.10169969,-0.400182646,1,0,0,3.1025,Pegmatite_rect,6,3.103,1,7,0,7,0,1,,,,,,,,,,,,,
6629442858ac993227d2a95d,TCN,2024-06-21_10h47.30.020,LearnStrategy,2023.2.3,MacIntel,60.24096386,2,1,9,0.071224056,0.005945214,1,0,0,1.164,rock_grid_rect_2,7,14,-1,-1,1.164,0.405739841,-0.247056447,1,0,0,4.7859,Gabbro_rect,4,4.786,0,8,0,8,0,1,,,,,,,,,,,,,
6629442858ac993227d2a95d,TCN,2024-06-21_10h47.30.020,LearnStrategy,2023.2.3,MacIntel,60.24096386,2,1,10,0.093852701,-0.02225996,1,0,0,1.0175,rock_grid_rect_2,5,05,-1,-1,1.017,-0.411606985,-0.404507154,1,0,0,2.0144,Obsidian_rect,5,2.014,1,9,0,9,0,1,,,,,,,,,,,,,
6629442858ac993227d2a95d,TCN,2024-06-21_10h47.30.020,LearnStrategy,2023.2.3,MacIntel,60.24096386,2,1,11,0.045108952,-0.019367514,1,0,0,1.3076,rock_grid_rect_2,4,15,-1,-1,1.308,0.054097424,-0.243077596,1,0,0,8.2282,Diorite_rect,3,8.228,0,10,0,10,0,1,,,,,,,,,,,,,
6629442858ac993227d2a95d,TCN,2024-06-21_10h47.30.020,LearnStrategy,2023.2.3,MacIntel,60.24096386,2,1,12,0.104740509,-0.024354107,1,0,0,1.2483,rock_grid_rect_2,4,05,-1,-1,1.248,0.129801154,-0.259175828,1,0,0,4.9459,Diorite_rect,3,4.946,0,11,0,11,0,1,,,,,,,,,,,,,
6629442858ac993227d2a95d,TCN,2024-06-21_10h47.30.020,LearnStrategy,2023.2.3,MacIntel,60.24096386,2,1,13,0.105961978,-0.014424642,1,0,0,1.0267,rock_grid_rect_2,1,16,-1,-1,1.027,0.365589159,-0.248282237,1,0,0,2.5657,Gabbro_rect,4,2.566,0,12,0,12,0,1,,,,,,,,,,,,,
6629442858ac993227d2a95d,TCN,2024-06-21_10h47.30.020,LearnStrategy,2023.2.3,MacIntel,60.24096386,2,1,14,0.096733198,-0.02087256,1,0,0,0.9616,rock_grid_rect_2,1,09,-1,-1,0.962,-0.395197899,-0.241097158,1,0,0,3.8236,Andesite_rect,1,3.824,1,13,0,13,0,1,,,,,,,,,,,,,
6629442858ac993227d2a95d,TCN,2024-06-21_10h47.30.020,LearnStrategy,2023.2.3,MacIntel,60.24096386,2,1,15,0.01261435,0.00905536,1,0,0,1.1027,rock_grid_rect_2,5,10,-1,-1,1.103,-0.440498039,-0.397063721,1,0,0,1.8183,Obsidian_rect,5,1.818,1,14,0,14,0,1,,,,,,,,,,,,,
6629442858ac993227d2a95d,TCN,2024-06-21_10h47.30.020,LearnStrategy,2023.2.3,MacIntel,60.24096386,2,1,16,0.085082799,0.004197944,1,0,0,1.1814,rock_grid_rect_2,8,06,-1,-1,1.181,0.355980303,-0.387738999,1,0,0,1.9351,Pumice_rect,8,1.935,1,15,0,15,0,1,,,,,,,,,,,,,
6629442858ac993227d2a95d,TCN,2024-06-21_10h47.30.020,LearnStrategy,2023.2.3,MacIntel,60.24096386,2,2,1,,,,,,,,5,14,,,,,,,,,,,5,2.106,1,,,,,,-0.335689806,-0.398375698,1,0,0,2.1058,Obsidian_rect,0,0,0,0,1,
6629442858ac993227d2a95d,TCN,2024-06-21_10h47.30.020,LearnStrategy,2023.2.3,MacIntel,60.24096386,2,2,2,,,,,,,,1,01,,,,,,,,,,,3,6.095,0,,,,,,0.171807346,-0.232069251,1,0,0,6.0951,Diorite_rect,1,0,1,0,1,
6629442858ac993227d2a95d,TCN,2024-06-21_10h47.30.020,LearnStrategy,2023.2.3,MacIntel,60.24096386,2,2,3,,,,,,,,6,16,,,,,,,,,,,6,3.137,1,,,,,,-0.121349526,-0.407948254,1,0,0,3.1368,Pegmatite_rect,2,0,2,0,1,
6629442858ac993227d2a95d,TCN,2024-06-21_10h47.30.020,LearnStrategy,2023.2.3,MacIntel,60.24096386,2,2,4,,,,,,,,4,13,,,,,,,,,,,2,3.257,0,,,,,,-0.15536931,-0.234911427,1,0,0,3.2569,Basalt_rect,3,0,3,0,1,
6629442858ac993227d2a95d,TCN,2024-06-21_10h47.30.020,LearnStrategy,2023.2.3,MacIntel,60.24096386,2,2,5,,,,,,,,1,14,,,,,,,,,,,1,6.202,1,,,,,,-0.38410037,-0.266189296,1,0,0,6.2016,Andesite_rect,4,0,4,0,1,
6629442858ac993227d2a95d,TCN,2024-06-21_10h47.30.020,LearnStrategy,2023.2.3,MacIntel,60.24096386,2,2,6,,,,,,,,3,14,,,,,,,,,,,3,5.289,1,,,,,,0.111340388,-0.26084447,1,0,0,5.2888,Diorite_rect,5,0,5,0,1,
6629442858ac993227d2a95d,TCN,2024-06-21_10h47.30.020,LearnStrategy,2023.2.3,MacIntel,60.24096386,2,2,7,,,,,,,,4,11,,,,,,,,,,,4,2.294,1,,,,,,0.367810114,-0.264350787,1,0,0,2.2943,Gabbro_rect,6,0,6,0,1,
6629442858ac993227d2a95d,TCN,2024-06-21_10h47.30.020,LearnStrategy,2023.2.3,MacIntel,60.24096386,2,2,8,,,,,,,,8,14,,,,,,,,,,,8,1.466,1,,,,,,0.359945637,-0.418269536,1,0,0,1.4664,Pumice_rect,7,0,7,0,1,
6629442858ac993227d2a95d,TCN,2024-06-21_10h47.30.020,LearnStrategy,2023.2.3,MacIntel,60.24096386,2,2,9,,,,,,,,5,16,,,,,,,,,,,5,1.376,1,,,,,,-0.382843784,-0.394225726,1,0,0,1.3757,Obsidian_rect,8,0,8,0,1,
6629442858ac993227d2a95d,TCN,2024-06-21_10h47.30.020,LearnStrategy,2023.2.3,MacIntel,60.24096386,2,2,10,,,,,,,,7,04,,,,,,,,,,,6,2.587,0,,,,,,-0.109203252,-0.396840204,1,0,0,2.5873,Pegmatite_rect,9,0,9,0,1,
6629442858ac993227d2a95d,TCN,2024-06-21_10h47.30.020,LearnStrategy,2023.2.3,MacIntel,60.24096386,2,2,11,,,,,,,,3,08,,,,,,,,,,,3,3.954,1,,,,,,0.109426141,-0.263890724,1,0,0,3.9544,Diorite_rect,10,0,10,0,1,
6629442858ac993227d2a95d,TCN,2024-06-21_10h47.30.020,LearnStrategy,2023.2.3,MacIntel,60.24096386,2,2,12,,,,,,,,2,11,,,,,,,,,,,8,2.271,0,,,,,,0.439943915,-0.389242442,1,0,0,2.2708,Pumice_rect,11,0,11,0,1,
6629442858ac993227d2a95d,TCN,2024-06-21_10h47.30.020,LearnStrategy,2023.2.3,MacIntel,60.24096386,2,2,13,,,,,,,,7,10,,,,,,,,,,,1,5.804,0,,,,,,-0.351134627,-0.253700431,1,0,0,5.8038,Andesite_rect,12,0,12,0,1,
6629442858ac993227d2a95d,TCN,2024-06-21_10h47.30.020,LearnStrategy,2023.2.3,MacIntel,60.24096386,2,2,14,,,,,,,,8,05,,,,,,,,,,,8,2.37,1,,,,,,0.364461263,-0.384053827,1,0,0,2.3698,Pumice_rect,13,0,13,0,1,
6629442858ac993227d2a95d,TCN,2024-06-21_10h47.30.020,LearnStrategy,2023.2.3,MacIntel,60.24096386,2,2,15,,,,,,,,2,01,,,,,,,,,,,4,5.701,0,,,,,,0.393111974,-0.254034939,1,0,0,5.7005,Gabbro_rect,14,0,14,0,1,
6629442858ac993227d2a95d,TCN,2024-06-21_10h47.30.020,LearnStrategy,2023.2.3,MacIntel,60.24096386,2,2,16,,,,,,,,6,15,,,,,,,,,,,6,4.447,1,,,,,,-0.127887186,-0.403971424,1,0,0,4.4474,Pegmatite_rect,15,0,15,0,1,
6629442858ac993227d2a95d,TCN,2024-06-21_10h47.30.020,LearnStrategy,2023.2.3,MacIntel,60.24096386,3,1,1,0.06743702,-0.00733784,1,0,0,1.5474,rock_grid_rect_2,3,06,-1,-1,1.547,-0.318212918,-0.26376935,1,0,0,7.1525,Andesite_rect,1,7.152,0,0,0,0,0,1,,,,,,,,,,,,,
6629442858ac993227d2a95d,TCN,2024-06-21_10h47.30.020,LearnStrategy,2023.2.3,MacIntel,60.24096386,3,1,2,0.067648692,-0.009185443,1,0,0,1.3802,rock_grid_rect_2,1,07,-1,-1,1.38,-0.346582178,-0.230939334,1,0,0,3.0151,Andesite_rect,1,3.015,1,1,0,1,0,1,,,,,,,,,,,,,
6629442858ac993227d2a95d,TCN,2024-06-21_10h47.30.020,LearnStrategy,2023.2.3,MacIntel,60.24096386,3,1,3,0.063702239,-0.013206203,1,0,0,1.2476,rock_grid_rect_2,6,06,-1,-1,1.248,-0.141424658,-0.401137539,1,0,0,3.565,Pegmatite_rect,6,3.565,1,2,0,2,0,1,,,,,,,,,,,,,
6629442858ac993227d2a95d,TCN,2024-06-21_10h47.30.020,LearnStrategy,2023.2.3,MacIntel,60.24096386,3,1,4,0.007316555,-0.01652384,1,0,0,1.2,rock_grid_rect_2,4,10,-1,-1,1.2,0.355813501,-0.262338438,1,0,0,2.8068,Gabbro_rect,4,2.807,1,3,0,3,0,1,,,,,,,,,,,,,
6629442858ac993227d2a95d,TCN,2024-06-21_10h47.30.020,LearnStrategy,2023.2.3,MacIntel,60.24096386,3,1,5,0.064641456,-0.001819036,1,0,0,1.3848,rock_grid_rect_2,2,16,-1,-1,1.385,0.101358144,-0.243100867,1,0,0,5.7681,Diorite_rect,3,5.768,0,4,0,4,0,1,,,,,,,,,,,,,
6629442858ac993227d2a95d,TCN,2024-06-21_10h47.30.020,LearnStrategy,2023.2.3,MacIntel,60.24096386,3,1,6,0.067937494,0.001129986,1,0,0,1.5126,rock_grid_rect_2,6,03,-1,-1,1.513,0.095087757,-0.407138703,1,0,0,2.6939,Peridotite_rect,7,2.694,0,5,0,5,0,1,,,,,,,,,,,,,
6629442858ac993227d2a95d,TCN,2024-06-21_10h47.30.020,LearnStrategy,2023.2.3,MacIntel,60.24096386,3,1,7,0.083848161,-0.021878317,1,0,0,1.3133,rock_grid_rect_2,8,10,-1,-1,1.313,0.333510586,-0.394981767,1,0,0,1.7288,Pumice_rect,8,1.729,1,6,0,6,0,1,,,,,,,,,,,,,
6629442858ac993227d2a95d,TCN,2024-06-21_10h47.30.020,LearnStrategy,2023.2.3,MacIntel,60.24096386,3,1,8,0.067235938,-0.005272748,1,0,0,1.4601,rock_grid_rect_2,4,08,-1,-1,1.46,0.360080388,-0.24802228,1,0,0,2.598,Gabbro_rect,4,2.598,1,7,0,7,0,1,,,,,,,,,,,,,
6629442858ac993227d2a95d,TCN,2024-06-21_10h47.30.020,LearnStrategy,2023.2.3,MacIntel,60.24096386,3,1,9,-0.074782907,-0.023392525,1,0,0,1.3335,rock_grid_rect_2,5,02,-1,-1,1.334,-0.400890124,-0.402833843,1,0,0,1.929,Obsidian_rect,5,1.929,1,8,0,8,0,1,,,,,,,,,,,,,
6629442858ac993227d2a95d,TCN,2024-06-21_10h47.30.020,LearnStrategy,2023.2.3,MacIntel,60.24096386,3,1,10,0.084892935,0.006620712,1,0,0,1.2298,rock_grid_rect_2,5,11,-1,-1,1.23,-0.370789201,-0.406594194,1,0,0,1.8423,Obsidian_rect,5,1.842,1,9,0,9,0,1,,,,,,,,,,,,,
6629442858ac993227d2a95d,TCN,2024-06-21_10h47.30.020,LearnStrategy,2023.2.3,MacIntel,60.24096386,3,1,11,0.091722671,0.003919558,1,0,0,1.0688,rock_grid_rect_2,8,03,-1,-1,1.069,0.349760151,-0.386853989,1,0,0,1.6663,Pumice_rect,8,1.666,1,10,0,10,0,1,,,,,,,,,,,,,
6629442858ac993227d2a95d,TCN,2024-06-21_10h47.30.020,LearnStrategy,2023.2.3,MacIntel,60.24096386,3,1,12,0.052184641,0.005135732,1,0,0,1.4487,rock_grid_rect_2,7,02,-1,-1,1.449,0.127154346,-0.40476725,1,0,0,2.5234,Peridotite_rect,7,2.523,1,11,0,11,0,1,,,,,,,,,,,,,
6629442858ac993227d2a95d,TCN,2024-06-21_10h47.30.020,LearnStrategy,2023.2.3,MacIntel,60.24096386,3,1,13,0.070355907,0.00176239,1,0,0,1.149,rock_grid_rect_2,1,06,-1,-1,1.149,0.370896292,-0.271065978,1,0,0,2.6243,Gabbro_rect,4,2.624,0,12,0,12,0,1,,,,,,,,,,,,,
6629442858ac993227d2a95d,TCN,2024-06-21_10h47.30.020,LearnStrategy,2023.2.3,MacIntel,60.24096386,3,1,14,0.081047163,0.007505826,1,0,0,2.0484,rock_grid_rect_2,2,09,-1,-1,2.048,-0.3450625,-0.235086728,1,0,0,1.3589,Andesite_rect,1,1.359,0,13,0,13,0,1,,,,,,,,,,,,,
6629442858ac993227d2a95d,TCN,2024-06-21_10h47.30.020,LearnStrategy,2023.2.3,MacIntel,60.24096386,3,1,15,0.029701337,0.006632034,1,0,0,1.2457,rock_grid_rect_2,7,08,-1,-1,1.246,-0.352056181,-0.258840274,1,0,0,2.9416,Andesite_rect,1,2.942,0,14,0,14,0,1,,,,,,,,,,,,,
6629442858ac993227d2a95d,TCN,2024-06-21_10h47.30.020,LearnStrategy,2023.2.3,MacIntel,60.24096386,3,1,16,0.100386528,-0.004855744,1,0,0,0.9468,rock_grid_rect_2,3,07,-1,-1,0.947,0.100493479,-0.26485788,1,0,0,4.7844,Diorite_rect,3,4.784,1,15,0,15,0,1,,,,,,,,,,,,,
6629442858ac993227d2a95d,TCN,2024-06-21_10h47.30.020,LearnStrategy,2023.2.3,MacIntel,60.24096386,3,2,1,,,,,,,,7,12,,,,,,,,,,,7,1.46,1,,,,,,0.067224233,-0.41945575,1,0,0,1.4596,Peridotite_rect,0,0,0,0,1,
6629442858ac993227d2a95d,TCN,2024-06-21_10h47.30.020,LearnStrategy,2023.2.3,MacIntel,60.24096386,3,2,2,,,,,,,,6,09,,,,,,,,,,,6,3.014,1,,,,,,-0.077347777,-0.405777326,1,0,0,3.0143,Pegmatite_rect,1,0,1,0,1,
6629442858ac993227d2a95d,TCN,2024-06-21_10h47.30.020,LearnStrategy,2023.2.3,MacIntel,60.24096386,3,2,3,,,,,,,,1,02,,,,,,,,,,,1,4.078,1,,,,,,-0.341854008,-0.251299714,1,0,0,4.0781,Andesite_rect,2,0,2,0,1,
6629442858ac993227d2a95d,TCN,2024-06-21_10h47.30.020,LearnStrategy,2023.2.3,MacIntel,60.24096386,3,2,4,,,,,,,,2,04,,,,,,,,,,,4,3.335,0,,,,,,0.415657218,-0.252244157,1,0,0,3.335,Gabbro_rect,3,0,3,0,1,
6629442858ac993227d2a95d,TCN,2024-06-21_10h47.30.020,LearnStrategy,2023.2.3,MacIntel,60.24096386,3,2,5,,,,,,,,4,16,,,,,,,,,,,2,4.249,0,,,,,,-0.088631408,-0.246973813,1,0,0,4.2486,Basalt_rect,4,0,4,0,1,
6629442858ac993227d2a95d,TCN,2024-06-21_10h47.30.020,LearnStrategy,2023.2.3,MacIntel,60.24096386,3,2,6,,,,,,,,4,12,,,,,,,,,,,1,3.802,0,,,,,,-0.408176405,-0.244293492,1,0,0,3.8024,Andesite_rect,5,0,5,0,1,
6629442858ac993227d2a95d,TCN,2024-06-21_10h47.30.020,LearnStrategy,2023.2.3,MacIntel,60.24096386,3,2,7,,,,,,,,8,16,,,,,,,,,,,8,1.765,1,,,,,,0.340028667,-0.378266774,1,0,0,1.765,Pumice_rect,6,0,6,0,1,
6629442858ac993227d2a95d,TCN,2024-06-21_10h47.30.020,LearnStrategy,2023.2.3,MacIntel,60.24096386,3,2,8,,,,,,,,2,14,,,,,,,,,,,8,1.612,0,,,,,,0.346142982,-0.388917618,1,0,0,1.6118,Pumice_rect,7,0,7,0,1,
6629442858ac993227d2a95d,TCN,2024-06-21_10h47.30.020,LearnStrategy,2023.2.3,MacIntel,60.24096386,3,2,9,,,,,,,,3,11,,,,,,,,,,,1,3.96,0,,,,,,-0.317884367,-0.253830374,1,0,0,3.96,Andesite_rect,8,0,8,0,1,
6629442858ac993227d2a95d,TCN,2024-06-21_10h47.30.020,LearnStrategy,2023.2.3,MacIntel,60.24096386,3,2,10,,,,,,,,6,13,,,,,,,,,,,6,2.124,1,,,,,,-0.109773679,-0.400895001,1,0,0,2.1242,Pegmatite_rect,9,0,9,0,1,
6629442858ac993227d2a95d,TCN,2024-06-21_10h47.30.020,LearnStrategy,2023.2.3,MacIntel,60.24096386,3,2,11,,,,,,,,3,10,,,,,,,,,,,1,1.405,0,,,,,,-0.32257843,-0.270720321,1,0,0,1.4052,Andesite_rect,10,0,10,0,1,
6629442858ac993227d2a95d,TCN,2024-06-21_10h47.30.020,LearnStrategy,2023.2.3,MacIntel,60.24096386,3,2,12,,,,,,,,1,03,,,,,,,,,,,4,4.171,0,,,,,,0.391707608,-0.239311532,1,0,0,4.171,Gabbro_rect,11,0,11,0,1,
6629442858ac993227d2a95d,TCN,2024-06-21_10h47.30.020,LearnStrategy,2023.2.3,MacIntel,60.24096386,3,2,13,,,,,,,,5,07,,,,,,,,,,,6,4.044,0,,,,,,-0.111290919,-0.406225056,1,0,0,4.0438,Pegmatite_rect,12,0,12,0,1,
6629442858ac993227d2a95d,TCN,2024-06-21_10h47.30.020,LearnStrategy,2023.2.3,MacIntel,60.24096386,3,2,14,,,,,,,,7,05,,,,,,,,,,,1,4.31,0,,,,,,-0.359294665,-0.247743441,1,0,0,4.3104,Andesite_rect,13,0,13,0,1,
6629442858ac993227d2a95d,TCN,2024-06-21_10h47.30.020,LearnStrategy,2023.2.3,MacIntel,60.24096386,3,2,15,,,,,,,,8,15,,,,,,,,,,,8,1.564,1,,,,,,0.305681342,-0.378145889,1,0,0,1.5644,Pumice_rect,14,0,14,0,1,
6629442858ac993227d2a95d,TCN,2024-06-21_10h47.30.020,LearnStrategy,2023.2.3,MacIntel,60.24096386,3,2,16,,,,,,,,5,08,,,,,,,,,,,5,3.265,1,,,,,,-0.349156872,-0.407586015,1,0,0,3.2653,Obsidian_rect,15,0,15,0,1,
6629442858ac993227d2a95d,TCN,2024-06-21_10h47.30.020,LearnStrategy,2023.2.3,MacIntel,60.24096386,4,1,1,0.014490694,-0.011594764,1,0,0,1.5319,rock_grid_rect_2,2,16,-1,-1,1.532,-0.128166303,-0.253874687,1,0,0,1.8763,Basalt_rect,2,1.876,1,0,0,0,0,1,,,,,,,,,,,,,
6629442858ac993227d2a95d,TCN,2024-06-21_10h47.30.020,LearnStrategy,2023.2.3,MacIntel,60.24096386,4,1,2,-0.000100053,-0.009287795,1,0,0,1.2155,rock_grid_rect_2,2,12,-1,-1,1.216,0.34990396,-0.398434016,1,0,0,1.7333,Pumice_rect,8,1.733,0,1,0,1,0,1,,,,,,,,,,,,,
6629442858ac993227d2a95d,TCN,2024-06-21_10h47.30.020,LearnStrategy,2023.2.3,MacIntel,60.24096386,4,1,3,0.059143903,-0.019570999,1,0,0,1.512,rock_grid_rect_2,7,07,-1,-1,1.512,-0.431642889,-0.230697423,1,0,0,2.9236,Andesite_rect,1,2.924,0,2,0,2,0,1,,,,,,,,,,,,,
6629442858ac993227d2a95d,TCN,2024-06-21_10h47.30.020,LearnStrategy,2023.2.3,MacIntel,60.24096386,4,1,4,-0.03587195,-0.002334212,1,0,0,1.1947,rock_grid_rect_2,1,06,-1,-1,1.195,-0.373665344,-0.253094538,1,0,0,2.6856,Andesite_rect,1,2.686,1,3,0,3,0,1,,,,,,,,,,,,,
6629442858ac993227d2a95d,TCN,2024-06-21_10h47.30.020,LearnStrategy,2023.2.3,MacIntel,60.24096386,4,1,5,0.044233557,-0.001553366,1,0,0,1.3156,rock_grid_rect_2,6,03,-1,-1,1.316,0.140762468,-0.399992503,1,0,0,1.8946,Peridotite_rect,7,1.895,0,4,0,4,0,1,,,,,,,,,,,,,
6629442858ac993227d2a95d,TCN,2024-06-21_10h47.30.020,LearnStrategy,2023.2.3,MacIntel,60.24096386,4,1,6,0.03494207,-0.01355834,1,0,0,1.0214,rock_grid_rect_2,5,10,-1,-1,1.021,-0.38014789,-0.413280191,1,0,0,1.4061,Obsidian_rect,5,1.406,1,5,0,5,0,1,,,,,,,,,,,,,
6629442858ac993227d2a95d,TCN,2024-06-21_10h47.30.020,LearnStrategy,2023.2.3,MacIntel,60.24096386,4,1,7,0.040419626,0.0205222,1,0,0,1.6204,rock_grid_rect_2,4,08,-1,-1,1.62,0.404155435,-0.247330478,1,0,0,3.9009,Gabbro_rect,4,3.901,1,6,0,6,0,1,,,,,,,,,,,,,
6629442858ac993227d2a95d,TCN,2024-06-21_10h47.30.020,LearnStrategy,2023.2.3,MacIntel,60.24096386,4,1,8,-0.04042325,-0.016456639,1,0,0,1.2479,rock_grid_rect_2,4,15,-1,-1,1.248,-0.11922528,-0.249382402,1,0,0,3.1163,Basalt_rect,2,3.116,0,7,0,7,0,1,,,,,,,,,,,,,
6629442858ac993227d2a95d,TCN,2024-06-21_10h47.30.020,LearnStrategy,2023.2.3,MacIntel,60.24096386,4,1,9,0.089463186,0.005573011,1,0,0,1.2808,rock_grid_rect_2,3,02,-1,-1,1.281,-0.353678176,-0.257050188,1,0,0,3.0851,Andesite_rect,1,3.085,0,8,0,8,0,1,,,,,,,,,,,,,
6629442858ac993227d2a95d,TCN,2024-06-21_10h47.30.020,LearnStrategy,2023.2.3,MacIntel,60.24096386,4,1,10,-0.006983091,0.009475185,1,0,0,1.564,rock_grid_rect_2,8,10,-1,-1,1.564,0.336106671,-0.40992702,1,0,0,1.9177,Pumice_rect,8,1.918,1,9,0,9,0,1,,,,,,,,,,,,,
6629442858ac993227d2a95d,TCN,2024-06-21_10h47.30.020,LearnStrategy,2023.2.3,MacIntel,60.24096386,4,1,11,-0.063737007,0.002748812,1,0,0,1.2995,rock_grid_rect_2,8,13,-1,-1,1.3,0.409114611,-0.400313983,1,0,0,3.4434,Pumice_rect,8,3.443,1,10,0,10,0,1,,,,,,,,,,,,,
6629442858ac993227d2a95d,TCN,2024-06-21_10h47.30.020,LearnStrategy,2023.2.3,MacIntel,60.24096386,4,1,12,0.001451884,-0.022070584,1,0,0,1.1296,rock_grid_rect_2,7,02,-1,-1,1.13,0.138899642,-0.401462712,1,0,0,3.633,Peridotite_rect,7,3.633,1,11,0,11,0,1,,,,,,,,,,,,,
6629442858ac993227d2a95d,TCN,2024-06-21_10h47.30.020,LearnStrategy,2023.2.3,MacIntel,60.24096386,4,1,13,0.042076006,-0.00167784,1,0,0,1.2484,rock_grid_rect_2,6,07,-1,-1,1.248,-0.086031004,-0.388459227,1,0,0,2.075,Pegmatite_rect,6,2.075,1,12,0,12,0,1,,,,,,,,,,,,,
6629442858ac993227d2a95d,TCN,2024-06-21_10h47.30.020,LearnStrategy,2023.2.3,MacIntel,60.24096386,4,1,14,-0.018023208,-0.018822309,1,0,0,0.9788,rock_grid_rect_2,5,12,-1,-1,0.979,-0.405280335,-0.398923482,1,0,0,3.6369,Obsidian_rect,5,3.637,1,13,0,13,0,1,,,,,,,,,,,,,
6629442858ac993227d2a95d,TCN,2024-06-21_10h47.30.020,LearnStrategy,2023.2.3,MacIntel,60.24096386,4,1,15,0.040205794,0.000776944,1,0,0,1.1221,rock_grid_rect_2,3,07,-1,-1,1.122,-0.383100884,-0.246428189,1,0,0,2.1478,Andesite_rect,1,2.148,0,14,0,14,0,1,,,,,,,,,,,,,
6629442858ac993227d2a95d,TCN,2024-06-21_10h47.30.020,LearnStrategy,2023.2.3,MacIntel,60.24096386,4,1,16,-0.012031102,-0.006212243,1,0,0,1.212,rock_grid_rect_2,1,04,-1,-1,1.212,0.409484585,-0.240210198,1,0,0,2.046,Gabbro_rect,4,2.046,0,15,0,15,0,1,,,,,,,,,,,,,
6629442858ac993227d2a95d,TCN,2024-06-21_10h47.30.020,LearnStrategy,2023.2.3,MacIntel,60.24096386,4,2,1,,,,,,,,6,15,,,,,,,,,,,6,4.412,1,,,,,,-0.107397349,-0.406983397,1,0,0,4.4118,Pegmatite_rect,0,0,0,0,1,
6629442858ac993227d2a95d,TCN,2024-06-21_10h47.30.020,LearnStrategy,2023.2.3,MacIntel,60.24096386,4,2,2,,,,,,,,7,10,,,,,,,,,,,7,4.503,1,,,,,,0.16867588,-0.406609174,1,0,0,4.5032,Peridotite_rect,1,0,1,0,1,
6629442858ac993227d2a95d,TCN,2024-06-21_10h47.30.020,LearnStrategy,2023.2.3,MacIntel,60.24096386,4,2,3,,,,,,,,5,04,,,,,,,,,,,5,1.507,1,,,,,,-0.363336189,-0.401981232,1,0,0,1.507,Obsidian_rect,2,0,2,0,1,
6629442858ac993227d2a95d,TCN,2024-06-21_10h47.30.020,LearnStrategy,2023.2.3,MacIntel,60.24096386,4,2,4,,,,,,,,8,15,,,,,,,,,,,8,1.766,1,,,,,,0.35777652,-0.384877453,1,0,0,1.7664,Pumice_rect,3,0,3,0,1,
6629442858ac993227d2a95d,TCN,2024-06-21_10h47.30.020,LearnStrategy,2023.2.3,MacIntel,60.24096386,4,2,5,,,,,,,,6,13,,,,,,,,,,,6,6.857,1,,,,,,-0.171099519,-0.390272097,1,0,0,6.8572,Pegmatite_rect,4,0,4,0,1,
6629442858ac993227d2a95d,TCN,2024-06-21_10h47.30.020,LearnStrategy,2023.2.3,MacIntel,60.24096386,4,2,6,,,,,,,,3,08,,,,,,,,,,,1,3.163,0,,,,,,-0.427918456,-0.22803452,1,0,0,3.1635,Andesite_rect,5,0,5,0,1,
6629442858ac993227d2a95d,TCN,2024-06-21_10h47.30.020,LearnStrategy,2023.2.3,MacIntel,60.24096386,4,2,7,,,,,,,,1,10,,,,,,,,,,,8,1.875,0,,,,,,0.371375515,-0.380311661,1,0,0,1.8746,Pumice_rect,6,0,6,0,1,
6629442858ac993227d2a95d,TCN,2024-06-21_10h47.30.020,LearnStrategy,2023.2.3,MacIntel,60.24096386,4,2,8,,,,,,,,1,14,,,,,,,,,,,4,1.671,0,,,,,,0.41305319,-0.26321864,1,0,0,1.6709,Gabbro_rect,7,0,7,0,1,
6629442858ac993227d2a95d,TCN,2024-06-21_10h47.30.020,LearnStrategy,2023.2.3,MacIntel,60.24096386,4,2,9,,,,,,,,2,04,,,,,,,,,,,2,3.311,1,,,,,,-0.13222744,-0.26270451,1,0,0,3.3107,Basalt_rect,8,0,8,0,1,
6629442858ac993227d2a95d,TCN,2024-06-21_10h47.30.020,LearnStrategy,2023.2.3,MacIntel,60.24096386,4,2,10,,,,,,,,8,16,,,,,,,,,,,8,1.526,1,,,,,,0.354548206,-0.402295117,1,0,0,1.5265,Pumice_rect,9,0,9,0,1,
6629442858ac993227d2a95d,TCN,2024-06-21_10h47.30.020,LearnStrategy,2023.2.3,MacIntel,60.24096386,4,2,11,,,,,,,,3,14,,,,,,,,,,,1,1.808,0,,,,,,-0.363936193,-0.269845693,1,0,0,1.8083,Andesite_rect,10,0,10,0,1,
6629442858ac993227d2a95d,TCN,2024-06-21_10h47.30.020,LearnStrategy,2023.2.3,MacIntel,60.24096386,4,2,12,,,,,,,,4,11,,,,,,,,,,,2,1.639,0,,,,,,-0.137121889,-0.254676575,1,0,0,1.6389,Basalt_rect,11,0,11,0,1,
6629442858ac993227d2a95d,TCN,2024-06-21_10h47.30.020,LearnStrategy,2023.2.3,MacIntel,60.24096386,4,2,13,,,,,,,,5,16,,,,,,,,,,,5,1.242,1,,,,,,-0.357934682,-0.405076885,1,0,0,1.2418,Obsidian_rect,12,0,12,0,1,
6629442858ac993227d2a95d,TCN,2024-06-21_10h47.30.020,LearnStrategy,2023.2.3,MacIntel,60.24096386,4,2,14,,,,,,,,7,04,,,,,,,,,,,6,1.724,0,,,,,,-0.123997518,-0.394385281,1,0,0,1.7243,Pegmatite_rect,13,0,13,0,1,
6629442858ac993227d2a95d,TCN,2024-06-21_10h47.30.020,LearnStrategy,2023.2.3,MacIntel,60.24096386,4,2,15,,,,,,,,4,16,,,,,,,,,,,4,3.392,1,,,,,,0.379485527,-0.232869536,1,0,0,3.3921,Gabbro_rect,14,0,14,0,1,
6629442858ac993227d2a95d,TCN,2024-06-21_10h47.30.020,LearnStrategy,2023.2.3,MacIntel,60.24096386,4,2,16,,,,,,,,2,14,,,,,,,,,,,8,3.766,0,,,,,,0.400704719,-0.407625869,1,0,0,3.7662,Pumice_rect,15,0,15,0,1,
6629442858ac993227d2a95d,TCN,2024-06-21_10h47.30.020,LearnStrategy,2023.2.3,MacIntel,60.24096386,5,1,1,0.086766073,-0.017663024,1,0,0,1.4472,rock_grid_rect_2,8,02,-1,-1,1.447,0.366262776,-0.397838227,1,0,0,1.6168,Pumice_rect,8,1.617,1,0,0,0,0,1,,,,,,,,,,,,,
6629442858ac993227d2a95d,TCN,2024-06-21_10h47.30.020,LearnStrategy,2023.2.3,MacIntel,60.24096386,5,1,2,0.046438836,0.003930497,1,0,0,2.4797,rock_grid_rect_2,1,07,-1,-1,2.48,-0.410212791,-0.259173041,1,0,0,1.9502,Andesite_rect,1,1.95,1,1,0,1,0,1,,,,,,,,,,,,,
6629442858ac993227d2a95d,TCN,2024-06-21_10h47.30.020,LearnStrategy,2023.2.3,MacIntel,60.24096386,5,1,3,0.039614743,0.006089372,1,0,0,1.7565,rock_grid_rect_2,5,06,-1,-1,1.756,-0.341144962,-0.397071595,1,0,0,2.0243,Obsidian_rect,5,2.024,1,2,0,2,0,1,,,,,,,,,,,,,
6629442858ac993227d2a95d,TCN,2024-06-21_10h47.30.020,LearnStrategy,2023.2.3,MacIntel,60.24096386,5,1,4,-0.002000992,-0.013339979,1,0,0,1.0803,rock_grid_rect_2,8,03,-1,-1,1.08,0.418576315,-0.409719946,1,0,0,1.8606,Pumice_rect,8,1.861,1,3,0,3,0,1,,,,,,,,,,,,,
6629442858ac993227d2a95d,TCN,2024-06-21_10h47.30.020,LearnStrategy,2023.2.3,MacIntel,60.24096386,5,1,5,-0.035505391,-0.01733705,1,0,0,1.3131,rock_grid_rect_2,6,10,-1,-1,1.313,-0.072472908,-0.384549076,1,0,0,1.663,Pegmatite_rect,6,1.663,1,4,0,4,0,1,,,,,,,,,,,,,
6629442858ac993227d2a95d,TCN,2024-06-21_10h47.30.020,LearnStrategy,2023.2.3,MacIntel,60.24096386,5,1,6,0.011922201,-0.00056893,1,0,0,1.2962,rock_grid_rect_2,2,02,-1,-1,1.296,-0.080015418,-0.265674678,1,0,0,1.3585,Basalt_rect,2,1.359,1,5,0,5,0,1,,,,,,,,,,,,,
6629442858ac993227d2a95d,TCN,2024-06-21_10h47.30.020,LearnStrategy,2023.2.3,MacIntel,60.24096386,5,1,7,0.013012194,-0.004827177,1,0,0,1.0645,rock_grid_rect_2,3,13,-1,-1,1.064,0.125183105,-0.235940454,1,0,0,2.4601,Diorite_rect,3,2.46,1,6,0,6,0,1,,,,,,,,,,,,,
6629442858ac993227d2a95d,TCN,2024-06-21_10h47.30.020,LearnStrategy,2023.2.3,MacIntel,60.24096386,5,1,8,0.075331039,0.012853962,1,0,0,0.9306,rock_grid_rect_2,7,14,-1,-1,0.931,0.109133577,-0.393251045,1,0,0,3.6916,Peridotite_rect,7,3.692,1,7,0,7,0,1,,,,,,,,,,,,,
6629442858ac993227d2a95d,TCN,2024-06-21_10h47.30.020,LearnStrategy,2023.2.3,MacIntel,60.24096386,5,1,9,0.051707229,0.01319185,1,0,0,0.864,rock_grid_rect_2,7,08,-1,-1,0.864,0.109048922,-0.383210622,1,0,0,2.5394,Peridotite_rect,7,2.539,1,8,0,8,0,1,,,,,,,,,,,,,
6629442858ac993227d2a95d,TCN,2024-06-21_10h47.30.020,LearnStrategy,2023.2.3,MacIntel,60.24096386,5,1,10,0.068465629,0.000491277,1,0,0,1.2959,rock_grid_rect_2,3,06,-1,-1,1.296,-0.072658173,-0.262695173,1,0,0,3.1341,Basalt_rect,2,3.134,0,9,0,9,0,1,,,,,,,,,,,,,
6629442858ac993227d2a95d,TCN,2024-06-21_10h47.30.020,LearnStrategy,2023.2.3,MacIntel,60.24096386,5,1,11,0.083151203,-0.007417304,1,0,0,1.0146,rock_grid_rect_2,1,09,-1,-1,1.015,-0.085021694,-0.251052996,1,0,0,1.2343,Basalt_rect,2,1.234,0,10,0,10,0,1,,,,,,,,,,,,,
6629442858ac993227d2a95d,TCN,2024-06-21_10h47.30.020,LearnStrategy,2023.2.3,MacIntel,60.24096386,5,1,12,0.048931592,-0.009580708,1,0,0,1.2477,rock_grid_rect_2,4,10,-1,-1,1.248,0.429183054,-0.258039849,1,0,0,3.9508,Gabbro_rect,4,3.951,1,11,0,11,0,1,,,,,,,,,,,,,
6629442858ac993227d2a95d,TCN,2024-06-21_10h47.30.020,LearnStrategy,2023.2.3,MacIntel,60.24096386,5,1,13,0.075150999,0.011637997,1,0,0,1.2498,rock_grid_rect_2,4,03,-1,-1,1.25,-0.340759626,-0.23820412,1,0,0,2.6412,Andesite_rect,1,2.641,0,12,0,12,0,1,,,,,,,,,,,,,
6629442858ac993227d2a95d,TCN,2024-06-21_10h47.30.020,LearnStrategy,2023.2.3,MacIntel,60.24096386,5,1,14,0.025239013,-0.01588419,1,0,0,1.2003,rock_grid_rect_2,2,06,-1,-1,1.2,-0.069575619,-0.250924724,1,0,0,2.8363,Basalt_rect,2,2.836,1,13,0,13,0,1,,,,,,,,,,,,,
6629442858ac993227d2a95d,TCN,2024-06-21_10h47.30.020,LearnStrategy,2023.2.3,MacIntel,60.24096386,5,1,15,0.034030374,0.001383011,1,0,0,1.3043,rock_grid_rect_2,6,12,-1,-1,1.304,0.106672104,-0.245684759,1,0,0,4.1088,Diorite_rect,3,4.109,0,14,0,14,0,1,,,,,,,,,,,,,
6629442858ac993227d2a95d,TCN,2024-06-21_10h47.30.020,LearnStrategy,2023.2.3,MacIntel,60.24096386,5,1,16,0.0216718,-0.002293556,1,0,0,1.0175,rock_grid_rect_2,5,11,-1,-1,1.017,-0.438535891,-0.415637709,1,0,0,1.3575,Obsidian_rect,5,1.358,1,15,0,15,0,1,,,,,,,,,,,,,
6629442858ac993227d2a95d,TCN,2024-06-21_10h47.30.020,LearnStrategy,2023.2.3,MacIntel,60.24096386,5,2,1,,,,,,,,6,05,,,,,,,,,,,3,6.505,0,,,,,,0.115699803,-0.248933139,1,0,0,6.5047,Diorite_rect,0,0,0,0,1,
6629442858ac993227d2a95d,TCN,2024-06-21_10h47.30.020,LearnStrategy,2023.2.3,MacIntel,60.24096386,5,2,2,,,,,,,,5,07,,,,,,,,,,,5,3.543,1,,,,,,-0.385183395,-0.393097481,1,0,0,3.5435,Obsidian_rect,1,0,1,0,1,
6629442858ac993227d2a95d,TCN,2024-06-21_10h47.30.020,LearnStrategy,2023.2.3,MacIntel,60.24096386,5,2,3,,,,,,,,2,08,,,,,,,,,,,2,2.729,1,,,,,,-0.121541968,-0.25484477,1,0,0,2.7295,Basalt_rect,2,0,2,0,1,
6629442858ac993227d2a95d,TCN,2024-06-21_10h47.30.020,LearnStrategy,2023.2.3,MacIntel,60.24096386,5,2,4,,,,,,,,5,14,,,,,,,,,,,5,1.73,1,,,,,,-0.406756606,-0.414838956,1,0,0,1.7298,Obsidian_rect,3,0,3,0,1,
6629442858ac993227d2a95d,TCN,2024-06-21_10h47.30.020,LearnStrategy,2023.2.3,MacIntel,60.24096386,5,2,5,,,,,,,,7,05,,,,,,,,,,,7,1.695,1,,,,,,0.172169516,-0.411010812,1,0,0,1.6947,Peridotite_rect,4,0,4,0,1,
6629442858ac993227d2a95d,TCN,2024-06-21_10h47.30.020,LearnStrategy,2023.2.3,MacIntel,60.24096386,5,2,6,,,,,,,,4,14,,,,,,,,,,,4,4.186,1,,,,,,0.43149166,-0.259215682,1,0,0,4.1857,Gabbro_rect,5,0,5,0,1,
6629442858ac993227d2a95d,TCN,2024-06-21_10h47.30.020,LearnStrategy,2023.2.3,MacIntel,60.24096386,5,2,7,,,,,,,,8,14,,,,,,,,,,,8,1.81,1,,,,,,0.415338386,-0.405845329,1,0,0,1.8101,Pumice_rect,6,0,6,0,1,
6629442858ac993227d2a95d,TCN,2024-06-21_10h47.30.020,LearnStrategy,2023.2.3,MacIntel,60.24096386,5,2,8,,,,,,,,6,11,,,,,,,,,,,6,1.823,1,,,,,,-0.096959711,-0.405985932,1,0,0,1.8234,Pegmatite_rect,7,0,7,0,1,
6629442858ac993227d2a95d,TCN,2024-06-21_10h47.30.020,LearnStrategy,2023.2.3,MacIntel,60.24096386,5,2,9,,,,,,,,8,04,,,,,,,,,,,8,1.496,1,,,,,,0.370856298,-0.393757999,1,0,0,1.4959,Pumice_rect,8,0,8,0,1,
6629442858ac993227d2a95d,TCN,2024-06-21_10h47.30.020,LearnStrategy,2023.2.3,MacIntel,60.24096386,5,2,10,,,,,,,,4,09,,,,,,,,,,,3,4.568,0,,,,,,0.161525779,-0.26103726,1,0,0,4.568,Diorite_rect,9,0,9,0,1,
6629442858ac993227d2a95d,TCN,2024-06-21_10h47.30.020,LearnStrategy,2023.2.3,MacIntel,60.24096386,5,2,11,,,,,,,,1,01,,,,,,,,,,,3,1.648,0,,,,,,0.163293638,-0.26103726,1,0,0,1.6484,Diorite_rect,10,0,10,0,1,
6629442858ac993227d2a95d,TCN,2024-06-21_10h47.30.020,LearnStrategy,2023.2.3,MacIntel,60.24096386,5,2,12,,,,,,,,7,12,,,,,,,,,,,7,1.244,1,,,,,,0.164472188,-0.417965615,1,0,0,1.244,Peridotite_rect,11,0,11,0,1,
6629442858ac993227d2a95d,TCN,2024-06-21_10h47.30.020,LearnStrategy,2023.2.3,MacIntel,60.24096386,5,2,13,,,,,,,,1,02,,,,,,,,,,,1,4.449,1,,,,,,-0.375643447,-0.239557205,1,0,0,4.4488,Andesite_rect,12,0,12,0,1,
6629442858ac993227d2a95d,TCN,2024-06-21_10h47.30.020,LearnStrategy,2023.2.3,MacIntel,60.24096386,5,2,14,,,,,,,,3,10,,,,,,,,,,,1,2.189,0,,,,,,-0.363899335,-0.249102518,1,0,0,2.1889,Andesite_rect,13,0,13,0,1,
6629442858ac993227d2a95d,TCN,2024-06-21_10h47.30.020,LearnStrategy,2023.2.3,MacIntel,60.24096386,5,2,15,,,,,,,,2,05,,,,,,,,,,,2,2.112,1,,,,,,-0.075632452,-0.23912968,1,0,0,2.1123,Basalt_rect,14,0,14,0,1,
6629442858ac993227d2a95d,TCN,2024-06-21_10h47.30.020,LearnStrategy,2023.2.3,MacIntel,60.24096386,5,2,16,,,,,,,,3,11,,,,,,,,,,,1,3.435,0,,,,,,-0.352085828,-0.257322547,1,0,0,3.4345,Andesite_rect,15,0,15,0,1,
6629442858ac993227d2a95d,TCN,2024-06-21_10h47.30.020,LearnStrategy,2023.2.3,MacIntel,60.24096386,6,1,1,0.040257005,0.001505638,1,0,0,3.5139,rock_grid_rect_2,1,11,-1,-1,3.514,-0.152923236,-0.249644031,1,0,0,11.0952,Basalt_rect,2,11.095,0,0,0,0,0,1,,,,,,,,,,,,,
6629442858ac993227d2a95d,TCN,2024-06-21_10h47.30.020,LearnStrategy,2023.2.3,MacIntel,60.24096386,6,1,2,0.043228986,0.001924384,1,0,0,2.1306,rock_grid_rect_2,7,06,-1,-1,2.131,0.132222284,-0.407879625,1,0,0,2.0738,Peridotite_rect,7,2.074,1,1,0,1,0,1,,,,,,,,,,,,,
6629442858ac993227d2a95d,TCN,2024-06-21_10h47.30.020,LearnStrategy,2023.2.3,MacIntel,60.24096386,6,1,3,0.040947413,-0.001044321,1,0,0,1.815,rock_grid_rect_2,6,08,-1,-1,1.815,-0.11559125,-0.396199753,1,0,0,1.7711,Pegmatite_rect,6,1.771,1,2,0,2,0,1,,,,,,,,,,,,,
6629442858ac993227d2a95d,TCN,2024-06-21_10h47.30.020,LearnStrategy,2023.2.3,MacIntel,60.24096386,6,1,4,0.009840177,-0.013855259,1,0,0,0.949,rock_grid_rect_2,3,09,-1,-1,0.949,0.097741602,-0.250380634,1,0,0,7.3447,Diorite_rect,3,7.345,1,3,0,3,0,1,,,,,,,,,,,,,
6629442858ac993227d2a95d,TCN,2024-06-21_10h47.30.020,LearnStrategy,2023.2.3,MacIntel,60.24096386,6,1,5,0.030221112,-0.019164342,1,0,0,1.3327,rock_grid_rect_2,7,16,-1,-1,1.333,0.079415099,-0.407684953,1,0,0,1.5507,Peridotite_rect,7,1.551,1,4,0,4,0,1,,,,,,,,,,,,,
6629442858ac993227d2a95d,TCN,2024-06-21_10h47.30.020,LearnStrategy,2023.2.3,MacIntel,60.24096386,6,1,6,0.07332315,0.001110965,1,0,0,1.18,rock_grid_rect_2,1,16,-1,-1,1.18,0.146205815,-0.235466874,1,0,0,2.6778,Diorite_rect,3,2.678,0,5,0,5,0,1,,,,,,,,,,,,,
6629442858ac993227d2a95d,TCN,2024-06-21_10h47.30.020,LearnStrategy,2023.2.3,MacIntel,60.24096386,6,1,7,0.065050029,-0.000700546,1,0,0,1.2132,rock_grid_rect_2,4,05,-1,-1,1.213,0.100644046,-0.409705314,1,0,0,3.6544,Peridotite_rect,7,3.654,0,6,0,6,0,1,,,,,,,,,,,,,
6629442858ac993227d2a95d,TCN,2024-06-21_10h47.30.020,LearnStrategy,2023.2.3,MacIntel,60.24096386,6,1,8,0.067598386,0.013058527,1,0,0,1.1449,rock_grid_rect_2,8,08,-1,-1,1.145,0.449776845,-0.405372306,1,0,0,1.51,Pumice_rect,8,1.51,1,7,0,7,0,1,,,,,,,,,,,,,
6629442858ac993227d2a95d,TCN,2024-06-21_10h47.30.020,LearnStrategy,2023.2.3,MacIntel,60.24096386,6,1,9,0.038011594,-0.005517306,1,0,0,1.0978,rock_grid_rect_2,5,05,-1,-1,1.098,-0.460853228,-0.396244345,1,0,0,1.3463,Obsidian_rect,5,1.346,1,8,0,8,0,1,,,,,,,,,,,,,
6629442858ac993227d2a95d,TCN,2024-06-21_10h47.30.020,LearnStrategy,2023.2.3,MacIntel,60.24096386,6,1,10,-0.001798447,-0.016967669,1,0,0,1.2584,rock_grid_rect_2,2,10,-1,-1,1.258,-0.106487257,-0.239672587,1,0,0,2.5777,Basalt_rect,2,2.578,1,9,0,9,0,1,,,,,,,,,,,,,
6629442858ac993227d2a95d,TCN,2024-06-21_10h47.30.020,LearnStrategy,2023.2.3,MacIntel,60.24096386,6,1,11,0.025828462,-0.001911564,1,0,0,1.1014,rock_grid_rect_2,8,06,-1,-1,1.101,0.429832145,-0.399557662,1,0,0,1.6565,Pumice_rect,8,1.657,1,10,0,10,0,1,,,,,,,,,,,,,
6629442858ac993227d2a95d,TCN,2024-06-21_10h47.30.020,LearnStrategy,2023.2.3,MacIntel,60.24096386,6,1,12,0.023963893,-0.004263856,1,0,0,1.1974,rock_grid_rect_2,2,09,-1,-1,1.197,-0.115960596,-0.251403809,1,0,0,1.3934,Basalt_rect,2,1.393,1,11,0,11,0,1,,,,,,,,,,,,,
6629442858ac993227d2a95d,TCN,2024-06-21_10h47.30.020,LearnStrategy,2023.2.3,MacIntel,60.24096386,6,1,13,0.112273334,6.18016E-05,1,0,0,1.0488,rock_grid_rect_2,5,02,-1,-1,1.049,-0.400954538,-0.418068524,1,0,0,1.9926,Obsidian_rect,5,1.993,1,12,0,12,0,1,,,,,,,,,,,,,
6629442858ac993227d2a95d,TCN,2024-06-21_10h47.30.020,LearnStrategy,2023.2.3,MacIntel,60.24096386,6,1,14,0.022011326,-0.010853528,1,0,0,1.2203,rock_grid_rect_2,3,12,-1,-1,1.22,0.124655458,-0.255540195,1,0,0,6.5493,Diorite_rect,3,6.549,1,13,0,13,0,1,,,,,,,,,,,,,
6629442858ac993227d2a95d,TCN,2024-06-21_10h47.30.020,LearnStrategy,2023.2.3,MacIntel,60.24096386,6,1,15,0.021209577,0.005465852,1,0,0,1.13,rock_grid_rect_2,4,01,-1,-1,1.13,-0.393801093,-0.255686721,1,0,0,1.5584,Andesite_rect,1,1.558,0,14,0,14,0,1,,,,,,,,,,,,,
6629442858ac993227d2a95d,TCN,2024-06-21_10h47.30.020,LearnStrategy,2023.2.3,MacIntel,60.24096386,6,1,16,0.096801618,0.001743021,1,0,0,0.9664,rock_grid_rect_2,6,06,-1,-1,0.966,-0.142548025,-0.385565422,1,0,0,3.6989,Pegmatite_rect,6,3.699,1,15,0,15,0,1,,,,,,,,,,,,,
6629442858ac993227d2a95d,TCN,2024-06-21_10h47.30.020,LearnStrategy,2023.2.3,MacIntel,60.24096386,6,2,1,,,,,,,,3,15,,,,,,,,,,,3,4.411,1,,,,,,0.149062901,-0.261556059,1,0,0,4.4107,Diorite_rect,0,0,0,0,1,
6629442858ac993227d2a95d,TCN,2024-06-21_10h47.30.020,LearnStrategy,2023.2.3,MacIntel,60.24096386,6,2,2,,,,,,,,5,09,,,,,,,,,,,5,1.207,1,,,,,,-0.361025318,-0.388542559,1,0,0,1.2065,Obsidian_rect,1,0,1,0,1,
6629442858ac993227d2a95d,TCN,2024-06-21_10h47.30.020,LearnStrategy,2023.2.3,MacIntel,60.24096386,6,2,3,,,,,,,,6,09,,,,,,,,,,,6,1.963,1,,,,,,-0.164920894,-0.410023032,1,0,0,1.9625,Pegmatite_rect,2,0,2,0,1,
6629442858ac993227d2a95d,TCN,2024-06-21_10h47.30.020,LearnStrategy,2023.2.3,MacIntel,60.24096386,6,2,4,,,,,,,,4,12,,,,,,,,,,,4,3.643,1,,,,,,0.38752447,-0.245918727,1,0,0,3.643,Gabbro_rect,3,0,3,0,1,
6629442858ac993227d2a95d,TCN,2024-06-21_10h47.30.020,LearnStrategy,2023.2.3,MacIntel,60.24096386,6,2,5,,,,,,,,6,16,,,,,,,,,,,6,2.75,1,,,,,,-0.099916711,-0.380664146,1,0,0,2.75,Pegmatite_rect,4,0,4,0,1,
6629442858ac993227d2a95d,TCN,2024-06-21_10h47.30.020,LearnStrategy,2023.2.3,MacIntel,60.24096386,6,2,6,,,,,,,,2,11,,,,,,,,,,,8,1.434,0,,,,,,0.367341063,-0.411517836,1,0,0,1.4336,Pumice_rect,5,0,5,0,1,
6629442858ac993227d2a95d,TCN,2024-06-21_10h47.30.020,LearnStrategy,2023.2.3,MacIntel,60.24096386,6,2,7,,,,,,,,7,13,,,,,,,,,,,7,1.201,1,,,,,,0.180957394,-0.404233123,1,0,0,1.2014,Peridotite_rect,6,0,6,0,1,
6629442858ac993227d2a95d,TCN,2024-06-21_10h47.30.020,LearnStrategy,2023.2.3,MacIntel,60.24096386,6,2,8,,,,,,,,8,05,,,,,,,,,,,8,1.368,1,,,,,,0.387041763,-0.394084007,1,0,0,1.3681,Pumice_rect,7,0,7,0,1,
6629442858ac993227d2a95d,TCN,2024-06-21_10h47.30.020,LearnStrategy,2023.2.3,MacIntel,60.24096386,6,2,9,,,,,,,,4,13,,,,,,,,,,,1,4.223,0,,,,,,-0.356518227,-0.266415252,1,0,0,4.2231,Andesite_rect,8,0,8,0,1,
6629442858ac993227d2a95d,TCN,2024-06-21_10h47.30.020,LearnStrategy,2023.2.3,MacIntel,60.24096386,6,2,10,,,,,,,,1,03,,,,,,,,,,,4,4.728,0,,,,,,0.328574124,-0.248165322,1,0,0,4.728,Gabbro_rect,9,0,9,0,1,
6629442858ac993227d2a95d,TCN,2024-06-21_10h47.30.020,LearnStrategy,2023.2.3,MacIntel,60.24096386,6,2,11,,,,,,,,3,16,,,,,,,,,,,3,2.355,1,,,,,,0.141720637,-0.268668048,1,0,0,2.3554,Diorite_rect,10,0,10,0,1,
6629442858ac993227d2a95d,TCN,2024-06-21_10h47.30.020,LearnStrategy,2023.2.3,MacIntel,60.24096386,6,2,12,,,,,,,,2,01,,,,,,,,,,,2,1.233,1,,,,,,-0.095695182,-0.251756921,1,0,0,1.2329,Basalt_rect,11,0,11,0,1,
6629442858ac993227d2a95d,TCN,2024-06-21_10h47.30.020,LearnStrategy,2023.2.3,MacIntel,60.24096386,6,2,13,,,,,,,,8,09,,,,,,,,,,,8,1.441,1,,,,,,0.396408011,-0.399703352,1,0,0,1.4411,Pumice_rect,12,0,12,0,1,
6629442858ac993227d2a95d,TCN,2024-06-21_10h47.30.020,LearnStrategy,2023.2.3,MacIntel,60.24096386,6,2,14,,,,,,,,7,15,,,,,,,,,,,7,1.072,1,,,,,,0.224139279,-0.397422129,1,0,0,1.0721,Peridotite_rect,13,0,13,0,1,
6629442858ac993227d2a95d,TCN,2024-06-21_10h47.30.020,LearnStrategy,2023.2.3,MacIntel,60.24096386,6,2,15,,,,,,,,5,08,,,,,,,,,,,5,1.195,1,,,,,,-0.328045849,-0.387201109,1,0,0,1.1952,Obsidian_rect,14,0,14,0,1,
6629442858ac993227d2a95d,TCN,2024-06-21_10h47.30.020,LearnStrategy,2023.2.3,MacIntel,60.24096386,6,2,16,,,,,,,,1,05,,,,,,,,,,,1,5.578,1,,,,,,-0.345377918,-0.233739426,1,0,0,5.5779,Andesite_rect,15,0,15,0,1,
6629442858ac993227d2a95d,TCN,2024-06-21_10h47.30.020,LearnStrategy,2023.2.3,MacIntel,60.24096386,7,1,1,0.050261545,0.006477008,1,0,0,3.8136,rock_grid_rect_2,8,03,-1,-1,3.814,0.35772301,-0.39809895,1,0,0,1.7021,Pumice_rect,8,1.702,1,0,0,0,0,1,,,,,,,,,,,,,
6629442858ac993227d2a95d,TCN,2024-06-21_10h47.30.020,LearnStrategy,2023.2.3,MacIntel,60.24096386,7,1,2,0.045363683,-0.016519242,1,0,0,1.3121,rock_grid_rect_2,1,06,-1,-1,1.312,-0.340287962,-0.243413638,1,0,0,3.3416,Andesite_rect,1,3.342,1,1,0,1,0,1,,,,,,,,,,,,,
6629442858ac993227d2a95d,TCN,2024-06-21_10h47.30.020,LearnStrategy,2023.2.3,MacIntel,60.24096386,7,1,3,-0.024546027,0.00923526,1,0,0,1.042,rock_grid_rect_2,6,12,-1,-1,1.042,-0.114361419,-0.414910373,1,0,0,6.361,Pegmatite_rect,6,6.361,1,2,0,2,0,1,,,,,,,,,,,,,
6629442858ac993227d2a95d,TCN,2024-06-21_10h47.30.020,LearnStrategy,2023.2.3,MacIntel,60.24096386,7,1,4,-0.062642276,-0.013004181,1,0,0,1.1964,rock_grid_rect_2,4,15,-1,-1,1.196,0.126481008,-0.248842144,1,0,0,6.9027,Diorite_rect,3,6.903,0,3,0,3,0,1,,,,,,,,,,,,,
6629442858ac993227d2a95d,TCN,2024-06-21_10h47.30.020,LearnStrategy,2023.2.3,MacIntel,60.24096386,7,1,5,0.09587571,-0.014311734,1,0,0,1.1303,rock_grid_rect_2,6,10,-1,-1,1.13,0.089723352,-0.388348653,1,0,0,2.4921,Peridotite_rect,7,2.492,0,4,0,4,0,1,,,,,,,,,,,,,
6629442858ac993227d2a95d,TCN,2024-06-21_10h47.30.020,LearnStrategy,2023.2.3,MacIntel,60.24096386,7,1,6,0.035249127,-0.01238735,1,0,0,1.1484,rock_grid_rect_2,5,11,-1,-1,1.148,-0.448197212,-0.411853181,1,0,0,1.2346,Obsidian_rect,5,1.235,1,5,0,5,0,1,,,,,,,,,,,,,
6629442858ac993227d2a95d,TCN,2024-06-21_10h47.30.020,LearnStrategy,2023.2.3,MacIntel,60.24096386,7,1,7,-0.011326411,-0.006562533,1,0,0,1.5799,rock_grid_rect_2,3,07,-1,-1,1.58,-0.391193198,-0.270506698,1,0,0,2.5485,Andesite_rect,1,2.548,0,6,0,6,0,1,,,,,,,,,,,,,
6629442858ac993227d2a95d,TCN,2024-06-21_10h47.30.020,LearnStrategy,2023.2.3,MacIntel,60.24096386,7,1,8,0.045493418,0.016627168,1,0,0,1.1955,rock_grid_rect_2,2,09,-1,-1,1.196,-0.131901641,-0.245525064,1,0,0,1.4316,Basalt_rect,2,1.432,1,7,0,7,0,1,,,,,,,,,,,,,
6629442858ac993227d2a95d,TCN,2024-06-21_10h47.30.020,LearnStrategy,2023.2.3,MacIntel,60.24096386,7,1,9,0.05969719,-0.004250583,1,0,0,1.4332,rock_grid_rect_2,7,06,-1,-1,1.433,0.130145556,-0.407642382,1,0,0,1.4554,Peridotite_rect,7,1.455,1,8,0,8,0,1,,,,,,,,,,,,,
6629442858ac993227d2a95d,TCN,2024-06-21_10h47.30.020,LearnStrategy,2023.2.3,MacIntel,60.24096386,7,1,10,0.0313658,-0.001191579,1,0,0,1.1806,rock_grid_rect_2,3,12,-1,-1,1.181,0.124103006,-0.231328956,1,0,0,3.5976,Diorite_rect,3,3.598,1,9,0,9,0,1,,,,,,,,,,,,,
6629442858ac993227d2a95d,TCN,2024-06-21_10h47.30.020,LearnStrategy,2023.2.3,MacIntel,60.24096386,7,1,11,0.07267594,-0.010518044,1,0,0,1.1671,rock_grid_rect_2,8,08,-1,-1,1.167,0.434589543,-0.412670954,1,0,0,1.5614,Pumice_rect,8,1.561,1,10,0,10,0,1,,,,,,,,,,,,,
6629442858ac993227d2a95d,TCN,2024-06-21_10h47.30.020,LearnStrategy,2023.2.3,MacIntel,60.24096386,7,1,12,0.085940984,-0.004138999,1,0,0,0.8149,rock_grid_rect_2,2,10,-1,-1,0.815,0.410783184,-0.2483779,1,0,0,2.924,Gabbro_rect,4,2.924,0,11,0,11,0,1,,,,,,,,,,,,,
6629442858ac993227d2a95d,TCN,2024-06-21_10h47.30.020,LearnStrategy,2023.2.3,MacIntel,60.24096386,7,1,13,0.057070031,-0.001869132,1,0,0,1.0637,rock_grid_rect_2,7,07,-1,-1,1.064,0.130100686,-0.411061605,1,0,0,3.715,Peridotite_rect,7,3.715,1,12,0,12,0,1,,,,,,,,,,,,,
6629442858ac993227d2a95d,TCN,2024-06-21_10h47.30.020,LearnStrategy,2023.2.3,MacIntel,60.24096386,7,1,14,0.00771391,-0.015889904,1,0,0,1.2617,rock_grid_rect_2,5,05,-1,-1,1.262,-0.427284032,-0.383883263,1,0,0,1.4247,Obsidian_rect,5,1.425,1,13,0,13,0,1,,,,,,,,,,,,,
6629442858ac993227d2a95d,TCN,2024-06-21_10h47.30.020,LearnStrategy,2023.2.3,MacIntel,60.24096386,7,1,15,0.007643399,-0.000978095,1,0,0,1.4478,rock_grid_rect_2,4,10,-1,-1,1.448,0.393030454,-0.247082993,1,0,0,2.5992,Gabbro_rect,4,2.599,1,14,0,14,0,1,,,,,,,,,,,,,
6629442858ac993227d2a95d,TCN,2024-06-21_10h47.30.020,LearnStrategy,2023.2.3,MacIntel,60.24096386,7,1,16,0.037064713,-0.012336801,1,0,0,2.0802,rock_grid_rect_2,1,11,-1,-1,2.08,0.138061036,-0.241990529,1,0,0,3.6043,Diorite_rect,3,3.604,0,15,0,15,0,1,,,,,,,,,,,,,
6629442858ac993227d2a95d,TCN,2024-06-21_10h47.30.020,LearnStrategy,2023.2.3,MacIntel,60.24096386,7,2,1,,,,,,,,2,04,,,,,,,,,,,2,2.412,1,,,,,,-0.092074251,-0.245473435,1,0,0,2.412,Basalt_rect,0,0,0,0,1,
6629442858ac993227d2a95d,TCN,2024-06-21_10h47.30.020,LearnStrategy,2023.2.3,MacIntel,60.24096386,7,2,2,,,,,,,,4,12,,,,,,,,,,,4,3.156,1,,,,,,0.411940901,-0.255186316,1,0,0,3.1563,Gabbro_rect,1,0,1,0,1,
6629442858ac993227d2a95d,TCN,2024-06-21_10h47.30.020,LearnStrategy,2023.2.3,MacIntel,60.24096386,7,2,3,,,,,,,,6,13,,,,,,,,,,,6,3.148,1,,,,,,-0.117930512,-0.405906294,1,0,0,3.1478,Pegmatite_rect,2,0,2,0,1,
6629442858ac993227d2a95d,TCN,2024-06-21_10h47.30.020,LearnStrategy,2023.2.3,MacIntel,60.24096386,7,2,4,,,,,,,,8,15,,,,,,,,,,,8,1.536,1,,,,,,0.410417809,-0.388040133,1,0,0,1.536,Pumice_rect,3,0,3,0,1,
6629442858ac993227d2a95d,TCN,2024-06-21_10h47.30.020,LearnStrategy,2023.2.3,MacIntel,60.24096386,7,2,5,,,,,,,,3,15,,,,,,,,,,,3,3.29,1,,,,,,0.072389507,-0.255170988,1,0,0,3.29,Diorite_rect,4,0,4,0,1,
6629442858ac993227d2a95d,TCN,2024-06-21_10h47.30.020,LearnStrategy,2023.2.3,MacIntel,60.24096386,7,2,6,,,,,,,,1,10,,,,,,,,,,,8,2.928,0,,,,,,0.438721679,-0.397887487,1,0,0,2.9284,Pumice_rect,5,0,5,0,1,
6629442858ac993227d2a95d,TCN,2024-06-21_10h47.30.020,LearnStrategy,2023.2.3,MacIntel,60.24096386,7,2,7,,,,,,,,7,13,,,,,,,,,,,7,1.596,1,,,,,,0.179154488,-0.411955324,1,0,0,1.5959,Peridotite_rect,6,0,6,0,1,
6629442858ac993227d2a95d,TCN,2024-06-21_10h47.30.020,LearnStrategy,2023.2.3,MacIntel,60.24096386,7,2,8,,,,,,,,1,03,,,,,,,,,,,4,5.188,0,,,,,,0.396856439,-0.258068625,1,0,0,5.1883,Gabbro_rect,7,0,7,0,1,
6629442858ac993227d2a95d,TCN,2024-06-21_10h47.30.020,LearnStrategy,2023.2.3,MacIntel,60.24096386,7,2,9,,,,,,,,7,10,,,,,,,,,,,7,1.503,1,,,,,,0.149201276,-0.420172147,1,0,0,1.5026,Peridotite_rect,8,0,8,0,1,
6629442858ac993227d2a95d,TCN,2024-06-21_10h47.30.020,LearnStrategy,2023.2.3,MacIntel,60.24096386,7,2,10,,,,,,,,5,07,,,,,,,,,,,5,1.608,1,,,,,,-0.392870724,-0.405872502,1,0,0,1.6082,Obsidian_rect,9,0,9,0,1,
6629442858ac993227d2a95d,TCN,2024-06-21_10h47.30.020,LearnStrategy,2023.2.3,MacIntel,60.24096386,7,2,11,,,,,,,,6,16,,,,,,,,,,,6,1.49,1,,,,,,-0.158922796,-0.382974424,1,0,0,1.4904,Pegmatite_rect,10,0,10,0,1,
6629442858ac993227d2a95d,TCN,2024-06-21_10h47.30.020,LearnStrategy,2023.2.3,MacIntel,60.24096386,7,2,12,,,,,,,,5,08,,,,,,,,,,,5,1.037,1,,,,,,-0.428219068,-0.419444951,1,0,0,1.0369,Obsidian_rect,11,0,11,0,1,
6629442858ac993227d2a95d,TCN,2024-06-21_10h47.30.020,LearnStrategy,2023.2.3,MacIntel,60.24096386,7,2,13,,,,,,,,4,09,,,,,,,,,,,4,2.844,1,,,,,,0.382218174,-0.257333834,1,0,0,2.8438,Gabbro_rect,12,0,12,0,1,
6629442858ac993227d2a95d,TCN,2024-06-21_10h47.30.020,LearnStrategy,2023.2.3,MacIntel,60.24096386,7,2,14,,,,,,,,8,14,,,,,,,,,,,8,1.153,1,,,,,,0.416544178,-0.398609248,1,0,0,1.1532,Pumice_rect,13,0,13,0,1,
6629442858ac993227d2a95d,TCN,2024-06-21_10h47.30.020,LearnStrategy,2023.2.3,MacIntel,60.24096386,7,2,15,,,,,,,,3,14,,,,,,,,,,,3,3.643,1,,,,,,0.150493117,-0.263435538,1,0,0,3.6432,Diorite_rect,14,0,14,0,1,
6629442858ac993227d2a95d,TCN,2024-06-21_10h47.30.020,LearnStrategy,2023.2.3,MacIntel,60.24096386,7,2,16,,,,,,,,2,08,,,,,,,,,,,4,1.843,0,,,,,,0.369294467,-0.258092872,1,0,0,1.8426,Gabbro_rect,15,0,15,0,1,
6629442858ac993227d2a95d,TCN,2024-06-21_10h47.30.020,LearnStrategy,2023.2.3,MacIntel,60.24096386,8,1,1,0.045554244,-0.003375432,1,0,0,1.3178,rock_grid_rect_2,1,04,-1,-1,1.318,-0.348806024,-0.23172652,1,0,0,2.787,Andesite_rect,1,2.787,1,0,0,0,0,1,,,,,,,,,,,,,
6629442858ac993227d2a95d,TCN,2024-06-21_10h47.30.020,LearnStrategy,2023.2.3,MacIntel,60.24096386,8,1,2,-0.01150457,-0.010225374,1,0,0,1.2381,rock_grid_rect_2,2,02,-1,-1,1.238,0.418145306,-0.247661852,1,0,0,3.1223,Gabbro_rect,4,3.122,0,1,0,1,0,1,,,,,,,,,,,,,
6629442858ac993227d2a95d,TCN,2024-06-21_10h47.30.020,LearnStrategy,2023.2.3,MacIntel,60.24096386,8,1,3,0.010149464,-0.014561379,1,0,0,0.8954,rock_grid_rect_2,8,06,-1,-1,0.895,0.403771945,-0.394996608,1,0,0,1.8172,Pumice_rect,8,1.817,1,2,0,2,0,1,,,,,,,,,,,,,
6629442858ac993227d2a95d,TCN,2024-06-21_10h47.30.020,LearnStrategy,2023.2.3,MacIntel,60.24096386,8,1,4,-0.057992038,0.017686469,1,0,0,1.1344,rock_grid_rect_2,6,08,-1,-1,1.134,-0.086564852,-0.415634713,1,0,0,2.937,Pegmatite_rect,6,2.937,1,3,0,3,0,1,,,,,,,,,,,,,
6629442858ac993227d2a95d,TCN,2024-06-21_10h47.30.020,LearnStrategy,2023.2.3,MacIntel,60.24096386,8,1,5,0.033376337,0.021428113,1,0,0,0.9795,rock_grid_rect_2,4,08,-1,-1,0.979,-0.108702011,-0.255256618,1,0,0,4.9966,Basalt_rect,2,4.997,0,4,0,4,0,1,,,,,,,,,,,,,
6629442858ac993227d2a95d,TCN,2024-06-21_10h47.30.020,LearnStrategy,2023.2.3,MacIntel,60.24096386,8,1,6,0.027826039,-0.005137335,1,0,0,1.7143,rock_grid_rect_2,7,14,-1,-1,1.714,0.149395668,-0.403951636,1,0,0,1.9017,Peridotite_rect,7,1.902,1,5,0,5,0,1,,,,,,,,,,,,,
6629442858ac993227d2a95d,TCN,2024-06-21_10h47.30.020,LearnStrategy,2023.2.3,MacIntel,60.24096386,8,1,7,0.058433986,0.020406261,1,0,0,1.2456,rock_grid_rect_2,7,08,-1,-1,1.246,0.097478579,-0.40306154,1,0,0,1.6046,Peridotite_rect,7,1.605,1,6,0,6,0,1,,,,,,,,,,,,,
6629442858ac993227d2a95d,TCN,2024-06-21_10h47.30.020,LearnStrategy,2023.2.3,MacIntel,60.24096386,8,1,8,0.029165399,-0.006534594,1,0,0,1.4296,rock_grid_rect_2,3,09,-1,-1,1.43,0.077820939,-0.266619399,1,0,0,2.6662,Diorite_rect,3,2.666,1,7,0,7,0,1,,,,,,,,,,,,,
6629442858ac993227d2a95d,TCN,2024-06-21_10h47.30.020,LearnStrategy,2023.2.3,MacIntel,60.24096386,8,1,9,0.043377532,-0.002966511,1,0,0,1.3859,rock_grid_rect_2,3,13,-1,-1,1.386,0.129503851,-0.232139413,1,0,0,1.7469,Diorite_rect,3,1.747,1,8,0,8,0,1,,,,,,,,,,,,,
6629442858ac993227d2a95d,TCN,2024-06-21_10h47.30.020,LearnStrategy,2023.2.3,MacIntel,60.24096386,8,1,10,0.078792694,-0.00566324,1,0,0,1.2141,rock_grid_rect_2,2,12,-1,-1,1.214,0.408134844,-0.40155517,1,0,0,4.0691,Pumice_rect,8,4.069,0,9,0,9,0,1,,,,,,,,,,,,,
6629442858ac993227d2a95d,TCN,2024-06-21_10h47.30.020,LearnStrategy,2023.2.3,MacIntel,60.24096386,8,1,11,0.034193413,9.77538E-05,1,0,0,0.9521,rock_grid_rect_2,4,03,-1,-1,0.952,0.10148314,-0.244704852,1,0,0,2.4362,Diorite_rect,3,2.436,0,10,0,10,0,1,,,,,,,,,,,,,
6629442858ac993227d2a95d,TCN,2024-06-21_10h47.30.020,LearnStrategy,2023.2.3,MacIntel,60.24096386,8,1,12,0.108759841,-0.013569383,1,0,0,1.3955,rock_grid_rect_2,5,10,-1,-1,1.395,-0.385785386,-0.397729813,1,0,0,1.6605,Obsidian_rect,5,1.66,1,11,0,11,0,1,,,,,,,,,,,,,
6629442858ac993227d2a95d,TCN,2024-06-21_10h47.30.020,LearnStrategy,2023.2.3,MacIntel,60.24096386,8,1,13,-0.066247182,0.008305554,1,0,0,1.1287,rock_grid_rect_2,5,02,-1,-1,1.129,-0.405763948,-0.404144566,1,0,0,1.748,Obsidian_rect,5,1.748,1,12,0,12,0,1,,,,,,,,,,,,,
6629442858ac993227d2a95d,TCN,2024-06-21_10h47.30.020,LearnStrategy,2023.2.3,MacIntel,60.24096386,8,1,14,0.042940183,0.020080114,1,0,0,1.1895,rock_grid_rect_2,8,02,-1,-1,1.19,0.370540532,-0.402564689,1,0,0,5.883,Pumice_rect,8,5.883,1,13,0,13,0,1,,,,,,,,,,,,,
6629442858ac993227d2a95d,TCN,2024-06-21_10h47.30.020,LearnStrategy,2023.2.3,MacIntel,60.24096386,8,1,15,-0.018105006,0.004120361,1,0,0,1.2318,rock_grid_rect_2,1,16,-1,-1,1.232,0.143056861,-0.260629593,1,0,0,7.7317,Diorite_rect,3,7.732,0,14,0,14,0,1,,,,,,,,,,,,,
6629442858ac993227d2a95d,TCN,2024-06-21_10h47.30.020,LearnStrategy,2023.2.3,MacIntel,60.24096386,8,1,16,0.055801531,-0.002145776,1,0,0,1.3138,rock_grid_rect_2,6,07,-1,-1,1.314,-0.121094168,-0.393961519,1,0,0,1.5427,Pegmatite_rect,6,1.543,1,15,0,15,0,1,,,,,,,,,,,,,
6629442858ac993227d2a95d,TCN,2024-06-21_10h47.30.020,LearnStrategy,2023.2.3,MacIntel,60.24096386,8,2,1,,,,,,,,2,11,,,,,,,,,,,8,2.029,0,,,,,,0.368816498,-0.390661788,1,0,0,2.0294,Pumice_rect,0,0,0,0,1,
6629442858ac993227d2a95d,TCN,2024-06-21_10h47.30.020,LearnStrategy,2023.2.3,MacIntel,60.24096386,8,2,2,,,,,,,,6,09,,,,,,,,,,,6,2.808,1,,,,,,-0.129551439,-0.418141474,1,0,0,2.8081,Pegmatite_rect,1,0,1,0,1,
6629442858ac993227d2a95d,TCN,2024-06-21_10h47.30.020,LearnStrategy,2023.2.3,MacIntel,60.24096386,8,2,3,,,,,,,,7,12,,,,,,,,,,,7,2.361,1,,,,,,0.145079661,-0.403979576,1,0,0,2.3609,Peridotite_rect,2,0,2,0,1,
6629442858ac993227d2a95d,TCN,2024-06-21_10h47.30.020,LearnStrategy,2023.2.3,MacIntel,60.24096386,8,2,4,,,,,,,,1,01,,,,,,,,,,,3,3.28,0,,,,,,0.172797565,-0.252283244,1,0,0,3.2797,Diorite_rect,3,0,3,0,1,
6629442858ac993227d2a95d,TCN,2024-06-21_10h47.30.020,LearnStrategy,2023.2.3,MacIntel,60.24096386,8,2,5,,,,,,,,1,02,,,,,,,,,,,1,1.464,1,,,,,,-0.375921554,-0.260506129,1,0,0,1.464,Andesite_rect,4,0,4,0,1,
6629442858ac993227d2a95d,TCN,2024-06-21_10h47.30.020,LearnStrategy,2023.2.3,MacIntel,60.24096386,8,2,6,,,,,,,,4,11,,,,,,,,,,,2,2.994,0,,,,,,-0.134988236,-0.255086751,1,0,0,2.9937,Basalt_rect,5,0,5,0,1,
6629442858ac993227d2a95d,TCN,2024-06-21_10h47.30.020,LearnStrategy,2023.2.3,MacIntel,60.24096386,8,2,7,,,,,,,,7,15,,,,,,,,,,,7,1.523,1,,,,,,0.092168033,-0.386227891,1,0,0,1.523,Peridotite_rect,6,0,6,0,1,
6629442858ac993227d2a95d,TCN,2024-06-21_10h47.30.020,LearnStrategy,2023.2.3,MacIntel,60.24096386,8,2,8,,,,,,,,3,16,,,,,,,,,,,3,2.301,1,,,,,,0.146515868,-0.242643313,1,0,0,2.3011,Diorite_rect,7,0,7,0,1,
6629442858ac993227d2a95d,TCN,2024-06-21_10h47.30.020,LearnStrategy,2023.2.3,MacIntel,60.24096386,8,2,9,,,,,,,,5,09,,,,,,,,,,,5,1.412,1,,,,,,-0.398326578,-0.413334398,1,0,0,1.4121,Obsidian_rect,8,0,8,0,1,
6629442858ac993227d2a95d,TCN,2024-06-21_10h47.30.020,LearnStrategy,2023.2.3,MacIntel,60.24096386,8,2,10,,,,,,,,8,04,,,,,,,,,,,8,1.761,1,,,,,,0.360961217,-0.39111774,1,0,0,1.7609,Pumice_rect,9,0,9,0,1,
6629442858ac993227d2a95d,TCN,2024-06-21_10h47.30.020,LearnStrategy,2023.2.3,MacIntel,60.24096386,8,2,11,,,,,,,,4,14,,,,,,,,,,,1,3.127,0,,,,,,-0.345564124,-0.247510936,1,0,0,3.1266,Andesite_rect,10,0,10,0,1,
6629442858ac993227d2a95d,TCN,2024-06-21_10h47.30.020,LearnStrategy,2023.2.3,MacIntel,60.24096386,8,2,12,,,,,,,,2,14,,,,,,,,,,,8,2.466,0,,,,,,0.423599313,-0.4031602,1,0,0,2.4665,Pumice_rect,11,0,11,0,1,
6629442858ac993227d2a95d,TCN,2024-06-21_10h47.30.020,LearnStrategy,2023.2.3,MacIntel,60.24096386,8,2,13,,,,,,,,8,16,,,,,,,,,,,8,1.083,1,,,,,,0.443290258,-0.410444355,1,0,0,1.0835,Pumice_rect,12,0,12,0,1,
6629442858ac993227d2a95d,TCN,2024-06-21_10h47.30.020,LearnStrategy,2023.2.3,MacIntel,60.24096386,8,2,14,,,,,,,,6,05,,,,,,,,,,,6,2.56,1,,,,,,-0.101609252,-0.412615632,1,0,0,2.5598,Pegmatite_rect,13,0,13,0,1,
6629442858ac993227d2a95d,TCN,2024-06-21_10h47.30.020,LearnStrategy,2023.2.3,MacIntel,60.24096386,8,2,15,,,,,,,,5,14,,,,,,,,,,,5,1.512,1,,,,,,-0.377027642,-0.39650256,1,0,0,1.5124,Obsidian_rect,14,0,14,0,1,
6629442858ac993227d2a95d,TCN,2024-06-21_10h47.30.020,LearnStrategy,2023.2.3,MacIntel,60.24096386,8,2,16,,,,,,,,3,08,,,,,,,,,,,3,2.2,1,,,,,,0.116862328,-0.238583848,1,0,0,2.1999,Diorite_rect,15,0,15,0,1,
6629442858ac993227d2a95d,TCN,2024-06-21_10h47.30.020,LearnStrategy,2023.2.3,MacIntel,60.24096386,9,1,1,0.061614293,-0.018448712,1,0,0,1.0481,rock_grid_rect_2,2,06,-1,-1,1.048,-0.112809342,-0.248673879,1,0,0,2.6565,Basalt_rect,2,2.657,1,0,0,0,0,1,,,,,,,,,,,,,
6629442858ac993227d2a95d,TCN,2024-06-21_10h47.30.020,LearnStrategy,2023.2.3,MacIntel,60.24096386,9,1,2,0.055900469,-0.019121736,1,0,0,1.3475,rock_grid_rect_2,8,10,-1,-1,1.348,0.411228267,-0.413969275,1,0,0,1.5205,Pumice_rect,8,1.521,1,1,0,1,0,1,,,,,,,,,,,,,
6629442858ac993227d2a95d,TCN,2024-06-21_10h47.30.020,LearnStrategy,2023.2.3,MacIntel,60.24096386,9,1,3,0.004434455,-0.010557061,1,0,0,1.3814,rock_grid_rect_2,5,12,-1,-1,1.381,-0.436266024,-0.399010157,1,0,0,1.5455,Obsidian_rect,5,1.545,1,2,0,2,0,1,,,,,,,,,,,,,
6629442858ac993227d2a95d,TCN,2024-06-21_10h47.30.020,LearnStrategy,2023.2.3,MacIntel,60.24096386,9,1,4,0.018484595,-0.01205615,1,0,0,1.2309,rock_grid_rect_2,4,01,-1,-1,1.231,-0.362146386,-0.243375874,1,0,0,3.6717,Andesite_rect,1,3.672,0,3,0,3,0,1,,,,,,,,,,,,,
6629442858ac993227d2a95d,TCN,2024-06-21_10h47.30.020,LearnStrategy,2023.2.3,MacIntel,60.24096386,9,1,5,0.056256438,0.005800674,1,0,0,1.1849,rock_grid_rect_2,3,06,-1,-1,1.185,0.145435908,-0.254599375,1,0,0,1.7188,Diorite_rect,3,1.719,1,4,0,4,0,1,,,,,,,,,,,,,
6629442858ac993227d2a95d,TCN,2024-06-21_10h47.30.020,LearnStrategy,2023.2.3,MacIntel,60.24096386,9,1,6,0.07712649,-0.008400103,1,0,0,1.479,rock_grid_rect_2,1,09,-1,-1,1.479,-0.109234605,-0.247279476,1,0,0,3.5439,Basalt_rect,2,3.544,0,5,0,5,0,1,,,,,,,,,,,,,
6629442858ac993227d2a95d,TCN,2024-06-21_10h47.30.020,LearnStrategy,2023.2.3,MacIntel,60.24096386,9,1,7,0.048520371,0.003890085,1,0,0,1.0294,rock_grid_rect_2,7,02,-1,-1,1.029,0.124921476,-0.39412205,1,0,0,1.4663,Peridotite_rect,7,1.466,1,6,0,6,0,1,,,,,,,,,,,,,
6629442858ac993227d2a95d,TCN,2024-06-21_10h47.30.020,LearnStrategy,2023.2.3,MacIntel,60.24096386,9,1,8,0.006655619,-0.010008093,1,0,0,1.3328,rock_grid_rect_2,1,07,-1,-1,1.333,-0.39029394,-0.264543716,1,0,0,2.3599,Andesite_rect,1,2.36,1,7,0,7,0,1,,,,,,,,,,,,,
6629442858ac993227d2a95d,TCN,2024-06-21_10h47.30.020,LearnStrategy,2023.2.3,MacIntel,60.24096386,9,1,9,0.064146834,0.003565366,1,0,0,1.4314,rock_grid_rect_2,6,06,-1,-1,1.431,-0.11954453,-0.387943703,1,0,0,1.6104,Pegmatite_rect,6,1.61,1,8,0,8,0,1,,,,,,,,,,,,,
6629442858ac993227d2a95d,TCN,2024-06-21_10h47.30.020,LearnStrategy,2023.2.3,MacIntel,60.24096386,9,1,10,0.002740451,0.00288196,1,0,0,1.0968,rock_grid_rect_2,7,16,-1,-1,1.097,0.135510797,-0.380818964,1,0,0,1.7422,Peridotite_rect,7,1.742,1,9,0,9,0,1,,,,,,,,,,,,,
6629442858ac993227d2a95d,TCN,2024-06-21_10h47.30.020,LearnStrategy,2023.2.3,MacIntel,60.24096386,9,1,11,0.023435688,-0.011898337,1,0,0,1.5473,rock_grid_rect_2,8,13,-1,-1,1.547,0.357746838,-0.400984533,1,0,0,1.7999,Pumice_rect,8,1.8,1,10,0,10,0,1,,,,,,,,,,,,,
6629442858ac993227d2a95d,TCN,2024-06-21_10h47.30.020,LearnStrategy,2023.2.3,MacIntel,60.24096386,9,1,12,0.034016509,-0.009877697,1,0,0,1.0272,rock_grid_rect_2,5,06,-1,-1,1.027,-0.401824672,-0.405522664,1,0,0,1.4781,Obsidian_rect,5,1.478,1,11,0,11,0,1,,,,,,,,,,,,,
6629442858ac993227d2a95d,TCN,2024-06-21_10h47.30.020,LearnStrategy,2023.2.3,MacIntel,60.24096386,9,1,13,0.030853968,-0.00088494,1,0,0,1.4177,rock_grid_rect_2,4,05,-1,-1,1.418,0.112690547,-0.247407608,1,0,0,3.4657,Diorite_rect,3,3.466,0,12,0,12,0,1,,,,,,,,,,,,,
6629442858ac993227d2a95d,TCN,2024-06-21_10h47.30.020,LearnStrategy,2023.2.3,MacIntel,60.24096386,9,1,14,0.107550146,-0.016674129,1,0,0,1.3467,rock_grid_rect_2,6,03,-1,-1,1.347,0.102249494,-0.392224665,1,0,0,2.5653,Peridotite_rect,7,2.565,0,13,0,13,0,1,,,,,,,,,,,,,
6629442858ac993227d2a95d,TCN,2024-06-21_10h47.30.020,LearnStrategy,2023.2.3,MacIntel,60.24096386,9,1,15,0.066489024,0.016662911,1,0,0,1.0972,rock_grid_rect_2,2,16,-1,-1,1.097,0.384569003,-0.240454408,1,0,0,2.7948,Gabbro_rect,4,2.795,0,14,0,14,0,1,,,,,,,,,,,,,
6629442858ac993227d2a95d,TCN,2024-06-21_10h47.30.020,LearnStrategy,2023.2.3,MacIntel,60.24096386,9,1,16,0.051253785,-0.020443677,1,0,0,0.8307,rock_grid_rect_2,3,02,-1,-1,0.831,0.114900911,-0.249436261,1,0,0,2.3958,Diorite_rect,3,2.396,1,15,0,15,0,1,,,,,,,,,,,,,
6629442858ac993227d2a95d,TCN,2024-06-21_10h47.30.020,LearnStrategy,2023.2.3,MacIntel,60.24096386,9,2,1,,,,,,,,4,16,,,,,,,,,,,4,4.59,1,,,,,,0.442479661,-0.247340093,1,0,0,4.5902,Gabbro_rect,0,0,0,0,1,
6629442858ac993227d2a95d,TCN,2024-06-21_10h47.30.020,LearnStrategy,2023.2.3,MacIntel,60.24096386,9,2,2,,,,,,,,7,05,,,,,,,,,,,7,2.373,1,,,,,,0.144277216,-0.413944053,1,0,0,2.3727,Peridotite_rect,1,0,1,0,1,
6629442858ac993227d2a95d,TCN,2024-06-21_10h47.30.020,LearnStrategy,2023.2.3,MacIntel,60.24096386,9,2,3,,,,,,,,7,04,,,,,,,,,,,6,1.287,0,,,,,,-0.081245806,-0.417675628,1,0,0,1.2871,Pegmatite_rect,2,0,2,0,1,
6629442858ac993227d2a95d,TCN,2024-06-21_10h47.30.020,LearnStrategy,2023.2.3,MacIntel,60.24096386,9,2,4,,,,,,,,2,01,,,,,,,,,,,2,1.577,1,,,,,,-0.103784082,-0.261473146,1,0,0,1.5769,Basalt_rect,3,0,3,0,1,
6629442858ac993227d2a95d,TCN,2024-06-21_10h47.30.020,LearnStrategy,2023.2.3,MacIntel,60.24096386,9,2,5,,,,,,,,8,05,,,,,,,,,,,8,1.458,1,,,,,,0.408973171,-0.416229875,1,0,0,1.4578,Pumice_rect,4,0,4,0,1,
6629442858ac993227d2a95d,TCN,2024-06-21_10h47.30.020,LearnStrategy,2023.2.3,MacIntel,60.24096386,9,2,6,,,,,,,,6,15,,,,,,,,,,,6,1.923,1,,,,,,-0.080598805,-0.384940788,1,0,0,1.9229,Pegmatite_rect,5,0,5,0,1,
6629442858ac993227d2a95d,TCN,2024-06-21_10h47.30.020,LearnStrategy,2023.2.3,MacIntel,60.24096386,9,2,7,,,,,,,,1,05,,,,,,,,,,,7,3.242,0,,,,,,0.128857547,-0.399415804,1,0,0,3.2417,Peridotite_rect,6,0,6,0,1,
6629442858ac993227d2a95d,TCN,2024-06-21_10h47.30.020,LearnStrategy,2023.2.3,MacIntel,60.24096386,9,2,8,,,,,,,,3,10,,,,,,,,,,,3,2.23,1,,,,,,0.141551954,-0.251134864,1,0,0,2.2303,Diorite_rect,7,0,7,0,1,
6629442858ac993227d2a95d,TCN,2024-06-21_10h47.30.020,LearnStrategy,2023.2.3,MacIntel,60.24096386,9,2,9,,,,,,,,5,16,,,,,,,,,,,5,1.279,1,,,,,,-0.410791301,-0.411407053,1,0,0,1.2787,Obsidian_rect,8,0,8,0,1,
6629442858ac993227d2a95d,TCN,2024-06-21_10h47.30.020,LearnStrategy,2023.2.3,MacIntel,60.24096386,9,2,10,,,,,,,,3,11,,,,,,,,,,,3,2.542,1,,,,,,0.12456927,-0.258587284,1,0,0,2.5415,Diorite_rect,9,0,9,0,1,
6629442858ac993227d2a95d,TCN,2024-06-21_10h47.30.020,LearnStrategy,2023.2.3,MacIntel,60.24096386,9,2,11,,,,,,,,2,05,,,,,,,,,,,2,3.302,1,,,,,,-0.143486894,-0.255381824,1,0,0,3.3022,Basalt_rect,10,0,10,0,1,
6629442858ac993227d2a95d,TCN,2024-06-21_10h47.30.020,LearnStrategy,2023.2.3,MacIntel,60.24096386,9,2,12,,,,,,,,6,11,,,,,,,,,,,6,1.53,1,,,,,,-0.116303884,-0.40768147,1,0,0,1.53,Pegmatite_rect,11,0,11,0,1,
6629442858ac993227d2a95d,TCN,2024-06-21_10h47.30.020,LearnStrategy,2023.2.3,MacIntel,60.24096386,9,2,13,,,,,,,,8,09,,,,,,,,,,,8,1.585,1,,,,,,0.421804489,-0.397071734,1,0,0,1.5849,Pumice_rect,12,0,12,0,1,
6629442858ac993227d2a95d,TCN,2024-06-21_10h47.30.020,LearnStrategy,2023.2.3,MacIntel,60.24096386,9,2,14,,,,,,,,5,04,,,,,,,,,,,5,1.52,1,,,,,,-0.366923816,-0.4147396,1,0,0,1.5199,Obsidian_rect,13,0,13,0,1,
6629442858ac993227d2a95d,TCN,2024-06-21_10h47.30.020,LearnStrategy,2023.2.3,MacIntel,60.24096386,9,2,15,,,,,,,,4,13,,,,,,,,,,,1,6.126,0,,,,,,-0.374290954,-0.237517683,1,0,0,6.1264,Andesite_rect,14,0,14,0,1,
6629442858ac993227d2a95d,TCN,2024-06-21_10h47.30.020,LearnStrategy,2023.2.3,MacIntel,60.24096386,9,2,16,,,,,,,,1,14,,,,,,,,,,,3,6.674,0,,,,,,0.116682079,-0.266688865,1,0,0,6.6743,Diorite_rect,15,0,15,0,1,
6629442858ac993227d2a95d,TCN,2024-06-21_10h47.30.020,LearnStrategy,2023.2.3,MacIntel,60.24096386,,,,,,,,,,,,,,,,,,,,,,,,,,,,,,,,,,,,,,,,,,,1
6629442858ac993227d2a95d,TCN,2024-06-21_10h47.30.020,LearnStrategy,2023.2.3,MacIntel,60.24096386,,,,,,,,,,,,,,,,,,,,,,,,,,,,,,,,,,,,,,,,,,,
6629442858ac993227d2a95d,TCN,2024-06-21_10h47.30.020,LearnStrategy,2023.2.3,MacIntel,60.24096386,,,,,,,,,,,4,08,1,1,,,,,,,,,,,,,,,,,,,,,,,,,,,,,
6629442858ac993227d2a95d,TCN,2024-06-21_10h47.30.020,LearnStrategy,2023.2.3,MacIntel,60.24096386,,,,,,,,,,,1,06,1,2,,,,,,,,,,,,,,,,,,,,,,,,,,,,,
6629442858ac993227d2a95d,TCN,2024-06-21_10h47.30.020,LearnStrategy,2023.2.3,MacIntel,60.24096386,,,,,,,,,,,3,12,1,3,,,,,,,,,,,,,,,,,,,,,,,,,,,,,
6629442858ac993227d2a95d,TCN,2024-06-21_10h47.30.020,LearnStrategy,2023.2.3,MacIntel,60.24096386,,,,,,,,,,,7,07,1,4,,,,,,,,,,,,,,,,,,,,,,,,,,,,,
6629442858ac993227d2a95d,TCN,2024-06-21_10h47.30.020,LearnStrategy,2023.2.3,MacIntel,60.24096386,,,,,,,,,,,8,08,1,5,,,,,,,,,,,,,,,,,,,,,,,,,,,,,
6629442858ac993227d2a95d,TCN,2024-06-21_10h47.30.020,LearnStrategy,2023.2.3,MacIntel,60.24096386,,,,,,,,,,,7,06,1,6,,,,,,,,,,,,,,,,,,,,,,,,,,,,,
6629442858ac993227d2a95d,TCN,2024-06-21_10h47.30.020,LearnStrategy,2023.2.3,MacIntel,60.24096386,,,,,,,,,,,5,11,1,7,,,,,,,,,,,,,,,,,,,,,,,,,,,,,
6629442858ac993227d2a95d,TCN,2024-06-21_10h47.30.020,LearnStrategy,2023.2.3,MacIntel,60.24096386,,,,,,,,,,,6,07,1,8,,,,,,,,,,,,,,,,,,,,,,,,,,,,,
6629442858ac993227d2a95d,TCN,2024-06-21_10h47.30.020,LearnStrategy,2023.2.3,MacIntel,60.24096386,,,,,,,,,,,2,10,2,1,,,,,,,,,,,,,,,,,,,,,,,,,,,,,
6629442858ac993227d2a95d,TCN,2024-06-21_10h47.30.020,LearnStrategy,2023.2.3,MacIntel,60.24096386,,,,,,,,,,,4,10,2,2,,,,,,,,,,,,,,,,,,,,,,,,,,,,,
6629442858ac993227d2a95d,TCN,2024-06-21_10h47.30.020,LearnStrategy,2023.2.3,MacIntel,60.24096386,,,,,,,,,,,8,03,2,3,,,,,,,,,,,,,,,,,,,,,,,,,,,,,
6629442858ac993227d2a95d,TCN,2024-06-21_10h47.30.020,LearnStrategy,2023.2.3,MacIntel,60.24096386,,,,,,,,,,,2,09,2,4,,,,,,,,,,,,,,,,,,,,,,,,,,,,,
6629442858ac993227d2a95d,TCN,2024-06-21_10h47.30.020,LearnStrategy,2023.2.3,MacIntel,60.24096386,,,,,,,,,,,4,15,2,5,,,,,,,,,,,,,,,,,,,,,,,,,,,,,
6629442858ac993227d2a95d,TCN,2024-06-21_10h47.30.020,LearnStrategy,2023.2.3,MacIntel,60.24096386,,,,,,,,,,,8,13,2,6,,,,,,,,,,,,,,,,,,,,,,,,,,,,,
6629442858ac993227d2a95d,TCN,2024-06-21_10h47.30.020,LearnStrategy,2023.2.3,MacIntel,60.24096386,,,,,,,,,,,1,09,2,7,,,,,,,,,,,,,,,,,,,,,,,,,,,,,
6629442858ac993227d2a95d,TCN,2024-06-21_10h47.30.020,LearnStrategy,2023.2.3,MacIntel,60.24096386,,,,,,,,,,,1,04,2,8,,,,,,,,,,,,,,,,,,,,,,,,,,,,,
6629442858ac993227d2a95d,TCN,2024-06-21_10h47.30.020,LearnStrategy,2023.2.3,MacIntel,60.24096386,,,,,,,,,,,2,02,3,1,,,,,,,,,,,,,,,,,,,,,,,,,,,,,
6629442858ac993227d2a95d,TCN,2024-06-21_10h47.30.020,LearnStrategy,2023.2.3,MacIntel,60.24096386,,,,,,,,,,,3,02,3,2,,,,,,,,,,,,,,,,,,,,,,,,,,,,,
6629442858ac993227d2a95d,TCN,2024-06-21_10h47.30.020,LearnStrategy,2023.2.3,MacIntel,60.24096386,,,,,,,,,,,8,02,3,3,,,,,,,,,,,,,,,,,,,,,,,,,,,,,
6629442858ac993227d2a95d,TCN,2024-06-21_10h47.30.020,LearnStrategy,2023.2.3,MacIntel,60.24096386,,,,,,,,,,,7,14,3,4,,,,,,,,,,,,,,,,,,,,,,,,,,,,,
6629442858ac993227d2a95d,TCN,2024-06-21_10h47.30.020,LearnStrategy,2023.2.3,MacIntel,60.24096386,,,,,,,,,,,4,01,3,5,,,,,,,,,,,,,,,,,,,,,,,,,,,,,
6629442858ac993227d2a95d,TCN,2024-06-21_10h47.30.020,LearnStrategy,2023.2.3,MacIntel,60.24096386,,,,,,,,,,,5,10,3,6,,,,,,,,,,,,,,,,,,,,,,,,,,,,,
6629442858ac993227d2a95d,TCN,2024-06-21_10h47.30.020,LearnStrategy,2023.2.3,MacIntel,60.24096386,,,,,,,,,,,3,07,3,7,,,,,,,,,,,,,,,,,,,,,,,,,,,,,
6629442858ac993227d2a95d,TCN,2024-06-21_10h47.30.020,LearnStrategy,2023.2.3,MacIntel,60.24096386,,,,,,,,,,,4,05,3,8,,,,,,,,,,,,,,,,,,,,,,,,,,,,,
6629442858ac993227d2a95d,TCN,2024-06-21_10h47.30.020,LearnStrategy,2023.2.3,MacIntel,60.24096386,,,,,,,,,,,5,06,4,1,,,,,,,,,,,,,,,,,,,,,,,,,,,,,
6629442858ac993227d2a95d,TCN,2024-06-21_10h47.30.020,LearnStrategy,2023.2.3,MacIntel,60.24096386,,,,,,,,,,,2,06,4,2,,,,,,,,,,,,,,,,,,,,,,,,,,,,,
6629442858ac993227d2a95d,TCN,2024-06-21_10h47.30.020,LearnStrategy,2023.2.3,MacIntel,60.24096386,,,,,,,,,,,2,12,4,3,,,,,,,,,,,,,,,,,,,,,,,,,,,,,
6629442858ac993227d2a95d,TCN,2024-06-21_10h47.30.020,LearnStrategy,2023.2.3,MacIntel,60.24096386,,,,,,,,,,,1,07,4,4,,,,,,,,,,,,,,,,,,,,,,,,,,,,,
6629442858ac993227d2a95d,TCN,2024-06-21_10h47.30.020,LearnStrategy,2023.2.3,MacIntel,60.24096386,,,,,,,,,,,3,06,4,5,,,,,,,,,,,,,,,,,,,,,,,,,,,,,
6629442858ac993227d2a95d,TCN,2024-06-21_10h47.30.020,LearnStrategy,2023.2.3,MacIntel,60.24096386,,,,,,,,,,,3,13,4,6,,,,,,,,,,,,,,,,,,,,,,,,,,,,,
6629442858ac993227d2a95d,TCN,2024-06-21_10h47.30.020,LearnStrategy,2023.2.3,MacIntel,60.24096386,,,,,,,,,,,7,08,4,7,,,,,,,,,,,,,,,,,,,,,,,,,,,,,
6629442858ac993227d2a95d,TCN,2024-06-21_10h47.30.020,LearnStrategy,2023.2.3,MacIntel,60.24096386,,,,,,,,,,,6,08,4,8,,,,,,,,,,,,,,,,,,,,,,,,,,,,,
6629442858ac993227d2a95d,TCN,2024-06-21_10h47.30.020,LearnStrategy,2023.2.3,MacIntel,60.24096386,,,,,,,,,,,4,03,5,1,,,,,,,,,,,,,,,,,,,,,,,,,,,,,
6629442858ac993227d2a95d,TCN,2024-06-21_10h47.30.020,LearnStrategy,2023.2.3,MacIntel,60.24096386,,,,,,,,,,,6,12,5,2,,,,,,,,,,,,,,,,,,,,,,,,,,,,,
6629442858ac993227d2a95d,TCN,2024-06-21_10h47.30.020,LearnStrategy,2023.2.3,MacIntel,60.24096386,,,,,,,,,,,7,16,5,3,,,,,,,,,,,,,,,,,,,,,,,,,,,,,
6629442858ac993227d2a95d,TCN,2024-06-21_10h47.30.020,LearnStrategy,2023.2.3,MacIntel,60.24096386,,,,,,,,,,,1,11,5,4,,,,,,,,,,,,,,,,,,,,,,,,,,,,,
6629442858ac993227d2a95d,TCN,2024-06-21_10h47.30.020,LearnStrategy,2023.2.3,MacIntel,60.24096386,,,,,,,,,,,1,16,5,5,,,,,,,,,,,,,,,,,,,,,,,,,,,,,
6629442858ac993227d2a95d,TCN,2024-06-21_10h47.30.020,LearnStrategy,2023.2.3,MacIntel,60.24096386,,,,,,,,,,,7,02,5,6,,,,,,,,,,,,,,,,,,,,,,,,,,,,,
6629442858ac993227d2a95d,TCN,2024-06-21_10h47.30.020,LearnStrategy,2023.2.3,MacIntel,60.24096386,,,,,,,,,,,3,09,5,7,,,,,,,,,,,,,,,,,,,,,,,,,,,,,
6629442858ac993227d2a95d,TCN,2024-06-21_10h47.30.020,LearnStrategy,2023.2.3,MacIntel,60.24096386,,,,,,,,,,,8,06,5,8,,,,,,,,,,,,,,,,,,,,,,,,,,,,,
6629442858ac993227d2a95d,TCN,2024-06-21_10h47.30.020,LearnStrategy,2023.2.3,MacIntel,60.24096386,,,,,,,,,,,5,12,6,1,,,,,,,,,,,,,,,,,,,,,,,,,,,,,
6629442858ac993227d2a95d,TCN,2024-06-21_10h47.30.020,LearnStrategy,2023.2.3,MacIntel,60.24096386,,,,,,,,,,,6,06,6,2,,,,,,,,,,,,,,,,,,,,,,,,,,,,,
6629442858ac993227d2a95d,TCN,2024-06-21_10h47.30.020,LearnStrategy,2023.2.3,MacIntel,60.24096386,,,,,,,,,,,2,16,6,3,,,,,,,,,,,,,,,,,,,,,,,,,,,,,
6629442858ac993227d2a95d,TCN,2024-06-21_10h47.30.020,LearnStrategy,2023.2.3,MacIntel,60.24096386,,,,,,,,,,,6,03,6,4,,,,,,,,,,,,,,,,,,,,,,,,,,,,,
6629442858ac993227d2a95d,TCN,2024-06-21_10h47.30.020,LearnStrategy,2023.2.3,MacIntel,60.24096386,,,,,,,,,,,8,10,6,5,,,,,,,,,,,,,,,,,,,,,,,,,,,,,
6629442858ac993227d2a95d,TCN,2024-06-21_10h47.30.020,LearnStrategy,2023.2.3,MacIntel,60.24096386,,,,,,,,,,,5,02,6,6,,,,,,,,,,,,,,,,,,,,,,,,,,,,,
6629442858ac993227d2a95d,TCN,2024-06-21_10h47.30.020,LearnStrategy,2023.2.3,MacIntel,60.24096386,,,,,,,,,,,6,10,6,7,,,,,,,,,,,,,,,,,,,,,,,,,,,,,
6629442858ac993227d2a95d,TCN,2024-06-21_10h47.30.020,LearnStrategy,2023.2.3,MacIntel,60.24096386,,,,,,,,,,,5,05,6,8,,,,,,,,,,,,,,,,,,,,,,,,,,,,,