participant,condition,date,expName,psychopyVersion,OS,frameRate,block,phase,trial,learn_mouse_2.x,learn_mouse_2.y,learn_mouse_2.leftButton,learn_mouse_2.midButton,learn_mouse_2.rightButton,learn_mouse_2.time,learn_mouse_2.clicked_name,cat,token,row,col,t_select,cat_mouse_l.x,cat_mouse_l.y,cat_mouse_l.leftButton,cat_mouse_l.midButton,cat_mouse_l.rightButton,cat_mouse_l.time,cat_mouse_l.clicked_name,resp,t_resp,corr,train_trials.thisRepN,train_trials.thisTrialN,train_trials.thisN,train_trials.thisIndex,train_trials.ran,cat_mouse_t.x,cat_mouse_t.y,cat_mouse_t.leftButton,cat_mouse_t.midButton,cat_mouse_t.rightButton,cat_mouse_t.time,cat_mouse_t.clicked_name,test_trials.thisRepN,test_trials.thisTrialN,test_trials.thisN,test_trials.thisIndex,test_trials.ran,Bonus
662ae132d482fb6744a3d8c0,TCR,2024-06-21_14h09.25.790,LearnStrategy,2023.2.3,Win32,58.82352941,,,,,,,,,,,,,,,,,,,,,,,,,,,,,,,,,,,,,,,,,,,
662ae132d482fb6744a3d8c0,TCR,2024-06-21_14h09.25.790,LearnStrategy,2023.2.3,Win32,58.82352941,1,1,1,0.029074029,0,1,0,0,1.4764,rock_grid_rect_2,5,9,-1,-1,1.476,-0.42740743,-0.41759257,1,0,0,7.9748,Obsidian_rect,5,7.975,1,0,0,0,0,1,,,,,,,,,,,,,
662ae132d482fb6744a3d8c0,TCR,2024-06-21_14h09.25.790,LearnStrategy,2023.2.3,Win32,58.82352941,1,1,2,0.039259237,-0.000925903,1,0,0,1.0146,rock_grid_rect_2,4,10,-1,-1,1.015,-0.09777771,-0.253703681,1,0,0,1.7304,Basalt_rect,2,1.73,0,1,0,1,0,1,,,,,,,,,,,,,
662ae132d482fb6744a3d8c0,TCR,2024-06-21_14h09.25.790,LearnStrategy,2023.2.3,Win32,58.82352941,1,1,3,0.063333333,-0.025,1,0,0,0.928,rock_grid_rect_2,6,11,-1,-1,0.928,0.12259257,-0.237037014,1,0,0,8.5145,Diorite_rect,3,8.514,0,2,0,2,0,1,,,,,,,,,,,,,
662ae132d482fb6744a3d8c0,TCR,2024-06-21_14h09.25.790,LearnStrategy,2023.2.3,Win32,58.82352941,1,1,4,0.001296251,-0.007407396,1,0,0,0.9469,rock_grid_rect_2,6,15,-1,-1,0.947,0.181851807,-0.258333401,1,0,0,5.5302,Diorite_rect,3,5.53,0,3,0,3,0,1,,,,,,,,,,,,,
662ae132d482fb6744a3d8c0,TCR,2024-06-21_14h09.25.790,LearnStrategy,2023.2.3,Win32,58.82352941,1,1,5,0.075370348,-0.01759257,1,0,0,0.9337,rock_grid_rect_2,3,6,-1,-1,0.934,-0.408888889,-0.251851807,1,0,0,10.261,Andesite_rect,1,10.261,0,4,0,4,0,1,,,,,,,,,,,,,
662ae132d482fb6744a3d8c0,TCR,2024-06-21_14h09.25.790,LearnStrategy,2023.2.3,Win32,58.82352941,1,1,6,0.156851807,0.015740763,1,0,0,0.9009,rock_grid_rect_2,3,9,-1,-1,0.901,0.166111111,-0.266666734,1,0,0,0.9112,Diorite_rect,3,0.911,1,5,0,5,0,1,,,,,,,,,,,,,
662ae132d482fb6744a3d8c0,TCR,2024-06-21_14h09.25.790,LearnStrategy,2023.2.3,Win32,58.82352941,1,1,7,0.155925903,0.013888889,1,0,0,0.784,rock_grid_rect_2,7,14,-1,-1,0.784,0.169814792,-0.383333401,1,0,0,4.6331,Peridotite_rect,7,4.633,1,6,0,6,0,1,,,,,,,,,,,,,
662ae132d482fb6744a3d8c0,TCR,2024-06-21_14h09.25.790,LearnStrategy,2023.2.3,Win32,58.82352941,1,1,8,0.089259237,-0.018518507,1,0,0,0.8031,rock_grid_rect_2,1,2,-1,-1,0.803,-0.371851874,-0.254629584,1,0,0,1.9482,Andesite_rect,1,1.948,1,7,0,7,0,1,,,,,,,,,,,,,
662ae132d482fb6744a3d8c0,TCR,2024-06-21_14h09.25.790,LearnStrategy,2023.2.3,Win32,58.82352941,1,1,9,0.069814792,-0.002777778,1,0,0,0.8478,rock_grid_rect_2,5,11,-1,-1,0.848,-0.407037048,-0.395370348,1,0,0,1.0861,Obsidian_rect,5,1.086,1,8,0,8,0,1,,,,,,,,,,,,,
662ae132d482fb6744a3d8c0,TCR,2024-06-21_14h09.25.790,LearnStrategy,2023.2.3,Win32,58.82352941,1,1,10,0.142037014,-0.01759257,1,0,0,1.9481,rock_grid_rect_2,7,10,-1,-1,1.948,0.168888889,-0.418518473,1,0,0,4.3998,Peridotite_rect,7,4.4,1,9,0,9,0,1,,,,,,,,,,,,,
662ae132d482fb6744a3d8c0,TCR,2024-06-21_14h09.25.790,LearnStrategy,2023.2.3,Win32,58.82352941,1,1,11,0.064259237,0.010185208,1,0,0,0.8363,rock_grid_rect_2,4,9,-1,-1,0.836,0.459629584,-0.255555623,1,0,0,2.4226,Gabbro_rect,4,2.423,1,10,0,10,0,1,,,,,,,,,,,,,
662ae132d482fb6744a3d8c0,TCR,2024-06-21_14h09.25.790,LearnStrategy,2023.2.3,Win32,58.82352941,1,1,12,0.041111179,-0.005555556,1,0,0,0.9357,rock_grid_rect_2,8,2,-1,-1,0.936,0.385555556,-0.384259237,1,0,0,3.1144,Pumice_rect,8,3.114,1,11,0,11,0,1,,,,,,,,,,,,,
662ae132d482fb6744a3d8c0,TCR,2024-06-21_14h09.25.790,LearnStrategy,2023.2.3,Win32,58.82352941,1,1,13,-0.003333266,0.008333333,1,0,0,3.1656,rock_grid_rect_2,1,4,-1,-1,3.166,-0.140370416,-0.245370348,1,0,0,4.1614,Basalt_rect,2,4.161,0,12,0,12,0,1,,,,,,,,,,,,,
662ae132d482fb6744a3d8c0,TCR,2024-06-21_14h09.25.790,LearnStrategy,2023.2.3,Win32,58.82352941,1,1,14,0.108703681,0.013888889,1,0,0,0.8663,rock_grid_rect_2,8,4,-1,-1,0.866,0.442962918,-0.414814792,1,0,0,1.363,Pumice_rect,8,1.363,1,13,0,13,0,1,,,,,,,,,,,,,
662ae132d482fb6744a3d8c0,TCR,2024-06-21_14h09.25.790,LearnStrategy,2023.2.3,Win32,58.82352941,1,1,15,0.118888889,0,1,0,0,0.9527,rock_grid_rect_2,2,4,-1,-1,0.953,-0.142222154,-0.251851807,1,0,0,2.2145,Basalt_rect,2,2.215,1,14,0,14,0,1,,,,,,,,,,,,,
662ae132d482fb6744a3d8c0,TCR,2024-06-21_14h09.25.790,LearnStrategy,2023.2.3,Win32,58.82352941,1,1,16,0.053148126,-0.015740729,1,0,0,0.7662,rock_grid_rect_2,2,10,-1,-1,0.766,-0.119074097,-0.237037014,1,0,0,2.329,Basalt_rect,2,2.329,1,15,0,15,0,1,,,,,,,,,,,,,
662ae132d482fb6744a3d8c0,TCR,2024-06-21_14h09.25.790,LearnStrategy,2023.2.3,Win32,58.82352941,1,2,1,,,,,,,,2,9,,,,,,,,,,,4,21.302,0,,,,,,0.388333333,-0.250925903,1,0,0,21.3017,Gabbro_rect,0,0,0,0,1,
662ae132d482fb6744a3d8c0,TCR,2024-06-21_14h09.25.790,LearnStrategy,2023.2.3,Win32,58.82352941,1,2,2,,,,,,,,4,5,,,,,,,,,,,3,19.189,0,,,,,,0.076296251,-0.249074029,1,0,0,19.1888,Diorite_rect,1,0,1,0,1,
662ae132d482fb6744a3d8c0,TCR,2024-06-21_14h09.25.790,LearnStrategy,2023.2.3,Win32,58.82352941,1,2,3,,,,,,,,2,8,,,,,,,,,,,2,1.177,1,,,,,,-0.17277771,-0.228703681,1,0,0,1.1766,Basalt_rect,2,0,2,0,1,
662ae132d482fb6744a3d8c0,TCR,2024-06-21_14h09.25.790,LearnStrategy,2023.2.3,Win32,58.82352941,1,2,4,,,,,,,,5,5,,,,,,,,,,,5,12.326,1,,,,,,-0.407962986,-0.393518473,1,0,0,12.3256,Obsidian_rect,3,0,3,0,1,
662ae132d482fb6744a3d8c0,TCR,2024-06-21_14h09.25.790,LearnStrategy,2023.2.3,Win32,58.82352941,1,2,5,,,,,,,,3,12,,,,,,,,,,,1,5.477,0,,,,,,-0.403333333,-0.240740696,1,0,0,5.4774,Andesite_rect,4,0,4,0,1,
662ae132d482fb6744a3d8c0,TCR,2024-06-21_14h09.25.790,LearnStrategy,2023.2.3,Win32,58.82352941,1,2,6,,,,,,,,4,14,,,,,,,,,,,6,7.209,0,,,,,,-0.149629652,-0.400000068,1,0,0,7.2086,Pegmatite_rect,5,0,5,0,1,
662ae132d482fb6744a3d8c0,TCR,2024-06-21_14h09.25.790,LearnStrategy,2023.2.3,Win32,58.82352941,1,2,7,,,,,,,,6,13,,,,,,,,,,,6,2.978,1,,,,,,-0.106111043,-0.389814792,1,0,0,2.9783,Pegmatite_rect,6,0,6,0,1,
662ae132d482fb6744a3d8c0,TCR,2024-06-21_14h09.25.790,LearnStrategy,2023.2.3,Win32,58.82352941,1,2,8,,,,,,,,8,8,,,,,,,,,,,8,6.877,1,,,,,,0.388333333,-0.389814792,1,0,0,6.8775,Pumice_rect,7,0,7,0,1,
662ae132d482fb6744a3d8c0,TCR,2024-06-21_14h09.25.790,LearnStrategy,2023.2.3,Win32,58.82352941,1,2,9,,,,,,,,7,8,,,,,,,,,,,7,1.128,1,,,,,,0.162407362,-0.381481459,1,0,0,1.1281,Peridotite_rect,8,0,8,0,1,
662ae132d482fb6744a3d8c0,TCR,2024-06-21_14h09.25.790,LearnStrategy,2023.2.3,Win32,58.82352941,1,2,10,,,,,,,,7,15,,,,,,,,,,,7,0.762,1,,,,,,0.157777778,-0.389814792,1,0,0,0.7624,Peridotite_rect,9,0,9,0,1,
662ae132d482fb6744a3d8c0,TCR,2024-06-21_14h09.25.790,LearnStrategy,2023.2.3,Win32,58.82352941,1,2,11,,,,,,,,6,12,,,,,,,,,,,6,2.895,1,,,,,,-0.095925971,-0.387962918,1,0,0,2.895,Pegmatite_rect,10,0,10,0,1,
662ae132d482fb6744a3d8c0,TCR,2024-06-21_14h09.25.790,LearnStrategy,2023.2.3,Win32,58.82352941,1,2,12,,,,,,,,1,7,,,,,,,,,,,1,7.678,1,,,,,,-0.405185208,-0.256481459,1,0,0,7.6776,Andesite_rect,11,0,11,0,1,
662ae132d482fb6744a3d8c0,TCR,2024-06-21_14h09.25.790,LearnStrategy,2023.2.3,Win32,58.82352941,1,2,13,,,,,,,,1,3,,,,,,,,,,,3,5.922,0,,,,,,0.219814792,-0.243518473,1,0,0,5.9219,Diorite_rect,12,0,12,0,1,
662ae132d482fb6744a3d8c0,TCR,2024-06-21_14h09.25.790,LearnStrategy,2023.2.3,Win32,58.82352941,1,2,14,,,,,,,,5,7,,,,,,,,,,,3,9.072,0,,,,,,0.175370348,-0.270370348,1,0,0,9.0722,Diorite_rect,13,0,13,0,1,
662ae132d482fb6744a3d8c0,TCR,2024-06-21_14h09.25.790,LearnStrategy,2023.2.3,Win32,58.82352941,1,2,15,,,,,,,,8,10,,,,,,,,,,,8,1.007,1,,,,,,0.38,-0.398148126,1,0,0,1.0067,Pumice_rect,14,0,14,0,1,
662ae132d482fb6744a3d8c0,TCR,2024-06-21_14h09.25.790,LearnStrategy,2023.2.3,Win32,58.82352941,1,2,16,,,,,,,,3,13,,,,,,,,,,,1,2.345,0,,,,,,-0.411666667,-0.254629584,1,0,0,2.3449,Andesite_rect,15,0,15,0,1,
662ae132d482fb6744a3d8c0,TCR,2024-06-21_14h09.25.790,LearnStrategy,2023.2.3,Win32,58.82352941,2,1,1,0.130925903,0.00740743,1,0,0,1.2487,rock_grid_rect_2,2,6,-1,-1,1.249,-0.115370416,-0.262962918,1,0,0,1.828,Basalt_rect,2,1.828,1,0,0,0,0,1,,,,,,,,,,,,,
662ae132d482fb6744a3d8c0,TCR,2024-06-21_14h09.25.790,LearnStrategy,2023.2.3,Win32,58.82352941,2,1,2,0.05222229,-0.008333333,1,0,0,0.9312,rock_grid_rect_2,3,16,-1,-1,0.931,-0.386666667,-0.266666734,1,0,0,4.6282,Andesite_rect,1,4.628,0,1,0,1,0,1,,,,,,,,,,,,,
662ae132d482fb6744a3d8c0,TCR,2024-06-21_14h09.25.790,LearnStrategy,2023.2.3,Win32,58.82352941,2,1,3,0.046666734,-0.024074063,1,0,0,0.7795,rock_grid_rect_2,7,7,-1,-1,0.779,0.129074029,-0.398148126,1,0,0,1.0464,Peridotite_rect,7,1.046,1,2,0,2,0,1,,,,,,,,,,,,,
662ae132d482fb6744a3d8c0,TCR,2024-06-21_14h09.25.790,LearnStrategy,2023.2.3,Win32,58.82352941,2,1,4,0.001296251,0.015740763,1,0,0,0.7316,rock_grid_rect_2,4,8,-1,-1,0.732,0.454074029,-0.244444512,1,0,0,3.5116,Gabbro_rect,4,3.512,1,3,0,3,0,1,,,,,,,,,,,,,
662ae132d482fb6744a3d8c0,TCR,2024-06-21_14h09.25.790,LearnStrategy,2023.2.3,Win32,58.82352941,2,1,5,0.043888957,-0.008333333,1,0,0,0.7968,rock_grid_rect_2,6,8,-1,-1,0.797,-0.358888889,-0.230555623,1,0,0,1.4786,Andesite_rect,1,1.479,0,4,0,4,0,1,,,,,,,,,,,,,
662ae132d482fb6744a3d8c0,TCR,2024-06-21_14h09.25.790,LearnStrategy,2023.2.3,Win32,58.82352941,2,1,6,0.06518514,0.004629652,1,0,0,0.8274,rock_grid_rect_2,1,14,-1,-1,0.827,-0.432037048,-0.241666734,1,0,0,3.5444,Andesite_rect,1,3.544,1,5,0,5,0,1,,,,,,,,,,,,,
662ae132d482fb6744a3d8c0,TCR,2024-06-21_14h09.25.790,LearnStrategy,2023.2.3,Win32,58.82352941,2,1,7,0.139259237,0.000925937,1,0,0,0.831,rock_grid_rect_2,8,15,-1,-1,0.831,0.459629584,-0.383333401,1,0,0,6.7271,Pumice_rect,8,6.727,1,6,0,6,0,1,,,,,,,,,,,,,
662ae132d482fb6744a3d8c0,TCR,2024-06-21_14h09.25.790,LearnStrategy,2023.2.3,Win32,58.82352941,2,1,8,0.061481459,-0.023148126,1,0,0,0.7785,rock_grid_rect_2,7,6,-1,-1,0.779,0.173518473,-0.395370348,1,0,0,1.1125,Peridotite_rect,7,1.113,1,7,0,7,0,1,,,,,,,,,,,,,
662ae132d482fb6744a3d8c0,TCR,2024-06-21_14h09.25.790,LearnStrategy,2023.2.3,Win32,58.82352941,2,1,9,0.152222222,-0.010185174,1,0,0,0.7631,rock_grid_rect_2,6,5,-1,-1,0.763,0.16518514,-0.246296251,1,0,0,3.4121,Diorite_rect,3,3.412,0,8,0,8,0,1,,,,,,,,,,,,,
662ae132d482fb6744a3d8c0,TCR,2024-06-21_14h09.25.790,LearnStrategy,2023.2.3,Win32,58.82352941,2,1,10,0.089259237,0.009259271,1,0,0,0.6636,rock_grid_rect_2,1,9,-1,-1,0.664,0.182777778,-0.248148126,1,0,0,3.5775,Diorite_rect,3,3.577,0,9,0,9,0,1,,,,,,,,,,,,,
662ae132d482fb6744a3d8c0,TCR,2024-06-21_14h09.25.790,LearnStrategy,2023.2.3,Win32,58.82352941,2,1,11,0.14018514,0.012037048,1,0,0,0.6952,rock_grid_rect_2,5,4,-1,-1,0.695,-0.42740743,-0.400925903,1,0,0,1.079,Obsidian_rect,5,1.079,1,10,0,10,0,1,,,,,,,,,,,,,
662ae132d482fb6744a3d8c0,TCR,2024-06-21_14h09.25.790,LearnStrategy,2023.2.3,Win32,58.82352941,2,1,12,-0.019074097,-0.009259237,1,0,0,0.8815,rock_grid_rect_2,8,3,-1,-1,0.881,0.42537028,-0.406481459,1,0,0,1.7787,Pumice_rect,8,1.779,1,11,0,11,0,1,,,,,,,,,,,,,
662ae132d482fb6744a3d8c0,TCR,2024-06-21_14h09.25.790,LearnStrategy,2023.2.3,Win32,58.82352941,2,1,13,0.018888957,-0.003703681,1,0,0,1.1772,rock_grid_rect_2,5,8,-1,-1,1.177,-0.371851874,-0.400000068,1,0,0,1.4292,Obsidian_rect,5,1.429,1,12,0,12,0,1,,,,,,,,,,,,,
662ae132d482fb6744a3d8c0,TCR,2024-06-21_14h09.25.790,LearnStrategy,2023.2.3,Win32,58.82352941,2,1,14,0.088333333,0.001851874,1,0,0,0.7487,rock_grid_rect_2,4,15,-1,-1,0.749,0.131851807,-0.24259257,1,0,0,7.0772,Diorite_rect,3,7.077,0,13,0,13,0,1,,,,,,,,,,,,,
662ae132d482fb6744a3d8c0,TCR,2024-06-21_14h09.25.790,LearnStrategy,2023.2.3,Win32,58.82352941,2,1,15,0.095740696,0.024074097,1,0,0,0.7111,rock_grid_rect_2,2,11,-1,-1,0.711,-0.372777778,-0.251851807,1,0,0,9.6094,Andesite_rect,1,9.609,0,14,0,14,0,1,,,,,,,,,,,,,
662ae132d482fb6744a3d8c0,TCR,2024-06-21_14h09.25.790,LearnStrategy,2023.2.3,Win32,58.82352941,2,1,16,0.055925903,0.016666667,1,0,0,0.709,rock_grid_rect_2,3,8,-1,-1,0.709,0.11518514,-0.24259257,1,0,0,1.9622,Diorite_rect,3,1.962,1,15,0,15,0,1,,,,,,,,,,,,,
662ae132d482fb6744a3d8c0,TCR,2024-06-21_14h09.25.790,LearnStrategy,2023.2.3,Win32,58.82352941,2,2,1,,,,,,,,6,16,,,,,,,,,,,6,1.412,1,,,,,,-0.119999932,-0.398148126,1,0,0,1.4116,Pegmatite_rect,0,0,0,0,1,
662ae132d482fb6744a3d8c0,TCR,2024-06-21_14h09.25.790,LearnStrategy,2023.2.3,Win32,58.82352941,2,2,2,,,,,,,,8,6,,,,,,,,,,,8,1.678,1,,,,,,0.454074029,-0.39259257,1,0,0,1.6777,Pumice_rect,1,0,1,0,1,
662ae132d482fb6744a3d8c0,TCR,2024-06-21_14h09.25.790,LearnStrategy,2023.2.3,Win32,58.82352941,2,2,3,,,,,,,,7,13,,,,,,,,,,,7,0.957,1,,,,,,0.174444444,-0.405555623,1,0,0,0.9569,Peridotite_rect,2,0,2,0,1,
662ae132d482fb6744a3d8c0,TCR,2024-06-21_14h09.25.790,LearnStrategy,2023.2.3,Win32,58.82352941,2,2,4,,,,,,,,6,10,,,,,,,,,,,7,0.857,0,,,,,,0.168888889,-0.38518514,1,0,0,0.8569,Peridotite_rect,3,0,3,0,1,
662ae132d482fb6744a3d8c0,TCR,2024-06-21_14h09.25.790,LearnStrategy,2023.2.3,Win32,58.82352941,2,2,5,,,,,,,,2,5,,,,,,,,,,,2,3.976,1,,,,,,-0.167222154,-0.24722229,1,0,0,3.9762,Basalt_rect,4,0,4,0,1,
662ae132d482fb6744a3d8c0,TCR,2024-06-21_14h09.25.790,LearnStrategy,2023.2.3,Win32,58.82352941,2,2,6,,,,,,,,4,12,,,,,,,,,,,4,1.722,1,,,,,,0.470740696,-0.251851807,1,0,0,1.7218,Gabbro_rect,5,0,5,0,1,
662ae132d482fb6744a3d8c0,TCR,2024-06-21_14h09.25.790,LearnStrategy,2023.2.3,Win32,58.82352941,2,2,7,,,,,,,,3,11,,,,,,,,,,,3,6.759,1,,,,,,0.149444444,-0.252777846,1,0,0,6.7588,Diorite_rect,6,0,6,0,1,
662ae132d482fb6744a3d8c0,TCR,2024-06-21_14h09.25.790,LearnStrategy,2023.2.3,Win32,58.82352941,2,2,8,,,,,,,,3,15,,,,,,,,,,,4,15.603,0,,,,,,0.368888889,-0.261111179,1,0,0,15.6026,Gabbro_rect,7,0,7,0,1,
662ae132d482fb6744a3d8c0,TCR,2024-06-21_14h09.25.790,LearnStrategy,2023.2.3,Win32,58.82352941,2,2,9,,,,,,,,1,11,,,,,,,,,,,2,6.044,0,,,,,,-0.111666599,-0.270370348,1,0,0,6.0438,Basalt_rect,8,0,8,0,1,
662ae132d482fb6744a3d8c0,TCR,2024-06-21_14h09.25.790,LearnStrategy,2023.2.3,Win32,58.82352941,2,2,10,,,,,,,,2,16,,,,,,,,,,,4,5.76,0,,,,,,0.448518473,-0.258333401,1,0,0,5.7597,Gabbro_rect,9,0,9,0,1,
662ae132d482fb6744a3d8c0,TCR,2024-06-21_14h09.25.790,LearnStrategy,2023.2.3,Win32,58.82352941,2,2,11,,,,,,,,4,13,,,,,,,,,,,1,2.395,0,,,,,,-0.381111111,-0.238888957,1,0,0,2.3954,Andesite_rect,10,0,10,0,1,
662ae132d482fb6744a3d8c0,TCR,2024-06-21_14h09.25.790,LearnStrategy,2023.2.3,Win32,58.82352941,2,2,12,,,,,,,,7,5,,,,,,,,,,,7,1.06,1,,,,,,0.112407362,-0.388888957,1,0,0,1.0596,Peridotite_rect,11,0,11,0,1,
662ae132d482fb6744a3d8c0,TCR,2024-06-21_14h09.25.790,LearnStrategy,2023.2.3,Win32,58.82352941,2,2,13,,,,,,,,1,1,,,,,,,,,,,4,3.371,0,,,,,,0.377222222,-0.243518473,1,0,0,3.3712,Gabbro_rect,12,0,12,0,1,
662ae132d482fb6744a3d8c0,TCR,2024-06-21_14h09.25.790,LearnStrategy,2023.2.3,Win32,58.82352941,2,2,14,,,,,,,,5,14,,,,,,,,,,,5,1.074,1,,,,,,-0.340370382,-0.406481459,1,0,0,1.0739,Obsidian_rect,13,0,13,0,1,
662ae132d482fb6744a3d8c0,TCR,2024-06-21_14h09.25.790,LearnStrategy,2023.2.3,Win32,58.82352941,2,2,15,,,,,,,,8,9,,,,,,,,,,,8,6.338,1,,,,,,0.444814724,-0.404629584,1,0,0,6.3382,Pumice_rect,14,0,14,0,1,
662ae132d482fb6744a3d8c0,TCR,2024-06-21_14h09.25.790,LearnStrategy,2023.2.3,Win32,58.82352941,2,2,16,,,,,,,,5,2,,,,,,,,,,,5,1.163,1,,,,,,-0.434814826,-0.401851807,1,0,0,1.1629,Obsidian_rect,15,0,15,0,1,
662ae132d482fb6744a3d8c0,TCR,2024-06-21_14h09.25.790,LearnStrategy,2023.2.3,Win32,58.82352941,3,1,1,0.071666667,-0.000925903,1,0,0,2.2474,rock_grid_rect_2,2,14,-1,-1,2.247,0.419814724,-0.252777846,1,0,0,4.6232,Gabbro_rect,4,4.623,0,0,0,0,0,1,,,,,,,,,,,,,
662ae132d482fb6744a3d8c0,TCR,2024-06-21_14h09.25.790,LearnStrategy,2023.2.3,Win32,58.82352941,3,1,2,0.048518473,0.001851874,1,0,0,0.8305,rock_grid_rect_2,1,5,-1,-1,0.831,0.179074029,-0.249074029,1,0,0,5.56,Diorite_rect,3,5.56,0,1,0,1,0,1,,,,,,,,,,,,,
662ae132d482fb6744a3d8c0,TCR,2024-06-21_14h09.25.790,LearnStrategy,2023.2.3,Win32,58.82352941,3,1,3,-0.046851874,-0.012037014,1,0,0,0.7802,rock_grid_rect_2,7,12,-1,-1,0.78,0.166111111,-0.401851807,1,0,0,1.0294,Peridotite_rect,7,1.029,1,2,0,2,0,1,,,,,,,,,,,,,
662ae132d482fb6744a3d8c0,TCR,2024-06-21_14h09.25.790,LearnStrategy,2023.2.3,Win32,58.82352941,3,1,4,-0.017222154,-0.020370348,1,0,0,0.7828,rock_grid_rect_2,8,16,-1,-1,0.783,0.432777778,-0.39722229,1,0,0,7.1778,Pumice_rect,8,7.178,1,3,0,3,0,1,,,,,,,,,,,,,
662ae132d482fb6744a3d8c0,TCR,2024-06-21_14h09.25.790,LearnStrategy,2023.2.3,Win32,58.82352941,3,1,5,0.119814792,-0.000925903,1,0,0,1.0123,rock_grid_rect_2,8,13,-1,-1,1.012,0.430925836,-0.403703681,1,0,0,1.5795,Pumice_rect,8,1.579,1,4,0,4,0,1,,,,,,,,,,,,,
662ae132d482fb6744a3d8c0,TCR,2024-06-21_14h09.25.790,LearnStrategy,2023.2.3,Win32,58.82352941,3,1,6,-0.005185208,-0.009259237,1,0,0,0.8814,rock_grid_rect_2,7,4,-1,-1,0.881,0.139259237,-0.411111179,1,0,0,3.4287,Peridotite_rect,7,3.429,1,5,0,5,0,1,,,,,,,,,,,,,
662ae132d482fb6744a3d8c0,TCR,2024-06-21_14h09.25.790,LearnStrategy,2023.2.3,Win32,58.82352941,3,1,7,-0.001481527,-0.010185174,1,0,0,0.6639,rock_grid_rect_2,1,16,-1,-1,0.664,0.150370348,-0.250000068,1,0,0,4.0948,Diorite_rect,3,4.095,0,6,0,6,0,1,,,,,,,,,,,,,
662ae132d482fb6744a3d8c0,TCR,2024-06-21_14h09.25.790,LearnStrategy,2023.2.3,Win32,58.82352941,3,1,8,0.120740696,0.023148159,1,0,0,1.5131,rock_grid_rect_2,4,1,-1,-1,1.513,-0.432037048,-0.230555623,1,0,0,1.812,Andesite_rect,1,1.812,0,7,0,7,0,1,,,,,,,,,,,,,
662ae132d482fb6744a3d8c0,TCR,2024-06-21_14h09.25.790,LearnStrategy,2023.2.3,Win32,58.82352941,3,1,9,0.055925903,0.005555556,1,0,0,0.6487,rock_grid_rect_2,2,1,-1,-1,0.649,-0.075555488,-0.252777846,1,0,0,1.4419,Basalt_rect,2,1.442,1,8,0,8,0,1,,,,,,,,,,,,,
662ae132d482fb6744a3d8c0,TCR,2024-06-21_14h09.25.790,LearnStrategy,2023.2.3,Win32,58.82352941,3,1,10,0.037407362,0.004629652,1,0,0,0.7984,rock_grid_rect_2,5,6,-1,-1,0.798,-0.370925937,-0.404629584,1,0,0,2.2459,Obsidian_rect,5,2.246,1,9,0,9,0,1,,,,,,,,,,,,,
662ae132d482fb6744a3d8c0,TCR,2024-06-21_14h09.25.790,LearnStrategy,2023.2.3,Win32,58.82352941,3,1,11,0.004074029,-0.009259237,1,0,0,0.7311,rock_grid_rect_2,5,12,-1,-1,0.731,-0.375555556,-0.387037014,1,0,0,1.5468,Obsidian_rect,5,1.547,1,10,0,10,0,1,,,,,,,,,,,,,
662ae132d482fb6744a3d8c0,TCR,2024-06-21_14h09.25.790,LearnStrategy,2023.2.3,Win32,58.82352941,3,1,12,0.091111111,0.006481493,1,0,0,0.5827,rock_grid_rect_2,6,3,-1,-1,0.583,0.159629584,-0.398148126,1,0,0,1.4951,Peridotite_rect,7,1.495,0,11,0,11,0,1,,,,,,,,,,,,,
662ae132d482fb6744a3d8c0,TCR,2024-06-21_14h09.25.790,LearnStrategy,2023.2.3,Win32,58.82352941,3,1,13,0.092037014,-0.018518507,1,0,0,0.8276,rock_grid_rect_2,3,10,-1,-1,0.828,-0.389444444,-0.255555623,1,0,0,6.5951,Andesite_rect,1,6.595,0,12,0,12,0,1,,,,,,,,,,,,,
662ae132d482fb6744a3d8c0,TCR,2024-06-21_14h09.25.790,LearnStrategy,2023.2.3,Win32,58.82352941,3,1,14,0.057777846,0.013888889,1,0,0,0.8803,rock_grid_rect_2,3,7,-1,-1,0.88,0.141111111,-0.243518473,1,0,0,5.5951,Diorite_rect,3,5.595,1,13,0,13,0,1,,,,,,,,,,,,,
662ae132d482fb6744a3d8c0,TCR,2024-06-21_14h09.25.790,LearnStrategy,2023.2.3,Win32,58.82352941,3,1,15,0.030000068,0.003703715,1,0,0,0.7457,rock_grid_rect_2,6,9,-1,-1,0.746,0.17259257,-0.389814792,1,0,0,1.8289,Peridotite_rect,7,1.829,0,14,0,14,0,1,,,,,,,,,,,,,
662ae132d482fb6744a3d8c0,TCR,2024-06-21_14h09.25.790,LearnStrategy,2023.2.3,Win32,58.82352941,3,1,16,0.044814792,-0.01759257,1,0,0,0.6812,rock_grid_rect_2,4,3,-1,-1,0.681,0.445740696,-0.234259237,1,0,0,4.1274,Gabbro_rect,4,4.127,1,15,0,15,0,1,,,,,,,,,,,,,
662ae132d482fb6744a3d8c0,TCR,2024-06-21_14h09.25.790,LearnStrategy,2023.2.3,Win32,58.82352941,3,2,1,,,,,,,,1,10,,,,,,,,,,,2,3.106,0,,,,,,-0.128333266,-0.255555623,1,0,0,3.1063,Basalt_rect,0,0,0,0,1,
662ae132d482fb6744a3d8c0,TCR,2024-06-21_14h09.25.790,LearnStrategy,2023.2.3,Win32,58.82352941,3,2,2,,,,,,,,3,14,,,,,,,,,,,3,1.424,1,,,,,,0.179074029,-0.248148126,1,0,0,1.4238,Diorite_rect,1,0,1,0,1,
662ae132d482fb6744a3d8c0,TCR,2024-06-21_14h09.25.790,LearnStrategy,2023.2.3,Win32,58.82352941,3,2,3,,,,,,,,4,11,,,,,,,,,,,4,3.062,1,,,,,,0.424444444,-0.253703681,1,0,0,3.0623,Gabbro_rect,2,0,2,0,1,
662ae132d482fb6744a3d8c0,TCR,2024-06-21_14h09.25.790,LearnStrategy,2023.2.3,Win32,58.82352941,3,2,4,,,,,,,,6,6,,,,,,,,,,,6,6.026,1,,,,,,-0.139444377,-0.393518473,1,0,0,6.026,Pegmatite_rect,3,0,3,0,1,
662ae132d482fb6744a3d8c0,TCR,2024-06-21_14h09.25.790,LearnStrategy,2023.2.3,Win32,58.82352941,3,2,5,,,,,,,,1,6,,,,,,,,,,,1,6.257,1,,,,,,-0.389444444,-0.252777846,1,0,0,6.2567,Andesite_rect,4,0,4,0,1,
662ae132d482fb6744a3d8c0,TCR,2024-06-21_14h09.25.790,LearnStrategy,2023.2.3,Win32,58.82352941,3,2,6,,,,,,,,4,16,,,,,,,,,,,4,6.838,1,,,,,,0.394814724,-0.245370348,1,0,0,6.838,Gabbro_rect,5,0,5,0,1,
662ae132d482fb6744a3d8c0,TCR,2024-06-21_14h09.25.790,LearnStrategy,2023.2.3,Win32,58.82352941,3,2,7,,,,,,,,8,5,,,,,,,,,,,8,1.079,1,,,,,,0.335555556,-0.400925903,1,0,0,1.0788,Pumice_rect,6,0,6,0,1,
662ae132d482fb6744a3d8c0,TCR,2024-06-21_14h09.25.790,LearnStrategy,2023.2.3,Win32,58.82352941,3,2,8,,,,,,,,5,16,,,,,,,,,,,5,1.129,1,,,,,,-0.461666633,-0.399074029,1,0,0,1.1287,Obsidian_rect,7,0,7,0,1,
662ae132d482fb6744a3d8c0,TCR,2024-06-21_14h09.25.790,LearnStrategy,2023.2.3,Win32,58.82352941,3,2,9,,,,,,,,2,2,,,,,,,,,,,2,1.259,1,,,,,,-0.163518541,-0.245370348,1,0,0,1.2586,Basalt_rect,8,0,8,0,1,
662ae132d482fb6744a3d8c0,TCR,2024-06-21_14h09.25.790,LearnStrategy,2023.2.3,Win32,58.82352941,3,2,10,,,,,,,,3,2,,,,,,,,,,,3,2.028,1,,,,,,0.095740696,-0.250925903,1,0,0,2.0284,Diorite_rect,9,0,9,0,1,
662ae132d482fb6744a3d8c0,TCR,2024-06-21_14h09.25.790,LearnStrategy,2023.2.3,Win32,58.82352941,3,2,11,,,,,,,,5,10,,,,,,,,,,,5,1.636,1,,,,,,-0.339444444,-0.407407362,1,0,0,1.636,Obsidian_rect,10,0,10,0,1,
662ae132d482fb6744a3d8c0,TCR,2024-06-21_14h09.25.790,LearnStrategy,2023.2.3,Win32,58.82352941,3,2,12,,,,,,,,7,2,,,,,,,,,,,7,2.412,1,,,,,,0.136481459,-0.407407362,1,0,0,2.4123,Peridotite_rect,11,0,11,0,1,
662ae132d482fb6744a3d8c0,TCR,2024-06-21_14h09.25.790,LearnStrategy,2023.2.3,Win32,58.82352941,3,2,13,,,,,,,,2,12,,,,,,,,,,,2,2.874,1,,,,,,-0.091296319,-0.250925903,1,0,0,2.8737,Basalt_rect,12,0,12,0,1,
662ae132d482fb6744a3d8c0,TCR,2024-06-21_14h09.25.790,LearnStrategy,2023.2.3,Win32,58.82352941,3,2,14,,,,,,,,6,7,,,,,,,,,,,6,1.507,1,,,,,,-0.121851874,-0.416666734,1,0,0,1.5071,Pegmatite_rect,13,0,13,0,1,
662ae132d482fb6744a3d8c0,TCR,2024-06-21_14h09.25.790,LearnStrategy,2023.2.3,Win32,58.82352941,3,2,15,,,,,,,,7,16,,,,,,,,,,,7,1.328,1,,,,,,0.046666734,-0.399074029,1,0,0,1.3283,Peridotite_rect,14,0,14,0,1,
662ae132d482fb6744a3d8c0,TCR,2024-06-21_14h09.25.790,LearnStrategy,2023.2.3,Win32,58.82352941,3,2,16,,,,,,,,8,14,,,,,,,,,,,8,1.474,1,,,,,,0.40037028,-0.402777846,1,0,0,1.4736,Pumice_rect,15,0,15,0,1,
662ae132d482fb6744a3d8c0,TCR,2024-06-21_14h09.25.790,LearnStrategy,2023.2.3,Win32,58.82352941,4,1,1,-0.004259304,0.012962986,1,0,0,0.7971,rock_grid_rect_2,1,9,-1,-1,0.797,-0.094999932,-0.257407362,1,0,0,4.2953,Basalt_rect,2,4.295,0,0,0,0,0,1,,,,,,,,,,,,,
662ae132d482fb6744a3d8c0,TCR,2024-06-21_14h09.25.790,LearnStrategy,2023.2.3,Win32,58.82352941,4,1,2,-0.014444377,-0.005555556,1,0,0,0.7642,rock_grid_rect_2,6,9,-1,-1,0.764,0.12259257,-0.412962918,1,0,0,1.6791,Peridotite_rect,7,1.679,0,1,0,1,0,1,,,,,,,,,,,,,
662ae132d482fb6744a3d8c0,TCR,2024-06-21_14h09.25.790,LearnStrategy,2023.2.3,Win32,58.82352941,4,1,3,0.021666734,-0.012037014,1,0,0,0.7648,rock_grid_rect_2,4,3,-1,-1,0.765,-0.378333333,-0.231481459,1,0,0,3.262,Andesite_rect,1,3.262,0,2,0,2,0,1,,,,,,,,,,,,,
662ae132d482fb6744a3d8c0,TCR,2024-06-21_14h09.25.790,LearnStrategy,2023.2.3,Win32,58.82352941,4,1,4,0.041111179,0,1,0,0,0.9313,rock_grid_rect_2,4,8,-1,-1,0.931,0.422592502,-0.257407362,1,0,0,3.6954,Gabbro_rect,4,3.695,1,3,0,3,0,1,,,,,,,,,,,,,
662ae132d482fb6744a3d8c0,TCR,2024-06-21_14h09.25.790,LearnStrategy,2023.2.3,Win32,58.82352941,4,1,5,0.045740696,0.004629652,1,0,0,0.715,rock_grid_rect_2,8,16,-1,-1,0.715,0.383703613,-0.403703681,1,0,0,1.8447,Pumice_rect,8,1.845,1,4,0,4,0,1,,,,,,,,,,,,,
662ae132d482fb6744a3d8c0,TCR,2024-06-21_14h09.25.790,LearnStrategy,2023.2.3,Win32,58.82352941,4,1,6,0.026296251,-0.012037014,1,0,0,0.8493,rock_grid_rect_2,7,10,-1,-1,0.849,0.173518473,-0.407407362,1,0,0,2.7115,Peridotite_rect,7,2.712,1,5,0,5,0,1,,,,,,,,,,,,,
662ae132d482fb6744a3d8c0,TCR,2024-06-21_14h09.25.790,LearnStrategy,2023.2.3,Win32,58.82352941,4,1,7,0.04018514,-0.005555556,1,0,0,0.7476,rock_grid_rect_2,7,7,-1,-1,0.748,0.14759257,-0.404629584,1,0,0,2.1461,Peridotite_rect,7,2.146,1,6,0,6,0,1,,,,,,,,,,,,,
662ae132d482fb6744a3d8c0,TCR,2024-06-21_14h09.25.790,LearnStrategy,2023.2.3,Win32,58.82352941,4,1,8,0.003148126,0.002777778,1,0,0,0.7978,rock_grid_rect_2,3,16,-1,-1,0.798,0.123518473,-0.252777846,1,0,0,1.3957,Diorite_rect,3,1.396,1,7,0,7,0,1,,,,,,,,,,,,,
662ae132d482fb6744a3d8c0,TCR,2024-06-21_14h09.25.790,LearnStrategy,2023.2.3,Win32,58.82352941,4,1,9,0.037407362,0.022222222,1,0,0,0.8646,rock_grid_rect_2,1,4,-1,-1,0.865,-0.419999966,-0.24722229,1,0,0,1.346,Andesite_rect,1,1.346,1,8,0,8,0,1,,,,,,,,,,,,,
662ae132d482fb6744a3d8c0,TCR,2024-06-21_14h09.25.790,LearnStrategy,2023.2.3,Win32,58.82352941,4,1,10,-0.038518541,-0.001851841,1,0,0,1.049,rock_grid_rect_2,6,5,-1,-1,1.049,0.104074029,-0.246296251,1,0,0,3.1115,Diorite_rect,3,3.111,0,9,0,9,0,1,,,,,,,,,,,,,
662ae132d482fb6744a3d8c0,TCR,2024-06-21_14h09.25.790,LearnStrategy,2023.2.3,Win32,58.82352941,4,1,11,-0.011666599,-0.012037014,1,0,0,1.0278,rock_grid_rect_2,5,9,-1,-1,1.028,-0.382037048,-0.381481459,1,0,0,1.212,Obsidian_rect,5,1.212,1,10,0,10,0,1,,,,,,,,,,,,,
662ae132d482fb6744a3d8c0,TCR,2024-06-21_14h09.25.790,LearnStrategy,2023.2.3,Win32,58.82352941,4,1,12,0.017962918,0.008333333,1,0,0,0.8818,rock_grid_rect_2,3,6,-1,-1,0.882,-0.411666667,-0.229629584,1,0,0,2.2785,Andesite_rect,1,2.279,0,11,0,11,0,1,,,,,,,,,,,,,
662ae132d482fb6744a3d8c0,TCR,2024-06-21_14h09.25.790,LearnStrategy,2023.2.3,Win32,58.82352941,4,1,13,0.056851807,-0.006481459,1,0,0,0.7809,rock_grid_rect_2,5,4,-1,-1,0.781,-0.335740763,-0.382407362,1,0,0,0.9608,Obsidian_rect,5,0.961,1,12,0,12,0,1,,,,,,,,,,,,,
662ae132d482fb6744a3d8c0,TCR,2024-06-21_14h09.25.790,LearnStrategy,2023.2.3,Win32,58.82352941,4,1,14,0.030925903,0.002777778,1,0,0,0.9984,rock_grid_rect_2,2,14,-1,-1,0.998,-0.117222154,-0.262962918,1,0,0,4.3952,Basalt_rect,2,4.395,1,13,0,13,0,1,,,,,,,,,,,,,
662ae132d482fb6744a3d8c0,TCR,2024-06-21_14h09.25.790,LearnStrategy,2023.2.3,Win32,58.82352941,4,1,15,0.036481459,-0.009259237,1,0,0,0.8644,rock_grid_rect_2,8,3,-1,-1,0.864,0.436481391,-0.394444512,1,0,0,1.7134,Pumice_rect,8,1.713,1,14,0,14,0,1,,,,,,,,,,,,,
662ae132d482fb6744a3d8c0,TCR,2024-06-21_14h09.25.790,LearnStrategy,2023.2.3,Win32,58.82352941,4,1,16,-0.021851874,-0.002777778,1,0,0,0.913,rock_grid_rect_2,2,6,-1,-1,0.913,-0.121851874,-0.261111179,1,0,0,1.4131,Basalt_rect,2,1.413,1,15,0,15,0,1,,,,,,,,,,,,,
662ae132d482fb6744a3d8c0,TCR,2024-06-21_14h09.25.790,LearnStrategy,2023.2.3,Win32,58.82352941,4,2,1,,,,,,,,7,8,,,,,,,,,,,7,2.328,1,,,,,,0.094814792,-0.411111179,1,0,0,2.3276,Peridotite_rect,0,0,0,0,1,
662ae132d482fb6744a3d8c0,TCR,2024-06-21_14h09.25.790,LearnStrategy,2023.2.3,Win32,58.82352941,4,2,2,,,,,,,,7,15,,,,,,,,,,,7,1.029,1,,,,,,0.189259237,-0.400000068,1,0,0,1.029,Peridotite_rect,1,0,1,0,1,
662ae132d482fb6744a3d8c0,TCR,2024-06-21_14h09.25.790,LearnStrategy,2023.2.3,Win32,58.82352941,4,2,3,,,,,,,,4,14,,,,,,,,,,,4,4.728,1,,,,,,0.443888889,-0.246296251,1,0,0,4.7277,Gabbro_rect,2,0,2,0,1,
662ae132d482fb6744a3d8c0,TCR,2024-06-21_14h09.25.790,LearnStrategy,2023.2.3,Win32,58.82352941,4,2,4,,,,,,,,4,5,,,,,,,,,,,4,9.188,1,,,,,,0.398518473,-0.240740696,1,0,0,9.1876,Gabbro_rect,3,0,3,0,1,
662ae132d482fb6744a3d8c0,TCR,2024-06-21_14h09.25.790,LearnStrategy,2023.2.3,Win32,58.82352941,4,2,5,,,,,,,,6,13,,,,,,,,,,,6,2.273,1,,,,,,-0.144999932,-0.394444512,1,0,0,2.2735,Pegmatite_rect,4,0,4,0,1,
662ae132d482fb6744a3d8c0,TCR,2024-06-21_14h09.25.790,LearnStrategy,2023.2.3,Win32,58.82352941,4,2,6,,,,,,,,5,5,,,,,,,,,,,5,1.557,1,,,,,,-0.395925937,-0.38518514,1,0,0,1.5573,Obsidian_rect,5,0,5,0,1,
662ae132d482fb6744a3d8c0,TCR,2024-06-21_14h09.25.790,LearnStrategy,2023.2.3,Win32,58.82352941,4,2,7,,,,,,,,1,11,,,,,,,,,,,1,6.957,1,,,,,,-0.345925937,-0.26018514,1,0,0,6.9572,Andesite_rect,6,0,6,0,1,
662ae132d482fb6744a3d8c0,TCR,2024-06-21_14h09.25.790,LearnStrategy,2023.2.3,Win32,58.82352941,4,2,8,,,,,,,,8,8,,,,,,,,,,,8,2.075,1,,,,,,0.449444444,-0.412037014,1,0,0,2.0754,Pumice_rect,7,0,7,0,1,
662ae132d482fb6744a3d8c0,TCR,2024-06-21_14h09.25.790,LearnStrategy,2023.2.3,Win32,58.82352941,4,2,9,,,,,,,,5,14,,,,,,,,,,,5,1.04,1,,,,,,-0.339444444,-0.39259257,1,0,0,1.0404,Obsidian_rect,8,0,8,0,1,
662ae132d482fb6744a3d8c0,TCR,2024-06-21_14h09.25.790,LearnStrategy,2023.2.3,Win32,58.82352941,4,2,10,,,,,,,,3,15,,,,,,,,,,,1,10.107,0,,,,,,-0.332037048,-0.228703681,1,0,0,10.1073,Andesite_rect,9,0,9,0,1,
662ae132d482fb6744a3d8c0,TCR,2024-06-21_14h09.25.790,LearnStrategy,2023.2.3,Win32,58.82352941,4,2,11,,,,,,,,6,10,,,,,,,,,,,6,2.712,1,,,,,,-0.110740763,-0.406481459,1,0,0,2.7115,Pegmatite_rect,10,0,10,0,1,
662ae132d482fb6744a3d8c0,TCR,2024-06-21_14h09.25.790,LearnStrategy,2023.2.3,Win32,58.82352941,4,2,12,,,,,,,,3,12,,,,,,,,,,,1,3.408,0,,,,,,-0.392222222,-0.241666734,1,0,0,3.4076,Andesite_rect,11,0,11,0,1,
662ae132d482fb6744a3d8c0,TCR,2024-06-21_14h09.25.790,LearnStrategy,2023.2.3,Win32,58.82352941,4,2,13,,,,,,,,2,5,,,,,,,,,,,2,0.994,1,,,,,,-0.085740763,-0.261111179,1,0,0,0.9942,Basalt_rect,12,0,12,0,1,
662ae132d482fb6744a3d8c0,TCR,2024-06-21_14h09.25.790,LearnStrategy,2023.2.3,Win32,58.82352941,4,2,14,,,,,,,,2,2,,,,,,,,,,,2,0.975,1,,,,,,-0.100555488,-0.250000068,1,0,0,0.9749,Basalt_rect,13,0,13,0,1,
662ae132d482fb6744a3d8c0,TCR,2024-06-21_14h09.25.790,LearnStrategy,2023.2.3,Win32,58.82352941,4,2,15,,,,,,,,8,5,,,,,,,,,,,8,4.961,1,,,,,,0.371666667,-0.387037014,1,0,0,4.9605,Pumice_rect,14,0,14,0,1,
662ae132d482fb6744a3d8c0,TCR,2024-06-21_14h09.25.790,LearnStrategy,2023.2.3,Win32,58.82352941,4,2,16,,,,,,,,1,6,,,,,,,,,,,2,7.644,0,,,,,,-0.131111043,-0.250925903,1,0,0,7.6437,Basalt_rect,15,0,15,0,1,
662ae132d482fb6744a3d8c0,TCR,2024-06-21_14h09.25.790,LearnStrategy,2023.2.3,Win32,58.82352941,5,1,1,0.081851807,-0.012037014,1,0,0,4.78,rock_grid_rect_2,3,7,-1,-1,4.78,0.16518514,-0.241666734,1,0,0,2.2121,Diorite_rect,3,2.212,1,0,0,0,0,1,,,,,,,,,,,,,
662ae132d482fb6744a3d8c0,TCR,2024-06-21_14h09.25.790,LearnStrategy,2023.2.3,Win32,58.82352941,5,1,2,0.055000068,-0.015740729,1,0,0,0.8147,rock_grid_rect_2,5,11,-1,-1,0.815,-0.372777778,-0.404629584,1,0,0,0.9118,Obsidian_rect,5,0.912,1,1,0,1,0,1,,,,,,,,,,,,,
662ae132d482fb6744a3d8c0,TCR,2024-06-21_14h09.25.790,LearnStrategy,2023.2.3,Win32,58.82352941,5,1,3,0.042962918,-0.000925903,1,0,0,0.9983,rock_grid_rect_2,1,2,-1,-1,0.998,-0.376481493,-0.237962918,1,0,0,3.2129,Andesite_rect,1,3.213,1,2,0,2,0,1,,,,,,,,,,,,,
662ae132d482fb6744a3d8c0,TCR,2024-06-21_14h09.25.790,LearnStrategy,2023.2.3,Win32,58.82352941,5,1,4,0.020740696,-0.020370348,1,0,0,0.7978,rock_grid_rect_2,5,8,-1,-1,0.798,-0.348703715,-0.416666734,1,0,0,1.3283,Obsidian_rect,5,1.328,1,3,0,3,0,1,,,,,,,,,,,,,
662ae132d482fb6744a3d8c0,TCR,2024-06-21_14h09.25.790,LearnStrategy,2023.2.3,Win32,58.82352941,5,1,5,0.018888957,-0.008333333,1,0,0,0.6659,rock_grid_rect_2,6,8,-1,-1,0.666,-0.113518541,-0.402777846,1,0,0,1.1956,Pegmatite_rect,6,1.196,1,4,0,4,0,1,,,,,,,,,,,,,
662ae132d482fb6744a3d8c0,TCR,2024-06-21_14h09.25.790,LearnStrategy,2023.2.3,Win32,58.82352941,5,1,6,0.010555623,-0.009259237,1,0,0,0.6491,rock_grid_rect_2,4,9,-1,-1,0.649,0.466111111,-0.252777846,1,0,0,2.1777,Gabbro_rect,4,2.178,1,5,0,5,0,1,,,,,,,,,,,,,
662ae132d482fb6744a3d8c0,TCR,2024-06-21_14h09.25.790,LearnStrategy,2023.2.3,Win32,58.82352941,5,1,7,0.017037014,-0.015740729,1,0,0,0.6818,rock_grid_rect_2,3,9,-1,-1,0.682,0.156851807,-0.266666734,1,0,0,1.629,Diorite_rect,3,1.629,1,6,0,6,0,1,,,,,,,,,,,,,
662ae132d482fb6744a3d8c0,TCR,2024-06-21_14h09.25.790,LearnStrategy,2023.2.3,Win32,58.82352941,5,1,8,0.067962918,-0.001851841,1,0,0,0.5981,rock_grid_rect_2,4,10,-1,-1,0.598,0.448518473,-0.249074029,1,0,0,2.5959,Gabbro_rect,4,2.596,1,7,0,7,0,1,,,,,,,,,,,,,
662ae132d482fb6744a3d8c0,TCR,2024-06-21_14h09.25.790,LearnStrategy,2023.2.3,Win32,58.82352941,5,1,9,0.048518473,-0.009259237,1,0,0,0.5818,rock_grid_rect_2,1,14,-1,-1,0.582,-0.383888889,-0.24259257,1,0,0,2.4618,Andesite_rect,1,2.462,1,8,0,8,0,1,,,,,,,,,,,,,
662ae132d482fb6744a3d8c0,TCR,2024-06-21_14h09.25.790,LearnStrategy,2023.2.3,Win32,58.82352941,5,1,10,0.017962918,-0.011111111,1,0,0,0.6316,rock_grid_rect_2,7,14,-1,-1,0.632,0.100370348,-0.415740696,1,0,0,1.1961,Peridotite_rect,7,1.196,1,9,0,9,0,1,,,,,,,,,,,,,
662ae132d482fb6744a3d8c0,TCR,2024-06-21_14h09.25.790,LearnStrategy,2023.2.3,Win32,58.82352941,5,1,11,-0.003333266,0.004629652,1,0,0,0.582,rock_grid_rect_2,7,4,-1,-1,0.582,0.112407362,-0.396296251,1,0,0,4.7771,Peridotite_rect,7,4.777,1,10,0,10,0,1,,,,,,,,,,,,,
662ae132d482fb6744a3d8c0,TCR,2024-06-21_14h09.25.790,LearnStrategy,2023.2.3,Win32,58.82352941,5,1,12,0.063333333,0.002777778,1,0,0,0.8973,rock_grid_rect_2,2,4,-1,-1,0.897,-0.094999932,-0.255555623,1,0,0,1.3773,Basalt_rect,2,1.377,1,11,0,11,0,1,,,,,,,,,,,,,
662ae132d482fb6744a3d8c0,TCR,2024-06-21_14h09.25.790,LearnStrategy,2023.2.3,Win32,58.82352941,5,1,13,0.035555623,0.001851874,1,0,0,0.8813,rock_grid_rect_2,6,15,-1,-1,0.881,-0.103333266,-0.403703681,1,0,0,1.2293,Pegmatite_rect,6,1.229,1,12,0,12,0,1,,,,,,,,,,,,,
662ae132d482fb6744a3d8c0,TCR,2024-06-21_14h09.25.790,LearnStrategy,2023.2.3,Win32,58.82352941,5,1,14,-0.008888821,-0.025,1,0,0,0.7651,rock_grid_rect_2,8,15,-1,-1,0.765,0.41518514,-0.399074029,1,0,0,1.0452,Pumice_rect,8,1.045,1,13,0,13,0,1,,,,,,,,,,,,,
662ae132d482fb6744a3d8c0,TCR,2024-06-21_14h09.25.790,LearnStrategy,2023.2.3,Win32,58.82352941,5,1,15,-0.000555488,0.006481493,1,0,0,0.7319,rock_grid_rect_2,8,4,-1,-1,0.732,0.419814724,-0.390740696,1,0,0,1.6626,Pumice_rect,8,1.663,1,14,0,14,0,1,,,,,,,,,,,,,
662ae132d482fb6744a3d8c0,TCR,2024-06-21_14h09.25.790,LearnStrategy,2023.2.3,Win32,58.82352941,5,1,16,0.010555623,-0.005555556,1,0,0,0.8654,rock_grid_rect_2,2,10,-1,-1,0.865,-0.149629652,-0.257407362,1,0,0,2.6453,Basalt_rect,2,2.645,1,15,0,15,0,1,,,,,,,,,,,,,
662ae132d482fb6744a3d8c0,TCR,2024-06-21_14h09.25.790,LearnStrategy,2023.2.3,Win32,58.82352941,5,2,1,,,,,,,,3,11,,,,,,,,,,,1,6.26,0,,,,,,-0.326481493,-0.246296251,1,0,0,6.2597,Andesite_rect,0,0,0,0,1,
662ae132d482fb6744a3d8c0,TCR,2024-06-21_14h09.25.790,LearnStrategy,2023.2.3,Win32,58.82352941,5,2,2,,,,,,,,8,9,,,,,,,,,,,8,1.013,1,,,,,,0.362407362,-0.386111179,1,0,0,1.0125,Pumice_rect,1,0,1,0,1,
662ae132d482fb6744a3d8c0,TCR,2024-06-21_14h09.25.790,LearnStrategy,2023.2.3,Win32,58.82352941,5,2,3,,,,,,,,1,10,,,,,,,,,,,2,2.796,0,,,,,,-0.165370416,-0.238888957,1,0,0,2.7956,Basalt_rect,2,0,2,0,1,
662ae132d482fb6744a3d8c0,TCR,2024-06-21_14h09.25.790,LearnStrategy,2023.2.3,Win32,58.82352941,5,2,4,,,,,,,,8,10,,,,,,,,,,,8,1.457,1,,,,,,0.389259169,-0.400925903,1,0,0,1.4566,Pumice_rect,3,0,3,0,1,
662ae132d482fb6744a3d8c0,TCR,2024-06-21_14h09.25.790,LearnStrategy,2023.2.3,Win32,58.82352941,5,2,5,,,,,,,,7,2,,,,,,,,,,,7,1.146,1,,,,,,0.125370348,-0.389814792,1,0,0,1.1457,Peridotite_rect,4,0,4,0,1,
662ae132d482fb6744a3d8c0,TCR,2024-06-21_14h09.25.790,LearnStrategy,2023.2.3,Win32,58.82352941,5,2,6,,,,,,,,6,16,,,,,,,,,,,6,1.309,1,,,,,,-0.099629652,-0.384259237,1,0,0,1.309,Pegmatite_rect,5,0,5,0,1,
662ae132d482fb6744a3d8c0,TCR,2024-06-21_14h09.25.790,LearnStrategy,2023.2.3,Win32,58.82352941,5,2,7,,,,,,,,6,7,,,,,,,,,,,6,1.807,1,,,,,,-0.093148193,-0.380555623,1,0,0,1.8073,Pegmatite_rect,6,0,6,0,1,
662ae132d482fb6744a3d8c0,TCR,2024-06-21_14h09.25.790,LearnStrategy,2023.2.3,Win32,58.82352941,5,2,8,,,,,,,,3,13,,,,,,,,,,,3,1.675,1,,,,,,0.146666667,-0.228703681,1,0,0,1.6755,Diorite_rect,7,0,7,0,1,
662ae132d482fb6744a3d8c0,TCR,2024-06-21_14h09.25.790,LearnStrategy,2023.2.3,Win32,58.82352941,5,2,9,,,,,,,,1,7,,,,,,,,,,,1,2.292,1,,,,,,-0.319074097,-0.251851807,1,0,0,2.2921,Andesite_rect,8,0,8,0,1,
662ae132d482fb6744a3d8c0,TCR,2024-06-21_14h09.25.790,LearnStrategy,2023.2.3,Win32,58.82352941,5,2,10,,,,,,,,2,9,,,,,,,,,,,2,0.857,1,,,,,,-0.180185208,-0.253703681,1,0,0,0.8572,Basalt_rect,9,0,9,0,1,
662ae132d482fb6744a3d8c0,TCR,2024-06-21_14h09.25.790,LearnStrategy,2023.2.3,Win32,58.82352941,5,2,11,,,,,,,,2,12,,,,,,,,,,,2,2.093,1,,,,,,-0.180185208,-0.253703681,1,0,0,2.0927,Basalt_rect,10,0,10,0,1,
662ae132d482fb6744a3d8c0,TCR,2024-06-21_14h09.25.790,LearnStrategy,2023.2.3,Win32,58.82352941,5,2,12,,,,,,,,5,7,,,,,,,,,,,5,1.024,1,,,,,,-0.397777778,-0.395370348,1,0,0,1.0242,Obsidian_rect,11,0,11,0,1,
662ae132d482fb6744a3d8c0,TCR,2024-06-21_14h09.25.790,LearnStrategy,2023.2.3,Win32,58.82352941,5,2,13,,,,,,,,5,10,,,,,,,,,,,5,0.913,1,,,,,,-0.390370382,-0.409259237,1,0,0,0.9131,Obsidian_rect,12,0,12,0,1,
662ae132d482fb6744a3d8c0,TCR,2024-06-21_14h09.25.790,LearnStrategy,2023.2.3,Win32,58.82352941,5,2,14,,,,,,,,7,5,,,,,,,,,,,7,1.928,1,,,,,,0.096666667,-0.407407362,1,0,0,1.9276,Peridotite_rect,13,0,13,0,1,
662ae132d482fb6744a3d8c0,TCR,2024-06-21_14h09.25.790,LearnStrategy,2023.2.3,Win32,58.82352941,5,2,15,,,,,,,,4,11,,,,,,,,,,,4,5.467,1,,,,,,0.423518473,-0.245370348,1,0,0,5.4672,Gabbro_rect,14,0,14,0,1,
662ae132d482fb6744a3d8c0,TCR,2024-06-21_14h09.25.790,LearnStrategy,2023.2.3,Win32,58.82352941,5,2,16,,,,,,,,4,13,,,,,,,,,,,4,1.406,1,,,,,,0.37537028,-0.243518473,1,0,0,1.406,Gabbro_rect,15,0,15,0,1,
662ae132d482fb6744a3d8c0,TCR,2024-06-21_14h09.25.790,LearnStrategy,2023.2.3,Win32,58.82352941,6,1,1,0.009629584,0.000925937,1,0,0,9.7131,rock_grid_rect_2,7,6,-1,-1,9.713,0.121666667,-0.416666734,1,0,0,1.412,Peridotite_rect,7,1.412,1,0,0,0,0,1,,,,,,,,,,,,,
662ae132d482fb6744a3d8c0,TCR,2024-06-21_14h09.25.790,LearnStrategy,2023.2.3,Win32,58.82352941,6,1,2,0.001296251,0.017592604,1,0,0,0.7981,rock_grid_rect_2,8,2,-1,-1,0.798,0.397592502,-0.401851807,1,0,0,1.146,Pumice_rect,8,1.146,1,1,0,1,0,1,,,,,,,,,,,,,
662ae132d482fb6744a3d8c0,TCR,2024-06-21_14h09.25.790,LearnStrategy,2023.2.3,Win32,58.82352941,6,1,3,0.026296251,0.003703715,1,0,0,0.8155,rock_grid_rect_2,8,13,-1,-1,0.815,0.385555556,-0.421296251,1,0,0,1.0464,Pumice_rect,8,1.046,1,2,0,2,0,1,,,,,,,,,,,,,
662ae132d482fb6744a3d8c0,TCR,2024-06-21_14h09.25.790,LearnStrategy,2023.2.3,Win32,58.82352941,6,1,4,0.026296251,0.002777778,1,0,0,0.681,rock_grid_rect_2,6,3,-1,-1,0.681,-0.182037082,-0.406481459,1,0,0,4.1447,Pegmatite_rect,6,4.145,1,3,0,3,0,1,,,,,,,,,,,,,
662ae132d482fb6744a3d8c0,TCR,2024-06-21_14h09.25.790,LearnStrategy,2023.2.3,Win32,58.82352941,6,1,5,0.051296251,0.021296319,1,0,0,0.5993,rock_grid_rect_2,4,15,-1,-1,0.599,0.460555556,-0.256481459,1,0,0,1.3088,Gabbro_rect,4,1.309,1,4,0,4,0,1,,,,,,,,,,,,,
662ae132d482fb6744a3d8c0,TCR,2024-06-21_14h09.25.790,LearnStrategy,2023.2.3,Win32,58.82352941,6,1,6,0.014259237,-0.011111111,1,0,0,0.8313,rock_grid_rect_2,3,10,-1,-1,0.831,0.152222222,-0.236111179,1,0,0,0.9782,Diorite_rect,3,0.978,1,5,0,5,0,1,,,,,,,,,,,,,
662ae132d482fb6744a3d8c0,TCR,2024-06-21_14h09.25.790,LearnStrategy,2023.2.3,Win32,58.82352941,6,1,7,0.01518514,0.023148159,1,0,0,0.6985,rock_grid_rect_2,3,8,-1,-1,0.698,0.110555556,-0.245370348,1,0,0,1.1745,Diorite_rect,3,1.174,1,6,0,6,0,1,,,,,,,,,,,,,
662ae132d482fb6744a3d8c0,TCR,2024-06-21_14h09.25.790,LearnStrategy,2023.2.3,Win32,58.82352941,6,1,8,0.030000068,0.013888889,1,0,0,0.5467,rock_grid_rect_2,1,5,-1,-1,0.547,-0.381111111,-0.237962918,1,0,0,2.2127,Andesite_rect,1,2.213,1,7,0,7,0,1,,,,,,,,,,,,,
662ae132d482fb6744a3d8c0,TCR,2024-06-21_14h09.25.790,LearnStrategy,2023.2.3,Win32,58.82352941,6,1,9,0.018888957,-0.000925903,1,0,0,0.7307,rock_grid_rect_2,1,16,-1,-1,0.731,-0.395,-0.246296251,1,0,0,0.9457,Andesite_rect,1,0.946,1,8,0,8,0,1,,,,,,,,,,,,,
662ae132d482fb6744a3d8c0,TCR,2024-06-21_14h09.25.790,LearnStrategy,2023.2.3,Win32,58.82352941,6,1,10,0.032777846,0.002777778,1,0,0,0.664,rock_grid_rect_2,5,12,-1,-1,0.664,-0.390370382,-0.383333401,1,0,0,1.0795,Obsidian_rect,5,1.08,1,9,0,9,0,1,,,,,,,,,,,,,
662ae132d482fb6744a3d8c0,TCR,2024-06-21_14h09.25.790,LearnStrategy,2023.2.3,Win32,58.82352941,6,1,11,-0.006111043,-0.006481459,1,0,0,3.8648,rock_grid_rect_2,2,11,-1,-1,3.865,-0.079259304,-0.266666734,1,0,0,2.1957,Basalt_rect,2,2.196,1,10,0,10,0,1,,,,,,,,,,,,,
662ae132d482fb6744a3d8c0,TCR,2024-06-21_14h09.25.790,LearnStrategy,2023.2.3,Win32,58.82352941,6,1,12,0.094814792,0.003703715,1,0,0,0.6314,rock_grid_rect_2,6,11,-1,-1,0.631,-0.105185208,-0.404629584,1,0,0,1.079,Pegmatite_rect,6,1.079,1,11,0,11,0,1,,,,,,,,,,,,,
662ae132d482fb6744a3d8c0,TCR,2024-06-21_14h09.25.790,LearnStrategy,2023.2.3,Win32,58.82352941,6,1,13,0.005000068,-0.007407396,1,0,0,0.549,rock_grid_rect_2,2,1,-1,-1,0.549,-0.113518541,-0.237962918,1,0,0,0.8933,Basalt_rect,2,0.893,1,12,0,12,0,1,,,,,,,,,,,,,
662ae132d482fb6744a3d8c0,TCR,2024-06-21_14h09.25.790,LearnStrategy,2023.2.3,Win32,58.82352941,6,1,14,-0.021851874,-0.004629618,1,0,0,0.5151,rock_grid_rect_2,5,6,-1,-1,0.515,-0.410740763,-0.393518473,1,0,0,1.0443,Obsidian_rect,5,1.044,1,13,0,13,0,1,,,,,,,,,,,,,
662ae132d482fb6744a3d8c0,TCR,2024-06-21_14h09.25.790,LearnStrategy,2023.2.3,Win32,58.82352941,6,1,15,-0.003333266,-0.001851841,1,0,0,0.816,rock_grid_rect_2,4,1,-1,-1,0.816,-0.438518541,-0.244444512,1,0,0,3.7946,Andesite_rect,1,3.795,0,14,0,14,0,1,,,,,,,,,,,,,
662ae132d482fb6744a3d8c0,TCR,2024-06-21_14h09.25.790,LearnStrategy,2023.2.3,Win32,58.82352941,6,1,16,0.069814792,-0.001851841,1,0,0,0.6474,rock_grid_rect_2,7,12,-1,-1,0.647,0.145740696,-0.41018514,1,0,0,1.0456,Peridotite_rect,7,1.046,1,15,0,15,0,1,,,,,,,,,,,,,
662ae132d482fb6744a3d8c0,TCR,2024-06-21_14h09.25.790,LearnStrategy,2023.2.3,Win32,58.82352941,6,2,1,,,,,,,,6,6,,,,,,,,,,,6,2.429,1,,,,,,-0.113518541,-0.391666734,1,0,0,2.4286,Pegmatite_rect,0,0,0,0,1,
662ae132d482fb6744a3d8c0,TCR,2024-06-21_14h09.25.790,LearnStrategy,2023.2.3,Win32,58.82352941,6,2,2,,,,,,,,1,3,,,,,,,,,,,1,3.962,1,,,,,,-0.37,-0.238888957,1,0,0,3.9617,Andesite_rect,1,0,1,0,1,
662ae132d482fb6744a3d8c0,TCR,2024-06-21_14h09.25.790,LearnStrategy,2023.2.3,Win32,58.82352941,6,2,3,,,,,,,,1,1,,,,,,,,,,,4,6.093,0,,,,,,0.41518514,-0.237037014,1,0,0,6.0933,Gabbro_rect,2,0,2,0,1,
662ae132d482fb6744a3d8c0,TCR,2024-06-21_14h09.25.790,LearnStrategy,2023.2.3,Win32,58.82352941,6,2,4,,,,,,,,7,16,,,,,,,,,,,7,1.394,1,,,,,,0.167962918,-0.386111179,1,0,0,1.3941,Peridotite_rect,3,0,3,0,1,
662ae132d482fb6744a3d8c0,TCR,2024-06-21_14h09.25.790,LearnStrategy,2023.2.3,Win32,58.82352941,6,2,5,,,,,,,,2,16,,,,,,,,,,,4,2.824,0,,,,,,0.36518514,-0.243518473,1,0,0,2.8241,Gabbro_rect,4,0,4,0,1,
662ae132d482fb6744a3d8c0,TCR,2024-06-21_14h09.25.790,LearnStrategy,2023.2.3,Win32,58.82352941,6,2,6,,,,,,,,5,2,,,,,,,,,,,5,1.041,1,,,,,,-0.340370382,-0.408333401,1,0,0,1.0407,Obsidian_rect,5,0,5,0,1,
662ae132d482fb6744a3d8c0,TCR,2024-06-21_14h09.25.790,LearnStrategy,2023.2.3,Win32,58.82352941,6,2,7,,,,,,,,3,14,,,,,,,,,,,3,1.125,1,,,,,,0.14759257,-0.23518514,1,0,0,1.1248,Diorite_rect,6,0,6,0,1,
662ae132d482fb6744a3d8c0,TCR,2024-06-21_14h09.25.790,LearnStrategy,2023.2.3,Win32,58.82352941,6,2,8,,,,,,,,3,2,,,,,,,,,,,3,0.743,1,,,,,,0.132777778,-0.261111179,1,0,0,0.7434,Diorite_rect,7,0,7,0,1,
662ae132d482fb6744a3d8c0,TCR,2024-06-21_14h09.25.790,LearnStrategy,2023.2.3,Win32,58.82352941,6,2,9,,,,,,,,5,16,,,,,,,,,,,5,0.96,1,,,,,,-0.372777778,-0.404629584,1,0,0,0.9601,Obsidian_rect,8,0,8,0,1,
662ae132d482fb6744a3d8c0,TCR,2024-06-21_14h09.25.790,LearnStrategy,2023.2.3,Win32,58.82352941,6,2,10,,,,,,,,8,6,,,,,,,,,,,8,1.109,1,,,,,,0.418888889,-0.400925903,1,0,0,1.1094,Pumice_rect,9,0,9,0,1,
662ae132d482fb6744a3d8c0,TCR,2024-06-21_14h09.25.790,LearnStrategy,2023.2.3,Win32,58.82352941,6,2,11,,,,,,,,2,8,,,,,,,,,,,2,0.995,1,,,,,,-0.133888821,-0.239814792,1,0,0,0.9955,Basalt_rect,10,0,10,0,1,
662ae132d482fb6744a3d8c0,TCR,2024-06-21_14h09.25.790,LearnStrategy,2023.2.3,Win32,58.82352941,6,2,12,,,,,,,,7,13,,,,,,,,,,,7,1.544,1,,,,,,0.146666667,-0.402777846,1,0,0,1.5436,Peridotite_rect,11,0,11,0,1,
662ae132d482fb6744a3d8c0,TCR,2024-06-21_14h09.25.790,LearnStrategy,2023.2.3,Win32,58.82352941,6,2,13,,,,,,,,6,12,,,,,,,,,,,3,5.106,0,,,,,,0.105925903,-0.255555623,1,0,0,5.1059,Diorite_rect,12,0,12,0,1,
662ae132d482fb6744a3d8c0,TCR,2024-06-21_14h09.25.790,LearnStrategy,2023.2.3,Win32,58.82352941,6,2,14,,,,,,,,8,14,,,,,,,,,,,8,1.061,1,,,,,,0.408703613,-0.395370348,1,0,0,1.0612,Pumice_rect,13,0,13,0,1,
662ae132d482fb6744a3d8c0,TCR,2024-06-21_14h09.25.790,LearnStrategy,2023.2.3,Win32,58.82352941,6,2,15,,,,,,,,4,12,,,,,,,,,,,4,6.739,1,,,,,,0.447592502,-0.240740696,1,0,0,6.7391,Gabbro_rect,14,0,14,0,1,
662ae132d482fb6744a3d8c0,TCR,2024-06-21_14h09.25.790,LearnStrategy,2023.2.3,Win32,58.82352941,6,2,16,,,,,,,,4,16,,,,,,,,,,,4,1.64,1,,,,,,0.388333333,-0.229629584,1,0,0,1.6402,Gabbro_rect,15,0,15,0,1,
662ae132d482fb6744a3d8c0,TCR,2024-06-21_14h09.25.790,LearnStrategy,2023.2.3,Win32,58.82352941,7,1,1,-0.018148193,0.022222222,1,0,0,0.7886,rock_grid_rect_2,4,8,-1,-1,0.789,0.434629584,-0.252777846,1,0,0,1.7775,Gabbro_rect,4,1.778,1,0,0,0,0,1,,,,,,,,,,,,,
662ae132d482fb6744a3d8c0,TCR,2024-06-21_14h09.25.790,LearnStrategy,2023.2.3,Win32,58.82352941,7,1,2,0.042962918,-0.007407396,1,0,0,1.0201,rock_grid_rect_2,2,4,-1,-1,1.02,-0.115370416,-0.258333401,1,0,0,0.9138,Basalt_rect,2,0.914,1,1,0,1,0,1,,,,,,,,,,,,,
662ae132d482fb6744a3d8c0,TCR,2024-06-21_14h09.25.790,LearnStrategy,2023.2.3,Win32,58.82352941,7,1,3,0.024444512,-0.014814792,1,0,0,0.809,rock_grid_rect_2,1,4,-1,-1,0.809,-0.411666667,-0.254629584,1,0,0,3.0018,Andesite_rect,1,3.002,1,2,0,2,0,1,,,,,,,,,,,,,
662ae132d482fb6744a3d8c0,TCR,2024-06-21_14h09.25.790,LearnStrategy,2023.2.3,Win32,58.82352941,7,1,4,0.050370348,-0.022222222,1,0,0,0.5505,rock_grid_rect_2,4,9,-1,-1,0.551,0.404074029,-0.24259257,1,0,0,2.7774,Gabbro_rect,4,2.777,1,3,0,3,0,1,,,,,,,,,,,,,
662ae132d482fb6744a3d8c0,TCR,2024-06-21_14h09.25.790,LearnStrategy,2023.2.3,Win32,58.82352941,7,1,5,0.059629584,-0.000925903,1,0,0,1.787,rock_grid_rect_2,3,7,-1,-1,1.787,0.100370348,-0.244444512,1,0,0,1.4124,Diorite_rect,3,1.412,1,4,0,4,0,1,,,,,,,,,,,,,
662ae132d482fb6744a3d8c0,TCR,2024-06-21_14h09.25.790,LearnStrategy,2023.2.3,Win32,58.82352941,7,1,6,0.010555623,0.014814826,1,0,0,0.9536,rock_grid_rect_2,8,13,-1,-1,0.954,0.379074029,-0.39259257,1,0,0,1.2965,Pumice_rect,8,1.296,1,5,0,5,0,1,,,,,,,,,,,,,
662ae132d482fb6744a3d8c0,TCR,2024-06-21_14h09.25.790,LearnStrategy,2023.2.3,Win32,58.82352941,7,1,7,0.024444512,-0.003703681,1,0,0,0.5193,rock_grid_rect_2,7,7,-1,-1,0.519,0.136481459,-0.396296251,1,0,0,1.581,Peridotite_rect,7,1.581,1,6,0,6,0,1,,,,,,,,,,,,,
662ae132d482fb6744a3d8c0,TCR,2024-06-21_14h09.25.790,LearnStrategy,2023.2.3,Win32,58.82352941,7,1,8,0.050370348,-0.006481459,1,0,0,0.6195,rock_grid_rect_2,1,9,-1,-1,0.62,0.392036947,-0.261111179,1,0,0,5.063,Gabbro_rect,4,5.063,0,7,0,7,0,1,,,,,,,,,,,,,
662ae132d482fb6744a3d8c0,TCR,2024-06-21_14h09.25.790,LearnStrategy,2023.2.3,Win32,58.82352941,7,1,9,0.021666734,0.012962986,1,0,0,1.3856,rock_grid_rect_2,7,6,-1,-1,1.386,0.120740696,-0.388888957,1,0,0,3.3301,Peridotite_rect,7,3.33,1,8,0,8,0,1,,,,,,,,,,,,,
662ae132d482fb6744a3d8c0,TCR,2024-06-21_14h09.25.790,LearnStrategy,2023.2.3,Win32,58.82352941,7,1,10,0.04759257,0.000925937,1,0,0,0.5701,rock_grid_rect_2,5,9,-1,-1,0.57,-0.394074097,-0.39722229,1,0,0,1.1279,Obsidian_rect,5,1.128,1,9,0,9,0,1,,,,,,,,,,,,,
662ae132d482fb6744a3d8c0,TCR,2024-06-21_14h09.25.790,LearnStrategy,2023.2.3,Win32,58.82352941,7,1,11,-0.013518541,0.011111111,1,0,0,0.7867,rock_grid_rect_2,5,8,-1,-1,0.787,-0.351481493,-0.393518473,1,0,0,1.1924,Obsidian_rect,5,1.192,1,10,0,10,0,1,,,,,,,,,,,,,
662ae132d482fb6744a3d8c0,TCR,2024-06-21_14h09.25.790,LearnStrategy,2023.2.3,Win32,58.82352941,7,1,12,0.009629584,0.006481493,1,0,0,0.955,rock_grid_rect_2,6,8,-1,-1,0.955,-0.133888821,-0.420370348,1,0,0,1.7585,Pegmatite_rect,6,1.758,1,11,0,11,0,1,,,,,,,,,,,,,
662ae132d482fb6744a3d8c0,TCR,2024-06-21_14h09.25.790,LearnStrategy,2023.2.3,Win32,58.82352941,7,1,13,0.05222229,-0.000925903,1,0,0,1.0682,rock_grid_rect_2,2,14,-1,-1,1.068,0.460555556,-0.26018514,1,0,0,1.6155,Gabbro_rect,4,1.615,0,12,0,12,0,1,,,,,,,,,,,,,
662ae132d482fb6744a3d8c0,TCR,2024-06-21_14h09.25.790,LearnStrategy,2023.2.3,Win32,58.82352941,7,1,14,0.048518473,0.014814826,1,0,0,0.887,rock_grid_rect_2,3,16,-1,-1,0.887,0.129074029,-0.263888957,1,0,0,1.1654,Diorite_rect,3,1.165,1,13,0,13,0,1,,,,,,,,,,,,,
662ae132d482fb6744a3d8c0,TCR,2024-06-21_14h09.25.790,LearnStrategy,2023.2.3,Win32,58.82352941,7,1,15,0.05222229,0.023148159,1,0,0,0.6798,rock_grid_rect_2,8,15,-1,-1,0.68,0.406851807,-0.41759257,1,0,0,1.4017,Pumice_rect,8,1.402,1,14,0,14,0,1,,,,,,,,,,,,,
662ae132d482fb6744a3d8c0,TCR,2024-06-21_14h09.25.790,LearnStrategy,2023.2.3,Win32,58.82352941,7,1,16,0.014259237,0.003703715,1,0,0,0.8525,rock_grid_rect_2,6,9,-1,-1,0.852,0.134629584,-0.387962918,1,0,0,1.848,Peridotite_rect,7,1.848,0,15,0,15,0,1,,,,,,,,,,,,,
662ae132d482fb6744a3d8c0,TCR,2024-06-21_14h09.25.790,LearnStrategy,2023.2.3,Win32,58.82352941,7,2,1,,,,,,,,7,2,,,,,,,,,,,7,1.949,1,,,,,,0.14018514,-0.388888957,1,0,0,1.9491,Peridotite_rect,0,0,0,0,1,
662ae132d482fb6744a3d8c0,TCR,2024-06-21_14h09.25.790,LearnStrategy,2023.2.3,Win32,58.82352941,7,2,2,,,,,,,,8,10,,,,,,,,,,,8,0.95,1,,,,,,0.36518514,-0.384259237,1,0,0,0.9499,Pumice_rect,1,0,1,0,1,
662ae132d482fb6744a3d8c0,TCR,2024-06-21_14h09.25.790,LearnStrategy,2023.2.3,Win32,58.82352941,7,2,3,,,,,,,,2,12,,,,,,,,,,,4,5.582,0,,,,,,0.412407362,-0.232407362,1,0,0,5.5822,Gabbro_rect,2,0,2,0,1,
662ae132d482fb6744a3d8c0,TCR,2024-06-21_14h09.25.790,LearnStrategy,2023.2.3,Win32,58.82352941,7,2,4,,,,,,,,6,7,,,,,,,,,,,6,1.092,1,,,,,,-0.113518541,-0.412962918,1,0,0,1.0923,Pegmatite_rect,3,0,3,0,1,
662ae132d482fb6744a3d8c0,TCR,2024-06-21_14h09.25.790,LearnStrategy,2023.2.3,Win32,58.82352941,7,2,5,,,,,,,,3,11,,,,,,,,,,,3,2.463,1,,,,,,0.142037014,-0.239814792,1,0,0,2.4633,Diorite_rect,4,0,4,0,1,
662ae132d482fb6744a3d8c0,TCR,2024-06-21_14h09.25.790,LearnStrategy,2023.2.3,Win32,58.82352941,7,2,6,,,,,,,,4,12,,,,,,,,,,,4,3.766,1,,,,,,0.391111111,-0.256481459,1,0,0,3.7663,Gabbro_rect,5,0,5,0,1,
662ae132d482fb6744a3d8c0,TCR,2024-06-21_14h09.25.790,LearnStrategy,2023.2.3,Win32,58.82352941,7,2,7,,,,,,,,4,16,,,,,,,,,,,4,1.083,1,,,,,,0.391111111,-0.256481459,1,0,0,1.083,Gabbro_rect,6,0,6,0,1,
662ae132d482fb6744a3d8c0,TCR,2024-06-21_14h09.25.790,LearnStrategy,2023.2.3,Win32,58.82352941,7,2,8,,,,,,,,8,5,,,,,,,,,,,8,1.012,1,,,,,,0.381851807,-0.409259237,1,0,0,1.0122,Pumice_rect,7,0,7,0,1,
662ae132d482fb6744a3d8c0,TCR,2024-06-21_14h09.25.790,LearnStrategy,2023.2.3,Win32,58.82352941,7,2,9,,,,,,,,3,15,,,,,,,,,,,1,3.88,0,,,,,,-0.325555556,-0.241666734,1,0,0,3.8805,Andesite_rect,8,0,8,0,1,
662ae132d482fb6744a3d8c0,TCR,2024-06-21_14h09.25.790,LearnStrategy,2023.2.3,Win32,58.82352941,7,2,10,,,,,,,,7,15,,,,,,,,,,,7,1.047,1,,,,,,0.148518473,-0.395370348,1,0,0,1.0473,Peridotite_rect,9,0,9,0,1,
662ae132d482fb6744a3d8c0,TCR,2024-06-21_14h09.25.790,LearnStrategy,2023.2.3,Win32,58.82352941,7,2,11,,,,,,,,1,1,,,,,,,,,,,4,2.419,0,,,,,,0.331851807,-0.243518473,1,0,0,2.4188,Gabbro_rect,10,0,10,0,1,
662ae132d482fb6744a3d8c0,TCR,2024-06-21_14h09.25.790,LearnStrategy,2023.2.3,Win32,58.82352941,7,2,12,,,,,,,,6,6,,,,,,,,,,,6,1.034,1,,,,,,-0.069999932,-0.399074029,1,0,0,1.0336,Pegmatite_rect,11,0,11,0,1,
662ae132d482fb6744a3d8c0,TCR,2024-06-21_14h09.25.790,LearnStrategy,2023.2.3,Win32,58.82352941,7,2,13,,,,,,,,1,6,,,,,,,,,,,1,1.851,1,,,,,,-0.411666667,-0.245370348,1,0,0,1.8514,Andesite_rect,12,0,12,0,1,
662ae132d482fb6744a3d8c0,TCR,2024-06-21_14h09.25.790,LearnStrategy,2023.2.3,Win32,58.82352941,7,2,14,,,,,,,,2,9,,,,,,,,,,,2,0.949,1,,,,,,-0.17277771,-0.244444512,1,0,0,0.9492,Basalt_rect,13,0,13,0,1,
662ae132d482fb6744a3d8c0,TCR,2024-06-21_14h09.25.790,LearnStrategy,2023.2.3,Win32,58.82352941,7,2,15,,,,,,,,5,5,,,,,,,,,,,5,1.114,1,,,,,,-0.329259271,-0.405555623,1,0,0,1.114,Obsidian_rect,14,0,14,0,1,
662ae132d482fb6744a3d8c0,TCR,2024-06-21_14h09.25.790,LearnStrategy,2023.2.3,Win32,58.82352941,7,2,16,,,,,,,,5,7,,,,,,,,,,,5,0.952,1,,,,,,-0.329259271,-0.395370348,1,0,0,0.9524,Obsidian_rect,15,0,15,0,1,
662ae132d482fb6744a3d8c0,TCR,2024-06-21_14h09.25.790,LearnStrategy,2023.2.3,Win32,58.82352941,8,1,1,-0.02277771,-0.014814792,1,0,0,1.0705,rock_grid_rect_2,5,12,-1,-1,1.071,-0.360740763,-0.400000068,1,0,0,1.1466,Obsidian_rect,5,1.147,1,0,0,0,0,1,,,,,,,,,,,,,
662ae132d482fb6744a3d8c0,TCR,2024-06-21_14h09.25.790,LearnStrategy,2023.2.3,Win32,58.82352941,8,1,2,0.016111179,0.015740763,1,0,0,0.8875,rock_grid_rect_2,8,4,-1,-1,0.888,0.392962918,-0.401851807,1,0,0,2.0967,Pumice_rect,8,2.097,1,1,0,1,0,1,,,,,,,,,,,,,
662ae132d482fb6744a3d8c0,TCR,2024-06-21_14h09.25.790,LearnStrategy,2023.2.3,Win32,58.82352941,8,1,3,-0.001481527,0.00740743,1,0,0,1.2229,rock_grid_rect_2,4,15,-1,-1,1.223,0.385555556,-0.236111179,1,0,0,1.8519,Gabbro_rect,4,1.852,1,2,0,2,0,1,,,,,,,,,,,,,
662ae132d482fb6744a3d8c0,TCR,2024-06-21_14h09.25.790,LearnStrategy,2023.2.3,Win32,58.82352941,8,1,4,0.030000068,-0.012037014,1,0,0,0.7505,rock_grid_rect_2,1,16,-1,-1,0.751,-0.384814826,-0.259259237,1,0,0,1.3002,Andesite_rect,1,1.3,1,3,0,3,0,1,,,,,,,,,,,,,
662ae132d482fb6744a3d8c0,TCR,2024-06-21_14h09.25.790,LearnStrategy,2023.2.3,Win32,58.82352941,8,1,5,0.003148126,-0.021296285,1,0,0,0.8034,rock_grid_rect_2,2,6,-1,-1,0.803,-0.119999932,-0.262962918,1,0,0,0.932,Basalt_rect,2,0.932,1,4,0,4,0,1,,,,,,,,,,,,,
662ae132d482fb6744a3d8c0,TCR,2024-06-21_14h09.25.790,LearnStrategy,2023.2.3,Win32,58.82352941,8,1,6,0.00222229,-0.006481459,1,0,0,0.6008,rock_grid_rect_2,5,4,-1,-1,0.601,-0.368148159,-0.403703681,1,0,0,0.947,Obsidian_rect,5,0.947,1,5,0,5,0,1,,,,,,,,,,,,,
662ae132d482fb6744a3d8c0,TCR,2024-06-21_14h09.25.790,LearnStrategy,2023.2.3,Win32,58.82352941,8,1,7,0.042962918,-0.010185174,1,0,0,0.5722,rock_grid_rect_2,8,2,-1,-1,0.572,0.383703613,-0.400925903,1,0,0,1.0077,Pumice_rect,8,1.008,1,6,0,6,0,1,,,,,,,,,,,,,
662ae132d482fb6744a3d8c0,TCR,2024-06-21_14h09.25.790,LearnStrategy,2023.2.3,Win32,58.82352941,8,1,8,0.033703681,-0.002777778,1,0,0,0.5976,rock_grid_rect_2,6,5,-1,-1,0.598,-0.131111043,-0.414814792,1,0,0,1.9682,Pegmatite_rect,6,1.968,1,7,0,7,0,1,,,,,,,,,,,,,
662ae132d482fb6744a3d8c0,TCR,2024-06-21_14h09.25.790,LearnStrategy,2023.2.3,Win32,58.82352941,8,1,9,0.025370348,0.002777778,1,0,0,0.5672,rock_grid_rect_2,6,3,-1,-1,0.567,-0.108888821,-0.41018514,1,0,0,1.6302,Pegmatite_rect,6,1.63,1,8,0,8,0,1,,,,,,,,,,,,,
662ae132d482fb6744a3d8c0,TCR,2024-06-21_14h09.25.790,LearnStrategy,2023.2.3,Win32,58.82352941,8,1,10,0.035555623,-0.000925903,1,0,0,0.7505,rock_grid_rect_2,4,3,-1,-1,0.751,-0.37740743,-0.254629584,1,0,0,1.2642,Andesite_rect,1,1.264,0,9,0,9,0,1,,,,,,,,,,,,,
662ae132d482fb6744a3d8c0,TCR,2024-06-21_14h09.25.790,LearnStrategy,2023.2.3,Win32,58.82352941,8,1,11,0.004074029,0.022222222,1,0,0,0.6375,rock_grid_rect_2,7,10,-1,-1,0.638,0.128148126,-0.381481459,1,0,0,0.9931,Peridotite_rect,7,0.993,1,10,0,10,0,1,,,,,,,,,,,,,
662ae132d482fb6744a3d8c0,TCR,2024-06-21_14h09.25.790,LearnStrategy,2023.2.3,Win32,58.82352941,8,1,12,0.029074029,-0.010185174,1,0,0,0.8594,rock_grid_rect_2,3,8,-1,-1,0.859,0.145740696,-0.255555623,1,0,0,5.6507,Diorite_rect,3,5.651,1,11,0,11,0,1,,,,,,,,,,,,,
662ae132d482fb6744a3d8c0,TCR,2024-06-21_14h09.25.790,LearnStrategy,2023.2.3,Win32,58.82352941,8,1,13,0.045740696,-0.011111111,1,0,0,0.8671,rock_grid_rect_2,2,11,-1,-1,0.867,0.469814724,-0.256481459,1,0,0,3.3963,Gabbro_rect,4,3.396,0,12,0,12,0,1,,,,,,,,,,,,,
662ae132d482fb6744a3d8c0,TCR,2024-06-21_14h09.25.790,LearnStrategy,2023.2.3,Win32,58.82352941,8,1,14,0.073518473,0,1,0,0,0.6143,rock_grid_rect_2,3,10,-1,-1,0.614,0.14759257,-0.26018514,1,0,0,1.5855,Diorite_rect,3,1.586,1,13,0,13,0,1,,,,,,,,,,,,,
662ae132d482fb6744a3d8c0,TCR,2024-06-21_14h09.25.790,LearnStrategy,2023.2.3,Win32,58.82352941,8,1,15,0.087407362,-0.01759257,1,0,0,0.5695,rock_grid_rect_2,1,14,-1,-1,0.57,-0.331111111,-0.253703681,1,0,0,5.2792,Andesite_rect,1,5.279,1,14,0,14,0,1,,,,,,,,,,,,,
662ae132d482fb6744a3d8c0,TCR,2024-06-21_14h09.25.790,LearnStrategy,2023.2.3,Win32,58.82352941,8,1,16,0.055925903,-0.010185174,1,0,0,0.8507,rock_grid_rect_2,7,4,-1,-1,0.851,0.204074029,-0.403703681,1,0,0,0.9811,Peridotite_rect,7,0.981,1,15,0,15,0,1,,,,,,,,,,,,,
662ae132d482fb6744a3d8c0,TCR,2024-06-21_14h09.25.790,LearnStrategy,2023.2.3,Win32,58.82352941,8,2,1,,,,,,,,7,16,,,,,,,,,,,7,1.102,1,,,,,,0.180925903,-0.414814792,1,0,0,1.1016,Peridotite_rect,0,0,0,0,1,
662ae132d482fb6744a3d8c0,TCR,2024-06-21_14h09.25.790,LearnStrategy,2023.2.3,Win32,58.82352941,8,2,2,,,,,,,,6,16,,,,,,,,,,,6,1.385,1,,,,,,-0.098703749,-0.398148126,1,0,0,1.3851,Pegmatite_rect,1,0,1,0,1,
662ae132d482fb6744a3d8c0,TCR,2024-06-21_14h09.25.790,LearnStrategy,2023.2.3,Win32,58.82352941,8,2,3,,,,,,,,4,14,,,,,,,,,,,4,1.15,1,,,,,,0.437407362,-0.271296251,1,0,0,1.1498,Gabbro_rect,2,0,2,0,1,
662ae132d482fb6744a3d8c0,TCR,2024-06-21_14h09.25.790,LearnStrategy,2023.2.3,Win32,58.82352941,8,2,4,,,,,,,,2,8,,,,,,,,,,,2,1.085,1,,,,,,-0.106111043,-0.240740696,1,0,0,1.0847,Basalt_rect,3,0,3,0,1,
662ae132d482fb6744a3d8c0,TCR,2024-06-21_14h09.25.790,LearnStrategy,2023.2.3,Win32,58.82352941,8,2,5,,,,,,,,5,16,,,,,,,,,,,5,1.094,1,,,,,,-0.392222222,-0.378703681,1,0,0,1.0938,Obsidian_rect,4,0,4,0,1,
662ae132d482fb6744a3d8c0,TCR,2024-06-21_14h09.25.790,LearnStrategy,2023.2.3,Win32,58.82352941,8,2,6,,,,,,,,8,14,,,,,,,,,,,8,0.949,1,,,,,,0.408703613,-0.400925903,1,0,0,0.9494,Pumice_rect,5,0,5,0,1,
662ae132d482fb6744a3d8c0,TCR,2024-06-21_14h09.25.790,LearnStrategy,2023.2.3,Win32,58.82352941,8,2,7,,,,,,,,5,2,,,,,,,,,,,5,0.916,1,,,,,,-0.485740763,-0.411111179,1,0,0,0.916,Obsidian_rect,6,0,6,0,1,
662ae132d482fb6744a3d8c0,TCR,2024-06-21_14h09.25.790,LearnStrategy,2023.2.3,Win32,58.82352941,8,2,8,,,,,,,,7,13,,,,,,,,,,,7,0.931,1,,,,,,0.146666667,-0.396296251,1,0,0,0.9314,Peridotite_rect,7,0,7,0,1,
662ae132d482fb6744a3d8c0,TCR,2024-06-21_14h09.25.790,LearnStrategy,2023.2.3,Win32,58.82352941,8,2,9,,,,,,,,6,13,,,,,,,,,,,6,1.463,1,,,,,,-0.153333266,-0.388888957,1,0,0,1.4627,Pegmatite_rect,8,0,8,0,1,
662ae132d482fb6744a3d8c0,TCR,2024-06-21_14h09.25.790,LearnStrategy,2023.2.3,Win32,58.82352941,8,2,10,,,,,,,,1,3,,,,,,,,,,,1,1.466,1,,,,,,-0.35240743,-0.24722229,1,0,0,1.4662,Andesite_rect,9,0,9,0,1,
662ae132d482fb6744a3d8c0,TCR,2024-06-21_14h09.25.790,LearnStrategy,2023.2.3,Win32,58.82352941,8,2,11,,,,,,,,1,10,,,,,,,,,,,4,2.297,0,,,,,,0.402222222,-0.263888957,1,0,0,2.2967,Gabbro_rect,10,0,10,0,1,
662ae132d482fb6744a3d8c0,TCR,2024-06-21_14h09.25.790,LearnStrategy,2023.2.3,Win32,58.82352941,8,2,12,,,,,,,,4,5,,,,,,,,,,,4,4.264,1,,,,,,0.402222222,-0.263888957,1,0,0,4.264,Gabbro_rect,11,0,11,0,1,
662ae132d482fb6744a3d8c0,TCR,2024-06-21_14h09.25.790,LearnStrategy,2023.2.3,Win32,58.82352941,8,2,13,,,,,,,,3,14,,,,,,,,,,,3,1.445,1,,,,,,0.154074029,-0.24722229,1,0,0,1.4454,Diorite_rect,12,0,12,0,1,
662ae132d482fb6744a3d8c0,TCR,2024-06-21_14h09.25.790,LearnStrategy,2023.2.3,Win32,58.82352941,8,2,14,,,,,,,,8,8,,,,,,,,,,,8,2.398,1,,,,,,0.377222222,-0.391666734,1,0,0,2.3978,Pumice_rect,13,0,13,0,1,
662ae132d482fb6744a3d8c0,TCR,2024-06-21_14h09.25.790,LearnStrategy,2023.2.3,Win32,58.82352941,8,2,15,,,,,,,,3,13,,,,,,,,,,,3,3.545,1,,,,,,0.114259237,-0.250925903,1,0,0,3.5448,Diorite_rect,14,0,14,0,1,
662ae132d482fb6744a3d8c0,TCR,2024-06-21_14h09.25.790,LearnStrategy,2023.2.3,Win32,58.82352941,8,2,16,,,,,,,,2,2,,,,,,,,,,,2,1.338,1,,,,,,-0.193148193,-0.24722229,1,0,0,1.3377,Basalt_rect,15,0,15,0,1,
662ae132d482fb6744a3d8c0,TCR,2024-06-21_14h09.25.790,LearnStrategy,2023.2.3,Win32,58.82352941,9,1,1,-0.011666599,0.003703715,1,0,0,1.4125,rock_grid_rect_2,4,1,-1,-1,1.412,0.392962918,-0.24722229,1,0,0,13.2654,Gabbro_rect,4,13.265,1,0,0,0,0,1,,,,,,,,,,,,,
662ae132d482fb6744a3d8c0,TCR,2024-06-21_14h09.25.790,LearnStrategy,2023.2.3,Win32,58.82352941,9,1,2,0.017037014,0.018518541,1,0,0,0.8508,rock_grid_rect_2,7,14,-1,-1,0.851,0.155925903,-0.396296251,1,0,0,2.047,Peridotite_rect,7,2.047,1,1,0,1,0,1,,,,,,,,,,,,,
662ae132d482fb6744a3d8c0,TCR,2024-06-21_14h09.25.790,LearnStrategy,2023.2.3,Win32,58.82352941,9,1,3,0.06518514,0.000925937,1,0,0,1.102,rock_grid_rect_2,1,5,-1,-1,1.102,-0.407962986,-0.263888957,1,0,0,2.4303,Andesite_rect,1,2.43,1,2,0,2,0,1,,,,,,,,,,,,,
662ae132d482fb6744a3d8c0,TCR,2024-06-21_14h09.25.790,LearnStrategy,2023.2.3,Win32,58.82352941,9,1,4,0.005925903,-0.008333333,1,0,0,1.0147,rock_grid_rect_2,2,1,-1,-1,1.015,-0.092222154,-0.246296251,1,0,0,2.1516,Basalt_rect,2,2.152,1,3,0,3,0,1,,,,,,,,,,,,,
662ae132d482fb6744a3d8c0,TCR,2024-06-21_14h09.25.790,LearnStrategy,2023.2.3,Win32,58.82352941,9,1,5,0.031851807,0.001851874,1,0,0,0.9028,rock_grid_rect_2,5,11,-1,-1,0.903,-0.37740743,-0.411111179,1,0,0,0.9335,Obsidian_rect,5,0.934,1,4,0,4,0,1,,,,,,,,,,,,,
662ae132d482fb6744a3d8c0,TCR,2024-06-21_14h09.25.790,LearnStrategy,2023.2.3,Win32,58.82352941,9,1,6,-0.011666599,-0.01759257,1,0,0,0.6879,rock_grid_rect_2,5,6,-1,-1,0.688,-0.345,-0.391666734,1,0,0,1.0921,Obsidian_rect,5,1.092,1,5,0,5,0,1,,,,,,,,,,,,,
662ae132d482fb6744a3d8c0,TCR,2024-06-21_14h09.25.790,LearnStrategy,2023.2.3,Win32,58.82352941,9,1,7,0.017962918,-0.004629618,1,0,0,0.6006,rock_grid_rect_2,6,15,-1,-1,0.601,-0.088518541,-0.399074029,1,0,0,0.9277,Pegmatite_rect,6,0.928,1,6,0,6,0,1,,,,,,,,,,,,,
662ae132d482fb6744a3d8c0,TCR,2024-06-21_14h09.25.790,LearnStrategy,2023.2.3,Win32,58.82352941,9,1,8,0.061481459,0.002777778,1,0,0,0.6644,rock_grid_rect_2,6,11,-1,-1,0.664,-0.075555488,-0.389814792,1,0,0,0.9519,Pegmatite_rect,6,0.952,1,7,0,7,0,1,,,,,,,,,,,,,
662ae132d482fb6744a3d8c0,TCR,2024-06-21_14h09.25.790,LearnStrategy,2023.2.3,Win32,58.82352941,9,1,9,0.038333401,0.006481493,1,0,0,0.6027,rock_grid_rect_2,4,10,-1,-1,0.603,0.410555556,-0.256481459,1,0,0,2.0627,Gabbro_rect,4,2.063,1,8,0,8,0,1,,,,,,,,,,,,,
662ae132d482fb6744a3d8c0,TCR,2024-06-21_14h09.25.790,LearnStrategy,2023.2.3,Win32,58.82352941,9,1,10,0.076296251,-0.025,1,0,0,0.6198,rock_grid_rect_2,8,16,-1,-1,0.62,0.364259169,-0.401851807,1,0,0,1.0968,Pumice_rect,8,1.097,1,9,0,9,0,1,,,,,,,,,,,,,
662ae132d482fb6744a3d8c0,TCR,2024-06-21_14h09.25.790,LearnStrategy,2023.2.3,Win32,58.82352941,9,1,11,0.055000068,-0.009259237,1,0,0,0.6047,rock_grid_rect_2,1,2,-1,-1,0.605,-0.388518541,-0.265740696,1,0,0,3.1741,Andesite_rect,1,3.174,1,10,0,10,0,1,,,,,,,,,,,,,
662ae132d482fb6744a3d8c0,TCR,2024-06-21_14h09.25.790,LearnStrategy,2023.2.3,Win32,58.82352941,9,1,12,0.084629584,0.014814826,1,0,0,0.7378,rock_grid_rect_2,3,9,-1,-1,0.738,0.131851807,-0.237037014,1,0,0,1.1972,Diorite_rect,3,1.197,1,11,0,11,0,1,,,,,,,,,,,,,
662ae132d482fb6744a3d8c0,TCR,2024-06-21_14h09.25.790,LearnStrategy,2023.2.3,Win32,58.82352941,9,1,13,0.02259257,0.008333333,1,0,0,0.5873,rock_grid_rect_2,3,6,-1,-1,0.587,0.171666667,-0.252777846,1,0,0,2.3135,Diorite_rect,3,2.313,1,12,0,12,0,1,,,,,,,,,,,,,
662ae132d482fb6744a3d8c0,TCR,2024-06-21_14h09.25.790,LearnStrategy,2023.2.3,Win32,58.82352941,9,1,14,0.089259237,-0.014814792,1,0,0,0.6529,rock_grid_rect_2,2,10,-1,-1,0.653,-0.111666599,-0.262962918,1,0,0,0.9972,Basalt_rect,2,0.997,1,13,0,13,0,1,,,,,,,,,,,,,
662ae132d482fb6744a3d8c0,TCR,2024-06-21_14h09.25.790,LearnStrategy,2023.2.3,Win32,58.82352941,9,1,15,0.096666667,-0.011111111,1,0,0,0.5835,rock_grid_rect_2,7,12,-1,-1,0.583,0.169814792,-0.411111179,1,0,0,1.3647,Peridotite_rect,7,1.365,1,14,0,14,0,1,,,,,,,,,,,,,
662ae132d482fb6744a3d8c0,TCR,2024-06-21_14h09.25.790,LearnStrategy,2023.2.3,Win32,58.82352941,9,1,16,0.081851807,-0.012037014,1,0,0,0.554,rock_grid_rect_2,8,3,-1,-1,0.554,0.423518473,-0.399074029,1,0,0,1.6613,Pumice_rect,8,1.661,1,15,0,15,0,1,,,,,,,,,,,,,
662ae132d482fb6744a3d8c0,TCR,2024-06-21_14h09.25.790,LearnStrategy,2023.2.3,Win32,58.82352941,9,2,1,,,,,,,,1,7,,,,,,,,,,,3,4.778,0,,,,,,0.148518473,-0.256481459,1,0,0,4.7779,Diorite_rect,0,0,0,0,1,
662ae132d482fb6744a3d8c0,TCR,2024-06-21_14h09.25.790,LearnStrategy,2023.2.3,Win32,58.82352941,9,2,2,,,,,,,,4,11,,,,,,,,,,,2,3.255,0,,,,,,-0.138518541,-0.23518514,1,0,0,3.2547,Basalt_rect,1,0,1,0,1,
662ae132d482fb6744a3d8c0,TCR,2024-06-21_14h09.25.790,LearnStrategy,2023.2.3,Win32,58.82352941,9,2,3,,,,,,,,2,16,,,,,,,,,,,4,1.409,0,,,,,,0.361481391,-0.240740696,1,0,0,1.4086,Gabbro_rect,2,0,2,0,1,
662ae132d482fb6744a3d8c0,TCR,2024-06-21_14h09.25.790,LearnStrategy,2023.2.3,Win32,58.82352941,9,2,4,,,,,,,,1,11,,,,,,,,,,,1,3.328,1,,,,,,-0.448703715,-0.24722229,1,0,0,3.3281,Andesite_rect,3,0,3,0,1,
662ae132d482fb6744a3d8c0,TCR,2024-06-21_14h09.25.790,LearnStrategy,2023.2.3,Win32,58.82352941,9,2,5,,,,,,,,7,8,,,,,,,,,,,7,1.04,1,,,,,,0.126296251,-0.404629584,1,0,0,1.0402,Peridotite_rect,4,0,4,0,1,
662ae132d482fb6744a3d8c0,TCR,2024-06-21_14h09.25.790,LearnStrategy,2023.2.3,Win32,58.82352941,9,2,6,,,,,,,,6,12,,,,,,,,,,,6,1.029,1,,,,,,-0.221851874,-0.399074029,1,0,0,1.0291,Pegmatite_rect,5,0,5,0,1,
662ae132d482fb6744a3d8c0,TCR,2024-06-21_14h09.25.790,LearnStrategy,2023.2.3,Win32,58.82352941,9,2,7,,,,,,,,3,12,,,,,,,,,,,3,2.29,1,,,,,,0.12259257,-0.258333401,1,0,0,2.2899,Diorite_rect,6,0,6,0,1,
662ae132d482fb6744a3d8c0,TCR,2024-06-21_14h09.25.790,LearnStrategy,2023.2.3,Win32,58.82352941,9,2,8,,,,,,,,6,10,,,,,,,,,,,6,1.529,1,,,,,,-0.144074097,-0.380555623,1,0,0,1.5291,Pegmatite_rect,7,0,7,0,1,
662ae132d482fb6744a3d8c0,TCR,2024-06-21_14h09.25.790,LearnStrategy,2023.2.3,Win32,58.82352941,9,2,9,,,,,,,,8,9,,,,,,,,,,,8,1.012,1,,,,,,0.392962918,-0.415740696,1,0,0,1.0123,Pumice_rect,8,0,8,0,1,
662ae132d482fb6744a3d8c0,TCR,2024-06-21_14h09.25.790,LearnStrategy,2023.2.3,Win32,58.82352941,9,2,10,,,,,,,,5,14,,,,,,,,,,,5,0.944,1,,,,,,-0.401481493,-0.387962918,1,0,0,0.9438,Obsidian_rect,9,0,9,0,1,
662ae132d482fb6744a3d8c0,TCR,2024-06-21_14h09.25.790,LearnStrategy,2023.2.3,Win32,58.82352941,9,2,11,,,,,,,,5,10,,,,,,,,,,,5,0.692,1,,,,,,-0.400555556,-0.386111179,1,0,0,0.6919,Obsidian_rect,10,0,10,0,1,
662ae132d482fb6744a3d8c0,TCR,2024-06-21_14h09.25.790,LearnStrategy,2023.2.3,Win32,58.82352941,9,2,12,,,,,,,,2,5,,,,,,,,,,,2,1.024,1,,,,,,-0.137592638,-0.250000068,1,0,0,1.0238,Basalt_rect,11,0,11,0,1,
662ae132d482fb6744a3d8c0,TCR,2024-06-21_14h09.25.790,LearnStrategy,2023.2.3,Win32,58.82352941,9,2,13,,,,,,,,8,6,,,,,,,,,,,8,1.107,1,,,,,,0.409629584,-0.412962918,1,0,0,1.1072,Pumice_rect,12,0,12,0,1,
662ae132d482fb6744a3d8c0,TCR,2024-06-21_14h09.25.790,LearnStrategy,2023.2.3,Win32,58.82352941,9,2,14,,,,,,,,4,13,,,,,,,,,,,4,1.527,1,,,,,,0.363333333,-0.255555623,1,0,0,1.5269,Gabbro_rect,13,0,13,0,1,
662ae132d482fb6744a3d8c0,TCR,2024-06-21_14h09.25.790,LearnStrategy,2023.2.3,Win32,58.82352941,9,2,15,,,,,,,,7,5,,,,,,,,,,,7,2.346,1,,,,,,0.063333333,-0.407407362,1,0,0,2.3455,Peridotite_rect,14,0,14,0,1,
662ae132d482fb6744a3d8c0,TCR,2024-06-21_14h09.25.790,LearnStrategy,2023.2.3,Win32,58.82352941,9,2,16,,,,,,,,3,2,,,,,,,,,,,3,1.862,1,,,,,,0.12259257,-0.263888957,1,0,0,1.8622,Diorite_rect,15,0,15,0,1,
662ae132d482fb6744a3d8c0,TCR,2024-06-21_14h09.25.790,LearnStrategy,2023.2.3,Win32,58.82352941,,,,,,,,,,,,,,,,,,,,,,,,,,,,,,,,,,,,,,,,,,,1
662ae132d482fb6744a3d8c0,TCR,2024-06-21_14h09.25.790,LearnStrategy,2023.2.3,Win32,58.82352941,,,,,,,,,,,,,,,,,,,,,,,,,,,,,,,,,,,,,,,,,,,
662ae132d482fb6744a3d8c0,TCR,2024-06-21_14h09.25.790,LearnStrategy,2023.2.3,Win32,58.82352941,,,,,,,,,,,4,3,1,1,,,,,,,,,,,,,,,,,,,,,,,,,,,,,
662ae132d482fb6744a3d8c0,TCR,2024-06-21_14h09.25.790,LearnStrategy,2023.2.3,Win32,58.82352941,,,,,,,,,,,5,12,1,2,,,,,,,,,,,,,,,,,,,,,,,,,,,,,
662ae132d482fb6744a3d8c0,TCR,2024-06-21_14h09.25.790,LearnStrategy,2023.2.3,Win32,58.82352941,,,,,,,,,,,2,14,1,3,,,,,,,,,,,,,,,,,,,,,,,,,,,,,
662ae132d482fb6744a3d8c0,TCR,2024-06-21_14h09.25.790,LearnStrategy,2023.2.3,Win32,58.82352941,,,,,,,,,,,4,15,1,4,,,,,,,,,,,,,,,,,,,,,,,,,,,,,
662ae132d482fb6744a3d8c0,TCR,2024-06-21_14h09.25.790,LearnStrategy,2023.2.3,Win32,58.82352941,,,,,,,,,,,6,15,1,5,,,,,,,,,,,,,,,,,,,,,,,,,,,,,
662ae132d482fb6744a3d8c0,TCR,2024-06-21_14h09.25.790,LearnStrategy,2023.2.3,Win32,58.82352941,,,,,,,,,,,2,11,1,6,,,,,,,,,,,,,,,,,,,,,,,,,,,,,
662ae132d482fb6744a3d8c0,TCR,2024-06-21_14h09.25.790,LearnStrategy,2023.2.3,Win32,58.82352941,,,,,,,,,,,1,9,1,7,,,,,,,,,,,,,,,,,,,,,,,,,,,,,
662ae132d482fb6744a3d8c0,TCR,2024-06-21_14h09.25.790,LearnStrategy,2023.2.3,Win32,58.82352941,,,,,,,,,,,1,16,1,8,,,,,,,,,,,,,,,,,,,,,,,,,,,,,
662ae132d482fb6744a3d8c0,TCR,2024-06-21_14h09.25.790,LearnStrategy,2023.2.3,Win32,58.82352941,,,,,,,,,,,8,2,2,1,,,,,,,,,,,,,,,,,,,,,,,,,,,,,
662ae132d482fb6744a3d8c0,TCR,2024-06-21_14h09.25.790,LearnStrategy,2023.2.3,Win32,58.82352941,,,,,,,,,,,3,8,2,2,,,,,,,,,,,,,,,,,,,,,,,,,,,,,
662ae132d482fb6744a3d8c0,TCR,2024-06-21_14h09.25.790,LearnStrategy,2023.2.3,Win32,58.82352941,,,,,,,,,,,2,1,2,3,,,,,,,,,,,,,,,,,,,,,,,,,,,,,
662ae132d482fb6744a3d8c0,TCR,2024-06-21_14h09.25.790,LearnStrategy,2023.2.3,Win32,58.82352941,,,,,,,,,,,7,7,2,4,,,,,,,,,,,,,,,,,,,,,,,,,,,,,
662ae132d482fb6744a3d8c0,TCR,2024-06-21_14h09.25.790,LearnStrategy,2023.2.3,Win32,58.82352941,,,,,,,,,,,7,6,2,5,,,,,,,,,,,,,,,,,,,,,,,,,,,,,
662ae132d482fb6744a3d8c0,TCR,2024-06-21_14h09.25.790,LearnStrategy,2023.2.3,Win32,58.82352941,,,,,,,,,,,3,6,2,6,,,,,,,,,,,,,,,,,,,,,,,,,,,,,
662ae132d482fb6744a3d8c0,TCR,2024-06-21_14h09.25.790,LearnStrategy,2023.2.3,Win32,58.82352941,,,,,,,,,,,8,16,2,7,,,,,,,,,,,,,,,,,,,,,,,,,,,,,
662ae132d482fb6744a3d8c0,TCR,2024-06-21_14h09.25.790,LearnStrategy,2023.2.3,Win32,58.82352941,,,,,,,,,,,3,10,2,8,,,,,,,,,,,,,,,,,,,,,,,,,,,,,
662ae132d482fb6744a3d8c0,TCR,2024-06-21_14h09.25.790,LearnStrategy,2023.2.3,Win32,58.82352941,,,,,,,,,,,3,9,3,1,,,,,,,,,,,,,,,,,,,,,,,,,,,,,
662ae132d482fb6744a3d8c0,TCR,2024-06-21_14h09.25.790,LearnStrategy,2023.2.3,Win32,58.82352941,,,,,,,,,,,2,4,3,2,,,,,,,,,,,,,,,,,,,,,,,,,,,,,
662ae132d482fb6744a3d8c0,TCR,2024-06-21_14h09.25.790,LearnStrategy,2023.2.3,Win32,58.82352941,,,,,,,,,,,1,4,3,3,,,,,,,,,,,,,,,,,,,,,,,,,,,,,
662ae132d482fb6744a3d8c0,TCR,2024-06-21_14h09.25.790,LearnStrategy,2023.2.3,Win32,58.82352941,,,,,,,,,,,6,9,3,4,,,,,,,,,,,,,,,,,,,,,,,,,,,,,
662ae132d482fb6744a3d8c0,TCR,2024-06-21_14h09.25.790,LearnStrategy,2023.2.3,Win32,58.82352941,,,,,,,,,,,4,9,3,5,,,,,,,,,,,,,,,,,,,,,,,,,,,,,
662ae132d482fb6744a3d8c0,TCR,2024-06-21_14h09.25.790,LearnStrategy,2023.2.3,Win32,58.82352941,,,,,,,,,,,6,11,3,6,,,,,,,,,,,,,,,,,,,,,,,,,,,,,
662ae132d482fb6744a3d8c0,TCR,2024-06-21_14h09.25.790,LearnStrategy,2023.2.3,Win32,58.82352941,,,,,,,,,,,4,8,3,7,,,,,,,,,,,,,,,,,,,,,,,,,,,,,
662ae132d482fb6744a3d8c0,TCR,2024-06-21_14h09.25.790,LearnStrategy,2023.2.3,Win32,58.82352941,,,,,,,,,,,3,7,3,8,,,,,,,,,,,,,,,,,,,,,,,,,,,,,
662ae132d482fb6744a3d8c0,TCR,2024-06-21_14h09.25.790,LearnStrategy,2023.2.3,Win32,58.82352941,,,,,,,,,,,6,8,4,1,,,,,,,,,,,,,,,,,,,,,,,,,,,,,
662ae132d482fb6744a3d8c0,TCR,2024-06-21_14h09.25.790,LearnStrategy,2023.2.3,Win32,58.82352941,,,,,,,,,,,7,14,4,2,,,,,,,,,,,,,,,,,,,,,,,,,,,,,
662ae132d482fb6744a3d8c0,TCR,2024-06-21_14h09.25.790,LearnStrategy,2023.2.3,Win32,58.82352941,,,,,,,,,,,4,1,4,3,,,,,,,,,,,,,,,,,,,,,,,,,,,,,
662ae132d482fb6744a3d8c0,TCR,2024-06-21_14h09.25.790,LearnStrategy,2023.2.3,Win32,58.82352941,,,,,,,,,,,8,13,4,4,,,,,,,,,,,,,,,,,,,,,,,,,,,,,
662ae132d482fb6744a3d8c0,TCR,2024-06-21_14h09.25.790,LearnStrategy,2023.2.3,Win32,58.82352941,,,,,,,,,,,5,4,4,5,,,,,,,,,,,,,,,,,,,,,,,,,,,,,
662ae132d482fb6744a3d8c0,TCR,2024-06-21_14h09.25.790,LearnStrategy,2023.2.3,Win32,58.82352941,,,,,,,,,,,6,5,4,6,,,,,,,,,,,,,,,,,,,,,,,,,,,,,
662ae132d482fb6744a3d8c0,TCR,2024-06-21_14h09.25.790,LearnStrategy,2023.2.3,Win32,58.82352941,,,,,,,,,,,8,4,4,7,,,,,,,,,,,,,,,,,,,,,,,,,,,,,
662ae132d482fb6744a3d8c0,TCR,2024-06-21_14h09.25.790,LearnStrategy,2023.2.3,Win32,58.82352941,,,,,,,,,,,7,12,4,8,,,,,,,,,,,,,,,,,,,,,,,,,,,,,
662ae132d482fb6744a3d8c0,TCR,2024-06-21_14h09.25.790,LearnStrategy,2023.2.3,Win32,58.82352941,,,,,,,,,,,2,6,5,1,,,,,,,,,,,,,,,,,,,,,,,,,,,,,
662ae132d482fb6744a3d8c0,TCR,2024-06-21_14h09.25.790,LearnStrategy,2023.2.3,Win32,58.82352941,,,,,,,,,,,1,14,5,2,,,,,,,,,,,,,,,,,,,,,,,,,,,,,
662ae132d482fb6744a3d8c0,TCR,2024-06-21_14h09.25.790,LearnStrategy,2023.2.3,Win32,58.82352941,,,,,,,,,,,2,10,5,3,,,,,,,,,,,,,,,,,,,,,,,,,,,,,
662ae132d482fb6744a3d8c0,TCR,2024-06-21_14h09.25.790,LearnStrategy,2023.2.3,Win32,58.82352941,,,,,,,,,,,1,5,5,4,,,,,,,,,,,,,,,,,,,,,,,,,,,,,
662ae132d482fb6744a3d8c0,TCR,2024-06-21_14h09.25.790,LearnStrategy,2023.2.3,Win32,58.82352941,,,,,,,,,,,1,2,5,5,,,,,,,,,,,,,,,,,,,,,,,,,,,,,
662ae132d482fb6744a3d8c0,TCR,2024-06-21_14h09.25.790,LearnStrategy,2023.2.3,Win32,58.82352941,,,,,,,,,,,5,8,5,6,,,,,,,,,,,,,,,,,,,,,,,,,,,,,
662ae132d482fb6744a3d8c0,TCR,2024-06-21_14h09.25.790,LearnStrategy,2023.2.3,Win32,58.82352941,,,,,,,,,,,8,15,5,7,,,,,,,,,,,,,,,,,,,,,,,,,,,,,
662ae132d482fb6744a3d8c0,TCR,2024-06-21_14h09.25.790,LearnStrategy,2023.2.3,Win32,58.82352941,,,,,,,,,,,8,3,5,8,,,,,,,,,,,,,,,,,,,,,,,,,,,,,
662ae132d482fb6744a3d8c0,TCR,2024-06-21_14h09.25.790,LearnStrategy,2023.2.3,Win32,58.82352941,,,,,,,,,,,5,9,6,1,,,,,,,,,,,,,,,,,,,,,,,,,,,,,
662ae132d482fb6744a3d8c0,TCR,2024-06-21_14h09.25.790,LearnStrategy,2023.2.3,Win32,58.82352941,,,,,,,,,,,5,6,6,2,,,,,,,,,,,,,,,,,,,,,,,,,,,,,
662ae132d482fb6744a3d8c0,TCR,2024-06-21_14h09.25.790,LearnStrategy,2023.2.3,Win32,58.82352941,,,,,,,,,,,3,16,6,3,,,,,,,,,,,,,,,,,,,,,,,,,,,,,
662ae132d482fb6744a3d8c0,TCR,2024-06-21_14h09.25.790,LearnStrategy,2023.2.3,Win32,58.82352941,,,,,,,,,,,6,3,6,4,,,,,,,,,,,,,,,,,,,,,,,,,,,,,
662ae132d482fb6744a3d8c0,TCR,2024-06-21_14h09.25.790,LearnStrategy,2023.2.3,Win32,58.82352941,,,,,,,,,,,4,10,6,5,,,,,,,,,,,,,,,,,,,,,,,,,,,,,
662ae132d482fb6744a3d8c0,TCR,2024-06-21_14h09.25.790,LearnStrategy,2023.2.3,Win32,58.82352941,,,,,,,,,,,7,10,6,6,,,,,,,,,,,,,,,,,,,,,,,,,,,,,
662ae132d482fb6744a3d8c0,TCR,2024-06-21_14h09.25.790,LearnStrategy,2023.2.3,Win32,58.82352941,,,,,,,,,,,5,11,6,7,,,,,,,,,,,,,,,,,,,,,,,,,,,,,
662ae132d482fb6744a3d8c0,TCR,2024-06-21_14h09.25.790,LearnStrategy,2023.2.3,Win32,58.82352941,,,,,,,,,,,7,4,6,8,,,,,,,,,,,,,,,,,,,,,,,,,,,,,
