participant,condition,date,expName,psychopyVersion,OS,frameRate,block,phase,trial,learn_mouse_2.x,learn_mouse_2.y,learn_mouse_2.leftButton,learn_mouse_2.midButton,learn_mouse_2.rightButton,learn_mouse_2.time,learn_mouse_2.clicked_name,cat,token,row,col,t_select,cat_mouse_l.x,cat_mouse_l.y,cat_mouse_l.leftButton,cat_mouse_l.midButton,cat_mouse_l.rightButton,cat_mouse_l.time,cat_mouse_l.clicked_name,resp,t_resp,corr,train_trials.thisRepN,train_trials.thisTrialN,train_trials.thisN,train_trials.thisIndex,train_trials.ran,cat_mouse_t.x,cat_mouse_t.y,cat_mouse_t.leftButton,cat_mouse_t.midButton,cat_mouse_t.rightButton,cat_mouse_t.time,cat_mouse_t.clicked_name,test_trials.thisRepN,test_trials.thisTrialN,test_trials.thisN,test_trials.thisIndex,test_trials.ran,Bonus
662b24af863fd5cc1437384c,TCR,2024-06-20_15h39.04.810,LearnStrategy,2023.2.3,Linux x86_64,60.24096386,,,,,,,,,,,,,,,,,,,,,,,,,,,,,,,,,,,,,,,,,,,
662b24af863fd5cc1437384c,TCR,2024-06-20_15h39.04.810,LearnStrategy,2023.2.3,Linux x86_64,60.24096386,1,1,1,-0.030347259,0.011449496,1,0,0,2.899,rock_grid_rect_2,6,12,-1,-1,2.899,0.229549761,-0.250792821,1,0,0,7.8271,Diorite_rect,3,7.827,0,0,0,0,0,1,,,,,,,,,,,,,
662b24af863fd5cc1437384c,TCR,2024-06-20_15h39.04.810,LearnStrategy,2023.2.3,Linux x86_64,60.24096386,1,1,2,0.038599014,0.010980959,1,0,0,2.1762,rock_grid_rect_2,1,09,-1,-1,2.176,-0.368128635,-0.384431062,1,0,0,3.6937,Obsidian_rect,5,3.694,0,1,0,1,0,1,,,,,,,,,,,,,
662b24af863fd5cc1437384c,TCR,2024-06-20_15h39.04.810,LearnStrategy,2023.2.3,Linux x86_64,60.24096386,1,1,3,0.014278553,-0.011687173,1,0,0,3.857,rock_grid_rect_2,8,03,-1,-1,3.857,0.343591054,-0.38621627,1,0,0,3.5201,Pumice_rect,8,3.52,1,2,0,2,0,1,,,,,,,,,,,,,
662b24af863fd5cc1437384c,TCR,2024-06-20_15h39.04.810,LearnStrategy,2023.2.3,Linux x86_64,60.24096386,1,1,4,0.047880314,0.00149681,1,0,0,1.2428,rock_grid_rect_2,2,11,-1,-1,1.243,-0.381210716,-0.406135488,1,0,0,4.2526,Obsidian_rect,5,4.253,0,3,0,3,0,1,,,,,,,,,,,,,
662b24af863fd5cc1437384c,TCR,2024-06-20_15h39.04.810,LearnStrategy,2023.2.3,Linux x86_64,60.24096386,1,1,5,-0.042747074,0.002091125,1,0,0,1.608,rock_grid_rect_2,4,12,-1,-1,1.608,0.148428458,-0.244589276,1,0,0,6.8701,Diorite_rect,3,6.87,0,4,0,4,0,1,,,,,,,,,,,,,
662b24af863fd5cc1437384c,TCR,2024-06-20_15h39.04.810,LearnStrategy,2023.2.3,Linux x86_64,60.24096386,1,1,6,0.003001248,0.009924359,1,0,0,1.9588,rock_grid_rect_2,4,13,-1,-1,1.959,0.096811577,-0.384491744,1,0,0,5.3664,Peridotite_rect,7,5.366,0,5,0,5,0,1,,,,,,,,,,,,,
662b24af863fd5cc1437384c,TCR,2024-06-20_15h39.04.810,LearnStrategy,2023.2.3,Linux x86_64,60.24096386,1,1,7,-0.012200532,-0.013714896,1,0,0,2.6098,rock_grid_rect_2,5,14,-1,-1,2.61,-0.385634917,-0.39609902,1,0,0,2.3061,Obsidian_rect,5,2.306,1,6,0,6,0,1,,,,,,,,,,,,,
662b24af863fd5cc1437384c,TCR,2024-06-20_15h39.04.810,LearnStrategy,2023.2.3,Linux x86_64,60.24096386,1,1,8,-0.0180272,0.015741419,1,0,0,1.7925,rock_grid_rect_2,1,10,-1,-1,1.793,-0.061196998,-0.271879903,1,0,0,4.2897,Basalt_rect,2,4.29,0,7,0,7,0,1,,,,,,,,,,,,,
662b24af863fd5cc1437384c,TCR,2024-06-20_15h39.04.810,LearnStrategy,2023.2.3,Linux x86_64,60.24096386,1,1,9,-0.01893757,0.009141639,1,0,0,2.1918,rock_grid_rect_2,7,05,-1,-1,2.192,0.070614426,-0.391844643,1,0,0,4.5047,Peridotite_rect,7,4.505,1,8,0,8,0,1,,,,,,,,,,,,,
662b24af863fd5cc1437384c,TCR,2024-06-20_15h39.04.810,LearnStrategy,2023.2.3,Linux x86_64,60.24096386,1,1,10,0.0130842,0.00330978,1,0,0,1.3424,rock_grid_rect_2,7,02,-1,-1,1.342,0.103933405,-0.412329709,1,0,0,3.7033,Peridotite_rect,7,3.703,1,9,0,9,0,1,,,,,,,,,,,,,
662b24af863fd5cc1437384c,TCR,2024-06-20_15h39.04.810,LearnStrategy,2023.2.3,Linux x86_64,60.24096386,1,1,11,0.026049367,-0.020201754,1,0,0,1.7586,rock_grid_rect_2,6,15,-1,-1,1.759,-0.23250163,-0.4124859,1,0,0,5.3388,Pegmatite_rect,6,5.339,1,10,0,10,0,1,,,,,,,,,,,,,
662b24af863fd5cc1437384c,TCR,2024-06-20_15h39.04.810,LearnStrategy,2023.2.3,Linux x86_64,60.24096386,1,1,12,-0.049865935,0.013495304,1,0,0,3.0928,rock_grid_rect_2,8,09,-1,-1,3.093,0.358670694,-0.395597105,1,0,0,2.2444,Pumice_rect,8,2.244,1,11,0,11,0,1,,,,,,,,,,,,,
662b24af863fd5cc1437384c,TCR,2024-06-20_15h39.04.810,LearnStrategy,2023.2.3,Linux x86_64,60.24096386,1,1,13,-0.004073602,0.016695376,1,0,0,1.3426,rock_grid_rect_2,3,06,-1,-1,1.343,0.314430378,-0.266764252,1,0,0,5.0146,Gabbro_rect,4,5.015,0,12,0,12,0,1,,,,,,,,,,,,,
662b24af863fd5cc1437384c,TCR,2024-06-20_15h39.04.810,LearnStrategy,2023.2.3,Linux x86_64,60.24096386,1,1,14,0.038120552,-0.00262875,1,0,0,1.1273,rock_grid_rect_2,3,07,-1,-1,1.127,0.152057012,-0.26673543,1,0,0,2.7613,Diorite_rect,3,2.761,1,13,0,13,0,1,,,,,,,,,,,,,
662b24af863fd5cc1437384c,TCR,2024-06-20_15h39.04.810,LearnStrategy,2023.2.3,Linux x86_64,60.24096386,1,1,15,0.025750902,-0.017314593,1,0,0,1.7927,rock_grid_rect_2,2,04,-1,-1,1.793,-0.120124605,-0.247623585,1,0,0,7.7244,Basalt_rect,2,7.724,1,14,0,14,0,1,,,,,,,,,,,,,
662b24af863fd5cc1437384c,TCR,2024-06-20_15h39.04.810,LearnStrategy,2023.2.3,Linux x86_64,60.24096386,1,1,16,-0.042216831,-0.00033315,1,0,0,3.6465,rock_grid_rect_2,5,04,-1,-1,3.647,-0.339555458,-0.395280132,1,0,0,2.7678,Obsidian_rect,5,2.768,1,15,0,15,0,1,,,,,,,,,,,,,
662b24af863fd5cc1437384c,TCR,2024-06-20_15h39.04.810,LearnStrategy,2023.2.3,Linux x86_64,60.24096386,1,2,1,,,,,,,,1,11,,,,,,,,,,,1,6.549,1,,,,,,-0.396729646,-0.267829542,1,0,0,6.5488,Andesite_rect,0,0,0,0,1,
662b24af863fd5cc1437384c,TCR,2024-06-20_15h39.04.810,LearnStrategy,2023.2.3,Linux x86_64,60.24096386,1,2,2,,,,,,,,7,04,,,,,,,,,,,7,5.122,1,,,,,,0.08920168,-0.39386283,1,0,0,5.1222,Peridotite_rect,1,0,1,0,1,
662b24af863fd5cc1437384c,TCR,2024-06-20_15h39.04.810,LearnStrategy,2023.2.3,Linux x86_64,60.24096386,1,2,3,,,,,,,,8,16,,,,,,,,,,,8,1.868,1,,,,,,0.425218794,-0.403056321,1,0,0,1.8677,Pumice_rect,2,0,2,0,1,
662b24af863fd5cc1437384c,TCR,2024-06-20_15h39.04.810,LearnStrategy,2023.2.3,Linux x86_64,60.24096386,1,2,4,,,,,,,,4,16,,,,,,,,,,,4,3.411,1,,,,,,0.364617524,-0.245923996,1,0,0,3.4109,Gabbro_rect,3,0,3,0,1,
662b24af863fd5cc1437384c,TCR,2024-06-20_15h39.04.810,LearnStrategy,2023.2.3,Linux x86_64,60.24096386,1,2,5,,,,,,,,7,14,,,,,,,,,,,7,2.765,1,,,,,,0.098718855,-0.387300986,1,0,0,2.765,Peridotite_rect,4,0,4,0,1,
662b24af863fd5cc1437384c,TCR,2024-06-20_15h39.04.810,LearnStrategy,2023.2.3,Linux x86_64,60.24096386,1,2,6,,,,,,,,6,05,,,,,,,,,,,6,4.553,1,,,,,,-0.150202504,-0.380743874,1,0,0,4.5529,Pegmatite_rect,5,0,5,0,1,
662b24af863fd5cc1437384c,TCR,2024-06-20_15h39.04.810,LearnStrategy,2023.2.3,Linux x86_64,60.24096386,1,2,7,,,,,,,,3,12,,,,,,,,,,,1,2.171,0,,,,,,-0.380580302,-0.267529311,1,0,0,2.1708,Andesite_rect,6,0,6,0,1,
662b24af863fd5cc1437384c,TCR,2024-06-20_15h39.04.810,LearnStrategy,2023.2.3,Linux x86_64,60.24096386,1,2,8,,,,,,,,5,05,,,,,,,,,,,5,2.926,1,,,,,,-0.364433183,-0.408704616,1,0,0,2.9259,Obsidian_rect,7,0,7,0,1,
662b24af863fd5cc1437384c,TCR,2024-06-20_15h39.04.810,LearnStrategy,2023.2.3,Linux x86_64,60.24096386,1,2,9,,,,,,,,1,05,,,,,,,,,,,3,5.532,0,,,,,,0.132633704,-0.243653403,1,0,0,5.5315,Diorite_rect,8,0,8,0,1,
662b24af863fd5cc1437384c,TCR,2024-06-20_15h39.04.810,LearnStrategy,2023.2.3,Linux x86_64,60.24096386,1,2,10,,,,,,,,2,16,,,,,,,,,,,8,2.82,0,,,,,,0.357062587,-0.382955057,1,0,0,2.8202,Pumice_rect,9,0,9,0,1,
662b24af863fd5cc1437384c,TCR,2024-06-20_15h39.04.810,LearnStrategy,2023.2.3,Linux x86_64,60.24096386,1,2,11,,,,,,,,2,02,,,,,,,,,,,2,1.607,1,,,,,,-0.167632774,-0.233958774,1,0,0,1.6074,Basalt_rect,10,0,10,0,1,
662b24af863fd5cc1437384c,TCR,2024-06-20_15h39.04.810,LearnStrategy,2023.2.3,Linux x86_64,60.24096386,1,2,12,,,,,,,,6,11,,,,,,,,,,,5,2.39,0,,,,,,-0.401687516,-0.393030025,1,0,0,2.3902,Obsidian_rect,11,0,11,0,1,
662b24af863fd5cc1437384c,TCR,2024-06-20_15h39.04.810,LearnStrategy,2023.2.3,Linux x86_64,60.24096386,1,2,13,,,,,,,,5,08,,,,,,,,,,,5,1.68,1,,,,,,-0.340123212,-0.411302284,1,0,0,1.6796,Obsidian_rect,12,0,12,0,1,
662b24af863fd5cc1437384c,TCR,2024-06-20_15h39.04.810,LearnStrategy,2023.2.3,Linux x86_64,60.24096386,1,2,14,,,,,,,,3,10,,,,,,,,,,,1,5.35,0,,,,,,-0.308422053,-0.238517973,1,0,0,5.3495,Andesite_rect,13,0,13,0,1,
662b24af863fd5cc1437384c,TCR,2024-06-20_15h39.04.810,LearnStrategy,2023.2.3,Linux x86_64,60.24096386,1,2,15,,,,,,,,4,03,,,,,,,,,,,3,2.286,0,,,,,,0.05675768,-0.264413834,1,0,0,2.2863,Diorite_rect,14,0,14,0,1,
662b24af863fd5cc1437384c,TCR,2024-06-20_15h39.04.810,LearnStrategy,2023.2.3,Linux x86_64,60.24096386,1,2,16,,,,,,,,8,10,,,,,,,,,,,8,3.482,1,,,,,,0.324559106,-0.396568016,1,0,0,3.4824,Pumice_rect,15,0,15,0,1,
662b24af863fd5cc1437384c,TCR,2024-06-20_15h39.04.810,LearnStrategy,2023.2.3,Linux x86_64,60.24096386,2,1,1,-0.004760954,-0.004406081,1,0,0,1.6578,rock_grid_rect_2,3,15,-1,-1,1.658,-0.365231938,-0.262309957,1,0,0,7.0112,Andesite_rect,1,7.011,0,0,0,0,0,1,,,,,,,,,,,,,
662b24af863fd5cc1437384c,TCR,2024-06-20_15h39.04.810,LearnStrategy,2023.2.3,Linux x86_64,60.24096386,2,1,2,-0.003513548,0.00105109,1,0,0,2.06,rock_grid_rect_2,6,13,-1,-1,2.06,-0.414829431,-0.383174967,1,0,0,12.9382,Obsidian_rect,5,12.938,0,1,0,1,0,1,,,,,,,,,,,,,
662b24af863fd5cc1437384c,TCR,2024-06-20_15h39.04.810,LearnStrategy,2023.2.3,Linux x86_64,60.24096386,2,1,3,0.024380861,-0.008319784,1,0,0,1.1935,rock_grid_rect_2,2,06,-1,-1,1.194,-0.079022725,-0.248937183,1,0,0,2.5113,Basalt_rect,2,2.511,1,2,0,2,0,1,,,,,,,,,,,,,
662b24af863fd5cc1437384c,TCR,2024-06-20_15h39.04.810,LearnStrategy,2023.2.3,Linux x86_64,60.24096386,2,1,4,0.016538479,0.004760354,1,0,0,2.2264,rock_grid_rect_2,6,10,-1,-1,2.226,0.127696073,-0.401342957,1,0,0,3.3883,Peridotite_rect,7,3.388,0,3,0,3,0,1,,,,,,,,,,,,,
662b24af863fd5cc1437384c,TCR,2024-06-20_15h39.04.810,LearnStrategy,2023.2.3,Linux x86_64,60.24096386,2,1,5,-0.036926058,-0.018863819,1,0,0,1.8425,rock_grid_rect_2,1,07,-1,-1,1.842,-0.315123841,-0.262634065,1,0,0,4.6218,Andesite_rect,1,4.622,1,4,0,4,0,1,,,,,,,,,,,,,
662b24af863fd5cc1437384c,TCR,2024-06-20_15h39.04.810,LearnStrategy,2023.2.3,Linux x86_64,60.24096386,2,1,6,-0.040648354,-0.016857818,1,0,0,1.5927,rock_grid_rect_2,1,10,-1,-1,1.593,0.373572032,-0.244897136,1,0,0,9.6213,Gabbro_rect,4,9.621,0,5,0,5,0,1,,,,,,,,,,,,,
662b24af863fd5cc1437384c,TCR,2024-06-20_15h39.04.810,LearnStrategy,2023.2.3,Linux x86_64,60.24096386,2,1,7,-0.098912769,0.007278548,1,0,0,2.3237,rock_grid_rect_2,1,04,-1,-1,2.324,-0.314115736,-0.255133382,1,0,0,4.5736,Andesite_rect,1,4.574,1,6,0,6,0,1,,,,,,,,,,,,,
662b24af863fd5cc1437384c,TCR,2024-06-20_15h39.04.810,LearnStrategy,2023.2.3,Linux x86_64,60.24096386,2,1,8,-0.014951423,0.012458413,1,0,0,1.1598,rock_grid_rect_2,3,06,-1,-1,1.16,0.19556095,-0.258994491,1,0,0,5.0048,Diorite_rect,3,5.005,1,7,0,7,0,1,,,,,,,,,,,,,
662b24af863fd5cc1437384c,TCR,2024-06-20_15h39.04.810,LearnStrategy,2023.2.3,Linux x86_64,60.24096386,2,1,9,0.0289236,-0.002827397,1,0,0,1.2092,rock_grid_rect_2,4,05,-1,-1,1.209,-0.051306053,-0.406528261,1,0,0,11.3556,Pegmatite_rect,6,11.356,0,8,0,8,0,1,,,,,,,,,,,,,
662b24af863fd5cc1437384c,TCR,2024-06-20_15h39.04.810,LearnStrategy,2023.2.3,Linux x86_64,60.24096386,2,1,10,-0.013573541,0.011578207,1,0,0,1.2432,rock_grid_rect_2,3,13,-1,-1,1.243,-0.094337958,-0.415352927,1,0,0,5.4914,Pegmatite_rect,6,5.491,0,9,0,9,0,1,,,,,,,,,,,,,
662b24af863fd5cc1437384c,TCR,2024-06-20_15h39.04.810,LearnStrategy,2023.2.3,Linux x86_64,60.24096386,2,1,11,-0.017931973,-0.002505267,1,0,0,1.927,rock_grid_rect_2,2,05,-1,-1,1.927,-0.104579219,-0.230207302,1,0,0,1.7372,Basalt_rect,2,1.737,1,10,0,10,0,1,,,,,,,,,,,,,
662b24af863fd5cc1437384c,TCR,2024-06-20_15h39.04.810,LearnStrategy,2023.2.3,Linux x86_64,60.24096386,2,1,12,0.053691652,-0.001219538,1,0,0,1.4283,rock_grid_rect_2,3,11,-1,-1,1.428,-0.38029314,-0.249099802,1,0,0,2.0396,Andesite_rect,1,2.04,0,11,0,11,0,1,,,,,,,,,,,,,
662b24af863fd5cc1437384c,TCR,2024-06-20_15h39.04.810,LearnStrategy,2023.2.3,Linux x86_64,60.24096386,2,1,13,0.003288198,0.020628011,1,0,0,2.3117,rock_grid_rect_2,5,11,-1,-1,2.312,-0.338482362,-0.416420407,1,0,0,2.2972,Obsidian_rect,5,2.297,1,12,0,12,0,1,,,,,,,,,,,,,
662b24af863fd5cc1437384c,TCR,2024-06-20_15h39.04.810,LearnStrategy,2023.2.3,Linux x86_64,60.24096386,2,1,14,0.073507945,0.013960944,1,0,0,1.5597,rock_grid_rect_2,4,14,-1,-1,1.56,0.387180046,-0.252609747,1,0,0,2.9228,Gabbro_rect,4,2.923,1,13,0,13,0,1,,,,,,,,,,,,,
662b24af863fd5cc1437384c,TCR,2024-06-20_15h39.04.810,LearnStrategy,2023.2.3,Linux x86_64,60.24096386,2,1,15,0.035362173,-0.017880722,1,0,0,1.2602,rock_grid_rect_2,8,03,-1,-1,1.26,0.327870687,-0.391534805,1,0,0,1.3952,Pumice_rect,8,1.395,1,14,0,14,0,1,,,,,,,,,,,,,
662b24af863fd5cc1437384c,TCR,2024-06-20_15h39.04.810,LearnStrategy,2023.2.3,Linux x86_64,60.24096386,2,1,16,0.050937723,-0.023631979,1,0,0,1.7281,rock_grid_rect_2,3,06,-1,-1,1.728,0.125472245,-0.265834879,1,0,0,2.5661,Diorite_rect,3,2.566,1,15,0,15,0,1,,,,,,,,,,,,,
662b24af863fd5cc1437384c,TCR,2024-06-20_15h39.04.810,LearnStrategy,2023.2.3,Linux x86_64,60.24096386,2,2,1,,,,,,,,5,10,,,,,,,,,,,5,3.099,1,,,,,,-0.311506766,-0.394484131,1,0,0,3.0988,Obsidian_rect,0,0,0,0,1,
662b24af863fd5cc1437384c,TCR,2024-06-20_15h39.04.810,LearnStrategy,2023.2.3,Linux x86_64,60.24096386,2,2,2,,,,,,,,3,09,,,,,,,,,,,3,3.957,1,,,,,,0.095865885,-0.251688215,1,0,0,3.9567,Diorite_rect,1,0,1,0,1,
662b24af863fd5cc1437384c,TCR,2024-06-20_15h39.04.810,LearnStrategy,2023.2.3,Linux x86_64,60.24096386,2,2,3,,,,,,,,2,09,,,,,,,,,,,2,2.885,1,,,,,,-0.085519932,-0.258797186,1,0,0,2.8852,Basalt_rect,2,0,2,0,1,
662b24af863fd5cc1437384c,TCR,2024-06-20_15h39.04.810,LearnStrategy,2023.2.3,Linux x86_64,60.24096386,2,2,4,,,,,,,,4,01,,,,,,,,,,,1,2.358,0,,,,,,-0.425247934,-0.241872364,1,0,0,2.3579,Andesite_rect,3,0,3,0,1,
662b24af863fd5cc1437384c,TCR,2024-06-20_15h39.04.810,LearnStrategy,2023.2.3,Linux x86_64,60.24096386,2,2,5,,,,,,,,8,02,,,,,,,,,,,8,1.349,1,,,,,,0.33569237,-0.414188314,1,0,0,1.3485,Pumice_rect,4,0,4,0,1,
662b24af863fd5cc1437384c,TCR,2024-06-20_15h39.04.810,LearnStrategy,2023.2.3,Linux x86_64,60.24096386,2,2,6,,,,,,,,7,13,,,,,,,,,,,6,6.42,0,,,,,,-0.048798808,-0.396211412,1,0,0,6.4196,Pegmatite_rect,5,0,5,0,1,
662b24af863fd5cc1437384c,TCR,2024-06-20_15h39.04.810,LearnStrategy,2023.2.3,Linux x86_64,60.24096386,2,2,7,,,,,,,,4,15,,,,,,,,,,,3,5.709,0,,,,,,0.168668323,-0.262541877,1,0,0,5.7087,Diorite_rect,6,0,6,0,1,
662b24af863fd5cc1437384c,TCR,2024-06-20_15h39.04.810,LearnStrategy,2023.2.3,Linux x86_64,60.24096386,2,2,8,,,,,,,,7,06,,,,,,,,,,,7,2.248,1,,,,,,0.136639984,-0.380380419,1,0,0,2.2481,Peridotite_rect,7,0,7,0,1,
662b24af863fd5cc1437384c,TCR,2024-06-20_15h39.04.810,LearnStrategy,2023.2.3,Linux x86_64,60.24096386,2,2,9,,,,,,,,5,02,,,,,,,,,,,5,1.985,1,,,,,,-0.404238948,-0.417133967,1,0,0,1.9854,Obsidian_rect,8,0,8,0,1,
662b24af863fd5cc1437384c,TCR,2024-06-20_15h39.04.810,LearnStrategy,2023.2.3,Linux x86_64,60.24096386,2,2,10,,,,,,,,3,08,,,,,,,,,,,3,1.84,1,,,,,,0.162784153,-0.24879618,1,0,0,1.8401,Diorite_rect,9,0,9,0,1,
662b24af863fd5cc1437384c,TCR,2024-06-20_15h39.04.810,LearnStrategy,2023.2.3,Linux x86_64,60.24096386,2,2,11,,,,,,,,6,09,,,,,,,,,,,7,3.773,0,,,,,,0.096581282,-0.405080654,1,0,0,3.773,Peridotite_rect,10,0,10,0,1,
662b24af863fd5cc1437384c,TCR,2024-06-20_15h39.04.810,LearnStrategy,2023.2.3,Linux x86_64,60.24096386,2,2,12,,,,,,,,1,03,,,,,,,,,,,1,3.181,1,,,,,,-0.319409335,-0.265443943,1,0,0,3.1812,Andesite_rect,11,0,11,0,1,
662b24af863fd5cc1437384c,TCR,2024-06-20_15h39.04.810,LearnStrategy,2023.2.3,Linux x86_64,60.24096386,2,2,13,,,,,,,,6,08,,,,,,,,,,,7,4.002,0,,,,,,0.113239076,-0.391283318,1,0,0,4.0021,Peridotite_rect,12,0,12,0,1,
662b24af863fd5cc1437384c,TCR,2024-06-20_15h39.04.810,LearnStrategy,2023.2.3,Linux x86_64,60.24096386,2,2,14,,,,,,,,1,06,,,,,,,,,,,1,5.145,1,,,,,,-0.371732394,-0.25467802,1,0,0,5.1446,Andesite_rect,13,0,13,0,1,
662b24af863fd5cc1437384c,TCR,2024-06-20_15h39.04.810,LearnStrategy,2023.2.3,Linux x86_64,60.24096386,2,2,15,,,,,,,,2,08,,,,,,,,,,,2,1.786,1,,,,,,-0.135309149,-0.251423377,1,0,0,1.7861,Basalt_rect,14,0,14,0,1,
662b24af863fd5cc1437384c,TCR,2024-06-20_15h39.04.810,LearnStrategy,2023.2.3,Linux x86_64,60.24096386,2,2,16,,,,,,,,8,13,,,,,,,,,,,8,1.576,1,,,,,,0.432839429,-0.383258537,1,0,0,1.5756,Pumice_rect,15,0,15,0,1,
662b24af863fd5cc1437384c,TCR,2024-06-20_15h39.04.810,LearnStrategy,2023.2.3,Linux x86_64,60.24096386,3,1,1,-0.049359074,-0.011176498,1,0,0,1.8351,rock_grid_rect_2,4,12,-1,-1,1.835,0.318922537,-0.249131379,1,0,0,3.0144,Gabbro_rect,4,3.014,1,0,0,0,0,1,,,,,,,,,,,,,
662b24af863fd5cc1437384c,TCR,2024-06-20_15h39.04.810,LearnStrategy,2023.2.3,Linux x86_64,60.24096386,3,1,2,0.062138098,-0.005736457,1,0,0,1.1604,rock_grid_rect_2,4,13,-1,-1,1.16,0.117330622,-0.262100714,1,0,0,3.6896,Diorite_rect,3,3.69,0,1,0,1,0,1,,,,,,,,,,,,,
662b24af863fd5cc1437384c,TCR,2024-06-20_15h39.04.810,LearnStrategy,2023.2.3,Linux x86_64,60.24096386,3,1,3,0.077980465,-0.000277378,1,0,0,0.9771,rock_grid_rect_2,6,15,-1,-1,0.977,0.124042864,-0.41523884,1,0,0,3.8317,Peridotite_rect,7,3.832,0,2,0,2,0,1,,,,,,,,,,,,,
662b24af863fd5cc1437384c,TCR,2024-06-20_15h39.04.810,LearnStrategy,2023.2.3,Linux x86_64,60.24096386,3,1,4,-0.01082166,-0.013233679,1,0,0,1.2445,rock_grid_rect_2,8,14,-1,-1,1.245,0.407294803,-0.39692794,1,0,0,1.9821,Pumice_rect,8,1.982,1,3,0,3,0,1,,,,,,,,,,,,,
662b24af863fd5cc1437384c,TCR,2024-06-20_15h39.04.810,LearnStrategy,2023.2.3,Linux x86_64,60.24096386,3,1,5,0.058566129,0.006806727,1,0,0,2.1125,rock_grid_rect_2,1,09,-1,-1,2.112,0.330120369,-0.26496428,1,0,0,2.4924,Gabbro_rect,4,2.492,0,4,0,4,0,1,,,,,,,,,,,,,
662b24af863fd5cc1437384c,TCR,2024-06-20_15h39.04.810,LearnStrategy,2023.2.3,Linux x86_64,60.24096386,3,1,6,-0.013503534,-0.008171823,1,0,0,2.03,rock_grid_rect_2,4,10,-1,-1,2.03,0.33422244,-0.245202736,1,0,0,4.0681,Gabbro_rect,4,4.068,1,5,0,5,0,1,,,,,,,,,,,,,
662b24af863fd5cc1437384c,TCR,2024-06-20_15h39.04.810,LearnStrategy,2023.2.3,Linux x86_64,60.24096386,3,1,7,0.001716331,0.015016626,1,0,0,1.26,rock_grid_rect_2,3,06,-1,-1,1.26,0.105883139,-0.242595531,1,0,0,1.4513,Diorite_rect,3,1.451,1,6,0,6,0,1,,,,,,,,,,,,,
662b24af863fd5cc1437384c,TCR,2024-06-20_15h39.04.810,LearnStrategy,2023.2.3,Linux x86_64,60.24096386,3,1,8,0.054250293,0.010290181,1,0,0,1.261,rock_grid_rect_2,7,08,-1,-1,1.261,0.103596935,-0.384140792,1,0,0,4.3597,Peridotite_rect,7,4.36,1,7,0,7,0,1,,,,,,,,,,,,,
662b24af863fd5cc1437384c,TCR,2024-06-20_15h39.04.810,LearnStrategy,2023.2.3,Linux x86_64,60.24096386,3,1,9,0.019944297,0.000298712,1,0,0,2.0261,rock_grid_rect_2,7,02,-1,-1,2.026,0.123834893,-0.388015394,1,0,0,1.9706,Peridotite_rect,7,1.971,1,8,0,8,0,1,,,,,,,,,,,,,
662b24af863fd5cc1437384c,TCR,2024-06-20_15h39.04.810,LearnStrategy,2023.2.3,Linux x86_64,60.24096386,3,1,10,0.01727966,0.006828767,1,0,0,1.1124,rock_grid_rect_2,2,11,-1,-1,1.112,0.349149209,-0.232597069,1,0,0,4.8177,Gabbro_rect,4,4.818,0,9,0,9,0,1,,,,,,,,,,,,,
662b24af863fd5cc1437384c,TCR,2024-06-20_15h39.04.810,LearnStrategy,2023.2.3,Linux x86_64,60.24096386,3,1,11,-0.055422818,-0.0138802,1,0,0,0.9605,rock_grid_rect_2,3,16,-1,-1,0.961,0.152636422,-0.246846164,1,0,0,3.3382,Diorite_rect,3,3.338,1,10,0,10,0,1,,,,,,,,,,,,,
662b24af863fd5cc1437384c,TCR,2024-06-20_15h39.04.810,LearnStrategy,2023.2.3,Linux x86_64,60.24096386,3,1,12,-0.020625432,-0.010224236,1,0,0,1.5103,rock_grid_rect_2,6,10,-1,-1,1.51,-0.071972741,-0.39821872,1,0,0,4.4386,Pegmatite_rect,6,4.439,1,11,0,11,0,1,,,,,,,,,,,,,
662b24af863fd5cc1437384c,TCR,2024-06-20_15h39.04.810,LearnStrategy,2023.2.3,Linux x86_64,60.24096386,3,1,13,-0.003290671,-0.005728792,1,0,0,1.6276,rock_grid_rect_2,6,13,-1,-1,1.628,0.09271106,-0.399239081,1,0,0,2.5417,Peridotite_rect,7,2.542,0,12,0,12,0,1,,,,,,,,,,,,,
662b24af863fd5cc1437384c,TCR,2024-06-20_15h39.04.810,LearnStrategy,2023.2.3,Linux x86_64,60.24096386,3,1,14,0.007793992,-0.012142676,1,0,0,1.3604,rock_grid_rect_2,4,11,-1,-1,1.36,0.368168584,-0.269068188,1,0,0,4.6403,Gabbro_rect,4,4.64,1,13,0,13,0,1,,,,,,,,,,,,,
662b24af863fd5cc1437384c,TCR,2024-06-20_15h39.04.810,LearnStrategy,2023.2.3,Linux x86_64,60.24096386,3,1,15,0.044383226,-0.01971757,1,0,0,1.0597,rock_grid_rect_2,6,03,-1,-1,1.06,-0.09383682,-0.408524831,1,0,0,4.8338,Pegmatite_rect,6,4.834,1,14,0,14,0,1,,,,,,,,,,,,,
662b24af863fd5cc1437384c,TCR,2024-06-20_15h39.04.810,LearnStrategy,2023.2.3,Linux x86_64,60.24096386,3,1,16,0.023545512,0.015113089,1,0,0,1.4444,rock_grid_rect_2,1,09,-1,-1,1.444,0.355905321,-0.244590547,1,0,0,2.0812,Gabbro_rect,4,2.081,0,15,0,15,0,1,,,,,,,,,,,,,
662b24af863fd5cc1437384c,TCR,2024-06-20_15h39.04.810,LearnStrategy,2023.2.3,Linux x86_64,60.24096386,3,2,1,,,,,,,,4,09,,,,,,,,,,,4,5.991,1,,,,,,0.375220405,-0.249177438,1,0,0,5.9913,Gabbro_rect,0,0,0,0,1,
662b24af863fd5cc1437384c,TCR,2024-06-20_15h39.04.810,LearnStrategy,2023.2.3,Linux x86_64,60.24096386,3,2,2,,,,,,,,5,16,,,,,,,,,,,5,1.449,1,,,,,,-0.346281829,-0.387152566,1,0,0,1.4492,Obsidian_rect,1,0,1,0,1,
662b24af863fd5cc1437384c,TCR,2024-06-20_15h39.04.810,LearnStrategy,2023.2.3,Linux x86_64,60.24096386,3,2,3,,,,,,,,3,14,,,,,,,,,,,3,1.357,1,,,,,,0.107810903,-0.257005268,1,0,0,1.3574,Diorite_rect,2,0,2,0,1,
662b24af863fd5cc1437384c,TCR,2024-06-20_15h39.04.810,LearnStrategy,2023.2.3,Linux x86_64,60.24096386,3,2,4,,,,,,,,8,05,,,,,,,,,,,8,1.388,1,,,,,,0.353061959,-0.402346505,1,0,0,1.3881,Pumice_rect,3,0,3,0,1,
662b24af863fd5cc1437384c,TCR,2024-06-20_15h39.04.810,LearnStrategy,2023.2.3,Linux x86_64,60.24096386,3,2,5,,,,,,,,1,14,,,,,,,,,,,1,2.988,1,,,,,,-0.349347079,-0.24433468,1,0,0,2.9878,Andesite_rect,4,0,4,0,1,
662b24af863fd5cc1437384c,TCR,2024-06-20_15h39.04.810,LearnStrategy,2023.2.3,Linux x86_64,60.24096386,3,2,6,,,,,,,,1,16,,,,,,,,,,,1,2.547,1,,,,,,-0.384902106,-0.245541184,1,0,0,2.5469,Andesite_rect,5,0,5,0,1,
662b24af863fd5cc1437384c,TCR,2024-06-20_15h39.04.810,LearnStrategy,2023.2.3,Linux x86_64,60.24096386,3,2,7,,,,,,,,2,12,,,,,,,,,,,4,2.728,0,,,,,,0.431186959,-0.238501302,1,0,0,2.7279,Gabbro_rect,6,0,6,0,1,
662b24af863fd5cc1437384c,TCR,2024-06-20_15h39.04.810,LearnStrategy,2023.2.3,Linux x86_64,60.24096386,3,2,8,,,,,,,,2,01,,,,,,,,,,,2,1.587,1,,,,,,-0.082142865,-0.234074275,1,0,0,1.5873,Basalt_rect,7,0,7,0,1,
662b24af863fd5cc1437384c,TCR,2024-06-20_15h39.04.810,LearnStrategy,2023.2.3,Linux x86_64,60.24096386,3,2,9,,,,,,,,4,08,,,,,,,,,,,4,4.372,1,,,,,,0.341754489,-0.23824826,1,0,0,4.3721,Gabbro_rect,8,0,8,0,1,
662b24af863fd5cc1437384c,TCR,2024-06-20_15h39.04.810,LearnStrategy,2023.2.3,Linux x86_64,60.24096386,3,2,10,,,,,,,,8,04,,,,,,,,,,,8,1.431,1,,,,,,0.374668121,-0.41715848,1,0,0,1.4308,Pumice_rect,9,0,9,0,1,
662b24af863fd5cc1437384c,TCR,2024-06-20_15h39.04.810,LearnStrategy,2023.2.3,Linux x86_64,60.24096386,3,2,11,,,,,,,,3,02,,,,,,,,,,,3,1.94,1,,,,,,0.103857747,-0.233511183,1,0,0,1.9398,Diorite_rect,10,0,10,0,1,
662b24af863fd5cc1437384c,TCR,2024-06-20_15h39.04.810,LearnStrategy,2023.2.3,Linux x86_64,60.24096386,3,2,12,,,,,,,,6,06,,,,,,,,,,,6,2.624,1,,,,,,-0.125688906,-0.4010168,1,0,0,2.6242,Pegmatite_rect,11,0,11,0,1,
662b24af863fd5cc1437384c,TCR,2024-06-20_15h39.04.810,LearnStrategy,2023.2.3,Linux x86_64,60.24096386,3,2,13,,,,,,,,7,12,,,,,,,,,,,7,1.788,1,,,,,,0.091863208,-0.389294024,1,0,0,1.7881,Peridotite_rect,12,0,12,0,1,
662b24af863fd5cc1437384c,TCR,2024-06-20_15h39.04.810,LearnStrategy,2023.2.3,Linux x86_64,60.24096386,3,2,14,,,,,,,,6,16,,,,,,,,,,,6,3.395,1,,,,,,-0.074184842,-0.385089662,1,0,0,3.3952,Pegmatite_rect,13,0,13,0,1,
662b24af863fd5cc1437384c,TCR,2024-06-20_15h39.04.810,LearnStrategy,2023.2.3,Linux x86_64,60.24096386,3,2,15,,,,,,,,7,07,,,,,,,,,,,7,1.138,1,,,,,,0.130788944,-0.383649967,1,0,0,1.1379,Peridotite_rect,14,0,14,0,1,
662b24af863fd5cc1437384c,TCR,2024-06-20_15h39.04.810,LearnStrategy,2023.2.3,Linux x86_64,60.24096386,3,2,16,,,,,,,,5,12,,,,,,,,,,,5,1.523,1,,,,,,-0.390528184,-0.381547363,1,0,0,1.5229,Obsidian_rect,15,0,15,0,1,
662b24af863fd5cc1437384c,TCR,2024-06-20_15h39.04.810,LearnStrategy,2023.2.3,Linux x86_64,60.24096386,4,1,1,-0.005618696,-0.013889525,1,0,0,1.3625,rock_grid_rect_2,6,15,-1,-1,1.362,-0.149087482,-0.413530844,1,0,0,2.306,Pegmatite_rect,6,2.306,1,0,0,0,0,1,,,,,,,,,,,,,
662b24af863fd5cc1437384c,TCR,2024-06-20_15h39.04.810,LearnStrategy,2023.2.3,Linux x86_64,60.24096386,4,1,2,0.037250024,0.006205735,1,0,0,0.9951,rock_grid_rect_2,7,02,-1,-1,0.995,0.072675705,-0.395002012,1,0,0,1.2461,Peridotite_rect,7,1.246,1,1,0,1,0,1,,,,,,,,,,,,,
662b24af863fd5cc1437384c,TCR,2024-06-20_15h39.04.810,LearnStrategy,2023.2.3,Linux x86_64,60.24096386,4,1,3,-3.63809E-05,-0.024298032,1,0,0,1.2448,rock_grid_rect_2,2,04,-1,-1,1.245,-0.088562436,-0.238930314,1,0,0,1.5499,Basalt_rect,2,1.55,1,2,0,2,0,1,,,,,,,,,,,,,
662b24af863fd5cc1437384c,TCR,2024-06-20_15h39.04.810,LearnStrategy,2023.2.3,Linux x86_64,60.24096386,4,1,4,0.042289734,-0.003236559,1,0,0,1.0954,rock_grid_rect_2,4,14,-1,-1,1.095,0.356533333,-0.237515132,1,0,0,4.5079,Gabbro_rect,4,4.508,1,3,0,3,0,1,,,,,,,,,,,,,
662b24af863fd5cc1437384c,TCR,2024-06-20_15h39.04.810,LearnStrategy,2023.2.3,Linux x86_64,60.24096386,4,1,5,-0.012979296,-0.018677323,1,0,0,1.3605,rock_grid_rect_2,1,09,-1,-1,1.361,-0.337489022,-0.241625397,1,0,0,2.4924,Andesite_rect,1,2.492,1,4,0,4,0,1,,,,,,,,,,,,,
662b24af863fd5cc1437384c,TCR,2024-06-20_15h39.04.810,LearnStrategy,2023.2.3,Linux x86_64,60.24096386,4,1,6,-0.128723992,0.00825663,1,0,0,1.6606,rock_grid_rect_2,8,08,-1,-1,1.661,0.343760031,-0.39200917,1,0,0,2.0674,Pumice_rect,8,2.067,1,5,0,5,0,1,,,,,,,,,,,,,
662b24af863fd5cc1437384c,TCR,2024-06-20_15h39.04.810,LearnStrategy,2023.2.3,Linux x86_64,60.24096386,4,1,7,0.016192118,0.015481454,1,0,0,1.2961,rock_grid_rect_2,5,09,-1,-1,1.296,-0.436340932,-0.415453522,1,0,0,6.8107,Obsidian_rect,5,6.811,1,6,0,6,0,1,,,,,,,,,,,,,
662b24af863fd5cc1437384c,TCR,2024-06-20_15h39.04.810,LearnStrategy,2023.2.3,Linux x86_64,60.24096386,4,1,8,0.031588448,-0.01505382,1,0,0,1.6939,rock_grid_rect_2,6,03,-1,-1,1.694,-0.078253004,-0.408326891,1,0,0,2.0059,Pegmatite_rect,6,2.006,1,7,0,7,0,1,,,,,,,,,,,,,
662b24af863fd5cc1437384c,TCR,2024-06-20_15h39.04.810,LearnStrategy,2023.2.3,Linux x86_64,60.24096386,4,1,9,0.121612196,0.008787367,1,0,0,0.9448,rock_grid_rect_2,6,13,-1,-1,0.945,-0.061024348,-0.399714223,1,0,0,3.8392,Pegmatite_rect,6,3.839,1,8,0,8,0,1,,,,,,,,,,,,,
662b24af863fd5cc1437384c,TCR,2024-06-20_15h39.04.810,LearnStrategy,2023.2.3,Linux x86_64,60.24096386,4,1,10,0.068671898,0.017958288,1,0,0,1.0444,rock_grid_rect_2,4,14,-1,-1,1.044,0.359204328,-0.265915129,1,0,0,1.6281,Gabbro_rect,4,1.628,1,9,0,9,0,1,,,,,,,,,,,,,
662b24af863fd5cc1437384c,TCR,2024-06-20_15h39.04.810,LearnStrategy,2023.2.3,Linux x86_64,60.24096386,4,1,11,0.102608716,0.009254102,1,0,0,0.9281,rock_grid_rect_2,2,05,-1,-1,0.928,-0.115071473,-0.245262923,1,0,0,1.425,Basalt_rect,2,1.425,1,10,0,10,0,1,,,,,,,,,,,,,
662b24af863fd5cc1437384c,TCR,2024-06-20_15h39.04.810,LearnStrategy,2023.2.3,Linux x86_64,60.24096386,4,1,12,0.014979963,-0.0149208,1,0,0,1.4621,rock_grid_rect_2,7,16,-1,-1,1.462,0.112837615,-0.419821492,1,0,0,3.6069,Peridotite_rect,7,3.607,1,11,0,11,0,1,,,,,,,,,,,,,
662b24af863fd5cc1437384c,TCR,2024-06-20_15h39.04.810,LearnStrategy,2023.2.3,Linux x86_64,60.24096386,4,1,13,-0.000188404,-0.003809328,1,0,0,1.2435,rock_grid_rect_2,2,04,-1,-1,1.243,-0.120026059,-0.249191779,1,0,0,1.4616,Basalt_rect,2,1.462,1,12,0,12,0,1,,,,,,,,,,,,,
662b24af863fd5cc1437384c,TCR,2024-06-20_15h39.04.810,LearnStrategy,2023.2.3,Linux x86_64,60.24096386,4,1,14,0.12559813,0.001643146,1,0,0,1.0283,rock_grid_rect_2,4,13,-1,-1,1.028,0.349273682,-0.248962332,1,0,0,1.5711,Gabbro_rect,4,1.571,1,13,0,13,0,1,,,,,,,,,,,,,
662b24af863fd5cc1437384c,TCR,2024-06-20_15h39.04.810,LearnStrategy,2023.2.3,Linux x86_64,60.24096386,4,1,15,0.093484384,-0.005990311,1,0,0,1.0289,rock_grid_rect_2,3,13,-1,-1,1.029,0.093584979,-0.230284797,1,0,0,1.4976,Diorite_rect,3,1.498,1,14,0,14,0,1,,,,,,,,,,,,,
662b24af863fd5cc1437384c,TCR,2024-06-20_15h39.04.810,LearnStrategy,2023.2.3,Linux x86_64,60.24096386,4,1,16,0.013492514,-0.009253325,1,0,0,1.3114,rock_grid_rect_2,3,15,-1,-1,1.311,-0.388472486,-0.256919861,1,0,0,3.0861,Andesite_rect,1,3.086,0,15,0,15,0,1,,,,,,,,,,,,,
662b24af863fd5cc1437384c,TCR,2024-06-20_15h39.04.810,LearnStrategy,2023.2.3,Linux x86_64,60.24096386,4,2,1,,,,,,,,6,09,,,,,,,,,,,6,2.294,1,,,,,,-0.115968139,-0.401039901,1,0,0,2.2937,Pegmatite_rect,0,0,0,0,1,
662b24af863fd5cc1437384c,TCR,2024-06-20_15h39.04.810,LearnStrategy,2023.2.3,Linux x86_64,60.24096386,4,2,2,,,,,,,,2,12,,,,,,,,,,,2,1.794,1,,,,,,-0.108566072,-0.262982404,1,0,0,1.7938,Basalt_rect,1,0,1,0,1,
662b24af863fd5cc1437384c,TCR,2024-06-20_15h39.04.810,LearnStrategy,2023.2.3,Linux x86_64,60.24096386,4,2,3,,,,,,,,8,10,,,,,,,,,,,8,1.997,1,,,,,,0.393229732,-0.386877766,1,0,0,1.9968,Pumice_rect,2,0,2,0,1,
662b24af863fd5cc1437384c,TCR,2024-06-20_15h39.04.810,LearnStrategy,2023.2.3,Linux x86_64,60.24096386,4,2,4,,,,,,,,7,06,,,,,,,,,,,7,2.556,1,,,,,,0.109320111,-0.391094349,1,0,0,2.5563,Peridotite_rect,3,0,3,0,1,
662b24af863fd5cc1437384c,TCR,2024-06-20_15h39.04.810,LearnStrategy,2023.2.3,Linux x86_64,60.24096386,4,2,5,,,,,,,,2,01,,,,,,,,,,,2,2.387,1,,,,,,-0.071678797,-0.244312074,1,0,0,2.3865,Basalt_rect,4,0,4,0,1,
662b24af863fd5cc1437384c,TCR,2024-06-20_15h39.04.810,LearnStrategy,2023.2.3,Linux x86_64,60.24096386,4,2,6,,,,,,,,5,12,,,,,,,,,,,5,2.377,1,,,,,,-0.334439984,-0.378255138,1,0,0,2.377,Obsidian_rect,5,0,5,0,1,
662b24af863fd5cc1437384c,TCR,2024-06-20_15h39.04.810,LearnStrategy,2023.2.3,Linux x86_64,60.24096386,4,2,7,,,,,,,,3,14,,,,,,,,,,,3,1.059,1,,,,,,0.099267465,-0.2539557,1,0,0,1.0593,Diorite_rect,6,0,6,0,1,
662b24af863fd5cc1437384c,TCR,2024-06-20_15h39.04.810,LearnStrategy,2023.2.3,Linux x86_64,60.24096386,4,2,8,,,,,,,,6,05,,,,,,,,,,,6,3.838,1,,,,,,-0.105528655,-0.394004751,1,0,0,3.838,Pegmatite_rect,7,0,7,0,1,
662b24af863fd5cc1437384c,TCR,2024-06-20_15h39.04.810,LearnStrategy,2023.2.3,Linux x86_64,60.24096386,4,2,9,,,,,,,,4,01,,,,,,,,,,,7,5.786,0,,,,,,0.128011986,-0.380452827,1,0,0,5.7858,Peridotite_rect,8,0,8,0,1,
662b24af863fd5cc1437384c,TCR,2024-06-20_15h39.04.810,LearnStrategy,2023.2.3,Linux x86_64,60.24096386,4,2,10,,,,,,,,5,16,,,,,,,,,,,5,2.102,1,,,,,,-0.346131113,-0.381813544,1,0,0,2.1024,Obsidian_rect,9,0,9,0,1,
662b24af863fd5cc1437384c,TCR,2024-06-20_15h39.04.810,LearnStrategy,2023.2.3,Linux x86_64,60.24096386,4,2,11,,,,,,,,8,02,,,,,,,,,,,8,1.409,1,,,,,,0.34506494,-0.393768311,1,0,0,1.409,Pumice_rect,10,0,10,0,1,
662b24af863fd5cc1437384c,TCR,2024-06-20_15h39.04.810,LearnStrategy,2023.2.3,Linux x86_64,60.24096386,4,2,12,,,,,,,,4,16,,,,,,,,,,,4,1.609,1,,,,,,0.428685365,-0.236827638,1,0,0,1.609,Gabbro_rect,11,0,11,0,1,
662b24af863fd5cc1437384c,TCR,2024-06-20_15h39.04.810,LearnStrategy,2023.2.3,Linux x86_64,60.24096386,4,2,13,,,,,,,,1,03,,,,,,,,,,,1,1.465,1,,,,,,-0.332466797,-0.240189376,1,0,0,1.465,Andesite_rect,12,0,12,0,1,
662b24af863fd5cc1437384c,TCR,2024-06-20_15h39.04.810,LearnStrategy,2023.2.3,Linux x86_64,60.24096386,4,2,14,,,,,,,,1,14,,,,,,,,,,,1,3.048,1,,,,,,-0.353672663,-0.248249548,1,0,0,3.0483,Andesite_rect,13,0,13,0,1,
662b24af863fd5cc1437384c,TCR,2024-06-20_15h39.04.810,LearnStrategy,2023.2.3,Linux x86_64,60.24096386,4,2,15,,,,,,,,3,09,,,,,,,,,,,3,1.89,1,,,,,,0.145021721,-0.234499402,1,0,0,1.8898,Diorite_rect,14,0,14,0,1,
662b24af863fd5cc1437384c,TCR,2024-06-20_15h39.04.810,LearnStrategy,2023.2.3,Linux x86_64,60.24096386,4,2,16,,,,,,,,7,04,,,,,,,,,,,3,3.601,0,,,,,,0.127846541,-0.26293359,1,0,0,3.601,Diorite_rect,15,0,15,0,1,
662b24af863fd5cc1437384c,TCR,2024-06-20_15h39.04.810,LearnStrategy,2023.2.3,Linux x86_64,60.24096386,5,1,1,0.007375929,-0.015011823,1,0,0,1.4963,rock_grid_rect_2,7,05,-1,-1,1.496,0.108259554,-0.410837739,1,0,0,2.2199,Peridotite_rect,7,2.22,1,0,0,0,0,1,,,,,,,,,,,,,
662b24af863fd5cc1437384c,TCR,2024-06-20_15h39.04.810,LearnStrategy,2023.2.3,Linux x86_64,60.24096386,5,1,2,0.012027246,-0.017597163,1,0,0,1.2618,rock_grid_rect_2,4,10,-1,-1,1.262,-0.229293894,-0.240566748,1,0,0,4.3065,Basalt_rect,2,4.306,0,1,0,1,0,1,,,,,,,,,,,,,
662b24af863fd5cc1437384c,TCR,2024-06-20_15h39.04.810,LearnStrategy,2023.2.3,Linux x86_64,60.24096386,5,1,3,0.082203194,0.023072525,1,0,0,1.0275,rock_grid_rect_2,2,14,-1,-1,1.027,0.358187075,-0.38876258,1,0,0,3.5733,Pumice_rect,8,3.573,0,2,0,2,0,1,,,,,,,,,,,,,
662b24af863fd5cc1437384c,TCR,2024-06-20_15h39.04.810,LearnStrategy,2023.2.3,Linux x86_64,60.24096386,5,1,4,0.064888495,-0.012190642,1,0,0,1.0277,rock_grid_rect_2,1,02,-1,-1,1.028,-0.317359077,-0.256584167,1,0,0,2.4904,Andesite_rect,1,2.49,1,3,0,3,0,1,,,,,,,,,,,,,
662b24af863fd5cc1437384c,TCR,2024-06-20_15h39.04.810,LearnStrategy,2023.2.3,Linux x86_64,60.24096386,5,1,5,0.018906346,-0.000161595,1,0,0,0.9607,rock_grid_rect_2,4,13,-1,-1,0.961,0.344113385,-0.251066349,1,0,0,1.6909,Gabbro_rect,4,1.691,1,4,0,4,0,1,,,,,,,,,,,,,
662b24af863fd5cc1437384c,TCR,2024-06-20_15h39.04.810,LearnStrategy,2023.2.3,Linux x86_64,60.24096386,5,1,6,0.022145801,0.015788537,1,0,0,1.3122,rock_grid_rect_2,5,06,-1,-1,1.312,-0.385863728,-0.407243234,1,0,0,3.1073,Obsidian_rect,5,3.107,1,5,0,5,0,1,,,,,,,,,,,,,
662b24af863fd5cc1437384c,TCR,2024-06-20_15h39.04.810,LearnStrategy,2023.2.3,Linux x86_64,60.24096386,5,1,7,0.123504568,0.014383669,1,0,0,0.9274,rock_grid_rect_2,8,15,-1,-1,0.927,0.34961107,-0.401910075,1,0,0,1.5745,Pumice_rect,8,1.575,1,6,0,6,0,1,,,,,,,,,,,,,
662b24af863fd5cc1437384c,TCR,2024-06-20_15h39.04.810,LearnStrategy,2023.2.3,Linux x86_64,60.24096386,5,1,8,0.029881866,-0.01698282,1,0,0,1.1456,rock_grid_rect_2,6,03,-1,-1,1.146,-0.075297603,-0.403465483,1,0,0,1.6241,Pegmatite_rect,6,1.624,1,7,0,7,0,1,,,,,,,,,,,,,
662b24af863fd5cc1437384c,TCR,2024-06-20_15h39.04.810,LearnStrategy,2023.2.3,Linux x86_64,60.24096386,5,1,9,0.0185934,-0.006663075,1,0,0,1.227,rock_grid_rect_2,6,10,-1,-1,1.227,-0.071818528,-0.400194239,1,0,0,1.3715,Pegmatite_rect,6,1.371,1,8,0,8,0,1,,,,,,,,,,,,,
662b24af863fd5cc1437384c,TCR,2024-06-20_15h39.04.810,LearnStrategy,2023.2.3,Linux x86_64,60.24096386,5,1,10,0.001075109,-0.022355504,1,0,0,1.3599,rock_grid_rect_2,7,08,-1,-1,1.36,0.080564075,-0.407263791,1,0,0,1.2081,Peridotite_rect,7,1.208,1,9,0,9,0,1,,,,,,,,,,,,,
662b24af863fd5cc1437384c,TCR,2024-06-20_15h39.04.810,LearnStrategy,2023.2.3,Linux x86_64,60.24096386,5,1,11,0.074559671,-0.008806123,1,0,0,0.8955,rock_grid_rect_2,3,11,-1,-1,0.895,0.1121598,-0.258161262,1,0,0,1.1992,Diorite_rect,3,1.199,1,10,0,10,0,1,,,,,,,,,,,,,
662b24af863fd5cc1437384c,TCR,2024-06-20_15h39.04.810,LearnStrategy,2023.2.3,Linux x86_64,60.24096386,5,1,12,0.077545943,0.018524347,1,0,0,1.3118,rock_grid_rect_2,4,12,-1,-1,1.312,0.361302552,-0.256725876,1,0,0,2.7706,Gabbro_rect,4,2.771,1,11,0,11,0,1,,,,,,,,,,,,,
662b24af863fd5cc1437384c,TCR,2024-06-20_15h39.04.810,LearnStrategy,2023.2.3,Linux x86_64,60.24096386,5,1,13,0.058491672,0.008219295,1,0,0,1.0758,rock_grid_rect_2,3,07,-1,-1,1.076,0.094478395,-0.241279249,1,0,0,1.1876,Diorite_rect,3,1.188,1,12,0,12,0,1,,,,,,,,,,,,,
662b24af863fd5cc1437384c,TCR,2024-06-20_15h39.04.810,LearnStrategy,2023.2.3,Linux x86_64,60.24096386,5,1,14,0.09283525,0.018128113,1,0,0,1.0956,rock_grid_rect_2,4,11,-1,-1,1.096,0.37812678,-0.252983376,1,0,0,3.1462,Gabbro_rect,4,3.146,1,13,0,13,0,1,,,,,,,,,,,,,
662b24af863fd5cc1437384c,TCR,2024-06-20_15h39.04.810,LearnStrategy,2023.2.3,Linux x86_64,60.24096386,5,1,15,0.076786324,-0.02188898,1,0,0,0.9775,rock_grid_rect_2,7,10,-1,-1,0.977,0.143867917,-0.387884635,1,0,0,1.2958,Peridotite_rect,7,1.296,1,14,0,14,0,1,,,,,,,,,,,,,
662b24af863fd5cc1437384c,TCR,2024-06-20_15h39.04.810,LearnStrategy,2023.2.3,Linux x86_64,60.24096386,5,1,16,0.09356972,-0.02285039,1,0,0,0.9609,rock_grid_rect_2,2,06,-1,-1,0.961,-0.090299818,-0.230646769,1,0,0,1.354,Basalt_rect,2,1.354,1,15,0,15,0,1,,,,,,,,,,,,,
662b24af863fd5cc1437384c,TCR,2024-06-20_15h39.04.810,LearnStrategy,2023.2.3,Linux x86_64,60.24096386,5,2,1,,,,,,,,5,08,,,,,,,,,,,5,1.591,1,,,,,,-0.364475038,-0.388086743,1,0,0,1.5906,Obsidian_rect,0,0,0,0,1,
662b24af863fd5cc1437384c,TCR,2024-06-20_15h39.04.810,LearnStrategy,2023.2.3,Linux x86_64,60.24096386,5,2,2,,,,,,,,3,10,,,,,,,,,,,3,5.439,1,,,,,,0.153139468,-0.259891651,1,0,0,5.4394,Diorite_rect,1,0,1,0,1,
662b24af863fd5cc1437384c,TCR,2024-06-20_15h39.04.810,LearnStrategy,2023.2.3,Linux x86_64,60.24096386,5,2,3,,,,,,,,1,05,,,,,,,,,,,3,6.875,0,,,,,,0.151271114,-0.240303817,1,0,0,6.8746,Diorite_rect,2,0,2,0,1,
662b24af863fd5cc1437384c,TCR,2024-06-20_15h39.04.810,LearnStrategy,2023.2.3,Linux x86_64,60.24096386,5,2,4,,,,,,,,4,03,,,,,,,,,,,4,5.447,1,,,,,,0.42391332,-0.24518889,1,0,0,5.4469,Gabbro_rect,3,0,3,0,1,
662b24af863fd5cc1437384c,TCR,2024-06-20_15h39.04.810,LearnStrategy,2023.2.3,Linux x86_64,60.24096386,5,2,5,,,,,,,,4,09,,,,,,,,,,,2,2.556,0,,,,,,-0.119976962,-0.228791696,1,0,0,2.5561,Basalt_rect,4,0,4,0,1,
662b24af863fd5cc1437384c,TCR,2024-06-20_15h39.04.810,LearnStrategy,2023.2.3,Linux x86_64,60.24096386,5,2,6,,,,,,,,6,11,,,,,,,,,,,6,2.97,1,,,,,,-0.107231776,-0.407036322,1,0,0,2.9703,Pegmatite_rect,5,0,5,0,1,
662b24af863fd5cc1437384c,TCR,2024-06-20_15h39.04.810,LearnStrategy,2023.2.3,Linux x86_64,60.24096386,5,2,7,,,,,,,,7,07,,,,,,,,,,,7,2.338,1,,,,,,0.12675582,-0.40437218,1,0,0,2.3383,Peridotite_rect,6,0,6,0,1,
662b24af863fd5cc1437384c,TCR,2024-06-20_15h39.04.810,LearnStrategy,2023.2.3,Linux x86_64,60.24096386,5,2,8,,,,,,,,3,08,,,,,,,,,,,3,1.71,1,,,,,,0.116062447,-0.259729951,1,0,0,1.7096,Diorite_rect,7,0,7,0,1,
662b24af863fd5cc1437384c,TCR,2024-06-20_15h39.04.810,LearnStrategy,2023.2.3,Linux x86_64,60.24096386,5,2,9,,,,,,,,1,06,,,,,,,,,,,1,4.141,1,,,,,,-0.38955579,-0.246215255,1,0,0,4.1407,Andesite_rect,8,0,8,0,1,
662b24af863fd5cc1437384c,TCR,2024-06-20_15h39.04.810,LearnStrategy,2023.2.3,Linux x86_64,60.24096386,5,2,10,,,,,,,,2,16,,,,,,,,,,,8,2.899,0,,,,,,0.393013142,-0.413835808,1,0,0,2.8989,Pumice_rect,9,0,9,0,1,
662b24af863fd5cc1437384c,TCR,2024-06-20_15h39.04.810,LearnStrategy,2023.2.3,Linux x86_64,60.24096386,5,2,11,,,,,,,,8,16,,,,,,,,,,,8,1.65,1,,,,,,0.342270321,-0.379640297,1,0,0,1.65,Pumice_rect,10,0,10,0,1,
662b24af863fd5cc1437384c,TCR,2024-06-20_15h39.04.810,LearnStrategy,2023.2.3,Linux x86_64,60.24096386,5,2,12,,,,,,,,8,04,,,,,,,,,,,8,1.634,1,,,,,,0.382178271,-0.404846968,1,0,0,1.6338,Pumice_rect,11,0,11,0,1,
662b24af863fd5cc1437384c,TCR,2024-06-20_15h39.04.810,LearnStrategy,2023.2.3,Linux x86_64,60.24096386,5,2,13,,,,,,,,6,08,,,,,,,,,,,6,1.382,1,,,,,,-0.113691047,-0.388856888,1,0,0,1.3822,Pegmatite_rect,12,0,12,0,1,
662b24af863fd5cc1437384c,TCR,2024-06-20_15h39.04.810,LearnStrategy,2023.2.3,Linux x86_64,60.24096386,5,2,14,,,,,,,,5,05,,,,,,,,,,,5,1.739,1,,,,,,-0.374831341,-0.385628241,1,0,0,1.7389,Obsidian_rect,13,0,13,0,1,
662b24af863fd5cc1437384c,TCR,2024-06-20_15h39.04.810,LearnStrategy,2023.2.3,Linux x86_64,60.24096386,5,2,15,,,,,,,,2,09,,,,,,,,,,,2,4.609,1,,,,,,-0.083421848,-0.236289907,1,0,0,4.609,Basalt_rect,14,0,14,0,1,
662b24af863fd5cc1437384c,TCR,2024-06-20_15h39.04.810,LearnStrategy,2023.2.3,Linux x86_64,60.24096386,5,2,16,,,,,,,,7,13,,,,,,,,,,,7,1.51,1,,,,,,0.153044453,-0.386115392,1,0,0,1.5103,Peridotite_rect,15,0,15,0,1,
662b24af863fd5cc1437384c,TCR,2024-06-20_15h39.04.810,LearnStrategy,2023.2.3,Linux x86_64,60.24096386,6,1,1,0.024056258,-0.001204667,1,0,0,1.6344,rock_grid_rect_2,4,05,-1,-1,1.634,0.111848831,-0.268287164,1,0,0,5.5336,Diorite_rect,3,5.534,0,0,0,0,0,1,,,,,,,,,,,,,
662b24af863fd5cc1437384c,TCR,2024-06-20_15h39.04.810,LearnStrategy,2023.2.3,Linux x86_64,60.24096386,6,1,2,0.109192813,9.90055E-05,1,0,0,1.1275,rock_grid_rect_2,2,05,-1,-1,1.128,-0.08968431,-0.248489592,1,0,0,1.7385,Basalt_rect,2,1.738,1,1,0,1,0,1,,,,,,,,,,,,,
662b24af863fd5cc1437384c,TCR,2024-06-20_15h39.04.810,LearnStrategy,2023.2.3,Linux x86_64,60.24096386,6,1,3,0.093613942,-0.018906169,1,0,0,0.8282,rock_grid_rect_2,1,10,-1,-1,0.828,-0.326423574,-0.26121627,1,0,0,2.2929,Andesite_rect,1,2.293,1,2,0,2,0,1,,,,,,,,,,,,,
662b24af863fd5cc1437384c,TCR,2024-06-20_15h39.04.810,LearnStrategy,2023.2.3,Linux x86_64,60.24096386,6,1,4,0.066768858,-0.015993471,1,0,0,0.9109,rock_grid_rect_2,6,12,-1,-1,0.911,-0.102238478,-0.390878183,1,0,0,2.2001,Pegmatite_rect,6,2.2,1,3,0,3,0,1,,,,,,,,,,,,,
662b24af863fd5cc1437384c,TCR,2024-06-20_15h39.04.810,LearnStrategy,2023.2.3,Linux x86_64,60.24096386,6,1,5,0.047262192,0.003037099,1,0,0,0.9603,rock_grid_rect_2,3,07,-1,-1,0.96,0.094073825,-0.232021685,1,0,0,1.2768,Diorite_rect,3,1.277,1,4,0,4,0,1,,,,,,,,,,,,,
662b24af863fd5cc1437384c,TCR,2024-06-20_15h39.04.810,LearnStrategy,2023.2.3,Linux x86_64,60.24096386,6,1,6,0.074782124,-0.003874849,1,0,0,1.1456,rock_grid_rect_2,4,13,-1,-1,1.146,0.343549093,-0.26515339,1,0,0,1.4448,Gabbro_rect,4,1.445,1,5,0,5,0,1,,,,,,,,,,,,,
662b24af863fd5cc1437384c,TCR,2024-06-20_15h39.04.810,LearnStrategy,2023.2.3,Linux x86_64,60.24096386,6,1,7,-0.026398694,-0.009484715,1,0,0,0.8459,rock_grid_rect_2,7,05,-1,-1,0.846,0.099780613,-0.418271736,1,0,0,1.6079,Peridotite_rect,7,1.608,1,6,0,6,0,1,,,,,,,,,,,,,
662b24af863fd5cc1437384c,TCR,2024-06-20_15h39.04.810,LearnStrategy,2023.2.3,Linux x86_64,60.24096386,6,1,8,0.034359897,0.016398501,1,0,0,1.6119,rock_grid_rect_2,6,10,-1,-1,1.612,-0.094964487,-0.408210542,1,0,0,1.226,Pegmatite_rect,6,1.226,1,7,0,7,0,1,,,,,,,,,,,,,
662b24af863fd5cc1437384c,TCR,2024-06-20_15h39.04.810,LearnStrategy,2023.2.3,Linux x86_64,60.24096386,6,1,9,-0.013351935,-0.018990658,1,0,0,1.3123,rock_grid_rect_2,5,06,-1,-1,1.312,-0.33523549,-0.405782841,1,0,0,1.3753,Obsidian_rect,5,1.375,1,8,0,8,0,1,,,,,,,,,,,,,
662b24af863fd5cc1437384c,TCR,2024-06-20_15h39.04.810,LearnStrategy,2023.2.3,Linux x86_64,60.24096386,6,1,10,0.10612071,-0.001495609,1,0,0,0.9597,rock_grid_rect_2,4,11,-1,-1,0.96,-0.080506431,-0.23812068,1,0,0,1.8427,Basalt_rect,2,1.843,0,9,0,9,0,1,,,,,,,,,,,,,
662b24af863fd5cc1437384c,TCR,2024-06-20_15h39.04.810,LearnStrategy,2023.2.3,Linux x86_64,60.24096386,6,1,11,-0.011757038,-0.011229586,1,0,0,1.3291,rock_grid_rect_2,7,02,-1,-1,1.329,0.079696443,-0.39229174,1,0,0,1.8896,Peridotite_rect,7,1.89,1,10,0,10,0,1,,,,,,,,,,,,,
662b24af863fd5cc1437384c,TCR,2024-06-20_15h39.04.810,LearnStrategy,2023.2.3,Linux x86_64,60.24096386,6,1,12,0.033775965,-0.015543302,1,0,0,1.0956,rock_grid_rect_2,2,10,-1,-1,1.096,-0.050504896,-0.271725337,1,0,0,2.3592,Basalt_rect,2,2.359,1,11,0,11,0,1,,,,,,,,,,,,,
662b24af863fd5cc1437384c,TCR,2024-06-20_15h39.04.810,LearnStrategy,2023.2.3,Linux x86_64,60.24096386,6,1,13,0.036392353,-0.008094116,1,0,0,0.8779,rock_grid_rect_2,1,02,-1,-1,0.878,-0.414022375,-0.228229664,1,0,0,1.9073,Andesite_rect,1,1.907,1,12,0,12,0,1,,,,,,,,,,,,,
662b24af863fd5cc1437384c,TCR,2024-06-20_15h39.04.810,LearnStrategy,2023.2.3,Linux x86_64,60.24096386,6,1,14,0.01733349,0.019828161,1,0,0,1.5789,rock_grid_rect_2,8,03,-1,-1,1.579,0.37537935,-0.412838335,1,0,0,1.6326,Pumice_rect,8,1.633,1,13,0,13,0,1,,,,,,,,,,,,,
662b24af863fd5cc1437384c,TCR,2024-06-20_15h39.04.810,LearnStrategy,2023.2.3,Linux x86_64,60.24096386,6,1,15,0.017541462,0.011766504,1,0,0,1.0779,rock_grid_rect_2,2,14,-1,-1,1.078,0.336267542,-0.416867503,1,0,0,2.4181,Pumice_rect,8,2.418,0,14,0,14,0,1,,,,,,,,,,,,,
662b24af863fd5cc1437384c,TCR,2024-06-20_15h39.04.810,LearnStrategy,2023.2.3,Linux x86_64,60.24096386,6,1,16,0.098688903,-0.00264906,1,0,0,0.827,rock_grid_rect_2,4,11,-1,-1,0.827,0.368615468,-0.244746032,1,0,0,2.0658,Gabbro_rect,4,2.066,1,15,0,15,0,1,,,,,,,,,,,,,
662b24af863fd5cc1437384c,TCR,2024-06-20_15h39.04.810,LearnStrategy,2023.2.3,Linux x86_64,60.24096386,6,2,1,,,,,,,,8,13,,,,,,,,,,,8,1.773,1,,,,,,0.350810157,-0.398925428,1,0,0,1.7731,Pumice_rect,0,0,0,0,1,
662b24af863fd5cc1437384c,TCR,2024-06-20_15h39.04.810,LearnStrategy,2023.2.3,Linux x86_64,60.24096386,6,2,2,,,,,,,,5,10,,,,,,,,,,,5,1.37,1,,,,,,-0.333690043,-0.395225172,1,0,0,1.3701,Obsidian_rect,1,0,1,0,1,
662b24af863fd5cc1437384c,TCR,2024-06-20_15h39.04.810,LearnStrategy,2023.2.3,Linux x86_64,60.24096386,6,2,3,,,,,,,,2,02,,,,,,,,,,,2,4.991,1,,,,,,-0.106154901,-0.25517612,1,0,0,4.9915,Basalt_rect,2,0,2,0,1,
662b24af863fd5cc1437384c,TCR,2024-06-20_15h39.04.810,LearnStrategy,2023.2.3,Linux x86_64,60.24096386,6,2,4,,,,,,,,6,16,,,,,,,,,,,6,2.447,1,,,,,,-0.087975255,-0.418300699,1,0,0,2.4469,Pegmatite_rect,3,0,3,0,1,
662b24af863fd5cc1437384c,TCR,2024-06-20_15h39.04.810,LearnStrategy,2023.2.3,Linux x86_64,60.24096386,6,2,5,,,,,,,,5,02,,,,,,,,,,,5,1.218,1,,,,,,-0.296440972,-0.390272847,1,0,0,1.2183,Obsidian_rect,4,0,4,0,1,
662b24af863fd5cc1437384c,TCR,2024-06-20_15h39.04.810,LearnStrategy,2023.2.3,Linux x86_64,60.24096386,6,2,6,,,,,,,,1,11,,,,,,,,,,,4,4.773,0,,,,,,0.367378517,-0.250298606,1,0,0,4.7734,Gabbro_rect,5,0,5,0,1,
662b24af863fd5cc1437384c,TCR,2024-06-20_15h39.04.810,LearnStrategy,2023.2.3,Linux x86_64,60.24096386,6,2,7,,,,,,,,8,05,,,,,,,,,,,8,1.664,1,,,,,,0.442700563,-0.415069509,1,0,0,1.6642,Pumice_rect,6,0,6,0,1,
662b24af863fd5cc1437384c,TCR,2024-06-20_15h39.04.810,LearnStrategy,2023.2.3,Linux x86_64,60.24096386,6,2,8,,,,,,,,4,08,,,,,,,,,,,4,4.547,1,,,,,,0.423200113,-0.237275512,1,0,0,4.5469,Gabbro_rect,7,0,7,0,1,
662b24af863fd5cc1437384c,TCR,2024-06-20_15h39.04.810,LearnStrategy,2023.2.3,Linux x86_64,60.24096386,6,2,9,,,,,,,,7,12,,,,,,,,,,,7,1.252,1,,,,,,0.129727893,-0.407862063,1,0,0,1.2523,Peridotite_rect,8,0,8,0,1,
662b24af863fd5cc1437384c,TCR,2024-06-20_15h39.04.810,LearnStrategy,2023.2.3,Linux x86_64,60.24096386,6,2,10,,,,,,,,4,15,,,,,,,,,,,1,4.418,0,,,,,,-0.371621132,-0.241752695,1,0,0,4.4184,Andesite_rect,9,0,9,0,1,
662b24af863fd5cc1437384c,TCR,2024-06-20_15h39.04.810,LearnStrategy,2023.2.3,Linux x86_64,60.24096386,6,2,11,,,,,,,,2,08,,,,,,,,,,,2,1.139,1,,,,,,-0.099092907,-0.246517323,1,0,0,1.1385,Basalt_rect,10,0,10,0,1,
662b24af863fd5cc1437384c,TCR,2024-06-20_15h39.04.810,LearnStrategy,2023.2.3,Linux x86_64,60.24096386,6,2,12,,,,,,,,6,06,,,,,,,,,,,6,4.797,1,,,,,,-0.095774191,-0.413921215,1,0,0,4.797,Pegmatite_rect,11,0,11,0,1,
662b24af863fd5cc1437384c,TCR,2024-06-20_15h39.04.810,LearnStrategy,2023.2.3,Linux x86_64,60.24096386,6,2,13,,,,,,,,1,16,,,,,,,,,,,4,6.017,0,,,,,,0.326265264,-0.233066912,1,0,0,6.0169,Gabbro_rect,12,0,12,0,1,
662b24af863fd5cc1437384c,TCR,2024-06-20_15h39.04.810,LearnStrategy,2023.2.3,Linux x86_64,60.24096386,6,2,14,,,,,,,,3,12,,,,,,,,,,,3,1.664,1,,,,,,0.136874305,-0.271903285,1,0,0,1.6636,Diorite_rect,13,0,13,0,1,
662b24af863fd5cc1437384c,TCR,2024-06-20_15h39.04.810,LearnStrategy,2023.2.3,Linux x86_64,60.24096386,6,2,15,,,,,,,,7,14,,,,,,,,,,,7,4.628,1,,,,,,0.110196078,-0.401205699,1,0,0,4.6277,Peridotite_rect,14,0,14,0,1,
662b24af863fd5cc1437384c,TCR,2024-06-20_15h39.04.810,LearnStrategy,2023.2.3,Linux x86_64,60.24096386,6,2,16,,,,,,,,3,02,,,,,,,,,,,3,2.18,1,,,,,,0.139494861,-0.25758496,1,0,0,2.18,Diorite_rect,15,0,15,0,1,
662b24af863fd5cc1437384c,TCR,2024-06-20_15h39.04.810,LearnStrategy,2023.2.3,Linux x86_64,60.24096386,7,1,1,-0.055219226,-0.002242088,1,0,0,1.7772,rock_grid_rect_2,7,08,-1,-1,1.777,0.134791621,-0.394934972,1,0,0,3.3888,Peridotite_rect,7,3.389,1,0,0,0,0,1,,,,,,,,,,,,,
662b24af863fd5cc1437384c,TCR,2024-06-20_15h39.04.810,LearnStrategy,2023.2.3,Linux x86_64,60.24096386,7,1,2,0.119382858,0.009580082,1,0,0,1.0606,rock_grid_rect_2,8,15,-1,-1,1.061,0.350941269,-0.397730439,1,0,0,6.4236,Pumice_rect,8,6.424,1,1,0,1,0,1,,,,,,,,,,,,,
662b24af863fd5cc1437384c,TCR,2024-06-20_15h39.04.810,LearnStrategy,2023.2.3,Linux x86_64,60.24096386,7,1,3,0.005303065,0.008711815,1,0,0,2.7272,rock_grid_rect_2,1,04,-1,-1,2.727,-0.396565579,-0.252502512,1,0,0,2.6567,Andesite_rect,1,2.657,1,2,0,2,0,1,,,,,,,,,,,,,
662b24af863fd5cc1437384c,TCR,2024-06-20_15h39.04.810,LearnStrategy,2023.2.3,Linux x86_64,60.24096386,7,1,4,0.018412767,-0.00629471,1,0,0,0.9086,rock_grid_rect_2,1,01,-1,-1,0.909,-0.419179528,-0.251885308,1,0,0,2.6742,Andesite_rect,1,2.674,1,3,0,3,0,1,,,,,,,,,,,,,
662b24af863fd5cc1437384c,TCR,2024-06-20_15h39.04.810,LearnStrategy,2023.2.3,Linux x86_64,60.24096386,7,1,5,0.082773774,-0.015820609,1,0,0,1.2599,rock_grid_rect_2,7,10,-1,-1,1.26,0.179776439,-0.407355697,1,0,0,1.4618,Peridotite_rect,7,1.462,1,4,0,4,0,1,,,,,,,,,,,,,
662b24af863fd5cc1437384c,TCR,2024-06-20_15h39.04.810,LearnStrategy,2023.2.3,Linux x86_64,60.24096386,7,1,6,0.094341278,-0.02457926,1,0,0,1.2951,rock_grid_rect_2,4,11,-1,-1,1.295,-0.058025855,-0.263157527,1,0,0,1.8279,Basalt_rect,2,1.828,0,5,0,5,0,1,,,,,,,,,,,,,
662b24af863fd5cc1437384c,TCR,2024-06-20_15h39.04.810,LearnStrategy,2023.2.3,Linux x86_64,60.24096386,7,1,7,0.054337607,0.003109331,1,0,0,1.5286,rock_grid_rect_2,1,09,-1,-1,1.529,-0.34465592,-0.264640455,1,0,0,2.5728,Andesite_rect,1,2.573,1,6,0,6,0,1,,,,,,,,,,,,,
662b24af863fd5cc1437384c,TCR,2024-06-20_15h39.04.810,LearnStrategy,2023.2.3,Linux x86_64,60.24096386,7,1,8,0.023889612,0.007552818,1,0,0,1.4264,rock_grid_rect_2,5,06,-1,-1,1.426,-0.347437929,-0.41449893,1,0,0,1.3136,Obsidian_rect,5,1.314,1,7,0,7,0,1,,,,,,,,,,,,,
662b24af863fd5cc1437384c,TCR,2024-06-20_15h39.04.810,LearnStrategy,2023.2.3,Linux x86_64,60.24096386,7,1,9,-0.018221255,0.010895623,1,0,0,1.1452,rock_grid_rect_2,2,04,-1,-1,1.145,-0.052556426,-0.253519623,1,0,0,1.4376,Basalt_rect,2,1.438,1,8,0,8,0,1,,,,,,,,,,,,,
662b24af863fd5cc1437384c,TCR,2024-06-20_15h39.04.810,LearnStrategy,2023.2.3,Linux x86_64,60.24096386,7,1,10,0.011132064,-0.007296209,1,0,0,1.0763,rock_grid_rect_2,4,05,-1,-1,1.076,0.319802743,-0.261129026,1,0,0,9.3925,Gabbro_rect,4,9.393,1,9,0,9,0,1,,,,,,,,,,,,,
662b24af863fd5cc1437384c,TCR,2024-06-20_15h39.04.810,LearnStrategy,2023.2.3,Linux x86_64,60.24096386,7,1,11,0.023422171,-0.015403995,1,0,0,1.0443,rock_grid_rect_2,3,11,-1,-1,1.044,0.101577406,-0.260610439,1,0,0,3.0595,Diorite_rect,3,3.06,1,10,0,10,0,1,,,,,,,,,,,,,
662b24af863fd5cc1437384c,TCR,2024-06-20_15h39.04.810,LearnStrategy,2023.2.3,Linux x86_64,60.24096386,7,1,12,0.0225349,-0.008298591,1,0,0,1.344,rock_grid_rect_2,4,14,-1,-1,1.344,0.344972399,-0.231356515,1,0,0,3.955,Gabbro_rect,4,3.955,1,11,0,11,0,1,,,,,,,,,,,,,
662b24af863fd5cc1437384c,TCR,2024-06-20_15h39.04.810,LearnStrategy,2023.2.3,Linux x86_64,60.24096386,7,1,13,-0.055761832,0.002945617,1,0,0,1.6441,rock_grid_rect_2,2,10,-1,-1,1.644,-0.119447002,-0.242110076,1,0,0,2.1666,Basalt_rect,2,2.167,1,12,0,12,0,1,,,,,,,,,,,,,
662b24af863fd5cc1437384c,TCR,2024-06-20_15h39.04.810,LearnStrategy,2023.2.3,Linux x86_64,60.24096386,7,1,14,0.002712603,-0.023563985,1,0,0,1.1788,rock_grid_rect_2,1,09,-1,-1,1.179,0.3483412,-0.22984759,1,0,0,3.6738,Gabbro_rect,4,3.674,0,13,0,13,0,1,,,,,,,,,,,,,
662b24af863fd5cc1437384c,TCR,2024-06-20_15h39.04.810,LearnStrategy,2023.2.3,Linux x86_64,60.24096386,7,1,15,0.048036858,0.02020631,1,0,0,1.2489,rock_grid_rect_2,4,13,-1,-1,1.249,0.417462243,-0.252667392,1,0,0,3.2283,Gabbro_rect,4,3.228,1,14,0,14,0,1,,,,,,,,,,,,,
662b24af863fd5cc1437384c,TCR,2024-06-20_15h39.04.810,LearnStrategy,2023.2.3,Linux x86_64,60.24096386,7,1,16,-0.027671885,-0.013821461,1,0,0,1.3101,rock_grid_rect_2,6,12,-1,-1,1.31,-0.062941021,-0.410135693,1,0,0,1.8431,Pegmatite_rect,6,1.843,1,15,0,15,0,1,,,,,,,,,,,,,
662b24af863fd5cc1437384c,TCR,2024-06-20_15h39.04.810,LearnStrategy,2023.2.3,Linux x86_64,60.24096386,7,2,1,,,,,,,,3,08,,,,,,,,,,,3,1.505,1,,,,,,0.16848324,-0.261082614,1,0,0,1.5055,Diorite_rect,0,0,0,0,1,
662b24af863fd5cc1437384c,TCR,2024-06-20_15h39.04.810,LearnStrategy,2023.2.3,Linux x86_64,60.24096386,7,2,2,,,,,,,,5,08,,,,,,,,,,,5,2.79,1,,,,,,-0.379794262,-0.392656962,1,0,0,2.7896,Obsidian_rect,1,0,1,0,1,
662b24af863fd5cc1437384c,TCR,2024-06-20_15h39.04.810,LearnStrategy,2023.2.3,Linux x86_64,60.24096386,7,2,3,,,,,,,,1,06,,,,,,,,,,,1,2.758,1,,,,,,-0.377152372,-0.252353598,1,0,0,2.7582,Andesite_rect,2,0,2,0,1,
662b24af863fd5cc1437384c,TCR,2024-06-20_15h39.04.810,LearnStrategy,2023.2.3,Linux x86_64,60.24096386,7,2,4,,,,,,,,1,11,,,,,,,,,,,4,2.806,0,,,,,,0.445347115,-0.264368057,1,0,0,2.8062,Gabbro_rect,3,0,3,0,1,
662b24af863fd5cc1437384c,TCR,2024-06-20_15h39.04.810,LearnStrategy,2023.2.3,Linux x86_64,60.24096386,7,2,5,,,,,,,,3,02,,,,,,,,,,,3,1.27,1,,,,,,0.105346326,-0.253128405,1,0,0,1.2697,Diorite_rect,4,0,4,0,1,
662b24af863fd5cc1437384c,TCR,2024-06-20_15h39.04.810,LearnStrategy,2023.2.3,Linux x86_64,60.24096386,7,2,6,,,,,,,,2,08,,,,,,,,,,,2,1.573,1,,,,,,-0.188104206,-0.234581347,1,0,0,1.5732,Basalt_rect,5,0,5,0,1,
662b24af863fd5cc1437384c,TCR,2024-06-20_15h39.04.810,LearnStrategy,2023.2.3,Linux x86_64,60.24096386,7,2,7,,,,,,,,4,08,,,,,,,,,,,4,2.367,1,,,,,,0.399963238,-0.244257821,1,0,0,2.367,Gabbro_rect,6,0,6,0,1,
662b24af863fd5cc1437384c,TCR,2024-06-20_15h39.04.810,LearnStrategy,2023.2.3,Linux x86_64,60.24096386,7,2,8,,,,,,,,4,03,,,,,,,,,,,4,5.938,1,,,,,,0.452301308,-0.241207123,1,0,0,5.9379,Gabbro_rect,7,0,7,0,1,
662b24af863fd5cc1437384c,TCR,2024-06-20_15h39.04.810,LearnStrategy,2023.2.3,Linux x86_64,60.24096386,7,2,9,,,,,,,,2,02,,,,,,,,,,,2,3.107,1,,,,,,-0.103495845,-0.258081012,1,0,0,3.107,Basalt_rect,8,0,8,0,1,
662b24af863fd5cc1437384c,TCR,2024-06-20_15h39.04.810,LearnStrategy,2023.2.3,Linux x86_64,60.24096386,7,2,10,,,,,,,,7,04,,,,,,,,,,,3,4.15,0,,,,,,0.15091564,-0.262275625,1,0,0,4.1497,Diorite_rect,9,0,9,0,1,
662b24af863fd5cc1437384c,TCR,2024-06-20_15h39.04.810,LearnStrategy,2023.2.3,Linux x86_64,60.24096386,7,2,11,,,,,,,,8,02,,,,,,,,,,,8,1.756,1,,,,,,0.408082891,-0.383561594,1,0,0,1.7558,Pumice_rect,10,0,10,0,1,
662b24af863fd5cc1437384c,TCR,2024-06-20_15h39.04.810,LearnStrategy,2023.2.3,Linux x86_64,60.24096386,7,2,12,,,,,,,,8,05,,,,,,,,,,,8,1.878,1,,,,,,0.44423068,-0.418086794,1,0,0,1.8777,Pumice_rect,11,0,11,0,1,
662b24af863fd5cc1437384c,TCR,2024-06-20_15h39.04.810,LearnStrategy,2023.2.3,Linux x86_64,60.24096386,7,2,13,,,,,,,,6,06,,,,,,,,,,,6,3.577,1,,,,,,-0.143933049,-0.396910985,1,0,0,3.5769,Pegmatite_rect,12,0,12,0,1,
662b24af863fd5cc1437384c,TCR,2024-06-20_15h39.04.810,LearnStrategy,2023.2.3,Linux x86_64,60.24096386,7,2,14,,,,,,,,7,12,,,,,,,,,,,7,1.322,1,,,,,,0.106301202,-0.417252364,1,0,0,1.3221,Peridotite_rect,13,0,13,0,1,
662b24af863fd5cc1437384c,TCR,2024-06-20_15h39.04.810,LearnStrategy,2023.2.3,Linux x86_64,60.24096386,7,2,15,,,,,,,,5,02,,,,,,,,,,,5,1.489,1,,,,,,-0.433436959,-0.384214401,1,0,0,1.4886,Obsidian_rect,14,0,14,0,1,
662b24af863fd5cc1437384c,TCR,2024-06-20_15h39.04.810,LearnStrategy,2023.2.3,Linux x86_64,60.24096386,7,2,16,,,,,,,,6,08,,,,,,,,,,,6,1.516,1,,,,,,-0.130562535,-0.402648007,1,0,0,1.5162,Pegmatite_rect,15,0,15,0,1,
662b24af863fd5cc1437384c,TCR,2024-06-20_15h39.04.810,LearnStrategy,2023.2.3,Linux x86_64,60.24096386,8,1,1,-0.104588049,0.002370128,1,0,0,1.1958,rock_grid_rect_2,1,02,-1,-1,1.196,0.399923254,-0.242263723,1,0,0,5.4259,Gabbro_rect,4,5.426,0,0,0,0,0,1,,,,,,,,,,,,,
662b24af863fd5cc1437384c,TCR,2024-06-20_15h39.04.810,LearnStrategy,2023.2.3,Linux x86_64,60.24096386,8,1,2,0.009108861,-0.004387008,1,0,0,1.161,rock_grid_rect_2,7,15,-1,-1,1.161,0.122536129,-0.3890099,1,0,0,1.7897,Peridotite_rect,7,1.79,1,1,0,1,0,1,,,,,,,,,,,,,
662b24af863fd5cc1437384c,TCR,2024-06-20_15h39.04.810,LearnStrategy,2023.2.3,Linux x86_64,60.24096386,8,1,3,-0.047817442,-0.012625588,1,0,0,1.0117,rock_grid_rect_2,8,06,-1,-1,1.012,0.376337122,-0.388546979,1,0,0,1.5187,Pumice_rect,8,1.519,1,2,0,2,0,1,,,,,,,,,,,,,
662b24af863fd5cc1437384c,TCR,2024-06-20_15h39.04.810,LearnStrategy,2023.2.3,Linux x86_64,60.24096386,8,1,4,0.098380407,-0.02280426,1,0,0,1.2455,rock_grid_rect_2,4,10,-1,-1,1.245,-0.111288848,-0.237413124,1,0,0,2.7303,Basalt_rect,2,2.73,0,3,0,3,0,1,,,,,,,,,,,,,
662b24af863fd5cc1437384c,TCR,2024-06-20_15h39.04.810,LearnStrategy,2023.2.3,Linux x86_64,60.24096386,8,1,5,-0.012981909,-0.020585484,1,0,0,1.0603,rock_grid_rect_2,1,02,-1,-1,1.06,-0.440453035,-0.231853697,1,0,0,1.6175,Andesite_rect,1,1.617,1,4,0,4,0,1,,,,,,,,,,,,,
662b24af863fd5cc1437384c,TCR,2024-06-20_15h39.04.810,LearnStrategy,2023.2.3,Linux x86_64,60.24096386,8,1,6,-0.017687833,-0.017744347,1,0,0,2.4951,rock_grid_rect_2,1,04,-1,-1,2.495,-0.371851709,-0.249551491,1,0,0,1.9542,Andesite_rect,1,1.954,1,5,0,5,0,1,,,,,,,,,,,,,
662b24af863fd5cc1437384c,TCR,2024-06-20_15h39.04.810,LearnStrategy,2023.2.3,Linux x86_64,60.24096386,8,1,7,0.00412065,-0.015080099,1,0,0,1.5458,rock_grid_rect_2,7,08,-1,-1,1.546,0.097339348,-0.38800183,1,0,0,1.5558,Peridotite_rect,7,1.556,1,6,0,6,0,1,,,,,,,,,,,,,
662b24af863fd5cc1437384c,TCR,2024-06-20_15h39.04.810,LearnStrategy,2023.2.3,Linux x86_64,60.24096386,8,1,8,0.013410286,0.010870651,1,0,0,1.1602,rock_grid_rect_2,2,11,-1,-1,1.16,-0.092639994,-0.266395498,1,0,0,5.2354,Basalt_rect,2,5.235,1,7,0,7,0,1,,,,,,,,,,,,,
662b24af863fd5cc1437384c,TCR,2024-06-20_15h39.04.810,LearnStrategy,2023.2.3,Linux x86_64,60.24096386,8,1,9,-0.006501374,-0.008033011,1,0,0,1.4265,rock_grid_rect_2,4,13,-1,-1,1.427,0.391601986,-0.261612221,1,0,0,2.3368,Gabbro_rect,4,2.337,1,8,0,8,0,1,,,,,,,,,,,,,
662b24af863fd5cc1437384c,TCR,2024-06-20_15h39.04.810,LearnStrategy,2023.2.3,Linux x86_64,60.24096386,8,1,10,0.021232817,0.001216359,1,0,0,2.0273,rock_grid_rect_2,6,10,-1,-1,2.027,-0.083224685,-0.393979602,1,0,0,1.5335,Pegmatite_rect,6,1.534,1,9,0,9,0,1,,,,,,,,,,,,,
662b24af863fd5cc1437384c,TCR,2024-06-20_15h39.04.810,LearnStrategy,2023.2.3,Linux x86_64,60.24096386,8,1,11,0.010907562,-0.006044352,1,0,0,1.1453,rock_grid_rect_2,7,15,-1,-1,1.145,0.162956874,-0.413884622,1,0,0,1.3092,Peridotite_rect,7,1.309,1,10,0,10,0,1,,,,,,,,,,,,,
662b24af863fd5cc1437384c,TCR,2024-06-20_15h39.04.810,LearnStrategy,2023.2.3,Linux x86_64,60.24096386,8,1,12,0.031134358,0.002654676,1,0,0,1.2622,rock_grid_rect_2,1,01,-1,-1,1.262,-0.315457415,-0.260151404,1,0,0,2.1398,Andesite_rect,1,2.14,1,11,0,11,0,1,,,,,,,,,,,,,
662b24af863fd5cc1437384c,TCR,2024-06-20_15h39.04.810,LearnStrategy,2023.2.3,Linux x86_64,60.24096386,8,1,13,0.048064055,0.001108805,1,0,0,1.4291,rock_grid_rect_2,5,07,-1,-1,1.429,-0.364824472,-0.405874959,1,0,0,2.3111,Obsidian_rect,5,2.311,1,12,0,12,0,1,,,,,,,,,,,,,
662b24af863fd5cc1437384c,TCR,2024-06-20_15h39.04.810,LearnStrategy,2023.2.3,Linux x86_64,60.24096386,8,1,14,-0.015638351,0.015284715,1,0,0,1.0444,rock_grid_rect_2,3,11,-1,-1,1.044,0.130030243,-0.244014811,1,0,0,2.2888,Diorite_rect,3,2.289,1,13,0,13,0,1,,,,,,,,,,,,,
662b24af863fd5cc1437384c,TCR,2024-06-20_15h39.04.810,LearnStrategy,2023.2.3,Linux x86_64,60.24096386,8,1,15,0.065612581,-0.006317527,1,0,0,0.9114,rock_grid_rect_2,2,14,-1,-1,0.911,-0.125261165,-0.244384483,1,0,0,4.04,Basalt_rect,2,4.04,1,14,0,14,0,1,,,,,,,,,,,,,
662b24af863fd5cc1437384c,TCR,2024-06-20_15h39.04.810,LearnStrategy,2023.2.3,Linux x86_64,60.24096386,8,1,16,0.054422732,-0.018527808,1,0,0,1.1939,rock_grid_rect_2,4,12,-1,-1,1.194,0.397509398,-0.264266049,1,0,0,3.2767,Gabbro_rect,4,3.277,1,15,0,15,0,1,,,,,,,,,,,,,
662b24af863fd5cc1437384c,TCR,2024-06-20_15h39.04.810,LearnStrategy,2023.2.3,Linux x86_64,60.24096386,8,2,1,,,,,,,,1,14,,,,,,,,,,,4,7.22,0,,,,,,0.37915364,-0.256899233,1,0,0,7.2197,Gabbro_rect,0,0,0,0,1,
662b24af863fd5cc1437384c,TCR,2024-06-20_15h39.04.810,LearnStrategy,2023.2.3,Linux x86_64,60.24096386,8,2,2,,,,,,,,8,16,,,,,,,,,,,8,8.49,1,,,,,,0.414351711,-0.393932484,1,0,0,8.4902,Pumice_rect,1,0,1,0,1,
662b24af863fd5cc1437384c,TCR,2024-06-20_15h39.04.810,LearnStrategy,2023.2.3,Linux x86_64,60.24096386,8,2,3,,,,,,,,2,16,,,,,,,,,,,2,1.844,1,,,,,,-0.131795883,-0.245648137,1,0,0,1.8442,Basalt_rect,2,0,2,0,1,
662b24af863fd5cc1437384c,TCR,2024-06-20_15h39.04.810,LearnStrategy,2023.2.3,Linux x86_64,60.24096386,8,2,4,,,,,,,,7,07,,,,,,,,,,,7,1.988,1,,,,,,0.123993414,-0.399682787,1,0,0,1.9879,Peridotite_rect,3,0,3,0,1,
662b24af863fd5cc1437384c,TCR,2024-06-20_15h39.04.810,LearnStrategy,2023.2.3,Linux x86_64,60.24096386,8,2,5,,,,,,,,5,10,,,,,,,,,,,5,1.519,1,,,,,,-0.377422509,-0.394201208,1,0,0,1.5186,Obsidian_rect,4,0,4,0,1,
662b24af863fd5cc1437384c,TCR,2024-06-20_15h39.04.810,LearnStrategy,2023.2.3,Linux x86_64,60.24096386,8,2,6,,,,,,,,3,14,,,,,,,,,,,3,2.37,1,,,,,,0.088788421,-0.24731297,1,0,0,2.3701,Diorite_rect,5,0,5,0,1,
662b24af863fd5cc1437384c,TCR,2024-06-20_15h39.04.810,LearnStrategy,2023.2.3,Linux x86_64,60.24096386,8,2,7,,,,,,,,1,05,,,,,,,,,,,7,2.409,0,,,,,,0.119331784,-0.382006539,1,0,0,2.4089,Peridotite_rect,6,0,6,0,1,
662b24af863fd5cc1437384c,TCR,2024-06-20_15h39.04.810,LearnStrategy,2023.2.3,Linux x86_64,60.24096386,8,2,8,,,,,,,,5,05,,,,,,,,,,,5,1.721,1,,,,,,-0.391661079,-0.395917045,1,0,0,1.7214,Obsidian_rect,7,0,7,0,1,
662b24af863fd5cc1437384c,TCR,2024-06-20_15h39.04.810,LearnStrategy,2023.2.3,Linux x86_64,60.24096386,8,2,9,,,,,,,,6,05,,,,,,,,,,,6,5.839,1,,,,,,-0.097989895,-0.41488711,1,0,0,5.8393,Pegmatite_rect,8,0,8,0,1,
662b24af863fd5cc1437384c,TCR,2024-06-20_15h39.04.810,LearnStrategy,2023.2.3,Linux x86_64,60.24096386,8,2,10,,,,,,,,2,01,,,,,,,,,,,2,1.555,1,,,,,,-0.090432414,-0.267773169,1,0,0,1.5545,Basalt_rect,9,0,9,0,1,
662b24af863fd5cc1437384c,TCR,2024-06-20_15h39.04.810,LearnStrategy,2023.2.3,Linux x86_64,60.24096386,8,2,11,,,,,,,,7,06,,,,,,,,,,,7,1.239,1,,,,,,0.105000602,-0.395073997,1,0,0,1.2389,Peridotite_rect,10,0,10,0,1,
662b24af863fd5cc1437384c,TCR,2024-06-20_15h39.04.810,LearnStrategy,2023.2.3,Linux x86_64,60.24096386,8,2,12,,,,,,,,8,10,,,,,,,,,,,4,9.856,0,,,,,,0.365774932,-0.241769791,1,0,0,9.8558,Gabbro_rect,11,0,11,0,1,
662b24af863fd5cc1437384c,TCR,2024-06-20_15h39.04.810,LearnStrategy,2023.2.3,Linux x86_64,60.24096386,8,2,13,,,,,,,,4,01,,,,,,,,,,,4,2.572,1,,,,,,0.367528703,-0.232554612,1,0,0,2.5715,Gabbro_rect,12,0,12,0,1,
662b24af863fd5cc1437384c,TCR,2024-06-20_15h39.04.810,LearnStrategy,2023.2.3,Linux x86_64,60.24096386,8,2,14,,,,,,,,3,09,,,,,,,,,,,3,1.277,1,,,,,,0.172003287,-0.255959899,1,0,0,1.277,Diorite_rect,13,0,13,0,1,
662b24af863fd5cc1437384c,TCR,2024-06-20_15h39.04.810,LearnStrategy,2023.2.3,Linux x86_64,60.24096386,8,2,15,,,,,,,,4,09,,,,,,,,,,,4,3.188,1,,,,,,0.376356902,-0.234740716,1,0,0,3.188,Gabbro_rect,14,0,14,0,1,
662b24af863fd5cc1437384c,TCR,2024-06-20_15h39.04.810,LearnStrategy,2023.2.3,Linux x86_64,60.24096386,8,2,16,,,,,,,,6,11,,,,,,,,,,,6,1.671,1,,,,,,-0.149895633,-0.39279641,1,0,0,1.6713,Pegmatite_rect,15,0,15,0,1,
662b24af863fd5cc1437384c,TCR,2024-06-20_15h39.04.810,LearnStrategy,2023.2.3,Linux x86_64,60.24096386,9,1,1,0.014617567,-0.005839984,1,0,0,1.4052,rock_grid_rect_2,1,09,-1,-1,1.405,0.344710315,-0.261863991,1,0,0,10.1908,Gabbro_rect,4,10.191,0,0,0,0,0,1,,,,,,,,,,,,,
662b24af863fd5cc1437384c,TCR,2024-06-20_15h39.04.810,LearnStrategy,2023.2.3,Linux x86_64,60.24096386,9,1,2,0.053880833,0.006398413,1,0,0,1.227,rock_grid_rect_2,5,07,-1,-1,1.227,-0.384606927,-0.417775684,1,0,0,1.3486,Obsidian_rect,5,1.349,1,1,0,1,0,1,,,,,,,,,,,,,
662b24af863fd5cc1437384c,TCR,2024-06-20_15h39.04.810,LearnStrategy,2023.2.3,Linux x86_64,60.24096386,9,1,3,0.02739539,-0.016623003,1,0,0,2.8123,rock_grid_rect_2,1,02,-1,-1,2.812,0.334871928,-0.244947857,1,0,0,5.5201,Gabbro_rect,4,5.52,0,2,0,2,0,1,,,,,,,,,,,,,
662b24af863fd5cc1437384c,TCR,2024-06-20_15h39.04.810,LearnStrategy,2023.2.3,Linux x86_64,60.24096386,9,1,4,0.013810829,-0.013302061,1,0,0,1.077,rock_grid_rect_2,2,05,-1,-1,1.077,-0.100266704,-0.258270405,1,0,0,1.0279,Basalt_rect,2,1.028,1,3,0,3,0,1,,,,,,,,,,,,,
662b24af863fd5cc1437384c,TCR,2024-06-20_15h39.04.810,LearnStrategy,2023.2.3,Linux x86_64,60.24096386,9,1,5,0.030634492,-0.006889979,1,0,0,0.8785,rock_grid_rect_2,1,01,-1,-1,0.878,-0.357643233,-0.261955261,1,0,0,1.9946,Andesite_rect,1,1.995,1,4,0,4,0,1,,,,,,,,,,,,,
662b24af863fd5cc1437384c,TCR,2024-06-20_15h39.04.810,LearnStrategy,2023.2.3,Linux x86_64,60.24096386,9,1,6,0.030527186,0.003117314,1,0,0,0.8791,rock_grid_rect_2,4,05,-1,-1,0.879,0.382134755,-0.255949162,1,0,0,3.373,Gabbro_rect,4,3.373,1,5,0,5,0,1,,,,,,,,,,,,,
662b24af863fd5cc1437384c,TCR,2024-06-20_15h39.04.810,LearnStrategy,2023.2.3,Linux x86_64,60.24096386,9,1,7,0.04813604,0.011926934,1,0,0,1.2438,rock_grid_rect_2,8,06,-1,-1,1.244,0.350612075,-0.380072488,1,0,0,2.6459,Pumice_rect,8,2.646,1,6,0,6,0,1,,,,,,,,,,,,,
662b24af863fd5cc1437384c,TCR,2024-06-20_15h39.04.810,LearnStrategy,2023.2.3,Linux x86_64,60.24096386,9,1,8,0.090789159,0.006073104,1,0,0,1.1939,rock_grid_rect_2,1,02,-1,-1,1.194,-0.322286535,-0.243750466,1,0,0,1.9555,Andesite_rect,1,1.956,1,7,0,7,0,1,,,,,,,,,,,,,
662b24af863fd5cc1437384c,TCR,2024-06-20_15h39.04.810,LearnStrategy,2023.2.3,Linux x86_64,60.24096386,9,1,9,-0.024145338,0.004823473,1,0,0,1.6283,rock_grid_rect_2,7,08,-1,-1,1.628,0.158957375,-0.414826923,1,0,0,1.5734,Peridotite_rect,7,1.573,1,8,0,8,0,1,,,,,,,,,,,,,
662b24af863fd5cc1437384c,TCR,2024-06-20_15h39.04.810,LearnStrategy,2023.2.3,Linux x86_64,60.24096386,9,1,10,0.020167881,0.008715206,1,0,0,1.3793,rock_grid_rect_2,8,06,-1,-1,1.379,0.422384898,-0.41749933,1,0,0,1.1955,Pumice_rect,8,1.195,1,9,0,9,0,1,,,,,,,,,,,,,
662b24af863fd5cc1437384c,TCR,2024-06-20_15h39.04.810,LearnStrategy,2023.2.3,Linux x86_64,60.24096386,9,1,11,0.031587318,-0.001866341,1,0,0,1.312,rock_grid_rect_2,1,04,-1,-1,1.312,-0.306895715,-0.254733898,1,0,0,2.2228,Andesite_rect,1,2.223,1,10,0,10,0,1,,,,,,,,,,,,,
662b24af863fd5cc1437384c,TCR,2024-06-20_15h39.04.810,LearnStrategy,2023.2.3,Linux x86_64,60.24096386,9,1,12,-0.024298279,-0.016027945,1,0,0,1.5789,rock_grid_rect_2,4,12,-1,-1,1.579,0.425682068,-0.243722351,1,0,0,3.2259,Gabbro_rect,4,3.226,1,11,0,11,0,1,,,,,,,,,,,,,
662b24af863fd5cc1437384c,TCR,2024-06-20_15h39.04.810,LearnStrategy,2023.2.3,Linux x86_64,60.24096386,9,1,13,0.032331891,0.000511664,1,0,0,1.1938,rock_grid_rect_2,7,05,-1,-1,1.194,0.106955987,-0.38464193,1,0,0,2.29,Peridotite_rect,7,2.29,1,12,0,12,0,1,,,,,,,,,,,,,
662b24af863fd5cc1437384c,TCR,2024-06-20_15h39.04.810,LearnStrategy,2023.2.3,Linux x86_64,60.24096386,9,1,14,0.063294022,0.002036695,1,0,0,1.3115,rock_grid_rect_2,6,07,-1,-1,1.311,-0.126990495,-0.382289745,1,0,0,1.7168,Pegmatite_rect,6,1.717,1,13,0,13,0,1,,,,,,,,,,,,,
662b24af863fd5cc1437384c,TCR,2024-06-20_15h39.04.810,LearnStrategy,2023.2.3,Linux x86_64,60.24096386,9,1,15,-0.011757674,-0.019655263,1,0,0,1.5954,rock_grid_rect_2,4,13,-1,-1,1.595,0.369997519,-0.242625978,1,0,0,1.805,Gabbro_rect,4,1.805,1,14,0,14,0,1,,,,,,,,,,,,,
662b24af863fd5cc1437384c,TCR,2024-06-20_15h39.04.810,LearnStrategy,2023.2.3,Linux x86_64,60.24096386,9,1,16,0.063278975,-0.000116878,1,0,0,2.0955,rock_grid_rect_2,3,06,-1,-1,2.096,0.092269827,-0.240973508,1,0,0,1.3563,Diorite_rect,3,1.356,1,15,0,15,0,1,,,,,,,,,,,,,
662b24af863fd5cc1437384c,TCR,2024-06-20_15h39.04.810,LearnStrategy,2023.2.3,Linux x86_64,60.24096386,9,2,1,,,,,,,,1,16,,,,,,,,,,,4,5.722,0,,,,,,0.380890882,-0.248498493,1,0,0,5.7216,Gabbro_rect,0,0,0,0,1,
662b24af863fd5cc1437384c,TCR,2024-06-20_15h39.04.810,LearnStrategy,2023.2.3,Linux x86_64,60.24096386,9,2,2,,,,,,,,2,12,,,,,,,,,,,4,8.988,0,,,,,,0.416274883,-0.238637642,1,0,0,8.9879,Gabbro_rect,1,0,1,0,1,
662b24af863fd5cc1437384c,TCR,2024-06-20_15h39.04.810,LearnStrategy,2023.2.3,Linux x86_64,60.24096386,9,2,3,,,,,,,,5,12,,,,,,,,,,,5,1.555,1,,,,,,-0.368332121,-0.41880982,1,0,0,1.5549,Obsidian_rect,2,0,2,0,1,
662b24af863fd5cc1437384c,TCR,2024-06-20_15h39.04.810,LearnStrategy,2023.2.3,Linux x86_64,60.24096386,9,2,4,,,,,,,,6,16,,,,,,,,,,,6,1.819,1,,,,,,-0.123632148,-0.406629986,1,0,0,1.819,Pegmatite_rect,3,0,3,0,1,
662b24af863fd5cc1437384c,TCR,2024-06-20_15h39.04.810,LearnStrategy,2023.2.3,Linux x86_64,60.24096386,9,2,5,,,,,,,,6,09,,,,,,,,,,,6,3.555,1,,,,,,-0.091559799,-0.390964155,1,0,0,3.5554,Pegmatite_rect,4,0,4,0,1,
662b24af863fd5cc1437384c,TCR,2024-06-20_15h39.04.810,LearnStrategy,2023.2.3,Linux x86_64,60.24096386,9,2,6,,,,,,,,4,15,,,,,,,,,,,4,3.372,1,,,,,,0.378887459,-0.238869632,1,0,0,3.3724,Gabbro_rect,5,0,5,0,1,
662b24af863fd5cc1437384c,TCR,2024-06-20_15h39.04.810,LearnStrategy,2023.2.3,Linux x86_64,60.24096386,9,2,7,,,,,,,,8,13,,,,,,,,,,,8,2.356,1,,,,,,0.382459429,-0.421546159,1,0,0,2.356,Pumice_rect,6,0,6,0,1,
662b24af863fd5cc1437384c,TCR,2024-06-20_15h39.04.810,LearnStrategy,2023.2.3,Linux x86_64,60.24096386,9,2,8,,,,,,,,7,13,,,,,,,,,,,7,1.172,1,,,,,,0.111005783,-0.400246161,1,0,0,1.1716,Peridotite_rect,7,0,7,0,1,
662b24af863fd5cc1437384c,TCR,2024-06-20_15h39.04.810,LearnStrategy,2023.2.3,Linux x86_64,60.24096386,9,2,9,,,,,,,,4,16,,,,,,,,,,,4,4.506,1,,,,,,0.464798115,-0.261448401,1,0,0,4.5064,Gabbro_rect,8,0,8,0,1,
662b24af863fd5cc1437384c,TCR,2024-06-20_15h39.04.810,LearnStrategy,2023.2.3,Linux x86_64,60.24096386,9,2,10,,,,,,,,2,09,,,,,,,,,,,2,4.461,1,,,,,,-0.109012109,-0.238398729,1,0,0,4.4615,Basalt_rect,9,0,9,0,1,
662b24af863fd5cc1437384c,TCR,2024-06-20_15h39.04.810,LearnStrategy,2023.2.3,Linux x86_64,60.24096386,9,2,11,,,,,,,,1,03,,,,,,,,,,,1,1.54,1,,,,,,-0.39016487,-0.239141323,1,0,0,1.5397,Andesite_rect,10,0,10,0,1,
662b24af863fd5cc1437384c,TCR,2024-06-20_15h39.04.810,LearnStrategy,2023.2.3,Linux x86_64,60.24096386,9,2,12,,,,,,,,3,12,,,,,,,,,,,3,1.256,1,,,,,,0.121656065,-0.255040557,1,0,0,1.2563,Diorite_rect,11,0,11,0,1,
662b24af863fd5cc1437384c,TCR,2024-06-20_15h39.04.810,LearnStrategy,2023.2.3,Linux x86_64,60.24096386,9,2,13,,,,,,,,8,04,,,,,,,,,,,8,1.271,1,,,,,,0.37732089,-0.38946844,1,0,0,1.2705,Pumice_rect,12,0,12,0,1,
662b24af863fd5cc1437384c,TCR,2024-06-20_15h39.04.810,LearnStrategy,2023.2.3,Linux x86_64,60.24096386,9,2,14,,,,,,,,7,14,,,,,,,,,,,7,2.108,1,,,,,,0.118063256,-0.388559412,1,0,0,2.1079,Peridotite_rect,13,0,13,0,1,
662b24af863fd5cc1437384c,TCR,2024-06-20_15h39.04.810,LearnStrategy,2023.2.3,Linux x86_64,60.24096386,9,2,15,,,,,,,,5,16,,,,,,,,,,,5,1.821,1,,,,,,-0.385727211,-0.383597409,1,0,0,1.8213,Obsidian_rect,14,0,14,0,1,
662b24af863fd5cc1437384c,TCR,2024-06-20_15h39.04.810,LearnStrategy,2023.2.3,Linux x86_64,60.24096386,9,2,16,,,,,,,,3,10,,,,,,,,,,,1,3.052,0,,,,,,-0.335168344,-0.248355159,1,0,0,3.0518,Andesite_rect,15,0,15,0,1,
662b24af863fd5cc1437384c,TCR,2024-06-20_15h39.04.810,LearnStrategy,2023.2.3,Linux x86_64,60.24096386,,,,,,,,,,,,,,,,,,,,,,,,,,,,,,,,,,,,,,,,,,,1
662b24af863fd5cc1437384c,TCR,2024-06-20_15h39.04.810,LearnStrategy,2023.2.3,Linux x86_64,60.24096386,,,,,,,,,,,,,,,,,,,,,,,,,,,,,,,,,,,,,,,,,,,
662b24af863fd5cc1437384c,TCR,2024-06-20_15h39.04.810,LearnStrategy,2023.2.3,Linux x86_64,60.24096386,,,,,,,,,,,4,05,1,1,,,,,,,,,,,,,,,,,,,,,,,,,,,,,
662b24af863fd5cc1437384c,TCR,2024-06-20_15h39.04.810,LearnStrategy,2023.2.3,Linux x86_64,60.24096386,,,,,,,,,,,1,07,1,2,,,,,,,,,,,,,,,,,,,,,,,,,,,,,
662b24af863fd5cc1437384c,TCR,2024-06-20_15h39.04.810,LearnStrategy,2023.2.3,Linux x86_64,60.24096386,,,,,,,,,,,3,11,1,3,,,,,,,,,,,,,,,,,,,,,,,,,,,,,
662b24af863fd5cc1437384c,TCR,2024-06-20_15h39.04.810,LearnStrategy,2023.2.3,Linux x86_64,60.24096386,,,,,,,,,,,1,09,1,4,,,,,,,,,,,,,,,,,,,,,,,,,,,,,
662b24af863fd5cc1437384c,TCR,2024-06-20_15h39.04.810,LearnStrategy,2023.2.3,Linux x86_64,60.24096386,,,,,,,,,,,5,04,1,5,,,,,,,,,,,,,,,,,,,,,,,,,,,,,
662b24af863fd5cc1437384c,TCR,2024-06-20_15h39.04.810,LearnStrategy,2023.2.3,Linux x86_64,60.24096386,,,,,,,,,,,5,07,1,6,,,,,,,,,,,,,,,,,,,,,,,,,,,,,
662b24af863fd5cc1437384c,TCR,2024-06-20_15h39.04.810,LearnStrategy,2023.2.3,Linux x86_64,60.24096386,,,,,,,,,,,3,13,1,7,,,,,,,,,,,,,,,,,,,,,,,,,,,,,
662b24af863fd5cc1437384c,TCR,2024-06-20_15h39.04.810,LearnStrategy,2023.2.3,Linux x86_64,60.24096386,,,,,,,,,,,4,14,1,8,,,,,,,,,,,,,,,,,,,,,,,,,,,,,
662b24af863fd5cc1437384c,TCR,2024-06-20_15h39.04.810,LearnStrategy,2023.2.3,Linux x86_64,60.24096386,,,,,,,,,,,7,16,2,1,,,,,,,,,,,,,,,,,,,,,,,,,,,,,
662b24af863fd5cc1437384c,TCR,2024-06-20_15h39.04.810,LearnStrategy,2023.2.3,Linux x86_64,60.24096386,,,,,,,,,,,6,10,2,2,,,,,,,,,,,,,,,,,,,,,,,,,,,,,
662b24af863fd5cc1437384c,TCR,2024-06-20_15h39.04.810,LearnStrategy,2023.2.3,Linux x86_64,60.24096386,,,,,,,,,,,5,14,2,3,,,,,,,,,,,,,,,,,,,,,,,,,,,,,
662b24af863fd5cc1437384c,TCR,2024-06-20_15h39.04.810,LearnStrategy,2023.2.3,Linux x86_64,60.24096386,,,,,,,,,,,2,04,2,4,,,,,,,,,,,,,,,,,,,,,,,,,,,,,
662b24af863fd5cc1437384c,TCR,2024-06-20_15h39.04.810,LearnStrategy,2023.2.3,Linux x86_64,60.24096386,,,,,,,,,,,6,03,2,5,,,,,,,,,,,,,,,,,,,,,,,,,,,,,
662b24af863fd5cc1437384c,TCR,2024-06-20_15h39.04.810,LearnStrategy,2023.2.3,Linux x86_64,60.24096386,,,,,,,,,,,1,10,2,6,,,,,,,,,,,,,,,,,,,,,,,,,,,,,
662b24af863fd5cc1437384c,TCR,2024-06-20_15h39.04.810,LearnStrategy,2023.2.3,Linux x86_64,60.24096386,,,,,,,,,,,7,08,2,7,,,,,,,,,,,,,,,,,,,,,,,,,,,,,
662b24af863fd5cc1437384c,TCR,2024-06-20_15h39.04.810,LearnStrategy,2023.2.3,Linux x86_64,60.24096386,,,,,,,,,,,2,05,2,8,,,,,,,,,,,,,,,,,,,,,,,,,,,,,
662b24af863fd5cc1437384c,TCR,2024-06-20_15h39.04.810,LearnStrategy,2023.2.3,Linux x86_64,60.24096386,,,,,,,,,,,2,06,3,1,,,,,,,,,,,,,,,,,,,,,,,,,,,,,
662b24af863fd5cc1437384c,TCR,2024-06-20_15h39.04.810,LearnStrategy,2023.2.3,Linux x86_64,60.24096386,,,,,,,,,,,1,02,3,2,,,,,,,,,,,,,,,,,,,,,,,,,,,,,
662b24af863fd5cc1437384c,TCR,2024-06-20_15h39.04.810,LearnStrategy,2023.2.3,Linux x86_64,60.24096386,,,,,,,,,,,3,06,3,3,,,,,,,,,,,,,,,,,,,,,,,,,,,,,
662b24af863fd5cc1437384c,TCR,2024-06-20_15h39.04.810,LearnStrategy,2023.2.3,Linux x86_64,60.24096386,,,,,,,,,,,6,13,3,4,,,,,,,,,,,,,,,,,,,,,,,,,,,,,
662b24af863fd5cc1437384c,TCR,2024-06-20_15h39.04.810,LearnStrategy,2023.2.3,Linux x86_64,60.24096386,,,,,,,,,,,7,05,3,5,,,,,,,,,,,,,,,,,,,,,,,,,,,,,
662b24af863fd5cc1437384c,TCR,2024-06-20_15h39.04.810,LearnStrategy,2023.2.3,Linux x86_64,60.24096386,,,,,,,,,,,6,07,3,6,,,,,,,,,,,,,,,,,,,,,,,,,,,,,
662b24af863fd5cc1437384c,TCR,2024-06-20_15h39.04.810,LearnStrategy,2023.2.3,Linux x86_64,60.24096386,,,,,,,,,,,6,12,3,7,,,,,,,,,,,,,,,,,,,,,,,,,,,,,
662b24af863fd5cc1437384c,TCR,2024-06-20_15h39.04.810,LearnStrategy,2023.2.3,Linux x86_64,60.24096386,,,,,,,,,,,7,02,3,8,,,,,,,,,,,,,,,,,,,,,,,,,,,,,
662b24af863fd5cc1437384c,TCR,2024-06-20_15h39.04.810,LearnStrategy,2023.2.3,Linux x86_64,60.24096386,,,,,,,,,,,7,10,4,1,,,,,,,,,,,,,,,,,,,,,,,,,,,,,
662b24af863fd5cc1437384c,TCR,2024-06-20_15h39.04.810,LearnStrategy,2023.2.3,Linux x86_64,60.24096386,,,,,,,,,,,8,06,4,2,,,,,,,,,,,,,,,,,,,,,,,,,,,,,
662b24af863fd5cc1437384c,TCR,2024-06-20_15h39.04.810,LearnStrategy,2023.2.3,Linux x86_64,60.24096386,,,,,,,,,,,3,16,4,3,,,,,,,,,,,,,,,,,,,,,,,,,,,,,
662b24af863fd5cc1437384c,TCR,2024-06-20_15h39.04.810,LearnStrategy,2023.2.3,Linux x86_64,60.24096386,,,,,,,,,,,3,15,4,4,,,,,,,,,,,,,,,,,,,,,,,,,,,,,
662b24af863fd5cc1437384c,TCR,2024-06-20_15h39.04.810,LearnStrategy,2023.2.3,Linux x86_64,60.24096386,,,,,,,,,,,1,04,4,5,,,,,,,,,,,,,,,,,,,,,,,,,,,,,
662b24af863fd5cc1437384c,TCR,2024-06-20_15h39.04.810,LearnStrategy,2023.2.3,Linux x86_64,60.24096386,,,,,,,,,,,8,14,4,6,,,,,,,,,,,,,,,,,,,,,,,,,,,,,
662b24af863fd5cc1437384c,TCR,2024-06-20_15h39.04.810,LearnStrategy,2023.2.3,Linux x86_64,60.24096386,,,,,,,,,,,6,15,4,7,,,,,,,,,,,,,,,,,,,,,,,,,,,,,
662b24af863fd5cc1437384c,TCR,2024-06-20_15h39.04.810,LearnStrategy,2023.2.3,Linux x86_64,60.24096386,,,,,,,,,,,4,13,4,8,,,,,,,,,,,,,,,,,,,,,,,,,,,,,
662b24af863fd5cc1437384c,TCR,2024-06-20_15h39.04.810,LearnStrategy,2023.2.3,Linux x86_64,60.24096386,,,,,,,,,,,2,10,5,1,,,,,,,,,,,,,,,,,,,,,,,,,,,,,
662b24af863fd5cc1437384c,TCR,2024-06-20_15h39.04.810,LearnStrategy,2023.2.3,Linux x86_64,60.24096386,,,,,,,,,,,3,07,5,2,,,,,,,,,,,,,,,,,,,,,,,,,,,,,
662b24af863fd5cc1437384c,TCR,2024-06-20_15h39.04.810,LearnStrategy,2023.2.3,Linux x86_64,60.24096386,,,,,,,,,,,8,03,5,3,,,,,,,,,,,,,,,,,,,,,,,,,,,,,
662b24af863fd5cc1437384c,TCR,2024-06-20_15h39.04.810,LearnStrategy,2023.2.3,Linux x86_64,60.24096386,,,,,,,,,,,8,15,5,4,,,,,,,,,,,,,,,,,,,,,,,,,,,,,
662b24af863fd5cc1437384c,TCR,2024-06-20_15h39.04.810,LearnStrategy,2023.2.3,Linux x86_64,60.24096386,,,,,,,,,,,5,09,5,5,,,,,,,,,,,,,,,,,,,,,,,,,,,,,
662b24af863fd5cc1437384c,TCR,2024-06-20_15h39.04.810,LearnStrategy,2023.2.3,Linux x86_64,60.24096386,,,,,,,,,,,8,08,5,6,,,,,,,,,,,,,,,,,,,,,,,,,,,,,
662b24af863fd5cc1437384c,TCR,2024-06-20_15h39.04.810,LearnStrategy,2023.2.3,Linux x86_64,60.24096386,,,,,,,,,,,8,09,5,7,,,,,,,,,,,,,,,,,,,,,,,,,,,,,
662b24af863fd5cc1437384c,TCR,2024-06-20_15h39.04.810,LearnStrategy,2023.2.3,Linux x86_64,60.24096386,,,,,,,,,,,5,11,5,8,,,,,,,,,,,,,,,,,,,,,,,,,,,,,
662b24af863fd5cc1437384c,TCR,2024-06-20_15h39.04.810,LearnStrategy,2023.2.3,Linux x86_64,60.24096386,,,,,,,,,,,1,01,6,1,,,,,,,,,,,,,,,,,,,,,,,,,,,,,
662b24af863fd5cc1437384c,TCR,2024-06-20_15h39.04.810,LearnStrategy,2023.2.3,Linux x86_64,60.24096386,,,,,,,,,,,4,11,6,2,,,,,,,,,,,,,,,,,,,,,,,,,,,,,
662b24af863fd5cc1437384c,TCR,2024-06-20_15h39.04.810,LearnStrategy,2023.2.3,Linux x86_64,60.24096386,,,,,,,,,,,2,11,6,3,,,,,,,,,,,,,,,,,,,,,,,,,,,,,
662b24af863fd5cc1437384c,TCR,2024-06-20_15h39.04.810,LearnStrategy,2023.2.3,Linux x86_64,60.24096386,,,,,,,,,,,4,12,6,4,,,,,,,,,,,,,,,,,,,,,,,,,,,,,
662b24af863fd5cc1437384c,TCR,2024-06-20_15h39.04.810,LearnStrategy,2023.2.3,Linux x86_64,60.24096386,,,,,,,,,,,5,06,6,5,,,,,,,,,,,,,,,,,,,,,,,,,,,,,
662b24af863fd5cc1437384c,TCR,2024-06-20_15h39.04.810,LearnStrategy,2023.2.3,Linux x86_64,60.24096386,,,,,,,,,,,2,14,6,6,,,,,,,,,,,,,,,,,,,,,,,,,,,,,
662b24af863fd5cc1437384c,TCR,2024-06-20_15h39.04.810,LearnStrategy,2023.2.3,Linux x86_64,60.24096386,,,,,,,,,,,7,15,6,7,,,,,,,,,,,,,,,,,,,,,,,,,,,,,
662b24af863fd5cc1437384c,TCR,2024-06-20_15h39.04.810,LearnStrategy,2023.2.3,Linux x86_64,60.24096386,,,,,,,,,,,4,10,6,8,,,,,,,,,,,,,,,,,,,,,,,,,,,,,