participant,condition,date,expName,psychopyVersion,OS,frameRate,block,phase,trial,learn_mouse_2.x,learn_mouse_2.y,learn_mouse_2.leftButton,learn_mouse_2.midButton,learn_mouse_2.rightButton,learn_mouse_2.time,learn_mouse_2.clicked_name,cat,token,row,col,t_select,cat_mouse_l.x,cat_mouse_l.y,cat_mouse_l.leftButton,cat_mouse_l.midButton,cat_mouse_l.rightButton,cat_mouse_l.time,cat_mouse_l.clicked_name,resp,t_resp,corr,train_trials.thisRepN,train_trials.thisTrialN,train_trials.thisN,train_trials.thisIndex,train_trials.ran,cat_mouse_t.x,cat_mouse_t.y,cat_mouse_t.leftButton,cat_mouse_t.midButton,cat_mouse_t.rightButton,cat_mouse_t.time,cat_mouse_t.clicked_name,test_trials.thisRepN,test_trials.thisTrialN,test_trials.thisN,test_trials.thisIndex,test_trials.ran,Bonus
662d56e5cc343fb58134d622,TCN,2024-06-24_15h35.30.499,LearnStrategy,2023.2.3,MacIntel,30.15681544,,,,,,,,,,,,,,,,,,,,,,,,,,,,,,,,,,,,,,,,,,,
662d56e5cc343fb58134d622,TCN,2024-06-24_15h35.30.499,LearnStrategy,2023.2.3,MacIntel,30.15681544,1,1,1,-0.016666667,-0.004861111,1,0,0,8.837,rock_grid_rect_2,8,02,-1,-1,8.837,0.38125,-0.404861111,1,0,0,5.499,Pumice_rect,8,5.499,1,0,0,0,0,1,,,,,,,,,,,,,
662d56e5cc343fb58134d622,TCN,2024-06-24_15h35.30.499,LearnStrategy,2023.2.3,MacIntel,30.15681544,1,1,2,0.044444444,-0.000694444,1,0,0,1.946,rock_grid_rect_2,7,13,-1,-1,1.946,0.113888889,-0.398611111,1,0,0,8.388,Peridotite_rect,7,8.388,1,1,0,1,0,1,,,,,,,,,,,,,
662d56e5cc343fb58134d622,TCN,2024-06-24_15h35.30.499,LearnStrategy,2023.2.3,MacIntel,30.15681544,1,1,3,0.010416667,0.003472222,1,0,0,2.118,rock_grid_rect_2,5,12,-1,-1,2.118,-0.426388889,-0.403472222,1,0,0,2.082,Obsidian_rect,5,2.082,1,2,0,2,0,1,,,,,,,,,,,,,
662d56e5cc343fb58134d622,TCN,2024-06-24_15h35.30.499,LearnStrategy,2023.2.3,MacIntel,30.15681544,1,1,4,-0.034027778,-0.002083333,1,0,0,2.503,rock_grid_rect_2,4,13,-1,-1,2.503,0.368055556,-0.25625,1,0,0,10.42,Gabbro_rect,4,10.42,1,3,0,3,0,1,,,,,,,,,,,,,
662d56e5cc343fb58134d622,TCN,2024-06-24_15h35.30.499,LearnStrategy,2023.2.3,MacIntel,30.15681544,1,1,5,0.036111111,-0.002083333,1,0,0,1.987,rock_grid_rect_2,6,11,-1,-1,1.987,-0.079166667,-0.263888889,1,0,0,20.295,Basalt_rect,2,20.295,0,4,0,4,0,1,,,,,,,,,,,,,
662d56e5cc343fb58134d622,TCN,2024-06-24_15h35.30.499,LearnStrategy,2023.2.3,MacIntel,30.15681544,1,1,6,-0.03125,0.004166667,1,0,0,6.15,rock_grid_rect_2,2,02,-1,-1,6.15,-0.351388889,-0.239583333,1,0,0,5.515,Andesite_rect,1,5.515,0,5,0,5,0,1,,,,,,,,,,,,,
662d56e5cc343fb58134d622,TCN,2024-06-24_15h35.30.499,LearnStrategy,2023.2.3,MacIntel,30.15681544,1,1,7,0.041666667,-0.013888889,1,0,0,6.545,rock_grid_rect_2,4,01,-1,-1,6.545,-0.363888889,-0.235416667,1,0,0,13.303,Andesite_rect,1,13.303,0,6,0,6,0,1,,,,,,,,,,,,,
662d56e5cc343fb58134d622,TCN,2024-06-24_15h35.30.499,LearnStrategy,2023.2.3,MacIntel,30.15681544,1,1,8,0.038888889,0,1,0,0,24.791,rock_grid_rect_2,1,14,-1,-1,24.791,-0.131944444,-0.398611111,1,0,0,6.315,Pegmatite_rect,6,6.315,0,7,0,7,0,1,,,,,,,,,,,,,
662d56e5cc343fb58134d622,TCN,2024-06-24_15h35.30.499,LearnStrategy,2023.2.3,MacIntel,30.15681544,1,1,9,-0.033333333,0.003472222,1,0,0,5.588,rock_grid_rect_2,7,15,-1,-1,5.588,0.117361111,-0.396527778,1,0,0,2.966,Peridotite_rect,7,2.966,1,8,0,8,0,1,,,,,,,,,,,,,
662d56e5cc343fb58134d622,TCN,2024-06-24_15h35.30.499,LearnStrategy,2023.2.3,MacIntel,30.15681544,1,1,10,-0.076388889,0.000694444,1,0,0,1.723,rock_grid_rect_2,6,15,-1,-1,1.723,-0.073611111,-0.390972222,1,0,0,5.543,Pegmatite_rect,6,5.543,1,9,0,9,0,1,,,,,,,,,,,,,
662d56e5cc343fb58134d622,TCN,2024-06-24_15h35.30.499,LearnStrategy,2023.2.3,MacIntel,30.15681544,1,1,11,0.03125,0.009027778,1,0,0,4.955,rock_grid_rect_2,5,14,-1,-1,4.955,-0.442361111,-0.401388889,1,0,0,4.369,Obsidian_rect,5,4.369,1,10,0,10,0,1,,,,,,,,,,,,,
662d56e5cc343fb58134d622,TCN,2024-06-24_15h35.30.499,LearnStrategy,2023.2.3,MacIntel,30.15681544,1,1,12,-0.036111111,0.008333333,1,0,0,1.602,rock_grid_rect_2,3,13,-1,-1,1.602,0.151388889,-0.234027778,1,0,0,9.066,Diorite_rect,3,9.066,1,11,0,11,0,1,,,,,,,,,,,,,
662d56e5cc343fb58134d622,TCN,2024-06-24_15h35.30.499,LearnStrategy,2023.2.3,MacIntel,30.15681544,1,1,13,0.047916667,-0.008333333,1,0,0,2.556,rock_grid_rect_2,1,09,-1,-1,2.556,-0.160416667,-0.238888889,1,0,0,2.252,Basalt_rect,2,2.252,0,12,0,12,0,1,,,,,,,,,,,,,
662d56e5cc343fb58134d622,TCN,2024-06-24_15h35.30.499,LearnStrategy,2023.2.3,MacIntel,30.15681544,1,1,14,-0.029166667,0.005555556,1,0,0,2.017,rock_grid_rect_2,3,16,-1,-1,2.017,0.101388889,-0.254166667,1,0,0,8.793,Diorite_rect,3,8.793,1,13,0,13,0,1,,,,,,,,,,,,,
662d56e5cc343fb58134d622,TCN,2024-06-24_15h35.30.499,LearnStrategy,2023.2.3,MacIntel,30.15681544,1,1,15,-0.013888889,-0.022222222,1,0,0,1.828,rock_grid_rect_2,2,01,-1,-1,1.828,-0.18125,-0.238194444,1,0,0,1.392,Basalt_rect,2,1.392,1,14,0,14,0,1,,,,,,,,,,,,,
662d56e5cc343fb58134d622,TCN,2024-06-24_15h35.30.499,LearnStrategy,2023.2.3,MacIntel,30.15681544,1,1,16,0.073611111,0.007638889,1,0,0,1.478,rock_grid_rect_2,8,04,-1,-1,1.478,0.336805556,-0.404861111,1,0,0,2.235,Pumice_rect,8,2.235,1,15,0,15,0,1,,,,,,,,,,,,,
662d56e5cc343fb58134d622,TCN,2024-06-24_15h35.30.499,LearnStrategy,2023.2.3,MacIntel,30.15681544,1,2,1,,,,,,,,4,08,,,,,,,,,,,4,10.358,1,,,,,,0.375694444,-0.2625,1,0,0,10.358,Gabbro_rect,0,0,0,0,1,
662d56e5cc343fb58134d622,TCN,2024-06-24_15h35.30.499,LearnStrategy,2023.2.3,MacIntel,30.15681544,1,2,2,,,,,,,,7,05,,,,,,,,,,,7,4.154,1,,,,,,0.093055556,-0.396527778,1,0,0,4.154,Peridotite_rect,1,0,1,0,1,
662d56e5cc343fb58134d622,TCN,2024-06-24_15h35.30.499,LearnStrategy,2023.2.3,MacIntel,30.15681544,1,2,3,,,,,,,,7,02,,,,,,,,,,,7,7.256,1,,,,,,0.113194444,-0.415972222,1,0,0,7.256,Peridotite_rect,2,0,2,0,1,
662d56e5cc343fb58134d622,TCN,2024-06-24_15h35.30.499,LearnStrategy,2023.2.3,MacIntel,30.15681544,1,2,4,,,,,,,,6,05,,,,,,,,,,,6,13.022,1,,,,,,-0.098611111,-0.413888889,1,0,0,13.022,Pegmatite_rect,3,0,3,0,1,
662d56e5cc343fb58134d622,TCN,2024-06-24_15h35.30.499,LearnStrategy,2023.2.3,MacIntel,30.15681544,1,2,5,,,,,,,,1,10,,,,,,,,,,,1,4.2,1,,,,,,-0.317361111,-0.254166667,1,0,0,4.2,Andesite_rect,4,0,4,0,1,
662d56e5cc343fb58134d622,TCN,2024-06-24_15h35.30.499,LearnStrategy,2023.2.3,MacIntel,30.15681544,1,2,6,,,,,,,,1,03,,,,,,,,,,,1,23.26,1,,,,,,-0.322222222,-0.254166667,1,0,0,23.26,Andesite_rect,5,0,5,0,1,
662d56e5cc343fb58134d622,TCN,2024-06-24_15h35.30.499,LearnStrategy,2023.2.3,MacIntel,30.15681544,1,2,7,,,,,,,,4,16,,,,,,,,,,,4,6.696,1,,,,,,0.3875,-0.251388889,1,0,0,6.696,Gabbro_rect,6,0,6,0,1,
662d56e5cc343fb58134d622,TCN,2024-06-24_15h35.30.499,LearnStrategy,2023.2.3,MacIntel,30.15681544,1,2,8,,,,,,,,2,14,,,,,,,,,,,8,8.692,0,,,,,,0.370833333,-0.395833333,1,0,0,8.692,Pumice_rect,7,0,7,0,1,
662d56e5cc343fb58134d622,TCN,2024-06-24_15h35.30.499,LearnStrategy,2023.2.3,MacIntel,30.15681544,1,2,9,,,,,,,,2,09,,,,,,,,,,,2,15.355,1,,,,,,-0.148611111,-0.240277778,1,0,0,15.355,Basalt_rect,8,0,8,0,1,
662d56e5cc343fb58134d622,TCN,2024-06-24_15h35.30.499,LearnStrategy,2023.2.3,MacIntel,30.15681544,1,2,10,,,,,,,,8,06,,,,,,,,,,,8,3.197,1,,,,,,0.364583333,-0.403472222,1,0,0,3.197,Pumice_rect,9,0,9,0,1,
662d56e5cc343fb58134d622,TCN,2024-06-24_15h35.30.499,LearnStrategy,2023.2.3,MacIntel,30.15681544,1,2,11,,,,,,,,5,10,,,,,,,,,,,5,2.391,1,,,,,,-0.386111111,-0.405555556,1,0,0,2.391,Obsidian_rect,10,0,10,0,1,
662d56e5cc343fb58134d622,TCN,2024-06-24_15h35.30.499,LearnStrategy,2023.2.3,MacIntel,30.15681544,1,2,12,,,,,,,,3,07,,,,,,,,,,,3,2.302,1,,,,,,0.136111111,-0.244444444,1,0,0,2.302,Diorite_rect,11,0,11,0,1,
662d56e5cc343fb58134d622,TCN,2024-06-24_15h35.30.499,LearnStrategy,2023.2.3,MacIntel,30.15681544,1,2,13,,,,,,,,5,11,,,,,,,,,,,5,1.831,1,,,,,,-0.330555556,-0.395833333,1,0,0,1.831,Obsidian_rect,12,0,12,0,1,
662d56e5cc343fb58134d622,TCN,2024-06-24_15h35.30.499,LearnStrategy,2023.2.3,MacIntel,30.15681544,1,2,14,,,,,,,,6,10,,,,,,,,,,,7,4.594,0,,,,,,0.111805556,-0.409027778,1,0,0,4.594,Peridotite_rect,13,0,13,0,1,
662d56e5cc343fb58134d622,TCN,2024-06-24_15h35.30.499,LearnStrategy,2023.2.3,MacIntel,30.15681544,1,2,15,,,,,,,,8,13,,,,,,,,,,,8,6.685,1,,,,,,0.345138889,-0.399305556,1,0,0,6.685,Pumice_rect,14,0,14,0,1,
662d56e5cc343fb58134d622,TCN,2024-06-24_15h35.30.499,LearnStrategy,2023.2.3,MacIntel,30.15681544,1,2,16,,,,,,,,3,06,,,,,,,,,,,3,6.756,1,,,,,,0.191666667,-0.258333333,1,0,0,6.756,Diorite_rect,15,0,15,0,1,
662d56e5cc343fb58134d622,TCN,2024-06-24_15h35.30.499,LearnStrategy,2023.2.3,MacIntel,30.15681544,2,1,1,-0.038888889,-0.005555556,1,0,0,2.149,rock_grid_rect_2,3,12,-1,-1,2.149,0.157638889,-0.244444444,1,0,0,11.311,Diorite_rect,3,11.311,1,0,0,0,0,1,,,,,,,,,,,,,
662d56e5cc343fb58134d622,TCN,2024-06-24_15h35.30.499,LearnStrategy,2023.2.3,MacIntel,30.15681544,2,1,2,0.036111111,-0.008333333,1,0,0,1.572,rock_grid_rect_2,1,04,-1,-1,1.572,-0.195138889,-0.39375,1,0,0,5.152,Pegmatite_rect,6,5.152,0,1,0,1,0,1,,,,,,,,,,,,,
662d56e5cc343fb58134d622,TCN,2024-06-24_15h35.30.499,LearnStrategy,2023.2.3,MacIntel,30.15681544,2,1,3,0.042361111,-0.006944444,1,0,0,1.951,rock_grid_rect_2,3,02,-1,-1,1.951,-0.138194444,-0.419444444,1,0,0,9.052,Pegmatite_rect,6,9.052,0,2,0,2,0,1,,,,,,,,,,,,,
662d56e5cc343fb58134d622,TCN,2024-06-24_15h35.30.499,LearnStrategy,2023.2.3,MacIntel,30.15681544,2,1,4,0.015277778,0.007638889,1,0,0,1.762,rock_grid_rect_2,2,16,-1,-1,1.762,-0.127083333,-0.252777778,1,0,0,8.016,Basalt_rect,2,8.016,1,3,0,3,0,1,,,,,,,,,,,,,
662d56e5cc343fb58134d622,TCN,2024-06-24_15h35.30.499,LearnStrategy,2023.2.3,MacIntel,30.15681544,2,1,5,0.047916667,0.001388889,1,0,0,1.585,rock_grid_rect_2,2,04,-1,-1,1.585,-0.188194444,-0.25,1,0,0,8.552,Basalt_rect,2,8.552,1,4,0,4,0,1,,,,,,,,,,,,,
662d56e5cc343fb58134d622,TCN,2024-06-24_15h35.30.499,LearnStrategy,2023.2.3,MacIntel,30.15681544,2,1,6,-0.050694444,-0.0125,1,0,0,1.553,rock_grid_rect_2,4,14,-1,-1,1.553,-0.146527778,-0.402777778,1,0,0,3.792,Pegmatite_rect,6,3.792,0,5,0,5,0,1,,,,,,,,,,,,,
662d56e5cc343fb58134d622,TCN,2024-06-24_15h35.30.499,LearnStrategy,2023.2.3,MacIntel,30.15681544,2,1,7,0.03125,-0.006944444,1,0,0,1.785,rock_grid_rect_2,6,09,-1,-1,1.785,0.119444444,-0.259722222,1,0,0,7.647,Diorite_rect,3,7.647,0,6,0,6,0,1,,,,,,,,,,,,,
662d56e5cc343fb58134d622,TCN,2024-06-24_15h35.30.499,LearnStrategy,2023.2.3,MacIntel,30.15681544,2,1,8,0.044444444,0.013194444,1,0,0,1.989,rock_grid_rect_2,4,05,-1,-1,1.989,0.392361111,-0.247916667,1,0,0,7.217,Gabbro_rect,4,7.217,1,7,0,7,0,1,,,,,,,,,,,,,
662d56e5cc343fb58134d622,TCN,2024-06-24_15h35.30.499,LearnStrategy,2023.2.3,MacIntel,30.15681544,2,1,9,0.061805556,-0.013888889,1,0,0,1.726,rock_grid_rect_2,8,10,-1,-1,1.726,0.391666667,-0.409722222,1,0,0,2.024,Pumice_rect,8,2.024,1,8,0,8,0,1,,,,,,,,,,,,,
662d56e5cc343fb58134d622,TCN,2024-06-24_15h35.30.499,LearnStrategy,2023.2.3,MacIntel,30.15681544,2,1,10,0.076388889,-0.009722222,1,0,0,1.799,rock_grid_rect_2,8,08,-1,-1,1.799,0.377777778,-0.40625,1,0,0,1.877,Pumice_rect,8,1.877,1,9,0,9,0,1,,,,,,,,,,,,,
662d56e5cc343fb58134d622,TCN,2024-06-24_15h35.30.499,LearnStrategy,2023.2.3,MacIntel,30.15681544,2,1,11,0.036111111,-0.005555556,1,0,0,1.374,rock_grid_rect_2,7,08,-1,-1,1.374,0.111805556,-0.240277778,1,0,0,2.201,Diorite_rect,3,2.201,0,10,0,10,0,1,,,,,,,,,,,,,
662d56e5cc343fb58134d622,TCN,2024-06-24_15h35.30.499,LearnStrategy,2023.2.3,MacIntel,30.15681544,2,1,12,0.1125,-0.011111111,1,0,0,1.442,rock_grid_rect_2,5,16,-1,-1,1.442,-0.409027778,-0.388888889,1,0,0,1.703,Obsidian_rect,5,1.703,1,11,0,11,0,1,,,,,,,,,,,,,
662d56e5cc343fb58134d622,TCN,2024-06-24_15h35.30.499,LearnStrategy,2023.2.3,MacIntel,30.15681544,2,1,13,0.011111111,-0.006944444,1,0,0,1.354,rock_grid_rect_2,1,07,-1,-1,1.354,0.108333333,-0.245138889,1,0,0,2.884,Diorite_rect,3,2.884,0,12,0,12,0,1,,,,,,,,,,,,,
662d56e5cc343fb58134d622,TCN,2024-06-24_15h35.30.499,LearnStrategy,2023.2.3,MacIntel,30.15681544,2,1,14,0.061805556,-0.024305556,1,0,0,1.414,rock_grid_rect_2,6,12,-1,-1,1.414,-0.147222222,-0.384027778,1,0,0,2.946,Pegmatite_rect,6,2.946,1,13,0,13,0,1,,,,,,,,,,,,,
662d56e5cc343fb58134d622,TCN,2024-06-24_15h35.30.499,LearnStrategy,2023.2.3,MacIntel,30.15681544,2,1,15,0.023611111,-0.005555556,1,0,0,1.434,rock_grid_rect_2,7,06,-1,-1,1.434,0.1125,-0.404166667,1,0,0,1.525,Peridotite_rect,7,1.525,1,14,0,14,0,1,,,,,,,,,,,,,
662d56e5cc343fb58134d622,TCN,2024-06-24_15h35.30.499,LearnStrategy,2023.2.3,MacIntel,30.15681544,2,1,16,0.0875,-0.014583333,1,0,0,1.226,rock_grid_rect_2,5,02,-1,-1,1.226,-0.367361111,-0.404861111,1,0,0,2.363,Obsidian_rect,5,2.363,1,15,0,15,0,1,,,,,,,,,,,,,
662d56e5cc343fb58134d622,TCN,2024-06-24_15h35.30.499,LearnStrategy,2023.2.3,MacIntel,30.15681544,2,2,1,,,,,,,,6,08,,,,,,,,,,,6,5.839,1,,,,,,-0.15,-0.383333333,1,0,0,5.839,Pegmatite_rect,0,0,0,0,1,
662d56e5cc343fb58134d622,TCN,2024-06-24_15h35.30.499,LearnStrategy,2023.2.3,MacIntel,30.15681544,2,2,2,,,,,,,,2,05,,,,,,,,,,,2,3.897,1,,,,,,-0.105555556,-0.244444444,1,0,0,3.897,Basalt_rect,1,0,1,0,1,
662d56e5cc343fb58134d622,TCN,2024-06-24_15h35.30.499,LearnStrategy,2023.2.3,MacIntel,30.15681544,2,2,3,,,,,,,,7,04,,,,,,,,,,,1,14.901,0,,,,,,-0.342361111,-0.265972222,1,0,0,14.901,Andesite_rect,2,0,2,0,1,
662d56e5cc343fb58134d622,TCN,2024-06-24_15h35.30.499,LearnStrategy,2023.2.3,MacIntel,30.15681544,2,2,4,,,,,,,,7,16,,,,,,,,,,,4,6.297,0,,,,,,0.370833333,-0.24375,1,0,0,6.297,Gabbro_rect,3,0,3,0,1,
662d56e5cc343fb58134d622,TCN,2024-06-24_15h35.30.499,LearnStrategy,2023.2.3,MacIntel,30.15681544,2,2,5,,,,,,,,1,02,,,,,,,,,,,1,8.511,1,,,,,,-0.336805556,-0.247916667,1,0,0,8.511,Andesite_rect,4,0,4,0,1,
662d56e5cc343fb58134d622,TCN,2024-06-24_15h35.30.499,LearnStrategy,2023.2.3,MacIntel,30.15681544,2,2,6,,,,,,,,6,03,,,,,,,,,,,7,15.137,0,,,,,,0.065972222,-0.389583333,1,0,0,15.137,Peridotite_rect,5,0,5,0,1,
662d56e5cc343fb58134d622,TCN,2024-06-24_15h35.30.499,LearnStrategy,2023.2.3,MacIntel,30.15681544,2,2,7,,,,,,,,5,08,,,,,,,,,,,5,4.796,1,,,,,,-0.345833333,-0.385416667,1,0,0,4.796,Obsidian_rect,6,0,6,0,1,
662d56e5cc343fb58134d622,TCN,2024-06-24_15h35.30.499,LearnStrategy,2023.2.3,MacIntel,30.15681544,2,2,8,,,,,,,,4,03,,,,,,,,,,,1,10.152,0,,,,,,-0.354861111,-0.24375,1,0,0,10.152,Andesite_rect,7,0,7,0,1,
662d56e5cc343fb58134d622,TCN,2024-06-24_15h35.30.499,LearnStrategy,2023.2.3,MacIntel,30.15681544,2,2,9,,,,,,,,3,08,,,,,,,,,,,3,5.074,1,,,,,,0.174305556,-0.25625,1,0,0,5.074,Diorite_rect,8,0,8,0,1,
662d56e5cc343fb58134d622,TCN,2024-06-24_15h35.30.499,LearnStrategy,2023.2.3,MacIntel,30.15681544,2,2,10,,,,,,,,2,08,,,,,,,,,,,2,2.984,1,,,,,,-0.126388889,-0.228472222,1,0,0,2.984,Basalt_rect,9,0,9,0,1,
662d56e5cc343fb58134d622,TCN,2024-06-24_15h35.30.499,LearnStrategy,2023.2.3,MacIntel,30.15681544,2,2,11,,,,,,,,3,10,,,,,,,,,,,4,14.7,0,,,,,,0.353472222,-0.267361111,1,0,0,14.7,Gabbro_rect,10,0,10,0,1,
662d56e5cc343fb58134d622,TCN,2024-06-24_15h35.30.499,LearnStrategy,2023.2.3,MacIntel,30.15681544,2,2,12,,,,,,,,8,15,,,,,,,,,,,8,1.931,1,,,,,,0.369444444,-0.394444444,1,0,0,1.931,Pumice_rect,11,0,11,0,1,
662d56e5cc343fb58134d622,TCN,2024-06-24_15h35.30.499,LearnStrategy,2023.2.3,MacIntel,30.15681544,2,2,13,,,,,,,,4,15,,,,,,,,,,,4,6.309,1,,,,,,0.406944444,-0.271527778,1,0,0,6.309,Gabbro_rect,12,0,12,0,1,
662d56e5cc343fb58134d622,TCN,2024-06-24_15h35.30.499,LearnStrategy,2023.2.3,MacIntel,30.15681544,2,2,14,,,,,,,,8,05,,,,,,,,,,,8,1.532,1,,,,,,0.369444444,-0.379861111,1,0,0,1.532,Pumice_rect,13,0,13,0,1,
662d56e5cc343fb58134d622,TCN,2024-06-24_15h35.30.499,LearnStrategy,2023.2.3,MacIntel,30.15681544,2,2,15,,,,,,,,5,09,,,,,,,,,,,5,1.616,1,,,,,,-0.397222222,-0.379861111,1,0,0,1.616,Obsidian_rect,14,0,14,0,1,
662d56e5cc343fb58134d622,TCN,2024-06-24_15h35.30.499,LearnStrategy,2023.2.3,MacIntel,30.15681544,2,2,16,,,,,,,,1,11,,,,,,,,,,,1,8.187,1,,,,,,-0.356944444,-0.265277778,1,0,0,8.187,Andesite_rect,15,0,15,0,1,
662d56e5cc343fb58134d622,TCN,2024-06-24_15h35.30.499,LearnStrategy,2023.2.3,MacIntel,30.15681544,3,1,1,0.088194444,0.004166667,1,0,0,1.883,rock_grid_rect_2,4,12,-1,-1,1.883,-0.345833333,-0.244444444,1,0,0,3.277,Andesite_rect,1,3.277,0,0,0,0,0,1,,,,,,,,,,,,,
662d56e5cc343fb58134d622,TCN,2024-06-24_15h35.30.499,LearnStrategy,2023.2.3,MacIntel,30.15681544,3,1,2,0.052083333,-0.00625,1,0,0,1.48,rock_grid_rect_2,8,03,-1,-1,1.48,0.375,-0.398611111,1,0,0,3.152,Pumice_rect,8,3.152,1,1,0,1,0,1,,,,,,,,,,,,,
662d56e5cc343fb58134d622,TCN,2024-06-24_15h35.30.499,LearnStrategy,2023.2.3,MacIntel,30.15681544,3,1,3,0.06875,0.011805556,1,0,0,1.436,rock_grid_rect_2,1,05,-1,-1,1.436,0.070138889,-0.247222222,1,0,0,4.245,Diorite_rect,3,4.245,0,2,0,2,0,1,,,,,,,,,,,,,
662d56e5cc343fb58134d622,TCN,2024-06-24_15h35.30.499,LearnStrategy,2023.2.3,MacIntel,30.15681544,3,1,4,-0.005555556,-0.010416667,1,0,0,4.095,rock_grid_rect_2,7,14,-1,-1,4.095,0.083333333,-0.397222222,1,0,0,2.535,Peridotite_rect,7,2.535,1,3,0,3,0,1,,,,,,,,,,,,,
662d56e5cc343fb58134d622,TCN,2024-06-24_15h35.30.499,LearnStrategy,2023.2.3,MacIntel,30.15681544,3,1,5,0.090972222,0.007638889,1,0,0,1.555,rock_grid_rect_2,2,10,-1,-1,1.555,-0.138194444,-0.230555556,1,0,0,4.871,Basalt_rect,2,4.871,1,4,0,4,0,1,,,,,,,,,,,,,
662d56e5cc343fb58134d622,TCN,2024-06-24_15h35.30.499,LearnStrategy,2023.2.3,MacIntel,30.15681544,3,1,6,0.072916667,-0.006944444,1,0,0,1.416,rock_grid_rect_2,7,10,-1,-1,1.416,0.13125,-0.395833333,1,0,0,2.901,Peridotite_rect,7,2.901,1,5,0,5,0,1,,,,,,,,,,,,,
662d56e5cc343fb58134d622,TCN,2024-06-24_15h35.30.499,LearnStrategy,2023.2.3,MacIntel,30.15681544,3,1,7,0.127083333,-0.002777778,1,0,0,1.198,rock_grid_rect_2,4,09,-1,-1,1.198,0.350694444,-0.25,1,0,0,7.242,Gabbro_rect,4,7.242,1,6,0,6,0,1,,,,,,,,,,,,,
662d56e5cc343fb58134d622,TCN,2024-06-24_15h35.30.499,LearnStrategy,2023.2.3,MacIntel,30.15681544,3,1,8,0.035416667,-0.010416667,1,0,0,1.201,rock_grid_rect_2,1,01,-1,-1,1.201,-0.361111111,-0.249305556,1,0,0,4.447,Andesite_rect,1,4.447,1,7,0,7,0,1,,,,,,,,,,,,,
662d56e5cc343fb58134d622,TCN,2024-06-24_15h35.30.499,LearnStrategy,2023.2.3,MacIntel,30.15681544,3,1,9,0.080555556,-0.010416667,1,0,0,3.721,rock_grid_rect_2,3,15,-1,-1,3.721,0.060416667,-0.243055556,1,0,0,2.461,Diorite_rect,3,2.461,1,8,0,8,0,1,,,,,,,,,,,,,
662d56e5cc343fb58134d622,TCN,2024-06-24_15h35.30.499,LearnStrategy,2023.2.3,MacIntel,30.15681544,3,1,10,0.034722222,0,1,0,0,3.687,rock_grid_rect_2,2,06,-1,-1,3.687,-0.135416667,-0.255555556,1,0,0,1.941,Basalt_rect,2,1.941,1,9,0,9,0,1,,,,,,,,,,,,,
662d56e5cc343fb58134d622,TCN,2024-06-24_15h35.30.499,LearnStrategy,2023.2.3,MacIntel,30.15681544,3,1,11,0.049305556,-0.004166667,1,0,0,1.255,rock_grid_rect_2,5,05,-1,-1,1.255,-0.399305556,-0.389583333,1,0,0,3.957,Obsidian_rect,5,3.957,1,10,0,10,0,1,,,,,,,,,,,,,
662d56e5cc343fb58134d622,TCN,2024-06-24_15h35.30.499,LearnStrategy,2023.2.3,MacIntel,30.15681544,3,1,12,0.111805556,-0.007638889,1,0,0,1.292,rock_grid_rect_2,5,07,-1,-1,1.292,-0.361111111,-0.4,1,0,0,3.577,Obsidian_rect,5,3.577,1,11,0,11,0,1,,,,,,,,,,,,,
662d56e5cc343fb58134d622,TCN,2024-06-24_15h35.30.499,LearnStrategy,2023.2.3,MacIntel,30.15681544,3,1,13,0.0125,-0.019444444,1,0,0,1.591,rock_grid_rect_2,3,11,-1,-1,1.591,0.121527778,-0.255555556,1,0,0,1.509,Diorite_rect,3,1.509,1,12,0,12,0,1,,,,,,,,,,,,,
662d56e5cc343fb58134d622,TCN,2024-06-24_15h35.30.499,LearnStrategy,2023.2.3,MacIntel,30.15681544,3,1,14,0.047222222,-0.002777778,1,0,0,1.174,rock_grid_rect_2,8,14,-1,-1,1.174,0.344444444,-0.414583333,1,0,0,1.574,Pumice_rect,8,1.574,1,13,0,13,0,1,,,,,,,,,,,,,
662d56e5cc343fb58134d622,TCN,2024-06-24_15h35.30.499,LearnStrategy,2023.2.3,MacIntel,30.15681544,3,1,15,0.104861111,-0.000694444,1,0,0,1.155,rock_grid_rect_2,6,07,-1,-1,1.155,-0.145833333,-0.398611111,1,0,0,4.232,Pegmatite_rect,6,4.232,1,14,0,14,0,1,,,,,,,,,,,,,
662d56e5cc343fb58134d622,TCN,2024-06-24_15h35.30.499,LearnStrategy,2023.2.3,MacIntel,30.15681544,3,1,16,0.036805556,0.004166667,1,0,0,1.06,rock_grid_rect_2,6,13,-1,-1,1.06,-0.119444444,-0.3875,1,0,0,2.654,Pegmatite_rect,6,2.654,1,15,0,15,0,1,,,,,,,,,,,,,
662d56e5cc343fb58134d622,TCN,2024-06-24_15h35.30.499,LearnStrategy,2023.2.3,MacIntel,30.15681544,3,2,1,,,,,,,,3,14,,,,,,,,,,,3,5.105,1,,,,,,0.08125,-0.265972222,1,0,0,5.105,Diorite_rect,0,0,0,0,1,
662d56e5cc343fb58134d622,TCN,2024-06-24_15h35.30.499,LearnStrategy,2023.2.3,MacIntel,30.15681544,3,2,2,,,,,,,,4,10,,,,,,,,,,,4,2.068,1,,,,,,0.346527778,-0.26875,1,0,0,2.068,Gabbro_rect,1,0,1,0,1,
662d56e5cc343fb58134d622,TCN,2024-06-24_15h35.30.499,LearnStrategy,2023.2.3,MacIntel,30.15681544,3,2,3,,,,,,,,2,11,,,,,,,,,,,8,7.221,0,,,,,,0.353472222,-0.397916667,1,0,0,7.221,Pumice_rect,2,0,2,0,1,
662d56e5cc343fb58134d622,TCN,2024-06-24_15h35.30.499,LearnStrategy,2023.2.3,MacIntel,30.15681544,3,2,4,,,,,,,,6,06,,,,,,,,,,,3,12.432,0,,,,,,0.079861111,-0.2625,1,0,0,12.432,Diorite_rect,3,0,3,0,1,
662d56e5cc343fb58134d622,TCN,2024-06-24_15h35.30.499,LearnStrategy,2023.2.3,MacIntel,30.15681544,3,2,5,,,,,,,,7,12,,,,,,,,,,,7,7.037,1,,,,,,0.115972222,-0.391666667,1,0,0,7.037,Peridotite_rect,4,0,4,0,1,
662d56e5cc343fb58134d622,TCN,2024-06-24_15h35.30.499,LearnStrategy,2023.2.3,MacIntel,30.15681544,3,2,6,,,,,,,,1,06,,,,,,,,,,,1,2.942,1,,,,,,-0.402083333,-0.25,1,0,0,2.942,Andesite_rect,5,0,5,0,1,
662d56e5cc343fb58134d622,TCN,2024-06-24_15h35.30.499,LearnStrategy,2023.2.3,MacIntel,30.15681544,3,2,7,,,,,,,,2,12,,,,,,,,,,,8,2.679,0,,,,,,0.346527778,-0.401388889,1,0,0,2.679,Pumice_rect,6,0,6,0,1,
662d56e5cc343fb58134d622,TCN,2024-06-24_15h35.30.499,LearnStrategy,2023.2.3,MacIntel,30.15681544,3,2,8,,,,,,,,5,06,,,,,,,,,,,5,1.854,1,,,,,,-0.421527778,-0.400694444,1,0,0,1.854,Obsidian_rect,7,0,7,0,1,
662d56e5cc343fb58134d622,TCN,2024-06-24_15h35.30.499,LearnStrategy,2023.2.3,MacIntel,30.15681544,3,2,9,,,,,,,,5,04,,,,,,,,,,,5,0.862,1,,,,,,-0.421527778,-0.400694444,1,0,0,0.862,Obsidian_rect,8,0,8,0,1,
662d56e5cc343fb58134d622,TCN,2024-06-24_15h35.30.499,LearnStrategy,2023.2.3,MacIntel,30.15681544,3,2,10,,,,,,,,8,16,,,,,,,,,,,8,1.816,1,,,,,,0.4125,-0.413194444,1,0,0,1.816,Pumice_rect,9,0,9,0,1,
662d56e5cc343fb58134d622,TCN,2024-06-24_15h35.30.499,LearnStrategy,2023.2.3,MacIntel,30.15681544,3,2,11,,,,,,,,8,09,,,,,,,,,,,8,1.256,1,,,,,,0.4125,-0.413194444,1,0,0,1.256,Pumice_rect,10,0,10,0,1,
662d56e5cc343fb58134d622,TCN,2024-06-24_15h35.30.499,LearnStrategy,2023.2.3,MacIntel,30.15681544,3,2,12,,,,,,,,6,16,,,,,,,,,,,6,2.999,1,,,,,,-0.136111111,-0.395833333,1,0,0,2.999,Pegmatite_rect,11,0,11,0,1,
662d56e5cc343fb58134d622,TCN,2024-06-24_15h35.30.499,LearnStrategy,2023.2.3,MacIntel,30.15681544,3,2,13,,,,,,,,7,07,,,,,,,,,,,7,9.799,1,,,,,,0.078472222,-0.386111111,1,0,0,9.799,Peridotite_rect,12,0,12,0,1,
662d56e5cc343fb58134d622,TCN,2024-06-24_15h35.30.499,LearnStrategy,2023.2.3,MacIntel,30.15681544,3,2,14,,,,,,,,4,11,,,,,,,,,,,4,8.09,1,,,,,,0.354166667,-0.24375,1,0,0,8.09,Gabbro_rect,13,0,13,0,1,
662d56e5cc343fb58134d622,TCN,2024-06-24_15h35.30.499,LearnStrategy,2023.2.3,MacIntel,30.15681544,3,2,15,,,,,,,,1,16,,,,,,,,,,,6,5.054,0,,,,,,-0.165972222,-0.401388889,1,0,0,5.054,Pegmatite_rect,14,0,14,0,1,
662d56e5cc343fb58134d622,TCN,2024-06-24_15h35.30.499,LearnStrategy,2023.2.3,MacIntel,30.15681544,3,2,16,,,,,,,,3,09,,,,,,,,,,,3,1.716,1,,,,,,0.133333333,-0.270138889,1,0,0,1.716,Diorite_rect,15,0,15,0,1,
662d56e5cc343fb58134d622,TCN,2024-06-24_15h35.30.499,LearnStrategy,2023.2.3,MacIntel,30.15681544,4,1,1,0.141666667,-0.016666667,1,0,0,2.055,rock_grid_rect_2,7,13,-1,-1,2.055,0.116666667,-0.402083333,1,0,0,1.5,Peridotite_rect,7,1.5,1,0,0,0,0,1,,,,,,,,,,,,,
662d56e5cc343fb58134d622,TCN,2024-06-24_15h35.30.499,LearnStrategy,2023.2.3,MacIntel,30.15681544,4,1,2,0.047916667,0.000694444,1,0,0,1.433,rock_grid_rect_2,6,13,-1,-1,1.433,-0.163194444,-0.395833333,1,0,0,1.691,Pegmatite_rect,6,1.691,1,1,0,1,0,1,,,,,,,,,,,,,
662d56e5cc343fb58134d622,TCN,2024-06-24_15h35.30.499,LearnStrategy,2023.2.3,MacIntel,30.15681544,4,1,3,0.041666667,-0.007638889,1,0,0,1.047,rock_grid_rect_2,1,14,-1,-1,1.047,-0.127777778,-0.390972222,1,0,0,1.533,Pegmatite_rect,6,1.533,0,2,0,2,0,1,,,,,,,,,,,,,
662d56e5cc343fb58134d622,TCN,2024-06-24_15h35.30.499,LearnStrategy,2023.2.3,MacIntel,30.15681544,4,1,4,0.034027778,0,1,0,0,1.445,rock_grid_rect_2,2,01,-1,-1,1.445,-0.126388889,-0.245833333,1,0,0,1.339,Basalt_rect,2,1.339,1,3,0,3,0,1,,,,,,,,,,,,,
662d56e5cc343fb58134d622,TCN,2024-06-24_15h35.30.499,LearnStrategy,2023.2.3,MacIntel,30.15681544,4,1,5,0.018055556,0.002083333,1,0,0,1.243,rock_grid_rect_2,4,01,-1,-1,1.243,0.083333333,-0.254166667,1,0,0,1.578,Diorite_rect,3,1.578,0,4,0,4,0,1,,,,,,,,,,,,,
662d56e5cc343fb58134d622,TCN,2024-06-24_15h35.30.499,LearnStrategy,2023.2.3,MacIntel,30.15681544,4,1,6,-0.039583333,-0.015972222,1,0,0,1.447,rock_grid_rect_2,7,08,-1,-1,1.447,0.099305556,-0.386111111,1,0,0,2.449,Peridotite_rect,7,2.449,1,5,0,5,0,1,,,,,,,,,,,,,
662d56e5cc343fb58134d622,TCN,2024-06-24_15h35.30.499,LearnStrategy,2023.2.3,MacIntel,30.15681544,4,1,7,0.060416667,-0.002083333,1,0,0,1.124,rock_grid_rect_2,6,07,-1,-1,1.124,-0.186111111,-0.419444444,1,0,0,2.138,Pegmatite_rect,6,2.138,1,6,0,6,0,1,,,,,,,,,,,,,
662d56e5cc343fb58134d622,TCN,2024-06-24_15h35.30.499,LearnStrategy,2023.2.3,MacIntel,30.15681544,4,1,8,0.056944444,0.01875,1,0,0,0.993,rock_grid_rect_2,5,05,-1,-1,0.993,-0.40625,-0.388888889,1,0,0,2.218,Obsidian_rect,5,2.218,1,7,0,7,0,1,,,,,,,,,,,,,
662d56e5cc343fb58134d622,TCN,2024-06-24_15h35.30.499,LearnStrategy,2023.2.3,MacIntel,30.15681544,4,1,9,0.065277778,-0.007638889,1,0,0,0.958,rock_grid_rect_2,3,13,-1,-1,0.958,0.125694444,-0.261805556,1,0,0,1.388,Diorite_rect,3,1.388,1,8,0,8,0,1,,,,,,,,,,,,,
662d56e5cc343fb58134d622,TCN,2024-06-24_15h35.30.499,LearnStrategy,2023.2.3,MacIntel,30.15681544,4,1,10,0.06875,-0.00625,1,0,0,1.025,rock_grid_rect_2,8,04,-1,-1,1.025,0.365972222,-0.389583333,1,0,0,1.64,Pumice_rect,8,1.64,1,9,0,9,0,1,,,,,,,,,,,,,
662d56e5cc343fb58134d622,TCN,2024-06-24_15h35.30.499,LearnStrategy,2023.2.3,MacIntel,30.15681544,4,1,11,0.054861111,0.009027778,1,0,0,1.299,rock_grid_rect_2,4,05,-1,-1,1.299,0.454861111,-0.247222222,1,0,0,6.149,Gabbro_rect,4,6.149,1,10,0,10,0,1,,,,,,,,,,,,,
662d56e5cc343fb58134d622,TCN,2024-06-24_15h35.30.499,LearnStrategy,2023.2.3,MacIntel,30.15681544,4,1,12,0.106944444,-0.009027778,1,0,0,1.234,rock_grid_rect_2,1,04,-1,-1,1.234,-0.404166667,-0.252083333,1,0,0,6.071,Andesite_rect,1,6.071,1,11,0,11,0,1,,,,,,,,,,,,,
662d56e5cc343fb58134d622,TCN,2024-06-24_15h35.30.499,LearnStrategy,2023.2.3,MacIntel,30.15681544,4,1,13,0.080555556,0.005555556,1,0,0,1.133,rock_grid_rect_2,5,16,-1,-1,1.133,-0.418055556,-0.401388889,1,0,0,2.692,Obsidian_rect,5,2.692,1,12,0,12,0,1,,,,,,,,,,,,,
662d56e5cc343fb58134d622,TCN,2024-06-24_15h35.30.499,LearnStrategy,2023.2.3,MacIntel,30.15681544,4,1,14,0.111111111,-0.001388889,1,0,0,1.233,rock_grid_rect_2,8,14,-1,-1,1.233,0.370138889,-0.391666667,1,0,0,1.434,Pumice_rect,8,1.434,1,13,0,13,0,1,,,,,,,,,,,,,
662d56e5cc343fb58134d622,TCN,2024-06-24_15h35.30.499,LearnStrategy,2023.2.3,MacIntel,30.15681544,4,1,15,0.148611111,0.010416667,1,0,0,1.335,rock_grid_rect_2,3,16,-1,-1,1.335,0.147916667,-0.261805556,1,0,0,3.471,Diorite_rect,3,3.471,1,14,0,14,0,1,,,,,,,,,,,,,
662d56e5cc343fb58134d622,TCN,2024-06-24_15h35.30.499,LearnStrategy,2023.2.3,MacIntel,30.15681544,4,1,16,0.115972222,0.001388889,1,0,0,1.089,rock_grid_rect_2,2,10,-1,-1,1.089,-0.109027778,-0.252083333,1,0,0,4.187,Basalt_rect,2,4.187,1,15,0,15,0,1,,,,,,,,,,,,,
662d56e5cc343fb58134d622,TCN,2024-06-24_15h35.30.499,LearnStrategy,2023.2.3,MacIntel,30.15681544,4,2,1,,,,,,,,6,03,,,,,,,,,,,6,17.447,1,,,,,,-0.101388889,-0.382638889,1,0,0,17.447,Pegmatite_rect,0,0,0,0,1,
662d56e5cc343fb58134d622,TCN,2024-06-24_15h35.30.499,LearnStrategy,2023.2.3,MacIntel,30.15681544,4,2,2,,,,,,,,1,06,,,,,,,,,,,1,3.947,1,,,,,,-0.392361111,-0.238194444,1,0,0,3.947,Andesite_rect,1,0,1,0,1,
662d56e5cc343fb58134d622,TCN,2024-06-24_15h35.30.499,LearnStrategy,2023.2.3,MacIntel,30.15681544,4,2,3,,,,,,,,6,08,,,,,,,,,,,6,1.876,1,,,,,,-0.19375,-0.395138889,1,0,0,1.876,Pegmatite_rect,2,0,2,0,1,
662d56e5cc343fb58134d622,TCN,2024-06-24_15h35.30.499,LearnStrategy,2023.2.3,MacIntel,30.15681544,4,2,4,,,,,,,,8,16,,,,,,,,,,,8,1.916,1,,,,,,0.422916667,-0.419444444,1,0,0,1.916,Pumice_rect,3,0,3,0,1,
662d56e5cc343fb58134d622,TCN,2024-06-24_15h35.30.499,LearnStrategy,2023.2.3,MacIntel,30.15681544,4,2,5,,,,,,,,4,16,,,,,,,,,,,4,5.185,1,,,,,,0.389583333,-0.231944444,1,0,0,5.185,Gabbro_rect,4,0,4,0,1,
662d56e5cc343fb58134d622,TCN,2024-06-24_15h35.30.499,LearnStrategy,2023.2.3,MacIntel,30.15681544,4,2,6,,,,,,,,2,12,,,,,,,,,,,8,1.492,0,,,,,,0.376388889,-0.411111111,1,0,0,1.492,Pumice_rect,5,0,5,0,1,
662d56e5cc343fb58134d622,TCN,2024-06-24_15h35.30.499,LearnStrategy,2023.2.3,MacIntel,30.15681544,4,2,7,,,,,,,,5,06,,,,,,,,,,,5,2.554,1,,,,,,-0.380555556,-0.396527778,1,0,0,2.554,Obsidian_rect,6,0,6,0,1,
662d56e5cc343fb58134d622,TCN,2024-06-24_15h35.30.499,LearnStrategy,2023.2.3,MacIntel,30.15681544,4,2,8,,,,,,,,4,15,,,,,,,,,,,4,4.423,1,,,,,,0.434027778,-0.249305556,1,0,0,4.423,Gabbro_rect,7,0,7,0,1,
662d56e5cc343fb58134d622,TCN,2024-06-24_15h35.30.499,LearnStrategy,2023.2.3,MacIntel,30.15681544,4,2,9,,,,,,,,1,02,,,,,,,,,,,1,4.136,1,,,,,,-0.402083333,-0.251388889,1,0,0,4.136,Andesite_rect,8,0,8,0,1,
662d56e5cc343fb58134d622,TCN,2024-06-24_15h35.30.499,LearnStrategy,2023.2.3,MacIntel,30.15681544,4,2,10,,,,,,,,2,05,,,,,,,,,,,2,3.344,1,,,,,,-0.159027778,-0.249305556,1,0,0,3.344,Basalt_rect,9,0,9,0,1,
662d56e5cc343fb58134d622,TCN,2024-06-24_15h35.30.499,LearnStrategy,2023.2.3,MacIntel,30.15681544,4,2,11,,,,,,,,8,05,,,,,,,,,,,8,1.639,1,,,,,,0.371527778,-0.408333333,1,0,0,1.639,Pumice_rect,10,0,10,0,1,
662d56e5cc343fb58134d622,TCN,2024-06-24_15h35.30.499,LearnStrategy,2023.2.3,MacIntel,30.15681544,4,2,12,,,,,,,,3,10,,,,,,,,,,,3,1.69,1,,,,,,0.104166667,-0.26875,1,0,0,1.69,Diorite_rect,11,0,11,0,1,
662d56e5cc343fb58134d622,TCN,2024-06-24_15h35.30.499,LearnStrategy,2023.2.3,MacIntel,30.15681544,4,2,13,,,,,,,,3,14,,,,,,,,,,,3,1.449,1,,,,,,0.104166667,-0.26875,1,0,0,1.449,Diorite_rect,12,0,12,0,1,
662d56e5cc343fb58134d622,TCN,2024-06-24_15h35.30.499,LearnStrategy,2023.2.3,MacIntel,30.15681544,4,2,14,,,,,,,,5,08,,,,,,,,,,,5,1.55,1,,,,,,-0.403472222,-0.384027778,1,0,0,1.55,Obsidian_rect,13,0,13,0,1,
662d56e5cc343fb58134d622,TCN,2024-06-24_15h35.30.499,LearnStrategy,2023.2.3,MacIntel,30.15681544,4,2,15,,,,,,,,7,04,,,,,,,,,,,1,13.673,0,,,,,,-0.342361111,-0.265972222,1,0,0,13.673,Andesite_rect,14,0,14,0,1,
662d56e5cc343fb58134d622,TCN,2024-06-24_15h35.30.499,LearnStrategy,2023.2.3,MacIntel,30.15681544,4,2,16,,,,,,,,7,05,,,,,,,,,,,7,2.154,1,,,,,,0.076388889,-0.402083333,1,0,0,2.154,Peridotite_rect,15,0,15,0,1,
662d56e5cc343fb58134d622,TCN,2024-06-24_15h35.30.499,LearnStrategy,2023.2.3,MacIntel,30.15681544,5,1,1,0.09375,0.004166667,1,0,0,1.331,rock_grid_rect_2,4,12,-1,-1,1.331,0.348611111,-0.246527778,1,0,0,4.167,Gabbro_rect,4,4.167,1,0,0,0,0,1,,,,,,,,,,,,,
662d56e5cc343fb58134d622,TCN,2024-06-24_15h35.30.499,LearnStrategy,2023.2.3,MacIntel,30.15681544,5,1,2,-0.027083333,-0.017361111,1,0,0,1.282,rock_grid_rect_2,2,16,-1,-1,1.282,0.363194444,-0.411111111,1,0,0,2.929,Pumice_rect,8,2.929,0,1,0,1,0,1,,,,,,,,,,,,,
662d56e5cc343fb58134d622,TCN,2024-06-24_15h35.30.499,LearnStrategy,2023.2.3,MacIntel,30.15681544,5,1,3,0.05625,-0.01875,1,0,0,1.032,rock_grid_rect_2,4,13,-1,-1,1.032,0.378472222,-0.249305556,1,0,0,1.716,Gabbro_rect,4,1.716,1,2,0,2,0,1,,,,,,,,,,,,,
662d56e5cc343fb58134d622,TCN,2024-06-24_15h35.30.499,LearnStrategy,2023.2.3,MacIntel,30.15681544,5,1,4,-0.026388889,-0.009027778,1,0,0,1.159,rock_grid_rect_2,3,02,-1,-1,1.159,0.1125,-0.245833333,1,0,0,3.343,Diorite_rect,3,3.343,1,3,0,3,0,1,,,,,,,,,,,,,
662d56e5cc343fb58134d622,TCN,2024-06-24_15h35.30.499,LearnStrategy,2023.2.3,MacIntel,30.15681544,5,1,5,-0.031944444,-0.002777778,1,0,0,1.156,rock_grid_rect_2,1,01,-1,-1,1.156,-0.39375,-0.240972222,1,0,0,2.104,Andesite_rect,1,2.104,1,4,0,4,0,1,,,,,,,,,,,,,
662d56e5cc343fb58134d622,TCN,2024-06-24_15h35.30.499,LearnStrategy,2023.2.3,MacIntel,30.15681544,5,1,6,0.108333333,-0.009722222,1,0,0,1.103,rock_grid_rect_2,7,14,-1,-1,1.103,0.097916667,-0.384027778,1,0,0,2.387,Peridotite_rect,7,2.387,1,5,0,5,0,1,,,,,,,,,,,,,
662d56e5cc343fb58134d622,TCN,2024-06-24_15h35.30.499,LearnStrategy,2023.2.3,MacIntel,30.15681544,5,1,7,0.075,-0.016666667,1,0,0,1.15,rock_grid_rect_2,6,15,-1,-1,1.15,-0.173611111,-0.398611111,1,0,0,1.509,Pegmatite_rect,6,1.509,1,6,0,6,0,1,,,,,,,,,,,,,
662d56e5cc343fb58134d622,TCN,2024-06-24_15h35.30.499,LearnStrategy,2023.2.3,MacIntel,30.15681544,5,1,8,0.083333333,-0.004861111,1,0,0,1.224,rock_grid_rect_2,2,04,-1,-1,1.224,-0.120138889,-0.248611111,1,0,0,1.368,Basalt_rect,2,1.368,1,7,0,7,0,1,,,,,,,,,,,,,
662d56e5cc343fb58134d622,TCN,2024-06-24_15h35.30.499,LearnStrategy,2023.2.3,MacIntel,30.15681544,5,1,9,0.041666667,-0.013194444,1,0,0,1.201,rock_grid_rect_2,6,12,-1,-1,1.201,-0.149305556,-0.4,1,0,0,1.546,Pegmatite_rect,6,1.546,1,8,0,8,0,1,,,,,,,,,,,,,
662d56e5cc343fb58134d622,TCN,2024-06-24_15h35.30.499,LearnStrategy,2023.2.3,MacIntel,30.15681544,5,1,10,0.046527778,0.002083333,1,0,0,1.037,rock_grid_rect_2,7,10,-1,-1,1.037,0.066666667,-0.406944444,1,0,0,1.797,Peridotite_rect,7,1.797,1,9,0,9,0,1,,,,,,,,,,,,,
662d56e5cc343fb58134d622,TCN,2024-06-24_15h35.30.499,LearnStrategy,2023.2.3,MacIntel,30.15681544,5,1,11,0.113194444,-0.017361111,1,0,0,1.167,rock_grid_rect_2,3,11,-1,-1,1.167,0.101388889,-0.243055556,1,0,0,1.578,Diorite_rect,3,1.578,1,10,0,10,0,1,,,,,,,,,,,,,
662d56e5cc343fb58134d622,TCN,2024-06-24_15h35.30.499,LearnStrategy,2023.2.3,MacIntel,30.15681544,5,1,12,0.095138889,-0.014583333,1,0,0,1.215,rock_grid_rect_2,5,07,-1,-1,1.215,-0.370138889,-0.419444444,1,0,0,1.465,Obsidian_rect,5,1.465,1,11,0,11,0,1,,,,,,,,,,,,,
662d56e5cc343fb58134d622,TCN,2024-06-24_15h35.30.499,LearnStrategy,2023.2.3,MacIntel,30.15681544,5,1,13,-0.013888889,-0.022916667,1,0,0,1.297,rock_grid_rect_2,8,03,-1,-1,1.297,0.367361111,-0.404166667,1,0,0,1.551,Pumice_rect,8,1.551,1,12,0,12,0,1,,,,,,,,,,,,,
662d56e5cc343fb58134d622,TCN,2024-06-24_15h35.30.499,LearnStrategy,2023.2.3,MacIntel,30.15681544,5,1,14,0.058333333,-0.014583333,1,0,0,1.279,rock_grid_rect_2,5,12,-1,-1,1.279,-0.489583333,-0.41875,1,0,0,1.646,Obsidian_rect,5,1.646,1,13,0,13,0,1,,,,,,,,,,,,,
662d56e5cc343fb58134d622,TCN,2024-06-24_15h35.30.499,LearnStrategy,2023.2.3,MacIntel,30.15681544,5,1,15,0,0.003472222,1,0,0,1.311,rock_grid_rect_2,1,07,-1,-1,1.311,-0.309027778,-0.244444444,1,0,0,3.53,Andesite_rect,1,3.53,1,14,0,14,0,1,,,,,,,,,,,,,
662d56e5cc343fb58134d622,TCN,2024-06-24_15h35.30.499,LearnStrategy,2023.2.3,MacIntel,30.15681544,5,1,16,0.095138889,-0.00625,1,0,0,1.307,rock_grid_rect_2,8,08,-1,-1,1.307,0.352777778,-0.408333333,1,0,0,1.54,Pumice_rect,8,1.54,1,15,0,15,0,1,,,,,,,,,,,,,
662d56e5cc343fb58134d622,TCN,2024-06-24_15h35.30.499,LearnStrategy,2023.2.3,MacIntel,30.15681544,5,2,1,,,,,,,,3,07,,,,,,,,,,,3,8.89,1,,,,,,0.102083333,-0.254166667,1,0,0,8.89,Diorite_rect,0,0,0,0,1,
662d56e5cc343fb58134d622,TCN,2024-06-24_15h35.30.499,LearnStrategy,2023.2.3,MacIntel,30.15681544,5,2,2,,,,,,,,8,09,,,,,,,,,,,8,1.832,1,,,,,,0.3375,-0.411805556,1,0,0,1.832,Pumice_rect,1,0,1,0,1,
662d56e5cc343fb58134d622,TCN,2024-06-24_15h35.30.499,LearnStrategy,2023.2.3,MacIntel,30.15681544,5,2,3,,,,,,,,2,14,,,,,,,,,,,8,8.488,0,,,,,,0.383333333,-0.395833333,1,0,0,8.488,Pumice_rect,2,0,2,0,1,
662d56e5cc343fb58134d622,TCN,2024-06-24_15h35.30.499,LearnStrategy,2023.2.3,MacIntel,30.15681544,5,2,4,,,,,,,,6,10,,,,,,,,,,,7,3.648,0,,,,,,0.159027778,-0.396527778,1,0,0,3.648,Peridotite_rect,3,0,3,0,1,
662d56e5cc343fb58134d622,TCN,2024-06-24_15h35.30.499,LearnStrategy,2023.2.3,MacIntel,30.15681544,5,2,5,,,,,,,,3,09,,,,,,,,,,,3,1.442,1,,,,,,0.179861111,-0.254861111,1,0,0,1.442,Diorite_rect,4,0,4,0,1,
662d56e5cc343fb58134d622,TCN,2024-06-24_15h35.30.499,LearnStrategy,2023.2.3,MacIntel,30.15681544,5,2,6,,,,,,,,4,10,,,,,,,,,,,4,2.258,1,,,,,,0.409027778,-0.247916667,1,0,0,2.258,Gabbro_rect,5,0,5,0,1,
662d56e5cc343fb58134d622,TCN,2024-06-24_15h35.30.499,LearnStrategy,2023.2.3,MacIntel,30.15681544,5,2,7,,,,,,,,1,11,,,,,,,,,,,1,2.564,1,,,,,,-0.41875,-0.250694444,1,0,0,2.564,Andesite_rect,6,0,6,0,1,
662d56e5cc343fb58134d622,TCN,2024-06-24_15h35.30.499,LearnStrategy,2023.2.3,MacIntel,30.15681544,5,2,8,,,,,,,,7,02,,,,,,,,,,,7,4.059,1,,,,,,0.130555556,-0.39375,1,0,0,4.059,Peridotite_rect,7,0,7,0,1,
662d56e5cc343fb58134d622,TCN,2024-06-24_15h35.30.499,LearnStrategy,2023.2.3,MacIntel,30.15681544,5,2,9,,,,,,,,5,11,,,,,,,,,,,5,1.672,1,,,,,,-0.400694444,-0.390277778,1,0,0,1.672,Obsidian_rect,8,0,8,0,1,
662d56e5cc343fb58134d622,TCN,2024-06-24_15h35.30.499,LearnStrategy,2023.2.3,MacIntel,30.15681544,5,2,10,,,,,,,,2,09,,,,,,,,,,,2,1.956,1,,,,,,-0.129166667,-0.265972222,1,0,0,1.956,Basalt_rect,9,0,9,0,1,
662d56e5cc343fb58134d622,TCN,2024-06-24_15h35.30.499,LearnStrategy,2023.2.3,MacIntel,30.15681544,5,2,11,,,,,,,,1,16,,,,,,,,,,,1,14.578,1,,,,,,-0.35625,-0.26875,1,0,0,14.578,Andesite_rect,10,0,10,0,1,
662d56e5cc343fb58134d622,TCN,2024-06-24_15h35.30.499,LearnStrategy,2023.2.3,MacIntel,30.15681544,5,2,12,,,,,,,,4,11,,,,,,,,,,,4,14.519,1,,,,,,0.357638889,-0.2375,1,0,0,14.519,Gabbro_rect,11,0,11,0,1,
662d56e5cc343fb58134d622,TCN,2024-06-24_15h35.30.499,LearnStrategy,2023.2.3,MacIntel,30.15681544,5,2,13,,,,,,,,5,10,,,,,,,,,,,5,1.47,1,,,,,,-0.394444444,-0.396527778,1,0,0,1.47,Obsidian_rect,12,0,12,0,1,
662d56e5cc343fb58134d622,TCN,2024-06-24_15h35.30.499,LearnStrategy,2023.2.3,MacIntel,30.15681544,5,2,14,,,,,,,,6,06,,,,,,,,,,,7,15.281,0,,,,,,0.083333333,-0.397916667,1,0,0,15.281,Peridotite_rect,13,0,13,0,1,
662d56e5cc343fb58134d622,TCN,2024-06-24_15h35.30.499,LearnStrategy,2023.2.3,MacIntel,30.15681544,5,2,15,,,,,,,,7,12,,,,,,,,,,,7,1.368,1,,,,,,0.084722222,-0.399305556,1,0,0,1.368,Peridotite_rect,14,0,14,0,1,
662d56e5cc343fb58134d622,TCN,2024-06-24_15h35.30.499,LearnStrategy,2023.2.3,MacIntel,30.15681544,5,2,16,,,,,,,,8,15,,,,,,,,,,,8,1.6,1,,,,,,0.315277778,-0.399305556,1,0,0,1.6,Pumice_rect,15,0,15,0,1,
662d56e5cc343fb58134d622,TCN,2024-06-24_15h35.30.499,LearnStrategy,2023.2.3,MacIntel,30.15681544,6,1,1,0.106944444,-0.006944444,1,0,0,1.57,rock_grid_rect_2,5,02,-1,-1,1.57,-0.324305556,-0.397222222,1,0,0,1.431,Obsidian_rect,5,1.431,1,0,0,0,0,1,,,,,,,,,,,,,
662d56e5cc343fb58134d622,TCN,2024-06-24_15h35.30.499,LearnStrategy,2023.2.3,MacIntel,30.15681544,6,1,2,0.024305556,0.001388889,1,0,0,1.409,rock_grid_rect_2,6,09,-1,-1,1.409,0.084722222,-0.389583333,1,0,0,1.781,Peridotite_rect,7,1.781,0,1,0,1,0,1,,,,,,,,,,,,,
662d56e5cc343fb58134d622,TCN,2024-06-24_15h35.30.499,LearnStrategy,2023.2.3,MacIntel,30.15681544,6,1,3,0.122916667,0.002083333,1,0,0,1.563,rock_grid_rect_2,7,15,-1,-1,1.563,0.177777778,-0.390972222,1,0,0,1.497,Peridotite_rect,7,1.497,1,2,0,2,0,1,,,,,,,,,,,,,
662d56e5cc343fb58134d622,TCN,2024-06-24_15h35.30.499,LearnStrategy,2023.2.3,MacIntel,30.15681544,6,1,4,0.08125,-0.006944444,1,0,0,1.147,rock_grid_rect_2,2,06,-1,-1,1.147,-0.088194444,-0.261111111,1,0,0,1.448,Basalt_rect,2,1.448,1,3,0,3,0,1,,,,,,,,,,,,,
662d56e5cc343fb58134d622,TCN,2024-06-24_15h35.30.499,LearnStrategy,2023.2.3,MacIntel,30.15681544,6,1,5,0.045138889,0.009027778,1,0,0,1.142,rock_grid_rect_2,3,15,-1,-1,1.142,0.129861111,-0.265277778,1,0,0,1.822,Diorite_rect,3,1.822,1,4,0,4,0,1,,,,,,,,,,,,,
662d56e5cc343fb58134d622,TCN,2024-06-24_15h35.30.499,LearnStrategy,2023.2.3,MacIntel,30.15681544,6,1,6,0.109722222,0.017361111,1,0,0,0.945,rock_grid_rect_2,1,05,-1,-1,0.945,-0.354861111,-0.234027778,1,0,0,3.21,Andesite_rect,1,3.21,1,5,0,5,0,1,,,,,,,,,,,,,
662d56e5cc343fb58134d622,TCN,2024-06-24_15h35.30.499,LearnStrategy,2023.2.3,MacIntel,30.15681544,6,1,7,0.091666667,0.009027778,1,0,0,1.514,rock_grid_rect_2,8,02,-1,-1,1.514,0.3625,-0.421527778,1,0,0,1.538,Pumice_rect,8,1.538,1,6,0,6,0,1,,,,,,,,,,,,,
662d56e5cc343fb58134d622,TCN,2024-06-24_15h35.30.499,LearnStrategy,2023.2.3,MacIntel,30.15681544,6,1,8,0.041666667,-0.004861111,1,0,0,1.179,rock_grid_rect_2,4,09,-1,-1,1.179,0.361111111,-0.254861111,1,0,0,2.342,Gabbro_rect,4,2.342,1,7,0,7,0,1,,,,,,,,,,,,,
662d56e5cc343fb58134d622,TCN,2024-06-24_15h35.30.499,LearnStrategy,2023.2.3,MacIntel,30.15681544,6,1,9,0.030555556,0.003472222,1,0,0,0.929,rock_grid_rect_2,7,06,-1,-1,0.929,0.076388889,-0.393055556,1,0,0,2.316,Peridotite_rect,7,2.316,1,8,0,8,0,1,,,,,,,,,,,,,
662d56e5cc343fb58134d622,TCN,2024-06-24_15h35.30.499,LearnStrategy,2023.2.3,MacIntel,30.15681544,6,1,10,0.125694444,-0.001388889,1,0,0,1.017,rock_grid_rect_2,1,09,-1,-1,1.017,-0.371527778,-0.247222222,1,0,0,3.233,Andesite_rect,1,3.233,1,9,0,9,0,1,,,,,,,,,,,,,
662d56e5cc343fb58134d622,TCN,2024-06-24_15h35.30.499,LearnStrategy,2023.2.3,MacIntel,30.15681544,6,1,11,0.121527778,-0.009722222,1,0,0,1.107,rock_grid_rect_2,6,11,-1,-1,1.107,-0.188888889,-0.391666667,1,0,0,1.355,Pegmatite_rect,6,1.355,1,10,0,10,0,1,,,,,,,,,,,,,
662d56e5cc343fb58134d622,TCN,2024-06-24_15h35.30.499,LearnStrategy,2023.2.3,MacIntel,30.15681544,6,1,12,0.107638889,-0.0125,1,0,0,1.183,rock_grid_rect_2,8,10,-1,-1,1.183,0.390972222,-0.409722222,1,0,0,1.589,Pumice_rect,8,1.589,1,11,0,11,0,1,,,,,,,,,,,,,
662d56e5cc343fb58134d622,TCN,2024-06-24_15h35.30.499,LearnStrategy,2023.2.3,MacIntel,30.15681544,6,1,13,0.06875,-0.002083333,1,0,0,1.239,rock_grid_rect_2,2,02,-1,-1,1.239,-0.184027778,-0.259722222,1,0,0,1.529,Basalt_rect,2,1.529,1,12,0,12,0,1,,,,,,,,,,,,,
662d56e5cc343fb58134d622,TCN,2024-06-24_15h35.30.499,LearnStrategy,2023.2.3,MacIntel,30.15681544,6,1,14,0.064583333,0.010416667,1,0,0,1.354,rock_grid_rect_2,4,14,-1,-1,1.354,0.370833333,-0.245138889,1,0,0,1.626,Gabbro_rect,4,1.626,1,13,0,13,0,1,,,,,,,,,,,,,
662d56e5cc343fb58134d622,TCN,2024-06-24_15h35.30.499,LearnStrategy,2023.2.3,MacIntel,30.15681544,6,1,15,0.159027778,0.002777778,1,0,0,0.906,rock_grid_rect_2,3,12,-1,-1,0.906,0.143055556,-0.254166667,1,0,0,1.138,Diorite_rect,3,1.138,1,14,0,14,0,1,,,,,,,,,,,,,
662d56e5cc343fb58134d622,TCN,2024-06-24_15h35.30.499,LearnStrategy,2023.2.3,MacIntel,30.15681544,6,1,16,0.077777778,-0.009722222,1,0,0,1.141,rock_grid_rect_2,5,14,-1,-1,1.141,-0.40625,-0.419444444,1,0,0,1.404,Obsidian_rect,5,1.404,1,15,0,15,0,1,,,,,,,,,,,,,
662d56e5cc343fb58134d622,TCN,2024-06-24_15h35.30.499,LearnStrategy,2023.2.3,MacIntel,30.15681544,6,2,1,,,,,,,,7,07,,,,,,,,,,,7,5.146,1,,,,,,0.190972222,-0.399305556,1,0,0,5.146,Peridotite_rect,0,0,0,0,1,
662d56e5cc343fb58134d622,TCN,2024-06-24_15h35.30.499,LearnStrategy,2023.2.3,MacIntel,30.15681544,6,2,2,,,,,,,,4,03,,,,,,,,,,,4,9.077,1,,,,,,0.434027778,-0.251388889,1,0,0,9.077,Gabbro_rect,1,0,1,0,1,
662d56e5cc343fb58134d622,TCN,2024-06-24_15h35.30.499,LearnStrategy,2023.2.3,MacIntel,30.15681544,6,2,3,,,,,,,,5,04,,,,,,,,,,,5,1.422,1,,,,,,-0.351388889,-0.396527778,1,0,0,1.422,Obsidian_rect,2,0,2,0,1,
662d56e5cc343fb58134d622,TCN,2024-06-24_15h35.30.499,LearnStrategy,2023.2.3,MacIntel,30.15681544,6,2,4,,,,,,,,2,11,,,,,,,,,,,8,4.856,0,,,,,,0.403472222,-0.413194444,1,0,0,4.856,Pumice_rect,3,0,3,0,1,
662d56e5cc343fb58134d622,TCN,2024-06-24_15h35.30.499,LearnStrategy,2023.2.3,MacIntel,30.15681544,6,2,5,,,,,,,,6,05,,,,,,,,,,,6,5.647,1,,,,,,-0.130555556,-0.404166667,1,0,0,5.647,Pegmatite_rect,4,0,4,0,1,
662d56e5cc343fb58134d622,TCN,2024-06-24_15h35.30.499,LearnStrategy,2023.2.3,MacIntel,30.15681544,6,2,6,,,,,,,,4,08,,,,,,,,,,,4,5.997,1,,,,,,0.377777778,-0.228472222,1,0,0,5.997,Gabbro_rect,5,0,5,0,1,
662d56e5cc343fb58134d622,TCN,2024-06-24_15h35.30.499,LearnStrategy,2023.2.3,MacIntel,30.15681544,6,2,7,,,,,,,,6,16,,,,,,,,,,,6,3.431,1,,,,,,-0.104166667,-0.401388889,1,0,0,3.431,Pegmatite_rect,6,0,6,0,1,
662d56e5cc343fb58134d622,TCN,2024-06-24_15h35.30.499,LearnStrategy,2023.2.3,MacIntel,30.15681544,6,2,8,,,,,,,,5,09,,,,,,,,,,,5,1.811,1,,,,,,-0.386111111,-0.416666667,1,0,0,1.811,Obsidian_rect,7,0,7,0,1,
662d56e5cc343fb58134d622,TCN,2024-06-24_15h35.30.499,LearnStrategy,2023.2.3,MacIntel,30.15681544,6,2,9,,,,,,,,8,06,,,,,,,,,,,8,1.669,1,,,,,,0.390972222,-0.394444444,1,0,0,1.669,Pumice_rect,8,0,8,0,1,
662d56e5cc343fb58134d622,TCN,2024-06-24_15h35.30.499,LearnStrategy,2023.2.3,MacIntel,30.15681544,6,2,10,,,,,,,,2,08,,,,,,,,,,,2,2.171,1,,,,,,-0.093055556,-0.24375,1,0,0,2.171,Basalt_rect,9,0,9,0,1,
662d56e5cc343fb58134d622,TCN,2024-06-24_15h35.30.499,LearnStrategy,2023.2.3,MacIntel,30.15681544,6,2,11,,,,,,,,1,03,,,,,,,,,,,1,3.011,1,,,,,,-0.375694444,-0.242361111,1,0,0,3.011,Andesite_rect,10,0,10,0,1,
662d56e5cc343fb58134d622,TCN,2024-06-24_15h35.30.499,LearnStrategy,2023.2.3,MacIntel,30.15681544,6,2,12,,,,,,,,8,13,,,,,,,,,,,8,1.779,1,,,,,,0.374305556,-0.402083333,1,0,0,1.779,Pumice_rect,11,0,11,0,1,
662d56e5cc343fb58134d622,TCN,2024-06-24_15h35.30.499,LearnStrategy,2023.2.3,MacIntel,30.15681544,6,2,13,,,,,,,,3,08,,,,,,,,,,,3,1.518,1,,,,,,0.128472222,-0.254166667,1,0,0,1.518,Diorite_rect,12,0,12,0,1,
662d56e5cc343fb58134d622,TCN,2024-06-24_15h35.30.499,LearnStrategy,2023.2.3,MacIntel,30.15681544,6,2,14,,,,,,,,7,16,,,,,,,,,,,7,10.591,1,,,,,,0.138194444,-0.395138889,1,0,0,10.591,Peridotite_rect,13,0,13,0,1,
662d56e5cc343fb58134d622,TCN,2024-06-24_15h35.30.499,LearnStrategy,2023.2.3,MacIntel,30.15681544,6,2,15,,,,,,,,3,06,,,,,,,,,,,3,1.189,1,,,,,,0.142361111,-0.259722222,1,0,0,1.189,Diorite_rect,14,0,14,0,1,
662d56e5cc343fb58134d622,TCN,2024-06-24_15h35.30.499,LearnStrategy,2023.2.3,MacIntel,30.15681544,6,2,16,,,,,,,,1,10,,,,,,,,,,,1,1.99,1,,,,,,-0.4125,-0.241666667,1,0,0,1.99,Andesite_rect,15,0,15,0,1,
662d56e5cc343fb58134d622,TCN,2024-06-24_15h35.30.499,LearnStrategy,2023.2.3,MacIntel,30.15681544,7,1,1,0.05,0.000694444,1,0,0,1.123,rock_grid_rect_2,5,02,-1,-1,1.123,-0.381944444,-0.400694444,1,0,0,1.309,Obsidian_rect,5,1.309,1,0,0,0,0,1,,,,,,,,,,,,,
662d56e5cc343fb58134d622,TCN,2024-06-24_15h35.30.499,LearnStrategy,2023.2.3,MacIntel,30.15681544,7,1,2,0.030555556,-0.004166667,1,0,0,1.098,rock_grid_rect_2,7,15,-1,-1,1.098,0.125694444,-0.389583333,1,0,0,1.538,Peridotite_rect,7,1.538,1,1,0,1,0,1,,,,,,,,,,,,,
662d56e5cc343fb58134d622,TCN,2024-06-24_15h35.30.499,LearnStrategy,2023.2.3,MacIntel,30.15681544,7,1,3,0.089583333,-0.008333333,1,0,0,1.155,rock_grid_rect_2,1,01,-1,-1,1.155,-0.365972222,-0.235416667,1,0,0,1.731,Andesite_rect,1,1.731,1,2,0,2,0,1,,,,,,,,,,,,,
662d56e5cc343fb58134d622,TCN,2024-06-24_15h35.30.499,LearnStrategy,2023.2.3,MacIntel,30.15681544,7,1,4,0.040277778,-0.004861111,1,0,0,1.042,rock_grid_rect_2,4,12,-1,-1,1.042,0.340277778,-0.267361111,1,0,0,2.486,Gabbro_rect,4,2.486,1,3,0,3,0,1,,,,,,,,,,,,,
662d56e5cc343fb58134d622,TCN,2024-06-24_15h35.30.499,LearnStrategy,2023.2.3,MacIntel,30.15681544,7,1,5,0.039583333,-0.010416667,1,0,0,1.126,rock_grid_rect_2,1,04,-1,-1,1.126,-0.369444444,-0.259027778,1,0,0,1.593,Andesite_rect,1,1.593,1,4,0,4,0,1,,,,,,,,,,,,,
662d56e5cc343fb58134d622,TCN,2024-06-24_15h35.30.499,LearnStrategy,2023.2.3,MacIntel,30.15681544,7,1,6,0.049305556,-0.025,1,0,0,1.069,rock_grid_rect_2,6,15,-1,-1,1.069,-0.142361111,-0.407638889,1,0,0,1.703,Pegmatite_rect,6,1.703,1,5,0,5,0,1,,,,,,,,,,,,,
662d56e5cc343fb58134d622,TCN,2024-06-24_15h35.30.499,LearnStrategy,2023.2.3,MacIntel,30.15681544,7,1,7,0.078472222,-0.007638889,1,0,0,1.22,rock_grid_rect_2,6,13,-1,-1,1.22,-0.125694444,-0.402083333,1,0,0,1.488,Pegmatite_rect,6,1.488,1,6,0,6,0,1,,,,,,,,,,,,,
662d56e5cc343fb58134d622,TCN,2024-06-24_15h35.30.499,LearnStrategy,2023.2.3,MacIntel,30.15681544,7,1,8,0.005555556,-0.002083333,1,0,0,1.191,rock_grid_rect_2,2,04,-1,-1,1.191,-0.123611111,-0.234722222,1,0,0,1.664,Basalt_rect,2,1.664,1,7,0,7,0,1,,,,,,,,,,,,,
662d56e5cc343fb58134d622,TCN,2024-06-24_15h35.30.499,LearnStrategy,2023.2.3,MacIntel,30.15681544,7,1,9,0.024305556,-0.009722222,1,0,0,1.206,rock_grid_rect_2,7,06,-1,-1,1.206,0.13125,-0.404166667,1,0,0,2.225,Peridotite_rect,7,2.225,1,8,0,8,0,1,,,,,,,,,,,,,
662d56e5cc343fb58134d622,TCN,2024-06-24_15h35.30.499,LearnStrategy,2023.2.3,MacIntel,30.15681544,7,1,10,0.104861111,-0.009027778,1,0,0,1.332,rock_grid_rect_2,4,01,-1,-1,1.332,0.361805556,-0.256944444,1,0,0,7.29,Gabbro_rect,4,7.29,1,9,0,9,0,1,,,,,,,,,,,,,
662d56e5cc343fb58134d622,TCN,2024-06-24_15h35.30.499,LearnStrategy,2023.2.3,MacIntel,30.15681544,7,1,11,0.046527778,-0.013194444,1,0,0,1.163,rock_grid_rect_2,3,11,-1,-1,1.163,0.100694444,-0.240972222,1,0,0,1.316,Diorite_rect,3,1.316,1,10,0,10,0,1,,,,,,,,,,,,,
662d56e5cc343fb58134d622,TCN,2024-06-24_15h35.30.499,LearnStrategy,2023.2.3,MacIntel,30.15681544,7,1,12,0.035416667,-0.004861111,1,0,0,1.285,rock_grid_rect_2,3,12,-1,-1,1.285,0.098611111,-0.24375,1,0,0,2.994,Diorite_rect,3,2.994,1,11,0,11,0,1,,,,,,,,,,,,,
662d56e5cc343fb58134d622,TCN,2024-06-24_15h35.30.499,LearnStrategy,2023.2.3,MacIntel,30.15681544,7,1,13,0.082638889,-0.000694444,1,0,0,1.395,rock_grid_rect_2,8,14,-1,-1,1.395,0.368055556,-0.415972222,1,0,0,1.585,Pumice_rect,8,1.585,1,12,0,12,0,1,,,,,,,,,,,,,
662d56e5cc343fb58134d622,TCN,2024-06-24_15h35.30.499,LearnStrategy,2023.2.3,MacIntel,30.15681544,7,1,14,0.069444444,-0.011111111,1,0,0,1.424,rock_grid_rect_2,5,05,-1,-1,1.424,-0.340972222,-0.389583333,1,0,0,1.635,Obsidian_rect,5,1.635,1,13,0,13,0,1,,,,,,,,,,,,,
662d56e5cc343fb58134d622,TCN,2024-06-24_15h35.30.499,LearnStrategy,2023.2.3,MacIntel,30.15681544,7,1,15,0.029861111,-0.000694444,1,0,0,1.102,rock_grid_rect_2,2,16,-1,-1,1.102,-0.100694444,-0.245138889,1,0,0,4.747,Basalt_rect,2,4.747,1,14,0,14,0,1,,,,,,,,,,,,,
662d56e5cc343fb58134d622,TCN,2024-06-24_15h35.30.499,LearnStrategy,2023.2.3,MacIntel,30.15681544,7,1,16,0.140277778,-0.009027778,1,0,0,1.41,rock_grid_rect_2,8,04,-1,-1,1.41,0.409027778,-0.409722222,1,0,0,1.547,Pumice_rect,8,1.547,1,15,0,15,0,1,,,,,,,,,,,,,
662d56e5cc343fb58134d622,TCN,2024-06-24_15h35.30.499,LearnStrategy,2023.2.3,MacIntel,30.15681544,7,2,1,,,,,,,,3,10,,,,,,,,,,,3,11.786,1,,,,,,0.118055556,-0.231944444,1,0,0,11.786,Diorite_rect,0,0,0,0,1,
662d56e5cc343fb58134d622,TCN,2024-06-24_15h35.30.499,LearnStrategy,2023.2.3,MacIntel,30.15681544,7,2,2,,,,,,,,7,12,,,,,,,,,,,7,1.437,1,,,,,,0.125,-0.411805556,1,0,0,1.437,Peridotite_rect,1,0,1,0,1,
662d56e5cc343fb58134d622,TCN,2024-06-24_15h35.30.499,LearnStrategy,2023.2.3,MacIntel,30.15681544,7,2,3,,,,,,,,8,06,,,,,,,,,,,8,2.34,1,,,,,,0.385416667,-0.397222222,1,0,0,2.34,Pumice_rect,2,0,2,0,1,
662d56e5cc343fb58134d622,TCN,2024-06-24_15h35.30.499,LearnStrategy,2023.2.3,MacIntel,30.15681544,7,2,4,,,,,,,,1,10,,,,,,,,,,,1,1.764,1,,,,,,-0.454861111,-0.233333333,1,0,0,1.764,Andesite_rect,3,0,3,0,1,
662d56e5cc343fb58134d622,TCN,2024-06-24_15h35.30.499,LearnStrategy,2023.2.3,MacIntel,30.15681544,7,2,5,,,,,,,,4,16,,,,,,,,,,,4,3.351,1,,,,,,0.38125,-0.236805556,1,0,0,3.351,Gabbro_rect,4,0,4,0,1,
662d56e5cc343fb58134d622,TCN,2024-06-24_15h35.30.499,LearnStrategy,2023.2.3,MacIntel,30.15681544,7,2,6,,,,,,,,2,05,,,,,,,,,,,2,2.008,1,,,,,,-0.136111111,-0.263888889,1,0,0,2.008,Basalt_rect,5,0,5,0,1,
662d56e5cc343fb58134d622,TCN,2024-06-24_15h35.30.499,LearnStrategy,2023.2.3,MacIntel,30.15681544,7,2,7,,,,,,,,5,10,,,,,,,,,,,5,1.433,1,,,,,,-0.340277778,-0.39375,1,0,0,1.433,Obsidian_rect,6,0,6,0,1,
662d56e5cc343fb58134d622,TCN,2024-06-24_15h35.30.499,LearnStrategy,2023.2.3,MacIntel,30.15681544,7,2,8,,,,,,,,5,09,,,,,,,,,,,5,0.951,1,,,,,,-0.340277778,-0.39375,1,0,0,0.951,Obsidian_rect,7,0,7,0,1,
662d56e5cc343fb58134d622,TCN,2024-06-24_15h35.30.499,LearnStrategy,2023.2.3,MacIntel,30.15681544,7,2,9,,,,,,,,4,15,,,,,,,,,,,4,2.457,1,,,,,,0.388888889,-0.238888889,1,0,0,2.457,Gabbro_rect,8,0,8,0,1,
662d56e5cc343fb58134d622,TCN,2024-06-24_15h35.30.499,LearnStrategy,2023.2.3,MacIntel,30.15681544,7,2,10,,,,,,,,8,16,,,,,,,,,,,8,1.888,1,,,,,,0.382638889,-0.413888889,1,0,0,1.888,Pumice_rect,9,0,9,0,1,
662d56e5cc343fb58134d622,TCN,2024-06-24_15h35.30.499,LearnStrategy,2023.2.3,MacIntel,30.15681544,7,2,11,,,,,,,,6,16,,,,,,,,,,,6,1.968,1,,,,,,-0.136805556,-0.408333333,1,0,0,1.968,Pegmatite_rect,10,0,10,0,1,
662d56e5cc343fb58134d622,TCN,2024-06-24_15h35.30.499,LearnStrategy,2023.2.3,MacIntel,30.15681544,7,2,12,,,,,,,,6,03,,,,,,,,,,,6,6.662,1,,,,,,-0.136805556,-0.408333333,1,0,0,6.662,Pegmatite_rect,11,0,11,0,1,
662d56e5cc343fb58134d622,TCN,2024-06-24_15h35.30.499,LearnStrategy,2023.2.3,MacIntel,30.15681544,7,2,13,,,,,,,,1,16,,,,,,,,,,,1,6.874,1,,,,,,-0.331944444,-0.260416667,1,0,0,6.874,Andesite_rect,12,0,12,0,1,
662d56e5cc343fb58134d622,TCN,2024-06-24_15h35.30.499,LearnStrategy,2023.2.3,MacIntel,30.15681544,7,2,14,,,,,,,,2,08,,,,,,,,,,,2,1.53,1,,,,,,-0.076388889,-0.263888889,1,0,0,1.53,Basalt_rect,13,0,13,0,1,
662d56e5cc343fb58134d622,TCN,2024-06-24_15h35.30.499,LearnStrategy,2023.2.3,MacIntel,30.15681544,7,2,15,,,,,,,,7,02,,,,,,,,,,,7,3.365,1,,,,,,0.114583333,-0.397916667,1,0,0,3.365,Peridotite_rect,14,0,14,0,1,
662d56e5cc343fb58134d622,TCN,2024-06-24_15h35.30.499,LearnStrategy,2023.2.3,MacIntel,30.15681544,7,2,16,,,,,,,,3,07,,,,,,,,,,,3,10.752,1,,,,,,0.140277778,-0.256944444,1,0,0,10.752,Diorite_rect,15,0,15,0,1,
662d56e5cc343fb58134d622,TCN,2024-06-24_15h35.30.499,LearnStrategy,2023.2.3,MacIntel,30.15681544,8,1,1,0.09375,0,1,0,0,1.262,rock_grid_rect_2,7,14,-1,-1,1.262,0.120833333,-0.397916667,1,0,0,1.763,Peridotite_rect,7,1.763,1,0,0,0,0,1,,,,,,,,,,,,,
662d56e5cc343fb58134d622,TCN,2024-06-24_15h35.30.499,LearnStrategy,2023.2.3,MacIntel,30.15681544,8,1,2,0.163888889,0.005555556,1,0,0,1.374,rock_grid_rect_2,6,11,-1,-1,1.374,-0.15625,-0.389583333,1,0,0,2.118,Pegmatite_rect,6,2.118,1,1,0,1,0,1,,,,,,,,,,,,,
662d56e5cc343fb58134d622,TCN,2024-06-24_15h35.30.499,LearnStrategy,2023.2.3,MacIntel,30.15681544,8,1,3,0.095833333,0.003472222,1,0,0,1.03,rock_grid_rect_2,7,10,-1,-1,1.03,0.111805556,-0.390277778,1,0,0,3.043,Peridotite_rect,7,3.043,1,2,0,2,0,1,,,,,,,,,,,,,
662d56e5cc343fb58134d622,TCN,2024-06-24_15h35.30.499,LearnStrategy,2023.2.3,MacIntel,30.15681544,8,1,4,0.084722222,-0.021527778,1,0,0,1.286,rock_grid_rect_2,5,07,-1,-1,1.286,-0.390972222,-0.414583333,1,0,0,1.427,Obsidian_rect,5,1.427,1,3,0,3,0,1,,,,,,,,,,,,,
662d56e5cc343fb58134d622,TCN,2024-06-24_15h35.30.499,LearnStrategy,2023.2.3,MacIntel,30.15681544,8,1,5,0.081944444,0.000694444,1,0,0,2.514,rock_grid_rect_2,6,12,-1,-1,2.514,-0.146527778,-0.384027778,1,0,0,3.582,Pegmatite_rect,6,3.582,1,4,0,4,0,1,,,,,,,,,,,,,
662d56e5cc343fb58134d622,TCN,2024-06-24_15h35.30.499,LearnStrategy,2023.2.3,MacIntel,30.15681544,8,1,6,0.075694444,0.00625,1,0,0,1.118,rock_grid_rect_2,5,12,-1,-1,1.118,-0.365972222,-0.4125,1,0,0,2.717,Obsidian_rect,5,2.717,1,5,0,5,0,1,,,,,,,,,,,,,
662d56e5cc343fb58134d622,TCN,2024-06-24_15h35.30.499,LearnStrategy,2023.2.3,MacIntel,30.15681544,8,1,7,0.1,-0.009027778,1,0,0,1.069,rock_grid_rect_2,1,05,-1,-1,1.069,-0.382638889,-0.246527778,1,0,0,1.637,Andesite_rect,1,1.637,1,6,0,6,0,1,,,,,,,,,,,,,
662d56e5cc343fb58134d622,TCN,2024-06-24_15h35.30.499,LearnStrategy,2023.2.3,MacIntel,30.15681544,8,1,8,0.070833333,-0.0125,1,0,0,1.082,rock_grid_rect_2,3,13,-1,-1,1.082,0.102083333,-0.264583333,1,0,0,2.142,Diorite_rect,3,2.142,1,7,0,7,0,1,,,,,,,,,,,,,
662d56e5cc343fb58134d622,TCN,2024-06-24_15h35.30.499,LearnStrategy,2023.2.3,MacIntel,30.15681544,8,1,9,0.015277778,-0.007638889,1,0,0,1.349,rock_grid_rect_2,2,02,-1,-1,1.349,-0.100694444,-0.251388889,1,0,0,1.574,Basalt_rect,2,1.574,1,8,0,8,0,1,,,,,,,,,,,,,
662d56e5cc343fb58134d622,TCN,2024-06-24_15h35.30.499,LearnStrategy,2023.2.3,MacIntel,30.15681544,8,1,10,-0.023611111,0.004861111,1,0,0,1.242,rock_grid_rect_2,1,14,-1,-1,1.242,-0.343055556,-0.245138889,1,0,0,1.589,Andesite_rect,1,1.589,1,9,0,9,0,1,,,,,,,,,,,,,
662d56e5cc343fb58134d622,TCN,2024-06-24_15h35.30.499,LearnStrategy,2023.2.3,MacIntel,30.15681544,8,1,11,0.086111111,0.002777778,1,0,0,1.22,rock_grid_rect_2,2,01,-1,-1,1.22,-0.082638889,-0.233333333,1,0,0,1.385,Basalt_rect,2,1.385,1,10,0,10,0,1,,,,,,,,,,,,,
662d56e5cc343fb58134d622,TCN,2024-06-24_15h35.30.499,LearnStrategy,2023.2.3,MacIntel,30.15681544,8,1,12,0.075,0.020833333,1,0,0,1.014,rock_grid_rect_2,8,03,-1,-1,1.014,0.342361111,-0.4,1,0,0,1.517,Pumice_rect,8,1.517,1,11,0,11,0,1,,,,,,,,,,,,,
662d56e5cc343fb58134d622,TCN,2024-06-24_15h35.30.499,LearnStrategy,2023.2.3,MacIntel,30.15681544,8,1,13,0.044444444,0.009027778,1,0,0,1.27,rock_grid_rect_2,4,13,-1,-1,1.27,0.347222222,-0.254166667,1,0,0,1.801,Gabbro_rect,4,1.801,1,12,0,12,0,1,,,,,,,,,,,,,
662d56e5cc343fb58134d622,TCN,2024-06-24_15h35.30.499,LearnStrategy,2023.2.3,MacIntel,30.15681544,8,1,14,0.098611111,-0.011111111,1,0,0,1.241,rock_grid_rect_2,4,14,-1,-1,1.241,0.399305556,-0.251388889,1,0,0,1.587,Gabbro_rect,4,1.587,1,13,0,13,0,1,,,,,,,,,,,,,
662d56e5cc343fb58134d622,TCN,2024-06-24_15h35.30.499,LearnStrategy,2023.2.3,MacIntel,30.15681544,8,1,15,0.122916667,-0.013888889,1,0,0,1.078,rock_grid_rect_2,8,02,-1,-1,1.078,0.377083333,-0.403472222,1,0,0,1.524,Pumice_rect,8,1.524,1,14,0,14,0,1,,,,,,,,,,,,,
662d56e5cc343fb58134d622,TCN,2024-06-24_15h35.30.499,LearnStrategy,2023.2.3,MacIntel,30.15681544,8,1,16,-0.008333333,0.005555556,1,0,0,1.163,rock_grid_rect_2,3,15,-1,-1,1.163,0.100694444,-0.2625,1,0,0,1.4,Diorite_rect,3,1.4,1,15,0,15,0,1,,,,,,,,,,,,,
662d56e5cc343fb58134d622,TCN,2024-06-24_15h35.30.499,LearnStrategy,2023.2.3,MacIntel,30.15681544,8,2,1,,,,,,,,2,12,,,,,,,,,,,8,5.813,0,,,,,,0.358333333,-0.405555556,1,0,0,5.813,Pumice_rect,0,0,0,0,1,
662d56e5cc343fb58134d622,TCN,2024-06-24_15h35.30.499,LearnStrategy,2023.2.3,MacIntel,30.15681544,8,2,2,,,,,,,,7,16,,,,,,,,,,,7,12.88,1,,,,,,0.09375,-0.397916667,1,0,0,12.88,Peridotite_rect,1,0,1,0,1,
662d56e5cc343fb58134d622,TCN,2024-06-24_15h35.30.499,LearnStrategy,2023.2.3,MacIntel,30.15681544,8,2,3,,,,,,,,7,07,,,,,,,,,,,7,1.557,1,,,,,,0.09375,-0.397916667,1,0,0,1.557,Peridotite_rect,2,0,2,0,1,
662d56e5cc343fb58134d622,TCN,2024-06-24_15h35.30.499,LearnStrategy,2023.2.3,MacIntel,30.15681544,8,2,4,,,,,,,,4,10,,,,,,,,,,,4,1.79,1,,,,,,0.384027778,-0.2375,1,0,0,1.79,Gabbro_rect,3,0,3,0,1,
662d56e5cc343fb58134d622,TCN,2024-06-24_15h35.30.499,LearnStrategy,2023.2.3,MacIntel,30.15681544,8,2,5,,,,,,,,5,08,,,,,,,,,,,5,2.369,1,,,,,,-0.423611111,-0.388888889,1,0,0,2.369,Obsidian_rect,4,0,4,0,1,
662d56e5cc343fb58134d622,TCN,2024-06-24_15h35.30.499,LearnStrategy,2023.2.3,MacIntel,30.15681544,8,2,6,,,,,,,,8,15,,,,,,,,,,,8,1.482,1,,,,,,0.414583333,-0.402777778,1,0,0,1.482,Pumice_rect,5,0,5,0,1,
662d56e5cc343fb58134d622,TCN,2024-06-24_15h35.30.499,LearnStrategy,2023.2.3,MacIntel,30.15681544,8,2,7,,,,,,,,6,08,,,,,,,,,,,6,1.635,1,,,,,,-0.168055556,-0.394444444,1,0,0,1.635,Pegmatite_rect,6,0,6,0,1,
662d56e5cc343fb58134d622,TCN,2024-06-24_15h35.30.499,LearnStrategy,2023.2.3,MacIntel,30.15681544,8,2,8,,,,,,,,6,05,,,,,,,,,,,6,4.295,1,,,,,,-0.168055556,-0.394444444,1,0,0,4.295,Pegmatite_rect,7,0,7,0,1,
662d56e5cc343fb58134d622,TCN,2024-06-24_15h35.30.499,LearnStrategy,2023.2.3,MacIntel,30.15681544,8,2,9,,,,,,,,5,04,,,,,,,,,,,5,1.694,1,,,,,,-0.388194444,-0.419444444,1,0,0,1.694,Obsidian_rect,8,0,8,0,1,
662d56e5cc343fb58134d622,TCN,2024-06-24_15h35.30.499,LearnStrategy,2023.2.3,MacIntel,30.15681544,8,2,10,,,,,,,,8,05,,,,,,,,,,,8,1.491,1,,,,,,0.392361111,-0.394444444,1,0,0,1.491,Pumice_rect,9,0,9,0,1,
662d56e5cc343fb58134d622,TCN,2024-06-24_15h35.30.499,LearnStrategy,2023.2.3,MacIntel,30.15681544,8,2,11,,,,,,,,3,06,,,,,,,,,,,3,2.338,1,,,,,,0.135416667,-0.258333333,1,0,0,2.338,Diorite_rect,10,0,10,0,1,
662d56e5cc343fb58134d622,TCN,2024-06-24_15h35.30.499,LearnStrategy,2023.2.3,MacIntel,30.15681544,8,2,12,,,,,,,,1,02,,,,,,,,,,,1,1.638,1,,,,,,-0.425,-0.253472222,1,0,0,1.638,Andesite_rect,11,0,11,0,1,
662d56e5cc343fb58134d622,TCN,2024-06-24_15h35.30.499,LearnStrategy,2023.2.3,MacIntel,30.15681544,8,2,13,,,,,,,,1,03,,,,,,,,,,,1,1.491,1,,,,,,-0.425,-0.253472222,1,0,0,1.491,Andesite_rect,12,0,12,0,1,
662d56e5cc343fb58134d622,TCN,2024-06-24_15h35.30.499,LearnStrategy,2023.2.3,MacIntel,30.15681544,8,2,14,,,,,,,,4,11,,,,,,,,,,,4,1.924,1,,,,,,0.390972222,-0.252777778,1,0,0,1.924,Gabbro_rect,13,0,13,0,1,
662d56e5cc343fb58134d622,TCN,2024-06-24_15h35.30.499,LearnStrategy,2023.2.3,MacIntel,30.15681544,8,2,15,,,,,,,,2,11,,,,,,,,,,,8,19.844,0,,,,,,0.433333333,-0.411805556,1,0,0,19.844,Pumice_rect,14,0,14,0,1,
662d56e5cc343fb58134d622,TCN,2024-06-24_15h35.30.499,LearnStrategy,2023.2.3,MacIntel,30.15681544,8,2,16,,,,,,,,3,14,,,,,,,,,,,3,1.531,1,,,,,,0.09375,-0.245833333,1,0,0,1.531,Diorite_rect,15,0,15,0,1,
662d56e5cc343fb58134d622,TCN,2024-06-24_15h35.30.499,LearnStrategy,2023.2.3,MacIntel,30.15681544,9,1,1,0.061111111,0.003472222,1,0,0,1.566,rock_grid_rect_2,7,13,-1,-1,1.566,0.109027778,-0.408333333,1,0,0,1.475,Peridotite_rect,7,1.475,1,0,0,0,0,1,,,,,,,,,,,,,
662d56e5cc343fb58134d622,TCN,2024-06-24_15h35.30.499,LearnStrategy,2023.2.3,MacIntel,30.15681544,9,1,2,0.086805556,-0.009027778,1,0,0,1.086,rock_grid_rect_2,3,02,-1,-1,1.086,0.136805556,-0.267361111,1,0,0,2.008,Diorite_rect,3,2.008,1,1,0,1,0,1,,,,,,,,,,,,,
662d56e5cc343fb58134d622,TCN,2024-06-24_15h35.30.499,LearnStrategy,2023.2.3,MacIntel,30.15681544,9,1,3,0.073611111,-0.004166667,1,0,0,2.095,rock_grid_rect_2,6,09,-1,-1,2.095,-0.150694444,-0.394444444,1,0,0,1.328,Pegmatite_rect,6,1.328,1,2,0,2,0,1,,,,,,,,,,,,,
662d56e5cc343fb58134d622,TCN,2024-06-24_15h35.30.499,LearnStrategy,2023.2.3,MacIntel,30.15681544,9,1,4,0.04375,-0.004861111,1,0,0,1.853,rock_grid_rect_2,4,09,-1,-1,1.853,0.36875,-0.238888889,1,0,0,2.725,Gabbro_rect,4,2.725,1,3,0,3,0,1,,,,,,,,,,,,,
662d56e5cc343fb58134d622,TCN,2024-06-24_15h35.30.499,LearnStrategy,2023.2.3,MacIntel,30.15681544,9,1,5,0.074305556,0,1,0,0,1.968,rock_grid_rect_2,7,08,-1,-1,1.968,0.111111111,-0.401388889,1,0,0,1.969,Peridotite_rect,7,1.969,1,4,0,4,0,1,,,,,,,,,,,,,
662d56e5cc343fb58134d622,TCN,2024-06-24_15h35.30.499,LearnStrategy,2023.2.3,MacIntel,30.15681544,9,1,6,0.0875,0.003472222,1,0,0,1.315,rock_grid_rect_2,5,16,-1,-1,1.315,-0.377083333,-0.402777778,1,0,0,1.578,Obsidian_rect,5,1.578,1,5,0,5,0,1,,,,,,,,,,,,,
662d56e5cc343fb58134d622,TCN,2024-06-24_15h35.30.499,LearnStrategy,2023.2.3,MacIntel,30.15681544,9,1,7,-0.004166667,-0.00625,1,0,0,1.32,rock_grid_rect_2,3,16,-1,-1,1.32,0.079166667,-0.238888889,1,0,0,1.572,Diorite_rect,3,1.572,1,6,0,6,0,1,,,,,,,,,,,,,
662d56e5cc343fb58134d622,TCN,2024-06-24_15h35.30.499,LearnStrategy,2023.2.3,MacIntel,30.15681544,9,1,8,0.027083333,-0.007638889,1,0,0,1.243,rock_grid_rect_2,6,07,-1,-1,1.243,-0.107638889,-0.396527778,1,0,0,2.199,Pegmatite_rect,6,2.199,1,7,0,7,0,1,,,,,,,,,,,,,
662d56e5cc343fb58134d622,TCN,2024-06-24_15h35.30.499,LearnStrategy,2023.2.3,MacIntel,30.15681544,9,1,9,0.015972222,-0.004861111,1,0,0,2.224,rock_grid_rect_2,4,05,-1,-1,2.224,0.338194444,-0.241666667,1,0,0,4.35,Gabbro_rect,4,4.35,1,8,0,8,0,1,,,,,,,,,,,,,
662d56e5cc343fb58134d622,TCN,2024-06-24_15h35.30.499,LearnStrategy,2023.2.3,MacIntel,30.15681544,9,1,10,0.053472222,0.007638889,1,0,0,1.336,rock_grid_rect_2,2,06,-1,-1,1.336,-0.129861111,-0.254861111,1,0,0,1.314,Basalt_rect,2,1.314,1,9,0,9,0,1,,,,,,,,,,,,,
662d56e5cc343fb58134d622,TCN,2024-06-24_15h35.30.499,LearnStrategy,2023.2.3,MacIntel,30.15681544,9,1,11,0.055555556,0.000694444,1,0,0,1.064,rock_grid_rect_2,1,07,-1,-1,1.064,-0.429861111,-0.246527778,1,0,0,5.552,Andesite_rect,1,5.552,1,10,0,10,0,1,,,,,,,,,,,,,
662d56e5cc343fb58134d622,TCN,2024-06-24_15h35.30.499,LearnStrategy,2023.2.3,MacIntel,30.15681544,9,1,12,0.075,0.013888889,1,0,0,1.288,rock_grid_rect_2,2,10,-1,-1,1.288,-0.138194444,-0.25625,1,0,0,1.956,Basalt_rect,2,1.956,1,11,0,11,0,1,,,,,,,,,,,,,
662d56e5cc343fb58134d622,TCN,2024-06-24_15h35.30.499,LearnStrategy,2023.2.3,MacIntel,30.15681544,9,1,13,0.124305556,0,1,0,0,1.358,rock_grid_rect_2,8,08,-1,-1,1.358,0.335416667,-0.388194444,1,0,0,1.843,Pumice_rect,8,1.843,1,12,0,12,0,1,,,,,,,,,,,,,
662d56e5cc343fb58134d622,TCN,2024-06-24_15h35.30.499,LearnStrategy,2023.2.3,MacIntel,30.15681544,9,1,14,0.105555556,-0.009722222,1,0,0,1.094,rock_grid_rect_2,8,10,-1,-1,1.094,0.408333333,-0.39375,1,0,0,3.328,Pumice_rect,8,3.328,1,13,0,13,0,1,,,,,,,,,,,,,
662d56e5cc343fb58134d622,TCN,2024-06-24_15h35.30.499,LearnStrategy,2023.2.3,MacIntel,30.15681544,9,1,15,0.057638889,0.006944444,1,0,0,0.972,rock_grid_rect_2,5,14,-1,-1,0.972,-0.409722222,-0.38125,1,0,0,1.889,Obsidian_rect,5,1.889,1,14,0,14,0,1,,,,,,,,,,,,,
662d56e5cc343fb58134d622,TCN,2024-06-24_15h35.30.499,LearnStrategy,2023.2.3,MacIntel,30.15681544,9,1,16,0.075694444,0.004861111,1,0,0,0.974,rock_grid_rect_2,1,09,-1,-1,0.974,-0.403472222,-0.243055556,1,0,0,2.196,Andesite_rect,1,2.196,1,15,0,15,0,1,,,,,,,,,,,,,
662d56e5cc343fb58134d622,TCN,2024-06-24_15h35.30.499,LearnStrategy,2023.2.3,MacIntel,30.15681544,9,2,1,,,,,,,,2,14,,,,,,,,,,,8,15.454,0,,,,,,0.379166667,-0.386805556,1,0,0,15.454,Pumice_rect,0,0,0,0,1,
662d56e5cc343fb58134d622,TCN,2024-06-24_15h35.30.499,LearnStrategy,2023.2.3,MacIntel,30.15681544,9,2,2,,,,,,,,5,06,,,,,,,,,,,5,1.888,1,,,,,,-0.430555556,-0.39375,1,0,0,1.888,Obsidian_rect,1,0,1,0,1,
662d56e5cc343fb58134d622,TCN,2024-06-24_15h35.30.499,LearnStrategy,2023.2.3,MacIntel,30.15681544,9,2,3,,,,,,,,7,04,,,,,,,,,,,1,4.04,0,,,,,,-0.352083333,-0.261805556,1,0,0,4.04,Andesite_rect,2,0,2,0,1,
662d56e5cc343fb58134d622,TCN,2024-06-24_15h35.30.499,LearnStrategy,2023.2.3,MacIntel,30.15681544,9,2,4,,,,,,,,3,08,,,,,,,,,,,3,1.903,1,,,,,,0.073611111,-0.241666667,1,0,0,1.903,Diorite_rect,3,0,3,0,1,
662d56e5cc343fb58134d622,TCN,2024-06-24_15h35.30.499,LearnStrategy,2023.2.3,MacIntel,30.15681544,9,2,5,,,,,,,,7,05,,,,,,,,,,,7,1.932,1,,,,,,0.107638889,-0.403472222,1,0,0,1.932,Peridotite_rect,4,0,4,0,1,
662d56e5cc343fb58134d622,TCN,2024-06-24_15h35.30.499,LearnStrategy,2023.2.3,MacIntel,30.15681544,9,2,6,,,,,,,,8,09,,,,,,,,,,,8,1.769,1,,,,,,0.36875,-0.409027778,1,0,0,1.769,Pumice_rect,5,0,5,0,1,
662d56e5cc343fb58134d622,TCN,2024-06-24_15h35.30.499,LearnStrategy,2023.2.3,MacIntel,30.15681544,9,2,7,,,,,,,,3,09,,,,,,,,,,,3,1.311,1,,,,,,0.122916667,-0.240972222,1,0,0,1.311,Diorite_rect,6,0,6,0,1,
662d56e5cc343fb58134d622,TCN,2024-06-24_15h35.30.499,LearnStrategy,2023.2.3,MacIntel,30.15681544,9,2,8,,,,,,,,4,08,,,,,,,,,,,4,2.934,1,,,,,,0.369444444,-0.247916667,1,0,0,2.934,Gabbro_rect,7,0,7,0,1,
662d56e5cc343fb58134d622,TCN,2024-06-24_15h35.30.499,LearnStrategy,2023.2.3,MacIntel,30.15681544,9,2,9,,,,,,,,4,03,,,,,,,,,,,4,2.217,1,,,,,,0.369444444,-0.248611111,1,0,0,2.217,Gabbro_rect,8,0,8,0,1,
662d56e5cc343fb58134d622,TCN,2024-06-24_15h35.30.499,LearnStrategy,2023.2.3,MacIntel,30.15681544,9,2,10,,,,,,,,1,06,,,,,,,,,,,1,2.312,1,,,,,,-0.43125,-0.238194444,1,0,0,2.312,Andesite_rect,9,0,9,0,1,
662d56e5cc343fb58134d622,TCN,2024-06-24_15h35.30.499,LearnStrategy,2023.2.3,MacIntel,30.15681544,9,2,11,,,,,,,,8,13,,,,,,,,,,,8,1.782,1,,,,,,0.374305556,-0.3875,1,0,0,1.782,Pumice_rect,10,0,10,0,1,
662d56e5cc343fb58134d622,TCN,2024-06-24_15h35.30.499,LearnStrategy,2023.2.3,MacIntel,30.15681544,9,2,12,,,,,,,,6,06,,,,,,,,,,,6,16.063,1,,,,,,-0.188888889,-0.398611111,1,0,0,16.063,Pegmatite_rect,11,0,11,0,1,
662d56e5cc343fb58134d622,TCN,2024-06-24_15h35.30.499,LearnStrategy,2023.2.3,MacIntel,30.15681544,9,2,13,,,,,,,,5,11,,,,,,,,,,,5,1.578,1,,,,,,-0.390972222,-0.389583333,1,0,0,1.578,Obsidian_rect,12,0,12,0,1,
662d56e5cc343fb58134d622,TCN,2024-06-24_15h35.30.499,LearnStrategy,2023.2.3,MacIntel,30.15681544,9,2,14,,,,,,,,2,09,,,,,,,,,,,2,2.07,1,,,,,,-0.180555556,-0.253472222,1,0,0,2.07,Basalt_rect,13,0,13,0,1,
662d56e5cc343fb58134d622,TCN,2024-06-24_15h35.30.499,LearnStrategy,2023.2.3,MacIntel,30.15681544,9,2,15,,,,,,,,1,11,,,,,,,,,,,1,2.379,1,,,,,,-0.375,-0.255555556,1,0,0,2.379,Andesite_rect,14,0,14,0,1,
662d56e5cc343fb58134d622,TCN,2024-06-24_15h35.30.499,LearnStrategy,2023.2.3,MacIntel,30.15681544,9,2,16,,,,,,,,6,10,,,,,,,,,,,6,3.391,1,,,,,,-0.205555556,-0.386111111,1,0,0,3.391,Pegmatite_rect,15,0,15,0,1,
662d56e5cc343fb58134d622,TCN,2024-06-24_15h35.30.499,LearnStrategy,2023.2.3,MacIntel,30.15681544,,,,,,,,,,,,,,,,,,,,,,,,,,,,,,,,,,,,,,,,,,,1
662d56e5cc343fb58134d622,TCN,2024-06-24_15h35.30.499,LearnStrategy,2023.2.3,MacIntel,30.15681544,,,,,,,,,,,,,,,,,,,,,,,,,,,,,,,,,,,,,,,,,,,
662d56e5cc343fb58134d622,TCN,2024-06-24_15h35.30.499,LearnStrategy,2023.2.3,MacIntel,30.15681544,,,,,,,,,,,4,09,1,1,,,,,,,,,,,,,,,,,,,,,,,,,,,,,
662d56e5cc343fb58134d622,TCN,2024-06-24_15h35.30.499,LearnStrategy,2023.2.3,MacIntel,30.15681544,,,,,,,,,,,7,15,1,2,,,,,,,,,,,,,,,,,,,,,,,,,,,,,
662d56e5cc343fb58134d622,TCN,2024-06-24_15h35.30.499,LearnStrategy,2023.2.3,MacIntel,30.15681544,,,,,,,,,,,6,07,1,3,,,,,,,,,,,,,,,,,,,,,,,,,,,,,
662d56e5cc343fb58134d622,TCN,2024-06-24_15h35.30.499,LearnStrategy,2023.2.3,MacIntel,30.15681544,,,,,,,,,,,1,09,1,4,,,,,,,,,,,,,,,,,,,,,,,,,,,,,
662d56e5cc343fb58134d622,TCN,2024-06-24_15h35.30.499,LearnStrategy,2023.2.3,MacIntel,30.15681544,,,,,,,,,,,2,10,1,5,,,,,,,,,,,,,,,,,,,,,,,,,,,,,
662d56e5cc343fb58134d622,TCN,2024-06-24_15h35.30.499,LearnStrategy,2023.2.3,MacIntel,30.15681544,,,,,,,,,,,3,12,1,6,,,,,,,,,,,,,,,,,,,,,,,,,,,,,
662d56e5cc343fb58134d622,TCN,2024-06-24_15h35.30.499,LearnStrategy,2023.2.3,MacIntel,30.15681544,,,,,,,,,,,5,05,1,7,,,,,,,,,,,,,,,,,,,,,,,,,,,,,
662d56e5cc343fb58134d622,TCN,2024-06-24_15h35.30.499,LearnStrategy,2023.2.3,MacIntel,30.15681544,,,,,,,,,,,5,16,1,8,,,,,,,,,,,,,,,,,,,,,,,,,,,,,
662d56e5cc343fb58134d622,TCN,2024-06-24_15h35.30.499,LearnStrategy,2023.2.3,MacIntel,30.15681544,,,,,,,,,,,4,14,2,1,,,,,,,,,,,,,,,,,,,,,,,,,,,,,
662d56e5cc343fb58134d622,TCN,2024-06-24_15h35.30.499,LearnStrategy,2023.2.3,MacIntel,30.15681544,,,,,,,,,,,2,04,2,2,,,,,,,,,,,,,,,,,,,,,,,,,,,,,
662d56e5cc343fb58134d622,TCN,2024-06-24_15h35.30.499,LearnStrategy,2023.2.3,MacIntel,30.15681544,,,,,,,,,,,3,11,2,3,,,,,,,,,,,,,,,,,,,,,,,,,,,,,
662d56e5cc343fb58134d622,TCN,2024-06-24_15h35.30.499,LearnStrategy,2023.2.3,MacIntel,30.15681544,,,,,,,,,,,2,06,2,4,,,,,,,,,,,,,,,,,,,,,,,,,,,,,
662d56e5cc343fb58134d622,TCN,2024-06-24_15h35.30.499,LearnStrategy,2023.2.3,MacIntel,30.15681544,,,,,,,,,,,5,07,2,5,,,,,,,,,,,,,,,,,,,,,,,,,,,,,
662d56e5cc343fb58134d622,TCN,2024-06-24_15h35.30.499,LearnStrategy,2023.2.3,MacIntel,30.15681544,,,,,,,,,,,8,08,2,6,,,,,,,,,,,,,,,,,,,,,,,,,,,,,
662d56e5cc343fb58134d622,TCN,2024-06-24_15h35.30.499,LearnStrategy,2023.2.3,MacIntel,30.15681544,,,,,,,,,,,5,02,2,7,,,,,,,,,,,,,,,,,,,,,,,,,,,,,
662d56e5cc343fb58134d622,TCN,2024-06-24_15h35.30.499,LearnStrategy,2023.2.3,MacIntel,30.15681544,,,,,,,,,,,1,14,2,8,,,,,,,,,,,,,,,,,,,,,,,,,,,,,
662d56e5cc343fb58134d622,TCN,2024-06-24_15h35.30.499,LearnStrategy,2023.2.3,MacIntel,30.15681544,,,,,,,,,,,4,12,3,1,,,,,,,,,,,,,,,,,,,,,,,,,,,,,
662d56e5cc343fb58134d622,TCN,2024-06-24_15h35.30.499,LearnStrategy,2023.2.3,MacIntel,30.15681544,,,,,,,,,,,2,01,3,2,,,,,,,,,,,,,,,,,,,,,,,,,,,,,
662d56e5cc343fb58134d622,TCN,2024-06-24_15h35.30.499,LearnStrategy,2023.2.3,MacIntel,30.15681544,,,,,,,,,,,4,05,3,3,,,,,,,,,,,,,,,,,,,,,,,,,,,,,
662d56e5cc343fb58134d622,TCN,2024-06-24_15h35.30.499,LearnStrategy,2023.2.3,MacIntel,30.15681544,,,,,,,,,,,1,05,3,4,,,,,,,,,,,,,,,,,,,,,,,,,,,,,
662d56e5cc343fb58134d622,TCN,2024-06-24_15h35.30.499,LearnStrategy,2023.2.3,MacIntel,30.15681544,,,,,,,,,,,7,14,3,5,,,,,,,,,,,,,,,,,,,,,,,,,,,,,
662d56e5cc343fb58134d622,TCN,2024-06-24_15h35.30.499,LearnStrategy,2023.2.3,MacIntel,30.15681544,,,,,,,,,,,6,12,3,6,,,,,,,,,,,,,,,,,,,,,,,,,,,,,
662d56e5cc343fb58134d622,TCN,2024-06-24_15h35.30.499,LearnStrategy,2023.2.3,MacIntel,30.15681544,,,,,,,,,,,1,04,3,7,,,,,,,,,,,,,,,,,,,,,,,,,,,,,
662d56e5cc343fb58134d622,TCN,2024-06-24_15h35.30.499,LearnStrategy,2023.2.3,MacIntel,30.15681544,,,,,,,,,,,6,11,3,8,,,,,,,,,,,,,,,,,,,,,,,,,,,,,
662d56e5cc343fb58134d622,TCN,2024-06-24_15h35.30.499,LearnStrategy,2023.2.3,MacIntel,30.15681544,,,,,,,,,,,2,02,4,1,,,,,,,,,,,,,,,,,,,,,,,,,,,,,
662d56e5cc343fb58134d622,TCN,2024-06-24_15h35.30.499,LearnStrategy,2023.2.3,MacIntel,30.15681544,,,,,,,,,,,7,08,4,2,,,,,,,,,,,,,,,,,,,,,,,,,,,,,
662d56e5cc343fb58134d622,TCN,2024-06-24_15h35.30.499,LearnStrategy,2023.2.3,MacIntel,30.15681544,,,,,,,,,,,3,16,4,3,,,,,,,,,,,,,,,,,,,,,,,,,,,,,
662d56e5cc343fb58134d622,TCN,2024-06-24_15h35.30.499,LearnStrategy,2023.2.3,MacIntel,30.15681544,,,,,,,,,,,3,13,4,4,,,,,,,,,,,,,,,,,,,,,,,,,,,,,
662d56e5cc343fb58134d622,TCN,2024-06-24_15h35.30.499,LearnStrategy,2023.2.3,MacIntel,30.15681544,,,,,,,,,,,4,01,4,5,,,,,,,,,,,,,,,,,,,,,,,,,,,,,
662d56e5cc343fb58134d622,TCN,2024-06-24_15h35.30.499,LearnStrategy,2023.2.3,MacIntel,30.15681544,,,,,,,,,,,5,12,4,6,,,,,,,,,,,,,,,,,,,,,,,,,,,,,
662d56e5cc343fb58134d622,TCN,2024-06-24_15h35.30.499,LearnStrategy,2023.2.3,MacIntel,30.15681544,,,,,,,,,,,8,02,4,7,,,,,,,,,,,,,,,,,,,,,,,,,,,,,
662d56e5cc343fb58134d622,TCN,2024-06-24_15h35.30.499,LearnStrategy,2023.2.3,MacIntel,30.15681544,,,,,,,,,,,7,06,4,8,,,,,,,,,,,,,,,,,,,,,,,,,,,,,
662d56e5cc343fb58134d622,TCN,2024-06-24_15h35.30.499,LearnStrategy,2023.2.3,MacIntel,30.15681544,,,,,,,,,,,5,14,5,1,,,,,,,,,,,,,,,,,,,,,,,,,,,,,
662d56e5cc343fb58134d622,TCN,2024-06-24_15h35.30.499,LearnStrategy,2023.2.3,MacIntel,30.15681544,,,,,,,,,,,6,13,5,2,,,,,,,,,,,,,,,,,,,,,,,,,,,,,
662d56e5cc343fb58134d622,TCN,2024-06-24_15h35.30.499,LearnStrategy,2023.2.3,MacIntel,30.15681544,,,,,,,,,,,6,09,5,3,,,,,,,,,,,,,,,,,,,,,,,,,,,,,
662d56e5cc343fb58134d622,TCN,2024-06-24_15h35.30.499,LearnStrategy,2023.2.3,MacIntel,30.15681544,,,,,,,,,,,6,15,5,4,,,,,,,,,,,,,,,,,,,,,,,,,,,,,
662d56e5cc343fb58134d622,TCN,2024-06-24_15h35.30.499,LearnStrategy,2023.2.3,MacIntel,30.15681544,,,,,,,,,,,8,04,5,5,,,,,,,,,,,,,,,,,,,,,,,,,,,,,
662d56e5cc343fb58134d622,TCN,2024-06-24_15h35.30.499,LearnStrategy,2023.2.3,MacIntel,30.15681544,,,,,,,,,,,4,13,5,6,,,,,,,,,,,,,,,,,,,,,,,,,,,,,
662d56e5cc343fb58134d622,TCN,2024-06-24_15h35.30.499,LearnStrategy,2023.2.3,MacIntel,30.15681544,,,,,,,,,,,7,13,5,7,,,,,,,,,,,,,,,,,,,,,,,,,,,,,
662d56e5cc343fb58134d622,TCN,2024-06-24_15h35.30.499,LearnStrategy,2023.2.3,MacIntel,30.15681544,,,,,,,,,,,3,15,5,8,,,,,,,,,,,,,,,,,,,,,,,,,,,,,
662d56e5cc343fb58134d622,TCN,2024-06-24_15h35.30.499,LearnStrategy,2023.2.3,MacIntel,30.15681544,,,,,,,,,,,2,16,6,1,,,,,,,,,,,,,,,,,,,,,,,,,,,,,
662d56e5cc343fb58134d622,TCN,2024-06-24_15h35.30.499,LearnStrategy,2023.2.3,MacIntel,30.15681544,,,,,,,,,,,8,14,6,2,,,,,,,,,,,,,,,,,,,,,,,,,,,,,
662d56e5cc343fb58134d622,TCN,2024-06-24_15h35.30.499,LearnStrategy,2023.2.3,MacIntel,30.15681544,,,,,,,,,,,8,10,6,3,,,,,,,,,,,,,,,,,,,,,,,,,,,,,
662d56e5cc343fb58134d622,TCN,2024-06-24_15h35.30.499,LearnStrategy,2023.2.3,MacIntel,30.15681544,,,,,,,,,,,8,03,6,4,,,,,,,,,,,,,,,,,,,,,,,,,,,,,
662d56e5cc343fb58134d622,TCN,2024-06-24_15h35.30.499,LearnStrategy,2023.2.3,MacIntel,30.15681544,,,,,,,,,,,1,01,6,5,,,,,,,,,,,,,,,,,,,,,,,,,,,,,
662d56e5cc343fb58134d622,TCN,2024-06-24_15h35.30.499,LearnStrategy,2023.2.3,MacIntel,30.15681544,,,,,,,,,,,3,02,6,6,,,,,,,,,,,,,,,,,,,,,,,,,,,,,
662d56e5cc343fb58134d622,TCN,2024-06-24_15h35.30.499,LearnStrategy,2023.2.3,MacIntel,30.15681544,,,,,,,,,,,1,07,6,7,,,,,,,,,,,,,,,,,,,,,,,,,,,,,
662d56e5cc343fb58134d622,TCN,2024-06-24_15h35.30.499,LearnStrategy,2023.2.3,MacIntel,30.15681544,,,,,,,,,,,7,10,6,8,,,,,,,,,,,,,,,,,,,,,,,,,,,,,