participant,condition,date,expName,psychopyVersion,OS,frameRate,block,phase,trial,learn_mouse_2.x,learn_mouse_2.y,learn_mouse_2.leftButton,learn_mouse_2.midButton,learn_mouse_2.rightButton,learn_mouse_2.time,learn_mouse_2.clicked_name,cat,token,row,col,t_select,cat_mouse_l.x,cat_mouse_l.y,cat_mouse_l.leftButton,cat_mouse_l.midButton,cat_mouse_l.rightButton,cat_mouse_l.time,cat_mouse_l.clicked_name,resp,t_resp,corr,train_trials.thisRepN,train_trials.thisTrialN,train_trials.thisN,train_trials.thisIndex,train_trials.ran,cat_mouse_t.x,cat_mouse_t.y,cat_mouse_t.leftButton,cat_mouse_t.midButton,cat_mouse_t.rightButton,cat_mouse_t.time,cat_mouse_t.clicked_name,test_trials.thisRepN,test_trials.thisTrialN,test_trials.thisN,test_trials.thisIndex,test_trials.ran,Bonus
662d9149f8460cd72e01d8c9,TCR,2024-06-24_13h45.50.905,LearnStrategy,2023.2.3,Win32,60.24096386,,,,,,,,,,,,,,,,,,,,,,,,,,,,,,,,,,,,,,,,,,,
662d9149f8460cd72e01d8c9,TCR,2024-06-24_13h45.50.905,LearnStrategy,2023.2.3,Win32,60.24096386,1,1,1,0.028645833,-0.00390625,1,0,0,8.6977,rock_grid_rect_2,2,08,-1,-1,8.698,-0.126302083,-0.2421875,1,0,0,29.9624,Basalt_rect,2,29.962,1,0,0,0,0,1,,,,,,,,,,,,,
662d9149f8460cd72e01d8c9,TCR,2024-06-24_13h45.50.905,LearnStrategy,2023.2.3,Win32,60.24096386,1,1,2,0.05078125,0.009114583,1,0,0,1.8922,rock_grid_rect_2,8,10,-1,-1,1.892,0.427083333,-0.40234375,1,0,0,5.934,Pumice_rect,8,5.934,1,1,0,1,0,1,,,,,,,,,,,,,
662d9149f8460cd72e01d8c9,TCR,2024-06-24_13h45.50.905,LearnStrategy,2023.2.3,Win32,60.24096386,1,1,3,0.12109375,0,1,0,0,1.4935,rock_grid_rect_2,6,15,-1,-1,1.493,-0.1171875,-0.37890625,1,0,0,18.6454,Pegmatite_rect,6,18.645,1,2,0,2,0,1,,,,,,,,,,,,,
662d9149f8460cd72e01d8c9,TCR,2024-06-24_13h45.50.905,LearnStrategy,2023.2.3,Win32,60.24096386,1,1,4,0.0625,0.0078125,1,0,0,1.2629,rock_grid_rect_2,4,13,-1,-1,1.263,-0.404947917,-0.26953125,1,0,0,14.8339,Andesite_rect,1,14.834,0,3,0,3,0,1,,,,,,,,,,,,,
662d9149f8460cd72e01d8c9,TCR,2024-06-24_13h45.50.905,LearnStrategy,2023.2.3,Win32,60.24096386,1,1,5,0.009114583,-0.020833333,1,0,0,3.48,rock_grid_rect_2,7,10,-1,-1,3.48,0.118489583,-0.399739583,1,0,0,12.6513,Peridotite_rect,7,12.651,1,4,0,4,0,1,,,,,,,,,,,,,
662d9149f8460cd72e01d8c9,TCR,2024-06-24_13h45.50.905,LearnStrategy,2023.2.3,Win32,60.24096386,1,1,6,0.006510417,0.006510417,1,0,0,1.1668,rock_grid_rect_2,4,15,-1,-1,1.167,0.15625,-0.239583333,1,0,0,20.744,Diorite_rect,3,20.744,0,5,0,5,0,1,,,,,,,,,,,,,
662d9149f8460cd72e01d8c9,TCR,2024-06-24_13h45.50.905,LearnStrategy,2023.2.3,Win32,60.24096386,1,1,7,0.044270833,-0.0234375,1,0,0,1.1187,rock_grid_rect_2,1,07,-1,-1,1.119,-0.407552083,-0.251302083,1,0,0,6.0075,Andesite_rect,1,6.008,1,6,0,6,0,1,,,,,,,,,,,,,
662d9149f8460cd72e01d8c9,TCR,2024-06-24_13h45.50.905,LearnStrategy,2023.2.3,Win32,60.24096386,1,1,8,-0.126302083,0.0078125,1,0,0,1.2279,rock_grid_rect_2,1,06,-1,-1,1.228,0.140625,-0.26953125,1,0,0,6.8561,Diorite_rect,3,6.856,0,7,0,7,0,1,,,,,,,,,,,,,
662d9149f8460cd72e01d8c9,TCR,2024-06-24_13h45.50.905,LearnStrategy,2023.2.3,Win32,60.24096386,1,1,9,0,0.00390625,1,0,0,1.1191,rock_grid_rect_2,5,08,-1,-1,1.119,-0.419270833,-0.395833333,1,0,0,7.2444,Obsidian_rect,5,7.244,1,8,0,8,0,1,,,,,,,,,,,,,
662d9149f8460cd72e01d8c9,TCR,2024-06-24_13h45.50.905,LearnStrategy,2023.2.3,Win32,60.24096386,1,1,10,0.029947917,0.0078125,1,0,0,1.2722,rock_grid_rect_2,3,14,-1,-1,1.272,-0.434895833,-0.24609375,1,0,0,25.548,Andesite_rect,1,25.548,0,9,0,9,0,1,,,,,,,,,,,,,
662d9149f8460cd72e01d8c9,TCR,2024-06-24_13h45.50.905,LearnStrategy,2023.2.3,Win32,60.24096386,1,1,11,0.115885417,-0.016927083,1,0,0,1.0368,rock_grid_rect_2,3,12,-1,-1,1.037,-0.486979167,-0.26171875,1,0,0,48.2212,Andesite_rect,1,48.221,0,10,0,10,0,1,,,,,,,,,,,,,
662d9149f8460cd72e01d8c9,TCR,2024-06-24_13h45.50.905,LearnStrategy,2023.2.3,Win32,60.24096386,1,1,12,0.02734375,-0.010416667,1,0,0,1.8378,rock_grid_rect_2,6,13,-1,-1,1.838,-0.087239583,-0.407552083,1,0,0,22.6669,Pegmatite_rect,6,22.667,1,11,0,11,0,1,,,,,,,,,,,,,
662d9149f8460cd72e01d8c9,TCR,2024-06-24_13h45.50.905,LearnStrategy,2023.2.3,Win32,60.24096386,1,1,13,0.072916667,-0.009114583,1,0,0,1.1963,rock_grid_rect_2,2,05,-1,-1,1.196,-0.125,-0.244791667,1,0,0,17.5621,Basalt_rect,2,17.562,1,12,0,12,0,1,,,,,,,,,,,,,
662d9149f8460cd72e01d8c9,TCR,2024-06-24_13h45.50.905,LearnStrategy,2023.2.3,Win32,60.24096386,1,1,14,0.102864583,0.00390625,1,0,0,1.0457,rock_grid_rect_2,5,05,-1,-1,1.046,-0.421875,-0.395833333,1,0,0,2.9314,Obsidian_rect,5,2.931,1,13,0,13,0,1,,,,,,,,,,,,,
662d9149f8460cd72e01d8c9,TCR,2024-06-24_13h45.50.905,LearnStrategy,2023.2.3,Win32,60.24096386,1,1,15,-0.026041667,-0.0234375,1,0,0,1.2222,rock_grid_rect_2,8,09,-1,-1,1.222,0.395833333,-0.404947917,1,0,0,1.8664,Pumice_rect,8,1.866,1,14,0,14,0,1,,,,,,,,,,,,,
662d9149f8460cd72e01d8c9,TCR,2024-06-24_13h45.50.905,LearnStrategy,2023.2.3,Win32,60.24096386,1,1,16,0.091145833,-0.0078125,1,0,0,1.4562,rock_grid_rect_2,7,06,-1,-1,1.456,0.173177083,-0.39453125,1,0,0,2.0211,Peridotite_rect,7,2.021,1,15,0,15,0,1,,,,,,,,,,,,,
662d9149f8460cd72e01d8c9,TCR,2024-06-24_13h45.50.905,LearnStrategy,2023.2.3,Win32,60.24096386,1,2,1,,,,,,,,4,01,,,,,,,,,,,1,20.2,0,,,,,,-0.397135417,-0.26171875,1,0,0,20.2002,Andesite_rect,0,0,0,0,1,
662d9149f8460cd72e01d8c9,TCR,2024-06-24_13h45.50.905,LearnStrategy,2023.2.3,Win32,60.24096386,1,2,2,,,,,,,,2,02,,,,,,,,,,,2,9.823,1,,,,,,-0.1328125,-0.243489583,1,0,0,9.8233,Basalt_rect,1,0,1,0,1,
662d9149f8460cd72e01d8c9,TCR,2024-06-24_13h45.50.905,LearnStrategy,2023.2.3,Win32,60.24096386,1,2,3,,,,,,,,3,15,,,,,,,,,,,4,33.455,0,,,,,,0.37890625,-0.260416667,1,0,0,33.4549,Gabbro_rect,2,0,2,0,1,
662d9149f8460cd72e01d8c9,TCR,2024-06-24_13h45.50.905,LearnStrategy,2023.2.3,Win32,60.24096386,1,2,4,,,,,,,,7,02,,,,,,,,,,,7,2.056,1,,,,,,0.140625,-0.39453125,1,0,0,2.0557,Peridotite_rect,3,0,3,0,1,
662d9149f8460cd72e01d8c9,TCR,2024-06-24_13h45.50.905,LearnStrategy,2023.2.3,Win32,60.24096386,1,2,5,,,,,,,,5,12,,,,,,,,,,,5,1.685,1,,,,,,-0.423177083,-0.412760417,1,0,0,1.6849,Obsidian_rect,4,0,4,0,1,
662d9149f8460cd72e01d8c9,TCR,2024-06-24_13h45.50.905,LearnStrategy,2023.2.3,Win32,60.24096386,1,2,6,,,,,,,,6,12,,,,,,,,,,,6,30.685,1,,,,,,-0.145833333,-0.397135417,1,0,0,30.6854,Pegmatite_rect,5,0,5,0,1,
662d9149f8460cd72e01d8c9,TCR,2024-06-24_13h45.50.905,LearnStrategy,2023.2.3,Win32,60.24096386,1,2,7,,,,,,,,8,14,,,,,,,,,,,8,2.153,1,,,,,,0.407552083,-0.390625,1,0,0,2.153,Pumice_rect,6,0,6,0,1,
662d9149f8460cd72e01d8c9,TCR,2024-06-24_13h45.50.905,LearnStrategy,2023.2.3,Win32,60.24096386,1,2,8,,,,,,,,7,13,,,,,,,,,,,7,2.933,1,,,,,,0.12109375,-0.41796875,1,0,0,2.9335,Peridotite_rect,7,0,7,0,1,
662d9149f8460cd72e01d8c9,TCR,2024-06-24_13h45.50.905,LearnStrategy,2023.2.3,Win32,60.24096386,1,2,9,,,,,,,,4,14,,,,,,,,,,,4,13.641,1,,,,,,0.350260417,-0.231770833,1,0,0,13.6406,Gabbro_rect,8,0,8,0,1,
662d9149f8460cd72e01d8c9,TCR,2024-06-24_13h45.50.905,LearnStrategy,2023.2.3,Win32,60.24096386,1,2,10,,,,,,,,1,02,,,,,,,,,,,6,15.413,0,,,,,,-0.10546875,-0.385416667,1,0,0,15.413,Pegmatite_rect,9,0,9,0,1,
662d9149f8460cd72e01d8c9,TCR,2024-06-24_13h45.50.905,LearnStrategy,2023.2.3,Win32,60.24096386,1,2,11,,,,,,,,3,11,,,,,,,,,,,3,21.732,1,,,,,,0.134114583,-0.252604167,1,0,0,21.7324,Diorite_rect,10,0,10,0,1,
662d9149f8460cd72e01d8c9,TCR,2024-06-24_13h45.50.905,LearnStrategy,2023.2.3,Win32,60.24096386,1,2,12,,,,,,,,1,03,,,,,,,,,,,1,33.649,1,,,,,,-0.369791667,-0.256510417,1,0,0,33.6493,Andesite_rect,11,0,11,0,1,
662d9149f8460cd72e01d8c9,TCR,2024-06-24_13h45.50.905,LearnStrategy,2023.2.3,Win32,60.24096386,1,2,13,,,,,,,,6,05,,,,,,,,,,,6,69.163,1,,,,,,-0.14453125,-0.393229167,1,0,0,69.1633,Pegmatite_rect,12,0,12,0,1,
662d9149f8460cd72e01d8c9,TCR,2024-06-24_13h45.50.905,LearnStrategy,2023.2.3,Win32,60.24096386,1,2,14,,,,,,,,2,01,,,,,,,,,,,2,5.197,1,,,,,,-0.106770833,-0.240885417,1,0,0,5.1968,Basalt_rect,13,0,13,0,1,
662d9149f8460cd72e01d8c9,TCR,2024-06-24_13h45.50.905,LearnStrategy,2023.2.3,Win32,60.24096386,1,2,15,,,,,,,,5,11,,,,,,,,,,,5,1.622,1,,,,,,-0.359375,-0.4140625,1,0,0,1.6222,Obsidian_rect,14,0,14,0,1,
662d9149f8460cd72e01d8c9,TCR,2024-06-24_13h45.50.905,LearnStrategy,2023.2.3,Win32,60.24096386,1,2,16,,,,,,,,8,15,,,,,,,,,,,8,3.012,1,,,,,,0.391927083,-0.401041667,1,0,0,3.0123,Pumice_rect,15,0,15,0,1,
662d9149f8460cd72e01d8c9,TCR,2024-06-24_13h45.50.905,LearnStrategy,2023.2.3,Win32,60.24096386,2,1,1,-0.06640625,0.001302083,1,0,0,13.0609,rock_grid_rect_2,3,12,-1,-1,13.061,0.057291667,-0.264322917,1,0,0,10.6302,Diorite_rect,3,10.63,1,0,0,0,0,1,,,,,,,,,,,,,
662d9149f8460cd72e01d8c9,TCR,2024-06-24_13h45.50.905,LearnStrategy,2023.2.3,Win32,60.24096386,2,1,2,-0.022135417,-0.00390625,1,0,0,1.1817,rock_grid_rect_2,1,06,-1,-1,1.182,-0.427083333,-0.259114583,1,0,0,13.0394,Andesite_rect,1,13.039,1,1,0,1,0,1,,,,,,,,,,,,,
662d9149f8460cd72e01d8c9,TCR,2024-06-24_13h45.50.905,LearnStrategy,2023.2.3,Win32,60.24096386,2,1,3,0.0625,0.01171875,1,0,0,1.4265,rock_grid_rect_2,4,12,-1,-1,1.427,-0.419270833,-0.243489583,1,0,0,10.8901,Andesite_rect,1,10.89,0,2,0,2,0,1,,,,,,,,,,,,,
662d9149f8460cd72e01d8c9,TCR,2024-06-24_13h45.50.905,LearnStrategy,2023.2.3,Win32,60.24096386,2,1,4,0.15234375,-0.01171875,1,0,0,0.9857,rock_grid_rect_2,3,06,-1,-1,0.986,0.151041667,-0.240885417,1,0,0,22.2183,Diorite_rect,3,22.218,1,3,0,3,0,1,,,,,,,,,,,,,
662d9149f8460cd72e01d8c9,TCR,2024-06-24_13h45.50.905,LearnStrategy,2023.2.3,Win32,60.24096386,2,1,5,0.0234375,-0.022135417,1,0,0,1.0982,rock_grid_rect_2,5,02,-1,-1,1.098,-0.41015625,-0.399739583,1,0,0,1.465,Obsidian_rect,5,1.465,1,4,0,4,0,1,,,,,,,,,,,,,
662d9149f8460cd72e01d8c9,TCR,2024-06-24_13h45.50.905,LearnStrategy,2023.2.3,Win32,60.24096386,2,1,6,0.059895833,-0.0234375,1,0,0,1.2531,rock_grid_rect_2,4,08,-1,-1,1.253,0.423177083,-0.23828125,1,0,0,30.519,Gabbro_rect,4,30.519,1,5,0,5,0,1,,,,,,,,,,,,,
662d9149f8460cd72e01d8c9,TCR,2024-06-24_13h45.50.905,LearnStrategy,2023.2.3,Win32,60.24096386,2,1,7,-0.1015625,-0.001302083,1,0,0,1.2035,rock_grid_rect_2,3,10,-1,-1,1.203,0.127604167,-0.23828125,1,0,0,31.1086,Diorite_rect,3,31.109,1,6,0,6,0,1,,,,,,,,,,,,,
662d9149f8460cd72e01d8c9,TCR,2024-06-24_13h45.50.905,LearnStrategy,2023.2.3,Win32,60.24096386,2,1,8,0.12890625,0.00390625,1,0,0,1.6891,rock_grid_rect_2,1,09,-1,-1,1.689,-0.40234375,-0.2421875,1,0,0,30.0595,Andesite_rect,1,30.059,1,7,0,7,0,1,,,,,,,,,,,,,
662d9149f8460cd72e01d8c9,TCR,2024-06-24_13h45.50.905,LearnStrategy,2023.2.3,Win32,60.24096386,2,1,9,0.139322917,-0.010416667,1,0,0,1.0895,rock_grid_rect_2,4,10,-1,-1,1.09,0.3828125,-0.24609375,1,0,0,20.8173,Gabbro_rect,4,20.817,1,8,0,8,0,1,,,,,,,,,,,,,
662d9149f8460cd72e01d8c9,TCR,2024-06-24_13h45.50.905,LearnStrategy,2023.2.3,Win32,60.24096386,2,1,10,0.078125,-0.005208333,1,0,0,1.2503,rock_grid_rect_2,4,13,-1,-1,1.25,0.401041667,-0.256510417,1,0,0,1.9787,Gabbro_rect,4,1.979,1,9,0,9,0,1,,,,,,,,,,,,,
662d9149f8460cd72e01d8c9,TCR,2024-06-24_13h45.50.905,LearnStrategy,2023.2.3,Win32,60.24096386,2,1,11,0.0546875,-0.00390625,1,0,0,1.3177,rock_grid_rect_2,1,09,-1,-1,1.318,-0.364583333,-0.25,1,0,0,15.1877,Andesite_rect,1,15.188,1,10,0,10,0,1,,,,,,,,,,,,,
662d9149f8460cd72e01d8c9,TCR,2024-06-24_13h45.50.905,LearnStrategy,2023.2.3,Win32,60.24096386,2,1,12,0.055989583,-0.015625,1,0,0,1.1263,rock_grid_rect_2,7,08,-1,-1,1.126,0.125,-0.4140625,1,0,0,2.3637,Peridotite_rect,7,2.364,1,11,0,11,0,1,,,,,,,,,,,,,
662d9149f8460cd72e01d8c9,TCR,2024-06-24_13h45.50.905,LearnStrategy,2023.2.3,Win32,60.24096386,2,1,13,0.046875,-0.014322917,1,0,0,1.2725,rock_grid_rect_2,8,10,-1,-1,1.273,0.415364583,-0.415364583,1,0,0,1.4727,Pumice_rect,8,1.473,1,12,0,12,0,1,,,,,,,,,,,,,
662d9149f8460cd72e01d8c9,TCR,2024-06-24_13h45.50.905,LearnStrategy,2023.2.3,Win32,60.24096386,2,1,14,0.049479167,0.001302083,1,0,0,1.3942,rock_grid_rect_2,1,05,-1,-1,1.394,-0.34765625,-0.23828125,1,0,0,31.851,Andesite_rect,1,31.851,1,13,0,13,0,1,,,,,,,,,,,,,
662d9149f8460cd72e01d8c9,TCR,2024-06-24_13h45.50.905,LearnStrategy,2023.2.3,Win32,60.24096386,2,1,15,-0.006510417,-0.0234375,1,0,0,1.1724,rock_grid_rect_2,6,07,-1,-1,1.172,-0.169270833,-0.381510417,1,0,0,18.8991,Pegmatite_rect,6,18.899,1,14,0,14,0,1,,,,,,,,,,,,,
662d9149f8460cd72e01d8c9,TCR,2024-06-24_13h45.50.905,LearnStrategy,2023.2.3,Win32,60.24096386,2,1,16,-0.036458333,-0.009114583,1,0,0,1.8264,rock_grid_rect_2,2,11,-1,-1,1.826,-0.44921875,-0.236979167,1,0,0,56.1934,Andesite_rect,1,56.193,0,15,0,15,0,1,,,,,,,,,,,,,
662d9149f8460cd72e01d8c9,TCR,2024-06-24_13h45.50.905,LearnStrategy,2023.2.3,Win32,60.24096386,2,2,1,,,,,,,,6,08,,,,,,,,,,,6,18.866,1,,,,,,-0.15625,-0.3984375,1,0,0,18.8659,Pegmatite_rect,0,0,0,0,1,
662d9149f8460cd72e01d8c9,TCR,2024-06-24_13h45.50.905,LearnStrategy,2023.2.3,Win32,60.24096386,2,2,2,,,,,,,,2,14,,,,,,,,,,,4,41.122,0,,,,,,0.346354167,-0.235677083,1,0,0,41.1221,Gabbro_rect,1,0,1,0,1,
662d9149f8460cd72e01d8c9,TCR,2024-06-24_13h45.50.905,LearnStrategy,2023.2.3,Win32,60.24096386,2,2,3,,,,,,,,7,16,,,,,,,,,,,1,23.959,0,,,,,,-0.395833333,-0.251302083,1,0,0,23.9595,Andesite_rect,2,0,2,0,1,
662d9149f8460cd72e01d8c9,TCR,2024-06-24_13h45.50.905,LearnStrategy,2023.2.3,Win32,60.24096386,2,2,4,,,,,,,,3,08,,,,,,,,,,,3,19.004,1,,,,,,0.1328125,-0.252604167,1,0,0,19.0041,Diorite_rect,3,0,3,0,1,
662d9149f8460cd72e01d8c9,TCR,2024-06-24_13h45.50.905,LearnStrategy,2023.2.3,Win32,60.24096386,2,2,5,,,,,,,,5,16,,,,,,,,,,,5,1.46,1,,,,,,-0.415364583,-0.401041667,1,0,0,1.4599,Obsidian_rect,4,0,4,0,1,
662d9149f8460cd72e01d8c9,TCR,2024-06-24_13h45.50.905,LearnStrategy,2023.2.3,Win32,60.24096386,2,2,6,,,,,,,,5,04,,,,,,,,,,,5,1.278,1,,,,,,-0.432291667,-0.38671875,1,0,0,1.278,Obsidian_rect,5,0,5,0,1,
662d9149f8460cd72e01d8c9,TCR,2024-06-24_13h45.50.905,LearnStrategy,2023.2.3,Win32,60.24096386,2,2,7,,,,,,,,8,03,,,,,,,,,,,8,2.327,1,,,,,,0.408854167,-0.407552083,1,0,0,2.3271,Pumice_rect,6,0,6,0,1,
662d9149f8460cd72e01d8c9,TCR,2024-06-24_13h45.50.905,LearnStrategy,2023.2.3,Win32,60.24096386,2,2,8,,,,,,,,4,05,,,,,,,,,,,1,19.765,0,,,,,,-0.403645833,-0.234375,1,0,0,19.7646,Andesite_rect,7,0,7,0,1,
662d9149f8460cd72e01d8c9,TCR,2024-06-24_13h45.50.905,LearnStrategy,2023.2.3,Win32,60.24096386,2,2,9,,,,,,,,2,12,,,,,,,,,,,2,7.799,1,,,,,,-0.13671875,-0.259114583,1,0,0,7.7988,Basalt_rect,8,0,8,0,1,
662d9149f8460cd72e01d8c9,TCR,2024-06-24_13h45.50.905,LearnStrategy,2023.2.3,Win32,60.24096386,2,2,10,,,,,,,,8,05,,,,,,,,,,,8,2.63,1,,,,,,0.43359375,-0.412760417,1,0,0,2.6302,Pumice_rect,9,0,9,0,1,
662d9149f8460cd72e01d8c9,TCR,2024-06-24_13h45.50.905,LearnStrategy,2023.2.3,Win32,60.24096386,2,2,11,,,,,,,,3,02,,,,,,,,,,,3,18.907,1,,,,,,0.083333333,-0.236979167,1,0,0,18.9065,Diorite_rect,10,0,10,0,1,
662d9149f8460cd72e01d8c9,TCR,2024-06-24_13h45.50.905,LearnStrategy,2023.2.3,Win32,60.24096386,2,2,12,,,,,,,,7,12,,,,,,,,,,,7,37.969,1,,,,,,0.131510417,-0.401041667,1,0,0,37.9692,Peridotite_rect,11,0,11,0,1,
662d9149f8460cd72e01d8c9,TCR,2024-06-24_13h45.50.905,LearnStrategy,2023.2.3,Win32,60.24096386,2,2,13,,,,,,,,4,16,,,,,,,,,,,4,10.835,1,,,,,,0.358072917,-0.247395833,1,0,0,10.8348,Gabbro_rect,12,0,12,0,1,
662d9149f8460cd72e01d8c9,TCR,2024-06-24_13h45.50.905,LearnStrategy,2023.2.3,Win32,60.24096386,2,2,14,,,,,,,,1,11,,,,,,,,,,,1,37.255,1,,,,,,-0.42578125,-0.265625,1,0,0,37.2551,Andesite_rect,13,0,13,0,1,
662d9149f8460cd72e01d8c9,TCR,2024-06-24_13h45.50.905,LearnStrategy,2023.2.3,Win32,60.24096386,2,2,15,,,,,,,,6,06,,,,,,,,,,,6,2.716,1,,,,,,-0.12109375,-0.415364583,1,0,0,2.7158,Pegmatite_rect,14,0,14,0,1,
662d9149f8460cd72e01d8c9,TCR,2024-06-24_13h45.50.905,LearnStrategy,2023.2.3,Win32,60.24096386,2,2,16,,,,,,,,1,14,,,,,,,,,,,1,9.422,1,,,,,,-0.4140625,-0.264322917,1,0,0,9.4224,Andesite_rect,15,0,15,0,1,
662d9149f8460cd72e01d8c9,TCR,2024-06-24_13h45.50.905,LearnStrategy,2023.2.3,Win32,60.24096386,3,1,1,-0.041666667,-0.01171875,1,0,0,1.8191,rock_grid_rect_2,4,08,-1,-1,1.819,0.390625,-0.25390625,1,0,0,12.1574,Gabbro_rect,4,12.157,1,0,0,0,0,1,,,,,,,,,,,,,
662d9149f8460cd72e01d8c9,TCR,2024-06-24_13h45.50.905,LearnStrategy,2023.2.3,Win32,60.24096386,3,1,2,0.08984375,-0.01953125,1,0,0,1.1784,rock_grid_rect_2,4,12,-1,-1,1.178,0.388020833,-0.251302083,1,0,0,19.579,Gabbro_rect,4,19.579,1,1,0,1,0,1,,,,,,,,,,,,,
662d9149f8460cd72e01d8c9,TCR,2024-06-24_13h45.50.905,LearnStrategy,2023.2.3,Win32,60.24096386,3,1,3,0.100260417,-0.016927083,1,0,0,1.5436,rock_grid_rect_2,4,15,-1,-1,1.544,0.390625,-0.23828125,1,0,0,4.1848,Gabbro_rect,4,4.185,1,2,0,2,0,1,,,,,,,,,,,,,
662d9149f8460cd72e01d8c9,TCR,2024-06-24_13h45.50.905,LearnStrategy,2023.2.3,Win32,60.24096386,3,1,4,0.033854167,-0.0078125,1,0,0,1.3362,rock_grid_rect_2,5,07,-1,-1,1.336,-0.389322917,-0.412760417,1,0,0,5.3835,Obsidian_rect,5,5.384,1,3,0,3,0,1,,,,,,,,,,,,,
662d9149f8460cd72e01d8c9,TCR,2024-06-24_13h45.50.905,LearnStrategy,2023.2.3,Win32,60.24096386,3,1,5,0.05859375,-0.016927083,1,0,0,1.2432,rock_grid_rect_2,4,15,-1,-1,1.243,0.404947917,-0.25390625,1,0,0,2.7762,Gabbro_rect,4,2.776,1,4,0,4,0,1,,,,,,,,,,,,,
662d9149f8460cd72e01d8c9,TCR,2024-06-24_13h45.50.905,LearnStrategy,2023.2.3,Win32,60.24096386,3,1,6,0.09765625,-0.016927083,1,0,0,1.0946,rock_grid_rect_2,3,10,-1,-1,1.095,0.119791667,-0.25390625,1,0,0,21.5097,Diorite_rect,3,21.51,1,5,0,5,0,1,,,,,,,,,,,,,
662d9149f8460cd72e01d8c9,TCR,2024-06-24_13h45.50.905,LearnStrategy,2023.2.3,Win32,60.24096386,3,1,7,0.040364583,-0.015625,1,0,0,1.451,rock_grid_rect_2,3,14,-1,-1,1.451,0.138020833,-0.26953125,1,0,0,15.0513,Diorite_rect,3,15.051,1,6,0,6,0,1,,,,,,,,,,,,,
662d9149f8460cd72e01d8c9,TCR,2024-06-24_13h45.50.905,LearnStrategy,2023.2.3,Win32,60.24096386,3,1,8,0.037760417,-0.002604167,1,0,0,1.3292,rock_grid_rect_2,2,06,-1,-1,1.329,-0.102864583,-0.2578125,1,0,0,5.7175,Basalt_rect,2,5.717,1,7,0,7,0,1,,,,,,,,,,,,,
662d9149f8460cd72e01d8c9,TCR,2024-06-24_13h45.50.905,LearnStrategy,2023.2.3,Win32,60.24096386,3,1,9,0.059895833,-0.006510417,1,0,0,1.9438,rock_grid_rect_2,8,04,-1,-1,1.944,0.397135417,-0.384114583,1,0,0,1.4739,Pumice_rect,8,1.474,1,8,0,8,0,1,,,,,,,,,,,,,
662d9149f8460cd72e01d8c9,TCR,2024-06-24_13h45.50.905,LearnStrategy,2023.2.3,Win32,60.24096386,3,1,10,0.087239583,0.009114583,1,0,0,1.1493,rock_grid_rect_2,6,15,-1,-1,1.149,-0.165364583,-0.395833333,1,0,0,1.8384,Pegmatite_rect,6,1.838,1,9,0,9,0,1,,,,,,,,,,,,,
662d9149f8460cd72e01d8c9,TCR,2024-06-24_13h45.50.905,LearnStrategy,2023.2.3,Win32,60.24096386,3,1,11,0.0546875,-0.002604167,1,0,0,1.1377,rock_grid_rect_2,2,04,-1,-1,1.138,-0.104166667,-0.252604167,1,0,0,2.9298,Basalt_rect,2,2.93,1,10,0,10,0,1,,,,,,,,,,,,,
662d9149f8460cd72e01d8c9,TCR,2024-06-24_13h45.50.905,LearnStrategy,2023.2.3,Win32,60.24096386,3,1,12,0.154947917,0.006510417,1,0,0,1.0029,rock_grid_rect_2,1,09,-1,-1,1.003,-0.432291667,-0.255208333,1,0,0,23.3747,Andesite_rect,1,23.375,1,11,0,11,0,1,,,,,,,,,,,,,
662d9149f8460cd72e01d8c9,TCR,2024-06-24_13h45.50.905,LearnStrategy,2023.2.3,Win32,60.24096386,3,1,13,0.109375,-0.001302083,1,0,0,1.1356,rock_grid_rect_2,1,09,-1,-1,1.136,-0.3671875,-0.247395833,1,0,0,3.3716,Andesite_rect,1,3.372,1,12,0,12,0,1,,,,,,,,,,,,,
662d9149f8460cd72e01d8c9,TCR,2024-06-24_13h45.50.905,LearnStrategy,2023.2.3,Win32,60.24096386,3,1,14,0.140625,-0.009114583,1,0,0,1.4407,rock_grid_rect_2,7,05,-1,-1,1.441,0.385416667,-0.239583333,1,0,0,63.3992,Gabbro_rect,4,63.399,0,13,0,13,0,1,,,,,,,,,,,,,
662d9149f8460cd72e01d8c9,TCR,2024-06-24_13h45.50.905,LearnStrategy,2023.2.3,Win32,60.24096386,3,1,15,-0.009114583,-0.013020833,1,0,0,1.6138,rock_grid_rect_2,7,14,-1,-1,1.614,0.10546875,-0.391927083,1,0,0,5.7293,Peridotite_rect,7,5.729,1,14,0,14,0,1,,,,,,,,,,,,,
662d9149f8460cd72e01d8c9,TCR,2024-06-24_13h45.50.905,LearnStrategy,2023.2.3,Win32,60.24096386,3,1,16,0.041666667,-0.022135417,1,0,0,1.2294,rock_grid_rect_2,7,08,-1,-1,1.229,0.084635417,-0.397135417,1,0,0,2.2348,Peridotite_rect,7,2.235,1,15,0,15,0,1,,,,,,,,,,,,,
662d9149f8460cd72e01d8c9,TCR,2024-06-24_13h45.50.905,LearnStrategy,2023.2.3,Win32,60.24096386,3,2,1,,,,,,,,8,06,,,,,,,,,,,8,3.947,1,,,,,,0.399739583,-0.404947917,1,0,0,3.947,Pumice_rect,0,0,0,0,1,
662d9149f8460cd72e01d8c9,TCR,2024-06-24_13h45.50.905,LearnStrategy,2023.2.3,Win32,60.24096386,3,2,2,,,,,,,,6,16,,,,,,,,,,,6,1.802,1,,,,,,-0.1484375,-0.403645833,1,0,0,1.8016,Pegmatite_rect,1,0,1,0,1,
662d9149f8460cd72e01d8c9,TCR,2024-06-24_13h45.50.905,LearnStrategy,2023.2.3,Win32,60.24096386,3,2,3,,,,,,,,2,10,,,,,,,,,,,2,12.687,1,,,,,,-0.178385417,-0.26171875,1,0,0,12.6871,Basalt_rect,2,0,2,0,1,
662d9149f8460cd72e01d8c9,TCR,2024-06-24_13h45.50.905,LearnStrategy,2023.2.3,Win32,60.24096386,3,2,4,,,,,,,,5,09,,,,,,,,,,,5,1.241,1,,,,,,-0.399739583,-0.389322917,1,0,0,1.2407,Obsidian_rect,3,0,3,0,1,
662d9149f8460cd72e01d8c9,TCR,2024-06-24_13h45.50.905,LearnStrategy,2023.2.3,Win32,60.24096386,3,2,5,,,,,,,,7,07,,,,,,,,,,,7,3.191,1,,,,,,0.154947917,-0.3984375,1,0,0,3.1911,Peridotite_rect,4,0,4,0,1,
662d9149f8460cd72e01d8c9,TCR,2024-06-24_13h45.50.905,LearnStrategy,2023.2.3,Win32,60.24096386,3,2,6,,,,,,,,1,01,,,,,,,,,,,4,35.78,0,,,,,,0.359375,-0.265625,1,0,0,35.7796,Gabbro_rect,5,0,5,0,1,
662d9149f8460cd72e01d8c9,TCR,2024-06-24_13h45.50.905,LearnStrategy,2023.2.3,Win32,60.24096386,3,2,7,,,,,,,,8,16,,,,,,,,,,,8,16.248,1,,,,,,0.404947917,-0.381510417,1,0,0,16.2484,Pumice_rect,6,0,6,0,1,
662d9149f8460cd72e01d8c9,TCR,2024-06-24_13h45.50.905,LearnStrategy,2023.2.3,Win32,60.24096386,3,2,8,,,,,,,,1,16,,,,,,,,,,,1,20.606,1,,,,,,-0.442708333,-0.251302083,1,0,0,20.6057,Andesite_rect,7,0,7,0,1,
662d9149f8460cd72e01d8c9,TCR,2024-06-24_13h45.50.905,LearnStrategy,2023.2.3,Win32,60.24096386,3,2,9,,,,,,,,3,07,,,,,,,,,,,3,4.88,1,,,,,,0.15234375,-0.26171875,1,0,0,4.8804,Diorite_rect,8,0,8,0,1,
662d9149f8460cd72e01d8c9,TCR,2024-06-24_13h45.50.905,LearnStrategy,2023.2.3,Win32,60.24096386,3,2,10,,,,,,,,7,04,,,,,,,,,,,7,3.524,1,,,,,,0.102864583,-0.420572917,1,0,0,3.5238,Peridotite_rect,9,0,9,0,1,
662d9149f8460cd72e01d8c9,TCR,2024-06-24_13h45.50.905,LearnStrategy,2023.2.3,Win32,60.24096386,3,2,11,,,,,,,,2,09,,,,,,,,,,,2,9.942,1,,,,,,-0.177083333,-0.247395833,1,0,0,9.9424,Basalt_rect,10,0,10,0,1,
662d9149f8460cd72e01d8c9,TCR,2024-06-24_13h45.50.905,LearnStrategy,2023.2.3,Win32,60.24096386,3,2,12,,,,,,,,4,09,,,,,,,,,,,4,57.167,1,,,,,,0.3984375,-0.235677083,1,0,0,57.167,Gabbro_rect,11,0,11,0,1,
662d9149f8460cd72e01d8c9,TCR,2024-06-24_13h45.50.905,LearnStrategy,2023.2.3,Win32,60.24096386,3,2,13,,,,,,,,3,16,,,,,,,,,,,3,10.496,1,,,,,,0.170572917,-0.265625,1,0,0,10.4957,Diorite_rect,12,0,12,0,1,
662d9149f8460cd72e01d8c9,TCR,2024-06-24_13h45.50.905,LearnStrategy,2023.2.3,Win32,60.24096386,3,2,14,,,,,,,,6,10,,,,,,,,,,,6,15.072,1,,,,,,-0.153645833,-0.41015625,1,0,0,15.0724,Pegmatite_rect,13,0,13,0,1,
662d9149f8460cd72e01d8c9,TCR,2024-06-24_13h45.50.905,LearnStrategy,2023.2.3,Win32,60.24096386,3,2,15,,,,,,,,5,06,,,,,,,,,,,5,1.638,1,,,,,,-0.444010417,-0.40625,1,0,0,1.6382,Obsidian_rect,14,0,14,0,1,
662d9149f8460cd72e01d8c9,TCR,2024-06-24_13h45.50.905,LearnStrategy,2023.2.3,Win32,60.24096386,3,2,16,,,,,,,,4,03,,,,,,,,,,,1,11.632,0,,,,,,-0.390625,-0.2421875,1,0,0,11.6318,Andesite_rect,15,0,15,0,1,
662d9149f8460cd72e01d8c9,TCR,2024-06-24_13h45.50.905,LearnStrategy,2023.2.3,Win32,60.24096386,4,1,1,0.110677083,-0.0078125,1,0,0,13.1588,rock_grid_rect_2,1,09,-1,-1,13.159,-0.393229167,-0.25,1,0,0,25.9292,Andesite_rect,1,25.929,1,0,0,0,0,1,,,,,,,,,,,,,
662d9149f8460cd72e01d8c9,TCR,2024-06-24_13h45.50.905,LearnStrategy,2023.2.3,Win32,60.24096386,4,1,2,0.083333333,-0.015625,1,0,0,1.2159,rock_grid_rect_2,3,10,-1,-1,1.216,0.1328125,-0.244791667,1,0,0,29.965,Diorite_rect,3,29.965,1,1,0,1,0,1,,,,,,,,,,,,,
662d9149f8460cd72e01d8c9,TCR,2024-06-24_13h45.50.905,LearnStrategy,2023.2.3,Win32,60.24096386,4,1,3,0.046875,-0.010416667,1,0,0,1.3628,rock_grid_rect_2,4,10,-1,-1,1.363,0.428385417,-0.239583333,1,0,0,5.0574,Gabbro_rect,4,5.057,1,2,0,2,0,1,,,,,,,,,,,,,
662d9149f8460cd72e01d8c9,TCR,2024-06-24_13h45.50.905,LearnStrategy,2023.2.3,Win32,60.24096386,4,1,4,0.076822917,-0.00390625,1,0,0,1.116,rock_grid_rect_2,1,07,-1,-1,1.116,0.14453125,-0.248697917,1,0,0,18.2819,Diorite_rect,3,18.282,0,3,0,3,0,1,,,,,,,,,,,,,
662d9149f8460cd72e01d8c9,TCR,2024-06-24_13h45.50.905,LearnStrategy,2023.2.3,Win32,60.24096386,4,1,5,0.123697917,-0.009114583,1,0,0,1.0868,rock_grid_rect_2,2,11,-1,-1,1.087,-0.182291667,-0.25,1,0,0,15.4103,Basalt_rect,2,15.41,1,4,0,4,0,1,,,,,,,,,,,,,
662d9149f8460cd72e01d8c9,TCR,2024-06-24_13h45.50.905,LearnStrategy,2023.2.3,Win32,60.24096386,4,1,6,0.057291667,0.002604167,1,0,0,1.0181,rock_grid_rect_2,5,02,-1,-1,1.018,-0.427083333,-0.412760417,1,0,0,1.3759,Obsidian_rect,5,1.376,1,5,0,5,0,1,,,,,,,,,,,,,
662d9149f8460cd72e01d8c9,TCR,2024-06-24_13h45.50.905,LearnStrategy,2023.2.3,Win32,60.24096386,4,1,7,0.0859375,-0.020833333,1,0,0,0.8484,rock_grid_rect_2,2,16,-1,-1,0.848,0.356770833,-0.251302083,1,0,0,13.5854,Gabbro_rect,4,13.585,0,6,0,6,0,1,,,,,,,,,,,,,
662d9149f8460cd72e01d8c9,TCR,2024-06-24_13h45.50.905,LearnStrategy,2023.2.3,Win32,60.24096386,4,1,8,0.154947917,-0.009114583,1,0,0,0.8713,rock_grid_rect_2,6,13,-1,-1,0.871,-0.102864583,-0.41015625,1,0,0,2.0125,Pegmatite_rect,6,2.013,1,7,0,7,0,1,,,,,,,,,,,,,
662d9149f8460cd72e01d8c9,TCR,2024-06-24_13h45.50.905,LearnStrategy,2023.2.3,Win32,60.24096386,4,1,9,0.063802083,-0.01171875,1,0,0,1.1546,rock_grid_rect_2,4,12,-1,-1,1.155,0.389322917,-0.248697917,1,0,0,33.3615,Gabbro_rect,4,33.361,1,8,0,8,0,1,,,,,,,,,,,,,
662d9149f8460cd72e01d8c9,TCR,2024-06-24_13h45.50.905,LearnStrategy,2023.2.3,Win32,60.24096386,4,1,10,0.130208333,-0.0078125,1,0,0,1.0466,rock_grid_rect_2,4,10,-1,-1,1.047,0.346354167,-0.260416667,1,0,0,19.1893,Gabbro_rect,4,19.189,1,9,0,9,0,1,,,,,,,,,,,,,
662d9149f8460cd72e01d8c9,TCR,2024-06-24_13h45.50.905,LearnStrategy,2023.2.3,Win32,60.24096386,4,1,11,0.055989583,-0.005208333,1,0,0,1.2129,rock_grid_rect_2,7,15,-1,-1,1.213,0.12890625,-0.407552083,1,0,0,1.8867,Peridotite_rect,7,1.887,1,10,0,10,0,1,,,,,,,,,,,,,
662d9149f8460cd72e01d8c9,TCR,2024-06-24_13h45.50.905,LearnStrategy,2023.2.3,Win32,60.24096386,4,1,12,0.091145833,-0.0234375,1,0,0,1.1584,rock_grid_rect_2,1,06,-1,-1,1.158,-0.403645833,-0.266927083,1,0,0,6.4387,Andesite_rect,1,6.439,1,11,0,11,0,1,,,,,,,,,,,,,
662d9149f8460cd72e01d8c9,TCR,2024-06-24_13h45.50.905,LearnStrategy,2023.2.3,Win32,60.24096386,4,1,13,0.0625,-0.01953125,1,0,0,1.0686,rock_grid_rect_2,4,13,-1,-1,1.069,0.381510417,-0.24609375,1,0,0,14.8007,Gabbro_rect,4,14.801,1,12,0,12,0,1,,,,,,,,,,,,,
662d9149f8460cd72e01d8c9,TCR,2024-06-24_13h45.50.905,LearnStrategy,2023.2.3,Win32,60.24096386,4,1,14,0.08984375,-0.016927083,1,0,0,1.336,rock_grid_rect_2,7,06,-1,-1,1.336,0.13671875,-0.411458333,1,0,0,1.8615,Peridotite_rect,7,1.861,1,13,0,13,0,1,,,,,,,,,,,,,
662d9149f8460cd72e01d8c9,TCR,2024-06-24_13h45.50.905,LearnStrategy,2023.2.3,Win32,60.24096386,4,1,15,0.110677083,0.0078125,1,0,0,0.9945,rock_grid_rect_2,1,07,-1,-1,0.994,-0.458333333,-0.2578125,1,0,0,5.1881,Andesite_rect,1,5.188,1,14,0,14,0,1,,,,,,,,,,,,,
662d9149f8460cd72e01d8c9,TCR,2024-06-24_13h45.50.905,LearnStrategy,2023.2.3,Win32,60.24096386,4,1,16,0.12109375,-0.00390625,1,0,0,1.0716,rock_grid_rect_2,8,02,-1,-1,1.072,0.373697917,-0.407552083,1,0,0,1.4013,Pumice_rect,8,1.401,1,15,0,15,0,1,,,,,,,,,,,,,
662d9149f8460cd72e01d8c9,TCR,2024-06-24_13h45.50.905,LearnStrategy,2023.2.3,Win32,60.24096386,4,2,1,,,,,,,,1,01,,,,,,,,,,,2,78.852,0,,,,,,-0.127604167,-0.23828125,1,0,0,78.8523,Basalt_rect,0,0,0,0,1,
662d9149f8460cd72e01d8c9,TCR,2024-06-24_13h45.50.905,LearnStrategy,2023.2.3,Win32,60.24096386,4,2,2,,,,,,,,5,06,,,,,,,,,,,5,1.468,1,,,,,,-0.446614583,-0.411458333,1,0,0,1.468,Obsidian_rect,1,0,1,0,1,
662d9149f8460cd72e01d8c9,TCR,2024-06-24_13h45.50.905,LearnStrategy,2023.2.3,Win32,60.24096386,4,2,3,,,,,,,,7,12,,,,,,,,,,,7,1.652,1,,,,,,0.125,-0.416666667,1,0,0,1.6522,Peridotite_rect,2,0,2,0,1,
662d9149f8460cd72e01d8c9,TCR,2024-06-24_13h45.50.905,LearnStrategy,2023.2.3,Win32,60.24096386,4,2,4,,,,,,,,7,13,,,,,,,,,,,7,1.472,1,,,,,,0.125,-0.395833333,1,0,0,1.4715,Peridotite_rect,3,0,3,0,1,
662d9149f8460cd72e01d8c9,TCR,2024-06-24_13h45.50.905,LearnStrategy,2023.2.3,Win32,60.24096386,4,2,5,,,,,,,,2,12,,,,,,,,,,,2,26.98,1,,,,,,-0.14453125,-0.252604167,1,0,0,26.9799,Basalt_rect,4,0,4,0,1,
662d9149f8460cd72e01d8c9,TCR,2024-06-24_13h45.50.905,LearnStrategy,2023.2.3,Win32,60.24096386,4,2,6,,,,,,,,2,09,,,,,,,,,,,2,10.752,1,,,,,,-0.1015625,-0.265625,1,0,0,10.752,Basalt_rect,5,0,5,0,1,
662d9149f8460cd72e01d8c9,TCR,2024-06-24_13h45.50.905,LearnStrategy,2023.2.3,Win32,60.24096386,4,2,7,,,,,,,,4,05,,,,,,,,,,,7,8.065,0,,,,,,0.151041667,-0.40234375,1,0,0,8.0653,Peridotite_rect,6,0,6,0,1,
662d9149f8460cd72e01d8c9,TCR,2024-06-24_13h45.50.905,LearnStrategy,2023.2.3,Win32,60.24096386,4,2,8,,,,,,,,3,11,,,,,,,,,,,3,4.844,1,,,,,,0.108072917,-0.24609375,1,0,0,4.8445,Diorite_rect,7,0,7,0,1,
662d9149f8460cd72e01d8c9,TCR,2024-06-24_13h45.50.905,LearnStrategy,2023.2.3,Win32,60.24096386,4,2,9,,,,,,,,4,01,,,,,,,,,,,4,64.473,1,,,,,,0.440104167,-0.263020833,1,0,0,64.4729,Gabbro_rect,8,0,8,0,1,
662d9149f8460cd72e01d8c9,TCR,2024-06-24_13h45.50.905,LearnStrategy,2023.2.3,Win32,60.24096386,4,2,10,,,,,,,,8,06,,,,,,,,,,,8,1.356,1,,,,,,0.3828125,-0.399739583,1,0,0,1.356,Pumice_rect,9,0,9,0,1,
662d9149f8460cd72e01d8c9,TCR,2024-06-24_13h45.50.905,LearnStrategy,2023.2.3,Win32,60.24096386,4,2,11,,,,,,,,3,07,,,,,,,,,,,3,7.495,1,,,,,,0.165364583,-0.24609375,1,0,0,7.4954,Diorite_rect,10,0,10,0,1,
662d9149f8460cd72e01d8c9,TCR,2024-06-24_13h45.50.905,LearnStrategy,2023.2.3,Win32,60.24096386,4,2,12,,,,,,,,1,16,,,,,,,,,,,1,39.005,1,,,,,,-0.403645833,-0.256510417,1,0,0,39.0046,Andesite_rect,11,0,11,0,1,
662d9149f8460cd72e01d8c9,TCR,2024-06-24_13h45.50.905,LearnStrategy,2023.2.3,Win32,60.24096386,4,2,13,,,,,,,,8,15,,,,,,,,,,,8,2.075,1,,,,,,0.390625,-0.412760417,1,0,0,2.0749,Pumice_rect,12,0,12,0,1,
662d9149f8460cd72e01d8c9,TCR,2024-06-24_13h45.50.905,LearnStrategy,2023.2.3,Win32,60.24096386,4,2,14,,,,,,,,5,11,,,,,,,,,,,5,1.195,1,,,,,,-0.380208333,-0.420572917,1,0,0,1.1954,Obsidian_rect,13,0,13,0,1,
662d9149f8460cd72e01d8c9,TCR,2024-06-24_13h45.50.905,LearnStrategy,2023.2.3,Win32,60.24096386,4,2,15,,,,,,,,6,08,,,,,,,,,,,6,1.421,1,,,,,,-0.130208333,-0.404947917,1,0,0,1.4205,Pegmatite_rect,14,0,14,0,1,
662d9149f8460cd72e01d8c9,TCR,2024-06-24_13h45.50.905,LearnStrategy,2023.2.3,Win32,60.24096386,4,2,16,,,,,,,,6,10,,,,,,,,,,,7,12.629,0,,,,,,0.078125,-0.39453125,1,0,0,12.6288,Peridotite_rect,15,0,15,0,1,
662d9149f8460cd72e01d8c9,TCR,2024-06-24_13h45.50.905,LearnStrategy,2023.2.3,Win32,60.24096386,5,1,1,-0.169270833,0,1,0,0,3.3986,rock_grid_rect_2,1,07,-1,-1,3.399,-0.34765625,-0.25390625,1,0,0,6.4611,Andesite_rect,1,6.461,1,0,0,0,0,1,,,,,,,,,,,,,
662d9149f8460cd72e01d8c9,TCR,2024-06-24_13h45.50.905,LearnStrategy,2023.2.3,Win32,60.24096386,5,1,2,0.140625,-0.014322917,1,0,0,1.2214,rock_grid_rect_2,6,11,-1,-1,1.221,-0.1484375,-0.399739583,1,0,0,1.8812,Pegmatite_rect,6,1.881,1,1,0,1,0,1,,,,,,,,,,,,,
662d9149f8460cd72e01d8c9,TCR,2024-06-24_13h45.50.905,LearnStrategy,2023.2.3,Win32,60.24096386,5,1,3,0.075520833,-0.014322917,1,0,0,1.0639,rock_grid_rect_2,4,12,-1,-1,1.064,0.393229167,-0.2578125,1,0,0,19.9659,Gabbro_rect,4,19.966,1,2,0,2,0,1,,,,,,,,,,,,,
662d9149f8460cd72e01d8c9,TCR,2024-06-24_13h45.50.905,LearnStrategy,2023.2.3,Win32,60.24096386,5,1,4,0.048177083,0.00390625,1,0,0,2.4641,rock_grid_rect_2,7,15,-1,-1,2.464,0.162760417,-0.384114583,1,0,0,2.0258,Peridotite_rect,7,2.026,1,3,0,3,0,1,,,,,,,,,,,,,
662d9149f8460cd72e01d8c9,TCR,2024-06-24_13h45.50.905,LearnStrategy,2023.2.3,Win32,60.24096386,5,1,5,0.09765625,-0.005208333,1,0,0,1.7241,rock_grid_rect_2,1,04,-1,-1,1.724,0.100260417,-0.260416667,1,0,0,25.6288,Diorite_rect,3,25.629,0,4,0,4,0,1,,,,,,,,,,,,,
662d9149f8460cd72e01d8c9,TCR,2024-06-24_13h45.50.905,LearnStrategy,2023.2.3,Win32,60.24096386,5,1,6,0.061197917,-0.006510417,1,0,0,1.1883,rock_grid_rect_2,6,13,-1,-1,1.188,-0.13671875,-0.388020833,1,0,0,2.494,Pegmatite_rect,6,2.494,1,5,0,5,0,1,,,,,,,,,,,,,
662d9149f8460cd72e01d8c9,TCR,2024-06-24_13h45.50.905,LearnStrategy,2023.2.3,Win32,60.24096386,5,1,7,-0.022135417,0.016927083,1,0,0,1.3474,rock_grid_rect_2,4,12,-1,-1,1.347,0.368489583,-0.235677083,1,0,0,1.5785,Gabbro_rect,4,1.579,1,6,0,6,0,1,,,,,,,,,,,,,
662d9149f8460cd72e01d8c9,TCR,2024-06-24_13h45.50.905,LearnStrategy,2023.2.3,Win32,60.24096386,5,1,8,0.0390625,0.005208333,1,0,0,1.118,rock_grid_rect_2,2,05,-1,-1,1.118,-0.180989583,-0.247395833,1,0,0,2.9097,Basalt_rect,2,2.91,1,7,0,7,0,1,,,,,,,,,,,,,
662d9149f8460cd72e01d8c9,TCR,2024-06-24_13h45.50.905,LearnStrategy,2023.2.3,Win32,60.24096386,5,1,9,0.1328125,-0.0234375,1,0,0,0.928,rock_grid_rect_2,1,09,-1,-1,0.928,-0.360677083,-0.2421875,1,0,0,10.1403,Andesite_rect,1,10.14,1,8,0,8,0,1,,,,,,,,,,,,,
662d9149f8460cd72e01d8c9,TCR,2024-06-24_13h45.50.905,LearnStrategy,2023.2.3,Win32,60.24096386,5,1,10,0.033854167,0.006510417,1,0,0,1.2413,rock_grid_rect_2,4,15,-1,-1,1.241,0.4375,-0.247395833,1,0,0,3.6788,Gabbro_rect,4,3.679,1,9,0,9,0,1,,,,,,,,,,,,,
662d9149f8460cd72e01d8c9,TCR,2024-06-24_13h45.50.905,LearnStrategy,2023.2.3,Win32,60.24096386,5,1,11,0.046875,-0.018229167,1,0,0,1.2596,rock_grid_rect_2,7,14,-1,-1,1.26,0.15625,-0.40625,1,0,0,1.8865,Peridotite_rect,7,1.887,1,10,0,10,0,1,,,,,,,,,,,,,
662d9149f8460cd72e01d8c9,TCR,2024-06-24_13h45.50.905,LearnStrategy,2023.2.3,Win32,60.24096386,5,1,12,0.147135417,-0.01953125,1,0,0,0.9726,rock_grid_rect_2,8,02,-1,-1,0.973,0.4375,-0.408854167,1,0,0,1.5769,Pumice_rect,8,1.577,1,11,0,11,0,1,,,,,,,,,,,,,
662d9149f8460cd72e01d8c9,TCR,2024-06-24_13h45.50.905,LearnStrategy,2023.2.3,Win32,60.24096386,5,1,13,0.057291667,-0.022135417,1,0,0,1.0346,rock_grid_rect_2,5,05,-1,-1,1.035,-0.450520833,-0.415364583,1,0,0,1.3432,Obsidian_rect,5,1.343,1,12,0,12,0,1,,,,,,,,,,,,,
662d9149f8460cd72e01d8c9,TCR,2024-06-24_13h45.50.905,LearnStrategy,2023.2.3,Win32,60.24096386,5,1,14,0.170572917,-0.016927083,1,0,0,0.9318,rock_grid_rect_2,3,06,-1,-1,0.932,0.106770833,-0.240885417,1,0,0,3.1991,Diorite_rect,3,3.199,1,13,0,13,0,1,,,,,,,,,,,,,
662d9149f8460cd72e01d8c9,TCR,2024-06-24_13h45.50.905,LearnStrategy,2023.2.3,Win32,60.24096386,5,1,15,0.061197917,-0.015625,1,0,0,0.9517,rock_grid_rect_2,4,08,-1,-1,0.952,0.416666667,-0.248697917,1,0,0,3.0213,Gabbro_rect,4,3.021,1,14,0,14,0,1,,,,,,,,,,,,,
662d9149f8460cd72e01d8c9,TCR,2024-06-24_13h45.50.905,LearnStrategy,2023.2.3,Win32,60.24096386,5,1,16,0.119791667,0.001302083,1,0,0,1.0393,rock_grid_rect_2,1,07,-1,-1,1.039,-0.41015625,-0.243489583,1,0,0,10.4447,Andesite_rect,1,10.445,1,15,0,15,0,1,,,,,,,,,,,,,
662d9149f8460cd72e01d8c9,TCR,2024-06-24_13h45.50.905,LearnStrategy,2023.2.3,Win32,60.24096386,5,2,1,,,,,,,,5,09,,,,,,,,,,,5,1.344,1,,,,,,-0.376302083,-0.40625,1,0,0,1.3438,Obsidian_rect,0,0,0,0,1,
662d9149f8460cd72e01d8c9,TCR,2024-06-24_13h45.50.905,LearnStrategy,2023.2.3,Win32,60.24096386,5,2,2,,,,,,,,5,04,,,,,,,,,,,5,1.195,1,,,,,,-0.411458333,-0.412760417,1,0,0,1.1955,Obsidian_rect,1,0,1,0,1,
662d9149f8460cd72e01d8c9,TCR,2024-06-24_13h45.50.905,LearnStrategy,2023.2.3,Win32,60.24096386,5,2,3,,,,,,,,2,01,,,,,,,,,,,2,3.07,1,,,,,,-0.1875,-0.260416667,1,0,0,3.0695,Basalt_rect,2,0,2,0,1,
662d9149f8460cd72e01d8c9,TCR,2024-06-24_13h45.50.905,LearnStrategy,2023.2.3,Win32,60.24096386,5,2,4,,,,,,,,4,16,,,,,,,,,,,2,8.997,0,,,,,,-0.166666667,-0.23828125,1,0,0,8.9972,Basalt_rect,3,0,3,0,1,
662d9149f8460cd72e01d8c9,TCR,2024-06-24_13h45.50.905,LearnStrategy,2023.2.3,Win32,60.24096386,5,2,5,,,,,,,,7,02,,,,,,,,,,,7,1.225,1,,,,,,0.1328125,-0.397135417,1,0,0,1.2246,Peridotite_rect,4,0,4,0,1,
662d9149f8460cd72e01d8c9,TCR,2024-06-24_13h45.50.905,LearnStrategy,2023.2.3,Win32,60.24096386,5,2,6,,,,,,,,6,05,,,,,,,,,,,5,6.692,0,,,,,,-0.408854167,-0.399739583,1,0,0,6.6919,Obsidian_rect,5,0,5,0,1,
662d9149f8460cd72e01d8c9,TCR,2024-06-24_13h45.50.905,LearnStrategy,2023.2.3,Win32,60.24096386,5,2,7,,,,,,,,3,02,,,,,,,,,,,3,4.168,1,,,,,,0.169270833,-0.244791667,1,0,0,4.1676,Diorite_rect,6,0,6,0,1,
662d9149f8460cd72e01d8c9,TCR,2024-06-24_13h45.50.905,LearnStrategy,2023.2.3,Win32,60.24096386,5,2,8,,,,,,,,2,14,,,,,,,,,,,2,73.769,1,,,,,,-0.158854167,-0.243489583,1,0,0,73.7694,Basalt_rect,7,0,7,0,1,
662d9149f8460cd72e01d8c9,TCR,2024-06-24_13h45.50.905,LearnStrategy,2023.2.3,Win32,60.24096386,5,2,9,,,,,,,,7,07,,,,,,,,,,,7,7.274,1,,,,,,0.118489583,-0.408854167,1,0,0,7.2739,Peridotite_rect,8,0,8,0,1,
662d9149f8460cd72e01d8c9,TCR,2024-06-24_13h45.50.905,LearnStrategy,2023.2.3,Win32,60.24096386,5,2,10,,,,,,,,1,03,,,,,,,,,,,7,0.621,0,,,,,,0.118489583,-0.408854167,1,0,0,0.6214,Peridotite_rect,9,0,9,0,1,
662d9149f8460cd72e01d8c9,TCR,2024-06-24_13h45.50.905,LearnStrategy,2023.2.3,Win32,60.24096386,5,2,11,,,,,,,,6,16,,,,,,,,,,,6,7.06,1,,,,,,-0.173177083,-0.381510417,1,0,0,7.0597,Pegmatite_rect,10,0,10,0,1,
662d9149f8460cd72e01d8c9,TCR,2024-06-24_13h45.50.905,LearnStrategy,2023.2.3,Win32,60.24096386,5,2,12,,,,,,,,4,03,,,,,,,,,,,4,28.635,1,,,,,,0.373697917,-0.24609375,1,0,0,28.6355,Gabbro_rect,11,0,11,0,1,
662d9149f8460cd72e01d8c9,TCR,2024-06-24_13h45.50.905,LearnStrategy,2023.2.3,Win32,60.24096386,5,2,13,,,,,,,,8,05,,,,,,,,,,,8,2.823,1,,,,,,0.401041667,-0.39453125,1,0,0,2.8234,Pumice_rect,12,0,12,0,1,
662d9149f8460cd72e01d8c9,TCR,2024-06-24_13h45.50.905,LearnStrategy,2023.2.3,Win32,60.24096386,5,2,14,,,,,,,,3,16,,,,,,,,,,,3,4.399,1,,,,,,0.123697917,-0.252604167,1,0,0,4.3994,Diorite_rect,13,0,13,0,1,
662d9149f8460cd72e01d8c9,TCR,2024-06-24_13h45.50.905,LearnStrategy,2023.2.3,Win32,60.24096386,5,2,15,,,,,,,,1,14,,,,,,,,,,,1,4.474,1,,,,,,-0.467447917,-0.255208333,1,0,0,4.4744,Andesite_rect,14,0,14,0,1,
662d9149f8460cd72e01d8c9,TCR,2024-06-24_13h45.50.905,LearnStrategy,2023.2.3,Win32,60.24096386,5,2,16,,,,,,,,8,14,,,,,,,,,,,8,1.287,1,,,,,,0.41015625,-0.40234375,1,0,0,1.2874,Pumice_rect,15,0,15,0,1,
662d9149f8460cd72e01d8c9,TCR,2024-06-24_13h45.50.905,LearnStrategy,2023.2.3,Win32,60.24096386,6,1,1,0.040364583,0.005208333,1,0,0,6.3451,rock_grid_rect_2,1,07,-1,-1,6.345,-0.41796875,-0.252604167,1,0,0,4.9641,Andesite_rect,1,4.964,1,0,0,0,0,1,,,,,,,,,,,,,
662d9149f8460cd72e01d8c9,TCR,2024-06-24_13h45.50.905,LearnStrategy,2023.2.3,Win32,60.24096386,6,1,2,0.0859375,-0.015625,1,0,0,2.5851,rock_grid_rect_2,4,08,-1,-1,2.585,0.446614583,-0.260416667,1,0,0,4.8526,Gabbro_rect,4,4.853,1,1,0,1,0,1,,,,,,,,,,,,,
662d9149f8460cd72e01d8c9,TCR,2024-06-24_13h45.50.905,LearnStrategy,2023.2.3,Win32,60.24096386,6,1,3,-0.001302083,0.0078125,1,0,0,1.1796,rock_grid_rect_2,7,08,-1,-1,1.18,0.11328125,-0.416666667,1,0,0,2.421,Peridotite_rect,7,2.421,1,2,0,2,0,1,,,,,,,,,,,,,
662d9149f8460cd72e01d8c9,TCR,2024-06-24_13h45.50.905,LearnStrategy,2023.2.3,Win32,60.24096386,6,1,4,0.069010417,-0.01171875,1,0,0,1.093,rock_grid_rect_2,4,13,-1,-1,1.093,0.380208333,-0.248697917,1,0,0,2.5972,Gabbro_rect,4,2.597,1,3,0,3,0,1,,,,,,,,,,,,,
662d9149f8460cd72e01d8c9,TCR,2024-06-24_13h45.50.905,LearnStrategy,2023.2.3,Win32,60.24096386,6,1,5,0.13671875,-0.013020833,1,0,0,1.4009,rock_grid_rect_2,4,15,-1,-1,1.401,0.389322917,-0.251302083,1,0,0,1.491,Gabbro_rect,4,1.491,1,4,0,4,0,1,,,,,,,,,,,,,
662d9149f8460cd72e01d8c9,TCR,2024-06-24_13h45.50.905,LearnStrategy,2023.2.3,Win32,60.24096386,6,1,6,0.079427083,-0.001302083,1,0,0,1.1846,rock_grid_rect_2,1,06,-1,-1,1.185,-0.397135417,-0.251302083,1,0,0,3.5114,Andesite_rect,1,3.511,1,5,0,5,0,1,,,,,,,,,,,,,
662d9149f8460cd72e01d8c9,TCR,2024-06-24_13h45.50.905,LearnStrategy,2023.2.3,Win32,60.24096386,6,1,7,0.05859375,-0.014322917,1,0,0,1.17,rock_grid_rect_2,5,02,-1,-1,1.17,-0.376302083,-0.390625,1,0,0,1.3193,Obsidian_rect,5,1.319,1,6,0,6,0,1,,,,,,,,,,,,,
662d9149f8460cd72e01d8c9,TCR,2024-06-24_13h45.50.905,LearnStrategy,2023.2.3,Win32,60.24096386,6,1,8,0.119791667,-0.020833333,1,0,0,1.0276,rock_grid_rect_2,6,11,-1,-1,1.028,-0.134114583,-0.4140625,1,0,0,1.4586,Pegmatite_rect,6,1.459,1,7,0,7,0,1,,,,,,,,,,,,,
662d9149f8460cd72e01d8c9,TCR,2024-06-24_13h45.50.905,LearnStrategy,2023.2.3,Win32,60.24096386,6,1,9,0.141927083,0,1,0,0,0.9326,rock_grid_rect_2,3,12,-1,-1,0.933,0.1015625,-0.239583333,1,0,0,2.9478,Diorite_rect,3,2.948,1,8,0,8,0,1,,,,,,,,,,,,,
662d9149f8460cd72e01d8c9,TCR,2024-06-24_13h45.50.905,LearnStrategy,2023.2.3,Win32,60.24096386,6,1,10,0.092447917,-0.005208333,1,0,0,1.187,rock_grid_rect_2,6,15,-1,-1,1.187,-0.1484375,-0.41015625,1,0,0,2.5308,Pegmatite_rect,6,2.531,1,9,0,9,0,1,,,,,,,,,,,,,
662d9149f8460cd72e01d8c9,TCR,2024-06-24_13h45.50.905,LearnStrategy,2023.2.3,Win32,60.24096386,6,1,11,0.130208333,0.014322917,1,0,0,0.9232,rock_grid_rect_2,8,10,-1,-1,0.923,0.420572917,-0.41015625,1,0,0,1.1167,Pumice_rect,8,1.117,1,10,0,10,0,1,,,,,,,,,,,,,
662d9149f8460cd72e01d8c9,TCR,2024-06-24_13h45.50.905,LearnStrategy,2023.2.3,Win32,60.24096386,6,1,12,0.0625,0.00390625,1,0,0,1.9484,rock_grid_rect_2,2,11,-1,-1,1.948,-0.14453125,-0.2578125,1,0,0,18.4898,Basalt_rect,2,18.49,1,11,0,11,0,1,,,,,,,,,,,,,
662d9149f8460cd72e01d8c9,TCR,2024-06-24_13h45.50.905,LearnStrategy,2023.2.3,Win32,60.24096386,6,1,13,0.002604167,0.005208333,1,0,0,1.2418,rock_grid_rect_2,4,15,-1,-1,1.242,0.42578125,-0.24609375,1,0,0,1.3745,Gabbro_rect,4,1.374,1,12,0,12,0,1,,,,,,,,,,,,,
662d9149f8460cd72e01d8c9,TCR,2024-06-24_13h45.50.905,LearnStrategy,2023.2.3,Win32,60.24096386,6,1,14,0.041666667,0.00390625,1,0,0,1.1462,rock_grid_rect_2,6,13,-1,-1,1.146,-0.1640625,-0.41015625,1,0,0,1.4504,Pegmatite_rect,6,1.45,1,13,0,13,0,1,,,,,,,,,,,,,
662d9149f8460cd72e01d8c9,TCR,2024-06-24_13h45.50.905,LearnStrategy,2023.2.3,Win32,60.24096386,6,1,15,0.111979167,-0.0078125,1,0,0,0.9559,rock_grid_rect_2,1,09,-1,-1,0.956,-0.423177083,-0.264322917,1,0,0,1.8175,Andesite_rect,1,1.818,1,14,0,14,0,1,,,,,,,,,,,,,
662d9149f8460cd72e01d8c9,TCR,2024-06-24_13h45.50.905,LearnStrategy,2023.2.3,Win32,60.24096386,6,1,16,0.123697917,-0.013020833,1,0,0,1.3974,rock_grid_rect_2,1,05,-1,-1,1.397,-0.395833333,-0.235677083,1,0,0,3.0056,Andesite_rect,1,3.006,1,15,0,15,0,1,,,,,,,,,,,,,
662d9149f8460cd72e01d8c9,TCR,2024-06-24_13h45.50.905,LearnStrategy,2023.2.3,Win32,60.24096386,6,2,1,,,,,,,,5,12,,,,,,,,,,,5,1.236,1,,,,,,-0.3984375,-0.393229167,1,0,0,1.2364,Obsidian_rect,0,0,0,0,1,
662d9149f8460cd72e01d8c9,TCR,2024-06-24_13h45.50.905,LearnStrategy,2023.2.3,Win32,60.24096386,6,2,2,,,,,,,,8,16,,,,,,,,,,,8,3.254,1,,,,,,0.40625,-0.39453125,1,0,0,3.2536,Pumice_rect,1,0,1,0,1,
662d9149f8460cd72e01d8c9,TCR,2024-06-24_13h45.50.905,LearnStrategy,2023.2.3,Win32,60.24096386,6,2,3,,,,,,,,3,08,,,,,,,,,,,3,3.717,1,,,,,,0.141927083,-0.24609375,1,0,0,3.7173,Diorite_rect,2,0,2,0,1,
662d9149f8460cd72e01d8c9,TCR,2024-06-24_13h45.50.905,LearnStrategy,2023.2.3,Win32,60.24096386,6,2,4,,,,,,,,6,06,,,,,,,,,,,6,2.264,1,,,,,,-0.19140625,-0.3984375,1,0,0,2.2641,Pegmatite_rect,3,0,3,0,1,
662d9149f8460cd72e01d8c9,TCR,2024-06-24_13h45.50.905,LearnStrategy,2023.2.3,Win32,60.24096386,6,2,5,,,,,,,,8,03,,,,,,,,,,,8,2.224,1,,,,,,0.37890625,-0.411458333,1,0,0,2.2242,Pumice_rect,4,0,4,0,1,
662d9149f8460cd72e01d8c9,TCR,2024-06-24_13h45.50.905,LearnStrategy,2023.2.3,Win32,60.24096386,6,2,6,,,,,,,,3,15,,,,,,,,,,,3,4.36,1,,,,,,0.127604167,-0.240885417,1,0,0,4.3603,Diorite_rect,5,0,5,0,1,
662d9149f8460cd72e01d8c9,TCR,2024-06-24_13h45.50.905,LearnStrategy,2023.2.3,Win32,60.24096386,6,2,7,,,,,,,,4,09,,,,,,,,,,,2,65.527,0,,,,,,-0.138020833,-0.248697917,1,0,0,65.5267,Basalt_rect,6,0,6,0,1,
662d9149f8460cd72e01d8c9,TCR,2024-06-24_13h45.50.905,LearnStrategy,2023.2.3,Win32,60.24096386,6,2,8,,,,,,,,7,04,,,,,,,,,,,7,4.59,1,,,,,,0.194010417,-0.419270833,1,0,0,4.5903,Peridotite_rect,7,0,7,0,1,
662d9149f8460cd72e01d8c9,TCR,2024-06-24_13h45.50.905,LearnStrategy,2023.2.3,Win32,60.24096386,6,2,9,,,,,,,,7,16,,,,,,,,,,,7,2.033,1,,,,,,0.078125,-0.403645833,1,0,0,2.0334,Peridotite_rect,8,0,8,0,1,
662d9149f8460cd72e01d8c9,TCR,2024-06-24_13h45.50.905,LearnStrategy,2023.2.3,Win32,60.24096386,6,2,10,,,,,,,,1,02,,,,,,,,,,,1,42.697,1,,,,,,-0.484375,-0.25390625,1,0,0,42.6973,Andesite_rect,9,0,9,0,1,
662d9149f8460cd72e01d8c9,TCR,2024-06-24_13h45.50.905,LearnStrategy,2023.2.3,Win32,60.24096386,6,2,11,,,,,,,,6,12,,,,,,,,,,,6,6.155,1,,,,,,-0.134114583,-0.393229167,1,0,0,6.1551,Pegmatite_rect,10,0,10,0,1,
662d9149f8460cd72e01d8c9,TCR,2024-06-24_13h45.50.905,LearnStrategy,2023.2.3,Win32,60.24096386,6,2,12,,,,,,,,4,14,,,,,,,,,,,4,9.595,1,,,,,,0.462239583,-0.248697917,1,0,0,9.5954,Gabbro_rect,11,0,11,0,1,
662d9149f8460cd72e01d8c9,TCR,2024-06-24_13h45.50.905,LearnStrategy,2023.2.3,Win32,60.24096386,6,2,13,,,,,,,,2,02,,,,,,,,,,,2,2.408,1,,,,,,-0.165364583,-0.239583333,1,0,0,2.4076,Basalt_rect,12,0,12,0,1,
662d9149f8460cd72e01d8c9,TCR,2024-06-24_13h45.50.905,LearnStrategy,2023.2.3,Win32,60.24096386,6,2,14,,,,,,,,5,16,,,,,,,,,,,5,1.284,1,,,,,,-0.399739583,-0.403645833,1,0,0,1.2838,Obsidian_rect,13,0,13,0,1,
662d9149f8460cd72e01d8c9,TCR,2024-06-24_13h45.50.905,LearnStrategy,2023.2.3,Win32,60.24096386,6,2,15,,,,,,,,2,10,,,,,,,,,,,2,3.451,1,,,,,,-0.08984375,-0.26171875,1,0,0,3.4511,Basalt_rect,14,0,14,0,1,
662d9149f8460cd72e01d8c9,TCR,2024-06-24_13h45.50.905,LearnStrategy,2023.2.3,Win32,60.24096386,6,2,16,,,,,,,,1,11,,,,,,,,,,,1,4.666,1,,,,,,-0.397135417,-0.25390625,1,0,0,4.6658,Andesite_rect,15,0,15,0,1,
662d9149f8460cd72e01d8c9,TCR,2024-06-24_13h45.50.905,LearnStrategy,2023.2.3,Win32,60.24096386,7,1,1,0.05078125,-0.015625,1,0,0,1.6147,rock_grid_rect_2,1,10,-1,-1,1.615,-0.33984375,-0.2578125,1,0,0,8.1202,Andesite_rect,1,8.12,1,0,0,0,0,1,,,,,,,,,,,,,
662d9149f8460cd72e01d8c9,TCR,2024-06-24_13h45.50.905,LearnStrategy,2023.2.3,Win32,60.24096386,7,1,2,0.03125,-0.009114583,1,0,0,1.2249,rock_grid_rect_2,5,07,-1,-1,1.225,-0.436197917,-0.3984375,1,0,0,1.4791,Obsidian_rect,5,1.479,1,1,0,1,0,1,,,,,,,,,,,,,
662d9149f8460cd72e01d8c9,TCR,2024-06-24_13h45.50.905,LearnStrategy,2023.2.3,Win32,60.24096386,7,1,3,0.123697917,-0.016927083,1,0,0,1.3123,rock_grid_rect_2,4,08,-1,-1,1.312,0.408854167,-0.247395833,1,0,0,2.3443,Gabbro_rect,4,2.344,1,2,0,2,0,1,,,,,,,,,,,,,
662d9149f8460cd72e01d8c9,TCR,2024-06-24_13h45.50.905,LearnStrategy,2023.2.3,Win32,60.24096386,7,1,4,0.063802083,-0.018229167,1,0,0,1.4312,rock_grid_rect_2,6,09,-1,-1,1.431,0.131510417,-0.415364583,1,0,0,6.1423,Peridotite_rect,7,6.142,0,3,0,3,0,1,,,,,,,,,,,,,
662d9149f8460cd72e01d8c9,TCR,2024-06-24_13h45.50.905,LearnStrategy,2023.2.3,Win32,60.24096386,7,1,5,0.0703125,-0.006510417,1,0,0,0.8488,rock_grid_rect_2,4,11,-1,-1,0.849,0.399739583,-0.2578125,1,0,0,1.7109,Gabbro_rect,4,1.711,1,4,0,4,0,1,,,,,,,,,,,,,
662d9149f8460cd72e01d8c9,TCR,2024-06-24_13h45.50.905,LearnStrategy,2023.2.3,Win32,60.24096386,7,1,6,0.0859375,-0.002604167,1,0,0,1.3789,rock_grid_rect_2,2,05,-1,-1,1.379,-0.157552083,-0.243489583,1,0,0,2.3266,Basalt_rect,2,2.327,1,5,0,5,0,1,,,,,,,,,,,,,
662d9149f8460cd72e01d8c9,TCR,2024-06-24_13h45.50.905,LearnStrategy,2023.2.3,Win32,60.24096386,7,1,7,0.15625,-0.001302083,1,0,0,1.0018,rock_grid_rect_2,6,13,-1,-1,1.002,-0.14453125,-0.403645833,1,0,0,1.5656,Pegmatite_rect,6,1.566,1,6,0,6,0,1,,,,,,,,,,,,,
662d9149f8460cd72e01d8c9,TCR,2024-06-24_13h45.50.905,LearnStrategy,2023.2.3,Win32,60.24096386,7,1,8,0.140625,0.001302083,1,0,0,1.2424,rock_grid_rect_2,7,08,-1,-1,1.242,0.12109375,-0.384114583,1,0,0,1.6168,Peridotite_rect,7,1.617,1,7,0,7,0,1,,,,,,,,,,,,,
662d9149f8460cd72e01d8c9,TCR,2024-06-24_13h45.50.905,LearnStrategy,2023.2.3,Win32,60.24096386,7,1,9,0.071614583,0.009114583,1,0,0,1.4603,rock_grid_rect_2,4,11,-1,-1,1.46,0.358072917,-0.23046875,1,0,0,1.4762,Gabbro_rect,4,1.476,1,8,0,8,0,1,,,,,,,,,,,,,
662d9149f8460cd72e01d8c9,TCR,2024-06-24_13h45.50.905,LearnStrategy,2023.2.3,Win32,60.24096386,7,1,10,0.091145833,-0.020833333,1,0,0,0.8506,rock_grid_rect_2,4,12,-1,-1,0.851,0.3671875,-0.243489583,1,0,0,1.4695,Gabbro_rect,4,1.47,1,9,0,9,0,1,,,,,,,,,,,,,
662d9149f8460cd72e01d8c9,TCR,2024-06-24_13h45.50.905,LearnStrategy,2023.2.3,Win32,60.24096386,7,1,11,0.1328125,-0.014322917,1,0,0,0.8233,rock_grid_rect_2,4,10,-1,-1,0.823,0.372395833,-0.251302083,1,0,0,6.6428,Gabbro_rect,4,6.643,1,10,0,10,0,1,,,,,,,,,,,,,
662d9149f8460cd72e01d8c9,TCR,2024-06-24_13h45.50.905,LearnStrategy,2023.2.3,Win32,60.24096386,7,1,12,0.095052083,-0.0078125,1,0,0,1.1474,rock_grid_rect_2,2,05,-1,-1,1.147,-0.151041667,-0.240885417,1,0,0,1.0983,Basalt_rect,2,1.098,1,11,0,11,0,1,,,,,,,,,,,,,
662d9149f8460cd72e01d8c9,TCR,2024-06-24_13h45.50.905,LearnStrategy,2023.2.3,Win32,60.24096386,7,1,13,0.063802083,-0.020833333,1,0,0,1.6723,rock_grid_rect_2,1,09,-1,-1,1.672,-0.40625,-0.244791667,1,0,0,3.2618,Andesite_rect,1,3.262,1,12,0,12,0,1,,,,,,,,,,,,,
662d9149f8460cd72e01d8c9,TCR,2024-06-24_13h45.50.905,LearnStrategy,2023.2.3,Win32,60.24096386,7,1,14,0.096354167,-0.00390625,1,0,0,1.4568,rock_grid_rect_2,1,09,-1,-1,1.457,-0.384114583,-0.240885417,1,0,0,1.1544,Andesite_rect,1,1.154,1,13,0,13,0,1,,,,,,,,,,,,,
662d9149f8460cd72e01d8c9,TCR,2024-06-24_13h45.50.905,LearnStrategy,2023.2.3,Win32,60.24096386,7,1,15,0.040364583,-0.005208333,1,0,0,1.2526,rock_grid_rect_2,8,02,-1,-1,1.253,0.389322917,-0.391927083,1,0,0,1.2328,Pumice_rect,8,1.233,1,14,0,14,0,1,,,,,,,,,,,,,
662d9149f8460cd72e01d8c9,TCR,2024-06-24_13h45.50.905,LearnStrategy,2023.2.3,Win32,60.24096386,7,1,16,0.109375,-0.00390625,1,0,0,0.802,rock_grid_rect_2,3,06,-1,-1,0.802,0.114583333,-0.239583333,1,0,0,1.9247,Diorite_rect,3,1.925,1,15,0,15,0,1,,,,,,,,,,,,,
662d9149f8460cd72e01d8c9,TCR,2024-06-24_13h45.50.905,LearnStrategy,2023.2.3,Win32,60.24096386,7,2,1,,,,,,,,3,11,,,,,,,,,,,3,4.211,1,,,,,,0.141927083,-0.25390625,1,0,0,4.211,Diorite_rect,0,0,0,0,1,
662d9149f8460cd72e01d8c9,TCR,2024-06-24_13h45.50.905,LearnStrategy,2023.2.3,Win32,60.24096386,7,2,2,,,,,,,,5,09,,,,,,,,,,,5,1.146,1,,,,,,-0.427083333,-0.388020833,1,0,0,1.146,Obsidian_rect,1,0,1,0,1,
662d9149f8460cd72e01d8c9,TCR,2024-06-24_13h45.50.905,LearnStrategy,2023.2.3,Win32,60.24096386,7,2,3,,,,,,,,3,15,,,,,,,,,,,3,1.561,1,,,,,,0.118489583,-0.251302083,1,0,0,1.5611,Diorite_rect,2,0,2,0,1,
662d9149f8460cd72e01d8c9,TCR,2024-06-24_13h45.50.905,LearnStrategy,2023.2.3,Win32,60.24096386,7,2,4,,,,,,,,6,06,,,,,,,,,,,6,1.504,1,,,,,,-0.186197917,-0.41015625,1,0,0,1.5037,Pegmatite_rect,3,0,3,0,1,
662d9149f8460cd72e01d8c9,TCR,2024-06-24_13h45.50.905,LearnStrategy,2023.2.3,Win32,60.24096386,7,2,5,,,,,,,,1,01,,,,,,,,,,,4,13.193,0,,,,,,0.444010417,-0.231770833,1,0,0,13.1927,Gabbro_rect,4,0,4,0,1,
662d9149f8460cd72e01d8c9,TCR,2024-06-24_13h45.50.905,LearnStrategy,2023.2.3,Win32,60.24096386,7,2,6,,,,,,,,5,04,,,,,,,,,,,5,1.392,1,,,,,,-0.458333333,-0.403645833,1,0,0,1.3921,Obsidian_rect,5,0,5,0,1,
662d9149f8460cd72e01d8c9,TCR,2024-06-24_13h45.50.905,LearnStrategy,2023.2.3,Win32,60.24096386,7,2,7,,,,,,,,4,05,,,,,,,,,,,7,51.923,0,,,,,,0.12109375,-0.399739583,1,0,0,51.923,Peridotite_rect,6,0,6,0,1,
662d9149f8460cd72e01d8c9,TCR,2024-06-24_13h45.50.905,LearnStrategy,2023.2.3,Win32,60.24096386,7,2,8,,,,,,,,7,16,,,,,,,,,,,7,1.181,1,,,,,,0.12109375,-0.399739583,1,0,0,1.1812,Peridotite_rect,7,0,7,0,1,
662d9149f8460cd72e01d8c9,TCR,2024-06-24_13h45.50.905,LearnStrategy,2023.2.3,Win32,60.24096386,7,2,9,,,,,,,,6,10,,,,,,,,,,,7,4.402,0,,,,,,0.12109375,-0.399739583,1,0,0,4.4019,Peridotite_rect,8,0,8,0,1,
662d9149f8460cd72e01d8c9,TCR,2024-06-24_13h45.50.905,LearnStrategy,2023.2.3,Win32,60.24096386,7,2,10,,,,,,,,4,16,,,,,,,,,,,2,8.919,0,,,,,,-0.1484375,-0.2421875,1,0,0,8.919,Basalt_rect,9,0,9,0,1,
662d9149f8460cd72e01d8c9,TCR,2024-06-24_13h45.50.905,LearnStrategy,2023.2.3,Win32,60.24096386,7,2,11,,,,,,,,2,01,,,,,,,,,,,2,3.375,1,,,,,,-0.111979167,-0.251302083,1,0,0,3.3751,Basalt_rect,10,0,10,0,1,
662d9149f8460cd72e01d8c9,TCR,2024-06-24_13h45.50.905,LearnStrategy,2023.2.3,Win32,60.24096386,7,2,12,,,,,,,,2,10,,,,,,,,,,,2,2.62,1,,,,,,-0.111979167,-0.251302083,1,0,0,2.6198,Basalt_rect,11,0,11,0,1,
662d9149f8460cd72e01d8c9,TCR,2024-06-24_13h45.50.905,LearnStrategy,2023.2.3,Win32,60.24096386,7,2,13,,,,,,,,7,12,,,,,,,,,,,3,1.732,0,,,,,,0.115885417,-0.248697917,1,0,0,1.7324,Diorite_rect,12,0,12,0,1,
662d9149f8460cd72e01d8c9,TCR,2024-06-24_13h45.50.905,LearnStrategy,2023.2.3,Win32,60.24096386,7,2,14,,,,,,,,8,16,,,,,,,,,,,8,1.448,1,,,,,,0.369791667,-0.397135417,1,0,0,1.448,Pumice_rect,13,0,13,0,1,
662d9149f8460cd72e01d8c9,TCR,2024-06-24_13h45.50.905,LearnStrategy,2023.2.3,Win32,60.24096386,7,2,15,,,,,,,,8,14,,,,,,,,,,,8,0.884,1,,,,,,0.364583333,-0.397135417,1,0,0,0.884,Pumice_rect,14,0,14,0,1,
662d9149f8460cd72e01d8c9,TCR,2024-06-24_13h45.50.905,LearnStrategy,2023.2.3,Win32,60.24096386,7,2,16,,,,,,,,1,11,,,,,,,,,,,1,2.085,1,,,,,,-0.390625,-0.247395833,1,0,0,2.0848,Andesite_rect,15,0,15,0,1,
662d9149f8460cd72e01d8c9,TCR,2024-06-24_13h45.50.905,LearnStrategy,2023.2.3,Win32,60.24096386,8,1,1,0.0625,0.020833333,1,0,0,1.5301,rock_grid_rect_2,7,14,-1,-1,1.53,0.161458333,-0.401041667,1,0,0,1.7605,Peridotite_rect,7,1.761,1,0,0,0,0,1,,,,,,,,,,,,,
662d9149f8460cd72e01d8c9,TCR,2024-06-24_13h45.50.905,LearnStrategy,2023.2.3,Win32,60.24096386,8,1,2,0.114583333,-0.016927083,1,0,0,1.5187,rock_grid_rect_2,4,08,-1,-1,1.519,0.393229167,-0.259114583,1,0,0,1.8058,Gabbro_rect,4,1.806,1,1,0,1,0,1,,,,,,,,,,,,,
662d9149f8460cd72e01d8c9,TCR,2024-06-24_13h45.50.905,LearnStrategy,2023.2.3,Win32,60.24096386,8,1,3,0.123697917,0.014322917,1,0,0,1.2557,rock_grid_rect_2,6,03,-1,-1,1.256,-0.157552083,-0.399739583,1,0,0,1.7805,Pegmatite_rect,6,1.781,1,2,0,2,0,1,,,,,,,,,,,,,
662d9149f8460cd72e01d8c9,TCR,2024-06-24_13h45.50.905,LearnStrategy,2023.2.3,Win32,60.24096386,8,1,4,0.059895833,-0.00390625,1,0,0,1.0961,rock_grid_rect_2,3,12,-1,-1,1.096,0.111979167,-0.25390625,1,0,0,1.4802,Diorite_rect,3,1.48,1,3,0,3,0,1,,,,,,,,,,,,,
662d9149f8460cd72e01d8c9,TCR,2024-06-24_13h45.50.905,LearnStrategy,2023.2.3,Win32,60.24096386,8,1,5,0.083333333,-0.0078125,1,0,0,0.9763,rock_grid_rect_2,8,08,-1,-1,0.976,0.41015625,-0.25,1,0,0,5.2518,Gabbro_rect,4,5.252,0,4,0,4,0,1,,,,,,,,,,,,,
662d9149f8460cd72e01d8c9,TCR,2024-06-24_13h45.50.905,LearnStrategy,2023.2.3,Win32,60.24096386,8,1,6,0.115885417,-0.001302083,1,0,0,0.9103,rock_grid_rect_2,1,04,-1,-1,0.91,-0.375,-0.251302083,1,0,0,1.5871,Andesite_rect,1,1.587,1,5,0,5,0,1,,,,,,,,,,,,,
662d9149f8460cd72e01d8c9,TCR,2024-06-24_13h45.50.905,LearnStrategy,2023.2.3,Win32,60.24096386,8,1,7,0.102864583,0.005208333,1,0,0,1.0399,rock_grid_rect_2,4,15,-1,-1,1.04,0.368489583,-0.24609375,1,0,0,1.3684,Gabbro_rect,4,1.368,1,6,0,6,0,1,,,,,,,,,,,,,
662d9149f8460cd72e01d8c9,TCR,2024-06-24_13h45.50.905,LearnStrategy,2023.2.3,Win32,60.24096386,8,1,8,0.1328125,0.009114583,1,0,0,0.7695,rock_grid_rect_2,4,13,-1,-1,0.769,0.376302083,-0.255208333,1,0,0,1.2911,Gabbro_rect,4,1.291,1,7,0,7,0,1,,,,,,,,,,,,,
662d9149f8460cd72e01d8c9,TCR,2024-06-24_13h45.50.905,LearnStrategy,2023.2.3,Win32,60.24096386,8,1,9,0.177083333,-0.00390625,1,0,0,0.7681,rock_grid_rect_2,2,16,-1,-1,0.768,-0.143229167,-0.229166667,1,0,0,4.8236,Basalt_rect,2,4.824,1,8,0,8,0,1,,,,,,,,,,,,,
662d9149f8460cd72e01d8c9,TCR,2024-06-24_13h45.50.905,LearnStrategy,2023.2.3,Win32,60.24096386,8,1,10,0.12109375,0.001302083,1,0,0,2.3474,rock_grid_rect_2,6,03,-1,-1,2.347,-0.165364583,-0.388020833,1,0,0,1.3599,Pegmatite_rect,6,1.36,1,9,0,9,0,1,,,,,,,,,,,,,
662d9149f8460cd72e01d8c9,TCR,2024-06-24_13h45.50.905,LearnStrategy,2023.2.3,Win32,60.24096386,8,1,11,0.100260417,-0.0078125,1,0,0,0.8573,rock_grid_rect_2,7,10,-1,-1,0.857,0.11328125,-0.408854167,1,0,0,1.3562,Peridotite_rect,7,1.356,1,10,0,10,0,1,,,,,,,,,,,,,
662d9149f8460cd72e01d8c9,TCR,2024-06-24_13h45.50.905,LearnStrategy,2023.2.3,Win32,60.24096386,8,1,12,0.115885417,-0.00390625,1,0,0,1.4092,rock_grid_rect_2,1,07,-1,-1,1.409,-0.390625,-0.247395833,1,0,0,2.1326,Andesite_rect,1,2.133,1,11,0,11,0,1,,,,,,,,,,,,,
662d9149f8460cd72e01d8c9,TCR,2024-06-24_13h45.50.905,LearnStrategy,2023.2.3,Win32,60.24096386,8,1,13,0.127604167,0.002604167,1,0,0,1.3173,rock_grid_rect_2,4,11,-1,-1,1.317,0.360677083,-0.260416667,1,0,0,1.7225,Gabbro_rect,4,1.722,1,12,0,12,0,1,,,,,,,,,,,,,
662d9149f8460cd72e01d8c9,TCR,2024-06-24_13h45.50.905,LearnStrategy,2023.2.3,Win32,60.24096386,8,1,14,0.10546875,0.0078125,1,0,0,0.727,rock_grid_rect_2,4,11,-1,-1,0.727,0.3828125,-0.248697917,1,0,0,1.2612,Gabbro_rect,4,1.261,1,13,0,13,0,1,,,,,,,,,,,,,
662d9149f8460cd72e01d8c9,TCR,2024-06-24_13h45.50.905,LearnStrategy,2023.2.3,Win32,60.24096386,8,1,15,0.13671875,0.010416667,1,0,0,0.797,rock_grid_rect_2,1,10,-1,-1,0.797,-0.44140625,-0.235677083,1,0,0,1.7867,Andesite_rect,1,1.787,1,14,0,14,0,1,,,,,,,,,,,,,
662d9149f8460cd72e01d8c9,TCR,2024-06-24_13h45.50.905,LearnStrategy,2023.2.3,Win32,60.24096386,8,1,16,0.14453125,-0.01171875,1,0,0,0.7892,rock_grid_rect_2,5,07,-1,-1,0.789,-0.404947917,-0.39453125,1,0,0,1.233,Obsidian_rect,5,1.233,1,15,0,15,0,1,,,,,,,,,,,,,
662d9149f8460cd72e01d8c9,TCR,2024-06-24_13h45.50.905,LearnStrategy,2023.2.3,Win32,60.24096386,8,2,1,,,,,,,,1,14,,,,,,,,,,,1,2.662,1,,,,,,-0.37109375,-0.256510417,1,0,0,2.6624,Andesite_rect,0,0,0,0,1,
662d9149f8460cd72e01d8c9,TCR,2024-06-24_13h45.50.905,LearnStrategy,2023.2.3,Win32,60.24096386,8,2,2,,,,,,,,3,16,,,,,,,,,,,3,1.234,1,,,,,,0.11328125,-0.244791667,1,0,0,1.2336,Diorite_rect,1,0,1,0,1,
662d9149f8460cd72e01d8c9,TCR,2024-06-24_13h45.50.905,LearnStrategy,2023.2.3,Win32,60.24096386,8,2,3,,,,,,,,4,03,,,,,,,,,,,4,2.223,1,,,,,,0.403645833,-0.248697917,1,0,0,2.2229,Gabbro_rect,2,0,2,0,1,
662d9149f8460cd72e01d8c9,TCR,2024-06-24_13h45.50.905,LearnStrategy,2023.2.3,Win32,60.24096386,8,2,4,,,,,,,,2,14,,,,,,,,,,,8,1.818,0,,,,,,0.346354167,-0.395833333,1,0,0,1.8177,Pumice_rect,3,0,3,0,1,
662d9149f8460cd72e01d8c9,TCR,2024-06-24_13h45.50.905,LearnStrategy,2023.2.3,Win32,60.24096386,8,2,5,,,,,,,,6,05,,,,,,,,,,,5,3.358,0,,,,,,-0.3515625,-0.404947917,1,0,0,3.3576,Obsidian_rect,4,0,4,0,1,
662d9149f8460cd72e01d8c9,TCR,2024-06-24_13h45.50.905,LearnStrategy,2023.2.3,Win32,60.24096386,8,2,6,,,,,,,,8,05,,,,,,,,,,,8,1.517,1,,,,,,0.390625,-0.399739583,1,0,0,1.5173,Pumice_rect,5,0,5,0,1,
662d9149f8460cd72e01d8c9,TCR,2024-06-24_13h45.50.905,LearnStrategy,2023.2.3,Win32,60.24096386,8,2,7,,,,,,,,2,09,,,,,,,,,,,2,1.56,1,,,,,,-0.192708333,-0.26171875,1,0,0,1.5603,Basalt_rect,6,0,6,0,1,
662d9149f8460cd72e01d8c9,TCR,2024-06-24_13h45.50.905,LearnStrategy,2023.2.3,Win32,60.24096386,8,2,8,,,,,,,,3,02,,,,,,,,,,,3,3.333,1,,,,,,0.157552083,-0.243489583,1,0,0,3.3326,Diorite_rect,7,0,7,0,1,
662d9149f8460cd72e01d8c9,TCR,2024-06-24_13h45.50.905,LearnStrategy,2023.2.3,Win32,60.24096386,8,2,9,,,,,,,,1,03,,,,,,,,,,,1,3.224,1,,,,,,-0.408854167,-0.252604167,1,0,0,3.2244,Andesite_rect,8,0,8,0,1,
662d9149f8460cd72e01d8c9,TCR,2024-06-24_13h45.50.905,LearnStrategy,2023.2.3,Win32,60.24096386,8,2,10,,,,,,,,4,09,,,,,,,,,,,4,15.893,1,,,,,,0.401041667,-0.231770833,1,0,0,15.8925,Gabbro_rect,9,0,9,0,1,
662d9149f8460cd72e01d8c9,TCR,2024-06-24_13h45.50.905,LearnStrategy,2023.2.3,Win32,60.24096386,8,2,11,,,,,,,,8,03,,,,,,,,,,,8,1.323,1,,,,,,0.356770833,-0.39453125,1,0,0,1.3228,Pumice_rect,10,0,10,0,1,
662d9149f8460cd72e01d8c9,TCR,2024-06-24_13h45.50.905,LearnStrategy,2023.2.3,Win32,60.24096386,8,2,12,,,,,,,,5,11,,,,,,,,,,,5,1.249,1,,,,,,-0.411458333,-0.39453125,1,0,0,1.2486,Obsidian_rect,11,0,11,0,1,
662d9149f8460cd72e01d8c9,TCR,2024-06-24_13h45.50.905,LearnStrategy,2023.2.3,Win32,60.24096386,8,2,13,,,,,,,,5,12,,,,,,,,,,,5,1.072,1,,,,,,-0.412760417,-0.39453125,1,0,0,1.072,Obsidian_rect,12,0,12,0,1,
662d9149f8460cd72e01d8c9,TCR,2024-06-24_13h45.50.905,LearnStrategy,2023.2.3,Win32,60.24096386,8,2,14,,,,,,,,7,02,,,,,,,,,,,7,1.226,1,,,,,,0.12109375,-0.401041667,1,0,0,1.226,Peridotite_rect,13,0,13,0,1,
662d9149f8460cd72e01d8c9,TCR,2024-06-24_13h45.50.905,LearnStrategy,2023.2.3,Win32,60.24096386,8,2,15,,,,,,,,7,04,,,,,,,,,,,7,0.967,1,,,,,,0.12109375,-0.401041667,1,0,0,0.9673,Peridotite_rect,14,0,14,0,1,
662d9149f8460cd72e01d8c9,TCR,2024-06-24_13h45.50.905,LearnStrategy,2023.2.3,Win32,60.24096386,8,2,16,,,,,,,,6,16,,,,,,,,,,,6,2.25,1,,,,,,-0.157552083,-0.404947917,1,0,0,2.2499,Pegmatite_rect,15,0,15,0,1,
662d9149f8460cd72e01d8c9,TCR,2024-06-24_13h45.50.905,LearnStrategy,2023.2.3,Win32,60.24096386,9,1,1,0.0078125,-0.0078125,1,0,0,1.0054,rock_grid_rect_2,7,05,-1,-1,1.005,0.17578125,-0.395833333,1,0,0,2.8658,Peridotite_rect,7,2.866,1,0,0,0,0,1,,,,,,,,,,,,,
662d9149f8460cd72e01d8c9,TCR,2024-06-24_13h45.50.905,LearnStrategy,2023.2.3,Win32,60.24096386,9,1,2,0.08203125,0,1,0,0,1.0705,rock_grid_rect_2,8,09,-1,-1,1.071,0.361979167,-0.419270833,1,0,0,2.3412,Pumice_rect,8,2.341,1,1,0,1,0,1,,,,,,,,,,,,,
662d9149f8460cd72e01d8c9,TCR,2024-06-24_13h45.50.905,LearnStrategy,2023.2.3,Win32,60.24096386,9,1,3,0.075520833,-0.006510417,1,0,0,1.8358,rock_grid_rect_2,6,07,-1,-1,1.836,-0.1640625,-0.390625,1,0,0,1.73,Pegmatite_rect,6,1.73,1,2,0,2,0,1,,,,,,,,,,,,,
662d9149f8460cd72e01d8c9,TCR,2024-06-24_13h45.50.905,LearnStrategy,2023.2.3,Win32,60.24096386,9,1,4,0.123697917,-0.018229167,1,0,0,0.9711,rock_grid_rect_2,4,15,-1,-1,0.971,0.377604167,-0.268229167,1,0,0,1.5574,Gabbro_rect,4,1.557,1,3,0,3,0,1,,,,,,,,,,,,,
662d9149f8460cd72e01d8c9,TCR,2024-06-24_13h45.50.905,LearnStrategy,2023.2.3,Win32,60.24096386,9,1,5,0.1171875,-0.024739583,1,0,0,0.9509,rock_grid_rect_2,2,16,-1,-1,0.951,-0.147135417,-0.255208333,1,0,0,2.2624,Basalt_rect,2,2.262,1,4,0,4,0,1,,,,,,,,,,,,,
662d9149f8460cd72e01d8c9,TCR,2024-06-24_13h45.50.905,LearnStrategy,2023.2.3,Win32,60.24096386,9,1,6,0.041666667,-0.006510417,1,0,0,1.0603,rock_grid_rect_2,4,11,-1,-1,1.06,0.356770833,-0.233072917,1,0,0,1.2955,Gabbro_rect,4,1.296,1,5,0,5,0,1,,,,,,,,,,,,,
662d9149f8460cd72e01d8c9,TCR,2024-06-24_13h45.50.905,LearnStrategy,2023.2.3,Win32,60.24096386,9,1,7,0.067708333,-0.015625,1,0,0,0.9221,rock_grid_rect_2,1,05,-1,-1,0.922,-0.427083333,-0.263020833,1,0,0,1.7777,Andesite_rect,1,1.778,1,6,0,6,0,1,,,,,,,,,,,,,
662d9149f8460cd72e01d8c9,TCR,2024-06-24_13h45.50.905,LearnStrategy,2023.2.3,Win32,60.24096386,9,1,8,0.131510417,0,1,0,0,1.64,rock_grid_rect_2,5,08,-1,-1,1.64,-0.391927083,-0.39453125,1,0,0,1.4465,Obsidian_rect,5,1.447,1,7,0,7,0,1,,,,,,,,,,,,,
662d9149f8460cd72e01d8c9,TCR,2024-06-24_13h45.50.905,LearnStrategy,2023.2.3,Win32,60.24096386,9,1,9,0.130208333,0.00390625,1,0,0,1.4985,rock_grid_rect_2,7,10,-1,-1,1.499,0.141927083,-0.412760417,1,0,0,1.8694,Peridotite_rect,7,1.869,1,8,0,8,0,1,,,,,,,,,,,,,
662d9149f8460cd72e01d8c9,TCR,2024-06-24_13h45.50.905,LearnStrategy,2023.2.3,Win32,60.24096386,9,1,10,0.03125,0.006510417,1,0,0,1.5096,rock_grid_rect_2,1,10,-1,-1,1.51,-0.43359375,-0.255208333,1,0,0,1.7063,Andesite_rect,1,1.706,1,9,0,9,0,1,,,,,,,,,,,,,
662d9149f8460cd72e01d8c9,TCR,2024-06-24_13h45.50.905,LearnStrategy,2023.2.3,Win32,60.24096386,9,1,11,0.110677083,0.002604167,1,0,0,1.021,rock_grid_rect_2,3,12,-1,-1,1.021,0.131510417,-0.256510417,1,0,0,1.0938,Diorite_rect,3,1.094,1,10,0,10,0,1,,,,,,,,,,,,,
662d9149f8460cd72e01d8c9,TCR,2024-06-24_13h45.50.905,LearnStrategy,2023.2.3,Win32,60.24096386,9,1,12,0.130208333,-0.006510417,1,0,0,1.3114,rock_grid_rect_2,2,05,-1,-1,1.311,-0.154947917,-0.23828125,1,0,0,1.121,Basalt_rect,2,1.121,1,11,0,11,0,1,,,,,,,,,,,,,
662d9149f8460cd72e01d8c9,TCR,2024-06-24_13h45.50.905,LearnStrategy,2023.2.3,Win32,60.24096386,9,1,13,0.139322917,-0.024739583,1,0,0,1.088,rock_grid_rect_2,4,10,-1,-1,1.088,0.358072917,-0.23828125,1,0,0,1.7611,Gabbro_rect,4,1.761,1,12,0,12,0,1,,,,,,,,,,,,,
662d9149f8460cd72e01d8c9,TCR,2024-06-24_13h45.50.905,LearnStrategy,2023.2.3,Win32,60.24096386,9,1,14,0.06640625,0.016927083,1,0,0,0.92,rock_grid_rect_2,4,13,-1,-1,0.92,0.3515625,-0.26953125,1,0,0,2.7666,Gabbro_rect,4,2.767,1,13,0,13,0,1,,,,,,,,,,,,,
662d9149f8460cd72e01d8c9,TCR,2024-06-24_13h45.50.905,LearnStrategy,2023.2.3,Win32,60.24096386,9,1,15,0.106770833,0.006510417,1,0,0,1.7326,rock_grid_rect_2,6,15,-1,-1,1.733,-0.166666667,-0.38671875,1,0,0,1.1077,Pegmatite_rect,6,1.108,1,14,0,14,0,1,,,,,,,,,,,,,
662d9149f8460cd72e01d8c9,TCR,2024-06-24_13h45.50.905,LearnStrategy,2023.2.3,Win32,60.24096386,9,1,16,0.096354167,-0.010416667,1,0,0,1.5669,rock_grid_rect_2,6,13,-1,-1,1.567,-0.1640625,-0.412760417,1,0,0,0.9679,Pegmatite_rect,6,0.968,1,15,0,15,0,1,,,,,,,,,,,,,
662d9149f8460cd72e01d8c9,TCR,2024-06-24_13h45.50.905,LearnStrategy,2023.2.3,Win32,60.24096386,9,2,1,,,,,,,,5,06,,,,,,,,,,,5,1.69,1,,,,,,-0.412760417,-0.401041667,1,0,0,1.6898,Obsidian_rect,0,0,0,0,1,
662d9149f8460cd72e01d8c9,TCR,2024-06-24_13h45.50.905,LearnStrategy,2023.2.3,Win32,60.24096386,9,2,2,,,,,,,,7,13,,,,,,,,,,,7,1.227,1,,,,,,0.12109375,-0.41015625,1,0,0,1.2266,Peridotite_rect,1,0,1,0,1,
662d9149f8460cd72e01d8c9,TCR,2024-06-24_13h45.50.905,LearnStrategy,2023.2.3,Win32,60.24096386,9,2,3,,,,,,,,3,07,,,,,,,,,,,3,1.841,1,,,,,,0.06640625,-0.25,1,0,0,1.8408,Diorite_rect,2,0,2,0,1,
662d9149f8460cd72e01d8c9,TCR,2024-06-24_13h45.50.905,LearnStrategy,2023.2.3,Win32,60.24096386,9,2,4,,,,,,,,8,06,,,,,,,,,,,8,1.442,1,,,,,,0.376302083,-0.416666667,1,0,0,1.4423,Pumice_rect,3,0,3,0,1,
662d9149f8460cd72e01d8c9,TCR,2024-06-24_13h45.50.905,LearnStrategy,2023.2.3,Win32,60.24096386,9,2,5,,,,,,,,4,14,,,,,,,,,,,4,4.802,1,,,,,,0.3671875,-0.259114583,1,0,0,4.802,Gabbro_rect,4,0,4,0,1,
662d9149f8460cd72e01d8c9,TCR,2024-06-24_13h45.50.905,LearnStrategy,2023.2.3,Win32,60.24096386,9,2,6,,,,,,,,6,12,,,,,,,,,,,6,6.423,1,,,,,,-0.15234375,-0.39453125,1,0,0,6.4232,Pegmatite_rect,5,0,5,0,1,
662d9149f8460cd72e01d8c9,TCR,2024-06-24_13h45.50.905,LearnStrategy,2023.2.3,Win32,60.24096386,9,2,7,,,,,,,,2,12,,,,,,,,,,,2,35.441,1,,,,,,-0.178385417,-0.240885417,1,0,0,35.4412,Basalt_rect,6,0,6,0,1,
662d9149f8460cd72e01d8c9,TCR,2024-06-24_13h45.50.905,LearnStrategy,2023.2.3,Win32,60.24096386,9,2,8,,,,,,,,7,07,,,,,,,,,,,7,1.556,1,,,,,,0.174479167,-0.388020833,1,0,0,1.556,Peridotite_rect,7,0,7,0,1,
662d9149f8460cd72e01d8c9,TCR,2024-06-24_13h45.50.905,LearnStrategy,2023.2.3,Win32,60.24096386,9,2,9,,,,,,,,1,02,,,,,,,,,,,6,2.996,0,,,,,,-0.115885417,-0.412760417,1,0,0,2.9959,Pegmatite_rect,8,0,8,0,1,
662d9149f8460cd72e01d8c9,TCR,2024-06-24_13h45.50.905,LearnStrategy,2023.2.3,Win32,60.24096386,9,2,10,,,,,,,,6,08,,,,,,,,,,,6,1.047,1,,,,,,-0.115885417,-0.412760417,1,0,0,1.047,Pegmatite_rect,9,0,9,0,1,
662d9149f8460cd72e01d8c9,TCR,2024-06-24_13h45.50.905,LearnStrategy,2023.2.3,Win32,60.24096386,9,2,11,,,,,,,,8,15,,,,,,,,,,,8,3.782,1,,,,,,0.380208333,-0.395833333,1,0,0,3.7815,Pumice_rect,10,0,10,0,1,
662d9149f8460cd72e01d8c9,TCR,2024-06-24_13h45.50.905,LearnStrategy,2023.2.3,Win32,60.24096386,9,2,12,,,,,,,,2,02,,,,,,,,,,,2,1.571,1,,,,,,-0.161458333,-0.252604167,1,0,0,1.5711,Basalt_rect,11,0,11,0,1,
662d9149f8460cd72e01d8c9,TCR,2024-06-24_13h45.50.905,LearnStrategy,2023.2.3,Win32,60.24096386,9,2,13,,,,,,,,4,01,,,,,,,,,,,1,55.148,0,,,,,,-0.361979167,-0.252604167,1,0,0,55.1478,Andesite_rect,12,0,12,0,1,
662d9149f8460cd72e01d8c9,TCR,2024-06-24_13h45.50.905,LearnStrategy,2023.2.3,Win32,60.24096386,9,2,14,,,,,,,,5,16,,,,,,,,,,,5,1.301,1,,,,,,-0.395833333,-0.401041667,1,0,0,1.3013,Obsidian_rect,13,0,13,0,1,
662d9149f8460cd72e01d8c9,TCR,2024-06-24_13h45.50.905,LearnStrategy,2023.2.3,Win32,60.24096386,9,2,15,,,,,,,,3,08,,,,,,,,,,,3,1.169,1,,,,,,0.1328125,-0.25390625,1,0,0,1.1694,Diorite_rect,14,0,14,0,1,
662d9149f8460cd72e01d8c9,TCR,2024-06-24_13h45.50.905,LearnStrategy,2023.2.3,Win32,60.24096386,9,2,16,,,,,,,,1,16,,,,,,,,,,,1,2.378,1,,,,,,-0.376302083,-0.234375,1,0,0,2.3783,Andesite_rect,15,0,15,0,1,
662d9149f8460cd72e01d8c9,TCR,2024-06-24_13h45.50.905,LearnStrategy,2023.2.3,Win32,60.24096386,,,,,,,,,,,,,,,,,,,,,,,,,,,,,,,,,,,,,,,,,,,1
662d9149f8460cd72e01d8c9,TCR,2024-06-24_13h45.50.905,LearnStrategy,2023.2.3,Win32,60.24096386,,,,,,,,,,,,,,,,,,,,,,,,,,,,,,,,,,,,,,,,,,,
662d9149f8460cd72e01d8c9,TCR,2024-06-24_13h45.50.905,LearnStrategy,2023.2.3,Win32,60.24096386,,,,,,,,,,,5,07,1,1,,,,,,,,,,,,,,,,,,,,,,,,,,,,,
662d9149f8460cd72e01d8c9,TCR,2024-06-24_13h45.50.905,LearnStrategy,2023.2.3,Win32,60.24096386,,,,,,,,,,,5,05,1,2,,,,,,,,,,,,,,,,,,,,,,,,,,,,,
662d9149f8460cd72e01d8c9,TCR,2024-06-24_13h45.50.905,LearnStrategy,2023.2.3,Win32,60.24096386,,,,,,,,,,,4,08,1,3,,,,,,,,,,,,,,,,,,,,,,,,,,,,,
662d9149f8460cd72e01d8c9,TCR,2024-06-24_13h45.50.905,LearnStrategy,2023.2.3,Win32,60.24096386,,,,,,,,,,,6,15,1,4,,,,,,,,,,,,,,,,,,,,,,,,,,,,,
662d9149f8460cd72e01d8c9,TCR,2024-06-24_13h45.50.905,LearnStrategy,2023.2.3,Win32,60.24096386,,,,,,,,,,,1,07,1,5,,,,,,,,,,,,,,,,,,,,,,,,,,,,,
662d9149f8460cd72e01d8c9,TCR,2024-06-24_13h45.50.905,LearnStrategy,2023.2.3,Win32,60.24096386,,,,,,,,,,,7,10,1,6,,,,,,,,,,,,,,,,,,,,,,,,,,,,,
662d9149f8460cd72e01d8c9,TCR,2024-06-24_13h45.50.905,LearnStrategy,2023.2.3,Win32,60.24096386,,,,,,,,,,,2,05,1,7,,,,,,,,,,,,,,,,,,,,,,,,,,,,,
662d9149f8460cd72e01d8c9,TCR,2024-06-24_13h45.50.905,LearnStrategy,2023.2.3,Win32,60.24096386,,,,,,,,,,,7,06,1,8,,,,,,,,,,,,,,,,,,,,,,,,,,,,,
662d9149f8460cd72e01d8c9,TCR,2024-06-24_13h45.50.905,LearnStrategy,2023.2.3,Win32,60.24096386,,,,,,,,,,,3,12,2,1,,,,,,,,,,,,,,,,,,,,,,,,,,,,,
662d9149f8460cd72e01d8c9,TCR,2024-06-24_13h45.50.905,LearnStrategy,2023.2.3,Win32,60.24096386,,,,,,,,,,,7,08,2,2,,,,,,,,,,,,,,,,,,,,,,,,,,,,,
662d9149f8460cd72e01d8c9,TCR,2024-06-24_13h45.50.905,LearnStrategy,2023.2.3,Win32,60.24096386,,,,,,,,,,,8,09,2,3,,,,,,,,,,,,,,,,,,,,,,,,,,,,,
662d9149f8460cd72e01d8c9,TCR,2024-06-24_13h45.50.905,LearnStrategy,2023.2.3,Win32,60.24096386,,,,,,,,,,,8,02,2,4,,,,,,,,,,,,,,,,,,,,,,,,,,,,,
662d9149f8460cd72e01d8c9,TCR,2024-06-24_13h45.50.905,LearnStrategy,2023.2.3,Win32,60.24096386,,,,,,,,,,,5,10,2,5,,,,,,,,,,,,,,,,,,,,,,,,,,,,,
662d9149f8460cd72e01d8c9,TCR,2024-06-24_13h45.50.905,LearnStrategy,2023.2.3,Win32,60.24096386,,,,,,,,,,,3,06,2,6,,,,,,,,,,,,,,,,,,,,,,,,,,,,,
662d9149f8460cd72e01d8c9,TCR,2024-06-24_13h45.50.905,LearnStrategy,2023.2.3,Win32,60.24096386,,,,,,,,,,,4,13,2,7,,,,,,,,,,,,,,,,,,,,,,,,,,,,,
662d9149f8460cd72e01d8c9,TCR,2024-06-24_13h45.50.905,LearnStrategy,2023.2.3,Win32,60.24096386,,,,,,,,,,,2,04,2,8,,,,,,,,,,,,,,,,,,,,,,,,,,,,,
662d9149f8460cd72e01d8c9,TCR,2024-06-24_13h45.50.905,LearnStrategy,2023.2.3,Win32,60.24096386,,,,,,,,,,,8,13,3,1,,,,,,,,,,,,,,,,,,,,,,,,,,,,,
662d9149f8460cd72e01d8c9,TCR,2024-06-24_13h45.50.905,LearnStrategy,2023.2.3,Win32,60.24096386,,,,,,,,,,,1,09,3,2,,,,,,,,,,,,,,,,,,,,,,,,,,,,,
662d9149f8460cd72e01d8c9,TCR,2024-06-24_13h45.50.905,LearnStrategy,2023.2.3,Win32,60.24096386,,,,,,,,,,,2,16,3,3,,,,,,,,,,,,,,,,,,,,,,,,,,,,,
662d9149f8460cd72e01d8c9,TCR,2024-06-24_13h45.50.905,LearnStrategy,2023.2.3,Win32,60.24096386,,,,,,,,,,,4,12,3,4,,,,,,,,,,,,,,,,,,,,,,,,,,,,,
662d9149f8460cd72e01d8c9,TCR,2024-06-24_13h45.50.905,LearnStrategy,2023.2.3,Win32,60.24096386,,,,,,,,,,,4,11,3,5,,,,,,,,,,,,,,,,,,,,,,,,,,,,,
662d9149f8460cd72e01d8c9,TCR,2024-06-24_13h45.50.905,LearnStrategy,2023.2.3,Win32,60.24096386,,,,,,,,,,,7,15,3,6,,,,,,,,,,,,,,,,,,,,,,,,,,,,,
662d9149f8460cd72e01d8c9,TCR,2024-06-24_13h45.50.905,LearnStrategy,2023.2.3,Win32,60.24096386,,,,,,,,,,,5,14,3,7,,,,,,,,,,,,,,,,,,,,,,,,,,,,,
662d9149f8460cd72e01d8c9,TCR,2024-06-24_13h45.50.905,LearnStrategy,2023.2.3,Win32,60.24096386,,,,,,,,,,,3,13,3,8,,,,,,,,,,,,,,,,,,,,,,,,,,,,,
662d9149f8460cd72e01d8c9,TCR,2024-06-24_13h45.50.905,LearnStrategy,2023.2.3,Win32,60.24096386,,,,,,,,,,,8,08,4,1,,,,,,,,,,,,,,,,,,,,,,,,,,,,,
662d9149f8460cd72e01d8c9,TCR,2024-06-24_13h45.50.905,LearnStrategy,2023.2.3,Win32,60.24096386,,,,,,,,,,,8,04,4,2,,,,,,,,,,,,,,,,,,,,,,,,,,,,,
662d9149f8460cd72e01d8c9,TCR,2024-06-24_13h45.50.905,LearnStrategy,2023.2.3,Win32,60.24096386,,,,,,,,,,,7,05,4,3,,,,,,,,,,,,,,,,,,,,,,,,,,,,,
662d9149f8460cd72e01d8c9,TCR,2024-06-24_13h45.50.905,LearnStrategy,2023.2.3,Win32,60.24096386,,,,,,,,,,,1,05,4,4,,,,,,,,,,,,,,,,,,,,,,,,,,,,,
662d9149f8460cd72e01d8c9,TCR,2024-06-24_13h45.50.905,LearnStrategy,2023.2.3,Win32,60.24096386,,,,,,,,,,,2,11,4,5,,,,,,,,,,,,,,,,,,,,,,,,,,,,,
662d9149f8460cd72e01d8c9,TCR,2024-06-24_13h45.50.905,LearnStrategy,2023.2.3,Win32,60.24096386,,,,,,,,,,,8,10,4,6,,,,,,,,,,,,,,,,,,,,,,,,,,,,,
662d9149f8460cd72e01d8c9,TCR,2024-06-24_13h45.50.905,LearnStrategy,2023.2.3,Win32,60.24096386,,,,,,,,,,,3,10,4,7,,,,,,,,,,,,,,,,,,,,,,,,,,,,,
662d9149f8460cd72e01d8c9,TCR,2024-06-24_13h45.50.905,LearnStrategy,2023.2.3,Win32,60.24096386,,,,,,,,,,,5,08,4,8,,,,,,,,,,,,,,,,,,,,,,,,,,,,,
662d9149f8460cd72e01d8c9,TCR,2024-06-24_13h45.50.905,LearnStrategy,2023.2.3,Win32,60.24096386,,,,,,,,,,,6,07,5,1,,,,,,,,,,,,,,,,,,,,,,,,,,,,,
662d9149f8460cd72e01d8c9,TCR,2024-06-24_13h45.50.905,LearnStrategy,2023.2.3,Win32,60.24096386,,,,,,,,,,,6,13,5,2,,,,,,,,,,,,,,,,,,,,,,,,,,,,,
662d9149f8460cd72e01d8c9,TCR,2024-06-24_13h45.50.905,LearnStrategy,2023.2.3,Win32,60.24096386,,,,,,,,,,,3,09,5,3,,,,,,,,,,,,,,,,,,,,,,,,,,,,,
662d9149f8460cd72e01d8c9,TCR,2024-06-24_13h45.50.905,LearnStrategy,2023.2.3,Win32,60.24096386,,,,,,,,,,,7,14,5,4,,,,,,,,,,,,,,,,,,,,,,,,,,,,,
662d9149f8460cd72e01d8c9,TCR,2024-06-24_13h45.50.905,LearnStrategy,2023.2.3,Win32,60.24096386,,,,,,,,,,,2,06,5,5,,,,,,,,,,,,,,,,,,,,,,,,,,,,,
662d9149f8460cd72e01d8c9,TCR,2024-06-24_13h45.50.905,LearnStrategy,2023.2.3,Win32,60.24096386,,,,,,,,,,,1,06,5,6,,,,,,,,,,,,,,,,,,,,,,,,,,,,,
662d9149f8460cd72e01d8c9,TCR,2024-06-24_13h45.50.905,LearnStrategy,2023.2.3,Win32,60.24096386,,,,,,,,,,,4,15,5,7,,,,,,,,,,,,,,,,,,,,,,,,,,,,,
662d9149f8460cd72e01d8c9,TCR,2024-06-24_13h45.50.905,LearnStrategy,2023.2.3,Win32,60.24096386,,,,,,,,,,,4,10,5,8,,,,,,,,,,,,,,,,,,,,,,,,,,,,,
662d9149f8460cd72e01d8c9,TCR,2024-06-24_13h45.50.905,LearnStrategy,2023.2.3,Win32,60.24096386,,,,,,,,,,,1,04,6,1,,,,,,,,,,,,,,,,,,,,,,,,,,,,,
662d9149f8460cd72e01d8c9,TCR,2024-06-24_13h45.50.905,LearnStrategy,2023.2.3,Win32,60.24096386,,,,,,,,,,,6,03,6,2,,,,,,,,,,,,,,,,,,,,,,,,,,,,,
662d9149f8460cd72e01d8c9,TCR,2024-06-24_13h45.50.905,LearnStrategy,2023.2.3,Win32,60.24096386,,,,,,,,,,,1,10,6,3,,,,,,,,,,,,,,,,,,,,,,,,,,,,,
662d9149f8460cd72e01d8c9,TCR,2024-06-24_13h45.50.905,LearnStrategy,2023.2.3,Win32,60.24096386,,,,,,,,,,,2,08,6,4,,,,,,,,,,,,,,,,,,,,,,,,,,,,,
662d9149f8460cd72e01d8c9,TCR,2024-06-24_13h45.50.905,LearnStrategy,2023.2.3,Win32,60.24096386,,,,,,,,,,,5,02,6,5,,,,,,,,,,,,,,,,,,,,,,,,,,,,,
662d9149f8460cd72e01d8c9,TCR,2024-06-24_13h45.50.905,LearnStrategy,2023.2.3,Win32,60.24096386,,,,,,,,,,,6,11,6,6,,,,,,,,,,,,,,,,,,,,,,,,,,,,,
662d9149f8460cd72e01d8c9,TCR,2024-06-24_13h45.50.905,LearnStrategy,2023.2.3,Win32,60.24096386,,,,,,,,,,,6,09,6,7,,,,,,,,,,,,,,,,,,,,,,,,,,,,,
662d9149f8460cd72e01d8c9,TCR,2024-06-24_13h45.50.905,LearnStrategy,2023.2.3,Win32,60.24096386,,,,,,,,,,,3,14,6,8,,,,,,,,,,,,,,,,,,,,,,,,,,,,,