participant,condition,date,expName,psychopyVersion,OS,frameRate,block,phase,trial,learn_mouse.x,learn_mouse.y,learn_mouse.leftButton,learn_mouse.midButton,learn_mouse.rightButton,learn_mouse.time,learn_mouse.clicked_name,cat,token,row,col,t_select,cat_rec,token_rec,cat_mouse_l.x,cat_mouse_l.y,cat_mouse_l.leftButton,cat_mouse_l.midButton,cat_mouse_l.rightButton,cat_mouse_l.time,cat_mouse_l.clicked_name,resp,t_resp,corr,train_trials.thisRepN,train_trials.thisTrialN,train_trials.thisN,train_trials.thisIndex,train_trials.ran,cat_mouse_t.x,cat_mouse_t.y,cat_mouse_t.leftButton,cat_mouse_t.midButton,cat_mouse_t.rightButton,cat_mouse_t.time,cat_mouse_t.clicked_name,test_trials.thisRepN,test_trials.thisTrialN,test_trials.thisN,test_trials.thisIndex,test_trials.ran,Bonus
6630f086d4f678aaabebe3d9,SCR,2024-06-24_14h45.45.426,LearnStrategy,2023.2.3,Win32,60.24096386,,,,,,,,,,,,,,,,,,,,,,,,,,,,,,,,,,,,,,,,,,,,,
6630f086d4f678aaabebe3d9,SCR,2024-06-24_14h45.45.426,LearnStrategy,2023.2.3,Win32,60.24096386,1,1,1,-0.225,-0.266666667,1,0,0,10.1575,Pumice_16,8,16,2,3,10.158,8,16,0.400925954,-0.4,1,0,0,9.1424,Pumice_rect,8,9.142,1,0,0,0,0,1,,,,,,,,,,,,,
6630f086d4f678aaabebe3d9,SCR,2024-06-24_14h45.45.426,LearnStrategy,2023.2.3,Win32,60.24096386,1,1,2,-0.083333333,-0.100925954,1,0,0,2.1138,Obsidian_16,5,16,3,4,2.114,5,16,-0.407407379,-0.396296353,1,0,0,5.3356,Obsidian_rect,5,5.336,1,1,0,1,0,1,,,,,,,,,,,,,
6630f086d4f678aaabebe3d9,SCR,2024-06-24_14h45.45.426,LearnStrategy,2023.2.3,Win32,60.24096386,1,1,3,-0.237037023,-0.109259288,1,0,0,1.4509,Pegmatite_11,6,11,3,3,1.451,6,11,0.124074131,-0.394444444,1,0,0,7.0998,Peridotite_rect,7,7.1,0,2,0,2,0,1,,,,,,,,,,,,,
6630f086d4f678aaabebe3d9,SCR,2024-06-24_14h45.45.426,LearnStrategy,2023.2.3,Win32,60.24096386,1,1,4,-0.55370369,0.086111111,1,0,0,2.1339,Basalt_01,2,01,4,1,2.134,2,01,-0.137962935,-0.258333333,1,0,0,7.4666,Basalt_rect,2,7.467,1,3,0,3,0,1,,,,,,,,,,,,,
6630f086d4f678aaabebe3d9,SCR,2024-06-24_14h45.45.426,LearnStrategy,2023.2.3,Win32,60.24096386,1,1,5,0.38148151,-0.412963019,1,0,0,2.0505,Basalt_11,2,11,1,7,2.05,2,11,-0.362962935,-0.250925954,1,0,0,10.8656,Andesite_rect,1,10.866,0,4,0,4,0,1,,,,,,,,,,,,,
6630f086d4f678aaabebe3d9,SCR,2024-06-24_14h45.45.426,LearnStrategy,2023.2.3,Win32,60.24096386,1,1,6,-0.061111111,-0.261111111,1,0,0,1.2559,Obsidian_09,5,09,2,4,1.256,5,09,-0.420370356,-0.404629686,1,0,0,1.7011,Obsidian_rect,5,1.701,1,5,0,5,0,1,,,,,,,,,,,,,
6630f086d4f678aaabebe3d9,SCR,2024-06-24_14h45.45.426,LearnStrategy,2023.2.3,Win32,60.24096386,1,1,7,0.366666667,0.091666667,1,0,0,1.6337,Diorite_06,3,06,4,7,1.634,3,06,0.137963019,-0.40648151,1,0,0,9.3663,Peridotite_rect,7,9.366,0,6,0,6,0,1,,,,,,,,,,,,,
6630f086d4f678aaabebe3d9,SCR,2024-06-24_14h45.45.426,LearnStrategy,2023.2.3,Win32,60.24096386,1,1,8,-0.371296268,0.387962956,1,0,0,2.0915,Andesite_02,1,02,6,2,2.091,1,02,-0.365740712,-0.262037065,1,0,0,12.9748,Andesite_rect,1,12.975,1,7,0,7,0,1,,,,,,,,,,,,,
6630f086d4f678aaabebe3d9,SCR,2024-06-24_14h45.45.426,LearnStrategy,2023.2.3,Win32,60.24096386,1,1,9,-0.383333333,0.073148134,1,0,0,1.3335,Pegmatite_16,6,16,4,2,1.334,6,16,0.143518575,-0.411111111,1,0,0,6.7104,Peridotite_rect,7,6.71,0,8,0,8,0,1,,,,,,,,,,,,,
6630f086d4f678aaabebe3d9,SCR,2024-06-24_14h45.45.426,LearnStrategy,2023.2.3,Win32,60.24096386,1,1,10,0.084259288,-0.413888889,1,0,0,1.3337,Pumice_03,8,03,1,5,1.334,8,03,0.425,-0.418518575,1,0,0,15.3492,Pumice_rect,8,15.349,1,9,0,9,0,1,,,,,,,,,,,,,
6630f086d4f678aaabebe3d9,SCR,2024-06-24_14h45.45.426,LearnStrategy,2023.2.3,Win32,60.24096386,1,1,11,0.222222222,-0.082407422,1,0,0,1.3297,Gabbro_01,4,01,3,6,1.33,4,01,0.121296353,-0.251851908,1,0,0,13.4571,Diorite_rect,3,13.457,0,10,0,10,0,1,,,,,,,,,,,,,
6630f086d4f678aaabebe3d9,SCR,2024-06-24_14h45.45.426,LearnStrategy,2023.2.3,Win32,60.24096386,1,1,12,-0.427777778,-0.09629631,1,0,0,1.3064,Gabbro_13,4,13,3,2,1.306,4,13,0.183333333,-0.407407464,1,0,0,33.5232,Peridotite_rect,7,33.523,0,11,0,11,0,1,,,,,,,,,,,,,
6630f086d4f678aaabebe3d9,SCR,2024-06-24_14h45.45.426,LearnStrategy,2023.2.3,Win32,60.24096386,1,1,13,-0.387962935,-0.259259288,1,0,0,1.4081,Peridotite_02,7,02,2,2,1.408,7,02,0.152777778,-0.245370399,1,0,0,28.0894,Diorite_rect,3,28.089,0,12,0,12,0,1,,,,,,,,,,,,,
6630f086d4f678aaabebe3d9,SCR,2024-06-24_14h45.45.426,LearnStrategy,2023.2.3,Win32,60.24096386,1,1,14,-0.241666667,-0.412963019,1,0,0,1.1505,Diorite_13,3,13,1,3,1.15,3,13,-0.124074046,-0.393518575,1,0,0,33.3795,Pegmatite_rect,6,33.38,0,13,0,13,0,1,,,,,,,,,,,,,
6630f086d4f678aaabebe3d9,SCR,2024-06-24_14h45.45.426,LearnStrategy,2023.2.3,Win32,60.24096386,1,1,15,-0.558333333,-0.108333333,1,0,0,1.2002,Andesite_05,1,05,3,1,1.2,1,05,0.15,-0.248148176,1,0,0,19.9101,Diorite_rect,3,19.91,0,14,0,14,0,1,,,,,,,,,,,,,
6630f086d4f678aaabebe3d9,SCR,2024-06-24_14h45.45.426,LearnStrategy,2023.2.3,Win32,60.24096386,1,1,16,0.557407464,-0.395370399,1,0,0,1.4727,Peridotite_08,7,08,1,8,1.473,7,08,0.132407464,-0.411111111,1,0,0,11.4832,Peridotite_rect,7,11.483,1,15,0,15,0,1,,,,,,,,,,,,,
6630f086d4f678aaabebe3d9,SCR,2024-06-24_14h45.45.426,LearnStrategy,2023.2.3,Win32,60.24096386,1,2,1,,,,,,,,8,06,,,,,,,,,,,,,8,24.181,1,,,,,,0.401851908,-0.387963019,1,0,0,24.181,Pumice_rect,0,0,0,0,1,
6630f086d4f678aaabebe3d9,SCR,2024-06-24_14h45.45.426,LearnStrategy,2023.2.3,Win32,60.24096386,1,2,2,,,,,,,,6,05,,,,,,,,,,,,,6,5.219,1,,,,,,-0.16851849,-0.392592621,1,0,0,5.2189,Pegmatite_rect,1,0,1,0,1,
6630f086d4f678aaabebe3d9,SCR,2024-06-24_14h45.45.426,LearnStrategy,2023.2.3,Win32,60.24096386,1,2,3,,,,,,,,3,16,,,,,,,,,,,,,3,5.447,1,,,,,,0.079629686,-0.239814843,1,0,0,5.4471,Diorite_rect,2,0,2,0,1,
6630f086d4f678aaabebe3d9,SCR,2024-06-24_14h45.45.426,LearnStrategy,2023.2.3,Win32,60.24096386,1,2,4,,,,,,,,2,09,,,,,,,,,,,,,2,14.151,1,,,,,,-0.142592536,-0.254629686,1,0,0,14.1506,Basalt_rect,3,0,3,0,1,
6630f086d4f678aaabebe3d9,SCR,2024-06-24_14h45.45.426,LearnStrategy,2023.2.3,Win32,60.24096386,1,2,5,,,,,,,,5,05,,,,,,,,,,,,,5,9.635,1,,,,,,-0.379629601,-0.396296353,1,0,0,9.6345,Obsidian_rect,4,0,4,0,1,
6630f086d4f678aaabebe3d9,SCR,2024-06-24_14h45.45.426,LearnStrategy,2023.2.3,Win32,60.24096386,1,2,6,,,,,,,,7,10,,,,,,,,,,,,,4,15.077,0,,,,,,0.438888889,-0.254629686,1,0,0,15.0774,Gabbro_rect,5,0,5,0,1,
6630f086d4f678aaabebe3d9,SCR,2024-06-24_14h45.45.426,LearnStrategy,2023.2.3,Win32,60.24096386,1,2,7,,,,,,,,6,07,,,,,,,,,,,,,6,7.335,1,,,,,,-0.112962935,-0.390740797,1,0,0,7.335,Pegmatite_rect,6,0,6,0,1,
6630f086d4f678aaabebe3d9,SCR,2024-06-24_14h45.45.426,LearnStrategy,2023.2.3,Win32,60.24096386,1,2,8,,,,,,,,2,08,,,,,,,,,,,,,2,3.546,1,,,,,,-0.160185157,-0.25,1,0,0,3.5462,Basalt_rect,7,0,7,0,1,
6630f086d4f678aaabebe3d9,SCR,2024-06-24_14h45.45.426,LearnStrategy,2023.2.3,Win32,60.24096386,1,2,9,,,,,,,,4,03,,,,,,,,,,,,,3,4.746,0,,,,,,0.125,-0.252777778,1,0,0,4.7464,Diorite_rect,8,0,8,0,1,
6630f086d4f678aaabebe3d9,SCR,2024-06-24_14h45.45.426,LearnStrategy,2023.2.3,Win32,60.24096386,1,2,10,,,,,,,,1,16,,,,,,,,,,,,,1,6.102,1,,,,,,-0.376851824,-0.249074131,1,0,0,6.1022,Andesite_rect,9,0,9,0,1,
6630f086d4f678aaabebe3d9,SCR,2024-06-24_14h45.45.426,LearnStrategy,2023.2.3,Win32,60.24096386,1,2,11,,,,,,,,5,10,,,,,,,,,,,,,5,1.853,1,,,,,,-0.41851849,-0.417592621,1,0,0,1.8528,Obsidian_rect,10,0,10,0,1,
6630f086d4f678aaabebe3d9,SCR,2024-06-24_14h45.45.426,LearnStrategy,2023.2.3,Win32,60.24096386,1,2,12,,,,,,,,4,14,,,,,,,,,,,,,4,6.02,1,,,,,,0.35648151,-0.240740797,1,0,0,6.0198,Gabbro_rect,11,0,11,0,1,
6630f086d4f678aaabebe3d9,SCR,2024-06-24_14h45.45.426,LearnStrategy,2023.2.3,Win32,60.24096386,1,2,13,,,,,,,,7,04,,,,,,,,,,,,,7,5.052,1,,,,,,0.121296353,-0.407407464,1,0,0,5.0517,Peridotite_rect,12,0,12,0,1,
6630f086d4f678aaabebe3d9,SCR,2024-06-24_14h45.45.426,LearnStrategy,2023.2.3,Win32,60.24096386,1,2,14,,,,,,,,3,09,,,,,,,,,,,,,3,9.746,1,,,,,,0.163888889,-0.248148176,1,0,0,9.7457,Diorite_rect,13,0,13,0,1,
6630f086d4f678aaabebe3d9,SCR,2024-06-24_14h45.45.426,LearnStrategy,2023.2.3,Win32,60.24096386,1,2,15,,,,,,,,8,15,,,,,,,,,,,,,8,3.006,1,,,,,,0.361111111,-0.395370399,1,0,0,3.0064,Pumice_rect,14,0,14,0,1,
6630f086d4f678aaabebe3d9,SCR,2024-06-24_14h45.45.426,LearnStrategy,2023.2.3,Win32,60.24096386,1,2,16,,,,,,,,1,03,,,,,,,,,,,,,1,13.335,1,,,,,,-0.337962935,-0.262963019,1,0,0,13.3352,Andesite_rect,15,0,15,0,1,
6630f086d4f678aaabebe3d9,SCR,2024-06-24_14h45.45.426,LearnStrategy,2023.2.3,Win32,60.24096386,2,1,1,-0.237037023,0.241666667,1,0,0,2.531,Peridotite_15,7,15,5,3,2.531,7,15,0.176851908,-0.393518575,1,0,0,14.4517,Peridotite_rect,7,14.452,1,0,0,0,0,1,,,,,,,,,,,,,
6630f086d4f678aaabebe3d9,SCR,2024-06-24_14h45.45.426,LearnStrategy,2023.2.3,Win32,60.24096386,2,1,2,0.228703732,-0.089814843,1,0,0,1.2344,Gabbro_01,4,01,3,6,1.234,4,01,0.165740797,-0.416666667,1,0,0,10.517,Peridotite_rect,7,10.517,0,1,0,1,0,1,,,,,,,,,,,,,
6630f086d4f678aaabebe3d9,SCR,2024-06-24_14h45.45.426,LearnStrategy,2023.2.3,Win32,60.24096386,2,1,3,-0.064814758,0.112037023,1,0,0,0.9837,Peridotite_13,7,13,4,4,0.984,7,13,0.157407464,-0.402777778,1,0,0,8.7501,Peridotite_rect,7,8.75,1,2,0,2,0,1,,,,,,,,,,,,,
6630f086d4f678aaabebe3d9,SCR,2024-06-24_14h45.45.426,LearnStrategy,2023.2.3,Win32,60.24096386,2,1,4,-0.25,0.275925912,1,0,0,1.2649,Peridotite_15,7,15,5,3,1.265,7,15,0.164814843,-0.393518575,1,0,0,2.8523,Peridotite_rect,7,2.852,1,3,0,3,0,1,,,,,,,,,,,,,
6630f086d4f678aaabebe3d9,SCR,2024-06-24_14h45.45.426,LearnStrategy,2023.2.3,Win32,60.24096386,2,1,5,-0.549074067,0.383333333,1,0,0,1.5227,Gabbro_11,4,11,6,1,1.523,4,11,-0.145370314,-0.255555556,1,0,0,19.0651,Basalt_rect,2,19.065,0,4,0,4,0,1,,,,,,,,,,,,,
6630f086d4f678aaabebe3d9,SCR,2024-06-24_14h45.45.426,LearnStrategy,2023.2.3,Win32,60.24096386,2,1,6,-0.376851824,0.092592578,1,0,0,1.1156,Pegmatite_16,6,16,4,2,1.116,6,16,-0.140740712,-0.4,1,0,0,9.4243,Pegmatite_rect,6,9.424,1,5,0,5,0,1,,,,,,,,,,,,,
6630f086d4f678aaabebe3d9,SCR,2024-06-24_14h45.45.426,LearnStrategy,2023.2.3,Win32,60.24096386,2,1,7,-0.216666667,-0.432407464,1,0,0,1.1175,Diorite_13,3,13,1,3,1.118,3,13,0.159259288,-0.233333333,1,0,0,9.128,Diorite_rect,3,9.128,1,6,0,6,0,1,,,,,,,,,,,,,
6630f086d4f678aaabebe3d9,SCR,2024-06-24_14h45.45.426,LearnStrategy,2023.2.3,Win32,60.24096386,2,1,8,0.094444444,-0.420370399,1,0,0,1.0651,Pumice_03,8,03,1,5,1.065,8,03,0.407407464,-0.402777778,1,0,0,1.0257,Pumice_rect,8,1.026,1,7,0,7,0,1,,,,,,,,,,,,,
6630f086d4f678aaabebe3d9,SCR,2024-06-24_14h45.45.426,LearnStrategy,2023.2.3,Win32,60.24096386,2,1,9,0.582407464,0.07870369,1,0,0,1.5141,Andesite_06,1,06,4,8,1.514,1,06,-0.337962935,-0.250925954,1,0,0,26.7833,Andesite_rect,1,26.783,1,8,0,8,0,1,,,,,,,,,,,,,
6630f086d4f678aaabebe3d9,SCR,2024-06-24_14h45.45.426,LearnStrategy,2023.2.3,Win32,60.24096386,2,1,10,-0.058333333,0.085185157,1,0,0,0.884,Peridotite_13,7,13,4,4,0.884,7,13,0.128703732,-0.392592621,1,0,0,7.367,Peridotite_rect,7,7.367,1,9,0,9,0,1,,,,,,,,,,,,,
6630f086d4f678aaabebe3d9,SCR,2024-06-24_14h45.45.426,LearnStrategy,2023.2.3,Win32,60.24096386,2,1,11,-0.406481467,-0.116666667,1,0,0,0.9656,Gabbro_13,4,13,3,2,0.966,4,13,0.373148176,-0.262963019,1,0,0,11.9506,Gabbro_rect,4,11.951,1,10,0,10,0,1,,,,,,,,,,,,,
6630f086d4f678aaabebe3d9,SCR,2024-06-24_14h45.45.426,LearnStrategy,2023.2.3,Win32,60.24096386,2,1,12,0.110185242,-0.248148176,1,0,0,0.9844,Obsidian_07,5,07,2,5,0.984,5,07,-0.350925912,-0.389814843,1,0,0,21.78,Obsidian_rect,5,21.78,1,11,0,11,0,1,,,,,,,,,,,,,
6630f086d4f678aaabebe3d9,SCR,2024-06-24_14h45.45.426,LearnStrategy,2023.2.3,Win32,60.24096386,2,1,13,0.075925954,0.275,1,0,0,1.2009,Gabbro_15,4,15,5,5,1.201,4,15,0.121296353,-0.254629686,1,0,0,15.8158,Diorite_rect,3,15.816,0,12,0,12,0,1,,,,,,,,,,,,,
6630f086d4f678aaabebe3d9,SCR,2024-06-24_14h45.45.426,LearnStrategy,2023.2.3,Win32,60.24096386,2,1,14,0.077777778,0.227777778,1,0,0,1.2345,Gabbro_15,4,15,5,5,1.235,4,15,0.397222222,-0.259259288,1,0,0,2.9848,Gabbro_rect,4,2.985,1,13,0,13,0,1,,,,,,,,,,,,,
6630f086d4f678aaabebe3d9,SCR,2024-06-24_14h45.45.426,LearnStrategy,2023.2.3,Win32,60.24096386,2,1,15,-0.394444444,-0.404629686,1,0,0,1.3505,Basalt_14,2,14,1,2,1.351,2,14,0.415740797,-0.261111111,1,0,0,6.6795,Gabbro_rect,4,6.679,0,14,0,14,0,1,,,,,,,,,,,,,
6630f086d4f678aaabebe3d9,SCR,2024-06-24_14h45.45.426,LearnStrategy,2023.2.3,Win32,60.24096386,2,1,16,-0.232407379,0.262037023,1,0,0,1.301,Peridotite_15,7,15,5,3,1.301,7,15,0.1,-0.407407464,1,0,0,10.0781,Peridotite_rect,7,10.078,1,15,0,15,0,1,,,,,,,,,,,,,
6630f086d4f678aaabebe3d9,SCR,2024-06-24_14h45.45.426,LearnStrategy,2023.2.3,Win32,60.24096386,2,2,1,,,,,,,,1,14,,,,,,,,,,,,,1,21.99,1,,,,,,-0.346296268,-0.228703732,1,0,0,21.99,Andesite_rect,0,0,0,0,1,
6630f086d4f678aaabebe3d9,SCR,2024-06-24_14h45.45.426,LearnStrategy,2023.2.3,Win32,60.24096386,2,2,2,,,,,,,,1,11,,,,,,,,,,,,,2,18.032,0,,,,,,-0.102777778,-0.25648151,1,0,0,18.0321,Basalt_rect,1,0,1,0,1,
6630f086d4f678aaabebe3d9,SCR,2024-06-24_14h45.45.426,LearnStrategy,2023.2.3,Win32,60.24096386,2,2,3,,,,,,,,3,12,,,,,,,,,,,,,3,3.996,1,,,,,,0.151851908,-0.243518575,1,0,0,3.9959,Diorite_rect,2,0,2,0,1,
6630f086d4f678aaabebe3d9,SCR,2024-06-24_14h45.45.426,LearnStrategy,2023.2.3,Win32,60.24096386,2,2,4,,,,,,,,4,08,,,,,,,,,,,,,4,26.548,1,,,,,,0.350925954,-0.242592621,1,0,0,26.5484,Gabbro_rect,3,0,3,0,1,
6630f086d4f678aaabebe3d9,SCR,2024-06-24_14h45.45.426,LearnStrategy,2023.2.3,Win32,60.24096386,2,2,5,,,,,,,,3,11,,,,,,,,,,,,,4,17.733,0,,,,,,0.398148176,-0.252777778,1,0,0,17.7332,Gabbro_rect,4,0,4,0,1,
6630f086d4f678aaabebe3d9,SCR,2024-06-24_14h45.45.426,LearnStrategy,2023.2.3,Win32,60.24096386,2,2,6,,,,,,,,5,08,,,,,,,,,,,,,5,2.302,1,,,,,,-0.367592578,-0.398148176,1,0,0,2.3022,Obsidian_rect,5,0,5,0,1,
6630f086d4f678aaabebe3d9,SCR,2024-06-24_14h45.45.426,LearnStrategy,2023.2.3,Win32,60.24096386,2,2,7,,,,,,,,6,13,,,,,,,,,,,,,3,6.759,0,,,,,,0.097222222,-0.246296353,1,0,0,6.7587,Diorite_rect,6,0,6,0,1,
6630f086d4f678aaabebe3d9,SCR,2024-06-24_14h45.45.426,LearnStrategy,2023.2.3,Win32,60.24096386,2,2,8,,,,,,,,8,04,,,,,,,,,,,,,8,2.084,1,,,,,,0.437037065,-0.407407464,1,0,0,2.0842,Pumice_rect,7,0,7,0,1,
6630f086d4f678aaabebe3d9,SCR,2024-06-24_14h45.45.426,LearnStrategy,2023.2.3,Win32,60.24096386,2,2,9,,,,,,,,4,10,,,,,,,,,,,,,2,20.667,0,,,,,,-0.127777778,-0.237963019,1,0,0,20.6668,Basalt_rect,8,0,8,0,1,
6630f086d4f678aaabebe3d9,SCR,2024-06-24_14h45.45.426,LearnStrategy,2023.2.3,Win32,60.24096386,2,2,10,,,,,,,,5,11,,,,,,,,,,,,,5,1.286,1,,,,,,-0.375,-0.394444444,1,0,0,1.2857,Obsidian_rect,9,0,9,0,1,
6630f086d4f678aaabebe3d9,SCR,2024-06-24_14h45.45.426,LearnStrategy,2023.2.3,Win32,60.24096386,2,2,11,,,,,,,,6,03,,,,,,,,,,,,,6,4.46,1,,,,,,-0.117592536,-0.40648151,1,0,0,4.4598,Pegmatite_rect,10,0,10,0,1,
6630f086d4f678aaabebe3d9,SCR,2024-06-24_14h45.45.426,LearnStrategy,2023.2.3,Win32,60.24096386,2,2,12,,,,,,,,7,07,,,,,,,,,,,,,7,13.299,1,,,,,,0.122222222,-0.401851908,1,0,0,13.2987,Peridotite_rect,11,0,11,0,1,
6630f086d4f678aaabebe3d9,SCR,2024-06-24_14h45.45.426,LearnStrategy,2023.2.3,Win32,60.24096386,2,2,13,,,,,,,,7,12,,,,,,,,,,,,,7,5.584,1,,,,,,0.122222222,-0.401851908,1,0,0,5.5844,Peridotite_rect,12,0,12,0,1,
6630f086d4f678aaabebe3d9,SCR,2024-06-24_14h45.45.426,LearnStrategy,2023.2.3,Win32,60.24096386,2,2,14,,,,,,,,2,10,,,,,,,,,,,,,4,11.152,0,,,,,,0.383333333,-0.228703732,1,0,0,11.1517,Gabbro_rect,13,0,13,0,1,
6630f086d4f678aaabebe3d9,SCR,2024-06-24_14h45.45.426,LearnStrategy,2023.2.3,Win32,60.24096386,2,2,15,,,,,,,,8,14,,,,,,,,,,,,,8,1.635,1,,,,,,0.377777778,-0.390740797,1,0,0,1.6352,Pumice_rect,14,0,14,0,1,
6630f086d4f678aaabebe3d9,SCR,2024-06-24_14h45.45.426,LearnStrategy,2023.2.3,Win32,60.24096386,2,2,16,,,,,,,,2,05,,,,,,,,,,,,,2,9.474,1,,,,,,-0.105555556,-0.259259288,1,0,0,9.4743,Basalt_rect,15,0,15,0,1,
6630f086d4f678aaabebe3d9,SCR,2024-06-24_14h45.45.426,LearnStrategy,2023.2.3,Win32,60.24096386,3,1,1,-0.586111111,0.402777778,1,0,0,2.0653,Gabbro_11,4,11,6,1,2.065,4,11,0.417592621,-0.270370399,1,0,0,4.3081,Gabbro_rect,4,4.308,1,0,0,0,0,1,,,,,,,,,,,,,
6630f086d4f678aaabebe3d9,SCR,2024-06-24_14h45.45.426,LearnStrategy,2023.2.3,Win32,60.24096386,3,1,2,0.4,-0.396296353,1,0,0,1.2511,Basalt_11,2,11,1,7,1.251,2,11,0.384259288,-0.262037065,1,0,0,5.1296,Gabbro_rect,4,5.13,0,1,0,1,0,1,,,,,,,,,,,,,
6630f086d4f678aaabebe3d9,SCR,2024-06-24_14h45.45.426,LearnStrategy,2023.2.3,Win32,60.24096386,3,1,3,0.086111111,-0.095370399,1,0,0,0.9836,Basalt_06,2,06,3,5,0.984,2,06,0.383333333,-0.246296353,1,0,0,2.8501,Gabbro_rect,4,2.85,0,2,0,2,0,1,,,,,,,,,,,,,
6630f086d4f678aaabebe3d9,SCR,2024-06-24_14h45.45.426,LearnStrategy,2023.2.3,Win32,60.24096386,3,1,4,0.363888889,0.436111111,1,0,0,1.3504,Pegmatite_06,6,06,6,7,1.35,6,06,0.397222222,-0.246296353,1,0,0,16.4937,Gabbro_rect,4,16.494,0,3,0,3,0,1,,,,,,,,,,,,,
6630f086d4f678aaabebe3d9,SCR,2024-06-24_14h45.45.426,LearnStrategy,2023.2.3,Win32,60.24096386,3,1,5,0.240740797,0.091666667,1,0,0,0.9673,Andesite_01,1,01,4,6,0.967,1,01,-0.412037023,-0.248148176,1,0,0,11.3498,Andesite_rect,1,11.35,1,4,0,4,0,1,,,,,,,,,,,,,
6630f086d4f678aaabebe3d9,SCR,2024-06-24_14h45.45.426,LearnStrategy,2023.2.3,Win32,60.24096386,3,1,6,-0.21851849,0.05,1,0,0,1.2734,Diorite_14,3,14,4,3,1.273,3,14,-0.392592578,-0.262963019,1,0,0,6.9502,Andesite_rect,1,6.95,0,5,0,5,0,1,,,,,,,,,,,,,
6630f086d4f678aaabebe3d9,SCR,2024-06-24_14h45.45.426,LearnStrategy,2023.2.3,Win32,60.24096386,3,1,7,0.253703732,-0.128703732,1,0,0,0.9178,Gabbro_01,4,01,3,6,0.918,4,01,0.353703732,-0.25648151,1,0,0,15.3267,Gabbro_rect,4,15.327,1,6,0,6,0,1,,,,,,,,,,,,,
6630f086d4f678aaabebe3d9,SCR,2024-06-24_14h45.45.426,LearnStrategy,2023.2.3,Win32,60.24096386,3,1,8,-0.576851845,-0.296296353,1,0,0,1.0174,Peridotite_05,7,05,2,1,1.017,7,05,0.115740797,-0.398148176,1,0,0,17.0151,Peridotite_rect,7,17.015,1,7,0,7,0,1,,,,,,,,,,,,,
6630f086d4f678aaabebe3d9,SCR,2024-06-24_14h45.45.426,LearnStrategy,2023.2.3,Win32,60.24096386,3,1,9,0.222222222,-0.090740755,1,0,0,1.1013,Gabbro_01,4,01,3,6,1.101,4,01,0.143518575,-0.245370399,1,0,0,9.4114,Diorite_rect,3,9.411,0,8,0,8,0,1,,,,,,,,,,,,,
6630f086d4f678aaabebe3d9,SCR,2024-06-24_14h45.45.426,LearnStrategy,2023.2.3,Win32,60.24096386,3,1,10,0.55,-0.099074088,1,0,0,1.4,Pegmatite_10,6,10,3,8,1.4,6,10,-0.115740712,-0.404629686,1,0,0,13.0321,Pegmatite_rect,6,13.032,1,9,0,9,0,1,,,,,,,,,,,,,
6630f086d4f678aaabebe3d9,SCR,2024-06-24_14h45.45.426,LearnStrategy,2023.2.3,Win32,60.24096386,3,1,11,0.245370399,-0.259259288,1,0,0,1.0497,Basalt_12,2,12,2,6,1.05,2,12,-0.122222222,-0.248148176,1,0,0,6.0341,Basalt_rect,2,6.034,1,10,0,10,0,1,,,,,,,,,,,,,
6630f086d4f678aaabebe3d9,SCR,2024-06-24_14h45.45.426,LearnStrategy,2023.2.3,Win32,60.24096386,3,1,12,0.079629686,0.262962956,1,0,0,1.0846,Gabbro_15,4,15,5,5,1.085,4,15,0.405555556,-0.244444444,1,0,0,16.7823,Gabbro_rect,4,16.782,1,11,0,11,0,1,,,,,,,,,,,,,
6630f086d4f678aaabebe3d9,SCR,2024-06-24_14h45.45.426,LearnStrategy,2023.2.3,Win32,60.24096386,3,1,13,-0.552777778,-0.100925954,1,0,0,0.9812,Andesite_05,1,05,3,1,0.981,1,05,-0.387962935,-0.269444444,1,0,0,10.2575,Andesite_rect,1,10.258,1,12,0,12,0,1,,,,,,,,,,,,,
6630f086d4f678aaabebe3d9,SCR,2024-06-24_14h45.45.426,LearnStrategy,2023.2.3,Win32,60.24096386,3,1,14,-0.233333333,-0.412037065,1,0,0,1.366,Diorite_13,3,13,1,3,1.366,3,13,0.172222222,-0.254629686,1,0,0,24.4334,Diorite_rect,3,24.433,1,13,0,13,0,1,,,,,,,,,,,,,
6630f086d4f678aaabebe3d9,SCR,2024-06-24_14h45.45.426,LearnStrategy,2023.2.3,Win32,60.24096386,3,1,15,0.40648151,-0.260185242,1,0,0,1.4342,Pumice_08,8,08,2,7,1.434,8,08,-0.125,-0.247222222,1,0,0,4.1155,Basalt_rect,2,4.116,0,14,0,14,0,1,,,,,,,,,,,,,
6630f086d4f678aaabebe3d9,SCR,2024-06-24_14h45.45.426,LearnStrategy,2023.2.3,Win32,60.24096386,3,1,16,0.098148176,-0.252777778,1,0,0,0.9062,Obsidian_07,5,07,2,5,0.906,5,07,-0.112962935,-0.395370399,1,0,0,8.0829,Pegmatite_rect,6,8.083,0,15,0,15,0,1,,,,,,,,,,,,,
6630f086d4f678aaabebe3d9,SCR,2024-06-24_14h45.45.426,LearnStrategy,2023.2.3,Win32,60.24096386,3,2,1,,,,,,,,3,10,,,,,,,,,,,,,3,44.288,1,,,,,,0.155555556,-0.243518575,1,0,0,44.2875,Diorite_rect,0,0,0,0,1,
6630f086d4f678aaabebe3d9,SCR,2024-06-24_14h45.45.426,LearnStrategy,2023.2.3,Win32,60.24096386,3,2,2,,,,,,,,1,07,,,,,,,,,,,,,3,12.863,0,,,,,,0.136111111,-0.252777778,1,0,0,12.8627,Diorite_rect,1,0,1,0,1,
6630f086d4f678aaabebe3d9,SCR,2024-06-24_14h45.45.426,LearnStrategy,2023.2.3,Win32,60.24096386,3,2,3,,,,,,,,1,09,,,,,,,,,,,,,2,6.685,0,,,,,,-0.106481425,-0.250925954,1,0,0,6.6854,Basalt_rect,2,0,2,0,1,
6630f086d4f678aaabebe3d9,SCR,2024-06-24_14h45.45.426,LearnStrategy,2023.2.3,Win32,60.24096386,3,2,4,,,,,,,,7,06,,,,,,,,,,,,,6,2.503,0,,,,,,-0.11851849,-0.402777778,1,0,0,2.5029,Pegmatite_rect,3,0,3,0,1,
6630f086d4f678aaabebe3d9,SCR,2024-06-24_14h45.45.426,LearnStrategy,2023.2.3,Win32,60.24096386,3,2,5,,,,,,,,6,08,,,,,,,,,,,,,6,2.153,1,,,,,,-0.113888889,-0.405555556,1,0,0,2.1529,Pegmatite_rect,4,0,4,0,1,
6630f086d4f678aaabebe3d9,SCR,2024-06-24_14h45.45.426,LearnStrategy,2023.2.3,Win32,60.24096386,3,2,6,,,,,,,,2,02,,,,,,,,,,,,,2,6.509,1,,,,,,-0.137036981,-0.247222222,1,0,0,6.5087,Basalt_rect,5,0,5,0,1,
6630f086d4f678aaabebe3d9,SCR,2024-06-24_14h45.45.426,LearnStrategy,2023.2.3,Win32,60.24096386,3,2,7,,,,,,,,8,10,,,,,,,,,,,,,8,3.083,1,,,,,,0.38148151,-0.384259288,1,0,0,3.0834,Pumice_rect,6,0,6,0,1,
6630f086d4f678aaabebe3d9,SCR,2024-06-24_14h45.45.426,LearnStrategy,2023.2.3,Win32,60.24096386,3,2,8,,,,,,,,4,16,,,,,,,,,,,,,4,1.87,1,,,,,,0.361111111,-0.243518575,1,0,0,1.8696,Gabbro_rect,7,0,7,0,1,
6630f086d4f678aaabebe3d9,SCR,2024-06-24_14h45.45.426,LearnStrategy,2023.2.3,Win32,60.24096386,3,2,9,,,,,,,,5,04,,,,,,,,,,,,,5,1.355,1,,,,,,-0.415740712,-0.397222222,1,0,0,1.3549,Obsidian_rect,8,0,8,0,1,
6630f086d4f678aaabebe3d9,SCR,2024-06-24_14h45.45.426,LearnStrategy,2023.2.3,Win32,60.24096386,3,2,10,,,,,,,,4,05,,,,,,,,,,,,,4,3.756,1,,,,,,0.396296353,-0.248148176,1,0,0,3.7564,Gabbro_rect,9,0,9,0,1,
6630f086d4f678aaabebe3d9,SCR,2024-06-24_14h45.45.426,LearnStrategy,2023.2.3,Win32,60.24096386,3,2,11,,,,,,,,8,02,,,,,,,,,,,,,8,1.537,1,,,,,,0.400925954,-0.4,1,0,0,1.5369,Pumice_rect,10,0,10,0,1,
6630f086d4f678aaabebe3d9,SCR,2024-06-24_14h45.45.426,LearnStrategy,2023.2.3,Win32,60.24096386,3,2,12,,,,,,,,3,08,,,,,,,,,,,,,1,6.484,0,,,,,,-0.35,-0.253703732,1,0,0,6.4835,Andesite_rect,11,0,11,0,1,
6630f086d4f678aaabebe3d9,SCR,2024-06-24_14h45.45.426,LearnStrategy,2023.2.3,Win32,60.24096386,3,2,13,,,,,,,,6,09,,,,,,,,,,,,,6,2.502,1,,,,,,-0.186111111,-0.400925954,1,0,0,2.5018,Pegmatite_rect,12,0,12,0,1,
6630f086d4f678aaabebe3d9,SCR,2024-06-24_14h45.45.426,LearnStrategy,2023.2.3,Win32,60.24096386,3,2,14,,,,,,,,2,16,,,,,,,,,,,,,2,17.042,1,,,,,,-0.089814758,-0.260185242,1,0,0,17.0421,Basalt_rect,13,0,13,0,1,
6630f086d4f678aaabebe3d9,SCR,2024-06-24_14h45.45.426,LearnStrategy,2023.2.3,Win32,60.24096386,3,2,15,,,,,,,,7,14,,,,,,,,,,,,,3,15.016,0,,,,,,0.135185242,-0.262963019,1,0,0,15.0163,Diorite_rect,14,0,14,0,1,
6630f086d4f678aaabebe3d9,SCR,2024-06-24_14h45.45.426,LearnStrategy,2023.2.3,Win32,60.24096386,3,2,16,,,,,,,,5,12,,,,,,,,,,,,,5,1.503,1,,,,,,-0.360185157,-0.411111111,1,0,0,1.5028,Obsidian_rect,15,0,15,0,1,
6630f086d4f678aaabebe3d9,SCR,2024-06-24_14h45.45.426,LearnStrategy,2023.2.3,Win32,60.24096386,4,1,1,0.228703732,0.396296289,1,0,0,2.8468,Andesite_04,1,04,6,6,2.847,1,04,-0.380555556,-0.255555556,1,0,0,12.4619,Andesite_rect,1,12.462,1,0,0,0,0,1,,,,,,,,,,,,,
6630f086d4f678aaabebe3d9,SCR,2024-06-24_14h45.45.426,LearnStrategy,2023.2.3,Win32,60.24096386,4,1,2,0.393518575,0.271296289,1,0,0,1.3481,Pegmatite_12,6,12,5,7,1.348,6,12,0.122222222,-0.251851908,1,0,0,11.2028,Diorite_rect,3,11.203,0,1,0,1,0,1,,,,,,,,,,,,,
6630f086d4f678aaabebe3d9,SCR,2024-06-24_14h45.45.426,LearnStrategy,2023.2.3,Win32,60.24096386,4,1,3,0.501851908,0.087962935,1,0,0,1.2153,Andesite_06,1,06,4,8,1.215,1,06,-0.128703647,-0.246296353,1,0,0,5.2583,Basalt_rect,2,5.258,0,2,0,2,0,1,,,,,,,,,,,,,
6630f086d4f678aaabebe3d9,SCR,2024-06-24_14h45.45.426,LearnStrategy,2023.2.3,Win32,60.24096386,4,1,4,0.262963019,0.258333333,1,0,0,1.038,Peridotite_16,7,16,5,6,1.038,7,16,0.129629686,-0.241666667,1,0,0,3.1817,Diorite_rect,3,3.182,0,3,0,3,0,1,,,,,,,,,,,,,
6630f086d4f678aaabebe3d9,SCR,2024-06-24_14h45.45.426,LearnStrategy,2023.2.3,Win32,60.24096386,4,1,5,0.237037065,-0.398148176,1,0,0,1.517,Diorite_15,3,15,1,6,1.517,3,15,-0.352777778,-0.257407464,1,0,0,13.4827,Andesite_rect,1,13.483,0,4,0,4,0,1,,,,,,,,,,,,,
6630f086d4f678aaabebe3d9,SCR,2024-06-24_14h45.45.426,LearnStrategy,2023.2.3,Win32,60.24096386,4,1,6,-0.523148134,0.089814801,1,0,0,1.0014,Basalt_01,2,01,4,1,1.001,2,01,-0.164814758,-0.237037065,1,0,0,16.2107,Basalt_rect,2,16.211,1,5,0,5,0,1,,,,,,,,,,,,,
6630f086d4f678aaabebe3d9,SCR,2024-06-24_14h45.45.426,LearnStrategy,2023.2.3,Win32,60.24096386,4,1,7,-0.062962935,0.1,1,0,0,1.1511,Peridotite_13,7,13,4,4,1.151,7,13,0.133333333,-0.25,1,0,0,2.7681,Diorite_rect,3,2.768,0,6,0,6,0,1,,,,,,,,,,,,,
6630f086d4f678aaabebe3d9,SCR,2024-06-24_14h45.45.426,LearnStrategy,2023.2.3,Win32,60.24096386,4,1,8,-0.233333333,-0.436111111,1,0,0,1.1178,Diorite_13,3,13,1,3,1.118,3,13,0.145370399,-0.257407464,1,0,0,17.5322,Diorite_rect,3,17.532,1,7,0,7,0,1,,,,,,,,,,,,,
6630f086d4f678aaabebe3d9,SCR,2024-06-24_14h45.45.426,LearnStrategy,2023.2.3,Win32,60.24096386,4,1,9,0.213888889,0.399074067,1,0,0,1.2847,Andesite_04,1,04,6,6,1.285,1,04,-0.362962935,-0.265740797,1,0,0,20.7145,Andesite_rect,1,20.715,1,8,0,8,0,1,,,,,,,,,,,,,
6630f086d4f678aaabebe3d9,SCR,2024-06-24_14h45.45.426,LearnStrategy,2023.2.3,Win32,60.24096386,4,1,10,0.533333333,0.409259256,1,0,0,1.3552,Diorite_07,3,07,6,8,1.355,3,07,0.15,-0.255555556,1,0,0,4.2351,Diorite_rect,3,4.235,1,9,0,9,0,1,,,,,,,,,,,,,
6630f086d4f678aaabebe3d9,SCR,2024-06-24_14h45.45.426,LearnStrategy,2023.2.3,Win32,60.24096386,4,1,11,0.080555556,-0.072222222,1,0,0,0.9155,Basalt_06,2,06,3,5,0.916,2,06,-0.117592536,-0.246296353,1,0,0,4.5552,Basalt_rect,2,4.555,1,10,0,10,0,1,,,,,,,,,,,,,
6630f086d4f678aaabebe3d9,SCR,2024-06-24_14h45.45.426,LearnStrategy,2023.2.3,Win32,60.24096386,4,1,12,0.386111111,-0.075,1,0,0,1.1306,Andesite_10,1,10,3,7,1.131,1,10,-0.399074046,-0.249074131,1,0,0,3.8757,Andesite_rect,1,3.876,1,11,0,11,0,1,,,,,,,,,,,,,
6630f086d4f678aaabebe3d9,SCR,2024-06-24_14h45.45.426,LearnStrategy,2023.2.3,Win32,60.24096386,4,1,13,-0.210185157,0.237037023,1,0,0,1.0903,Peridotite_15,7,15,5,3,1.09,7,15,0.122222222,-0.255555556,1,0,0,3.8841,Diorite_rect,3,3.884,0,12,0,12,0,1,,,,,,,,,,,,,
6630f086d4f678aaabebe3d9,SCR,2024-06-24_14h45.45.426,LearnStrategy,2023.2.3,Win32,60.24096386,4,1,14,-0.256481467,0.433333333,1,0,0,1.2068,Pumice_05,8,05,6,3,1.207,8,05,0.372222222,-0.407407464,1,0,0,1.6176,Pumice_rect,8,1.618,1,13,0,13,0,1,,,,,,,,,,,,,
6630f086d4f678aaabebe3d9,SCR,2024-06-24_14h45.45.426,LearnStrategy,2023.2.3,Win32,60.24096386,4,1,15,0.078703732,0.268518511,1,0,0,1.0479,Gabbro_15,4,15,5,5,1.048,4,15,0.166666667,-0.261111111,1,0,0,9.3581,Diorite_rect,3,9.358,0,14,0,14,0,1,,,,,,,,,,,,,
6630f086d4f678aaabebe3d9,SCR,2024-06-24_14h45.45.426,LearnStrategy,2023.2.3,Win32,60.24096386,4,1,16,0.080555556,0.218518511,1,0,0,1.2679,Gabbro_15,4,15,5,5,1.268,4,15,0.437963019,-0.253703732,1,0,0,1.3512,Gabbro_rect,4,1.351,1,15,0,15,0,1,,,,,,,,,,,,,
6630f086d4f678aaabebe3d9,SCR,2024-06-24_14h45.45.426,LearnStrategy,2023.2.3,Win32,60.24096386,4,2,1,,,,,,,,1,03,,,,,,,,,,,,,1,5.976,1,,,,,,-0.371296268,-0.25,1,0,0,5.9756,Andesite_rect,0,0,0,0,1,
6630f086d4f678aaabebe3d9,SCR,2024-06-24_14h45.45.426,LearnStrategy,2023.2.3,Win32,60.24096386,4,2,2,,,,,,,,6,07,,,,,,,,,,,,,6,2.78,1,,,,,,-0.123148092,-0.395370399,1,0,0,2.7802,Pegmatite_rect,1,0,1,0,1,
6630f086d4f678aaabebe3d9,SCR,2024-06-24_14h45.45.426,LearnStrategy,2023.2.3,Win32,60.24096386,4,2,3,,,,,,,,5,11,,,,,,,,,,,,,5,1.022,1,,,,,,-0.345370356,-0.4,1,0,0,1.0223,Obsidian_rect,2,0,2,0,1,
6630f086d4f678aaabebe3d9,SCR,2024-06-24_14h45.45.426,LearnStrategy,2023.2.3,Win32,60.24096386,4,2,4,,,,,,,,3,12,,,,,,,,,,,,,3,13.242,1,,,,,,0.129629686,-0.264814843,1,0,0,13.242,Diorite_rect,3,0,3,0,1,
6630f086d4f678aaabebe3d9,SCR,2024-06-24_14h45.45.426,LearnStrategy,2023.2.3,Win32,60.24096386,4,2,5,,,,,,,,8,10,,,,,,,,,,,,,8,2.054,1,,,,,,0.414814843,-0.403703732,1,0,0,2.0545,Pumice_rect,4,0,4,0,1,
6630f086d4f678aaabebe3d9,SCR,2024-06-24_14h45.45.426,LearnStrategy,2023.2.3,Win32,60.24096386,4,2,6,,,,,,,,6,13,,,,,,,,,,,,,6,2.859,1,,,,,,-0.109259203,-0.409259288,1,0,0,2.8585,Pegmatite_rect,5,0,5,0,1,
6630f086d4f678aaabebe3d9,SCR,2024-06-24_14h45.45.426,LearnStrategy,2023.2.3,Win32,60.24096386,4,2,7,,,,,,,,1,07,,,,,,,,,,,,,1,3.975,1,,,,,,-0.333333333,-0.264814843,1,0,0,3.9754,Andesite_rect,6,0,6,0,1,
6630f086d4f678aaabebe3d9,SCR,2024-06-24_14h45.45.426,LearnStrategy,2023.2.3,Win32,60.24096386,4,2,8,,,,,,,,2,05,,,,,,,,,,,,,2,4.253,1,,,,,,-0.110185157,-0.252777778,1,0,0,4.2529,Basalt_rect,7,0,7,0,1,
6630f086d4f678aaabebe3d9,SCR,2024-06-24_14h45.45.426,LearnStrategy,2023.2.3,Win32,60.24096386,4,2,9,,,,,,,,4,03,,,,,,,,,,,,,4,1.924,1,,,,,,0.379629686,-0.255555556,1,0,0,1.9239,Gabbro_rect,8,0,8,0,1,
6630f086d4f678aaabebe3d9,SCR,2024-06-24_14h45.45.426,LearnStrategy,2023.2.3,Win32,60.24096386,4,2,10,,,,,,,,8,06,,,,,,,,,,,,,8,1.527,1,,,,,,0.362037065,-0.394444444,1,0,0,1.5267,Pumice_rect,9,0,9,0,1,
6630f086d4f678aaabebe3d9,SCR,2024-06-24_14h45.45.426,LearnStrategy,2023.2.3,Win32,60.24096386,4,2,11,,,,,,,,7,12,,,,,,,,,,,,,3,1.81,0,,,,,,0.150925954,-0.258333333,1,0,0,1.8102,Diorite_rect,10,0,10,0,1,
6630f086d4f678aaabebe3d9,SCR,2024-06-24_14h45.45.426,LearnStrategy,2023.2.3,Win32,60.24096386,4,2,12,,,,,,,,7,14,,,,,,,,,,,,,7,2.443,1,,,,,,0.100925954,-0.399074131,1,0,0,2.4432,Peridotite_rect,11,0,11,0,1,
6630f086d4f678aaabebe3d9,SCR,2024-06-24_14h45.45.426,LearnStrategy,2023.2.3,Win32,60.24096386,4,2,13,,,,,,,,2,02,,,,,,,,,,,,,2,1.536,1,,,,,,-0.105555556,-0.249074131,1,0,0,1.5363,Basalt_rect,12,0,12,0,1,
6630f086d4f678aaabebe3d9,SCR,2024-06-24_14h45.45.426,LearnStrategy,2023.2.3,Win32,60.24096386,4,2,14,,,,,,,,3,08,,,,,,,,,,,,,1,2.145,0,,,,,,-0.360185157,-0.251851908,1,0,0,2.1446,Andesite_rect,13,0,13,0,1,
6630f086d4f678aaabebe3d9,SCR,2024-06-24_14h45.45.426,LearnStrategy,2023.2.3,Win32,60.24096386,4,2,15,,,,,,,,5,10,,,,,,,,,,,,,5,1.227,1,,,,,,-0.388888889,-0.399074131,1,0,0,1.2269,Obsidian_rect,14,0,14,0,1,
6630f086d4f678aaabebe3d9,SCR,2024-06-24_14h45.45.426,LearnStrategy,2023.2.3,Win32,60.24096386,4,2,16,,,,,,,,4,14,,,,,,,,,,,,,4,2.527,1,,,,,,0.357407464,-0.230555556,1,0,0,2.5269,Gabbro_rect,15,0,15,0,1,
6630f086d4f678aaabebe3d9,SCR,2024-06-24_14h45.45.426,LearnStrategy,2023.2.3,Win32,60.24096386,5,1,1,0.245370399,0.112037023,1,0,0,1.2248,Andesite_01,1,01,4,6,1.225,1,01,-0.40370369,-0.252777778,1,0,0,19.3087,Andesite_rect,1,19.309,1,0,0,0,0,1,,,,,,,,,,,,,
6630f086d4f678aaabebe3d9,SCR,2024-06-24_14h45.45.426,LearnStrategy,2023.2.3,Win32,60.24096386,5,1,2,-0.5574074,-0.261111111,1,0,0,0.9532,Peridotite_05,7,05,2,1,0.953,7,05,0.111111111,-0.257407464,1,0,0,4.9423,Diorite_rect,3,4.942,0,1,0,1,0,1,,,,,,,,,,,,,
6630f086d4f678aaabebe3d9,SCR,2024-06-24_14h45.45.426,LearnStrategy,2023.2.3,Win32,60.24096386,5,1,3,0.215740797,-0.243518575,1,0,0,1.118,Basalt_12,2,12,2,6,1.118,2,12,0.396296353,-0.258333333,1,0,0,9.0772,Gabbro_rect,4,9.077,0,2,0,2,0,1,,,,,,,,,,,,,
6630f086d4f678aaabebe3d9,SCR,2024-06-24_14h45.45.426,LearnStrategy,2023.2.3,Win32,60.24096386,5,1,4,0.408333333,-0.084259288,1,0,0,1.0178,Andesite_10,1,10,3,7,1.018,1,10,-0.357407379,-0.243518575,1,0,0,4.8622,Andesite_rect,1,4.862,1,3,0,3,0,1,,,,,,,,,,,,,
6630f086d4f678aaabebe3d9,SCR,2024-06-24_14h45.45.426,LearnStrategy,2023.2.3,Win32,60.24096386,5,1,5,0.560185242,0.425,1,0,0,1.6475,Diorite_07,3,07,6,8,1.648,3,07,0.114814843,-0.238888889,1,0,0,15.4569,Diorite_rect,3,15.457,1,4,0,4,0,1,,,,,,,,,,,,,
6630f086d4f678aaabebe3d9,SCR,2024-06-24_14h45.45.426,LearnStrategy,2023.2.3,Win32,60.24096386,5,1,6,0.255555556,-0.420370399,1,0,0,1.0637,Diorite_15,3,15,1,6,1.064,3,15,0.165740797,-0.4,1,0,0,15.774,Peridotite_rect,7,15.774,0,5,0,5,0,1,,,,,,,,,,,,,
6630f086d4f678aaabebe3d9,SCR,2024-06-24_14h45.45.426,LearnStrategy,2023.2.3,Win32,60.24096386,5,1,7,0.099074131,0.254629623,1,0,0,1.1011,Gabbro_15,4,15,5,5,1.101,4,15,0.414814843,-0.243518575,1,0,0,2.0197,Gabbro_rect,4,2.02,1,6,0,6,0,1,,,,,,,,,,,,,
6630f086d4f678aaabebe3d9,SCR,2024-06-24_14h45.45.426,LearnStrategy,2023.2.3,Win32,60.24096386,5,1,8,-0.388888889,-0.245370399,1,0,0,1.1154,Peridotite_02,7,02,2,2,1.115,7,02,0.151851908,-0.249074131,1,0,0,2.7085,Diorite_rect,3,2.709,0,7,0,7,0,1,,,,,,,,,,,,,
6630f086d4f678aaabebe3d9,SCR,2024-06-24_14h45.45.426,LearnStrategy,2023.2.3,Win32,60.24096386,5,1,9,0.433333333,0.102777778,1,0,0,0.9304,Diorite_06,3,06,4,7,0.93,3,06,0.144444444,-0.247222222,1,0,0,4.3587,Diorite_rect,3,4.359,1,8,0,8,0,1,,,,,,,,,,,,,
6630f086d4f678aaabebe3d9,SCR,2024-06-24_14h45.45.426,LearnStrategy,2023.2.3,Win32,60.24096386,5,1,10,0.207407464,0.073148134,1,0,0,0.9985,Andesite_01,1,01,4,6,0.999,1,01,-0.375925912,-0.264814843,1,0,0,8.5692,Andesite_rect,1,8.569,1,9,0,9,0,1,,,,,,,,,,,,,
6630f086d4f678aaabebe3d9,SCR,2024-06-24_14h45.45.426,LearnStrategy,2023.2.3,Win32,60.24096386,5,1,11,-0.409259245,0.265740734,1,0,0,1.0172,Diorite_02,3,02,5,2,1.017,3,02,0.108333333,-0.242592621,1,0,0,2.8344,Diorite_rect,3,2.834,1,10,0,10,0,1,,,,,,,,,,,,,
6630f086d4f678aaabebe3d9,SCR,2024-06-24_14h45.45.426,LearnStrategy,2023.2.3,Win32,60.24096386,5,1,12,-0.4,0.088888889,1,0,0,0.8984,Pegmatite_16,6,16,4,2,0.898,6,16,-0.119444444,-0.403703732,1,0,0,2.0941,Pegmatite_rect,6,2.094,1,11,0,11,0,1,,,,,,,,,,,,,
6630f086d4f678aaabebe3d9,SCR,2024-06-24_14h45.45.426,LearnStrategy,2023.2.3,Win32,60.24096386,5,1,13,-0.219444444,-0.277777778,1,0,0,0.9817,Pumice_16,8,16,2,3,0.982,8,16,0.4,-0.399074131,1,0,0,1.3599,Pumice_rect,8,1.36,1,12,0,12,0,1,,,,,,,,,,,,,
6630f086d4f678aaabebe3d9,SCR,2024-06-24_14h45.45.426,LearnStrategy,2023.2.3,Win32,60.24096386,5,1,14,-0.059259203,0.083333333,1,0,0,0.8609,Peridotite_13,7,13,4,4,0.861,7,13,0.130555556,-0.401851908,1,0,0,2.1038,Peridotite_rect,7,2.104,1,13,0,13,0,1,,,,,,,,,,,,,
6630f086d4f678aaabebe3d9,SCR,2024-06-24_14h45.45.426,LearnStrategy,2023.2.3,Win32,60.24096386,5,1,15,0.544444444,-0.414814843,1,0,0,1.4344,Peridotite_08,7,08,1,8,1.434,7,08,0.1,-0.243518575,1,0,0,7.3503,Diorite_rect,3,7.35,0,14,0,14,0,1,,,,,,,,,,,,,
6630f086d4f678aaabebe3d9,SCR,2024-06-24_14h45.45.426,LearnStrategy,2023.2.3,Win32,60.24096386,5,1,16,0.044444444,0.418518517,1,0,0,1.1658,Obsidian_06,5,06,6,5,1.166,5,06,-0.385185157,-0.383333333,1,0,0,1.07,Obsidian_rect,5,1.07,1,15,0,15,0,1,,,,,,,,,,,,,
6630f086d4f678aaabebe3d9,SCR,2024-06-24_14h45.45.426,LearnStrategy,2023.2.3,Win32,60.24096386,5,2,1,,,,,,,,5,08,,,,,,,,,,,,,5,1.337,1,,,,,,-0.344444444,-0.397222222,1,0,0,1.3367,Obsidian_rect,0,0,0,0,1,
6630f086d4f678aaabebe3d9,SCR,2024-06-24_14h45.45.426,LearnStrategy,2023.2.3,Win32,60.24096386,5,2,2,,,,,,,,7,04,,,,,,,,,,,,,3,36.872,0,,,,,,0.135185242,-0.25,1,0,0,36.8717,Diorite_rect,1,0,1,0,1,
6630f086d4f678aaabebe3d9,SCR,2024-06-24_14h45.45.426,LearnStrategy,2023.2.3,Win32,60.24096386,5,2,3,,,,,,,,8,15,,,,,,,,,,,,,8,1.819,1,,,,,,0.352777778,-0.385185242,1,0,0,1.8189,Pumice_rect,2,0,2,0,1,
6630f086d4f678aaabebe3d9,SCR,2024-06-24_14h45.45.426,LearnStrategy,2023.2.3,Win32,60.24096386,5,2,4,,,,,,,,8,04,,,,,,,,,,,,,8,1.191,1,,,,,,0.352777778,-0.385185242,1,0,0,1.1914,Pumice_rect,3,0,3,0,1,
6630f086d4f678aaabebe3d9,SCR,2024-06-24_14h45.45.426,LearnStrategy,2023.2.3,Win32,60.24096386,5,2,5,,,,,,,,2,16,,,,,,,,,,,,,8,1.303,0,,,,,,0.352777778,-0.385185242,1,0,0,1.3035,Pumice_rect,4,0,4,0,1,
6630f086d4f678aaabebe3d9,SCR,2024-06-24_14h45.45.426,LearnStrategy,2023.2.3,Win32,60.24096386,5,2,6,,,,,,,,6,05,,,,,,,,,,,,,6,4.342,1,,,,,,-0.122222222,-0.392592621,1,0,0,4.342,Pegmatite_rect,5,0,5,0,1,
6630f086d4f678aaabebe3d9,SCR,2024-06-24_14h45.45.426,LearnStrategy,2023.2.3,Win32,60.24096386,5,2,7,,,,,,,,3,10,,,,,,,,,,,,,1,2.719,0,,,,,,-0.35,-0.248148176,1,0,0,2.7193,Andesite_rect,6,0,6,0,1,
6630f086d4f678aaabebe3d9,SCR,2024-06-24_14h45.45.426,LearnStrategy,2023.2.3,Win32,60.24096386,5,2,8,,,,,,,,4,05,,,,,,,,,,,,,3,6.892,0,,,,,,0.134259288,-0.259259288,1,0,0,6.8923,Diorite_rect,7,0,7,0,1,
6630f086d4f678aaabebe3d9,SCR,2024-06-24_14h45.45.426,LearnStrategy,2023.2.3,Win32,60.24096386,5,2,9,,,,,,,,4,16,,,,,,,,,,,,,4,3.914,1,,,,,,0.35,-0.233333333,1,0,0,3.9137,Gabbro_rect,8,0,8,0,1,
6630f086d4f678aaabebe3d9,SCR,2024-06-24_14h45.45.426,LearnStrategy,2023.2.3,Win32,60.24096386,5,2,10,,,,,,,,2,08,,,,,,,,,,,,,2,2.019,1,,,,,,-0.087962935,-0.252777778,1,0,0,2.0195,Basalt_rect,9,0,9,0,1,
6630f086d4f678aaabebe3d9,SCR,2024-06-24_14h45.45.426,LearnStrategy,2023.2.3,Win32,60.24096386,5,2,11,,,,,,,,7,10,,,,,,,,,,,,,7,3.96,1,,,,,,0.122222222,-0.398148176,1,0,0,3.96,Peridotite_rect,10,0,10,0,1,
6630f086d4f678aaabebe3d9,SCR,2024-06-24_14h45.45.426,LearnStrategy,2023.2.3,Win32,60.24096386,5,2,12,,,,,,,,1,16,,,,,,,,,,,,,1,1.42,1,,,,,,-0.351851824,-0.259259288,1,0,0,1.4196,Andesite_rect,11,0,11,0,1,
6630f086d4f678aaabebe3d9,SCR,2024-06-24_14h45.45.426,LearnStrategy,2023.2.3,Win32,60.24096386,5,2,13,,,,,,,,5,04,,,,,,,,,,,,,5,1.177,1,,,,,,-0.379629601,-0.400925954,1,0,0,1.1769,Obsidian_rect,12,0,12,0,1,
6630f086d4f678aaabebe3d9,SCR,2024-06-24_14h45.45.426,LearnStrategy,2023.2.3,Win32,60.24096386,5,2,14,,,,,,,,1,14,,,,,,,,,,,,,1,3.043,1,,,,,,-0.340740712,-0.261111111,1,0,0,3.0432,Andesite_rect,13,0,13,0,1,
6630f086d4f678aaabebe3d9,SCR,2024-06-24_14h45.45.426,LearnStrategy,2023.2.3,Win32,60.24096386,5,2,15,,,,,,,,3,09,,,,,,,,,,,,,1,2.919,0,,,,,,-0.340740712,-0.261111111,1,0,0,2.9192,Andesite_rect,14,0,14,0,1,
6630f086d4f678aaabebe3d9,SCR,2024-06-24_14h45.45.426,LearnStrategy,2023.2.3,Win32,60.24096386,5,2,16,,,,,,,,6,09,,,,,,,,,,,,,6,1.926,1,,,,,,-0.109259203,-0.395370399,1,0,0,1.926,Pegmatite_rect,15,0,15,0,1,
6630f086d4f678aaabebe3d9,SCR,2024-06-24_14h45.45.426,LearnStrategy,2023.2.3,Win32,60.24096386,6,1,1,-0.555555556,0.106481467,1,0,0,1.441,Basalt_01,2,01,4,1,1.441,2,01,-0.112962935,-0.251851908,1,0,0,6.9501,Basalt_rect,2,6.95,1,0,0,0,0,1,,,,,,,,,,,,,
6630f086d4f678aaabebe3d9,SCR,2024-06-24_14h45.45.426,LearnStrategy,2023.2.3,Win32,60.24096386,6,1,2,0.511111111,-0.087037065,1,0,0,1.1901,Pegmatite_10,6,10,3,8,1.19,6,10,-0.119444444,-0.409259288,1,0,0,2.2508,Pegmatite_rect,6,2.251,1,1,0,1,0,1,,,,,,,,,,,,,
6630f086d4f678aaabebe3d9,SCR,2024-06-24_14h45.45.426,LearnStrategy,2023.2.3,Win32,60.24096386,6,1,3,0.107407464,0.255555556,1,0,0,1.0316,Gabbro_15,4,15,5,5,1.032,4,15,0.391666667,-0.25,1,0,0,1.5926,Gabbro_rect,4,1.593,1,2,0,2,0,1,,,,,,,,,,,,,
6630f086d4f678aaabebe3d9,SCR,2024-06-24_14h45.45.426,LearnStrategy,2023.2.3,Win32,60.24096386,6,1,4,0.237037065,-0.417592621,1,0,0,1.2978,Diorite_15,3,15,1,6,1.298,3,15,-0.385185157,-0.252777778,1,0,0,2.0377,Andesite_rect,1,2.038,0,3,0,3,0,1,,,,,,,,,,,,,
6630f086d4f678aaabebe3d9,SCR,2024-06-24_14h45.45.426,LearnStrategy,2023.2.3,Win32,60.24096386,6,1,5,0.562963019,-0.266666667,1,0,0,1.2507,Pumice_13,8,13,2,8,1.251,8,13,0.410185242,-0.402777778,1,0,0,1.6678,Pumice_rect,8,1.668,1,4,0,4,0,1,,,,,,,,,,,,,
6630f086d4f678aaabebe3d9,SCR,2024-06-24_14h45.45.426,LearnStrategy,2023.2.3,Win32,60.24096386,6,1,6,-0.25370369,0.097222222,1,0,0,0.9147,Diorite_14,3,14,4,3,0.915,3,14,-0.365740712,-0.237037065,1,0,0,2.2424,Andesite_rect,1,2.242,0,5,0,5,0,1,,,,,,,,,,,,,
6630f086d4f678aaabebe3d9,SCR,2024-06-24_14h45.45.426,LearnStrategy,2023.2.3,Win32,60.24096386,6,1,7,0.237963019,-0.407407464,1,0,0,0.9676,Diorite_15,3,15,1,6,0.968,3,15,-0.348148134,-0.236111111,1,0,0,5.0844,Andesite_rect,1,5.084,0,6,0,6,0,1,,,,,,,,,,,,,
6630f086d4f678aaabebe3d9,SCR,2024-06-24_14h45.45.426,LearnStrategy,2023.2.3,Win32,60.24096386,6,1,8,0.114814843,-0.247222222,1,0,0,0.7487,Obsidian_07,5,07,2,5,0.749,5,07,-0.358333333,-0.387037065,1,0,0,0.9409,Obsidian_rect,5,0.941,1,7,0,7,0,1,,,,,,,,,,,,,
6630f086d4f678aaabebe3d9,SCR,2024-06-24_14h45.45.426,LearnStrategy,2023.2.3,Win32,60.24096386,6,1,9,-0.401851824,0.260185178,1,0,0,1.1143,Diorite_02,3,02,5,2,1.114,3,02,0.117592621,-0.250925954,1,0,0,2.2926,Diorite_rect,3,2.293,1,8,0,8,0,1,,,,,,,,,,,,,
6630f086d4f678aaabebe3d9,SCR,2024-06-24_14h45.45.426,LearnStrategy,2023.2.3,Win32,60.24096386,6,1,10,0.071296353,0.277777778,1,0,0,0.9647,Gabbro_15,4,15,5,5,0.965,4,15,0.394444444,-0.246296353,1,0,0,1.3592,Gabbro_rect,4,1.359,1,9,0,9,0,1,,,,,,,,,,,,,
6630f086d4f678aaabebe3d9,SCR,2024-06-24_14h45.45.426,LearnStrategy,2023.2.3,Win32,60.24096386,6,1,11,-0.078703647,0.242592578,1,0,0,0.8674,Basalt_04,2,04,5,4,0.867,2,04,-0.127777778,-0.25,1,0,0,0.8847,Basalt_rect,2,0.885,1,10,0,10,0,1,,,,,,,,,,,,,
6630f086d4f678aaabebe3d9,SCR,2024-06-24_14h45.45.426,LearnStrategy,2023.2.3,Win32,60.24096386,6,1,12,0.584259372,-0.412963019,1,0,0,1.1644,Peridotite_08,7,08,1,8,1.164,7,08,0.133333333,-0.401851908,1,0,0,3.7033,Peridotite_rect,7,3.703,1,11,0,11,0,1,,,,,,,,,,,,,
6630f086d4f678aaabebe3d9,SCR,2024-06-24_14h45.45.426,LearnStrategy,2023.2.3,Win32,60.24096386,6,1,13,0.242592621,0.087037023,1,0,0,0.8226,Andesite_01,1,01,4,6,0.823,1,01,-0.347222222,-0.25648151,1,0,0,1.6413,Andesite_rect,1,1.641,1,12,0,12,0,1,,,,,,,,,,,,,
6630f086d4f678aaabebe3d9,SCR,2024-06-24_14h45.45.426,LearnStrategy,2023.2.3,Win32,60.24096386,6,1,14,0.571296353,-0.421296353,1,0,0,1.1015,Peridotite_08,7,08,1,8,1.101,7,08,0.163888889,-0.4,1,0,0,2.6791,Peridotite_rect,7,2.679,1,13,0,13,0,1,,,,,,,,,,,,,
6630f086d4f678aaabebe3d9,SCR,2024-06-24_14h45.45.426,LearnStrategy,2023.2.3,Win32,60.24096386,6,1,15,0.232407464,0.069444444,1,0,0,0.7507,Andesite_01,1,01,4,6,0.751,1,01,-0.361111111,-0.255555556,1,0,0,1.2846,Andesite_rect,1,1.285,1,14,0,14,0,1,,,,,,,,,,,,,
6630f086d4f678aaabebe3d9,SCR,2024-06-24_14h45.45.426,LearnStrategy,2023.2.3,Win32,60.24096386,6,1,16,-0.35370369,-0.250925954,1,0,0,0.9989,Peridotite_02,7,02,2,2,0.999,7,02,0.125925954,-0.404629686,1,0,0,1.5779,Peridotite_rect,7,1.578,1,15,0,15,0,1,,,,,,,,,,,,,
6630f086d4f678aaabebe3d9,SCR,2024-06-24_14h45.45.426,LearnStrategy,2023.2.3,Win32,60.24096386,6,2,1,,,,,,,,8,14,,,,,,,,,,,,,8,1.21,1,,,,,,0.361111111,-0.380555556,1,0,0,1.2098,Pumice_rect,0,0,0,0,1,
6630f086d4f678aaabebe3d9,SCR,2024-06-24_14h45.45.426,LearnStrategy,2023.2.3,Win32,60.24096386,6,2,2,,,,,,,,2,09,,,,,,,,,,,,,2,2.637,1,,,,,,-0.146296268,-0.267592621,1,0,0,2.6375,Basalt_rect,1,0,1,0,1,
6630f086d4f678aaabebe3d9,SCR,2024-06-24_14h45.45.426,LearnStrategy,2023.2.3,Win32,60.24096386,6,2,3,,,,,,,,1,11,,,,,,,,,,,,,1,6.486,1,,,,,,-0.363888889,-0.251851908,1,0,0,6.4858,Andesite_rect,2,0,2,0,1,
6630f086d4f678aaabebe3d9,SCR,2024-06-24_14h45.45.426,LearnStrategy,2023.2.3,Win32,60.24096386,6,2,4,,,,,,,,3,16,,,,,,,,,,,,,1,0.886,0,,,,,,-0.363888889,-0.251851908,1,0,0,0.8855,Andesite_rect,3,0,3,0,1,
6630f086d4f678aaabebe3d9,SCR,2024-06-24_14h45.45.426,LearnStrategy,2023.2.3,Win32,60.24096386,6,2,5,,,,,,,,1,09,,,,,,,,,,,,,1,2.074,1,,,,,,-0.363888889,-0.251851908,1,0,0,2.074,Andesite_rect,4,0,4,0,1,
6630f086d4f678aaabebe3d9,SCR,2024-06-24_14h45.45.426,LearnStrategy,2023.2.3,Win32,60.24096386,6,2,6,,,,,,,,6,03,,,,,,,,,,,,,6,1.877,1,,,,,,-0.14351849,-0.399074131,1,0,0,1.8767,Pegmatite_rect,5,0,5,0,1,
6630f086d4f678aaabebe3d9,SCR,2024-06-24_14h45.45.426,LearnStrategy,2023.2.3,Win32,60.24096386,6,2,7,,,,,,,,3,11,,,,,,,,,,,,,7,1.942,0,,,,,,0.129629686,-0.410185242,1,0,0,1.9423,Peridotite_rect,6,0,6,0,1,
6630f086d4f678aaabebe3d9,SCR,2024-06-24_14h45.45.426,LearnStrategy,2023.2.3,Win32,60.24096386,6,2,8,,,,,,,,4,10,,,,,,,,,,,,,2,6.651,0,,,,,,-0.100925869,-0.257407464,1,0,0,6.6512,Basalt_rect,7,0,7,0,1,
6630f086d4f678aaabebe3d9,SCR,2024-06-24_14h45.45.426,LearnStrategy,2023.2.3,Win32,60.24096386,6,2,9,,,,,,,,7,06,,,,,,,,,,,,,6,1.247,0,,,,,,-0.129629601,-0.397222222,1,0,0,1.247,Pegmatite_rect,8,0,8,0,1,
6630f086d4f678aaabebe3d9,SCR,2024-06-24_14h45.45.426,LearnStrategy,2023.2.3,Win32,60.24096386,6,2,10,,,,,,,,8,02,,,,,,,,,,,,,8,1.805,1,,,,,,0.360185242,-0.397222222,1,0,0,1.8051,Pumice_rect,9,0,9,0,1,
6630f086d4f678aaabebe3d9,SCR,2024-06-24_14h45.45.426,LearnStrategy,2023.2.3,Win32,60.24096386,6,2,11,,,,,,,,5,05,,,,,,,,,,,,,5,4.153,1,,,,,,-0.371296268,-0.40648151,1,0,0,4.1533,Obsidian_rect,10,0,10,0,1,
6630f086d4f678aaabebe3d9,SCR,2024-06-24_14h45.45.426,LearnStrategy,2023.2.3,Win32,60.24096386,6,2,12,,,,,,,,6,08,,,,,,,,,,,,,6,1.137,1,,,,,,-0.161111111,-0.416666667,1,0,0,1.1366,Pegmatite_rect,11,0,11,0,1,
6630f086d4f678aaabebe3d9,SCR,2024-06-24_14h45.45.426,LearnStrategy,2023.2.3,Win32,60.24096386,6,2,13,,,,,,,,5,12,,,,,,,,,,,,,5,1.138,1,,,,,,-0.397222222,-0.407407464,1,0,0,1.1376,Obsidian_rect,12,0,12,0,1,
6630f086d4f678aaabebe3d9,SCR,2024-06-24_14h45.45.426,LearnStrategy,2023.2.3,Win32,60.24096386,6,2,14,,,,,,,,4,08,,,,,,,,,,,,,2,4.242,0,,,,,,-0.132407379,-0.262963019,1,0,0,4.2424,Basalt_rect,13,0,13,0,1,
6630f086d4f678aaabebe3d9,SCR,2024-06-24_14h45.45.426,LearnStrategy,2023.2.3,Win32,60.24096386,6,2,15,,,,,,,,7,07,,,,,,,,,,,,,7,3.866,1,,,,,,0.136111111,-0.405555556,1,0,0,3.8658,Peridotite_rect,14,0,14,0,1,
6630f086d4f678aaabebe3d9,SCR,2024-06-24_14h45.45.426,LearnStrategy,2023.2.3,Win32,60.24096386,6,2,16,,,,,,,,2,10,,,,,,,,,,,,,4,3.735,0,,,,,,0.388888889,-0.247222222,1,0,0,3.7353,Gabbro_rect,15,0,15,0,1,
6630f086d4f678aaabebe3d9,SCR,2024-06-24_14h45.45.426,LearnStrategy,2023.2.3,Win32,60.24096386,7,1,1,0.564814928,-0.411111111,1,0,0,1.368,Peridotite_08,7,08,1,8,1.368,7,08,0.136111111,-0.388888889,1,0,0,2.6961,Peridotite_rect,7,2.696,1,0,0,0,0,1,,,,,,,,,,,,,
6630f086d4f678aaabebe3d9,SCR,2024-06-24_14h45.45.426,LearnStrategy,2023.2.3,Win32,60.24096386,7,1,2,0.227777778,0.384259256,1,0,0,1.3675,Andesite_04,1,04,6,6,1.367,1,04,-0.348148134,-0.266666667,1,0,0,4.8821,Andesite_rect,1,4.882,1,1,0,1,0,1,,,,,,,,,,,,,
6630f086d4f678aaabebe3d9,SCR,2024-06-24_14h45.45.426,LearnStrategy,2023.2.3,Win32,60.24096386,7,1,3,0.578703817,0.388888889,1,0,0,1.1848,Diorite_07,3,07,6,8,1.185,3,07,-0.419444444,-0.25648151,1,0,0,2.1177,Andesite_rect,1,2.118,0,2,0,2,0,1,,,,,,,,,,,,,
6630f086d4f678aaabebe3d9,SCR,2024-06-24_14h45.45.426,LearnStrategy,2023.2.3,Win32,60.24096386,7,1,4,0.087037065,0.246296289,1,0,0,1.0844,Gabbro_15,4,15,5,5,1.084,4,15,0.404629686,-0.271296353,1,0,0,1.1005,Gabbro_rect,4,1.101,1,3,0,3,0,1,,,,,,,,,,,,,
6630f086d4f678aaabebe3d9,SCR,2024-06-24_14h45.45.426,LearnStrategy,2023.2.3,Win32,60.24096386,7,1,5,-0.396296268,-0.260185242,1,0,0,1.0638,Peridotite_02,7,02,2,2,1.064,7,02,0.130555556,-0.400925954,1,0,0,3.5921,Peridotite_rect,7,3.592,1,4,0,4,0,1,,,,,,,,,,,,,
6630f086d4f678aaabebe3d9,SCR,2024-06-24_14h45.45.426,LearnStrategy,2023.2.3,Win32,60.24096386,7,1,6,-0.413888889,0.258333333,1,0,0,0.9472,Diorite_02,3,02,5,2,0.947,3,02,-0.424074046,-0.243518575,1,0,0,2.06,Andesite_rect,1,2.06,0,5,0,5,0,1,,,,,,,,,,,,,
6630f086d4f678aaabebe3d9,SCR,2024-06-24_14h45.45.426,LearnStrategy,2023.2.3,Win32,60.24096386,7,1,7,-0.249074046,-0.277777778,1,0,0,1.0822,Pumice_16,8,16,2,3,1.082,8,16,0.401851908,-0.400925954,1,0,0,1.2261,Pumice_rect,8,1.226,1,6,0,6,0,1,,,,,,,,,,,,,
6630f086d4f678aaabebe3d9,SCR,2024-06-24_14h45.45.426,LearnStrategy,2023.2.3,Win32,60.24096386,7,1,8,-0.539814801,0.244444444,1,0,0,1.016,Gabbro_09,4,09,5,1,1.016,4,09,-0.119444444,-0.253703732,1,0,0,4.251,Basalt_rect,2,4.251,0,7,0,7,0,1,,,,,,,,,,,,,
6630f086d4f678aaabebe3d9,SCR,2024-06-24_14h45.45.426,LearnStrategy,2023.2.3,Win32,60.24096386,7,1,9,-0.050925869,0.250925912,1,0,0,1.3014,Basalt_04,2,04,5,4,1.301,2,04,-0.114814758,-0.243518575,1,0,0,2.2176,Basalt_rect,2,2.218,1,8,0,8,0,1,,,,,,,,,,,,,
6630f086d4f678aaabebe3d9,SCR,2024-06-24_14h45.45.426,LearnStrategy,2023.2.3,Win32,60.24096386,7,1,10,0.077777778,-0.246296353,1,0,0,0.9649,Obsidian_07,5,07,2,5,0.965,5,07,-0.37870369,-0.397222222,1,0,0,1.1096,Obsidian_rect,5,1.11,1,9,0,9,0,1,,,,,,,,,,,,,
6630f086d4f678aaabebe3d9,SCR,2024-06-24_14h45.45.426,LearnStrategy,2023.2.3,Win32,60.24096386,7,1,11,-0.358333333,-0.426851908,1,0,0,0.9484,Basalt_14,2,14,1,2,0.948,2,14,0.410185242,-0.260185242,1,0,0,4.8759,Gabbro_rect,4,4.876,0,10,0,10,0,1,,,,,,,,,,,,,
6630f086d4f678aaabebe3d9,SCR,2024-06-24_14h45.45.426,LearnStrategy,2023.2.3,Win32,60.24096386,7,1,12,-0.25370369,0.100925912,1,0,0,0.8157,Diorite_14,3,14,4,3,0.816,3,14,-0.4,-0.238888889,1,0,0,1.4198,Andesite_rect,1,1.42,0,11,0,11,0,1,,,,,,,,,,,,,
6630f086d4f678aaabebe3d9,SCR,2024-06-24_14h45.45.426,LearnStrategy,2023.2.3,Win32,60.24096386,7,1,13,0.404629686,0.090740712,1,0,0,1.0182,Diorite_06,3,06,4,7,1.018,3,06,0.144444444,-0.254629686,1,0,0,1.1389,Diorite_rect,3,1.139,1,12,0,12,0,1,,,,,,,,,,,,,
6630f086d4f678aaabebe3d9,SCR,2024-06-24_14h45.45.426,LearnStrategy,2023.2.3,Win32,60.24096386,7,1,14,0.236111111,0.25,1,0,0,1.1144,Peridotite_16,7,16,5,6,1.114,7,16,0.149074131,-0.248148176,1,0,0,8.3416,Diorite_rect,3,8.342,0,13,0,13,0,1,,,,,,,,,,,,,
6630f086d4f678aaabebe3d9,SCR,2024-06-24_14h45.45.426,LearnStrategy,2023.2.3,Win32,60.24096386,7,1,15,0.213888889,-0.120370399,1,0,0,0.965,Gabbro_01,4,01,3,6,0.965,4,01,0.132407464,-0.25648151,1,0,0,14.5913,Diorite_rect,3,14.591,0,14,0,14,0,1,,,,,,,,,,,,,
6630f086d4f678aaabebe3d9,SCR,2024-06-24_14h45.45.426,LearnStrategy,2023.2.3,Win32,60.24096386,7,1,16,-0.409259245,0.102777778,1,0,0,0.9988,Pegmatite_16,6,16,4,2,0.999,6,16,-0.125,-0.403703732,1,0,0,1.2763,Pegmatite_rect,6,1.276,1,15,0,15,0,1,,,,,,,,,,,,,
6630f086d4f678aaabebe3d9,SCR,2024-06-24_14h45.45.426,LearnStrategy,2023.2.3,Win32,60.24096386,7,2,1,,,,,,,,3,16,,,,,,,,,,,,,1,3.176,0,,,,,,-0.365740712,-0.243518575,1,0,0,3.1763,Andesite_rect,0,0,0,0,1,
6630f086d4f678aaabebe3d9,SCR,2024-06-24_14h45.45.426,LearnStrategy,2023.2.3,Win32,60.24096386,7,2,2,,,,,,,,5,05,,,,,,,,,,,,,5,1.786,1,,,,,,-0.375925912,-0.397222222,1,0,0,1.7858,Obsidian_rect,1,0,1,0,1,
6630f086d4f678aaabebe3d9,SCR,2024-06-24_14h45.45.426,LearnStrategy,2023.2.3,Win32,60.24096386,7,2,3,,,,,,,,8,15,,,,,,,,,,,,,8,1.311,1,,,,,,0.362037065,-0.38148151,1,0,0,1.3108,Pumice_rect,2,0,2,0,1,
6630f086d4f678aaabebe3d9,SCR,2024-06-24_14h45.45.426,LearnStrategy,2023.2.3,Win32,60.24096386,7,2,4,,,,,,,,4,16,,,,,,,,,,,,,4,9.459,1,,,,,,0.408333333,-0.251851908,1,0,0,9.4587,Gabbro_rect,3,0,3,0,1,
6630f086d4f678aaabebe3d9,SCR,2024-06-24_14h45.45.426,LearnStrategy,2023.2.3,Win32,60.24096386,7,2,5,,,,,,,,1,16,,,,,,,,,,,,,1,9.634,1,,,,,,-0.346296268,-0.270370399,1,0,0,9.6342,Andesite_rect,4,0,4,0,1,
6630f086d4f678aaabebe3d9,SCR,2024-06-24_14h45.45.426,LearnStrategy,2023.2.3,Win32,60.24096386,7,2,6,,,,,,,,5,04,,,,,,,,,,,,,5,1.137,1,,,,,,-0.392592578,-0.403703732,1,0,0,1.1372,Obsidian_rect,5,0,5,0,1,
6630f086d4f678aaabebe3d9,SCR,2024-06-24_14h45.45.426,LearnStrategy,2023.2.3,Win32,60.24096386,7,2,7,,,,,,,,2,05,,,,,,,,,,,,,2,2.486,1,,,,,,-0.132407379,-0.252777778,1,0,0,2.4863,Basalt_rect,6,0,6,0,1,
6630f086d4f678aaabebe3d9,SCR,2024-06-24_14h45.45.426,LearnStrategy,2023.2.3,Win32,60.24096386,7,2,8,,,,,,,,7,12,,,,,,,,,,,,,3,5.152,0,,,,,,0.139814843,-0.244444444,1,0,0,5.1519,Diorite_rect,7,0,7,0,1,
6630f086d4f678aaabebe3d9,SCR,2024-06-24_14h45.45.426,LearnStrategy,2023.2.3,Win32,60.24096386,7,2,9,,,,,,,,4,03,,,,,,,,,,,,,1,2.763,0,,,,,,-0.396296268,-0.263888889,1,0,0,2.7634,Andesite_rect,8,0,8,0,1,
6630f086d4f678aaabebe3d9,SCR,2024-06-24_14h45.45.426,LearnStrategy,2023.2.3,Win32,60.24096386,7,2,10,,,,,,,,6,05,,,,,,,,,,,,,6,1.609,1,,,,,,-0.158333333,-0.394444444,1,0,0,1.6094,Pegmatite_rect,9,0,9,0,1,
6630f086d4f678aaabebe3d9,SCR,2024-06-24_14h45.45.426,LearnStrategy,2023.2.3,Win32,60.24096386,7,2,11,,,,,,,,6,08,,,,,,,,,,,,,6,0.778,1,,,,,,-0.159259203,-0.394444444,1,0,0,0.7777,Pegmatite_rect,10,0,10,0,1,
6630f086d4f678aaabebe3d9,SCR,2024-06-24_14h45.45.426,LearnStrategy,2023.2.3,Win32,60.24096386,7,2,12,,,,,,,,1,07,,,,,,,,,,,,,1,1.579,1,,,,,,-0.372222222,-0.255555556,1,0,0,1.5789,Andesite_rect,11,0,11,0,1,
6630f086d4f678aaabebe3d9,SCR,2024-06-24_14h45.45.426,LearnStrategy,2023.2.3,Win32,60.24096386,7,2,13,,,,,,,,7,06,,,,,,,,,,,,,6,1.593,0,,,,,,-0.167592536,-0.394444444,1,0,0,1.5933,Pegmatite_rect,12,0,12,0,1,
6630f086d4f678aaabebe3d9,SCR,2024-06-24_14h45.45.426,LearnStrategy,2023.2.3,Win32,60.24096386,7,2,14,,,,,,,,3,12,,,,,,,,,,,,,3,1.21,1,,,,,,0.127777778,-0.247222222,1,0,0,1.21,Diorite_rect,13,0,13,0,1,
6630f086d4f678aaabebe3d9,SCR,2024-06-24_14h45.45.426,LearnStrategy,2023.2.3,Win32,60.24096386,7,2,15,,,,,,,,8,02,,,,,,,,,,,,,8,1.325,1,,,,,,0.399074131,-0.398148176,1,0,0,1.3252,Pumice_rect,14,0,14,0,1,
6630f086d4f678aaabebe3d9,SCR,2024-06-24_14h45.45.426,LearnStrategy,2023.2.3,Win32,60.24096386,7,2,16,,,,,,,,2,08,,,,,,,,,,,,,2,1.226,1,,,,,,-0.097222222,-0.261111111,1,0,0,1.2263,Basalt_rect,15,0,15,0,1,
6630f086d4f678aaabebe3d9,SCR,2024-06-24_14h45.45.426,LearnStrategy,2023.2.3,Win32,60.24096386,8,1,1,0.416666667,0.102777778,1,0,0,1.1144,Diorite_06,3,06,4,7,1.114,3,06,-0.381481467,-0.25648151,1,0,0,3.0425,Andesite_rect,1,3.043,0,0,0,0,0,1,,,,,,,,,,,,,
6630f086d4f678aaabebe3d9,SCR,2024-06-24_14h45.45.426,LearnStrategy,2023.2.3,Win32,60.24096386,8,1,2,-0.534259245,0.227777778,1,0,0,1.1178,Gabbro_09,4,09,5,1,1.118,4,09,-0.075925869,-0.253703732,1,0,0,2.6176,Basalt_rect,2,2.618,0,1,0,1,0,1,,,,,,,,,,,,,
6630f086d4f678aaabebe3d9,SCR,2024-06-24_14h45.45.426,LearnStrategy,2023.2.3,Win32,60.24096386,8,1,3,-0.376851824,-0.268518575,1,0,0,0.9813,Peridotite_02,7,02,2,2,0.981,7,02,0.124074131,-0.400925954,1,0,0,2.069,Peridotite_rect,7,2.069,1,2,0,2,0,1,,,,,,,,,,,,,
6630f086d4f678aaabebe3d9,SCR,2024-06-24_14h45.45.426,LearnStrategy,2023.2.3,Win32,60.24096386,8,1,4,-0.372222222,-0.412963019,1,0,0,1.001,Basalt_14,2,14,1,2,1.001,2,14,0.372222222,-0.234259288,1,0,0,2.934,Gabbro_rect,4,2.934,0,3,0,3,0,1,,,,,,,,,,,,,
6630f086d4f678aaabebe3d9,SCR,2024-06-24_14h45.45.426,LearnStrategy,2023.2.3,Win32,60.24096386,8,1,5,-0.385185157,-0.085185199,1,0,0,0.7643,Gabbro_13,4,13,3,2,0.764,4,13,0.401851908,-0.242592621,1,0,0,4.2091,Gabbro_rect,4,4.209,1,4,0,4,0,1,,,,,,,,,,,,,
6630f086d4f678aaabebe3d9,SCR,2024-06-24_14h45.45.426,LearnStrategy,2023.2.3,Win32,60.24096386,8,1,6,-0.225,0.225925912,1,0,0,0.9987,Peridotite_15,7,15,5,3,0.999,7,15,0.132407464,-0.408333333,1,0,0,1.3609,Peridotite_rect,7,1.361,1,5,0,5,0,1,,,,,,,,,,,,,
6630f086d4f678aaabebe3d9,SCR,2024-06-24_14h45.45.426,LearnStrategy,2023.2.3,Win32,60.24096386,8,1,7,0.383333333,0.106481467,1,0,0,0.8821,Diorite_06,3,06,4,7,0.882,3,06,0.143518575,-0.264814843,1,0,0,1.9766,Diorite_rect,3,1.977,1,6,0,6,0,1,,,,,,,,,,,,,
6630f086d4f678aaabebe3d9,SCR,2024-06-24_14h45.45.426,LearnStrategy,2023.2.3,Win32,60.24096386,8,1,8,-0.367592578,-0.426851908,1,0,0,0.9824,Basalt_14,2,14,1,2,0.982,2,14,0.377777778,-0.243518575,1,0,0,6.4418,Gabbro_rect,4,6.442,0,7,0,7,0,1,,,,,,,,,,,,,
6630f086d4f678aaabebe3d9,SCR,2024-06-24_14h45.45.426,LearnStrategy,2023.2.3,Win32,60.24096386,8,1,9,-0.384259245,0.1,1,0,0,0.8488,Pegmatite_16,6,16,4,2,0.849,6,16,-0.16851849,-0.395370399,1,0,0,0.8706,Pegmatite_rect,6,0.871,1,8,0,8,0,1,,,,,,,,,,,,,
6630f086d4f678aaabebe3d9,SCR,2024-06-24_14h45.45.426,LearnStrategy,2023.2.3,Win32,60.24096386,8,1,10,-0.24351849,-0.254629686,1,0,0,0.901,Pumice_16,8,16,2,3,0.901,8,16,0.410185242,-0.391666667,1,0,0,1.1177,Pumice_rect,8,1.118,1,9,0,9,0,1,,,,,,,,,,,,,
6630f086d4f678aaabebe3d9,SCR,2024-06-24_14h45.45.426,LearnStrategy,2023.2.3,Win32,60.24096386,8,1,11,0.539814928,0.379629623,1,0,0,1.4148,Diorite_07,3,07,6,8,1.415,3,07,0.139814843,-0.244444444,1,0,0,0.9586,Diorite_rect,3,0.959,1,10,0,10,0,1,,,,,,,,,,,,,
6630f086d4f678aaabebe3d9,SCR,2024-06-24_14h45.45.426,LearnStrategy,2023.2.3,Win32,60.24096386,8,1,12,0.576851908,-0.403703732,1,0,0,1.0654,Peridotite_08,7,08,1,8,1.065,7,08,0.129629686,-0.404629686,1,0,0,2.9645,Peridotite_rect,7,2.965,1,11,0,11,0,1,,,,,,,,,,,,,
6630f086d4f678aaabebe3d9,SCR,2024-06-24_14h45.45.426,LearnStrategy,2023.2.3,Win32,60.24096386,8,1,13,0.062037065,0.127777778,1,0,0,0.748,Gabbro_12,4,12,4,5,0.748,4,12,-0.116666667,-0.248148176,1,0,0,2.2874,Basalt_rect,2,2.287,0,12,0,12,0,1,,,,,,,,,,,,,
6630f086d4f678aaabebe3d9,SCR,2024-06-24_14h45.45.426,LearnStrategy,2023.2.3,Win32,60.24096386,8,1,14,-0.198148134,-0.412037065,1,0,0,0.9842,Diorite_13,3,13,1,3,0.984,3,13,0.116666667,-0.259259288,1,0,0,1.1847,Diorite_rect,3,1.185,1,13,0,13,0,1,,,,,,,,,,,,,
6630f086d4f678aaabebe3d9,SCR,2024-06-24_14h45.45.426,LearnStrategy,2023.2.3,Win32,60.24096386,8,1,15,0.233333333,0.247222222,1,0,0,0.9484,Peridotite_16,7,16,5,6,0.948,7,16,0.114814843,-0.404629686,1,0,0,2.5568,Peridotite_rect,7,2.557,1,14,0,14,0,1,,,,,,,,,,,,,
6630f086d4f678aaabebe3d9,SCR,2024-06-24_14h45.45.426,LearnStrategy,2023.2.3,Win32,60.24096386,8,1,16,-0.408333333,0.392592589,1,0,0,1.1512,Andesite_02,1,02,6,2,1.151,1,02,-0.401851824,-0.237963019,1,0,0,1.2014,Andesite_rect,1,1.201,1,15,0,15,0,1,,,,,,,,,,,,,
6630f086d4f678aaabebe3d9,SCR,2024-06-24_14h45.45.426,LearnStrategy,2023.2.3,Win32,60.24096386,8,2,1,,,,,,,,7,07,,,,,,,,,,,,,7,2.943,1,,,,,,0.121296353,-0.400925954,1,0,0,2.9426,Peridotite_rect,0,0,0,0,1,
6630f086d4f678aaabebe3d9,SCR,2024-06-24_14h45.45.426,LearnStrategy,2023.2.3,Win32,60.24096386,8,2,2,,,,,,,,5,11,,,,,,,,,,,,,5,1.136,1,,,,,,-0.373148134,-0.384259288,1,0,0,1.1361,Obsidian_rect,1,0,1,0,1,
6630f086d4f678aaabebe3d9,SCR,2024-06-24_14h45.45.426,LearnStrategy,2023.2.3,Win32,60.24096386,8,2,3,,,,,,,,8,10,,,,,,,,,,,,,8,1.962,1,,,,,,0.434259288,-0.4,1,0,0,1.9621,Pumice_rect,2,0,2,0,1,
6630f086d4f678aaabebe3d9,SCR,2024-06-24_14h45.45.426,LearnStrategy,2023.2.3,Win32,60.24096386,8,2,4,,,,,,,,2,09,,,,,,,,,,,,,2,1.886,1,,,,,,-0.129629601,-0.244444444,1,0,0,1.8864,Basalt_rect,3,0,3,0,1,
6630f086d4f678aaabebe3d9,SCR,2024-06-24_14h45.45.426,LearnStrategy,2023.2.3,Win32,60.24096386,8,2,5,,,,,,,,3,10,,,,,,,,,,,,,3,8.927,1,,,,,,0.129629686,-0.269444444,1,0,0,8.9272,Diorite_rect,4,0,4,0,1,
6630f086d4f678aaabebe3d9,SCR,2024-06-24_14h45.45.426,LearnStrategy,2023.2.3,Win32,60.24096386,8,2,6,,,,,,,,6,13,,,,,,,,,,,,,6,3.635,1,,,,,,-0.112036981,-0.405555556,1,0,0,3.6354,Pegmatite_rect,5,0,5,0,1,
6630f086d4f678aaabebe3d9,SCR,2024-06-24_14h45.45.426,LearnStrategy,2023.2.3,Win32,60.24096386,8,2,7,,,,,,,,4,14,,,,,,,,,,,,,4,1.937,1,,,,,,0.412037065,-0.270370399,1,0,0,1.9365,Gabbro_rect,6,0,6,0,1,
6630f086d4f678aaabebe3d9,SCR,2024-06-24_14h45.45.426,LearnStrategy,2023.2.3,Win32,60.24096386,8,2,8,,,,,,,,1,03,,,,,,,,,,,,,1,1.376,1,,,,,,-0.382407379,-0.235185242,1,0,0,1.3763,Andesite_rect,7,0,7,0,1,
6630f086d4f678aaabebe3d9,SCR,2024-06-24_14h45.45.426,LearnStrategy,2023.2.3,Win32,60.24096386,8,2,9,,,,,,,,4,10,,,,,,,,,,,,,2,2.693,0,,,,,,-0.123148092,-0.261111111,1,0,0,2.693,Basalt_rect,8,0,8,0,1,
6630f086d4f678aaabebe3d9,SCR,2024-06-24_14h45.45.426,LearnStrategy,2023.2.3,Win32,60.24096386,8,2,10,,,,,,,,5,10,,,,,,,,,,,,,5,1.176,1,,,,,,-0.365740712,-0.4,1,0,0,1.1762,Obsidian_rect,9,0,9,0,1,
6630f086d4f678aaabebe3d9,SCR,2024-06-24_14h45.45.426,LearnStrategy,2023.2.3,Win32,60.24096386,8,2,11,,,,,,,,8,06,,,,,,,,,,,,,8,1.394,1,,,,,,0.425,-0.393518575,1,0,0,1.3936,Pumice_rect,10,0,10,0,1,
6630f086d4f678aaabebe3d9,SCR,2024-06-24_14h45.45.426,LearnStrategy,2023.2.3,Win32,60.24096386,8,2,12,,,,,,,,7,04,,,,,,,,,,,,,3,9.442,0,,,,,,0.146296353,-0.248148176,1,0,0,9.4419,Diorite_rect,11,0,11,0,1,
6630f086d4f678aaabebe3d9,SCR,2024-06-24_14h45.45.426,LearnStrategy,2023.2.3,Win32,60.24096386,8,2,13,,,,,,,,6,07,,,,,,,,,,,,,6,3.069,1,,,,,,-0.123148092,-0.410185242,1,0,0,3.0694,Pegmatite_rect,12,0,12,0,1,
6630f086d4f678aaabebe3d9,SCR,2024-06-24_14h45.45.426,LearnStrategy,2023.2.3,Win32,60.24096386,8,2,14,,,,,,,,3,09,,,,,,,,,,,,,3,1.659,1,,,,,,0.15648151,-0.249074131,1,0,0,1.6592,Diorite_rect,13,0,13,0,1,
6630f086d4f678aaabebe3d9,SCR,2024-06-24_14h45.45.426,LearnStrategy,2023.2.3,Win32,60.24096386,8,2,15,,,,,,,,1,09,,,,,,,,,,,,,1,3.359,1,,,,,,-0.35370369,-0.255555556,1,0,0,3.3594,Andesite_rect,14,0,14,0,1,
6630f086d4f678aaabebe3d9,SCR,2024-06-24_14h45.45.426,LearnStrategy,2023.2.3,Win32,60.24096386,8,2,16,,,,,,,,2,16,,,,,,,,,,,,,4,2.769,0,,,,,,0.398148176,-0.244444444,1,0,0,2.769,Gabbro_rect,15,0,15,0,1,
6630f086d4f678aaabebe3d9,SCR,2024-06-24_14h45.45.426,LearnStrategy,2023.2.3,Win32,60.24096386,9,1,1,0.544444444,0.115740712,1,0,0,1.424,Andesite_06,1,06,4,8,1.424,1,06,-0.363888889,-0.239814843,1,0,0,1.401,Andesite_rect,1,1.401,1,0,0,0,0,1,,,,,,,,,,,,,
6630f086d4f678aaabebe3d9,SCR,2024-06-24_14h45.45.426,LearnStrategy,2023.2.3,Win32,60.24096386,9,1,2,-0.066666667,0.240740734,1,0,0,0.9322,Basalt_04,2,04,5,4,0.932,2,04,-0.111111111,-0.263888889,1,0,0,1.5594,Basalt_rect,2,1.559,1,1,0,1,0,1,,,,,,,,,,,,,
6630f086d4f678aaabebe3d9,SCR,2024-06-24_14h45.45.426,LearnStrategy,2023.2.3,Win32,60.24096386,9,1,3,0.053703732,0.25,1,0,0,0.9992,Gabbro_15,4,15,5,5,0.999,4,15,0.401851908,-0.255555556,1,0,0,0.8866,Gabbro_rect,4,0.887,1,2,0,2,0,1,,,,,,,,,,,,,
6630f086d4f678aaabebe3d9,SCR,2024-06-24_14h45.45.426,LearnStrategy,2023.2.3,Win32,60.24096386,9,1,4,-0.550925912,-0.385185242,1,0,0,1.1,Pumice_09,8,09,1,1,1.1,8,09,0.419444444,-0.389814843,1,0,0,1.3182,Pumice_rect,8,1.318,1,3,0,3,0,1,,,,,,,,,,,,,
6630f086d4f678aaabebe3d9,SCR,2024-06-24_14h45.45.426,LearnStrategy,2023.2.3,Win32,60.24096386,9,1,5,0.543518575,-0.416666667,1,0,0,0.9822,Peridotite_08,7,08,1,8,0.982,7,08,0.136111111,-0.397222222,1,0,0,2.4252,Peridotite_rect,7,2.425,1,4,0,4,0,1,,,,,,,,,,,,,
6630f086d4f678aaabebe3d9,SCR,2024-06-24_14h45.45.426,LearnStrategy,2023.2.3,Win32,60.24096386,9,1,6,-0.391666667,-0.265740797,1,0,0,0.8659,Peridotite_02,7,02,2,2,0.866,7,02,0.144444444,-0.246296353,1,0,0,1.7584,Diorite_rect,3,1.758,0,5,0,5,0,1,,,,,,,,,,,,,
6630f086d4f678aaabebe3d9,SCR,2024-06-24_14h45.45.426,LearnStrategy,2023.2.3,Win32,60.24096386,9,1,7,-0.226851824,0.263888889,1,0,0,0.9482,Peridotite_15,7,15,5,3,0.948,7,15,0.120370399,-0.404629686,1,0,0,1.6364,Peridotite_rect,7,1.636,1,6,0,6,0,1,,,,,,,,,,,,,
6630f086d4f678aaabebe3d9,SCR,2024-06-24_14h45.45.426,LearnStrategy,2023.2.3,Win32,60.24096386,9,1,8,0.424074131,0.410185178,1,0,0,1.1173,Pegmatite_06,6,06,6,7,1.117,6,06,-0.130555556,-0.387963019,1,0,0,9.0335,Pegmatite_rect,6,9.034,1,7,0,7,0,1,,,,,,,,,,,,,
6630f086d4f678aaabebe3d9,SCR,2024-06-24_14h45.45.426,LearnStrategy,2023.2.3,Win32,60.24096386,9,1,9,-0.215740712,0.086111111,1,0,0,1.032,Diorite_14,3,14,4,3,1.032,3,14,0.167592621,-0.255555556,1,0,0,0.9764,Diorite_rect,3,0.976,1,8,0,8,0,1,,,,,,,,,,,,,
6630f086d4f678aaabebe3d9,SCR,2024-06-24_14h45.45.426,LearnStrategy,2023.2.3,Win32,60.24096386,9,1,10,-0.581481467,0.248148134,1,0,0,0.8812,Gabbro_09,4,09,5,1,0.881,4,09,-0.122222222,-0.245370399,1,0,0,2.8089,Basalt_rect,2,2.809,0,9,0,9,0,1,,,,,,,,,,,,,
6630f086d4f678aaabebe3d9,SCR,2024-06-24_14h45.45.426,LearnStrategy,2023.2.3,Win32,60.24096386,9,1,11,-0.383333333,-0.112962977,1,0,0,0.9236,Gabbro_13,4,13,3,2,0.924,4,13,0.421296353,-0.240740797,1,0,0,1.0017,Gabbro_rect,4,1.002,1,10,0,10,0,1,,,,,,,,,,,,,
6630f086d4f678aaabebe3d9,SCR,2024-06-24_14h45.45.426,LearnStrategy,2023.2.3,Win32,60.24096386,9,1,12,-0.081481425,-0.244444444,1,0,0,0.8482,Obsidian_09,5,09,2,4,0.848,5,09,-0.351851824,-0.411111111,1,0,0,1.1135,Obsidian_rect,5,1.113,1,11,0,11,0,1,,,,,,,,,,,,,
6630f086d4f678aaabebe3d9,SCR,2024-06-24_14h45.45.426,LearnStrategy,2023.2.3,Win32,60.24096386,9,1,13,-0.204629601,-0.427777778,1,0,0,0.8991,Diorite_13,3,13,1,3,0.899,3,13,0.141666667,-0.248148176,1,0,0,3.1089,Diorite_rect,3,3.109,1,12,0,12,0,1,,,,,,,,,,,,,
6630f086d4f678aaabebe3d9,SCR,2024-06-24_14h45.45.426,LearnStrategy,2023.2.3,Win32,60.24096386,9,1,14,-0.063888889,0.244444444,1,0,0,0.8657,Basalt_04,2,04,5,4,0.866,2,04,-0.087036981,-0.250925954,1,0,0,0.8367,Basalt_rect,2,0.837,1,13,0,13,0,1,,,,,,,,,,,,,
6630f086d4f678aaabebe3d9,SCR,2024-06-24_14h45.45.426,LearnStrategy,2023.2.3,Win32,60.24096386,9,1,15,-0.507407379,-0.238888889,1,0,0,0.984,Peridotite_05,7,05,2,1,0.984,7,05,0.111111111,-0.400925954,1,0,0,3.9339,Peridotite_rect,7,3.934,1,14,0,14,0,1,,,,,,,,,,,,,
6630f086d4f678aaabebe3d9,SCR,2024-06-24_14h45.45.426,LearnStrategy,2023.2.3,Win32,60.24096386,9,1,16,0.230555556,-0.432407464,1,0,0,0.9811,Diorite_15,3,15,1,6,0.981,3,15,0.118518575,-0.265740797,1,0,0,7.5085,Diorite_rect,3,7.508,1,15,0,15,0,1,,,,,,,,,,,,,
6630f086d4f678aaabebe3d9,SCR,2024-06-24_14h45.45.426,LearnStrategy,2023.2.3,Win32,60.24096386,9,2,1,,,,,,,,7,14,,,,,,,,,,,,,7,4.659,1,,,,,,0.140740797,-0.414814843,1,0,0,4.6585,Peridotite_rect,0,0,0,0,1,
6630f086d4f678aaabebe3d9,SCR,2024-06-24_14h45.45.426,LearnStrategy,2023.2.3,Win32,60.24096386,9,2,2,,,,,,,,5,08,,,,,,,,,,,,,5,1.169,1,,,,,,-0.394444444,-0.388888889,1,0,0,1.1694,Obsidian_rect,1,0,1,0,1,
6630f086d4f678aaabebe3d9,SCR,2024-06-24_14h45.45.426,LearnStrategy,2023.2.3,Win32,60.24096386,9,2,3,,,,,,,,6,03,,,,,,,,,,,,,6,1.082,1,,,,,,-0.158333333,-0.396296353,1,0,0,1.082,Pegmatite_rect,2,0,2,0,1,
6630f086d4f678aaabebe3d9,SCR,2024-06-24_14h45.45.426,LearnStrategy,2023.2.3,Win32,60.24096386,9,2,4,,,,,,,,1,11,,,,,,,,,,,,,1,4.325,1,,,,,,-0.35370369,-0.250925954,1,0,0,4.3254,Andesite_rect,3,0,3,0,1,
6630f086d4f678aaabebe3d9,SCR,2024-06-24_14h45.45.426,LearnStrategy,2023.2.3,Win32,60.24096386,9,2,5,,,,,,,,4,05,,,,,,,,,,,,,7,16.118,0,,,,,,0.124074131,-0.400925954,1,0,0,16.1179,Peridotite_rect,4,0,4,0,1,
6630f086d4f678aaabebe3d9,SCR,2024-06-24_14h45.45.426,LearnStrategy,2023.2.3,Win32,60.24096386,9,2,6,,,,,,,,8,04,,,,,,,,,,,,,8,1.134,1,,,,,,0.400925954,-0.40648151,1,0,0,1.1344,Pumice_rect,5,0,5,0,1,
6630f086d4f678aaabebe3d9,SCR,2024-06-24_14h45.45.426,LearnStrategy,2023.2.3,Win32,60.24096386,9,2,7,,,,,,,,6,09,,,,,,,,,,,,,6,1.26,1,,,,,,-0.152777778,-0.405555556,1,0,0,1.26,Pegmatite_rect,6,0,6,0,1,
6630f086d4f678aaabebe3d9,SCR,2024-06-24_14h45.45.426,LearnStrategy,2023.2.3,Win32,60.24096386,9,2,8,,,,,,,,7,10,,,,,,,,,,,,,7,2.376,1,,,,,,0.129629686,-0.405555556,1,0,0,2.3763,Peridotite_rect,7,0,7,0,1,
6630f086d4f678aaabebe3d9,SCR,2024-06-24_14h45.45.426,LearnStrategy,2023.2.3,Win32,60.24096386,9,2,9,,,,,,,,4,08,,,,,,,,,,,,,4,5.937,1,,,,,,0.40648151,-0.257407464,1,0,0,5.9371,Gabbro_rect,8,0,8,0,1,
6630f086d4f678aaabebe3d9,SCR,2024-06-24_14h45.45.426,LearnStrategy,2023.2.3,Win32,60.24096386,9,2,10,,,,,,,,3,08,,,,,,,,,,,,,3,1.67,1,,,,,,0.144444444,-0.248148176,1,0,0,1.67,Diorite_rect,9,0,9,0,1,
6630f086d4f678aaabebe3d9,SCR,2024-06-24_14h45.45.426,LearnStrategy,2023.2.3,Win32,60.24096386,9,2,11,,,,,,,,5,12,,,,,,,,,,,,,5,1.346,1,,,,,,-0.39351849,-0.386111111,1,0,0,1.3461,Obsidian_rect,10,0,10,0,1,
6630f086d4f678aaabebe3d9,SCR,2024-06-24_14h45.45.426,LearnStrategy,2023.2.3,Win32,60.24096386,9,2,12,,,,,,,,2,02,,,,,,,,,,,,,2,1.232,1,,,,,,-0.119444444,-0.254629686,1,0,0,1.2322,Basalt_rect,11,0,11,0,1,
6630f086d4f678aaabebe3d9,SCR,2024-06-24_14h45.45.426,LearnStrategy,2023.2.3,Win32,60.24096386,9,2,13,,,,,,,,3,11,,,,,,,,,,,,,3,1.31,1,,,,,,0.140740797,-0.267592621,1,0,0,1.3099,Diorite_rect,12,0,12,0,1,
6630f086d4f678aaabebe3d9,SCR,2024-06-24_14h45.45.426,LearnStrategy,2023.2.3,Win32,60.24096386,9,2,14,,,,,,,,2,10,,,,,,,,,,,,,4,3.443,0,,,,,,0.399074131,-0.248148176,1,0,0,3.4431,Gabbro_rect,13,0,13,0,1,
6630f086d4f678aaabebe3d9,SCR,2024-06-24_14h45.45.426,LearnStrategy,2023.2.3,Win32,60.24096386,9,2,15,,,,,,,,8,14,,,,,,,,,,,,,8,1.203,1,,,,,,0.388888889,-0.405555556,1,0,0,1.2029,Pumice_rect,14,0,14,0,1,
6630f086d4f678aaabebe3d9,SCR,2024-06-24_14h45.45.426,LearnStrategy,2023.2.3,Win32,60.24096386,9,2,16,,,,,,,,1,14,,,,,,,,,,,,,3,1.809,0,,,,,,0.129629686,-0.262037065,1,0,0,1.8092,Diorite_rect,15,0,15,0,1,
6630f086d4f678aaabebe3d9,SCR,2024-06-24_14h45.45.426,LearnStrategy,2023.2.3,Win32,60.24096386,,,,,,,,,,,,,,,,,,,,,,,,,,,,,,,,,,,,,,,,,,,,,1
6630f086d4f678aaabebe3d9,SCR,2024-06-24_14h45.45.426,LearnStrategy,2023.2.3,Win32,60.24096386,,,,,,,,,,,,,,,,,,,,,,,,,,,,,,,,,,,,,,,,,,,,,
6630f086d4f678aaabebe3d9,SCR,2024-06-24_14h45.45.426,LearnStrategy,2023.2.3,Win32,60.24096386,,,,,,,,,,,8,09,1,1,,,,,,,,,,,,,,,,,,,,,,,,,,,,,,,
6630f086d4f678aaabebe3d9,SCR,2024-06-24_14h45.45.426,LearnStrategy,2023.2.3,Win32,60.24096386,,,,,,,,,,,2,14,1,2,,,,,,,,,,,,,,,,,,,,,,,,,,,,,,,
6630f086d4f678aaabebe3d9,SCR,2024-06-24_14h45.45.426,LearnStrategy,2023.2.3,Win32,60.24096386,,,,,,,,,,,3,13,1,3,,,,,,,,,,,,,,,,,,,,,,,,,,,,,,,
6630f086d4f678aaabebe3d9,SCR,2024-06-24_14h45.45.426,LearnStrategy,2023.2.3,Win32,60.24096386,,,,,,,,,,,5,14,1,4,,,,,,,,,,,,,,,,,,,,,,,,,,,,,,,
6630f086d4f678aaabebe3d9,SCR,2024-06-24_14h45.45.426,LearnStrategy,2023.2.3,Win32,60.24096386,,,,,,,,,,,8,03,1,5,,,,,,,,,,,,,,,,,,,,,,,,,,,,,,,
6630f086d4f678aaabebe3d9,SCR,2024-06-24_14h45.45.426,LearnStrategy,2023.2.3,Win32,60.24096386,,,,,,,,,,,3,15,1,6,,,,,,,,,,,,,,,,,,,,,,,,,,,,,,,
6630f086d4f678aaabebe3d9,SCR,2024-06-24_14h45.45.426,LearnStrategy,2023.2.3,Win32,60.24096386,,,,,,,,,,,2,11,1,7,,,,,,,,,,,,,,,,,,,,,,,,,,,,,,,
6630f086d4f678aaabebe3d9,SCR,2024-06-24_14h45.45.426,LearnStrategy,2023.2.3,Win32,60.24096386,,,,,,,,,,,7,08,1,8,,,,,,,,,,,,,,,,,,,,,,,,,,,,,,,
6630f086d4f678aaabebe3d9,SCR,2024-06-24_14h45.45.426,LearnStrategy,2023.2.3,Win32,60.24096386,,,,,,,,,,,7,05,2,1,,,,,,,,,,,,,,,,,,,,,,,,,,,,,,,
6630f086d4f678aaabebe3d9,SCR,2024-06-24_14h45.45.426,LearnStrategy,2023.2.3,Win32,60.24096386,,,,,,,,,,,7,02,2,2,,,,,,,,,,,,,,,,,,,,,,,,,,,,,,,
6630f086d4f678aaabebe3d9,SCR,2024-06-24_14h45.45.426,LearnStrategy,2023.2.3,Win32,60.24096386,,,,,,,,,,,8,16,2,3,,,,,,,,,,,,,,,,,,,,,,,,,,,,,,,
6630f086d4f678aaabebe3d9,SCR,2024-06-24_14h45.45.426,LearnStrategy,2023.2.3,Win32,60.24096386,,,,,,,,,,,5,09,2,4,,,,,,,,,,,,,,,,,,,,,,,,,,,,,,,
6630f086d4f678aaabebe3d9,SCR,2024-06-24_14h45.45.426,LearnStrategy,2023.2.3,Win32,60.24096386,,,,,,,,,,,5,07,2,5,,,,,,,,,,,,,,,,,,,,,,,,,,,,,,,
6630f086d4f678aaabebe3d9,SCR,2024-06-24_14h45.45.426,LearnStrategy,2023.2.3,Win32,60.24096386,,,,,,,,,,,2,12,2,6,,,,,,,,,,,,,,,,,,,,,,,,,,,,,,,
6630f086d4f678aaabebe3d9,SCR,2024-06-24_14h45.45.426,LearnStrategy,2023.2.3,Win32,60.24096386,,,,,,,,,,,8,08,2,7,,,,,,,,,,,,,,,,,,,,,,,,,,,,,,,
6630f086d4f678aaabebe3d9,SCR,2024-06-24_14h45.45.426,LearnStrategy,2023.2.3,Win32,60.24096386,,,,,,,,,,,8,13,2,8,,,,,,,,,,,,,,,,,,,,,,,,,,,,,,,
6630f086d4f678aaabebe3d9,SCR,2024-06-24_14h45.45.426,LearnStrategy,2023.2.3,Win32,60.24096386,,,,,,,,,,,1,05,3,1,,,,,,,,,,,,,,,,,,,,,,,,,,,,,,,
6630f086d4f678aaabebe3d9,SCR,2024-06-24_14h45.45.426,LearnStrategy,2023.2.3,Win32,60.24096386,,,,,,,,,,,4,13,3,2,,,,,,,,,,,,,,,,,,,,,,,,,,,,,,,
6630f086d4f678aaabebe3d9,SCR,2024-06-24_14h45.45.426,LearnStrategy,2023.2.3,Win32,60.24096386,,,,,,,,,,,6,11,3,3,,,,,,,,,,,,,,,,,,,,,,,,,,,,,,,
6630f086d4f678aaabebe3d9,SCR,2024-06-24_14h45.45.426,LearnStrategy,2023.2.3,Win32,60.24096386,,,,,,,,,,,5,16,3,4,,,,,,,,,,,,,,,,,,,,,,,,,,,,,,,
6630f086d4f678aaabebe3d9,SCR,2024-06-24_14h45.45.426,LearnStrategy,2023.2.3,Win32,60.24096386,,,,,,,,,,,2,06,3,5,,,,,,,,,,,,,,,,,,,,,,,,,,,,,,,
6630f086d4f678aaabebe3d9,SCR,2024-06-24_14h45.45.426,LearnStrategy,2023.2.3,Win32,60.24096386,,,,,,,,,,,4,01,3,6,,,,,,,,,,,,,,,,,,,,,,,,,,,,,,,
6630f086d4f678aaabebe3d9,SCR,2024-06-24_14h45.45.426,LearnStrategy,2023.2.3,Win32,60.24096386,,,,,,,,,,,1,10,3,7,,,,,,,,,,,,,,,,,,,,,,,,,,,,,,,
6630f086d4f678aaabebe3d9,SCR,2024-06-24_14h45.45.426,LearnStrategy,2023.2.3,Win32,60.24096386,,,,,,,,,,,6,10,3,8,,,,,,,,,,,,,,,,,,,,,,,,,,,,,,,
6630f086d4f678aaabebe3d9,SCR,2024-06-24_14h45.45.426,LearnStrategy,2023.2.3,Win32,60.24096386,,,,,,,,,,,2,01,4,1,,,,,,,,,,,,,,,,,,,,,,,,,,,,,,,
6630f086d4f678aaabebe3d9,SCR,2024-06-24_14h45.45.426,LearnStrategy,2023.2.3,Win32,60.24096386,,,,,,,,,,,6,16,4,2,,,,,,,,,,,,,,,,,,,,,,,,,,,,,,,
6630f086d4f678aaabebe3d9,SCR,2024-06-24_14h45.45.426,LearnStrategy,2023.2.3,Win32,60.24096386,,,,,,,,,,,3,14,4,3,,,,,,,,,,,,,,,,,,,,,,,,,,,,,,,
6630f086d4f678aaabebe3d9,SCR,2024-06-24_14h45.45.426,LearnStrategy,2023.2.3,Win32,60.24096386,,,,,,,,,,,7,13,4,4,,,,,,,,,,,,,,,,,,,,,,,,,,,,,,,
6630f086d4f678aaabebe3d9,SCR,2024-06-24_14h45.45.426,LearnStrategy,2023.2.3,Win32,60.24096386,,,,,,,,,,,4,12,4,5,,,,,,,,,,,,,,,,,,,,,,,,,,,,,,,
6630f086d4f678aaabebe3d9,SCR,2024-06-24_14h45.45.426,LearnStrategy,2023.2.3,Win32,60.24096386,,,,,,,,,,,1,01,4,6,,,,,,,,,,,,,,,,,,,,,,,,,,,,,,,
6630f086d4f678aaabebe3d9,SCR,2024-06-24_14h45.45.426,LearnStrategy,2023.2.3,Win32,60.24096386,,,,,,,,,,,3,06,4,7,,,,,,,,,,,,,,,,,,,,,,,,,,,,,,,
6630f086d4f678aaabebe3d9,SCR,2024-06-24_14h45.45.426,LearnStrategy,2023.2.3,Win32,60.24096386,,,,,,,,,,,1,06,4,8,,,,,,,,,,,,,,,,,,,,,,,,,,,,,,,
6630f086d4f678aaabebe3d9,SCR,2024-06-24_14h45.45.426,LearnStrategy,2023.2.3,Win32,60.24096386,,,,,,,,,,,4,09,5,1,,,,,,,,,,,,,,,,,,,,,,,,,,,,,,,
6630f086d4f678aaabebe3d9,SCR,2024-06-24_14h45.45.426,LearnStrategy,2023.2.3,Win32,60.24096386,,,,,,,,,,,3,02,5,2,,,,,,,,,,,,,,,,,,,,,,,,,,,,,,,
6630f086d4f678aaabebe3d9,SCR,2024-06-24_14h45.45.426,LearnStrategy,2023.2.3,Win32,60.24096386,,,,,,,,,,,7,15,5,3,,,,,,,,,,,,,,,,,,,,,,,,,,,,,,,
6630f086d4f678aaabebe3d9,SCR,2024-06-24_14h45.45.426,LearnStrategy,2023.2.3,Win32,60.24096386,,,,,,,,,,,2,04,5,4,,,,,,,,,,,,,,,,,,,,,,,,,,,,,,,
6630f086d4f678aaabebe3d9,SCR,2024-06-24_14h45.45.426,LearnStrategy,2023.2.3,Win32,60.24096386,,,,,,,,,,,4,15,5,5,,,,,,,,,,,,,,,,,,,,,,,,,,,,,,,
6630f086d4f678aaabebe3d9,SCR,2024-06-24_14h45.45.426,LearnStrategy,2023.2.3,Win32,60.24096386,,,,,,,,,,,7,16,5,6,,,,,,,,,,,,,,,,,,,,,,,,,,,,,,,
6630f086d4f678aaabebe3d9,SCR,2024-06-24_14h45.45.426,LearnStrategy,2023.2.3,Win32,60.24096386,,,,,,,,,,,6,12,5,7,,,,,,,,,,,,,,,,,,,,,,,,,,,,,,,
6630f086d4f678aaabebe3d9,SCR,2024-06-24_14h45.45.426,LearnStrategy,2023.2.3,Win32,60.24096386,,,,,,,,,,,6,15,5,8,,,,,,,,,,,,,,,,,,,,,,,,,,,,,,,
6630f086d4f678aaabebe3d9,SCR,2024-06-24_14h45.45.426,LearnStrategy,2023.2.3,Win32,60.24096386,,,,,,,,,,,4,11,6,1,,,,,,,,,,,,,,,,,,,,,,,,,,,,,,,
6630f086d4f678aaabebe3d9,SCR,2024-06-24_14h45.45.426,LearnStrategy,2023.2.3,Win32,60.24096386,,,,,,,,,,,1,02,6,2,,,,,,,,,,,,,,,,,,,,,,,,,,,,,,,
6630f086d4f678aaabebe3d9,SCR,2024-06-24_14h45.45.426,LearnStrategy,2023.2.3,Win32,60.24096386,,,,,,,,,,,8,05,6,3,,,,,,,,,,,,,,,,,,,,,,,,,,,,,,,
6630f086d4f678aaabebe3d9,SCR,2024-06-24_14h45.45.426,LearnStrategy,2023.2.3,Win32,60.24096386,,,,,,,,,,,5,02,6,4,,,,,,,,,,,,,,,,,,,,,,,,,,,,,,,
6630f086d4f678aaabebe3d9,SCR,2024-06-24_14h45.45.426,LearnStrategy,2023.2.3,Win32,60.24096386,,,,,,,,,,,5,06,6,5,,,,,,,,,,,,,,,,,,,,,,,,,,,,,,,
6630f086d4f678aaabebe3d9,SCR,2024-06-24_14h45.45.426,LearnStrategy,2023.2.3,Win32,60.24096386,,,,,,,,,,,1,04,6,6,,,,,,,,,,,,,,,,,,,,,,,,,,,,,,,
6630f086d4f678aaabebe3d9,SCR,2024-06-24_14h45.45.426,LearnStrategy,2023.2.3,Win32,60.24096386,,,,,,,,,,,6,06,6,7,,,,,,,,,,,,,,,,,,,,,,,,,,,,,,,
6630f086d4f678aaabebe3d9,SCR,2024-06-24_14h45.45.426,LearnStrategy,2023.2.3,Win32,60.24096386,,,,,,,,,,,3,07,6,8,,,,,,,,,,,,,,,,,,,,,,,,,,,,,,,