participant,condition,date,expName,psychopyVersion,OS,frameRate,block,phase,trial,learn_mouse.x,learn_mouse.y,learn_mouse.leftButton,learn_mouse.midButton,learn_mouse.rightButton,learn_mouse.time,learn_mouse.clicked_name,cat,token,row,col,t_select,cat_mouse_l.x,cat_mouse_l.y,cat_mouse_l.leftButton,cat_mouse_l.midButton,cat_mouse_l.rightButton,cat_mouse_l.time,cat_mouse_l.clicked_name,resp,t_resp,corr,train_trials.thisRepN,train_trials.thisTrialN,train_trials.thisN,train_trials.thisIndex,train_trials.ran,cat_mouse_t.x,cat_mouse_t.y,cat_mouse_t.leftButton,cat_mouse_t.midButton,cat_mouse_t.rightButton,cat_mouse_t.time,cat_mouse_t.clicked_name,test_trials.thisRepN,test_trials.thisTrialN,test_trials.thisN,test_trials.thisIndex,test_trials.ran
6630da710ce3cc42bc2e3a4b,SCN,2024-06-10_14h40.16.617,LearnStrategy,2023.2.3,MacIntel,62.5,,,,,,,,,,,,,,,,,,,,,,,,,,,,,,,,,,,,,,,,,,
6630da710ce3cc42bc2e3a4b,SCN,2024-06-10_14h40.16.617,LearnStrategy,2023.2.3,MacIntel,62.5,1,1,1,0.100967068,-0.0713345,1,0,0,3.7219,Basalt_02,2,02,3,5,3.722,0.183978475,-0.399833577,1,0,0,6.177,Peridotite_rect,7,6.177,0,0,0,0,0,1,,,,,,,,,,,,
6630da710ce3cc42bc2e3a4b,SCN,2024-06-10_14h40.16.617,LearnStrategy,2023.2.3,MacIntel,62.5,1,1,2,-0.563257073,-0.101359456,1,0,0,3.098,Obsidian_06,5,06,3,1,3.098,0.154457669,-0.246107313,1,0,0,8.2688,Diorite_rect,3,8.269,0,1,0,1,0,1,,,,,,,,,,,,
6630da710ce3cc42bc2e3a4b,SCN,2024-06-10_14h40.16.617,LearnStrategy,2023.2.3,MacIntel,62.5,1,1,3,-0.204294569,0.078062371,1,0,0,8.2148,Peridotite_13,7,13,4,3,8.215,-0.400447049,-0.243714735,1,0,0,2.1106,Andesite_rect,1,2.111,0,2,0,2,0,1,,,,,,,,,,,,
6630da710ce3cc42bc2e3a4b,SCN,2024-06-10_14h40.16.617,LearnStrategy,2023.2.3,MacIntel,62.5,1,1,4,0.53440918,0.101434699,1,0,0,2.9985,Obsidian_10,5,10,4,8,2.998,0.398573134,-0.258724908,1,0,0,1.7848,Gabbro_rect,4,1.785,0,3,0,3,0,1,,,,,,,,,,,,
6630da710ce3cc42bc2e3a4b,SCN,2024-06-10_14h40.16.617,LearnStrategy,2023.2.3,MacIntel,62.5,1,1,5,-0.23669576,-0.254439087,1,0,0,2.1642,Gabbro_14,4,14,2,3,2.164,0.381669651,-0.391655884,1,0,0,4.5159,Pumice_rect,8,4.516,0,4,0,4,0,1,,,,,,,,,,,,
6630da710ce3cc42bc2e3a4b,SCN,2024-06-10_14h40.16.617,LearnStrategy,2023.2.3,MacIntel,62.5,1,1,6,-0.090886976,0.278601956,1,0,0,1.7309,Pumice_14,8,14,5,4,1.731,0.428371311,-0.397180108,1,0,0,1.4297,Pumice_rect,8,1.43,1,5,0,5,0,1,,,,,,,,,,,,
6630da710ce3cc42bc2e3a4b,SCN,2024-06-10_14h40.16.617,LearnStrategy,2023.2.3,MacIntel,62.5,1,1,7,-0.235542874,-0.421383599,1,0,0,1.7334,Peridotite_04,7,04,1,3,1.733,0.089815809,-0.229987929,1,0,0,2.1644,Diorite_rect,3,2.164,0,6,0,6,0,1,,,,,,,,,,,,
6630da710ce3cc42bc2e3a4b,SCN,2024-06-10_14h40.16.617,LearnStrategy,2023.2.3,MacIntel,62.5,1,1,8,-0.537658251,0.076862996,1,0,0,2.1485,Pumice_08,8,08,4,1,2.148,0.370114204,-0.253386909,1,0,0,5.1406,Gabbro_rect,4,5.141,0,7,0,7,0,1,,,,,,,,,,,,
6630da710ce3cc42bc2e3a4b,SCN,2024-06-10_14h40.16.617,LearnStrategy,2023.2.3,MacIntel,62.5,1,1,9,-0.070130547,0.380002492,1,0,0,3.5984,Andesite_01,1,01,6,4,3.598,-0.345592719,-0.246975776,1,0,0,3.0527,Andesite_rect,1,3.053,1,8,0,8,0,1,,,,,,,,,,,,
6630da710ce3cc42bc2e3a4b,SCN,2024-06-10_14h40.16.617,LearnStrategy,2023.2.3,MacIntel,62.5,1,1,10,0.221584337,0.074630669,1,0,0,3.365,Basalt_09,2,09,4,6,3.365,-0.35130995,-0.380914985,1,0,0,6.2497,Obsidian_rect,5,6.25,0,9,0,9,0,1,,,,,,,,,,,,
6630da710ce3cc42bc2e3a4b,SCN,2024-06-10_14h40.16.617,LearnStrategy,2023.2.3,MacIntel,62.5,1,1,11,0.59723253,-0.438504096,1,0,0,2.9992,Gabbro_13,4,13,1,8,2.999,0.425795492,-0.262433811,1,0,0,1.8318,Gabbro_rect,4,1.832,1,10,0,10,0,1,,,,,,,,,,,,
6630da710ce3cc42bc2e3a4b,SCN,2024-06-10_14h40.16.617,LearnStrategy,2023.2.3,MacIntel,62.5,1,1,12,-0.394595337,0.251529863,1,0,0,2.1665,Obsidian_16,5,16,5,2,2.166,0.170167779,-0.267095066,1,0,0,1.7765,Diorite_rect,3,1.776,0,11,0,11,0,1,,,,,,,,,,,,
6630da710ce3cc42bc2e3a4b,SCN,2024-06-10_14h40.16.617,LearnStrategy,2023.2.3,MacIntel,62.5,1,1,13,-0.539093238,0.390748935,1,0,0,2.3643,Obsidian_02,5,02,6,1,2.364,-0.389646335,-0.39866862,1,0,0,2.9052,Obsidian_rect,5,2.905,1,12,0,12,0,1,,,,,,,,,,,,
6630da710ce3cc42bc2e3a4b,SCN,2024-06-10_14h40.16.617,LearnStrategy,2023.2.3,MacIntel,62.5,1,1,14,0.0677889,0.284757487,1,0,0,3.283,Pegmatite_15,6,15,5,5,3.283,0.12654107,-0.252952135,1,0,0,2.3064,Diorite_rect,3,2.306,0,13,0,13,0,1,,,,,,,,,,,,
6630da710ce3cc42bc2e3a4b,SCN,2024-06-10_14h40.16.617,LearnStrategy,2023.2.3,MacIntel,62.5,1,1,15,-0.517874959,-0.422776286,1,0,0,2.3306,Diorite_10,3,10,1,1,2.331,-0.150624525,-0.249044868,1,0,0,3.381,Basalt_rect,2,3.381,0,14,0,14,0,1,,,,,,,,,,,,
6630da710ce3cc42bc2e3a4b,SCN,2024-06-10_14h40.16.617,LearnStrategy,2023.2.3,MacIntel,62.5,1,1,16,0.409903429,-0.38849155,1,0,0,6.332,Basalt_04,2,04,1,7,6.332,-0.062547201,-0.245391914,1,0,0,3.0721,Basalt_rect,2,3.072,1,15,0,15,0,1,,,,,,,,,,,,
6630da710ce3cc42bc2e3a4b,SCN,2024-06-10_14h40.16.617,LearnStrategy,2023.2.3,MacIntel,62.5,1,2,1,,,,,,,,2,12,,,,,,,,,,,8,4.49,0,,,,,,0.387846544,-0.399726969,1,0,0,4.4897,Pumice_rect,0,0,0,0,1
6630da710ce3cc42bc2e3a4b,SCN,2024-06-10_14h40.16.617,LearnStrategy,2023.2.3,MacIntel,62.5,1,2,2,,,,,,,,1,07,,,,,,,,,,,7,3.065,0,,,,,,0.117872518,-0.39513265,1,0,0,3.0651,Peridotite_rect,1,0,1,0,1
6630da710ce3cc42bc2e3a4b,SCN,2024-06-10_14h40.16.617,LearnStrategy,2023.2.3,MacIntel,62.5,1,2,3,,,,,,,,4,10,,,,,,,,,,,8,3.867,0,,,,,,0.387851698,-0.401837633,1,0,0,3.867,Pumice_rect,2,0,2,0,1
6630da710ce3cc42bc2e3a4b,SCN,2024-06-10_14h40.16.617,LearnStrategy,2023.2.3,MacIntel,62.5,1,2,4,,,,,,,,3,14,,,,,,,,,,,6,8.163,0,,,,,,-0.071472032,-0.398558214,1,0,0,8.163,Pegmatite_rect,3,0,3,0,1
6630da710ce3cc42bc2e3a4b,SCN,2024-06-10_14h40.16.617,LearnStrategy,2023.2.3,MacIntel,62.5,1,2,5,,,,,,,,5,14,,,,,,,,,,,5,21.281,1,,,,,,-0.357003038,-0.412297228,1,0,0,21.2815,Obsidian_rect,4,0,4,0,1
6630da710ce3cc42bc2e3a4b,SCN,2024-06-10_14h40.16.617,LearnStrategy,2023.2.3,MacIntel,62.5,1,2,6,,,,,,,,5,08,,,,,,,,,,,5,10.712,1,,,,,,-0.364610596,-0.418283352,1,0,0,10.7123,Obsidian_rect,5,0,5,0,1
6630da710ce3cc42bc2e3a4b,SCN,2024-06-10_14h40.16.617,LearnStrategy,2023.2.3,MacIntel,62.5,1,2,7,,,,,,,,1,05,,,,,,,,,,,7,4.363,0,,,,,,0.085330539,-0.415218641,1,0,0,4.363,Peridotite_rect,6,0,6,0,1
6630da710ce3cc42bc2e3a4b,SCN,2024-06-10_14h40.16.617,LearnStrategy,2023.2.3,MacIntel,62.5,1,2,8,,,,,,,,7,15,,,,,,,,,,,6,2.167,0,,,,,,-0.076308187,-0.384355401,1,0,0,2.1669,Pegmatite_rect,7,0,7,0,1
6630da710ce3cc42bc2e3a4b,SCN,2024-06-10_14h40.16.617,LearnStrategy,2023.2.3,MacIntel,62.5,1,2,9,,,,,,,,8,02,,,,,,,,,,,8,1.831,1,,,,,,0.371365696,-0.407892049,1,0,0,1.8306,Pumice_rect,8,0,8,0,1
6630da710ce3cc42bc2e3a4b,SCN,2024-06-10_14h40.16.617,LearnStrategy,2023.2.3,MacIntel,62.5,1,2,10,,,,,,,,7,07,,,,,,,,,,,3,2.109,0,,,,,,0.193262872,-0.254490492,1,0,0,2.1088,Diorite_rect,9,0,9,0,1
6630da710ce3cc42bc2e3a4b,SCN,2024-06-10_14h40.16.617,LearnStrategy,2023.2.3,MacIntel,62.5,1,2,11,,,,,,,,2,05,,,,,,,,,,,2,2.334,1,,,,,,-0.157885878,-0.243317261,1,0,0,2.3341,Basalt_rect,10,0,10,0,1
6630da710ce3cc42bc2e3a4b,SCN,2024-06-10_14h40.16.617,LearnStrategy,2023.2.3,MacIntel,62.5,1,2,12,,,,,,,,3,07,,,,,,,,,,,4,3.165,0,,,,,,0.37439426,-0.269343465,1,0,0,3.165,Gabbro_rect,11,0,11,0,1
6630da710ce3cc42bc2e3a4b,SCN,2024-06-10_14h40.16.617,LearnStrategy,2023.2.3,MacIntel,62.5,1,2,13,,,,,,,,6,06,,,,,,,,,,,1,4.98,0,,,,,,-0.369119263,-0.25413269,1,0,0,4.98,Andesite_rect,12,0,12,0,1
6630da710ce3cc42bc2e3a4b,SCN,2024-06-10_14h40.16.617,LearnStrategy,2023.2.3,MacIntel,62.5,1,2,14,,,,,,,,6,08,,,,,,,,,,,5,5.331,0,,,,,,-0.365562914,-0.414738159,1,0,0,5.3312,Obsidian_rect,13,0,13,0,1
6630da710ce3cc42bc2e3a4b,SCN,2024-06-10_14h40.16.617,LearnStrategy,2023.2.3,MacIntel,62.5,1,2,15,,,,,,,,4,12,,,,,,,,,,,4,3.093,1,,,,,,0.339082303,-0.265367228,1,0,0,3.0933,Gabbro_rect,14,0,14,0,1
6630da710ce3cc42bc2e3a4b,SCN,2024-06-10_14h40.16.617,LearnStrategy,2023.2.3,MacIntel,62.5,1,2,16,,,,,,,,8,06,,,,,,,,,,,8,1.347,1,,,,,,0.380662571,-0.400960015,1,0,0,1.3468,Pumice_rect,15,0,15,0,1
6630da710ce3cc42bc2e3a4b,SCN,2024-06-10_14h40.16.617,LearnStrategy,2023.2.3,MacIntel,62.5,2,1,1,-0.534154934,0.397373776,1,0,0,2.9966,Obsidian_02,5,02,6,1,2.997,-0.353303663,-0.385854153,1,0,0,4.5643,Obsidian_rect,5,4.564,1,0,0,0,0,1,,,,,,,,,,,,
6630da710ce3cc42bc2e3a4b,SCN,2024-06-10_14h40.16.617,LearnStrategy,2023.2.3,MacIntel,62.5,2,1,2,-0.409467773,0.433447198,1,0,0,4.312,Pegmatite_09,6,09,6,2,4.312,-0.347531806,-0.236321886,1,0,0,4.7851,Andesite_rect,1,4.785,0,1,0,1,0,1,,,,,,,,,,,,
6630da710ce3cc42bc2e3a4b,SCN,2024-06-10_14h40.16.617,LearnStrategy,2023.2.3,MacIntel,62.5,2,1,3,-0.223383179,0.403190511,1,0,0,2.3138,Basalt_14,2,14,6,3,2.314,0.414951308,-0.409344415,1,0,0,1.634,Pumice_rect,8,1.634,0,2,0,2,0,1,,,,,,,,,,,,
6630da710ce3cc42bc2e3a4b,SCN,2024-06-10_14h40.16.617,LearnStrategy,2023.2.3,MacIntel,62.5,2,1,4,-0.531634538,0.272614424,1,0,0,8.8817,Obsidian_07,5,07,5,1,8.882,-0.336440192,-0.397776218,1,0,0,1.3268,Obsidian_rect,5,1.327,1,3,0,3,0,1,,,,,,,,,,,,
6630da710ce3cc42bc2e3a4b,SCN,2024-06-10_14h40.16.617,LearnStrategy,2023.2.3,MacIntel,62.5,2,1,5,-0.518183865,-0.275587023,1,0,0,1.9132,Pegmatite_03,6,03,2,1,1.913,-0.085361938,-0.412372233,1,0,0,2.4045,Pegmatite_rect,6,2.404,1,4,0,4,0,1,,,,,,,,,,,,
6630da710ce3cc42bc2e3a4b,SCN,2024-06-10_14h40.16.617,LearnStrategy,2023.2.3,MacIntel,62.5,2,1,6,0.105085517,-0.42619534,1,0,0,2.6327,Diorite_13,3,13,1,5,2.633,0.107083605,-0.387767741,1,0,0,2.9974,Peridotite_rect,7,2.997,0,5,0,5,0,1,,,,,,,,,,,,
6630da710ce3cc42bc2e3a4b,SCN,2024-06-10_14h40.16.617,LearnStrategy,2023.2.3,MacIntel,62.5,2,1,7,-0.286722887,-0.097818129,1,0,0,3.6989,Diorite_06,3,06,3,3,3.699,0.155368313,-0.388665093,1,0,0,3.6662,Peridotite_rect,7,3.666,0,6,0,6,0,1,,,,,,,,,,,,
6630da710ce3cc42bc2e3a4b,SCN,2024-06-10_14h40.16.617,LearnStrategy,2023.2.3,MacIntel,62.5,2,1,8,-0.39326633,0.096953498,1,0,0,5.9132,Peridotite_02,7,02,4,2,5.913,0.135739543,-0.253716159,1,0,0,2.7199,Diorite_rect,3,2.72,0,7,0,7,0,1,,,,,,,,,,,,
6630da710ce3cc42bc2e3a4b,SCN,2024-06-10_14h40.16.617,LearnStrategy,2023.2.3,MacIntel,62.5,2,1,9,0.524906684,0.089237366,1,0,0,1.6166,Obsidian_10,5,10,4,8,1.617,-0.369789225,-0.410946927,1,0,0,1.448,Obsidian_rect,5,1.448,1,8,0,8,0,1,,,,,,,,,,,,
6630da710ce3cc42bc2e3a4b,SCN,2024-06-10_14h40.16.617,LearnStrategy,2023.2.3,MacIntel,62.5,2,1,10,0.540426975,-0.27729187,1,0,0,7.215,Gabbro_11,4,11,2,8,7.215,0.357587077,-0.243279215,1,0,0,2.0735,Gabbro_rect,4,2.074,1,9,0,9,0,1,,,,,,,,,,,,
6630da710ce3cc42bc2e3a4b,SCN,2024-06-10_14h40.16.617,LearnStrategy,2023.2.3,MacIntel,62.5,2,1,11,-0.116022068,-0.284115533,1,0,0,5.0146,Peridotite_12,7,12,2,4,5.015,-0.082476061,-0.388279283,1,0,0,2.2397,Pegmatite_rect,6,2.24,0,10,0,10,0,1,,,,,,,,,,,,
6630da710ce3cc42bc2e3a4b,SCN,2024-06-10_14h40.16.617,LearnStrategy,2023.2.3,MacIntel,62.5,2,1,12,0.093756307,0.071302253,1,0,0,3.9485,Basalt_08,2,08,4,5,3.948,0.451081543,-0.238757663,1,0,0,1.7747,Gabbro_rect,4,1.775,0,11,0,11,0,1,,,,,,,,,,,,
6630da710ce3cc42bc2e3a4b,SCN,2024-06-10_14h40.16.617,LearnStrategy,2023.2.3,MacIntel,62.5,2,1,13,0.097046577,-0.259942559,1,0,0,3.0155,Peridotite_14,7,14,2,5,3.015,-0.347316081,-0.247740207,1,0,0,3.5993,Andesite_rect,1,3.599,0,12,0,12,0,1,,,,,,,,,,,,
6630da710ce3cc42bc2e3a4b,SCN,2024-06-10_14h40.16.617,LearnStrategy,2023.2.3,MacIntel,62.5,2,1,14,-0.57153673,0.114365234,1,0,0,2.7796,Pumice_08,8,08,4,1,2.78,-0.132360365,-0.23823371,1,0,0,2.1598,Basalt_rect,2,2.16,0,13,0,13,0,1,,,,,,,,,,,,
6630da710ce3cc42bc2e3a4b,SCN,2024-06-10_14h40.16.617,LearnStrategy,2023.2.3,MacIntel,62.5,2,1,15,0.084682414,0.08844028,1,0,0,22.1662,Basalt_08,2,08,4,5,22.166,-0.07147305,-0.245751207,1,0,0,2.3384,Basalt_rect,2,2.338,1,14,0,14,0,1,,,,,,,,,,,,
6630da710ce3cc42bc2e3a4b,SCN,2024-06-10_14h40.16.617,LearnStrategy,2023.2.3,MacIntel,62.5,2,1,16,-0.260312432,-0.378006456,1,0,0,1.6653,Peridotite_04,7,04,1,3,1.665,-0.139605509,-0.398305189,1,0,0,3.0018,Pegmatite_rect,6,3.002,0,15,0,15,0,1,,,,,,,,,,,,
6630da710ce3cc42bc2e3a4b,SCN,2024-06-10_14h40.16.617,LearnStrategy,2023.2.3,MacIntel,62.5,2,2,1,,,,,,,,7,08,,,,,,,,,,,7,4.615,1,,,,,,0.114404568,-0.385208469,1,0,0,4.6155,Peridotite_rect,0,0,0,0,1
6630da710ce3cc42bc2e3a4b,SCN,2024-06-10_14h40.16.617,LearnStrategy,2023.2.3,MacIntel,62.5,2,2,2,,,,,,,,3,12,,,,,,,,,,,6,3.279,0,,,,,,-0.100802884,-0.384126451,1,0,0,3.279,Pegmatite_rect,1,0,1,0,1
6630da710ce3cc42bc2e3a4b,SCN,2024-06-10_14h40.16.617,LearnStrategy,2023.2.3,MacIntel,62.5,2,2,3,,,,,,,,5,09,,,,,,,,,,,5,1.134,1,,,,,,-0.378493856,-0.383658176,1,0,0,1.1343,Obsidian_rect,2,0,2,0,1
6630da710ce3cc42bc2e3a4b,SCN,2024-06-10_14h40.16.617,LearnStrategy,2023.2.3,MacIntel,62.5,2,2,4,,,,,,,,7,16,,,,,,,,,,,1,2.964,0,,,,,,-0.408863051,-0.260453966,1,0,0,2.9637,Andesite_rect,3,0,3,0,1
6630da710ce3cc42bc2e3a4b,SCN,2024-06-10_14h40.16.617,LearnStrategy,2023.2.3,MacIntel,62.5,2,2,5,,,,,,,,8,05,,,,,,,,,,,8,3.225,1,,,,,,0.390612793,-0.399979858,1,0,0,3.2247,Pumice_rect,4,0,4,0,1
6630da710ce3cc42bc2e3a4b,SCN,2024-06-10_14h40.16.617,LearnStrategy,2023.2.3,MacIntel,62.5,2,2,6,,,,,,,,3,09,,,,,,,,,,,7,2.296,0,,,,,,0.108390571,-0.406799723,1,0,0,2.2957,Peridotite_rect,5,0,5,0,1
6630da710ce3cc42bc2e3a4b,SCN,2024-06-10_14h40.16.617,LearnStrategy,2023.2.3,MacIntel,62.5,2,2,7,,,,,,,,1,06,,,,,,,,,,,6,1.667,0,,,,,,-0.097595418,-0.385157674,1,0,0,1.6665,Pegmatite_rect,6,0,6,0,1
6630da710ce3cc42bc2e3a4b,SCN,2024-06-10_14h40.16.617,LearnStrategy,2023.2.3,MacIntel,62.5,2,2,8,,,,,,,,2,11,,,,,,,,,,,2,1.769,1,,,,,,-0.097743937,-0.241568468,1,0,0,1.7691,Basalt_rect,7,0,7,0,1
6630da710ce3cc42bc2e3a4b,SCN,2024-06-10_14h40.16.617,LearnStrategy,2023.2.3,MacIntel,62.5,2,2,9,,,,,,,,1,11,,,,,,,,,,,2,5.482,0,,,,,,-0.126972182,-0.249660848,1,0,0,5.4819,Basalt_rect,8,0,8,0,1
6630da710ce3cc42bc2e3a4b,SCN,2024-06-10_14h40.16.617,LearnStrategy,2023.2.3,MacIntel,62.5,2,2,10,,,,,,,,8,15,,,,,,,,,,,8,1.497,1,,,,,,0.38216078,-0.397048679,1,0,0,1.4973,Pumice_rect,9,0,9,0,1
6630da710ce3cc42bc2e3a4b,SCN,2024-06-10_14h40.16.617,LearnStrategy,2023.2.3,MacIntel,62.5,2,2,11,,,,,,,,6,10,,,,,,,,,,,1,3.507,0,,,,,,-0.374255914,-0.252500746,1,0,0,3.5074,Andesite_rect,10,0,10,0,1
6630da710ce3cc42bc2e3a4b,SCN,2024-06-10_14h40.16.617,LearnStrategy,2023.2.3,MacIntel,62.5,2,2,12,,,,,,,,6,13,,,,,,,,,,,3,1.797,0,,,,,,0.13066508,-0.251626316,1,0,0,1.7968,Diorite_rect,11,0,11,0,1
6630da710ce3cc42bc2e3a4b,SCN,2024-06-10_14h40.16.617,LearnStrategy,2023.2.3,MacIntel,62.5,2,2,13,,,,,,,,4,01,,,,,,,,,,,2,2.515,0,,,,,,-0.088448012,-0.261507975,1,0,0,2.5146,Basalt_rect,12,0,12,0,1
6630da710ce3cc42bc2e3a4b,SCN,2024-06-10_14h40.16.617,LearnStrategy,2023.2.3,MacIntel,62.5,2,2,14,,,,,,,,5,11,,,,,,,,,,,5,1.181,1,,,,,,-0.344328206,-0.397126397,1,0,0,1.1806,Obsidian_rect,13,0,13,0,1
6630da710ce3cc42bc2e3a4b,SCN,2024-06-10_14h40.16.617,LearnStrategy,2023.2.3,MacIntel,62.5,2,2,15,,,,,,,,4,15,,,,,,,,,,,7,2.8,0,,,,,,0.121594306,-0.407302992,1,0,0,2.8001,Peridotite_rect,14,0,14,0,1
6630da710ce3cc42bc2e3a4b,SCN,2024-06-10_14h40.16.617,LearnStrategy,2023.2.3,MacIntel,62.5,2,2,16,,,,,,,,2,06,,,,,,,,,,,4,4.052,0,,,,,,0.391347249,-0.269352214,1,0,0,4.0523,Gabbro_rect,15,0,15,0,1
6630da710ce3cc42bc2e3a4b,SCN,2024-06-10_14h40.16.617,LearnStrategy,2023.2.3,MacIntel,62.5,3,1,1,-0.054242622,0.388013,1,0,0,7.9514,Andesite_01,1,01,6,4,7.951,0.113921441,-0.38960239,1,0,0,1.3446,Peridotite_rect,7,1.345,0,0,0,0,0,1,,,,,,,,,,,,
6630da710ce3cc42bc2e3a4b,SCN,2024-06-10_14h40.16.617,LearnStrategy,2023.2.3,MacIntel,62.5,3,1,2,0.102450426,0.407696838,1,0,0,1.5474,Pegmatite_12,6,12,6,5,1.547,-0.387535536,-0.25744161,1,0,0,4.3781,Andesite_rect,1,4.378,0,1,0,1,0,1,,,,,,,,,,,,
6630da710ce3cc42bc2e3a4b,SCN,2024-06-10_14h40.16.617,LearnStrategy,2023.2.3,MacIntel,62.5,3,1,3,0.105724419,0.263556366,1,0,0,1.397,Pegmatite_15,6,15,5,5,1.397,-0.099522841,-0.419963311,1,0,0,1.432,Pegmatite_rect,6,1.432,1,2,0,2,0,1,,,,,,,,,,,,
6630da710ce3cc42bc2e3a4b,SCN,2024-06-10_14h40.16.617,LearnStrategy,2023.2.3,MacIntel,62.5,3,1,4,0.409907091,-0.103961249,1,0,0,5.2149,Andesite_04,1,04,3,7,5.215,0.138781874,-0.421388482,1,0,0,4.0069,Peridotite_rect,7,4.007,0,3,0,3,0,1,,,,,,,,,,,,
6630da710ce3cc42bc2e3a4b,SCN,2024-06-10_14h40.16.617,LearnStrategy,2023.2.3,MacIntel,62.5,3,1,5,0.430991753,0.101083917,1,0,0,1.4309,Diorite_11,3,11,4,7,1.431,-0.3639878,-0.241904161,1,0,0,1.1859,Andesite_rect,1,1.186,0,4,0,4,0,1,,,,,,,,,,,,
6630da710ce3cc42bc2e3a4b,SCN,2024-06-10_14h40.16.617,LearnStrategy,2023.2.3,MacIntel,62.5,3,1,6,-0.375761244,-0.13210083,1,0,0,1.3468,Gabbro_16,4,16,3,2,1.347,0.40528144,-0.250119425,1,0,0,5.1318,Gabbro_rect,4,5.132,1,5,0,5,0,1,,,,,,,,,,,,
6630da710ce3cc42bc2e3a4b,SCN,2024-06-10_14h40.16.617,LearnStrategy,2023.2.3,MacIntel,62.5,3,1,7,-0.537469906,-0.29401496,1,0,0,2.3645,Pegmatite_03,6,03,2,1,2.365,-0.35930698,-0.271893717,1,0,0,3.0004,Andesite_rect,1,3,0,6,0,6,0,1,,,,,,,,,,,,
6630da710ce3cc42bc2e3a4b,SCN,2024-06-10_14h40.16.617,LearnStrategy,2023.2.3,MacIntel,62.5,3,1,8,0.353368734,0.080678847,1,0,0,2.1159,Diorite_11,3,11,4,7,2.116,0.16036343,-0.411202596,1,0,0,2.1064,Peridotite_rect,7,2.106,0,7,0,7,0,1,,,,,,,,,,,,
6630da710ce3cc42bc2e3a4b,SCN,2024-06-10_14h40.16.617,LearnStrategy,2023.2.3,MacIntel,62.5,3,1,9,-0.10844279,0.243989631,1,0,0,1.7652,Pumice_14,8,14,5,4,1.765,0.409427897,-0.415270182,1,0,0,1.799,Pumice_rect,8,1.799,1,8,0,8,0,1,,,,,,,,,,,,
6630da710ce3cc42bc2e3a4b,SCN,2024-06-10_14h40.16.617,LearnStrategy,2023.2.3,MacIntel,62.5,3,1,10,-0.091259087,-0.411663005,1,0,0,1.6321,Andesite_03,1,03,1,4,1.632,-0.122842611,-0.260034248,1,0,0,1.4494,Basalt_rect,2,1.449,0,9,0,9,0,1,,,,,,,,,,,,
6630da710ce3cc42bc2e3a4b,SCN,2024-06-10_14h40.16.617,LearnStrategy,2023.2.3,MacIntel,62.5,3,1,11,-0.255185343,-0.261145426,1,0,0,1.2993,Gabbro_14,4,14,2,3,1.299,-0.324279853,-0.243519694,1,0,0,1.0848,Andesite_rect,1,1.085,0,10,0,10,0,1,,,,,,,,,,,,
6630da710ce3cc42bc2e3a4b,SCN,2024-06-10_14h40.16.617,LearnStrategy,2023.2.3,MacIntel,62.5,3,1,12,0.558429362,0.102206963,1,0,0,1.8649,Obsidian_10,5,10,4,8,1.865,-0.362502509,-0.381179131,1,0,0,1.2857,Obsidian_rect,5,1.286,1,11,0,11,0,1,,,,,,,,,,,,
6630da710ce3cc42bc2e3a4b,SCN,2024-06-10_14h40.16.617,LearnStrategy,2023.2.3,MacIntel,62.5,3,1,13,0.086137221,0.410709178,1,0,0,2.4476,Pegmatite_12,6,12,6,5,2.448,-0.202829725,-0.408847453,1,0,0,2.6848,Pegmatite_rect,6,2.685,1,12,0,12,0,1,,,,,,,,,,,,
6630da710ce3cc42bc2e3a4b,SCN,2024-06-10_14h40.16.617,LearnStrategy,2023.2.3,MacIntel,62.5,3,1,14,0.549388021,-0.112398275,1,0,0,2.1998,Pegmatite_07,6,07,3,8,2.2,-0.127121582,-0.419767727,1,0,0,1.2495,Pegmatite_rect,6,1.25,1,13,0,13,0,1,,,,,,,,,,,,
6630da710ce3cc42bc2e3a4b,SCN,2024-06-10_14h40.16.617,LearnStrategy,2023.2.3,MacIntel,62.5,3,1,15,0.23974311,0.076351318,1,0,0,10.9648,Basalt_09,2,09,4,6,10.965,0.433230387,-0.234076402,1,0,0,1.2183,Gabbro_rect,4,1.218,0,14,0,14,0,1,,,,,,,,,,,,
6630da710ce3cc42bc2e3a4b,SCN,2024-06-10_14h40.16.617,LearnStrategy,2023.2.3,MacIntel,62.5,3,1,16,0.551380208,-0.277957899,1,0,0,2.0476,Gabbro_11,4,11,2,8,2.048,0.445238173,-0.261553277,1,0,0,1.0679,Gabbro_rect,4,1.068,1,15,0,15,0,1,,,,,,,,,,,,
6630da710ce3cc42bc2e3a4b,SCN,2024-06-10_14h40.16.617,LearnStrategy,2023.2.3,MacIntel,62.5,3,2,1,,,,,,,,8,13,,,,,,,,,,,8,7.047,1,,,,,,0.403769396,-0.403389079,1,0,0,7.0474,Pumice_rect,0,0,0,0,1
6630da710ce3cc42bc2e3a4b,SCN,2024-06-10_14h40.16.617,LearnStrategy,2023.2.3,MacIntel,62.5,3,2,2,,,,,,,,4,05,,,,,,,,,,,3,8.263,0,,,,,,0.117039795,-0.258478868,1,0,0,8.2626,Diorite_rect,1,0,1,0,1
6630da710ce3cc42bc2e3a4b,SCN,2024-06-10_14h40.16.617,LearnStrategy,2023.2.3,MacIntel,62.5,3,2,3,,,,,,,,5,12,,,,,,,,,,,5,1.477,1,,,,,,-0.404340549,-0.404572686,1,0,0,1.4768,Obsidian_rect,2,0,2,0,1
6630da710ce3cc42bc2e3a4b,SCN,2024-06-10_14h40.16.617,LearnStrategy,2023.2.3,MacIntel,62.5,3,2,4,,,,,,,,7,06,,,,,,,,,,,5,21.178,0,,,,,,-0.358509148,-0.412359144,1,0,0,21.1781,Obsidian_rect,3,0,3,0,1
6630da710ce3cc42bc2e3a4b,SCN,2024-06-10_14h40.16.617,LearnStrategy,2023.2.3,MacIntel,62.5,3,2,5,,,,,,,,1,02,,,,,,,,,,,7,5.804,0,,,,,,0.129732123,-0.382666558,1,0,0,5.8038,Peridotite_rect,4,0,4,0,1
6630da710ce3cc42bc2e3a4b,SCN,2024-06-10_14h40.16.617,LearnStrategy,2023.2.3,MacIntel,62.5,3,2,6,,,,,,,,6,05,,,,,,,,,,,1,2.012,0,,,,,,-0.36886756,-0.256095988,1,0,0,2.012,Andesite_rect,5,0,5,0,1
6630da710ce3cc42bc2e3a4b,SCN,2024-06-10_14h40.16.617,LearnStrategy,2023.2.3,MacIntel,62.5,3,2,7,,,,,,,,2,16,,,,,,,,,,,4,3.006,0,,,,,,0.419899631,-0.235843506,1,0,0,3.0056,Gabbro_rect,6,0,6,0,1
6630da710ce3cc42bc2e3a4b,SCN,2024-06-10_14h40.16.617,LearnStrategy,2023.2.3,MacIntel,62.5,3,2,8,,,,,,,,8,09,,,,,,,,,,,8,1.363,1,,,,,,0.391558431,-0.398047892,1,0,0,1.3634,Pumice_rect,7,0,7,0,1
6630da710ce3cc42bc2e3a4b,SCN,2024-06-10_14h40.16.617,LearnStrategy,2023.2.3,MacIntel,62.5,3,2,9,,,,,,,,4,08,,,,,,,,,,,2,2.478,0,,,,,,-0.075592516,-0.248461846,1,0,0,2.4778,Basalt_rect,8,0,8,0,1
6630da710ce3cc42bc2e3a4b,SCN,2024-06-10_14h40.16.617,LearnStrategy,2023.2.3,MacIntel,62.5,3,2,10,,,,,,,,1,10,,,,,,,,,,,4,4.687,0,,,,,,0.416625163,-0.247629462,1,0,0,4.6868,Gabbro_rect,9,0,9,0,1
6630da710ce3cc42bc2e3a4b,SCN,2024-06-10_14h40.16.617,LearnStrategy,2023.2.3,MacIntel,62.5,3,2,11,,,,,,,,3,16,,,,,,,,,,,3,4.737,1,,,,,,0.145074124,-0.236402113,1,0,0,4.7371,Diorite_rect,10,0,10,0,1
6630da710ce3cc42bc2e3a4b,SCN,2024-06-10_14h40.16.617,LearnStrategy,2023.2.3,MacIntel,62.5,3,2,12,,,,,,,,3,15,,,,,,,,,,,8,4.658,0,,,,,,0.348988851,-0.405091621,1,0,0,4.6582,Pumice_rect,11,0,11,0,1
6630da710ce3cc42bc2e3a4b,SCN,2024-06-10_14h40.16.617,LearnStrategy,2023.2.3,MacIntel,62.5,3,2,13,,,,,,,,2,01,,,,,,,,,,,2,2.563,1,,,,,,-0.106041802,-0.257833523,1,0,0,2.5626,Basalt_rect,12,0,12,0,1
6630da710ce3cc42bc2e3a4b,SCN,2024-06-10_14h40.16.617,LearnStrategy,2023.2.3,MacIntel,62.5,3,2,14,,,,,,,,7,05,,,,,,,,,,,1,3.12,0,,,,,,-0.362311401,-0.246064453,1,0,0,3.1197,Andesite_rect,13,0,13,0,1
6630da710ce3cc42bc2e3a4b,SCN,2024-06-10_14h40.16.617,LearnStrategy,2023.2.3,MacIntel,62.5,3,2,15,,,,,,,,5,05,,,,,,,,,,,5,1.296,1,,,,,,-0.412043525,-0.403128594,1,0,0,1.2965,Obsidian_rect,14,0,14,0,1
6630da710ce3cc42bc2e3a4b,SCN,2024-06-10_14h40.16.617,LearnStrategy,2023.2.3,MacIntel,62.5,3,2,16,,,,,,,,6,11,,,,,,,,,,,6,3.532,1,,,,,,-0.170830892,-0.397488675,1,0,0,3.5322,Pegmatite_rect,15,0,15,0,1
6630da710ce3cc42bc2e3a4b,SCN,2024-06-10_14h40.16.617,LearnStrategy,2023.2.3,MacIntel,62.5,4,1,1,-0.203234389,0.240166965,1,0,0,4.4813,Andesite_16,1,16,5,3,4.481,0.146747911,-0.260597941,1,0,0,2.9258,Diorite_rect,3,2.926,0,0,0,0,0,1,,,,,,,,,,,,
6630da710ce3cc42bc2e3a4b,SCN,2024-06-10_14h40.16.617,LearnStrategy,2023.2.3,MacIntel,62.5,4,1,2,-0.078929443,-0.124060737,1,0,0,3.6493,Diorite_08,3,08,3,4,3.649,-0.330154351,-0.263672757,1,0,0,1.5436,Andesite_rect,1,1.544,0,1,0,1,0,1,,,,,,,,,,,,
6630da710ce3cc42bc2e3a4b,SCN,2024-06-10_14h40.16.617,LearnStrategy,2023.2.3,MacIntel,62.5,4,1,3,-0.394641113,-0.423668009,1,0,0,2.3463,Gabbro_03,4,03,1,2,2.346,0.080777384,-0.2522602,1,0,0,5.5659,Diorite_rect,3,5.566,0,2,0,2,0,1,,,,,,,,,,,,
6630da710ce3cc42bc2e3a4b,SCN,2024-06-10_14h40.16.617,LearnStrategy,2023.2.3,MacIntel,62.5,4,1,4,0.068378771,-0.089543593,1,0,0,2.2135,Basalt_02,2,02,3,5,2.213,-0.069450005,-0.229335124,1,0,0,1.4422,Basalt_rect,2,1.442,1,3,0,3,0,1,,,,,,,,,,,,
6630da710ce3cc42bc2e3a4b,SCN,2024-06-10_14h40.16.617,LearnStrategy,2023.2.3,MacIntel,62.5,4,1,5,-0.261872355,-0.236468709,1,0,0,3.6318,Gabbro_14,4,14,2,3,3.632,-0.131497735,-0.230646769,1,0,0,2.8243,Basalt_rect,2,2.824,0,4,0,4,0,1,,,,,,,,,,,,
6630da710ce3cc42bc2e3a4b,SCN,2024-06-10_14h40.16.617,LearnStrategy,2023.2.3,MacIntel,62.5,4,1,6,0.034978231,-0.43585829,1,0,0,3.2989,Diorite_13,3,13,1,5,3.299,0.094553494,-0.382947388,1,0,0,1.7252,Peridotite_rect,7,1.725,0,5,0,5,0,1,,,,,,,,,,,,
6630da710ce3cc42bc2e3a4b,SCN,2024-06-10_14h40.16.617,LearnStrategy,2023.2.3,MacIntel,62.5,4,1,7,-0.071160821,-0.115283135,1,0,0,0.9826,Diorite_08,3,08,3,4,0.983,0.118068237,-0.267078993,1,0,0,0.8029,Diorite_rect,3,0.803,1,6,0,6,0,1,,,,,,,,,,,,
6630da710ce3cc42bc2e3a4b,SCN,2024-06-10_14h40.16.617,LearnStrategy,2023.2.3,MacIntel,62.5,4,1,8,-0.388985731,0.059317695,1,0,0,3.9468,Peridotite_02,7,02,4,2,3.947,-0.364138421,-0.24179267,1,0,0,1.9772,Andesite_rect,1,1.977,0,7,0,7,0,1,,,,,,,,,,,,
6630da710ce3cc42bc2e3a4b,SCN,2024-06-10_14h40.16.617,LearnStrategy,2023.2.3,MacIntel,62.5,4,1,9,-0.391590305,0.400989702,1,0,0,2.9465,Pegmatite_09,6,09,6,2,2.947,0.141732585,-0.416676839,1,0,0,1.4711,Peridotite_rect,7,1.471,0,8,0,8,0,1,,,,,,,,,,,,
6630da710ce3cc42bc2e3a4b,SCN,2024-06-10_14h40.16.617,LearnStrategy,2023.2.3,MacIntel,62.5,4,1,10,0.076305474,0.245919698,1,0,0,2.5334,Pegmatite_15,6,15,5,5,2.533,-0.109307929,-0.402281223,1,0,0,1.1372,Pegmatite_rect,6,1.137,1,9,0,9,0,1,,,,,,,,,,,,
6630da710ce3cc42bc2e3a4b,SCN,2024-06-10_14h40.16.617,LearnStrategy,2023.2.3,MacIntel,62.5,4,1,11,-0.228164673,-0.270646362,1,0,0,2.2487,Gabbro_14,4,14,2,3,2.249,0.362934706,-0.260212674,1,0,0,5.8242,Gabbro_rect,4,5.824,1,10,0,10,0,1,,,,,,,,,,,,
6630da710ce3cc42bc2e3a4b,SCN,2024-06-10_14h40.16.617,LearnStrategy,2023.2.3,MacIntel,62.5,4,1,12,-0.534276852,-0.258080444,1,0,0,2.7985,Pegmatite_03,6,03,2,1,2.799,-0.153361003,-0.389676514,1,0,0,2.0022,Pegmatite_rect,6,2.002,1,11,0,11,0,1,,,,,,,,,,,,
6630da710ce3cc42bc2e3a4b,SCN,2024-06-10_14h40.16.617,LearnStrategy,2023.2.3,MacIntel,62.5,4,1,13,0.243639255,0.374306997,1,0,0,2.9324,Peridotite_10,7,10,6,6,2.932,0.133336589,-0.405603706,1,0,0,3.4825,Peridotite_rect,7,3.482,1,12,0,12,0,1,,,,,,,,,,,,
6630da710ce3cc42bc2e3a4b,SCN,2024-06-10_14h40.16.617,LearnStrategy,2023.2.3,MacIntel,62.5,4,1,14,0.054267578,-0.272778727,1,0,0,2.2814,Peridotite_14,7,14,2,5,2.281,0.104776204,-0.236358032,1,0,0,2.7638,Diorite_rect,3,2.764,0,13,0,13,0,1,,,,,,,,,,,,
6630da710ce3cc42bc2e3a4b,SCN,2024-06-10_14h40.16.617,LearnStrategy,2023.2.3,MacIntel,62.5,4,1,15,0.249626329,0.233986562,1,0,0,23.1651,Basalt_10,2,10,5,6,23.165,0.368046604,-0.257219781,1,0,0,4.0725,Gabbro_rect,4,4.072,0,14,0,14,0,1,,,,,,,,,,,,
6630da710ce3cc42bc2e3a4b,SCN,2024-06-10_14h40.16.617,LearnStrategy,2023.2.3,MacIntel,62.5,4,1,16,0.40319024,-0.110102878,1,0,0,2.963,Andesite_04,1,04,3,7,2.963,-0.069535997,-0.245684475,1,0,0,1.8549,Basalt_rect,2,1.855,0,15,0,15,0,1,,,,,,,,,,,,
6630da710ce3cc42bc2e3a4b,SCN,2024-06-10_14h40.16.617,LearnStrategy,2023.2.3,MacIntel,62.5,4,2,1,,,,,,,,1,05,,,,,,,,,,,7,5.01,0,,,,,,0.103555976,-0.401185099,1,0,0,5.01,Peridotite_rect,0,0,0,0,1
6630da710ce3cc42bc2e3a4b,SCN,2024-06-10_14h40.16.617,LearnStrategy,2023.2.3,MacIntel,62.5,4,2,2,,,,,,,,5,08,,,,,,,,,,,5,1.246,1,,,,,,-0.453779907,-0.411394992,1,0,0,1.2458,Obsidian_rect,1,0,1,0,1
6630da710ce3cc42bc2e3a4b,SCN,2024-06-10_14h40.16.617,LearnStrategy,2023.2.3,MacIntel,62.5,4,2,3,,,,,,,,8,09,,,,,,,,,,,8,2.494,1,,,,,,0.385247531,-0.394624702,1,0,0,2.4944,Pumice_rect,2,0,2,0,1
6630da710ce3cc42bc2e3a4b,SCN,2024-06-10_14h40.16.617,LearnStrategy,2023.2.3,MacIntel,62.5,4,2,4,,,,,,,,2,11,,,,,,,,,,,2,3.484,1,,,,,,-0.184968804,-0.268244629,1,0,0,3.4841,Basalt_rect,3,0,3,0,1
6630da710ce3cc42bc2e3a4b,SCN,2024-06-10_14h40.16.617,LearnStrategy,2023.2.3,MacIntel,62.5,4,2,5,,,,,,,,7,16,,,,,,,,,,,7,3.463,1,,,,,,0.175465698,-0.408422919,1,0,0,3.4634,Peridotite_rect,4,0,4,0,1
6630da710ce3cc42bc2e3a4b,SCN,2024-06-10_14h40.16.617,LearnStrategy,2023.2.3,MacIntel,62.5,4,2,6,,,,,,,,3,07,,,,,,,,,,,3,3.84,1,,,,,,0.089126248,-0.259673462,1,0,0,3.8396,Diorite_rect,5,0,5,0,1
6630da710ce3cc42bc2e3a4b,SCN,2024-06-10_14h40.16.617,LearnStrategy,2023.2.3,MacIntel,62.5,4,2,7,,,,,,,,3,12,,,,,,,,,,,7,2.804,0,,,,,,0.11812439,-0.39658549,1,0,0,2.8041,Peridotite_rect,6,0,6,0,1
6630da710ce3cc42bc2e3a4b,SCN,2024-06-10_14h40.16.617,LearnStrategy,2023.2.3,MacIntel,62.5,4,2,8,,,,,,,,8,06,,,,,,,,,,,8,2.602,1,,,,,,0.358488905,-0.419649048,1,0,0,2.602,Pumice_rect,7,0,7,0,1
6630da710ce3cc42bc2e3a4b,SCN,2024-06-10_14h40.16.617,LearnStrategy,2023.2.3,MacIntel,62.5,4,2,9,,,,,,,,2,05,,,,,,,,,,,2,3.479,1,,,,,,-0.138514811,-0.246492581,1,0,0,3.479,Basalt_rect,8,0,8,0,1
6630da710ce3cc42bc2e3a4b,SCN,2024-06-10_14h40.16.617,LearnStrategy,2023.2.3,MacIntel,62.5,4,2,10,,,,,,,,6,06,,,,,,,,,,,1,3.369,0,,,,,,-0.365622525,-0.252909817,1,0,0,3.3692,Andesite_rect,9,0,9,0,1
6630da710ce3cc42bc2e3a4b,SCN,2024-06-10_14h40.16.617,LearnStrategy,2023.2.3,MacIntel,62.5,4,2,11,,,,,,,,4,12,,,,,,,,,,,2,3.651,0,,,,,,-0.063537191,-0.253598836,1,0,0,3.6505,Basalt_rect,10,0,10,0,1
6630da710ce3cc42bc2e3a4b,SCN,2024-06-10_14h40.16.617,LearnStrategy,2023.2.3,MacIntel,62.5,4,2,12,,,,,,,,6,10,,,,,,,,,,,6,2.236,1,,,,,,-0.099636095,-0.407949693,1,0,0,2.2362,Pegmatite_rect,11,0,11,0,1
6630da710ce3cc42bc2e3a4b,SCN,2024-06-10_14h40.16.617,LearnStrategy,2023.2.3,MacIntel,62.5,4,2,13,,,,,,,,5,12,,,,,,,,,,,5,1.193,1,,,,,,-0.340028144,-0.400965169,1,0,0,1.1929,Obsidian_rect,12,0,12,0,1
6630da710ce3cc42bc2e3a4b,SCN,2024-06-10_14h40.16.617,LearnStrategy,2023.2.3,MacIntel,62.5,4,2,14,,,,,,,,7,05,,,,,,,,,,,3,2.482,0,,,,,,0.107448324,-0.267354669,1,0,0,2.4821,Diorite_rect,13,0,13,0,1
6630da710ce3cc42bc2e3a4b,SCN,2024-06-10_14h40.16.617,LearnStrategy,2023.2.3,MacIntel,62.5,4,2,15,,,,,,,,1,02,,,,,,,,,,,7,2.035,0,,,,,,0.103915812,-0.403895806,1,0,0,2.0346,Peridotite_rect,14,0,14,0,1
6630da710ce3cc42bc2e3a4b,SCN,2024-06-10_14h40.16.617,LearnStrategy,2023.2.3,MacIntel,62.5,4,2,16,,,,,,,,4,01,,,,,,,,,,,1,2.017,0,,,,,,-0.320648363,-0.240958455,1,0,0,2.0172,Andesite_rect,15,0,15,0,1
6630da710ce3cc42bc2e3a4b,SCN,2024-06-10_14h40.16.617,LearnStrategy,2023.2.3,MacIntel,62.5,5,1,1,-0.058656955,-0.109039849,1,0,0,4.6639,Diorite_08,3,08,3,4,4.664,0.115260688,-0.24536004,1,0,0,3.0348,Diorite_rect,3,3.035,1,0,0,0,0,1,,,,,,,,,,,,
6630da710ce3cc42bc2e3a4b,SCN,2024-06-10_14h40.16.617,LearnStrategy,2023.2.3,MacIntel,62.5,5,1,2,-0.243574354,-0.103830634,1,0,0,1.0806,Diorite_06,3,06,3,3,1.081,0.195679253,-0.254799466,1,0,0,0.9491,Diorite_rect,3,0.949,1,1,0,1,0,1,,,,,,,,,,,,
6630da710ce3cc42bc2e3a4b,SCN,2024-06-10_14h40.16.617,LearnStrategy,2023.2.3,MacIntel,62.5,5,1,3,-0.265305244,-0.407485826,1,0,0,1.095,Peridotite_04,7,04,1,3,1.095,0.146675483,-0.254611952,1,0,0,1.1853,Diorite_rect,3,1.185,0,2,0,2,0,1,,,,,,,,,,,,
6630da710ce3cc42bc2e3a4b,SCN,2024-06-10_14h40.16.617,LearnStrategy,2023.2.3,MacIntel,62.5,5,1,4,-0.553848385,-0.432661133,1,0,0,2.9817,Diorite_10,3,10,1,1,2.982,0.133081597,-0.40926534,1,0,0,1.5527,Peridotite_rect,7,1.553,0,3,0,3,0,1,,,,,,,,,,,,
6630da710ce3cc42bc2e3a4b,SCN,2024-06-10_14h40.16.617,LearnStrategy,2023.2.3,MacIntel,62.5,5,1,5,0.101997545,0.065615133,1,0,0,2.5667,Basalt_08,2,08,4,5,2.567,-0.171738485,-0.249088881,1,0,0,1.47,Basalt_rect,2,1.47,1,4,0,4,0,1,,,,,,,,,,,,
6630da710ce3cc42bc2e3a4b,SCN,2024-06-10_14h40.16.617,LearnStrategy,2023.2.3,MacIntel,62.5,5,1,6,-0.234438137,0.21876236,1,0,0,1.5653,Andesite_16,1,16,5,3,1.565,0.096865234,-0.401296455,1,0,0,4.0992,Peridotite_rect,7,4.099,0,5,0,5,0,1,,,,,,,,,,,,
6630da710ce3cc42bc2e3a4b,SCN,2024-06-10_14h40.16.617,LearnStrategy,2023.2.3,MacIntel,62.5,5,1,7,0.435634766,-0.234775594,1,0,0,1.8333,Diorite_02,3,02,2,7,1.833,-0.318762817,-0.237331611,1,0,0,1.9334,Andesite_rect,1,1.933,0,6,0,6,0,1,,,,,,,,,,,,
6630da710ce3cc42bc2e3a4b,SCN,2024-06-10_14h40.16.617,LearnStrategy,2023.2.3,MacIntel,62.5,5,1,8,0.589022624,0.261728889,1,0,0,4.0979,Pumice_04,8,04,5,8,4.098,0.409981554,-0.407660658,1,0,0,2.186,Pumice_rect,8,2.186,1,7,0,7,0,1,,,,,,,,,,,,
6630da710ce3cc42bc2e3a4b,SCN,2024-06-10_14h40.16.617,LearnStrategy,2023.2.3,MacIntel,62.5,5,1,9,0.410603163,0.40763877,1,0,0,2.9499,Pegmatite_16,6,16,6,7,2.95,-0.344162123,-0.247752753,1,0,0,9.4479,Andesite_rect,1,9.448,0,8,0,8,0,1,,,,,,,,,,,,
6630da710ce3cc42bc2e3a4b,SCN,2024-06-10_14h40.16.617,LearnStrategy,2023.2.3,MacIntel,62.5,5,1,10,0.088450724,0.278312666,1,0,0,2.0969,Pegmatite_15,6,15,5,5,2.097,-0.123900825,-0.397906494,1,0,0,1.8183,Pegmatite_rect,6,1.818,1,9,0,9,0,1,,,,,,,,,,,,
6630da710ce3cc42bc2e3a4b,SCN,2024-06-10_14h40.16.617,LearnStrategy,2023.2.3,MacIntel,62.5,5,1,11,-0.395166083,0.407019229,1,0,0,4.7491,Pegmatite_09,6,09,6,2,4.749,-0.146585693,-0.40381056,1,0,0,1.4905,Pegmatite_rect,6,1.491,1,10,0,10,0,1,,,,,,,,,,,,
6630da710ce3cc42bc2e3a4b,SCN,2024-06-10_14h40.16.617,LearnStrategy,2023.2.3,MacIntel,62.5,5,1,12,0.097839423,0.399369202,1,0,0,2.6515,Pegmatite_12,6,12,6,5,2.652,-0.076003825,-0.401411879,1,0,0,1.3504,Pegmatite_rect,6,1.35,1,11,0,11,0,1,,,,,,,,,,,,
6630da710ce3cc42bc2e3a4b,SCN,2024-06-10_14h40.16.617,LearnStrategy,2023.2.3,MacIntel,62.5,5,1,13,0.575021973,0.380615082,1,0,0,4.2831,Pumice_10,8,10,6,8,4.283,0.429805501,-0.406001926,1,0,0,1.2575,Pumice_rect,8,1.257,1,12,0,12,0,1,,,,,,,,,,,,
6630da710ce3cc42bc2e3a4b,SCN,2024-06-10_14h40.16.617,LearnStrategy,2023.2.3,MacIntel,62.5,5,1,14,-0.386042718,0.061927762,1,0,0,1.8494,Peridotite_02,7,02,4,2,1.849,0.086976454,-0.410103217,1,0,0,3.2182,Peridotite_rect,7,3.218,1,13,0,13,0,1,,,,,,,,,,,,
6630da710ce3cc42bc2e3a4b,SCN,2024-06-10_14h40.16.617,LearnStrategy,2023.2.3,MacIntel,62.5,5,1,15,-0.114372559,-0.407296889,1,0,0,2.7813,Andesite_03,1,03,1,4,2.781,-0.104981757,-0.249379137,1,0,0,1.4233,Basalt_rect,2,1.423,0,14,0,14,0,1,,,,,,,,,,,,
6630da710ce3cc42bc2e3a4b,SCN,2024-06-10_14h40.16.617,LearnStrategy,2023.2.3,MacIntel,62.5,5,1,16,0.250112983,-0.272926229,1,0,0,2.0134,Andesite_14,1,14,2,6,2.013,-0.393957994,-0.238848267,1,0,0,1.1827,Andesite_rect,1,1.183,1,15,0,15,0,1,,,,,,,,,,,,
6630da710ce3cc42bc2e3a4b,SCN,2024-06-10_14h40.16.617,LearnStrategy,2023.2.3,MacIntel,62.5,5,2,1,,,,,,,,1,07,,,,,,,,,,,3,3.745,0,,,,,,0.173575236,-0.245337999,1,0,0,3.7451,Diorite_rect,0,0,0,0,1
6630da710ce3cc42bc2e3a4b,SCN,2024-06-10_14h40.16.617,LearnStrategy,2023.2.3,MacIntel,62.5,5,2,2,,,,,,,,4,05,,,,,,,,,,,1,7.906,0,,,,,,-0.402354804,-0.256131999,1,0,0,7.9057,Andesite_rect,1,0,1,0,1
6630da710ce3cc42bc2e3a4b,SCN,2024-06-10_14h40.16.617,LearnStrategy,2023.2.3,MacIntel,62.5,5,2,3,,,,,,,,5,14,,,,,,,,,,,5,1.088,1,,,,,,-0.397742174,-0.410524224,1,0,0,1.0879,Obsidian_rect,2,0,2,0,1
6630da710ce3cc42bc2e3a4b,SCN,2024-06-10_14h40.16.617,LearnStrategy,2023.2.3,MacIntel,62.5,5,2,4,,,,,,,,8,02,,,,,,,,,,,8,1.796,1,,,,,,0.403919,-0.407295125,1,0,0,1.796,Pumice_rect,3,0,3,0,1
6630da710ce3cc42bc2e3a4b,SCN,2024-06-10_14h40.16.617,LearnStrategy,2023.2.3,MacIntel,62.5,5,2,5,,,,,,,,3,15,,,,,,,,,,,3,8.163,1,,,,,,0.154645996,-0.25634908,1,0,0,8.1633,Diorite_rect,4,0,4,0,1
6630da710ce3cc42bc2e3a4b,SCN,2024-06-10_14h40.16.617,LearnStrategy,2023.2.3,MacIntel,62.5,5,2,6,,,,,,,,6,05,,,,,,,,,,,6,2.186,1,,,,,,-0.135002306,-0.410376044,1,0,0,2.1858,Pegmatite_rect,5,0,5,0,1
6630da710ce3cc42bc2e3a4b,SCN,2024-06-10_14h40.16.617,LearnStrategy,2023.2.3,MacIntel,62.5,5,2,7,,,,,,,,1,11,,,,,,,,,,,1,3.234,1,,,,,,-0.370897047,-0.249383341,1,0,0,3.2342,Andesite_rect,6,0,6,0,1
6630da710ce3cc42bc2e3a4b,SCN,2024-06-10_14h40.16.617,LearnStrategy,2023.2.3,MacIntel,62.5,5,2,8,,,,,,,,7,15,,,,,,,,,,,7,3.085,1,,,,,,0.115161268,-0.414692858,1,0,0,3.0854,Peridotite_rect,7,0,7,0,1
6630da710ce3cc42bc2e3a4b,SCN,2024-06-10_14h40.16.617,LearnStrategy,2023.2.3,MacIntel,62.5,5,2,9,,,,,,,,3,16,,,,,,,,,,,1,10.917,0,,,,,,-0.354792955,-0.261758694,1,0,0,10.9174,Andesite_rect,8,0,8,0,1
6630da710ce3cc42bc2e3a4b,SCN,2024-06-10_14h40.16.617,LearnStrategy,2023.2.3,MacIntel,62.5,5,2,10,,,,,,,,5,09,,,,,,,,,,,5,1.197,1,,,,,,-0.355182699,-0.412980211,1,0,0,1.1971,Obsidian_rect,9,0,9,0,1
6630da710ce3cc42bc2e3a4b,SCN,2024-06-10_14h40.16.617,LearnStrategy,2023.2.3,MacIntel,62.5,5,2,11,,,,,,,,2,16,,,,,,,,,,,4,2.469,0,,,,,,0.400335015,-0.244373779,1,0,0,2.4686,Gabbro_rect,10,0,10,0,1
6630da710ce3cc42bc2e3a4b,SCN,2024-06-10_14h40.16.617,LearnStrategy,2023.2.3,MacIntel,62.5,5,2,12,,,,,,,,7,06,,,,,,,,,,,3,3.975,0,,,,,,0.131908298,-0.262953695,1,0,0,3.975,Diorite_rect,11,0,11,0,1
6630da710ce3cc42bc2e3a4b,SCN,2024-06-10_14h40.16.617,LearnStrategy,2023.2.3,MacIntel,62.5,5,2,13,,,,,,,,8,15,,,,,,,,,,,2,2.155,0,,,,,,-0.122958171,-0.260360243,1,0,0,2.1547,Basalt_rect,12,0,12,0,1
6630da710ce3cc42bc2e3a4b,SCN,2024-06-10_14h40.16.617,LearnStrategy,2023.2.3,MacIntel,62.5,5,2,14,,,,,,,,2,01,,,,,,,,,,,4,25.647,0,,,,,,0.42379381,-0.25958313,1,0,0,25.6468,Gabbro_rect,13,0,13,0,1
6630da710ce3cc42bc2e3a4b,SCN,2024-06-10_14h40.16.617,LearnStrategy,2023.2.3,MacIntel,62.5,5,2,15,,,,,,,,4,15,,,,,,,,,,,7,3.065,0,,,,,,0.162182617,-0.421602987,1,0,0,3.065,Peridotite_rect,14,0,14,0,1
6630da710ce3cc42bc2e3a4b,SCN,2024-06-10_14h40.16.617,LearnStrategy,2023.2.3,MacIntel,62.5,5,2,16,,,,,,,,6,13,,,,,,,,,,,6,5.119,1,,,,,,-0.196605903,-0.414459364,1,0,0,5.1191,Pegmatite_rect,15,0,15,0,1
6630da710ce3cc42bc2e3a4b,SCN,2024-06-10_14h40.16.617,LearnStrategy,2023.2.3,MacIntel,62.5,6,1,1,0.244743042,0.25374154,1,0,0,7.0802,Basalt_10,2,10,5,6,7.08,0.370438639,-0.239191013,1,0,0,1.5726,Gabbro_rect,4,1.573,0,0,0,0,0,1,,,,,,,,,,,,
6630da710ce3cc42bc2e3a4b,SCN,2024-06-10_14h40.16.617,LearnStrategy,2023.2.3,MacIntel,62.5,6,1,2,0.107143555,0.084748433,1,0,0,4.7163,Basalt_08,2,08,4,5,4.716,-0.129892036,-0.236685723,1,0,0,2.3879,Basalt_rect,2,2.388,1,1,0,1,0,1,,,,,,,,,,,,
6630da710ce3cc42bc2e3a4b,SCN,2024-06-10_14h40.16.617,LearnStrategy,2023.2.3,MacIntel,62.5,6,1,3,0.072477688,-0.129680108,1,0,0,1.9137,Basalt_02,2,02,3,5,1.914,-0.07661126,-0.266067708,1,0,0,1.3514,Basalt_rect,2,1.351,1,2,0,2,0,1,,,,,,,,,,,,
6630da710ce3cc42bc2e3a4b,SCN,2024-06-10_14h40.16.617,LearnStrategy,2023.2.3,MacIntel,62.5,6,1,4,0.557543403,0.067346937,1,0,0,3.6807,Obsidian_10,5,10,4,8,3.681,-0.373120185,-0.414232246,1,0,0,1.224,Obsidian_rect,5,1.224,1,3,0,3,0,1,,,,,,,,,,,,
6630da710ce3cc42bc2e3a4b,SCN,2024-06-10_14h40.16.617,LearnStrategy,2023.2.3,MacIntel,62.5,6,1,5,-0.563588562,0.252544793,1,0,0,4.4955,Obsidian_07,5,07,5,1,4.495,-0.450092909,-0.418680895,1,0,0,1.0594,Obsidian_rect,5,1.059,1,4,0,4,0,1,,,,,,,,,,,,
6630da710ce3cc42bc2e3a4b,SCN,2024-06-10_14h40.16.617,LearnStrategy,2023.2.3,MacIntel,62.5,6,1,6,-0.533961266,-0.265795492,1,0,0,1.2306,Pegmatite_03,6,03,2,1,1.231,-0.156737332,-0.398758341,1,0,0,2.8725,Pegmatite_rect,6,2.872,1,5,0,5,0,1,,,,,,,,,,,,
6630da710ce3cc42bc2e3a4b,SCN,2024-06-10_14h40.16.617,LearnStrategy,2023.2.3,MacIntel,62.5,6,1,7,0.227972683,0.080477871,1,0,0,5.13,Basalt_09,2,09,4,6,5.13,-0.042391357,-0.253133477,1,0,0,2.2741,Basalt_rect,2,2.274,1,6,0,6,0,1,,,,,,,,,,,,
6630da710ce3cc42bc2e3a4b,SCN,2024-06-10_14h40.16.617,LearnStrategy,2023.2.3,MacIntel,62.5,6,1,8,0.586224637,-0.294045342,1,0,0,2.9149,Gabbro_11,4,11,2,8,2.915,0.383034939,-0.249846056,1,0,0,1.1009,Gabbro_rect,4,1.101,1,7,0,7,0,1,,,,,,,,,,,,
6630da710ce3cc42bc2e3a4b,SCN,2024-06-10_14h40.16.617,LearnStrategy,2023.2.3,MacIntel,62.5,6,1,9,0.072379015,-0.25851671,1,0,0,2.2164,Peridotite_14,7,14,2,5,2.216,0.112187636,-0.415092909,1,0,0,3.5159,Peridotite_rect,7,3.516,1,8,0,8,0,1,,,,,,,,,,,,
6630da710ce3cc42bc2e3a4b,SCN,2024-06-10_14h40.16.617,LearnStrategy,2023.2.3,MacIntel,62.5,6,1,10,0.072545844,-0.096089613,1,0,0,4.6812,Basalt_02,2,02,3,5,4.681,-0.092209134,-0.237405396,1,0,0,1.4722,Basalt_rect,2,1.472,1,9,0,9,0,1,,,,,,,,,,,,
6630da710ce3cc42bc2e3a4b,SCN,2024-06-10_14h40.16.617,LearnStrategy,2023.2.3,MacIntel,62.5,6,1,11,-0.079051921,0.391953651,1,0,0,5.3327,Andesite_01,1,01,6,4,5.333,0.100295139,-0.263321669,1,0,0,2.507,Diorite_rect,3,2.507,0,10,0,10,0,1,,,,,,,,,,,,
6630da710ce3cc42bc2e3a4b,SCN,2024-06-10_14h40.16.617,LearnStrategy,2023.2.3,MacIntel,62.5,6,1,12,0.397364366,0.085272319,1,0,0,1.7129,Diorite_11,3,11,4,7,1.713,-0.330187514,-0.251384006,1,0,0,1.1273,Andesite_rect,1,1.127,0,11,0,11,0,1,,,,,,,,,,,,
6630da710ce3cc42bc2e3a4b,SCN,2024-06-10_14h40.16.617,LearnStrategy,2023.2.3,MacIntel,62.5,6,1,13,0.389948052,-0.251612345,1,0,0,2.4471,Diorite_02,3,02,2,7,2.447,-0.367156711,-0.254702013,1,0,0,2.3478,Andesite_rect,1,2.348,0,12,0,12,0,1,,,,,,,,,,,,
6630da710ce3cc42bc2e3a4b,SCN,2024-06-10_14h40.16.617,LearnStrategy,2023.2.3,MacIntel,62.5,6,1,14,-0.213361274,0.261752811,1,0,0,3.3507,Andesite_16,1,16,5,3,3.351,-0.332283054,-0.23206604,1,0,0,1.1934,Andesite_rect,1,1.193,1,13,0,13,0,1,,,,,,,,,,,,
6630da710ce3cc42bc2e3a4b,SCN,2024-06-10_14h40.16.617,LearnStrategy,2023.2.3,MacIntel,62.5,6,1,15,-0.056109823,-0.144209459,1,0,0,5.1974,Diorite_08,3,08,3,4,5.197,0.115936822,-0.407070923,1,0,0,1.1881,Peridotite_rect,7,1.188,0,14,0,14,0,1,,,,,,,,,,,,
6630da710ce3cc42bc2e3a4b,SCN,2024-06-10_14h40.16.617,LearnStrategy,2023.2.3,MacIntel,62.5,6,1,16,0.090861749,-0.40183336,1,0,0,3.1143,Diorite_13,3,13,1,5,3.114,0.111404826,-0.26040507,1,0,0,1.4495,Diorite_rect,3,1.449,1,15,0,15,0,1,,,,,,,,,,,,
6630da710ce3cc42bc2e3a4b,SCN,2024-06-10_14h40.16.617,LearnStrategy,2023.2.3,MacIntel,62.5,6,2,1,,,,,,,,6,11,,,,,,,,,,,6,1.948,1,,,,,,-0.11513855,-0.383408542,1,0,0,1.9483,Pegmatite_rect,0,0,0,0,1
6630da710ce3cc42bc2e3a4b,SCN,2024-06-10_14h40.16.617,LearnStrategy,2023.2.3,MacIntel,62.5,6,2,2,,,,,,,,6,08,,,,,,,,,,,6,0.848,1,,,,,,-0.11513855,-0.383408542,1,0,0,0.8484,Pegmatite_rect,1,0,1,0,1
6630da710ce3cc42bc2e3a4b,SCN,2024-06-10_14h40.16.617,LearnStrategy,2023.2.3,MacIntel,62.5,6,2,3,,,,,,,,8,13,,,,,,,,,,,8,4.035,1,,,,,,0.449961751,-0.414062229,1,0,0,4.0353,Pumice_rect,2,0,2,0,1
6630da710ce3cc42bc2e3a4b,SCN,2024-06-10_14h40.16.617,LearnStrategy,2023.2.3,MacIntel,62.5,6,2,4,,,,,,,,4,08,,,,,,,,,,,2,5.751,0,,,,,,-0.118772651,-0.258492432,1,0,0,5.7508,Basalt_rect,3,0,3,0,1
6630da710ce3cc42bc2e3a4b,SCN,2024-06-10_14h40.16.617,LearnStrategy,2023.2.3,MacIntel,62.5,6,2,5,,,,,,,,5,11,,,,,,,,,,,5,1.183,1,,,,,,-0.319998033,-0.415017497,1,0,0,1.1829,Obsidian_rect,4,0,4,0,1
6630da710ce3cc42bc2e3a4b,SCN,2024-06-10_14h40.16.617,LearnStrategy,2023.2.3,MacIntel,62.5,6,2,6,,,,,,,,1,10,,,,,,,,,,,1,5.981,1,,,,,,-0.394570991,-0.263617689,1,0,0,5.981,Andesite_rect,5,0,5,0,1
6630da710ce3cc42bc2e3a4b,SCN,2024-06-10_14h40.16.617,LearnStrategy,2023.2.3,MacIntel,62.5,6,2,7,,,,,,,,8,05,,,,,,,,,,,8,2.209,1,,,,,,0.369485406,-0.398266534,1,0,0,2.209,Pumice_rect,6,0,6,0,1
6630da710ce3cc42bc2e3a4b,SCN,2024-06-10_14h40.16.617,LearnStrategy,2023.2.3,MacIntel,62.5,6,2,8,,,,,,,,7,08,,,,,,,,,,,7,3.943,1,,,,,,0.132505425,-0.416511095,1,0,0,3.9427,Peridotite_rect,7,0,7,0,1
6630da710ce3cc42bc2e3a4b,SCN,2024-06-10_14h40.16.617,LearnStrategy,2023.2.3,MacIntel,62.5,6,2,9,,,,,,,,7,07,,,,,,,,,,,7,2.076,1,,,,,,0.132505425,-0.416511095,1,0,0,2.0762,Peridotite_rect,8,0,8,0,1
6630da710ce3cc42bc2e3a4b,SCN,2024-06-10_14h40.16.617,LearnStrategy,2023.2.3,MacIntel,62.5,6,2,10,,,,,,,,3,14,,,,,,,,,,,1,2.981,0,,,,,,-0.349653863,-0.265743476,1,0,0,2.9814,Andesite_rect,9,0,9,0,1
6630da710ce3cc42bc2e3a4b,SCN,2024-06-10_14h40.16.617,LearnStrategy,2023.2.3,MacIntel,62.5,6,2,11,,,,,,,,5,05,,,,,,,,,,,5,1.436,1,,,,,,-0.374917738,-0.41779975,1,0,0,1.4362,Obsidian_rect,10,0,10,0,1
6630da710ce3cc42bc2e3a4b,SCN,2024-06-10_14h40.16.617,LearnStrategy,2023.2.3,MacIntel,62.5,6,2,12,,,,,,,,2,06,,,,,,,,,,,2,2.208,1,,,,,,-0.114820421,-0.247471856,1,0,0,2.2081,Basalt_rect,11,0,11,0,1
6630da710ce3cc42bc2e3a4b,SCN,2024-06-10_14h40.16.617,LearnStrategy,2023.2.3,MacIntel,62.5,6,2,13,,,,,,,,2,12,,,,,,,,,,,2,6.012,1,,,,,,-0.157146946,-0.257711317,1,0,0,6.0123,Basalt_rect,12,0,12,0,1
6630da710ce3cc42bc2e3a4b,SCN,2024-06-10_14h40.16.617,LearnStrategy,2023.2.3,MacIntel,62.5,6,2,14,,,,,,,,3,09,,,,,,,,,,,3,5.264,1,,,,,,0.11583903,-0.254829373,1,0,0,5.2641,Diorite_rect,13,0,13,0,1
6630da710ce3cc42bc2e3a4b,SCN,2024-06-10_14h40.16.617,LearnStrategy,2023.2.3,MacIntel,62.5,6,2,15,,,,,,,,4,10,,,,,,,,,,,2,3.381,0,,,,,,-0.135955268,-0.2631918,1,0,0,3.3809,Basalt_rect,14,0,14,0,1
6630da710ce3cc42bc2e3a4b,SCN,2024-06-10_14h40.16.617,LearnStrategy,2023.2.3,MacIntel,62.5,6,2,16,,,,,,,,1,06,,,,,,,,,,,1,3.32,1,,,,,,-0.425322537,-0.265261773,1,0,0,3.3197,Andesite_rect,15,0,15,0,1
6630da710ce3cc42bc2e3a4b,SCN,2024-06-10_14h40.16.617,LearnStrategy,2023.2.3,MacIntel,62.5,7,1,1,-0.256454875,0.048239848,1,0,0,2.0643,Peridotite_13,7,13,4,3,2.064,0.088866509,-0.384700589,1,0,0,2.084,Peridotite_rect,7,2.084,1,0,0,0,0,1,,,,,,,,,,,,
6630da710ce3cc42bc2e3a4b,SCN,2024-06-10_14h40.16.617,LearnStrategy,2023.2.3,MacIntel,62.5,7,1,2,-0.427643195,-0.103297933,1,0,0,1.4481,Gabbro_16,4,16,3,2,1.448,-0.136525269,-0.269599677,1,0,0,3.0509,Basalt_rect,2,3.051,0,1,0,1,0,1,,,,,,,,,,,,
6630da710ce3cc42bc2e3a4b,SCN,2024-06-10_14h40.16.617,LearnStrategy,2023.2.3,MacIntel,62.5,7,1,3,-0.213377821,-0.281033868,1,0,0,2.4808,Gabbro_14,4,14,2,3,2.481,0.394527045,-0.268017307,1,0,0,3.6551,Gabbro_rect,4,3.655,1,2,0,2,0,1,,,,,,,,,,,,
6630da710ce3cc42bc2e3a4b,SCN,2024-06-10_14h40.16.617,LearnStrategy,2023.2.3,MacIntel,62.5,7,1,4,0.529979384,-0.097495999,1,0,0,1.8801,Pegmatite_07,6,07,3,8,1.88,-0.116398451,-0.39592353,1,0,0,1.1629,Pegmatite_rect,6,1.163,1,3,0,3,0,1,,,,,,,,,,,,
6630da710ce3cc42bc2e3a4b,SCN,2024-06-10_14h40.16.617,LearnStrategy,2023.2.3,MacIntel,62.5,7,1,5,0.531426731,0.373829736,1,0,0,1.5624,Pumice_10,8,10,6,8,1.562,0.428757595,-0.404169718,1,0,0,2.1175,Pumice_rect,8,2.118,1,4,0,4,0,1,,,,,,,,,,,,
6630da710ce3cc42bc2e3a4b,SCN,2024-06-10_14h40.16.617,LearnStrategy,2023.2.3,MacIntel,62.5,7,1,6,-0.391011556,0.084536913,1,0,0,1.3997,Peridotite_02,7,02,4,2,1.4,0.049311998,-0.394744059,1,0,0,1.1671,Peridotite_rect,7,1.167,1,5,0,5,0,1,,,,,,,,,,,,
6630da710ce3cc42bc2e3a4b,SCN,2024-06-10_14h40.16.617,LearnStrategy,2023.2.3,MacIntel,62.5,7,1,7,-0.252024299,-0.104537964,1,0,0,1.7311,Diorite_06,3,06,3,3,1.731,-0.40620575,-0.254302368,1,0,0,2.5346,Andesite_rect,1,2.535,0,6,0,6,0,1,,,,,,,,,,,,
6630da710ce3cc42bc2e3a4b,SCN,2024-06-10_14h40.16.617,LearnStrategy,2023.2.3,MacIntel,62.5,7,1,8,0.412861057,0.101105008,1,0,0,1.8461,Diorite_11,3,11,4,7,1.846,0.093036838,-0.233568929,1,0,0,3.8049,Diorite_rect,3,3.805,1,7,0,7,0,1,,,,,,,,,,,,
6630da710ce3cc42bc2e3a4b,SCN,2024-06-10_14h40.16.617,LearnStrategy,2023.2.3,MacIntel,62.5,7,1,9,-0.57314994,-0.282769979,1,0,0,4.8641,Pegmatite_03,6,03,2,1,4.864,-0.140138889,-0.388564724,1,0,0,1.3185,Pegmatite_rect,6,1.319,1,8,0,8,0,1,,,,,,,,,,,,
6630da710ce3cc42bc2e3a4b,SCN,2024-06-10_14h40.16.617,LearnStrategy,2023.2.3,MacIntel,62.5,7,1,10,0.225132718,-0.292784695,1,0,0,1.3982,Andesite_14,1,14,2,6,1.398,-0.122069838,-0.414127265,1,0,0,3.7896,Pegmatite_rect,6,3.79,0,9,0,9,0,1,,,,,,,,,,,,
6630da710ce3cc42bc2e3a4b,SCN,2024-06-10_14h40.16.617,LearnStrategy,2023.2.3,MacIntel,62.5,7,1,11,0.06847914,0.422730967,1,0,0,2.3794,Pegmatite_12,6,12,6,5,2.379,-0.105799967,-0.386899211,1,0,0,1.0476,Pegmatite_rect,6,1.048,1,10,0,10,0,1,,,,,,,,,,,,
6630da710ce3cc42bc2e3a4b,SCN,2024-06-10_14h40.16.617,LearnStrategy,2023.2.3,MacIntel,62.5,7,1,12,0.052651978,-0.267248332,1,0,0,5.2998,Peridotite_14,7,14,2,5,5.3,0.157883165,-0.395088704,1,0,0,3.5068,Peridotite_rect,7,3.507,1,11,0,11,0,1,,,,,,,,,,,,
6630da710ce3cc42bc2e3a4b,SCN,2024-06-10_14h40.16.617,LearnStrategy,2023.2.3,MacIntel,62.5,7,1,13,-0.250914476,-0.144789903,1,0,0,3.0463,Diorite_06,3,06,3,3,3.046,-0.347772285,-0.24556661,1,0,0,1.4868,Andesite_rect,1,1.487,0,12,0,12,0,1,,,,,,,,,,,,
6630da710ce3cc42bc2e3a4b,SCN,2024-06-10_14h40.16.617,LearnStrategy,2023.2.3,MacIntel,62.5,7,1,14,-0.225903524,0.225942925,1,0,0,3.4479,Andesite_16,1,16,5,3,3.448,0.129542169,-0.252629462,1,0,0,1.8915,Diorite_rect,3,1.891,0,13,0,13,0,1,,,,,,,,,,,,
6630da710ce3cc42bc2e3a4b,SCN,2024-06-10_14h40.16.617,LearnStrategy,2023.2.3,MacIntel,62.5,7,1,15,-0.41591451,0.402055138,1,0,0,3.6315,Pegmatite_09,6,09,6,2,3.631,0.14671129,-0.401845296,1,0,0,1.3098,Peridotite_rect,7,1.31,0,14,0,14,0,1,,,,,,,,,,,,
6630da710ce3cc42bc2e3a4b,SCN,2024-06-10_14h40.16.617,LearnStrategy,2023.2.3,MacIntel,62.5,7,1,16,0.569831272,0.0873585,1,0,0,3.4489,Obsidian_10,5,10,4,8,3.449,-0.359105021,-0.394898275,1,0,0,2.6348,Obsidian_rect,5,2.635,1,15,0,15,0,1,,,,,,,,,,,,
6630da710ce3cc42bc2e3a4b,SCN,2024-06-10_14h40.16.617,LearnStrategy,2023.2.3,MacIntel,62.5,7,2,1,,,,,,,,1,07,,,,,,,,,,,3,3.147,0,,,,,,0.158960978,-0.248393623,1,0,0,3.1472,Diorite_rect,0,0,0,0,1
6630da710ce3cc42bc2e3a4b,SCN,2024-06-10_14h40.16.617,LearnStrategy,2023.2.3,MacIntel,62.5,7,2,2,,,,,,,,4,05,,,,,,,,,,,1,10.544,0,,,,,,-0.397636481,-0.269771118,1,0,0,10.544,Andesite_rect,1,0,1,0,1
6630da710ce3cc42bc2e3a4b,SCN,2024-06-10_14h40.16.617,LearnStrategy,2023.2.3,MacIntel,62.5,7,2,3,,,,,,,,3,09,,,,,,,,,,,3,5.652,1,,,,,,0.135201416,-0.237643636,1,0,0,5.6516,Diorite_rect,2,0,2,0,1
6630da710ce3cc42bc2e3a4b,SCN,2024-06-10_14h40.16.617,LearnStrategy,2023.2.3,MacIntel,62.5,7,2,4,,,,,,,,2,16,,,,,,,,,,,2,5.244,1,,,,,,-0.062308689,-0.229124281,1,0,0,5.2437,Basalt_rect,3,0,3,0,1
6630da710ce3cc42bc2e3a4b,SCN,2024-06-10_14h40.16.617,LearnStrategy,2023.2.3,MacIntel,62.5,7,2,5,,,,,,,,6,11,,,,,,,,,,,5,1.419,0,,,,,,-0.333780314,-0.379734633,1,0,0,1.4191,Obsidian_rect,4,0,4,0,1
6630da710ce3cc42bc2e3a4b,SCN,2024-06-10_14h40.16.617,LearnStrategy,2023.2.3,MacIntel,62.5,7,2,6,,,,,,,,4,15,,,,,,,,,,,1,8.835,0,,,,,,-0.394313321,-0.267928602,1,0,0,8.8347,Andesite_rect,5,0,5,0,1
6630da710ce3cc42bc2e3a4b,SCN,2024-06-10_14h40.16.617,LearnStrategy,2023.2.3,MacIntel,62.5,7,2,7,,,,,,,,1,02,,,,,,,,,,,6,5.319,0,,,,,,-0.107175903,-0.417677951,1,0,0,5.3187,Pegmatite_rect,6,0,6,0,1
6630da710ce3cc42bc2e3a4b,SCN,2024-06-10_14h40.16.617,LearnStrategy,2023.2.3,MacIntel,62.5,7,2,8,,,,,,,,8,05,,,,,,,,,,,8,1.91,1,,,,,,0.405302734,-0.397737088,1,0,0,1.9105,Pumice_rect,7,0,7,0,1
6630da710ce3cc42bc2e3a4b,SCN,2024-06-10_14h40.16.617,LearnStrategy,2023.2.3,MacIntel,62.5,7,2,9,,,,,,,,7,08,,,,,,,,,,,7,1.81,1,,,,,,0.125717841,-0.404014621,1,0,0,1.8102,Peridotite_rect,8,0,8,0,1
6630da710ce3cc42bc2e3a4b,SCN,2024-06-10_14h40.16.617,LearnStrategy,2023.2.3,MacIntel,62.5,7,2,10,,,,,,,,2,12,,,,,,,,,,,8,4.124,0,,,,,,0.34303833,-0.398149482,1,0,0,4.1237,Pumice_rect,9,0,9,0,1
6630da710ce3cc42bc2e3a4b,SCN,2024-06-10_14h40.16.617,LearnStrategy,2023.2.3,MacIntel,62.5,7,2,11,,,,,,,,6,06,,,,,,,,,,,6,3.355,1,,,,,,-0.165465495,-0.413205363,1,0,0,3.3549,Pegmatite_rect,10,0,10,0,1
6630da710ce3cc42bc2e3a4b,SCN,2024-06-10_14h40.16.617,LearnStrategy,2023.2.3,MacIntel,62.5,7,2,12,,,,,,,,8,06,,,,,,,,,,,8,1.722,1,,,,,,0.342607964,-0.404636637,1,0,0,1.7223,Pumice_rect,11,0,11,0,1
6630da710ce3cc42bc2e3a4b,SCN,2024-06-10_14h40.16.617,LearnStrategy,2023.2.3,MacIntel,62.5,7,2,13,,,,,,,,3,15,,,,,,,,,,,3,4.346,1,,,,,,0.109546644,-0.252732137,1,0,0,4.3465,Diorite_rect,12,0,12,0,1
6630da710ce3cc42bc2e3a4b,SCN,2024-06-10_14h40.16.617,LearnStrategy,2023.2.3,MacIntel,62.5,7,2,14,,,,,,,,7,05,,,,,,,,,,,4,4.686,0,,,,,,0.445951742,-0.257625732,1,0,0,4.6858,Gabbro_rect,13,0,13,0,1
6630da710ce3cc42bc2e3a4b,SCN,2024-06-10_14h40.16.617,LearnStrategy,2023.2.3,MacIntel,62.5,7,2,15,,,,,,,,5,11,,,,,,,,,,,5,1.265,1,,,,,,-0.362365316,-0.393562351,1,0,0,1.2651,Obsidian_rect,14,0,14,0,1
6630da710ce3cc42bc2e3a4b,SCN,2024-06-10_14h40.16.617,LearnStrategy,2023.2.3,MacIntel,62.5,7,2,16,,,,,,,,5,08,,,,,,,,,,,5,1.862,1,,,,,,-0.362365316,-0.393562351,1,0,0,1.8624,Obsidian_rect,15,0,15,0,1
6630da710ce3cc42bc2e3a4b,SCN,2024-06-10_14h40.16.617,LearnStrategy,2023.2.3,MacIntel,62.5,8,1,1,-0.113587443,0.095138346,1,0,0,2.3464,Obsidian_04,5,04,4,4,2.346,-0.377370673,-0.416041667,1,0,0,1.3699,Obsidian_rect,5,1.37,1,0,0,0,0,1,,,,,,,,,,,,
6630da710ce3cc42bc2e3a4b,SCN,2024-06-10_14h40.16.617,LearnStrategy,2023.2.3,MacIntel,62.5,8,1,2,0.411202257,0.436892056,1,0,0,1.9152,Pegmatite_16,6,16,6,7,1.915,-0.119761149,-0.39358724,1,0,0,3.7043,Pegmatite_rect,6,3.704,1,1,0,1,0,1,,,,,,,,,,,,
6630da710ce3cc42bc2e3a4b,SCN,2024-06-10_14h40.16.617,LearnStrategy,2023.2.3,MacIntel,62.5,8,1,3,-0.527092777,0.271636268,1,0,0,2.0478,Obsidian_07,5,07,5,1,2.048,-0.408792928,-0.41866706,1,0,0,1.0315,Obsidian_rect,5,1.032,1,2,0,2,0,1,,,,,,,,,,,,
6630da710ce3cc42bc2e3a4b,SCN,2024-06-10_14h40.16.617,LearnStrategy,2023.2.3,MacIntel,62.5,8,1,4,-0.259465807,-0.291833903,1,0,0,1.0327,Gabbro_14,4,14,2,3,1.033,-0.344352146,-0.270420464,1,0,0,2.9128,Andesite_rect,1,2.913,0,3,0,3,0,1,,,,,,,,,,,,
6630da710ce3cc42bc2e3a4b,SCN,2024-06-10_14h40.16.617,LearnStrategy,2023.2.3,MacIntel,62.5,8,1,5,0.575731066,-0.260387099,1,0,0,1.2291,Gabbro_11,4,11,2,8,1.229,0.446117486,-0.248274468,1,0,0,1.241,Gabbro_rect,4,1.241,1,4,0,4,0,1,,,,,,,,,,,,
6630da710ce3cc42bc2e3a4b,SCN,2024-06-10_14h40.16.617,LearnStrategy,2023.2.3,MacIntel,62.5,8,1,6,0.228246731,0.255351647,1,0,0,1.6816,Basalt_10,2,10,5,6,1.682,-0.149922078,-0.234267578,1,0,0,1.2978,Basalt_rect,2,1.298,1,5,0,5,0,1,,,,,,,,,,,,
6630da710ce3cc42bc2e3a4b,SCN,2024-06-10_14h40.16.617,LearnStrategy,2023.2.3,MacIntel,62.5,8,1,7,0.035471463,0.073826362,1,0,0,1.1498,Basalt_08,2,08,4,5,1.15,-0.123668891,-0.258853285,1,0,0,1.0474,Basalt_rect,2,1.047,1,6,0,6,0,1,,,,,,,,,,,,
6630da710ce3cc42bc2e3a4b,SCN,2024-06-10_14h40.16.617,LearnStrategy,2023.2.3,MacIntel,62.5,8,1,8,-0.224443088,0.261836209,1,0,0,2.2163,Andesite_16,1,16,5,3,2.216,0.099400499,-0.237660387,1,0,0,4.2035,Diorite_rect,3,4.203,0,7,0,7,0,1,,,,,,,,,,,,
6630da710ce3cc42bc2e3a4b,SCN,2024-06-10_14h40.16.617,LearnStrategy,2023.2.3,MacIntel,62.5,8,1,9,-0.553494331,-0.432833388,1,0,0,2.6963,Diorite_10,3,10,1,1,2.696,0.104928385,-0.259181044,1,0,0,3.0719,Diorite_rect,3,3.072,1,8,0,8,0,1,,,,,,,,,,,,
6630da710ce3cc42bc2e3a4b,SCN,2024-06-10_14h40.16.617,LearnStrategy,2023.2.3,MacIntel,62.5,8,1,10,0.435163032,0.117894185,1,0,0,1.1645,Diorite_11,3,11,4,7,1.164,0.134632433,-0.243447944,1,0,0,1.0967,Diorite_rect,3,1.097,1,9,0,9,0,1,,,,,,,,,,,,
6630da710ce3cc42bc2e3a4b,SCN,2024-06-10_14h40.16.617,LearnStrategy,2023.2.3,MacIntel,62.5,8,1,11,0.368184136,-0.273473443,1,0,0,1.6311,Diorite_02,3,02,2,7,1.631,0.090099487,-0.25210144,1,0,0,3.0927,Diorite_rect,3,3.093,1,10,0,10,0,1,,,,,,,,,,,,
6630da710ce3cc42bc2e3a4b,SCN,2024-06-10_14h40.16.617,LearnStrategy,2023.2.3,MacIntel,62.5,8,1,12,-0.079489543,0.394337175,1,0,0,2.7327,Andesite_01,1,01,6,4,2.733,0.125758057,-0.411500719,1,0,0,3.5815,Peridotite_rect,7,3.582,0,11,0,11,0,1,,,,,,,,,,,,
6630da710ce3cc42bc2e3a4b,SCN,2024-06-10_14h40.16.617,LearnStrategy,2023.2.3,MacIntel,62.5,8,1,13,-0.379858907,-0.111707628,1,0,0,6.3473,Gabbro_16,4,16,3,2,6.347,-0.111311374,-0.251691555,1,0,0,1.8236,Basalt_rect,2,1.824,0,12,0,12,0,1,,,,,,,,,,,,
6630da710ce3cc42bc2e3a4b,SCN,2024-06-10_14h40.16.617,LearnStrategy,2023.2.3,MacIntel,62.5,8,1,14,0.259958632,0.242826453,1,0,0,2.4828,Basalt_10,2,10,5,6,2.483,0.364186062,-0.25651218,1,0,0,1.9358,Gabbro_rect,4,1.936,0,13,0,13,0,1,,,,,,,,,,,,
6630da710ce3cc42bc2e3a4b,SCN,2024-06-10_14h40.16.617,LearnStrategy,2023.2.3,MacIntel,62.5,8,1,15,-0.397709452,-0.067851223,1,0,0,2.1139,Gabbro_16,4,16,3,2,2.114,-0.173203532,-0.244913873,1,0,0,6.0443,Basalt_rect,2,6.044,0,14,0,14,0,1,,,,,,,,,,,,
6630da710ce3cc42bc2e3a4b,SCN,2024-06-10_14h40.16.617,LearnStrategy,2023.2.3,MacIntel,62.5,8,1,16,0.242883097,0.27194341,1,0,0,2.678,Basalt_10,2,10,5,6,2.678,-0.051052314,-0.232367147,1,0,0,1.6951,Basalt_rect,2,1.695,1,15,0,15,0,1,,,,,,,,,,,,
6630da710ce3cc42bc2e3a4b,SCN,2024-06-10_14h40.16.617,LearnStrategy,2023.2.3,MacIntel,62.5,8,2,1,,,,,,,,4,08,,,,,,,,,,,4,5.536,1,,,,,,0.392244737,-0.254467638,1,0,0,5.5363,Gabbro_rect,0,0,0,0,1
6630da710ce3cc42bc2e3a4b,SCN,2024-06-10_14h40.16.617,LearnStrategy,2023.2.3,MacIntel,62.5,8,2,2,,,,,,,,3,12,,,,,,,,,,,3,1.88,1,,,,,,0.136134101,-0.269820218,1,0,0,1.88,Diorite_rect,1,0,1,0,1
6630da710ce3cc42bc2e3a4b,SCN,2024-06-10_14h40.16.617,LearnStrategy,2023.2.3,MacIntel,62.5,8,2,3,,,,,,,,1,10,,,,,,,,,,,1,6.342,1,,,,,,-0.334680311,-0.256105957,1,0,0,6.3421,Andesite_rect,2,0,2,0,1
6630da710ce3cc42bc2e3a4b,SCN,2024-06-10_14h40.16.617,LearnStrategy,2023.2.3,MacIntel,62.5,8,2,4,,,,,,,,6,10,,,,,,,,,,,6,1.681,1,,,,,,-0.150882907,-0.414644911,1,0,0,1.6812,Pegmatite_rect,3,0,3,0,1
6630da710ce3cc42bc2e3a4b,SCN,2024-06-10_14h40.16.617,LearnStrategy,2023.2.3,MacIntel,62.5,8,2,5,,,,,,,,4,01,,,,,,,,,,,4,9.967,1,,,,,,0.388725315,-0.239072401,1,0,0,9.9672,Gabbro_rect,4,0,4,0,1
6630da710ce3cc42bc2e3a4b,SCN,2024-06-10_14h40.16.617,LearnStrategy,2023.2.3,MacIntel,62.5,8,2,6,,,,,,,,2,05,,,,,,,,,,,2,2.287,1,,,,,,-0.135114136,-0.248957384,1,0,0,2.287,Basalt_rect,5,0,5,0,1
6630da710ce3cc42bc2e3a4b,SCN,2024-06-10_14h40.16.617,LearnStrategy,2023.2.3,MacIntel,62.5,8,2,7,,,,,,,,7,06,,,,,,,,,,,7,2.141,1,,,,,,0.12303304,-0.401827189,1,0,0,2.141,Peridotite_rect,6,0,6,0,1
6630da710ce3cc42bc2e3a4b,SCN,2024-06-10_14h40.16.617,LearnStrategy,2023.2.3,MacIntel,62.5,8,2,8,,,,,,,,8,13,,,,,,,,,,,8,1.601,1,,,,,,0.351532661,-0.401820475,1,0,0,1.6011,Pumice_rect,7,0,7,0,1
6630da710ce3cc42bc2e3a4b,SCN,2024-06-10_14h40.16.617,LearnStrategy,2023.2.3,MacIntel,62.5,8,2,9,,,,,,,,5,05,,,,,,,,,,,5,1.38,1,,,,,,-0.364047072,-0.393097466,1,0,0,1.3799,Obsidian_rect,8,0,8,0,1
6630da710ce3cc42bc2e3a4b,SCN,2024-06-10_14h40.16.617,LearnStrategy,2023.2.3,MacIntel,62.5,8,2,10,,,,,,,,2,11,,,,,,,,,,,2,4.729,1,,,,,,-0.127538249,-0.253095364,1,0,0,4.729,Basalt_rect,9,0,9,0,1
6630da710ce3cc42bc2e3a4b,SCN,2024-06-10_14h40.16.617,LearnStrategy,2023.2.3,MacIntel,62.5,8,2,11,,,,,,,,5,14,,,,,,,,,,,5,1.271,1,,,,,,-0.357537333,-0.397943115,1,0,0,1.2706,Obsidian_rect,10,0,10,0,1
6630da710ce3cc42bc2e3a4b,SCN,2024-06-10_14h40.16.617,LearnStrategy,2023.2.3,MacIntel,62.5,8,2,12,,,,,,,,7,07,,,,,,,,,,,7,1.452,1,,,,,,0.120142822,-0.398406101,1,0,0,1.4515,Peridotite_rect,11,0,11,0,1
6630da710ce3cc42bc2e3a4b,SCN,2024-06-10_14h40.16.617,LearnStrategy,2023.2.3,MacIntel,62.5,8,2,13,,,,,,,,1,06,,,,,,,,,,,1,3.417,1,,,,,,-0.373024563,-0.259341159,1,0,0,3.4167,Andesite_rect,12,0,12,0,1
6630da710ce3cc42bc2e3a4b,SCN,2024-06-10_14h40.16.617,LearnStrategy,2023.2.3,MacIntel,62.5,8,2,14,,,,,,,,6,08,,,,,,,,,,,6,1.46,1,,,,,,-0.15035753,-0.395539212,1,0,0,1.46,Pegmatite_rect,13,0,13,0,1
6630da710ce3cc42bc2e3a4b,SCN,2024-06-10_14h40.16.617,LearnStrategy,2023.2.3,MacIntel,62.5,8,2,15,,,,,,,,8,15,,,,,,,,,,,8,1.385,1,,,,,,0.374012044,-0.400129395,1,0,0,1.3846,Pumice_rect,14,0,14,0,1
6630da710ce3cc42bc2e3a4b,SCN,2024-06-10_14h40.16.617,LearnStrategy,2023.2.3,MacIntel,62.5,8,2,16,,,,,,,,3,07,,,,,,,,,,,1,9.63,0,,,,,,-0.347196486,-0.241818848,1,0,0,9.63,Andesite_rect,15,0,15,0,1
6630da710ce3cc42bc2e3a4b,SCN,2024-06-10_14h40.16.617,LearnStrategy,2023.2.3,MacIntel,62.5,9,1,1,0.108615994,0.074828423,1,0,0,1.7167,Basalt_08,2,08,4,5,1.717,-0.166935628,-0.25692905,1,0,0,2.2332,Basalt_rect,2,2.233,1,0,0,0,0,1,,,,,,,,,,,,
6630da710ce3cc42bc2e3a4b,SCN,2024-06-10_14h40.16.617,LearnStrategy,2023.2.3,MacIntel,62.5,9,1,2,-0.254711677,-0.133172336,1,0,0,1.7152,Diorite_06,3,06,3,3,1.715,0.103070747,-0.241916707,1,0,0,1.9364,Diorite_rect,3,1.936,1,1,0,1,0,1,,,,,,,,,,,,
6630da710ce3cc42bc2e3a4b,SCN,2024-06-10_14h40.16.617,LearnStrategy,2023.2.3,MacIntel,62.5,9,1,3,-0.407796563,-0.257393731,1,0,0,3.3829,Pumice_16,8,16,2,2,3.383,0.3915016,-0.396772325,1,0,0,54.1784,Pumice_rect,8,54.178,1,2,0,2,0,1,,,,,,,,,,,,
6630da710ce3cc42bc2e3a4b,SCN,2024-06-10_14h40.16.617,LearnStrategy,2023.2.3,MacIntel,62.5,9,1,4,-0.356590407,-0.103106283,1,0,0,1.5306,Gabbro_16,4,16,3,2,1.531,0.353742676,-0.252962782,1,0,0,3.0324,Gabbro_rect,4,3.032,1,3,0,3,0,1,,,,,,,,,,,,
6630da710ce3cc42bc2e3a4b,SCN,2024-06-10_14h40.16.617,LearnStrategy,2023.2.3,MacIntel,62.5,9,1,5,0.037858344,-0.131311171,1,0,0,1.2648,Basalt_02,2,02,3,5,1.265,0.374525825,-0.263389825,1,0,0,2.0315,Gabbro_rect,4,2.032,0,4,0,4,0,1,,,,,,,,,,,,
6630da710ce3cc42bc2e3a4b,SCN,2024-06-10_14h40.16.617,LearnStrategy,2023.2.3,MacIntel,62.5,9,1,6,-0.423242866,0.230687934,1,0,0,2.8152,Obsidian_16,5,16,5,2,2.815,-0.387296312,-0.401515096,1,0,0,1.2816,Obsidian_rect,5,1.282,1,5,0,5,0,1,,,,,,,,,,,,
6630da710ce3cc42bc2e3a4b,SCN,2024-06-10_14h40.16.617,LearnStrategy,2023.2.3,MacIntel,62.5,9,1,7,0.550645209,0.109265442,1,0,0,2.3312,Obsidian_10,5,10,4,8,2.331,-0.415138448,-0.404312473,1,0,0,1.2717,Obsidian_rect,5,1.272,1,6,0,6,0,1,,,,,,,,,,,,
6630da710ce3cc42bc2e3a4b,SCN,2024-06-10_14h40.16.617,LearnStrategy,2023.2.3,MacIntel,62.5,9,1,8,0.103873766,0.446060791,1,0,0,2.0003,Pegmatite_12,6,12,6,5,2,-0.11911004,-0.398143989,1,0,0,2.8344,Pegmatite_rect,6,2.834,1,7,0,7,0,1,,,,,,,,,,,,
6630da710ce3cc42bc2e3a4b,SCN,2024-06-10_14h40.16.617,LearnStrategy,2023.2.3,MacIntel,62.5,9,1,9,-0.243022732,0.401727159,1,0,0,1.9972,Basalt_14,2,14,6,3,1.997,-0.105991753,-0.250298055,1,0,0,2.6836,Basalt_rect,2,2.684,1,8,0,8,0,1,,,,,,,,,,,,
6630da710ce3cc42bc2e3a4b,SCN,2024-06-10_14h40.16.617,LearnStrategy,2023.2.3,MacIntel,62.5,9,1,10,-0.371201375,-0.432360704,1,0,0,2.1305,Gabbro_03,4,03,1,2,2.13,0.17175137,-0.258438585,1,0,0,2.6833,Diorite_rect,3,2.683,0,9,0,9,0,1,,,,,,,,,,,,
6630da710ce3cc42bc2e3a4b,SCN,2024-06-10_14h40.16.617,LearnStrategy,2023.2.3,MacIntel,62.5,9,1,11,0.268361138,-0.422297906,1,0,0,1.9464,Andesite_09,1,09,1,6,1.946,0.371847195,-0.228265584,1,0,0,1.4162,Gabbro_rect,4,1.416,0,10,0,10,0,1,,,,,,,,,,,,
6630da710ce3cc42bc2e3a4b,SCN,2024-06-10_14h40.16.617,LearnStrategy,2023.2.3,MacIntel,62.5,9,1,12,-0.570648431,0.116879137,1,0,0,1.2968,Pumice_08,8,08,4,1,1.297,0.424260661,-0.405942586,1,0,0,1.8148,Pumice_rect,8,1.815,1,11,0,11,0,1,,,,,,,,,,,,
6630da710ce3cc42bc2e3a4b,SCN,2024-06-10_14h40.16.617,LearnStrategy,2023.2.3,MacIntel,62.5,9,1,13,0.376030952,0.10177263,1,0,0,1.697,Diorite_11,3,11,4,7,1.697,0.141703016,-0.245554267,1,0,0,1.0536,Diorite_rect,3,1.054,1,12,0,12,0,1,,,,,,,,,,,,
6630da710ce3cc42bc2e3a4b,SCN,2024-06-10_14h40.16.617,LearnStrategy,2023.2.3,MacIntel,62.5,9,1,14,0.082650418,-0.397352363,1,0,0,1.0793,Diorite_13,3,13,1,5,1.079,0.109236993,-0.260884399,1,0,0,1.5318,Diorite_rect,3,1.532,1,13,0,13,0,1,,,,,,,,,,,,
6630da710ce3cc42bc2e3a4b,SCN,2024-06-10_14h40.16.617,LearnStrategy,2023.2.3,MacIntel,62.5,9,1,15,-0.245265299,0.083039449,1,0,0,1.35,Peridotite_13,7,13,4,3,1.35,0.118012492,-0.403425225,1,0,0,1.648,Peridotite_rect,7,1.648,1,14,0,14,0,1,,,,,,,,,,,,
6630da710ce3cc42bc2e3a4b,SCN,2024-06-10_14h40.16.617,LearnStrategy,2023.2.3,MacIntel,62.5,9,1,16,-0.365189684,-0.095938314,1,0,0,1.2966,Gabbro_16,4,16,3,2,1.297,0.395006239,-0.252694363,1,0,0,2.7827,Gabbro_rect,4,2.783,1,15,0,15,0,1,,,,,,,,,,,,
6630da710ce3cc42bc2e3a4b,SCN,2024-06-10_14h40.16.617,LearnStrategy,2023.2.3,MacIntel,62.5,9,2,1,,,,,,,,3,14,,,,,,,,,,,3,5.846,1,,,,,,0.10055169,-0.246315172,1,0,0,5.8456,Diorite_rect,0,0,0,0,1
6630da710ce3cc42bc2e3a4b,SCN,2024-06-10_14h40.16.617,LearnStrategy,2023.2.3,MacIntel,62.5,9,2,2,,,,,,,,1,11,,,,,,,,,,,2,7.086,0,,,,,,-0.112114868,-0.25292433,1,0,0,7.0865,Basalt_rect,1,0,1,0,1
6630da710ce3cc42bc2e3a4b,SCN,2024-06-10_14h40.16.617,LearnStrategy,2023.2.3,MacIntel,62.5,9,2,3,,,,,,,,7,15,,,,,,,,,,,7,1.938,1,,,,,,0.123812866,-0.395045166,1,0,0,1.9379,Peridotite_rect,2,0,2,0,1
6630da710ce3cc42bc2e3a4b,SCN,2024-06-10_14h40.16.617,LearnStrategy,2023.2.3,MacIntel,62.5,9,2,4,,,,,,,,4,10,,,,,,,,,,,4,8.786,1,,,,,,0.349045953,-0.237713826,1,0,0,8.7865,Gabbro_rect,3,0,3,0,1
6630da710ce3cc42bc2e3a4b,SCN,2024-06-10_14h40.16.617,LearnStrategy,2023.2.3,MacIntel,62.5,9,2,5,,,,,,,,8,09,,,,,,,,,,,8,1.339,1,,,,,,0.38738878,-0.403832872,1,0,0,1.3385,Pumice_rect,4,0,4,0,1
6630da710ce3cc42bc2e3a4b,SCN,2024-06-10_14h40.16.617,LearnStrategy,2023.2.3,MacIntel,62.5,9,2,6,,,,,,,,3,16,,,,,,,,,,,3,5.916,1,,,,,,0.130033637,-0.247093031,1,0,0,5.9162,Diorite_rect,5,0,5,0,1
6630da710ce3cc42bc2e3a4b,SCN,2024-06-10_14h40.16.617,LearnStrategy,2023.2.3,MacIntel,62.5,9,2,7,,,,,,,,7,16,,,,,,,,,,,7,2.853,1,,,,,,0.092313097,-0.390934584,1,0,0,2.8529,Peridotite_rect,6,0,6,0,1
6630da710ce3cc42bc2e3a4b,SCN,2024-06-10_14h40.16.617,LearnStrategy,2023.2.3,MacIntel,62.5,9,2,8,,,,,,,,6,13,,,,,,,,,,,6,1.454,1,,,,,,-0.167761366,-0.408403998,1,0,0,1.4543,Pegmatite_rect,7,0,7,0,1
6630da710ce3cc42bc2e3a4b,SCN,2024-06-10_14h40.16.617,LearnStrategy,2023.2.3,MacIntel,62.5,9,2,9,,,,,,,,6,05,,,,,,,,,,,6,1.096,1,,,,,,-0.167761366,-0.408403998,1,0,0,1.0965,Pegmatite_rect,8,0,8,0,1
6630da710ce3cc42bc2e3a4b,SCN,2024-06-10_14h40.16.617,LearnStrategy,2023.2.3,MacIntel,62.5,9,2,10,,,,,,,,2,01,,,,,,,,,,,2,1.448,1,,,,,,-0.139640028,-0.248129408,1,0,0,1.4481,Basalt_rect,9,0,9,0,1
6630da710ce3cc42bc2e3a4b,SCN,2024-06-10_14h40.16.617,LearnStrategy,2023.2.3,MacIntel,62.5,9,2,11,,,,,,,,5,12,,,,,,,,,,,5,1.164,1,,,,,,-0.338879191,-0.398360799,1,0,0,1.1641,Obsidian_rect,10,0,10,0,1
6630da710ce3cc42bc2e3a4b,SCN,2024-06-10_14h40.16.617,LearnStrategy,2023.2.3,MacIntel,62.5,9,2,12,,,,,,,,2,06,,,,,,,,,,,2,2.697,1,,,,,,-0.177665609,-0.256950616,1,0,0,2.6972,Basalt_rect,11,0,11,0,1
6630da710ce3cc42bc2e3a4b,SCN,2024-06-10_14h40.16.617,LearnStrategy,2023.2.3,MacIntel,62.5,9,2,13,,,,,,,,8,02,,,,,,,,,,,8,1.631,1,,,,,,0.359816352,-0.41016215,1,0,0,1.6308,Pumice_rect,12,0,12,0,1
6630da710ce3cc42bc2e3a4b,SCN,2024-06-10_14h40.16.617,LearnStrategy,2023.2.3,MacIntel,62.5,9,2,14,,,,,,,,4,12,,,,,,,,,,,1,2.616,0,,,,,,-0.469643283,-0.241089749,1,0,0,2.6164,Andesite_rect,13,0,13,0,1
6630da710ce3cc42bc2e3a4b,SCN,2024-06-10_14h40.16.617,LearnStrategy,2023.2.3,MacIntel,62.5,9,2,15,,,,,,,,1,05,,,,,,,,,,,7,1.678,0,,,,,,0.1579088,-0.414701131,1,0,0,1.6784,Peridotite_rect,14,0,14,0,1
6630da710ce3cc42bc2e3a4b,SCN,2024-06-10_14h40.16.617,LearnStrategy,2023.2.3,MacIntel,62.5,9,2,16,,,,,,,,5,09,,,,,,,,,,,5,1.332,1,,,,,,-0.338211466,-0.39206326,1,0,0,1.3321,Obsidian_rect,15,0,15,0,1
6630da710ce3cc42bc2e3a4b,SCN,2024-06-10_14h40.16.617,LearnStrategy,2023.2.3,MacIntel,62.5,,,,,,,,,,,,,,,,,,,,,,,,,,,,,,,,,,,,,,,,,,
6630da710ce3cc42bc2e3a4b,SCN,2024-06-10_14h40.16.617,LearnStrategy,2023.2.3,MacIntel,62.5,,,,,,,,,,,,,,,,,,,,,,,,,,,,,,,,,,,,,,,,,,
6630da710ce3cc42bc2e3a4b,SCN,2024-06-10_14h40.16.617,LearnStrategy,2023.2.3,MacIntel,62.5,,,,,,,,,,,3,10,1,1,,,,,,,,,,,,,,,,,,,,,,,,,,,,
6630da710ce3cc42bc2e3a4b,SCN,2024-06-10_14h40.16.617,LearnStrategy,2023.2.3,MacIntel,62.5,,,,,,,,,,,4,03,1,2,,,,,,,,,,,,,,,,,,,,,,,,,,,,
6630da710ce3cc42bc2e3a4b,SCN,2024-06-10_14h40.16.617,LearnStrategy,2023.2.3,MacIntel,62.5,,,,,,,,,,,7,04,1,3,,,,,,,,,,,,,,,,,,,,,,,,,,,,
6630da710ce3cc42bc2e3a4b,SCN,2024-06-10_14h40.16.617,LearnStrategy,2023.2.3,MacIntel,62.5,,,,,,,,,,,1,03,1,4,,,,,,,,,,,,,,,,,,,,,,,,,,,,
6630da710ce3cc42bc2e3a4b,SCN,2024-06-10_14h40.16.617,LearnStrategy,2023.2.3,MacIntel,62.5,,,,,,,,,,,3,13,1,5,,,,,,,,,,,,,,,,,,,,,,,,,,,,
6630da710ce3cc42bc2e3a4b,SCN,2024-06-10_14h40.16.617,LearnStrategy,2023.2.3,MacIntel,62.5,,,,,,,,,,,1,09,1,6,,,,,,,,,,,,,,,,,,,,,,,,,,,,
6630da710ce3cc42bc2e3a4b,SCN,2024-06-10_14h40.16.617,LearnStrategy,2023.2.3,MacIntel,62.5,,,,,,,,,,,2,04,1,7,,,,,,,,,,,,,,,,,,,,,,,,,,,,
6630da710ce3cc42bc2e3a4b,SCN,2024-06-10_14h40.16.617,LearnStrategy,2023.2.3,MacIntel,62.5,,,,,,,,,,,4,13,1,8,,,,,,,,,,,,,,,,,,,,,,,,,,,,
6630da710ce3cc42bc2e3a4b,SCN,2024-06-10_14h40.16.617,LearnStrategy,2023.2.3,MacIntel,62.5,,,,,,,,,,,6,03,2,1,,,,,,,,,,,,,,,,,,,,,,,,,,,,
6630da710ce3cc42bc2e3a4b,SCN,2024-06-10_14h40.16.617,LearnStrategy,2023.2.3,MacIntel,62.5,,,,,,,,,,,8,16,2,2,,,,,,,,,,,,,,,,,,,,,,,,,,,,
6630da710ce3cc42bc2e3a4b,SCN,2024-06-10_14h40.16.617,LearnStrategy,2023.2.3,MacIntel,62.5,,,,,,,,,,,4,14,2,3,,,,,,,,,,,,,,,,,,,,,,,,,,,,
6630da710ce3cc42bc2e3a4b,SCN,2024-06-10_14h40.16.617,LearnStrategy,2023.2.3,MacIntel,62.5,,,,,,,,,,,7,12,2,4,,,,,,,,,,,,,,,,,,,,,,,,,,,,
6630da710ce3cc42bc2e3a4b,SCN,2024-06-10_14h40.16.617,LearnStrategy,2023.2.3,MacIntel,62.5,,,,,,,,,,,7,14,2,5,,,,,,,,,,,,,,,,,,,,,,,,,,,,
6630da710ce3cc42bc2e3a4b,SCN,2024-06-10_14h40.16.617,LearnStrategy,2023.2.3,MacIntel,62.5,,,,,,,,,,,1,14,2,6,,,,,,,,,,,,,,,,,,,,,,,,,,,,
6630da710ce3cc42bc2e3a4b,SCN,2024-06-10_14h40.16.617,LearnStrategy,2023.2.3,MacIntel,62.5,,,,,,,,,,,3,02,2,7,,,,,,,,,,,,,,,,,,,,,,,,,,,,
6630da710ce3cc42bc2e3a4b,SCN,2024-06-10_14h40.16.617,LearnStrategy,2023.2.3,MacIntel,62.5,,,,,,,,,,,4,11,2,8,,,,,,,,,,,,,,,,,,,,,,,,,,,,
6630da710ce3cc42bc2e3a4b,SCN,2024-06-10_14h40.16.617,LearnStrategy,2023.2.3,MacIntel,62.5,,,,,,,,,,,5,06,3,1,,,,,,,,,,,,,,,,,,,,,,,,,,,,
6630da710ce3cc42bc2e3a4b,SCN,2024-06-10_14h40.16.617,LearnStrategy,2023.2.3,MacIntel,62.5,,,,,,,,,,,4,16,3,2,,,,,,,,,,,,,,,,,,,,,,,,,,,,
6630da710ce3cc42bc2e3a4b,SCN,2024-06-10_14h40.16.617,LearnStrategy,2023.2.3,MacIntel,62.5,,,,,,,,,,,3,06,3,3,,,,,,,,,,,,,,,,,,,,,,,,,,,,
6630da710ce3cc42bc2e3a4b,SCN,2024-06-10_14h40.16.617,LearnStrategy,2023.2.3,MacIntel,62.5,,,,,,,,,,,3,08,3,4,,,,,,,,,,,,,,,,,,,,,,,,,,,,
6630da710ce3cc42bc2e3a4b,SCN,2024-06-10_14h40.16.617,LearnStrategy,2023.2.3,MacIntel,62.5,,,,,,,,,,,2,02,3,5,,,,,,,,,,,,,,,,,,,,,,,,,,,,
6630da710ce3cc42bc2e3a4b,SCN,2024-06-10_14h40.16.617,LearnStrategy,2023.2.3,MacIntel,62.5,,,,,,,,,,,8,03,3,6,,,,,,,,,,,,,,,,,,,,,,,,,,,,
6630da710ce3cc42bc2e3a4b,SCN,2024-06-10_14h40.16.617,LearnStrategy,2023.2.3,MacIntel,62.5,,,,,,,,,,,1,04,3,7,,,,,,,,,,,,,,,,,,,,,,,,,,,,
6630da710ce3cc42bc2e3a4b,SCN,2024-06-10_14h40.16.617,LearnStrategy,2023.2.3,MacIntel,62.5,,,,,,,,,,,6,07,3,8,,,,,,,,,,,,,,,,,,,,,,,,,,,,
6630da710ce3cc42bc2e3a4b,SCN,2024-06-10_14h40.16.617,LearnStrategy,2023.2.3,MacIntel,62.5,,,,,,,,,,,8,08,4,1,,,,,,,,,,,,,,,,,,,,,,,,,,,,
6630da710ce3cc42bc2e3a4b,SCN,2024-06-10_14h40.16.617,LearnStrategy,2023.2.3,MacIntel,62.5,,,,,,,,,,,7,02,4,2,,,,,,,,,,,,,,,,,,,,,,,,,,,,
6630da710ce3cc42bc2e3a4b,SCN,2024-06-10_14h40.16.617,LearnStrategy,2023.2.3,MacIntel,62.5,,,,,,,,,,,7,13,4,3,,,,,,,,,,,,,,,,,,,,,,,,,,,,
6630da710ce3cc42bc2e3a4b,SCN,2024-06-10_14h40.16.617,LearnStrategy,2023.2.3,MacIntel,62.5,,,,,,,,,,,5,04,4,4,,,,,,,,,,,,,,,,,,,,,,,,,,,,
6630da710ce3cc42bc2e3a4b,SCN,2024-06-10_14h40.16.617,LearnStrategy,2023.2.3,MacIntel,62.5,,,,,,,,,,,2,08,4,5,,,,,,,,,,,,,,,,,,,,,,,,,,,,
6630da710ce3cc42bc2e3a4b,SCN,2024-06-10_14h40.16.617,LearnStrategy,2023.2.3,MacIntel,62.5,,,,,,,,,,,2,09,4,6,,,,,,,,,,,,,,,,,,,,,,,,,,,,
6630da710ce3cc42bc2e3a4b,SCN,2024-06-10_14h40.16.617,LearnStrategy,2023.2.3,MacIntel,62.5,,,,,,,,,,,3,11,4,7,,,,,,,,,,,,,,,,,,,,,,,,,,,,
6630da710ce3cc42bc2e3a4b,SCN,2024-06-10_14h40.16.617,LearnStrategy,2023.2.3,MacIntel,62.5,,,,,,,,,,,5,10,4,8,,,,,,,,,,,,,,,,,,,,,,,,,,,,
6630da710ce3cc42bc2e3a4b,SCN,2024-06-10_14h40.16.617,LearnStrategy,2023.2.3,MacIntel,62.5,,,,,,,,,,,5,07,5,1,,,,,,,,,,,,,,,,,,,,,,,,,,,,
6630da710ce3cc42bc2e3a4b,SCN,2024-06-10_14h40.16.617,LearnStrategy,2023.2.3,MacIntel,62.5,,,,,,,,,,,5,16,5,2,,,,,,,,,,,,,,,,,,,,,,,,,,,,
6630da710ce3cc42bc2e3a4b,SCN,2024-06-10_14h40.16.617,LearnStrategy,2023.2.3,MacIntel,62.5,,,,,,,,,,,1,16,5,3,,,,,,,,,,,,,,,,,,,,,,,,,,,,
6630da710ce3cc42bc2e3a4b,SCN,2024-06-10_14h40.16.617,LearnStrategy,2023.2.3,MacIntel,62.5,,,,,,,,,,,8,14,5,4,,,,,,,,,,,,,,,,,,,,,,,,,,,,
6630da710ce3cc42bc2e3a4b,SCN,2024-06-10_14h40.16.617,LearnStrategy,2023.2.3,MacIntel,62.5,,,,,,,,,,,6,15,5,5,,,,,,,,,,,,,,,,,,,,,,,,,,,,
6630da710ce3cc42bc2e3a4b,SCN,2024-06-10_14h40.16.617,LearnStrategy,2023.2.3,MacIntel,62.5,,,,,,,,,,,2,10,5,6,,,,,,,,,,,,,,,,,,,,,,,,,,,,
6630da710ce3cc42bc2e3a4b,SCN,2024-06-10_14h40.16.617,LearnStrategy,2023.2.3,MacIntel,62.5,,,,,,,,,,,4,09,5,7,,,,,,,,,,,,,,,,,,,,,,,,,,,,
6630da710ce3cc42bc2e3a4b,SCN,2024-06-10_14h40.16.617,LearnStrategy,2023.2.3,MacIntel,62.5,,,,,,,,,,,8,04,5,8,,,,,,,,,,,,,,,,,,,,,,,,,,,,
6630da710ce3cc42bc2e3a4b,SCN,2024-06-10_14h40.16.617,LearnStrategy,2023.2.3,MacIntel,62.5,,,,,,,,,,,5,02,6,1,,,,,,,,,,,,,,,,,,,,,,,,,,,,
6630da710ce3cc42bc2e3a4b,SCN,2024-06-10_14h40.16.617,LearnStrategy,2023.2.3,MacIntel,62.5,,,,,,,,,,,6,09,6,2,,,,,,,,,,,,,,,,,,,,,,,,,,,,
6630da710ce3cc42bc2e3a4b,SCN,2024-06-10_14h40.16.617,LearnStrategy,2023.2.3,MacIntel,62.5,,,,,,,,,,,2,14,6,3,,,,,,,,,,,,,,,,,,,,,,,,,,,,
6630da710ce3cc42bc2e3a4b,SCN,2024-06-10_14h40.16.617,LearnStrategy,2023.2.3,MacIntel,62.5,,,,,,,,,,,1,01,6,4,,,,,,,,,,,,,,,,,,,,,,,,,,,,
6630da710ce3cc42bc2e3a4b,SCN,2024-06-10_14h40.16.617,LearnStrategy,2023.2.3,MacIntel,62.5,,,,,,,,,,,6,12,6,5,,,,,,,,,,,,,,,,,,,,,,,,,,,,
6630da710ce3cc42bc2e3a4b,SCN,2024-06-10_14h40.16.617,LearnStrategy,2023.2.3,MacIntel,62.5,,,,,,,,,,,7,10,6,6,,,,,,,,,,,,,,,,,,,,,,,,,,,,
6630da710ce3cc42bc2e3a4b,SCN,2024-06-10_14h40.16.617,LearnStrategy,2023.2.3,MacIntel,62.5,,,,,,,,,,,6,16,6,7,,,,,,,,,,,,,,,,,,,,,,,,,,,,
6630da710ce3cc42bc2e3a4b,SCN,2024-06-10_14h40.16.617,LearnStrategy,2023.2.3,MacIntel,62.5,,,,,,,,,,,8,10,6,8,,,,,,,,,,,,,,,,,,,,,,,,,,,,