participant,condition,date,expName,psychopyVersion,OS,frameRate,block,phase,trial,learn_mouse.x,learn_mouse.y,learn_mouse.leftButton,learn_mouse.midButton,learn_mouse.rightButton,learn_mouse.time,learn_mouse.clicked_name,cat,token,row,col,t_select,cat_mouse_l.x,cat_mouse_l.y,cat_mouse_l.leftButton,cat_mouse_l.midButton,cat_mouse_l.rightButton,cat_mouse_l.time,cat_mouse_l.clicked_name,resp,t_resp,corr,train_trials.thisRepN,train_trials.thisTrialN,train_trials.thisN,train_trials.thisIndex,train_trials.ran,cat_mouse_t.x,cat_mouse_t.y,cat_mouse_t.leftButton,cat_mouse_t.midButton,cat_mouse_t.rightButton,cat_mouse_t.time,cat_mouse_t.clicked_name,test_trials.thisRepN,test_trials.thisTrialN,test_trials.thisN,test_trials.thisIndex,test_trials.ran,Bonus
66312c5a4b47cc24d7b28a22,SCN,2024-06-26_11h07.47.993,LearnStrategy,2023.2.3,MacIntel,6.816632584,,,,,,,,,,,,,,,,,,,,,,,,,,,,,,,,,,,,,,,,,,,
66312c5a4b47cc24d7b28a22,SCN,2024-06-26_11h07.47.993,LearnStrategy,2023.2.3,MacIntel,6.816632584,1,1,1,-0.266604614,0.409040606,1,0,0,9.2884,Obsidian_06,5,06,6,3,9.288,-0.39983837,-0.41835621,1,0,0,5.9938,Obsidian_rect,5,5.994,1,0,0,0,0,1,,,,,,,,,,,,,
66312c5a4b47cc24d7b28a22,SCN,2024-06-26_11h07.47.993,LearnStrategy,2023.2.3,MacIntel,6.816632584,1,1,2,-0.397909094,0.402633851,1,0,0,4.1533,Pegmatite_06,6,06,6,2,4.153,0.123829481,-0.398959464,1,0,0,8.4246,Peridotite_rect,7,8.425,0,1,0,1,0,1,,,,,,,,,,,,,
66312c5a4b47cc24d7b28a22,SCN,2024-06-26_11h07.47.993,LearnStrategy,2023.2.3,MacIntel,6.816632584,1,1,3,-0.548829029,0.40085712,1,0,0,5.7624,Gabbro_09,4,09,6,1,5.762,-0.141744882,-0.23534625,1,0,0,5.8389,Basalt_rect,2,5.839,0,2,0,2,0,1,,,,,,,,,,,,,
66312c5a4b47cc24d7b28a22,SCN,2024-06-26_11h07.47.993,LearnStrategy,2023.2.3,MacIntel,6.816632584,1,1,4,-0.091831236,0.400186369,1,0,0,7.9762,Diorite_09,3,09,6,4,7.976,-0.41637901,-0.256311487,1,0,0,16.5809,Andesite_rect,1,16.581,0,3,0,3,0,1,,,,,,,,,,,,,
66312c5a4b47cc24d7b28a22,SCN,2024-06-26_11h07.47.993,LearnStrategy,2023.2.3,MacIntel,6.816632584,1,1,5,0.23557468,0.414095547,1,0,0,9.6371,Diorite_06,3,06,6,6,9.637,0.126551084,-0.251864511,1,0,0,10.4319,Diorite_rect,3,10.432,1,4,0,4,0,1,,,,,,,,,,,,,
66312c5a4b47cc24d7b28a22,SCN,2024-06-26_11h07.47.993,LearnStrategy,2023.2.3,MacIntel,6.816632584,1,1,6,0.537772172,0.387682583,1,0,0,4.5486,Pumice_13,8,13,6,8,4.549,0.374819381,-0.398029921,1,0,0,9.5366,Pumice_rect,8,9.537,1,5,0,5,0,1,,,,,,,,,,,,,
66312c5a4b47cc24d7b28a22,SCN,2024-06-26_11h07.47.993,LearnStrategy,2023.2.3,MacIntel,6.816632584,1,1,7,-0.378983561,0.089106185,1,0,0,5.4902,Andesite_07,1,07,4,2,5.49,0.137032064,-0.255386635,1,0,0,8.0292,Diorite_rect,3,8.029,0,6,0,6,0,1,,,,,,,,,,,,,
66312c5a4b47cc24d7b28a22,SCN,2024-06-26_11h07.47.993,LearnStrategy,2023.2.3,MacIntel,6.816632584,1,1,8,-0.228177332,-0.40011608,1,0,0,7.382,Pegmatite_09,6,09,1,3,7.382,0.166199183,-0.396570163,1,0,0,8.5137,Peridotite_rect,7,8.514,0,7,0,7,0,1,,,,,,,,,,,,,
66312c5a4b47cc24d7b28a22,SCN,2024-06-26_11h07.47.993,LearnStrategy,2023.2.3,MacIntel,6.816632584,1,1,9,-0.383275576,-0.399978694,1,0,0,1.9896,Peridotite_05,7,05,1,2,1.99,0.344252749,-0.249678266,1,0,0,12.0819,Gabbro_rect,4,12.082,0,8,0,8,0,1,,,,,,,,,,,,,
66312c5a4b47cc24d7b28a22,SCN,2024-06-26_11h07.47.993,LearnStrategy,2023.2.3,MacIntel,6.816632584,1,1,10,0.072627089,-0.255196465,1,0,0,6.941,Pumice_09,8,09,2,5,6.941,0.371550609,-0.388278989,1,0,0,2.8727,Pumice_rect,8,2.873,1,9,0,9,0,1,,,,,,,,,,,,,
66312c5a4b47cc24d7b28a22,SCN,2024-06-26_11h07.47.993,LearnStrategy,2023.2.3,MacIntel,6.816632584,1,1,11,-0.514425772,-0.254865519,1,0,0,1.9687,Basalt_11,2,11,2,1,1.969,0.399071135,-0.242450516,1,0,0,13.8082,Gabbro_rect,4,13.808,0,10,0,10,0,1,,,,,,,,,,,,,
66312c5a4b47cc24d7b28a22,SCN,2024-06-26_11h07.47.993,LearnStrategy,2023.2.3,MacIntel,6.816632584,1,1,12,-0.217895282,-0.238387157,1,0,0,9.0078,Andesite_01,1,01,2,3,9.008,-0.433809068,-0.255468072,1,0,0,4.713,Andesite_rect,1,4.713,1,11,0,11,0,1,,,,,,,,,,,,,
66312c5a4b47cc24d7b28a22,SCN,2024-06-26_11h07.47.993,LearnStrategy,2023.2.3,MacIntel,6.816632584,1,1,13,-0.54360928,-0.405736231,1,0,0,7.0387,Pegmatite_13,6,13,1,1,7.039,-0.143048209,-0.395692161,1,0,0,15.8541,Pegmatite_rect,6,15.854,1,12,0,12,0,1,,,,,,,,,,,,,
66312c5a4b47cc24d7b28a22,SCN,2024-06-26_11h07.47.993,LearnStrategy,2023.2.3,MacIntel,6.816632584,1,1,14,0.570139567,-0.108290891,1,0,0,2.5779,Pumice_10,8,10,3,8,2.578,0.434567148,-0.380711421,1,0,0,2.8046,Pumice_rect,8,2.805,1,13,0,13,0,1,,,,,,,,,,,,,
66312c5a4b47cc24d7b28a22,SCN,2024-06-26_11h07.47.993,LearnStrategy,2023.2.3,MacIntel,6.816632584,1,1,15,0.256134711,0.251417626,1,0,0,8.5997,Peridotite_13,7,13,5,6,8.6,-0.383155427,-0.254669076,1,0,0,8.2431,Andesite_rect,1,8.243,0,14,0,14,0,1,,,,,,,,,,,,,
66312c5a4b47cc24d7b28a22,SCN,2024-06-26_11h07.47.993,LearnStrategy,2023.2.3,MacIntel,6.816632584,1,1,16,0.092774116,0.252257679,1,0,0,3.5205,Andesite_06,1,06,5,5,3.52,-0.346570615,-0.24998508,1,0,0,8.6585,Andesite_rect,1,8.659,1,15,0,15,0,1,,,,,,,,,,,,,
66312c5a4b47cc24d7b28a22,SCN,2024-06-26_11h07.47.993,LearnStrategy,2023.2.3,MacIntel,6.816632584,1,2,1,,,,,,,,8,14,,,,,,,,,,,8,7.614,1,,,,,,0.417255317,-0.392211349,1,0,0,7.6142,Pumice_rect,0,0,0,0,1,
66312c5a4b47cc24d7b28a22,SCN,2024-06-26_11h07.47.993,LearnStrategy,2023.2.3,MacIntel,6.816632584,1,2,2,,,,,,,,3,14,,,,,,,,,,,1,16.109,0,,,,,,-0.386593176,-0.253371401,1,0,0,16.109,Andesite_rect,1,0,1,0,1,
66312c5a4b47cc24d7b28a22,SCN,2024-06-26_11h07.47.993,LearnStrategy,2023.2.3,MacIntel,6.816632584,1,2,3,,,,,,,,4,11,,,,,,,,,,,2,8.032,0,,,,,,-0.09190719,-0.247253531,1,0,0,8.0323,Basalt_rect,2,0,2,0,1,
66312c5a4b47cc24d7b28a22,SCN,2024-06-26_11h07.47.993,LearnStrategy,2023.2.3,MacIntel,6.816632584,1,2,4,,,,,,,,8,16,,,,,,,,,,,8,10.952,1,,,,,,0.38285952,-0.396385532,1,0,0,10.9524,Pumice_rect,3,0,3,0,1,
66312c5a4b47cc24d7b28a22,SCN,2024-06-26_11h07.47.993,LearnStrategy,2023.2.3,MacIntel,6.816632584,1,2,5,,,,,,,,2,10,,,,,,,,,,,4,10.597,0,,,,,,0.427398456,-0.246761915,1,0,0,10.5969,Gabbro_rect,4,0,4,0,1,
66312c5a4b47cc24d7b28a22,SCN,2024-06-26_11h07.47.993,LearnStrategy,2023.2.3,MacIntel,6.816632584,1,2,6,,,,,,,,5,11,,,,,,,,,,,5,1.976,1,,,,,,-0.378437636,-0.399153646,1,0,0,1.9763,Obsidian_rect,5,0,5,0,1,
66312c5a4b47cc24d7b28a22,SCN,2024-06-26_11h07.47.993,LearnStrategy,2023.2.3,MacIntel,6.816632584,1,2,7,,,,,,,,7,07,,,,,,,,,,,7,11.196,1,,,,,,0.141896114,-0.403005416,1,0,0,11.1962,Peridotite_rect,6,0,6,0,1,
66312c5a4b47cc24d7b28a22,SCN,2024-06-26_11h07.47.993,LearnStrategy,2023.2.3,MacIntel,6.816632584,1,2,8,,,,,,,,1,03,,,,,,,,,,,1,5.629,1,,,,,,-0.396543828,-0.245633048,1,0,0,5.6289,Andesite_rect,7,0,7,0,1,
66312c5a4b47cc24d7b28a22,SCN,2024-06-26_11h07.47.993,LearnStrategy,2023.2.3,MacIntel,6.816632584,1,2,9,,,,,,,,4,16,,,,,,,,,,,2,7.639,0,,,,,,-0.127076439,-0.23969071,1,0,0,7.6387,Basalt_rect,8,0,8,0,1,
66312c5a4b47cc24d7b28a22,SCN,2024-06-26_11h07.47.993,LearnStrategy,2023.2.3,MacIntel,6.816632584,1,2,10,,,,,,,,2,14,,,,,,,,,,,2,13.545,1,,,,,,-0.12712278,-0.245218574,1,0,0,13.545,Basalt_rect,9,0,9,0,1,
66312c5a4b47cc24d7b28a22,SCN,2024-06-26_11h07.47.993,LearnStrategy,2023.2.3,MacIntel,6.816632584,1,2,11,,,,,,,,3,11,,,,,,,,,,,1,1.777,0,,,,,,-0.3453125,-0.235156024,1,0,0,1.777,Andesite_rect,10,0,10,0,1,
66312c5a4b47cc24d7b28a22,SCN,2024-06-26_11h07.47.993,LearnStrategy,2023.2.3,MacIntel,6.816632584,1,2,12,,,,,,,,6,15,,,,,,,,,,,1,7.79,0,,,,,,-0.366231848,-0.241341485,1,0,0,7.7904,Andesite_rect,11,0,11,0,1,
66312c5a4b47cc24d7b28a22,SCN,2024-06-26_11h07.47.993,LearnStrategy,2023.2.3,MacIntel,6.816632584,1,2,13,,,,,,,,1,04,,,,,,,,,,,1,3.776,1,,,,,,-0.367839672,-0.246948468,1,0,0,3.7764,Andesite_rect,12,0,12,0,1,
66312c5a4b47cc24d7b28a22,SCN,2024-06-26_11h07.47.993,LearnStrategy,2023.2.3,MacIntel,6.816632584,1,2,14,,,,,,,,6,03,,,,,,,,,,,6,14.423,1,,,,,,-0.083113607,-0.390357519,1,0,0,14.4232,Pegmatite_rect,13,0,13,0,1,
66312c5a4b47cc24d7b28a22,SCN,2024-06-26_11h07.47.993,LearnStrategy,2023.2.3,MacIntel,6.816632584,1,2,15,,,,,,,,7,04,,,,,,,,,,,6,7.813,0,,,,,,-0.080562111,-0.416026024,1,0,0,7.8126,Pegmatite_rect,14,0,14,0,1,
66312c5a4b47cc24d7b28a22,SCN,2024-06-26_11h07.47.993,LearnStrategy,2023.2.3,MacIntel,6.816632584,1,2,16,,,,,,,,5,07,,,,,,,,,,,5,4.655,1,,,,,,-0.379400748,-0.39450288,1,0,0,4.6546,Obsidian_rect,15,0,15,0,1,
66312c5a4b47cc24d7b28a22,SCN,2024-06-26_11h07.47.993,LearnStrategy,2023.2.3,MacIntel,6.816632584,2,1,1,-0.395887022,-0.112956972,1,0,0,7.5673,Pegmatite_07,6,07,3,2,7.567,-0.112245122,-0.391309385,1,0,0,3.5761,Pegmatite_rect,6,3.576,1,0,0,0,0,1,,,,,,,,,,,,,
66312c5a4b47cc24d7b28a22,SCN,2024-06-26_11h07.47.993,LearnStrategy,2023.2.3,MacIntel,6.816632584,2,1,2,0.537734759,-0.417088035,1,0,0,7.2869,Peridotite_08,7,08,1,8,7.287,0.179095911,-0.399545062,1,0,0,3.7441,Peridotite_rect,7,3.744,1,1,0,1,0,1,,,,,,,,,,,,,
66312c5a4b47cc24d7b28a22,SCN,2024-06-26_11h07.47.993,LearnStrategy,2023.2.3,MacIntel,6.816632584,2,1,3,-0.210310985,0.255798566,1,0,0,3.3456,Diorite_16,3,16,5,3,3.346,0.17235616,-0.242113975,1,0,0,1.3101,Diorite_rect,3,1.31,1,2,0,2,0,1,,,,,,,,,,,,,
66312c5a4b47cc24d7b28a22,SCN,2024-06-26_11h07.47.993,LearnStrategy,2023.2.3,MacIntel,6.816632584,2,1,4,-0.062236645,-0.253465836,1,0,0,4.1302,Gabbro_15,4,15,2,4,4.13,-0.359745393,-0.243148465,1,0,0,3.1906,Andesite_rect,1,3.191,0,3,0,3,0,1,,,,,,,,,,,,,
66312c5a4b47cc24d7b28a22,SCN,2024-06-26_11h07.47.993,LearnStrategy,2023.2.3,MacIntel,6.816632584,2,1,5,-0.520773994,-0.396972543,1,0,0,4.0975,Pegmatite_13,6,13,1,1,4.097,0.060471598,-0.403928121,1,0,0,4.4811,Peridotite_rect,7,4.481,0,4,0,4,0,1,,,,,,,,,,,,,
66312c5a4b47cc24d7b28a22,SCN,2024-06-26_11h07.47.993,LearnStrategy,2023.2.3,MacIntel,6.816632584,2,1,6,0.384619819,-0.099515788,1,0,0,3.3195,Andesite_14,1,14,3,7,3.32,0.104221711,-0.389338006,1,0,0,5.4348,Peridotite_rect,7,5.435,0,5,0,5,0,1,,,,,,,,,,,,,
66312c5a4b47cc24d7b28a22,SCN,2024-06-26_11h07.47.993,LearnStrategy,2023.2.3,MacIntel,6.816632584,2,1,7,-0.410280129,0.42069373,1,0,0,5.609,Pegmatite_06,6,06,6,2,5.609,-0.148736007,-0.394505141,1,0,0,7.4545,Pegmatite_rect,6,7.455,1,6,0,6,0,1,,,,,,,,,,,,,
66312c5a4b47cc24d7b28a22,SCN,2024-06-26_11h07.47.993,LearnStrategy,2023.2.3,MacIntel,6.816632584,2,1,8,-0.207361744,-0.10200184,1,0,0,2.4164,Gabbro_05,4,05,3,3,2.416,-0.096183946,-0.245432479,1,0,0,7.0819,Basalt_rect,2,7.082,0,7,0,7,0,1,,,,,,,,,,,,,
66312c5a4b47cc24d7b28a22,SCN,2024-06-26_11h07.47.993,LearnStrategy,2023.2.3,MacIntel,6.816632584,2,1,9,0.392023383,0.081823335,1,0,0,1.5341,Basalt_02,2,02,4,7,1.534,-0.107261601,-0.247123097,1,0,0,4.374,Basalt_rect,2,4.374,1,8,0,8,0,1,,,,,,,,,,,,,
66312c5a4b47cc24d7b28a22,SCN,2024-06-26_11h07.47.993,LearnStrategy,2023.2.3,MacIntel,6.816632584,2,1,10,0.572958487,0.10247636,1,0,0,1.3354,Basalt_12,2,12,4,8,1.335,0.400903207,-0.248919678,1,0,0,4.4123,Gabbro_rect,4,4.412,0,9,0,9,0,1,,,,,,,,,,,,,
66312c5a4b47cc24d7b28a22,SCN,2024-06-26_11h07.47.993,LearnStrategy,2023.2.3,MacIntel,6.816632584,2,1,11,-0.530643152,0.100880037,1,0,0,1.349,Gabbro_08,4,08,4,1,1.349,0.347088962,-0.242705282,1,0,0,3.1588,Gabbro_rect,4,3.159,1,10,0,10,0,1,,,,,,,,,,,,,
66312c5a4b47cc24d7b28a22,SCN,2024-06-26_11h07.47.993,LearnStrategy,2023.2.3,MacIntel,6.816632584,2,1,12,0.101980139,-0.101047996,1,0,0,13.3445,Peridotite_02,7,02,3,5,13.344,0.139546938,-0.399901213,1,0,0,2.4079,Peridotite_rect,7,2.408,1,11,0,11,0,1,,,,,,,,,,,,,
66312c5a4b47cc24d7b28a22,SCN,2024-06-26_11h07.47.993,LearnStrategy,2023.2.3,MacIntel,6.816632584,2,1,13,-0.240167914,0.124415927,1,0,0,2.155,Pumice_04,8,04,4,3,2.155,0.398880344,-0.387854569,1,0,0,1.5243,Pumice_rect,8,1.524,1,12,0,12,0,1,,,,,,,,,,,,,
66312c5a4b47cc24d7b28a22,SCN,2024-06-26_11h07.47.993,LearnStrategy,2023.2.3,MacIntel,6.816632584,2,1,14,-0.504632229,-0.242363824,1,0,0,1.5416,Basalt_11,2,11,2,1,1.542,-0.118150273,-0.237790821,1,0,0,3.2267,Basalt_rect,2,3.227,1,13,0,13,0,1,,,,,,,,,,,,,
66312c5a4b47cc24d7b28a22,SCN,2024-06-26_11h07.47.993,LearnStrategy,2023.2.3,MacIntel,6.816632584,2,1,15,0.061287322,0.079493487,1,0,0,1.4753,Gabbro_03,4,03,4,5,1.475,0.160589034,-0.388757889,1,0,0,4.0877,Peridotite_rect,7,4.088,0,14,0,14,0,1,,,,,,,,,,,,,
66312c5a4b47cc24d7b28a22,SCN,2024-06-26_11h07.47.993,LearnStrategy,2023.2.3,MacIntel,6.816632584,2,1,16,-0.523645811,0.253060348,1,0,0,5.7437,Andesite_05,1,05,5,1,5.744,-0.088596146,-0.382838949,1,0,0,5.3518,Pegmatite_rect,6,5.352,0,15,0,15,0,1,,,,,,,,,,,,,
66312c5a4b47cc24d7b28a22,SCN,2024-06-26_11h07.47.993,LearnStrategy,2023.2.3,MacIntel,6.816632584,2,2,1,,,,,,,,2,04,,,,,,,,,,,2,6.817,1,,,,,,-0.129842122,-0.259254851,1,0,0,6.8167,Basalt_rect,0,0,0,0,1,
66312c5a4b47cc24d7b28a22,SCN,2024-06-26_11h07.47.993,LearnStrategy,2023.2.3,MacIntel,6.816632584,2,2,2,,,,,,,,5,08,,,,,,,,,,,5,2.349,1,,,,,,-0.375045098,-0.383319826,1,0,0,2.3493,Obsidian_rect,1,0,1,0,1,
66312c5a4b47cc24d7b28a22,SCN,2024-06-26_11h07.47.993,LearnStrategy,2023.2.3,MacIntel,6.816632584,2,2,3,,,,,,,,4,10,,,,,,,,,,,4,10.022,1,,,,,,0.379025042,-0.246111156,1,0,0,10.0218,Gabbro_rect,2,0,2,0,1,
66312c5a4b47cc24d7b28a22,SCN,2024-06-26_11h07.47.993,LearnStrategy,2023.2.3,MacIntel,6.816632584,2,2,4,,,,,,,,1,02,,,,,,,,,,,1,15.093,1,,,,,,-0.415369331,-0.260393722,1,0,0,15.0932,Andesite_rect,3,0,3,0,1,
66312c5a4b47cc24d7b28a22,SCN,2024-06-26_11h07.47.993,LearnStrategy,2023.2.3,MacIntel,6.816632584,2,2,5,,,,,,,,1,16,,,,,,,,,,,1,5.413,1,,,,,,-0.372050307,-0.247192835,1,0,0,5.413,Andesite_rect,4,0,4,0,1,
66312c5a4b47cc24d7b28a22,SCN,2024-06-26_11h07.47.993,LearnStrategy,2023.2.3,MacIntel,6.816632584,2,2,6,,,,,,,,3,02,,,,,,,,,,,1,19.906,0,,,,,,-0.333454612,-0.233660324,1,0,0,19.9062,Andesite_rect,5,0,5,0,1,
66312c5a4b47cc24d7b28a22,SCN,2024-06-26_11h07.47.993,LearnStrategy,2023.2.3,MacIntel,6.816632584,2,2,7,,,,,,,,4,14,,,,,,,,,,,4,8.722,1,,,,,,0.423698821,-0.247022841,1,0,0,8.7217,Gabbro_rect,6,0,6,0,1,
66312c5a4b47cc24d7b28a22,SCN,2024-06-26_11h07.47.993,LearnStrategy,2023.2.3,MacIntel,6.816632584,2,2,8,,,,,,,,7,16,,,,,,,,,,,7,5.12,1,,,,,,0.092336697,-0.417925347,1,0,0,5.1203,Peridotite_rect,7,0,7,0,1,
66312c5a4b47cc24d7b28a22,SCN,2024-06-26_11h07.47.993,LearnStrategy,2023.2.3,MacIntel,6.816632584,2,2,9,,,,,,,,6,16,,,,,,,,,,,3,7.002,0,,,,,,0.101870615,-0.252237334,1,0,0,7.0023,Diorite_rect,8,0,8,0,1,
66312c5a4b47cc24d7b28a22,SCN,2024-06-26_11h07.47.993,LearnStrategy,2023.2.3,MacIntel,6.816632584,2,2,10,,,,,,,,5,04,,,,,,,,,,,5,1.929,1,,,,,,-0.359271579,-0.399175799,1,0,0,1.9292,Obsidian_rect,9,0,9,0,1,
66312c5a4b47cc24d7b28a22,SCN,2024-06-26_11h07.47.993,LearnStrategy,2023.2.3,MacIntel,6.816632584,2,2,11,,,,,,,,6,08,,,,,,,,,,,6,13.578,1,,,,,,-0.14210352,-0.398586471,1,0,0,13.578,Pegmatite_rect,10,0,10,0,1,
66312c5a4b47cc24d7b28a22,SCN,2024-06-26_11h07.47.993,LearnStrategy,2023.2.3,MacIntel,6.816632584,2,2,12,,,,,,,,8,05,,,,,,,,,,,8,1.734,1,,,,,,0.375947853,-0.386195826,1,0,0,1.7344,Pumice_rect,11,0,11,0,1,
66312c5a4b47cc24d7b28a22,SCN,2024-06-26_11h07.47.993,LearnStrategy,2023.2.3,MacIntel,6.816632584,2,2,13,,,,,,,,2,01,,,,,,,,,,,2,3.969,1,,,,,,-0.114619276,-0.247225104,1,0,0,3.9694,Basalt_rect,12,0,12,0,1,
66312c5a4b47cc24d7b28a22,SCN,2024-06-26_11h07.47.993,LearnStrategy,2023.2.3,MacIntel,6.816632584,2,2,14,,,,,,,,7,06,,,,,,,,,,,6,13.537,0,,,,,,-0.130263604,-0.3944844,1,0,0,13.5369,Pegmatite_rect,13,0,13,0,1,
66312c5a4b47cc24d7b28a22,SCN,2024-06-26_11h07.47.993,LearnStrategy,2023.2.3,MacIntel,6.816632584,2,2,15,,,,,,,,8,03,,,,,,,,,,,8,2.211,1,,,,,,0.397958374,-0.391551943,1,0,0,2.2109,Pumice_rect,14,0,14,0,1,
66312c5a4b47cc24d7b28a22,SCN,2024-06-26_11h07.47.993,LearnStrategy,2023.2.3,MacIntel,6.816632584,2,2,16,,,,,,,,3,12,,,,,,,,,,,3,10.719,1,,,,,,0.186770856,-0.239782263,1,0,0,10.7187,Diorite_rect,15,0,15,0,1,
66312c5a4b47cc24d7b28a22,SCN,2024-06-26_11h07.47.993,LearnStrategy,2023.2.3,MacIntel,6.816632584,3,1,1,-0.530010195,-0.103936881,1,0,0,3.3261,Basalt_05,2,05,3,1,3.326,-0.150450078,-0.258314232,1,0,0,5.864,Basalt_rect,2,5.864,1,0,0,0,0,1,,,,,,,,,,,,,
66312c5a4b47cc24d7b28a22,SCN,2024-06-26_11h07.47.993,LearnStrategy,2023.2.3,MacIntel,6.816632584,3,1,2,-0.359821235,-0.106201963,1,0,0,1.1611,Pegmatite_07,6,07,3,2,1.161,0.161472914,-0.257450245,1,0,0,10.3975,Diorite_rect,3,10.398,0,1,0,1,0,1,,,,,,,,,,,,,
66312c5a4b47cc24d7b28a22,SCN,2024-06-26_11h07.47.993,LearnStrategy,2023.2.3,MacIntel,6.816632584,3,1,3,-0.231523302,-0.09129763,1,0,0,6.2951,Gabbro_05,4,05,3,3,6.295,0.396336873,-0.23958955,1,0,0,8.273,Gabbro_rect,4,8.273,1,2,0,2,0,1,,,,,,,,,,,,,
66312c5a4b47cc24d7b28a22,SCN,2024-06-26_11h07.47.993,LearnStrategy,2023.2.3,MacIntel,6.816632584,3,1,4,0.089685285,-0.104135019,1,0,0,1.9677,Peridotite_02,7,02,3,5,1.968,0.104933675,-0.402542114,1,0,0,1.3177,Peridotite_rect,7,1.318,1,3,0,3,0,1,,,,,,,,,,,,,
66312c5a4b47cc24d7b28a22,SCN,2024-06-26_11h07.47.993,LearnStrategy,2023.2.3,MacIntel,6.816632584,3,1,5,0.267495615,-0.128482508,1,0,0,1.5395,Diorite_10,3,10,3,6,1.54,-0.383096766,-0.258053645,1,0,0,3.6753,Andesite_rect,1,3.675,0,4,0,4,0,1,,,,,,,,,,,,,
66312c5a4b47cc24d7b28a22,SCN,2024-06-26_11h07.47.993,LearnStrategy,2023.2.3,MacIntel,6.816632584,3,1,6,0.40596483,-0.101872423,1,0,0,5.2245,Andesite_14,1,14,3,7,5.225,-0.41547795,-0.235805031,1,0,0,4.0486,Andesite_rect,1,4.049,1,5,0,5,0,1,,,,,,,,,,,,,
66312c5a4b47cc24d7b28a22,SCN,2024-06-26_11h07.47.993,LearnStrategy,2023.2.3,MacIntel,6.816632584,3,1,7,0.564438996,-0.247846589,1,0,0,3.5111,Andesite_10,1,10,2,8,3.511,-0.397072121,-0.255459143,1,0,0,13.7946,Andesite_rect,1,13.795,1,6,0,6,0,1,,,,,,,,,,,,,
66312c5a4b47cc24d7b28a22,SCN,2024-06-26_11h07.47.993,LearnStrategy,2023.2.3,MacIntel,6.816632584,3,1,8,0.24949906,-0.406444521,1,0,0,3.8605,Peridotite_12,7,12,1,6,3.861,0.197931699,-0.394926283,1,0,0,1.6225,Peridotite_rect,7,1.622,1,7,0,7,0,1,,,,,,,,,,,,,
66312c5a4b47cc24d7b28a22,SCN,2024-06-26_11h07.47.993,LearnStrategy,2023.2.3,MacIntel,6.816632584,3,1,9,0.093052843,-0.389054588,1,0,0,2.2019,Basalt_16,2,16,1,5,2.202,-0.087875818,-0.246658664,1,0,0,3.8953,Basalt_rect,2,3.895,1,8,0,8,0,1,,,,,,,,,,,,,
66312c5a4b47cc24d7b28a22,SCN,2024-06-26_11h07.47.993,LearnStrategy,2023.2.3,MacIntel,6.816632584,3,1,10,-0.238316063,-0.409876675,1,0,0,2.1477,Pegmatite_09,6,09,1,3,2.148,-0.076853095,-0.39254919,1,0,0,3.9317,Pegmatite_rect,6,3.932,1,9,0,9,0,1,,,,,,,,,,,,,
66312c5a4b47cc24d7b28a22,SCN,2024-06-26_11h07.47.993,LearnStrategy,2023.2.3,MacIntel,6.816632584,3,1,11,-0.378903198,0.082989926,1,0,0,1.3699,Andesite_07,1,07,4,2,1.37,-0.380239303,-0.242562979,1,0,0,1.7519,Andesite_rect,1,1.752,1,10,0,10,0,1,,,,,,,,,,,,,
66312c5a4b47cc24d7b28a22,SCN,2024-06-26_11h07.47.993,LearnStrategy,2023.2.3,MacIntel,6.816632584,3,1,12,-0.206427454,0.237897407,1,0,0,3.7198,Diorite_16,3,16,5,3,3.72,0.172525816,-0.242200103,1,0,0,3.3813,Diorite_rect,3,3.381,1,11,0,11,0,1,,,,,,,,,,,,,
66312c5a4b47cc24d7b28a22,SCN,2024-06-26_11h07.47.993,LearnStrategy,2023.2.3,MacIntel,6.816632584,3,1,13,-0.551358371,0.246053625,1,0,0,2.4379,Andesite_05,1,05,5,1,2.438,-0.36832897,-0.252416823,1,0,0,2.0597,Andesite_rect,1,2.06,1,12,0,12,0,1,,,,,,,,,,,,,
66312c5a4b47cc24d7b28a22,SCN,2024-06-26_11h07.47.993,LearnStrategy,2023.2.3,MacIntel,6.816632584,3,1,14,0.399826389,0.236729996,1,0,0,5.8572,Pegmatite_11,6,11,5,7,5.857,-0.187442017,-0.400074203,1,0,0,7.9256,Pegmatite_rect,6,7.926,1,13,0,13,0,1,,,,,,,,,,,,,
66312c5a4b47cc24d7b28a22,SCN,2024-06-26_11h07.47.993,LearnStrategy,2023.2.3,MacIntel,6.816632584,3,1,15,0.556509625,-0.415567356,1,0,0,1.1332,Peridotite_08,7,08,1,8,1.133,0.19012406,-0.408444779,1,0,0,2.4778,Peridotite_rect,7,2.478,1,14,0,14,0,1,,,,,,,,,,,,,
66312c5a4b47cc24d7b28a22,SCN,2024-06-26_11h07.47.993,LearnStrategy,2023.2.3,MacIntel,6.816632584,3,1,16,0.229529261,-0.407456744,1,0,0,2.7229,Peridotite_12,7,12,1,6,2.723,0.165852186,-0.382551462,1,0,0,2.5534,Peridotite_rect,7,2.553,1,15,0,15,0,1,,,,,,,,,,,,,
66312c5a4b47cc24d7b28a22,SCN,2024-06-26_11h07.47.993,LearnStrategy,2023.2.3,MacIntel,6.816632584,3,2,1,,,,,,,,7,10,,,,,,,,,,,7,2.241,1,,,,,,0.157184968,-0.394152662,1,0,0,2.241,Peridotite_rect,0,0,0,0,1,
66312c5a4b47cc24d7b28a22,SCN,2024-06-26_11h07.47.993,LearnStrategy,2023.2.3,MacIntel,6.816632584,3,2,2,,,,,,,,4,12,,,,,,,,,,,4,12.513,1,,,,,,0.425391981,-0.251476881,1,0,0,12.5125,Gabbro_rect,1,0,1,0,1,
66312c5a4b47cc24d7b28a22,SCN,2024-06-26_11h07.47.993,LearnStrategy,2023.2.3,MacIntel,6.816632584,3,2,3,,,,,,,,3,08,,,,,,,,,,,3,8.246,1,,,,,,0.172056297,-0.250699135,1,0,0,8.2463,Diorite_rect,2,0,2,0,1,
66312c5a4b47cc24d7b28a22,SCN,2024-06-26_11h07.47.993,LearnStrategy,2023.2.3,MacIntel,6.816632584,3,2,4,,,,,,,,4,01,,,,,,,,,,,7,1.876,0,,,,,,0.166468868,-0.388241125,1,0,0,1.8763,Peridotite_rect,3,0,3,0,1,
66312c5a4b47cc24d7b28a22,SCN,2024-06-26_11h07.47.993,LearnStrategy,2023.2.3,MacIntel,6.816632584,3,2,5,,,,,,,,1,11,,,,,,,,,,,1,4.961,1,,,,,,-0.403681324,-0.251324293,1,0,0,4.9606,Andesite_rect,4,0,4,0,1,
66312c5a4b47cc24d7b28a22,SCN,2024-06-26_11h07.47.993,LearnStrategy,2023.2.3,MacIntel,6.816632584,3,2,6,,,,,,,,3,07,,,,,,,,,,,3,10.007,1,,,,,,0.157477711,-0.242741846,1,0,0,10.0074,Diorite_rect,5,0,5,0,1,
66312c5a4b47cc24d7b28a22,SCN,2024-06-26_11h07.47.993,LearnStrategy,2023.2.3,MacIntel,6.816632584,3,2,7,,,,,,,,6,05,,,,,,,,,,,3,26.59,0,,,,,,0.19054735,-0.234583932,1,0,0,26.5898,Diorite_rect,6,0,6,0,1,
66312c5a4b47cc24d7b28a22,SCN,2024-06-26_11h07.47.993,LearnStrategy,2023.2.3,MacIntel,6.816632584,3,2,8,,,,,,,,6,10,,,,,,,,,,,6,8.47,1,,,,,,-0.096784125,-0.398003755,1,0,0,8.4704,Pegmatite_rect,7,0,7,0,1,
66312c5a4b47cc24d7b28a22,SCN,2024-06-26_11h07.47.993,LearnStrategy,2023.2.3,MacIntel,6.816632584,3,2,9,,,,,,,,1,09,,,,,,,,,,,1,12.043,1,,,,,,-0.35936528,-0.230270781,1,0,0,12.0428,Andesite_rect,8,0,8,0,1,
66312c5a4b47cc24d7b28a22,SCN,2024-06-26_11h07.47.993,LearnStrategy,2023.2.3,MacIntel,6.816632584,3,2,10,,,,,,,,2,06,,,,,,,,,,,2,1.798,1,,,,,,-0.15142291,-0.262402852,1,0,0,1.7979,Basalt_rect,9,0,9,0,1,
66312c5a4b47cc24d7b28a22,SCN,2024-06-26_11h07.47.993,LearnStrategy,2023.2.3,MacIntel,6.816632584,3,2,11,,,,,,,,8,15,,,,,,,,,,,8,4.336,1,,,,,,0.438828984,-0.410555409,1,0,0,4.3361,Pumice_rect,10,0,10,0,1,
66312c5a4b47cc24d7b28a22,SCN,2024-06-26_11h07.47.993,LearnStrategy,2023.2.3,MacIntel,6.816632584,3,2,12,,,,,,,,7,15,,,,,,,,,,,7,4.409,1,,,,,,0.097541979,-0.402392126,1,0,0,4.4086,Peridotite_rect,11,0,11,0,1,
66312c5a4b47cc24d7b28a22,SCN,2024-06-26_11h07.47.993,LearnStrategy,2023.2.3,MacIntel,6.816632584,3,2,13,,,,,,,,2,08,,,,,,,,,,,2,3.513,1,,,,,,-0.149457804,-0.240140957,1,0,0,3.513,Basalt_rect,12,0,12,0,1,
66312c5a4b47cc24d7b28a22,SCN,2024-06-26_11h07.47.993,LearnStrategy,2023.2.3,MacIntel,6.816632584,3,2,14,,,,,,,,8,02,,,,,,,,,,,8,1.537,1,,,,,,0.365094785,-0.388896349,1,0,0,1.537,Pumice_rect,13,0,13,0,1,
66312c5a4b47cc24d7b28a22,SCN,2024-06-26_11h07.47.993,LearnStrategy,2023.2.3,MacIntel,6.816632584,3,2,15,,,,,,,,5,14,,,,,,,,,,,5,3.853,1,,,,,,-0.401674624,-0.397607196,1,0,0,3.8533,Obsidian_rect,14,0,14,0,1,
66312c5a4b47cc24d7b28a22,SCN,2024-06-26_11h07.47.993,LearnStrategy,2023.2.3,MacIntel,6.816632584,3,2,16,,,,,,,,5,05,,,,,,,,,,,5,1.611,1,,,,,,-0.372187749,-0.406896294,1,0,0,1.611,Obsidian_rect,15,0,15,0,1,
66312c5a4b47cc24d7b28a22,SCN,2024-06-26_11h07.47.993,LearnStrategy,2023.2.3,MacIntel,6.816632584,4,1,1,-0.537444277,0.418400983,1,0,0,9.3466,Gabbro_09,4,09,6,1,9.347,0.364244701,-0.232619392,1,0,0,4.4438,Gabbro_rect,4,4.444,1,0,0,0,0,1,,,,,,,,,,,,,
66312c5a4b47cc24d7b28a22,SCN,2024-06-26_11h07.47.993,LearnStrategy,2023.2.3,MacIntel,6.816632584,4,1,2,-0.226518871,-0.255541879,1,0,0,5.7159,Andesite_01,1,01,2,3,5.716,-0.408873607,-0.244614382,1,0,0,6.8792,Andesite_rect,1,6.879,1,1,0,1,0,1,,,,,,,,,,,,,
66312c5a4b47cc24d7b28a22,SCN,2024-06-26_11h07.47.993,LearnStrategy,2023.2.3,MacIntel,6.816632584,4,1,3,-0.518020065,0.250867321,1,0,0,5.0302,Andesite_05,1,05,5,1,5.03,-0.343812618,-0.255807608,1,0,0,7.1451,Andesite_rect,1,7.145,1,2,0,2,0,1,,,,,,,,,,,,,
66312c5a4b47cc24d7b28a22,SCN,2024-06-26_11h07.47.993,LearnStrategy,2023.2.3,MacIntel,6.816632584,4,1,4,-0.555772796,0.104393514,1,0,0,2.9295,Gabbro_08,4,08,4,1,2.93,0.382694047,-0.239732022,1,0,0,2.792,Gabbro_rect,4,2.792,1,3,0,3,0,1,,,,,,,,,,,,,
66312c5a4b47cc24d7b28a22,SCN,2024-06-26_11h07.47.993,LearnStrategy,2023.2.3,MacIntel,6.816632584,4,1,5,0.405399125,-0.106157034,1,0,0,2.2203,Andesite_14,1,14,3,7,2.22,-0.368388423,-0.246577454,1,0,0,3.5762,Andesite_rect,1,3.576,1,4,0,4,0,1,,,,,,,,,,,,,
66312c5a4b47cc24d7b28a22,SCN,2024-06-26_11h07.47.993,LearnStrategy,2023.2.3,MacIntel,6.816632584,4,1,6,0.244177133,-0.240331014,1,0,0,6.044,Diorite_13,3,13,2,6,6.044,0.10650194,-0.265918534,1,0,0,5.7209,Diorite_rect,3,5.721,1,5,0,5,0,1,,,,,,,,,,,,,
66312c5a4b47cc24d7b28a22,SCN,2024-06-26_11h07.47.993,LearnStrategy,2023.2.3,MacIntel,6.816632584,4,1,7,0.095454576,0.250831604,1,0,0,3.3384,Andesite_06,1,06,5,5,3.338,-0.374872165,-0.241750703,1,0,0,5.9175,Andesite_rect,1,5.918,1,6,0,6,0,1,,,,,,,,,,,,,
66312c5a4b47cc24d7b28a22,SCN,2024-06-26_11h07.47.993,LearnStrategy,2023.2.3,MacIntel,6.816632584,4,1,8,-0.39483733,-0.100537279,1,0,0,5.8984,Pegmatite_07,6,07,3,2,5.898,-0.089762596,-0.414369258,1,0,0,13.2093,Pegmatite_rect,6,13.209,1,7,0,7,0,1,,,,,,,,,,,,,
66312c5a4b47cc24d7b28a22,SCN,2024-06-26_11h07.47.993,LearnStrategy,2023.2.3,MacIntel,6.816632584,4,1,9,-0.360821985,-0.11468698,1,0,0,6.4631,Pegmatite_07,6,07,3,2,6.463,-0.12532213,-0.396411641,1,0,0,6.5097,Pegmatite_rect,6,6.51,1,8,0,8,0,1,,,,,,,,,,,,,
66312c5a4b47cc24d7b28a22,SCN,2024-06-26_11h07.47.993,LearnStrategy,2023.2.3,MacIntel,6.816632584,4,1,10,-0.233444892,0.092924923,1,0,0,3.334,Pumice_04,8,04,4,3,3.334,0.419729953,-0.399332852,1,0,0,3.3617,Pumice_rect,8,3.362,1,9,0,9,0,1,,,,,,,,,,,,,
66312c5a4b47cc24d7b28a22,SCN,2024-06-26_11h07.47.993,LearnStrategy,2023.2.3,MacIntel,6.816632584,4,1,11,-0.208964256,0.241542392,1,0,0,2.9333,Diorite_16,3,16,5,3,2.933,0.083629806,-0.229517562,1,0,0,4.4204,Diorite_rect,3,4.42,1,10,0,10,0,1,,,,,,,,,,,,,
66312c5a4b47cc24d7b28a22,SCN,2024-06-26_11h07.47.993,LearnStrategy,2023.2.3,MacIntel,6.816632584,4,1,12,0.239413226,-0.095656218,1,0,0,5.2028,Diorite_10,3,10,3,6,5.203,0.169568549,-0.249078708,1,0,0,1.5437,Diorite_rect,3,1.544,1,11,0,11,0,1,,,,,,,,,,,,,
66312c5a4b47cc24d7b28a22,SCN,2024-06-26_11h07.47.993,LearnStrategy,2023.2.3,MacIntel,6.816632584,4,1,13,0.099299,-0.249635824,1,0,0,1.3591,Pumice_09,8,09,2,5,1.359,0.354014305,-0.393223515,1,0,0,1.3208,Pumice_rect,8,1.321,1,12,0,12,0,1,,,,,,,,,,,,,
66312c5a4b47cc24d7b28a22,SCN,2024-06-26_11h07.47.993,LearnStrategy,2023.2.3,MacIntel,6.816632584,4,1,14,-0.09401652,-0.093339708,1,0,0,1.4187,Pumice_08,8,08,3,4,1.419,0.389074481,-0.398697578,1,0,0,1.6079,Pumice_rect,8,1.608,1,13,0,13,0,1,,,,,,,,,,,,,
66312c5a4b47cc24d7b28a22,SCN,2024-06-26_11h07.47.993,LearnStrategy,2023.2.3,MacIntel,6.816632584,4,1,15,-0.093597751,0.251497735,1,0,0,4.9805,Pumice_06,8,06,5,4,4.981,0.446285446,-0.400905524,1,0,0,5.7744,Pumice_rect,8,5.774,1,14,0,14,0,1,,,,,,,,,,,,,
66312c5a4b47cc24d7b28a22,SCN,2024-06-26_11h07.47.993,LearnStrategy,2023.2.3,MacIntel,6.816632584,4,1,16,0.216492264,0.245593064,1,0,0,2.5139,Peridotite_13,7,13,5,6,2.514,0.123032973,-0.406442261,1,0,0,1.5377,Peridotite_rect,7,1.538,1,15,0,15,0,1,,,,,,,,,,,,,
66312c5a4b47cc24d7b28a22,SCN,2024-06-26_11h07.47.993,LearnStrategy,2023.2.3,MacIntel,6.816632584,4,2,1,,,,,,,,2,14,,,,,,,,,,,4,16.744,0,,,,,,0.446393274,-0.243049791,1,0,0,16.7442,Gabbro_rect,0,0,0,0,1,
66312c5a4b47cc24d7b28a22,SCN,2024-06-26_11h07.47.993,LearnStrategy,2023.2.3,MacIntel,6.816632584,4,2,2,,,,,,,,8,02,,,,,,,,,,,8,2.549,1,,,,,,0.396389092,-0.402316623,1,0,0,2.5494,Pumice_rect,1,0,1,0,1,
66312c5a4b47cc24d7b28a22,SCN,2024-06-26_11h07.47.993,LearnStrategy,2023.2.3,MacIntel,6.816632584,4,2,3,,,,,,,,6,16,,,,,,,,,,,3,6.111,0,,,,,,0.132561126,-0.247693041,1,0,0,6.1105,Diorite_rect,2,0,2,0,1,
66312c5a4b47cc24d7b28a22,SCN,2024-06-26_11h07.47.993,LearnStrategy,2023.2.3,MacIntel,6.816632584,4,2,4,,,,,,,,3,07,,,,,,,,,,,3,9.315,1,,,,,,0.136298286,-0.249841252,1,0,0,9.3154,Diorite_rect,3,0,3,0,1,
66312c5a4b47cc24d7b28a22,SCN,2024-06-26_11h07.47.993,LearnStrategy,2023.2.3,MacIntel,6.816632584,4,2,5,,,,,,,,1,09,,,,,,,,,,,1,5.462,1,,,,,,-0.360782199,-0.248448407,1,0,0,5.462,Andesite_rect,4,0,4,0,1,
66312c5a4b47cc24d7b28a22,SCN,2024-06-26_11h07.47.993,LearnStrategy,2023.2.3,MacIntel,6.816632584,4,2,6,,,,,,,,4,14,,,,,,,,,,,4,2.853,1,,,,,,0.397901521,-0.261192491,1,0,0,2.8527,Gabbro_rect,5,0,5,0,1,
66312c5a4b47cc24d7b28a22,SCN,2024-06-26_11h07.47.993,LearnStrategy,2023.2.3,MacIntel,6.816632584,4,2,7,,,,,,,,7,06,,,,,,,,,,,7,8.785,1,,,,,,0.128857987,-0.390597478,1,0,0,8.7846,Peridotite_rect,6,0,6,0,1,
66312c5a4b47cc24d7b28a22,SCN,2024-06-26_11h07.47.993,LearnStrategy,2023.2.3,MacIntel,6.816632584,4,2,8,,,,,,,,3,12,,,,,,,,,,,3,6.037,1,,,,,,0.163761393,-0.24763291,1,0,0,6.0367,Diorite_rect,7,0,7,0,1,
66312c5a4b47cc24d7b28a22,SCN,2024-06-26_11h07.47.993,LearnStrategy,2023.2.3,MacIntel,6.816632584,4,2,9,,,,,,,,2,04,,,,,,,,,,,2,3.287,1,,,,,,-0.118433069,-0.256482894,1,0,0,3.2872,Basalt_rect,8,0,8,0,1,
66312c5a4b47cc24d7b28a22,SCN,2024-06-26_11h07.47.993,LearnStrategy,2023.2.3,MacIntel,6.816632584,4,2,10,,,,,,,,4,01,,,,,,,,,,,1,16.155,0,,,,,,-0.393470821,-0.247235503,1,0,0,16.1554,Andesite_rect,9,0,9,0,1,
66312c5a4b47cc24d7b28a22,SCN,2024-06-26_11h07.47.993,LearnStrategy,2023.2.3,MacIntel,6.816632584,4,2,11,,,,,,,,7,10,,,,,,,,,,,7,9.953,1,,,,,,0.123932224,-0.396942534,1,0,0,9.9527,Peridotite_rect,10,0,10,0,1,
66312c5a4b47cc24d7b28a22,SCN,2024-06-26_11h07.47.993,LearnStrategy,2023.2.3,MacIntel,6.816632584,4,2,12,,,,,,,,5,05,,,,,,,,,,,5,2.581,1,,,,,,-0.396979551,-0.398315486,1,0,0,2.5809,Obsidian_rect,11,0,11,0,1,
66312c5a4b47cc24d7b28a22,SCN,2024-06-26_11h07.47.993,LearnStrategy,2023.2.3,MacIntel,6.816632584,4,2,13,,,,,,,,1,04,,,,,,,,,,,3,23.54,0,,,,,,0.147960635,-0.245639038,1,0,0,23.5403,Diorite_rect,12,0,12,0,1,
66312c5a4b47cc24d7b28a22,SCN,2024-06-26_11h07.47.993,LearnStrategy,2023.2.3,MacIntel,6.816632584,4,2,14,,,,,,,,5,14,,,,,,,,,,,5,1.995,1,,,,,,-0.40759526,-0.398153573,1,0,0,1.9953,Obsidian_rect,13,0,13,0,1,
66312c5a4b47cc24d7b28a22,SCN,2024-06-26_11h07.47.993,LearnStrategy,2023.2.3,MacIntel,6.816632584,4,2,15,,,,,,,,8,16,,,,,,,,,,,8,1.598,1,,,,,,0.425541178,-0.399281028,1,0,0,1.598,Pumice_rect,14,0,14,0,1,
66312c5a4b47cc24d7b28a22,SCN,2024-06-26_11h07.47.993,LearnStrategy,2023.2.3,MacIntel,6.816632584,4,2,16,,,,,,,,6,15,,,,,,,,,,,6,6.989,1,,,,,,-0.131165568,-0.398302601,1,0,0,6.9887,Pegmatite_rect,15,0,15,0,1,
66312c5a4b47cc24d7b28a22,SCN,2024-06-26_11h07.47.993,LearnStrategy,2023.2.3,MacIntel,6.816632584,5,1,1,-0.535774061,0.410886185,1,0,0,3.0252,Gabbro_09,4,09,6,1,3.025,0.432854546,-0.267295781,1,0,0,1.5203,Gabbro_rect,4,1.52,1,0,0,0,0,1,,,,,,,,,,,,,
66312c5a4b47cc24d7b28a22,SCN,2024-06-26_11h07.47.993,LearnStrategy,2023.2.3,MacIntel,6.816632584,5,1,2,-0.520557658,0.238262657,1,0,0,0.8998,Andesite_05,1,05,5,1,0.9,-0.359716458,-0.248725948,1,0,0,1.3835,Andesite_rect,1,1.383,1,1,0,1,0,1,,,,,,,,,,,,,
66312c5a4b47cc24d7b28a22,SCN,2024-06-26_11h07.47.993,LearnStrategy,2023.2.3,MacIntel,6.816632584,5,1,3,-0.536258839,0.099983131,1,0,0,0.8875,Gabbro_08,4,08,4,1,0.888,0.406274979,-0.248759121,1,0,0,10.4162,Gabbro_rect,4,10.416,1,2,0,2,0,1,,,,,,,,,,,,,
66312c5a4b47cc24d7b28a22,SCN,2024-06-26_11h07.47.993,LearnStrategy,2023.2.3,MacIntel,6.816632584,5,1,4,-0.522721919,-0.083236129,1,0,0,3.7021,Basalt_05,2,05,3,1,3.702,-0.146933888,-0.240876092,1,0,0,2.2105,Basalt_rect,2,2.21,1,3,0,3,0,1,,,,,,,,,,,,,
66312c5a4b47cc24d7b28a22,SCN,2024-06-26_11h07.47.993,LearnStrategy,2023.2.3,MacIntel,6.816632584,5,1,5,-0.536077542,-0.256760039,1,0,0,1.7563,Basalt_11,2,11,2,1,1.756,0.412129042,-0.251031042,1,0,0,6.2888,Gabbro_rect,4,6.289,0,4,0,4,0,1,,,,,,,,,,,,,
66312c5a4b47cc24d7b28a22,SCN,2024-06-26_11h07.47.993,LearnStrategy,2023.2.3,MacIntel,6.816632584,5,1,6,-0.526248282,-0.405453209,1,0,0,1.7642,Pegmatite_13,6,13,1,1,1.764,-0.118669637,-0.399954393,1,0,0,9.0432,Pegmatite_rect,6,9.043,1,5,0,5,0,1,,,,,,,,,,,,,
66312c5a4b47cc24d7b28a22,SCN,2024-06-26_11h07.47.993,LearnStrategy,2023.2.3,MacIntel,6.816632584,5,1,7,-0.368473307,-0.404966679,1,0,0,1.5342,Peridotite_05,7,05,1,2,1.534,0.13381732,-0.403346818,1,0,0,1.9786,Peridotite_rect,7,1.979,1,6,0,6,0,1,,,,,,,,,,,,,
66312c5a4b47cc24d7b28a22,SCN,2024-06-26_11h07.47.993,LearnStrategy,2023.2.3,MacIntel,6.816632584,5,1,8,-0.389240632,-0.228435206,1,0,0,0.8823,Pegmatite_12,6,12,2,2,0.882,-0.383504232,-0.235192306,1,0,0,1.1187,Andesite_rect,1,1.119,0,7,0,7,0,1,,,,,,,,,,,,,
66312c5a4b47cc24d7b28a22,SCN,2024-06-26_11h07.47.993,LearnStrategy,2023.2.3,MacIntel,6.816632584,5,1,9,-0.411013794,-0.251419237,1,0,0,1.8143,Pegmatite_12,6,12,2,2,1.814,-0.149823111,-0.394224831,1,0,0,6.3534,Pegmatite_rect,6,6.353,1,8,0,8,0,1,,,,,,,,,,,,,
66312c5a4b47cc24d7b28a22,SCN,2024-06-26_11h07.47.993,LearnStrategy,2023.2.3,MacIntel,6.816632584,5,1,10,-0.379881456,-0.113453844,1,0,0,1.1286,Pegmatite_07,6,07,3,2,1.129,-0.102477236,-0.401876379,1,0,0,4.6532,Pegmatite_rect,6,4.653,1,9,0,9,0,1,,,,,,,,,,,,,
66312c5a4b47cc24d7b28a22,SCN,2024-06-26_11h07.47.993,LearnStrategy,2023.2.3,MacIntel,6.816632584,5,1,11,-0.376921025,0.084044675,1,0,0,1.4152,Andesite_07,1,07,4,2,1.415,-0.423971558,-0.269559564,1,0,0,1.1549,Andesite_rect,1,1.155,1,10,0,10,0,1,,,,,,,,,,,,,
66312c5a4b47cc24d7b28a22,SCN,2024-06-26_11h07.47.993,LearnStrategy,2023.2.3,MacIntel,6.816632584,5,1,12,-0.383616356,0.224966431,1,0,0,1.4149,Diorite_15,3,15,5,2,1.415,0.1827804,-0.254573737,1,0,0,1.8225,Diorite_rect,3,1.822,1,11,0,11,0,1,,,,,,,,,,,,,
66312c5a4b47cc24d7b28a22,SCN,2024-06-26_11h07.47.993,LearnStrategy,2023.2.3,MacIntel,6.816632584,5,1,13,-0.388778121,0.381184613,1,0,0,0.8976,Pegmatite_06,6,06,6,2,0.898,-0.134364601,-0.391256262,1,0,0,8.2392,Pegmatite_rect,6,8.239,1,12,0,12,0,1,,,,,,,,,,,,,
66312c5a4b47cc24d7b28a22,SCN,2024-06-26_11h07.47.993,LearnStrategy,2023.2.3,MacIntel,6.816632584,5,1,14,-0.222217701,0.23754555,1,0,0,5.8264,Diorite_16,3,16,5,3,5.826,0.149746139,-0.244551765,1,0,0,1.8291,Diorite_rect,3,1.829,1,13,0,13,0,1,,,,,,,,,,,,,
66312c5a4b47cc24d7b28a22,SCN,2024-06-26_11h07.47.993,LearnStrategy,2023.2.3,MacIntel,6.816632584,5,1,15,-0.206184218,0.110932753,1,0,0,1.3116,Pumice_04,8,04,4,3,1.312,0.440965554,-0.413710644,1,0,0,3.0974,Pumice_rect,8,3.097,1,14,0,14,0,1,,,,,,,,,,,,,
66312c5a4b47cc24d7b28a22,SCN,2024-06-26_11h07.47.993,LearnStrategy,2023.2.3,MacIntel,6.816632584,5,1,16,0.074250398,0.103357951,1,0,0,1.5208,Gabbro_03,4,03,4,5,1.521,0.401890507,-0.244108186,1,0,0,2.463,Gabbro_rect,4,2.463,1,15,0,15,0,1,,,,,,,,,,,,,
66312c5a4b47cc24d7b28a22,SCN,2024-06-26_11h07.47.993,LearnStrategy,2023.2.3,MacIntel,6.816632584,5,2,1,,,,,,,,1,02,,,,,,,,,,,4,22.998,0,,,,,,0.364234755,-0.254561982,1,0,0,22.9976,Gabbro_rect,0,0,0,0,1,
66312c5a4b47cc24d7b28a22,SCN,2024-06-26_11h07.47.993,LearnStrategy,2023.2.3,MacIntel,6.816632584,5,2,2,,,,,,,,3,02,,,,,,,,,,,3,7.537,1,,,,,,0.127744095,-0.255948441,1,0,0,7.5373,Diorite_rect,1,0,1,0,1,
66312c5a4b47cc24d7b28a22,SCN,2024-06-26_11h07.47.993,LearnStrategy,2023.2.3,MacIntel,6.816632584,5,2,3,,,,,,,,6,08,,,,,,,,,,,6,2.698,1,,,,,,-0.086512022,-0.394215054,1,0,0,2.6979,Pegmatite_rect,2,0,2,0,1,
66312c5a4b47cc24d7b28a22,SCN,2024-06-26_11h07.47.993,LearnStrategy,2023.2.3,MacIntel,6.816632584,5,2,4,,,,,,,,7,07,,,,,,,,,,,7,2.334,1,,,,,,0.114403506,-0.397097835,1,0,0,2.334,Peridotite_rect,3,0,3,0,1,
66312c5a4b47cc24d7b28a22,SCN,2024-06-26_11h07.47.993,LearnStrategy,2023.2.3,MacIntel,6.816632584,5,2,5,,,,,,,,2,01,,,,,,,,,,,2,3.043,1,,,,,,-0.07997866,-0.242563318,1,0,0,3.0435,Basalt_rect,4,0,4,0,1,
66312c5a4b47cc24d7b28a22,SCN,2024-06-26_11h07.47.993,LearnStrategy,2023.2.3,MacIntel,6.816632584,5,2,6,,,,,,,,4,10,,,,,,,,,,,4,3.332,1,,,,,,0.429005376,-0.255560359,1,0,0,3.332,Gabbro_rect,5,0,5,0,1,
66312c5a4b47cc24d7b28a22,SCN,2024-06-26_11h07.47.993,LearnStrategy,2023.2.3,MacIntel,6.816632584,5,2,7,,,,,,,,8,03,,,,,,,,,,,8,3.417,1,,,,,,0.39151973,-0.397584138,1,0,0,3.4166,Pumice_rect,6,0,6,0,1,
66312c5a4b47cc24d7b28a22,SCN,2024-06-26_11h07.47.993,LearnStrategy,2023.2.3,MacIntel,6.816632584,5,2,8,,,,,,,,3,08,,,,,,,,,,,3,2.901,1,,,,,,0.185717999,-0.259675881,1,0,0,2.9009,Diorite_rect,7,0,7,0,1,
66312c5a4b47cc24d7b28a22,SCN,2024-06-26_11h07.47.993,LearnStrategy,2023.2.3,MacIntel,6.816632584,5,2,9,,,,,,,,2,08,,,,,,,,,,,2,1.295,1,,,,,,-0.093978995,-0.243307891,1,0,0,1.2947,Basalt_rect,8,0,8,0,1,
66312c5a4b47cc24d7b28a22,SCN,2024-06-26_11h07.47.993,LearnStrategy,2023.2.3,MacIntel,6.816632584,5,2,10,,,,,,,,1,03,,,,,,,,,,,1,1.853,1,,,,,,-0.369975789,-0.243185877,1,0,0,1.8528,Andesite_rect,9,0,9,0,1,
66312c5a4b47cc24d7b28a22,SCN,2024-06-26_11h07.47.993,LearnStrategy,2023.2.3,MacIntel,6.816632584,5,2,11,,,,,,,,4,11,,,,,,,,,,,4,2.27,1,,,,,,0.412303331,-0.254495861,1,0,0,2.2702,Gabbro_rect,10,0,10,0,1,
66312c5a4b47cc24d7b28a22,SCN,2024-06-26_11h07.47.993,LearnStrategy,2023.2.3,MacIntel,6.816632584,5,2,12,,,,,,,,5,11,,,,,,,,,,,5,2.869,1,,,,,,-0.38524622,-0.40205259,1,0,0,2.8694,Obsidian_rect,11,0,11,0,1,
66312c5a4b47cc24d7b28a22,SCN,2024-06-26_11h07.47.993,LearnStrategy,2023.2.3,MacIntel,6.816632584,5,2,13,,,,,,,,6,05,,,,,,,,,,,6,8.476,1,,,,,,-0.109557879,-0.393712362,1,0,0,8.4758,Pegmatite_rect,12,0,12,0,1,
66312c5a4b47cc24d7b28a22,SCN,2024-06-26_11h07.47.993,LearnStrategy,2023.2.3,MacIntel,6.816632584,5,2,14,,,,,,,,8,14,,,,,,,,,,,8,1.613,1,,,,,,0.405294687,-0.39013881,1,0,0,1.6133,Pumice_rect,13,0,13,0,1,
66312c5a4b47cc24d7b28a22,SCN,2024-06-26_11h07.47.993,LearnStrategy,2023.2.3,MacIntel,6.816632584,5,2,15,,,,,,,,5,08,,,,,,,,,,,5,2.707,1,,,,,,-0.393841327,-0.38769859,1,0,0,2.7075,Obsidian_rect,14,0,14,0,1,
66312c5a4b47cc24d7b28a22,SCN,2024-06-26_11h07.47.993,LearnStrategy,2023.2.3,MacIntel,6.816632584,5,2,16,,,,,,,,7,16,,,,,,,,,,,7,2.021,1,,,,,,0.086321343,-0.399771344,1,0,0,2.0209,Peridotite_rect,15,0,15,0,1,
66312c5a4b47cc24d7b28a22,SCN,2024-06-26_11h07.47.993,LearnStrategy,2023.2.3,MacIntel,6.816632584,6,1,1,0.248682093,0.236378083,1,0,0,1.8217,Peridotite_13,7,13,5,6,1.822,0.164831204,-0.41495723,1,0,0,1.751,Peridotite_rect,7,1.751,1,0,0,0,0,1,,,,,,,,,,,,,
66312c5a4b47cc24d7b28a22,SCN,2024-06-26_11h07.47.993,LearnStrategy,2023.2.3,MacIntel,6.816632584,6,1,2,-0.084857178,0.112279313,1,0,0,1.4393,Obsidian_12,5,12,4,4,1.439,-0.381484533,-0.390133045,1,0,0,5.7388,Obsidian_rect,5,5.739,1,1,0,1,0,1,,,,,,,,,,,,,
66312c5a4b47cc24d7b28a22,SCN,2024-06-26_11h07.47.993,LearnStrategy,2023.2.3,MacIntel,6.816632584,6,1,3,-0.243389667,0.095926808,1,0,0,1.107,Pumice_04,8,04,4,3,1.107,0.429313264,-0.409638808,1,0,0,1.1143,Pumice_rect,8,1.114,1,2,0,2,0,1,,,,,,,,,,,,,
66312c5a4b47cc24d7b28a22,SCN,2024-06-26_11h07.47.993,LearnStrategy,2023.2.3,MacIntel,6.816632584,6,1,4,-0.408420026,0.094639361,1,0,0,1.1011,Andesite_07,1,07,4,2,1.101,-0.360164501,-0.249585865,1,0,0,1.326,Andesite_rect,1,1.326,1,3,0,3,0,1,,,,,,,,,,,,,
66312c5a4b47cc24d7b28a22,SCN,2024-06-26_11h07.47.993,LearnStrategy,2023.2.3,MacIntel,6.816632584,6,1,5,-0.573667399,0.249147542,1,0,0,1.4002,Andesite_05,1,05,5,1,1.4,-0.34557303,-0.241042017,1,0,0,1.2349,Andesite_rect,1,1.235,1,4,0,4,0,1,,,,,,,,,,,,,
66312c5a4b47cc24d7b28a22,SCN,2024-06-26_11h07.47.993,LearnStrategy,2023.2.3,MacIntel,6.816632584,6,1,6,-0.059577094,0.390585497,1,0,0,7.8896,Diorite_09,3,09,6,4,7.89,0.132512976,-0.25298558,1,0,0,2.6976,Diorite_rect,3,2.698,1,5,0,5,0,1,,,,,,,,,,,,,
66312c5a4b47cc24d7b28a22,SCN,2024-06-26_11h07.47.993,LearnStrategy,2023.2.3,MacIntel,6.816632584,6,1,7,0.53071809,-0.1000963,1,0,0,1.0068,Pumice_10,8,10,3,8,1.007,0.428014232,-0.397104334,1,0,0,2.7272,Pumice_rect,8,2.727,1,6,0,6,0,1,,,,,,,,,,,,,
66312c5a4b47cc24d7b28a22,SCN,2024-06-26_11h07.47.993,LearnStrategy,2023.2.3,MacIntel,6.816632584,6,1,8,0.245882501,-0.398289603,1,0,0,1.3327,Peridotite_12,7,12,1,6,1.333,0.166363978,-0.386420978,1,0,0,2.7461,Peridotite_rect,7,2.746,1,7,0,7,0,1,,,,,,,,,,,,,
66312c5a4b47cc24d7b28a22,SCN,2024-06-26_11h07.47.993,LearnStrategy,2023.2.3,MacIntel,6.816632584,6,1,9,-0.215508355,-0.374828254,1,0,0,2.6148,Pegmatite_09,6,09,1,3,2.615,-0.203300872,-0.394306042,1,0,0,1.1511,Pegmatite_rect,6,1.151,1,8,0,8,0,1,,,,,,,,,,,,,
66312c5a4b47cc24d7b28a22,SCN,2024-06-26_11h07.47.993,LearnStrategy,2023.2.3,MacIntel,6.816632584,6,1,10,-0.383563911,-0.392496575,1,0,0,1.567,Peridotite_05,7,05,1,2,1.567,0.133425564,-0.405844512,1,0,0,1.8018,Peridotite_rect,7,1.802,1,9,0,9,0,1,,,,,,,,,,,,,
66312c5a4b47cc24d7b28a22,SCN,2024-06-26_11h07.47.993,LearnStrategy,2023.2.3,MacIntel,6.816632584,6,1,11,0.226254272,0.08862997,1,0,0,1.9591,Gabbro_13,4,13,4,6,1.959,-0.381549298,-0.253578356,1,0,0,1.5977,Andesite_rect,1,1.598,0,10,0,10,0,1,,,,,,,,,,,,,
66312c5a4b47cc24d7b28a22,SCN,2024-06-26_11h07.47.993,LearnStrategy,2023.2.3,MacIntel,6.816632584,6,1,12,0.233686885,0.106740203,1,0,0,2.7152,Gabbro_13,4,13,4,6,2.715,0.360039718,-0.259863112,1,0,0,0.9333,Gabbro_rect,4,0.933,1,11,0,11,0,1,,,,,,,,,,,,,
66312c5a4b47cc24d7b28a22,SCN,2024-06-26_11h07.47.993,LearnStrategy,2023.2.3,MacIntel,6.816632584,6,1,13,0.53823197,0.389324654,1,0,0,2.4526,Pumice_13,8,13,6,8,2.453,0.330668584,-0.410929249,1,0,0,4.0187,Pumice_rect,8,4.019,1,12,0,12,0,1,,,,,,,,,,,,,
66312c5a4b47cc24d7b28a22,SCN,2024-06-26_11h07.47.993,LearnStrategy,2023.2.3,MacIntel,6.816632584,6,1,14,0.379244204,0.261321795,1,0,0,1.5139,Pegmatite_11,6,11,5,7,1.514,-0.133795618,-0.389686302,1,0,0,1.4771,Pegmatite_rect,6,1.477,1,13,0,13,0,1,,,,,,,,,,,,,
66312c5a4b47cc24d7b28a22,SCN,2024-06-26_11h07.47.993,LearnStrategy,2023.2.3,MacIntel,6.816632584,6,1,15,-0.092787792,0.239297683,1,0,0,1.3187,Pumice_06,8,06,5,4,1.319,0.378936994,-0.411849297,1,0,0,1.5545,Pumice_rect,8,1.554,1,14,0,14,0,1,,,,,,,,,,,,,
66312c5a4b47cc24d7b28a22,SCN,2024-06-26_11h07.47.993,LearnStrategy,2023.2.3,MacIntel,6.816632584,6,1,16,-0.249028524,0.273931334,1,0,0,1.0811,Diorite_16,3,16,5,3,1.081,-0.362334414,-0.250308397,1,0,0,2.1771,Andesite_rect,1,2.177,0,15,0,15,0,1,,,,,,,,,,,,,
66312c5a4b47cc24d7b28a22,SCN,2024-06-26_11h07.47.993,LearnStrategy,2023.2.3,MacIntel,6.816632584,6,2,1,,,,,,,,4,16,,,,,,,,,,,4,4.379,1,,,,,,0.364598479,-0.24198501,1,0,0,4.3787,Gabbro_rect,0,0,0,0,1,
66312c5a4b47cc24d7b28a22,SCN,2024-06-26_11h07.47.993,LearnStrategy,2023.2.3,MacIntel,6.816632584,6,2,2,,,,,,,,1,11,,,,,,,,,,,3,18.845,0,,,,,,0.118023682,-0.254712197,1,0,0,18.8449,Diorite_rect,1,0,1,0,1,
66312c5a4b47cc24d7b28a22,SCN,2024-06-26_11h07.47.993,LearnStrategy,2023.2.3,MacIntel,6.816632584,6,2,3,,,,,,,,2,06,,,,,,,,,,,2,2.185,1,,,,,,-0.144219971,-0.240931758,1,0,0,2.1851,Basalt_rect,2,0,2,0,1,
66312c5a4b47cc24d7b28a22,SCN,2024-06-26_11h07.47.993,LearnStrategy,2023.2.3,MacIntel,6.816632584,6,2,4,,,,,,,,7,15,,,,,,,,,,,7,1.61,1,,,,,,0.136727679,-0.393757968,1,0,0,1.6098,Peridotite_rect,3,0,3,0,1,
66312c5a4b47cc24d7b28a22,SCN,2024-06-26_11h07.47.993,LearnStrategy,2023.2.3,MacIntel,6.816632584,6,2,5,,,,,,,,5,04,,,,,,,,,,,5,3.361,1,,,,,,-0.359903971,-0.401739671,1,0,0,3.3612,Obsidian_rect,4,0,4,0,1,
66312c5a4b47cc24d7b28a22,SCN,2024-06-26_11h07.47.993,LearnStrategy,2023.2.3,MacIntel,6.816632584,6,2,6,,,,,,,,2,10,,,,,,,,,,,2,4.956,1,,,,,,-0.106887252,-0.251352946,1,0,0,4.956,Basalt_rect,5,0,5,0,1,
66312c5a4b47cc24d7b28a22,SCN,2024-06-26_11h07.47.993,LearnStrategy,2023.2.3,MacIntel,6.816632584,6,2,7,,,,,,,,3,11,,,,,,,,,,,3,10.555,1,,,,,,0.142477982,-0.24929041,1,0,0,10.5553,Diorite_rect,6,0,6,0,1,
66312c5a4b47cc24d7b28a22,SCN,2024-06-26_11h07.47.993,LearnStrategy,2023.2.3,MacIntel,6.816632584,6,2,8,,,,,,,,6,03,,,,,,,,,,,6,2.295,1,,,,,,-0.12002247,-0.396618878,1,0,0,2.2951,Pegmatite_rect,7,0,7,0,1,
66312c5a4b47cc24d7b28a22,SCN,2024-06-26_11h07.47.993,LearnStrategy,2023.2.3,MacIntel,6.816632584,6,2,9,,,,,,,,6,10,,,,,,,,,,,6,2.398,1,,,,,,-0.120291929,-0.395578851,1,0,0,2.398,Pegmatite_rect,8,0,8,0,1,
66312c5a4b47cc24d7b28a22,SCN,2024-06-26_11h07.47.993,LearnStrategy,2023.2.3,MacIntel,6.816632584,6,2,10,,,,,,,,5,07,,,,,,,,,,,5,2.533,1,,,,,,-0.396343316,-0.401467839,1,0,0,2.5328,Obsidian_rect,9,0,9,0,1,
66312c5a4b47cc24d7b28a22,SCN,2024-06-26_11h07.47.993,LearnStrategy,2023.2.3,MacIntel,6.816632584,6,2,11,,,,,,,,7,04,,,,,,,,,,,6,4.115,0,,,,,,-0.14141258,-0.393712079,1,0,0,4.1149,Pegmatite_rect,10,0,10,0,1,
66312c5a4b47cc24d7b28a22,SCN,2024-06-26_11h07.47.993,LearnStrategy,2023.2.3,MacIntel,6.816632584,6,2,12,,,,,,,,8,05,,,,,,,,,,,8,1.413,1,,,,,,0.364274767,-0.397376449,1,0,0,1.4129,Pumice_rect,11,0,11,0,1,
66312c5a4b47cc24d7b28a22,SCN,2024-06-26_11h07.47.993,LearnStrategy,2023.2.3,MacIntel,6.816632584,6,2,13,,,,,,,,4,12,,,,,,,,,,,4,3.345,1,,,,,,0.440869141,-0.246365978,1,0,0,3.3447,Gabbro_rect,12,0,12,0,1,
66312c5a4b47cc24d7b28a22,SCN,2024-06-26_11h07.47.993,LearnStrategy,2023.2.3,MacIntel,6.816632584,6,2,14,,,,,,,,1,16,,,,,,,,,,,1,8.713,1,,,,,,-0.371685452,-0.254477324,1,0,0,8.7126,Andesite_rect,13,0,13,0,1,
66312c5a4b47cc24d7b28a22,SCN,2024-06-26_11h07.47.993,LearnStrategy,2023.2.3,MacIntel,6.816632584,6,2,15,,,,,,,,8,15,,,,,,,,,,,8,1.316,1,,,,,,0.440720848,-0.416558725,1,0,0,1.3164,Pumice_rect,14,0,14,0,1,
66312c5a4b47cc24d7b28a22,SCN,2024-06-26_11h07.47.993,LearnStrategy,2023.2.3,MacIntel,6.816632584,6,2,16,,,,,,,,3,14,,,,,,,,,,,3,3.872,1,,,,,,0.183346445,-0.251073315,1,0,0,3.8722,Diorite_rect,15,0,15,0,1,
66312c5a4b47cc24d7b28a22,SCN,2024-06-26_11h07.47.993,LearnStrategy,2023.2.3,MacIntel,6.816632584,7,1,1,0.38730514,-0.103175297,1,0,0,2.7791,Andesite_14,1,14,3,7,2.779,0.142054579,-0.390907796,1,0,0,9.0085,Peridotite_rect,7,9.008,0,0,0,0,0,1,,,,,,,,,,,,,
66312c5a4b47cc24d7b28a22,SCN,2024-06-26_11h07.47.993,LearnStrategy,2023.2.3,MacIntel,6.816632584,7,1,2,0.248077845,-0.230501472,1,0,0,0.668,Diorite_13,3,13,2,6,0.668,0.140007415,-0.246201974,1,0,0,1.5534,Diorite_rect,3,1.553,1,1,0,1,0,1,,,,,,,,,,,,,
66312c5a4b47cc24d7b28a22,SCN,2024-06-26_11h07.47.993,LearnStrategy,2023.2.3,MacIntel,6.816632584,7,1,3,0.24490899,0.102393256,1,0,0,1.3858,Gabbro_13,4,13,4,6,1.386,-0.354600016,-0.237370413,1,0,0,1.4164,Andesite_rect,1,1.416,0,2,0,2,0,1,,,,,,,,,,,,,
66312c5a4b47cc24d7b28a22,SCN,2024-06-26_11h07.47.993,LearnStrategy,2023.2.3,MacIntel,6.816632584,7,1,4,0.369061731,0.238916581,1,0,0,1.8768,Pegmatite_11,6,11,5,7,1.877,0.088322844,-0.38549313,1,0,0,2.2749,Peridotite_rect,7,2.275,0,3,0,3,0,1,,,,,,,,,,,,,
66312c5a4b47cc24d7b28a22,SCN,2024-06-26_11h07.47.993,LearnStrategy,2023.2.3,MacIntel,6.816632584,7,1,5,0.398197541,0.24585543,1,0,0,1.1699,Pegmatite_11,6,11,5,7,1.17,-0.10594392,-0.390176844,1,0,0,3.6774,Pegmatite_rect,6,3.677,1,4,0,4,0,1,,,,,,,,,,,,,
66312c5a4b47cc24d7b28a22,SCN,2024-06-26_11h07.47.993,LearnStrategy,2023.2.3,MacIntel,6.816632584,7,1,6,0.530663384,-0.087086939,1,0,0,1.0993,Pumice_10,8,10,3,8,1.099,0.413218632,-0.389587459,1,0,0,1.1442,Pumice_rect,8,1.144,1,5,0,5,0,1,,,,,,,,,,,,,
66312c5a4b47cc24d7b28a22,SCN,2024-06-26_11h07.47.993,LearnStrategy,2023.2.3,MacIntel,6.816632584,7,1,7,0.39820308,-0.090297219,1,0,0,2.5326,Andesite_14,1,14,3,7,2.533,-0.357838044,-0.245081075,1,0,0,1.6245,Andesite_rect,1,1.625,1,6,0,6,0,1,,,,,,,,,,,,,
66312c5a4b47cc24d7b28a22,SCN,2024-06-26_11h07.47.993,LearnStrategy,2023.2.3,MacIntel,6.816632584,7,1,8,-0.254803354,0.083570071,1,0,0,0.9802,Pumice_04,8,04,4,3,0.98,0.384436035,-0.390166502,1,0,0,1.2091,Pumice_rect,8,1.209,1,7,0,7,0,1,,,,,,,,,,,,,
66312c5a4b47cc24d7b28a22,SCN,2024-06-26_11h07.47.993,LearnStrategy,2023.2.3,MacIntel,6.816632584,7,1,9,-0.099824693,0.411966296,1,0,0,1.3901,Diorite_09,3,09,6,4,1.39,0.102082881,-0.24540134,1,0,0,3.3042,Diorite_rect,3,3.304,1,8,0,8,0,1,,,,,,,,,,,,,
66312c5a4b47cc24d7b28a22,SCN,2024-06-26_11h07.47.993,LearnStrategy,2023.2.3,MacIntel,6.816632584,7,1,10,-0.375118453,-0.24899162,1,0,0,2.2319,Pegmatite_12,6,12,2,2,2.232,-0.175904451,-0.400342588,1,0,0,3.4968,Pegmatite_rect,6,3.497,1,9,0,9,0,1,,,,,,,,,,,,,
66312c5a4b47cc24d7b28a22,SCN,2024-06-26_11h07.47.993,LearnStrategy,2023.2.3,MacIntel,6.816632584,7,1,11,0.534987951,0.107736997,1,0,0,1.9486,Basalt_12,2,12,4,8,1.949,0.420722453,-0.233446983,1,0,0,2.0848,Gabbro_rect,4,2.085,0,10,0,10,0,1,,,,,,,,,,,,,
66312c5a4b47cc24d7b28a22,SCN,2024-06-26_11h07.47.993,LearnStrategy,2023.2.3,MacIntel,6.816632584,7,1,12,0.393891398,0.100554827,1,0,0,1.8548,Basalt_02,2,02,4,7,1.855,0.379190403,-0.240917234,1,0,0,1.8854,Gabbro_rect,4,1.885,0,11,0,11,0,1,,,,,,,,,,,,,
66312c5a4b47cc24d7b28a22,SCN,2024-06-26_11h07.47.993,LearnStrategy,2023.2.3,MacIntel,6.816632584,7,1,13,-0.530972629,0.38574052,1,0,0,1.8597,Gabbro_09,4,09,6,1,1.86,0.404788999,-0.245237901,1,0,0,1.9918,Gabbro_rect,4,1.992,1,12,0,12,0,1,,,,,,,,,,,,,
66312c5a4b47cc24d7b28a22,SCN,2024-06-26_11h07.47.993,LearnStrategy,2023.2.3,MacIntel,6.816632584,7,1,14,-0.527884476,-0.099474419,1,0,0,3.3898,Basalt_05,2,05,3,1,3.39,-0.065457266,-0.240826133,1,0,0,1.0819,Basalt_rect,2,1.082,1,13,0,13,0,1,,,,,,,,,,,,,
66312c5a4b47cc24d7b28a22,SCN,2024-06-26_11h07.47.993,LearnStrategy,2023.2.3,MacIntel,6.816632584,7,1,15,-0.224219089,-0.27014228,1,0,0,0.9308,Andesite_01,1,01,2,3,0.931,-0.304986233,-0.251423928,1,0,0,1.3806,Andesite_rect,1,1.381,1,14,0,14,0,1,,,,,,,,,,,,,
66312c5a4b47cc24d7b28a22,SCN,2024-06-26_11h07.47.993,LearnStrategy,2023.2.3,MacIntel,6.816632584,7,1,16,0.065151073,0.070029195,1,0,0,0.9444,Gabbro_03,4,03,4,5,0.944,0.358066248,-0.23841225,1,0,0,2.4487,Gabbro_rect,4,2.449,1,15,0,15,0,1,,,,,,,,,,,,,
66312c5a4b47cc24d7b28a22,SCN,2024-06-26_11h07.47.993,LearnStrategy,2023.2.3,MacIntel,6.816632584,7,2,1,,,,,,,,7,15,,,,,,,,,,,7,1.574,1,,,,,,0.139838099,-0.398300566,1,0,0,1.5741,Peridotite_rect,0,0,0,0,1,
66312c5a4b47cc24d7b28a22,SCN,2024-06-26_11h07.47.993,LearnStrategy,2023.2.3,MacIntel,6.816632584,7,2,2,,,,,,,,1,16,,,,,,,,,,,1,3.72,1,,,,,,-0.370961281,-0.240670494,1,0,0,3.7198,Andesite_rect,1,0,1,0,1,
66312c5a4b47cc24d7b28a22,SCN,2024-06-26_11h07.47.993,LearnStrategy,2023.2.3,MacIntel,6.816632584,7,2,3,,,,,,,,3,12,,,,,,,,,,,3,1.699,1,,,,,,0.158841734,-0.245172289,1,0,0,1.6988,Diorite_rect,2,0,2,0,1,
66312c5a4b47cc24d7b28a22,SCN,2024-06-26_11h07.47.993,LearnStrategy,2023.2.3,MacIntel,6.816632584,7,2,4,,,,,,,,2,14,,,,,,,,,,,4,3.101,0,,,,,,0.435991527,-0.251463035,1,0,0,3.1005,Gabbro_rect,3,0,3,0,1,
66312c5a4b47cc24d7b28a22,SCN,2024-06-26_11h07.47.993,LearnStrategy,2023.2.3,MacIntel,6.816632584,7,2,5,,,,,,,,2,01,,,,,,,,,,,2,2.92,1,,,,,,-0.096646118,-0.24399205,1,0,0,2.9201,Basalt_rect,4,0,4,0,1,
66312c5a4b47cc24d7b28a22,SCN,2024-06-26_11h07.47.993,LearnStrategy,2023.2.3,MacIntel,6.816632584,7,2,6,,,,,,,,6,03,,,,,,,,,,,6,2.816,1,,,,,,-0.131856509,-0.409318995,1,0,0,2.8156,Pegmatite_rect,5,0,5,0,1,
66312c5a4b47cc24d7b28a22,SCN,2024-06-26_11h07.47.993,LearnStrategy,2023.2.3,MacIntel,6.816632584,7,2,7,,,,,,,,6,05,,,,,,,,,,,6,1.558,1,,,,,,-0.130241338,-0.397674504,1,0,0,1.5582,Pegmatite_rect,6,0,6,0,1,
66312c5a4b47cc24d7b28a22,SCN,2024-06-26_11h07.47.993,LearnStrategy,2023.2.3,MacIntel,6.816632584,7,2,8,,,,,,,,4,12,,,,,,,,,,,4,3.264,1,,,,,,0.391327582,-0.241508201,1,0,0,3.2643,Gabbro_rect,7,0,7,0,1,
66312c5a4b47cc24d7b28a22,SCN,2024-06-26_11h07.47.993,LearnStrategy,2023.2.3,MacIntel,6.816632584,7,2,9,,,,,,,,3,02,,,,,,,,,,,3,1.855,1,,,,,,0.176243761,-0.249073339,1,0,0,1.8551,Diorite_rect,8,0,8,0,1,
66312c5a4b47cc24d7b28a22,SCN,2024-06-26_11h07.47.993,LearnStrategy,2023.2.3,MacIntel,6.816632584,7,2,10,,,,,,,,8,14,,,,,,,,,,,8,2.705,1,,,,,,0.401575724,-0.388952806,1,0,0,2.7051,Pumice_rect,9,0,9,0,1,
66312c5a4b47cc24d7b28a22,SCN,2024-06-26_11h07.47.993,LearnStrategy,2023.2.3,MacIntel,6.816632584,7,2,11,,,,,,,,7,06,,,,,,,,,,,7,2.831,1,,,,,,0.102542905,-0.400018367,1,0,0,2.8312,Peridotite_rect,10,0,10,0,1,
66312c5a4b47cc24d7b28a22,SCN,2024-06-26_11h07.47.993,LearnStrategy,2023.2.3,MacIntel,6.816632584,7,2,12,,,,,,,,5,08,,,,,,,,,,,5,2.252,1,,,,,,-0.384706624,-0.402275481,1,0,0,2.2524,Obsidian_rect,11,0,11,0,1,
66312c5a4b47cc24d7b28a22,SCN,2024-06-26_11h07.47.993,LearnStrategy,2023.2.3,MacIntel,6.816632584,7,2,13,,,,,,,,8,02,,,,,,,,,,,8,1.39,1,,,,,,0.355109999,-0.386913158,1,0,0,1.3903,Pumice_rect,12,0,12,0,1,
66312c5a4b47cc24d7b28a22,SCN,2024-06-26_11h07.47.993,LearnStrategy,2023.2.3,MacIntel,6.816632584,7,2,14,,,,,,,,5,14,,,,,,,,,,,5,1.615,1,,,,,,-0.376365379,-0.400975037,1,0,0,1.6148,Obsidian_rect,13,0,13,0,1,
66312c5a4b47cc24d7b28a22,SCN,2024-06-26_11h07.47.993,LearnStrategy,2023.2.3,MacIntel,6.816632584,7,2,15,,,,,,,,4,10,,,,,,,,,,,4,3.464,1,,,,,,0.358511466,-0.248342726,1,0,0,3.4644,Gabbro_rect,14,0,14,0,1,
66312c5a4b47cc24d7b28a22,SCN,2024-06-26_11h07.47.993,LearnStrategy,2023.2.3,MacIntel,6.816632584,7,2,16,,,,,,,,1,11,,,,,,,,,,,6,5.554,0,,,,,,-0.098278696,-0.402108256,1,0,0,5.5545,Pegmatite_rect,15,0,15,0,1,
66312c5a4b47cc24d7b28a22,SCN,2024-06-26_11h07.47.993,LearnStrategy,2023.2.3,MacIntel,6.816632584,8,1,1,-0.367868268,0.091207744,1,0,0,5.6558,Andesite_07,1,07,4,2,5.656,-0.369000244,-0.24925345,1,0,0,1.4372,Andesite_rect,1,1.437,1,0,0,0,0,1,,,,,,,,,,,,,
66312c5a4b47cc24d7b28a22,SCN,2024-06-26_11h07.47.993,LearnStrategy,2023.2.3,MacIntel,6.816632584,8,1,2,0.256716354,-0.403956378,1,0,0,1.6255,Peridotite_12,7,12,1,6,1.626,0.159421794,-0.387556966,1,0,0,1.6583,Peridotite_rect,7,1.658,1,1,0,1,0,1,,,,,,,,,,,,,
66312c5a4b47cc24d7b28a22,SCN,2024-06-26_11h07.47.993,LearnStrategy,2023.2.3,MacIntel,6.816632584,8,1,3,0.055362278,-0.394323674,1,0,0,0.9046,Basalt_16,2,16,1,5,0.905,0.43110928,-0.241291018,1,0,0,3.5645,Gabbro_rect,4,3.564,0,2,0,2,0,1,,,,,,,,,,,,,
66312c5a4b47cc24d7b28a22,SCN,2024-06-26_11h07.47.993,LearnStrategy,2023.2.3,MacIntel,6.816632584,8,1,4,-0.237094229,-0.382625778,1,0,0,2.8428,Pegmatite_09,6,09,1,3,2.843,-0.151638794,-0.381587332,1,0,0,1.8942,Pegmatite_rect,6,1.894,1,3,0,3,0,1,,,,,,,,,,,,,
66312c5a4b47cc24d7b28a22,SCN,2024-06-26_11h07.47.993,LearnStrategy,2023.2.3,MacIntel,6.816632584,8,1,5,-0.063718895,-0.399637519,1,0,0,3.0596,Peridotite_14,7,14,1,4,3.06,0.127949467,-0.39928894,1,0,0,4.8191,Peridotite_rect,7,4.819,1,4,0,4,0,1,,,,,,,,,,,,,
66312c5a4b47cc24d7b28a22,SCN,2024-06-26_11h07.47.993,LearnStrategy,2023.2.3,MacIntel,6.816632584,8,1,6,0.405681921,0.229818132,1,0,0,2.1912,Pegmatite_11,6,11,5,7,2.191,-0.108926731,-0.403749593,1,0,0,1.5317,Pegmatite_rect,6,1.532,1,5,0,5,0,1,,,,,,,,,,,,,
66312c5a4b47cc24d7b28a22,SCN,2024-06-26_11h07.47.993,LearnStrategy,2023.2.3,MacIntel,6.816632584,8,1,7,-0.572752437,0.117375522,1,0,0,1.7327,Gabbro_08,4,08,4,1,1.733,0.337004824,-0.231471874,1,0,0,1.5492,Gabbro_rect,4,1.549,1,6,0,6,0,1,,,,,,,,,,,,,
66312c5a4b47cc24d7b28a22,SCN,2024-06-26_11h07.47.993,LearnStrategy,2023.2.3,MacIntel,6.816632584,8,1,8,0.214678277,0.402110488,1,0,0,2.0439,Diorite_06,3,06,6,6,2.044,0.157969496,-0.251676658,1,0,0,3.9555,Diorite_rect,3,3.956,1,7,0,7,0,1,,,,,,,,,,,,,
66312c5a4b47cc24d7b28a22,SCN,2024-06-26_11h07.47.993,LearnStrategy,2023.2.3,MacIntel,6.816632584,8,1,9,-0.518216055,-0.090372213,1,0,0,1.109,Basalt_05,2,05,3,1,1.109,-0.108315927,-0.250616964,1,0,0,1.7232,Basalt_rect,2,1.723,1,8,0,8,0,1,,,,,,,,,,,,,
66312c5a4b47cc24d7b28a22,SCN,2024-06-26_11h07.47.993,LearnStrategy,2023.2.3,MacIntel,6.816632584,8,1,10,-0.367354442,-0.253100699,1,0,0,1.1465,Pegmatite_12,6,12,2,2,1.147,-0.367354442,-0.253100699,1,0,0,2.0415,Andesite_rect,1,2.041,0,9,0,9,0,1,,,,,,,,,,,,,
66312c5a4b47cc24d7b28a22,SCN,2024-06-26_11h07.47.993,LearnStrategy,2023.2.3,MacIntel,6.816632584,8,1,11,0.555700458,0.08553642,1,0,0,2.2561,Basalt_12,2,12,4,8,2.256,-0.105467733,-0.262321811,1,0,0,2.6939,Basalt_rect,2,2.694,1,10,0,10,0,1,,,,,,,,,,,,,
66312c5a4b47cc24d7b28a22,SCN,2024-06-26_11h07.47.993,LearnStrategy,2023.2.3,MacIntel,6.816632584,8,1,12,0.404374073,0.087262019,1,0,0,4.6258,Basalt_02,2,02,4,7,4.626,0.39754876,-0.256861482,1,0,0,2.0617,Gabbro_rect,4,2.062,0,11,0,11,0,1,,,,,,,,,,,,,
66312c5a4b47cc24d7b28a22,SCN,2024-06-26_11h07.47.993,LearnStrategy,2023.2.3,MacIntel,6.816632584,8,1,13,0.558302138,-0.263731836,1,0,0,1.953,Andesite_10,1,10,2,8,1.953,0.393681279,-0.252151659,1,0,0,1.4338,Gabbro_rect,4,1.434,0,12,0,12,0,1,,,,,,,,,,,,,
66312c5a4b47cc24d7b28a22,SCN,2024-06-26_11h07.47.993,LearnStrategy,2023.2.3,MacIntel,6.816632584,8,1,14,0.550081154,-0.396981755,1,0,0,1.3587,Peridotite_08,7,08,1,8,1.359,0.170784505,-0.394889775,1,0,0,1.8762,Peridotite_rect,7,1.876,1,13,0,13,0,1,,,,,,,,,,,,,
66312c5a4b47cc24d7b28a22,SCN,2024-06-26_11h07.47.993,LearnStrategy,2023.2.3,MacIntel,6.816632584,8,1,15,-0.050704391,0.079172544,1,0,0,1.2636,Obsidian_12,5,12,4,4,1.264,-0.367712741,-0.402814568,1,0,0,2.549,Obsidian_rect,5,2.549,1,14,0,14,0,1,,,,,,,,,,,,,
66312c5a4b47cc24d7b28a22,SCN,2024-06-26_11h07.47.993,LearnStrategy,2023.2.3,MacIntel,6.816632584,8,1,16,-0.396428878,-0.239697266,1,0,0,3.1869,Pegmatite_12,6,12,2,2,3.187,-0.115451728,-0.411751754,1,0,0,1.6292,Pegmatite_rect,6,1.629,1,15,0,15,0,1,,,,,,,,,,,,,
66312c5a4b47cc24d7b28a22,SCN,2024-06-26_11h07.47.993,LearnStrategy,2023.2.3,MacIntel,6.816632584,8,2,1,,,,,,,,4,14,,,,,,,,,,,4,5.682,1,,,,,,0.371760616,-0.245215239,1,0,0,5.682,Gabbro_rect,0,0,0,0,1,
66312c5a4b47cc24d7b28a22,SCN,2024-06-26_11h07.47.993,LearnStrategy,2023.2.3,MacIntel,6.816632584,8,2,2,,,,,,,,6,16,,,,,,,,,,,6,4.26,1,,,,,,-0.10582185,-0.401598217,1,0,0,4.2604,Pegmatite_rect,1,0,1,0,1,
66312c5a4b47cc24d7b28a22,SCN,2024-06-26_11h07.47.993,LearnStrategy,2023.2.3,MacIntel,6.816632584,8,2,3,,,,,,,,2,04,,,,,,,,,,,2,2.9,1,,,,,,-0.123468922,-0.255261965,1,0,0,2.8996,Basalt_rect,2,0,2,0,1,
66312c5a4b47cc24d7b28a22,SCN,2024-06-26_11h07.47.993,LearnStrategy,2023.2.3,MacIntel,6.816632584,8,2,4,,,,,,,,5,07,,,,,,,,,,,5,3.214,1,,,,,,-0.41411664,-0.400005821,1,0,0,3.2135,Obsidian_rect,3,0,3,0,1,
66312c5a4b47cc24d7b28a22,SCN,2024-06-26_11h07.47.993,LearnStrategy,2023.2.3,MacIntel,6.816632584,8,2,5,,,,,,,,1,03,,,,,,,,,,,1,2.872,1,,,,,,-0.3562821,-0.251194707,1,0,0,2.8724,Andesite_rect,4,0,4,0,1,
66312c5a4b47cc24d7b28a22,SCN,2024-06-26_11h07.47.993,LearnStrategy,2023.2.3,MacIntel,6.816632584,8,2,6,,,,,,,,3,08,,,,,,,,,,,3,2.631,1,,,,,,0.164441257,-0.246154785,1,0,0,2.6314,Diorite_rect,5,0,5,0,1,
66312c5a4b47cc24d7b28a22,SCN,2024-06-26_11h07.47.993,LearnStrategy,2023.2.3,MacIntel,6.816632584,8,2,7,,,,,,,,8,05,,,,,,,,,,,8,2.598,1,,,,,,0.405298643,-0.391671244,1,0,0,2.5978,Pumice_rect,6,0,6,0,1,
66312c5a4b47cc24d7b28a22,SCN,2024-06-26_11h07.47.993,LearnStrategy,2023.2.3,MacIntel,6.816632584,8,2,8,,,,,,,,8,03,,,,,,,,,,,8,3.717,1,,,,,,0.410164388,-0.385800736,1,0,0,3.7174,Pumice_rect,7,0,7,0,1,
66312c5a4b47cc24d7b28a22,SCN,2024-06-26_11h07.47.993,LearnStrategy,2023.2.3,MacIntel,6.816632584,8,2,9,,,,,,,,4,16,,,,,,,,,,,4,2.135,1,,,,,,0.366170473,-0.242294594,1,0,0,2.1348,Gabbro_rect,8,0,8,0,1,
66312c5a4b47cc24d7b28a22,SCN,2024-06-26_11h07.47.993,LearnStrategy,2023.2.3,MacIntel,6.816632584,8,2,10,,,,,,,,2,06,,,,,,,,,,,2,2.938,1,,,,,,-0.107912304,-0.241450331,1,0,0,2.938,Basalt_rect,9,0,9,0,1,
66312c5a4b47cc24d7b28a22,SCN,2024-06-26_11h07.47.993,LearnStrategy,2023.2.3,MacIntel,6.816632584,8,2,11,,,,,,,,7,04,,,,,,,,,,,6,4.882,0,,,,,,-0.097182775,-0.392858378,1,0,0,4.8817,Pegmatite_rect,10,0,10,0,1,
66312c5a4b47cc24d7b28a22,SCN,2024-06-26_11h07.47.993,LearnStrategy,2023.2.3,MacIntel,6.816632584,8,2,12,,,,,,,,5,05,,,,,,,,,,,5,2.964,1,,,,,,-0.396036106,-0.395401453,1,0,0,2.9643,Obsidian_rect,11,0,11,0,1,
66312c5a4b47cc24d7b28a22,SCN,2024-06-26_11h07.47.993,LearnStrategy,2023.2.3,MacIntel,6.816632584,8,2,13,,,,,,,,1,04,,,,,,,,,,,3,20.162,0,,,,,,0.144023189,-0.249514036,1,0,0,20.1617,Diorite_rect,12,0,12,0,1,
66312c5a4b47cc24d7b28a22,SCN,2024-06-26_11h07.47.993,LearnStrategy,2023.2.3,MacIntel,6.816632584,8,2,14,,,,,,,,7,10,,,,,,,,,,,7,1.21,1,,,,,,0.132579888,-0.394078799,1,0,0,1.21,Peridotite_rect,13,0,13,0,1,
66312c5a4b47cc24d7b28a22,SCN,2024-06-26_11h07.47.993,LearnStrategy,2023.2.3,MacIntel,6.816632584,8,2,15,,,,,,,,6,10,,,,,,,,,,,6,5.997,1,,,,,,-0.153536535,-0.395112101,1,0,0,5.9968,Pegmatite_rect,14,0,14,0,1,
66312c5a4b47cc24d7b28a22,SCN,2024-06-26_11h07.47.993,LearnStrategy,2023.2.3,MacIntel,6.816632584,8,2,16,,,,,,,,3,07,,,,,,,,,,,3,4.205,1,,,,,,0.109429706,-0.256313013,1,0,0,4.205,Diorite_rect,15,0,15,0,1,
66312c5a4b47cc24d7b28a22,SCN,2024-06-26_11h07.47.993,LearnStrategy,2023.2.3,MacIntel,6.816632584,9,1,1,-0.242267411,0.106098853,1,0,0,1.4494,Pumice_04,8,04,4,3,1.449,0.404535816,-0.413139061,1,0,0,1.3595,Pumice_rect,8,1.36,1,0,0,0,0,1,,,,,,,,,,,,,
66312c5a4b47cc24d7b28a22,SCN,2024-06-26_11h07.47.993,LearnStrategy,2023.2.3,MacIntel,6.816632584,9,1,2,-0.397227874,0.264309325,1,0,0,7.174,Diorite_15,3,15,5,2,7.174,0.083266534,-0.23532777,1,0,0,4.7878,Diorite_rect,3,4.788,1,1,0,1,0,1,,,,,,,,,,,,,
66312c5a4b47cc24d7b28a22,SCN,2024-06-26_11h07.47.993,LearnStrategy,2023.2.3,MacIntel,6.816632584,9,1,3,-0.515774197,-0.394854397,1,0,0,2.0698,Pegmatite_13,6,13,1,1,2.07,-0.093515354,-0.397583856,1,0,0,2.6162,Pegmatite_rect,6,2.616,1,2,0,2,0,1,,,,,,,,,,,,,
66312c5a4b47cc24d7b28a22,SCN,2024-06-26_11h07.47.993,LearnStrategy,2023.2.3,MacIntel,6.816632584,9,1,4,0.226402,0.104156353,1,0,0,1.1347,Gabbro_13,4,13,4,6,1.135,-0.371592204,-0.254021369,1,0,0,2.8183,Andesite_rect,1,2.818,0,3,0,3,0,1,,,,,,,,,,,,,
66312c5a4b47cc24d7b28a22,SCN,2024-06-26_11h07.47.993,LearnStrategy,2023.2.3,MacIntel,6.816632584,9,1,5,0.056079328,0.108429803,1,0,0,1.6758,Gabbro_03,4,03,4,5,1.676,0.372652294,-0.24776374,1,0,0,2.0378,Gabbro_rect,4,2.038,1,4,0,4,0,1,,,,,,,,,,,,,
66312c5a4b47cc24d7b28a22,SCN,2024-06-26_11h07.47.993,LearnStrategy,2023.2.3,MacIntel,6.816632584,9,1,6,-0.245737712,0.112005163,1,0,0,3.8732,Pumice_04,8,04,4,3,3.873,0.457943387,-0.41839221,1,0,0,1.7877,Pumice_rect,8,1.788,1,5,0,5,0,1,,,,,,,,,,,,,
66312c5a4b47cc24d7b28a22,SCN,2024-06-26_11h07.47.993,LearnStrategy,2023.2.3,MacIntel,6.816632584,9,1,7,0.253449051,-0.240834893,1,0,0,1.5721,Diorite_13,3,13,2,6,1.572,0.172274667,-0.228679177,1,0,0,1.1174,Diorite_rect,3,1.117,1,6,0,6,0,1,,,,,,,,,,,,,
66312c5a4b47cc24d7b28a22,SCN,2024-06-26_11h07.47.993,LearnStrategy,2023.2.3,MacIntel,6.816632584,9,1,8,-0.046931401,-0.113729519,1,0,0,1.8279,Pumice_08,8,08,3,4,1.828,0.399953432,-0.404356215,1,0,0,3.7729,Pumice_rect,8,3.773,1,7,0,7,0,1,,,,,,,,,,,,,
66312c5a4b47cc24d7b28a22,SCN,2024-06-26_11h07.47.993,LearnStrategy,2023.2.3,MacIntel,6.816632584,9,1,9,0.566556577,0.387235613,1,0,0,1.2056,Pumice_13,8,13,6,8,1.206,0.387702885,-0.387171597,1,0,0,2.2292,Pumice_rect,8,2.229,1,8,0,8,0,1,,,,,,,,,,,,,
66312c5a4b47cc24d7b28a22,SCN,2024-06-26_11h07.47.993,LearnStrategy,2023.2.3,MacIntel,6.816632584,9,1,10,-0.391849772,0.408416225,1,0,0,1.0931,Pegmatite_06,6,06,6,2,1.093,-0.126431727,-0.393227415,1,0,0,2.4555,Pegmatite_rect,6,2.456,1,9,0,9,0,1,,,,,,,,,,,,,
66312c5a4b47cc24d7b28a22,SCN,2024-06-26_11h07.47.993,LearnStrategy,2023.2.3,MacIntel,6.816632584,9,1,11,-0.566969808,0.104647827,1,0,0,1.6312,Gabbro_08,4,08,4,1,1.631,0.381420672,-0.243156207,1,0,0,1.4791,Gabbro_rect,4,1.479,1,10,0,10,0,1,,,,,,,,,,,,,
66312c5a4b47cc24d7b28a22,SCN,2024-06-26_11h07.47.993,LearnStrategy,2023.2.3,MacIntel,6.816632584,9,1,12,-0.216335494,-0.109004155,1,0,0,4.1856,Gabbro_05,4,05,3,3,4.186,0.392549416,-0.252743474,1,0,0,6.2806,Gabbro_rect,4,6.281,1,11,0,11,0,1,,,,,,,,,,,,,
66312c5a4b47cc24d7b28a22,SCN,2024-06-26_11h07.47.993,LearnStrategy,2023.2.3,MacIntel,6.816632584,9,1,13,-0.378872907,-0.248288133,1,0,0,1.1456,Pegmatite_12,6,12,2,2,1.146,0.129205096,-0.263677357,1,0,0,1.6519,Diorite_rect,3,1.652,0,12,0,12,0,1,,,,,,,,,,,,,
66312c5a4b47cc24d7b28a22,SCN,2024-06-26_11h07.47.993,LearnStrategy,2023.2.3,MacIntel,6.816632584,9,1,14,0.381847466,-0.087526957,1,0,0,2.652,Andesite_14,1,14,3,7,2.652,-0.391199409,-0.228031243,1,0,0,6.1055,Andesite_rect,1,6.105,1,13,0,13,0,1,,,,,,,,,,,,,
66312c5a4b47cc24d7b28a22,SCN,2024-06-26_11h07.47.993,LearnStrategy,2023.2.3,MacIntel,6.816632584,9,1,15,0.082771132,0.083318103,1,0,0,3.9215,Gabbro_03,4,03,4,5,3.921,0.415441895,-0.245549463,1,0,0,1.1597,Gabbro_rect,4,1.16,1,14,0,14,0,1,,,,,,,,,,,,,
66312c5a4b47cc24d7b28a22,SCN,2024-06-26_11h07.47.993,LearnStrategy,2023.2.3,MacIntel,6.816632584,9,1,16,-0.225798204,-0.101879996,1,0,0,3.8906,Gabbro_05,4,05,3,3,3.891,-0.152854411,-0.410251137,1,0,0,3.3838,Pegmatite_rect,6,3.384,0,15,0,15,0,1,,,,,,,,,,,,,
66312c5a4b47cc24d7b28a22,SCN,2024-06-26_11h07.47.993,LearnStrategy,2023.2.3,MacIntel,6.816632584,9,2,1,,,,,,,,4,11,,,,,,,,,,,4,7.089,1,,,,,,0.415226915,-0.24920253,1,0,0,7.0894,Gabbro_rect,0,0,0,0,1,
66312c5a4b47cc24d7b28a22,SCN,2024-06-26_11h07.47.993,LearnStrategy,2023.2.3,MacIntel,6.816632584,9,2,2,,,,,,,,7,16,,,,,,,,,,,4,8.093,0,,,,,,0.379605781,-0.249859111,1,0,0,8.0934,Gabbro_rect,1,0,1,0,1,
66312c5a4b47cc24d7b28a22,SCN,2024-06-26_11h07.47.993,LearnStrategy,2023.2.3,MacIntel,6.816632584,9,2,3,,,,,,,,3,14,,,,,,,,,,,3,9.517,1,,,,,,0.209948391,-0.252841978,1,0,0,9.5174,Diorite_rect,2,0,2,0,1,
66312c5a4b47cc24d7b28a22,SCN,2024-06-26_11h07.47.993,LearnStrategy,2023.2.3,MacIntel,6.816632584,9,2,4,,,,,,,,5,04,,,,,,,,,,,5,2.558,1,,,,,,-0.39759691,-0.398070159,1,0,0,2.5576,Obsidian_rect,3,0,3,0,1,
66312c5a4b47cc24d7b28a22,SCN,2024-06-26_11h07.47.993,LearnStrategy,2023.2.3,MacIntel,6.816632584,9,2,5,,,,,,,,2,08,,,,,,,,,,,2,2.447,1,,,,,,-0.140941479,-0.242766373,1,0,0,2.4468,Basalt_rect,4,0,4,0,1,
66312c5a4b47cc24d7b28a22,SCN,2024-06-26_11h07.47.993,LearnStrategy,2023.2.3,MacIntel,6.816632584,9,2,6,,,,,,,,8,15,,,,,,,,,,,8,2.424,1,,,,,,0.408863548,-0.390102132,1,0,0,2.4244,Pumice_rect,5,0,5,0,1,
66312c5a4b47cc24d7b28a22,SCN,2024-06-26_11h07.47.993,LearnStrategy,2023.2.3,MacIntel,6.816632584,9,2,7,,,,,,,,3,11,,,,,,,,,,,3,4.867,1,,,,,,0.124147429,-0.25034694,1,0,0,4.8668,Diorite_rect,6,0,6,0,1,
66312c5a4b47cc24d7b28a22,SCN,2024-06-26_11h07.47.993,LearnStrategy,2023.2.3,MacIntel,6.816632584,9,2,8,,,,,,,,6,08,,,,,,,,,,,6,2.476,1,,,,,,-0.120973714,-0.394134861,1,0,0,2.4758,Pegmatite_rect,7,0,7,0,1,
66312c5a4b47cc24d7b28a22,SCN,2024-06-26_11h07.47.993,LearnStrategy,2023.2.3,MacIntel,6.816632584,9,2,9,,,,,,,,8,16,,,,,,,,,,,8,2.261,1,,,,,,0.419656711,-0.4041162,1,0,0,2.2611,Pumice_rect,8,0,8,0,1,
66312c5a4b47cc24d7b28a22,SCN,2024-06-26_11h07.47.993,LearnStrategy,2023.2.3,MacIntel,6.816632584,9,2,10,,,,,,,,6,15,,,,,,,,,,,6,2.456,1,,,,,,-0.139733096,-0.396758355,1,0,0,2.4565,Pegmatite_rect,9,0,9,0,1,
66312c5a4b47cc24d7b28a22,SCN,2024-06-26_11h07.47.993,LearnStrategy,2023.2.3,MacIntel,6.816632584,9,2,11,,,,,,,,1,02,,,,,,,,,,,1,1.879,1,,,,,,-0.34090158,-0.249971121,1,0,0,1.8788,Andesite_rect,10,0,10,0,1,
66312c5a4b47cc24d7b28a22,SCN,2024-06-26_11h07.47.993,LearnStrategy,2023.2.3,MacIntel,6.816632584,9,2,12,,,,,,,,4,01,,,,,,,,,,,1,3.019,0,,,,,,-0.355331195,-0.239728687,1,0,0,3.0191,Andesite_rect,11,0,11,0,1,
66312c5a4b47cc24d7b28a22,SCN,2024-06-26_11h07.47.993,LearnStrategy,2023.2.3,MacIntel,6.816632584,9,2,13,,,,,,,,2,10,,,,,,,,,,,2,3.605,1,,,,,,-0.127899735,-0.247204477,1,0,0,3.6054,Basalt_rect,12,0,12,0,1,
66312c5a4b47cc24d7b28a22,SCN,2024-06-26_11h07.47.993,LearnStrategy,2023.2.3,MacIntel,6.816632584,9,2,14,,,,,,,,1,09,,,,,,,,,,,1,2.313,1,,,,,,-0.361915758,-0.238754951,1,0,0,2.313,Andesite_rect,13,0,13,0,1,
66312c5a4b47cc24d7b28a22,SCN,2024-06-26_11h07.47.993,LearnStrategy,2023.2.3,MacIntel,6.816632584,9,2,15,,,,,,,,7,07,,,,,,,,,,,7,1.882,1,,,,,,0.110131949,-0.393426231,1,0,0,1.8823,Peridotite_rect,14,0,14,0,1,
66312c5a4b47cc24d7b28a22,SCN,2024-06-26_11h07.47.993,LearnStrategy,2023.2.3,MacIntel,6.816632584,9,2,16,,,,,,,,5,11,,,,,,,,,,,5,2.228,1,,,,,,-0.401890507,-0.395503065,1,0,0,2.2283,Obsidian_rect,15,0,15,0,1,
66312c5a4b47cc24d7b28a22,SCN,2024-06-26_11h07.47.993,LearnStrategy,2023.2.3,MacIntel,6.816632584,,,,,,,,,,,,,,,,,,,,,,,,,,,,,,,,,,,,,,,,,,,1
66312c5a4b47cc24d7b28a22,SCN,2024-06-26_11h07.47.993,LearnStrategy,2023.2.3,MacIntel,6.816632584,,,,,,,,,,,,,,,,,,,,,,,,,,,,,,,,,,,,,,,,,,,
66312c5a4b47cc24d7b28a22,SCN,2024-06-26_11h07.47.993,LearnStrategy,2023.2.3,MacIntel,6.816632584,,,,,,,,,,,6,13,1,1,,,,,,,,,,,,,,,,,,,,,,,,,,,,,
66312c5a4b47cc24d7b28a22,SCN,2024-06-26_11h07.47.993,LearnStrategy,2023.2.3,MacIntel,6.816632584,,,,,,,,,,,7,05,1,2,,,,,,,,,,,,,,,,,,,,,,,,,,,,,
66312c5a4b47cc24d7b28a22,SCN,2024-06-26_11h07.47.993,LearnStrategy,2023.2.3,MacIntel,6.816632584,,,,,,,,,,,6,09,1,3,,,,,,,,,,,,,,,,,,,,,,,,,,,,,
66312c5a4b47cc24d7b28a22,SCN,2024-06-26_11h07.47.993,LearnStrategy,2023.2.3,MacIntel,6.816632584,,,,,,,,,,,7,14,1,4,,,,,,,,,,,,,,,,,,,,,,,,,,,,,
66312c5a4b47cc24d7b28a22,SCN,2024-06-26_11h07.47.993,LearnStrategy,2023.2.3,MacIntel,6.816632584,,,,,,,,,,,2,16,1,5,,,,,,,,,,,,,,,,,,,,,,,,,,,,,
66312c5a4b47cc24d7b28a22,SCN,2024-06-26_11h07.47.993,LearnStrategy,2023.2.3,MacIntel,6.816632584,,,,,,,,,,,7,12,1,6,,,,,,,,,,,,,,,,,,,,,,,,,,,,,
66312c5a4b47cc24d7b28a22,SCN,2024-06-26_11h07.47.993,LearnStrategy,2023.2.3,MacIntel,6.816632584,,,,,,,,,,,5,02,1,7,,,,,,,,,,,,,,,,,,,,,,,,,,,,,
66312c5a4b47cc24d7b28a22,SCN,2024-06-26_11h07.47.993,LearnStrategy,2023.2.3,MacIntel,6.816632584,,,,,,,,,,,7,08,1,8,,,,,,,,,,,,,,,,,,,,,,,,,,,,,
66312c5a4b47cc24d7b28a22,SCN,2024-06-26_11h07.47.993,LearnStrategy,2023.2.3,MacIntel,6.816632584,,,,,,,,,,,2,11,2,1,,,,,,,,,,,,,,,,,,,,,,,,,,,,,
66312c5a4b47cc24d7b28a22,SCN,2024-06-26_11h07.47.993,LearnStrategy,2023.2.3,MacIntel,6.816632584,,,,,,,,,,,6,12,2,2,,,,,,,,,,,,,,,,,,,,,,,,,,,,,
66312c5a4b47cc24d7b28a22,SCN,2024-06-26_11h07.47.993,LearnStrategy,2023.2.3,MacIntel,6.816632584,,,,,,,,,,,1,01,2,3,,,,,,,,,,,,,,,,,,,,,,,,,,,,,
66312c5a4b47cc24d7b28a22,SCN,2024-06-26_11h07.47.993,LearnStrategy,2023.2.3,MacIntel,6.816632584,,,,,,,,,,,4,15,2,4,,,,,,,,,,,,,,,,,,,,,,,,,,,,,
66312c5a4b47cc24d7b28a22,SCN,2024-06-26_11h07.47.993,LearnStrategy,2023.2.3,MacIntel,6.816632584,,,,,,,,,,,8,09,2,5,,,,,,,,,,,,,,,,,,,,,,,,,,,,,
66312c5a4b47cc24d7b28a22,SCN,2024-06-26_11h07.47.993,LearnStrategy,2023.2.3,MacIntel,6.816632584,,,,,,,,,,,3,13,2,6,,,,,,,,,,,,,,,,,,,,,,,,,,,,,
66312c5a4b47cc24d7b28a22,SCN,2024-06-26_11h07.47.993,LearnStrategy,2023.2.3,MacIntel,6.816632584,,,,,,,,,,,5,09,2,7,,,,,,,,,,,,,,,,,,,,,,,,,,,,,
66312c5a4b47cc24d7b28a22,SCN,2024-06-26_11h07.47.993,LearnStrategy,2023.2.3,MacIntel,6.816632584,,,,,,,,,,,1,10,2,8,,,,,,,,,,,,,,,,,,,,,,,,,,,,,
66312c5a4b47cc24d7b28a22,SCN,2024-06-26_11h07.47.993,LearnStrategy,2023.2.3,MacIntel,6.816632584,,,,,,,,,,,2,05,3,1,,,,,,,,,,,,,,,,,,,,,,,,,,,,,
66312c5a4b47cc24d7b28a22,SCN,2024-06-26_11h07.47.993,LearnStrategy,2023.2.3,MacIntel,6.816632584,,,,,,,,,,,6,07,3,2,,,,,,,,,,,,,,,,,,,,,,,,,,,,,
66312c5a4b47cc24d7b28a22,SCN,2024-06-26_11h07.47.993,LearnStrategy,2023.2.3,MacIntel,6.816632584,,,,,,,,,,,4,05,3,3,,,,,,,,,,,,,,,,,,,,,,,,,,,,,
66312c5a4b47cc24d7b28a22,SCN,2024-06-26_11h07.47.993,LearnStrategy,2023.2.3,MacIntel,6.816632584,,,,,,,,,,,8,08,3,4,,,,,,,,,,,,,,,,,,,,,,,,,,,,,
66312c5a4b47cc24d7b28a22,SCN,2024-06-26_11h07.47.993,LearnStrategy,2023.2.3,MacIntel,6.816632584,,,,,,,,,,,7,02,3,5,,,,,,,,,,,,,,,,,,,,,,,,,,,,,
66312c5a4b47cc24d7b28a22,SCN,2024-06-26_11h07.47.993,LearnStrategy,2023.2.3,MacIntel,6.816632584,,,,,,,,,,,3,10,3,6,,,,,,,,,,,,,,,,,,,,,,,,,,,,,
66312c5a4b47cc24d7b28a22,SCN,2024-06-26_11h07.47.993,LearnStrategy,2023.2.3,MacIntel,6.816632584,,,,,,,,,,,1,14,3,7,,,,,,,,,,,,,,,,,,,,,,,,,,,,,
66312c5a4b47cc24d7b28a22,SCN,2024-06-26_11h07.47.993,LearnStrategy,2023.2.3,MacIntel,6.816632584,,,,,,,,,,,8,10,3,8,,,,,,,,,,,,,,,,,,,,,,,,,,,,,
66312c5a4b47cc24d7b28a22,SCN,2024-06-26_11h07.47.993,LearnStrategy,2023.2.3,MacIntel,6.816632584,,,,,,,,,,,4,08,4,1,,,,,,,,,,,,,,,,,,,,,,,,,,,,,
66312c5a4b47cc24d7b28a22,SCN,2024-06-26_11h07.47.993,LearnStrategy,2023.2.3,MacIntel,6.816632584,,,,,,,,,,,1,07,4,2,,,,,,,,,,,,,,,,,,,,,,,,,,,,,
66312c5a4b47cc24d7b28a22,SCN,2024-06-26_11h07.47.993,LearnStrategy,2023.2.3,MacIntel,6.816632584,,,,,,,,,,,8,04,4,3,,,,,,,,,,,,,,,,,,,,,,,,,,,,,
66312c5a4b47cc24d7b28a22,SCN,2024-06-26_11h07.47.993,LearnStrategy,2023.2.3,MacIntel,6.816632584,,,,,,,,,,,5,12,4,4,,,,,,,,,,,,,,,,,,,,,,,,,,,,,
66312c5a4b47cc24d7b28a22,SCN,2024-06-26_11h07.47.993,LearnStrategy,2023.2.3,MacIntel,6.816632584,,,,,,,,,,,4,03,4,5,,,,,,,,,,,,,,,,,,,,,,,,,,,,,
66312c5a4b47cc24d7b28a22,SCN,2024-06-26_11h07.47.993,LearnStrategy,2023.2.3,MacIntel,6.816632584,,,,,,,,,,,4,13,4,6,,,,,,,,,,,,,,,,,,,,,,,,,,,,,
66312c5a4b47cc24d7b28a22,SCN,2024-06-26_11h07.47.993,LearnStrategy,2023.2.3,MacIntel,6.816632584,,,,,,,,,,,2,02,4,7,,,,,,,,,,,,,,,,,,,,,,,,,,,,,
66312c5a4b47cc24d7b28a22,SCN,2024-06-26_11h07.47.993,LearnStrategy,2023.2.3,MacIntel,6.816632584,,,,,,,,,,,2,12,4,8,,,,,,,,,,,,,,,,,,,,,,,,,,,,,
66312c5a4b47cc24d7b28a22,SCN,2024-06-26_11h07.47.993,LearnStrategy,2023.2.3,MacIntel,6.816632584,,,,,,,,,,,1,05,5,1,,,,,,,,,,,,,,,,,,,,,,,,,,,,,
66312c5a4b47cc24d7b28a22,SCN,2024-06-26_11h07.47.993,LearnStrategy,2023.2.3,MacIntel,6.816632584,,,,,,,,,,,3,15,5,2,,,,,,,,,,,,,,,,,,,,,,,,,,,,,
66312c5a4b47cc24d7b28a22,SCN,2024-06-26_11h07.47.993,LearnStrategy,2023.2.3,MacIntel,6.816632584,,,,,,,,,,,3,16,5,3,,,,,,,,,,,,,,,,,,,,,,,,,,,,,
66312c5a4b47cc24d7b28a22,SCN,2024-06-26_11h07.47.993,LearnStrategy,2023.2.3,MacIntel,6.816632584,,,,,,,,,,,8,06,5,4,,,,,,,,,,,,,,,,,,,,,,,,,,,,,
66312c5a4b47cc24d7b28a22,SCN,2024-06-26_11h07.47.993,LearnStrategy,2023.2.3,MacIntel,6.816632584,,,,,,,,,,,1,06,5,5,,,,,,,,,,,,,,,,,,,,,,,,,,,,,
66312c5a4b47cc24d7b28a22,SCN,2024-06-26_11h07.47.993,LearnStrategy,2023.2.3,MacIntel,6.816632584,,,,,,,,,,,7,13,5,6,,,,,,,,,,,,,,,,,,,,,,,,,,,,,
66312c5a4b47cc24d7b28a22,SCN,2024-06-26_11h07.47.993,LearnStrategy,2023.2.3,MacIntel,6.816632584,,,,,,,,,,,6,11,5,7,,,,,,,,,,,,,,,,,,,,,,,,,,,,,
66312c5a4b47cc24d7b28a22,SCN,2024-06-26_11h07.47.993,LearnStrategy,2023.2.3,MacIntel,6.816632584,,,,,,,,,,,5,10,5,8,,,,,,,,,,,,,,,,,,,,,,,,,,,,,
66312c5a4b47cc24d7b28a22,SCN,2024-06-26_11h07.47.993,LearnStrategy,2023.2.3,MacIntel,6.816632584,,,,,,,,,,,4,09,6,1,,,,,,,,,,,,,,,,,,,,,,,,,,,,,
66312c5a4b47cc24d7b28a22,SCN,2024-06-26_11h07.47.993,LearnStrategy,2023.2.3,MacIntel,6.816632584,,,,,,,,,,,6,06,6,2,,,,,,,,,,,,,,,,,,,,,,,,,,,,,
66312c5a4b47cc24d7b28a22,SCN,2024-06-26_11h07.47.993,LearnStrategy,2023.2.3,MacIntel,6.816632584,,,,,,,,,,,5,06,6,3,,,,,,,,,,,,,,,,,,,,,,,,,,,,,
66312c5a4b47cc24d7b28a22,SCN,2024-06-26_11h07.47.993,LearnStrategy,2023.2.3,MacIntel,6.816632584,,,,,,,,,,,3,09,6,4,,,,,,,,,,,,,,,,,,,,,,,,,,,,,
66312c5a4b47cc24d7b28a22,SCN,2024-06-26_11h07.47.993,LearnStrategy,2023.2.3,MacIntel,6.816632584,,,,,,,,,,,5,16,6,5,,,,,,,,,,,,,,,,,,,,,,,,,,,,,
66312c5a4b47cc24d7b28a22,SCN,2024-06-26_11h07.47.993,LearnStrategy,2023.2.3,MacIntel,6.816632584,,,,,,,,,,,3,06,6,6,,,,,,,,,,,,,,,,,,,,,,,,,,,,,
66312c5a4b47cc24d7b28a22,SCN,2024-06-26_11h07.47.993,LearnStrategy,2023.2.3,MacIntel,6.816632584,,,,,,,,,,,2,09,6,7,,,,,,,,,,,,,,,,,,,,,,,,,,,,,
66312c5a4b47cc24d7b28a22,SCN,2024-06-26_11h07.47.993,LearnStrategy,2023.2.3,MacIntel,6.816632584,,,,,,,,,,,8,13,6,8,,,,,,,,,,,,,,,,,,,,,,,,,,,,,