participant,condition,date,expName,psychopyVersion,OS,frameRate,block,phase,trial,learn_mouse_2.x,learn_mouse_2.y,learn_mouse_2.leftButton,learn_mouse_2.midButton,learn_mouse_2.rightButton,learn_mouse_2.time,learn_mouse_2.clicked_name,cat,token,row,col,t_select,cat_mouse_l.x,cat_mouse_l.y,cat_mouse_l.leftButton,cat_mouse_l.midButton,cat_mouse_l.rightButton,cat_mouse_l.time,cat_mouse_l.clicked_name,resp,t_resp,corr,train_trials.thisRepN,train_trials.thisTrialN,train_trials.thisN,train_trials.thisIndex,train_trials.ran,cat_mouse_t.x,cat_mouse_t.y,cat_mouse_t.leftButton,cat_mouse_t.midButton,cat_mouse_t.rightButton,cat_mouse_t.time,cat_mouse_t.clicked_name,test_trials.thisRepN,test_trials.thisTrialN,test_trials.thisN,test_trials.thisIndex,test_trials.ran,Bonus
6631d1814acfe3524a133869,TCR,2024-06-24_15h00.16.630,LearnStrategy,2023.2.3,Win32,119.047619,,,,,,,,,,,,,,,,,,,,,,,,,,,,,,,,,,,,,,,,,,,
6631d1814acfe3524a133869,TCR,2024-06-24_15h00.16.630,LearnStrategy,2023.2.3,Win32,119.047619,1,1,1,0.011111153,0.005555541,1,0,0,1.6234,rock_grid_rect_2,8,09,-1,-1,1.623,0.459259316,-0.407407407,1,0,0,6.4738,Pumice_rect,8,6.474,1,0,0,0,0,1,,,,,,,,,,,,,
6631d1814acfe3524a133869,TCR,2024-06-24_15h00.16.630,LearnStrategy,2023.2.3,Win32,119.047619,1,1,2,0.086111139,0.008333312,1,0,0,1.1069,rock_grid_rect_2,1,09,-1,-1,1.107,-0.128703718,-0.262962977,1,0,0,4.6892,Basalt_rect,2,4.689,0,1,0,1,0,1,,,,,,,,,,,,,
6631d1814acfe3524a133869,TCR,2024-06-24_15h00.16.630,LearnStrategy,2023.2.3,Win32,119.047619,1,1,3,0.00462963,0.00462963,1,0,0,0.9351,rock_grid_rect_2,2,12,-1,-1,0.935,-0.134259259,-0.259259259,1,0,0,3.3883,Basalt_rect,2,3.388,1,2,0,2,0,1,,,,,,,,,,,,,
6631d1814acfe3524a133869,TCR,2024-06-24_15h00.16.630,LearnStrategy,2023.2.3,Win32,119.047619,1,1,4,0.074999986,0.000925912,1,0,0,0.8489,rock_grid_rect_2,3,06,-1,-1,0.849,0.212962963,-0.255555541,1,0,0,6.1469,Diorite_rect,3,6.147,1,3,0,3,0,1,,,,,,,,,,,,,
6631d1814acfe3524a133869,TCR,2024-06-24_15h00.16.630,LearnStrategy,2023.2.3,Win32,119.047619,1,1,5,0.111111111,0.002777771,1,0,0,0.732,rock_grid_rect_2,1,04,-1,-1,0.732,0.439814815,-0.26944443,1,0,0,2.2798,Gabbro_rect,4,2.28,0,4,0,4,0,1,,,,,,,,,,,,,
6631d1814acfe3524a133869,TCR,2024-06-24_15h00.16.630,LearnStrategy,2023.2.3,Win32,119.047619,1,1,6,0.114814829,0.00462963,1,0,0,0.7859,rock_grid_rect_2,8,14,-1,-1,0.786,0.374074159,-0.248148176,1,0,0,2.53,Gabbro_rect,4,2.53,0,5,0,5,0,1,,,,,,,,,,,,,
6631d1814acfe3524a133869,TCR,2024-06-24_15h00.16.630,LearnStrategy,2023.2.3,Win32,119.047619,1,1,7,0.179629644,0.012962942,1,0,0,0.7756,rock_grid_rect_2,5,09,-1,-1,0.776,-0.41111109,-0.414814843,1,0,0,1.3434,Obsidian_rect,5,1.343,1,6,0,6,0,1,,,,,,,,,,,,,
6631d1814acfe3524a133869,TCR,2024-06-24_15h00.16.630,LearnStrategy,2023.2.3,Win32,119.047619,1,1,8,0.059259273,-0.00462963,1,0,0,0.6505,rock_grid_rect_2,7,16,-1,-1,0.651,-0.131481453,-0.404629672,1,0,0,4.8698,Pegmatite_rect,6,4.87,0,7,0,7,0,1,,,,,,,,,,,,,
6631d1814acfe3524a133869,TCR,2024-06-24_15h00.16.630,LearnStrategy,2023.2.3,Win32,119.047619,1,1,9,0.033333319,-0.00462963,1,0,0,0.8487,rock_grid_rect_2,4,14,-1,-1,0.849,0.061111097,-0.402777778,1,0,0,5.4141,Peridotite_rect,7,5.414,0,8,0,8,0,1,,,,,,,,,,,,,
6631d1814acfe3524a133869,TCR,2024-06-24_15h00.16.630,LearnStrategy,2023.2.3,Win32,119.047619,1,1,10,0.104629658,0.023148148,1,0,0,0.8238,rock_grid_rect_2,7,10,-1,-1,0.824,0.100000028,-0.387962977,1,0,0,4.5967,Peridotite_rect,7,4.597,1,9,0,9,0,1,,,,,,,,,,,,,
6631d1814acfe3524a133869,TCR,2024-06-24_15h00.16.630,LearnStrategy,2023.2.3,Win32,119.047619,1,1,11,0.053703732,-0.003703718,1,0,0,0.6654,rock_grid_rect_2,3,08,-1,-1,0.665,0.398148148,-0.387037065,1,0,0,3.588,Pumice_rect,8,3.588,0,10,0,10,0,1,,,,,,,,,,,,,
6631d1814acfe3524a133869,TCR,2024-06-24_15h00.16.630,LearnStrategy,2023.2.3,Win32,119.047619,1,1,12,0.069444444,-0.01203703,1,0,0,0.7486,rock_grid_rect_2,5,07,-1,-1,0.749,-0.38703703,-0.393518519,1,0,0,1.2604,Obsidian_rect,5,1.26,1,11,0,11,0,1,,,,,,,,,,,,,
6631d1814acfe3524a133869,TCR,2024-06-24_15h00.16.630,LearnStrategy,2023.2.3,Win32,119.047619,1,1,13,0.087037051,0.006481489,1,0,0,0.6662,rock_grid_rect_2,6,16,-1,-1,0.666,0.112963005,-0.253703718,1,0,0,2.8865,Diorite_rect,3,2.887,0,12,0,12,0,1,,,,,,,,,,,,,
6631d1814acfe3524a133869,TCR,2024-06-24_15h00.16.630,LearnStrategy,2023.2.3,Win32,119.047619,1,1,14,0.111111111,0.012962942,1,0,0,0.6239,rock_grid_rect_2,4,13,-1,-1,0.624,-0.057407379,-0.260185171,1,0,0,6.1634,Basalt_rect,2,6.163,0,13,0,13,0,1,,,,,,,,,,,,,
6631d1814acfe3524a133869,TCR,2024-06-24_15h00.16.630,LearnStrategy,2023.2.3,Win32,119.047619,1,1,15,0.050000014,0.023148148,1,0,0,0.6237,rock_grid_rect_2,2,14,-1,-1,0.624,0.136111153,-0.397222236,1,0,0,1.4384,Peridotite_rect,7,1.438,0,14,0,14,0,1,,,,,,,,,,,,,
6631d1814acfe3524a133869,TCR,2024-06-24_15h00.16.630,LearnStrategy,2023.2.3,Win32,119.047619,1,1,16,0.063888903,0.01203703,1,0,0,0.6154,rock_grid_rect_2,6,08,-1,-1,0.615,-0.090740698,-0.250925912,1,0,0,4.4715,Basalt_rect,2,4.471,0,15,0,15,0,1,,,,,,,,,,,,,
6631d1814acfe3524a133869,TCR,2024-06-24_15h00.16.630,LearnStrategy,2023.2.3,Win32,119.047619,1,2,1,,,,,,,,1,03,,,,,,,,,,,3,8.241,0,,,,,,0.14444443,-0.236111111,1,0,0,8.2414,Diorite_rect,0,0,0,0,1,
6631d1814acfe3524a133869,TCR,2024-06-24_15h00.16.630,LearnStrategy,2023.2.3,Win32,119.047619,1,2,2,,,,,,,,8,06,,,,,,,,,,,8,3.702,1,,,,,,0.40370376,-0.413888931,1,0,0,3.7018,Pumice_rect,1,0,1,0,1,
6631d1814acfe3524a133869,TCR,2024-06-24_15h00.16.630,LearnStrategy,2023.2.3,Win32,119.047619,1,2,3,,,,,,,,3,09,,,,,,,,,,,7,2.179,0,,,,,,0.088888875,-0.408333319,1,0,0,2.1793,Peridotite_rect,2,0,2,0,1,
6631d1814acfe3524a133869,TCR,2024-06-24_15h00.16.630,LearnStrategy,2023.2.3,Win32,119.047619,1,2,4,,,,,,,,8,04,,,,,,,,,,,8,3.551,1,,,,,,0.362037094,-0.382407436,1,0,0,3.5507,Pumice_rect,3,0,3,0,1,
6631d1814acfe3524a133869,TCR,2024-06-24_15h00.16.630,LearnStrategy,2023.2.3,Win32,119.047619,1,2,5,,,,,,,,7,07,,,,,,,,,,,7,2.812,1,,,,,,0.162037037,-0.413888931,1,0,0,2.812,Peridotite_rect,4,0,4,0,1,
6631d1814acfe3524a133869,TCR,2024-06-24_15h00.16.630,LearnStrategy,2023.2.3,Win32,119.047619,1,2,6,,,,,,,,3,12,,,,,,,,,,,4,2.288,0,,,,,,0.393518519,-0.249074088,1,0,0,2.2877,Gabbro_rect,5,0,5,0,1,
6631d1814acfe3524a133869,TCR,2024-06-24_15h00.16.630,LearnStrategy,2023.2.3,Win32,119.047619,1,2,7,,,,,,,,6,03,,,,,,,,,,,1,8.305,0,,,,,,-0.321296303,-0.24537037,1,0,0,8.3051,Andesite_rect,6,0,6,0,1,
6631d1814acfe3524a133869,TCR,2024-06-24_15h00.16.630,LearnStrategy,2023.2.3,Win32,119.047619,1,2,8,,,,,,,,1,16,,,,,,,,,,,7,3.322,0,,,,,,0.089814857,-0.396296325,1,0,0,3.3215,Peridotite_rect,7,0,7,0,1,
6631d1814acfe3524a133869,TCR,2024-06-24_15h00.16.630,LearnStrategy,2023.2.3,Win32,119.047619,1,2,9,,,,,,,,4,15,,,,,,,,,,,6,1.804,0,,,,,,-0.137962977,-0.396296325,1,0,0,1.8044,Pegmatite_rect,8,0,8,0,1,
6631d1814acfe3524a133869,TCR,2024-06-24_15h00.16.630,LearnStrategy,2023.2.3,Win32,119.047619,1,2,10,,,,,,,,2,10,,,,,,,,,,,4,3.329,0,,,,,,0.346296381,-0.259259259,1,0,0,3.3295,Gabbro_rect,9,0,9,0,1,
6631d1814acfe3524a133869,TCR,2024-06-24_15h00.16.630,LearnStrategy,2023.2.3,Win32,119.047619,1,2,11,,,,,,,,2,04,,,,,,,,,,,7,1.013,0,,,,,,0.05740745,-0.386111153,1,0,0,1.0129,Peridotite_rect,10,0,10,0,1,
6631d1814acfe3524a133869,TCR,2024-06-24_15h00.16.630,LearnStrategy,2023.2.3,Win32,119.047619,1,2,12,,,,,,,,5,14,,,,,,,,,,,5,1.28,1,,,,,,-0.41111109,-0.402777778,1,0,0,1.2798,Obsidian_rect,11,0,11,0,1,
6631d1814acfe3524a133869,TCR,2024-06-24_15h00.16.630,LearnStrategy,2023.2.3,Win32,119.047619,1,2,13,,,,,,,,4,09,,,,,,,,,,,2,1.313,0,,,,,,-0.085185157,-0.265740783,1,0,0,1.3127,Basalt_rect,12,0,12,0,1,
6631d1814acfe3524a133869,TCR,2024-06-24_15h00.16.630,LearnStrategy,2023.2.3,Win32,119.047619,1,2,14,,,,,,,,5,08,,,,,,,,,,,5,0.896,1,,,,,,-0.381481489,-0.391666695,1,0,0,0.8964,Obsidian_rect,13,0,13,0,1,
6631d1814acfe3524a133869,TCR,2024-06-24_15h00.16.630,LearnStrategy,2023.2.3,Win32,119.047619,1,2,15,,,,,,,,6,07,,,,,,,,,,,7,5.663,0,,,,,,0.102777764,-0.385185171,1,0,0,5.6634,Peridotite_rect,14,0,14,0,1,
6631d1814acfe3524a133869,TCR,2024-06-24_15h00.16.630,LearnStrategy,2023.2.3,Win32,119.047619,1,2,16,,,,,,,,7,12,,,,,,,,,,,3,1.84,0,,,,,,0.174074102,-0.251851894,1,0,0,1.84,Diorite_rect,15,0,15,0,1,
6631d1814acfe3524a133869,TCR,2024-06-24_15h00.16.630,LearnStrategy,2023.2.3,Win32,119.047619,2,1,1,0.053703732,-0.020370377,1,0,0,1.3407,rock_grid_rect_2,3,11,-1,-1,1.341,0.375925982,-0.25,1,0,0,2.6189,Gabbro_rect,4,2.619,0,0,0,0,0,1,,,,,,,,,,,,,
6631d1814acfe3524a133869,TCR,2024-06-24_15h00.16.630,LearnStrategy,2023.2.3,Win32,119.047619,2,1,2,0.077777792,-0.000925947,1,0,0,0.9006,rock_grid_rect_2,4,05,-1,-1,0.901,0.102777764,-0.236111111,1,0,0,6.5532,Diorite_rect,3,6.553,0,1,0,1,0,1,,,,,,,,,,,,,
6631d1814acfe3524a133869,TCR,2024-06-24_15h00.16.630,LearnStrategy,2023.2.3,Win32,119.047619,2,1,3,0.133333347,-0.01203703,1,0,0,0.8531,rock_grid_rect_2,1,04,-1,-1,0.853,0.12037037,-0.395370413,1,0,0,3.501,Peridotite_rect,7,3.501,0,2,0,2,0,1,,,,,,,,,,,,,
6631d1814acfe3524a133869,TCR,2024-06-24_15h00.16.630,LearnStrategy,2023.2.3,Win32,119.047619,2,1,4,-0.018518519,-0.000925947,1,0,0,0.9513,rock_grid_rect_2,3,08,-1,-1,0.951,0.380555612,-0.395370413,1,0,0,1.5781,Pumice_rect,8,1.578,0,3,0,3,0,1,,,,,,,,,,,,,
6631d1814acfe3524a133869,TCR,2024-06-24_15h00.16.630,LearnStrategy,2023.2.3,Win32,119.047619,2,1,5,0.098148134,0.014814801,1,0,0,0.7177,rock_grid_rect_2,3,06,-1,-1,0.718,-0.393518519,-0.237037023,1,0,0,2.4363,Andesite_rect,1,2.436,0,4,0,4,0,1,,,,,,,,,,,,,
6631d1814acfe3524a133869,TCR,2024-06-24_15h00.16.630,LearnStrategy,2023.2.3,Win32,119.047619,2,1,6,0.059259273,0.022222201,1,0,0,0.5896,rock_grid_rect_2,1,09,-1,-1,0.59,-0.062037009,-0.256481524,1,0,0,2.822,Basalt_rect,2,2.822,0,5,0,5,0,1,,,,,,,,,,,,,
6631d1814acfe3524a133869,TCR,2024-06-24_15h00.16.630,LearnStrategy,2023.2.3,Win32,119.047619,2,1,7,0.02407406,-0.021296289,1,0,0,0.5893,rock_grid_rect_2,1,06,-1,-1,0.589,-0.363888882,-0.248148176,1,0,0,1.2053,Andesite_rect,1,1.205,1,6,0,6,0,1,,,,,,,,,,,,,
6631d1814acfe3524a133869,TCR,2024-06-24_15h00.16.630,LearnStrategy,2023.2.3,Win32,119.047619,2,1,8,0.082407422,0.000925912,1,0,0,0.9155,rock_grid_rect_2,6,08,-1,-1,0.916,-0.107407393,-0.397222236,1,0,0,3.0798,Pegmatite_rect,6,3.08,1,7,0,7,0,1,,,,,,,,,,,,,
6631d1814acfe3524a133869,TCR,2024-06-24_15h00.16.630,LearnStrategy,2023.2.3,Win32,119.047619,2,1,9,0.021296325,0.017592571,1,0,0,0.7107,rock_grid_rect_2,6,11,-1,-1,0.711,-0.110185199,-0.387962977,1,0,0,1.2969,Pegmatite_rect,6,1.297,1,8,0,8,0,1,,,,,,,,,,,,,
6631d1814acfe3524a133869,TCR,2024-06-24_15h00.16.630,LearnStrategy,2023.2.3,Win32,119.047619,2,1,10,0.013888889,0.006481489,1,0,0,0.6903,rock_grid_rect_2,6,05,-1,-1,0.69,-0.09629631,-0.413888931,1,0,0,1.155,Pegmatite_rect,6,1.155,1,9,0,9,0,1,,,,,,,,,,,,,
6631d1814acfe3524a133869,TCR,2024-06-24_15h00.16.630,LearnStrategy,2023.2.3,Win32,119.047619,2,1,11,0.034259302,-0.014814836,1,0,0,0.6572,rock_grid_rect_2,7,06,-1,-1,0.657,0.113888917,-0.252777806,1,0,0,1.7215,Diorite_rect,3,1.721,0,10,0,10,0,1,,,,,,,,,,,,,
6631d1814acfe3524a133869,TCR,2024-06-24_15h00.16.630,LearnStrategy,2023.2.3,Win32,119.047619,2,1,12,0.027777778,-0.014814836,1,0,0,0.7826,rock_grid_rect_2,4,03,-1,-1,0.783,-0.36296297,-0.266666695,1,0,0,1.0781,Andesite_rect,1,1.078,0,11,0,11,0,1,,,,,,,,,,,,,
6631d1814acfe3524a133869,TCR,2024-06-24_15h00.16.630,LearnStrategy,2023.2.3,Win32,119.047619,2,1,13,0.006481524,0.0074074,1,0,0,0.5238,rock_grid_rect_2,7,10,-1,-1,0.524,0.387037065,-0.252777806,1,0,0,2.8637,Gabbro_rect,4,2.864,0,12,0,12,0,1,,,,,,,,,,,,,
6631d1814acfe3524a133869,TCR,2024-06-24_15h00.16.630,LearnStrategy,2023.2.3,Win32,119.047619,2,1,14,0.038888931,0.015740748,1,0,0,0.5905,rock_grid_rect_2,2,06,-1,-1,0.591,0.080555598,-0.384259259,1,0,0,3.8831,Peridotite_rect,7,3.883,0,13,0,13,0,1,,,,,,,,,,,,,
6631d1814acfe3524a133869,TCR,2024-06-24_15h00.16.630,LearnStrategy,2023.2.3,Win32,119.047619,2,1,15,0.026851866,0.01203703,1,0,0,0.567,rock_grid_rect_2,2,12,-1,-1,0.567,-0.099999958,-0.260185171,1,0,0,2.4857,Basalt_rect,2,2.486,1,14,0,14,0,1,,,,,,,,,,,,,
6631d1814acfe3524a133869,TCR,2024-06-24_15h00.16.630,LearnStrategy,2023.2.3,Win32,119.047619,2,1,16,0.062037079,-0.008333347,1,0,0,0.7323,rock_grid_rect_2,4,14,-1,-1,0.732,0.375,-0.249074088,1,0,0,1.7882,Gabbro_rect,4,1.788,1,15,0,15,0,1,,,,,,,,,,,,,
6631d1814acfe3524a133869,TCR,2024-06-24_15h00.16.630,LearnStrategy,2023.2.3,Win32,119.047619,2,2,1,,,,,,,,4,08,,,,,,,,,,,4,5.617,1,,,,,,0.344444416,-0.248148176,1,0,0,5.6169,Gabbro_rect,0,0,0,0,1,
6631d1814acfe3524a133869,TCR,2024-06-24_15h00.16.630,LearnStrategy,2023.2.3,Win32,119.047619,2,2,2,,,,,,,,1,10,,,,,,,,,,,3,2.187,0,,,,,,0.080555598,-0.257407436,1,0,0,2.1868,Diorite_rect,1,0,1,0,1,
6631d1814acfe3524a133869,TCR,2024-06-24_15h00.16.630,LearnStrategy,2023.2.3,Win32,119.047619,2,2,3,,,,,,,,8,13,,,,,,,,,,,7,6.133,0,,,,,,0.142592607,-0.395370413,1,0,0,6.1327,Peridotite_rect,2,0,2,0,1,
6631d1814acfe3524a133869,TCR,2024-06-24_15h00.16.630,LearnStrategy,2023.2.3,Win32,119.047619,2,2,4,,,,,,,,3,14,,,,,,,,,,,7,6.972,0,,,,,,0.112037023,-0.397222236,1,0,0,6.9715,Peridotite_rect,3,0,3,0,1,
6631d1814acfe3524a133869,TCR,2024-06-24_15h00.16.630,LearnStrategy,2023.2.3,Win32,119.047619,2,2,5,,,,,,,,3,15,,,,,,,,,,,4,5.02,0,,,,,,0.336111139,-0.250925912,1,0,0,5.02,Gabbro_rect,4,0,4,0,1,
6631d1814acfe3524a133869,TCR,2024-06-24_15h00.16.630,LearnStrategy,2023.2.3,Win32,119.047619,2,2,6,,,,,,,,1,02,,,,,,,,,,,2,2.659,0,,,,,,-0.069444444,-0.25,1,0,0,2.6593,Basalt_rect,5,0,5,0,1,
6631d1814acfe3524a133869,TCR,2024-06-24_15h00.16.630,LearnStrategy,2023.2.3,Win32,119.047619,2,2,7,,,,,,,,2,02,,,,,,,,,,,4,2.846,0,,,,,,0.401851937,-0.261111153,1,0,0,2.8464,Gabbro_rect,6,0,6,0,1,
6631d1814acfe3524a133869,TCR,2024-06-24_15h00.16.630,LearnStrategy,2023.2.3,Win32,119.047619,2,2,8,,,,,,,,8,16,,,,,,,,,,,4,3.787,0,,,,,,0.407407407,-0.233333376,1,0,0,3.7869,Gabbro_rect,7,0,7,0,1,
6631d1814acfe3524a133869,TCR,2024-06-24_15h00.16.630,LearnStrategy,2023.2.3,Win32,119.047619,2,2,9,,,,,,,,5,16,,,,,,,,,,,5,1.107,1,,,,,,-0.463888875,-0.412962949,1,0,0,1.1073,Obsidian_rect,8,0,8,0,1,
6631d1814acfe3524a133869,TCR,2024-06-24_15h00.16.630,LearnStrategy,2023.2.3,Win32,119.047619,2,2,10,,,,,,,,7,08,,,,,,,,,,,3,2.88,0,,,,,,0.142592607,-0.262037065,1,0,0,2.88,Diorite_rect,9,0,9,0,1,
6631d1814acfe3524a133869,TCR,2024-06-24_15h00.16.630,LearnStrategy,2023.2.3,Win32,119.047619,2,2,11,,,,,,,,6,15,,,,,,,,,,,6,2.13,1,,,,,,-0.170370384,-0.412037037,1,0,0,2.1299,Pegmatite_rect,10,0,10,0,1,
6631d1814acfe3524a133869,TCR,2024-06-24_15h00.16.630,LearnStrategy,2023.2.3,Win32,119.047619,2,2,12,,,,,,,,5,11,,,,,,,,,,,5,1.021,1,,,,,,-0.412037037,-0.410185213,1,0,0,1.021,Obsidian_rect,11,0,11,0,1,
6631d1814acfe3524a133869,TCR,2024-06-24_15h00.16.630,LearnStrategy,2023.2.3,Win32,119.047619,2,2,13,,,,,,,,7,02,,,,,,,,,,,3,4.704,0,,,,,,0.139814801,-0.261111153,1,0,0,4.7042,Diorite_rect,12,0,12,0,1,
6631d1814acfe3524a133869,TCR,2024-06-24_15h00.16.630,LearnStrategy,2023.2.3,Win32,119.047619,2,2,14,,,,,,,,6,06,,,,,,,,,,,7,2.205,0,,,,,,0.104629658,-0.405555584,1,0,0,2.2047,Peridotite_rect,13,0,13,0,1,
6631d1814acfe3524a133869,TCR,2024-06-24_15h00.16.630,LearnStrategy,2023.2.3,Win32,119.047619,2,2,15,,,,,,,,2,08,,,,,,,,,,,4,4.78,0,,,,,,0.373148176,-0.25462963,1,0,0,4.78,Gabbro_rect,14,0,14,0,1,
6631d1814acfe3524a133869,TCR,2024-06-24_15h00.16.630,LearnStrategy,2023.2.3,Win32,119.047619,2,2,16,,,,,,,,4,12,,,,,,,,,,,2,2.071,0,,,,,,-0.089814787,-0.240740741,1,0,0,2.0713,Basalt_rect,15,0,15,0,1,
6631d1814acfe3524a133869,TCR,2024-06-24_15h00.16.630,LearnStrategy,2023.2.3,Win32,119.047619,3,1,1,0.101851852,0.005555541,1,0,0,1.0909,rock_grid_rect_2,7,05,-1,-1,1.091,0.330555527,-0.232407393,1,0,0,1.12,Gabbro_rect,4,1.12,0,0,0,0,0,1,,,,,,,,,,,,,
6631d1814acfe3524a133869,TCR,2024-06-24_15h00.16.630,LearnStrategy,2023.2.3,Win32,119.047619,3,1,2,0.031481496,-0.000925947,1,0,0,0.8685,rock_grid_rect_2,2,06,-1,-1,0.868,0.381481453,-0.231481481,1,0,0,3.4222,Gabbro_rect,4,3.422,0,1,0,1,0,1,,,,,,,,,,,,,
6631d1814acfe3524a133869,TCR,2024-06-24_15h00.16.630,LearnStrategy,2023.2.3,Win32,119.047619,3,1,3,0.087037051,0.00462963,1,0,0,0.9988,rock_grid_rect_2,3,10,-1,-1,0.999,0.335185157,-0.240740741,1,0,0,1.69,Gabbro_rect,4,1.69,0,2,0,2,0,1,,,,,,,,,,,,,
6631d1814acfe3524a133869,TCR,2024-06-24_15h00.16.630,LearnStrategy,2023.2.3,Win32,119.047619,3,1,4,0.107407393,-0.005555577,1,0,0,1.0824,rock_grid_rect_2,8,15,-1,-1,1.082,0.14907406,-0.40370369,1,0,0,5.5455,Peridotite_rect,7,5.546,0,3,0,3,0,1,,,,,,,,,,,,,
6631d1814acfe3524a133869,TCR,2024-06-24_15h00.16.630,LearnStrategy,2023.2.3,Win32,119.047619,3,1,5,0.17777782,0.005555541,1,0,0,0.9406,rock_grid_rect_2,1,04,-1,-1,0.941,-0.134259259,-0.261111153,1,0,0,2.5038,Basalt_rect,2,2.504,0,4,0,4,0,1,,,,,,,,,,,,,
6631d1814acfe3524a133869,TCR,2024-06-24_15h00.16.630,LearnStrategy,2023.2.3,Win32,119.047619,3,1,6,0.100000028,-0.008333347,1,0,0,1.0488,rock_grid_rect_2,6,16,-1,-1,1.049,0.375,-0.25,1,0,0,2.8051,Gabbro_rect,4,2.805,0,5,0,5,0,1,,,,,,,,,,,,,
6631d1814acfe3524a133869,TCR,2024-06-24_15h00.16.630,LearnStrategy,2023.2.3,Win32,119.047619,3,1,7,0.112963005,-0.009259259,1,0,0,0.9435,rock_grid_rect_2,4,05,-1,-1,0.943,0.428703732,-0.252777806,1,0,0,6.2221,Gabbro_rect,4,6.222,1,6,0,6,0,1,,,,,,,,,,,,,
6631d1814acfe3524a133869,TCR,2024-06-24_15h00.16.630,LearnStrategy,2023.2.3,Win32,119.047619,3,1,8,0.091666681,-0.005555577,1,0,0,0.6651,rock_grid_rect_2,7,06,-1,-1,0.665,-0.202777792,-0.415740755,1,0,0,1.2135,Pegmatite_rect,6,1.213,0,7,0,7,0,1,,,,,,,,,,,,,
6631d1814acfe3524a133869,TCR,2024-06-24_15h00.16.630,LearnStrategy,2023.2.3,Win32,119.047619,3,1,9,0.097222222,0.018518519,1,0,0,0.6405,rock_grid_rect_2,3,10,-1,-1,0.64,0.087962963,-0.242592635,1,0,0,6.3134,Diorite_rect,3,6.313,1,8,0,8,0,1,,,,,,,,,,,,,
6631d1814acfe3524a133869,TCR,2024-06-24_15h00.16.630,LearnStrategy,2023.2.3,Win32,119.047619,3,1,10,0.116666653,0.001851859,1,0,0,0.6072,rock_grid_rect_2,1,07,-1,-1,0.607,-0.201851809,-0.386111153,1,0,0,4.8638,Pegmatite_rect,6,4.864,0,9,0,9,0,1,,,,,,,,,,,,,
6631d1814acfe3524a133869,TCR,2024-06-24_15h00.16.630,LearnStrategy,2023.2.3,Win32,119.047619,3,1,11,-0.012036995,-0.023148148,1,0,0,0.6572,rock_grid_rect_2,3,13,-1,-1,0.657,0.349074046,-0.253703718,1,0,0,2.155,Gabbro_rect,4,2.155,0,10,0,10,0,1,,,,,,,,,,,,,
6631d1814acfe3524a133869,TCR,2024-06-24_15h00.16.630,LearnStrategy,2023.2.3,Win32,119.047619,3,1,12,0.109259288,-0.008333347,1,0,0,0.8144,rock_grid_rect_2,4,11,-1,-1,0.814,-0.157407407,-0.250925912,1,0,0,2.001,Basalt_rect,2,2.001,0,11,0,11,0,1,,,,,,,,,,,,,
6631d1814acfe3524a133869,TCR,2024-06-24_15h00.16.630,LearnStrategy,2023.2.3,Win32,119.047619,3,1,13,0.135185171,-0.015740748,1,0,0,0.6156,rock_grid_rect_2,2,09,-1,-1,0.616,-0.094444416,-0.235185199,1,0,0,0.9284,Basalt_rect,2,0.928,1,12,0,12,0,1,,,,,,,,,,,,,
6631d1814acfe3524a133869,TCR,2024-06-24_15h00.16.630,LearnStrategy,2023.2.3,Win32,119.047619,3,1,14,0.054629644,0.009259259,1,0,0,0.5576,rock_grid_rect_2,2,06,-1,-1,0.558,-0.137036995,-0.251851894,1,0,0,1.0039,Basalt_rect,2,1.004,1,13,0,13,0,1,,,,,,,,,,,,,
6631d1814acfe3524a133869,TCR,2024-06-24_15h00.16.630,LearnStrategy,2023.2.3,Win32,119.047619,3,1,15,0.09629631,0.000925912,1,0,0,0.9236,rock_grid_rect_2,6,13,-1,-1,0.924,-0.104629587,-0.390740783,1,0,0,1.1634,Pegmatite_rect,6,1.163,1,14,0,14,0,1,,,,,,,,,,,,,
6631d1814acfe3524a133869,TCR,2024-06-24_15h00.16.630,LearnStrategy,2023.2.3,Win32,119.047619,3,1,16,0.042592578,-0.01203703,1,0,0,0.7907,rock_grid_rect_2,8,15,-1,-1,0.791,0.395370342,-0.407407407,1,0,0,2.0219,Pumice_rect,8,2.022,1,15,0,15,0,1,,,,,,,,,,,,,
6631d1814acfe3524a133869,TCR,2024-06-24_15h00.16.630,LearnStrategy,2023.2.3,Win32,119.047619,3,2,1,,,,,,,,5,02,,,,,,,,,,,5,1.038,1,,,,,,-0.397222201,-0.420370384,1,0,0,1.0376,Obsidian_rect,0,0,0,0,1,
6631d1814acfe3524a133869,TCR,2024-06-24_15h00.16.630,LearnStrategy,2023.2.3,Win32,119.047619,3,2,2,,,,,,,,7,14,,,,,,,,,,,4,1.946,0,,,,,,0.440740797,-0.247222265,1,0,0,1.9464,Gabbro_rect,1,0,1,0,1,
6631d1814acfe3524a133869,TCR,2024-06-24_15h00.16.630,LearnStrategy,2023.2.3,Win32,119.047619,3,2,3,,,,,,,,4,10,,,,,,,,,,,3,4.696,0,,,,,,0.137962977,-0.250925912,1,0,0,4.6958,Diorite_rect,2,0,2,0,1,
6631d1814acfe3524a133869,TCR,2024-06-24_15h00.16.630,LearnStrategy,2023.2.3,Win32,119.047619,3,2,4,,,,,,,,4,16,,,,,,,,,,,7,1.538,0,,,,,,0.113888917,-0.400925954,1,0,0,1.5382,Peridotite_rect,3,0,3,0,1,
6631d1814acfe3524a133869,TCR,2024-06-24_15h00.16.630,LearnStrategy,2023.2.3,Win32,119.047619,3,2,5,,,,,,,,2,16,,,,,,,,,,,4,2.638,0,,,,,,0.400925954,-0.260185171,1,0,0,2.6377,Gabbro_rect,4,0,4,0,1,
6631d1814acfe3524a133869,TCR,2024-06-24_15h00.16.630,LearnStrategy,2023.2.3,Win32,119.047619,3,2,6,,,,,,,,6,12,,,,,,,,,,,6,2.121,1,,,,,,-0.118518476,-0.391666695,1,0,0,2.1213,Pegmatite_rect,5,0,5,0,1,
6631d1814acfe3524a133869,TCR,2024-06-24_15h00.16.630,LearnStrategy,2023.2.3,Win32,119.047619,3,2,7,,,,,,,,5,12,,,,,,,,,,,5,0.971,1,,,,,,-0.355555534,-0.398148148,1,0,0,0.9713,Obsidian_rect,6,0,6,0,1,
6631d1814acfe3524a133869,TCR,2024-06-24_15h00.16.630,LearnStrategy,2023.2.3,Win32,119.047619,3,2,8,,,,,,,,3,07,,,,,,,,,,,1,2.211,0,,,,,,-0.374074053,-0.234259288,1,0,0,2.2113,Andesite_rect,7,0,7,0,1,
6631d1814acfe3524a133869,TCR,2024-06-24_15h00.16.630,LearnStrategy,2023.2.3,Win32,119.047619,3,2,9,,,,,,,,1,05,,,,,,,,,,,4,2.321,0,,,,,,0.3648149,-0.236111111,1,0,0,2.3213,Gabbro_rect,8,0,8,0,1,
6631d1814acfe3524a133869,TCR,2024-06-24_15h00.16.630,LearnStrategy,2023.2.3,Win32,119.047619,3,2,10,,,,,,,,2,01,,,,,,,,,,,2,1.238,1,,,,,,-0.119444459,-0.247222265,1,0,0,1.238,Basalt_rect,9,0,9,0,1,
6631d1814acfe3524a133869,TCR,2024-06-24_15h00.16.630,LearnStrategy,2023.2.3,Win32,119.047619,3,2,11,,,,,,,,7,04,,,,,,,,,,,7,2.029,1,,,,,,0.150000042,-0.412037037,1,0,0,2.0295,Peridotite_rect,10,0,10,0,1,
6631d1814acfe3524a133869,TCR,2024-06-24_15h00.16.630,LearnStrategy,2023.2.3,Win32,119.047619,3,2,12,,,,,,,,1,01,,,,,,,,,,,1,2.888,1,,,,,,-0.355555534,-0.241666653,1,0,0,2.8881,Andesite_rect,11,0,11,0,1,
6631d1814acfe3524a133869,TCR,2024-06-24_15h00.16.630,LearnStrategy,2023.2.3,Win32,119.047619,3,2,13,,,,,,,,8,05,,,,,,,,,,,8,1.456,1,,,,,,0.426851908,-0.404629672,1,0,0,1.456,Pumice_rect,12,0,12,0,1,
6631d1814acfe3524a133869,TCR,2024-06-24_15h00.16.630,LearnStrategy,2023.2.3,Win32,119.047619,3,2,14,,,,,,,,8,10,,,,,,,,,,,8,1.338,1,,,,,,0.337037122,-0.404629672,1,0,0,1.338,Pumice_rect,13,0,13,0,1,
6631d1814acfe3524a133869,TCR,2024-06-24_15h00.16.630,LearnStrategy,2023.2.3,Win32,119.047619,3,2,15,,,,,,,,3,02,,,,,,,,,,,7,4.121,0,,,,,,0.119444459,-0.384259259,1,0,0,4.121,Peridotite_rect,14,0,14,0,1,
6631d1814acfe3524a133869,TCR,2024-06-24_15h00.16.630,LearnStrategy,2023.2.3,Win32,119.047619,3,2,16,,,,,,,,6,09,,,,,,,,,,,6,1.53,1,,,,,,-0.151851866,-0.37962963,1,0,0,1.5297,Pegmatite_rect,15,0,15,0,1,
6631d1814acfe3524a133869,TCR,2024-06-24_15h00.16.630,LearnStrategy,2023.2.3,Win32,119.047619,4,1,1,0.075925968,-0.011111118,1,0,0,1.2156,rock_grid_rect_2,1,04,-1,-1,1.216,0.410185213,-0.236111111,1,0,0,3.3091,Gabbro_rect,4,3.309,0,0,0,0,0,1,,,,,,,,,,,,,
6631d1814acfe3524a133869,TCR,2024-06-24_15h00.16.630,LearnStrategy,2023.2.3,Win32,119.047619,4,1,2,0.134259259,0.021296289,1,0,0,0.6593,rock_grid_rect_2,3,06,-1,-1,0.659,0.342592593,-0.250925912,1,0,0,2.7945,Gabbro_rect,4,2.795,0,1,0,1,0,1,,,,,,,,,,,,,
6631d1814acfe3524a133869,TCR,2024-06-24_15h00.16.630,LearnStrategy,2023.2.3,Win32,119.047619,4,1,3,0.100000028,0.005555541,1,0,0,0.9572,rock_grid_rect_2,7,06,-1,-1,0.957,-0.094444416,-0.411111125,1,0,0,1.5551,Pegmatite_rect,6,1.555,0,2,0,2,0,1,,,,,,,,,,,,,
6631d1814acfe3524a133869,TCR,2024-06-24_15h00.16.630,LearnStrategy,2023.2.3,Win32,119.047619,4,1,4,0.123148176,-0.012962977,1,0,0,0.9407,rock_grid_rect_2,3,08,-1,-1,0.941,0.066666709,-0.249074088,1,0,0,4.8718,Diorite_rect,3,4.872,1,3,0,3,0,1,,,,,,,,,,,,,
6631d1814acfe3524a133869,TCR,2024-06-24_15h00.16.630,LearnStrategy,2023.2.3,Win32,119.047619,4,1,5,0.132407436,-0.000925947,1,0,0,0.5989,rock_grid_rect_2,1,07,-1,-1,0.599,-0.134259259,-0.400925954,1,0,0,2.2464,Pegmatite_rect,6,2.246,0,4,0,4,0,1,,,,,,,,,,,,,
6631d1814acfe3524a133869,TCR,2024-06-24_15h00.16.630,LearnStrategy,2023.2.3,Win32,119.047619,4,1,6,0.041666667,-0.000925947,1,0,0,0.7071,rock_grid_rect_2,8,08,-1,-1,0.707,0.361111111,-0.250925912,1,0,0,2.9465,Gabbro_rect,4,2.947,0,5,0,5,0,1,,,,,,,,,,,,,
6631d1814acfe3524a133869,TCR,2024-06-24_15h00.16.630,LearnStrategy,2023.2.3,Win32,119.047619,4,1,7,0.093518504,-0.00462963,1,0,0,0.599,rock_grid_rect_2,2,12,-1,-1,0.599,0.142592607,-0.393518519,1,0,0,5.6801,Peridotite_rect,7,5.68,0,6,0,6,0,1,,,,,,,,,,,,,
6631d1814acfe3524a133869,TCR,2024-06-24_15h00.16.630,LearnStrategy,2023.2.3,Win32,119.047619,4,1,8,0.023148148,0.01666666,1,0,0,0.6319,rock_grid_rect_2,2,14,-1,-1,0.632,0.349074046,-0.253703718,1,0,0,3.1965,Gabbro_rect,4,3.197,0,7,0,7,0,1,,,,,,,,,,,,,
6631d1814acfe3524a133869,TCR,2024-06-24_15h00.16.630,LearnStrategy,2023.2.3,Win32,119.047619,4,1,9,0.060185185,-0.017592607,1,0,0,0.5822,rock_grid_rect_2,4,11,-1,-1,0.582,-0.074074074,-0.26944443,1,0,0,1.655,Basalt_rect,2,1.655,0,8,0,8,0,1,,,,,,,,,,,,,
6631d1814acfe3524a133869,TCR,2024-06-24_15h00.16.630,LearnStrategy,2023.2.3,Win32,119.047619,4,1,10,0.015740783,0.00462963,1,0,0,0.7904,rock_grid_rect_2,7,16,-1,-1,0.79,0.350000028,-0.237037023,1,0,0,1.9051,Gabbro_rect,4,1.905,0,9,0,9,0,1,,,,,,,,,,,,,
6631d1814acfe3524a133869,TCR,2024-06-24_15h00.16.630,LearnStrategy,2023.2.3,Win32,119.047619,4,1,11,0.046296296,0.001851859,1,0,0,0.8157,rock_grid_rect_2,6,16,-1,-1,0.816,-0.137036995,-0.412962949,1,0,0,3.8131,Pegmatite_rect,6,3.813,1,10,0,10,0,1,,,,,,,,,,,,,
6631d1814acfe3524a133869,TCR,2024-06-24_15h00.16.630,LearnStrategy,2023.2.3,Win32,119.047619,4,1,12,-0.015740712,-0.002777771,1,0,0,0.5157,rock_grid_rect_2,3,16,-1,-1,0.516,0.202777792,-0.392592607,1,0,0,5.3862,Peridotite_rect,7,5.386,0,11,0,11,0,1,,,,,,,,,,,,,
6631d1814acfe3524a133869,TCR,2024-06-24_15h00.16.630,LearnStrategy,2023.2.3,Win32,119.047619,4,1,13,0.087962963,-0.019444466,1,0,0,0.6073,rock_grid_rect_2,7,15,-1,-1,0.607,-0.387962942,-0.243518547,1,0,0,4.1303,Andesite_rect,1,4.13,0,12,0,12,0,1,,,,,,,,,,,,,
6631d1814acfe3524a133869,TCR,2024-06-24_15h00.16.630,LearnStrategy,2023.2.3,Win32,119.047619,4,1,14,-0.020370342,0.005555541,1,0,0,0.7357,rock_grid_rect_2,4,01,-1,-1,0.736,0.353703675,-0.255555541,1,0,0,2.0925,Gabbro_rect,4,2.092,1,13,0,13,0,1,,,,,,,,,,,,,
6631d1814acfe3524a133869,TCR,2024-06-24_15h00.16.630,LearnStrategy,2023.2.3,Win32,119.047619,4,1,15,0.073148162,-0.010185206,1,0,0,0.6573,rock_grid_rect_2,4,11,-1,-1,0.657,-0.126851824,-0.25,1,0,0,1.1635,Basalt_rect,2,1.163,0,14,0,14,0,1,,,,,,,,,,,,,
6631d1814acfe3524a133869,TCR,2024-06-24_15h00.16.630,LearnStrategy,2023.2.3,Win32,119.047619,4,1,16,0.043518561,0.006481489,1,0,0,0.6497,rock_grid_rect_2,2,09,-1,-1,0.65,-0.099074046,-0.256481524,1,0,0,0.9868,Basalt_rect,2,0.987,1,15,0,15,0,1,,,,,,,,,,,,,
6631d1814acfe3524a133869,TCR,2024-06-24_15h00.16.630,LearnStrategy,2023.2.3,Win32,119.047619,4,2,1,,,,,,,,6,09,,,,,,,,,,,6,1.439,1,,,,,,-0.117592564,-0.412037037,1,0,0,1.4388,Pegmatite_rect,0,0,0,0,1,
6631d1814acfe3524a133869,TCR,2024-06-24_15h00.16.630,LearnStrategy,2023.2.3,Win32,119.047619,4,2,2,,,,,,,,3,02,,,,,,,,,,,3,6.171,1,,,,,,0.125925912,-0.249074088,1,0,0,6.1714,Diorite_rect,1,0,1,0,1,
6631d1814acfe3524a133869,TCR,2024-06-24_15h00.16.630,LearnStrategy,2023.2.3,Win32,119.047619,4,2,3,,,,,,,,3,07,,,,,,,,,,,7,1.67,0,,,,,,0.143518519,-0.39444443,1,0,0,1.6703,Peridotite_rect,2,0,2,0,1,
6631d1814acfe3524a133869,TCR,2024-06-24_15h00.16.630,LearnStrategy,2023.2.3,Win32,119.047619,4,2,4,,,,,,,,7,08,,,,,,,,,,,4,6.579,0,,,,,,0.356481481,-0.240740741,1,0,0,6.5791,Gabbro_rect,3,0,3,0,1,
6631d1814acfe3524a133869,TCR,2024-06-24_15h00.16.630,LearnStrategy,2023.2.3,Win32,119.047619,4,2,5,,,,,,,,4,10,,,,,,,,,,,4,3.879,1,,,,,,0.336111139,-0.255555541,1,0,0,3.8789,Gabbro_rect,4,0,4,0,1,
6631d1814acfe3524a133869,TCR,2024-06-24_15h00.16.630,LearnStrategy,2023.2.3,Win32,119.047619,4,2,6,,,,,,,,4,09,,,,,,,,,,,7,4.463,0,,,,,,0.143518519,-0.392592607,1,0,0,4.4633,Peridotite_rect,5,0,5,0,1,
6631d1814acfe3524a133869,TCR,2024-06-24_15h00.16.630,LearnStrategy,2023.2.3,Win32,119.047619,4,2,7,,,,,,,,6,03,,,,,,,,,,,6,1.172,1,,,,,,-0.086111069,-0.385185171,1,0,0,1.1717,Pegmatite_rect,6,0,6,0,1,
6631d1814acfe3524a133869,TCR,2024-06-24_15h00.16.630,LearnStrategy,2023.2.3,Win32,119.047619,4,2,8,,,,,,,,1,10,,,,,,,,,,,1,5.471,1,,,,,,-0.397222201,-0.246296282,1,0,0,5.4715,Andesite_rect,7,0,7,0,1,
6631d1814acfe3524a133869,TCR,2024-06-24_15h00.16.630,LearnStrategy,2023.2.3,Win32,119.047619,4,2,9,,,,,,,,7,02,,,,,,,,,,,7,3.48,1,,,,,,0.167592578,-0.393518519,1,0,0,3.4801,Peridotite_rect,8,0,8,0,1,
6631d1814acfe3524a133869,TCR,2024-06-24_15h00.16.630,LearnStrategy,2023.2.3,Win32,119.047619,4,2,10,,,,,,,,5,16,,,,,,,,,,,5,1.063,1,,,,,,-0.442592586,-0.417592578,1,0,0,1.0625,Obsidian_rect,9,0,9,0,1,
6631d1814acfe3524a133869,TCR,2024-06-24_15h00.16.630,LearnStrategy,2023.2.3,Win32,119.047619,4,2,11,,,,,,,,2,02,,,,,,,,,,,2,1.286,1,,,,,,-0.149999972,-0.251851894,1,0,0,1.2859,Basalt_rect,10,0,10,0,1,
6631d1814acfe3524a133869,TCR,2024-06-24_15h00.16.630,LearnStrategy,2023.2.3,Win32,119.047619,4,2,12,,,,,,,,8,13,,,,,,,,,,,8,5.42,1,,,,,,0.420370455,-0.37962963,1,0,0,5.4205,Pumice_rect,11,0,11,0,1,
6631d1814acfe3524a133869,TCR,2024-06-24_15h00.16.630,LearnStrategy,2023.2.3,Win32,119.047619,4,2,13,,,,,,,,5,14,,,,,,,,,,,5,0.897,1,,,,,,-0.410185178,-0.39444443,1,0,0,0.8972,Obsidian_rect,12,0,12,0,1,
6631d1814acfe3524a133869,TCR,2024-06-24_15h00.16.630,LearnStrategy,2023.2.3,Win32,119.047619,4,2,14,,,,,,,,1,03,,,,,,,,,,,2,2.522,0,,,,,,-0.125,-0.24537037,1,0,0,2.5219,Basalt_rect,13,0,13,0,1,
6631d1814acfe3524a133869,TCR,2024-06-24_15h00.16.630,LearnStrategy,2023.2.3,Win32,119.047619,4,2,15,,,,,,,,8,10,,,,,,,,,,,8,1.205,1,,,,,,0.336111139,-0.392592607,1,0,0,1.2048,Pumice_rect,14,0,14,0,1,
6631d1814acfe3524a133869,TCR,2024-06-24_15h00.16.630,LearnStrategy,2023.2.3,Win32,119.047619,4,2,16,,,,,,,,2,08,,,,,,,,,,,2,2.354,1,,,,,,-0.152777778,-0.251851894,1,0,0,2.3543,Basalt_rect,15,0,15,0,1,
6631d1814acfe3524a133869,TCR,2024-06-24_15h00.16.630,LearnStrategy,2023.2.3,Win32,119.047619,5,1,1,0.066666709,0.008333312,1,0,0,0.9827,rock_grid_rect_2,6,08,-1,-1,0.983,-0.147222236,-0.415740755,1,0,0,1.4382,Pegmatite_rect,6,1.438,1,0,0,0,0,1,,,,,,,,,,,,,
6631d1814acfe3524a133869,TCR,2024-06-24_15h00.16.630,LearnStrategy,2023.2.3,Win32,119.047619,5,1,2,0.067592621,-0.000925947,1,0,0,0.6491,rock_grid_rect_2,3,16,-1,-1,0.649,0.150925954,-0.408333319,1,0,0,1.5967,Peridotite_rect,7,1.597,0,1,0,1,0,1,,,,,,,,,,,,,
6631d1814acfe3524a133869,TCR,2024-06-24_15h00.16.630,LearnStrategy,2023.2.3,Win32,119.047619,5,1,3,0.029629672,0.018518519,1,0,0,0.6571,rock_grid_rect_2,8,15,-1,-1,0.657,0.35555564,-0.395370413,1,0,0,1.3758,Pumice_rect,8,1.376,1,2,0,2,0,1,,,,,,,,,,,,,
6631d1814acfe3524a133869,TCR,2024-06-24_15h00.16.630,LearnStrategy,2023.2.3,Win32,119.047619,5,1,4,-0.007407365,-0.022222236,1,0,0,0.7257,rock_grid_rect_2,4,11,-1,-1,0.726,-0.151851866,-0.255555541,1,0,0,2.3616,Basalt_rect,2,2.362,0,3,0,3,0,1,,,,,,,,,,,,,
6631d1814acfe3524a133869,TCR,2024-06-24_15h00.16.630,LearnStrategy,2023.2.3,Win32,119.047619,5,1,5,-0.006481453,-0.010185206,1,0,0,0.5822,rock_grid_rect_2,3,16,-1,-1,0.582,0.150925954,-0.23055557,1,0,0,1.6634,Diorite_rect,3,1.663,1,4,0,4,0,1,,,,,,,,,,,,,
6631d1814acfe3524a133869,TCR,2024-06-24_15h00.16.630,LearnStrategy,2023.2.3,Win32,119.047619,5,1,6,0.092592593,0,1,0,0,0.8657,rock_grid_rect_2,3,08,-1,-1,0.866,0.093518504,-0.239814829,1,0,0,1.438,Diorite_rect,3,1.438,1,5,0,5,0,1,,,,,,,,,,,,,
6631d1814acfe3524a133869,TCR,2024-06-24_15h00.16.630,LearnStrategy,2023.2.3,Win32,119.047619,5,1,7,-0.016666624,-0.006481489,1,0,0,0.6143,rock_grid_rect_2,7,05,-1,-1,0.614,0.303703732,-0.239814829,1,0,0,2.1966,Gabbro_rect,4,2.197,0,6,0,6,0,1,,,,,,,,,,,,,
6631d1814acfe3524a133869,TCR,2024-06-24_15h00.16.630,LearnStrategy,2023.2.3,Win32,119.047619,5,1,8,-0.006481453,0.0074074,1,0,0,0.899,rock_grid_rect_2,4,11,-1,-1,0.899,-0.073148162,-0.265740783,1,0,0,0.9647,Basalt_rect,2,0.965,0,7,0,7,0,1,,,,,,,,,,,,,
6631d1814acfe3524a133869,TCR,2024-06-24_15h00.16.630,LearnStrategy,2023.2.3,Win32,119.047619,5,1,9,0.033333319,0.014814801,1,0,0,0.5829,rock_grid_rect_2,1,14,-1,-1,0.583,0.334259316,-0.262037065,1,0,0,2.5492,Gabbro_rect,4,2.549,0,8,0,8,0,1,,,,,,,,,,,,,
6631d1814acfe3524a133869,TCR,2024-06-24_15h00.16.630,LearnStrategy,2023.2.3,Win32,119.047619,5,1,10,0.034259302,-0.011111118,1,0,0,0.8484,rock_grid_rect_2,7,15,-1,-1,0.848,0.325925898,-0.257407436,1,0,0,2.3212,Gabbro_rect,4,2.321,0,9,0,9,0,1,,,,,,,,,,,,,
6631d1814acfe3524a133869,TCR,2024-06-24_15h00.16.630,LearnStrategy,2023.2.3,Win32,119.047619,5,1,11,0.002777806,0.001851859,1,0,0,0.4738,rock_grid_rect_2,2,05,-1,-1,0.474,-0.112962935,-0.238888917,1,0,0,3.2129,Basalt_rect,2,3.213,1,10,0,10,0,1,,,,,,,,,,,,,
6631d1814acfe3524a133869,TCR,2024-06-24_15h00.16.630,LearnStrategy,2023.2.3,Win32,119.047619,5,1,12,-0.001851824,-0.013888889,1,0,0,0.4405,rock_grid_rect_2,4,05,-1,-1,0.44,0.323148233,-0.252777806,1,0,0,2.629,Gabbro_rect,4,2.629,1,11,0,11,0,1,,,,,,,,,,,,,
6631d1814acfe3524a133869,TCR,2024-06-24_15h00.16.630,LearnStrategy,2023.2.3,Win32,119.047619,5,1,13,0.061111097,0.001851859,1,0,0,0.4905,rock_grid_rect_2,2,05,-1,-1,0.49,-0.135185171,-0.257407436,1,0,0,1.2962,Basalt_rect,2,1.296,1,12,0,12,0,1,,,,,,,,,,,,,
6631d1814acfe3524a133869,TCR,2024-06-24_15h00.16.630,LearnStrategy,2023.2.3,Win32,119.047619,5,1,14,0.053703732,-0.006481489,1,0,0,0.5073,rock_grid_rect_2,7,13,-1,-1,0.507,0.131481524,-0.237963005,1,0,0,5.7386,Diorite_rect,3,5.739,0,13,0,13,0,1,,,,,,,,,,,,,
6631d1814acfe3524a133869,TCR,2024-06-24_15h00.16.630,LearnStrategy,2023.2.3,Win32,119.047619,5,1,15,0.083333333,-0.011111118,1,0,0,0.5907,rock_grid_rect_2,1,04,-1,-1,0.591,0.193518533,-0.380555541,1,0,0,5.5632,Peridotite_rect,7,5.563,0,14,0,14,0,1,,,,,,,,,,,,,
6631d1814acfe3524a133869,TCR,2024-06-24_15h00.16.630,LearnStrategy,2023.2.3,Win32,119.047619,5,1,16,0.046296296,-0.010185206,1,0,0,0.7823,rock_grid_rect_2,1,14,-1,-1,0.782,0.122222265,-0.382407436,1,0,0,3.1717,Peridotite_rect,7,3.172,0,15,0,15,0,1,,,,,,,,,,,,,
6631d1814acfe3524a133869,TCR,2024-06-24_15h00.16.630,LearnStrategy,2023.2.3,Win32,119.047619,5,2,1,,,,,,,,3,12,,,,,,,,,,,1,6.755,0,,,,,,-0.355555534,-0.248148176,1,0,0,6.7547,Andesite_rect,0,0,0,0,1,
6631d1814acfe3524a133869,TCR,2024-06-24_15h00.16.630,LearnStrategy,2023.2.3,Win32,119.047619,5,2,2,,,,,,,,3,09,,,,,,,,,,,1,9.197,0,,,,,,-0.360185164,-0.25462963,1,0,0,9.1969,Andesite_rect,1,0,1,0,1,
6631d1814acfe3524a133869,TCR,2024-06-24_15h00.16.630,LearnStrategy,2023.2.3,Win32,119.047619,5,2,3,,,,,,,,6,07,,,,,,,,,,,6,1.221,1,,,,,,-0.184259273,-0.391666695,1,0,0,1.2215,Pegmatite_rect,2,0,2,0,1,
6631d1814acfe3524a133869,TCR,2024-06-24_15h00.16.630,LearnStrategy,2023.2.3,Win32,119.047619,5,2,4,,,,,,,,4,16,,,,,,,,,,,7,4.305,0,,,,,,0.168518561,-0.390740783,1,0,0,4.3048,Peridotite_rect,3,0,3,0,1,
6631d1814acfe3524a133869,TCR,2024-06-24_15h00.16.630,LearnStrategy,2023.2.3,Win32,119.047619,5,2,5,,,,,,,,8,04,,,,,,,,,,,8,1.196,1,,,,,,0.455555527,-0.407407407,1,0,0,1.1963,Pumice_rect,4,0,4,0,1,
6631d1814acfe3524a133869,TCR,2024-06-24_15h00.16.630,LearnStrategy,2023.2.3,Win32,119.047619,5,2,6,,,,,,,,7,04,,,,,,,,,,,7,5.521,1,,,,,,0.147222236,-0.389814801,1,0,0,5.5215,Peridotite_rect,5,0,5,0,1,
6631d1814acfe3524a133869,TCR,2024-06-24_15h00.16.630,LearnStrategy,2023.2.3,Win32,119.047619,5,2,7,,,,,,,,5,08,,,,,,,,,,,5,0.997,1,,,,,,-0.451851845,-0.389814801,1,0,0,0.9968,Obsidian_rect,6,0,6,0,1,
6631d1814acfe3524a133869,TCR,2024-06-24_15h00.16.630,LearnStrategy,2023.2.3,Win32,119.047619,5,2,8,,,,,,,,5,12,,,,,,,,,,,5,0.77,1,,,,,,-0.40370369,-0.404629672,1,0,0,0.7704,Obsidian_rect,7,0,7,0,1,
6631d1814acfe3524a133869,TCR,2024-06-24_15h00.16.630,LearnStrategy,2023.2.3,Win32,119.047619,5,2,9,,,,,,,,8,06,,,,,,,,,,,8,0.938,1,,,,,,0.411111196,-0.383333347,1,0,0,0.938,Pumice_rect,8,0,8,0,1,
6631d1814acfe3524a133869,TCR,2024-06-24_15h00.16.630,LearnStrategy,2023.2.3,Win32,119.047619,5,2,10,,,,,,,,2,16,,,,,,,,,,,4,1.905,0,,,,,,0.361111111,-0.253703718,1,0,0,1.9049,Gabbro_rect,9,0,9,0,1,
6631d1814acfe3524a133869,TCR,2024-06-24_15h00.16.630,LearnStrategy,2023.2.3,Win32,119.047619,5,2,11,,,,,,,,7,12,,,,,,,,,,,3,2.005,0,,,,,,0.148148148,-0.259259259,1,0,0,2.0049,Diorite_rect,10,0,10,0,1,
6631d1814acfe3524a133869,TCR,2024-06-24_15h00.16.630,LearnStrategy,2023.2.3,Win32,119.047619,5,2,12,,,,,,,,1,16,,,,,,,,,,,7,3.175,0,,,,,,0.184259273,-0.407407407,1,0,0,3.1753,Peridotite_rect,11,0,11,0,1,
6631d1814acfe3524a133869,TCR,2024-06-24_15h00.16.630,LearnStrategy,2023.2.3,Win32,119.047619,5,2,13,,,,,,,,4,08,,,,,,,,,,,1,2.78,0,,,,,,-0.377777771,-0.241666653,1,0,0,2.7801,Andesite_rect,12,0,12,0,1,
6631d1814acfe3524a133869,TCR,2024-06-24_15h00.16.630,LearnStrategy,2023.2.3,Win32,119.047619,5,2,14,,,,,,,,6,12,,,,,,,,,,,6,1.01,1,,,,,,-0.136111083,-0.37962963,1,0,0,1.0102,Pegmatite_rect,13,0,13,0,1,
6631d1814acfe3524a133869,TCR,2024-06-24_15h00.16.630,LearnStrategy,2023.2.3,Win32,119.047619,5,2,15,,,,,,,,2,10,,,,,,,,,,,4,4.647,0,,,,,,0.432407379,-0.239814829,1,0,0,4.6469,Gabbro_rect,14,0,14,0,1,
6631d1814acfe3524a133869,TCR,2024-06-24_15h00.16.630,LearnStrategy,2023.2.3,Win32,119.047619,5,2,16,,,,,,,,1,05,,,,,,,,,,,7,2.25,0,,,,,,0.107407393,-0.384259259,1,0,0,2.2497,Peridotite_rect,15,0,15,0,1,
6631d1814acfe3524a133869,TCR,2024-06-24_15h00.16.630,LearnStrategy,2023.2.3,Win32,119.047619,6,1,1,0.205555598,0.005555541,1,0,0,1.0239,rock_grid_rect_2,6,05,-1,-1,1.024,-0.121296282,-0.410185213,1,0,0,1.5299,Pegmatite_rect,6,1.53,1,0,0,0,0,1,,,,,,,,,,,,,
6631d1814acfe3524a133869,TCR,2024-06-24_15h00.16.630,LearnStrategy,2023.2.3,Win32,119.047619,6,1,2,0.009259259,-0.021296289,1,0,0,0.6991,rock_grid_rect_2,3,06,-1,-1,0.699,0.136111153,-0.389814801,1,0,0,2.1879,Peridotite_rect,7,2.188,0,1,0,1,0,1,,,,,,,,,,,,,
6631d1814acfe3524a133869,TCR,2024-06-24_15h00.16.630,LearnStrategy,2023.2.3,Win32,119.047619,6,1,3,0.113888917,-0.010185206,1,0,0,0.9068,rock_grid_rect_2,7,06,-1,-1,0.907,0.148148148,-0.239814829,1,0,0,2.1488,Diorite_rect,3,2.149,0,2,0,2,0,1,,,,,,,,,,,,,
6631d1814acfe3524a133869,TCR,2024-06-24_15h00.16.630,LearnStrategy,2023.2.3,Win32,119.047619,6,1,4,0.07222225,-0.018518519,1,0,0,0.5987,rock_grid_rect_2,8,02,-1,-1,0.599,0.327777863,-0.391666695,1,0,0,3.9834,Pumice_rect,8,3.983,1,3,0,3,0,1,,,,,,,,,,,,,
6631d1814acfe3524a133869,TCR,2024-06-24_15h00.16.630,LearnStrategy,2023.2.3,Win32,119.047619,6,1,5,0.042592578,-0.023148148,1,0,0,0.6325,rock_grid_rect_2,7,16,-1,-1,0.632,0.17777782,-0.404629672,1,0,0,3.9962,Peridotite_rect,7,3.996,1,4,0,4,0,1,,,,,,,,,,,,,
6631d1814acfe3524a133869,TCR,2024-06-24_15h00.16.630,LearnStrategy,2023.2.3,Win32,119.047619,6,1,6,0.091666681,0.003703683,1,0,0,0.8319,rock_grid_rect_2,7,06,-1,-1,0.832,-0.158333319,-0.398148148,1,0,0,1.146,Pegmatite_rect,6,1.146,0,5,0,5,0,1,,,,,,,,,,,,,
6631d1814acfe3524a133869,TCR,2024-06-24_15h00.16.630,LearnStrategy,2023.2.3,Win32,119.047619,6,1,7,0.041666667,0.008333312,1,0,0,0.5566,rock_grid_rect_2,1,14,-1,-1,0.557,0.094444487,-0.401851866,1,0,0,1.8217,Peridotite_rect,7,1.822,0,6,0,6,0,1,,,,,,,,,,,,,
6631d1814acfe3524a133869,TCR,2024-06-24_15h00.16.630,LearnStrategy,2023.2.3,Win32,119.047619,6,1,8,0.074074074,0.011111118,1,0,0,0.5491,rock_grid_rect_2,1,07,-1,-1,0.549,-0.107407393,-0.404629672,1,0,0,3.3221,Pegmatite_rect,6,3.322,0,7,0,7,0,1,,,,,,,,,,,,,
6631d1814acfe3524a133869,TCR,2024-06-24_15h00.16.630,LearnStrategy,2023.2.3,Win32,119.047619,6,1,9,0.014814801,0.009259259,1,0,0,0.6435,rock_grid_rect_2,2,12,-1,-1,0.644,0.350000028,-0.246296282,1,0,0,2.4629,Gabbro_rect,4,2.463,0,8,0,8,0,1,,,,,,,,,,,,,
6631d1814acfe3524a133869,TCR,2024-06-24_15h00.16.630,LearnStrategy,2023.2.3,Win32,119.047619,6,1,10,0.033333319,0.013888889,1,0,0,0.5487,rock_grid_rect_2,2,05,-1,-1,0.549,0.363888917,-0.255555541,1,0,0,2.3965,Gabbro_rect,4,2.397,0,9,0,9,0,1,,,,,,,,,,,,,
6631d1814acfe3524a133869,TCR,2024-06-24_15h00.16.630,LearnStrategy,2023.2.3,Win32,119.047619,6,1,11,0.162037037,0.012962942,1,0,0,0.5073,rock_grid_rect_2,1,07,-1,-1,0.507,0.10092594,-0.244444459,1,0,0,2.0218,Diorite_rect,3,2.022,0,10,0,10,0,1,,,,,,,,,,,,,
6631d1814acfe3524a133869,TCR,2024-06-24_15h00.16.630,LearnStrategy,2023.2.3,Win32,119.047619,6,1,12,0.068518533,-0.013888889,1,0,0,0.5156,rock_grid_rect_2,3,11,-1,-1,0.516,0.077777792,-0.411111125,1,0,0,3.2591,Peridotite_rect,7,3.259,0,11,0,11,0,1,,,,,,,,,,,,,
6631d1814acfe3524a133869,TCR,2024-06-24_15h00.16.630,LearnStrategy,2023.2.3,Win32,119.047619,6,1,13,0.050925926,-0.015740748,1,0,0,0.8181,rock_grid_rect_2,4,13,-1,-1,0.818,0.100000028,-0.418518561,1,0,0,2.0859,Peridotite_rect,7,2.086,0,12,0,12,0,1,,,,,,,,,,,,,
6631d1814acfe3524a133869,TCR,2024-06-24_15h00.16.630,LearnStrategy,2023.2.3,Win32,119.047619,6,1,14,0.087037051,-0.002777771,1,0,0,0.9072,rock_grid_rect_2,3,13,-1,-1,0.907,0.097222222,-0.252777806,1,0,0,3.4921,Diorite_rect,3,3.492,1,13,0,13,0,1,,,,,,,,,,,,,
6631d1814acfe3524a133869,TCR,2024-06-24_15h00.16.630,LearnStrategy,2023.2.3,Win32,119.047619,6,1,15,-0.003703718,-0.023148148,1,0,0,0.5086,rock_grid_rect_2,4,03,-1,-1,0.509,0.363888917,-0.235185199,1,0,0,1.8768,Gabbro_rect,4,1.877,1,14,0,14,0,1,,,,,,,,,,,,,
6631d1814acfe3524a133869,TCR,2024-06-24_15h00.16.630,LearnStrategy,2023.2.3,Win32,119.047619,6,1,16,0.085185228,0.015740748,1,0,0,0.4657,rock_grid_rect_2,4,01,-1,-1,0.466,0.065740727,-0.395370413,1,0,0,1.2967,Peridotite_rect,7,1.297,0,15,0,15,0,1,,,,,,,,,,,,,
6631d1814acfe3524a133869,TCR,2024-06-24_15h00.16.630,LearnStrategy,2023.2.3,Win32,119.047619,6,2,1,,,,,,,,7,14,,,,,,,,,,,7,6.688,1,,,,,,0.083333333,-0.407407407,1,0,0,6.6882,Peridotite_rect,0,0,0,0,1,
6631d1814acfe3524a133869,TCR,2024-06-24_15h00.16.630,LearnStrategy,2023.2.3,Win32,119.047619,6,2,2,,,,,,,,6,06,,,,,,,,,,,1,4.271,0,,,,,,-0.373148141,-0.250925912,1,0,0,4.2711,Andesite_rect,1,0,1,0,1,
6631d1814acfe3524a133869,TCR,2024-06-24_15h00.16.630,LearnStrategy,2023.2.3,Win32,119.047619,6,2,3,,,,,,,,3,14,,,,,,,,,,,3,1.321,1,,,,,,0.091666681,-0.251851894,1,0,0,1.3214,Diorite_rect,2,0,2,0,1,
6631d1814acfe3524a133869,TCR,2024-06-24_15h00.16.630,LearnStrategy,2023.2.3,Win32,119.047619,6,2,4,,,,,,,,4,15,,,,,,,,,,,7,2.847,0,,,,,,0.150925954,-0.408333319,1,0,0,2.8469,Peridotite_rect,3,0,3,0,1,
6631d1814acfe3524a133869,TCR,2024-06-24_15h00.16.630,LearnStrategy,2023.2.3,Win32,119.047619,6,2,5,,,,,,,,7,07,,,,,,,,,,,3,4.863,0,,,,,,0.125925912,-0.235185199,1,0,0,4.8633,Diorite_rect,4,0,4,0,1,
6631d1814acfe3524a133869,TCR,2024-06-24_15h00.16.630,LearnStrategy,2023.2.3,Win32,119.047619,6,2,6,,,,,,,,5,11,,,,,,,,,,,5,0.96,1,,,,,,-0.418518526,-0.388888889,1,0,0,0.9601,Obsidian_rect,5,0,5,0,1,
6631d1814acfe3524a133869,TCR,2024-06-24_15h00.16.630,LearnStrategy,2023.2.3,Win32,119.047619,6,2,7,,,,,,,,1,01,,,,,,,,,,,2,3.005,0,,,,,,-0.149999972,-0.247222265,1,0,0,3.0051,Basalt_rect,6,0,6,0,1,
6631d1814acfe3524a133869,TCR,2024-06-24_15h00.16.630,LearnStrategy,2023.2.3,Win32,119.047619,6,2,8,,,,,,,,1,02,,,,,,,,,,,6,4.555,0,,,,,,-0.071296268,-0.414814843,1,0,0,4.5547,Pegmatite_rect,7,0,7,0,1,
6631d1814acfe3524a133869,TCR,2024-06-24_15h00.16.630,LearnStrategy,2023.2.3,Win32,119.047619,6,2,9,,,,,,,,2,04,,,,,,,,,,,2,3.738,1,,,,,,-0.116666653,-0.242592635,1,0,0,3.7377,Basalt_rect,8,0,8,0,1,
6631d1814acfe3524a133869,TCR,2024-06-24_15h00.16.630,LearnStrategy,2023.2.3,Win32,119.047619,6,2,10,,,,,,,,6,15,,,,,,,,,,,6,1.242,1,,,,,,-0.112037023,-0.385185171,1,0,0,1.2425,Pegmatite_rect,9,0,9,0,1,
6631d1814acfe3524a133869,TCR,2024-06-24_15h00.16.630,LearnStrategy,2023.2.3,Win32,119.047619,6,2,11,,,,,,,,4,12,,,,,,,,,,,4,3.772,1,,,,,,0.374074159,-0.237037023,1,0,0,3.7721,Gabbro_rect,10,0,10,0,1,
6631d1814acfe3524a133869,TCR,2024-06-24_15h00.16.630,LearnStrategy,2023.2.3,Win32,119.047619,6,2,12,,,,,,,,2,01,,,,,,,,,,,2,3.472,1,,,,,,-0.109259217,-0.263888889,1,0,0,3.4716,Basalt_rect,11,0,11,0,1,
6631d1814acfe3524a133869,TCR,2024-06-24_15h00.16.630,LearnStrategy,2023.2.3,Win32,119.047619,6,2,13,,,,,,,,3,15,,,,,,,,,,,3,1.397,1,,,,,,0.075925968,-0.250925912,1,0,0,1.3974,Diorite_rect,12,0,12,0,1,
6631d1814acfe3524a133869,TCR,2024-06-24_15h00.16.630,LearnStrategy,2023.2.3,Win32,119.047619,6,2,14,,,,,,,,8,16,,,,,,,,,,,8,1.471,1,,,,,,0.373148176,-0.395370413,1,0,0,1.4714,Pumice_rect,13,0,13,0,1,
6631d1814acfe3524a133869,TCR,2024-06-24_15h00.16.630,LearnStrategy,2023.2.3,Win32,119.047619,6,2,15,,,,,,,,5,02,,,,,,,,,,,5,1.471,1,,,,,,-0.35833334,-0.393518519,1,0,0,1.4714,Obsidian_rect,14,0,14,0,1,
6631d1814acfe3524a133869,TCR,2024-06-24_15h00.16.630,LearnStrategy,2023.2.3,Win32,119.047619,6,2,16,,,,,,,,8,05,,,,,,,,,,,8,1.955,1,,,,,,0.369444529,-0.400000042,1,0,0,1.9553,Pumice_rect,15,0,15,0,1,
6631d1814acfe3524a133869,TCR,2024-06-24_15h00.16.630,LearnStrategy,2023.2.3,Win32,119.047619,7,1,1,0.169444473,-0.006481489,1,0,0,0.8775,rock_grid_rect_2,7,05,-1,-1,0.877,-0.349999993,-0.250925912,1,0,0,5.4935,Andesite_rect,1,5.494,0,0,0,0,0,1,,,,,,,,,,,,,
6631d1814acfe3524a133869,TCR,2024-06-24_15h00.16.630,LearnStrategy,2023.2.3,Win32,119.047619,7,1,2,0.032407407,0.011111118,1,0,0,0.6487,rock_grid_rect_2,1,09,-1,-1,0.649,-0.369444423,-0.266666695,1,0,0,1.8134,Andesite_rect,1,1.813,1,1,0,1,0,1,,,,,,,,,,,,,
6631d1814acfe3524a133869,TCR,2024-06-24_15h00.16.630,LearnStrategy,2023.2.3,Win32,119.047619,7,1,3,0.012037065,-0.008333347,1,0,0,0.5993,rock_grid_rect_2,1,07,-1,-1,0.599,-0.095370328,-0.39444443,1,0,0,2.8214,Pegmatite_rect,6,2.821,0,2,0,2,0,1,,,,,,,,,,,,,
6631d1814acfe3524a133869,TCR,2024-06-24_15h00.16.630,LearnStrategy,2023.2.3,Win32,119.047619,7,1,4,0.026851866,0.008333312,1,0,0,0.5238,rock_grid_rect_2,7,05,-1,-1,0.524,0.157407407,-0.393518519,1,0,0,1.6464,Peridotite_rect,7,1.646,1,3,0,3,0,1,,,,,,,,,,,,,
6631d1814acfe3524a133869,TCR,2024-06-24_15h00.16.630,LearnStrategy,2023.2.3,Win32,119.047619,7,1,5,0.021296325,0.00462963,1,0,0,0.6241,rock_grid_rect_2,2,11,-1,-1,0.624,0.384259259,-0.251851894,1,0,0,2.4304,Gabbro_rect,4,2.43,0,4,0,4,0,1,,,,,,,,,,,,,
6631d1814acfe3524a133869,TCR,2024-06-24_15h00.16.630,LearnStrategy,2023.2.3,Win32,119.047619,7,1,6,0.020370413,-0.000925947,1,0,0,0.4815,rock_grid_rect_2,6,11,-1,-1,0.481,-0.087962963,-0.388888889,1,0,0,0.9133,Pegmatite_rect,6,0.913,1,5,0,5,0,1,,,,,,,,,,,,,
6631d1814acfe3524a133869,TCR,2024-06-24_15h00.16.630,LearnStrategy,2023.2.3,Win32,119.047619,7,1,7,0.035185213,-0.013888889,1,0,0,0.5912,rock_grid_rect_2,2,06,-1,-1,0.591,-0.081481439,-0.252777806,1,0,0,1.9125,Basalt_rect,2,1.912,1,6,0,6,0,1,,,,,,,,,,,,,
6631d1814acfe3524a133869,TCR,2024-06-24_15h00.16.630,LearnStrategy,2023.2.3,Win32,119.047619,7,1,8,0.02870369,-0.012962977,1,0,0,0.5907,rock_grid_rect_2,3,16,-1,-1,0.591,0.132407436,-0.252777806,1,0,0,1.2266,Diorite_rect,3,1.227,1,7,0,7,0,1,,,,,,,,,,,,,
6631d1814acfe3524a133869,TCR,2024-06-24_15h00.16.630,LearnStrategy,2023.2.3,Win32,119.047619,7,1,9,0.044444473,-0.0074074,1,0,0,0.5157,rock_grid_rect_2,4,03,-1,-1,0.516,0.166666667,-0.393518519,1,0,0,3.1802,Peridotite_rect,7,3.18,0,8,0,8,0,1,,,,,,,,,,,,,
6631d1814acfe3524a133869,TCR,2024-06-24_15h00.16.630,LearnStrategy,2023.2.3,Win32,119.047619,7,1,10,0.00462963,0.00462963,1,0,0,0.7406,rock_grid_rect_2,4,05,-1,-1,0.741,0.372222194,-0.26944443,1,0,0,2.1407,Gabbro_rect,4,2.141,1,9,0,9,0,1,,,,,,,,,,,,,
6631d1814acfe3524a133869,TCR,2024-06-24_15h00.16.630,LearnStrategy,2023.2.3,Win32,119.047619,7,1,11,0.040740755,-0.0074074,1,0,0,0.4823,rock_grid_rect_2,1,04,-1,-1,0.482,0.119444459,-0.39444443,1,0,0,3.2551,Peridotite_rect,7,3.255,0,10,0,10,0,1,,,,,,,,,,,,,
6631d1814acfe3524a133869,TCR,2024-06-24_15h00.16.630,LearnStrategy,2023.2.3,Win32,119.047619,7,1,12,0.07685188,0.002777771,1,0,0,0.7739,rock_grid_rect_2,8,02,-1,-1,0.774,0.35555564,-0.413888931,1,0,0,1.2745,Pumice_rect,8,1.274,1,11,0,11,0,1,,,,,,,,,,,,,
6631d1814acfe3524a133869,TCR,2024-06-24_15h00.16.630,LearnStrategy,2023.2.3,Win32,119.047619,7,1,13,0.01944443,-0.01666666,1,0,0,0.6987,rock_grid_rect_2,7,05,-1,-1,0.699,0.139814801,-0.389814801,1,0,0,3.0762,Peridotite_rect,7,3.076,1,12,0,12,0,1,,,,,,,,,,,,,
6631d1814acfe3524a133869,TCR,2024-06-24_15h00.16.630,LearnStrategy,2023.2.3,Win32,119.047619,7,1,14,0.053703732,0.02407406,1,0,0,0.7512,rock_grid_rect_2,4,03,-1,-1,0.751,0.380555612,-0.232407393,1,0,0,2.0612,Gabbro_rect,4,2.061,1,13,0,13,0,1,,,,,,,,,,,,,
6631d1814acfe3524a133869,TCR,2024-06-24_15h00.16.630,LearnStrategy,2023.2.3,Win32,119.047619,7,1,15,0.066666709,-0.000925947,1,0,0,0.4824,rock_grid_rect_2,3,13,-1,-1,0.482,-0.349999993,-0.25462963,1,0,0,4.0967,Andesite_rect,1,4.097,0,14,0,14,0,1,,,,,,,,,,,,,
6631d1814acfe3524a133869,TCR,2024-06-24_15h00.16.630,LearnStrategy,2023.2.3,Win32,119.047619,7,1,16,0.055555556,-0.0074074,1,0,0,0.6818,rock_grid_rect_2,1,11,-1,-1,0.682,-0.297222208,-0.242592635,1,0,0,2.5466,Andesite_rect,1,2.547,1,15,0,15,0,1,,,,,,,,,,,,,
6631d1814acfe3524a133869,TCR,2024-06-24_15h00.16.630,LearnStrategy,2023.2.3,Win32,119.047619,7,2,1,,,,,,,,3,12,,,,,,,,,,,1,4.655,0,,,,,,-0.380555541,-0.241666653,1,0,0,4.655,Andesite_rect,0,0,0,0,1,
6631d1814acfe3524a133869,TCR,2024-06-24_15h00.16.630,LearnStrategy,2023.2.3,Win32,119.047619,7,2,2,,,,,,,,1,16,,,,,,,,,,,1,3.888,1,,,,,,-0.420370349,-0.236111111,1,0,0,3.8881,Andesite_rect,1,0,1,0,1,
6631d1814acfe3524a133869,TCR,2024-06-24_15h00.16.630,LearnStrategy,2023.2.3,Win32,119.047619,7,2,3,,,,,,,,6,12,,,,,,,,,,,6,1.072,1,,,,,,-0.082407422,-0.395370413,1,0,0,1.0715,Pegmatite_rect,2,0,2,0,1,
6631d1814acfe3524a133869,TCR,2024-06-24_15h00.16.630,LearnStrategy,2023.2.3,Win32,119.047619,7,2,4,,,,,,,,7,14,,,,,,,,,,,8,10.599,0,,,,,,0.367592564,-0.393518519,1,0,0,10.5993,Pumice_rect,3,0,3,0,1,
6631d1814acfe3524a133869,TCR,2024-06-24_15h00.16.630,LearnStrategy,2023.2.3,Win32,119.047619,7,2,5,,,,,,,,6,15,,,,,,,,,,,6,0.936,1,,,,,,-0.163888861,-0.402777778,1,0,0,0.936,Pegmatite_rect,4,0,4,0,1,
6631d1814acfe3524a133869,TCR,2024-06-24_15h00.16.630,LearnStrategy,2023.2.3,Win32,119.047619,7,2,6,,,,,,,,2,01,,,,,,,,,,,2,1.412,1,,,,,,-0.084259245,-0.238888917,1,0,0,1.4124,Basalt_rect,5,0,5,0,1,
6631d1814acfe3524a133869,TCR,2024-06-24_15h00.16.630,LearnStrategy,2023.2.3,Win32,119.047619,7,2,7,,,,,,,,1,05,,,,,,,,,,,1,1.763,1,,,,,,-0.375925912,-0.231481481,1,0,0,1.763,Andesite_rect,6,0,6,0,1,
6631d1814acfe3524a133869,TCR,2024-06-24_15h00.16.630,LearnStrategy,2023.2.3,Win32,119.047619,7,2,8,,,,,,,,4,08,,,,,,,,,,,4,1.351,1,,,,,,0.344444416,-0.233333376,1,0,0,1.3508,Gabbro_rect,7,0,7,0,1,
6631d1814acfe3524a133869,TCR,2024-06-24_15h00.16.630,LearnStrategy,2023.2.3,Win32,119.047619,7,2,9,,,,,,,,2,10,,,,,,,,,,,2,1.73,1,,,,,,-0.095370328,-0.231481481,1,0,0,1.7297,Basalt_rect,8,0,8,0,1,
6631d1814acfe3524a133869,TCR,2024-06-24_15h00.16.630,LearnStrategy,2023.2.3,Win32,119.047619,7,2,10,,,,,,,,3,15,,,,,,,,,,,7,2.363,0,,,,,,0.190740727,-0.411111125,1,0,0,2.3635,Peridotite_rect,9,0,9,0,1,
6631d1814acfe3524a133869,TCR,2024-06-24_15h00.16.630,LearnStrategy,2023.2.3,Win32,119.047619,7,2,11,,,,,,,,8,16,,,,,,,,,,,8,0.996,1,,,,,,0.383333418,-0.387962977,1,0,0,0.9965,Pumice_rect,10,0,10,0,1,
6631d1814acfe3524a133869,TCR,2024-06-24_15h00.16.630,LearnStrategy,2023.2.3,Win32,119.047619,7,2,12,,,,,,,,5,16,,,,,,,,,,,5,1.137,1,,,,,,-0.375925912,-0.390740783,1,0,0,1.1371,Obsidian_rect,11,0,11,0,1,
6631d1814acfe3524a133869,TCR,2024-06-24_15h00.16.630,LearnStrategy,2023.2.3,Win32,119.047619,7,2,13,,,,,,,,5,11,,,,,,,,,,,5,0.63,1,,,,,,-0.376851859,-0.402777778,1,0,0,0.6304,Obsidian_rect,12,0,12,0,1,
6631d1814acfe3524a133869,TCR,2024-06-24_15h00.16.630,LearnStrategy,2023.2.3,Win32,119.047619,7,2,14,,,,,,,,8,05,,,,,,,,,,,8,1.202,1,,,,,,0.448148233,-0.390740783,1,0,0,1.2018,Pumice_rect,13,0,13,0,1,
6631d1814acfe3524a133869,TCR,2024-06-24_15h00.16.630,LearnStrategy,2023.2.3,Win32,119.047619,7,2,15,,,,,,,,4,12,,,,,,,,,,,4,2.896,1,,,,,,0.362962935,-0.238888917,1,0,0,2.8955,Gabbro_rect,14,0,14,0,1,
6631d1814acfe3524a133869,TCR,2024-06-24_15h00.16.630,LearnStrategy,2023.2.3,Win32,119.047619,7,2,16,,,,,,,,7,08,,,,,,,,,,,7,3.08,1,,,,,,0.112037023,-0.40370369,1,0,0,3.08,Peridotite_rect,15,0,15,0,1,
6631d1814acfe3524a133869,TCR,2024-06-24_15h00.16.630,LearnStrategy,2023.2.3,Win32,119.047619,8,1,1,0.008333347,-0.010185206,1,0,0,1.0243,rock_grid_rect_2,7,06,-1,-1,1.024,-0.132407365,-0.400925954,1,0,0,2.4376,Pegmatite_rect,6,2.438,0,0,0,0,0,1,,,,,,,,,,,,,
6631d1814acfe3524a133869,TCR,2024-06-24_15h00.16.630,LearnStrategy,2023.2.3,Win32,119.047619,8,1,2,-0.023148148,-0.010185206,1,0,0,0.7325,rock_grid_rect_2,3,11,-1,-1,0.733,0.333333333,-0.246296282,1,0,0,4.287,Gabbro_rect,4,4.287,0,1,0,1,0,1,,,,,,,,,,,,,
6631d1814acfe3524a133869,TCR,2024-06-24_15h00.16.630,LearnStrategy,2023.2.3,Win32,119.047619,8,1,3,0.016666695,-0.019444466,1,0,0,0.7654,rock_grid_rect_2,4,13,-1,-1,0.765,-0.113888847,-0.261111153,1,0,0,2.2216,Basalt_rect,2,2.222,0,2,0,2,0,1,,,,,,,,,,,,,
6631d1814acfe3524a133869,TCR,2024-06-24_15h00.16.630,LearnStrategy,2023.2.3,Win32,119.047619,8,1,4,-0.021296254,-0.0074074,1,0,0,0.7823,rock_grid_rect_2,2,14,-1,-1,0.782,0.351851852,-0.240740741,1,0,0,2.125,Gabbro_rect,4,2.125,0,3,0,3,0,1,,,,,,,,,,,,,
6631d1814acfe3524a133869,TCR,2024-06-24_15h00.16.630,LearnStrategy,2023.2.3,Win32,119.047619,8,1,5,-0.009259259,-0.020370377,1,0,0,0.5099,rock_grid_rect_2,1,14,-1,-1,0.51,-0.376851859,-0.233333376,1,0,0,1.9776,Andesite_rect,1,1.978,1,4,0,4,0,1,,,,,,,,,,,,,
6631d1814acfe3524a133869,TCR,2024-06-24_15h00.16.630,LearnStrategy,2023.2.3,Win32,119.047619,8,1,6,-0.023148148,-0.017592607,1,0,0,0.4741,rock_grid_rect_2,1,09,-1,-1,0.474,-0.385185171,-0.253703718,1,0,0,0.888,Andesite_rect,1,0.888,1,5,0,5,0,1,,,,,,,,,,,,,
6631d1814acfe3524a133869,TCR,2024-06-24_15h00.16.630,LearnStrategy,2023.2.3,Win32,119.047619,8,1,7,-0.030555513,0.00462963,1,0,0,0.4991,rock_grid_rect_2,3,11,-1,-1,0.499,0.332407492,-0.243518547,1,0,0,1.9172,Gabbro_rect,4,1.917,0,6,0,6,0,1,,,,,,,,,,,,,
6631d1814acfe3524a133869,TCR,2024-06-24_15h00.16.630,LearnStrategy,2023.2.3,Win32,119.047619,8,1,8,-0.000925912,-0.021296289,1,0,0,0.4511,rock_grid_rect_2,3,13,-1,-1,0.451,0.101851852,-0.252777806,1,0,0,1.178,Diorite_rect,3,1.178,1,7,0,7,0,1,,,,,,,,,,,,,
6631d1814acfe3524a133869,TCR,2024-06-24_15h00.16.630,LearnStrategy,2023.2.3,Win32,119.047619,8,1,9,-0.013888889,0.014814801,1,0,0,0.491,rock_grid_rect_2,7,10,-1,-1,0.491,-0.366666653,-0.25462963,1,0,0,2.4708,Andesite_rect,1,2.471,0,8,0,8,0,1,,,,,,,,,,,,,
6631d1814acfe3524a133869,TCR,2024-06-24_15h00.16.630,LearnStrategy,2023.2.3,Win32,119.047619,8,1,10,-0.012962977,0.017592571,1,0,0,0.7575,rock_grid_rect_2,7,05,-1,-1,0.757,0.150000042,-0.39907406,1,0,0,2.0384,Peridotite_rect,7,2.038,1,9,0,9,0,1,,,,,,,,,,,,,
6631d1814acfe3524a133869,TCR,2024-06-24_15h00.16.630,LearnStrategy,2023.2.3,Win32,119.047619,8,1,11,0.001851894,0.014814801,1,0,0,0.5159,rock_grid_rect_2,2,09,-1,-1,0.516,-0.087962963,-0.268518519,1,0,0,1.6633,Basalt_rect,2,1.663,1,10,0,10,0,1,,,,,,,,,,,,,
6631d1814acfe3524a133869,TCR,2024-06-24_15h00.16.630,LearnStrategy,2023.2.3,Win32,119.047619,8,1,12,0.011111153,0.014814801,1,0,0,0.4575,rock_grid_rect_2,3,06,-1,-1,0.457,0.146296325,-0.247222265,1,0,0,1.4625,Diorite_rect,3,1.462,1,11,0,11,0,1,,,,,,,,,,,,,
6631d1814acfe3524a133869,TCR,2024-06-24_15h00.16.630,LearnStrategy,2023.2.3,Win32,119.047619,8,1,13,0.013888889,0.005555541,1,0,0,0.5575,rock_grid_rect_2,1,09,-1,-1,0.557,-0.390740748,-0.231481481,1,0,0,2.3887,Andesite_rect,1,2.389,1,12,0,12,0,1,,,,,,,,,,,,,
6631d1814acfe3524a133869,TCR,2024-06-24_15h00.16.630,LearnStrategy,2023.2.3,Win32,119.047619,8,1,14,0.02407406,0.010185171,1,0,0,0.5076,rock_grid_rect_2,4,01,-1,-1,0.508,0.167592578,-0.380555541,1,0,0,2.4125,Peridotite_rect,7,2.413,0,13,0,13,0,1,,,,,,,,,,,,,
6631d1814acfe3524a133869,TCR,2024-06-24_15h00.16.630,LearnStrategy,2023.2.3,Win32,119.047619,8,1,15,-0.014814801,0.003703683,1,0,0,0.6658,rock_grid_rect_2,6,11,-1,-1,0.666,-0.199999986,-0.400000042,1,0,0,1.0285,Pegmatite_rect,6,1.028,1,14,0,14,0,1,,,,,,,,,,,,,
6631d1814acfe3524a133869,TCR,2024-06-24_15h00.16.630,LearnStrategy,2023.2.3,Win32,119.047619,8,1,16,-0.005555541,-0.012962977,1,0,0,0.5158,rock_grid_rect_2,8,08,-1,-1,0.516,-0.377777771,-0.25462963,1,0,0,1.7135,Andesite_rect,1,1.714,0,15,0,15,0,1,,,,,,,,,,,,,
6631d1814acfe3524a133869,TCR,2024-06-24_15h00.16.630,LearnStrategy,2023.2.3,Win32,119.047619,8,2,1,,,,,,,,4,09,,,,,,,,,,,2,13.538,0,,,,,,-0.083333333,-0.25462963,1,0,0,13.5384,Basalt_rect,0,0,0,0,1,
6631d1814acfe3524a133869,TCR,2024-06-24_15h00.16.630,LearnStrategy,2023.2.3,Win32,119.047619,8,2,2,,,,,,,,6,06,,,,,,,,,,,1,1.482,0,,,,,,-0.384259259,-0.243518547,1,0,0,1.4822,Andesite_rect,1,0,1,0,1,
6631d1814acfe3524a133869,TCR,2024-06-24_15h00.16.630,LearnStrategy,2023.2.3,Win32,119.047619,8,2,3,,,,,,,,8,10,,,,,,,,,,,8,0.88,1,,,,,,0.358333305,-0.387037065,1,0,0,0.8795,Pumice_rect,2,0,2,0,1,
6631d1814acfe3524a133869,TCR,2024-06-24_15h00.16.630,LearnStrategy,2023.2.3,Win32,119.047619,8,2,4,,,,,,,,5,08,,,,,,,,,,,5,0.847,1,,,,,,-0.365740741,-0.39444443,1,0,0,0.8466,Obsidian_rect,3,0,3,0,1,
6631d1814acfe3524a133869,TCR,2024-06-24_15h00.16.630,LearnStrategy,2023.2.3,Win32,119.047619,8,2,5,,,,,,,,1,10,,,,,,,,,,,4,3.446,0,,,,,,0.341666751,-0.251851894,1,0,0,3.4465,Gabbro_rect,4,0,4,0,1,
6631d1814acfe3524a133869,TCR,2024-06-24_15h00.16.630,LearnStrategy,2023.2.3,Win32,119.047619,8,2,6,,,,,,,,7,04,,,,,,,,,,,4,5.076,0,,,,,,0.341666751,-0.255555541,1,0,0,5.0757,Gabbro_rect,5,0,5,0,1,
6631d1814acfe3524a133869,TCR,2024-06-24_15h00.16.630,LearnStrategy,2023.2.3,Win32,119.047619,8,2,7,,,,,,,,5,14,,,,,,,,,,,5,1.055,1,,,,,,-0.387962942,-0.392592607,1,0,0,1.0553,Obsidian_rect,6,0,6,0,1,
6631d1814acfe3524a133869,TCR,2024-06-24_15h00.16.630,LearnStrategy,2023.2.3,Win32,119.047619,8,2,8,,,,,,,,1,03,,,,,,,,,,,1,2.038,1,,,,,,-0.362037023,-0.242592635,1,0,0,2.0378,Andesite_rect,7,0,7,0,1,
6631d1814acfe3524a133869,TCR,2024-06-24_15h00.16.630,LearnStrategy,2023.2.3,Win32,119.047619,8,2,9,,,,,,,,6,03,,,,,,,,,,,6,0.963,1,,,,,,-0.135185171,-0.37962963,1,0,0,0.9632,Pegmatite_rect,8,0,8,0,1,
6631d1814acfe3524a133869,TCR,2024-06-24_15h00.16.630,LearnStrategy,2023.2.3,Win32,119.047619,8,2,10,,,,,,,,3,14,,,,,,,,,,,1,4.467,0,,,,,,-0.40648146,-0.242592635,1,0,0,4.4672,Andesite_rect,9,0,9,0,1,
6631d1814acfe3524a133869,TCR,2024-06-24_15h00.16.630,LearnStrategy,2023.2.3,Win32,119.047619,8,2,11,,,,,,,,2,04,,,,,,,,,,,2,1.117,1,,,,,,-0.115740741,-0.241666653,1,0,0,1.1171,Basalt_rect,10,0,10,0,1,
6631d1814acfe3524a133869,TCR,2024-06-24_15h00.16.630,LearnStrategy,2023.2.3,Win32,119.047619,8,2,12,,,,,,,,7,07,,,,,,,,,,,3,4.005,0,,,,,,0.123148176,-0.243518547,1,0,0,4.0051,Diorite_rect,11,0,11,0,1,
6631d1814acfe3524a133869,TCR,2024-06-24_15h00.16.630,LearnStrategy,2023.2.3,Win32,119.047619,8,2,13,,,,,,,,4,15,,,,,,,,,,,4,2.134,1,,,,,,0.314814815,-0.238888917,1,0,0,2.1341,Gabbro_rect,12,0,12,0,1,
6631d1814acfe3524a133869,TCR,2024-06-24_15h00.16.630,LearnStrategy,2023.2.3,Win32,119.047619,8,2,14,,,,,,,,8,04,,,,,,,,,,,8,0.988,1,,,,,,0.337037122,-0.398148148,1,0,0,0.988,Pumice_rect,13,0,13,0,1,
6631d1814acfe3524a133869,TCR,2024-06-24_15h00.16.630,LearnStrategy,2023.2.3,Win32,119.047619,8,2,15,,,,,,,,3,02,,,,,,,,,,,3,1.762,1,,,,,,0.122222265,-0.242592635,1,0,0,1.7621,Diorite_rect,14,0,14,0,1,
6631d1814acfe3524a133869,TCR,2024-06-24_15h00.16.630,LearnStrategy,2023.2.3,Win32,119.047619,8,2,16,,,,,,,,2,16,,,,,,,,,,,4,3.77,0,,,,,,0.329629686,-0.265740783,1,0,0,3.7702,Gabbro_rect,15,0,15,0,1,
6631d1814acfe3524a133869,TCR,2024-06-24_15h00.16.630,LearnStrategy,2023.2.3,Win32,119.047619,9,1,1,0.071296339,-0.012962977,1,0,0,1.0993,rock_grid_rect_2,3,11,-1,-1,1.099,0.167592578,-0.264814801,1,0,0,2.559,Diorite_rect,3,2.559,1,0,0,0,0,1,,,,,,,,,,,,,
6631d1814acfe3524a133869,TCR,2024-06-24_15h00.16.630,LearnStrategy,2023.2.3,Win32,119.047619,9,1,2,0.059259273,-0.019444466,1,0,0,0.5407,rock_grid_rect_2,6,11,-1,-1,0.541,-0.187037009,-0.417592578,1,0,0,0.9259,Pegmatite_rect,6,0.926,1,1,0,1,0,1,,,,,,,,,,,,,
6631d1814acfe3524a133869,TCR,2024-06-24_15h00.16.630,LearnStrategy,2023.2.3,Win32,119.047619,9,1,3,0.046296296,-0.011111118,1,0,0,0.8173,rock_grid_rect_2,1,11,-1,-1,0.817,-0.383333312,-0.235185199,1,0,0,2.2364,Andesite_rect,1,2.236,1,2,0,2,0,1,,,,,,,,,,,,,
6631d1814acfe3524a133869,TCR,2024-06-24_15h00.16.630,LearnStrategy,2023.2.3,Win32,119.047619,9,1,4,0.007407436,0.0074074,1,0,0,0.8826,rock_grid_rect_2,7,06,-1,-1,0.883,-0.099999958,-0.384259259,1,0,0,1.4385,Pegmatite_rect,6,1.438,0,3,0,3,0,1,,,,,,,,,,,,,
6631d1814acfe3524a133869,TCR,2024-06-24_15h00.16.630,LearnStrategy,2023.2.3,Win32,119.047619,9,1,5,0.067592621,-0.011111118,1,0,0,0.4991,rock_grid_rect_2,4,01,-1,-1,0.499,-0.378703683,-0.255555541,1,0,0,1.571,Andesite_rect,1,1.571,0,4,0,4,0,1,,,,,,,,,,,,,
6631d1814acfe3524a133869,TCR,2024-06-24_15h00.16.630,LearnStrategy,2023.2.3,Win32,119.047619,9,1,6,0.02870369,-0.018518519,1,0,0,0.8411,rock_grid_rect_2,4,01,-1,-1,0.841,0.368518547,-0.260185171,1,0,0,1.2803,Gabbro_rect,4,1.28,1,5,0,5,0,1,,,,,,,,,,,,,
6631d1814acfe3524a133869,TCR,2024-06-24_15h00.16.630,LearnStrategy,2023.2.3,Win32,119.047619,9,1,7,0.047222208,0.0074074,1,0,0,0.4909,rock_grid_rect_2,3,13,-1,-1,0.491,0.18240745,-0.253703718,1,0,0,1.0341,Diorite_rect,3,1.034,1,6,0,6,0,1,,,,,,,,,,,,,
6631d1814acfe3524a133869,TCR,2024-06-24_15h00.16.630,LearnStrategy,2023.2.3,Win32,119.047619,9,1,8,0.015740783,0.011111118,1,0,0,0.477,rock_grid_rect_2,1,04,-1,-1,0.477,0.128703718,-0.39907406,1,0,0,2.1524,Peridotite_rect,7,2.152,0,7,0,7,0,1,,,,,,,,,,,,,
6631d1814acfe3524a133869,TCR,2024-06-24_15h00.16.630,LearnStrategy,2023.2.3,Win32,119.047619,9,1,9,-0.018518519,0.01666666,1,0,0,0.4741,rock_grid_rect_2,7,05,-1,-1,0.474,0.131481524,-0.411111125,1,0,0,1.0303,Peridotite_rect,7,1.03,1,8,0,8,0,1,,,,,,,,,,,,,
6631d1814acfe3524a133869,TCR,2024-06-24_15h00.16.630,LearnStrategy,2023.2.3,Win32,119.047619,9,1,10,0.048148191,-0.018518519,1,0,0,0.4822,rock_grid_rect_2,2,11,-1,-1,0.482,-0.386111118,-0.239814829,1,0,0,3.4203,Andesite_rect,1,3.42,0,9,0,9,0,1,,,,,,,,,,,,,
6631d1814acfe3524a133869,TCR,2024-06-24_15h00.16.630,LearnStrategy,2023.2.3,Win32,119.047619,9,1,11,0.035185213,0.009259259,1,0,0,0.4909,rock_grid_rect_2,7,13,-1,-1,0.491,0.091666681,-0.389814801,1,0,0,4.0219,Peridotite_rect,7,4.022,1,10,0,10,0,1,,,,,,,,,,,,,
6631d1814acfe3524a133869,TCR,2024-06-24_15h00.16.630,LearnStrategy,2023.2.3,Win32,119.047619,9,1,12,0.05740745,0.005555541,1,0,0,0.4983,rock_grid_rect_2,2,06,-1,-1,0.498,-0.109259217,-0.232407393,1,0,0,1.13,Basalt_rect,2,1.13,1,11,0,11,0,1,,,,,,,,,,,,,
6631d1814acfe3524a133869,TCR,2024-06-24_15h00.16.630,LearnStrategy,2023.2.3,Win32,119.047619,9,1,13,0.034259302,-0.003703718,1,0,0,0.7909,rock_grid_rect_2,3,10,-1,-1,0.791,0.111111111,-0.250925912,1,0,0,1.5971,Diorite_rect,3,1.597,1,12,0,12,0,1,,,,,,,,,,,,,
6631d1814acfe3524a133869,TCR,2024-06-24_15h00.16.630,LearnStrategy,2023.2.3,Win32,119.047619,9,1,14,-0.013888889,0.003703683,1,0,0,0.6908,rock_grid_rect_2,1,06,-1,-1,0.691,-0.39907406,-0.229629658,1,0,0,2.3306,Andesite_rect,1,2.331,1,13,0,13,0,1,,,,,,,,,,,,,
6631d1814acfe3524a133869,TCR,2024-06-24_15h00.16.630,LearnStrategy,2023.2.3,Win32,119.047619,9,1,15,-0.009259259,-0.006481489,1,0,0,0.7158,rock_grid_rect_2,8,08,-1,-1,0.716,0.396296325,-0.383333347,1,0,0,1.072,Pumice_rect,8,1.072,1,14,0,14,0,1,,,,,,,,,,,,,
6631d1814acfe3524a133869,TCR,2024-06-24_15h00.16.630,LearnStrategy,2023.2.3,Win32,119.047619,9,1,16,-0.016666624,0.012962942,1,0,0,0.7242,rock_grid_rect_2,6,16,-1,-1,0.724,-0.155555513,-0.400925954,1,0,0,1.3803,Pegmatite_rect,6,1.38,1,15,0,15,0,1,,,,,,,,,,,,,
6631d1814acfe3524a133869,TCR,2024-06-24_15h00.16.630,LearnStrategy,2023.2.3,Win32,119.047619,9,2,1,,,,,,,,3,07,,,,,,,,,,,3,5.322,1,,,,,,0.098148134,-0.239814829,1,0,0,5.3216,Diorite_rect,0,0,0,0,1,
6631d1814acfe3524a133869,TCR,2024-06-24_15h00.16.630,LearnStrategy,2023.2.3,Win32,119.047619,9,2,2,,,,,,,,4,10,,,,,,,,,,,4,3.684,1,,,,,,0.312962991,-0.242592635,1,0,0,3.684,Gabbro_rect,1,0,1,0,1,
6631d1814acfe3524a133869,TCR,2024-06-24_15h00.16.630,LearnStrategy,2023.2.3,Win32,119.047619,9,2,3,,,,,,,,2,02,,,,,,,,,,,2,0.971,1,,,,,,-0.110185199,-0.25,1,0,0,0.9711,Basalt_rect,2,0,2,0,1,
6631d1814acfe3524a133869,TCR,2024-06-24_15h00.16.630,LearnStrategy,2023.2.3,Win32,119.047619,9,2,4,,,,,,,,5,12,,,,,,,,,,,5,0.801,1,,,,,,-0.418518526,-0.39907406,1,0,0,0.8008,Obsidian_rect,3,0,3,0,1,
6631d1814acfe3524a133869,TCR,2024-06-24_15h00.16.630,LearnStrategy,2023.2.3,Win32,119.047619,9,2,5,,,,,,,,2,08,,,,,,,,,,,2,1.355,1,,,,,,-0.090740698,-0.241666653,1,0,0,1.3552,Basalt_rect,4,0,4,0,1,
6631d1814acfe3524a133869,TCR,2024-06-24_15h00.16.630,LearnStrategy,2023.2.3,Win32,119.047619,9,2,6,,,,,,,,6,07,,,,,,,,,,,6,1.03,1,,,,,,-0.131481453,-0.387962977,1,0,0,1.0298,Pegmatite_rect,5,0,5,0,1,
6631d1814acfe3524a133869,TCR,2024-06-24_15h00.16.630,LearnStrategy,2023.2.3,Win32,119.047619,9,2,7,,,,,,,,1,02,,,,,,,,,,,3,1.609,0,,,,,,0.110185199,-0.241666653,1,0,0,1.6094,Diorite_rect,6,0,6,0,1,
6631d1814acfe3524a133869,TCR,2024-06-24_15h00.16.630,LearnStrategy,2023.2.3,Win32,119.047619,9,2,8,,,,,,,,4,16,,,,,,,,,,,4,2.88,1,,,,,,0.372222194,-0.257407436,1,0,0,2.88,Gabbro_rect,7,0,7,0,1,
6631d1814acfe3524a133869,TCR,2024-06-24_15h00.16.630,LearnStrategy,2023.2.3,Win32,119.047619,9,2,9,,,,,,,,8,06,,,,,,,,,,,8,1.133,1,,,,,,0.32222225,-0.393518519,1,0,0,1.1333,Pumice_rect,8,0,8,0,1,
6631d1814acfe3524a133869,TCR,2024-06-24_15h00.16.630,LearnStrategy,2023.2.3,Win32,119.047619,9,2,10,,,,,,,,8,13,,,,,,,,,,,8,5.838,1,,,,,,0.324074074,-0.39444443,1,0,0,5.8379,Pumice_rect,9,0,9,0,1,
6631d1814acfe3524a133869,TCR,2024-06-24_15h00.16.630,LearnStrategy,2023.2.3,Win32,119.047619,9,2,11,,,,,,,,7,12,,,,,,,,,,,3,2.033,0,,,,,,0.157407407,-0.25462963,1,0,0,2.0334,Diorite_rect,10,0,10,0,1,
6631d1814acfe3524a133869,TCR,2024-06-24_15h00.16.630,LearnStrategy,2023.2.3,Win32,119.047619,9,2,12,,,,,,,,5,02,,,,,,,,,,,5,0.971,1,,,,,,-0.440740727,-0.414814843,1,0,0,0.9714,Obsidian_rect,11,0,11,0,1,
6631d1814acfe3524a133869,TCR,2024-06-24_15h00.16.630,LearnStrategy,2023.2.3,Win32,119.047619,9,2,13,,,,,,,,3,09,,,,,,,,,,,3,2.178,1,,,,,,0.082407422,-0.247222265,1,0,0,2.1785,Diorite_rect,12,0,12,0,1,
6631d1814acfe3524a133869,TCR,2024-06-24_15h00.16.630,LearnStrategy,2023.2.3,Win32,119.047619,9,2,14,,,,,,,,1,01,,,,,,,,,,,4,2.988,0,,,,,,0.333333333,-0.246296282,1,0,0,2.9883,Gabbro_rect,13,0,13,0,1,
6631d1814acfe3524a133869,TCR,2024-06-24_15h00.16.630,LearnStrategy,2023.2.3,Win32,119.047619,9,2,15,,,,,,,,7,02,,,,,,,,,,,7,2.63,1,,,,,,0.087962963,-0.386111153,1,0,0,2.6296,Peridotite_rect,14,0,14,0,1,
6631d1814acfe3524a133869,TCR,2024-06-24_15h00.16.630,LearnStrategy,2023.2.3,Win32,119.047619,9,2,16,,,,,,,,6,09,,,,,,,,,,,6,1.318,1,,,,,,-0.119444459,-0.409259302,1,0,0,1.3185,Pegmatite_rect,15,0,15,0,1,
6631d1814acfe3524a133869,TCR,2024-06-24_15h00.16.630,LearnStrategy,2023.2.3,Win32,119.047619,,,,,,,,,,,,,,,,,,,,,,,,,,,,,,,,,,,,,,,,,,,1
6631d1814acfe3524a133869,TCR,2024-06-24_15h00.16.630,LearnStrategy,2023.2.3,Win32,119.047619,,,,,,,,,,,,,,,,,,,,,,,,,,,,,,,,,,,,,,,,,,,
6631d1814acfe3524a133869,TCR,2024-06-24_15h00.16.630,LearnStrategy,2023.2.3,Win32,119.047619,,,,,,,,,,,5,09,1,1,,,,,,,,,,,,,,,,,,,,,,,,,,,,,
6631d1814acfe3524a133869,TCR,2024-06-24_15h00.16.630,LearnStrategy,2023.2.3,Win32,119.047619,,,,,,,,,,,5,07,1,2,,,,,,,,,,,,,,,,,,,,,,,,,,,,,
6631d1814acfe3524a133869,TCR,2024-06-24_15h00.16.630,LearnStrategy,2023.2.3,Win32,119.047619,,,,,,,,,,,5,10,1,3,,,,,,,,,,,,,,,,,,,,,,,,,,,,,
6631d1814acfe3524a133869,TCR,2024-06-24_15h00.16.630,LearnStrategy,2023.2.3,Win32,119.047619,,,,,,,,,,,5,05,1,4,,,,,,,,,,,,,,,,,,,,,,,,,,,,,
6631d1814acfe3524a133869,TCR,2024-06-24_15h00.16.630,LearnStrategy,2023.2.3,Win32,119.047619,,,,,,,,,,,3,11,1,5,,,,,,,,,,,,,,,,,,,,,,,,,,,,,
6631d1814acfe3524a133869,TCR,2024-06-24_15h00.16.630,LearnStrategy,2023.2.3,Win32,119.047619,,,,,,,,,,,3,16,1,6,,,,,,,,,,,,,,,,,,,,,,,,,,,,,
6631d1814acfe3524a133869,TCR,2024-06-24_15h00.16.630,LearnStrategy,2023.2.3,Win32,119.047619,,,,,,,,,,,3,10,1,7,,,,,,,,,,,,,,,,,,,,,,,,,,,,,
6631d1814acfe3524a133869,TCR,2024-06-24_15h00.16.630,LearnStrategy,2023.2.3,Win32,119.047619,,,,,,,,,,,5,06,1,8,,,,,,,,,,,,,,,,,,,,,,,,,,,,,
6631d1814acfe3524a133869,TCR,2024-06-24_15h00.16.630,LearnStrategy,2023.2.3,Win32,119.047619,,,,,,,,,,,1,14,2,1,,,,,,,,,,,,,,,,,,,,,,,,,,,,,
6631d1814acfe3524a133869,TCR,2024-06-24_15h00.16.630,LearnStrategy,2023.2.3,Win32,119.047619,,,,,,,,,,,6,10,2,2,,,,,,,,,,,,,,,,,,,,,,,,,,,,,
6631d1814acfe3524a133869,TCR,2024-06-24_15h00.16.630,LearnStrategy,2023.2.3,Win32,119.047619,,,,,,,,,,,8,09,2,3,,,,,,,,,,,,,,,,,,,,,,,,,,,,,
6631d1814acfe3524a133869,TCR,2024-06-24_15h00.16.630,LearnStrategy,2023.2.3,Win32,119.047619,,,,,,,,,,,7,13,2,4,,,,,,,,,,,,,,,,,,,,,,,,,,,,,
6631d1814acfe3524a133869,TCR,2024-06-24_15h00.16.630,LearnStrategy,2023.2.3,Win32,119.047619,,,,,,,,,,,7,05,2,5,,,,,,,,,,,,,,,,,,,,,,,,,,,,,
6631d1814acfe3524a133869,TCR,2024-06-24_15h00.16.630,LearnStrategy,2023.2.3,Win32,119.047619,,,,,,,,,,,1,06,2,6,,,,,,,,,,,,,,,,,,,,,,,,,,,,,
6631d1814acfe3524a133869,TCR,2024-06-24_15h00.16.630,LearnStrategy,2023.2.3,Win32,119.047619,,,,,,,,,,,2,11,2,7,,,,,,,,,,,,,,,,,,,,,,,,,,,,,
6631d1814acfe3524a133869,TCR,2024-06-24_15h00.16.630,LearnStrategy,2023.2.3,Win32,119.047619,,,,,,,,,,,7,15,2,8,,,,,,,,,,,,,,,,,,,,,,,,,,,,,
6631d1814acfe3524a133869,TCR,2024-06-24_15h00.16.630,LearnStrategy,2023.2.3,Win32,119.047619,,,,,,,,,,,6,11,3,1,,,,,,,,,,,,,,,,,,,,,,,,,,,,,
6631d1814acfe3524a133869,TCR,2024-06-24_15h00.16.630,LearnStrategy,2023.2.3,Win32,119.047619,,,,,,,,,,,4,13,3,2,,,,,,,,,,,,,,,,,,,,,,,,,,,,,
6631d1814acfe3524a133869,TCR,2024-06-24_15h00.16.630,LearnStrategy,2023.2.3,Win32,119.047619,,,,,,,,,,,3,13,3,3,,,,,,,,,,,,,,,,,,,,,,,,,,,,,
6631d1814acfe3524a133869,TCR,2024-06-24_15h00.16.630,LearnStrategy,2023.2.3,Win32,119.047619,,,,,,,,,,,4,01,3,4,,,,,,,,,,,,,,,,,,,,,,,,,,,,,
6631d1814acfe3524a133869,TCR,2024-06-24_15h00.16.630,LearnStrategy,2023.2.3,Win32,119.047619,,,,,,,,,,,1,09,3,5,,,,,,,,,,,,,,,,,,,,,,,,,,,,,
6631d1814acfe3524a133869,TCR,2024-06-24_15h00.16.630,LearnStrategy,2023.2.3,Win32,119.047619,,,,,,,,,,,8,02,3,6,,,,,,,,,,,,,,,,,,,,,,,,,,,,,
6631d1814acfe3524a133869,TCR,2024-06-24_15h00.16.630,LearnStrategy,2023.2.3,Win32,119.047619,,,,,,,,,,,2,09,3,7,,,,,,,,,,,,,,,,,,,,,,,,,,,,,
6631d1814acfe3524a133869,TCR,2024-06-24_15h00.16.630,LearnStrategy,2023.2.3,Win32,119.047619,,,,,,,,,,,8,14,3,8,,,,,,,,,,,,,,,,,,,,,,,,,,,,,
6631d1814acfe3524a133869,TCR,2024-06-24_15h00.16.630,LearnStrategy,2023.2.3,Win32,119.047619,,,,,,,,,,,3,08,4,1,,,,,,,,,,,,,,,,,,,,,,,,,,,,,
6631d1814acfe3524a133869,TCR,2024-06-24_15h00.16.630,LearnStrategy,2023.2.3,Win32,119.047619,,,,,,,,,,,2,12,4,2,,,,,,,,,,,,,,,,,,,,,,,,,,,,,
6631d1814acfe3524a133869,TCR,2024-06-24_15h00.16.630,LearnStrategy,2023.2.3,Win32,119.047619,,,,,,,,,,,7,06,4,3,,,,,,,,,,,,,,,,,,,,,,,,,,,,,
6631d1814acfe3524a133869,TCR,2024-06-24_15h00.16.630,LearnStrategy,2023.2.3,Win32,119.047619,,,,,,,,,,,4,03,4,4,,,,,,,,,,,,,,,,,,,,,,,,,,,,,
6631d1814acfe3524a133869,TCR,2024-06-24_15h00.16.630,LearnStrategy,2023.2.3,Win32,119.047619,,,,,,,,,,,2,06,4,5,,,,,,,,,,,,,,,,,,,,,,,,,,,,,
6631d1814acfe3524a133869,TCR,2024-06-24_15h00.16.630,LearnStrategy,2023.2.3,Win32,119.047619,,,,,,,,,,,6,16,4,6,,,,,,,,,,,,,,,,,,,,,,,,,,,,,
6631d1814acfe3524a133869,TCR,2024-06-24_15h00.16.630,LearnStrategy,2023.2.3,Win32,119.047619,,,,,,,,,,,7,16,4,7,,,,,,,,,,,,,,,,,,,,,,,,,,,,,
6631d1814acfe3524a133869,TCR,2024-06-24_15h00.16.630,LearnStrategy,2023.2.3,Win32,119.047619,,,,,,,,,,,6,13,4,8,,,,,,,,,,,,,,,,,,,,,,,,,,,,,
6631d1814acfe3524a133869,TCR,2024-06-24_15h00.16.630,LearnStrategy,2023.2.3,Win32,119.047619,,,,,,,,,,,6,08,5,1,,,,,,,,,,,,,,,,,,,,,,,,,,,,,
6631d1814acfe3524a133869,TCR,2024-06-24_15h00.16.630,LearnStrategy,2023.2.3,Win32,119.047619,,,,,,,,,,,3,06,5,2,,,,,,,,,,,,,,,,,,,,,,,,,,,,,
6631d1814acfe3524a133869,TCR,2024-06-24_15h00.16.630,LearnStrategy,2023.2.3,Win32,119.047619,,,,,,,,,,,2,14,5,3,,,,,,,,,,,,,,,,,,,,,,,,,,,,,
6631d1814acfe3524a133869,TCR,2024-06-24_15h00.16.630,LearnStrategy,2023.2.3,Win32,119.047619,,,,,,,,,,,1,11,5,4,,,,,,,,,,,,,,,,,,,,,,,,,,,,,
6631d1814acfe3524a133869,TCR,2024-06-24_15h00.16.630,LearnStrategy,2023.2.3,Win32,119.047619,,,,,,,,,,,1,04,5,5,,,,,,,,,,,,,,,,,,,,,,,,,,,,,
6631d1814acfe3524a133869,TCR,2024-06-24_15h00.16.630,LearnStrategy,2023.2.3,Win32,119.047619,,,,,,,,,,,5,04,5,6,,,,,,,,,,,,,,,,,,,,,,,,,,,,,
6631d1814acfe3524a133869,TCR,2024-06-24_15h00.16.630,LearnStrategy,2023.2.3,Win32,119.047619,,,,,,,,,,,6,05,5,7,,,,,,,,,,,,,,,,,,,,,,,,,,,,,
6631d1814acfe3524a133869,TCR,2024-06-24_15h00.16.630,LearnStrategy,2023.2.3,Win32,119.047619,,,,,,,,,,,4,11,5,8,,,,,,,,,,,,,,,,,,,,,,,,,,,,,
6631d1814acfe3524a133869,TCR,2024-06-24_15h00.16.630,LearnStrategy,2023.2.3,Win32,119.047619,,,,,,,,,,,1,07,6,1,,,,,,,,,,,,,,,,,,,,,,,,,,,,,
6631d1814acfe3524a133869,TCR,2024-06-24_15h00.16.630,LearnStrategy,2023.2.3,Win32,119.047619,,,,,,,,,,,7,10,6,2,,,,,,,,,,,,,,,,,,,,,,,,,,,,,
6631d1814acfe3524a133869,TCR,2024-06-24_15h00.16.630,LearnStrategy,2023.2.3,Win32,119.047619,,,,,,,,,,,8,15,6,3,,,,,,,,,,,,,,,,,,,,,,,,,,,,,
6631d1814acfe3524a133869,TCR,2024-06-24_15h00.16.630,LearnStrategy,2023.2.3,Win32,119.047619,,,,,,,,,,,4,14,6,4,,,,,,,,,,,,,,,,,,,,,,,,,,,,,
6631d1814acfe3524a133869,TCR,2024-06-24_15h00.16.630,LearnStrategy,2023.2.3,Win32,119.047619,,,,,,,,,,,8,03,6,5,,,,,,,,,,,,,,,,,,,,,,,,,,,,,
6631d1814acfe3524a133869,TCR,2024-06-24_15h00.16.630,LearnStrategy,2023.2.3,Win32,119.047619,,,,,,,,,,,2,05,6,6,,,,,,,,,,,,,,,,,,,,,,,,,,,,,
6631d1814acfe3524a133869,TCR,2024-06-24_15h00.16.630,LearnStrategy,2023.2.3,Win32,119.047619,,,,,,,,,,,4,05,6,7,,,,,,,,,,,,,,,,,,,,,,,,,,,,,
6631d1814acfe3524a133869,TCR,2024-06-24_15h00.16.630,LearnStrategy,2023.2.3,Win32,119.047619,,,,,,,,,,,8,08,6,8,,,,,,,,,,,,,,,,,,,,,,,,,,,,,