participant,condition,date,expName,psychopyVersion,OS,frameRate,block,phase,trial,learn_mouse.x,learn_mouse.y,learn_mouse.leftButton,learn_mouse.midButton,learn_mouse.rightButton,learn_mouse.time,learn_mouse.clicked_name,cat,token,row,col,t_select,cat_mouse_l.x,cat_mouse_l.y,cat_mouse_l.leftButton,cat_mouse_l.midButton,cat_mouse_l.rightButton,cat_mouse_l.time,cat_mouse_l.clicked_name,resp,t_resp,corr,train_trials.thisRepN,train_trials.thisTrialN,train_trials.thisN,train_trials.thisIndex,train_trials.ran,cat_mouse_t.x,cat_mouse_t.y,cat_mouse_t.leftButton,cat_mouse_t.midButton,cat_mouse_t.rightButton,cat_mouse_t.time,cat_mouse_t.clicked_name,test_trials.thisRepN,test_trials.thisTrialN,test_trials.thisN,test_trials.thisIndex,test_trials.ran,Bonus
6633ee8ca35ae4b909110ee3,SCN,2024-06-25_10h40.11.518,LearnStrategy,2023.2.3,Win32,59.95203837,,,,,,,,,,,,,,,,,,,,,,,,,,,,,,,,,,,,,,,,,,,
6633ee8ca35ae4b909110ee3,SCN,2024-06-25_10h40.11.518,LearnStrategy,2023.2.3,Win32,59.95203837,1,1,1,-0.395625,-0.1075,1,0,0,9.267,Pegmatite_10,6,10,3,2,9.267,-0.391875,-0.255625,1,0,0,9.478,Andesite_rect,1,9.478,0,0,0,0,0,1,,,,,,,,,,,,,
6633ee8ca35ae4b909110ee3,SCN,2024-06-25_10h40.11.518,LearnStrategy,2023.2.3,Win32,59.95203837,1,1,2,-0.073125,0.40625,1,0,0,10.832,Obsidian_02,5,02,6,4,10.832,-0.390625,-0.381875,1,0,0,3.806,Obsidian_rect,5,3.806,1,1,0,1,0,1,,,,,,,,,,,,,
6633ee8ca35ae4b909110ee3,SCN,2024-06-25_10h40.11.518,LearnStrategy,2023.2.3,Win32,59.95203837,1,1,3,0.404375,-0.265,1,0,0,3.051,Pumice_10,8,10,2,7,3.051,0.375625,-0.3925,1,0,0,2,Pumice_rect,8,2,1,2,0,2,0,1,,,,,,,,,,,,,
6633ee8ca35ae4b909110ee3,SCN,2024-06-25_10h40.11.518,LearnStrategy,2023.2.3,Win32,59.95203837,1,1,4,0.3925,-0.418125,1,0,0,3.4,Pegmatite_11,6,11,1,7,3.4,-0.3725,-0.250625,1,0,0,8.177,Andesite_rect,1,8.177,0,3,0,3,0,1,,,,,,,,,,,,,
6633ee8ca35ae4b909110ee3,SCN,2024-06-25_10h40.11.518,LearnStrategy,2023.2.3,Win32,59.95203837,1,1,5,0.10125,0.246875,1,0,0,2.416,Pegmatite_06,6,06,5,5,2.416,0.120625,-0.265,1,0,0,6.861,Diorite_rect,3,6.861,0,4,0,4,0,1,,,,,,,,,,,,,
6633ee8ca35ae4b909110ee3,SCN,2024-06-25_10h40.11.518,LearnStrategy,2023.2.3,Win32,59.95203837,1,1,6,-0.386875,0.099375,1,0,0,4.651,Basalt_12,2,12,4,2,4.651,0.3725,-0.401875,1,0,0,8.225,Pumice_rect,8,8.225,0,5,0,5,0,1,,,,,,,,,,,,,
6633ee8ca35ae4b909110ee3,SCN,2024-06-25_10h40.11.518,LearnStrategy,2023.2.3,Win32,59.95203837,1,1,7,-0.08875,-0.103125,1,0,0,1.85,Pegmatite_12,6,12,3,4,1.85,0.128125,-0.259375,1,0,0,4.597,Diorite_rect,3,4.597,0,6,0,6,0,1,,,,,,,,,,,,,
6633ee8ca35ae4b909110ee3,SCN,2024-06-25_10h40.11.518,LearnStrategy,2023.2.3,Win32,59.95203837,1,1,8,0.06125,-0.255,1,0,0,2.183,Andesite_03,1,03,2,5,2.183,-0.138125,-0.248125,1,0,0,3.694,Basalt_rect,2,3.694,0,7,0,7,0,1,,,,,,,,,,,,,
6633ee8ca35ae4b909110ee3,SCN,2024-06-25_10h40.11.518,LearnStrategy,2023.2.3,Win32,59.95203837,1,1,9,-0.3975,-0.409375,1,0,0,2.184,Obsidian_11,5,11,1,2,2.184,-0.396875,-0.385625,1,0,0,3.076,Obsidian_rect,5,3.076,1,8,0,8,0,1,,,,,,,,,,,,,
6633ee8ca35ae4b909110ee3,SCN,2024-06-25_10h40.11.518,LearnStrategy,2023.2.3,Win32,59.95203837,1,1,10,0.388125,0.095,1,0,0,5.25,Diorite_16,3,16,4,7,5.25,0.118125,-0.228125,1,0,0,3.222,Diorite_rect,3,3.222,1,9,0,9,0,1,,,,,,,,,,,,,
6633ee8ca35ae4b909110ee3,SCN,2024-06-25_10h40.11.518,LearnStrategy,2023.2.3,Win32,59.95203837,1,1,11,0.54625,-0.24875,1,0,0,3.567,Peridotite_10,7,10,2,8,3.567,0.11125,-0.239375,1,0,0,6.477,Diorite_rect,3,6.477,0,10,0,10,0,1,,,,,,,,,,,,,
6633ee8ca35ae4b909110ee3,SCN,2024-06-25_10h40.11.518,LearnStrategy,2023.2.3,Win32,59.95203837,1,1,12,-0.39875,0.401875,1,0,0,5.652,Peridotite_12,7,12,6,2,5.652,0.11875,-0.39125,1,0,0,2.467,Peridotite_rect,7,2.467,1,11,0,11,0,1,,,,,,,,,,,,,
6633ee8ca35ae4b909110ee3,SCN,2024-06-25_10h40.11.518,LearnStrategy,2023.2.3,Win32,59.95203837,1,1,13,-0.22875,-0.40375,1,0,0,4.025,Diorite_14,3,14,1,3,4.025,0.155,-0.40125,1,0,0,2.497,Peridotite_rect,7,2.497,0,12,0,12,0,1,,,,,,,,,,,,,
6633ee8ca35ae4b909110ee3,SCN,2024-06-25_10h40.11.518,LearnStrategy,2023.2.3,Win32,59.95203837,1,1,14,-0.418125,-0.275,1,0,0,2.469,Peridotite_16,7,16,2,2,2.469,0.079375,-0.231875,1,0,0,4.05,Diorite_rect,3,4.05,0,13,0,13,0,1,,,,,,,,,,,,,
6633ee8ca35ae4b909110ee3,SCN,2024-06-25_10h40.11.518,LearnStrategy,2023.2.3,Win32,59.95203837,1,1,15,-0.538125,-0.260625,1,0,0,2.697,Pumice_06,8,06,2,1,2.697,0.3825,-0.4,1,0,0,2.952,Pumice_rect,8,2.952,1,14,0,14,0,1,,,,,,,,,,,,,
6633ee8ca35ae4b909110ee3,SCN,2024-06-25_10h40.11.518,LearnStrategy,2023.2.3,Win32,59.95203837,1,1,16,0.063125,-0.416875,1,0,0,14.025,Pegmatite_05,6,05,1,5,14.025,-0.156875,-0.23875,1,0,0,6.434,Basalt_rect,2,6.434,0,15,0,15,0,1,,,,,,,,,,,,,
6633ee8ca35ae4b909110ee3,SCN,2024-06-25_10h40.11.518,LearnStrategy,2023.2.3,Win32,59.95203837,1,2,1,,,,,,,,3,06,,,,,,,,,,,3,10.232,1,,,,,,0.1125,-0.254375,1,0,0,10.232,Diorite_rect,0,0,0,0,1,
6633ee8ca35ae4b909110ee3,SCN,2024-06-25_10h40.11.518,LearnStrategy,2023.2.3,Win32,59.95203837,1,2,2,,,,,,,,7,06,,,,,,,,,,,6,2.437,0,,,,,,-0.176875,-0.3975,1,0,0,2.437,Pegmatite_rect,1,0,1,0,1,
6633ee8ca35ae4b909110ee3,SCN,2024-06-25_10h40.11.518,LearnStrategy,2023.2.3,Win32,59.95203837,1,2,3,,,,,,,,2,10,,,,,,,,,,,2,2.682,1,,,,,,-0.158125,-0.248125,1,0,0,2.682,Basalt_rect,2,0,2,0,1,
6633ee8ca35ae4b909110ee3,SCN,2024-06-25_10h40.11.518,LearnStrategy,2023.2.3,Win32,59.95203837,1,2,4,,,,,,,,2,02,,,,,,,,,,,2,2.408,1,,,,,,-0.146875,-0.2475,1,0,0,2.408,Basalt_rect,3,0,3,0,1,
6633ee8ca35ae4b909110ee3,SCN,2024-06-25_10h40.11.518,LearnStrategy,2023.2.3,Win32,59.95203837,1,2,5,,,,,,,,4,08,,,,,,,,,,,3,3.217,0,,,,,,0.09875,-0.255,1,0,0,3.217,Diorite_rect,4,0,4,0,1,
6633ee8ca35ae4b909110ee3,SCN,2024-06-25_10h40.11.518,LearnStrategy,2023.2.3,Win32,59.95203837,1,2,6,,,,,,,,3,12,,,,,,,,,,,3,1.881,1,,,,,,0.09875,-0.251875,1,0,0,1.881,Diorite_rect,5,0,5,0,1,
6633ee8ca35ae4b909110ee3,SCN,2024-06-25_10h40.11.518,LearnStrategy,2023.2.3,Win32,59.95203837,1,2,7,,,,,,,,4,16,,,,,,,,,,,3,1.873,0,,,,,,0.08625,-0.249375,1,0,0,1.873,Diorite_rect,6,0,6,0,1,
6633ee8ca35ae4b909110ee3,SCN,2024-06-25_10h40.11.518,LearnStrategy,2023.2.3,Win32,59.95203837,1,2,8,,,,,,,,5,09,,,,,,,,,,,5,1.623,1,,,,,,-0.36,-0.395,1,0,0,1.623,Obsidian_rect,7,0,7,0,1,
6633ee8ca35ae4b909110ee3,SCN,2024-06-25_10h40.11.518,LearnStrategy,2023.2.3,Win32,59.95203837,1,2,9,,,,,,,,1,06,,,,,,,,,,,7,4.871,0,,,,,,0.11875,-0.40375,1,0,0,4.871,Peridotite_rect,8,0,8,0,1,
6633ee8ca35ae4b909110ee3,SCN,2024-06-25_10h40.11.518,LearnStrategy,2023.2.3,Win32,59.95203837,1,2,10,,,,,,,,5,06,,,,,,,,,,,5,2.441,1,,,,,,-0.335625,-0.4025,1,0,0,2.441,Obsidian_rect,9,0,9,0,1,
6633ee8ca35ae4b909110ee3,SCN,2024-06-25_10h40.11.518,LearnStrategy,2023.2.3,Win32,59.95203837,1,2,11,,,,,,,,6,15,,,,,,,,,,,6,2.823,1,,,,,,-0.100625,-0.4025,1,0,0,2.823,Pegmatite_rect,10,0,10,0,1,
6633ee8ca35ae4b909110ee3,SCN,2024-06-25_10h40.11.518,LearnStrategy,2023.2.3,Win32,59.95203837,1,2,12,,,,,,,,8,08,,,,,,,,,,,8,2.522,1,,,,,,0.378125,-0.384375,1,0,0,2.522,Pumice_rect,11,0,11,0,1,
6633ee8ca35ae4b909110ee3,SCN,2024-06-25_10h40.11.518,LearnStrategy,2023.2.3,Win32,59.95203837,1,2,13,,,,,,,,7,13,,,,,,,,,,,7,3.204,1,,,,,,0.1525,-0.385,1,0,0,3.204,Peridotite_rect,12,0,12,0,1,
6633ee8ca35ae4b909110ee3,SCN,2024-06-25_10h40.11.518,LearnStrategy,2023.2.3,Win32,59.95203837,1,2,14,,,,,,,,6,03,,,,,,,,,,,6,1.915,1,,,,,,-0.081875,-0.391875,1,0,0,1.915,Pegmatite_rect,13,0,13,0,1,
6633ee8ca35ae4b909110ee3,SCN,2024-06-25_10h40.11.518,LearnStrategy,2023.2.3,Win32,59.95203837,1,2,15,,,,,,,,8,04,,,,,,,,,,,8,1.634,1,,,,,,0.4175,-0.395,1,0,0,1.634,Pumice_rect,14,0,14,0,1,
6633ee8ca35ae4b909110ee3,SCN,2024-06-25_10h40.11.518,LearnStrategy,2023.2.3,Win32,59.95203837,1,2,16,,,,,,,,1,11,,,,,,,,,,,4,3.357,0,,,,,,0.36375,-0.25375,1,0,0,3.357,Gabbro_rect,15,0,15,0,1,
6633ee8ca35ae4b909110ee3,SCN,2024-06-25_10h40.11.518,LearnStrategy,2023.2.3,Win32,59.95203837,2,1,1,-0.40625,-0.105,1,0,0,4.148,Pegmatite_10,6,10,3,2,4.148,-0.095625,-0.389375,1,0,0,3.047,Pegmatite_rect,6,3.047,1,0,0,0,0,1,,,,,,,,,,,,,
6633ee8ca35ae4b909110ee3,SCN,2024-06-25_10h40.11.518,LearnStrategy,2023.2.3,Win32,59.95203837,2,1,2,-0.244375,-0.10375,1,0,0,2.678,Diorite_13,3,13,3,3,2.678,0.124375,-0.230625,1,0,0,2.572,Diorite_rect,3,2.572,1,1,0,1,0,1,,,,,,,,,,,,,
6633ee8ca35ae4b909110ee3,SCN,2024-06-25_10h40.11.518,LearnStrategy,2023.2.3,Win32,59.95203837,2,1,3,-0.060625,-0.103125,1,0,0,1.781,Pegmatite_12,6,12,3,4,1.781,-0.144375,-0.391875,1,0,0,2.214,Pegmatite_rect,6,2.214,1,2,0,2,0,1,,,,,,,,,,,,,
6633ee8ca35ae4b909110ee3,SCN,2024-06-25_10h40.11.518,LearnStrategy,2023.2.3,Win32,59.95203837,2,1,4,0.230625,-0.25375,1,0,0,4.314,Pegmatite_07,6,07,2,6,4.314,-0.15125,-0.40625,1,0,0,1.809,Pegmatite_rect,6,1.809,1,3,0,3,0,1,,,,,,,,,,,,,
6633ee8ca35ae4b909110ee3,SCN,2024-06-25_10h40.11.518,LearnStrategy,2023.2.3,Win32,59.95203837,2,1,5,-0.058125,0.09,1,0,0,3.166,Andesite_02,1,02,4,4,3.166,0.129375,-0.24125,1,0,0,2.251,Diorite_rect,3,2.251,0,4,0,4,0,1,,,,,,,,,,,,,
6633ee8ca35ae4b909110ee3,SCN,2024-06-25_10h40.11.518,LearnStrategy,2023.2.3,Win32,59.95203837,2,1,6,-0.24125,0.091875,1,0,0,3.113,Diorite_15,3,15,4,3,3.113,-0.414375,-0.236875,1,0,0,2.717,Andesite_rect,1,2.717,0,5,0,5,0,1,,,,,,,,,,,,,
6633ee8ca35ae4b909110ee3,SCN,2024-06-25_10h40.11.518,LearnStrategy,2023.2.3,Win32,59.95203837,2,1,7,-0.24375,0.418125,1,0,0,2.897,Obsidian_07,5,07,6,3,2.897,-0.37875,-0.388125,1,0,0,2.547,Obsidian_rect,5,2.547,1,6,0,6,0,1,,,,,,,,,,,,,
6633ee8ca35ae4b909110ee3,SCN,2024-06-25_10h40.11.518,LearnStrategy,2023.2.3,Win32,59.95203837,2,1,8,0.2175,-0.10125,1,0,0,2.016,Gabbro_10,4,10,3,6,2.016,0.35875,-0.24625,1,0,0,4.029,Gabbro_rect,4,4.029,1,7,0,7,0,1,,,,,,,,,,,,,
6633ee8ca35ae4b909110ee3,SCN,2024-06-25_10h40.11.518,LearnStrategy,2023.2.3,Win32,59.95203837,2,1,9,0.4475,0.100625,1,0,0,2.867,Diorite_16,3,16,4,7,2.867,0.13125,-0.378125,1,0,0,5.006,Peridotite_rect,7,5.006,0,8,0,8,0,1,,,,,,,,,,,,,
6633ee8ca35ae4b909110ee3,SCN,2024-06-25_10h40.11.518,LearnStrategy,2023.2.3,Win32,59.95203837,2,1,10,0.5475,0.24,1,0,0,3.05,Peridotite_15,7,15,5,8,3.05,0.13625,-0.39125,1,0,0,2.767,Peridotite_rect,7,2.767,1,9,0,9,0,1,,,,,,,,,,,,,
6633ee8ca35ae4b909110ee3,SCN,2024-06-25_10h40.11.518,LearnStrategy,2023.2.3,Win32,59.95203837,2,1,11,-0.575,-0.42125,1,0,0,2.885,Andesite_09,1,09,1,1,2.885,-0.154375,-0.256875,1,0,0,2.43,Basalt_rect,2,2.43,0,10,0,10,0,1,,,,,,,,,,,,,
6633ee8ca35ae4b909110ee3,SCN,2024-06-25_10h40.11.518,LearnStrategy,2023.2.3,Win32,59.95203837,2,1,12,-0.516875,-0.10875,1,0,0,3.167,Diorite_08,3,08,3,1,3.167,0.094375,-0.3875,1,0,0,2.705,Peridotite_rect,7,2.705,0,11,0,11,0,1,,,,,,,,,,,,,
6633ee8ca35ae4b909110ee3,SCN,2024-06-25_10h40.11.518,LearnStrategy,2023.2.3,Win32,59.95203837,2,1,13,-0.36375,0.266875,1,0,0,4.835,Peridotite_05,7,05,5,2,4.835,0.1475,-0.27,1,0,0,2.037,Diorite_rect,3,2.037,0,12,0,12,0,1,,,,,,,,,,,,,
6633ee8ca35ae4b909110ee3,SCN,2024-06-25_10h40.11.518,LearnStrategy,2023.2.3,Win32,59.95203837,2,1,14,0.235,-0.258125,1,0,0,3.319,Pegmatite_07,6,07,2,6,3.319,-0.099375,-0.398125,1,0,0,1.626,Pegmatite_rect,6,1.626,1,13,0,13,0,1,,,,,,,,,,,,,
6633ee8ca35ae4b909110ee3,SCN,2024-06-25_10h40.11.518,LearnStrategy,2023.2.3,Win32,59.95203837,2,1,15,0.40125,-0.276875,1,0,0,2.352,Pumice_10,8,10,2,7,2.352,0.38,-0.39625,1,0,0,1.486,Pumice_rect,8,1.486,1,14,0,14,0,1,,,,,,,,,,,,,
6633ee8ca35ae4b909110ee3,SCN,2024-06-25_10h40.11.518,LearnStrategy,2023.2.3,Win32,59.95203837,2,1,16,0.104375,-0.41375,1,0,0,2.001,Pegmatite_05,6,05,1,5,2.001,0.10125,-0.41125,1,0,0,1.638,Peridotite_rect,7,1.638,0,15,0,15,0,1,,,,,,,,,,,,,
6633ee8ca35ae4b909110ee3,SCN,2024-06-25_10h40.11.518,LearnStrategy,2023.2.3,Win32,59.95203837,2,2,1,,,,,,,,3,10,,,,,,,,,,,7,8.064,0,,,,,,0.145,-0.39375,1,0,0,8.064,Peridotite_rect,0,0,0,0,1,
6633ee8ca35ae4b909110ee3,SCN,2024-06-25_10h40.11.518,LearnStrategy,2023.2.3,Win32,59.95203837,2,2,2,,,,,,,,8,02,,,,,,,,,,,8,1.807,1,,,,,,0.355,-0.42125,1,0,0,1.807,Pumice_rect,1,0,1,0,1,
6633ee8ca35ae4b909110ee3,SCN,2024-06-25_10h40.11.518,LearnStrategy,2023.2.3,Win32,59.95203837,2,2,3,,,,,,,,1,16,,,,,,,,,,,7,3.406,0,,,,,,0.145625,-0.3925,1,0,0,3.406,Peridotite_rect,2,0,2,0,1,
6633ee8ca35ae4b909110ee3,SCN,2024-06-25_10h40.11.518,LearnStrategy,2023.2.3,Win32,59.95203837,2,2,4,,,,,,,,8,09,,,,,,,,,,,8,1.274,1,,,,,,0.369375,-0.40375,1,0,0,1.274,Pumice_rect,3,0,3,0,1,
6633ee8ca35ae4b909110ee3,SCN,2024-06-25_10h40.11.518,LearnStrategy,2023.2.3,Win32,59.95203837,2,2,5,,,,,,,,6,08,,,,,,,,,,,6,3.967,1,,,,,,-0.114375,-0.3925,1,0,0,3.967,Pegmatite_rect,4,0,4,0,1,
6633ee8ca35ae4b909110ee3,SCN,2024-06-25_10h40.11.518,LearnStrategy,2023.2.3,Win32,59.95203837,2,2,6,,,,,,,,1,07,,,,,,,,,,,1,1.72,1,,,,,,-0.385625,-0.2625,1,0,0,1.72,Andesite_rect,5,0,5,0,1,
6633ee8ca35ae4b909110ee3,SCN,2024-06-25_10h40.11.518,LearnStrategy,2023.2.3,Win32,59.95203837,2,2,7,,,,,,,,4,05,,,,,,,,,,,1,1.474,0,,,,,,-0.38875,-0.255625,1,0,0,1.474,Andesite_rect,6,0,6,0,1,
6633ee8ca35ae4b909110ee3,SCN,2024-06-25_10h40.11.518,LearnStrategy,2023.2.3,Win32,59.95203837,2,2,8,,,,,,,,6,09,,,,,,,,,,,6,2.41,1,,,,,,-0.14,-0.40125,1,0,0,2.41,Pegmatite_rect,7,0,7,0,1,
6633ee8ca35ae4b909110ee3,SCN,2024-06-25_10h40.11.518,LearnStrategy,2023.2.3,Win32,59.95203837,2,2,9,,,,,,,,2,14,,,,,,,,,,,8,5.381,0,,,,,,0.3575,-0.41,1,0,0,5.381,Pumice_rect,8,0,8,0,1,
6633ee8ca35ae4b909110ee3,SCN,2024-06-25_10h40.11.518,LearnStrategy,2023.2.3,Win32,59.95203837,2,2,10,,,,,,,,2,05,,,,,,,,,,,2,4.202,1,,,,,,-0.1025,-0.255625,1,0,0,4.202,Basalt_rect,9,0,9,0,1,
6633ee8ca35ae4b909110ee3,SCN,2024-06-25_10h40.11.518,LearnStrategy,2023.2.3,Win32,59.95203837,2,2,11,,,,,,,,4,11,,,,,,,,,,,7,3.389,0,,,,,,0.123125,-0.408125,1,0,0,3.389,Peridotite_rect,10,0,10,0,1,
6633ee8ca35ae4b909110ee3,SCN,2024-06-25_10h40.11.518,LearnStrategy,2023.2.3,Win32,59.95203837,2,2,12,,,,,,,,3,11,,,,,,,,,,,7,1.102,0,,,,,,0.123125,-0.4025,1,0,0,1.102,Peridotite_rect,11,0,11,0,1,
6633ee8ca35ae4b909110ee3,SCN,2024-06-25_10h40.11.518,LearnStrategy,2023.2.3,Win32,59.95203837,2,2,13,,,,,,,,7,08,,,,,,,,,,,7,1.874,1,,,,,,0.123125,-0.4025,1,0,0,1.874,Peridotite_rect,12,0,12,0,1,
6633ee8ca35ae4b909110ee3,SCN,2024-06-25_10h40.11.518,LearnStrategy,2023.2.3,Win32,59.95203837,2,2,14,,,,,,,,5,10,,,,,,,,,,,5,2.615,1,,,,,,-0.37375,-0.4,1,0,0,2.615,Obsidian_rect,13,0,13,0,1,
6633ee8ca35ae4b909110ee3,SCN,2024-06-25_10h40.11.518,LearnStrategy,2023.2.3,Win32,59.95203837,2,2,15,,,,,,,,7,07,,,,,,,,,,,7,2.734,1,,,,,,0.086875,-0.399375,1,0,0,2.734,Peridotite_rect,14,0,14,0,1,
6633ee8ca35ae4b909110ee3,SCN,2024-06-25_10h40.11.518,LearnStrategy,2023.2.3,Win32,59.95203837,2,2,16,,,,,,,,5,05,,,,,,,,,,,5,2.456,1,,,,,,-0.376875,-0.404375,1,0,0,2.456,Obsidian_rect,15,0,15,0,1,
6633ee8ca35ae4b909110ee3,SCN,2024-06-25_10h40.11.518,LearnStrategy,2023.2.3,Win32,59.95203837,3,1,1,0.558125,0.3975,1,0,0,5.85,Andesite_01,1,01,6,8,5.85,0.16,-0.39625,1,0,0,2.196,Peridotite_rect,7,2.196,0,0,0,0,0,1,,,,,,,,,,,,,
6633ee8ca35ae4b909110ee3,SCN,2024-06-25_10h40.11.518,LearnStrategy,2023.2.3,Win32,59.95203837,3,1,2,0.37875,0.38875,1,0,0,1.364,Pumice_16,8,16,6,7,1.364,0.37625,-0.413125,1,0,0,1.944,Pumice_rect,8,1.944,1,1,0,1,0,1,,,,,,,,,,,,,
6633ee8ca35ae4b909110ee3,SCN,2024-06-25_10h40.11.518,LearnStrategy,2023.2.3,Win32,59.95203837,3,1,3,0.234375,0.408125,1,0,0,1.485,Andesite_05,1,05,6,6,1.485,0.145,-0.40625,1,0,0,2.662,Peridotite_rect,7,2.662,0,2,0,2,0,1,,,,,,,,,,,,,
6633ee8ca35ae4b909110ee3,SCN,2024-06-25_10h40.11.518,LearnStrategy,2023.2.3,Win32,59.95203837,3,1,4,0.08875,0.38375,1,0,0,2.649,Basalt_09,2,09,6,5,2.649,-0.1225,-0.2525,1,0,0,1.803,Basalt_rect,2,1.803,1,3,0,3,0,1,,,,,,,,,,,,,
6633ee8ca35ae4b909110ee3,SCN,2024-06-25_10h40.11.518,LearnStrategy,2023.2.3,Win32,59.95203837,3,1,5,-0.0425,0.399375,1,0,0,2.484,Obsidian_02,5,02,6,4,2.484,-0.35375,-0.41125,1,0,0,2.064,Obsidian_rect,5,2.064,1,4,0,4,0,1,,,,,,,,,,,,,
6633ee8ca35ae4b909110ee3,SCN,2024-06-25_10h40.11.518,LearnStrategy,2023.2.3,Win32,59.95203837,3,1,6,-0.248125,0.38,1,0,0,1.286,Obsidian_07,5,07,6,3,1.286,-0.39625,-0.39625,1,0,0,2.135,Obsidian_rect,5,2.135,1,5,0,5,0,1,,,,,,,,,,,,,
6633ee8ca35ae4b909110ee3,SCN,2024-06-25_10h40.11.518,LearnStrategy,2023.2.3,Win32,59.95203837,3,1,7,-0.388125,0.385625,1,0,0,1.363,Peridotite_12,7,12,6,2,1.363,0.1225,-0.398125,1,0,0,2.113,Peridotite_rect,7,2.113,1,6,0,6,0,1,,,,,,,,,,,,,
6633ee8ca35ae4b909110ee3,SCN,2024-06-25_10h40.11.518,LearnStrategy,2023.2.3,Win32,59.95203837,3,1,8,-0.53,0.376875,1,0,0,1.213,Peridotite_02,7,02,6,1,1.213,0.1375,-0.413125,1,0,0,1.993,Peridotite_rect,7,1.993,1,7,0,7,0,1,,,,,,,,,,,,,
6633ee8ca35ae4b909110ee3,SCN,2024-06-25_10h40.11.518,LearnStrategy,2023.2.3,Win32,59.95203837,3,1,9,-0.5525,0.22375,1,0,0,2.167,Obsidian_08,5,08,5,1,2.167,-0.41125,-0.413125,1,0,0,2.234,Obsidian_rect,5,2.234,1,8,0,8,0,1,,,,,,,,,,,,,
6633ee8ca35ae4b909110ee3,SCN,2024-06-25_10h40.11.518,LearnStrategy,2023.2.3,Win32,59.95203837,3,1,10,-0.409375,0.2725,1,0,0,1.048,Peridotite_05,7,05,5,2,1.048,0.13375,-0.3975,1,0,0,2.185,Peridotite_rect,7,2.185,1,9,0,9,0,1,,,,,,,,,,,,,
6633ee8ca35ae4b909110ee3,SCN,2024-06-25_10h40.11.518,LearnStrategy,2023.2.3,Win32,59.95203837,3,1,11,-0.236875,0.230625,1,0,0,1.283,Pumice_03,8,03,5,3,1.283,0.376875,-0.42,1,0,0,1.495,Pumice_rect,8,1.495,1,10,0,10,0,1,,,,,,,,,,,,,
6633ee8ca35ae4b909110ee3,SCN,2024-06-25_10h40.11.518,LearnStrategy,2023.2.3,Win32,59.95203837,3,1,12,-0.068125,0.215625,1,0,0,1.266,Pumice_15,8,15,5,4,1.266,0.349375,-0.3975,1,0,0,2.066,Pumice_rect,8,2.066,1,11,0,11,0,1,,,,,,,,,,,,,
6633ee8ca35ae4b909110ee3,SCN,2024-06-25_10h40.11.518,LearnStrategy,2023.2.3,Win32,59.95203837,3,1,13,0.0875,0.240625,1,0,0,1.318,Pegmatite_06,6,06,5,5,1.318,-0.09875,-0.398125,1,0,0,2.831,Pegmatite_rect,6,2.831,1,12,0,12,0,1,,,,,,,,,,,,,
6633ee8ca35ae4b909110ee3,SCN,2024-06-25_10h40.11.518,LearnStrategy,2023.2.3,Win32,59.95203837,3,1,14,0.214375,0.236875,1,0,0,1.498,Pumice_05,8,05,5,6,1.498,0.404375,-0.4075,1,0,0,2,Pumice_rect,8,2,1,13,0,13,0,1,,,,,,,,,,,,,
6633ee8ca35ae4b909110ee3,SCN,2024-06-25_10h40.11.518,LearnStrategy,2023.2.3,Win32,59.95203837,3,1,15,0.373125,0.219375,1,0,0,1.531,Gabbro_15,4,15,5,7,1.531,0.129375,-0.231875,1,0,0,3.556,Diorite_rect,3,3.556,0,14,0,14,0,1,,,,,,,,,,,,,
6633ee8ca35ae4b909110ee3,SCN,2024-06-25_10h40.11.518,LearnStrategy,2023.2.3,Win32,59.95203837,3,1,16,0.5175,0.24125,1,0,0,1.901,Peridotite_15,7,15,5,8,1.901,0.143125,-0.399375,1,0,0,1.945,Peridotite_rect,7,1.945,1,15,0,15,0,1,,,,,,,,,,,,,
6633ee8ca35ae4b909110ee3,SCN,2024-06-25_10h40.11.518,LearnStrategy,2023.2.3,Win32,59.95203837,3,2,1,,,,,,,,3,09,,,,,,,,,,,7,3.092,0,,,,,,0.175,-0.4,1,0,0,3.092,Peridotite_rect,0,0,0,0,1,
6633ee8ca35ae4b909110ee3,SCN,2024-06-25_10h40.11.518,LearnStrategy,2023.2.3,Win32,59.95203837,3,2,2,,,,,,,,4,14,,,,,,,,,,,4,1.928,1,,,,,,0.3425,-0.260625,1,0,0,1.928,Gabbro_rect,1,0,1,0,1,
6633ee8ca35ae4b909110ee3,SCN,2024-06-25_10h40.11.518,LearnStrategy,2023.2.3,Win32,59.95203837,3,2,3,,,,,,,,3,02,,,,,,,,,,,7,1.763,0,,,,,,0.143125,-0.415625,1,0,0,1.763,Peridotite_rect,2,0,2,0,1,
6633ee8ca35ae4b909110ee3,SCN,2024-06-25_10h40.11.518,LearnStrategy,2023.2.3,Win32,59.95203837,3,2,4,,,,,,,,5,04,,,,,,,,,,,5,1.558,1,,,,,,-0.33875,-0.41875,1,0,0,1.558,Obsidian_rect,3,0,3,0,1,
6633ee8ca35ae4b909110ee3,SCN,2024-06-25_10h40.11.518,LearnStrategy,2023.2.3,Win32,59.95203837,3,2,5,,,,,,,,8,13,,,,,,,,,,,8,1.976,1,,,,,,0.34375,-0.390625,1,0,0,1.976,Pumice_rect,4,0,4,0,1,
6633ee8ca35ae4b909110ee3,SCN,2024-06-25_10h40.11.518,LearnStrategy,2023.2.3,Win32,59.95203837,3,2,6,,,,,,,,2,06,,,,,,,,,,,2,2.445,1,,,,,,-0.059375,-0.256875,1,0,0,2.445,Basalt_rect,5,0,5,0,1,
6633ee8ca35ae4b909110ee3,SCN,2024-06-25_10h40.11.518,LearnStrategy,2023.2.3,Win32,59.95203837,3,2,7,,,,,,,,1,04,,,,,,,,,,,3,3.879,0,,,,,,0.12625,-0.25,1,0,0,3.879,Diorite_rect,6,0,6,0,1,
6633ee8ca35ae4b909110ee3,SCN,2024-06-25_10h40.11.518,LearnStrategy,2023.2.3,Win32,59.95203837,3,2,8,,,,,,,,1,14,,,,,,,,,,,6,2.305,0,,,,,,-0.10125,-0.38375,1,0,0,2.305,Pegmatite_rect,7,0,7,0,1,
6633ee8ca35ae4b909110ee3,SCN,2024-06-25_10h40.11.518,LearnStrategy,2023.2.3,Win32,59.95203837,3,2,9,,,,,,,,7,04,,,,,,,,,,,6,1.589,0,,,,,,-0.106875,-0.38375,1,0,0,1.589,Pegmatite_rect,8,0,8,0,1,
6633ee8ca35ae4b909110ee3,SCN,2024-06-25_10h40.11.518,LearnStrategy,2023.2.3,Win32,59.95203837,3,2,10,,,,,,,,6,16,,,,,,,,,,,6,2.282,1,,,,,,-0.106875,-0.38375,1,0,0,2.282,Pegmatite_rect,9,0,9,0,1,
6633ee8ca35ae4b909110ee3,SCN,2024-06-25_10h40.11.518,LearnStrategy,2023.2.3,Win32,59.95203837,3,2,11,,,,,,,,8,14,,,,,,,,,,,8,2.336,1,,,,,,0.385,-0.394375,1,0,0,2.336,Pumice_rect,10,0,10,0,1,
6633ee8ca35ae4b909110ee3,SCN,2024-06-25_10h40.11.518,LearnStrategy,2023.2.3,Win32,59.95203837,3,2,12,,,,,,,,2,01,,,,,,,,,,,2,1.898,1,,,,,,-0.090625,-0.254375,1,0,0,1.898,Basalt_rect,11,0,11,0,1,
6633ee8ca35ae4b909110ee3,SCN,2024-06-25_10h40.11.518,LearnStrategy,2023.2.3,Win32,59.95203837,3,2,13,,,,,,,,5,14,,,,,,,,,,,5,1.369,1,,,,,,-0.315625,-0.388125,1,0,0,1.369,Obsidian_rect,12,0,12,0,1,
6633ee8ca35ae4b909110ee3,SCN,2024-06-25_10h40.11.518,LearnStrategy,2023.2.3,Win32,59.95203837,3,2,14,,,,,,,,4,12,,,,,,,,,,,3,3.534,0,,,,,,0.12125,-0.25625,1,0,0,3.534,Diorite_rect,13,0,13,0,1,
6633ee8ca35ae4b909110ee3,SCN,2024-06-25_10h40.11.518,LearnStrategy,2023.2.3,Win32,59.95203837,3,2,15,,,,,,,,7,14,,,,,,,,,,,3,3.427,0,,,,,,0.125625,-0.25375,1,0,0,3.427,Diorite_rect,14,0,14,0,1,
6633ee8ca35ae4b909110ee3,SCN,2024-06-25_10h40.11.518,LearnStrategy,2023.2.3,Win32,59.95203837,3,2,16,,,,,,,,6,13,,,,,,,,,,,6,1.933,1,,,,,,-0.089375,-0.385625,1,0,0,1.933,Pegmatite_rect,15,0,15,0,1,
6633ee8ca35ae4b909110ee3,SCN,2024-06-25_10h40.11.518,LearnStrategy,2023.2.3,Win32,59.95203837,4,1,1,-0.53875,0.0775,1,0,0,1.846,Basalt_08,2,08,4,1,1.846,-0.169375,-0.243125,1,0,0,2.435,Basalt_rect,2,2.435,1,0,0,0,0,1,,,,,,,,,,,,,
6633ee8ca35ae4b909110ee3,SCN,2024-06-25_10h40.11.518,LearnStrategy,2023.2.3,Win32,59.95203837,4,1,2,-0.3825,0.070625,1,0,0,1.059,Basalt_12,2,12,4,2,1.059,0.391875,-0.38,1,0,0,1.881,Pumice_rect,8,1.881,0,1,0,1,0,1,,,,,,,,,,,,,
6633ee8ca35ae4b909110ee3,SCN,2024-06-25_10h40.11.518,LearnStrategy,2023.2.3,Win32,59.95203837,4,1,3,-0.235625,0.0925,1,0,0,1.185,Diorite_15,3,15,4,3,1.185,0.17875,-0.40875,1,0,0,1.696,Peridotite_rect,7,1.696,0,2,0,2,0,1,,,,,,,,,,,,,
6633ee8ca35ae4b909110ee3,SCN,2024-06-25_10h40.11.518,LearnStrategy,2023.2.3,Win32,59.95203837,4,1,4,-0.09375,0.080625,1,0,0,1.066,Andesite_02,1,02,4,4,1.066,0.08625,-0.39,1,0,0,3.051,Peridotite_rect,7,3.051,0,3,0,3,0,1,,,,,,,,,,,,,
6633ee8ca35ae4b909110ee3,SCN,2024-06-25_10h40.11.518,LearnStrategy,2023.2.3,Win32,59.95203837,4,1,5,0.056875,0.084375,1,0,0,1.101,Gabbro_01,4,01,4,5,1.101,0.12625,-0.39875,1,0,0,3.774,Peridotite_rect,7,3.774,0,4,0,4,0,1,,,,,,,,,,,,,
6633ee8ca35ae4b909110ee3,SCN,2024-06-25_10h40.11.518,LearnStrategy,2023.2.3,Win32,59.95203837,4,1,6,0.205625,0.080625,1,0,0,1.184,Andesite_10,1,10,4,6,1.184,0.08875,-0.379375,1,0,0,6.505,Peridotite_rect,7,6.505,0,5,0,5,0,1,,,,,,,,,,,,,
6633ee8ca35ae4b909110ee3,SCN,2024-06-25_10h40.11.518,LearnStrategy,2023.2.3,Win32,59.95203837,4,1,7,0.3725,0.09375,1,0,0,1.65,Diorite_16,3,16,4,7,1.65,0.130625,-0.405625,1,0,0,4.05,Peridotite_rect,7,4.05,0,6,0,6,0,1,,,,,,,,,,,,,
6633ee8ca35ae4b909110ee3,SCN,2024-06-25_10h40.11.518,LearnStrategy,2023.2.3,Win32,59.95203837,4,1,8,0.533125,0.0975,1,0,0,1.398,Basalt_11,2,11,4,8,1.398,0.401875,-0.25375,1,0,0,3.06,Gabbro_rect,4,3.06,0,7,0,7,0,1,,,,,,,,,,,,,
6633ee8ca35ae4b909110ee3,SCN,2024-06-25_10h40.11.518,LearnStrategy,2023.2.3,Win32,59.95203837,4,1,9,-0.5625,-0.13,1,0,0,1.566,Diorite_08,3,08,3,1,1.566,0.109375,-0.403125,1,0,0,2.787,Peridotite_rect,7,2.787,0,8,0,8,0,1,,,,,,,,,,,,,
6633ee8ca35ae4b909110ee3,SCN,2024-06-25_10h40.11.518,LearnStrategy,2023.2.3,Win32,59.95203837,4,1,10,-0.38125,-0.086875,1,0,0,1.03,Pegmatite_10,6,10,3,2,1.03,-0.160625,-0.39375,1,0,0,1.101,Pegmatite_rect,6,1.101,1,9,0,9,0,1,,,,,,,,,,,,,
6633ee8ca35ae4b909110ee3,SCN,2024-06-25_10h40.11.518,LearnStrategy,2023.2.3,Win32,59.95203837,4,1,11,-0.215625,-0.09625,1,0,0,1.04,Diorite_13,3,13,3,3,1.04,0.113125,-0.39,1,0,0,2.472,Peridotite_rect,7,2.472,0,10,0,10,0,1,,,,,,,,,,,,,
6633ee8ca35ae4b909110ee3,SCN,2024-06-25_10h40.11.518,LearnStrategy,2023.2.3,Win32,59.95203837,4,1,12,-0.08,-0.09625,1,0,0,1.262,Pegmatite_12,6,12,3,4,1.262,-0.14375,-0.3925,1,0,0,3.493,Pegmatite_rect,6,3.493,1,11,0,11,0,1,,,,,,,,,,,,,
6633ee8ca35ae4b909110ee3,SCN,2024-06-25_10h40.11.518,LearnStrategy,2023.2.3,Win32,59.95203837,4,1,13,0.066875,-0.09625,1,0,0,1.229,Gabbro_03,4,03,3,5,1.229,0.12,-0.3925,1,0,0,2.371,Peridotite_rect,7,2.371,0,12,0,12,0,1,,,,,,,,,,,,,
6633ee8ca35ae4b909110ee3,SCN,2024-06-25_10h40.11.518,LearnStrategy,2023.2.3,Win32,59.95203837,4,1,14,0.23,-0.095,1,0,0,1.066,Gabbro_10,4,10,3,6,1.066,0.376875,-0.239375,1,0,0,3.889,Gabbro_rect,4,3.889,1,13,0,13,0,1,,,,,,,,,,,,,
6633ee8ca35ae4b909110ee3,SCN,2024-06-25_10h40.11.518,LearnStrategy,2023.2.3,Win32,59.95203837,4,1,15,0.38,-0.09875,1,0,0,1.197,Obsidian_12,5,12,3,7,1.197,-0.33625,-0.409375,1,0,0,1.063,Obsidian_rect,5,1.063,1,14,0,14,0,1,,,,,,,,,,,,,
6633ee8ca35ae4b909110ee3,SCN,2024-06-25_10h40.11.518,LearnStrategy,2023.2.3,Win32,59.95203837,4,1,16,0.57125,-0.106875,1,0,0,1.151,Obsidian_16,5,16,3,8,1.151,-0.366875,-0.379375,1,0,0,1.954,Obsidian_rect,5,1.954,1,15,0,15,0,1,,,,,,,,,,,,,
6633ee8ca35ae4b909110ee3,SCN,2024-06-25_10h40.11.518,LearnStrategy,2023.2.3,Win32,59.95203837,4,2,1,,,,,,,,7,06,,,,,,,,,,,6,4.042,0,,,,,,-0.11875,-0.3975,1,0,0,4.042,Pegmatite_rect,0,0,0,0,1,
6633ee8ca35ae4b909110ee3,SCN,2024-06-25_10h40.11.518,LearnStrategy,2023.2.3,Win32,59.95203837,4,2,2,,,,,,,,6,16,,,,,,,,,,,6,1.348,1,,,,,,-0.135625,-0.398125,1,0,0,1.348,Pegmatite_rect,1,0,1,0,1,
6633ee8ca35ae4b909110ee3,SCN,2024-06-25_10h40.11.518,LearnStrategy,2023.2.3,Win32,59.95203837,4,2,3,,,,,,,,5,05,,,,,,,,,,,5,1.689,1,,,,,,-0.343125,-0.410625,1,0,0,1.689,Obsidian_rect,2,0,2,0,1,
6633ee8ca35ae4b909110ee3,SCN,2024-06-25_10h40.11.518,LearnStrategy,2023.2.3,Win32,59.95203837,4,2,4,,,,,,,,1,06,,,,,,,,,,,3,2.29,0,,,,,,0.096875,-0.24125,1,0,0,2.29,Diorite_rect,3,0,3,0,1,
6633ee8ca35ae4b909110ee3,SCN,2024-06-25_10h40.11.518,LearnStrategy,2023.2.3,Win32,59.95203837,4,2,5,,,,,,,,3,10,,,,,,,,,,,3,3.482,1,,,,,,0.096875,-0.24125,1,0,0,3.482,Diorite_rect,4,0,4,0,1,
6633ee8ca35ae4b909110ee3,SCN,2024-06-25_10h40.11.518,LearnStrategy,2023.2.3,Win32,59.95203837,4,2,6,,,,,,,,2,10,,,,,,,,,,,2,2.085,1,,,,,,-0.11625,-0.258125,1,0,0,2.085,Basalt_rect,5,0,5,0,1,
6633ee8ca35ae4b909110ee3,SCN,2024-06-25_10h40.11.518,LearnStrategy,2023.2.3,Win32,59.95203837,4,2,7,,,,,,,,6,15,,,,,,,,,,,6,1.472,1,,,,,,-0.13,-0.39625,1,0,0,1.472,Pegmatite_rect,6,0,6,0,1,
6633ee8ca35ae4b909110ee3,SCN,2024-06-25_10h40.11.518,LearnStrategy,2023.2.3,Win32,59.95203837,4,2,8,,,,,,,,8,13,,,,,,,,,,,8,2.618,1,,,,,,0.368125,-0.38125,1,0,0,2.618,Pumice_rect,7,0,7,0,1,
6633ee8ca35ae4b909110ee3,SCN,2024-06-25_10h40.11.518,LearnStrategy,2023.2.3,Win32,59.95203837,4,2,9,,,,,,,,8,02,,,,,,,,,,,8,2.149,1,,,,,,0.355625,-0.38375,1,0,0,2.149,Pumice_rect,8,0,8,0,1,
6633ee8ca35ae4b909110ee3,SCN,2024-06-25_10h40.11.518,LearnStrategy,2023.2.3,Win32,59.95203837,4,2,10,,,,,,,,5,09,,,,,,,,,,,5,1.225,1,,,,,,-0.35625,-0.405625,1,0,0,1.225,Obsidian_rect,9,0,9,0,1,
6633ee8ca35ae4b909110ee3,SCN,2024-06-25_10h40.11.518,LearnStrategy,2023.2.3,Win32,59.95203837,4,2,11,,,,,,,,2,01,,,,,,,,,,,2,1.679,1,,,,,,-0.160625,-0.258125,1,0,0,1.679,Basalt_rect,10,0,10,0,1,
6633ee8ca35ae4b909110ee3,SCN,2024-06-25_10h40.11.518,LearnStrategy,2023.2.3,Win32,59.95203837,4,2,12,,,,,,,,4,14,,,,,,,,,,,3,3.617,0,,,,,,0.1225,-0.265,1,0,0,3.617,Diorite_rect,11,0,11,0,1,
6633ee8ca35ae4b909110ee3,SCN,2024-06-25_10h40.11.518,LearnStrategy,2023.2.3,Win32,59.95203837,4,2,13,,,,,,,,3,02,,,,,,,,,,,7,1.893,0,,,,,,0.11125,-0.398125,1,0,0,1.893,Peridotite_rect,12,0,12,0,1,
6633ee8ca35ae4b909110ee3,SCN,2024-06-25_10h40.11.518,LearnStrategy,2023.2.3,Win32,59.95203837,4,2,14,,,,,,,,4,05,,,,,,,,,,,4,3.58,1,,,,,,0.368125,-0.248125,1,0,0,3.58,Gabbro_rect,13,0,13,0,1,
6633ee8ca35ae4b909110ee3,SCN,2024-06-25_10h40.11.518,LearnStrategy,2023.2.3,Win32,59.95203837,4,2,15,,,,,,,,1,04,,,,,,,,,,,4,1.518,0,,,,,,0.378125,-0.245,1,0,0,1.518,Gabbro_rect,14,0,14,0,1,
6633ee8ca35ae4b909110ee3,SCN,2024-06-25_10h40.11.518,LearnStrategy,2023.2.3,Win32,59.95203837,4,2,16,,,,,,,,7,14,,,,,,,,,,,7,2.1,1,,,,,,0.135625,-0.386875,1,0,0,2.1,Peridotite_rect,15,0,15,0,1,
6633ee8ca35ae4b909110ee3,SCN,2024-06-25_10h40.11.518,LearnStrategy,2023.2.3,Win32,59.95203837,5,1,1,-0.57125,-0.266875,1,0,0,1.68,Pumice_06,8,06,2,1,1.68,0.38375,-0.411875,1,0,0,1.76,Pumice_rect,8,1.76,1,0,0,0,0,1,,,,,,,,,,,,,
6633ee8ca35ae4b909110ee3,SCN,2024-06-25_10h40.11.518,LearnStrategy,2023.2.3,Win32,59.95203837,5,1,2,-0.40875,-0.281875,1,0,0,1.167,Peridotite_16,7,16,2,2,1.167,0.131875,-0.23375,1,0,0,2.958,Diorite_rect,3,2.958,0,1,0,1,0,1,,,,,,,,,,,,,
6633ee8ca35ae4b909110ee3,SCN,2024-06-25_10h40.11.518,LearnStrategy,2023.2.3,Win32,59.95203837,5,1,3,-0.24125,-0.275,1,0,0,1.548,Diorite_07,3,07,2,3,1.548,0.11,-0.400625,1,0,0,5.157,Peridotite_rect,7,5.157,0,2,0,2,0,1,,,,,,,,,,,,,
6633ee8ca35ae4b909110ee3,SCN,2024-06-25_10h40.11.518,LearnStrategy,2023.2.3,Win32,59.95203837,5,1,4,-0.088125,-0.260625,1,0,0,1.45,Gabbro_09,4,09,2,4,1.45,0.108125,-0.23625,1,0,0,4.193,Diorite_rect,3,4.193,0,3,0,3,0,1,,,,,,,,,,,,,
6633ee8ca35ae4b909110ee3,SCN,2024-06-25_10h40.11.518,LearnStrategy,2023.2.3,Win32,59.95203837,5,1,5,0.06375,-0.25125,1,0,0,1.633,Andesite_03,1,03,2,5,1.633,0.131875,-0.39,1,0,0,3.177,Peridotite_rect,7,3.177,0,4,0,4,0,1,,,,,,,,,,,,,
6633ee8ca35ae4b909110ee3,SCN,2024-06-25_10h40.11.518,LearnStrategy,2023.2.3,Win32,59.95203837,5,1,6,0.208125,-0.2625,1,0,0,2.251,Pegmatite_07,6,07,2,6,2.251,-0.085,-0.39625,1,0,0,1.637,Pegmatite_rect,6,1.637,1,5,0,5,0,1,,,,,,,,,,,,,
6633ee8ca35ae4b909110ee3,SCN,2024-06-25_10h40.11.518,LearnStrategy,2023.2.3,Win32,59.95203837,5,1,7,0.39875,-0.243125,1,0,0,1.652,Pumice_10,8,10,2,7,1.652,0.365,-0.389375,1,0,0,2.175,Pumice_rect,8,2.175,1,6,0,6,0,1,,,,,,,,,,,,,
6633ee8ca35ae4b909110ee3,SCN,2024-06-25_10h40.11.518,LearnStrategy,2023.2.3,Win32,59.95203837,5,1,8,0.51125,-0.248125,1,0,0,1.396,Peridotite_10,7,10,2,8,1.396,0.125625,-0.4,1,0,0,3.973,Peridotite_rect,7,3.973,1,7,0,7,0,1,,,,,,,,,,,,,
6633ee8ca35ae4b909110ee3,SCN,2024-06-25_10h40.11.518,LearnStrategy,2023.2.3,Win32,59.95203837,5,1,9,0.55375,-0.40875,1,0,0,1.499,Basalt_16,2,16,1,8,1.499,0.410625,-0.2625,1,0,0,2.814,Gabbro_rect,4,2.814,0,8,0,8,0,1,,,,,,,,,,,,,
6633ee8ca35ae4b909110ee3,SCN,2024-06-25_10h40.11.518,LearnStrategy,2023.2.3,Win32,59.95203837,5,1,10,0.411875,-0.42625,1,0,0,1.25,Pegmatite_11,6,11,1,7,1.25,-0.110625,-0.4,1,0,0,1.644,Pegmatite_rect,6,1.644,1,9,0,9,0,1,,,,,,,,,,,,,
6633ee8ca35ae4b909110ee3,SCN,2024-06-25_10h40.11.518,LearnStrategy,2023.2.3,Win32,59.95203837,5,1,11,0.21625,-0.4,1,0,0,1.063,Basalt_04,2,04,1,6,1.063,-0.10375,-0.2525,1,0,0,1.701,Basalt_rect,2,1.701,1,10,0,10,0,1,,,,,,,,,,,,,
6633ee8ca35ae4b909110ee3,SCN,2024-06-25_10h40.11.518,LearnStrategy,2023.2.3,Win32,59.95203837,5,1,12,0.07875,-0.40625,1,0,0,1.029,Pegmatite_05,6,05,1,5,1.029,-0.125,-0.39625,1,0,0,1.039,Pegmatite_rect,6,1.039,1,11,0,11,0,1,,,,,,,,,,,,,
6633ee8ca35ae4b909110ee3,SCN,2024-06-25_10h40.11.518,LearnStrategy,2023.2.3,Win32,59.95203837,5,1,13,-0.07375,-0.381875,1,0,0,1.234,Gabbro_13,4,13,1,4,1.234,0.110625,-0.38875,1,0,0,3.827,Peridotite_rect,7,3.827,0,12,0,12,0,1,,,,,,,,,,,,,
6633ee8ca35ae4b909110ee3,SCN,2024-06-25_10h40.11.518,LearnStrategy,2023.2.3,Win32,59.95203837,5,1,14,-0.20875,-0.433125,1,0,0,1.367,Diorite_14,3,14,1,3,1.367,0.133125,-0.4,1,0,0,2.831,Peridotite_rect,7,2.831,0,13,0,13,0,1,,,,,,,,,,,,,
6633ee8ca35ae4b909110ee3,SCN,2024-06-25_10h40.11.518,LearnStrategy,2023.2.3,Win32,59.95203837,5,1,15,-0.355,-0.415,1,0,0,1.1,Obsidian_11,5,11,1,2,1.1,-0.38125,-0.404375,1,0,0,0.66,Obsidian_rect,5,0.66,1,14,0,14,0,1,,,,,,,,,,,,,
6633ee8ca35ae4b909110ee3,SCN,2024-06-25_10h40.11.518,LearnStrategy,2023.2.3,Win32,59.95203837,5,1,16,-0.520625,-0.42125,1,0,0,1.1,Andesite_09,1,09,1,1,1.1,0.485,-0.2375,1,0,0,7.397,Gabbro_rect,4,7.397,0,15,0,15,0,1,,,,,,,,,,,,,
6633ee8ca35ae4b909110ee3,SCN,2024-06-25_10h40.11.518,LearnStrategy,2023.2.3,Win32,59.95203837,5,2,1,,,,,,,,5,10,,,,,,,,,,,5,1.472,1,,,,,,-0.369375,-0.38875,1,0,0,1.472,Obsidian_rect,0,0,0,0,1,
6633ee8ca35ae4b909110ee3,SCN,2024-06-25_10h40.11.518,LearnStrategy,2023.2.3,Win32,59.95203837,5,2,2,,,,,,,,1,14,,,,,,,,,,,3,4.999,0,,,,,,0.1175,-0.263125,1,0,0,4.999,Diorite_rect,1,0,1,0,1,
6633ee8ca35ae4b909110ee3,SCN,2024-06-25_10h40.11.518,LearnStrategy,2023.2.3,Win32,59.95203837,5,2,3,,,,,,,,4,12,,,,,,,,,,,2,3.411,0,,,,,,-0.07875,-0.263125,1,0,0,3.411,Basalt_rect,2,0,2,0,1,
6633ee8ca35ae4b909110ee3,SCN,2024-06-25_10h40.11.518,LearnStrategy,2023.2.3,Win32,59.95203837,5,2,4,,,,,,,,3,11,,,,,,,,,,,7,2.186,0,,,,,,0.10125,-0.391875,1,0,0,2.186,Peridotite_rect,3,0,3,0,1,
6633ee8ca35ae4b909110ee3,SCN,2024-06-25_10h40.11.518,LearnStrategy,2023.2.3,Win32,59.95203837,5,2,5,,,,,,,,1,07,,,,,,,,,,,7,2.359,0,,,,,,0.0925,-0.39,1,0,0,2.359,Peridotite_rect,4,0,4,0,1,
6633ee8ca35ae4b909110ee3,SCN,2024-06-25_10h40.11.518,LearnStrategy,2023.2.3,Win32,59.95203837,5,2,6,,,,,,,,2,06,,,,,,,,,,,2,1.677,1,,,,,,-0.138125,-0.264375,1,0,0,1.677,Basalt_rect,5,0,5,0,1,
6633ee8ca35ae4b909110ee3,SCN,2024-06-25_10h40.11.518,LearnStrategy,2023.2.3,Win32,59.95203837,5,2,7,,,,,,,,6,03,,,,,,,,,,,6,1.433,1,,,,,,-0.1175,-0.383125,1,0,0,1.433,Pegmatite_rect,6,0,6,0,1,
6633ee8ca35ae4b909110ee3,SCN,2024-06-25_10h40.11.518,LearnStrategy,2023.2.3,Win32,59.95203837,5,2,8,,,,,,,,6,08,,,,,,,,,,,6,1.198,1,,,,,,-0.125625,-0.39375,1,0,0,1.198,Pegmatite_rect,7,0,7,0,1,
6633ee8ca35ae4b909110ee3,SCN,2024-06-25_10h40.11.518,LearnStrategy,2023.2.3,Win32,59.95203837,5,2,9,,,,,,,,5,04,,,,,,,,,,,5,1.194,1,,,,,,-0.3125,-0.3975,1,0,0,1.194,Obsidian_rect,8,0,8,0,1,
6633ee8ca35ae4b909110ee3,SCN,2024-06-25_10h40.11.518,LearnStrategy,2023.2.3,Win32,59.95203837,5,2,10,,,,,,,,7,13,,,,,,,,,,,7,4.018,1,,,,,,0.1375,-0.3875,1,0,0,4.018,Peridotite_rect,9,0,9,0,1,
6633ee8ca35ae4b909110ee3,SCN,2024-06-25_10h40.11.518,LearnStrategy,2023.2.3,Win32,59.95203837,5,2,11,,,,,,,,4,08,,,,,,,,,,,4,3.802,1,,,,,,0.3975,-0.25,1,0,0,3.802,Gabbro_rect,10,0,10,0,1,
6633ee8ca35ae4b909110ee3,SCN,2024-06-25_10h40.11.518,LearnStrategy,2023.2.3,Win32,59.95203837,5,2,12,,,,,,,,2,02,,,,,,,,,,,2,1.717,1,,,,,,-0.124375,-0.260625,1,0,0,1.717,Basalt_rect,11,0,11,0,1,
6633ee8ca35ae4b909110ee3,SCN,2024-06-25_10h40.11.518,LearnStrategy,2023.2.3,Win32,59.95203837,5,2,13,,,,,,,,3,09,,,,,,,,,,,7,1.975,0,,,,,,0.1275,-0.38625,1,0,0,1.975,Peridotite_rect,12,0,12,0,1,
6633ee8ca35ae4b909110ee3,SCN,2024-06-25_10h40.11.518,LearnStrategy,2023.2.3,Win32,59.95203837,5,2,14,,,,,,,,8,08,,,,,,,,,,,8,1.341,1,,,,,,0.336875,-0.3975,1,0,0,1.341,Pumice_rect,13,0,13,0,1,
6633ee8ca35ae4b909110ee3,SCN,2024-06-25_10h40.11.518,LearnStrategy,2023.2.3,Win32,59.95203837,5,2,15,,,,,,,,7,07,,,,,,,,,,,3,3.213,0,,,,,,0.1275,-0.248125,1,0,0,3.213,Diorite_rect,14,0,14,0,1,
6633ee8ca35ae4b909110ee3,SCN,2024-06-25_10h40.11.518,LearnStrategy,2023.2.3,Win32,59.95203837,5,2,16,,,,,,,,8,04,,,,,,,,,,,8,1.219,1,,,,,,0.3775,-0.40125,1,0,0,1.219,Pumice_rect,15,0,15,0,1,
6633ee8ca35ae4b909110ee3,SCN,2024-06-25_10h40.11.518,LearnStrategy,2023.2.3,Win32,59.95203837,6,1,1,-0.561875,0.39125,1,0,0,2.196,Peridotite_02,7,02,6,1,2.196,0.109375,-0.245,1,0,0,2.223,Diorite_rect,3,2.223,0,0,0,0,0,1,,,,,,,,,,,,,
6633ee8ca35ae4b909110ee3,SCN,2024-06-25_10h40.11.518,LearnStrategy,2023.2.3,Win32,59.95203837,6,1,2,-0.364375,0.40875,1,0,0,2.416,Peridotite_12,7,12,6,2,2.416,0.13375,-0.3875,1,0,0,2.059,Peridotite_rect,7,2.059,1,1,0,1,0,1,,,,,,,,,,,,,
6633ee8ca35ae4b909110ee3,SCN,2024-06-25_10h40.11.518,LearnStrategy,2023.2.3,Win32,59.95203837,6,1,3,-0.23,0.408125,1,0,0,1.199,Obsidian_07,5,07,6,3,1.199,-0.379375,-0.38875,1,0,0,1.23,Obsidian_rect,5,1.23,1,2,0,2,0,1,,,,,,,,,,,,,
6633ee8ca35ae4b909110ee3,SCN,2024-06-25_10h40.11.518,LearnStrategy,2023.2.3,Win32,59.95203837,6,1,4,-0.09,0.38625,1,0,0,1.134,Obsidian_02,5,02,6,4,1.134,-0.38,-0.408125,1,0,0,1.37,Obsidian_rect,5,1.37,1,3,0,3,0,1,,,,,,,,,,,,,
6633ee8ca35ae4b909110ee3,SCN,2024-06-25_10h40.11.518,LearnStrategy,2023.2.3,Win32,59.95203837,6,1,5,0.083125,0.38,1,0,0,1.333,Basalt_09,2,09,6,5,1.333,-0.111875,-0.24375,1,0,0,1.611,Basalt_rect,2,1.611,1,4,0,4,0,1,,,,,,,,,,,,,
6633ee8ca35ae4b909110ee3,SCN,2024-06-25_10h40.11.518,LearnStrategy,2023.2.3,Win32,59.95203837,6,1,6,0.220625,0.381875,1,0,0,1.249,Andesite_05,1,05,6,6,1.249,0.133125,-0.25,1,0,0,2.912,Diorite_rect,3,2.912,0,5,0,5,0,1,,,,,,,,,,,,,
6633ee8ca35ae4b909110ee3,SCN,2024-06-25_10h40.11.518,LearnStrategy,2023.2.3,Win32,59.95203837,6,1,7,0.36125,0.38625,1,0,0,1.735,Pumice_16,8,16,6,7,1.735,0.385625,-0.3925,1,0,0,1.229,Pumice_rect,8,1.229,1,6,0,6,0,1,,,,,,,,,,,,,
6633ee8ca35ae4b909110ee3,SCN,2024-06-25_10h40.11.518,LearnStrategy,2023.2.3,Win32,59.95203837,6,1,8,0.5325,0.386875,1,0,0,1.318,Andesite_01,1,01,6,8,1.318,-0.36,-0.24875,1,0,0,4.541,Andesite_rect,1,4.541,1,7,0,7,0,1,,,,,,,,,,,,,
6633ee8ca35ae4b909110ee3,SCN,2024-06-25_10h40.11.518,LearnStrategy,2023.2.3,Win32,59.95203837,6,1,9,0.544375,0.26125,1,0,0,2.746,Peridotite_15,7,15,5,8,2.746,0.17,-0.39875,1,0,0,1.766,Peridotite_rect,7,1.766,1,8,0,8,0,1,,,,,,,,,,,,,
6633ee8ca35ae4b909110ee3,SCN,2024-06-25_10h40.11.518,LearnStrategy,2023.2.3,Win32,59.95203837,6,1,10,0.4,0.235625,1,0,0,1.133,Gabbro_15,4,15,5,7,1.133,0.1375,-0.241875,1,0,0,3.998,Diorite_rect,3,3.998,0,9,0,9,0,1,,,,,,,,,,,,,
6633ee8ca35ae4b909110ee3,SCN,2024-06-25_10h40.11.518,LearnStrategy,2023.2.3,Win32,59.95203837,6,1,11,0.273125,0.2425,1,0,0,1.267,Pumice_05,8,05,5,6,1.267,0.355,-0.394375,1,0,0,1.535,Pumice_rect,8,1.535,1,10,0,10,0,1,,,,,,,,,,,,,
6633ee8ca35ae4b909110ee3,SCN,2024-06-25_10h40.11.518,LearnStrategy,2023.2.3,Win32,59.95203837,6,1,12,0.101875,0.238125,1,0,0,1.081,Pegmatite_06,6,06,5,5,1.081,-0.11,-0.405625,1,0,0,1.902,Pegmatite_rect,6,1.902,1,11,0,11,0,1,,,,,,,,,,,,,
6633ee8ca35ae4b909110ee3,SCN,2024-06-25_10h40.11.518,LearnStrategy,2023.2.3,Win32,59.95203837,6,1,13,-0.07375,0.235,1,0,0,1.38,Pumice_15,8,15,5,4,1.38,0.3575,-0.39375,1,0,0,1.716,Pumice_rect,8,1.716,1,12,0,12,0,1,,,,,,,,,,,,,
6633ee8ca35ae4b909110ee3,SCN,2024-06-25_10h40.11.518,LearnStrategy,2023.2.3,Win32,59.95203837,6,1,14,-0.23875,0.260625,1,0,0,1.183,Pumice_03,8,03,5,3,1.183,0.383125,-0.395625,1,0,0,1.443,Pumice_rect,8,1.443,1,13,0,13,0,1,,,,,,,,,,,,,
6633ee8ca35ae4b909110ee3,SCN,2024-06-25_10h40.11.518,LearnStrategy,2023.2.3,Win32,59.95203837,6,1,15,-0.424375,0.235625,1,0,0,1.299,Peridotite_05,7,05,5,2,1.299,0.12,-0.38875,1,0,0,2.273,Peridotite_rect,7,2.273,1,14,0,14,0,1,,,,,,,,,,,,,
6633ee8ca35ae4b909110ee3,SCN,2024-06-25_10h40.11.518,LearnStrategy,2023.2.3,Win32,59.95203837,6,1,16,-0.531875,0.235625,1,0,0,1.45,Obsidian_08,5,08,5,1,1.45,-0.3675,-0.38875,1,0,0,1.053,Obsidian_rect,5,1.053,1,15,0,15,0,1,,,,,,,,,,,,,
6633ee8ca35ae4b909110ee3,SCN,2024-06-25_10h40.11.518,LearnStrategy,2023.2.3,Win32,59.95203837,6,2,1,,,,,,,,2,14,,,,,,,,,,,3,8.5,0,,,,,,0.143125,-0.256875,1,0,0,8.5,Diorite_rect,0,0,0,0,1,
6633ee8ca35ae4b909110ee3,SCN,2024-06-25_10h40.11.518,LearnStrategy,2023.2.3,Win32,59.95203837,6,2,2,,,,,,,,2,05,,,,,,,,,,,2,2.242,1,,,,,,-0.11375,-0.255,1,0,0,2.242,Basalt_rect,1,0,1,0,1,
6633ee8ca35ae4b909110ee3,SCN,2024-06-25_10h40.11.518,LearnStrategy,2023.2.3,Win32,59.95203837,6,2,3,,,,,,,,3,06,,,,,,,,,,,4,4.898,0,,,,,,0.349375,-0.253125,1,0,0,4.898,Gabbro_rect,2,0,2,0,1,
6633ee8ca35ae4b909110ee3,SCN,2024-06-25_10h40.11.518,LearnStrategy,2023.2.3,Win32,59.95203837,6,2,4,,,,,,,,4,16,,,,,,,,,,,4,2.002,1,,,,,,0.40125,-0.248125,1,0,0,2.002,Gabbro_rect,3,0,3,0,1,
6633ee8ca35ae4b909110ee3,SCN,2024-06-25_10h40.11.518,LearnStrategy,2023.2.3,Win32,59.95203837,6,2,5,,,,,,,,3,12,,,,,,,,,,,7,1.868,0,,,,,,0.1575,-0.3925,1,0,0,1.868,Peridotite_rect,4,0,4,0,1,
6633ee8ca35ae4b909110ee3,SCN,2024-06-25_10h40.11.518,LearnStrategy,2023.2.3,Win32,59.95203837,6,2,6,,,,,,,,6,13,,,,,,,,,,,6,1.467,1,,,,,,-0.085625,-0.401875,1,0,0,1.467,Pegmatite_rect,5,0,5,0,1,
6633ee8ca35ae4b909110ee3,SCN,2024-06-25_10h40.11.518,LearnStrategy,2023.2.3,Win32,59.95203837,6,2,7,,,,,,,,6,09,,,,,,,,,,,6,1.109,1,,,,,,-0.145625,-0.403125,1,0,0,1.109,Pegmatite_rect,6,0,6,0,1,
6633ee8ca35ae4b909110ee3,SCN,2024-06-25_10h40.11.518,LearnStrategy,2023.2.3,Win32,59.95203837,6,2,8,,,,,,,,4,11,,,,,,,,,,,4,3.964,1,,,,,,0.390625,-0.24875,1,0,0,3.964,Gabbro_rect,7,0,7,0,1,
6633ee8ca35ae4b909110ee3,SCN,2024-06-25_10h40.11.518,LearnStrategy,2023.2.3,Win32,59.95203837,6,2,9,,,,,,,,1,16,,,,,,,,,,,7,1.736,0,,,,,,0.14625,-0.39625,1,0,0,1.736,Peridotite_rect,8,0,8,0,1,
6633ee8ca35ae4b909110ee3,SCN,2024-06-25_10h40.11.518,LearnStrategy,2023.2.3,Win32,59.95203837,6,2,10,,,,,,,,7,04,,,,,,,,,,,7,2.782,1,,,,,,0.144375,-0.39625,1,0,0,2.782,Peridotite_rect,9,0,9,0,1,
6633ee8ca35ae4b909110ee3,SCN,2024-06-25_10h40.11.518,LearnStrategy,2023.2.3,Win32,59.95203837,6,2,11,,,,,,,,8,09,,,,,,,,,,,8,1.329,1,,,,,,0.354375,-0.385625,1,0,0,1.329,Pumice_rect,10,0,10,0,1,
6633ee8ca35ae4b909110ee3,SCN,2024-06-25_10h40.11.518,LearnStrategy,2023.2.3,Win32,59.95203837,6,2,12,,,,,,,,7,08,,,,,,,,,,,7,2.076,1,,,,,,0.1375,-0.3925,1,0,0,2.076,Peridotite_rect,11,0,11,0,1,
6633ee8ca35ae4b909110ee3,SCN,2024-06-25_10h40.11.518,LearnStrategy,2023.2.3,Win32,59.95203837,6,2,13,,,,,,,,1,11,,,,,,,,,,,4,2.471,0,,,,,,0.384375,-0.25125,1,0,0,2.471,Gabbro_rect,12,0,12,0,1,
6633ee8ca35ae4b909110ee3,SCN,2024-06-25_10h40.11.518,LearnStrategy,2023.2.3,Win32,59.95203837,6,2,14,,,,,,,,5,06,,,,,,,,,,,5,1.302,1,,,,,,-0.33,-0.408125,1,0,0,1.302,Obsidian_rect,13,0,13,0,1,
6633ee8ca35ae4b909110ee3,SCN,2024-06-25_10h40.11.518,LearnStrategy,2023.2.3,Win32,59.95203837,6,2,15,,,,,,,,5,14,,,,,,,,,,,5,1.019,1,,,,,,-0.366875,-0.396875,1,0,0,1.019,Obsidian_rect,14,0,14,0,1,
6633ee8ca35ae4b909110ee3,SCN,2024-06-25_10h40.11.518,LearnStrategy,2023.2.3,Win32,59.95203837,6,2,16,,,,,,,,8,14,,,,,,,,,,,8,1.305,1,,,,,,0.314375,-0.38,1,0,0,1.305,Pumice_rect,15,0,15,0,1,
6633ee8ca35ae4b909110ee3,SCN,2024-06-25_10h40.11.518,LearnStrategy,2023.2.3,Win32,59.95203837,7,1,1,-0.52125,0.076875,1,0,0,2.127,Basalt_08,2,08,4,1,2.127,-0.14,-0.243125,1,0,0,1.681,Basalt_rect,2,1.681,1,0,0,0,0,1,,,,,,,,,,,,,
6633ee8ca35ae4b909110ee3,SCN,2024-06-25_10h40.11.518,LearnStrategy,2023.2.3,Win32,59.95203837,7,1,2,-0.3675,0.09125,1,0,0,1.014,Basalt_12,2,12,4,2,1.014,0.4425,-0.401875,1,0,0,2.156,Pumice_rect,8,2.156,0,1,0,1,0,1,,,,,,,,,,,,,
6633ee8ca35ae4b909110ee3,SCN,2024-06-25_10h40.11.518,LearnStrategy,2023.2.3,Win32,59.95203837,7,1,3,-0.215,0.06875,1,0,0,0.883,Diorite_15,3,15,4,3,0.883,0.145,-0.394375,1,0,0,4.951,Peridotite_rect,7,4.951,0,2,0,2,0,1,,,,,,,,,,,,,
6633ee8ca35ae4b909110ee3,SCN,2024-06-25_10h40.11.518,LearnStrategy,2023.2.3,Win32,59.95203837,7,1,4,-0.0775,0.10875,1,0,0,0.85,Andesite_02,1,02,4,4,0.85,0.103125,-0.2425,1,0,0,3.044,Diorite_rect,3,3.044,0,3,0,3,0,1,,,,,,,,,,,,,
6633ee8ca35ae4b909110ee3,SCN,2024-06-25_10h40.11.518,LearnStrategy,2023.2.3,Win32,59.95203837,7,1,5,0.06875,0.09,1,0,0,0.917,Gabbro_01,4,01,4,5,0.917,0.11125,-0.249375,1,0,0,6.98,Diorite_rect,3,6.98,0,4,0,4,0,1,,,,,,,,,,,,,
6633ee8ca35ae4b909110ee3,SCN,2024-06-25_10h40.11.518,LearnStrategy,2023.2.3,Win32,59.95203837,7,1,6,0.24,0.09875,1,0,0,1.134,Andesite_10,1,10,4,6,1.134,0.134375,-0.23375,1,0,0,1.905,Diorite_rect,3,1.905,0,5,0,5,0,1,,,,,,,,,,,,,
6633ee8ca35ae4b909110ee3,SCN,2024-06-25_10h40.11.518,LearnStrategy,2023.2.3,Win32,59.95203837,7,1,7,0.363125,0.0925,1,0,0,1.18,Diorite_16,3,16,4,7,1.18,0.129375,-0.3875,1,0,0,3.986,Peridotite_rect,7,3.986,0,6,0,6,0,1,,,,,,,,,,,,,
6633ee8ca35ae4b909110ee3,SCN,2024-06-25_10h40.11.518,LearnStrategy,2023.2.3,Win32,59.95203837,7,1,8,0.56625,0.103125,1,0,0,1.183,Basalt_11,2,11,4,8,1.183,-0.11,-0.245,1,0,0,2.074,Basalt_rect,2,2.074,1,7,0,7,0,1,,,,,,,,,,,,,
6633ee8ca35ae4b909110ee3,SCN,2024-06-25_10h40.11.518,LearnStrategy,2023.2.3,Win32,59.95203837,7,1,9,0.5825,-0.105625,1,0,0,1.116,Obsidian_16,5,16,3,8,1.116,-0.35,-0.395,1,0,0,1.345,Obsidian_rect,5,1.345,1,8,0,8,0,1,,,,,,,,,,,,,
6633ee8ca35ae4b909110ee3,SCN,2024-06-25_10h40.11.518,LearnStrategy,2023.2.3,Win32,59.95203837,7,1,10,0.246875,-0.105625,1,0,0,1.15,Gabbro_10,4,10,3,6,1.15,0.403125,-0.2325,1,0,0,2.756,Gabbro_rect,4,2.756,1,9,0,9,0,1,,,,,,,,,,,,,
6633ee8ca35ae4b909110ee3,SCN,2024-06-25_10h40.11.518,LearnStrategy,2023.2.3,Win32,59.95203837,7,1,11,0.06,-0.101875,1,0,0,2.499,Gabbro_03,4,03,3,5,2.499,-0.130625,-0.2425,1,0,0,2.298,Basalt_rect,2,2.298,0,10,0,10,0,1,,,,,,,,,,,,,
6633ee8ca35ae4b909110ee3,SCN,2024-06-25_10h40.11.518,LearnStrategy,2023.2.3,Win32,59.95203837,7,1,12,-0.056875,-0.114375,1,0,0,1.367,Pegmatite_12,6,12,3,4,1.367,-0.135625,-0.4,1,0,0,1.684,Pegmatite_rect,6,1.684,1,11,0,11,0,1,,,,,,,,,,,,,
6633ee8ca35ae4b909110ee3,SCN,2024-06-25_10h40.11.518,LearnStrategy,2023.2.3,Win32,59.95203837,7,1,13,-0.250625,-0.103125,1,0,0,1.046,Diorite_13,3,13,3,3,1.046,0.150625,-0.38625,1,0,0,1.937,Peridotite_rect,7,1.937,0,12,0,12,0,1,,,,,,,,,,,,,
6633ee8ca35ae4b909110ee3,SCN,2024-06-25_10h40.11.518,LearnStrategy,2023.2.3,Win32,59.95203837,7,1,14,-0.38625,-0.128125,1,0,0,1.082,Pegmatite_10,6,10,3,2,1.082,-0.1425,-0.41,1,0,0,1.195,Pegmatite_rect,6,1.195,1,13,0,13,0,1,,,,,,,,,,,,,
6633ee8ca35ae4b909110ee3,SCN,2024-06-25_10h40.11.518,LearnStrategy,2023.2.3,Win32,59.95203837,7,1,15,-0.5575,-0.1275,1,0,0,1.333,Diorite_08,3,08,3,1,1.333,0.155,-0.246875,1,0,0,2.405,Diorite_rect,3,2.405,1,14,0,14,0,1,,,,,,,,,,,,,
6633ee8ca35ae4b909110ee3,SCN,2024-06-25_10h40.11.518,LearnStrategy,2023.2.3,Win32,59.95203837,7,1,16,-0.37375,-0.27,1,0,0,2.834,Peridotite_16,7,16,2,2,2.834,0.130625,-0.260625,1,0,0,4.867,Diorite_rect,3,4.867,0,15,0,15,0,1,,,,,,,,,,,,,
6633ee8ca35ae4b909110ee3,SCN,2024-06-25_10h40.11.518,LearnStrategy,2023.2.3,Win32,59.95203837,7,2,1,,,,,,,,5,10,,,,,,,,,,,5,2.381,1,,,,,,-0.40125,-0.39625,1,0,0,2.381,Obsidian_rect,0,0,0,0,1,
6633ee8ca35ae4b909110ee3,SCN,2024-06-25_10h40.11.518,LearnStrategy,2023.2.3,Win32,59.95203837,7,2,2,,,,,,,,4,11,,,,,,,,,,,2,1.876,0,,,,,,-0.141875,-0.24875,1,0,0,1.876,Basalt_rect,1,0,1,0,1,
6633ee8ca35ae4b909110ee3,SCN,2024-06-25_10h40.11.518,LearnStrategy,2023.2.3,Win32,59.95203837,7,2,3,,,,,,,,3,06,,,,,,,,,,,7,3.282,0,,,,,,0.088125,-0.39875,1,0,0,3.282,Peridotite_rect,2,0,2,0,1,
6633ee8ca35ae4b909110ee3,SCN,2024-06-25_10h40.11.518,LearnStrategy,2023.2.3,Win32,59.95203837,7,2,4,,,,,,,,5,05,,,,,,,,,,,5,1.351,1,,,,,,-0.40125,-0.414375,1,0,0,1.351,Obsidian_rect,3,0,3,0,1,
6633ee8ca35ae4b909110ee3,SCN,2024-06-25_10h40.11.518,LearnStrategy,2023.2.3,Win32,59.95203837,7,2,5,,,,,,,,1,14,,,,,,,,,,,4,4.391,0,,,,,,0.391875,-0.2375,1,0,0,4.391,Gabbro_rect,4,0,4,0,1,
6633ee8ca35ae4b909110ee3,SCN,2024-06-25_10h40.11.518,LearnStrategy,2023.2.3,Win32,59.95203837,7,2,6,,,,,,,,7,04,,,,,,,,,,,7,2.633,1,,,,,,0.143125,-0.386875,1,0,0,2.633,Peridotite_rect,5,0,5,0,1,
6633ee8ca35ae4b909110ee3,SCN,2024-06-25_10h40.11.518,LearnStrategy,2023.2.3,Win32,59.95203837,7,2,7,,,,,,,,7,06,,,,,,,,,,,7,2.35,1,,,,,,0.11375,-0.39,1,0,0,2.35,Peridotite_rect,6,0,6,0,1,
6633ee8ca35ae4b909110ee3,SCN,2024-06-25_10h40.11.518,LearnStrategy,2023.2.3,Win32,59.95203837,7,2,8,,,,,,,,6,09,,,,,,,,,,,6,1.659,1,,,,,,-0.18625,-0.4075,1,0,0,1.659,Pegmatite_rect,7,0,7,0,1,
6633ee8ca35ae4b909110ee3,SCN,2024-06-25_10h40.11.518,LearnStrategy,2023.2.3,Win32,59.95203837,7,2,9,,,,,,,,6,16,,,,,,,,,,,6,1.369,1,,,,,,-0.15,-0.385,1,0,0,1.369,Pegmatite_rect,8,0,8,0,1,
6633ee8ca35ae4b909110ee3,SCN,2024-06-25_10h40.11.518,LearnStrategy,2023.2.3,Win32,59.95203837,7,2,10,,,,,,,,2,06,,,,,,,,,,,2,1.701,1,,,,,,-0.125625,-0.256875,1,0,0,1.701,Basalt_rect,9,0,9,0,1,
6633ee8ca35ae4b909110ee3,SCN,2024-06-25_10h40.11.518,LearnStrategy,2023.2.3,Win32,59.95203837,7,2,11,,,,,,,,2,14,,,,,,,,,,,3,5.691,0,,,,,,0.16125,-0.243125,1,0,0,5.691,Diorite_rect,10,0,10,0,1,
6633ee8ca35ae4b909110ee3,SCN,2024-06-25_10h40.11.518,LearnStrategy,2023.2.3,Win32,59.95203837,7,2,12,,,,,,,,8,02,,,,,,,,,,,8,1.59,1,,,,,,0.3425,-0.3825,1,0,0,1.59,Pumice_rect,11,0,11,0,1,
6633ee8ca35ae4b909110ee3,SCN,2024-06-25_10h40.11.518,LearnStrategy,2023.2.3,Win32,59.95203837,7,2,13,,,,,,,,8,04,,,,,,,,,,,8,1.331,1,,,,,,0.390625,-0.405625,1,0,0,1.331,Pumice_rect,12,0,12,0,1,
6633ee8ca35ae4b909110ee3,SCN,2024-06-25_10h40.11.518,LearnStrategy,2023.2.3,Win32,59.95203837,7,2,14,,,,,,,,3,09,,,,,,,,,,,3,4.503,1,,,,,,0.15875,-0.25875,1,0,0,4.503,Diorite_rect,13,0,13,0,1,
6633ee8ca35ae4b909110ee3,SCN,2024-06-25_10h40.11.518,LearnStrategy,2023.2.3,Win32,59.95203837,7,2,15,,,,,,,,4,05,,,,,,,,,,,3,1.333,0,,,,,,0.12375,-0.258125,1,0,0,1.333,Diorite_rect,14,0,14,0,1,
6633ee8ca35ae4b909110ee3,SCN,2024-06-25_10h40.11.518,LearnStrategy,2023.2.3,Win32,59.95203837,7,2,16,,,,,,,,1,04,,,,,,,,,,,3,3.399,0,,,,,,0.109375,-0.246875,1,0,0,3.399,Diorite_rect,15,0,15,0,1,
6633ee8ca35ae4b909110ee3,SCN,2024-06-25_10h40.11.518,LearnStrategy,2023.2.3,Win32,59.95203837,8,1,1,-0.393125,-0.269375,1,0,0,3.311,Peridotite_16,7,16,2,2,3.311,0.13875,-0.255,1,0,0,2.872,Diorite_rect,3,2.872,0,0,0,0,0,1,,,,,,,,,,,,,
6633ee8ca35ae4b909110ee3,SCN,2024-06-25_10h40.11.518,LearnStrategy,2023.2.3,Win32,59.95203837,8,1,2,-0.240625,-0.27125,1,0,0,3.034,Diorite_07,3,07,2,3,3.034,0.094375,-0.39875,1,0,0,3.02,Peridotite_rect,7,3.02,0,1,0,1,0,1,,,,,,,,,,,,,
6633ee8ca35ae4b909110ee3,SCN,2024-06-25_10h40.11.518,LearnStrategy,2023.2.3,Win32,59.95203837,8,1,3,-0.105625,-0.27125,1,0,0,1.432,Gabbro_09,4,09,2,4,1.432,0.0925,-0.238125,1,0,0,2.07,Diorite_rect,3,2.07,0,2,0,2,0,1,,,,,,,,,,,,,
6633ee8ca35ae4b909110ee3,SCN,2024-06-25_10h40.11.518,LearnStrategy,2023.2.3,Win32,59.95203837,8,1,4,0.075,-0.2325,1,0,0,0.999,Andesite_03,1,03,2,5,0.999,0.101875,-0.238125,1,0,0,2.906,Diorite_rect,3,2.906,0,3,0,3,0,1,,,,,,,,,,,,,
6633ee8ca35ae4b909110ee3,SCN,2024-06-25_10h40.11.518,LearnStrategy,2023.2.3,Win32,59.95203837,8,1,5,0.218125,-0.263125,1,0,0,2.866,Pegmatite_07,6,07,2,6,2.866,-0.0775,-0.38125,1,0,0,1.502,Pegmatite_rect,6,1.502,1,4,0,4,0,1,,,,,,,,,,,,,
6633ee8ca35ae4b909110ee3,SCN,2024-06-25_10h40.11.518,LearnStrategy,2023.2.3,Win32,59.95203837,8,1,6,0.560625,-0.249375,1,0,0,6.535,Peridotite_10,7,10,2,8,6.535,0.16875,-0.396875,1,0,0,1.937,Peridotite_rect,7,1.937,1,5,0,5,0,1,,,,,,,,,,,,,
6633ee8ca35ae4b909110ee3,SCN,2024-06-25_10h40.11.518,LearnStrategy,2023.2.3,Win32,59.95203837,8,1,7,-0.54,-0.43,1,0,0,1.75,Andesite_09,1,09,1,1,1.75,-0.425,-0.23375,1,0,0,1.945,Andesite_rect,1,1.945,1,6,0,6,0,1,,,,,,,,,,,,,
6633ee8ca35ae4b909110ee3,SCN,2024-06-25_10h40.11.518,LearnStrategy,2023.2.3,Win32,59.95203837,8,1,8,-0.25,-0.431875,1,0,0,1.485,Diorite_14,3,14,1,3,1.485,0.1125,-0.254375,1,0,0,2.625,Diorite_rect,3,2.625,1,7,0,7,0,1,,,,,,,,,,,,,
6633ee8ca35ae4b909110ee3,SCN,2024-06-25_10h40.11.518,LearnStrategy,2023.2.3,Win32,59.95203837,8,1,9,-0.06375,-0.3925,1,0,0,1.114,Gabbro_13,4,13,1,4,1.114,0.120625,-0.254375,1,0,0,6.409,Diorite_rect,3,6.409,0,8,0,8,0,1,,,,,,,,,,,,,
6633ee8ca35ae4b909110ee3,SCN,2024-06-25_10h40.11.518,LearnStrategy,2023.2.3,Win32,59.95203837,8,1,10,0.20625,-0.408125,1,0,0,2.4,Basalt_04,2,04,1,6,2.4,-0.111875,-0.261875,1,0,0,1.181,Basalt_rect,2,1.181,1,9,0,9,0,1,,,,,,,,,,,,,
6633ee8ca35ae4b909110ee3,SCN,2024-06-25_10h40.11.518,LearnStrategy,2023.2.3,Win32,59.95203837,8,1,11,0.55,-0.408125,1,0,0,2.318,Basalt_16,2,16,1,8,2.318,0.44375,-0.249375,1,0,0,2.162,Gabbro_rect,4,2.162,0,10,0,10,0,1,,,,,,,,,,,,,
6633ee8ca35ae4b909110ee3,SCN,2024-06-25_10h40.11.518,LearnStrategy,2023.2.3,Win32,59.95203837,8,1,12,-0.525,0.37875,1,0,0,2.551,Peridotite_02,7,02,6,1,2.551,0.108125,-0.39375,1,0,0,3.008,Peridotite_rect,7,3.008,1,11,0,11,0,1,,,,,,,,,,,,,
6633ee8ca35ae4b909110ee3,SCN,2024-06-25_10h40.11.518,LearnStrategy,2023.2.3,Win32,59.95203837,8,1,13,-0.420625,0.406875,1,0,0,2.008,Peridotite_12,7,12,6,2,2.008,0.11875,-0.388125,1,0,0,2.907,Peridotite_rect,7,2.907,1,12,0,12,0,1,,,,,,,,,,,,,
6633ee8ca35ae4b909110ee3,SCN,2024-06-25_10h40.11.518,LearnStrategy,2023.2.3,Win32,59.95203837,8,1,14,0.06625,0.400625,1,0,0,2.464,Basalt_09,2,09,6,5,2.464,-0.06125,-0.25625,1,0,0,1.679,Basalt_rect,2,1.679,1,13,0,13,0,1,,,,,,,,,,,,,
6633ee8ca35ae4b909110ee3,SCN,2024-06-25_10h40.11.518,LearnStrategy,2023.2.3,Win32,59.95203837,8,1,15,0.23375,0.39875,1,0,0,1.4,Andesite_05,1,05,6,6,1.4,0.36875,-0.24625,1,0,0,2.989,Gabbro_rect,4,2.989,0,14,0,14,0,1,,,,,,,,,,,,,
6633ee8ca35ae4b909110ee3,SCN,2024-06-25_10h40.11.518,LearnStrategy,2023.2.3,Win32,59.95203837,8,1,16,0.501875,0.41625,1,0,0,2.313,Andesite_01,1,01,6,8,2.313,0.365,-0.23375,1,0,0,2.136,Gabbro_rect,4,2.136,0,15,0,15,0,1,,,,,,,,,,,,,
6633ee8ca35ae4b909110ee3,SCN,2024-06-25_10h40.11.518,LearnStrategy,2023.2.3,Win32,59.95203837,8,2,1,,,,,,,,1,06,,,,,,,,,,,1,1.414,1,,,,,,-0.3375,-0.244375,1,0,0,1.414,Andesite_rect,0,0,0,0,1,
6633ee8ca35ae4b909110ee3,SCN,2024-06-25_10h40.11.518,LearnStrategy,2023.2.3,Win32,59.95203837,8,2,2,,,,,,,,7,14,,,,,,,,,,,3,5.285,0,,,,,,0.1225,-0.23625,1,0,0,5.285,Diorite_rect,1,0,1,0,1,
6633ee8ca35ae4b909110ee3,SCN,2024-06-25_10h40.11.518,LearnStrategy,2023.2.3,Win32,59.95203837,8,2,3,,,,,,,,2,02,,,,,,,,,,,2,1.427,1,,,,,,-0.081875,-0.258125,1,0,0,1.427,Basalt_rect,2,0,2,0,1,
6633ee8ca35ae4b909110ee3,SCN,2024-06-25_10h40.11.518,LearnStrategy,2023.2.3,Win32,59.95203837,8,2,4,,,,,,,,6,03,,,,,,,,,,,6,1.33,1,,,,,,-0.10375,-0.40125,1,0,0,1.33,Pegmatite_rect,3,0,3,0,1,
6633ee8ca35ae4b909110ee3,SCN,2024-06-25_10h40.11.518,LearnStrategy,2023.2.3,Win32,59.95203837,8,2,5,,,,,,,,8,08,,,,,,,,,,,8,1.948,1,,,,,,0.3325,-0.40375,1,0,0,1.948,Pumice_rect,4,0,4,0,1,
6633ee8ca35ae4b909110ee3,SCN,2024-06-25_10h40.11.518,LearnStrategy,2023.2.3,Win32,59.95203837,8,2,6,,,,,,,,5,04,,,,,,,,,,,5,1.254,1,,,,,,-0.31,-0.391875,1,0,0,1.254,Obsidian_rect,5,0,5,0,1,
6633ee8ca35ae4b909110ee3,SCN,2024-06-25_10h40.11.518,LearnStrategy,2023.2.3,Win32,59.95203837,8,2,7,,,,,,,,3,02,,,,,,,,,,,7,4.27,0,,,,,,0.134375,-0.379375,1,0,0,4.27,Peridotite_rect,6,0,6,0,1,
6633ee8ca35ae4b909110ee3,SCN,2024-06-25_10h40.11.518,LearnStrategy,2023.2.3,Win32,59.95203837,8,2,8,,,,,,,,5,09,,,,,,,,,,,5,1.224,1,,,,,,-0.333125,-0.385625,1,0,0,1.224,Obsidian_rect,7,0,7,0,1,
6633ee8ca35ae4b909110ee3,SCN,2024-06-25_10h40.11.518,LearnStrategy,2023.2.3,Win32,59.95203837,8,2,9,,,,,,,,6,08,,,,,,,,,,,6,1.358,1,,,,,,-0.124375,-0.4025,1,0,0,1.358,Pegmatite_rect,8,0,8,0,1,
6633ee8ca35ae4b909110ee3,SCN,2024-06-25_10h40.11.518,LearnStrategy,2023.2.3,Win32,59.95203837,8,2,10,,,,,,,,1,16,,,,,,,,,,,3,4.866,0,,,,,,0.150625,-0.250625,1,0,0,4.866,Diorite_rect,9,0,9,0,1,
6633ee8ca35ae4b909110ee3,SCN,2024-06-25_10h40.11.518,LearnStrategy,2023.2.3,Win32,59.95203837,8,2,11,,,,,,,,4,16,,,,,,,,,,,2,1.85,0,,,,,,-0.071875,-0.244375,1,0,0,1.85,Basalt_rect,10,0,10,0,1,
6633ee8ca35ae4b909110ee3,SCN,2024-06-25_10h40.11.518,LearnStrategy,2023.2.3,Win32,59.95203837,8,2,12,,,,,,,,2,10,,,,,,,,,,,2,1.174,1,,,,,,-0.104375,-0.25375,1,0,0,1.174,Basalt_rect,11,0,11,0,1,
6633ee8ca35ae4b909110ee3,SCN,2024-06-25_10h40.11.518,LearnStrategy,2023.2.3,Win32,59.95203837,8,2,13,,,,,,,,3,11,,,,,,,,,,,3,5.691,1,,,,,,0.138125,-0.24375,1,0,0,5.691,Diorite_rect,12,0,12,0,1,
6633ee8ca35ae4b909110ee3,SCN,2024-06-25_10h40.11.518,LearnStrategy,2023.2.3,Win32,59.95203837,8,2,14,,,,,,,,7,13,,,,,,,,,,,7,1.898,1,,,,,,0.130625,-0.391875,1,0,0,1.898,Peridotite_rect,13,0,13,0,1,
6633ee8ca35ae4b909110ee3,SCN,2024-06-25_10h40.11.518,LearnStrategy,2023.2.3,Win32,59.95203837,8,2,15,,,,,,,,4,08,,,,,,,,,,,2,4.285,0,,,,,,-0.135,-0.23875,1,0,0,4.285,Basalt_rect,14,0,14,0,1,
6633ee8ca35ae4b909110ee3,SCN,2024-06-25_10h40.11.518,LearnStrategy,2023.2.3,Win32,59.95203837,8,2,16,,,,,,,,8,13,,,,,,,,,,,8,1.823,1,,,,,,0.39875,-0.411875,1,0,0,1.823,Pumice_rect,15,0,15,0,1,
6633ee8ca35ae4b909110ee3,SCN,2024-06-25_10h40.11.518,LearnStrategy,2023.2.3,Win32,59.95203837,9,1,1,-0.24125,0.070625,1,0,0,5.034,Diorite_15,3,15,4,3,5.034,0.143125,-0.239375,1,0,0,1.992,Diorite_rect,3,1.992,1,0,0,0,0,1,,,,,,,,,,,,,
6633ee8ca35ae4b909110ee3,SCN,2024-06-25_10h40.11.518,LearnStrategy,2023.2.3,Win32,59.95203837,9,1,2,-0.043125,0.09875,1,0,0,2.3,Andesite_02,1,02,4,4,2.3,0.11625,-0.23625,1,0,0,1.911,Diorite_rect,3,1.911,0,1,0,1,0,1,,,,,,,,,,,,,
6633ee8ca35ae4b909110ee3,SCN,2024-06-25_10h40.11.518,LearnStrategy,2023.2.3,Win32,59.95203837,9,1,3,-0.06625,0.094375,1,0,0,1.012,Andesite_02,1,02,4,4,1.012,-0.435,-0.24875,1,0,0,2.452,Andesite_rect,1,2.452,1,2,0,2,0,1,,,,,,,,,,,,,
6633ee8ca35ae4b909110ee3,SCN,2024-06-25_10h40.11.518,LearnStrategy,2023.2.3,Win32,59.95203837,9,1,4,0.078125,0.095625,1,0,0,1.102,Gabbro_01,4,01,4,5,1.102,0.15375,-0.25125,1,0,0,2.759,Diorite_rect,3,2.759,0,3,0,3,0,1,,,,,,,,,,,,,
6633ee8ca35ae4b909110ee3,SCN,2024-06-25_10h40.11.518,LearnStrategy,2023.2.3,Win32,59.95203837,9,1,5,0.06375,0.1,1,0,0,1.066,Gabbro_01,4,01,4,5,1.066,0.378125,-0.23875,1,0,0,1.498,Gabbro_rect,4,1.498,1,4,0,4,0,1,,,,,,,,,,,,,
6633ee8ca35ae4b909110ee3,SCN,2024-06-25_10h40.11.518,LearnStrategy,2023.2.3,Win32,59.95203837,9,1,6,0.248125,0.096875,1,0,0,1.649,Andesite_10,1,10,4,6,1.649,0.365625,-0.255625,1,0,0,3.397,Gabbro_rect,4,3.397,0,5,0,5,0,1,,,,,,,,,,,,,
6633ee8ca35ae4b909110ee3,SCN,2024-06-25_10h40.11.518,LearnStrategy,2023.2.3,Win32,59.95203837,9,1,7,0.245,0.094375,1,0,0,0.849,Andesite_10,1,10,4,6,0.849,-0.39875,-0.23,1,0,0,1.797,Andesite_rect,1,1.797,1,6,0,6,0,1,,,,,,,,,,,,,
6633ee8ca35ae4b909110ee3,SCN,2024-06-25_10h40.11.518,LearnStrategy,2023.2.3,Win32,59.95203837,9,1,8,0.415,0.0925,1,0,0,1.231,Diorite_16,3,16,4,7,1.231,0.125,-0.246875,1,0,0,3.681,Diorite_rect,3,3.681,1,7,0,7,0,1,,,,,,,,,,,,,
6633ee8ca35ae4b909110ee3,SCN,2024-06-25_10h40.11.518,LearnStrategy,2023.2.3,Win32,59.95203837,9,1,9,-0.514375,-0.12875,1,0,0,2.533,Diorite_08,3,08,3,1,2.533,0.0875,-0.38375,1,0,0,1.737,Peridotite_rect,7,1.737,0,8,0,8,0,1,,,,,,,,,,,,,
6633ee8ca35ae4b909110ee3,SCN,2024-06-25_10h40.11.518,LearnStrategy,2023.2.3,Win32,59.95203837,9,1,10,-0.544375,-0.11875,1,0,0,0.918,Diorite_08,3,08,3,1,0.918,0.13,-0.236875,1,0,0,0.964,Diorite_rect,3,0.964,1,9,0,9,0,1,,,,,,,,,,,,,
6633ee8ca35ae4b909110ee3,SCN,2024-06-25_10h40.11.518,LearnStrategy,2023.2.3,Win32,59.95203837,9,1,11,-0.235,-0.1225,1,0,0,1.634,Diorite_13,3,13,3,3,1.634,0.125625,-0.255,1,0,0,2.657,Diorite_rect,3,2.657,1,10,0,10,0,1,,,,,,,,,,,,,
6633ee8ca35ae4b909110ee3,SCN,2024-06-25_10h40.11.518,LearnStrategy,2023.2.3,Win32,59.95203837,9,1,12,-0.07,-0.094375,1,0,0,1.451,Pegmatite_12,6,12,3,4,1.451,0.125,-0.393125,1,0,0,2.449,Peridotite_rect,7,2.449,0,11,0,11,0,1,,,,,,,,,,,,,
6633ee8ca35ae4b909110ee3,SCN,2024-06-25_10h40.11.518,LearnStrategy,2023.2.3,Win32,59.95203837,9,1,13,-0.05625,-0.09375,1,0,0,1.182,Pegmatite_12,6,12,3,4,1.182,-0.160625,-0.390625,1,0,0,1.648,Pegmatite_rect,6,1.648,1,12,0,12,0,1,,,,,,,,,,,,,
6633ee8ca35ae4b909110ee3,SCN,2024-06-25_10h40.11.518,LearnStrategy,2023.2.3,Win32,59.95203837,9,1,14,0.105625,-0.11375,1,0,0,1.216,Gabbro_03,4,03,3,5,1.216,-0.105,-0.23,1,0,0,2.22,Basalt_rect,2,2.22,0,13,0,13,0,1,,,,,,,,,,,,,
6633ee8ca35ae4b909110ee3,SCN,2024-06-25_10h40.11.518,LearnStrategy,2023.2.3,Win32,59.95203837,9,1,15,0.074375,-0.101875,1,0,0,0.783,Gabbro_03,4,03,3,5,0.783,0.371875,-0.249375,1,0,0,2.447,Gabbro_rect,4,2.447,1,14,0,14,0,1,,,,,,,,,,,,,
6633ee8ca35ae4b909110ee3,SCN,2024-06-25_10h40.11.518,LearnStrategy,2023.2.3,Win32,59.95203837,9,1,16,0.21125,-0.11875,1,0,0,2.102,Gabbro_10,4,10,3,6,2.102,0.383125,-0.24375,1,0,0,2.547,Gabbro_rect,4,2.547,1,15,0,15,0,1,,,,,,,,,,,,,
6633ee8ca35ae4b909110ee3,SCN,2024-06-25_10h40.11.518,LearnStrategy,2023.2.3,Win32,59.95203837,9,2,1,,,,,,,,1,07,,,,,,,,,,,7,5.997,0,,,,,,0.156875,-0.391875,1,0,0,5.997,Peridotite_rect,0,0,0,0,1,
6633ee8ca35ae4b909110ee3,SCN,2024-06-25_10h40.11.518,LearnStrategy,2023.2.3,Win32,59.95203837,9,2,2,,,,,,,,2,01,,,,,,,,,,,2,1.711,1,,,,,,-0.14875,-0.25,1,0,0,1.711,Basalt_rect,1,0,1,0,1,
6633ee8ca35ae4b909110ee3,SCN,2024-06-25_10h40.11.518,LearnStrategy,2023.2.3,Win32,59.95203837,9,2,3,,,,,,,,1,11,,,,,,,,,,,1,7.609,1,,,,,,-0.3425,-0.255625,1,0,0,7.609,Andesite_rect,2,0,2,0,1,
6633ee8ca35ae4b909110ee3,SCN,2024-06-25_10h40.11.518,LearnStrategy,2023.2.3,Win32,59.95203837,9,2,4,,,,,,,,4,12,,,,,,,,,,,2,2.374,0,,,,,,-0.115625,-0.2425,1,0,0,2.374,Basalt_rect,3,0,3,0,1,
6633ee8ca35ae4b909110ee3,SCN,2024-06-25_10h40.11.518,LearnStrategy,2023.2.3,Win32,59.95203837,9,2,5,,,,,,,,2,05,,,,,,,,,,,2,1.245,1,,,,,,-0.115625,-0.2425,1,0,0,1.245,Basalt_rect,4,0,4,0,1,
6633ee8ca35ae4b909110ee3,SCN,2024-06-25_10h40.11.518,LearnStrategy,2023.2.3,Win32,59.95203837,9,2,6,,,,,,,,6,15,,,,,,,,,,,6,1.312,1,,,,,,-0.139375,-0.3975,1,0,0,1.312,Pegmatite_rect,5,0,5,0,1,
6633ee8ca35ae4b909110ee3,SCN,2024-06-25_10h40.11.518,LearnStrategy,2023.2.3,Win32,59.95203837,9,2,7,,,,,,,,8,09,,,,,,,,,,,8,1.346,1,,,,,,0.41625,-0.38,1,0,0,1.346,Pumice_rect,6,0,6,0,1,
6633ee8ca35ae4b909110ee3,SCN,2024-06-25_10h40.11.518,LearnStrategy,2023.2.3,Win32,59.95203837,9,2,8,,,,,,,,5,14,,,,,,,,,,,5,1.498,1,,,,,,-0.445,-0.39125,1,0,0,1.498,Obsidian_rect,7,0,7,0,1,
6633ee8ca35ae4b909110ee3,SCN,2024-06-25_10h40.11.518,LearnStrategy,2023.2.3,Win32,59.95203837,9,2,9,,,,,,,,3,12,,,,,,,,,,,3,3.722,1,,,,,,0.139375,-0.25375,1,0,0,3.722,Diorite_rect,8,0,8,0,1,
6633ee8ca35ae4b909110ee3,SCN,2024-06-25_10h40.11.518,LearnStrategy,2023.2.3,Win32,59.95203837,9,2,10,,,,,,,,6,13,,,,,,,,,,,6,1.408,1,,,,,,-0.093125,-0.39875,1,0,0,1.408,Pegmatite_rect,9,0,9,0,1,
6633ee8ca35ae4b909110ee3,SCN,2024-06-25_10h40.11.518,LearnStrategy,2023.2.3,Win32,59.95203837,9,2,11,,,,,,,,5,06,,,,,,,,,,,5,1.125,1,,,,,,-0.36875,-0.40125,1,0,0,1.125,Obsidian_rect,10,0,10,0,1,
6633ee8ca35ae4b909110ee3,SCN,2024-06-25_10h40.11.518,LearnStrategy,2023.2.3,Win32,59.95203837,9,2,12,,,,,,,,7,07,,,,,,,,,,,3,4.9,0,,,,,,0.114375,-0.2375,1,0,0,4.9,Diorite_rect,11,0,11,0,1,
6633ee8ca35ae4b909110ee3,SCN,2024-06-25_10h40.11.518,LearnStrategy,2023.2.3,Win32,59.95203837,9,2,13,,,,,,,,3,10,,,,,,,,,,,7,3.122,0,,,,,,0.115,-0.383125,1,0,0,3.122,Peridotite_rect,12,0,12,0,1,
6633ee8ca35ae4b909110ee3,SCN,2024-06-25_10h40.11.518,LearnStrategy,2023.2.3,Win32,59.95203837,9,2,14,,,,,,,,7,08,,,,,,,,,,,7,1.436,1,,,,,,0.115,-0.383125,1,0,0,1.436,Peridotite_rect,13,0,13,0,1,
6633ee8ca35ae4b909110ee3,SCN,2024-06-25_10h40.11.518,LearnStrategy,2023.2.3,Win32,59.95203837,9,2,15,,,,,,,,4,14,,,,,,,,,,,4,1.913,1,,,,,,0.415,-0.2575,1,0,0,1.913,Gabbro_rect,14,0,14,0,1,
6633ee8ca35ae4b909110ee3,SCN,2024-06-25_10h40.11.518,LearnStrategy,2023.2.3,Win32,59.95203837,9,2,16,,,,,,,,8,14,,,,,,,,,,,8,2.201,1,,,,,,0.36375,-0.388125,1,0,0,2.201,Pumice_rect,15,0,15,0,1,
6633ee8ca35ae4b909110ee3,SCN,2024-06-25_10h40.11.518,LearnStrategy,2023.2.3,Win32,59.95203837,,,,,,,,,,,,,,,,,,,,,,,,,,,,,,,,,,,,,,,,,,,1
6633ee8ca35ae4b909110ee3,SCN,2024-06-25_10h40.11.518,LearnStrategy,2023.2.3,Win32,59.95203837,,,,,,,,,,,,,,,,,,,,,,,,,,,,,,,,,,,,,,,,,,,
6633ee8ca35ae4b909110ee3,SCN,2024-06-25_10h40.11.518,LearnStrategy,2023.2.3,Win32,59.95203837,,,,,,,,,,,1,09,1,1,,,,,,,,,,,,,,,,,,,,,,,,,,,,,
6633ee8ca35ae4b909110ee3,SCN,2024-06-25_10h40.11.518,LearnStrategy,2023.2.3,Win32,59.95203837,,,,,,,,,,,5,11,1,2,,,,,,,,,,,,,,,,,,,,,,,,,,,,,
6633ee8ca35ae4b909110ee3,SCN,2024-06-25_10h40.11.518,LearnStrategy,2023.2.3,Win32,59.95203837,,,,,,,,,,,3,14,1,3,,,,,,,,,,,,,,,,,,,,,,,,,,,,,
6633ee8ca35ae4b909110ee3,SCN,2024-06-25_10h40.11.518,LearnStrategy,2023.2.3,Win32,59.95203837,,,,,,,,,,,4,13,1,4,,,,,,,,,,,,,,,,,,,,,,,,,,,,,
6633ee8ca35ae4b909110ee3,SCN,2024-06-25_10h40.11.518,LearnStrategy,2023.2.3,Win32,59.95203837,,,,,,,,,,,6,05,1,5,,,,,,,,,,,,,,,,,,,,,,,,,,,,,
6633ee8ca35ae4b909110ee3,SCN,2024-06-25_10h40.11.518,LearnStrategy,2023.2.3,Win32,59.95203837,,,,,,,,,,,2,04,1,6,,,,,,,,,,,,,,,,,,,,,,,,,,,,,
6633ee8ca35ae4b909110ee3,SCN,2024-06-25_10h40.11.518,LearnStrategy,2023.2.3,Win32,59.95203837,,,,,,,,,,,6,11,1,7,,,,,,,,,,,,,,,,,,,,,,,,,,,,,
6633ee8ca35ae4b909110ee3,SCN,2024-06-25_10h40.11.518,LearnStrategy,2023.2.3,Win32,59.95203837,,,,,,,,,,,2,16,1,8,,,,,,,,,,,,,,,,,,,,,,,,,,,,,
6633ee8ca35ae4b909110ee3,SCN,2024-06-25_10h40.11.518,LearnStrategy,2023.2.3,Win32,59.95203837,,,,,,,,,,,8,06,2,1,,,,,,,,,,,,,,,,,,,,,,,,,,,,,
6633ee8ca35ae4b909110ee3,SCN,2024-06-25_10h40.11.518,LearnStrategy,2023.2.3,Win32,59.95203837,,,,,,,,,,,7,16,2,2,,,,,,,,,,,,,,,,,,,,,,,,,,,,,
6633ee8ca35ae4b909110ee3,SCN,2024-06-25_10h40.11.518,LearnStrategy,2023.2.3,Win32,59.95203837,,,,,,,,,,,3,07,2,3,,,,,,,,,,,,,,,,,,,,,,,,,,,,,
6633ee8ca35ae4b909110ee3,SCN,2024-06-25_10h40.11.518,LearnStrategy,2023.2.3,Win32,59.95203837,,,,,,,,,,,4,09,2,4,,,,,,,,,,,,,,,,,,,,,,,,,,,,,
6633ee8ca35ae4b909110ee3,SCN,2024-06-25_10h40.11.518,LearnStrategy,2023.2.3,Win32,59.95203837,,,,,,,,,,,1,03,2,5,,,,,,,,,,,,,,,,,,,,,,,,,,,,,
6633ee8ca35ae4b909110ee3,SCN,2024-06-25_10h40.11.518,LearnStrategy,2023.2.3,Win32,59.95203837,,,,,,,,,,,6,07,2,6,,,,,,,,,,,,,,,,,,,,,,,,,,,,,
6633ee8ca35ae4b909110ee3,SCN,2024-06-25_10h40.11.518,LearnStrategy,2023.2.3,Win32,59.95203837,,,,,,,,,,,8,10,2,7,,,,,,,,,,,,,,,,,,,,,,,,,,,,,
6633ee8ca35ae4b909110ee3,SCN,2024-06-25_10h40.11.518,LearnStrategy,2023.2.3,Win32,59.95203837,,,,,,,,,,,7,10,2,8,,,,,,,,,,,,,,,,,,,,,,,,,,,,,
6633ee8ca35ae4b909110ee3,SCN,2024-06-25_10h40.11.518,LearnStrategy,2023.2.3,Win32,59.95203837,,,,,,,,,,,3,08,3,1,,,,,,,,,,,,,,,,,,,,,,,,,,,,,
6633ee8ca35ae4b909110ee3,SCN,2024-06-25_10h40.11.518,LearnStrategy,2023.2.3,Win32,59.95203837,,,,,,,,,,,6,10,3,2,,,,,,,,,,,,,,,,,,,,,,,,,,,,,
6633ee8ca35ae4b909110ee3,SCN,2024-06-25_10h40.11.518,LearnStrategy,2023.2.3,Win32,59.95203837,,,,,,,,,,,3,13,3,3,,,,,,,,,,,,,,,,,,,,,,,,,,,,,
6633ee8ca35ae4b909110ee3,SCN,2024-06-25_10h40.11.518,LearnStrategy,2023.2.3,Win32,59.95203837,,,,,,,,,,,6,12,3,4,,,,,,,,,,,,,,,,,,,,,,,,,,,,,
6633ee8ca35ae4b909110ee3,SCN,2024-06-25_10h40.11.518,LearnStrategy,2023.2.3,Win32,59.95203837,,,,,,,,,,,4,03,3,5,,,,,,,,,,,,,,,,,,,,,,,,,,,,,
6633ee8ca35ae4b909110ee3,SCN,2024-06-25_10h40.11.518,LearnStrategy,2023.2.3,Win32,59.95203837,,,,,,,,,,,4,10,3,6,,,,,,,,,,,,,,,,,,,,,,,,,,,,,
6633ee8ca35ae4b909110ee3,SCN,2024-06-25_10h40.11.518,LearnStrategy,2023.2.3,Win32,59.95203837,,,,,,,,,,,5,12,3,7,,,,,,,,,,,,,,,,,,,,,,,,,,,,,
6633ee8ca35ae4b909110ee3,SCN,2024-06-25_10h40.11.518,LearnStrategy,2023.2.3,Win32,59.95203837,,,,,,,,,,,5,16,3,8,,,,,,,,,,,,,,,,,,,,,,,,,,,,,
6633ee8ca35ae4b909110ee3,SCN,2024-06-25_10h40.11.518,LearnStrategy,2023.2.3,Win32,59.95203837,,,,,,,,,,,2,08,4,1,,,,,,,,,,,,,,,,,,,,,,,,,,,,,
6633ee8ca35ae4b909110ee3,SCN,2024-06-25_10h40.11.518,LearnStrategy,2023.2.3,Win32,59.95203837,,,,,,,,,,,2,12,4,2,,,,,,,,,,,,,,,,,,,,,,,,,,,,,
6633ee8ca35ae4b909110ee3,SCN,2024-06-25_10h40.11.518,LearnStrategy,2023.2.3,Win32,59.95203837,,,,,,,,,,,3,15,4,3,,,,,,,,,,,,,,,,,,,,,,,,,,,,,
6633ee8ca35ae4b909110ee3,SCN,2024-06-25_10h40.11.518,LearnStrategy,2023.2.3,Win32,59.95203837,,,,,,,,,,,1,02,4,4,,,,,,,,,,,,,,,,,,,,,,,,,,,,,
6633ee8ca35ae4b909110ee3,SCN,2024-06-25_10h40.11.518,LearnStrategy,2023.2.3,Win32,59.95203837,,,,,,,,,,,4,01,4,5,,,,,,,,,,,,,,,,,,,,,,,,,,,,,
6633ee8ca35ae4b909110ee3,SCN,2024-06-25_10h40.11.518,LearnStrategy,2023.2.3,Win32,59.95203837,,,,,,,,,,,1,10,4,6,,,,,,,,,,,,,,,,,,,,,,,,,,,,,
6633ee8ca35ae4b909110ee3,SCN,2024-06-25_10h40.11.518,LearnStrategy,2023.2.3,Win32,59.95203837,,,,,,,,,,,3,16,4,7,,,,,,,,,,,,,,,,,,,,,,,,,,,,,
6633ee8ca35ae4b909110ee3,SCN,2024-06-25_10h40.11.518,LearnStrategy,2023.2.3,Win32,59.95203837,,,,,,,,,,,2,11,4,8,,,,,,,,,,,,,,,,,,,,,,,,,,,,,
6633ee8ca35ae4b909110ee3,SCN,2024-06-25_10h40.11.518,LearnStrategy,2023.2.3,Win32,59.95203837,,,,,,,,,,,5,08,5,1,,,,,,,,,,,,,,,,,,,,,,,,,,,,,
6633ee8ca35ae4b909110ee3,SCN,2024-06-25_10h40.11.518,LearnStrategy,2023.2.3,Win32,59.95203837,,,,,,,,,,,7,05,5,2,,,,,,,,,,,,,,,,,,,,,,,,,,,,,
6633ee8ca35ae4b909110ee3,SCN,2024-06-25_10h40.11.518,LearnStrategy,2023.2.3,Win32,59.95203837,,,,,,,,,,,8,03,5,3,,,,,,,,,,,,,,,,,,,,,,,,,,,,,
6633ee8ca35ae4b909110ee3,SCN,2024-06-25_10h40.11.518,LearnStrategy,2023.2.3,Win32,59.95203837,,,,,,,,,,,8,15,5,4,,,,,,,,,,,,,,,,,,,,,,,,,,,,,
6633ee8ca35ae4b909110ee3,SCN,2024-06-25_10h40.11.518,LearnStrategy,2023.2.3,Win32,59.95203837,,,,,,,,,,,6,06,5,5,,,,,,,,,,,,,,,,,,,,,,,,,,,,,
6633ee8ca35ae4b909110ee3,SCN,2024-06-25_10h40.11.518,LearnStrategy,2023.2.3,Win32,59.95203837,,,,,,,,,,,8,05,5,6,,,,,,,,,,,,,,,,,,,,,,,,,,,,,
6633ee8ca35ae4b909110ee3,SCN,2024-06-25_10h40.11.518,LearnStrategy,2023.2.3,Win32,59.95203837,,,,,,,,,,,4,15,5,7,,,,,,,,,,,,,,,,,,,,,,,,,,,,,
6633ee8ca35ae4b909110ee3,SCN,2024-06-25_10h40.11.518,LearnStrategy,2023.2.3,Win32,59.95203837,,,,,,,,,,,7,15,5,8,,,,,,,,,,,,,,,,,,,,,,,,,,,,,
6633ee8ca35ae4b909110ee3,SCN,2024-06-25_10h40.11.518,LearnStrategy,2023.2.3,Win32,59.95203837,,,,,,,,,,,7,02,6,1,,,,,,,,,,,,,,,,,,,,,,,,,,,,,
6633ee8ca35ae4b909110ee3,SCN,2024-06-25_10h40.11.518,LearnStrategy,2023.2.3,Win32,59.95203837,,,,,,,,,,,7,12,6,2,,,,,,,,,,,,,,,,,,,,,,,,,,,,,
6633ee8ca35ae4b909110ee3,SCN,2024-06-25_10h40.11.518,LearnStrategy,2023.2.3,Win32,59.95203837,,,,,,,,,,,5,07,6,3,,,,,,,,,,,,,,,,,,,,,,,,,,,,,
6633ee8ca35ae4b909110ee3,SCN,2024-06-25_10h40.11.518,LearnStrategy,2023.2.3,Win32,59.95203837,,,,,,,,,,,5,02,6,4,,,,,,,,,,,,,,,,,,,,,,,,,,,,,
6633ee8ca35ae4b909110ee3,SCN,2024-06-25_10h40.11.518,LearnStrategy,2023.2.3,Win32,59.95203837,,,,,,,,,,,2,09,6,5,,,,,,,,,,,,,,,,,,,,,,,,,,,,,
6633ee8ca35ae4b909110ee3,SCN,2024-06-25_10h40.11.518,LearnStrategy,2023.2.3,Win32,59.95203837,,,,,,,,,,,1,05,6,6,,,,,,,,,,,,,,,,,,,,,,,,,,,,,
6633ee8ca35ae4b909110ee3,SCN,2024-06-25_10h40.11.518,LearnStrategy,2023.2.3,Win32,59.95203837,,,,,,,,,,,8,16,6,7,,,,,,,,,,,,,,,,,,,,,,,,,,,,,
6633ee8ca35ae4b909110ee3,SCN,2024-06-25_10h40.11.518,LearnStrategy,2023.2.3,Win32,59.95203837,,,,,,,,,,,1,01,6,8,,,,,,,,,,,,,,,,,,,,,,,,,,,,,