participant,condition,date,expName,psychopyVersion,OS,frameRate,block,phase,trial,learn_mouse_2.x,learn_mouse_2.y,learn_mouse_2.leftButton,learn_mouse_2.midButton,learn_mouse_2.rightButton,learn_mouse_2.time,learn_mouse_2.clicked_name,cat,token,row,col,t_select,cat_mouse_l.x,cat_mouse_l.y,cat_mouse_l.leftButton,cat_mouse_l.midButton,cat_mouse_l.rightButton,cat_mouse_l.time,cat_mouse_l.clicked_name,resp,t_resp,corr,train_trials.thisRepN,train_trials.thisTrialN,train_trials.thisN,train_trials.thisIndex,train_trials.ran,cat_mouse_t.x,cat_mouse_t.y,cat_mouse_t.leftButton,cat_mouse_t.midButton,cat_mouse_t.rightButton,cat_mouse_t.time,cat_mouse_t.clicked_name,test_trials.thisRepN,test_trials.thisTrialN,test_trials.thisN,test_trials.thisIndex,test_trials.ran,Bonus
66338fd253dbd4c5374e8a90,TCN,2024-06-11_13h10.21.391,LearnStrategy,2023.2.3,MacIntel,58.82352941,,,,,,,,,,,,,,,,,,,,,,,,,,,,,,,,,,,,,,,,,,,
66338fd253dbd4c5374e8a90,TCN,2024-06-11_13h10.21.391,LearnStrategy,2023.2.3,MacIntel,58.82352941,1,1,1,0.105434783,0.005434783,1,0,0,1.816,rock_grid_rect_2,5,14,-1,-1,1.816,-0.356521739,-0.39673913,1,0,0,5.312,Obsidian_rect,5,5.312,1,0,0,0,0,1,,,,,,,,,,,,,
66338fd253dbd4c5374e8a90,TCN,2024-06-11_13h10.21.391,LearnStrategy,2023.2.3,MacIntel,58.82352941,1,1,2,0.032608696,-0.020652174,1,0,0,1.497,rock_grid_rect_2,6,12,-1,-1,1.497,-0.089130435,-0.243478261,1,0,0,4.303,Basalt_rect,2,4.303,0,1,0,1,0,1,,,,,,,,,,,,,
66338fd253dbd4c5374e8a90,TCN,2024-06-11_13h10.21.391,LearnStrategy,2023.2.3,MacIntel,58.82352941,1,1,3,0.020652174,-0.025,1,0,0,1.663,rock_grid_rect_2,2,02,-1,-1,1.663,0.118478261,-0.411956522,1,0,0,5.073,Peridotite_rect,7,5.073,0,2,0,2,0,1,,,,,,,,,,,,,
66338fd253dbd4c5374e8a90,TCN,2024-06-11_13h10.21.391,LearnStrategy,2023.2.3,MacIntel,58.82352941,1,1,4,0.065217391,-0.002173913,1,0,0,1.129,rock_grid_rect_2,7,16,-1,-1,1.129,0.14673913,-0.404347826,1,0,0,5.555,Peridotite_rect,7,5.555,1,3,0,3,0,1,,,,,,,,,,,,,
66338fd253dbd4c5374e8a90,TCN,2024-06-11_13h10.21.391,LearnStrategy,2023.2.3,MacIntel,58.82352941,1,1,5,0.057608696,-0.014130435,1,0,0,1.096,rock_grid_rect_2,1,04,-1,-1,1.096,0.123913043,-0.247826087,1,0,0,4.075,Diorite_rect,3,4.075,0,4,0,4,0,1,,,,,,,,,,,,,
66338fd253dbd4c5374e8a90,TCN,2024-06-11_13h10.21.391,LearnStrategy,2023.2.3,MacIntel,58.82352941,1,1,6,0.068478261,-0.005434783,1,0,0,1.046,rock_grid_rect_2,4,16,-1,-1,1.046,0.383695652,-0.266304348,1,0,0,2.757,Gabbro_rect,4,2.757,1,5,0,5,0,1,,,,,,,,,,,,,
66338fd253dbd4c5374e8a90,TCN,2024-06-11_13h10.21.391,LearnStrategy,2023.2.3,MacIntel,58.82352941,1,1,7,0.005434783,0.006521739,1,0,0,1.314,rock_grid_rect_2,2,14,-1,-1,1.314,0.347826087,-0.411956522,1,0,0,2.938,Pumice_rect,8,2.938,0,6,0,6,0,1,,,,,,,,,,,,,
66338fd253dbd4c5374e8a90,TCN,2024-06-11_13h10.21.391,LearnStrategy,2023.2.3,MacIntel,58.82352941,1,1,8,0.065217391,-0.009782609,1,0,0,0.962,rock_grid_rect_2,8,14,-1,-1,0.962,0.389130435,-0.380434783,1,0,0,2.173,Pumice_rect,8,2.173,1,7,0,7,0,1,,,,,,,,,,,,,
66338fd253dbd4c5374e8a90,TCN,2024-06-11_13h10.21.391,LearnStrategy,2023.2.3,MacIntel,58.82352941,1,1,9,0.005434783,0.009782609,1,0,0,0.963,rock_grid_rect_2,8,08,-1,-1,0.963,-0.101086957,-0.270652174,1,0,0,3.572,Basalt_rect,2,3.572,0,8,0,8,0,1,,,,,,,,,,,,,
66338fd253dbd4c5374e8a90,TCN,2024-06-11_13h10.21.391,LearnStrategy,2023.2.3,MacIntel,58.82352941,1,1,10,0.004347826,-0.019565217,1,0,0,1.014,rock_grid_rect_2,3,07,-1,-1,1.014,-0.115217391,-0.419565217,1,0,0,2.152,Pegmatite_rect,6,2.152,0,9,0,9,0,1,,,,,,,,,,,,,
66338fd253dbd4c5374e8a90,TCN,2024-06-11_13h10.21.391,LearnStrategy,2023.2.3,MacIntel,58.82352941,1,1,11,0.034782609,-0.020652174,1,0,0,1.063,rock_grid_rect_2,6,03,-1,-1,1.063,-0.368478261,-0.408695652,1,0,0,4.373,Obsidian_rect,5,4.373,0,10,0,10,0,1,,,,,,,,,,,,,
66338fd253dbd4c5374e8a90,TCN,2024-06-11_13h10.21.391,LearnStrategy,2023.2.3,MacIntel,58.82352941,1,1,12,-0.02173913,-0.025,1,0,0,1.094,rock_grid_rect_2,7,04,-1,-1,1.094,0.106521739,-0.413043478,1,0,0,5.305,Peridotite_rect,7,5.305,1,11,0,11,0,1,,,,,,,,,,,,,
66338fd253dbd4c5374e8a90,TCN,2024-06-11_13h10.21.391,LearnStrategy,2023.2.3,MacIntel,58.82352941,1,1,13,0.020652174,-0.019565217,1,0,0,1.047,rock_grid_rect_2,4,15,-1,-1,1.047,-0.075,-0.390217391,1,0,0,2.64,Pegmatite_rect,6,2.64,0,12,0,12,0,1,,,,,,,,,,,,,
66338fd253dbd4c5374e8a90,TCN,2024-06-11_13h10.21.391,LearnStrategy,2023.2.3,MacIntel,58.82352941,1,1,14,0.033695652,-0.02173913,1,0,0,1.162,rock_grid_rect_2,5,16,-1,-1,1.162,-0.352173913,-0.415217391,1,0,0,1.423,Obsidian_rect,5,1.423,1,13,0,13,0,1,,,,,,,,,,,,,
66338fd253dbd4c5374e8a90,TCN,2024-06-11_13h10.21.391,LearnStrategy,2023.2.3,MacIntel,58.82352941,1,1,15,0.036956522,-0.018478261,1,0,0,0.997,rock_grid_rect_2,1,05,-1,-1,0.997,-0.425,-0.248913043,1,0,0,5.473,Andesite_rect,1,5.473,1,14,0,14,0,1,,,,,,,,,,,,,
66338fd253dbd4c5374e8a90,TCN,2024-06-11_13h10.21.391,LearnStrategy,2023.2.3,MacIntel,58.82352941,1,1,16,0.030434783,-0.018478261,1,0,0,1.065,rock_grid_rect_2,3,13,-1,-1,1.065,0.107608696,-0.413043478,1,0,0,5.693,Peridotite_rect,7,5.693,0,15,0,15,0,1,,,,,,,,,,,,,
66338fd253dbd4c5374e8a90,TCN,2024-06-11_13h10.21.391,LearnStrategy,2023.2.3,MacIntel,58.82352941,1,2,1,,,,,,,,7,05,,,,,,,,,,,3,5.651,0,,,,,,0.079347826,-0.257608696,1,0,0,5.651,Diorite_rect,0,0,0,0,1,
66338fd253dbd4c5374e8a90,TCN,2024-06-11_13h10.21.391,LearnStrategy,2023.2.3,MacIntel,58.82352941,1,2,2,,,,,,,,6,07,,,,,,,,,,,7,8.82,0,,,,,,0.110869565,-0.419565217,1,0,0,8.82,Peridotite_rect,1,0,1,0,1,
66338fd253dbd4c5374e8a90,TCN,2024-06-11_13h10.21.391,LearnStrategy,2023.2.3,MacIntel,58.82352941,1,2,3,,,,,,,,4,09,,,,,,,,,,,1,6.519,0,,,,,,-0.385869565,-0.270652174,1,0,0,6.519,Andesite_rect,2,0,2,0,1,
66338fd253dbd4c5374e8a90,TCN,2024-06-11_13h10.21.391,LearnStrategy,2023.2.3,MacIntel,58.82352941,1,2,4,,,,,,,,2,08,,,,,,,,,,,2,4.387,1,,,,,,-0.158695652,-0.257608696,1,0,0,4.387,Basalt_rect,3,0,3,0,1,
66338fd253dbd4c5374e8a90,TCN,2024-06-11_13h10.21.391,LearnStrategy,2023.2.3,MacIntel,58.82352941,1,2,5,,,,,,,,5,04,,,,,,,,,,,5,1.269,1,,,,,,-0.39673913,-0.405434783,1,0,0,1.269,Obsidian_rect,4,0,4,0,1,
66338fd253dbd4c5374e8a90,TCN,2024-06-11_13h10.21.391,LearnStrategy,2023.2.3,MacIntel,58.82352941,1,2,6,,,,,,,,3,14,,,,,,,,,,,7,3.32,0,,,,,,0.132608696,-0.405434783,1,0,0,3.32,Peridotite_rect,5,0,5,0,1,
66338fd253dbd4c5374e8a90,TCN,2024-06-11_13h10.21.391,LearnStrategy,2023.2.3,MacIntel,58.82352941,1,2,7,,,,,,,,8,13,,,,,,,,,,,2,3.569,0,,,,,,-0.048913043,-0.260869565,1,0,0,3.569,Basalt_rect,6,0,6,0,1,
66338fd253dbd4c5374e8a90,TCN,2024-06-11_13h10.21.391,LearnStrategy,2023.2.3,MacIntel,58.82352941,1,2,8,,,,,,,,8,05,,,,,,,,,,,8,1.754,1,,,,,,0.37826087,-0.419565217,1,0,0,1.754,Pumice_rect,7,0,7,0,1,
66338fd253dbd4c5374e8a90,TCN,2024-06-11_13h10.21.391,LearnStrategy,2023.2.3,MacIntel,58.82352941,1,2,9,,,,,,,,1,10,,,,,,,,,,,7,5.338,0,,,,,,0.129347826,-0.388043478,1,0,0,5.338,Peridotite_rect,8,0,8,0,1,
66338fd253dbd4c5374e8a90,TCN,2024-06-11_13h10.21.391,LearnStrategy,2023.2.3,MacIntel,58.82352941,1,2,10,,,,,,,,4,12,,,,,,,,,,,4,2.403,1,,,,,,0.369565217,-0.263043478,1,0,0,2.403,Gabbro_rect,9,0,9,0,1,
66338fd253dbd4c5374e8a90,TCN,2024-06-11_13h10.21.391,LearnStrategy,2023.2.3,MacIntel,58.82352941,1,2,11,,,,,,,,2,12,,,,,,,,,,,2,9.721,1,,,,,,-0.127173913,-0.251086957,1,0,0,9.721,Basalt_rect,10,0,10,0,1,
66338fd253dbd4c5374e8a90,TCN,2024-06-11_13h10.21.391,LearnStrategy,2023.2.3,MacIntel,58.82352941,1,2,12,,,,,,,,6,06,,,,,,,,,,,6,5.418,1,,,,,,-0.093478261,-0.413043478,1,0,0,5.418,Pegmatite_rect,11,0,11,0,1,
66338fd253dbd4c5374e8a90,TCN,2024-06-11_13h10.21.391,LearnStrategy,2023.2.3,MacIntel,58.82352941,1,2,13,,,,,,,,7,12,,,,,,,,,,,7,2.487,1,,,,,,0.134782609,-0.4,1,0,0,2.487,Peridotite_rect,12,0,12,0,1,
66338fd253dbd4c5374e8a90,TCN,2024-06-11_13h10.21.391,LearnStrategy,2023.2.3,MacIntel,58.82352941,1,2,14,,,,,,,,5,06,,,,,,,,,,,5,1.321,1,,,,,,-0.338043478,-0.401086957,1,0,0,1.321,Obsidian_rect,13,0,13,0,1,
66338fd253dbd4c5374e8a90,TCN,2024-06-11_13h10.21.391,LearnStrategy,2023.2.3,MacIntel,58.82352941,1,2,15,,,,,,,,3,02,,,,,,,,,,,4,2.702,0,,,,,,0.413043478,-0.251086957,1,0,0,2.702,Gabbro_rect,14,0,14,0,1,
66338fd253dbd4c5374e8a90,TCN,2024-06-11_13h10.21.391,LearnStrategy,2023.2.3,MacIntel,58.82352941,1,2,16,,,,,,,,1,07,,,,,,,,,,,6,2.005,0,,,,,,-0.066304348,-0.408695652,1,0,0,2.005,Pegmatite_rect,15,0,15,0,1,
66338fd253dbd4c5374e8a90,TCN,2024-06-11_13h10.21.391,LearnStrategy,2023.2.3,MacIntel,58.82352941,2,1,1,0.00326087,-0.013043478,1,0,0,1.912,rock_grid_rect_2,3,09,-1,-1,1.912,0.132608696,-0.414130435,1,0,0,2.189,Peridotite_rect,7,2.189,0,0,0,0,0,1,,,,,,,,,,,,,
66338fd253dbd4c5374e8a90,TCN,2024-06-11_13h10.21.391,LearnStrategy,2023.2.3,MacIntel,58.82352941,2,1,2,0.02173913,-0.023913043,1,0,0,1.361,rock_grid_rect_2,8,15,-1,-1,1.361,0.342391304,-0.22826087,1,0,0,2.472,Gabbro_rect,4,2.472,0,1,0,1,0,1,,,,,,,,,,,,,
66338fd253dbd4c5374e8a90,TCN,2024-06-11_13h10.21.391,LearnStrategy,2023.2.3,MacIntel,58.82352941,2,1,3,0.054347826,-0.019565217,1,0,0,0.963,rock_grid_rect_2,6,09,-1,-1,0.963,-0.117391304,-0.397826087,1,0,0,2.309,Pegmatite_rect,6,2.309,1,2,0,2,0,1,,,,,,,,,,,,,
66338fd253dbd4c5374e8a90,TCN,2024-06-11_13h10.21.391,LearnStrategy,2023.2.3,MacIntel,58.82352941,2,1,4,0.043478261,0.004347826,1,0,0,0.898,rock_grid_rect_2,2,05,-1,-1,0.898,-0.319565217,-0.243478261,1,0,0,4.489,Andesite_rect,1,4.489,0,3,0,3,0,1,,,,,,,,,,,,,
66338fd253dbd4c5374e8a90,TCN,2024-06-11_13h10.21.391,LearnStrategy,2023.2.3,MacIntel,58.82352941,2,1,5,0.018478261,-0.011956522,1,0,0,1.228,rock_grid_rect_2,5,07,-1,-1,1.228,-0.367391304,-0.39673913,1,0,0,1.155,Obsidian_rect,5,1.155,1,4,0,4,0,1,,,,,,,,,,,,,
66338fd253dbd4c5374e8a90,TCN,2024-06-11_13h10.21.391,LearnStrategy,2023.2.3,MacIntel,58.82352941,2,1,6,0.067391304,-0.011956522,1,0,0,0.914,rock_grid_rect_2,7,10,-1,-1,0.914,0.208695652,-0.386956522,1,0,0,4.29,Peridotite_rect,7,4.29,1,5,0,5,0,1,,,,,,,,,,,,,
66338fd253dbd4c5374e8a90,TCN,2024-06-11_13h10.21.391,LearnStrategy,2023.2.3,MacIntel,58.82352941,2,1,7,0.038043478,0.005434783,1,0,0,0.995,rock_grid_rect_2,5,10,-1,-1,0.995,-0.37826087,-0.409782609,1,0,0,1.923,Obsidian_rect,5,1.923,1,6,0,6,0,1,,,,,,,,,,,,,
66338fd253dbd4c5374e8a90,TCN,2024-06-11_13h10.21.391,LearnStrategy,2023.2.3,MacIntel,58.82352941,2,1,8,0.052173913,-0.018478261,1,0,0,0.863,rock_grid_rect_2,6,11,-1,-1,0.863,-0.094565217,-0.392391304,1,0,0,2.506,Pegmatite_rect,6,2.506,1,7,0,7,0,1,,,,,,,,,,,,,
66338fd253dbd4c5374e8a90,TCN,2024-06-11_13h10.21.391,LearnStrategy,2023.2.3,MacIntel,58.82352941,2,1,9,0.015217391,-0.020652174,1,0,0,1.13,rock_grid_rect_2,8,16,-1,-1,1.13,0.377173913,-0.415217391,1,0,0,1.908,Pumice_rect,8,1.908,1,8,0,8,0,1,,,,,,,,,,,,,
66338fd253dbd4c5374e8a90,TCN,2024-06-11_13h10.21.391,LearnStrategy,2023.2.3,MacIntel,58.82352941,2,1,10,-0.00326087,-0.016304348,1,0,0,1.833,rock_grid_rect_2,4,10,-1,-1,1.833,0.370652174,-0.248913043,1,0,0,5.837,Gabbro_rect,4,5.837,1,9,0,9,0,1,,,,,,,,,,,,,
66338fd253dbd4c5374e8a90,TCN,2024-06-11_13h10.21.391,LearnStrategy,2023.2.3,MacIntel,58.82352941,2,1,11,0.033695652,-0.010869565,1,0,0,1.078,rock_grid_rect_2,1,16,-1,-1,1.078,0.055434783,-0.391304348,1,0,0,2.888,Peridotite_rect,7,2.888,0,10,0,10,0,1,,,,,,,,,,,,,
66338fd253dbd4c5374e8a90,TCN,2024-06-11_13h10.21.391,LearnStrategy,2023.2.3,MacIntel,58.82352941,2,1,12,0.048913043,0.020652174,1,0,0,0.812,rock_grid_rect_2,4,08,-1,-1,0.812,0.085869565,-0.239130435,1,0,0,3.555,Diorite_rect,3,3.555,0,11,0,11,0,1,,,,,,,,,,,,,
66338fd253dbd4c5374e8a90,TCN,2024-06-11_13h10.21.391,LearnStrategy,2023.2.3,MacIntel,58.82352941,2,1,13,0,-0.022826087,1,0,0,0.996,rock_grid_rect_2,2,09,-1,-1,0.996,-0.108695652,-0.241304348,1,0,0,2.64,Basalt_rect,2,2.64,1,12,0,12,0,1,,,,,,,,,,,,,
66338fd253dbd4c5374e8a90,TCN,2024-06-11_13h10.21.391,LearnStrategy,2023.2.3,MacIntel,58.82352941,2,1,14,0.035869565,0.019565217,1,0,0,0.932,rock_grid_rect_2,3,11,-1,-1,0.932,0.075,-0.408695652,1,0,0,2.072,Peridotite_rect,7,2.072,0,13,0,13,0,1,,,,,,,,,,,,,
66338fd253dbd4c5374e8a90,TCN,2024-06-11_13h10.21.391,LearnStrategy,2023.2.3,MacIntel,58.82352941,2,1,15,0.052173913,0.014130435,1,0,0,1.03,rock_grid_rect_2,7,14,-1,-1,1.03,-0.366304348,-0.258695652,1,0,0,4.105,Andesite_rect,1,4.105,0,14,0,14,0,1,,,,,,,,,,,,,
66338fd253dbd4c5374e8a90,TCN,2024-06-11_13h10.21.391,LearnStrategy,2023.2.3,MacIntel,58.82352941,2,1,16,0.093478261,0,1,0,0,0.811,rock_grid_rect_2,1,03,-1,-1,0.811,0.382608696,-0.247826087,1,0,0,4.538,Gabbro_rect,4,4.538,0,15,0,15,0,1,,,,,,,,,,,,,
66338fd253dbd4c5374e8a90,TCN,2024-06-11_13h10.21.391,LearnStrategy,2023.2.3,MacIntel,58.82352941,2,2,1,,,,,,,,4,14,,,,,,,,,,,1,4.187,0,,,,,,-0.382608696,-0.22826087,1,0,0,4.187,Andesite_rect,0,0,0,0,1,
66338fd253dbd4c5374e8a90,TCN,2024-06-11_13h10.21.391,LearnStrategy,2023.2.3,MacIntel,58.82352941,2,2,2,,,,,,,,3,12,,,,,,,,,,,7,2.471,0,,,,,,0.117391304,-0.39673913,1,0,0,2.471,Peridotite_rect,1,0,1,0,1,
66338fd253dbd4c5374e8a90,TCN,2024-06-11_13h10.21.391,LearnStrategy,2023.2.3,MacIntel,58.82352941,2,2,3,,,,,,,,1,02,,,,,,,,,,,3,4.421,0,,,,,,0.085869565,-0.257608696,1,0,0,4.421,Diorite_rect,2,0,2,0,1,
66338fd253dbd4c5374e8a90,TCN,2024-06-11_13h10.21.391,LearnStrategy,2023.2.3,MacIntel,58.82352941,2,2,4,,,,,,,,7,08,,,,,,,,,,,7,6.27,1,,,,,,0.07826087,-0.40326087,1,0,0,6.27,Peridotite_rect,3,0,3,0,1,
66338fd253dbd4c5374e8a90,TCN,2024-06-11_13h10.21.391,LearnStrategy,2023.2.3,MacIntel,58.82352941,2,2,5,,,,,,,,2,06,,,,,,,,,,,2,4.585,1,,,,,,-0.101086957,-0.238043478,1,0,0,4.585,Basalt_rect,4,0,4,0,1,
66338fd253dbd4c5374e8a90,TCN,2024-06-11_13h10.21.391,LearnStrategy,2023.2.3,MacIntel,58.82352941,2,2,6,,,,,,,,8,02,,,,,,,,,,,8,2.154,1,,,,,,0.384782609,-0.411956522,1,0,0,2.154,Pumice_rect,5,0,5,0,1,
66338fd253dbd4c5374e8a90,TCN,2024-06-11_13h10.21.391,LearnStrategy,2023.2.3,MacIntel,58.82352941,2,2,7,,,,,,,,6,05,,,,,,,,,,,6,5.054,1,,,,,,-0.07173913,-0.404347826,1,0,0,5.054,Pegmatite_rect,6,0,6,0,1,
66338fd253dbd4c5374e8a90,TCN,2024-06-11_13h10.21.391,LearnStrategy,2023.2.3,MacIntel,58.82352941,2,2,8,,,,,,,,6,08,,,,,,,,,,,6,4.989,1,,,,,,-0.108695652,-0.416304348,1,0,0,4.989,Pegmatite_rect,7,0,7,0,1,
66338fd253dbd4c5374e8a90,TCN,2024-06-11_13h10.21.391,LearnStrategy,2023.2.3,MacIntel,58.82352941,2,2,9,,,,,,,,1,06,,,,,,,,,,,4,2.403,0,,,,,,0.388043478,-0.236956522,1,0,0,2.403,Gabbro_rect,8,0,8,0,1,
66338fd253dbd4c5374e8a90,TCN,2024-06-11_13h10.21.391,LearnStrategy,2023.2.3,MacIntel,58.82352941,2,2,10,,,,,,,,5,12,,,,,,,,,,,5,1.205,1,,,,,,-0.351086957,-0.410869565,1,0,0,1.205,Obsidian_rect,9,0,9,0,1,
66338fd253dbd4c5374e8a90,TCN,2024-06-11_13h10.21.391,LearnStrategy,2023.2.3,MacIntel,58.82352941,2,2,11,,,,,,,,7,06,,,,,,,,,,,6,4.204,0,,,,,,-0.080434783,-0.406521739,1,0,0,4.204,Pegmatite_rect,10,0,10,0,1,
66338fd253dbd4c5374e8a90,TCN,2024-06-11_13h10.21.391,LearnStrategy,2023.2.3,MacIntel,58.82352941,2,2,12,,,,,,,,8,03,,,,,,,,,,,8,1.554,1,,,,,,0.429347826,-0.411956522,1,0,0,1.554,Pumice_rect,11,0,11,0,1,
66338fd253dbd4c5374e8a90,TCN,2024-06-11_13h10.21.391,LearnStrategy,2023.2.3,MacIntel,58.82352941,2,2,13,,,,,,,,4,13,,,,,,,,,,,4,2.206,1,,,,,,0.416304348,-0.258695652,1,0,0,2.206,Gabbro_rect,12,0,12,0,1,
66338fd253dbd4c5374e8a90,TCN,2024-06-11_13h10.21.391,LearnStrategy,2023.2.3,MacIntel,58.82352941,2,2,14,,,,,,,,2,16,,,,,,,,,,,3,7.498,0,,,,,,0.091304348,-0.244565217,1,0,0,7.498,Diorite_rect,13,0,13,0,1,
66338fd253dbd4c5374e8a90,TCN,2024-06-11_13h10.21.391,LearnStrategy,2023.2.3,MacIntel,58.82352941,2,2,15,,,,,,,,3,08,,,,,,,,,,,7,6.771,0,,,,,,0.090217391,-0.414130435,1,0,0,6.771,Peridotite_rect,14,0,14,0,1,
66338fd253dbd4c5374e8a90,TCN,2024-06-11_13h10.21.391,LearnStrategy,2023.2.3,MacIntel,58.82352941,2,2,16,,,,,,,,5,08,,,,,,,,,,,5,1.102,1,,,,,,-0.40326087,-0.40326087,1,0,0,1.102,Obsidian_rect,15,0,15,0,1,
66338fd253dbd4c5374e8a90,TCN,2024-06-11_13h10.21.391,LearnStrategy,2023.2.3,MacIntel,58.82352941,3,1,1,0.027173913,0.011956522,1,0,0,1.779,rock_grid_rect_2,5,02,-1,-1,1.779,-0.376086957,-0.395652174,1,0,0,2.171,Obsidian_rect,5,2.171,1,0,0,0,0,1,,,,,,,,,,,,,
66338fd253dbd4c5374e8a90,TCN,2024-06-11_13h10.21.391,LearnStrategy,2023.2.3,MacIntel,58.82352941,3,1,2,0.007608696,-0.020652174,1,0,0,1.295,rock_grid_rect_2,7,13,-1,-1,1.295,0.083695652,-0.251086957,1,0,0,3.689,Diorite_rect,3,3.689,0,1,0,1,0,1,,,,,,,,,,,,,
66338fd253dbd4c5374e8a90,TCN,2024-06-11_13h10.21.391,LearnStrategy,2023.2.3,MacIntel,58.82352941,3,1,3,0.052173913,0.005434783,1,0,0,0.997,rock_grid_rect_2,7,15,-1,-1,0.997,-0.329347826,-0.255434783,1,0,0,3.39,Andesite_rect,1,3.39,0,2,0,2,0,1,,,,,,,,,,,,,
66338fd253dbd4c5374e8a90,TCN,2024-06-11_13h10.21.391,LearnStrategy,2023.2.3,MacIntel,58.82352941,3,1,4,0.016304348,-0.025,1,0,0,0.998,rock_grid_rect_2,6,13,-1,-1,0.998,0.098913043,-0.230434783,1,0,0,2.49,Diorite_rect,3,2.49,0,3,0,3,0,1,,,,,,,,,,,,,
66338fd253dbd4c5374e8a90,TCN,2024-06-11_13h10.21.391,LearnStrategy,2023.2.3,MacIntel,58.82352941,3,1,5,0.095652174,0.005434783,1,0,0,1.079,rock_grid_rect_2,4,05,-1,-1,1.079,0.39673913,-0.235869565,1,0,0,1.989,Gabbro_rect,4,1.989,1,4,0,4,0,1,,,,,,,,,,,,,
66338fd253dbd4c5374e8a90,TCN,2024-06-11_13h10.21.391,LearnStrategy,2023.2.3,MacIntel,58.82352941,3,1,6,0.007608696,-0.023913043,1,0,0,1.147,rock_grid_rect_2,8,09,-1,-1,1.147,0.394565217,-0.411956522,1,0,0,2.14,Pumice_rect,8,2.14,1,5,0,5,0,1,,,,,,,,,,,,,
66338fd253dbd4c5374e8a90,TCN,2024-06-11_13h10.21.391,LearnStrategy,2023.2.3,MacIntel,58.82352941,3,1,7,0.013043478,-0.018478261,1,0,0,1.145,rock_grid_rect_2,2,01,-1,-1,1.145,-0.108695652,-0.24673913,1,0,0,1.656,Basalt_rect,2,1.656,1,6,0,6,0,1,,,,,,,,,,,,,
66338fd253dbd4c5374e8a90,TCN,2024-06-11_13h10.21.391,LearnStrategy,2023.2.3,MacIntel,58.82352941,3,1,8,0.035869565,-0.013043478,1,0,0,0.945,rock_grid_rect_2,2,11,-1,-1,0.945,0.134782609,-0.264130435,1,0,0,2.475,Diorite_rect,3,2.475,0,7,0,7,0,1,,,,,,,,,,,,,
66338fd253dbd4c5374e8a90,TCN,2024-06-11_13h10.21.391,LearnStrategy,2023.2.3,MacIntel,58.82352941,3,1,9,0.020652174,-0.025,1,0,0,0.946,rock_grid_rect_2,5,05,-1,-1,0.946,-0.37826087,-0.405434783,1,0,0,1.191,Obsidian_rect,5,1.191,1,8,0,8,0,1,,,,,,,,,,,,,
66338fd253dbd4c5374e8a90,TCN,2024-06-11_13h10.21.391,LearnStrategy,2023.2.3,MacIntel,58.82352941,3,1,10,0.018478261,0.009782609,1,0,0,1.082,rock_grid_rect_2,4,03,-1,-1,1.082,0.340217391,-0.248913043,1,0,0,1.94,Gabbro_rect,4,1.94,1,9,0,9,0,1,,,,,,,,,,,,,
66338fd253dbd4c5374e8a90,TCN,2024-06-11_13h10.21.391,LearnStrategy,2023.2.3,MacIntel,58.82352941,3,1,11,0.015217391,-0.020652174,1,0,0,0.847,rock_grid_rect_2,1,01,-1,-1,0.847,-0.394565217,-0.260869565,1,0,0,2.974,Andesite_rect,1,2.974,1,10,0,10,0,1,,,,,,,,,,,,,
66338fd253dbd4c5374e8a90,TCN,2024-06-11_13h10.21.391,LearnStrategy,2023.2.3,MacIntel,58.82352941,3,1,12,0.016304348,-0.015217391,1,0,0,1.109,rock_grid_rect_2,8,06,-1,-1,1.109,0.364130435,-0.383695652,1,0,0,1.989,Pumice_rect,8,1.989,1,11,0,11,0,1,,,,,,,,,,,,,
66338fd253dbd4c5374e8a90,TCN,2024-06-11_13h10.21.391,LearnStrategy,2023.2.3,MacIntel,58.82352941,3,1,13,0.00326087,-0.013043478,1,0,0,1.113,rock_grid_rect_2,6,15,-1,-1,1.113,-0.134782609,-0.398913043,1,0,0,2.089,Pegmatite_rect,6,2.089,1,12,0,12,0,1,,,,,,,,,,,,,
66338fd253dbd4c5374e8a90,TCN,2024-06-11_13h10.21.391,LearnStrategy,2023.2.3,MacIntel,58.82352941,3,1,14,0.042391304,-0.00326087,1,0,0,0.864,rock_grid_rect_2,3,06,-1,-1,0.864,0.088043478,-0.261956522,1,0,0,2.272,Diorite_rect,3,2.272,1,13,0,13,0,1,,,,,,,,,,,,,
66338fd253dbd4c5374e8a90,TCN,2024-06-11_13h10.21.391,LearnStrategy,2023.2.3,MacIntel,58.82352941,3,1,15,0.030434783,-0.011956522,1,0,0,0.963,rock_grid_rect_2,1,11,-1,-1,0.963,-0.065217391,-0.254347826,1,0,0,5.106,Basalt_rect,2,5.106,0,14,0,14,0,1,,,,,,,,,,,,,
66338fd253dbd4c5374e8a90,TCN,2024-06-11_13h10.21.391,LearnStrategy,2023.2.3,MacIntel,58.82352941,3,1,16,0.019565217,0.007608696,1,0,0,1.01,rock_grid_rect_2,3,15,-1,-1,1.01,0.358695652,-0.236956522,1,0,0,1.889,Gabbro_rect,4,1.889,0,15,0,15,0,1,,,,,,,,,,,,,
66338fd253dbd4c5374e8a90,TCN,2024-06-11_13h10.21.391,LearnStrategy,2023.2.3,MacIntel,58.82352941,3,2,1,,,,,,,,1,14,,,,,,,,,,,3,4.402,0,,,,,,0.072826087,-0.265217391,1,0,0,4.402,Diorite_rect,0,0,0,0,1,
66338fd253dbd4c5374e8a90,TCN,2024-06-11_13h10.21.391,LearnStrategy,2023.2.3,MacIntel,58.82352941,3,2,2,,,,,,,,3,16,,,,,,,,,,,7,3.404,0,,,,,,0.084782609,-0.398913043,1,0,0,3.404,Peridotite_rect,1,0,1,0,1,
66338fd253dbd4c5374e8a90,TCN,2024-06-11_13h10.21.391,LearnStrategy,2023.2.3,MacIntel,58.82352941,3,2,3,,,,,,,,2,10,,,,,,,,,,,2,1.988,1,,,,,,-0.093478261,-0.242391304,1,0,0,1.988,Basalt_rect,2,0,2,0,1,
66338fd253dbd4c5374e8a90,TCN,2024-06-11_13h10.21.391,LearnStrategy,2023.2.3,MacIntel,58.82352941,3,2,4,,,,,,,,6,10,,,,,,,,,,,6,3.27,1,,,,,,-0.129347826,-0.413043478,1,0,0,3.27,Pegmatite_rect,3,0,3,0,1,
66338fd253dbd4c5374e8a90,TCN,2024-06-11_13h10.21.391,LearnStrategy,2023.2.3,MacIntel,58.82352941,3,2,5,,,,,,,,5,09,,,,,,,,,,,5,1.22,1,,,,,,-0.331521739,-0.407608696,1,0,0,1.22,Obsidian_rect,4,0,4,0,1,
66338fd253dbd4c5374e8a90,TCN,2024-06-11_13h10.21.391,LearnStrategy,2023.2.3,MacIntel,58.82352941,3,2,6,,,,,,,,2,04,,,,,,,,,,,2,1.305,1,,,,,,-0.109782609,-0.25326087,1,0,0,1.305,Basalt_rect,5,0,5,0,1,
66338fd253dbd4c5374e8a90,TCN,2024-06-11_13h10.21.391,LearnStrategy,2023.2.3,MacIntel,58.82352941,3,2,7,,,,,,,,7,07,,,,,,,,,,,3,3.206,0,,,,,,0.130434783,-0.257608696,1,0,0,3.206,Diorite_rect,6,0,6,0,1,
66338fd253dbd4c5374e8a90,TCN,2024-06-11_13h10.21.391,LearnStrategy,2023.2.3,MacIntel,58.82352941,3,2,8,,,,,,,,4,01,,,,,,,,,,,1,2.141,0,,,,,,-0.369565217,-0.266304348,1,0,0,2.141,Andesite_rect,7,0,7,0,1,
66338fd253dbd4c5374e8a90,TCN,2024-06-11_13h10.21.391,LearnStrategy,2023.2.3,MacIntel,58.82352941,3,2,9,,,,,,,,8,10,,,,,,,,,,,8,1.503,1,,,,,,0.357608696,-0.413043478,1,0,0,1.503,Pumice_rect,8,0,8,0,1,
66338fd253dbd4c5374e8a90,TCN,2024-06-11_13h10.21.391,LearnStrategy,2023.2.3,MacIntel,58.82352941,3,2,10,,,,,,,,7,02,,,,,,,,,,,6,1.455,0,,,,,,-0.152173913,-0.419565217,1,0,0,1.455,Pegmatite_rect,9,0,9,0,1,
66338fd253dbd4c5374e8a90,TCN,2024-06-11_13h10.21.391,LearnStrategy,2023.2.3,MacIntel,58.82352941,3,2,11,,,,,,,,3,10,,,,,,,,,,,7,1.788,0,,,,,,0.113043478,-0.392391304,1,0,0,1.788,Peridotite_rect,10,0,10,0,1,
66338fd253dbd4c5374e8a90,TCN,2024-06-11_13h10.21.391,LearnStrategy,2023.2.3,MacIntel,58.82352941,3,2,12,,,,,,,,6,16,,,,,,,,,,,6,5.039,1,,,,,,-0.115217391,-0.406521739,1,0,0,5.039,Pegmatite_rect,11,0,11,0,1,
66338fd253dbd4c5374e8a90,TCN,2024-06-11_13h10.21.391,LearnStrategy,2023.2.3,MacIntel,58.82352941,3,2,13,,,,,,,,8,04,,,,,,,,,,,8,1.254,1,,,,,,0.417391304,-0.394565217,1,0,0,1.254,Pumice_rect,12,0,12,0,1,
66338fd253dbd4c5374e8a90,TCN,2024-06-11_13h10.21.391,LearnStrategy,2023.2.3,MacIntel,58.82352941,3,2,14,,,,,,,,5,11,,,,,,,,,,,5,1.168,1,,,,,,-0.39673913,-0.404347826,1,0,0,1.168,Obsidian_rect,13,0,13,0,1,
66338fd253dbd4c5374e8a90,TCN,2024-06-11_13h10.21.391,LearnStrategy,2023.2.3,MacIntel,58.82352941,3,2,15,,,,,,,,4,11,,,,,,,,,,,4,1.703,1,,,,,,0.331521739,-0.255434783,1,0,0,1.703,Gabbro_rect,14,0,14,0,1,
66338fd253dbd4c5374e8a90,TCN,2024-06-11_13h10.21.391,LearnStrategy,2023.2.3,MacIntel,58.82352941,3,2,16,,,,,,,,1,09,,,,,,,,,,,1,2.422,1,,,,,,-0.388043478,-0.259782609,1,0,0,2.422,Andesite_rect,15,0,15,0,1,
66338fd253dbd4c5374e8a90,TCN,2024-06-11_13h10.21.391,LearnStrategy,2023.2.3,MacIntel,58.82352941,4,1,1,0.039130435,-0.023913043,1,0,0,1.099,rock_grid_rect_2,5,10,-1,-1,1.099,-0.367391304,-0.388043478,1,0,0,1.271,Obsidian_rect,5,1.271,1,0,0,0,0,1,,,,,,,,,,,,,
66338fd253dbd4c5374e8a90,TCN,2024-06-11_13h10.21.391,LearnStrategy,2023.2.3,MacIntel,58.82352941,4,1,2,0.005434783,-0.008695652,1,0,0,2.329,rock_grid_rect_2,3,07,-1,-1,2.329,0.118478261,-0.414130435,1,0,0,2.092,Peridotite_rect,7,2.092,0,1,0,1,0,1,,,,,,,,,,,,,
66338fd253dbd4c5374e8a90,TCN,2024-06-11_13h10.21.391,LearnStrategy,2023.2.3,MacIntel,58.82352941,4,1,3,0.036956522,-0.019565217,1,0,0,1.314,rock_grid_rect_2,7,13,-1,-1,1.314,0.061956522,-0.386956522,1,0,0,3.572,Peridotite_rect,7,3.572,1,2,0,2,0,1,,,,,,,,,,,,,
66338fd253dbd4c5374e8a90,TCN,2024-06-11_13h10.21.391,LearnStrategy,2023.2.3,MacIntel,58.82352941,4,1,4,0.061956522,0.008695652,1,0,0,0.961,rock_grid_rect_2,4,05,-1,-1,0.961,0.398913043,-0.239130435,1,0,0,2.422,Gabbro_rect,4,2.422,1,3,0,3,0,1,,,,,,,,,,,,,
66338fd253dbd4c5374e8a90,TCN,2024-06-11_13h10.21.391,LearnStrategy,2023.2.3,MacIntel,58.82352941,4,1,5,0.073913043,0.011956522,1,0,0,1.095,rock_grid_rect_2,6,15,-1,-1,1.095,-0.168478261,-0.398913043,1,0,0,1.655,Pegmatite_rect,6,1.655,1,4,0,4,0,1,,,,,,,,,,,,,
66338fd253dbd4c5374e8a90,TCN,2024-06-11_13h10.21.391,LearnStrategy,2023.2.3,MacIntel,58.82352941,4,1,6,0.065217391,0.007608696,1,0,0,1.263,rock_grid_rect_2,2,09,-1,-1,1.263,-0.12826087,-0.231521739,1,0,0,1.391,Basalt_rect,2,1.391,1,5,0,5,0,1,,,,,,,,,,,,,
66338fd253dbd4c5374e8a90,TCN,2024-06-11_13h10.21.391,LearnStrategy,2023.2.3,MacIntel,58.82352941,4,1,7,0.036956522,-0.00326087,1,0,0,0.945,rock_grid_rect_2,5,16,-1,-1,0.945,-0.34673913,-0.386956522,1,0,0,1.188,Obsidian_rect,5,1.188,1,6,0,6,0,1,,,,,,,,,,,,,
66338fd253dbd4c5374e8a90,TCN,2024-06-11_13h10.21.391,LearnStrategy,2023.2.3,MacIntel,58.82352941,4,1,8,-0.002173913,-0.008695652,1,0,0,0.88,rock_grid_rect_2,4,03,-1,-1,0.88,-0.097826087,-0.256521739,1,0,0,1.941,Basalt_rect,2,1.941,0,7,0,7,0,1,,,,,,,,,,,,,
66338fd253dbd4c5374e8a90,TCN,2024-06-11_13h10.21.391,LearnStrategy,2023.2.3,MacIntel,58.82352941,4,1,9,0.020652174,0.005434783,1,0,0,0.945,rock_grid_rect_2,7,16,-1,-1,0.945,0.107608696,-0.239130435,1,0,0,3.391,Diorite_rect,3,3.391,0,8,0,8,0,1,,,,,,,,,,,,,
66338fd253dbd4c5374e8a90,TCN,2024-06-11_13h10.21.391,LearnStrategy,2023.2.3,MacIntel,58.82352941,4,1,10,0.041304348,-0.017391304,1,0,0,1.046,rock_grid_rect_2,6,09,-1,-1,1.046,-0.175,-0.402173913,1,0,0,1.456,Pegmatite_rect,6,1.456,1,9,0,9,0,1,,,,,,,,,,,,,
66338fd253dbd4c5374e8a90,TCN,2024-06-11_13h10.21.391,LearnStrategy,2023.2.3,MacIntel,58.82352941,4,1,11,0.02826087,-0.016304348,1,0,0,1.061,rock_grid_rect_2,8,06,-1,-1,1.061,0.389130435,-0.419565217,1,0,0,1.157,Pumice_rect,8,1.157,1,10,0,10,0,1,,,,,,,,,,,,,
66338fd253dbd4c5374e8a90,TCN,2024-06-11_13h10.21.391,LearnStrategy,2023.2.3,MacIntel,58.82352941,4,1,12,0.020652174,-0.011956522,1,0,0,0.898,rock_grid_rect_2,1,16,-1,-1,0.898,-0.340217391,-0.242391304,1,0,0,1.839,Andesite_rect,1,1.839,1,11,0,11,0,1,,,,,,,,,,,,,
66338fd253dbd4c5374e8a90,TCN,2024-06-11_13h10.21.391,LearnStrategy,2023.2.3,MacIntel,58.82352941,4,1,13,-0.001086957,-0.020652174,1,0,0,1.412,rock_grid_rect_2,3,06,-1,-1,1.412,0.118478261,-0.244565217,1,0,0,3.507,Diorite_rect,3,3.507,1,12,0,12,0,1,,,,,,,,,,,,,
66338fd253dbd4c5374e8a90,TCN,2024-06-11_13h10.21.391,LearnStrategy,2023.2.3,MacIntel,58.82352941,4,1,14,0.033695652,-0.018478261,1,0,0,1.129,rock_grid_rect_2,2,14,-1,-1,1.129,-0.110869565,-0.27173913,1,0,0,2.457,Basalt_rect,2,2.457,1,13,0,13,0,1,,,,,,,,,,,,,
66338fd253dbd4c5374e8a90,TCN,2024-06-11_13h10.21.391,LearnStrategy,2023.2.3,MacIntel,58.82352941,4,1,15,0.060869565,-0.001086957,1,0,0,1.097,rock_grid_rect_2,1,01,-1,-1,1.097,0.104347826,-0.413043478,1,0,0,3.99,Peridotite_rect,7,3.99,0,14,0,14,0,1,,,,,,,,,,,,,
66338fd253dbd4c5374e8a90,TCN,2024-06-11_13h10.21.391,LearnStrategy,2023.2.3,MacIntel,58.82352941,4,1,16,0.033695652,-0.013043478,1,0,0,1.112,rock_grid_rect_2,8,15,-1,-1,1.112,0.384782609,-0.39673913,1,0,0,1.409,Pumice_rect,8,1.409,1,15,0,15,0,1,,,,,,,,,,,,,
66338fd253dbd4c5374e8a90,TCN,2024-06-11_13h10.21.391,LearnStrategy,2023.2.3,MacIntel,58.82352941,4,2,1,,,,,,,,4,14,,,,,,,,,,,2,2.818,0,,,,,,-0.111956522,-0.239130435,1,0,0,2.818,Basalt_rect,0,0,0,0,1,
66338fd253dbd4c5374e8a90,TCN,2024-06-11_13h10.21.391,LearnStrategy,2023.2.3,MacIntel,58.82352941,4,2,2,,,,,,,,2,06,,,,,,,,,,,2,1.154,1,,,,,,-0.109782609,-0.229347826,1,0,0,1.154,Basalt_rect,1,0,1,0,1,
66338fd253dbd4c5374e8a90,TCN,2024-06-11_13h10.21.391,LearnStrategy,2023.2.3,MacIntel,58.82352941,4,2,3,,,,,,,,1,06,,,,,,,,,,,1,4.088,1,,,,,,-0.401086957,-0.240217391,1,0,0,4.088,Andesite_rect,2,0,2,0,1,
66338fd253dbd4c5374e8a90,TCN,2024-06-11_13h10.21.391,LearnStrategy,2023.2.3,MacIntel,58.82352941,4,2,4,,,,,,,,4,13,,,,,,,,,,,3,4.356,0,,,,,,0.092391304,-0.261956522,1,0,0,4.356,Diorite_rect,3,0,3,0,1,
66338fd253dbd4c5374e8a90,TCN,2024-06-11_13h10.21.391,LearnStrategy,2023.2.3,MacIntel,58.82352941,4,2,5,,,,,,,,5,08,,,,,,,,,,,5,2.505,1,,,,,,-0.385869565,-0.4,1,0,0,2.505,Obsidian_rect,4,0,4,0,1,
66338fd253dbd4c5374e8a90,TCN,2024-06-11_13h10.21.391,LearnStrategy,2023.2.3,MacIntel,58.82352941,4,2,6,,,,,,,,8,02,,,,,,,,,,,8,1.222,1,,,,,,0.368478261,-0.419565217,1,0,0,1.222,Pumice_rect,5,0,5,0,1,
66338fd253dbd4c5374e8a90,TCN,2024-06-11_13h10.21.391,LearnStrategy,2023.2.3,MacIntel,58.82352941,4,2,7,,,,,,,,8,04,,,,,,,,,,,8,0.703,1,,,,,,0.368478261,-0.419565217,1,0,0,0.703,Pumice_rect,6,0,6,0,1,
66338fd253dbd4c5374e8a90,TCN,2024-06-11_13h10.21.391,LearnStrategy,2023.2.3,MacIntel,58.82352941,4,2,8,,,,,,,,2,12,,,,,,,,,,,2,2.154,1,,,,,,-0.132608696,-0.244565217,1,0,0,2.154,Basalt_rect,7,0,7,0,1,
66338fd253dbd4c5374e8a90,TCN,2024-06-11_13h10.21.391,LearnStrategy,2023.2.3,MacIntel,58.82352941,4,2,9,,,,,,,,7,08,,,,,,,,,,,3,3.905,0,,,,,,0.114130435,-0.259782609,1,0,0,3.905,Diorite_rect,8,0,8,0,1,
66338fd253dbd4c5374e8a90,TCN,2024-06-11_13h10.21.391,LearnStrategy,2023.2.3,MacIntel,58.82352941,4,2,10,,,,,,,,3,10,,,,,,,,,,,1,3.471,0,,,,,,-0.364130435,-0.257608696,1,0,0,3.471,Andesite_rect,9,0,9,0,1,
66338fd253dbd4c5374e8a90,TCN,2024-06-11_13h10.21.391,LearnStrategy,2023.2.3,MacIntel,58.82352941,4,2,11,,,,,,,,3,08,,,,,,,,,,,7,5.203,0,,,,,,0.098913043,-0.402173913,1,0,0,5.203,Peridotite_rect,10,0,10,0,1,
66338fd253dbd4c5374e8a90,TCN,2024-06-11_13h10.21.391,LearnStrategy,2023.2.3,MacIntel,58.82352941,4,2,12,,,,,,,,7,05,,,,,,,,,,,6,1.539,0,,,,,,-0.122826087,-0.39673913,1,0,0,1.539,Pegmatite_rect,11,0,11,0,1,
66338fd253dbd4c5374e8a90,TCN,2024-06-11_13h10.21.391,LearnStrategy,2023.2.3,MacIntel,58.82352941,4,2,13,,,,,,,,5,11,,,,,,,,,,,5,1.054,1,,,,,,-0.338043478,-0.401086957,1,0,0,1.054,Obsidian_rect,12,0,12,0,1,
66338fd253dbd4c5374e8a90,TCN,2024-06-11_13h10.21.391,LearnStrategy,2023.2.3,MacIntel,58.82352941,4,2,14,,,,,,,,6,05,,,,,,,,,,,6,1.257,1,,,,,,-0.154347826,-0.393478261,1,0,0,1.257,Pegmatite_rect,13,0,13,0,1,
66338fd253dbd4c5374e8a90,TCN,2024-06-11_13h10.21.391,LearnStrategy,2023.2.3,MacIntel,58.82352941,4,2,15,,,,,,,,6,10,,,,,,,,,,,6,0.903,1,,,,,,-0.154347826,-0.393478261,1,0,0,0.903,Pegmatite_rect,14,0,14,0,1,
66338fd253dbd4c5374e8a90,TCN,2024-06-11_13h10.21.391,LearnStrategy,2023.2.3,MacIntel,58.82352941,4,2,16,,,,,,,,1,09,,,,,,,,,,,4,4.738,0,,,,,,0.415217391,-0.257608696,1,0,0,4.738,Gabbro_rect,15,0,15,0,1,
66338fd253dbd4c5374e8a90,TCN,2024-06-11_13h10.21.391,LearnStrategy,2023.2.3,MacIntel,58.82352941,5,1,1,0.016304348,-0.008695652,1,0,0,1.213,rock_grid_rect_2,8,16,-1,-1,1.213,0.408695652,-0.413043478,1,0,0,1.355,Pumice_rect,8,1.355,1,0,0,0,0,1,,,,,,,,,,,,,
66338fd253dbd4c5374e8a90,TCN,2024-06-11_13h10.21.391,LearnStrategy,2023.2.3,MacIntel,58.82352941,5,1,2,0.004347826,-0.016304348,1,0,0,1.814,rock_grid_rect_2,7,14,-1,-1,1.814,-0.325,-0.243478261,1,0,0,3.606,Andesite_rect,1,3.606,0,1,0,1,0,1,,,,,,,,,,,,,
66338fd253dbd4c5374e8a90,TCN,2024-06-11_13h10.21.391,LearnStrategy,2023.2.3,MacIntel,58.82352941,5,1,3,-0.004347826,-0.018478261,1,0,0,1.146,rock_grid_rect_2,6,11,-1,-1,1.146,-0.130434783,-0.395652174,1,0,0,1.573,Pegmatite_rect,6,1.573,1,2,0,2,0,1,,,,,,,,,,,,,
66338fd253dbd4c5374e8a90,TCN,2024-06-11_13h10.21.391,LearnStrategy,2023.2.3,MacIntel,58.82352941,5,1,4,0.016304348,-0.019565217,1,0,0,1.146,rock_grid_rect_2,2,01,-1,-1,1.146,-0.102173913,-0.24673913,1,0,0,2.426,Basalt_rect,2,2.426,1,3,0,3,0,1,,,,,,,,,,,,,
66338fd253dbd4c5374e8a90,TCN,2024-06-11_13h10.21.391,LearnStrategy,2023.2.3,MacIntel,58.82352941,5,1,5,0.008695652,-0.015217391,1,0,0,1.162,rock_grid_rect_2,4,10,-1,-1,1.162,0.075,-0.255434783,1,0,0,3.403,Diorite_rect,3,3.403,0,4,0,4,0,1,,,,,,,,,,,,,
66338fd253dbd4c5374e8a90,TCN,2024-06-11_13h10.21.391,LearnStrategy,2023.2.3,MacIntel,58.82352941,5,1,6,0.013043478,-0.017391304,1,0,0,0.831,rock_grid_rect_2,3,15,-1,-1,0.831,-0.364130435,-0.242391304,1,0,0,2.305,Andesite_rect,1,2.305,0,5,0,5,0,1,,,,,,,,,,,,,
66338fd253dbd4c5374e8a90,TCN,2024-06-11_13h10.21.391,LearnStrategy,2023.2.3,MacIntel,58.82352941,5,1,7,0.041304348,-0.016304348,1,0,0,0.997,rock_grid_rect_2,4,15,-1,-1,0.997,0.334782609,-0.256521739,1,0,0,2.707,Gabbro_rect,4,2.707,1,6,0,6,0,1,,,,,,,,,,,,,
66338fd253dbd4c5374e8a90,TCN,2024-06-11_13h10.21.391,LearnStrategy,2023.2.3,MacIntel,58.82352941,5,1,8,-0.034782609,-0.025,1,0,0,1.03,rock_grid_rect_2,3,09,-1,-1,1.03,0.097826087,-0.408695652,1,0,0,3.472,Peridotite_rect,7,3.472,0,7,0,7,0,1,,,,,,,,,,,,,
66338fd253dbd4c5374e8a90,TCN,2024-06-11_13h10.21.391,LearnStrategy,2023.2.3,MacIntel,58.82352941,5,1,9,0.020652174,-0.018478261,1,0,0,1.047,rock_grid_rect_2,2,02,-1,-1,1.047,-0.133695652,-0.236956522,1,0,0,1.106,Basalt_rect,2,1.106,1,8,0,8,0,1,,,,,,,,,,,,,
66338fd253dbd4c5374e8a90,TCN,2024-06-11_13h10.21.391,LearnStrategy,2023.2.3,MacIntel,58.82352941,5,1,10,0.023913043,-0.02173913,1,0,0,1.079,rock_grid_rect_2,1,04,-1,-1,1.079,0.113043478,-0.266304348,1,0,0,4.295,Diorite_rect,3,4.295,0,9,0,9,0,1,,,,,,,,,,,,,
66338fd253dbd4c5374e8a90,TCN,2024-06-11_13h10.21.391,LearnStrategy,2023.2.3,MacIntel,58.82352941,5,1,11,-0.005434783,-0.018478261,1,0,0,1.179,rock_grid_rect_2,1,05,-1,-1,1.179,0.107608696,-0.254347826,1,0,0,2.273,Diorite_rect,3,2.273,0,10,0,10,0,1,,,,,,,,,,,,,
66338fd253dbd4c5374e8a90,TCN,2024-06-11_13h10.21.391,LearnStrategy,2023.2.3,MacIntel,58.82352941,5,1,12,0.015217391,-0.02173913,1,0,0,1.012,rock_grid_rect_2,6,12,-1,-1,1.012,-0.151086957,-0.411956522,1,0,0,1.738,Pegmatite_rect,6,1.738,1,11,0,11,0,1,,,,,,,,,,,,,
66338fd253dbd4c5374e8a90,TCN,2024-06-11_13h10.21.391,LearnStrategy,2023.2.3,MacIntel,58.82352941,5,1,13,-0.001086957,-0.004347826,1,0,0,1.713,rock_grid_rect_2,5,07,-1,-1,1.713,-0.355434783,-0.409782609,1,0,0,1.139,Obsidian_rect,5,1.139,1,12,0,12,0,1,,,,,,,,,,,,,
66338fd253dbd4c5374e8a90,TCN,2024-06-11_13h10.21.391,LearnStrategy,2023.2.3,MacIntel,58.82352941,5,1,14,0.016304348,-0.014130435,1,0,0,0.897,rock_grid_rect_2,7,10,-1,-1,0.897,0.117391304,-0.392391304,1,0,0,2.14,Peridotite_rect,7,2.14,1,13,0,13,0,1,,,,,,,,,,,,,
66338fd253dbd4c5374e8a90,TCN,2024-06-11_13h10.21.391,LearnStrategy,2023.2.3,MacIntel,58.82352941,5,1,15,0.032608696,-0.025,1,0,0,0.846,rock_grid_rect_2,8,09,-1,-1,0.846,0.360869565,-0.389130435,1,0,0,1.473,Pumice_rect,8,1.473,1,14,0,14,0,1,,,,,,,,,,,,,
66338fd253dbd4c5374e8a90,TCN,2024-06-11_13h10.21.391,LearnStrategy,2023.2.3,MacIntel,58.82352941,5,1,16,0.016304348,-0.010869565,1,0,0,0.996,rock_grid_rect_2,5,14,-1,-1,0.996,-0.368478261,-0.384782609,1,0,0,1.19,Obsidian_rect,5,1.19,1,15,0,15,0,1,,,,,,,,,,,,,
66338fd253dbd4c5374e8a90,TCN,2024-06-11_13h10.21.391,LearnStrategy,2023.2.3,MacIntel,58.82352941,5,2,1,,,,,,,,7,06,,,,,,,,,,,6,5.17,0,,,,,,-0.12826087,-0.42173913,1,0,0,5.17,Pegmatite_rect,0,0,0,0,1,
66338fd253dbd4c5374e8a90,TCN,2024-06-11_13h10.21.391,LearnStrategy,2023.2.3,MacIntel,58.82352941,5,2,2,,,,,,,,5,04,,,,,,,,,,,5,1.203,1,,,,,,-0.341304348,-0.398913043,1,0,0,1.203,Obsidian_rect,1,0,1,0,1,
66338fd253dbd4c5374e8a90,TCN,2024-06-11_13h10.21.391,LearnStrategy,2023.2.3,MacIntel,58.82352941,5,2,3,,,,,,,,8,13,,,,,,,,,,,8,1.77,1,,,,,,0.359782609,-0.406521739,1,0,0,1.77,Pumice_rect,2,0,2,0,1,
66338fd253dbd4c5374e8a90,TCN,2024-06-11_13h10.21.391,LearnStrategy,2023.2.3,MacIntel,58.82352941,5,2,4,,,,,,,,2,04,,,,,,,,,,,2,1.205,1,,,,,,-0.144565217,-0.238043478,1,0,0,1.205,Basalt_rect,3,0,3,0,1,
66338fd253dbd4c5374e8a90,TCN,2024-06-11_13h10.21.391,LearnStrategy,2023.2.3,MacIntel,58.82352941,5,2,5,,,,,,,,6,06,,,,,,,,,,,6,2.653,1,,,,,,-0.166304348,-0.397826087,1,0,0,2.653,Pegmatite_rect,4,0,4,0,1,
66338fd253dbd4c5374e8a90,TCN,2024-06-11_13h10.21.391,LearnStrategy,2023.2.3,MacIntel,58.82352941,5,2,6,,,,,,,,3,14,,,,,,,,,,,1,2.756,0,,,,,,-0.343478261,-0.241304348,1,0,0,2.756,Andesite_rect,5,0,5,0,1,
66338fd253dbd4c5374e8a90,TCN,2024-06-11_13h10.21.391,LearnStrategy,2023.2.3,MacIntel,58.82352941,5,2,7,,,,,,,,5,09,,,,,,,,,,,5,1.206,1,,,,,,-0.376086957,-0.392391304,1,0,0,1.206,Obsidian_rect,6,0,6,0,1,
66338fd253dbd4c5374e8a90,TCN,2024-06-11_13h10.21.391,LearnStrategy,2023.2.3,MacIntel,58.82352941,5,2,8,,,,,,,,4,12,,,,,,,,,,,4,1.939,1,,,,,,0.381521739,-0.244565217,1,0,0,1.939,Gabbro_rect,7,0,7,0,1,
66338fd253dbd4c5374e8a90,TCN,2024-06-11_13h10.21.391,LearnStrategy,2023.2.3,MacIntel,58.82352941,5,2,9,,,,,,,,8,05,,,,,,,,,,,8,1.269,1,,,,,,0.365217391,-0.420652174,1,0,0,1.269,Pumice_rect,8,0,8,0,1,
66338fd253dbd4c5374e8a90,TCN,2024-06-11_13h10.21.391,LearnStrategy,2023.2.3,MacIntel,58.82352941,5,2,10,,,,,,,,7,07,,,,,,,,,,,7,2.004,1,,,,,,0.157608696,-0.40326087,1,0,0,2.004,Peridotite_rect,9,0,9,0,1,
66338fd253dbd4c5374e8a90,TCN,2024-06-11_13h10.21.391,LearnStrategy,2023.2.3,MacIntel,58.82352941,5,2,11,,,,,,,,1,10,,,,,,,,,,,1,4.238,1,,,,,,-0.352173913,-0.238043478,1,0,0,4.238,Andesite_rect,10,0,10,0,1,
66338fd253dbd4c5374e8a90,TCN,2024-06-11_13h10.21.391,LearnStrategy,2023.2.3,MacIntel,58.82352941,5,2,12,,,,,,,,4,11,,,,,,,,,,,4,1.67,1,,,,,,0.395652174,-0.261956522,1,0,0,1.67,Gabbro_rect,11,0,11,0,1,
66338fd253dbd4c5374e8a90,TCN,2024-06-11_13h10.21.391,LearnStrategy,2023.2.3,MacIntel,58.82352941,5,2,13,,,,,,,,3,16,,,,,,,,,,,3,1.638,1,,,,,,0.195652174,-0.261956522,1,0,0,1.638,Diorite_rect,12,0,12,0,1,
66338fd253dbd4c5374e8a90,TCN,2024-06-11_13h10.21.391,LearnStrategy,2023.2.3,MacIntel,58.82352941,5,2,14,,,,,,,,2,08,,,,,,,,,,,2,1.187,1,,,,,,-0.057608696,-0.259782609,1,0,0,1.187,Basalt_rect,13,0,13,0,1,
66338fd253dbd4c5374e8a90,TCN,2024-06-11_13h10.21.391,LearnStrategy,2023.2.3,MacIntel,58.82352941,5,2,15,,,,,,,,1,07,,,,,,,,,,,7,1.721,0,,,,,,0.117391304,-0.419565217,1,0,0,1.721,Peridotite_rect,14,0,14,0,1,
66338fd253dbd4c5374e8a90,TCN,2024-06-11_13h10.21.391,LearnStrategy,2023.2.3,MacIntel,58.82352941,5,2,16,,,,,,,,6,16,,,,,,,,,,,6,1.271,1,,,,,,-0.064130435,-0.414130435,1,0,0,1.271,Pegmatite_rect,15,0,15,0,1,
66338fd253dbd4c5374e8a90,TCN,2024-06-11_13h10.21.391,LearnStrategy,2023.2.3,MacIntel,58.82352941,6,1,1,0.065217391,-0.014130435,1,0,0,0.929,rock_grid_rect_2,7,04,-1,-1,0.929,-0.418478261,-0.242391304,1,0,0,2.556,Andesite_rect,1,2.556,0,0,0,0,0,1,,,,,,,,,,,,,
66338fd253dbd4c5374e8a90,TCN,2024-06-11_13h10.21.391,LearnStrategy,2023.2.3,MacIntel,58.82352941,6,1,2,0.002173913,-0.020652174,1,0,0,1.096,rock_grid_rect_2,1,03,-1,-1,1.096,0.394565217,-0.256521739,1,0,0,2.858,Gabbro_rect,4,2.858,0,1,0,1,0,1,,,,,,,,,,,,,
66338fd253dbd4c5374e8a90,TCN,2024-06-11_13h10.21.391,LearnStrategy,2023.2.3,MacIntel,58.82352941,6,1,3,-0.043478261,-0.014130435,1,0,0,2.563,rock_grid_rect_2,7,15,-1,-1,2.563,0.130434783,-0.383695652,1,0,0,3.058,Peridotite_rect,7,3.058,1,2,0,2,0,1,,,,,,,,,,,,,
66338fd253dbd4c5374e8a90,TCN,2024-06-11_13h10.21.391,LearnStrategy,2023.2.3,MacIntel,58.82352941,6,1,4,0.045652174,-0.014130435,1,0,0,0.81,rock_grid_rect_2,4,08,-1,-1,0.81,0.067391304,-0.25,1,0,0,1.605,Diorite_rect,3,1.605,0,3,0,3,0,1,,,,,,,,,,,,,
66338fd253dbd4c5374e8a90,TCN,2024-06-11_13h10.21.391,LearnStrategy,2023.2.3,MacIntel,58.82352941,6,1,5,0.079347826,-0.010869565,1,0,0,0.962,rock_grid_rect_2,8,08,-1,-1,0.962,0.401086957,-0.404347826,1,0,0,1.791,Pumice_rect,8,1.791,1,4,0,4,0,1,,,,,,,,,,,,,
66338fd253dbd4c5374e8a90,TCN,2024-06-11_13h10.21.391,LearnStrategy,2023.2.3,MacIntel,58.82352941,6,1,6,0.045652174,-0.019565217,1,0,0,0.812,rock_grid_rect_2,3,13,-1,-1,0.812,0.110869565,-0.234782609,1,0,0,1.905,Diorite_rect,3,1.905,1,5,0,5,0,1,,,,,,,,,,,,,
66338fd253dbd4c5374e8a90,TCN,2024-06-11_13h10.21.391,LearnStrategy,2023.2.3,MacIntel,58.82352941,6,1,7,0.025,-0.014130435,1,0,0,1.063,rock_grid_rect_2,2,11,-1,-1,1.063,-0.085869565,-0.232608696,1,0,0,1.89,Basalt_rect,2,1.89,1,6,0,6,0,1,,,,,,,,,,,,,
66338fd253dbd4c5374e8a90,TCN,2024-06-11_13h10.21.391,LearnStrategy,2023.2.3,MacIntel,58.82352941,6,1,8,0.02826087,0.001086957,1,0,0,1.017,rock_grid_rect_2,5,05,-1,-1,1.017,-0.363043478,-0.384782609,1,0,0,1.221,Obsidian_rect,5,1.221,1,7,0,7,0,1,,,,,,,,,,,,,
66338fd253dbd4c5374e8a90,TCN,2024-06-11_13h10.21.391,LearnStrategy,2023.2.3,MacIntel,58.82352941,6,1,9,-0.038043478,-0.02173913,1,0,0,0.83,rock_grid_rect_2,1,11,-1,-1,0.83,-0.340217391,-0.259782609,1,0,0,3.056,Andesite_rect,1,3.056,1,8,0,8,0,1,,,,,,,,,,,,,
66338fd253dbd4c5374e8a90,TCN,2024-06-11_13h10.21.391,LearnStrategy,2023.2.3,MacIntel,58.82352941,6,1,10,-0.023913043,-0.015217391,1,0,0,0.846,rock_grid_rect_2,6,13,-1,-1,0.846,0.097826087,-0.401086957,1,0,0,3.173,Peridotite_rect,7,3.173,0,9,0,9,0,1,,,,,,,,,,,,,
66338fd253dbd4c5374e8a90,TCN,2024-06-11_13h10.21.391,LearnStrategy,2023.2.3,MacIntel,58.82352941,6,1,11,0.040217391,-0.011956522,1,0,0,0.964,rock_grid_rect_2,3,11,-1,-1,0.964,0.105434783,-0.248913043,1,0,0,1.272,Diorite_rect,3,1.272,1,10,0,10,0,1,,,,,,,,,,,,,
66338fd253dbd4c5374e8a90,TCN,2024-06-11_13h10.21.391,LearnStrategy,2023.2.3,MacIntel,58.82352941,6,1,12,-0.007608696,-0.02173913,1,0,0,1.061,rock_grid_rect_2,8,14,-1,-1,1.061,0.360869565,-0.415217391,1,0,0,1.073,Pumice_rect,8,1.073,1,11,0,11,0,1,,,,,,,,,,,,,
66338fd253dbd4c5374e8a90,TCN,2024-06-11_13h10.21.391,LearnStrategy,2023.2.3,MacIntel,58.82352941,6,1,13,0.014130435,0.02173913,1,0,0,0.844,rock_grid_rect_2,5,02,-1,-1,0.844,-0.394565217,-0.397826087,1,0,0,1.04,Obsidian_rect,5,1.04,1,12,0,12,0,1,,,,,,,,,,,,,
66338fd253dbd4c5374e8a90,TCN,2024-06-11_13h10.21.391,LearnStrategy,2023.2.3,MacIntel,58.82352941,6,1,14,-0.013043478,0.011956522,1,0,0,0.763,rock_grid_rect_2,4,16,-1,-1,0.763,0.115217391,-0.254347826,1,0,0,6.022,Diorite_rect,3,6.022,0,13,0,13,0,1,,,,,,,,,,,,,
66338fd253dbd4c5374e8a90,TCN,2024-06-11_13h10.21.391,LearnStrategy,2023.2.3,MacIntel,58.82352941,6,1,15,0.026086957,-0.005434783,1,0,0,0.847,rock_grid_rect_2,6,03,-1,-1,0.847,-0.159782609,-0.416304348,1,0,0,1.574,Pegmatite_rect,6,1.574,1,14,0,14,0,1,,,,,,,,,,,,,
66338fd253dbd4c5374e8a90,TCN,2024-06-11_13h10.21.391,LearnStrategy,2023.2.3,MacIntel,58.82352941,6,1,16,0.040217391,0.004347826,1,0,0,0.85,rock_grid_rect_2,2,05,-1,-1,0.85,-0.168478261,-0.238043478,1,0,0,2.37,Basalt_rect,2,2.37,1,15,0,15,0,1,,,,,,,,,,,,,
66338fd253dbd4c5374e8a90,TCN,2024-06-11_13h10.21.391,LearnStrategy,2023.2.3,MacIntel,58.82352941,6,2,1,,,,,,,,6,08,,,,,,,,,,,6,2.053,1,,,,,,-0.151086957,-0.410869565,1,0,0,2.053,Pegmatite_rect,0,0,0,0,1,
66338fd253dbd4c5374e8a90,TCN,2024-06-11_13h10.21.391,LearnStrategy,2023.2.3,MacIntel,58.82352941,6,2,2,,,,,,,,4,01,,,,,,,,,,,1,3.186,0,,,,,,-0.356521739,-0.25326087,1,0,0,3.186,Andesite_rect,1,0,1,0,1,
66338fd253dbd4c5374e8a90,TCN,2024-06-11_13h10.21.391,LearnStrategy,2023.2.3,MacIntel,58.82352941,6,2,3,,,,,,,,8,10,,,,,,,,,,,8,1.821,1,,,,,,0.386956522,-0.410869565,1,0,0,1.821,Pumice_rect,2,0,2,0,1,
66338fd253dbd4c5374e8a90,TCN,2024-06-11_13h10.21.391,LearnStrategy,2023.2.3,MacIntel,58.82352941,6,2,4,,,,,,,,7,12,,,,,,,,,,,3,2.406,0,,,,,,0.144565217,-0.25326087,1,0,0,2.406,Diorite_rect,3,0,3,0,1,
66338fd253dbd4c5374e8a90,TCN,2024-06-11_13h10.21.391,LearnStrategy,2023.2.3,MacIntel,58.82352941,6,2,5,,,,,,,,6,07,,,,,,,,,,,6,1.77,1,,,,,,-0.118478261,-0.414130435,1,0,0,1.77,Pegmatite_rect,4,0,4,0,1,
66338fd253dbd4c5374e8a90,TCN,2024-06-11_13h10.21.391,LearnStrategy,2023.2.3,MacIntel,58.82352941,6,2,6,,,,,,,,4,09,,,,,,,,,,,4,4.407,1,,,,,,0.427173913,-0.255434783,1,0,0,4.407,Gabbro_rect,5,0,5,0,1,
66338fd253dbd4c5374e8a90,TCN,2024-06-11_13h10.21.391,LearnStrategy,2023.2.3,MacIntel,58.82352941,6,2,7,,,,,,,,5,06,,,,,,,,,,,5,1.238,1,,,,,,-0.409782609,-0.417391304,1,0,0,1.238,Obsidian_rect,6,0,6,0,1,
66338fd253dbd4c5374e8a90,TCN,2024-06-11_13h10.21.391,LearnStrategy,2023.2.3,MacIntel,58.82352941,6,2,8,,,,,,,,1,02,,,,,,,,,,,1,3.388,1,,,,,,-0.39673913,-0.251086957,1,0,0,3.388,Andesite_rect,7,0,7,0,1,
66338fd253dbd4c5374e8a90,TCN,2024-06-11_13h10.21.391,LearnStrategy,2023.2.3,MacIntel,58.82352941,6,2,9,,,,,,,,5,12,,,,,,,,,,,5,1.285,1,,,,,,-0.385869565,-0.397826087,1,0,0,1.285,Obsidian_rect,8,0,8,0,1,
66338fd253dbd4c5374e8a90,TCN,2024-06-11_13h10.21.391,LearnStrategy,2023.2.3,MacIntel,58.82352941,6,2,10,,,,,,,,8,03,,,,,,,,,,,8,2.77,1,,,,,,0.398913043,-0.405434783,1,0,0,2.77,Pumice_rect,9,0,9,0,1,
66338fd253dbd4c5374e8a90,TCN,2024-06-11_13h10.21.391,LearnStrategy,2023.2.3,MacIntel,58.82352941,6,2,11,,,,,,,,2,10,,,,,,,,,,,2,2.422,1,,,,,,-0.1,-0.261956522,1,0,0,2.422,Basalt_rect,10,0,10,0,1,
66338fd253dbd4c5374e8a90,TCN,2024-06-11_13h10.21.391,LearnStrategy,2023.2.3,MacIntel,58.82352941,6,2,12,,,,,,,,3,12,,,,,,,,,,,3,2.354,1,,,,,,0.114130435,-0.258695652,1,0,0,2.354,Diorite_rect,11,0,11,0,1,
66338fd253dbd4c5374e8a90,TCN,2024-06-11_13h10.21.391,LearnStrategy,2023.2.3,MacIntel,58.82352941,6,2,13,,,,,,,,1,14,,,,,,,,,,,1,4.472,1,,,,,,-0.336956522,-0.247826087,1,0,0,4.472,Andesite_rect,12,0,12,0,1,
66338fd253dbd4c5374e8a90,TCN,2024-06-11_13h10.21.391,LearnStrategy,2023.2.3,MacIntel,58.82352941,6,2,14,,,,,,,,7,02,,,,,,,,,,,7,3.988,1,,,,,,0.105434783,-0.384782609,1,0,0,3.988,Peridotite_rect,13,0,13,0,1,
66338fd253dbd4c5374e8a90,TCN,2024-06-11_13h10.21.391,LearnStrategy,2023.2.3,MacIntel,58.82352941,6,2,15,,,,,,,,2,16,,,,,,,,,,,4,4.918,0,,,,,,0.370652174,-0.263043478,1,0,0,4.918,Gabbro_rect,14,0,14,0,1,
66338fd253dbd4c5374e8a90,TCN,2024-06-11_13h10.21.391,LearnStrategy,2023.2.3,MacIntel,58.82352941,6,2,16,,,,,,,,3,02,,,,,,,,,,,3,2.421,1,,,,,,0.136956522,-0.269565217,1,0,0,2.421,Diorite_rect,15,0,15,0,1,
66338fd253dbd4c5374e8a90,TCN,2024-06-11_13h10.21.391,LearnStrategy,2023.2.3,MacIntel,58.82352941,7,1,1,0.023913043,-0.008695652,1,0,0,1.147,rock_grid_rect_2,8,14,-1,-1,1.147,0.418478261,-0.39673913,1,0,0,1.489,Pumice_rect,8,1.489,1,0,0,0,0,1,,,,,,,,,,,,,
66338fd253dbd4c5374e8a90,TCN,2024-06-11_13h10.21.391,LearnStrategy,2023.2.3,MacIntel,58.82352941,7,1,2,-0.002173913,-0.013043478,1,0,0,1.98,rock_grid_rect_2,3,15,-1,-1,1.98,0.390217391,-0.230434783,1,0,0,2.14,Gabbro_rect,4,2.14,0,1,0,1,0,1,,,,,,,,,,,,,
66338fd253dbd4c5374e8a90,TCN,2024-06-11_13h10.21.391,LearnStrategy,2023.2.3,MacIntel,58.82352941,7,1,3,0.055434783,0.00326087,1,0,0,0.714,rock_grid_rect_2,4,15,-1,-1,0.714,0.358695652,-0.230434783,1,0,0,1.555,Gabbro_rect,4,1.555,1,2,0,2,0,1,,,,,,,,,,,,,
66338fd253dbd4c5374e8a90,TCN,2024-06-11_13h10.21.391,LearnStrategy,2023.2.3,MacIntel,58.82352941,7,1,4,-0.00326087,-0.007608696,1,0,0,0.781,rock_grid_rect_2,1,03,-1,-1,0.781,-0.135869565,-0.241304348,1,0,0,1.506,Basalt_rect,2,1.506,0,3,0,3,0,1,,,,,,,,,,,,,
66338fd253dbd4c5374e8a90,TCN,2024-06-11_13h10.21.391,LearnStrategy,2023.2.3,MacIntel,58.82352941,7,1,5,0.018478261,0.007608696,1,0,0,0.912,rock_grid_rect_2,7,13,-1,-1,0.912,0.119565217,-0.234782609,1,0,0,1.372,Diorite_rect,3,1.372,0,4,0,4,0,1,,,,,,,,,,,,,
66338fd253dbd4c5374e8a90,TCN,2024-06-11_13h10.21.391,LearnStrategy,2023.2.3,MacIntel,58.82352941,7,1,6,0.004347826,-0.02173913,1,0,0,1.063,rock_grid_rect_2,2,11,-1,-1,1.063,-0.376086957,-0.260869565,1,0,0,3.756,Andesite_rect,1,3.756,0,5,0,5,0,1,,,,,,,,,,,,,
66338fd253dbd4c5374e8a90,TCN,2024-06-11_13h10.21.391,LearnStrategy,2023.2.3,MacIntel,58.82352941,7,1,7,0.007608696,-0.011956522,1,0,0,1.145,rock_grid_rect_2,6,03,-1,-1,1.145,-0.136956522,-0.398913043,1,0,0,1.623,Pegmatite_rect,6,1.623,1,6,0,6,0,1,,,,,,,,,,,,,
66338fd253dbd4c5374e8a90,TCN,2024-06-11_13h10.21.391,LearnStrategy,2023.2.3,MacIntel,58.82352941,7,1,8,0.001086957,0.019565217,1,0,0,0.863,rock_grid_rect_2,6,13,-1,-1,0.863,-0.166304348,-0.413043478,1,0,0,1.397,Pegmatite_rect,6,1.397,1,7,0,7,0,1,,,,,,,,,,,,,
66338fd253dbd4c5374e8a90,TCN,2024-06-11_13h10.21.391,LearnStrategy,2023.2.3,MacIntel,58.82352941,7,1,9,0,-0.008695652,1,0,0,0.712,rock_grid_rect_2,5,16,-1,-1,0.712,-0.376086957,-0.380434783,1,0,0,1.106,Obsidian_rect,5,1.106,1,8,0,8,0,1,,,,,,,,,,,,,
66338fd253dbd4c5374e8a90,TCN,2024-06-11_13h10.21.391,LearnStrategy,2023.2.3,MacIntel,58.82352941,7,1,10,0.019565217,-0.019565217,1,0,0,0.863,rock_grid_rect_2,2,09,-1,-1,0.863,-0.123913043,-0.252173913,1,0,0,1.205,Basalt_rect,2,1.205,1,9,0,9,0,1,,,,,,,,,,,,,
66338fd253dbd4c5374e8a90,TCN,2024-06-11_13h10.21.391,LearnStrategy,2023.2.3,MacIntel,58.82352941,7,1,11,-0.006521739,-0.001086957,1,0,0,0.831,rock_grid_rect_2,8,09,-1,-1,0.831,0.361956522,-0.385869565,1,0,0,1.391,Pumice_rect,8,1.391,1,10,0,10,0,1,,,,,,,,,,,,,
66338fd253dbd4c5374e8a90,TCN,2024-06-11_13h10.21.391,LearnStrategy,2023.2.3,MacIntel,58.82352941,7,1,12,-0.005434783,-0.004347826,1,0,0,1.03,rock_grid_rect_2,5,10,-1,-1,1.03,-0.365217391,-0.386956522,1,0,0,1.105,Obsidian_rect,5,1.105,1,11,0,11,0,1,,,,,,,,,,,,,
66338fd253dbd4c5374e8a90,TCN,2024-06-11_13h10.21.391,LearnStrategy,2023.2.3,MacIntel,58.82352941,7,1,13,-0.022826087,0.013043478,1,0,0,0.781,rock_grid_rect_2,4,10,-1,-1,0.781,0.354347826,-0.241304348,1,0,0,1.471,Gabbro_rect,4,1.471,1,12,0,12,0,1,,,,,,,,,,,,,
66338fd253dbd4c5374e8a90,TCN,2024-06-11_13h10.21.391,LearnStrategy,2023.2.3,MacIntel,58.82352941,7,1,14,0.009782609,-0.022826087,1,0,0,1.028,rock_grid_rect_2,1,04,-1,-1,1.028,-0.369565217,-0.257608696,1,0,0,1.889,Andesite_rect,1,1.889,1,13,0,13,0,1,,,,,,,,,,,,,
66338fd253dbd4c5374e8a90,TCN,2024-06-11_13h10.21.391,LearnStrategy,2023.2.3,MacIntel,58.82352941,7,1,15,0.036956522,-0.007608696,1,0,0,0.897,rock_grid_rect_2,3,07,-1,-1,0.897,0.110869565,-0.244565217,1,0,0,1.139,Diorite_rect,3,1.139,1,14,0,14,0,1,,,,,,,,,,,,,
66338fd253dbd4c5374e8a90,TCN,2024-06-11_13h10.21.391,LearnStrategy,2023.2.3,MacIntel,58.82352941,7,1,16,-0.005434783,-0.011956522,1,0,0,1.046,rock_grid_rect_2,7,04,-1,-1,1.046,0.134782609,-0.380434783,1,0,0,1.657,Peridotite_rect,7,1.657,1,15,0,15,0,1,,,,,,,,,,,,,
66338fd253dbd4c5374e8a90,TCN,2024-06-11_13h10.21.391,LearnStrategy,2023.2.3,MacIntel,58.82352941,7,2,1,,,,,,,,5,11,,,,,,,,,,,5,1.07,1,,,,,,-0.332608696,-0.379347826,1,0,0,1.07,Obsidian_rect,0,0,0,0,1,
66338fd253dbd4c5374e8a90,TCN,2024-06-11_13h10.21.391,LearnStrategy,2023.2.3,MacIntel,58.82352941,7,2,2,,,,,,,,2,04,,,,,,,,,,,2,1.254,1,,,,,,-0.152173913,-0.230434783,1,0,0,1.254,Basalt_rect,1,0,1,0,1,
66338fd253dbd4c5374e8a90,TCN,2024-06-11_13h10.21.391,LearnStrategy,2023.2.3,MacIntel,58.82352941,7,2,3,,,,,,,,1,07,,,,,,,,,,,3,1.737,0,,,,,,0.073913043,-0.257608696,1,0,0,1.737,Diorite_rect,2,0,2,0,1,
66338fd253dbd4c5374e8a90,TCN,2024-06-11_13h10.21.391,LearnStrategy,2023.2.3,MacIntel,58.82352941,7,2,4,,,,,,,,1,02,,,,,,,,,,,1,1.821,1,,,,,,-0.351086957,-0.266304348,1,0,0,1.821,Andesite_rect,3,0,3,0,1,
66338fd253dbd4c5374e8a90,TCN,2024-06-11_13h10.21.391,LearnStrategy,2023.2.3,MacIntel,58.82352941,7,2,5,,,,,,,,2,12,,,,,,,,,,,2,3.07,1,,,,,,-0.108695652,-0.247826087,1,0,0,3.07,Basalt_rect,4,0,4,0,1,
66338fd253dbd4c5374e8a90,TCN,2024-06-11_13h10.21.391,LearnStrategy,2023.2.3,MacIntel,58.82352941,7,2,6,,,,,,,,7,02,,,,,,,,,,,7,2.189,1,,,,,,0.120652174,-0.411956522,1,0,0,2.189,Peridotite_rect,5,0,5,0,1,
66338fd253dbd4c5374e8a90,TCN,2024-06-11_13h10.21.391,LearnStrategy,2023.2.3,MacIntel,58.82352941,7,2,7,,,,,,,,7,06,,,,,,,,,,,6,1.269,0,,,,,,-0.085869565,-0.411956522,1,0,0,1.269,Pegmatite_rect,6,0,6,0,1,
66338fd253dbd4c5374e8a90,TCN,2024-06-11_13h10.21.391,LearnStrategy,2023.2.3,MacIntel,58.82352941,7,2,8,,,,,,,,6,05,,,,,,,,,,,6,3.29,1,,,,,,-0.085869565,-0.411956522,1,0,0,3.29,Pegmatite_rect,7,0,7,0,1,
66338fd253dbd4c5374e8a90,TCN,2024-06-11_13h10.21.391,LearnStrategy,2023.2.3,MacIntel,58.82352941,7,2,9,,,,,,,,8,10,,,,,,,,,,,8,1.419,1,,,,,,0.409782609,-0.401086957,1,0,0,1.419,Pumice_rect,8,0,8,0,1,
66338fd253dbd4c5374e8a90,TCN,2024-06-11_13h10.21.391,LearnStrategy,2023.2.3,MacIntel,58.82352941,7,2,10,,,,,,,,4,11,,,,,,,,,,,2,1.738,0,,,,,,-0.1,-0.255434783,1,0,0,1.738,Basalt_rect,9,0,9,0,1,
66338fd253dbd4c5374e8a90,TCN,2024-06-11_13h10.21.391,LearnStrategy,2023.2.3,MacIntel,58.82352941,7,2,11,,,,,,,,6,06,,,,,,,,,,,6,1.721,1,,,,,,-0.132608696,-0.42173913,1,0,0,1.721,Pegmatite_rect,10,0,10,0,1,
66338fd253dbd4c5374e8a90,TCN,2024-06-11_13h10.21.391,LearnStrategy,2023.2.3,MacIntel,58.82352941,7,2,12,,,,,,,,5,08,,,,,,,,,,,5,1.304,1,,,,,,-0.408695652,-0.405434783,1,0,0,1.304,Obsidian_rect,11,0,11,0,1,
66338fd253dbd4c5374e8a90,TCN,2024-06-11_13h10.21.391,LearnStrategy,2023.2.3,MacIntel,58.82352941,7,2,13,,,,,,,,4,14,,,,,,,,,,,4,2.455,1,,,,,,0.430434783,-0.25326087,1,0,0,2.455,Gabbro_rect,12,0,12,0,1,
66338fd253dbd4c5374e8a90,TCN,2024-06-11_13h10.21.391,LearnStrategy,2023.2.3,MacIntel,58.82352941,7,2,14,,,,,,,,8,05,,,,,,,,,,,8,1.289,1,,,,,,0.416304348,-0.40326087,1,0,0,1.289,Pumice_rect,13,0,13,0,1,
66338fd253dbd4c5374e8a90,TCN,2024-06-11_13h10.21.391,LearnStrategy,2023.2.3,MacIntel,58.82352941,7,2,15,,,,,,,,3,14,,,,,,,,,,,3,1.474,1,,,,,,0.114130435,-0.256521739,1,0,0,1.474,Diorite_rect,14,0,14,0,1,
66338fd253dbd4c5374e8a90,TCN,2024-06-11_13h10.21.391,LearnStrategy,2023.2.3,MacIntel,58.82352941,7,2,16,,,,,,,,3,16,,,,,,,,,,,3,2.569,1,,,,,,0.114130435,-0.256521739,1,0,0,2.569,Diorite_rect,15,0,15,0,1,
66338fd253dbd4c5374e8a90,TCN,2024-06-11_13h10.21.391,LearnStrategy,2023.2.3,MacIntel,58.82352941,8,1,1,0.005434783,-0.011956522,1,0,0,0.898,rock_grid_rect_2,2,01,-1,-1,0.898,-0.095652174,-0.242391304,1,0,0,1.39,Basalt_rect,2,1.39,1,0,0,0,0,1,,,,,,,,,,,,,
66338fd253dbd4c5374e8a90,TCN,2024-06-11_13h10.21.391,LearnStrategy,2023.2.3,MacIntel,58.82352941,8,1,2,-0.002173913,-0.011956522,1,0,0,1.096,rock_grid_rect_2,7,15,-1,-1,1.096,0.123913043,-0.402173913,1,0,0,1.156,Peridotite_rect,7,1.156,1,1,0,1,0,1,,,,,,,,,,,,,
66338fd253dbd4c5374e8a90,TCN,2024-06-11_13h10.21.391,LearnStrategy,2023.2.3,MacIntel,58.82352941,8,1,3,0.016304348,-0.020652174,1,0,0,1.062,rock_grid_rect_2,5,02,-1,-1,1.062,-0.370652174,-0.404347826,1,0,0,1.623,Obsidian_rect,5,1.623,1,2,0,2,0,1,,,,,,,,,,,,,
66338fd253dbd4c5374e8a90,TCN,2024-06-11_13h10.21.391,LearnStrategy,2023.2.3,MacIntel,58.82352941,8,1,4,-0.011956522,-0.014130435,1,0,0,1.58,rock_grid_rect_2,6,11,-1,-1,1.58,-0.115217391,-0.385869565,1,0,0,1.189,Pegmatite_rect,6,1.189,1,3,0,3,0,1,,,,,,,,,,,,,
66338fd253dbd4c5374e8a90,TCN,2024-06-11_13h10.21.391,LearnStrategy,2023.2.3,MacIntel,58.82352941,8,1,5,0,-0.019565217,1,0,0,1.014,rock_grid_rect_2,5,05,-1,-1,1.014,-0.405434783,-0.411956522,1,0,0,1.257,Obsidian_rect,5,1.257,1,4,0,4,0,1,,,,,,,,,,,,,
66338fd253dbd4c5374e8a90,TCN,2024-06-11_13h10.21.391,LearnStrategy,2023.2.3,MacIntel,58.82352941,8,1,6,0.016304348,-0.02173913,1,0,0,0.997,rock_grid_rect_2,4,16,-1,-1,0.997,0.359782609,-0.236956522,1,0,0,2.391,Gabbro_rect,4,2.391,1,5,0,5,0,1,,,,,,,,,,,,,
66338fd253dbd4c5374e8a90,TCN,2024-06-11_13h10.21.391,LearnStrategy,2023.2.3,MacIntel,58.82352941,8,1,7,-0.010869565,-0.009782609,1,0,0,1.016,rock_grid_rect_2,1,05,-1,-1,1.016,-0.32173913,-0.245652174,1,0,0,1.455,Andesite_rect,1,1.455,1,6,0,6,0,1,,,,,,,,,,,,,
66338fd253dbd4c5374e8a90,TCN,2024-06-11_13h10.21.391,LearnStrategy,2023.2.3,MacIntel,58.82352941,8,1,8,0.029347826,-0.014130435,1,0,0,1.032,rock_grid_rect_2,4,05,-1,-1,1.032,0.355434783,-0.24673913,1,0,0,1.39,Gabbro_rect,4,1.39,1,7,0,7,0,1,,,,,,,,,,,,,
66338fd253dbd4c5374e8a90,TCN,2024-06-11_13h10.21.391,LearnStrategy,2023.2.3,MacIntel,58.82352941,8,1,9,-0.002173913,-0.016304348,1,0,0,1.476,rock_grid_rect_2,8,08,-1,-1,1.476,0.354347826,-0.37826087,1,0,0,1.489,Pumice_rect,8,1.489,1,8,0,8,0,1,,,,,,,,,,,,,
66338fd253dbd4c5374e8a90,TCN,2024-06-11_13h10.21.391,LearnStrategy,2023.2.3,MacIntel,58.82352941,8,1,10,0.006521739,-0.018478261,1,0,0,0.947,rock_grid_rect_2,8,06,-1,-1,0.947,0.370652174,-0.416304348,1,0,0,1.439,Pumice_rect,8,1.439,1,9,0,9,0,1,,,,,,,,,,,,,
66338fd253dbd4c5374e8a90,TCN,2024-06-11_13h10.21.391,LearnStrategy,2023.2.3,MacIntel,58.82352941,8,1,11,-0.001086957,-0.014130435,1,0,0,1.529,rock_grid_rect_2,1,11,-1,-1,1.529,0.07826087,-0.269565217,1,0,0,3.04,Diorite_rect,3,3.04,0,10,0,10,0,1,,,,,,,,,,,,,
66338fd253dbd4c5374e8a90,TCN,2024-06-11_13h10.21.391,LearnStrategy,2023.2.3,MacIntel,58.82352941,8,1,12,0.014130435,-0.009782609,1,0,0,0.997,rock_grid_rect_2,6,12,-1,-1,0.997,-0.085869565,-0.398913043,1,0,0,2.29,Pegmatite_rect,6,2.29,1,11,0,11,0,1,,,,,,,,,,,,,
66338fd253dbd4c5374e8a90,TCN,2024-06-11_13h10.21.391,LearnStrategy,2023.2.3,MacIntel,58.82352941,8,1,13,0.00326087,-0.007608696,1,0,0,0.78,rock_grid_rect_2,3,06,-1,-1,0.78,-0.32826087,-0.263043478,1,0,0,3.191,Andesite_rect,1,3.191,0,12,0,12,0,1,,,,,,,,,,,,,
66338fd253dbd4c5374e8a90,TCN,2024-06-11_13h10.21.391,LearnStrategy,2023.2.3,MacIntel,58.82352941,8,1,14,0.022826087,-0.016304348,1,0,0,0.861,rock_grid_rect_2,3,13,-1,-1,0.861,0.138043478,-0.39673913,1,0,0,1.605,Peridotite_rect,7,1.605,0,13,0,13,0,1,,,,,,,,,,,,,
66338fd253dbd4c5374e8a90,TCN,2024-06-11_13h10.21.391,LearnStrategy,2023.2.3,MacIntel,58.82352941,8,1,15,0.008695652,-0.011956522,1,0,0,1.012,rock_grid_rect_2,7,16,-1,-1,1.012,0.108695652,-0.398913043,1,0,0,2.723,Peridotite_rect,7,2.723,1,14,0,14,0,1,,,,,,,,,,,,,
66338fd253dbd4c5374e8a90,TCN,2024-06-11_13h10.21.391,LearnStrategy,2023.2.3,MacIntel,58.82352941,8,1,16,-0.001086957,0.002173913,1,0,0,1.462,rock_grid_rect_2,2,14,-1,-1,1.462,-0.339130435,-0.24673913,1,0,0,8.474,Andesite_rect,1,8.474,0,15,0,15,0,1,,,,,,,,,,,,,
66338fd253dbd4c5374e8a90,TCN,2024-06-11_13h10.21.391,LearnStrategy,2023.2.3,MacIntel,58.82352941,8,2,1,,,,,,,,6,07,,,,,,,,,,,6,1.17,1,,,,,,-0.127173913,-0.415217391,1,0,0,1.17,Pegmatite_rect,0,0,0,0,1,
66338fd253dbd4c5374e8a90,TCN,2024-06-11_13h10.21.391,LearnStrategy,2023.2.3,MacIntel,58.82352941,8,2,2,,,,,,,,7,12,,,,,,,,,,,7,2.669,1,,,,,,0.142391304,-0.405434783,1,0,0,2.669,Peridotite_rect,1,0,1,0,1,
66338fd253dbd4c5374e8a90,TCN,2024-06-11_13h10.21.391,LearnStrategy,2023.2.3,MacIntel,58.82352941,8,2,3,,,,,,,,4,12,,,,,,,,,,,4,3.055,1,,,,,,0.379347826,-0.264130435,1,0,0,3.055,Gabbro_rect,2,0,2,0,1,
66338fd253dbd4c5374e8a90,TCN,2024-06-11_13h10.21.391,LearnStrategy,2023.2.3,MacIntel,58.82352941,8,2,4,,,,,,,,3,12,,,,,,,,,,,1,1.755,0,,,,,,-0.395652174,-0.244565217,1,0,0,1.755,Andesite_rect,3,0,3,0,1,
66338fd253dbd4c5374e8a90,TCN,2024-06-11_13h10.21.391,LearnStrategy,2023.2.3,MacIntel,58.82352941,8,2,5,,,,,,,,5,06,,,,,,,,,,,5,1.154,1,,,,,,-0.376086957,-0.409782609,1,0,0,1.154,Obsidian_rect,4,0,4,0,1,
66338fd253dbd4c5374e8a90,TCN,2024-06-11_13h10.21.391,LearnStrategy,2023.2.3,MacIntel,58.82352941,8,2,6,,,,,,,,7,08,,,,,,,,,,,7,1.473,1,,,,,,0.1,-0.405434783,1,0,0,1.473,Peridotite_rect,5,0,5,0,1,
66338fd253dbd4c5374e8a90,TCN,2024-06-11_13h10.21.391,LearnStrategy,2023.2.3,MacIntel,58.82352941,8,2,7,,,,,,,,4,09,,,,,,,,,,,3,3.656,0,,,,,,0.118478261,-0.241304348,1,0,0,3.656,Diorite_rect,6,0,6,0,1,
66338fd253dbd4c5374e8a90,TCN,2024-06-11_13h10.21.391,LearnStrategy,2023.2.3,MacIntel,58.82352941,8,2,8,,,,,,,,6,08,,,,,,,,,,,6,1.169,1,,,,,,-0.122826087,-0.417391304,1,0,0,1.169,Pegmatite_rect,7,0,7,0,1,
66338fd253dbd4c5374e8a90,TCN,2024-06-11_13h10.21.391,LearnStrategy,2023.2.3,MacIntel,58.82352941,8,2,9,,,,,,,,5,12,,,,,,,,,,,5,1.052,1,,,,,,-0.35,-0.383695652,1,0,0,1.052,Obsidian_rect,8,0,8,0,1,
66338fd253dbd4c5374e8a90,TCN,2024-06-11_13h10.21.391,LearnStrategy,2023.2.3,MacIntel,58.82352941,8,2,10,,,,,,,,1,06,,,,,,,,,,,2,1.955,0,,,,,,-0.165217391,-0.25326087,1,0,0,1.955,Basalt_rect,9,0,9,0,1,
66338fd253dbd4c5374e8a90,TCN,2024-06-11_13h10.21.391,LearnStrategy,2023.2.3,MacIntel,58.82352941,8,2,11,,,,,,,,3,10,,,,,,,,,,,1,1.47,0,,,,,,-0.370652174,-0.267391304,1,0,0,1.47,Andesite_rect,10,0,10,0,1,
66338fd253dbd4c5374e8a90,TCN,2024-06-11_13h10.21.391,LearnStrategy,2023.2.3,MacIntel,58.82352941,8,2,12,,,,,,,,2,08,,,,,,,,,,,2,1.339,1,,,,,,-0.14673913,-0.238043478,1,0,0,1.339,Basalt_rect,11,0,11,0,1,
66338fd253dbd4c5374e8a90,TCN,2024-06-11_13h10.21.391,LearnStrategy,2023.2.3,MacIntel,58.82352941,8,2,13,,,,,,,,2,06,,,,,,,,,,,2,0.904,1,,,,,,-0.14673913,-0.238043478,1,0,0,0.904,Basalt_rect,12,0,12,0,1,
66338fd253dbd4c5374e8a90,TCN,2024-06-11_13h10.21.391,LearnStrategy,2023.2.3,MacIntel,58.82352941,8,2,14,,,,,,,,8,02,,,,,,,,,,,8,1.256,1,,,,,,0.427173913,-0.404347826,1,0,0,1.256,Pumice_rect,13,0,13,0,1,
66338fd253dbd4c5374e8a90,TCN,2024-06-11_13h10.21.391,LearnStrategy,2023.2.3,MacIntel,58.82352941,8,2,15,,,,,,,,8,04,,,,,,,,,,,8,0.837,1,,,,,,0.427173913,-0.404347826,1,0,0,0.837,Pumice_rect,14,0,14,0,1,
66338fd253dbd4c5374e8a90,TCN,2024-06-11_13h10.21.391,LearnStrategy,2023.2.3,MacIntel,58.82352941,8,2,16,,,,,,,,1,09,,,,,,,,,,,1,6.306,1,,,,,,-0.332608696,-0.25,1,0,0,6.306,Andesite_rect,15,0,15,0,1,
66338fd253dbd4c5374e8a90,TCN,2024-06-11_13h10.21.391,LearnStrategy,2023.2.3,MacIntel,58.82352941,9,1,1,-0.009782609,0.005434783,1,0,0,0.929,rock_grid_rect_2,4,08,-1,-1,0.929,0.130434783,-0.240217391,1,0,0,5.522,Diorite_rect,3,5.522,0,0,0,0,0,1,,,,,,,,,,,,,
66338fd253dbd4c5374e8a90,TCN,2024-06-11_13h10.21.391,LearnStrategy,2023.2.3,MacIntel,58.82352941,9,1,2,0.014130435,-0.014130435,1,0,0,1.182,rock_grid_rect_2,5,07,-1,-1,1.182,-0.335869565,-0.388043478,1,0,0,1.205,Obsidian_rect,5,1.205,1,1,0,1,0,1,,,,,,,,,,,,,
66338fd253dbd4c5374e8a90,TCN,2024-06-11_13h10.21.391,LearnStrategy,2023.2.3,MacIntel,58.82352941,9,1,3,0.005434783,-0.010869565,1,0,0,1.031,rock_grid_rect_2,4,03,-1,-1,1.031,0.368478261,-0.22826087,1,0,0,1.44,Gabbro_rect,4,1.44,1,2,0,2,0,1,,,,,,,,,,,,,
66338fd253dbd4c5374e8a90,TCN,2024-06-11_13h10.21.391,LearnStrategy,2023.2.3,MacIntel,58.82352941,9,1,4,0.009782609,-0.011956522,1,0,0,0.963,rock_grid_rect_2,2,05,-1,-1,0.963,-0.143478261,-0.243478261,1,0,0,1.045,Basalt_rect,2,1.045,1,3,0,3,0,1,,,,,,,,,,,,,
66338fd253dbd4c5374e8a90,TCN,2024-06-11_13h10.21.391,LearnStrategy,2023.2.3,MacIntel,58.82352941,9,1,5,-0.002173913,0,1,0,0,0.847,rock_grid_rect_2,1,16,-1,-1,0.847,0.113043478,-0.235869565,1,0,0,2.957,Diorite_rect,3,2.957,0,4,0,4,0,1,,,,,,,,,,,,,
66338fd253dbd4c5374e8a90,TCN,2024-06-11_13h10.21.391,LearnStrategy,2023.2.3,MacIntel,58.82352941,9,1,6,0.018478261,-0.017391304,1,0,0,0.882,rock_grid_rect_2,8,16,-1,-1,0.882,0.402173913,-0.408695652,1,0,0,1.355,Pumice_rect,8,1.355,1,5,0,5,0,1,,,,,,,,,,,,,
66338fd253dbd4c5374e8a90,TCN,2024-06-11_13h10.21.391,LearnStrategy,2023.2.3,MacIntel,58.82352941,9,1,7,-0.019565217,-0.014130435,1,0,0,0.948,rock_grid_rect_2,2,02,-1,-1,0.948,-0.15,-0.238043478,1,0,0,1.457,Basalt_rect,2,1.457,1,6,0,6,0,1,,,,,,,,,,,,,
66338fd253dbd4c5374e8a90,TCN,2024-06-11_13h10.21.391,LearnStrategy,2023.2.3,MacIntel,58.82352941,9,1,8,0.011956522,-0.015217391,1,0,0,0.864,rock_grid_rect_2,7,14,-1,-1,0.864,0.095652174,-0.266304348,1,0,0,3.773,Diorite_rect,3,3.773,0,7,0,7,0,1,,,,,,,,,,,,,
66338fd253dbd4c5374e8a90,TCN,2024-06-11_13h10.21.391,LearnStrategy,2023.2.3,MacIntel,58.82352941,9,1,9,0.029347826,-0.025,1,0,0,0.93,rock_grid_rect_2,1,01,-1,-1,0.93,0.134782609,-0.25326087,1,0,0,1.323,Diorite_rect,3,1.323,0,8,0,8,0,1,,,,,,,,,,,,,
66338fd253dbd4c5374e8a90,TCN,2024-06-11_13h10.21.391,LearnStrategy,2023.2.3,MacIntel,58.82352941,9,1,10,0.033695652,-0.007608696,1,0,0,0.844,rock_grid_rect_2,8,15,-1,-1,0.844,0.392391304,-0.408695652,1,0,0,1.107,Pumice_rect,8,1.107,1,9,0,9,0,1,,,,,,,,,,,,,
66338fd253dbd4c5374e8a90,TCN,2024-06-11_13h10.21.391,LearnStrategy,2023.2.3,MacIntel,58.82352941,9,1,11,0.007608696,-0.016304348,1,0,0,0.93,rock_grid_rect_2,7,10,-1,-1,0.93,0.108695652,-0.407608696,1,0,0,1.291,Peridotite_rect,7,1.291,1,10,0,10,0,1,,,,,,,,,,,,,
66338fd253dbd4c5374e8a90,TCN,2024-06-11_13h10.21.391,LearnStrategy,2023.2.3,MacIntel,58.82352941,9,1,12,0.019565217,-0.005434783,1,0,0,0.83,rock_grid_rect_2,3,09,-1,-1,0.83,0.101086957,-0.239130435,1,0,0,1.224,Diorite_rect,3,1.224,1,11,0,11,0,1,,,,,,,,,,,,,
66338fd253dbd4c5374e8a90,TCN,2024-06-11_13h10.21.391,LearnStrategy,2023.2.3,MacIntel,58.82352941,9,1,13,0.008695652,-0.020652174,1,0,0,1.029,rock_grid_rect_2,6,15,-1,-1,1.029,-0.129347826,-0.392391304,1,0,0,1.039,Pegmatite_rect,6,1.039,1,12,0,12,0,1,,,,,,,,,,,,,
66338fd253dbd4c5374e8a90,TCN,2024-06-11_13h10.21.391,LearnStrategy,2023.2.3,MacIntel,58.82352941,9,1,14,-0.020652174,-0.002173913,1,0,0,0.849,rock_grid_rect_2,5,14,-1,-1,0.849,-0.391304348,-0.388043478,1,0,0,1.007,Obsidian_rect,5,1.007,1,13,0,13,0,1,,,,,,,,,,,,,
66338fd253dbd4c5374e8a90,TCN,2024-06-11_13h10.21.391,LearnStrategy,2023.2.3,MacIntel,58.82352941,9,1,15,-0.027173913,-0.008695652,1,0,0,0.964,rock_grid_rect_2,6,09,-1,-1,0.964,-0.130434783,-0.4,1,0,0,1.523,Pegmatite_rect,6,1.523,1,14,0,14,0,1,,,,,,,,,,,,,
66338fd253dbd4c5374e8a90,TCN,2024-06-11_13h10.21.391,LearnStrategy,2023.2.3,MacIntel,58.82352941,9,1,16,-0.008695652,0.013043478,1,0,0,0.862,rock_grid_rect_2,3,11,-1,-1,0.862,0.134782609,-0.264130435,1,0,0,1.172,Diorite_rect,3,1.172,1,15,0,15,0,1,,,,,,,,,,,,,
66338fd253dbd4c5374e8a90,TCN,2024-06-11_13h10.21.391,LearnStrategy,2023.2.3,MacIntel,58.82352941,9,2,1,,,,,,,,4,13,,,,,,,,,,,4,2.57,1,,,,,,0.411956522,-0.235869565,1,0,0,2.57,Gabbro_rect,0,0,0,0,1,
66338fd253dbd4c5374e8a90,TCN,2024-06-11_13h10.21.391,LearnStrategy,2023.2.3,MacIntel,58.82352941,9,2,2,,,,,,,,5,04,,,,,,,,,,,5,1.087,1,,,,,,-0.345652174,-0.388043478,1,0,0,1.087,Obsidian_rect,1,0,1,0,1,
66338fd253dbd4c5374e8a90,TCN,2024-06-11_13h10.21.391,LearnStrategy,2023.2.3,MacIntel,58.82352941,9,2,3,,,,,,,,7,07,,,,,,,,,,,7,1.37,1,,,,,,0.144565217,-0.418478261,1,0,0,1.37,Peridotite_rect,2,0,2,0,1,
66338fd253dbd4c5374e8a90,TCN,2024-06-11_13h10.21.391,LearnStrategy,2023.2.3,MacIntel,58.82352941,9,2,4,,,,,,,,1,14,,,,,,,,,,,3,5.807,0,,,,,,0.125,-0.247826087,1,0,0,5.807,Diorite_rect,3,0,3,0,1,
66338fd253dbd4c5374e8a90,TCN,2024-06-11_13h10.21.391,LearnStrategy,2023.2.3,MacIntel,58.82352941,9,2,5,,,,,,,,6,10,,,,,,,,,,,6,1.12,1,,,,,,-0.158695652,-0.384782609,1,0,0,1.12,Pegmatite_rect,4,0,4,0,1,
66338fd253dbd4c5374e8a90,TCN,2024-06-11_13h10.21.391,LearnStrategy,2023.2.3,MacIntel,58.82352941,9,2,6,,,,,,,,8,13,,,,,,,,,,,8,1.355,1,,,,,,0.433695652,-0.410869565,1,0,0,1.355,Pumice_rect,5,0,5,0,1,
66338fd253dbd4c5374e8a90,TCN,2024-06-11_13h10.21.391,LearnStrategy,2023.2.3,MacIntel,58.82352941,9,2,7,,,,,,,,7,05,,,,,,,,,,,7,1.389,1,,,,,,0.12826087,-0.418478261,1,0,0,1.389,Peridotite_rect,6,0,6,0,1,
66338fd253dbd4c5374e8a90,TCN,2024-06-11_13h10.21.391,LearnStrategy,2023.2.3,MacIntel,58.82352941,9,2,8,,,,,,,,2,10,,,,,,,,,,,2,3.019,1,,,,,,-0.085869565,-0.255434783,1,0,0,3.019,Basalt_rect,7,0,7,0,1,
66338fd253dbd4c5374e8a90,TCN,2024-06-11_13h10.21.391,LearnStrategy,2023.2.3,MacIntel,58.82352941,9,2,9,,,,,,,,2,16,,,,,,,,,,,2,5.02,1,,,,,,-0.12173913,-0.257608696,1,0,0,5.02,Basalt_rect,8,0,8,0,1,
66338fd253dbd4c5374e8a90,TCN,2024-06-11_13h10.21.391,LearnStrategy,2023.2.3,MacIntel,58.82352941,9,2,10,,,,,,,,4,01,,,,,,,,,,,7,2.173,0,,,,,,0.142391304,-0.405434783,1,0,0,2.173,Peridotite_rect,9,0,9,0,1,
66338fd253dbd4c5374e8a90,TCN,2024-06-11_13h10.21.391,LearnStrategy,2023.2.3,MacIntel,58.82352941,9,2,11,,,,,,,,1,10,,,,,,,,,,,3,1.437,0,,,,,,0.12826087,-0.261956522,1,0,0,1.437,Diorite_rect,10,0,10,0,1,
66338fd253dbd4c5374e8a90,TCN,2024-06-11_13h10.21.391,LearnStrategy,2023.2.3,MacIntel,58.82352941,9,2,12,,,,,,,,3,08,,,,,,,,,,,3,1.971,1,,,,,,0.12826087,-0.261956522,1,0,0,1.971,Diorite_rect,11,0,11,0,1,
66338fd253dbd4c5374e8a90,TCN,2024-06-11_13h10.21.391,LearnStrategy,2023.2.3,MacIntel,58.82352941,9,2,13,,,,,,,,5,09,,,,,,,,,,,5,1.421,1,,,,,,-0.389130435,-0.416304348,1,0,0,1.421,Obsidian_rect,12,0,12,0,1,
66338fd253dbd4c5374e8a90,TCN,2024-06-11_13h10.21.391,LearnStrategy,2023.2.3,MacIntel,58.82352941,9,2,14,,,,,,,,6,16,,,,,,,,,,,6,1.655,1,,,,,,-0.17826087,-0.415217391,1,0,0,1.655,Pegmatite_rect,13,0,13,0,1,
66338fd253dbd4c5374e8a90,TCN,2024-06-11_13h10.21.391,LearnStrategy,2023.2.3,MacIntel,58.82352941,9,2,15,,,,,,,,8,03,,,,,,,,,,,8,1.488,1,,,,,,0.413043478,-0.418478261,1,0,0,1.488,Pumice_rect,14,0,14,0,1,
66338fd253dbd4c5374e8a90,TCN,2024-06-11_13h10.21.391,LearnStrategy,2023.2.3,MacIntel,58.82352941,9,2,16,,,,,,,,3,02,,,,,,,,,,,1,3.274,0,,,,,,-0.388043478,-0.239130435,1,0,0,3.274,Andesite_rect,15,0,15,0,1,
66338fd253dbd4c5374e8a90,TCN,2024-06-11_13h10.21.391,LearnStrategy,2023.2.3,MacIntel,58.82352941,,,,,,,,,,,,,,,,,,,,,,,,,,,,,,,,,,,,,,,,,,,1
66338fd253dbd4c5374e8a90,TCN,2024-06-11_13h10.21.391,LearnStrategy,2023.2.3,MacIntel,58.82352941,,,,,,,,,,,,,,,,,,,,,,,,,,,,,,,,,,,,,,,,,,,
66338fd253dbd4c5374e8a90,TCN,2024-06-11_13h10.21.391,LearnStrategy,2023.2.3,MacIntel,58.82352941,,,,,,,,,,,2,09,1,1,,,,,,,,,,,,,,,,,,,,,,,,,,,,,
66338fd253dbd4c5374e8a90,TCN,2024-06-11_13h10.21.391,LearnStrategy,2023.2.3,MacIntel,58.82352941,,,,,,,,,,,3,13,1,2,,,,,,,,,,,,,,,,,,,,,,,,,,,,,
66338fd253dbd4c5374e8a90,TCN,2024-06-11_13h10.21.391,LearnStrategy,2023.2.3,MacIntel,58.82352941,,,,,,,,,,,6,03,1,3,,,,,,,,,,,,,,,,,,,,,,,,,,,,,
66338fd253dbd4c5374e8a90,TCN,2024-06-11_13h10.21.391,LearnStrategy,2023.2.3,MacIntel,58.82352941,,,,,,,,,,,8,09,1,4,,,,,,,,,,,,,,,,,,,,,,,,,,,,,
66338fd253dbd4c5374e8a90,TCN,2024-06-11_13h10.21.391,LearnStrategy,2023.2.3,MacIntel,58.82352941,,,,,,,,,,,4,05,1,5,,,,,,,,,,,,,,,,,,,,,,,,,,,,,
66338fd253dbd4c5374e8a90,TCN,2024-06-11_13h10.21.391,LearnStrategy,2023.2.3,MacIntel,58.82352941,,,,,,,,,,,5,10,1,6,,,,,,,,,,,,,,,,,,,,,,,,,,,,,
66338fd253dbd4c5374e8a90,TCN,2024-06-11_13h10.21.391,LearnStrategy,2023.2.3,MacIntel,58.82352941,,,,,,,,,,,7,16,1,7,,,,,,,,,,,,,,,,,,,,,,,,,,,,,
66338fd253dbd4c5374e8a90,TCN,2024-06-11_13h10.21.391,LearnStrategy,2023.2.3,MacIntel,58.82352941,,,,,,,,,,,1,04,1,8,,,,,,,,,,,,,,,,,,,,,,,,,,,,,
66338fd253dbd4c5374e8a90,TCN,2024-06-11_13h10.21.391,LearnStrategy,2023.2.3,MacIntel,58.82352941,,,,,,,,,,,4,16,2,1,,,,,,,,,,,,,,,,,,,,,,,,,,,,,
66338fd253dbd4c5374e8a90,TCN,2024-06-11_13h10.21.391,LearnStrategy,2023.2.3,MacIntel,58.82352941,,,,,,,,,,,7,13,2,2,,,,,,,,,,,,,,,,,,,,,,,,,,,,,
66338fd253dbd4c5374e8a90,TCN,2024-06-11_13h10.21.391,LearnStrategy,2023.2.3,MacIntel,58.82352941,,,,,,,,,,,1,01,2,3,,,,,,,,,,,,,,,,,,,,,,,,,,,,,
66338fd253dbd4c5374e8a90,TCN,2024-06-11_13h10.21.391,LearnStrategy,2023.2.3,MacIntel,58.82352941,,,,,,,,,,,8,06,2,4,,,,,,,,,,,,,,,,,,,,,,,,,,,,,
66338fd253dbd4c5374e8a90,TCN,2024-06-11_13h10.21.391,LearnStrategy,2023.2.3,MacIntel,58.82352941,,,,,,,,,,,3,15,2,5,,,,,,,,,,,,,,,,,,,,,,,,,,,,,
66338fd253dbd4c5374e8a90,TCN,2024-06-11_13h10.21.391,LearnStrategy,2023.2.3,MacIntel,58.82352941,,,,,,,,,,,7,04,2,6,,,,,,,,,,,,,,,,,,,,,,,,,,,,,
66338fd253dbd4c5374e8a90,TCN,2024-06-11_13h10.21.391,LearnStrategy,2023.2.3,MacIntel,58.82352941,,,,,,,,,,,5,02,2,7,,,,,,,,,,,,,,,,,,,,,,,,,,,,,
66338fd253dbd4c5374e8a90,TCN,2024-06-11_13h10.21.391,LearnStrategy,2023.2.3,MacIntel,58.82352941,,,,,,,,,,,8,08,2,8,,,,,,,,,,,,,,,,,,,,,,,,,,,,,
66338fd253dbd4c5374e8a90,TCN,2024-06-11_13h10.21.391,LearnStrategy,2023.2.3,MacIntel,58.82352941,,,,,,,,,,,5,14,3,1,,,,,,,,,,,,,,,,,,,,,,,,,,,,,
66338fd253dbd4c5374e8a90,TCN,2024-06-11_13h10.21.391,LearnStrategy,2023.2.3,MacIntel,58.82352941,,,,,,,,,,,2,11,3,2,,,,,,,,,,,,,,,,,,,,,,,,,,,,,
66338fd253dbd4c5374e8a90,TCN,2024-06-11_13h10.21.391,LearnStrategy,2023.2.3,MacIntel,58.82352941,,,,,,,,,,,4,03,3,3,,,,,,,,,,,,,,,,,,,,,,,,,,,,,
66338fd253dbd4c5374e8a90,TCN,2024-06-11_13h10.21.391,LearnStrategy,2023.2.3,MacIntel,58.82352941,,,,,,,,,,,3,09,3,4,,,,,,,,,,,,,,,,,,,,,,,,,,,,,
66338fd253dbd4c5374e8a90,TCN,2024-06-11_13h10.21.391,LearnStrategy,2023.2.3,MacIntel,58.82352941,,,,,,,,,,,6,15,3,5,,,,,,,,,,,,,,,,,,,,,,,,,,,,,
66338fd253dbd4c5374e8a90,TCN,2024-06-11_13h10.21.391,LearnStrategy,2023.2.3,MacIntel,58.82352941,,,,,,,,,,,8,14,3,6,,,,,,,,,,,,,,,,,,,,,,,,,,,,,
66338fd253dbd4c5374e8a90,TCN,2024-06-11_13h10.21.391,LearnStrategy,2023.2.3,MacIntel,58.82352941,,,,,,,,,,,5,07,3,7,,,,,,,,,,,,,,,,,,,,,,,,,,,,,
66338fd253dbd4c5374e8a90,TCN,2024-06-11_13h10.21.391,LearnStrategy,2023.2.3,MacIntel,58.82352941,,,,,,,,,,,4,10,3,8,,,,,,,,,,,,,,,,,,,,,,,,,,,,,
66338fd253dbd4c5374e8a90,TCN,2024-06-11_13h10.21.391,LearnStrategy,2023.2.3,MacIntel,58.82352941,,,,,,,,,,,6,12,4,1,,,,,,,,,,,,,,,,,,,,,,,,,,,,,
66338fd253dbd4c5374e8a90,TCN,2024-06-11_13h10.21.391,LearnStrategy,2023.2.3,MacIntel,58.82352941,,,,,,,,,,,8,16,4,2,,,,,,,,,,,,,,,,,,,,,,,,,,,,,
66338fd253dbd4c5374e8a90,TCN,2024-06-11_13h10.21.391,LearnStrategy,2023.2.3,MacIntel,58.82352941,,,,,,,,,,,5,16,4,3,,,,,,,,,,,,,,,,,,,,,,,,,,,,,
66338fd253dbd4c5374e8a90,TCN,2024-06-11_13h10.21.391,LearnStrategy,2023.2.3,MacIntel,58.82352941,,,,,,,,,,,1,05,4,4,,,,,,,,,,,,,,,,,,,,,,,,,,,,,
66338fd253dbd4c5374e8a90,TCN,2024-06-11_13h10.21.391,LearnStrategy,2023.2.3,MacIntel,58.82352941,,,,,,,,,,,6,09,4,5,,,,,,,,,,,,,,,,,,,,,,,,,,,,,
66338fd253dbd4c5374e8a90,TCN,2024-06-11_13h10.21.391,LearnStrategy,2023.2.3,MacIntel,58.82352941,,,,,,,,,,,6,11,4,6,,,,,,,,,,,,,,,,,,,,,,,,,,,,,
66338fd253dbd4c5374e8a90,TCN,2024-06-11_13h10.21.391,LearnStrategy,2023.2.3,MacIntel,58.82352941,,,,,,,,,,,3,11,4,7,,,,,,,,,,,,,,,,,,,,,,,,,,,,,
66338fd253dbd4c5374e8a90,TCN,2024-06-11_13h10.21.391,LearnStrategy,2023.2.3,MacIntel,58.82352941,,,,,,,,,,,7,10,4,8,,,,,,,,,,,,,,,,,,,,,,,,,,,,,
66338fd253dbd4c5374e8a90,TCN,2024-06-11_13h10.21.391,LearnStrategy,2023.2.3,MacIntel,58.82352941,,,,,,,,,,,4,15,5,1,,,,,,,,,,,,,,,,,,,,,,,,,,,,,
66338fd253dbd4c5374e8a90,TCN,2024-06-11_13h10.21.391,LearnStrategy,2023.2.3,MacIntel,58.82352941,,,,,,,,,,,2,01,5,2,,,,,,,,,,,,,,,,,,,,,,,,,,,,,
66338fd253dbd4c5374e8a90,TCN,2024-06-11_13h10.21.391,LearnStrategy,2023.2.3,MacIntel,58.82352941,,,,,,,,,,,4,08,5,3,,,,,,,,,,,,,,,,,,,,,,,,,,,,,
66338fd253dbd4c5374e8a90,TCN,2024-06-11_13h10.21.391,LearnStrategy,2023.2.3,MacIntel,58.82352941,,,,,,,,,,,3,06,5,4,,,,,,,,,,,,,,,,,,,,,,,,,,,,,
66338fd253dbd4c5374e8a90,TCN,2024-06-11_13h10.21.391,LearnStrategy,2023.2.3,MacIntel,58.82352941,,,,,,,,,,,5,05,5,5,,,,,,,,,,,,,,,,,,,,,,,,,,,,,
66338fd253dbd4c5374e8a90,TCN,2024-06-11_13h10.21.391,LearnStrategy,2023.2.3,MacIntel,58.82352941,,,,,,,,,,,2,05,5,6,,,,,,,,,,,,,,,,,,,,,,,,,,,,,
66338fd253dbd4c5374e8a90,TCN,2024-06-11_13h10.21.391,LearnStrategy,2023.2.3,MacIntel,58.82352941,,,,,,,,,,,3,07,5,7,,,,,,,,,,,,,,,,,,,,,,,,,,,,,
66338fd253dbd4c5374e8a90,TCN,2024-06-11_13h10.21.391,LearnStrategy,2023.2.3,MacIntel,58.82352941,,,,,,,,,,,1,16,5,8,,,,,,,,,,,,,,,,,,,,,,,,,,,,,
66338fd253dbd4c5374e8a90,TCN,2024-06-11_13h10.21.391,LearnStrategy,2023.2.3,MacIntel,58.82352941,,,,,,,,,,,1,03,6,1,,,,,,,,,,,,,,,,,,,,,,,,,,,,,
66338fd253dbd4c5374e8a90,TCN,2024-06-11_13h10.21.391,LearnStrategy,2023.2.3,MacIntel,58.82352941,,,,,,,,,,,7,15,6,2,,,,,,,,,,,,,,,,,,,,,,,,,,,,,
66338fd253dbd4c5374e8a90,TCN,2024-06-11_13h10.21.391,LearnStrategy,2023.2.3,MacIntel,58.82352941,,,,,,,,,,,8,15,6,3,,,,,,,,,,,,,,,,,,,,,,,,,,,,,
66338fd253dbd4c5374e8a90,TCN,2024-06-11_13h10.21.391,LearnStrategy,2023.2.3,MacIntel,58.82352941,,,,,,,,,,,6,13,6,4,,,,,,,,,,,,,,,,,,,,,,,,,,,,,
66338fd253dbd4c5374e8a90,TCN,2024-06-11_13h10.21.391,LearnStrategy,2023.2.3,MacIntel,58.82352941,,,,,,,,,,,2,14,6,5,,,,,,,,,,,,,,,,,,,,,,,,,,,,,
66338fd253dbd4c5374e8a90,TCN,2024-06-11_13h10.21.391,LearnStrategy,2023.2.3,MacIntel,58.82352941,,,,,,,,,,,2,02,6,6,,,,,,,,,,,,,,,,,,,,,,,,,,,,,
66338fd253dbd4c5374e8a90,TCN,2024-06-11_13h10.21.391,LearnStrategy,2023.2.3,MacIntel,58.82352941,,,,,,,,,,,7,14,6,7,,,,,,,,,,,,,,,,,,,,,,,,,,,,,
66338fd253dbd4c5374e8a90,TCN,2024-06-11_13h10.21.391,LearnStrategy,2023.2.3,MacIntel,58.82352941,,,,,,,,,,,1,11,6,8,,,,,,,,,,,,,,,,,,,,,,,,,,,,,