participant,condition,date,expName,psychopyVersion,OS,frameRate,block,phase,trial,learn_mouse_2.x,learn_mouse_2.y,learn_mouse_2.leftButton,learn_mouse_2.midButton,learn_mouse_2.rightButton,learn_mouse_2.time,learn_mouse_2.clicked_name,cat,token,row,col,t_select,cat_mouse_l.x,cat_mouse_l.y,cat_mouse_l.leftButton,cat_mouse_l.midButton,cat_mouse_l.rightButton,cat_mouse_l.time,cat_mouse_l.clicked_name,resp,t_resp,corr,train_trials.thisRepN,train_trials.thisTrialN,train_trials.thisN,train_trials.thisIndex,train_trials.ran,cat_mouse_t.x,cat_mouse_t.y,cat_mouse_t.leftButton,cat_mouse_t.midButton,cat_mouse_t.rightButton,cat_mouse_t.time,cat_mouse_t.clicked_name,test_trials.thisRepN,test_trials.thisTrialN,test_trials.thisN,test_trials.thisIndex,test_trials.ran,Bonus
6633adcd500f96fcde309792,TCN,2024-06-24_13h45.42.614,LearnStrategy,2023.2.3,Win32,60.24096386,,,,,,,,,,,,,,,,,,,,,,,,,,,,,,,,,,,,,,,,,,,
6633adcd500f96fcde309792,TCN,2024-06-24_13h45.42.614,LearnStrategy,2023.2.3,Win32,60.24096386,1,1,1,0.032407407,-0.007407407,1,0,0,2.7314,rock_grid_rect_2,2,4,-1,-1,2.731,0.19537037,-0.259259259,1,0,0,79.7899,Diorite_rect,3,79.79,0,0,0,0,0,1,,,,,,,,,,,,,
6633adcd500f96fcde309792,TCN,2024-06-24_13h45.42.614,LearnStrategy,2023.2.3,Win32,60.24096386,1,1,2,0.082407407,-0.012962963,1,0,0,1.7651,rock_grid_rect_2,1,2,-1,-1,1.765,0.321296296,-0.385185185,1,0,0,4.7967,Pumice_rect,8,4.797,0,1,0,1,0,1,,,,,,,,,,,,,
6633adcd500f96fcde309792,TCN,2024-06-24_13h45.42.614,LearnStrategy,2023.2.3,Win32,60.24096386,1,1,3,0.072222222,-0.014814815,1,0,0,1.3218,rock_grid_rect_2,5,8,-1,-1,1.322,-0.334259259,-0.394444444,1,0,0,3.7172,Obsidian_rect,5,3.717,1,2,0,2,0,1,,,,,,,,,,,,,
6633adcd500f96fcde309792,TCN,2024-06-24_13h45.42.614,LearnStrategy,2023.2.3,Win32,60.24096386,1,1,4,-0.001851852,0.010185185,1,0,0,1.3061,rock_grid_rect_2,4,14,-1,-1,1.306,-0.330555556,-0.251851852,1,0,0,4.0443,Andesite_rect,1,4.044,0,3,0,3,0,1,,,,,,,,,,,,,
6633adcd500f96fcde309792,TCN,2024-06-24_13h45.42.614,LearnStrategy,2023.2.3,Win32,60.24096386,1,1,5,0.097222222,-0.009259259,1,0,0,1.1602,rock_grid_rect_2,6,16,-1,-1,1.16,0.147222222,-0.394444444,1,0,0,2.7001,Peridotite_rect,7,2.7,0,4,0,4,0,1,,,,,,,,,,,,,
6633adcd500f96fcde309792,TCN,2024-06-24_13h45.42.614,LearnStrategy,2023.2.3,Win32,60.24096386,1,1,6,0.056481481,-0.00462963,1,0,0,1.1577,rock_grid_rect_2,6,9,-1,-1,1.158,0.137962963,-0.249074074,1,0,0,3.8104,Diorite_rect,3,3.81,0,5,0,5,0,1,,,,,,,,,,,,,
6633adcd500f96fcde309792,TCN,2024-06-24_13h45.42.614,LearnStrategy,2023.2.3,Win32,60.24096386,1,1,7,0.025,-0.002777778,1,0,0,1.061,rock_grid_rect_2,4,11,-1,-1,1.061,0.381481481,-0.392592593,1,0,0,2.672,Pumice_rect,8,2.672,0,6,0,6,0,1,,,,,,,,,,,,,
6633adcd500f96fcde309792,TCN,2024-06-24_13h45.42.614,LearnStrategy,2023.2.3,Win32,60.24096386,1,1,8,0.061111111,0,1,0,0,1.0621,rock_grid_rect_2,8,4,-1,-1,1.062,0.342592593,-0.414814815,1,0,0,3.3341,Pumice_rect,8,3.334,1,7,0,7,0,1,,,,,,,,,,,,,
6633adcd500f96fcde309792,TCN,2024-06-24_13h45.42.614,LearnStrategy,2023.2.3,Win32,60.24096386,1,1,9,0.012037037,0.000925926,1,0,0,0.9903,rock_grid_rect_2,1,5,-1,-1,0.99,-0.386111111,-0.387037037,1,0,0,2.4502,Obsidian_rect,5,2.45,0,8,0,8,0,1,,,,,,,,,,,,,
6633adcd500f96fcde309792,TCN,2024-06-24_13h45.42.614,LearnStrategy,2023.2.3,Win32,60.24096386,1,1,10,-0.018518519,0.011111111,1,0,0,0.8499,rock_grid_rect_2,3,6,-1,-1,0.85,-0.107407407,-0.243518519,1,0,0,2.6941,Basalt_rect,2,2.694,0,9,0,9,0,1,,,,,,,,,,,,,
6633adcd500f96fcde309792,TCN,2024-06-24_13h45.42.614,LearnStrategy,2023.2.3,Win32,60.24096386,1,1,11,0.036111111,-0.017592593,1,0,0,1.1566,rock_grid_rect_2,2,16,-1,-1,1.157,0.108333333,-0.39537037,1,0,0,4.4885,Peridotite_rect,7,4.488,0,10,0,10,0,1,,,,,,,,,,,,,
6633adcd500f96fcde309792,TCN,2024-06-24_13h45.42.614,LearnStrategy,2023.2.3,Win32,60.24096386,1,1,12,-0.003703704,0.002777778,1,0,0,1.0321,rock_grid_rect_2,7,7,-1,-1,1.032,0.413888889,-0.387037037,1,0,0,2.2944,Pumice_rect,8,2.294,0,11,0,11,0,1,,,,,,,,,,,,,
6633adcd500f96fcde309792,TCN,2024-06-24_13h45.42.614,LearnStrategy,2023.2.3,Win32,60.24096386,1,1,13,0.025925926,-0.010185185,1,0,0,0.8736,rock_grid_rect_2,5,9,-1,-1,0.874,-0.362037037,-0.416666667,1,0,0,3.4777,Obsidian_rect,5,3.478,1,12,0,12,0,1,,,,,,,,,,,,,
6633adcd500f96fcde309792,TCN,2024-06-24_13h45.42.614,LearnStrategy,2023.2.3,Win32,60.24096386,1,1,14,0.006481481,-0.003703704,1,0,0,0.912,rock_grid_rect_2,7,13,-1,-1,0.912,-0.337962963,-0.248148148,1,0,0,2.0467,Andesite_rect,1,2.047,0,13,0,13,0,1,,,,,,,,,,,,,
6633adcd500f96fcde309792,TCN,2024-06-24_13h45.42.614,LearnStrategy,2023.2.3,Win32,60.24096386,1,1,15,0,-0.003703704,1,0,0,0.9248,rock_grid_rect_2,8,16,-1,-1,0.925,0.388888889,-0.388888889,1,0,0,1.7273,Pumice_rect,8,1.727,1,14,0,14,0,1,,,,,,,,,,,,,
6633adcd500f96fcde309792,TCN,2024-06-24_13h45.42.614,LearnStrategy,2023.2.3,Win32,60.24096386,1,1,16,0.002777778,-0.005555556,1,0,0,0.9564,rock_grid_rect_2,3,11,-1,-1,0.956,-0.188888889,-0.386111111,1,0,0,1.7111,Pegmatite_rect,6,1.711,0,15,0,15,0,1,,,,,,,,,,,,,
6633adcd500f96fcde309792,TCN,2024-06-24_13h45.42.614,LearnStrategy,2023.2.3,Win32,60.24096386,1,2,1,,,,,,,,7,6,,,,,,,,,,,4,7.604,0,,,,,,0.374074074,-0.247222222,1,0,0,7.6039,Gabbro_rect,0,0,0,0,1,
6633adcd500f96fcde309792,TCN,2024-06-24_13h45.42.614,LearnStrategy,2023.2.3,Win32,60.24096386,1,2,2,,,,,,,,1,6,,,,,,,,,,,8,5.419,0,,,,,,0.372222222,-0.389814815,1,0,0,5.4191,Pumice_rect,1,0,1,0,1,
6633adcd500f96fcde309792,TCN,2024-06-24_13h45.42.614,LearnStrategy,2023.2.3,Win32,60.24096386,1,2,3,,,,,,,,5,2,,,,,,,,,,,5,4.694,1,,,,,,-0.360185185,-0.385185185,1,0,0,4.6939,Obsidian_rect,2,0,2,0,1,
6633adcd500f96fcde309792,TCN,2024-06-24_13h45.42.614,LearnStrategy,2023.2.3,Win32,60.24096386,1,2,4,,,,,,,,3,13,,,,,,,,,,,2,2.36,0,,,,,,-0.143518519,-0.264814815,1,0,0,2.3598,Basalt_rect,3,0,3,0,1,
6633adcd500f96fcde309792,TCN,2024-06-24_13h45.42.614,LearnStrategy,2023.2.3,Win32,60.24096386,1,2,5,,,,,,,,8,8,,,,,,,,,,,8,1.843,1,,,,,,0.451851852,-0.382407407,1,0,0,1.8431,Pumice_rect,4,0,4,0,1,
6633adcd500f96fcde309792,TCN,2024-06-24_13h45.42.614,LearnStrategy,2023.2.3,Win32,60.24096386,1,2,6,,,,,,,,3,10,,,,,,,,,,,7,4.586,0,,,,,,0.09537037,-0.380555556,1,0,0,4.5858,Peridotite_rect,5,0,5,0,1,
6633adcd500f96fcde309792,TCN,2024-06-24_13h45.42.614,LearnStrategy,2023.2.3,Win32,60.24096386,1,2,7,,,,,,,,8,9,,,,,,,,,,,8,2.336,1,,,,,,0.411111111,-0.393518519,1,0,0,2.3358,Pumice_rect,6,0,6,0,1,
6633adcd500f96fcde309792,TCN,2024-06-24_13h45.42.614,LearnStrategy,2023.2.3,Win32,60.24096386,1,2,8,,,,,,,,5,16,,,,,,,,,,,5,1.811,1,,,,,,-0.343518519,-0.400925926,1,0,0,1.8115,Obsidian_rect,7,0,7,0,1,
6633adcd500f96fcde309792,TCN,2024-06-24_13h45.42.614,LearnStrategy,2023.2.3,Win32,60.24096386,1,2,9,,,,,,,,2,9,,,,,,,,,,,1,2.716,0,,,,,,-0.343518519,-0.238888889,1,0,0,2.7163,Andesite_rect,8,0,8,0,1,
6633adcd500f96fcde309792,TCN,2024-06-24_13h45.42.614,LearnStrategy,2023.2.3,Win32,60.24096386,1,2,10,,,,,,,,4,9,,,,,,,,,,,3,1.823,0,,,,,,0.181481481,-0.25,1,0,0,1.8228,Diorite_rect,9,0,9,0,1,
6633adcd500f96fcde309792,TCN,2024-06-24_13h45.42.614,LearnStrategy,2023.2.3,Win32,60.24096386,1,2,11,,,,,,,,2,8,,,,,,,,,,,6,2.339,0,,,,,,-0.074074074,-0.408333333,1,0,0,2.3388,Pegmatite_rect,10,0,10,0,1,
6633adcd500f96fcde309792,TCN,2024-06-24_13h45.42.614,LearnStrategy,2023.2.3,Win32,60.24096386,1,2,12,,,,,,,,1,1,,,,,,,,,,,4,1.939,0,,,,,,0.353703704,-0.243518519,1,0,0,1.9394,Gabbro_rect,11,0,11,0,1,
6633adcd500f96fcde309792,TCN,2024-06-24_13h45.42.614,LearnStrategy,2023.2.3,Win32,60.24096386,1,2,13,,,,,,,,7,4,,,,,,,,,,,7,1.703,1,,,,,,0.162962963,-0.387962963,1,0,0,1.7033,Peridotite_rect,12,0,12,0,1,
6633adcd500f96fcde309792,TCN,2024-06-24_13h45.42.614,LearnStrategy,2023.2.3,Win32,60.24096386,1,2,14,,,,,,,,6,10,,,,,,,,,,,7,13.459,0,,,,,,0.076851852,-0.400925926,1,0,0,13.459,Peridotite_rect,13,0,13,0,1,
6633adcd500f96fcde309792,TCN,2024-06-24_13h45.42.614,LearnStrategy,2023.2.3,Win32,60.24096386,1,2,15,,,,,,,,4,13,,,,,,,,,,,4,2.595,1,,,,,,0.335185185,-0.253703704,1,0,0,2.595,Gabbro_rect,14,0,14,0,1,
6633adcd500f96fcde309792,TCN,2024-06-24_13h45.42.614,LearnStrategy,2023.2.3,Win32,60.24096386,1,2,16,,,,,,,,6,3,,,,,,,,,,,6,11.076,1,,,,,,-0.069444444,-0.393518519,1,0,0,11.0757,Pegmatite_rect,15,0,15,0,1,
6633adcd500f96fcde309792,TCN,2024-06-24_13h45.42.614,LearnStrategy,2023.2.3,Win32,60.24096386,2,1,1,0.077777778,-0.007407407,1,0,0,1.58,rock_grid_rect_2,7,7,-1,-1,1.58,0.14537037,-0.242592593,1,0,0,13.0264,Diorite_rect,3,13.026,0,0,0,0,0,1,,,,,,,,,,,,,
6633adcd500f96fcde309792,TCN,2024-06-24_13h45.42.614,LearnStrategy,2023.2.3,Win32,60.24096386,2,1,2,0.052777778,-0.016666667,1,0,0,1.0584,rock_grid_rect_2,6,11,-1,-1,1.058,-0.359259259,-0.388888889,1,0,0,4.0255,Obsidian_rect,5,4.026,0,1,0,1,0,1,,,,,,,,,,,,,
6633adcd500f96fcde309792,TCN,2024-06-24_13h45.42.614,LearnStrategy,2023.2.3,Win32,60.24096386,2,1,3,0.009259259,-0.008333333,1,0,0,0.8798,rock_grid_rect_2,7,12,-1,-1,0.88,0.383333333,-0.233333333,1,0,0,2.9276,Gabbro_rect,4,2.928,0,2,0,2,0,1,,,,,,,,,,,,,
6633adcd500f96fcde309792,TCN,2024-06-24_13h45.42.614,LearnStrategy,2023.2.3,Win32,60.24096386,2,1,4,-0.021296296,-0.008333333,1,0,0,0.9332,rock_grid_rect_2,8,4,-1,-1,0.933,0.371296296,-0.37962963,1,0,0,1.4274,Pumice_rect,8,1.427,1,3,0,3,0,1,,,,,,,,,,,,,
6633adcd500f96fcde309792,TCN,2024-06-24_13h45.42.614,LearnStrategy,2023.2.3,Win32,60.24096386,2,1,5,0.000925926,-0.008333333,1,0,0,0.9474,rock_grid_rect_2,6,9,-1,-1,0.947,-0.078703704,-0.39537037,1,0,0,19.4442,Pegmatite_rect,6,19.444,1,4,0,4,0,1,,,,,,,,,,,,,
6633adcd500f96fcde309792,TCN,2024-06-24_13h45.42.614,LearnStrategy,2023.2.3,Win32,60.24096386,2,1,6,-0.012037037,-0.017592593,1,0,0,1.079,rock_grid_rect_2,3,11,-1,-1,1.079,0.080555556,-0.267592593,1,0,0,12.994,Diorite_rect,3,12.994,1,5,0,5,0,1,,,,,,,,,,,,,
6633adcd500f96fcde309792,TCN,2024-06-24_13h45.42.614,LearnStrategy,2023.2.3,Win32,60.24096386,2,1,7,0.015740741,-0.005555556,1,0,0,0.9814,rock_grid_rect_2,1,5,-1,-1,0.981,-0.312962963,-0.247222222,1,0,0,13.0273,Andesite_rect,1,13.027,1,6,0,6,0,1,,,,,,,,,,,,,
6633adcd500f96fcde309792,TCN,2024-06-24_13h45.42.614,LearnStrategy,2023.2.3,Win32,60.24096386,2,1,8,0.013888889,0.008333333,1,0,0,2.5953,rock_grid_rect_2,3,16,-1,-1,2.595,0.471296296,-0.243518519,1,0,0,13.8274,Gabbro_rect,4,13.827,0,7,0,7,0,1,,,,,,,,,,,,,
6633adcd500f96fcde309792,TCN,2024-06-24_13h45.42.614,LearnStrategy,2023.2.3,Win32,60.24096386,2,1,9,-0.003703704,0.010185185,1,0,0,0.8199,rock_grid_rect_2,4,11,-1,-1,0.82,0.32962963,-0.232407407,1,0,0,14.7761,Gabbro_rect,4,14.776,1,8,0,8,0,1,,,,,,,,,,,,,
6633adcd500f96fcde309792,TCN,2024-06-24_13h45.42.614,LearnStrategy,2023.2.3,Win32,60.24096386,2,1,10,0.014814815,-0.016666667,1,0,0,0.9963,rock_grid_rect_2,2,11,-1,-1,0.996,0.074074074,-0.401851852,1,0,0,23.0106,Peridotite_rect,7,23.011,0,9,0,9,0,1,,,,,,,,,,,,,
6633adcd500f96fcde309792,TCN,2024-06-24_13h45.42.614,LearnStrategy,2023.2.3,Win32,60.24096386,2,1,11,-0.021296296,-0.008333333,1,0,0,0.9336,rock_grid_rect_2,2,2,-1,-1,0.934,-0.369444444,-0.25,1,0,0,2.0109,Andesite_rect,1,2.011,0,10,0,10,0,1,,,,,,,,,,,,,
6633adcd500f96fcde309792,TCN,2024-06-24_13h45.42.614,LearnStrategy,2023.2.3,Win32,60.24096386,2,1,12,0.012962963,-0.014814815,1,0,0,1.0073,rock_grid_rect_2,1,10,-1,-1,1.007,-0.165740741,-0.408333333,1,0,0,2.5004,Pegmatite_rect,6,2.5,0,11,0,11,0,1,,,,,,,,,,,,,
6633adcd500f96fcde309792,TCN,2024-06-24_13h45.42.614,LearnStrategy,2023.2.3,Win32,60.24096386,2,1,13,0.02037037,-0.010185185,1,0,0,0.9596,rock_grid_rect_2,4,16,-1,-1,0.96,-0.089814815,-0.238888889,1,0,0,18.9103,Basalt_rect,2,18.91,0,12,0,12,0,1,,,,,,,,,,,,,
6633adcd500f96fcde309792,TCN,2024-06-24_13h45.42.614,LearnStrategy,2023.2.3,Win32,60.24096386,2,1,14,0.006481481,-0.013888889,1,0,0,0.9916,rock_grid_rect_2,1,16,-1,-1,0.992,0.144444444,-0.410185185,1,0,0,2.7098,Peridotite_rect,7,2.71,0,13,0,13,0,1,,,,,,,,,,,,,
6633adcd500f96fcde309792,TCN,2024-06-24_13h45.42.614,LearnStrategy,2023.2.3,Win32,60.24096386,2,1,15,0.011111111,-0.016666667,1,0,0,0.9304,rock_grid_rect_2,3,16,-1,-1,0.93,0.101851852,-0.261111111,1,0,0,2.4777,Diorite_rect,3,2.478,1,14,0,14,0,1,,,,,,,,,,,,,
6633adcd500f96fcde309792,TCN,2024-06-24_13h45.42.614,LearnStrategy,2023.2.3,Win32,60.24096386,2,1,16,-0.010185185,-0.019444444,1,0,0,0.8314,rock_grid_rect_2,2,10,-1,-1,0.831,-0.058333333,-0.250925926,1,0,0,4.0121,Basalt_rect,2,4.012,1,15,0,15,0,1,,,,,,,,,,,,,
6633adcd500f96fcde309792,TCN,2024-06-24_13h45.42.614,LearnStrategy,2023.2.3,Win32,60.24096386,2,2,1,,,,,,,,3,8,,,,,,,,,,,3,9.694,1,,,,,,0.109259259,-0.27037037,1,0,0,9.6941,Diorite_rect,0,0,0,0,1,
6633adcd500f96fcde309792,TCN,2024-06-24_13h45.42.614,LearnStrategy,2023.2.3,Win32,60.24096386,2,2,2,,,,,,,,6,8,,,,,,,,,,,5,2.185,0,,,,,,-0.372222222,-0.410185185,1,0,0,2.1847,Obsidian_rect,1,0,1,0,1,
6633adcd500f96fcde309792,TCN,2024-06-24_13h45.42.614,LearnStrategy,2023.2.3,Win32,60.24096386,2,2,3,,,,,,,,7,10,,,,,,,,,,,1,3.041,0,,,,,,-0.338888889,-0.242592593,1,0,0,3.0406,Andesite_rect,2,0,2,0,1,
6633adcd500f96fcde309792,TCN,2024-06-24_13h45.42.614,LearnStrategy,2023.2.3,Win32,60.24096386,2,2,4,,,,,,,,5,12,,,,,,,,,,,5,1.16,1,,,,,,-0.376851852,-0.399074074,1,0,0,1.1598,Obsidian_rect,3,0,3,0,1,
6633adcd500f96fcde309792,TCN,2024-06-24_13h45.42.614,LearnStrategy,2023.2.3,Win32,60.24096386,2,2,5,,,,,,,,3,7,,,,,,,,,,,3,2.71,1,,,,,,0.178703704,-0.252777778,1,0,0,2.7098,Diorite_rect,4,0,4,0,1,
6633adcd500f96fcde309792,TCN,2024-06-24_13h45.42.614,LearnStrategy,2023.2.3,Win32,60.24096386,2,2,6,,,,,,,,6,5,,,,,,,,,,,7,2.06,0,,,,,,0.208333333,-0.398148148,1,0,0,2.0604,Peridotite_rect,5,0,5,0,1,
6633adcd500f96fcde309792,TCN,2024-06-24_13h45.42.614,LearnStrategy,2023.2.3,Win32,60.24096386,2,2,7,,,,,,,,5,7,,,,,,,,,,,5,3.086,1,,,,,,-0.384259259,-0.4,1,0,0,3.0859,Obsidian_rect,6,0,6,0,1,
6633adcd500f96fcde309792,TCN,2024-06-24_13h45.42.614,LearnStrategy,2023.2.3,Win32,60.24096386,2,2,8,,,,,,,,4,15,,,,,,,,,,,4,1.899,1,,,,,,0.362037037,-0.258333333,1,0,0,1.8989,Gabbro_rect,7,0,7,0,1,
6633adcd500f96fcde309792,TCN,2024-06-24_13h45.42.614,LearnStrategy,2023.2.3,Win32,60.24096386,2,2,9,,,,,,,,7,2,,,,,,,,,,,6,3.042,0,,,,,,-0.190740741,-0.391666667,1,0,0,3.0419,Pegmatite_rect,8,0,8,0,1,
6633adcd500f96fcde309792,TCN,2024-06-24_13h45.42.614,LearnStrategy,2023.2.3,Win32,60.24096386,2,2,10,,,,,,,,8,5,,,,,,,,,,,8,1.309,1,,,,,,0.364814815,-0.399074074,1,0,0,1.3086,Pumice_rect,9,0,9,0,1,
6633adcd500f96fcde309792,TCN,2024-06-24_13h45.42.614,LearnStrategy,2023.2.3,Win32,60.24096386,2,2,11,,,,,,,,1,14,,,,,,,,,,,7,1.811,0,,,,,,0.103703704,-0.394444444,1,0,0,1.8105,Peridotite_rect,10,0,10,0,1,
6633adcd500f96fcde309792,TCN,2024-06-24_13h45.42.614,LearnStrategy,2023.2.3,Win32,60.24096386,2,2,12,,,,,,,,8,6,,,,,,,,,,,8,3.814,1,,,,,,0.4,-0.4,1,0,0,3.8141,Pumice_rect,11,0,11,0,1,
6633adcd500f96fcde309792,TCN,2024-06-24_13h45.42.614,LearnStrategy,2023.2.3,Win32,60.24096386,2,2,13,,,,,,,,2,5,,,,,,,,,,,2,1.608,1,,,,,,-0.168518519,-0.244444444,1,0,0,1.6085,Basalt_rect,12,0,12,0,1,
6633adcd500f96fcde309792,TCN,2024-06-24_13h45.42.614,LearnStrategy,2023.2.3,Win32,60.24096386,2,2,14,,,,,,,,4,10,,,,,,,,,,,1,1.794,0,,,,,,-0.362962963,-0.258333333,1,0,0,1.7943,Andesite_rect,13,0,13,0,1,
6633adcd500f96fcde309792,TCN,2024-06-24_13h45.42.614,LearnStrategy,2023.2.3,Win32,60.24096386,2,2,15,,,,,,,,1,9,,,,,,,,,,,7,1.399,0,,,,,,0.087962963,-0.410185185,1,0,0,1.3987,Peridotite_rect,14,0,14,0,1,
6633adcd500f96fcde309792,TCN,2024-06-24_13h45.42.614,LearnStrategy,2023.2.3,Win32,60.24096386,2,2,16,,,,,,,,2,14,,,,,,,,,,,3,2.58,0,,,,,,0.134259259,-0.262037037,1,0,0,2.5796,Diorite_rect,15,0,15,0,1,
6633adcd500f96fcde309792,TCN,2024-06-24_13h45.42.614,LearnStrategy,2023.2.3,Win32,60.24096386,3,1,1,0.038888889,0.02037037,1,0,0,0.931,rock_grid_rect_2,4,8,-1,-1,0.931,0.159259259,-0.252777778,1,0,0,1.1776,Diorite_rect,3,1.178,0,0,0,0,0,1,,,,,,,,,,,,,
6633adcd500f96fcde309792,TCN,2024-06-24_13h45.42.614,LearnStrategy,2023.2.3,Win32,60.24096386,3,1,2,0.048148148,-0.025,1,0,0,1.0586,rock_grid_rect_2,1,16,-1,-1,1.059,-0.380555556,-0.240740741,1,0,0,4.0607,Andesite_rect,1,4.061,1,1,0,1,0,1,,,,,,,,,,,,,
6633adcd500f96fcde309792,TCN,2024-06-24_13h45.42.614,LearnStrategy,2023.2.3,Win32,60.24096386,3,1,3,0.085185185,0.002777778,1,0,0,0.946,rock_grid_rect_2,4,16,-1,-1,0.946,0.192592593,-0.265740741,1,0,0,2.7771,Diorite_rect,3,2.777,0,2,0,2,0,1,,,,,,,,,,,,,
6633adcd500f96fcde309792,TCN,2024-06-24_13h45.42.614,LearnStrategy,2023.2.3,Win32,60.24096386,3,1,4,0.059259259,0.005555556,1,0,0,0.9662,rock_grid_rect_2,1,5,-1,-1,0.966,-0.382407407,-0.233333333,1,0,0,22.7769,Andesite_rect,1,22.777,1,3,0,3,0,1,,,,,,,,,,,,,
6633adcd500f96fcde309792,TCN,2024-06-24_13h45.42.614,LearnStrategy,2023.2.3,Win32,60.24096386,3,1,5,0.005555556,0.009259259,1,0,0,0.93,rock_grid_rect_2,7,14,-1,-1,0.93,-0.191666667,-0.403703704,1,0,0,3.1602,Pegmatite_rect,6,3.16,0,4,0,4,0,1,,,,,,,,,,,,,
6633adcd500f96fcde309792,TCN,2024-06-24_13h45.42.614,LearnStrategy,2023.2.3,Win32,60.24096386,3,1,6,0.013888889,0.001851852,1,0,0,0.8651,rock_grid_rect_2,6,6,-1,-1,0.865,0.347222222,-0.403703704,1,0,0,2.2931,Pumice_rect,8,2.293,0,5,0,5,0,1,,,,,,,,,,,,,
6633adcd500f96fcde309792,TCN,2024-06-24_13h45.42.614,LearnStrategy,2023.2.3,Win32,60.24096386,3,1,7,0.010185185,-0.003703704,1,0,0,1.0484,rock_grid_rect_2,2,6,-1,-1,1.048,0.153703704,-0.253703704,1,0,0,2.1111,Diorite_rect,3,2.111,0,6,0,6,0,1,,,,,,,,,,,,,
6633adcd500f96fcde309792,TCN,2024-06-24_13h45.42.614,LearnStrategy,2023.2.3,Win32,60.24096386,3,1,8,0.056481481,-0.00462963,1,0,0,0.7603,rock_grid_rect_2,6,12,-1,-1,0.76,-0.081481481,-0.415740741,1,0,0,1.6661,Pegmatite_rect,6,1.666,1,7,0,7,0,1,,,,,,,,,,,,,
6633adcd500f96fcde309792,TCN,2024-06-24_13h45.42.614,LearnStrategy,2023.2.3,Win32,60.24096386,3,1,9,0.031481481,0.006481481,1,0,0,0.8926,rock_grid_rect_2,5,11,-1,-1,0.893,-0.324074074,-0.418518519,1,0,0,1.378,Obsidian_rect,5,1.378,1,8,0,8,0,1,,,,,,,,,,,,,
6633adcd500f96fcde309792,TCN,2024-06-24_13h45.42.614,LearnStrategy,2023.2.3,Win32,60.24096386,3,1,10,-0.000925926,-0.012962963,1,0,0,0.8312,rock_grid_rect_2,7,13,-1,-1,0.831,-0.078703704,-0.25462963,1,0,0,4.1113,Basalt_rect,2,4.111,0,9,0,9,0,1,,,,,,,,,,,,,
6633adcd500f96fcde309792,TCN,2024-06-24_13h45.42.614,LearnStrategy,2023.2.3,Win32,60.24096386,3,1,11,0.028703704,0.001851852,1,0,0,0.8314,rock_grid_rect_2,1,2,-1,-1,0.831,0.161111111,-0.403703704,1,0,0,2.7438,Peridotite_rect,7,2.744,0,10,0,10,0,1,,,,,,,,,,,,,
6633adcd500f96fcde309792,TCN,2024-06-24_13h45.42.614,LearnStrategy,2023.2.3,Win32,60.24096386,3,1,12,0.000925926,0.006481481,1,0,0,0.883,rock_grid_rect_2,2,16,-1,-1,0.883,-0.111111111,-0.249074074,1,0,0,3.428,Basalt_rect,2,3.428,1,11,0,11,0,1,,,,,,,,,,,,,
6633adcd500f96fcde309792,TCN,2024-06-24_13h45.42.614,LearnStrategy,2023.2.3,Win32,60.24096386,3,1,13,-0.001851852,-0.002777778,1,0,0,0.8794,rock_grid_rect_2,6,13,-1,-1,0.879,0.210185185,-0.24537037,1,0,0,3.0108,Diorite_rect,3,3.011,0,12,0,12,0,1,,,,,,,,,,,,,
6633adcd500f96fcde309792,TCN,2024-06-24_13h45.42.614,LearnStrategy,2023.2.3,Win32,60.24096386,3,1,14,0.001851852,-0.006481481,1,0,0,1.1151,rock_grid_rect_2,7,13,-1,-1,1.115,0.164814815,-0.396296296,1,0,0,3.0791,Peridotite_rect,7,3.079,1,13,0,13,0,1,,,,,,,,,,,,,
6633adcd500f96fcde309792,TCN,2024-06-24_13h45.42.614,LearnStrategy,2023.2.3,Win32,60.24096386,3,1,15,0.012962963,-0.003703704,1,0,0,0.8794,rock_grid_rect_2,3,16,-1,-1,0.879,-0.183333333,-0.243518519,1,0,0,4.6276,Basalt_rect,2,4.628,0,14,0,14,0,1,,,,,,,,,,,,,
6633adcd500f96fcde309792,TCN,2024-06-24_13h45.42.614,LearnStrategy,2023.2.3,Win32,60.24096386,3,1,16,-0.003703704,-0.009259259,1,0,0,0.9126,rock_grid_rect_2,3,6,-1,-1,0.913,0.165740741,-0.232407407,1,0,0,37.0604,Diorite_rect,3,37.06,1,15,0,15,0,1,,,,,,,,,,,,,
6633adcd500f96fcde309792,TCN,2024-06-24_13h45.42.614,LearnStrategy,2023.2.3,Win32,60.24096386,3,2,1,,,,,,,,6,15,,,,,,,,,,,3,6.354,0,,,,,,0.15,-0.265740741,1,0,0,6.3535,Diorite_rect,0,0,0,0,1,
6633adcd500f96fcde309792,TCN,2024-06-24_13h45.42.614,LearnStrategy,2023.2.3,Win32,60.24096386,3,2,2,,,,,,,,3,15,,,,,,,,,,,6,2.47,0,,,,,,-0.130555556,-0.398148148,1,0,0,2.4703,Pegmatite_rect,1,0,1,0,1,
6633adcd500f96fcde309792,TCN,2024-06-24_13h45.42.614,LearnStrategy,2023.2.3,Win32,60.24096386,3,2,3,,,,,,,,7,5,,,,,,,,,,,1,1.756,0,,,,,,-0.361111111,-0.263888889,1,0,0,1.7563,Andesite_rect,2,0,2,0,1,
6633adcd500f96fcde309792,TCN,2024-06-24_13h45.42.614,LearnStrategy,2023.2.3,Win32,60.24096386,3,2,4,,,,,,,,8,10,,,,,,,,,,,8,1.811,1,,,,,,0.343518519,-0.416666667,1,0,0,1.811,Pumice_rect,3,0,3,0,1,
6633adcd500f96fcde309792,TCN,2024-06-24_13h45.42.614,LearnStrategy,2023.2.3,Win32,60.24096386,3,2,5,,,,,,,,6,7,,,,,,,,,,,4,1.937,0,,,,,,0.317592593,-0.258333333,1,0,0,1.9374,Gabbro_rect,4,0,4,0,1,
6633adcd500f96fcde309792,TCN,2024-06-24_13h45.42.614,LearnStrategy,2023.2.3,Win32,60.24096386,3,2,6,,,,,,,,1,3,,,,,,,,,,,7,1.375,0,,,,,,0.058333333,-0.408333333,1,0,0,1.3745,Peridotite_rect,5,0,5,0,1,
6633adcd500f96fcde309792,TCN,2024-06-24_13h45.42.614,LearnStrategy,2023.2.3,Win32,60.24096386,3,2,7,,,,,,,,5,6,,,,,,,,,,,5,1.33,1,,,,,,-0.374074074,-0.390740741,1,0,0,1.3296,Obsidian_rect,6,0,6,0,1,
6633adcd500f96fcde309792,TCN,2024-06-24_13h45.42.614,LearnStrategy,2023.2.3,Win32,60.24096386,3,2,8,,,,,,,,1,7,,,,,,,,,,,2,1.393,0,,,,,,-0.12962963,-0.256481481,1,0,0,1.3933,Basalt_rect,7,0,7,0,1,
6633adcd500f96fcde309792,TCN,2024-06-24_13h45.42.614,LearnStrategy,2023.2.3,Win32,60.24096386,3,2,9,,,,,,,,4,1,,,,,,,,,,,6,1.294,0,,,,,,-0.078703704,-0.382407407,1,0,0,1.2938,Pegmatite_rect,8,0,8,0,1,
6633adcd500f96fcde309792,TCN,2024-06-24_13h45.42.614,LearnStrategy,2023.2.3,Win32,60.24096386,3,2,10,,,,,,,,8,15,,,,,,,,,,,8,1.389,1,,,,,,0.367592593,-0.407407407,1,0,0,1.389,Pumice_rect,9,0,9,0,1,
6633adcd500f96fcde309792,TCN,2024-06-24_13h45.42.614,LearnStrategy,2023.2.3,Win32,60.24096386,3,2,11,,,,,,,,2,12,,,,,,,,,,,8,2.505,0,,,,,,0.401851852,-0.403703704,1,0,0,2.5046,Pumice_rect,10,0,10,0,1,
6633adcd500f96fcde309792,TCN,2024-06-24_13h45.42.614,LearnStrategy,2023.2.3,Win32,60.24096386,3,2,12,,,,,,,,5,14,,,,,,,,,,,5,1.619,1,,,,,,-0.365740741,-0.384259259,1,0,0,1.619,Obsidian_rect,11,0,11,0,1,
6633adcd500f96fcde309792,TCN,2024-06-24_13h45.42.614,LearnStrategy,2023.2.3,Win32,60.24096386,3,2,13,,,,,,,,4,12,,,,,,,,,,,1,1.671,0,,,,,,-0.334259259,-0.232407407,1,0,0,1.6706,Andesite_rect,12,0,12,0,1,
6633adcd500f96fcde309792,TCN,2024-06-24_13h45.42.614,LearnStrategy,2023.2.3,Win32,60.24096386,3,2,14,,,,,,,,7,8,,,,,,,,,,,3,1.726,0,,,,,,0.128703704,-0.258333333,1,0,0,1.7259,Diorite_rect,13,0,13,0,1,
6633adcd500f96fcde309792,TCN,2024-06-24_13h45.42.614,LearnStrategy,2023.2.3,Win32,60.24096386,3,2,15,,,,,,,,2,1,,,,,,,,,,,7,1.277,0,,,,,,0.131481481,-0.396296296,1,0,0,1.2767,Peridotite_rect,14,0,14,0,1,
6633adcd500f96fcde309792,TCN,2024-06-24_13h45.42.614,LearnStrategy,2023.2.3,Win32,60.24096386,3,2,16,,,,,,,,3,9,,,,,,,,,,,4,2.244,0,,,,,,0.34537037,-0.258333333,1,0,0,2.2441,Gabbro_rect,15,0,15,0,1,
6633adcd500f96fcde309792,TCN,2024-06-24_13h45.42.614,LearnStrategy,2023.2.3,Win32,60.24096386,4,1,1,0.02037037,0.005555556,1,0,0,1.5818,rock_grid_rect_2,2,16,-1,-1,1.582,0.389814815,-0.401851852,1,0,0,1.192,Pumice_rect,8,1.192,0,0,0,0,0,1,,,,,,,,,,,,,
6633adcd500f96fcde309792,TCN,2024-06-24_13h45.42.614,LearnStrategy,2023.2.3,Win32,60.24096386,4,1,2,0.011111111,0.003703704,1,0,0,0.8803,rock_grid_rect_2,8,16,-1,-1,0.88,0.412962963,-0.399074074,1,0,0,1.3444,Pumice_rect,8,1.344,1,1,0,1,0,1,,,,,,,,,,,,,
6633adcd500f96fcde309792,TCN,2024-06-24_13h45.42.614,LearnStrategy,2023.2.3,Win32,60.24096386,4,1,3,0.028703704,-0.006481481,1,0,0,0.8973,rock_grid_rect_2,1,5,-1,-1,0.897,-0.4,-0.250925926,1,0,0,17.3777,Andesite_rect,1,17.378,1,2,0,2,0,1,,,,,,,,,,,,,
6633adcd500f96fcde309792,TCN,2024-06-24_13h45.42.614,LearnStrategy,2023.2.3,Win32,60.24096386,4,1,4,0.013888889,0.006481481,1,0,0,0.8815,rock_grid_rect_2,2,11,-1,-1,0.882,-0.084259259,-0.408333333,1,0,0,1.2108,Pegmatite_rect,6,1.211,0,3,0,3,0,1,,,,,,,,,,,,,
6633adcd500f96fcde309792,TCN,2024-06-24_13h45.42.614,LearnStrategy,2023.2.3,Win32,60.24096386,4,1,5,0.028703704,-0.000925926,1,0,0,0.9319,rock_grid_rect_2,1,4,-1,-1,0.932,0.185185185,-0.399074074,1,0,0,1.1446,Peridotite_rect,7,1.145,0,4,0,4,0,1,,,,,,,,,,,,,
6633adcd500f96fcde309792,TCN,2024-06-24_13h45.42.614,LearnStrategy,2023.2.3,Win32,60.24096386,4,1,6,0.021296296,0.003703704,1,0,0,0.8638,rock_grid_rect_2,1,16,-1,-1,0.864,0.221296296,-0.247222222,1,0,0,1.6278,Diorite_rect,3,1.628,0,5,0,5,0,1,,,,,,,,,,,,,
6633adcd500f96fcde309792,TCN,2024-06-24_13h45.42.614,LearnStrategy,2023.2.3,Win32,60.24096386,4,1,7,-0.001851852,0.001851852,1,0,0,0.7591,rock_grid_rect_2,6,16,-1,-1,0.759,-0.088888889,-0.393518519,1,0,0,9.6831,Pegmatite_rect,6,9.683,1,6,0,6,0,1,,,,,,,,,,,,,
6633adcd500f96fcde309792,TCN,2024-06-24_13h45.42.614,LearnStrategy,2023.2.3,Win32,60.24096386,4,1,8,0.014814815,0.001851852,1,0,0,0.8817,rock_grid_rect_2,3,2,-1,-1,0.882,0.093518519,-0.238888889,1,0,0,1.9108,Diorite_rect,3,1.911,1,7,0,7,0,1,,,,,,,,,,,,,
6633adcd500f96fcde309792,TCN,2024-06-24_13h45.42.614,LearnStrategy,2023.2.3,Win32,60.24096386,4,1,9,0.033333333,-0.016666667,1,0,0,0.8623,rock_grid_rect_2,7,12,-1,-1,0.862,0.087962963,-0.410185185,1,0,0,2.0112,Peridotite_rect,7,2.011,1,8,0,8,0,1,,,,,,,,,,,,,
6633adcd500f96fcde309792,TCN,2024-06-24_13h45.42.614,LearnStrategy,2023.2.3,Win32,60.24096386,4,1,10,0.018518519,0.012037037,1,0,0,0.8641,rock_grid_rect_2,4,3,-1,-1,0.864,-0.155555556,-0.4,1,0,0,3.8776,Pegmatite_rect,6,3.878,0,9,0,9,0,1,,,,,,,,,,,,,
6633adcd500f96fcde309792,TCN,2024-06-24_13h45.42.614,LearnStrategy,2023.2.3,Win32,60.24096386,4,1,11,-0.018518519,0.002777778,1,0,0,0.7633,rock_grid_rect_2,7,13,-1,-1,0.763,0.146296296,-0.417592593,1,0,0,2.3609,Peridotite_rect,7,2.361,1,10,0,10,0,1,,,,,,,,,,,,,
6633adcd500f96fcde309792,TCN,2024-06-24_13h45.42.614,LearnStrategy,2023.2.3,Win32,60.24096386,4,1,12,-0.019444444,0.006481481,1,0,0,0.7465,rock_grid_rect_2,3,16,-1,-1,0.746,0.196296296,-0.264814815,1,0,0,1.9442,Diorite_rect,3,1.944,1,11,0,11,0,1,,,,,,,,,,,,,
6633adcd500f96fcde309792,TCN,2024-06-24_13h45.42.614,LearnStrategy,2023.2.3,Win32,60.24096386,4,1,13,0.013888889,-0.013888889,1,0,0,0.7474,rock_grid_rect_2,6,6,-1,-1,0.747,-0.139814815,-0.388888889,1,0,0,1.848,Pegmatite_rect,6,1.848,1,12,0,12,0,1,,,,,,,,,,,,,
6633adcd500f96fcde309792,TCN,2024-06-24_13h45.42.614,LearnStrategy,2023.2.3,Win32,60.24096386,4,1,14,0.009259259,0.000925926,1,0,0,0.8647,rock_grid_rect_2,7,16,-1,-1,0.865,0.152777778,-0.246296296,1,0,0,1.5774,Diorite_rect,3,1.577,0,13,0,13,0,1,,,,,,,,,,,,,
6633adcd500f96fcde309792,TCN,2024-06-24_13h45.42.614,LearnStrategy,2023.2.3,Win32,60.24096386,4,1,15,0.014814815,0.010185185,1,0,0,0.8975,rock_grid_rect_2,4,14,-1,-1,0.898,-0.062037037,-0.263888889,1,0,0,2.7966,Basalt_rect,2,2.797,0,14,0,14,0,1,,,,,,,,,,,,,
6633adcd500f96fcde309792,TCN,2024-06-24_13h45.42.614,LearnStrategy,2023.2.3,Win32,60.24096386,4,1,16,-0.007407407,0.00462963,1,0,0,0.7296,rock_grid_rect_2,6,11,-1,-1,0.73,-0.114814815,-0.399074074,1,0,0,12.8275,Pegmatite_rect,6,12.827,1,15,0,15,0,1,,,,,,,,,,,,,
6633adcd500f96fcde309792,TCN,2024-06-24_13h45.42.614,LearnStrategy,2023.2.3,Win32,60.24096386,4,2,1,,,,,,,,8,8,,,,,,,,,,,8,2.975,1,,,,,,0.416666667,-0.40462963,1,0,0,2.975,Pumice_rect,0,0,0,0,1,
6633adcd500f96fcde309792,TCN,2024-06-24_13h45.42.614,LearnStrategy,2023.2.3,Win32,60.24096386,4,2,2,,,,,,,,2,5,,,,,,,,,,,7,1.353,0,,,,,,0.065740741,-0.409259259,1,0,0,1.3533,Peridotite_rect,1,0,1,0,1,
6633adcd500f96fcde309792,TCN,2024-06-24_13h45.42.614,LearnStrategy,2023.2.3,Win32,60.24096386,4,2,3,,,,,,,,6,3,,,,,,,,,,,6,26.59,1,,,,,,-0.064814815,-0.387037037,1,0,0,26.5898,Pegmatite_rect,2,0,2,0,1,
6633adcd500f96fcde309792,TCN,2024-06-24_13h45.42.614,LearnStrategy,2023.2.3,Win32,60.24096386,4,2,4,,,,,,,,8,5,,,,,,,,,,,8,2.609,1,,,,,,0.362962963,-0.411111111,1,0,0,2.6093,Pumice_rect,3,0,3,0,1,
6633adcd500f96fcde309792,TCN,2024-06-24_13h45.42.614,LearnStrategy,2023.2.3,Win32,60.24096386,4,2,5,,,,,,,,7,2,,,,,,,,,,,3,1.593,0,,,,,,0.124074074,-0.262037037,1,0,0,1.5933,Diorite_rect,4,0,4,0,1,
6633adcd500f96fcde309792,TCN,2024-06-24_13h45.42.614,LearnStrategy,2023.2.3,Win32,60.24096386,4,2,6,,,,,,,,7,5,,,,,,,,,,,7,1.261,1,,,,,,0.142592593,-0.398148148,1,0,0,1.2606,Peridotite_rect,5,0,5,0,1,
6633adcd500f96fcde309792,TCN,2024-06-24_13h45.42.614,LearnStrategy,2023.2.3,Win32,60.24096386,4,2,7,,,,,,,,4,13,,,,,,,,,,,4,2.393,1,,,,,,0.342592593,-0.256481481,1,0,0,2.3932,Gabbro_rect,6,0,6,0,1,
6633adcd500f96fcde309792,TCN,2024-06-24_13h45.42.614,LearnStrategy,2023.2.3,Win32,60.24096386,4,2,8,,,,,,,,1,9,,,,,,,,,,,3,41.11,0,,,,,,0.172222222,-0.241666667,1,0,0,41.1098,Diorite_rect,7,0,7,0,1,
6633adcd500f96fcde309792,TCN,2024-06-24_13h45.42.614,LearnStrategy,2023.2.3,Win32,60.24096386,4,2,9,,,,,,,,1,7,,,,,,,,,,,6,2.77,0,,,,,,-0.083333333,-0.384259259,1,0,0,2.7702,Pegmatite_rect,8,0,8,0,1,
6633adcd500f96fcde309792,TCN,2024-06-24_13h45.42.614,LearnStrategy,2023.2.3,Win32,60.24096386,4,2,10,,,,,,,,5,14,,,,,,,,,,,5,2.043,1,,,,,,-0.334259259,-0.401851852,1,0,0,2.043,Obsidian_rect,9,0,9,0,1,
6633adcd500f96fcde309792,TCN,2024-06-24_13h45.42.614,LearnStrategy,2023.2.3,Win32,60.24096386,4,2,11,,,,,,,,6,5,,,,,,,,,,,7,2.022,0,,,,,,0.180555556,-0.399074074,1,0,0,2.0222,Peridotite_rect,10,0,10,0,1,
6633adcd500f96fcde309792,TCN,2024-06-24_13h45.42.614,LearnStrategy,2023.2.3,Win32,60.24096386,4,2,12,,,,,,,,2,12,,,,,,,,,,,7,3.584,0,,,,,,0.092592593,-0.410185185,1,0,0,3.5845,Peridotite_rect,11,0,11,0,1,
6633adcd500f96fcde309792,TCN,2024-06-24_13h45.42.614,LearnStrategy,2023.2.3,Win32,60.24096386,4,2,13,,,,,,,,3,7,,,,,,,,,,,3,1.594,1,,,,,,0.182407407,-0.244444444,1,0,0,1.5941,Diorite_rect,12,0,12,0,1,
6633adcd500f96fcde309792,TCN,2024-06-24_13h45.42.614,LearnStrategy,2023.2.3,Win32,60.24096386,4,2,14,,,,,,,,5,16,,,,,,,,,,,5,1.389,1,,,,,,-0.355555556,-0.37962963,1,0,0,1.389,Obsidian_rect,13,0,13,0,1,
6633adcd500f96fcde309792,TCN,2024-06-24_13h45.42.614,LearnStrategy,2023.2.3,Win32,60.24096386,4,2,15,,,,,,,,3,15,,,,,,,,,,,4,2.153,0,,,,,,0.42037037,-0.263888889,1,0,0,2.1527,Gabbro_rect,14,0,14,0,1,
6633adcd500f96fcde309792,TCN,2024-06-24_13h45.42.614,LearnStrategy,2023.2.3,Win32,60.24096386,4,2,16,,,,,,,,4,15,,,,,,,,,,,1,1.494,0,,,,,,-0.348148148,-0.239814815,1,0,0,1.4938,Andesite_rect,15,0,15,0,1,
6633adcd500f96fcde309792,TCN,2024-06-24_13h45.42.614,LearnStrategy,2023.2.3,Win32,60.24096386,5,1,1,-0.006481481,-0.016666667,1,0,0,1.5627,rock_grid_rect_2,4,8,-1,-1,1.563,0.088888889,-0.240740741,1,0,0,0.9279,Diorite_rect,3,0.928,0,0,0,0,0,1,,,,,,,,,,,,,
6633adcd500f96fcde309792,TCN,2024-06-24_13h45.42.614,LearnStrategy,2023.2.3,Win32,60.24096386,5,1,2,0.002777778,-0.021296296,1,0,0,0.8292,rock_grid_rect_2,1,16,-1,-1,0.829,-0.140740741,-0.406481481,1,0,0,1.6291,Pegmatite_rect,6,1.629,0,1,0,1,0,1,,,,,,,,,,,,,
6633adcd500f96fcde309792,TCN,2024-06-24_13h45.42.614,LearnStrategy,2023.2.3,Win32,60.24096386,5,1,3,-0.002777778,-0.016666667,1,0,0,0.7973,rock_grid_rect_2,1,10,-1,-1,0.797,0.212037037,-0.251851852,1,0,0,1.7773,Diorite_rect,3,1.777,0,2,0,2,0,1,,,,,,,,,,,,,
6633adcd500f96fcde309792,TCN,2024-06-24_13h45.42.614,LearnStrategy,2023.2.3,Win32,60.24096386,5,1,4,0.039814815,-0.00462963,1,0,0,0.8321,rock_grid_rect_2,7,16,-1,-1,0.832,-0.389814815,-0.249074074,1,0,0,1.1776,Andesite_rect,1,1.178,0,3,0,3,0,1,,,,,,,,,,,,,
6633adcd500f96fcde309792,TCN,2024-06-24_13h45.42.614,LearnStrategy,2023.2.3,Win32,60.24096386,5,1,5,-0.010185185,-0.007407407,1,0,0,0.9809,rock_grid_rect_2,6,13,-1,-1,0.981,0.133333333,-0.237037037,1,0,0,2.4111,Diorite_rect,3,2.411,0,4,0,4,0,1,,,,,,,,,,,,,
6633adcd500f96fcde309792,TCN,2024-06-24_13h45.42.614,LearnStrategy,2023.2.3,Win32,60.24096386,5,1,6,0.047222222,0.011111111,1,0,0,0.7452,rock_grid_rect_2,7,7,-1,-1,0.745,0.072222222,-0.406481481,1,0,0,1.694,Peridotite_rect,7,1.694,1,5,0,5,0,1,,,,,,,,,,,,,
6633adcd500f96fcde309792,TCN,2024-06-24_13h45.42.614,LearnStrategy,2023.2.3,Win32,60.24096386,5,1,7,0.031481481,0.008333333,1,0,0,0.7806,rock_grid_rect_2,3,14,-1,-1,0.781,-0.312962963,-0.4,1,0,0,1.4278,Obsidian_rect,5,1.428,0,6,0,6,0,1,,,,,,,,,,,,,
6633adcd500f96fcde309792,TCN,2024-06-24_13h45.42.614,LearnStrategy,2023.2.3,Win32,60.24096386,5,1,8,0.012037037,0.015740741,1,0,0,0.7476,rock_grid_rect_2,2,10,-1,-1,0.748,-0.116666667,-0.241666667,1,0,0,3.0442,Basalt_rect,2,3.044,1,7,0,7,0,1,,,,,,,,,,,,,
6633adcd500f96fcde309792,TCN,2024-06-24_13h45.42.614,LearnStrategy,2023.2.3,Win32,60.24096386,5,1,9,0.030555556,-0.00462963,1,0,0,0.6954,rock_grid_rect_2,2,16,-1,-1,0.695,-0.142592593,-0.232407407,1,0,0,2.1273,Basalt_rect,2,2.127,1,8,0,8,0,1,,,,,,,,,,,,,
6633adcd500f96fcde309792,TCN,2024-06-24_13h45.42.614,LearnStrategy,2023.2.3,Win32,60.24096386,5,1,10,0.048148148,-0.006481481,1,0,0,0.7307,rock_grid_rect_2,6,16,-1,-1,0.731,0.090740741,-0.410185185,1,0,0,2.0776,Peridotite_rect,7,2.078,0,9,0,9,0,1,,,,,,,,,,,,,
6633adcd500f96fcde309792,TCN,2024-06-24_13h45.42.614,LearnStrategy,2023.2.3,Win32,60.24096386,5,1,11,0.003703704,0.019444444,1,0,0,0.7322,rock_grid_rect_2,2,2,-1,-1,0.732,0.164814815,-0.235185185,1,0,0,2.6112,Diorite_rect,3,2.611,0,10,0,10,0,1,,,,,,,,,,,,,
6633adcd500f96fcde309792,TCN,2024-06-24_13h45.42.614,LearnStrategy,2023.2.3,Win32,60.24096386,5,1,12,0.046296296,0.006481481,1,0,0,0.8298,rock_grid_rect_2,7,15,-1,-1,0.83,-0.076851852,-0.417592593,1,0,0,1.911,Pegmatite_rect,6,1.911,0,11,0,11,0,1,,,,,,,,,,,,,
6633adcd500f96fcde309792,TCN,2024-06-24_13h45.42.614,LearnStrategy,2023.2.3,Win32,60.24096386,5,1,13,0.061111111,0.008333333,1,0,0,1.714,rock_grid_rect_2,4,16,-1,-1,1.714,0.355555556,-0.242592593,1,0,0,1.5213,Gabbro_rect,4,1.521,1,12,0,12,0,1,,,,,,,,,,,,,
6633adcd500f96fcde309792,TCN,2024-06-24_13h45.42.614,LearnStrategy,2023.2.3,Win32,60.24096386,5,1,14,0.010185185,-0.013888889,1,0,0,0.6978,rock_grid_rect_2,3,12,-1,-1,0.698,-0.349074074,-0.238888889,1,0,0,1.8778,Andesite_rect,1,1.878,0,13,0,13,0,1,,,,,,,,,,,,,
6633adcd500f96fcde309792,TCN,2024-06-24_13h45.42.614,LearnStrategy,2023.2.3,Win32,60.24096386,5,1,15,0.012962963,0.000925926,1,0,0,0.7311,rock_grid_rect_2,1,5,-1,-1,0.731,0.113888889,-0.418518519,1,0,0,1.6943,Peridotite_rect,7,1.694,0,14,0,14,0,1,,,,,,,,,,,,,
6633adcd500f96fcde309792,TCN,2024-06-24_13h45.42.614,LearnStrategy,2023.2.3,Win32,60.24096386,5,1,16,0.001851852,-0.00462963,1,0,0,0.6824,rock_grid_rect_2,6,12,-1,-1,0.682,-0.347222222,-0.250925926,1,0,0,1.6442,Andesite_rect,1,1.644,0,15,0,15,0,1,,,,,,,,,,,,,
6633adcd500f96fcde309792,TCN,2024-06-24_13h45.42.614,LearnStrategy,2023.2.3,Win32,60.24096386,5,2,1,,,,,,,,1,14,,,,,,,,,,,6,1.593,0,,,,,,-0.068518519,-0.400925926,1,0,0,1.5933,Pegmatite_rect,0,0,0,0,1,
6633adcd500f96fcde309792,TCN,2024-06-24_13h45.42.614,LearnStrategy,2023.2.3,Win32,60.24096386,5,2,2,,,,,,,,8,10,,,,,,,,,,,8,1.893,1,,,,,,0.352777778,-0.411111111,1,0,0,1.8931,Pumice_rect,1,0,1,0,1,
6633adcd500f96fcde309792,TCN,2024-06-24_13h45.42.614,LearnStrategy,2023.2.3,Win32,60.24096386,5,2,3,,,,,,,,6,15,,,,,,,,,,,7,1.515,0,,,,,,0.073148148,-0.407407407,1,0,0,1.5152,Peridotite_rect,2,0,2,0,1,
6633adcd500f96fcde309792,TCN,2024-06-24_13h45.42.614,LearnStrategy,2023.2.3,Win32,60.24096386,5,2,4,,,,,,,,6,10,,,,,,,,,,,3,1.729,0,,,,,,0.135185185,-0.255555556,1,0,0,1.7293,Diorite_rect,3,0,3,0,1,
6633adcd500f96fcde309792,TCN,2024-06-24_13h45.42.614,LearnStrategy,2023.2.3,Win32,60.24096386,5,2,5,,,,,,,,7,8,,,,,,,,,,,1,2.327,0,,,,,,-0.381481481,-0.240740741,1,0,0,2.3274,Andesite_rect,4,0,4,0,1,
6633adcd500f96fcde309792,TCN,2024-06-24_13h45.42.614,LearnStrategy,2023.2.3,Win32,60.24096386,5,2,6,,,,,,,,5,2,,,,,,,,,,,5,1.143,1,,,,,,-0.341666667,-0.387962963,1,0,0,1.1427,Obsidian_rect,5,0,5,0,1,
6633adcd500f96fcde309792,TCN,2024-06-24_13h45.42.614,LearnStrategy,2023.2.3,Win32,60.24096386,5,2,7,,,,,,,,3,9,,,,,,,,,,,7,1.99,0,,,,,,0.134259259,-0.402777778,1,0,0,1.9897,Peridotite_rect,6,0,6,0,1,
6633adcd500f96fcde309792,TCN,2024-06-24_13h45.42.614,LearnStrategy,2023.2.3,Win32,60.24096386,5,2,8,,,,,,,,8,9,,,,,,,,,,,8,1.17,1,,,,,,0.348148148,-0.396296296,1,0,0,1.1705,Pumice_rect,7,0,7,0,1,
6633adcd500f96fcde309792,TCN,2024-06-24_13h45.42.614,LearnStrategy,2023.2.3,Win32,60.24096386,5,2,9,,,,,,,,2,1,,,,,,,,,,,2,3.283,1,,,,,,-0.105555556,-0.238888889,1,0,0,3.2827,Basalt_rect,8,0,8,0,1,
6633adcd500f96fcde309792,TCN,2024-06-24_13h45.42.614,LearnStrategy,2023.2.3,Win32,60.24096386,5,2,10,,,,,,,,7,6,,,,,,,,,,,7,1.939,1,,,,,,0.122222222,-0.408333333,1,0,0,1.939,Peridotite_rect,9,0,9,0,1,
6633adcd500f96fcde309792,TCN,2024-06-24_13h45.42.614,LearnStrategy,2023.2.3,Win32,60.24096386,5,2,11,,,,,,,,2,14,,,,,,,,,,,4,2.247,0,,,,,,0.337037037,-0.242592593,1,0,0,2.2468,Gabbro_rect,10,0,10,0,1,
6633adcd500f96fcde309792,TCN,2024-06-24_13h45.42.614,LearnStrategy,2023.2.3,Win32,60.24096386,5,2,12,,,,,,,,4,10,,,,,,,,,,,6,2.332,0,,,,,,-0.071296296,-0.407407407,1,0,0,2.3316,Pegmatite_rect,11,0,11,0,1,
6633adcd500f96fcde309792,TCN,2024-06-24_13h45.42.614,LearnStrategy,2023.2.3,Win32,60.24096386,5,2,13,,,,,,,,4,9,,,,,,,,,,,3,1.254,0,,,,,,0.098148148,-0.252777778,1,0,0,1.2538,Diorite_rect,12,0,12,0,1,
6633adcd500f96fcde309792,TCN,2024-06-24_13h45.42.614,LearnStrategy,2023.2.3,Win32,60.24096386,5,2,14,,,,,,,,5,6,,,,,,,,,,,5,1.343,1,,,,,,-0.340740741,-0.391666667,1,0,0,1.3433,Obsidian_rect,13,0,13,0,1,
6633adcd500f96fcde309792,TCN,2024-06-24_13h45.42.614,LearnStrategy,2023.2.3,Win32,60.24096386,5,2,15,,,,,,,,3,10,,,,,,,,,,,7,1.338,0,,,,,,0.111111111,-0.378703704,1,0,0,1.3378,Peridotite_rect,14,0,14,0,1,
6633adcd500f96fcde309792,TCN,2024-06-24_13h45.42.614,LearnStrategy,2023.2.3,Win32,60.24096386,5,2,16,,,,,,,,1,6,,,,,,,,,,,6,1.909,0,,,,,,-0.087037037,-0.40462963,1,0,0,1.909,Pegmatite_rect,15,0,15,0,1,
6633adcd500f96fcde309792,TCN,2024-06-24_13h45.42.614,LearnStrategy,2023.2.3,Win32,60.24096386,6,1,1,0.031481481,0.010185185,1,0,0,1.0305,rock_grid_rect_2,6,16,-1,-1,1.03,0.092592593,-0.401851852,1,0,0,1.461,Peridotite_rect,7,1.461,0,0,0,0,0,1,,,,,,,,,,,,,
6633adcd500f96fcde309792,TCN,2024-06-24_13h45.42.614,LearnStrategy,2023.2.3,Win32,60.24096386,6,1,2,-0.050925926,0.007407407,1,0,0,0.7976,rock_grid_rect_2,1,2,-1,-1,0.798,-0.133333333,-0.399074074,1,0,0,1.0442,Pegmatite_rect,6,1.044,0,1,0,1,0,1,,,,,,,,,,,,,
6633adcd500f96fcde309792,TCN,2024-06-24_13h45.42.614,LearnStrategy,2023.2.3,Win32,60.24096386,6,1,3,-0.005555556,0.006481481,1,0,0,0.6655,rock_grid_rect_2,6,11,-1,-1,0.665,-0.335185185,-0.400925926,1,0,0,2.2271,Obsidian_rect,5,2.227,0,2,0,2,0,1,,,,,,,,,,,,,
6633adcd500f96fcde309792,TCN,2024-06-24_13h45.42.614,LearnStrategy,2023.2.3,Win32,60.24096386,6,1,4,0.001851852,0.000925926,1,0,0,0.7318,rock_grid_rect_2,2,2,-1,-1,0.732,-0.105555556,-0.24537037,1,0,0,1.4941,Basalt_rect,2,1.494,1,3,0,3,0,1,,,,,,,,,,,,,
6633adcd500f96fcde309792,TCN,2024-06-24_13h45.42.614,LearnStrategy,2023.2.3,Win32,60.24096386,6,1,5,0.014814815,-0.002777778,1,0,0,0.7138,rock_grid_rect_2,6,12,-1,-1,0.714,0.111111111,-0.419444444,1,0,0,1.1779,Peridotite_rect,7,1.178,0,4,0,4,0,1,,,,,,,,,,,,,
6633adcd500f96fcde309792,TCN,2024-06-24_13h45.42.614,LearnStrategy,2023.2.3,Win32,60.24096386,6,1,6,0.003703704,-0.006481481,1,0,0,0.6641,rock_grid_rect_2,3,2,-1,-1,0.664,-0.121296296,-0.398148148,1,0,0,1.2776,Pegmatite_rect,6,1.278,0,5,0,5,0,1,,,,,,,,,,,,,
6633adcd500f96fcde309792,TCN,2024-06-24_13h45.42.614,LearnStrategy,2023.2.3,Win32,60.24096386,6,1,7,0.002777778,0.017592593,1,0,0,0.7807,rock_grid_rect_2,7,13,-1,-1,0.781,0.162037037,-0.25462963,1,0,0,3.6948,Diorite_rect,3,3.695,0,6,0,6,0,1,,,,,,,,,,,,,
6633adcd500f96fcde309792,TCN,2024-06-24_13h45.42.614,LearnStrategy,2023.2.3,Win32,60.24096386,6,1,8,-0.009259259,-0.012962963,1,0,0,0.7964,rock_grid_rect_2,2,11,-1,-1,0.796,-0.105555556,-0.393518519,1,0,0,6.2272,Pegmatite_rect,6,6.227,0,7,0,7,0,1,,,,,,,,,,,,,
6633adcd500f96fcde309792,TCN,2024-06-24_13h45.42.614,LearnStrategy,2023.2.3,Win32,60.24096386,6,1,9,0.028703704,-0.000925926,1,0,0,0.7463,rock_grid_rect_2,1,16,-1,-1,0.746,0.417592593,-0.271296296,1,0,0,1.0611,Gabbro_rect,4,1.061,0,8,0,8,0,1,,,,,,,,,,,,,
6633adcd500f96fcde309792,TCN,2024-06-24_13h45.42.614,LearnStrategy,2023.2.3,Win32,60.24096386,6,1,10,-0.003703704,0.000925926,1,0,0,0.6646,rock_grid_rect_2,4,3,-1,-1,0.665,0.111111111,-0.248148148,1,0,0,1.2441,Diorite_rect,3,1.244,0,9,0,9,0,1,,,,,,,,,,,,,
6633adcd500f96fcde309792,TCN,2024-06-24_13h45.42.614,LearnStrategy,2023.2.3,Win32,60.24096386,6,1,11,-0.017592593,0.003703704,1,0,0,0.7476,rock_grid_rect_2,4,8,-1,-1,0.748,0.142592593,-0.408333333,1,0,0,1.2609,Peridotite_rect,7,1.261,0,10,0,10,0,1,,,,,,,,,,,,,
6633adcd500f96fcde309792,TCN,2024-06-24_13h45.42.614,LearnStrategy,2023.2.3,Win32,60.24096386,6,1,12,0.021296296,0.006481481,1,0,0,0.8321,rock_grid_rect_2,3,14,-1,-1,0.832,-0.126851852,-0.406481481,1,0,0,1.2278,Pegmatite_rect,6,1.228,0,11,0,11,0,1,,,,,,,,,,,,,
6633adcd500f96fcde309792,TCN,2024-06-24_13h45.42.614,LearnStrategy,2023.2.3,Win32,60.24096386,6,1,13,-0.014814815,0.005555556,1,0,0,0.8312,rock_grid_rect_2,4,3,-1,-1,0.831,0.090740741,-0.269444444,1,0,0,1.6118,Diorite_rect,3,1.612,0,12,0,12,0,1,,,,,,,,,,,,,
6633adcd500f96fcde309792,TCN,2024-06-24_13h45.42.614,LearnStrategy,2023.2.3,Win32,60.24096386,6,1,14,-0.009259259,0.011111111,1,0,0,0.7311,rock_grid_rect_2,7,14,-1,-1,0.731,0.325,-0.248148148,1,0,0,1.5605,Gabbro_rect,4,1.56,0,13,0,13,0,1,,,,,,,,,,,,,
6633adcd500f96fcde309792,TCN,2024-06-24_13h45.42.614,LearnStrategy,2023.2.3,Win32,60.24096386,6,1,15,-0.027777778,0.003703704,1,0,0,0.7142,rock_grid_rect_2,1,16,-1,-1,0.714,-0.07037037,-0.39537037,1,0,0,0.8612,Pegmatite_rect,6,0.861,0,14,0,14,0,1,,,,,,,,,,,,,
6633adcd500f96fcde309792,TCN,2024-06-24_13h45.42.614,LearnStrategy,2023.2.3,Win32,60.24096386,6,1,16,-0.016666667,-0.005555556,1,0,0,3.9819,rock_grid_rect_2,3,14,-1,-1,3.982,0.153703704,-0.411111111,1,0,0,1.1277,Peridotite_rect,7,1.128,0,15,0,15,0,1,,,,,,,,,,,,,
6633adcd500f96fcde309792,TCN,2024-06-24_13h45.42.614,LearnStrategy,2023.2.3,Win32,60.24096386,6,2,1,,,,,,,,7,4,,,,,,,,,,,3,2.747,0,,,,,,0.125925926,-0.242592593,1,0,0,2.7467,Diorite_rect,0,0,0,0,1,
6633adcd500f96fcde309792,TCN,2024-06-24_13h45.42.614,LearnStrategy,2023.2.3,Win32,60.24096386,6,2,2,,,,,,,,3,13,,,,,,,,,,,6,1.645,0,,,,,,-0.075,-0.409259259,1,0,0,1.6455,Pegmatite_rect,1,0,1,0,1,
6633adcd500f96fcde309792,TCN,2024-06-24_13h45.42.614,LearnStrategy,2023.2.3,Win32,60.24096386,6,2,3,,,,,,,,1,1,,,,,,,,,,,2,2.054,0,,,,,,-0.062962963,-0.241666667,1,0,0,2.0538,Basalt_rect,2,0,2,0,1,
6633adcd500f96fcde309792,TCN,2024-06-24_13h45.42.614,LearnStrategy,2023.2.3,Win32,60.24096386,6,2,4,,,,,,,,4,12,,,,,,,,,,,7,1.427,0,,,,,,0.119444444,-0.410185185,1,0,0,1.4271,Peridotite_rect,3,0,3,0,1,
6633adcd500f96fcde309792,TCN,2024-06-24_13h45.42.614,LearnStrategy,2023.2.3,Win32,60.24096386,6,2,5,,,,,,,,6,7,,,,,,,,,,,1,1.635,0,,,,,,-0.337037037,-0.262037037,1,0,0,1.6353,Andesite_rect,4,0,4,0,1,
6633adcd500f96fcde309792,TCN,2024-06-24_13h45.42.614,LearnStrategy,2023.2.3,Win32,60.24096386,6,2,6,,,,,,,,2,8,,,,,,,,,,,2,1.254,1,,,,,,-0.086111111,-0.236111111,1,0,0,1.2538,Basalt_rect,5,0,5,0,1,
6633adcd500f96fcde309792,TCN,2024-06-24_13h45.42.614,LearnStrategy,2023.2.3,Win32,60.24096386,6,2,7,,,,,,,,2,9,,,,,,,,,,,6,1.061,0,,,,,,-0.071296296,-0.4,1,0,0,1.0612,Pegmatite_rect,6,0,6,0,1,
6633adcd500f96fcde309792,TCN,2024-06-24_13h45.42.614,LearnStrategy,2023.2.3,Win32,60.24096386,6,2,8,,,,,,,,7,10,,,,,,,,,,,3,1.294,0,,,,,,0.160185185,-0.247222222,1,0,0,1.2941,Diorite_rect,7,0,7,0,1,
6633adcd500f96fcde309792,TCN,2024-06-24_13h45.42.614,LearnStrategy,2023.2.3,Win32,60.24096386,6,2,9,,,,,,,,5,12,,,,,,,,,,,5,1.148,1,,,,,,-0.325925926,-0.392592593,1,0,0,1.1484,Obsidian_rect,8,0,8,0,1,
6633adcd500f96fcde309792,TCN,2024-06-24_13h45.42.614,LearnStrategy,2023.2.3,Win32,60.24096386,6,2,10,,,,,,,,4,1,,,,,,,,,,,3,1.427,0,,,,,,0.141666667,-0.24537037,1,0,0,1.427,Diorite_rect,9,0,9,0,1,
6633adcd500f96fcde309792,TCN,2024-06-24_13h45.42.614,LearnStrategy,2023.2.3,Win32,60.24096386,6,2,11,,,,,,,,6,8,,,,,,,,,,,1,1.872,0,,,,,,-0.315740741,-0.236111111,1,0,0,1.872,Andesite_rect,10,0,10,0,1,
6633adcd500f96fcde309792,TCN,2024-06-24_13h45.42.614,LearnStrategy,2023.2.3,Win32,60.24096386,6,2,12,,,,,,,,8,6,,,,,,,,,,,8,1.261,1,,,,,,0.364814815,-0.398148148,1,0,0,1.2608,Pumice_rect,11,0,11,0,1,
6633adcd500f96fcde309792,TCN,2024-06-24_13h45.42.614,LearnStrategy,2023.2.3,Win32,60.24096386,6,2,13,,,,,,,,1,3,,,,,,,,,,,7,1.044,0,,,,,,0.087037037,-0.40462963,1,0,0,1.0443,Peridotite_rect,12,0,12,0,1,
6633adcd500f96fcde309792,TCN,2024-06-24_13h45.42.614,LearnStrategy,2023.2.3,Win32,60.24096386,6,2,14,,,,,,,,5,7,,,,,,,,,,,5,1.348,1,,,,,,-0.369444444,-0.378703704,1,0,0,1.3483,Obsidian_rect,13,0,13,0,1,
6633adcd500f96fcde309792,TCN,2024-06-24_13h45.42.614,LearnStrategy,2023.2.3,Win32,60.24096386,6,2,15,,,,,,,,3,8,,,,,,,,,,,6,2.111,0,,,,,,-0.047222222,-0.4,1,0,0,2.1106,Pegmatite_rect,14,0,14,0,1,
6633adcd500f96fcde309792,TCN,2024-06-24_13h45.42.614,LearnStrategy,2023.2.3,Win32,60.24096386,6,2,16,,,,,,,,8,15,,,,,,,,,,,8,1.603,1,,,,,,0.403703704,-0.385185185,1,0,0,1.6031,Pumice_rect,15,0,15,0,1,
6633adcd500f96fcde309792,TCN,2024-06-24_13h45.42.614,LearnStrategy,2023.2.3,Win32,60.24096386,7,1,1,-0.006481481,0.015740741,1,0,0,0.5963,rock_grid_rect_2,4,16,-1,-1,0.596,0.349074074,-0.261111111,1,0,0,2.6944,Gabbro_rect,4,2.694,1,0,0,0,0,1,,,,,,,,,,,,,
6633adcd500f96fcde309792,TCN,2024-06-24_13h45.42.614,LearnStrategy,2023.2.3,Win32,60.24096386,7,1,2,-0.014814815,-0.00462963,1,0,0,0.7151,rock_grid_rect_2,3,6,-1,-1,0.715,-0.113888889,-0.406481481,1,0,0,1.0602,Pegmatite_rect,6,1.06,0,1,0,1,0,1,,,,,,,,,,,,,
6633adcd500f96fcde309792,TCN,2024-06-24_13h45.42.614,LearnStrategy,2023.2.3,Win32,60.24096386,7,1,3,0.021296296,0.012037037,1,0,0,0.7655,rock_grid_rect_2,3,11,-1,-1,0.765,0.17962963,-0.251851852,1,0,0,1.0441,Diorite_rect,3,1.044,1,2,0,2,0,1,,,,,,,,,,,,,
6633adcd500f96fcde309792,TCN,2024-06-24_13h45.42.614,LearnStrategy,2023.2.3,Win32,60.24096386,7,1,4,0.006481481,-0.007407407,1,0,0,0.8141,rock_grid_rect_2,7,14,-1,-1,0.814,0.148148148,-0.40462963,1,0,0,1.0614,Peridotite_rect,7,1.061,1,3,0,3,0,1,,,,,,,,,,,,,
6633adcd500f96fcde309792,TCN,2024-06-24_13h45.42.614,LearnStrategy,2023.2.3,Win32,60.24096386,7,1,5,-0.011111111,0.007407407,1,0,0,0.7645,rock_grid_rect_2,7,16,-1,-1,0.764,-0.135185185,-0.382407407,1,0,0,1.5108,Pegmatite_rect,6,1.511,0,4,0,4,0,1,,,,,,,,,,,,,
6633adcd500f96fcde309792,TCN,2024-06-24_13h45.42.614,LearnStrategy,2023.2.3,Win32,60.24096386,7,1,6,0.023148148,0.00462963,1,0,0,1.1307,rock_grid_rect_2,1,11,-1,-1,1.131,0.127777778,-0.228703704,1,0,0,1.4113,Diorite_rect,3,1.411,0,5,0,5,0,1,,,,,,,,,,,,,
6633adcd500f96fcde309792,TCN,2024-06-24_13h45.42.614,LearnStrategy,2023.2.3,Win32,60.24096386,7,1,7,0.025925926,-0.005555556,1,0,0,0.7974,rock_grid_rect_2,6,13,-1,-1,0.797,-0.352777778,-0.255555556,1,0,0,2.1275,Andesite_rect,1,2.127,0,6,0,6,0,1,,,,,,,,,,,,,
6633adcd500f96fcde309792,TCN,2024-06-24_13h45.42.614,LearnStrategy,2023.2.3,Win32,60.24096386,7,1,8,0.032407407,-0.00462963,1,0,0,0.7305,rock_grid_rect_2,4,14,-1,-1,0.731,-0.080555556,-0.263888889,1,0,0,1.7112,Basalt_rect,2,1.711,0,7,0,7,0,1,,,,,,,,,,,,,
6633adcd500f96fcde309792,TCN,2024-06-24_13h45.42.614,LearnStrategy,2023.2.3,Win32,60.24096386,7,1,9,0.024074074,-0.011111111,1,0,0,0.6477,rock_grid_rect_2,6,12,-1,-1,0.648,-0.07037037,-0.403703704,1,0,0,1.078,Pegmatite_rect,6,1.078,1,8,0,8,0,1,,,,,,,,,,,,,
6633adcd500f96fcde309792,TCN,2024-06-24_13h45.42.614,LearnStrategy,2023.2.3,Win32,60.24096386,7,1,10,0.030555556,0.005555556,1,0,0,0.7319,rock_grid_rect_2,2,2,-1,-1,0.732,-0.051851852,-0.262962963,1,0,0,1.2125,Basalt_rect,2,1.213,1,9,0,9,0,1,,,,,,,,,,,,,
6633adcd500f96fcde309792,TCN,2024-06-24_13h45.42.614,LearnStrategy,2023.2.3,Win32,60.24096386,7,1,11,0.053703704,-0.017592593,1,0,0,0.6825,rock_grid_rect_2,6,9,-1,-1,0.682,0.110185185,-0.403703704,1,0,0,2.4274,Peridotite_rect,7,2.427,0,10,0,10,0,1,,,,,,,,,,,,,
6633adcd500f96fcde309792,TCN,2024-06-24_13h45.42.614,LearnStrategy,2023.2.3,Win32,60.24096386,7,1,12,-0.021296296,0.00462963,1,0,0,0.6821,rock_grid_rect_2,7,12,-1,-1,0.682,0.181481481,-0.252777778,1,0,0,1.3277,Diorite_rect,3,1.328,0,11,0,11,0,1,,,,,,,,,,,,,
6633adcd500f96fcde309792,TCN,2024-06-24_13h45.42.614,LearnStrategy,2023.2.3,Win32,60.24096386,7,1,13,-0.025,-0.002777778,1,0,0,0.8156,rock_grid_rect_2,3,12,-1,-1,0.816,-0.127777778,-0.4,1,0,0,1.0269,Pegmatite_rect,6,1.027,0,12,0,12,0,1,,,,,,,,,,,,,
6633adcd500f96fcde309792,TCN,2024-06-24_13h45.42.614,LearnStrategy,2023.2.3,Win32,60.24096386,7,1,14,0.011111111,0.016666667,1,0,0,0.6486,rock_grid_rect_2,1,16,-1,-1,0.649,0.134259259,-0.261111111,1,0,0,1.4607,Diorite_rect,3,1.461,0,13,0,13,0,1,,,,,,,,,,,,,
6633adcd500f96fcde309792,TCN,2024-06-24_13h45.42.614,LearnStrategy,2023.2.3,Win32,60.24096386,7,1,15,-0.009259259,0.009259259,1,0,0,0.7156,rock_grid_rect_2,1,11,-1,-1,0.716,-0.32962963,-0.262037037,1,0,0,1.0778,Andesite_rect,1,1.078,1,14,0,14,0,1,,,,,,,,,,,,,
6633adcd500f96fcde309792,TCN,2024-06-24_13h45.42.614,LearnStrategy,2023.2.3,Win32,60.24096386,7,1,16,0.034259259,0.006481481,1,0,0,0.8657,rock_grid_rect_2,2,16,-1,-1,0.866,0.325,-0.231481481,1,0,0,3.5111,Gabbro_rect,4,3.511,0,15,0,15,0,1,,,,,,,,,,,,,
6633adcd500f96fcde309792,TCN,2024-06-24_13h45.42.614,LearnStrategy,2023.2.3,Win32,60.24096386,7,2,1,,,,,,,,4,1,,,,,,,,,,,6,1.665,0,,,,,,-0.060185185,-0.400925926,1,0,0,1.665,Pegmatite_rect,0,0,0,0,1,
6633adcd500f96fcde309792,TCN,2024-06-24_13h45.42.614,LearnStrategy,2023.2.3,Win32,60.24096386,7,2,2,,,,,,,,6,3,,,,,,,,,,,7,1.853,0,,,,,,0.102777778,-0.4,1,0,0,1.8533,Peridotite_rect,1,0,1,0,1,
6633adcd500f96fcde309792,TCN,2024-06-24_13h45.42.614,LearnStrategy,2023.2.3,Win32,60.24096386,7,2,3,,,,,,,,2,14,,,,,,,,,,,4,2.494,0,,,,,,0.386111111,-0.252777778,1,0,0,2.4937,Gabbro_rect,2,0,2,0,1,
6633adcd500f96fcde309792,TCN,2024-06-24_13h45.42.614,LearnStrategy,2023.2.3,Win32,60.24096386,7,2,4,,,,,,,,5,14,,,,,,,,,,,5,1.126,1,,,,,,-0.319444444,-0.393518519,1,0,0,1.1257,Obsidian_rect,3,0,3,0,1,
6633adcd500f96fcde309792,TCN,2024-06-24_13h45.42.614,LearnStrategy,2023.2.3,Win32,60.24096386,7,2,5,,,,,,,,5,16,,,,,,,,,,,5,1.727,1,,,,,,-0.342592593,-0.400925926,1,0,0,1.7271,Obsidian_rect,4,0,4,0,1,
6633adcd500f96fcde309792,TCN,2024-06-24_13h45.42.614,LearnStrategy,2023.2.3,Win32,60.24096386,7,2,6,,,,,,,,3,13,,,,,,,,,,,6,1.044,0,,,,,,-0.115740741,-0.400925926,1,0,0,1.0438,Pegmatite_rect,5,0,5,0,1,
6633adcd500f96fcde309792,TCN,2024-06-24_13h45.42.614,LearnStrategy,2023.2.3,Win32,60.24096386,7,2,7,,,,,,,,3,9,,,,,,,,,,,1,0.988,0,,,,,,-0.367592593,-0.251851852,1,0,0,0.9881,Andesite_rect,6,0,6,0,1,
6633adcd500f96fcde309792,TCN,2024-06-24_13h45.42.614,LearnStrategy,2023.2.3,Win32,60.24096386,7,2,8,,,,,,,,1,6,,,,,,,,,,,3,1.261,0,,,,,,0.10462963,-0.258333333,1,0,0,1.2611,Diorite_rect,7,0,7,0,1,
6633adcd500f96fcde309792,TCN,2024-06-24_13h45.42.614,LearnStrategy,2023.2.3,Win32,60.24096386,7,2,9,,,,,,,,6,7,,,,,,,,,,,6,1.479,1,,,,,,-0.090740741,-0.42037037,1,0,0,1.4792,Pegmatite_rect,8,0,8,0,1,
6633adcd500f96fcde309792,TCN,2024-06-24_13h45.42.614,LearnStrategy,2023.2.3,Win32,60.24096386,7,2,10,,,,,,,,4,12,,,,,,,,,,,7,1.294,0,,,,,,0.140740741,-0.406481481,1,0,0,1.2942,Peridotite_rect,9,0,9,0,1,
6633adcd500f96fcde309792,TCN,2024-06-24_13h45.42.614,LearnStrategy,2023.2.3,Win32,60.24096386,7,2,11,,,,,,,,1,14,,,,,,,,,,,1,1.105,1,,,,,,-0.359259259,-0.247222222,1,0,0,1.1049,Andesite_rect,10,0,10,0,1,
6633adcd500f96fcde309792,TCN,2024-06-24_13h45.42.614,LearnStrategy,2023.2.3,Win32,60.24096386,7,2,12,,,,,,,,2,1,,,,,,,,,,,2,2.727,1,,,,,,-0.186111111,-0.253703704,1,0,0,2.7273,Basalt_rect,11,0,11,0,1,
6633adcd500f96fcde309792,TCN,2024-06-24_13h45.42.614,LearnStrategy,2023.2.3,Win32,60.24096386,7,2,13,,,,,,,,7,5,,,,,,,,,,,4,1.695,0,,,,,,0.355555556,-0.264814815,1,0,0,1.695,Gabbro_rect,12,0,12,0,1,
6633adcd500f96fcde309792,TCN,2024-06-24_13h45.42.614,LearnStrategy,2023.2.3,Win32,60.24096386,7,2,14,,,,,,,,8,15,,,,,,,,,,,8,1.238,1,,,,,,0.410185185,-0.39537037,1,0,0,1.2382,Pumice_rect,13,0,13,0,1,
6633adcd500f96fcde309792,TCN,2024-06-24_13h45.42.614,LearnStrategy,2023.2.3,Win32,60.24096386,7,2,15,,,,,,,,8,8,,,,,,,,,,,8,1.129,1,,,,,,0.353703704,-0.39537037,1,0,0,1.1286,Pumice_rect,14,0,14,0,1,
6633adcd500f96fcde309792,TCN,2024-06-24_13h45.42.614,LearnStrategy,2023.2.3,Win32,60.24096386,7,2,16,,,,,,,,7,8,,,,,,,,,,,6,1.107,0,,,,,,-0.080555556,-0.386111111,1,0,0,1.1067,Pegmatite_rect,15,0,15,0,1,
6633adcd500f96fcde309792,TCN,2024-06-24_13h45.42.614,LearnStrategy,2023.2.3,Win32,60.24096386,8,1,1,0.002777778,0.017592593,1,0,0,0.8928,rock_grid_rect_2,7,16,-1,-1,0.893,0.10462963,-0.24537037,1,0,0,0.8507,Diorite_rect,3,0.851,0,0,0,0,0,1,,,,,,,,,,,,,
6633adcd500f96fcde309792,TCN,2024-06-24_13h45.42.614,LearnStrategy,2023.2.3,Win32,60.24096386,8,1,2,0.001851852,-0.003703704,1,0,0,0.8142,rock_grid_rect_2,6,6,-1,-1,0.814,-0.375925926,-0.255555556,1,0,0,1.1448,Andesite_rect,1,1.145,0,1,0,1,0,1,,,,,,,,,,,,,
6633adcd500f96fcde309792,TCN,2024-06-24_13h45.42.614,LearnStrategy,2023.2.3,Win32,60.24096386,8,1,3,0.039814815,-0.021296296,1,0,0,0.682,rock_grid_rect_2,1,11,-1,-1,0.682,-0.099074074,-0.399074074,1,0,0,1.0111,Pegmatite_rect,6,1.011,0,2,0,2,0,1,,,,,,,,,,,,,
6633adcd500f96fcde309792,TCN,2024-06-24_13h45.42.614,LearnStrategy,2023.2.3,Win32,60.24096386,8,1,4,-0.005555556,0.024074074,1,0,0,0.7985,rock_grid_rect_2,7,15,-1,-1,0.798,-0.35,-0.236111111,1,0,0,1.6271,Andesite_rect,1,1.627,0,3,0,3,0,1,,,,,,,,,,,,,
6633adcd500f96fcde309792,TCN,2024-06-24_13h45.42.614,LearnStrategy,2023.2.3,Win32,60.24096386,8,1,5,-0.006481481,0.008333333,1,0,0,0.5972,rock_grid_rect_2,1,5,-1,-1,0.597,-0.152777778,-0.390740741,1,0,0,1.5278,Pegmatite_rect,6,1.528,0,4,0,4,0,1,,,,,,,,,,,,,
6633adcd500f96fcde309792,TCN,2024-06-24_13h45.42.614,LearnStrategy,2023.2.3,Win32,60.24096386,8,1,6,-0.009259259,-0.006481481,1,0,0,0.6311,rock_grid_rect_2,2,2,-1,-1,0.631,-0.096296296,-0.258333333,1,0,0,1.3946,Basalt_rect,2,1.395,1,5,0,5,0,1,,,,,,,,,,,,,
6633adcd500f96fcde309792,TCN,2024-06-24_13h45.42.614,LearnStrategy,2023.2.3,Win32,60.24096386,8,1,7,-0.007407407,-0.00462963,1,0,0,0.6655,rock_grid_rect_2,4,8,-1,-1,0.666,0.34537037,-0.266666667,1,0,0,1.3113,Gabbro_rect,4,1.311,1,6,0,6,0,1,,,,,,,,,,,,,
6633adcd500f96fcde309792,TCN,2024-06-24_13h45.42.614,LearnStrategy,2023.2.3,Win32,60.24096386,8,1,8,0.003703704,0.011111111,1,0,0,0.631,rock_grid_rect_2,6,9,-1,-1,0.631,-0.353703704,-0.262037037,1,0,0,2.0136,Andesite_rect,1,2.014,0,7,0,7,0,1,,,,,,,,,,,,,
6633adcd500f96fcde309792,TCN,2024-06-24_13h45.42.614,LearnStrategy,2023.2.3,Win32,60.24096386,8,1,9,0.012037037,-0.006481481,1,0,0,0.631,rock_grid_rect_2,4,3,-1,-1,0.631,0.112037037,-0.403703704,1,0,0,1.1275,Peridotite_rect,7,1.128,0,8,0,8,0,1,,,,,,,,,,,,,
6633adcd500f96fcde309792,TCN,2024-06-24_13h45.42.614,LearnStrategy,2023.2.3,Win32,60.24096386,8,1,10,-0.025925926,-0.022222222,1,0,0,0.6656,rock_grid_rect_2,4,8,-1,-1,0.666,-0.206481481,-0.40462963,1,0,0,1.4106,Pegmatite_rect,6,1.411,0,9,0,9,0,1,,,,,,,,,,,,,
6633adcd500f96fcde309792,TCN,2024-06-24_13h45.42.614,LearnStrategy,2023.2.3,Win32,60.24096386,8,1,11,-0.023148148,0,1,0,0,0.6475,rock_grid_rect_2,2,6,-1,-1,0.648,-0.053703704,-0.249074074,1,0,0,1.5779,Basalt_rect,2,1.578,1,10,0,10,0,1,,,,,,,,,,,,,
6633adcd500f96fcde309792,TCN,2024-06-24_13h45.42.614,LearnStrategy,2023.2.3,Win32,60.24096386,8,1,12,0.038888889,-0.011111111,1,0,0,0.6989,rock_grid_rect_2,3,14,-1,-1,0.699,0.131481481,-0.397222222,1,0,0,2.1623,Peridotite_rect,7,2.162,0,11,0,11,0,1,,,,,,,,,,,,,
6633adcd500f96fcde309792,TCN,2024-06-24_13h45.42.614,LearnStrategy,2023.2.3,Win32,60.24096386,8,1,13,0.02037037,0.016666667,1,0,0,0.6131,rock_grid_rect_2,3,6,-1,-1,0.613,0.181481481,-0.248148148,1,0,0,0.8778,Diorite_rect,3,0.878,1,12,0,12,0,1,,,,,,,,,,,,,
6633adcd500f96fcde309792,TCN,2024-06-24_13h45.42.614,LearnStrategy,2023.2.3,Win32,60.24096386,8,1,14,0.024074074,-0.007407407,1,0,0,0.7328,rock_grid_rect_2,3,2,-1,-1,0.733,0.112037037,-0.240740741,1,0,0,1.0775,Diorite_rect,3,1.077,1,13,0,13,0,1,,,,,,,,,,,,,
6633adcd500f96fcde309792,TCN,2024-06-24_13h45.42.614,LearnStrategy,2023.2.3,Win32,60.24096386,8,1,15,0.010185185,0.010185185,1,0,0,0.6965,rock_grid_rect_2,6,11,-1,-1,0.697,-0.12037037,-0.399074074,1,0,0,1.2776,Pegmatite_rect,6,1.278,1,14,0,14,0,1,,,,,,,,,,,,,
6633adcd500f96fcde309792,TCN,2024-06-24_13h45.42.614,LearnStrategy,2023.2.3,Win32,60.24096386,8,1,16,-0.016666667,-0.008333333,1,0,0,0.7146,rock_grid_rect_2,7,13,-1,-1,0.715,0.125,-0.397222222,1,0,0,1.0773,Peridotite_rect,7,1.077,1,15,0,15,0,1,,,,,,,,,,,,,
6633adcd500f96fcde309792,TCN,2024-06-24_13h45.42.614,LearnStrategy,2023.2.3,Win32,60.24096386,8,2,1,,,,,,,,3,7,,,,,,,,,,,3,1.244,1,,,,,,0.102777778,-0.261111111,1,0,0,1.2441,Diorite_rect,0,0,0,0,1,
6633adcd500f96fcde309792,TCN,2024-06-24_13h45.42.614,LearnStrategy,2023.2.3,Win32,60.24096386,8,2,2,,,,,,,,3,15,,,,,,,,,,,6,1.655,0,,,,,,-0.07962963,-0.400925926,1,0,0,1.6545,Pegmatite_rect,1,0,1,0,1,
6633adcd500f96fcde309792,TCN,2024-06-24_13h45.42.614,LearnStrategy,2023.2.3,Win32,60.24096386,8,2,3,,,,,,,,7,10,,,,,,,,,,,7,1.054,1,,,,,,0.173148148,-0.4,1,0,0,1.0543,Peridotite_rect,2,0,2,0,1,
6633adcd500f96fcde309792,TCN,2024-06-24_13h45.42.614,LearnStrategy,2023.2.3,Win32,60.24096386,8,2,4,,,,,,,,6,5,,,,,,,,,,,4,1.711,0,,,,,,0.335185185,-0.255555556,1,0,0,1.7108,Gabbro_rect,3,0,3,0,1,
6633adcd500f96fcde309792,TCN,2024-06-24_13h45.42.614,LearnStrategy,2023.2.3,Win32,60.24096386,8,2,5,,,,,,,,5,7,,,,,,,,,,,5,1.111,1,,,,,,-0.363888889,-0.400925926,1,0,0,1.1107,Obsidian_rect,4,0,4,0,1,
6633adcd500f96fcde309792,TCN,2024-06-24_13h45.42.614,LearnStrategy,2023.2.3,Win32,60.24096386,8,2,6,,,,,,,,7,6,,,,,,,,,,,1,1.261,0,,,,,,-0.311111111,-0.247222222,1,0,0,1.2612,Andesite_rect,5,0,5,0,1,
6633adcd500f96fcde309792,TCN,2024-06-24_13h45.42.614,LearnStrategy,2023.2.3,Win32,60.24096386,8,2,7,,,,,,,,8,6,,,,,,,,,,,8,1.094,1,,,,,,0.330555556,-0.385185185,1,0,0,1.0939,Pumice_rect,6,0,6,0,1,
6633adcd500f96fcde309792,TCN,2024-06-24_13h45.42.614,LearnStrategy,2023.2.3,Win32,60.24096386,8,2,8,,,,,,,,1,3,,,,,,,,,,,2,1.188,0,,,,,,-0.15,-0.25462963,1,0,0,1.1885,Basalt_rect,7,0,7,0,1,
6633adcd500f96fcde309792,TCN,2024-06-24_13h45.42.614,LearnStrategy,2023.2.3,Win32,60.24096386,8,2,9,,,,,,,,2,12,,,,,,,,,,,7,1.561,0,,,,,,0.173148148,-0.409259259,1,0,0,1.5607,Peridotite_rect,8,0,8,0,1,
6633adcd500f96fcde309792,TCN,2024-06-24_13h45.42.614,LearnStrategy,2023.2.3,Win32,60.24096386,8,2,10,,,,,,,,4,15,,,,,,,,,,,6,1.221,0,,,,,,-0.165740741,-0.387962963,1,0,0,1.2205,Pegmatite_rect,9,0,9,0,1,
6633adcd500f96fcde309792,TCN,2024-06-24_13h45.42.614,LearnStrategy,2023.2.3,Win32,60.24096386,8,2,11,,,,,,,,6,15,,,,,,,,,,,7,2.082,0,,,,,,0.139814815,-0.398148148,1,0,0,2.0822,Peridotite_rect,10,0,10,0,1,
6633adcd500f96fcde309792,TCN,2024-06-24_13h45.42.614,LearnStrategy,2023.2.3,Win32,60.24096386,8,2,12,,,,,,,,1,9,,,,,,,,,,,3,1.551,0,,,,,,0.206481481,-0.231481481,1,0,0,1.5514,Diorite_rect,11,0,11,0,1,
6633adcd500f96fcde309792,TCN,2024-06-24_13h45.42.614,LearnStrategy,2023.2.3,Win32,60.24096386,8,2,13,,,,,,,,8,5,,,,,,,,,,,8,1.099,1,,,,,,0.391666667,-0.408333333,1,0,0,1.0992,Pumice_rect,12,0,12,0,1,
6633adcd500f96fcde309792,TCN,2024-06-24_13h45.42.614,LearnStrategy,2023.2.3,Win32,60.24096386,8,2,14,,,,,,,,4,13,,,,,,,,,,,1,2.177,0,,,,,,-0.34537037,-0.25462963,1,0,0,2.1773,Andesite_rect,13,0,13,0,1,
6633adcd500f96fcde309792,TCN,2024-06-24_13h45.42.614,LearnStrategy,2023.2.3,Win32,60.24096386,8,2,15,,,,,,,,2,9,,,,,,,,,,,6,1.286,0,,,,,,-0.050925926,-0.37962963,1,0,0,1.2859,Pegmatite_rect,14,0,14,0,1,
6633adcd500f96fcde309792,TCN,2024-06-24_13h45.42.614,LearnStrategy,2023.2.3,Win32,60.24096386,8,2,16,,,,,,,,5,2,,,,,,,,,,,5,1.087,1,,,,,,-0.375925926,-0.383333333,1,0,0,1.0872,Obsidian_rect,15,0,15,0,1,
6633adcd500f96fcde309792,TCN,2024-06-24_13h45.42.614,LearnStrategy,2023.2.3,Win32,60.24096386,9,1,1,-0.006481481,-0.000925926,1,0,0,1.026,rock_grid_rect_2,1,2,-1,-1,1.026,-0.094444444,-0.397222222,1,0,0,1.2871,Pegmatite_rect,6,1.287,0,0,0,0,0,1,,,,,,,,,,,,,
6633adcd500f96fcde309792,TCN,2024-06-24_13h45.42.614,LearnStrategy,2023.2.3,Win32,60.24096386,9,1,2,0.00462963,-0.019444444,1,0,0,0.6641,rock_grid_rect_2,1,5,-1,-1,0.664,-0.066666667,-0.399074074,1,0,0,1.947,Pegmatite_rect,6,1.947,0,1,0,1,0,1,,,,,,,,,,,,,
6633adcd500f96fcde309792,TCN,2024-06-24_13h45.42.614,LearnStrategy,2023.2.3,Win32,60.24096386,9,1,3,-0.000925926,-0.00462963,1,0,0,0.6142,rock_grid_rect_2,3,6,-1,-1,0.614,-0.363888889,-0.263888889,1,0,0,0.8775,Andesite_rect,1,0.878,0,2,0,2,0,1,,,,,,,,,,,,,
6633adcd500f96fcde309792,TCN,2024-06-24_13h45.42.614,LearnStrategy,2023.2.3,Win32,60.24096386,9,1,4,0.014814815,-0.011111111,1,0,0,0.6312,rock_grid_rect_2,2,6,-1,-1,0.631,-0.048148148,-0.266666667,1,0,0,1.0274,Basalt_rect,2,1.027,1,3,0,3,0,1,,,,,,,,,,,,,
6633adcd500f96fcde309792,TCN,2024-06-24_13h45.42.614,LearnStrategy,2023.2.3,Win32,60.24096386,9,1,5,0.008333333,-0.00462963,1,0,0,0.6644,rock_grid_rect_2,7,7,-1,-1,0.664,0.153703704,-0.263888889,1,0,0,1.143,Diorite_rect,3,1.143,0,4,0,4,0,1,,,,,,,,,,,,,
6633adcd500f96fcde309792,TCN,2024-06-24_13h45.42.614,LearnStrategy,2023.2.3,Win32,60.24096386,9,1,6,0.046296296,-0.019444444,1,0,0,0.6466,rock_grid_rect_2,3,11,-1,-1,0.647,0.12962963,-0.416666667,1,0,0,0.8293,Peridotite_rect,7,0.829,0,5,0,5,0,1,,,,,,,,,,,,,
6633adcd500f96fcde309792,TCN,2024-06-24_13h45.42.614,LearnStrategy,2023.2.3,Win32,60.24096386,9,1,7,0.02962963,-0.017592593,1,0,0,0.5814,rock_grid_rect_2,4,8,-1,-1,0.581,0.125,-0.256481481,1,0,0,0.8109,Diorite_rect,3,0.811,0,6,0,6,0,1,,,,,,,,,,,,,
6633adcd500f96fcde309792,TCN,2024-06-24_13h45.42.614,LearnStrategy,2023.2.3,Win32,60.24096386,9,1,8,0.007407407,0.002777778,1,0,0,0.6318,rock_grid_rect_2,6,12,-1,-1,0.632,-0.078703704,-0.389814815,1,0,0,2.1601,Pegmatite_rect,6,2.16,1,7,0,7,0,1,,,,,,,,,,,,,
6633adcd500f96fcde309792,TCN,2024-06-24_13h45.42.614,LearnStrategy,2023.2.3,Win32,60.24096386,9,1,9,0.000925926,0.008333333,1,0,0,0.6153,rock_grid_rect_2,7,13,-1,-1,0.615,0.105555556,-0.401851852,1,0,0,0.9941,Peridotite_rect,7,0.994,1,8,0,8,0,1,,,,,,,,,,,,,
6633adcd500f96fcde309792,TCN,2024-06-24_13h45.42.614,LearnStrategy,2023.2.3,Win32,60.24096386,9,1,10,-0.02037037,0,1,0,0,0.5989,rock_grid_rect_2,7,16,-1,-1,0.599,-0.130555556,-0.403703704,1,0,0,1.3111,Pegmatite_rect,6,1.311,0,9,0,9,0,1,,,,,,,,,,,,,
6633adcd500f96fcde309792,TCN,2024-06-24_13h45.42.614,LearnStrategy,2023.2.3,Win32,60.24096386,9,1,11,0.00462963,0.00462963,1,0,0,0.6311,rock_grid_rect_2,1,11,-1,-1,0.631,0.100925926,-0.237037037,1,0,0,0.8274,Diorite_rect,3,0.827,0,10,0,10,0,1,,,,,,,,,,,,,
6633adcd500f96fcde309792,TCN,2024-06-24_13h45.42.614,LearnStrategy,2023.2.3,Win32,60.24096386,9,1,12,-0.028703704,-0.019444444,1,0,0,0.5976,rock_grid_rect_2,6,11,-1,-1,0.598,-0.341666667,-0.248148148,1,0,0,2.2277,Andesite_rect,1,2.228,0,11,0,11,0,1,,,,,,,,,,,,,
6633adcd500f96fcde309792,TCN,2024-06-24_13h45.42.614,LearnStrategy,2023.2.3,Win32,60.24096386,9,1,13,-0.00462963,0.02037037,1,0,0,0.6645,rock_grid_rect_2,4,11,-1,-1,0.664,-0.109259259,-0.403703704,1,0,0,1.0608,Pegmatite_rect,6,1.061,0,12,0,12,0,1,,,,,,,,,,,,,
6633adcd500f96fcde309792,TCN,2024-06-24_13h45.42.614,LearnStrategy,2023.2.3,Win32,60.24096386,9,1,14,-0.005555556,-0.008333333,1,0,0,0.5972,rock_grid_rect_2,2,16,-1,-1,0.597,-0.064814815,-0.251851852,1,0,0,1.261,Basalt_rect,2,1.261,1,13,0,13,0,1,,,,,,,,,,,,,
6633adcd500f96fcde309792,TCN,2024-06-24_13h45.42.614,LearnStrategy,2023.2.3,Win32,60.24096386,9,1,15,0.035185185,0.012037037,1,0,0,0.6141,rock_grid_rect_2,4,16,-1,-1,0.614,0.35,-0.263888889,1,0,0,1.1778,Gabbro_rect,4,1.178,1,14,0,14,0,1,,,,,,,,,,,,,
6633adcd500f96fcde309792,TCN,2024-06-24_13h45.42.614,LearnStrategy,2023.2.3,Win32,60.24096386,9,1,16,0.015740741,-0.006481481,1,0,0,0.7644,rock_grid_rect_2,6,13,-1,-1,0.764,-0.086111111,-0.40462963,1,0,0,1.1112,Pegmatite_rect,6,1.111,1,15,0,15,0,1,,,,,,,,,,,,,
6633adcd500f96fcde309792,TCN,2024-06-24_13h45.42.614,LearnStrategy,2023.2.3,Win32,60.24096386,9,2,1,,,,,,,,6,8,,,,,,,,,,,1,3.122,0,,,,,,-0.368518519,-0.25,1,0,0,3.1217,Andesite_rect,0,0,0,0,1,
6633adcd500f96fcde309792,TCN,2024-06-24_13h45.42.614,LearnStrategy,2023.2.3,Win32,60.24096386,9,2,2,,,,,,,,4,9,,,,,,,,,,,6,1.014,0,,,,,,-0.118518519,-0.406481481,1,0,0,1.0137,Pegmatite_rect,1,0,1,0,1,
6633adcd500f96fcde309792,TCN,2024-06-24_13h45.42.614,LearnStrategy,2023.2.3,Win32,60.24096386,9,2,3,,,,,,,,1,1,,,,,,,,,,,3,2.499,0,,,,,,0.187962963,-0.236111111,1,0,0,2.4989,Diorite_rect,2,0,2,0,1,
6633adcd500f96fcde309792,TCN,2024-06-24_13h45.42.614,LearnStrategy,2023.2.3,Win32,60.24096386,9,2,4,,,,,,,,8,9,,,,,,,,,,,8,1.064,1,,,,,,0.419444444,-0.387037037,1,0,0,1.0644,Pumice_rect,3,0,3,0,1,
6633adcd500f96fcde309792,TCN,2024-06-24_13h45.42.614,LearnStrategy,2023.2.3,Win32,60.24096386,9,2,5,,,,,,,,4,10,,,,,,,,,,,6,1.333,0,,,,,,-0.10462963,-0.407407407,1,0,0,1.3331,Pegmatite_rect,4,0,4,0,1,
6633adcd500f96fcde309792,TCN,2024-06-24_13h45.42.614,LearnStrategy,2023.2.3,Win32,60.24096386,9,2,6,,,,,,,,5,6,,,,,,,,,,,5,1.037,1,,,,,,-0.347222222,-0.393518519,1,0,0,1.0374,Obsidian_rect,5,0,5,0,1,
6633adcd500f96fcde309792,TCN,2024-06-24_13h45.42.614,LearnStrategy,2023.2.3,Win32,60.24096386,9,2,7,,,,,,,,2,8,,,,,,,,,,,2,1.72,1,,,,,,-0.087962963,-0.25462963,1,0,0,1.7202,Basalt_rect,6,0,6,0,1,
6633adcd500f96fcde309792,TCN,2024-06-24_13h45.42.614,LearnStrategy,2023.2.3,Win32,60.24096386,9,2,8,,,,,,,,5,12,,,,,,,,,,,5,1.014,1,,,,,,-0.373148148,-0.392592593,1,0,0,1.0135,Obsidian_rect,7,0,7,0,1,
6633adcd500f96fcde309792,TCN,2024-06-24_13h45.42.614,LearnStrategy,2023.2.3,Win32,60.24096386,9,2,9,,,,,,,,7,2,,,,,,,,,,,3,2.169,0,,,,,,0.180555556,-0.250925926,1,0,0,2.1686,Diorite_rect,8,0,8,0,1,
6633adcd500f96fcde309792,TCN,2024-06-24_13h45.42.614,LearnStrategy,2023.2.3,Win32,60.24096386,9,2,10,,,,,,,,2,5,,,,,,,,,,,6,1.302,0,,,,,,-0.081481481,-0.400925926,1,0,0,1.3022,Pegmatite_rect,9,0,9,0,1,
6633adcd500f96fcde309792,TCN,2024-06-24_13h45.42.614,LearnStrategy,2023.2.3,Win32,60.24096386,9,2,11,,,,,,,,6,10,,,,,,,,,,,1,2.376,0,,,,,,-0.343518519,-0.237037037,1,0,0,2.3764,Andesite_rect,10,0,10,0,1,
6633adcd500f96fcde309792,TCN,2024-06-24_13h45.42.614,LearnStrategy,2023.2.3,Win32,60.24096386,9,2,12,,,,,,,,3,10,,,,,,,,,,,7,1.736,0,,,,,,0.067592593,-0.407407407,1,0,0,1.7364,Peridotite_rect,11,0,11,0,1,
6633adcd500f96fcde309792,TCN,2024-06-24_13h45.42.614,LearnStrategy,2023.2.3,Win32,60.24096386,9,2,13,,,,,,,,8,10,,,,,,,,,,,8,1.06,1,,,,,,0.327777778,-0.399074074,1,0,0,1.0601,Pumice_rect,12,0,12,0,1,
6633adcd500f96fcde309792,TCN,2024-06-24_13h45.42.614,LearnStrategy,2023.2.3,Win32,60.24096386,9,2,14,,,,,,,,3,8,,,,,,,,,,,3,1.109,1,,,,,,0.107407407,-0.27037037,1,0,0,1.1085,Diorite_rect,13,0,13,0,1,
6633adcd500f96fcde309792,TCN,2024-06-24_13h45.42.614,LearnStrategy,2023.2.3,Win32,60.24096386,9,2,15,,,,,,,,1,7,,,,,,,,,,,3,1.149,0,,,,,,0.102777778,-0.255555556,1,0,0,1.1491,Diorite_rect,14,0,14,0,1,
6633adcd500f96fcde309792,TCN,2024-06-24_13h45.42.614,LearnStrategy,2023.2.3,Win32,60.24096386,9,2,16,,,,,,,,7,4,,,,,,,,,,,6,1.117,0,,,,,,-0.099074074,-0.399074074,1,0,0,1.1169,Pegmatite_rect,15,0,15,0,1,
6633adcd500f96fcde309792,TCN,2024-06-24_13h45.42.614,LearnStrategy,2023.2.3,Win32,60.24096386,,,,,,,,,,,,,,,,,,,,,,,,,,,,,,,,,,,,,,,,,,,0
6633adcd500f96fcde309792,TCN,2024-06-24_13h45.42.614,LearnStrategy,2023.2.3,Win32,60.24096386,,,,,,,,,,,,,,,,,,,,,,,,,,,,,,,,,,,,,,,,,,,
6633adcd500f96fcde309792,TCN,2024-06-24_13h45.42.614,LearnStrategy,2023.2.3,Win32,60.24096386,,,,,,,,,,,8,2,1,1,,,,,,,,,,,,,,,,,,,,,,,,,,,,,
6633adcd500f96fcde309792,TCN,2024-06-24_13h45.42.614,LearnStrategy,2023.2.3,Win32,60.24096386,,,,,,,,,,,2,10,1,2,,,,,,,,,,,,,,,,,,,,,,,,,,,,,
6633adcd500f96fcde309792,TCN,2024-06-24_13h45.42.614,LearnStrategy,2023.2.3,Win32,60.24096386,,,,,,,,,,,3,14,1,3,,,,,,,,,,,,,,,,,,,,,,,,,,,,,
6633adcd500f96fcde309792,TCN,2024-06-24_13h45.42.614,LearnStrategy,2023.2.3,Win32,60.24096386,,,,,,,,,,,6,9,1,4,,,,,,,,,,,,,,,,,,,,,,,,,,,,,
6633adcd500f96fcde309792,TCN,2024-06-24_13h45.42.614,LearnStrategy,2023.2.3,Win32,60.24096386,,,,,,,,,,,1,10,1,5,,,,,,,,,,,,,,,,,,,,,,,,,,,,,
6633adcd500f96fcde309792,TCN,2024-06-24_13h45.42.614,LearnStrategy,2023.2.3,Win32,60.24096386,,,,,,,,,,,4,8,1,6,,,,,,,,,,,,,,,,,,,,,,,,,,,,,
6633adcd500f96fcde309792,TCN,2024-06-24_13h45.42.614,LearnStrategy,2023.2.3,Win32,60.24096386,,,,,,,,,,,2,2,1,7,,,,,,,,,,,,,,,,,,,,,,,,,,,,,
6633adcd500f96fcde309792,TCN,2024-06-24_13h45.42.614,LearnStrategy,2023.2.3,Win32,60.24096386,,,,,,,,,,,7,13,1,8,,,,,,,,,,,,,,,,,,,,,,,,,,,,,
6633adcd500f96fcde309792,TCN,2024-06-24_13h45.42.614,LearnStrategy,2023.2.3,Win32,60.24096386,,,,,,,,,,,7,14,2,1,,,,,,,,,,,,,,,,,,,,,,,,,,,,,
6633adcd500f96fcde309792,TCN,2024-06-24_13h45.42.614,LearnStrategy,2023.2.3,Win32,60.24096386,,,,,,,,,,,3,12,2,2,,,,,,,,,,,,,,,,,,,,,,,,,,,,,
6633adcd500f96fcde309792,TCN,2024-06-24_13h45.42.614,LearnStrategy,2023.2.3,Win32,60.24096386,,,,,,,,,,,5,10,2,3,,,,,,,,,,,,,,,,,,,,,,,,,,,,,
6633adcd500f96fcde309792,TCN,2024-06-24_13h45.42.614,LearnStrategy,2023.2.3,Win32,60.24096386,,,,,,,,,,,2,16,2,4,,,,,,,,,,,,,,,,,,,,,,,,,,,,,
6633adcd500f96fcde309792,TCN,2024-06-24_13h45.42.614,LearnStrategy,2023.2.3,Win32,60.24096386,,,,,,,,,,,7,15,2,5,,,,,,,,,,,,,,,,,,,,,,,,,,,,,
6633adcd500f96fcde309792,TCN,2024-06-24_13h45.42.614,LearnStrategy,2023.2.3,Win32,60.24096386,,,,,,,,,,,1,4,2,6,,,,,,,,,,,,,,,,,,,,,,,,,,,,,
6633adcd500f96fcde309792,TCN,2024-06-24_13h45.42.614,LearnStrategy,2023.2.3,Win32,60.24096386,,,,,,,,,,,6,12,2,7,,,,,,,,,,,,,,,,,,,,,,,,,,,,,
6633adcd500f96fcde309792,TCN,2024-06-24_13h45.42.614,LearnStrategy,2023.2.3,Win32,60.24096386,,,,,,,,,,,1,2,2,8,,,,,,,,,,,,,,,,,,,,,,,,,,,,,
6633adcd500f96fcde309792,TCN,2024-06-24_13h45.42.614,LearnStrategy,2023.2.3,Win32,60.24096386,,,,,,,,,,,7,12,3,1,,,,,,,,,,,,,,,,,,,,,,,,,,,,,
6633adcd500f96fcde309792,TCN,2024-06-24_13h45.42.614,LearnStrategy,2023.2.3,Win32,60.24096386,,,,,,,,,,,3,11,3,2,,,,,,,,,,,,,,,,,,,,,,,,,,,,,
6633adcd500f96fcde309792,TCN,2024-06-24_13h45.42.614,LearnStrategy,2023.2.3,Win32,60.24096386,,,,,,,,,,,6,6,3,3,,,,,,,,,,,,,,,,,,,,,,,,,,,,,
6633adcd500f96fcde309792,TCN,2024-06-24_13h45.42.614,LearnStrategy,2023.2.3,Win32,60.24096386,,,,,,,,,,,4,16,3,4,,,,,,,,,,,,,,,,,,,,,,,,,,,,,
6633adcd500f96fcde309792,TCN,2024-06-24_13h45.42.614,LearnStrategy,2023.2.3,Win32,60.24096386,,,,,,,,,,,5,5,3,5,,,,,,,,,,,,,,,,,,,,,,,,,,,,,
6633adcd500f96fcde309792,TCN,2024-06-24_13h45.42.614,LearnStrategy,2023.2.3,Win32,60.24096386,,,,,,,,,,,5,11,3,6,,,,,,,,,,,,,,,,,,,,,,,,,,,,,
6633adcd500f96fcde309792,TCN,2024-06-24_13h45.42.614,LearnStrategy,2023.2.3,Win32,60.24096386,,,,,,,,,,,6,13,3,7,,,,,,,,,,,,,,,,,,,,,,,,,,,,,
6633adcd500f96fcde309792,TCN,2024-06-24_13h45.42.614,LearnStrategy,2023.2.3,Win32,60.24096386,,,,,,,,,,,2,4,3,8,,,,,,,,,,,,,,,,,,,,,,,,,,,,,
6633adcd500f96fcde309792,TCN,2024-06-24_13h45.42.614,LearnStrategy,2023.2.3,Win32,60.24096386,,,,,,,,,,,6,11,4,1,,,,,,,,,,,,,,,,,,,,,,,,,,,,,
6633adcd500f96fcde309792,TCN,2024-06-24_13h45.42.614,LearnStrategy,2023.2.3,Win32,60.24096386,,,,,,,,,,,6,16,4,2,,,,,,,,,,,,,,,,,,,,,,,,,,,,,
6633adcd500f96fcde309792,TCN,2024-06-24_13h45.42.614,LearnStrategy,2023.2.3,Win32,60.24096386,,,,,,,,,,,4,14,4,3,,,,,,,,,,,,,,,,,,,,,,,,,,,,,
6633adcd500f96fcde309792,TCN,2024-06-24_13h45.42.614,LearnStrategy,2023.2.3,Win32,60.24096386,,,,,,,,,,,1,16,4,4,,,,,,,,,,,,,,,,,,,,,,,,,,,,,
6633adcd500f96fcde309792,TCN,2024-06-24_13h45.42.614,LearnStrategy,2023.2.3,Win32,60.24096386,,,,,,,,,,,3,6,4,5,,,,,,,,,,,,,,,,,,,,,,,,,,,,,
6633adcd500f96fcde309792,TCN,2024-06-24_13h45.42.614,LearnStrategy,2023.2.3,Win32,60.24096386,,,,,,,,,,,1,11,4,6,,,,,,,,,,,,,,,,,,,,,,,,,,,,,
6633adcd500f96fcde309792,TCN,2024-06-24_13h45.42.614,LearnStrategy,2023.2.3,Win32,60.24096386,,,,,,,,,,,4,11,4,7,,,,,,,,,,,,,,,,,,,,,,,,,,,,,
6633adcd500f96fcde309792,TCN,2024-06-24_13h45.42.614,LearnStrategy,2023.2.3,Win32,60.24096386,,,,,,,,,,,2,6,4,8,,,,,,,,,,,,,,,,,,,,,,,,,,,,,
6633adcd500f96fcde309792,TCN,2024-06-24_13h45.42.614,LearnStrategy,2023.2.3,Win32,60.24096386,,,,,,,,,,,4,3,5,1,,,,,,,,,,,,,,,,,,,,,,,,,,,,,
6633adcd500f96fcde309792,TCN,2024-06-24_13h45.42.614,LearnStrategy,2023.2.3,Win32,60.24096386,,,,,,,,,,,3,2,5,2,,,,,,,,,,,,,,,,,,,,,,,,,,,,,
6633adcd500f96fcde309792,TCN,2024-06-24_13h45.42.614,LearnStrategy,2023.2.3,Win32,60.24096386,,,,,,,,,,,4,5,5,3,,,,,,,,,,,,,,,,,,,,,,,,,,,,,
6633adcd500f96fcde309792,TCN,2024-06-24_13h45.42.614,LearnStrategy,2023.2.3,Win32,60.24096386,,,,,,,,,,,7,7,5,4,,,,,,,,,,,,,,,,,,,,,,,,,,,,,
6633adcd500f96fcde309792,TCN,2024-06-24_13h45.42.614,LearnStrategy,2023.2.3,Win32,60.24096386,,,,,,,,,,,1,5,5,5,,,,,,,,,,,,,,,,,,,,,,,,,,,,,
6633adcd500f96fcde309792,TCN,2024-06-24_13h45.42.614,LearnStrategy,2023.2.3,Win32,60.24096386,,,,,,,,,,,8,4,5,6,,,,,,,,,,,,,,,,,,,,,,,,,,,,,
6633adcd500f96fcde309792,TCN,2024-06-24_13h45.42.614,LearnStrategy,2023.2.3,Win32,60.24096386,,,,,,,,,,,7,16,5,7,,,,,,,,,,,,,,,,,,,,,,,,,,,,,
6633adcd500f96fcde309792,TCN,2024-06-24_13h45.42.614,LearnStrategy,2023.2.3,Win32,60.24096386,,,,,,,,,,,3,16,5,8,,,,,,,,,,,,,,,,,,,,,,,,,,,,,
6633adcd500f96fcde309792,TCN,2024-06-24_13h45.42.614,LearnStrategy,2023.2.3,Win32,60.24096386,,,,,,,,,,,5,8,6,1,,,,,,,,,,,,,,,,,,,,,,,,,,,,,
6633adcd500f96fcde309792,TCN,2024-06-24_13h45.42.614,LearnStrategy,2023.2.3,Win32,60.24096386,,,,,,,,,,,8,16,6,2,,,,,,,,,,,,,,,,,,,,,,,,,,,,,
6633adcd500f96fcde309792,TCN,2024-06-24_13h45.42.614,LearnStrategy,2023.2.3,Win32,60.24096386,,,,,,,,,,,5,9,6,3,,,,,,,,,,,,,,,,,,,,,,,,,,,,,
6633adcd500f96fcde309792,TCN,2024-06-24_13h45.42.614,LearnStrategy,2023.2.3,Win32,60.24096386,,,,,,,,,,,8,13,6,4,,,,,,,,,,,,,,,,,,,,,,,,,,,,,
6633adcd500f96fcde309792,TCN,2024-06-24_13h45.42.614,LearnStrategy,2023.2.3,Win32,60.24096386,,,,,,,,,,,5,4,6,5,,,,,,,,,,,,,,,,,,,,,,,,,,,,,
6633adcd500f96fcde309792,TCN,2024-06-24_13h45.42.614,LearnStrategy,2023.2.3,Win32,60.24096386,,,,,,,,,,,8,3,6,6,,,,,,,,,,,,,,,,,,,,,,,,,,,,,
6633adcd500f96fcde309792,TCN,2024-06-24_13h45.42.614,LearnStrategy,2023.2.3,Win32,60.24096386,,,,,,,,,,,8,14,6,7,,,,,,,,,,,,,,,,,,,,,,,,,,,,,
6633adcd500f96fcde309792,TCN,2024-06-24_13h45.42.614,LearnStrategy,2023.2.3,Win32,60.24096386,,,,,,,,,,,2,11,6,8,,,,,,,,,,,,,,,,,,,,,,,,,,,,,
