participant,condition,date,expName,psychopyVersion,OS,frameRate,block,phase,trial,learn_mouse_2.x,learn_mouse_2.y,learn_mouse_2.leftButton,learn_mouse_2.midButton,learn_mouse_2.rightButton,learn_mouse_2.time,learn_mouse_2.clicked_name,cat,token,row,col,t_select,cat_mouse_l.x,cat_mouse_l.y,cat_mouse_l.leftButton,cat_mouse_l.midButton,cat_mouse_l.rightButton,cat_mouse_l.time,cat_mouse_l.clicked_name,resp,t_resp,corr,train_trials.thisRepN,train_trials.thisTrialN,train_trials.thisN,train_trials.thisIndex,train_trials.ran,cat_mouse_t.x,cat_mouse_t.y,cat_mouse_t.leftButton,cat_mouse_t.midButton,cat_mouse_t.rightButton,cat_mouse_t.time,cat_mouse_t.clicked_name,test_trials.thisRepN,test_trials.thisTrialN,test_trials.thisN,test_trials.thisIndex,test_trials.ran,Bonus
6633bd3bc5ec5e52e25592a4,TCN,2024-06-24_23h07.29.451,LearnStrategy,2023.2.3,Win32,59.52380952,,,,,,,,,,,,,,,,,,,,,,,,,,,,,,,,,,,,,,,,,,,
6633bd3bc5ec5e52e25592a4,TCN,2024-06-24_23h07.29.451,LearnStrategy,2023.2.3,Win32,59.52380952,1,1,1,-0.062972523,-0.013532308,1,0,0,9.2022,rock_grid_rect_2,7,06,-1,-1,9.202,-0.076157892,-0.233518362,1,0,0,8.5281,Basalt_rect,2,8.528,0,0,0,0,0,1,,,,,,,,,,,,,
6633bd3bc5ec5e52e25592a4,TCN,2024-06-24_23h07.29.451,LearnStrategy,2023.2.3,Win32,59.52380952,1,1,2,-0.069218158,-0.00798055,1,0,0,3.7576,rock_grid_rect_2,7,05,-1,-1,3.758,-0.09420092,-0.388272002,1,0,0,7.1558,Pegmatite_rect,6,7.156,0,1,0,1,0,1,,,,,,,,,,,,,
6633bd3bc5ec5e52e25592a4,TCN,2024-06-24_23h07.29.451,LearnStrategy,2023.2.3,Win32,59.52380952,1,1,3,-0.121959339,0.002428829,1,0,0,2.6572,rock_grid_rect_2,1,02,-1,-1,2.657,0.379775539,-0.406315104,1,0,0,5.5278,Pumice_rect,8,5.528,0,2,0,2,0,1,,,,,,,,,,,,,
6633bd3bc5ec5e52e25592a4,TCN,2024-06-24_23h07.29.451,LearnStrategy,2023.2.3,Win32,59.52380952,1,1,4,-0.026886541,0.001040964,1,0,0,2.3253,rock_grid_rect_2,8,02,-1,-1,2.325,-0.398850357,-0.256419123,1,0,0,3.9099,Andesite_rect,1,3.91,0,3,0,3,0,1,,,,,,,,,,,,,
6633bd3bc5ec5e52e25592a4,TCN,2024-06-24_23h07.29.451,LearnStrategy,2023.2.3,Win32,59.52380952,1,1,5,-0.020640758,-0.015614088,1,0,0,2.4186,rock_grid_rect_2,3,13,-1,-1,2.419,-0.400238333,-0.415336544,1,0,0,6.4364,Obsidian_rect,5,6.436,0,4,0,4,0,1,,,,,,,,,,,,,
6633bd3bc5ec5e52e25592a4,TCN,2024-06-24_23h07.29.451,LearnStrategy,2023.2.3,Win32,59.52380952,1,1,6,-0.078933549,-0.005898659,1,0,0,1.9213,rock_grid_rect_2,5,06,-1,-1,1.921,0.338831676,-0.249479537,1,0,0,7.2249,Gabbro_rect,4,7.225,0,5,0,5,0,1,,,,,,,,,,,,,
6633bd3bc5ec5e52e25592a4,TCN,2024-06-24_23h07.29.451,LearnStrategy,2023.2.3,Win32,59.52380952,1,1,7,-0.079627575,-0.004510757,1,0,0,2.5461,rock_grid_rect_2,4,08,-1,-1,2.546,-0.110855898,-0.266134588,1,0,0,15.8008,Basalt_rect,2,15.801,0,6,0,6,0,1,,,,,,,,,,,,,
6633bd3bc5ec5e52e25592a4,TCN,2024-06-24_23h07.29.451,LearnStrategy,2023.2.3,Win32,59.52380952,1,1,8,-0.105304214,0.019777906,1,0,0,2.1663,rock_grid_rect_2,8,13,-1,-1,2.166,-0.09281287,-0.246703658,1,0,0,4.698,Basalt_rect,2,4.698,0,7,0,7,0,1,,,,,,,,,,,,,
6633bd3bc5ec5e52e25592a4,TCN,2024-06-24_23h07.29.451,LearnStrategy,2023.2.3,Win32,59.52380952,1,1,9,-0.061584547,-0.010062441,1,0,0,2.056,rock_grid_rect_2,1,06,-1,-1,2.056,0.316625089,-0.265440637,1,0,0,10.8577,Gabbro_rect,4,10.858,0,8,0,8,0,1,,,,,,,,,,,,,
6633bd3bc5ec5e52e25592a4,TCN,2024-06-24_23h07.29.451,LearnStrategy,2023.2.3,Win32,59.52380952,1,1,10,-0.086567235,-0.00798055,1,0,0,1.7607,rock_grid_rect_2,3,11,-1,-1,1.761,-0.378031524,-0.270298369,1,0,0,5.1913,Andesite_rect,1,5.191,0,9,0,9,0,1,,,,,,,,,,,,,
6633bd3bc5ec5e52e25592a4,TCN,2024-06-24_23h07.29.451,LearnStrategy,2023.2.3,Win32,59.52380952,1,1,11,-0.068524207,0.024635639,1,0,0,1.3082,rock_grid_rect_2,6,10,-1,-1,1.308,-0.135144709,-0.238376095,1,0,0,4.7545,Basalt_rect,2,4.755,0,10,0,10,0,1,,,,,,,,,,,,,
6633bd3bc5ec5e52e25592a4,TCN,2024-06-24_23h07.29.451,LearnStrategy,2023.2.3,Win32,59.52380952,1,1,12,-0.095588749,-0.014226222,1,0,0,2.3574,rock_grid_rect_2,6,11,-1,-1,2.357,0.093863118,-0.394517563,1,0,0,3.7462,Peridotite_rect,7,3.746,0,11,0,11,0,1,,,,,,,,,,,,,
6633bd3bc5ec5e52e25592a4,TCN,2024-06-24_23h07.29.451,LearnStrategy,2023.2.3,Win32,59.52380952,1,1,13,-0.066442279,0.001734915,1,0,0,2.6958,rock_grid_rect_2,5,02,-1,-1,2.696,0.052225379,-0.260582904,1,0,0,4.6528,Diorite_rect,3,4.653,0,12,0,12,0,1,,,,,,,,,,,,,
6633bd3bc5ec5e52e25592a4,TCN,2024-06-24_23h07.29.451,LearnStrategy,2023.2.3,Win32,59.52380952,1,1,14,-0.056032863,-0.001734878,1,0,0,1.9862,rock_grid_rect_2,2,09,-1,-1,1.986,0.333973944,-0.248785437,1,0,0,8.1573,Gabbro_rect,4,8.157,0,13,0,13,0,1,,,,,,,,,,,,,
6633bd3bc5ec5e52e25592a4,TCN,2024-06-24_23h07.29.451,LearnStrategy,2023.2.3,Win32,59.52380952,1,1,15,-0.116407508,-0.014226222,1,0,0,1.8223,rock_grid_rect_2,2,01,-1,-1,1.822,-0.36415224,-0.241151974,1,0,0,1.7387,Andesite_rect,1,1.739,0,14,0,14,0,1,,,,,,,,,,,,,
6633bd3bc5ec5e52e25592a4,TCN,2024-06-24_23h07.29.451,LearnStrategy,2023.2.3,Win32,59.52380952,1,1,16,-0.021334857,-0.010756355,1,0,0,4.0966,rock_grid_rect_2,4,09,-1,-1,4.097,0.365896366,-0.250867513,1,0,0,15.9366,Gabbro_rect,4,15.937,1,15,0,15,0,1,,,,,,,,,,,,,
6633bd3bc5ec5e52e25592a4,TCN,2024-06-24_23h07.29.451,LearnStrategy,2023.2.3,Win32,59.52380952,1,2,1,,,,,,,,5,04,,,,,,,,,,,5,6.255,1,,,,,,-0.376643547,-0.400069395,1,0,0,6.2554,Obsidian_rect,0,0,0,0,1,
6633bd3bc5ec5e52e25592a4,TCN,2024-06-24_23h07.29.451,LearnStrategy,2023.2.3,Win32,59.52380952,1,2,2,,,,,,,,3,09,,,,,,,,,,,3,6.507,1,,,,,,0.143828347,-0.249479537,1,0,0,6.5066,Diorite_rect,1,0,1,0,1,
6633bd3bc5ec5e52e25592a4,TCN,2024-06-24_23h07.29.451,LearnStrategy,2023.2.3,Win32,59.52380952,1,2,3,,,,,,,,2,02,,,,,,,,,,,2,11.372,1,,,,,,-0.168454812,-0.259888953,1,0,0,11.3717,Basalt_rect,2,0,2,0,1,
6633bd3bc5ec5e52e25592a4,TCN,2024-06-24_23h07.29.451,LearnStrategy,2023.2.3,Win32,59.52380952,1,2,4,,,,,,,,4,16,,,,,,,,,,,7,19.214,0,,,,,,0.089699263,-0.406315104,1,0,0,19.2136,Peridotite_rect,3,0,3,0,1,
6633bd3bc5ec5e52e25592a4,TCN,2024-06-24_23h07.29.451,LearnStrategy,2023.2.3,Win32,59.52380952,1,2,5,,,,,,,,2,14,,,,,,,,,,,7,5.114,0,,,,,,0.114681877,-0.399375296,1,0,0,5.1136,Peridotite_rect,4,0,4,0,1,
6633bd3bc5ec5e52e25592a4,TCN,2024-06-24_23h07.29.451,LearnStrategy,2023.2.3,Win32,59.52380952,1,2,6,,,,,,,,8,10,,,,,,,,,,,1,5.212,0,,,,,,-0.341945468,-0.246009706,1,0,0,5.2117,Andesite_rect,5,0,5,0,1,
6633bd3bc5ec5e52e25592a4,TCN,2024-06-24_23h07.29.451,LearnStrategy,2023.2.3,Win32,59.52380952,1,2,7,,,,,,,,1,14,,,,,,,,,,,3,12.372,0,,,,,,0.079983798,-0.243927705,1,0,0,12.3716,Diorite_rect,6,0,6,0,1,
6633bd3bc5ec5e52e25592a4,TCN,2024-06-24_23h07.29.451,LearnStrategy,2023.2.3,Win32,59.52380952,1,2,8,,,,,,,,6,09,,,,,,,,,,,6,6.854,1,,,,,,-0.118489509,-0.401457372,1,0,0,6.8536,Pegmatite_rect,7,0,7,0,1,
6633bd3bc5ec5e52e25592a4,TCN,2024-06-24_23h07.29.451,LearnStrategy,2023.2.3,Win32,59.52380952,1,2,9,,,,,,,,7,08,,,,,,,,,,,7,31.522,1,,,,,,0.095250947,-0.411866714,1,0,0,31.5224,Peridotite_rect,8,0,8,0,1,
6633bd3bc5ec5e52e25592a4,TCN,2024-06-24_23h07.29.451,LearnStrategy,2023.2.3,Win32,59.52380952,1,2,10,,,,,,,,1,09,,,,,,,,,,,1,32.876,1,,,,,,-0.330148112,-0.261276855,1,0,0,32.876,Andesite_rect,9,0,9,0,1,
6633bd3bc5ec5e52e25592a4,TCN,2024-06-24_23h07.29.451,LearnStrategy,2023.2.3,Win32,59.52380952,1,2,11,,,,,,,,7,04,,,,,,,,,,,8,6.441,0,,,,,,0.361732659,-0.416030495,1,0,0,6.4405,Pumice_rect,10,0,10,0,1,
6633bd3bc5ec5e52e25592a4,TCN,2024-06-24_23h07.29.451,LearnStrategy,2023.2.3,Win32,59.52380952,1,2,12,,,,,,,,8,16,,,,,,,,,,,6,7.591,0,,,,,,-0.099058653,-0.399375296,1,0,0,7.5914,Pegmatite_rect,11,0,11,0,1,
6633bd3bc5ec5e52e25592a4,TCN,2024-06-24_23h07.29.451,LearnStrategy,2023.2.3,Win32,59.52380952,1,2,13,,,,,,,,6,03,,,,,,,,,,,7,26.094,0,,,,,,0.097332727,-0.414642593,1,0,0,26.094,Peridotite_rect,12,0,12,0,1,
6633bd3bc5ec5e52e25592a4,TCN,2024-06-24_23h07.29.451,LearnStrategy,2023.2.3,Win32,59.52380952,1,2,14,,,,,,,,3,02,,,,,,,,,,,4,7.426,0,,,,,,0.374223929,-0.236294241,1,0,0,7.426,Gabbro_rect,13,0,13,0,1,
6633bd3bc5ec5e52e25592a4,TCN,2024-06-24_23h07.29.451,LearnStrategy,2023.2.3,Win32,59.52380952,1,2,15,,,,,,,,4,05,,,,,,,,,,,4,10.716,1,,,,,,0.408227983,-0.241845925,1,0,0,10.7161,Gabbro_rect,14,0,14,0,1,
6633bd3bc5ec5e52e25592a4,TCN,2024-06-24_23h07.29.451,LearnStrategy,2023.2.3,Win32,59.52380952,1,2,16,,,,,,,,5,09,,,,,,,,,,,5,6.376,1,,,,,,-0.399544308,-0.388272002,1,0,0,6.3762,Obsidian_rect,15,0,15,0,1,
6633bd3bc5ec5e52e25592a4,TCN,2024-06-24_23h07.29.451,LearnStrategy,2023.2.3,Win32,59.52380952,2,1,1,-0.039377885,-0.013532308,1,0,0,6.0103,rock_grid_rect_2,2,12,-1,-1,6.01,0.166729107,-0.412560591,1,0,0,22.2069,Peridotite_rect,7,22.207,0,0,0,0,0,1,,,,,,,,,,,,,
6633bd3bc5ec5e52e25592a4,TCN,2024-06-24_23h07.29.451,LearnStrategy,2023.2.3,Win32,59.52380952,2,1,2,-0.05464496,-0.004510757,1,0,0,1.9749,rock_grid_rect_2,6,07,-1,-1,1.975,-0.099058653,-0.406315104,1,0,0,16.4318,Pegmatite_rect,6,16.432,1,1,0,1,0,1,,,,,,,,,,,,,
6633bd3bc5ec5e52e25592a4,TCN,2024-06-24_23h07.29.451,LearnStrategy,2023.2.3,Win32,59.52380952,2,1,3,-0.071994111,-0.014920173,1,0,0,2.6547,rock_grid_rect_2,3,12,-1,-1,2.655,0.140358517,-0.244621656,1,0,0,6.6024,Diorite_rect,3,6.602,1,2,0,2,0,1,,,,,,,,,,,,,
6633bd3bc5ec5e52e25592a4,TCN,2024-06-24_23h07.29.451,LearnStrategy,2023.2.3,Win32,59.52380952,2,1,4,-0.032438151,-0.003122855,1,0,0,2.0954,rock_grid_rect_2,6,06,-1,-1,2.095,0.104966412,-0.246009706,1,0,0,8.366,Diorite_rect,3,8.366,0,3,0,3,0,1,,,,,,,,,,,,,
6633bd3bc5ec5e52e25592a4,TCN,2024-06-24_23h07.29.451,LearnStrategy,2023.2.3,Win32,59.52380952,2,1,5,-0.039377885,-0.01145038,1,0,0,2.3592,rock_grid_rect_2,5,08,-1,-1,2.359,-0.393298636,-0.397987467,1,0,0,7.3999,Obsidian_rect,5,7.4,1,4,0,4,0,1,,,,,,,,,,,,,
6633bd3bc5ec5e52e25592a4,TCN,2024-06-24_23h07.29.451,LearnStrategy,2023.2.3,Win32,59.52380952,2,1,6,-0.037989835,-0.015614088,1,0,0,1.6918,rock_grid_rect_2,8,09,-1,-1,1.692,0.368672023,-0.411172763,1,0,0,11.1413,Pumice_rect,8,11.141,1,5,0,5,0,1,,,,,,,,,,,,,
6633bd3bc5ec5e52e25592a4,TCN,2024-06-24_23h07.29.451,LearnStrategy,2023.2.3,Win32,59.52380952,2,1,7,-0.080321674,-0.019083992,1,0,0,1.8913,rock_grid_rect_2,4,01,-1,-1,1.891,0.132030954,-0.400763346,1,0,0,5.4746,Peridotite_rect,7,5.475,0,6,0,6,0,1,,,,,,,,,,,,,
6633bd3bc5ec5e52e25592a4,TCN,2024-06-24_23h07.29.451,LearnStrategy,2023.2.3,Win32,59.52380952,2,1,8,-0.017171076,-0.005204708,1,0,0,1.4588,rock_grid_rect_2,7,16,-1,-1,1.459,0.102884558,-0.379250488,1,0,0,6.1094,Peridotite_rect,7,6.109,1,7,0,7,0,1,,,,,,,,,,,,,
6633bd3bc5ec5e52e25592a4,TCN,2024-06-24_23h07.29.451,LearnStrategy,2023.2.3,Win32,59.52380952,2,1,9,-0.102528335,0.011450454,1,0,0,1.5348,rock_grid_rect_2,1,04,-1,-1,1.535,-0.373867705,-0.242539876,1,0,0,8.2355,Andesite_rect,1,8.236,1,8,0,8,0,1,,,,,,,,,,,,,
6633bd3bc5ec5e52e25592a4,TCN,2024-06-24_23h07.29.451,LearnStrategy,2023.2.3,Win32,59.52380952,2,1,10,-0.067136378,0.019083992,1,0,0,1.4442,rock_grid_rect_2,4,15,-1,-1,1.444,0.134806833,-0.262664684,1,0,0,12.8344,Diorite_rect,3,12.834,0,9,0,9,0,1,,,,,,,,,,,,,
6633bd3bc5ec5e52e25592a4,TCN,2024-06-24_23h07.29.451,LearnStrategy,2023.2.3,Win32,59.52380952,2,1,11,-0.015089074,-0.014920173,1,0,0,2.6491,rock_grid_rect_2,2,11,-1,-1,2.649,0.417249645,-0.396599565,1,0,0,15.3766,Pumice_rect,8,15.377,0,10,0,10,0,1,,,,,,,,,,,,,
6633bd3bc5ec5e52e25592a4,TCN,2024-06-24_23h07.29.451,LearnStrategy,2023.2.3,Win32,59.52380952,2,1,12,0.012669493,-0.014920173,1,0,0,1.7078,rock_grid_rect_2,3,14,-1,-1,1.708,0.114681877,-0.248785437,1,0,0,7.4266,Diorite_rect,3,7.427,1,11,0,11,0,1,,,,,,,,,,,,,
6633bd3bc5ec5e52e25592a4,TCN,2024-06-24_23h07.29.451,LearnStrategy,2023.2.3,Win32,59.52380952,2,1,13,-0.090037139,0.00034705,1,0,0,1.8825,rock_grid_rect_2,7,15,-1,-1,1.882,-0.146941954,-0.382026367,1,0,0,8.6856,Pegmatite_rect,6,8.686,0,12,0,12,0,1,,,,,,,,,,,,,
6633bd3bc5ec5e52e25592a4,TCN,2024-06-24_23h07.29.451,LearnStrategy,2023.2.3,Win32,59.52380952,2,1,14,-0.090731016,-0.014226222,1,0,0,2.0767,rock_grid_rect_2,1,16,-1,-1,2.077,-0.344721273,-0.250867513,1,0,0,10.7468,Andesite_rect,1,10.747,1,13,0,13,0,1,,,,,,,,,,,,,
6633bd3bc5ec5e52e25592a4,TCN,2024-06-24_23h07.29.451,LearnStrategy,2023.2.3,Win32,59.52380952,2,1,15,-0.09975253,-0.007286636,1,0,0,1.6689,rock_grid_rect_2,5,14,-1,-1,1.669,-0.401626162,-0.395905688,1,0,0,6.3206,Obsidian_rect,5,6.321,1,14,0,14,0,1,,,,,,,,,,,,,
6633bd3bc5ec5e52e25592a4,TCN,2024-06-24_23h07.29.451,LearnStrategy,2023.2.3,Win32,59.52380952,2,1,16,-0.074075891,-0.00936849,1,0,0,1.6088,rock_grid_rect_2,8,15,-1,-1,1.609,0.348547363,-0.40839681,1,0,0,8.2796,Pumice_rect,8,8.28,1,15,0,15,0,1,,,,,,,,,,,,,
6633bd3bc5ec5e52e25592a4,TCN,2024-06-24_23h07.29.451,LearnStrategy,2023.2.3,Win32,59.52380952,2,2,1,,,,,,,,8,04,,,,,,,,,,,4,15.656,0,,,,,,0.440150331,-0.270298369,1,0,0,15.6561,Gabbro_rect,0,0,0,0,1,
6633bd3bc5ec5e52e25592a4,TCN,2024-06-24_23h07.29.451,LearnStrategy,2023.2.3,Win32,59.52380952,2,2,2,,,,,,,,1,11,,,,,,,,,,,7,7.626,0,,,,,,0.115375755,-0.406315104,1,0,0,7.6263,Peridotite_rect,1,0,1,0,1,
6633bd3bc5ec5e52e25592a4,TCN,2024-06-24_23h07.29.451,LearnStrategy,2023.2.3,Win32,59.52380952,2,2,3,,,,,,,,6,16,,,,,,,,,,,1,8.119,0,,,,,,-0.362070386,-0.241845925,1,0,0,8.1186,Andesite_rect,2,0,2,0,1,
6633bd3bc5ec5e52e25592a4,TCN,2024-06-24_23h07.29.451,LearnStrategy,2023.2.3,Win32,59.52380952,2,2,4,,,,,,,,7,07,,,,,,,,,,,7,23.189,1,,,,,,0.125091368,-0.40978486,1,0,0,23.1889,Peridotite_rect,3,0,3,0,1,
6633bd3bc5ec5e52e25592a4,TCN,2024-06-24_23h07.29.451,LearnStrategy,2023.2.3,Win32,59.52380952,2,2,5,,,,,,,,6,13,,,,,,,,,,,3,10.508,0,,,,,,0.116763805,-0.256419123,1,0,0,10.5077,Diorite_rect,4,0,4,0,1,
6633bd3bc5ec5e52e25592a4,TCN,2024-06-24_23h07.29.451,LearnStrategy,2023.2.3,Win32,59.52380952,2,2,6,,,,,,,,7,13,,,,,,,,,,,6,9.401,0,,,,,,-0.076157892,-0.392435784,1,0,0,9.4011,Pegmatite_rect,5,0,5,0,1,
6633bd3bc5ec5e52e25592a4,TCN,2024-06-24_23h07.29.451,LearnStrategy,2023.2.3,Win32,59.52380952,2,2,7,,,,,,,,2,04,,,,,,,,,,,4,9.747,0,,,,,,0.392960908,-0.261970733,1,0,0,9.7475,Gabbro_rect,6,0,6,0,1,
6633bd3bc5ec5e52e25592a4,TCN,2024-06-24_23h07.29.451,LearnStrategy,2023.2.3,Win32,59.52380952,2,2,8,,,,,,,,2,05,,,,,,,,,,,2,7.633,1,,,,,,-0.131674805,-0.25156139,1,0,0,7.6326,Basalt_rect,7,0,7,0,1,
6633bd3bc5ec5e52e25592a4,TCN,2024-06-24_23h07.29.451,LearnStrategy,2023.2.3,Win32,59.52380952,2,2,9,,,,,,,,4,12,,,,,,,,,,,1,9.752,0,,,,,,-0.378031524,-0.265440637,1,0,0,9.7522,Andesite_rect,8,0,8,0,1,
6633bd3bc5ec5e52e25592a4,TCN,2024-06-24_23h07.29.451,LearnStrategy,2023.2.3,Win32,59.52380952,2,2,10,,,,,,,,3,08,,,,,,,,,,,7,12.21,0,,,,,,0.061246819,-0.393823612,1,0,0,12.2104,Peridotite_rect,9,0,9,0,1,
6633bd3bc5ec5e52e25592a4,TCN,2024-06-24_23h07.29.451,LearnStrategy,2023.2.3,Win32,59.52380952,2,2,11,,,,,,,,3,06,,,,,,,,,,,3,6.958,1,,,,,,0.130643126,-0.255725172,1,0,0,6.9583,Diorite_rect,10,0,10,0,1,
6633bd3bc5ec5e52e25592a4,TCN,2024-06-24_23h07.29.451,LearnStrategy,2023.2.3,Win32,59.52380952,2,2,12,,,,,,,,5,16,,,,,,,,,,,5,3.259,1,,,,,,-0.410647712,-0.37994444,1,0,0,3.2586,Obsidian_rect,11,0,11,0,1,
6633bd3bc5ec5e52e25592a4,TCN,2024-06-24_23h07.29.451,LearnStrategy,2023.2.3,Win32,59.52380952,2,2,13,,,,,,,,1,05,,,,,,,,,,,1,5.529,1,,,,,,-0.385665024,-0.236988192,1,0,0,5.5288,Andesite_rect,12,0,12,0,1,
6633bd3bc5ec5e52e25592a4,TCN,2024-06-24_23h07.29.451,LearnStrategy,2023.2.3,Win32,59.52380952,2,2,14,,,,,,,,5,05,,,,,,,,,,,5,2.725,1,,,,,,-0.335699759,-0.402151249,1,0,0,2.7249,Obsidian_rect,13,0,13,0,1,
6633bd3bc5ec5e52e25592a4,TCN,2024-06-24_23h07.29.451,LearnStrategy,2023.2.3,Win32,59.52380952,2,2,15,,,,,,,,4,14,,,,,,,,,,,8,15.003,0,,,,,,0.343689631,-0.405621079,1,0,0,15.0029,Pumice_rect,14,0,14,0,1,
6633bd3bc5ec5e52e25592a4,TCN,2024-06-24_23h07.29.451,LearnStrategy,2023.2.3,Win32,59.52380952,2,2,16,,,,,,,,8,08,,,,,,,,,,,1,12.323,0,,,,,,-0.335005845,-0.261970733,1,0,0,12.3226,Andesite_rect,15,0,15,0,1,
6633bd3bc5ec5e52e25592a4,TCN,2024-06-24_23h07.29.451,LearnStrategy,2023.2.3,Win32,59.52380952,3,1,1,-0.035907981,-0.003816732,1,0,0,1.9117,rock_grid_rect_2,6,08,-1,-1,1.912,-0.425914935,-0.393129735,1,0,0,3.7979,Obsidian_rect,5,3.798,0,0,0,0,0,1,,,,,,,,,,,,,
6633bd3bc5ec5e52e25592a4,TCN,2024-06-24_23h07.29.451,LearnStrategy,2023.2.3,Win32,59.52380952,3,1,2,-0.069218158,0.018389967,1,0,0,2.1681,rock_grid_rect_2,7,10,-1,-1,2.168,0.078595748,-0.393823612,1,0,0,7.665,Peridotite_rect,7,7.665,1,1,0,1,0,1,,,,,,,,,,,,,
6633bd3bc5ec5e52e25592a4,TCN,2024-06-24_23h07.29.451,LearnStrategy,2023.2.3,Win32,59.52380952,3,1,3,-0.015089074,-0.015614088,1,0,0,1.5872,rock_grid_rect_2,2,06,-1,-1,1.587,-0.146941954,-0.241845925,1,0,0,9.4175,Basalt_rect,2,9.418,1,2,0,2,0,1,,,,,,,,,,,,,
6633bd3bc5ec5e52e25592a4,TCN,2024-06-24_23h07.29.451,LearnStrategy,2023.2.3,Win32,59.52380952,3,1,4,-0.071994111,0.010062478,1,0,0,1.3578,rock_grid_rect_2,3,10,-1,-1,1.358,0.349241241,-0.257113074,1,0,0,5.057,Gabbro_rect,4,5.057,0,3,0,3,0,1,,,,,,,,,,,,,
6633bd3bc5ec5e52e25592a4,TCN,2024-06-24_23h07.29.451,LearnStrategy,2023.2.3,Win32,59.52380952,3,1,5,-0.069218158,-0.005898659,1,0,0,2.0116,rock_grid_rect_2,4,11,-1,-1,2.012,-0.101140433,-0.247397609,1,0,0,8.2059,Basalt_rect,2,8.206,0,4,0,4,0,1,,,,,,,,,,,,,
6633bd3bc5ec5e52e25592a4,TCN,2024-06-24_23h07.29.451,LearnStrategy,2023.2.3,Win32,59.52380952,3,1,6,-0.027580418,-0.01145038,1,0,0,1.8053,rock_grid_rect_2,5,11,-1,-1,1.805,-0.366928119,-0.404233176,1,0,0,2.2339,Obsidian_rect,5,2.234,1,5,0,5,0,1,,,,,,,,,,,,,
6633bd3bc5ec5e52e25592a4,TCN,2024-06-24_23h07.29.451,LearnStrategy,2023.2.3,Win32,59.52380952,3,1,7,-0.104610263,-0.005898659,1,0,0,1.3824,rock_grid_rect_2,1,10,-1,-1,1.382,-0.117101681,-0.246009706,1,0,0,5.04,Basalt_rect,2,5.04,0,6,0,6,0,1,,,,,,,,,,,,,
6633bd3bc5ec5e52e25592a4,TCN,2024-06-24_23h07.29.451,LearnStrategy,2023.2.3,Win32,59.52380952,3,1,8,-0.034520005,-0.018390041,1,0,0,1.7029,rock_grid_rect_2,3,15,-1,-1,1.703,0.089699263,-0.246703658,1,0,0,5.912,Diorite_rect,3,5.912,1,7,0,7,0,1,,,,,,,,,,,,,
6633bd3bc5ec5e52e25592a4,TCN,2024-06-24_23h07.29.451,LearnStrategy,2023.2.3,Win32,59.52380952,3,1,9,-0.048399399,-0.014920173,1,0,0,4.2727,rock_grid_rect_2,8,03,-1,-1,4.273,0.324952652,-0.400763346,1,0,0,4.7899,Pumice_rect,8,4.79,1,8,0,8,0,1,,,,,,,,,,,,,
6633bd3bc5ec5e52e25592a4,TCN,2024-06-24_23h07.29.451,LearnStrategy,2023.2.3,Win32,59.52380952,3,1,10,0.050837328,-0.017696015,1,0,0,3.2159,rock_grid_rect_2,7,14,-1,-1,3.216,0.093169093,-0.400069395,1,0,0,9.3165,Peridotite_rect,7,9.317,1,9,0,9,0,1,,,,,,,,,,,,,
6633bd3bc5ec5e52e25592a4,TCN,2024-06-24_23h07.29.451,LearnStrategy,2023.2.3,Win32,59.52380952,3,1,11,-0.013701172,0.001040964,1,0,0,1.8641,rock_grid_rect_2,6,15,-1,-1,1.864,-0.129592877,-0.402151249,1,0,0,9.761,Pegmatite_rect,6,9.761,1,10,0,10,0,1,,,,,,,,,,,,,
6633bd3bc5ec5e52e25592a4,TCN,2024-06-24_23h07.29.451,LearnStrategy,2023.2.3,Win32,59.52380952,3,1,12,-0.056726814,-0.018390041,1,0,0,1.814,rock_grid_rect_2,1,07,-1,-1,1.814,0.102884558,-0.250867513,1,0,0,4.7655,Diorite_rect,3,4.765,0,11,0,11,0,1,,,,,,,,,,,,,
6633bd3bc5ec5e52e25592a4,TCN,2024-06-24_23h07.29.451,LearnStrategy,2023.2.3,Win32,59.52380952,3,1,13,-0.041459591,-0.015614088,1,0,0,1.7545,rock_grid_rect_2,2,16,-1,-1,1.755,0.34230158,-0.266828539,1,0,0,8.9231,Gabbro_rect,4,8.923,0,12,0,12,0,1,,,,,,,,,,,,,
6633bd3bc5ec5e52e25592a4,TCN,2024-06-24_23h07.29.451,LearnStrategy,2023.2.3,Win32,59.52380952,3,1,14,-0.075463793,0.005898696,1,0,0,2.0201,rock_grid_rect_2,4,03,-1,-1,2.02,0.341607555,-0.263358783,1,0,0,6.9581,Gabbro_rect,4,6.958,1,13,0,13,0,1,,,,,,,,,,,,,
6633bd3bc5ec5e52e25592a4,TCN,2024-06-24_23h07.29.451,LearnStrategy,2023.2.3,Win32,59.52380952,3,1,15,-0.001209828,-0.003122855,1,0,0,1.4343,rock_grid_rect_2,8,06,-1,-1,1.434,0.318012917,-0.393823612,1,0,0,8.6146,Pumice_rect,8,8.615,1,14,0,14,0,1,,,,,,,,,,,,,
6633bd3bc5ec5e52e25592a4,TCN,2024-06-24_23h07.29.451,LearnStrategy,2023.2.3,Win32,59.52380952,3,1,16,-0.019252856,-0.012144331,1,0,0,1.6462,rock_grid_rect_2,5,12,-1,-1,1.646,-0.370397838,-0.392435784,1,0,0,3.1516,Obsidian_rect,5,3.152,1,15,0,15,0,1,,,,,,,,,,,,,
6633bd3bc5ec5e52e25592a4,TCN,2024-06-24_23h07.29.451,LearnStrategy,2023.2.3,Win32,59.52380952,3,2,1,,,,,,,,1,03,,,,,,,,,,,1,13.516,1,,,,,,-0.346803163,-0.234906191,1,0,0,13.5157,Andesite_rect,0,0,0,0,1,
6633bd3bc5ec5e52e25592a4,TCN,2024-06-24_23h07.29.451,LearnStrategy,2023.2.3,Win32,59.52380952,3,2,2,,,,,,,,1,01,,,,,,,,,,,4,8.974,0,,,,,,0.327034431,-0.261276855,1,0,0,8.9742,Gabbro_rect,1,0,1,0,1,
6633bd3bc5ec5e52e25592a4,TCN,2024-06-24_23h07.29.451,LearnStrategy,2023.2.3,Win32,59.52380952,3,2,3,,,,,,,,6,12,,,,,,,,,,,2,2.806,0,,,,,,-0.119877412,-0.241845925,1,0,0,2.8059,Basalt_rect,2,0,2,0,1,
6633bd3bc5ec5e52e25592a4,TCN,2024-06-24_23h07.29.451,LearnStrategy,2023.2.3,Win32,59.52380952,3,2,4,,,,,,,,8,14,,,,,,,,,,,8,10.137,1,,,,,,0.381163441,-0.413948642,1,0,0,10.1373,Pumice_rect,3,0,3,0,1,
6633bd3bc5ec5e52e25592a4,TCN,2024-06-24_23h07.29.451,LearnStrategy,2023.2.3,Win32,59.52380952,3,2,5,,,,,,,,2,08,,,,,,,,,,,2,6.357,1,,,,,,-0.116407508,-0.241845925,1,0,0,6.3566,Basalt_rect,4,0,4,0,1,
6633bd3bc5ec5e52e25592a4,TCN,2024-06-24_23h07.29.451,LearnStrategy,2023.2.3,Win32,59.52380952,3,2,6,,,,,,,,4,10,,,,,,,,,,,2,2.906,0,,,,,,-0.116407508,-0.241845925,1,0,0,2.9058,Basalt_rect,5,0,5,0,1,
6633bd3bc5ec5e52e25592a4,TCN,2024-06-24_23h07.29.451,LearnStrategy,2023.2.3,Win32,59.52380952,3,2,7,,,,,,,,7,12,,,,,,,,,,,3,6.393,0,,,,,,0.065410452,-0.268216516,1,0,0,6.3934,Diorite_rect,6,0,6,0,1,
6633bd3bc5ec5e52e25592a4,TCN,2024-06-24_23h07.29.451,LearnStrategy,2023.2.3,Win32,59.52380952,3,2,8,,,,,,,,8,05,,,,,,,,,,,8,8.507,1,,,,,,0.339525775,-0.396599565,1,0,0,8.5071,Pumice_rect,7,0,7,0,1,
6633bd3bc5ec5e52e25592a4,TCN,2024-06-24_23h07.29.451,LearnStrategy,2023.2.3,Win32,59.52380952,3,2,9,,,,,,,,7,02,,,,,,,,,,,7,7.131,1,,,,,,0.076513968,-0.380638317,1,0,0,7.1312,Peridotite_rect,8,0,8,0,1,
6633bd3bc5ec5e52e25592a4,TCN,2024-06-24_23h07.29.451,LearnStrategy,2023.2.3,Win32,59.52380952,3,2,10,,,,,,,,5,10,,,,,,,,,,,5,3.519,1,,,,,,-0.344721273,-0.393129735,1,0,0,3.5195,Obsidian_rect,9,0,9,0,1,
6633bd3bc5ec5e52e25592a4,TCN,2024-06-24_23h07.29.451,LearnStrategy,2023.2.3,Win32,59.52380952,3,2,11,,,,,,,,6,05,,,,,,,,,,,4,11.459,0,,,,,,0.366590317,-0.257113074,1,0,0,11.4592,Gabbro_rect,10,0,10,0,1,
6633bd3bc5ec5e52e25592a4,TCN,2024-06-24_23h07.29.451,LearnStrategy,2023.2.3,Win32,59.52380952,3,2,12,,,,,,,,3,07,,,,,,,,,,,3,7.503,1,,,,,,0.073044138,-0.241845925,1,0,0,7.5028,Diorite_rect,11,0,11,0,1,
6633bd3bc5ec5e52e25592a4,TCN,2024-06-24_23h07.29.451,LearnStrategy,2023.2.3,Win32,59.52380952,3,2,13,,,,,,,,4,13,,,,,,,,,,,6,7.042,0,,,,,,-0.162209103,-0.395905688,1,0,0,7.0418,Pegmatite_rect,12,0,12,0,1,
6633bd3bc5ec5e52e25592a4,TCN,2024-06-24_23h07.29.451,LearnStrategy,2023.2.3,Win32,59.52380952,3,2,14,,,,,,,,3,16,,,,,,,,,,,4,10.205,0,,,,,,0.360344608,-0.264746686,1,0,0,10.2053,Gabbro_rect,13,0,13,0,1,
6633bd3bc5ec5e52e25592a4,TCN,2024-06-24_23h07.29.451,LearnStrategy,2023.2.3,Win32,59.52380952,3,2,15,,,,,,,,5,07,,,,,,,,,,,5,2.581,1,,,,,,-0.382889219,-0.394517563,1,0,0,2.5806,Obsidian_rect,14,0,14,0,1,
6633bd3bc5ec5e52e25592a4,TCN,2024-06-24_23h07.29.451,LearnStrategy,2023.2.3,Win32,59.52380952,3,2,16,,,,,,,,2,10,,,,,,,,,,,2,7.778,1,,,,,,-0.193437426,-0.260582904,1,0,0,7.7779,Basalt_rect,15,0,15,0,1,
6633bd3bc5ec5e52e25592a4,TCN,2024-06-24_23h07.29.451,LearnStrategy,2023.2.3,Win32,59.52380952,4,1,1,0.025160763,-0.005898659,1,0,0,1.7634,rock_grid_rect_2,1,06,-1,-1,1.763,-0.341945468,-0.231436509,1,0,0,6.4257,Andesite_rect,1,6.426,1,0,0,0,0,1,,,,,,,,,,,,,
6633bd3bc5ec5e52e25592a4,TCN,2024-06-24_23h07.29.451,LearnStrategy,2023.2.3,Win32,59.52380952,4,1,2,0.021690933,-0.017002064,1,0,0,2.0279,rock_grid_rect_2,6,15,-1,-1,2.028,-0.163597079,-0.411866714,1,0,0,16.7142,Pegmatite_rect,6,16.714,1,1,0,1,0,1,,,,,,,,,,,,,
6633bd3bc5ec5e52e25592a4,TCN,2024-06-24_23h07.29.451,LearnStrategy,2023.2.3,Win32,59.52380952,4,1,3,0.067492454,-0.004510757,1,0,0,2.118,rock_grid_rect_2,5,14,-1,-1,2.118,-0.396768466,-0.395905688,1,0,0,7.9412,Obsidian_rect,5,7.941,1,2,0,2,0,1,,,,,,,,,,,,,
6633bd3bc5ec5e52e25592a4,TCN,2024-06-24_23h07.29.451,LearnStrategy,2023.2.3,Win32,59.52380952,4,1,4,0.044591767,-0.001734878,1,0,0,2.3406,rock_grid_rect_2,3,15,-1,-1,2.341,0.113987852,-0.241845925,1,0,0,3.3323,Diorite_rect,3,3.332,1,3,0,3,0,1,,,,,,,,,,,,,
6633bd3bc5ec5e52e25592a4,TCN,2024-06-24_23h07.29.451,LearnStrategy,2023.2.3,Win32,59.52380952,4,1,5,0.039040083,-0.010756355,1,0,0,1.5637,rock_grid_rect_2,5,08,-1,-1,1.564,-0.423833008,-0.413948642,1,0,0,3.0746,Obsidian_rect,5,3.075,1,4,0,4,0,1,,,,,,,,,,,,,
6633bd3bc5ec5e52e25592a4,TCN,2024-06-24_23h07.29.451,LearnStrategy,2023.2.3,Win32,59.52380952,4,1,6,-0.052563033,-0.017696015,1,0,0,2.5122,rock_grid_rect_2,4,09,-1,-1,2.512,-0.142084221,-0.268216516,1,0,0,4.7052,Basalt_rect,2,4.705,0,5,0,5,0,1,,,,,,,,,,,,,
6633bd3bc5ec5e52e25592a4,TCN,2024-06-24_23h07.29.451,LearnStrategy,2023.2.3,Win32,59.52380952,4,1,7,0.039040083,0.003122855,1,0,0,1.6581,rock_grid_rect_2,6,06,-1,-1,1.658,0.1299491,-0.24809156,1,0,0,3.8237,Diorite_rect,3,3.824,0,6,0,6,0,1,,,,,,,,,,,,,
6633bd3bc5ec5e52e25592a4,TCN,2024-06-24_23h07.29.451,LearnStrategy,2023.2.3,Win32,59.52380952,4,1,8,-0.072687988,-0.015614088,1,0,0,1.4472,rock_grid_rect_2,3,12,-1,-1,1.447,0.099414728,-0.400763346,1,0,0,3.6076,Peridotite_rect,7,3.608,0,7,0,7,0,1,,,,,,,,,,,,,
6633bd3bc5ec5e52e25592a4,TCN,2024-06-24_23h07.29.451,LearnStrategy,2023.2.3,Win32,59.52380952,4,1,9,-0.024804466,0.00034705,1,0,0,2.273,rock_grid_rect_2,1,16,-1,-1,2.273,-0.346109249,-0.239763923,1,0,0,3.1759,Andesite_rect,1,3.176,1,8,0,8,0,1,,,,,,,,,,,,,
6633bd3bc5ec5e52e25592a4,TCN,2024-06-24_23h07.29.451,LearnStrategy,2023.2.3,Win32,59.52380952,4,1,10,0.015445298,0.006592648,1,0,0,1.653,rock_grid_rect_2,7,15,-1,-1,1.653,0.313849136,-0.407702859,1,0,0,7.1163,Pumice_rect,8,7.116,0,9,0,9,0,1,,,,,,,,,,,,,
6633bd3bc5ec5e52e25592a4,TCN,2024-06-24_23h07.29.451,LearnStrategy,2023.2.3,Win32,59.52380952,4,1,11,-0.037295884,-0.024635639,1,0,0,1.4084,rock_grid_rect_2,2,12,-1,-1,1.408,-0.115019679,-0.25503122,1,0,0,5.5608,Basalt_rect,2,5.561,1,10,0,10,0,1,,,,,,,,,,,,,
6633bd3bc5ec5e52e25592a4,TCN,2024-06-24_23h07.29.451,LearnStrategy,2023.2.3,Win32,59.52380952,4,1,12,-0.05464496,-0.001040927,1,0,0,1.7161,rock_grid_rect_2,2,11,-1,-1,1.716,-0.119877412,-0.236988192,1,0,0,2.1316,Basalt_rect,2,2.132,1,11,0,11,0,1,,,,,,,,,,,,,
6633bd3bc5ec5e52e25592a4,TCN,2024-06-24_23h07.29.451,LearnStrategy,2023.2.3,Win32,59.52380952,4,1,13,-0.044235618,0.008674501,1,0,0,1.7989,rock_grid_rect_2,8,06,-1,-1,1.799,0.128561124,-0.240458023,1,0,0,5.1724,Diorite_rect,3,5.172,0,12,0,12,0,1,,,,,,,,,,,,,
6633bd3bc5ec5e52e25592a4,TCN,2024-06-24_23h07.29.451,LearnStrategy,2023.2.3,Win32,59.52380952,4,1,14,-0.029662272,-0.008674501,1,0,0,1.8046,rock_grid_rect_2,7,14,-1,-1,1.805,0.311767282,-0.400069395,1,0,0,2.4332,Pumice_rect,8,2.433,0,13,0,13,0,1,,,,,,,,,,,,,
6633bd3bc5ec5e52e25592a4,TCN,2024-06-24_23h07.29.451,LearnStrategy,2023.2.3,Win32,59.52380952,4,1,15,-0.013007295,-0.017002064,1,0,0,1.5411,rock_grid_rect_2,4,15,-1,-1,1.541,0.310379306,-0.264052734,1,0,0,3.1141,Gabbro_rect,4,3.114,1,14,0,14,0,1,,,,,,,,,,,,,
6633bd3bc5ec5e52e25592a4,TCN,2024-06-24_23h07.29.451,LearnStrategy,2023.2.3,Win32,59.52380952,4,1,16,0.073044138,-0.002428903,1,0,0,1.6951,rock_grid_rect_2,8,03,-1,-1,1.695,0.147298029,-0.249479537,1,0,0,2.8814,Diorite_rect,3,2.881,0,15,0,15,0,1,,,,,,,,,,,,,
6633bd3bc5ec5e52e25592a4,TCN,2024-06-24_23h07.29.451,LearnStrategy,2023.2.3,Win32,59.52380952,4,2,1,,,,,,,,7,13,,,,,,,,,,,6,7.5,0,,,,,,-0.062278646,-0.384802098,1,0,0,7.5004,Pegmatite_rect,0,0,0,0,1,
6633bd3bc5ec5e52e25592a4,TCN,2024-06-24_23h07.29.451,LearnStrategy,2023.2.3,Win32,59.52380952,4,2,2,,,,,,,,4,13,,,,,,,,,,,4,3.681,1,,,,,,0.349241241,-0.250867513,1,0,0,3.6813,Gabbro_rect,1,0,1,0,1,
6633bd3bc5ec5e52e25592a4,TCN,2024-06-24_23h07.29.451,LearnStrategy,2023.2.3,Win32,59.52380952,4,2,3,,,,,,,,3,16,,,,,,,,,,,1,5.973,0,,,,,,-0.323902403,-0.247397609,1,0,0,5.9731,Andesite_rect,2,0,2,0,1,
6633bd3bc5ec5e52e25592a4,TCN,2024-06-24_23h07.29.451,LearnStrategy,2023.2.3,Win32,59.52380952,4,2,4,,,,,,,,4,05,,,,,,,,,,,1,2.962,0,,,,,,-0.305859375,-0.244621656,1,0,0,2.9617,Andesite_rect,3,0,3,0,1,
6633bd3bc5ec5e52e25592a4,TCN,2024-06-24_23h07.29.451,LearnStrategy,2023.2.3,Win32,59.52380952,4,2,5,,,,,,,,7,07,,,,,,,,,,,8,3.137,0,,,,,,0.315930916,-0.411172763,1,0,0,3.1367,Pumice_rect,4,0,4,0,1,
6633bd3bc5ec5e52e25592a4,TCN,2024-06-24_23h07.29.451,LearnStrategy,2023.2.3,Win32,59.52380952,4,2,6,,,,,,,,1,11,,,,,,,,,,,3,4.283,0,,,,,,0.109130194,-0.261970733,1,0,0,4.2831,Diorite_rect,5,0,5,0,1,
6633bd3bc5ec5e52e25592a4,TCN,2024-06-24_23h07.29.451,LearnStrategy,2023.2.3,Win32,59.52380952,4,2,7,,,,,,,,6,05,,,,,,,,,,,5,2.595,0,,,,,,-0.363458252,-0.395905688,1,0,0,2.5949,Obsidian_rect,6,0,6,0,1,
6633bd3bc5ec5e52e25592a4,TCN,2024-06-24_23h07.29.451,LearnStrategy,2023.2.3,Win32,59.52380952,4,2,8,,,,,,,,5,04,,,,,,,,,,,5,2.175,1,,,,,,-0.42869074,-0.415336544,1,0,0,2.1753,Obsidian_rect,7,0,7,0,1,
6633bd3bc5ec5e52e25592a4,TCN,2024-06-24_23h07.29.451,LearnStrategy,2023.2.3,Win32,59.52380952,4,2,9,,,,,,,,8,05,,,,,,,,,,,6,15.947,0,,,,,,-0.139308342,-0.405621079,1,0,0,15.9472,Pegmatite_rect,8,0,8,0,1,
6633bd3bc5ec5e52e25592a4,TCN,2024-06-24_23h07.29.451,LearnStrategy,2023.2.3,Win32,59.52380952,4,2,10,,,,,,,,2,05,,,,,,,,,,,2,5.851,1,,,,,,-0.121959339,-0.245315829,1,0,0,5.8507,Basalt_rect,9,0,9,0,1,
6633bd3bc5ec5e52e25592a4,TCN,2024-06-24_23h07.29.451,LearnStrategy,2023.2.3,Win32,59.52380952,4,2,11,,,,,,,,5,10,,,,,,,,,,,5,2.187,1,,,,,,-0.372479766,-0.385496271,1,0,0,2.1867,Obsidian_rect,10,0,10,0,1,
6633bd3bc5ec5e52e25592a4,TCN,2024-06-24_23h07.29.451,LearnStrategy,2023.2.3,Win32,59.52380952,4,2,12,,,,,,,,3,08,,,,,,,,,,,4,6.495,0,,,,,,0.34577141,-0.249479537,1,0,0,6.4954,Gabbro_rect,11,0,11,0,1,
6633bd3bc5ec5e52e25592a4,TCN,2024-06-24_23h07.29.451,LearnStrategy,2023.2.3,Win32,59.52380952,4,2,13,,,,,,,,1,01,,,,,,,,,,,5,4.993,0,,,,,,-0.374561657,-0.387578051,1,0,0,4.9933,Obsidian_rect,12,0,12,0,1,
6633bd3bc5ec5e52e25592a4,TCN,2024-06-24_23h07.29.451,LearnStrategy,2023.2.3,Win32,59.52380952,4,2,14,,,,,,,,6,03,,,,,,,,,,,6,10.799,1,,,,,,-0.108080167,-0.402151249,1,0,0,10.7986,Pegmatite_rect,13,0,13,0,1,
6633bd3bc5ec5e52e25592a4,TCN,2024-06-24_23h07.29.451,LearnStrategy,2023.2.3,Win32,59.52380952,4,2,15,,,,,,,,8,10,,,,,,,,,,,8,11.297,1,,,,,,0.360344608,-0.417418546,1,0,0,11.2971,Pumice_rect,14,0,14,0,1,
6633bd3bc5ec5e52e25592a4,TCN,2024-06-24_23h07.29.451,LearnStrategy,2023.2.3,Win32,59.52380952,4,2,16,,,,,,,,2,04,,,,,,,,,,,5,3.852,0,,,,,,-0.396074552,-0.382720318,1,0,0,3.8518,Obsidian_rect,15,0,15,0,1,
6633bd3bc5ec5e52e25592a4,TCN,2024-06-24_23h07.29.451,LearnStrategy,2023.2.3,Win32,59.52380952,5,1,1,-0.047011349,-0.001040927,1,0,0,1.6065,rock_grid_rect_2,2,09,-1,-1,1.607,-0.120571363,-0.241845925,1,0,0,9.2493,Basalt_rect,2,9.249,1,0,0,0,0,1,,,,,,,,,,,,,
6633bd3bc5ec5e52e25592a4,TCN,2024-06-24_23h07.29.451,LearnStrategy,2023.2.3,Win32,59.52380952,5,1,2,-0.111549849,-0.004510757,1,0,0,1.9015,rock_grid_rect_2,6,10,-1,-1,1.902,-0.101834384,-0.413254542,1,0,0,8.6966,Pegmatite_rect,6,8.697,1,1,0,1,0,1,,,,,,,,,,,,,
6633bd3bc5ec5e52e25592a4,TCN,2024-06-24_23h07.29.451,LearnStrategy,2023.2.3,Win32,59.52380952,5,1,3,-0.106692116,-0.017002064,1,0,0,1.3382,rock_grid_rect_2,2,01,-1,-1,1.338,-0.14347205,-0.238376095,1,0,0,5.0598,Basalt_rect,2,5.06,1,2,0,2,0,1,,,,,,,,,,,,,
6633bd3bc5ec5e52e25592a4,TCN,2024-06-24_23h07.29.451,LearnStrategy,2023.2.3,Win32,59.52380952,5,1,4,-0.083791356,-0.017696015,1,0,0,1.4096,rock_grid_rect_2,8,15,-1,-1,1.41,-0.099058653,-0.404233176,1,0,0,8.2047,Pegmatite_rect,6,8.205,0,3,0,3,0,1,,,,,,,,,,,,,
6633bd3bc5ec5e52e25592a4,TCN,2024-06-24_23h07.29.451,LearnStrategy,2023.2.3,Win32,59.52380952,5,1,5,-0.087261186,-0.008674501,1,0,0,2.1352,rock_grid_rect_2,5,11,-1,-1,2.135,-0.387746952,-0.393129735,1,0,0,3.3127,Obsidian_rect,5,3.313,1,4,0,4,0,1,,,,,,,,,,,,,
6633bd3bc5ec5e52e25592a4,TCN,2024-06-24_23h07.29.451,LearnStrategy,2023.2.3,Win32,59.52380952,5,1,6,-0.040071837,-0.004510757,1,0,0,1.366,rock_grid_rect_2,5,12,-1,-1,1.366,-0.400238333,-0.40978486,1,0,0,1.9492,Obsidian_rect,5,1.949,1,5,0,5,0,1,,,,,,,,,,,,,
6633bd3bc5ec5e52e25592a4,TCN,2024-06-24_23h07.29.451,LearnStrategy,2023.2.3,Win32,59.52380952,5,1,7,-0.024110588,-0.00936849,1,0,0,1.485,rock_grid_rect_2,6,07,-1,-1,1.485,-0.090731016,-0.384108221,1,0,0,4.5275,Pegmatite_rect,6,4.528,1,6,0,6,0,1,,,,,,,,,,,,,
6633bd3bc5ec5e52e25592a4,TCN,2024-06-24_23h07.29.451,LearnStrategy,2023.2.3,Win32,59.52380952,5,1,8,-0.073381866,-0.017696015,1,0,0,1.3556,rock_grid_rect_2,4,01,-1,-1,1.356,0.155625592,-0.270298369,1,0,0,7.0777,Diorite_rect,3,7.078,0,7,0,7,0,1,,,,,,,,,,,,,
6633bd3bc5ec5e52e25592a4,TCN,2024-06-24_23h07.29.451,LearnStrategy,2023.2.3,Win32,59.52380952,5,1,9,-0.00606756,-0.013532308,1,0,0,1.7038,rock_grid_rect_2,7,10,-1,-1,1.704,0.332586115,-0.257113074,1,0,0,3.0357,Gabbro_rect,4,3.036,0,8,0,8,0,1,,,,,,,,,,,,,
6633bd3bc5ec5e52e25592a4,TCN,2024-06-24_23h07.29.451,LearnStrategy,2023.2.3,Win32,59.52380952,5,1,10,-0.089342966,-0.018390041,1,0,0,1.2623,rock_grid_rect_2,4,03,-1,-1,1.262,-0.357212654,-0.241151974,1,0,0,5.2947,Andesite_rect,1,5.295,0,9,0,9,0,1,,,,,,,,,,,,,
6633bd3bc5ec5e52e25592a4,TCN,2024-06-24_23h07.29.451,LearnStrategy,2023.2.3,Win32,59.52380952,5,1,11,-0.044929569,-0.010062441,1,0,0,1.7687,rock_grid_rect_2,3,11,-1,-1,1.769,0.376999734,-0.268910467,1,0,0,6.0842,Gabbro_rect,4,6.084,0,10,0,10,0,1,,,,,,,,,,,,,
6633bd3bc5ec5e52e25592a4,TCN,2024-06-24_23h07.29.451,LearnStrategy,2023.2.3,Win32,59.52380952,5,1,12,-0.035907981,-0.018390041,1,0,0,2.1101,rock_grid_rect_2,1,10,-1,-1,2.11,0.326340554,-0.262664684,1,0,0,4.4439,Gabbro_rect,4,4.444,0,11,0,11,0,1,,,,,,,,,,,,,
6633bd3bc5ec5e52e25592a4,TCN,2024-06-24_23h07.29.451,LearnStrategy,2023.2.3,Win32,59.52380952,5,1,13,-0.037295884,-0.00798055,1,0,0,1.4131,rock_grid_rect_2,1,07,-1,-1,1.413,0.084147653,-0.230742409,1,0,0,4.6752,Diorite_rect,3,4.675,0,12,0,12,0,1,,,,,,,,,,,,,
6633bd3bc5ec5e52e25592a4,TCN,2024-06-24_23h07.29.451,LearnStrategy,2023.2.3,Win32,59.52380952,5,1,14,-0.008149562,-0.006592574,1,0,0,1.5461,rock_grid_rect_2,7,06,-1,-1,1.546,0.093863118,-0.404233176,1,0,0,6.2837,Peridotite_rect,7,6.284,1,13,0,13,0,1,,,,,,,,,,,,,
6633bd3bc5ec5e52e25592a4,TCN,2024-06-24_23h07.29.451,LearnStrategy,2023.2.3,Win32,59.52380952,5,1,15,-0.030356149,-0.001734878,1,0,0,1.6021,rock_grid_rect_2,3,10,-1,-1,1.602,0.093169093,-0.395905688,1,0,0,7.1287,Peridotite_rect,7,7.129,0,14,0,14,0,1,,,,,,,,,,,,,
6633bd3bc5ec5e52e25592a4,TCN,2024-06-24_23h07.29.451,LearnStrategy,2023.2.3,Win32,59.52380952,5,1,16,-0.080321674,-0.00936849,1,0,0,3.8242,rock_grid_rect_2,8,09,-1,-1,3.824,0.395042762,-0.402151249,1,0,0,2.1539,Pumice_rect,8,2.154,1,15,0,15,0,1,,,,,,,,,,,,,
6633bd3bc5ec5e52e25592a4,TCN,2024-06-24_23h07.29.451,LearnStrategy,2023.2.3,Win32,59.52380952,5,2,1,,,,,,,,3,07,,,,,,,,,,,8,5.756,0,,,,,,0.377693833,-0.389659831,1,0,0,5.7563,Pumice_rect,0,0,0,0,1,
6633bd3bc5ec5e52e25592a4,TCN,2024-06-24_23h07.29.451,LearnStrategy,2023.2.3,Win32,59.52380952,5,2,2,,,,,,,,4,10,,,,,,,,,,,4,10.362,1,,,,,,0.352710997,-0.269604418,1,0,0,10.3619,Gabbro_rect,1,0,1,0,1,
6633bd3bc5ec5e52e25592a4,TCN,2024-06-24_23h07.29.451,LearnStrategy,2023.2.3,Win32,59.52380952,5,2,3,,,,,,,,5,09,,,,,,,,,,,5,1.875,1,,,,,,-0.372479766,-0.391741832,1,0,0,1.875,Obsidian_rect,2,0,2,0,1,
6633bd3bc5ec5e52e25592a4,TCN,2024-06-24_23h07.29.451,LearnStrategy,2023.2.3,Win32,59.52380952,5,2,4,,,,,,,,5,07,,,,,,,,,,,5,1.703,1,,,,,,-0.420363178,-0.418806374,1,0,0,1.7033,Obsidian_rect,3,0,3,0,1,
6633bd3bc5ec5e52e25592a4,TCN,2024-06-24_23h07.29.451,LearnStrategy,2023.2.3,Win32,59.52380952,5,2,5,,,,,,,,3,02,,,,,,,,,,,4,4.146,0,,,,,,0.367978368,-0.25364317,1,0,0,4.1456,Gabbro_rect,4,0,4,0,1,
6633bd3bc5ec5e52e25592a4,TCN,2024-06-24_23h07.29.451,LearnStrategy,2023.2.3,Win32,59.52380952,5,2,6,,,,,,,,6,13,,,,,,,,,,,8,2.355,0,,,,,,0.356874852,-0.397293516,1,0,0,2.3552,Pumice_rect,5,0,5,0,1,
6633bd3bc5ec5e52e25592a4,TCN,2024-06-24_23h07.29.451,LearnStrategy,2023.2.3,Win32,59.52380952,5,2,7,,,,,,,,1,03,,,,,,,,,,,2,7.687,0,,,,,,-0.103916386,-0.252949219,1,0,0,7.6867,Basalt_rect,6,0,6,0,1,
6633bd3bc5ec5e52e25592a4,TCN,2024-06-24_23h07.29.451,LearnStrategy,2023.2.3,Win32,59.52380952,5,2,8,,,,,,,,1,14,,,,,,,,,,,1,8.231,1,,,,,,-0.306553289,-0.239069972,1,0,0,8.2309,Andesite_rect,7,0,7,0,1,
6633bd3bc5ec5e52e25592a4,TCN,2024-06-24_23h07.29.451,LearnStrategy,2023.2.3,Win32,59.52380952,5,2,9,,,,,,,,8,14,,,,,,,,,,,8,2.344,1,,,,,,0.423495354,-0.392435784,1,0,0,2.3443,Pumice_rect,8,0,8,0,1,
6633bd3bc5ec5e52e25592a4,TCN,2024-06-24_23h07.29.451,LearnStrategy,2023.2.3,Win32,59.52380952,5,2,10,,,,,,,,6,09,,,,,,,,,,,6,5.092,1,,,,,,-0.149717907,-0.403539077,1,0,0,5.0917,Pegmatite_rect,9,0,9,0,1,
6633bd3bc5ec5e52e25592a4,TCN,2024-06-24_23h07.29.451,LearnStrategy,2023.2.3,Win32,59.52380952,5,2,11,,,,,,,,2,14,,,,,,,,,,,5,7.163,0,,,,,,-0.380807329,-0.413254542,1,0,0,7.1631,Obsidian_rect,10,0,10,0,1,
6633bd3bc5ec5e52e25592a4,TCN,2024-06-24_23h07.29.451,LearnStrategy,2023.2.3,Win32,59.52380952,5,2,12,,,,,,,,7,04,,,,,,,,,,,6,6.111,0,,,,,,-0.097670603,-0.404927128,1,0,0,6.1114,Pegmatite_rect,11,0,11,0,1,
6633bd3bc5ec5e52e25592a4,TCN,2024-06-24_23h07.29.451,LearnStrategy,2023.2.3,Win32,59.52380952,5,2,13,,,,,,,,8,04,,,,,,,,,,,8,5.479,1,,,,,,0.397124615,-0.413948642,1,0,0,5.4795,Pumice_rect,12,0,12,0,1,
6633bd3bc5ec5e52e25592a4,TCN,2024-06-24_23h07.29.451,LearnStrategy,2023.2.3,Win32,59.52380952,5,2,14,,,,,,,,2,08,,,,,,,,,,,2,5.836,1,,,,,,-0.095588749,-0.263358783,1,0,0,5.8361,Basalt_rect,13,0,13,0,1,
6633bd3bc5ec5e52e25592a4,TCN,2024-06-24_23h07.29.451,LearnStrategy,2023.2.3,Win32,59.52380952,5,2,15,,,,,,,,4,12,,,,,,,,,,,2,4.035,0,,,,,,-0.085179406,-0.259195002,1,0,0,4.0351,Basalt_rect,14,0,14,0,1,
6633bd3bc5ec5e52e25592a4,TCN,2024-06-24_23h07.29.451,LearnStrategy,2023.2.3,Win32,59.52380952,5,2,16,,,,,,,,7,08,,,,,,,,,,,4,4.194,0,,,,,,0.368672023,-0.259888953,1,0,0,4.1943,Gabbro_rect,15,0,15,0,1,
6633bd3bc5ec5e52e25592a4,TCN,2024-06-24_23h07.29.451,LearnStrategy,2023.2.3,Win32,59.52380952,6,1,1,0.027242617,-0.003122855,1,0,0,2.6151,rock_grid_rect_2,6,11,-1,-1,2.615,-0.131674805,-0.398681345,1,0,0,10.8105,Pegmatite_rect,6,10.811,1,0,0,0,0,1,,,,,,,,,,,,,
6633bd3bc5ec5e52e25592a4,TCN,2024-06-24_23h07.29.451,LearnStrategy,2023.2.3,Win32,59.52380952,6,1,2,-0.040765714,0.001734915,1,0,0,1.6718,rock_grid_rect_2,2,06,-1,-1,1.672,0.349241241,-0.270992247,1,0,0,2.1215,Gabbro_rect,4,2.121,0,1,0,1,0,1,,,,,,,,,,,,,
6633bd3bc5ec5e52e25592a4,TCN,2024-06-24_23h07.29.451,LearnStrategy,2023.2.3,Win32,59.52380952,6,1,3,-0.0317442,-0.014920173,1,0,0,1.8199,rock_grid_rect_2,3,13,-1,-1,1.82,0.173668694,-0.232824411,1,0,0,3.7337,Diorite_rect,3,3.734,1,2,0,2,0,1,,,,,,,,,,,,,
6633bd3bc5ec5e52e25592a4,TCN,2024-06-24_23h07.29.451,LearnStrategy,2023.2.3,Win32,59.52380952,6,1,4,0.000178075,-0.013532308,1,0,0,2.333,rock_grid_rect_2,1,04,-1,-1,2.333,0.376999734,-0.399375296,1,0,0,2.7092,Pumice_rect,8,2.709,0,3,0,3,0,1,,,,,,,,,,,,,
6633bd3bc5ec5e52e25592a4,TCN,2024-06-24_23h07.29.451,LearnStrategy,2023.2.3,Win32,59.52380952,6,1,5,-0.073381866,-0.015614088,1,0,0,1.6742,rock_grid_rect_2,3,14,-1,-1,1.674,0.1299491,-0.256419123,1,0,0,3.2581,Diorite_rect,3,3.258,1,4,0,4,0,1,,,,,,,,,,,,,
6633bd3bc5ec5e52e25592a4,TCN,2024-06-24_23h07.29.451,LearnStrategy,2023.2.3,Win32,59.52380952,6,1,6,-0.019946733,0.001040964,1,0,0,2.4056,rock_grid_rect_2,8,13,-1,-1,2.406,0.356180901,-0.384802098,1,0,0,2.3073,Pumice_rect,8,2.307,1,5,0,5,0,1,,,,,,,,,,,,,
6633bd3bc5ec5e52e25592a4,TCN,2024-06-24_23h07.29.451,LearnStrategy,2023.2.3,Win32,59.52380952,6,1,7,-0.047011349,0.005898696,1,0,0,1.4229,rock_grid_rect_2,2,16,-1,-1,1.423,-0.099058653,-0.248785437,1,0,0,2.3597,Basalt_rect,2,2.36,1,6,0,6,0,1,,,,,,,,,,,,,
6633bd3bc5ec5e52e25592a4,TCN,2024-06-24_23h07.29.451,LearnStrategy,2023.2.3,Win32,59.52380952,6,1,8,-0.087955137,-0.003816732,1,0,0,1.4189,rock_grid_rect_2,7,05,-1,-1,1.419,0.078595748,-0.40839681,1,0,0,2.7076,Peridotite_rect,7,2.708,1,7,0,7,0,1,,,,,,,,,,,,,
6633bd3bc5ec5e52e25592a4,TCN,2024-06-24_23h07.29.451,LearnStrategy,2023.2.3,Win32,59.52380952,6,1,9,0.014751199,0.00034705,1,0,0,6.273,rock_grid_rect_2,8,02,-1,-1,6.273,0.361038559,-0.391047881,1,0,0,2.7926,Pumice_rect,8,2.793,1,8,0,8,0,1,,,,,,,,,,,,,
6633bd3bc5ec5e52e25592a4,TCN,2024-06-24_23h07.29.451,LearnStrategy,2023.2.3,Win32,59.52380952,6,1,10,-0.024804466,-0.01145038,1,0,0,2.1246,rock_grid_rect_2,7,16,-1,-1,2.125,-0.377337499,-0.385496271,1,0,0,4.0481,Obsidian_rect,5,4.048,0,9,0,9,0,1,,,,,,,,,,,,,
6633bd3bc5ec5e52e25592a4,TCN,2024-06-24_23h07.29.451,LearnStrategy,2023.2.3,Win32,59.52380952,6,1,11,-0.024110588,-0.018390041,1,0,0,1.418,rock_grid_rect_2,4,11,-1,-1,1.418,0.314543013,-0.246703658,1,0,0,2.3415,Gabbro_rect,4,2.341,1,10,0,10,0,1,,,,,,,,,,,,,
6633bd3bc5ec5e52e25592a4,TCN,2024-06-24_23h07.29.451,LearnStrategy,2023.2.3,Win32,59.52380952,6,1,12,-0.060196644,-0.014226222,1,0,0,1.7258,rock_grid_rect_2,5,06,-1,-1,1.726,-0.368315985,-0.387578051,1,0,0,2.106,Obsidian_rect,5,2.106,1,11,0,11,0,1,,,,,,,,,,,,,
6633bd3bc5ec5e52e25592a4,TCN,2024-06-24_23h07.29.451,LearnStrategy,2023.2.3,Win32,59.52380952,6,1,13,-0.057420691,-0.02185976,1,0,0,1.4396,rock_grid_rect_2,4,08,-1,-1,1.44,0.346465288,-0.271686198,1,0,0,2.6334,Gabbro_rect,4,2.633,1,12,0,12,0,1,,,,,,,,,,,,,
6633bd3bc5ec5e52e25592a4,TCN,2024-06-24_23h07.29.451,LearnStrategy,2023.2.3,Win32,59.52380952,6,1,14,-0.000515877,0.001734915,1,0,0,1.3411,rock_grid_rect_2,5,02,-1,-1,1.341,-0.432854522,-0.404233176,1,0,0,2.5316,Obsidian_rect,5,2.532,1,13,0,13,0,1,,,,,,,,,,,,,
6633bd3bc5ec5e52e25592a4,TCN,2024-06-24_23h07.29.451,LearnStrategy,2023.2.3,Win32,59.52380952,6,1,15,0.02030303,0.001734915,1,0,0,1.3175,rock_grid_rect_2,6,08,-1,-1,1.318,0.104966412,-0.262664684,1,0,0,4.7393,Diorite_rect,3,4.739,0,14,0,14,0,1,,,,,,,,,,,,,
6633bd3bc5ec5e52e25592a4,TCN,2024-06-24_23h07.29.451,LearnStrategy,2023.2.3,Win32,59.52380952,6,1,16,0.014057247,-0.020471894,1,0,0,1.5787,rock_grid_rect_2,1,02,-1,-1,1.579,0.383939394,-0.400763346,1,0,0,4.6895,Pumice_rect,8,4.689,0,15,0,15,0,1,,,,,,,,,,,,,
6633bd3bc5ec5e52e25592a4,TCN,2024-06-24_23h07.29.451,LearnStrategy,2023.2.3,Win32,59.52380952,6,2,1,,,,,,,,2,02,,,,,,,,,,,4,3.54,0,,,,,,0.362426462,-0.255725172,1,0,0,3.5403,Gabbro_rect,0,0,0,0,1,
6633bd3bc5ec5e52e25592a4,TCN,2024-06-24_23h07.29.451,LearnStrategy,2023.2.3,Win32,59.52380952,6,2,2,,,,,,,,4,14,,,,,,,,,,,2,2.824,0,,,,,,-0.073381866,-0.230048458,1,0,0,2.8244,Basalt_rect,1,0,1,0,1,
6633bd3bc5ec5e52e25592a4,TCN,2024-06-24_23h07.29.451,LearnStrategy,2023.2.3,Win32,59.52380952,6,2,3,,,,,,,,2,10,,,,,,,,,,,4,4.009,0,,,,,,0.333279992,-0.266134588,1,0,0,4.0086,Gabbro_rect,2,0,2,0,1,
6633bd3bc5ec5e52e25592a4,TCN,2024-06-24_23h07.29.451,LearnStrategy,2023.2.3,Win32,59.52380952,6,2,4,,,,,,,,6,16,,,,,,,,,,,8,3.234,0,,,,,,0.32842226,-0.409090909,1,0,0,3.2341,Pumice_rect,3,0,3,0,1,
6633bd3bc5ec5e52e25592a4,TCN,2024-06-24_23h07.29.451,LearnStrategy,2023.2.3,Win32,59.52380952,6,2,5,,,,,,,,8,16,,,,,,,,,,,3,2.941,0,,,,,,0.025160763,-0.260582904,1,0,0,2.9414,Diorite_rect,4,0,4,0,1,
6633bd3bc5ec5e52e25592a4,TCN,2024-06-24_23h07.29.451,LearnStrategy,2023.2.3,Win32,59.52380952,6,2,6,,,,,,,,3,09,,,,,,,,,,,7,5.572,0,,,,,,0.055001036,-0.389659831,1,0,0,5.5715,Peridotite_rect,5,0,5,0,1,
6633bd3bc5ec5e52e25592a4,TCN,2024-06-24_23h07.29.451,LearnStrategy,2023.2.3,Win32,59.52380952,6,2,7,,,,,,,,7,12,,,,,,,,,,,1,6.145,0,,,,,,-0.384971147,-0.250173488,1,0,0,6.1447,Andesite_rect,6,0,6,0,1,
6633bd3bc5ec5e52e25592a4,TCN,2024-06-24_23h07.29.451,LearnStrategy,2023.2.3,Win32,59.52380952,6,2,8,,,,,,,,3,06,,,,,,,,,,,2,3.291,0,,,,,,-0.098364554,-0.271686198,1,0,0,3.2905,Basalt_rect,7,0,7,0,1,
6633bd3bc5ec5e52e25592a4,TCN,2024-06-24_23h07.29.451,LearnStrategy,2023.2.3,Win32,59.52380952,6,2,9,,,,,,,,4,16,,,,,,,,,,,4,9.774,1,,,,,,0.347159313,-0.262664684,1,0,0,9.774,Gabbro_rect,8,0,8,0,1,
6633bd3bc5ec5e52e25592a4,TCN,2024-06-24_23h07.29.451,LearnStrategy,2023.2.3,Win32,59.52380952,6,2,10,,,,,,,,5,05,,,,,,,,,,,5,2.305,1,,,,,,-0.425914935,-0.395905688,1,0,0,2.3053,Obsidian_rect,9,0,9,0,1,
6633bd3bc5ec5e52e25592a4,TCN,2024-06-24_23h07.29.451,LearnStrategy,2023.2.3,Win32,59.52380952,6,2,11,,,,,,,,6,12,,,,,,,,,,,1,4.739,0,,,,,,-0.36415224,-0.25364317,1,0,0,4.7391,Andesite_rect,10,0,10,0,1,
6633bd3bc5ec5e52e25592a4,TCN,2024-06-24_23h07.29.451,LearnStrategy,2023.2.3,Win32,59.52380952,6,2,12,,,,,,,,8,08,,,,,,,,,,,8,2.215,1,,,,,,0.391573005,-0.395211663,1,0,0,2.2147,Pumice_rect,11,0,11,0,1,
6633bd3bc5ec5e52e25592a4,TCN,2024-06-24_23h07.29.451,LearnStrategy,2023.2.3,Win32,59.52380952,6,2,13,,,,,,,,1,09,,,,,,,,,,,1,7.754,1,,,,,,-0.373173791,-0.254337269,1,0,0,7.7543,Andesite_rect,12,0,12,0,1,
6633bd3bc5ec5e52e25592a4,TCN,2024-06-24_23h07.29.451,LearnStrategy,2023.2.3,Win32,59.52380952,6,2,14,,,,,,,,5,16,,,,,,,,,,,5,2.233,1,,,,,,-0.328760136,-0.391741832,1,0,0,2.2328,Obsidian_rect,13,0,13,0,1,
6633bd3bc5ec5e52e25592a4,TCN,2024-06-24_23h07.29.451,LearnStrategy,2023.2.3,Win32,59.52380952,6,2,15,,,,,,,,1,05,,,,,,,,,,,1,8.725,1,,,,,,-0.323208489,-0.255725172,1,0,0,8.7251,Andesite_rect,14,0,14,0,1,
6633bd3bc5ec5e52e25592a4,TCN,2024-06-24_23h07.29.451,LearnStrategy,2023.2.3,Win32,59.52380952,6,2,16,,,,,,,,7,02,,,,,,,,,,,7,2.87,1,,,,,,0.12300944,-0.414642593,1,0,0,2.8698,Peridotite_rect,15,0,15,0,1,
6633bd3bc5ec5e52e25592a4,TCN,2024-06-24_23h07.29.451,LearnStrategy,2023.2.3,Win32,59.52380952,7,1,1,0.021690933,0.003816769,1,0,0,1.1897,rock_grid_rect_2,3,15,-1,-1,1.19,-0.073381866,-0.241151974,1,0,0,7.0566,Basalt_rect,2,7.057,0,0,0,0,0,1,,,,,,,,,,,,,
6633bd3bc5ec5e52e25592a4,TCN,2024-06-24_23h07.29.451,LearnStrategy,2023.2.3,Win32,59.52380952,7,1,2,-0.101834384,-0.012838283,1,0,0,1.5749,rock_grid_rect_2,4,09,-1,-1,1.575,-0.356518629,-0.382720318,1,0,0,2.395,Obsidian_rect,5,2.395,0,1,0,1,0,1,,,,,,,,,,,,,
6633bd3bc5ec5e52e25592a4,TCN,2024-06-24_23h07.29.451,LearnStrategy,2023.2.3,Win32,59.52380952,7,1,3,-0.037295884,-0.008674501,1,0,0,1.5055,rock_grid_rect_2,3,10,-1,-1,1.505,-0.385665024,-0.241151974,1,0,0,3.6023,Andesite_rect,1,3.602,0,2,0,2,0,1,,,,,,,,,,,,,
6633bd3bc5ec5e52e25592a4,TCN,2024-06-24_23h07.29.451,LearnStrategy,2023.2.3,Win32,59.52380952,7,1,4,0.025854714,-0.019083992,1,0,0,2.4965,rock_grid_rect_2,1,06,-1,-1,2.497,-0.105998091,-0.246703658,1,0,0,3.7132,Basalt_rect,2,3.713,0,3,0,3,0,1,,,,,,,,,,,,,
6633bd3bc5ec5e52e25592a4,TCN,2024-06-24_23h07.29.451,LearnStrategy,2023.2.3,Win32,59.52380952,7,1,5,-0.028968321,-0.014226222,1,0,0,1.3663,rock_grid_rect_2,5,02,-1,-1,1.366,-0.394686575,-0.406315104,1,0,0,4.1921,Obsidian_rect,5,4.192,1,4,0,4,0,1,,,,,,,,,,,,,
6633bd3bc5ec5e52e25592a4,TCN,2024-06-24_23h07.29.451,LearnStrategy,2023.2.3,Win32,59.52380952,7,1,6,-0.027580418,-0.019777869,1,0,0,1.3698,rock_grid_rect_2,2,09,-1,-1,1.37,0.365202415,-0.262664684,1,0,0,2.7119,Gabbro_rect,4,2.712,0,5,0,5,0,1,,,,,,,,,,,,,
6633bd3bc5ec5e52e25592a4,TCN,2024-06-24_23h07.29.451,LearnStrategy,2023.2.3,Win32,59.52380952,7,1,7,-0.081015625,-0.019777869,1,0,0,1.247,rock_grid_rect_2,8,13,-1,-1,1.247,0.356180901,-0.402151249,1,0,0,1.9264,Pumice_rect,8,1.926,1,6,0,6,0,1,,,,,,,,,,,,,
6633bd3bc5ec5e52e25592a4,TCN,2024-06-24_23h07.29.451,LearnStrategy,2023.2.3,Win32,59.52380952,7,1,8,-0.038683786,0.001040964,1,0,0,1.3688,rock_grid_rect_2,8,15,-1,-1,1.369,0.359650805,-0.412560591,1,0,0,2.7591,Pumice_rect,8,2.759,1,7,0,7,0,1,,,,,,,,,,,,,
6633bd3bc5ec5e52e25592a4,TCN,2024-06-24_23h07.29.451,LearnStrategy,2023.2.3,Win32,59.52380952,7,1,9,-0.07130016,-0.004510757,1,0,0,1.7548,rock_grid_rect_2,5,11,-1,-1,1.755,-0.423833008,-0.399375296,1,0,0,2.1326,Obsidian_rect,5,2.133,1,8,0,8,0,1,,,,,,,,,,,,,
6633bd3bc5ec5e52e25592a4,TCN,2024-06-24_23h07.29.451,LearnStrategy,2023.2.3,Win32,59.52380952,7,1,10,-0.055338912,-0.002428903,1,0,0,1.331,rock_grid_rect_2,2,06,-1,-1,1.331,-0.09975253,-0.240458023,1,0,0,2.8787,Basalt_rect,2,2.879,1,9,0,9,0,1,,,,,,,,,,,,,
6633bd3bc5ec5e52e25592a4,TCN,2024-06-24_23h07.29.451,LearnStrategy,2023.2.3,Win32,59.52380952,7,1,11,-0.044929569,-0.003122855,1,0,0,1.2593,rock_grid_rect_2,7,05,-1,-1,1.259,-0.307941266,-0.259195002,1,0,0,2.7198,Andesite_rect,1,2.72,0,10,0,10,0,1,,,,,,,,,,,,,
6633bd3bc5ec5e52e25592a4,TCN,2024-06-24_23h07.29.451,LearnStrategy,2023.2.3,Win32,59.52380952,7,1,12,-0.067830256,-0.000346976,1,0,0,1.2473,rock_grid_rect_2,6,11,-1,-1,1.247,0.14313447,-0.413254542,1,0,0,1.9673,Peridotite_rect,7,1.967,0,11,0,11,0,1,,,,,,,,,,,,,
6633bd3bc5ec5e52e25592a4,TCN,2024-06-24_23h07.29.451,LearnStrategy,2023.2.3,Win32,59.52380952,7,1,13,-0.051869007,-0.001734878,1,0,0,2.4177,rock_grid_rect_2,4,03,-1,-1,2.418,0.335361994,-0.247397609,1,0,0,2.5694,Gabbro_rect,4,2.569,1,12,0,12,0,1,,,,,,,,,,,,,
6633bd3bc5ec5e52e25592a4,TCN,2024-06-24_23h07.29.451,LearnStrategy,2023.2.3,Win32,59.52380952,7,1,14,-0.089342966,-0.020471894,1,0,0,1.2999,rock_grid_rect_2,7,14,-1,-1,1.3,0.320094919,-0.393129735,1,0,0,2.3233,Pumice_rect,8,2.323,0,13,0,13,0,1,,,,,,,,,,,,,
6633bd3bc5ec5e52e25592a4,TCN,2024-06-24_23h07.29.451,LearnStrategy,2023.2.3,Win32,59.52380952,7,1,15,-0.016477125,-0.023247773,1,0,0,1.3325,rock_grid_rect_2,6,08,-1,-1,1.332,-0.09975253,-0.401457372,1,0,0,2.7124,Pegmatite_rect,6,2.712,1,14,0,14,0,1,,,,,,,,,,,,,
6633bd3bc5ec5e52e25592a4,TCN,2024-06-24_23h07.29.451,LearnStrategy,2023.2.3,Win32,59.52380952,7,1,16,-0.069218158,-0.003122855,1,0,0,1.8711,rock_grid_rect_2,1,10,-1,-1,1.871,-0.110855898,-0.237682144,1,0,0,2.0134,Basalt_rect,2,2.013,0,15,0,15,0,1,,,,,,,,,,,,,
6633bd3bc5ec5e52e25592a4,TCN,2024-06-24_23h07.29.451,LearnStrategy,2023.2.3,Win32,59.52380952,7,2,1,,,,,,,,8,05,,,,,,,,,,,7,5.31,0,,,,,,0.171586914,-0.410478812,1,0,0,5.3103,Peridotite_rect,0,0,0,0,1,
6633bd3bc5ec5e52e25592a4,TCN,2024-06-24_23h07.29.451,LearnStrategy,2023.2.3,Win32,59.52380952,7,2,2,,,,,,,,3,08,,,,,,,,,,,3,6.296,1,,,,,,0.098720851,-0.261276855,1,0,0,6.296,Diorite_rect,1,0,1,0,1,
6633bd3bc5ec5e52e25592a4,TCN,2024-06-24_23h07.29.451,LearnStrategy,2023.2.3,Win32,59.52380952,7,2,3,,,,,,,,1,14,,,,,,,,,,,8,8.892,0,,,,,,0.386021248,-0.395905688,1,0,0,8.8921,Pumice_rect,2,0,2,0,1,
6633bd3bc5ec5e52e25592a4,TCN,2024-06-24_23h07.29.451,LearnStrategy,2023.2.3,Win32,59.52380952,7,2,4,,,,,,,,8,14,,,,,,,,,,,8,1.739,1,,,,,,0.371447976,-0.393823612,1,0,0,1.7386,Pumice_rect,3,0,3,0,1,
6633bd3bc5ec5e52e25592a4,TCN,2024-06-24_23h07.29.451,LearnStrategy,2023.2.3,Win32,59.52380952,7,2,5,,,,,,,,2,14,,,,,,,,,,,5,2.371,0,,,,,,-0.414811494,-0.409090909,1,0,0,2.3707,Obsidian_rect,4,0,4,0,1,
6633bd3bc5ec5e52e25592a4,TCN,2024-06-24_23h07.29.451,LearnStrategy,2023.2.3,Win32,59.52380952,7,2,6,,,,,,,,5,09,,,,,,,,,,,5,3.414,1,,,,,,-0.386358975,-0.391047881,1,0,0,3.4136,Obsidian_rect,5,0,5,0,1,
6633bd3bc5ec5e52e25592a4,TCN,2024-06-24_23h07.29.451,LearnStrategy,2023.2.3,Win32,59.52380952,7,2,7,,,,,,,,4,16,,,,,,,,,,,4,7.084,1,,,,,,0.371447976,-0.232824411,1,0,0,7.0836,Gabbro_rect,6,0,6,0,1,
6633bd3bc5ec5e52e25592a4,TCN,2024-06-24_23h07.29.451,LearnStrategy,2023.2.3,Win32,59.52380952,7,2,8,,,,,,,,1,09,,,,,,,,,,,7,6.06,0,,,,,,0.116069928,-0.395211663,1,0,0,6.0596,Peridotite_rect,7,0,7,0,1,
6633bd3bc5ec5e52e25592a4,TCN,2024-06-24_23h07.29.451,LearnStrategy,2023.2.3,Win32,59.52380952,7,2,9,,,,,,,,6,09,,,,,,,,,,,6,2.15,1,,,,,,-0.122653291,-0.404233176,1,0,0,2.1497,Pegmatite_rect,8,0,8,0,1,
6633bd3bc5ec5e52e25592a4,TCN,2024-06-24_23h07.29.451,LearnStrategy,2023.2.3,Win32,59.52380952,7,2,10,,,,,,,,7,08,,,,,,,,,,,7,28.913,1,,,,,,0.102884558,-0.397293516,1,0,0,28.913,Peridotite_rect,9,0,9,0,1,
6633bd3bc5ec5e52e25592a4,TCN,2024-06-24_23h07.29.451,LearnStrategy,2023.2.3,Win32,59.52380952,7,2,11,,,,,,,,5,04,,,,,,,,,,,5,3.102,1,,,,,,-0.357212654,-0.407008981,1,0,0,3.1019,Obsidian_rect,10,0,10,0,1,
6633bd3bc5ec5e52e25592a4,TCN,2024-06-24_23h07.29.451,LearnStrategy,2023.2.3,Win32,59.52380952,7,2,12,,,,,,,,3,07,,,,,,,,,,,3,4.796,1,,,,,,0.12092766,-0.241845925,1,0,0,4.7959,Diorite_rect,11,0,11,0,1,
6633bd3bc5ec5e52e25592a4,TCN,2024-06-24_23h07.29.451,LearnStrategy,2023.2.3,Win32,59.52380952,7,2,13,,,,,,,,4,12,,,,,,,,,,,1,9.101,0,,,,,,-0.399544308,-0.232824411,1,0,0,9.1007,Andesite_rect,12,0,12,0,1,
6633bd3bc5ec5e52e25592a4,TCN,2024-06-24_23h07.29.451,LearnStrategy,2023.2.3,Win32,59.52380952,7,2,14,,,,,,,,2,05,,,,,,,,,,,2,1.874,1,,,,,,-0.099058653,-0.250173488,1,0,0,1.8743,Basalt_rect,13,0,13,0,1,
6633bd3bc5ec5e52e25592a4,TCN,2024-06-24_23h07.29.451,LearnStrategy,2023.2.3,Win32,59.52380952,7,2,15,,,,,,,,7,07,,,,,,,,,,,3,10.709,0,,,,,,0.096638775,-0.259195002,1,0,0,10.709,Diorite_rect,14,0,14,0,1,
6633bd3bc5ec5e52e25592a4,TCN,2024-06-24_23h07.29.451,LearnStrategy,2023.2.3,Win32,59.52380952,7,2,16,,,,,,,,6,13,,,,,,,,,,,8,2.324,0,,,,,,0.368672023,-0.395211663,1,0,0,2.3239,Pumice_rect,15,0,15,0,1,
6633bd3bc5ec5e52e25592a4,TCN,2024-06-24_23h07.29.451,LearnStrategy,2023.2.3,Win32,59.52380952,8,1,1,-0.021334857,0.014226259,1,0,0,2.1687,rock_grid_rect_2,5,14,-1,-1,2.169,-0.421751117,-0.389659831,1,0,0,2.8273,Obsidian_rect,5,2.827,1,0,0,0,0,1,,,,,,,,,,,,,
6633bd3bc5ec5e52e25592a4,TCN,2024-06-24_23h07.29.451,LearnStrategy,2023.2.3,Win32,59.52380952,8,1,2,-0.102528335,0.005204782,1,0,0,1.3322,rock_grid_rect_2,5,08,-1,-1,1.332,-0.380113377,-0.403539077,1,0,0,2.943,Obsidian_rect,5,2.943,1,1,0,1,0,1,,,,,,,,,,,,,
6633bd3bc5ec5e52e25592a4,TCN,2024-06-24_23h07.29.451,LearnStrategy,2023.2.3,Win32,59.52380952,8,1,3,-0.085179406,-0.014226222,1,0,0,2.7141,rock_grid_rect_2,3,12,-1,-1,2.714,0.127173221,-0.261276855,1,0,0,2.1005,Diorite_rect,3,2.101,1,2,0,2,0,1,,,,,,,,,,,,,
6633bd3bc5ec5e52e25592a4,TCN,2024-06-24_23h07.29.451,LearnStrategy,2023.2.3,Win32,59.52380952,8,1,4,-0.006761512,-0.008674501,1,0,0,2.4139,rock_grid_rect_2,3,13,-1,-1,2.414,0.142440297,-0.240458023,1,0,0,1.9563,Diorite_rect,3,1.956,1,3,0,3,0,1,,,,,,,,,,,,,
6633bd3bc5ec5e52e25592a4,TCN,2024-06-24_23h07.29.451,LearnStrategy,2023.2.3,Win32,59.52380952,8,1,5,-0.059502693,-0.023941687,1,0,0,1.3698,rock_grid_rect_2,1,07,-1,-1,1.37,-0.366928119,-0.246009706,1,0,0,4.4383,Andesite_rect,1,4.438,1,4,0,4,0,1,,,,,,,,,,,,,
6633bd3bc5ec5e52e25592a4,TCN,2024-06-24_23h07.29.451,LearnStrategy,2023.2.3,Win32,59.52380952,8,1,6,-0.126123195,0.002428829,1,0,0,1.9964,rock_grid_rect_2,2,16,-1,-1,1.996,-0.127511023,-0.236294241,1,0,0,2.5462,Basalt_rect,2,2.546,1,5,0,5,0,1,,,,,,,,,,,,,
6633bd3bc5ec5e52e25592a4,TCN,2024-06-24_23h07.29.451,LearnStrategy,2023.2.3,Win32,59.52380952,8,1,7,-0.115019679,0.007286673,1,0,0,1.2284,rock_grid_rect_2,7,15,-1,-1,1.228,-0.355130763,-0.248785437,1,0,0,2.3911,Andesite_rect,1,2.391,0,6,0,6,0,1,,,,,,,,,,,,,
6633bd3bc5ec5e52e25592a4,TCN,2024-06-24_23h07.29.451,LearnStrategy,2023.2.3,Win32,59.52380952,8,1,8,-0.076157892,-0.008674501,1,0,0,1.2592,rock_grid_rect_2,8,02,-1,-1,1.259,0.329810384,-0.378556537,1,0,0,2.1381,Pumice_rect,8,2.138,1,7,0,7,0,1,,,,,,,,,,,,,
6633bd3bc5ec5e52e25592a4,TCN,2024-06-24_23h07.29.451,LearnStrategy,2023.2.3,Win32,59.52380952,8,1,9,-0.044929569,-0.013532308,1,0,0,1.2279,rock_grid_rect_2,7,10,-1,-1,1.228,0.124397269,-0.404233176,1,0,0,3.2262,Peridotite_rect,7,3.226,1,8,0,8,0,1,,,,,,,,,,,,,
6633bd3bc5ec5e52e25592a4,TCN,2024-06-24_23h07.29.451,LearnStrategy,2023.2.3,Win32,59.52380952,8,1,10,-0.034520005,-0.005898659,1,0,0,1.5307,rock_grid_rect_2,8,06,-1,-1,1.531,0.333279992,-0.394517563,1,0,0,1.9324,Pumice_rect,8,1.932,1,9,0,9,0,1,,,,,,,,,,,,,
6633bd3bc5ec5e52e25592a4,TCN,2024-06-24_23h07.29.451,LearnStrategy,2023.2.3,Win32,59.52380952,8,1,11,-0.047011349,-0.002428903,1,0,0,1.1982,rock_grid_rect_2,4,08,-1,-1,1.198,-0.094894798,-0.241845925,1,0,0,3.042,Basalt_rect,2,3.042,0,10,0,10,0,1,,,,,,,,,,,,,
6633bd3bc5ec5e52e25592a4,TCN,2024-06-24_23h07.29.451,LearnStrategy,2023.2.3,Win32,59.52380952,8,1,12,0.022384884,-0.022553711,1,0,0,2.1775,rock_grid_rect_2,6,06,-1,-1,2.178,0.395042762,-0.418112423,1,0,0,2.2843,Pumice_rect,8,2.284,0,11,0,11,0,1,,,,,,,,,,,,,
6633bd3bc5ec5e52e25592a4,TCN,2024-06-24_23h07.29.451,LearnStrategy,2023.2.3,Win32,59.52380952,8,1,13,-0.05117513,-0.015614088,1,0,0,1.5584,rock_grid_rect_2,6,10,-1,-1,1.558,-0.103222434,-0.400763346,1,0,0,2.7342,Pegmatite_rect,6,2.734,1,12,0,12,0,1,,,,,,,,,,,,,
6633bd3bc5ec5e52e25592a4,TCN,2024-06-24_23h07.29.451,LearnStrategy,2023.2.3,Win32,59.52380952,8,1,14,-0.067830256,-0.014226222,1,0,0,1.8925,rock_grid_rect_2,4,01,-1,-1,1.892,0.038346058,-0.244621656,1,0,0,4.8017,Diorite_rect,3,4.802,0,13,0,13,0,1,,,,,,,,,,,,,
6633bd3bc5ec5e52e25592a4,TCN,2024-06-24_23h07.29.451,LearnStrategy,2023.2.3,Win32,59.52380952,8,1,15,-0.022722686,-0.023247773,1,0,0,1.3212,rock_grid_rect_2,2,11,-1,-1,1.321,0.073044138,-0.25364317,1,0,0,6.7841,Diorite_rect,3,6.784,0,14,0,14,0,1,,,,,,,,,,,,,
6633bd3bc5ec5e52e25592a4,TCN,2024-06-24_23h07.29.451,LearnStrategy,2023.2.3,Win32,59.52380952,8,1,16,-0.042847567,-0.012144331,1,0,0,1.2112,rock_grid_rect_2,1,02,-1,-1,1.211,0.37491788,-0.393129735,1,0,0,2.2162,Pumice_rect,8,2.216,0,15,0,15,0,1,,,,,,,,,,,,,
6633bd3bc5ec5e52e25592a4,TCN,2024-06-24_23h07.29.451,LearnStrategy,2023.2.3,Win32,59.52380952,8,2,1,,,,,,,,1,05,,,,,,,,,,,1,19.557,1,,,,,,-0.342639345,-0.250173488,1,0,0,19.5575,Andesite_rect,0,0,0,0,1,
6633bd3bc5ec5e52e25592a4,TCN,2024-06-24_23h07.29.451,LearnStrategy,2023.2.3,Win32,59.52380952,8,2,2,,,,,,,,3,09,,,,,,,,,,,1,5.714,0,,,,,,-0.385665024,-0.242539876,1,0,0,5.7144,Andesite_rect,1,0,1,0,1,
6633bd3bc5ec5e52e25592a4,TCN,2024-06-24_23h07.29.451,LearnStrategy,2023.2.3,Win32,59.52380952,8,2,3,,,,,,,,5,10,,,,,,,,,,,5,1.95,1,,,,,,-0.407871871,-0.409090909,1,0,0,1.9501,Obsidian_rect,2,0,2,0,1,
6633bd3bc5ec5e52e25592a4,TCN,2024-06-24_23h07.29.451,LearnStrategy,2023.2.3,Win32,59.52380952,8,2,4,,,,,,,,3,06,,,,,,,,,,,3,4.518,1,,,,,,0.10010868,-0.25156139,1,0,0,4.5178,Diorite_rect,3,0,3,0,1,
6633bd3bc5ec5e52e25592a4,TCN,2024-06-24_23h07.29.451,LearnStrategy,2023.2.3,Win32,59.52380952,8,2,5,,,,,,,,4,14,,,,,,,,,,,2,2.793,0,,,,,,-0.070606061,-0.259195002,1,0,0,2.793,Basalt_rect,4,0,4,0,1,
6633bd3bc5ec5e52e25592a4,TCN,2024-06-24_23h07.29.451,LearnStrategy,2023.2.3,Win32,59.52380952,8,2,6,,,,,,,,6,03,,,,,,,,,,,6,3.165,1,,,,,,-0.118489509,-0.405621079,1,0,0,3.1651,Pegmatite_rect,5,0,5,0,1,
6633bd3bc5ec5e52e25592a4,TCN,2024-06-24_23h07.29.451,LearnStrategy,2023.2.3,Win32,59.52380952,8,2,7,,,,,,,,7,13,,,,,,,,,,,7,5.978,1,,,,,,0.097332727,-0.409090909,1,0,0,5.978,Peridotite_rect,6,0,6,0,1,
6633bd3bc5ec5e52e25592a4,TCN,2024-06-24_23h07.29.451,LearnStrategy,2023.2.3,Win32,59.52380952,8,2,8,,,,,,,,7,12,,,,,,,,,,,7,6.265,1,,,,,,0.086229433,-0.410478812,1,0,0,6.2647,Peridotite_rect,7,0,7,0,1,
6633bd3bc5ec5e52e25592a4,TCN,2024-06-24_23h07.29.451,LearnStrategy,2023.2.3,Win32,59.52380952,8,2,9,,,,,,,,2,08,,,,,,,,,,,2,2.444,1,,,,,,-0.095588749,-0.245315829,1,0,0,2.4443,Basalt_rect,8,0,8,0,1,
6633bd3bc5ec5e52e25592a4,TCN,2024-06-24_23h07.29.451,LearnStrategy,2023.2.3,Win32,59.52380952,8,2,10,,,,,,,,1,03,,,,,,,,,,,2,11.649,0,,,,,,-0.062278646,-0.265440637,1,0,0,11.6486,Basalt_rect,9,0,9,0,1,
6633bd3bc5ec5e52e25592a4,TCN,2024-06-24_23h07.29.451,LearnStrategy,2023.2.3,Win32,59.52380952,8,2,11,,,,,,,,2,10,,,,,,,,,,,2,5.301,1,,,,,,-0.048399399,-0.264052734,1,0,0,5.301,Basalt_rect,10,0,10,0,1,
6633bd3bc5ec5e52e25592a4,TCN,2024-06-24_23h07.29.451,LearnStrategy,2023.2.3,Win32,59.52380952,8,2,12,,,,,,,,6,12,,,,,,,,,,,8,18.481,0,,,,,,0.429046964,-0.401457372,1,0,0,18.4813,Pumice_rect,11,0,11,0,1,
6633bd3bc5ec5e52e25592a4,TCN,2024-06-24_23h07.29.451,LearnStrategy,2023.2.3,Win32,59.52380952,8,2,13,,,,,,,,4,10,,,,,,,,,,,4,2.987,1,,,,,,0.403370324,-0.24809156,1,0,0,2.9871,Gabbro_rect,12,0,12,0,1,
6633bd3bc5ec5e52e25592a4,TCN,2024-06-24_23h07.29.451,LearnStrategy,2023.2.3,Win32,59.52380952,8,2,14,,,,,,,,5,07,,,,,,,,,,,5,2.238,1,,,,,,-0.409953798,-0.400069395,1,0,0,2.2385,Obsidian_rect,13,0,13,0,1,
6633bd3bc5ec5e52e25592a4,TCN,2024-06-24_23h07.29.451,LearnStrategy,2023.2.3,Win32,59.52380952,8,2,15,,,,,,,,8,16,,,,,,,,,,,8,2.35,1,,,,,,0.381857392,-0.394517563,1,0,0,2.3502,Pumice_rect,14,0,14,0,1,
6633bd3bc5ec5e52e25592a4,TCN,2024-06-24_23h07.29.451,LearnStrategy,2023.2.3,Win32,59.52380952,8,2,16,,,,,,,,8,08,,,,,,,,,,,8,2.265,1,,,,,,0.402676373,-0.401457372,1,0,0,2.2655,Pumice_rect,15,0,15,0,1,
6633bd3bc5ec5e52e25592a4,TCN,2024-06-24_23h07.29.451,LearnStrategy,2023.2.3,Win32,59.52380952,9,1,1,-0.015783026,-0.012838283,1,0,0,1.8606,rock_grid_rect_2,5,12,-1,-1,1.861,-0.42869074,-0.386190149,1,0,0,2.2533,Obsidian_rect,5,2.253,1,0,0,0,0,1,,,,,,,,,,,,,
6633bd3bc5ec5e52e25592a4,TCN,2024-06-24_23h07.29.451,LearnStrategy,2023.2.3,Win32,59.52380952,9,1,2,-0.045623446,0.00034705,1,0,0,1.6769,rock_grid_rect_2,8,03,-1,-1,1.677,0.363814364,-0.38341427,1,0,0,2.1215,Pumice_rect,8,2.121,1,1,0,1,0,1,,,,,,,,,,,,,
6633bd3bc5ec5e52e25592a4,TCN,2024-06-24_23h07.29.451,LearnStrategy,2023.2.3,Win32,59.52380952,9,1,3,-0.031050323,0.010756429,1,0,0,1.2211,rock_grid_rect_2,7,06,-1,-1,1.221,0.079289921,-0.40839681,1,0,0,3.6031,Peridotite_rect,7,3.603,1,2,0,2,0,1,,,,,,,,,,,,,
6633bd3bc5ec5e52e25592a4,TCN,2024-06-24_23h07.29.451,LearnStrategy,2023.2.3,Win32,59.52380952,9,1,4,-0.074075891,0.001734915,1,0,0,1.1855,rock_grid_rect_2,8,09,-1,-1,1.186,0.342995458,-0.393129735,1,0,0,1.9803,Pumice_rect,8,1.98,1,3,0,3,0,1,,,,,,,,,,,,,
6633bd3bc5ec5e52e25592a4,TCN,2024-06-24_23h07.29.451,LearnStrategy,2023.2.3,Win32,59.52380952,9,1,5,-0.052563033,-0.00798055,1,0,0,1.3028,rock_grid_rect_2,3,14,-1,-1,1.303,-0.352354847,-0.240458023,1,0,0,3.1219,Andesite_rect,1,3.122,0,4,0,4,0,1,,,,,,,,,,,,,
6633bd3bc5ec5e52e25592a4,TCN,2024-06-24_23h07.29.451,LearnStrategy,2023.2.3,Win32,59.52380952,9,1,6,-0.084485233,0.001734915,1,0,0,1.9824,rock_grid_rect_2,2,01,-1,-1,1.982,-0.076157892,-0.247397609,1,0,0,3.1944,Basalt_rect,2,3.194,1,5,0,5,0,1,,,,,,,,,,,,,
6633bd3bc5ec5e52e25592a4,TCN,2024-06-24_23h07.29.451,LearnStrategy,2023.2.3,Win32,59.52380952,9,1,7,-0.074769842,-0.007286636,1,0,0,1.6162,rock_grid_rect_2,3,11,-1,-1,1.616,-0.381501243,-0.246009706,1,0,0,2.5871,Andesite_rect,1,2.587,0,6,0,6,0,1,,,,,,,,,,,,,
6633bd3bc5ec5e52e25592a4,TCN,2024-06-24_23h07.29.451,LearnStrategy,2023.2.3,Win32,59.52380952,9,1,8,-0.072687988,0.002428829,1,0,0,1.3162,rock_grid_rect_2,2,12,-1,-1,1.316,0.354098899,-0.255725172,1,0,0,3.4402,Gabbro_rect,4,3.44,0,7,0,7,0,1,,,,,,,,,,,,,
6633bd3bc5ec5e52e25592a4,TCN,2024-06-24_23h07.29.451,LearnStrategy,2023.2.3,Win32,59.52380952,9,1,9,-0.087955137,-0.004510757,1,0,0,1.2652,rock_grid_rect_2,6,15,-1,-1,1.265,-0.115019679,-0.401457372,1,0,0,2.1081,Pegmatite_rect,6,2.108,1,8,0,8,0,1,,,,,,,,,,,,,
6633bd3bc5ec5e52e25592a4,TCN,2024-06-24_23h07.29.451,LearnStrategy,2023.2.3,Win32,59.52380952,9,1,10,-0.067830256,0.001734915,1,0,0,1.5234,rock_grid_rect_2,1,16,-1,-1,1.523,0.336055945,-0.257806951,1,0,0,5.0247,Gabbro_rect,4,5.025,0,9,0,9,0,1,,,,,,,,,,,,,
6633bd3bc5ec5e52e25592a4,TCN,2024-06-24_23h07.29.451,LearnStrategy,2023.2.3,Win32,59.52380952,9,1,11,-0.032438151,-0.013532308,1,0,0,1.516,rock_grid_rect_2,4,15,-1,-1,1.516,0.332586115,-0.249479537,1,0,0,4.1978,Gabbro_rect,4,4.198,1,10,0,10,0,1,,,,,,,,,,,,,
6633bd3bc5ec5e52e25592a4,TCN,2024-06-24_23h07.29.451,LearnStrategy,2023.2.3,Win32,59.52380952,9,1,12,-0.024804466,-0.007286636,1,0,0,1.8515,rock_grid_rect_2,1,04,-1,-1,1.851,0.362426462,-0.389659831,1,0,0,2.7365,Pumice_rect,8,2.736,0,11,0,11,0,1,,,,,,,,,,,,,
6633bd3bc5ec5e52e25592a4,TCN,2024-06-24_23h07.29.451,LearnStrategy,2023.2.3,Win32,59.52380952,9,1,13,-0.076851844,-0.007286636,1,0,0,1.3879,rock_grid_rect_2,6,07,-1,-1,1.388,-0.098364554,-0.391741832,1,0,0,2.6677,Pegmatite_rect,6,2.668,1,12,0,12,0,1,,,,,,,,,,,,,
6633bd3bc5ec5e52e25592a4,TCN,2024-06-24_23h07.29.451,LearnStrategy,2023.2.3,Win32,59.52380952,9,1,14,-0.046317324,0.004510757,1,0,0,1.5532,rock_grid_rect_2,7,16,-1,-1,1.553,0.165341279,-0.385496271,1,0,0,2.4887,Peridotite_rect,7,2.489,1,13,0,13,0,1,,,,,,,,,,,,,
6633bd3bc5ec5e52e25592a4,TCN,2024-06-24_23h07.29.451,LearnStrategy,2023.2.3,Win32,59.52380952,9,1,15,-0.033132102,-0.010756355,1,0,0,2.4086,rock_grid_rect_2,4,11,-1,-1,2.409,-0.169842714,-0.25503122,1,0,0,3.6739,Basalt_rect,2,3.674,0,14,0,14,0,1,,,,,,,,,,,,,
6633bd3bc5ec5e52e25592a4,TCN,2024-06-24_23h07.29.451,LearnStrategy,2023.2.3,Win32,59.52380952,9,1,16,-0.011619244,-0.010756355,1,0,0,1.8177,rock_grid_rect_2,5,06,-1,-1,1.818,-0.436324315,-0.406315104,1,0,0,2.1533,Obsidian_rect,5,2.153,1,15,0,15,0,1,,,,,,,,,,,,,
6633bd3bc5ec5e52e25592a4,TCN,2024-06-24_23h07.29.451,LearnStrategy,2023.2.3,Win32,59.52380952,9,2,1,,,,,,,,7,02,,,,,,,,,,,1,8.161,0,,,,,,-0.335005845,-0.265440637,1,0,0,8.1613,Andesite_rect,0,0,0,0,1,
6633bd3bc5ec5e52e25592a4,TCN,2024-06-24_23h07.29.451,LearnStrategy,2023.2.3,Win32,59.52380952,9,2,2,,,,,,,,5,05,,,,,,,,,,,5,2.935,1,,,,,,-0.385665024,-0.393129735,1,0,0,2.9345,Obsidian_rect,1,0,1,0,1,
6633bd3bc5ec5e52e25592a4,TCN,2024-06-24_23h07.29.451,LearnStrategy,2023.2.3,Win32,59.52380952,9,2,3,,,,,,,,4,05,,,,,,,,,,,7,3.701,0,,,,,,0.116763805,-0.40839681,1,0,0,3.7008,Peridotite_rect,2,0,2,0,1,
6633bd3bc5ec5e52e25592a4,TCN,2024-06-24_23h07.29.451,LearnStrategy,2023.2.3,Win32,59.52380952,9,2,4,,,,,,,,7,04,,,,,,,,,,,6,4.153,0,,,,,,-0.171924716,-0.37994444,1,0,0,4.153,Pegmatite_rect,3,0,3,0,1,
6633bd3bc5ec5e52e25592a4,TCN,2024-06-24_23h07.29.451,LearnStrategy,2023.2.3,Win32,59.52380952,9,2,5,,,,,,,,1,11,,,,,,,,,,,8,1.931,0,,,,,,0.395042762,-0.398681345,1,0,0,1.9309,Pumice_rect,4,0,4,0,1,
6633bd3bc5ec5e52e25592a4,TCN,2024-06-24_23h07.29.451,LearnStrategy,2023.2.3,Win32,59.52380952,9,2,6,,,,,,,,8,10,,,,,,,,,,,8,1.872,1,,,,,,0.421413352,-0.419500326,1,0,0,1.8718,Pumice_rect,5,0,5,0,1,
6633bd3bc5ec5e52e25592a4,TCN,2024-06-24_23h07.29.451,LearnStrategy,2023.2.3,Win32,59.52380952,9,2,7,,,,,,,,8,04,,,,,,,,,,,8,2.718,1,,,,,,0.381163441,-0.391741832,1,0,0,2.7184,Pumice_rect,6,0,6,0,1,
6633bd3bc5ec5e52e25592a4,TCN,2024-06-24_23h07.29.451,LearnStrategy,2023.2.3,Win32,59.52380952,9,2,8,,,,,,,,6,05,,,,,,,,,,,6,3.324,1,,,,,,-0.160127249,-0.398681345,1,0,0,3.3241,Pegmatite_rect,7,0,7,0,1,
6633bd3bc5ec5e52e25592a4,TCN,2024-06-24_23h07.29.451,LearnStrategy,2023.2.3,Win32,59.52380952,9,2,9,,,,,,,,6,16,,,,,,,,,,,8,2.063,0,,,,,,0.370754173,-0.404233176,1,0,0,2.063,Pumice_rect,8,0,8,0,1,
6633bd3bc5ec5e52e25592a4,TCN,2024-06-24_23h07.29.451,LearnStrategy,2023.2.3,Win32,59.52380952,9,2,10,,,,,,,,1,01,,,,,,,,,,,4,5.408,0,,,,,,0.313155185,-0.260582904,1,0,0,5.4084,Gabbro_rect,9,0,9,0,1,
6633bd3bc5ec5e52e25592a4,TCN,2024-06-24_23h07.29.451,LearnStrategy,2023.2.3,Win32,59.52380952,9,2,11,,,,,,,,2,04,,,,,,,,,,,2,2.338,1,,,,,,-0.068524207,-0.255725172,1,0,0,2.3384,Basalt_rect,10,0,10,0,1,
6633bd3bc5ec5e52e25592a4,TCN,2024-06-24_23h07.29.451,LearnStrategy,2023.2.3,Win32,59.52380952,9,2,12,,,,,,,,2,02,,,,,,,,,,,4,5.472,0,,,,,,0.35132302,-0.246009706,1,0,0,5.4719,Gabbro_rect,11,0,11,0,1,
6633bd3bc5ec5e52e25592a4,TCN,2024-06-24_23h07.29.451,LearnStrategy,2023.2.3,Win32,59.52380952,9,2,13,,,,,,,,3,16,,,,,,,,,,,3,3.844,1,,,,,,0.085535556,-0.259195002,1,0,0,3.8439,Diorite_rect,12,0,12,0,1,
6633bd3bc5ec5e52e25592a4,TCN,2024-06-24_23h07.29.451,LearnStrategy,2023.2.3,Win32,59.52380952,9,2,14,,,,,,,,5,16,,,,,,,,,,,5,2.393,1,,,,,,-0.394686575,-0.395905688,1,0,0,2.3935,Obsidian_rect,13,0,13,0,1,
6633bd3bc5ec5e52e25592a4,TCN,2024-06-24_23h07.29.451,LearnStrategy,2023.2.3,Win32,59.52380952,9,2,15,,,,,,,,3,02,,,,,,,,,,,7,4.291,0,,,,,,0.134806833,-0.384802098,1,0,0,4.2908,Peridotite_rect,14,0,14,0,1,
6633bd3bc5ec5e52e25592a4,TCN,2024-06-24_23h07.29.451,LearnStrategy,2023.2.3,Win32,59.52380952,9,2,16,,,,,,,,4,13,,,,,,,,,,,1,6.923,0,,,,,,-0.359988459,-0.266134588,1,0,0,6.9232,Andesite_rect,15,0,15,0,1,
6633bd3bc5ec5e52e25592a4,TCN,2024-06-24_23h07.29.451,LearnStrategy,2023.2.3,Win32,59.52380952,,,,,,,,,,,,,,,,,,,,,,,,,,,,,,,,,,,,,,,,,,,0
6633bd3bc5ec5e52e25592a4,TCN,2024-06-24_23h07.29.451,LearnStrategy,2023.2.3,Win32,59.52380952,,,,,,,,,,,,,,,,,,,,,,,,,,,,,,,,,,,,,,,,,,,
6633bd3bc5ec5e52e25592a4,TCN,2024-06-24_23h07.29.451,LearnStrategy,2023.2.3,Win32,59.52380952,,,,,,,,,,,8,02,1,1,,,,,,,,,,,,,,,,,,,,,,,,,,,,,
6633bd3bc5ec5e52e25592a4,TCN,2024-06-24_23h07.29.451,LearnStrategy,2023.2.3,Win32,59.52380952,,,,,,,,,,,4,03,1,2,,,,,,,,,,,,,,,,,,,,,,,,,,,,,
6633bd3bc5ec5e52e25592a4,TCN,2024-06-24_23h07.29.451,LearnStrategy,2023.2.3,Win32,59.52380952,,,,,,,,,,,1,16,1,3,,,,,,,,,,,,,,,,,,,,,,,,,,,,,
6633bd3bc5ec5e52e25592a4,TCN,2024-06-24_23h07.29.451,LearnStrategy,2023.2.3,Win32,59.52380952,,,,,,,,,,,3,12,1,4,,,,,,,,,,,,,,,,,,,,,,,,,,,,,
6633bd3bc5ec5e52e25592a4,TCN,2024-06-24_23h07.29.451,LearnStrategy,2023.2.3,Win32,59.52380952,,,,,,,,,,,8,13,1,5,,,,,,,,,,,,,,,,,,,,,,,,,,,,,
6633bd3bc5ec5e52e25592a4,TCN,2024-06-24_23h07.29.451,LearnStrategy,2023.2.3,Win32,59.52380952,,,,,,,,,,,2,16,1,6,,,,,,,,,,,,,,,,,,,,,,,,,,,,,
6633bd3bc5ec5e52e25592a4,TCN,2024-06-24_23h07.29.451,LearnStrategy,2023.2.3,Win32,59.52380952,,,,,,,,,,,6,08,1,7,,,,,,,,,,,,,,,,,,,,,,,,,,,,,
6633bd3bc5ec5e52e25592a4,TCN,2024-06-24_23h07.29.451,LearnStrategy,2023.2.3,Win32,59.52380952,,,,,,,,,,,1,06,1,8,,,,,,,,,,,,,,,,,,,,,,,,,,,,,
6633bd3bc5ec5e52e25592a4,TCN,2024-06-24_23h07.29.451,LearnStrategy,2023.2.3,Win32,59.52380952,,,,,,,,,,,3,15,2,1,,,,,,,,,,,,,,,,,,,,,,,,,,,,,
6633bd3bc5ec5e52e25592a4,TCN,2024-06-24_23h07.29.451,LearnStrategy,2023.2.3,Win32,59.52380952,,,,,,,,,,,5,06,2,2,,,,,,,,,,,,,,,,,,,,,,,,,,,,,
6633bd3bc5ec5e52e25592a4,TCN,2024-06-24_23h07.29.451,LearnStrategy,2023.2.3,Win32,59.52380952,,,,,,,,,,,7,15,2,3,,,,,,,,,,,,,,,,,,,,,,,,,,,,,
6633bd3bc5ec5e52e25592a4,TCN,2024-06-24_23h07.29.451,LearnStrategy,2023.2.3,Win32,59.52380952,,,,,,,,,,,7,06,2,4,,,,,,,,,,,,,,,,,,,,,,,,,,,,,
6633bd3bc5ec5e52e25592a4,TCN,2024-06-24_23h07.29.451,LearnStrategy,2023.2.3,Win32,59.52380952,,,,,,,,,,,6,15,2,5,,,,,,,,,,,,,,,,,,,,,,,,,,,,,
6633bd3bc5ec5e52e25592a4,TCN,2024-06-24_23h07.29.451,LearnStrategy,2023.2.3,Win32,59.52380952,,,,,,,,,,,2,09,2,6,,,,,,,,,,,,,,,,,,,,,,,,,,,,,
6633bd3bc5ec5e52e25592a4,TCN,2024-06-24_23h07.29.451,LearnStrategy,2023.2.3,Win32,59.52380952,,,,,,,,,,,5,14,2,7,,,,,,,,,,,,,,,,,,,,,,,,,,,,,
6633bd3bc5ec5e52e25592a4,TCN,2024-06-24_23h07.29.451,LearnStrategy,2023.2.3,Win32,59.52380952,,,,,,,,,,,6,06,2,8,,,,,,,,,,,,,,,,,,,,,,,,,,,,,
6633bd3bc5ec5e52e25592a4,TCN,2024-06-24_23h07.29.451,LearnStrategy,2023.2.3,Win32,59.52380952,,,,,,,,,,,3,10,3,1,,,,,,,,,,,,,,,,,,,,,,,,,,,,,
6633bd3bc5ec5e52e25592a4,TCN,2024-06-24_23h07.29.451,LearnStrategy,2023.2.3,Win32,59.52380952,,,,,,,,,,,2,12,3,2,,,,,,,,,,,,,,,,,,,,,,,,,,,,,
6633bd3bc5ec5e52e25592a4,TCN,2024-06-24_23h07.29.451,LearnStrategy,2023.2.3,Win32,59.52380952,,,,,,,,,,,2,06,3,3,,,,,,,,,,,,,,,,,,,,,,,,,,,,,
6633bd3bc5ec5e52e25592a4,TCN,2024-06-24_23h07.29.451,LearnStrategy,2023.2.3,Win32,59.52380952,,,,,,,,,,,1,04,3,4,,,,,,,,,,,,,,,,,,,,,,,,,,,,,
6633bd3bc5ec5e52e25592a4,TCN,2024-06-24_23h07.29.451,LearnStrategy,2023.2.3,Win32,59.52380952,,,,,,,,,,,5,12,3,5,,,,,,,,,,,,,,,,,,,,,,,,,,,,,
6633bd3bc5ec5e52e25592a4,TCN,2024-06-24_23h07.29.451,LearnStrategy,2023.2.3,Win32,59.52380952,,,,,,,,,,,4,15,3,6,,,,,,,,,,,,,,,,,,,,,,,,,,,,,
6633bd3bc5ec5e52e25592a4,TCN,2024-06-24_23h07.29.451,LearnStrategy,2023.2.3,Win32,59.52380952,,,,,,,,,,,8,15,3,7,,,,,,,,,,,,,,,,,,,,,,,,,,,,,
6633bd3bc5ec5e52e25592a4,TCN,2024-06-24_23h07.29.451,LearnStrategy,2023.2.3,Win32,59.52380952,,,,,,,,,,,4,01,3,8,,,,,,,,,,,,,,,,,,,,,,,,,,,,,
6633bd3bc5ec5e52e25592a4,TCN,2024-06-24_23h07.29.451,LearnStrategy,2023.2.3,Win32,59.52380952,,,,,,,,,,,6,11,4,1,,,,,,,,,,,,,,,,,,,,,,,,,,,,,
6633bd3bc5ec5e52e25592a4,TCN,2024-06-24_23h07.29.451,LearnStrategy,2023.2.3,Win32,59.52380952,,,,,,,,,,,5,02,4,2,,,,,,,,,,,,,,,,,,,,,,,,,,,,,
6633bd3bc5ec5e52e25592a4,TCN,2024-06-24_23h07.29.451,LearnStrategy,2023.2.3,Win32,59.52380952,,,,,,,,,,,4,09,4,3,,,,,,,,,,,,,,,,,,,,,,,,,,,,,
6633bd3bc5ec5e52e25592a4,TCN,2024-06-24_23h07.29.451,LearnStrategy,2023.2.3,Win32,59.52380952,,,,,,,,,,,5,08,4,4,,,,,,,,,,,,,,,,,,,,,,,,,,,,,
6633bd3bc5ec5e52e25592a4,TCN,2024-06-24_23h07.29.451,LearnStrategy,2023.2.3,Win32,59.52380952,,,,,,,,,,,7,10,4,5,,,,,,,,,,,,,,,,,,,,,,,,,,,,,
6633bd3bc5ec5e52e25592a4,TCN,2024-06-24_23h07.29.451,LearnStrategy,2023.2.3,Win32,59.52380952,,,,,,,,,,,1,07,4,6,,,,,,,,,,,,,,,,,,,,,,,,,,,,,
6633bd3bc5ec5e52e25592a4,TCN,2024-06-24_23h07.29.451,LearnStrategy,2023.2.3,Win32,59.52380952,,,,,,,,,,,4,08,4,7,,,,,,,,,,,,,,,,,,,,,,,,,,,,,
6633bd3bc5ec5e52e25592a4,TCN,2024-06-24_23h07.29.451,LearnStrategy,2023.2.3,Win32,59.52380952,,,,,,,,,,,4,11,4,8,,,,,,,,,,,,,,,,,,,,,,,,,,,,,
6633bd3bc5ec5e52e25592a4,TCN,2024-06-24_23h07.29.451,LearnStrategy,2023.2.3,Win32,59.52380952,,,,,,,,,,,2,11,5,1,,,,,,,,,,,,,,,,,,,,,,,,,,,,,
6633bd3bc5ec5e52e25592a4,TCN,2024-06-24_23h07.29.451,LearnStrategy,2023.2.3,Win32,59.52380952,,,,,,,,,,,8,09,5,2,,,,,,,,,,,,,,,,,,,,,,,,,,,,,
6633bd3bc5ec5e52e25592a4,TCN,2024-06-24_23h07.29.451,LearnStrategy,2023.2.3,Win32,59.52380952,,,,,,,,,,,2,01,5,3,,,,,,,,,,,,,,,,,,,,,,,,,,,,,
6633bd3bc5ec5e52e25592a4,TCN,2024-06-24_23h07.29.451,LearnStrategy,2023.2.3,Win32,59.52380952,,,,,,,,,,,7,05,5,4,,,,,,,,,,,,,,,,,,,,,,,,,,,,,
6633bd3bc5ec5e52e25592a4,TCN,2024-06-24_23h07.29.451,LearnStrategy,2023.2.3,Win32,59.52380952,,,,,,,,,,,7,14,5,5,,,,,,,,,,,,,,,,,,,,,,,,,,,,,
6633bd3bc5ec5e52e25592a4,TCN,2024-06-24_23h07.29.451,LearnStrategy,2023.2.3,Win32,59.52380952,,,,,,,,,,,8,06,5,6,,,,,,,,,,,,,,,,,,,,,,,,,,,,,
6633bd3bc5ec5e52e25592a4,TCN,2024-06-24_23h07.29.451,LearnStrategy,2023.2.3,Win32,59.52380952,,,,,,,,,,,3,11,5,7,,,,,,,,,,,,,,,,,,,,,,,,,,,,,
6633bd3bc5ec5e52e25592a4,TCN,2024-06-24_23h07.29.451,LearnStrategy,2023.2.3,Win32,59.52380952,,,,,,,,,,,5,11,5,8,,,,,,,,,,,,,,,,,,,,,,,,,,,,,
6633bd3bc5ec5e52e25592a4,TCN,2024-06-24_23h07.29.451,LearnStrategy,2023.2.3,Win32,59.52380952,,,,,,,,,,,6,10,6,1,,,,,,,,,,,,,,,,,,,,,,,,,,,,,
6633bd3bc5ec5e52e25592a4,TCN,2024-06-24_23h07.29.451,LearnStrategy,2023.2.3,Win32,59.52380952,,,,,,,,,,,8,03,6,2,,,,,,,,,,,,,,,,,,,,,,,,,,,,,
6633bd3bc5ec5e52e25592a4,TCN,2024-06-24_23h07.29.451,LearnStrategy,2023.2.3,Win32,59.52380952,,,,,,,,,,,3,13,6,3,,,,,,,,,,,,,,,,,,,,,,,,,,,,,
6633bd3bc5ec5e52e25592a4,TCN,2024-06-24_23h07.29.451,LearnStrategy,2023.2.3,Win32,59.52380952,,,,,,,,,,,1,10,6,4,,,,,,,,,,,,,,,,,,,,,,,,,,,,,
6633bd3bc5ec5e52e25592a4,TCN,2024-06-24_23h07.29.451,LearnStrategy,2023.2.3,Win32,59.52380952,,,,,,,,,,,3,14,6,5,,,,,,,,,,,,,,,,,,,,,,,,,,,,,
6633bd3bc5ec5e52e25592a4,TCN,2024-06-24_23h07.29.451,LearnStrategy,2023.2.3,Win32,59.52380952,,,,,,,,,,,7,16,6,6,,,,,,,,,,,,,,,,,,,,,,,,,,,,,
6633bd3bc5ec5e52e25592a4,TCN,2024-06-24_23h07.29.451,LearnStrategy,2023.2.3,Win32,59.52380952,,,,,,,,,,,6,07,6,7,,,,,,,,,,,,,,,,,,,,,,,,,,,,,
6633bd3bc5ec5e52e25592a4,TCN,2024-06-24_23h07.29.451,LearnStrategy,2023.2.3,Win32,59.52380952,,,,,,,,,,,1,02,6,8,,,,,,,,,,,,,,,,,,,,,,,,,,,,,