participant,condition,date,expName,psychopyVersion,OS,frameRate,block,phase,trial,learn_mouse.x,learn_mouse.y,learn_mouse.leftButton,learn_mouse.midButton,learn_mouse.rightButton,learn_mouse.time,learn_mouse.clicked_name,cat,token,row,col,t_select,cat_mouse_l.x,cat_mouse_l.y,cat_mouse_l.leftButton,cat_mouse_l.midButton,cat_mouse_l.rightButton,cat_mouse_l.time,cat_mouse_l.clicked_name,resp,t_resp,corr,train_trials.thisRepN,train_trials.thisTrialN,train_trials.thisN,train_trials.thisIndex,train_trials.ran,cat_mouse_t.x,cat_mouse_t.y,cat_mouse_t.leftButton,cat_mouse_t.midButton,cat_mouse_t.rightButton,cat_mouse_t.time,cat_mouse_t.clicked_name,test_trials.thisRepN,test_trials.thisTrialN,test_trials.thisN,test_trials.thisIndex,test_trials.ran,Bonus
6634fcc04fdb39573179fb61,SCN,2024-06-24_14h33.52.602,LearnStrategy,2023.2.3,MacIntel,60.0240096,,,,,,,,,,,,,,,,,,,,,,,,,,,,,,,,,,,,,,,,,,,
6634fcc04fdb39573179fb61,SCN,2024-06-24_14h33.52.602,LearnStrategy,2023.2.3,MacIntel,60.0240096,1,1,1,-0.55078125,0.404296875,1,0,0,3.507,Basalt_10,2,10,6,1,3.507,-0.1640625,-0.258789063,1,0,0,7.147,Basalt_rect,2,7.147,1,0,0,0,0,1,,,,,,,,,,,,,
6634fcc04fdb39573179fb61,SCN,2024-06-24_14h33.52.602,LearnStrategy,2023.2.3,MacIntel,60.0240096,1,1,2,-0.366210938,0.368164063,1,0,0,2.426,Pegmatite_12,6,12,6,2,2.426,-0.374023438,-0.237304688,1,0,0,4.217,Andesite_rect,1,4.217,0,1,0,1,0,1,,,,,,,,,,,,,
6634fcc04fdb39573179fb61,SCN,2024-06-24_14h33.52.602,LearnStrategy,2023.2.3,MacIntel,60.0240096,1,1,3,-0.217773438,0.383789063,1,0,0,1.715,Obsidian_11,5,11,6,3,1.715,-0.34375,-0.383789063,1,0,0,1.461,Obsidian_rect,5,1.461,1,2,0,2,0,1,,,,,,,,,,,,,
6634fcc04fdb39573179fb61,SCN,2024-06-24_14h33.52.602,LearnStrategy,2023.2.3,MacIntel,60.0240096,1,1,4,-0.059570313,0.375976563,1,0,0,1.397,Gabbro_14,4,14,6,4,1.397,0.366210938,-0.259765625,1,0,0,7.247,Gabbro_rect,4,7.247,1,3,0,3,0,1,,,,,,,,,,,,,
6634fcc04fdb39573179fb61,SCN,2024-06-24_14h33.52.602,LearnStrategy,2023.2.3,MacIntel,60.0240096,1,1,5,0.094726563,0.39453125,1,0,0,1.678,Pegmatite_10,6,10,6,5,1.678,0.143554688,-0.397460938,1,0,0,3.321,Peridotite_rect,7,3.321,0,4,0,4,0,1,,,,,,,,,,,,,
6634fcc04fdb39573179fb61,SCN,2024-06-24_14h33.52.602,LearnStrategy,2023.2.3,MacIntel,60.0240096,1,1,6,0.208984375,0.377929688,1,0,0,3.131,Peridotite_12,7,12,6,6,3.131,0.396484375,-0.396484375,1,0,0,1.551,Pumice_rect,8,1.551,0,5,0,5,0,1,,,,,,,,,,,,,
6634fcc04fdb39573179fb61,SCN,2024-06-24_14h33.52.602,LearnStrategy,2023.2.3,MacIntel,60.0240096,1,1,7,0.416015625,0.413085938,1,0,0,2.447,Diorite_07,3,07,6,7,2.447,0.064453125,-0.248046875,1,0,0,4.806,Diorite_rect,3,4.806,1,6,0,6,0,1,,,,,,,,,,,,,
6634fcc04fdb39573179fb61,SCN,2024-06-24_14h33.52.602,LearnStrategy,2023.2.3,MacIntel,60.0240096,1,1,8,0.5703125,0.391601563,1,0,0,1.178,Peridotite_15,7,15,6,8,1.178,0.161132813,-0.4140625,1,0,0,1.595,Peridotite_rect,7,1.595,1,7,0,7,0,1,,,,,,,,,,,,,
6634fcc04fdb39573179fb61,SCN,2024-06-24_14h33.52.602,LearnStrategy,2023.2.3,MacIntel,60.0240096,1,1,9,-0.576171875,0.244140625,1,0,0,1.266,Basalt_04,2,04,5,1,1.266,-0.166992188,-0.248046875,1,0,0,2.83,Basalt_rect,2,2.83,1,8,0,8,0,1,,,,,,,,,,,,,
6634fcc04fdb39573179fb61,SCN,2024-06-24_14h33.52.602,LearnStrategy,2023.2.3,MacIntel,60.0240096,1,1,10,-0.384765625,0.258789063,1,0,0,4.131,Pumice_16,8,16,5,2,4.131,-0.350585938,-0.240234375,1,0,0,9.187,Andesite_rect,1,9.187,0,9,0,9,0,1,,,,,,,,,,,,,
6634fcc04fdb39573179fb61,SCN,2024-06-24_14h33.52.602,LearnStrategy,2023.2.3,MacIntel,60.0240096,1,1,11,-0.25,0.243164063,1,0,0,0.997,Diorite_15,3,15,5,3,0.997,-0.119140625,-0.390625,1,0,0,5.033,Pegmatite_rect,6,5.033,0,10,0,10,0,1,,,,,,,,,,,,,
6634fcc04fdb39573179fb61,SCN,2024-06-24_14h33.52.602,LearnStrategy,2023.2.3,MacIntel,60.0240096,1,1,12,-0.078125,0.229492188,1,0,0,1.912,Peridotite_04,7,04,5,4,1.912,-0.090820313,-0.388671875,1,0,0,3.694,Pegmatite_rect,6,3.694,0,11,0,11,0,1,,,,,,,,,,,,,
6634fcc04fdb39573179fb61,SCN,2024-06-24_14h33.52.602,LearnStrategy,2023.2.3,MacIntel,60.0240096,1,1,13,-0.056640625,0.095703125,1,0,0,2.583,Diorite_02,3,02,4,4,2.583,0.126953125,-0.263671875,1,0,0,4.125,Diorite_rect,3,4.125,1,12,0,12,0,1,,,,,,,,,,,,,
6634fcc04fdb39573179fb61,SCN,2024-06-24_14h33.52.602,LearnStrategy,2023.2.3,MacIntel,60.0240096,1,1,14,-0.551757813,-0.138671875,1,0,0,1.595,Peridotite_13,7,13,3,1,1.595,0.142578125,-0.390625,1,0,0,2.269,Peridotite_rect,7,2.269,1,13,0,13,0,1,,,,,,,,,,,,,
6634fcc04fdb39573179fb61,SCN,2024-06-24_14h33.52.602,LearnStrategy,2023.2.3,MacIntel,60.0240096,1,1,15,-0.2265625,-0.383789063,1,0,0,3.265,Pegmatite_08,6,08,1,3,3.265,-0.349609375,-0.260742188,1,0,0,1.644,Andesite_rect,1,1.644,0,14,0,14,0,1,,,,,,,,,,,,,
6634fcc04fdb39573179fb61,SCN,2024-06-24_14h33.52.602,LearnStrategy,2023.2.3,MacIntel,60.0240096,1,1,16,0.403320313,-0.405273438,1,0,0,4.865,Pumice_13,8,13,1,7,4.865,0.400390625,-0.401367188,1,0,0,0.683,Pumice_rect,8,0.683,1,15,0,15,0,1,,,,,,,,,,,,,
6634fcc04fdb39573179fb61,SCN,2024-06-24_14h33.52.602,LearnStrategy,2023.2.3,MacIntel,60.0240096,1,2,1,,,,,,,,6,11,,,,,,,,,,,6,3.208,1,,,,,,-0.065429688,-0.3828125,1,0,0,3.208,Pegmatite_rect,0,0,0,0,1,
6634fcc04fdb39573179fb61,SCN,2024-06-24_14h33.52.602,LearnStrategy,2023.2.3,MacIntel,60.0240096,1,2,2,,,,,,,,6,06,,,,,,,,,,,7,8.49,0,,,,,,0.0859375,-0.397460938,1,0,0,8.49,Peridotite_rect,1,0,1,0,1,
6634fcc04fdb39573179fb61,SCN,2024-06-24_14h33.52.602,LearnStrategy,2023.2.3,MacIntel,60.0240096,1,2,3,,,,,,,,1,16,,,,,,,,,,,3,1.591,0,,,,,,0.069335938,-0.2578125,1,0,0,1.591,Diorite_rect,2,0,2,0,1,
6634fcc04fdb39573179fb61,SCN,2024-06-24_14h33.52.602,LearnStrategy,2023.2.3,MacIntel,60.0240096,1,2,4,,,,,,,,5,16,,,,,,,,,,,5,2.268,1,,,,,,-0.340820313,-0.390625,1,0,0,2.268,Obsidian_rect,3,0,3,0,1,
6634fcc04fdb39573179fb61,SCN,2024-06-24_14h33.52.602,LearnStrategy,2023.2.3,MacIntel,60.0240096,1,2,5,,,,,,,,3,13,,,,,,,,,,,3,3.255,1,,,,,,0.123046875,-0.255859375,1,0,0,3.255,Diorite_rect,4,0,4,0,1,
6634fcc04fdb39573179fb61,SCN,2024-06-24_14h33.52.602,LearnStrategy,2023.2.3,MacIntel,60.0240096,1,2,6,,,,,,,,7,08,,,,,,,,,,,8,1.738,0,,,,,,0.391601563,-0.383789063,1,0,0,1.738,Pumice_rect,5,0,5,0,1,
6634fcc04fdb39573179fb61,SCN,2024-06-24_14h33.52.602,LearnStrategy,2023.2.3,MacIntel,60.0240096,1,2,7,,,,,,,,2,12,,,,,,,,,,,8,2.165,0,,,,,,0.353515625,-0.3984375,1,0,0,2.165,Pumice_rect,6,0,6,0,1,
6634fcc04fdb39573179fb61,SCN,2024-06-24_14h33.52.602,LearnStrategy,2023.2.3,MacIntel,60.0240096,1,2,8,,,,,,,,2,02,,,,,,,,,,,2,2.683,1,,,,,,-0.072265625,-0.243164063,1,0,0,2.683,Basalt_rect,7,0,7,0,1,
6634fcc04fdb39573179fb61,SCN,2024-06-24_14h33.52.602,LearnStrategy,2023.2.3,MacIntel,60.0240096,1,2,9,,,,,,,,4,16,,,,,,,,,,,2,2.299,0,,,,,,-0.071289063,-0.258789063,1,0,0,2.299,Basalt_rect,8,0,8,0,1,
6634fcc04fdb39573179fb61,SCN,2024-06-24_14h33.52.602,LearnStrategy,2023.2.3,MacIntel,60.0240096,1,2,10,,,,,,,,3,06,,,,,,,,,,,3,1.328,1,,,,,,0.109375,-0.256835938,1,0,0,1.328,Diorite_rect,9,0,9,0,1,
6634fcc04fdb39573179fb61,SCN,2024-06-24_14h33.52.602,LearnStrategy,2023.2.3,MacIntel,60.0240096,1,2,11,,,,,,,,5,14,,,,,,,,,,,5,1.641,1,,,,,,-0.392578125,-0.395507813,1,0,0,1.641,Obsidian_rect,10,0,10,0,1,
6634fcc04fdb39573179fb61,SCN,2024-06-24_14h33.52.602,LearnStrategy,2023.2.3,MacIntel,60.0240096,1,2,12,,,,,,,,1,09,,,,,,,,,,,3,6.779,0,,,,,,0.157226563,-0.254882813,1,0,0,6.779,Diorite_rect,11,0,11,0,1,
6634fcc04fdb39573179fb61,SCN,2024-06-24_14h33.52.602,LearnStrategy,2023.2.3,MacIntel,60.0240096,1,2,13,,,,,,,,8,09,,,,,,,,,,,8,1.189,1,,,,,,0.432617188,-0.401367188,1,0,0,1.189,Pumice_rect,12,0,12,0,1,
6634fcc04fdb39573179fb61,SCN,2024-06-24_14h33.52.602,LearnStrategy,2023.2.3,MacIntel,60.0240096,1,2,14,,,,,,,,4,15,,,,,,,,,,,4,3.756,1,,,,,,0.350585938,-0.252929688,1,0,0,3.756,Gabbro_rect,13,0,13,0,1,
6634fcc04fdb39573179fb61,SCN,2024-06-24_14h33.52.602,LearnStrategy,2023.2.3,MacIntel,60.0240096,1,2,15,,,,,,,,8,03,,,,,,,,,,,8,1.28,1,,,,,,0.358398438,-0.392578125,1,0,0,1.28,Pumice_rect,14,0,14,0,1,
6634fcc04fdb39573179fb61,SCN,2024-06-24_14h33.52.602,LearnStrategy,2023.2.3,MacIntel,60.0240096,1,2,16,,,,,,,,7,10,,,,,,,,,,,7,1.63,1,,,,,,0.15625,-0.38671875,1,0,0,1.63,Peridotite_rect,15,0,15,0,1,
6634fcc04fdb39573179fb61,SCN,2024-06-24_14h33.52.602,LearnStrategy,2023.2.3,MacIntel,60.0240096,2,1,1,0.073242188,-0.396484375,1,0,0,4.496,Pegmatite_07,6,07,1,5,4.496,-0.44140625,-0.248046875,1,0,0,1.03,Andesite_rect,1,1.03,0,0,0,0,0,1,,,,,,,,,,,,,
6634fcc04fdb39573179fb61,SCN,2024-06-24_14h33.52.602,LearnStrategy,2023.2.3,MacIntel,60.0240096,2,1,2,0.20703125,-0.069335938,1,0,0,2.047,Pegmatite_13,6,13,3,6,2.047,-0.102539063,-0.388671875,1,0,0,1.882,Pegmatite_rect,6,1.882,1,1,0,1,0,1,,,,,,,,,,,,,
6634fcc04fdb39573179fb61,SCN,2024-06-24_14h33.52.602,LearnStrategy,2023.2.3,MacIntel,60.0240096,2,1,3,-0.5234375,-0.23828125,1,0,0,3.68,Pegmatite_05,6,05,2,1,3.68,-0.342773438,-0.236328125,1,0,0,1.433,Andesite_rect,1,1.433,0,2,0,2,0,1,,,,,,,,,,,,,
6634fcc04fdb39573179fb61,SCN,2024-06-24_14h33.52.602,LearnStrategy,2023.2.3,MacIntel,60.0240096,2,1,4,0.260742188,0.1015625,1,0,0,1.728,Obsidian_05,5,05,4,6,1.728,-0.340820313,-0.239257813,1,0,0,1.907,Andesite_rect,1,1.907,0,3,0,3,0,1,,,,,,,,,,,,,
6634fcc04fdb39573179fb61,SCN,2024-06-24_14h33.52.602,LearnStrategy,2023.2.3,MacIntel,60.0240096,2,1,5,0.250976563,0.268554688,1,0,0,1.728,Obsidian_10,5,10,5,6,1.728,-0.33984375,-0.228515625,1,0,0,1.905,Andesite_rect,1,1.905,0,4,0,4,0,1,,,,,,,,,,,,,
6634fcc04fdb39573179fb61,SCN,2024-06-24_14h33.52.602,LearnStrategy,2023.2.3,MacIntel,60.0240096,2,1,6,0.516601563,0.2578125,1,0,0,4.115,Andesite_03,1,03,5,8,4.115,0.359375,-0.251953125,1,0,0,2.585,Gabbro_rect,4,2.585,0,5,0,5,0,1,,,,,,,,,,,,,
6634fcc04fdb39573179fb61,SCN,2024-06-24_14h33.52.602,LearnStrategy,2023.2.3,MacIntel,60.0240096,2,1,7,-0.255859375,0.145507813,1,0,0,2.081,Andesite_11,1,11,4,3,2.081,-0.388671875,-0.2421875,1,0,0,0.821,Andesite_rect,1,0.821,1,6,0,6,0,1,,,,,,,,,,,,,
6634fcc04fdb39573179fb61,SCN,2024-06-24_14h33.52.602,LearnStrategy,2023.2.3,MacIntel,60.0240096,2,1,8,-0.075195313,-0.095703125,1,0,0,2.793,Gabbro_12,4,12,3,4,2.793,0.389648438,-0.2421875,1,0,0,4.417,Gabbro_rect,4,4.417,1,7,0,7,0,1,,,,,,,,,,,,,
6634fcc04fdb39573179fb61,SCN,2024-06-24_14h33.52.602,LearnStrategy,2023.2.3,MacIntel,60.0240096,2,1,9,0.446289063,-0.081054688,1,0,0,2.101,Basalt_01,2,01,3,7,2.101,0.423828125,-0.2421875,1,0,0,1.048,Gabbro_rect,4,1.048,0,8,0,8,0,1,,,,,,,,,,,,,
6634fcc04fdb39573179fb61,SCN,2024-06-24_14h33.52.602,LearnStrategy,2023.2.3,MacIntel,60.0240096,2,1,10,0.368164063,-0.272460938,1,0,0,1.198,Basalt_08,2,08,2,7,1.198,-0.166992188,-0.254882813,1,0,0,1.423,Basalt_rect,2,1.423,1,9,0,9,0,1,,,,,,,,,,,,,
6634fcc04fdb39573179fb61,SCN,2024-06-24_14h33.52.602,LearnStrategy,2023.2.3,MacIntel,60.0240096,2,1,11,0.084960938,0.100585938,1,0,0,2.78,Basalt_16,2,16,4,5,2.78,-0.080078125,-0.241210938,1,0,0,2.096,Basalt_rect,2,2.096,1,10,0,10,0,1,,,,,,,,,,,,,
6634fcc04fdb39573179fb61,SCN,2024-06-24_14h33.52.602,LearnStrategy,2023.2.3,MacIntel,60.0240096,2,1,12,0.420898438,0.234375,1,0,0,3.915,Obsidian_09,5,09,5,7,3.915,-0.33984375,-0.391601563,1,0,0,1.313,Obsidian_rect,5,1.313,1,11,0,11,0,1,,,,,,,,,,,,,
6634fcc04fdb39573179fb61,SCN,2024-06-24_14h33.52.602,LearnStrategy,2023.2.3,MacIntel,60.0240096,2,1,13,0.212890625,-0.393554688,1,0,0,1.381,Diorite_08,3,08,1,6,1.381,0.224609375,-0.240234375,1,0,0,1.8,Diorite_rect,3,1.8,1,12,0,12,0,1,,,,,,,,,,,,,
6634fcc04fdb39573179fb61,SCN,2024-06-24_14h33.52.602,LearnStrategy,2023.2.3,MacIntel,60.0240096,2,1,14,0.545898438,-0.08203125,1,0,0,1.533,Andesite_05,1,05,3,8,1.533,0.162109375,-0.391601563,1,0,0,5.346,Peridotite_rect,7,5.346,0,13,0,13,0,1,,,,,,,,,,,,,
6634fcc04fdb39573179fb61,SCN,2024-06-24_14h33.52.602,LearnStrategy,2023.2.3,MacIntel,60.0240096,2,1,15,-0.412109375,-0.103515625,1,0,0,2.33,Pumice_10,8,10,3,2,2.33,0.4140625,-0.405273438,1,0,0,0.963,Pumice_rect,8,0.963,1,14,0,14,0,1,,,,,,,,,,,,,
6634fcc04fdb39573179fb61,SCN,2024-06-24_14h33.52.602,LearnStrategy,2023.2.3,MacIntel,60.0240096,2,1,16,0.24609375,0.061523438,1,0,0,1.032,Obsidian_05,5,05,4,6,1.032,-0.33203125,-0.380859375,1,0,0,1.623,Obsidian_rect,5,1.623,1,15,0,15,0,1,,,,,,,,,,,,,
6634fcc04fdb39573179fb61,SCN,2024-06-24_14h33.52.602,LearnStrategy,2023.2.3,MacIntel,60.0240096,2,2,1,,,,,,,,3,12,,,,,,,,,,,2,0.068,0,,,,,,-0.041015625,-0.265625,1,0,0,0.068,Basalt_rect,0,0,0,0,1,
6634fcc04fdb39573179fb61,SCN,2024-06-24_14h33.52.602,LearnStrategy,2023.2.3,MacIntel,60.0240096,2,2,2,,,,,,,,7,14,,,,,,,,,,,6,9.554,0,,,,,,-0.129882813,-0.409179688,1,0,0,9.554,Pegmatite_rect,1,0,1,0,1,
6634fcc04fdb39573179fb61,SCN,2024-06-24_14h33.52.602,LearnStrategy,2023.2.3,MacIntel,60.0240096,2,2,3,,,,,,,,3,11,,,,,,,,,,,7,7.987,0,,,,,,0.1953125,-0.385742188,1,0,0,7.987,Peridotite_rect,2,0,2,0,1,
6634fcc04fdb39573179fb61,SCN,2024-06-24_14h33.52.602,LearnStrategy,2023.2.3,MacIntel,60.0240096,2,2,4,,,,,,,,6,15,,,,,,,,,,,6,2.479,1,,,,,,-0.115234375,-0.4140625,1,0,0,2.479,Pegmatite_rect,3,0,3,0,1,
6634fcc04fdb39573179fb61,SCN,2024-06-24_14h33.52.602,LearnStrategy,2023.2.3,MacIntel,60.0240096,2,2,5,,,,,,,,6,09,,,,,,,,,,,6,1.646,1,,,,,,-0.115234375,-0.4140625,1,0,0,1.646,Pegmatite_rect,4,0,4,0,1,
6634fcc04fdb39573179fb61,SCN,2024-06-24_14h33.52.602,LearnStrategy,2023.2.3,MacIntel,60.0240096,2,2,6,,,,,,,,2,06,,,,,,,,,,,2,1.759,1,,,,,,-0.134765625,-0.267578125,1,0,0,1.759,Basalt_rect,5,0,5,0,1,
6634fcc04fdb39573179fb61,SCN,2024-06-24_14h33.52.602,LearnStrategy,2023.2.3,MacIntel,60.0240096,2,2,7,,,,,,,,5,06,,,,,,,,,,,5,1.21,1,,,,,,-0.327148438,-0.392578125,1,0,0,1.21,Obsidian_rect,6,0,6,0,1,
6634fcc04fdb39573179fb61,SCN,2024-06-24_14h33.52.602,LearnStrategy,2023.2.3,MacIntel,60.0240096,2,2,8,,,,,,,,7,02,,,,,,,,,,,6,4.887,0,,,,,,-0.099609375,-0.399414063,1,0,0,4.887,Pegmatite_rect,7,0,7,0,1,
6634fcc04fdb39573179fb61,SCN,2024-06-24_14h33.52.602,LearnStrategy,2023.2.3,MacIntel,60.0240096,2,2,9,,,,,,,,2,11,,,,,,,,,,,8,1.34,0,,,,,,0.409179688,-0.393554688,1,0,0,1.34,Pumice_rect,8,0,8,0,1,
6634fcc04fdb39573179fb61,SCN,2024-06-24_14h33.52.602,LearnStrategy,2023.2.3,MacIntel,60.0240096,2,2,10,,,,,,,,1,14,,,,,,,,,,,3,2.842,0,,,,,,0.1953125,-0.25390625,1,0,0,2.842,Diorite_rect,9,0,9,0,1,
6634fcc04fdb39573179fb61,SCN,2024-06-24_14h33.52.602,LearnStrategy,2023.2.3,MacIntel,60.0240096,2,2,11,,,,,,,,1,02,,,,,,,,,,,1,3.142,1,,,,,,-0.369140625,-0.254882813,1,0,0,3.142,Andesite_rect,10,0,10,0,1,
6634fcc04fdb39573179fb61,SCN,2024-06-24_14h33.52.602,LearnStrategy,2023.2.3,MacIntel,60.0240096,2,2,12,,,,,,,,8,08,,,,,,,,,,,8,3.409,1,,,,,,0.333007813,-0.400390625,1,0,0,3.409,Pumice_rect,11,0,11,0,1,
6634fcc04fdb39573179fb61,SCN,2024-06-24_14h33.52.602,LearnStrategy,2023.2.3,MacIntel,60.0240096,2,2,13,,,,,,,,5,08,,,,,,,,,,,5,1.374,1,,,,,,-0.380859375,-0.392578125,1,0,0,1.374,Obsidian_rect,12,0,12,0,1,
6634fcc04fdb39573179fb61,SCN,2024-06-24_14h33.52.602,LearnStrategy,2023.2.3,MacIntel,60.0240096,2,2,14,,,,,,,,4,13,,,,,,,,,,,7,5.445,0,,,,,,0.127929688,-0.403320313,1,0,0,5.445,Peridotite_rect,13,0,13,0,1,
6634fcc04fdb39573179fb61,SCN,2024-06-24_14h33.52.602,LearnStrategy,2023.2.3,MacIntel,60.0240096,2,2,15,,,,,,,,8,15,,,,,,,,,,,8,2.338,1,,,,,,0.340820313,-0.40625,1,0,0,2.338,Pumice_rect,14,0,14,0,1,
6634fcc04fdb39573179fb61,SCN,2024-06-24_14h33.52.602,LearnStrategy,2023.2.3,MacIntel,60.0240096,2,2,16,,,,,,,,4,03,,,,,,,,,,,3,4.636,0,,,,,,0.092773438,-0.258789063,1,0,0,4.636,Diorite_rect,15,0,15,0,1,
6634fcc04fdb39573179fb61,SCN,2024-06-24_14h33.52.602,LearnStrategy,2023.2.3,MacIntel,60.0240096,3,1,1,0.223632813,-0.11328125,1,0,0,1.763,Pegmatite_13,6,13,3,6,1.763,-0.166015625,-0.415039063,1,0,0,1.195,Pegmatite_rect,6,1.195,1,0,0,0,0,1,,,,,,,,,,,,,
6634fcc04fdb39573179fb61,SCN,2024-06-24_14h33.52.602,LearnStrategy,2023.2.3,MacIntel,60.0240096,3,1,2,-0.500976563,-0.267578125,1,0,0,4.514,Pegmatite_05,6,05,2,1,4.514,-0.095703125,-0.401367188,1,0,0,4.131,Pegmatite_rect,6,4.131,1,1,0,1,0,1,,,,,,,,,,,,,
6634fcc04fdb39573179fb61,SCN,2024-06-24_14h33.52.602,LearnStrategy,2023.2.3,MacIntel,60.0240096,3,1,3,0.08203125,0.374023438,1,0,0,3.348,Pegmatite_10,6,10,6,5,3.348,0.126953125,-0.416015625,1,0,0,1.312,Peridotite_rect,7,1.312,0,2,0,2,0,1,,,,,,,,,,,,,
6634fcc04fdb39573179fb61,SCN,2024-06-24_14h33.52.602,LearnStrategy,2023.2.3,MacIntel,60.0240096,3,1,4,0.0859375,-0.413085938,1,0,0,2.278,Pegmatite_07,6,07,1,5,2.278,-0.067382813,-0.408203125,1,0,0,0.844,Pegmatite_rect,6,0.844,1,3,0,3,0,1,,,,,,,,,,,,,
6634fcc04fdb39573179fb61,SCN,2024-06-24_14h33.52.602,LearnStrategy,2023.2.3,MacIntel,60.0240096,3,1,5,0.359375,-0.413085938,1,0,0,1.196,Pumice_13,8,13,1,7,1.196,0.33203125,-0.408203125,1,0,0,2.387,Pumice_rect,8,2.387,1,4,0,4,0,1,,,,,,,,,,,,,
6634fcc04fdb39573179fb61,SCN,2024-06-24_14h33.52.602,LearnStrategy,2023.2.3,MacIntel,60.0240096,3,1,6,0.09765625,0.252929688,1,0,0,2.2,Andesite_10,1,10,5,5,2.2,-0.127929688,-0.249023438,1,0,0,1.524,Basalt_rect,2,1.524,0,5,0,5,0,1,,,,,,,,,,,,,
6634fcc04fdb39573179fb61,SCN,2024-06-24_14h33.52.602,LearnStrategy,2023.2.3,MacIntel,60.0240096,3,1,7,0.21484375,0.356445313,1,0,0,2.881,Peridotite_12,7,12,6,6,2.881,-0.370117188,-0.262695313,1,0,0,1.954,Andesite_rect,1,1.954,0,6,0,6,0,1,,,,,,,,,,,,,
6634fcc04fdb39573179fb61,SCN,2024-06-24_14h33.52.602,LearnStrategy,2023.2.3,MacIntel,60.0240096,3,1,8,0.584960938,0.399414063,1,0,0,2.348,Peridotite_15,7,15,6,8,2.348,-0.081054688,-0.383789063,1,0,0,1.599,Pegmatite_rect,6,1.599,0,7,0,7,0,1,,,,,,,,,,,,,
6634fcc04fdb39573179fb61,SCN,2024-06-24_14h33.52.602,LearnStrategy,2023.2.3,MacIntel,60.0240096,3,1,9,-0.198242188,-0.266601563,1,0,0,1.313,Gabbro_08,4,08,2,3,1.313,-0.170898438,-0.260742188,1,0,0,1.133,Basalt_rect,2,1.133,0,8,0,8,0,1,,,,,,,,,,,,,
6634fcc04fdb39573179fb61,SCN,2024-06-24_14h33.52.602,LearnStrategy,2023.2.3,MacIntel,60.0240096,3,1,10,0.586914063,-0.094726563,1,0,0,1.848,Andesite_05,1,05,3,8,1.848,0.422851563,-0.243164063,1,0,0,0.921,Gabbro_rect,4,0.921,0,9,0,9,0,1,,,,,,,,,,,,,
6634fcc04fdb39573179fb61,SCN,2024-06-24_14h33.52.602,LearnStrategy,2023.2.3,MacIntel,60.0240096,3,1,11,-0.415039063,0.079101563,1,0,0,1.222,Gabbro_05,4,05,4,2,1.222,-0.380859375,-0.247070313,1,0,0,1.49,Andesite_rect,1,1.49,0,10,0,10,0,1,,,,,,,,,,,,,
6634fcc04fdb39573179fb61,SCN,2024-06-24_14h33.52.602,LearnStrategy,2023.2.3,MacIntel,60.0240096,3,1,12,0.514648438,-0.060546875,1,0,0,15.165,Andesite_05,1,05,3,8,15.165,0.405273438,-0.236328125,1,0,0,1.164,Gabbro_rect,4,1.164,0,11,0,11,0,1,,,,,,,,,,,,,
6634fcc04fdb39573179fb61,SCN,2024-06-24_14h33.52.602,LearnStrategy,2023.2.3,MacIntel,60.0240096,3,1,13,0.197265625,-0.258789063,1,0,0,2.13,Andesite_04,1,04,2,6,2.13,-0.3203125,-0.2421875,1,0,0,2.974,Andesite_rect,1,2.974,1,12,0,12,0,1,,,,,,,,,,,,,
6634fcc04fdb39573179fb61,SCN,2024-06-24_14h33.52.602,LearnStrategy,2023.2.3,MacIntel,60.0240096,3,1,14,-0.099609375,-0.080078125,1,0,0,12.113,Gabbro_12,4,12,3,4,12.113,0.127929688,-0.251953125,1,0,0,1.09,Diorite_rect,3,1.09,0,13,0,13,0,1,,,,,,,,,,,,,
6634fcc04fdb39573179fb61,SCN,2024-06-24_14h33.52.602,LearnStrategy,2023.2.3,MacIntel,60.0240096,3,1,15,0.244140625,-0.099609375,1,0,0,3.797,Pegmatite_13,6,13,3,6,3.797,-0.081054688,-0.416992188,1,0,0,2.065,Pegmatite_rect,6,2.065,1,14,0,14,0,1,,,,,,,,,,,,,
6634fcc04fdb39573179fb61,SCN,2024-06-24_14h33.52.602,LearnStrategy,2023.2.3,MacIntel,60.0240096,3,1,16,0.352539063,-0.228515625,1,0,0,1.348,Basalt_08,2,08,2,7,1.348,-0.10546875,-0.25390625,1,0,0,1.134,Basalt_rect,2,1.134,1,15,0,15,0,1,,,,,,,,,,,,,
6634fcc04fdb39573179fb61,SCN,2024-06-24_14h33.52.602,LearnStrategy,2023.2.3,MacIntel,60.0240096,3,2,1,,,,,,,,2,09,,,,,,,,,,,2,13.177,1,,,,,,-0.147460938,-0.266601563,1,0,0,13.177,Basalt_rect,0,0,0,0,1,
6634fcc04fdb39573179fb61,SCN,2024-06-24_14h33.52.602,LearnStrategy,2023.2.3,MacIntel,60.0240096,3,2,2,,,,,,,,3,16,,,,,,,,,,,6,6.685,0,,,,,,-0.106445313,-0.393554688,1,0,0,6.685,Pegmatite_rect,1,0,1,0,1,
6634fcc04fdb39573179fb61,SCN,2024-06-24_14h33.52.602,LearnStrategy,2023.2.3,MacIntel,60.0240096,3,2,3,,,,,,,,7,05,,,,,,,,,,,7,7.087,1,,,,,,0.07421875,-0.403320313,1,0,0,7.087,Peridotite_rect,2,0,2,0,1,
6634fcc04fdb39573179fb61,SCN,2024-06-24_14h33.52.602,LearnStrategy,2023.2.3,MacIntel,60.0240096,3,2,4,,,,,,,,4,11,,,,,,,,,,,1,6.879,0,,,,,,-0.333007813,-0.23828125,1,0,0,6.879,Andesite_rect,3,0,3,0,1,
6634fcc04fdb39573179fb61,SCN,2024-06-24_14h33.52.602,LearnStrategy,2023.2.3,MacIntel,60.0240096,3,2,5,,,,,,,,5,07,,,,,,,,,,,5,2.145,1,,,,,,-0.34765625,-0.391601563,1,0,0,2.145,Obsidian_rect,4,0,4,0,1,
6634fcc04fdb39573179fb61,SCN,2024-06-24_14h33.52.602,LearnStrategy,2023.2.3,MacIntel,60.0240096,3,2,6,,,,,,,,6,03,,,,,,,,,,,7,1.449,0,,,,,,0.090820313,-0.40625,1,0,0,1.449,Peridotite_rect,5,0,5,0,1,
6634fcc04fdb39573179fb61,SCN,2024-06-24_14h33.52.602,LearnStrategy,2023.2.3,MacIntel,60.0240096,3,2,7,,,,,,,,1,01,,,,,,,,,,,6,5.616,0,,,,,,-0.081054688,-0.40625,1,0,0,5.616,Pegmatite_rect,6,0,6,0,1,
6634fcc04fdb39573179fb61,SCN,2024-06-24_14h33.52.602,LearnStrategy,2023.2.3,MacIntel,60.0240096,3,2,8,,,,,,,,2,14,,,,,,,,,,,2,4.541,1,,,,,,-0.075195313,-0.23046875,1,0,0,4.541,Basalt_rect,7,0,7,0,1,
6634fcc04fdb39573179fb61,SCN,2024-06-24_14h33.52.602,LearnStrategy,2023.2.3,MacIntel,60.0240096,3,2,9,,,,,,,,3,10,,,,,,,,,,,3,3.903,1,,,,,,0.099609375,-0.265625,1,0,0,3.903,Diorite_rect,8,0,8,0,1,
6634fcc04fdb39573179fb61,SCN,2024-06-24_14h33.52.602,LearnStrategy,2023.2.3,MacIntel,60.0240096,3,2,10,,,,,,,,5,02,,,,,,,,,,,5,1.303,1,,,,,,-0.333007813,-0.38671875,1,0,0,1.303,Obsidian_rect,9,0,9,0,1,
6634fcc04fdb39573179fb61,SCN,2024-06-24_14h33.52.602,LearnStrategy,2023.2.3,MacIntel,60.0240096,3,2,11,,,,,,,,4,09,,,,,,,,,,,2,2.84,0,,,,,,-0.1484375,-0.2578125,1,0,0,2.84,Basalt_rect,10,0,10,0,1,
6634fcc04fdb39573179fb61,SCN,2024-06-24_14h33.52.602,LearnStrategy,2023.2.3,MacIntel,60.0240096,3,2,12,,,,,,,,1,07,,,,,,,,,,,6,2.817,0,,,,,,-0.1171875,-0.397460938,1,0,0,2.817,Pegmatite_rect,11,0,11,0,1,
6634fcc04fdb39573179fb61,SCN,2024-06-24_14h33.52.602,LearnStrategy,2023.2.3,MacIntel,60.0240096,3,2,13,,,,,,,,8,06,,,,,,,,,,,8,2.036,1,,,,,,0.359375,-0.397460938,1,0,0,2.036,Pumice_rect,12,0,12,0,1,
6634fcc04fdb39573179fb61,SCN,2024-06-24_14h33.52.602,LearnStrategy,2023.2.3,MacIntel,60.0240096,3,2,14,,,,,,,,8,02,,,,,,,,,,,8,1.236,1,,,,,,0.333984375,-0.40234375,1,0,0,1.236,Pumice_rect,13,0,13,0,1,
6634fcc04fdb39573179fb61,SCN,2024-06-24_14h33.52.602,LearnStrategy,2023.2.3,MacIntel,60.0240096,3,2,15,,,,,,,,7,16,,,,,,,,,,,7,2.401,1,,,,,,0.154296875,-0.40234375,1,0,0,2.401,Peridotite_rect,14,0,14,0,1,
6634fcc04fdb39573179fb61,SCN,2024-06-24_14h33.52.602,LearnStrategy,2023.2.3,MacIntel,60.0240096,3,2,16,,,,,,,,6,16,,,,,,,,,,,6,2.091,1,,,,,,-0.094726563,-0.396484375,1,0,0,2.091,Pegmatite_rect,15,0,15,0,1,
6634fcc04fdb39573179fb61,SCN,2024-06-24_14h33.52.602,LearnStrategy,2023.2.3,MacIntel,60.0240096,4,1,1,0.073242188,-0.40625,1,0,0,2.033,Pegmatite_07,6,07,1,5,2.033,0.081054688,-0.409179688,1,0,0,1.346,Peridotite_rect,7,1.346,0,0,0,0,0,1,,,,,,,,,,,,,
6634fcc04fdb39573179fb61,SCN,2024-06-24_14h33.52.602,LearnStrategy,2023.2.3,MacIntel,60.0240096,4,1,2,-0.588867188,-0.408203125,1,0,0,1.682,Peridotite_06,7,06,1,1,1.682,0.069335938,-0.416992188,1,0,0,1.9,Peridotite_rect,7,1.9,1,1,0,1,0,1,,,,,,,,,,,,,
6634fcc04fdb39573179fb61,SCN,2024-06-24_14h33.52.602,LearnStrategy,2023.2.3,MacIntel,60.0240096,4,1,3,-0.51953125,-0.10546875,1,0,0,1.561,Peridotite_13,7,13,3,1,1.561,0.138671875,-0.404296875,1,0,0,1.324,Peridotite_rect,7,1.324,1,2,0,2,0,1,,,,,,,,,,,,,
6634fcc04fdb39573179fb61,SCN,2024-06-24_14h33.52.602,LearnStrategy,2023.2.3,MacIntel,60.0240096,4,1,4,0.067382813,0.208007813,1,0,0,3.448,Andesite_10,1,10,5,5,3.448,-0.377929688,-0.25,1,0,0,1.169,Andesite_rect,1,1.169,1,3,0,3,0,1,,,,,,,,,,,,,
6634fcc04fdb39573179fb61,SCN,2024-06-24_14h33.52.602,LearnStrategy,2023.2.3,MacIntel,60.0240096,4,1,5,0.403320313,0.078125,1,0,0,2.931,Diorite_09,3,09,4,7,2.931,0.39453125,-0.23828125,1,0,0,0.918,Gabbro_rect,4,0.918,0,4,0,4,0,1,,,,,,,,,,,,,
6634fcc04fdb39573179fb61,SCN,2024-06-24_14h33.52.602,LearnStrategy,2023.2.3,MacIntel,60.0240096,4,1,6,0.40625,0.423828125,1,0,0,2.382,Diorite_07,3,07,6,7,2.382,0.081054688,-0.25390625,1,0,0,1.074,Diorite_rect,3,1.074,1,5,0,5,0,1,,,,,,,,,,,,,
6634fcc04fdb39573179fb61,SCN,2024-06-24_14h33.52.602,LearnStrategy,2023.2.3,MacIntel,60.0240096,4,1,7,0.36328125,-0.25,1,0,0,2.45,Basalt_08,2,08,2,7,2.45,-0.094726563,-0.237304688,1,0,0,1.069,Basalt_rect,2,1.069,1,6,0,6,0,1,,,,,,,,,,,,,
6634fcc04fdb39573179fb61,SCN,2024-06-24_14h33.52.602,LearnStrategy,2023.2.3,MacIntel,60.0240096,4,1,8,-0.227539063,-0.077148438,1,0,0,1.832,Peridotite_07,7,07,3,3,1.832,0.37890625,-0.249023438,1,0,0,5.171,Gabbro_rect,4,5.171,0,7,0,7,0,1,,,,,,,,,,,,,
6634fcc04fdb39573179fb61,SCN,2024-06-24_14h33.52.602,LearnStrategy,2023.2.3,MacIntel,60.0240096,4,1,9,-0.53125,0.379882813,1,0,0,3.382,Basalt_10,2,10,6,1,3.382,-0.141601563,-0.259765625,1,0,0,1.983,Basalt_rect,2,1.983,1,8,0,8,0,1,,,,,,,,,,,,,
6634fcc04fdb39573179fb61,SCN,2024-06-24_14h33.52.602,LearnStrategy,2023.2.3,MacIntel,60.0240096,4,1,10,-0.33984375,0.375,1,0,0,0.914,Pegmatite_12,6,12,6,2,0.914,0.392578125,-0.229492188,1,0,0,2.243,Gabbro_rect,4,2.243,0,9,0,9,0,1,,,,,,,,,,,,,
6634fcc04fdb39573179fb61,SCN,2024-06-24_14h33.52.602,LearnStrategy,2023.2.3,MacIntel,60.0240096,4,1,11,-0.063476563,0.405273438,1,0,0,1.68,Gabbro_14,4,14,6,4,1.68,0.447265625,-0.256835938,1,0,0,5.526,Gabbro_rect,4,5.526,1,10,0,10,0,1,,,,,,,,,,,,,
6634fcc04fdb39573179fb61,SCN,2024-06-24_14h33.52.602,LearnStrategy,2023.2.3,MacIntel,60.0240096,4,1,12,0.517578125,-0.124023438,1,0,0,2.998,Andesite_05,1,05,3,8,2.998,0.421875,-0.249023438,1,0,0,1.105,Gabbro_rect,4,1.105,0,11,0,11,0,1,,,,,,,,,,,,,
6634fcc04fdb39573179fb61,SCN,2024-06-24_14h33.52.602,LearnStrategy,2023.2.3,MacIntel,60.0240096,4,1,13,0.2265625,-0.392578125,1,0,0,1.698,Diorite_08,3,08,1,6,1.698,0.349609375,-0.262695313,1,0,0,0.761,Gabbro_rect,4,0.761,0,12,0,12,0,1,,,,,,,,,,,,,
6634fcc04fdb39573179fb61,SCN,2024-06-24_14h33.52.602,LearnStrategy,2023.2.3,MacIntel,60.0240096,4,1,14,0.513671875,0.237304688,1,0,0,4.362,Andesite_03,1,03,5,8,4.362,0.385742188,-0.231445313,1,0,0,1.61,Gabbro_rect,4,1.61,0,13,0,13,0,1,,,,,,,,,,,,,
6634fcc04fdb39573179fb61,SCN,2024-06-24_14h33.52.602,LearnStrategy,2023.2.3,MacIntel,60.0240096,4,1,15,-0.2265625,-0.251953125,1,0,0,3.979,Gabbro_08,4,08,2,3,3.979,0.3125,-0.26171875,1,0,0,1.803,Gabbro_rect,4,1.803,1,14,0,14,0,1,,,,,,,,,,,,,
6634fcc04fdb39573179fb61,SCN,2024-06-24_14h33.52.602,LearnStrategy,2023.2.3,MacIntel,60.0240096,4,1,16,-0.2265625,0.245117188,1,0,0,3.63,Diorite_15,3,15,5,3,3.63,0.122070313,-0.243164063,1,0,0,2.067,Diorite_rect,3,2.067,1,15,0,15,0,1,,,,,,,,,,,,,
6634fcc04fdb39573179fb61,SCN,2024-06-24_14h33.52.602,LearnStrategy,2023.2.3,MacIntel,60.0240096,4,2,1,,,,,,,,8,02,,,,,,,,,,,8,1.832,1,,,,,,0.438476563,-0.409179688,1,0,0,1.832,Pumice_rect,0,0,0,0,1,
6634fcc04fdb39573179fb61,SCN,2024-06-24_14h33.52.602,LearnStrategy,2023.2.3,MacIntel,60.0240096,4,2,2,,,,,,,,5,08,,,,,,,,,,,5,1.417,1,,,,,,-0.376953125,-0.389648438,1,0,0,1.417,Obsidian_rect,1,0,1,0,1,
6634fcc04fdb39573179fb61,SCN,2024-06-24_14h33.52.602,LearnStrategy,2023.2.3,MacIntel,60.0240096,4,2,3,,,,,,,,3,10,,,,,,,,,,,4,7.6,0,,,,,,0.365234375,-0.251953125,1,0,0,7.6,Gabbro_rect,2,0,2,0,1,
6634fcc04fdb39573179fb61,SCN,2024-06-24_14h33.52.602,LearnStrategy,2023.2.3,MacIntel,60.0240096,4,2,4,,,,,,,,4,16,,,,,,,,,,,2,1.729,0,,,,,,-0.048828125,-0.262695313,1,0,0,1.729,Basalt_rect,3,0,3,0,1,
6634fcc04fdb39573179fb61,SCN,2024-06-24_14h33.52.602,LearnStrategy,2023.2.3,MacIntel,60.0240096,4,2,5,,,,,,,,6,06,,,,,,,,,,,6,2.919,1,,,,,,-0.09765625,-0.412109375,1,0,0,2.919,Pegmatite_rect,4,0,4,0,1,
6634fcc04fdb39573179fb61,SCN,2024-06-24_14h33.52.602,LearnStrategy,2023.2.3,MacIntel,60.0240096,4,2,6,,,,,,,,4,11,,,,,,,,,,,1,3.654,0,,,,,,-0.322265625,-0.236328125,1,0,0,3.654,Andesite_rect,5,0,5,0,1,
6634fcc04fdb39573179fb61,SCN,2024-06-24_14h33.52.602,LearnStrategy,2023.2.3,MacIntel,60.0240096,4,2,7,,,,,,,,6,16,,,,,,,,,,,6,2.786,1,,,,,,-0.057617188,-0.419921875,1,0,0,2.786,Pegmatite_rect,6,0,6,0,1,
6634fcc04fdb39573179fb61,SCN,2024-06-24_14h33.52.602,LearnStrategy,2023.2.3,MacIntel,60.0240096,4,2,8,,,,,,,,3,06,,,,,,,,,,,4,6.042,0,,,,,,0.370117188,-0.251953125,1,0,0,6.042,Gabbro_rect,7,0,7,0,1,
6634fcc04fdb39573179fb61,SCN,2024-06-24_14h33.52.602,LearnStrategy,2023.2.3,MacIntel,60.0240096,4,2,9,,,,,,,,7,10,,,,,,,,,,,7,1.403,1,,,,,,0.129882813,-0.4140625,1,0,0,1.403,Peridotite_rect,8,0,8,0,1,
6634fcc04fdb39573179fb61,SCN,2024-06-24_14h33.52.602,LearnStrategy,2023.2.3,MacIntel,60.0240096,4,2,10,,,,,,,,1,02,,,,,,,,,,,3,1.883,0,,,,,,0.170898438,-0.259765625,1,0,0,1.883,Diorite_rect,9,0,9,0,1,
6634fcc04fdb39573179fb61,SCN,2024-06-24_14h33.52.602,LearnStrategy,2023.2.3,MacIntel,60.0240096,4,2,11,,,,,,,,2,02,,,,,,,,,,,2,3.53,1,,,,,,-0.071289063,-0.250976563,1,0,0,3.53,Basalt_rect,10,0,10,0,1,
6634fcc04fdb39573179fb61,SCN,2024-06-24_14h33.52.602,LearnStrategy,2023.2.3,MacIntel,60.0240096,4,2,12,,,,,,,,8,15,,,,,,,,,,,8,1.404,1,,,,,,0.4296875,-0.415039063,1,0,0,1.404,Pumice_rect,11,0,11,0,1,
6634fcc04fdb39573179fb61,SCN,2024-06-24_14h33.52.602,LearnStrategy,2023.2.3,MacIntel,60.0240096,4,2,13,,,,,,,,2,09,,,,,,,,,,,2,2.39,1,,,,,,-0.08984375,-0.259765625,1,0,0,2.39,Basalt_rect,12,0,12,0,1,
6634fcc04fdb39573179fb61,SCN,2024-06-24_14h33.52.602,LearnStrategy,2023.2.3,MacIntel,60.0240096,4,2,14,,,,,,,,5,06,,,,,,,,,,,5,1.239,1,,,,,,-0.370117188,-0.392578125,1,0,0,1.239,Obsidian_rect,13,0,13,0,1,
6634fcc04fdb39573179fb61,SCN,2024-06-24_14h33.52.602,LearnStrategy,2023.2.3,MacIntel,60.0240096,4,2,15,,,,,,,,7,02,,,,,,,,,,,7,1.924,1,,,,,,0.088867188,-0.405273438,1,0,0,1.924,Peridotite_rect,14,0,14,0,1,
6634fcc04fdb39573179fb61,SCN,2024-06-24_14h33.52.602,LearnStrategy,2023.2.3,MacIntel,60.0240096,4,2,16,,,,,,,,1,09,,,,,,,,,,,1,2.576,1,,,,,,-0.330078125,-0.25390625,1,0,0,2.576,Andesite_rect,15,0,15,0,1,
6634fcc04fdb39573179fb61,SCN,2024-06-24_14h33.52.602,LearnStrategy,2023.2.3,MacIntel,60.0240096,5,1,1,0.583007813,-0.084960938,1,0,0,1.896,Andesite_05,1,05,3,8,1.896,-0.327148438,-0.2421875,1,0,0,5.875,Andesite_rect,1,5.875,1,0,0,0,0,1,,,,,,,,,,,,,
6634fcc04fdb39573179fb61,SCN,2024-06-24_14h33.52.602,LearnStrategy,2023.2.3,MacIntel,60.0240096,5,1,2,-0.041992188,0.073242188,1,0,0,2.096,Diorite_02,3,02,4,4,2.096,-0.111328125,-0.390625,1,0,0,3.596,Pegmatite_rect,6,3.596,0,1,0,1,0,1,,,,,,,,,,,,,
6634fcc04fdb39573179fb61,SCN,2024-06-24_14h33.52.602,LearnStrategy,2023.2.3,MacIntel,60.0240096,5,1,3,0.10546875,0.22265625,1,0,0,1.815,Andesite_10,1,10,5,5,1.815,-0.349609375,-0.245117188,1,0,0,3.942,Andesite_rect,1,3.942,1,2,0,2,0,1,,,,,,,,,,,,,
6634fcc04fdb39573179fb61,SCN,2024-06-24_14h33.52.602,LearnStrategy,2023.2.3,MacIntel,60.0240096,5,1,4,-0.432617188,-0.408203125,1,0,0,1.832,Andesite_06,1,06,1,2,1.832,0.360351563,-0.25390625,1,0,0,2.075,Gabbro_rect,4,2.075,0,3,0,3,0,1,,,,,,,,,,,,,
6634fcc04fdb39573179fb61,SCN,2024-06-24_14h33.52.602,LearnStrategy,2023.2.3,MacIntel,60.0240096,5,1,5,0.2265625,-0.087890625,1,0,0,1.363,Pegmatite_13,6,13,3,6,1.363,-0.098632813,-0.383789063,1,0,0,1.3,Pegmatite_rect,6,1.3,1,4,0,4,0,1,,,,,,,,,,,,,
6634fcc04fdb39573179fb61,SCN,2024-06-24_14h33.52.602,LearnStrategy,2023.2.3,MacIntel,60.0240096,5,1,6,0.059570313,0.081054688,1,0,0,1.199,Basalt_16,2,16,4,5,1.199,-0.104492188,-0.236328125,1,0,0,1.714,Basalt_rect,2,1.714,1,5,0,5,0,1,,,,,,,,,,,,,
6634fcc04fdb39573179fb61,SCN,2024-06-24_14h33.52.602,LearnStrategy,2023.2.3,MacIntel,60.0240096,5,1,7,0.078125,-0.393554688,1,0,0,1.81,Pegmatite_07,6,07,1,5,1.81,0.076171875,-0.393554688,1,0,0,0.828,Peridotite_rect,7,0.828,0,6,0,6,0,1,,,,,,,,,,,,,
6634fcc04fdb39573179fb61,SCN,2024-06-24_14h33.52.602,LearnStrategy,2023.2.3,MacIntel,60.0240096,5,1,8,0.396484375,-0.09375,1,0,0,0.946,Basalt_01,2,01,3,7,0.946,-0.178710938,-0.255859375,1,0,0,3.248,Basalt_rect,2,3.248,1,7,0,7,0,1,,,,,,,,,,,,,
6634fcc04fdb39573179fb61,SCN,2024-06-24_14h33.52.602,LearnStrategy,2023.2.3,MacIntel,60.0240096,5,1,9,0.52734375,0.248046875,1,0,0,1.763,Andesite_03,1,03,5,8,1.763,-0.350585938,-0.248046875,1,0,0,3.828,Andesite_rect,1,3.828,1,8,0,8,0,1,,,,,,,,,,,,,
6634fcc04fdb39573179fb61,SCN,2024-06-24_14h33.52.602,LearnStrategy,2023.2.3,MacIntel,60.0240096,5,1,10,0.37109375,0.395507813,1,0,0,1.763,Diorite_07,3,07,6,7,1.763,0.412109375,-0.244140625,1,0,0,1.157,Gabbro_rect,4,1.157,0,9,0,9,0,1,,,,,,,,,,,,,
6634fcc04fdb39573179fb61,SCN,2024-06-24_14h33.52.602,LearnStrategy,2023.2.3,MacIntel,60.0240096,5,1,11,0.22265625,0.069335938,1,0,0,1.498,Obsidian_05,5,05,4,6,1.498,-0.41796875,-0.397460938,1,0,0,1.418,Obsidian_rect,5,1.418,1,10,0,10,0,1,,,,,,,,,,,,,
6634fcc04fdb39573179fb61,SCN,2024-06-24_14h33.52.602,LearnStrategy,2023.2.3,MacIntel,60.0240096,5,1,12,0.540039063,-0.42578125,1,0,0,1.894,Gabbro_10,4,10,1,8,1.894,-0.342773438,-0.250976563,1,0,0,4.801,Andesite_rect,1,4.801,0,11,0,11,0,1,,,,,,,,,,,,,
6634fcc04fdb39573179fb61,SCN,2024-06-24_14h33.52.602,LearnStrategy,2023.2.3,MacIntel,60.0240096,5,1,13,0.224609375,-0.418945313,1,0,0,2.431,Diorite_08,3,08,1,6,2.431,0.3671875,-0.254882813,1,0,0,1.1,Gabbro_rect,4,1.1,0,12,0,12,0,1,,,,,,,,,,,,,
6634fcc04fdb39573179fb61,SCN,2024-06-24_14h33.52.602,LearnStrategy,2023.2.3,MacIntel,60.0240096,5,1,14,-0.390625,0.415039063,1,0,0,3.997,Pegmatite_12,6,12,6,2,3.997,0.409179688,-0.243164063,1,0,0,2.072,Gabbro_rect,4,2.072,0,13,0,13,0,1,,,,,,,,,,,,,
6634fcc04fdb39573179fb61,SCN,2024-06-24_14h33.52.602,LearnStrategy,2023.2.3,MacIntel,60.0240096,5,1,15,-0.526367188,-0.249023438,1,0,0,1.247,Pegmatite_05,6,05,2,1,1.247,-0.146484375,-0.400390625,1,0,0,1.793,Pegmatite_rect,6,1.793,1,14,0,14,0,1,,,,,,,,,,,,,
6634fcc04fdb39573179fb61,SCN,2024-06-24_14h33.52.602,LearnStrategy,2023.2.3,MacIntel,60.0240096,5,1,16,-0.5390625,-0.396484375,1,0,0,1.165,Peridotite_06,7,06,1,1,1.165,0.09765625,-0.4140625,1,0,0,2.883,Peridotite_rect,7,2.883,1,15,0,15,0,1,,,,,,,,,,,,,
6634fcc04fdb39573179fb61,SCN,2024-06-24_14h33.52.602,LearnStrategy,2023.2.3,MacIntel,60.0240096,5,2,1,,,,,,,,7,08,,,,,,,,,,,7,6.49,1,,,,,,0.0703125,-0.39453125,1,0,0,6.49,Peridotite_rect,0,0,0,0,1,
6634fcc04fdb39573179fb61,SCN,2024-06-24_14h33.52.602,LearnStrategy,2023.2.3,MacIntel,60.0240096,5,2,2,,,,,,,,4,03,,,,,,,,,,,4,4.614,1,,,,,,0.348632813,-0.245117188,1,0,0,4.614,Gabbro_rect,1,0,1,0,1,
6634fcc04fdb39573179fb61,SCN,2024-06-24_14h33.52.602,LearnStrategy,2023.2.3,MacIntel,60.0240096,5,2,3,,,,,,,,3,16,,,,,,,,,,,4,1.523,0,,,,,,0.365234375,-0.252929688,1,0,0,1.523,Gabbro_rect,2,0,2,0,1,
6634fcc04fdb39573179fb61,SCN,2024-06-24_14h33.52.602,LearnStrategy,2023.2.3,MacIntel,60.0240096,5,2,4,,,,,,,,8,08,,,,,,,,,,,8,6.086,1,,,,,,0.34765625,-0.412109375,1,0,0,6.086,Pumice_rect,3,0,3,0,1,
6634fcc04fdb39573179fb61,SCN,2024-06-24_14h33.52.602,LearnStrategy,2023.2.3,MacIntel,60.0240096,5,2,5,,,,,,,,5,02,,,,,,,,,,,5,1.221,1,,,,,,-0.35546875,-0.395507813,1,0,0,1.221,Obsidian_rect,4,0,4,0,1,
6634fcc04fdb39573179fb61,SCN,2024-06-24_14h33.52.602,LearnStrategy,2023.2.3,MacIntel,60.0240096,5,2,6,,,,,,,,2,06,,,,,,,,,,,2,2.071,1,,,,,,-0.09375,-0.240234375,1,0,0,2.071,Basalt_rect,5,0,5,0,1,
6634fcc04fdb39573179fb61,SCN,2024-06-24_14h33.52.602,LearnStrategy,2023.2.3,MacIntel,60.0240096,5,2,7,,,,,,,,1,07,,,,,,,,,,,3,2.81,0,,,,,,0.122070313,-0.245117188,1,0,0,2.81,Diorite_rect,6,0,6,0,1,
6634fcc04fdb39573179fb61,SCN,2024-06-24_14h33.52.602,LearnStrategy,2023.2.3,MacIntel,60.0240096,5,2,8,,,,,,,,2,11,,,,,,,,,,,2,2.644,1,,,,,,-0.076171875,-0.248046875,1,0,0,2.644,Basalt_rect,7,0,7,0,1,
6634fcc04fdb39573179fb61,SCN,2024-06-24_14h33.52.602,LearnStrategy,2023.2.3,MacIntel,60.0240096,5,2,9,,,,,,,,4,09,,,,,,,,,,,2,3.647,0,,,,,,-0.086914063,-0.258789063,1,0,0,3.647,Basalt_rect,8,0,8,0,1,
6634fcc04fdb39573179fb61,SCN,2024-06-24_14h33.52.602,LearnStrategy,2023.2.3,MacIntel,60.0240096,5,2,10,,,,,,,,1,01,,,,,,,,,,,3,3.606,0,,,,,,0.151367188,-0.264648438,1,0,0,3.606,Diorite_rect,9,0,9,0,1,
6634fcc04fdb39573179fb61,SCN,2024-06-24_14h33.52.602,LearnStrategy,2023.2.3,MacIntel,60.0240096,5,2,11,,,,,,,,7,05,,,,,,,,,,,1,2.165,0,,,,,,-0.311523438,-0.263671875,1,0,0,2.165,Andesite_rect,10,0,10,0,1,
6634fcc04fdb39573179fb61,SCN,2024-06-24_14h33.52.602,LearnStrategy,2023.2.3,MacIntel,60.0240096,5,2,12,,,,,,,,6,11,,,,,,,,,,,6,3.816,1,,,,,,-0.12109375,-0.395507813,1,0,0,3.816,Pegmatite_rect,11,0,11,0,1,
6634fcc04fdb39573179fb61,SCN,2024-06-24_14h33.52.602,LearnStrategy,2023.2.3,MacIntel,60.0240096,5,2,13,,,,,,,,8,03,,,,,,,,,,,8,1.727,1,,,,,,0.40625,-0.404296875,1,0,0,1.727,Pumice_rect,12,0,12,0,1,
6634fcc04fdb39573179fb61,SCN,2024-06-24_14h33.52.602,LearnStrategy,2023.2.3,MacIntel,60.0240096,5,2,14,,,,,,,,5,16,,,,,,,,,,,5,1.27,1,,,,,,-0.4140625,-0.393554688,1,0,0,1.27,Obsidian_rect,13,0,13,0,1,
6634fcc04fdb39573179fb61,SCN,2024-06-24_14h33.52.602,LearnStrategy,2023.2.3,MacIntel,60.0240096,5,2,15,,,,,,,,3,13,,,,,,,,,,,4,7.142,0,,,,,,0.416992188,-0.250976563,1,0,0,7.142,Gabbro_rect,14,0,14,0,1,
6634fcc04fdb39573179fb61,SCN,2024-06-24_14h33.52.602,LearnStrategy,2023.2.3,MacIntel,60.0240096,5,2,16,,,,,,,,6,09,,,,,,,,,,,6,2.133,1,,,,,,-0.116210938,-0.393554688,1,0,0,2.133,Pegmatite_rect,15,0,15,0,1,
6634fcc04fdb39573179fb61,SCN,2024-06-24_14h33.52.602,LearnStrategy,2023.2.3,MacIntel,60.0240096,6,1,1,0.275390625,-0.075195313,1,0,0,3.194,Pegmatite_13,6,13,3,6,3.194,-0.09765625,-0.408203125,1,0,0,1.533,Pegmatite_rect,6,1.533,1,0,0,0,0,1,,,,,,,,,,,,,
6634fcc04fdb39573179fb61,SCN,2024-06-24_14h33.52.602,LearnStrategy,2023.2.3,MacIntel,60.0240096,6,1,2,0.047851563,0.416992188,1,0,0,1.316,Pegmatite_10,6,10,6,5,1.316,-0.086914063,-0.409179688,1,0,0,1.275,Pegmatite_rect,6,1.275,1,1,0,1,0,1,,,,,,,,,,,,,
6634fcc04fdb39573179fb61,SCN,2024-06-24_14h33.52.602,LearnStrategy,2023.2.3,MacIntel,60.0240096,6,1,3,0.215820313,0.384765625,1,0,0,1.1,Peridotite_12,7,12,6,6,1.1,0.38671875,-0.256835938,1,0,0,3.145,Gabbro_rect,4,3.145,0,2,0,2,0,1,,,,,,,,,,,,,
6634fcc04fdb39573179fb61,SCN,2024-06-24_14h33.52.602,LearnStrategy,2023.2.3,MacIntel,60.0240096,6,1,4,0.40625,0.404296875,1,0,0,2.766,Diorite_07,3,07,6,7,2.766,0.385742188,-0.248046875,1,0,0,1.25,Gabbro_rect,4,1.25,0,3,0,3,0,1,,,,,,,,,,,,,
6634fcc04fdb39573179fb61,SCN,2024-06-24_14h33.52.602,LearnStrategy,2023.2.3,MacIntel,60.0240096,6,1,5,0.55078125,0.405273438,1,0,0,1.011,Peridotite_15,7,15,6,8,1.011,0.104492188,-0.404296875,1,0,0,1.497,Peridotite_rect,7,1.497,1,4,0,4,0,1,,,,,,,,,,,,,
6634fcc04fdb39573179fb61,SCN,2024-06-24_14h33.52.602,LearnStrategy,2023.2.3,MacIntel,60.0240096,6,1,6,-0.537109375,0.256835938,1,0,0,0.931,Basalt_04,2,04,5,1,0.931,-0.14453125,-0.25,1,0,0,1.403,Basalt_rect,2,1.403,1,5,0,5,0,1,,,,,,,,,,,,,
6634fcc04fdb39573179fb61,SCN,2024-06-24_14h33.52.602,LearnStrategy,2023.2.3,MacIntel,60.0240096,6,1,7,-0.372070313,0.255859375,1,0,0,0.913,Pumice_16,8,16,5,2,0.913,-0.166015625,-0.26171875,1,0,0,3.161,Basalt_rect,2,3.161,0,6,0,6,0,1,,,,,,,,,,,,,
6634fcc04fdb39573179fb61,SCN,2024-06-24_14h33.52.602,LearnStrategy,2023.2.3,MacIntel,60.0240096,6,1,8,-0.21484375,0.243164063,1,0,0,0.798,Diorite_15,3,15,5,3,0.798,0.170898438,-0.249023438,1,0,0,3.166,Diorite_rect,3,3.166,1,7,0,7,0,1,,,,,,,,,,,,,
6634fcc04fdb39573179fb61,SCN,2024-06-24_14h33.52.602,LearnStrategy,2023.2.3,MacIntel,60.0240096,6,1,9,0.111328125,0.22265625,1,0,0,1.048,Andesite_10,1,10,5,5,1.048,-0.39453125,-0.244140625,1,0,0,1.643,Andesite_rect,1,1.643,1,8,0,8,0,1,,,,,,,,,,,,,
6634fcc04fdb39573179fb61,SCN,2024-06-24_14h33.52.602,LearnStrategy,2023.2.3,MacIntel,60.0240096,6,1,10,0.234375,0.2421875,1,0,0,0.898,Obsidian_10,5,10,5,6,0.898,-0.3671875,-0.393554688,1,0,0,1.44,Obsidian_rect,5,1.44,1,9,0,9,0,1,,,,,,,,,,,,,
6634fcc04fdb39573179fb61,SCN,2024-06-24_14h33.52.602,LearnStrategy,2023.2.3,MacIntel,60.0240096,6,1,11,0.434570313,0.259765625,1,0,0,0.849,Obsidian_09,5,09,5,7,0.849,-0.390625,-0.400390625,1,0,0,1.003,Obsidian_rect,5,1.003,1,10,0,10,0,1,,,,,,,,,,,,,
6634fcc04fdb39573179fb61,SCN,2024-06-24_14h33.52.602,LearnStrategy,2023.2.3,MacIntel,60.0240096,6,1,12,0.529296875,0.240234375,1,0,0,0.894,Andesite_03,1,03,5,8,0.894,-0.375976563,-0.240234375,1,0,0,1.654,Andesite_rect,1,1.654,1,11,0,11,0,1,,,,,,,,,,,,,
6634fcc04fdb39573179fb61,SCN,2024-06-24_14h33.52.602,LearnStrategy,2023.2.3,MacIntel,60.0240096,6,1,13,-0.541992188,0.081054688,1,0,0,1.096,Pumice_14,8,14,4,1,1.096,0.396484375,-0.400390625,1,0,0,1.091,Pumice_rect,8,1.091,1,12,0,12,0,1,,,,,,,,,,,,,
6634fcc04fdb39573179fb61,SCN,2024-06-24_14h33.52.602,LearnStrategy,2023.2.3,MacIntel,60.0240096,6,1,14,-0.392578125,0.108398438,1,0,0,0.98,Gabbro_05,4,05,4,2,0.98,-0.150390625,-0.404296875,1,0,0,5.355,Pegmatite_rect,6,5.355,0,13,0,13,0,1,,,,,,,,,,,,,
6634fcc04fdb39573179fb61,SCN,2024-06-24_14h33.52.602,LearnStrategy,2023.2.3,MacIntel,60.0240096,6,1,15,-0.237304688,0.134765625,1,0,0,1.598,Andesite_11,1,11,4,3,1.598,-0.325195313,-0.239257813,1,0,0,2.335,Andesite_rect,1,2.335,1,14,0,14,0,1,,,,,,,,,,,,,
6634fcc04fdb39573179fb61,SCN,2024-06-24_14h33.52.602,LearnStrategy,2023.2.3,MacIntel,60.0240096,6,1,16,-0.1171875,0.08203125,1,0,0,0.83,Diorite_02,3,02,4,4,0.83,0.345703125,-0.247070313,1,0,0,2.68,Gabbro_rect,4,2.68,0,15,0,15,0,1,,,,,,,,,,,,,
6634fcc04fdb39573179fb61,SCN,2024-06-24_14h33.52.602,LearnStrategy,2023.2.3,MacIntel,60.0240096,6,2,1,,,,,,,,7,16,,,,,,,,,,,7,2.606,1,,,,,,0.138671875,-0.41796875,1,0,0,2.606,Peridotite_rect,0,0,0,0,1,
6634fcc04fdb39573179fb61,SCN,2024-06-24_14h33.52.602,LearnStrategy,2023.2.3,MacIntel,60.0240096,6,2,2,,,,,,,,1,14,,,,,,,,,,,3,5.085,0,,,,,,0.146484375,-0.252929688,1,0,0,5.085,Diorite_rect,1,0,1,0,1,
6634fcc04fdb39573179fb61,SCN,2024-06-24_14h33.52.602,LearnStrategy,2023.2.3,MacIntel,60.0240096,6,2,3,,,,,,,,4,13,,,,,,,,,,,6,3.675,0,,,,,,-0.109375,-0.403320313,1,0,0,3.675,Pegmatite_rect,2,0,2,0,1,
6634fcc04fdb39573179fb61,SCN,2024-06-24_14h33.52.602,LearnStrategy,2023.2.3,MacIntel,60.0240096,6,2,4,,,,,,,,5,14,,,,,,,,,,,5,1.292,1,,,,,,-0.341796875,-0.392578125,1,0,0,1.292,Obsidian_rect,3,0,3,0,1,
6634fcc04fdb39573179fb61,SCN,2024-06-24_14h33.52.602,LearnStrategy,2023.2.3,MacIntel,60.0240096,6,2,5,,,,,,,,1,16,,,,,,,,,,,4,4.99,0,,,,,,0.370117188,-0.256835938,1,0,0,4.99,Gabbro_rect,4,0,4,0,1,
6634fcc04fdb39573179fb61,SCN,2024-06-24_14h33.52.602,LearnStrategy,2023.2.3,MacIntel,60.0240096,6,2,6,,,,,,,,2,12,,,,,,,,,,,8,1.568,0,,,,,,0.37890625,-0.392578125,1,0,0,1.568,Pumice_rect,5,0,5,0,1,
6634fcc04fdb39573179fb61,SCN,2024-06-24_14h33.52.602,LearnStrategy,2023.2.3,MacIntel,60.0240096,6,2,7,,,,,,,,6,03,,,,,,,,,,,6,2.88,1,,,,,,-0.064453125,-0.40625,1,0,0,2.88,Pegmatite_rect,6,0,6,0,1,
6634fcc04fdb39573179fb61,SCN,2024-06-24_14h33.52.602,LearnStrategy,2023.2.3,MacIntel,60.0240096,6,2,8,,,,,,,,5,07,,,,,,,,,,,5,1.841,1,,,,,,-0.35546875,-0.404296875,1,0,0,1.841,Obsidian_rect,7,0,7,0,1,
6634fcc04fdb39573179fb61,SCN,2024-06-24_14h33.52.602,LearnStrategy,2023.2.3,MacIntel,60.0240096,6,2,9,,,,,,,,8,09,,,,,,,,,,,8,1.714,1,,,,,,0.34375,-0.40625,1,0,0,1.714,Pumice_rect,8,0,8,0,1,
6634fcc04fdb39573179fb61,SCN,2024-06-24_14h33.52.602,LearnStrategy,2023.2.3,MacIntel,60.0240096,6,2,10,,,,,,,,2,14,,,,,,,,,,,2,1.32,1,,,,,,-0.086914063,-0.25390625,1,0,0,1.32,Basalt_rect,9,0,9,0,1,
6634fcc04fdb39573179fb61,SCN,2024-06-24_14h33.52.602,LearnStrategy,2023.2.3,MacIntel,60.0240096,6,2,11,,,,,,,,3,11,,,,,,,,,,,3,2.509,1,,,,,,0.176757813,-0.244140625,1,0,0,2.509,Diorite_rect,10,0,10,0,1,
6634fcc04fdb39573179fb61,SCN,2024-06-24_14h33.52.602,LearnStrategy,2023.2.3,MacIntel,60.0240096,6,2,12,,,,,,,,3,12,,,,,,,,,,,3,2.165,1,,,,,,0.166992188,-0.248046875,1,0,0,2.165,Diorite_rect,11,0,11,0,1,
6634fcc04fdb39573179fb61,SCN,2024-06-24_14h33.52.602,LearnStrategy,2023.2.3,MacIntel,60.0240096,6,2,13,,,,,,,,6,15,,,,,,,,,,,6,1.253,1,,,,,,-0.172851563,-0.396484375,1,0,0,1.253,Pegmatite_rect,12,0,12,0,1,
6634fcc04fdb39573179fb61,SCN,2024-06-24_14h33.52.602,LearnStrategy,2023.2.3,MacIntel,60.0240096,6,2,14,,,,,,,,7,14,,,,,,,,,,,1,1.458,0,,,,,,-0.319335938,-0.26171875,1,0,0,1.458,Andesite_rect,13,0,13,0,1,
6634fcc04fdb39573179fb61,SCN,2024-06-24_14h33.52.602,LearnStrategy,2023.2.3,MacIntel,60.0240096,6,2,15,,,,,,,,8,06,,,,,,,,,,,8,1.271,1,,,,,,0.395507813,-0.40625,1,0,0,1.271,Pumice_rect,14,0,14,0,1,
6634fcc04fdb39573179fb61,SCN,2024-06-24_14h33.52.602,LearnStrategy,2023.2.3,MacIntel,60.0240096,6,2,16,,,,,,,,4,15,,,,,,,,,,,6,3.314,0,,,,,,-0.09375,-0.400390625,1,0,0,3.314,Pegmatite_rect,15,0,15,0,1,
6634fcc04fdb39573179fb61,SCN,2024-06-24_14h33.52.602,LearnStrategy,2023.2.3,MacIntel,60.0240096,7,1,1,-0.068359375,-0.076171875,1,0,0,1.463,Gabbro_12,4,12,3,4,1.463,-0.415039063,-0.244140625,1,0,0,1.088,Andesite_rect,1,1.088,0,0,0,0,0,1,,,,,,,,,,,,,
6634fcc04fdb39573179fb61,SCN,2024-06-24_14h33.52.602,LearnStrategy,2023.2.3,MacIntel,60.0240096,7,1,2,0.362304688,-0.068359375,1,0,0,1.431,Basalt_01,2,01,3,7,1.431,-0.345703125,-0.232421875,1,0,0,2.05,Andesite_rect,1,2.05,0,1,0,1,0,1,,,,,,,,,,,,,
6634fcc04fdb39573179fb61,SCN,2024-06-24_14h33.52.602,LearnStrategy,2023.2.3,MacIntel,60.0240096,7,1,3,-0.049804688,0.0703125,1,0,0,0.93,Diorite_02,3,02,4,4,0.93,0.387695313,-0.228515625,1,0,0,0.999,Gabbro_rect,4,0.999,0,2,0,2,0,1,,,,,,,,,,,,,
6634fcc04fdb39573179fb61,SCN,2024-06-24_14h33.52.602,LearnStrategy,2023.2.3,MacIntel,60.0240096,7,1,4,0.443359375,0.112304688,1,0,0,1.529,Diorite_09,3,09,4,7,1.529,0.401367188,-0.2578125,1,0,0,1.301,Gabbro_rect,4,1.301,0,3,0,3,0,1,,,,,,,,,,,,,
6634fcc04fdb39573179fb61,SCN,2024-06-24_14h33.52.602,LearnStrategy,2023.2.3,MacIntel,60.0240096,7,1,5,0.37890625,0.424804688,1,0,0,1.631,Diorite_07,3,07,6,7,1.631,0.168945313,-0.271484375,1,0,0,1.488,Diorite_rect,3,1.488,1,4,0,4,0,1,,,,,,,,,,,,,
6634fcc04fdb39573179fb61,SCN,2024-06-24_14h33.52.602,LearnStrategy,2023.2.3,MacIntel,60.0240096,7,1,6,0.4296875,0.091796875,1,0,0,2.164,Diorite_09,3,09,4,7,2.164,0.189453125,-0.247070313,1,0,0,0.75,Diorite_rect,3,0.75,1,5,0,5,0,1,,,,,,,,,,,,,
6634fcc04fdb39573179fb61,SCN,2024-06-24_14h33.52.602,LearnStrategy,2023.2.3,MacIntel,60.0240096,7,1,7,0.525390625,0.370117188,1,0,0,2.031,Peridotite_15,7,15,6,8,2.031,0.166015625,-0.396484375,1,0,0,1.289,Peridotite_rect,7,1.289,1,6,0,6,0,1,,,,,,,,,,,,,
6634fcc04fdb39573179fb61,SCN,2024-06-24_14h33.52.602,LearnStrategy,2023.2.3,MacIntel,60.0240096,7,1,8,-0.228515625,-0.096679688,1,0,0,1.346,Peridotite_07,7,07,3,3,1.346,-0.133789063,-0.399414063,1,0,0,4.349,Pegmatite_rect,6,4.349,0,7,0,7,0,1,,,,,,,,,,,,,
6634fcc04fdb39573179fb61,SCN,2024-06-24_14h33.52.602,LearnStrategy,2023.2.3,MacIntel,60.0240096,7,1,9,-0.284179688,-0.094726563,1,0,0,1.947,Peridotite_07,7,07,3,3,1.947,0.143554688,-0.400390625,1,0,0,1.87,Peridotite_rect,7,1.87,1,8,0,8,0,1,,,,,,,,,,,,,
6634fcc04fdb39573179fb61,SCN,2024-06-24_14h33.52.602,LearnStrategy,2023.2.3,MacIntel,60.0240096,7,1,10,-0.034179688,-0.08203125,1,0,0,0.646,Gabbro_12,4,12,3,4,0.646,-0.38671875,-0.250976563,1,0,0,1.978,Andesite_rect,1,1.978,0,9,0,9,0,1,,,,,,,,,,,,,
6634fcc04fdb39573179fb61,SCN,2024-06-24_14h33.52.602,LearnStrategy,2023.2.3,MacIntel,60.0240096,7,1,11,0.375,-0.0859375,1,0,0,1.866,Basalt_01,2,01,3,7,1.866,-0.094726563,-0.233398438,1,0,0,0.693,Basalt_rect,2,0.693,1,10,0,10,0,1,,,,,,,,,,,,,
6634fcc04fdb39573179fb61,SCN,2024-06-24_14h33.52.602,LearnStrategy,2023.2.3,MacIntel,60.0240096,7,1,12,-0.4453125,-0.104492188,1,0,0,1.067,Pumice_10,8,10,3,2,1.067,0.153320313,-0.24609375,1,0,0,1.075,Diorite_rect,3,1.075,0,11,0,11,0,1,,,,,,,,,,,,,
6634fcc04fdb39573179fb61,SCN,2024-06-24_14h33.52.602,LearnStrategy,2023.2.3,MacIntel,60.0240096,7,1,13,-0.546875,-0.225585938,1,0,0,1.614,Pegmatite_05,6,05,2,1,1.614,-0.122070313,-0.420898438,1,0,0,1.382,Pegmatite_rect,6,1.382,1,12,0,12,0,1,,,,,,,,,,,,,
6634fcc04fdb39573179fb61,SCN,2024-06-24_14h33.52.602,LearnStrategy,2023.2.3,MacIntel,60.0240096,7,1,14,0.227539063,-0.075195313,1,0,0,1.497,Pegmatite_13,6,13,3,6,1.497,-0.147460938,-0.4140625,1,0,0,0.856,Pegmatite_rect,6,0.856,1,13,0,13,0,1,,,,,,,,,,,,,
6634fcc04fdb39573179fb61,SCN,2024-06-24_14h33.52.602,LearnStrategy,2023.2.3,MacIntel,60.0240096,7,1,15,-0.52734375,0.25,1,0,0,1.949,Basalt_04,2,04,5,1,1.949,-0.106445313,-0.259765625,1,0,0,1.334,Basalt_rect,2,1.334,1,14,0,14,0,1,,,,,,,,,,,,,
6634fcc04fdb39573179fb61,SCN,2024-06-24_14h33.52.602,LearnStrategy,2023.2.3,MacIntel,60.0240096,7,1,16,0.22265625,0.095703125,1,0,0,1.579,Obsidian_05,5,05,4,6,1.579,-0.372070313,-0.409179688,1,0,0,1.414,Obsidian_rect,5,1.414,1,15,0,15,0,1,,,,,,,,,,,,,
6634fcc04fdb39573179fb61,SCN,2024-06-24_14h33.52.602,LearnStrategy,2023.2.3,MacIntel,60.0240096,7,2,1,,,,,,,,3,12,,,,,,,,,,,3,8.089,1,,,,,,0.134765625,-0.236328125,1,0,0,8.089,Diorite_rect,0,0,0,0,1,
6634fcc04fdb39573179fb61,SCN,2024-06-24_14h33.52.602,LearnStrategy,2023.2.3,MacIntel,60.0240096,7,2,2,,,,,,,,5,16,,,,,,,,,,,5,1.192,1,,,,,,-0.357421875,-0.397460938,1,0,0,1.192,Obsidian_rect,1,0,1,0,1,
6634fcc04fdb39573179fb61,SCN,2024-06-24_14h33.52.602,LearnStrategy,2023.2.3,MacIntel,60.0240096,7,2,3,,,,,,,,4,03,,,,,,,,,,,4,3.088,1,,,,,,0.359375,-0.252929688,1,0,0,3.088,Gabbro_rect,2,0,2,0,1,
6634fcc04fdb39573179fb61,SCN,2024-06-24_14h33.52.602,LearnStrategy,2023.2.3,MacIntel,60.0240096,7,2,4,,,,,,,,7,05,,,,,,,,,,,7,5.295,1,,,,,,0.104492188,-0.392578125,1,0,0,5.295,Peridotite_rect,3,0,3,0,1,
6634fcc04fdb39573179fb61,SCN,2024-06-24_14h33.52.602,LearnStrategy,2023.2.3,MacIntel,60.0240096,7,2,5,,,,,,,,8,06,,,,,,,,,,,8,2.197,1,,,,,,0.364257813,-0.395507813,1,0,0,2.197,Pumice_rect,4,0,4,0,1,
6634fcc04fdb39573179fb61,SCN,2024-06-24_14h33.52.602,LearnStrategy,2023.2.3,MacIntel,60.0240096,7,2,6,,,,,,,,2,12,,,,,,,,,,,2,2.519,1,,,,,,-0.081054688,-0.236328125,1,0,0,2.519,Basalt_rect,5,0,5,0,1,
6634fcc04fdb39573179fb61,SCN,2024-06-24_14h33.52.602,LearnStrategy,2023.2.3,MacIntel,60.0240096,7,2,7,,,,,,,,5,02,,,,,,,,,,,5,1.107,1,,,,,,-0.359375,-0.38671875,1,0,0,1.107,Obsidian_rect,6,0,6,0,1,
6634fcc04fdb39573179fb61,SCN,2024-06-24_14h33.52.602,LearnStrategy,2023.2.3,MacIntel,60.0240096,7,2,8,,,,,,,,2,14,,,,,,,,,,,2,2.218,1,,,,,,-0.116210938,-0.229492188,1,0,0,2.218,Basalt_rect,7,0,7,0,1,
6634fcc04fdb39573179fb61,SCN,2024-06-24_14h33.52.602,LearnStrategy,2023.2.3,MacIntel,60.0240096,7,2,9,,,,,,,,7,16,,,,,,,,,,,7,1.379,1,,,,,,0.118164063,-0.397460938,1,0,0,1.379,Peridotite_rect,8,0,8,0,1,
6634fcc04fdb39573179fb61,SCN,2024-06-24_14h33.52.602,LearnStrategy,2023.2.3,MacIntel,60.0240096,7,2,10,,,,,,,,6,09,,,,,,,,,,,6,1.214,1,,,,,,-0.079101563,-0.405273438,1,0,0,1.214,Pegmatite_rect,9,0,9,0,1,
6634fcc04fdb39573179fb61,SCN,2024-06-24_14h33.52.602,LearnStrategy,2023.2.3,MacIntel,60.0240096,7,2,11,,,,,,,,4,16,,,,,,,,,,,2,3.128,0,,,,,,-0.077148438,-0.268554688,1,0,0,3.128,Basalt_rect,10,0,10,0,1,
6634fcc04fdb39573179fb61,SCN,2024-06-24_14h33.52.602,LearnStrategy,2023.2.3,MacIntel,60.0240096,7,2,12,,,,,,,,8,15,,,,,,,,,,,8,3.821,1,,,,,,0.37890625,-0.400390625,1,0,0,3.821,Pumice_rect,11,0,11,0,1,
6634fcc04fdb39573179fb61,SCN,2024-06-24_14h33.52.602,LearnStrategy,2023.2.3,MacIntel,60.0240096,7,2,13,,,,,,,,1,09,,,,,,,,,,,1,1.953,1,,,,,,-0.334960938,-0.245117188,1,0,0,1.953,Andesite_rect,12,0,12,0,1,
6634fcc04fdb39573179fb61,SCN,2024-06-24_14h33.52.602,LearnStrategy,2023.2.3,MacIntel,60.0240096,7,2,14,,,,,,,,6,16,,,,,,,,,,,6,1.3,1,,,,,,-0.178710938,-0.39453125,1,0,0,1.3,Pegmatite_rect,13,0,13,0,1,
6634fcc04fdb39573179fb61,SCN,2024-06-24_14h33.52.602,LearnStrategy,2023.2.3,MacIntel,60.0240096,7,2,15,,,,,,,,3,06,,,,,,,,,,,4,2.244,0,,,,,,0.341796875,-0.237304688,1,0,0,2.244,Gabbro_rect,14,0,14,0,1,
6634fcc04fdb39573179fb61,SCN,2024-06-24_14h33.52.602,LearnStrategy,2023.2.3,MacIntel,60.0240096,7,2,16,,,,,,,,1,07,,,,,,,,,,,3,3.602,0,,,,,,0.198242188,-0.247070313,1,0,0,3.602,Diorite_rect,15,0,15,0,1,
6634fcc04fdb39573179fb61,SCN,2024-06-24_14h33.52.602,LearnStrategy,2023.2.3,MacIntel,60.0240096,8,1,1,0.086914063,-0.072265625,1,0,0,1.232,Obsidian_12,5,12,3,5,1.232,-0.374023438,-0.396484375,1,0,0,1.659,Obsidian_rect,5,1.659,1,0,0,0,0,1,,,,,,,,,,,,,
6634fcc04fdb39573179fb61,SCN,2024-06-24_14h33.52.602,LearnStrategy,2023.2.3,MacIntel,60.0240096,8,1,2,-0.0546875,0.107421875,1,0,0,0.763,Diorite_02,3,02,4,4,0.763,0.375976563,-0.254882813,1,0,0,1.771,Gabbro_rect,4,1.771,0,1,0,1,0,1,,,,,,,,,,,,,
6634fcc04fdb39573179fb61,SCN,2024-06-24_14h33.52.602,LearnStrategy,2023.2.3,MacIntel,60.0240096,8,1,3,0.395507813,0.40625,1,0,0,1.781,Diorite_07,3,07,6,7,1.781,0.188476563,-0.24609375,1,0,0,0.887,Diorite_rect,3,0.887,1,2,0,2,0,1,,,,,,,,,,,,,
6634fcc04fdb39573179fb61,SCN,2024-06-24_14h33.52.602,LearnStrategy,2023.2.3,MacIntel,60.0240096,8,1,4,0.36328125,0.077148438,1,0,0,1.197,Diorite_09,3,09,4,7,1.197,0.1875,-0.233398438,1,0,0,0.923,Diorite_rect,3,0.923,1,3,0,3,0,1,,,,,,,,,,,,,
6634fcc04fdb39573179fb61,SCN,2024-06-24_14h33.52.602,LearnStrategy,2023.2.3,MacIntel,60.0240096,8,1,5,0.584960938,-0.122070313,1,0,0,1.631,Andesite_05,1,05,3,8,1.631,0.375,-0.247070313,1,0,0,1.992,Gabbro_rect,4,1.992,0,4,0,4,0,1,,,,,,,,,,,,,
6634fcc04fdb39573179fb61,SCN,2024-06-24_14h33.52.602,LearnStrategy,2023.2.3,MacIntel,60.0240096,8,1,6,-0.241210938,0.139648438,1,0,0,1.464,Andesite_11,1,11,4,3,1.464,0.411132813,-0.241210938,1,0,0,2.352,Gabbro_rect,4,2.352,0,5,0,5,0,1,,,,,,,,,,,,,
6634fcc04fdb39573179fb61,SCN,2024-06-24_14h33.52.602,LearnStrategy,2023.2.3,MacIntel,60.0240096,8,1,7,-0.387695313,-0.100585938,1,0,0,1.948,Pumice_10,8,10,3,2,1.948,0.455078125,-0.415039063,1,0,0,1.44,Pumice_rect,8,1.44,1,6,0,6,0,1,,,,,,,,,,,,,
6634fcc04fdb39573179fb61,SCN,2024-06-24_14h33.52.602,LearnStrategy,2023.2.3,MacIntel,60.0240096,8,1,8,0.229492188,-0.3984375,1,0,0,1.045,Diorite_08,3,08,1,6,1.045,0.151367188,-0.24609375,1,0,0,2.604,Diorite_rect,3,2.604,1,7,0,7,0,1,,,,,,,,,,,,,
6634fcc04fdb39573179fb61,SCN,2024-06-24_14h33.52.602,LearnStrategy,2023.2.3,MacIntel,60.0240096,8,1,9,0.586914063,-0.415039063,1,0,0,1.847,Gabbro_10,4,10,1,8,1.847,-0.076171875,-0.259765625,1,0,0,1.884,Basalt_rect,2,1.884,0,8,0,8,0,1,,,,,,,,,,,,,
6634fcc04fdb39573179fb61,SCN,2024-06-24_14h33.52.602,LearnStrategy,2023.2.3,MacIntel,60.0240096,8,1,10,-0.202148438,0.243164063,1,0,0,1.503,Diorite_15,3,15,5,3,1.503,0.44921875,-0.23046875,1,0,0,1.236,Gabbro_rect,4,1.236,0,9,0,9,0,1,,,,,,,,,,,,,
6634fcc04fdb39573179fb61,SCN,2024-06-24_14h33.52.602,LearnStrategy,2023.2.3,MacIntel,60.0240096,8,1,11,-0.58203125,0.26953125,1,0,0,2.197,Basalt_04,2,04,5,1,2.197,-0.130859375,-0.25,1,0,0,1.386,Basalt_rect,2,1.386,1,10,0,10,0,1,,,,,,,,,,,,,
6634fcc04fdb39573179fb61,SCN,2024-06-24_14h33.52.602,LearnStrategy,2023.2.3,MacIntel,60.0240096,8,1,12,-0.37890625,-0.240234375,1,0,0,0.915,Gabbro_01,4,01,2,2,0.915,0.380859375,-0.25,1,0,0,2.673,Gabbro_rect,4,2.673,1,11,0,11,0,1,,,,,,,,,,,,,
6634fcc04fdb39573179fb61,SCN,2024-06-24_14h33.52.602,LearnStrategy,2023.2.3,MacIntel,60.0240096,8,1,13,-0.209960938,-0.091796875,1,0,0,1.482,Peridotite_07,7,07,3,3,1.482,-0.415039063,-0.25,1,0,0,1.293,Andesite_rect,1,1.293,0,12,0,12,0,1,,,,,,,,,,,,,
6634fcc04fdb39573179fb61,SCN,2024-06-24_14h33.52.602,LearnStrategy,2023.2.3,MacIntel,60.0240096,8,1,14,0.2109375,-0.3984375,1,0,0,1.079,Diorite_08,3,08,1,6,1.079,0.176757813,-0.264648438,1,0,0,1.011,Diorite_rect,3,1.011,1,13,0,13,0,1,,,,,,,,,,,,,
6634fcc04fdb39573179fb61,SCN,2024-06-24_14h33.52.602,LearnStrategy,2023.2.3,MacIntel,60.0240096,8,1,15,-0.041992188,-0.123046875,1,0,0,0.814,Gabbro_12,4,12,3,4,0.814,0.345703125,-0.241210938,1,0,0,1.273,Gabbro_rect,4,1.273,1,14,0,14,0,1,,,,,,,,,,,,,
6634fcc04fdb39573179fb61,SCN,2024-06-24_14h33.52.602,LearnStrategy,2023.2.3,MacIntel,60.0240096,8,1,16,0.071289063,0.107421875,1,0,0,1.047,Basalt_16,2,16,4,5,1.047,-0.080078125,-0.262695313,1,0,0,1.388,Basalt_rect,2,1.388,1,15,0,15,0,1,,,,,,,,,,,,,
6634fcc04fdb39573179fb61,SCN,2024-06-24_14h33.52.602,LearnStrategy,2023.2.3,MacIntel,60.0240096,8,2,1,,,,,,,,4,09,,,,,,,,,,,2,6.173,0,,,,,,-0.109375,-0.243164063,1,0,0,6.173,Basalt_rect,0,0,0,0,1,
6634fcc04fdb39573179fb61,SCN,2024-06-24_14h33.52.602,LearnStrategy,2023.2.3,MacIntel,60.0240096,8,2,2,,,,,,,,5,07,,,,,,,,,,,5,1.151,1,,,,,,-0.365234375,-0.395507813,1,0,0,1.151,Obsidian_rect,1,0,1,0,1,
6634fcc04fdb39573179fb61,SCN,2024-06-24_14h33.52.602,LearnStrategy,2023.2.3,MacIntel,60.0240096,8,2,3,,,,,,,,2,09,,,,,,,,,,,2,4.751,1,,,,,,-0.1171875,-0.23828125,1,0,0,4.751,Basalt_rect,2,0,2,0,1,
6634fcc04fdb39573179fb61,SCN,2024-06-24_14h33.52.602,LearnStrategy,2023.2.3,MacIntel,60.0240096,8,2,4,,,,,,,,8,08,,,,,,,,,,,8,3.375,1,,,,,,0.395507813,-0.41015625,1,0,0,3.375,Pumice_rect,3,0,3,0,1,
6634fcc04fdb39573179fb61,SCN,2024-06-24_14h33.52.602,LearnStrategy,2023.2.3,MacIntel,60.0240096,8,2,5,,,,,,,,4,15,,,,,,,,,,,6,2.048,0,,,,,,-0.080078125,-0.391601563,1,0,0,2.048,Pegmatite_rect,4,0,4,0,1,
6634fcc04fdb39573179fb61,SCN,2024-06-24_14h33.52.602,LearnStrategy,2023.2.3,MacIntel,60.0240096,8,2,6,,,,,,,,3,11,,,,,,,,,,,3,2.077,1,,,,,,0.186523438,-0.2578125,1,0,0,2.077,Diorite_rect,5,0,5,0,1,
6634fcc04fdb39573179fb61,SCN,2024-06-24_14h33.52.602,LearnStrategy,2023.2.3,MacIntel,60.0240096,8,2,7,,,,,,,,6,06,,,,,,,,,,,6,1.317,1,,,,,,-0.098632813,-0.41796875,1,0,0,1.317,Pegmatite_rect,6,0,6,0,1,
6634fcc04fdb39573179fb61,SCN,2024-06-24_14h33.52.602,LearnStrategy,2023.2.3,MacIntel,60.0240096,8,2,8,,,,,,,,6,03,,,,,,,,,,,6,0.995,1,,,,,,-0.099609375,-0.41015625,1,0,0,0.995,Pegmatite_rect,7,0,7,0,1,
6634fcc04fdb39573179fb61,SCN,2024-06-24_14h33.52.602,LearnStrategy,2023.2.3,MacIntel,60.0240096,8,2,9,,,,,,,,3,13,,,,,,,,,,,7,7.774,0,,,,,,0.1328125,-0.409179688,1,0,0,7.774,Peridotite_rect,8,0,8,0,1,
6634fcc04fdb39573179fb61,SCN,2024-06-24_14h33.52.602,LearnStrategy,2023.2.3,MacIntel,60.0240096,8,2,10,,,,,,,,1,01,,,,,,,,,,,2,4.384,0,,,,,,-0.076171875,-0.265625,1,0,0,4.384,Basalt_rect,9,0,9,0,1,
6634fcc04fdb39573179fb61,SCN,2024-06-24_14h33.52.602,LearnStrategy,2023.2.3,MacIntel,60.0240096,8,2,11,,,,,,,,2,06,,,,,,,,,,,2,3.024,1,,,,,,-0.076171875,-0.265625,1,0,0,3.024,Basalt_rect,10,0,10,0,1,
6634fcc04fdb39573179fb61,SCN,2024-06-24_14h33.52.602,LearnStrategy,2023.2.3,MacIntel,60.0240096,8,2,12,,,,,,,,5,08,,,,,,,,,,,5,1.168,1,,,,,,-0.346679688,-0.396484375,1,0,0,1.168,Obsidian_rect,11,0,11,0,1,
6634fcc04fdb39573179fb61,SCN,2024-06-24_14h33.52.602,LearnStrategy,2023.2.3,MacIntel,60.0240096,8,2,13,,,,,,,,7,08,,,,,,,,,,,7,1.466,1,,,,,,0.112304688,-0.401367188,1,0,0,1.466,Peridotite_rect,12,0,12,0,1,
6634fcc04fdb39573179fb61,SCN,2024-06-24_14h33.52.602,LearnStrategy,2023.2.3,MacIntel,60.0240096,8,2,14,,,,,,,,1,02,,,,,,,,,,,1,5.502,1,,,,,,-0.349609375,-0.263671875,1,0,0,5.502,Andesite_rect,13,0,13,0,1,
6634fcc04fdb39573179fb61,SCN,2024-06-24_14h33.52.602,LearnStrategy,2023.2.3,MacIntel,60.0240096,8,2,15,,,,,,,,8,09,,,,,,,,,,,8,1.301,1,,,,,,0.317382813,-0.384765625,1,0,0,1.301,Pumice_rect,14,0,14,0,1,
6634fcc04fdb39573179fb61,SCN,2024-06-24_14h33.52.602,LearnStrategy,2023.2.3,MacIntel,60.0240096,8,2,16,,,,,,,,7,10,,,,,,,,,,,7,1.155,1,,,,,,0.174804688,-0.392578125,1,0,0,1.155,Peridotite_rect,15,0,15,0,1,
6634fcc04fdb39573179fb61,SCN,2024-06-24_14h33.52.602,LearnStrategy,2023.2.3,MacIntel,60.0240096,9,1,1,0.532226563,0.081054688,1,0,0,1.764,Basalt_05,2,05,4,8,1.764,-0.099609375,-0.251953125,1,0,0,1.622,Basalt_rect,2,1.622,1,0,0,0,0,1,,,,,,,,,,,,,
6634fcc04fdb39573179fb61,SCN,2024-06-24_14h33.52.602,LearnStrategy,2023.2.3,MacIntel,60.0240096,9,1,2,-0.220703125,0.072265625,1,0,0,1.127,Andesite_11,1,11,4,3,1.127,-0.34765625,-0.245117188,1,0,0,5.261,Andesite_rect,1,5.261,1,1,0,1,0,1,,,,,,,,,,,,,
6634fcc04fdb39573179fb61,SCN,2024-06-24_14h33.52.602,LearnStrategy,2023.2.3,MacIntel,60.0240096,9,1,3,-0.20703125,0.112304688,1,0,0,1.514,Andesite_11,1,11,4,3,1.514,0.140625,-0.243164063,1,0,0,3.996,Diorite_rect,3,3.996,0,2,0,2,0,1,,,,,,,,,,,,,
6634fcc04fdb39573179fb61,SCN,2024-06-24_14h33.52.602,LearnStrategy,2023.2.3,MacIntel,60.0240096,9,1,4,-0.38671875,-0.088867188,1,0,0,1.683,Pumice_10,8,10,3,2,1.683,0.3828125,-0.380859375,1,0,0,1.396,Pumice_rect,8,1.396,1,3,0,3,0,1,,,,,,,,,,,,,
6634fcc04fdb39573179fb61,SCN,2024-06-24_14h33.52.602,LearnStrategy,2023.2.3,MacIntel,60.0240096,9,1,5,0.110351563,0.239257813,1,0,0,1.064,Andesite_10,1,10,5,5,1.064,0.39453125,-0.235351563,1,0,0,3.631,Gabbro_rect,4,3.631,0,4,0,4,0,1,,,,,,,,,,,,,
6634fcc04fdb39573179fb61,SCN,2024-06-24_14h33.52.602,LearnStrategy,2023.2.3,MacIntel,60.0240096,9,1,6,-0.538085938,0.229492188,1,0,0,1.315,Basalt_04,2,04,5,1,1.315,-0.154296875,-0.25390625,1,0,0,1.665,Basalt_rect,2,1.665,1,5,0,5,0,1,,,,,,,,,,,,,
6634fcc04fdb39573179fb61,SCN,2024-06-24_14h33.52.602,LearnStrategy,2023.2.3,MacIntel,60.0240096,9,1,7,0.385742188,-0.107421875,1,0,0,1.096,Basalt_01,2,01,3,7,1.096,-0.400390625,-0.232421875,1,0,0,1.735,Andesite_rect,1,1.735,0,6,0,6,0,1,,,,,,,,,,,,,
6634fcc04fdb39573179fb61,SCN,2024-06-24_14h33.52.602,LearnStrategy,2023.2.3,MacIntel,60.0240096,9,1,8,0.534179688,-0.07421875,1,0,0,0.913,Andesite_05,1,05,3,8,0.913,-0.405273438,-0.228515625,1,0,0,6.96,Andesite_rect,1,6.96,1,7,0,7,0,1,,,,,,,,,,,,,
6634fcc04fdb39573179fb61,SCN,2024-06-24_14h33.52.602,LearnStrategy,2023.2.3,MacIntel,60.0240096,9,1,9,0.200195313,0.083007813,1,0,0,1.377,Obsidian_05,5,05,4,6,1.377,-0.411132813,-0.411132813,1,0,0,0.839,Obsidian_rect,5,0.839,1,8,0,8,0,1,,,,,,,,,,,,,
6634fcc04fdb39573179fb61,SCN,2024-06-24_14h33.52.602,LearnStrategy,2023.2.3,MacIntel,60.0240096,9,1,10,0.405273438,0.423828125,1,0,0,1.081,Diorite_07,3,07,6,7,1.081,0.17578125,-0.26171875,1,0,0,0.9,Diorite_rect,3,0.9,1,9,0,9,0,1,,,,,,,,,,,,,
6634fcc04fdb39573179fb61,SCN,2024-06-24_14h33.52.602,LearnStrategy,2023.2.3,MacIntel,60.0240096,9,1,11,0.568359375,0.268554688,1,0,0,1.614,Andesite_03,1,03,5,8,1.614,0.393554688,-0.254882813,1,0,0,2.042,Gabbro_rect,4,2.042,0,10,0,10,0,1,,,,,,,,,,,,,
6634fcc04fdb39573179fb61,SCN,2024-06-24_14h33.52.602,LearnStrategy,2023.2.3,MacIntel,60.0240096,9,1,12,0.188476563,-0.252929688,1,0,0,2.595,Andesite_04,1,04,2,6,2.595,0.361328125,-0.258789063,1,0,0,0.658,Gabbro_rect,4,0.658,0,11,0,11,0,1,,,,,,,,,,,,,
6634fcc04fdb39573179fb61,SCN,2024-06-24_14h33.52.602,LearnStrategy,2023.2.3,MacIntel,60.0240096,9,1,13,-0.33984375,-0.421875,1,0,0,1.516,Andesite_06,1,06,1,2,1.516,0.364257813,-0.264648438,1,0,0,2.534,Gabbro_rect,4,2.534,0,12,0,12,0,1,,,,,,,,,,,,,
6634fcc04fdb39573179fb61,SCN,2024-06-24_14h33.52.602,LearnStrategy,2023.2.3,MacIntel,60.0240096,9,1,14,-0.361328125,0.416992188,1,0,0,3.366,Pegmatite_12,6,12,6,2,3.366,-0.09765625,-0.390625,1,0,0,1.824,Pegmatite_rect,6,1.824,1,13,0,13,0,1,,,,,,,,,,,,,
6634fcc04fdb39573179fb61,SCN,2024-06-24_14h33.52.602,LearnStrategy,2023.2.3,MacIntel,60.0240096,9,1,15,-0.0390625,0.071289063,1,0,0,1.381,Diorite_02,3,02,4,4,1.381,0.15234375,-0.250976563,1,0,0,1.779,Diorite_rect,3,1.779,1,14,0,14,0,1,,,,,,,,,,,,,
6634fcc04fdb39573179fb61,SCN,2024-06-24_14h33.52.602,LearnStrategy,2023.2.3,MacIntel,60.0240096,9,1,16,0.518554688,-0.073242188,1,0,0,1.499,Andesite_05,1,05,3,8,1.499,-0.319335938,-0.243164063,1,0,0,1.501,Andesite_rect,1,1.501,1,15,0,15,0,1,,,,,,,,,,,,,
6634fcc04fdb39573179fb61,SCN,2024-06-24_14h33.52.602,LearnStrategy,2023.2.3,MacIntel,60.0240096,9,2,1,,,,,,,,7,02,,,,,,,,,,,7,2.042,1,,,,,,0.103515625,-0.412109375,1,0,0,2.042,Peridotite_rect,0,0,0,0,1,
6634fcc04fdb39573179fb61,SCN,2024-06-24_14h33.52.602,LearnStrategy,2023.2.3,MacIntel,60.0240096,9,2,2,,,,,,,,1,16,,,,,,,,,,,1,3.329,1,,,,,,-0.358398438,-0.25,1,0,0,3.329,Andesite_rect,1,0,1,0,1,
6634fcc04fdb39573179fb61,SCN,2024-06-24_14h33.52.602,LearnStrategy,2023.2.3,MacIntel,60.0240096,9,2,3,,,,,,,,2,11,,,,,,,,,,,8,2.813,0,,,,,,0.362304688,-0.391601563,1,0,0,2.813,Pumice_rect,2,0,2,0,1,
6634fcc04fdb39573179fb61,SCN,2024-06-24_14h33.52.602,LearnStrategy,2023.2.3,MacIntel,60.0240096,9,2,4,,,,,,,,7,14,,,,,,,,,,,7,2.299,1,,,,,,0.120117188,-0.400390625,1,0,0,2.299,Peridotite_rect,3,0,3,0,1,
6634fcc04fdb39573179fb61,SCN,2024-06-24_14h33.52.602,LearnStrategy,2023.2.3,MacIntel,60.0240096,9,2,5,,,,,,,,3,16,,,,,,,,,,,3,2.385,1,,,,,,0.133789063,-0.252929688,1,0,0,2.385,Diorite_rect,4,0,4,0,1,
6634fcc04fdb39573179fb61,SCN,2024-06-24_14h33.52.602,LearnStrategy,2023.2.3,MacIntel,60.0240096,9,2,6,,,,,,,,8,03,,,,,,,,,,,8,2.939,1,,,,,,0.36328125,-0.389648438,1,0,0,2.939,Pumice_rect,5,0,5,0,1,
6634fcc04fdb39573179fb61,SCN,2024-06-24_14h33.52.602,LearnStrategy,2023.2.3,MacIntel,60.0240096,9,2,7,,,,,,,,4,11,,,,,,,,,,,1,2.749,0,,,,,,-0.391601563,-0.2421875,1,0,0,2.749,Andesite_rect,6,0,6,0,1,
6634fcc04fdb39573179fb61,SCN,2024-06-24_14h33.52.602,LearnStrategy,2023.2.3,MacIntel,60.0240096,9,2,8,,,,,,,,6,11,,,,,,,,,,,6,1.822,1,,,,,,-0.10546875,-0.415039063,1,0,0,1.822,Pegmatite_rect,7,0,7,0,1,
6634fcc04fdb39573179fb61,SCN,2024-06-24_14h33.52.602,LearnStrategy,2023.2.3,MacIntel,60.0240096,9,2,9,,,,,,,,4,13,,,,,,,,,,,6,1.202,0,,,,,,-0.10546875,-0.415039063,1,0,0,1.202,Pegmatite_rect,8,0,8,0,1,
6634fcc04fdb39573179fb61,SCN,2024-06-24_14h33.52.602,LearnStrategy,2023.2.3,MacIntel,60.0240096,9,2,10,,,,,,,,3,10,,,,,,,,,,,3,4.687,1,,,,,,0.114257813,-0.252929688,1,0,0,4.687,Diorite_rect,9,0,9,0,1,
6634fcc04fdb39573179fb61,SCN,2024-06-24_14h33.52.602,LearnStrategy,2023.2.3,MacIntel,60.0240096,9,2,11,,,,,,,,5,06,,,,,,,,,,,5,1.256,1,,,,,,-0.393554688,-0.39453125,1,0,0,1.256,Obsidian_rect,10,0,10,0,1,
6634fcc04fdb39573179fb61,SCN,2024-06-24_14h33.52.602,LearnStrategy,2023.2.3,MacIntel,60.0240096,9,2,12,,,,,,,,5,14,,,,,,,,,,,5,0.98,1,,,,,,-0.39453125,-0.3984375,1,0,0,0.98,Obsidian_rect,11,0,11,0,1,
6634fcc04fdb39573179fb61,SCN,2024-06-24_14h33.52.602,LearnStrategy,2023.2.3,MacIntel,60.0240096,9,2,13,,,,,,,,1,14,,,,,,,,,,,1,2.269,1,,,,,,-0.401367188,-0.247070313,1,0,0,2.269,Andesite_rect,12,0,12,0,1,
6634fcc04fdb39573179fb61,SCN,2024-06-24_14h33.52.602,LearnStrategy,2023.2.3,MacIntel,60.0240096,9,2,14,,,,,,,,2,02,,,,,,,,,,,2,1.251,1,,,,,,-0.154296875,-0.256835938,1,0,0,1.251,Basalt_rect,13,0,13,0,1,
6634fcc04fdb39573179fb61,SCN,2024-06-24_14h33.52.602,LearnStrategy,2023.2.3,MacIntel,60.0240096,9,2,15,,,,,,,,6,15,,,,,,,,,,,6,1.27,1,,,,,,-0.133789063,-0.389648438,1,0,0,1.27,Pegmatite_rect,14,0,14,0,1,
6634fcc04fdb39573179fb61,SCN,2024-06-24_14h33.52.602,LearnStrategy,2023.2.3,MacIntel,60.0240096,9,2,16,,,,,,,,8,02,,,,,,,,,,,8,1.346,1,,,,,,0.43359375,-0.405273438,1,0,0,1.346,Pumice_rect,15,0,15,0,1,
6634fcc04fdb39573179fb61,SCN,2024-06-24_14h33.52.602,LearnStrategy,2023.2.3,MacIntel,60.0240096,,,,,,,,,,,,,,,,,,,,,,,,,,,,,,,,,,,,,,,,,,,1
6634fcc04fdb39573179fb61,SCN,2024-06-24_14h33.52.602,LearnStrategy,2023.2.3,MacIntel,60.0240096,,,,,,,,,,,,,,,,,,,,,,,,,,,,,,,,,,,,,,,,,,,
6634fcc04fdb39573179fb61,SCN,2024-06-24_14h33.52.602,LearnStrategy,2023.2.3,MacIntel,60.0240096,,,,,,,,,,,7,06,1,1,,,,,,,,,,,,,,,,,,,,,,,,,,,,,
6634fcc04fdb39573179fb61,SCN,2024-06-24_14h33.52.602,LearnStrategy,2023.2.3,MacIntel,60.0240096,,,,,,,,,,,1,06,1,2,,,,,,,,,,,,,,,,,,,,,,,,,,,,,
6634fcc04fdb39573179fb61,SCN,2024-06-24_14h33.52.602,LearnStrategy,2023.2.3,MacIntel,60.0240096,,,,,,,,,,,6,08,1,3,,,,,,,,,,,,,,,,,,,,,,,,,,,,,
6634fcc04fdb39573179fb61,SCN,2024-06-24_14h33.52.602,LearnStrategy,2023.2.3,MacIntel,60.0240096,,,,,,,,,,,8,04,1,4,,,,,,,,,,,,,,,,,,,,,,,,,,,,,
6634fcc04fdb39573179fb61,SCN,2024-06-24_14h33.52.602,LearnStrategy,2023.2.3,MacIntel,60.0240096,,,,,,,,,,,6,07,1,5,,,,,,,,,,,,,,,,,,,,,,,,,,,,,
6634fcc04fdb39573179fb61,SCN,2024-06-24_14h33.52.602,LearnStrategy,2023.2.3,MacIntel,60.0240096,,,,,,,,,,,3,08,1,6,,,,,,,,,,,,,,,,,,,,,,,,,,,,,
6634fcc04fdb39573179fb61,SCN,2024-06-24_14h33.52.602,LearnStrategy,2023.2.3,MacIntel,60.0240096,,,,,,,,,,,8,13,1,7,,,,,,,,,,,,,,,,,,,,,,,,,,,,,
6634fcc04fdb39573179fb61,SCN,2024-06-24_14h33.52.602,LearnStrategy,2023.2.3,MacIntel,60.0240096,,,,,,,,,,,4,10,1,8,,,,,,,,,,,,,,,,,,,,,,,,,,,,,
6634fcc04fdb39573179fb61,SCN,2024-06-24_14h33.52.602,LearnStrategy,2023.2.3,MacIntel,60.0240096,,,,,,,,,,,6,05,2,1,,,,,,,,,,,,,,,,,,,,,,,,,,,,,
6634fcc04fdb39573179fb61,SCN,2024-06-24_14h33.52.602,LearnStrategy,2023.2.3,MacIntel,60.0240096,,,,,,,,,,,4,01,2,2,,,,,,,,,,,,,,,,,,,,,,,,,,,,,
6634fcc04fdb39573179fb61,SCN,2024-06-24_14h33.52.602,LearnStrategy,2023.2.3,MacIntel,60.0240096,,,,,,,,,,,4,08,2,3,,,,,,,,,,,,,,,,,,,,,,,,,,,,,
6634fcc04fdb39573179fb61,SCN,2024-06-24_14h33.52.602,LearnStrategy,2023.2.3,MacIntel,60.0240096,,,,,,,,,,,8,05,2,4,,,,,,,,,,,,,,,,,,,,,,,,,,,,,
6634fcc04fdb39573179fb61,SCN,2024-06-24_14h33.52.602,LearnStrategy,2023.2.3,MacIntel,60.0240096,,,,,,,,,,,3,14,2,5,,,,,,,,,,,,,,,,,,,,,,,,,,,,,
6634fcc04fdb39573179fb61,SCN,2024-06-24_14h33.52.602,LearnStrategy,2023.2.3,MacIntel,60.0240096,,,,,,,,,,,1,04,2,6,,,,,,,,,,,,,,,,,,,,,,,,,,,,,
6634fcc04fdb39573179fb61,SCN,2024-06-24_14h33.52.602,LearnStrategy,2023.2.3,MacIntel,60.0240096,,,,,,,,,,,2,08,2,7,,,,,,,,,,,,,,,,,,,,,,,,,,,,,
6634fcc04fdb39573179fb61,SCN,2024-06-24_14h33.52.602,LearnStrategy,2023.2.3,MacIntel,60.0240096,,,,,,,,,,,5,04,2,8,,,,,,,,,,,,,,,,,,,,,,,,,,,,,
6634fcc04fdb39573179fb61,SCN,2024-06-24_14h33.52.602,LearnStrategy,2023.2.3,MacIntel,60.0240096,,,,,,,,,,,7,13,3,1,,,,,,,,,,,,,,,,,,,,,,,,,,,,,
6634fcc04fdb39573179fb61,SCN,2024-06-24_14h33.52.602,LearnStrategy,2023.2.3,MacIntel,60.0240096,,,,,,,,,,,8,10,3,2,,,,,,,,,,,,,,,,,,,,,,,,,,,,,
6634fcc04fdb39573179fb61,SCN,2024-06-24_14h33.52.602,LearnStrategy,2023.2.3,MacIntel,60.0240096,,,,,,,,,,,7,07,3,3,,,,,,,,,,,,,,,,,,,,,,,,,,,,,
6634fcc04fdb39573179fb61,SCN,2024-06-24_14h33.52.602,LearnStrategy,2023.2.3,MacIntel,60.0240096,,,,,,,,,,,4,12,3,4,,,,,,,,,,,,,,,,,,,,,,,,,,,,,
6634fcc04fdb39573179fb61,SCN,2024-06-24_14h33.52.602,LearnStrategy,2023.2.3,MacIntel,60.0240096,,,,,,,,,,,5,12,3,5,,,,,,,,,,,,,,,,,,,,,,,,,,,,,
6634fcc04fdb39573179fb61,SCN,2024-06-24_14h33.52.602,LearnStrategy,2023.2.3,MacIntel,60.0240096,,,,,,,,,,,6,13,3,6,,,,,,,,,,,,,,,,,,,,,,,,,,,,,
6634fcc04fdb39573179fb61,SCN,2024-06-24_14h33.52.602,LearnStrategy,2023.2.3,MacIntel,60.0240096,,,,,,,,,,,2,01,3,7,,,,,,,,,,,,,,,,,,,,,,,,,,,,,
6634fcc04fdb39573179fb61,SCN,2024-06-24_14h33.52.602,LearnStrategy,2023.2.3,MacIntel,60.0240096,,,,,,,,,,,1,05,3,8,,,,,,,,,,,,,,,,,,,,,,,,,,,,,
6634fcc04fdb39573179fb61,SCN,2024-06-24_14h33.52.602,LearnStrategy,2023.2.3,MacIntel,60.0240096,,,,,,,,,,,8,14,4,1,,,,,,,,,,,,,,,,,,,,,,,,,,,,,
6634fcc04fdb39573179fb61,SCN,2024-06-24_14h33.52.602,LearnStrategy,2023.2.3,MacIntel,60.0240096,,,,,,,,,,,4,05,4,2,,,,,,,,,,,,,,,,,,,,,,,,,,,,,
6634fcc04fdb39573179fb61,SCN,2024-06-24_14h33.52.602,LearnStrategy,2023.2.3,MacIntel,60.0240096,,,,,,,,,,,1,11,4,3,,,,,,,,,,,,,,,,,,,,,,,,,,,,,
6634fcc04fdb39573179fb61,SCN,2024-06-24_14h33.52.602,LearnStrategy,2023.2.3,MacIntel,60.0240096,,,,,,,,,,,3,02,4,4,,,,,,,,,,,,,,,,,,,,,,,,,,,,,
6634fcc04fdb39573179fb61,SCN,2024-06-24_14h33.52.602,LearnStrategy,2023.2.3,MacIntel,60.0240096,,,,,,,,,,,2,16,4,5,,,,,,,,,,,,,,,,,,,,,,,,,,,,,
6634fcc04fdb39573179fb61,SCN,2024-06-24_14h33.52.602,LearnStrategy,2023.2.3,MacIntel,60.0240096,,,,,,,,,,,5,05,4,6,,,,,,,,,,,,,,,,,,,,,,,,,,,,,
6634fcc04fdb39573179fb61,SCN,2024-06-24_14h33.52.602,LearnStrategy,2023.2.3,MacIntel,60.0240096,,,,,,,,,,,3,09,4,7,,,,,,,,,,,,,,,,,,,,,,,,,,,,,
6634fcc04fdb39573179fb61,SCN,2024-06-24_14h33.52.602,LearnStrategy,2023.2.3,MacIntel,60.0240096,,,,,,,,,,,2,05,4,8,,,,,,,,,,,,,,,,,,,,,,,,,,,,,
6634fcc04fdb39573179fb61,SCN,2024-06-24_14h33.52.602,LearnStrategy,2023.2.3,MacIntel,60.0240096,,,,,,,,,,,2,04,5,1,,,,,,,,,,,,,,,,,,,,,,,,,,,,,
6634fcc04fdb39573179fb61,SCN,2024-06-24_14h33.52.602,LearnStrategy,2023.2.3,MacIntel,60.0240096,,,,,,,,,,,8,16,5,2,,,,,,,,,,,,,,,,,,,,,,,,,,,,,
6634fcc04fdb39573179fb61,SCN,2024-06-24_14h33.52.602,LearnStrategy,2023.2.3,MacIntel,60.0240096,,,,,,,,,,,3,15,5,3,,,,,,,,,,,,,,,,,,,,,,,,,,,,,
6634fcc04fdb39573179fb61,SCN,2024-06-24_14h33.52.602,LearnStrategy,2023.2.3,MacIntel,60.0240096,,,,,,,,,,,7,04,5,4,,,,,,,,,,,,,,,,,,,,,,,,,,,,,
6634fcc04fdb39573179fb61,SCN,2024-06-24_14h33.52.602,LearnStrategy,2023.2.3,MacIntel,60.0240096,,,,,,,,,,,1,10,5,5,,,,,,,,,,,,,,,,,,,,,,,,,,,,,
6634fcc04fdb39573179fb61,SCN,2024-06-24_14h33.52.602,LearnStrategy,2023.2.3,MacIntel,60.0240096,,,,,,,,,,,5,10,5,6,,,,,,,,,,,,,,,,,,,,,,,,,,,,,
6634fcc04fdb39573179fb61,SCN,2024-06-24_14h33.52.602,LearnStrategy,2023.2.3,MacIntel,60.0240096,,,,,,,,,,,5,09,5,7,,,,,,,,,,,,,,,,,,,,,,,,,,,,,
6634fcc04fdb39573179fb61,SCN,2024-06-24_14h33.52.602,LearnStrategy,2023.2.3,MacIntel,60.0240096,,,,,,,,,,,1,03,5,8,,,,,,,,,,,,,,,,,,,,,,,,,,,,,
6634fcc04fdb39573179fb61,SCN,2024-06-24_14h33.52.602,LearnStrategy,2023.2.3,MacIntel,60.0240096,,,,,,,,,,,2,10,6,1,,,,,,,,,,,,,,,,,,,,,,,,,,,,,
6634fcc04fdb39573179fb61,SCN,2024-06-24_14h33.52.602,LearnStrategy,2023.2.3,MacIntel,60.0240096,,,,,,,,,,,6,12,6,2,,,,,,,,,,,,,,,,,,,,,,,,,,,,,
6634fcc04fdb39573179fb61,SCN,2024-06-24_14h33.52.602,LearnStrategy,2023.2.3,MacIntel,60.0240096,,,,,,,,,,,5,11,6,3,,,,,,,,,,,,,,,,,,,,,,,,,,,,,
6634fcc04fdb39573179fb61,SCN,2024-06-24_14h33.52.602,LearnStrategy,2023.2.3,MacIntel,60.0240096,,,,,,,,,,,4,14,6,4,,,,,,,,,,,,,,,,,,,,,,,,,,,,,
6634fcc04fdb39573179fb61,SCN,2024-06-24_14h33.52.602,LearnStrategy,2023.2.3,MacIntel,60.0240096,,,,,,,,,,,6,10,6,5,,,,,,,,,,,,,,,,,,,,,,,,,,,,,
6634fcc04fdb39573179fb61,SCN,2024-06-24_14h33.52.602,LearnStrategy,2023.2.3,MacIntel,60.0240096,,,,,,,,,,,7,12,6,6,,,,,,,,,,,,,,,,,,,,,,,,,,,,,
6634fcc04fdb39573179fb61,SCN,2024-06-24_14h33.52.602,LearnStrategy,2023.2.3,MacIntel,60.0240096,,,,,,,,,,,3,07,6,7,,,,,,,,,,,,,,,,,,,,,,,,,,,,,
6634fcc04fdb39573179fb61,SCN,2024-06-24_14h33.52.602,LearnStrategy,2023.2.3,MacIntel,60.0240096,,,,,,,,,,,7,15,6,8,,,,,,,,,,,,,,,,,,,,,,,,,,,,,