participant,condition,date,expName,psychopyVersion,OS,frameRate,block,phase,trial,learn_mouse.x,learn_mouse.y,learn_mouse.leftButton,learn_mouse.midButton,learn_mouse.rightButton,learn_mouse.time,learn_mouse.clicked_name,cat,token,row,col,t_select,cat_rec,token_rec,cat_mouse_l.x,cat_mouse_l.y,cat_mouse_l.leftButton,cat_mouse_l.midButton,cat_mouse_l.rightButton,cat_mouse_l.time,cat_mouse_l.clicked_name,resp,t_resp,corr,train_trials.thisRepN,train_trials.thisTrialN,train_trials.thisN,train_trials.thisIndex,train_trials.ran,cat_mouse_t.x,cat_mouse_t.y,cat_mouse_t.leftButton,cat_mouse_t.midButton,cat_mouse_t.rightButton,cat_mouse_t.time,cat_mouse_t.clicked_name,test_trials.thisRepN,test_trials.thisTrialN,test_trials.thisN,test_trials.thisIndex,test_trials.ran,Bonus
6636e27b4926cd0c965f3a47,SCR,2024-06-24_14h00.01.899,LearnStrategy,2023.2.3,Win32,60.24096386,,,,,,,,,,,,,,,,,,,,,,,,,,,,,,,,,,,,,,,,,,,,,
6636e27b4926cd0c965f3a47,SCR,2024-06-24_14h00.01.899,LearnStrategy,2023.2.3,Win32,60.24096386,1,1,1,-0.538541667,0.39375,1,0,0,16.5359,Andesite_16,1,16,6,1,16.536,8,15,-0.136458333,-0.234375,1,0,0,11.0912,Basalt_rect,2,11.091,0,0,0,0,0,1,,,,,,,,,,,,,
6636e27b4926cd0c965f3a47,SCR,2024-06-24_14h00.01.899,LearnStrategy,2023.2.3,Win32,60.24096386,1,1,2,-0.0765625,-0.099479167,1,0,0,6.5331,Peridotite_07,7,07,3,4,6.533,7,07,0.116666667,-0.244270833,1,0,0,9.5199,Diorite_rect,3,9.52,0,1,0,1,0,1,,,,,,,,,,,,,
6636e27b4926cd0c965f3a47,SCR,2024-06-24_14h00.01.899,LearnStrategy,2023.2.3,Win32,60.24096386,1,1,3,-0.065104167,0.3953125,1,0,0,8.1635,Diorite_12,3,12,6,4,8.163,3,12,0.109895833,-0.250520833,1,0,0,8.1702,Diorite_rect,3,8.17,1,2,0,2,0,1,,,,,,,,,,,,,
6636e27b4926cd0c965f3a47,SCR,2024-06-24_14h00.01.899,LearnStrategy,2023.2.3,Win32,60.24096386,1,1,4,0.075520833,-0.419270833,1,0,0,5.3454,Pegmatite_07,6,07,1,5,5.345,6,07,0.395833333,-0.244791667,1,0,0,10.7214,Gabbro_rect,4,10.721,0,3,0,3,0,1,,,,,,,,,,,,,
6636e27b4926cd0c965f3a47,SCR,2024-06-24_14h00.01.899,LearnStrategy,2023.2.3,Win32,60.24096386,1,1,5,-0.3859375,-0.0953125,1,0,0,13.7213,Pegmatite_08,6,08,3,2,13.721,5,09,-0.128125,-0.4078125,1,0,0,4.6383,Pegmatite_rect,6,4.638,1,4,0,4,0,1,,,,,,,,,,,,,
6636e27b4926cd0c965f3a47,SCR,2024-06-24_14h00.01.899,LearnStrategy,2023.2.3,Win32,60.24096386,1,1,6,0.3703125,-0.257291667,1,0,0,16.9655,Peridotite_16,7,16,2,7,16.966,3,08,0.121354167,-0.395833333,1,0,0,12.603,Peridotite_rect,7,12.603,1,5,0,5,0,1,,,,,,,,,,,,,
6636e27b4926cd0c965f3a47,SCR,2024-06-24_14h00.01.899,LearnStrategy,2023.2.3,Win32,60.24096386,1,1,7,0.2140625,0.427604167,1,0,0,2.2977,Pegmatite_09,6,09,6,6,2.298,8,04,-0.179166667,-0.399479167,1,0,0,6.8618,Pegmatite_rect,6,6.862,1,6,0,6,0,1,,,,,,,,,,,,,
6636e27b4926cd0c965f3a47,SCR,2024-06-24_14h00.01.899,LearnStrategy,2023.2.3,Win32,60.24096386,1,1,8,0.525,0.259895833,1,0,0,5.8637,Gabbro_15,4,15,5,8,5.864,4,15,0.109375,-0.253125,1,0,0,8.5299,Diorite_rect,3,8.53,0,7,0,7,0,1,,,,,,,,,,,,,
6636e27b4926cd0c965f3a47,SCR,2024-06-24_14h00.01.899,LearnStrategy,2023.2.3,Win32,60.24096386,1,1,9,0.228645833,-0.240625,1,0,0,2.0805,Basalt_12,2,12,2,6,2.081,2,12,0.342708333,-0.400520833,1,0,0,2.6964,Pumice_rect,8,2.696,0,8,0,8,0,1,,,,,,,,,,,,,
6636e27b4926cd0c965f3a47,SCR,2024-06-24_14h00.01.899,LearnStrategy,2023.2.3,Win32,60.24096386,1,1,10,-0.54375,0.436458333,1,0,0,3.3956,Andesite_16,1,16,6,1,3.396,6,08,-0.424479167,-0.230729167,1,0,0,14.5892,Andesite_rect,1,14.589,1,9,0,9,0,1,,,,,,,,,,,,,
6636e27b4926cd0c965f3a47,SCR,2024-06-24_14h00.01.899,LearnStrategy,2023.2.3,Win32,60.24096386,1,1,11,-0.084895833,-0.253645833,1,0,0,1.5972,Basalt_14,2,14,2,4,1.597,2,14,0.388020833,-0.394791667,1,0,0,2.5533,Pumice_rect,8,2.553,0,10,0,10,0,1,,,,,,,,,,,,,
6636e27b4926cd0c965f3a47,SCR,2024-06-24_14h00.01.899,LearnStrategy,2023.2.3,Win32,60.24096386,1,1,12,0.066666667,0.246354167,1,0,0,25.0463,Gabbro_11,4,11,5,5,25.046,5,12,0.134895833,-0.2390625,1,0,0,9.0571,Diorite_rect,3,9.057,0,11,0,11,0,1,,,,,,,,,,,,,
6636e27b4926cd0c965f3a47,SCR,2024-06-24_14h00.01.899,LearnStrategy,2023.2.3,Win32,60.24096386,1,1,13,0.4015625,0.416666667,1,0,0,3.0436,Obsidian_07,5,07,6,7,3.044,4,03,-0.397916667,-0.407291667,1,0,0,8.1394,Obsidian_rect,5,8.139,1,12,0,12,0,1,,,,,,,,,,,,,
6636e27b4926cd0c965f3a47,SCR,2024-06-24_14h00.01.899,LearnStrategy,2023.2.3,Win32,60.24096386,1,1,14,0.392708333,-0.403645833,1,0,0,7.0949,Andesite_14,1,14,1,7,7.095,1,04,-0.397395833,-0.2609375,1,0,0,10.7839,Andesite_rect,1,10.784,1,13,0,13,0,1,,,,,,,,,,,,,
6636e27b4926cd0c965f3a47,SCR,2024-06-24_14h00.01.899,LearnStrategy,2023.2.3,Win32,60.24096386,1,1,15,-0.547395833,0.108854167,1,0,0,2.2146,Pumice_15,8,15,4,1,2.215,7,04,0.379166667,-0.398958333,1,0,0,5.8306,Pumice_rect,8,5.831,1,14,0,14,0,1,,,,,,,,,,,,,
6636e27b4926cd0c965f3a47,SCR,2024-06-24_14h00.01.899,LearnStrategy,2023.2.3,Win32,60.24096386,1,1,16,0.076041667,-0.247916667,1,0,0,11.6144,Gabbro_01,4,01,2,5,11.614,1,06,0.372916667,-0.244270833,1,0,0,7.5903,Gabbro_rect,4,7.59,1,15,0,15,0,1,,,,,,,,,,,,,
6636e27b4926cd0c965f3a47,SCR,2024-06-24_14h00.01.899,LearnStrategy,2023.2.3,Win32,60.24096386,1,2,1,,,,,,,,8,05,,,,,,,,,,,,,8,61.097,1,,,,,,0.3953125,-0.391145833,1,0,0,61.097,Pumice_rect,0,0,0,0,1,
6636e27b4926cd0c965f3a47,SCR,2024-06-24_14h00.01.899,LearnStrategy,2023.2.3,Win32,60.24096386,1,2,2,,,,,,,,2,08,,,,,,,,,,,,,2,54.739,1,,,,,,-0.147395833,-0.233333333,1,0,0,54.7389,Basalt_rect,1,0,1,0,1,
6636e27b4926cd0c965f3a47,SCR,2024-06-24_14h00.01.899,LearnStrategy,2023.2.3,Win32,60.24096386,1,2,3,,,,,,,,6,12,,,,,,,,,,,,,6,12.538,1,,,,,,-0.108333333,-0.3984375,1,0,0,12.5384,Pegmatite_rect,2,0,2,0,1,
6636e27b4926cd0c965f3a47,SCR,2024-06-24_14h00.01.899,LearnStrategy,2023.2.3,Win32,60.24096386,1,2,4,,,,,,,,2,11,,,,,,,,,,,,,2,7.056,1,,,,,,-0.1375,-0.241666667,1,0,0,7.0559,Basalt_rect,3,0,3,0,1,
6636e27b4926cd0c965f3a47,SCR,2024-06-24_14h00.01.899,LearnStrategy,2023.2.3,Win32,60.24096386,1,2,5,,,,,,,,4,05,,,,,,,,,,,,,7,5.891,0,,,,,,0.1234375,-0.3953125,1,0,0,5.891,Peridotite_rect,4,0,4,0,1,
6636e27b4926cd0c965f3a47,SCR,2024-06-24_14h00.01.899,LearnStrategy,2023.2.3,Win32,60.24096386,1,2,6,,,,,,,,1,09,,,,,,,,,,,,,1,29.616,1,,,,,,-0.381770833,-0.261458333,1,0,0,29.6162,Andesite_rect,5,0,5,0,1,
6636e27b4926cd0c965f3a47,SCR,2024-06-24_14h00.01.899,LearnStrategy,2023.2.3,Win32,60.24096386,1,2,7,,,,,,,,7,06,,,,,,,,,,,,,6,2.137,0,,,,,,-0.152604167,-0.409375,1,0,0,2.1373,Pegmatite_rect,6,0,6,0,1,
6636e27b4926cd0c965f3a47,SCR,2024-06-24_14h00.01.899,LearnStrategy,2023.2.3,Win32,60.24096386,1,2,8,,,,,,,,3,11,,,,,,,,,,,,,3,14.837,1,,,,,,0.130729167,-0.233333333,1,0,0,14.8366,Diorite_rect,7,0,7,0,1,
6636e27b4926cd0c965f3a47,SCR,2024-06-24_14h00.01.899,LearnStrategy,2023.2.3,Win32,60.24096386,1,2,9,,,,,,,,4,10,,,,,,,,,,,,,2,16.804,0,,,,,,-0.1296875,-0.2578125,1,0,0,16.8038,Basalt_rect,8,0,8,0,1,
6636e27b4926cd0c965f3a47,SCR,2024-06-24_14h00.01.899,LearnStrategy,2023.2.3,Win32,60.24096386,1,2,10,,,,,,,,8,10,,,,,,,,,,,,,8,3.172,1,,,,,,0.3859375,-0.4078125,1,0,0,3.1724,Pumice_rect,9,0,9,0,1,
6636e27b4926cd0c965f3a47,SCR,2024-06-24_14h00.01.899,LearnStrategy,2023.2.3,Win32,60.24096386,1,2,11,,,,,,,,5,14,,,,,,,,,,,,,5,2.991,1,,,,,,-0.419270833,-0.392708333,1,0,0,2.9906,Obsidian_rect,10,0,10,0,1,
6636e27b4926cd0c965f3a47,SCR,2024-06-24_14h00.01.899,LearnStrategy,2023.2.3,Win32,60.24096386,1,2,12,,,,,,,,1,07,,,,,,,,,,,,,1,37.857,1,,,,,,-0.350520833,-0.253125,1,0,0,37.8571,Andesite_rect,11,0,11,0,1,
6636e27b4926cd0c965f3a47,SCR,2024-06-24_14h00.01.899,LearnStrategy,2023.2.3,Win32,60.24096386,1,2,13,,,,,,,,7,02,,,,,,,,,,,,,7,4.271,1,,,,,,0.0734375,-0.414583333,1,0,0,4.2712,Peridotite_rect,12,0,12,0,1,
6636e27b4926cd0c965f3a47,SCR,2024-06-24_14h00.01.899,LearnStrategy,2023.2.3,Win32,60.24096386,1,2,14,,,,,,,,3,14,,,,,,,,,,,,,6,6.751,0,,,,,,-0.115625,-0.401041667,1,0,0,6.7509,Pegmatite_rect,13,0,13,0,1,
6636e27b4926cd0c965f3a47,SCR,2024-06-24_14h00.01.899,LearnStrategy,2023.2.3,Win32,60.24096386,1,2,15,,,,,,,,5,16,,,,,,,,,,,,,5,1.91,1,,,,,,-0.377604167,-0.3921875,1,0,0,1.9101,Obsidian_rect,14,0,14,0,1,
6636e27b4926cd0c965f3a47,SCR,2024-06-24_14h00.01.899,LearnStrategy,2023.2.3,Win32,60.24096386,1,2,16,,,,,,,,6,13,,,,,,,,,,,,,5,26.5,0,,,,,,-0.394270833,-0.402604167,1,0,0,26.5001,Obsidian_rect,15,0,15,0,1,
6636e27b4926cd0c965f3a47,SCR,2024-06-24_14h00.01.899,LearnStrategy,2023.2.3,Win32,60.24096386,2,1,1,0.417708333,0.248958333,1,0,0,30.113,Diorite_06,3,06,5,7,30.113,6,03,0.380208333,-0.259895833,1,0,0,8.6094,Gabbro_rect,4,8.609,0,0,0,0,0,1,,,,,,,,,,,,,
6636e27b4926cd0c965f3a47,SCR,2024-06-24_14h00.01.899,LearnStrategy,2023.2.3,Win32,60.24096386,2,1,2,0.225,-0.111979167,1,0,0,12.098,Diorite_10,3,10,3,6,12.098,2,12,0.351041667,-0.246354167,1,0,0,9.7908,Gabbro_rect,4,9.791,0,1,0,1,0,1,,,,,,,,,,,,,
6636e27b4926cd0c965f3a47,SCR,2024-06-24_14h00.01.899,LearnStrategy,2023.2.3,Win32,60.24096386,2,1,3,0.08125,0.080208333,1,0,0,14.0228,Andesite_04,1,04,4,5,14.023,5,05,-0.13125,-0.408333333,1,0,0,7.0055,Pegmatite_rect,6,7.005,0,2,0,2,0,1,,,,,,,,,,,,,
6636e27b4926cd0c965f3a47,SCR,2024-06-24_14h00.01.899,LearnStrategy,2023.2.3,Win32,60.24096386,2,1,4,-0.259375,-0.110416667,1,0,0,3.9952,Andesite_01,1,01,3,3,3.995,7,16,-0.114583333,-0.25,1,0,0,2.989,Basalt_rect,2,2.989,0,3,0,3,0,1,,,,,,,,,,,,,
6636e27b4926cd0c965f3a47,SCR,2024-06-24_14h00.01.899,LearnStrategy,2023.2.3,Win32,60.24096386,2,1,5,0.054166667,0.41875,1,0,0,7.7994,Gabbro_13,4,13,6,5,7.799,3,08,0.395833333,-0.252604167,1,0,0,3.1978,Gabbro_rect,4,3.198,1,4,0,4,0,1,,,,,,,,,,,,,
6636e27b4926cd0c965f3a47,SCR,2024-06-24_14h00.01.899,LearnStrategy,2023.2.3,Win32,60.24096386,2,1,6,-0.361458333,0.083854167,1,0,0,6.3889,Diorite_02,3,02,4,2,6.389,4,15,0.397395833,-0.255208333,1,0,0,8.4648,Gabbro_rect,4,8.465,0,5,0,5,0,1,,,,,,,,,,,,,
6636e27b4926cd0c965f3a47,SCR,2024-06-24_14h00.01.899,LearnStrategy,2023.2.3,Win32,60.24096386,2,1,7,0.073958333,0.236458333,1,0,0,7.8823,Gabbro_11,4,11,5,5,7.882,4,11,0.1015625,-0.251041667,1,0,0,5.297,Diorite_rect,3,5.297,0,6,0,6,0,1,,,,,,,,,,,,,
6636e27b4926cd0c965f3a47,SCR,2024-06-24_14h00.01.899,LearnStrategy,2023.2.3,Win32,60.24096386,2,1,8,0.402083333,0.269791667,1,0,0,2.1477,Diorite_06,3,06,5,7,2.148,4,11,0.365625,-0.258333333,1,0,0,3.2792,Gabbro_rect,4,3.279,0,7,0,7,0,1,,,,,,,,,,,,,
6636e27b4926cd0c965f3a47,SCR,2024-06-24_14h00.01.899,LearnStrategy,2023.2.3,Win32,60.24096386,2,1,9,-0.23125,0.109375,1,0,0,1.6296,Peridotite_04,7,04,4,3,1.63,7,16,-0.178645833,-0.406770833,1,0,0,2.3708,Pegmatite_rect,6,2.371,0,8,0,8,0,1,,,,,,,,,,,,,
6636e27b4926cd0c965f3a47,SCR,2024-06-24_14h00.01.899,LearnStrategy,2023.2.3,Win32,60.24096386,2,1,10,-0.257291667,0.247916667,1,0,0,3.7298,Basalt_09,2,09,5,3,3.73,7,10,-0.109895833,-0.25,1,0,0,3.3212,Basalt_rect,2,3.321,1,9,0,9,0,1,,,,,,,,,,,,,
6636e27b4926cd0c965f3a47,SCR,2024-06-24_14h00.01.899,LearnStrategy,2023.2.3,Win32,60.24096386,2,1,11,0.046354167,0.100520833,1,0,0,2.3451,Andesite_04,1,04,4,5,2.345,3,10,0.430208333,-0.240104167,1,0,0,2.9801,Gabbro_rect,4,2.98,0,10,0,10,0,1,,,,,,,,,,,,,
6636e27b4926cd0c965f3a47,SCR,2024-06-24_14h00.01.899,LearnStrategy,2023.2.3,Win32,60.24096386,2,1,12,-0.0734375,-0.4140625,1,0,0,2.1902,Diorite_16,3,16,1,4,2.19,4,03,0.411458333,-0.243229167,1,0,0,2.3223,Gabbro_rect,4,2.322,0,11,0,11,0,1,,,,,,,,,,,,,
6636e27b4926cd0c965f3a47,SCR,2024-06-24_14h00.01.899,LearnStrategy,2023.2.3,Win32,60.24096386,2,1,13,-0.190104167,-0.405208333,1,0,0,5.2448,Gabbro_03,4,03,1,3,5.245,6,09,0.189583333,-0.254166667,1,0,0,2.4383,Diorite_rect,3,2.438,0,12,0,12,0,1,,,,,,,,,,,,,
6636e27b4926cd0c965f3a47,SCR,2024-06-24_14h00.01.899,LearnStrategy,2023.2.3,Win32,60.24096386,2,1,14,-0.250520833,-0.3953125,1,0,0,1.6959,Gabbro_03,4,03,1,3,1.696,6,07,0.328645833,-0.247916667,1,0,0,3.1046,Gabbro_rect,4,3.105,1,13,0,13,0,1,,,,,,,,,,,,,
6636e27b4926cd0c965f3a47,SCR,2024-06-24_14h00.01.899,LearnStrategy,2023.2.3,Win32,60.24096386,2,1,15,0.390104167,0.2640625,1,0,0,1.9477,Diorite_06,3,06,5,7,1.948,3,10,0.393229167,-0.253645833,1,0,0,3.4544,Gabbro_rect,4,3.454,0,14,0,14,0,1,,,,,,,,,,,,,
6636e27b4926cd0c965f3a47,SCR,2024-06-24_14h00.01.899,LearnStrategy,2023.2.3,Win32,60.24096386,2,1,16,-0.388020833,0.406770833,1,0,0,4.6469,Peridotite_10,7,10,6,2,4.647,4,15,0.146354167,-0.420833333,1,0,0,3.9888,Peridotite_rect,7,3.989,1,15,0,15,0,1,,,,,,,,,,,,,
6636e27b4926cd0c965f3a47,SCR,2024-06-24_14h00.01.899,LearnStrategy,2023.2.3,Win32,60.24096386,2,2,1,,,,,,,,7,15,,,,,,,,,,,,,7,4.99,1,,,,,,0.089583333,-0.419791667,1,0,0,4.9897,Peridotite_rect,0,0,0,0,1,
6636e27b4926cd0c965f3a47,SCR,2024-06-24_14h00.01.899,LearnStrategy,2023.2.3,Win32,60.24096386,2,2,2,,,,,,,,4,08,,,,,,,,,,,,,2,16.688,0,,,,,,-0.110416667,-0.250520833,1,0,0,16.6882,Basalt_rect,1,0,1,0,1,
6636e27b4926cd0c965f3a47,SCR,2024-06-24_14h00.01.899,LearnStrategy,2023.2.3,Win32,60.24096386,2,2,3,,,,,,,,1,02,,,,,,,,,,,,,6,10.09,0,,,,,,-0.140104167,-0.394270833,1,0,0,10.0895,Pegmatite_rect,2,0,2,0,1,
6636e27b4926cd0c965f3a47,SCR,2024-06-24_14h00.01.899,LearnStrategy,2023.2.3,Win32,60.24096386,2,2,4,,,,,,,,5,10,,,,,,,,,,,,,5,1.439,1,,,,,,-0.3828125,-0.416145833,1,0,0,1.4388,Obsidian_rect,3,0,3,0,1,
6636e27b4926cd0c965f3a47,SCR,2024-06-24_14h00.01.899,LearnStrategy,2023.2.3,Win32,60.24096386,2,2,5,,,,,,,,4,14,,,,,,,,,,,,,2,7.14,0,,,,,,-0.1453125,-0.234375,1,0,0,7.1398,Basalt_rect,4,0,4,0,1,
6636e27b4926cd0c965f3a47,SCR,2024-06-24_14h00.01.899,LearnStrategy,2023.2.3,Win32,60.24096386,2,2,6,,,,,,,,2,02,,,,,,,,,,,,,2,12.488,1,,,,,,-0.158333333,-0.230729167,1,0,0,12.4883,Basalt_rect,5,0,5,0,1,
6636e27b4926cd0c965f3a47,SCR,2024-06-24_14h00.01.899,LearnStrategy,2023.2.3,Win32,60.24096386,2,2,7,,,,,,,,8,08,,,,,,,,,,,,,8,33.516,1,,,,,,0.394270833,-0.385416667,1,0,0,33.5163,Pumice_rect,6,0,6,0,1,
6636e27b4926cd0c965f3a47,SCR,2024-06-24_14h00.01.899,LearnStrategy,2023.2.3,Win32,60.24096386,2,2,8,,,,,,,,6,10,,,,,,,,,,,,,7,23.789,0,,,,,,0.103125,-0.409895833,1,0,0,23.7886,Peridotite_rect,7,0,7,0,1,
6636e27b4926cd0c965f3a47,SCR,2024-06-24_14h00.01.899,LearnStrategy,2023.2.3,Win32,60.24096386,2,2,9,,,,,,,,5,06,,,,,,,,,,,,,5,1.564,1,,,,,,-0.3609375,-0.4140625,1,0,0,1.5642,Obsidian_rect,8,0,8,0,1,
6636e27b4926cd0c965f3a47,SCR,2024-06-24_14h00.01.899,LearnStrategy,2023.2.3,Win32,60.24096386,2,2,10,,,,,,,,3,15,,,,,,,,,,,,,3,24.956,1,,,,,,0.0984375,-0.2546875,1,0,0,24.956,Diorite_rect,9,0,9,0,1,
6636e27b4926cd0c965f3a47,SCR,2024-06-24_14h00.01.899,LearnStrategy,2023.2.3,Win32,60.24096386,2,2,11,,,,,,,,2,01,,,,,,,,,,,,,2,2.036,1,,,,,,-0.161458333,-0.249479167,1,0,0,2.0365,Basalt_rect,10,0,10,0,1,
6636e27b4926cd0c965f3a47,SCR,2024-06-24_14h00.01.899,LearnStrategy,2023.2.3,Win32,60.24096386,2,2,12,,,,,,,,8,13,,,,,,,,,,,,,8,4.523,1,,,,,,0.380729167,-0.401041667,1,0,0,4.5229,Pumice_rect,11,0,11,0,1,
6636e27b4926cd0c965f3a47,SCR,2024-06-24_14h00.01.899,LearnStrategy,2023.2.3,Win32,60.24096386,2,2,13,,,,,,,,1,11,,,,,,,,,,,,,6,38.69,0,,,,,,-0.14375,-0.389583333,1,0,0,38.69,Pegmatite_rect,12,0,12,0,1,
6636e27b4926cd0c965f3a47,SCR,2024-06-24_14h00.01.899,LearnStrategy,2023.2.3,Win32,60.24096386,2,2,14,,,,,,,,6,16,,,,,,,,,,,,,6,13.905,1,,,,,,-0.159375,-0.3796875,1,0,0,13.9047,Pegmatite_rect,13,0,13,0,1,
6636e27b4926cd0c965f3a47,SCR,2024-06-24_14h00.01.899,LearnStrategy,2023.2.3,Win32,60.24096386,2,2,15,,,,,,,,7,14,,,,,,,,,,,,,7,3.272,1,,,,,,0.128125,-0.402083333,1,0,0,3.2724,Peridotite_rect,14,0,14,0,1,
6636e27b4926cd0c965f3a47,SCR,2024-06-24_14h00.01.899,LearnStrategy,2023.2.3,Win32,60.24096386,2,2,16,,,,,,,,3,13,,,,,,,,,,,,,4,12.79,0,,,,,,0.346354167,-0.236458333,1,0,0,12.7898,Gabbro_rect,15,0,15,0,1,
6636e27b4926cd0c965f3a47,SCR,2024-06-24_14h00.01.899,LearnStrategy,2023.2.3,Win32,60.24096386,3,1,1,0.5546875,-0.393229167,1,0,0,7.1659,Peridotite_13,7,13,1,8,7.166,6,07,0.131770833,-0.3984375,1,0,0,3.7878,Peridotite_rect,7,3.788,1,0,0,0,0,1,,,,,,,,,,,,,
6636e27b4926cd0c965f3a47,SCR,2024-06-24_14h00.01.899,LearnStrategy,2023.2.3,Win32,60.24096386,3,1,2,-0.0515625,-0.406770833,1,0,0,9.7901,Diorite_16,3,16,1,4,9.79,2,14,0.397395833,-0.2515625,1,0,0,5.014,Gabbro_rect,4,5.014,0,1,0,1,0,1,,,,,,,,,,,,,
6636e27b4926cd0c965f3a47,SCR,2024-06-24_14h00.01.899,LearnStrategy,2023.2.3,Win32,60.24096386,3,1,3,-0.231770833,-0.3984375,1,0,0,1.7793,Gabbro_03,4,03,1,3,1.779,3,08,0.128125,-0.240104167,1,0,0,1.5383,Diorite_rect,3,1.538,0,2,0,2,0,1,,,,,,,,,,,,,
6636e27b4926cd0c965f3a47,SCR,2024-06-24_14h00.01.899,LearnStrategy,2023.2.3,Win32,60.24096386,3,1,4,0.076041667,0.254166667,1,0,0,35.0808,Gabbro_11,4,11,5,5,35.081,8,03,0.136458333,-0.243229167,1,0,0,1.5701,Diorite_rect,3,1.57,0,3,0,3,0,1,,,,,,,,,,,,,
6636e27b4926cd0c965f3a47,SCR,2024-06-24_14h00.01.899,LearnStrategy,2023.2.3,Win32,60.24096386,3,1,5,0.403645833,0.26875,1,0,0,1.2156,Diorite_06,3,06,5,7,1.216,5,05,0.1296875,-0.253125,1,0,0,1.279,Diorite_rect,3,1.279,1,4,0,4,0,1,,,,,,,,,,,,,
6636e27b4926cd0c965f3a47,SCR,2024-06-24_14h00.01.899,LearnStrategy,2023.2.3,Win32,60.24096386,3,1,6,-0.208854167,0.240625,1,0,0,2.3956,Basalt_09,2,09,5,3,2.396,4,01,-0.143229167,-0.234375,1,0,0,3.3879,Basalt_rect,2,3.388,1,5,0,5,0,1,,,,,,,,,,,,,
6636e27b4926cd0c965f3a47,SCR,2024-06-24_14h00.01.899,LearnStrategy,2023.2.3,Win32,60.24096386,3,1,7,-0.122916667,-0.4140625,1,0,0,3.5469,Diorite_16,3,16,1,4,3.547,3,12,0.108854167,-0.258333333,1,0,0,3.5554,Diorite_rect,3,3.555,1,6,0,6,0,1,,,,,,,,,,,,,
6636e27b4926cd0c965f3a47,SCR,2024-06-24_14h00.01.899,LearnStrategy,2023.2.3,Win32,60.24096386,3,1,8,-0.223958333,-0.411458333,1,0,0,1.4129,Gabbro_03,4,03,1,3,1.413,4,11,0.078125,-0.242708333,1,0,0,2.19,Diorite_rect,3,2.19,0,7,0,7,0,1,,,,,,,,,,,,,
6636e27b4926cd0c965f3a47,SCR,2024-06-24_14h00.01.899,LearnStrategy,2023.2.3,Win32,60.24096386,3,1,9,-0.215625,-0.1125,1,0,0,6.7969,Andesite_01,1,01,3,3,6.797,4,01,0.391145833,-0.2625,1,0,0,5.1705,Gabbro_rect,4,5.17,0,8,0,8,0,1,,,,,,,,,,,,,
6636e27b4926cd0c965f3a47,SCR,2024-06-24_14h00.01.899,LearnStrategy,2023.2.3,Win32,60.24096386,3,1,10,-0.229166667,-0.085416667,1,0,0,2.0089,Andesite_01,1,01,3,3,2.009,1,14,-0.370833333,-0.242708333,1,0,0,27.2341,Andesite_rect,1,27.234,1,9,0,9,0,1,,,,,,,,,,,,,
6636e27b4926cd0c965f3a47,SCR,2024-06-24_14h00.01.899,LearnStrategy,2023.2.3,Win32,60.24096386,3,1,11,-0.55,0.40625,1,0,0,1.9973,Andesite_16,1,16,6,1,1.997,4,15,-0.368229167,-0.265625,1,0,0,1.6203,Andesite_rect,1,1.62,1,10,0,10,0,1,,,,,,,,,,,,,
6636e27b4926cd0c965f3a47,SCR,2024-06-24_14h00.01.899,LearnStrategy,2023.2.3,Win32,60.24096386,3,1,12,0.404166667,0.246354167,1,0,0,7.1973,Diorite_06,3,06,5,7,7.197,6,11,0.131770833,-0.2421875,1,0,0,6.3219,Diorite_rect,3,6.322,1,11,0,11,0,1,,,,,,,,,,,,,
6636e27b4926cd0c965f3a47,SCR,2024-06-24_14h00.01.899,LearnStrategy,2023.2.3,Win32,60.24096386,3,1,13,0.243229167,-0.096875,1,0,0,4.8489,Diorite_10,3,10,3,6,4.849,1,16,0.084895833,-0.2515625,1,0,0,5.6365,Diorite_rect,3,5.637,1,12,0,12,0,1,,,,,,,,,,,,,
6636e27b4926cd0c965f3a47,SCR,2024-06-24_14h00.01.899,LearnStrategy,2023.2.3,Win32,60.24096386,3,1,14,-0.520833333,-0.409895833,1,0,0,2.5465,Obsidian_05,5,05,1,1,2.547,1,06,-0.4328125,-0.380208333,1,0,0,2.2735,Obsidian_rect,5,2.274,1,13,0,13,0,1,,,,,,,,,,,,,
6636e27b4926cd0c965f3a47,SCR,2024-06-24_14h00.01.899,LearnStrategy,2023.2.3,Win32,60.24096386,3,1,15,-0.515104167,-0.2484375,1,0,0,2.3648,Diorite_08,3,08,2,1,2.365,6,07,0.140104167,-0.263020833,1,0,0,4.1214,Diorite_rect,3,4.121,1,14,0,14,0,1,,,,,,,,,,,,,
6636e27b4926cd0c965f3a47,SCR,2024-06-24_14h00.01.899,LearnStrategy,2023.2.3,Win32,60.24096386,3,1,16,-0.253125,0.0734375,1,0,0,5.1792,Peridotite_04,7,04,4,3,5.179,7,13,0.163020833,-0.388541667,1,0,0,6.021,Peridotite_rect,7,6.021,1,15,0,15,0,1,,,,,,,,,,,,,
6636e27b4926cd0c965f3a47,SCR,2024-06-24_14h00.01.899,LearnStrategy,2023.2.3,Win32,60.24096386,3,2,1,,,,,,,,3,07,,,,,,,,,,,,,3,6.226,1,,,,,,0.1421875,-0.253645833,1,0,0,6.2264,Diorite_rect,0,0,0,0,1,
6636e27b4926cd0c965f3a47,SCR,2024-06-24_14h00.01.899,LearnStrategy,2023.2.3,Win32,60.24096386,3,2,2,,,,,,,,5,08,,,,,,,,,,,,,5,1.494,1,,,,,,-0.419270833,-0.400520833,1,0,0,1.4937,Obsidian_rect,1,0,1,0,1,
6636e27b4926cd0c965f3a47,SCR,2024-06-24_14h00.01.899,LearnStrategy,2023.2.3,Win32,60.24096386,3,2,3,,,,,,,,8,02,,,,,,,,,,,,,8,2.805,1,,,,,,0.377083333,-0.4015625,1,0,0,2.805,Pumice_rect,2,0,2,0,1,
6636e27b4926cd0c965f3a47,SCR,2024-06-24_14h00.01.899,LearnStrategy,2023.2.3,Win32,60.24096386,3,2,4,,,,,,,,5,11,,,,,,,,,,,,,5,1.416,1,,,,,,-0.396354167,-0.391666667,1,0,0,1.4155,Obsidian_rect,3,0,3,0,1,
6636e27b4926cd0c965f3a47,SCR,2024-06-24_14h00.01.899,LearnStrategy,2023.2.3,Win32,60.24096386,3,2,5,,,,,,,,1,03,,,,,,,,,,,,,1,13.223,1,,,,,,-0.4078125,-0.239583333,1,0,0,13.2227,Andesite_rect,4,0,4,0,1,
6636e27b4926cd0c965f3a47,SCR,2024-06-24_14h00.01.899,LearnStrategy,2023.2.3,Win32,60.24096386,3,2,6,,,,,,,,4,12,,,,,,,,,,,,,4,12.455,1,,,,,,0.408333333,-0.250520833,1,0,0,12.4552,Gabbro_rect,5,0,5,0,1,
6636e27b4926cd0c965f3a47,SCR,2024-06-24_14h00.01.899,LearnStrategy,2023.2.3,Win32,60.24096386,3,2,7,,,,,,,,7,08,,,,,,,,,,,,,7,9.223,1,,,,,,0.125520833,-0.409895833,1,0,0,9.2232,Peridotite_rect,6,0,6,0,1,
6636e27b4926cd0c965f3a47,SCR,2024-06-24_14h00.01.899,LearnStrategy,2023.2.3,Win32,60.24096386,3,2,8,,,,,,,,1,05,,,,,,,,,,,,,6,21.99,0,,,,,,-0.130729167,-0.40625,1,0,0,21.9898,Pegmatite_rect,7,0,7,0,1,
6636e27b4926cd0c965f3a47,SCR,2024-06-24_14h00.01.899,LearnStrategy,2023.2.3,Win32,60.24096386,3,2,9,,,,,,,,4,09,,,,,,,,,,,,,2,5.67,0,,,,,,-0.135416667,-0.238020833,1,0,0,5.6704,Basalt_rect,8,0,8,0,1,
6636e27b4926cd0c965f3a47,SCR,2024-06-24_14h00.01.899,LearnStrategy,2023.2.3,Win32,60.24096386,3,2,10,,,,,,,,8,06,,,,,,,,,,,,,8,1.501,1,,,,,,0.3703125,-0.403125,1,0,0,1.5007,Pumice_rect,9,0,9,0,1,
6636e27b4926cd0c965f3a47,SCR,2024-06-24_14h00.01.899,LearnStrategy,2023.2.3,Win32,60.24096386,3,2,11,,,,,,,,6,06,,,,,,,,,,,,,6,36.091,1,,,,,,-0.146354167,-0.409375,1,0,0,36.0907,Pegmatite_rect,10,0,10,0,1,
6636e27b4926cd0c965f3a47,SCR,2024-06-24_14h00.01.899,LearnStrategy,2023.2.3,Win32,60.24096386,3,2,12,,,,,,,,3,09,,,,,,,,,,,,,3,9.738,1,,,,,,0.129166667,-0.241145833,1,0,0,9.7377,Diorite_rect,11,0,11,0,1,
6636e27b4926cd0c965f3a47,SCR,2024-06-24_14h00.01.899,LearnStrategy,2023.2.3,Win32,60.24096386,3,2,13,,,,,,,,2,10,,,,,,,,,,,,,2,2.322,1,,,,,,-0.165625,-0.25,1,0,0,2.3224,Basalt_rect,12,0,12,0,1,
6636e27b4926cd0c965f3a47,SCR,2024-06-24_14h00.01.899,LearnStrategy,2023.2.3,Win32,60.24096386,3,2,14,,,,,,,,6,15,,,,,,,,,,,,,6,15.425,1,,,,,,-0.1125,-0.393229167,1,0,0,15.4248,Pegmatite_rect,13,0,13,0,1,
6636e27b4926cd0c965f3a47,SCR,2024-06-24_14h00.01.899,LearnStrategy,2023.2.3,Win32,60.24096386,3,2,15,,,,,,,,2,16,,,,,,,,,,,,,2,4.006,1,,,,,,-0.0984375,-0.2453125,1,0,0,4.0065,Basalt_rect,14,0,14,0,1,
6636e27b4926cd0c965f3a47,SCR,2024-06-24_14h00.01.899,LearnStrategy,2023.2.3,Win32,60.24096386,3,2,16,,,,,,,,7,12,,,,,,,,,,,,,7,2.973,1,,,,,,0.109895833,-0.4078125,1,0,0,2.973,Peridotite_rect,15,0,15,0,1,
6636e27b4926cd0c965f3a47,SCR,2024-06-24_14h00.01.899,LearnStrategy,2023.2.3,Win32,60.24096386,4,1,1,-0.097916667,-0.086979167,1,0,0,8.3321,Peridotite_07,7,07,3,4,8.332,2,12,0.157291667,-0.408333333,1,0,0,1.9857,Peridotite_rect,7,1.986,1,0,0,0,0,1,,,,,,,,,,,,,
6636e27b4926cd0c965f3a47,SCR,2024-06-24_14h00.01.899,LearnStrategy,2023.2.3,Win32,60.24096386,4,1,2,-0.220833333,-0.094791667,1,0,0,1.7636,Andesite_01,1,01,3,3,1.764,4,03,-0.372395833,-0.255208333,1,0,0,1.9208,Andesite_rect,1,1.921,1,1,0,1,0,1,,,,,,,,,,,,,
6636e27b4926cd0c965f3a47,SCR,2024-06-24_14h00.01.899,LearnStrategy,2023.2.3,Win32,60.24096386,4,1,3,0.589583333,-0.09375,1,0,0,1.9395,Andesite_06,1,06,3,8,1.939,1,06,0.216145833,-0.244270833,1,0,0,3.4799,Diorite_rect,3,3.48,0,2,0,2,0,1,,,,,,,,,,,,,
6636e27b4926cd0c965f3a47,SCR,2024-06-24_14h00.01.899,LearnStrategy,2023.2.3,Win32,60.24096386,4,1,4,0.0890625,0.25625,1,0,0,12.6965,Gabbro_11,4,11,5,5,12.697,3,10,-0.355208333,-0.228645833,1,0,0,2.8381,Andesite_rect,1,2.838,0,3,0,3,0,1,,,,,,,,,,,,,
6636e27b4926cd0c965f3a47,SCR,2024-06-24_14h00.01.899,LearnStrategy,2023.2.3,Win32,60.24096386,4,1,5,0.369791667,0.25,1,0,0,3.3298,Diorite_06,3,06,5,7,3.33,1,16,0.147916667,-0.2390625,1,0,0,3.3809,Diorite_rect,3,3.381,1,4,0,4,0,1,,,,,,,,,,,,,
6636e27b4926cd0c965f3a47,SCR,2024-06-24_14h00.01.899,LearnStrategy,2023.2.3,Win32,60.24096386,4,1,6,-0.4984375,0.2578125,1,0,0,4.63,Pegmatite_05,6,05,5,1,4.63,6,07,-0.0734375,-0.398958333,1,0,0,3.6331,Pegmatite_rect,6,3.633,1,5,0,5,0,1,,,,,,,,,,,,,
6636e27b4926cd0c965f3a47,SCR,2024-06-24_14h00.01.899,LearnStrategy,2023.2.3,Win32,60.24096386,4,1,7,-0.390625,0.105208333,1,0,0,2.2844,Diorite_02,3,02,4,2,2.284,7,13,0.125520833,-0.253125,1,0,0,2.6804,Diorite_rect,3,2.68,1,6,0,6,0,1,,,,,,,,,,,,,
6636e27b4926cd0c965f3a47,SCR,2024-06-24_14h00.01.899,LearnStrategy,2023.2.3,Win32,60.24096386,4,1,8,-0.5671875,-0.097916667,1,0,0,1.8308,Andesite_10,1,10,3,1,1.831,4,03,-0.407291667,-0.250520833,1,0,0,6.7377,Andesite_rect,1,6.738,1,7,0,7,0,1,,,,,,,,,,,,,
6636e27b4926cd0c965f3a47,SCR,2024-06-24_14h00.01.899,LearnStrategy,2023.2.3,Win32,60.24096386,4,1,9,0.528125,0.25,1,0,0,3.6115,Gabbro_15,4,15,5,8,3.611,3,06,0.113020833,-0.248958333,1,0,0,13.6724,Diorite_rect,3,13.672,0,8,0,8,0,1,,,,,,,,,,,,,
6636e27b4926cd0c965f3a47,SCR,2024-06-24_14h00.01.899,LearnStrategy,2023.2.3,Win32,60.24096386,4,1,10,0.405729167,-0.101041667,1,0,0,2.48,Gabbro_16,4,16,3,7,2.48,1,06,-0.0734375,-0.2328125,1,0,0,2.4705,Basalt_rect,2,2.47,0,9,0,9,0,1,,,,,,,,,,,,,
6636e27b4926cd0c965f3a47,SCR,2024-06-24_14h00.01.899,LearnStrategy,2023.2.3,Win32,60.24096386,4,1,11,0.085416667,0.4234375,1,0,0,4.8294,Gabbro_13,4,13,6,5,4.829,4,15,0.356770833,-0.247916667,1,0,0,3.0727,Gabbro_rect,4,3.073,1,10,0,10,0,1,,,,,,,,,,,,,
6636e27b4926cd0c965f3a47,SCR,2024-06-24_14h00.01.899,LearnStrategy,2023.2.3,Win32,60.24096386,4,1,12,0.2375,-0.109895833,1,0,0,1.5468,Diorite_10,3,10,3,6,1.547,6,11,0.147395833,-0.255729167,1,0,0,2.5868,Diorite_rect,3,2.587,1,11,0,11,0,1,,,,,,,,,,,,,
6636e27b4926cd0c965f3a47,SCR,2024-06-24_14h00.01.899,LearnStrategy,2023.2.3,Win32,60.24096386,4,1,13,-0.080208333,-0.090104167,1,0,0,6.1305,Peridotite_07,7,07,3,4,6.13,4,11,0.109375,-0.4078125,1,0,0,1.9718,Peridotite_rect,7,1.972,1,12,0,12,0,1,,,,,,,,,,,,,
6636e27b4926cd0c965f3a47,SCR,2024-06-24_14h00.01.899,LearnStrategy,2023.2.3,Win32,60.24096386,4,1,14,-0.555208333,-0.1140625,1,0,0,5.0986,Andesite_10,1,10,3,1,5.099,5,05,-0.404166667,-0.261458333,1,0,0,1.7202,Andesite_rect,1,1.72,1,13,0,13,0,1,,,,,,,,,,,,,
6636e27b4926cd0c965f3a47,SCR,2024-06-24_14h00.01.899,LearnStrategy,2023.2.3,Win32,60.24096386,4,1,15,-0.5578125,-0.259895833,1,0,0,2.4636,Diorite_08,3,08,2,1,2.464,4,01,0.131770833,-0.244270833,1,0,0,6.139,Diorite_rect,3,6.139,1,14,0,14,0,1,,,,,,,,,,,,,
6636e27b4926cd0c965f3a47,SCR,2024-06-24_14h00.01.899,LearnStrategy,2023.2.3,Win32,60.24096386,4,1,16,-0.095833333,0.409895833,1,0,0,1.9472,Diorite_12,3,12,6,4,1.947,8,14,0.124479167,-0.2359375,1,0,0,1.3752,Diorite_rect,3,1.375,1,15,0,15,0,1,,,,,,,,,,,,,
6636e27b4926cd0c965f3a47,SCR,2024-06-24_14h00.01.899,LearnStrategy,2023.2.3,Win32,60.24096386,4,2,1,,,,,,,,5,10,,,,,,,,,,,,,5,2.289,1,,,,,,-0.415104167,-0.405729167,1,0,0,2.2885,Obsidian_rect,0,0,0,0,1,
6636e27b4926cd0c965f3a47,SCR,2024-06-24_14h00.01.899,LearnStrategy,2023.2.3,Win32,60.24096386,4,2,2,,,,,,,,7,08,,,,,,,,,,,,,7,6.273,1,,,,,,0.133333333,-0.3953125,1,0,0,6.2734,Peridotite_rect,1,0,1,0,1,
6636e27b4926cd0c965f3a47,SCR,2024-06-24_14h00.01.899,LearnStrategy,2023.2.3,Win32,60.24096386,4,2,3,,,,,,,,4,10,,,,,,,,,,,,,5,36.822,0,,,,,,-0.4015625,-0.384895833,1,0,0,36.8222,Obsidian_rect,2,0,2,0,1,
6636e27b4926cd0c965f3a47,SCR,2024-06-24_14h00.01.899,LearnStrategy,2023.2.3,Win32,60.24096386,4,2,4,,,,,,,,1,05,,,,,,,,,,,,,1,12.995,1,,,,,,-0.4203125,-0.245833333,1,0,0,12.9947,Andesite_rect,3,0,3,0,1,
6636e27b4926cd0c965f3a47,SCR,2024-06-24_14h00.01.899,LearnStrategy,2023.2.3,Win32,60.24096386,4,2,5,,,,,,,,2,01,,,,,,,,,,,,,2,2.381,1,,,,,,-0.127604167,-0.248958333,1,0,0,2.381,Basalt_rect,4,0,4,0,1,
6636e27b4926cd0c965f3a47,SCR,2024-06-24_14h00.01.899,LearnStrategy,2023.2.3,Win32,60.24096386,4,2,6,,,,,,,,8,02,,,,,,,,,,,,,8,1.84,1,,,,,,0.394270833,-0.399479167,1,0,0,1.8395,Pumice_rect,5,0,5,0,1,
6636e27b4926cd0c965f3a47,SCR,2024-06-24_14h00.01.899,LearnStrategy,2023.2.3,Win32,60.24096386,4,2,7,,,,,,,,4,05,,,,,,,,,,,,,7,2.589,0,,,,,,0.1015625,-0.402083333,1,0,0,2.5893,Peridotite_rect,6,0,6,0,1,
6636e27b4926cd0c965f3a47,SCR,2024-06-24_14h00.01.899,LearnStrategy,2023.2.3,Win32,60.24096386,4,2,8,,,,,,,,6,12,,,,,,,,,,,,,6,4.957,1,,,,,,-0.171875,-0.404166667,1,0,0,4.9566,Pegmatite_rect,7,0,7,0,1,
6636e27b4926cd0c965f3a47,SCR,2024-06-24_14h00.01.899,LearnStrategy,2023.2.3,Win32,60.24096386,4,2,9,,,,,,,,2,10,,,,,,,,,,,,,2,1.806,1,,,,,,-0.141666667,-0.267708333,1,0,0,1.8059,Basalt_rect,8,0,8,0,1,
6636e27b4926cd0c965f3a47,SCR,2024-06-24_14h00.01.899,LearnStrategy,2023.2.3,Win32,60.24096386,4,2,10,,,,,,,,3,11,,,,,,,,,,,,,3,7.654,1,,,,,,0.122916667,-0.240625,1,0,0,7.6544,Diorite_rect,9,0,9,0,1,
6636e27b4926cd0c965f3a47,SCR,2024-06-24_14h00.01.899,LearnStrategy,2023.2.3,Win32,60.24096386,4,2,11,,,,,,,,5,14,,,,,,,,,,,,,5,1.456,1,,,,,,-0.394791667,-0.383854167,1,0,0,1.4561,Obsidian_rect,10,0,10,0,1,
6636e27b4926cd0c965f3a47,SCR,2024-06-24_14h00.01.899,LearnStrategy,2023.2.3,Win32,60.24096386,4,2,12,,,,,,,,6,10,,,,,,,,,,,,,7,7.401,0,,,,,,0.081770833,-0.394791667,1,0,0,7.4005,Peridotite_rect,11,0,11,0,1,
6636e27b4926cd0c965f3a47,SCR,2024-06-24_14h00.01.899,LearnStrategy,2023.2.3,Win32,60.24096386,4,2,13,,,,,,,,3,09,,,,,,,,,,,,,3,4.759,1,,,,,,0.11875,-0.241145833,1,0,0,4.7592,Diorite_rect,12,0,12,0,1,
6636e27b4926cd0c965f3a47,SCR,2024-06-24_14h00.01.899,LearnStrategy,2023.2.3,Win32,60.24096386,4,2,14,,,,,,,,7,15,,,,,,,,,,,,,7,3.04,1,,,,,,0.05,-0.408854167,1,0,0,3.0398,Peridotite_rect,13,0,13,0,1,
6636e27b4926cd0c965f3a47,SCR,2024-06-24_14h00.01.899,LearnStrategy,2023.2.3,Win32,60.24096386,4,2,15,,,,,,,,8,05,,,,,,,,,,,,,8,1.534,1,,,,,,0.3765625,-0.390625,1,0,0,1.5342,Pumice_rect,14,0,14,0,1,
6636e27b4926cd0c965f3a47,SCR,2024-06-24_14h00.01.899,LearnStrategy,2023.2.3,Win32,60.24096386,4,2,16,,,,,,,,1,11,,,,,,,,,,,,,1,12.09,1,,,,,,-0.417708333,-0.252083333,1,0,0,12.0901,Andesite_rect,15,0,15,0,1,
6636e27b4926cd0c965f3a47,SCR,2024-06-24_14h00.01.899,LearnStrategy,2023.2.3,Win32,60.24096386,5,1,1,-0.5390625,0.405729167,1,0,0,1.9126,Andesite_16,1,16,6,1,1.913,6,11,-0.4421875,-0.268229167,1,0,0,2.1488,Andesite_rect,1,2.149,1,0,0,0,0,1,,,,,,,,,,,,,
6636e27b4926cd0c965f3a47,SCR,2024-06-24_14h00.01.899,LearnStrategy,2023.2.3,Win32,60.24096386,5,1,2,-0.399479167,0.4265625,1,0,0,1.1677,Peridotite_10,7,10,6,2,1.168,3,08,0.059895833,-0.397916667,1,0,0,2.6459,Peridotite_rect,7,2.646,1,1,0,1,0,1,,,,,,,,,,,,,
6636e27b4926cd0c965f3a47,SCR,2024-06-24_14h00.01.899,LearnStrategy,2023.2.3,Win32,60.24096386,5,1,3,-0.261979167,0.4140625,1,0,0,1.1459,Obsidian_12,5,12,6,3,1.146,2,04,-0.404166667,-0.411979167,1,0,0,1.5227,Obsidian_rect,5,1.523,1,2,0,2,0,1,,,,,,,,,,,,,
6636e27b4926cd0c965f3a47,SCR,2024-06-24_14h00.01.899,LearnStrategy,2023.2.3,Win32,60.24096386,5,1,4,-0.071875,0.4390625,1,0,0,0.8307,Diorite_12,3,12,6,4,0.831,4,15,0.139583333,-0.243229167,1,0,0,2.005,Diorite_rect,3,2.005,1,3,0,3,0,1,,,,,,,,,,,,,
6636e27b4926cd0c965f3a47,SCR,2024-06-24_14h00.01.899,LearnStrategy,2023.2.3,Win32,60.24096386,5,1,5,0.071354167,0.411979167,1,0,0,1.2727,Gabbro_13,4,13,6,5,1.273,6,07,0.385416667,-0.25,1,0,0,6.1296,Gabbro_rect,4,6.13,1,4,0,4,0,1,,,,,,,,,,,,,
6636e27b4926cd0c965f3a47,SCR,2024-06-24_14h00.01.899,LearnStrategy,2023.2.3,Win32,60.24096386,5,1,6,0.215104167,0.422395833,1,0,0,1.2148,Pegmatite_09,6,09,6,6,1.215,4,16,-0.391145833,-0.255208333,1,0,0,2.9877,Andesite_rect,1,2.988,0,5,0,5,0,1,,,,,,,,,,,,,
6636e27b4926cd0c965f3a47,SCR,2024-06-24_14h00.01.899,LearnStrategy,2023.2.3,Win32,60.24096386,5,1,7,0.366666667,0.427083333,1,0,0,1.43,Obsidian_07,5,07,6,7,1.43,4,15,-0.417708333,-0.407291667,1,0,0,0.896,Obsidian_rect,5,0.896,1,6,0,6,0,1,,,,,,,,,,,,,
6636e27b4926cd0c965f3a47,SCR,2024-06-24_14h00.01.899,LearnStrategy,2023.2.3,Win32,60.24096386,5,1,8,-0.538020833,0.2578125,1,0,0,2.3133,Pegmatite_05,6,05,5,1,2.313,7,05,-0.153125,-0.397916667,1,0,0,8.0703,Pegmatite_rect,6,8.07,1,7,0,7,0,1,,,,,,,,,,,,,
6636e27b4926cd0c965f3a47,SCR,2024-06-24_14h00.01.899,LearnStrategy,2023.2.3,Win32,60.24096386,5,1,9,-0.366666667,0.243229167,1,0,0,1.6279,Basalt_06,2,06,5,2,1.628,6,05,-0.127604167,-0.233333333,1,0,0,1.4216,Basalt_rect,2,1.422,1,8,0,8,0,1,,,,,,,,,,,,,
6636e27b4926cd0c965f3a47,SCR,2024-06-24_14h00.01.899,LearnStrategy,2023.2.3,Win32,60.24096386,5,1,10,-0.2203125,0.248958333,1,0,0,1.3289,Basalt_09,2,09,5,3,1.329,5,04,-0.0953125,-0.255208333,1,0,0,1.461,Basalt_rect,2,1.461,1,9,0,9,0,1,,,,,,,,,,,,,
6636e27b4926cd0c965f3a47,SCR,2024-06-24_14h00.01.899,LearnStrategy,2023.2.3,Win32,60.24096386,5,1,11,0.068229167,0.2515625,1,0,0,2.2135,Gabbro_11,4,11,5,5,2.214,7,10,0.404166667,-0.2578125,1,0,0,3.3434,Gabbro_rect,4,3.343,1,10,0,10,0,1,,,,,,,,,,,,,
6636e27b4926cd0c965f3a47,SCR,2024-06-24_14h00.01.899,LearnStrategy,2023.2.3,Win32,60.24096386,5,1,12,0.423958333,0.2421875,1,0,0,1.6675,Diorite_06,3,06,5,7,1.668,8,15,0.130729167,-0.2671875,1,0,0,1.4793,Diorite_rect,3,1.479,1,11,0,11,0,1,,,,,,,,,,,,,
6636e27b4926cd0c965f3a47,SCR,2024-06-24_14h00.01.899,LearnStrategy,2023.2.3,Win32,60.24096386,5,1,13,0.590625,0.242708333,1,0,0,1.0228,Gabbro_15,4,15,5,8,1.023,4,03,0.3765625,-0.236458333,1,0,0,1.7797,Gabbro_rect,4,1.78,1,12,0,12,0,1,,,,,,,,,,,,,
6636e27b4926cd0c965f3a47,SCR,2024-06-24_14h00.01.899,LearnStrategy,2023.2.3,Win32,60.24096386,5,1,14,-0.415625,0.074479167,1,0,0,1.9309,Diorite_02,3,02,4,2,1.931,1,14,0.119270833,-0.246875,1,0,0,3.4373,Diorite_rect,3,3.437,1,13,0,13,0,1,,,,,,,,,,,,,
6636e27b4926cd0c965f3a47,SCR,2024-06-24_14h00.01.899,LearnStrategy,2023.2.3,Win32,60.24096386,5,1,15,-0.247395833,0.096354167,1,0,0,1.5151,Peridotite_04,7,04,4,3,1.515,4,15,0.0890625,-0.394270833,1,0,0,2.4457,Peridotite_rect,7,2.446,1,14,0,14,0,1,,,,,,,,,,,,,
6636e27b4926cd0c965f3a47,SCR,2024-06-24_14h00.01.899,LearnStrategy,2023.2.3,Win32,60.24096386,5,1,16,-0.086458333,0.107291667,1,0,0,1.7128,Pegmatite_11,6,11,4,4,1.713,1,16,-0.140625,-0.398958333,1,0,0,1.5208,Pegmatite_rect,6,1.521,1,15,0,15,0,1,,,,,,,,,,,,,
6636e27b4926cd0c965f3a47,SCR,2024-06-24_14h00.01.899,LearnStrategy,2023.2.3,Win32,60.24096386,5,2,1,,,,,,,,6,15,,,,,,,,,,,,,6,2.506,1,,,,,,-0.119270833,-0.3890625,1,0,0,2.5058,Pegmatite_rect,0,0,0,0,1,
6636e27b4926cd0c965f3a47,SCR,2024-06-24_14h00.01.899,LearnStrategy,2023.2.3,Win32,60.24096386,5,2,2,,,,,,,,7,02,,,,,,,,,,,,,7,2.354,1,,,,,,0.134375,-0.383333333,1,0,0,2.354,Peridotite_rect,1,0,1,0,1,
6636e27b4926cd0c965f3a47,SCR,2024-06-24_14h00.01.899,LearnStrategy,2023.2.3,Win32,60.24096386,5,2,3,,,,,,,,4,08,,,,,,,,,,,,,2,7.605,0,,,,,,-0.109895833,-0.24375,1,0,0,7.6046,Basalt_rect,2,0,2,0,1,
6636e27b4926cd0c965f3a47,SCR,2024-06-24_14h00.01.899,LearnStrategy,2023.2.3,Win32,60.24096386,5,2,4,,,,,,,,2,11,,,,,,,,,,,,,8,17.388,0,,,,,,0.369270833,-0.398958333,1,0,0,17.3878,Pumice_rect,3,0,3,0,1,
6636e27b4926cd0c965f3a47,SCR,2024-06-24_14h00.01.899,LearnStrategy,2023.2.3,Win32,60.24096386,5,2,5,,,,,,,,6,06,,,,,,,,,,,,,6,8.323,1,,,,,,-0.144270833,-0.400520833,1,0,0,8.3232,Pegmatite_rect,4,0,4,0,1,
6636e27b4926cd0c965f3a47,SCR,2024-06-24_14h00.01.899,LearnStrategy,2023.2.3,Win32,60.24096386,5,2,6,,,,,,,,3,15,,,,,,,,,,,,,4,3.776,0,,,,,,0.3703125,-0.247395833,1,0,0,3.7761,Gabbro_rect,5,0,5,0,1,
6636e27b4926cd0c965f3a47,SCR,2024-06-24_14h00.01.899,LearnStrategy,2023.2.3,Win32,60.24096386,5,2,7,,,,,,,,8,06,,,,,,,,,,,,,8,1.323,1,,,,,,0.364583333,-0.3875,1,0,0,1.3228,Pumice_rect,6,0,6,0,1,
6636e27b4926cd0c965f3a47,SCR,2024-06-24_14h00.01.899,LearnStrategy,2023.2.3,Win32,60.24096386,5,2,8,,,,,,,,2,02,,,,,,,,,,,,,2,1.274,1,,,,,,-0.139583333,-0.23125,1,0,0,1.2735,Basalt_rect,7,0,7,0,1,
6636e27b4926cd0c965f3a47,SCR,2024-06-24_14h00.01.899,LearnStrategy,2023.2.3,Win32,60.24096386,5,2,9,,,,,,,,5,06,,,,,,,,,,,,,5,1.238,1,,,,,,-0.377083333,-0.4046875,1,0,0,1.2385,Obsidian_rect,8,0,8,0,1,
6636e27b4926cd0c965f3a47,SCR,2024-06-24_14h00.01.899,LearnStrategy,2023.2.3,Win32,60.24096386,5,2,10,,,,,,,,5,16,,,,,,,,,,,,,5,0.842,1,,,,,,-0.388541667,-0.400520833,1,0,0,0.8423,Obsidian_rect,9,0,9,0,1,
6636e27b4926cd0c965f3a47,SCR,2024-06-24_14h00.01.899,LearnStrategy,2023.2.3,Win32,60.24096386,5,2,11,,,,,,,,1,07,,,,,,,,,,,,,1,11.989,1,,,,,,-0.4296875,-0.258854167,1,0,0,11.9893,Andesite_rect,10,0,10,0,1,
6636e27b4926cd0c965f3a47,SCR,2024-06-24_14h00.01.899,LearnStrategy,2023.2.3,Win32,60.24096386,5,2,12,,,,,,,,4,14,,,,,,,,,,,,,4,1.956,1,,,,,,0.351041667,-0.240104167,1,0,0,1.9563,Gabbro_rect,11,0,11,0,1,
6636e27b4926cd0c965f3a47,SCR,2024-06-24_14h00.01.899,LearnStrategy,2023.2.3,Win32,60.24096386,5,2,13,,,,,,,,8,10,,,,,,,,,,,,,8,1.491,1,,,,,,0.379166667,-0.40625,1,0,0,1.4905,Pumice_rect,12,0,12,0,1,
6636e27b4926cd0c965f3a47,SCR,2024-06-24_14h00.01.899,LearnStrategy,2023.2.3,Win32,60.24096386,5,2,14,,,,,,,,3,14,,,,,,,,,,,,,3,9.174,1,,,,,,0.097395833,-0.252083333,1,0,0,9.1739,Diorite_rect,13,0,13,0,1,
6636e27b4926cd0c965f3a47,SCR,2024-06-24_14h00.01.899,LearnStrategy,2023.2.3,Win32,60.24096386,5,2,15,,,,,,,,7,14,,,,,,,,,,,,,7,3.106,1,,,,,,0.103125,-0.4078125,1,0,0,3.1058,Peridotite_rect,14,0,14,0,1,
6636e27b4926cd0c965f3a47,SCR,2024-06-24_14h00.01.899,LearnStrategy,2023.2.3,Win32,60.24096386,5,2,16,,,,,,,,1,03,,,,,,,,,,,,,1,1.822,1,,,,,,-0.386979167,-0.253125,1,0,0,1.8225,Andesite_rect,15,0,15,0,1,
6636e27b4926cd0c965f3a47,SCR,2024-06-24_14h00.01.899,LearnStrategy,2023.2.3,Win32,60.24096386,6,1,1,0.06875,0.096875,1,0,0,6.4792,Andesite_04,1,04,4,5,6.479,8,03,-0.413020833,-0.255208333,1,0,0,1.0716,Andesite_rect,1,1.072,1,0,0,0,0,1,,,,,,,,,,,,,
6636e27b4926cd0c965f3a47,SCR,2024-06-24_14h00.01.899,LearnStrategy,2023.2.3,Win32,60.24096386,6,1,2,0.392708333,0.101041667,1,0,0,1.4502,Pumice_03,8,03,4,7,1.45,3,16,0.372916667,-0.380208333,1,0,0,1.1371,Pumice_rect,8,1.137,1,1,0,1,0,1,,,,,,,,,,,,,
6636e27b4926cd0c965f3a47,SCR,2024-06-24_14h00.01.899,LearnStrategy,2023.2.3,Win32,60.24096386,6,1,3,0.55625,0.105729167,1,0,0,0.8133,Peridotite_05,7,05,4,8,0.813,2,05,0.066666667,-0.414583333,1,0,0,1.7551,Peridotite_rect,7,1.755,1,2,0,2,0,1,,,,,,,,,,,,,
6636e27b4926cd0c965f3a47,SCR,2024-06-24_14h00.01.899,LearnStrategy,2023.2.3,Win32,60.24096386,6,1,4,-0.5625,-0.0984375,1,0,0,0.9149,Andesite_10,1,10,3,1,0.915,4,11,-0.441145833,-0.2578125,1,0,0,2.2545,Andesite_rect,1,2.255,1,3,0,3,0,1,,,,,,,,,,,,,
6636e27b4926cd0c965f3a47,SCR,2024-06-24_14h00.01.899,LearnStrategy,2023.2.3,Win32,60.24096386,6,1,5,-0.372916667,-0.0953125,1,0,0,2.498,Pegmatite_08,6,08,3,2,2.498,6,09,-0.151041667,-0.406770833,1,0,0,0.9799,Pegmatite_rect,6,0.98,1,4,0,4,0,1,,,,,,,,,,,,,
6636e27b4926cd0c965f3a47,SCR,2024-06-24_14h00.01.899,LearnStrategy,2023.2.3,Win32,60.24096386,6,1,6,-0.213020833,-0.111979167,1,0,0,0.8818,Andesite_01,1,01,3,3,0.882,3,08,-0.3671875,-0.240104167,1,0,0,3.8141,Andesite_rect,1,3.814,1,5,0,5,0,1,,,,,,,,,,,,,
6636e27b4926cd0c965f3a47,SCR,2024-06-24_14h00.01.899,LearnStrategy,2023.2.3,Win32,60.24096386,6,1,7,-0.052604167,-0.119270833,1,0,0,1.896,Peridotite_07,7,07,3,4,1.896,1,10,0.090104167,-0.4078125,1,0,0,1.3904,Peridotite_rect,7,1.39,1,6,0,6,0,1,,,,,,,,,,,,,
6636e27b4926cd0c965f3a47,SCR,2024-06-24_14h00.01.899,LearnStrategy,2023.2.3,Win32,60.24096386,6,1,8,0.228125,-0.120833333,1,0,0,1.3803,Diorite_10,3,10,3,6,1.38,7,04,0.377083333,-0.244270833,1,0,0,4.0712,Gabbro_rect,4,4.071,0,7,0,7,0,1,,,,,,,,,,,,,
6636e27b4926cd0c965f3a47,SCR,2024-06-24_14h00.01.899,LearnStrategy,2023.2.3,Win32,60.24096386,6,1,9,0.2453125,-0.111458333,1,0,0,1.0791,Diorite_10,3,10,3,6,1.079,1,06,0.127604167,-0.245833333,1,0,0,1.0389,Diorite_rect,3,1.039,1,8,0,8,0,1,,,,,,,,,,,,,
6636e27b4926cd0c965f3a47,SCR,2024-06-24_14h00.01.899,LearnStrategy,2023.2.3,Win32,60.24096386,6,1,10,0.4359375,-0.09375,1,0,0,1.0145,Gabbro_16,4,16,3,7,1.014,6,09,-0.123958333,-0.232291667,1,0,0,1.5552,Basalt_rect,2,1.555,0,9,0,9,0,1,,,,,,,,,,,,,
6636e27b4926cd0c965f3a47,SCR,2024-06-24_14h00.01.899,LearnStrategy,2023.2.3,Win32,60.24096386,6,1,11,0.560416667,-0.091666667,1,0,0,0.865,Andesite_06,1,06,3,8,0.865,4,11,-0.395833333,-0.240104167,1,0,0,3.7206,Andesite_rect,1,3.721,1,10,0,10,0,1,,,,,,,,,,,,,
6636e27b4926cd0c965f3a47,SCR,2024-06-24_14h00.01.899,LearnStrategy,2023.2.3,Win32,60.24096386,6,1,12,-0.570833333,-0.259895833,1,0,0,1.4651,Diorite_08,3,08,2,1,1.465,2,04,0.109375,-0.2484375,1,0,0,1.7998,Diorite_rect,3,1.8,1,11,0,11,0,1,,,,,,,,,,,,,
6636e27b4926cd0c965f3a47,SCR,2024-06-24_14h00.01.899,LearnStrategy,2023.2.3,Win32,60.24096386,6,1,13,-0.394270833,-0.275,1,0,0,1.1834,Pegmatite_03,6,03,2,2,1.183,4,03,-0.144270833,-0.397395833,1,0,0,1.1131,Pegmatite_rect,6,1.113,1,12,0,12,0,1,,,,,,,,,,,,,
6636e27b4926cd0c965f3a47,SCR,2024-06-24_14h00.01.899,LearnStrategy,2023.2.3,Win32,60.24096386,6,1,14,-0.055208333,-0.2546875,1,0,0,2.4315,Basalt_14,2,14,2,4,2.432,4,16,0.370833333,-0.403645833,1,0,0,2.3534,Pumice_rect,8,2.353,0,13,0,13,0,1,,,,,,,,,,,,,
6636e27b4926cd0c965f3a47,SCR,2024-06-24_14h00.01.899,LearnStrategy,2023.2.3,Win32,60.24096386,6,1,15,0.0875,-0.274479167,1,0,0,1.1309,Gabbro_01,4,01,2,5,1.131,4,16,0.129166667,-0.401041667,1,0,0,4.7885,Peridotite_rect,7,4.788,0,14,0,14,0,1,,,,,,,,,,,,,
6636e27b4926cd0c965f3a47,SCR,2024-06-24_14h00.01.899,LearnStrategy,2023.2.3,Win32,60.24096386,6,1,16,0.225520833,-0.271354167,1,0,0,1.3634,Basalt_12,2,12,2,6,1.363,5,05,0.349479167,-0.386458333,1,0,0,1.354,Pumice_rect,8,1.354,0,15,0,15,0,1,,,,,,,,,,,,,
6636e27b4926cd0c965f3a47,SCR,2024-06-24_14h00.01.899,LearnStrategy,2023.2.3,Win32,60.24096386,6,2,1,,,,,,,,6,16,,,,,,,,,,,,,6,12.006,1,,,,,,-0.15,-0.394791667,1,0,0,12.0059,Pegmatite_rect,0,0,0,0,1,
6636e27b4926cd0c965f3a47,SCR,2024-06-24_14h00.01.899,LearnStrategy,2023.2.3,Win32,60.24096386,6,2,2,,,,,,,,1,09,,,,,,,,,,,,,1,1.904,1,,,,,,-0.447916667,-0.234375,1,0,0,1.9038,Andesite_rect,1,0,1,0,1,
6636e27b4926cd0c965f3a47,SCR,2024-06-24_14h00.01.899,LearnStrategy,2023.2.3,Win32,60.24096386,6,2,3,,,,,,,,8,08,,,,,,,,,,,,,8,1.971,1,,,,,,0.3578125,-0.386458333,1,0,0,1.9709,Pumice_rect,2,0,2,0,1,
6636e27b4926cd0c965f3a47,SCR,2024-06-24_14h00.01.899,LearnStrategy,2023.2.3,Win32,60.24096386,6,2,4,,,,,,,,4,09,,,,,,,,,,,,,2,2.873,0,,,,,,-0.111979167,-0.263020833,1,0,0,2.873,Basalt_rect,3,0,3,0,1,
6636e27b4926cd0c965f3a47,SCR,2024-06-24_14h00.01.899,LearnStrategy,2023.2.3,Win32,60.24096386,6,2,5,,,,,,,,8,13,,,,,,,,,,,,,8,1.756,1,,,,,,0.377083333,-0.38125,1,0,0,1.7564,Pumice_rect,4,0,4,0,1,
6636e27b4926cd0c965f3a47,SCR,2024-06-24_14h00.01.899,LearnStrategy,2023.2.3,Win32,60.24096386,6,2,6,,,,,,,,5,08,,,,,,,,,,,,,5,1.273,1,,,,,,-0.4,-0.392708333,1,0,0,1.2729,Obsidian_rect,5,0,5,0,1,
6636e27b4926cd0c965f3a47,SCR,2024-06-24_14h00.01.899,LearnStrategy,2023.2.3,Win32,60.24096386,6,2,7,,,,,,,,2,08,,,,,,,,,,,,,2,1.152,1,,,,,,-0.177604167,-0.260416667,1,0,0,1.1516,Basalt_rect,6,0,6,0,1,
6636e27b4926cd0c965f3a47,SCR,2024-06-24_14h00.01.899,LearnStrategy,2023.2.3,Win32,60.24096386,6,2,8,,,,,,,,7,06,,,,,,,,,,,,,7,6.555,1,,,,,,0.091666667,-0.403645833,1,0,0,6.5551,Peridotite_rect,7,0,7,0,1,
6636e27b4926cd0c965f3a47,SCR,2024-06-24_14h00.01.899,LearnStrategy,2023.2.3,Win32,60.24096386,6,2,9,,,,,,,,3,07,,,,,,,,,,,,,1,17.524,0,,,,,,-0.403645833,-0.2515625,1,0,0,17.5238,Andesite_rect,8,0,8,0,1,
6636e27b4926cd0c965f3a47,SCR,2024-06-24_14h00.01.899,LearnStrategy,2023.2.3,Win32,60.24096386,6,2,10,,,,,,,,3,13,,,,,,,,,,,,,3,4.553,1,,,,,,0.207291667,-0.255208333,1,0,0,4.5533,Diorite_rect,9,0,9,0,1,
6636e27b4926cd0c965f3a47,SCR,2024-06-24_14h00.01.899,LearnStrategy,2023.2.3,Win32,60.24096386,6,2,11,,,,,,,,6,13,,,,,,,,,,,,,5,3.106,0,,,,,,-0.388541667,-0.409895833,1,0,0,3.1058,Obsidian_rect,10,0,10,0,1,
6636e27b4926cd0c965f3a47,SCR,2024-06-24_14h00.01.899,LearnStrategy,2023.2.3,Win32,60.24096386,6,2,12,,,,,,,,7,12,,,,,,,,,,,,,7,3.173,1,,,,,,0.1265625,-0.397395833,1,0,0,3.1727,Peridotite_rect,11,0,11,0,1,
6636e27b4926cd0c965f3a47,SCR,2024-06-24_14h00.01.899,LearnStrategy,2023.2.3,Win32,60.24096386,6,2,13,,,,,,,,2,16,,,,,,,,,,,,,2,6.973,1,,,,,,-0.161979167,-0.248958333,1,0,0,6.9725,Basalt_rect,12,0,12,0,1,
6636e27b4926cd0c965f3a47,SCR,2024-06-24_14h00.01.899,LearnStrategy,2023.2.3,Win32,60.24096386,6,2,14,,,,,,,,4,12,,,,,,,,,,,,,4,7.706,1,,,,,,0.35,-0.25,1,0,0,7.7065,Gabbro_rect,13,0,13,0,1,
6636e27b4926cd0c965f3a47,SCR,2024-06-24_14h00.01.899,LearnStrategy,2023.2.3,Win32,60.24096386,6,2,15,,,,,,,,5,11,,,,,,,,,,,,,5,1.573,1,,,,,,-0.357291667,-0.390625,1,0,0,1.5735,Obsidian_rect,14,0,14,0,1,
6636e27b4926cd0c965f3a47,SCR,2024-06-24_14h00.01.899,LearnStrategy,2023.2.3,Win32,60.24096386,6,2,16,,,,,,,,1,02,,,,,,,,,,,,,1,2.99,1,,,,,,-0.416666667,-0.245833333,1,0,0,2.9898,Andesite_rect,15,0,15,0,1,
6636e27b4926cd0c965f3a47,SCR,2024-06-24_14h00.01.899,LearnStrategy,2023.2.3,Win32,60.24096386,7,1,1,0.551041667,-0.430208333,1,0,0,3.2473,Peridotite_13,7,13,1,8,3.247,3,12,-0.074479167,-0.396875,1,0,0,1.6873,Pegmatite_rect,6,1.687,0,0,0,0,0,1,,,,,,,,,,,,,
6636e27b4926cd0c965f3a47,SCR,2024-06-24_14h00.01.899,LearnStrategy,2023.2.3,Win32,60.24096386,7,1,2,0.375,-0.416666667,1,0,0,1.1812,Andesite_14,1,14,1,7,1.181,4,03,-0.318229167,-0.2359375,1,0,0,2.4494,Andesite_rect,1,2.449,1,1,0,1,0,1,,,,,,,,,,,,,
6636e27b4926cd0c965f3a47,SCR,2024-06-24_14h00.01.899,LearnStrategy,2023.2.3,Win32,60.24096386,7,1,3,0.065625,-0.427083333,1,0,0,1.6295,Pegmatite_07,6,07,1,5,1.63,6,11,-0.128645833,-0.413541667,1,0,0,2.0053,Pegmatite_rect,6,2.005,1,2,0,2,0,1,,,,,,,,,,,,,
6636e27b4926cd0c965f3a47,SCR,2024-06-24_14h00.01.899,LearnStrategy,2023.2.3,Win32,60.24096386,7,1,4,-0.058333333,-0.408333333,1,0,0,1.1139,Diorite_16,3,16,1,4,1.114,5,05,0.371875,-0.2453125,1,0,0,1.9894,Gabbro_rect,4,1.989,0,3,0,3,0,1,,,,,,,,,,,,,
6636e27b4926cd0c965f3a47,SCR,2024-06-24_14h00.01.899,LearnStrategy,2023.2.3,Win32,60.24096386,7,1,5,-0.2328125,-0.40625,1,0,0,1.1963,Gabbro_03,4,03,1,3,1.196,1,16,0.4390625,-0.2671875,1,0,0,2.0375,Gabbro_rect,4,2.037,1,4,0,4,0,1,,,,,,,,,,,,,
6636e27b4926cd0c965f3a47,SCR,2024-06-24_14h00.01.899,LearnStrategy,2023.2.3,Win32,60.24096386,7,1,6,-0.415104167,-0.411458333,1,0,0,1.2638,Basalt_04,2,04,1,2,1.264,4,13,-0.184895833,-0.241145833,1,0,0,1.0054,Basalt_rect,2,1.005,1,5,0,5,0,1,,,,,,,,,,,,,
6636e27b4926cd0c965f3a47,SCR,2024-06-24_14h00.01.899,LearnStrategy,2023.2.3,Win32,60.24096386,7,1,7,-0.538541667,-0.415104167,1,0,0,1.098,Obsidian_05,5,05,1,1,1.098,6,03,-0.4234375,-0.388020833,1,0,0,1.7555,Obsidian_rect,5,1.755,1,6,0,6,0,1,,,,,,,,,,,,,
6636e27b4926cd0c965f3a47,SCR,2024-06-24_14h00.01.899,LearnStrategy,2023.2.3,Win32,60.24096386,7,1,8,0.551041667,-0.284895833,1,0,0,0.965,Basalt_05,2,05,2,8,0.965,2,04,-0.15,-0.240104167,1,0,0,2.2041,Basalt_rect,2,2.204,1,7,0,7,0,1,,,,,,,,,,,,,
6636e27b4926cd0c965f3a47,SCR,2024-06-24_14h00.01.899,LearnStrategy,2023.2.3,Win32,60.24096386,7,1,9,0.208333333,-0.109375,1,0,0,1.1975,Diorite_10,3,10,3,6,1.198,4,16,0.324479167,-0.255729167,1,0,0,3.8379,Gabbro_rect,4,3.838,0,8,0,8,0,1,,,,,,,,,,,,,
6636e27b4926cd0c965f3a47,SCR,2024-06-24_14h00.01.899,LearnStrategy,2023.2.3,Win32,60.24096386,7,1,10,-0.083333333,-0.098958333,1,0,0,2.4148,Peridotite_07,7,07,3,4,2.415,7,16,0.135416667,-0.396354167,1,0,0,3.9226,Peridotite_rect,7,3.923,1,9,0,9,0,1,,,,,,,,,,,,,
6636e27b4926cd0c965f3a47,SCR,2024-06-24_14h00.01.899,LearnStrategy,2023.2.3,Win32,60.24096386,7,1,11,-0.228125,-0.090625,1,0,0,1.3459,Andesite_01,1,01,3,3,1.346,2,12,-0.377604167,-0.253125,1,0,0,0.9533,Andesite_rect,1,0.953,1,10,0,10,0,1,,,,,,,,,,,,,
6636e27b4926cd0c965f3a47,SCR,2024-06-24_14h00.01.899,LearnStrategy,2023.2.3,Win32,60.24096386,7,1,12,-0.523958333,-0.115104167,1,0,0,1.2486,Andesite_10,1,10,3,1,1.249,8,14,-0.428645833,-0.253645833,1,0,0,1.471,Andesite_rect,1,1.471,1,11,0,11,0,1,,,,,,,,,,,,,
6636e27b4926cd0c965f3a47,SCR,2024-06-24_14h00.01.899,LearnStrategy,2023.2.3,Win32,60.24096386,7,1,13,0.561458333,0.2640625,1,0,0,3.4475,Gabbro_15,4,15,5,8,3.448,3,08,0.35,-0.240625,1,0,0,1.8582,Gabbro_rect,4,1.858,1,12,0,12,0,1,,,,,,,,,,,,,
6636e27b4926cd0c965f3a47,SCR,2024-06-24_14h00.01.899,LearnStrategy,2023.2.3,Win32,60.24096386,7,1,14,-0.0734375,0.241145833,1,0,0,1.7655,Pumice_04,8,04,5,4,1.766,3,10,0.381770833,-0.394270833,1,0,0,0.9375,Pumice_rect,8,0.938,1,13,0,13,0,1,,,,,,,,,,,,,
6636e27b4926cd0c965f3a47,SCR,2024-06-24_14h00.01.899,LearnStrategy,2023.2.3,Win32,60.24096386,7,1,15,-0.219791667,0.251041667,1,0,0,1.0813,Basalt_09,2,09,5,3,1.081,4,01,-0.185416667,-0.2328125,1,0,0,2.3892,Basalt_rect,2,2.389,1,14,0,14,0,1,,,,,,,,,,,,,
6636e27b4926cd0c965f3a47,SCR,2024-06-24_14h00.01.899,LearnStrategy,2023.2.3,Win32,60.24096386,7,1,16,-0.5171875,0.407291667,1,0,0,1.8471,Andesite_16,1,16,6,1,1.847,6,03,-0.356770833,-0.261979167,1,0,0,1.0042,Andesite_rect,1,1.004,1,15,0,15,0,1,,,,,,,,,,,,,
6636e27b4926cd0c965f3a47,SCR,2024-06-24_14h00.01.899,LearnStrategy,2023.2.3,Win32,60.24096386,7,2,1,,,,,,,,6,10,,,,,,,,,,,,,6,7.071,1,,,,,,-0.116666667,-0.4015625,1,0,0,7.0709,Pegmatite_rect,0,0,0,0,1,
6636e27b4926cd0c965f3a47,SCR,2024-06-24_14h00.01.899,LearnStrategy,2023.2.3,Win32,60.24096386,7,2,2,,,,,,,,2,02,,,,,,,,,,,,,2,1.956,1,,,,,,-0.119270833,-0.243229167,1,0,0,1.956,Basalt_rect,1,0,1,0,1,
6636e27b4926cd0c965f3a47,SCR,2024-06-24_14h00.01.899,LearnStrategy,2023.2.3,Win32,60.24096386,7,2,3,,,,,,,,1,03,,,,,,,,,,,,,1,1.289,1,,,,,,-0.4171875,-0.244791667,1,0,0,1.2892,Andesite_rect,2,0,2,0,1,
6636e27b4926cd0c965f3a47,SCR,2024-06-24_14h00.01.899,LearnStrategy,2023.2.3,Win32,60.24096386,7,2,4,,,,,,,,6,12,,,,,,,,,,,,,6,7.056,1,,,,,,-0.141145833,-0.403125,1,0,0,7.0557,Pegmatite_rect,3,0,3,0,1,
6636e27b4926cd0c965f3a47,SCR,2024-06-24_14h00.01.899,LearnStrategy,2023.2.3,Win32,60.24096386,7,2,5,,,,,,,,3,15,,,,,,,,,,,,,4,10.07,0,,,,,,0.352604167,-0.244270833,1,0,0,10.0705,Gabbro_rect,4,0,4,0,1,
6636e27b4926cd0c965f3a47,SCR,2024-06-24_14h00.01.899,LearnStrategy,2023.2.3,Win32,60.24096386,7,2,6,,,,,,,,3,09,,,,,,,,,,,,,3,2.622,1,,,,,,0.172916667,-0.2484375,1,0,0,2.6219,Diorite_rect,5,0,5,0,1,
6636e27b4926cd0c965f3a47,SCR,2024-06-24_14h00.01.899,LearnStrategy,2023.2.3,Win32,60.24096386,7,2,7,,,,,,,,7,12,,,,,,,,,,,,,7,4.84,1,,,,,,0.111458333,-0.401041667,1,0,0,4.8402,Peridotite_rect,6,0,6,0,1,
6636e27b4926cd0c965f3a47,SCR,2024-06-24_14h00.01.899,LearnStrategy,2023.2.3,Win32,60.24096386,7,2,8,,,,,,,,4,14,,,,,,,,,,,,,4,2.038,1,,,,,,0.369270833,-0.24375,1,0,0,2.038,Gabbro_rect,7,0,7,0,1,
6636e27b4926cd0c965f3a47,SCR,2024-06-24_14h00.01.899,LearnStrategy,2023.2.3,Win32,60.24096386,7,2,9,,,,,,,,8,05,,,,,,,,,,,,,8,1.237,1,,,,,,0.344791667,-0.3890625,1,0,0,1.2366,Pumice_rect,8,0,8,0,1,
6636e27b4926cd0c965f3a47,SCR,2024-06-24_14h00.01.899,LearnStrategy,2023.2.3,Win32,60.24096386,7,2,10,,,,,,,,5,08,,,,,,,,,,,,,5,1.089,1,,,,,,-0.411458333,-0.399479167,1,0,0,1.0892,Obsidian_rect,9,0,9,0,1,
6636e27b4926cd0c965f3a47,SCR,2024-06-24_14h00.01.899,LearnStrategy,2023.2.3,Win32,60.24096386,7,2,11,,,,,,,,4,08,,,,,,,,,,,,,2,3.64,0,,,,,,-0.167708333,-0.252604167,1,0,0,3.6396,Basalt_rect,10,0,10,0,1,
6636e27b4926cd0c965f3a47,SCR,2024-06-24_14h00.01.899,LearnStrategy,2023.2.3,Win32,60.24096386,7,2,12,,,,,,,,2,01,,,,,,,,,,,,,2,0.806,1,,,,,,-0.167708333,-0.252604167,1,0,0,0.8058,Basalt_rect,11,0,11,0,1,
6636e27b4926cd0c965f3a47,SCR,2024-06-24_14h00.01.899,LearnStrategy,2023.2.3,Win32,60.24096386,7,2,13,,,,,,,,7,02,,,,,,,,,,,,,7,1.59,1,,,,,,0.1015625,-0.3984375,1,0,0,1.5902,Peridotite_rect,12,0,12,0,1,
6636e27b4926cd0c965f3a47,SCR,2024-06-24_14h00.01.899,LearnStrategy,2023.2.3,Win32,60.24096386,7,2,14,,,,,,,,1,05,,,,,,,,,,,,,1,15.09,1,,,,,,-0.384895833,-0.25,1,0,0,15.0898,Andesite_rect,13,0,13,0,1,
6636e27b4926cd0c965f3a47,SCR,2024-06-24_14h00.01.899,LearnStrategy,2023.2.3,Win32,60.24096386,7,2,15,,,,,,,,5,10,,,,,,,,,,,,,5,1.172,1,,,,,,-0.3875,-0.396354167,1,0,0,1.1724,Obsidian_rect,14,0,14,0,1,
6636e27b4926cd0c965f3a47,SCR,2024-06-24_14h00.01.899,LearnStrategy,2023.2.3,Win32,60.24096386,7,2,16,,,,,,,,8,02,,,,,,,,,,,,,8,1.338,1,,,,,,0.402604167,-0.390625,1,0,0,1.338,Pumice_rect,15,0,15,0,1,
6636e27b4926cd0c965f3a47,SCR,2024-06-24_14h00.01.899,LearnStrategy,2023.2.3,Win32,60.24096386,8,1,1,-0.5203125,0.244791667,1,0,0,4.5467,Pegmatite_05,6,05,5,1,4.547,6,07,-0.0859375,-0.384375,1,0,0,1.7718,Pegmatite_rect,6,1.772,1,0,0,0,0,1,,,,,,,,,,,,,
6636e27b4926cd0c965f3a47,SCR,2024-06-24_14h00.01.899,LearnStrategy,2023.2.3,Win32,60.24096386,8,1,2,0.056770833,0.101041667,1,0,0,0.9633,Andesite_04,1,04,4,5,0.963,6,03,-0.383333333,-0.2375,1,0,0,0.9036,Andesite_rect,1,0.904,1,1,0,1,0,1,,,,,,,,,,,,,
6636e27b4926cd0c965f3a47,SCR,2024-06-24_14h00.01.899,LearnStrategy,2023.2.3,Win32,60.24096386,8,1,3,0.425520833,0.278645833,1,0,0,1.2979,Diorite_06,3,06,5,7,1.298,1,04,0.371875,-0.246875,1,0,0,2.2711,Gabbro_rect,4,2.271,0,2,0,2,0,1,,,,,,,,,,,,,
6636e27b4926cd0c965f3a47,SCR,2024-06-24_14h00.01.899,LearnStrategy,2023.2.3,Win32,60.24096386,8,1,4,0.5859375,0.2609375,1,0,0,1.1304,Gabbro_15,4,15,5,8,1.13,3,06,0.389583333,-0.2453125,1,0,0,0.7868,Gabbro_rect,4,0.787,1,3,0,3,0,1,,,,,,,,,,,,,
6636e27b4926cd0c965f3a47,SCR,2024-06-24_14h00.01.899,LearnStrategy,2023.2.3,Win32,60.24096386,8,1,5,0.0609375,0.253645833,1,0,0,1.2323,Gabbro_11,4,11,5,5,1.232,7,05,0.103645833,-0.24375,1,0,0,4.6042,Diorite_rect,3,4.604,0,4,0,4,0,1,,,,,,,,,,,,,
6636e27b4926cd0c965f3a47,SCR,2024-06-24_14h00.01.899,LearnStrategy,2023.2.3,Win32,60.24096386,8,1,6,0.404166667,0.2578125,1,0,0,1.0125,Diorite_06,3,06,5,7,1.012,4,01,0.1453125,-0.258333333,1,0,0,1.7045,Diorite_rect,3,1.705,1,5,0,5,0,1,,,,,,,,,,,,,
6636e27b4926cd0c965f3a47,SCR,2024-06-24_14h00.01.899,LearnStrategy,2023.2.3,Win32,60.24096386,8,1,7,-0.216666667,0.238541667,1,0,0,1.6816,Basalt_09,2,09,5,3,1.682,4,16,-0.16875,-0.2546875,1,0,0,0.9529,Basalt_rect,2,0.953,1,6,0,6,0,1,,,,,,,,,,,,,
6636e27b4926cd0c965f3a47,SCR,2024-06-24_14h00.01.899,LearnStrategy,2023.2.3,Win32,60.24096386,8,1,8,0.081770833,0.41875,1,0,0,1.1635,Gabbro_13,4,13,6,5,1.163,4,03,0.377083333,-0.253125,1,0,0,1.3576,Gabbro_rect,4,1.358,1,7,0,7,0,1,,,,,,,,,,,,,
6636e27b4926cd0c965f3a47,SCR,2024-06-24_14h00.01.899,LearnStrategy,2023.2.3,Win32,60.24096386,8,1,9,0.231770833,0.433854167,1,0,0,1.7318,Pegmatite_09,6,09,6,6,1.732,2,14,-0.414583333,-0.246875,1,0,0,0.7727,Andesite_rect,1,0.773,0,8,0,8,0,1,,,,,,,,,,,,,
6636e27b4926cd0c965f3a47,SCR,2024-06-24_14h00.01.899,LearnStrategy,2023.2.3,Win32,60.24096386,8,1,10,0.541145833,-0.128645833,1,0,0,4.0553,Andesite_06,1,06,3,8,4.055,4,03,-0.372916667,-0.249479167,1,0,0,0.9125,Andesite_rect,1,0.912,1,9,0,9,0,1,,,,,,,,,,,,,
6636e27b4926cd0c965f3a47,SCR,2024-06-24_14h00.01.899,LearnStrategy,2023.2.3,Win32,60.24096386,8,1,11,-0.225,-0.372916667,1,0,0,1.6305,Gabbro_03,4,03,1,3,1.631,3,16,0.14375,-0.241666667,1,0,0,3.121,Diorite_rect,3,3.121,0,10,0,10,0,1,,,,,,,,,,,,,
6636e27b4926cd0c965f3a47,SCR,2024-06-24_14h00.01.899,LearnStrategy,2023.2.3,Win32,60.24096386,8,1,12,-0.070833333,-0.422395833,1,0,0,1.2616,Diorite_16,3,16,1,4,1.262,5,07,0.146875,-0.236458333,1,0,0,0.9042,Diorite_rect,3,0.904,1,11,0,11,0,1,,,,,,,,,,,,,
6636e27b4926cd0c965f3a47,SCR,2024-06-24_14h00.01.899,LearnStrategy,2023.2.3,Win32,60.24096386,8,1,13,-0.038541667,-0.1015625,1,0,0,2.949,Peridotite_07,7,07,3,4,2.949,4,01,0.050520833,-0.405729167,1,0,0,2.4888,Peridotite_rect,7,2.489,1,12,0,12,0,1,,,,,,,,,,,,,
6636e27b4926cd0c965f3a47,SCR,2024-06-24_14h00.01.899,LearnStrategy,2023.2.3,Win32,60.24096386,8,1,14,0.396354167,-0.28125,1,0,0,1.8634,Peridotite_16,7,16,2,7,1.863,3,08,0.156770833,-0.394791667,1,0,0,0.9544,Peridotite_rect,7,0.954,1,13,0,13,0,1,,,,,,,,,,,,,
6636e27b4926cd0c965f3a47,SCR,2024-06-24_14h00.01.899,LearnStrategy,2023.2.3,Win32,60.24096386,8,1,15,0.572395833,-0.283854167,1,0,0,0.9314,Basalt_05,2,05,2,8,0.931,2,12,-0.052604167,-0.240104167,1,0,0,1.6497,Basalt_rect,2,1.65,1,14,0,14,0,1,,,,,,,,,,,,,
6636e27b4926cd0c965f3a47,SCR,2024-06-24_14h00.01.899,LearnStrategy,2023.2.3,Win32,60.24096386,8,1,16,-0.366666667,-0.258333333,1,0,0,1.4781,Pegmatite_03,6,03,2,2,1.478,8,16,-0.141666667,-0.411458333,1,0,0,1.9459,Pegmatite_rect,6,1.946,1,15,0,15,0,1,,,,,,,,,,,,,
6636e27b4926cd0c965f3a47,SCR,2024-06-24_14h00.01.899,LearnStrategy,2023.2.3,Win32,60.24096386,8,2,1,,,,,,,,2,11,,,,,,,,,,,,,2,5.689,1,,,,,,-0.102083333,-0.241145833,1,0,0,5.6892,Basalt_rect,0,0,0,0,1,
6636e27b4926cd0c965f3a47,SCR,2024-06-24_14h00.01.899,LearnStrategy,2023.2.3,Win32,60.24096386,8,2,2,,,,,,,,6,13,,,,,,,,,,,,,5,2.956,0,,,,,,-0.414583333,-0.397395833,1,0,0,2.9564,Obsidian_rect,1,0,1,0,1,
6636e27b4926cd0c965f3a47,SCR,2024-06-24_14h00.01.899,LearnStrategy,2023.2.3,Win32,60.24096386,8,2,3,,,,,,,,3,11,,,,,,,,,,,,,3,4.64,1,,,,,,0.152083333,-0.244270833,1,0,0,4.6398,Diorite_rect,2,0,2,0,1,
6636e27b4926cd0c965f3a47,SCR,2024-06-24_14h00.01.899,LearnStrategy,2023.2.3,Win32,60.24096386,8,2,4,,,,,,,,7,14,,,,,,,,,,,,,7,2.215,1,,,,,,0.125,-0.409375,1,0,0,2.2155,Peridotite_rect,3,0,3,0,1,
6636e27b4926cd0c965f3a47,SCR,2024-06-24_14h00.01.899,LearnStrategy,2023.2.3,Win32,60.24096386,8,2,5,,,,,,,,8,10,,,,,,,,,,,,,8,3.906,1,,,,,,0.3640625,-0.3921875,1,0,0,3.9057,Pumice_rect,4,0,4,0,1,
6636e27b4926cd0c965f3a47,SCR,2024-06-24_14h00.01.899,LearnStrategy,2023.2.3,Win32,60.24096386,8,2,6,,,,,,,,5,11,,,,,,,,,,,,,5,1.041,1,,,,,,-0.419270833,-0.407291667,1,0,0,1.0413,Obsidian_rect,5,0,5,0,1,
6636e27b4926cd0c965f3a47,SCR,2024-06-24_14h00.01.899,LearnStrategy,2023.2.3,Win32,60.24096386,8,2,7,,,,,,,,1,11,,,,,,,,,,,,,1,1.49,1,,,,,,-0.3859375,-0.239583333,1,0,0,1.4898,Andesite_rect,6,0,6,0,1,
6636e27b4926cd0c965f3a47,SCR,2024-06-24_14h00.01.899,LearnStrategy,2023.2.3,Win32,60.24096386,8,2,8,,,,,,,,2,08,,,,,,,,,,,,,2,1.306,1,,,,,,-0.141145833,-0.240625,1,0,0,1.3064,Basalt_rect,7,0,7,0,1,
6636e27b4926cd0c965f3a47,SCR,2024-06-24_14h00.01.899,LearnStrategy,2023.2.3,Win32,60.24096386,8,2,9,,,,,,,,3,13,,,,,,,,,,,,,3,7.759,1,,,,,,0.118229167,-0.240104167,1,0,0,7.7592,Diorite_rect,8,0,8,0,1,
6636e27b4926cd0c965f3a47,SCR,2024-06-24_14h00.01.899,LearnStrategy,2023.2.3,Win32,60.24096386,8,2,10,,,,,,,,7,15,,,,,,,,,,,,,7,2.109,1,,,,,,0.110416667,-0.401041667,1,0,0,2.1094,Peridotite_rect,9,0,9,0,1,
6636e27b4926cd0c965f3a47,SCR,2024-06-24_14h00.01.899,LearnStrategy,2023.2.3,Win32,60.24096386,8,2,11,,,,,,,,6,15,,,,,,,,,,,,,6,0.873,1,,,,,,-0.071875,-0.399479167,1,0,0,0.873,Pegmatite_rect,10,0,10,0,1,
6636e27b4926cd0c965f3a47,SCR,2024-06-24_14h00.01.899,LearnStrategy,2023.2.3,Win32,60.24096386,8,2,12,,,,,,,,4,05,,,,,,,,,,,,,5,3.275,0,,,,,,-0.375520833,-0.397916667,1,0,0,3.2748,Obsidian_rect,11,0,11,0,1,
6636e27b4926cd0c965f3a47,SCR,2024-06-24_14h00.01.899,LearnStrategy,2023.2.3,Win32,60.24096386,8,2,13,,,,,,,,5,14,,,,,,,,,,,,,5,0.69,1,,,,,,-0.375520833,-0.397916667,1,0,0,0.6902,Obsidian_rect,12,0,12,0,1,
6636e27b4926cd0c965f3a47,SCR,2024-06-24_14h00.01.899,LearnStrategy,2023.2.3,Win32,60.24096386,8,2,14,,,,,,,,4,09,,,,,,,,,,,,,2,1.707,0,,,,,,-0.1328125,-0.244791667,1,0,0,1.7068,Basalt_rect,13,0,13,0,1,
6636e27b4926cd0c965f3a47,SCR,2024-06-24_14h00.01.899,LearnStrategy,2023.2.3,Win32,60.24096386,8,2,15,,,,,,,,1,07,,,,,,,,,,,,,1,1.406,1,,,,,,-0.352083333,-0.265104167,1,0,0,1.4063,Andesite_rect,14,0,14,0,1,
6636e27b4926cd0c965f3a47,SCR,2024-06-24_14h00.01.899,LearnStrategy,2023.2.3,Win32,60.24096386,8,2,16,,,,,,,,8,13,,,,,,,,,,,,,8,3.097,1,,,,,,0.365625,-0.388020833,1,0,0,3.0974,Pumice_rect,15,0,15,0,1,
6636e27b4926cd0c965f3a47,SCR,2024-06-24_14h00.01.899,LearnStrategy,2023.2.3,Win32,60.24096386,9,1,1,-0.083854167,-0.091145833,1,0,0,1.2943,Peridotite_07,7,07,3,4,1.294,2,05,0.111979167,-0.4015625,1,0,0,1.619,Peridotite_rect,7,1.619,1,0,0,0,0,1,,,,,,,,,,,,,
6636e27b4926cd0c965f3a47,SCR,2024-06-24_14h00.01.899,LearnStrategy,2023.2.3,Win32,60.24096386,9,1,2,0.236979167,-0.121875,1,0,0,0.9469,Diorite_10,3,10,3,6,0.947,4,13,0.471354167,-0.261458333,1,0,0,2.1217,Gabbro_rect,4,2.122,0,1,0,1,0,1,,,,,,,,,,,,,
6636e27b4926cd0c965f3a47,SCR,2024-06-24_14h00.01.899,LearnStrategy,2023.2.3,Win32,60.24096386,9,1,3,0.521354167,-0.0984375,1,0,0,1.4313,Andesite_06,1,06,3,8,1.431,6,09,-0.4265625,-0.2671875,1,0,0,3.2538,Andesite_rect,1,3.254,1,2,0,2,0,1,,,,,,,,,,,,,
6636e27b4926cd0c965f3a47,SCR,2024-06-24_14h00.01.899,LearnStrategy,2023.2.3,Win32,60.24096386,9,1,4,0.070833333,0.1171875,1,0,0,0.7803,Andesite_04,1,04,4,5,0.78,4,03,-0.386979167,-0.234375,1,0,0,1.0539,Andesite_rect,1,1.054,1,3,0,3,0,1,,,,,,,,,,,,,
6636e27b4926cd0c965f3a47,SCR,2024-06-24_14h00.01.899,LearnStrategy,2023.2.3,Win32,60.24096386,9,1,5,0.416145833,0.236458333,1,0,0,1.2977,Diorite_06,3,06,5,7,1.298,6,05,0.113541667,-0.234895833,1,0,0,1.7375,Diorite_rect,3,1.738,1,4,0,4,0,1,,,,,,,,,,,,,
6636e27b4926cd0c965f3a47,SCR,2024-06-24_14h00.01.899,LearnStrategy,2023.2.3,Win32,60.24096386,9,1,6,0.5796875,0.253645833,1,0,0,1.3144,Gabbro_15,4,15,5,8,1.314,5,05,0.3796875,-0.242708333,1,0,0,1.7542,Gabbro_rect,4,1.754,1,5,0,5,0,1,,,,,,,,,,,,,
6636e27b4926cd0c965f3a47,SCR,2024-06-24_14h00.01.899,LearnStrategy,2023.2.3,Win32,60.24096386,9,1,7,-0.1859375,0.247395833,1,0,0,1.1466,Basalt_09,2,09,5,3,1.147,8,09,-0.107291667,-0.248958333,1,0,0,1.0045,Basalt_rect,2,1.005,1,6,0,6,0,1,,,,,,,,,,,,,
6636e27b4926cd0c965f3a47,SCR,2024-06-24_14h00.01.899,LearnStrategy,2023.2.3,Win32,60.24096386,9,1,8,-0.365625,0.266145833,1,0,0,1.2478,Basalt_06,2,06,5,2,1.248,3,10,-0.1390625,-0.249479167,1,0,0,1.2227,Basalt_rect,2,1.223,1,7,0,7,0,1,,,,,,,,,,,,,
6636e27b4926cd0c965f3a47,SCR,2024-06-24_14h00.01.899,LearnStrategy,2023.2.3,Win32,60.24096386,9,1,9,-0.079166667,0.415104167,1,0,0,1.1316,Diorite_12,3,12,6,4,1.132,4,03,0.15,-0.267708333,1,0,0,2.9534,Diorite_rect,3,2.953,1,8,0,8,0,1,,,,,,,,,,,,,
6636e27b4926cd0c965f3a47,SCR,2024-06-24_14h00.01.899,LearnStrategy,2023.2.3,Win32,60.24096386,9,1,10,0.0734375,0.4265625,1,0,0,0.871,Gabbro_13,4,13,6,5,0.871,3,16,0.405208333,-0.2515625,1,0,0,0.8464,Gabbro_rect,4,0.846,1,9,0,9,0,1,,,,,,,,,,,,,
6636e27b4926cd0c965f3a47,SCR,2024-06-24_14h00.01.899,LearnStrategy,2023.2.3,Win32,60.24096386,9,1,11,0.582291667,0.416666667,1,0,0,2.4804,Pumice_14,8,14,6,8,2.48,4,01,0.424479167,-0.390104167,1,0,0,1.4381,Pumice_rect,8,1.438,1,10,0,10,0,1,,,,,,,,,,,,,
6636e27b4926cd0c965f3a47,SCR,2024-06-24_14h00.01.899,LearnStrategy,2023.2.3,Win32,60.24096386,9,1,12,0.515625,0.1015625,1,0,0,1.4643,Peridotite_05,7,05,4,8,1.464,4,13,0.117708333,-0.413020833,1,0,0,1.6705,Peridotite_rect,7,1.671,1,11,0,11,0,1,,,,,,,,,,,,,
6636e27b4926cd0c965f3a47,SCR,2024-06-24_14h00.01.899,LearnStrategy,2023.2.3,Win32,60.24096386,9,1,13,-0.072395833,-0.410416667,1,0,0,1.1639,Diorite_16,3,16,1,4,1.164,6,08,0.0796875,-0.247395833,1,0,0,3.0881,Diorite_rect,3,3.088,1,12,0,12,0,1,,,,,,,,,,,,,
6636e27b4926cd0c965f3a47,SCR,2024-06-24_14h00.01.899,LearnStrategy,2023.2.3,Win32,60.24096386,9,1,14,-0.224479167,-0.418229167,1,0,0,2.3794,Gabbro_03,4,03,1,3,2.379,1,01,0.347916667,-0.241666667,1,0,0,1.1215,Gabbro_rect,4,1.121,1,13,0,13,0,1,,,,,,,,,,,,,
6636e27b4926cd0c965f3a47,SCR,2024-06-24_14h00.01.899,LearnStrategy,2023.2.3,Win32,60.24096386,9,1,15,-0.084375,-0.110416667,1,0,0,2.1141,Peridotite_07,7,07,3,4,2.114,4,13,0.091666667,-0.415625,1,0,0,1.2371,Peridotite_rect,7,1.237,1,14,0,14,0,1,,,,,,,,,,,,,
6636e27b4926cd0c965f3a47,SCR,2024-06-24_14h00.01.899,LearnStrategy,2023.2.3,Win32,60.24096386,9,1,16,0.220833333,-0.111979167,1,0,0,1.1138,Diorite_10,3,10,3,6,1.114,7,13,0.452604167,-0.243229167,1,0,0,1.2881,Gabbro_rect,4,1.288,0,15,0,15,0,1,,,,,,,,,,,,,
6636e27b4926cd0c965f3a47,SCR,2024-06-24_14h00.01.899,LearnStrategy,2023.2.3,Win32,60.24096386,9,2,1,,,,,,,,6,16,,,,,,,,,,,,,6,5.656,1,,,,,,-0.136458333,-0.40625,1,0,0,5.6563,Pegmatite_rect,0,0,0,0,1,
6636e27b4926cd0c965f3a47,SCR,2024-06-24_14h00.01.899,LearnStrategy,2023.2.3,Win32,60.24096386,9,2,2,,,,,,,,4,10,,,,,,,,,,,,,2,7.19,0,,,,,,-0.1578125,-0.239583333,1,0,0,7.1899,Basalt_rect,1,0,1,0,1,
6636e27b4926cd0c965f3a47,SCR,2024-06-24_14h00.01.899,LearnStrategy,2023.2.3,Win32,60.24096386,9,2,3,,,,,,,,2,16,,,,,,,,,,,,,2,1.641,1,,,,,,-0.1265625,-0.255729167,1,0,0,1.6407,Basalt_rect,2,0,2,0,1,
6636e27b4926cd0c965f3a47,SCR,2024-06-24_14h00.01.899,LearnStrategy,2023.2.3,Win32,60.24096386,9,2,4,,,,,,,,8,06,,,,,,,,,,,,,8,1.49,1,,,,,,0.385416667,-0.416145833,1,0,0,1.4901,Pumice_rect,3,0,3,0,1,
6636e27b4926cd0c965f3a47,SCR,2024-06-24_14h00.01.899,LearnStrategy,2023.2.3,Win32,60.24096386,9,2,5,,,,,,,,1,02,,,,,,,,,,,,,1,1.256,1,,,,,,-0.385416667,-0.24375,1,0,0,1.2563,Andesite_rect,4,0,4,0,1,
6636e27b4926cd0c965f3a47,SCR,2024-06-24_14h00.01.899,LearnStrategy,2023.2.3,Win32,60.24096386,9,2,6,,,,,,,,5,06,,,,,,,,,,,,,5,1.056,1,,,,,,-0.367708333,-0.380729167,1,0,0,1.0557,Obsidian_rect,5,0,5,0,1,
6636e27b4926cd0c965f3a47,SCR,2024-06-24_14h00.01.899,LearnStrategy,2023.2.3,Win32,60.24096386,9,2,7,,,,,,,,1,09,,,,,,,,,,,,,1,1.073,1,,,,,,-0.379166667,-0.247395833,1,0,0,1.0725,Andesite_rect,6,0,6,0,1,
6636e27b4926cd0c965f3a47,SCR,2024-06-24_14h00.01.899,LearnStrategy,2023.2.3,Win32,60.24096386,9,2,8,,,,,,,,3,07,,,,,,,,,,,,,1,7.355,0,,,,,,-0.39375,-0.247395833,1,0,0,7.355,Andesite_rect,7,0,7,0,1,
6636e27b4926cd0c965f3a47,SCR,2024-06-24_14h00.01.899,LearnStrategy,2023.2.3,Win32,60.24096386,9,2,9,,,,,,,,5,16,,,,,,,,,,,,,5,0.887,1,,,,,,-0.335416667,-0.390625,1,0,0,0.8872,Obsidian_rect,8,0,8,0,1,
6636e27b4926cd0c965f3a47,SCR,2024-06-24_14h00.01.899,LearnStrategy,2023.2.3,Win32,60.24096386,9,2,10,,,,,,,,2,10,,,,,,,,,,,,,2,1.757,1,,,,,,-0.127083333,-0.244791667,1,0,0,1.7568,Basalt_rect,9,0,9,0,1,
6636e27b4926cd0c965f3a47,SCR,2024-06-24_14h00.01.899,LearnStrategy,2023.2.3,Win32,60.24096386,9,2,11,,,,,,,,7,08,,,,,,,,,,,,,7,1.956,1,,,,,,0.105208333,-0.419270833,1,0,0,1.9562,Peridotite_rect,10,0,10,0,1,
6636e27b4926cd0c965f3a47,SCR,2024-06-24_14h00.01.899,LearnStrategy,2023.2.3,Win32,60.24096386,9,2,12,,,,,,,,7,06,,,,,,,,,,,,,7,0.924,1,,,,,,0.096875,-0.391666667,1,0,0,0.924,Peridotite_rect,11,0,11,0,1,
6636e27b4926cd0c965f3a47,SCR,2024-06-24_14h00.01.899,LearnStrategy,2023.2.3,Win32,60.24096386,9,2,13,,,,,,,,6,06,,,,,,,,,,,,,1,1.556,0,,,,,,-0.357291667,-0.240625,1,0,0,1.5559,Andesite_rect,12,0,12,0,1,
6636e27b4926cd0c965f3a47,SCR,2024-06-24_14h00.01.899,LearnStrategy,2023.2.3,Win32,60.24096386,9,2,14,,,,,,,,4,12,,,,,,,,,,,,,3,6.206,0,,,,,,0.1,-0.253645833,1,0,0,6.2056,Diorite_rect,13,0,13,0,1,
6636e27b4926cd0c965f3a47,SCR,2024-06-24_14h00.01.899,LearnStrategy,2023.2.3,Win32,60.24096386,9,2,15,,,,,,,,3,14,,,,,,,,,,,,,1,3.505,0,,,,,,-0.375520833,-0.253645833,1,0,0,3.5047,Andesite_rect,14,0,14,0,1,
6636e27b4926cd0c965f3a47,SCR,2024-06-24_14h00.01.899,LearnStrategy,2023.2.3,Win32,60.24096386,9,2,16,,,,,,,,8,08,,,,,,,,,,,,,8,1.305,1,,,,,,0.396354167,-0.400520833,1,0,0,1.3049,Pumice_rect,15,0,15,0,1,
6636e27b4926cd0c965f3a47,SCR,2024-06-24_14h00.01.899,LearnStrategy,2023.2.3,Win32,60.24096386,,,,,,,,,,,,,,,,,,,,,,,,,,,,,,,,,,,,,,,,,,,,,1
6636e27b4926cd0c965f3a47,SCR,2024-06-24_14h00.01.899,LearnStrategy,2023.2.3,Win32,60.24096386,,,,,,,,,,,,,,,,,,,,,,,,,,,,,,,,,,,,,,,,,,,,,
6636e27b4926cd0c965f3a47,SCR,2024-06-24_14h00.01.899,LearnStrategy,2023.2.3,Win32,60.24096386,,,,,,,,,,,5,05,1,1,,,,,,,,,,,,,,,,,,,,,,,,,,,,,,,
6636e27b4926cd0c965f3a47,SCR,2024-06-24_14h00.01.899,LearnStrategy,2023.2.3,Win32,60.24096386,,,,,,,,,,,2,04,1,2,,,,,,,,,,,,,,,,,,,,,,,,,,,,,,,
6636e27b4926cd0c965f3a47,SCR,2024-06-24_14h00.01.899,LearnStrategy,2023.2.3,Win32,60.24096386,,,,,,,,,,,4,03,1,3,,,,,,,,,,,,,,,,,,,,,,,,,,,,,,,
6636e27b4926cd0c965f3a47,SCR,2024-06-24_14h00.01.899,LearnStrategy,2023.2.3,Win32,60.24096386,,,,,,,,,,,3,16,1,4,,,,,,,,,,,,,,,,,,,,,,,,,,,,,,,
6636e27b4926cd0c965f3a47,SCR,2024-06-24_14h00.01.899,LearnStrategy,2023.2.3,Win32,60.24096386,,,,,,,,,,,6,07,1,5,,,,,,,,,,,,,,,,,,,,,,,,,,,,,,,
6636e27b4926cd0c965f3a47,SCR,2024-06-24_14h00.01.899,LearnStrategy,2023.2.3,Win32,60.24096386,,,,,,,,,,,5,04,1,6,,,,,,,,,,,,,,,,,,,,,,,,,,,,,,,
6636e27b4926cd0c965f3a47,SCR,2024-06-24_14h00.01.899,LearnStrategy,2023.2.3,Win32,60.24096386,,,,,,,,,,,1,14,1,7,,,,,,,,,,,,,,,,,,,,,,,,,,,,,,,
6636e27b4926cd0c965f3a47,SCR,2024-06-24_14h00.01.899,LearnStrategy,2023.2.3,Win32,60.24096386,,,,,,,,,,,7,13,1,8,,,,,,,,,,,,,,,,,,,,,,,,,,,,,,,
6636e27b4926cd0c965f3a47,SCR,2024-06-24_14h00.01.899,LearnStrategy,2023.2.3,Win32,60.24096386,,,,,,,,,,,3,08,2,1,,,,,,,,,,,,,,,,,,,,,,,,,,,,,,,
6636e27b4926cd0c965f3a47,SCR,2024-06-24_14h00.01.899,LearnStrategy,2023.2.3,Win32,60.24096386,,,,,,,,,,,6,03,2,2,,,,,,,,,,,,,,,,,,,,,,,,,,,,,,,
6636e27b4926cd0c965f3a47,SCR,2024-06-24_14h00.01.899,LearnStrategy,2023.2.3,Win32,60.24096386,,,,,,,,,,,8,09,2,3,,,,,,,,,,,,,,,,,,,,,,,,,,,,,,,
6636e27b4926cd0c965f3a47,SCR,2024-06-24_14h00.01.899,LearnStrategy,2023.2.3,Win32,60.24096386,,,,,,,,,,,2,14,2,4,,,,,,,,,,,,,,,,,,,,,,,,,,,,,,,
6636e27b4926cd0c965f3a47,SCR,2024-06-24_14h00.01.899,LearnStrategy,2023.2.3,Win32,60.24096386,,,,,,,,,,,4,01,2,5,,,,,,,,,,,,,,,,,,,,,,,,,,,,,,,
6636e27b4926cd0c965f3a47,SCR,2024-06-24_14h00.01.899,LearnStrategy,2023.2.3,Win32,60.24096386,,,,,,,,,,,2,12,2,6,,,,,,,,,,,,,,,,,,,,,,,,,,,,,,,
6636e27b4926cd0c965f3a47,SCR,2024-06-24_14h00.01.899,LearnStrategy,2023.2.3,Win32,60.24096386,,,,,,,,,,,7,16,2,7,,,,,,,,,,,,,,,,,,,,,,,,,,,,,,,
6636e27b4926cd0c965f3a47,SCR,2024-06-24_14h00.01.899,LearnStrategy,2023.2.3,Win32,60.24096386,,,,,,,,,,,2,05,2,8,,,,,,,,,,,,,,,,,,,,,,,,,,,,,,,
6636e27b4926cd0c965f3a47,SCR,2024-06-24_14h00.01.899,LearnStrategy,2023.2.3,Win32,60.24096386,,,,,,,,,,,1,10,3,1,,,,,,,,,,,,,,,,,,,,,,,,,,,,,,,
6636e27b4926cd0c965f3a47,SCR,2024-06-24_14h00.01.899,LearnStrategy,2023.2.3,Win32,60.24096386,,,,,,,,,,,6,08,3,2,,,,,,,,,,,,,,,,,,,,,,,,,,,,,,,
6636e27b4926cd0c965f3a47,SCR,2024-06-24_14h00.01.899,LearnStrategy,2023.2.3,Win32,60.24096386,,,,,,,,,,,1,01,3,3,,,,,,,,,,,,,,,,,,,,,,,,,,,,,,,
6636e27b4926cd0c965f3a47,SCR,2024-06-24_14h00.01.899,LearnStrategy,2023.2.3,Win32,60.24096386,,,,,,,,,,,7,07,3,4,,,,,,,,,,,,,,,,,,,,,,,,,,,,,,,
6636e27b4926cd0c965f3a47,SCR,2024-06-24_14h00.01.899,LearnStrategy,2023.2.3,Win32,60.24096386,,,,,,,,,,,5,02,3,5,,,,,,,,,,,,,,,,,,,,,,,,,,,,,,,
6636e27b4926cd0c965f3a47,SCR,2024-06-24_14h00.01.899,LearnStrategy,2023.2.3,Win32,60.24096386,,,,,,,,,,,3,10,3,6,,,,,,,,,,,,,,,,,,,,,,,,,,,,,,,
6636e27b4926cd0c965f3a47,SCR,2024-06-24_14h00.01.899,LearnStrategy,2023.2.3,Win32,60.24096386,,,,,,,,,,,4,16,3,7,,,,,,,,,,,,,,,,,,,,,,,,,,,,,,,
6636e27b4926cd0c965f3a47,SCR,2024-06-24_14h00.01.899,LearnStrategy,2023.2.3,Win32,60.24096386,,,,,,,,,,,1,06,3,8,,,,,,,,,,,,,,,,,,,,,,,,,,,,,,,
6636e27b4926cd0c965f3a47,SCR,2024-06-24_14h00.01.899,LearnStrategy,2023.2.3,Win32,60.24096386,,,,,,,,,,,8,15,4,1,,,,,,,,,,,,,,,,,,,,,,,,,,,,,,,
6636e27b4926cd0c965f3a47,SCR,2024-06-24_14h00.01.899,LearnStrategy,2023.2.3,Win32,60.24096386,,,,,,,,,,,3,02,4,2,,,,,,,,,,,,,,,,,,,,,,,,,,,,,,,
6636e27b4926cd0c965f3a47,SCR,2024-06-24_14h00.01.899,LearnStrategy,2023.2.3,Win32,60.24096386,,,,,,,,,,,7,04,4,3,,,,,,,,,,,,,,,,,,,,,,,,,,,,,,,
6636e27b4926cd0c965f3a47,SCR,2024-06-24_14h00.01.899,LearnStrategy,2023.2.3,Win32,60.24096386,,,,,,,,,,,6,11,4,4,,,,,,,,,,,,,,,,,,,,,,,,,,,,,,,
6636e27b4926cd0c965f3a47,SCR,2024-06-24_14h00.01.899,LearnStrategy,2023.2.3,Win32,60.24096386,,,,,,,,,,,1,04,4,5,,,,,,,,,,,,,,,,,,,,,,,,,,,,,,,
6636e27b4926cd0c965f3a47,SCR,2024-06-24_14h00.01.899,LearnStrategy,2023.2.3,Win32,60.24096386,,,,,,,,,,,5,09,4,6,,,,,,,,,,,,,,,,,,,,,,,,,,,,,,,
6636e27b4926cd0c965f3a47,SCR,2024-06-24_14h00.01.899,LearnStrategy,2023.2.3,Win32,60.24096386,,,,,,,,,,,8,03,4,7,,,,,,,,,,,,,,,,,,,,,,,,,,,,,,,
6636e27b4926cd0c965f3a47,SCR,2024-06-24_14h00.01.899,LearnStrategy,2023.2.3,Win32,60.24096386,,,,,,,,,,,7,05,4,8,,,,,,,,,,,,,,,,,,,,,,,,,,,,,,,
6636e27b4926cd0c965f3a47,SCR,2024-06-24_14h00.01.899,LearnStrategy,2023.2.3,Win32,60.24096386,,,,,,,,,,,6,05,5,1,,,,,,,,,,,,,,,,,,,,,,,,,,,,,,,
6636e27b4926cd0c965f3a47,SCR,2024-06-24_14h00.01.899,LearnStrategy,2023.2.3,Win32,60.24096386,,,,,,,,,,,2,06,5,2,,,,,,,,,,,,,,,,,,,,,,,,,,,,,,,
6636e27b4926cd0c965f3a47,SCR,2024-06-24_14h00.01.899,LearnStrategy,2023.2.3,Win32,60.24096386,,,,,,,,,,,2,09,5,3,,,,,,,,,,,,,,,,,,,,,,,,,,,,,,,
6636e27b4926cd0c965f3a47,SCR,2024-06-24_14h00.01.899,LearnStrategy,2023.2.3,Win32,60.24096386,,,,,,,,,,,8,04,5,4,,,,,,,,,,,,,,,,,,,,,,,,,,,,,,,
6636e27b4926cd0c965f3a47,SCR,2024-06-24_14h00.01.899,LearnStrategy,2023.2.3,Win32,60.24096386,,,,,,,,,,,4,11,5,5,,,,,,,,,,,,,,,,,,,,,,,,,,,,,,,
6636e27b4926cd0c965f3a47,SCR,2024-06-24_14h00.01.899,LearnStrategy,2023.2.3,Win32,60.24096386,,,,,,,,,,,8,16,5,6,,,,,,,,,,,,,,,,,,,,,,,,,,,,,,,
6636e27b4926cd0c965f3a47,SCR,2024-06-24_14h00.01.899,LearnStrategy,2023.2.3,Win32,60.24096386,,,,,,,,,,,3,06,5,7,,,,,,,,,,,,,,,,,,,,,,,,,,,,,,,
6636e27b4926cd0c965f3a47,SCR,2024-06-24_14h00.01.899,LearnStrategy,2023.2.3,Win32,60.24096386,,,,,,,,,,,4,15,5,8,,,,,,,,,,,,,,,,,,,,,,,,,,,,,,,
6636e27b4926cd0c965f3a47,SCR,2024-06-24_14h00.01.899,LearnStrategy,2023.2.3,Win32,60.24096386,,,,,,,,,,,1,16,6,1,,,,,,,,,,,,,,,,,,,,,,,,,,,,,,,
6636e27b4926cd0c965f3a47,SCR,2024-06-24_14h00.01.899,LearnStrategy,2023.2.3,Win32,60.24096386,,,,,,,,,,,7,10,6,2,,,,,,,,,,,,,,,,,,,,,,,,,,,,,,,
6636e27b4926cd0c965f3a47,SCR,2024-06-24_14h00.01.899,LearnStrategy,2023.2.3,Win32,60.24096386,,,,,,,,,,,5,12,6,3,,,,,,,,,,,,,,,,,,,,,,,,,,,,,,,
6636e27b4926cd0c965f3a47,SCR,2024-06-24_14h00.01.899,LearnStrategy,2023.2.3,Win32,60.24096386,,,,,,,,,,,3,12,6,4,,,,,,,,,,,,,,,,,,,,,,,,,,,,,,,
6636e27b4926cd0c965f3a47,SCR,2024-06-24_14h00.01.899,LearnStrategy,2023.2.3,Win32,60.24096386,,,,,,,,,,,4,13,6,5,,,,,,,,,,,,,,,,,,,,,,,,,,,,,,,
6636e27b4926cd0c965f3a47,SCR,2024-06-24_14h00.01.899,LearnStrategy,2023.2.3,Win32,60.24096386,,,,,,,,,,,6,09,6,6,,,,,,,,,,,,,,,,,,,,,,,,,,,,,,,
6636e27b4926cd0c965f3a47,SCR,2024-06-24_14h00.01.899,LearnStrategy,2023.2.3,Win32,60.24096386,,,,,,,,,,,5,07,6,7,,,,,,,,,,,,,,,,,,,,,,,,,,,,,,,
6636e27b4926cd0c965f3a47,SCR,2024-06-24_14h00.01.899,LearnStrategy,2023.2.3,Win32,60.24096386,,,,,,,,,,,8,14,6,8,,,,,,,,,,,,,,,,,,,,,,,,,,,,,,,