participant,condition,date,expName,psychopyVersion,OS,frameRate,block,phase,trial,learn_mouse_2.x,learn_mouse_2.y,learn_mouse_2.leftButton,learn_mouse_2.midButton,learn_mouse_2.rightButton,learn_mouse_2.time,learn_mouse_2.clicked_name,cat,token,row,col,t_select,cat_mouse_l.x,cat_mouse_l.y,cat_mouse_l.leftButton,cat_mouse_l.midButton,cat_mouse_l.rightButton,cat_mouse_l.time,cat_mouse_l.clicked_name,resp,t_resp,corr,train_trials.thisRepN,train_trials.thisTrialN,train_trials.thisN,train_trials.thisIndex,train_trials.ran,cat_mouse_t.x,cat_mouse_t.y,cat_mouse_t.leftButton,cat_mouse_t.midButton,cat_mouse_t.rightButton,cat_mouse_t.time,cat_mouse_t.clicked_name,test_trials.thisRepN,test_trials.thisTrialN,test_trials.thisN,test_trials.thisIndex,test_trials.ran,Bonus
66370a20a4b5b1a460904760,TCN,2024-06-20_15h28.13.349,LearnStrategy,2023.2.3,Win32,144.9275362,,,,,,,,,,,,,,,,,,,,,,,,,,,,,,,,,,,,,,,,,,,
66370a20a4b5b1a460904760,TCN,2024-06-20_15h28.13.349,LearnStrategy,2023.2.3,Win32,144.9275362,1,1,1,0.026851866,0.014814801,1,0,0,4.371,rock_grid_rect_2,2,10,-1,-1,4.371,-0.099999958,-0.400925954,1,0,0,13.0536,Pegmatite_rect,6,13.054,0,0,0,0,0,1,,,,,,,,,,,,,
66370a20a4b5b1a460904760,TCN,2024-06-20_15h28.13.349,LearnStrategy,2023.2.3,Win32,144.9275362,1,1,2,0.047222208,0.011111118,1,0,0,2.0377,rock_grid_rect_2,8,06,-1,-1,2.038,0.415740826,-0.404629672,1,0,0,3.3796,Pumice_rect,8,3.38,1,1,0,1,0,1,,,,,,,,,,,,,
66370a20a4b5b1a460904760,TCN,2024-06-20_15h28.13.349,LearnStrategy,2023.2.3,Win32,144.9275362,1,1,3,0.007407436,0.001851859,1,0,0,1.7811,rock_grid_rect_2,6,13,-1,-1,1.781,-0.423148155,-0.39444443,1,0,0,8.9144,Obsidian_rect,5,8.914,0,2,0,2,0,1,,,,,,,,,,,,,
66370a20a4b5b1a460904760,TCN,2024-06-20_15h28.13.349,LearnStrategy,2023.2.3,Win32,144.9275362,1,1,4,0.060185185,0.001851859,1,0,0,0.9063,rock_grid_rect_2,6,11,-1,-1,0.906,-0.393518519,-0.401851866,1,0,0,6.8972,Obsidian_rect,5,6.897,0,3,0,3,0,1,,,,,,,,,,,,,
66370a20a4b5b1a460904760,TCN,2024-06-20_15h28.13.349,LearnStrategy,2023.2.3,Win32,144.9275362,1,1,5,0.058333362,0.006481489,1,0,0,0.824,rock_grid_rect_2,8,13,-1,-1,0.824,0.409259231,-0.387037065,1,0,0,2.2057,Pumice_rect,8,2.206,1,4,0,4,0,1,,,,,,,,,,,,,
66370a20a4b5b1a460904760,TCN,2024-06-20_15h28.13.349,LearnStrategy,2023.2.3,Win32,144.9275362,1,1,6,-0.006481453,-0.008333347,1,0,0,1.06,rock_grid_rect_2,5,05,-1,-1,1.06,-0.452777757,-0.404629672,1,0,0,2.6886,Obsidian_rect,5,2.689,1,5,0,5,0,1,,,,,,,,,,,,,
66370a20a4b5b1a460904760,TCN,2024-06-20_15h28.13.349,LearnStrategy,2023.2.3,Win32,144.9275362,1,1,7,0.027777778,-0.001851859,1,0,0,1.0343,rock_grid_rect_2,1,02,-1,-1,1.034,0.136111153,-0.243518547,1,0,0,9.3438,Diorite_rect,3,9.344,0,6,0,6,0,1,,,,,,,,,,,,,
66370a20a4b5b1a460904760,TCN,2024-06-20_15h28.13.349,LearnStrategy,2023.2.3,Win32,144.9275362,1,1,8,0.023148148,-0.005555577,1,0,0,0.9997,rock_grid_rect_2,1,11,-1,-1,1,0.154629672,-0.262037065,1,0,0,5.1987,Diorite_rect,3,5.199,0,7,0,7,0,1,,,,,,,,,,,,,
66370a20a4b5b1a460904760,TCN,2024-06-20_15h28.13.349,LearnStrategy,2023.2.3,Win32,144.9275362,1,1,9,-0.014814801,-0.001851859,1,0,0,0.9997,rock_grid_rect_2,4,10,-1,-1,1,0.419444473,-0.402777778,1,0,0,12.5776,Pumice_rect,8,12.578,0,8,0,8,0,1,,,,,,,,,,,,,
66370a20a4b5b1a460904760,TCN,2024-06-20_15h28.13.349,LearnStrategy,2023.2.3,Win32,144.9275362,1,1,10,0.017592607,-0.009259259,1,0,0,1.5251,rock_grid_rect_2,7,08,-1,-1,1.525,0.161111125,-0.408333319,1,0,0,3.7462,Peridotite_rect,7,3.746,1,9,0,9,0,1,,,,,,,,,,,,,
66370a20a4b5b1a460904760,TCN,2024-06-20_15h28.13.349,LearnStrategy,2023.2.3,Win32,144.9275362,1,1,11,0.050925926,0.006481489,1,0,0,0.7701,rock_grid_rect_2,2,16,-1,-1,0.77,-0.116666653,-0.250925912,1,0,0,2.5531,Basalt_rect,2,2.553,1,10,0,10,0,1,,,,,,,,,,,,,
66370a20a4b5b1a460904760,TCN,2024-06-20_15h28.13.349,LearnStrategy,2023.2.3,Win32,144.9275362,1,1,12,0.033333319,-0.009259259,1,0,0,0.9832,rock_grid_rect_2,3,15,-1,-1,0.983,-0.396296289,-0.257407436,1,0,0,9.2276,Andesite_rect,1,9.228,0,11,0,11,0,1,,,,,,,,,,,,,
66370a20a4b5b1a460904760,TCN,2024-06-20_15h28.13.349,LearnStrategy,2023.2.3,Win32,144.9275362,1,1,13,0.128703718,-0.006481489,1,0,0,0.793,rock_grid_rect_2,7,02,-1,-1,0.793,0.15370369,-0.411111125,1,0,0,2.6524,Peridotite_rect,7,2.652,1,12,0,12,0,1,,,,,,,,,,,,,
66370a20a4b5b1a460904760,TCN,2024-06-20_15h28.13.349,LearnStrategy,2023.2.3,Win32,144.9275362,1,1,14,0.036111125,0.003703683,1,0,0,0.8376,rock_grid_rect_2,5,12,-1,-1,0.838,-0.361111111,-0.410185213,1,0,0,1.5656,Obsidian_rect,5,1.566,1,13,0,13,0,1,,,,,,,,,,,,,
66370a20a4b5b1a460904760,TCN,2024-06-20_15h28.13.349,LearnStrategy,2023.2.3,Win32,144.9275362,1,1,15,0.060185185,-0.006481489,1,0,0,1.2262,rock_grid_rect_2,3,07,-1,-1,1.226,-0.172222208,-0.419444473,1,0,0,8.4142,Pegmatite_rect,6,8.414,0,14,0,14,0,1,,,,,,,,,,,,,
66370a20a4b5b1a460904760,TCN,2024-06-20_15h28.13.349,LearnStrategy,2023.2.3,Win32,144.9275362,1,1,16,0.014814801,-0.008333347,1,0,0,1.0276,rock_grid_rect_2,4,08,-1,-1,1.028,0.448148233,-0.256481524,1,0,0,3.5144,Gabbro_rect,4,3.514,1,15,0,15,0,1,,,,,,,,,,,,,
66370a20a4b5b1a460904760,TCN,2024-06-20_15h28.13.349,LearnStrategy,2023.2.3,Win32,144.9275362,1,2,1,,,,,,,,1,06,,,,,,,,,,,3,7.256,0,,,,,,0.106481481,-0.247222265,1,0,0,7.2557,Diorite_rect,0,0,0,0,1,
66370a20a4b5b1a460904760,TCN,2024-06-20_15h28.13.349,LearnStrategy,2023.2.3,Win32,144.9275362,1,2,2,,,,,,,,6,15,,,,,,,,,,,6,7.188,1,,,,,,-0.146296254,-0.39907406,1,0,0,7.1875,Pegmatite_rect,1,0,1,0,1,
66370a20a4b5b1a460904760,TCN,2024-06-20_15h28.13.349,LearnStrategy,2023.2.3,Win32,144.9275362,1,2,3,,,,,,,,1,09,,,,,,,,,,,3,6.873,0,,,,,,0.121296282,-0.255555541,1,0,0,6.8731,Diorite_rect,2,0,2,0,1,
66370a20a4b5b1a460904760,TCN,2024-06-20_15h28.13.349,LearnStrategy,2023.2.3,Win32,144.9275362,1,2,4,,,,,,,,7,16,,,,,,,,,,,7,2.798,1,,,,,,0.145370413,-0.402777778,1,0,0,2.7984,Peridotite_rect,3,0,3,0,1,
66370a20a4b5b1a460904760,TCN,2024-06-20_15h28.13.349,LearnStrategy,2023.2.3,Win32,144.9275362,1,2,5,,,,,,,,5,10,,,,,,,,,,,5,1.457,1,,,,,,-0.39907406,-0.400000042,1,0,0,1.4566,Obsidian_rect,4,0,4,0,1,
66370a20a4b5b1a460904760,TCN,2024-06-20_15h28.13.349,LearnStrategy,2023.2.3,Win32,144.9275362,1,2,6,,,,,,,,7,14,,,,,,,,,,,7,14.285,1,,,,,,0.158333319,-0.413888931,1,0,0,14.2851,Peridotite_rect,5,0,5,0,1,
66370a20a4b5b1a460904760,TCN,2024-06-20_15h28.13.349,LearnStrategy,2023.2.3,Win32,144.9275362,1,2,7,,,,,,,,8,03,,,,,,,,,,,8,2.07,1,,,,,,0.439814815,-0.402777778,1,0,0,2.0702,Pumice_rect,6,0,6,0,1,
66370a20a4b5b1a460904760,TCN,2024-06-20_15h28.13.349,LearnStrategy,2023.2.3,Win32,144.9275362,1,2,8,,,,,,,,2,05,,,,,,,,,,,2,2.695,1,,,,,,-0.130555541,-0.255555541,1,0,0,2.6947,Basalt_rect,7,0,7,0,1,
66370a20a4b5b1a460904760,TCN,2024-06-20_15h28.13.349,LearnStrategy,2023.2.3,Win32,144.9275362,1,2,9,,,,,,,,5,06,,,,,,,,,,,5,1.976,1,,,,,,-0.375,-0.396296325,1,0,0,1.9759,Obsidian_rect,8,0,8,0,1,
66370a20a4b5b1a460904760,TCN,2024-06-20_15h28.13.349,LearnStrategy,2023.2.3,Win32,144.9275362,1,2,10,,,,,,,,2,02,,,,,,,,,,,2,3.447,1,,,,,,-0.132407365,-0.257407436,1,0,0,3.4468,Basalt_rect,9,0,9,0,1,
66370a20a4b5b1a460904760,TCN,2024-06-20_15h28.13.349,LearnStrategy,2023.2.3,Win32,144.9275362,1,2,11,,,,,,,,4,05,,,,,,,,,,,4,2.496,1,,,,,,0.411111196,-0.260185171,1,0,0,2.4962,Gabbro_rect,10,0,10,0,1,
66370a20a4b5b1a460904760,TCN,2024-06-20_15h28.13.349,LearnStrategy,2023.2.3,Win32,144.9275362,1,2,12,,,,,,,,8,16,,,,,,,,,,,8,1.692,1,,,,,,0.424074102,-0.400925954,1,0,0,1.6917,Pumice_rect,11,0,11,0,1,
66370a20a4b5b1a460904760,TCN,2024-06-20_15h28.13.349,LearnStrategy,2023.2.3,Win32,144.9275362,1,2,13,,,,,,,,4,03,,,,,,,,,,,1,6.47,0,,,,,,-0.375925912,-0.261111153,1,0,0,6.4697,Andesite_rect,12,0,12,0,1,
66370a20a4b5b1a460904760,TCN,2024-06-20_15h28.13.349,LearnStrategy,2023.2.3,Win32,144.9275362,1,2,14,,,,,,,,3,11,,,,,,,,,,,3,3.521,1,,,,,,0.159259302,-0.262962977,1,0,0,3.5213,Diorite_rect,13,0,13,0,1,
66370a20a4b5b1a460904760,TCN,2024-06-20_15h28.13.349,LearnStrategy,2023.2.3,Win32,144.9275362,1,2,15,,,,,,,,3,09,,,,,,,,,,,3,6.977,1,,,,,,0.087037051,-0.253703718,1,0,0,6.9772,Diorite_rect,14,0,14,0,1,
66370a20a4b5b1a460904760,TCN,2024-06-20_15h28.13.349,LearnStrategy,2023.2.3,Win32,144.9275362,1,2,16,,,,,,,,6,03,,,,,,,,,,,6,5.408,1,,,,,,-0.108333305,-0.410185213,1,0,0,5.4078,Pegmatite_rect,15,0,15,0,1,
66370a20a4b5b1a460904760,TCN,2024-06-20_15h28.13.349,LearnStrategy,2023.2.3,Win32,144.9275362,2,1,1,-0.012036995,0,1,0,0,1.6683,rock_grid_rect_2,8,14,-1,-1,1.668,0.422222279,-0.397222236,1,0,0,1.7611,Pumice_rect,8,1.761,1,0,0,0,0,1,,,,,,,,,,,,,
66370a20a4b5b1a460904760,TCN,2024-06-20_15h28.13.349,LearnStrategy,2023.2.3,Win32,144.9275362,2,1,2,0.017592607,-0.005555577,1,0,0,1.1039,rock_grid_rect_2,4,14,-1,-1,1.104,-0.132407365,-0.244444459,1,0,0,6.9107,Basalt_rect,2,6.911,0,1,0,1,0,1,,,,,,,,,,,,,
66370a20a4b5b1a460904760,TCN,2024-06-20_15h28.13.349,LearnStrategy,2023.2.3,Win32,144.9275362,2,1,3,0.011111153,-0.002777771,1,0,0,0.981,rock_grid_rect_2,1,05,-1,-1,0.981,0.160185213,-0.413888931,1,0,0,2.6218,Peridotite_rect,7,2.622,0,2,0,2,0,1,,,,,,,,,,,,,
66370a20a4b5b1a460904760,TCN,2024-06-20_15h28.13.349,LearnStrategy,2023.2.3,Win32,144.9275362,2,1,4,0.084259245,-0.008333347,1,0,0,2.5666,rock_grid_rect_2,5,02,-1,-1,2.567,-0.340740734,-0.384259259,1,0,0,1.0593,Obsidian_rect,5,1.059,1,3,0,3,0,1,,,,,,,,,,,,,
66370a20a4b5b1a460904760,TCN,2024-06-20_15h28.13.349,LearnStrategy,2023.2.3,Win32,144.9275362,2,1,5,0.087962963,-0.010185206,1,0,0,0.6295,rock_grid_rect_2,7,10,-1,-1,0.629,0.158333319,-0.39444443,1,0,0,1.7658,Peridotite_rect,7,1.766,1,4,0,4,0,1,,,,,,,,,,,,,
66370a20a4b5b1a460904760,TCN,2024-06-20_15h28.13.349,LearnStrategy,2023.2.3,Win32,144.9275362,2,1,6,0.065740727,0.020370377,1,0,0,0.6295,rock_grid_rect_2,7,15,-1,-1,0.63,0.152777778,-0.402777778,1,0,0,1.0993,Peridotite_rect,7,1.099,1,5,0,5,0,1,,,,,,,,,,,,,
66370a20a4b5b1a460904760,TCN,2024-06-20_15h28.13.349,LearnStrategy,2023.2.3,Win32,144.9275362,2,1,7,0.062962991,-0.002777771,1,0,0,0.7474,rock_grid_rect_2,4,12,-1,-1,0.747,0.137037065,-0.256481524,1,0,0,7.6842,Diorite_rect,3,7.684,0,6,0,6,0,1,,,,,,,,,,,,,
66370a20a4b5b1a460904760,TCN,2024-06-20_15h28.13.349,LearnStrategy,2023.2.3,Win32,144.9275362,2,1,8,0.003703718,-0.008333347,1,0,0,0.8979,rock_grid_rect_2,1,07,-1,-1,0.898,-0.408333319,-0.261111153,1,0,0,3.2759,Andesite_rect,1,3.276,1,7,0,7,0,1,,,,,,,,,,,,,
66370a20a4b5b1a460904760,TCN,2024-06-20_15h28.13.349,LearnStrategy,2023.2.3,Win32,144.9275362,2,1,9,-0.01944443,-0.0074074,1,0,0,0.8518,rock_grid_rect_2,2,01,-1,-1,0.852,-0.094444416,-0.25462963,1,0,0,1.2764,Basalt_rect,2,1.276,1,8,0,8,0,1,,,,,,,,,,,,,
66370a20a4b5b1a460904760,TCN,2024-06-20_15h28.13.349,LearnStrategy,2023.2.3,Win32,144.9275362,2,1,10,0.079629616,-0.005555577,1,0,0,0.8583,rock_grid_rect_2,6,16,-1,-1,0.858,-0.141666624,-0.388888889,1,0,0,9.9566,Pegmatite_rect,6,9.957,1,9,0,9,0,1,,,,,,,,,,,,,
66370a20a4b5b1a460904760,TCN,2024-06-20_15h28.13.349,LearnStrategy,2023.2.3,Win32,144.9275362,2,1,11,-0.005555541,-0.006481489,1,0,0,1.0736,rock_grid_rect_2,6,10,-1,-1,1.074,-0.142592607,-0.395370413,1,0,0,2.6396,Pegmatite_rect,6,2.64,1,10,0,10,0,1,,,,,,,,,,,,,
66370a20a4b5b1a460904760,TCN,2024-06-20_15h28.13.349,LearnStrategy,2023.2.3,Win32,144.9275362,2,1,12,0.058333362,-0.012962977,1,0,0,0.7453,rock_grid_rect_2,8,10,-1,-1,0.745,0.399074131,-0.416666667,1,0,0,6.2293,Pumice_rect,8,6.229,1,11,0,11,0,1,,,,,,,,,,,,,
66370a20a4b5b1a460904760,TCN,2024-06-20_15h28.13.349,LearnStrategy,2023.2.3,Win32,144.9275362,2,1,13,0.048148191,-0.00462963,1,0,0,0.6816,rock_grid_rect_2,5,16,-1,-1,0.682,-0.3675926,-0.400000042,1,0,0,1.0902,Obsidian_rect,5,1.09,1,12,0,12,0,1,,,,,,,,,,,,,
66370a20a4b5b1a460904760,TCN,2024-06-20_15h28.13.349,LearnStrategy,2023.2.3,Win32,144.9275362,2,1,14,0.089814857,-0.006481489,1,0,0,0.648,rock_grid_rect_2,3,10,-1,-1,0.648,0.151851866,-0.251851894,1,0,0,4.4278,Diorite_rect,3,4.428,1,13,0,13,0,1,,,,,,,,,,,,,
66370a20a4b5b1a460904760,TCN,2024-06-20_15h28.13.349,LearnStrategy,2023.2.3,Win32,144.9275362,2,1,15,0.032407407,0.001851859,1,0,0,1.4345,rock_grid_rect_2,2,11,-1,-1,1.434,0.416666667,-0.401851866,1,0,0,2.7996,Pumice_rect,8,2.8,0,14,0,14,0,1,,,,,,,,,,,,,
66370a20a4b5b1a460904760,TCN,2024-06-20_15h28.13.349,LearnStrategy,2023.2.3,Win32,144.9275362,2,1,16,0.036111125,0.006481489,1,0,0,1.7838,rock_grid_rect_2,3,06,-1,-1,1.784,0.156481496,-0.252777806,1,0,0,2.4393,Diorite_rect,3,2.439,1,15,0,15,0,1,,,,,,,,,,,,,
66370a20a4b5b1a460904760,TCN,2024-06-20_15h28.13.349,LearnStrategy,2023.2.3,Win32,144.9275362,2,2,1,,,,,,,,5,09,,,,,,,,,,,5,2.49,1,,,,,,-0.366666653,-0.384259259,1,0,0,2.4897,Obsidian_rect,0,0,0,0,1,
66370a20a4b5b1a460904760,TCN,2024-06-20_15h28.13.349,LearnStrategy,2023.2.3,Win32,144.9275362,2,2,2,,,,,,,,7,12,,,,,,,,,,,7,20.019,1,,,,,,0.164814843,-0.400925954,1,0,0,20.0185,Peridotite_rect,1,0,1,0,1,
66370a20a4b5b1a460904760,TCN,2024-06-20_15h28.13.349,LearnStrategy,2023.2.3,Win32,144.9275362,2,2,3,,,,,,,,8,04,,,,,,,,,,,8,1.252,1,,,,,,0.424074102,-0.400925954,1,0,0,1.2516,Pumice_rect,2,0,2,0,1,
66370a20a4b5b1a460904760,TCN,2024-06-20_15h28.13.349,LearnStrategy,2023.2.3,Win32,144.9275362,2,2,4,,,,,,,,3,12,,,,,,,,,,,3,3.163,1,,,,,,0.145370413,-0.251851894,1,0,0,3.1631,Diorite_rect,3,0,3,0,1,
66370a20a4b5b1a460904760,TCN,2024-06-20_15h28.13.349,LearnStrategy,2023.2.3,Win32,144.9275362,2,2,5,,,,,,,,6,07,,,,,,,,,,,6,1.945,1,,,,,,-0.111111111,-0.416666667,1,0,0,1.9452,Pegmatite_rect,4,0,4,0,1,
66370a20a4b5b1a460904760,TCN,2024-06-20_15h28.13.349,LearnStrategy,2023.2.3,Win32,144.9275362,2,2,6,,,,,,,,1,04,,,,,,,,,,,1,2.085,1,,,,,,-0.378703683,-0.246296282,1,0,0,2.0851,Andesite_rect,5,0,5,0,1,
66370a20a4b5b1a460904760,TCN,2024-06-20_15h28.13.349,LearnStrategy,2023.2.3,Win32,144.9275362,2,2,7,,,,,,,,6,12,,,,,,,,,,,6,3.909,1,,,,,,-0.134259259,-0.413888931,1,0,0,3.909,Pegmatite_rect,6,0,6,0,1,
66370a20a4b5b1a460904760,TCN,2024-06-20_15h28.13.349,LearnStrategy,2023.2.3,Win32,144.9275362,2,2,8,,,,,,,,8,02,,,,,,,,,,,8,1.092,1,,,,,,0.477777834,-0.404629672,1,0,0,1.0917,Pumice_rect,7,0,7,0,1,
66370a20a4b5b1a460904760,TCN,2024-06-20_15h28.13.349,LearnStrategy,2023.2.3,Win32,144.9275362,2,2,9,,,,,,,,4,15,,,,,,,,,,,4,6.917,1,,,,,,0.395370342,-0.265740783,1,0,0,6.9166,Gabbro_rect,8,0,8,0,1,
66370a20a4b5b1a460904760,TCN,2024-06-20_15h28.13.349,LearnStrategy,2023.2.3,Win32,144.9275362,2,2,10,,,,,,,,1,01,,,,,,,,,,,4,1.306,0,,,,,,0.395370342,-0.265740783,1,0,0,1.3061,Gabbro_rect,9,0,9,0,1,
66370a20a4b5b1a460904760,TCN,2024-06-20_15h28.13.349,LearnStrategy,2023.2.3,Win32,144.9275362,2,2,11,,,,,,,,3,13,,,,,,,,,,,3,2.141,1,,,,,,0.156481496,-0.268518519,1,0,0,2.1411,Diorite_rect,10,0,10,0,1,
66370a20a4b5b1a460904760,TCN,2024-06-20_15h28.13.349,LearnStrategy,2023.2.3,Win32,144.9275362,2,2,12,,,,,,,,2,04,,,,,,,,,,,2,1.712,1,,,,,,-0.130555541,-0.257407436,1,0,0,1.7117,Basalt_rect,11,0,11,0,1,
66370a20a4b5b1a460904760,TCN,2024-06-20_15h28.13.349,LearnStrategy,2023.2.3,Win32,144.9275362,2,2,13,,,,,,,,7,05,,,,,,,,,,,7,3.605,1,,,,,,0.135185171,-0.400000042,1,0,0,3.6045,Peridotite_rect,12,0,12,0,1,
66370a20a4b5b1a460904760,TCN,2024-06-20_15h28.13.349,LearnStrategy,2023.2.3,Win32,144.9275362,2,2,14,,,,,,,,4,11,,,,,,,,,,,4,48.678,1,,,,,,0.406481566,-0.243518547,1,0,0,48.6777,Gabbro_rect,13,0,13,0,1,
66370a20a4b5b1a460904760,TCN,2024-06-20_15h28.13.349,LearnStrategy,2023.2.3,Win32,144.9275362,2,2,15,,,,,,,,5,08,,,,,,,,,,,5,1.44,1,,,,,,-0.444444444,-0.401851866,1,0,0,1.4396,Obsidian_rect,14,0,14,0,1,
66370a20a4b5b1a460904760,TCN,2024-06-20_15h28.13.349,LearnStrategy,2023.2.3,Win32,144.9275362,2,2,16,,,,,,,,2,14,,,,,,,,,,,8,8.864,0,,,,,,0.422222279,-0.415740755,1,0,0,8.8642,Pumice_rect,15,0,15,0,1,
66370a20a4b5b1a460904760,TCN,2024-06-20_15h28.13.349,LearnStrategy,2023.2.3,Win32,144.9275362,3,1,1,0.032407407,-0.003703718,1,0,0,1.1364,rock_grid_rect_2,2,12,-1,-1,1.136,0.475000028,-0.409259302,1,0,0,12.0019,Pumice_rect,8,12.002,0,0,0,0,0,1,,,,,,,,,,,,,
66370a20a4b5b1a460904760,TCN,2024-06-20_15h28.13.349,LearnStrategy,2023.2.3,Win32,144.9275362,3,1,2,-0.033333319,-0.006481489,1,0,0,0.7476,rock_grid_rect_2,4,16,-1,-1,0.748,-0.092592593,-0.25462963,1,0,0,1.6443,Basalt_rect,2,1.644,0,1,0,1,0,1,,,,,,,,,,,,,
66370a20a4b5b1a460904760,TCN,2024-06-20_15h28.13.349,LearnStrategy,2023.2.3,Win32,144.9275362,3,1,3,0.092592593,0.005555541,1,0,0,1.0885,rock_grid_rect_2,6,05,-1,-1,1.088,-0.115740741,-0.39444443,1,0,0,3.7635,Pegmatite_rect,6,3.764,1,2,0,2,0,1,,,,,,,,,,,,,
66370a20a4b5b1a460904760,TCN,2024-06-20_15h28.13.349,LearnStrategy,2023.2.3,Win32,144.9275362,3,1,4,0.130555541,0.011111118,1,0,0,0.6157,rock_grid_rect_2,8,15,-1,-1,0.616,0.449074074,-0.391666695,1,0,0,1.8076,Pumice_rect,8,1.808,1,3,0,3,0,1,,,,,,,,,,,,,
66370a20a4b5b1a460904760,TCN,2024-06-20_15h28.13.349,LearnStrategy,2023.2.3,Win32,144.9275362,3,1,5,0.058333362,0.010185171,1,0,0,0.8501,rock_grid_rect_2,6,08,-1,-1,0.85,-0.125,-0.400000042,1,0,0,1.7756,Pegmatite_rect,6,1.776,1,4,0,4,0,1,,,,,,,,,,,,,
66370a20a4b5b1a460904760,TCN,2024-06-20_15h28.13.349,LearnStrategy,2023.2.3,Win32,144.9275362,3,1,6,0.059259273,0.001851859,1,0,0,0.7615,rock_grid_rect_2,5,07,-1,-1,0.761,-0.37962963,-0.416666667,1,0,0,1.376,Obsidian_rect,5,1.376,1,5,0,5,0,1,,,,,,,,,,,,,
66370a20a4b5b1a460904760,TCN,2024-06-20_15h28.13.349,LearnStrategy,2023.2.3,Win32,144.9275362,3,1,7,0.087037051,0.014814801,1,0,0,0.6989,rock_grid_rect_2,7,06,-1,-1,0.699,0.150000042,-0.398148148,1,0,0,5.2932,Peridotite_rect,7,5.293,1,6,0,6,0,1,,,,,,,,,,,,,
66370a20a4b5b1a460904760,TCN,2024-06-20_15h28.13.349,LearnStrategy,2023.2.3,Win32,144.9275362,3,1,8,0.085185228,0.009259259,1,0,0,0.7105,rock_grid_rect_2,4,01,-1,-1,0.711,0.393518519,-0.259259259,1,0,0,6.7013,Gabbro_rect,4,6.701,1,7,0,7,0,1,,,,,,,,,,,,,
66370a20a4b5b1a460904760,TCN,2024-06-20_15h28.13.349,LearnStrategy,2023.2.3,Win32,144.9275362,3,1,9,0.115740741,0.0074074,1,0,0,1.0509,rock_grid_rect_2,5,04,-1,-1,1.051,-0.417592578,-0.388888889,1,0,0,1.1196,Obsidian_rect,5,1.12,1,8,0,8,0,1,,,,,,,,,,,,,
66370a20a4b5b1a460904760,TCN,2024-06-20_15h28.13.349,LearnStrategy,2023.2.3,Win32,144.9275362,3,1,10,0.08148151,-0.003703718,1,0,0,0.7408,rock_grid_rect_2,3,14,-1,-1,0.741,0.131481524,-0.241666653,1,0,0,4.3713,Diorite_rect,3,4.371,1,9,0,9,0,1,,,,,,,,,,,,,
66370a20a4b5b1a460904760,TCN,2024-06-20_15h28.13.349,LearnStrategy,2023.2.3,Win32,144.9275362,3,1,11,0.140740783,0.008333312,1,0,0,0.738,rock_grid_rect_2,8,05,-1,-1,0.738,0.430555556,-0.406481496,1,0,0,1.9279,Pumice_rect,8,1.928,1,10,0,10,0,1,,,,,,,,,,,,,
66370a20a4b5b1a460904760,TCN,2024-06-20_15h28.13.349,LearnStrategy,2023.2.3,Win32,144.9275362,3,1,12,0.038888931,0.005555541,1,0,0,0.6903,rock_grid_rect_2,1,14,-1,-1,0.69,-0.39907406,-0.24537037,1,0,0,3.5861,Andesite_rect,1,3.586,1,11,0,11,0,1,,,,,,,,,,,,,
66370a20a4b5b1a460904760,TCN,2024-06-20_15h28.13.349,LearnStrategy,2023.2.3,Win32,144.9275362,3,1,13,0.104629658,0.001851859,1,0,0,0.9278,rock_grid_rect_2,3,08,-1,-1,0.928,0.135185171,-0.235185199,1,0,0,12.2873,Diorite_rect,3,12.287,1,12,0,12,0,1,,,,,,,,,,,,,
66370a20a4b5b1a460904760,TCN,2024-06-20_15h28.13.349,LearnStrategy,2023.2.3,Win32,144.9275362,3,1,14,0.047222208,0.000925912,1,0,0,1.0184,rock_grid_rect_2,7,13,-1,-1,1.018,0.178703732,-0.406481496,1,0,0,1.1503,Peridotite_rect,7,1.15,1,13,0,13,0,1,,,,,,,,,,,,,
66370a20a4b5b1a460904760,TCN,2024-06-20_15h28.13.349,LearnStrategy,2023.2.3,Win32,144.9275362,3,1,15,0.09629631,-0.017592607,1,0,0,0.7617,rock_grid_rect_2,2,06,-1,-1,0.762,-0.136111083,-0.247222265,1,0,0,5.1896,Basalt_rect,2,5.19,1,14,0,14,0,1,,,,,,,,,,,,,
66370a20a4b5b1a460904760,TCN,2024-06-20_15h28.13.349,LearnStrategy,2023.2.3,Win32,144.9275362,3,1,16,0.007407436,0.018518519,1,0,0,0.8465,rock_grid_rect_2,1,16,-1,-1,0.846,-0.363888882,-0.235185199,1,0,0,13.9126,Andesite_rect,1,13.913,1,15,0,15,0,1,,,,,,,,,,,,,
66370a20a4b5b1a460904760,TCN,2024-06-20_15h28.13.349,LearnStrategy,2023.2.3,Win32,144.9275362,3,2,1,,,,,,,,8,08,,,,,,,,,,,8,2.683,1,,,,,,0.402777778,-0.40370369,1,0,0,2.6828,Pumice_rect,0,0,0,0,1,
66370a20a4b5b1a460904760,TCN,2024-06-20_15h28.13.349,LearnStrategy,2023.2.3,Win32,144.9275362,3,2,2,,,,,,,,3,02,,,,,,,,,,,3,2.348,1,,,,,,0.17777782,-0.270370413,1,0,0,2.3483,Diorite_rect,1,0,1,0,1,
66370a20a4b5b1a460904760,TCN,2024-06-20_15h28.13.349,LearnStrategy,2023.2.3,Win32,144.9275362,3,2,3,,,,,,,,2,08,,,,,,,,,,,2,1.76,1,,,,,,-0.10092594,-0.241666653,1,0,0,1.76,Basalt_rect,2,0,2,0,1,
66370a20a4b5b1a460904760,TCN,2024-06-20_15h28.13.349,LearnStrategy,2023.2.3,Win32,144.9275362,3,2,4,,,,,,,,6,09,,,,,,,,,,,6,3.801,1,,,,,,-0.122222194,-0.393518519,1,0,0,3.8011,Pegmatite_rect,3,0,3,0,1,
66370a20a4b5b1a460904760,TCN,2024-06-20_15h28.13.349,LearnStrategy,2023.2.3,Win32,144.9275362,3,2,5,,,,,,,,1,10,,,,,,,,,,,4,11.907,0,,,,,,0.437037009,-0.25462963,1,0,0,11.9071,Gabbro_rect,4,0,4,0,1,
66370a20a4b5b1a460904760,TCN,2024-06-20_15h28.13.349,LearnStrategy,2023.2.3,Win32,144.9275362,3,2,6,,,,,,,,4,13,,,,,,,,,,,4,4.404,1,,,,,,0.416666667,-0.244444459,1,0,0,4.4041,Gabbro_rect,5,0,5,0,1,
66370a20a4b5b1a460904760,TCN,2024-06-20_15h28.13.349,LearnStrategy,2023.2.3,Win32,144.9275362,3,2,7,,,,,,,,3,16,,,,,,,,,,,3,1.098,1,,,,,,0.17777782,-0.244444459,1,0,0,1.0978,Diorite_rect,6,0,6,0,1,
66370a20a4b5b1a460904760,TCN,2024-06-20_15h28.13.349,LearnStrategy,2023.2.3,Win32,144.9275362,3,2,8,,,,,,,,6,06,,,,,,,,,,,6,2.753,1,,,,,,-0.15370369,-0.406481496,1,0,0,2.7527,Pegmatite_rect,7,0,7,0,1,
66370a20a4b5b1a460904760,TCN,2024-06-20_15h28.13.349,LearnStrategy,2023.2.3,Win32,144.9275362,3,2,9,,,,,,,,7,07,,,,,,,,,,,7,1.289,1,,,,,,0.179629644,-0.400925954,1,0,0,1.2886,Peridotite_rect,8,0,8,0,1,
66370a20a4b5b1a460904760,TCN,2024-06-20_15h28.13.349,LearnStrategy,2023.2.3,Win32,144.9275362,3,2,10,,,,,,,,2,09,,,,,,,,,,,2,2.64,1,,,,,,-0.121296282,-0.242592635,1,0,0,2.6403,Basalt_rect,9,0,9,0,1,
66370a20a4b5b1a460904760,TCN,2024-06-20_15h28.13.349,LearnStrategy,2023.2.3,Win32,144.9275362,3,2,11,,,,,,,,8,09,,,,,,,,,,,8,1.238,1,,,,,,0.448148233,-0.39907406,1,0,0,1.2379,Pumice_rect,10,0,10,0,1,
66370a20a4b5b1a460904760,TCN,2024-06-20_15h28.13.349,LearnStrategy,2023.2.3,Win32,144.9275362,3,2,12,,,,,,,,4,09,,,,,,,,,,,4,3.751,1,,,,,,0.421296296,-0.256481524,1,0,0,3.7514,Gabbro_rect,11,0,11,0,1,
66370a20a4b5b1a460904760,TCN,2024-06-20_15h28.13.349,LearnStrategy,2023.2.3,Win32,144.9275362,3,2,13,,,,,,,,5,14,,,,,,,,,,,5,1.183,1,,,,,,-0.347222222,-0.388888889,1,0,0,1.1826,Obsidian_rect,12,0,12,0,1,
66370a20a4b5b1a460904760,TCN,2024-06-20_15h28.13.349,LearnStrategy,2023.2.3,Win32,144.9275362,3,2,14,,,,,,,,7,04,,,,,,,,,,,1,4.425,0,,,,,,-0.353703711,-0.242592635,1,0,0,4.4247,Andesite_rect,13,0,13,0,1,
66370a20a4b5b1a460904760,TCN,2024-06-20_15h28.13.349,LearnStrategy,2023.2.3,Win32,144.9275362,3,2,15,,,,,,,,5,11,,,,,,,,,,,5,0.995,1,,,,,,-0.396296289,-0.382407436,1,0,0,0.9949,Obsidian_rect,14,0,14,0,1,
66370a20a4b5b1a460904760,TCN,2024-06-20_15h28.13.349,LearnStrategy,2023.2.3,Win32,144.9275362,3,2,16,,,,,,,,1,03,,,,,,,,,,,3,6.849,0,,,,,,0.150925954,-0.241666653,1,0,0,6.8492,Diorite_rect,15,0,15,0,1,
66370a20a4b5b1a460904760,TCN,2024-06-20_15h28.13.349,LearnStrategy,2023.2.3,Win32,144.9275362,4,1,1,-0.059259273,-0.003703718,1,0,0,1.4746,rock_grid_rect_2,2,10,-1,-1,1.475,-0.114814829,-0.251851894,1,0,0,5.0898,Basalt_rect,2,5.09,1,0,0,0,0,1,,,,,,,,,,,,,
66370a20a4b5b1a460904760,TCN,2024-06-20_15h28.13.349,LearnStrategy,2023.2.3,Win32,144.9275362,4,1,2,-0.006481453,-0.001851859,1,0,0,0.935,rock_grid_rect_2,4,16,-1,-1,0.935,0.459259316,-0.258333347,1,0,0,2.4949,Gabbro_rect,4,2.495,1,1,0,1,0,1,,,,,,,,,,,,,
66370a20a4b5b1a460904760,TCN,2024-06-20_15h28.13.349,LearnStrategy,2023.2.3,Win32,144.9275362,4,1,3,0.036111125,-0.01203703,1,0,0,0.8309,rock_grid_rect_2,6,10,-1,-1,0.831,-0.122222194,-0.389814801,1,0,0,2.6299,Pegmatite_rect,6,2.63,1,2,0,2,0,1,,,,,,,,,,,,,
66370a20a4b5b1a460904760,TCN,2024-06-20_15h28.13.349,LearnStrategy,2023.2.3,Win32,144.9275362,4,1,4,0.155555584,-0.001851859,1,0,0,0.786,rock_grid_rect_2,8,05,-1,-1,0.786,0.458333333,-0.410185213,1,0,0,1.1941,Pumice_rect,8,1.194,1,3,0,3,0,1,,,,,,,,,,,,,
66370a20a4b5b1a460904760,TCN,2024-06-20_15h28.13.349,LearnStrategy,2023.2.3,Win32,144.9275362,4,1,5,0.032407407,-0.000925947,1,0,0,0.7822,rock_grid_rect_2,1,16,-1,-1,0.782,-0.374074053,-0.237963005,1,0,0,4.4872,Andesite_rect,1,4.487,1,4,0,4,0,1,,,,,,,,,,,,,
66370a20a4b5b1a460904760,TCN,2024-06-20_15h28.13.349,LearnStrategy,2023.2.3,Win32,144.9275362,4,1,6,0.10555557,-0.00462963,1,0,0,0.6782,rock_grid_rect_2,7,06,-1,-1,0.678,-0.113888847,-0.419444473,1,0,0,6.4957,Pegmatite_rect,6,6.496,0,5,0,5,0,1,,,,,,,,,,,,,
66370a20a4b5b1a460904760,TCN,2024-06-20_15h28.13.349,LearnStrategy,2023.2.3,Win32,144.9275362,4,1,7,0.066666709,0.00462963,1,0,0,0.7476,rock_grid_rect_2,4,10,-1,-1,0.748,0.406481566,-0.242592635,1,0,0,1.4987,Gabbro_rect,4,1.499,1,6,0,6,0,1,,,,,,,,,,,,,
66370a20a4b5b1a460904760,TCN,2024-06-20_15h28.13.349,LearnStrategy,2023.2.3,Win32,144.9275362,4,1,8,0.112037023,0.008333312,1,0,0,0.6132,rock_grid_rect_2,1,11,-1,-1,0.613,-0.349999993,-0.258333347,1,0,0,4.4603,Andesite_rect,1,4.46,1,7,0,7,0,1,,,,,,,,,,,,,
66370a20a4b5b1a460904760,TCN,2024-06-20_15h28.13.349,LearnStrategy,2023.2.3,Win32,144.9275362,4,1,9,0.007407436,-0.005555577,1,0,0,0.7671,rock_grid_rect_2,8,06,-1,-1,0.767,0.452777863,-0.412962949,1,0,0,1.1252,Pumice_rect,8,1.125,1,8,0,8,0,1,,,,,,,,,,,,,
66370a20a4b5b1a460904760,TCN,2024-06-20_15h28.13.349,LearnStrategy,2023.2.3,Win32,144.9275362,4,1,10,0.063888903,0.003703683,1,0,0,0.8239,rock_grid_rect_2,5,16,-1,-1,0.824,-0.422222208,-0.39444443,1,0,0,0.9817,Obsidian_rect,5,0.982,1,9,0,9,0,1,,,,,,,,,,,,,
66370a20a4b5b1a460904760,TCN,2024-06-20_15h28.13.349,LearnStrategy,2023.2.3,Win32,144.9275362,4,1,11,0.114814829,-0.008333347,1,0,0,0.7824,rock_grid_rect_2,2,12,-1,-1,0.782,-0.095370328,-0.257407436,1,0,0,3.9803,Basalt_rect,2,3.98,1,10,0,10,0,1,,,,,,,,,,,,,
66370a20a4b5b1a460904760,TCN,2024-06-20_15h28.13.349,LearnStrategy,2023.2.3,Win32,144.9275362,4,1,12,0.046296296,-0.00462963,1,0,0,0.7201,rock_grid_rect_2,6,13,-1,-1,0.72,-0.124074088,-0.406481496,1,0,0,4.9659,Pegmatite_rect,6,4.966,1,11,0,11,0,1,,,,,,,,,,,,,
66370a20a4b5b1a460904760,TCN,2024-06-20_15h28.13.349,LearnStrategy,2023.2.3,Win32,144.9275362,4,1,13,0.085185228,0.022222201,1,0,0,0.762,rock_grid_rect_2,3,08,-1,-1,0.762,0.154629672,-0.264814801,1,0,0,1.1909,Diorite_rect,3,1.191,1,12,0,12,0,1,,,,,,,,,,,,,
66370a20a4b5b1a460904760,TCN,2024-06-20_15h28.13.349,LearnStrategy,2023.2.3,Win32,144.9275362,4,1,14,0.090740769,0.005555541,1,0,0,0.6369,rock_grid_rect_2,5,04,-1,-1,0.637,-0.347222222,-0.418518561,1,0,0,1.0036,Obsidian_rect,5,1.004,1,13,0,13,0,1,,,,,,,,,,,,,
66370a20a4b5b1a460904760,TCN,2024-06-20_15h28.13.349,LearnStrategy,2023.2.3,Win32,144.9275362,4,1,15,0.016666695,0.002777771,1,0,0,0.8243,rock_grid_rect_2,7,10,-1,-1,0.824,0.167592578,-0.409259302,1,0,0,1.7805,Peridotite_rect,7,1.781,1,14,0,14,0,1,,,,,,,,,,,,,
66370a20a4b5b1a460904760,TCN,2024-06-20_15h28.13.349,LearnStrategy,2023.2.3,Win32,144.9275362,4,1,16,0.079629616,0.009259259,1,0,0,0.6433,rock_grid_rect_2,3,07,-1,-1,0.643,0.152777778,-0.234259288,1,0,0,2.0369,Diorite_rect,3,2.037,1,15,0,15,0,1,,,,,,,,,,,,,
66370a20a4b5b1a460904760,TCN,2024-06-20_15h28.13.349,LearnStrategy,2023.2.3,Win32,144.9275362,4,2,1,,,,,,,,6,15,,,,,,,,,,,6,2.709,1,,,,,,-0.14444443,-0.39907406,1,0,0,2.7091,Pegmatite_rect,0,0,0,0,1,
66370a20a4b5b1a460904760,TCN,2024-06-20_15h28.13.349,LearnStrategy,2023.2.3,Win32,144.9275362,4,2,2,,,,,,,,2,05,,,,,,,,,,,2,2.147,1,,,,,,-0.108333305,-0.257407436,1,0,0,2.1472,Basalt_rect,1,0,1,0,1,
66370a20a4b5b1a460904760,TCN,2024-06-20_15h28.13.349,LearnStrategy,2023.2.3,Win32,144.9275362,4,2,3,,,,,,,,3,13,,,,,,,,,,,3,1.008,1,,,,,,0.159259302,-0.264814801,1,0,0,1.0084,Diorite_rect,2,0,2,0,1,
66370a20a4b5b1a460904760,TCN,2024-06-20_15h28.13.349,LearnStrategy,2023.2.3,Win32,144.9275362,4,2,4,,,,,,,,7,12,,,,,,,,,,,7,1.583,1,,,,,,0.203703704,-0.406481496,1,0,0,1.5828,Peridotite_rect,3,0,3,0,1,
66370a20a4b5b1a460904760,TCN,2024-06-20_15h28.13.349,LearnStrategy,2023.2.3,Win32,144.9275362,4,2,5,,,,,,,,5,11,,,,,,,,,,,5,1.101,1,,,,,,-0.410185178,-0.402777778,1,0,0,1.101,Obsidian_rect,4,0,4,0,1,
66370a20a4b5b1a460904760,TCN,2024-06-20_15h28.13.349,LearnStrategy,2023.2.3,Win32,144.9275362,4,2,6,,,,,,,,3,11,,,,,,,,,,,3,1.677,1,,,,,,0.134259259,-0.251851894,1,0,0,1.6771,Diorite_rect,5,0,5,0,1,
66370a20a4b5b1a460904760,TCN,2024-06-20_15h28.13.349,LearnStrategy,2023.2.3,Win32,144.9275362,4,2,7,,,,,,,,2,02,,,,,,,,,,,2,1.522,1,,,,,,-0.092592593,-0.239814829,1,0,0,1.5222,Basalt_rect,6,0,6,0,1,
66370a20a4b5b1a460904760,TCN,2024-06-20_15h28.13.349,LearnStrategy,2023.2.3,Win32,144.9275362,4,2,8,,,,,,,,4,05,,,,,,,,,,,4,1.515,1,,,,,,0.436111168,-0.247222265,1,0,0,1.5152,Gabbro_rect,7,0,7,0,1,
66370a20a4b5b1a460904760,TCN,2024-06-20_15h28.13.349,LearnStrategy,2023.2.3,Win32,144.9275362,4,2,9,,,,,,,,7,16,,,,,,,,,,,7,2.357,1,,,,,,0.17777782,-0.410185213,1,0,0,2.3566,Peridotite_rect,8,0,8,0,1,
66370a20a4b5b1a460904760,TCN,2024-06-20_15h28.13.349,LearnStrategy,2023.2.3,Win32,144.9275362,4,2,10,,,,,,,,4,15,,,,,,,,,,,4,1.262,1,,,,,,0.400925954,-0.247222265,1,0,0,1.2619,Gabbro_rect,9,0,9,0,1,
66370a20a4b5b1a460904760,TCN,2024-06-20_15h28.13.349,LearnStrategy,2023.2.3,Win32,144.9275362,4,2,11,,,,,,,,5,10,,,,,,,,,,,5,1.338,1,,,,,,-0.40648146,-0.401851866,1,0,0,1.3379,Obsidian_rect,10,0,10,0,1,
66370a20a4b5b1a460904760,TCN,2024-06-20_15h28.13.349,LearnStrategy,2023.2.3,Win32,144.9275362,4,2,12,,,,,,,,8,09,,,,,,,,,,,8,1.6,1,,,,,,0.417592649,-0.392592607,1,0,0,1.5997,Pumice_rect,11,0,11,0,1,
66370a20a4b5b1a460904760,TCN,2024-06-20_15h28.13.349,LearnStrategy,2023.2.3,Win32,144.9275362,4,2,13,,,,,,,,8,02,,,,,,,,,,,8,1.134,1,,,,,,0.417592649,-0.393518519,1,0,0,1.1344,Pumice_rect,12,0,12,0,1,
66370a20a4b5b1a460904760,TCN,2024-06-20_15h28.13.349,LearnStrategy,2023.2.3,Win32,144.9275362,4,2,14,,,,,,,,1,03,,,,,,,,,,,3,8.806,0,,,,,,0.141666695,-0.251851894,1,0,0,8.8064,Diorite_rect,13,0,13,0,1,
66370a20a4b5b1a460904760,TCN,2024-06-20_15h28.13.349,LearnStrategy,2023.2.3,Win32,144.9275362,4,2,15,,,,,,,,1,10,,,,,,,,,,,1,8.355,1,,,,,,-0.363888882,-0.255555541,1,0,0,8.3552,Andesite_rect,14,0,14,0,1,
66370a20a4b5b1a460904760,TCN,2024-06-20_15h28.13.349,LearnStrategy,2023.2.3,Win32,144.9275362,4,2,16,,,,,,,,6,12,,,,,,,,,,,6,2.203,1,,,,,,-0.127777735,-0.397222236,1,0,0,2.2028,Pegmatite_rect,15,0,15,0,1,
66370a20a4b5b1a460904760,TCN,2024-06-20_15h28.13.349,LearnStrategy,2023.2.3,Win32,144.9275362,5,1,1,0.044444473,-0.002777771,1,0,0,2.9115,rock_grid_rect_2,2,11,-1,-1,2.911,-0.093518504,-0.246296282,1,0,0,3.5135,Basalt_rect,2,3.514,1,0,0,0,0,1,,,,,,,,,,,,,
66370a20a4b5b1a460904760,TCN,2024-06-20_15h28.13.349,LearnStrategy,2023.2.3,Win32,144.9275362,5,1,2,0.083333333,-0.01203703,1,0,0,0.9593,rock_grid_rect_2,5,12,-1,-1,0.959,-0.373148141,-0.419444473,1,0,0,1.0485,Obsidian_rect,5,1.048,1,1,0,1,0,1,,,,,,,,,,,,,
66370a20a4b5b1a460904760,TCN,2024-06-20_15h28.13.349,LearnStrategy,2023.2.3,Win32,144.9275362,5,1,3,0.097222222,0.01203703,1,0,0,0.8588,rock_grid_rect_2,1,14,-1,-1,0.859,-0.369444423,-0.265740783,1,0,0,5.0823,Andesite_rect,1,5.082,1,2,0,2,0,1,,,,,,,,,,,,,
66370a20a4b5b1a460904760,TCN,2024-06-20_15h28.13.349,LearnStrategy,2023.2.3,Win32,144.9275362,5,1,4,0.075925968,-0.008333347,1,0,0,0.7757,rock_grid_rect_2,4,08,-1,-1,0.776,0.425925926,-0.259259259,1,0,0,2.7175,Gabbro_rect,4,2.717,1,3,0,3,0,1,,,,,,,,,,,,,
66370a20a4b5b1a460904760,TCN,2024-06-20_15h28.13.349,LearnStrategy,2023.2.3,Win32,144.9275362,5,1,5,0.122222265,-0.008333347,1,0,0,0.8034,rock_grid_rect_2,3,10,-1,-1,0.803,0.170370384,-0.244444459,1,0,0,1.2383,Diorite_rect,3,1.238,1,4,0,4,0,1,,,,,,,,,,,,,
66370a20a4b5b1a460904760,TCN,2024-06-20_15h28.13.349,LearnStrategy,2023.2.3,Win32,144.9275362,5,1,6,0.036111125,-0.010185206,1,0,0,0.7059,rock_grid_rect_2,3,06,-1,-1,0.706,0.121296282,-0.256481524,1,0,0,1.1542,Diorite_rect,3,1.154,1,5,0,5,0,1,,,,,,,,,,,,,
66370a20a4b5b1a460904760,TCN,2024-06-20_15h28.13.349,LearnStrategy,2023.2.3,Win32,144.9275362,5,1,7,0.061111097,-0.003703718,1,0,0,0.745,rock_grid_rect_2,1,07,-1,-1,0.745,0.143518519,-0.25462963,1,0,0,1.7334,Diorite_rect,3,1.733,0,6,0,6,0,1,,,,,,,,,,,,,
66370a20a4b5b1a460904760,TCN,2024-06-20_15h28.13.349,LearnStrategy,2023.2.3,Win32,144.9275362,5,1,8,0.116666653,0.000925912,1,0,0,0.6992,rock_grid_rect_2,6,11,-1,-1,0.699,-0.10555557,-0.395370413,1,0,0,1.1445,Pegmatite_rect,6,1.144,1,7,0,7,0,1,,,,,,,,,,,,,
66370a20a4b5b1a460904760,TCN,2024-06-20_15h28.13.349,LearnStrategy,2023.2.3,Win32,144.9275362,5,1,9,0.112037023,-0.005555577,1,0,0,0.5671,rock_grid_rect_2,2,01,-1,-1,0.567,-0.143518519,-0.237037023,1,0,0,1.398,Basalt_rect,2,1.398,1,8,0,8,0,1,,,,,,,,,,,,,
66370a20a4b5b1a460904760,TCN,2024-06-20_15h28.13.349,LearnStrategy,2023.2.3,Win32,144.9275362,5,1,10,0.104629658,0,1,0,0,0.6435,rock_grid_rect_2,8,15,-1,-1,0.643,0.390740712,-0.405555584,1,0,0,0.9148,Pumice_rect,8,0.915,1,9,0,9,0,1,,,,,,,,,,,,,
66370a20a4b5b1a460904760,TCN,2024-06-20_15h28.13.349,LearnStrategy,2023.2.3,Win32,144.9275362,5,1,11,0.12037037,0.015740748,1,0,0,0.6232,rock_grid_rect_2,7,13,-1,-1,0.623,0.174074102,-0.402777778,1,0,0,1.1274,Peridotite_rect,7,1.127,1,10,0,10,0,1,,,,,,,,,,,,,
66370a20a4b5b1a460904760,TCN,2024-06-20_15h28.13.349,LearnStrategy,2023.2.3,Win32,144.9275362,5,1,12,0.086111139,-0.009259259,1,0,0,0.6921,rock_grid_rect_2,8,14,-1,-1,0.692,0.424074102,-0.410185213,1,0,0,1.2744,Pumice_rect,8,1.274,1,11,0,11,0,1,,,,,,,,,,,,,
66370a20a4b5b1a460904760,TCN,2024-06-20_15h28.13.349,LearnStrategy,2023.2.3,Win32,144.9275362,5,1,13,0.137037065,0.002777771,1,0,0,0.5745,rock_grid_rect_2,4,12,-1,-1,0.575,0.40833339,-0.248148176,1,0,0,9.6783,Gabbro_rect,4,9.678,1,12,0,12,0,1,,,,,,,,,,,,,
66370a20a4b5b1a460904760,TCN,2024-06-20_15h28.13.349,LearnStrategy,2023.2.3,Win32,144.9275362,5,1,14,0.118518547,-0.001851859,1,0,0,0.6855,rock_grid_rect_2,7,15,-1,-1,0.686,0.160185213,-0.404629672,1,0,0,1.1216,Peridotite_rect,7,1.122,1,13,0,13,0,1,,,,,,,,,,,,,
66370a20a4b5b1a460904760,TCN,2024-06-20_15h28.13.349,LearnStrategy,2023.2.3,Win32,144.9275362,5,1,15,0.154629672,0.01666666,1,0,0,0.6022,rock_grid_rect_2,6,05,-1,-1,0.602,-0.116666653,-0.412037037,1,0,0,1.3286,Pegmatite_rect,6,1.329,1,14,0,14,0,1,,,,,,,,,,,,,
66370a20a4b5b1a460904760,TCN,2024-06-20_15h28.13.349,LearnStrategy,2023.2.3,Win32,144.9275362,5,1,16,0.070370356,-0.015740748,1,0,0,0.8866,rock_grid_rect_2,5,02,-1,-1,0.887,-0.378703683,-0.417592578,1,0,0,0.9609,Obsidian_rect,5,0.961,1,15,0,15,0,1,,,,,,,,,,,,,
66370a20a4b5b1a460904760,TCN,2024-06-20_15h28.13.349,LearnStrategy,2023.2.3,Win32,144.9275362,5,2,1,,,,,,,,3,12,,,,,,,,,,,3,1.206,1,,,,,,0.137962977,-0.239814829,1,0,0,1.2056,Diorite_rect,0,0,0,0,1,
66370a20a4b5b1a460904760,TCN,2024-06-20_15h28.13.349,LearnStrategy,2023.2.3,Win32,144.9275362,5,2,2,,,,,,,,2,14,,,,,,,,,,,8,13.87,0,,,,,,0.419444473,-0.405555584,1,0,0,13.8704,Pumice_rect,1,0,1,0,1,
66370a20a4b5b1a460904760,TCN,2024-06-20_15h28.13.349,LearnStrategy,2023.2.3,Win32,144.9275362,5,2,3,,,,,,,,8,16,,,,,,,,,,,8,1.081,1,,,,,,0.405555584,-0.396296325,1,0,0,1.0812,Pumice_rect,2,0,2,0,1,
66370a20a4b5b1a460904760,TCN,2024-06-20_15h28.13.349,LearnStrategy,2023.2.3,Win32,144.9275362,5,2,4,,,,,,,,2,08,,,,,,,,,,,4,8.331,0,,,,,,0.437037009,-0.229629658,1,0,0,8.3312,Gabbro_rect,3,0,3,0,1,
66370a20a4b5b1a460904760,TCN,2024-06-20_15h28.13.349,LearnStrategy,2023.2.3,Win32,144.9275362,5,2,5,,,,,,,,7,05,,,,,,,,,,,7,4.911,1,,,,,,0.169444473,-0.396296325,1,0,0,4.9113,Peridotite_rect,4,0,4,0,1,
66370a20a4b5b1a460904760,TCN,2024-06-20_15h28.13.349,LearnStrategy,2023.2.3,Win32,144.9275362,5,2,6,,,,,,,,6,07,,,,,,,,,,,6,1.044,1,,,,,,-0.084259245,-0.411111125,1,0,0,1.0442,Pegmatite_rect,5,0,5,0,1,
66370a20a4b5b1a460904760,TCN,2024-06-20_15h28.13.349,LearnStrategy,2023.2.3,Win32,144.9275362,5,2,7,,,,,,,,3,09,,,,,,,,,,,3,1.352,1,,,,,,0.191666709,-0.236111111,1,0,0,1.3521,Diorite_rect,6,0,6,0,1,
66370a20a4b5b1a460904760,TCN,2024-06-20_15h28.13.349,LearnStrategy,2023.2.3,Win32,144.9275362,5,2,8,,,,,,,,7,07,,,,,,,,,,,7,1.384,1,,,,,,0.179629644,-0.396296325,1,0,0,1.3838,Peridotite_rect,7,0,7,0,1,
66370a20a4b5b1a460904760,TCN,2024-06-20_15h28.13.349,LearnStrategy,2023.2.3,Win32,144.9275362,5,2,9,,,,,,,,8,04,,,,,,,,,,,8,1.245,1,,,,,,0.377777806,-0.400925954,1,0,0,1.2446,Pumice_rect,8,0,8,0,1,
66370a20a4b5b1a460904760,TCN,2024-06-20_15h28.13.349,LearnStrategy,2023.2.3,Win32,144.9275362,5,2,10,,,,,,,,1,09,,,,,,,,,,,1,5.85,1,,,,,,-0.422222208,-0.257407436,1,0,0,5.8501,Andesite_rect,9,0,9,0,1,
66370a20a4b5b1a460904760,TCN,2024-06-20_15h28.13.349,LearnStrategy,2023.2.3,Win32,144.9275362,5,2,11,,,,,,,,1,06,,,,,,,,,,,3,7.571,0,,,,,,0.147222236,-0.25462963,1,0,0,7.5708,Diorite_rect,10,0,10,0,1,
66370a20a4b5b1a460904760,TCN,2024-06-20_15h28.13.349,LearnStrategy,2023.2.3,Win32,144.9275362,5,2,12,,,,,,,,6,03,,,,,,,,,,,6,1.918,1,,,,,,-0.124074088,-0.39444443,1,0,0,1.918,Pegmatite_rect,11,0,11,0,1,
66370a20a4b5b1a460904760,TCN,2024-06-20_15h28.13.349,LearnStrategy,2023.2.3,Win32,144.9275362,5,2,13,,,,,,,,4,11,,,,,,,,,,,4,3.308,1,,,,,,0.377777806,-0.243518547,1,0,0,3.3081,Gabbro_rect,12,0,12,0,1,
66370a20a4b5b1a460904760,TCN,2024-06-20_15h28.13.349,LearnStrategy,2023.2.3,Win32,144.9275362,5,2,14,,,,,,,,5,08,,,,,,,,,,,5,1.081,1,,,,,,-0.384259259,-0.391666695,1,0,0,1.0806,Obsidian_rect,13,0,13,0,1,
66370a20a4b5b1a460904760,TCN,2024-06-20_15h28.13.349,LearnStrategy,2023.2.3,Win32,144.9275362,5,2,15,,,,,,,,5,14,,,,,,,,,,,5,1.051,1,,,,,,-0.332407386,-0.410185213,1,0,0,1.0508,Obsidian_rect,14,0,14,0,1,
66370a20a4b5b1a460904760,TCN,2024-06-20_15h28.13.349,LearnStrategy,2023.2.3,Win32,144.9275362,5,2,16,,,,,,,,4,09,,,,,,,,,,,4,1.142,1,,,,,,0.478703675,-0.244444459,1,0,0,1.1422,Gabbro_rect,15,0,15,0,1,
66370a20a4b5b1a460904760,TCN,2024-06-20_15h28.13.349,LearnStrategy,2023.2.3,Win32,144.9275362,6,1,1,0.047222208,0.010185171,1,0,0,1.0713,rock_grid_rect_2,1,02,-1,-1,1.071,0.160185213,-0.250925912,1,0,0,14.8679,Diorite_rect,3,14.868,0,0,0,0,0,1,,,,,,,,,,,,,
66370a20a4b5b1a460904760,TCN,2024-06-20_15h28.13.349,LearnStrategy,2023.2.3,Win32,144.9275362,6,1,2,0.035185213,-0.006481489,1,0,0,0.7101,rock_grid_rect_2,4,01,-1,-1,0.71,0.416666667,-0.237963005,1,0,0,4.2941,Gabbro_rect,4,4.294,1,1,0,1,0,1,,,,,,,,,,,,,
66370a20a4b5b1a460904760,TCN,2024-06-20_15h28.13.349,LearnStrategy,2023.2.3,Win32,144.9275362,6,1,3,0.114814829,0.000925912,1,0,0,0.7689,rock_grid_rect_2,6,16,-1,-1,0.769,-0.121296282,-0.400925954,1,0,0,1.106,Pegmatite_rect,6,1.106,1,2,0,2,0,1,,,,,,,,,,,,,
66370a20a4b5b1a460904760,TCN,2024-06-20_15h28.13.349,LearnStrategy,2023.2.3,Win32,144.9275362,6,1,4,0.058333362,0.013888889,1,0,0,0.7271,rock_grid_rect_2,1,05,-1,-1,0.727,-0.407407407,-0.263888889,1,0,0,4.7007,Andesite_rect,1,4.701,1,3,0,3,0,1,,,,,,,,,,,,,
66370a20a4b5b1a460904760,TCN,2024-06-20_15h28.13.349,LearnStrategy,2023.2.3,Win32,144.9275362,6,1,5,0.07685188,-0.001851859,1,0,0,0.6853,rock_grid_rect_2,7,02,-1,-1,0.685,0.160185213,-0.413888931,1,0,0,1.3296,Peridotite_rect,7,1.33,1,4,0,4,0,1,,,,,,,,,,,,,
66370a20a4b5b1a460904760,TCN,2024-06-20_15h28.13.349,LearnStrategy,2023.2.3,Win32,144.9275362,6,1,6,0.101851852,0.003703683,1,0,0,0.8658,rock_grid_rect_2,2,16,-1,-1,0.866,-0.116666653,-0.249074088,1,0,0,3.2363,Basalt_rect,2,3.236,1,5,0,5,0,1,,,,,,,,,,,,,
66370a20a4b5b1a460904760,TCN,2024-06-20_15h28.13.349,LearnStrategy,2023.2.3,Win32,144.9275362,6,1,7,0.09629631,0.020370377,1,0,0,0.6923,rock_grid_rect_2,5,07,-1,-1,0.692,-0.35833334,-0.395370413,1,0,0,1.1154,Obsidian_rect,5,1.115,1,6,0,6,0,1,,,,,,,,,,,,,
66370a20a4b5b1a460904760,TCN,2024-06-20_15h28.13.349,LearnStrategy,2023.2.3,Win32,144.9275362,6,1,8,0.097222222,0.018518519,1,0,0,0.5536,rock_grid_rect_2,2,06,-1,-1,0.554,-0.095370328,-0.242592635,1,0,0,2.4277,Basalt_rect,2,2.428,1,7,0,7,0,1,,,,,,,,,,,,,
66370a20a4b5b1a460904760,TCN,2024-06-20_15h28.13.349,LearnStrategy,2023.2.3,Win32,144.9275362,6,1,9,0.026851866,-0.001851859,1,0,0,0.7341,rock_grid_rect_2,8,13,-1,-1,0.734,0.426851908,-0.396296325,1,0,0,2.3988,Pumice_rect,8,2.399,1,8,0,8,0,1,,,,,,,,,,,,,
66370a20a4b5b1a460904760,TCN,2024-06-20_15h28.13.349,LearnStrategy,2023.2.3,Win32,144.9275362,6,1,10,0.088888875,0.009259259,1,0,0,0.6783,rock_grid_rect_2,3,14,-1,-1,0.678,0.151851866,-0.236111111,1,0,0,1.2057,Diorite_rect,3,1.206,1,9,0,9,0,1,,,,,,,,,,,,,
66370a20a4b5b1a460904760,TCN,2024-06-20_15h28.13.349,LearnStrategy,2023.2.3,Win32,144.9275362,6,1,11,0.074999986,-0.006481489,1,0,0,0.8104,rock_grid_rect_2,7,08,-1,-1,0.81,0.12037037,-0.409259302,1,0,0,1.5371,Peridotite_rect,7,1.537,1,10,0,10,0,1,,,,,,,,,,,,,
66370a20a4b5b1a460904760,TCN,2024-06-20_15h28.13.349,LearnStrategy,2023.2.3,Win32,144.9275362,6,1,12,0.118518547,0.005555541,1,0,0,0.6714,rock_grid_rect_2,4,14,-1,-1,0.671,0.411111196,-0.262037065,1,0,0,1.641,Gabbro_rect,4,1.641,1,11,0,11,0,1,,,,,,,,,,,,,
66370a20a4b5b1a460904760,TCN,2024-06-20_15h28.13.349,LearnStrategy,2023.2.3,Win32,144.9275362,6,1,13,0.082407422,-0.00462963,1,0,0,0.7483,rock_grid_rect_2,5,05,-1,-1,0.748,-0.417592578,-0.408333319,1,0,0,1.3807,Obsidian_rect,5,1.381,1,12,0,12,0,1,,,,,,,,,,,,,
66370a20a4b5b1a460904760,TCN,2024-06-20_15h28.13.349,LearnStrategy,2023.2.3,Win32,144.9275362,6,1,14,0.092592593,-0.010185206,1,0,0,0.7083,rock_grid_rect_2,3,15,-1,-1,0.708,0.162962949,-0.268518519,1,0,0,1.4694,Diorite_rect,3,1.469,1,13,0,13,0,1,,,,,,,,,,,,,
66370a20a4b5b1a460904760,TCN,2024-06-20_15h28.13.349,LearnStrategy,2023.2.3,Win32,144.9275362,6,1,15,0.098148134,0.021296289,1,0,0,0.6435,rock_grid_rect_2,8,10,-1,-1,0.644,0.450925898,-0.405555584,1,0,0,12.8766,Pumice_rect,8,12.877,1,14,0,14,0,1,,,,,,,,,,,,,
66370a20a4b5b1a460904760,TCN,2024-06-20_15h28.13.349,LearnStrategy,2023.2.3,Win32,144.9275362,6,1,16,0.127777806,0.012962942,1,0,0,0.609,rock_grid_rect_2,6,08,-1,-1,0.609,-0.137036995,-0.401851866,1,0,0,1.1498,Pegmatite_rect,6,1.15,1,15,0,15,0,1,,,,,,,,,,,,,
66370a20a4b5b1a460904760,TCN,2024-06-20_15h28.13.349,LearnStrategy,2023.2.3,Win32,144.9275362,6,2,1,,,,,,,,1,04,,,,,,,,,,,1,3.815,1,,,,,,-0.440740727,-0.260185171,1,0,0,3.8146,Andesite_rect,0,0,0,0,1,
66370a20a4b5b1a460904760,TCN,2024-06-20_15h28.13.349,LearnStrategy,2023.2.3,Win32,144.9275362,6,2,2,,,,,,,,5,09,,,,,,,,,,,5,0.9,1,,,,,,-0.402777778,-0.410185213,1,0,0,0.8998,Obsidian_rect,1,0,1,0,1,
66370a20a4b5b1a460904760,TCN,2024-06-20_15h28.13.349,LearnStrategy,2023.2.3,Win32,144.9275362,6,2,3,,,,,,,,6,06,,,,,,,,,,,6,4,1,,,,,,-0.150925884,-0.406481496,1,0,0,4.0001,Pegmatite_rect,2,0,2,0,1,
66370a20a4b5b1a460904760,TCN,2024-06-20_15h28.13.349,LearnStrategy,2023.2.3,Win32,144.9275362,6,2,4,,,,,,,,3,16,,,,,,,,,,,3,1.053,1,,,,,,0.178703732,-0.236111111,1,0,0,1.0532,Diorite_rect,3,0,3,0,1,
66370a20a4b5b1a460904760,TCN,2024-06-20_15h28.13.349,LearnStrategy,2023.2.3,Win32,144.9275362,6,2,5,,,,,,,,4,03,,,,,,,,,,,3,19.185,0,,,,,,0.186111097,-0.246296282,1,0,0,19.1845,Diorite_rect,4,0,4,0,1,
66370a20a4b5b1a460904760,TCN,2024-06-20_15h28.13.349,LearnStrategy,2023.2.3,Win32,144.9275362,6,2,6,,,,,,,,1,01,,,,,,,,,,,4,2.049,0,,,,,,0.44722225,-0.242592635,1,0,0,2.0487,Gabbro_rect,5,0,5,0,1,
66370a20a4b5b1a460904760,TCN,2024-06-20_15h28.13.349,LearnStrategy,2023.2.3,Win32,144.9275362,6,2,7,,,,,,,,6,09,,,,,,,,,,,6,1.505,1,,,,,,-0.087037051,-0.398148148,1,0,0,1.5048,Pegmatite_rect,6,0,6,0,1,
66370a20a4b5b1a460904760,TCN,2024-06-20_15h28.13.349,LearnStrategy,2023.2.3,Win32,144.9275362,6,2,8,,,,,,,,8,08,,,,,,,,,,,8,1.328,1,,,,,,0.428703732,-0.409259302,1,0,0,1.3277,Pumice_rect,7,0,7,0,1,
66370a20a4b5b1a460904760,TCN,2024-06-20_15h28.13.349,LearnStrategy,2023.2.3,Win32,144.9275362,6,2,9,,,,,,,,4,13,,,,,,,,,,,4,10.558,1,,,,,,0.420370455,-0.262962977,1,0,0,10.5584,Gabbro_rect,8,0,8,0,1,
66370a20a4b5b1a460904760,TCN,2024-06-20_15h28.13.349,LearnStrategy,2023.2.3,Win32,144.9275362,6,2,10,,,,,,,,8,03,,,,,,,,,,,8,1.007,1,,,,,,0.437037009,-0.390740783,1,0,0,1.0068,Pumice_rect,9,0,9,0,1,
66370a20a4b5b1a460904760,TCN,2024-06-20_15h28.13.349,LearnStrategy,2023.2.3,Win32,144.9275362,6,2,11,,,,,,,,7,14,,,,,,,,,,,7,3.514,1,,,,,,0.159259302,-0.395370413,1,0,0,3.5143,Peridotite_rect,10,0,10,0,1,
66370a20a4b5b1a460904760,TCN,2024-06-20_15h28.13.349,LearnStrategy,2023.2.3,Win32,144.9275362,6,2,12,,,,,,,,2,09,,,,,,,,,,,2,1.675,1,,,,,,-0.10555557,-0.260185171,1,0,0,1.6753,Basalt_rect,11,0,11,0,1,
66370a20a4b5b1a460904760,TCN,2024-06-20_15h28.13.349,LearnStrategy,2023.2.3,Win32,144.9275362,6,2,13,,,,,,,,3,02,,,,,,,,,,,3,1.113,1,,,,,,0.180555556,-0.260185171,1,0,0,1.1133,Diorite_rect,12,0,12,0,1,
66370a20a4b5b1a460904760,TCN,2024-06-20_15h28.13.349,LearnStrategy,2023.2.3,Win32,144.9275362,6,2,14,,,,,,,,7,04,,,,,,,,,,,1,0.969,0,,,,,,-0.374074053,-0.231481481,1,0,0,0.9693,Andesite_rect,13,0,13,0,1,
66370a20a4b5b1a460904760,TCN,2024-06-20_15h28.13.349,LearnStrategy,2023.2.3,Win32,144.9275362,6,2,15,,,,,,,,5,06,,,,,,,,,,,5,1.207,1,,,,,,-0.428703697,-0.411111125,1,0,0,1.2065,Obsidian_rect,14,0,14,0,1,
66370a20a4b5b1a460904760,TCN,2024-06-20_15h28.13.349,LearnStrategy,2023.2.3,Win32,144.9275362,6,2,16,,,,,,,,2,04,,,,,,,,,,,2,1.421,1,,,,,,-0.128703718,-0.239814829,1,0,0,1.4214,Basalt_rect,15,0,15,0,1,
66370a20a4b5b1a460904760,TCN,2024-06-20_15h28.13.349,LearnStrategy,2023.2.3,Win32,144.9275362,7,1,1,0.018518519,0.011111118,1,0,0,1.2059,rock_grid_rect_2,6,10,-1,-1,1.206,-0.121296282,-0.400925954,1,0,0,2.9533,Pegmatite_rect,6,2.953,1,0,0,0,0,1,,,,,,,,,,,,,
66370a20a4b5b1a460904760,TCN,2024-06-20_15h28.13.349,LearnStrategy,2023.2.3,Win32,144.9275362,7,1,2,0.054629644,-0.00462963,1,0,0,0.7898,rock_grid_rect_2,7,10,-1,-1,0.79,0.183333362,-0.40370369,1,0,0,1.5508,Peridotite_rect,7,1.551,1,1,0,1,0,1,,,,,,,,,,,,,
66370a20a4b5b1a460904760,TCN,2024-06-20_15h28.13.349,LearnStrategy,2023.2.3,Win32,144.9275362,7,1,3,0.042592578,-0.000925947,1,0,0,0.6921,rock_grid_rect_2,8,05,-1,-1,0.692,0.437037009,-0.401851866,1,0,0,1.0502,Pumice_rect,8,1.05,1,2,0,2,0,1,,,,,,,,,,,,,
66370a20a4b5b1a460904760,TCN,2024-06-20_15h28.13.349,LearnStrategy,2023.2.3,Win32,144.9275362,7,1,4,0.016666695,-0.005555577,1,0,0,0.7687,rock_grid_rect_2,5,04,-1,-1,0.769,-0.400000007,-0.387962977,1,0,0,2.5907,Obsidian_rect,5,2.591,1,3,0,3,0,1,,,,,,,,,,,,,
66370a20a4b5b1a460904760,TCN,2024-06-20_15h28.13.349,LearnStrategy,2023.2.3,Win32,144.9275362,7,1,5,0.095370399,0,1,0,0,0.7867,rock_grid_rect_2,7,02,-1,-1,0.787,0.178703732,-0.410185213,1,0,0,1.0748,Peridotite_rect,7,1.075,1,4,0,4,0,1,,,,,,,,,,,,,
66370a20a4b5b1a460904760,TCN,2024-06-20_15h28.13.349,LearnStrategy,2023.2.3,Win32,144.9275362,7,1,6,0.047222208,-0.012962977,1,0,0,0.7892,rock_grid_rect_2,2,10,-1,-1,0.789,-0.107407393,-0.242592635,1,0,0,1.801,Basalt_rect,2,1.801,1,5,0,5,0,1,,,,,,,,,,,,,
66370a20a4b5b1a460904760,TCN,2024-06-20_15h28.13.349,LearnStrategy,2023.2.3,Win32,144.9275362,7,1,7,0.055555556,-0.005555577,1,0,0,0.7201,rock_grid_rect_2,3,08,-1,-1,0.72,0.150925954,-0.240740741,1,0,0,1.0934,Diorite_rect,3,1.093,1,6,0,6,0,1,,,,,,,,,,,,,
66370a20a4b5b1a460904760,TCN,2024-06-20_15h28.13.349,LearnStrategy,2023.2.3,Win32,144.9275362,7,1,8,0.040740755,-0.000925947,1,0,0,0.7823,rock_grid_rect_2,6,08,-1,-1,0.782,-0.125,-0.395370413,1,0,0,1.156,Pegmatite_rect,6,1.156,1,7,0,7,0,1,,,,,,,,,,,,,
66370a20a4b5b1a460904760,TCN,2024-06-20_15h28.13.349,LearnStrategy,2023.2.3,Win32,144.9275362,7,1,9,0.059259273,-0.01203703,1,0,0,0.6924,rock_grid_rect_2,4,16,-1,-1,0.692,0.404629601,-0.259259259,1,0,0,5.3491,Gabbro_rect,4,5.349,1,8,0,8,0,1,,,,,,,,,,,,,
66370a20a4b5b1a460904760,TCN,2024-06-20_15h28.13.349,LearnStrategy,2023.2.3,Win32,144.9275362,7,1,10,0.09629631,-0.0074074,1,0,0,0.7339,rock_grid_rect_2,3,10,-1,-1,0.734,0.154629672,-0.256481524,1,0,0,1.662,Diorite_rect,3,1.662,1,9,0,9,0,1,,,,,,,,,,,,,
66370a20a4b5b1a460904760,TCN,2024-06-20_15h28.13.349,LearnStrategy,2023.2.3,Win32,144.9275362,7,1,11,0.10555557,0,1,0,0,0.6784,rock_grid_rect_2,4,12,-1,-1,0.678,-0.119444459,-0.257407436,1,0,0,1.7608,Basalt_rect,2,1.761,0,10,0,10,0,1,,,,,,,,,,,,,
66370a20a4b5b1a460904760,TCN,2024-06-20_15h28.13.349,LearnStrategy,2023.2.3,Win32,144.9275362,7,1,12,0.062037079,-0.0074074,1,0,0,0.6991,rock_grid_rect_2,8,15,-1,-1,0.699,0.409259231,-0.404629672,1,0,0,1.1011,Pumice_rect,8,1.101,1,11,0,11,0,1,,,,,,,,,,,,,
66370a20a4b5b1a460904760,TCN,2024-06-20_15h28.13.349,LearnStrategy,2023.2.3,Win32,144.9275362,7,1,13,0.048148191,-0.00462963,1,0,0,0.7507,rock_grid_rect_2,1,16,-1,-1,0.751,-0.36296297,-0.242592635,1,0,0,1.7577,Andesite_rect,1,1.758,1,12,0,12,0,1,,,,,,,,,,,,,
66370a20a4b5b1a460904760,TCN,2024-06-20_15h28.13.349,LearnStrategy,2023.2.3,Win32,144.9275362,7,1,14,0.093518504,0.001851859,1,0,0,0.6507,rock_grid_rect_2,5,16,-1,-1,0.651,-0.389814801,-0.407407407,1,0,0,1.1833,Obsidian_rect,5,1.183,1,13,0,13,0,1,,,,,,,,,,,,,
66370a20a4b5b1a460904760,TCN,2024-06-20_15h28.13.349,LearnStrategy,2023.2.3,Win32,144.9275362,7,1,15,0.083333333,0.001851859,1,0,0,0.7687,rock_grid_rect_2,2,01,-1,-1,0.769,-0.117592564,-0.250925912,1,0,0,3.9798,Basalt_rect,2,3.98,1,14,0,14,0,1,,,,,,,,,,,,,
66370a20a4b5b1a460904760,TCN,2024-06-20_15h28.13.349,LearnStrategy,2023.2.3,Win32,144.9275362,7,1,16,0.026851866,-0.008333347,1,0,0,1.0185,rock_grid_rect_2,1,07,-1,-1,1.019,-0.375,-0.237037023,1,0,0,2.0848,Andesite_rect,1,2.085,1,15,0,15,0,1,,,,,,,,,,,,,
66370a20a4b5b1a460904760,TCN,2024-06-20_15h28.13.349,LearnStrategy,2023.2.3,Win32,144.9275362,7,2,1,,,,,,,,4,11,,,,,,,,,,,4,4.056,1,,,,,,0.399999972,-0.250925912,1,0,0,4.0559,Gabbro_rect,0,0,0,0,1,
66370a20a4b5b1a460904760,TCN,2024-06-20_15h28.13.349,LearnStrategy,2023.2.3,Win32,144.9275362,7,2,2,,,,,,,,2,08,,,,,,,,,,,2,2.545,1,,,,,,-0.103703675,-0.242592635,1,0,0,2.5455,Basalt_rect,1,0,1,0,1,
66370a20a4b5b1a460904760,TCN,2024-06-20_15h28.13.349,LearnStrategy,2023.2.3,Win32,144.9275362,7,2,3,,,,,,,,1,04,,,,,,,,,,,1,1.192,1,,,,,,-0.400925919,-0.251851894,1,0,0,1.1917,Andesite_rect,2,0,2,0,1,
66370a20a4b5b1a460904760,TCN,2024-06-20_15h28.13.349,LearnStrategy,2023.2.3,Win32,144.9275362,7,2,4,,,,,,,,8,03,,,,,,,,,,,8,1.427,1,,,,,,0.415740826,-0.395370413,1,0,0,1.4266,Pumice_rect,3,0,3,0,1,
66370a20a4b5b1a460904760,TCN,2024-06-20_15h28.13.349,LearnStrategy,2023.2.3,Win32,144.9275362,7,2,5,,,,,,,,3,12,,,,,,,,,,,3,1.432,1,,,,,,0.125925912,-0.25,1,0,0,1.4317,Diorite_rect,4,0,4,0,1,
66370a20a4b5b1a460904760,TCN,2024-06-20_15h28.13.349,LearnStrategy,2023.2.3,Win32,144.9275362,7,2,6,,,,,,,,6,15,,,,,,,,,,,6,1.279,1,,,,,,-0.117592564,-0.387037065,1,0,0,1.2788,Pegmatite_rect,5,0,5,0,1,
66370a20a4b5b1a460904760,TCN,2024-06-20_15h28.13.349,LearnStrategy,2023.2.3,Win32,144.9275362,7,2,7,,,,,,,,5,10,,,,,,,,,,,5,1.134,1,,,,,,-0.39907406,-0.397222236,1,0,0,1.1343,Obsidian_rect,6,0,6,0,1,
66370a20a4b5b1a460904760,TCN,2024-06-20_15h28.13.349,LearnStrategy,2023.2.3,Win32,144.9275362,7,2,8,,,,,,,,3,09,,,,,,,,,,,3,1.489,1,,,,,,0.113888917,-0.237963005,1,0,0,1.4893,Diorite_rect,7,0,7,0,1,
66370a20a4b5b1a460904760,TCN,2024-06-20_15h28.13.349,LearnStrategy,2023.2.3,Win32,144.9275362,7,2,9,,,,,,,,6,09,,,,,,,,,,,6,1.305,1,,,,,,-0.121296282,-0.393518519,1,0,0,1.3051,Pegmatite_rect,8,0,8,0,1,
66370a20a4b5b1a460904760,TCN,2024-06-20_15h28.13.349,LearnStrategy,2023.2.3,Win32,144.9275362,7,2,10,,,,,,,,1,03,,,,,,,,,,,1,31.921,1,,,,,,-0.365740741,-0.238888917,1,0,0,31.9209,Andesite_rect,9,0,9,0,1,
66370a20a4b5b1a460904760,TCN,2024-06-20_15h28.13.349,LearnStrategy,2023.2.3,Win32,144.9275362,7,2,11,,,,,,,,2,02,,,,,,,,,,,2,2.696,1,,,,,,-0.124074088,-0.250925912,1,0,0,2.6955,Basalt_rect,10,0,10,0,1,
66370a20a4b5b1a460904760,TCN,2024-06-20_15h28.13.349,LearnStrategy,2023.2.3,Win32,144.9275362,7,2,12,,,,,,,,5,11,,,,,,,,,,,5,1.043,1,,,,,,-0.412962949,-0.406481496,1,0,0,1.0435,Obsidian_rect,11,0,11,0,1,
66370a20a4b5b1a460904760,TCN,2024-06-20_15h28.13.349,LearnStrategy,2023.2.3,Win32,144.9275362,7,2,13,,,,,,,,8,09,,,,,,,,,,,8,1.168,1,,,,,,0.430555556,-0.398148148,1,0,0,1.1685,Pumice_rect,12,0,12,0,1,
66370a20a4b5b1a460904760,TCN,2024-06-20_15h28.13.349,LearnStrategy,2023.2.3,Win32,144.9275362,7,2,14,,,,,,,,7,12,,,,,,,,,,,7,2.024,1,,,,,,0.136111153,-0.404629672,1,0,0,2.0242,Peridotite_rect,13,0,13,0,1,
66370a20a4b5b1a460904760,TCN,2024-06-20_15h28.13.349,LearnStrategy,2023.2.3,Win32,144.9275362,7,2,15,,,,,,,,7,14,,,,,,,,,,,7,1.752,1,,,,,,0.136111153,-0.404629672,1,0,0,1.7518,Peridotite_rect,14,0,14,0,1,
66370a20a4b5b1a460904760,TCN,2024-06-20_15h28.13.349,LearnStrategy,2023.2.3,Win32,144.9275362,7,2,16,,,,,,,,4,15,,,,,,,,,,,4,1.496,1,,,,,,0.406481566,-0.25462963,1,0,0,1.4958,Gabbro_rect,15,0,15,0,1,
66370a20a4b5b1a460904760,TCN,2024-06-20_15h28.13.349,LearnStrategy,2023.2.3,Win32,144.9275362,8,1,1,0.064814815,-0.005555577,1,0,0,1.1553,rock_grid_rect_2,8,06,-1,-1,1.155,0.412963019,-0.37962963,1,0,0,1.4556,Pumice_rect,8,1.456,1,0,0,0,0,1,,,,,,,,,,,,,
66370a20a4b5b1a460904760,TCN,2024-06-20_15h28.13.349,LearnStrategy,2023.2.3,Win32,144.9275362,8,1,2,0.059259273,-0.010185206,1,0,0,0.8381,rock_grid_rect_2,1,11,-1,-1,0.838,-0.395370377,-0.24537037,1,0,0,1.6194,Andesite_rect,1,1.619,1,1,0,1,0,1,,,,,,,,,,,,,
66370a20a4b5b1a460904760,TCN,2024-06-20_15h28.13.349,LearnStrategy,2023.2.3,Win32,144.9275362,8,1,3,0.033333319,0.001851859,1,0,0,0.8086,rock_grid_rect_2,2,16,-1,-1,0.809,-0.108333305,-0.25,1,0,0,7.8189,Basalt_rect,2,7.819,1,2,0,2,0,1,,,,,,,,,,,,,
66370a20a4b5b1a460904760,TCN,2024-06-20_15h28.13.349,LearnStrategy,2023.2.3,Win32,144.9275362,8,1,4,0.043518561,0.013888889,1,0,0,0.7647,rock_grid_rect_2,7,13,-1,-1,0.765,0.156481496,-0.401851866,1,0,0,1.2844,Peridotite_rect,7,1.284,1,3,0,3,0,1,,,,,,,,,,,,,
66370a20a4b5b1a460904760,TCN,2024-06-20_15h28.13.349,LearnStrategy,2023.2.3,Win32,144.9275362,8,1,5,0.067592621,0.005555541,1,0,0,0.7824,rock_grid_rect_2,6,13,-1,-1,0.782,-0.124074088,-0.393518519,1,0,0,1.5805,Pegmatite_rect,6,1.58,1,4,0,4,0,1,,,,,,,,,,,,,
66370a20a4b5b1a460904760,TCN,2024-06-20_15h28.13.349,LearnStrategy,2023.2.3,Win32,144.9275362,8,1,6,0.048148191,-0.008333347,1,0,0,1.0599,rock_grid_rect_2,8,14,-1,-1,1.06,0.449074074,-0.401851866,1,0,0,1.0452,Pumice_rect,8,1.045,1,5,0,5,0,1,,,,,,,,,,,,,
66370a20a4b5b1a460904760,TCN,2024-06-20_15h28.13.349,LearnStrategy,2023.2.3,Win32,144.9275362,8,1,7,-0.02407406,0.000925912,1,0,0,0.8427,rock_grid_rect_2,4,10,-1,-1,0.843,0.412963019,-0.237963005,1,0,0,1.1918,Gabbro_rect,4,1.192,1,6,0,6,0,1,,,,,,,,,,,,,
66370a20a4b5b1a460904760,TCN,2024-06-20_15h28.13.349,LearnStrategy,2023.2.3,Win32,144.9275362,8,1,8,-0.013888889,0.008333312,1,0,0,0.8593,rock_grid_rect_2,5,12,-1,-1,0.859,-0.375925912,-0.392592607,1,0,0,1.1638,Obsidian_rect,5,1.164,1,7,0,7,0,1,,,,,,,,,,,,,
66370a20a4b5b1a460904760,TCN,2024-06-20_15h28.13.349,LearnStrategy,2023.2.3,Win32,144.9275362,8,1,9,0.016666695,-0.023148148,1,0,0,1.0188,rock_grid_rect_2,3,06,-1,-1,1.019,0.15370369,-0.246296282,1,0,0,2.2232,Diorite_rect,3,2.223,1,8,0,8,0,1,,,,,,,,,,,,,
66370a20a4b5b1a460904760,TCN,2024-06-20_15h28.13.349,LearnStrategy,2023.2.3,Win32,144.9275362,8,1,10,0.026851866,0,1,0,0,0.8316,rock_grid_rect_2,1,02,-1,-1,0.832,-0.384259259,-0.251851894,1,0,0,1.2569,Andesite_rect,1,1.257,1,9,0,9,0,1,,,,,,,,,,,,,
66370a20a4b5b1a460904760,TCN,2024-06-20_15h28.13.349,LearnStrategy,2023.2.3,Win32,144.9275362,8,1,11,0.045370384,-0.008333347,1,0,0,0.9497,rock_grid_rect_2,4,08,-1,-1,0.95,0.386111083,-0.238888917,1,0,0,1.3852,Gabbro_rect,4,1.385,1,10,0,10,0,1,,,,,,,,,,,,,
66370a20a4b5b1a460904760,TCN,2024-06-20_15h28.13.349,LearnStrategy,2023.2.3,Win32,144.9275362,8,1,12,0.015740783,0.00462963,1,0,0,0.7412,rock_grid_rect_2,3,15,-1,-1,0.741,0.131481524,-0.252777806,1,0,0,1.2684,Diorite_rect,3,1.268,1,11,0,11,0,1,,,,,,,,,,,,,
66370a20a4b5b1a460904760,TCN,2024-06-20_15h28.13.349,LearnStrategy,2023.2.3,Win32,144.9275362,8,1,13,0.018518519,0.003703683,1,0,0,0.6582,rock_grid_rect_2,7,15,-1,-1,0.658,0.122222265,-0.406481496,1,0,0,1.3708,Peridotite_rect,7,1.371,1,12,0,12,0,1,,,,,,,,,,,,,
66370a20a4b5b1a460904760,TCN,2024-06-20_15h28.13.349,LearnStrategy,2023.2.3,Win32,144.9275362,8,1,14,0.011111153,-0.011111118,1,0,0,0.8247,rock_grid_rect_2,6,05,-1,-1,0.825,-0.094444416,-0.40370369,1,0,0,1.2129,Pegmatite_rect,6,1.213,1,13,0,13,0,1,,,,,,,,,,,,,
66370a20a4b5b1a460904760,TCN,2024-06-20_15h28.13.349,LearnStrategy,2023.2.3,Win32,144.9275362,8,1,15,0.055555556,-0.006481489,1,0,0,0.7484,rock_grid_rect_2,2,06,-1,-1,0.748,-0.102777764,-0.25462963,1,0,0,1.274,Basalt_rect,2,1.274,1,14,0,14,0,1,,,,,,,,,,,,,
66370a20a4b5b1a460904760,TCN,2024-06-20_15h28.13.349,LearnStrategy,2023.2.3,Win32,144.9275362,8,1,16,0.009259259,0.003703683,1,0,0,0.9607,rock_grid_rect_2,5,05,-1,-1,0.961,-0.371296282,-0.385185171,1,0,0,1.2121,Obsidian_rect,5,1.212,1,15,0,15,0,1,,,,,,,,,,,,,
66370a20a4b5b1a460904760,TCN,2024-06-20_15h28.13.349,LearnStrategy,2023.2.3,Win32,144.9275362,8,2,1,,,,,,,,6,12,,,,,,,,,,,6,2.045,1,,,,,,-0.118518476,-0.409259302,1,0,0,2.0453,Pegmatite_rect,0,0,0,0,1,
66370a20a4b5b1a460904760,TCN,2024-06-20_15h28.13.349,LearnStrategy,2023.2.3,Win32,144.9275362,8,2,2,,,,,,,,8,04,,,,,,,,,,,8,1.182,1,,,,,,0.384259259,-0.398148148,1,0,0,1.1823,Pumice_rect,1,0,1,0,1,
66370a20a4b5b1a460904760,TCN,2024-06-20_15h28.13.349,LearnStrategy,2023.2.3,Win32,144.9275362,8,2,3,,,,,,,,6,03,,,,,,,,,,,6,1.6,1,,,,,,-0.136111083,-0.39907406,1,0,0,1.5999,Pegmatite_rect,2,0,2,0,1,
66370a20a4b5b1a460904760,TCN,2024-06-20_15h28.13.349,LearnStrategy,2023.2.3,Win32,144.9275362,8,2,4,,,,,,,,5,14,,,,,,,,,,,5,1.048,1,,,,,,-0.375925912,-0.402777778,1,0,0,1.0479,Obsidian_rect,3,0,3,0,1,
66370a20a4b5b1a460904760,TCN,2024-06-20_15h28.13.349,LearnStrategy,2023.2.3,Win32,144.9275362,8,2,5,,,,,,,,2,09,,,,,,,,,,,4,7.623,0,,,,,,0.412037037,-0.241666653,1,0,0,7.623,Gabbro_rect,4,0,4,0,1,
66370a20a4b5b1a460904760,TCN,2024-06-20_15h28.13.349,LearnStrategy,2023.2.3,Win32,144.9275362,8,2,6,,,,,,,,4,03,,,,,,,,,,,4,2.275,1,,,,,,0.44722225,-0.259259259,1,0,0,2.275,Gabbro_rect,5,0,5,0,1,
66370a20a4b5b1a460904760,TCN,2024-06-20_15h28.13.349,LearnStrategy,2023.2.3,Win32,144.9275362,8,2,7,,,,,,,,1,01,,,,,,,,,,,1,7.256,1,,,,,,-0.388888889,-0.262037065,1,0,0,7.256,Andesite_rect,6,0,6,0,1,
66370a20a4b5b1a460904760,TCN,2024-06-20_15h28.13.349,LearnStrategy,2023.2.3,Win32,144.9275362,8,2,8,,,,,,,,7,07,,,,,,,,,,,7,1.43,1,,,,,,0.12962963,-0.417592578,1,0,0,1.4297,Peridotite_rect,7,0,7,0,1,
66370a20a4b5b1a460904760,TCN,2024-06-20_15h28.13.349,LearnStrategy,2023.2.3,Win32,144.9275362,8,2,9,,,,,,,,3,16,,,,,,,,,,,3,1.002,1,,,,,,0.158333319,-0.252777806,1,0,0,1.002,Diorite_rect,8,0,8,0,1,
66370a20a4b5b1a460904760,TCN,2024-06-20_15h28.13.349,LearnStrategy,2023.2.3,Win32,144.9275362,8,2,10,,,,,,,,4,13,,,,,,,,,,,4,18.018,1,,,,,,0.390740712,-0.240740741,1,0,0,18.0184,Gabbro_rect,9,0,9,0,1,
66370a20a4b5b1a460904760,TCN,2024-06-20_15h28.13.349,LearnStrategy,2023.2.3,Win32,144.9275362,8,2,11,,,,,,,,1,06,,,,,,,,,,,1,2.088,1,,,,,,-0.414814808,-0.237037023,1,0,0,2.0875,Andesite_rect,10,0,10,0,1,
66370a20a4b5b1a460904760,TCN,2024-06-20_15h28.13.349,LearnStrategy,2023.2.3,Win32,144.9275362,8,2,12,,,,,,,,8,02,,,,,,,,,,,8,1.218,1,,,,,,0.365740741,-0.391666695,1,0,0,1.2184,Pumice_rect,11,0,11,0,1,
66370a20a4b5b1a460904760,TCN,2024-06-20_15h28.13.349,LearnStrategy,2023.2.3,Win32,144.9275362,8,2,13,,,,,,,,5,09,,,,,,,,,,,5,1.003,1,,,,,,-0.373148141,-0.410185213,1,0,0,1.0031,Obsidian_rect,12,0,12,0,1,
66370a20a4b5b1a460904760,TCN,2024-06-20_15h28.13.349,LearnStrategy,2023.2.3,Win32,144.9275362,8,2,14,,,,,,,,2,04,,,,,,,,,,,2,1.412,1,,,,,,-0.125925912,-0.252777806,1,0,0,1.4121,Basalt_rect,13,0,13,0,1,
66370a20a4b5b1a460904760,TCN,2024-06-20_15h28.13.349,LearnStrategy,2023.2.3,Win32,144.9275362,8,2,15,,,,,,,,7,05,,,,,,,,,,,7,1.497,1,,,,,,0.137037065,-0.395370413,1,0,0,1.497,Peridotite_rect,14,0,14,0,1,
66370a20a4b5b1a460904760,TCN,2024-06-20_15h28.13.349,LearnStrategy,2023.2.3,Win32,144.9275362,8,2,16,,,,,,,,3,02,,,,,,,,,,,3,1.116,1,,,,,,0.14907406,-0.231481481,1,0,0,1.1159,Diorite_rect,15,0,15,0,1,
66370a20a4b5b1a460904760,TCN,2024-06-20_15h28.13.349,LearnStrategy,2023.2.3,Win32,144.9275362,9,1,1,0.043518561,-0.001851859,1,0,0,0.9504,rock_grid_rect_2,7,06,-1,-1,0.95,-0.116666653,-0.397222236,1,0,0,2.3,Pegmatite_rect,6,2.3,0,0,0,0,0,1,,,,,,,,,,,,,
66370a20a4b5b1a460904760,TCN,2024-06-20_15h28.13.349,LearnStrategy,2023.2.3,Win32,144.9275362,9,1,2,0.074999986,-0.002777771,1,0,0,0.6153,rock_grid_rect_2,3,07,-1,-1,0.615,-0.407407407,-0.246296282,1,0,0,8.885,Andesite_rect,1,8.885,0,1,0,1,0,1,,,,,,,,,,,,,
66370a20a4b5b1a460904760,TCN,2024-06-20_15h28.13.349,LearnStrategy,2023.2.3,Win32,144.9275362,9,1,3,0.033333319,0.020370377,1,0,0,0.8386,rock_grid_rect_2,5,07,-1,-1,0.839,-0.380555541,-0.387037065,1,0,0,1.1602,Obsidian_rect,5,1.16,1,2,0,2,0,1,,,,,,,,,,,,,
66370a20a4b5b1a460904760,TCN,2024-06-20_15h28.13.349,LearnStrategy,2023.2.3,Win32,144.9275362,9,1,4,0.075925968,0.003703683,1,0,0,0.8889,rock_grid_rect_2,2,11,-1,-1,0.889,-0.10092594,-0.251851894,1,0,0,3.1442,Basalt_rect,2,3.144,1,3,0,3,0,1,,,,,,,,,,,,,
66370a20a4b5b1a460904760,TCN,2024-06-20_15h28.13.349,LearnStrategy,2023.2.3,Win32,144.9275362,9,1,5,0.070370356,0,1,0,0,0.7262,rock_grid_rect_2,4,14,-1,-1,0.726,0.42777775,-0.242592635,1,0,0,1.2469,Gabbro_rect,4,1.247,1,4,0,4,0,1,,,,,,,,,,,,,
66370a20a4b5b1a460904760,TCN,2024-06-20_15h28.13.349,LearnStrategy,2023.2.3,Win32,144.9275362,9,1,6,0.038888931,-0.005555577,1,0,0,0.6251,rock_grid_rect_2,4,01,-1,-1,0.625,0.127777806,-0.405555584,1,0,0,1.8796,Peridotite_rect,7,1.88,0,5,0,5,0,1,,,,,,,,,,,,,
66370a20a4b5b1a460904760,TCN,2024-06-20_15h28.13.349,LearnStrategy,2023.2.3,Win32,144.9275362,9,1,7,0.051851838,-0.00462963,1,0,0,0.5541,rock_grid_rect_2,8,10,-1,-1,0.554,0.384259259,-0.392592607,1,0,0,1.0672,Pumice_rect,8,1.067,1,6,0,6,0,1,,,,,,,,,,,,,
66370a20a4b5b1a460904760,TCN,2024-06-20_15h28.13.349,LearnStrategy,2023.2.3,Win32,144.9275362,9,1,8,0.02407406,0.008333312,1,0,0,0.5403,rock_grid_rect_2,3,14,-1,-1,0.54,0.183333362,-0.271296325,1,0,0,0.9225,Diorite_rect,3,0.922,1,7,0,7,0,1,,,,,,,,,,,,,
66370a20a4b5b1a460904760,TCN,2024-06-20_15h28.13.349,LearnStrategy,2023.2.3,Win32,144.9275362,9,1,9,0.02870369,0.02407406,1,0,0,0.679,rock_grid_rect_2,2,12,-1,-1,0.679,0.402777778,-0.390740783,1,0,0,6.2638,Pumice_rect,8,6.264,0,8,0,8,0,1,,,,,,,,,,,,,
66370a20a4b5b1a460904760,TCN,2024-06-20_15h28.13.349,LearnStrategy,2023.2.3,Win32,144.9275362,9,1,10,0.027777778,-0.023148148,1,0,0,0.5332,rock_grid_rect_2,1,05,-1,-1,0.533,-0.354629623,-0.253703718,1,0,0,1.5891,Andesite_rect,1,1.589,1,9,0,9,0,1,,,,,,,,,,,,,
66370a20a4b5b1a460904760,TCN,2024-06-20_15h28.13.349,LearnStrategy,2023.2.3,Win32,144.9275362,9,1,11,0.065740727,0.006481489,1,0,0,0.7158,rock_grid_rect_2,1,14,-1,-1,0.716,-0.385185171,-0.232407393,1,0,0,1.9822,Andesite_rect,1,1.982,1,10,0,10,0,1,,,,,,,,,,,,,
66370a20a4b5b1a460904760,TCN,2024-06-20_15h28.13.349,LearnStrategy,2023.2.3,Win32,144.9275362,9,1,12,0.038888931,0.001851859,1,0,0,0.7082,rock_grid_rect_2,5,02,-1,-1,0.708,-0.356481481,-0.390740783,1,0,0,1.065,Obsidian_rect,5,1.065,1,11,0,11,0,1,,,,,,,,,,,,,
66370a20a4b5b1a460904760,TCN,2024-06-20_15h28.13.349,LearnStrategy,2023.2.3,Win32,144.9275362,9,1,13,0.044444473,0.001851859,1,0,0,0.6583,rock_grid_rect_2,7,08,-1,-1,0.658,0.148148148,-0.397222236,1,0,0,1.5103,Peridotite_rect,7,1.51,1,12,0,12,0,1,,,,,,,,,,,,,
66370a20a4b5b1a460904760,TCN,2024-06-20_15h28.13.349,LearnStrategy,2023.2.3,Win32,144.9275362,9,1,14,0.051851838,0.002777771,1,0,0,0.7345,rock_grid_rect_2,6,11,-1,-1,0.735,-0.113888847,-0.383333347,1,0,0,1.2108,Pegmatite_rect,6,1.211,1,13,0,13,0,1,,,,,,,,,,,,,
66370a20a4b5b1a460904760,TCN,2024-06-20_15h28.13.349,LearnStrategy,2023.2.3,Win32,144.9275362,9,1,15,0.044444473,-0.003703718,1,0,0,0.8594,rock_grid_rect_2,6,16,-1,-1,0.859,-0.098148134,-0.416666667,1,0,0,1.1424,Pegmatite_rect,6,1.142,1,14,0,14,0,1,,,,,,,,,,,,,
66370a20a4b5b1a460904760,TCN,2024-06-20_15h28.13.349,LearnStrategy,2023.2.3,Win32,144.9275362,9,1,16,0.027777778,-0.002777771,1,0,0,0.6582,rock_grid_rect_2,8,13,-1,-1,0.658,0.440740797,-0.409259302,1,0,0,1.6693,Pumice_rect,8,1.669,1,15,0,15,0,1,,,,,,,,,,,,,
66370a20a4b5b1a460904760,TCN,2024-06-20_15h28.13.349,LearnStrategy,2023.2.3,Win32,144.9275362,9,2,1,,,,,,,,2,05,,,,,,,,,,,2,4.606,1,,,,,,-0.122222194,-0.25,1,0,0,4.606,Basalt_rect,0,0,0,0,1,
66370a20a4b5b1a460904760,TCN,2024-06-20_15h28.13.349,LearnStrategy,2023.2.3,Win32,144.9275362,9,2,2,,,,,,,,8,08,,,,,,,,,,,8,1.428,1,,,,,,0.404629601,-0.404629672,1,0,0,1.4279,Pumice_rect,1,0,1,0,1,
66370a20a4b5b1a460904760,TCN,2024-06-20_15h28.13.349,LearnStrategy,2023.2.3,Win32,144.9275362,9,2,3,,,,,,,,1,10,,,,,,,,,,,1,12.538,1,,,,,,-0.401851831,-0.242592635,1,0,0,12.5377,Andesite_rect,2,0,2,0,1,
66370a20a4b5b1a460904760,TCN,2024-06-20_15h28.13.349,LearnStrategy,2023.2.3,Win32,144.9275362,9,2,4,,,,,,,,6,06,,,,,,,,,,,6,1.385,1,,,,,,-0.146296254,-0.401851866,1,0,0,1.3849,Pegmatite_rect,3,0,3,0,1,
66370a20a4b5b1a460904760,TCN,2024-06-20_15h28.13.349,LearnStrategy,2023.2.3,Win32,144.9275362,9,2,5,,,,,,,,4,09,,,,,,,,,,,4,1.379,1,,,,,,0.40833339,-0.243518547,1,0,0,1.3786,Gabbro_rect,4,0,4,0,1,
66370a20a4b5b1a460904760,TCN,2024-06-20_15h28.13.349,LearnStrategy,2023.2.3,Win32,144.9275362,9,2,6,,,,,,,,8,16,,,,,,,,,,,8,1.129,1,,,,,,0.410185213,-0.39907406,1,0,0,1.1287,Pumice_rect,5,0,5,0,1,
66370a20a4b5b1a460904760,TCN,2024-06-20_15h28.13.349,LearnStrategy,2023.2.3,Win32,144.9275362,9,2,7,,,,,,,,2,14,,,,,,,,,,,8,4.139,0,,,,,,0.449074074,-0.405555584,1,0,0,4.1392,Pumice_rect,6,0,6,0,1,
66370a20a4b5b1a460904760,TCN,2024-06-20_15h28.13.349,LearnStrategy,2023.2.3,Win32,144.9275362,9,2,8,,,,,,,,5,08,,,,,,,,,,,5,1.201,1,,,,,,-0.350925905,-0.383333347,1,0,0,1.201,Obsidian_rect,7,0,7,0,1,
66370a20a4b5b1a460904760,TCN,2024-06-20_15h28.13.349,LearnStrategy,2023.2.3,Win32,144.9275362,9,2,9,,,,,,,,4,05,,,,,,,,,,,4,4.911,1,,,,,,0.409259231,-0.25462963,1,0,0,4.9109,Gabbro_rect,8,0,8,0,1,
66370a20a4b5b1a460904760,TCN,2024-06-20_15h28.13.349,LearnStrategy,2023.2.3,Win32,144.9275362,9,2,10,,,,,,,,6,07,,,,,,,,,,,6,1.178,1,,,,,,-0.137962977,-0.389814801,1,0,0,1.1781,Pegmatite_rect,9,0,9,0,1,
66370a20a4b5b1a460904760,TCN,2024-06-20_15h28.13.349,LearnStrategy,2023.2.3,Win32,144.9275362,9,2,11,,,,,,,,5,06,,,,,,,,,,,5,1.128,1,,,,,,-0.337037016,-0.383333347,1,0,0,1.1275,Obsidian_rect,10,0,10,0,1,
66370a20a4b5b1a460904760,TCN,2024-06-20_15h28.13.349,LearnStrategy,2023.2.3,Win32,144.9275362,9,2,12,,,,,,,,3,11,,,,,,,,,,,3,1.26,1,,,,,,0.14907406,-0.240740741,1,0,0,1.2597,Diorite_rect,11,0,11,0,1,
66370a20a4b5b1a460904760,TCN,2024-06-20_15h28.13.349,LearnStrategy,2023.2.3,Win32,144.9275362,9,2,13,,,,,,,,7,04,,,,,,,,,,,1,1.06,0,,,,,,-0.354629623,-0.238888917,1,0,0,1.0602,Andesite_rect,12,0,12,0,1,
66370a20a4b5b1a460904760,TCN,2024-06-20_15h28.13.349,LearnStrategy,2023.2.3,Win32,144.9275362,9,2,14,,,,,,,,1,09,,,,,,,,,,,3,44.826,0,,,,,,0.131481524,-0.252777806,1,0,0,44.8264,Diorite_rect,13,0,13,0,1,
66370a20a4b5b1a460904760,TCN,2024-06-20_15h28.13.349,LearnStrategy,2023.2.3,Win32,144.9275362,9,2,15,,,,,,,,3,13,,,,,,,,,,,3,1.134,1,,,,,,0.166666667,-0.25,1,0,0,1.1337,Diorite_rect,14,0,14,0,1,
66370a20a4b5b1a460904760,TCN,2024-06-20_15h28.13.349,LearnStrategy,2023.2.3,Win32,144.9275362,9,2,16,,,,,,,,7,16,,,,,,,,,,,7,2.702,1,,,,,,0.134259259,-0.401851866,1,0,0,2.7021,Peridotite_rect,15,0,15,0,1,
66370a20a4b5b1a460904760,TCN,2024-06-20_15h28.13.349,LearnStrategy,2023.2.3,Win32,144.9275362,,,,,,,,,,,,,,,,,,,,,,,,,,,,,,,,,,,,,,,,,,,1
66370a20a4b5b1a460904760,TCN,2024-06-20_15h28.13.349,LearnStrategy,2023.2.3,Win32,144.9275362,,,,,,,,,,,,,,,,,,,,,,,,,,,,,,,,,,,,,,,,,,,
66370a20a4b5b1a460904760,TCN,2024-06-20_15h28.13.349,LearnStrategy,2023.2.3,Win32,144.9275362,,,,,,,,,,,4,10,1,1,,,,,,,,,,,,,,,,,,,,,,,,,,,,,
66370a20a4b5b1a460904760,TCN,2024-06-20_15h28.13.349,LearnStrategy,2023.2.3,Win32,144.9275362,,,,,,,,,,,3,08,1,2,,,,,,,,,,,,,,,,,,,,,,,,,,,,,
66370a20a4b5b1a460904760,TCN,2024-06-20_15h28.13.349,LearnStrategy,2023.2.3,Win32,144.9275362,,,,,,,,,,,4,08,1,3,,,,,,,,,,,,,,,,,,,,,,,,,,,,,
66370a20a4b5b1a460904760,TCN,2024-06-20_15h28.13.349,LearnStrategy,2023.2.3,Win32,144.9275362,,,,,,,,,,,3,15,1,4,,,,,,,,,,,,,,,,,,,,,,,,,,,,,
66370a20a4b5b1a460904760,TCN,2024-06-20_15h28.13.349,LearnStrategy,2023.2.3,Win32,144.9275362,,,,,,,,,,,8,06,1,5,,,,,,,,,,,,,,,,,,,,,,,,,,,,,
66370a20a4b5b1a460904760,TCN,2024-06-20_15h28.13.349,LearnStrategy,2023.2.3,Win32,144.9275362,,,,,,,,,,,2,12,1,6,,,,,,,,,,,,,,,,,,,,,,,,,,,,,
66370a20a4b5b1a460904760,TCN,2024-06-20_15h28.13.349,LearnStrategy,2023.2.3,Win32,144.9275362,,,,,,,,,,,8,13,1,7,,,,,,,,,,,,,,,,,,,,,,,,,,,,,
66370a20a4b5b1a460904760,TCN,2024-06-20_15h28.13.349,LearnStrategy,2023.2.3,Win32,144.9275362,,,,,,,,,,,7,15,1,8,,,,,,,,,,,,,,,,,,,,,,,,,,,,,
66370a20a4b5b1a460904760,TCN,2024-06-20_15h28.13.349,LearnStrategy,2023.2.3,Win32,144.9275362,,,,,,,,,,,2,10,2,1,,,,,,,,,,,,,,,,,,,,,,,,,,,,,
66370a20a4b5b1a460904760,TCN,2024-06-20_15h28.13.349,LearnStrategy,2023.2.3,Win32,144.9275362,,,,,,,,,,,5,07,2,2,,,,,,,,,,,,,,,,,,,,,,,,,,,,,
66370a20a4b5b1a460904760,TCN,2024-06-20_15h28.13.349,LearnStrategy,2023.2.3,Win32,144.9275362,,,,,,,,,,,4,12,2,3,,,,,,,,,,,,,,,,,,,,,,,,,,,,,
66370a20a4b5b1a460904760,TCN,2024-06-20_15h28.13.349,LearnStrategy,2023.2.3,Win32,144.9275362,,,,,,,,,,,7,08,2,4,,,,,,,,,,,,,,,,,,,,,,,,,,,,,
66370a20a4b5b1a460904760,TCN,2024-06-20_15h28.13.349,LearnStrategy,2023.2.3,Win32,144.9275362,,,,,,,,,,,7,06,2,5,,,,,,,,,,,,,,,,,,,,,,,,,,,,,
66370a20a4b5b1a460904760,TCN,2024-06-20_15h28.13.349,LearnStrategy,2023.2.3,Win32,144.9275362,,,,,,,,,,,6,08,2,6,,,,,,,,,,,,,,,,,,,,,,,,,,,,,
66370a20a4b5b1a460904760,TCN,2024-06-20_15h28.13.349,LearnStrategy,2023.2.3,Win32,144.9275362,,,,,,,,,,,3,07,2,7,,,,,,,,,,,,,,,,,,,,,,,,,,,,,
66370a20a4b5b1a460904760,TCN,2024-06-20_15h28.13.349,LearnStrategy,2023.2.3,Win32,144.9275362,,,,,,,,,,,1,16,2,8,,,,,,,,,,,,,,,,,,,,,,,,,,,,,
66370a20a4b5b1a460904760,TCN,2024-06-20_15h28.13.349,LearnStrategy,2023.2.3,Win32,144.9275362,,,,,,,,,,,1,14,3,1,,,,,,,,,,,,,,,,,,,,,,,,,,,,,
66370a20a4b5b1a460904760,TCN,2024-06-20_15h28.13.349,LearnStrategy,2023.2.3,Win32,144.9275362,,,,,,,,,,,4,01,3,2,,,,,,,,,,,,,,,,,,,,,,,,,,,,,
66370a20a4b5b1a460904760,TCN,2024-06-20_15h28.13.349,LearnStrategy,2023.2.3,Win32,144.9275362,,,,,,,,,,,5,02,3,3,,,,,,,,,,,,,,,,,,,,,,,,,,,,,
66370a20a4b5b1a460904760,TCN,2024-06-20_15h28.13.349,LearnStrategy,2023.2.3,Win32,144.9275362,,,,,,,,,,,3,06,3,4,,,,,,,,,,,,,,,,,,,,,,,,,,,,,
66370a20a4b5b1a460904760,TCN,2024-06-20_15h28.13.349,LearnStrategy,2023.2.3,Win32,144.9275362,,,,,,,,,,,8,05,3,5,,,,,,,,,,,,,,,,,,,,,,,,,,,,,
66370a20a4b5b1a460904760,TCN,2024-06-20_15h28.13.349,LearnStrategy,2023.2.3,Win32,144.9275362,,,,,,,,,,,5,16,3,6,,,,,,,,,,,,,,,,,,,,,,,,,,,,,
66370a20a4b5b1a460904760,TCN,2024-06-20_15h28.13.349,LearnStrategy,2023.2.3,Win32,144.9275362,,,,,,,,,,,2,11,3,7,,,,,,,,,,,,,,,,,,,,,,,,,,,,,
66370a20a4b5b1a460904760,TCN,2024-06-20_15h28.13.349,LearnStrategy,2023.2.3,Win32,144.9275362,,,,,,,,,,,2,06,3,8,,,,,,,,,,,,,,,,,,,,,,,,,,,,,
66370a20a4b5b1a460904760,TCN,2024-06-20_15h28.13.349,LearnStrategy,2023.2.3,Win32,144.9275362,,,,,,,,,,,6,10,4,1,,,,,,,,,,,,,,,,,,,,,,,,,,,,,
66370a20a4b5b1a460904760,TCN,2024-06-20_15h28.13.349,LearnStrategy,2023.2.3,Win32,144.9275362,,,,,,,,,,,1,07,4,2,,,,,,,,,,,,,,,,,,,,,,,,,,,,,
66370a20a4b5b1a460904760,TCN,2024-06-20_15h28.13.349,LearnStrategy,2023.2.3,Win32,144.9275362,,,,,,,,,,,6,16,4,3,,,,,,,,,,,,,,,,,,,,,,,,,,,,,
66370a20a4b5b1a460904760,TCN,2024-06-20_15h28.13.349,LearnStrategy,2023.2.3,Win32,144.9275362,,,,,,,,,,,1,05,4,4,,,,,,,,,,,,,,,,,,,,,,,,,,,,,
66370a20a4b5b1a460904760,TCN,2024-06-20_15h28.13.349,LearnStrategy,2023.2.3,Win32,144.9275362,,,,,,,,,,,4,14,4,5,,,,,,,,,,,,,,,,,,,,,,,,,,,,,
66370a20a4b5b1a460904760,TCN,2024-06-20_15h28.13.349,LearnStrategy,2023.2.3,Win32,144.9275362,,,,,,,,,,,6,05,4,6,,,,,,,,,,,,,,,,,,,,,,,,,,,,,
66370a20a4b5b1a460904760,TCN,2024-06-20_15h28.13.349,LearnStrategy,2023.2.3,Win32,144.9275362,,,,,,,,,,,6,11,4,7,,,,,,,,,,,,,,,,,,,,,,,,,,,,,
66370a20a4b5b1a460904760,TCN,2024-06-20_15h28.13.349,LearnStrategy,2023.2.3,Win32,144.9275362,,,,,,,,,,,5,12,4,8,,,,,,,,,,,,,,,,,,,,,,,,,,,,,
66370a20a4b5b1a460904760,TCN,2024-06-20_15h28.13.349,LearnStrategy,2023.2.3,Win32,144.9275362,,,,,,,,,,,1,02,5,1,,,,,,,,,,,,,,,,,,,,,,,,,,,,,
66370a20a4b5b1a460904760,TCN,2024-06-20_15h28.13.349,LearnStrategy,2023.2.3,Win32,144.9275362,,,,,,,,,,,2,16,5,2,,,,,,,,,,,,,,,,,,,,,,,,,,,,,
66370a20a4b5b1a460904760,TCN,2024-06-20_15h28.13.349,LearnStrategy,2023.2.3,Win32,144.9275362,,,,,,,,,,,8,14,5,3,,,,,,,,,,,,,,,,,,,,,,,,,,,,,
66370a20a4b5b1a460904760,TCN,2024-06-20_15h28.13.349,LearnStrategy,2023.2.3,Win32,144.9275362,,,,,,,,,,,7,02,5,4,,,,,,,,,,,,,,,,,,,,,,,,,,,,,
66370a20a4b5b1a460904760,TCN,2024-06-20_15h28.13.349,LearnStrategy,2023.2.3,Win32,144.9275362,,,,,,,,,,,8,15,5,5,,,,,,,,,,,,,,,,,,,,,,,,,,,,,
66370a20a4b5b1a460904760,TCN,2024-06-20_15h28.13.349,LearnStrategy,2023.2.3,Win32,144.9275362,,,,,,,,,,,5,04,5,6,,,,,,,,,,,,,,,,,,,,,,,,,,,,,
66370a20a4b5b1a460904760,TCN,2024-06-20_15h28.13.349,LearnStrategy,2023.2.3,Win32,144.9275362,,,,,,,,,,,3,14,5,7,,,,,,,,,,,,,,,,,,,,,,,,,,,,,
66370a20a4b5b1a460904760,TCN,2024-06-20_15h28.13.349,LearnStrategy,2023.2.3,Win32,144.9275362,,,,,,,,,,,3,10,5,8,,,,,,,,,,,,,,,,,,,,,,,,,,,,,
66370a20a4b5b1a460904760,TCN,2024-06-20_15h28.13.349,LearnStrategy,2023.2.3,Win32,144.9275362,,,,,,,,,,,2,01,6,1,,,,,,,,,,,,,,,,,,,,,,,,,,,,,
66370a20a4b5b1a460904760,TCN,2024-06-20_15h28.13.349,LearnStrategy,2023.2.3,Win32,144.9275362,,,,,,,,,,,5,05,6,2,,,,,,,,,,,,,,,,,,,,,,,,,,,,,
66370a20a4b5b1a460904760,TCN,2024-06-20_15h28.13.349,LearnStrategy,2023.2.3,Win32,144.9275362,,,,,,,,,,,7,13,6,3,,,,,,,,,,,,,,,,,,,,,,,,,,,,,
66370a20a4b5b1a460904760,TCN,2024-06-20_15h28.13.349,LearnStrategy,2023.2.3,Win32,144.9275362,,,,,,,,,,,6,13,6,4,,,,,,,,,,,,,,,,,,,,,,,,,,,,,
66370a20a4b5b1a460904760,TCN,2024-06-20_15h28.13.349,LearnStrategy,2023.2.3,Win32,144.9275362,,,,,,,,,,,1,11,6,5,,,,,,,,,,,,,,,,,,,,,,,,,,,,,
66370a20a4b5b1a460904760,TCN,2024-06-20_15h28.13.349,LearnStrategy,2023.2.3,Win32,144.9275362,,,,,,,,,,,8,10,6,6,,,,,,,,,,,,,,,,,,,,,,,,,,,,,
66370a20a4b5b1a460904760,TCN,2024-06-20_15h28.13.349,LearnStrategy,2023.2.3,Win32,144.9275362,,,,,,,,,,,7,10,6,7,,,,,,,,,,,,,,,,,,,,,,,,,,,,,
66370a20a4b5b1a460904760,TCN,2024-06-20_15h28.13.349,LearnStrategy,2023.2.3,Win32,144.9275362,,,,,,,,,,,4,16,6,8,,,,,,,,,,,,,,,,,,,,,,,,,,,,,