participant,condition,date,expName,psychopyVersion,OS,frameRate,block,phase,trial,learn_mouse_2.x,learn_mouse_2.y,learn_mouse_2.leftButton,learn_mouse_2.midButton,learn_mouse_2.rightButton,learn_mouse_2.time,learn_mouse_2.clicked_name,cat,token,row,col,t_select,cat_mouse_l.x,cat_mouse_l.y,cat_mouse_l.leftButton,cat_mouse_l.midButton,cat_mouse_l.rightButton,cat_mouse_l.time,cat_mouse_l.clicked_name,resp,t_resp,corr,train_trials.thisRepN,train_trials.thisTrialN,train_trials.thisN,train_trials.thisIndex,train_trials.ran,cat_mouse_t.x,cat_mouse_t.y,cat_mouse_t.leftButton,cat_mouse_t.midButton,cat_mouse_t.rightButton,cat_mouse_t.time,cat_mouse_t.clicked_name,test_trials.thisRepN,test_trials.thisTrialN,test_trials.thisN,test_trials.thisIndex,test_trials.ran,Bonus
6638dceb7a4c777c55da2b23,TCN,2024-06-24_16h34.34.619,LearnStrategy,2023.2.3,Linux x86_64,59.88023952,,,,,,,,,,,,,,,,,,,,,,,,,,,,,,,,,,,,,,,,,,,
6638dceb7a4c777c55da2b23,TCN,2024-06-24_16h34.34.619,LearnStrategy,2023.2.3,Linux x86_64,59.88023952,1,1,1,0.083528916,0.002294938,1,0,0,5.1693,rock_grid_rect_2,5,14,-1,-1,5.169,-0.374447783,-0.397660096,1,0,0,16.6179,Obsidian_rect,5,16.618,1,0,0,0,0,1,,,,,,,,,,,,,
6638dceb7a4c777c55da2b23,TCN,2024-06-24_16h34.34.619,LearnStrategy,2023.2.3,Linux x86_64,59.88023952,1,1,2,0.053602219,-0.009082119,1,0,0,2.9344,rock_grid_rect_2,1,10,-1,-1,2.934,0.380231539,-0.242812236,1,0,0,12.2434,Gabbro_rect,4,12.243,0,1,0,1,0,1,,,,,,,,,,,,,
6638dceb7a4c777c55da2b23,TCN,2024-06-24_16h34.34.619,LearnStrategy,2023.2.3,Linux x86_64,59.88023952,1,1,3,-0.00742205,0.011348446,1,0,0,1.8352,rock_grid_rect_2,8,02,-1,-1,1.835,0.372564395,-0.405089219,1,0,0,37.5961,Pumice_rect,8,37.596,1,2,0,2,0,1,,,,,,,,,,,,,
6638dceb7a4c777c55da2b23,TCN,2024-06-24_16h34.34.619,LearnStrategy,2023.2.3,Linux x86_64,59.88023952,1,1,4,0.076088826,0.003377954,1,0,0,1.7,rock_grid_rect_2,6,06,-1,-1,1.7,0.088035425,-0.252593438,1,0,0,66.0535,Diorite_rect,3,66.053,0,3,0,3,0,1,,,,,,,,,,,,,
6638dceb7a4c777c55da2b23,TCN,2024-06-24_16h34.34.619,LearnStrategy,2023.2.3,Linux x86_64,59.88023952,1,1,5,0.042445342,0.002891103,1,0,0,1.5778,rock_grid_rect_2,7,10,-1,-1,1.578,-0.126187086,-0.262117386,1,0,0,72.9046,Basalt_rect,2,72.905,0,4,0,4,0,1,,,,,,,,,,,,,
6638dceb7a4c777c55da2b23,TCN,2024-06-24_16h34.34.619,LearnStrategy,2023.2.3,Linux x86_64,59.88023952,1,1,6,0.094372034,-0.001038114,1,0,0,2.1691,rock_grid_rect_2,3,15,-1,-1,2.169,0.434066137,-0.239275535,1,0,0,47.8116,Gabbro_rect,4,47.812,0,5,0,5,0,1,,,,,,,,,,,,,
6638dceb7a4c777c55da2b23,TCN,2024-06-24_16h34.34.619,LearnStrategy,2023.2.3,Linux x86_64,59.88023952,1,1,7,-0.018205245,0.000704765,1,0,0,2.593,rock_grid_rect_2,2,09,-1,-1,2.593,-0.092198849,-0.257477045,1,0,0,30.2327,Basalt_rect,2,30.233,1,6,0,6,0,1,,,,,,,,,,,,,
6638dceb7a4c777c55da2b23,TCN,2024-06-24_16h34.34.619,LearnStrategy,2023.2.3,Linux x86_64,59.88023952,1,1,8,-0.001461665,-0.011853377,1,0,0,1.8572,rock_grid_rect_2,4,15,-1,-1,1.857,0.415611188,-0.253791889,1,0,0,22.9192,Gabbro_rect,4,22.919,1,7,0,7,0,1,,,,,,,,,,,,,
6638dceb7a4c777c55da2b23,TCN,2024-06-24_16h34.34.619,LearnStrategy,2023.2.3,Linux x86_64,59.88023952,1,1,9,0.012871186,-0.000831604,1,0,0,1.3598,rock_grid_rect_2,6,13,-1,-1,1.36,0.112324635,-0.234069109,1,0,0,36.3701,Diorite_rect,3,36.37,0,8,0,8,0,1,,,,,,,,,,,,,
6638dceb7a4c777c55da2b23,TCN,2024-06-24_16h34.34.619,LearnStrategy,2023.2.3,Linux x86_64,59.88023952,1,1,10,0.06676356,-0.014408032,1,0,0,2.0414,rock_grid_rect_2,7,14,-1,-1,2.041,0.103041013,-0.260318597,1,0,0,122.5061,Diorite_rect,3,122.506,0,9,0,9,0,1,,,,,,,,,,,,,
6638dceb7a4c777c55da2b23,TCN,2024-06-24_16h34.34.619,LearnStrategy,2023.2.3,Linux x86_64,59.88023952,1,1,11,0.013275941,-0.014155666,1,0,0,2.0908,rock_grid_rect_2,2,02,-1,-1,2.091,-0.181689262,-0.259845416,1,0,0,2.6375,Basalt_rect,2,2.638,1,10,0,10,0,1,,,,,,,,,,,,,
6638dceb7a4c777c55da2b23,TCN,2024-06-24_16h34.34.619,LearnStrategy,2023.2.3,Linux x86_64,59.88023952,1,1,12,-0.002687295,-0.019780795,1,0,0,1.5312,rock_grid_rect_2,4,08,-1,-1,1.531,-0.357334852,-0.384692987,1,0,0,10.5254,Obsidian_rect,5,10.525,0,11,0,11,0,1,,,,,,,,,,,,,
6638dceb7a4c777c55da2b23,TCN,2024-06-24_16h34.34.619,LearnStrategy,2023.2.3,Linux x86_64,59.88023952,1,1,13,0.066510757,0.00141565,1,0,0,1.5778,rock_grid_rect_2,5,07,-1,-1,1.578,-0.32825315,-0.244059086,1,0,0,8.6414,Andesite_rect,1,8.641,0,12,0,12,0,1,,,,,,,,,,,,,
6638dceb7a4c777c55da2b23,TCN,2024-06-24_16h34.34.619,LearnStrategy,2023.2.3,Linux x86_64,59.88023952,1,1,14,-0.002735933,-0.017341375,1,0,0,1.4972,rock_grid_rect_2,3,14,-1,-1,1.497,0.093886375,-0.25395902,1,0,0,17.8303,Diorite_rect,3,17.83,1,13,0,13,0,1,,,,,,,,,,,,,
6638dceb7a4c777c55da2b23,TCN,2024-06-24_16h34.34.619,LearnStrategy,2023.2.3,Linux x86_64,59.88023952,1,1,15,0.041805744,0.009786208,1,0,0,1.4345,rock_grid_rect_2,8,16,-1,-1,1.434,-0.115873416,-0.395591815,1,0,0,47.9523,Pegmatite_rect,6,47.952,0,14,0,14,0,1,,,,,,,,,,,,,
6638dceb7a4c777c55da2b23,TCN,2024-06-24_16h34.34.619,LearnStrategy,2023.2.3,Linux x86_64,59.88023952,1,1,16,-0.004134337,-0.010995309,1,0,0,1.9802,rock_grid_rect_2,1,16,-1,-1,1.98,0.077054342,-0.381438096,1,0,0,18.4162,Peridotite_rect,7,18.416,0,15,0,15,0,1,,,,,,,,,,,,,
6638dceb7a4c777c55da2b23,TCN,2024-06-24_16h34.34.619,LearnStrategy,2023.2.3,Linux x86_64,59.88023952,1,2,1,,,,,,,,2,05,,,,,,,,,,,2,3.277,1,,,,,,-0.104590178,-0.245831649,1,0,0,3.2773,Basalt_rect,0,0,0,0,1,
6638dceb7a4c777c55da2b23,TCN,2024-06-24_16h34.34.619,LearnStrategy,2023.2.3,Linux x86_64,59.88023952,1,2,2,,,,,,,,5,08,,,,,,,,,,,5,4.299,1,,,,,,-0.338036219,-0.383915265,1,0,0,4.299,Obsidian_rect,1,0,1,0,1,
6638dceb7a4c777c55da2b23,TCN,2024-06-24_16h34.34.619,LearnStrategy,2023.2.3,Linux x86_64,59.88023952,1,2,3,,,,,,,,6,08,,,,,,,,,,,6,26.792,1,,,,,,-0.167272488,-0.409800847,1,0,0,26.7923,Pegmatite_rect,2,0,2,0,1,
6638dceb7a4c777c55da2b23,TCN,2024-06-24_16h34.34.619,LearnStrategy,2023.2.3,Linux x86_64,59.88023952,1,2,4,,,,,,,,4,13,,,,,,,,,,,4,14.934,1,,,,,,0.388258139,-0.250404676,1,0,0,14.9342,Gabbro_rect,3,0,3,0,1,
6638dceb7a4c777c55da2b23,TCN,2024-06-24_16h34.34.619,LearnStrategy,2023.2.3,Linux x86_64,59.88023952,1,2,5,,,,,,,,1,03,,,,,,,,,,,5,38.907,0,,,,,,-0.418427904,-0.405508041,1,0,0,38.9074,Obsidian_rect,4,0,4,0,1,
6638dceb7a4c777c55da2b23,TCN,2024-06-24_16h34.34.619,LearnStrategy,2023.2.3,Linux x86_64,59.88023952,1,2,6,,,,,,,,7,05,,,,,,,,,,,7,38.517,1,,,,,,0.094484806,-0.406687101,1,0,0,38.5167,Peridotite_rect,5,0,5,0,1,
6638dceb7a4c777c55da2b23,TCN,2024-06-24_16h34.34.619,LearnStrategy,2023.2.3,Linux x86_64,59.88023952,1,2,7,,,,,,,,1,14,,,,,,,,,,,6,57.318,0,,,,,,-0.080723047,-0.414704879,1,0,0,57.3176,Pegmatite_rect,6,0,6,0,1,
6638dceb7a4c777c55da2b23,TCN,2024-06-24_16h34.34.619,LearnStrategy,2023.2.3,Linux x86_64,59.88023952,1,2,8,,,,,,,,8,13,,,,,,,,,,,8,30.708,1,,,,,,0.354458968,-0.387968222,1,0,0,30.7076,Pumice_rect,7,0,7,0,1,
6638dceb7a4c777c55da2b23,TCN,2024-06-24_16h34.34.619,LearnStrategy,2023.2.3,Linux x86_64,59.88023952,1,2,9,,,,,,,,3,10,,,,,,,,,,,3,24.289,1,,,,,,0.080857038,-0.267948071,1,0,0,24.289,Diorite_rect,8,0,8,0,1,
6638dceb7a4c777c55da2b23,TCN,2024-06-24_16h34.34.619,LearnStrategy,2023.2.3,Linux x86_64,59.88023952,1,2,10,,,,,,,,8,04,,,,,,,,,,,8,2.475,1,,,,,,0.368699233,-0.4022367,1,0,0,2.4751,Pumice_rect,9,0,9,0,1,
6638dceb7a4c777c55da2b23,TCN,2024-06-24_16h34.34.619,LearnStrategy,2023.2.3,Linux x86_64,59.88023952,1,2,11,,,,,,,,4,03,,,,,,,,,,,4,11.016,1,,,,,,0.416433175,-0.25821511,1,0,0,11.0163,Gabbro_rect,10,0,10,0,1,
6638dceb7a4c777c55da2b23,TCN,2024-06-24_16h34.34.619,LearnStrategy,2023.2.3,Linux x86_64,59.88023952,1,2,12,,,,,,,,6,05,,,,,,,,,,,6,9.27,1,,,,,,-0.118148565,-0.412287792,1,0,0,9.2704,Pegmatite_rect,11,0,11,0,1,
6638dceb7a4c777c55da2b23,TCN,2024-06-24_16h34.34.619,LearnStrategy,2023.2.3,Linux x86_64,59.88023952,1,2,13,,,,,,,,2,06,,,,,,,,,,,5,5.954,0,,,,,,-0.396179358,-0.411051989,1,0,0,5.9544,Obsidian_rect,12,0,12,0,1,
6638dceb7a4c777c55da2b23,TCN,2024-06-24_16h34.34.619,LearnStrategy,2023.2.3,Linux x86_64,59.88023952,1,2,14,,,,,,,,7,08,,,,,,,,,,,7,13.015,1,,,,,,0.106080612,-0.388064464,1,0,0,13.0155,Peridotite_rect,13,0,13,0,1,
6638dceb7a4c777c55da2b23,TCN,2024-06-24_16h34.34.619,LearnStrategy,2023.2.3,Linux x86_64,59.88023952,1,2,15,,,,,,,,3,06,,,,,,,,,,,4,27.132,0,,,,,,0.305861235,-0.257167975,1,0,0,27.1316,Gabbro_rect,14,0,14,0,1,
6638dceb7a4c777c55da2b23,TCN,2024-06-24_16h34.34.619,LearnStrategy,2023.2.3,Linux x86_64,59.88023952,1,2,16,,,,,,,,5,05,,,,,,,,,,,5,4.941,1,,,,,,-0.326565544,-0.409069935,1,0,0,4.9413,Obsidian_rect,15,0,15,0,1,
6638dceb7a4c777c55da2b23,TCN,2024-06-24_16h34.34.619,LearnStrategy,2023.2.3,Linux x86_64,59.88023952,2,1,1,0.050706228,-0.00451986,1,0,0,2.9205,rock_grid_rect_2,2,01,-1,-1,2.92,-0.09245046,-0.23312815,1,0,0,3.0005,Basalt_rect,2,3.001,1,0,0,0,0,1,,,,,,,,,,,,,
6638dceb7a4c777c55da2b23,TCN,2024-06-24_16h34.34.619,LearnStrategy,2023.2.3,Linux x86_64,59.88023952,2,1,2,-0.016045411,-0.012475332,1,0,0,4.0307,rock_grid_rect_2,1,11,-1,-1,4.031,-0.352958441,-0.246948401,1,0,0,34.0116,Andesite_rect,1,34.012,1,1,0,1,0,1,,,,,,,,,,,,,
6638dceb7a4c777c55da2b23,TCN,2024-06-24_16h34.34.619,LearnStrategy,2023.2.3,Linux x86_64,59.88023952,2,1,3,0.061575015,-0.005307873,1,0,0,1.537,rock_grid_rect_2,5,02,-1,-1,1.537,-0.347689072,-0.389980078,1,0,0,1.5749,Obsidian_rect,5,1.575,1,2,0,2,0,1,,,,,,,,,,,,,
6638dceb7a4c777c55da2b23,TCN,2024-06-24_16h34.34.619,LearnStrategy,2023.2.3,Linux x86_64,59.88023952,2,1,4,0.014955997,-0.000827511,1,0,0,2.0037,rock_grid_rect_2,7,07,-1,-1,2.004,0.128123681,-0.40701731,1,0,0,10.1861,Peridotite_rect,7,10.186,1,3,0,3,0,1,,,,,,,,,,,,,
6638dceb7a4c777c55da2b23,TCN,2024-06-24_16h34.34.619,LearnStrategy,2023.2.3,Linux x86_64,59.88023952,2,1,5,0.024527709,-0.015606165,1,0,0,1.6307,rock_grid_rect_2,3,12,-1,-1,1.631,0.131748676,-0.243941545,1,0,0,90.5904,Diorite_rect,3,90.59,1,4,0,4,0,1,,,,,,,,,,,,,
6638dceb7a4c777c55da2b23,TCN,2024-06-24_16h34.34.619,LearnStrategy,2023.2.3,Linux x86_64,59.88023952,2,1,6,-0.005753915,-0.004678488,1,0,0,1.3036,rock_grid_rect_2,4,05,-1,-1,1.304,0.38832744,-0.229284684,1,0,0,21.344,Gabbro_rect,4,21.344,1,5,0,5,0,1,,,,,,,,,,,,,
6638dceb7a4c777c55da2b23,TCN,2024-06-24_16h34.34.619,LearnStrategy,2023.2.3,Linux x86_64,59.88023952,2,1,7,0.019762198,-0.011165301,1,0,0,1.8341,rock_grid_rect_2,3,11,-1,-1,1.834,0.157649438,-0.246633768,1,0,0,23.2613,Diorite_rect,3,23.261,1,6,0,6,0,1,,,,,,,,,,,,,
6638dceb7a4c777c55da2b23,TCN,2024-06-24_16h34.34.619,LearnStrategy,2023.2.3,Linux x86_64,59.88023952,2,1,8,0.062110424,-0.003204981,1,0,0,1.4449,rock_grid_rect_2,8,14,-1,-1,1.445,0.411781867,-0.406455835,1,0,0,1.7991,Pumice_rect,8,1.799,1,7,0,7,0,1,,,,,,,,,,,,,
6638dceb7a4c777c55da2b23,TCN,2024-06-24_16h34.34.619,LearnStrategy,2023.2.3,Linux x86_64,59.88023952,2,1,9,0.016463757,-0.014659007,1,0,0,1.6051,rock_grid_rect_2,4,12,-1,-1,1.605,-0.341515064,-0.26228714,1,0,0,21.6754,Andesite_rect,1,21.675,0,8,0,8,0,1,,,,,,,,,,,,,
6638dceb7a4c777c55da2b23,TCN,2024-06-24_16h34.34.619,LearnStrategy,2023.2.3,Linux x86_64,59.88023952,2,1,10,-0.008746862,-0.011954943,1,0,0,2.0921,rock_grid_rect_2,8,06,-1,-1,2.092,0.413148483,-0.391515017,1,0,0,4.687,Pumice_rect,8,4.687,1,9,0,9,0,1,,,,,,,,,,,,,
6638dceb7a4c777c55da2b23,TCN,2024-06-24_16h34.34.619,LearnStrategy,2023.2.3,Linux x86_64,59.88023952,2,1,11,0.017268896,-0.002297481,1,0,0,2.6195,rock_grid_rect_2,1,05,-1,-1,2.619,-0.096638521,-0.408324083,1,0,0,146.1588,Pegmatite_rect,6,146.159,0,10,0,10,0,1,,,,,,,,,,,,,
6638dceb7a4c777c55da2b23,TCN,2024-06-24_16h34.34.619,LearnStrategy,2023.2.3,Linux x86_64,59.88023952,2,1,12,0.053684076,0.002711693,1,0,0,1.4772,rock_grid_rect_2,6,16,-1,-1,1.477,-0.1266493,-0.404180606,1,0,0,15.1147,Pegmatite_rect,6,15.115,1,11,0,11,0,1,,,,,,,,,,,,,
6638dceb7a4c777c55da2b23,TCN,2024-06-24_16h34.34.619,LearnStrategy,2023.2.3,Linux x86_64,59.88023952,2,1,13,0.028695107,-0.008738796,1,0,0,2.0119,rock_grid_rect_2,5,09,-1,-1,2.012,-0.345907966,-0.390924613,1,0,0,2.131,Obsidian_rect,5,2.131,1,12,0,12,0,1,,,,,,,,,,,,,
6638dceb7a4c777c55da2b23,TCN,2024-06-24_16h34.34.619,LearnStrategy,2023.2.3,Linux x86_64,59.88023952,2,1,14,0.019574006,0.003404856,1,0,0,1.5552,rock_grid_rect_2,7,13,-1,-1,1.555,-0.352431615,-0.237080812,1,0,0,6.1316,Andesite_rect,1,6.132,0,13,0,13,0,1,,,,,,,,,,,,,
6638dceb7a4c777c55da2b23,TCN,2024-06-24_16h34.34.619,LearnStrategy,2023.2.3,Linux x86_64,59.88023952,2,1,15,-0.010354916,-0.000402689,1,0,0,2.645,rock_grid_rect_2,2,08,-1,-1,2.645,-0.052663247,-0.228728374,1,0,0,4.572,Basalt_rect,2,4.572,1,14,0,14,0,1,,,,,,,,,,,,,
6638dceb7a4c777c55da2b23,TCN,2024-06-24_16h34.34.619,LearnStrategy,2023.2.3,Linux x86_64,59.88023952,2,1,16,0.032944361,-0.006996751,1,0,0,2.4195,rock_grid_rect_2,6,07,-1,-1,2.419,-0.064553499,-0.401430289,1,0,0,11.4705,Pegmatite_rect,6,11.471,1,15,0,15,0,1,,,,,,,,,,,,,
6638dceb7a4c777c55da2b23,TCN,2024-06-24_16h34.34.619,LearnStrategy,2023.2.3,Linux x86_64,59.88023952,2,2,1,,,,,,,,5,04,,,,,,,,,,,5,3.388,1,,,,,,-0.330054363,-0.404107968,1,0,0,3.3878,Obsidian_rect,0,0,0,0,1,
6638dceb7a4c777c55da2b23,TCN,2024-06-24_16h34.34.619,LearnStrategy,2023.2.3,Linux x86_64,59.88023952,2,2,2,,,,,,,,2,16,,,,,,,,,,,2,2.796,1,,,,,,-0.205179532,-0.264507929,1,0,0,2.7958,Basalt_rect,1,0,1,0,1,
6638dceb7a4c777c55da2b23,TCN,2024-06-24_16h34.34.619,LearnStrategy,2023.2.3,Linux x86_64,59.88023952,2,2,3,,,,,,,,8,10,,,,,,,,,,,8,2.151,1,,,,,,0.373446465,-0.41651384,1,0,0,2.1507,Pumice_rect,2,0,2,0,1,
6638dceb7a4c777c55da2b23,TCN,2024-06-24_16h34.34.619,LearnStrategy,2023.2.3,Linux x86_64,59.88023952,2,2,4,,,,,,,,6,10,,,,,,,,,,,7,12.758,0,,,,,,0.126026154,-0.410143773,1,0,0,12.7575,Peridotite_rect,3,0,3,0,1,
6638dceb7a4c777c55da2b23,TCN,2024-06-24_16h34.34.619,LearnStrategy,2023.2.3,Linux x86_64,59.88023952,2,2,5,,,,,,,,1,01,,,,,,,,,,,5,8.23,0,,,,,,-0.350485166,-0.419349194,1,0,0,8.2303,Obsidian_rect,4,0,4,0,1,
6638dceb7a4c777c55da2b23,TCN,2024-06-24_16h34.34.619,LearnStrategy,2023.2.3,Linux x86_64,59.88023952,2,2,6,,,,,,,,7,02,,,,,,,,,,,7,41.534,1,,,,,,0.093491157,-0.419316133,1,0,0,41.5336,Peridotite_rect,5,0,5,0,1,
6638dceb7a4c777c55da2b23,TCN,2024-06-24_16h34.34.619,LearnStrategy,2023.2.3,Linux x86_64,59.88023952,2,2,7,,,,,,,,1,02,,,,,,,,,,,1,23.926,1,,,,,,-0.365928094,-0.262704134,1,0,0,23.9257,Andesite_rect,6,0,6,0,1,
6638dceb7a4c777c55da2b23,TCN,2024-06-24_16h34.34.619,LearnStrategy,2023.2.3,Linux x86_64,59.88023952,2,2,8,,,,,,,,8,08,,,,,,,,,,,8,43.536,1,,,,,,0.382946253,-0.403825363,1,0,0,43.5362,Pumice_rect,7,0,7,0,1,
6638dceb7a4c777c55da2b23,TCN,2024-06-24_16h34.34.619,LearnStrategy,2023.2.3,Linux x86_64,59.88023952,2,2,9,,,,,,,,3,02,,,,,,,,,,,4,43.232,0,,,,,,0.343641996,-0.250834942,1,0,0,43.2325,Gabbro_rect,8,0,8,0,1,
6638dceb7a4c777c55da2b23,TCN,2024-06-24_16h34.34.619,LearnStrategy,2023.2.3,Linux x86_64,59.88023952,2,2,10,,,,,,,,6,12,,,,,,,,,,,6,55.954,1,,,,,,-0.109181484,-0.395382007,1,0,0,55.9536,Pegmatite_rect,9,0,9,0,1,
6638dceb7a4c777c55da2b23,TCN,2024-06-24_16h34.34.619,LearnStrategy,2023.2.3,Linux x86_64,59.88023952,2,2,11,,,,,,,,3,13,,,,,,,,,,,3,36.82,1,,,,,,0.105879625,-0.253449599,1,0,0,36.8195,Diorite_rect,10,0,10,0,1,
6638dceb7a4c777c55da2b23,TCN,2024-06-24_16h34.34.619,LearnStrategy,2023.2.3,Linux x86_64,59.88023952,2,2,12,,,,,,,,7,16,,,,,,,,,,,5,51.908,0,,,,,,-0.341819326,-0.394907395,1,0,0,51.9082,Obsidian_rect,11,0,11,0,1,
6638dceb7a4c777c55da2b23,TCN,2024-06-24_16h34.34.619,LearnStrategy,2023.2.3,Linux x86_64,59.88023952,2,2,13,,,,,,,,4,14,,,,,,,,,,,1,30.176,0,,,,,,-0.403662324,-0.26252079,1,0,0,30.1759,Andesite_rect,12,0,12,0,1,
6638dceb7a4c777c55da2b23,TCN,2024-06-24_16h34.34.619,LearnStrategy,2023.2.3,Linux x86_64,59.88023952,2,2,14,,,,,,,,2,11,,,,,,,,,,,8,11.547,0,,,,,,0.385678848,-0.405993859,1,0,0,11.5474,Pumice_rect,13,0,13,0,1,
6638dceb7a4c777c55da2b23,TCN,2024-06-24_16h34.34.619,LearnStrategy,2023.2.3,Linux x86_64,59.88023952,2,2,15,,,,,,,,5,06,,,,,,,,,,,5,1.647,1,,,,,,-0.348550876,-0.395608187,1,0,0,1.6474,Obsidian_rect,14,0,14,0,1,
6638dceb7a4c777c55da2b23,TCN,2024-06-24_16h34.34.619,LearnStrategy,2023.2.3,Linux x86_64,59.88023952,2,2,16,,,,,,,,4,09,,,,,,,,,,,1,47.302,0,,,,,,-0.447575927,-0.25348409,1,0,0,47.3017,Andesite_rect,15,0,15,0,1,
6638dceb7a4c777c55da2b23,TCN,2024-06-24_16h34.34.619,LearnStrategy,2023.2.3,Linux x86_64,59.88023952,3,1,1,0.008551439,-0.002394636,1,0,0,2.9534,rock_grid_rect_2,7,15,-1,-1,2.953,0.116208474,-0.397104581,1,0,0,11.253,Peridotite_rect,7,11.253,1,0,0,0,0,1,,,,,,,,,,,,,
6638dceb7a4c777c55da2b23,TCN,2024-06-24_16h34.34.619,LearnStrategy,2023.2.3,Linux x86_64,59.88023952,3,1,2,0.029359738,-0.005674958,1,0,0,1.9338,rock_grid_rect_2,4,10,-1,-1,1.934,-0.323835929,-0.228786786,1,0,0,3.5699,Andesite_rect,1,3.57,0,1,0,1,0,1,,,,,,,,,,,,,
6638dceb7a4c777c55da2b23,TCN,2024-06-24_16h34.34.619,LearnStrategy,2023.2.3,Linux x86_64,59.88023952,3,1,3,0.002117316,-0.005347967,1,0,0,1.8425,rock_grid_rect_2,8,15,-1,-1,1.842,0.382745425,-0.3957359,1,0,0,2.4267,Pumice_rect,8,2.427,1,2,0,2,0,1,,,,,,,,,,,,,
6638dceb7a4c777c55da2b23,TCN,2024-06-24_16h34.34.619,LearnStrategy,2023.2.3,Linux x86_64,59.88023952,3,1,4,-0.027781566,-0.007744431,1,0,0,2.1307,rock_grid_rect_2,3,09,-1,-1,2.131,-0.117800236,-0.402107954,1,0,0,39.6914,Pegmatite_rect,6,39.691,0,3,0,3,0,1,,,,,,,,,,,,,
6638dceb7a4c777c55da2b23,TCN,2024-06-24_16h34.34.619,LearnStrategy,2023.2.3,Linux x86_64,59.88023952,3,1,5,0.028519233,0.001653035,1,0,0,1.4686,rock_grid_rect_2,5,11,-1,-1,1.469,-0.376523097,-0.408039967,1,0,0,1.3561,Obsidian_rect,5,1.356,1,4,0,4,0,1,,,,,,,,,,,,,
6638dceb7a4c777c55da2b23,TCN,2024-06-24_16h34.34.619,LearnStrategy,2023.2.3,Linux x86_64,59.88023952,3,1,6,-0.004050891,-0.009806395,1,0,0,1.1718,rock_grid_rect_2,6,09,-1,-1,1.172,0.138433615,-0.241038481,1,0,0,2.4084,Diorite_rect,3,2.408,0,5,0,5,0,1,,,,,,,,,,,,,
6638dceb7a4c777c55da2b23,TCN,2024-06-24_16h34.34.619,LearnStrategy,2023.2.3,Linux x86_64,59.88023952,3,1,7,0.02529343,0.000306845,1,0,0,1.7067,rock_grid_rect_2,5,10,-1,-1,1.707,-0.387275497,-0.394824266,1,0,0,1.4568,Obsidian_rect,5,1.457,1,6,0,6,0,1,,,,,,,,,,,,,
6638dceb7a4c777c55da2b23,TCN,2024-06-24_16h34.34.619,LearnStrategy,2023.2.3,Linux x86_64,59.88023952,3,1,8,0.036480029,-0.006546458,1,0,0,1.9048,rock_grid_rect_2,8,03,-1,-1,1.905,0.382041216,-0.407681147,1,0,0,1.5041,Pumice_rect,8,1.504,1,7,0,7,0,1,,,,,,,,,,,,,
6638dceb7a4c777c55da2b23,TCN,2024-06-24_16h34.34.619,LearnStrategy,2023.2.3,Linux x86_64,59.88023952,3,1,9,0.015061061,-0.005268852,1,0,0,1.5888,rock_grid_rect_2,3,08,-1,-1,1.589,-0.354974031,-0.24054869,1,0,0,12.7939,Andesite_rect,1,12.794,0,8,0,8,0,1,,,,,,,,,,,,,
6638dceb7a4c777c55da2b23,TCN,2024-06-24_16h34.34.619,LearnStrategy,2023.2.3,Linux x86_64,59.88023952,3,1,10,-0.026802699,-0.006075342,1,0,0,1.5423,rock_grid_rect_2,2,14,-1,-1,1.542,-0.343306224,-0.249848843,1,0,0,8.5805,Andesite_rect,1,8.581,0,9,0,9,0,1,,,,,,,,,,,,,
6638dceb7a4c777c55da2b23,TCN,2024-06-24_16h34.34.619,LearnStrategy,2023.2.3,Linux x86_64,59.88023952,3,1,11,-0.000770171,-0.019299507,1,0,0,1.9534,rock_grid_rect_2,7,04,-1,-1,1.953,-0.41045626,-0.240847826,1,0,0,25.8553,Andesite_rect,1,25.855,0,10,0,10,0,1,,,,,,,,,,,,,
6638dceb7a4c777c55da2b23,TCN,2024-06-24_16h34.34.619,LearnStrategy,2023.2.3,Linux x86_64,59.88023952,3,1,12,0.015080929,-0.015780369,1,0,0,1.5133,rock_grid_rect_2,1,07,-1,-1,1.513,0.206412554,-0.257582744,1,0,0,14.3647,Diorite_rect,3,14.365,0,11,0,11,0,1,,,,,,,,,,,,,
6638dceb7a4c777c55da2b23,TCN,2024-06-24_16h34.34.619,LearnStrategy,2023.2.3,Linux x86_64,59.88023952,3,1,13,0.035942713,0.006244898,1,0,0,1.3327,rock_grid_rect_2,6,15,-1,-1,1.333,0.118899425,-0.238289197,1,0,0,5.6975,Diorite_rect,3,5.697,0,12,0,12,0,1,,,,,,,,,,,,,
6638dceb7a4c777c55da2b23,TCN,2024-06-24_16h34.34.619,LearnStrategy,2023.2.3,Linux x86_64,59.88023952,3,1,14,0.011557341,-0.012471875,1,0,0,2.1335,rock_grid_rect_2,1,04,-1,-1,2.133,-0.391630689,-0.230163574,1,0,0,3.8185,Andesite_rect,1,3.818,1,13,0,13,0,1,,,,,,,,,,,,,
6638dceb7a4c777c55da2b23,TCN,2024-06-24_16h34.34.619,LearnStrategy,2023.2.3,Linux x86_64,59.88023952,3,1,15,0.027811766,-0.003553391,1,0,0,1.9305,rock_grid_rect_2,4,01,-1,-1,1.931,0.110905886,-0.25284036,1,0,0,17.2605,Diorite_rect,3,17.261,0,14,0,14,0,1,,,,,,,,,,,,,
6638dceb7a4c777c55da2b23,TCN,2024-06-24_16h34.34.619,LearnStrategy,2023.2.3,Linux x86_64,59.88023952,3,1,16,0.007464568,0.004686594,1,0,0,2.0012,rock_grid_rect_2,2,10,-1,-1,2.001,-0.128350337,-0.244701465,1,0,0,5.9962,Basalt_rect,2,5.996,1,15,0,15,0,1,,,,,,,,,,,,,
6638dceb7a4c777c55da2b23,TCN,2024-06-24_16h34.34.619,LearnStrategy,2023.2.3,Linux x86_64,59.88023952,3,2,1,,,,,,,,3,16,,,,,,,,,,,3,15.187,1,,,,,,0.100561539,-0.263730923,1,0,0,15.1871,Diorite_rect,0,0,0,0,1,
6638dceb7a4c777c55da2b23,TCN,2024-06-24_16h34.34.619,LearnStrategy,2023.2.3,Linux x86_64,59.88023952,3,2,2,,,,,,,,5,16,,,,,,,,,,,5,1.567,1,,,,,,-0.441534162,-0.401863893,1,0,0,1.567,Obsidian_rect,1,0,1,0,1,
6638dceb7a4c777c55da2b23,TCN,2024-06-24_16h34.34.619,LearnStrategy,2023.2.3,Linux x86_64,59.88023952,3,2,3,,,,,,,,8,05,,,,,,,,,,,8,1.684,1,,,,,,0.363111019,-0.411573887,1,0,0,1.6839,Pumice_rect,2,0,2,0,1,
6638dceb7a4c777c55da2b23,TCN,2024-06-24_16h34.34.619,LearnStrategy,2023.2.3,Linux x86_64,59.88023952,3,2,4,,,,,,,,2,04,,,,,,,,,,,2,105.079,1,,,,,,-0.168024699,-0.252855778,1,0,0,105.0791,Basalt_rect,3,0,3,0,1,
6638dceb7a4c777c55da2b23,TCN,2024-06-24_16h34.34.619,LearnStrategy,2023.2.3,Linux x86_64,59.88023952,3,2,5,,,,,,,,4,11,,,,,,,,,,,1,28.625,0,,,,,,-0.391068419,-0.253385305,1,0,0,28.6251,Andesite_rect,4,0,4,0,1,
6638dceb7a4c777c55da2b23,TCN,2024-06-24_16h34.34.619,LearnStrategy,2023.2.3,Linux x86_64,59.88023952,3,2,6,,,,,,,,6,11,,,,,,,,,,,6,9.611,1,,,,,,-0.098346392,-0.398633083,1,0,0,9.6115,Pegmatite_rect,5,0,5,0,1,
6638dceb7a4c777c55da2b23,TCN,2024-06-24_16h34.34.619,LearnStrategy,2023.2.3,Linux x86_64,59.88023952,3,2,7,,,,,,,,7,12,,,,,,,,,,,3,14.898,0,,,,,,0.099810044,-0.254400412,1,0,0,14.8983,Diorite_rect,6,0,6,0,1,
6638dceb7a4c777c55da2b23,TCN,2024-06-24_16h34.34.619,LearnStrategy,2023.2.3,Linux x86_64,59.88023952,3,2,8,,,,,,,,8,09,,,,,,,,,,,8,1.972,1,,,,,,0.380455812,-0.408005238,1,0,0,1.9721,Pumice_rect,7,0,7,0,1,
6638dceb7a4c777c55da2b23,TCN,2024-06-24_16h34.34.619,LearnStrategy,2023.2.3,Linux x86_64,59.88023952,3,2,9,,,,,,,,7,06,,,,,,,,,,,6,23.76,0,,,,,,-0.076384783,-0.405758381,1,0,0,23.7599,Pegmatite_rect,8,0,8,0,1,
6638dceb7a4c777c55da2b23,TCN,2024-06-24_16h34.34.619,LearnStrategy,2023.2.3,Linux x86_64,59.88023952,3,2,10,,,,,,,,3,07,,,,,,,,,,,3,43.384,1,,,,,,0.116110086,-0.255803267,1,0,0,43.3841,Diorite_rect,9,0,9,0,1,
6638dceb7a4c777c55da2b23,TCN,2024-06-24_16h34.34.619,LearnStrategy,2023.2.3,Linux x86_64,59.88023952,3,2,11,,,,,,,,1,06,,,,,,,,,,,4,94.557,0,,,,,,0.380792459,-0.25985678,1,0,0,94.5573,Gabbro_rect,10,0,10,0,1,
6638dceb7a4c777c55da2b23,TCN,2024-06-24_16h34.34.619,LearnStrategy,2023.2.3,Linux x86_64,59.88023952,3,2,12,,,,,,,,1,09,,,,,,,,,,,1,39.846,1,,,,,,-0.362449845,-0.234229883,1,0,0,39.846,Andesite_rect,11,0,11,0,1,
6638dceb7a4c777c55da2b23,TCN,2024-06-24_16h34.34.619,LearnStrategy,2023.2.3,Linux x86_64,59.88023952,3,2,13,,,,,,,,5,12,,,,,,,,,,,5,1.357,1,,,,,,-0.343580882,-0.394860665,1,0,0,1.3566,Obsidian_rect,12,0,12,0,1,
6638dceb7a4c777c55da2b23,TCN,2024-06-24_16h34.34.619,LearnStrategy,2023.2.3,Linux x86_64,59.88023952,3,2,14,,,,,,,,6,03,,,,,,,,,,,6,13.107,1,,,,,,-0.173992872,-0.410322984,1,0,0,13.1068,Pegmatite_rect,13,0,13,0,1,
6638dceb7a4c777c55da2b23,TCN,2024-06-24_16h34.34.619,LearnStrategy,2023.2.3,Linux x86_64,59.88023952,3,2,15,,,,,,,,2,12,,,,,,,,,,,2,93.305,1,,,,,,-0.090078592,-0.249063015,1,0,0,93.305,Basalt_rect,14,0,14,0,1,
6638dceb7a4c777c55da2b23,TCN,2024-06-24_16h34.34.619,LearnStrategy,2023.2.3,Linux x86_64,59.88023952,3,2,16,,,,,,,,4,16,,,,,,,,,,,5,25.052,0,,,,,,-0.346226652,-0.383515278,1,0,0,25.0519,Obsidian_rect,15,0,15,0,1,
6638dceb7a4c777c55da2b23,TCN,2024-06-24_16h34.34.619,LearnStrategy,2023.2.3,Linux x86_64,59.88023952,4,1,1,0.101632436,-0.001295964,1,0,0,3.3398,rock_grid_rect_2,4,08,-1,-1,3.34,-0.133696715,-0.250776688,1,0,0,10.3617,Basalt_rect,2,10.362,0,0,0,0,0,1,,,,,,,,,,,,,
6638dceb7a4c777c55da2b23,TCN,2024-06-24_16h34.34.619,LearnStrategy,2023.2.3,Linux x86_64,59.88023952,4,1,2,0.01053071,-0.002649943,1,0,0,1.9308,rock_grid_rect_2,1,07,-1,-1,1.931,-0.349475145,-0.256995916,1,0,0,10.7399,Andesite_rect,1,10.74,1,1,0,1,0,1,,,,,,,,,,,,,
6638dceb7a4c777c55da2b23,TCN,2024-06-24_16h34.34.619,LearnStrategy,2023.2.3,Linux x86_64,59.88023952,4,1,3,0.041153272,-0.010503252,1,0,0,1.4389,rock_grid_rect_2,2,09,-1,-1,1.439,-0.129666805,-0.254843235,1,0,0,1.6378,Basalt_rect,2,1.638,1,2,0,2,0,1,,,,,,,,,,,,,
6638dceb7a4c777c55da2b23,TCN,2024-06-24_16h34.34.619,LearnStrategy,2023.2.3,Linux x86_64,59.88023952,4,1,4,0.054178953,-0.003990491,1,0,0,1.2221,rock_grid_rect_2,5,09,-1,-1,1.222,-0.426697493,-0.381877343,1,0,0,1.2198,Obsidian_rect,5,1.22,1,3,0,3,0,1,,,,,,,,,,,,,
6638dceb7a4c777c55da2b23,TCN,2024-06-24_16h34.34.619,LearnStrategy,2023.2.3,Linux x86_64,59.88023952,4,1,5,-0.00793465,0.008506219,1,0,0,1.339,rock_grid_rect_2,8,16,-1,-1,1.339,0.438853025,-0.400761525,1,0,0,1.9955,Pumice_rect,8,1.995,1,4,0,4,0,1,,,,,,,,,,,,,
6638dceb7a4c777c55da2b23,TCN,2024-06-24_16h34.34.619,LearnStrategy,2023.2.3,Linux x86_64,59.88023952,4,1,6,0.032969554,-0.004159768,1,0,0,1.772,rock_grid_rect_2,2,14,-1,-1,1.772,-0.20209829,-0.247731606,1,0,0,8.5095,Basalt_rect,2,8.509,1,5,0,5,0,1,,,,,,,,,,,,,
6638dceb7a4c777c55da2b23,TCN,2024-06-24_16h34.34.619,LearnStrategy,2023.2.3,Linux x86_64,59.88023952,4,1,7,-0.074386835,-0.022938768,1,0,0,1.2231,rock_grid_rect_2,8,15,-1,-1,1.223,0.36670049,-0.402148088,1,0,0,1.5818,Pumice_rect,8,1.582,1,6,0,6,0,1,,,,,,,,,,,,,
6638dceb7a4c777c55da2b23,TCN,2024-06-24_16h34.34.619,LearnStrategy,2023.2.3,Linux x86_64,59.88023952,4,1,8,0.013272047,0.002407392,1,0,0,2.1559,rock_grid_rect_2,5,07,-1,-1,2.156,-0.340585033,-0.400677601,1,0,0,1.6562,Obsidian_rect,5,1.656,1,7,0,7,0,1,,,,,,,,,,,,,
6638dceb7a4c777c55da2b23,TCN,2024-06-24_16h34.34.619,LearnStrategy,2023.2.3,Linux x86_64,59.88023952,4,1,9,-0.017810583,0.001196941,1,0,0,1.2578,rock_grid_rect_2,4,15,-1,-1,1.258,-0.353320003,-0.259109735,1,0,0,4.2173,Andesite_rect,1,4.217,0,8,0,8,0,1,,,,,,,,,,,,,
6638dceb7a4c777c55da2b23,TCN,2024-06-24_16h34.34.619,LearnStrategy,2023.2.3,Linux x86_64,59.88023952,4,1,10,0.063951572,-0.002002597,1,0,0,1.1886,rock_grid_rect_2,7,10,-1,-1,1.189,0.182626883,-0.413692633,1,0,0,2.9306,Peridotite_rect,7,2.931,1,9,0,9,0,1,,,,,,,,,,,,,
6638dceb7a4c777c55da2b23,TCN,2024-06-24_16h34.34.619,LearnStrategy,2023.2.3,Linux x86_64,59.88023952,4,1,11,0.035597006,-0.005641063,1,0,0,1.8506,rock_grid_rect_2,6,13,-1,-1,1.851,0.120099386,-0.245217005,1,0,0,2.5673,Diorite_rect,3,2.567,0,10,0,10,0,1,,,,,,,,,,,,,
6638dceb7a4c777c55da2b23,TCN,2024-06-24_16h34.34.619,LearnStrategy,2023.2.3,Linux x86_64,59.88023952,4,1,12,0.042701006,0.003778338,1,0,0,1.284,rock_grid_rect_2,3,14,-1,-1,1.284,0.113882542,-0.251529217,1,0,0,2.7946,Diorite_rect,3,2.795,1,11,0,11,0,1,,,,,,,,,,,,,
6638dceb7a4c777c55da2b23,TCN,2024-06-24_16h34.34.619,LearnStrategy,2023.2.3,Linux x86_64,59.88023952,4,1,13,0.004146099,0.004076958,1,0,0,1.272,rock_grid_rect_2,1,16,-1,-1,1.272,0.30567646,-0.265694141,1,0,0,8.7863,Gabbro_rect,4,8.786,0,12,0,12,0,1,,,,,,,,,,,,,
6638dceb7a4c777c55da2b23,TCN,2024-06-24_16h34.34.619,LearnStrategy,2023.2.3,Linux x86_64,59.88023952,4,1,14,0.102278471,-0.020729224,1,0,0,1.6691,rock_grid_rect_2,3,09,-1,-1,1.669,0.123923302,-0.233534177,1,0,0,1.5534,Diorite_rect,3,1.553,1,13,0,13,0,1,,,,,,,,,,,,,
6638dceb7a4c777c55da2b23,TCN,2024-06-24_16h34.34.619,LearnStrategy,2023.2.3,Linux x86_64,59.88023952,4,1,15,0.02147603,-0.00318559,1,0,0,1.085,rock_grid_rect_2,7,15,-1,-1,1.085,0.141673009,-0.416549842,1,0,0,2.2408,Peridotite_rect,7,2.241,1,14,0,14,0,1,,,,,,,,,,,,,
6638dceb7a4c777c55da2b23,TCN,2024-06-24_16h34.34.619,LearnStrategy,2023.2.3,Linux x86_64,59.88023952,4,1,16,0.019379218,0.010592024,1,0,0,1.0829,rock_grid_rect_2,6,15,-1,-1,1.083,-0.127238512,-0.411419789,1,0,0,1.2085,Pegmatite_rect,6,1.208,1,15,0,15,0,1,,,,,,,,,,,,,
6638dceb7a4c777c55da2b23,TCN,2024-06-24_16h34.34.619,LearnStrategy,2023.2.3,Linux x86_64,59.88023952,4,2,1,,,,,,,,1,06,,,,,,,,,,,4,20.293,0,,,,,,0.393442154,-0.245071093,1,0,0,20.2929,Gabbro_rect,0,0,0,0,1,
6638dceb7a4c777c55da2b23,TCN,2024-06-24_16h34.34.619,LearnStrategy,2023.2.3,Linux x86_64,59.88023952,4,2,2,,,,,,,,8,05,,,,,,,,,,,8,1.459,1,,,,,,0.373700142,-0.399431785,1,0,0,1.4589,Pumice_rect,1,0,1,0,1,
6638dceb7a4c777c55da2b23,TCN,2024-06-24_16h34.34.619,LearnStrategy,2023.2.3,Linux x86_64,59.88023952,4,2,3,,,,,,,,8,13,,,,,,,,,,,8,4.542,1,,,,,,0.383881887,-0.410485347,1,0,0,4.5416,Pumice_rect,2,0,2,0,1,
6638dceb7a4c777c55da2b23,TCN,2024-06-24_16h34.34.619,LearnStrategy,2023.2.3,Linux x86_64,59.88023952,4,2,4,,,,,,,,2,12,,,,,,,,,,,2,15.094,1,,,,,,-0.132081191,-0.267909606,1,0,0,15.0937,Basalt_rect,3,0,3,0,1,
6638dceb7a4c777c55da2b23,TCN,2024-06-24_16h34.34.619,LearnStrategy,2023.2.3,Linux x86_64,59.88023952,4,2,5,,,,,,,,4,09,,,,,,,,,,,5,2.522,0,,,,,,-0.323678255,-0.387726068,1,0,0,2.5217,Obsidian_rect,4,0,4,0,1,
6638dceb7a4c777c55da2b23,TCN,2024-06-24_16h34.34.619,LearnStrategy,2023.2.3,Linux x86_64,59.88023952,4,2,6,,,,,,,,6,08,,,,,,,,,,,6,8.993,1,,,,,,-0.144520124,-0.413988511,1,0,0,8.9929,Pegmatite_rect,5,0,5,0,1,
6638dceb7a4c777c55da2b23,TCN,2024-06-24_16h34.34.619,LearnStrategy,2023.2.3,Linux x86_64,59.88023952,4,2,7,,,,,,,,4,03,,,,,,,,,,,4,6.648,1,,,,,,0.364749273,-0.260797103,1,0,0,6.6478,Gabbro_rect,6,0,6,0,1,
6638dceb7a4c777c55da2b23,TCN,2024-06-24_16h34.34.619,LearnStrategy,2023.2.3,Linux x86_64,59.88023952,4,2,8,,,,,,,,2,05,,,,,,,,,,,2,1.685,1,,,,,,-0.164377133,-0.26007692,1,0,0,1.6853,Basalt_rect,7,0,7,0,1,
6638dceb7a4c777c55da2b23,TCN,2024-06-24_16h34.34.619,LearnStrategy,2023.2.3,Linux x86_64,59.88023952,4,2,9,,,,,,,,3,10,,,,,,,,,,,4,4.749,0,,,,,,0.369584958,-0.24948295,1,0,0,4.7491,Gabbro_rect,8,0,8,0,1,
6638dceb7a4c777c55da2b23,TCN,2024-06-24_16h34.34.619,LearnStrategy,2023.2.3,Linux x86_64,59.88023952,4,2,10,,,,,,,,6,12,,,,,,,,,,,6,54.874,1,,,,,,-0.124375423,-0.398627758,1,0,0,54.8736,Pegmatite_rect,9,0,9,0,1,
6638dceb7a4c777c55da2b23,TCN,2024-06-24_16h34.34.619,LearnStrategy,2023.2.3,Linux x86_64,59.88023952,4,2,11,,,,,,,,7,16,,,,,,,,,,,7,53.435,1,,,,,,0.119369745,-0.416900873,1,0,0,53.4345,Peridotite_rect,10,0,10,0,1,
6638dceb7a4c777c55da2b23,TCN,2024-06-24_16h34.34.619,LearnStrategy,2023.2.3,Linux x86_64,59.88023952,4,2,12,,,,,,,,3,13,,,,,,,,,,,3,12.015,1,,,,,,0.140378873,-0.24360021,1,0,0,12.0151,Diorite_rect,11,0,11,0,1,
6638dceb7a4c777c55da2b23,TCN,2024-06-24_16h34.34.619,LearnStrategy,2023.2.3,Linux x86_64,59.88023952,4,2,13,,,,,,,,5,05,,,,,,,,,,,5,31.757,1,,,,,,-0.417568843,-0.403529565,1,0,0,31.7572,Obsidian_rect,12,0,12,0,1,
6638dceb7a4c777c55da2b23,TCN,2024-06-24_16h34.34.619,LearnStrategy,2023.2.3,Linux x86_64,59.88023952,4,2,14,,,,,,,,5,12,,,,,,,,,,,5,2.088,1,,,,,,-0.417568843,-0.403529565,1,0,0,2.0885,Obsidian_rect,13,0,13,0,1,
6638dceb7a4c777c55da2b23,TCN,2024-06-24_16h34.34.619,LearnStrategy,2023.2.3,Linux x86_64,59.88023952,4,2,15,,,,,,,,1,01,,,,,,,,,,,1,34.014,1,,,,,,-0.370086153,-0.266441186,1,0,0,34.0142,Andesite_rect,14,0,14,0,1,
6638dceb7a4c777c55da2b23,TCN,2024-06-24_16h34.34.619,LearnStrategy,2023.2.3,Linux x86_64,59.88023952,4,2,16,,,,,,,,7,06,,,,,,,,,,,6,65.993,0,,,,,,-0.13794597,-0.407006343,1,0,0,65.9929,Pegmatite_rect,15,0,15,0,1,
6638dceb7a4c777c55da2b23,TCN,2024-06-24_16h34.34.619,LearnStrategy,2023.2.3,Linux x86_64,59.88023952,5,1,1,0.072272301,0.007124782,1,0,0,2.2377,rock_grid_rect_2,5,10,-1,-1,2.238,-0.377074957,-0.403819799,1,0,0,1.3195,Obsidian_rect,5,1.32,1,0,0,0,0,1,,,,,,,,,,,,,
6638dceb7a4c777c55da2b23,TCN,2024-06-24_16h34.34.619,LearnStrategy,2023.2.3,Linux x86_64,59.88023952,5,1,2,0.03567179,0.00078253,1,0,0,1.2555,rock_grid_rect_2,4,05,-1,-1,1.256,-0.332133611,-0.228409847,1,0,0,4.572,Andesite_rect,1,4.572,0,1,0,1,0,1,,,,,,,,,,,,,
6638dceb7a4c777c55da2b23,TCN,2024-06-24_16h34.34.619,LearnStrategy,2023.2.3,Linux x86_64,59.88023952,5,1,3,0.086453199,0.015205582,1,0,0,1.4719,rock_grid_rect_2,7,04,-1,-1,1.472,0.094635407,-0.406273365,1,0,0,6.1151,Peridotite_rect,7,6.115,1,2,0,2,0,1,,,,,,,,,,,,,
6638dceb7a4c777c55da2b23,TCN,2024-06-24_16h34.34.619,LearnStrategy,2023.2.3,Linux x86_64,59.88023952,5,1,4,-0.024664561,-0.01386861,1,0,0,1.2057,rock_grid_rect_2,3,11,-1,-1,1.206,0.215989431,-0.262494405,1,0,0,3.7769,Diorite_rect,3,3.777,1,3,0,3,0,1,,,,,,,,,,,,,
6638dceb7a4c777c55da2b23,TCN,2024-06-24_16h34.34.619,LearnStrategy,2023.2.3,Linux x86_64,59.88023952,5,1,5,0.092860778,0.010463874,1,0,0,1.0403,rock_grid_rect_2,6,16,-1,-1,1.04,-0.084326585,-0.385632118,1,0,0,1.7201,Pegmatite_rect,6,1.72,1,4,0,4,0,1,,,,,,,,,,,,,
6638dceb7a4c777c55da2b23,TCN,2024-06-24_16h34.34.619,LearnStrategy,2023.2.3,Linux x86_64,59.88023952,5,1,6,-0.023940563,-0.003679991,1,0,0,0.9896,rock_grid_rect_2,3,08,-1,-1,0.99,0.213532209,-0.242918809,1,0,0,2.9462,Diorite_rect,3,2.946,1,5,0,5,0,1,,,,,,,,,,,,,
6638dceb7a4c777c55da2b23,TCN,2024-06-24_16h34.34.619,LearnStrategy,2023.2.3,Linux x86_64,59.88023952,5,1,7,0.039606651,-0.016145428,1,0,0,1.2049,rock_grid_rect_2,2,08,-1,-1,1.205,-0.135809819,-0.229197264,1,0,0,1.4294,Basalt_rect,2,1.429,1,6,0,6,0,1,,,,,,,,,,,,,
6638dceb7a4c777c55da2b23,TCN,2024-06-24_16h34.34.619,LearnStrategy,2023.2.3,Linux x86_64,59.88023952,5,1,8,-0.017078876,0.005169789,1,0,0,0.9716,rock_grid_rect_2,6,07,-1,-1,0.972,-0.043772777,-0.397074699,1,0,0,1.7256,Pegmatite_rect,6,1.726,1,7,0,7,0,1,,,,,,,,,,,,,
6638dceb7a4c777c55da2b23,TCN,2024-06-24_16h34.34.619,LearnStrategy,2023.2.3,Linux x86_64,59.88023952,5,1,9,-0.038204193,-0.008386572,1,0,0,1.2047,rock_grid_rect_2,4,01,-1,-1,1.205,0.329420805,-0.266675711,1,0,0,3.4938,Gabbro_rect,4,3.494,1,8,0,8,0,1,,,,,,,,,,,,,
6638dceb7a4c777c55da2b23,TCN,2024-06-24_16h34.34.619,LearnStrategy,2023.2.3,Linux x86_64,59.88023952,5,1,10,0.028955936,-0.00632902,1,0,0,1.3137,rock_grid_rect_2,7,07,-1,-1,1.314,0.099454641,-0.397230943,1,0,0,4.8162,Peridotite_rect,7,4.816,1,9,0,9,0,1,,,,,,,,,,,,,
6638dceb7a4c777c55da2b23,TCN,2024-06-24_16h34.34.619,LearnStrategy,2023.2.3,Linux x86_64,59.88023952,5,1,11,0.018000841,-0.021150668,1,0,0,1.489,rock_grid_rect_2,1,11,-1,-1,1.489,-0.344417771,-0.253779968,1,0,0,3.4585,Andesite_rect,1,3.458,1,10,0,10,0,1,,,,,,,,,,,,,
6638dceb7a4c777c55da2b23,TCN,2024-06-24_16h34.34.619,LearnStrategy,2023.2.3,Linux x86_64,59.88023952,5,1,12,-0.007990917,0.000691136,1,0,0,1.1727,rock_grid_rect_2,5,11,-1,-1,1.173,-0.341542919,-0.407944679,1,0,0,1.3684,Obsidian_rect,5,1.368,1,11,0,11,0,1,,,,,,,,,,,,,
6638dceb7a4c777c55da2b23,TCN,2024-06-24_16h34.34.619,LearnStrategy,2023.2.3,Linux x86_64,59.88023952,5,1,13,-0.045781612,0.001698375,1,0,0,0.9672,rock_grid_rect_2,1,04,-1,-1,0.967,-0.365101894,-0.248512904,1,0,0,3.8871,Andesite_rect,1,3.887,1,12,0,12,0,1,,,,,,,,,,,,,
6638dceb7a4c777c55da2b23,TCN,2024-06-24_16h34.34.619,LearnStrategy,2023.2.3,Linux x86_64,59.88023952,5,1,14,0.09564503,-0.004660805,1,0,0,1.7925,rock_grid_rect_2,2,10,-1,-1,1.793,-0.175930341,-0.265901645,1,0,0,2.8283,Basalt_rect,2,2.828,1,13,0,13,0,1,,,,,,,,,,,,,
6638dceb7a4c777c55da2b23,TCN,2024-06-24_16h34.34.619,LearnStrategy,2023.2.3,Linux x86_64,59.88023952,5,1,15,0.016908407,0.000346263,1,0,0,1.6979,rock_grid_rect_2,8,02,-1,-1,1.698,0.365342697,-0.397266388,1,0,0,1.2176,Pumice_rect,8,1.218,1,14,0,14,0,1,,,,,,,,,,,,,
6638dceb7a4c777c55da2b23,TCN,2024-06-24_16h34.34.619,LearnStrategy,2023.2.3,Linux x86_64,59.88023952,5,1,16,0.026888688,-0.012014945,1,0,0,1.7632,rock_grid_rect_2,8,14,-1,-1,1.763,0.37212038,-0.405047735,1,0,0,3.0606,Pumice_rect,8,3.061,1,15,0,15,0,1,,,,,,,,,,,,,
6638dceb7a4c777c55da2b23,TCN,2024-06-24_16h34.34.619,LearnStrategy,2023.2.3,Linux x86_64,59.88023952,5,2,1,,,,,,,,6,11,,,,,,,,,,,6,4.127,1,,,,,,-0.086035093,-0.415375312,1,0,0,4.1272,Pegmatite_rect,0,0,0,0,1,
6638dceb7a4c777c55da2b23,TCN,2024-06-24_16h34.34.619,LearnStrategy,2023.2.3,Linux x86_64,59.88023952,5,2,2,,,,,,,,1,09,,,,,,,,,,,1,14.442,1,,,,,,-0.40304633,-0.245794376,1,0,0,14.4417,Andesite_rect,1,0,1,0,1,
6638dceb7a4c777c55da2b23,TCN,2024-06-24_16h34.34.619,LearnStrategy,2023.2.3,Linux x86_64,59.88023952,5,2,3,,,,,,,,7,12,,,,,,,,,,,6,10.369,0,,,,,,-0.100750287,-0.398115873,1,0,0,10.3689,Pegmatite_rect,2,0,2,0,1,
6638dceb7a4c777c55da2b23,TCN,2024-06-24_16h34.34.619,LearnStrategy,2023.2.3,Linux x86_64,59.88023952,5,2,4,,,,,,,,4,14,,,,,,,,,,,4,2.743,1,,,,,,0.392248551,-0.257580757,1,0,0,2.743,Gabbro_rect,3,0,3,0,1,
6638dceb7a4c777c55da2b23,TCN,2024-06-24_16h34.34.619,LearnStrategy,2023.2.3,Linux x86_64,59.88023952,5,2,5,,,,,,,,2,11,,,,,,,,,,,2,7.436,1,,,,,,-0.112041712,-0.267760992,1,0,0,7.4356,Basalt_rect,4,0,4,0,1,
6638dceb7a4c777c55da2b23,TCN,2024-06-24_16h34.34.619,LearnStrategy,2023.2.3,Linux x86_64,59.88023952,5,2,6,,,,,,,,5,16,,,,,,,,,,,5,1.554,1,,,,,,-0.360916734,-0.408984582,1,0,0,1.5543,Obsidian_rect,5,0,5,0,1,
6638dceb7a4c777c55da2b23,TCN,2024-06-24_16h34.34.619,LearnStrategy,2023.2.3,Linux x86_64,59.88023952,5,2,7,,,,,,,,8,10,,,,,,,,,,,8,2.754,1,,,,,,0.393248876,-0.397691965,1,0,0,2.7538,Pumice_rect,6,0,6,0,1,
6638dceb7a4c777c55da2b23,TCN,2024-06-24_16h34.34.619,LearnStrategy,2023.2.3,Linux x86_64,59.88023952,5,2,8,,,,,,,,1,03,,,,,,,,,,,1,18.914,1,,,,,,-0.436007261,-0.261479139,1,0,0,18.9145,Andesite_rect,7,0,7,0,1,
6638dceb7a4c777c55da2b23,TCN,2024-06-24_16h34.34.619,LearnStrategy,2023.2.3,Linux x86_64,59.88023952,5,2,9,,,,,,,,5,04,,,,,,,,,,,5,1.464,1,,,,,,-0.381808559,-0.380132039,1,0,0,1.464,Obsidian_rect,8,0,8,0,1,
6638dceb7a4c777c55da2b23,TCN,2024-06-24_16h34.34.619,LearnStrategy,2023.2.3,Linux x86_64,59.88023952,5,2,10,,,,,,,,8,04,,,,,,,,,,,8,1.256,1,,,,,,0.414218664,-0.418388923,1,0,0,1.2563,Pumice_rect,9,0,9,0,1,
6638dceb7a4c777c55da2b23,TCN,2024-06-24_16h34.34.619,LearnStrategy,2023.2.3,Linux x86_64,59.88023952,5,2,11,,,,,,,,3,07,,,,,,,,,,,3,1.576,1,,,,,,0.188409885,-0.261757771,1,0,0,1.576,Diorite_rect,10,0,10,0,1,
6638dceb7a4c777c55da2b23,TCN,2024-06-24_16h34.34.619,LearnStrategy,2023.2.3,Linux x86_64,59.88023952,5,2,12,,,,,,,,4,16,,,,,,,,,,,4,29.186,1,,,,,,0.380033016,-0.255318721,1,0,0,29.1857,Gabbro_rect,11,0,11,0,1,
6638dceb7a4c777c55da2b23,TCN,2024-06-24_16h34.34.619,LearnStrategy,2023.2.3,Linux x86_64,59.88023952,5,2,13,,,,,,,,2,16,,,,,,,,,,,2,2.735,1,,,,,,-0.130371571,-0.241472165,1,0,0,2.7354,Basalt_rect,12,0,12,0,1,
6638dceb7a4c777c55da2b23,TCN,2024-06-24_16h34.34.619,LearnStrategy,2023.2.3,Linux x86_64,59.88023952,5,2,14,,,,,,,,3,02,,,,,,,,,,,3,7.758,1,,,,,,0.076464812,-0.252061526,1,0,0,7.7581,Diorite_rect,13,0,13,0,1,
6638dceb7a4c777c55da2b23,TCN,2024-06-24_16h34.34.619,LearnStrategy,2023.2.3,Linux x86_64,59.88023952,5,2,15,,,,,,,,7,05,,,,,,,,,,,7,3.254,1,,,,,,0.15160648,-0.40007472,1,0,0,3.2539,Peridotite_rect,14,0,14,0,1,
6638dceb7a4c777c55da2b23,TCN,2024-06-24_16h34.34.619,LearnStrategy,2023.2.3,Linux x86_64,59.88023952,5,2,16,,,,,,,,6,05,,,,,,,,,,,6,5.905,1,,,,,,-0.08816131,-0.415828307,1,0,0,5.9052,Pegmatite_rect,15,0,15,0,1,
6638dceb7a4c777c55da2b23,TCN,2024-06-24_16h34.34.619,LearnStrategy,2023.2.3,Linux x86_64,59.88023952,6,1,1,0.029538234,-0.000254949,1,0,0,2.3885,rock_grid_rect_2,4,12,-1,-1,2.389,0.36157465,-0.243254821,1,0,0,12.6624,Gabbro_rect,4,12.662,1,0,0,0,0,1,,,,,,,,,,,,,
6638dceb7a4c777c55da2b23,TCN,2024-06-24_16h34.34.619,LearnStrategy,2023.2.3,Linux x86_64,59.88023952,6,1,2,0.015280565,-0.005284349,1,0,0,1.322,rock_grid_rect_2,4,10,-1,-1,1.322,0.382953246,-0.251375039,1,0,0,46.1323,Gabbro_rect,4,46.132,1,1,0,1,0,1,,,,,,,,,,,,,
6638dceb7a4c777c55da2b23,TCN,2024-06-24_16h34.34.619,LearnStrategy,2023.2.3,Linux x86_64,59.88023952,6,1,3,0.020555258,-0.01907293,1,0,0,1.1733,rock_grid_rect_2,1,10,-1,-1,1.173,-0.35925893,-0.257125934,1,0,0,14.2221,Andesite_rect,1,14.222,1,2,0,2,0,1,,,,,,,,,,,,,
6638dceb7a4c777c55da2b23,TCN,2024-06-24_16h34.34.619,LearnStrategy,2023.2.3,Linux x86_64,59.88023952,6,1,4,0.048470974,-0.008670966,1,0,0,1.1722,rock_grid_rect_2,3,12,-1,-1,1.172,0.133704821,-0.255773226,1,0,0,2.9706,Diorite_rect,3,2.971,1,3,0,3,0,1,,,,,,,,,,,,,
6638dceb7a4c777c55da2b23,TCN,2024-06-24_16h34.34.619,LearnStrategy,2023.2.3,Linux x86_64,59.88023952,6,1,5,0.0470198,0.003645301,1,0,0,1.1562,rock_grid_rect_2,8,06,-1,-1,1.156,0.373290459,-0.402566115,1,0,0,1.5809,Pumice_rect,8,1.581,1,4,0,4,0,1,,,,,,,,,,,,,
6638dceb7a4c777c55da2b23,TCN,2024-06-24_16h34.34.619,LearnStrategy,2023.2.3,Linux x86_64,59.88023952,6,1,6,0.035274188,-0.000648737,1,0,0,1.1577,rock_grid_rect_2,8,03,-1,-1,1.158,0.428899209,-0.385987918,1,0,0,1.7288,Pumice_rect,8,1.729,1,5,0,5,0,1,,,,,,,,,,,,,
6638dceb7a4c777c55da2b23,TCN,2024-06-24_16h34.34.619,LearnStrategy,2023.2.3,Linux x86_64,59.88023952,6,1,7,-0.004855633,0.007131974,1,0,0,1.3048,rock_grid_rect_2,3,15,-1,-1,1.305,0.219584306,-0.237582525,1,0,0,7.1288,Diorite_rect,3,7.129,1,6,0,6,0,1,,,,,,,,,,,,,
6638dceb7a4c777c55da2b23,TCN,2024-06-24_16h34.34.619,LearnStrategy,2023.2.3,Linux x86_64,59.88023952,6,1,8,0.063218991,0.00319469,1,0,0,1.8731,rock_grid_rect_2,5,02,-1,-1,1.873,-0.354253769,-0.400150776,1,0,0,1.6894,Obsidian_rect,5,1.689,1,7,0,7,0,1,,,,,,,,,,,,,
6638dceb7a4c777c55da2b23,TCN,2024-06-24_16h34.34.619,LearnStrategy,2023.2.3,Linux x86_64,59.88023952,6,1,9,0.001956304,0.003197551,1,0,0,1.4882,rock_grid_rect_2,7,14,-1,-1,1.488,0.140352249,-0.403198481,1,0,0,2.2759,Peridotite_rect,7,2.276,1,8,0,8,0,1,,,,,,,,,,,,,
6638dceb7a4c777c55da2b23,TCN,2024-06-24_16h34.34.619,LearnStrategy,2023.2.3,Linux x86_64,59.88023952,6,1,10,0.0453372,0.002011061,1,0,0,1.3886,rock_grid_rect_2,2,02,-1,-1,1.389,-0.123111725,-0.23465999,1,0,0,1.7183,Basalt_rect,2,1.718,1,9,0,9,0,1,,,,,,,,,,,,,
6638dceb7a4c777c55da2b23,TCN,2024-06-24_16h34.34.619,LearnStrategy,2023.2.3,Linux x86_64,59.88023952,6,1,11,0.086620808,0.008300185,1,0,0,1.5726,rock_grid_rect_2,5,14,-1,-1,1.573,-0.363119125,-0.388154984,1,0,0,1.2677,Obsidian_rect,5,1.268,1,10,0,10,0,1,,,,,,,,,,,,,
6638dceb7a4c777c55da2b23,TCN,2024-06-24_16h34.34.619,LearnStrategy,2023.2.3,Linux x86_64,59.88023952,6,1,12,0.005808592,-0.00490586,1,0,0,1.225,rock_grid_rect_2,7,13,-1,-1,1.225,0.134542704,-0.417854706,1,0,0,1.6436,Peridotite_rect,7,1.644,1,11,0,11,0,1,,,,,,,,,,,,,
6638dceb7a4c777c55da2b23,TCN,2024-06-24_16h34.34.619,LearnStrategy,2023.2.3,Linux x86_64,59.88023952,6,1,13,0.004738649,0.006182273,1,0,0,0.9411,rock_grid_rect_2,6,09,-1,-1,0.941,-0.084162474,-0.380910953,1,0,0,1.1863,Pegmatite_rect,6,1.186,1,12,0,12,0,1,,,,,,,,,,,,,
6638dceb7a4c777c55da2b23,TCN,2024-06-24_16h34.34.619,LearnStrategy,2023.2.3,Linux x86_64,59.88023952,6,1,14,-0.025464614,-0.004956086,1,0,0,1.1582,rock_grid_rect_2,6,06,-1,-1,1.158,-0.09773612,-0.388211091,1,0,0,4.4396,Pegmatite_rect,6,4.44,1,13,0,13,0,1,,,,,,,,,,,,,
6638dceb7a4c777c55da2b23,TCN,2024-06-24_16h34.34.619,LearnStrategy,2023.2.3,Linux x86_64,59.88023952,6,1,15,0.07280453,0.009808818,1,0,0,1.1908,rock_grid_rect_2,1,05,-1,-1,1.191,-0.337567131,-0.24876674,1,0,0,4.8907,Andesite_rect,1,4.891,1,14,0,14,0,1,,,,,,,,,,,,,
6638dceb7a4c777c55da2b23,TCN,2024-06-24_16h34.34.619,LearnStrategy,2023.2.3,Linux x86_64,59.88023952,6,1,16,0.091262499,0.011233608,1,0,0,1.0251,rock_grid_rect_2,2,01,-1,-1,1.025,-0.134757757,-0.246067762,1,0,0,2.3109,Basalt_rect,2,2.311,1,15,0,15,0,1,,,,,,,,,,,,,
6638dceb7a4c777c55da2b23,TCN,2024-06-24_16h34.34.619,LearnStrategy,2023.2.3,Linux x86_64,59.88023952,6,2,1,,,,,,,,4,11,,,,,,,,,,,4,5.96,1,,,,,,0.314621846,-0.231942256,1,0,0,5.9597,Gabbro_rect,0,0,0,0,1,
6638dceb7a4c777c55da2b23,TCN,2024-06-24_16h34.34.619,LearnStrategy,2023.2.3,Linux x86_64,59.88023952,6,2,2,,,,,,,,2,04,,,,,,,,,,,2,2.239,1,,,,,,-0.135367552,-0.262714307,1,0,0,2.2389,Basalt_rect,1,0,1,0,1,
6638dceb7a4c777c55da2b23,TCN,2024-06-24_16h34.34.619,LearnStrategy,2023.2.3,Linux x86_64,59.88023952,6,2,3,,,,,,,,7,02,,,,,,,,,,,7,1.705,1,,,,,,0.121544043,-0.397849003,1,0,0,1.7045,Peridotite_rect,2,0,2,0,1,
6638dceb7a4c777c55da2b23,TCN,2024-06-24_16h34.34.619,LearnStrategy,2023.2.3,Linux x86_64,59.88023952,6,2,4,,,,,,,,8,08,,,,,,,,,,,8,1.84,1,,,,,,0.349049648,-0.409415881,1,0,0,1.8396,Pumice_rect,3,0,3,0,1,
6638dceb7a4c777c55da2b23,TCN,2024-06-24_16h34.34.619,LearnStrategy,2023.2.3,Linux x86_64,59.88023952,6,2,5,,,,,,,,6,10,,,,,,,,,,,6,2.417,1,,,,,,-0.102560123,-0.413740158,1,0,0,2.4173,Pegmatite_rect,4,0,4,0,1,
6638dceb7a4c777c55da2b23,TCN,2024-06-24_16h34.34.619,LearnStrategy,2023.2.3,Linux x86_64,59.88023952,6,2,6,,,,,,,,1,02,,,,,,,,,,,1,3.299,1,,,,,,-0.35114042,-0.250848532,1,0,0,3.2991,Andesite_rect,5,0,5,0,1,
6638dceb7a4c777c55da2b23,TCN,2024-06-24_16h34.34.619,LearnStrategy,2023.2.3,Linux x86_64,59.88023952,6,2,7,,,,,,,,4,13,,,,,,,,,,,2,6.619,0,,,,,,-0.190808296,-0.252303918,1,0,0,6.6195,Basalt_rect,6,0,6,0,1,
6638dceb7a4c777c55da2b23,TCN,2024-06-24_16h34.34.619,LearnStrategy,2023.2.3,Linux x86_64,59.88023952,6,2,8,,,,,,,,5,08,,,,,,,,,,,5,1.269,1,,,,,,-0.344882528,-0.392165184,1,0,0,1.2693,Obsidian_rect,7,0,7,0,1,
6638dceb7a4c777c55da2b23,TCN,2024-06-24_16h34.34.619,LearnStrategy,2023.2.3,Linux x86_64,59.88023952,6,2,9,,,,,,,,6,03,,,,,,,,,,,6,1.249,1,,,,,,-0.188397487,-0.397234678,1,0,0,1.2489,Pegmatite_rect,8,0,8,0,1,
6638dceb7a4c777c55da2b23,TCN,2024-06-24_16h34.34.619,LearnStrategy,2023.2.3,Linux x86_64,59.88023952,6,2,10,,,,,,,,5,06,,,,,,,,,,,5,2.034,1,,,,,,-0.356559038,-0.398675919,1,0,0,2.034,Obsidian_rect,9,0,9,0,1,
6638dceb7a4c777c55da2b23,TCN,2024-06-24_16h34.34.619,LearnStrategy,2023.2.3,Linux x86_64,59.88023952,6,2,11,,,,,,,,2,06,,,,,,,,,,,2,3.797,1,,,,,,-0.148267905,-0.254647811,1,0,0,3.7972,Basalt_rect,10,0,10,0,1,
6638dceb7a4c777c55da2b23,TCN,2024-06-24_16h34.34.619,LearnStrategy,2023.2.3,Linux x86_64,59.88023952,6,2,12,,,,,,,,7,08,,,,,,,,,,,7,1.413,1,,,,,,0.127542098,-0.393488169,1,0,0,1.4129,Peridotite_rect,11,0,11,0,1,
6638dceb7a4c777c55da2b23,TCN,2024-06-24_16h34.34.619,LearnStrategy,2023.2.3,Linux x86_64,59.88023952,6,2,13,,,,,,,,3,16,,,,,,,,,,,3,1.733,1,,,,,,0.159854174,-0.264952898,1,0,0,1.7332,Diorite_rect,12,0,12,0,1,
6638dceb7a4c777c55da2b23,TCN,2024-06-24_16h34.34.619,LearnStrategy,2023.2.3,Linux x86_64,59.88023952,6,2,14,,,,,,,,8,09,,,,,,,,,,,8,1.359,1,,,,,,0.384414434,-0.409808079,1,0,0,1.3588,Pumice_rect,13,0,13,0,1,
6638dceb7a4c777c55da2b23,TCN,2024-06-24_16h34.34.619,LearnStrategy,2023.2.3,Linux x86_64,59.88023952,6,2,15,,,,,,,,1,14,,,,,,,,,,,6,2.822,0,,,,,,-0.080339273,-0.393333038,1,0,0,2.8217,Pegmatite_rect,14,0,14,0,1,
6638dceb7a4c777c55da2b23,TCN,2024-06-24_16h34.34.619,LearnStrategy,2023.2.3,Linux x86_64,59.88023952,6,2,16,,,,,,,,3,06,,,,,,,,,,,3,3.62,1,,,,,,0.156875928,-0.254574617,1,0,0,3.6202,Diorite_rect,15,0,15,0,1,
6638dceb7a4c777c55da2b23,TCN,2024-06-24_16h34.34.619,LearnStrategy,2023.2.3,Linux x86_64,59.88023952,7,1,1,0.021188815,0.006923079,1,0,0,1.9396,rock_grid_rect_2,2,08,-1,-1,1.94,-0.083590349,-0.232301315,1,0,0,1.5849,Basalt_rect,2,1.585,1,0,0,0,0,1,,,,,,,,,,,,,
6638dceb7a4c777c55da2b23,TCN,2024-06-24_16h34.34.619,LearnStrategy,2023.2.3,Linux x86_64,59.88023952,7,1,2,0.087976297,0.004178723,1,0,0,2.0545,rock_grid_rect_2,6,06,-1,-1,2.055,-0.118259509,-0.394466003,1,0,0,1.925,Pegmatite_rect,6,1.925,1,1,0,1,0,1,,,,,,,,,,,,,
6638dceb7a4c777c55da2b23,TCN,2024-06-24_16h34.34.619,LearnStrategy,2023.2.3,Linux x86_64,59.88023952,7,1,3,-0.04340442,-0.000639598,1,0,0,1.0225,rock_grid_rect_2,1,07,-1,-1,1.023,-0.348319093,-0.242599487,1,0,0,2.6706,Andesite_rect,1,2.671,1,2,0,2,0,1,,,,,,,,,,,,,
6638dceb7a4c777c55da2b23,TCN,2024-06-24_16h34.34.619,LearnStrategy,2023.2.3,Linux x86_64,59.88023952,7,1,4,0.057193995,-0.011965116,1,0,0,1.6876,rock_grid_rect_2,7,14,-1,-1,1.688,0.156115611,-0.386392275,1,0,0,3.1509,Peridotite_rect,7,3.151,1,3,0,3,0,1,,,,,,,,,,,,,
6638dceb7a4c777c55da2b23,TCN,2024-06-24_16h34.34.619,LearnStrategy,2023.2.3,Linux x86_64,59.88023952,7,1,5,0.046985547,-0.014684677,1,0,0,2.0631,rock_grid_rect_2,6,16,-1,-1,2.063,-0.096399705,-0.413212061,1,0,0,1.6639,Pegmatite_rect,6,1.664,1,4,0,4,0,1,,,,,,,,,,,,,
6638dceb7a4c777c55da2b23,TCN,2024-06-24_16h34.34.619,LearnStrategy,2023.2.3,Linux x86_64,59.88023952,7,1,6,0.065181017,-0.004006426,1,0,0,1.7724,rock_grid_rect_2,1,05,-1,-1,1.772,-0.351222754,-0.24502786,1,0,0,2.1589,Andesite_rect,1,2.159,1,5,0,5,0,1,,,,,,,,,,,,,
6638dceb7a4c777c55da2b23,TCN,2024-06-24_16h34.34.619,LearnStrategy,2023.2.3,Linux x86_64,59.88023952,7,1,7,0.031003952,-0.019959648,1,0,0,2.3868,rock_grid_rect_2,7,13,-1,-1,2.387,0.131409248,-0.410960118,1,0,0,1.6306,Peridotite_rect,7,1.631,1,6,0,6,0,1,,,,,,,,,,,,,
6638dceb7a4c777c55da2b23,TCN,2024-06-24_16h34.34.619,LearnStrategy,2023.2.3,Linux x86_64,59.88023952,7,1,8,0.037777821,-0.002442002,1,0,0,2.0033,rock_grid_rect_2,3,11,-1,-1,2.003,0.124682188,-0.262741645,1,0,0,1.3895,Diorite_rect,3,1.39,1,7,0,7,0,1,,,,,,,,,,,,,
6638dceb7a4c777c55da2b23,TCN,2024-06-24_16h34.34.619,LearnStrategy,2023.2.3,Linux x86_64,59.88023952,7,1,9,0.090638161,-0.007979711,1,0,0,1.788,rock_grid_rect_2,8,03,-1,-1,1.788,0.361850897,-0.382062912,1,0,0,1.6725,Pumice_rect,8,1.673,1,8,0,8,0,1,,,,,,,,,,,,,
6638dceb7a4c777c55da2b23,TCN,2024-06-24_16h34.34.619,LearnStrategy,2023.2.3,Linux x86_64,59.88023952,7,1,10,-0.051997344,-0.006906033,1,0,0,1.3712,rock_grid_rect_2,5,10,-1,-1,1.371,-0.45219779,-0.415768941,1,0,0,1.4353,Obsidian_rect,5,1.435,1,9,0,9,0,1,,,,,,,,,,,,,
6638dceb7a4c777c55da2b23,TCN,2024-06-24_16h34.34.619,LearnStrategy,2023.2.3,Linux x86_64,59.88023952,7,1,11,0.066105286,-0.022211671,1,0,0,1.0573,rock_grid_rect_2,4,15,-1,-1,1.057,-0.078383048,-0.240272522,1,0,0,6.3973,Basalt_rect,2,6.397,0,10,0,10,0,1,,,,,,,,,,,,,
6638dceb7a4c777c55da2b23,TCN,2024-06-24_16h34.34.619,LearnStrategy,2023.2.3,Linux x86_64,59.88023952,7,1,12,0.08375303,0.003107429,1,0,0,1.2558,rock_grid_rect_2,5,09,-1,-1,1.256,-0.307848692,-0.400641918,1,0,0,1.3939,Obsidian_rect,5,1.394,1,11,0,11,0,1,,,,,,,,,,,,,
6638dceb7a4c777c55da2b23,TCN,2024-06-24_16h34.34.619,LearnStrategy,2023.2.3,Linux x86_64,59.88023952,7,1,13,0.052491506,-0.008113782,1,0,0,1.3967,rock_grid_rect_2,2,10,-1,-1,1.397,-0.10665973,-0.232033094,1,0,0,1.8367,Basalt_rect,2,1.837,1,12,0,12,0,1,,,,,,,,,,,,,
6638dceb7a4c777c55da2b23,TCN,2024-06-24_16h34.34.619,LearnStrategy,2023.2.3,Linux x86_64,59.88023952,7,1,14,0.091086864,-0.011507789,1,0,0,2.1371,rock_grid_rect_2,8,14,-1,-1,2.137,0.430818637,-0.406523705,1,0,0,1.5206,Pumice_rect,8,1.521,1,13,0,13,0,1,,,,,,,,,,,,,
6638dceb7a4c777c55da2b23,TCN,2024-06-24_16h34.34.619,LearnStrategy,2023.2.3,Linux x86_64,59.88023952,7,1,15,0.094805241,-0.012917439,1,0,0,0.9407,rock_grid_rect_2,4,05,-1,-1,0.941,0.426221132,-0.239687999,1,0,0,4.1317,Gabbro_rect,4,4.132,1,14,0,14,0,1,,,,,,,,,,,,,
6638dceb7a4c777c55da2b23,TCN,2024-06-24_16h34.34.619,LearnStrategy,2023.2.3,Linux x86_64,59.88023952,7,1,16,-0.002128204,-0.007049243,1,0,0,1.5306,rock_grid_rect_2,3,08,-1,-1,1.531,0.157477299,-0.238493919,1,0,0,1.435,Diorite_rect,3,1.435,1,15,0,15,0,1,,,,,,,,,,,,,
6638dceb7a4c777c55da2b23,TCN,2024-06-24_16h34.34.619,LearnStrategy,2023.2.3,Linux x86_64,59.88023952,7,2,1,,,,,,,,4,16,,,,,,,,,,,4,5.769,1,,,,,,0.414897839,-0.254468838,1,0,0,5.7692,Gabbro_rect,0,0,0,0,1,
6638dceb7a4c777c55da2b23,TCN,2024-06-24_16h34.34.619,LearnStrategy,2023.2.3,Linux x86_64,59.88023952,7,2,2,,,,,,,,7,05,,,,,,,,,,,7,1.43,1,,,,,,0.170891682,-0.398088376,1,0,0,1.4302,Peridotite_rect,1,0,1,0,1,
6638dceb7a4c777c55da2b23,TCN,2024-06-24_16h34.34.619,LearnStrategy,2023.2.3,Linux x86_64,59.88023952,7,2,3,,,,,,,,5,12,,,,,,,,,,,5,1.316,1,,,,,,-0.380983273,-0.419819911,1,0,0,1.3155,Obsidian_rect,2,0,2,0,1,
6638dceb7a4c777c55da2b23,TCN,2024-06-24_16h34.34.619,LearnStrategy,2023.2.3,Linux x86_64,59.88023952,7,2,4,,,,,,,,1,06,,,,,,,,,,,1,1.545,1,,,,,,-0.341074586,-0.256442467,1,0,0,1.5448,Andesite_rect,3,0,3,0,1,
6638dceb7a4c777c55da2b23,TCN,2024-06-24_16h34.34.619,LearnStrategy,2023.2.3,Linux x86_64,59.88023952,7,2,5,,,,,,,,8,10,,,,,,,,,,,8,1.503,1,,,,,,0.445886771,-0.394959688,1,0,0,1.5031,Pumice_rect,4,0,4,0,1,
6638dceb7a4c777c55da2b23,TCN,2024-06-24_16h34.34.619,LearnStrategy,2023.2.3,Linux x86_64,59.88023952,7,2,6,,,,,,,,2,06,,,,,,,,,,,2,3.986,1,,,,,,-0.094999472,-0.256442706,1,0,0,3.9859,Basalt_rect,5,0,5,0,1,
6638dceb7a4c777c55da2b23,TCN,2024-06-24_16h34.34.619,LearnStrategy,2023.2.3,Linux x86_64,59.88023952,7,2,7,,,,,,,,1,01,,,,,,,,,,,3,9.106,0,,,,,,0.137810946,-0.257758379,1,0,0,9.1065,Diorite_rect,6,0,6,0,1,
6638dceb7a4c777c55da2b23,TCN,2024-06-24_16h34.34.619,LearnStrategy,2023.2.3,Linux x86_64,59.88023952,7,2,8,,,,,,,,6,10,,,,,,,,,,,6,2.345,1,,,,,,-0.100010236,-0.401903709,1,0,0,2.3445,Pegmatite_rect,7,0,7,0,1,
6638dceb7a4c777c55da2b23,TCN,2024-06-24_16h34.34.619,LearnStrategy,2023.2.3,Linux x86_64,59.88023952,7,2,9,,,,,,,,4,13,,,,,,,,,,,4,3.496,1,,,,,,0.431906303,-0.25720342,1,0,0,3.4956,Gabbro_rect,8,0,8,0,1,
6638dceb7a4c777c55da2b23,TCN,2024-06-24_16h34.34.619,LearnStrategy,2023.2.3,Linux x86_64,59.88023952,7,2,10,,,,,,,,2,11,,,,,,,,,,,2,14.007,1,,,,,,-0.067973773,-0.25447003,1,0,0,14.0072,Basalt_rect,9,0,9,0,1,
6638dceb7a4c777c55da2b23,TCN,2024-06-24_16h34.34.619,LearnStrategy,2023.2.3,Linux x86_64,59.88023952,7,2,11,,,,,,,,7,08,,,,,,,,,,,7,1.299,1,,,,,,0.130898158,-0.399021546,1,0,0,1.2992,Peridotite_rect,10,0,10,0,1,
6638dceb7a4c777c55da2b23,TCN,2024-06-24_16h34.34.619,LearnStrategy,2023.2.3,Linux x86_64,59.88023952,7,2,12,,,,,,,,6,05,,,,,,,,,,,6,1.531,1,,,,,,-0.120448271,-0.396850745,1,0,0,1.5305,Pegmatite_rect,11,0,11,0,1,
6638dceb7a4c777c55da2b23,TCN,2024-06-24_16h34.34.619,LearnStrategy,2023.2.3,Linux x86_64,59.88023952,7,2,13,,,,,,,,3,10,,,,,,,,,,,3,3.071,1,,,,,,0.141381105,-0.255889098,1,0,0,3.0712,Diorite_rect,12,0,12,0,1,
6638dceb7a4c777c55da2b23,TCN,2024-06-24_16h34.34.619,LearnStrategy,2023.2.3,Linux x86_64,59.88023952,7,2,14,,,,,,,,3,07,,,,,,,,,,,3,2.327,1,,,,,,0.13050278,-0.255016406,1,0,0,2.3272,Diorite_rect,13,0,13,0,1,
6638dceb7a4c777c55da2b23,TCN,2024-06-24_16h34.34.619,LearnStrategy,2023.2.3,Linux x86_64,59.88023952,7,2,15,,,,,,,,5,04,,,,,,,,,,,5,1.28,1,,,,,,-0.336481929,-0.399795214,1,0,0,1.2801,Obsidian_rect,14,0,14,0,1,
6638dceb7a4c777c55da2b23,TCN,2024-06-24_16h34.34.619,LearnStrategy,2023.2.3,Linux x86_64,59.88023952,7,2,16,,,,,,,,8,04,,,,,,,,,,,8,1.423,1,,,,,,0.397445043,-0.406035741,1,0,0,1.423,Pumice_rect,15,0,15,0,1,
6638dceb7a4c777c55da2b23,TCN,2024-06-24_16h34.34.619,LearnStrategy,2023.2.3,Linux x86_64,59.88023952,8,1,1,0.01360027,-0.013760289,1,0,0,1.5248,rock_grid_rect_2,5,14,-1,-1,1.525,-0.336373806,-0.388253291,1,0,0,1.6502,Obsidian_rect,5,1.65,1,0,0,0,0,1,,,,,,,,,,,,,
6638dceb7a4c777c55da2b23,TCN,2024-06-24_16h34.34.619,LearnStrategy,2023.2.3,Linux x86_64,59.88023952,8,1,2,0.038875103,-0.007772883,1,0,0,1.6211,rock_grid_rect_2,8,02,-1,-1,1.621,0.432461341,-0.399186691,1,0,0,1.6767,Pumice_rect,8,1.677,1,1,0,1,0,1,,,,,,,,,,,,,
6638dceb7a4c777c55da2b23,TCN,2024-06-24_16h34.34.619,LearnStrategy,2023.2.3,Linux x86_64,59.88023952,8,1,3,-0.083479881,-0.017709533,1,0,0,1.174,rock_grid_rect_2,4,10,-1,-1,1.174,0.394433657,-0.270522912,1,0,0,2.2104,Gabbro_rect,4,2.21,1,2,0,2,0,1,,,,,,,,,,,,,
6638dceb7a4c777c55da2b23,TCN,2024-06-24_16h34.34.619,LearnStrategy,2023.2.3,Linux x86_64,59.88023952,8,1,4,0.028576771,-0.019045234,1,0,0,1.7202,rock_grid_rect_2,6,07,-1,-1,1.72,-0.097504775,-0.384981076,1,0,0,1.5087,Pegmatite_rect,6,1.509,1,3,0,3,0,1,,,,,,,,,,,,,
6638dceb7a4c777c55da2b23,TCN,2024-06-24_16h34.34.619,LearnStrategy,2023.2.3,Linux x86_64,59.88023952,8,1,5,-0.023680846,-0.011129777,1,0,0,1.2448,rock_grid_rect_2,1,10,-1,-1,1.245,0.415163596,-0.242177566,1,0,0,34.4723,Gabbro_rect,4,34.472,0,4,0,4,0,1,,,,,,,,,,,,,
6638dceb7a4c777c55da2b23,TCN,2024-06-24_16h34.34.619,LearnStrategy,2023.2.3,Linux x86_64,59.88023952,8,1,6,0.044206699,-0.009501934,1,0,0,1.3884,rock_grid_rect_2,6,09,-1,-1,1.388,-0.108197292,-0.417399963,1,0,0,1.7734,Pegmatite_rect,6,1.773,1,5,0,5,0,1,,,,,,,,,,,,,
6638dceb7a4c777c55da2b23,TCN,2024-06-24_16h34.34.619,LearnStrategy,2023.2.3,Linux x86_64,59.88023952,8,1,7,-0.056760232,0.001073559,1,0,0,1.1562,rock_grid_rect_2,1,16,-1,-1,1.156,-0.371235092,-0.261602879,1,0,0,7.2755,Andesite_rect,1,7.276,1,6,0,6,0,1,,,,,,,,,,,,,
6638dceb7a4c777c55da2b23,TCN,2024-06-24_16h34.34.619,LearnStrategy,2023.2.3,Linux x86_64,59.88023952,8,1,8,0.043667952,-0.004731417,1,0,0,1.5731,rock_grid_rect_2,3,14,-1,-1,1.573,0.120432615,-0.235056241,1,0,0,1.2918,Diorite_rect,3,1.292,1,7,0,7,0,1,,,,,,,,,,,,,
6638dceb7a4c777c55da2b23,TCN,2024-06-24_16h34.34.619,LearnStrategy,2023.2.3,Linux x86_64,59.88023952,8,1,9,0.061909358,-0.013355811,1,0,0,1.837,rock_grid_rect_2,4,08,-1,-1,1.837,0.390426397,-0.2558225,1,0,0,2.9684,Gabbro_rect,4,2.968,1,8,0,8,0,1,,,,,,,,,,,,,
6638dceb7a4c777c55da2b23,TCN,2024-06-24_16h34.34.619,LearnStrategy,2023.2.3,Linux x86_64,59.88023952,8,1,10,-0.008703152,-0.020834525,1,0,0,1.0067,rock_grid_rect_2,7,15,-1,-1,1.007,0.100308975,-0.404176474,1,0,0,1.5347,Peridotite_rect,7,1.535,1,9,0,9,0,1,,,,,,,,,,,,,
6638dceb7a4c777c55da2b23,TCN,2024-06-24_16h34.34.619,LearnStrategy,2023.2.3,Linux x86_64,59.88023952,8,1,11,-0.011142015,-0.019360185,1,0,0,1.5225,rock_grid_rect_2,5,07,-1,-1,1.523,-0.356097619,-0.406224569,1,0,0,1.8436,Obsidian_rect,5,1.844,1,10,0,10,0,1,,,,,,,,,,,,,
6638dceb7a4c777c55da2b23,TCN,2024-06-24_16h34.34.619,LearnStrategy,2023.2.3,Linux x86_64,59.88023952,8,1,12,0.060141087,-0.013424834,1,0,0,1.0551,rock_grid_rect_2,3,09,-1,-1,1.055,0.127570788,-0.240337451,1,0,0,1.7709,Diorite_rect,3,1.771,1,11,0,11,0,1,,,,,,,,,,,,,
6638dceb7a4c777c55da2b23,TCN,2024-06-24_16h34.34.619,LearnStrategy,2023.2.3,Linux x86_64,59.88023952,8,1,13,-0.012854894,-0.013070345,1,0,0,1.2263,rock_grid_rect_2,2,14,-1,-1,1.226,-0.109601418,-0.234114011,1,0,0,3.4606,Basalt_rect,2,3.461,1,12,0,12,0,1,,,,,,,,,,,,,
6638dceb7a4c777c55da2b23,TCN,2024-06-24_16h34.34.619,LearnStrategy,2023.2.3,Linux x86_64,59.88023952,8,1,14,0.041550159,-0.017546574,1,0,0,1.2563,rock_grid_rect_2,8,15,-1,-1,1.256,0.412705104,-0.410378059,1,0,0,1.9907,Pumice_rect,8,1.991,1,13,0,13,0,1,,,,,,,,,,,,,
6638dceb7a4c777c55da2b23,TCN,2024-06-24_16h34.34.619,LearnStrategy,2023.2.3,Linux x86_64,59.88023952,8,1,15,0.097250064,-0.016210834,1,0,0,1.0081,rock_grid_rect_2,2,09,-1,-1,1.008,-0.091786146,-0.250131766,1,0,0,1.3267,Basalt_rect,2,1.327,1,14,0,14,0,1,,,,,,,,,,,,,
6638dceb7a4c777c55da2b23,TCN,2024-06-24_16h34.34.619,LearnStrategy,2023.2.3,Linux x86_64,59.88023952,8,1,16,0.068701347,0.008167505,1,0,0,1.1068,rock_grid_rect_2,7,04,-1,-1,1.107,0.127215942,-0.401673635,1,0,0,1.8373,Peridotite_rect,7,1.837,1,15,0,15,0,1,,,,,,,,,,,,,
6638dceb7a4c777c55da2b23,TCN,2024-06-24_16h34.34.619,LearnStrategy,2023.2.3,Linux x86_64,59.88023952,8,2,1,,,,,,,,1,14,,,,,,,,,,,6,9.886,0,,,,,,-0.096237501,-0.396583478,1,0,0,9.8862,Pegmatite_rect,0,0,0,0,1,
6638dceb7a4c777c55da2b23,TCN,2024-06-24_16h34.34.619,LearnStrategy,2023.2.3,Linux x86_64,59.88023952,8,2,2,,,,,,,,5,16,,,,,,,,,,,5,1.333,1,,,,,,-0.36177214,-0.404233694,1,0,0,1.3334,Obsidian_rect,1,0,1,0,1,
6638dceb7a4c777c55da2b23,TCN,2024-06-24_16h34.34.619,LearnStrategy,2023.2.3,Linux x86_64,59.88023952,8,2,3,,,,,,,,4,11,,,,,,,,,,,4,1.946,1,,,,,,0.453807672,-0.252213001,1,0,0,1.9461,Gabbro_rect,2,0,2,0,1,
6638dceb7a4c777c55da2b23,TCN,2024-06-24_16h34.34.619,LearnStrategy,2023.2.3,Linux x86_64,59.88023952,8,2,4,,,,,,,,8,09,,,,,,,,,,,8,1.565,1,,,,,,0.417841434,-0.38358291,1,0,0,1.5654,Pumice_rect,3,0,3,0,1,
6638dceb7a4c777c55da2b23,TCN,2024-06-24_16h34.34.619,LearnStrategy,2023.2.3,Linux x86_64,59.88023952,8,2,5,,,,,,,,7,06,,,,,,,,,,,6,1.729,0,,,,,,-0.107413133,-0.411447604,1,0,0,1.7289,Pegmatite_rect,4,0,4,0,1,
6638dceb7a4c777c55da2b23,TCN,2024-06-24_16h34.34.619,LearnStrategy,2023.2.3,Linux x86_64,59.88023952,8,2,6,,,,,,,,3,06,,,,,,,,,,,3,3.712,1,,,,,,0.128327211,-0.24508206,1,0,0,3.7116,Diorite_rect,5,0,5,0,1,
6638dceb7a4c777c55da2b23,TCN,2024-06-24_16h34.34.619,LearnStrategy,2023.2.3,Linux x86_64,59.88023952,8,2,7,,,,,,,,6,12,,,,,,,,,,,6,2.124,1,,,,,,-0.104204019,-0.393557231,1,0,0,2.1243,Pegmatite_rect,6,0,6,0,1,
6638dceb7a4c777c55da2b23,TCN,2024-06-24_16h34.34.619,LearnStrategy,2023.2.3,Linux x86_64,59.88023952,8,2,8,,,,,,,,5,05,,,,,,,,,,,5,2.207,1,,,,,,-0.33439366,-0.401928743,1,0,0,2.2075,Obsidian_rect,7,0,7,0,1,
6638dceb7a4c777c55da2b23,TCN,2024-06-24_16h34.34.619,LearnStrategy,2023.2.3,Linux x86_64,59.88023952,8,2,9,,,,,,,,4,09,,,,,,,,,,,4,10.28,1,,,,,,0.431558847,-0.257263422,1,0,0,10.2805,Gabbro_rect,8,0,8,0,1,
6638dceb7a4c777c55da2b23,TCN,2024-06-24_16h34.34.619,LearnStrategy,2023.2.3,Linux x86_64,59.88023952,8,2,10,,,,,,,,2,12,,,,,,,,,,,4,45.257,0,,,,,,0.418366671,-0.25341781,1,0,0,45.2571,Gabbro_rect,9,0,9,0,1,
6638dceb7a4c777c55da2b23,TCN,2024-06-24_16h34.34.619,LearnStrategy,2023.2.3,Linux x86_64,59.88023952,8,2,11,,,,,,,,6,03,,,,,,,,,,,6,1.522,1,,,,,,-0.172533035,-0.400875568,1,0,0,1.522,Pegmatite_rect,10,0,10,0,1,
6638dceb7a4c777c55da2b23,TCN,2024-06-24_16h34.34.619,LearnStrategy,2023.2.3,Linux x86_64,59.88023952,8,2,12,,,,,,,,2,05,,,,,,,,,,,2,1.33,1,,,,,,-0.182376703,-0.265619437,1,0,0,1.3298,Basalt_rect,11,0,11,0,1,
6638dceb7a4c777c55da2b23,TCN,2024-06-24_16h34.34.619,LearnStrategy,2023.2.3,Linux x86_64,59.88023952,8,2,13,,,,,,,,3,02,,,,,,,,,,,3,19.368,1,,,,,,0.140004794,-0.251715819,1,0,0,19.3677,Diorite_rect,12,0,12,0,1,
6638dceb7a4c777c55da2b23,TCN,2024-06-24_16h34.34.619,LearnStrategy,2023.2.3,Linux x86_64,59.88023952,8,2,14,,,,,,,,7,16,,,,,,,,,,,7,29.476,1,,,,,,0.154375792,-0.409422159,1,0,0,29.4758,Peridotite_rect,13,0,13,0,1,
6638dceb7a4c777c55da2b23,TCN,2024-06-24_16h34.34.619,LearnStrategy,2023.2.3,Linux x86_64,59.88023952,8,2,15,,,,,,,,1,03,,,,,,,,,,,1,7.482,1,,,,,,-0.365591923,-0.252078215,1,0,0,7.482,Andesite_rect,14,0,14,0,1,
6638dceb7a4c777c55da2b23,TCN,2024-06-24_16h34.34.619,LearnStrategy,2023.2.3,Linux x86_64,59.88023952,8,2,16,,,,,,,,8,13,,,,,,,,,,,8,1.975,1,,,,,,0.408116023,-0.394058069,1,0,0,1.9753,Pumice_rect,15,0,15,0,1,
6638dceb7a4c777c55da2b23,TCN,2024-06-24_16h34.34.619,LearnStrategy,2023.2.3,Linux x86_64,59.88023952,9,1,1,0.008038282,-0.005905191,1,0,0,1.84,rock_grid_rect_2,6,15,-1,-1,1.84,-0.076254288,-0.390712659,1,0,0,1.9038,Pegmatite_rect,6,1.904,1,0,0,0,0,1,,,,,,,,,,,,,
6638dceb7a4c777c55da2b23,TCN,2024-06-24_16h34.34.619,LearnStrategy,2023.2.3,Linux x86_64,59.88023952,9,1,2,0.008183082,-0.009084225,1,0,0,1.1474,rock_grid_rect_2,1,04,-1,-1,1.147,-0.332054575,-0.237923543,1,0,0,1.9203,Andesite_rect,1,1.92,1,1,0,1,0,1,,,,,,,,,,,,,
6638dceb7a4c777c55da2b23,TCN,2024-06-24_16h34.34.619,LearnStrategy,2023.2.3,Linux x86_64,59.88023952,9,1,3,0.104001602,0.009319941,1,0,0,1.9555,rock_grid_rect_2,1,11,-1,-1,1.956,-0.347799102,-0.25229605,1,0,0,6.0288,Andesite_rect,1,6.029,1,2,0,2,0,1,,,,,,,,,,,,,
6638dceb7a4c777c55da2b23,TCN,2024-06-24_16h34.34.619,LearnStrategy,2023.2.3,Linux x86_64,59.88023952,9,1,4,0.045422157,0.003142118,1,0,0,1.638,rock_grid_rect_2,2,02,-1,-1,1.638,-0.145562251,-0.259758393,1,0,0,7.4338,Basalt_rect,2,7.434,1,3,0,3,0,1,,,,,,,,,,,,,
6638dceb7a4c777c55da2b23,TCN,2024-06-24_16h34.34.619,LearnStrategy,2023.2.3,Linux x86_64,59.88023952,9,1,5,0.021618923,-0.003963788,1,0,0,1.1232,rock_grid_rect_2,3,12,-1,-1,1.123,0.110570033,-0.253570636,1,0,0,1.4652,Diorite_rect,3,1.465,1,4,0,4,0,1,,,,,,,,,,,,,
6638dceb7a4c777c55da2b23,TCN,2024-06-24_16h34.34.619,LearnStrategy,2023.2.3,Linux x86_64,59.88023952,9,1,6,0.046668212,0.004377762,1,0,0,1.0645,rock_grid_rect_2,7,10,-1,-1,1.065,0.127110163,-0.383447806,1,0,0,2.5618,Peridotite_rect,7,2.562,1,5,0,5,0,1,,,,,,,,,,,,,
6638dceb7a4c777c55da2b23,TCN,2024-06-24_16h34.34.619,LearnStrategy,2023.2.3,Linux x86_64,59.88023952,9,1,7,0.138635476,-0.003516237,1,0,0,1.1914,rock_grid_rect_2,5,02,-1,-1,1.191,-0.318361759,-0.402066072,1,0,0,1.3248,Obsidian_rect,5,1.325,1,6,0,6,0,1,,,,,,,,,,,,,
6638dceb7a4c777c55da2b23,TCN,2024-06-24_16h34.34.619,LearnStrategy,2023.2.3,Linux x86_64,59.88023952,9,1,8,0.084472736,-0.005040685,1,0,0,1.2234,rock_grid_rect_2,7,07,-1,-1,1.223,0.145111402,-0.400640249,1,0,0,2.1955,Peridotite_rect,7,2.196,1,7,0,7,0,1,,,,,,,,,,,,,
6638dceb7a4c777c55da2b23,TCN,2024-06-24_16h34.34.619,LearnStrategy,2023.2.3,Linux x86_64,59.88023952,9,1,9,0.103911718,-0.001778404,1,0,0,2.5867,rock_grid_rect_2,2,01,-1,-1,2.587,-0.104293426,-0.247976303,1,0,0,1.5434,Basalt_rect,2,1.543,1,8,0,8,0,1,,,,,,,,,,,,,
6638dceb7a4c777c55da2b23,TCN,2024-06-24_16h34.34.619,LearnStrategy,2023.2.3,Linux x86_64,59.88023952,9,1,10,0.054860751,-0.002566695,1,0,0,1.0237,rock_grid_rect_2,4,12,-1,-1,1.024,0.34818546,-0.244546413,1,0,0,1.7585,Gabbro_rect,4,1.758,1,9,0,9,0,1,,,,,,,,,,,,,
6638dceb7a4c777c55da2b23,TCN,2024-06-24_16h34.34.619,LearnStrategy,2023.2.3,Linux x86_64,59.88023952,9,1,11,0.032528321,-0.017131249,1,0,0,1.3734,rock_grid_rect_2,5,11,-1,-1,1.373,-0.384562254,-0.420970996,1,0,0,1.3369,Obsidian_rect,5,1.337,1,10,0,10,0,1,,,,,,,,,,,,,
6638dceb7a4c777c55da2b23,TCN,2024-06-24_16h34.34.619,LearnStrategy,2023.2.3,Linux x86_64,59.88023952,9,1,12,-0.016988834,-0.009490768,1,0,0,1.3902,rock_grid_rect_2,6,13,-1,-1,1.39,-0.085860332,-0.410351356,1,0,0,2.274,Pegmatite_rect,6,2.274,1,11,0,11,0,1,,,,,,,,,,,,,
6638dceb7a4c777c55da2b23,TCN,2024-06-24_16h34.34.619,LearnStrategy,2023.2.3,Linux x86_64,59.88023952,9,1,13,0.042124907,-0.004069527,1,0,0,2.4861,rock_grid_rect_2,4,01,-1,-1,2.486,0.351030588,-0.249425411,1,0,0,4.4539,Gabbro_rect,4,4.454,1,12,0,12,0,1,,,,,,,,,,,,,
6638dceb7a4c777c55da2b23,TCN,2024-06-24_16h34.34.619,LearnStrategy,2023.2.3,Linux x86_64,59.88023952,9,1,14,0.134710073,-0.004820426,1,0,0,1.1901,rock_grid_rect_2,8,16,-1,-1,1.19,0.389347474,-0.417851448,1,0,0,2.8203,Pumice_rect,8,2.82,1,13,0,13,0,1,,,,,,,,,,,,,
6638dceb7a4c777c55da2b23,TCN,2024-06-24_16h34.34.619,LearnStrategy,2023.2.3,Linux x86_64,59.88023952,9,1,15,0.140503645,0.008070946,1,0,0,1.6206,rock_grid_rect_2,3,15,-1,-1,1.621,0.375445286,-0.248845339,1,0,0,7.4004,Gabbro_rect,4,7.4,0,14,0,14,0,1,,,,,,,,,,,,,
6638dceb7a4c777c55da2b23,TCN,2024-06-24_16h34.34.619,LearnStrategy,2023.2.3,Linux x86_64,59.88023952,9,1,16,0.126996517,-0.010274371,1,0,0,1.5056,rock_grid_rect_2,8,06,-1,-1,1.506,0.361362934,-0.405332327,1,0,0,1.4985,Pumice_rect,8,1.499,1,15,0,15,0,1,,,,,,,,,,,,,
6638dceb7a4c777c55da2b23,TCN,2024-06-24_16h34.34.619,LearnStrategy,2023.2.3,Linux x86_64,59.88023952,9,2,1,,,,,,,,2,16,,,,,,,,,,,2,6.27,1,,,,,,-0.133356174,-0.251931747,1,0,0,6.2704,Basalt_rect,0,0,0,0,1,
6638dceb7a4c777c55da2b23,TCN,2024-06-24_16h34.34.619,LearnStrategy,2023.2.3,Linux x86_64,59.88023952,9,2,2,,,,,,,,4,03,,,,,,,,,,,3,1.637,0,,,,,,0.129008929,-0.254221837,1,0,0,1.6372,Diorite_rect,1,0,1,0,1,
6638dceb7a4c777c55da2b23,TCN,2024-06-24_16h34.34.619,LearnStrategy,2023.2.3,Linux x86_64,59.88023952,9,2,3,,,,,,,,2,04,,,,,,,,,,,2,4.419,1,,,,,,-0.088784059,-0.26397109,1,0,0,4.4187,Basalt_rect,2,0,2,0,1,
6638dceb7a4c777c55da2b23,TCN,2024-06-24_16h34.34.619,LearnStrategy,2023.2.3,Linux x86_64,59.88023952,9,2,4,,,,,,,,3,16,,,,,,,,,,,3,1.451,1,,,,,,0.139576912,-0.255685965,1,0,0,1.4506,Diorite_rect,3,0,3,0,1,
6638dceb7a4c777c55da2b23,TCN,2024-06-24_16h34.34.619,LearnStrategy,2023.2.3,Linux x86_64,59.88023952,9,2,5,,,,,,,,8,05,,,,,,,,,,,8,2.072,1,,,,,,0.354701122,-0.396884044,1,0,0,2.0723,Pumice_rect,4,0,4,0,1,
6638dceb7a4c777c55da2b23,TCN,2024-06-24_16h34.34.619,LearnStrategy,2023.2.3,Linux x86_64,59.88023952,9,2,6,,,,,,,,3,13,,,,,,,,,,,3,4.963,1,,,,,,0.136149406,-0.261973937,1,0,0,4.9634,Diorite_rect,5,0,5,0,1,
6638dceb7a4c777c55da2b23,TCN,2024-06-24_16h34.34.619,LearnStrategy,2023.2.3,Linux x86_64,59.88023952,9,2,7,,,,,,,,7,02,,,,,,,,,,,7,1.377,1,,,,,,0.133137941,-0.406073888,1,0,0,1.3772,Peridotite_rect,6,0,6,0,1,
6638dceb7a4c777c55da2b23,TCN,2024-06-24_16h34.34.619,LearnStrategy,2023.2.3,Linux x86_64,59.88023952,9,2,8,,,,,,,,1,02,,,,,,,,,,,1,1.877,1,,,,,,-0.333227873,-0.239747922,1,0,0,1.8767,Andesite_rect,7,0,7,0,1,
6638dceb7a4c777c55da2b23,TCN,2024-06-24_16h34.34.619,LearnStrategy,2023.2.3,Linux x86_64,59.88023952,9,2,9,,,,,,,,7,12,,,,,,,,,,,6,8.524,0,,,,,,-0.073699156,-0.403248707,1,0,0,8.5235,Pegmatite_rect,8,0,8,0,1,
6638dceb7a4c777c55da2b23,TCN,2024-06-24_16h34.34.619,LearnStrategy,2023.2.3,Linux x86_64,59.88023952,9,2,10,,,,,,,,6,08,,,,,,,,,,,6,1.481,1,,,,,,-0.073699156,-0.403248707,1,0,0,1.481,Pegmatite_rect,9,0,9,0,1,
6638dceb7a4c777c55da2b23,TCN,2024-06-24_16h34.34.619,LearnStrategy,2023.2.3,Linux x86_64,59.88023952,9,2,11,,,,,,,,6,11,,,,,,,,,,,6,1.007,1,,,,,,-0.073699156,-0.403248707,1,0,0,1.0072,Pegmatite_rect,10,0,10,0,1,
6638dceb7a4c777c55da2b23,TCN,2024-06-24_16h34.34.619,LearnStrategy,2023.2.3,Linux x86_64,59.88023952,9,2,12,,,,,,,,5,08,,,,,,,,,,,5,2.031,1,,,,,,-0.367953261,-0.40308245,1,0,0,2.0309,Obsidian_rect,11,0,11,0,1,
6638dceb7a4c777c55da2b23,TCN,2024-06-24_16h34.34.619,LearnStrategy,2023.2.3,Linux x86_64,59.88023952,9,2,13,,,,,,,,4,14,,,,,,,,,,,4,2.549,1,,,,,,0.365870237,-0.255004168,1,0,0,2.5494,Gabbro_rect,12,0,12,0,1,
6638dceb7a4c777c55da2b23,TCN,2024-06-24_16h34.34.619,LearnStrategy,2023.2.3,Linux x86_64,59.88023952,9,2,14,,,,,,,,1,09,,,,,,,,,,,1,5.678,1,,,,,,-0.400818467,-0.245799144,1,0,0,5.6777,Andesite_rect,13,0,13,0,1,
6638dceb7a4c777c55da2b23,TCN,2024-06-24_16h34.34.619,LearnStrategy,2023.2.3,Linux x86_64,59.88023952,9,2,15,,,,,,,,8,08,,,,,,,,,,,8,1.656,1,,,,,,0.3748854,-0.378647963,1,0,0,1.6558,Pumice_rect,14,0,14,0,1,
6638dceb7a4c777c55da2b23,TCN,2024-06-24_16h34.34.619,LearnStrategy,2023.2.3,Linux x86_64,59.88023952,9,2,16,,,,,,,,5,06,,,,,,,,,,,5,1.525,1,,,,,,-0.433438619,-0.392525355,1,0,0,1.5249,Obsidian_rect,15,0,15,0,1,
6638dceb7a4c777c55da2b23,TCN,2024-06-24_16h34.34.619,LearnStrategy,2023.2.3,Linux x86_64,59.88023952,,,,,,,,,,,,,,,,,,,,,,,,,,,,,,,,,,,,,,,,,,,1
6638dceb7a4c777c55da2b23,TCN,2024-06-24_16h34.34.619,LearnStrategy,2023.2.3,Linux x86_64,59.88023952,,,,,,,,,,,,,,,,,,,,,,,,,,,,,,,,,,,,,,,,,,,
6638dceb7a4c777c55da2b23,TCN,2024-06-24_16h34.34.619,LearnStrategy,2023.2.3,Linux x86_64,59.88023952,,,,,,,,,,,6,16,1,1,,,,,,,,,,,,,,,,,,,,,,,,,,,,,
6638dceb7a4c777c55da2b23,TCN,2024-06-24_16h34.34.619,LearnStrategy,2023.2.3,Linux x86_64,59.88023952,,,,,,,,,,,1,10,1,2,,,,,,,,,,,,,,,,,,,,,,,,,,,,,
6638dceb7a4c777c55da2b23,TCN,2024-06-24_16h34.34.619,LearnStrategy,2023.2.3,Linux x86_64,59.88023952,,,,,,,,,,,5,09,1,3,,,,,,,,,,,,,,,,,,,,,,,,,,,,,
6638dceb7a4c777c55da2b23,TCN,2024-06-24_16h34.34.619,LearnStrategy,2023.2.3,Linux x86_64,59.88023952,,,,,,,,,,,3,09,1,4,,,,,,,,,,,,,,,,,,,,,,,,,,,,,
6638dceb7a4c777c55da2b23,TCN,2024-06-24_16h34.34.619,LearnStrategy,2023.2.3,Linux x86_64,59.88023952,,,,,,,,,,,4,01,1,5,,,,,,,,,,,,,,,,,,,,,,,,,,,,,
6638dceb7a4c777c55da2b23,TCN,2024-06-24_16h34.34.619,LearnStrategy,2023.2.3,Linux x86_64,59.88023952,,,,,,,,,,,5,07,1,6,,,,,,,,,,,,,,,,,,,,,,,,,,,,,
6638dceb7a4c777c55da2b23,TCN,2024-06-24_16h34.34.619,LearnStrategy,2023.2.3,Linux x86_64,59.88023952,,,,,,,,,,,5,11,1,7,,,,,,,,,,,,,,,,,,,,,,,,,,,,,
6638dceb7a4c777c55da2b23,TCN,2024-06-24_16h34.34.619,LearnStrategy,2023.2.3,Linux x86_64,59.88023952,,,,,,,,,,,1,16,1,8,,,,,,,,,,,,,,,,,,,,,,,,,,,,,
6638dceb7a4c777c55da2b23,TCN,2024-06-24_16h34.34.619,LearnStrategy,2023.2.3,Linux x86_64,59.88023952,,,,,,,,,,,6,13,2,1,,,,,,,,,,,,,,,,,,,,,,,,,,,,,
6638dceb7a4c777c55da2b23,TCN,2024-06-24_16h34.34.619,LearnStrategy,2023.2.3,Linux x86_64,59.88023952,,,,,,,,,,,5,10,2,2,,,,,,,,,,,,,,,,,,,,,,,,,,,,,
6638dceb7a4c777c55da2b23,TCN,2024-06-24_16h34.34.619,LearnStrategy,2023.2.3,Linux x86_64,59.88023952,,,,,,,,,,,3,14,2,3,,,,,,,,,,,,,,,,,,,,,,,,,,,,,
6638dceb7a4c777c55da2b23,TCN,2024-06-24_16h34.34.619,LearnStrategy,2023.2.3,Linux x86_64,59.88023952,,,,,,,,,,,1,05,2,4,,,,,,,,,,,,,,,,,,,,,,,,,,,,,
6638dceb7a4c777c55da2b23,TCN,2024-06-24_16h34.34.619,LearnStrategy,2023.2.3,Linux x86_64,59.88023952,,,,,,,,,,,6,09,2,5,,,,,,,,,,,,,,,,,,,,,,,,,,,,,
6638dceb7a4c777c55da2b23,TCN,2024-06-24_16h34.34.619,LearnStrategy,2023.2.3,Linux x86_64,59.88023952,,,,,,,,,,,1,07,2,6,,,,,,,,,,,,,,,,,,,,,,,,,,,,,
6638dceb7a4c777c55da2b23,TCN,2024-06-24_16h34.34.619,LearnStrategy,2023.2.3,Linux x86_64,59.88023952,,,,,,,,,,,2,14,2,7,,,,,,,,,,,,,,,,,,,,,,,,,,,,,
6638dceb7a4c777c55da2b23,TCN,2024-06-24_16h34.34.619,LearnStrategy,2023.2.3,Linux x86_64,59.88023952,,,,,,,,,,,2,09,2,8,,,,,,,,,,,,,,,,,,,,,,,,,,,,,
6638dceb7a4c777c55da2b23,TCN,2024-06-24_16h34.34.619,LearnStrategy,2023.2.3,Linux x86_64,59.88023952,,,,,,,,,,,4,15,3,1,,,,,,,,,,,,,,,,,,,,,,,,,,,,,
6638dceb7a4c777c55da2b23,TCN,2024-06-24_16h34.34.619,LearnStrategy,2023.2.3,Linux x86_64,59.88023952,,,,,,,,,,,3,12,3,2,,,,,,,,,,,,,,,,,,,,,,,,,,,,,
6638dceb7a4c777c55da2b23,TCN,2024-06-24_16h34.34.619,LearnStrategy,2023.2.3,Linux x86_64,59.88023952,,,,,,,,,,,6,15,3,3,,,,,,,,,,,,,,,,,,,,,,,,,,,,,
6638dceb7a4c777c55da2b23,TCN,2024-06-24_16h34.34.619,LearnStrategy,2023.2.3,Linux x86_64,59.88023952,,,,,,,,,,,7,10,3,4,,,,,,,,,,,,,,,,,,,,,,,,,,,,,
6638dceb7a4c777c55da2b23,TCN,2024-06-24_16h34.34.619,LearnStrategy,2023.2.3,Linux x86_64,59.88023952,,,,,,,,,,,8,15,3,5,,,,,,,,,,,,,,,,,,,,,,,,,,,,,
6638dceb7a4c777c55da2b23,TCN,2024-06-24_16h34.34.619,LearnStrategy,2023.2.3,Linux x86_64,59.88023952,,,,,,,,,,,3,08,3,6,,,,,,,,,,,,,,,,,,,,,,,,,,,,,
6638dceb7a4c777c55da2b23,TCN,2024-06-24_16h34.34.619,LearnStrategy,2023.2.3,Linux x86_64,59.88023952,,,,,,,,,,,2,01,3,7,,,,,,,,,,,,,,,,,,,,,,,,,,,,,
6638dceb7a4c777c55da2b23,TCN,2024-06-24_16h34.34.619,LearnStrategy,2023.2.3,Linux x86_64,59.88023952,,,,,,,,,,,1,11,3,8,,,,,,,,,,,,,,,,,,,,,,,,,,,,,
6638dceb7a4c777c55da2b23,TCN,2024-06-24_16h34.34.619,LearnStrategy,2023.2.3,Linux x86_64,59.88023952,,,,,,,,,,,4,08,4,1,,,,,,,,,,,,,,,,,,,,,,,,,,,,,
6638dceb7a4c777c55da2b23,TCN,2024-06-24_16h34.34.619,LearnStrategy,2023.2.3,Linux x86_64,59.88023952,,,,,,,,,,,2,02,4,2,,,,,,,,,,,,,,,,,,,,,,,,,,,,,
6638dceb7a4c777c55da2b23,TCN,2024-06-24_16h34.34.619,LearnStrategy,2023.2.3,Linux x86_64,59.88023952,,,,,,,,,,,1,04,4,3,,,,,,,,,,,,,,,,,,,,,,,,,,,,,
6638dceb7a4c777c55da2b23,TCN,2024-06-24_16h34.34.619,LearnStrategy,2023.2.3,Linux x86_64,59.88023952,,,,,,,,,,,2,08,4,4,,,,,,,,,,,,,,,,,,,,,,,,,,,,,
6638dceb7a4c777c55da2b23,TCN,2024-06-24_16h34.34.619,LearnStrategy,2023.2.3,Linux x86_64,59.88023952,,,,,,,,,,,5,02,4,5,,,,,,,,,,,,,,,,,,,,,,,,,,,,,
6638dceb7a4c777c55da2b23,TCN,2024-06-24_16h34.34.619,LearnStrategy,2023.2.3,Linux x86_64,59.88023952,,,,,,,,,,,7,14,4,6,,,,,,,,,,,,,,,,,,,,,,,,,,,,,
6638dceb7a4c777c55da2b23,TCN,2024-06-24_16h34.34.619,LearnStrategy,2023.2.3,Linux x86_64,59.88023952,,,,,,,,,,,4,10,4,7,,,,,,,,,,,,,,,,,,,,,,,,,,,,,
6638dceb7a4c777c55da2b23,TCN,2024-06-24_16h34.34.619,LearnStrategy,2023.2.3,Linux x86_64,59.88023952,,,,,,,,,,,4,12,4,8,,,,,,,,,,,,,,,,,,,,,,,,,,,,,
6638dceb7a4c777c55da2b23,TCN,2024-06-24_16h34.34.619,LearnStrategy,2023.2.3,Linux x86_64,59.88023952,,,,,,,,,,,3,11,5,1,,,,,,,,,,,,,,,,,,,,,,,,,,,,,
6638dceb7a4c777c55da2b23,TCN,2024-06-24_16h34.34.619,LearnStrategy,2023.2.3,Linux x86_64,59.88023952,,,,,,,,,,,7,07,5,2,,,,,,,,,,,,,,,,,,,,,,,,,,,,,
6638dceb7a4c777c55da2b23,TCN,2024-06-24_16h34.34.619,LearnStrategy,2023.2.3,Linux x86_64,59.88023952,,,,,,,,,,,4,05,5,3,,,,,,,,,,,,,,,,,,,,,,,,,,,,,
6638dceb7a4c777c55da2b23,TCN,2024-06-24_16h34.34.619,LearnStrategy,2023.2.3,Linux x86_64,59.88023952,,,,,,,,,,,2,10,5,4,,,,,,,,,,,,,,,,,,,,,,,,,,,,,
6638dceb7a4c777c55da2b23,TCN,2024-06-24_16h34.34.619,LearnStrategy,2023.2.3,Linux x86_64,59.88023952,,,,,,,,,,,8,03,5,5,,,,,,,,,,,,,,,,,,,,,,,,,,,,,
6638dceb7a4c777c55da2b23,TCN,2024-06-24_16h34.34.619,LearnStrategy,2023.2.3,Linux x86_64,59.88023952,,,,,,,,,,,5,14,5,6,,,,,,,,,,,,,,,,,,,,,,,,,,,,,
6638dceb7a4c777c55da2b23,TCN,2024-06-24_16h34.34.619,LearnStrategy,2023.2.3,Linux x86_64,59.88023952,,,,,,,,,,,8,02,5,7,,,,,,,,,,,,,,,,,,,,,,,,,,,,,
6638dceb7a4c777c55da2b23,TCN,2024-06-24_16h34.34.619,LearnStrategy,2023.2.3,Linux x86_64,59.88023952,,,,,,,,,,,7,15,5,8,,,,,,,,,,,,,,,,,,,,,,,,,,,,,
6638dceb7a4c777c55da2b23,TCN,2024-06-24_16h34.34.619,LearnStrategy,2023.2.3,Linux x86_64,59.88023952,,,,,,,,,,,7,13,6,1,,,,,,,,,,,,,,,,,,,,,,,,,,,,,
6638dceb7a4c777c55da2b23,TCN,2024-06-24_16h34.34.619,LearnStrategy,2023.2.3,Linux x86_64,59.88023952,,,,,,,,,,,8,16,6,2,,,,,,,,,,,,,,,,,,,,,,,,,,,,,
6638dceb7a4c777c55da2b23,TCN,2024-06-24_16h34.34.619,LearnStrategy,2023.2.3,Linux x86_64,59.88023952,,,,,,,,,,,6,07,6,3,,,,,,,,,,,,,,,,,,,,,,,,,,,,,
6638dceb7a4c777c55da2b23,TCN,2024-06-24_16h34.34.619,LearnStrategy,2023.2.3,Linux x86_64,59.88023952,,,,,,,,,,,7,04,6,4,,,,,,,,,,,,,,,,,,,,,,,,,,,,,
6638dceb7a4c777c55da2b23,TCN,2024-06-24_16h34.34.619,LearnStrategy,2023.2.3,Linux x86_64,59.88023952,,,,,,,,,,,8,06,6,5,,,,,,,,,,,,,,,,,,,,,,,,,,,,,
6638dceb7a4c777c55da2b23,TCN,2024-06-24_16h34.34.619,LearnStrategy,2023.2.3,Linux x86_64,59.88023952,,,,,,,,,,,8,14,6,6,,,,,,,,,,,,,,,,,,,,,,,,,,,,,
6638dceb7a4c777c55da2b23,TCN,2024-06-24_16h34.34.619,LearnStrategy,2023.2.3,Linux x86_64,59.88023952,,,,,,,,,,,6,06,6,7,,,,,,,,,,,,,,,,,,,,,,,,,,,,,
6638dceb7a4c777c55da2b23,TCN,2024-06-24_16h34.34.619,LearnStrategy,2023.2.3,Linux x86_64,59.88023952,,,,,,,,,,,3,15,6,8,,,,,,,,,,,,,,,,,,,,,,,,,,,,,