participant,condition,date,expName,psychopyVersion,OS,frameRate,block,phase,trial,learn_mouse_2.x,learn_mouse_2.y,learn_mouse_2.leftButton,learn_mouse_2.midButton,learn_mouse_2.rightButton,learn_mouse_2.time,learn_mouse_2.clicked_name,cat,token,row,col,t_select,cat_mouse_l.x,cat_mouse_l.y,cat_mouse_l.leftButton,cat_mouse_l.midButton,cat_mouse_l.rightButton,cat_mouse_l.time,cat_mouse_l.clicked_name,resp,t_resp,corr,train_trials.thisRepN,train_trials.thisTrialN,train_trials.thisN,train_trials.thisIndex,train_trials.ran,cat_mouse_t.x,cat_mouse_t.y,cat_mouse_t.leftButton,cat_mouse_t.midButton,cat_mouse_t.rightButton,cat_mouse_t.time,cat_mouse_t.clicked_name,test_trials.thisRepN,test_trials.thisTrialN,test_trials.thisN,test_trials.thisIndex,test_trials.ran,Bonus
6638ed323cd2400f1d2b09d4,TCR,2024-06-21_11h46.45.702,LearnStrategy,2023.2.3,Win32,60.24096386,,,,,,,,,,,,,,,,,,,,,,,,,,,,,,,,,,,,,,,,,,,
6638ed323cd2400f1d2b09d4,TCR,2024-06-21_11h46.45.702,LearnStrategy,2023.2.3,Win32,60.24096386,1,1,1,0.114583333,-0.002741228,1,0,0,4.9801,rock_grid_rect_2,4,11,-1,-1,4.98,0.378837719,-0.399122807,1,0,0,6.2882,Pumice_rect,8,6.288,0,0,0,0,0,1,,,,,,,,,,,,,
6638ed323cd2400f1d2b09d4,TCR,2024-06-21_11h46.45.702,LearnStrategy,2023.2.3,Win32,60.24096386,1,1,2,0.116776316,-0.014802632,1,0,0,0.9969,rock_grid_rect_2,2,10,-1,-1,0.997,-0.395833333,-0.391995614,1,0,0,5.0566,Obsidian_rect,5,5.057,0,1,0,1,0,1,,,,,,,,,,,,,
6638ed323cd2400f1d2b09d4,TCR,2024-06-21_11h46.45.702,LearnStrategy,2023.2.3,Win32,60.24096386,1,1,3,0.110197368,0.001096491,1,0,0,0.939,rock_grid_rect_2,1,11,-1,-1,0.939,-0.120614035,-0.411732456,1,0,0,6.0832,Pegmatite_rect,6,6.083,0,2,0,2,0,1,,,,,,,,,,,,,
6638ed323cd2400f1d2b09d4,TCR,2024-06-21_11h46.45.702,LearnStrategy,2023.2.3,Win32,60.24096386,1,1,4,0.096491228,-0.010416667,1,0,0,0.8405,rock_grid_rect_2,6,12,-1,-1,0.84,0.114583333,-0.253837719,1,0,0,6.0099,Diorite_rect,3,6.01,0,3,0,3,0,1,,,,,,,,,,,,,
6638ed323cd2400f1d2b09d4,TCR,2024-06-21_11h46.45.702,LearnStrategy,2023.2.3,Win32,60.24096386,1,1,5,0.140350877,0.024122807,1,0,0,0.9623,rock_grid_rect_2,5,05,-1,-1,0.962,-0.391447368,-0.398574561,1,0,0,3.9784,Obsidian_rect,5,3.978,1,4,0,4,0,1,,,,,,,,,,,,,
6638ed323cd2400f1d2b09d4,TCR,2024-06-21_11h46.45.702,LearnStrategy,2023.2.3,Win32,60.24096386,1,1,6,0.104166667,0.007127193,1,0,0,0.9806,rock_grid_rect_2,4,05,-1,-1,0.981,0.122807018,-0.401315789,1,0,0,8.6651,Peridotite_rect,7,8.665,0,5,0,5,0,1,,,,,,,,,,,,,
6638ed323cd2400f1d2b09d4,TCR,2024-06-21_11h46.45.702,LearnStrategy,2023.2.3,Win32,60.24096386,1,1,7,0.100877193,-0.004385965,1,0,0,0.7389,rock_grid_rect_2,1,03,-1,-1,0.739,-0.353070175,-0.252741228,1,0,0,6.4025,Andesite_rect,1,6.403,1,6,0,6,0,1,,,,,,,,,,,,,
6638ed323cd2400f1d2b09d4,TCR,2024-06-21_11h46.45.702,LearnStrategy,2023.2.3,Win32,60.24096386,1,1,8,0.086074561,0,1,0,0,0.7699,rock_grid_rect_2,6,10,-1,-1,0.77,0.127741228,-0.401864035,1,0,0,2.5969,Peridotite_rect,7,2.597,0,7,0,7,0,1,,,,,,,,,,,,,
6638ed323cd2400f1d2b09d4,TCR,2024-06-21_11h46.45.702,LearnStrategy,2023.2.3,Win32,60.24096386,1,1,9,0.115679825,-0.003289474,1,0,0,2.4477,rock_grid_rect_2,3,15,-1,-1,2.448,0.385964912,-0.406798246,1,0,0,6.5824,Pumice_rect,8,6.582,0,8,0,8,0,1,,,,,,,,,,,,,
6638ed323cd2400f1d2b09d4,TCR,2024-06-21_11h46.45.702,LearnStrategy,2023.2.3,Win32,60.24096386,1,1,10,0.143640351,-0.002192982,1,0,0,1.2808,rock_grid_rect_2,3,14,-1,-1,1.281,0.118421053,-0.253837719,1,0,0,8.8447,Diorite_rect,3,8.845,1,9,0,9,0,1,,,,,,,,,,,,,
6638ed323cd2400f1d2b09d4,TCR,2024-06-21_11h46.45.702,LearnStrategy,2023.2.3,Win32,60.24096386,1,1,11,0.144188596,-0.001096491,1,0,0,1.0306,rock_grid_rect_2,7,07,-1,-1,1.031,0.360197368,-0.25,1,0,0,3.1285,Gabbro_rect,4,3.129,0,10,0,10,0,1,,,,,,,,,,,,,
6638ed323cd2400f1d2b09d4,TCR,2024-06-21_11h46.45.702,LearnStrategy,2023.2.3,Win32,60.24096386,1,1,12,0.16995614,-0.001096491,1,0,0,0.8663,rock_grid_rect_2,5,14,-1,-1,0.866,-0.140899123,-0.256030702,1,0,0,3.1565,Basalt_rect,2,3.157,0,11,0,11,0,1,,,,,,,,,,,,,
6638ed323cd2400f1d2b09d4,TCR,2024-06-21_11h46.45.702,LearnStrategy,2023.2.3,Win32,60.24096386,1,1,13,0.152960526,-0.012609649,1,0,0,1.0804,rock_grid_rect_2,8,14,-1,-1,1.08,0.381030702,-0.402412281,1,0,0,2.2155,Pumice_rect,8,2.216,1,12,0,12,0,1,,,,,,,,,,,,,
6638ed323cd2400f1d2b09d4,TCR,2024-06-21_11h46.45.702,LearnStrategy,2023.2.3,Win32,60.24096386,1,1,14,0.155701754,0.006578947,1,0,0,1.7966,rock_grid_rect_2,7,08,-1,-1,1.797,0.380482456,-0.242324561,1,0,0,2.268,Gabbro_rect,4,2.268,0,13,0,13,0,1,,,,,,,,,,,,,
6638ed323cd2400f1d2b09d4,TCR,2024-06-21_11h46.45.702,LearnStrategy,2023.2.3,Win32,60.24096386,1,1,15,0.16995614,0.008223684,1,0,0,1.1907,rock_grid_rect_2,8,15,-1,-1,1.191,0.378837719,-0.402960526,1,0,0,1.919,Pumice_rect,8,1.919,1,14,0,14,0,1,,,,,,,,,,,,,
6638ed323cd2400f1d2b09d4,TCR,2024-06-21_11h46.45.702,LearnStrategy,2023.2.3,Win32,60.24096386,1,1,16,0.163925439,-0.003837719,1,0,0,1.0478,rock_grid_rect_2,2,09,-1,-1,1.048,0.317434211,-0.396381579,1,0,0,17.9837,Pumice_rect,8,17.984,0,15,0,15,0,1,,,,,,,,,,,,,
6638ed323cd2400f1d2b09d4,TCR,2024-06-21_11h46.45.702,LearnStrategy,2023.2.3,Win32,60.24096386,1,2,1,,,,,,,,1,02,,,,,,,,,,,1,4.172,1,,,,,,-0.379934211,-0.251096491,1,0,0,4.1722,Andesite_rect,0,0,0,0,1,
6638ed323cd2400f1d2b09d4,TCR,2024-06-21_11h46.45.702,LearnStrategy,2023.2.3,Win32,60.24096386,1,2,2,,,,,,,,8,03,,,,,,,,,,,8,1.456,1,,,,,,0.362938596,-0.402960526,1,0,0,1.4557,Pumice_rect,1,0,1,0,1,
6638ed323cd2400f1d2b09d4,TCR,2024-06-21_11h46.45.702,LearnStrategy,2023.2.3,Win32,60.24096386,1,2,3,,,,,,,,6,05,,,,,,,,,,,2,5.209,0,,,,,,-0.106907895,-0.271381579,1,0,0,5.2093,Basalt_rect,2,0,2,0,1,
6638ed323cd2400f1d2b09d4,TCR,2024-06-21_11h46.45.702,LearnStrategy,2023.2.3,Win32,60.24096386,1,2,4,,,,,,,,4,16,,,,,,,,,,,3,16.524,0,,,,,,0.13870614,-0.245614035,1,0,0,16.5244,Diorite_rect,3,0,3,0,1,
6638ed323cd2400f1d2b09d4,TCR,2024-06-21_11h46.45.702,LearnStrategy,2023.2.3,Win32,60.24096386,1,2,5,,,,,,,,7,05,,,,,,,,,,,7,2.239,1,,,,,,0.118421053,-0.414473684,1,0,0,2.2394,Peridotite_rect,4,0,4,0,1,
6638ed323cd2400f1d2b09d4,TCR,2024-06-21_11h46.45.702,LearnStrategy,2023.2.3,Win32,60.24096386,1,2,6,,,,,,,,2,16,,,,,,,,,,,8,5.745,0,,,,,,0.354714912,-0.398574561,1,0,0,5.7451,Pumice_rect,5,0,5,0,1,
6638ed323cd2400f1d2b09d4,TCR,2024-06-21_11h46.45.702,LearnStrategy,2023.2.3,Win32,60.24096386,1,2,7,,,,,,,,3,10,,,,,,,,,,,4,7.039,0,,,,,,0.360197368,-0.244517544,1,0,0,7.0393,Gabbro_rect,6,0,6,0,1,
6638ed323cd2400f1d2b09d4,TCR,2024-06-21_11h46.45.702,LearnStrategy,2023.2.3,Win32,60.24096386,1,2,8,,,,,,,,5,16,,,,,,,,,,,2,4.974,0,,,,,,-0.129934211,-0.246710526,1,0,0,4.9744,Basalt_rect,7,0,7,0,1,
6638ed323cd2400f1d2b09d4,TCR,2024-06-21_11h46.45.702,LearnStrategy,2023.2.3,Win32,60.24096386,1,2,9,,,,,,,,8,13,,,,,,,,,,,8,1.38,1,,,,,,0.375548246,-0.401315789,1,0,0,1.3802,Pumice_rect,8,0,8,0,1,
6638ed323cd2400f1d2b09d4,TCR,2024-06-21_11h46.45.702,LearnStrategy,2023.2.3,Win32,60.24096386,1,2,10,,,,,,,,4,15,,,,,,,,,,,4,2.811,1,,,,,,0.38377193,-0.239035088,1,0,0,2.8115,Gabbro_rect,9,0,9,0,1,
6638ed323cd2400f1d2b09d4,TCR,2024-06-21_11h46.45.702,LearnStrategy,2023.2.3,Win32,60.24096386,1,2,11,,,,,,,,3,13,,,,,,,,,,,3,2.641,1,,,,,,0.138157895,-0.251644737,1,0,0,2.641,Diorite_rect,10,0,10,0,1,
6638ed323cd2400f1d2b09d4,TCR,2024-06-21_11h46.45.702,LearnStrategy,2023.2.3,Win32,60.24096386,1,2,12,,,,,,,,6,11,,,,,,,,,,,6,10.78,1,,,,,,-0.132127193,-0.421600877,1,0,0,10.78,Pegmatite_rect,11,0,11,0,1,
6638ed323cd2400f1d2b09d4,TCR,2024-06-21_11h46.45.702,LearnStrategy,2023.2.3,Win32,60.24096386,1,2,13,,,,,,,,2,05,,,,,,,,,,,2,4.175,1,,,,,,-0.137061404,-0.239035088,1,0,0,4.1747,Basalt_rect,12,0,12,0,1,
6638ed323cd2400f1d2b09d4,TCR,2024-06-21_11h46.45.702,LearnStrategy,2023.2.3,Win32,60.24096386,1,2,14,,,,,,,,1,06,,,,,,,,,,,3,3.869,0,,,,,,0.11129386,-0.229714912,1,0,0,3.8692,Diorite_rect,13,0,13,0,1,
6638ed323cd2400f1d2b09d4,TCR,2024-06-21_11h46.45.702,LearnStrategy,2023.2.3,Win32,60.24096386,1,2,15,,,,,,,,7,10,,,,,,,,,,,7,1.819,1,,,,,,0.121162281,-0.406798246,1,0,0,1.8192,Peridotite_rect,14,0,14,0,1,
6638ed323cd2400f1d2b09d4,TCR,2024-06-21_11h46.45.702,LearnStrategy,2023.2.3,Win32,60.24096386,1,2,16,,,,,,,,5,04,,,,,,,,,,,5,1.871,1,,,,,,-0.413925439,-0.415570175,1,0,0,1.8713,Obsidian_rect,15,0,15,0,1,
6638ed323cd2400f1d2b09d4,TCR,2024-06-21_11h46.45.702,LearnStrategy,2023.2.3,Win32,60.24096386,2,1,1,0.122258772,-0.006578947,1,0,0,1.23,rock_grid_rect_2,6,12,-1,-1,1.23,-0.104166667,-0.404057018,1,0,0,3.2067,Pegmatite_rect,6,3.207,1,0,0,0,0,1,,,,,,,,,,,,,
6638ed323cd2400f1d2b09d4,TCR,2024-06-21_11h46.45.702,LearnStrategy,2023.2.3,Win32,60.24096386,2,1,2,0.118969298,-0.002192982,1,0,0,1.0645,rock_grid_rect_2,5,05,-1,-1,1.065,-0.380482456,-0.402960526,1,0,0,1.9896,Obsidian_rect,5,1.99,1,1,0,1,0,1,,,,,,,,,,,,,
6638ed323cd2400f1d2b09d4,TCR,2024-06-21_11h46.45.702,LearnStrategy,2023.2.3,Win32,60.24096386,2,1,3,0.13377193,0.019188596,1,0,0,0.982,rock_grid_rect_2,6,03,-1,-1,0.982,0.14254386,-0.418859649,1,0,0,5.2083,Peridotite_rect,7,5.208,0,2,0,2,0,1,,,,,,,,,,,,,
6638ed323cd2400f1d2b09d4,TCR,2024-06-21_11h46.45.702,LearnStrategy,2023.2.3,Win32,60.24096386,2,1,4,0.137061404,0,1,0,0,0.7971,rock_grid_rect_2,3,09,-1,-1,0.797,0.132675439,-0.260416667,1,0,0,2.6561,Diorite_rect,3,2.656,1,3,0,3,0,1,,,,,,,,,,,,,
6638ed323cd2400f1d2b09d4,TCR,2024-06-21_11h46.45.702,LearnStrategy,2023.2.3,Win32,60.24096386,2,1,5,0.105811404,0.002741228,1,0,0,0.8158,rock_grid_rect_2,2,08,-1,-1,0.816,-0.103070175,-0.257675439,1,0,0,1.777,Basalt_rect,2,1.777,1,4,0,4,0,1,,,,,,,,,,,,,
6638ed323cd2400f1d2b09d4,TCR,2024-06-21_11h46.45.702,LearnStrategy,2023.2.3,Win32,60.24096386,2,1,6,0.126644737,-0.00877193,1,0,0,1.1418,rock_grid_rect_2,2,08,-1,-1,1.142,-0.098684211,-0.257127193,1,0,0,1.6583,Basalt_rect,2,1.658,1,5,0,5,0,1,,,,,,,,,,,,,
6638ed323cd2400f1d2b09d4,TCR,2024-06-21_11h46.45.702,LearnStrategy,2023.2.3,Win32,60.24096386,2,1,7,0.125,0.006578947,1,0,0,0.8643,rock_grid_rect_2,8,09,-1,-1,0.864,0.351425439,-0.417214912,1,0,0,1.3583,Pumice_rect,8,1.358,1,6,0,6,0,1,,,,,,,,,,,,,
6638ed323cd2400f1d2b09d4,TCR,2024-06-21_11h46.45.702,LearnStrategy,2023.2.3,Win32,60.24096386,2,1,8,0.130482456,0.002741228,1,0,0,1.7648,rock_grid_rect_2,3,16,-1,-1,1.765,0.120065789,-0.246162281,1,0,0,1.8115,Diorite_rect,3,1.811,1,7,0,7,0,1,,,,,,,,,,,,,
6638ed323cd2400f1d2b09d4,TCR,2024-06-21_11h46.45.702,LearnStrategy,2023.2.3,Win32,60.24096386,2,1,9,0.140350877,0.000548246,1,0,0,0.6801,rock_grid_rect_2,4,11,-1,-1,0.68,-0.106907895,-0.257675439,1,0,0,2.4567,Basalt_rect,2,2.457,0,8,0,8,0,1,,,,,,,,,,,,,
6638ed323cd2400f1d2b09d4,TCR,2024-06-21_11h46.45.702,LearnStrategy,2023.2.3,Win32,60.24096386,2,1,10,0.134868421,-0.010964912,1,0,0,2.7322,rock_grid_rect_2,2,10,-1,-1,2.732,-0.372258772,-0.393092105,1,0,0,1.6515,Obsidian_rect,5,1.651,0,9,0,9,0,1,,,,,,,,,,,,,
6638ed323cd2400f1d2b09d4,TCR,2024-06-21_11h46.45.702,LearnStrategy,2023.2.3,Win32,60.24096386,2,1,11,0.112938596,-0.012609649,1,0,0,0.6808,rock_grid_rect_2,4,05,-1,-1,0.681,0.381578947,-0.257127193,1,0,0,1.8234,Gabbro_rect,4,1.823,1,10,0,10,0,1,,,,,,,,,,,,,
6638ed323cd2400f1d2b09d4,TCR,2024-06-21_11h46.45.702,LearnStrategy,2023.2.3,Win32,60.24096386,2,1,12,0.123355263,-0.019736842,1,0,0,0.7984,rock_grid_rect_2,5,10,-1,-1,0.798,-0.378837719,-0.401864035,1,0,0,1.3544,Obsidian_rect,5,1.354,1,11,0,11,0,1,,,,,,,,,,,,,
6638ed323cd2400f1d2b09d4,TCR,2024-06-21_11h46.45.702,LearnStrategy,2023.2.3,Win32,60.24096386,2,1,13,0.121710526,0.005482456,1,0,0,0.7804,rock_grid_rect_2,1,07,-1,-1,0.78,0.141447368,-0.260964912,1,0,0,2.1121,Diorite_rect,3,2.112,0,12,0,12,0,1,,,,,,,,,,,,,
6638ed323cd2400f1d2b09d4,TCR,2024-06-21_11h46.45.702,LearnStrategy,2023.2.3,Win32,60.24096386,2,1,14,0.134868421,-0.011513158,1,0,0,0.7142,rock_grid_rect_2,3,12,-1,-1,0.714,0.139254386,-0.256578947,1,0,0,1.3236,Diorite_rect,3,1.324,1,13,0,13,0,1,,,,,,,,,,,,,
6638ed323cd2400f1d2b09d4,TCR,2024-06-21_11h46.45.702,LearnStrategy,2023.2.3,Win32,60.24096386,2,1,15,0.146381579,-0.015899123,1,0,0,0.7141,rock_grid_rect_2,4,11,-1,-1,0.714,0.364035088,-0.259320175,1,0,0,2.19,Gabbro_rect,4,2.19,1,14,0,14,0,1,,,,,,,,,,,,,
6638ed323cd2400f1d2b09d4,TCR,2024-06-21_11h46.45.702,LearnStrategy,2023.2.3,Win32,60.24096386,2,1,16,0.118421053,0.002192982,1,0,0,0.6984,rock_grid_rect_2,1,03,-1,-1,0.698,0.153508772,-0.264802632,1,0,0,7.1045,Diorite_rect,3,7.104,0,15,0,15,0,1,,,,,,,,,,,,,
6638ed323cd2400f1d2b09d4,TCR,2024-06-21_11h46.45.702,LearnStrategy,2023.2.3,Win32,60.24096386,2,2,1,,,,,,,,8,16,,,,,,,,,,,8,1.378,1,,,,,,0.362390351,-0.413925439,1,0,0,1.3778,Pumice_rect,0,0,0,0,1,
6638ed323cd2400f1d2b09d4,TCR,2024-06-21_11h46.45.702,LearnStrategy,2023.2.3,Win32,60.24096386,2,2,2,,,,,,,,4,13,,,,,,,,,,,4,1.671,1,,,,,,0.373903509,-0.259868421,1,0,0,1.6706,Gabbro_rect,1,0,1,0,1,
6638ed323cd2400f1d2b09d4,TCR,2024-06-21_11h46.45.702,LearnStrategy,2023.2.3,Win32,60.24096386,2,2,3,,,,,,,,5,06,,,,,,,,,,,5,2.261,1,,,,,,-0.405701754,-0.396381579,1,0,0,2.2614,Obsidian_rect,2,0,2,0,1,
6638ed323cd2400f1d2b09d4,TCR,2024-06-21_11h46.45.702,LearnStrategy,2023.2.3,Win32,60.24096386,2,2,4,,,,,,,,2,12,,,,,,,,,,,8,3.027,0,,,,,,0.376644737,-0.407346491,1,0,0,3.0267,Pumice_rect,3,0,3,0,1,
6638ed323cd2400f1d2b09d4,TCR,2024-06-21_11h46.45.702,LearnStrategy,2023.2.3,Win32,60.24096386,2,2,5,,,,,,,,6,09,,,,,,,,,,,6,4.046,1,,,,,,-0.123903509,-0.400767544,1,0,0,4.0457,Pegmatite_rect,4,0,4,0,1,
6638ed323cd2400f1d2b09d4,TCR,2024-06-21_11h46.45.702,LearnStrategy,2023.2.3,Win32,60.24096386,2,2,6,,,,,,,,1,04,,,,,,,,,,,4,3.995,0,,,,,,0.398574561,-0.249451754,1,0,0,3.9945,Gabbro_rect,5,0,5,0,1,
6638ed323cd2400f1d2b09d4,TCR,2024-06-21_11h46.45.702,LearnStrategy,2023.2.3,Win32,60.24096386,2,2,7,,,,,,,,3,07,,,,,,,,,,,3,2.093,1,,,,,,0.104714912,-0.25,1,0,0,2.0932,Diorite_rect,6,0,6,0,1,
6638ed323cd2400f1d2b09d4,TCR,2024-06-21_11h46.45.702,LearnStrategy,2023.2.3,Win32,60.24096386,2,2,8,,,,,,,,5,02,,,,,,,,,,,5,1.877,1,,,,,,-0.377741228,-0.395833333,1,0,0,1.8771,Obsidian_rect,7,0,7,0,1,
6638ed323cd2400f1d2b09d4,TCR,2024-06-21_11h46.45.702,LearnStrategy,2023.2.3,Win32,60.24096386,2,2,9,,,,,,,,4,10,,,,,,,,,,,4,2.406,1,,,,,,0.377741228,-0.261513158,1,0,0,2.4057,Gabbro_rect,8,0,8,0,1,
6638ed323cd2400f1d2b09d4,TCR,2024-06-21_11h46.45.702,LearnStrategy,2023.2.3,Win32,60.24096386,2,2,10,,,,,,,,3,02,,,,,,,,,,,1,3.38,0,,,,,,-0.40625,-0.23629386,1,0,0,3.3802,Andesite_rect,9,0,9,0,1,
6638ed323cd2400f1d2b09d4,TCR,2024-06-21_11h46.45.702,LearnStrategy,2023.2.3,Win32,60.24096386,2,2,11,,,,,,,,7,02,,,,,,,,,,,7,1.459,1,,,,,,0.137609649,-0.40625,1,0,0,1.4587,Peridotite_rect,10,0,10,0,1,
6638ed323cd2400f1d2b09d4,TCR,2024-06-21_11h46.45.702,LearnStrategy,2023.2.3,Win32,60.24096386,2,2,12,,,,,,,,1,01,,,,,,,,,,,4,4.367,0,,,,,,0.341557018,-0.247258772,1,0,0,4.3672,Gabbro_rect,11,0,11,0,1,
6638ed323cd2400f1d2b09d4,TCR,2024-06-21_11h46.45.702,LearnStrategy,2023.2.3,Win32,60.24096386,2,2,13,,,,,,,,2,02,,,,,,,,,,,2,1.574,1,,,,,,-0.141995614,-0.243969298,1,0,0,1.5743,Basalt_rect,12,0,12,0,1,
6638ed323cd2400f1d2b09d4,TCR,2024-06-21_11h46.45.702,LearnStrategy,2023.2.3,Win32,60.24096386,2,2,14,,,,,,,,8,05,,,,,,,,,,,8,1.121,1,,,,,,0.360197368,-0.407894737,1,0,0,1.121,Pumice_rect,13,0,13,0,1,
6638ed323cd2400f1d2b09d4,TCR,2024-06-21_11h46.45.702,LearnStrategy,2023.2.3,Win32,60.24096386,2,2,15,,,,,,,,7,14,,,,,,,,,,,7,2.625,1,,,,,,0.137609649,-0.416118421,1,0,0,2.6247,Peridotite_rect,14,0,14,0,1,
6638ed323cd2400f1d2b09d4,TCR,2024-06-21_11h46.45.702,LearnStrategy,2023.2.3,Win32,60.24096386,2,2,16,,,,,,,,6,16,,,,,,,,,,,6,4.009,1,,,,,,-0.137061404,-0.412828947,1,0,0,4.0088,Pegmatite_rect,15,0,15,0,1,
6638ed323cd2400f1d2b09d4,TCR,2024-06-21_11h46.45.702,LearnStrategy,2023.2.3,Win32,60.24096386,3,1,1,0.144188596,-0.002192982,1,0,0,1.6147,rock_grid_rect_2,7,06,-1,-1,1.615,0.152960526,-0.411184211,1,0,0,1.5363,Peridotite_rect,7,1.536,1,0,0,0,0,1,,,,,,,,,,,,,
6638ed323cd2400f1d2b09d4,TCR,2024-06-21_11h46.45.702,LearnStrategy,2023.2.3,Win32,60.24096386,3,1,2,0.109100877,-0.002192982,1,0,0,0.8055,rock_grid_rect_2,3,15,-1,-1,0.805,0.36129386,-0.257675439,1,0,0,2.5139,Gabbro_rect,4,2.514,0,1,0,1,0,1,,,,,,,,,,,,,
6638ed323cd2400f1d2b09d4,TCR,2024-06-21_11h46.45.702,LearnStrategy,2023.2.3,Win32,60.24096386,3,1,3,0.120614035,-0.015350877,1,0,0,0.6968,rock_grid_rect_2,4,11,-1,-1,0.697,0.365131579,-0.265899123,1,0,0,2.2828,Gabbro_rect,4,2.283,1,2,0,2,0,1,,,,,,,,,,,,,
6638ed323cd2400f1d2b09d4,TCR,2024-06-21_11h46.45.702,LearnStrategy,2023.2.3,Win32,60.24096386,3,1,4,0.11622807,-0.003837719,1,0,0,0.6794,rock_grid_rect_2,6,03,-1,-1,0.679,-0.097587719,-0.411184211,1,0,0,1.6261,Pegmatite_rect,6,1.626,1,3,0,3,0,1,,,,,,,,,,,,,
6638ed323cd2400f1d2b09d4,TCR,2024-06-21_11h46.45.702,LearnStrategy,2023.2.3,Win32,60.24096386,3,1,5,0.13377193,0.002741228,1,0,0,0.731,rock_grid_rect_2,2,08,-1,-1,0.731,-0.099232456,-0.25,1,0,0,1.4889,Basalt_rect,2,1.489,1,4,0,4,0,1,,,,,,,,,,,,,
6638ed323cd2400f1d2b09d4,TCR,2024-06-21_11h46.45.702,LearnStrategy,2023.2.3,Win32,60.24096386,3,1,6,0.11622807,-0.013157895,1,0,0,0.6162,rock_grid_rect_2,5,12,-1,-1,0.616,-0.405153509,-0.403508772,1,0,0,1.0934,Obsidian_rect,5,1.093,1,5,0,5,0,1,,,,,,,,,,,,,
6638ed323cd2400f1d2b09d4,TCR,2024-06-21_11h46.45.702,LearnStrategy,2023.2.3,Win32,60.24096386,3,1,7,0.108004386,0.003289474,1,0,0,0.664,rock_grid_rect_2,2,11,-1,-1,0.664,0.390899123,-0.396929825,1,0,0,1.4889,Pumice_rect,8,1.489,0,6,0,6,0,1,,,,,,,,,,,,,
6638ed323cd2400f1d2b09d4,TCR,2024-06-21_11h46.45.702,LearnStrategy,2023.2.3,Win32,60.24096386,3,1,8,0.097039474,-0.000548246,1,0,0,0.7628,rock_grid_rect_2,1,09,-1,-1,0.763,0.368969298,-0.253837719,1,0,0,1.6556,Gabbro_rect,4,1.656,0,7,0,7,0,1,,,,,,,,,,,,,
6638ed323cd2400f1d2b09d4,TCR,2024-06-21_11h46.45.702,LearnStrategy,2023.2.3,Win32,60.24096386,3,1,9,0.110745614,-0.011513158,1,0,0,0.5975,rock_grid_rect_2,1,03,-1,-1,0.597,-0.359649123,-0.239583333,1,0,0,1.7959,Andesite_rect,1,1.796,1,8,0,8,0,1,,,,,,,,,,,,,
6638ed323cd2400f1d2b09d4,TCR,2024-06-21_11h46.45.702,LearnStrategy,2023.2.3,Win32,60.24096386,3,1,10,0.13377193,0.006030702,1,0,0,0.7314,rock_grid_rect_2,3,12,-1,-1,0.731,0.138157895,-0.25877193,1,0,0,1.3717,Diorite_rect,3,1.372,1,9,0,9,0,1,,,,,,,,,,,,,
6638ed323cd2400f1d2b09d4,TCR,2024-06-21_11h46.45.702,LearnStrategy,2023.2.3,Win32,60.24096386,3,1,11,0.117324561,-0.000548246,1,0,0,1.8504,rock_grid_rect_2,4,14,-1,-1,1.85,0.384868421,-0.256030702,1,0,0,1.4553,Gabbro_rect,4,1.455,1,10,0,10,0,1,,,,,,,,,,,,,
6638ed323cd2400f1d2b09d4,TCR,2024-06-21_11h46.45.702,LearnStrategy,2023.2.3,Win32,60.24096386,3,1,12,0.169407895,-0.024122807,1,0,0,0.7312,rock_grid_rect_2,1,11,-1,-1,0.731,0.125548246,-0.266447368,1,0,0,7.9967,Diorite_rect,3,7.997,0,11,0,11,0,1,,,,,,,,,,,,,
6638ed323cd2400f1d2b09d4,TCR,2024-06-21_11h46.45.702,LearnStrategy,2023.2.3,Win32,60.24096386,3,1,13,0.132675439,0.013157895,1,0,0,0.7665,rock_grid_rect_2,3,12,-1,-1,0.767,0.135416667,-0.251644737,1,0,0,6.6598,Diorite_rect,3,6.66,1,12,0,12,0,1,,,,,,,,,,,,,
6638ed323cd2400f1d2b09d4,TCR,2024-06-21_11h46.45.702,LearnStrategy,2023.2.3,Win32,60.24096386,3,1,14,0.040570175,0.002741228,1,0,0,2.3312,rock_grid_rect_2,1,09,-1,-1,2.331,0.380482456,-0.23245614,1,0,0,1.6423,Gabbro_rect,4,1.642,0,13,0,13,0,1,,,,,,,,,,,,,
6638ed323cd2400f1d2b09d4,TCR,2024-06-21_11h46.45.702,LearnStrategy,2023.2.3,Win32,60.24096386,3,1,15,0.069078947,0.003837719,1,0,0,0.9654,rock_grid_rect_2,2,10,-1,-1,0.965,-0.122807018,-0.25,1,0,0,2.2329,Basalt_rect,2,2.233,1,14,0,14,0,1,,,,,,,,,,,,,
6638ed323cd2400f1d2b09d4,TCR,2024-06-21_11h46.45.702,LearnStrategy,2023.2.3,Win32,60.24096386,3,1,16,0.027412281,0.001644737,1,0,0,1.4474,rock_grid_rect_2,8,06,-1,-1,1.447,0.438048246,-0.396381579,1,0,0,1.3548,Pumice_rect,8,1.355,1,15,0,15,0,1,,,,,,,,,,,,,
6638ed323cd2400f1d2b09d4,TCR,2024-06-21_11h46.45.702,LearnStrategy,2023.2.3,Win32,60.24096386,3,2,1,,,,,,,,6,08,,,,,,,,,,,6,1.64,1,,,,,,-0.101425439,-0.413925439,1,0,0,1.6397,Pegmatite_rect,0,0,0,0,1,
6638ed323cd2400f1d2b09d4,TCR,2024-06-21_11h46.45.702,LearnStrategy,2023.2.3,Win32,60.24096386,3,2,2,,,,,,,,8,08,,,,,,,,,,,8,3.093,1,,,,,,0.347039474,-0.405153509,1,0,0,3.0932,Pumice_rect,1,0,1,0,1,
6638ed323cd2400f1d2b09d4,TCR,2024-06-21_11h46.45.702,LearnStrategy,2023.2.3,Win32,60.24096386,3,2,3,,,,,,,,5,11,,,,,,,,,,,5,1.583,1,,,,,,-0.444078947,-0.409539474,1,0,0,1.5831,Obsidian_rect,2,0,2,0,1,
6638ed323cd2400f1d2b09d4,TCR,2024-06-21_11h46.45.702,LearnStrategy,2023.2.3,Win32,60.24096386,3,2,4,,,,,,,,3,11,,,,,,,,,,,3,2.863,1,,,,,,0.078399123,-0.269736842,1,0,0,2.8627,Diorite_rect,3,0,3,0,1,
6638ed323cd2400f1d2b09d4,TCR,2024-06-21_11h46.45.702,LearnStrategy,2023.2.3,Win32,60.24096386,3,2,5,,,,,,,,2,01,,,,,,,,,,,2,2.606,1,,,,,,-0.097587719,-0.245614035,1,0,0,2.6058,Basalt_rect,4,0,4,0,1,
6638ed323cd2400f1d2b09d4,TCR,2024-06-21_11h46.45.702,LearnStrategy,2023.2.3,Win32,60.24096386,3,2,6,,,,,,,,8,04,,,,,,,,,,,8,1.806,1,,,,,,0.444078947,-0.417214912,1,0,0,1.8062,Pumice_rect,5,0,5,0,1,
6638ed323cd2400f1d2b09d4,TCR,2024-06-21_11h46.45.702,LearnStrategy,2023.2.3,Win32,60.24096386,3,2,7,,,,,,,,7,13,,,,,,,,,,,7,1.608,1,,,,,,0.17872807,-0.410087719,1,0,0,1.608,Peridotite_rect,6,0,6,0,1,
6638ed323cd2400f1d2b09d4,TCR,2024-06-21_11h46.45.702,LearnStrategy,2023.2.3,Win32,60.24096386,3,2,8,,,,,,,,2,04,,,,,,,,,,,2,2.264,1,,,,,,-0.077302632,-0.250548246,1,0,0,2.2642,Basalt_rect,7,0,7,0,1,
6638ed323cd2400f1d2b09d4,TCR,2024-06-21_11h46.45.702,LearnStrategy,2023.2.3,Win32,60.24096386,3,2,9,,,,,,,,4,03,,,,,,,,,,,4,1.971,1,,,,,,0.494517544,-0.264254386,1,0,0,1.9714,Gabbro_rect,8,0,8,0,1,
6638ed323cd2400f1d2b09d4,TCR,2024-06-21_11h46.45.702,LearnStrategy,2023.2.3,Win32,60.24096386,3,2,10,,,,,,,,4,09,,,,,,,,,,,4,6.076,1,,,,,,0.432017544,-0.242324561,1,0,0,6.0763,Gabbro_rect,9,0,9,0,1,
6638ed323cd2400f1d2b09d4,TCR,2024-06-21_11h46.45.702,LearnStrategy,2023.2.3,Win32,60.24096386,3,2,11,,,,,,,,6,13,,,,,,,,,,,6,1.773,1,,,,,,-0.128837719,-0.421600877,1,0,0,1.7731,Pegmatite_rect,10,0,10,0,1,
6638ed323cd2400f1d2b09d4,TCR,2024-06-21_11h46.45.702,LearnStrategy,2023.2.3,Win32,60.24096386,3,2,12,,,,,,,,3,08,,,,,,,,,,,3,1.855,1,,,,,,0.146381579,-0.23245614,1,0,0,1.8551,Diorite_rect,11,0,11,0,1,
6638ed323cd2400f1d2b09d4,TCR,2024-06-21_11h46.45.702,LearnStrategy,2023.2.3,Win32,60.24096386,3,2,13,,,,,,,,5,09,,,,,,,,,,,5,1.421,1,,,,,,-0.402412281,-0.399671053,1,0,0,1.4213,Obsidian_rect,12,0,12,0,1,
6638ed323cd2400f1d2b09d4,TCR,2024-06-21_11h46.45.702,LearnStrategy,2023.2.3,Win32,60.24096386,3,2,14,,,,,,,,1,16,,,,,,,,,,,4,2.483,0,,,,,,0.319627193,-0.250548246,1,0,0,2.4831,Gabbro_rect,13,0,13,0,1,
6638ed323cd2400f1d2b09d4,TCR,2024-06-21_11h46.45.702,LearnStrategy,2023.2.3,Win32,60.24096386,3,2,15,,,,,,,,1,10,,,,,,,,,,,4,3.857,0,,,,,,0.32620614,-0.255482456,1,0,0,3.8575,Gabbro_rect,14,0,14,0,1,
6638ed323cd2400f1d2b09d4,TCR,2024-06-21_11h46.45.702,LearnStrategy,2023.2.3,Win32,60.24096386,3,2,16,,,,,,,,7,12,,,,,,,,,,,7,1.358,1,,,,,,0.156798246,-0.394188596,1,0,0,1.3585,Peridotite_rect,15,0,15,0,1,
6638ed323cd2400f1d2b09d4,TCR,2024-06-21_11h46.45.702,LearnStrategy,2023.2.3,Win32,60.24096386,4,1,1,0.052083333,0,1,0,0,2.5829,rock_grid_rect_2,1,05,-1,-1,2.583,-0.402960526,-0.256578947,1,0,0,3.4431,Andesite_rect,1,3.443,1,0,0,0,0,1,,,,,,,,,,,,,
6638ed323cd2400f1d2b09d4,TCR,2024-06-21_11h46.45.702,LearnStrategy,2023.2.3,Win32,60.24096386,4,1,2,0.049890351,0.00877193,1,0,0,1.1481,rock_grid_rect_2,8,15,-1,-1,1.148,0.382127193,-0.415570175,1,0,0,1.4067,Pumice_rect,8,1.407,1,1,0,1,0,1,,,,,,,,,,,,,
6638ed323cd2400f1d2b09d4,TCR,2024-06-21_11h46.45.702,LearnStrategy,2023.2.3,Win32,60.24096386,4,1,3,0.025219298,0.006030702,1,0,0,1.016,rock_grid_rect_2,1,07,-1,-1,1.016,-0.399671053,-0.241776316,1,0,0,2.7393,Andesite_rect,1,2.739,1,2,0,2,0,1,,,,,,,,,,,,,
6638ed323cd2400f1d2b09d4,TCR,2024-06-21_11h46.45.702,LearnStrategy,2023.2.3,Win32,60.24096386,4,1,4,0.003289474,-0.009868421,1,0,0,1.0648,rock_grid_rect_2,2,11,-1,-1,1.065,0.385964912,-0.410635965,1,0,0,3.5853,Pumice_rect,8,3.585,0,3,0,3,0,1,,,,,,,,,,,,,
6638ed323cd2400f1d2b09d4,TCR,2024-06-21_11h46.45.702,LearnStrategy,2023.2.3,Win32,60.24096386,4,1,5,0.019188596,0.009320175,1,0,0,1.749,rock_grid_rect_2,4,05,-1,-1,1.749,0.368421053,-0.265350877,1,0,0,2.5582,Gabbro_rect,4,2.558,1,4,0,4,0,1,,,,,,,,,,,,,
6638ed323cd2400f1d2b09d4,TCR,2024-06-21_11h46.45.702,LearnStrategy,2023.2.3,Win32,60.24096386,4,1,6,-0.002741228,0.006030702,1,0,0,1.0649,rock_grid_rect_2,7,08,-1,-1,1.065,0.132127193,-0.408991228,1,0,0,1.9565,Peridotite_rect,7,1.957,1,5,0,5,0,1,,,,,,,,,,,,,
6638ed323cd2400f1d2b09d4,TCR,2024-06-21_11h46.45.702,LearnStrategy,2023.2.3,Win32,60.24096386,4,1,7,-0.016995614,-0.019736842,1,0,0,1.7655,rock_grid_rect_2,1,09,-1,-1,1.765,0.377192982,-0.253837719,1,0,0,2.6394,Gabbro_rect,4,2.639,0,6,0,6,0,1,,,,,,,,,,,,,
6638ed323cd2400f1d2b09d4,TCR,2024-06-21_11h46.45.702,LearnStrategy,2023.2.3,Win32,60.24096386,4,1,8,0.058662281,-0.021381579,1,0,0,1.0621,rock_grid_rect_2,3,15,-1,-1,1.062,0.364583333,-0.246162281,1,0,0,1.9457,Gabbro_rect,4,1.946,0,7,0,7,0,1,,,,,,,,,,,,,
6638ed323cd2400f1d2b09d4,TCR,2024-06-21_11h46.45.702,LearnStrategy,2023.2.3,Win32,60.24096386,4,1,9,0.026315789,0.004385965,1,0,0,0.9816,rock_grid_rect_2,4,08,-1,-1,0.982,0.383223684,-0.235745614,1,0,0,2.259,Gabbro_rect,4,2.259,1,8,0,8,0,1,,,,,,,,,,,,,
6638ed323cd2400f1d2b09d4,TCR,2024-06-21_11h46.45.702,LearnStrategy,2023.2.3,Win32,60.24096386,4,1,10,0.087171053,-0.024671053,1,0,0,1.1321,rock_grid_rect_2,3,12,-1,-1,1.132,0.157894737,-0.247807018,1,0,0,1.4406,Diorite_rect,3,1.441,1,9,0,9,0,1,,,,,,,,,,,,,
6638ed323cd2400f1d2b09d4,TCR,2024-06-21_11h46.45.702,LearnStrategy,2023.2.3,Win32,60.24096386,4,1,11,0.007675439,0.012061404,1,0,0,0.9477,rock_grid_rect_2,1,11,-1,-1,0.948,-0.402960526,-0.266447368,1,0,0,6.8247,Andesite_rect,1,6.825,1,10,0,10,0,1,,,,,,,,,,,,,
6638ed323cd2400f1d2b09d4,TCR,2024-06-21_11h46.45.702,LearnStrategy,2023.2.3,Win32,60.24096386,4,1,12,0.010964912,-0.001096491,1,0,0,1.1812,rock_grid_rect_2,6,06,-1,-1,1.181,-0.133223684,-0.400767544,1,0,0,2.5567,Pegmatite_rect,6,2.557,1,11,0,11,0,1,,,,,,,,,,,,,
6638ed323cd2400f1d2b09d4,TCR,2024-06-21_11h46.45.702,LearnStrategy,2023.2.3,Win32,60.24096386,4,1,13,0.020285088,-0.013157895,1,0,0,0.8652,rock_grid_rect_2,2,09,-1,-1,0.865,0.314144737,-0.271381579,1,0,0,3.1893,Gabbro_rect,4,3.189,0,12,0,12,0,1,,,,,,,,,,,,,
6638ed323cd2400f1d2b09d4,TCR,2024-06-21_11h46.45.702,LearnStrategy,2023.2.3,Win32,60.24096386,4,1,14,0.033442982,-0.020285088,1,0,0,0.9981,rock_grid_rect_2,1,03,-1,-1,0.998,-0.377741228,-0.242872807,1,0,0,1.8227,Andesite_rect,1,1.823,1,13,0,13,0,1,,,,,,,,,,,,,
6638ed323cd2400f1d2b09d4,TCR,2024-06-21_11h46.45.702,LearnStrategy,2023.2.3,Win32,60.24096386,4,1,15,0.008223684,0.010964912,1,0,0,0.7975,rock_grid_rect_2,5,14,-1,-1,0.798,-0.40625,-0.402960526,1,0,0,1.3917,Obsidian_rect,5,1.392,1,14,0,14,0,1,,,,,,,,,,,,,
6638ed323cd2400f1d2b09d4,TCR,2024-06-21_11h46.45.702,LearnStrategy,2023.2.3,Win32,60.24096386,4,1,16,0.010416667,-0.005482456,1,0,0,0.8308,rock_grid_rect_2,1,11,-1,-1,0.831,-0.336074561,-0.26754386,1,0,0,1.3729,Andesite_rect,1,1.373,1,15,0,15,0,1,,,,,,,,,,,,,
6638ed323cd2400f1d2b09d4,TCR,2024-06-21_11h46.45.702,LearnStrategy,2023.2.3,Win32,60.24096386,4,2,1,,,,,,,,3,07,,,,,,,,,,,3,3.471,1,,,,,,0.129385965,-0.237390351,1,0,0,3.4714,Diorite_rect,0,0,0,0,1,
6638ed323cd2400f1d2b09d4,TCR,2024-06-21_11h46.45.702,LearnStrategy,2023.2.3,Win32,60.24096386,4,2,2,,,,,,,,2,04,,,,,,,,,,,2,1.807,1,,,,,,-0.091557018,-0.250548246,1,0,0,1.8073,Basalt_rect,1,0,1,0,1,
6638ed323cd2400f1d2b09d4,TCR,2024-06-21_11h46.45.702,LearnStrategy,2023.2.3,Win32,60.24096386,4,2,3,,,,,,,,2,12,,,,,,,,,,,2,4.053,1,,,,,,-0.099232456,-0.243421053,1,0,0,4.0531,Basalt_rect,2,0,2,0,1,
6638ed323cd2400f1d2b09d4,TCR,2024-06-21_11h46.45.702,LearnStrategy,2023.2.3,Win32,60.24096386,4,2,4,,,,,,,,5,02,,,,,,,,,,,5,1.495,1,,,,,,-0.407894737,-0.412280702,1,0,0,1.4945,Obsidian_rect,3,0,3,0,1,
6638ed323cd2400f1d2b09d4,TCR,2024-06-21_11h46.45.702,LearnStrategy,2023.2.3,Win32,60.24096386,4,2,5,,,,,,,,6,05,,,,,,,,,,,6,4.375,1,,,,,,-0.051535088,-0.415570175,1,0,0,4.3745,Pegmatite_rect,4,0,4,0,1,
6638ed323cd2400f1d2b09d4,TCR,2024-06-21_11h46.45.702,LearnStrategy,2023.2.3,Win32,60.24096386,4,2,6,,,,,,,,7,05,,,,,,,,,,,7,1.638,1,,,,,,0.162280702,-0.399122807,1,0,0,1.6381,Peridotite_rect,5,0,5,0,1,
6638ed323cd2400f1d2b09d4,TCR,2024-06-21_11h46.45.702,LearnStrategy,2023.2.3,Win32,60.24096386,4,2,7,,,,,,,,1,01,,,,,,,,,,,1,3.823,1,,,,,,-0.353070175,-0.241776316,1,0,0,3.823,Andesite_rect,6,0,6,0,1,
6638ed323cd2400f1d2b09d4,TCR,2024-06-21_11h46.45.702,LearnStrategy,2023.2.3,Win32,60.24096386,4,2,8,,,,,,,,1,16,,,,,,,,,,,4,2.01,0,,,,,,0.416666667,-0.264802632,1,0,0,2.0096,Gabbro_rect,7,0,7,0,1,
6638ed323cd2400f1d2b09d4,TCR,2024-06-21_11h46.45.702,LearnStrategy,2023.2.3,Win32,60.24096386,4,2,9,,,,,,,,5,16,,,,,,,,,,,5,1.672,1,,,,,,-0.39254386,-0.410635965,1,0,0,1.6719,Obsidian_rect,8,0,8,0,1,
6638ed323cd2400f1d2b09d4,TCR,2024-06-21_11h46.45.702,LearnStrategy,2023.2.3,Win32,60.24096386,4,2,10,,,,,,,,8,08,,,,,,,,,,,8,1.504,1,,,,,,0.389254386,-0.400219298,1,0,0,1.5041,Pumice_rect,9,0,9,0,1,
6638ed323cd2400f1d2b09d4,TCR,2024-06-21_11h46.45.702,LearnStrategy,2023.2.3,Win32,60.24096386,4,2,11,,,,,,,,7,10,,,,,,,,,,,7,1.265,1,,,,,,0.125,-0.401315789,1,0,0,1.2653,Peridotite_rect,10,0,10,0,1,
6638ed323cd2400f1d2b09d4,TCR,2024-06-21_11h46.45.702,LearnStrategy,2023.2.3,Win32,60.24096386,4,2,12,,,,,,,,8,03,,,,,,,,,,,8,1.605,1,,,,,,0.373355263,-0.414473684,1,0,0,1.6053,Pumice_rect,11,0,11,0,1,
6638ed323cd2400f1d2b09d4,TCR,2024-06-21_11h46.45.702,LearnStrategy,2023.2.3,Win32,60.24096386,4,2,13,,,,,,,,4,16,,,,,,,,,,,4,3.654,1,,,,,,0.369517544,-0.23629386,1,0,0,3.6539,Gabbro_rect,12,0,12,0,1,
6638ed323cd2400f1d2b09d4,TCR,2024-06-21_11h46.45.702,LearnStrategy,2023.2.3,Win32,60.24096386,4,2,14,,,,,,,,6,16,,,,,,,,,,,6,1.576,1,,,,,,-0.094846491,-0.396929825,1,0,0,1.5758,Pegmatite_rect,13,0,13,0,1,
6638ed323cd2400f1d2b09d4,TCR,2024-06-21_11h46.45.702,LearnStrategy,2023.2.3,Win32,60.24096386,4,2,15,,,,,,,,4,10,,,,,,,,,,,4,3.438,1,,,,,,0.422149123,-0.243421053,1,0,0,3.4383,Gabbro_rect,14,0,14,0,1,
6638ed323cd2400f1d2b09d4,TCR,2024-06-21_11h46.45.702,LearnStrategy,2023.2.3,Win32,60.24096386,4,2,16,,,,,,,,3,02,,,,,,,,,,,3,1.273,1,,,,,,0.125548246,-0.25877193,1,0,0,1.273,Diorite_rect,15,0,15,0,1,
6638ed323cd2400f1d2b09d4,TCR,2024-06-21_11h46.45.702,LearnStrategy,2023.2.3,Win32,60.24096386,5,1,1,0.020285088,-0.009868421,1,0,0,2.1993,rock_grid_rect_2,2,08,-1,-1,2.199,-0.137061404,-0.242324561,1,0,0,1.3812,Basalt_rect,2,1.381,1,0,0,0,0,1,,,,,,,,,,,,,
6638ed323cd2400f1d2b09d4,TCR,2024-06-21_11h46.45.702,LearnStrategy,2023.2.3,Win32,60.24096386,5,1,2,-0.029605263,0.007127193,1,0,0,1.8636,rock_grid_rect_2,1,14,-1,-1,1.864,-0.104714912,-0.378289474,1,0,0,2.9419,Pegmatite_rect,6,2.942,0,1,0,1,0,1,,,,,,,,,,,,,
6638ed323cd2400f1d2b09d4,TCR,2024-06-21_11h46.45.702,LearnStrategy,2023.2.3,Win32,60.24096386,5,1,3,-0.004385965,-0.012061404,1,0,0,1.0983,rock_grid_rect_2,1,14,-1,-1,1.098,-0.412828947,-0.235745614,1,0,0,1.9793,Andesite_rect,1,1.979,1,2,0,2,0,1,,,,,,,,,,,,,
6638ed323cd2400f1d2b09d4,TCR,2024-06-21_11h46.45.702,LearnStrategy,2023.2.3,Win32,60.24096386,5,1,4,0.074561404,0.000548246,1,0,0,1.0817,rock_grid_rect_2,1,09,-1,-1,1.082,-0.340460526,-0.256030702,1,0,0,3.9488,Andesite_rect,1,3.949,1,3,0,3,0,1,,,,,,,,,,,,,
6638ed323cd2400f1d2b09d4,TCR,2024-06-21_11h46.45.702,LearnStrategy,2023.2.3,Win32,60.24096386,5,1,5,0.059210526,-0.002192982,1,0,0,1.1813,rock_grid_rect_2,1,11,-1,-1,1.181,-0.376644737,-0.250548246,1,0,0,1.278,Andesite_rect,1,1.278,1,4,0,4,0,1,,,,,,,,,,,,,
6638ed323cd2400f1d2b09d4,TCR,2024-06-21_11h46.45.702,LearnStrategy,2023.2.3,Win32,60.24096386,5,1,6,-0.001644737,0.002192982,1,0,0,0.8311,rock_grid_rect_2,3,14,-1,-1,0.831,0.111842105,-0.260416667,1,0,0,1.5904,Diorite_rect,3,1.59,1,5,0,5,0,1,,,,,,,,,,,,,
6638ed323cd2400f1d2b09d4,TCR,2024-06-21_11h46.45.702,LearnStrategy,2023.2.3,Win32,60.24096386,5,1,7,0.024671053,-0.010416667,1,0,0,1.0146,rock_grid_rect_2,5,05,-1,-1,1.015,-0.363486842,-0.396381579,1,0,0,2.2132,Obsidian_rect,5,2.213,1,6,0,6,0,1,,,,,,,,,,,,,
6638ed323cd2400f1d2b09d4,TCR,2024-06-21_11h46.45.702,LearnStrategy,2023.2.3,Win32,60.24096386,5,1,8,-0.032346491,-0.010416667,1,0,0,0.7649,rock_grid_rect_2,3,14,-1,-1,0.765,0.121710526,-0.237390351,1,0,0,1.8236,Diorite_rect,3,1.824,1,7,0,7,0,1,,,,,,,,,,,,,
6638ed323cd2400f1d2b09d4,TCR,2024-06-21_11h46.45.702,LearnStrategy,2023.2.3,Win32,60.24096386,5,1,9,0.01370614,0.018092105,1,0,0,0.8969,rock_grid_rect_2,1,11,-1,-1,0.897,-0.379934211,-0.247258772,1,0,0,1.2387,Andesite_rect,1,1.239,1,8,0,8,0,1,,,,,,,,,,,,,
6638ed323cd2400f1d2b09d4,TCR,2024-06-21_11h46.45.702,LearnStrategy,2023.2.3,Win32,60.24096386,5,1,10,-0.003837719,-0.008223684,1,0,0,1.0135,rock_grid_rect_2,6,12,-1,-1,1.014,-0.094298246,-0.413377193,1,0,0,1.3905,Pegmatite_rect,6,1.39,1,9,0,9,0,1,,,,,,,,,,,,,
6638ed323cd2400f1d2b09d4,TCR,2024-06-21_11h46.45.702,LearnStrategy,2023.2.3,Win32,60.24096386,5,1,11,0.04002193,-0.015899123,1,0,0,0.7983,rock_grid_rect_2,1,07,-1,-1,0.798,-0.358552632,-0.259320175,1,0,0,3.9067,Andesite_rect,1,3.907,1,10,0,10,0,1,,,,,,,,,,,,,
6638ed323cd2400f1d2b09d4,TCR,2024-06-21_11h46.45.702,LearnStrategy,2023.2.3,Win32,60.24096386,5,1,12,0.07127193,-0.011513158,1,0,0,0.7813,rock_grid_rect_2,7,16,-1,-1,0.781,0.101973684,-0.406798246,1,0,0,1.7368,Peridotite_rect,7,1.737,1,11,0,11,0,1,,,,,,,,,,,,,
6638ed323cd2400f1d2b09d4,TCR,2024-06-21_11h46.45.702,LearnStrategy,2023.2.3,Win32,60.24096386,5,1,13,0.077850877,0.003837719,1,0,0,0.9979,rock_grid_rect_2,4,05,-1,-1,0.998,0.355811404,-0.243421053,1,0,0,2.4388,Gabbro_rect,4,2.439,1,12,0,12,0,1,,,,,,,,,,,,,
6638ed323cd2400f1d2b09d4,TCR,2024-06-21_11h46.45.702,LearnStrategy,2023.2.3,Win32,60.24096386,5,1,14,0.01370614,-0.01370614,1,0,0,0.8476,rock_grid_rect_2,4,12,-1,-1,0.848,-0.101973684,-0.257127193,1,0,0,3.3234,Basalt_rect,2,3.323,0,13,0,13,0,1,,,,,,,,,,,,,
6638ed323cd2400f1d2b09d4,TCR,2024-06-21_11h46.45.702,LearnStrategy,2023.2.3,Win32,60.24096386,5,1,15,0.020285088,-0.009320175,1,0,0,0.7975,rock_grid_rect_2,2,14,-1,-1,0.798,0.394188596,-0.390899123,1,0,0,1.9302,Pumice_rect,8,1.93,0,14,0,14,0,1,,,,,,,,,,,,,
6638ed323cd2400f1d2b09d4,TCR,2024-06-21_11h46.45.702,LearnStrategy,2023.2.3,Win32,60.24096386,5,1,16,-0.009320175,0.010964912,1,0,0,0.8984,rock_grid_rect_2,8,02,-1,-1,0.898,0.417214912,-0.383223684,1,0,0,1.488,Pumice_rect,8,1.488,1,15,0,15,0,1,,,,,,,,,,,,,
6638ed323cd2400f1d2b09d4,TCR,2024-06-21_11h46.45.702,LearnStrategy,2023.2.3,Win32,60.24096386,5,2,1,,,,,,,,8,16,,,,,,,,,,,8,1.873,1,,,,,,0.369517544,-0.405153509,1,0,0,1.873,Pumice_rect,0,0,0,0,1,
6638ed323cd2400f1d2b09d4,TCR,2024-06-21_11h46.45.702,LearnStrategy,2023.2.3,Win32,60.24096386,5,2,2,,,,,,,,3,08,,,,,,,,,,,3,1.759,1,,,,,,0.130482456,-0.266447368,1,0,0,1.7593,Diorite_rect,1,0,1,0,1,
6638ed323cd2400f1d2b09d4,TCR,2024-06-21_11h46.45.702,LearnStrategy,2023.2.3,Win32,60.24096386,5,2,3,,,,,,,,4,09,,,,,,,,,,,2,2.192,0,,,,,,-0.133223684,-0.243969298,1,0,0,2.1915,Basalt_rect,2,0,2,0,1,
6638ed323cd2400f1d2b09d4,TCR,2024-06-21_11h46.45.702,LearnStrategy,2023.2.3,Win32,60.24096386,5,2,4,,,,,,,,6,09,,,,,,,,,,,6,2.405,1,,,,,,-0.13870614,-0.390899123,1,0,0,2.4052,Pegmatite_rect,3,0,3,0,1,
6638ed323cd2400f1d2b09d4,TCR,2024-06-21_11h46.45.702,LearnStrategy,2023.2.3,Win32,60.24096386,5,2,5,,,,,,,,7,12,,,,,,,,,,,7,1.642,1,,,,,,0.11129386,-0.410635965,1,0,0,1.6417,Peridotite_rect,4,0,4,0,1,
6638ed323cd2400f1d2b09d4,TCR,2024-06-21_11h46.45.702,LearnStrategy,2023.2.3,Win32,60.24096386,5,2,6,,,,,,,,8,05,,,,,,,,,,,8,1.421,1,,,,,,0.362938596,-0.393092105,1,0,0,1.4214,Pumice_rect,5,0,5,0,1,
6638ed323cd2400f1d2b09d4,TCR,2024-06-21_11h46.45.702,LearnStrategy,2023.2.3,Win32,60.24096386,5,2,7,,,,,,,,1,04,,,,,,,,,,,4,3.123,0,,,,,,0.358004386,-0.25,1,0,0,3.123,Gabbro_rect,6,0,6,0,1,
6638ed323cd2400f1d2b09d4,TCR,2024-06-21_11h46.45.702,LearnStrategy,2023.2.3,Win32,60.24096386,5,2,8,,,,,,,,2,01,,,,,,,,,,,2,1.593,1,,,,,,-0.118421053,-0.246710526,1,0,0,1.593,Basalt_rect,7,0,7,0,1,
6638ed323cd2400f1d2b09d4,TCR,2024-06-21_11h46.45.702,LearnStrategy,2023.2.3,Win32,60.24096386,5,2,9,,,,,,,,6,11,,,,,,,,,,,6,2.082,1,,,,,,-0.119517544,-0.402960526,1,0,0,2.0815,Pegmatite_rect,8,0,8,0,1,
6638ed323cd2400f1d2b09d4,TCR,2024-06-21_11h46.45.702,LearnStrategy,2023.2.3,Win32,60.24096386,5,2,10,,,,,,,,5,09,,,,,,,,,,,5,1.938,1,,,,,,-0.377192982,-0.393092105,1,0,0,1.9385,Obsidian_rect,9,0,9,0,1,
6638ed323cd2400f1d2b09d4,TCR,2024-06-21_11h46.45.702,LearnStrategy,2023.2.3,Win32,60.24096386,5,2,11,,,,,,,,3,13,,,,,,,,,,,3,3.007,1,,,,,,0.152960526,-0.256578947,1,0,0,3.0069,Diorite_rect,10,0,10,0,1,
6638ed323cd2400f1d2b09d4,TCR,2024-06-21_11h46.45.702,LearnStrategy,2023.2.3,Win32,60.24096386,5,2,12,,,,,,,,4,13,,,,,,,,,,,1,8.73,0,,,,,,-0.390350877,-0.260416667,1,0,0,8.7296,Andesite_rect,11,0,11,0,1,
6638ed323cd2400f1d2b09d4,TCR,2024-06-21_11h46.45.702,LearnStrategy,2023.2.3,Win32,60.24096386,5,2,13,,,,,,,,2,16,,,,,,,,,,,2,1.409,1,,,,,,-0.152412281,-0.264802632,1,0,0,1.4086,Basalt_rect,12,0,12,0,1,
6638ed323cd2400f1d2b09d4,TCR,2024-06-21_11h46.45.702,LearnStrategy,2023.2.3,Win32,60.24096386,5,2,14,,,,,,,,5,06,,,,,,,,,,,5,1.271,1,,,,,,-0.402412281,-0.384868421,1,0,0,1.2712,Obsidian_rect,13,0,13,0,1,
6638ed323cd2400f1d2b09d4,TCR,2024-06-21_11h46.45.702,LearnStrategy,2023.2.3,Win32,60.24096386,5,2,15,,,,,,,,7,02,,,,,,,,,,,7,1.337,1,,,,,,0.150767544,-0.405701754,1,0,0,1.3374,Peridotite_rect,14,0,14,0,1,
6638ed323cd2400f1d2b09d4,TCR,2024-06-21_11h46.45.702,LearnStrategy,2023.2.3,Win32,60.24096386,5,2,16,,,,,,,,1,02,,,,,,,,,,,1,5.315,1,,,,,,-0.342105263,-0.230263158,1,0,0,5.3145,Andesite_rect,15,0,15,0,1,
6638ed323cd2400f1d2b09d4,TCR,2024-06-21_11h46.45.702,LearnStrategy,2023.2.3,Win32,60.24096386,6,1,1,0.033442982,-0.004934211,1,0,0,1.7155,rock_grid_rect_2,4,11,-1,-1,1.716,-0.097039474,-0.259320175,1,0,0,2.3956,Basalt_rect,2,2.396,0,0,0,0,0,1,,,,,,,,,,,,,
6638ed323cd2400f1d2b09d4,TCR,2024-06-21_11h46.45.702,LearnStrategy,2023.2.3,Win32,60.24096386,6,1,2,-0.028508772,-0.009868421,1,0,0,1.1322,rock_grid_rect_2,4,08,-1,-1,1.132,-0.119517544,-0.236842105,1,0,0,2.0398,Basalt_rect,2,2.04,0,1,0,1,0,1,,,,,,,,,,,,,
6638ed323cd2400f1d2b09d4,TCR,2024-06-21_11h46.45.702,LearnStrategy,2023.2.3,Win32,60.24096386,6,1,3,-0.049342105,-0.009320175,1,0,0,1.1491,rock_grid_rect_2,1,11,-1,-1,1.149,-0.385416667,-0.242324561,1,0,0,1.3378,Andesite_rect,1,1.338,1,2,0,2,0,1,,,,,,,,,,,,,
6638ed323cd2400f1d2b09d4,TCR,2024-06-21_11h46.45.702,LearnStrategy,2023.2.3,Win32,60.24096386,6,1,4,-0.023026316,-0.012609649,1,0,0,0.8315,rock_grid_rect_2,8,10,-1,-1,0.832,0.421052632,-0.396381579,1,0,0,1.5048,Pumice_rect,8,1.505,1,3,0,3,0,1,,,,,,,,,,,,,
6638ed323cd2400f1d2b09d4,TCR,2024-06-21_11h46.45.702,LearnStrategy,2023.2.3,Win32,60.24096386,6,1,5,0.014254386,-0.019188596,1,0,0,1.216,rock_grid_rect_2,1,07,-1,-1,1.216,-0.378837719,-0.26754386,1,0,0,3.1218,Andesite_rect,1,3.122,1,4,0,4,0,1,,,,,,,,,,,,,
6638ed323cd2400f1d2b09d4,TCR,2024-06-21_11h46.45.702,LearnStrategy,2023.2.3,Win32,60.24096386,6,1,6,0.014802632,-0.009320175,1,0,0,1.1154,rock_grid_rect_2,6,03,-1,-1,1.115,-0.113486842,-0.40625,1,0,0,1.4096,Pegmatite_rect,6,1.41,1,5,0,5,0,1,,,,,,,,,,,,,
6638ed323cd2400f1d2b09d4,TCR,2024-06-21_11h46.45.702,LearnStrategy,2023.2.3,Win32,60.24096386,6,1,7,-0.004385965,0.010416667,1,0,0,0.9484,rock_grid_rect_2,3,14,-1,-1,0.948,0.131030702,-0.259320175,1,0,0,1.574,Diorite_rect,3,1.574,1,6,0,6,0,1,,,,,,,,,,,,,
6638ed323cd2400f1d2b09d4,TCR,2024-06-21_11h46.45.702,LearnStrategy,2023.2.3,Win32,60.24096386,6,1,8,-0.015899123,-0.01370614,1,0,0,0.8312,rock_grid_rect_2,1,03,-1,-1,0.831,-0.370065789,-0.265350877,1,0,0,1.322,Andesite_rect,1,1.322,1,7,0,7,0,1,,,,,,,,,,,,,
6638ed323cd2400f1d2b09d4,TCR,2024-06-21_11h46.45.702,LearnStrategy,2023.2.3,Win32,60.24096386,6,1,9,0.019188596,0.006578947,1,0,0,0.8643,rock_grid_rect_2,1,14,-1,-1,0.864,-0.098684211,-0.391447368,1,0,0,2.4569,Pegmatite_rect,6,2.457,0,8,0,8,0,1,,,,,,,,,,,,,
6638ed323cd2400f1d2b09d4,TCR,2024-06-21_11h46.45.702,LearnStrategy,2023.2.3,Win32,60.24096386,6,1,10,0.015899123,-0.011513158,1,0,0,1.1812,rock_grid_rect_2,2,11,-1,-1,1.181,-0.108552632,-0.260416667,1,0,0,1.3482,Basalt_rect,2,1.348,1,9,0,9,0,1,,,,,,,,,,,,,
6638ed323cd2400f1d2b09d4,TCR,2024-06-21_11h46.45.702,LearnStrategy,2023.2.3,Win32,60.24096386,6,1,11,0.002192982,0.001096491,1,0,0,0.764,rock_grid_rect_2,4,01,-1,-1,0.764,0.405153509,-0.268640351,1,0,0,2.3775,Gabbro_rect,4,2.378,1,10,0,10,0,1,,,,,,,,,,,,,
6638ed323cd2400f1d2b09d4,TCR,2024-06-21_11h46.45.702,LearnStrategy,2023.2.3,Win32,60.24096386,6,1,12,-0.041666667,0.01370614,1,0,0,0.6981,rock_grid_rect_2,5,12,-1,-1,0.698,-0.373903509,-0.396929825,1,0,0,1.4394,Obsidian_rect,5,1.439,1,11,0,11,0,1,,,,,,,,,,,,,
6638ed323cd2400f1d2b09d4,TCR,2024-06-21_11h46.45.702,LearnStrategy,2023.2.3,Win32,60.24096386,6,1,13,-0.003837719,-0.009320175,1,0,0,0.798,rock_grid_rect_2,1,09,-1,-1,0.798,0.379934211,-0.247258772,1,0,0,1.6552,Gabbro_rect,4,1.655,0,12,0,12,0,1,,,,,,,,,,,,,
6638ed323cd2400f1d2b09d4,TCR,2024-06-21_11h46.45.702,LearnStrategy,2023.2.3,Win32,60.24096386,6,1,14,-0.00877193,-0.007675439,1,0,0,1.3494,rock_grid_rect_2,7,16,-1,-1,1.349,0.149122807,-0.382675439,1,0,0,1.2222,Peridotite_rect,7,1.222,1,13,0,13,0,1,,,,,,,,,,,,,
6638ed323cd2400f1d2b09d4,TCR,2024-06-21_11h46.45.702,LearnStrategy,2023.2.3,Win32,60.24096386,6,1,15,-0.040570175,-0.016995614,1,0,0,0.7817,rock_grid_rect_2,2,09,-1,-1,0.782,0.353070175,-0.247807018,1,0,0,2.1726,Gabbro_rect,4,2.173,0,14,0,14,0,1,,,,,,,,,,,,,
6638ed323cd2400f1d2b09d4,TCR,2024-06-21_11h46.45.702,LearnStrategy,2023.2.3,Win32,60.24096386,6,1,16,-0.047697368,0.001096491,1,0,0,0.7479,rock_grid_rect_2,4,01,-1,-1,0.748,0.367324561,-0.266995614,1,0,0,1.8398,Gabbro_rect,4,1.84,1,15,0,15,0,1,,,,,,,,,,,,,
6638ed323cd2400f1d2b09d4,TCR,2024-06-21_11h46.45.702,LearnStrategy,2023.2.3,Win32,60.24096386,6,2,1,,,,,,,,2,02,,,,,,,,,,,4,7.348,0,,,,,,0.395285088,-0.242324561,1,0,0,7.3483,Gabbro_rect,0,0,0,0,1,
6638ed323cd2400f1d2b09d4,TCR,2024-06-21_11h46.45.702,LearnStrategy,2023.2.3,Win32,60.24096386,6,2,2,,,,,,,,3,10,,,,,,,,,,,3,3.514,1,,,,,,0.122807018,-0.269736842,1,0,0,3.514,Diorite_rect,1,0,1,0,1,
6638ed323cd2400f1d2b09d4,TCR,2024-06-21_11h46.45.702,LearnStrategy,2023.2.3,Win32,60.24096386,6,2,3,,,,,,,,8,04,,,,,,,,,,,8,1.422,1,,,,,,0.370065789,-0.413377193,1,0,0,1.4221,Pumice_rect,2,0,2,0,1,
6638ed323cd2400f1d2b09d4,TCR,2024-06-21_11h46.45.702,LearnStrategy,2023.2.3,Win32,60.24096386,6,2,4,,,,,,,,5,11,,,,,,,,,,,5,1.421,1,,,,,,-0.413925439,-0.411184211,1,0,0,1.4212,Obsidian_rect,3,0,3,0,1,
6638ed323cd2400f1d2b09d4,TCR,2024-06-21_11h46.45.702,LearnStrategy,2023.2.3,Win32,60.24096386,6,2,5,,,,,,,,1,06,,,,,,,,,,,1,1.404,1,,,,,,-0.421600877,-0.245065789,1,0,0,1.4042,Andesite_rect,4,0,4,0,1,
6638ed323cd2400f1d2b09d4,TCR,2024-06-21_11h46.45.702,LearnStrategy,2023.2.3,Win32,60.24096386,6,2,6,,,,,,,,2,05,,,,,,,,,,,2,1.479,1,,,,,,-0.184758772,-0.243969298,1,0,0,1.4795,Basalt_rect,5,0,5,0,1,
6638ed323cd2400f1d2b09d4,TCR,2024-06-21_11h46.45.702,LearnStrategy,2023.2.3,Win32,60.24096386,6,2,7,,,,,,,,5,04,,,,,,,,,,,5,1.251,1,,,,,,-0.373355263,-0.393092105,1,0,0,1.2508,Obsidian_rect,6,0,6,0,1,
6638ed323cd2400f1d2b09d4,TCR,2024-06-21_11h46.45.702,LearnStrategy,2023.2.3,Win32,60.24096386,6,2,8,,,,,,,,7,14,,,,,,,,,,,7,1.443,1,,,,,,0.087719298,-0.412828947,1,0,0,1.4429,Peridotite_rect,7,0,7,0,1,
6638ed323cd2400f1d2b09d4,TCR,2024-06-21_11h46.45.702,LearnStrategy,2023.2.3,Win32,60.24096386,6,2,9,,,,,,,,8,13,,,,,,,,,,,8,1.461,1,,,,,,0.355811404,-0.396929825,1,0,0,1.4607,Pumice_rect,8,0,8,0,1,
6638ed323cd2400f1d2b09d4,TCR,2024-06-21_11h46.45.702,LearnStrategy,2023.2.3,Win32,60.24096386,6,2,10,,,,,,,,3,11,,,,,,,,,,,3,2.256,1,,,,,,0.108004386,-0.238486842,1,0,0,2.2557,Diorite_rect,9,0,9,0,1,
6638ed323cd2400f1d2b09d4,TCR,2024-06-21_11h46.45.702,LearnStrategy,2023.2.3,Win32,60.24096386,6,2,11,,,,,,,,6,13,,,,,,,,,,,6,1.59,1,,,,,,-0.098684211,-0.402960526,1,0,0,1.59,Pegmatite_rect,10,0,10,0,1,
6638ed323cd2400f1d2b09d4,TCR,2024-06-21_11h46.45.702,LearnStrategy,2023.2.3,Win32,60.24096386,6,2,12,,,,,,,,4,03,,,,,,,,,,,4,1.873,1,,,,,,0.341557018,-0.256578947,1,0,0,1.8727,Gabbro_rect,11,0,11,0,1,
6638ed323cd2400f1d2b09d4,TCR,2024-06-21_11h46.45.702,LearnStrategy,2023.2.3,Win32,60.24096386,6,2,13,,,,,,,,6,08,,,,,,,,,,,6,1.338,1,,,,,,-0.104714912,-0.415570175,1,0,0,1.3377,Pegmatite_rect,12,0,12,0,1,
6638ed323cd2400f1d2b09d4,TCR,2024-06-21_11h46.45.702,LearnStrategy,2023.2.3,Win32,60.24096386,6,2,14,,,,,,,,4,15,,,,,,,,,,,4,2.424,1,,,,,,0.35745614,-0.263157895,1,0,0,2.4239,Gabbro_rect,13,0,13,0,1,
6638ed323cd2400f1d2b09d4,TCR,2024-06-21_11h46.45.702,LearnStrategy,2023.2.3,Win32,60.24096386,6,2,15,,,,,,,,7,13,,,,,,,,,,,7,1.113,1,,,,,,0.181469298,-0.385964912,1,0,0,1.1133,Peridotite_rect,14,0,14,0,1,
6638ed323cd2400f1d2b09d4,TCR,2024-06-21_11h46.45.702,LearnStrategy,2023.2.3,Win32,60.24096386,6,2,16,,,,,,,,1,10,,,,,,,,,,,1,2.755,1,,,,,,-0.355263158,-0.242324561,1,0,0,2.7546,Andesite_rect,15,0,15,0,1,
6638ed323cd2400f1d2b09d4,TCR,2024-06-21_11h46.45.702,LearnStrategy,2023.2.3,Win32,60.24096386,7,1,1,0.095942982,-0.000548246,1,0,0,2.1758,rock_grid_rect_2,5,08,-1,-1,2.176,-0.402412281,-0.396381579,1,0,0,1.7726,Obsidian_rect,5,1.773,1,0,0,0,0,1,,,,,,,,,,,,,
6638ed323cd2400f1d2b09d4,TCR,2024-06-21_11h46.45.702,LearnStrategy,2023.2.3,Win32,60.24096386,7,1,2,0.10745614,0.010964912,1,0,0,0.813,rock_grid_rect_2,1,09,-1,-1,0.813,-0.123903509,-0.252741228,1,0,0,2.8572,Basalt_rect,2,2.857,0,1,0,1,0,1,,,,,,,,,,,,,
6638ed323cd2400f1d2b09d4,TCR,2024-06-21_11h46.45.702,LearnStrategy,2023.2.3,Win32,60.24096386,7,1,3,0.095942982,-0.006030702,1,0,0,0.8168,rock_grid_rect_2,7,04,-1,-1,0.817,0.130482456,-0.408991228,1,0,0,1.488,Peridotite_rect,7,1.488,1,2,0,2,0,1,,,,,,,,,,,,,
6638ed323cd2400f1d2b09d4,TCR,2024-06-21_11h46.45.702,LearnStrategy,2023.2.3,Win32,60.24096386,7,1,4,0.115679825,0.006030702,1,0,0,0.8831,rock_grid_rect_2,1,11,-1,-1,0.883,-0.35252193,-0.234100877,1,0,0,1.4227,Andesite_rect,1,1.423,1,3,0,3,0,1,,,,,,,,,,,,,
6638ed323cd2400f1d2b09d4,TCR,2024-06-21_11h46.45.702,LearnStrategy,2023.2.3,Win32,60.24096386,7,1,5,0.11129386,0.001096491,1,0,0,0.7491,rock_grid_rect_2,2,10,-1,-1,0.749,-0.135964912,-0.260964912,1,0,0,1.1181,Basalt_rect,2,1.118,1,4,0,4,0,1,,,,,,,,,,,,,
6638ed323cd2400f1d2b09d4,TCR,2024-06-21_11h46.45.702,LearnStrategy,2023.2.3,Win32,60.24096386,7,1,6,0.082785088,0.016995614,1,0,0,0.713,rock_grid_rect_2,2,11,-1,-1,0.713,0.401315789,-0.248903509,1,0,0,2.7427,Gabbro_rect,4,2.743,0,5,0,5,0,1,,,,,,,,,,,,,
6638ed323cd2400f1d2b09d4,TCR,2024-06-21_11h46.45.702,LearnStrategy,2023.2.3,Win32,60.24096386,7,1,7,0.101973684,-0.004934211,1,0,0,0.7312,rock_grid_rect_2,2,14,-1,-1,0.731,-0.118421053,-0.258223684,1,0,0,1.3568,Basalt_rect,2,1.357,1,6,0,6,0,1,,,,,,,,,,,,,
6638ed323cd2400f1d2b09d4,TCR,2024-06-21_11h46.45.702,LearnStrategy,2023.2.3,Win32,60.24096386,7,1,8,0.11129386,0.008223684,1,0,0,0.8988,rock_grid_rect_2,4,14,-1,-1,0.899,0.375548246,-0.269736842,1,0,0,1.259,Gabbro_rect,4,1.259,1,7,0,7,0,1,,,,,,,,,,,,,
6638ed323cd2400f1d2b09d4,TCR,2024-06-21_11h46.45.702,LearnStrategy,2023.2.3,Win32,60.24096386,7,1,9,0.105811404,0.007675439,1,0,0,0.7144,rock_grid_rect_2,4,11,-1,-1,0.714,-0.35745614,-0.250548246,1,0,0,2.138,Andesite_rect,1,2.138,0,8,0,8,0,1,,,,,,,,,,,,,
6638ed323cd2400f1d2b09d4,TCR,2024-06-21_11h46.45.702,LearnStrategy,2023.2.3,Win32,60.24096386,7,1,10,0.112938596,0.003289474,1,0,0,0.7293,rock_grid_rect_2,1,07,-1,-1,0.729,-0.403508772,-0.257127193,1,0,0,5.0142,Andesite_rect,1,5.014,1,9,0,9,0,1,,,,,,,,,,,,,
6638ed323cd2400f1d2b09d4,TCR,2024-06-21_11h46.45.702,LearnStrategy,2023.2.3,Win32,60.24096386,7,1,11,0.052631579,0.015350877,1,0,0,1.1642,rock_grid_rect_2,3,15,-1,-1,1.164,0.089364035,-0.254934211,1,0,0,2.6761,Diorite_rect,3,2.676,1,10,0,10,0,1,,,,,,,,,,,,,
6638ed323cd2400f1d2b09d4,TCR,2024-06-21_11h46.45.702,LearnStrategy,2023.2.3,Win32,60.24096386,7,1,12,-0.041118421,0.013157895,1,0,0,0.8809,rock_grid_rect_2,4,08,-1,-1,0.881,-0.119517544,-0.246710526,1,0,0,2.9894,Basalt_rect,2,2.989,0,11,0,11,0,1,,,,,,,,,,,,,
6638ed323cd2400f1d2b09d4,TCR,2024-06-21_11h46.45.702,LearnStrategy,2023.2.3,Win32,60.24096386,7,1,13,0.114583333,0.009320175,1,0,0,0.8478,rock_grid_rect_2,1,05,-1,-1,0.848,0.120614035,-0.410635965,1,0,0,1.9161,Peridotite_rect,7,1.916,0,12,0,12,0,1,,,,,,,,,,,,,
6638ed323cd2400f1d2b09d4,TCR,2024-06-21_11h46.45.702,LearnStrategy,2023.2.3,Win32,60.24096386,7,1,14,0.137609649,-0.012609649,1,0,0,0.8977,rock_grid_rect_2,8,02,-1,-1,0.898,0.380482456,-0.393092105,1,0,0,1.2612,Pumice_rect,8,1.261,1,13,0,13,0,1,,,,,,,,,,,,,
6638ed323cd2400f1d2b09d4,TCR,2024-06-21_11h46.45.702,LearnStrategy,2023.2.3,Win32,60.24096386,7,1,15,0.052083333,-0.007127193,1,0,0,1.3822,rock_grid_rect_2,4,01,-1,-1,1.382,0.387061404,-0.241776316,1,0,0,1.6297,Gabbro_rect,4,1.63,1,14,0,14,0,1,,,,,,,,,,,,,
6638ed323cd2400f1d2b09d4,TCR,2024-06-21_11h46.45.702,LearnStrategy,2023.2.3,Win32,60.24096386,7,1,16,0.015350877,0.005482456,1,0,0,1.4155,rock_grid_rect_2,6,15,-1,-1,1.416,-0.106359649,-0.416118421,1,0,0,1.3733,Pegmatite_rect,6,1.373,1,15,0,15,0,1,,,,,,,,,,,,,
6638ed323cd2400f1d2b09d4,TCR,2024-06-21_11h46.45.702,LearnStrategy,2023.2.3,Win32,60.24096386,7,2,1,,,,,,,,8,13,,,,,,,,,,,8,1.371,1,,,,,,0.413377193,-0.405701754,1,0,0,1.371,Pumice_rect,0,0,0,0,1,
6638ed323cd2400f1d2b09d4,TCR,2024-06-21_11h46.45.702,LearnStrategy,2023.2.3,Win32,60.24096386,7,2,2,,,,,,,,7,10,,,,,,,,,,,7,1.809,1,,,,,,0.120614035,-0.395833333,1,0,0,1.8088,Peridotite_rect,1,0,1,0,1,
6638ed323cd2400f1d2b09d4,TCR,2024-06-21_11h46.45.702,LearnStrategy,2023.2.3,Win32,60.24096386,7,2,3,,,,,,,,5,04,,,,,,,,,,,5,1.649,1,,,,,,-0.415570175,-0.411732456,1,0,0,1.6491,Obsidian_rect,2,0,2,0,1,
6638ed323cd2400f1d2b09d4,TCR,2024-06-21_11h46.45.702,LearnStrategy,2023.2.3,Win32,60.24096386,7,2,4,,,,,,,,2,02,,,,,,,,,,,4,7.626,0,,,,,,0.382675439,-0.253289474,1,0,0,7.6261,Gabbro_rect,3,0,3,0,1,
6638ed323cd2400f1d2b09d4,TCR,2024-06-21_11h46.45.702,LearnStrategy,2023.2.3,Win32,60.24096386,7,2,5,,,,,,,,1,16,,,,,,,,,,,1,5.259,1,,,,,,-0.363486842,-0.235745614,1,0,0,5.2591,Andesite_rect,4,0,4,0,1,
6638ed323cd2400f1d2b09d4,TCR,2024-06-21_11h46.45.702,LearnStrategy,2023.2.3,Win32,60.24096386,7,2,6,,,,,,,,4,13,,,,,,,,,,,4,2.9,1,,,,,,0.432565789,-0.245614035,1,0,0,2.9005,Gabbro_rect,5,0,5,0,1,
6638ed323cd2400f1d2b09d4,TCR,2024-06-21_11h46.45.702,LearnStrategy,2023.2.3,Win32,60.24096386,7,2,7,,,,,,,,3,10,,,,,,,,,,,3,2.079,1,,,,,,0.129934211,-0.246710526,1,0,0,2.0786,Diorite_rect,6,0,6,0,1,
6638ed323cd2400f1d2b09d4,TCR,2024-06-21_11h46.45.702,LearnStrategy,2023.2.3,Win32,60.24096386,7,2,8,,,,,,,,1,10,,,,,,,,,,,1,2.007,1,,,,,,-0.385416667,-0.259320175,1,0,0,2.0066,Andesite_rect,7,0,7,0,1,
6638ed323cd2400f1d2b09d4,TCR,2024-06-21_11h46.45.702,LearnStrategy,2023.2.3,Win32,60.24096386,7,2,9,,,,,,,,4,03,,,,,,,,,,,4,3.572,1,,,,,,0.382127193,-0.240131579,1,0,0,3.5724,Gabbro_rect,8,0,8,0,1,
6638ed323cd2400f1d2b09d4,TCR,2024-06-21_11h46.45.702,LearnStrategy,2023.2.3,Win32,60.24096386,7,2,10,,,,,,,,8,03,,,,,,,,,,,8,1.071,1,,,,,,0.364583333,-0.399122807,1,0,0,1.0708,Pumice_rect,9,0,9,0,1,
6638ed323cd2400f1d2b09d4,TCR,2024-06-21_11h46.45.702,LearnStrategy,2023.2.3,Win32,60.24096386,7,2,11,,,,,,,,3,02,,,,,,,,,,,3,1.621,1,,,,,,0.163377193,-0.256030702,1,0,0,1.6212,Diorite_rect,10,0,10,0,1,
6638ed323cd2400f1d2b09d4,TCR,2024-06-21_11h46.45.702,LearnStrategy,2023.2.3,Win32,60.24096386,7,2,12,,,,,,,,2,05,,,,,,,,,,,2,1.629,1,,,,,,-0.170504386,-0.239035088,1,0,0,1.629,Basalt_rect,11,0,11,0,1,
6638ed323cd2400f1d2b09d4,TCR,2024-06-21_11h46.45.702,LearnStrategy,2023.2.3,Win32,60.24096386,7,2,13,,,,,,,,6,13,,,,,,,,,,,6,1.279,1,,,,,,-0.110745614,-0.412280702,1,0,0,1.2792,Pegmatite_rect,12,0,12,0,1,
6638ed323cd2400f1d2b09d4,TCR,2024-06-21_11h46.45.702,LearnStrategy,2023.2.3,Win32,60.24096386,7,2,14,,,,,,,,5,02,,,,,,,,,,,5,1.188,1,,,,,,-0.440241228,-0.382675439,1,0,0,1.1884,Obsidian_rect,13,0,13,0,1,
6638ed323cd2400f1d2b09d4,TCR,2024-06-21_11h46.45.702,LearnStrategy,2023.2.3,Win32,60.24096386,7,2,15,,,,,,,,7,13,,,,,,,,,,,7,1.321,1,,,,,,0.109649123,-0.413925439,1,0,0,1.321,Peridotite_rect,14,0,14,0,1,
6638ed323cd2400f1d2b09d4,TCR,2024-06-21_11h46.45.702,LearnStrategy,2023.2.3,Win32,60.24096386,7,2,16,,,,,,,,6,08,,,,,,,,,,,6,1.188,1,,,,,,-0.070175439,-0.39747807,1,0,0,1.1878,Pegmatite_rect,15,0,15,0,1,
6638ed323cd2400f1d2b09d4,TCR,2024-06-21_11h46.45.702,LearnStrategy,2023.2.3,Win32,60.24096386,8,1,1,-0.059210526,-0.009868421,1,0,0,0.731,rock_grid_rect_2,1,14,-1,-1,0.731,-0.360197368,-0.257127193,1,0,0,2.208,Andesite_rect,1,2.208,1,0,0,0,0,1,,,,,,,,,,,,,
6638ed323cd2400f1d2b09d4,TCR,2024-06-21_11h46.45.702,LearnStrategy,2023.2.3,Win32,60.24096386,8,1,2,-0.006030702,-0.007675439,1,0,0,1.5821,rock_grid_rect_2,3,14,-1,-1,1.582,0.114583333,-0.270833333,1,0,0,1.272,Diorite_rect,3,1.272,1,1,0,1,0,1,,,,,,,,,,,,,
6638ed323cd2400f1d2b09d4,TCR,2024-06-21_11h46.45.702,LearnStrategy,2023.2.3,Win32,60.24096386,8,1,3,0.018092105,-0.020285088,1,0,0,0.8484,rock_grid_rect_2,1,03,-1,-1,0.848,-0.395285088,-0.242324561,1,0,0,1.4396,Andesite_rect,1,1.44,1,2,0,2,0,1,,,,,,,,,,,,,
6638ed323cd2400f1d2b09d4,TCR,2024-06-21_11h46.45.702,LearnStrategy,2023.2.3,Win32,60.24096386,8,1,4,0.040570175,0.015350877,1,0,0,0.7656,rock_grid_rect_2,2,09,-1,-1,0.766,-0.089912281,-0.242872807,1,0,0,2.275,Basalt_rect,2,2.275,1,3,0,3,0,1,,,,,,,,,,,,,
6638ed323cd2400f1d2b09d4,TCR,2024-06-21_11h46.45.702,LearnStrategy,2023.2.3,Win32,60.24096386,8,1,5,-0.021381579,-0.021381579,1,0,0,0.9653,rock_grid_rect_2,8,09,-1,-1,0.965,0.394188596,-0.408442982,1,0,0,1.373,Pumice_rect,8,1.373,1,4,0,4,0,1,,,,,,,,,,,,,
6638ed323cd2400f1d2b09d4,TCR,2024-06-21_11h46.45.702,LearnStrategy,2023.2.3,Win32,60.24096386,8,1,6,-0.019188596,-0.018092105,1,0,0,1.165,rock_grid_rect_2,3,12,-1,-1,1.165,0.128837719,-0.259868421,1,0,0,2.8228,Diorite_rect,3,2.823,1,5,0,5,0,1,,,,,,,,,,,,,
6638ed323cd2400f1d2b09d4,TCR,2024-06-21_11h46.45.702,LearnStrategy,2023.2.3,Win32,60.24096386,8,1,7,-0.020833333,-0.00877193,1,0,0,0.8472,rock_grid_rect_2,2,10,-1,-1,0.847,-0.131578947,-0.259320175,1,0,0,1.5555,Basalt_rect,2,1.556,1,6,0,6,0,1,,,,,,,,,,,,,
6638ed323cd2400f1d2b09d4,TCR,2024-06-21_11h46.45.702,LearnStrategy,2023.2.3,Win32,60.24096386,8,1,8,0.055921053,-0.014254386,1,0,0,1.0312,rock_grid_rect_2,7,16,-1,-1,1.031,0.161732456,-0.418311404,1,0,0,1.8299,Peridotite_rect,7,1.83,1,7,0,7,0,1,,,,,,,,,,,,,
6638ed323cd2400f1d2b09d4,TCR,2024-06-21_11h46.45.702,LearnStrategy,2023.2.3,Win32,60.24096386,8,1,9,-0.04879386,0.002741228,1,0,0,1.0152,rock_grid_rect_2,2,11,-1,-1,1.015,-0.131578947,-0.230263158,1,0,0,2.9398,Basalt_rect,2,2.94,1,8,0,8,0,1,,,,,,,,,,,,,
6638ed323cd2400f1d2b09d4,TCR,2024-06-21_11h46.45.702,LearnStrategy,2023.2.3,Win32,60.24096386,8,1,10,-0.024671053,0.005482456,1,0,0,1.082,rock_grid_rect_2,1,09,-1,-1,1.082,-0.369517544,-0.246710526,1,0,0,2.6458,Andesite_rect,1,2.646,1,9,0,9,0,1,,,,,,,,,,,,,
6638ed323cd2400f1d2b09d4,TCR,2024-06-21_11h46.45.702,LearnStrategy,2023.2.3,Win32,60.24096386,8,1,11,-0.016995614,0.002192982,1,0,0,0.9482,rock_grid_rect_2,2,10,-1,-1,0.948,-0.123355263,-0.263157895,1,0,0,1.7071,Basalt_rect,2,1.707,1,10,0,10,0,1,,,,,,,,,,,,,
6638ed323cd2400f1d2b09d4,TCR,2024-06-21_11h46.45.702,LearnStrategy,2023.2.3,Win32,60.24096386,8,1,12,-0.050986842,-0.019188596,1,0,0,0.8987,rock_grid_rect_2,4,11,-1,-1,0.899,0.373355263,-0.246710526,1,0,0,5.0306,Gabbro_rect,4,5.031,1,11,0,11,0,1,,,,,,,,,,,,,
6638ed323cd2400f1d2b09d4,TCR,2024-06-21_11h46.45.702,LearnStrategy,2023.2.3,Win32,60.24096386,8,1,13,-0.004934211,-0.011513158,1,0,0,1.549,rock_grid_rect_2,6,07,-1,-1,1.549,-0.110745614,-0.400219298,1,0,0,1.6055,Pegmatite_rect,6,1.605,1,12,0,12,0,1,,,,,,,,,,,,,
6638ed323cd2400f1d2b09d4,TCR,2024-06-21_11h46.45.702,LearnStrategy,2023.2.3,Win32,60.24096386,8,1,14,-0.035635965,-0.000548246,1,0,0,1.6488,rock_grid_rect_2,4,08,-1,-1,1.649,0.347039474,-0.263157895,1,0,0,2.9677,Gabbro_rect,4,2.968,1,13,0,13,0,1,,,,,,,,,,,,,
6638ed323cd2400f1d2b09d4,TCR,2024-06-21_11h46.45.702,LearnStrategy,2023.2.3,Win32,60.24096386,8,1,15,0.01370614,0.002741228,1,0,0,0.7964,rock_grid_rect_2,4,08,-1,-1,0.796,0.367872807,-0.249451754,1,0,0,1.4565,Gabbro_rect,4,1.457,1,14,0,14,0,1,,,,,,,,,,,,,
6638ed323cd2400f1d2b09d4,TCR,2024-06-21_11h46.45.702,LearnStrategy,2023.2.3,Win32,60.24096386,8,1,16,0.104166667,0.003837719,1,0,0,0.8482,rock_grid_rect_2,5,12,-1,-1,0.848,-0.411184211,-0.402412281,1,0,0,2.107,Obsidian_rect,5,2.107,1,15,0,15,0,1,,,,,,,,,,,,,
6638ed323cd2400f1d2b09d4,TCR,2024-06-21_11h46.45.702,LearnStrategy,2023.2.3,Win32,60.24096386,8,2,1,,,,,,,,4,16,,,,,,,,,,,2,12.062,0,,,,,,-0.117324561,-0.250548246,1,0,0,12.0624,Basalt_rect,0,0,0,0,1,
6638ed323cd2400f1d2b09d4,TCR,2024-06-21_11h46.45.702,LearnStrategy,2023.2.3,Win32,60.24096386,8,2,2,,,,,,,,5,06,,,,,,,,,,,5,1.224,1,,,,,,-0.39747807,-0.407894737,1,0,0,1.2237,Obsidian_rect,1,0,1,0,1,
6638ed323cd2400f1d2b09d4,TCR,2024-06-21_11h46.45.702,LearnStrategy,2023.2.3,Win32,60.24096386,8,2,3,,,,,,,,8,08,,,,,,,,,,,8,1.977,1,,,,,,0.396929825,-0.417763158,1,0,0,1.9772,Pumice_rect,2,0,2,0,1,
6638ed323cd2400f1d2b09d4,TCR,2024-06-21_11h46.45.702,LearnStrategy,2023.2.3,Win32,60.24096386,8,2,4,,,,,,,,6,09,,,,,,,,,,,6,1.561,1,,,,,,-0.089364035,-0.417214912,1,0,0,1.5608,Pegmatite_rect,3,0,3,0,1,
6638ed323cd2400f1d2b09d4,TCR,2024-06-21_11h46.45.702,LearnStrategy,2023.2.3,Win32,60.24096386,8,2,5,,,,,,,,7,05,,,,,,,,,,,7,1.655,1,,,,,,0.116776316,-0.394736842,1,0,0,1.6545,Peridotite_rect,4,0,4,0,1,
6638ed323cd2400f1d2b09d4,TCR,2024-06-21_11h46.45.702,LearnStrategy,2023.2.3,Win32,60.24096386,8,2,6,,,,,,,,6,16,,,,,,,,,,,6,1.272,1,,,,,,-0.120614035,-0.39254386,1,0,0,1.2721,Pegmatite_rect,5,0,5,0,1,
6638ed323cd2400f1d2b09d4,TCR,2024-06-21_11h46.45.702,LearnStrategy,2023.2.3,Win32,60.24096386,8,2,7,,,,,,,,1,04,,,,,,,,,,,1,2.545,1,,,,,,-0.350877193,-0.258223684,1,0,0,2.5453,Andesite_rect,6,0,6,0,1,
6638ed323cd2400f1d2b09d4,TCR,2024-06-21_11h46.45.702,LearnStrategy,2023.2.3,Win32,60.24096386,8,2,8,,,,,,,,3,08,,,,,,,,,,,3,1.304,1,,,,,,0.129385965,-0.234649123,1,0,0,1.3041,Diorite_rect,7,0,7,0,1,
6638ed323cd2400f1d2b09d4,TCR,2024-06-21_11h46.45.702,LearnStrategy,2023.2.3,Win32,60.24096386,8,2,9,,,,,,,,4,10,,,,,,,,,,,4,3.468,1,,,,,,0.341557018,-0.239035088,1,0,0,3.4679,Gabbro_rect,8,0,8,0,1,
6638ed323cd2400f1d2b09d4,TCR,2024-06-21_11h46.45.702,LearnStrategy,2023.2.3,Win32,60.24096386,8,2,10,,,,,,,,2,12,,,,,,,,,,,2,3.042,1,,,,,,-0.163925439,-0.242324561,1,0,0,3.0416,Basalt_rect,9,0,9,0,1,
6638ed323cd2400f1d2b09d4,TCR,2024-06-21_11h46.45.702,LearnStrategy,2023.2.3,Win32,60.24096386,8,2,11,,,,,,,,7,12,,,,,,,,,,,7,1.343,1,,,,,,0.098684211,-0.400219298,1,0,0,1.3425,Peridotite_rect,10,0,10,0,1,
6638ed323cd2400f1d2b09d4,TCR,2024-06-21_11h46.45.702,LearnStrategy,2023.2.3,Win32,60.24096386,8,2,12,,,,,,,,8,16,,,,,,,,,,,8,1.76,1,,,,,,0.404605263,-0.40625,1,0,0,1.76,Pumice_rect,11,0,11,0,1,
6638ed323cd2400f1d2b09d4,TCR,2024-06-21_11h46.45.702,LearnStrategy,2023.2.3,Win32,60.24096386,8,2,13,,,,,,,,2,04,,,,,,,,,,,2,1.722,1,,,,,,-0.151315789,-0.25877193,1,0,0,1.7219,Basalt_rect,12,0,12,0,1,
6638ed323cd2400f1d2b09d4,TCR,2024-06-21_11h46.45.702,LearnStrategy,2023.2.3,Win32,60.24096386,8,2,14,,,,,,,,5,16,,,,,,,,,,,5,1.355,1,,,,,,-0.408991228,-0.404605263,1,0,0,1.3545,Obsidian_rect,13,0,13,0,1,
6638ed323cd2400f1d2b09d4,TCR,2024-06-21_11h46.45.702,LearnStrategy,2023.2.3,Win32,60.24096386,8,2,15,,,,,,,,3,11,,,,,,,,,,,3,2.361,1,,,,,,0.083881579,-0.233004386,1,0,0,2.3615,Diorite_rect,14,0,14,0,1,
6638ed323cd2400f1d2b09d4,TCR,2024-06-21_11h46.45.702,LearnStrategy,2023.2.3,Win32,60.24096386,8,2,16,,,,,,,,1,02,,,,,,,,,,,1,3.346,1,,,,,,-0.361842105,-0.266995614,1,0,0,3.346,Andesite_rect,15,0,15,0,1,
6638ed323cd2400f1d2b09d4,TCR,2024-06-21_11h46.45.702,LearnStrategy,2023.2.3,Win32,60.24096386,9,1,1,0.074013158,-0.006030702,1,0,0,2.5676,rock_grid_rect_2,2,06,-1,-1,2.568,-0.095394737,-0.268640351,1,0,0,2.0311,Basalt_rect,2,2.031,1,0,0,0,0,1,,,,,,,,,,,,,
6638ed323cd2400f1d2b09d4,TCR,2024-06-21_11h46.45.702,LearnStrategy,2023.2.3,Win32,60.24096386,9,1,2,0.094298246,-0.002741228,1,0,0,0.5969,rock_grid_rect_2,2,06,-1,-1,0.597,-0.092653509,-0.257675439,1,0,0,0.8388,Basalt_rect,2,0.839,1,1,0,1,0,1,,,,,,,,,,,,,
6638ed323cd2400f1d2b09d4,TCR,2024-06-21_11h46.45.702,LearnStrategy,2023.2.3,Win32,60.24096386,9,1,3,0.11622807,0.012061404,1,0,0,0.6321,rock_grid_rect_2,7,06,-1,-1,0.632,0.129385965,-0.402412281,1,0,0,1.3713,Peridotite_rect,7,1.371,1,2,0,2,0,1,,,,,,,,,,,,,
6638ed323cd2400f1d2b09d4,TCR,2024-06-21_11h46.45.702,LearnStrategy,2023.2.3,Win32,60.24096386,9,1,4,0.116776316,0.015899123,1,0,0,0.6307,rock_grid_rect_2,1,07,-1,-1,0.631,-0.38377193,-0.254934211,1,0,0,3.2295,Andesite_rect,1,3.23,1,3,0,3,0,1,,,,,,,,,,,,,
6638ed323cd2400f1d2b09d4,TCR,2024-06-21_11h46.45.702,LearnStrategy,2023.2.3,Win32,60.24096386,9,1,5,0.083881579,0.010416667,1,0,0,0.5827,rock_grid_rect_2,4,11,-1,-1,0.583,0.367872807,-0.236842105,1,0,0,3.6114,Gabbro_rect,4,3.611,1,4,0,4,0,1,,,,,,,,,,,,,
6638ed323cd2400f1d2b09d4,TCR,2024-06-21_11h46.45.702,LearnStrategy,2023.2.3,Win32,60.24096386,9,1,6,0.063048246,0.004385965,1,0,0,0.6517,rock_grid_rect_2,5,12,-1,-1,0.652,-0.38377193,-0.413377193,1,0,0,1.0693,Obsidian_rect,5,1.069,1,5,0,5,0,1,,,,,,,,,,,,,
6638ed323cd2400f1d2b09d4,TCR,2024-06-21_11h46.45.702,LearnStrategy,2023.2.3,Win32,60.24096386,9,1,7,0.101425439,-0.006030702,1,0,0,0.5982,rock_grid_rect_2,6,06,-1,-1,0.598,-0.103070175,-0.408442982,1,0,0,1.4999,Pegmatite_rect,6,1.5,1,6,0,6,0,1,,,,,,,,,,,,,
6638ed323cd2400f1d2b09d4,TCR,2024-06-21_11h46.45.702,LearnStrategy,2023.2.3,Win32,60.24096386,9,1,8,0.124451754,-0.004934211,1,0,0,0.5974,rock_grid_rect_2,2,08,-1,-1,0.597,-0.138157895,-0.266447368,1,0,0,2.5229,Basalt_rect,2,2.523,1,7,0,7,0,1,,,,,,,,,,,,,
6638ed323cd2400f1d2b09d4,TCR,2024-06-21_11h46.45.702,LearnStrategy,2023.2.3,Win32,60.24096386,9,1,9,0.119517544,0.000548246,1,0,0,0.6161,rock_grid_rect_2,4,14,-1,-1,0.616,0.360745614,-0.228070175,1,0,0,2.5561,Gabbro_rect,4,2.556,1,8,0,8,0,1,,,,,,,,,,,,,
6638ed323cd2400f1d2b09d4,TCR,2024-06-21_11h46.45.702,LearnStrategy,2023.2.3,Win32,60.24096386,9,1,10,0.122258772,0.006578947,1,0,0,0.6308,rock_grid_rect_2,2,08,-1,-1,0.631,-0.109649123,-0.239035088,1,0,0,1.7227,Basalt_rect,2,1.723,1,9,0,9,0,1,,,,,,,,,,,,,
6638ed323cd2400f1d2b09d4,TCR,2024-06-21_11h46.45.702,LearnStrategy,2023.2.3,Win32,60.24096386,9,1,11,0.135964912,-0.008223684,1,0,0,0.6985,rock_grid_rect_2,3,16,-1,-1,0.698,0.114583333,-0.23245614,1,0,0,1.2063,Diorite_rect,3,1.206,1,10,0,10,0,1,,,,,,,,,,,,,
6638ed323cd2400f1d2b09d4,TCR,2024-06-21_11h46.45.702,LearnStrategy,2023.2.3,Win32,60.24096386,9,1,12,0.086622807,-0.007127193,1,0,0,0.6743,rock_grid_rect_2,4,08,-1,-1,0.674,0.375,-0.239583333,1,0,0,1.6137,Gabbro_rect,4,1.614,1,11,0,11,0,1,,,,,,,,,,,,,
6638ed323cd2400f1d2b09d4,TCR,2024-06-21_11h46.45.702,LearnStrategy,2023.2.3,Win32,60.24096386,9,1,13,0.114035088,0.009868421,1,0,0,0.6322,rock_grid_rect_2,8,15,-1,-1,0.632,0.358004386,-0.399122807,1,0,0,1.5885,Pumice_rect,8,1.589,1,12,0,12,0,1,,,,,,,,,,,,,
6638ed323cd2400f1d2b09d4,TCR,2024-06-21_11h46.45.702,LearnStrategy,2023.2.3,Win32,60.24096386,9,1,14,0.122258772,0.003289474,1,0,0,0.6476,rock_grid_rect_2,1,03,-1,-1,0.648,-0.378837719,-0.269188596,1,0,0,2.8454,Andesite_rect,1,2.845,1,13,0,13,0,1,,,,,,,,,,,,,
6638ed323cd2400f1d2b09d4,TCR,2024-06-21_11h46.45.702,LearnStrategy,2023.2.3,Win32,60.24096386,9,1,15,0.093201754,0.000548246,1,0,0,0.5974,rock_grid_rect_2,4,12,-1,-1,0.597,0.359649123,-0.249451754,1,0,0,1.9391,Gabbro_rect,4,1.939,1,14,0,14,0,1,,,,,,,,,,,,,
6638ed323cd2400f1d2b09d4,TCR,2024-06-21_11h46.45.702,LearnStrategy,2023.2.3,Win32,60.24096386,9,1,16,0.127741228,0.00877193,1,0,0,0.7319,rock_grid_rect_2,1,03,-1,-1,0.732,-0.361842105,-0.252741228,1,0,0,1.3228,Andesite_rect,1,1.323,1,15,0,15,0,1,,,,,,,,,,,,,
6638ed323cd2400f1d2b09d4,TCR,2024-06-21_11h46.45.702,LearnStrategy,2023.2.3,Win32,60.24096386,9,2,1,,,,,,,,4,15,,,,,,,,,,,1,5.774,0,,,,,,-0.375548246,-0.257127193,1,0,0,5.7739,Andesite_rect,0,0,0,0,1,
6638ed323cd2400f1d2b09d4,TCR,2024-06-21_11h46.45.702,LearnStrategy,2023.2.3,Win32,60.24096386,9,2,2,,,,,,,,5,09,,,,,,,,,,,5,1.408,1,,,,,,-0.404605263,-0.400219298,1,0,0,1.4077,Obsidian_rect,1,0,1,0,1,
6638ed323cd2400f1d2b09d4,TCR,2024-06-21_11h46.45.702,LearnStrategy,2023.2.3,Win32,60.24096386,9,2,3,,,,,,,,2,01,,,,,,,,,,,2,2.142,1,,,,,,-0.161184211,-0.265350877,1,0,0,2.1421,Basalt_rect,2,0,2,0,1,
6638ed323cd2400f1d2b09d4,TCR,2024-06-21_11h46.45.702,LearnStrategy,2023.2.3,Win32,60.24096386,9,2,4,,,,,,,,8,05,,,,,,,,,,,8,1.939,1,,,,,,0.412828947,-0.400219298,1,0,0,1.9387,Pumice_rect,3,0,3,0,1,
6638ed323cd2400f1d2b09d4,TCR,2024-06-21_11h46.45.702,LearnStrategy,2023.2.3,Win32,60.24096386,9,2,5,,,,,,,,1,06,,,,,,,,,,,1,1.605,1,,,,,,-0.396381579,-0.264254386,1,0,0,1.6047,Andesite_rect,4,0,4,0,1,
6638ed323cd2400f1d2b09d4,TCR,2024-06-21_11h46.45.702,LearnStrategy,2023.2.3,Win32,60.24096386,9,2,6,,,,,,,,7,14,,,,,,,,,,,7,1.55,1,,,,,,0.103618421,-0.393640351,1,0,0,1.5495,Peridotite_rect,5,0,5,0,1,
6638ed323cd2400f1d2b09d4,TCR,2024-06-21_11h46.45.702,LearnStrategy,2023.2.3,Win32,60.24096386,9,2,7,,,,,,,,6,11,,,,,,,,,,,6,1.473,1,,,,,,-0.143092105,-0.407346491,1,0,0,1.4728,Pegmatite_rect,6,0,6,0,1,
6638ed323cd2400f1d2b09d4,TCR,2024-06-21_11h46.45.702,LearnStrategy,2023.2.3,Win32,60.24096386,9,2,8,,,,,,,,7,02,,,,,,,,,,,7,1.44,1,,,,,,0.099780702,-0.405153509,1,0,0,1.4405,Peridotite_rect,7,0,7,0,1,
6638ed323cd2400f1d2b09d4,TCR,2024-06-21_11h46.45.702,LearnStrategy,2023.2.3,Win32,60.24096386,9,2,9,,,,,,,,8,04,,,,,,,,,,,8,1.538,1,,,,,,0.401315789,-0.403508772,1,0,0,1.5382,Pumice_rect,8,0,8,0,1,
6638ed323cd2400f1d2b09d4,TCR,2024-06-21_11h46.45.702,LearnStrategy,2023.2.3,Win32,60.24096386,9,2,10,,,,,,,,3,13,,,,,,,,,,,3,1.606,1,,,,,,0.106359649,-0.239035088,1,0,0,1.6063,Diorite_rect,9,0,9,0,1,
6638ed323cd2400f1d2b09d4,TCR,2024-06-21_11h46.45.702,LearnStrategy,2023.2.3,Win32,60.24096386,9,2,11,,,,,,,,6,05,,,,,,,,,,,6,1.956,1,,,,,,-0.085526316,-0.396929825,1,0,0,1.9556,Pegmatite_rect,10,0,10,0,1,
6638ed323cd2400f1d2b09d4,TCR,2024-06-21_11h46.45.702,LearnStrategy,2023.2.3,Win32,60.24096386,9,2,12,,,,,,,,5,11,,,,,,,,,,,5,1.121,1,,,,,,-0.358552632,-0.394188596,1,0,0,1.1213,Obsidian_rect,11,0,11,0,1,
6638ed323cd2400f1d2b09d4,TCR,2024-06-21_11h46.45.702,LearnStrategy,2023.2.3,Win32,60.24096386,9,2,13,,,,,,,,1,01,,,,,,,,,,,1,1.846,1,,,,,,-0.404057018,-0.255482456,1,0,0,1.8464,Andesite_rect,12,0,12,0,1,
6638ed323cd2400f1d2b09d4,TCR,2024-06-21_11h46.45.702,LearnStrategy,2023.2.3,Win32,60.24096386,9,2,14,,,,,,,,2,16,,,,,,,,,,,4,2.789,0,,,,,,0.391447368,-0.228070175,1,0,0,2.7889,Gabbro_rect,13,0,13,0,1,
6638ed323cd2400f1d2b09d4,TCR,2024-06-21_11h46.45.702,LearnStrategy,2023.2.3,Win32,60.24096386,9,2,15,,,,,,,,4,09,,,,,,,,,,,2,2.31,0,,,,,,-0.082236842,-0.238486842,1,0,0,2.3102,Basalt_rect,14,0,14,0,1,
6638ed323cd2400f1d2b09d4,TCR,2024-06-21_11h46.45.702,LearnStrategy,2023.2.3,Win32,60.24096386,9,2,16,,,,,,,,3,07,,,,,,,,,,,3,1.471,1,,,,,,0.148026316,-0.234649123,1,0,0,1.4714,Diorite_rect,15,0,15,0,1,
6638ed323cd2400f1d2b09d4,TCR,2024-06-21_11h46.45.702,LearnStrategy,2023.2.3,Win32,60.24096386,,,,,,,,,,,,,,,,,,,,,,,,,,,,,,,,,,,,,,,,,,,1
6638ed323cd2400f1d2b09d4,TCR,2024-06-21_11h46.45.702,LearnStrategy,2023.2.3,Win32,60.24096386,,,,,,,,,,,,,,,,,,,,,,,,,,,,,,,,,,,,,,,,,,,
6638ed323cd2400f1d2b09d4,TCR,2024-06-21_11h46.45.702,LearnStrategy,2023.2.3,Win32,60.24096386,,,,,,,,,,,1,11,1,1,,,,,,,,,,,,,,,,,,,,,,,,,,,,,
6638ed323cd2400f1d2b09d4,TCR,2024-06-21_11h46.45.702,LearnStrategy,2023.2.3,Win32,60.24096386,,,,,,,,,,,7,16,1,2,,,,,,,,,,,,,,,,,,,,,,,,,,,,,
6638ed323cd2400f1d2b09d4,TCR,2024-06-21_11h46.45.702,LearnStrategy,2023.2.3,Win32,60.24096386,,,,,,,,,,,6,10,1,3,,,,,,,,,,,,,,,,,,,,,,,,,,,,,
6638ed323cd2400f1d2b09d4,TCR,2024-06-21_11h46.45.702,LearnStrategy,2023.2.3,Win32,60.24096386,,,,,,,,,,,4,08,1,4,,,,,,,,,,,,,,,,,,,,,,,,,,,,,
6638ed323cd2400f1d2b09d4,TCR,2024-06-21_11h46.45.702,LearnStrategy,2023.2.3,Win32,60.24096386,,,,,,,,,,,7,04,1,5,,,,,,,,,,,,,,,,,,,,,,,,,,,,,
6638ed323cd2400f1d2b09d4,TCR,2024-06-21_11h46.45.702,LearnStrategy,2023.2.3,Win32,60.24096386,,,,,,,,,,,1,05,1,6,,,,,,,,,,,,,,,,,,,,,,,,,,,,,
6638ed323cd2400f1d2b09d4,TCR,2024-06-21_11h46.45.702,LearnStrategy,2023.2.3,Win32,60.24096386,,,,,,,,,,,4,14,1,7,,,,,,,,,,,,,,,,,,,,,,,,,,,,,
6638ed323cd2400f1d2b09d4,TCR,2024-06-21_11h46.45.702,LearnStrategy,2023.2.3,Win32,60.24096386,,,,,,,,,,,4,11,1,8,,,,,,,,,,,,,,,,,,,,,,,,,,,,,
6638ed323cd2400f1d2b09d4,TCR,2024-06-21_11h46.45.702,LearnStrategy,2023.2.3,Win32,60.24096386,,,,,,,,,,,7,06,2,1,,,,,,,,,,,,,,,,,,,,,,,,,,,,,
6638ed323cd2400f1d2b09d4,TCR,2024-06-21_11h46.45.702,LearnStrategy,2023.2.3,Win32,60.24096386,,,,,,,,,,,2,10,2,2,,,,,,,,,,,,,,,,,,,,,,,,,,,,,
6638ed323cd2400f1d2b09d4,TCR,2024-06-21_11h46.45.702,LearnStrategy,2023.2.3,Win32,60.24096386,,,,,,,,,,,3,14,2,3,,,,,,,,,,,,,,,,,,,,,,,,,,,,,
6638ed323cd2400f1d2b09d4,TCR,2024-06-21_11h46.45.702,LearnStrategy,2023.2.3,Win32,60.24096386,,,,,,,,,,,5,05,2,4,,,,,,,,,,,,,,,,,,,,,,,,,,,,,
6638ed323cd2400f1d2b09d4,TCR,2024-06-21_11h46.45.702,LearnStrategy,2023.2.3,Win32,60.24096386,,,,,,,,,,,4,12,2,5,,,,,,,,,,,,,,,,,,,,,,,,,,,,,
6638ed323cd2400f1d2b09d4,TCR,2024-06-21_11h46.45.702,LearnStrategy,2023.2.3,Win32,60.24096386,,,,,,,,,,,4,05,2,6,,,,,,,,,,,,,,,,,,,,,,,,,,,,,
6638ed323cd2400f1d2b09d4,TCR,2024-06-21_11h46.45.702,LearnStrategy,2023.2.3,Win32,60.24096386,,,,,,,,,,,3,09,2,7,,,,,,,,,,,,,,,,,,,,,,,,,,,,,
6638ed323cd2400f1d2b09d4,TCR,2024-06-21_11h46.45.702,LearnStrategy,2023.2.3,Win32,60.24096386,,,,,,,,,,,8,09,2,8,,,,,,,,,,,,,,,,,,,,,,,,,,,,,
6638ed323cd2400f1d2b09d4,TCR,2024-06-21_11h46.45.702,LearnStrategy,2023.2.3,Win32,60.24096386,,,,,,,,,,,5,10,3,1,,,,,,,,,,,,,,,,,,,,,,,,,,,,,
6638ed323cd2400f1d2b09d4,TCR,2024-06-21_11h46.45.702,LearnStrategy,2023.2.3,Win32,60.24096386,,,,,,,,,,,8,10,3,2,,,,,,,,,,,,,,,,,,,,,,,,,,,,,
6638ed323cd2400f1d2b09d4,TCR,2024-06-21_11h46.45.702,LearnStrategy,2023.2.3,Win32,60.24096386,,,,,,,,,,,1,07,3,3,,,,,,,,,,,,,,,,,,,,,,,,,,,,,
6638ed323cd2400f1d2b09d4,TCR,2024-06-21_11h46.45.702,LearnStrategy,2023.2.3,Win32,60.24096386,,,,,,,,,,,8,14,3,4,,,,,,,,,,,,,,,,,,,,,,,,,,,,,
6638ed323cd2400f1d2b09d4,TCR,2024-06-21_11h46.45.702,LearnStrategy,2023.2.3,Win32,60.24096386,,,,,,,,,,,2,08,3,5,,,,,,,,,,,,,,,,,,,,,,,,,,,,,
6638ed323cd2400f1d2b09d4,TCR,2024-06-21_11h46.45.702,LearnStrategy,2023.2.3,Win32,60.24096386,,,,,,,,,,,1,09,3,6,,,,,,,,,,,,,,,,,,,,,,,,,,,,,
6638ed323cd2400f1d2b09d4,TCR,2024-06-21_11h46.45.702,LearnStrategy,2023.2.3,Win32,60.24096386,,,,,,,,,,,7,08,3,7,,,,,,,,,,,,,,,,,,,,,,,,,,,,,
6638ed323cd2400f1d2b09d4,TCR,2024-06-21_11h46.45.702,LearnStrategy,2023.2.3,Win32,60.24096386,,,,,,,,,,,3,15,3,8,,,,,,,,,,,,,,,,,,,,,,,,,,,,,
6638ed323cd2400f1d2b09d4,TCR,2024-06-21_11h46.45.702,LearnStrategy,2023.2.3,Win32,60.24096386,,,,,,,,,,,5,07,4,1,,,,,,,,,,,,,,,,,,,,,,,,,,,,,
6638ed323cd2400f1d2b09d4,TCR,2024-06-21_11h46.45.702,LearnStrategy,2023.2.3,Win32,60.24096386,,,,,,,,,,,8,15,4,2,,,,,,,,,,,,,,,,,,,,,,,,,,,,,
6638ed323cd2400f1d2b09d4,TCR,2024-06-21_11h46.45.702,LearnStrategy,2023.2.3,Win32,60.24096386,,,,,,,,,,,3,16,4,3,,,,,,,,,,,,,,,,,,,,,,,,,,,,,
6638ed323cd2400f1d2b09d4,TCR,2024-06-21_11h46.45.702,LearnStrategy,2023.2.3,Win32,60.24096386,,,,,,,,,,,6,15,4,4,,,,,,,,,,,,,,,,,,,,,,,,,,,,,
6638ed323cd2400f1d2b09d4,TCR,2024-06-21_11h46.45.702,LearnStrategy,2023.2.3,Win32,60.24096386,,,,,,,,,,,8,06,4,5,,,,,,,,,,,,,,,,,,,,,,,,,,,,,
6638ed323cd2400f1d2b09d4,TCR,2024-06-21_11h46.45.702,LearnStrategy,2023.2.3,Win32,60.24096386,,,,,,,,,,,6,06,4,6,,,,,,,,,,,,,,,,,,,,,,,,,,,,,
6638ed323cd2400f1d2b09d4,TCR,2024-06-21_11h46.45.702,LearnStrategy,2023.2.3,Win32,60.24096386,,,,,,,,,,,2,06,4,7,,,,,,,,,,,,,,,,,,,,,,,,,,,,,
6638ed323cd2400f1d2b09d4,TCR,2024-06-21_11h46.45.702,LearnStrategy,2023.2.3,Win32,60.24096386,,,,,,,,,,,1,03,4,8,,,,,,,,,,,,,,,,,,,,,,,,,,,,,
6638ed323cd2400f1d2b09d4,TCR,2024-06-21_11h46.45.702,LearnStrategy,2023.2.3,Win32,60.24096386,,,,,,,,,,,1,14,5,1,,,,,,,,,,,,,,,,,,,,,,,,,,,,,
6638ed323cd2400f1d2b09d4,TCR,2024-06-21_11h46.45.702,LearnStrategy,2023.2.3,Win32,60.24096386,,,,,,,,,,,5,08,5,2,,,,,,,,,,,,,,,,,,,,,,,,,,,,,
6638ed323cd2400f1d2b09d4,TCR,2024-06-21_11h46.45.702,LearnStrategy,2023.2.3,Win32,60.24096386,,,,,,,,,,,6,07,5,3,,,,,,,,,,,,,,,,,,,,,,,,,,,,,
6638ed323cd2400f1d2b09d4,TCR,2024-06-21_11h46.45.702,LearnStrategy,2023.2.3,Win32,60.24096386,,,,,,,,,,,6,03,5,4,,,,,,,,,,,,,,,,,,,,,,,,,,,,,
6638ed323cd2400f1d2b09d4,TCR,2024-06-21_11h46.45.702,LearnStrategy,2023.2.3,Win32,60.24096386,,,,,,,,,,,5,14,5,5,,,,,,,,,,,,,,,,,,,,,,,,,,,,,
6638ed323cd2400f1d2b09d4,TCR,2024-06-21_11h46.45.702,LearnStrategy,2023.2.3,Win32,60.24096386,,,,,,,,,,,3,06,5,6,,,,,,,,,,,,,,,,,,,,,,,,,,,,,
6638ed323cd2400f1d2b09d4,TCR,2024-06-21_11h46.45.702,LearnStrategy,2023.2.3,Win32,60.24096386,,,,,,,,,,,7,15,5,7,,,,,,,,,,,,,,,,,,,,,,,,,,,,,
6638ed323cd2400f1d2b09d4,TCR,2024-06-21_11h46.45.702,LearnStrategy,2023.2.3,Win32,60.24096386,,,,,,,,,,,5,12,5,8,,,,,,,,,,,,,,,,,,,,,,,,,,,,,
6638ed323cd2400f1d2b09d4,TCR,2024-06-21_11h46.45.702,LearnStrategy,2023.2.3,Win32,60.24096386,,,,,,,,,,,2,11,6,1,,,,,,,,,,,,,,,,,,,,,,,,,,,,,
6638ed323cd2400f1d2b09d4,TCR,2024-06-21_11h46.45.702,LearnStrategy,2023.2.3,Win32,60.24096386,,,,,,,,,,,4,01,6,2,,,,,,,,,,,,,,,,,,,,,,,,,,,,,
6638ed323cd2400f1d2b09d4,TCR,2024-06-21_11h46.45.702,LearnStrategy,2023.2.3,Win32,60.24096386,,,,,,,,,,,6,12,6,3,,,,,,,,,,,,,,,,,,,,,,,,,,,,,
6638ed323cd2400f1d2b09d4,TCR,2024-06-21_11h46.45.702,LearnStrategy,2023.2.3,Win32,60.24096386,,,,,,,,,,,7,07,6,4,,,,,,,,,,,,,,,,,,,,,,,,,,,,,
6638ed323cd2400f1d2b09d4,TCR,2024-06-21_11h46.45.702,LearnStrategy,2023.2.3,Win32,60.24096386,,,,,,,,,,,2,09,6,5,,,,,,,,,,,,,,,,,,,,,,,,,,,,,
6638ed323cd2400f1d2b09d4,TCR,2024-06-21_11h46.45.702,LearnStrategy,2023.2.3,Win32,60.24096386,,,,,,,,,,,2,14,6,6,,,,,,,,,,,,,,,,,,,,,,,,,,,,,
6638ed323cd2400f1d2b09d4,TCR,2024-06-21_11h46.45.702,LearnStrategy,2023.2.3,Win32,60.24096386,,,,,,,,,,,3,12,6,7,,,,,,,,,,,,,,,,,,,,,,,,,,,,,
6638ed323cd2400f1d2b09d4,TCR,2024-06-21_11h46.45.702,LearnStrategy,2023.2.3,Win32,60.24096386,,,,,,,,,,,8,02,6,8,,,,,,,,,,,,,,,,,,,,,,,,,,,,,