participant,condition,date,expName,psychopyVersion,OS,frameRate,block,phase,trial,learn_mouse_2.x,learn_mouse_2.y,learn_mouse_2.leftButton,learn_mouse_2.midButton,learn_mouse_2.rightButton,learn_mouse_2.time,learn_mouse_2.clicked_name,cat,token,row,col,t_select,cat_mouse_l.x,cat_mouse_l.y,cat_mouse_l.leftButton,cat_mouse_l.midButton,cat_mouse_l.rightButton,cat_mouse_l.time,cat_mouse_l.clicked_name,resp,t_resp,corr,train_trials.thisRepN,train_trials.thisTrialN,train_trials.thisN,train_trials.thisIndex,train_trials.ran,cat_mouse_t.x,cat_mouse_t.y,cat_mouse_t.leftButton,cat_mouse_t.midButton,cat_mouse_t.rightButton,cat_mouse_t.time,cat_mouse_t.clicked_name,test_trials.thisRepN,test_trials.thisTrialN,test_trials.thisN,test_trials.thisIndex,test_trials.ran,Bonus
663a78e29ea520b0ec2b2a43,TCN,2024-06-11_10h10.35.181,LearnStrategy,2023.2.3,Win32,60.60606061,,,,,,,,,,,,,,,,,,,,,,,,,,,,,,,,,,,,,,,,,,,
663a78e29ea520b0ec2b2a43,TCN,2024-06-11_10h10.35.181,LearnStrategy,2023.2.3,Win32,60.60606061,1,1,1,0.084259288,-0.020370399,1,0,0,2.8812,rock_grid_rect_2,7,07,-1,-1,2.881,-0.415740712,-0.413888889,1,0,0,6.9492,Obsidian_rect,5,6.949,0,0,0,0,0,1,,,,,,,,,,,,,
663a78e29ea520b0ec2b2a43,TCN,2024-06-11_10h10.35.181,LearnStrategy,2023.2.3,Win32,60.60606061,1,1,2,0.065740797,-0.016666667,1,0,0,2.0568,rock_grid_rect_2,8,13,-1,-1,2.057,0.317592621,-0.248148176,1,0,0,1.9556,Gabbro_rect,4,1.956,0,1,0,1,0,1,,,,,,,,,,,,,
663a78e29ea520b0ec2b2a43,TCN,2024-06-11_10h10.35.181,LearnStrategy,2023.2.3,Win32,60.60606061,1,1,3,0.021296353,-0.018518533,1,0,0,1.6096,rock_grid_rect_2,6,05,-1,-1,1.61,-0.086111111,-0.245370399,1,0,0,2.3129,Basalt_rect,2,2.313,0,2,0,2,0,1,,,,,,,,,,,,,
663a78e29ea520b0ec2b2a43,TCN,2024-06-11_10h10.35.181,LearnStrategy,2023.2.3,Win32,60.60606061,1,1,4,0.030555556,-0.012037065,1,0,0,1.1835,rock_grid_rect_2,1,03,-1,-1,1.184,0.354629686,-0.271296353,1,0,0,16.0241,Gabbro_rect,4,16.024,0,3,0,3,0,1,,,,,,,,,,,,,
663a78e29ea520b0ec2b2a43,TCN,2024-06-11_10h10.35.181,LearnStrategy,2023.2.3,Win32,60.60606061,1,1,5,0.054629686,-0.014814843,1,0,0,1.3244,rock_grid_rect_2,1,07,-1,-1,1.324,0.354629686,-0.23148151,1,0,0,2.8308,Gabbro_rect,4,2.831,0,4,0,4,0,1,,,,,,,,,,,,,
663a78e29ea520b0ec2b2a43,TCN,2024-06-11_10h10.35.181,LearnStrategy,2023.2.3,Win32,60.60606061,1,1,6,0.013888889,0.002777778,1,0,0,1.1955,rock_grid_rect_2,2,02,-1,-1,1.196,0.300925954,-0.242592621,1,0,0,3.0217,Gabbro_rect,4,3.022,0,5,0,5,0,1,,,,,,,,,,,,,
663a78e29ea520b0ec2b2a43,TCN,2024-06-11_10h10.35.181,LearnStrategy,2023.2.3,Win32,60.60606061,1,1,7,0.03148151,-0.008333333,1,0,0,1.0611,rock_grid_rect_2,5,02,-1,-1,1.061,0.405555556,-0.242592621,1,0,0,2.8882,Gabbro_rect,4,2.888,0,6,0,6,0,1,,,,,,,,,,,,,
663a78e29ea520b0ec2b2a43,TCN,2024-06-11_10h10.35.181,LearnStrategy,2023.2.3,Win32,60.60606061,1,1,8,0.044444444,0.000925912,1,0,0,1.0066,rock_grid_rect_2,7,08,-1,-1,1.007,0.437963019,-0.229629686,1,0,0,2.0154,Gabbro_rect,4,2.015,0,7,0,7,0,1,,,,,,,,,,,,,
663a78e29ea520b0ec2b2a43,TCN,2024-06-11_10h10.35.181,LearnStrategy,2023.2.3,Win32,60.60606061,1,1,9,0.004629686,0.014814801,1,0,0,1.425,rock_grid_rect_2,4,12,-1,-1,1.425,0.332407464,-0.258333333,1,0,0,2.2223,Gabbro_rect,4,2.222,1,8,0,8,0,1,,,,,,,,,,,,,
663a78e29ea520b0ec2b2a43,TCN,2024-06-11_10h10.35.181,LearnStrategy,2023.2.3,Win32,60.60606061,1,1,10,0.037963019,0.002777778,1,0,0,0.9025,rock_grid_rect_2,2,01,-1,-1,0.903,-0.347222222,-0.245370399,1,0,0,27.1044,Andesite_rect,1,27.104,0,9,0,9,0,1,,,,,,,,,,,,,
663a78e29ea520b0ec2b2a43,TCN,2024-06-11_10h10.35.181,LearnStrategy,2023.2.3,Win32,60.60606061,1,1,11,0.025925954,-0.018518533,1,0,0,1.4417,rock_grid_rect_2,8,06,-1,-1,1.442,-0.377777778,-0.262963019,1,0,0,2.3569,Andesite_rect,1,2.357,0,10,0,10,0,1,,,,,,,,,,,,,
663a78e29ea520b0ec2b2a43,TCN,2024-06-11_10h10.35.181,LearnStrategy,2023.2.3,Win32,60.60606061,1,1,12,-0.012036981,-0.02129631,1,0,0,1.0373,rock_grid_rect_2,4,15,-1,-1,1.037,-0.310185157,-0.242592621,1,0,0,2.4034,Andesite_rect,1,2.403,0,11,0,11,0,1,,,,,,,,,,,,,
663a78e29ea520b0ec2b2a43,TCN,2024-06-11_10h10.35.181,LearnStrategy,2023.2.3,Win32,60.60606061,1,1,13,0.044444444,-0.020370399,1,0,0,1.522,rock_grid_rect_2,6,10,-1,-1,1.522,-0.329629601,-0.237963019,1,0,0,3.0104,Andesite_rect,1,3.01,0,12,0,12,0,1,,,,,,,,,,,,,
663a78e29ea520b0ec2b2a43,TCN,2024-06-11_10h10.35.181,LearnStrategy,2023.2.3,Win32,60.60606061,1,1,14,0.000925954,-0.017592621,1,0,0,1.0179,rock_grid_rect_2,3,10,-1,-1,1.018,0.099074131,-0.384259288,1,0,0,11.7371,Peridotite_rect,7,11.737,0,13,0,13,0,1,,,,,,,,,,,,,
663a78e29ea520b0ec2b2a43,TCN,2024-06-11_10h10.35.181,LearnStrategy,2023.2.3,Win32,60.60606061,1,1,15,0.028703732,-0.012962977,1,0,0,1.3045,rock_grid_rect_2,5,12,-1,-1,1.305,-0.070370314,-0.228703732,1,0,0,11.284,Basalt_rect,2,11.284,0,14,0,14,0,1,,,,,,,,,,,,,
663a78e29ea520b0ec2b2a43,TCN,2024-06-11_10h10.35.181,LearnStrategy,2023.2.3,Win32,60.60606061,1,1,16,-0.058333333,-0.000925954,1,0,0,1.3781,rock_grid_rect_2,3,06,-1,-1,1.378,0.393518575,-0.410185242,1,0,0,2.4066,Pumice_rect,8,2.407,0,15,0,15,0,1,,,,,,,,,,,,,
663a78e29ea520b0ec2b2a43,TCN,2024-06-11_10h10.35.181,LearnStrategy,2023.2.3,Win32,60.60606061,1,2,1,,,,,,,,1,10,,,,,,,,,,,4,17.375,0,,,,,,0.419444444,-0.253703732,1,0,0,17.3745,Gabbro_rect,0,0,0,0,1,
663a78e29ea520b0ec2b2a43,TCN,2024-06-11_10h10.35.181,LearnStrategy,2023.2.3,Win32,60.60606061,1,2,2,,,,,,,,2,06,,,,,,,,,,,2,8.039,1,,,,,,-0.092592536,-0.23148151,1,0,0,8.039,Basalt_rect,1,0,1,0,1,
663a78e29ea520b0ec2b2a43,TCN,2024-06-11_10h10.35.181,LearnStrategy,2023.2.3,Win32,60.60606061,1,2,3,,,,,,,,5,11,,,,,,,,,,,2,10.376,0,,,,,,-0.128703647,-0.235185242,1,0,0,10.3759,Basalt_rect,2,0,2,0,1,
663a78e29ea520b0ec2b2a43,TCN,2024-06-11_10h10.35.181,LearnStrategy,2023.2.3,Win32,60.60606061,1,2,4,,,,,,,,8,10,,,,,,,,,,,8,4.504,1,,,,,,0.339814843,-0.395370399,1,0,0,4.5035,Pumice_rect,3,0,3,0,1,
663a78e29ea520b0ec2b2a43,TCN,2024-06-11_10h10.35.181,LearnStrategy,2023.2.3,Win32,60.60606061,1,2,5,,,,,,,,2,09,,,,,,,,,,,2,6.312,1,,,,,,-0.117592536,-0.228703732,1,0,0,6.3117,Basalt_rect,4,0,4,0,1,
663a78e29ea520b0ec2b2a43,TCN,2024-06-11_10h10.35.181,LearnStrategy,2023.2.3,Win32,60.60606061,1,2,6,,,,,,,,7,13,,,,,,,,,,,6,6.061,0,,,,,,-0.080555556,-0.408333333,1,0,0,6.0611,Pegmatite_rect,5,0,5,0,1,
663a78e29ea520b0ec2b2a43,TCN,2024-06-11_10h10.35.181,LearnStrategy,2023.2.3,Win32,60.60606061,1,2,7,,,,,,,,6,15,,,,,,,,,,,6,8.03,1,,,,,,-0.107407379,-0.415740797,1,0,0,8.0303,Pegmatite_rect,6,0,6,0,1,
663a78e29ea520b0ec2b2a43,TCN,2024-06-11_10h10.35.181,LearnStrategy,2023.2.3,Win32,60.60606061,1,2,8,,,,,,,,7,16,,,,,,,,,,,4,5.619,0,,,,,,0.329629686,-0.261111111,1,0,0,5.6192,Gabbro_rect,7,0,7,0,1,
663a78e29ea520b0ec2b2a43,TCN,2024-06-11_10h10.35.181,LearnStrategy,2023.2.3,Win32,60.60606061,1,2,9,,,,,,,,5,14,,,,,,,,,,,2,3.085,0,,,,,,-0.115740712,-0.252777778,1,0,0,3.0854,Basalt_rect,8,0,8,0,1,
663a78e29ea520b0ec2b2a43,TCN,2024-06-11_10h10.35.181,LearnStrategy,2023.2.3,Win32,60.60606061,1,2,10,,,,,,,,3,09,,,,,,,,,,,7,6.647,0,,,,,,0.088888889,-0.393518575,1,0,0,6.6466,Peridotite_rect,9,0,9,0,1,
663a78e29ea520b0ec2b2a43,TCN,2024-06-11_10h10.35.181,LearnStrategy,2023.2.3,Win32,60.60606061,1,2,11,,,,,,,,1,05,,,,,,,,,,,7,3.399,0,,,,,,0.13148151,-0.413888889,1,0,0,3.3986,Peridotite_rect,10,0,10,0,1,
663a78e29ea520b0ec2b2a43,TCN,2024-06-11_10h10.35.181,LearnStrategy,2023.2.3,Win32,60.60606061,1,2,12,,,,,,,,3,15,,,,,,,,,,,1,6.303,0,,,,,,-0.375,-0.254629686,1,0,0,6.3035,Andesite_rect,11,0,11,0,1,
663a78e29ea520b0ec2b2a43,TCN,2024-06-11_10h10.35.181,LearnStrategy,2023.2.3,Win32,60.60606061,1,2,13,,,,,,,,8,09,,,,,,,,,,,8,8.879,1,,,,,,0.322222222,-0.400925954,1,0,0,8.8786,Pumice_rect,12,0,12,0,1,
663a78e29ea520b0ec2b2a43,TCN,2024-06-11_10h10.35.181,LearnStrategy,2023.2.3,Win32,60.60606061,1,2,14,,,,,,,,4,11,,,,,,,,,,,4,9.767,1,,,,,,0.346296353,-0.262963019,1,0,0,9.7673,Gabbro_rect,13,0,13,0,1,
663a78e29ea520b0ec2b2a43,TCN,2024-06-11_10h10.35.181,LearnStrategy,2023.2.3,Win32,60.60606061,1,2,15,,,,,,,,6,09,,,,,,,,,,,6,5.379,1,,,,,,-0.065740712,-0.408333333,1,0,0,5.3787,Pegmatite_rect,14,0,14,0,1,
663a78e29ea520b0ec2b2a43,TCN,2024-06-11_10h10.35.181,LearnStrategy,2023.2.3,Win32,60.60606061,1,2,16,,,,,,,,4,03,,,,,,,,,,,3,6.015,0,,,,,,0.092592621,-0.249074131,1,0,0,6.0149,Diorite_rect,15,0,15,0,1,
663a78e29ea520b0ec2b2a43,TCN,2024-06-11_10h10.35.181,LearnStrategy,2023.2.3,Win32,60.60606061,2,1,1,-0.014814758,0.015740712,1,0,0,2.7269,rock_grid_rect_2,7,02,-1,-1,2.727,-0.127777778,-0.399074131,1,0,0,16.4181,Pegmatite_rect,6,16.418,0,0,0,0,0,1,,,,,,,,,,,,,
663a78e29ea520b0ec2b2a43,TCN,2024-06-11_10h10.35.181,LearnStrategy,2023.2.3,Win32,60.60606061,2,1,2,-0.088888889,-0.020370399,1,0,0,1.4705,rock_grid_rect_2,4,05,-1,-1,1.471,0.398148176,-0.240740797,1,0,0,11.4161,Gabbro_rect,4,11.416,1,1,0,1,0,1,,,,,,,,,,,,,
663a78e29ea520b0ec2b2a43,TCN,2024-06-11_10h10.35.181,LearnStrategy,2023.2.3,Win32,60.60606061,2,1,3,-0.012962935,-0.015740755,1,0,0,1.4447,rock_grid_rect_2,1,11,-1,-1,1.445,-0.297222222,-0.257407464,1,0,0,7.4934,Andesite_rect,1,7.493,1,2,0,2,0,1,,,,,,,,,,,,,
663a78e29ea520b0ec2b2a43,TCN,2024-06-11_10h10.35.181,LearnStrategy,2023.2.3,Win32,60.60606061,2,1,4,-0.086111111,-0.002777778,1,0,0,0.8882,rock_grid_rect_2,7,10,-1,-1,0.888,0.101851908,-0.401851908,1,0,0,9.3946,Peridotite_rect,7,9.395,1,3,0,3,0,1,,,,,,,,,,,,,
663a78e29ea520b0ec2b2a43,TCN,2024-06-11_10h10.35.181,LearnStrategy,2023.2.3,Win32,60.60606061,2,1,5,-0.082407379,-0.000925954,1,0,0,1.4736,rock_grid_rect_2,8,04,-1,-1,1.474,0.378703732,-0.405555556,1,0,0,7.6454,Pumice_rect,8,7.645,1,4,0,4,0,1,,,,,,,,,,,,,
663a78e29ea520b0ec2b2a43,TCN,2024-06-11_10h10.35.181,LearnStrategy,2023.2.3,Win32,60.60606061,2,1,6,-0.058333333,-0.016666667,1,0,0,1.0133,rock_grid_rect_2,5,10,-1,-1,1.013,-0.347222222,-0.412963019,1,0,0,7.2346,Obsidian_rect,5,7.235,1,5,0,5,0,1,,,,,,,,,,,,,
663a78e29ea520b0ec2b2a43,TCN,2024-06-11_10h10.35.181,LearnStrategy,2023.2.3,Win32,60.60606061,2,1,7,-0.131481425,0.005555556,1,0,0,1.2552,rock_grid_rect_2,6,13,-1,-1,1.255,0.341666667,-0.382407464,1,0,0,10.9167,Pumice_rect,8,10.917,0,6,0,6,0,1,,,,,,,,,,,,,
663a78e29ea520b0ec2b2a43,TCN,2024-06-11_10h10.35.181,LearnStrategy,2023.2.3,Win32,60.60606061,2,1,8,0.000925954,0.008333333,1,0,0,1.0878,rock_grid_rect_2,1,16,-1,-1,1.088,-0.336111111,-0.237037065,1,0,0,5.2015,Andesite_rect,1,5.202,1,7,0,7,0,1,,,,,,,,,,,,,
663a78e29ea520b0ec2b2a43,TCN,2024-06-11_10h10.35.181,LearnStrategy,2023.2.3,Win32,60.60606061,2,1,9,-0.06851849,-0.004629644,1,0,0,1.0565,rock_grid_rect_2,6,03,-1,-1,1.057,-0.125,-0.411111111,1,0,0,11.8198,Pegmatite_rect,6,11.82,1,8,0,8,0,1,,,,,,,,,,,,,
663a78e29ea520b0ec2b2a43,TCN,2024-06-11_10h10.35.181,LearnStrategy,2023.2.3,Win32,60.60606061,2,1,10,-0.039814758,0.007407379,1,0,0,0.8781,rock_grid_rect_2,2,10,-1,-1,0.878,-0.376851824,-0.400925954,1,0,0,5.4914,Obsidian_rect,5,5.491,0,9,0,9,0,1,,,,,,,,,,,,,
663a78e29ea520b0ec2b2a43,TCN,2024-06-11_10h10.35.181,LearnStrategy,2023.2.3,Win32,60.60606061,2,1,11,0.020370399,0.006481467,1,0,0,0.7391,rock_grid_rect_2,4,16,-1,-1,0.739,0.088888889,-0.263888889,1,0,0,11.1627,Diorite_rect,3,11.163,0,10,0,10,0,1,,,,,,,,,,,,,
663a78e29ea520b0ec2b2a43,TCN,2024-06-11_10h10.35.181,LearnStrategy,2023.2.3,Win32,60.60606061,2,1,12,0.053703732,-0.008333333,1,0,0,1.0223,rock_grid_rect_2,2,14,-1,-1,1.022,0.318518575,-0.398148176,1,0,0,5.9681,Pumice_rect,8,5.968,0,11,0,11,0,1,,,,,,,,,,,,,
663a78e29ea520b0ec2b2a43,TCN,2024-06-11_10h10.35.181,LearnStrategy,2023.2.3,Win32,60.60606061,2,1,13,0.041666667,-0.004629644,1,0,0,1.0196,rock_grid_rect_2,5,09,-1,-1,1.02,-0.34351849,-0.389814843,1,0,0,3.7742,Obsidian_rect,5,3.774,1,12,0,12,0,1,,,,,,,,,,,,,
663a78e29ea520b0ec2b2a43,TCN,2024-06-11_10h10.35.181,LearnStrategy,2023.2.3,Win32,60.60606061,2,1,14,0.103703732,-0.015740755,1,0,0,1.0544,rock_grid_rect_2,3,13,-1,-1,1.054,0.151851908,-0.253703732,1,0,0,5.6529,Diorite_rect,3,5.653,1,13,0,13,0,1,,,,,,,,,,,,,
663a78e29ea520b0ec2b2a43,TCN,2024-06-11_10h10.35.181,LearnStrategy,2023.2.3,Win32,60.60606061,2,1,15,-0.005555556,-0.002777778,1,0,0,1.0104,rock_grid_rect_2,8,16,-1,-1,1.01,0.314814843,-0.386111111,1,0,0,5.0593,Pumice_rect,8,5.059,1,14,0,14,0,1,,,,,,,,,,,,,
663a78e29ea520b0ec2b2a43,TCN,2024-06-11_10h10.35.181,LearnStrategy,2023.2.3,Win32,60.60606061,2,1,16,0.002777778,0,1,0,0,0.8546,rock_grid_rect_2,3,07,-1,-1,0.855,0.410185242,-0.255555556,1,0,0,4.3444,Gabbro_rect,4,4.344,0,15,0,15,0,1,,,,,,,,,,,,,
663a78e29ea520b0ec2b2a43,TCN,2024-06-11_10h10.35.181,LearnStrategy,2023.2.3,Win32,60.60606061,2,2,1,,,,,,,,4,14,,,,,,,,,,,3,12.575,0,,,,,,0.146296353,-0.252777778,1,0,0,12.5746,Diorite_rect,0,0,0,0,1,
663a78e29ea520b0ec2b2a43,TCN,2024-06-11_10h10.35.181,LearnStrategy,2023.2.3,Win32,60.60606061,2,2,2,,,,,,,,7,14,,,,,,,,,,,3,4.265,0,,,,,,0.072222222,-0.250925954,1,0,0,4.265,Diorite_rect,1,0,1,0,1,
663a78e29ea520b0ec2b2a43,TCN,2024-06-11_10h10.35.181,LearnStrategy,2023.2.3,Win32,60.60606061,2,2,3,,,,,,,,3,12,,,,,,,,,,,3,0.866,1,,,,,,0.077777778,-0.238888889,1,0,0,0.8665,Diorite_rect,2,0,2,0,1,
663a78e29ea520b0ec2b2a43,TCN,2024-06-11_10h10.35.181,LearnStrategy,2023.2.3,Win32,60.60606061,2,2,4,,,,,,,,4,13,,,,,,,,,,,3,0.844,0,,,,,,0.077777778,-0.238888889,1,0,0,0.8439,Diorite_rect,3,0,3,0,1,
663a78e29ea520b0ec2b2a43,TCN,2024-06-11_10h10.35.181,LearnStrategy,2023.2.3,Win32,60.60606061,2,2,5,,,,,,,,6,11,,,,,,,,,,,6,10.279,1,,,,,,-0.086111111,-0.412963019,1,0,0,10.2789,Pegmatite_rect,4,0,4,0,1,
663a78e29ea520b0ec2b2a43,TCN,2024-06-11_10h10.35.181,LearnStrategy,2023.2.3,Win32,60.60606061,2,2,6,,,,,,,,1,01,,,,,,,,,,,3,2.037,0,,,,,,0.029629686,-0.245370399,1,0,0,2.0367,Diorite_rect,5,0,5,0,1,
663a78e29ea520b0ec2b2a43,TCN,2024-06-11_10h10.35.181,LearnStrategy,2023.2.3,Win32,60.60606061,2,2,7,,,,,,,,3,16,,,,,,,,,,,3,0.814,1,,,,,,0.033333333,-0.243518575,1,0,0,0.8141,Diorite_rect,6,0,6,0,1,
663a78e29ea520b0ec2b2a43,TCN,2024-06-11_10h10.35.181,LearnStrategy,2023.2.3,Win32,60.60606061,2,2,8,,,,,,,,8,08,,,,,,,,,,,8,4.761,1,,,,,,0.350925954,-0.409259288,1,0,0,4.7607,Pumice_rect,7,0,7,0,1,
663a78e29ea520b0ec2b2a43,TCN,2024-06-11_10h10.35.181,LearnStrategy,2023.2.3,Win32,60.60606061,2,2,9,,,,,,,,7,15,,,,,,,,,,,6,5.349,0,,,,,,-0.072222222,-0.399074131,1,0,0,5.3494,Pegmatite_rect,8,0,8,0,1,
663a78e29ea520b0ec2b2a43,TCN,2024-06-11_10h10.35.181,LearnStrategy,2023.2.3,Win32,60.60606061,2,2,10,,,,,,,,8,02,,,,,,,,,,,8,3.702,1,,,,,,0.347222222,-0.398148176,1,0,0,3.7023,Pumice_rect,9,0,9,0,1,
663a78e29ea520b0ec2b2a43,TCN,2024-06-11_10h10.35.181,LearnStrategy,2023.2.3,Win32,60.60606061,2,2,11,,,,,,,,5,08,,,,,,,,,,,5,5.418,1,,,,,,-0.306481467,-0.400925954,1,0,0,5.4179,Obsidian_rect,10,0,10,0,1,
663a78e29ea520b0ec2b2a43,TCN,2024-06-11_10h10.35.181,LearnStrategy,2023.2.3,Win32,60.60606061,2,2,12,,,,,,,,1,04,,,,,,,,,,,3,4.241,0,,,,,,0.063888889,-0.262037065,1,0,0,4.2412,Diorite_rect,11,0,11,0,1,
663a78e29ea520b0ec2b2a43,TCN,2024-06-11_10h10.35.181,LearnStrategy,2023.2.3,Win32,60.60606061,2,2,13,,,,,,,,2,12,,,,,,,,,,,8,5.393,0,,,,,,0.308333333,-0.386111111,1,0,0,5.3934,Pumice_rect,12,0,12,0,1,
663a78e29ea520b0ec2b2a43,TCN,2024-06-11_10h10.35.181,LearnStrategy,2023.2.3,Win32,60.60606061,2,2,14,,,,,,,,6,08,,,,,,,,,,,6,4.628,1,,,,,,-0.108333333,-0.379629686,1,0,0,4.6277,Pegmatite_rect,13,0,13,0,1,
663a78e29ea520b0ec2b2a43,TCN,2024-06-11_10h10.35.181,LearnStrategy,2023.2.3,Win32,60.60606061,2,2,15,,,,,,,,2,05,,,,,,,,,,,5,3.096,0,,,,,,-0.327777778,-0.394444444,1,0,0,3.0965,Obsidian_rect,14,0,14,0,1,
663a78e29ea520b0ec2b2a43,TCN,2024-06-11_10h10.35.181,LearnStrategy,2023.2.3,Win32,60.60606061,2,2,16,,,,,,,,5,06,,,,,,,,,,,5,1.522,1,,,,,,-0.350925912,-0.391666667,1,0,0,1.5222,Obsidian_rect,15,0,15,0,1,
663a78e29ea520b0ec2b2a43,TCN,2024-06-11_10h10.35.181,LearnStrategy,2023.2.3,Win32,60.60606061,3,1,1,0.055555556,0.002777778,1,0,0,2.9562,rock_grid_rect_2,7,12,-1,-1,2.956,0.070370399,-0.238888889,1,0,0,4.6044,Diorite_rect,3,4.604,0,0,0,0,0,1,,,,,,,,,,,,,
663a78e29ea520b0ec2b2a43,TCN,2024-06-11_10h10.35.181,LearnStrategy,2023.2.3,Win32,60.60606061,3,1,2,-0.04351849,-0.002777778,1,0,0,0.8862,rock_grid_rect_2,7,04,-1,-1,0.886,0.072222222,-0.249074131,1,0,0,2.3269,Diorite_rect,3,2.327,0,1,0,1,0,1,,,,,,,,,,,,,
663a78e29ea520b0ec2b2a43,TCN,2024-06-11_10h10.35.181,LearnStrategy,2023.2.3,Win32,60.60606061,3,1,3,0.062963019,-0.024074088,1,0,0,0.8751,rock_grid_rect_2,8,05,-1,-1,0.875,0.339814843,-0.392592621,1,0,0,4.4008,Pumice_rect,8,4.401,1,2,0,2,0,1,,,,,,,,,,,,,
663a78e29ea520b0ec2b2a43,TCN,2024-06-11_10h10.35.181,LearnStrategy,2023.2.3,Win32,60.60606061,3,1,4,0.002777778,-0.025,1,0,0,1.1576,rock_grid_rect_2,3,08,-1,-1,1.158,0.112963019,-0.254629686,1,0,0,3.7507,Diorite_rect,3,3.751,1,3,0,3,0,1,,,,,,,,,,,,,
663a78e29ea520b0ec2b2a43,TCN,2024-06-11_10h10.35.181,LearnStrategy,2023.2.3,Win32,60.60606061,3,1,5,0.047222222,-0.008333333,1,0,0,0.8809,rock_grid_rect_2,4,01,-1,-1,0.881,0.072222222,-0.262963019,1,0,0,3.7747,Diorite_rect,3,3.775,0,4,0,4,0,1,,,,,,,,,,,,,
663a78e29ea520b0ec2b2a43,TCN,2024-06-11_10h10.35.181,LearnStrategy,2023.2.3,Win32,60.60606061,3,1,6,0.038888889,-0.009259288,1,0,0,1.317,rock_grid_rect_2,2,11,-1,-1,1.317,0.338888889,-0.413888889,1,0,0,3.96,Pumice_rect,8,3.96,0,5,0,5,0,1,,,,,,,,,,,,,
663a78e29ea520b0ec2b2a43,TCN,2024-06-11_10h10.35.181,LearnStrategy,2023.2.3,Win32,60.60606061,3,1,7,0.043518575,-0.015740755,1,0,0,1.909,rock_grid_rect_2,2,04,-1,-1,1.909,-0.317592578,-0.386111111,1,0,0,4.0275,Obsidian_rect,5,4.028,0,6,0,6,0,1,,,,,,,,,,,,,
663a78e29ea520b0ec2b2a43,TCN,2024-06-11_10h10.35.181,LearnStrategy,2023.2.3,Win32,60.60606061,3,1,8,-0.063888889,-0.009259288,1,0,0,0.7694,rock_grid_rect_2,6,16,-1,-1,0.769,0.113888889,-0.242592621,1,0,0,7.8014,Diorite_rect,3,7.801,0,7,0,7,0,1,,,,,,,,,,,,,
663a78e29ea520b0ec2b2a43,TCN,2024-06-11_10h10.35.181,LearnStrategy,2023.2.3,Win32,60.60606061,3,1,9,0.127777778,0.004629601,1,0,0,1.0169,rock_grid_rect_2,1,06,-1,-1,1.017,0.097222222,-0.261111111,1,0,0,5.8388,Diorite_rect,3,5.839,0,8,0,8,0,1,,,,,,,,,,,,,
663a78e29ea520b0ec2b2a43,TCN,2024-06-11_10h10.35.181,LearnStrategy,2023.2.3,Win32,60.60606061,3,1,10,0.110185242,-0.017592621,1,0,0,1.0545,rock_grid_rect_2,1,09,-1,-1,1.054,-0.065740712,-0.409259288,1,0,0,2.945,Pegmatite_rect,6,2.945,0,9,0,9,0,1,,,,,,,,,,,,,
663a78e29ea520b0ec2b2a43,TCN,2024-06-11_10h10.35.181,LearnStrategy,2023.2.3,Win32,60.60606061,3,1,11,0.100925954,-0.014814843,1,0,0,0.9293,rock_grid_rect_2,4,09,-1,-1,0.929,0.096296353,-0.230555556,1,0,0,1.3222,Diorite_rect,3,1.322,0,10,0,10,0,1,,,,,,,,,,,,,
663a78e29ea520b0ec2b2a43,TCN,2024-06-11_10h10.35.181,LearnStrategy,2023.2.3,Win32,60.60606061,3,1,12,0.079629686,-0.012037065,1,0,0,1.4921,rock_grid_rect_2,3,02,-1,-1,1.492,0.098148176,-0.236111111,1,0,0,2.1444,Diorite_rect,3,2.144,1,11,0,11,0,1,,,,,,,,,,,,,
663a78e29ea520b0ec2b2a43,TCN,2024-06-11_10h10.35.181,LearnStrategy,2023.2.3,Win32,60.60606061,3,1,13,0.1,-0.016666667,1,0,0,1.0073,rock_grid_rect_2,8,15,-1,-1,1.007,0.293518575,-0.410185242,1,0,0,4.2303,Pumice_rect,8,4.23,1,12,0,12,0,1,,,,,,,,,,,,,
663a78e29ea520b0ec2b2a43,TCN,2024-06-11_10h10.35.181,LearnStrategy,2023.2.3,Win32,60.60606061,3,1,14,0.051851908,-0.000925954,1,0,0,2.6909,rock_grid_rect_2,5,16,-1,-1,2.691,-0.470370356,-0.40648151,1,0,0,4.1557,Obsidian_rect,5,4.156,1,13,0,13,0,1,,,,,,,,,,,,,
663a78e29ea520b0ec2b2a43,TCN,2024-06-11_10h10.35.181,LearnStrategy,2023.2.3,Win32,60.60606061,3,1,15,0.004629686,-0.010185199,1,0,0,1.3832,rock_grid_rect_2,5,04,-1,-1,1.383,-0.364814801,-0.385185242,1,0,0,1.4038,Obsidian_rect,5,1.404,1,14,0,14,0,1,,,,,,,,,,,,,
663a78e29ea520b0ec2b2a43,TCN,2024-06-11_10h10.35.181,LearnStrategy,2023.2.3,Win32,60.60606061,3,1,16,0.025925954,0.005555556,1,0,0,0.8091,rock_grid_rect_2,6,12,-1,-1,0.809,-0.081481425,-0.412037065,1,0,0,5.0289,Pegmatite_rect,6,5.029,1,15,0,15,0,1,,,,,,,,,,,,,
663a78e29ea520b0ec2b2a43,TCN,2024-06-11_10h10.35.181,LearnStrategy,2023.2.3,Win32,60.60606061,3,2,1,,,,,,,,8,14,,,,,,,,,,,8,4.985,1,,,,,,0.364814843,-0.393518575,1,0,0,4.9853,Pumice_rect,0,0,0,0,1,
663a78e29ea520b0ec2b2a43,TCN,2024-06-11_10h10.35.181,LearnStrategy,2023.2.3,Win32,60.60606061,3,2,2,,,,,,,,7,06,,,,,,,,,,,6,6.918,0,,,,,,-0.044444444,-0.389814843,1,0,0,6.918,Pegmatite_rect,1,0,1,0,1,
663a78e29ea520b0ec2b2a43,TCN,2024-06-11_10h10.35.181,LearnStrategy,2023.2.3,Win32,60.60606061,3,2,3,,,,,,,,2,16,,,,,,,,,,,8,4.23,0,,,,,,0.318518575,-0.395370399,1,0,0,4.2298,Pumice_rect,2,0,2,0,1,
663a78e29ea520b0ec2b2a43,TCN,2024-06-11_10h10.35.181,LearnStrategy,2023.2.3,Win32,60.60606061,3,2,4,,,,,,,,5,05,,,,,,,,,,,6,6.69,0,,,,,,-0.089814758,-0.38148151,1,0,0,6.6896,Pegmatite_rect,3,0,3,0,1,
663a78e29ea520b0ec2b2a43,TCN,2024-06-11_10h10.35.181,LearnStrategy,2023.2.3,Win32,60.60606061,3,2,5,,,,,,,,1,14,,,,,,,,,,,3,11.372,0,,,,,,0.104629686,-0.271296353,1,0,0,11.3724,Diorite_rect,4,0,4,0,1,
663a78e29ea520b0ec2b2a43,TCN,2024-06-11_10h10.35.181,LearnStrategy,2023.2.3,Win32,60.60606061,3,2,6,,,,,,,,1,02,,,,,,,,,,,3,2.37,0,,,,,,0.107407464,-0.251851908,1,0,0,2.3699,Diorite_rect,5,0,5,0,1,
663a78e29ea520b0ec2b2a43,TCN,2024-06-11_10h10.35.181,LearnStrategy,2023.2.3,Win32,60.60606061,3,2,7,,,,,,,,6,07,,,,,,,,,,,6,2.796,1,,,,,,-0.165740712,-0.382407464,1,0,0,2.7963,Pegmatite_rect,6,0,6,0,1,
663a78e29ea520b0ec2b2a43,TCN,2024-06-11_10h10.35.181,LearnStrategy,2023.2.3,Win32,60.60606061,3,2,8,,,,,,,,3,11,,,,,,,,,,,3,3.09,1,,,,,,0.084259288,-0.228703732,1,0,0,3.0904,Diorite_rect,7,0,7,0,1,
663a78e29ea520b0ec2b2a43,TCN,2024-06-11_10h10.35.181,LearnStrategy,2023.2.3,Win32,60.60606061,3,2,9,,,,,,,,6,06,,,,,,,,,,,6,2.385,1,,,,,,-0.134259203,-0.382407464,1,0,0,2.3847,Pegmatite_rect,8,0,8,0,1,
663a78e29ea520b0ec2b2a43,TCN,2024-06-11_10h10.35.181,LearnStrategy,2023.2.3,Win32,60.60606061,3,2,10,,,,,,,,8,03,,,,,,,,,,,8,3.37,1,,,,,,0.342592621,-0.385185242,1,0,0,3.3703,Pumice_rect,9,0,9,0,1,
663a78e29ea520b0ec2b2a43,TCN,2024-06-11_10h10.35.181,LearnStrategy,2023.2.3,Win32,60.60606061,3,2,11,,,,,,,,2,08,,,,,,,,,,,5,4.376,0,,,,,,-0.410185157,-0.383333333,1,0,0,4.376,Obsidian_rect,10,0,10,0,1,
663a78e29ea520b0ec2b2a43,TCN,2024-06-11_10h10.35.181,LearnStrategy,2023.2.3,Win32,60.60606061,3,2,12,,,,,,,,4,08,,,,,,,,,,,8,4.586,0,,,,,,0.316666667,-0.390740797,1,0,0,4.5861,Pumice_rect,11,0,11,0,1,
663a78e29ea520b0ec2b2a43,TCN,2024-06-11_10h10.35.181,LearnStrategy,2023.2.3,Win32,60.60606061,3,2,13,,,,,,,,5,07,,,,,,,,,,,5,3.944,1,,,,,,-0.336111111,-0.384259288,1,0,0,3.9444,Obsidian_rect,12,0,12,0,1,
663a78e29ea520b0ec2b2a43,TCN,2024-06-11_10h10.35.181,LearnStrategy,2023.2.3,Win32,60.60606061,3,2,14,,,,,,,,4,10,,,,,,,,,,,3,6.754,0,,,,,,0.107407464,-0.251851908,1,0,0,6.7542,Diorite_rect,13,0,13,0,1,
663a78e29ea520b0ec2b2a43,TCN,2024-06-11_10h10.35.181,LearnStrategy,2023.2.3,Win32,60.60606061,3,2,15,,,,,,,,3,14,,,,,,,,,,,3,3.885,1,,,,,,0.129629686,-0.244444444,1,0,0,3.885,Diorite_rect,14,0,14,0,1,
663a78e29ea520b0ec2b2a43,TCN,2024-06-11_10h10.35.181,LearnStrategy,2023.2.3,Win32,60.60606061,3,2,16,,,,,,,,7,05,,,,,,,,,,,4,4.475,0,,,,,,0.33148151,-0.265740797,1,0,0,4.4752,Gabbro_rect,15,0,15,0,1,
663a78e29ea520b0ec2b2a43,TCN,2024-06-11_10h10.35.181,LearnStrategy,2023.2.3,Win32,60.60606061,4,1,1,0.018518575,-0.001851866,1,0,0,2.4379,rock_grid_rect_2,4,09,-1,-1,2.438,-0.035185157,-0.386111111,1,0,0,1.5897,Pegmatite_rect,6,1.59,0,0,0,0,0,1,,,,,,,,,,,,,
663a78e29ea520b0ec2b2a43,TCN,2024-06-11_10h10.35.181,LearnStrategy,2023.2.3,Win32,60.60606061,4,1,2,0.052777778,-0.015740755,1,0,0,1.732,rock_grid_rect_2,1,09,-1,-1,1.732,0.107407464,-0.239814843,1,0,0,5.7699,Diorite_rect,3,5.77,0,1,0,1,0,1,,,,,,,,,,,,,
663a78e29ea520b0ec2b2a43,TCN,2024-06-11_10h10.35.181,LearnStrategy,2023.2.3,Win32,60.60606061,4,1,3,0.021296353,-0.018518533,1,0,0,1.0053,rock_grid_rect_2,4,05,-1,-1,1.005,0.062037065,-0.259259288,1,0,0,2.6047,Diorite_rect,3,2.605,0,2,0,2,0,1,,,,,,,,,,,,,
663a78e29ea520b0ec2b2a43,TCN,2024-06-11_10h10.35.181,LearnStrategy,2023.2.3,Win32,60.60606061,4,1,4,0.009259288,-0.011111111,1,0,0,1.7213,rock_grid_rect_2,5,16,-1,-1,1.721,-0.350925912,-0.380555556,1,0,0,1.648,Obsidian_rect,5,1.648,1,3,0,3,0,1,,,,,,,,,,,,,
663a78e29ea520b0ec2b2a43,TCN,2024-06-11_10h10.35.181,LearnStrategy,2023.2.3,Win32,60.60606061,4,1,5,0,-0.00648151,1,0,0,0.9771,rock_grid_rect_2,2,10,-1,-1,0.977,-0.355555556,-0.400925954,1,0,0,1.9615,Obsidian_rect,5,1.962,0,4,0,4,0,1,,,,,,,,,,,,,
663a78e29ea520b0ec2b2a43,TCN,2024-06-11_10h10.35.181,LearnStrategy,2023.2.3,Win32,60.60606061,4,1,6,0.048148176,0,1,0,0,1.6189,rock_grid_rect_2,7,08,-1,-1,1.619,0.165740797,-0.257407464,1,0,0,1.5577,Diorite_rect,3,1.558,0,5,0,5,0,1,,,,,,,,,,,,,
663a78e29ea520b0ec2b2a43,TCN,2024-06-11_10h10.35.181,LearnStrategy,2023.2.3,Win32,60.60606061,4,1,7,0.028703732,-0.014814843,1,0,0,0.7852,rock_grid_rect_2,6,16,-1,-1,0.785,-0.070370314,-0.383333333,1,0,0,4.9563,Pegmatite_rect,6,4.956,1,6,0,6,0,1,,,,,,,,,,,,,
663a78e29ea520b0ec2b2a43,TCN,2024-06-11_10h10.35.181,LearnStrategy,2023.2.3,Win32,60.60606061,4,1,8,0.002777778,-0.007407422,1,0,0,1.5308,rock_grid_rect_2,6,10,-1,-1,1.531,-0.144444444,-0.388888889,1,0,0,4.9392,Pegmatite_rect,6,4.939,1,7,0,7,0,1,,,,,,,,,,,,,
663a78e29ea520b0ec2b2a43,TCN,2024-06-11_10h10.35.181,LearnStrategy,2023.2.3,Win32,60.60606061,4,1,9,0.016666667,-0.013888889,1,0,0,1.5954,rock_grid_rect_2,8,13,-1,-1,1.595,0.40648151,-0.403703732,1,0,0,2.8189,Pumice_rect,8,2.819,1,8,0,8,0,1,,,,,,,,,,,,,
663a78e29ea520b0ec2b2a43,TCN,2024-06-11_10h10.35.181,LearnStrategy,2023.2.3,Win32,60.60606061,4,1,10,0.041666667,-0.014814843,1,0,0,1.434,rock_grid_rect_2,5,02,-1,-1,1.434,-0.377777778,-0.394444444,1,0,0,3.608,Obsidian_rect,5,3.608,1,9,0,9,0,1,,,,,,,,,,,,,
663a78e29ea520b0ec2b2a43,TCN,2024-06-11_10h10.35.181,LearnStrategy,2023.2.3,Win32,60.60606061,4,1,11,-0.023148092,-0.024074088,1,0,0,0.8761,rock_grid_rect_2,8,06,-1,-1,0.876,0.315740797,-0.418518575,1,0,0,3.6605,Pumice_rect,8,3.66,1,10,0,10,0,1,,,,,,,,,,,,,
663a78e29ea520b0ec2b2a43,TCN,2024-06-11_10h10.35.181,LearnStrategy,2023.2.3,Win32,60.60606061,4,1,12,0.061111111,0.007407379,1,0,0,1.5278,rock_grid_rect_2,3,07,-1,-1,1.528,0.298148176,-0.260185242,1,0,0,5.9174,Gabbro_rect,4,5.917,0,11,0,11,0,1,,,,,,,,,,,,,
663a78e29ea520b0ec2b2a43,TCN,2024-06-11_10h10.35.181,LearnStrategy,2023.2.3,Win32,60.60606061,4,1,13,-0.053703647,0.008333333,1,0,0,1.1233,rock_grid_rect_2,7,04,-1,-1,1.123,0.443518575,-0.25648151,1,0,0,2.2922,Gabbro_rect,4,2.292,0,12,0,12,0,1,,,,,,,,,,,,,
663a78e29ea520b0ec2b2a43,TCN,2024-06-11_10h10.35.181,LearnStrategy,2023.2.3,Win32,60.60606061,4,1,14,0.039814843,-0.012037065,1,0,0,0.8953,rock_grid_rect_2,3,02,-1,-1,0.895,0.335185242,-0.25648151,1,0,0,4.0427,Gabbro_rect,4,4.043,0,13,0,13,0,1,,,,,,,,,,,,,
663a78e29ea520b0ec2b2a43,TCN,2024-06-11_10h10.35.181,LearnStrategy,2023.2.3,Win32,60.60606061,4,1,15,-0.031481425,-0.017592621,1,0,0,1.1973,rock_grid_rect_2,1,07,-1,-1,1.197,0.104629686,-0.241666667,1,0,0,4.9622,Diorite_rect,3,4.962,0,14,0,14,0,1,,,,,,,,,,,,,
663a78e29ea520b0ec2b2a43,TCN,2024-06-11_10h10.35.181,LearnStrategy,2023.2.3,Win32,60.60606061,4,1,16,-0.060185157,0.011111111,1,0,0,0.8158,rock_grid_rect_2,2,04,-1,-1,0.816,-0.357407379,-0.388888889,1,0,0,2.1702,Obsidian_rect,5,2.17,0,15,0,15,0,1,,,,,,,,,,,,,
663a78e29ea520b0ec2b2a43,TCN,2024-06-11_10h10.35.181,LearnStrategy,2023.2.3,Win32,60.60606061,4,2,1,,,,,,,,3,14,,,,,,,,,,,6,3.818,0,,,,,,-0.107407379,-0.4,1,0,0,3.818,Pegmatite_rect,0,0,0,0,1,
663a78e29ea520b0ec2b2a43,TCN,2024-06-11_10h10.35.181,LearnStrategy,2023.2.3,Win32,60.60606061,4,2,2,,,,,,,,3,15,,,,,,,,,,,3,5.904,1,,,,,,0.066666667,-0.260185242,1,0,0,5.9038,Diorite_rect,1,0,1,0,1,
663a78e29ea520b0ec2b2a43,TCN,2024-06-11_10h10.35.181,LearnStrategy,2023.2.3,Win32,60.60606061,4,2,3,,,,,,,,4,14,,,,,,,,,,,4,4.935,1,,,,,,0.316666667,-0.258333333,1,0,0,4.935,Gabbro_rect,2,0,2,0,1,
663a78e29ea520b0ec2b2a43,TCN,2024-06-11_10h10.35.181,LearnStrategy,2023.2.3,Win32,60.60606061,4,2,4,,,,,,,,5,05,,,,,,,,,,,6,6.973,0,,,,,,-0.160185157,-0.401851908,1,0,0,6.973,Pegmatite_rect,3,0,3,0,1,
663a78e29ea520b0ec2b2a43,TCN,2024-06-11_10h10.35.181,LearnStrategy,2023.2.3,Win32,60.60606061,4,2,5,,,,,,,,1,04,,,,,,,,,,,3,4.368,0,,,,,,0.082407464,-0.237037065,1,0,0,4.3676,Diorite_rect,4,0,4,0,1,
663a78e29ea520b0ec2b2a43,TCN,2024-06-11_10h10.35.181,LearnStrategy,2023.2.3,Win32,60.60606061,4,2,6,,,,,,,,6,15,,,,,,,,,,,6,2.818,1,,,,,,-0.097222222,-0.392592621,1,0,0,2.8177,Pegmatite_rect,5,0,5,0,1,
663a78e29ea520b0ec2b2a43,TCN,2024-06-11_10h10.35.181,LearnStrategy,2023.2.3,Win32,60.60606061,4,2,7,,,,,,,,6,07,,,,,,,,,,,6,1.596,1,,,,,,-0.054629601,-0.399074131,1,0,0,1.5958,Pegmatite_rect,6,0,6,0,1,
663a78e29ea520b0ec2b2a43,TCN,2024-06-11_10h10.35.181,LearnStrategy,2023.2.3,Win32,60.60606061,4,2,8,,,,,,,,2,12,,,,,,,,,,,8,8.777,0,,,,,,0.313888889,-0.404629686,1,0,0,8.777,Pumice_rect,7,0,7,0,1,
663a78e29ea520b0ec2b2a43,TCN,2024-06-11_10h10.35.181,LearnStrategy,2023.2.3,Win32,60.60606061,4,2,9,,,,,,,,2,16,,,,,,,,,,,8,2.714,0,,,,,,0.414814843,-0.407407464,1,0,0,2.7135,Pumice_rect,8,0,8,0,1,
663a78e29ea520b0ec2b2a43,TCN,2024-06-11_10h10.35.181,LearnStrategy,2023.2.3,Win32,60.60606061,4,2,10,,,,,,,,4,10,,,,,,,,,,,3,4.587,0,,,,,,0.108333333,-0.246296353,1,0,0,4.5874,Diorite_rect,9,0,9,0,1,
663a78e29ea520b0ec2b2a43,TCN,2024-06-11_10h10.35.181,LearnStrategy,2023.2.3,Win32,60.60606061,4,2,11,,,,,,,,7,16,,,,,,,,,,,6,4.707,0,,,,,,-0.165740712,-0.404629686,1,0,0,4.7073,Pegmatite_rect,10,0,10,0,1,
663a78e29ea520b0ec2b2a43,TCN,2024-06-11_10h10.35.181,LearnStrategy,2023.2.3,Win32,60.60606061,4,2,12,,,,,,,,5,06,,,,,,,,,,,5,4.116,1,,,,,,-0.356481467,-0.397222222,1,0,0,4.1159,Obsidian_rect,11,0,11,0,1,
663a78e29ea520b0ec2b2a43,TCN,2024-06-11_10h10.35.181,LearnStrategy,2023.2.3,Win32,60.60606061,4,2,13,,,,,,,,8,14,,,,,,,,,,,8,4.637,1,,,,,,0.392592621,-0.416666667,1,0,0,4.6367,Pumice_rect,12,0,12,0,1,
663a78e29ea520b0ec2b2a43,TCN,2024-06-11_10h10.35.181,LearnStrategy,2023.2.3,Win32,60.60606061,4,2,14,,,,,,,,8,08,,,,,,,,,,,8,1.575,1,,,,,,0.337037065,-0.407407464,1,0,0,1.5747,Pumice_rect,13,0,13,0,1,
663a78e29ea520b0ec2b2a43,TCN,2024-06-11_10h10.35.181,LearnStrategy,2023.2.3,Win32,60.60606061,4,2,15,,,,,,,,1,14,,,,,,,,,,,3,7.139,0,,,,,,0.161111111,-0.267592621,1,0,0,7.1395,Diorite_rect,14,0,14,0,1,
663a78e29ea520b0ec2b2a43,TCN,2024-06-11_10h10.35.181,LearnStrategy,2023.2.3,Win32,60.60606061,4,2,16,,,,,,,,7,06,,,,,,,,,,,6,5.75,0,,,,,,-0.039814758,-0.402777778,1,0,0,5.7497,Pegmatite_rect,15,0,15,0,1,
663a78e29ea520b0ec2b2a43,TCN,2024-06-11_10h10.35.181,LearnStrategy,2023.2.3,Win32,60.60606061,5,1,1,0.094444444,-0.008333333,1,0,0,1.1981,rock_grid_rect_2,3,13,-1,-1,1.198,0.102777778,-0.237037065,1,0,0,4.7686,Diorite_rect,3,4.769,1,0,0,0,0,1,,,,,,,,,,,,,
663a78e29ea520b0ec2b2a43,TCN,2024-06-11_10h10.35.181,LearnStrategy,2023.2.3,Win32,60.60606061,5,1,2,0.050925954,0.009259245,1,0,0,0.7786,rock_grid_rect_2,5,12,-1,-1,0.779,-0.344444444,-0.384259288,1,0,0,2.4562,Obsidian_rect,5,2.456,1,1,0,1,0,1,,,,,,,,,,,,,
663a78e29ea520b0ec2b2a43,TCN,2024-06-11_10h10.35.181,LearnStrategy,2023.2.3,Win32,60.60606061,5,1,3,0.026851908,-0.001851866,1,0,0,0.9738,rock_grid_rect_2,8,04,-1,-1,0.974,0.291666667,-0.380555556,1,0,0,2.8623,Pumice_rect,8,2.862,1,2,0,2,0,1,,,,,,,,,,,,,
663a78e29ea520b0ec2b2a43,TCN,2024-06-11_10h10.35.181,LearnStrategy,2023.2.3,Win32,60.60606061,5,1,4,-0.012962935,-0.004629644,1,0,0,0.9339,rock_grid_rect_2,3,10,-1,-1,0.934,0.05648151,-0.234259288,1,0,0,6.2025,Diorite_rect,3,6.202,1,3,0,3,0,1,,,,,,,,,,,,,
663a78e29ea520b0ec2b2a43,TCN,2024-06-11_10h10.35.181,LearnStrategy,2023.2.3,Win32,60.60606061,5,1,5,0.023148176,0.022222222,1,0,0,0.6918,rock_grid_rect_2,4,15,-1,-1,0.692,-0.099074046,-0.378703732,1,0,0,2.9619,Pegmatite_rect,6,2.962,0,4,0,4,0,1,,,,,,,,,,,,,
663a78e29ea520b0ec2b2a43,TCN,2024-06-11_10h10.35.181,LearnStrategy,2023.2.3,Win32,60.60606061,5,1,6,0.035185242,-0.004629644,1,0,0,1.0442,rock_grid_rect_2,1,11,-1,-1,1.044,0.319444444,-0.229629686,1,0,0,6.127,Gabbro_rect,4,6.127,0,5,0,5,0,1,,,,,,,,,,,,,
663a78e29ea520b0ec2b2a43,TCN,2024-06-11_10h10.35.181,LearnStrategy,2023.2.3,Win32,60.60606061,5,1,7,0.024074131,-0.016666667,1,0,0,0.7081,rock_grid_rect_2,7,07,-1,-1,0.708,0.118518575,-0.259259288,1,0,0,5.689,Diorite_rect,3,5.689,0,6,0,6,0,1,,,,,,,,,,,,,
663a78e29ea520b0ec2b2a43,TCN,2024-06-11_10h10.35.181,LearnStrategy,2023.2.3,Win32,60.60606061,5,1,8,-0.012962935,-0.003703732,1,0,0,0.7394,rock_grid_rect_2,1,16,-1,-1,0.739,0.050925954,-0.238888889,1,0,0,1.7925,Diorite_rect,3,1.793,0,7,0,7,0,1,,,,,,,,,,,,,
663a78e29ea520b0ec2b2a43,TCN,2024-06-11_10h10.35.181,LearnStrategy,2023.2.3,Win32,60.60606061,5,1,9,0,0.001851824,1,0,0,0.6568,rock_grid_rect_2,4,12,-1,-1,0.657,0.10648151,-0.229629686,1,0,0,2.2322,Diorite_rect,3,2.232,0,8,0,8,0,1,,,,,,,,,,,,,
663a78e29ea520b0ec2b2a43,TCN,2024-06-11_10h10.35.181,LearnStrategy,2023.2.3,Win32,60.60606061,5,1,10,0.038888889,-0.009259288,1,0,0,0.8754,rock_grid_rect_2,7,02,-1,-1,0.875,-0.333333333,-0.411111111,1,0,0,3.2773,Obsidian_rect,5,3.277,0,9,0,9,0,1,,,,,,,,,,,,,
663a78e29ea520b0ec2b2a43,TCN,2024-06-11_10h10.35.181,LearnStrategy,2023.2.3,Win32,60.60606061,5,1,11,-0.05,-0.002777778,1,0,0,0.8757,rock_grid_rect_2,5,04,-1,-1,0.876,-0.387037023,-0.394444444,1,0,0,3.2227,Obsidian_rect,5,3.223,1,10,0,10,0,1,,,,,,,,,,,,,
663a78e29ea520b0ec2b2a43,TCN,2024-06-11_10h10.35.181,LearnStrategy,2023.2.3,Win32,60.60606061,5,1,12,-0.033333333,-0.001851866,1,0,0,0.7763,rock_grid_rect_2,6,03,-1,-1,0.776,-0.124074046,-0.404629686,1,0,0,4.9743,Pegmatite_rect,6,4.974,1,11,0,11,0,1,,,,,,,,,,,,,
663a78e29ea520b0ec2b2a43,TCN,2024-06-11_10h10.35.181,LearnStrategy,2023.2.3,Win32,60.60606061,5,1,13,0.014814843,-0.015740755,1,0,0,1.1733,rock_grid_rect_2,8,15,-1,-1,1.173,0.334259288,-0.419444444,1,0,0,3.9624,Pumice_rect,8,3.962,1,12,0,12,0,1,,,,,,,,,,,,,
663a78e29ea520b0ec2b2a43,TCN,2024-06-11_10h10.35.181,LearnStrategy,2023.2.3,Win32,60.60606061,5,1,14,-0.059259203,-0.020370399,1,0,0,1.1089,rock_grid_rect_2,2,11,-1,-1,1.109,0.292592621,-0.40648151,1,0,0,4.3139,Pumice_rect,8,4.314,0,13,0,13,0,1,,,,,,,,,,,,,
663a78e29ea520b0ec2b2a43,TCN,2024-06-11_10h10.35.181,LearnStrategy,2023.2.3,Win32,60.60606061,5,1,15,-0.015740712,-0.011111111,1,0,0,0.8404,rock_grid_rect_2,2,14,-1,-1,0.84,0.15,-0.257407464,1,0,0,2.4756,Diorite_rect,3,2.476,0,14,0,14,0,1,,,,,,,,,,,,,
663a78e29ea520b0ec2b2a43,TCN,2024-06-11_10h10.35.181,LearnStrategy,2023.2.3,Win32,60.60606061,5,1,16,0.079629686,-0.003703732,1,0,0,0.892,rock_grid_rect_2,6,12,-1,-1,0.892,-0.340740712,-0.396296353,1,0,0,1.5515,Obsidian_rect,5,1.552,0,15,0,15,0,1,,,,,,,,,,,,,
663a78e29ea520b0ec2b2a43,TCN,2024-06-11_10h10.35.181,LearnStrategy,2023.2.3,Win32,60.60606061,5,2,1,,,,,,,,2,09,,,,,,,,,,,5,10.085,0,,,,,,-0.307407379,-0.413888889,1,0,0,10.0851,Obsidian_rect,0,0,0,0,1,
663a78e29ea520b0ec2b2a43,TCN,2024-06-11_10h10.35.181,LearnStrategy,2023.2.3,Win32,60.60606061,5,2,2,,,,,,,,4,03,,,,,,,,,,,3,3.336,0,,,,,,0.15,-0.265740797,1,0,0,3.3365,Diorite_rect,1,0,1,0,1,
663a78e29ea520b0ec2b2a43,TCN,2024-06-11_10h10.35.181,LearnStrategy,2023.2.3,Win32,60.60606061,5,2,3,,,,,,,,6,08,,,,,,,,,,,6,7.385,1,,,,,,-0.11851849,-0.395370399,1,0,0,7.3845,Pegmatite_rect,2,0,2,0,1,
663a78e29ea520b0ec2b2a43,TCN,2024-06-11_10h10.35.181,LearnStrategy,2023.2.3,Win32,60.60606061,5,2,4,,,,,,,,3,16,,,,,,,,,,,3,3.922,1,,,,,,0.123148176,-0.259259288,1,0,0,3.9222,Diorite_rect,3,0,3,0,1,
663a78e29ea520b0ec2b2a43,TCN,2024-06-11_10h10.35.181,LearnStrategy,2023.2.3,Win32,60.60606061,5,2,5,,,,,,,,1,02,,,,,,,,,,,3,1.41,0,,,,,,0.123148176,-0.259259288,1,0,0,1.4096,Diorite_rect,4,0,4,0,1,
663a78e29ea520b0ec2b2a43,TCN,2024-06-11_10h10.35.181,LearnStrategy,2023.2.3,Win32,60.60606061,5,2,6,,,,,,,,4,13,,,,,,,,,,,6,3.973,0,,,,,,-0.126851824,-0.415740797,1,0,0,3.9731,Pegmatite_rect,5,0,5,0,1,
663a78e29ea520b0ec2b2a43,TCN,2024-06-11_10h10.35.181,LearnStrategy,2023.2.3,Win32,60.60606061,5,2,7,,,,,,,,1,01,,,,,,,,,,,4,1.896,0,,,,,,0.416666667,-0.264814843,1,0,0,1.896,Gabbro_rect,6,0,6,0,1,
663a78e29ea520b0ec2b2a43,TCN,2024-06-11_10h10.35.181,LearnStrategy,2023.2.3,Win32,60.60606061,5,2,8,,,,,,,,2,05,,,,,,,,,,,2,7.024,1,,,,,,-0.088888889,-0.266666667,1,0,0,7.0237,Basalt_rect,7,0,7,0,1,
663a78e29ea520b0ec2b2a43,TCN,2024-06-11_10h10.35.181,LearnStrategy,2023.2.3,Win32,60.60606061,5,2,9,,,,,,,,5,14,,,,,,,,,,,5,4.602,1,,,,,,-0.331481467,-0.409259288,1,0,0,4.6019,Obsidian_rect,8,0,8,0,1,
663a78e29ea520b0ec2b2a43,TCN,2024-06-11_10h10.35.181,LearnStrategy,2023.2.3,Win32,60.60606061,5,2,10,,,,,,,,8,03,,,,,,,,,,,3,1.099,0,,,,,,0.076851908,-0.230555556,1,0,0,1.0991,Diorite_rect,9,0,9,0,1,
663a78e29ea520b0ec2b2a43,TCN,2024-06-11_10h10.35.181,LearnStrategy,2023.2.3,Win32,60.60606061,5,2,11,,,,,,,,7,13,,,,,,,,,,,3,2.793,0,,,,,,0.076851908,-0.230555556,1,0,0,2.7935,Diorite_rect,10,0,10,0,1,
663a78e29ea520b0ec2b2a43,TCN,2024-06-11_10h10.35.181,LearnStrategy,2023.2.3,Win32,60.60606061,5,2,12,,,,,,,,3,09,,,,,,,,,,,3,2.024,1,,,,,,0.086111111,-0.242592621,1,0,0,2.024,Diorite_rect,11,0,11,0,1,
663a78e29ea520b0ec2b2a43,TCN,2024-06-11_10h10.35.181,LearnStrategy,2023.2.3,Win32,60.60606061,5,2,13,,,,,,,,6,06,,,,,,,,,,,6,3.65,1,,,,,,-0.14351849,-0.414814843,1,0,0,3.6497,Pegmatite_rect,12,0,12,0,1,
663a78e29ea520b0ec2b2a43,TCN,2024-06-11_10h10.35.181,LearnStrategy,2023.2.3,Win32,60.60606061,5,2,14,,,,,,,,7,14,,,,,,,,,,,8,2.137,0,,,,,,0.415740797,-0.421296353,1,0,0,2.1373,Pumice_rect,13,0,13,0,1,
663a78e29ea520b0ec2b2a43,TCN,2024-06-11_10h10.35.181,LearnStrategy,2023.2.3,Win32,60.60606061,5,2,15,,,,,,,,5,07,,,,,,,,,,,6,1.359,0,,,,,,-0.150925869,-0.397222222,1,0,0,1.3585,Pegmatite_rect,14,0,14,0,1,
663a78e29ea520b0ec2b2a43,TCN,2024-06-11_10h10.35.181,LearnStrategy,2023.2.3,Win32,60.60606061,5,2,16,,,,,,,,8,02,,,,,,,,,,,3,0.69,0,,,,,,0.089814843,-0.25648151,1,0,0,0.6902,Diorite_rect,15,0,15,0,1,
663a78e29ea520b0ec2b2a43,TCN,2024-06-11_10h10.35.181,LearnStrategy,2023.2.3,Win32,60.60606061,6,1,1,0.027777778,0.002777778,1,0,0,0.8139,rock_grid_rect_2,3,08,-1,-1,0.814,0.324074131,-0.394444444,1,0,0,1.8226,Pumice_rect,8,1.823,0,0,0,0,0,1,,,,,,,,,,,,,
663a78e29ea520b0ec2b2a43,TCN,2024-06-11_10h10.35.181,LearnStrategy,2023.2.3,Win32,60.60606061,6,1,2,0.010185242,0.007407379,1,0,0,1.0811,rock_grid_rect_2,5,10,-1,-1,1.081,-0.092592536,-0.396296353,1,0,0,1.9567,Pegmatite_rect,6,1.957,0,1,0,1,0,1,,,,,,,,,,,,,
663a78e29ea520b0ec2b2a43,TCN,2024-06-11_10h10.35.181,LearnStrategy,2023.2.3,Win32,60.60606061,6,1,3,-0.004629601,0.002777778,1,0,0,1.0495,rock_grid_rect_2,8,16,-1,-1,1.05,0.103703732,-0.251851908,1,0,0,1.3085,Diorite_rect,3,1.308,0,2,0,2,0,1,,,,,,,,,,,,,
663a78e29ea520b0ec2b2a43,TCN,2024-06-11_10h10.35.181,LearnStrategy,2023.2.3,Win32,60.60606061,6,1,4,0.012037065,0.006481467,1,0,0,0.7095,rock_grid_rect_2,5,09,-1,-1,0.71,-0.355555556,-0.401851908,1,0,0,1.2631,Obsidian_rect,5,1.263,1,3,0,3,0,1,,,,,,,,,,,,,
663a78e29ea520b0ec2b2a43,TCN,2024-06-11_10h10.35.181,LearnStrategy,2023.2.3,Win32,60.60606061,6,1,5,0.034259288,-0.013888889,1,0,0,1.0067,rock_grid_rect_2,7,10,-1,-1,1.007,0.353703732,-0.394444444,1,0,0,2.1834,Pumice_rect,8,2.183,0,4,0,4,0,1,,,,,,,,,,,,,
663a78e29ea520b0ec2b2a43,TCN,2024-06-11_10h10.35.181,LearnStrategy,2023.2.3,Win32,60.60606061,6,1,6,0.041666667,-0.02129631,1,0,0,1.4921,rock_grid_rect_2,6,05,-1,-1,1.492,-0.154629601,-0.389814843,1,0,0,3.4223,Pegmatite_rect,6,3.422,1,5,0,5,0,1,,,,,,,,,,,,,
663a78e29ea520b0ec2b2a43,TCN,2024-06-11_10h10.35.181,LearnStrategy,2023.2.3,Win32,60.60606061,6,1,7,0.025,-0.013888889,1,0,0,1.0605,rock_grid_rect_2,8,05,-1,-1,1.061,0.355555556,-0.397222222,1,0,0,5.1103,Pumice_rect,8,5.11,1,6,0,6,0,1,,,,,,,,,,,,,
663a78e29ea520b0ec2b2a43,TCN,2024-06-11_10h10.35.181,LearnStrategy,2023.2.3,Win32,60.60606061,6,1,8,-0.011111111,0.001851824,1,0,0,1.0076,rock_grid_rect_2,4,16,-1,-1,1.008,0.323148176,-0.229629686,1,0,0,3.3056,Gabbro_rect,4,3.306,1,7,0,7,0,1,,,,,,,,,,,,,
663a78e29ea520b0ec2b2a43,TCN,2024-06-11_10h10.35.181,LearnStrategy,2023.2.3,Win32,60.60606061,6,1,9,-0.070370314,-0.010185199,1,0,0,1.4182,rock_grid_rect_2,4,01,-1,-1,1.418,0.1,-0.25,1,0,0,4.4494,Diorite_rect,3,4.449,0,8,0,8,0,1,,,,,,,,,,,,,
663a78e29ea520b0ec2b2a43,TCN,2024-06-11_10h10.35.181,LearnStrategy,2023.2.3,Win32,60.60606061,6,1,10,0.017592621,-0.002777778,1,0,0,0.7554,rock_grid_rect_2,1,06,-1,-1,0.755,0.212963019,-0.254629686,1,0,0,1.5266,Diorite_rect,3,1.527,0,9,0,9,0,1,,,,,,,,,,,,,
663a78e29ea520b0ec2b2a43,TCN,2024-06-11_10h10.35.181,LearnStrategy,2023.2.3,Win32,60.60606061,6,1,11,-0.044444444,0.012037023,1,0,0,0.9627,rock_grid_rect_2,3,06,-1,-1,0.963,0.3,-0.383333333,1,0,0,3.0806,Pumice_rect,8,3.081,0,10,0,10,0,1,,,,,,,,,,,,,
663a78e29ea520b0ec2b2a43,TCN,2024-06-11_10h10.35.181,LearnStrategy,2023.2.3,Win32,60.60606061,6,1,12,0.058333333,0.007407379,1,0,0,0.7253,rock_grid_rect_2,1,03,-1,-1,0.725,0.344444444,-0.391666667,1,0,0,1.2639,Pumice_rect,8,1.264,0,11,0,11,0,1,,,,,,,,,,,,,
663a78e29ea520b0ec2b2a43,TCN,2024-06-11_10h10.35.181,LearnStrategy,2023.2.3,Win32,60.60606061,6,1,13,0.008333333,0.016666667,1,0,0,0.5901,rock_grid_rect_2,7,12,-1,-1,0.59,-0.062036981,-0.386111111,1,0,0,1.0365,Pegmatite_rect,6,1.036,0,12,0,12,0,1,,,,,,,,,,,,,
663a78e29ea520b0ec2b2a43,TCN,2024-06-11_10h10.35.181,LearnStrategy,2023.2.3,Win32,60.60606061,6,1,14,0.060185242,0,1,0,0,0.7935,rock_grid_rect_2,6,13,-1,-1,0.793,-0.100925869,-0.389814843,1,0,0,3.3752,Pegmatite_rect,6,3.375,1,13,0,13,0,1,,,,,,,,,,,,,
663a78e29ea520b0ec2b2a43,TCN,2024-06-11_10h10.35.181,LearnStrategy,2023.2.3,Win32,60.60606061,6,1,15,0.049074131,-0.019444444,1,0,0,1.4399,rock_grid_rect_2,2,02,-1,-1,1.44,-0.319444444,-0.245370399,1,0,0,3.908,Andesite_rect,1,3.908,0,14,0,14,0,1,,,,,,,,,,,,,
663a78e29ea520b0ec2b2a43,TCN,2024-06-11_10h10.35.181,LearnStrategy,2023.2.3,Win32,60.60606061,6,1,16,-0.010185157,0.005555556,1,0,0,0.842,rock_grid_rect_2,2,01,-1,-1,0.842,-0.080555556,-0.254629686,1,0,0,1.2676,Basalt_rect,2,1.268,1,15,0,15,0,1,,,,,,,,,,,,,
663a78e29ea520b0ec2b2a43,TCN,2024-06-11_10h10.35.181,LearnStrategy,2023.2.3,Win32,60.60606061,6,2,1,,,,,,,,4,08,,,,,,,,,,,4,9.514,1,,,,,,0.341666667,-0.259259288,1,0,0,9.5136,Gabbro_rect,0,0,0,0,1,
663a78e29ea520b0ec2b2a43,TCN,2024-06-11_10h10.35.181,LearnStrategy,2023.2.3,Win32,60.60606061,6,2,2,,,,,,,,6,09,,,,,,,,,,,6,7.492,1,,,,,,-0.098148092,-0.412037065,1,0,0,7.4924,Pegmatite_rect,1,0,1,0,1,
663a78e29ea520b0ec2b2a43,TCN,2024-06-11_10h10.35.181,LearnStrategy,2023.2.3,Win32,60.60606061,6,2,3,,,,,,,,1,05,,,,,,,,,,,3,3.699,0,,,,,,0.084259288,-0.268518575,1,0,0,3.6986,Diorite_rect,2,0,2,0,1,
663a78e29ea520b0ec2b2a43,TCN,2024-06-11_10h10.35.181,LearnStrategy,2023.2.3,Win32,60.60606061,6,2,4,,,,,,,,2,08,,,,,,,,,,,5,3.241,0,,,,,,-0.306481467,-0.388888889,1,0,0,3.2413,Obsidian_rect,3,0,3,0,1,
663a78e29ea520b0ec2b2a43,TCN,2024-06-11_10h10.35.181,LearnStrategy,2023.2.3,Win32,60.60606061,6,2,5,,,,,,,,7,05,,,,,,,,,,,3,4.51,0,,,,,,0.112037065,-0.262037065,1,0,0,4.5099,Diorite_rect,4,0,4,0,1,
663a78e29ea520b0ec2b2a43,TCN,2024-06-11_10h10.35.181,LearnStrategy,2023.2.3,Win32,60.60606061,6,2,6,,,,,,,,3,11,,,,,,,,,,,3,1.698,1,,,,,,0.112037065,-0.252777778,1,0,0,1.698,Diorite_rect,5,0,5,0,1,
663a78e29ea520b0ec2b2a43,TCN,2024-06-11_10h10.35.181,LearnStrategy,2023.2.3,Win32,60.60606061,6,2,7,,,,,,,,7,15,,,,,,,,,,,6,2.776,0,,,,,,-0.112962935,-0.407407464,1,0,0,2.7756,Pegmatite_rect,6,0,6,0,1,
663a78e29ea520b0ec2b2a43,TCN,2024-06-11_10h10.35.181,LearnStrategy,2023.2.3,Win32,60.60606061,6,2,8,,,,,,,,1,10,,,,,,,,,,,8,4.643,0,,,,,,0.323148176,-0.398148176,1,0,0,4.6431,Pumice_rect,7,0,7,0,1,
663a78e29ea520b0ec2b2a43,TCN,2024-06-11_10h10.35.181,LearnStrategy,2023.2.3,Win32,60.60606061,6,2,9,,,,,,,,2,06,,,,,,,,,,,5,1.309,0,,,,,,-0.347222222,-0.382407464,1,0,0,1.3094,Obsidian_rect,8,0,8,0,1,
663a78e29ea520b0ec2b2a43,TCN,2024-06-11_10h10.35.181,LearnStrategy,2023.2.3,Win32,60.60606061,6,2,10,,,,,,,,8,10,,,,,,,,,,,8,1.393,1,,,,,,0.372222222,-0.405555556,1,0,0,1.3928,Pumice_rect,9,0,9,0,1,
663a78e29ea520b0ec2b2a43,TCN,2024-06-11_10h10.35.181,LearnStrategy,2023.2.3,Win32,60.60606061,6,2,11,,,,,,,,4,11,,,,,,,,,,,3,1.535,0,,,,,,0.166666667,-0.253703732,1,0,0,1.5347,Diorite_rect,10,0,10,0,1,
663a78e29ea520b0ec2b2a43,TCN,2024-06-11_10h10.35.181,LearnStrategy,2023.2.3,Win32,60.60606061,6,2,12,,,,,,,,8,09,,,,,,,,,,,8,1.261,1,,,,,,0.387037065,-0.408333333,1,0,0,1.2607,Pumice_rect,11,0,11,0,1,
663a78e29ea520b0ec2b2a43,TCN,2024-06-11_10h10.35.181,LearnStrategy,2023.2.3,Win32,60.60606061,6,2,13,,,,,,,,6,11,,,,,,,,,,,5,1.517,0,,,,,,-0.322222222,-0.409259288,1,0,0,1.5165,Obsidian_rect,12,0,12,0,1,
663a78e29ea520b0ec2b2a43,TCN,2024-06-11_10h10.35.181,LearnStrategy,2023.2.3,Win32,60.60606061,6,2,14,,,,,,,,5,11,,,,,,,,,,,5,5.174,1,,,,,,-0.39351849,-0.401851908,1,0,0,5.1738,Obsidian_rect,13,0,13,0,1,
663a78e29ea520b0ec2b2a43,TCN,2024-06-11_10h10.35.181,LearnStrategy,2023.2.3,Win32,60.60606061,6,2,15,,,,,,,,3,12,,,,,,,,,,,3,4.66,1,,,,,,0.068518575,-0.247222222,1,0,0,4.6596,Diorite_rect,14,0,14,0,1,
663a78e29ea520b0ec2b2a43,TCN,2024-06-11_10h10.35.181,LearnStrategy,2023.2.3,Win32,60.60606061,6,2,16,,,,,,,,5,08,,,,,,,,,,,5,4.214,1,,,,,,-0.314814801,-0.416666667,1,0,0,4.2138,Obsidian_rect,15,0,15,0,1,
663a78e29ea520b0ec2b2a43,TCN,2024-06-11_10h10.35.181,LearnStrategy,2023.2.3,Win32,60.60606061,7,1,1,0.122222222,-0.010185199,1,0,0,1.0006,rock_grid_rect_2,7,04,-1,-1,1.001,0.368518575,-0.384259288,1,0,0,4.5688,Pumice_rect,8,4.569,0,0,0,0,0,1,,,,,,,,,,,,,
663a78e29ea520b0ec2b2a43,TCN,2024-06-11_10h10.35.181,LearnStrategy,2023.2.3,Win32,60.60606061,7,1,2,0.093518575,-0.009259288,1,0,0,1.1347,rock_grid_rect_2,8,16,-1,-1,1.135,0.379629686,-0.408333333,1,0,0,2.0031,Pumice_rect,8,2.003,1,1,0,1,0,1,,,,,,,,,,,,,
663a78e29ea520b0ec2b2a43,TCN,2024-06-11_10h10.35.181,LearnStrategy,2023.2.3,Win32,60.60606061,7,1,3,0.100925954,-0.013888889,1,0,0,1.2083,rock_grid_rect_2,2,14,-1,-1,1.208,0.313888889,-0.403703732,1,0,0,2.2386,Pumice_rect,8,2.239,0,2,0,2,0,1,,,,,,,,,,,,,
663a78e29ea520b0ec2b2a43,TCN,2024-06-11_10h10.35.181,LearnStrategy,2023.2.3,Win32,60.60606061,7,1,4,0.066666667,0.002777778,1,0,0,1.0888,rock_grid_rect_2,3,08,-1,-1,1.089,0.168518575,-0.268518575,1,0,0,4.3416,Diorite_rect,3,4.342,1,3,0,3,0,1,,,,,,,,,,,,,
663a78e29ea520b0ec2b2a43,TCN,2024-06-11_10h10.35.181,LearnStrategy,2023.2.3,Win32,60.60606061,7,1,5,0.128703732,-0.015740755,1,0,0,0.9756,rock_grid_rect_2,1,07,-1,-1,0.976,-0.065740712,-0.383333333,1,0,0,4.4576,Pegmatite_rect,6,4.458,0,4,0,4,0,1,,,,,,,,,,,,,
663a78e29ea520b0ec2b2a43,TCN,2024-06-11_10h10.35.181,LearnStrategy,2023.2.3,Win32,60.60606061,7,1,6,0.152777778,-0.00648151,1,0,0,1.0568,rock_grid_rect_2,8,04,-1,-1,1.057,0.434259288,-0.397222222,1,0,0,1.2421,Pumice_rect,8,1.242,1,5,0,5,0,1,,,,,,,,,,,,,
663a78e29ea520b0ec2b2a43,TCN,2024-06-11_10h10.35.181,LearnStrategy,2023.2.3,Win32,60.60606061,7,1,7,0.108333333,-0.010185199,1,0,0,0.8424,rock_grid_rect_2,4,09,-1,-1,0.842,0.091666667,-0.230555556,1,0,0,2.0757,Diorite_rect,3,2.076,0,6,0,6,0,1,,,,,,,,,,,,,
663a78e29ea520b0ec2b2a43,TCN,2024-06-11_10h10.35.181,LearnStrategy,2023.2.3,Win32,60.60606061,7,1,8,0.113888889,0.013888889,1,0,0,0.6737,rock_grid_rect_2,2,01,-1,-1,0.674,-0.370370356,-0.389814843,1,0,0,1.4624,Obsidian_rect,5,1.462,0,7,0,7,0,1,,,,,,,,,,,,,
663a78e29ea520b0ec2b2a43,TCN,2024-06-11_10h10.35.181,LearnStrategy,2023.2.3,Win32,60.60606061,7,1,9,0.10648151,-0.003703732,1,0,0,0.6759,rock_grid_rect_2,3,02,-1,-1,0.676,0.104629686,-0.268518575,1,0,0,2.5883,Diorite_rect,3,2.588,1,8,0,8,0,1,,,,,,,,,,,,,
663a78e29ea520b0ec2b2a43,TCN,2024-06-11_10h10.35.181,LearnStrategy,2023.2.3,Win32,60.60606061,7,1,10,0.093518575,-0.004629644,1,0,0,0.7433,rock_grid_rect_2,4,12,-1,-1,0.743,0.334259288,-0.233333333,1,0,0,3.302,Gabbro_rect,4,3.302,1,9,0,9,0,1,,,,,,,,,,,,,
663a78e29ea520b0ec2b2a43,TCN,2024-06-11_10h10.35.181,LearnStrategy,2023.2.3,Win32,60.60606061,7,1,11,0.001851908,-0.001851866,1,0,0,0.7657,rock_grid_rect_2,6,16,-1,-1,0.766,-0.412037023,-0.404629686,1,0,0,2.1081,Obsidian_rect,5,2.108,0,10,0,10,0,1,,,,,,,,,,,,,
663a78e29ea520b0ec2b2a43,TCN,2024-06-11_10h10.35.181,LearnStrategy,2023.2.3,Win32,60.60606061,7,1,12,0.062963019,0.009259245,1,0,0,1.3855,rock_grid_rect_2,6,10,-1,-1,1.386,-0.155555556,-0.414814843,1,0,0,5.7188,Pegmatite_rect,6,5.719,1,11,0,11,0,1,,,,,,,,,,,,,
663a78e29ea520b0ec2b2a43,TCN,2024-06-11_10h10.35.181,LearnStrategy,2023.2.3,Win32,60.60606061,7,1,13,0.041666667,-0.022222222,1,0,0,1.0596,rock_grid_rect_2,7,07,-1,-1,1.06,0.333333333,-0.255555556,1,0,0,4.3698,Gabbro_rect,4,4.37,0,12,0,12,0,1,,,,,,,,,,,,,
663a78e29ea520b0ec2b2a43,TCN,2024-06-11_10h10.35.181,LearnStrategy,2023.2.3,Win32,60.60606061,7,1,14,0.092592621,-0.009259288,1,0,0,0.6908,rock_grid_rect_2,5,02,-1,-1,0.691,-0.31851849,-0.384259288,1,0,0,4.753,Obsidian_rect,5,4.753,1,13,0,13,0,1,,,,,,,,,,,,,
663a78e29ea520b0ec2b2a43,TCN,2024-06-11_10h10.35.181,LearnStrategy,2023.2.3,Win32,60.60606061,7,1,15,0.029629686,-0.018518533,1,0,0,1.0255,rock_grid_rect_2,5,12,-1,-1,1.025,-0.358333333,-0.394444444,1,0,0,1.3971,Obsidian_rect,5,1.397,1,14,0,14,0,1,,,,,,,,,,,,,
663a78e29ea520b0ec2b2a43,TCN,2024-06-11_10h10.35.181,LearnStrategy,2023.2.3,Win32,60.60606061,7,1,16,0.061111111,-0.012962977,1,0,0,0.7693,rock_grid_rect_2,1,11,-1,-1,0.769,-0.074074046,-0.4,1,0,0,3.0647,Pegmatite_rect,6,3.065,0,15,0,15,0,1,,,,,,,,,,,,,
663a78e29ea520b0ec2b2a43,TCN,2024-06-11_10h10.35.181,LearnStrategy,2023.2.3,Win32,60.60606061,7,2,1,,,,,,,,4,13,,,,,,,,,,,3,21.437,0,,,,,,0.196296353,-0.23148151,1,0,0,21.4373,Diorite_rect,0,0,0,0,1,
663a78e29ea520b0ec2b2a43,TCN,2024-06-11_10h10.35.181,LearnStrategy,2023.2.3,Win32,60.60606061,7,2,2,,,,,,,,6,15,,,,,,,,,,,6,3.816,1,,,,,,-0.151851824,-0.412963019,1,0,0,3.8162,Pegmatite_rect,1,0,1,0,1,
663a78e29ea520b0ec2b2a43,TCN,2024-06-11_10h10.35.181,LearnStrategy,2023.2.3,Win32,60.60606061,7,2,3,,,,,,,,5,11,,,,,,,,,,,5,3.004,1,,,,,,-0.390740712,-0.411111111,1,0,0,3.0039,Obsidian_rect,2,0,2,0,1,
663a78e29ea520b0ec2b2a43,TCN,2024-06-11_10h10.35.181,LearnStrategy,2023.2.3,Win32,60.60606061,7,2,4,,,,,,,,6,07,,,,,,,,,,,6,1.146,1,,,,,,-0.217592578,-0.411111111,1,0,0,1.1464,Pegmatite_rect,3,0,3,0,1,
663a78e29ea520b0ec2b2a43,TCN,2024-06-11_10h10.35.181,LearnStrategy,2023.2.3,Win32,60.60606061,7,2,5,,,,,,,,8,14,,,,,,,,,,,8,1.311,1,,,,,,0.290740797,-0.400925954,1,0,0,1.3107,Pumice_rect,4,0,4,0,1,
663a78e29ea520b0ec2b2a43,TCN,2024-06-11_10h10.35.181,LearnStrategy,2023.2.3,Win32,60.60606061,7,2,6,,,,,,,,7,15,,,,,,,,,,,4,3.122,0,,,,,,0.376851908,-0.264814843,1,0,0,3.1222,Gabbro_rect,5,0,5,0,1,
663a78e29ea520b0ec2b2a43,TCN,2024-06-11_10h10.35.181,LearnStrategy,2023.2.3,Win32,60.60606061,7,2,7,,,,,,,,1,04,,,,,,,,,,,8,1.492,0,,,,,,0.33148151,-0.388888889,1,0,0,1.4918,Pumice_rect,6,0,6,0,1,
663a78e29ea520b0ec2b2a43,TCN,2024-06-11_10h10.35.181,LearnStrategy,2023.2.3,Win32,60.60606061,7,2,8,,,,,,,,8,09,,,,,,,,,,,8,1.284,1,,,,,,0.325,-0.388888889,1,0,0,1.2842,Pumice_rect,7,0,7,0,1,
663a78e29ea520b0ec2b2a43,TCN,2024-06-11_10h10.35.181,LearnStrategy,2023.2.3,Win32,60.60606061,7,2,9,,,,,,,,1,02,,,,,,,,,,,8,0.961,0,,,,,,0.388888889,-0.395370399,1,0,0,0.9615,Pumice_rect,8,0,8,0,1,
663a78e29ea520b0ec2b2a43,TCN,2024-06-11_10h10.35.181,LearnStrategy,2023.2.3,Win32,60.60606061,7,2,10,,,,,,,,2,16,,,,,,,,,,,6,1.188,0,,,,,,-0.14351849,-0.392592621,1,0,0,1.1879,Pegmatite_rect,9,0,9,0,1,
663a78e29ea520b0ec2b2a43,TCN,2024-06-11_10h10.35.181,LearnStrategy,2023.2.3,Win32,60.60606061,7,2,11,,,,,,,,3,12,,,,,,,,,,,3,2.039,1,,,,,,0.187037065,-0.264814843,1,0,0,2.0386,Diorite_rect,10,0,10,0,1,
663a78e29ea520b0ec2b2a43,TCN,2024-06-11_10h10.35.181,LearnStrategy,2023.2.3,Win32,60.60606061,7,2,12,,,,,,,,7,06,,,,,,,,,,,6,5.2,0,,,,,,-0.104629601,-0.387037065,1,0,0,5.2003,Pegmatite_rect,11,0,11,0,1,
663a78e29ea520b0ec2b2a43,TCN,2024-06-11_10h10.35.181,LearnStrategy,2023.2.3,Win32,60.60606061,7,2,13,,,,,,,,4,11,,,,,,,,,,,5,1.323,0,,,,,,-0.369444444,-0.407407464,1,0,0,1.3234,Obsidian_rect,12,0,12,0,1,
663a78e29ea520b0ec2b2a43,TCN,2024-06-11_10h10.35.181,LearnStrategy,2023.2.3,Win32,60.60606061,7,2,14,,,,,,,,5,06,,,,,,,,,,,5,1.165,1,,,,,,-0.413888889,-0.414814843,1,0,0,1.1649,Obsidian_rect,13,0,13,0,1,
663a78e29ea520b0ec2b2a43,TCN,2024-06-11_10h10.35.181,LearnStrategy,2023.2.3,Win32,60.60606061,7,2,15,,,,,,,,2,08,,,,,,,,,,,4,1.749,0,,,,,,0.345370399,-0.253703732,1,0,0,1.7486,Gabbro_rect,14,0,14,0,1,
663a78e29ea520b0ec2b2a43,TCN,2024-06-11_10h10.35.181,LearnStrategy,2023.2.3,Win32,60.60606061,7,2,16,,,,,,,,3,15,,,,,,,,,,,3,1.403,1,,,,,,0.168518575,-0.25,1,0,0,1.4033,Diorite_rect,15,0,15,0,1,
663a78e29ea520b0ec2b2a43,TCN,2024-06-11_10h10.35.181,LearnStrategy,2023.2.3,Win32,60.60606061,8,1,1,0.059259288,-0.018518533,1,0,0,1.0034,rock_grid_rect_2,1,03,-1,-1,1.003,0.098148176,-0.258333333,1,0,0,5.2676,Diorite_rect,3,5.268,0,0,0,0,0,1,,,,,,,,,,,,,
663a78e29ea520b0ec2b2a43,TCN,2024-06-11_10h10.35.181,LearnStrategy,2023.2.3,Win32,60.60606061,8,1,2,0.040740797,-0.007407422,1,0,0,0.9318,rock_grid_rect_2,5,10,-1,-1,0.932,-0.36851849,-0.388888889,1,0,0,1.0099,Obsidian_rect,5,1.01,1,1,0,1,0,1,,,,,,,,,,,,,
663a78e29ea520b0ec2b2a43,TCN,2024-06-11_10h10.35.181,LearnStrategy,2023.2.3,Win32,60.60606061,8,1,3,-0.111111111,-0.012962977,1,0,0,0.9432,rock_grid_rect_2,4,15,-1,-1,0.943,0.358333333,-0.250925954,1,0,0,1.9652,Gabbro_rect,4,1.965,1,2,0,2,0,1,,,,,,,,,,,,,
663a78e29ea520b0ec2b2a43,TCN,2024-06-11_10h10.35.181,LearnStrategy,2023.2.3,Win32,60.60606061,8,1,4,-0.004629601,-0.015740755,1,0,0,1.31,rock_grid_rect_2,2,02,-1,-1,1.31,0.341666667,-0.244444444,1,0,0,3.4509,Gabbro_rect,4,3.451,0,3,0,3,0,1,,,,,,,,,,,,,
663a78e29ea520b0ec2b2a43,TCN,2024-06-11_10h10.35.181,LearnStrategy,2023.2.3,Win32,60.60606061,8,1,5,0.046296353,0.019444444,1,0,0,0.7154,rock_grid_rect_2,8,13,-1,-1,0.715,0.387037065,-0.404629686,1,0,0,1.1965,Pumice_rect,8,1.197,1,4,0,4,0,1,,,,,,,,,,,,,
663a78e29ea520b0ec2b2a43,TCN,2024-06-11_10h10.35.181,LearnStrategy,2023.2.3,Win32,60.60606061,8,1,6,0.018518575,-0.012037065,1,0,0,0.7768,rock_grid_rect_2,7,10,-1,-1,0.777,0.096296353,-0.257407464,1,0,0,1.5097,Diorite_rect,3,1.51,0,5,0,5,0,1,,,,,,,,,,,,,
663a78e29ea520b0ec2b2a43,TCN,2024-06-11_10h10.35.181,LearnStrategy,2023.2.3,Win32,60.60606061,8,1,7,-0.022222222,0.004629601,1,0,0,1.0401,rock_grid_rect_2,1,09,-1,-1,1.04,-0.104629601,-0.25,1,0,0,1.3867,Basalt_rect,2,1.387,0,6,0,6,0,1,,,,,,,,,,,,,
663a78e29ea520b0ec2b2a43,TCN,2024-06-11_10h10.35.181,LearnStrategy,2023.2.3,Win32,60.60606061,8,1,8,-0.025925869,0.004629601,1,0,0,0.8273,rock_grid_rect_2,7,02,-1,-1,0.827,0.35,-0.418518575,1,0,0,1.5627,Pumice_rect,8,1.563,0,7,0,7,0,1,,,,,,,,,,,,,
663a78e29ea520b0ec2b2a43,TCN,2024-06-11_10h10.35.181,LearnStrategy,2023.2.3,Win32,60.60606061,8,1,9,0.007407464,-0.008333333,1,0,0,1.011,rock_grid_rect_2,6,12,-1,-1,1.011,-0.145370314,-0.382407464,1,0,0,1.1771,Pegmatite_rect,6,1.177,1,8,0,8,0,1,,,,,,,,,,,,,
663a78e29ea520b0ec2b2a43,TCN,2024-06-11_10h10.35.181,LearnStrategy,2023.2.3,Win32,60.60606061,8,1,10,0.027777778,-0.015740755,1,0,0,0.8423,rock_grid_rect_2,4,01,-1,-1,0.842,0.308333333,-0.253703732,1,0,0,2.8882,Gabbro_rect,4,2.888,1,9,0,9,0,1,,,,,,,,,,,,,
663a78e29ea520b0ec2b2a43,TCN,2024-06-11_10h10.35.181,LearnStrategy,2023.2.3,Win32,60.60606061,8,1,11,0.042592621,-0.001851866,1,0,0,1.2335,rock_grid_rect_2,5,16,-1,-1,1.233,-0.324074046,-0.379629686,1,0,0,1.6223,Obsidian_rect,5,1.622,1,10,0,10,0,1,,,,,,,,,,,,,
663a78e29ea520b0ec2b2a43,TCN,2024-06-11_10h10.35.181,LearnStrategy,2023.2.3,Win32,60.60606061,8,1,12,0.061111111,0.012962935,1,0,0,0.9329,rock_grid_rect_2,2,10,-1,-1,0.933,-0.125,-0.242592621,1,0,0,1.9169,Basalt_rect,2,1.917,1,11,0,11,0,1,,,,,,,,,,,,,
663a78e29ea520b0ec2b2a43,TCN,2024-06-11_10h10.35.181,LearnStrategy,2023.2.3,Win32,60.60606061,8,1,13,-0.028703647,0.002777778,1,0,0,0.7565,rock_grid_rect_2,8,15,-1,-1,0.756,0.396296353,-0.393518575,1,0,0,1.1956,Pumice_rect,8,1.196,1,12,0,12,0,1,,,,,,,,,,,,,
663a78e29ea520b0ec2b2a43,TCN,2024-06-11_10h10.35.181,LearnStrategy,2023.2.3,Win32,60.60606061,8,1,14,-0.024074046,-0.010185199,1,0,0,0.9336,rock_grid_rect_2,3,13,-1,-1,0.934,0.048148176,-0.255555556,1,0,0,1.0397,Diorite_rect,3,1.04,1,13,0,13,0,1,,,,,,,,,,,,,
663a78e29ea520b0ec2b2a43,TCN,2024-06-11_10h10.35.181,LearnStrategy,2023.2.3,Win32,60.60606061,8,1,15,0.012037065,0.012962935,1,0,0,0.5272,rock_grid_rect_2,3,07,-1,-1,0.527,-0.373148134,-0.25,1,0,0,1.8591,Andesite_rect,1,1.859,0,14,0,14,0,1,,,,,,,,,,,,,
663a78e29ea520b0ec2b2a43,TCN,2024-06-11_10h10.35.181,LearnStrategy,2023.2.3,Win32,60.60606061,8,1,16,-0.063888889,-0.012962977,1,0,0,0.8978,rock_grid_rect_2,6,13,-1,-1,0.898,0.115740797,-0.259259288,1,0,0,1.5434,Diorite_rect,3,1.543,0,15,0,15,0,1,,,,,,,,,,,,,
663a78e29ea520b0ec2b2a43,TCN,2024-06-11_10h10.35.181,LearnStrategy,2023.2.3,Win32,60.60606061,8,2,1,,,,,,,,3,11,,,,,,,,,,,7,2.377,0,,,,,,0.104629686,-0.383333333,1,0,0,2.377,Peridotite_rect,0,0,0,0,1,
663a78e29ea520b0ec2b2a43,TCN,2024-06-11_10h10.35.181,LearnStrategy,2023.2.3,Win32,60.60606061,8,2,2,,,,,,,,7,16,,,,,,,,,,,7,1.661,1,,,,,,0.033333333,-0.410185242,1,0,0,1.6608,Peridotite_rect,1,0,1,0,1,
663a78e29ea520b0ec2b2a43,TCN,2024-06-11_10h10.35.181,LearnStrategy,2023.2.3,Win32,60.60606061,8,2,3,,,,,,,,2,05,,,,,,,,,,,4,2.844,0,,,,,,0.329629686,-0.25,1,0,0,2.8443,Gabbro_rect,2,0,2,0,1,
663a78e29ea520b0ec2b2a43,TCN,2024-06-11_10h10.35.181,LearnStrategy,2023.2.3,Win32,60.60606061,8,2,4,,,,,,,,8,10,,,,,,,,,,,8,1.899,1,,,,,,0.352777778,-0.390740797,1,0,0,1.8986,Pumice_rect,3,0,3,0,1,
663a78e29ea520b0ec2b2a43,TCN,2024-06-11_10h10.35.181,LearnStrategy,2023.2.3,Win32,60.60606061,8,2,5,,,,,,,,6,11,,,,,,,,,,,5,2.183,0,,,,,,-0.296296268,-0.387963019,1,0,0,2.1832,Obsidian_rect,4,0,4,0,1,
663a78e29ea520b0ec2b2a43,TCN,2024-06-11_10h10.35.181,LearnStrategy,2023.2.3,Win32,60.60606061,8,2,6,,,,,,,,1,01,,,,,,,,,,,6,1.557,0,,,,,,-0.186111111,-0.395370399,1,0,0,1.5567,Pegmatite_rect,5,0,5,0,1,
663a78e29ea520b0ec2b2a43,TCN,2024-06-11_10h10.35.181,LearnStrategy,2023.2.3,Win32,60.60606061,8,2,7,,,,,,,,1,05,,,,,,,,,,,4,3.36,0,,,,,,0.301851908,-0.255555556,1,0,0,3.3596,Gabbro_rect,6,0,6,0,1,
663a78e29ea520b0ec2b2a43,TCN,2024-06-11_10h10.35.181,LearnStrategy,2023.2.3,Win32,60.60606061,8,2,8,,,,,,,,5,14,,,,,,,,,,,5,1.52,1,,,,,,-0.341666667,-0.403703732,1,0,0,1.5199,Obsidian_rect,7,0,7,0,1,
663a78e29ea520b0ec2b2a43,TCN,2024-06-11_10h10.35.181,LearnStrategy,2023.2.3,Win32,60.60606061,8,2,9,,,,,,,,6,09,,,,,,,,,,,6,4.643,1,,,,,,-0.158333333,-0.384259288,1,0,0,4.6431,Pegmatite_rect,8,0,8,0,1,
663a78e29ea520b0ec2b2a43,TCN,2024-06-11_10h10.35.181,LearnStrategy,2023.2.3,Win32,60.60606061,8,2,10,,,,,,,,3,16,,,,,,,,,,,3,2.266,1,,,,,,0.112963019,-0.244444444,1,0,0,2.2661,Diorite_rect,9,0,9,0,1,
663a78e29ea520b0ec2b2a43,TCN,2024-06-11_10h10.35.181,LearnStrategy,2023.2.3,Win32,60.60606061,8,2,11,,,,,,,,2,12,,,,,,,,,,,8,1.527,0,,,,,,0.335185242,-0.401851908,1,0,0,1.5267,Pumice_rect,10,0,10,0,1,
663a78e29ea520b0ec2b2a43,TCN,2024-06-11_10h10.35.181,LearnStrategy,2023.2.3,Win32,60.60606061,8,2,12,,,,,,,,4,03,,,,,,,,,,,4,1.757,1,,,,,,0.309259288,-0.252777778,1,0,0,1.7575,Gabbro_rect,11,0,11,0,1,
663a78e29ea520b0ec2b2a43,TCN,2024-06-11_10h10.35.181,LearnStrategy,2023.2.3,Win32,60.60606061,8,2,13,,,,,,,,8,02,,,,,,,,,,,8,1.399,1,,,,,,0.319444444,-0.395370399,1,0,0,1.3987,Pumice_rect,12,0,12,0,1,
663a78e29ea520b0ec2b2a43,TCN,2024-06-11_10h10.35.181,LearnStrategy,2023.2.3,Win32,60.60606061,8,2,14,,,,,,,,5,07,,,,,,,,,,,5,1.157,1,,,,,,-0.365740712,-0.412963019,1,0,0,1.1568,Obsidian_rect,13,0,13,0,1,
663a78e29ea520b0ec2b2a43,TCN,2024-06-11_10h10.35.181,LearnStrategy,2023.2.3,Win32,60.60606061,8,2,15,,,,,,,,7,05,,,,,,,,,,,2,1.293,0,,,,,,-0.057407379,-0.262037065,1,0,0,1.2932,Basalt_rect,14,0,14,0,1,
663a78e29ea520b0ec2b2a43,TCN,2024-06-11_10h10.35.181,LearnStrategy,2023.2.3,Win32,60.60606061,8,2,16,,,,,,,,4,14,,,,,,,,,,,6,2.053,0,,,,,,-0.099074046,-0.394444444,1,0,0,2.0528,Pegmatite_rect,15,0,15,0,1,
663a78e29ea520b0ec2b2a43,TCN,2024-06-11_10h10.35.181,LearnStrategy,2023.2.3,Win32,60.60606061,9,1,1,-0.024074046,-0.011111111,1,0,0,1.4048,rock_grid_rect_2,3,06,-1,-1,1.405,0.391666667,-0.257407464,1,0,0,4.6505,Gabbro_rect,4,4.65,0,0,0,0,0,1,,,,,,,,,,,,,
663a78e29ea520b0ec2b2a43,TCN,2024-06-11_10h10.35.181,LearnStrategy,2023.2.3,Win32,60.60606061,9,1,2,-0.025,-0.016666667,1,0,0,1.1591,rock_grid_rect_2,4,16,-1,-1,1.159,-0.121296268,-0.242592621,1,0,0,1.4892,Basalt_rect,2,1.489,0,1,0,1,0,1,,,,,,,,,,,,,
663a78e29ea520b0ec2b2a43,TCN,2024-06-11_10h10.35.181,LearnStrategy,2023.2.3,Win32,60.60606061,9,1,3,-0.028703647,0.004629601,1,0,0,1.4248,rock_grid_rect_2,2,04,-1,-1,1.425,0.179629686,-0.250925954,1,0,0,1.8609,Diorite_rect,3,1.861,0,2,0,2,0,1,,,,,,,,,,,,,
663a78e29ea520b0ec2b2a43,TCN,2024-06-11_10h10.35.181,LearnStrategy,2023.2.3,Win32,60.60606061,9,1,4,-0.038888889,-0.02129631,1,0,0,0.8758,rock_grid_rect_2,8,06,-1,-1,0.876,0.440740797,-0.414814843,1,0,0,1.1022,Pumice_rect,8,1.102,1,3,0,3,0,1,,,,,,,,,,,,,
663a78e29ea520b0ec2b2a43,TCN,2024-06-11_10h10.35.181,LearnStrategy,2023.2.3,Win32,60.60606061,9,1,5,-0.012036981,-0.015740755,1,0,0,1.128,rock_grid_rect_2,6,05,-1,-1,1.128,-0.176851824,-0.403703732,1,0,0,2.9768,Pegmatite_rect,6,2.977,1,4,0,4,0,1,,,,,,,,,,,,,
663a78e29ea520b0ec2b2a43,TCN,2024-06-11_10h10.35.181,LearnStrategy,2023.2.3,Win32,60.60606061,9,1,6,-0.04351849,-0.003703732,1,0,0,0.8068,rock_grid_rect_2,2,11,-1,-1,0.807,0.394444444,-0.385185242,1,0,0,1.6633,Pumice_rect,8,1.663,0,5,0,5,0,1,,,,,,,,,,,,,
663a78e29ea520b0ec2b2a43,TCN,2024-06-11_10h10.35.181,LearnStrategy,2023.2.3,Win32,60.60606061,9,1,7,-0.032407379,0.004629601,1,0,0,1.2569,rock_grid_rect_2,7,08,-1,-1,1.257,0.123148176,-0.262037065,1,0,0,1.7088,Diorite_rect,3,1.709,0,6,0,6,0,1,,,,,,,,,,,,,
663a78e29ea520b0ec2b2a43,TCN,2024-06-11_10h10.35.181,LearnStrategy,2023.2.3,Win32,60.60606061,9,1,8,-0.015740712,0.004629601,1,0,0,0.6352,rock_grid_rect_2,6,03,-1,-1,0.635,-0.209259245,-0.386111111,1,0,0,1.2383,Pegmatite_rect,6,1.238,1,7,0,7,0,1,,,,,,,,,,,,,
663a78e29ea520b0ec2b2a43,TCN,2024-06-11_10h10.35.181,LearnStrategy,2023.2.3,Win32,60.60606061,9,1,9,-0.017592536,-0.008333333,1,0,0,0.7615,rock_grid_rect_2,1,06,-1,-1,0.761,-0.359259245,-0.253703732,1,0,0,1.6679,Andesite_rect,1,1.668,1,8,0,8,0,1,,,,,,,,,,,,,
663a78e29ea520b0ec2b2a43,TCN,2024-06-11_10h10.35.181,LearnStrategy,2023.2.3,Win32,60.60606061,9,1,10,0.007407464,-0.013888889,1,0,0,1.0772,rock_grid_rect_2,7,12,-1,-1,1.077,-0.309259245,-0.264814843,1,0,0,1.5384,Andesite_rect,1,1.538,0,9,0,9,0,1,,,,,,,,,,,,,
663a78e29ea520b0ec2b2a43,TCN,2024-06-11_10h10.35.181,LearnStrategy,2023.2.3,Win32,60.60606061,9,1,11,0.05648151,0.013888889,1,0,0,0.6538,rock_grid_rect_2,1,16,-1,-1,0.654,0.08148151,-0.390740797,1,0,0,1.3426,Peridotite_rect,7,1.343,0,10,0,10,0,1,,,,,,,,,,,,,
663a78e29ea520b0ec2b2a43,TCN,2024-06-11_10h10.35.181,LearnStrategy,2023.2.3,Win32,60.60606061,9,1,12,-0.025925869,0.020370356,1,0,0,1.0092,rock_grid_rect_2,8,05,-1,-1,1.009,0.322222222,-0.386111111,1,0,0,2.3255,Pumice_rect,8,2.326,1,11,0,11,0,1,,,,,,,,,,,,,
663a78e29ea520b0ec2b2a43,TCN,2024-06-11_10h10.35.181,LearnStrategy,2023.2.3,Win32,60.60606061,9,1,13,0.033333333,-0.003703732,1,0,0,0.8075,rock_grid_rect_2,4,05,-1,-1,0.807,0.085185242,-0.253703732,1,0,0,1.7621,Diorite_rect,3,1.762,0,12,0,12,0,1,,,,,,,,,,,,,
663a78e29ea520b0ec2b2a43,TCN,2024-06-11_10h10.35.181,LearnStrategy,2023.2.3,Win32,60.60606061,9,1,14,0.029629686,0.001851824,1,0,0,1.0755,rock_grid_rect_2,5,09,-1,-1,1.075,-0.36851849,-0.395370399,1,0,0,1.7689,Obsidian_rect,5,1.769,1,13,0,13,0,1,,,,,,,,,,,,,
663a78e29ea520b0ec2b2a43,TCN,2024-06-11_10h10.35.181,LearnStrategy,2023.2.3,Win32,60.60606061,9,1,15,0.052777778,-0.007407422,1,0,0,0.9852,rock_grid_rect_2,5,04,-1,-1,0.985,-0.155555556,-0.408333333,1,0,0,1.4924,Pegmatite_rect,6,1.492,0,14,0,14,0,1,,,,,,,,,,,,,
663a78e29ea520b0ec2b2a43,TCN,2024-06-11_10h10.35.181,LearnStrategy,2023.2.3,Win32,60.60606061,9,1,16,-0.044444444,0.011111111,1,0,0,0.8582,rock_grid_rect_2,3,10,-1,-1,0.858,-0.349074046,-0.263888889,1,0,0,1.6997,Andesite_rect,1,1.7,0,15,0,15,0,1,,,,,,,,,,,,,
663a78e29ea520b0ec2b2a43,TCN,2024-06-11_10h10.35.181,LearnStrategy,2023.2.3,Win32,60.60606061,9,2,1,,,,,,,,3,09,,,,,,,,,,,3,4.111,1,,,,,,0.091666667,-0.234259288,1,0,0,4.111,Diorite_rect,0,0,0,0,1,
663a78e29ea520b0ec2b2a43,TCN,2024-06-11_10h10.35.181,LearnStrategy,2023.2.3,Win32,60.60606061,9,2,2,,,,,,,,6,08,,,,,,,,,,,6,3.503,1,,,,,,-0.196296268,-0.38148151,1,0,0,3.5026,Pegmatite_rect,1,0,1,0,1,
663a78e29ea520b0ec2b2a43,TCN,2024-06-11_10h10.35.181,LearnStrategy,2023.2.3,Win32,60.60606061,9,2,3,,,,,,,,1,10,,,,,,,,,,,8,1.481,0,,,,,,0.393518575,-0.412037065,1,0,0,1.4814,Pumice_rect,2,0,2,0,1,
663a78e29ea520b0ec2b2a43,TCN,2024-06-11_10h10.35.181,LearnStrategy,2023.2.3,Win32,60.60606061,9,2,4,,,,,,,,5,08,,,,,,,,,,,5,1.253,1,,,,,,-0.341666667,-0.410185242,1,0,0,1.2525,Obsidian_rect,3,0,3,0,1,
663a78e29ea520b0ec2b2a43,TCN,2024-06-11_10h10.35.181,LearnStrategy,2023.2.3,Win32,60.60606061,9,2,5,,,,,,,,3,14,,,,,,,,,,,1,2.183,0,,,,,,-0.327777778,-0.270370399,1,0,0,2.1826,Andesite_rect,4,0,4,0,1,
663a78e29ea520b0ec2b2a43,TCN,2024-06-11_10h10.35.181,LearnStrategy,2023.2.3,Win32,60.60606061,9,2,6,,,,,,,,5,05,,,,,,,,,,,4,1.794,0,,,,,,0.366666667,-0.258333333,1,0,0,1.7941,Gabbro_rect,5,0,5,0,1,
663a78e29ea520b0ec2b2a43,TCN,2024-06-11_10h10.35.181,LearnStrategy,2023.2.3,Win32,60.60606061,9,2,7,,,,,,,,1,14,,,,,,,,,,,4,1.752,0,,,,,,0.346296353,-0.252777778,1,0,0,1.7521,Gabbro_rect,6,0,6,0,1,
663a78e29ea520b0ec2b2a43,TCN,2024-06-11_10h10.35.181,LearnStrategy,2023.2.3,Win32,60.60606061,9,2,8,,,,,,,,7,13,,,,,,,,,,,3,1.14,0,,,,,,0.115740797,-0.236111111,1,0,0,1.1396,Diorite_rect,7,0,7,0,1,
663a78e29ea520b0ec2b2a43,TCN,2024-06-11_10h10.35.181,LearnStrategy,2023.2.3,Win32,60.60606061,9,2,9,,,,,,,,7,14,,,,,,,,,,,2,1.201,0,,,,,,-0.094444444,-0.25648151,1,0,0,1.2005,Basalt_rect,8,0,8,0,1,
663a78e29ea520b0ec2b2a43,TCN,2024-06-11_10h10.35.181,LearnStrategy,2023.2.3,Win32,60.60606061,9,2,10,,,,,,,,2,09,,,,,,,,,,,4,1.668,0,,,,,,0.361111111,-0.250925954,1,0,0,1.6683,Gabbro_rect,9,0,9,0,1,
663a78e29ea520b0ec2b2a43,TCN,2024-06-11_10h10.35.181,LearnStrategy,2023.2.3,Win32,60.60606061,9,2,11,,,,,,,,4,10,,,,,,,,,,,3,1.284,0,,,,,,0.105555556,-0.25,1,0,0,1.2842,Diorite_rect,10,0,10,0,1,
663a78e29ea520b0ec2b2a43,TCN,2024-06-11_10h10.35.181,LearnStrategy,2023.2.3,Win32,60.60606061,9,2,12,,,,,,,,8,08,,,,,,,,,,,8,1.094,1,,,,,,0.362963019,-0.397222222,1,0,0,1.0945,Pumice_rect,11,0,11,0,1,
663a78e29ea520b0ec2b2a43,TCN,2024-06-11_10h10.35.181,LearnStrategy,2023.2.3,Win32,60.60606061,9,2,13,,,,,,,,8,03,,,,,,,,,,,8,1.013,1,,,,,,0.338888889,-0.380555556,1,0,0,1.0131,Pumice_rect,12,0,12,0,1,
663a78e29ea520b0ec2b2a43,TCN,2024-06-11_10h10.35.181,LearnStrategy,2023.2.3,Win32,60.60606061,9,2,14,,,,,,,,2,06,,,,,,,,,,,6,1.355,0,,,,,,-0.183333333,-0.412037065,1,0,0,1.3546,Pegmatite_rect,13,0,13,0,1,
663a78e29ea520b0ec2b2a43,TCN,2024-06-11_10h10.35.181,LearnStrategy,2023.2.3,Win32,60.60606061,9,2,15,,,,,,,,4,08,,,,,,,,,,,3,2.569,0,,,,,,0.138888889,-0.240740797,1,0,0,2.5687,Diorite_rect,14,0,14,0,1,
663a78e29ea520b0ec2b2a43,TCN,2024-06-11_10h10.35.181,LearnStrategy,2023.2.3,Win32,60.60606061,9,2,16,,,,,,,,6,06,,,,,,,,,,,6,3.837,1,,,,,,-0.06851849,-0.40648151,1,0,0,3.8367,Pegmatite_rect,15,0,15,0,1,
663a78e29ea520b0ec2b2a43,TCN,2024-06-11_10h10.35.181,LearnStrategy,2023.2.3,Win32,60.60606061,,,,,,,,,,,,,,,,,,,,,,,,,,,,,,,,,,,,,,,,,,,0
663a78e29ea520b0ec2b2a43,TCN,2024-06-11_10h10.35.181,LearnStrategy,2023.2.3,Win32,60.60606061,,,,,,,,,,,,,,,,,,,,,,,,,,,,,,,,,,,,,,,,,,,
663a78e29ea520b0ec2b2a43,TCN,2024-06-11_10h10.35.181,LearnStrategy,2023.2.3,Win32,60.60606061,,,,,,,,,,,2,14,1,1,,,,,,,,,,,,,,,,,,,,,,,,,,,,,
663a78e29ea520b0ec2b2a43,TCN,2024-06-11_10h10.35.181,LearnStrategy,2023.2.3,Win32,60.60606061,,,,,,,,,,,1,11,1,2,,,,,,,,,,,,,,,,,,,,,,,,,,,,,
663a78e29ea520b0ec2b2a43,TCN,2024-06-11_10h10.35.181,LearnStrategy,2023.2.3,Win32,60.60606061,,,,,,,,,,,8,15,1,3,,,,,,,,,,,,,,,,,,,,,,,,,,,,,
663a78e29ea520b0ec2b2a43,TCN,2024-06-11_10h10.35.181,LearnStrategy,2023.2.3,Win32,60.60606061,,,,,,,,,,,7,04,1,4,,,,,,,,,,,,,,,,,,,,,,,,,,,,,
663a78e29ea520b0ec2b2a43,TCN,2024-06-11_10h10.35.181,LearnStrategy,2023.2.3,Win32,60.60606061,,,,,,,,,,,5,02,1,5,,,,,,,,,,,,,,,,,,,,,,,,,,,,,
663a78e29ea520b0ec2b2a43,TCN,2024-06-11_10h10.35.181,LearnStrategy,2023.2.3,Win32,60.60606061,,,,,,,,,,,6,10,1,6,,,,,,,,,,,,,,,,,,,,,,,,,,,,,
663a78e29ea520b0ec2b2a43,TCN,2024-06-11_10h10.35.181,LearnStrategy,2023.2.3,Win32,60.60606061,,,,,,,,,,,8,16,1,7,,,,,,,,,,,,,,,,,,,,,,,,,,,,,
663a78e29ea520b0ec2b2a43,TCN,2024-06-11_10h10.35.181,LearnStrategy,2023.2.3,Win32,60.60606061,,,,,,,,,,,4,16,1,8,,,,,,,,,,,,,,,,,,,,,,,,,,,,,
663a78e29ea520b0ec2b2a43,TCN,2024-06-11_10h10.35.181,LearnStrategy,2023.2.3,Win32,60.60606061,,,,,,,,,,,5,16,2,1,,,,,,,,,,,,,,,,,,,,,,,,,,,,,
663a78e29ea520b0ec2b2a43,TCN,2024-06-11_10h10.35.181,LearnStrategy,2023.2.3,Win32,60.60606061,,,,,,,,,,,5,09,2,2,,,,,,,,,,,,,,,,,,,,,,,,,,,,,
663a78e29ea520b0ec2b2a43,TCN,2024-06-11_10h10.35.181,LearnStrategy,2023.2.3,Win32,60.60606061,,,,,,,,,,,1,09,2,3,,,,,,,,,,,,,,,,,,,,,,,,,,,,,
663a78e29ea520b0ec2b2a43,TCN,2024-06-11_10h10.35.181,LearnStrategy,2023.2.3,Win32,60.60606061,,,,,,,,,,,4,01,2,4,,,,,,,,,,,,,,,,,,,,,,,,,,,,,
663a78e29ea520b0ec2b2a43,TCN,2024-06-11_10h10.35.181,LearnStrategy,2023.2.3,Win32,60.60606061,,,,,,,,,,,4,15,2,5,,,,,,,,,,,,,,,,,,,,,,,,,,,,,
663a78e29ea520b0ec2b2a43,TCN,2024-06-11_10h10.35.181,LearnStrategy,2023.2.3,Win32,60.60606061,,,,,,,,,,,5,10,2,6,,,,,,,,,,,,,,,,,,,,,,,,,,,,,
663a78e29ea520b0ec2b2a43,TCN,2024-06-11_10h10.35.181,LearnStrategy,2023.2.3,Win32,60.60606061,,,,,,,,,,,4,09,2,7,,,,,,,,,,,,,,,,,,,,,,,,,,,,,
663a78e29ea520b0ec2b2a43,TCN,2024-06-11_10h10.35.181,LearnStrategy,2023.2.3,Win32,60.60606061,,,,,,,,,,,2,11,2,8,,,,,,,,,,,,,,,,,,,,,,,,,,,,,
663a78e29ea520b0ec2b2a43,TCN,2024-06-11_10h10.35.181,LearnStrategy,2023.2.3,Win32,60.60606061,,,,,,,,,,,4,05,3,1,,,,,,,,,,,,,,,,,,,,,,,,,,,,,
663a78e29ea520b0ec2b2a43,TCN,2024-06-11_10h10.35.181,LearnStrategy,2023.2.3,Win32,60.60606061,,,,,,,,,,,8,04,3,2,,,,,,,,,,,,,,,,,,,,,,,,,,,,,
663a78e29ea520b0ec2b2a43,TCN,2024-06-11_10h10.35.181,LearnStrategy,2023.2.3,Win32,60.60606061,,,,,,,,,,,3,10,3,3,,,,,,,,,,,,,,,,,,,,,,,,,,,,,
663a78e29ea520b0ec2b2a43,TCN,2024-06-11_10h10.35.181,LearnStrategy,2023.2.3,Win32,60.60606061,,,,,,,,,,,1,07,3,4,,,,,,,,,,,,,,,,,,,,,,,,,,,,,
663a78e29ea520b0ec2b2a43,TCN,2024-06-11_10h10.35.181,LearnStrategy,2023.2.3,Win32,60.60606061,,,,,,,,,,,8,13,3,5,,,,,,,,,,,,,,,,,,,,,,,,,,,,,
663a78e29ea520b0ec2b2a43,TCN,2024-06-11_10h10.35.181,LearnStrategy,2023.2.3,Win32,60.60606061,,,,,,,,,,,3,06,3,6,,,,,,,,,,,,,,,,,,,,,,,,,,,,,
663a78e29ea520b0ec2b2a43,TCN,2024-06-11_10h10.35.181,LearnStrategy,2023.2.3,Win32,60.60606061,,,,,,,,,,,6,05,3,7,,,,,,,,,,,,,,,,,,,,,,,,,,,,,
663a78e29ea520b0ec2b2a43,TCN,2024-06-11_10h10.35.181,LearnStrategy,2023.2.3,Win32,60.60606061,,,,,,,,,,,7,10,3,8,,,,,,,,,,,,,,,,,,,,,,,,,,,,,
663a78e29ea520b0ec2b2a43,TCN,2024-06-11_10h10.35.181,LearnStrategy,2023.2.3,Win32,60.60606061,,,,,,,,,,,1,06,4,1,,,,,,,,,,,,,,,,,,,,,,,,,,,,,
663a78e29ea520b0ec2b2a43,TCN,2024-06-11_10h10.35.181,LearnStrategy,2023.2.3,Win32,60.60606061,,,,,,,,,,,7,12,4,2,,,,,,,,,,,,,,,,,,,,,,,,,,,,,
663a78e29ea520b0ec2b2a43,TCN,2024-06-11_10h10.35.181,LearnStrategy,2023.2.3,Win32,60.60606061,,,,,,,,,,,4,12,4,3,,,,,,,,,,,,,,,,,,,,,,,,,,,,,
663a78e29ea520b0ec2b2a43,TCN,2024-06-11_10h10.35.181,LearnStrategy,2023.2.3,Win32,60.60606061,,,,,,,,,,,3,07,4,4,,,,,,,,,,,,,,,,,,,,,,,,,,,,,
663a78e29ea520b0ec2b2a43,TCN,2024-06-11_10h10.35.181,LearnStrategy,2023.2.3,Win32,60.60606061,,,,,,,,,,,7,07,4,5,,,,,,,,,,,,,,,,,,,,,,,,,,,,,
663a78e29ea520b0ec2b2a43,TCN,2024-06-11_10h10.35.181,LearnStrategy,2023.2.3,Win32,60.60606061,,,,,,,,,,,6,16,4,6,,,,,,,,,,,,,,,,,,,,,,,,,,,,,
663a78e29ea520b0ec2b2a43,TCN,2024-06-11_10h10.35.181,LearnStrategy,2023.2.3,Win32,60.60606061,,,,,,,,,,,8,05,4,7,,,,,,,,,,,,,,,,,,,,,,,,,,,,,
663a78e29ea520b0ec2b2a43,TCN,2024-06-11_10h10.35.181,LearnStrategy,2023.2.3,Win32,60.60606061,,,,,,,,,,,6,12,4,8,,,,,,,,,,,,,,,,,,,,,,,,,,,,,
663a78e29ea520b0ec2b2a43,TCN,2024-06-11_10h10.35.181,LearnStrategy,2023.2.3,Win32,60.60606061,,,,,,,,,,,2,10,5,1,,,,,,,,,,,,,,,,,,,,,,,,,,,,,
663a78e29ea520b0ec2b2a43,TCN,2024-06-11_10h10.35.181,LearnStrategy,2023.2.3,Win32,60.60606061,,,,,,,,,,,7,08,5,2,,,,,,,,,,,,,,,,,,,,,,,,,,,,,
663a78e29ea520b0ec2b2a43,TCN,2024-06-11_10h10.35.181,LearnStrategy,2023.2.3,Win32,60.60606061,,,,,,,,,,,2,01,5,3,,,,,,,,,,,,,,,,,,,,,,,,,,,,,
663a78e29ea520b0ec2b2a43,TCN,2024-06-11_10h10.35.181,LearnStrategy,2023.2.3,Win32,60.60606061,,,,,,,,,,,2,04,5,4,,,,,,,,,,,,,,,,,,,,,,,,,,,,,
663a78e29ea520b0ec2b2a43,TCN,2024-06-11_10h10.35.181,LearnStrategy,2023.2.3,Win32,60.60606061,,,,,,,,,,,5,04,5,5,,,,,,,,,,,,,,,,,,,,,,,,,,,,,
663a78e29ea520b0ec2b2a43,TCN,2024-06-11_10h10.35.181,LearnStrategy,2023.2.3,Win32,60.60606061,,,,,,,,,,,6,03,5,6,,,,,,,,,,,,,,,,,,,,,,,,,,,,,
663a78e29ea520b0ec2b2a43,TCN,2024-06-11_10h10.35.181,LearnStrategy,2023.2.3,Win32,60.60606061,,,,,,,,,,,8,06,5,7,,,,,,,,,,,,,,,,,,,,,,,,,,,,,
663a78e29ea520b0ec2b2a43,TCN,2024-06-11_10h10.35.181,LearnStrategy,2023.2.3,Win32,60.60606061,,,,,,,,,,,2,02,5,8,,,,,,,,,,,,,,,,,,,,,,,,,,,,,
663a78e29ea520b0ec2b2a43,TCN,2024-06-11_10h10.35.181,LearnStrategy,2023.2.3,Win32,60.60606061,,,,,,,,,,,3,08,6,1,,,,,,,,,,,,,,,,,,,,,,,,,,,,,
663a78e29ea520b0ec2b2a43,TCN,2024-06-11_10h10.35.181,LearnStrategy,2023.2.3,Win32,60.60606061,,,,,,,,,,,6,13,6,2,,,,,,,,,,,,,,,,,,,,,,,,,,,,,
663a78e29ea520b0ec2b2a43,TCN,2024-06-11_10h10.35.181,LearnStrategy,2023.2.3,Win32,60.60606061,,,,,,,,,,,3,02,6,3,,,,,,,,,,,,,,,,,,,,,,,,,,,,,
663a78e29ea520b0ec2b2a43,TCN,2024-06-11_10h10.35.181,LearnStrategy,2023.2.3,Win32,60.60606061,,,,,,,,,,,7,02,6,4,,,,,,,,,,,,,,,,,,,,,,,,,,,,,
663a78e29ea520b0ec2b2a43,TCN,2024-06-11_10h10.35.181,LearnStrategy,2023.2.3,Win32,60.60606061,,,,,,,,,,,3,13,6,5,,,,,,,,,,,,,,,,,,,,,,,,,,,,,
663a78e29ea520b0ec2b2a43,TCN,2024-06-11_10h10.35.181,LearnStrategy,2023.2.3,Win32,60.60606061,,,,,,,,,,,1,03,6,6,,,,,,,,,,,,,,,,,,,,,,,,,,,,,
663a78e29ea520b0ec2b2a43,TCN,2024-06-11_10h10.35.181,LearnStrategy,2023.2.3,Win32,60.60606061,,,,,,,,,,,1,16,6,7,,,,,,,,,,,,,,,,,,,,,,,,,,,,,
663a78e29ea520b0ec2b2a43,TCN,2024-06-11_10h10.35.181,LearnStrategy,2023.2.3,Win32,60.60606061,,,,,,,,,,,5,12,6,8,,,,,,,,,,,,,,,,,,,,,,,,,,,,,