participant,condition,date,expName,psychopyVersion,OS,frameRate,block,phase,trial,learn_mouse.x,learn_mouse.y,learn_mouse.leftButton,learn_mouse.midButton,learn_mouse.rightButton,learn_mouse.time,learn_mouse.clicked_name,cat,token,row,col,t_select,cat_mouse_l.x,cat_mouse_l.y,cat_mouse_l.leftButton,cat_mouse_l.midButton,cat_mouse_l.rightButton,cat_mouse_l.time,cat_mouse_l.clicked_name,resp,t_resp,corr,train_trials.thisRepN,train_trials.thisTrialN,train_trials.thisN,train_trials.thisIndex,train_trials.ran,cat_mouse_t.x,cat_mouse_t.y,cat_mouse_t.leftButton,cat_mouse_t.midButton,cat_mouse_t.rightButton,cat_mouse_t.time,cat_mouse_t.clicked_name,test_trials.thisRepN,test_trials.thisTrialN,test_trials.thisN,test_trials.thisIndex,test_trials.ran,Bonus
663afb4c74805516d7983f27,SCN,2024-06-21_10h49.57.702,LearnStrategy,2023.2.3,Win32,60.97560976,,,,,,,,,,,,,,,,,,,,,,,,,,,,,,,,,,,,,,,,,,,
663afb4c74805516d7983f27,SCN,2024-06-21_10h49.57.702,LearnStrategy,2023.2.3,Win32,60.97560976,1,1,1,-0.5703125,0.385416667,1,0,0,3.9673,Obsidian_06,5,06,6,1,3.967,-0.114583333,-0.239583333,1,0,0,9.067,Basalt_rect,2,9.067,0,0,0,0,0,1,,,,,,,,,,,,,
663afb4c74805516d7983f27,SCN,2024-06-21_10h49.57.702,LearnStrategy,2023.2.3,Win32,60.97560976,1,1,2,-0.361979167,0.37890625,1,0,0,4.233,Pumice_10,8,10,6,2,4.233,0.33984375,-0.388020833,1,0,0,2.4746,Pumice_rect,8,2.475,1,1,0,1,0,1,,,,,,,,,,,,,
663afb4c74805516d7983f27,SCN,2024-06-21_10h49.57.702,LearnStrategy,2023.2.3,Win32,60.97560976,1,1,3,-0.229166667,0.416666667,1,0,0,2.1419,Pegmatite_08,6,08,6,3,2.142,-0.34765625,-0.2421875,1,0,0,6.7826,Andesite_rect,1,6.783,0,2,0,2,0,1,,,,,,,,,,,,,
663afb4c74805516d7983f27,SCN,2024-06-21_10h49.57.702,LearnStrategy,2023.2.3,Win32,60.97560976,1,1,4,-0.08203125,0.40234375,1,0,0,2.6632,Obsidian_16,5,16,6,4,2.663,-0.408854167,-0.244791667,1,0,0,8.1414,Andesite_rect,1,8.141,0,3,0,3,0,1,,,,,,,,,,,,,
663afb4c74805516d7983f27,SCN,2024-06-21_10h49.57.702,LearnStrategy,2023.2.3,Win32,60.97560976,1,1,5,-0.377604167,-0.114583333,1,0,0,7.2655,Obsidian_11,5,11,3,2,7.266,-0.38671875,-0.40234375,1,0,0,2.1303,Obsidian_rect,5,2.13,1,4,0,4,0,1,,,,,,,,,,,,,
663afb4c74805516d7983f27,SCN,2024-06-21_10h49.57.702,LearnStrategy,2023.2.3,Win32,60.97560976,1,1,6,-0.21875,-0.109375,1,0,0,2.0808,Diorite_07,3,07,3,3,2.081,0.091145833,-0.243489583,1,0,0,1.4076,Diorite_rect,3,1.408,1,5,0,5,0,1,,,,,,,,,,,,,
663afb4c74805516d7983f27,SCN,2024-06-21_10h49.57.702,LearnStrategy,2023.2.3,Win32,60.97560976,1,1,7,-0.0703125,-0.424479167,1,0,0,3.164,Diorite_02,3,02,1,4,3.164,-0.326822917,-0.255208333,1,0,0,1.9168,Andesite_rect,1,1.917,0,6,0,6,0,1,,,,,,,,,,,,,
663afb4c74805516d7983f27,SCN,2024-06-21_10h49.57.702,LearnStrategy,2023.2.3,Win32,60.97560976,1,1,8,0.227864583,-0.104166667,1,0,0,2.8291,Pegmatite_07,6,07,3,6,2.829,0.213541667,-0.40234375,1,0,0,7.3957,Peridotite_rect,7,7.396,0,7,0,7,0,1,,,,,,,,,,,,,
663afb4c74805516d7983f27,SCN,2024-06-21_10h49.57.702,LearnStrategy,2023.2.3,Win32,60.97560976,1,1,9,0.061197917,-0.08203125,1,0,0,1.5271,Pumice_09,8,09,3,5,1.527,0.380208333,-0.397135417,1,0,0,4.3407,Pumice_rect,8,4.341,1,8,0,8,0,1,,,,,,,,,,,,,
663afb4c74805516d7983f27,SCN,2024-06-21_10h49.57.702,LearnStrategy,2023.2.3,Win32,60.97560976,1,1,10,0.375,0.40625,1,0,0,1.9143,Basalt_05,2,05,6,7,1.914,0.359375,-0.23046875,1,0,0,7.3333,Gabbro_rect,4,7.333,0,9,0,9,0,1,,,,,,,,,,,,,
663afb4c74805516d7983f27,SCN,2024-06-21_10h49.57.702,LearnStrategy,2023.2.3,Win32,60.97560976,1,1,11,-0.065104167,0.244791667,1,0,0,2.5039,Gabbro_11,4,11,5,4,2.504,-0.178385417,-0.25,1,0,0,1.6895,Basalt_rect,2,1.689,0,10,0,10,0,1,,,,,,,,,,,,,
663afb4c74805516d7983f27,SCN,2024-06-21_10h49.57.702,LearnStrategy,2023.2.3,Win32,60.97560976,1,1,12,0.522135417,-0.098958333,1,0,0,2.6144,Obsidian_10,5,10,3,8,2.614,-0.3671875,-0.385416667,1,0,0,1.5399,Obsidian_rect,5,1.54,1,11,0,11,0,1,,,,,,,,,,,,,
663afb4c74805516d7983f27,SCN,2024-06-21_10h49.57.702,LearnStrategy,2023.2.3,Win32,60.97560976,1,1,13,0.559895833,-0.453125,1,0,0,1.8254,Andesite_06,1,06,1,8,1.825,0.09765625,-0.256510417,1,0,0,2.1584,Diorite_rect,3,2.158,0,12,0,12,0,1,,,,,,,,,,,,,
663afb4c74805516d7983f27,SCN,2024-06-21_10h49.57.702,LearnStrategy,2023.2.3,Win32,60.97560976,1,1,14,-0.38671875,-0.407552083,1,0,0,3.2695,Pegmatite_16,6,16,1,2,3.269,-0.115885417,-0.411458333,1,0,0,2.8742,Pegmatite_rect,6,2.874,1,13,0,13,0,1,,,,,,,,,,,,,
663afb4c74805516d7983f27,SCN,2024-06-21_10h49.57.702,LearnStrategy,2023.2.3,Win32,60.97560976,1,1,15,-0.200520833,-0.100260417,1,0,0,4.064,Diorite_07,3,07,3,3,4.064,-0.4140625,-0.229166667,1,0,0,1.1079,Andesite_rect,1,1.108,0,14,0,14,0,1,,,,,,,,,,,,,
663afb4c74805516d7983f27,SCN,2024-06-21_10h49.57.702,LearnStrategy,2023.2.3,Win32,60.97560976,1,1,16,-0.2109375,-0.421875,1,0,0,1.4645,Diorite_08,3,08,1,3,1.464,0.143229167,-0.2421875,1,0,0,1.204,Diorite_rect,3,1.204,1,15,0,15,0,1,,,,,,,,,,,,,
663afb4c74805516d7983f27,SCN,2024-06-21_10h49.57.702,LearnStrategy,2023.2.3,Win32,60.97560976,1,2,1,,,,,,,,4,15,,,,,,,,,,,3,9.537,0,,,,,,0.161458333,-0.23828125,1,0,0,9.5374,Diorite_rect,0,0,0,0,1,
663afb4c74805516d7983f27,SCN,2024-06-21_10h49.57.702,LearnStrategy,2023.2.3,Win32,60.97560976,1,2,2,,,,,,,,1,14,,,,,,,,,,,6,2.201,0,,,,,,-0.110677083,-0.3984375,1,0,0,2.2007,Pegmatite_rect,1,0,1,0,1,
663afb4c74805516d7983f27,SCN,2024-06-21_10h49.57.702,LearnStrategy,2023.2.3,Win32,60.97560976,1,2,3,,,,,,,,8,03,,,,,,,,,,,8,1.589,1,,,,,,0.436197917,-0.37890625,1,0,0,1.5892,Pumice_rect,2,0,2,0,1,
663afb4c74805516d7983f27,SCN,2024-06-21_10h49.57.702,LearnStrategy,2023.2.3,Win32,60.97560976,1,2,4,,,,,,,,5,08,,,,,,,,,,,5,2.935,1,,,,,,-0.411458333,-0.40234375,1,0,0,2.935,Obsidian_rect,3,0,3,0,1,
663afb4c74805516d7983f27,SCN,2024-06-21_10h49.57.702,LearnStrategy,2023.2.3,Win32,60.97560976,1,2,5,,,,,,,,2,02,,,,,,,,,,,2,2.224,1,,,,,,-0.118489583,-0.2421875,1,0,0,2.2237,Basalt_rect,4,0,4,0,1,
663afb4c74805516d7983f27,SCN,2024-06-21_10h49.57.702,LearnStrategy,2023.2.3,Win32,60.97560976,1,2,6,,,,,,,,4,05,,,,,,,,,,,4,6.159,1,,,,,,0.40234375,-0.23828125,1,0,0,6.1589,Gabbro_rect,5,0,5,0,1,
663afb4c74805516d7983f27,SCN,2024-06-21_10h49.57.702,LearnStrategy,2023.2.3,Win32,60.97560976,1,2,7,,,,,,,,5,02,,,,,,,,,,,5,1.392,1,,,,,,-0.41015625,-0.388020833,1,0,0,1.3925,Obsidian_rect,6,0,6,0,1,
663afb4c74805516d7983f27,SCN,2024-06-21_10h49.57.702,LearnStrategy,2023.2.3,Win32,60.97560976,1,2,8,,,,,,,,6,05,,,,,,,,,,,6,4.259,1,,,,,,-0.100260417,-0.399739583,1,0,0,4.2585,Pegmatite_rect,7,0,7,0,1,
663afb4c74805516d7983f27,SCN,2024-06-21_10h49.57.702,LearnStrategy,2023.2.3,Win32,60.97560976,1,2,9,,,,,,,,7,10,,,,,,,,,,,7,6.44,1,,,,,,0.102864583,-0.411458333,1,0,0,6.4404,Peridotite_rect,8,0,8,0,1,
663afb4c74805516d7983f27,SCN,2024-06-21_10h49.57.702,LearnStrategy,2023.2.3,Win32,60.97560976,1,2,10,,,,,,,,8,02,,,,,,,,,,,8,1.608,1,,,,,,0.372395833,-0.420572917,1,0,0,1.6076,Pumice_rect,9,0,9,0,1,
663afb4c74805516d7983f27,SCN,2024-06-21_10h49.57.702,LearnStrategy,2023.2.3,Win32,60.97560976,1,2,11,,,,,,,,7,05,,,,,,,,,,,4,5.594,0,,,,,,0.354166667,-0.264322917,1,0,0,5.5937,Gabbro_rect,10,0,10,0,1,
663afb4c74805516d7983f27,SCN,2024-06-21_10h49.57.702,LearnStrategy,2023.2.3,Win32,60.97560976,1,2,12,,,,,,,,3,14,,,,,,,,,,,3,3.226,1,,,,,,0.1328125,-0.25390625,1,0,0,3.226,Diorite_rect,11,0,11,0,1,
663afb4c74805516d7983f27,SCN,2024-06-21_10h49.57.702,LearnStrategy,2023.2.3,Win32,60.97560976,1,2,13,,,,,,,,3,16,,,,,,,,,,,3,1.15,1,,,,,,0.1328125,-0.25390625,1,0,0,1.1505,Diorite_rect,12,0,12,0,1,
663afb4c74805516d7983f27,SCN,2024-06-21_10h49.57.702,LearnStrategy,2023.2.3,Win32,60.97560976,1,2,14,,,,,,,,1,01,,,,,,,,,,,8,1.933,0,,,,,,0.3515625,-0.404947917,1,0,0,1.9329,Pumice_rect,13,0,13,0,1,
663afb4c74805516d7983f27,SCN,2024-06-21_10h49.57.702,LearnStrategy,2023.2.3,Win32,60.97560976,1,2,15,,,,,,,,2,01,,,,,,,,,,,2,3.545,1,,,,,,-0.125,-0.256510417,1,0,0,3.5449,Basalt_rect,14,0,14,0,1,
663afb4c74805516d7983f27,SCN,2024-06-21_10h49.57.702,LearnStrategy,2023.2.3,Win32,60.97560976,1,2,16,,,,,,,,6,10,,,,,,,,,,,6,3.975,1,,,,,,-0.166666667,-0.399739583,1,0,0,3.9754,Pegmatite_rect,15,0,15,0,1,
663afb4c74805516d7983f27,SCN,2024-06-21_10h49.57.702,LearnStrategy,2023.2.3,Win32,60.97560976,2,1,1,-0.567708333,-0.412760417,1,0,0,6.2344,Pegmatite_03,6,03,1,1,6.234,-0.157552083,-0.41796875,1,0,0,4.5015,Pegmatite_rect,6,4.502,1,0,0,0,0,1,,,,,,,,,,,,,
663afb4c74805516d7983f27,SCN,2024-06-21_10h49.57.702,LearnStrategy,2023.2.3,Win32,60.97560976,2,1,2,-0.553385417,-0.2578125,1,0,0,4.3198,Gabbro_08,4,08,2,1,4.32,0.404947917,-0.25390625,1,0,0,2.3087,Gabbro_rect,4,2.309,1,1,0,1,0,1,,,,,,,,,,,,,
663afb4c74805516d7983f27,SCN,2024-06-21_10h49.57.702,LearnStrategy,2023.2.3,Win32,60.97560976,2,1,3,-0.08203125,0.110677083,1,0,0,13.2135,Peridotite_15,7,15,4,4,13.213,-0.384114583,-0.236979167,1,0,0,2.4144,Andesite_rect,1,2.414,0,2,0,2,0,1,,,,,,,,,,,,,
663afb4c74805516d7983f27,SCN,2024-06-21_10h49.57.702,LearnStrategy,2023.2.3,Win32,60.97560976,2,1,4,0.372395833,-0.110677083,1,0,0,3.9644,Peridotite_16,7,16,3,7,3.964,0.098958333,-0.397135417,1,0,0,2.3102,Peridotite_rect,7,2.31,1,3,0,3,0,1,,,,,,,,,,,,,
663afb4c74805516d7983f27,SCN,2024-06-21_10h49.57.702,LearnStrategy,2023.2.3,Win32,60.97560976,2,1,5,0.4140625,-0.41796875,1,0,0,7.605,Gabbro_13,4,13,1,7,7.605,-0.368489583,-0.2421875,1,0,0,3.1679,Andesite_rect,1,3.168,0,4,0,4,0,1,,,,,,,,,,,,,
663afb4c74805516d7983f27,SCN,2024-06-21_10h49.57.702,LearnStrategy,2023.2.3,Win32,60.97560976,2,1,6,0.2265625,0.233072917,1,0,0,3.0483,Pumice_16,8,16,5,6,3.048,0.365885417,-0.390625,1,0,0,1.5076,Pumice_rect,8,1.508,1,5,0,5,0,1,,,,,,,,,,,,,
663afb4c74805516d7983f27,SCN,2024-06-21_10h49.57.702,LearnStrategy,2023.2.3,Win32,60.97560976,2,1,7,0.3828125,0.080729167,1,0,0,1.6498,Pegmatite_09,6,09,4,7,1.65,-0.1328125,-0.3984375,1,0,0,2.3718,Pegmatite_rect,6,2.372,1,6,0,6,0,1,,,,,,,,,,,,,
663afb4c74805516d7983f27,SCN,2024-06-21_10h49.57.702,LearnStrategy,2023.2.3,Win32,60.97560976,2,1,8,-0.072916667,-0.428385417,1,0,0,2.6313,Diorite_02,3,02,1,4,2.631,0.190104167,-0.248697917,1,0,0,5.3064,Diorite_rect,3,5.306,1,7,0,7,0,1,,,,,,,,,,,,,
663afb4c74805516d7983f27,SCN,2024-06-21_10h49.57.702,LearnStrategy,2023.2.3,Win32,60.97560976,2,1,9,0.579427083,0.397135417,1,0,0,7.7604,Peridotite_12,7,12,6,8,7.76,0.122395833,-0.420572917,1,0,0,1.9449,Peridotite_rect,7,1.945,1,8,0,8,0,1,,,,,,,,,,,,,
663afb4c74805516d7983f27,SCN,2024-06-21_10h49.57.702,LearnStrategy,2023.2.3,Win32,60.97560976,2,1,10,-0.24609375,-0.43359375,1,0,0,2.4639,Diorite_08,3,08,1,3,2.464,0.075520833,-0.2578125,1,0,0,1.4409,Diorite_rect,3,1.441,1,9,0,9,0,1,,,,,,,,,,,,,
663afb4c74805516d7983f27,SCN,2024-06-21_10h49.57.702,LearnStrategy,2023.2.3,Win32,60.97560976,2,1,11,0.065104167,0.408854167,1,0,0,4.8484,Peridotite_02,7,02,6,5,4.848,0.16796875,-0.420572917,1,0,0,2.5104,Peridotite_rect,7,2.51,1,10,0,10,0,1,,,,,,,,,,,,,
663afb4c74805516d7983f27,SCN,2024-06-21_10h49.57.702,LearnStrategy,2023.2.3,Win32,60.97560976,2,1,12,-0.209635417,0.095052083,1,0,0,5.9139,Andesite_07,1,07,4,3,5.914,0.115885417,-0.263020833,1,0,0,1.5819,Diorite_rect,3,1.582,0,11,0,11,0,1,,,,,,,,,,,,,
663afb4c74805516d7983f27,SCN,2024-06-21_10h49.57.702,LearnStrategy,2023.2.3,Win32,60.97560976,2,1,13,0.076822917,0.0859375,1,0,0,1.4815,Diorite_11,3,11,4,5,1.482,-0.395833333,-0.235677083,1,0,0,1.4563,Andesite_rect,1,1.456,0,12,0,12,0,1,,,,,,,,,,,,,
663afb4c74805516d7983f27,SCN,2024-06-21_10h49.57.702,LearnStrategy,2023.2.3,Win32,60.97560976,2,1,14,-0.255208333,-0.114583333,1,0,0,2.9478,Diorite_07,3,07,3,3,2.948,-0.359375,-0.2421875,1,0,0,0.8387,Andesite_rect,1,0.839,0,13,0,13,0,1,,,,,,,,,,,,,
663afb4c74805516d7983f27,SCN,2024-06-21_10h49.57.702,LearnStrategy,2023.2.3,Win32,60.97560976,2,1,15,0.376302083,-0.095052083,1,0,0,12.8304,Peridotite_16,7,16,3,7,12.83,0.100260417,-0.399739583,1,0,0,2.2089,Peridotite_rect,7,2.209,1,14,0,14,0,1,,,,,,,,,,,,,
663afb4c74805516d7983f27,SCN,2024-06-21_10h49.57.702,LearnStrategy,2023.2.3,Win32,60.97560976,2,1,16,-0.080729167,-0.235677083,1,0,0,2.6485,Andesite_03,1,03,2,4,2.648,-0.123697917,-0.263020833,1,0,0,2.179,Basalt_rect,2,2.179,0,15,0,15,0,1,,,,,,,,,,,,,
663afb4c74805516d7983f27,SCN,2024-06-21_10h49.57.702,LearnStrategy,2023.2.3,Win32,60.97560976,2,2,1,,,,,,,,8,05,,,,,,,,,,,8,1.556,1,,,,,,0.350260417,-0.407552083,1,0,0,1.5558,Pumice_rect,0,0,0,0,1,
663afb4c74805516d7983f27,SCN,2024-06-21_10h49.57.702,LearnStrategy,2023.2.3,Win32,60.97560976,2,2,2,,,,,,,,7,06,,,,,,,,,,,7,1.786,1,,,,,,0.111979167,-0.404947917,1,0,0,1.7859,Peridotite_rect,1,0,1,0,1,
663afb4c74805516d7983f27,SCN,2024-06-21_10h49.57.702,LearnStrategy,2023.2.3,Win32,60.97560976,2,2,3,,,,,,,,8,04,,,,,,,,,,,8,2.458,1,,,,,,0.360677083,-0.39453125,1,0,0,2.4576,Pumice_rect,2,0,2,0,1,
663afb4c74805516d7983f27,SCN,2024-06-21_10h49.57.702,LearnStrategy,2023.2.3,Win32,60.97560976,2,2,4,,,,,,,,5,14,,,,,,,,,,,5,1.457,1,,,,,,-0.388020833,-0.3984375,1,0,0,1.4575,Obsidian_rect,3,0,3,0,1,
663afb4c74805516d7983f27,SCN,2024-06-21_10h49.57.702,LearnStrategy,2023.2.3,Win32,60.97560976,2,2,5,,,,,,,,4,01,,,,,,,,,,,1,3.926,0,,,,,,-0.384114583,-0.266927083,1,0,0,3.9263,Andesite_rect,4,0,4,0,1,
663afb4c74805516d7983f27,SCN,2024-06-21_10h49.57.702,LearnStrategy,2023.2.3,Win32,60.97560976,2,2,6,,,,,,,,3,06,,,,,,,,,,,3,2.873,1,,,,,,0.108072917,-0.25,1,0,0,2.8727,Diorite_rect,5,0,5,0,1,
663afb4c74805516d7983f27,SCN,2024-06-21_10h49.57.702,LearnStrategy,2023.2.3,Win32,60.97560976,2,2,7,,,,,,,,2,08,,,,,,,,,,,2,4.36,1,,,,,,-0.1328125,-0.252604167,1,0,0,4.3595,Basalt_rect,6,0,6,0,1,
663afb4c74805516d7983f27,SCN,2024-06-21_10h49.57.702,LearnStrategy,2023.2.3,Win32,60.97560976,2,2,8,,,,,,,,2,09,,,,,,,,,,,2,1.125,1,,,,,,-0.1328125,-0.252604167,1,0,0,1.1252,Basalt_rect,7,0,7,0,1,
663afb4c74805516d7983f27,SCN,2024-06-21_10h49.57.702,LearnStrategy,2023.2.3,Win32,60.97560976,2,2,9,,,,,,,,6,12,,,,,,,,,,,6,1.691,1,,,,,,-0.19921875,-0.415364583,1,0,0,1.6911,Pegmatite_rect,8,0,8,0,1,
663afb4c74805516d7983f27,SCN,2024-06-21_10h49.57.702,LearnStrategy,2023.2.3,Win32,60.97560976,2,2,10,,,,,,,,5,05,,,,,,,,,,,5,4.892,1,,,,,,-0.388020833,-0.41015625,1,0,0,4.8922,Obsidian_rect,9,0,9,0,1,
663afb4c74805516d7983f27,SCN,2024-06-21_10h49.57.702,LearnStrategy,2023.2.3,Win32,60.97560976,2,2,11,,,,,,,,4,09,,,,,,,,,,,1,13.092,0,,,,,,-0.333333333,-0.252604167,1,0,0,13.0921,Andesite_rect,10,0,10,0,1,
663afb4c74805516d7983f27,SCN,2024-06-21_10h49.57.702,LearnStrategy,2023.2.3,Win32,60.97560976,2,2,12,,,,,,,,7,13,,,,,,,,,,,7,1.592,1,,,,,,0.122395833,-0.388020833,1,0,0,1.5917,Peridotite_rect,11,0,11,0,1,
663afb4c74805516d7983f27,SCN,2024-06-21_10h49.57.702,LearnStrategy,2023.2.3,Win32,60.97560976,2,2,13,,,,,,,,1,11,,,,,,,,,,,2,4.341,0,,,,,,-0.145833333,-0.23046875,1,0,0,4.3415,Basalt_rect,12,0,12,0,1,
663afb4c74805516d7983f27,SCN,2024-06-21_10h49.57.702,LearnStrategy,2023.2.3,Win32,60.97560976,2,2,14,,,,,,,,1,16,,,,,,,,,,,1,2.96,1,,,,,,-0.376302083,-0.243489583,1,0,0,2.9598,Andesite_rect,13,0,13,0,1,
663afb4c74805516d7983f27,SCN,2024-06-21_10h49.57.702,LearnStrategy,2023.2.3,Win32,60.97560976,2,2,15,,,,,,,,3,09,,,,,,,,,,,3,1.075,1,,,,,,0.0859375,-0.248697917,1,0,0,1.0751,Diorite_rect,14,0,14,0,1,
663afb4c74805516d7983f27,SCN,2024-06-21_10h49.57.702,LearnStrategy,2023.2.3,Win32,60.97560976,2,2,16,,,,,,,,6,11,,,,,,,,,,,5,1.473,0,,,,,,-0.348958333,-0.40625,1,0,0,1.4731,Obsidian_rect,15,0,15,0,1,
663afb4c74805516d7983f27,SCN,2024-06-21_10h49.57.702,LearnStrategy,2023.2.3,Win32,60.97560976,3,1,1,0.234375,-0.08984375,1,0,0,7.0234,Pegmatite_07,6,07,3,6,7.023,-0.109375,-0.393229167,1,0,0,3.9168,Pegmatite_rect,6,3.917,1,0,0,0,0,1,,,,,,,,,,,,,
663afb4c74805516d7983f27,SCN,2024-06-21_10h49.57.702,LearnStrategy,2023.2.3,Win32,60.97560976,3,1,2,0.3984375,-0.23828125,1,0,0,2.3817,Basalt_06,2,06,2,7,2.382,-0.126302083,-0.2578125,1,0,0,1.5231,Basalt_rect,2,1.523,1,1,0,1,0,1,,,,,,,,,,,,,
663afb4c74805516d7983f27,SCN,2024-06-21_10h49.57.702,LearnStrategy,2023.2.3,Win32,60.97560976,3,1,3,0.421875,-0.260416667,1,0,0,5.2779,Basalt_06,2,06,2,7,5.278,-0.151041667,-0.264322917,1,0,0,2.519,Basalt_rect,2,2.519,1,2,0,2,0,1,,,,,,,,,,,,,
663afb4c74805516d7983f27,SCN,2024-06-21_10h49.57.702,LearnStrategy,2023.2.3,Win32,60.97560976,3,1,4,-0.0703125,-0.223958333,1,0,0,2.4483,Andesite_03,1,03,2,4,2.448,-0.104166667,-0.235677083,1,0,0,1.3567,Basalt_rect,2,1.357,0,3,0,3,0,1,,,,,,,,,,,,,
663afb4c74805516d7983f27,SCN,2024-06-21_10h49.57.702,LearnStrategy,2023.2.3,Win32,60.97560976,3,1,5,-0.2265625,-0.2421875,1,0,0,2.7161,Gabbro_12,4,12,2,3,2.716,0.390625,-0.239583333,1,0,0,2.6455,Gabbro_rect,4,2.645,1,4,0,4,0,1,,,,,,,,,,,,,
663afb4c74805516d7983f27,SCN,2024-06-21_10h49.57.702,LearnStrategy,2023.2.3,Win32,60.97560976,3,1,6,-0.421875,-0.272135417,1,0,0,1.4705,Andesite_09,1,09,2,2,1.471,-0.41015625,-0.252604167,1,0,0,2.2322,Andesite_rect,1,2.232,1,5,0,5,0,1,,,,,,,,,,,,,
663afb4c74805516d7983f27,SCN,2024-06-21_10h49.57.702,LearnStrategy,2023.2.3,Win32,60.97560976,3,1,7,-0.545572917,-0.251302083,1,0,0,1.3555,Gabbro_08,4,08,2,1,1.355,-0.37890625,-0.247395833,1,0,0,5.212,Andesite_rect,1,5.212,0,6,0,6,0,1,,,,,,,,,,,,,
663afb4c74805516d7983f27,SCN,2024-06-21_10h49.57.702,LearnStrategy,2023.2.3,Win32,60.97560976,3,1,8,-0.239583333,0.239583333,1,0,0,3.8148,Diorite_12,3,12,5,3,3.815,0.165364583,-0.25,1,0,0,2.4235,Diorite_rect,3,2.423,1,7,0,7,0,1,,,,,,,,,,,,,
663afb4c74805516d7983f27,SCN,2024-06-21_10h49.57.702,LearnStrategy,2023.2.3,Win32,60.97560976,3,1,9,-0.049479167,0.09765625,1,0,0,0.7793,Peridotite_15,7,15,4,4,0.779,0.190104167,-0.399739583,1,0,0,0.9341,Peridotite_rect,7,0.934,1,8,0,8,0,1,,,,,,,,,,,,,
663afb4c74805516d7983f27,SCN,2024-06-21_10h49.57.702,LearnStrategy,2023.2.3,Win32,60.97560976,3,1,10,0.227864583,-0.419270833,1,0,0,2.8326,Pumice_15,8,15,1,6,2.833,0.37890625,-0.41015625,1,0,0,1.455,Pumice_rect,8,1.455,1,9,0,9,0,1,,,,,,,,,,,,,
663afb4c74805516d7983f27,SCN,2024-06-21_10h49.57.702,LearnStrategy,2023.2.3,Win32,60.97560976,3,1,11,0.373697917,-0.393229167,1,0,0,1.9667,Gabbro_13,4,13,1,7,1.967,0.416666667,-0.252604167,1,0,0,4.0682,Gabbro_rect,4,4.068,1,10,0,10,0,1,,,,,,,,,,,,,
663afb4c74805516d7983f27,SCN,2024-06-21_10h49.57.702,LearnStrategy,2023.2.3,Win32,60.97560976,3,1,12,0.557291667,0.256510417,1,0,0,7.8878,Andesite_02,1,02,5,8,7.888,-0.43359375,-0.260416667,1,0,0,2.2626,Andesite_rect,1,2.263,1,11,0,11,0,1,,,,,,,,,,,,,
663afb4c74805516d7983f27,SCN,2024-06-21_10h49.57.702,LearnStrategy,2023.2.3,Win32,60.97560976,3,1,13,0.563802083,0.09375,1,0,0,2.8042,Peridotite_04,7,04,4,8,2.804,-0.118489583,-0.41015625,1,0,0,10.8572,Pegmatite_rect,6,10.857,0,12,0,12,0,1,,,,,,,,,,,,,
663afb4c74805516d7983f27,SCN,2024-06-21_10h49.57.702,LearnStrategy,2023.2.3,Win32,60.97560976,3,1,14,0.3828125,0.09375,1,0,0,3.429,Pegmatite_09,6,09,4,7,3.429,-0.139322917,-0.41015625,1,0,0,1.5836,Pegmatite_rect,6,1.584,1,13,0,13,0,1,,,,,,,,,,,,,
663afb4c74805516d7983f27,SCN,2024-06-21_10h49.57.702,LearnStrategy,2023.2.3,Win32,60.97560976,3,1,15,0.095052083,0.25,1,0,0,1.8979,Pegmatite_13,6,13,5,5,1.898,-0.147135417,-0.397135417,1,0,0,2.2487,Pegmatite_rect,6,2.249,1,14,0,14,0,1,,,,,,,,,,,,,
663afb4c74805516d7983f27,SCN,2024-06-21_10h49.57.702,LearnStrategy,2023.2.3,Win32,60.97560976,3,1,16,-0.21875,0.102864583,1,0,0,1.9228,Andesite_07,1,07,4,3,1.923,0.169270833,-0.25,1,0,0,4.3317,Diorite_rect,3,4.332,0,15,0,15,0,1,,,,,,,,,,,,,
663afb4c74805516d7983f27,SCN,2024-06-21_10h49.57.702,LearnStrategy,2023.2.3,Win32,60.97560976,3,2,1,,,,,,,,4,10,,,,,,,,,,,4,1.953,1,,,,,,0.389322917,-0.252604167,1,0,0,1.9533,Gabbro_rect,0,0,0,0,1,
663afb4c74805516d7983f27,SCN,2024-06-21_10h49.57.702,LearnStrategy,2023.2.3,Win32,60.97560976,3,2,2,,,,,,,,3,10,,,,,,,,,,,1,6.423,0,,,,,,-0.4140625,-0.244791667,1,0,0,6.4227,Andesite_rect,1,0,1,0,1,
663afb4c74805516d7983f27,SCN,2024-06-21_10h49.57.702,LearnStrategy,2023.2.3,Win32,60.97560976,3,2,3,,,,,,,,4,03,,,,,,,,,,,4,1.608,1,,,,,,0.395833333,-0.255208333,1,0,0,1.6079,Gabbro_rect,2,0,2,0,1,
663afb4c74805516d7983f27,SCN,2024-06-21_10h49.57.702,LearnStrategy,2023.2.3,Win32,60.97560976,3,2,4,,,,,,,,2,16,,,,,,,,,,,8,1.975,0,,,,,,0.390625,-0.40234375,1,0,0,1.975,Pumice_rect,3,0,3,0,1,
663afb4c74805516d7983f27,SCN,2024-06-21_10h49.57.702,LearnStrategy,2023.2.3,Win32,60.97560976,3,2,5,,,,,,,,1,05,,,,,,,,,,,7,4.371,0,,,,,,0.180989583,-0.415364583,1,0,0,4.3707,Peridotite_rect,4,0,4,0,1,
663afb4c74805516d7983f27,SCN,2024-06-21_10h49.57.702,LearnStrategy,2023.2.3,Win32,60.97560976,3,2,6,,,,,,,,6,06,,,,,,,,,,,7,1.828,0,,,,,,0.180989583,-0.415364583,1,0,0,1.8282,Peridotite_rect,5,0,5,0,1,
663afb4c74805516d7983f27,SCN,2024-06-21_10h49.57.702,LearnStrategy,2023.2.3,Win32,60.97560976,3,2,7,,,,,,,,1,04,,,,,,,,,,,1,3.537,1,,,,,,-0.34765625,-0.265625,1,0,0,3.5371,Andesite_rect,6,0,6,0,1,
663afb4c74805516d7983f27,SCN,2024-06-21_10h49.57.702,LearnStrategy,2023.2.3,Win32,60.97560976,3,2,8,,,,,,,,8,14,,,,,,,,,,,8,1.406,1,,,,,,0.365885417,-0.384114583,1,0,0,1.4055,Pumice_rect,7,0,7,0,1,
663afb4c74805516d7983f27,SCN,2024-06-21_10h49.57.702,LearnStrategy,2023.2.3,Win32,60.97560976,3,2,9,,,,,,,,5,12,,,,,,,,,,,5,1.941,1,,,,,,-0.360677083,-0.411458333,1,0,0,1.9411,Obsidian_rect,8,0,8,0,1,
663afb4c74805516d7983f27,SCN,2024-06-21_10h49.57.702,LearnStrategy,2023.2.3,Win32,60.97560976,3,2,10,,,,,,,,7,14,,,,,,,,,,,7,2.607,1,,,,,,0.196614583,-0.399739583,1,0,0,2.6072,Peridotite_rect,9,0,9,0,1,
663afb4c74805516d7983f27,SCN,2024-06-21_10h49.57.702,LearnStrategy,2023.2.3,Win32,60.97560976,3,2,11,,,,,,,,3,13,,,,,,,,,,,3,2.125,1,,,,,,0.096354167,-0.26171875,1,0,0,2.1247,Diorite_rect,10,0,10,0,1,
663afb4c74805516d7983f27,SCN,2024-06-21_10h49.57.702,LearnStrategy,2023.2.3,Win32,60.97560976,3,2,12,,,,,,,,2,11,,,,,,,,,,,2,2.823,1,,,,,,-0.145833333,-0.264322917,1,0,0,2.8233,Basalt_rect,11,0,11,0,1,
663afb4c74805516d7983f27,SCN,2024-06-21_10h49.57.702,LearnStrategy,2023.2.3,Win32,60.97560976,3,2,13,,,,,,,,7,07,,,,,,,,,,,7,2.265,1,,,,,,0.108072917,-0.393229167,1,0,0,2.2649,Peridotite_rect,12,0,12,0,1,
663afb4c74805516d7983f27,SCN,2024-06-21_10h49.57.702,LearnStrategy,2023.2.3,Win32,60.97560976,3,2,14,,,,,,,,6,15,,,,,,,,,,,6,1.184,1,,,,,,-0.154947917,-0.38671875,1,0,0,1.1838,Pegmatite_rect,13,0,13,0,1,
663afb4c74805516d7983f27,SCN,2024-06-21_10h49.57.702,LearnStrategy,2023.2.3,Win32,60.97560976,3,2,15,,,,,,,,5,07,,,,,,,,,,,5,1.442,1,,,,,,-0.333333333,-0.388020833,1,0,0,1.4416,Obsidian_rect,14,0,14,0,1,
663afb4c74805516d7983f27,SCN,2024-06-21_10h49.57.702,LearnStrategy,2023.2.3,Win32,60.97560976,3,2,16,,,,,,,,8,13,,,,,,,,,,,8,2.331,1,,,,,,0.328125,-0.395833333,1,0,0,2.331,Pumice_rect,15,0,15,0,1,
663afb4c74805516d7983f27,SCN,2024-06-21_10h49.57.702,LearnStrategy,2023.2.3,Win32,60.97560976,4,1,1,-0.09375,-0.069010417,1,0,0,22.5023,Gabbro_16,4,16,3,4,22.502,0.079427083,-0.244791667,1,0,0,0.9931,Diorite_rect,3,0.993,0,0,0,0,0,1,,,,,,,,,,,,,
663afb4c74805516d7983f27,SCN,2024-06-21_10h49.57.702,LearnStrategy,2023.2.3,Win32,60.97560976,4,1,2,0.080729167,-0.098958333,1,0,0,0.5479,Pumice_09,8,09,3,5,0.548,0.091145833,-0.244791667,1,0,0,0.8908,Diorite_rect,3,0.891,0,1,0,1,0,1,,,,,,,,,,,,,
663afb4c74805516d7983f27,SCN,2024-06-21_10h49.57.702,LearnStrategy,2023.2.3,Win32,60.97560976,4,1,3,-0.067708333,-0.244791667,1,0,0,0.7977,Andesite_03,1,03,2,4,0.798,-0.069010417,-0.26171875,1,0,0,0.858,Basalt_rect,2,0.858,0,2,0,2,0,1,,,,,,,,,,,,,
663afb4c74805516d7983f27,SCN,2024-06-21_10h49.57.702,LearnStrategy,2023.2.3,Win32,60.97560976,4,1,4,0.061197917,-0.111979167,1,0,0,0.6986,Pumice_09,8,09,3,5,0.699,0.028645833,-0.231770833,1,0,0,0.7909,Diorite_rect,3,0.791,0,3,0,3,0,1,,,,,,,,,,,,,
663afb4c74805516d7983f27,SCN,2024-06-21_10h49.57.702,LearnStrategy,2023.2.3,Win32,60.97560976,4,1,5,-0.088541667,-0.255208333,1,0,0,0.7635,Andesite_03,1,03,2,4,0.764,-0.108072917,-0.385416667,1,0,0,0.8543,Pegmatite_rect,6,0.854,0,4,0,4,0,1,,,,,,,,,,,,,
663afb4c74805516d7983f27,SCN,2024-06-21_10h49.57.702,LearnStrategy,2023.2.3,Win32,60.97560976,4,1,6,-0.071614583,-0.09765625,1,0,0,0.8304,Gabbro_16,4,16,3,4,0.83,-0.322916667,-0.264322917,1,0,0,0.8751,Andesite_rect,1,0.875,0,5,0,5,0,1,,,,,,,,,,,,,
663afb4c74805516d7983f27,SCN,2024-06-21_10h49.57.702,LearnStrategy,2023.2.3,Win32,60.97560976,4,1,7,-0.080729167,-0.41015625,1,0,0,1.298,Diorite_02,3,02,1,4,1.298,-0.092447917,-0.24609375,1,0,0,1.5043,Basalt_rect,2,1.504,0,6,0,6,0,1,,,,,,,,,,,,,
663afb4c74805516d7983f27,SCN,2024-06-21_10h49.57.702,LearnStrategy,2023.2.3,Win32,60.97560976,4,1,8,0.083333333,0.111979167,1,0,0,0.9823,Diorite_11,3,11,4,5,0.982,-0.305989583,-0.26171875,1,0,0,2.2064,Andesite_rect,1,2.206,0,7,0,7,0,1,,,,,,,,,,,,,
663afb4c74805516d7983f27,SCN,2024-06-21_10h49.57.702,LearnStrategy,2023.2.3,Win32,60.97560976,4,1,9,0.076822917,0.12109375,1,0,0,0.9474,Diorite_11,3,11,4,5,0.947,-0.130208333,-0.248697917,1,0,0,0.689,Basalt_rect,2,0.689,0,8,0,8,0,1,,,,,,,,,,,,,
663afb4c74805516d7983f27,SCN,2024-06-21_10h49.57.702,LearnStrategy,2023.2.3,Win32,60.97560976,4,1,10,0.067708333,0.0625,1,0,0,0.5972,Diorite_11,3,11,4,5,0.597,0.1015625,-0.252604167,1,0,0,0.8404,Diorite_rect,3,0.84,1,9,0,9,0,1,,,,,,,,,,,,,
663afb4c74805516d7983f27,SCN,2024-06-21_10h49.57.702,LearnStrategy,2023.2.3,Win32,60.97560976,4,1,11,0.227864583,0.079427083,1,0,0,1.0815,Basalt_14,2,14,4,6,1.082,0.358072917,-0.390625,1,0,0,2.589,Pumice_rect,8,2.589,0,10,0,10,0,1,,,,,,,,,,,,,
663afb4c74805516d7983f27,SCN,2024-06-21_10h49.57.702,LearnStrategy,2023.2.3,Win32,60.97560976,4,1,12,0.223958333,0.079427083,1,0,0,0.9,Basalt_14,2,14,4,6,0.9,-0.178385417,-0.252604167,1,0,0,1.4723,Basalt_rect,2,1.472,1,11,0,11,0,1,,,,,,,,,,,,,
663afb4c74805516d7983f27,SCN,2024-06-21_10h49.57.702,LearnStrategy,2023.2.3,Win32,60.97560976,4,1,13,-0.072916667,0.111979167,1,0,0,0.9148,Peridotite_15,7,15,4,4,0.915,0.149739583,-0.395833333,1,0,0,0.9412,Peridotite_rect,7,0.941,1,12,0,12,0,1,,,,,,,,,,,,,
663afb4c74805516d7983f27,SCN,2024-06-21_10h49.57.702,LearnStrategy,2023.2.3,Win32,60.97560976,4,1,14,0.576822917,-0.404947917,1,0,0,1.099,Andesite_06,1,06,1,8,1.099,-0.37109375,-0.239583333,1,0,0,1.8117,Andesite_rect,1,1.812,1,13,0,13,0,1,,,,,,,,,,,,,
663afb4c74805516d7983f27,SCN,2024-06-21_10h49.57.702,LearnStrategy,2023.2.3,Win32,60.97560976,4,1,15,0.572916667,-0.436197917,1,0,0,0.9141,Andesite_06,1,06,1,8,0.914,-0.404947917,-0.24609375,1,0,0,0.926,Andesite_rect,1,0.926,1,14,0,14,0,1,,,,,,,,,,,,,
663afb4c74805516d7983f27,SCN,2024-06-21_10h49.57.702,LearnStrategy,2023.2.3,Win32,60.97560976,4,1,16,0.559895833,-0.436197917,1,0,0,0.8163,Andesite_06,1,06,1,8,0.816,-0.421875,-0.259114583,1,0,0,0.7397,Andesite_rect,1,0.74,1,15,0,15,0,1,,,,,,,,,,,,,
663afb4c74805516d7983f27,SCN,2024-06-21_10h49.57.702,LearnStrategy,2023.2.3,Win32,60.97560976,4,2,1,,,,,,,,5,08,,,,,,,,,,,5,1.123,1,,,,,,-0.373697917,-0.399739583,1,0,0,1.1234,Obsidian_rect,0,0,0,0,1,
663afb4c74805516d7983f27,SCN,2024-06-21_10h49.57.702,LearnStrategy,2023.2.3,Win32,60.97560976,4,2,2,,,,,,,,2,16,,,,,,,,,,,2,0.175,1,,,,,,-0.080729167,-0.259114583,1,0,0,0.1752,Basalt_rect,1,0,1,0,1,
663afb4c74805516d7983f27,SCN,2024-06-21_10h49.57.702,LearnStrategy,2023.2.3,Win32,60.97560976,4,2,3,,,,,,,,4,03,,,,,,,,,,,4,4.045,1,,,,,,0.325520833,-0.229166667,1,0,0,4.0455,Gabbro_rect,2,0,2,0,1,
663afb4c74805516d7983f27,SCN,2024-06-21_10h49.57.702,LearnStrategy,2023.2.3,Win32,60.97560976,4,2,4,,,,,,,,3,09,,,,,,,,,,,1,2.766,0,,,,,,-0.397135417,-0.24609375,1,0,0,2.7664,Andesite_rect,3,0,3,0,1,
663afb4c74805516d7983f27,SCN,2024-06-21_10h49.57.702,LearnStrategy,2023.2.3,Win32,60.97560976,4,2,5,,,,,,,,4,05,,,,,,,,,,,4,6.654,1,,,,,,0.403645833,-0.247395833,1,0,0,6.6541,Gabbro_rect,4,0,4,0,1,
663afb4c74805516d7983f27,SCN,2024-06-21_10h49.57.702,LearnStrategy,2023.2.3,Win32,60.97560976,4,2,6,,,,,,,,8,05,,,,,,,,,,,8,1.202,1,,,,,,0.421875,-0.408854167,1,0,0,1.2022,Pumice_rect,5,0,5,0,1,
663afb4c74805516d7983f27,SCN,2024-06-21_10h49.57.702,LearnStrategy,2023.2.3,Win32,60.97560976,4,2,7,,,,,,,,3,16,,,,,,,,,,,3,2.526,1,,,,,,0.197916667,-0.26953125,1,0,0,2.5258,Diorite_rect,6,0,6,0,1,
663afb4c74805516d7983f27,SCN,2024-06-21_10h49.57.702,LearnStrategy,2023.2.3,Win32,60.97560976,4,2,8,,,,,,,,6,15,,,,,,,,,,,6,1.456,1,,,,,,-0.213541667,-0.384114583,1,0,0,1.4555,Pegmatite_rect,7,0,7,0,1,
663afb4c74805516d7983f27,SCN,2024-06-21_10h49.57.702,LearnStrategy,2023.2.3,Win32,60.97560976,4,2,9,,,,,,,,7,14,,,,,,,,,,,7,1.526,1,,,,,,0.147135417,-0.390625,1,0,0,1.5263,Peridotite_rect,8,0,8,0,1,
663afb4c74805516d7983f27,SCN,2024-06-21_10h49.57.702,LearnStrategy,2023.2.3,Win32,60.97560976,4,2,10,,,,,,,,8,14,,,,,,,,,,,8,1.376,1,,,,,,0.350260417,-0.391927083,1,0,0,1.376,Pumice_rect,9,0,9,0,1,
663afb4c74805516d7983f27,SCN,2024-06-21_10h49.57.702,LearnStrategy,2023.2.3,Win32,60.97560976,4,2,11,,,,,,,,6,05,,,,,,,,,,,5,1.925,0,,,,,,-0.430989583,-0.390625,1,0,0,1.9252,Obsidian_rect,10,0,10,0,1,
663afb4c74805516d7983f27,SCN,2024-06-21_10h49.57.702,LearnStrategy,2023.2.3,Win32,60.97560976,4,2,12,,,,,,,,2,09,,,,,,,,,,,2,1.09,1,,,,,,-0.075520833,-0.251302083,1,0,0,1.0898,Basalt_rect,11,0,11,0,1,
663afb4c74805516d7983f27,SCN,2024-06-21_10h49.57.702,LearnStrategy,2023.2.3,Win32,60.97560976,4,2,13,,,,,,,,5,12,,,,,,,,,,,5,1.089,1,,,,,,-0.3671875,-0.388020833,1,0,0,1.0887,Obsidian_rect,12,0,12,0,1,
663afb4c74805516d7983f27,SCN,2024-06-21_10h49.57.702,LearnStrategy,2023.2.3,Win32,60.97560976,4,2,14,,,,,,,,1,14,,,,,,,,,,,6,1.459,0,,,,,,-0.170572917,-0.37890625,1,0,0,1.4587,Pegmatite_rect,13,0,13,0,1,
663afb4c74805516d7983f27,SCN,2024-06-21_10h49.57.702,LearnStrategy,2023.2.3,Win32,60.97560976,4,2,15,,,,,,,,7,06,,,,,,,,,,,7,1.258,1,,,,,,0.158854167,-0.404947917,1,0,0,1.2584,Peridotite_rect,14,0,14,0,1,
663afb4c74805516d7983f27,SCN,2024-06-21_10h49.57.702,LearnStrategy,2023.2.3,Win32,60.97560976,4,2,16,,,,,,,,1,11,,,,,,,,,,,2,5.498,0,,,,,,-0.1171875,-0.255208333,1,0,0,5.4976,Basalt_rect,15,0,15,0,1,
663afb4c74805516d7983f27,SCN,2024-06-21_10h49.57.702,LearnStrategy,2023.2.3,Win32,60.97560976,5,1,1,0.528645833,0.41015625,1,0,0,3.4154,Peridotite_12,7,12,6,8,3.415,0.165364583,-0.404947917,1,0,0,5.3466,Peridotite_rect,7,5.347,1,0,0,0,0,1,,,,,,,,,,,,,
663afb4c74805516d7983f27,SCN,2024-06-21_10h49.57.702,LearnStrategy,2023.2.3,Win32,60.97560976,5,1,2,-0.225260417,0.092447917,1,0,0,2.3308,Andesite_07,1,07,4,3,2.331,-0.34375,-0.234375,1,0,0,4.8222,Andesite_rect,1,4.822,1,1,0,1,0,1,,,,,,,,,,,,,
663afb4c74805516d7983f27,SCN,2024-06-21_10h49.57.702,LearnStrategy,2023.2.3,Win32,60.97560976,5,1,3,0.057291667,0.088541667,1,0,0,1.9635,Diorite_11,3,11,4,5,1.963,0.12109375,-0.23828125,1,0,0,1.2579,Diorite_rect,3,1.258,1,2,0,2,0,1,,,,,,,,,,,,,
663afb4c74805516d7983f27,SCN,2024-06-21_10h49.57.702,LearnStrategy,2023.2.3,Win32,60.97560976,5,1,4,0.380208333,-0.415364583,1,0,0,2.2664,Gabbro_13,4,13,1,7,2.266,0.35546875,-0.234375,1,0,0,8.2221,Gabbro_rect,4,8.222,1,3,0,3,0,1,,,,,,,,,,,,,
663afb4c74805516d7983f27,SCN,2024-06-21_10h49.57.702,LearnStrategy,2023.2.3,Win32,60.97560976,5,1,5,-0.381510417,-0.272135417,1,0,0,1.8482,Andesite_09,1,09,2,2,1.848,-0.115885417,-0.2421875,1,0,0,1.006,Basalt_rect,2,1.006,0,4,0,4,0,1,,,,,,,,,,,,,
663afb4c74805516d7983f27,SCN,2024-06-21_10h49.57.702,LearnStrategy,2023.2.3,Win32,60.97560976,5,1,6,-0.3828125,-0.252604167,1,0,0,0.8996,Andesite_09,1,09,2,2,0.9,-0.375,-0.24609375,1,0,0,1.9519,Andesite_rect,1,1.952,1,5,0,5,0,1,,,,,,,,,,,,,
663afb4c74805516d7983f27,SCN,2024-06-21_10h49.57.702,LearnStrategy,2023.2.3,Win32,60.97560976,5,1,7,-0.235677083,-0.23828125,1,0,0,1.1153,Gabbro_12,4,12,2,3,1.115,0.3515625,-0.248697917,1,0,0,1.8243,Gabbro_rect,4,1.824,1,6,0,6,0,1,,,,,,,,,,,,,
663afb4c74805516d7983f27,SCN,2024-06-21_10h49.57.702,LearnStrategy,2023.2.3,Win32,60.97560976,5,1,8,-0.3984375,0.096354167,1,0,0,2.0316,Basalt_10,2,10,4,2,2.032,-0.141927083,-0.23046875,1,0,0,1.6066,Basalt_rect,2,1.607,1,7,0,7,0,1,,,,,,,,,,,,,
663afb4c74805516d7983f27,SCN,2024-06-21_10h49.57.702,LearnStrategy,2023.2.3,Win32,60.97560976,5,1,9,0.229166667,0.106770833,1,0,0,1.5158,Basalt_14,2,14,4,6,1.516,-0.134114583,-0.243489583,1,0,0,1.7726,Basalt_rect,2,1.773,1,8,0,8,0,1,,,,,,,,,,,,,
663afb4c74805516d7983f27,SCN,2024-06-21_10h49.57.702,LearnStrategy,2023.2.3,Win32,60.97560976,5,1,10,-0.0859375,0.256510417,1,0,0,1.433,Gabbro_11,4,11,5,4,1.433,0.423177083,-0.23828125,1,0,0,1.8161,Gabbro_rect,4,1.816,1,9,0,9,0,1,,,,,,,,,,,,,
663afb4c74805516d7983f27,SCN,2024-06-21_10h49.57.702,LearnStrategy,2023.2.3,Win32,60.97560976,5,1,11,0.23046875,0.40625,1,0,0,1.5572,Diorite_15,3,15,6,6,1.557,0.1328125,-0.263020833,1,0,0,1.878,Diorite_rect,3,1.878,1,10,0,10,0,1,,,,,,,,,,,,,
663afb4c74805516d7983f27,SCN,2024-06-21_10h49.57.702,LearnStrategy,2023.2.3,Win32,60.97560976,5,1,12,0.359375,0.381510417,1,0,0,1.5652,Basalt_05,2,05,6,7,1.565,-0.091145833,-0.2578125,1,0,0,1.4746,Basalt_rect,2,1.475,1,11,0,11,0,1,,,,,,,,,,,,,
663afb4c74805516d7983f27,SCN,2024-06-21_10h49.57.702,LearnStrategy,2023.2.3,Win32,60.97560976,5,1,13,0.432291667,-0.12109375,1,0,0,2.067,Peridotite_16,7,16,3,7,2.067,0.197916667,-0.399739583,1,0,0,1.1032,Peridotite_rect,7,1.103,1,12,0,12,0,1,,,,,,,,,,,,,
663afb4c74805516d7983f27,SCN,2024-06-21_10h49.57.702,LearnStrategy,2023.2.3,Win32,60.97560976,5,1,14,0.09765625,-0.294270833,1,0,0,2.7147,Pumice_08,8,08,2,5,2.715,0.326822917,-0.385416667,1,0,0,0.8082,Pumice_rect,8,0.808,1,13,0,13,0,1,,,,,,,,,,,,,
663afb4c74805516d7983f27,SCN,2024-06-21_10h49.57.702,LearnStrategy,2023.2.3,Win32,60.97560976,5,1,15,-0.235677083,-0.4296875,1,0,0,3.4501,Diorite_08,3,08,1,3,3.45,-0.375,-0.240885417,1,0,0,1.4052,Andesite_rect,1,1.405,0,14,0,14,0,1,,,,,,,,,,,,,
663afb4c74805516d7983f27,SCN,2024-06-21_10h49.57.702,LearnStrategy,2023.2.3,Win32,60.97560976,5,1,16,-0.052083333,-0.41796875,1,0,0,0.7978,Diorite_02,3,02,1,4,0.798,0.12109375,-0.244791667,1,0,0,0.8049,Diorite_rect,3,0.805,1,15,0,15,0,1,,,,,,,,,,,,,
663afb4c74805516d7983f27,SCN,2024-06-21_10h49.57.702,LearnStrategy,2023.2.3,Win32,60.97560976,5,2,1,,,,,,,,6,06,,,,,,,,,,,7,2.845,0,,,,,,0.088541667,-0.401041667,1,0,0,2.845,Peridotite_rect,0,0,0,0,1,
663afb4c74805516d7983f27,SCN,2024-06-21_10h49.57.702,LearnStrategy,2023.2.3,Win32,60.97560976,5,2,2,,,,,,,,4,15,,,,,,,,,,,1,5.511,0,,,,,,-0.350260417,-0.239583333,1,0,0,5.5108,Andesite_rect,1,0,1,0,1,
663afb4c74805516d7983f27,SCN,2024-06-21_10h49.57.702,LearnStrategy,2023.2.3,Win32,60.97560976,5,2,3,,,,,,,,6,12,,,,,,,,,,,6,3.52,1,,,,,,-0.119791667,-0.40234375,1,0,0,3.5205,Pegmatite_rect,2,0,2,0,1,
663afb4c74805516d7983f27,SCN,2024-06-21_10h49.57.702,LearnStrategy,2023.2.3,Win32,60.97560976,5,2,4,,,,,,,,1,04,,,,,,,,,,,1,2.305,1,,,,,,-0.359375,-0.26171875,1,0,0,2.3052,Andesite_rect,3,0,3,0,1,
663afb4c74805516d7983f27,SCN,2024-06-21_10h49.57.702,LearnStrategy,2023.2.3,Win32,60.97560976,5,2,5,,,,,,,,3,14,,,,,,,,,,,3,1.541,1,,,,,,0.100260417,-0.243489583,1,0,0,1.5412,Diorite_rect,4,0,4,0,1,
663afb4c74805516d7983f27,SCN,2024-06-21_10h49.57.702,LearnStrategy,2023.2.3,Win32,60.97560976,5,2,6,,,,,,,,4,01,,,,,,,,,,,7,2.14,0,,,,,,0.091145833,-0.3984375,1,0,0,2.1404,Peridotite_rect,5,0,5,0,1,
663afb4c74805516d7983f27,SCN,2024-06-21_10h49.57.702,LearnStrategy,2023.2.3,Win32,60.97560976,5,2,7,,,,,,,,8,04,,,,,,,,,,,8,1.152,1,,,,,,0.376302083,-0.38671875,1,0,0,1.1523,Pumice_rect,6,0,6,0,1,
663afb4c74805516d7983f27,SCN,2024-06-21_10h49.57.702,LearnStrategy,2023.2.3,Win32,60.97560976,5,2,8,,,,,,,,7,10,,,,,,,,,,,7,1.307,1,,,,,,0.200520833,-0.415364583,1,0,0,1.3068,Peridotite_rect,7,0,7,0,1,
663afb4c74805516d7983f27,SCN,2024-06-21_10h49.57.702,LearnStrategy,2023.2.3,Win32,60.97560976,5,2,9,,,,,,,,7,05,,,,,,,,,,,7,1.709,1,,,,,,0.149739583,-0.41796875,1,0,0,1.7086,Peridotite_rect,8,0,8,0,1,
663afb4c74805516d7983f27,SCN,2024-06-21_10h49.57.702,LearnStrategy,2023.2.3,Win32,60.97560976,5,2,10,,,,,,,,5,02,,,,,,,,,,,5,1.081,1,,,,,,-0.377604167,-0.408854167,1,0,0,1.081,Obsidian_rect,9,0,9,0,1,
663afb4c74805516d7983f27,SCN,2024-06-21_10h49.57.702,LearnStrategy,2023.2.3,Win32,60.97560976,5,2,11,,,,,,,,1,01,,,,,,,,,,,1,4.843,1,,,,,,-0.345052083,-0.234375,1,0,0,4.8426,Andesite_rect,10,0,10,0,1,
663afb4c74805516d7983f27,SCN,2024-06-21_10h49.57.702,LearnStrategy,2023.2.3,Win32,60.97560976,5,2,12,,,,,,,,8,13,,,,,,,,,,,8,1.464,1,,,,,,0.401041667,-0.408854167,1,0,0,1.4637,Pumice_rect,11,0,11,0,1,
663afb4c74805516d7983f27,SCN,2024-06-21_10h49.57.702,LearnStrategy,2023.2.3,Win32,60.97560976,5,2,13,,,,,,,,2,02,,,,,,,,,,,2,1.646,1,,,,,,-0.141927083,-0.240885417,1,0,0,1.6465,Basalt_rect,12,0,12,0,1,
663afb4c74805516d7983f27,SCN,2024-06-21_10h49.57.702,LearnStrategy,2023.2.3,Win32,60.97560976,5,2,14,,,,,,,,3,13,,,,,,,,,,,1,2.676,0,,,,,,-0.399739583,-0.247395833,1,0,0,2.676,Andesite_rect,13,0,13,0,1,
663afb4c74805516d7983f27,SCN,2024-06-21_10h49.57.702,LearnStrategy,2023.2.3,Win32,60.97560976,5,2,15,,,,,,,,5,07,,,,,,,,,,,5,1.195,1,,,,,,-0.420572917,-0.404947917,1,0,0,1.1951,Obsidian_rect,14,0,14,0,1,
663afb4c74805516d7983f27,SCN,2024-06-21_10h49.57.702,LearnStrategy,2023.2.3,Win32,60.97560976,5,2,16,,,,,,,,2,08,,,,,,,,,,,2,1.127,1,,,,,,-0.151041667,-0.263020833,1,0,0,1.1269,Basalt_rect,15,0,15,0,1,
663afb4c74805516d7983f27,SCN,2024-06-21_10h49.57.702,LearnStrategy,2023.2.3,Win32,60.97560976,6,1,1,0.046875,0.119791667,1,0,0,0.6991,Diorite_11,3,11,4,5,0.699,0.106770833,-0.256510417,1,0,0,0.8747,Diorite_rect,3,0.875,1,0,0,0,0,1,,,,,,,,,,,,,
663afb4c74805516d7983f27,SCN,2024-06-21_10h49.57.702,LearnStrategy,2023.2.3,Win32,60.97560976,6,1,2,0.078125,-0.416666667,1,0,0,1.082,Andesite_10,1,10,1,5,1.082,0.35546875,-0.23828125,1,0,0,1.6418,Gabbro_rect,4,1.642,0,1,0,1,0,1,,,,,,,,,,,,,
663afb4c74805516d7983f27,SCN,2024-06-21_10h49.57.702,LearnStrategy,2023.2.3,Win32,60.97560976,6,1,3,0.127604167,-0.436197917,1,0,0,0.8818,Andesite_10,1,10,1,5,0.882,-0.3359375,-0.229166667,1,0,0,1.4832,Andesite_rect,1,1.483,1,2,0,2,0,1,,,,,,,,,,,,,
663afb4c74805516d7983f27,SCN,2024-06-21_10h49.57.702,LearnStrategy,2023.2.3,Win32,60.97560976,6,1,4,0.095052083,-0.408854167,1,0,0,0.8386,Andesite_10,1,10,1,5,0.839,-0.40234375,-0.234375,1,0,0,2.3461,Andesite_rect,1,2.346,1,3,0,3,0,1,,,,,,,,,,,,,
663afb4c74805516d7983f27,SCN,2024-06-21_10h49.57.702,LearnStrategy,2023.2.3,Win32,60.97560976,6,1,5,-0.36328125,-0.399739583,1,0,0,4.716,Pegmatite_16,6,16,1,2,4.716,-0.18359375,-0.399739583,1,0,0,0.9436,Pegmatite_rect,6,0.944,1,4,0,4,0,1,,,,,,,,,,,,,
663afb4c74805516d7983f27,SCN,2024-06-21_10h49.57.702,LearnStrategy,2023.2.3,Win32,60.97560976,6,1,6,-0.5546875,-0.39453125,1,0,0,1.0807,Pegmatite_03,6,03,1,1,1.081,-0.1484375,-0.39453125,1,0,0,1.0352,Pegmatite_rect,6,1.035,1,5,0,5,0,1,,,,,,,,,,,,,
663afb4c74805516d7983f27,SCN,2024-06-21_10h49.57.702,LearnStrategy,2023.2.3,Win32,60.97560976,6,1,7,-0.046875,-0.4296875,1,0,0,0.8827,Diorite_02,3,02,1,4,0.883,-0.06640625,-0.391927083,1,0,0,1.0811,Pegmatite_rect,6,1.081,0,6,0,6,0,1,,,,,,,,,,,,,
663afb4c74805516d7983f27,SCN,2024-06-21_10h49.57.702,LearnStrategy,2023.2.3,Win32,60.97560976,6,1,8,0.389322917,-0.423177083,1,0,0,0.9202,Gabbro_13,4,13,1,7,0.92,0.37890625,-0.239583333,1,0,0,1.4451,Gabbro_rect,4,1.445,1,7,0,7,0,1,,,,,,,,,,,,,
663afb4c74805516d7983f27,SCN,2024-06-21_10h49.57.702,LearnStrategy,2023.2.3,Win32,60.97560976,6,1,9,-0.048177083,0.09765625,1,0,0,0.7152,Peridotite_15,7,15,4,4,0.715,0.177083333,-0.399739583,1,0,0,0.7986,Peridotite_rect,7,0.799,1,8,0,8,0,1,,,,,,,,,,,,,
663afb4c74805516d7983f27,SCN,2024-06-21_10h49.57.702,LearnStrategy,2023.2.3,Win32,60.97560976,6,1,10,0.1328125,-0.432291667,1,0,0,0.9047,Andesite_10,1,10,1,5,0.905,-0.348958333,-0.265625,1,0,0,1.4003,Andesite_rect,1,1.4,1,9,0,9,0,1,,,,,,,,,,,,,
663afb4c74805516d7983f27,SCN,2024-06-21_10h49.57.702,LearnStrategy,2023.2.3,Win32,60.97560976,6,1,11,-0.059895833,-0.23046875,1,0,0,2.2164,Andesite_03,1,03,2,4,2.216,-0.10546875,-0.2421875,1,0,0,1.2882,Basalt_rect,2,1.288,0,10,0,10,0,1,,,,,,,,,,,,,
663afb4c74805516d7983f27,SCN,2024-06-21_10h49.57.702,LearnStrategy,2023.2.3,Win32,60.97560976,6,1,12,0.08984375,-0.1015625,1,0,0,0.7572,Pumice_09,8,09,3,5,0.757,0.369791667,-0.399739583,1,0,0,1.0211,Pumice_rect,8,1.021,1,11,0,11,0,1,,,,,,,,,,,,,
663afb4c74805516d7983f27,SCN,2024-06-21_10h49.57.702,LearnStrategy,2023.2.3,Win32,60.97560976,6,1,13,-0.063802083,-0.408854167,1,0,0,1.0994,Diorite_02,3,02,1,4,1.099,0.153645833,-0.24609375,1,0,0,0.8003,Diorite_rect,3,0.8,1,12,0,12,0,1,,,,,,,,,,,,,
663afb4c74805516d7983f27,SCN,2024-06-21_10h49.57.702,LearnStrategy,2023.2.3,Win32,60.97560976,6,1,14,-0.2265625,-0.428385417,1,0,0,1.1749,Diorite_08,3,08,1,3,1.175,-0.373697917,-0.2421875,1,0,0,1.0116,Andesite_rect,1,1.012,0,13,0,13,0,1,,,,,,,,,,,,,
663afb4c74805516d7983f27,SCN,2024-06-21_10h49.57.702,LearnStrategy,2023.2.3,Win32,60.97560976,6,1,15,0.40234375,-0.282552083,1,0,0,2.0993,Basalt_06,2,06,2,7,2.099,-0.110677083,-0.248697917,1,0,0,2.1048,Basalt_rect,2,2.105,1,14,0,14,0,1,,,,,,,,,,,,,
663afb4c74805516d7983f27,SCN,2024-06-21_10h49.57.702,LearnStrategy,2023.2.3,Win32,60.97560976,6,1,16,-0.235677083,0.096354167,1,0,0,1.5996,Andesite_07,1,07,4,3,1.6,-0.365885417,-0.24609375,1,0,0,1.4547,Andesite_rect,1,1.455,1,15,0,15,0,1,,,,,,,,,,,,,
663afb4c74805516d7983f27,SCN,2024-06-21_10h49.57.702,LearnStrategy,2023.2.3,Win32,60.97560976,6,2,1,,,,,,,,4,10,,,,,,,,,,,4,1.605,1,,,,,,0.3515625,-0.229166667,1,0,0,1.6046,Gabbro_rect,0,0,0,0,1,
663afb4c74805516d7983f27,SCN,2024-06-21_10h49.57.702,LearnStrategy,2023.2.3,Win32,60.97560976,6,2,2,,,,,,,,3,10,,,,,,,,,,,1,5.009,0,,,,,,-0.361979167,-0.240885417,1,0,0,5.0088,Andesite_rect,1,0,1,0,1,
663afb4c74805516d7983f27,SCN,2024-06-21_10h49.57.702,LearnStrategy,2023.2.3,Win32,60.97560976,6,2,3,,,,,,,,8,03,,,,,,,,,,,8,2.787,1,,,,,,0.364583333,-0.397135417,1,0,0,2.787,Pumice_rect,2,0,2,0,1,
663afb4c74805516d7983f27,SCN,2024-06-21_10h49.57.702,LearnStrategy,2023.2.3,Win32,60.97560976,6,2,4,,,,,,,,4,09,,,,,,,,,,,1,12.97,0,,,,,,-0.34765625,-0.25,1,0,0,12.9697,Andesite_rect,3,0,3,0,1,
663afb4c74805516d7983f27,SCN,2024-06-21_10h49.57.702,LearnStrategy,2023.2.3,Win32,60.97560976,6,2,5,,,,,,,,1,05,,,,,,,,,,,7,2.418,0,,,,,,0.158854167,-0.39453125,1,0,0,2.4181,Peridotite_rect,4,0,4,0,1,
663afb4c74805516d7983f27,SCN,2024-06-21_10h49.57.702,LearnStrategy,2023.2.3,Win32,60.97560976,6,2,6,,,,,,,,6,11,,,,,,,,,,,6,1.192,1,,,,,,-0.1015625,-0.40234375,1,0,0,1.1922,Pegmatite_rect,5,0,5,0,1,
663afb4c74805516d7983f27,SCN,2024-06-21_10h49.57.702,LearnStrategy,2023.2.3,Win32,60.97560976,6,2,7,,,,,,,,6,10,,,,,,,,,,,6,0.825,1,,,,,,-0.1015625,-0.40234375,1,0,0,0.8253,Pegmatite_rect,6,0,6,0,1,
663afb4c74805516d7983f27,SCN,2024-06-21_10h49.57.702,LearnStrategy,2023.2.3,Win32,60.97560976,6,2,8,,,,,,,,7,07,,,,,,,,,,,7,1.157,1,,,,,,0.140625,-0.401041667,1,0,0,1.1574,Peridotite_rect,7,0,7,0,1,
663afb4c74805516d7983f27,SCN,2024-06-21_10h49.57.702,LearnStrategy,2023.2.3,Win32,60.97560976,6,2,9,,,,,,,,2,01,,,,,,,,,,,2,1.087,1,,,,,,-0.12890625,-0.255208333,1,0,0,1.0868,Basalt_rect,8,0,8,0,1,
663afb4c74805516d7983f27,SCN,2024-06-21_10h49.57.702,LearnStrategy,2023.2.3,Win32,60.97560976,6,2,10,,,,,,,,1,16,,,,,,,,,,,7,2.8,0,,,,,,0.110677083,-0.41796875,1,0,0,2.7996,Peridotite_rect,9,0,9,0,1,
663afb4c74805516d7983f27,SCN,2024-06-21_10h49.57.702,LearnStrategy,2023.2.3,Win32,60.97560976,6,2,11,,,,,,,,7,13,,,,,,,,,,,7,0.951,1,,,,,,0.109375,-0.40625,1,0,0,0.9515,Peridotite_rect,10,0,10,0,1,
663afb4c74805516d7983f27,SCN,2024-06-21_10h49.57.702,LearnStrategy,2023.2.3,Win32,60.97560976,6,2,12,,,,,,,,8,02,,,,,,,,,,,8,0.99,1,,,,,,0.38671875,-0.404947917,1,0,0,0.9904,Pumice_rect,11,0,11,0,1,
663afb4c74805516d7983f27,SCN,2024-06-21_10h49.57.702,LearnStrategy,2023.2.3,Win32,60.97560976,6,2,13,,,,,,,,5,14,,,,,,,,,,,5,1.353,1,,,,,,-0.434895833,-0.389322917,1,0,0,1.3529,Obsidian_rect,12,0,12,0,1,
663afb4c74805516d7983f27,SCN,2024-06-21_10h49.57.702,LearnStrategy,2023.2.3,Win32,60.97560976,6,2,14,,,,,,,,5,05,,,,,,,,,,,5,0.742,1,,,,,,-0.4296875,-0.389322917,1,0,0,0.7422,Obsidian_rect,13,0,13,0,1,
663afb4c74805516d7983f27,SCN,2024-06-21_10h49.57.702,LearnStrategy,2023.2.3,Win32,60.97560976,6,2,15,,,,,,,,3,06,,,,,,,,,,,1,2.953,0,,,,,,-0.358072917,-0.235677083,1,0,0,2.9535,Andesite_rect,14,0,14,0,1,
663afb4c74805516d7983f27,SCN,2024-06-21_10h49.57.702,LearnStrategy,2023.2.3,Win32,60.97560976,6,2,16,,,,,,,,2,11,,,,,,,,,,,4,2.992,0,,,,,,0.385416667,-0.268229167,1,0,0,2.9916,Gabbro_rect,15,0,15,0,1,
663afb4c74805516d7983f27,SCN,2024-06-21_10h49.57.702,LearnStrategy,2023.2.3,Win32,60.97560976,7,1,1,0.053385417,0.134114583,1,0,0,0.5491,Diorite_11,3,11,4,5,0.549,0.095052083,-0.260416667,1,0,0,0.8367,Diorite_rect,3,0.837,1,0,0,0,0,1,,,,,,,,,,,,,
663afb4c74805516d7983f27,SCN,2024-06-21_10h49.57.702,LearnStrategy,2023.2.3,Win32,60.97560976,7,1,2,0.052083333,0.080729167,1,0,0,0.6418,Diorite_11,3,11,4,5,0.642,0.065104167,-0.255208333,1,0,0,0.6937,Diorite_rect,3,0.694,1,1,0,1,0,1,,,,,,,,,,,,,
663afb4c74805516d7983f27,SCN,2024-06-21_10h49.57.702,LearnStrategy,2023.2.3,Win32,60.97560976,7,1,3,0.08984375,0.0859375,1,0,0,0.5889,Diorite_11,3,11,4,5,0.589,0.13671875,-0.243489583,1,0,0,1.294,Diorite_rect,3,1.294,1,2,0,2,0,1,,,,,,,,,,,,,
663afb4c74805516d7983f27,SCN,2024-06-21_10h49.57.702,LearnStrategy,2023.2.3,Win32,60.97560976,7,1,4,0.069010417,-0.1015625,1,0,0,0.7161,Pumice_09,8,09,3,5,0.716,0.346354167,-0.397135417,1,0,0,1.0386,Pumice_rect,8,1.039,1,3,0,3,0,1,,,,,,,,,,,,,
663afb4c74805516d7983f27,SCN,2024-06-21_10h49.57.702,LearnStrategy,2023.2.3,Win32,60.97560976,7,1,5,0.502604167,-0.397135417,1,0,0,0.9819,Andesite_06,1,06,1,8,0.982,-0.42578125,-0.234375,1,0,0,1.6755,Andesite_rect,1,1.676,1,4,0,4,0,1,,,,,,,,,,,,,
663afb4c74805516d7983f27,SCN,2024-06-21_10h49.57.702,LearnStrategy,2023.2.3,Win32,60.97560976,7,1,6,-0.266927083,0.12890625,1,0,0,1.9822,Andesite_07,1,07,4,3,1.982,-0.4609375,-0.255208333,1,0,0,0.8413,Andesite_rect,1,0.841,1,5,0,5,0,1,,,,,,,,,,,,,
663afb4c74805516d7983f27,SCN,2024-06-21_10h49.57.702,LearnStrategy,2023.2.3,Win32,60.97560976,7,1,7,-0.5390625,-0.40625,1,0,0,0.9479,Pegmatite_03,6,03,1,1,0.948,-0.115885417,-0.419270833,1,0,0,1.0665,Pegmatite_rect,6,1.066,1,6,0,6,0,1,,,,,,,,,,,,,
663afb4c74805516d7983f27,SCN,2024-06-21_10h49.57.702,LearnStrategy,2023.2.3,Win32,60.97560976,7,1,8,-0.384114583,-0.423177083,1,0,0,0.8808,Pegmatite_16,6,16,1,2,0.881,-0.091145833,-0.40234375,1,0,0,0.4717,Pegmatite_rect,6,0.472,1,7,0,7,0,1,,,,,,,,,,,,,
663afb4c74805516d7983f27,SCN,2024-06-21_10h49.57.702,LearnStrategy,2023.2.3,Win32,60.97560976,7,1,9,-0.24609375,-0.458333333,1,0,0,0.7818,Diorite_08,3,08,1,3,0.782,-0.391927083,-0.239583333,1,0,0,0.9587,Andesite_rect,1,0.959,0,8,0,8,0,1,,,,,,,,,,,,,
663afb4c74805516d7983f27,SCN,2024-06-21_10h49.57.702,LearnStrategy,2023.2.3,Win32,60.97560976,7,1,10,-0.236979167,-0.412760417,1,0,0,0.9828,Diorite_08,3,08,1,3,0.983,0.087239583,-0.234375,1,0,0,1.1217,Diorite_rect,3,1.122,1,9,0,9,0,1,,,,,,,,,,,,,
663afb4c74805516d7983f27,SCN,2024-06-21_10h49.57.702,LearnStrategy,2023.2.3,Win32,60.97560976,7,1,11,-0.065104167,-0.421875,1,0,0,0.7819,Diorite_02,3,02,1,4,0.782,0.0625,-0.239583333,1,0,0,1.1783,Diorite_rect,3,1.178,1,10,0,10,0,1,,,,,,,,,,,,,
663afb4c74805516d7983f27,SCN,2024-06-21_10h49.57.702,LearnStrategy,2023.2.3,Win32,60.97560976,7,1,12,-0.2109375,0.072916667,1,0,0,2.7471,Andesite_07,1,07,4,3,2.747,-0.381510417,-0.251302083,1,0,0,1.3011,Andesite_rect,1,1.301,1,11,0,11,0,1,,,,,,,,,,,,,
663afb4c74805516d7983f27,SCN,2024-06-21_10h49.57.702,LearnStrategy,2023.2.3,Win32,60.97560976,7,1,13,-0.087239583,0.079427083,1,0,0,1.2642,Peridotite_15,7,15,4,4,1.264,0.131510417,-0.4140625,1,0,0,1.0859,Peridotite_rect,7,1.086,1,12,0,12,0,1,,,,,,,,,,,,,
663afb4c74805516d7983f27,SCN,2024-06-21_10h49.57.702,LearnStrategy,2023.2.3,Win32,60.97560976,7,1,14,0.057291667,0.072916667,1,0,0,1.1976,Diorite_11,3,11,4,5,1.198,0.111979167,-0.255208333,1,0,0,0.8905,Diorite_rect,3,0.891,1,13,0,13,0,1,,,,,,,,,,,,,
663afb4c74805516d7983f27,SCN,2024-06-21_10h49.57.702,LearnStrategy,2023.2.3,Win32,60.97560976,7,1,15,0.0703125,-0.108072917,1,0,0,1.1825,Pumice_09,8,09,3,5,1.182,0.3671875,-0.38671875,1,0,0,0.5996,Pumice_rect,8,0.6,1,14,0,14,0,1,,,,,,,,,,,,,
663afb4c74805516d7983f27,SCN,2024-06-21_10h49.57.702,LearnStrategy,2023.2.3,Win32,60.97560976,7,1,16,0.223958333,-0.4140625,1,0,0,1.0052,Pumice_15,8,15,1,6,1.005,0.325520833,-0.380208333,1,0,0,0.5298,Pumice_rect,8,0.53,1,15,0,15,0,1,,,,,,,,,,,,,
663afb4c74805516d7983f27,SCN,2024-06-21_10h49.57.702,LearnStrategy,2023.2.3,Win32,60.97560976,7,2,1,,,,,,,,6,05,,,,,,,,,,,6,2.046,1,,,,,,-0.173177083,-0.389322917,1,0,0,2.0457,Pegmatite_rect,0,0,0,0,1,
663afb4c74805516d7983f27,SCN,2024-06-21_10h49.57.702,LearnStrategy,2023.2.3,Win32,60.97560976,7,2,2,,,,,,,,5,07,,,,,,,,,,,5,1.824,1,,,,,,-0.39453125,-0.395833333,1,0,0,1.8244,Obsidian_rect,1,0,1,0,1,
663afb4c74805516d7983f27,SCN,2024-06-21_10h49.57.702,LearnStrategy,2023.2.3,Win32,60.97560976,7,2,3,,,,,,,,1,05,,,,,,,,,,,7,2.335,0,,,,,,0.154947917,-0.395833333,1,0,0,2.3347,Peridotite_rect,2,0,2,0,1,
663afb4c74805516d7983f27,SCN,2024-06-21_10h49.57.702,LearnStrategy,2023.2.3,Win32,60.97560976,7,2,4,,,,,,,,4,05,,,,,,,,,,,4,1.59,1,,,,,,0.385416667,-0.239583333,1,0,0,1.5901,Gabbro_rect,3,0,3,0,1,
663afb4c74805516d7983f27,SCN,2024-06-21_10h49.57.702,LearnStrategy,2023.2.3,Win32,60.97560976,7,2,5,,,,,,,,7,10,,,,,,,,,,,7,1.223,1,,,,,,0.178385417,-0.412760417,1,0,0,1.2233,Peridotite_rect,4,0,4,0,1,
663afb4c74805516d7983f27,SCN,2024-06-21_10h49.57.702,LearnStrategy,2023.2.3,Win32,60.97560976,7,2,6,,,,,,,,4,15,,,,,,,,,,,3,6.938,0,,,,,,0.036458333,-0.255208333,1,0,0,6.9378,Diorite_rect,5,0,5,0,1,
663afb4c74805516d7983f27,SCN,2024-06-21_10h49.57.702,LearnStrategy,2023.2.3,Win32,60.97560976,7,2,7,,,,,,,,5,14,,,,,,,,,,,5,1.116,1,,,,,,-0.376302083,-0.38671875,1,0,0,1.1162,Obsidian_rect,6,0,6,0,1,
663afb4c74805516d7983f27,SCN,2024-06-21_10h49.57.702,LearnStrategy,2023.2.3,Win32,60.97560976,7,2,8,,,,,,,,6,10,,,,,,,,,,,6,1.097,1,,,,,,-0.1328125,-0.40234375,1,0,0,1.0974,Pegmatite_rect,7,0,7,0,1,
663afb4c74805516d7983f27,SCN,2024-06-21_10h49.57.702,LearnStrategy,2023.2.3,Win32,60.97560976,7,2,9,,,,,,,,2,02,,,,,,,,,,,2,1.14,1,,,,,,-0.09765625,-0.25,1,0,0,1.1401,Basalt_rect,8,0,8,0,1,
663afb4c74805516d7983f27,SCN,2024-06-21_10h49.57.702,LearnStrategy,2023.2.3,Win32,60.97560976,7,2,10,,,,,,,,7,13,,,,,,,,,,,7,1.158,1,,,,,,0.125,-0.397135417,1,0,0,1.1578,Peridotite_rect,9,0,9,0,1,
663afb4c74805516d7983f27,SCN,2024-06-21_10h49.57.702,LearnStrategy,2023.2.3,Win32,60.97560976,7,2,11,,,,,,,,8,05,,,,,,,,,,,8,0.99,1,,,,,,0.381510417,-0.40234375,1,0,0,0.9903,Pumice_rect,10,0,10,0,1,
663afb4c74805516d7983f27,SCN,2024-06-21_10h49.57.702,LearnStrategy,2023.2.3,Win32,60.97560976,7,2,12,,,,,,,,2,11,,,,,,,,,,,2,3.509,1,,,,,,-0.1328125,-0.244791667,1,0,0,3.5095,Basalt_rect,11,0,11,0,1,
663afb4c74805516d7983f27,SCN,2024-06-21_10h49.57.702,LearnStrategy,2023.2.3,Win32,60.97560976,7,2,13,,,,,,,,8,14,,,,,,,,,,,8,1.335,1,,,,,,0.338541667,-0.408854167,1,0,0,1.3354,Pumice_rect,12,0,12,0,1,
663afb4c74805516d7983f27,SCN,2024-06-21_10h49.57.702,LearnStrategy,2023.2.3,Win32,60.97560976,7,2,14,,,,,,,,3,16,,,,,,,,,,,3,1.775,1,,,,,,0.123697917,-0.235677083,1,0,0,1.7749,Diorite_rect,13,0,13,0,1,
663afb4c74805516d7983f27,SCN,2024-06-21_10h49.57.702,LearnStrategy,2023.2.3,Win32,60.97560976,7,2,15,,,,,,,,3,13,,,,,,,,,,,3,1.407,1,,,,,,0.122395833,-0.236979167,1,0,0,1.4071,Diorite_rect,14,0,14,0,1,
663afb4c74805516d7983f27,SCN,2024-06-21_10h49.57.702,LearnStrategy,2023.2.3,Win32,60.97560976,7,2,16,,,,,,,,1,11,,,,,,,,,,,1,1.524,1,,,,,,-0.33203125,-0.248697917,1,0,0,1.5235,Andesite_rect,15,0,15,0,1,
663afb4c74805516d7983f27,SCN,2024-06-21_10h49.57.702,LearnStrategy,2023.2.3,Win32,60.97560976,8,1,1,-0.041666667,0.25,1,0,0,0.8922,Gabbro_11,4,11,5,4,0.892,0.350260417,-0.240885417,1,0,0,2.056,Gabbro_rect,4,2.056,1,0,0,0,0,1,,,,,,,,,,,,,
663afb4c74805516d7983f27,SCN,2024-06-21_10h49.57.702,LearnStrategy,2023.2.3,Win32,60.97560976,8,1,2,0.5546875,-0.41015625,1,0,0,1.9159,Andesite_06,1,06,1,8,1.916,-0.321614583,-0.243489583,1,0,0,1.6888,Andesite_rect,1,1.689,1,1,0,1,0,1,,,,,,,,,,,,,
663afb4c74805516d7983f27,SCN,2024-06-21_10h49.57.702,LearnStrategy,2023.2.3,Win32,60.97560976,8,1,3,-0.579427083,-0.376302083,1,0,0,1.0988,Pegmatite_03,6,03,1,1,1.099,-0.2265625,-0.403645833,1,0,0,0.6963,Pegmatite_rect,6,0.696,1,2,0,2,0,1,,,,,,,,,,,,,
663afb4c74805516d7983f27,SCN,2024-06-21_10h49.57.702,LearnStrategy,2023.2.3,Win32,60.97560976,8,1,4,-0.391927083,-0.438802083,1,0,0,1.2652,Pegmatite_16,6,16,1,2,1.265,-0.139322917,-0.395833333,1,0,0,0.5324,Pegmatite_rect,6,0.532,1,3,0,3,0,1,,,,,,,,,,,,,
663afb4c74805516d7983f27,SCN,2024-06-21_10h49.57.702,LearnStrategy,2023.2.3,Win32,60.97560976,8,1,5,-0.227864583,-0.43359375,1,0,0,0.9526,Diorite_08,3,08,1,3,0.953,0.088541667,-0.2421875,1,0,0,0.8753,Diorite_rect,3,0.875,1,4,0,4,0,1,,,,,,,,,,,,,
663afb4c74805516d7983f27,SCN,2024-06-21_10h49.57.702,LearnStrategy,2023.2.3,Win32,60.97560976,8,1,6,-0.18359375,-0.424479167,1,0,0,0.9159,Diorite_08,3,08,1,3,0.916,0.1484375,-0.24609375,1,0,0,1.2977,Diorite_rect,3,1.298,1,5,0,5,0,1,,,,,,,,,,,,,
663afb4c74805516d7983f27,SCN,2024-06-21_10h49.57.702,LearnStrategy,2023.2.3,Win32,60.97560976,8,1,7,-0.072916667,-0.430989583,1,0,0,0.7878,Diorite_02,3,02,1,4,0.788,0.12109375,-0.24609375,1,0,0,0.9781,Diorite_rect,3,0.978,1,6,0,6,0,1,,,,,,,,,,,,,
663afb4c74805516d7983f27,SCN,2024-06-21_10h49.57.702,LearnStrategy,2023.2.3,Win32,60.97560976,8,1,8,0.26953125,0.076822917,1,0,0,2.3653,Basalt_14,2,14,4,6,2.365,-0.1015625,-0.260416667,1,0,0,1.225,Basalt_rect,2,1.225,1,7,0,7,0,1,,,,,,,,,,,,,
663afb4c74805516d7983f27,SCN,2024-06-21_10h49.57.702,LearnStrategy,2023.2.3,Win32,60.97560976,8,1,9,0.3828125,-0.119791667,1,0,0,0.9139,Peridotite_16,7,16,3,7,0.914,0.158854167,-0.39453125,1,0,0,0.9241,Peridotite_rect,7,0.924,1,8,0,8,0,1,,,,,,,,,,,,,
663afb4c74805516d7983f27,SCN,2024-06-21_10h49.57.702,LearnStrategy,2023.2.3,Win32,60.97560976,8,1,10,-0.03515625,0.255208333,1,0,0,0.6326,Gabbro_11,4,11,5,4,0.633,0.427083333,-0.235677083,1,0,0,1.915,Gabbro_rect,4,1.915,1,9,0,9,0,1,,,,,,,,,,,,,
663afb4c74805516d7983f27,SCN,2024-06-21_10h49.57.702,LearnStrategy,2023.2.3,Win32,60.97560976,8,1,11,0.1171875,0.41015625,1,0,0,0.9212,Peridotite_02,7,02,6,5,0.921,0.208333333,-0.38671875,1,0,0,1.2489,Peridotite_rect,7,1.249,1,10,0,10,0,1,,,,,,,,,,,,,
663afb4c74805516d7983f27,SCN,2024-06-21_10h49.57.702,LearnStrategy,2023.2.3,Win32,60.97560976,8,1,12,0.389322917,0.404947917,1,0,0,1.0974,Basalt_05,2,05,6,7,1.097,-0.10546875,-0.244791667,1,0,0,1.0915,Basalt_rect,2,1.091,1,11,0,11,0,1,,,,,,,,,,,,,
663afb4c74805516d7983f27,SCN,2024-06-21_10h49.57.702,LearnStrategy,2023.2.3,Win32,60.97560976,8,1,13,-0.540364583,0.255208333,1,0,0,2.2825,Basalt_04,2,04,5,1,2.283,-0.127604167,-0.24609375,1,0,0,1.3739,Basalt_rect,2,1.374,1,12,0,12,0,1,,,,,,,,,,,,,
663afb4c74805516d7983f27,SCN,2024-06-21_10h49.57.702,LearnStrategy,2023.2.3,Win32,60.97560976,8,1,14,-0.381510417,0.247395833,1,0,0,0.9047,Basalt_12,2,12,5,2,0.905,-0.114583333,-0.247395833,1,0,0,1.4995,Basalt_rect,2,1.499,1,13,0,13,0,1,,,,,,,,,,,,,
663afb4c74805516d7983f27,SCN,2024-06-21_10h49.57.702,LearnStrategy,2023.2.3,Win32,60.97560976,8,1,15,0.42578125,0.23828125,1,0,0,1.8321,Gabbro_14,4,14,5,7,1.832,-0.091145833,-0.260416667,1,0,0,2.5386,Basalt_rect,2,2.539,0,14,0,14,0,1,,,,,,,,,,,,,
663afb4c74805516d7983f27,SCN,2024-06-21_10h49.57.702,LearnStrategy,2023.2.3,Win32,60.97560976,8,1,16,0.389322917,0.22265625,1,0,0,1.1976,Gabbro_14,4,14,5,7,1.198,0.3671875,-0.252604167,1,0,0,0.9417,Gabbro_rect,4,0.942,1,15,0,15,0,1,,,,,,,,,,,,,
663afb4c74805516d7983f27,SCN,2024-06-21_10h49.57.702,LearnStrategy,2023.2.3,Win32,60.97560976,8,2,1,,,,,,,,4,10,,,,,,,,,,,4,1.875,1,,,,,,0.3828125,-0.2421875,1,0,0,1.8753,Gabbro_rect,0,0,0,0,1,
663afb4c74805516d7983f27,SCN,2024-06-21_10h49.57.702,LearnStrategy,2023.2.3,Win32,60.97560976,8,2,2,,,,,,,,1,16,,,,,,,,,,,4,5.557,0,,,,,,0.397135417,-0.256510417,1,0,0,5.5569,Gabbro_rect,1,0,1,0,1,
663afb4c74805516d7983f27,SCN,2024-06-21_10h49.57.702,LearnStrategy,2023.2.3,Win32,60.97560976,8,2,3,,,,,,,,5,08,,,,,,,,,,,5,1.283,1,,,,,,-0.438802083,-0.415364583,1,0,0,1.2827,Obsidian_rect,2,0,2,0,1,
663afb4c74805516d7983f27,SCN,2024-06-21_10h49.57.702,LearnStrategy,2023.2.3,Win32,60.97560976,8,2,4,,,,,,,,5,12,,,,,,,,,,,5,2.34,1,,,,,,-0.397135417,-0.399739583,1,0,0,2.3395,Obsidian_rect,3,0,3,0,1,
663afb4c74805516d7983f27,SCN,2024-06-21_10h49.57.702,LearnStrategy,2023.2.3,Win32,60.97560976,8,2,5,,,,,,,,3,10,,,,,,,,,,,1,4.327,0,,,,,,-0.389322917,-0.265625,1,0,0,4.3269,Andesite_rect,4,0,4,0,1,
663afb4c74805516d7983f27,SCN,2024-06-21_10h49.57.702,LearnStrategy,2023.2.3,Win32,60.97560976,8,2,6,,,,,,,,4,03,,,,,,,,,,,4,1.435,1,,,,,,0.4375,-0.25,1,0,0,1.4345,Gabbro_rect,5,0,5,0,1,
663afb4c74805516d7983f27,SCN,2024-06-21_10h49.57.702,LearnStrategy,2023.2.3,Win32,60.97560976,8,2,7,,,,,,,,6,12,,,,,,,,,,,6,1.874,1,,,,,,-0.130208333,-0.40234375,1,0,0,1.8745,Pegmatite_rect,6,0,6,0,1,
663afb4c74805516d7983f27,SCN,2024-06-21_10h49.57.702,LearnStrategy,2023.2.3,Win32,60.97560976,8,2,8,,,,,,,,6,06,,,,,,,,,,,6,1.006,1,,,,,,-0.102864583,-0.399739583,1,0,0,1.0063,Pegmatite_rect,7,0,7,0,1,
663afb4c74805516d7983f27,SCN,2024-06-21_10h49.57.702,LearnStrategy,2023.2.3,Win32,60.97560976,8,2,9,,,,,,,,7,14,,,,,,,,,,,7,4.314,1,,,,,,0.157552083,-0.393229167,1,0,0,4.3145,Peridotite_rect,8,0,8,0,1,
663afb4c74805516d7983f27,SCN,2024-06-21_10h49.57.702,LearnStrategy,2023.2.3,Win32,60.97560976,8,2,10,,,,,,,,3,14,,,,,,,,,,,3,1.989,1,,,,,,0.157552083,-0.255208333,1,0,0,1.9895,Diorite_rect,9,0,9,0,1,
663afb4c74805516d7983f27,SCN,2024-06-21_10h49.57.702,LearnStrategy,2023.2.3,Win32,60.97560976,8,2,11,,,,,,,,7,06,,,,,,,,,,,7,1.341,1,,,,,,0.17578125,-0.397135417,1,0,0,1.3412,Peridotite_rect,10,0,10,0,1,
663afb4c74805516d7983f27,SCN,2024-06-21_10h49.57.702,LearnStrategy,2023.2.3,Win32,60.97560976,8,2,12,,,,,,,,2,16,,,,,,,,,,,2,1.358,1,,,,,,-0.140625,-0.252604167,1,0,0,1.3582,Basalt_rect,11,0,11,0,1,
663afb4c74805516d7983f27,SCN,2024-06-21_10h49.57.702,LearnStrategy,2023.2.3,Win32,60.97560976,8,2,13,,,,,,,,2,09,,,,,,,,,,,2,1.128,1,,,,,,-0.135416667,-0.251302083,1,0,0,1.128,Basalt_rect,12,0,12,0,1,
663afb4c74805516d7983f27,SCN,2024-06-21_10h49.57.702,LearnStrategy,2023.2.3,Win32,60.97560976,8,2,14,,,,,,,,1,01,,,,,,,,,,,4,3.703,0,,,,,,0.348958333,-0.25390625,1,0,0,3.7033,Gabbro_rect,13,0,13,0,1,
663afb4c74805516d7983f27,SCN,2024-06-21_10h49.57.702,LearnStrategy,2023.2.3,Win32,60.97560976,8,2,15,,,,,,,,8,02,,,,,,,,,,,8,1.051,1,,,,,,0.368489583,-0.381510417,1,0,0,1.0515,Pumice_rect,14,0,14,0,1,
663afb4c74805516d7983f27,SCN,2024-06-21_10h49.57.702,LearnStrategy,2023.2.3,Win32,60.97560976,8,2,16,,,,,,,,8,03,,,,,,,,,,,8,0.768,1,,,,,,0.369791667,-0.3828125,1,0,0,0.768,Pumice_rect,15,0,15,0,1,
663afb4c74805516d7983f27,SCN,2024-06-21_10h49.57.702,LearnStrategy,2023.2.3,Win32,60.97560976,9,1,1,0.061197917,0.100260417,1,0,0,0.9749,Diorite_11,3,11,4,5,0.975,0.145833333,-0.235677083,1,0,0,1.207,Diorite_rect,3,1.207,1,0,0,0,0,1,,,,,,,,,,,,,
663afb4c74805516d7983f27,SCN,2024-06-21_10h49.57.702,LearnStrategy,2023.2.3,Win32,60.97560976,9,1,2,0.545572917,-0.115885417,1,0,0,0.8494,Obsidian_10,5,10,3,8,0.849,-0.403645833,-0.401041667,1,0,0,0.7352,Obsidian_rect,5,0.735,1,1,0,1,0,1,,,,,,,,,,,,,
663afb4c74805516d7983f27,SCN,2024-06-21_10h49.57.702,LearnStrategy,2023.2.3,Win32,60.97560976,9,1,3,-0.041666667,-0.134114583,1,0,0,0.6991,Gabbro_16,4,16,3,4,0.699,-0.065104167,-0.255208333,1,0,0,0.5385,Basalt_rect,2,0.538,0,2,0,2,0,1,,,,,,,,,,,,,
663afb4c74805516d7983f27,SCN,2024-06-21_10h49.57.702,LearnStrategy,2023.2.3,Win32,60.97560976,9,1,4,-0.05859375,-0.1171875,1,0,0,0.6165,Gabbro_16,4,16,3,4,0.616,-0.15234375,-0.268229167,1,0,0,1.5111,Basalt_rect,2,1.511,0,3,0,3,0,1,,,,,,,,,,,,,
663afb4c74805516d7983f27,SCN,2024-06-21_10h49.57.702,LearnStrategy,2023.2.3,Win32,60.97560976,9,1,5,0.3515625,-0.39453125,1,0,0,0.98,Gabbro_13,4,13,1,7,0.98,0.388020833,-0.252604167,1,0,0,1.4871,Gabbro_rect,4,1.487,1,4,0,4,0,1,,,,,,,,,,,,,
663afb4c74805516d7983f27,SCN,2024-06-21_10h49.57.702,LearnStrategy,2023.2.3,Win32,60.97560976,9,1,6,-0.194010417,0.244791667,1,0,0,0.9983,Diorite_12,3,12,5,3,0.998,-0.395833333,-0.260416667,1,0,0,2.0027,Andesite_rect,1,2.003,0,5,0,5,0,1,,,,,,,,,,,,,
663afb4c74805516d7983f27,SCN,2024-06-21_10h49.57.702,LearnStrategy,2023.2.3,Win32,60.97560976,9,1,7,-0.079427083,0.08984375,1,0,0,0.8662,Peridotite_15,7,15,4,4,0.866,0.209635417,-0.395833333,1,0,0,1.0173,Peridotite_rect,7,1.017,1,6,0,6,0,1,,,,,,,,,,,,,
663afb4c74805516d7983f27,SCN,2024-06-21_10h49.57.702,LearnStrategy,2023.2.3,Win32,60.97560976,9,1,8,-0.256510417,-0.450520833,1,0,0,0.8547,Diorite_08,3,08,1,3,0.855,0.127604167,-0.266927083,1,0,0,0.7539,Diorite_rect,3,0.754,1,7,0,7,0,1,,,,,,,,,,,,,
663afb4c74805516d7983f27,SCN,2024-06-21_10h49.57.702,LearnStrategy,2023.2.3,Win32,60.97560976,9,1,9,-0.419270833,-0.428385417,1,0,0,1.0363,Pegmatite_16,6,16,1,2,1.036,-0.162760417,-0.399739583,1,0,0,0.7151,Pegmatite_rect,6,0.715,1,8,0,8,0,1,,,,,,,,,,,,,
663afb4c74805516d7983f27,SCN,2024-06-21_10h49.57.702,LearnStrategy,2023.2.3,Win32,60.97560976,9,1,10,-0.079427083,-0.25,1,0,0,0.7156,Andesite_03,1,03,2,4,0.716,-0.095052083,-0.25,1,0,0,0.5568,Basalt_rect,2,0.557,0,9,0,9,0,1,,,,,,,,,,,,,
663afb4c74805516d7983f27,SCN,2024-06-21_10h49.57.702,LearnStrategy,2023.2.3,Win32,60.97560976,9,1,11,-0.069010417,-0.2578125,1,0,0,0.8137,Andesite_03,1,03,2,4,0.814,-0.359375,-0.25390625,1,0,0,0.8895,Andesite_rect,1,0.889,1,10,0,10,0,1,,,,,,,,,,,,,
663afb4c74805516d7983f27,SCN,2024-06-21_10h49.57.702,LearnStrategy,2023.2.3,Win32,60.97560976,9,1,12,0.0546875,-0.087239583,1,0,0,0.7827,Pumice_09,8,09,3,5,0.783,0.369791667,-0.384114583,1,0,0,0.7411,Pumice_rect,8,0.741,1,11,0,11,0,1,,,,,,,,,,,,,
663afb4c74805516d7983f27,SCN,2024-06-21_10h49.57.702,LearnStrategy,2023.2.3,Win32,60.97560976,9,1,13,-0.076822917,-0.1171875,1,0,0,0.6657,Gabbro_16,4,16,3,4,0.666,0.388020833,-0.263020833,1,0,0,1.0003,Gabbro_rect,4,1,1,12,0,12,0,1,,,,,,,,,,,,,
663afb4c74805516d7983f27,SCN,2024-06-21_10h49.57.702,LearnStrategy,2023.2.3,Win32,60.97560976,9,1,14,0.072916667,0.06640625,1,0,0,0.7914,Diorite_11,3,11,4,5,0.791,0.12109375,-0.236979167,1,0,0,1.4519,Diorite_rect,3,1.452,1,13,0,13,0,1,,,,,,,,,,,,,
663afb4c74805516d7983f27,SCN,2024-06-21_10h49.57.702,LearnStrategy,2023.2.3,Win32,60.97560976,9,1,15,-0.221354167,0.08203125,1,0,0,1.5564,Andesite_07,1,07,4,3,1.556,0.106770833,-0.231770833,1,0,0,1.0009,Diorite_rect,3,1.001,0,14,0,14,0,1,,,,,,,,,,,,,
663afb4c74805516d7983f27,SCN,2024-06-21_10h49.57.702,LearnStrategy,2023.2.3,Win32,60.97560976,9,1,16,-0.180989583,0.072916667,1,0,0,1.4578,Andesite_07,1,07,4,3,1.458,-0.397135417,-0.23046875,1,0,0,0.6999,Andesite_rect,1,0.7,1,15,0,15,0,1,,,,,,,,,,,,,
663afb4c74805516d7983f27,SCN,2024-06-21_10h49.57.702,LearnStrategy,2023.2.3,Win32,60.97560976,9,2,1,,,,,,,,3,09,,,,,,,,,,,1,4.442,0,,,,,,-0.352864583,-0.2421875,1,0,0,4.4422,Andesite_rect,0,0,0,0,1,
663afb4c74805516d7983f27,SCN,2024-06-21_10h49.57.702,LearnStrategy,2023.2.3,Win32,60.97560976,9,2,2,,,,,,,,2,01,,,,,,,,,,,2,3.052,1,,,,,,-0.140625,-0.248697917,1,0,0,3.0524,Basalt_rect,1,0,1,0,1,
663afb4c74805516d7983f27,SCN,2024-06-21_10h49.57.702,LearnStrategy,2023.2.3,Win32,60.97560976,9,2,3,,,,,,,,7,07,,,,,,,,,,,7,2.259,1,,,,,,0.100260417,-0.38671875,1,0,0,2.2592,Peridotite_rect,2,0,2,0,1,
663afb4c74805516d7983f27,SCN,2024-06-21_10h49.57.702,LearnStrategy,2023.2.3,Win32,60.97560976,9,2,4,,,,,,,,6,15,,,,,,,,,,,6,1.285,1,,,,,,-0.147135417,-0.404947917,1,0,0,1.285,Pegmatite_rect,3,0,3,0,1,
663afb4c74805516d7983f27,SCN,2024-06-21_10h49.57.702,LearnStrategy,2023.2.3,Win32,60.97560976,9,2,5,,,,,,,,4,09,,,,,,,,,,,4,8.226,1,,,,,,0.458333333,-0.25390625,1,0,0,8.2258,Gabbro_rect,4,0,4,0,1,
663afb4c74805516d7983f27,SCN,2024-06-21_10h49.57.702,LearnStrategy,2023.2.3,Win32,60.97560976,9,2,6,,,,,,,,7,05,,,,,,,,,,,7,1.081,1,,,,,,0.149739583,-0.411458333,1,0,0,1.0808,Peridotite_rect,5,0,5,0,1,
663afb4c74805516d7983f27,SCN,2024-06-21_10h49.57.702,LearnStrategy,2023.2.3,Win32,60.97560976,9,2,7,,,,,,,,4,01,,,,,,,,,,,4,4.509,1,,,,,,0.407552083,-0.2421875,1,0,0,4.5087,Gabbro_rect,6,0,6,0,1,
663afb4c74805516d7983f27,SCN,2024-06-21_10h49.57.702,LearnStrategy,2023.2.3,Win32,60.97560976,9,2,8,,,,,,,,5,02,,,,,,,,,,,5,1.097,1,,,,,,-0.41015625,-0.41015625,1,0,0,1.0967,Obsidian_rect,7,0,7,0,1,
663afb4c74805516d7983f27,SCN,2024-06-21_10h49.57.702,LearnStrategy,2023.2.3,Win32,60.97560976,9,2,9,,,,,,,,5,05,,,,,,,,,,,5,2.677,1,,,,,,-0.372395833,-0.40234375,1,0,0,2.6766,Obsidian_rect,8,0,8,0,1,
663afb4c74805516d7983f27,SCN,2024-06-21_10h49.57.702,LearnStrategy,2023.2.3,Win32,60.97560976,9,2,10,,,,,,,,1,04,,,,,,,,,,,1,2.117,1,,,,,,-0.37109375,-0.231770833,1,0,0,2.1172,Andesite_rect,9,0,9,0,1,
663afb4c74805516d7983f27,SCN,2024-06-21_10h49.57.702,LearnStrategy,2023.2.3,Win32,60.97560976,9,2,11,,,,,,,,2,08,,,,,,,,,,,2,1.019,1,,,,,,-0.134114583,-0.248697917,1,0,0,1.0186,Basalt_rect,10,0,10,0,1,
663afb4c74805516d7983f27,SCN,2024-06-21_10h49.57.702,LearnStrategy,2023.2.3,Win32,60.97560976,9,2,12,,,,,,,,8,04,,,,,,,,,,,8,1.155,1,,,,,,0.395833333,-0.40625,1,0,0,1.155,Pumice_rect,11,0,11,0,1,
663afb4c74805516d7983f27,SCN,2024-06-21_10h49.57.702,LearnStrategy,2023.2.3,Win32,60.97560976,9,2,13,,,,,,,,3,06,,,,,,,,,,,3,1.477,1,,,,,,0.161458333,-0.252604167,1,0,0,1.4768,Diorite_rect,12,0,12,0,1,
663afb4c74805516d7983f27,SCN,2024-06-21_10h49.57.702,LearnStrategy,2023.2.3,Win32,60.97560976,9,2,14,,,,,,,,8,13,,,,,,,,,,,8,1.066,1,,,,,,0.329427083,-0.393229167,1,0,0,1.0662,Pumice_rect,13,0,13,0,1,
663afb4c74805516d7983f27,SCN,2024-06-21_10h49.57.702,LearnStrategy,2023.2.3,Win32,60.97560976,9,2,15,,,,,,,,6,11,,,,,,,,,,,6,1.121,1,,,,,,-0.063802083,-0.389322917,1,0,0,1.121,Pegmatite_rect,14,0,14,0,1,
663afb4c74805516d7983f27,SCN,2024-06-21_10h49.57.702,LearnStrategy,2023.2.3,Win32,60.97560976,9,2,16,,,,,,,,1,14,,,,,,,,,,,6,1.949,0,,,,,,-0.0625,-0.389322917,1,0,0,1.9485,Pegmatite_rect,15,0,15,0,1,
663afb4c74805516d7983f27,SCN,2024-06-21_10h49.57.702,LearnStrategy,2023.2.3,Win32,60.97560976,,,,,,,,,,,,,,,,,,,,,,,,,,,,,,,,,,,,,,,,,,,1
663afb4c74805516d7983f27,SCN,2024-06-21_10h49.57.702,LearnStrategy,2023.2.3,Win32,60.97560976,,,,,,,,,,,,,,,,,,,,,,,,,,,,,,,,,,,,,,,,,,,
663afb4c74805516d7983f27,SCN,2024-06-21_10h49.57.702,LearnStrategy,2023.2.3,Win32,60.97560976,,,,,,,,,,,6,03,1,1,,,,,,,,,,,,,,,,,,,,,,,,,,,,,
663afb4c74805516d7983f27,SCN,2024-06-21_10h49.57.702,LearnStrategy,2023.2.3,Win32,60.97560976,,,,,,,,,,,6,16,1,2,,,,,,,,,,,,,,,,,,,,,,,,,,,,,
663afb4c74805516d7983f27,SCN,2024-06-21_10h49.57.702,LearnStrategy,2023.2.3,Win32,60.97560976,,,,,,,,,,,3,08,1,3,,,,,,,,,,,,,,,,,,,,,,,,,,,,,
663afb4c74805516d7983f27,SCN,2024-06-21_10h49.57.702,LearnStrategy,2023.2.3,Win32,60.97560976,,,,,,,,,,,3,02,1,4,,,,,,,,,,,,,,,,,,,,,,,,,,,,,
663afb4c74805516d7983f27,SCN,2024-06-21_10h49.57.702,LearnStrategy,2023.2.3,Win32,60.97560976,,,,,,,,,,,1,10,1,5,,,,,,,,,,,,,,,,,,,,,,,,,,,,,
663afb4c74805516d7983f27,SCN,2024-06-21_10h49.57.702,LearnStrategy,2023.2.3,Win32,60.97560976,,,,,,,,,,,8,15,1,6,,,,,,,,,,,,,,,,,,,,,,,,,,,,,
663afb4c74805516d7983f27,SCN,2024-06-21_10h49.57.702,LearnStrategy,2023.2.3,Win32,60.97560976,,,,,,,,,,,4,13,1,7,,,,,,,,,,,,,,,,,,,,,,,,,,,,,
663afb4c74805516d7983f27,SCN,2024-06-21_10h49.57.702,LearnStrategy,2023.2.3,Win32,60.97560976,,,,,,,,,,,1,06,1,8,,,,,,,,,,,,,,,,,,,,,,,,,,,,,
663afb4c74805516d7983f27,SCN,2024-06-21_10h49.57.702,LearnStrategy,2023.2.3,Win32,60.97560976,,,,,,,,,,,4,08,2,1,,,,,,,,,,,,,,,,,,,,,,,,,,,,,
663afb4c74805516d7983f27,SCN,2024-06-21_10h49.57.702,LearnStrategy,2023.2.3,Win32,60.97560976,,,,,,,,,,,1,09,2,2,,,,,,,,,,,,,,,,,,,,,,,,,,,,,
663afb4c74805516d7983f27,SCN,2024-06-21_10h49.57.702,LearnStrategy,2023.2.3,Win32,60.97560976,,,,,,,,,,,4,12,2,3,,,,,,,,,,,,,,,,,,,,,,,,,,,,,
663afb4c74805516d7983f27,SCN,2024-06-21_10h49.57.702,LearnStrategy,2023.2.3,Win32,60.97560976,,,,,,,,,,,1,03,2,4,,,,,,,,,,,,,,,,,,,,,,,,,,,,,
663afb4c74805516d7983f27,SCN,2024-06-21_10h49.57.702,LearnStrategy,2023.2.3,Win32,60.97560976,,,,,,,,,,,8,08,2,5,,,,,,,,,,,,,,,,,,,,,,,,,,,,,
663afb4c74805516d7983f27,SCN,2024-06-21_10h49.57.702,LearnStrategy,2023.2.3,Win32,60.97560976,,,,,,,,,,,5,09,2,6,,,,,,,,,,,,,,,,,,,,,,,,,,,,,
663afb4c74805516d7983f27,SCN,2024-06-21_10h49.57.702,LearnStrategy,2023.2.3,Win32,60.97560976,,,,,,,,,,,2,06,2,7,,,,,,,,,,,,,,,,,,,,,,,,,,,,,
663afb4c74805516d7983f27,SCN,2024-06-21_10h49.57.702,LearnStrategy,2023.2.3,Win32,60.97560976,,,,,,,,,,,5,04,2,8,,,,,,,,,,,,,,,,,,,,,,,,,,,,,
663afb4c74805516d7983f27,SCN,2024-06-21_10h49.57.702,LearnStrategy,2023.2.3,Win32,60.97560976,,,,,,,,,,,8,06,3,1,,,,,,,,,,,,,,,,,,,,,,,,,,,,,
663afb4c74805516d7983f27,SCN,2024-06-21_10h49.57.702,LearnStrategy,2023.2.3,Win32,60.97560976,,,,,,,,,,,5,11,3,2,,,,,,,,,,,,,,,,,,,,,,,,,,,,,
663afb4c74805516d7983f27,SCN,2024-06-21_10h49.57.702,LearnStrategy,2023.2.3,Win32,60.97560976,,,,,,,,,,,3,07,3,3,,,,,,,,,,,,,,,,,,,,,,,,,,,,,
663afb4c74805516d7983f27,SCN,2024-06-21_10h49.57.702,LearnStrategy,2023.2.3,Win32,60.97560976,,,,,,,,,,,4,16,3,4,,,,,,,,,,,,,,,,,,,,,,,,,,,,,
663afb4c74805516d7983f27,SCN,2024-06-21_10h49.57.702,LearnStrategy,2023.2.3,Win32,60.97560976,,,,,,,,,,,8,09,3,5,,,,,,,,,,,,,,,,,,,,,,,,,,,,,
663afb4c74805516d7983f27,SCN,2024-06-21_10h49.57.702,LearnStrategy,2023.2.3,Win32,60.97560976,,,,,,,,,,,6,07,3,6,,,,,,,,,,,,,,,,,,,,,,,,,,,,,
663afb4c74805516d7983f27,SCN,2024-06-21_10h49.57.702,LearnStrategy,2023.2.3,Win32,60.97560976,,,,,,,,,,,7,16,3,7,,,,,,,,,,,,,,,,,,,,,,,,,,,,,
663afb4c74805516d7983f27,SCN,2024-06-21_10h49.57.702,LearnStrategy,2023.2.3,Win32,60.97560976,,,,,,,,,,,5,10,3,8,,,,,,,,,,,,,,,,,,,,,,,,,,,,,
663afb4c74805516d7983f27,SCN,2024-06-21_10h49.57.702,LearnStrategy,2023.2.3,Win32,60.97560976,,,,,,,,,,,7,08,4,1,,,,,,,,,,,,,,,,,,,,,,,,,,,,,
663afb4c74805516d7983f27,SCN,2024-06-21_10h49.57.702,LearnStrategy,2023.2.3,Win32,60.97560976,,,,,,,,,,,2,10,4,2,,,,,,,,,,,,,,,,,,,,,,,,,,,,,
663afb4c74805516d7983f27,SCN,2024-06-21_10h49.57.702,LearnStrategy,2023.2.3,Win32,60.97560976,,,,,,,,,,,1,07,4,3,,,,,,,,,,,,,,,,,,,,,,,,,,,,,
663afb4c74805516d7983f27,SCN,2024-06-21_10h49.57.702,LearnStrategy,2023.2.3,Win32,60.97560976,,,,,,,,,,,7,15,4,4,,,,,,,,,,,,,,,,,,,,,,,,,,,,,
663afb4c74805516d7983f27,SCN,2024-06-21_10h49.57.702,LearnStrategy,2023.2.3,Win32,60.97560976,,,,,,,,,,,3,11,4,5,,,,,,,,,,,,,,,,,,,,,,,,,,,,,
663afb4c74805516d7983f27,SCN,2024-06-21_10h49.57.702,LearnStrategy,2023.2.3,Win32,60.97560976,,,,,,,,,,,2,14,4,6,,,,,,,,,,,,,,,,,,,,,,,,,,,,,
663afb4c74805516d7983f27,SCN,2024-06-21_10h49.57.702,LearnStrategy,2023.2.3,Win32,60.97560976,,,,,,,,,,,6,09,4,7,,,,,,,,,,,,,,,,,,,,,,,,,,,,,
663afb4c74805516d7983f27,SCN,2024-06-21_10h49.57.702,LearnStrategy,2023.2.3,Win32,60.97560976,,,,,,,,,,,7,04,4,8,,,,,,,,,,,,,,,,,,,,,,,,,,,,,
663afb4c74805516d7983f27,SCN,2024-06-21_10h49.57.702,LearnStrategy,2023.2.3,Win32,60.97560976,,,,,,,,,,,2,04,5,1,,,,,,,,,,,,,,,,,,,,,,,,,,,,,
663afb4c74805516d7983f27,SCN,2024-06-21_10h49.57.702,LearnStrategy,2023.2.3,Win32,60.97560976,,,,,,,,,,,2,12,5,2,,,,,,,,,,,,,,,,,,,,,,,,,,,,,
663afb4c74805516d7983f27,SCN,2024-06-21_10h49.57.702,LearnStrategy,2023.2.3,Win32,60.97560976,,,,,,,,,,,3,12,5,3,,,,,,,,,,,,,,,,,,,,,,,,,,,,,
663afb4c74805516d7983f27,SCN,2024-06-21_10h49.57.702,LearnStrategy,2023.2.3,Win32,60.97560976,,,,,,,,,,,4,11,5,4,,,,,,,,,,,,,,,,,,,,,,,,,,,,,
663afb4c74805516d7983f27,SCN,2024-06-21_10h49.57.702,LearnStrategy,2023.2.3,Win32,60.97560976,,,,,,,,,,,6,13,5,5,,,,,,,,,,,,,,,,,,,,,,,,,,,,,
663afb4c74805516d7983f27,SCN,2024-06-21_10h49.57.702,LearnStrategy,2023.2.3,Win32,60.97560976,,,,,,,,,,,8,16,5,6,,,,,,,,,,,,,,,,,,,,,,,,,,,,,
663afb4c74805516d7983f27,SCN,2024-06-21_10h49.57.702,LearnStrategy,2023.2.3,Win32,60.97560976,,,,,,,,,,,4,14,5,7,,,,,,,,,,,,,,,,,,,,,,,,,,,,,
663afb4c74805516d7983f27,SCN,2024-06-21_10h49.57.702,LearnStrategy,2023.2.3,Win32,60.97560976,,,,,,,,,,,1,02,5,8,,,,,,,,,,,,,,,,,,,,,,,,,,,,,
663afb4c74805516d7983f27,SCN,2024-06-21_10h49.57.702,LearnStrategy,2023.2.3,Win32,60.97560976,,,,,,,,,,,5,06,6,1,,,,,,,,,,,,,,,,,,,,,,,,,,,,,
663afb4c74805516d7983f27,SCN,2024-06-21_10h49.57.702,LearnStrategy,2023.2.3,Win32,60.97560976,,,,,,,,,,,8,10,6,2,,,,,,,,,,,,,,,,,,,,,,,,,,,,,
663afb4c74805516d7983f27,SCN,2024-06-21_10h49.57.702,LearnStrategy,2023.2.3,Win32,60.97560976,,,,,,,,,,,6,08,6,3,,,,,,,,,,,,,,,,,,,,,,,,,,,,,
663afb4c74805516d7983f27,SCN,2024-06-21_10h49.57.702,LearnStrategy,2023.2.3,Win32,60.97560976,,,,,,,,,,,5,16,6,4,,,,,,,,,,,,,,,,,,,,,,,,,,,,,
663afb4c74805516d7983f27,SCN,2024-06-21_10h49.57.702,LearnStrategy,2023.2.3,Win32,60.97560976,,,,,,,,,,,7,02,6,5,,,,,,,,,,,,,,,,,,,,,,,,,,,,,
663afb4c74805516d7983f27,SCN,2024-06-21_10h49.57.702,LearnStrategy,2023.2.3,Win32,60.97560976,,,,,,,,,,,3,15,6,6,,,,,,,,,,,,,,,,,,,,,,,,,,,,,
663afb4c74805516d7983f27,SCN,2024-06-21_10h49.57.702,LearnStrategy,2023.2.3,Win32,60.97560976,,,,,,,,,,,2,05,6,7,,,,,,,,,,,,,,,,,,,,,,,,,,,,,
663afb4c74805516d7983f27,SCN,2024-06-21_10h49.57.702,LearnStrategy,2023.2.3,Win32,60.97560976,,,,,,,,,,,7,12,6,8,,,,,,,,,,,,,,,,,,,,,,,,,,,,,