participant,condition,date,expName,psychopyVersion,OS,frameRate,block,phase,trial,learn_mouse_2.x,learn_mouse_2.y,learn_mouse_2.leftButton,learn_mouse_2.midButton,learn_mouse_2.rightButton,learn_mouse_2.time,learn_mouse_2.clicked_name,cat,token,row,col,t_select,cat_mouse_l.x,cat_mouse_l.y,cat_mouse_l.leftButton,cat_mouse_l.midButton,cat_mouse_l.rightButton,cat_mouse_l.time,cat_mouse_l.clicked_name,resp,t_resp,corr,train_trials.thisRepN,train_trials.thisTrialN,train_trials.thisN,train_trials.thisIndex,train_trials.ran,cat_mouse_t.x,cat_mouse_t.y,cat_mouse_t.leftButton,cat_mouse_t.midButton,cat_mouse_t.rightButton,cat_mouse_t.time,cat_mouse_t.clicked_name,test_trials.thisRepN,test_trials.thisTrialN,test_trials.thisN,test_trials.thisIndex,test_trials.ran,Bonus
663ad56043fe3dec6ceffacd,TCN,2024-06-25_09h41.42.397,LearnStrategy,2023.2.3,Win32,59.88023952,,,,,,,,,,,,,,,,,,,,,,,,,,,,,,,,,,,,,,,,,,,
663ad56043fe3dec6ceffacd,TCN,2024-06-25_09h41.42.397,LearnStrategy,2023.2.3,Win32,59.88023952,1,1,1,0.053890122,0.002498194,1,0,0,1.9925,rock_grid_rect_2,2,10,-1,-1,1.992,-0.036045638,-0.390792291,1,0,0,6.5046,Pegmatite_rect,6,6.505,0,0,0,0,0,1,,,,,,,,,,,,,
663ad56043fe3dec6ceffacd,TCN,2024-06-25_09h41.42.397,LearnStrategy,2023.2.3,Win32,59.88023952,1,1,2,0.02105641,-0.01391863,1,0,0,1.132,rock_grid_rect_2,6,09,-1,-1,1.132,-0.343683084,-0.23590297,1,0,0,5.2442,Andesite_rect,1,5.244,0,1,0,1,0,1,,,,,,,,,,,,,
663ad56043fe3dec6ceffacd,TCN,2024-06-25_09h41.42.397,LearnStrategy,2023.2.3,Win32,59.88023952,1,1,3,0.044611014,0.014632395,1,0,0,1.2095,rock_grid_rect_2,2,16,-1,-1,1.209,0.319414747,-0.382940778,1,0,0,2.2452,Pumice_rect,8,2.245,0,2,0,2,0,1,,,,,,,,,,,,,
663ad56043fe3dec6ceffacd,TCN,2024-06-25_09h41.42.397,LearnStrategy,2023.2.3,Win32,59.88023952,1,1,4,0.024625268,0.000356866,1,0,0,2.0482,rock_grid_rect_2,4,14,-1,-1,2.048,0.335117773,-0.384368308,1,0,0,5.7445,Pumice_rect,8,5.745,0,3,0,3,0,1,,,,,,,,,,,,,
663ad56043fe3dec6ceffacd,TCN,2024-06-25_09h41.42.397,LearnStrategy,2023.2.3,Win32,59.88023952,1,1,5,0.090292692,0.011063504,1,0,0,0.9321,rock_grid_rect_2,4,01,-1,-1,0.932,-0.11384723,-0.384368308,1,0,0,2.4953,Pegmatite_rect,6,2.495,0,4,0,4,0,1,,,,,,,,,,,,,
663ad56043fe3dec6ceffacd,TCN,2024-06-25_09h41.42.397,LearnStrategy,2023.2.3,Win32,59.88023952,1,1,6,0.051748794,0.008922177,1,0,0,1.3657,rock_grid_rect_2,7,15,-1,-1,1.366,0.071734475,-0.393647417,1,0,0,2.0616,Peridotite_rect,7,2.062,1,5,0,5,0,1,,,,,,,,,,,,,
663ad56043fe3dec6ceffacd,TCN,2024-06-25_09h41.42.397,LearnStrategy,2023.2.3,Win32,59.88023952,1,1,7,0.013204897,0.016773722,1,0,0,0.9986,rock_grid_rect_2,3,14,-1,-1,0.999,0.128122791,-0.260171306,1,0,0,4.3949,Diorite_rect,3,4.395,1,6,0,6,0,1,,,,,,,,,,,,,
663ad56043fe3dec6ceffacd,TCN,2024-06-25_09h41.42.397,LearnStrategy,2023.2.3,Win32,59.88023952,1,1,8,0.087437566,-0.004639554,1,0,0,0.9486,rock_grid_rect_2,6,11,-1,-1,0.949,-0.337259101,-0.410778037,1,0,0,2.2446,Obsidian_rect,5,2.245,0,7,0,7,0,1,,,,,,,,,,,,,
663ad56043fe3dec6ceffacd,TCN,2024-06-25_09h41.42.397,LearnStrategy,2023.2.3,Win32,59.88023952,1,1,9,-0.03390431,-0.016059957,1,0,0,0.8933,rock_grid_rect_2,8,08,-1,-1,0.893,0.342969351,-0.394361214,1,0,0,2.2788,Pumice_rect,8,2.279,1,8,0,8,0,1,,,,,,,,,,,,,
663ad56043fe3dec6ceffacd,TCN,2024-06-25_09h41.42.397,LearnStrategy,2023.2.3,Win32,59.88023952,1,1,10,0.008208444,0.011777302,1,0,0,0.9481,rock_grid_rect_2,7,05,-1,-1,0.948,-0.330835118,-0.229478987,1,0,0,5.7617,Andesite_rect,1,5.762,0,9,0,9,0,1,,,,,,,,,,,,,
663ad56043fe3dec6ceffacd,TCN,2024-06-25_09h41.42.397,LearnStrategy,2023.2.3,Win32,59.88023952,1,1,11,0.02105641,-0.002498226,1,0,0,0.949,rock_grid_rect_2,1,10,-1,-1,0.949,-0.110992105,-0.389364761,1,0,0,6.3279,Pegmatite_rect,6,6.328,0,10,0,10,0,1,,,,,,,,,,,,,
663ad56043fe3dec6ceffacd,TCN,2024-06-25_09h41.42.397,LearnStrategy,2023.2.3,Win32,59.88023952,1,1,12,0.037473233,-0.014632427,1,0,0,0.9154,rock_grid_rect_2,1,16,-1,-1,0.915,-0.337972866,-0.268022884,1,0,0,5.862,Andesite_rect,1,5.862,1,11,0,11,0,1,,,,,,,,,,,,,
663ad56043fe3dec6ceffacd,TCN,2024-06-25_09h41.42.397,LearnStrategy,2023.2.3,Win32,59.88023952,1,1,13,0.066738088,-0.0124911,1,0,0,0.8985,rock_grid_rect_2,5,06,-1,-1,0.898,-0.448608137,-0.397216274,1,0,0,1.928,Obsidian_rect,5,1.928,1,12,0,12,0,1,,,,,,,,,,,,,
663ad56043fe3dec6ceffacd,TCN,2024-06-25_09h41.42.397,LearnStrategy,2023.2.3,Win32,59.88023952,1,1,14,0.081727381,0.01891505,1,0,0,1.0822,rock_grid_rect_2,8,15,-1,-1,1.082,0.115988623,-0.243754483,1,0,0,6.035,Diorite_rect,3,6.035,0,13,0,13,0,1,,,,,,,,,,,,,
663ad56043fe3dec6ceffacd,TCN,2024-06-25_09h41.42.397,LearnStrategy,2023.2.3,Win32,59.88023952,1,1,15,0.083868709,-0.006780882,1,0,0,34.298,rock_grid_rect_2,5,14,-1,-1,34.298,-0.335831538,-0.398643869,1,0,0,2.9273,Obsidian_rect,5,2.927,1,14,0,14,0,1,,,,,,,,,,,,,
663ad56043fe3dec6ceffacd,TCN,2024-06-25_09h41.42.397,LearnStrategy,2023.2.3,Win32,59.88023952,1,1,16,0.089578894,0.003925756,1,0,0,0.7151,rock_grid_rect_2,3,15,-1,-1,0.715,-0.334403975,-0.238044298,1,0,0,5.0451,Andesite_rect,1,5.045,0,15,0,15,0,1,,,,,,,,,,,,,
663ad56043fe3dec6ceffacd,TCN,2024-06-25_09h41.42.397,LearnStrategy,2023.2.3,Win32,59.88023952,1,2,1,,,,,,,,8,14,,,,,,,,,,,8,2.824,1,,,,,,0.333690308,-0.395788744,1,0,0,2.8242,Pumice_rect,0,0,0,0,1,
663ad56043fe3dec6ceffacd,TCN,2024-06-25_09h41.42.397,LearnStrategy,2023.2.3,Win32,59.88023952,1,2,2,,,,,,,,3,09,,,,,,,,,,,1,4.627,0,,,,,,-0.466452523,-0.2373305,1,0,0,4.6274,Andesite_rect,1,0,1,0,1,
663ad56043fe3dec6ceffacd,TCN,2024-06-25_09h41.42.397,LearnStrategy,2023.2.3,Win32,59.88023952,1,2,3,,,,,,,,2,05,,,,,,,,,,,2,6.734,1,,,,,,-0.163811563,-0.265881557,1,0,0,6.7342,Basalt_rect,2,0,2,0,1,
663ad56043fe3dec6ceffacd,TCN,2024-06-25_09h41.42.397,LearnStrategy,2023.2.3,Win32,59.88023952,1,2,4,,,,,,,,4,11,,,,,,,,,,,2,7.202,0,,,,,,-0.109564575,-0.271591742,1,0,0,7.2019,Basalt_rect,3,0,3,0,1,
663ad56043fe3dec6ceffacd,TCN,2024-06-25_09h41.42.397,LearnStrategy,2023.2.3,Win32,59.88023952,1,2,5,,,,,,,,5,09,,,,,,,,,,,5,1.282,1,,,,,,-0.382226981,-0.405781585,1,0,0,1.2823,Obsidian_rect,4,0,4,0,1,
663ad56043fe3dec6ceffacd,TCN,2024-06-25_09h41.42.397,LearnStrategy,2023.2.3,Win32,59.88023952,1,2,6,,,,,,,,7,10,,,,,,,,,,,7,2.908,1,,,,,,0.1124197,-0.406495382,1,0,0,2.9083,Peridotite_rect,5,0,5,0,1,
663ad56043fe3dec6ceffacd,TCN,2024-06-25_09h41.42.397,LearnStrategy,2023.2.3,Win32,59.88023952,1,2,7,,,,,,,,7,07,,,,,,,,,,,7,1.324,1,,,,,,0.089578894,-0.398643869,1,0,0,1.3237,Peridotite_rect,6,0,6,0,1,
663ad56043fe3dec6ceffacd,TCN,2024-06-25_09h41.42.397,LearnStrategy,2023.2.3,Win32,59.88023952,1,2,8,,,,,,,,1,05,,,,,,,,,,,7,5.557,0,,,,,,0.096716675,-0.385082106,1,0,0,5.5573,Peridotite_rect,7,0,7,0,1,
663ad56043fe3dec6ceffacd,TCN,2024-06-25_09h41.42.397,LearnStrategy,2023.2.3,Win32,59.88023952,1,2,9,,,,,,,,8,16,,,,,,,,,,,8,2.101,1,,,,,,0.402212792,-0.409350508,1,0,0,2.1012,Pumice_rect,8,0,8,0,1,
663ad56043fe3dec6ceffacd,TCN,2024-06-25_09h41.42.397,LearnStrategy,2023.2.3,Win32,59.88023952,1,2,10,,,,,,,,6,06,,,,,,,,,,,6,4.89,1,,,,,,-0.133832976,-0.400785197,1,0,0,4.8902,Pegmatite_rect,9,0,9,0,1,
663ad56043fe3dec6ceffacd,TCN,2024-06-25_09h41.42.397,LearnStrategy,2023.2.3,Win32,59.88023952,1,2,11,,,,,,,,4,09,,,,,,,,,,,2,3.25,0,,,,,,-0.173090606,-0.240899358,1,0,0,3.2504,Basalt_rect,10,0,10,0,1,
663ad56043fe3dec6ceffacd,TCN,2024-06-25_09h41.42.397,LearnStrategy,2023.2.3,Win32,59.88023952,1,2,12,,,,,,,,2,04,,,,,,,,,,,2,1.517,1,,,,,,-0.173090606,-0.240899358,1,0,0,1.5166,Basalt_rect,11,0,11,0,1,
663ad56043fe3dec6ceffacd,TCN,2024-06-25_09h41.42.397,LearnStrategy,2023.2.3,Win32,59.88023952,1,2,13,,,,,,,,5,11,,,,,,,,,,,5,1.485,1,,,,,,-0.33012132,-0.384368308,1,0,0,1.485,Obsidian_rect,12,0,12,0,1,
663ad56043fe3dec6ceffacd,TCN,2024-06-25_09h41.42.397,LearnStrategy,2023.2.3,Win32,59.88023952,1,2,14,,,,,,,,3,10,,,,,,,,,,,1,6.876,0,,,,,,-0.352962159,-0.265167759,1,0,0,6.8755,Andesite_rect,13,0,13,0,1,
663ad56043fe3dec6ceffacd,TCN,2024-06-25_09h41.42.397,LearnStrategy,2023.2.3,Win32,59.88023952,1,2,15,,,,,,,,6,15,,,,,,,,,,,6,2.649,1,,,,,,-0.161670236,-0.402926525,1,0,0,2.6494,Pegmatite_rect,14,0,14,0,1,
663ad56043fe3dec6ceffacd,TCN,2024-06-25_09h41.42.397,LearnStrategy,2023.2.3,Win32,59.88023952,1,2,16,,,,,,,,1,03,,,,,,,,,,,4,3.958,0,,,,,,0.426481129,-0.228051392,1,0,0,3.9585,Gabbro_rect,15,0,15,0,1,
663ad56043fe3dec6ceffacd,TCN,2024-06-25_09h41.42.397,LearnStrategy,2023.2.3,Win32,59.88023952,2,1,1,-0.159528908,-0.002498226,1,0,0,1.1709,rock_grid_rect_2,4,16,-1,-1,1.171,-0.125981398,-0.266595289,1,0,0,1.2299,Basalt_rect,2,1.23,0,0,0,0,0,1,,,,,,,,,,,,,
663ad56043fe3dec6ceffacd,TCN,2024-06-25_09h41.42.397,LearnStrategy,2023.2.3,Win32,59.88023952,2,1,2,-0.071734475,-0.015346192,1,0,0,1.1142,rock_grid_rect_2,6,08,-1,-1,1.114,-0.15738758,-0.399357602,1,0,0,4.5407,Pegmatite_rect,6,4.541,1,1,0,1,0,1,,,,,,,,,,,,,
663ad56043fe3dec6ceffacd,TCN,2024-06-25_09h41.42.397,LearnStrategy,2023.2.3,Win32,59.88023952,2,1,3,-0.048179872,-0.014632427,1,0,0,1.1312,rock_grid_rect_2,1,01,-1,-1,1.131,0.075303398,-0.233047845,1,0,0,5.826,Diorite_rect,3,5.826,0,2,0,2,0,1,,,,,,,,,,,,,
663ad56043fe3dec6ceffacd,TCN,2024-06-25_09h41.42.397,LearnStrategy,2023.2.3,Win32,59.88023952,2,1,4,-0.016059957,0.003211991,1,0,0,1.3315,rock_grid_rect_2,5,10,-1,-1,1.332,-0.364382562,-0.388650964,1,0,0,2.7925,Obsidian_rect,5,2.793,1,3,0,3,0,1,,,,,,,,,,,,,
663ad56043fe3dec6ceffacd,TCN,2024-06-25_09h41.42.397,LearnStrategy,2023.2.3,Win32,59.88023952,2,1,5,-0.038900763,0.001070664,1,0,0,1.0046,rock_grid_rect_2,1,09,-1,-1,1.005,0.355103585,-0.412919365,1,0,0,5.6367,Pumice_rect,8,5.637,0,4,0,4,0,1,,,,,,,,,,,,,
663ad56043fe3dec6ceffacd,TCN,2024-06-25_09h41.42.397,LearnStrategy,2023.2.3,Win32,59.88023952,2,1,6,0.028194191,-0.001070664,1,0,0,1.0803,rock_grid_rect_2,2,02,-1,-1,1.08,-0.054603854,-0.246609608,1,0,0,3.9567,Basalt_rect,2,3.957,1,5,0,5,0,1,,,,,,,,,,,,,
663ad56043fe3dec6ceffacd,TCN,2024-06-25_09h41.42.397,LearnStrategy,2023.2.3,Win32,59.88023952,2,1,7,-0.030335453,0.002498194,1,0,0,1.3481,rock_grid_rect_2,3,12,-1,-1,1.348,-0.434332609,-0.250892263,1,0,0,3.426,Andesite_rect,1,3.426,0,6,0,6,0,1,,,,,,,,,,,,,
663ad56043fe3dec6ceffacd,TCN,2024-06-25_09h41.42.397,LearnStrategy,2023.2.3,Win32,59.88023952,2,1,8,-0.088151299,-0.011777302,1,0,0,1.0979,rock_grid_rect_2,2,06,-1,-1,1.098,-0.078158458,-0.231620315,1,0,0,1.5252,Basalt_rect,2,1.525,1,7,0,7,0,1,,,,,,,,,,,,,
663ad56043fe3dec6ceffacd,TCN,2024-06-25_09h41.42.397,LearnStrategy,2023.2.3,Win32,59.88023952,2,1,9,0.003925789,0.010349739,1,0,0,1.0983,rock_grid_rect_2,3,11,-1,-1,1.098,0.10956464,-0.230906517,1,0,0,1.9362,Diorite_rect,3,1.936,1,8,0,8,0,1,,,,,,,,,,,,,
663ad56043fe3dec6ceffacd,TCN,2024-06-25_09h41.42.397,LearnStrategy,2023.2.3,Win32,59.88023952,2,1,10,-0.033190578,0.001070664,1,0,0,1.6817,rock_grid_rect_2,4,08,-1,-1,1.682,-0.129550321,-0.403640257,1,0,0,7.6087,Pegmatite_rect,6,7.609,0,9,0,9,0,1,,,,,,,,,,,,,
663ad56043fe3dec6ceffacd,TCN,2024-06-25_09h41.42.397,LearnStrategy,2023.2.3,Win32,59.88023952,2,1,11,-0.057458914,0.007494647,1,0,0,1.0979,rock_grid_rect_2,5,05,-1,-1,1.098,-0.345824411,-0.391506089,1,0,0,1.5434,Obsidian_rect,5,1.543,1,10,0,10,0,1,,,,,,,,,,,,,
663ad56043fe3dec6ceffacd,TCN,2024-06-25_09h41.42.397,LearnStrategy,2023.2.3,Win32,59.88023952,2,1,12,-0.062455367,0.016773722,1,0,0,1.1844,rock_grid_rect_2,7,08,-1,-1,1.184,0.10956464,-0.40720918,1,0,0,1.9115,Peridotite_rect,7,1.912,1,11,0,11,0,1,,,,,,,,,,,,,
663ad56043fe3dec6ceffacd,TCN,2024-06-25_09h41.42.397,LearnStrategy,2023.2.3,Win32,59.88023952,2,1,13,-0.012491034,-0.015346192,1,0,0,1.0858,rock_grid_rect_2,8,06,-1,-1,1.086,0.383654576,-0.402212727,1,0,0,1.897,Pumice_rect,8,1.897,1,12,0,12,0,1,,,,,,,,,,,,,
663ad56043fe3dec6ceffacd,TCN,2024-06-25_09h41.42.397,LearnStrategy,2023.2.3,Win32,59.88023952,2,1,14,0.049607467,-0.002498226,1,0,0,1.184,rock_grid_rect_2,7,02,-1,-1,1.184,0.068879415,-0.398643869,1,0,0,1.7166,Peridotite_rect,7,1.717,1,13,0,13,0,1,,,,,,,,,,,,,
663ad56043fe3dec6ceffacd,TCN,2024-06-25_09h41.42.397,LearnStrategy,2023.2.3,Win32,59.88023952,2,1,15,-0.050321199,-0.02105641,1,0,0,1.0487,rock_grid_rect_2,6,05,-1,-1,1.049,-0.139543162,-0.397216274,1,0,0,5.2587,Pegmatite_rect,6,5.259,1,14,0,14,0,1,,,,,,,,,,,,,
663ad56043fe3dec6ceffacd,TCN,2024-06-25_09h41.42.397,LearnStrategy,2023.2.3,Win32,59.88023952,2,1,16,-0.069593148,-0.011777302,1,0,0,0.8476,rock_grid_rect_2,8,09,-1,-1,0.848,0.347965739,-0.387223434,1,0,0,1.6428,Pumice_rect,8,1.643,1,15,0,15,0,1,,,,,,,,,,,,,
663ad56043fe3dec6ceffacd,TCN,2024-06-25_09h41.42.397,LearnStrategy,2023.2.3,Win32,59.88023952,2,2,1,,,,,,,,8,02,,,,,,,,,,,8,1.958,1,,,,,,0.360099972,-0.404354055,1,0,0,1.9576,Pumice_rect,0,0,0,0,1,
663ad56043fe3dec6ceffacd,TCN,2024-06-25_09h41.42.397,LearnStrategy,2023.2.3,Win32,59.88023952,2,2,2,,,,,,,,4,12,,,,,,,,,,,1,31.842,0,,,,,,-0.37366167,-0.260171306,1,0,0,31.8418,Andesite_rect,1,0,1,0,1,
663ad56043fe3dec6ceffacd,TCN,2024-06-25_09h41.42.397,LearnStrategy,2023.2.3,Win32,59.88023952,2,2,3,,,,,,,,4,10,,,,,,,,,,,1,10.382,0,,,,,,-0.401498929,-0.2373305,1,0,0,10.3824,Andesite_rect,2,0,2,0,1,
663ad56043fe3dec6ceffacd,TCN,2024-06-25_09h41.42.397,LearnStrategy,2023.2.3,Win32,59.88023952,2,2,4,,,,,,,,7,16,,,,,,,,,,,7,6.683,1,,,,,,0.088865096,-0.420770878,1,0,0,6.683,Peridotite_rect,3,0,3,0,1,
663ad56043fe3dec6ceffacd,TCN,2024-06-25_09h41.42.397,LearnStrategy,2023.2.3,Win32,59.88023952,2,2,5,,,,,,,,3,16,,,,,,,,,,,3,1.901,1,,,,,,0.068879415,-0.245182013,1,0,0,1.9011,Diorite_rect,4,0,4,0,1,
663ad56043fe3dec6ceffacd,TCN,2024-06-25_09h41.42.397,LearnStrategy,2023.2.3,Win32,59.88023952,2,2,6,,,,,,,,3,08,,,,,,,,,,,3,1.117,1,,,,,,0.081727381,-0.235189172,1,0,0,1.1171,Diorite_rect,5,0,5,0,1,
663ad56043fe3dec6ceffacd,TCN,2024-06-25_09h41.42.397,LearnStrategy,2023.2.3,Win32,59.88023952,2,2,7,,,,,,,,6,13,,,,,,,,,,,6,3.402,1,,,,,,-0.138115632,-0.396502542,1,0,0,3.4018,Pegmatite_rect,6,0,6,0,1,
663ad56043fe3dec6ceffacd,TCN,2024-06-25_09h41.42.397,LearnStrategy,2023.2.3,Win32,59.88023952,2,2,8,,,,,,,,7,12,,,,,,,,,,,7,1.537,1,,,,,,0.089578894,-0.395074946,1,0,0,1.5367,Peridotite_rect,7,0,7,0,1,
663ad56043fe3dec6ceffacd,TCN,2024-06-25_09h41.42.397,LearnStrategy,2023.2.3,Win32,59.88023952,2,2,9,,,,,,,,5,07,,,,,,,,,,,5,1.439,1,,,,,,-0.41149177,-0.395788744,1,0,0,1.4392,Obsidian_rect,8,0,8,0,1,
663ad56043fe3dec6ceffacd,TCN,2024-06-25_09h41.42.397,LearnStrategy,2023.2.3,Win32,59.88023952,2,2,10,,,,,,,,5,02,,,,,,,,,,,5,1.25,1,,,,,,-0.392933619,-0.388650964,1,0,0,1.2503,Obsidian_rect,9,0,9,0,1,
663ad56043fe3dec6ceffacd,TCN,2024-06-25_09h41.42.397,LearnStrategy,2023.2.3,Win32,59.88023952,2,2,11,,,,,,,,8,05,,,,,,,,,,,8,1.442,1,,,,,,0.330121385,-0.403640257,1,0,0,1.4421,Pumice_rect,10,0,10,0,1,
663ad56043fe3dec6ceffacd,TCN,2024-06-25_09h41.42.397,LearnStrategy,2023.2.3,Win32,59.88023952,2,2,12,,,,,,,,1,11,,,,,,,,,,,4,9.159,0,,,,,,0.331548981,-0.245895811,1,0,0,9.1593,Gabbro_rect,11,0,11,0,1,
663ad56043fe3dec6ceffacd,TCN,2024-06-25_09h41.42.397,LearnStrategy,2023.2.3,Win32,59.88023952,2,2,13,,,,,,,,2,09,,,,,,,,,,,2,1.967,1,,,,,,-0.140256959,-0.251605996,1,0,0,1.9674,Basalt_rect,12,0,12,0,1,
663ad56043fe3dec6ceffacd,TCN,2024-06-25_09h41.42.397,LearnStrategy,2023.2.3,Win32,59.88023952,2,2,14,,,,,,,,2,11,,,,,,,,,,,8,6.159,0,,,,,,0.358672377,-0.403640257,1,0,0,6.1592,Pumice_rect,13,0,13,0,1,
663ad56043fe3dec6ceffacd,TCN,2024-06-25_09h41.42.397,LearnStrategy,2023.2.3,Win32,59.88023952,2,2,15,,,,,,,,6,12,,,,,,,,,,,6,2.518,1,,,,,,-0.107423247,-0.390792291,1,0,0,2.5175,Pegmatite_rect,14,0,14,0,1,
663ad56043fe3dec6ceffacd,TCN,2024-06-25_09h41.42.397,LearnStrategy,2023.2.3,Win32,59.88023952,2,2,16,,,,,,,,1,06,,,,,,,,,,,3,1.93,0,,,,,,0.115988623,-0.258743776,1,0,0,1.9296,Diorite_rect,15,0,15,0,1,
663ad56043fe3dec6ceffacd,TCN,2024-06-25_09h41.42.397,LearnStrategy,2023.2.3,Win32,59.88023952,3,1,1,-0.071734475,0.006067084,1,0,0,1.214,rock_grid_rect_2,5,16,-1,-1,1.214,-0.345110613,-0.412919365,1,0,0,0.9669,Obsidian_rect,5,0.967,1,0,0,0,0,1,,,,,,,,,,,,,
663ad56043fe3dec6ceffacd,TCN,2024-06-25_09h41.42.397,LearnStrategy,2023.2.3,Win32,59.88023952,3,1,2,-0.004639521,-0.009635974,1,0,0,0.8639,rock_grid_rect_2,7,13,-1,-1,0.864,0.084582441,-0.409350508,1,0,0,1.3695,Peridotite_rect,7,1.37,1,1,0,1,0,1,,,,,,,,,,,,,
663ad56043fe3dec6ceffacd,TCN,2024-06-25_09h41.42.397,LearnStrategy,2023.2.3,Win32,59.88023952,3,1,3,0.046038544,0.01534616,1,0,0,0.7503,rock_grid_rect_2,4,03,-1,-1,0.75,0.145253412,-0.260885104,1,0,0,2.4031,Diorite_rect,3,2.403,0,2,0,2,0,1,,,,,,,,,,,,,
663ad56043fe3dec6ceffacd,TCN,2024-06-25_09h41.42.397,LearnStrategy,2023.2.3,Win32,59.88023952,3,1,4,0.036045703,-0.018915082,1,0,0,2.0485,rock_grid_rect_2,1,07,-1,-1,2.048,0.140970757,-0.255888651,1,0,0,4.2587,Diorite_rect,3,4.259,0,3,0,3,0,1,,,,,,,,,,,,,
663ad56043fe3dec6ceffacd,TCN,2024-06-25_09h41.42.397,LearnStrategy,2023.2.3,Win32,59.88023952,3,1,5,0.050321199,0.008922177,1,0,0,0.8983,rock_grid_rect_2,1,04,-1,-1,0.898,-0.377944325,-0.246609608,1,0,0,2.2921,Andesite_rect,1,2.292,1,4,0,4,0,1,,,,,,,,,,,,,
663ad56043fe3dec6ceffacd,TCN,2024-06-25_09h41.42.397,LearnStrategy,2023.2.3,Win32,59.88023952,3,1,6,0.005353319,-0.005353319,1,0,0,0.6975,rock_grid_rect_2,7,06,-1,-1,0.697,0.093147752,-0.380085653,1,0,0,1.5591,Peridotite_rect,7,1.559,1,5,0,5,0,1,,,,,,,,,,,,,
663ad56043fe3dec6ceffacd,TCN,2024-06-25_09h41.42.397,LearnStrategy,2023.2.3,Win32,59.88023952,3,1,7,-0.018915017,0.000356866,1,0,0,0.864,rock_grid_rect_2,2,01,-1,-1,0.864,-0.105995717,-0.234475375,1,0,0,1.4404,Basalt_rect,2,1.44,1,6,0,6,0,1,,,,,,,,,,,,,
663ad56043fe3dec6ceffacd,TCN,2024-06-25_09h41.42.397,LearnStrategy,2023.2.3,Win32,59.88023952,3,1,8,0.034618173,0.021056377,1,0,0,0.7308,rock_grid_rect_2,6,07,-1,-1,0.731,-0.074589535,-0.41862955,1,0,0,1.6358,Pegmatite_rect,6,1.636,1,7,0,7,0,1,,,,,,,,,,,,,
663ad56043fe3dec6ceffacd,TCN,2024-06-25_09h41.42.397,LearnStrategy,2023.2.3,Win32,59.88023952,3,1,9,0.034618173,0.019628815,1,0,0,0.7536,rock_grid_rect_2,2,08,-1,-1,0.754,-0.110278373,-0.236616702,1,0,0,1.5936,Basalt_rect,2,1.594,1,8,0,8,0,1,,,,,,,,,,,,,
663ad56043fe3dec6ceffacd,TCN,2024-06-25_09h41.42.397,LearnStrategy,2023.2.3,Win32,59.88023952,3,1,10,-0.008922177,0.010349739,1,0,0,0.7183,rock_grid_rect_2,3,02,-1,-1,0.718,0.177373327,-0.258029979,1,0,0,1.7866,Diorite_rect,3,1.787,1,9,0,9,0,1,,,,,,,,,,,,,
663ad56043fe3dec6ceffacd,TCN,2024-06-25_09h41.42.397,LearnStrategy,2023.2.3,Win32,59.88023952,3,1,11,-0.035331906,0.006780849,1,0,0,0.9486,rock_grid_rect_2,5,04,-1,-1,0.949,-0.41149177,-0.401498929,1,0,0,1.0251,Obsidian_rect,5,1.025,1,10,0,10,0,1,,,,,,,,,,,,,
663ad56043fe3dec6ceffacd,TCN,2024-06-25_09h41.42.397,LearnStrategy,2023.2.3,Win32,59.88023952,3,1,12,0.05745898,-0.006780882,1,0,0,0.7711,rock_grid_rect_2,8,03,-1,-1,0.771,0.378658188,-0.397216274,1,0,0,1.2028,Pumice_rect,8,1.203,1,11,0,11,0,1,,,,,,,,,,,,,
663ad56043fe3dec6ceffacd,TCN,2024-06-25_09h41.42.397,LearnStrategy,2023.2.3,Win32,59.88023952,3,1,13,0.032476846,-0.013204865,1,0,0,0.8482,rock_grid_rect_2,8,04,-1,-1,0.848,0.312277032,-0.410778037,1,0,0,1.2766,Pumice_rect,8,1.277,1,12,0,12,0,1,,,,,,,,,,,,,
663ad56043fe3dec6ceffacd,TCN,2024-06-25_09h41.42.397,LearnStrategy,2023.2.3,Win32,59.88023952,3,1,14,-0.026052798,0.019628815,1,0,0,0.8647,rock_grid_rect_2,6,03,-1,-1,0.865,-0.170235546,-0.391506089,1,0,0,4.3394,Pegmatite_rect,6,4.339,1,13,0,13,0,1,,,,,,,,,,,,,
663ad56043fe3dec6ceffacd,TCN,2024-06-25_09h41.42.397,LearnStrategy,2023.2.3,Win32,59.88023952,3,1,15,-0.06745182,0.010349739,1,0,0,0.965,rock_grid_rect_2,3,06,-1,-1,0.965,0.085296239,-0.245895811,1,0,0,2.6424,Diorite_rect,3,2.642,1,14,0,14,0,1,,,,,,,,,,,,,
663ad56043fe3dec6ceffacd,TCN,2024-06-25_09h41.42.397,LearnStrategy,2023.2.3,Win32,59.88023952,3,1,16,0.016773755,-0.001070664,1,0,0,0.6645,rock_grid_rect_2,4,13,-1,-1,0.664,-0.360813704,-0.255888651,1,0,0,3.5593,Andesite_rect,1,3.559,0,15,0,15,0,1,,,,,,,,,,,,,
663ad56043fe3dec6ceffacd,TCN,2024-06-25_09h41.42.397,LearnStrategy,2023.2.3,Win32,59.88023952,3,2,1,,,,,,,,2,14,,,,,,,,,,,8,5.059,0,,,,,,0.362955032,-0.383654576,1,0,0,5.0589,Pumice_rect,0,0,0,0,1,
663ad56043fe3dec6ceffacd,TCN,2024-06-25_09h41.42.397,LearnStrategy,2023.2.3,Win32,59.88023952,3,2,2,,,,,,,,1,14,,,,,,,,,,,6,3.467,0,,,,,,-0.168094218,-0.40720918,1,0,0,3.4673,Pegmatite_rect,1,0,1,0,1,
663ad56043fe3dec6ceffacd,TCN,2024-06-25_09h41.42.397,LearnStrategy,2023.2.3,Win32,59.88023952,3,2,3,,,,,,,,4,05,,,,,,,,,,,1,8.784,0,,,,,,-0.357244814,-0.267309087,1,0,0,8.7835,Andesite_rect,2,0,2,0,1,
663ad56043fe3dec6ceffacd,TCN,2024-06-25_09h41.42.397,LearnStrategy,2023.2.3,Win32,59.88023952,3,2,4,,,,,,,,3,13,,,,,,,,,,,3,1.666,1,,,,,,0.100285532,-0.253747323,1,0,0,1.6656,Diorite_rect,3,0,3,0,1,
663ad56043fe3dec6ceffacd,TCN,2024-06-25_09h41.42.397,LearnStrategy,2023.2.3,Win32,59.88023952,3,2,5,,,,,,,,5,12,,,,,,,,,,,5,1.025,1,,,,,,-0.412919332,-0.381513248,1,0,0,1.025,Obsidian_rect,4,0,4,0,1,
663ad56043fe3dec6ceffacd,TCN,2024-06-25_09h41.42.397,LearnStrategy,2023.2.3,Win32,59.88023952,3,2,6,,,,,,,,1,02,,,,,,,,,,,3,1.459,0,,,,,,0.114561028,-0.259457574,1,0,0,1.4592,Diorite_rect,5,0,5,0,1,
663ad56043fe3dec6ceffacd,TCN,2024-06-25_09h41.42.397,LearnStrategy,2023.2.3,Win32,59.88023952,3,2,7,,,,,,,,8,13,,,,,,,,,,,8,1.155,1,,,,,,0.337259101,-0.385082106,1,0,0,1.1547,Pumice_rect,6,0,6,0,1,
663ad56043fe3dec6ceffacd,TCN,2024-06-25_09h41.42.397,LearnStrategy,2023.2.3,Win32,59.88023952,3,2,8,,,,,,,,5,08,,,,,,,,,,,5,1.027,1,,,,,,-0.400785132,-0.395788744,1,0,0,1.0272,Obsidian_rect,7,0,7,0,1,
663ad56043fe3dec6ceffacd,TCN,2024-06-25_09h41.42.397,LearnStrategy,2023.2.3,Win32,59.88023952,3,2,9,,,,,,,,7,14,,,,,,,,,,,1,6.784,0,,,,,,-0.360813704,-0.245182013,1,0,0,6.7841,Andesite_rect,8,0,8,0,1,
663ad56043fe3dec6ceffacd,TCN,2024-06-25_09h41.42.397,LearnStrategy,2023.2.3,Win32,59.88023952,3,2,10,,,,,,,,2,12,,,,,,,,,,,1,4.717,0,,,,,,-0.362955032,-0.24732334,1,0,0,4.717,Andesite_rect,9,0,9,0,1,
663ad56043fe3dec6ceffacd,TCN,2024-06-25_09h41.42.397,LearnStrategy,2023.2.3,Win32,59.88023952,3,2,11,,,,,,,,6,16,,,,,,,,,,,6,1.251,1,,,,,,-0.082441113,-0.400785197,1,0,0,1.2508,Pegmatite_rect,10,0,10,0,1,
663ad56043fe3dec6ceffacd,TCN,2024-06-25_09h41.42.397,LearnStrategy,2023.2.3,Win32,59.88023952,3,2,12,,,,,,,,6,10,,,,,,,,,,,1,6.745,0,,,,,,-0.322269807,-0.244468281,1,0,0,6.7447,Andesite_rect,11,0,11,0,1,
663ad56043fe3dec6ceffacd,TCN,2024-06-25_09h41.42.397,LearnStrategy,2023.2.3,Win32,59.88023952,3,2,13,,,,,,,,4,15,,,,,,,,,,,4,4.948,1,,,,,,0.453604655,-0.243754483,1,0,0,4.9481,Gabbro_rect,12,0,12,0,1,
663ad56043fe3dec6ceffacd,TCN,2024-06-25_09h41.42.397,LearnStrategy,2023.2.3,Win32,59.88023952,3,2,14,,,,,,,,8,10,,,,,,,,,,,8,2.115,1,,,,,,0.427908724,-0.41006424,1,0,0,2.1152,Pumice_rect,13,0,13,0,1,
663ad56043fe3dec6ceffacd,TCN,2024-06-25_09h41.42.397,LearnStrategy,2023.2.3,Win32,59.88023952,3,2,15,,,,,,,,3,07,,,,,,,,,,,6,1.423,0,,,,,,-0.097430407,-0.410778037,1,0,0,1.4227,Pegmatite_rect,14,0,14,0,1,
663ad56043fe3dec6ceffacd,TCN,2024-06-25_09h41.42.397,LearnStrategy,2023.2.3,Win32,59.88023952,3,2,16,,,,,,,,7,04,,,,,,,,,,,1,18.34,0,,,,,,-0.327979992,-0.244468281,1,0,0,18.3403,Andesite_rect,15,0,15,0,1,
663ad56043fe3dec6ceffacd,TCN,2024-06-25_09h41.42.397,LearnStrategy,2023.2.3,Win32,59.88023952,4,1,1,0.01962888,0.018201285,1,0,0,1.148,rock_grid_rect_2,6,07,-1,-1,1.148,-0.138115632,-0.415060693,1,0,0,1.9842,Pegmatite_rect,6,1.984,1,0,0,0,0,1,,,,,,,,,,,,,
663ad56043fe3dec6ceffacd,TCN,2024-06-25_09h41.42.397,LearnStrategy,2023.2.3,Win32,59.88023952,4,1,2,0.001784461,0.014632395,1,0,0,0.6819,rock_grid_rect_2,7,05,-1,-1,0.682,0.120271278,-0.385082106,1,0,0,3.3423,Peridotite_rect,7,3.342,1,1,0,1,0,1,,,,,,,,,,,,,
663ad56043fe3dec6ceffacd,TCN,2024-06-25_09h41.42.397,LearnStrategy,2023.2.3,Win32,59.88023952,4,1,3,0.078158458,-0.008922209,1,0,0,0.7979,rock_grid_rect_2,3,06,-1,-1,0.798,0.096002877,-0.233761642,1,0,0,1.5189,Diorite_rect,3,1.519,1,2,0,2,0,1,,,,,,,,,,,,,
663ad56043fe3dec6ceffacd,TCN,2024-06-25_09h41.42.397,LearnStrategy,2023.2.3,Win32,59.88023952,4,1,4,0.06459676,-0.002498226,1,0,0,0.9776,rock_grid_rect_2,5,04,-1,-1,0.978,-0.367951452,-0.406495382,1,0,0,1.1015,Obsidian_rect,5,1.101,1,3,0,3,0,1,,,,,,,,,,,,,
663ad56043fe3dec6ceffacd,TCN,2024-06-25_09h41.42.397,LearnStrategy,2023.2.3,Win32,59.88023952,4,1,5,-0.049607401,0.021056377,1,0,0,0.5658,rock_grid_rect_2,5,05,-1,-1,0.566,-0.42005708,-0.41006424,1,0,0,1.2586,Obsidian_rect,5,1.259,1,4,0,4,0,1,,,,,,,,,,,,,
663ad56043fe3dec6ceffacd,TCN,2024-06-25_09h41.42.397,LearnStrategy,2023.2.3,Win32,59.88023952,4,1,6,0.034618173,0.013204832,1,0,0,0.6647,rock_grid_rect_2,2,06,-1,-1,0.665,-0.125267666,-0.23875803,1,0,0,1.2594,Basalt_rect,2,1.259,1,5,0,5,0,1,,,,,,,,,,,,,
663ad56043fe3dec6ceffacd,TCN,2024-06-25_09h41.42.397,LearnStrategy,2023.2.3,Win32,59.88023952,4,1,7,-0.01534616,0.005353319,1,0,0,0.5817,rock_grid_rect_2,8,09,-1,-1,0.582,0.425053533,-0.403640257,1,0,0,1.2767,Pumice_rect,8,1.277,1,6,0,6,0,1,,,,,,,,,,,,,
663ad56043fe3dec6ceffacd,TCN,2024-06-25_09h41.42.397,LearnStrategy,2023.2.3,Win32,59.88023952,4,1,8,-0.081727316,0.024625268,1,0,0,0.5816,rock_grid_rect_2,3,15,-1,-1,0.582,0.06602429,-0.242326953,1,0,0,1.9252,Diorite_rect,3,1.925,1,7,0,7,0,1,,,,,,,,,,,,,
663ad56043fe3dec6ceffacd,TCN,2024-06-25_09h41.42.397,LearnStrategy,2023.2.3,Win32,59.88023952,4,1,9,-0.004639521,0.009635974,1,0,0,0.5815,rock_grid_rect_2,4,01,-1,-1,0.582,0.388650964,-0.243754483,1,0,0,3.8929,Gabbro_rect,4,3.893,1,8,0,8,0,1,,,,,,,,,,,,,
663ad56043fe3dec6ceffacd,TCN,2024-06-25_09h41.42.397,LearnStrategy,2023.2.3,Win32,59.88023952,4,1,10,0.078158458,-0.006780882,1,0,0,1.0982,rock_grid_rect_2,1,09,-1,-1,1.098,0.396502542,-0.243040685,1,0,0,1.5918,Gabbro_rect,4,1.592,0,9,0,9,0,1,,,,,,,,,,,,,
663ad56043fe3dec6ceffacd,TCN,2024-06-25_09h41.42.397,LearnStrategy,2023.2.3,Win32,59.88023952,4,1,11,0.031049251,0.001070664,1,0,0,0.6145,rock_grid_rect_2,2,16,-1,-1,0.614,-0.11384723,-0.245182013,1,0,0,0.9575,Basalt_rect,2,0.957,1,10,0,10,0,1,,,,,,,,,,,,,
663ad56043fe3dec6ceffacd,TCN,2024-06-25_09h41.42.397,LearnStrategy,2023.2.3,Win32,59.88023952,4,1,12,0.038187031,-0.01391863,1,0,0,0.7149,rock_grid_rect_2,6,08,-1,-1,0.715,-0.168094218,-0.409350508,1,0,0,1.1754,Pegmatite_rect,6,1.175,1,11,0,11,0,1,,,,,,,,,,,,,
663ad56043fe3dec6ceffacd,TCN,2024-06-25_09h41.42.397,LearnStrategy,2023.2.3,Win32,59.88023952,4,1,13,-0.021056345,0.024625268,1,0,0,0.6309,rock_grid_rect_2,1,01,-1,-1,0.631,0.425053533,-0.244468281,1,0,0,3.5089,Gabbro_rect,4,3.509,0,12,0,12,0,1,,,,,,,,,,,,,
663ad56043fe3dec6ceffacd,TCN,2024-06-25_09h41.42.397,LearnStrategy,2023.2.3,Win32,59.88023952,4,1,14,0.132405446,0.006067084,1,0,0,0.8485,rock_grid_rect_2,4,16,-1,-1,0.849,-0.096716609,-0.269450414,1,0,0,1.4101,Basalt_rect,2,1.41,0,13,0,13,0,1,,,,,,,,,,,,,
663ad56043fe3dec6ceffacd,TCN,2024-06-25_09h41.42.397,LearnStrategy,2023.2.3,Win32,59.88023952,4,1,15,0.004639587,-0.023197738,1,0,0,0.7481,rock_grid_rect_2,8,15,-1,-1,0.748,0.355817317,-0.397930072,1,0,0,1.2088,Pumice_rect,8,1.209,1,14,0,14,0,1,,,,,,,,,,,,,
663ad56043fe3dec6ceffacd,TCN,2024-06-25_09h41.42.397,LearnStrategy,2023.2.3,Win32,59.88023952,4,1,16,0.003211991,-0.010349772,1,0,0,0.8148,rock_grid_rect_2,7,08,-1,-1,0.815,0.10099933,-0.395788744,1,0,0,1.9096,Peridotite_rect,7,1.91,1,15,0,15,0,1,,,,,,,,,,,,,
663ad56043fe3dec6ceffacd,TCN,2024-06-25_09h41.42.397,LearnStrategy,2023.2.3,Win32,59.88023952,4,2,1,,,,,,,,1,05,,,,,,,,,,,1,9.45,1,,,,,,-0.357958579,-0.230192719,1,0,0,9.4504,Andesite_rect,0,0,0,0,1,
663ad56043fe3dec6ceffacd,TCN,2024-06-25_09h41.42.397,LearnStrategy,2023.2.3,Win32,59.88023952,4,2,2,,,,,,,,7,16,,,,,,,,,,,7,2.153,1,,,,,,0.10385439,-0.400071399,1,0,0,2.1529,Peridotite_rect,1,0,1,0,1,
663ad56043fe3dec6ceffacd,TCN,2024-06-25_09h41.42.397,LearnStrategy,2023.2.3,Win32,59.88023952,4,2,3,,,,,,,,5,11,,,,,,,,,,,5,1.001,1,,,,,,-0.36652389,-0.420057146,1,0,0,1.0009,Obsidian_rect,2,0,2,0,1,
663ad56043fe3dec6ceffacd,TCN,2024-06-25_09h41.42.397,LearnStrategy,2023.2.3,Win32,59.88023952,4,2,4,,,,,,,,6,16,,,,,,,,,,,6,1.725,1,,,,,,-0.109564575,-0.395788744,1,0,0,1.7247,Pegmatite_rect,3,0,3,0,1,
663ad56043fe3dec6ceffacd,TCN,2024-06-25_09h41.42.397,LearnStrategy,2023.2.3,Win32,59.88023952,4,2,5,,,,,,,,5,12,,,,,,,,,,,5,0.925,1,,,,,,-0.296573876,-0.379371921,1,0,0,0.9251,Obsidian_rect,4,0,4,0,1,
663ad56043fe3dec6ceffacd,TCN,2024-06-25_09h41.42.397,LearnStrategy,2023.2.3,Win32,59.88023952,4,2,6,,,,,,,,8,13,,,,,,,,,,,8,0.787,1,,,,,,0.350820929,-0.385795904,1,0,0,0.7871,Pumice_rect,5,0,5,0,1,
663ad56043fe3dec6ceffacd,TCN,2024-06-25_09h41.42.397,LearnStrategy,2023.2.3,Win32,59.88023952,4,2,7,,,,,,,,3,10,,,,,,,,,,,3,3.395,1,,,,,,0.208065711,-0.251605996,1,0,0,3.395,Diorite_rect,6,0,6,0,1,
663ad56043fe3dec6ceffacd,TCN,2024-06-25_09h41.42.397,LearnStrategy,2023.2.3,Win32,59.88023952,4,2,8,,,,,,,,2,04,,,,,,,,,,,2,1.101,1,,,,,,-0.091006424,-0.260171306,1,0,0,1.1009,Basalt_rect,7,0,7,0,1,
663ad56043fe3dec6ceffacd,TCN,2024-06-25_09h41.42.397,LearnStrategy,2023.2.3,Win32,59.88023952,4,2,9,,,,,,,,4,11,,,,,,,,,,,4,3.125,1,,,,,,0.358672377,-0.261598902,1,0,0,3.1246,Gabbro_rect,8,0,8,0,1,
663ad56043fe3dec6ceffacd,TCN,2024-06-25_09h41.42.397,LearnStrategy,2023.2.3,Win32,59.88023952,4,2,10,,,,,,,,8,05,,,,,,,,,,,8,1.151,1,,,,,,0.345110679,-0.393647417,1,0,0,1.1506,Pumice_rect,9,0,9,0,1,
663ad56043fe3dec6ceffacd,TCN,2024-06-25_09h41.42.397,LearnStrategy,2023.2.3,Win32,59.88023952,4,2,11,,,,,,,,3,09,,,,,,,,,,,3,1.553,1,,,,,,0.132405446,-0.258029979,1,0,0,1.5526,Diorite_rect,10,0,10,0,1,
663ad56043fe3dec6ceffacd,TCN,2024-06-25_09h41.42.397,LearnStrategy,2023.2.3,Win32,59.88023952,4,2,12,,,,,,,,2,12,,,,,,,,,,,4,5.157,0,,,,,,0.315845824,-0.253747323,1,0,0,5.1569,Gabbro_rect,11,0,11,0,1,
663ad56043fe3dec6ceffacd,TCN,2024-06-25_09h41.42.397,LearnStrategy,2023.2.3,Win32,59.88023952,4,2,13,,,,,,,,6,13,,,,,,,,,,,6,1.089,1,,,,,,-0.118843683,-0.404354055,1,0,0,1.0893,Pegmatite_rect,12,0,12,0,1,
663ad56043fe3dec6ceffacd,TCN,2024-06-25_09h41.42.397,LearnStrategy,2023.2.3,Win32,59.88023952,4,2,14,,,,,,,,7,10,,,,,,,,,,,7,0.89,1,,,,,,0.054603854,-0.40863671,1,0,0,0.8903,Peridotite_rect,13,0,13,0,1,
663ad56043fe3dec6ceffacd,TCN,2024-06-25_09h41.42.397,LearnStrategy,2023.2.3,Win32,59.88023952,4,2,15,,,,,,,,4,12,,,,,,,,,,,4,3.758,1,,,,,,0.36509636,-0.253747323,1,0,0,3.758,Gabbro_rect,14,0,14,0,1,
663ad56043fe3dec6ceffacd,TCN,2024-06-25_09h41.42.397,LearnStrategy,2023.2.3,Win32,59.88023952,4,2,16,,,,,,,,1,06,,,,,,,,,,,1,5.028,1,,,,,,-0.336545303,-0.259457574,1,0,0,5.0277,Andesite_rect,15,0,15,0,1,
663ad56043fe3dec6ceffacd,TCN,2024-06-25_09h41.42.397,LearnStrategy,2023.2.3,Win32,59.88023952,5,1,1,0.051034997,-0.013204865,1,0,0,1.5676,rock_grid_rect_2,3,02,-1,-1,1.568,0.175945797,-0.246609608,1,0,0,1.6719,Diorite_rect,3,1.672,1,0,0,0,0,1,,,,,,,,,,,,,
663ad56043fe3dec6ceffacd,TCN,2024-06-25_09h41.42.397,LearnStrategy,2023.2.3,Win32,59.88023952,5,1,2,0.096716675,0.012491067,1,0,0,0.8375,rock_grid_rect_2,6,11,-1,-1,0.837,-0.11527476,-0.402212727,1,0,0,1.1373,Pegmatite_rect,6,1.137,1,1,0,1,0,1,,,,,,,,,,,,,
663ad56043fe3dec6ceffacd,TCN,2024-06-25_09h41.42.397,LearnStrategy,2023.2.3,Win32,59.88023952,5,1,3,0.107423313,0.003211991,1,0,0,0.6707,rock_grid_rect_2,4,14,-1,-1,0.671,0.360813704,-0.242326953,1,0,0,2.5536,Gabbro_rect,4,2.554,1,2,0,2,0,1,,,,,,,,,,,,,
663ad56043fe3dec6ceffacd,TCN,2024-06-25_09h41.42.397,LearnStrategy,2023.2.3,Win32,59.88023952,5,1,4,0.052462527,-0.01391863,1,0,0,0.5641,rock_grid_rect_2,7,02,-1,-1,0.564,0.088151364,-0.379371921,1,0,0,1.134,Peridotite_rect,7,1.134,1,3,0,3,0,1,,,,,,,,,,,,,
663ad56043fe3dec6ceffacd,TCN,2024-06-25_09h41.42.397,LearnStrategy,2023.2.3,Win32,59.88023952,5,1,5,0.047466139,-0.015346192,1,0,0,0.6707,rock_grid_rect_2,2,08,-1,-1,0.671,-0.093147752,-0.248037138,1,0,0,1.0168,Basalt_rect,2,1.017,1,4,0,4,0,1,,,,,,,,,,,,,
663ad56043fe3dec6ceffacd,TCN,2024-06-25_09h41.42.397,LearnStrategy,2023.2.3,Win32,59.88023952,5,1,6,0.081727381,-0.023911503,1,0,0,0.5816,rock_grid_rect_2,5,10,-1,-1,0.582,-0.405067787,-0.387937231,1,0,0,1.0299,Obsidian_rect,5,1.03,1,5,0,5,0,1,,,,,,,,,,,,,
663ad56043fe3dec6ceffacd,TCN,2024-06-25_09h41.42.397,LearnStrategy,2023.2.3,Win32,59.88023952,5,1,7,0.056745182,-0.010349772,1,0,0,0.664,rock_grid_rect_2,8,06,-1,-1,0.664,0.453604655,-0.395074946,1,0,0,1.3759,Pumice_rect,8,1.376,1,6,0,6,0,1,,,,,,,,,,,,,
663ad56043fe3dec6ceffacd,TCN,2024-06-25_09h41.42.397,LearnStrategy,2023.2.3,Win32,59.88023952,5,1,8,0.043897216,-0.016773755,1,0,0,0.5651,rock_grid_rect_2,7,15,-1,-1,0.565,0.052462527,-0.394361214,1,0,0,1.0796,Peridotite_rect,7,1.08,1,7,0,7,0,1,,,,,,,,,,,,,
663ad56043fe3dec6ceffacd,TCN,2024-06-25_09h41.42.397,LearnStrategy,2023.2.3,Win32,59.88023952,5,1,9,0.026766595,0.016773722,1,0,0,0.6336,rock_grid_rect_2,8,03,-1,-1,0.634,0.430763784,-0.387937231,1,0,0,1.0633,Pumice_rect,8,1.063,1,8,0,8,0,1,,,,,,,,,,,,,
663ad56043fe3dec6ceffacd,TCN,2024-06-25_09h41.42.397,LearnStrategy,2023.2.3,Win32,59.88023952,5,1,10,0.049607467,0.001784429,1,0,0,0.5488,rock_grid_rect_2,1,07,-1,-1,0.549,0.080299786,-0.231620315,1,0,0,3.1596,Diorite_rect,3,3.16,0,9,0,9,0,1,,,,,,,,,,,,,
663ad56043fe3dec6ceffacd,TCN,2024-06-25_09h41.42.397,LearnStrategy,2023.2.3,Win32,59.88023952,5,1,11,0.081727381,-0.014632427,1,0,0,0.8179,rock_grid_rect_2,6,03,-1,-1,0.818,-0.117416088,-0.394361214,1,0,0,2.32,Pegmatite_rect,6,2.32,1,10,0,10,0,1,,,,,,,,,,,,,
663ad56043fe3dec6ceffacd,TCN,2024-06-25_09h41.42.397,LearnStrategy,2023.2.3,Win32,59.88023952,5,1,12,0.092434019,-0.01748752,1,0,0,0.6641,rock_grid_rect_2,5,16,-1,-1,0.664,-0.345110613,-0.390792291,1,0,0,1.0861,Obsidian_rect,5,1.086,1,11,0,11,0,1,,,,,,,,,,,,,
663ad56043fe3dec6ceffacd,TCN,2024-06-25_09h41.42.397,LearnStrategy,2023.2.3,Win32,59.88023952,5,1,13,0.080299786,-0.0124911,1,0,0,0.7206,rock_grid_rect_2,2,02,-1,-1,0.721,-0.083154846,-0.264453961,1,0,0,0.9514,Basalt_rect,2,0.951,1,12,0,12,0,1,,,,,,,,,,,,,
663ad56043fe3dec6ceffacd,TCN,2024-06-25_09h41.42.397,LearnStrategy,2023.2.3,Win32,59.88023952,5,1,14,0.086010036,-0.011063537,1,0,0,1.101,rock_grid_rect_2,4,08,-1,-1,1.101,0.375089266,-0.260171306,1,0,0,6.2034,Gabbro_rect,4,6.203,1,13,0,13,0,1,,,,,,,,,,,,,
663ad56043fe3dec6ceffacd,TCN,2024-06-25_09h41.42.397,LearnStrategy,2023.2.3,Win32,59.88023952,5,1,15,0.058172777,-0.005353319,1,0,0,1.1975,rock_grid_rect_2,3,12,-1,-1,1.198,0.131691649,-0.244468281,1,0,0,1.88,Diorite_rect,3,1.88,1,14,0,14,0,1,,,,,,,,,,,,,
663ad56043fe3dec6ceffacd,TCN,2024-06-25_09h41.42.397,LearnStrategy,2023.2.3,Win32,59.88023952,5,1,16,0.072448273,0.010349739,1,0,0,0.9484,rock_grid_rect_2,1,16,-1,-1,0.948,-0.390078494,-0.228051392,1,0,0,2.3762,Andesite_rect,1,2.376,1,15,0,15,0,1,,,,,,,,,,,,,
663ad56043fe3dec6ceffacd,TCN,2024-06-25_09h41.42.397,LearnStrategy,2023.2.3,Win32,59.88023952,5,2,1,,,,,,,,2,09,,,,,,,,,,,2,0.909,1,,,,,,-0.078158458,-0.257316246,1,0,0,0.909,Basalt_rect,0,0,0,0,1,
663ad56043fe3dec6ceffacd,TCN,2024-06-25_09h41.42.397,LearnStrategy,2023.2.3,Win32,59.88023952,5,2,2,,,,,,,,4,05,,,,,,,,,,,4,5.975,1,,,,,,0.41291943,-0.254461121,1,0,0,5.9751,Gabbro_rect,1,0,1,0,1,
663ad56043fe3dec6ceffacd,TCN,2024-06-25_09h41.42.397,LearnStrategy,2023.2.3,Win32,59.88023952,5,2,3,,,,,,,,1,11,,,,,,,,,,,1,5.984,1,,,,,,-0.306566716,-0.258029979,1,0,0,5.984,Andesite_rect,2,0,2,0,1,
663ad56043fe3dec6ceffacd,TCN,2024-06-25_09h41.42.397,LearnStrategy,2023.2.3,Win32,59.88023952,5,2,4,,,,,,,,4,15,,,,,,,,,,,1,5.649,0,,,,,,-0.352248394,-0.243754483,1,0,0,5.6495,Andesite_rect,3,0,3,0,1,
663ad56043fe3dec6ceffacd,TCN,2024-06-25_09h41.42.397,LearnStrategy,2023.2.3,Win32,59.88023952,5,2,5,,,,,,,,6,10,,,,,,,,,,,6,9.135,1,,,,,,-0.109564575,-0.397930072,1,0,0,9.1346,Pegmatite_rect,4,0,4,0,1,
663ad56043fe3dec6ceffacd,TCN,2024-06-25_09h41.42.397,LearnStrategy,2023.2.3,Win32,59.88023952,5,2,6,,,,,,,,8,02,,,,,,,,,,,8,1.45,1,,,,,,0.420770878,-0.41006424,1,0,0,1.4496,Pumice_rect,5,0,5,0,1,
663ad56043fe3dec6ceffacd,TCN,2024-06-25_09h41.42.397,LearnStrategy,2023.2.3,Win32,59.88023952,5,2,7,,,,,,,,6,15,,,,,,,,,,,6,1.326,1,,,,,,-0.051748729,-0.391506089,1,0,0,1.3259,Pegmatite_rect,6,0,6,0,1,
663ad56043fe3dec6ceffacd,TCN,2024-06-25_09h41.42.397,LearnStrategy,2023.2.3,Win32,59.88023952,5,2,8,,,,,,,,3,08,,,,,,,,,,,3,1.106,1,,,,,,0.193076418,-0.268022884,1,0,0,1.1058,Diorite_rect,7,0,7,0,1,
663ad56043fe3dec6ceffacd,TCN,2024-06-25_09h41.42.397,LearnStrategy,2023.2.3,Win32,59.88023952,5,2,9,,,,,,,,2,14,,,,,,,,,,,4,2.524,0,,,,,,0.343683084,-0.255174919,1,0,0,2.5237,Gabbro_rect,8,0,8,0,1,
663ad56043fe3dec6ceffacd,TCN,2024-06-25_09h41.42.397,LearnStrategy,2023.2.3,Win32,59.88023952,5,2,10,,,,,,,,8,16,,,,,,,,,,,8,1.919,1,,,,,,0.37366167,-0.405781585,1,0,0,1.9192,Pumice_rect,9,0,9,0,1,
663ad56043fe3dec6ceffacd,TCN,2024-06-25_09h41.42.397,LearnStrategy,2023.2.3,Win32,59.88023952,5,2,11,,,,,,,,7,04,,,,,,,,,,,7,12.975,1,,,,,,0.107423313,-0.41577449,1,0,0,12.9753,Peridotite_rect,10,0,10,0,1,
663ad56043fe3dec6ceffacd,TCN,2024-06-25_09h41.42.397,LearnStrategy,2023.2.3,Win32,59.88023952,5,2,12,,,,,,,,1,03,,,,,,,,,,,1,4.667,1,,,,,,-0.384368308,-0.254461121,1,0,0,4.667,Andesite_rect,11,0,11,0,1,
663ad56043fe3dec6ceffacd,TCN,2024-06-25_09h41.42.397,LearnStrategy,2023.2.3,Win32,59.88023952,5,2,13,,,,,,,,5,02,,,,,,,,,,,5,1.084,1,,,,,,-0.367237687,-0.394361214,1,0,0,1.084,Obsidian_rect,12,0,12,0,1,
663ad56043fe3dec6ceffacd,TCN,2024-06-25_09h41.42.397,LearnStrategy,2023.2.3,Win32,59.88023952,5,2,14,,,,,,,,5,09,,,,,,,,,,,5,0.725,1,,,,,,-0.36509636,-0.387937231,1,0,0,0.7248,Obsidian_rect,13,0,13,0,1,
663ad56043fe3dec6ceffacd,TCN,2024-06-25_09h41.42.397,LearnStrategy,2023.2.3,Win32,59.88023952,5,2,15,,,,,,,,3,16,,,,,,,,,,,3,1.325,1,,,,,,0.080299786,-0.255888651,1,0,0,1.3247,Diorite_rect,14,0,14,0,1,
663ad56043fe3dec6ceffacd,TCN,2024-06-25_09h41.42.397,LearnStrategy,2023.2.3,Win32,59.88023952,5,2,16,,,,,,,,7,14,,,,,,,,,,,4,5.676,0,,,,,,0.345110679,-0.242326953,1,0,0,5.6758,Gabbro_rect,15,0,15,0,1,
663ad56043fe3dec6ceffacd,TCN,2024-06-25_09h41.42.397,LearnStrategy,2023.2.3,Win32,59.88023952,6,1,1,0.030335518,0.018201285,1,0,0,23.4802,rock_grid_rect_2,1,04,-1,-1,23.48,-0.347251941,-0.260171306,1,0,0,8.8759,Andesite_rect,1,8.876,1,0,0,0,0,1,,,,,,,,,,,,,
663ad56043fe3dec6ceffacd,TCN,2024-06-25_09h41.42.397,LearnStrategy,2023.2.3,Win32,59.88023952,6,1,2,0.042469686,0.002498194,1,0,0,1.0324,rock_grid_rect_2,4,03,-1,-1,1.032,0.137401899,-0.236616702,1,0,0,24.7583,Diorite_rect,3,24.758,0,1,0,1,0,1,,,,,,,,,,,,,
663ad56043fe3dec6ceffacd,TCN,2024-06-25_09h41.42.397,LearnStrategy,2023.2.3,Win32,59.88023952,6,1,3,0.078158458,-0.003211991,1,0,0,0.8149,rock_grid_rect_2,1,10,-1,-1,0.815,0.397216274,-0.270877944,1,0,0,4.0918,Gabbro_rect,4,4.092,0,2,0,2,0,1,,,,,,,,,,,,,
663ad56043fe3dec6ceffacd,TCN,2024-06-25_09h41.42.397,LearnStrategy,2023.2.3,Win32,59.88023952,6,1,4,0.046752342,0.014632395,1,0,0,0.8812,rock_grid_rect_2,8,08,-1,-1,0.881,0.420770878,-0.409350508,1,0,0,1.1592,Pumice_rect,8,1.159,1,3,0,3,0,1,,,,,,,,,,,,,
663ad56043fe3dec6ceffacd,TCN,2024-06-25_09h41.42.397,LearnStrategy,2023.2.3,Win32,59.88023952,6,1,5,0.034618173,0.001784429,1,0,0,0.7815,rock_grid_rect_2,7,13,-1,-1,0.781,0.070306945,-0.416488223,1,0,0,1.0014,Peridotite_rect,7,1.001,1,4,0,4,0,1,,,,,,,,,,,,,
663ad56043fe3dec6ceffacd,TCN,2024-06-25_09h41.42.397,LearnStrategy,2023.2.3,Win32,59.88023952,6,1,6,0.078872256,-0.008922209,1,0,0,0.6697,rock_grid_rect_2,2,10,-1,-1,0.67,-0.138115632,-0.255174919,1,0,0,0.9868,Basalt_rect,2,0.987,1,5,0,5,0,1,,,,,,,,,,,,,
663ad56043fe3dec6ceffacd,TCN,2024-06-25_09h41.42.397,LearnStrategy,2023.2.3,Win32,59.88023952,6,1,7,0.014632427,0.009635974,1,0,0,0.6821,rock_grid_rect_2,2,01,-1,-1,0.682,-0.091720156,-0.261598902,1,0,0,1.7266,Basalt_rect,2,1.727,1,6,0,6,0,1,,,,,,,,,,,,,
663ad56043fe3dec6ceffacd,TCN,2024-06-25_09h41.42.397,LearnStrategy,2023.2.3,Win32,59.88023952,6,1,8,0.037473233,-0.006780882,1,0,0,0.9489,rock_grid_rect_2,5,14,-1,-1,0.949,-0.358672377,-0.399357602,1,0,0,1.5887,Obsidian_rect,5,1.589,1,7,0,7,0,1,,,,,,,,,,,,,
663ad56043fe3dec6ceffacd,TCN,2024-06-25_09h41.42.397,LearnStrategy,2023.2.3,Win32,59.88023952,6,1,9,0.004639587,0.011063504,1,0,0,0.5704,rock_grid_rect_2,6,05,-1,-1,0.57,-0.123840071,-0.406495382,1,0,0,2.3479,Pegmatite_rect,6,2.348,1,8,0,8,0,1,,,,,,,,,,,,,
663ad56043fe3dec6ceffacd,TCN,2024-06-25_09h41.42.397,LearnStrategy,2023.2.3,Win32,59.88023952,6,1,10,0.002498259,0.003211991,1,0,0,0.6703,rock_grid_rect_2,5,06,-1,-1,0.67,-0.372947873,-0.388650964,1,0,0,1.7203,Obsidian_rect,5,1.72,1,9,0,9,0,1,,,,,,,,,,,,,
663ad56043fe3dec6ceffacd,TCN,2024-06-25_09h41.42.397,LearnStrategy,2023.2.3,Win32,59.88023952,6,1,11,0.031763048,0.01534616,1,0,0,0.6816,rock_grid_rect_2,3,14,-1,-1,0.682,0.170235546,-0.254461121,1,0,0,1.0085,Diorite_rect,3,1.009,1,10,0,10,0,1,,,,,,,,,,,,,
663ad56043fe3dec6ceffacd,TCN,2024-06-25_09h41.42.397,LearnStrategy,2023.2.3,Win32,59.88023952,6,1,12,-0.051034931,-0.016773755,1,0,0,0.6478,rock_grid_rect_2,4,13,-1,-1,0.648,0.40435412,-0.234475375,1,0,0,1.6855,Gabbro_rect,4,1.686,1,11,0,11,0,1,,,,,,,,,,,,,
663ad56043fe3dec6ceffacd,TCN,2024-06-25_09h41.42.397,LearnStrategy,2023.2.3,Win32,59.88023952,6,1,13,0.024625268,-0.008922209,1,0,0,0.7702,rock_grid_rect_2,8,04,-1,-1,0.77,0.41862955,-0.41006424,1,0,0,1.0622,Pumice_rect,8,1.062,1,12,0,12,0,1,,,,,,,,,,,,,
663ad56043fe3dec6ceffacd,TCN,2024-06-25_09h41.42.397,LearnStrategy,2023.2.3,Win32,59.88023952,6,1,14,0.051034997,0.013204832,1,0,0,0.5853,rock_grid_rect_2,6,09,-1,-1,0.585,-0.086723769,-0.400071399,1,0,0,4.1473,Pegmatite_rect,6,4.147,1,13,0,13,0,1,,,,,,,,,,,,,
663ad56043fe3dec6ceffacd,TCN,2024-06-25_09h41.42.397,LearnStrategy,2023.2.3,Win32,59.88023952,6,1,15,0.021770208,0.004639521,1,0,0,0.8212,rock_grid_rect_2,7,06,-1,-1,0.821,0.10242686,-0.413633163,1,0,0,4.1354,Peridotite_rect,7,4.135,1,14,0,14,0,1,,,,,,,,,,,,,
663ad56043fe3dec6ceffacd,TCN,2024-06-25_09h41.42.397,LearnStrategy,2023.2.3,Win32,59.88023952,6,1,16,0.048893669,0.01534616,1,0,0,0.6315,rock_grid_rect_2,3,11,-1,-1,0.632,0.150249865,-0.243040685,1,0,0,1.2593,Diorite_rect,3,1.259,1,15,0,15,0,1,,,,,,,,,,,,,
663ad56043fe3dec6ceffacd,TCN,2024-06-25_09h41.42.397,LearnStrategy,2023.2.3,Win32,59.88023952,6,2,1,,,,,,,,1,02,,,,,,,,,,,1,2.109,1,,,,,,-0.400785132,-0.230906517,1,0,0,2.1087,Andesite_rect,0,0,0,0,1,
663ad56043fe3dec6ceffacd,TCN,2024-06-25_09h41.42.397,LearnStrategy,2023.2.3,Win32,59.88023952,6,2,2,,,,,,,,6,12,,,,,,,,,,,6,1.925,1,,,,,,-0.10670945,-0.380085653,1,0,0,1.9247,Pegmatite_rect,1,0,1,0,1,
663ad56043fe3dec6ceffacd,TCN,2024-06-25_09h41.42.397,LearnStrategy,2023.2.3,Win32,59.88023952,6,2,3,,,,,,,,3,13,,,,,,,,,,,3,1.333,1,,,,,,0.099571734,-0.257316246,1,0,0,1.3332,Diorite_rect,2,0,2,0,1,
663ad56043fe3dec6ceffacd,TCN,2024-06-25_09h41.42.397,LearnStrategy,2023.2.3,Win32,59.88023952,6,2,4,,,,,,,,7,12,,,,,,,,,,,3,7.293,0,,,,,,0.115988623,-0.23590297,1,0,0,7.2933,Diorite_rect,3,0,3,0,1,
663ad56043fe3dec6ceffacd,TCN,2024-06-25_09h41.42.397,LearnStrategy,2023.2.3,Win32,59.88023952,6,2,5,,,,,,,,4,09,,,,,,,,,,,4,8.184,1,,,,,,0.460028638,-0.246609608,1,0,0,8.184,Gabbro_rect,4,0,4,0,1,
663ad56043fe3dec6ceffacd,TCN,2024-06-25_09h41.42.397,LearnStrategy,2023.2.3,Win32,59.88023952,6,2,6,,,,,,,,2,05,,,,,,,,,,,2,0.983,1,,,,,,-0.104568122,-0.271591742,1,0,0,0.9826,Basalt_rect,5,0,5,0,1,
663ad56043fe3dec6ceffacd,TCN,2024-06-25_09h41.42.397,LearnStrategy,2023.2.3,Win32,59.88023952,6,2,7,,,,,,,,5,07,,,,,,,,,,,5,1.042,1,,,,,,-0.336545303,-0.41577449,1,0,0,1.0418,Obsidian_rect,6,0,6,0,1,
663ad56043fe3dec6ceffacd,TCN,2024-06-25_09h41.42.397,LearnStrategy,2023.2.3,Win32,59.88023952,6,2,8,,,,,,,,1,14,,,,,,,,,,,6,1.325,0,,,,,,-0.185224839,-0.41577449,1,0,0,1.3253,Pegmatite_rect,7,0,7,0,1,
663ad56043fe3dec6ceffacd,TCN,2024-06-25_09h41.42.397,LearnStrategy,2023.2.3,Win32,59.88023952,6,2,9,,,,,,,,4,10,,,,,,,,,,,4,3.334,1,,,,,,0.413633163,-0.258743776,1,0,0,3.3336,Gabbro_rect,8,0,8,0,1,
663ad56043fe3dec6ceffacd,TCN,2024-06-25_09h41.42.397,LearnStrategy,2023.2.3,Win32,59.88023952,6,2,10,,,,,,,,8,10,,,,,,,,,,,8,1.1,1,,,,,,0.375802998,-0.405781585,1,0,0,1.1004,Pumice_rect,9,0,9,0,1,
663ad56043fe3dec6ceffacd,TCN,2024-06-25_09h41.42.397,LearnStrategy,2023.2.3,Win32,59.88023952,6,2,11,,,,,,,,5,08,,,,,,,,,,,5,1.025,1,,,,,,-0.325838665,-0.413633163,1,0,0,1.0248,Obsidian_rect,10,0,10,0,1,
663ad56043fe3dec6ceffacd,TCN,2024-06-25_09h41.42.397,LearnStrategy,2023.2.3,Win32,59.88023952,6,2,12,,,,,,,,2,11,,,,,,,,,,,4,4.856,0,,,,,,0.330121385,-0.258029979,1,0,0,4.8557,Gabbro_rect,11,0,11,0,1,
663ad56043fe3dec6ceffacd,TCN,2024-06-25_09h41.42.397,LearnStrategy,2023.2.3,Win32,59.88023952,6,2,13,,,,,,,,8,14,,,,,,,,,,,8,1.25,1,,,,,,0.409350508,-0.385082106,1,0,0,1.2503,Pumice_rect,12,0,12,0,1,
663ad56043fe3dec6ceffacd,TCN,2024-06-25_09h41.42.397,LearnStrategy,2023.2.3,Win32,59.88023952,6,2,14,,,,,,,,6,06,,,,,,,,,,,6,1.514,1,,,,,,-0.104568122,-0.379371921,1,0,0,1.5137,Pegmatite_rect,13,0,13,0,1,
663ad56043fe3dec6ceffacd,TCN,2024-06-25_09h41.42.397,LearnStrategy,2023.2.3,Win32,59.88023952,6,2,15,,,,,,,,7,07,,,,,,,,,,,7,1.158,1,,,,,,0.074589601,-0.410778037,1,0,0,1.1579,Peridotite_rect,14,0,14,0,1,
663ad56043fe3dec6ceffacd,TCN,2024-06-25_09h41.42.397,LearnStrategy,2023.2.3,Win32,59.88023952,6,2,16,,,,,,,,3,07,,,,,,,,,,,3,0.941,1,,,,,,0.130264119,-0.235189172,1,0,0,0.9414,Diorite_rect,15,0,15,0,1,
663ad56043fe3dec6ceffacd,TCN,2024-06-25_09h41.42.397,LearnStrategy,2023.2.3,Win32,59.88023952,7,1,1,0.031763048,-0.014632427,1,0,0,25.337,rock_grid_rect_2,7,02,-1,-1,25.337,0.139543227,-0.41862955,1,0,0,1.8405,Peridotite_rect,7,1.841,1,0,0,0,0,1,,,,,,,,,,,,,
663ad56043fe3dec6ceffacd,TCN,2024-06-25_09h41.42.397,LearnStrategy,2023.2.3,Win32,59.88023952,7,1,2,0.000356932,-0.013204865,1,0,0,1.0312,rock_grid_rect_2,6,08,-1,-1,1.031,-0.143825817,-0.395074946,1,0,0,3.2753,Pegmatite_rect,6,3.275,1,1,0,1,0,1,,,,,,,,,,,,,
663ad56043fe3dec6ceffacd,TCN,2024-06-25_09h41.42.397,LearnStrategy,2023.2.3,Win32,59.88023952,7,1,3,0.005353319,0.021770142,1,0,0,0.8154,rock_grid_rect_2,5,05,-1,-1,0.815,-0.430049953,-0.414346895,1,0,0,1.6258,Obsidian_rect,5,1.626,1,2,0,2,0,1,,,,,,,,,,,,,
663ad56043fe3dec6ceffacd,TCN,2024-06-25_09h41.42.397,LearnStrategy,2023.2.3,Win32,59.88023952,7,1,4,0.113133498,-0.018201285,1,0,0,0.8539,rock_grid_rect_2,7,13,-1,-1,0.854,0.183083512,-0.383654576,1,0,0,1.2365,Peridotite_rect,7,1.236,1,3,0,3,0,1,,,,,,,,,,,,,
663ad56043fe3dec6ceffacd,TCN,2024-06-25_09h41.42.397,LearnStrategy,2023.2.3,Win32,59.88023952,7,1,5,0.052462527,0.008208412,1,0,0,0.6151,rock_grid_rect_2,5,14,-1,-1,0.615,-0.339400428,-0.380085653,1,0,0,1.6754,Obsidian_rect,5,1.675,1,4,0,4,0,1,,,,,,,,,,,,,
663ad56043fe3dec6ceffacd,TCN,2024-06-25_09h41.42.397,LearnStrategy,2023.2.3,Win32,59.88023952,7,1,6,0.048893669,-0.001784461,1,0,0,0.6645,rock_grid_rect_2,2,16,-1,-1,0.665,-0.07030688,-0.245895811,1,0,0,1.3092,Basalt_rect,2,1.309,1,5,0,5,0,1,,,,,,,,,,,,,
663ad56043fe3dec6ceffacd,TCN,2024-06-25_09h41.42.397,LearnStrategy,2023.2.3,Win32,59.88023952,7,1,7,0.056745182,-0.011777302,1,0,0,0.7808,rock_grid_rect_2,3,12,-1,-1,0.781,0.138829429,-0.234475375,1,0,0,3.8526,Diorite_rect,3,3.853,1,6,0,6,0,1,,,,,,,,,,,,,
663ad56043fe3dec6ceffacd,TCN,2024-06-25_09h41.42.397,LearnStrategy,2023.2.3,Win32,59.88023952,7,1,8,0.041042156,-0.000356899,1,0,0,0.881,rock_grid_rect_2,3,02,-1,-1,0.881,0.081727381,-0.236616702,1,0,0,0.9837,Diorite_rect,3,0.984,1,7,0,7,0,1,,,,,,,,,,,,,
663ad56043fe3dec6ceffacd,TCN,2024-06-25_09h41.42.397,LearnStrategy,2023.2.3,Win32,59.88023952,7,1,9,0.044611014,0.001070664,1,0,0,0.5981,rock_grid_rect_2,4,14,-1,-1,0.598,0.421484741,-0.249464668,1,0,0,2.3595,Gabbro_rect,4,2.36,1,8,0,8,0,1,,,,,,,,,,,,,
663ad56043fe3dec6ceffacd,TCN,2024-06-25_09h41.42.397,LearnStrategy,2023.2.3,Win32,59.88023952,7,1,10,0.043183484,0.011777302,1,0,0,0.6138,rock_grid_rect_2,6,05,-1,-1,0.614,-0.10528192,-0.412919365,1,0,0,1.8399,Pegmatite_rect,6,1.84,1,9,0,9,0,1,,,,,,,,,,,,,
663ad56043fe3dec6ceffacd,TCN,2024-06-25_09h41.42.397,LearnStrategy,2023.2.3,Win32,59.88023952,7,1,11,-0.008208379,-0.02105641,1,0,0,0.6984,rock_grid_rect_2,2,10,-1,-1,0.698,-0.063169165,-0.239471828,1,0,0,0.9351,Basalt_rect,2,0.935,1,10,0,10,0,1,,,,,,,,,,,,,
663ad56043fe3dec6ceffacd,TCN,2024-06-25_09h41.42.397,LearnStrategy,2023.2.3,Win32,59.88023952,7,1,12,0.031049251,0.016773722,1,0,0,0.7038,rock_grid_rect_2,8,15,-1,-1,0.704,0.335117773,-0.389364761,1,0,0,0.9055,Pumice_rect,8,0.906,1,11,0,11,0,1,,,,,,,,,,,,,
663ad56043fe3dec6ceffacd,TCN,2024-06-25_09h41.42.397,LearnStrategy,2023.2.3,Win32,59.88023952,7,1,13,0.046038544,0.014632395,1,0,0,0.6304,rock_grid_rect_2,8,04,-1,-1,0.63,0.325124998,-0.379371921,1,0,0,2.2344,Pumice_rect,8,2.234,1,12,0,12,0,1,,,,,,,,,,,,,
663ad56043fe3dec6ceffacd,TCN,2024-06-25_09h41.42.397,LearnStrategy,2023.2.3,Win32,59.88023952,7,1,14,-0.040328293,-0.006067117,1,0,0,0.9868,rock_grid_rect_2,1,01,-1,-1,0.987,-0.390792291,-0.23875803,1,0,0,1.7036,Andesite_rect,1,1.704,1,13,0,13,0,1,,,,,,,,,,,,,
663ad56043fe3dec6ceffacd,TCN,2024-06-25_09h41.42.397,LearnStrategy,2023.2.3,Win32,59.88023952,7,1,15,0.018201285,0.001784429,1,0,0,0.92,rock_grid_rect_2,4,13,-1,-1,0.92,0.352248394,-0.231620315,1,0,0,1.6377,Gabbro_rect,4,1.638,1,14,0,14,0,1,,,,,,,,,,,,,
663ad56043fe3dec6ceffacd,TCN,2024-06-25_09h41.42.397,LearnStrategy,2023.2.3,Win32,59.88023952,7,1,16,0.062455433,-0.011063537,1,0,0,0.6806,rock_grid_rect_2,1,09,-1,-1,0.681,-0.372234108,-0.235189172,1,0,0,1.0636,Andesite_rect,1,1.064,1,15,0,15,0,1,,,,,,,,,,,,,
663ad56043fe3dec6ceffacd,TCN,2024-06-25_09h41.42.397,LearnStrategy,2023.2.3,Win32,59.88023952,7,2,1,,,,,,,,7,10,,,,,,,,,,,7,1.074,1,,,,,,0.111705968,-0.401498929,1,0,0,1.0741,Peridotite_rect,0,0,0,0,1,
663ad56043fe3dec6ceffacd,TCN,2024-06-25_09h41.42.397,LearnStrategy,2023.2.3,Win32,59.88023952,7,2,2,,,,,,,,3,07,,,,,,,,,,,3,2.142,1,,,,,,0.177373327,-0.254461121,1,0,0,2.1424,Diorite_rect,1,0,1,0,1,
663ad56043fe3dec6ceffacd,TCN,2024-06-25_09h41.42.397,LearnStrategy,2023.2.3,Win32,59.88023952,7,2,3,,,,,,,,2,14,,,,,,,,,,,4,2.943,0,,,,,,0.338686696,-0.243040685,1,0,0,2.9425,Gabbro_rect,2,0,2,0,1,
663ad56043fe3dec6ceffacd,TCN,2024-06-25_09h41.42.397,LearnStrategy,2023.2.3,Win32,59.88023952,7,2,4,,,,,,,,1,03,,,,,,,,,,,1,2.65,1,,,,,,-0.388650964,-0.263740229,1,0,0,2.6499,Andesite_rect,3,0,3,0,1,
663ad56043fe3dec6ceffacd,TCN,2024-06-25_09h41.42.397,LearnStrategy,2023.2.3,Win32,59.88023952,7,2,5,,,,,,,,3,16,,,,,,,,,,,3,1.176,1,,,,,,0.108850843,-0.262312634,1,0,0,1.1756,Diorite_rect,4,0,4,0,1,
663ad56043fe3dec6ceffacd,TCN,2024-06-25_09h41.42.397,LearnStrategy,2023.2.3,Win32,59.88023952,7,2,6,,,,,,,,4,10,,,,,,,,,,,4,2.475,1,,,,,,0.415060758,-0.241613155,1,0,0,2.4751,Gabbro_rect,5,0,5,0,1,
663ad56043fe3dec6ceffacd,TCN,2024-06-25_09h41.42.397,LearnStrategy,2023.2.3,Win32,59.88023952,7,2,7,,,,,,,,6,16,,,,,,,,,,,6,1.054,1,,,,,,-0.15881511,-0.413633163,1,0,0,1.0537,Pegmatite_rect,6,0,6,0,1,
663ad56043fe3dec6ceffacd,TCN,2024-06-25_09h41.42.397,LearnStrategy,2023.2.3,Win32,59.88023952,7,2,8,,,,,,,,5,07,,,,,,,,,,,5,1.159,1,,,,,,-0.394361149,-0.392219887,1,0,0,1.1587,Obsidian_rect,7,0,7,0,1,
663ad56043fe3dec6ceffacd,TCN,2024-06-25_09h41.42.397,LearnStrategy,2023.2.3,Win32,59.88023952,7,2,9,,,,,,,,8,02,,,,,,,,,,,8,1.792,1,,,,,,0.375089266,-0.395788744,1,0,0,1.7921,Pumice_rect,8,0,8,0,1,
663ad56043fe3dec6ceffacd,TCN,2024-06-25_09h41.42.397,LearnStrategy,2023.2.3,Win32,59.88023952,7,2,10,,,,,,,,8,10,,,,,,,,,,,8,1.026,1,,,,,,0.343683084,-0.385795904,1,0,0,1.0257,Pumice_rect,9,0,9,0,1,
663ad56043fe3dec6ceffacd,TCN,2024-06-25_09h41.42.397,LearnStrategy,2023.2.3,Win32,59.88023952,7,2,11,,,,,,,,4,15,,,,,,,,,,,1,2.892,0,,,,,,-0.414346895,-0.238044298,1,0,0,2.8916,Andesite_rect,10,0,10,0,1,
663ad56043fe3dec6ceffacd,TCN,2024-06-25_09h41.42.397,LearnStrategy,2023.2.3,Win32,59.88023952,7,2,12,,,,,,,,6,10,,,,,,,,,,,6,1.785,1,,,,,,-0.082441113,-0.384368308,1,0,0,1.7854,Pegmatite_rect,11,0,11,0,1,
663ad56043fe3dec6ceffacd,TCN,2024-06-25_09h41.42.397,LearnStrategy,2023.2.3,Win32,59.88023952,7,2,13,,,,,,,,7,12,,,,,,,,,,,7,2.829,1,,,,,,0.159528908,-0.40863671,1,0,0,2.8294,Peridotite_rect,12,0,12,0,1,
663ad56043fe3dec6ceffacd,TCN,2024-06-25_09h41.42.397,LearnStrategy,2023.2.3,Win32,59.88023952,7,2,14,,,,,,,,1,14,,,,,,,,,,,6,7.365,0,,,,,,-0.113133433,-0.420057146,1,0,0,7.3654,Pegmatite_rect,13,0,13,0,1,
663ad56043fe3dec6ceffacd,TCN,2024-06-25_09h41.42.397,LearnStrategy,2023.2.3,Win32,59.88023952,7,2,15,,,,,,,,2,09,,,,,,,,,,,2,1.011,1,,,,,,-0.093861484,-0.260885104,1,0,0,1.0115,Basalt_rect,14,0,14,0,1,
663ad56043fe3dec6ceffacd,TCN,2024-06-25_09h41.42.397,LearnStrategy,2023.2.3,Win32,59.88023952,7,2,16,,,,,,,,5,11,,,,,,,,,,,5,0.976,1,,,,,,-0.370806545,-0.403640257,1,0,0,0.9764,Obsidian_rect,15,0,15,0,1,
663ad56043fe3dec6ceffacd,TCN,2024-06-25_09h41.42.397,LearnStrategy,2023.2.3,Win32,59.88023952,8,1,1,0.018201285,0.011063504,1,0,0,0.8671,rock_grid_rect_2,8,03,-1,-1,0.867,0.336545368,-0.388650964,1,0,0,1.9174,Pumice_rect,8,1.917,1,0,0,0,0,1,,,,,,,,,,,,,
663ad56043fe3dec6ceffacd,TCN,2024-06-25_09h41.42.397,LearnStrategy,2023.2.3,Win32,59.88023952,8,1,2,-0.029621655,0.006780849,1,0,0,0.9481,rock_grid_rect_2,8,09,-1,-1,0.948,0.409350508,-0.401498929,1,0,0,3.8422,Pumice_rect,8,3.842,1,1,0,1,0,1,,,,,,,,,,,,,
663ad56043fe3dec6ceffacd,TCN,2024-06-25_09h41.42.397,LearnStrategy,2023.2.3,Win32,59.88023952,8,1,3,-0.005353319,0.006780849,1,0,0,0.6979,rock_grid_rect_2,4,03,-1,-1,0.698,-0.425053533,-0.254461121,1,0,0,2.6399,Andesite_rect,1,2.64,0,2,0,2,0,1,,,,,,,,,,,,,
663ad56043fe3dec6ceffacd,TCN,2024-06-25_09h41.42.397,LearnStrategy,2023.2.3,Win32,59.88023952,8,1,4,0.002498259,0.000356866,1,0,0,0.6637,rock_grid_rect_2,6,07,-1,-1,0.664,-0.147394674,-0.397930072,1,0,0,1.7422,Pegmatite_rect,6,1.742,1,3,0,3,0,1,,,,,,,,,,,,,
663ad56043fe3dec6ceffacd,TCN,2024-06-25_09h41.42.397,LearnStrategy,2023.2.3,Win32,59.88023952,8,1,5,0.044611014,0.011063504,1,0,0,0.7701,rock_grid_rect_2,4,16,-1,-1,0.77,-0.093861484,-0.235189172,1,0,0,1.1206,Basalt_rect,2,1.121,0,4,0,4,0,1,,,,,,,,,,,,,
663ad56043fe3dec6ceffacd,TCN,2024-06-25_09h41.42.397,LearnStrategy,2023.2.3,Win32,59.88023952,8,1,6,0.038900829,-0.001070664,1,0,0,0.6151,rock_grid_rect_2,1,10,-1,-1,0.615,-0.362955032,-0.249464668,1,0,0,2.6672,Andesite_rect,1,2.667,1,5,0,5,0,1,,,,,,,,,,,,,
663ad56043fe3dec6ceffacd,TCN,2024-06-25_09h41.42.397,LearnStrategy,2023.2.3,Win32,59.88023952,8,1,7,-0.023197672,0.003211991,1,0,0,0.7487,rock_grid_rect_2,3,11,-1,-1,0.749,0.116702355,-0.248037138,1,0,0,1.3746,Diorite_rect,3,1.375,1,6,0,6,0,1,,,,,,,,,,,,,
663ad56043fe3dec6ceffacd,TCN,2024-06-25_09h41.42.397,LearnStrategy,2023.2.3,Win32,59.88023952,8,1,8,0.046752342,0.014632395,1,0,0,0.7324,rock_grid_rect_2,7,05,-1,-1,0.732,0.10956464,-0.385082106,1,0,0,1.1459,Peridotite_rect,7,1.146,1,7,0,7,0,1,,,,,,,,,,,,,
663ad56043fe3dec6ceffacd,TCN,2024-06-25_09h41.42.397,LearnStrategy,2023.2.3,Win32,59.88023952,8,1,9,-0.006780849,0.001784429,1,0,0,0.7812,rock_grid_rect_2,6,09,-1,-1,0.781,-0.165952891,-0.412919365,1,0,0,1.1596,Pegmatite_rect,6,1.16,1,8,0,8,0,1,,,,,,,,,,,,,
663ad56043fe3dec6ceffacd,TCN,2024-06-25_09h41.42.397,LearnStrategy,2023.2.3,Win32,59.88023952,8,1,10,-0.006067051,0.003925756,1,0,0,0.6807,rock_grid_rect_2,7,15,-1,-1,0.681,0.098858002,-0.393647417,1,0,0,1.2263,Peridotite_rect,7,1.226,1,9,0,9,0,1,,,,,,,,,,,,,
663ad56043fe3dec6ceffacd,TCN,2024-06-25_09h41.42.397,LearnStrategy,2023.2.3,Win32,59.88023952,8,1,11,0.021770208,-0.003211991,1,0,0,0.6646,rock_grid_rect_2,3,06,-1,-1,0.665,0.10956464,-0.257316246,1,0,0,2.7575,Diorite_rect,3,2.757,1,10,0,10,0,1,,,,,,,,,,,,,
663ad56043fe3dec6ceffacd,TCN,2024-06-25_09h41.42.397,LearnStrategy,2023.2.3,Win32,59.88023952,8,1,12,0.043183484,-0.007494647,1,0,0,0.7009,rock_grid_rect_2,1,04,-1,-1,0.701,-0.372234108,-0.238044298,1,0,0,2.4711,Andesite_rect,1,2.471,1,11,0,11,0,1,,,,,,,,,,,,,
663ad56043fe3dec6ceffacd,TCN,2024-06-25_09h41.42.397,LearnStrategy,2023.2.3,Win32,59.88023952,8,1,13,0.044611014,0.011063504,1,0,0,0.7472,rock_grid_rect_2,2,02,-1,-1,0.747,-0.107423247,-0.258029979,1,0,0,1.0927,Basalt_rect,2,1.093,1,12,0,12,0,1,,,,,,,,,,,,,
663ad56043fe3dec6ceffacd,TCN,2024-06-25_09h41.42.397,LearnStrategy,2023.2.3,Win32,59.88023952,8,1,14,0.035331906,-0.004639554,1,0,0,0.5644,rock_grid_rect_2,5,16,-1,-1,0.564,-0.355103487,-0.409350508,1,0,0,1.1429,Obsidian_rect,5,1.143,1,13,0,13,0,1,,,,,,,,,,,,,
663ad56043fe3dec6ceffacd,TCN,2024-06-25_09h41.42.397,LearnStrategy,2023.2.3,Win32,59.88023952,8,1,15,0.068879415,0.010349739,1,0,0,0.8146,rock_grid_rect_2,2,06,-1,-1,0.815,-0.135260506,-0.245895811,1,0,0,1.2356,Basalt_rect,2,1.236,1,14,0,14,0,1,,,,,,,,,,,,,
663ad56043fe3dec6ceffacd,TCN,2024-06-25_09h41.42.397,LearnStrategy,2023.2.3,Win32,59.88023952,8,1,16,0.039614561,-0.003211991,1,0,0,0.5461,rock_grid_rect_2,5,04,-1,-1,0.546,-0.371520343,-0.413633163,1,0,0,0.9421,Obsidian_rect,5,0.942,1,15,0,15,0,1,,,,,,,,,,,,,
663ad56043fe3dec6ceffacd,TCN,2024-06-25_09h41.42.397,LearnStrategy,2023.2.3,Win32,59.88023952,8,2,1,,,,,,,,7,16,,,,,,,,,,,7,2.325,1,,,,,,0.084582441,-0.405781585,1,0,0,2.3252,Peridotite_rect,0,0,0,0,1,
663ad56043fe3dec6ceffacd,TCN,2024-06-25_09h41.42.397,LearnStrategy,2023.2.3,Win32,59.88023952,8,2,2,,,,,,,,7,14,,,,,,,,,,,1,9.878,0,,,,,,-0.352962159,-0.243040685,1,0,0,9.878,Andesite_rect,1,0,1,0,1,
663ad56043fe3dec6ceffacd,TCN,2024-06-25_09h41.42.397,LearnStrategy,2023.2.3,Win32,59.88023952,8,2,3,,,,,,,,1,11,,,,,,,,,,,1,2.717,1,,,,,,-0.346538176,-0.253747323,1,0,0,2.7172,Andesite_rect,2,0,2,0,1,
663ad56043fe3dec6ceffacd,TCN,2024-06-25_09h41.42.397,LearnStrategy,2023.2.3,Win32,59.88023952,8,2,4,,,,,,,,3,10,,,,,,,,,,,3,1.408,1,,,,,,0.082441113,-0.252319793,1,0,0,1.4083,Diorite_rect,3,0,3,0,1,
663ad56043fe3dec6ceffacd,TCN,2024-06-25_09h41.42.397,LearnStrategy,2023.2.3,Win32,59.88023952,8,2,5,,,,,,,,5,02,,,,,,,,,,,5,0.986,1,,,,,,-0.399357602,-0.401498929,1,0,0,0.9857,Obsidian_rect,4,0,4,0,1,
663ad56043fe3dec6ceffacd,TCN,2024-06-25_09h41.42.397,LearnStrategy,2023.2.3,Win32,59.88023952,8,2,6,,,,,,,,1,06,,,,,,,,,,,1,3.149,1,,,,,,-0.361527469,-0.250892263,1,0,0,3.1493,Andesite_rect,5,0,5,0,1,
663ad56043fe3dec6ceffacd,TCN,2024-06-25_09h41.42.397,LearnStrategy,2023.2.3,Win32,59.88023952,8,2,7,,,,,,,,6,13,,,,,,,,,,,6,1.366,1,,,,,,-0.107423247,-0.400785197,1,0,0,1.3664,Pegmatite_rect,6,0,6,0,1,
663ad56043fe3dec6ceffacd,TCN,2024-06-25_09h41.42.397,LearnStrategy,2023.2.3,Win32,59.88023952,8,2,8,,,,,,,,3,08,,,,,,,,,,,3,0.926,1,,,,,,0.116702355,-0.230906517,1,0,0,0.9255,Diorite_rect,7,0,7,0,1,
663ad56043fe3dec6ceffacd,TCN,2024-06-25_09h41.42.397,LearnStrategy,2023.2.3,Win32,59.88023952,8,2,9,,,,,,,,8,13,,,,,,,,,,,8,2.059,1,,,,,,0.377230593,-0.398643869,1,0,0,2.0587,Pumice_rect,8,0,8,0,1,
663ad56043fe3dec6ceffacd,TCN,2024-06-25_09h41.42.397,LearnStrategy,2023.2.3,Win32,59.88023952,8,2,10,,,,,,,,4,09,,,,,,,,,,,4,3.384,1,,,,,,0.437187767,-0.235189172,1,0,0,3.3836,Gabbro_rect,9,0,9,0,1,
663ad56043fe3dec6ceffacd,TCN,2024-06-25_09h41.42.397,LearnStrategy,2023.2.3,Win32,59.88023952,8,2,11,,,,,,,,2,12,,,,,,,,,,,1,4.592,0,,,,,,-0.340827958,-0.232334047,1,0,0,4.592,Andesite_rect,10,0,10,0,1,
663ad56043fe3dec6ceffacd,TCN,2024-06-25_09h41.42.397,LearnStrategy,2023.2.3,Win32,59.88023952,8,2,12,,,,,,,,4,05,,,,,,,,,,,4,3.584,1,,,,,,0.358672377,-0.2373305,1,0,0,3.5841,Gabbro_rect,11,0,11,0,1,
663ad56043fe3dec6ceffacd,TCN,2024-06-25_09h41.42.397,LearnStrategy,2023.2.3,Win32,59.88023952,8,2,13,,,,,,,,6,06,,,,,,,,,,,6,1.25,1,,,,,,-0.071734475,-0.397216274,1,0,0,1.2499,Pegmatite_rect,12,0,12,0,1,
663ad56043fe3dec6ceffacd,TCN,2024-06-25_09h41.42.397,LearnStrategy,2023.2.3,Win32,59.88023952,8,2,14,,,,,,,,8,16,,,,,,,,,,,8,1.112,1,,,,,,0.391506154,-0.400071399,1,0,0,1.112,Pumice_rect,13,0,13,0,1,
663ad56043fe3dec6ceffacd,TCN,2024-06-25_09h41.42.397,LearnStrategy,2023.2.3,Win32,59.88023952,8,2,15,,,,,,,,2,04,,,,,,,,,,,2,2.032,1,,,,,,-0.128836524,-0.263740229,1,0,0,2.0324,Basalt_rect,14,0,14,0,1,
663ad56043fe3dec6ceffacd,TCN,2024-06-25_09h41.42.397,LearnStrategy,2023.2.3,Win32,59.88023952,8,2,16,,,,,,,,5,12,,,,,,,,,,,5,1.063,1,,,,,,-0.379371855,-0.395074946,1,0,0,1.0634,Obsidian_rect,15,0,15,0,1,
663ad56043fe3dec6ceffacd,TCN,2024-06-25_09h41.42.397,LearnStrategy,2023.2.3,Win32,59.88023952,9,1,1,-0.065310493,-0.02105641,1,0,0,0.7817,rock_grid_rect_2,4,01,-1,-1,0.782,-0.372234108,-0.245182013,1,0,0,3.7917,Andesite_rect,1,3.792,0,0,0,0,0,1,,,,,,,,,,,,,
663ad56043fe3dec6ceffacd,TCN,2024-06-25_09h41.42.397,LearnStrategy,2023.2.3,Win32,59.88023952,9,1,2,0.096002877,0.003925756,1,0,0,1.1815,rock_grid_rect_2,1,16,-1,-1,1.182,-0.391506056,-0.239471828,1,0,0,1.3091,Andesite_rect,1,1.309,1,1,0,1,0,1,,,,,,,,,,,,,
663ad56043fe3dec6ceffacd,TCN,2024-06-25_09h41.42.397,LearnStrategy,2023.2.3,Win32,59.88023952,9,1,3,0.034618173,0.003925756,1,0,0,0.7485,rock_grid_rect_2,4,08,-1,-1,0.748,0.358672377,-0.243040685,1,0,0,1.3589,Gabbro_rect,4,1.359,1,2,0,2,0,1,,,,,,,,,,,,,
663ad56043fe3dec6ceffacd,TCN,2024-06-25_09h41.42.397,LearnStrategy,2023.2.3,Win32,59.88023952,9,1,4,0.108850843,0.001784429,1,0,0,0.598,rock_grid_rect_2,5,06,-1,-1,0.598,-0.371520343,-0.392219887,1,0,0,1.0922,Obsidian_rect,5,1.092,1,3,0,3,0,1,,,,,,,,,,,,,
663ad56043fe3dec6ceffacd,TCN,2024-06-25_09h41.42.397,LearnStrategy,2023.2.3,Win32,59.88023952,9,1,5,0.083154911,-0.006067117,1,0,0,0.8807,rock_grid_rect_2,7,06,-1,-1,0.881,0.100285532,-0.388650964,1,0,0,1.059,Peridotite_rect,7,1.059,1,4,0,4,0,1,,,,,,,,,,,,,
663ad56043fe3dec6ceffacd,TCN,2024-06-25_09h41.42.397,LearnStrategy,2023.2.3,Win32,59.88023952,9,1,6,0.06602429,-0.002498226,1,0,0,0.6151,rock_grid_rect_2,3,14,-1,-1,0.615,0.120985011,-0.242326953,1,0,0,0.9097,Diorite_rect,3,0.91,1,5,0,5,0,1,,,,,,,,,,,,,
663ad56043fe3dec6ceffacd,TCN,2024-06-25_09h41.42.397,LearnStrategy,2023.2.3,Win32,59.88023952,9,1,7,0.06602429,-0.016773755,1,0,0,0.6481,rock_grid_rect_2,2,01,-1,-1,0.648,-0.079585988,-0.271591742,1,0,0,0.8091,Basalt_rect,2,0.809,1,6,0,6,0,1,,,,,,,,,,,,,
663ad56043fe3dec6ceffacd,TCN,2024-06-25_09h41.42.397,LearnStrategy,2023.2.3,Win32,59.88023952,9,1,8,0.106709515,-0.008922209,1,0,0,0.5824,rock_grid_rect_2,7,08,-1,-1,0.582,0.110278373,-0.381513248,1,0,0,0.9582,Peridotite_rect,7,0.958,1,7,0,7,0,1,,,,,,,,,,,,,
663ad56043fe3dec6ceffacd,TCN,2024-06-25_09h41.42.397,LearnStrategy,2023.2.3,Win32,59.88023952,9,1,9,0.051748794,-0.002498226,1,0,0,0.5545,rock_grid_rect_2,8,06,-1,-1,0.554,0.329407653,-0.380085653,1,0,0,1.2365,Pumice_rect,8,1.236,1,8,0,8,0,1,,,,,,,,,,,,,
663ad56043fe3dec6ceffacd,TCN,2024-06-25_09h41.42.397,LearnStrategy,2023.2.3,Win32,59.88023952,9,1,10,0.036045703,-0.021770175,1,0,0,0.6711,rock_grid_rect_2,6,03,-1,-1,0.671,-0.128122726,-0.412205567,1,0,0,1.7514,Pegmatite_rect,6,1.751,1,9,0,9,0,1,,,,,,,,,,,,,
663ad56043fe3dec6ceffacd,TCN,2024-06-25_09h41.42.397,LearnStrategy,2023.2.3,Win32,59.88023952,9,1,11,0.068165618,-0.011777302,1,0,0,0.6982,rock_grid_rect_2,2,08,-1,-1,0.698,-0.124553868,-0.248037138,1,0,0,0.9581,Basalt_rect,2,0.958,1,10,0,10,0,1,,,,,,,,,,,,,
663ad56043fe3dec6ceffacd,TCN,2024-06-25_09h41.42.397,LearnStrategy,2023.2.3,Win32,59.88023952,9,1,12,0.06459676,0.013204832,1,0,0,0.5649,rock_grid_rect_2,1,07,-1,-1,0.565,-0.356531049,-0.263026431,1,0,0,1.8741,Andesite_rect,1,1.874,1,11,0,11,0,1,,,,,,,,,,,,,
663ad56043fe3dec6ceffacd,TCN,2024-06-25_09h41.42.397,LearnStrategy,2023.2.3,Win32,59.88023952,9,1,13,0.090292692,0.001784429,1,0,0,0.7316,rock_grid_rect_2,5,10,-1,-1,0.732,-0.412919332,-0.419343348,1,0,0,1.0921,Obsidian_rect,5,1.092,1,12,0,12,0,1,,,,,,,,,,,,,
663ad56043fe3dec6ceffacd,TCN,2024-06-25_09h41.42.397,LearnStrategy,2023.2.3,Win32,59.88023952,9,1,14,0.043897216,-0.003925789,1,0,0,0.7146,rock_grid_rect_2,8,08,-1,-1,0.715,0.380085653,-0.394361214,1,0,0,1.1794,Pumice_rect,8,1.179,1,13,0,13,0,1,,,,,,,,,,,,,
663ad56043fe3dec6ceffacd,TCN,2024-06-25_09h41.42.397,LearnStrategy,2023.2.3,Win32,59.88023952,9,1,15,0.074589601,-0.01391863,1,0,0,0.7167,rock_grid_rect_2,6,11,-1,-1,0.717,-0.097430407,-0.411491835,1,0,0,1.1073,Pegmatite_rect,6,1.107,1,14,0,14,0,1,,,,,,,,,,,,,
663ad56043fe3dec6ceffacd,TCN,2024-06-25_09h41.42.397,LearnStrategy,2023.2.3,Win32,59.88023952,9,1,16,0.06745182,-0.020342612,1,0,0,0.6822,rock_grid_rect_2,3,15,-1,-1,0.682,0.167380486,-0.24732334,1,0,0,3.5256,Diorite_rect,3,3.526,1,15,0,15,0,1,,,,,,,,,,,,,
663ad56043fe3dec6ceffacd,TCN,2024-06-25_09h41.42.397,LearnStrategy,2023.2.3,Win32,59.88023952,9,2,1,,,,,,,,8,14,,,,,,,,,,,8,1.133,1,,,,,,0.447180672,-0.413633163,1,0,0,1.1334,Pumice_rect,0,0,0,0,1,
663ad56043fe3dec6ceffacd,TCN,2024-06-25_09h41.42.397,LearnStrategy,2023.2.3,Win32,59.88023952,9,2,2,,,,,,,,4,12,,,,,,,,,,,4,3.543,1,,,,,,0.433618844,-0.240185625,1,0,0,3.5425,Gabbro_rect,1,0,1,0,1,
663ad56043fe3dec6ceffacd,TCN,2024-06-25_09h41.42.397,LearnStrategy,2023.2.3,Win32,59.88023952,9,2,3,,,,,,,,4,11,,,,,,,,,,,4,1.326,1,,,,,,0.436474034,-0.270164212,1,0,0,1.3265,Gabbro_rect,2,0,2,0,1,
663ad56043fe3dec6ceffacd,TCN,2024-06-25_09h41.42.397,LearnStrategy,2023.2.3,Win32,59.88023952,9,2,4,,,,,,,,6,12,,,,,,,,,,,6,1.832,1,,,,,,-0.140970692,-0.410778037,1,0,0,1.8316,Pegmatite_rect,3,0,3,0,1,
663ad56043fe3dec6ceffacd,TCN,2024-06-25_09h41.42.397,LearnStrategy,2023.2.3,Win32,59.88023952,9,2,5,,,,,,,,2,11,,,,,,,,,,,4,5.842,0,,,,,,0.411491835,-0.249464668,1,0,0,5.842,Gabbro_rect,4,0,4,0,1,
663ad56043fe3dec6ceffacd,TCN,2024-06-25_09h41.42.397,LearnStrategy,2023.2.3,Win32,59.88023952,9,2,6,,,,,,,,1,05,,,,,,,,,,,1,2.655,1,,,,,,-0.399357602,-0.242326953,1,0,0,2.6548,Andesite_rect,5,0,5,0,1,
663ad56043fe3dec6ceffacd,TCN,2024-06-25_09h41.42.397,LearnStrategy,2023.2.3,Win32,59.88023952,9,2,7,,,,,,,,5,09,,,,,,,,,,,5,1.067,1,,,,,,-0.360813704,-0.405067852,1,0,0,1.0669,Obsidian_rect,6,0,6,0,1,
663ad56043fe3dec6ceffacd,TCN,2024-06-25_09h41.42.397,LearnStrategy,2023.2.3,Win32,59.88023952,9,2,8,,,,,,,,3,09,,,,,,,,,,,3,1.326,1,,,,,,0.15738758,-0.242326953,1,0,0,1.3264,Diorite_rect,7,0,7,0,1,
663ad56043fe3dec6ceffacd,TCN,2024-06-25_09h41.42.397,LearnStrategy,2023.2.3,Win32,59.88023952,9,2,9,,,,,,,,3,13,,,,,,,,,,,3,0.774,1,,,,,,0.094575347,-0.239471828,1,0,0,0.774,Diorite_rect,8,0,8,0,1,
663ad56043fe3dec6ceffacd,TCN,2024-06-25_09h41.42.397,LearnStrategy,2023.2.3,Win32,59.88023952,9,2,10,,,,,,,,1,02,,,,,,,,,,,1,7.958,1,,,,,,-0.413633097,-0.229478987,1,0,0,7.9582,Andesite_rect,9,0,9,0,1,
663ad56043fe3dec6ceffacd,TCN,2024-06-25_09h41.42.397,LearnStrategy,2023.2.3,Win32,59.88023952,9,2,11,,,,,,,,7,04,,,,,,,,,,,1,6.776,0,,,,,,-0.40649535,-0.250892263,1,0,0,6.7757,Andesite_rect,10,0,10,0,1,
663ad56043fe3dec6ceffacd,TCN,2024-06-25_09h41.42.397,LearnStrategy,2023.2.3,Win32,59.88023952,9,2,12,,,,,,,,2,05,,,,,,,,,,,2,1.664,1,,,,,,-0.149536002,-0.250178466,1,0,0,1.6642,Basalt_rect,11,0,11,0,1,
663ad56043fe3dec6ceffacd,TCN,2024-06-25_09h41.42.397,LearnStrategy,2023.2.3,Win32,59.88023952,9,2,13,,,,,,,,5,08,,,,,,,,,,,5,0.991,1,,,,,,-0.379371855,-0.41720202,1,0,0,0.9912,Obsidian_rect,12,0,12,0,1,
663ad56043fe3dec6ceffacd,TCN,2024-06-25_09h41.42.397,LearnStrategy,2023.2.3,Win32,59.88023952,9,2,14,,,,,,,,6,15,,,,,,,,,,,6,1.107,1,,,,,,-0.108137045,-0.40863671,1,0,0,1.107,Pegmatite_rect,13,0,13,0,1,
663ad56043fe3dec6ceffacd,TCN,2024-06-25_09h41.42.397,LearnStrategy,2023.2.3,Win32,59.88023952,9,2,15,,,,,,,,7,07,,,,,,,,,,,7,1.175,1,,,,,,0.143112085,-0.389364761,1,0,0,1.1749,Peridotite_rect,14,0,14,0,1,
663ad56043fe3dec6ceffacd,TCN,2024-06-25_09h41.42.397,LearnStrategy,2023.2.3,Win32,59.88023952,9,2,16,,,,,,,,8,05,,,,,,,,,,,8,2.026,1,,,,,,0.3622413,-0.410778037,1,0,0,2.0263,Pumice_rect,15,0,15,0,1,
663ad56043fe3dec6ceffacd,TCN,2024-06-25_09h41.42.397,LearnStrategy,2023.2.3,Win32,59.88023952,,,,,,,,,,,,,,,,,,,,,,,,,,,,,,,,,,,,,,,,,,,1
663ad56043fe3dec6ceffacd,TCN,2024-06-25_09h41.42.397,LearnStrategy,2023.2.3,Win32,59.88023952,,,,,,,,,,,,,,,,,,,,,,,,,,,,,,,,,,,,,,,,,,,
663ad56043fe3dec6ceffacd,TCN,2024-06-25_09h41.42.397,LearnStrategy,2023.2.3,Win32,59.88023952,,,,,,,,,,,3,06,1,1,,,,,,,,,,,,,,,,,,,,,,,,,,,,,
663ad56043fe3dec6ceffacd,TCN,2024-06-25_09h41.42.397,LearnStrategy,2023.2.3,Win32,59.88023952,,,,,,,,,,,5,14,1,2,,,,,,,,,,,,,,,,,,,,,,,,,,,,,
663ad56043fe3dec6ceffacd,TCN,2024-06-25_09h41.42.397,LearnStrategy,2023.2.3,Win32,59.88023952,,,,,,,,,,,5,04,1,3,,,,,,,,,,,,,,,,,,,,,,,,,,,,,
663ad56043fe3dec6ceffacd,TCN,2024-06-25_09h41.42.397,LearnStrategy,2023.2.3,Win32,59.88023952,,,,,,,,,,,4,13,1,4,,,,,,,,,,,,,,,,,,,,,,,,,,,,,
663ad56043fe3dec6ceffacd,TCN,2024-06-25_09h41.42.397,LearnStrategy,2023.2.3,Win32,59.88023952,,,,,,,,,,,2,06,1,5,,,,,,,,,,,,,,,,,,,,,,,,,,,,,
663ad56043fe3dec6ceffacd,TCN,2024-06-25_09h41.42.397,LearnStrategy,2023.2.3,Win32,59.88023952,,,,,,,,,,,5,10,1,6,,,,,,,,,,,,,,,,,,,,,,,,,,,,,
663ad56043fe3dec6ceffacd,TCN,2024-06-25_09h41.42.397,LearnStrategy,2023.2.3,Win32,59.88023952,,,,,,,,,,,6,09,1,7,,,,,,,,,,,,,,,,,,,,,,,,,,,,,
663ad56043fe3dec6ceffacd,TCN,2024-06-25_09h41.42.397,LearnStrategy,2023.2.3,Win32,59.88023952,,,,,,,,,,,8,09,1,8,,,,,,,,,,,,,,,,,,,,,,,,,,,,,
663ad56043fe3dec6ceffacd,TCN,2024-06-25_09h41.42.397,LearnStrategy,2023.2.3,Win32,59.88023952,,,,,,,,,,,3,15,2,1,,,,,,,,,,,,,,,,,,,,,,,,,,,,,
663ad56043fe3dec6ceffacd,TCN,2024-06-25_09h41.42.397,LearnStrategy,2023.2.3,Win32,59.88023952,,,,,,,,,,,1,10,2,2,,,,,,,,,,,,,,,,,,,,,,,,,,,,,
663ad56043fe3dec6ceffacd,TCN,2024-06-25_09h41.42.397,LearnStrategy,2023.2.3,Win32,59.88023952,,,,,,,,,,,4,08,2,3,,,,,,,,,,,,,,,,,,,,,,,,,,,,,
663ad56043fe3dec6ceffacd,TCN,2024-06-25_09h41.42.397,LearnStrategy,2023.2.3,Win32,59.88023952,,,,,,,,,,,6,05,2,4,,,,,,,,,,,,,,,,,,,,,,,,,,,,,
663ad56043fe3dec6ceffacd,TCN,2024-06-25_09h41.42.397,LearnStrategy,2023.2.3,Win32,59.88023952,,,,,,,,,,,7,13,2,5,,,,,,,,,,,,,,,,,,,,,,,,,,,,,
663ad56043fe3dec6ceffacd,TCN,2024-06-25_09h41.42.397,LearnStrategy,2023.2.3,Win32,59.88023952,,,,,,,,,,,8,03,2,6,,,,,,,,,,,,,,,,,,,,,,,,,,,,,
663ad56043fe3dec6ceffacd,TCN,2024-06-25_09h41.42.397,LearnStrategy,2023.2.3,Win32,59.88023952,,,,,,,,,,,5,16,2,7,,,,,,,,,,,,,,,,,,,,,,,,,,,,,
663ad56043fe3dec6ceffacd,TCN,2024-06-25_09h41.42.397,LearnStrategy,2023.2.3,Win32,59.88023952,,,,,,,,,,,7,15,2,8,,,,,,,,,,,,,,,,,,,,,,,,,,,,,
663ad56043fe3dec6ceffacd,TCN,2024-06-25_09h41.42.397,LearnStrategy,2023.2.3,Win32,59.88023952,,,,,,,,,,,3,02,3,1,,,,,,,,,,,,,,,,,,,,,,,,,,,,,
663ad56043fe3dec6ceffacd,TCN,2024-06-25_09h41.42.397,LearnStrategy,2023.2.3,Win32,59.88023952,,,,,,,,,,,6,03,3,2,,,,,,,,,,,,,,,,,,,,,,,,,,,,,
663ad56043fe3dec6ceffacd,TCN,2024-06-25_09h41.42.397,LearnStrategy,2023.2.3,Win32,59.88023952,,,,,,,,,,,7,02,3,3,,,,,,,,,,,,,,,,,,,,,,,,,,,,,
663ad56043fe3dec6ceffacd,TCN,2024-06-25_09h41.42.397,LearnStrategy,2023.2.3,Win32,59.88023952,,,,,,,,,,,4,16,3,4,,,,,,,,,,,,,,,,,,,,,,,,,,,,,
663ad56043fe3dec6ceffacd,TCN,2024-06-25_09h41.42.397,LearnStrategy,2023.2.3,Win32,59.88023952,,,,,,,,,,,1,09,3,5,,,,,,,,,,,,,,,,,,,,,,,,,,,,,
663ad56043fe3dec6ceffacd,TCN,2024-06-25_09h41.42.397,LearnStrategy,2023.2.3,Win32,59.88023952,,,,,,,,,,,3,11,3,6,,,,,,,,,,,,,,,,,,,,,,,,,,,,,
663ad56043fe3dec6ceffacd,TCN,2024-06-25_09h41.42.397,LearnStrategy,2023.2.3,Win32,59.88023952,,,,,,,,,,,6,08,3,7,,,,,,,,,,,,,,,,,,,,,,,,,,,,,
663ad56043fe3dec6ceffacd,TCN,2024-06-25_09h41.42.397,LearnStrategy,2023.2.3,Win32,59.88023952,,,,,,,,,,,5,06,3,8,,,,,,,,,,,,,,,,,,,,,,,,,,,,,
663ad56043fe3dec6ceffacd,TCN,2024-06-25_09h41.42.397,LearnStrategy,2023.2.3,Win32,59.88023952,,,,,,,,,,,1,16,4,1,,,,,,,,,,,,,,,,,,,,,,,,,,,,,
663ad56043fe3dec6ceffacd,TCN,2024-06-25_09h41.42.397,LearnStrategy,2023.2.3,Win32,59.88023952,,,,,,,,,,,2,16,4,2,,,,,,,,,,,,,,,,,,,,,,,,,,,,,
663ad56043fe3dec6ceffacd,TCN,2024-06-25_09h41.42.397,LearnStrategy,2023.2.3,Win32,59.88023952,,,,,,,,,,,8,08,4,3,,,,,,,,,,,,,,,,,,,,,,,,,,,,,
663ad56043fe3dec6ceffacd,TCN,2024-06-25_09h41.42.397,LearnStrategy,2023.2.3,Win32,59.88023952,,,,,,,,,,,3,12,4,4,,,,,,,,,,,,,,,,,,,,,,,,,,,,,
663ad56043fe3dec6ceffacd,TCN,2024-06-25_09h41.42.397,LearnStrategy,2023.2.3,Win32,59.88023952,,,,,,,,,,,8,06,4,5,,,,,,,,,,,,,,,,,,,,,,,,,,,,,
663ad56043fe3dec6ceffacd,TCN,2024-06-25_09h41.42.397,LearnStrategy,2023.2.3,Win32,59.88023952,,,,,,,,,,,8,15,4,6,,,,,,,,,,,,,,,,,,,,,,,,,,,,,
663ad56043fe3dec6ceffacd,TCN,2024-06-25_09h41.42.397,LearnStrategy,2023.2.3,Win32,59.88023952,,,,,,,,,,,8,04,4,7,,,,,,,,,,,,,,,,,,,,,,,,,,,,,
663ad56043fe3dec6ceffacd,TCN,2024-06-25_09h41.42.397,LearnStrategy,2023.2.3,Win32,59.88023952,,,,,,,,,,,7,06,4,8,,,,,,,,,,,,,,,,,,,,,,,,,,,,,
663ad56043fe3dec6ceffacd,TCN,2024-06-25_09h41.42.397,LearnStrategy,2023.2.3,Win32,59.88023952,,,,,,,,,,,4,14,5,1,,,,,,,,,,,,,,,,,,,,,,,,,,,,,
663ad56043fe3dec6ceffacd,TCN,2024-06-25_09h41.42.397,LearnStrategy,2023.2.3,Win32,59.88023952,,,,,,,,,,,4,01,5,2,,,,,,,,,,,,,,,,,,,,,,,,,,,,,
663ad56043fe3dec6ceffacd,TCN,2024-06-25_09h41.42.397,LearnStrategy,2023.2.3,Win32,59.88023952,,,,,,,,,,,2,02,5,3,,,,,,,,,,,,,,,,,,,,,,,,,,,,,
663ad56043fe3dec6ceffacd,TCN,2024-06-25_09h41.42.397,LearnStrategy,2023.2.3,Win32,59.88023952,,,,,,,,,,,1,04,5,4,,,,,,,,,,,,,,,,,,,,,,,,,,,,,
663ad56043fe3dec6ceffacd,TCN,2024-06-25_09h41.42.397,LearnStrategy,2023.2.3,Win32,59.88023952,,,,,,,,,,,2,08,5,5,,,,,,,,,,,,,,,,,,,,,,,,,,,,,
663ad56043fe3dec6ceffacd,TCN,2024-06-25_09h41.42.397,LearnStrategy,2023.2.3,Win32,59.88023952,,,,,,,,,,,2,01,5,6,,,,,,,,,,,,,,,,,,,,,,,,,,,,,
663ad56043fe3dec6ceffacd,TCN,2024-06-25_09h41.42.397,LearnStrategy,2023.2.3,Win32,59.88023952,,,,,,,,,,,3,14,5,7,,,,,,,,,,,,,,,,,,,,,,,,,,,,,
663ad56043fe3dec6ceffacd,TCN,2024-06-25_09h41.42.397,LearnStrategy,2023.2.3,Win32,59.88023952,,,,,,,,,,,2,10,5,8,,,,,,,,,,,,,,,,,,,,,,,,,,,,,
663ad56043fe3dec6ceffacd,TCN,2024-06-25_09h41.42.397,LearnStrategy,2023.2.3,Win32,59.88023952,,,,,,,,,,,4,03,6,1,,,,,,,,,,,,,,,,,,,,,,,,,,,,,
663ad56043fe3dec6ceffacd,TCN,2024-06-25_09h41.42.397,LearnStrategy,2023.2.3,Win32,59.88023952,,,,,,,,,,,6,07,6,2,,,,,,,,,,,,,,,,,,,,,,,,,,,,,
663ad56043fe3dec6ceffacd,TCN,2024-06-25_09h41.42.397,LearnStrategy,2023.2.3,Win32,59.88023952,,,,,,,,,,,1,01,6,3,,,,,,,,,,,,,,,,,,,,,,,,,,,,,
663ad56043fe3dec6ceffacd,TCN,2024-06-25_09h41.42.397,LearnStrategy,2023.2.3,Win32,59.88023952,,,,,,,,,,,6,11,6,4,,,,,,,,,,,,,,,,,,,,,,,,,,,,,
663ad56043fe3dec6ceffacd,TCN,2024-06-25_09h41.42.397,LearnStrategy,2023.2.3,Win32,59.88023952,,,,,,,,,,,1,07,6,5,,,,,,,,,,,,,,,,,,,,,,,,,,,,,
663ad56043fe3dec6ceffacd,TCN,2024-06-25_09h41.42.397,LearnStrategy,2023.2.3,Win32,59.88023952,,,,,,,,,,,5,05,6,6,,,,,,,,,,,,,,,,,,,,,,,,,,,,,
663ad56043fe3dec6ceffacd,TCN,2024-06-25_09h41.42.397,LearnStrategy,2023.2.3,Win32,59.88023952,,,,,,,,,,,7,08,6,7,,,,,,,,,,,,,,,,,,,,,,,,,,,,,
663ad56043fe3dec6ceffacd,TCN,2024-06-25_09h41.42.397,LearnStrategy,2023.2.3,Win32,59.88023952,,,,,,,,,,,7,05,6,8,,,,,,,,,,,,,,,,,,,,,,,,,,,,,