participant,condition,date,expName,psychopyVersion,OS,frameRate,block,phase,trial,learn_mouse.x,learn_mouse.y,learn_mouse.leftButton,learn_mouse.midButton,learn_mouse.rightButton,learn_mouse.time,learn_mouse.clicked_name,cat,token,row,col,t_select,cat_rec,token_rec,cat_mouse_l.x,cat_mouse_l.y,cat_mouse_l.leftButton,cat_mouse_l.midButton,cat_mouse_l.rightButton,cat_mouse_l.time,cat_mouse_l.clicked_name,resp,t_resp,corr,train_trials.thisRepN,train_trials.thisTrialN,train_trials.thisN,train_trials.thisIndex,train_trials.ran,cat_mouse_t.x,cat_mouse_t.y,cat_mouse_t.leftButton,cat_mouse_t.midButton,cat_mouse_t.rightButton,cat_mouse_t.time,cat_mouse_t.clicked_name,test_trials.thisRepN,test_trials.thisTrialN,test_trials.thisN,test_trials.thisIndex,test_trials.ran,Bonus
663a77b9f973602bcedaf526,SCR,2024-06-24_14h32.52.636,LearnStrategy,2023.2.3,MacIntel,62.5,,,,,,,,,,,,,,,,,,,,,,,,,,,,,,,,,,,,,,,,,,,,,
663a77b9f973602bcedaf526,SCR,2024-06-24_14h32.52.636,LearnStrategy,2023.2.3,MacIntel,62.5,1,1,1,0.090225564,0.392230576,1,0,0,3.183,Peridotite_13,7,13,6,5,3.183,5,14,0.081453634,-0.23433584,1,0,0,5.485,Diorite_rect,3,5.485,0,0,0,0,0,1,,,,,,,,,,,,,
663a77b9f973602bcedaf526,SCR,2024-06-24_14h32.52.636,LearnStrategy,2023.2.3,MacIntel,62.5,1,1,2,-0.368421053,-0.077694236,1,0,0,3.599,Diorite_02,3,02,3,2,3.599,7,12,-0.389724311,-0.255639098,1,0,0,2.475,Andesite_rect,1,2.475,0,1,0,1,0,1,,,,,,,,,,,,,
663a77b9f973602bcedaf526,SCR,2024-06-24_14h32.52.636,LearnStrategy,2023.2.3,MacIntel,62.5,1,1,3,-0.21679198,-0.45112782,1,0,0,2.099,Pumice_08,8,08,1,3,2.099,3,13,-0.116541353,-0.235588972,1,0,0,2.491,Basalt_rect,2,2.491,0,2,0,2,0,1,,,,,,,,,,,,,
663a77b9f973602bcedaf526,SCR,2024-06-24_14h32.52.636,LearnStrategy,2023.2.3,MacIntel,62.5,1,1,4,-0.547619048,-0.228070175,1,0,0,2.815,Diorite_13,3,13,2,1,2.815,4,08,-0.151629073,-0.390977444,1,0,0,6.572,Pegmatite_rect,6,6.572,0,3,0,3,0,1,,,,,,,,,,,,,
663a77b9f973602bcedaf526,SCR,2024-06-24_14h32.52.636,LearnStrategy,2023.2.3,MacIntel,62.5,1,1,5,0.043859649,0.082706767,1,0,0,1.5,Pumice_02,8,02,4,5,1.5,5,07,-0.15914787,-0.243107769,1,0,0,3.553,Basalt_rect,2,3.553,0,4,0,4,0,1,,,,,,,,,,,,,
663a77b9f973602bcedaf526,SCR,2024-06-24_14h32.52.636,LearnStrategy,2023.2.3,MacIntel,62.5,1,1,6,-0.363408521,0.26566416,1,0,0,4.599,Pumice_10,8,10,5,2,4.599,7,05,0.408521303,-0.397243108,1,0,0,1.056,Pumice_rect,8,1.056,1,5,0,5,0,1,,,,,,,,,,,,,
663a77b9f973602bcedaf526,SCR,2024-06-24_14h32.52.636,LearnStrategy,2023.2.3,MacIntel,62.5,1,1,7,0.106516291,0.065162907,1,0,0,1.549,Pumice_02,8,02,4,5,1.549,4,03,0.403508772,-0.414786967,1,0,0,0.839,Pumice_rect,8,0.839,1,6,0,6,0,1,,,,,,,,,,,,,
663a77b9f973602bcedaf526,SCR,2024-06-24_14h32.52.636,LearnStrategy,2023.2.3,MacIntel,62.5,1,1,8,-0.402255639,-0.429824561,1,0,0,3.032,Pegmatite_16,6,16,1,2,3.032,1,06,-0.403508772,-0.418546366,1,0,0,2.175,Obsidian_rect,5,2.175,0,7,0,7,0,1,,,,,,,,,,,,,
663a77b9f973602bcedaf526,SCR,2024-06-24_14h32.52.636,LearnStrategy,2023.2.3,MacIntel,62.5,1,1,9,-0.533834586,-0.418546366,1,0,0,1.349,Pegmatite_08,6,08,1,1,1.349,1,07,-0.076441103,-0.385964912,1,0,0,1.157,Pegmatite_rect,6,1.157,1,8,0,8,0,1,,,,,,,,,,,,,
663a77b9f973602bcedaf526,SCR,2024-06-24_14h32.52.636,LearnStrategy,2023.2.3,MacIntel,62.5,1,1,10,-0.085213033,0.260651629,1,0,0,1.248,Pegmatite_15,6,15,5,4,1.248,8,08,-0.175438596,-0.401002506,1,0,0,0.925,Pegmatite_rect,6,0.925,1,9,0,9,0,1,,,,,,,,,,,,,
663a77b9f973602bcedaf526,SCR,2024-06-24_14h32.52.636,LearnStrategy,2023.2.3,MacIntel,62.5,1,1,11,0.379699248,0.070175439,1,0,0,1.299,Basalt_05,2,05,4,7,1.299,3,14,0.323308271,-0.23433584,1,0,0,3.44,Gabbro_rect,4,3.44,0,10,0,10,0,1,,,,,,,,,,,,,
663a77b9f973602bcedaf526,SCR,2024-06-24_14h32.52.636,LearnStrategy,2023.2.3,MacIntel,62.5,1,1,12,-0.043859649,-0.0839599,1,0,0,1.083,Basalt_08,2,08,3,4,1.083,6,07,-0.155388471,-0.238095238,1,0,0,1.121,Basalt_rect,2,1.121,1,11,0,11,0,1,,,,,,,,,,,,,
663a77b9f973602bcedaf526,SCR,2024-06-24_14h32.52.636,LearnStrategy,2023.2.3,MacIntel,62.5,1,1,13,-0.545112782,0.121553885,1,0,0,1.751,Basalt_02,2,02,4,1,1.751,2,14,-0.106516291,-0.26566416,1,0,0,1.438,Basalt_rect,2,1.438,1,12,0,12,0,1,,,,,,,,,,,,,
663a77b9f973602bcedaf526,SCR,2024-06-24_14h32.52.636,LearnStrategy,2023.2.3,MacIntel,62.5,1,1,14,0.052631579,-0.426065163,1,0,0,2.432,Pegmatite_07,6,07,1,5,2.432,6,10,-0.104010025,-0.399749373,1,0,0,1.89,Pegmatite_rect,6,1.89,1,13,0,13,0,1,,,,,,,,,,,,,
663a77b9f973602bcedaf526,SCR,2024-06-24_14h32.52.636,LearnStrategy,2023.2.3,MacIntel,62.5,1,1,15,0.403508772,-0.129072682,1,0,0,3.15,Pumice_13,8,13,3,7,3.15,2,04,0.342105263,-0.408521303,1,0,0,0.94,Pumice_rect,8,0.94,1,14,0,14,0,1,,,,,,,,,,,,,
663a77b9f973602bcedaf526,SCR,2024-06-24_14h32.52.636,LearnStrategy,2023.2.3,MacIntel,62.5,1,1,16,0.392230576,0.238095238,1,0,0,2.934,Andesite_16,1,16,5,7,2.934,8,10,0.337092732,-0.409774436,1,0,0,1.425,Pumice_rect,8,1.425,0,15,0,15,0,1,,,,,,,,,,,,,
663a77b9f973602bcedaf526,SCR,2024-06-24_14h32.52.636,LearnStrategy,2023.2.3,MacIntel,62.5,1,2,1,,,,,,,,5,02,,,,,,,,,,,,,3,7.318,0,,,,,,0.155388471,-0.240601504,1,0,0,7.318,Diorite_rect,0,0,0,0,1,
663a77b9f973602bcedaf526,SCR,2024-06-24_14h32.52.636,LearnStrategy,2023.2.3,MacIntel,62.5,1,2,2,,,,,,,,4,13,,,,,,,,,,,,,7,5.536,0,,,,,,0.051378446,-0.412280702,1,0,0,5.536,Peridotite_rect,1,0,1,0,1,
663a77b9f973602bcedaf526,SCR,2024-06-24_14h32.52.636,LearnStrategy,2023.2.3,MacIntel,62.5,1,2,3,,,,,,,,1,04,,,,,,,,,,,,,7,1.551,0,,,,,,0.051378446,-0.412280702,1,0,0,1.551,Peridotite_rect,2,0,2,0,1,
663a77b9f973602bcedaf526,SCR,2024-06-24_14h32.52.636,LearnStrategy,2023.2.3,MacIntel,62.5,1,2,4,,,,,,,,8,06,,,,,,,,,,,,,8,1.17,1,,,,,,0.333333333,-0.404761905,1,0,0,1.17,Pumice_rect,3,0,3,0,1,
663a77b9f973602bcedaf526,SCR,2024-06-24_14h32.52.636,LearnStrategy,2023.2.3,MacIntel,62.5,1,2,5,,,,,,,,8,16,,,,,,,,,,,,,8,0.987,1,,,,,,0.333333333,-0.404761905,1,0,0,0.987,Pumice_rect,4,0,4,0,1,
663a77b9f973602bcedaf526,SCR,2024-06-24_14h32.52.636,LearnStrategy,2023.2.3,MacIntel,62.5,1,2,6,,,,,,,,5,12,,,,,,,,,,,,,3,2.186,0,,,,,,0.160401003,-0.269423559,1,0,0,2.186,Diorite_rect,5,0,5,0,1,
663a77b9f973602bcedaf526,SCR,2024-06-24_14h32.52.636,LearnStrategy,2023.2.3,MacIntel,62.5,1,2,7,,,,,,,,7,06,,,,,,,,,,,,,7,2.705,1,,,,,,0.12406015,-0.413533835,1,0,0,2.705,Peridotite_rect,6,0,6,0,1,
663a77b9f973602bcedaf526,SCR,2024-06-24_14h32.52.636,LearnStrategy,2023.2.3,MacIntel,62.5,1,2,8,,,,,,,,6,13,,,,,,,,,,,,,7,0.737,0,,,,,,0.12406015,-0.413533835,1,0,0,0.737,Peridotite_rect,7,0,7,0,1,
663a77b9f973602bcedaf526,SCR,2024-06-24_14h32.52.636,LearnStrategy,2023.2.3,MacIntel,62.5,1,2,9,,,,,,,,6,09,,,,,,,,,,,,,7,0.787,0,,,,,,0.12406015,-0.413533835,1,0,0,0.787,Peridotite_rect,8,0,8,0,1,
663a77b9f973602bcedaf526,SCR,2024-06-24_14h32.52.636,LearnStrategy,2023.2.3,MacIntel,62.5,1,2,10,,,,,,,,3,06,,,,,,,,,,,,,7,2.67,0,,,,,,0.12406015,-0.413533835,1,0,0,2.67,Peridotite_rect,9,0,9,0,1,
663a77b9f973602bcedaf526,SCR,2024-06-24_14h32.52.636,LearnStrategy,2023.2.3,MacIntel,62.5,1,2,11,,,,,,,,7,14,,,,,,,,,,,,,5,2.62,0,,,,,,-0.360902256,-0.404761905,1,0,0,2.62,Obsidian_rect,10,0,10,0,1,
663a77b9f973602bcedaf526,SCR,2024-06-24_14h32.52.636,LearnStrategy,2023.2.3,MacIntel,62.5,1,2,12,,,,,,,,1,05,,,,,,,,,,,,,7,1.354,0,,,,,,0.171679198,-0.393483709,1,0,0,1.354,Peridotite_rect,11,0,11,0,1,
663a77b9f973602bcedaf526,SCR,2024-06-24_14h32.52.636,LearnStrategy,2023.2.3,MacIntel,62.5,1,2,13,,,,,,,,2,16,,,,,,,,,,,,,2,3.17,1,,,,,,-0.126566416,-0.254385965,1,0,0,3.17,Basalt_rect,12,0,12,0,1,
663a77b9f973602bcedaf526,SCR,2024-06-24_14h32.52.636,LearnStrategy,2023.2.3,MacIntel,62.5,1,2,14,,,,,,,,4,15,,,,,,,,,,,,,7,1.418,0,,,,,,0.157894737,-0.417293233,1,0,0,1.418,Peridotite_rect,13,0,13,0,1,
663a77b9f973602bcedaf526,SCR,2024-06-24_14h32.52.636,LearnStrategy,2023.2.3,MacIntel,62.5,1,2,15,,,,,,,,3,12,,,,,,,,,,,,,7,0.87,0,,,,,,0.157894737,-0.417293233,1,0,0,0.87,Peridotite_rect,14,0,14,0,1,
663a77b9f973602bcedaf526,SCR,2024-06-24_14h32.52.636,LearnStrategy,2023.2.3,MacIntel,62.5,1,2,16,,,,,,,,2,10,,,,,,,,,,,,,2,1.086,1,,,,,,-0.122807018,-0.249373434,1,0,0,1.086,Basalt_rect,15,0,15,0,1,
663a77b9f973602bcedaf526,SCR,2024-06-24_14h32.52.636,LearnStrategy,2023.2.3,MacIntel,62.5,2,1,1,-0.253132832,0.114035088,1,0,0,2.763,Obsidian_14,5,14,4,3,2.763,7,05,-0.065162907,-0.231829574,1,0,0,1.406,Basalt_rect,2,1.406,0,0,0,0,0,1,,,,,,,,,,,,,
663a77b9f973602bcedaf526,SCR,2024-06-24_14h32.52.636,LearnStrategy,2023.2.3,MacIntel,62.5,2,1,2,-0.056390977,0.085213033,1,0,0,0.682,Obsidian_09,5,09,4,4,0.682,3,14,-0.393483709,-0.401002506,1,0,0,1.36,Obsidian_rect,5,1.36,1,1,0,1,0,1,,,,,,,,,,,,,
663a77b9f973602bcedaf526,SCR,2024-06-24_14h32.52.636,LearnStrategy,2023.2.3,MacIntel,62.5,2,1,3,-0.593984962,-0.241854637,1,0,0,6.332,Diorite_13,3,13,2,1,6.332,5,16,0.135338346,-0.394736842,1,0,0,1.323,Peridotite_rect,7,1.323,0,2,0,2,0,1,,,,,,,,,,,,,
663a77b9f973602bcedaf526,SCR,2024-06-24_14h32.52.636,LearnStrategy,2023.2.3,MacIntel,62.5,2,1,4,-0.373433584,-0.281954887,1,0,0,0.932,Diorite_16,3,16,2,2,0.932,3,13,0.187969925,-0.254385965,1,0,0,0.641,Diorite_rect,3,0.641,1,3,0,3,0,1,,,,,,,,,,,,,
663a77b9f973602bcedaf526,SCR,2024-06-24_14h32.52.636,LearnStrategy,2023.2.3,MacIntel,62.5,2,1,5,0.43358396,0.229323308,1,0,0,3.081,Andesite_16,1,16,5,7,3.081,5,14,0.085213033,-0.248120301,1,0,0,0.877,Diorite_rect,3,0.877,0,4,0,4,0,1,,,,,,,,,,,,,
663a77b9f973602bcedaf526,SCR,2024-06-24_14h32.52.636,LearnStrategy,2023.2.3,MacIntel,62.5,2,1,6,0.210526316,0.393483709,1,0,0,2.649,Andesite_07,1,07,6,6,2.649,7,08,0.063909774,-0.271929825,1,0,0,1.692,Diorite_rect,3,1.692,0,5,0,5,0,1,,,,,,,,,,,,,
663a77b9f973602bcedaf526,SCR,2024-06-24_14h32.52.636,LearnStrategy,2023.2.3,MacIntel,62.5,2,1,7,-0.4160401,-0.437343358,1,0,0,1.765,Pegmatite_16,6,16,1,2,1.765,3,02,-0.146616541,-0.413533835,1,0,0,0.776,Pegmatite_rect,6,0.776,1,6,0,6,0,1,,,,,,,,,,,,,
663a77b9f973602bcedaf526,SCR,2024-06-24_14h32.52.636,LearnStrategy,2023.2.3,MacIntel,62.5,2,1,8,-0.50877193,-0.40726817,1,0,0,1.348,Pegmatite_08,6,08,1,1,1.348,7,04,-0.111528822,-0.417293233,1,0,0,0.877,Pegmatite_rect,6,0.877,1,7,0,7,0,1,,,,,,,,,,,,,
663a77b9f973602bcedaf526,SCR,2024-06-24_14h32.52.636,LearnStrategy,2023.2.3,MacIntel,62.5,2,1,9,0.063909774,-0.403508772,1,0,0,1.482,Pegmatite_07,6,07,1,5,1.482,1,10,-0.098997494,-0.397243108,1,0,0,0.642,Pegmatite_rect,6,0.642,1,8,0,8,0,1,,,,,,,,,,,,,
663a77b9f973602bcedaf526,SCR,2024-06-24_14h32.52.636,LearnStrategy,2023.2.3,MacIntel,62.5,2,1,10,0.543859649,0.080200501,1,0,0,0.947,Peridotite_08,7,08,4,8,0.947,4,14,-0.383458647,-0.401002506,1,0,0,2.009,Obsidian_rect,5,2.009,0,9,0,9,0,1,,,,,,,,,,,,,
663a77b9f973602bcedaf526,SCR,2024-06-24_14h32.52.636,LearnStrategy,2023.2.3,MacIntel,62.5,2,1,11,0.082706767,0.0839599,1,0,0,0.949,Pumice_02,8,02,4,5,0.949,5,07,0.370927318,-0.413533835,1,0,0,0.79,Pumice_rect,8,0.79,1,10,0,10,0,1,,,,,,,,,,,,,
663a77b9f973602bcedaf526,SCR,2024-06-24_14h32.52.636,LearnStrategy,2023.2.3,MacIntel,62.5,2,1,12,-0.587719298,-0.096491228,1,0,0,1.015,Andesite_06,1,06,3,1,1.015,1,14,-0.338345865,-0.380952381,1,0,0,3.542,Obsidian_rect,5,3.542,0,11,0,11,0,1,,,,,,,,,,,,,
663a77b9f973602bcedaf526,SCR,2024-06-24_14h32.52.636,LearnStrategy,2023.2.3,MacIntel,62.5,2,1,13,-0.537593985,-0.219298246,1,0,0,1.349,Diorite_13,3,13,2,1,1.349,4,10,-0.35839599,-0.250626566,1,0,0,0.676,Andesite_rect,1,0.676,0,12,0,12,0,1,,,,,,,,,,,,,
663a77b9f973602bcedaf526,SCR,2024-06-24_14h32.52.636,LearnStrategy,2023.2.3,MacIntel,62.5,2,1,14,-0.546365915,0.286967419,1,0,0,0.914,Obsidian_07,5,07,5,1,0.914,1,10,-0.144110276,-0.259398496,1,0,0,2.208,Basalt_rect,2,2.208,0,13,0,13,0,1,,,,,,,,,,,,,
663a77b9f973602bcedaf526,SCR,2024-06-24_14h32.52.636,LearnStrategy,2023.2.3,MacIntel,62.5,2,1,15,-0.236842105,0.116541353,1,0,0,1.016,Obsidian_14,5,14,4,3,1.016,6,16,-0.120300752,-0.249373434,1,0,0,1.126,Basalt_rect,2,1.126,0,14,0,14,0,1,,,,,,,,,,,,,
663a77b9f973602bcedaf526,SCR,2024-06-24_14h32.52.636,LearnStrategy,2023.2.3,MacIntel,62.5,2,1,16,-0.0839599,0.102756892,1,0,0,1.3,Obsidian_09,5,09,4,4,1.3,6,08,-0.354636591,-0.389724311,1,0,0,1.189,Obsidian_rect,5,1.189,1,15,0,15,0,1,,,,,,,,,,,,,
663a77b9f973602bcedaf526,SCR,2024-06-24_14h32.52.636,LearnStrategy,2023.2.3,MacIntel,62.5,2,2,1,,,,,,,,7,07,,,,,,,,,,,,,1,3.539,0,,,,,,-0.370927318,-0.238095238,1,0,0,3.539,Andesite_rect,0,0,0,0,1,
663a77b9f973602bcedaf526,SCR,2024-06-24_14h32.52.636,LearnStrategy,2023.2.3,MacIntel,62.5,2,2,2,,,,,,,,8,09,,,,,,,,,,,,,8,1.873,1,,,,,,0.438596491,-0.395989975,1,0,0,1.873,Pumice_rect,1,0,1,0,1,
663a77b9f973602bcedaf526,SCR,2024-06-24_14h32.52.636,LearnStrategy,2023.2.3,MacIntel,62.5,2,2,3,,,,,,,,5,10,,,,,,,,,,,,,5,3.802,1,,,,,,-0.327067669,-0.395989975,1,0,0,3.802,Obsidian_rect,2,0,2,0,1,
663a77b9f973602bcedaf526,SCR,2024-06-24_14h32.52.636,LearnStrategy,2023.2.3,MacIntel,62.5,2,2,4,,,,,,,,3,15,,,,,,,,,,,,,1,1.851,0,,,,,,-0.328320802,-0.255639098,1,0,0,1.851,Andesite_rect,3,0,3,0,1,
663a77b9f973602bcedaf526,SCR,2024-06-24_14h32.52.636,LearnStrategy,2023.2.3,MacIntel,62.5,2,2,5,,,,,,,,2,06,,,,,,,,,,,,,5,2.605,0,,,,,,-0.334586466,-0.388471178,1,0,0,2.605,Obsidian_rect,4,0,4,0,1,
663a77b9f973602bcedaf526,SCR,2024-06-24_14h32.52.636,LearnStrategy,2023.2.3,MacIntel,62.5,2,2,6,,,,,,,,5,04,,,,,,,,,,,,,5,1.37,1,,,,,,-0.334586466,-0.388471178,1,0,0,1.37,Obsidian_rect,5,0,5,0,1,
663a77b9f973602bcedaf526,SCR,2024-06-24_14h32.52.636,LearnStrategy,2023.2.3,MacIntel,62.5,2,2,7,,,,,,,,7,16,,,,,,,,,,,,,3,2.208,0,,,,,,0.137844612,-0.258145363,1,0,0,2.208,Diorite_rect,6,0,6,0,1,
663a77b9f973602bcedaf526,SCR,2024-06-24_14h32.52.636,LearnStrategy,2023.2.3,MacIntel,62.5,2,2,8,,,,,,,,4,12,,,,,,,,,,,,,1,2.593,0,,,,,,-0.343358396,-0.264411028,1,0,0,2.593,Andesite_rect,7,0,7,0,1,
663a77b9f973602bcedaf526,SCR,2024-06-24_14h32.52.636,LearnStrategy,2023.2.3,MacIntel,62.5,2,2,9,,,,,,,,6,06,,,,,,,,,,,,,6,2.167,1,,,,,,-0.154135338,-0.408521303,1,0,0,2.167,Pegmatite_rect,8,0,8,0,1,
663a77b9f973602bcedaf526,SCR,2024-06-24_14h32.52.636,LearnStrategy,2023.2.3,MacIntel,62.5,2,2,10,,,,,,,,4,09,,,,,,,,,,,,,1,4.27,0,,,,,,-0.322055138,-0.266917293,1,0,0,4.27,Andesite_rect,9,0,9,0,1,
663a77b9f973602bcedaf526,SCR,2024-06-24_14h32.52.636,LearnStrategy,2023.2.3,MacIntel,62.5,2,2,11,,,,,,,,8,14,,,,,,,,,,,,,8,1.154,1,,,,,,0.4160401,-0.40726817,1,0,0,1.154,Pumice_rect,10,0,10,0,1,
663a77b9f973602bcedaf526,SCR,2024-06-24_14h32.52.636,LearnStrategy,2023.2.3,MacIntel,62.5,2,2,12,,,,,,,,3,10,,,,,,,,,,,,,1,1.334,0,,,,,,-0.344611529,-0.239348371,1,0,0,1.334,Andesite_rect,11,0,11,0,1,
663a77b9f973602bcedaf526,SCR,2024-06-24_14h32.52.636,LearnStrategy,2023.2.3,MacIntel,62.5,2,2,13,,,,,,,,1,03,,,,,,,,,,,,,4,1.805,0,,,,,,0.478696742,-0.253132832,1,0,0,1.805,Gabbro_rect,12,0,12,0,1,
663a77b9f973602bcedaf526,SCR,2024-06-24_14h32.52.636,LearnStrategy,2023.2.3,MacIntel,62.5,2,2,14,,,,,,,,1,02,,,,,,,,,,,,,4,0.937,0,,,,,,0.471177945,-0.251879699,1,0,0,0.937,Gabbro_rect,13,0,13,0,1,
663a77b9f973602bcedaf526,SCR,2024-06-24_14h32.52.636,LearnStrategy,2023.2.3,MacIntel,62.5,2,2,15,,,,,,,,6,03,,,,,,,,,,,,,5,1.138,0,,,,,,-0.36716792,-0.379699248,1,0,0,1.138,Obsidian_rect,14,0,14,0,1,
663a77b9f973602bcedaf526,SCR,2024-06-24_14h32.52.636,LearnStrategy,2023.2.3,MacIntel,62.5,2,2,16,,,,,,,,2,01,,,,,,,,,,,,,2,5.901,1,,,,,,-0.157894737,-0.259398496,1,0,0,5.901,Basalt_rect,15,0,15,0,1,
663a77b9f973602bcedaf526,SCR,2024-06-24_14h32.52.636,LearnStrategy,2023.2.3,MacIntel,62.5,3,1,1,-0.121553885,0.406015038,1,0,0,4.08,Peridotite_12,7,12,6,4,4.08,3,14,-0.353383459,-0.239348371,1,0,0,1.705,Andesite_rect,1,1.705,0,0,0,0,0,1,,,,,,,,,,,,,
663a77b9f973602bcedaf526,SCR,2024-06-24_14h32.52.636,LearnStrategy,2023.2.3,MacIntel,62.5,3,1,2,-0.184210526,0.370927318,1,0,0,1.499,Diorite_09,3,09,6,3,1.499,1,06,0.131578947,-0.401002506,1,0,0,1.889,Peridotite_rect,7,1.889,0,1,0,1,0,1,,,,,,,,,,,,,
663a77b9f973602bcedaf526,SCR,2024-06-24_14h32.52.636,LearnStrategy,2023.2.3,MacIntel,62.5,3,1,3,0.230576441,0.29197995,1,0,0,1.082,Gabbro_14,4,14,5,6,1.082,2,05,0.135338346,-0.249373434,1,0,0,2.526,Diorite_rect,3,2.526,0,2,0,2,0,1,,,,,,,,,,,,,
663a77b9f973602bcedaf526,SCR,2024-06-24_14h32.52.636,LearnStrategy,2023.2.3,MacIntel,62.5,3,1,4,-0.55764411,0.383458647,1,0,0,1.699,Gabbro_05,4,05,6,1,1.699,7,02,-0.389724311,-0.240601504,1,0,0,1.811,Andesite_rect,1,1.811,0,3,0,3,0,1,,,,,,,,,,,,,
663a77b9f973602bcedaf526,SCR,2024-06-24_14h32.52.636,LearnStrategy,2023.2.3,MacIntel,62.5,3,1,5,-0.389724311,0.382205514,1,0,0,0.832,Gabbro_16,4,16,6,2,0.832,3,08,0.37593985,-0.266917293,1,0,0,0.906,Gabbro_rect,4,0.906,1,4,0,4,0,1,,,,,,,,,,,,,
663a77b9f973602bcedaf526,SCR,2024-06-24_14h32.52.636,LearnStrategy,2023.2.3,MacIntel,62.5,3,1,6,-0.206766917,0.408521303,1,0,0,0.749,Diorite_09,3,09,6,3,0.749,4,03,-0.315789474,-0.235588972,1,0,0,1.159,Andesite_rect,1,1.159,0,5,0,5,0,1,,,,,,,,,,,,,
663a77b9f973602bcedaf526,SCR,2024-06-24_14h32.52.636,LearnStrategy,2023.2.3,MacIntel,62.5,3,1,7,-0.098997494,0.393483709,1,0,0,0.616,Peridotite_12,7,12,6,4,0.616,3,08,0.136591479,-0.253132832,1,0,0,0.742,Diorite_rect,3,0.742,0,6,0,6,0,1,,,,,,,,,,,,,
663a77b9f973602bcedaf526,SCR,2024-06-24_14h32.52.636,LearnStrategy,2023.2.3,MacIntel,62.5,3,1,8,0.260651629,0.4160401,1,0,0,0.699,Andesite_07,1,07,6,6,0.699,4,14,-0.379699248,-0.243107769,1,0,0,1.543,Andesite_rect,1,1.543,1,7,0,7,0,1,,,,,,,,,,,,,
663a77b9f973602bcedaf526,SCR,2024-06-24_14h32.52.636,LearnStrategy,2023.2.3,MacIntel,62.5,3,1,9,0.414786967,0.380952381,1,0,0,0.8,Basalt_14,2,14,6,7,0.8,6,10,0.383458647,-0.398496241,1,0,0,1.391,Pumice_rect,8,1.391,0,8,0,8,0,1,,,,,,,,,,,,,
663a77b9f973602bcedaf526,SCR,2024-06-24_14h32.52.636,LearnStrategy,2023.2.3,MacIntel,62.5,3,1,10,0.533834586,0.37593985,1,0,0,0.866,Gabbro_08,4,08,6,8,0.866,6,07,-0.42481203,-0.228070175,1,0,0,6.258,Andesite_rect,1,6.258,0,9,0,9,0,1,,,,,,,,,,,,,
663a77b9f973602bcedaf526,SCR,2024-06-24_14h32.52.636,LearnStrategy,2023.2.3,MacIntel,62.5,3,1,11,-0.568922306,0.233082707,1,0,0,1.398,Obsidian_07,5,07,5,1,1.398,7,02,0.149122807,-0.399749373,1,0,0,2.111,Peridotite_rect,7,2.111,0,10,0,10,0,1,,,,,,,,,,,,,
663a77b9f973602bcedaf526,SCR,2024-06-24_14h32.52.636,LearnStrategy,2023.2.3,MacIntel,62.5,3,1,12,-0.402255639,0.244360902,1,0,0,0.782,Pumice_10,8,10,5,2,0.782,7,02,0.383458647,-0.395989975,1,0,0,0.863,Pumice_rect,8,0.863,1,11,0,11,0,1,,,,,,,,,,,,,
663a77b9f973602bcedaf526,SCR,2024-06-24_14h32.52.636,LearnStrategy,2023.2.3,MacIntel,62.5,3,1,13,-0.240601504,0.259398496,1,0,0,0.799,Basalt_04,2,04,5,3,0.799,4,03,-0.156641604,-0.246867168,1,0,0,1.241,Basalt_rect,2,1.241,1,12,0,12,0,1,,,,,,,,,,,,,
663a77b9f973602bcedaf526,SCR,2024-06-24_14h32.52.636,LearnStrategy,2023.2.3,MacIntel,62.5,3,1,14,-0.058897243,0.303258145,1,0,0,0.584,Pegmatite_15,6,15,5,4,0.584,5,11,-0.093984962,-0.397243108,1,0,0,1.377,Pegmatite_rect,6,1.377,1,13,0,13,0,1,,,,,,,,,,,,,
663a77b9f973602bcedaf526,SCR,2024-06-24_14h32.52.636,LearnStrategy,2023.2.3,MacIntel,62.5,3,1,15,0.055137845,0.289473684,1,0,0,0.882,Pegmatite_11,6,11,5,5,0.882,1,16,-0.107769424,-0.389724311,1,0,0,0.845,Pegmatite_rect,6,0.845,1,14,0,14,0,1,,,,,,,,,,,,,
663a77b9f973602bcedaf526,SCR,2024-06-24_14h32.52.636,LearnStrategy,2023.2.3,MacIntel,62.5,3,1,16,0.218045113,0.261904762,1,0,0,0.865,Gabbro_14,4,14,5,6,0.865,1,14,0.080200501,-0.239348371,1,0,0,3.845,Diorite_rect,3,3.845,0,15,0,15,0,1,,,,,,,,,,,,,
663a77b9f973602bcedaf526,SCR,2024-06-24_14h32.52.636,LearnStrategy,2023.2.3,MacIntel,62.5,3,2,1,,,,,,,,6,05,,,,,,,,,,,,,6,1.492,1,,,,,,-0.156641604,-0.399749373,1,0,0,1.492,Pegmatite_rect,0,0,0,0,1,
663a77b9f973602bcedaf526,SCR,2024-06-24_14h32.52.636,LearnStrategy,2023.2.3,MacIntel,62.5,3,2,2,,,,,,,,1,01,,,,,,,,,,,,,1,3.822,1,,,,,,-0.354636591,-0.240601504,1,0,0,3.822,Andesite_rect,1,0,1,0,1,
663a77b9f973602bcedaf526,SCR,2024-06-24_14h32.52.636,LearnStrategy,2023.2.3,MacIntel,62.5,3,2,3,,,,,,,,5,06,,,,,,,,,,,,,5,3.921,1,,,,,,-0.383458647,-0.397243108,1,0,0,3.921,Obsidian_rect,2,0,2,0,1,
663a77b9f973602bcedaf526,SCR,2024-06-24_14h32.52.636,LearnStrategy,2023.2.3,MacIntel,62.5,3,2,4,,,,,,,,5,05,,,,,,,,,,,,,5,1.4,1,,,,,,-0.383458647,-0.397243108,1,0,0,1.4,Obsidian_rect,3,0,3,0,1,
663a77b9f973602bcedaf526,SCR,2024-06-24_14h32.52.636,LearnStrategy,2023.2.3,MacIntel,62.5,3,2,5,,,,,,,,4,11,,,,,,,,,,,,,2,9.369,0,,,,,,-0.101503759,-0.263157895,1,0,0,9.369,Basalt_rect,4,0,4,0,1,
663a77b9f973602bcedaf526,SCR,2024-06-24_14h32.52.636,LearnStrategy,2023.2.3,MacIntel,62.5,3,2,6,,,,,,,,2,09,,,,,,,,,,,,,2,0.605,1,,,,,,-0.101503759,-0.263157895,1,0,0,0.605,Basalt_rect,5,0,5,0,1,
663a77b9f973602bcedaf526,SCR,2024-06-24_14h32.52.636,LearnStrategy,2023.2.3,MacIntel,62.5,3,2,7,,,,,,,,8,05,,,,,,,,,,,,,8,1.319,1,,,,,,0.315789474,-0.398496241,1,0,0,1.319,Pumice_rect,6,0,6,0,1,
663a77b9f973602bcedaf526,SCR,2024-06-24_14h32.52.636,LearnStrategy,2023.2.3,MacIntel,62.5,3,2,8,,,,,,,,8,15,,,,,,,,,,,,,8,0.737,1,,,,,,0.315789474,-0.398496241,1,0,0,0.737,Pumice_rect,7,0,7,0,1,
663a77b9f973602bcedaf526,SCR,2024-06-24_14h32.52.636,LearnStrategy,2023.2.3,MacIntel,62.5,3,2,9,,,,,,,,6,12,,,,,,,,,,,,,6,1.887,1,,,,,,-0.160401003,-0.411027569,1,0,0,1.887,Pegmatite_rect,8,0,8,0,1,
663a77b9f973602bcedaf526,SCR,2024-06-24_14h32.52.636,LearnStrategy,2023.2.3,MacIntel,62.5,3,2,10,,,,,,,,4,01,,,,,,,,,,,,,4,3.833,1,,,,,,0.353383459,-0.245614035,1,0,0,3.833,Gabbro_rect,9,0,9,0,1,
663a77b9f973602bcedaf526,SCR,2024-06-24_14h32.52.636,LearnStrategy,2023.2.3,MacIntel,62.5,3,2,11,,,,,,,,3,11,,,,,,,,,,,,,4,1.043,0,,,,,,0.342105263,-0.230576441,1,0,0,1.043,Gabbro_rect,10,0,10,0,1,
663a77b9f973602bcedaf526,SCR,2024-06-24_14h32.52.636,LearnStrategy,2023.2.3,MacIntel,62.5,3,2,12,,,,,,,,7,10,,,,,,,,,,,,,7,1.905,1,,,,,,0.189223058,-0.401002506,1,0,0,1.905,Peridotite_rect,11,0,11,0,1,
663a77b9f973602bcedaf526,SCR,2024-06-24_14h32.52.636,LearnStrategy,2023.2.3,MacIntel,62.5,3,2,13,,,,,,,,3,07,,,,,,,,,,,,,6,2.487,0,,,,,,-0.144110276,-0.401002506,1,0,0,2.487,Pegmatite_rect,12,0,12,0,1,
663a77b9f973602bcedaf526,SCR,2024-06-24_14h32.52.636,LearnStrategy,2023.2.3,MacIntel,62.5,3,2,14,,,,,,,,2,12,,,,,,,,,,,,,8,4.49,0,,,,,,0.443609023,-0.384711779,1,0,0,4.49,Pumice_rect,13,0,13,0,1,
663a77b9f973602bcedaf526,SCR,2024-06-24_14h32.52.636,LearnStrategy,2023.2.3,MacIntel,62.5,3,2,15,,,,,,,,1,09,,,,,,,,,,,,,4,2.587,0,,,,,,0.409774436,-0.271929825,1,0,0,2.587,Gabbro_rect,14,0,14,0,1,
663a77b9f973602bcedaf526,SCR,2024-06-24_14h32.52.636,LearnStrategy,2023.2.3,MacIntel,62.5,3,2,16,,,,,,,,7,15,,,,,,,,,,,,,4,2.936,0,,,,,,0.409774436,-0.271929825,1,0,0,2.936,Gabbro_rect,15,0,15,0,1,
663a77b9f973602bcedaf526,SCR,2024-06-24_14h32.52.636,LearnStrategy,2023.2.3,MacIntel,62.5,4,1,1,0.600250627,0.271929825,1,0,0,3.132,Andesite_10,1,10,5,8,3.132,1,16,0.343358396,-0.26566416,1,0,0,1.788,Gabbro_rect,4,1.788,0,0,0,0,0,1,,,,,,,,,,,,,
663a77b9f973602bcedaf526,SCR,2024-06-24_14h32.52.636,LearnStrategy,2023.2.3,MacIntel,62.5,4,1,2,-0.563909774,0.076441103,1,0,0,1.033,Basalt_02,2,02,4,1,1.033,4,10,-0.185463659,-0.255639098,1,0,0,0.974,Basalt_rect,2,0.974,1,1,0,1,0,1,,,,,,,,,,,,,
663a77b9f973602bcedaf526,SCR,2024-06-24_14h32.52.636,LearnStrategy,2023.2.3,MacIntel,62.5,4,1,3,-0.36716792,0.106516291,1,0,0,0.814,Gabbro_03,4,03,4,2,0.814,7,13,-0.385964912,-0.238095238,1,0,0,1.274,Andesite_rect,1,1.274,0,2,0,2,0,1,,,,,,,,,,,,,
663a77b9f973602bcedaf526,SCR,2024-06-24_14h32.52.636,LearnStrategy,2023.2.3,MacIntel,62.5,4,1,4,-0.241854637,0.111528822,1,0,0,0.716,Obsidian_14,5,14,4,3,0.716,3,14,-0.362155388,-0.4160401,1,0,0,0.823,Obsidian_rect,5,0.823,1,3,0,3,0,1,,,,,,,,,,,,,
663a77b9f973602bcedaf526,SCR,2024-06-24_14h32.52.636,LearnStrategy,2023.2.3,MacIntel,62.5,4,1,5,-0.120300752,0.115288221,1,0,0,0.566,Obsidian_09,5,09,4,4,0.566,6,08,-0.374686717,-0.406015038,1,0,0,0.957,Obsidian_rect,5,0.957,1,4,0,4,0,1,,,,,,,,,,,,,
663a77b9f973602bcedaf526,SCR,2024-06-24_14h32.52.636,LearnStrategy,2023.2.3,MacIntel,62.5,4,1,6,0.076441103,0.072681704,1,0,0,0.565,Pumice_02,8,02,4,5,0.565,4,14,0.36716792,-0.403508772,1,0,0,1.377,Pumice_rect,8,1.377,1,5,0,5,0,1,,,,,,,,,,,,,
663a77b9f973602bcedaf526,SCR,2024-06-24_14h32.52.636,LearnStrategy,2023.2.3,MacIntel,62.5,4,1,7,0.244360902,0.105263158,1,0,0,0.647,Peridotite_05,7,05,4,6,0.647,5,14,0.368421053,-0.253132832,1,0,0,1.139,Gabbro_rect,4,1.139,0,6,0,6,0,1,,,,,,,,,,,,,
663a77b9f973602bcedaf526,SCR,2024-06-24_14h32.52.636,LearnStrategy,2023.2.3,MacIntel,62.5,4,1,8,0.35839599,0.097744361,1,0,0,0.767,Basalt_05,2,05,4,7,0.767,2,02,-0.191729323,-0.253132832,1,0,0,0.823,Basalt_rect,2,0.823,1,7,0,7,0,1,,,,,,,,,,,,,
663a77b9f973602bcedaf526,SCR,2024-06-24_14h32.52.636,LearnStrategy,2023.2.3,MacIntel,62.5,4,1,9,0.512531328,0.093984962,1,0,0,0.633,Peridotite_08,7,08,4,8,0.633,3,14,0.186716792,-0.239348371,1,0,0,1.891,Diorite_rect,3,1.891,0,8,0,8,0,1,,,,,,,,,,,,,
663a77b9f973602bcedaf526,SCR,2024-06-24_14h32.52.636,LearnStrategy,2023.2.3,MacIntel,62.5,4,1,10,-0.542606516,-0.072681704,1,0,0,1.166,Andesite_06,1,06,3,1,1.166,7,12,0.142857143,-0.404761905,1,0,0,0.759,Peridotite_rect,7,0.759,0,9,0,9,0,1,,,,,,,,,,,,,
663a77b9f973602bcedaf526,SCR,2024-06-24_14h32.52.636,LearnStrategy,2023.2.3,MacIntel,62.5,4,1,11,-0.399749373,-0.082706767,1,0,0,0.916,Diorite_02,3,02,3,2,0.916,3,13,0.056390977,-0.388471178,1,0,0,3.959,Peridotite_rect,7,3.959,0,10,0,10,0,1,,,,,,,,,,,,,
663a77b9f973602bcedaf526,SCR,2024-06-24_14h32.52.636,LearnStrategy,2023.2.3,MacIntel,62.5,4,1,12,-0.260651629,-0.07518797,1,0,0,0.764,Peridotite_02,7,02,3,3,0.764,2,04,0.154135338,-0.253132832,1,0,0,1.408,Diorite_rect,3,1.408,0,11,0,11,0,1,,,,,,,,,,,,,
663a77b9f973602bcedaf526,SCR,2024-06-24_14h32.52.636,LearnStrategy,2023.2.3,MacIntel,62.5,4,1,13,-0.130325815,-0.109022556,1,0,0,0.634,Basalt_08,2,08,3,4,0.634,4,08,-0.160401003,-0.230576441,1,0,0,0.624,Basalt_rect,2,0.624,1,12,0,12,0,1,,,,,,,,,,,,,
663a77b9f973602bcedaf526,SCR,2024-06-24_14h32.52.636,LearnStrategy,2023.2.3,MacIntel,62.5,4,1,14,0.072681704,-0.082706767,1,0,0,0.616,Pumice_03,8,03,3,5,0.616,7,13,0.345864662,-0.394736842,1,0,0,0.575,Pumice_rect,8,0.575,1,13,0,13,0,1,,,,,,,,,,,,,
663a77b9f973602bcedaf526,SCR,2024-06-24_14h32.52.636,LearnStrategy,2023.2.3,MacIntel,62.5,4,1,15,0.23433584,-0.120300752,1,0,0,0.633,Pumice_04,8,04,3,6,0.633,1,07,0.34085213,-0.385964912,1,0,0,0.525,Pumice_rect,8,0.525,1,14,0,14,0,1,,,,,,,,,,,,,
663a77b9f973602bcedaf526,SCR,2024-06-24_14h32.52.636,LearnStrategy,2023.2.3,MacIntel,62.5,4,1,16,0.397243108,-0.129072682,1,0,0,0.667,Pumice_13,8,13,3,7,0.667,1,06,0.368421053,-0.388471178,1,0,0,1.212,Pumice_rect,8,1.212,1,15,0,15,0,1,,,,,,,,,,,,,
663a77b9f973602bcedaf526,SCR,2024-06-24_14h32.52.636,LearnStrategy,2023.2.3,MacIntel,62.5,4,2,1,,,,,,,,8,06,,,,,,,,,,,,,8,1.053,1,,,,,,0.380952381,-0.395989975,1,0,0,1.053,Pumice_rect,0,0,0,0,1,
663a77b9f973602bcedaf526,SCR,2024-06-24_14h32.52.636,LearnStrategy,2023.2.3,MacIntel,62.5,4,2,2,,,,,,,,4,15,,,,,,,,,,,,,7,2.147,0,,,,,,0.186716792,-0.393483709,1,0,0,2.147,Peridotite_rect,1,0,1,0,1,
663a77b9f973602bcedaf526,SCR,2024-06-24_14h32.52.636,LearnStrategy,2023.2.3,MacIntel,62.5,4,2,3,,,,,,,,2,10,,,,,,,,,,,,,2,1.102,1,,,,,,-0.100250627,-0.238095238,1,0,0,1.102,Basalt_rect,2,0,2,0,1,
663a77b9f973602bcedaf526,SCR,2024-06-24_14h32.52.636,LearnStrategy,2023.2.3,MacIntel,62.5,4,2,4,,,,,,,,1,09,,,,,,,,,,,,,3,3.286,0,,,,,,0.140350877,-0.260651629,1,0,0,3.286,Diorite_rect,3,0,3,0,1,
663a77b9f973602bcedaf526,SCR,2024-06-24_14h32.52.636,LearnStrategy,2023.2.3,MacIntel,62.5,4,2,5,,,,,,,,3,15,,,,,,,,,,,,,3,0.921,1,,,,,,0.140350877,-0.260651629,1,0,0,0.921,Diorite_rect,4,0,4,0,1,
663a77b9f973602bcedaf526,SCR,2024-06-24_14h32.52.636,LearnStrategy,2023.2.3,MacIntel,62.5,4,2,6,,,,,,,,2,01,,,,,,,,,,,,,2,0.937,1,,,,,,-0.112781955,-0.263157895,1,0,0,0.937,Basalt_rect,5,0,5,0,1,
663a77b9f973602bcedaf526,SCR,2024-06-24_14h32.52.636,LearnStrategy,2023.2.3,MacIntel,62.5,4,2,7,,,,,,,,7,07,,,,,,,,,,,,,3,1.089,0,,,,,,0.120300752,-0.261904762,1,0,0,1.089,Diorite_rect,6,0,6,0,1,
663a77b9f973602bcedaf526,SCR,2024-06-24_14h32.52.636,LearnStrategy,2023.2.3,MacIntel,62.5,4,2,8,,,,,,,,3,10,,,,,,,,,,,,,3,0.905,1,,,,,,0.120300752,-0.261904762,1,0,0,0.905,Diorite_rect,7,0,7,0,1,
663a77b9f973602bcedaf526,SCR,2024-06-24_14h32.52.636,LearnStrategy,2023.2.3,MacIntel,62.5,4,2,9,,,,,,,,1,04,,,,,,,,,,,,,4,2.671,0,,,,,,0.392230576,-0.270676692,1,0,0,2.671,Gabbro_rect,8,0,8,0,1,
663a77b9f973602bcedaf526,SCR,2024-06-24_14h32.52.636,LearnStrategy,2023.2.3,MacIntel,62.5,4,2,10,,,,,,,,6,05,,,,,,,,,,,,,6,1.52,1,,,,,,-0.144110276,-0.395989975,1,0,0,1.52,Pegmatite_rect,9,0,9,0,1,
663a77b9f973602bcedaf526,SCR,2024-06-24_14h32.52.636,LearnStrategy,2023.2.3,MacIntel,62.5,4,2,11,,,,,,,,5,02,,,,,,,,,,,,,5,0.856,1,,,,,,-0.350877193,-0.409774436,1,0,0,0.856,Obsidian_rect,10,0,10,0,1,
663a77b9f973602bcedaf526,SCR,2024-06-24_14h32.52.636,LearnStrategy,2023.2.3,MacIntel,62.5,4,2,12,,,,,,,,7,06,,,,,,,,,,,,,3,1.156,0,,,,,,0.109022556,-0.231829574,1,0,0,1.156,Diorite_rect,11,0,11,0,1,
663a77b9f973602bcedaf526,SCR,2024-06-24_14h32.52.636,LearnStrategy,2023.2.3,MacIntel,62.5,4,2,13,,,,,,,,8,05,,,,,,,,,,,,,8,2.822,1,,,,,,0.390977444,-0.378446115,1,0,0,2.822,Pumice_rect,12,0,12,0,1,
663a77b9f973602bcedaf526,SCR,2024-06-24_14h32.52.636,LearnStrategy,2023.2.3,MacIntel,62.5,4,2,14,,,,,,,,4,12,,,,,,,,,,,,,3,3.585,0,,,,,,0.122807018,-0.228070175,1,0,0,3.585,Diorite_rect,13,0,13,0,1,
663a77b9f973602bcedaf526,SCR,2024-06-24_14h32.52.636,LearnStrategy,2023.2.3,MacIntel,62.5,4,2,15,,,,,,,,5,06,,,,,,,,,,,,,5,0.891,1,,,,,,-0.443609023,-0.392230576,1,0,0,0.891,Obsidian_rect,14,0,14,0,1,
663a77b9f973602bcedaf526,SCR,2024-06-24_14h32.52.636,LearnStrategy,2023.2.3,MacIntel,62.5,4,2,16,,,,,,,,6,12,,,,,,,,,,,,,6,1.037,1,,,,,,-0.142857143,-0.390977444,1,0,0,1.037,Pegmatite_rect,15,0,15,0,1,
663a77b9f973602bcedaf526,SCR,2024-06-24_14h32.52.636,LearnStrategy,2023.2.3,MacIntel,62.5,5,1,1,-0.582706767,-0.261904762,1,0,0,5.044,Diorite_13,3,13,2,1,5.044,4,16,0.126566416,-0.256892231,1,0,0,2.461,Diorite_rect,3,2.461,1,0,0,0,0,1,,,,,,,,,,,,,
663a77b9f973602bcedaf526,SCR,2024-06-24_14h32.52.636,LearnStrategy,2023.2.3,MacIntel,62.5,5,1,2,-0.406015038,-0.245614035,1,0,0,0.748,Diorite_16,3,16,2,2,0.748,3,09,0.071428571,-0.271929825,1,0,0,0.578,Diorite_rect,3,0.578,1,1,0,1,0,1,,,,,,,,,,,,,
663a77b9f973602bcedaf526,SCR,2024-06-24_14h32.52.636,LearnStrategy,2023.2.3,MacIntel,62.5,5,1,3,-0.229323308,-0.273182957,1,0,0,0.766,Andesite_14,1,14,2,3,0.766,3,16,-0.36716792,-0.244360902,1,0,0,2.627,Andesite_rect,1,2.627,1,2,0,2,0,1,,,,,,,,,,,,,
663a77b9f973602bcedaf526,SCR,2024-06-24_14h32.52.636,LearnStrategy,2023.2.3,MacIntel,62.5,5,1,4,-0.036340852,-0.254385965,1,0,0,0.65,Diorite_14,3,14,2,4,0.65,7,12,-0.360902256,-0.248120301,1,0,0,0.608,Andesite_rect,1,0.608,0,3,0,3,0,1,,,,,,,,,,,,,
663a77b9f973602bcedaf526,SCR,2024-06-24_14h32.52.636,LearnStrategy,2023.2.3,MacIntel,62.5,5,1,5,0.077694236,-0.271929825,1,0,0,0.9,Basalt_11,2,11,2,5,0.9,4,10,0.402255639,-0.412280702,1,0,0,1.309,Pumice_rect,8,1.309,0,4,0,4,0,1,,,,,,,,,,,,,
663a77b9f973602bcedaf526,SCR,2024-06-24_14h32.52.636,LearnStrategy,2023.2.3,MacIntel,62.5,5,1,6,0.219298246,-0.284461153,1,0,0,1.616,Obsidian_08,5,08,2,6,1.616,3,14,-0.369674185,-0.401002506,1,0,0,0.857,Obsidian_rect,5,0.857,1,5,0,5,0,1,,,,,,,,,,,,,
663a77b9f973602bcedaf526,SCR,2024-06-24_14h32.52.636,LearnStrategy,2023.2.3,MacIntel,62.5,5,1,7,0.431077694,-0.289473684,1,0,0,0.8,Pegmatite_10,6,10,2,7,0.8,1,14,-0.119047619,-0.387218045,1,0,0,1.807,Pegmatite_rect,6,1.807,1,6,0,6,0,1,,,,,,,,,,,,,
663a77b9f973602bcedaf526,SCR,2024-06-24_14h32.52.636,LearnStrategy,2023.2.3,MacIntel,62.5,5,1,8,0.547619048,-0.294486216,1,0,0,0.716,Diorite_08,3,08,2,8,0.716,7,04,0.15037594,-0.26566416,1,0,0,0.956,Diorite_rect,3,0.956,1,7,0,7,0,1,,,,,,,,,,,,,
663a77b9f973602bcedaf526,SCR,2024-06-24_14h32.52.636,LearnStrategy,2023.2.3,MacIntel,62.5,5,1,9,-0.602756892,-0.409774436,1,0,0,0.865,Pegmatite_08,6,08,1,1,0.865,4,10,-0.181704261,-0.403508772,1,0,0,0.877,Pegmatite_rect,6,0.877,1,8,0,8,0,1,,,,,,,,,,,,,
663a77b9f973602bcedaf526,SCR,2024-06-24_14h32.52.636,LearnStrategy,2023.2.3,MacIntel,62.5,5,1,10,-0.392230576,-0.413533835,1,0,0,0.632,Pegmatite_16,6,16,1,2,0.632,4,05,-0.100250627,-0.390977444,1,0,0,0.642,Pegmatite_rect,6,0.642,1,9,0,9,0,1,,,,,,,,,,,,,
663a77b9f973602bcedaf526,SCR,2024-06-24_14h32.52.636,LearnStrategy,2023.2.3,MacIntel,62.5,5,1,11,-0.23433584,-0.379699248,1,0,0,0.633,Pumice_08,8,08,1,3,0.633,5,16,0.307017544,-0.389724311,1,0,0,0.626,Pumice_rect,8,0.626,1,10,0,10,0,1,,,,,,,,,,,,,
663a77b9f973602bcedaf526,SCR,2024-06-24_14h32.52.636,LearnStrategy,2023.2.3,MacIntel,62.5,5,1,12,-0.071428571,-0.4160401,1,0,0,1.065,Andesite_11,1,11,1,4,1.065,1,11,0.165413534,-0.268170426,1,0,0,1.194,Diorite_rect,3,1.194,0,11,0,11,0,1,,,,,,,,,,,,,
663a77b9f973602bcedaf526,SCR,2024-06-24_14h32.52.636,LearnStrategy,2023.2.3,MacIntel,62.5,5,1,13,0.051378446,-0.42481203,1,0,0,0.883,Pegmatite_07,6,07,1,5,0.883,6,10,-0.070175439,-0.385964912,1,0,0,0.693,Pegmatite_rect,6,0.693,1,12,0,12,0,1,,,,,,,,,,,,,
663a77b9f973602bcedaf526,SCR,2024-06-24_14h32.52.636,LearnStrategy,2023.2.3,MacIntel,62.5,5,1,14,0.23433584,-0.436090226,1,0,0,0.832,Obsidian_11,5,11,1,6,0.832,7,12,-0.318295739,-0.406015038,1,0,0,0.742,Obsidian_rect,5,0.742,1,13,0,13,0,1,,,,,,,,,,,,,
663a77b9f973602bcedaf526,SCR,2024-06-24_14h32.52.636,LearnStrategy,2023.2.3,MacIntel,62.5,5,1,15,0.401002506,-0.378446115,1,0,0,0.732,Peridotite_04,7,04,1,7,0.732,1,07,0.186716792,-0.245614035,1,0,0,1.411,Diorite_rect,3,1.411,0,14,0,14,0,1,,,,,,,,,,,,,
663a77b9f973602bcedaf526,SCR,2024-06-24_14h32.52.636,LearnStrategy,2023.2.3,MacIntel,62.5,5,1,16,0.561403509,-0.403508772,1,0,0,1.048,Gabbro_10,4,10,1,8,1.048,2,08,0.098997494,-0.264411028,1,0,0,2.511,Diorite_rect,3,2.511,0,15,0,15,0,1,,,,,,,,,,,,,
663a77b9f973602bcedaf526,SCR,2024-06-24_14h32.52.636,LearnStrategy,2023.2.3,MacIntel,62.5,5,2,1,,,,,,,,8,15,,,,,,,,,,,,,8,2.035,1,,,,,,0.332080201,-0.401002506,1,0,0,2.035,Pumice_rect,0,0,0,0,1,
663a77b9f973602bcedaf526,SCR,2024-06-24_14h32.52.636,LearnStrategy,2023.2.3,MacIntel,62.5,5,2,2,,,,,,,,6,06,,,,,,,,,,,,,6,1.611,1,,,,,,-0.109022556,-0.382205514,1,0,0,1.611,Pegmatite_rect,1,0,1,0,1,
663a77b9f973602bcedaf526,SCR,2024-06-24_14h32.52.636,LearnStrategy,2023.2.3,MacIntel,62.5,5,2,3,,,,,,,,3,11,,,,,,,,,,,,,3,1.469,1,,,,,,0.129072682,-0.259398496,1,0,0,1.469,Diorite_rect,2,0,2,0,1,
663a77b9f973602bcedaf526,SCR,2024-06-24_14h32.52.636,LearnStrategy,2023.2.3,MacIntel,62.5,5,2,4,,,,,,,,2,16,,,,,,,,,,,,,2,1.184,1,,,,,,-0.100250627,-0.258145363,1,0,0,1.184,Basalt_rect,3,0,3,0,1,
663a77b9f973602bcedaf526,SCR,2024-06-24_14h32.52.636,LearnStrategy,2023.2.3,MacIntel,62.5,5,2,5,,,,,,,,6,03,,,,,,,,,,,,,6,0.872,1,,,,,,-0.114035088,-0.390977444,1,0,0,0.872,Pegmatite_rect,4,0,4,0,1,
663a77b9f973602bcedaf526,SCR,2024-06-24_14h32.52.636,LearnStrategy,2023.2.3,MacIntel,62.5,5,2,6,,,,,,,,2,09,,,,,,,,,,,,,2,0.903,1,,,,,,-0.117794486,-0.253132832,1,0,0,0.903,Basalt_rect,5,0,5,0,1,
663a77b9f973602bcedaf526,SCR,2024-06-24_14h32.52.636,LearnStrategy,2023.2.3,MacIntel,62.5,5,2,7,,,,,,,,5,04,,,,,,,,,,,,,5,1.005,1,,,,,,-0.359649123,-0.397243108,1,0,0,1.005,Obsidian_rect,6,0,6,0,1,
663a77b9f973602bcedaf526,SCR,2024-06-24_14h32.52.636,LearnStrategy,2023.2.3,MacIntel,62.5,5,2,8,,,,,,,,8,14,,,,,,,,,,,,,8,1.02,1,,,,,,0.459899749,-0.413533835,1,0,0,1.02,Pumice_rect,7,0,7,0,1,
663a77b9f973602bcedaf526,SCR,2024-06-24_14h32.52.636,LearnStrategy,2023.2.3,MacIntel,62.5,5,2,9,,,,,,,,1,02,,,,,,,,,,,,,3,1.256,0,,,,,,0.192982456,-0.235588972,1,0,0,1.256,Diorite_rect,8,0,8,0,1,
663a77b9f973602bcedaf526,SCR,2024-06-24_14h32.52.636,LearnStrategy,2023.2.3,MacIntel,62.5,5,2,10,,,,,,,,7,15,,,,,,,,,,,,,3,1.787,0,,,,,,0.192982456,-0.235588972,1,0,0,1.787,Diorite_rect,9,0,9,0,1,
663a77b9f973602bcedaf526,SCR,2024-06-24_14h32.52.636,LearnStrategy,2023.2.3,MacIntel,62.5,5,2,11,,,,,,,,1,03,,,,,,,,,,,,,3,1.438,0,,,,,,0.191729323,-0.236842105,1,0,0,1.438,Diorite_rect,10,0,10,0,1,
663a77b9f973602bcedaf526,SCR,2024-06-24_14h32.52.636,LearnStrategy,2023.2.3,MacIntel,62.5,5,2,12,,,,,,,,4,09,,,,,,,,,,,,,1,2.621,0,,,,,,-0.380952381,-0.235588972,1,0,0,2.621,Andesite_rect,11,0,11,0,1,
663a77b9f973602bcedaf526,SCR,2024-06-24_14h32.52.636,LearnStrategy,2023.2.3,MacIntel,62.5,5,2,13,,,,,,,,7,16,,,,,,,,,,,,,3,2.268,0,,,,,,0.095238095,-0.255639098,1,0,0,2.268,Diorite_rect,12,0,12,0,1,
663a77b9f973602bcedaf526,SCR,2024-06-24_14h32.52.636,LearnStrategy,2023.2.3,MacIntel,62.5,5,2,14,,,,,,,,5,10,,,,,,,,,,,,,5,0.945,1,,,,,,-0.378446115,-0.382205514,1,0,0,0.945,Obsidian_rect,13,0,13,0,1,
663a77b9f973602bcedaf526,SCR,2024-06-24_14h32.52.636,LearnStrategy,2023.2.3,MacIntel,62.5,5,2,15,,,,,,,,3,06,,,,,,,,,,,,,3,3.388,1,,,,,,0.097744361,-0.258145363,1,0,0,3.388,Diorite_rect,14,0,14,0,1,
663a77b9f973602bcedaf526,SCR,2024-06-24_14h32.52.636,LearnStrategy,2023.2.3,MacIntel,62.5,5,2,16,,,,,,,,4,11,,,,,,,,,,,,,2,3.121,0,,,,,,-0.111528822,-0.249373434,1,0,0,3.121,Basalt_rect,15,0,15,0,1,
663a77b9f973602bcedaf526,SCR,2024-06-24_14h32.52.636,LearnStrategy,2023.2.3,MacIntel,62.5,6,1,1,0.378446115,-0.417293233,1,0,0,3.612,Peridotite_04,7,04,1,7,3.612,5,09,0.12406015,-0.388471178,1,0,0,3.741,Peridotite_rect,7,3.741,1,0,0,0,0,1,,,,,,,,,,,,,
663a77b9f973602bcedaf526,SCR,2024-06-24_14h32.52.636,LearnStrategy,2023.2.3,MacIntel,62.5,6,1,2,0.194235589,-0.412280702,1,0,0,1.401,Obsidian_11,5,11,1,6,1.401,7,13,-0.370927318,-0.404761905,1,0,0,0.721,Obsidian_rect,5,0.721,1,1,0,1,0,1,,,,,,,,,,,,,
663a77b9f973602bcedaf526,SCR,2024-06-24_14h32.52.636,LearnStrategy,2023.2.3,MacIntel,62.5,6,1,3,0.076441103,-0.398496241,1,0,0,0.6,Pegmatite_07,6,07,1,5,0.6,4,14,0.076441103,-0.398496241,1,0,0,0.474,Peridotite_rect,7,0.474,0,2,0,2,0,1,,,,,,,,,,,,,
663a77b9f973602bcedaf526,SCR,2024-06-24_14h32.52.636,LearnStrategy,2023.2.3,MacIntel,62.5,6,1,4,-0.058897243,-0.421052632,1,0,0,1.032,Andesite_11,1,11,1,4,1.032,4,03,0.165413534,-0.248120301,1,0,0,0.926,Diorite_rect,3,0.926,0,3,0,3,0,1,,,,,,,,,,,,,
663a77b9f973602bcedaf526,SCR,2024-06-24_14h32.52.636,LearnStrategy,2023.2.3,MacIntel,62.5,6,1,5,-0.254385965,-0.42481203,1,0,0,1.066,Pumice_08,8,08,1,3,1.066,4,08,0.385964912,-0.388471178,1,0,0,0.957,Pumice_rect,8,0.957,1,4,0,4,0,1,,,,,,,,,,,,,
663a77b9f973602bcedaf526,SCR,2024-06-24_14h32.52.636,LearnStrategy,2023.2.3,MacIntel,62.5,6,1,6,-0.398496241,-0.406015038,1,0,0,0.766,Pegmatite_16,6,16,1,2,0.766,3,13,-0.110275689,-0.388471178,1,0,0,0.457,Pegmatite_rect,6,0.457,1,5,0,5,0,1,,,,,,,,,,,,,
663a77b9f973602bcedaf526,SCR,2024-06-24_14h32.52.636,LearnStrategy,2023.2.3,MacIntel,62.5,6,1,7,-0.535087719,-0.390977444,1,0,0,0.698,Pegmatite_08,6,08,1,1,0.698,7,04,-0.142857143,-0.392230576,1,0,0,0.874,Pegmatite_rect,6,0.874,1,6,0,6,0,1,,,,,,,,,,,,,
663a77b9f973602bcedaf526,SCR,2024-06-24_14h32.52.636,LearnStrategy,2023.2.3,MacIntel,62.5,6,1,8,0.521303258,-0.245614035,1,0,0,0.916,Diorite_08,3,08,2,8,0.916,2,08,0.218045113,-0.248120301,1,0,0,1.042,Diorite_rect,3,1.042,1,7,0,7,0,1,,,,,,,,,,,,,
663a77b9f973602bcedaf526,SCR,2024-06-24_14h32.52.636,LearnStrategy,2023.2.3,MacIntel,62.5,6,1,9,-0.062656642,-0.263157895,1,0,0,1.415,Diorite_14,3,14,2,4,1.415,1,14,0.072681704,-0.255639098,1,0,0,0.525,Diorite_rect,3,0.525,1,8,0,8,0,1,,,,,,,,,,,,,
663a77b9f973602bcedaf526,SCR,2024-06-24_14h32.52.636,LearnStrategy,2023.2.3,MacIntel,62.5,6,1,10,0.423558897,-0.284461153,1,0,0,0.832,Pegmatite_10,6,10,2,7,0.832,1,10,-0.146616541,-0.385964912,1,0,0,1.51,Pegmatite_rect,6,1.51,1,9,0,9,0,1,,,,,,,,,,,,,
663a77b9f973602bcedaf526,SCR,2024-06-24_14h32.52.636,LearnStrategy,2023.2.3,MacIntel,62.5,6,1,11,0.27443609,-0.258145363,1,0,0,0.666,Obsidian_08,5,08,2,6,0.666,3,09,-0.382205514,-0.378446115,1,0,0,0.607,Obsidian_rect,5,0.607,1,10,0,10,0,1,,,,,,,,,,,,,
663a77b9f973602bcedaf526,SCR,2024-06-24_14h32.52.636,LearnStrategy,2023.2.3,MacIntel,62.5,6,1,12,0.0839599,-0.27443609,1,0,0,0.782,Basalt_11,2,11,2,5,0.782,1,06,0.387218045,-0.394736842,1,0,0,0.756,Pumice_rect,8,0.756,0,11,0,11,0,1,,,,,,,,,,,,,
663a77b9f973602bcedaf526,SCR,2024-06-24_14h32.52.636,LearnStrategy,2023.2.3,MacIntel,62.5,6,1,13,-0.053884712,-0.249373434,1,0,0,0.983,Diorite_14,3,14,2,4,0.983,4,16,0.378446115,-0.250626566,1,0,0,0.606,Gabbro_rect,4,0.606,0,12,0,12,0,1,,,,,,,,,,,,,
663a77b9f973602bcedaf526,SCR,2024-06-24_14h32.52.636,LearnStrategy,2023.2.3,MacIntel,62.5,6,1,14,-0.056390977,-0.244360902,1,0,0,0.549,Diorite_14,3,14,2,4,0.549,7,12,0.203007519,-0.251879699,1,0,0,0.493,Diorite_rect,3,0.493,1,13,0,13,0,1,,,,,,,,,,,,,
663a77b9f973602bcedaf526,SCR,2024-06-24_14h32.52.636,LearnStrategy,2023.2.3,MacIntel,62.5,6,1,15,-0.258145363,-0.238095238,1,0,0,0.783,Andesite_14,1,14,2,3,0.783,6,11,0.151629073,-0.255639098,1,0,0,0.99,Diorite_rect,3,0.99,0,14,0,14,0,1,,,,,,,,,,,,,
663a77b9f973602bcedaf526,SCR,2024-06-24_14h32.52.636,LearnStrategy,2023.2.3,MacIntel,62.5,6,1,16,-0.374686717,-0.248120301,1,0,0,0.7,Diorite_16,3,16,2,2,0.7,1,11,0.091478697,-0.256892231,1,0,0,0.959,Diorite_rect,3,0.959,1,15,0,15,0,1,,,,,,,,,,,,,
663a77b9f973602bcedaf526,SCR,2024-06-24_14h32.52.636,LearnStrategy,2023.2.3,MacIntel,62.5,6,2,1,,,,,,,,6,09,,,,,,,,,,,,,6,1.171,1,,,,,,-0.175438596,-0.382205514,1,0,0,1.171,Pegmatite_rect,0,0,0,0,1,
663a77b9f973602bcedaf526,SCR,2024-06-24_14h32.52.636,LearnStrategy,2023.2.3,MacIntel,62.5,6,2,2,,,,,,,,7,14,,,,,,,,,,,,,3,2.221,0,,,,,,0.116541353,-0.251879699,1,0,0,2.221,Diorite_rect,1,0,1,0,1,
663a77b9f973602bcedaf526,SCR,2024-06-24_14h32.52.636,LearnStrategy,2023.2.3,MacIntel,62.5,6,2,3,,,,,,,,2,06,,,,,,,,,,,,,2,1.67,1,,,,,,-0.077694236,-0.249373434,1,0,0,1.67,Basalt_rect,2,0,2,0,1,
663a77b9f973602bcedaf526,SCR,2024-06-24_14h32.52.636,LearnStrategy,2023.2.3,MacIntel,62.5,6,2,4,,,,,,,,7,10,,,,,,,,,,,,,3,1.003,0,,,,,,0.119047619,-0.26566416,1,0,0,1.003,Diorite_rect,3,0,3,0,1,
663a77b9f973602bcedaf526,SCR,2024-06-24_14h32.52.636,LearnStrategy,2023.2.3,MacIntel,62.5,6,2,5,,,,,,,,3,12,,,,,,,,,,,,,3,1.254,1,,,,,,0.119047619,-0.26566416,1,0,0,1.254,Diorite_rect,4,0,4,0,1,
663a77b9f973602bcedaf526,SCR,2024-06-24_14h32.52.636,LearnStrategy,2023.2.3,MacIntel,62.5,6,2,6,,,,,,,,2,12,,,,,,,,,,,,,2,1.341,1,,,,,,-0.080200501,-0.258145363,1,0,0,1.341,Basalt_rect,5,0,5,0,1,
663a77b9f973602bcedaf526,SCR,2024-06-24_14h32.52.636,LearnStrategy,2023.2.3,MacIntel,62.5,6,2,7,,,,,,,,3,07,,,,,,,,,,,,,3,2.22,1,,,,,,0.081453634,-0.26566416,1,0,0,2.22,Diorite_rect,6,0,6,0,1,
663a77b9f973602bcedaf526,SCR,2024-06-24_14h32.52.636,LearnStrategy,2023.2.3,MacIntel,62.5,6,2,8,,,,,,,,8,16,,,,,,,,,,,,,8,1.17,1,,,,,,0.352130326,-0.418546366,1,0,0,1.17,Pumice_rect,7,0,7,0,1,
663a77b9f973602bcedaf526,SCR,2024-06-24_14h32.52.636,LearnStrategy,2023.2.3,MacIntel,62.5,6,2,9,,,,,,,,5,05,,,,,,,,,,,,,6,1.072,0,,,,,,-0.101503759,-0.406015038,1,0,0,1.072,Pegmatite_rect,8,0,8,0,1,
663a77b9f973602bcedaf526,SCR,2024-06-24_14h32.52.636,LearnStrategy,2023.2.3,MacIntel,62.5,6,2,10,,,,,,,,5,12,,,,,,,,,,,,,5,1.119,1,,,,,,-0.369674185,-0.383458647,1,0,0,1.119,Obsidian_rect,9,0,9,0,1,
663a77b9f973602bcedaf526,SCR,2024-06-24_14h32.52.636,LearnStrategy,2023.2.3,MacIntel,62.5,6,2,11,,,,,,,,1,05,,,,,,,,,,,,,3,1.305,0,,,,,,0.107769424,-0.268170426,1,0,0,1.305,Diorite_rect,10,0,10,0,1,
663a77b9f973602bcedaf526,SCR,2024-06-24_14h32.52.636,LearnStrategy,2023.2.3,MacIntel,62.5,6,2,12,,,,,,,,8,09,,,,,,,,,,,,,8,1.388,1,,,,,,0.339598997,-0.395989975,1,0,0,1.388,Pumice_rect,11,0,11,0,1,
663a77b9f973602bcedaf526,SCR,2024-06-24_14h32.52.636,LearnStrategy,2023.2.3,MacIntel,62.5,6,2,13,,,,,,,,4,13,,,,,,,,,,,,,3,1.154,0,,,,,,0.131578947,-0.269423559,1,0,0,1.154,Diorite_rect,12,0,12,0,1,
663a77b9f973602bcedaf526,SCR,2024-06-24_14h32.52.636,LearnStrategy,2023.2.3,MacIntel,62.5,6,2,14,,,,,,,,6,13,,,,,,,,,,,,,6,0.952,1,,,,,,-0.111528822,-0.387218045,1,0,0,0.952,Pegmatite_rect,13,0,13,0,1,
663a77b9f973602bcedaf526,SCR,2024-06-24_14h32.52.636,LearnStrategy,2023.2.3,MacIntel,62.5,6,2,15,,,,,,,,1,01,,,,,,,,,,,,,3,4.455,0,,,,,,0.061403509,-0.241854637,1,0,0,4.455,Diorite_rect,14,0,14,0,1,
663a77b9f973602bcedaf526,SCR,2024-06-24_14h32.52.636,LearnStrategy,2023.2.3,MacIntel,62.5,6,2,16,,,,,,,,4,01,,,,,,,,,,,,,1,3.055,0,,,,,,-0.362155388,-0.241854637,1,0,0,3.055,Andesite_rect,15,0,15,0,1,
663a77b9f973602bcedaf526,SCR,2024-06-24_14h32.52.636,LearnStrategy,2023.2.3,MacIntel,62.5,7,1,1,-0.540100251,-0.238095238,1,0,0,1.565,Diorite_13,3,13,2,1,1.565,3,16,-0.383458647,-0.233082707,1,0,0,0.56,Andesite_rect,1,0.56,0,0,0,0,0,1,,,,,,,,,,,,,
663a77b9f973602bcedaf526,SCR,2024-06-24_14h32.52.636,LearnStrategy,2023.2.3,MacIntel,62.5,7,1,2,-0.390977444,-0.285714286,1,0,0,0.683,Diorite_16,3,16,2,2,0.683,4,08,-0.380952381,-0.26566416,1,0,0,0.508,Andesite_rect,1,0.508,0,1,0,1,0,1,,,,,,,,,,,,,
663a77b9f973602bcedaf526,SCR,2024-06-24_14h32.52.636,LearnStrategy,2023.2.3,MacIntel,62.5,7,1,3,-0.363408521,-0.082706767,1,0,0,0.815,Diorite_02,3,02,3,2,0.815,4,14,0.155388471,-0.246867168,1,0,0,0.69,Diorite_rect,3,0.69,1,2,0,2,0,1,,,,,,,,,,,,,
663a77b9f973602bcedaf526,SCR,2024-06-24_14h32.52.636,LearnStrategy,2023.2.3,MacIntel,62.5,7,1,4,-0.502506266,-0.077694236,1,0,0,0.816,Andesite_06,1,06,3,1,0.816,7,02,0.078947368,-0.253132832,1,0,0,1.192,Diorite_rect,3,1.192,0,3,0,3,0,1,,,,,,,,,,,,,
663a77b9f973602bcedaf526,SCR,2024-06-24_14h32.52.636,LearnStrategy,2023.2.3,MacIntel,62.5,7,1,5,-0.211779449,-0.090225564,1,0,0,0.666,Peridotite_02,7,02,3,3,0.666,5,07,0.070175439,-0.23433584,1,0,0,0.677,Diorite_rect,3,0.677,0,4,0,4,0,1,,,,,,,,,,,,,
663a77b9f973602bcedaf526,SCR,2024-06-24_14h32.52.636,LearnStrategy,2023.2.3,MacIntel,62.5,7,1,6,-0.196741855,-0.109022556,1,0,0,2.483,Peridotite_02,7,02,3,3,2.483,4,03,0.058897243,-0.397243108,1,0,0,1.343,Peridotite_rect,7,1.343,1,5,0,5,0,1,,,,,,,,,,,,,
663a77b9f973602bcedaf526,SCR,2024-06-24_14h32.52.636,LearnStrategy,2023.2.3,MacIntel,62.5,7,1,7,-0.413533835,0.086466165,1,0,0,1.084,Gabbro_03,4,03,4,2,1.084,1,11,-0.368421053,-0.264411028,1,0,0,0.826,Andesite_rect,1,0.826,0,6,0,6,0,1,,,,,,,,,,,,,
663a77b9f973602bcedaf526,SCR,2024-06-24_14h32.52.636,LearnStrategy,2023.2.3,MacIntel,62.5,7,1,8,-0.552631579,0.096491228,1,0,0,0.748,Basalt_02,2,02,4,1,0.748,7,05,-0.181704261,-0.244360902,1,0,0,0.691,Basalt_rect,2,0.691,1,7,0,7,0,1,,,,,,,,,,,,,
663a77b9f973602bcedaf526,SCR,2024-06-24_14h32.52.636,LearnStrategy,2023.2.3,MacIntel,62.5,7,1,9,0.095238095,0.096491228,1,0,0,0.982,Pumice_02,8,02,4,5,0.982,1,07,0.324561404,-0.413533835,1,0,0,0.778,Pumice_rect,8,0.778,1,8,0,8,0,1,,,,,,,,,,,,,
663a77b9f973602bcedaf526,SCR,2024-06-24_14h32.52.636,LearnStrategy,2023.2.3,MacIntel,62.5,7,1,10,0.40726817,0.238095238,1,0,0,1.182,Andesite_16,1,16,5,7,1.182,1,07,0.116541353,-0.229323308,1,0,0,1.609,Diorite_rect,3,1.609,0,9,0,9,0,1,,,,,,,,,,,,,
663a77b9f973602bcedaf526,SCR,2024-06-24_14h32.52.636,LearnStrategy,2023.2.3,MacIntel,62.5,7,1,11,0.547619048,0.261904762,1,0,0,1.033,Andesite_10,1,10,5,8,1.033,6,07,-0.411027569,-0.236842105,1,0,0,0.858,Andesite_rect,1,0.858,1,10,0,10,0,1,,,,,,,,,,,,,
663a77b9f973602bcedaf526,SCR,2024-06-24_14h32.52.636,LearnStrategy,2023.2.3,MacIntel,62.5,7,1,12,0.085213033,0.303258145,1,0,0,0.8,Pegmatite_11,6,11,5,5,0.8,1,06,-0.204260652,-0.390977444,1,0,0,0.942,Pegmatite_rect,6,0.942,1,11,0,11,0,1,,,,,,,,,,,,,
663a77b9f973602bcedaf526,SCR,2024-06-24_14h32.52.636,LearnStrategy,2023.2.3,MacIntel,62.5,7,1,13,-0.218045113,0.388471178,1,0,0,0.865,Diorite_09,3,09,6,3,0.865,2,04,-0.390977444,-0.260651629,1,0,0,0.625,Andesite_rect,1,0.625,0,12,0,12,0,1,,,,,,,,,,,,,
663a77b9f973602bcedaf526,SCR,2024-06-24_14h32.52.636,LearnStrategy,2023.2.3,MacIntel,62.5,7,1,14,-0.073934837,0.365914787,1,0,0,0.699,Peridotite_12,7,12,6,4,0.699,3,13,0.131578947,-0.239348371,1,0,0,0.909,Diorite_rect,3,0.909,0,13,0,13,0,1,,,,,,,,,,,,,
663a77b9f973602bcedaf526,SCR,2024-06-24_14h32.52.636,LearnStrategy,2023.2.3,MacIntel,62.5,7,1,15,-0.537593985,0.432330827,1,0,0,0.983,Gabbro_05,4,05,6,1,0.983,4,16,0.330827068,-0.245614035,1,0,0,1.44,Gabbro_rect,4,1.44,1,14,0,14,0,1,,,,,,,,,,,,,
663a77b9f973602bcedaf526,SCR,2024-06-24_14h32.52.636,LearnStrategy,2023.2.3,MacIntel,62.5,7,1,16,0.547619048,0.382205514,1,0,0,1.181,Gabbro_08,4,08,6,8,1.181,7,12,0.293233083,-0.253132832,1,0,0,1.326,Gabbro_rect,4,1.326,1,15,0,15,0,1,,,,,,,,,,,,,
663a77b9f973602bcedaf526,SCR,2024-06-24_14h32.52.636,LearnStrategy,2023.2.3,MacIntel,62.5,7,2,1,,,,,,,,1,02,,,,,,,,,,,,,4,1.069,0,,,,,,0.452380952,-0.249373434,1,0,0,1.069,Gabbro_rect,0,0,0,0,1,
663a77b9f973602bcedaf526,SCR,2024-06-24_14h32.52.636,LearnStrategy,2023.2.3,MacIntel,62.5,7,2,2,,,,,,,,4,13,,,,,,,,,,,,,4,0.839,1,,,,,,0.452380952,-0.249373434,1,0,0,0.839,Gabbro_rect,1,0,1,0,1,
663a77b9f973602bcedaf526,SCR,2024-06-24_14h32.52.636,LearnStrategy,2023.2.3,MacIntel,62.5,7,2,3,,,,,,,,2,06,,,,,,,,,,,,,2,1.67,1,,,,,,-0.0839599,-0.241854637,1,0,0,1.67,Basalt_rect,2,0,2,0,1,
663a77b9f973602bcedaf526,SCR,2024-06-24_14h32.52.636,LearnStrategy,2023.2.3,MacIntel,62.5,7,2,4,,,,,,,,7,10,,,,,,,,,,,,,3,1.721,0,,,,,,0.102756892,-0.271929825,1,0,0,1.721,Diorite_rect,3,0,3,0,1,
663a77b9f973602bcedaf526,SCR,2024-06-24_14h32.52.636,LearnStrategy,2023.2.3,MacIntel,62.5,7,2,5,,,,,,,,8,05,,,,,,,,,,,,,8,0.888,1,,,,,,0.302005013,-0.398496241,1,0,0,0.888,Pumice_rect,4,0,4,0,1,
663a77b9f973602bcedaf526,SCR,2024-06-24_14h32.52.636,LearnStrategy,2023.2.3,MacIntel,62.5,7,2,6,,,,,,,,6,12,,,,,,,,,,,,,6,1.421,1,,,,,,-0.139097744,-0.394736842,1,0,0,1.421,Pegmatite_rect,5,0,5,0,1,
663a77b9f973602bcedaf526,SCR,2024-06-24_14h32.52.636,LearnStrategy,2023.2.3,MacIntel,62.5,7,2,7,,,,,,,,8,16,,,,,,,,,,,,,8,1.506,1,,,,,,0.431077694,-0.411027569,1,0,0,1.506,Pumice_rect,6,0,6,0,1,
663a77b9f973602bcedaf526,SCR,2024-06-24_14h32.52.636,LearnStrategy,2023.2.3,MacIntel,62.5,7,2,8,,,,,,,,3,10,,,,,,,,,,,,,4,3.236,0,,,,,,0.411027569,-0.249373434,1,0,0,3.236,Gabbro_rect,7,0,7,0,1,
663a77b9f973602bcedaf526,SCR,2024-06-24_14h32.52.636,LearnStrategy,2023.2.3,MacIntel,62.5,7,2,9,,,,,,,,5,04,,,,,,,,,,,,,5,1.622,1,,,,,,-0.383458647,-0.402255639,1,0,0,1.622,Obsidian_rect,8,0,8,0,1,
663a77b9f973602bcedaf526,SCR,2024-06-24_14h32.52.636,LearnStrategy,2023.2.3,MacIntel,62.5,7,2,10,,,,,,,,3,15,,,,,,,,,,,,,3,1.806,1,,,,,,0.165413534,-0.246867168,1,0,0,1.806,Diorite_rect,9,0,9,0,1,
663a77b9f973602bcedaf526,SCR,2024-06-24_14h32.52.636,LearnStrategy,2023.2.3,MacIntel,62.5,7,2,11,,,,,,,,6,09,,,,,,,,,,,,,6,1.535,1,,,,,,-0.104010025,-0.392230576,1,0,0,1.535,Pegmatite_rect,10,0,10,0,1,
663a77b9f973602bcedaf526,SCR,2024-06-24_14h32.52.636,LearnStrategy,2023.2.3,MacIntel,62.5,7,2,12,,,,,,,,2,12,,,,,,,,,,,,,1,4.687,0,,,,,,-0.347117794,-0.256892231,1,0,0,4.687,Andesite_rect,11,0,11,0,1,
663a77b9f973602bcedaf526,SCR,2024-06-24_14h32.52.636,LearnStrategy,2023.2.3,MacIntel,62.5,7,2,13,,,,,,,,1,05,,,,,,,,,,,,,3,0.828,0,,,,,,0.155388471,-0.239348371,1,0,0,0.828,Diorite_rect,12,0,12,0,1,
663a77b9f973602bcedaf526,SCR,2024-06-24_14h32.52.636,LearnStrategy,2023.2.3,MacIntel,62.5,7,2,14,,,,,,,,5,06,,,,,,,,,,,,,5,1.637,1,,,,,,-0.362155388,-0.403508772,1,0,0,1.637,Obsidian_rect,13,0,13,0,1,
663a77b9f973602bcedaf526,SCR,2024-06-24_14h32.52.636,LearnStrategy,2023.2.3,MacIntel,62.5,7,2,15,,,,,,,,7,07,,,,,,,,,,,,,3,1.22,0,,,,,,0.189223058,-0.241854637,1,0,0,1.22,Diorite_rect,14,0,14,0,1,
663a77b9f973602bcedaf526,SCR,2024-06-24_14h32.52.636,LearnStrategy,2023.2.3,MacIntel,62.5,7,2,16,,,,,,,,4,15,,,,,,,,,,,,,3,3.055,0,,,,,,0.189223058,-0.241854637,1,0,0,3.055,Diorite_rect,15,0,15,0,1,
663a77b9f973602bcedaf526,SCR,2024-06-24_14h32.52.636,LearnStrategy,2023.2.3,MacIntel,62.5,8,1,1,-0.206766917,0.082706767,1,0,0,0.58,Obsidian_14,5,14,4,3,0.58,4,10,-0.374686717,-0.399749373,1,0,0,1.008,Obsidian_rect,5,1.008,1,0,0,0,0,1,,,,,,,,,,,,,
663a77b9f973602bcedaf526,SCR,2024-06-24_14h32.52.636,LearnStrategy,2023.2.3,MacIntel,62.5,8,1,2,-0.095238095,0.095238095,1,0,0,0.515,Obsidian_09,5,09,4,4,0.515,1,06,-0.383458647,-0.40726817,1,0,0,0.69,Obsidian_rect,5,0.69,1,1,0,1,0,1,,,,,,,,,,,,,
663a77b9f973602bcedaf526,SCR,2024-06-24_14h32.52.636,LearnStrategy,2023.2.3,MacIntel,62.5,8,1,3,-0.54887218,-0.114035088,1,0,0,0.867,Andesite_06,1,06,3,1,0.867,4,16,-0.458646617,-0.228070175,1,0,0,0.557,Andesite_rect,1,0.557,1,2,0,2,0,1,,,,,,,,,,,,,
663a77b9f973602bcedaf526,SCR,2024-06-24_14h32.52.636,LearnStrategy,2023.2.3,MacIntel,62.5,8,1,4,-0.580200501,0.214285714,1,0,0,0.783,Obsidian_07,5,07,5,1,0.783,5,07,-0.457393484,-0.406015038,1,0,0,0.57,Obsidian_rect,5,0.57,1,3,0,3,0,1,,,,,,,,,,,,,
663a77b9f973602bcedaf526,SCR,2024-06-24_14h32.52.636,LearnStrategy,2023.2.3,MacIntel,62.5,8,1,5,0.061403509,0.401002506,1,0,0,0.783,Peridotite_13,7,13,6,5,0.783,3,09,-0.104010025,-0.389724311,1,0,0,2.56,Pegmatite_rect,6,2.56,0,4,0,4,0,1,,,,,,,,,,,,,
663a77b9f973602bcedaf526,SCR,2024-06-24_14h32.52.636,LearnStrategy,2023.2.3,MacIntel,62.5,8,1,6,-0.412280702,-0.063909774,1,0,0,5.25,Diorite_02,3,02,3,2,5.25,4,08,0.070175439,-0.382205514,1,0,0,1.257,Peridotite_rect,7,1.257,0,5,0,5,0,1,,,,,,,,,,,,,
663a77b9f973602bcedaf526,SCR,2024-06-24_14h32.52.636,LearnStrategy,2023.2.3,MacIntel,62.5,8,1,7,-0.368421053,0.384711779,1,0,0,0.899,Gabbro_16,4,16,6,2,0.899,6,15,-0.071428571,-0.240601504,1,0,0,0.925,Basalt_rect,2,0.925,0,6,0,6,0,1,,,,,,,,,,,,,
663a77b9f973602bcedaf526,SCR,2024-06-24_14h32.52.636,LearnStrategy,2023.2.3,MacIntel,62.5,8,1,8,0.560150376,0.393483709,1,0,0,0.766,Gabbro_08,4,08,6,8,0.766,1,07,0.394736842,-0.268170426,1,0,0,0.707,Gabbro_rect,4,0.707,1,7,0,7,0,1,,,,,,,,,,,,,
663a77b9f973602bcedaf526,SCR,2024-06-24_14h32.52.636,LearnStrategy,2023.2.3,MacIntel,62.5,8,1,9,0.413533835,0.218045113,1,0,0,0.882,Andesite_16,1,16,5,7,0.882,1,14,0.139097744,-0.241854637,1,0,0,1.208,Diorite_rect,3,1.208,0,8,0,8,0,1,,,,,,,,,,,,,
663a77b9f973602bcedaf526,SCR,2024-06-24_14h32.52.636,LearnStrategy,2023.2.3,MacIntel,62.5,8,1,10,-0.206766917,-0.080200501,1,0,0,3.284,Peridotite_02,7,02,3,3,3.284,7,04,0.0839599,-0.235588972,1,0,0,0.706,Diorite_rect,3,0.706,0,9,0,9,0,1,,,,,,,,,,,,,
663a77b9f973602bcedaf526,SCR,2024-06-24_14h32.52.636,LearnStrategy,2023.2.3,MacIntel,62.5,8,1,11,-0.426065163,-0.088972431,1,0,0,0.716,Diorite_02,3,02,3,2,0.716,7,04,-0.362155388,-0.239348371,1,0,0,0.675,Andesite_rect,1,0.675,0,10,0,10,0,1,,,,,,,,,,,,,
663a77b9f973602bcedaf526,SCR,2024-06-24_14h32.52.636,LearnStrategy,2023.2.3,MacIntel,62.5,8,1,12,-0.244360902,-0.080200501,1,0,0,0.799,Peridotite_02,7,02,3,3,0.799,3,08,0.136591479,-0.243107769,1,0,0,0.959,Diorite_rect,3,0.959,0,11,0,11,0,1,,,,,,,,,,,,,
663a77b9f973602bcedaf526,SCR,2024-06-24_14h32.52.636,LearnStrategy,2023.2.3,MacIntel,62.5,8,1,13,-0.516290727,-0.244360902,1,0,0,0.916,Diorite_13,3,13,2,1,0.916,7,13,0.131578947,-0.253132832,1,0,0,0.825,Diorite_rect,3,0.825,1,12,0,12,0,1,,,,,,,,,,,,,
663a77b9f973602bcedaf526,SCR,2024-06-24_14h32.52.636,LearnStrategy,2023.2.3,MacIntel,62.5,8,1,14,0.254385965,-0.260651629,1,0,0,0.965,Obsidian_08,5,08,2,6,0.965,2,14,-0.402255639,-0.409774436,1,0,0,0.625,Obsidian_rect,5,0.625,1,13,0,13,0,1,,,,,,,,,,,,,
663a77b9f973602bcedaf526,SCR,2024-06-24_14h32.52.636,LearnStrategy,2023.2.3,MacIntel,62.5,8,1,15,-0.530075188,0.21679198,1,0,0,1.717,Obsidian_07,5,07,5,1,1.717,7,02,-0.42481203,-0.392230576,1,0,0,0.724,Obsidian_rect,5,0.724,1,14,0,14,0,1,,,,,,,,,,,,,
663a77b9f973602bcedaf526,SCR,2024-06-24_14h32.52.636,LearnStrategy,2023.2.3,MacIntel,62.5,8,1,16,-0.080200501,0.233082707,1,0,0,1.133,Pegmatite_15,6,15,5,4,1.133,1,06,-0.137844612,-0.393483709,1,0,0,0.758,Pegmatite_rect,6,0.758,1,15,0,15,0,1,,,,,,,,,,,,,
663a77b9f973602bcedaf526,SCR,2024-06-24_14h32.52.636,LearnStrategy,2023.2.3,MacIntel,62.5,8,2,1,,,,,,,,3,11,,,,,,,,,,,,,3,1.522,1,,,,,,0.177944862,-0.250626566,1,0,0,1.522,Diorite_rect,0,0,0,0,1,
663a77b9f973602bcedaf526,SCR,2024-06-24_14h32.52.636,LearnStrategy,2023.2.3,MacIntel,62.5,8,2,2,,,,,,,,5,05,,,,,,,,,,,,,5,1.402,1,,,,,,-0.368421053,-0.389724311,1,0,0,1.402,Obsidian_rect,1,0,1,0,1,
663a77b9f973602bcedaf526,SCR,2024-06-24_14h32.52.636,LearnStrategy,2023.2.3,MacIntel,62.5,8,2,3,,,,,,,,7,15,,,,,,,,,,,,,3,1.236,0,,,,,,0.170426065,-0.239348371,1,0,0,1.236,Diorite_rect,2,0,2,0,1,
663a77b9f973602bcedaf526,SCR,2024-06-24_14h32.52.636,LearnStrategy,2023.2.3,MacIntel,62.5,8,2,4,,,,,,,,6,05,,,,,,,,,,,,,6,3.12,1,,,,,,-0.200501253,-0.412280702,1,0,0,3.12,Pegmatite_rect,3,0,3,0,1,
663a77b9f973602bcedaf526,SCR,2024-06-24_14h32.52.636,LearnStrategy,2023.2.3,MacIntel,62.5,8,2,5,,,,,,,,7,16,,,,,,,,,,,,,4,1.321,0,,,,,,0.426065163,-0.251879699,1,0,0,1.321,Gabbro_rect,4,0,4,0,1,
663a77b9f973602bcedaf526,SCR,2024-06-24_14h32.52.636,LearnStrategy,2023.2.3,MacIntel,62.5,8,2,6,,,,,,,,4,11,,,,,,,,,,,,,1,3.372,0,,,,,,-0.34962406,-0.241854637,1,0,0,3.372,Andesite_rect,5,0,5,0,1,
663a77b9f973602bcedaf526,SCR,2024-06-24_14h32.52.636,LearnStrategy,2023.2.3,MacIntel,62.5,8,2,7,,,,,,,,1,01,,,,,,,,,,,,,1,1.238,1,,,,,,-0.34962406,-0.241854637,1,0,0,1.238,Andesite_rect,6,0,6,0,1,
663a77b9f973602bcedaf526,SCR,2024-06-24_14h32.52.636,LearnStrategy,2023.2.3,MacIntel,62.5,8,2,8,,,,,,,,3,07,,,,,,,,,,,,,3,1.271,1,,,,,,0.095238095,-0.263157895,1,0,0,1.271,Diorite_rect,7,0,7,0,1,
663a77b9f973602bcedaf526,SCR,2024-06-24_14h32.52.636,LearnStrategy,2023.2.3,MacIntel,62.5,8,2,9,,,,,,,,6,03,,,,,,,,,,,,,6,1.268,1,,,,,,-0.101503759,-0.404761905,1,0,0,1.268,Pegmatite_rect,8,0,8,0,1,
663a77b9f973602bcedaf526,SCR,2024-06-24_14h32.52.636,LearnStrategy,2023.2.3,MacIntel,62.5,8,2,10,,,,,,,,1,03,,,,,,,,,,,,,4,2.469,0,,,,,,0.327067669,-0.251879699,1,0,0,2.469,Gabbro_rect,9,0,9,0,1,
663a77b9f973602bcedaf526,SCR,2024-06-24_14h32.52.636,LearnStrategy,2023.2.3,MacIntel,62.5,8,2,11,,,,,,,,5,02,,,,,,,,,,,,,5,1.004,1,,,,,,-0.37593985,-0.394736842,1,0,0,1.004,Obsidian_rect,10,0,10,0,1,
663a77b9f973602bcedaf526,SCR,2024-06-24_14h32.52.636,LearnStrategy,2023.2.3,MacIntel,62.5,8,2,12,,,,,,,,8,06,,,,,,,,,,,,,8,2.204,1,,,,,,0.368421053,-0.406015038,1,0,0,2.204,Pumice_rect,11,0,11,0,1,
663a77b9f973602bcedaf526,SCR,2024-06-24_14h32.52.636,LearnStrategy,2023.2.3,MacIntel,62.5,8,2,13,,,,,,,,2,10,,,,,,,,,,,,,2,2.22,1,,,,,,-0.137844612,-0.264411028,1,0,0,2.22,Basalt_rect,12,0,12,0,1,
663a77b9f973602bcedaf526,SCR,2024-06-24_14h32.52.636,LearnStrategy,2023.2.3,MacIntel,62.5,8,2,14,,,,,,,,4,01,,,,,,,,,,,,,1,3.171,0,,,,,,-0.323308271,-0.255639098,1,0,0,3.171,Andesite_rect,13,0,13,0,1,
663a77b9f973602bcedaf526,SCR,2024-06-24_14h32.52.636,LearnStrategy,2023.2.3,MacIntel,62.5,8,2,15,,,,,,,,2,16,,,,,,,,,,,,,2,0.921,1,,,,,,-0.101503759,-0.244360902,1,0,0,0.921,Basalt_rect,14,0,14,0,1,
663a77b9f973602bcedaf526,SCR,2024-06-24_14h32.52.636,LearnStrategy,2023.2.3,MacIntel,62.5,8,2,16,,,,,,,,8,09,,,,,,,,,,,,,8,0.953,1,,,,,,0.370927318,-0.389724311,1,0,0,0.953,Pumice_rect,15,0,15,0,1,
663a77b9f973602bcedaf526,SCR,2024-06-24_14h32.52.636,LearnStrategy,2023.2.3,MacIntel,62.5,9,1,1,-0.065162907,0.077694236,1,0,0,0.863,Obsidian_09,5,09,4,4,0.863,1,10,-0.363408521,-0.384711779,1,0,0,0.856,Obsidian_rect,5,0.856,1,0,0,0,0,1,,,,,,,,,,,,,
663a77b9f973602bcedaf526,SCR,2024-06-24_14h32.52.636,LearnStrategy,2023.2.3,MacIntel,62.5,9,1,2,-0.530075188,0.098997494,1,0,0,0.615,Basalt_02,2,02,4,1,0.615,7,13,-0.37593985,-0.251879699,1,0,0,0.576,Andesite_rect,1,0.576,0,1,0,1,0,1,,,,,,,,,,,,,
663a77b9f973602bcedaf526,SCR,2024-06-24_14h32.52.636,LearnStrategy,2023.2.3,MacIntel,62.5,9,1,3,-0.521303258,0.105263158,1,0,0,1.15,Basalt_02,2,02,4,1,1.15,4,05,-0.115288221,-0.240601504,1,0,0,1.942,Basalt_rect,2,1.942,1,2,0,2,0,1,,,,,,,,,,,,,
663a77b9f973602bcedaf526,SCR,2024-06-24_14h32.52.636,LearnStrategy,2023.2.3,MacIntel,62.5,9,1,4,-0.36716792,0.101503759,1,0,0,0.633,Gabbro_03,4,03,4,2,0.633,7,13,-0.34085213,-0.244360902,1,0,0,1.973,Andesite_rect,1,1.973,0,3,0,3,0,1,,,,,,,,,,,,,
663a77b9f973602bcedaf526,SCR,2024-06-24_14h32.52.636,LearnStrategy,2023.2.3,MacIntel,62.5,9,1,5,0.230576441,0.378446115,1,0,0,0.9,Andesite_07,1,07,6,6,0.9,3,13,0.214285714,-0.241854637,1,0,0,0.991,Diorite_rect,3,0.991,0,4,0,4,0,1,,,,,,,,,,,,,
663a77b9f973602bcedaf526,SCR,2024-06-24_14h32.52.636,LearnStrategy,2023.2.3,MacIntel,62.5,9,1,6,0.576441103,0.377192982,1,0,0,0.817,Gabbro_08,4,08,6,8,0.817,7,08,-0.355889724,-0.254385965,1,0,0,0.924,Andesite_rect,1,0.924,0,5,0,5,0,1,,,,,,,,,,,,,
663a77b9f973602bcedaf526,SCR,2024-06-24_14h32.52.636,LearnStrategy,2023.2.3,MacIntel,62.5,9,1,7,0.393483709,0.399749373,1,0,0,1.016,Basalt_14,2,14,6,7,1.016,5,16,0.382205514,-0.254385965,1,0,0,1.441,Gabbro_rect,4,1.441,0,6,0,6,0,1,,,,,,,,,,,,,
663a77b9f973602bcedaf526,SCR,2024-06-24_14h32.52.636,LearnStrategy,2023.2.3,MacIntel,62.5,9,1,8,0.053884712,0.09273183,1,0,0,1.082,Pumice_02,8,02,4,5,1.082,1,06,0.339598997,-0.384711779,1,0,0,0.691,Pumice_rect,8,0.691,1,7,0,7,0,1,,,,,,,,,,,,,
663a77b9f973602bcedaf526,SCR,2024-06-24_14h32.52.636,LearnStrategy,2023.2.3,MacIntel,62.5,9,1,9,-0.560150376,-0.280701754,1,0,0,0.883,Diorite_13,3,13,2,1,0.883,3,14,0.0839599,-0.271929825,1,0,0,2.441,Diorite_rect,3,2.441,1,8,0,8,0,1,,,,,,,,,,,,,
663a77b9f973602bcedaf526,SCR,2024-06-24_14h32.52.636,LearnStrategy,2023.2.3,MacIntel,62.5,9,1,10,-0.214285714,-0.243107769,1,0,0,1.683,Andesite_14,1,14,2,3,1.683,2,02,-0.379699248,-0.255639098,1,0,0,0.557,Andesite_rect,1,0.557,1,9,0,9,0,1,,,,,,,,,,,,,
663a77b9f973602bcedaf526,SCR,2024-06-24_14h32.52.636,LearnStrategy,2023.2.3,MacIntel,62.5,9,1,11,0.27443609,-0.085213033,1,0,0,0.616,Pumice_04,8,04,3,6,0.616,4,08,0.344611529,-0.408521303,1,0,0,1.174,Pumice_rect,8,1.174,1,10,0,10,0,1,,,,,,,,,,,,,
663a77b9f973602bcedaf526,SCR,2024-06-24_14h32.52.636,LearnStrategy,2023.2.3,MacIntel,62.5,9,1,12,-0.438596491,0.115288221,1,0,0,1.233,Gabbro_03,4,03,4,2,1.233,4,16,-0.393483709,-0.249373434,1,0,0,1.558,Andesite_rect,1,1.558,0,11,0,11,0,1,,,,,,,,,,,,,
663a77b9f973602bcedaf526,SCR,2024-06-24_14h32.52.636,LearnStrategy,2023.2.3,MacIntel,62.5,9,1,13,0.546365915,0.076441103,1,0,0,1.766,Peridotite_08,7,08,4,8,1.766,1,11,0.140350877,-0.245614035,1,0,0,1.257,Diorite_rect,3,1.257,0,12,0,12,0,1,,,,,,,,,,,,,
663a77b9f973602bcedaf526,SCR,2024-06-24_14h32.52.636,LearnStrategy,2023.2.3,MacIntel,62.5,9,1,14,-0.22556391,0.243107769,1,0,0,0.883,Basalt_04,2,04,5,3,0.883,1,16,-0.086466165,-0.238095238,1,0,0,0.825,Basalt_rect,2,0.825,1,13,0,13,0,1,,,,,,,,,,,,,
663a77b9f973602bcedaf526,SCR,2024-06-24_14h32.52.636,LearnStrategy,2023.2.3,MacIntel,62.5,9,1,15,-0.394736842,0.224310777,1,0,0,0.915,Pumice_10,8,10,5,2,0.915,7,13,0.344611529,-0.398496241,1,0,0,1.007,Pumice_rect,8,1.007,1,14,0,14,0,1,,,,,,,,,,,,,
663a77b9f973602bcedaf526,SCR,2024-06-24_14h32.52.636,LearnStrategy,2023.2.3,MacIntel,62.5,9,1,16,0.44235589,-0.453634085,1,0,0,2.748,Peridotite_04,7,04,1,7,2.748,4,10,0.197994987,-0.263157895,1,0,0,1.76,Diorite_rect,3,1.76,0,15,0,15,0,1,,,,,,,,,,,,,
663a77b9f973602bcedaf526,SCR,2024-06-24_14h32.52.636,LearnStrategy,2023.2.3,MacIntel,62.5,9,2,1,,,,,,,,4,12,,,,,,,,,,,,,4,2.919,1,,,,,,0.347117794,-0.256892231,1,0,0,2.919,Gabbro_rect,0,0,0,0,1,
663a77b9f973602bcedaf526,SCR,2024-06-24_14h32.52.636,LearnStrategy,2023.2.3,MacIntel,62.5,9,2,2,,,,,,,,1,09,,,,,,,,,,,,,4,1.22,0,,,,,,0.347117794,-0.256892231,1,0,0,1.22,Gabbro_rect,1,0,1,0,1,
663a77b9f973602bcedaf526,SCR,2024-06-24_14h32.52.636,LearnStrategy,2023.2.3,MacIntel,62.5,9,2,3,,,,,,,,7,06,,,,,,,,,,,,,6,1.059,0,,,,,,-0.12406015,-0.393483709,1,0,0,1.059,Pegmatite_rect,2,0,2,0,1,
663a77b9f973602bcedaf526,SCR,2024-06-24_14h32.52.636,LearnStrategy,2023.2.3,MacIntel,62.5,9,2,4,,,,,,,,3,06,,,,,,,,,,,,,3,1.069,1,,,,,,0.154135338,-0.260651629,1,0,0,1.069,Diorite_rect,3,0,3,0,1,
663a77b9f973602bcedaf526,SCR,2024-06-24_14h32.52.636,LearnStrategy,2023.2.3,MacIntel,62.5,9,2,5,,,,,,,,2,01,,,,,,,,,,,,,2,0.971,1,,,,,,-0.081453634,-0.253132832,1,0,0,0.971,Basalt_rect,4,0,4,0,1,
663a77b9f973602bcedaf526,SCR,2024-06-24_14h32.52.636,LearnStrategy,2023.2.3,MacIntel,62.5,9,2,6,,,,,,,,6,06,,,,,,,,,,,,,6,0.941,1,,,,,,-0.136591479,-0.409774436,1,0,0,0.941,Pegmatite_rect,5,0,5,0,1,
663a77b9f973602bcedaf526,SCR,2024-06-24_14h32.52.636,LearnStrategy,2023.2.3,MacIntel,62.5,9,2,7,,,,,,,,3,12,,,,,,,,,,,,,3,1.023,1,,,,,,0.101503759,-0.26566416,1,0,0,1.023,Diorite_rect,6,0,6,0,1,
663a77b9f973602bcedaf526,SCR,2024-06-24_14h32.52.636,LearnStrategy,2023.2.3,MacIntel,62.5,9,2,8,,,,,,,,8,15,,,,,,,,,,,,,8,1.221,1,,,,,,0.310776942,-0.388471178,1,0,0,1.221,Pumice_rect,7,0,7,0,1,
663a77b9f973602bcedaf526,SCR,2024-06-24_14h32.52.636,LearnStrategy,2023.2.3,MacIntel,62.5,9,2,9,,,,,,,,4,09,,,,,,,,,,,,,4,4.753,1,,,,,,0.350877193,-0.246867168,1,0,0,4.753,Gabbro_rect,8,0,8,0,1,
663a77b9f973602bcedaf526,SCR,2024-06-24_14h32.52.636,LearnStrategy,2023.2.3,MacIntel,62.5,9,2,10,,,,,,,,8,14,,,,,,,,,,,,,8,1.301,1,,,,,,0.373433584,-0.380952381,1,0,0,1.301,Pumice_rect,9,0,9,0,1,
663a77b9f973602bcedaf526,SCR,2024-06-24_14h32.52.636,LearnStrategy,2023.2.3,MacIntel,62.5,9,2,11,,,,,,,,2,09,,,,,,,,,,,,,2,0.986,1,,,,,,-0.071428571,-0.235588972,1,0,0,0.986,Basalt_rect,10,0,10,0,1,
663a77b9f973602bcedaf526,SCR,2024-06-24_14h32.52.636,LearnStrategy,2023.2.3,MacIntel,62.5,9,2,12,,,,,,,,6,13,,,,,,,,,,,,,3,2.038,0,,,,,,0.112781955,-0.261904762,1,0,0,2.038,Diorite_rect,11,0,11,0,1,
663a77b9f973602bcedaf526,SCR,2024-06-24_14h32.52.636,LearnStrategy,2023.2.3,MacIntel,62.5,9,2,13,,,,,,,,5,12,,,,,,,,,,,,,5,0.869,1,,,,,,-0.342105263,-0.401002506,1,0,0,0.869,Obsidian_rect,12,0,12,0,1,
663a77b9f973602bcedaf526,SCR,2024-06-24_14h32.52.636,LearnStrategy,2023.2.3,MacIntel,62.5,9,2,14,,,,,,,,7,14,,,,,,,,,,,,,3,2.688,0,,,,,,0.14160401,-0.23433584,1,0,0,2.688,Diorite_rect,13,0,13,0,1,
663a77b9f973602bcedaf526,SCR,2024-06-24_14h32.52.636,LearnStrategy,2023.2.3,MacIntel,62.5,9,2,15,,,,,,,,5,10,,,,,,,,,,,,,5,0.97,1,,,,,,-0.345864662,-0.413533835,1,0,0,0.97,Obsidian_rect,14,0,14,0,1,
663a77b9f973602bcedaf526,SCR,2024-06-24_14h32.52.636,LearnStrategy,2023.2.3,MacIntel,62.5,9,2,16,,,,,,,,1,04,,,,,,,,,,,,,1,1.739,1,,,,,,-0.390977444,-0.261904762,1,0,0,1.739,Andesite_rect,15,0,15,0,1,
663a77b9f973602bcedaf526,SCR,2024-06-24_14h32.52.636,LearnStrategy,2023.2.3,MacIntel,62.5,,,,,,,,,,,,,,,,,,,,,,,,,,,,,,,,,,,,,,,,,,,,,1
663a77b9f973602bcedaf526,SCR,2024-06-24_14h32.52.636,LearnStrategy,2023.2.3,MacIntel,62.5,,,,,,,,,,,,,,,,,,,,,,,,,,,,,,,,,,,,,,,,,,,,,
663a77b9f973602bcedaf526,SCR,2024-06-24_14h32.52.636,LearnStrategy,2023.2.3,MacIntel,62.5,,,,,,,,,,,6,08,1,1,,,,,,,,,,,,,,,,,,,,,,,,,,,,,,,
663a77b9f973602bcedaf526,SCR,2024-06-24_14h32.52.636,LearnStrategy,2023.2.3,MacIntel,62.5,,,,,,,,,,,6,16,1,2,,,,,,,,,,,,,,,,,,,,,,,,,,,,,,,
663a77b9f973602bcedaf526,SCR,2024-06-24_14h32.52.636,LearnStrategy,2023.2.3,MacIntel,62.5,,,,,,,,,,,8,08,1,3,,,,,,,,,,,,,,,,,,,,,,,,,,,,,,,
663a77b9f973602bcedaf526,SCR,2024-06-24_14h32.52.636,LearnStrategy,2023.2.3,MacIntel,62.5,,,,,,,,,,,1,11,1,4,,,,,,,,,,,,,,,,,,,,,,,,,,,,,,,
663a77b9f973602bcedaf526,SCR,2024-06-24_14h32.52.636,LearnStrategy,2023.2.3,MacIntel,62.5,,,,,,,,,,,6,07,1,5,,,,,,,,,,,,,,,,,,,,,,,,,,,,,,,
663a77b9f973602bcedaf526,SCR,2024-06-24_14h32.52.636,LearnStrategy,2023.2.3,MacIntel,62.5,,,,,,,,,,,5,11,1,6,,,,,,,,,,,,,,,,,,,,,,,,,,,,,,,
663a77b9f973602bcedaf526,SCR,2024-06-24_14h32.52.636,LearnStrategy,2023.2.3,MacIntel,62.5,,,,,,,,,,,7,04,1,7,,,,,,,,,,,,,,,,,,,,,,,,,,,,,,,
663a77b9f973602bcedaf526,SCR,2024-06-24_14h32.52.636,LearnStrategy,2023.2.3,MacIntel,62.5,,,,,,,,,,,4,10,1,8,,,,,,,,,,,,,,,,,,,,,,,,,,,,,,,
663a77b9f973602bcedaf526,SCR,2024-06-24_14h32.52.636,LearnStrategy,2023.2.3,MacIntel,62.5,,,,,,,,,,,3,13,2,1,,,,,,,,,,,,,,,,,,,,,,,,,,,,,,,
663a77b9f973602bcedaf526,SCR,2024-06-24_14h32.52.636,LearnStrategy,2023.2.3,MacIntel,62.5,,,,,,,,,,,3,16,2,2,,,,,,,,,,,,,,,,,,,,,,,,,,,,,,,
663a77b9f973602bcedaf526,SCR,2024-06-24_14h32.52.636,LearnStrategy,2023.2.3,MacIntel,62.5,,,,,,,,,,,1,14,2,3,,,,,,,,,,,,,,,,,,,,,,,,,,,,,,,
663a77b9f973602bcedaf526,SCR,2024-06-24_14h32.52.636,LearnStrategy,2023.2.3,MacIntel,62.5,,,,,,,,,,,3,14,2,4,,,,,,,,,,,,,,,,,,,,,,,,,,,,,,,
663a77b9f973602bcedaf526,SCR,2024-06-24_14h32.52.636,LearnStrategy,2023.2.3,MacIntel,62.5,,,,,,,,,,,2,11,2,5,,,,,,,,,,,,,,,,,,,,,,,,,,,,,,,
663a77b9f973602bcedaf526,SCR,2024-06-24_14h32.52.636,LearnStrategy,2023.2.3,MacIntel,62.5,,,,,,,,,,,5,08,2,6,,,,,,,,,,,,,,,,,,,,,,,,,,,,,,,
663a77b9f973602bcedaf526,SCR,2024-06-24_14h32.52.636,LearnStrategy,2023.2.3,MacIntel,62.5,,,,,,,,,,,6,10,2,7,,,,,,,,,,,,,,,,,,,,,,,,,,,,,,,
663a77b9f973602bcedaf526,SCR,2024-06-24_14h32.52.636,LearnStrategy,2023.2.3,MacIntel,62.5,,,,,,,,,,,3,08,2,8,,,,,,,,,,,,,,,,,,,,,,,,,,,,,,,
663a77b9f973602bcedaf526,SCR,2024-06-24_14h32.52.636,LearnStrategy,2023.2.3,MacIntel,62.5,,,,,,,,,,,1,06,3,1,,,,,,,,,,,,,,,,,,,,,,,,,,,,,,,
663a77b9f973602bcedaf526,SCR,2024-06-24_14h32.52.636,LearnStrategy,2023.2.3,MacIntel,62.5,,,,,,,,,,,3,02,3,2,,,,,,,,,,,,,,,,,,,,,,,,,,,,,,,
663a77b9f973602bcedaf526,SCR,2024-06-24_14h32.52.636,LearnStrategy,2023.2.3,MacIntel,62.5,,,,,,,,,,,7,02,3,3,,,,,,,,,,,,,,,,,,,,,,,,,,,,,,,
663a77b9f973602bcedaf526,SCR,2024-06-24_14h32.52.636,LearnStrategy,2023.2.3,MacIntel,62.5,,,,,,,,,,,2,08,3,4,,,,,,,,,,,,,,,,,,,,,,,,,,,,,,,
663a77b9f973602bcedaf526,SCR,2024-06-24_14h32.52.636,LearnStrategy,2023.2.3,MacIntel,62.5,,,,,,,,,,,8,03,3,5,,,,,,,,,,,,,,,,,,,,,,,,,,,,,,,
663a77b9f973602bcedaf526,SCR,2024-06-24_14h32.52.636,LearnStrategy,2023.2.3,MacIntel,62.5,,,,,,,,,,,8,04,3,6,,,,,,,,,,,,,,,,,,,,,,,,,,,,,,,
663a77b9f973602bcedaf526,SCR,2024-06-24_14h32.52.636,LearnStrategy,2023.2.3,MacIntel,62.5,,,,,,,,,,,8,13,3,7,,,,,,,,,,,,,,,,,,,,,,,,,,,,,,,
663a77b9f973602bcedaf526,SCR,2024-06-24_14h32.52.636,LearnStrategy,2023.2.3,MacIntel,62.5,,,,,,,,,,,5,16,3,8,,,,,,,,,,,,,,,,,,,,,,,,,,,,,,,
663a77b9f973602bcedaf526,SCR,2024-06-24_14h32.52.636,LearnStrategy,2023.2.3,MacIntel,62.5,,,,,,,,,,,2,02,4,1,,,,,,,,,,,,,,,,,,,,,,,,,,,,,,,
663a77b9f973602bcedaf526,SCR,2024-06-24_14h32.52.636,LearnStrategy,2023.2.3,MacIntel,62.5,,,,,,,,,,,4,03,4,2,,,,,,,,,,,,,,,,,,,,,,,,,,,,,,,
663a77b9f973602bcedaf526,SCR,2024-06-24_14h32.52.636,LearnStrategy,2023.2.3,MacIntel,62.5,,,,,,,,,,,5,14,4,3,,,,,,,,,,,,,,,,,,,,,,,,,,,,,,,
663a77b9f973602bcedaf526,SCR,2024-06-24_14h32.52.636,LearnStrategy,2023.2.3,MacIntel,62.5,,,,,,,,,,,5,09,4,4,,,,,,,,,,,,,,,,,,,,,,,,,,,,,,,
663a77b9f973602bcedaf526,SCR,2024-06-24_14h32.52.636,LearnStrategy,2023.2.3,MacIntel,62.5,,,,,,,,,,,8,02,4,5,,,,,,,,,,,,,,,,,,,,,,,,,,,,,,,
663a77b9f973602bcedaf526,SCR,2024-06-24_14h32.52.636,LearnStrategy,2023.2.3,MacIntel,62.5,,,,,,,,,,,7,05,4,6,,,,,,,,,,,,,,,,,,,,,,,,,,,,,,,
663a77b9f973602bcedaf526,SCR,2024-06-24_14h32.52.636,LearnStrategy,2023.2.3,MacIntel,62.5,,,,,,,,,,,2,05,4,7,,,,,,,,,,,,,,,,,,,,,,,,,,,,,,,
663a77b9f973602bcedaf526,SCR,2024-06-24_14h32.52.636,LearnStrategy,2023.2.3,MacIntel,62.5,,,,,,,,,,,7,08,4,8,,,,,,,,,,,,,,,,,,,,,,,,,,,,,,,
663a77b9f973602bcedaf526,SCR,2024-06-24_14h32.52.636,LearnStrategy,2023.2.3,MacIntel,62.5,,,,,,,,,,,5,07,5,1,,,,,,,,,,,,,,,,,,,,,,,,,,,,,,,
663a77b9f973602bcedaf526,SCR,2024-06-24_14h32.52.636,LearnStrategy,2023.2.3,MacIntel,62.5,,,,,,,,,,,8,10,5,2,,,,,,,,,,,,,,,,,,,,,,,,,,,,,,,
663a77b9f973602bcedaf526,SCR,2024-06-24_14h32.52.636,LearnStrategy,2023.2.3,MacIntel,62.5,,,,,,,,,,,2,04,5,3,,,,,,,,,,,,,,,,,,,,,,,,,,,,,,,
663a77b9f973602bcedaf526,SCR,2024-06-24_14h32.52.636,LearnStrategy,2023.2.3,MacIntel,62.5,,,,,,,,,,,6,15,5,4,,,,,,,,,,,,,,,,,,,,,,,,,,,,,,,
663a77b9f973602bcedaf526,SCR,2024-06-24_14h32.52.636,LearnStrategy,2023.2.3,MacIntel,62.5,,,,,,,,,,,6,11,5,5,,,,,,,,,,,,,,,,,,,,,,,,,,,,,,,
663a77b9f973602bcedaf526,SCR,2024-06-24_14h32.52.636,LearnStrategy,2023.2.3,MacIntel,62.5,,,,,,,,,,,4,14,5,6,,,,,,,,,,,,,,,,,,,,,,,,,,,,,,,
663a77b9f973602bcedaf526,SCR,2024-06-24_14h32.52.636,LearnStrategy,2023.2.3,MacIntel,62.5,,,,,,,,,,,1,16,5,7,,,,,,,,,,,,,,,,,,,,,,,,,,,,,,,
663a77b9f973602bcedaf526,SCR,2024-06-24_14h32.52.636,LearnStrategy,2023.2.3,MacIntel,62.5,,,,,,,,,,,1,10,5,8,,,,,,,,,,,,,,,,,,,,,,,,,,,,,,,
663a77b9f973602bcedaf526,SCR,2024-06-24_14h32.52.636,LearnStrategy,2023.2.3,MacIntel,62.5,,,,,,,,,,,4,05,6,1,,,,,,,,,,,,,,,,,,,,,,,,,,,,,,,
663a77b9f973602bcedaf526,SCR,2024-06-24_14h32.52.636,LearnStrategy,2023.2.3,MacIntel,62.5,,,,,,,,,,,4,16,6,2,,,,,,,,,,,,,,,,,,,,,,,,,,,,,,,
663a77b9f973602bcedaf526,SCR,2024-06-24_14h32.52.636,LearnStrategy,2023.2.3,MacIntel,62.5,,,,,,,,,,,3,09,6,3,,,,,,,,,,,,,,,,,,,,,,,,,,,,,,,
663a77b9f973602bcedaf526,SCR,2024-06-24_14h32.52.636,LearnStrategy,2023.2.3,MacIntel,62.5,,,,,,,,,,,7,12,6,4,,,,,,,,,,,,,,,,,,,,,,,,,,,,,,,
663a77b9f973602bcedaf526,SCR,2024-06-24_14h32.52.636,LearnStrategy,2023.2.3,MacIntel,62.5,,,,,,,,,,,7,13,6,5,,,,,,,,,,,,,,,,,,,,,,,,,,,,,,,
663a77b9f973602bcedaf526,SCR,2024-06-24_14h32.52.636,LearnStrategy,2023.2.3,MacIntel,62.5,,,,,,,,,,,1,07,6,6,,,,,,,,,,,,,,,,,,,,,,,,,,,,,,,
663a77b9f973602bcedaf526,SCR,2024-06-24_14h32.52.636,LearnStrategy,2023.2.3,MacIntel,62.5,,,,,,,,,,,2,14,6,7,,,,,,,,,,,,,,,,,,,,,,,,,,,,,,,
663a77b9f973602bcedaf526,SCR,2024-06-24_14h32.52.636,LearnStrategy,2023.2.3,MacIntel,62.5,,,,,,,,,,,4,08,6,8,,,,,,,,,,,,,,,,,,,,,,,,,,,,,,,