participant,condition,date,expName,psychopyVersion,OS,frameRate,block,phase,trial,learn_mouse_2.x,learn_mouse_2.y,learn_mouse_2.leftButton,learn_mouse_2.midButton,learn_mouse_2.rightButton,learn_mouse_2.time,learn_mouse_2.clicked_name,cat,token,row,col,t_select,cat_mouse_l.x,cat_mouse_l.y,cat_mouse_l.leftButton,cat_mouse_l.midButton,cat_mouse_l.rightButton,cat_mouse_l.time,cat_mouse_l.clicked_name,resp,t_resp,corr,train_trials.thisRepN,train_trials.thisTrialN,train_trials.thisN,train_trials.thisIndex,train_trials.ran,cat_mouse_t.x,cat_mouse_t.y,cat_mouse_t.leftButton,cat_mouse_t.midButton,cat_mouse_t.rightButton,cat_mouse_t.time,cat_mouse_t.clicked_name,test_trials.thisRepN,test_trials.thisTrialN,test_trials.thisN,test_trials.thisIndex,test_trials.ran,Bonus
663a5d3e48441f253cc57071,TCN,2024-06-11_13h24.01.481,LearnStrategy,2023.2.3,Win32,15.97444089,,,,,,,,,,,,,,,,,,,,,,,,,,,,,,,,,,,,,,,,,,,
663a5d3e48441f253cc57071,TCN,2024-06-11_13h24.01.481,LearnStrategy,2023.2.3,Win32,15.97444089,1,1,1,-0.025,-0.001851852,1,0,0,6.004,rock_grid_rect_2,2,11,-1,-1,6.004,0.086111111,-0.246296296,1,0,0,11.127,Diorite_rect,3,11.127,0,0,0,0,0,1,,,,,,,,,,,,,
663a5d3e48441f253cc57071,TCN,2024-06-11_13h24.01.481,LearnStrategy,2023.2.3,Win32,15.97444089,1,1,2,0.015740741,-0.001851852,1,0,0,8.2018,rock_grid_rect_2,1,11,-1,-1,8.202,0.171296296,-0.262962963,1,0,0,9.6335,Diorite_rect,3,9.633,0,1,0,1,0,1,,,,,,,,,,,,,
663a5d3e48441f253cc57071,TCN,2024-06-11_13h24.01.481,LearnStrategy,2023.2.3,Win32,15.97444089,1,1,3,0.010185185,-0.001851852,1,0,0,2.9991,rock_grid_rect_2,1,06,-1,-1,2.999,-0.371296296,-0.243518519,1,0,0,4.5619,Andesite_rect,1,4.562,1,2,0,2,0,1,,,,,,,,,,,,,
663a5d3e48441f253cc57071,TCN,2024-06-11_13h24.01.481,LearnStrategy,2023.2.3,Win32,15.97444089,1,1,4,-0.030555556,0.001851852,1,0,0,1.649,rock_grid_rect_2,8,15,-1,-1,1.649,0.387037037,-0.410185185,1,0,0,4.6664,Pumice_rect,8,4.666,1,3,0,3,0,1,,,,,,,,,,,,,
663a5d3e48441f253cc57071,TCN,2024-06-11_13h24.01.481,LearnStrategy,2023.2.3,Win32,15.97444089,1,1,5,-0.073148148,0.014814815,1,0,0,2.4027,rock_grid_rect_2,8,14,-1,-1,2.403,0.413888889,-0.388888889,1,0,0,1.6773,Pumice_rect,8,1.677,1,4,0,4,0,1,,,,,,,,,,,,,
663a5d3e48441f253cc57071,TCN,2024-06-11_13h24.01.481,LearnStrategy,2023.2.3,Win32,15.97444089,1,1,6,-0.07962963,0.011111111,1,0,0,2.6238,rock_grid_rect_2,4,14,-1,-1,2.624,-0.367592593,-0.412037037,1,0,0,7.0815,Obsidian_rect,5,7.081,0,5,0,5,0,1,,,,,,,,,,,,,
663a5d3e48441f253cc57071,TCN,2024-06-11_13h24.01.481,LearnStrategy,2023.2.3,Win32,15.97444089,1,1,7,-0.00462963,-0.002777778,1,0,0,5.8443,rock_grid_rect_2,5,16,-1,-1,5.844,-0.423148148,-0.410185185,1,0,0,1.3646,Obsidian_rect,5,1.365,1,6,0,6,0,1,,,,,,,,,,,,,
663a5d3e48441f253cc57071,TCN,2024-06-11_13h24.01.481,LearnStrategy,2023.2.3,Win32,15.97444089,1,1,8,-0.025925926,-0.005555556,1,0,0,1.499,rock_grid_rect_2,3,02,-1,-1,1.499,-0.097222222,-0.403703704,1,0,0,5.2799,Pegmatite_rect,6,5.28,0,7,0,7,0,1,,,,,,,,,,,,,
663a5d3e48441f253cc57071,TCN,2024-06-11_13h24.01.481,LearnStrategy,2023.2.3,Win32,15.97444089,1,1,9,0.113888889,-0.021296296,1,0,0,3.3587,rock_grid_rect_2,5,14,-1,-1,3.359,-0.416666667,-0.413888889,1,0,0,2.4508,Obsidian_rect,5,2.451,1,8,0,8,0,1,,,,,,,,,,,,,
663a5d3e48441f253cc57071,TCN,2024-06-11_13h24.01.481,LearnStrategy,2023.2.3,Win32,15.97444089,1,1,10,-0.021296296,-0.013888889,1,0,0,1.0707,rock_grid_rect_2,6,13,-1,-1,1.071,0.393518519,-0.39537037,1,0,0,6.2633,Pumice_rect,8,6.263,0,9,0,9,0,1,,,,,,,,,,,,,
663a5d3e48441f253cc57071,TCN,2024-06-11_13h24.01.481,LearnStrategy,2023.2.3,Win32,15.97444089,1,1,11,-0.043518519,0.003703704,1,0,0,3.8856,rock_grid_rect_2,4,16,-1,-1,3.886,0.383333333,-0.262962963,1,0,0,4.4315,Gabbro_rect,4,4.431,1,10,0,10,0,1,,,,,,,,,,,,,
663a5d3e48441f253cc57071,TCN,2024-06-11_13h24.01.481,LearnStrategy,2023.2.3,Win32,15.97444089,1,1,12,-0.086111111,-0.018518519,1,0,0,1.3982,rock_grid_rect_2,7,07,-1,-1,1.398,0.102777778,-0.246296296,1,0,0,4.3937,Diorite_rect,3,4.394,0,11,0,11,0,1,,,,,,,,,,,,,
663a5d3e48441f253cc57071,TCN,2024-06-11_13h24.01.481,LearnStrategy,2023.2.3,Win32,15.97444089,1,1,13,0.037962963,-0.003703704,1,0,0,1.8349,rock_grid_rect_2,2,01,-1,-1,1.835,-0.065740741,-0.267592593,1,0,0,9.2589,Basalt_rect,2,9.259,1,12,0,12,0,1,,,,,,,,,,,,,
663a5d3e48441f253cc57071,TCN,2024-06-11_13h24.01.481,LearnStrategy,2023.2.3,Win32,15.97444089,1,1,14,0.031481481,0.002777778,1,0,0,1.0606,rock_grid_rect_2,6,16,-1,-1,1.061,0.09537037,-0.239814815,1,0,0,8.1476,Diorite_rect,3,8.148,0,13,0,13,0,1,,,,,,,,,,,,,
663a5d3e48441f253cc57071,TCN,2024-06-11_13h24.01.481,LearnStrategy,2023.2.3,Win32,15.97444089,1,1,15,-0.010185185,-0.000925926,1,0,0,1.9264,rock_grid_rect_2,3,11,-1,-1,1.926,0.127777778,-0.393518519,1,0,0,5.8775,Peridotite_rect,7,5.877,0,14,0,14,0,1,,,,,,,,,,,,,
663a5d3e48441f253cc57071,TCN,2024-06-11_13h24.01.481,LearnStrategy,2023.2.3,Win32,15.97444089,1,1,16,0.018518519,0.012037037,1,0,0,1.1143,rock_grid_rect_2,7,06,-1,-1,1.114,0.139814815,-0.390740741,1,0,0,2.3355,Peridotite_rect,7,2.336,1,15,0,15,0,1,,,,,,,,,,,,,
663a5d3e48441f253cc57071,TCN,2024-06-11_13h24.01.481,LearnStrategy,2023.2.3,Win32,15.97444089,1,2,1,,,,,,,,5,08,,,,,,,,,,,5,2.638,1,,,,,,-0.407407407,-0.411111111,1,0,0,2.6377,Obsidian_rect,0,0,0,0,1,
663a5d3e48441f253cc57071,TCN,2024-06-11_13h24.01.481,LearnStrategy,2023.2.3,Win32,15.97444089,1,2,2,,,,,,,,8,04,,,,,,,,,,,8,5.979,1,,,,,,0.412037037,-0.421296296,1,0,0,5.9795,Pumice_rect,1,0,1,0,1,
663a5d3e48441f253cc57071,TCN,2024-06-11_13h24.01.481,LearnStrategy,2023.2.3,Win32,15.97444089,1,2,3,,,,,,,,2,08,,,,,,,,,,,4,1.889,0,,,,,,0.362037037,-0.25462963,1,0,0,1.8895,Gabbro_rect,2,0,2,0,1,
663a5d3e48441f253cc57071,TCN,2024-06-11_13h24.01.481,LearnStrategy,2023.2.3,Win32,15.97444089,1,2,4,,,,,,,,6,07,,,,,,,,,,,6,4.83,1,,,,,,-0.110185185,-0.39537037,1,0,0,4.8296,Pegmatite_rect,3,0,3,0,1,
663a5d3e48441f253cc57071,TCN,2024-06-11_13h24.01.481,LearnStrategy,2023.2.3,Win32,15.97444089,1,2,5,,,,,,,,3,06,,,,,,,,,,,7,7.635,0,,,,,,0.114814815,-0.411111111,1,0,0,7.6345,Peridotite_rect,4,0,4,0,1,
663a5d3e48441f253cc57071,TCN,2024-06-11_13h24.01.481,LearnStrategy,2023.2.3,Win32,15.97444089,1,2,6,,,,,,,,4,05,,,,,,,,,,,4,16.566,1,,,,,,0.371296296,-0.256481481,1,0,0,16.5655,Gabbro_rect,5,0,5,0,1,
663a5d3e48441f253cc57071,TCN,2024-06-11_13h24.01.481,LearnStrategy,2023.2.3,Win32,15.97444089,1,2,7,,,,,,,,1,10,,,,,,,,,,,1,10.708,1,,,,,,-0.35,-0.253703704,1,0,0,10.7079,Andesite_rect,6,0,6,0,1,
663a5d3e48441f253cc57071,TCN,2024-06-11_13h24.01.481,LearnStrategy,2023.2.3,Win32,15.97444089,1,2,8,,,,,,,,3,16,,,,,,,,,,,2,5.073,0,,,,,,-0.134259259,-0.252777778,1,0,0,5.0734,Basalt_rect,7,0,7,0,1,
663a5d3e48441f253cc57071,TCN,2024-06-11_13h24.01.481,LearnStrategy,2023.2.3,Win32,15.97444089,1,2,9,,,,,,,,7,14,,,,,,,,,,,3,3.373,0,,,,,,0.081481481,-0.262037037,1,0,0,3.3725,Diorite_rect,8,0,8,0,1,
663a5d3e48441f253cc57071,TCN,2024-06-11_13h24.01.481,LearnStrategy,2023.2.3,Win32,15.97444089,1,2,10,,,,,,,,8,16,,,,,,,,,,,8,1.324,1,,,,,,0.388888889,-0.394444444,1,0,0,1.3243,Pumice_rect,9,0,9,0,1,
663a5d3e48441f253cc57071,TCN,2024-06-11_13h24.01.481,LearnStrategy,2023.2.3,Win32,15.97444089,1,2,11,,,,,,,,7,08,,,,,,,,,,,3,7.018,0,,,,,,0.116666667,-0.246296296,1,0,0,7.0176,Diorite_rect,10,0,10,0,1,
663a5d3e48441f253cc57071,TCN,2024-06-11_13h24.01.481,LearnStrategy,2023.2.3,Win32,15.97444089,1,2,12,,,,,,,,5,07,,,,,,,,,,,5,1.596,1,,,,,,-0.413888889,-0.394444444,1,0,0,1.5964,Obsidian_rect,11,0,11,0,1,
663a5d3e48441f253cc57071,TCN,2024-06-11_13h24.01.481,LearnStrategy,2023.2.3,Win32,15.97444089,1,2,13,,,,,,,,6,06,,,,,,,,,,,6,3.732,1,,,,,,-0.116666667,-0.412037037,1,0,0,3.732,Pegmatite_rect,12,0,12,0,1,
663a5d3e48441f253cc57071,TCN,2024-06-11_13h24.01.481,LearnStrategy,2023.2.3,Win32,15.97444089,1,2,14,,,,,,,,1,07,,,,,,,,,,,7,8.892,0,,,,,,0.178703704,-0.42037037,1,0,0,8.8923,Peridotite_rect,13,0,13,0,1,
663a5d3e48441f253cc57071,TCN,2024-06-11_13h24.01.481,LearnStrategy,2023.2.3,Win32,15.97444089,1,2,15,,,,,,,,2,02,,,,,,,,,,,1,2.542,0,,,,,,-0.364814815,-0.248148148,1,0,0,2.5424,Andesite_rect,14,0,14,0,1,
663a5d3e48441f253cc57071,TCN,2024-06-11_13h24.01.481,LearnStrategy,2023.2.3,Win32,15.97444089,1,2,16,,,,,,,,4,13,,,,,,,,,,,4,11.573,1,,,,,,0.346296296,-0.238888889,1,0,0,11.5735,Gabbro_rect,15,0,15,0,1,
663a5d3e48441f253cc57071,TCN,2024-06-11_13h24.01.481,LearnStrategy,2023.2.3,Win32,15.97444089,2,1,1,-0.010185185,-0.005555556,1,0,0,1.387,rock_grid_rect_2,4,11,-1,-1,1.387,-0.368518519,-0.258333333,1,0,0,5.9405,Andesite_rect,1,5.94,0,0,0,0,0,1,,,,,,,,,,,,,
663a5d3e48441f253cc57071,TCN,2024-06-11_13h24.01.481,LearnStrategy,2023.2.3,Win32,15.97444089,2,1,2,-0.041666667,0,1,0,0,1.0753,rock_grid_rect_2,8,08,-1,-1,1.075,0.405555556,-0.401851852,1,0,0,1.4139,Pumice_rect,8,1.414,1,1,0,1,0,1,,,,,,,,,,,,,
663a5d3e48441f253cc57071,TCN,2024-06-11_13h24.01.481,LearnStrategy,2023.2.3,Win32,15.97444089,2,1,3,-0.039814815,-0.008333333,1,0,0,1.1474,rock_grid_rect_2,6,08,-1,-1,1.147,-0.384259259,-0.394444444,1,0,0,2.0711,Obsidian_rect,5,2.071,0,2,0,2,0,1,,,,,,,,,,,,,
663a5d3e48441f253cc57071,TCN,2024-06-11_13h24.01.481,LearnStrategy,2023.2.3,Win32,15.97444089,2,1,4,0.041666667,0.017592593,1,0,0,1.0943,rock_grid_rect_2,7,10,-1,-1,1.094,0.112962963,-0.243518519,1,0,0,3.9603,Diorite_rect,3,3.96,0,3,0,3,0,1,,,,,,,,,,,,,
663a5d3e48441f253cc57071,TCN,2024-06-11_13h24.01.481,LearnStrategy,2023.2.3,Win32,15.97444089,2,1,5,0.021296296,-0.007407407,1,0,0,0.8951,rock_grid_rect_2,2,14,-1,-1,0.895,0.340740741,-0.385185185,1,0,0,4.1372,Pumice_rect,8,4.137,0,4,0,4,0,1,,,,,,,,,,,,,
663a5d3e48441f253cc57071,TCN,2024-06-11_13h24.01.481,LearnStrategy,2023.2.3,Win32,15.97444089,2,1,6,0.012962963,-0.00462963,1,0,0,1.0609,rock_grid_rect_2,1,04,-1,-1,1.061,-0.367592593,-0.249074074,1,0,0,4.1165,Andesite_rect,1,4.116,1,5,0,5,0,1,,,,,,,,,,,,,
663a5d3e48441f253cc57071,TCN,2024-06-11_13h24.01.481,LearnStrategy,2023.2.3,Win32,15.97444089,2,1,7,-0.014814815,-0.008333333,1,0,0,0.9682,rock_grid_rect_2,5,09,-1,-1,0.968,-0.374074074,-0.388888889,1,0,0,1.2698,Obsidian_rect,5,1.27,1,6,0,6,0,1,,,,,,,,,,,,,
663a5d3e48441f253cc57071,TCN,2024-06-11_13h24.01.481,LearnStrategy,2023.2.3,Win32,15.97444089,2,1,8,-0.086111111,-0.003703704,1,0,0,0.8879,rock_grid_rect_2,3,10,-1,-1,0.888,0.114814815,-0.256481481,1,0,0,6.6014,Diorite_rect,3,6.601,1,7,0,7,0,1,,,,,,,,,,,,,
663a5d3e48441f253cc57071,TCN,2024-06-11_13h24.01.481,LearnStrategy,2023.2.3,Win32,15.97444089,2,1,9,-0.071296296,0.008333333,1,0,0,1.2509,rock_grid_rect_2,5,06,-1,-1,1.251,-0.359259259,-0.407407407,1,0,0,1.5633,Obsidian_rect,5,1.563,1,8,0,8,0,1,,,,,,,,,,,,,
663a5d3e48441f253cc57071,TCN,2024-06-11_13h24.01.481,LearnStrategy,2023.2.3,Win32,15.97444089,2,1,10,-0.012037037,-0.012037037,1,0,0,0.944,rock_grid_rect_2,6,05,-1,-1,0.944,-0.165740741,-0.409259259,1,0,0,3.6841,Pegmatite_rect,6,3.684,1,9,0,9,0,1,,,,,,,,,,,,,
663a5d3e48441f253cc57071,TCN,2024-06-11_13h24.01.481,LearnStrategy,2023.2.3,Win32,15.97444089,2,1,11,-0.035185185,-0.001851852,1,0,0,0.9695,rock_grid_rect_2,7,02,-1,-1,0.97,0.124074074,-0.409259259,1,0,0,4.1153,Peridotite_rect,7,4.115,1,10,0,10,0,1,,,,,,,,,,,,,
663a5d3e48441f253cc57071,TCN,2024-06-11_13h24.01.481,LearnStrategy,2023.2.3,Win32,15.97444089,2,1,12,-0.088888889,0.007407407,1,0,0,1.4085,rock_grid_rect_2,3,13,-1,-1,1.409,-0.128703704,-0.391666667,1,0,0,7.7305,Pegmatite_rect,6,7.731,0,11,0,11,0,1,,,,,,,,,,,,,
663a5d3e48441f253cc57071,TCN,2024-06-11_13h24.01.481,LearnStrategy,2023.2.3,Win32,15.97444089,2,1,13,-0.031481481,-0.008333333,1,0,0,1.5801,rock_grid_rect_2,4,12,-1,-1,1.58,0.387037037,-0.247222222,1,0,0,6.4833,Gabbro_rect,4,6.483,1,12,0,12,0,1,,,,,,,,,,,,,
663a5d3e48441f253cc57071,TCN,2024-06-11_13h24.01.481,LearnStrategy,2023.2.3,Win32,15.97444089,2,1,14,0.025,-0.003703704,1,0,0,2.8494,rock_grid_rect_2,8,13,-1,-1,2.849,0.364814815,-0.397222222,1,0,0,1.363,Pumice_rect,8,1.363,1,13,0,13,0,1,,,,,,,,,,,,,
663a5d3e48441f253cc57071,TCN,2024-06-11_13h24.01.481,LearnStrategy,2023.2.3,Win32,15.97444089,2,1,15,-0.118518519,-0.011111111,1,0,0,0.7221,rock_grid_rect_2,2,06,-1,-1,0.722,-0.372222222,-0.401851852,1,0,0,1.3677,Obsidian_rect,5,1.368,0,14,0,14,0,1,,,,,,,,,,,,,
663a5d3e48441f253cc57071,TCN,2024-06-11_13h24.01.481,LearnStrategy,2023.2.3,Win32,15.97444089,2,1,16,-0.052777778,0.006481481,1,0,0,0.9775,rock_grid_rect_2,1,14,-1,-1,0.978,0.083333333,-0.25,1,0,0,6.3699,Diorite_rect,3,6.37,0,15,0,15,0,1,,,,,,,,,,,,,
663a5d3e48441f253cc57071,TCN,2024-06-11_13h24.01.481,LearnStrategy,2023.2.3,Win32,15.97444089,2,2,1,,,,,,,,7,12,,,,,,,,,,,7,2.492,1,,,,,,0.162037037,-0.411111111,1,0,0,2.4916,Peridotite_rect,0,0,0,0,1,
663a5d3e48441f253cc57071,TCN,2024-06-11_13h24.01.481,LearnStrategy,2023.2.3,Win32,15.97444089,2,2,2,,,,,,,,1,02,,,,,,,,,,,8,7.001,0,,,,,,0.391666667,-0.413888889,1,0,0,7.0012,Pumice_rect,1,0,1,0,1,
663a5d3e48441f253cc57071,TCN,2024-06-11_13h24.01.481,LearnStrategy,2023.2.3,Win32,15.97444089,2,2,3,,,,,,,,3,12,,,,,,,,,,,3,8.765,1,,,,,,0.119444444,-0.259259259,1,0,0,8.7653,Diorite_rect,2,0,2,0,1,
663a5d3e48441f253cc57071,TCN,2024-06-11_13h24.01.481,LearnStrategy,2023.2.3,Win32,15.97444089,2,2,4,,,,,,,,2,12,,,,,,,,,,,2,6.085,1,,,,,,-0.1,-0.265740741,1,0,0,6.0851,Basalt_rect,3,0,3,0,1,
663a5d3e48441f253cc57071,TCN,2024-06-11_13h24.01.481,LearnStrategy,2023.2.3,Win32,15.97444089,2,2,5,,,,,,,,7,16,,,,,,,,,,,7,2.864,1,,,,,,0.166666667,-0.411111111,1,0,0,2.8637,Peridotite_rect,4,0,4,0,1,
663a5d3e48441f253cc57071,TCN,2024-06-11_13h24.01.481,LearnStrategy,2023.2.3,Win32,15.97444089,2,2,6,,,,,,,,6,12,,,,,,,,,,,3,6.611,0,,,,,,0.134259259,-0.25462963,1,0,0,6.6109,Diorite_rect,5,0,5,0,1,
663a5d3e48441f253cc57071,TCN,2024-06-11_13h24.01.481,LearnStrategy,2023.2.3,Win32,15.97444089,2,2,7,,,,,,,,6,09,,,,,,,,,,,6,2.197,1,,,,,,-0.121296296,-0.418518519,1,0,0,2.1968,Pegmatite_rect,6,0,6,0,1,
663a5d3e48441f253cc57071,TCN,2024-06-11_13h24.01.481,LearnStrategy,2023.2.3,Win32,15.97444089,2,2,8,,,,,,,,5,02,,,,,,,,,,,5,1.192,1,,,,,,-0.399074074,-0.399074074,1,0,0,1.1925,Obsidian_rect,7,0,7,0,1,
663a5d3e48441f253cc57071,TCN,2024-06-11_13h24.01.481,LearnStrategy,2023.2.3,Win32,15.97444089,2,2,9,,,,,,,,3,14,,,,,,,,,,,3,3.541,1,,,,,,0.137962963,-0.262962963,1,0,0,3.5406,Diorite_rect,8,0,8,0,1,
663a5d3e48441f253cc57071,TCN,2024-06-11_13h24.01.481,LearnStrategy,2023.2.3,Win32,15.97444089,2,2,10,,,,,,,,5,04,,,,,,,,,,,5,1.387,1,,,,,,-0.401851852,-0.400925926,1,0,0,1.3873,Obsidian_rect,9,0,9,0,1,
663a5d3e48441f253cc57071,TCN,2024-06-11_13h24.01.481,LearnStrategy,2023.2.3,Win32,15.97444089,2,2,11,,,,,,,,2,04,,,,,,,,,,,4,1.855,0,,,,,,0.408333333,-0.236111111,1,0,0,1.8545,Gabbro_rect,10,0,10,0,1,
663a5d3e48441f253cc57071,TCN,2024-06-11_13h24.01.481,LearnStrategy,2023.2.3,Win32,15.97444089,2,2,12,,,,,,,,4,01,,,,,,,,,,,1,4.714,0,,,,,,-0.391666667,-0.257407407,1,0,0,4.7141,Andesite_rect,11,0,11,0,1,
663a5d3e48441f253cc57071,TCN,2024-06-11_13h24.01.481,LearnStrategy,2023.2.3,Win32,15.97444089,2,2,13,,,,,,,,4,15,,,,,,,,,,,6,8.475,0,,,,,,-0.089814815,-0.410185185,1,0,0,8.4745,Pegmatite_rect,12,0,12,0,1,
663a5d3e48441f253cc57071,TCN,2024-06-11_13h24.01.481,LearnStrategy,2023.2.3,Win32,15.97444089,2,2,14,,,,,,,,8,05,,,,,,,,,,,8,1.118,1,,,,,,0.380555556,-0.406481481,1,0,0,1.1179,Pumice_rect,13,0,13,0,1,
663a5d3e48441f253cc57071,TCN,2024-06-11_13h24.01.481,LearnStrategy,2023.2.3,Win32,15.97444089,2,2,15,,,,,,,,8,06,,,,,,,,,,,8,1.416,1,,,,,,0.396296296,-0.413888889,1,0,0,1.4157,Pumice_rect,14,0,14,0,1,
663a5d3e48441f253cc57071,TCN,2024-06-11_13h24.01.481,LearnStrategy,2023.2.3,Win32,15.97444089,2,2,16,,,,,,,,1,09,,,,,,,,,,,1,1.7,1,,,,,,-0.4,-0.262037037,1,0,0,1.6997,Andesite_rect,15,0,15,0,1,
663a5d3e48441f253cc57071,TCN,2024-06-11_13h24.01.481,LearnStrategy,2023.2.3,Win32,15.97444089,3,1,1,-0.07962963,0.001851852,1,0,0,1.0878,rock_grid_rect_2,5,12,-1,-1,1.088,-0.407407407,-0.401851852,1,0,0,1.2458,Obsidian_rect,5,1.246,1,0,0,0,0,1,,,,,,,,,,,,,
663a5d3e48441f253cc57071,TCN,2024-06-11_13h24.01.481,LearnStrategy,2023.2.3,Win32,15.97444089,3,1,2,-0.067592593,0.006481481,1,0,0,1.0598,rock_grid_rect_2,1,03,-1,-1,1.06,-0.381481481,-0.252777778,1,0,0,4.0331,Andesite_rect,1,4.033,1,1,0,1,0,1,,,,,,,,,,,,,
663a5d3e48441f253cc57071,TCN,2024-06-11_13h24.01.481,LearnStrategy,2023.2.3,Win32,15.97444089,3,1,3,-0.043518519,-0.009259259,1,0,0,1.3099,rock_grid_rect_2,8,10,-1,-1,1.31,0.375925926,-0.396296296,1,0,0,1.3354,Pumice_rect,8,1.335,1,2,0,2,0,1,,,,,,,,,,,,,
663a5d3e48441f253cc57071,TCN,2024-06-11_13h24.01.481,LearnStrategy,2023.2.3,Win32,15.97444089,3,1,4,-0.048148148,0.013888889,1,0,0,0.7944,rock_grid_rect_2,5,05,-1,-1,0.794,-0.392592593,-0.407407407,1,0,0,1.4564,Obsidian_rect,5,1.456,1,3,0,3,0,1,,,,,,,,,,,,,
663a5d3e48441f253cc57071,TCN,2024-06-11_13h24.01.481,LearnStrategy,2023.2.3,Win32,15.97444089,3,1,5,-0.023148148,-0.001851852,1,0,0,0.7022,rock_grid_rect_2,7,05,-1,-1,0.702,-0.082407407,-0.246296296,1,0,0,11.2997,Basalt_rect,2,11.3,0,4,0,4,0,1,,,,,,,,,,,,,
663a5d3e48441f253cc57071,TCN,2024-06-11_13h24.01.481,LearnStrategy,2023.2.3,Win32,15.97444089,3,1,6,-0.078703704,0,1,0,0,3.4857,rock_grid_rect_2,2,09,-1,-1,3.486,0.363888889,-0.267592593,1,0,0,3.4852,Gabbro_rect,4,3.485,0,5,0,5,0,1,,,,,,,,,,,,,
663a5d3e48441f253cc57071,TCN,2024-06-11_13h24.01.481,LearnStrategy,2023.2.3,Win32,15.97444089,3,1,7,0.015740741,0.014814815,1,0,0,1.237,rock_grid_rect_2,6,10,-1,-1,1.237,-0.159259259,-0.386111111,1,0,0,4.0275,Pegmatite_rect,6,4.027,1,6,0,6,0,1,,,,,,,,,,,,,
663a5d3e48441f253cc57071,TCN,2024-06-11_13h24.01.481,LearnStrategy,2023.2.3,Win32,15.97444089,3,1,8,-0.021296296,0.003703704,1,0,0,0.8785,rock_grid_rect_2,6,03,-1,-1,0.879,-0.152777778,-0.397222222,1,0,0,1.4389,Pegmatite_rect,6,1.439,1,7,0,7,0,1,,,,,,,,,,,,,
663a5d3e48441f253cc57071,TCN,2024-06-11_13h24.01.481,LearnStrategy,2023.2.3,Win32,15.97444089,3,1,9,-0.049074074,0.018518519,1,0,0,0.7044,rock_grid_rect_2,1,01,-1,-1,0.704,-0.408333333,-0.250925926,1,0,0,3.9882,Andesite_rect,1,3.988,1,8,0,8,0,1,,,,,,,,,,,,,
663a5d3e48441f253cc57071,TCN,2024-06-11_13h24.01.481,LearnStrategy,2023.2.3,Win32,15.97444089,3,1,10,-0.094444444,0.006481481,1,0,0,0.7883,rock_grid_rect_2,4,10,-1,-1,0.788,0.355555556,-0.238888889,1,0,0,6.0081,Gabbro_rect,4,6.008,1,9,0,9,0,1,,,,,,,,,,,,,
663a5d3e48441f253cc57071,TCN,2024-06-11_13h24.01.481,LearnStrategy,2023.2.3,Win32,15.97444089,3,1,11,-0.013888889,-0.015740741,1,0,0,1.14,rock_grid_rect_2,2,10,-1,-1,1.14,-0.135185185,-0.258333333,1,0,0,6.0342,Basalt_rect,2,6.034,1,10,0,10,0,1,,,,,,,,,,,,,
663a5d3e48441f253cc57071,TCN,2024-06-11_13h24.01.481,LearnStrategy,2023.2.3,Win32,15.97444089,3,1,12,-0.015740741,-0.010185185,1,0,0,1.0922,rock_grid_rect_2,4,09,-1,-1,1.092,0.375,-0.246296296,1,0,0,4.546,Gabbro_rect,4,4.546,1,11,0,11,0,1,,,,,,,,,,,,,
663a5d3e48441f253cc57071,TCN,2024-06-11_13h24.01.481,LearnStrategy,2023.2.3,Win32,15.97444089,3,1,13,0.064814815,-0.010185185,1,0,0,0.7999,rock_grid_rect_2,3,07,-1,-1,0.8,0.078703704,-0.263888889,1,0,0,3.6543,Diorite_rect,3,3.654,1,12,0,12,0,1,,,,,,,,,,,,,
663a5d3e48441f253cc57071,TCN,2024-06-11_13h24.01.481,LearnStrategy,2023.2.3,Win32,15.97444089,3,1,14,-0.025925926,-0.005555556,1,0,0,1.404,rock_grid_rect_2,3,15,-1,-1,1.404,-0.352777778,-0.251851852,1,0,0,2.673,Andesite_rect,1,2.673,0,13,0,13,0,1,,,,,,,,,,,,,
663a5d3e48441f253cc57071,TCN,2024-06-11_13h24.01.481,LearnStrategy,2023.2.3,Win32,15.97444089,3,1,15,-0.018518519,-0.000925926,1,0,0,1.1312,rock_grid_rect_2,7,15,-1,-1,1.131,0.103703704,-0.400925926,1,0,0,1.4722,Peridotite_rect,7,1.472,1,14,0,14,0,1,,,,,,,,,,,,,
663a5d3e48441f253cc57071,TCN,2024-06-11_13h24.01.481,LearnStrategy,2023.2.3,Win32,15.97444089,3,1,16,0.010185185,0.002777778,1,0,0,2.0996,rock_grid_rect_2,8,09,-1,-1,2.1,0.37962963,-0.408333333,1,0,0,1.6162,Pumice_rect,8,1.616,1,15,0,15,0,1,,,,,,,,,,,,,
663a5d3e48441f253cc57071,TCN,2024-06-11_13h24.01.481,LearnStrategy,2023.2.3,Win32,15.97444089,3,2,1,,,,,,,,5,11,,,,,,,,,,,5,2.458,1,,,,,,-0.424074074,-0.402777778,1,0,0,2.4583,Obsidian_rect,0,0,0,0,1,
663a5d3e48441f253cc57071,TCN,2024-06-11_13h24.01.481,LearnStrategy,2023.2.3,Win32,15.97444089,3,2,2,,,,,,,,8,03,,,,,,,,,,,8,1.694,1,,,,,,0.426851852,-0.416666667,1,0,0,1.6943,Pumice_rect,1,0,1,0,1,
663a5d3e48441f253cc57071,TCN,2024-06-11_13h24.01.481,LearnStrategy,2023.2.3,Win32,15.97444089,3,2,3,,,,,,,,3,09,,,,,,,,,,,3,5.238,1,,,,,,0.102777778,-0.235185185,1,0,0,5.2376,Diorite_rect,2,0,2,0,1,
663a5d3e48441f253cc57071,TCN,2024-06-11_13h24.01.481,LearnStrategy,2023.2.3,Win32,15.97444089,3,2,4,,,,,,,,2,05,,,,,,,,,,,2,3.062,1,,,,,,-0.148148148,-0.253703704,1,0,0,3.0621,Basalt_rect,3,0,3,0,1,
663a5d3e48441f253cc57071,TCN,2024-06-11_13h24.01.481,LearnStrategy,2023.2.3,Win32,15.97444089,3,2,5,,,,,,,,6,11,,,,,,,,,,,6,2.148,1,,,,,,-0.125,-0.415740741,1,0,0,2.1477,Pegmatite_rect,4,0,4,0,1,
663a5d3e48441f253cc57071,TCN,2024-06-11_13h24.01.481,LearnStrategy,2023.2.3,Win32,15.97444089,3,2,6,,,,,,,,2,16,,,,,,,,,,,4,4.478,0,,,,,,0.415740741,-0.262037037,1,0,0,4.4781,Gabbro_rect,5,0,5,0,1,
663a5d3e48441f253cc57071,TCN,2024-06-11_13h24.01.481,LearnStrategy,2023.2.3,Win32,15.97444089,3,2,7,,,,,,,,1,05,,,,,,,,,,,7,11.942,0,,,,,,0.15462963,-0.398148148,1,0,0,11.9424,Peridotite_rect,6,0,6,0,1,
663a5d3e48441f253cc57071,TCN,2024-06-11_13h24.01.481,LearnStrategy,2023.2.3,Win32,15.97444089,3,2,8,,,,,,,,4,08,,,,,,,,,,,4,3.909,1,,,,,,0.431481481,-0.237962963,1,0,0,3.9088,Gabbro_rect,7,0,7,0,1,
663a5d3e48441f253cc57071,TCN,2024-06-11_13h24.01.481,LearnStrategy,2023.2.3,Win32,15.97444089,3,2,9,,,,,,,,7,13,,,,,,,,,,,6,1.655,0,,,,,,-0.135185185,-0.387962963,1,0,0,1.6553,Pegmatite_rect,8,0,8,0,1,
663a5d3e48441f253cc57071,TCN,2024-06-11_13h24.01.481,LearnStrategy,2023.2.3,Win32,15.97444089,3,2,10,,,,,,,,3,08,,,,,,,,,,,3,4.536,1,,,,,,0.152777778,-0.238888889,1,0,0,4.5358,Diorite_rect,9,0,9,0,1,
663a5d3e48441f253cc57071,TCN,2024-06-11_13h24.01.481,LearnStrategy,2023.2.3,Win32,15.97444089,3,2,11,,,,,,,,8,02,,,,,,,,,,,8,1.636,1,,,,,,0.39537037,-0.405555556,1,0,0,1.6359,Pumice_rect,10,0,10,0,1,
663a5d3e48441f253cc57071,TCN,2024-06-11_13h24.01.481,LearnStrategy,2023.2.3,Win32,15.97444089,3,2,12,,,,,,,,6,15,,,,,,,,,,,6,1.539,1,,,,,,-0.132407407,-0.391666667,1,0,0,1.5392,Pegmatite_rect,11,0,11,0,1,
663a5d3e48441f253cc57071,TCN,2024-06-11_13h24.01.481,LearnStrategy,2023.2.3,Win32,15.97444089,3,2,13,,,,,,,,4,03,,,,,,,,,,,3,4.286,0,,,,,,0.155555556,-0.250925926,1,0,0,4.2862,Diorite_rect,12,0,12,0,1,
663a5d3e48441f253cc57071,TCN,2024-06-11_13h24.01.481,LearnStrategy,2023.2.3,Win32,15.97444089,3,2,14,,,,,,,,1,16,,,,,,,,,,,1,2.659,1,,,,,,-0.469444444,-0.243518519,1,0,0,2.6587,Andesite_rect,13,0,13,0,1,
663a5d3e48441f253cc57071,TCN,2024-06-11_13h24.01.481,LearnStrategy,2023.2.3,Win32,15.97444089,3,2,15,,,,,,,,7,04,,,,,,,,,,,6,2.26,0,,,,,,-0.117592593,-0.384259259,1,0,0,2.2601,Pegmatite_rect,14,0,14,0,1,
663a5d3e48441f253cc57071,TCN,2024-06-11_13h24.01.481,LearnStrategy,2023.2.3,Win32,15.97444089,3,2,16,,,,,,,,5,10,,,,,,,,,,,5,1.261,1,,,,,,-0.415740741,-0.387037037,1,0,0,1.2606,Obsidian_rect,15,0,15,0,1,
663a5d3e48441f253cc57071,TCN,2024-06-11_13h24.01.481,LearnStrategy,2023.2.3,Win32,15.97444089,4,1,1,-0.012037037,0.000925926,1,0,0,1.2194,rock_grid_rect_2,8,10,-1,-1,1.219,0.398148148,-0.391666667,1,0,0,2.0239,Pumice_rect,8,2.024,1,0,0,0,0,1,,,,,,,,,,,,,
663a5d3e48441f253cc57071,TCN,2024-06-11_13h24.01.481,LearnStrategy,2023.2.3,Win32,15.97444089,4,1,2,-0.033333333,0.008333333,1,0,0,0.8003,rock_grid_rect_2,5,12,-1,-1,0.8,-0.402777778,-0.410185185,1,0,0,1.2267,Obsidian_rect,5,1.227,1,1,0,1,0,1,,,,,,,,,,,,,
663a5d3e48441f253cc57071,TCN,2024-06-11_13h24.01.481,LearnStrategy,2023.2.3,Win32,15.97444089,4,1,3,-0.009259259,0.003703704,1,0,0,0.8879,rock_grid_rect_2,2,01,-1,-1,0.888,-0.141666667,-0.253703704,1,0,0,2.9437,Basalt_rect,2,2.944,1,2,0,2,0,1,,,,,,,,,,,,,
663a5d3e48441f253cc57071,TCN,2024-06-11_13h24.01.481,LearnStrategy,2023.2.3,Win32,15.97444089,4,1,4,0.000925926,0.009259259,1,0,0,0.7073,rock_grid_rect_2,5,05,-1,-1,0.707,-0.386111111,-0.397222222,1,0,0,2.2595,Obsidian_rect,5,2.26,1,3,0,3,0,1,,,,,,,,,,,,,
663a5d3e48441f253cc57071,TCN,2024-06-11_13h24.01.481,LearnStrategy,2023.2.3,Win32,15.97444089,4,1,5,0.055555556,0.005555556,1,0,0,0.7187,rock_grid_rect_2,1,01,-1,-1,0.719,0.128703704,-0.24537037,1,0,0,10.8241,Diorite_rect,3,10.824,0,4,0,4,0,1,,,,,,,,,,,,,
663a5d3e48441f253cc57071,TCN,2024-06-11_13h24.01.481,LearnStrategy,2023.2.3,Win32,15.97444089,4,1,6,0.034259259,0.002777778,1,0,0,0.7818,rock_grid_rect_2,6,10,-1,-1,0.782,-0.134259259,-0.408333333,1,0,0,2.0927,Pegmatite_rect,6,2.093,1,5,0,5,0,1,,,,,,,,,,,,,
663a5d3e48441f253cc57071,TCN,2024-06-11_13h24.01.481,LearnStrategy,2023.2.3,Win32,15.97444089,4,1,7,0.023148148,-0.007407407,1,0,0,0.6216,rock_grid_rect_2,6,13,-1,-1,0.622,-0.133333333,-0.414814815,1,0,0,5.5772,Pegmatite_rect,6,5.577,1,6,0,6,0,1,,,,,,,,,,,,,
663a5d3e48441f253cc57071,TCN,2024-06-11_13h24.01.481,LearnStrategy,2023.2.3,Win32,15.97444089,4,1,8,-0.010185185,-0.000925926,1,0,0,0.7022,rock_grid_rect_2,3,11,-1,-1,0.702,0.12037037,-0.253703704,1,0,0,5.6731,Diorite_rect,3,5.673,1,7,0,7,0,1,,,,,,,,,,,,,
663a5d3e48441f253cc57071,TCN,2024-06-11_13h24.01.481,LearnStrategy,2023.2.3,Win32,15.97444089,4,1,9,-0.060185185,0.006481481,1,0,0,0.9781,rock_grid_rect_2,1,14,-1,-1,0.978,-0.42037037,-0.255555556,1,0,0,6.7076,Andesite_rect,1,6.708,1,8,0,8,0,1,,,,,,,,,,,,,
663a5d3e48441f253cc57071,TCN,2024-06-11_13h24.01.481,LearnStrategy,2023.2.3,Win32,15.97444089,4,1,10,-0.074074074,0.011111111,1,0,0,1.958,rock_grid_rect_2,4,12,-1,-1,1.958,-0.135185185,-0.238888889,1,0,0,3.2599,Basalt_rect,2,3.26,0,9,0,9,0,1,,,,,,,,,,,,,
663a5d3e48441f253cc57071,TCN,2024-06-11_13h24.01.481,LearnStrategy,2023.2.3,Win32,15.97444089,4,1,11,0.02037037,0.001851852,1,0,0,0.8764,rock_grid_rect_2,8,15,-1,-1,0.876,0.425925926,-0.415740741,1,0,0,1.2018,Pumice_rect,8,1.202,1,10,0,10,0,1,,,,,,,,,,,,,
663a5d3e48441f253cc57071,TCN,2024-06-11_13h24.01.481,LearnStrategy,2023.2.3,Win32,15.97444089,4,1,12,-0.000925926,-0.008333333,1,0,0,0.7046,rock_grid_rect_2,7,06,-1,-1,0.705,0.125,-0.396296296,1,0,0,2.0143,Peridotite_rect,7,2.014,1,11,0,11,0,1,,,,,,,,,,,,,
663a5d3e48441f253cc57071,TCN,2024-06-11_13h24.01.481,LearnStrategy,2023.2.3,Win32,15.97444089,4,1,13,-0.030555556,-0.005555556,1,0,0,0.7086,rock_grid_rect_2,2,09,-1,-1,0.709,-0.105555556,-0.244444444,1,0,0,2.253,Basalt_rect,2,2.253,1,12,0,12,0,1,,,,,,,,,,,,,
663a5d3e48441f253cc57071,TCN,2024-06-11_13h24.01.481,LearnStrategy,2023.2.3,Win32,15.97444089,4,1,14,-0.012037037,-0.003703704,1,0,0,0.6986,rock_grid_rect_2,7,05,-1,-1,0.699,0.099074074,-0.387962963,1,0,0,2.6605,Peridotite_rect,7,2.66,1,13,0,13,0,1,,,,,,,,,,,,,
663a5d3e48441f253cc57071,TCN,2024-06-11_13h24.01.481,LearnStrategy,2023.2.3,Win32,15.97444089,4,1,15,-0.024074074,-0.007407407,1,0,0,0.6178,rock_grid_rect_2,4,16,-1,-1,0.618,0.381481481,-0.235185185,1,0,0,1.8867,Gabbro_rect,4,1.887,1,14,0,14,0,1,,,,,,,,,,,,,
663a5d3e48441f253cc57071,TCN,2024-06-11_13h24.01.481,LearnStrategy,2023.2.3,Win32,15.97444089,4,1,16,0.032407407,0.000925926,1,0,0,0.7051,rock_grid_rect_2,3,15,-1,-1,0.705,0.14537037,-0.241666667,1,0,0,6.1991,Diorite_rect,3,6.199,1,15,0,15,0,1,,,,,,,,,,,,,
663a5d3e48441f253cc57071,TCN,2024-06-11_13h24.01.481,LearnStrategy,2023.2.3,Win32,15.97444089,4,2,1,,,,,,,,6,06,,,,,,,,,,,6,8.473,1,,,,,,-0.130555556,-0.403703704,1,0,0,8.4732,Pegmatite_rect,0,0,0,0,1,
663a5d3e48441f253cc57071,TCN,2024-06-11_13h24.01.481,LearnStrategy,2023.2.3,Win32,15.97444089,4,2,2,,,,,,,,4,15,,,,,,,,,,,3,3.876,0,,,,,,0.097222222,-0.230555556,1,0,0,3.8757,Diorite_rect,1,0,1,0,1,
663a5d3e48441f253cc57071,TCN,2024-06-11_13h24.01.481,LearnStrategy,2023.2.3,Win32,15.97444089,4,2,3,,,,,,,,4,08,,,,,,,,,,,4,2.545,1,,,,,,0.336111111,-0.260185185,1,0,0,2.5447,Gabbro_rect,2,0,2,0,1,
663a5d3e48441f253cc57071,TCN,2024-06-11_13h24.01.481,LearnStrategy,2023.2.3,Win32,15.97444089,4,2,4,,,,,,,,7,16,,,,,,,,,,,7,2.654,1,,,,,,0.160185185,-0.387962963,1,0,0,2.6538,Peridotite_rect,3,0,3,0,1,
663a5d3e48441f253cc57071,TCN,2024-06-11_13h24.01.481,LearnStrategy,2023.2.3,Win32,15.97444089,4,2,5,,,,,,,,5,08,,,,,,,,,,,5,1.328,1,,,,,,-0.394444444,-0.39537037,1,0,0,1.3277,Obsidian_rect,4,0,4,0,1,
663a5d3e48441f253cc57071,TCN,2024-06-11_13h24.01.481,LearnStrategy,2023.2.3,Win32,15.97444089,4,2,6,,,,,,,,1,09,,,,,,,,,,,1,1.47,1,,,,,,-0.42037037,-0.250925926,1,0,0,1.4695,Andesite_rect,5,0,5,0,1,
663a5d3e48441f253cc57071,TCN,2024-06-11_13h24.01.481,LearnStrategy,2023.2.3,Win32,15.97444089,4,2,7,,,,,,,,3,12,,,,,,,,,,,3,6.87,1,,,,,,0.099074074,-0.24537037,1,0,0,6.8702,Diorite_rect,6,0,6,0,1,
663a5d3e48441f253cc57071,TCN,2024-06-11_13h24.01.481,LearnStrategy,2023.2.3,Win32,15.97444089,4,2,8,,,,,,,,8,05,,,,,,,,,,,8,1.658,1,,,,,,0.382407407,-0.408333333,1,0,0,1.6584,Pumice_rect,7,0,7,0,1,
663a5d3e48441f253cc57071,TCN,2024-06-11_13h24.01.481,LearnStrategy,2023.2.3,Win32,15.97444089,4,2,9,,,,,,,,6,11,,,,,,,,,,,5,1.363,0,,,,,,-0.385185185,-0.400925926,1,0,0,1.3635,Obsidian_rect,8,0,8,0,1,
663a5d3e48441f253cc57071,TCN,2024-06-11_13h24.01.481,LearnStrategy,2023.2.3,Win32,15.97444089,4,2,10,,,,,,,,8,02,,,,,,,,,,,8,1.215,1,,,,,,0.392592593,-0.408333333,1,0,0,1.2146,Pumice_rect,9,0,9,0,1,
663a5d3e48441f253cc57071,TCN,2024-06-11_13h24.01.481,LearnStrategy,2023.2.3,Win32,15.97444089,4,2,11,,,,,,,,3,09,,,,,,,,,,,3,8.185,1,,,,,,0.133333333,-0.230555556,1,0,0,8.1849,Diorite_rect,10,0,10,0,1,
663a5d3e48441f253cc57071,TCN,2024-06-11_13h24.01.481,LearnStrategy,2023.2.3,Win32,15.97444089,4,2,12,,,,,,,,2,12,,,,,,,,,,,4,5.773,0,,,,,,0.362037037,-0.238888889,0,0,1,5.7731,Gabbro_rect,11,0,11,0,1,
663a5d3e48441f253cc57071,TCN,2024-06-11_13h24.01.481,LearnStrategy,2023.2.3,Win32,15.97444089,4,2,13,,,,,,,,5,07,,,,,,,,,,,5,1.786,1,,,,,,-0.377777778,-0.398148148,1,0,0,1.7864,Obsidian_rect,12,0,12,0,1,
663a5d3e48441f253cc57071,TCN,2024-06-11_13h24.01.481,LearnStrategy,2023.2.3,Win32,15.97444089,4,2,14,,,,,,,,2,04,,,,,,,,,,,2,1.615,1,,,,,,-0.09537037,-0.242592593,1,0,0,1.6154,Basalt_rect,13,0,13,0,1,
663a5d3e48441f253cc57071,TCN,2024-06-11_13h24.01.481,LearnStrategy,2023.2.3,Win32,15.97444089,4,2,15,,,,,,,,1,05,,,,,,,,,,,1,6.795,1,,,,,,-0.415740741,-0.25462963,1,0,0,6.7949,Andesite_rect,14,0,14,0,1,
663a5d3e48441f253cc57071,TCN,2024-06-11_13h24.01.481,LearnStrategy,2023.2.3,Win32,15.97444089,4,2,16,,,,,,,,7,08,,,,,,,,,,,7,1.416,1,,,,,,0.155555556,-0.411111111,1,0,0,1.4155,Peridotite_rect,15,0,15,0,1,
663a5d3e48441f253cc57071,TCN,2024-06-11_13h24.01.481,LearnStrategy,2023.2.3,Win32,15.97444089,5,1,1,0.013888889,0.00462963,1,0,0,0.6877,rock_grid_rect_2,1,11,-1,-1,0.688,0.376851852,-0.246296296,1,0,0,11.5335,Gabbro_rect,4,11.534,0,0,0,0,0,1,,,,,,,,,,,,,
663a5d3e48441f253cc57071,TCN,2024-06-11_13h24.01.481,LearnStrategy,2023.2.3,Win32,15.97444089,5,1,2,-0.039814815,-0.017592593,1,0,0,0.8844,rock_grid_rect_2,6,03,-1,-1,0.884,-0.136111111,-0.416666667,1,0,0,1.4769,Pegmatite_rect,6,1.477,1,1,0,1,0,1,,,,,,,,,,,,,
663a5d3e48441f253cc57071,TCN,2024-06-11_13h24.01.481,LearnStrategy,2023.2.3,Win32,15.97444089,5,1,3,0.005555556,-0.021296296,1,0,0,0.5416,rock_grid_rect_2,5,16,-1,-1,0.542,-0.424074074,-0.394444444,1,0,0,1.1684,Obsidian_rect,5,1.168,1,2,0,2,0,1,,,,,,,,,,,,,
663a5d3e48441f253cc57071,TCN,2024-06-11_13h24.01.481,LearnStrategy,2023.2.3,Win32,15.97444089,5,1,4,0.021296296,0.008333333,1,0,0,0.6924,rock_grid_rect_2,4,11,-1,-1,0.692,-0.115740741,-0.257407407,1,0,0,4.173,Basalt_rect,2,4.173,0,3,0,3,0,1,,,,,,,,,,,,,
663a5d3e48441f253cc57071,TCN,2024-06-11_13h24.01.481,LearnStrategy,2023.2.3,Win32,15.97444089,5,1,5,0.040740741,0.006481481,1,0,0,0.7818,rock_grid_rect_2,5,06,-1,-1,0.782,-0.412962963,-0.387962963,1,0,0,1.0829,Obsidian_rect,5,1.083,1,4,0,4,0,1,,,,,,,,,,,,,
663a5d3e48441f253cc57071,TCN,2024-06-11_13h24.01.481,LearnStrategy,2023.2.3,Win32,15.97444089,5,1,6,0.013888889,-0.013888889,1,0,0,0.695,rock_grid_rect_2,3,02,-1,-1,0.695,0.131481481,-0.416666667,1,0,0,1.2361,Peridotite_rect,7,1.236,0,5,0,5,0,1,,,,,,,,,,,,,
663a5d3e48441f253cc57071,TCN,2024-06-11_13h24.01.481,LearnStrategy,2023.2.3,Win32,15.97444089,5,1,7,0.022222222,0.00462963,1,0,0,1.4889,rock_grid_rect_2,8,09,-1,-1,1.489,0.353703704,-0.403703704,1,0,0,1.2572,Pumice_rect,8,1.257,1,6,0,6,0,1,,,,,,,,,,,,,
663a5d3e48441f253cc57071,TCN,2024-06-11_13h24.01.481,LearnStrategy,2023.2.3,Win32,15.97444089,5,1,8,-0.028703704,0.000925926,1,0,0,0.6977,rock_grid_rect_2,7,02,-1,-1,0.698,0.164814815,-0.389814815,1,0,0,1.1316,Peridotite_rect,7,1.132,1,7,0,7,0,1,,,,,,,,,,,,,
663a5d3e48441f253cc57071,TCN,2024-06-11_13h24.01.481,LearnStrategy,2023.2.3,Win32,15.97444089,5,1,9,-0.057407407,-0.012037037,1,0,0,0.5414,rock_grid_rect_2,6,16,-1,-1,0.541,-0.168518519,-0.402777778,1,0,0,1.8095,Pegmatite_rect,6,1.81,1,8,0,8,0,1,,,,,,,,,,,,,
663a5d3e48441f253cc57071,TCN,2024-06-11_13h24.01.481,LearnStrategy,2023.2.3,Win32,15.97444089,5,1,10,0.026851852,0.008333333,1,0,0,0.6005,rock_grid_rect_2,2,10,-1,-1,0.601,-0.138888889,-0.238888889,1,0,0,2.2487,Basalt_rect,2,2.249,1,9,0,9,0,1,,,,,,,,,,,,,
663a5d3e48441f253cc57071,TCN,2024-06-11_13h24.01.481,LearnStrategy,2023.2.3,Win32,15.97444089,5,1,11,-0.00462963,0.012037037,1,0,0,0.6235,rock_grid_rect_2,8,13,-1,-1,0.623,0.398148148,-0.412962963,1,0,0,1.1151,Pumice_rect,8,1.115,1,10,0,10,0,1,,,,,,,,,,,,,
663a5d3e48441f253cc57071,TCN,2024-06-11_13h24.01.481,LearnStrategy,2023.2.3,Win32,15.97444089,5,1,12,0.011111111,0.018518519,1,0,0,0.6153,rock_grid_rect_2,1,06,-1,-1,0.615,-0.436111111,-0.233333333,1,0,0,1.443,Andesite_rect,1,1.443,1,11,0,11,0,1,,,,,,,,,,,,,
663a5d3e48441f253cc57071,TCN,2024-06-11_13h24.01.481,LearnStrategy,2023.2.3,Win32,15.97444089,5,1,13,-0.00462963,0.001851852,1,0,0,0.5344,rock_grid_rect_2,2,14,-1,-1,0.534,0.42037037,-0.233333333,1,0,0,3.2942,Gabbro_rect,4,3.294,0,12,0,12,0,1,,,,,,,,,,,,,
663a5d3e48441f253cc57071,TCN,2024-06-11_13h24.01.481,LearnStrategy,2023.2.3,Win32,15.97444089,5,1,14,0.05,-0.003703704,1,0,0,3.7165,rock_grid_rect_2,4,10,-1,-1,3.716,0.391666667,-0.259259259,1,0,0,1.9211,Gabbro_rect,4,1.921,1,13,0,13,0,1,,,,,,,,,,,,,
663a5d3e48441f253cc57071,TCN,2024-06-11_13h24.01.481,LearnStrategy,2023.2.3,Win32,15.97444089,5,1,15,0.005555556,-0.00462963,1,0,0,0.5176,rock_grid_rect_2,7,10,-1,-1,0.518,0.101851852,-0.40462963,1,0,0,1.4893,Peridotite_rect,7,1.489,1,14,0,14,0,1,,,,,,,,,,,,,
663a5d3e48441f253cc57071,TCN,2024-06-11_13h24.01.481,LearnStrategy,2023.2.3,Win32,15.97444089,5,1,16,-0.031481481,0.021296296,1,0,0,0.6175,rock_grid_rect_2,3,10,-1,-1,0.618,0.128703704,-0.241666667,1,0,0,1.3425,Diorite_rect,3,1.342,1,15,0,15,0,1,,,,,,,,,,,,,
663a5d3e48441f253cc57071,TCN,2024-06-11_13h24.01.481,LearnStrategy,2023.2.3,Win32,15.97444089,5,2,1,,,,,,,,8,06,,,,,,,,,,,8,2.25,1,,,,,,0.349074074,-0.411111111,1,0,0,2.2504,Pumice_rect,0,0,0,0,1,
663a5d3e48441f253cc57071,TCN,2024-06-11_13h24.01.481,LearnStrategy,2023.2.3,Win32,15.97444089,5,2,2,,,,,,,,8,03,,,,,,,,,,,8,1.255,1,,,,,,0.388888889,-0.408333333,1,0,0,1.255,Pumice_rect,1,0,1,0,1,
663a5d3e48441f253cc57071,TCN,2024-06-11_13h24.01.481,LearnStrategy,2023.2.3,Win32,15.97444089,5,2,3,,,,,,,,5,04,,,,,,,,,,,5,1.205,1,,,,,,-0.448148148,-0.421296296,1,0,0,1.2051,Obsidian_rect,2,0,2,0,1,
663a5d3e48441f253cc57071,TCN,2024-06-11_13h24.01.481,LearnStrategy,2023.2.3,Win32,15.97444089,5,2,4,,,,,,,,3,14,,,,,,,,,,,3,1.459,1,,,,,,0.175925926,-0.248148148,1,0,0,1.4586,Diorite_rect,3,0,3,0,1,
663a5d3e48441f253cc57071,TCN,2024-06-11_13h24.01.481,LearnStrategy,2023.2.3,Win32,15.97444089,5,2,5,,,,,,,,2,08,,,,,,,,,,,2,1.391,1,,,,,,-0.141666667,-0.253703704,1,0,0,1.391,Basalt_rect,4,0,4,0,1,
663a5d3e48441f253cc57071,TCN,2024-06-11_13h24.01.481,LearnStrategy,2023.2.3,Win32,15.97444089,5,2,6,,,,,,,,6,15,,,,,,,,,,,6,1.863,1,,,,,,-0.158333333,-0.414814815,1,0,0,1.8632,Pegmatite_rect,5,0,5,0,1,
663a5d3e48441f253cc57071,TCN,2024-06-11_13h24.01.481,LearnStrategy,2023.2.3,Win32,15.97444089,5,2,7,,,,,,,,2,02,,,,,,,,,,,2,1.984,1,,,,,,-0.137037037,-0.249074074,1,0,0,1.9835,Basalt_rect,6,0,6,0,1,
663a5d3e48441f253cc57071,TCN,2024-06-11_13h24.01.481,LearnStrategy,2023.2.3,Win32,15.97444089,5,2,8,,,,,,,,1,02,,,,,,,,,,,2,6.329,0,,,,,,-0.171296296,-0.261111111,1,0,0,6.3286,Basalt_rect,7,0,7,0,1,
663a5d3e48441f253cc57071,TCN,2024-06-11_13h24.01.481,LearnStrategy,2023.2.3,Win32,15.97444089,5,2,9,,,,,,,,3,16,,,,,,,,,,,3,1.249,1,,,,,,0.125,-0.249074074,1,0,0,1.249,Diorite_rect,8,0,8,0,1,
663a5d3e48441f253cc57071,TCN,2024-06-11_13h24.01.481,LearnStrategy,2023.2.3,Win32,15.97444089,5,2,10,,,,,,,,6,07,,,,,,,,,,,6,1.998,1,,,,,,-0.126851852,-0.392592593,1,0,0,1.9976,Pegmatite_rect,9,0,9,0,1,
663a5d3e48441f253cc57071,TCN,2024-06-11_13h24.01.481,LearnStrategy,2023.2.3,Win32,15.97444089,5,2,11,,,,,,,,7,14,,,,,,,,,,,7,5.639,1,,,,,,0.12962963,-0.414814815,1,0,0,5.6385,Peridotite_rect,10,0,10,0,1,
663a5d3e48441f253cc57071,TCN,2024-06-11_13h24.01.481,LearnStrategy,2023.2.3,Win32,15.97444089,5,2,12,,,,,,,,4,03,,,,,,,,,,,3,2.525,0,,,,,,0.105555556,-0.250925926,1,0,0,2.525,Diorite_rect,11,0,11,0,1,
663a5d3e48441f253cc57071,TCN,2024-06-11_13h24.01.481,LearnStrategy,2023.2.3,Win32,15.97444089,5,2,13,,,,,,,,1,16,,,,,,,,,,,1,1.865,1,,,,,,-0.406481481,-0.249074074,1,0,0,1.8648,Andesite_rect,12,0,12,0,1,
663a5d3e48441f253cc57071,TCN,2024-06-11_13h24.01.481,LearnStrategy,2023.2.3,Win32,15.97444089,5,2,14,,,,,,,,4,13,,,,,,,,,,,3,10.541,0,,,,,,0.087037037,-0.260185185,1,0,0,10.5412,Diorite_rect,13,0,13,0,1,
663a5d3e48441f253cc57071,TCN,2024-06-11_13h24.01.481,LearnStrategy,2023.2.3,Win32,15.97444089,5,2,15,,,,,,,,5,02,,,,,,,,,,,5,1.208,1,,,,,,-0.401851852,-0.408333333,1,0,0,1.2078,Obsidian_rect,14,0,14,0,1,
663a5d3e48441f253cc57071,TCN,2024-06-11_13h24.01.481,LearnStrategy,2023.2.3,Win32,15.97444089,5,2,16,,,,,,,,7,13,,,,,,,,,,,7,3.529,1,,,,,,0.092592593,-0.406481481,1,0,0,3.5291,Peridotite_rect,15,0,15,0,1,
663a5d3e48441f253cc57071,TCN,2024-06-11_13h24.01.481,LearnStrategy,2023.2.3,Win32,15.97444089,6,1,1,0.014814815,-0.00462963,1,0,0,0.6185,rock_grid_rect_2,1,04,-1,-1,0.618,-0.414814815,-0.237962963,1,0,0,3.216,Andesite_rect,1,3.216,1,0,0,0,0,1,,,,,,,,,,,,,
663a5d3e48441f253cc57071,TCN,2024-06-11_13h24.01.481,LearnStrategy,2023.2.3,Win32,15.97444089,6,1,2,-0.05,0.003703704,1,0,0,0.7907,rock_grid_rect_2,3,13,-1,-1,0.791,0.125925926,-0.228703704,1,0,0,1.91,Diorite_rect,3,1.91,1,1,0,1,0,1,,,,,,,,,,,,,
663a5d3e48441f253cc57071,TCN,2024-06-11_13h24.01.481,LearnStrategy,2023.2.3,Win32,15.97444089,6,1,3,-0.033333333,0.022222222,1,0,0,0.6946,rock_grid_rect_2,4,09,-1,-1,0.695,0.384259259,-0.255555556,1,0,0,3.9804,Gabbro_rect,4,3.98,1,2,0,2,0,1,,,,,,,,,,,,,
663a5d3e48441f253cc57071,TCN,2024-06-11_13h24.01.481,LearnStrategy,2023.2.3,Win32,15.97444089,6,1,4,-0.025,-0.023148148,1,0,0,0.7811,rock_grid_rect_2,7,15,-1,-1,0.781,0.101851852,-0.400925926,1,0,0,1.4441,Peridotite_rect,7,1.444,1,3,0,3,0,1,,,,,,,,,,,,,
663a5d3e48441f253cc57071,TCN,2024-06-11_13h24.01.481,LearnStrategy,2023.2.3,Win32,15.97444089,6,1,5,-0.087037037,0.001851852,1,0,0,0.6141,rock_grid_rect_2,8,08,-1,-1,0.614,0.37037037,-0.394444444,1,0,0,3.497,Pumice_rect,8,3.497,1,4,0,4,0,1,,,,,,,,,,,,,
663a5d3e48441f253cc57071,TCN,2024-06-11_13h24.01.481,LearnStrategy,2023.2.3,Win32,15.97444089,6,1,6,-0.010185185,0.008333333,1,0,0,0.7956,rock_grid_rect_2,1,03,-1,-1,0.796,-0.369444444,-0.24537037,1,0,0,3.4896,Andesite_rect,1,3.49,1,5,0,5,0,1,,,,,,,,,,,,,
663a5d3e48441f253cc57071,TCN,2024-06-11_13h24.01.481,LearnStrategy,2023.2.3,Win32,15.97444089,6,1,7,-0.125,-0.016666667,1,0,0,0.6463,rock_grid_rect_2,5,09,-1,-1,0.646,-0.411111111,-0.397222222,1,0,0,1.0979,Obsidian_rect,5,1.098,1,6,0,6,0,1,,,,,,,,,,,,,
663a5d3e48441f253cc57071,TCN,2024-06-11_13h24.01.481,LearnStrategy,2023.2.3,Win32,15.97444089,6,1,8,-0.002777778,-0.001851852,1,0,0,0.5176,rock_grid_rect_2,4,14,-1,-1,0.518,0.366666667,-0.256481481,1,0,0,6.5056,Gabbro_rect,4,6.506,1,7,0,7,0,1,,,,,,,,,,,,,
663a5d3e48441f253cc57071,TCN,2024-06-11_13h24.01.481,LearnStrategy,2023.2.3,Win32,15.97444089,6,1,9,-0.066666667,-0.011111111,1,0,0,0.7749,rock_grid_rect_2,7,07,-1,-1,0.775,0.143518519,-0.400925926,1,0,0,1.2167,Peridotite_rect,7,1.217,1,8,0,8,0,1,,,,,,,,,,,,,
663a5d3e48441f253cc57071,TCN,2024-06-11_13h24.01.481,LearnStrategy,2023.2.3,Win32,15.97444089,6,1,10,-0.013888889,-0.000925926,1,0,0,0.8889,rock_grid_rect_2,2,11,-1,-1,0.889,-0.19537037,-0.243518519,1,0,0,3.1065,Basalt_rect,2,3.106,1,9,0,9,0,1,,,,,,,,,,,,,
663a5d3e48441f253cc57071,TCN,2024-06-11_13h24.01.481,LearnStrategy,2023.2.3,Win32,15.97444089,6,1,11,0.007407407,-0.005555556,1,0,0,0.8623,rock_grid_rect_2,8,14,-1,-1,0.862,0.378703704,-0.392592593,1,0,0,1.0559,Pumice_rect,8,1.056,1,10,0,10,0,1,,,,,,,,,,,,,
663a5d3e48441f253cc57071,TCN,2024-06-11_13h24.01.481,LearnStrategy,2023.2.3,Win32,15.97444089,6,1,12,-0.100925926,0.005555556,1,0,0,0.6229,rock_grid_rect_2,2,06,-1,-1,0.623,-0.122222222,-0.237962963,1,0,0,2.6588,Basalt_rect,2,2.659,1,11,0,11,0,1,,,,,,,,,,,,,
663a5d3e48441f253cc57071,TCN,2024-06-11_13h24.01.481,LearnStrategy,2023.2.3,Win32,15.97444089,6,1,13,-0.009259259,-0.025,1,0,0,0.5318,rock_grid_rect_2,5,14,-1,-1,0.532,-0.407407407,-0.380555556,1,0,0,1.0197,Obsidian_rect,5,1.02,1,12,0,12,0,1,,,,,,,,,,,,,
663a5d3e48441f253cc57071,TCN,2024-06-11_13h24.01.481,LearnStrategy,2023.2.3,Win32,15.97444089,6,1,14,0.010185185,0.00462963,1,0,0,0.5381,rock_grid_rect_2,3,07,-1,-1,0.538,0.160185185,-0.232407407,1,0,0,0.9696,Diorite_rect,3,0.97,1,13,0,13,0,1,,,,,,,,,,,,,
663a5d3e48441f253cc57071,TCN,2024-06-11_13h24.01.481,LearnStrategy,2023.2.3,Win32,15.97444089,6,1,15,0.019444444,0,1,0,0,0.4411,rock_grid_rect_2,6,08,-1,-1,0.441,-0.12962963,-0.413888889,1,0,0,2.0972,Pegmatite_rect,6,2.097,1,14,0,14,0,1,,,,,,,,,,,,,
663a5d3e48441f253cc57071,TCN,2024-06-11_13h24.01.481,LearnStrategy,2023.2.3,Win32,15.97444089,6,1,16,-0.034259259,-0.006481481,1,0,0,0.6125,rock_grid_rect_2,6,05,-1,-1,0.612,-0.119444444,-0.388888889,1,0,0,1.2287,Pegmatite_rect,6,1.229,1,15,0,15,0,1,,,,,,,,,,,,,
663a5d3e48441f253cc57071,TCN,2024-06-11_13h24.01.481,LearnStrategy,2023.2.3,Win32,15.97444089,6,2,1,,,,,,,,5,11,,,,,,,,,,,5,1.15,1,,,,,,-0.406481481,-0.415740741,1,0,0,1.1505,Obsidian_rect,0,0,0,0,1,
663a5d3e48441f253cc57071,TCN,2024-06-11_13h24.01.481,LearnStrategy,2023.2.3,Win32,15.97444089,6,2,2,,,,,,,,2,05,,,,,,,,,,,2,1.308,1,,,,,,-0.134259259,-0.253703704,1,0,0,1.3084,Basalt_rect,1,0,1,0,1,
663a5d3e48441f253cc57071,TCN,2024-06-11_13h24.01.481,LearnStrategy,2023.2.3,Win32,15.97444089,6,2,3,,,,,,,,3,06,,,,,,,,,,,3,1.383,1,,,,,,0.131481481,-0.262037037,1,0,0,1.3827,Diorite_rect,2,0,2,0,1,
663a5d3e48441f253cc57071,TCN,2024-06-11_13h24.01.481,LearnStrategy,2023.2.3,Win32,15.97444089,6,2,4,,,,,,,,7,04,,,,,,,,,,,6,1.563,0,,,,,,-0.130555556,-0.406481481,1,0,0,1.5625,Pegmatite_rect,3,0,3,0,1,
663a5d3e48441f253cc57071,TCN,2024-06-11_13h24.01.481,LearnStrategy,2023.2.3,Win32,15.97444089,6,2,5,,,,,,,,4,05,,,,,,,,,,,7,6.652,0,,,,,,0.142592593,-0.402777778,1,0,0,6.6524,Peridotite_rect,4,0,4,0,1,
663a5d3e48441f253cc57071,TCN,2024-06-11_13h24.01.481,LearnStrategy,2023.2.3,Win32,15.97444089,6,2,6,,,,,,,,8,16,,,,,,,,,,,8,1.213,1,,,,,,0.376851852,-0.417592593,1,0,0,1.2132,Pumice_rect,5,0,5,0,1,
663a5d3e48441f253cc57071,TCN,2024-06-11_13h24.01.481,LearnStrategy,2023.2.3,Win32,15.97444089,6,2,7,,,,,,,,3,08,,,,,,,,,,,3,1.658,1,,,,,,0.147222222,-0.243518519,1,0,0,1.6584,Diorite_rect,6,0,6,0,1,
663a5d3e48441f253cc57071,TCN,2024-06-11_13h24.01.481,LearnStrategy,2023.2.3,Win32,15.97444089,6,2,8,,,,,,,,7,12,,,,,,,,,,,7,1.39,1,,,,,,0.150925926,-0.406481481,1,0,0,1.39,Peridotite_rect,7,0,7,0,1,
663a5d3e48441f253cc57071,TCN,2024-06-11_13h24.01.481,LearnStrategy,2023.2.3,Win32,15.97444089,6,2,9,,,,,,,,2,16,,,,,,,,,,,4,11.656,0,,,,,,0.387962963,-0.238888889,1,0,0,11.6555,Gabbro_rect,8,0,8,0,1,
663a5d3e48441f253cc57071,TCN,2024-06-11_13h24.01.481,LearnStrategy,2023.2.3,Win32,15.97444089,6,2,10,,,,,,,,8,04,,,,,,,,,,,8,0.933,1,,,,,,0.357407407,-0.378703704,1,0,0,0.9327,Pumice_rect,9,0,9,0,1,
663a5d3e48441f253cc57071,TCN,2024-06-11_13h24.01.481,LearnStrategy,2023.2.3,Win32,15.97444089,6,2,11,,,,,,,,6,09,,,,,,,,,,,6,1.089,1,,,,,,-0.118518519,-0.414814815,1,0,0,1.089,Pegmatite_rect,10,0,10,0,1,
663a5d3e48441f253cc57071,TCN,2024-06-11_13h24.01.481,LearnStrategy,2023.2.3,Win32,15.97444089,6,2,12,,,,,,,,5,10,,,,,,,,,,,5,0.974,1,,,,,,-0.412962963,-0.399074074,1,0,0,0.9741,Obsidian_rect,11,0,11,0,1,
663a5d3e48441f253cc57071,TCN,2024-06-11_13h24.01.481,LearnStrategy,2023.2.3,Win32,15.97444089,6,2,13,,,,,,,,1,10,,,,,,,,,,,2,3.089,0,,,,,,-0.138888889,-0.262962963,1,0,0,3.0887,Basalt_rect,12,0,12,0,1,
663a5d3e48441f253cc57071,TCN,2024-06-11_13h24.01.481,LearnStrategy,2023.2.3,Win32,15.97444089,6,2,14,,,,,,,,4,01,,,,,,,,,,,3,1.153,0,,,,,,0.139814815,-0.230555556,1,0,0,1.1533,Diorite_rect,13,0,13,0,1,
663a5d3e48441f253cc57071,TCN,2024-06-11_13h24.01.481,LearnStrategy,2023.2.3,Win32,15.97444089,6,2,15,,,,,,,,6,12,,,,,,,,,,,3,6.239,0,,,,,,0.044444444,-0.239814815,1,0,0,6.2394,Diorite_rect,14,0,14,0,1,
663a5d3e48441f253cc57071,TCN,2024-06-11_13h24.01.481,LearnStrategy,2023.2.3,Win32,15.97444089,6,2,16,,,,,,,,1,07,,,,,,,,,,,1,1.145,1,,,,,,-0.400925926,-0.247222222,1,0,0,1.145,Andesite_rect,15,0,15,0,1,
663a5d3e48441f253cc57071,TCN,2024-06-11_13h24.01.481,LearnStrategy,2023.2.3,Win32,15.97444089,7,1,1,-0.042592593,0,1,0,0,0.8677,rock_grid_rect_2,4,12,-1,-1,0.868,-0.12962963,-0.260185185,1,0,0,2.2299,Basalt_rect,2,2.23,0,0,0,0,0,1,,,,,,,,,,,,,
663a5d3e48441f253cc57071,TCN,2024-06-11_13h24.01.481,LearnStrategy,2023.2.3,Win32,15.97444089,7,1,2,-0.025,0.012037037,1,0,0,0.9302,rock_grid_rect_2,5,06,-1,-1,0.93,-0.424074074,-0.39537037,1,0,0,1.06,Obsidian_rect,5,1.06,1,1,0,1,0,1,,,,,,,,,,,,,
663a5d3e48441f253cc57071,TCN,2024-06-11_13h24.01.481,LearnStrategy,2023.2.3,Win32,15.97444089,7,1,3,-0.037037037,0.017592593,1,0,0,0.6958,rock_grid_rect_2,7,10,-1,-1,0.696,0.125925926,-0.402777778,1,0,0,1.0973,Peridotite_rect,7,1.097,1,2,0,2,0,1,,,,,,,,,,,,,
663a5d3e48441f253cc57071,TCN,2024-06-11_13h24.01.481,LearnStrategy,2023.2.3,Win32,15.97444089,7,1,4,-0.039814815,-0.002777778,1,0,0,0.5273,rock_grid_rect_2,2,10,-1,-1,0.527,-0.123148148,-0.248148148,1,0,0,1.4723,Basalt_rect,2,1.472,1,3,0,3,0,1,,,,,,,,,,,,,
663a5d3e48441f253cc57071,TCN,2024-06-11_13h24.01.481,LearnStrategy,2023.2.3,Win32,15.97444089,7,1,5,-0.039814815,-0.006481481,1,0,0,1.319,rock_grid_rect_2,6,03,-1,-1,1.319,-0.142592593,-0.393518519,1,0,0,0.9835,Pegmatite_rect,6,0.983,1,4,0,4,0,1,,,,,,,,,,,,,
663a5d3e48441f253cc57071,TCN,2024-06-11_13h24.01.481,LearnStrategy,2023.2.3,Win32,15.97444089,7,1,6,-0.02037037,0,1,0,0,1.0568,rock_grid_rect_2,4,10,-1,-1,1.057,0.362962963,-0.242592593,1,0,0,5.2279,Gabbro_rect,4,5.228,1,5,0,5,0,1,,,,,,,,,,,,,
663a5d3e48441f253cc57071,TCN,2024-06-11_13h24.01.481,LearnStrategy,2023.2.3,Win32,15.97444089,7,1,7,-0.039814815,-0.015740741,1,0,0,0.7203,rock_grid_rect_2,8,10,-1,-1,0.72,0.388888889,-0.416666667,1,0,0,1.0238,Pumice_rect,8,1.024,1,6,0,6,0,1,,,,,,,,,,,,,
663a5d3e48441f253cc57071,TCN,2024-06-11_13h24.01.481,LearnStrategy,2023.2.3,Win32,15.97444089,7,1,8,-0.025,0.008333333,1,0,0,0.6916,rock_grid_rect_2,3,13,-1,-1,0.692,0.122222222,-0.261111111,1,0,0,5.1995,Diorite_rect,3,5.199,1,7,0,7,0,1,,,,,,,,,,,,,
663a5d3e48441f253cc57071,TCN,2024-06-11_13h24.01.481,LearnStrategy,2023.2.3,Win32,15.97444089,7,1,9,-0.057407407,0.013888889,1,0,0,0.9541,rock_grid_rect_2,6,10,-1,-1,0.954,-0.142592593,-0.396296296,1,0,0,1.3622,Pegmatite_rect,6,1.362,1,8,0,8,0,1,,,,,,,,,,,,,
663a5d3e48441f253cc57071,TCN,2024-06-11_13h24.01.481,LearnStrategy,2023.2.3,Win32,15.97444089,7,1,10,-0.097222222,0.013888889,1,0,0,1.1303,rock_grid_rect_2,3,07,-1,-1,1.13,0.122222222,-0.242592593,1,0,0,3.4015,Diorite_rect,3,3.401,1,9,0,9,0,1,,,,,,,,,,,,,
663a5d3e48441f253cc57071,TCN,2024-06-11_13h24.01.481,LearnStrategy,2023.2.3,Win32,15.97444089,7,1,11,-0.068518519,0.000925926,1,0,0,0.6027,rock_grid_rect_2,7,02,-1,-1,0.603,0.12962963,-0.414814815,1,0,0,1.2342,Peridotite_rect,7,1.234,1,10,0,10,0,1,,,,,,,,,,,,,
663a5d3e48441f253cc57071,TCN,2024-06-11_13h24.01.481,LearnStrategy,2023.2.3,Win32,15.97444089,7,1,12,0.033333333,-0.02037037,1,0,0,0.5215,rock_grid_rect_2,1,03,-1,-1,0.522,-0.378703704,-0.247222222,1,0,0,1.038,Andesite_rect,1,1.038,1,11,0,11,0,1,,,,,,,,,,,,,
663a5d3e48441f253cc57071,TCN,2024-06-11_13h24.01.481,LearnStrategy,2023.2.3,Win32,15.97444089,7,1,13,0,-0.02037037,1,0,0,0.457,rock_grid_rect_2,2,09,-1,-1,0.457,-0.140740741,-0.236111111,1,0,0,1.2221,Basalt_rect,2,1.222,1,12,0,12,0,1,,,,,,,,,,,,,
663a5d3e48441f253cc57071,TCN,2024-06-11_13h24.01.481,LearnStrategy,2023.2.3,Win32,15.97444089,7,1,14,-0.003703704,-0.00462963,1,0,0,0.4316,rock_grid_rect_2,5,09,-1,-1,0.432,-0.419444444,-0.402777778,1,0,0,1.8377,Obsidian_rect,5,1.838,1,13,0,13,0,1,,,,,,,,,,,,,
663a5d3e48441f253cc57071,TCN,2024-06-11_13h24.01.481,LearnStrategy,2023.2.3,Win32,15.97444089,7,1,15,-0.001851852,0.001851852,1,0,0,0.6132,rock_grid_rect_2,8,09,-1,-1,0.613,0.389814815,-0.411111111,1,0,0,0.9671,Pumice_rect,8,0.967,1,14,0,14,0,1,,,,,,,,,,,,,
663a5d3e48441f253cc57071,TCN,2024-06-11_13h24.01.481,LearnStrategy,2023.2.3,Win32,15.97444089,7,1,16,-0.032407407,-0.007407407,1,0,0,0.7856,rock_grid_rect_2,1,11,-1,-1,0.786,-0.387037037,-0.236111111,1,0,0,2.775,Andesite_rect,1,2.775,1,15,0,15,0,1,,,,,,,,,,,,,
663a5d3e48441f253cc57071,TCN,2024-06-11_13h24.01.481,LearnStrategy,2023.2.3,Win32,15.97444089,7,2,1,,,,,,,,8,04,,,,,,,,,,,8,1.139,1,,,,,,0.4,-0.400925926,1,0,0,1.139,Pumice_rect,0,0,0,0,1,
663a5d3e48441f253cc57071,TCN,2024-06-11_13h24.01.481,LearnStrategy,2023.2.3,Win32,15.97444089,7,2,2,,,,,,,,8,06,,,,,,,,,,,8,0.977,1,,,,,,0.42037037,-0.413888889,1,0,0,0.9771,Pumice_rect,1,0,1,0,1,
663a5d3e48441f253cc57071,TCN,2024-06-11_13h24.01.481,LearnStrategy,2023.2.3,Win32,15.97444089,7,2,3,,,,,,,,1,02,,,,,,,,,,,2,6.185,0,,,,,,-0.14537037,-0.258333333,1,0,0,6.1854,Basalt_rect,2,0,2,0,1,
663a5d3e48441f253cc57071,TCN,2024-06-11_13h24.01.481,LearnStrategy,2023.2.3,Win32,15.97444089,7,2,4,,,,,,,,2,05,,,,,,,,,,,2,1.613,1,,,,,,-0.148148148,-0.238888889,1,0,0,1.6128,Basalt_rect,3,0,3,0,1,
663a5d3e48441f253cc57071,TCN,2024-06-11_13h24.01.481,LearnStrategy,2023.2.3,Win32,15.97444089,7,2,5,,,,,,,,3,14,,,,,,,,,,,3,1.451,1,,,,,,0.131481481,-0.25462963,1,0,0,1.4507,Diorite_rect,4,0,4,0,1,
663a5d3e48441f253cc57071,TCN,2024-06-11_13h24.01.481,LearnStrategy,2023.2.3,Win32,15.97444089,7,2,6,,,,,,,,5,04,,,,,,,,,,,5,1.102,1,,,,,,-0.384259259,-0.396296296,1,0,0,1.1024,Obsidian_rect,5,0,5,0,1,
663a5d3e48441f253cc57071,TCN,2024-06-11_13h24.01.481,LearnStrategy,2023.2.3,Win32,15.97444089,7,2,7,,,,,,,,6,11,,,,,,,,,,,6,1.187,1,,,,,,-0.124074074,-0.401851852,1,0,0,1.1865,Pegmatite_rect,6,0,6,0,1,
663a5d3e48441f253cc57071,TCN,2024-06-11_13h24.01.481,LearnStrategy,2023.2.3,Win32,15.97444089,7,2,8,,,,,,,,3,12,,,,,,,,,,,3,1.84,1,,,,,,0.14537037,-0.238888889,1,0,0,1.8404,Diorite_rect,7,0,7,0,1,
663a5d3e48441f253cc57071,TCN,2024-06-11_13h24.01.481,LearnStrategy,2023.2.3,Win32,15.97444089,7,2,9,,,,,,,,2,08,,,,,,,,,,,2,3.928,1,,,,,,-0.139814815,-0.236111111,1,0,0,3.9275,Basalt_rect,8,0,8,0,1,
663a5d3e48441f253cc57071,TCN,2024-06-11_13h24.01.481,LearnStrategy,2023.2.3,Win32,15.97444089,7,2,10,,,,,,,,7,14,,,,,,,,,,,7,2.309,1,,,,,,0.122222222,-0.402777778,1,0,0,2.3094,Peridotite_rect,9,0,9,0,1,
663a5d3e48441f253cc57071,TCN,2024-06-11_13h24.01.481,LearnStrategy,2023.2.3,Win32,15.97444089,7,2,11,,,,,,,,1,16,,,,,,,,,,,1,1.563,1,,,,,,-0.408333333,-0.242592593,1,0,0,1.5633,Andesite_rect,10,0,10,0,1,
663a5d3e48441f253cc57071,TCN,2024-06-11_13h24.01.481,LearnStrategy,2023.2.3,Win32,15.97444089,7,2,12,,,,,,,,6,09,,,,,,,,,,,6,1.093,1,,,,,,-0.175,-0.402777778,1,0,0,1.0929,Pegmatite_rect,11,0,11,0,1,
663a5d3e48441f253cc57071,TCN,2024-06-11_13h24.01.481,LearnStrategy,2023.2.3,Win32,15.97444089,7,2,13,,,,,,,,5,02,,,,,,,,,,,5,1.203,1,,,,,,-0.388888889,-0.407407407,1,0,0,1.2025,Obsidian_rect,12,0,12,0,1,
663a5d3e48441f253cc57071,TCN,2024-06-11_13h24.01.481,LearnStrategy,2023.2.3,Win32,15.97444089,7,2,14,,,,,,,,7,13,,,,,,,,,,,7,1.315,1,,,,,,0.115740741,-0.405555556,1,0,0,1.3155,Peridotite_rect,13,0,13,0,1,
663a5d3e48441f253cc57071,TCN,2024-06-11_13h24.01.481,LearnStrategy,2023.2.3,Win32,15.97444089,7,2,15,,,,,,,,4,08,,,,,,,,,,,4,2.441,1,,,,,,0.375,-0.255555556,1,0,0,2.4412,Gabbro_rect,14,0,14,0,1,
663a5d3e48441f253cc57071,TCN,2024-06-11_13h24.01.481,LearnStrategy,2023.2.3,Win32,15.97444089,7,2,16,,,,,,,,4,03,,,,,,,,,,,4,5.097,1,,,,,,0.381481481,-0.266666667,1,0,0,5.0974,Gabbro_rect,15,0,15,0,1,
663a5d3e48441f253cc57071,TCN,2024-06-11_13h24.01.481,LearnStrategy,2023.2.3,Win32,15.97444089,8,1,1,-0.031481481,0.002777778,1,0,0,1.1509,rock_grid_rect_2,8,13,-1,-1,1.151,0.366666667,-0.384259259,1,0,0,2.1246,Pumice_rect,8,2.125,1,0,0,0,0,1,,,,,,,,,,,,,
663a5d3e48441f253cc57071,TCN,2024-06-11_13h24.01.481,LearnStrategy,2023.2.3,Win32,15.97444089,8,1,2,-0.012037037,0.013888889,1,0,0,1.2124,rock_grid_rect_2,7,15,-1,-1,1.212,0.119444444,-0.402777778,1,0,0,1.7445,Peridotite_rect,7,1.745,1,1,0,1,0,1,,,,,,,,,,,,,
663a5d3e48441f253cc57071,TCN,2024-06-11_13h24.01.481,LearnStrategy,2023.2.3,Win32,15.97444089,8,1,3,-0.039814815,-0.001851852,1,0,0,1.1479,rock_grid_rect_2,8,14,-1,-1,1.148,0.386111111,-0.415740741,1,0,0,0.973,Pumice_rect,8,0.973,1,2,0,2,0,1,,,,,,,,,,,,,
663a5d3e48441f253cc57071,TCN,2024-06-11_13h24.01.481,LearnStrategy,2023.2.3,Win32,15.97444089,8,1,4,-0.017592593,-0.000925926,1,0,0,0.5345,rock_grid_rect_2,3,10,-1,-1,0.535,0.135185185,-0.239814815,1,0,0,1.4938,Diorite_rect,3,1.494,1,3,0,3,0,1,,,,,,,,,,,,,
663a5d3e48441f253cc57071,TCN,2024-06-11_13h24.01.481,LearnStrategy,2023.2.3,Win32,15.97444089,8,1,5,-0.011111111,-0.001851852,1,0,0,0.6184,rock_grid_rect_2,6,16,-1,-1,0.618,-0.139814815,-0.390740741,1,0,0,1.0357,Pegmatite_rect,6,1.036,1,4,0,4,0,1,,,,,,,,,,,,,
663a5d3e48441f253cc57071,TCN,2024-06-11_13h24.01.481,LearnStrategy,2023.2.3,Win32,15.97444089,8,1,6,0.00462963,-0.017592593,1,0,0,0.5194,rock_grid_rect_2,6,05,-1,-1,0.519,-0.12037037,-0.403703704,1,0,0,1.4706,Pegmatite_rect,6,1.471,1,5,0,5,0,1,,,,,,,,,,,,,
663a5d3e48441f253cc57071,TCN,2024-06-11_13h24.01.481,LearnStrategy,2023.2.3,Win32,15.97444089,8,1,7,0.005555556,-0.015740741,1,0,0,0.5293,rock_grid_rect_2,3,02,-1,-1,0.529,0.107407407,-0.396296296,1,0,0,1.1969,Peridotite_rect,7,1.197,0,6,0,6,0,1,,,,,,,,,,,,,
663a5d3e48441f253cc57071,TCN,2024-06-11_13h24.01.481,LearnStrategy,2023.2.3,Win32,15.97444089,8,1,8,-0.040740741,-0.015740741,1,0,0,0.7847,rock_grid_rect_2,5,05,-1,-1,0.785,-0.431481481,-0.382407407,1,0,0,1.0354,Obsidian_rect,5,1.035,1,7,0,7,0,1,,,,,,,,,,,,,
663a5d3e48441f253cc57071,TCN,2024-06-11_13h24.01.481,LearnStrategy,2023.2.3,Win32,15.97444089,8,1,9,-0.016666667,-0.011111111,1,0,0,0.4343,rock_grid_rect_2,4,09,-1,-1,0.434,-0.102777778,-0.243518519,1,0,0,4.2415,Basalt_rect,2,4.241,0,8,0,8,0,1,,,,,,,,,,,,,
663a5d3e48441f253cc57071,TCN,2024-06-11_13h24.01.481,LearnStrategy,2023.2.3,Win32,15.97444089,8,1,10,-0.039814815,0.002777778,1,0,0,0.8777,rock_grid_rect_2,2,14,-1,-1,0.878,-0.162037037,-0.24537037,1,0,0,1.9321,Basalt_rect,2,1.932,1,9,0,9,0,1,,,,,,,,,,,,,
663a5d3e48441f253cc57071,TCN,2024-06-11_13h24.01.481,LearnStrategy,2023.2.3,Win32,15.97444089,8,1,11,-0.067592593,-0.001851852,1,0,0,0.7994,rock_grid_rect_2,2,06,-1,-1,0.799,-0.113888889,-0.243518519,1,0,0,1.4324,Basalt_rect,2,1.432,1,10,0,10,0,1,,,,,,,,,,,,,
663a5d3e48441f253cc57071,TCN,2024-06-11_13h24.01.481,LearnStrategy,2023.2.3,Win32,15.97444089,8,1,12,-0.009259259,-0.017592593,1,0,0,1.582,rock_grid_rect_2,7,05,-1,-1,1.582,0.138888889,-0.410185185,1,0,0,2.7996,Peridotite_rect,7,2.8,1,11,0,11,0,1,,,,,,,,,,,,,
663a5d3e48441f253cc57071,TCN,2024-06-11_13h24.01.481,LearnStrategy,2023.2.3,Win32,15.97444089,8,1,13,-0.073148148,-0.007407407,1,0,0,0.4393,rock_grid_rect_2,1,06,-1,-1,0.439,-0.377777778,-0.24537037,1,0,0,2.2327,Andesite_rect,1,2.233,1,12,0,12,0,1,,,,,,,,,,,,,
663a5d3e48441f253cc57071,TCN,2024-06-11_13h24.01.481,LearnStrategy,2023.2.3,Win32,15.97444089,8,1,14,-0.05462963,0.010185185,1,0,0,0.4529,rock_grid_rect_2,4,14,-1,-1,0.453,0.37037037,-0.256481481,1,0,0,4.8079,Gabbro_rect,4,4.808,1,13,0,13,0,1,,,,,,,,,,,,,
663a5d3e48441f253cc57071,TCN,2024-06-11_13h24.01.481,LearnStrategy,2023.2.3,Win32,15.97444089,8,1,15,-0.055555556,-0.001851852,1,0,0,0.5268,rock_grid_rect_2,5,16,-1,-1,0.527,-0.377777778,-0.383333333,1,0,0,0.9498,Obsidian_rect,5,0.95,1,14,0,14,0,1,,,,,,,,,,,,,
663a5d3e48441f253cc57071,TCN,2024-06-11_13h24.01.481,LearnStrategy,2023.2.3,Win32,15.97444089,8,1,16,-0.037037037,-0.006481481,1,0,0,0.5254,rock_grid_rect_2,1,01,-1,-1,0.525,0.114814815,-0.237037037,1,0,0,1.9199,Diorite_rect,3,1.92,0,15,0,15,0,1,,,,,,,,,,,,,
663a5d3e48441f253cc57071,TCN,2024-06-11_13h24.01.481,LearnStrategy,2023.2.3,Win32,15.97444089,8,2,1,,,,,,,,1,07,,,,,,,,,,,1,1.337,1,,,,,,-0.428703704,-0.252777778,1,0,0,1.3369,Andesite_rect,0,0,0,0,1,
663a5d3e48441f253cc57071,TCN,2024-06-11_13h24.01.481,LearnStrategy,2023.2.3,Win32,15.97444089,8,2,2,,,,,,,,2,12,,,,,,,,,,,2,1.512,1,,,,,,-0.135185185,-0.261111111,1,0,0,1.5124,Basalt_rect,1,0,1,0,1,
663a5d3e48441f253cc57071,TCN,2024-06-11_13h24.01.481,LearnStrategy,2023.2.3,Win32,15.97444089,8,2,3,,,,,,,,2,16,,,,,,,,,,,4,3.513,0,,,,,,0.398148148,-0.262962963,1,0,0,3.5128,Gabbro_rect,2,0,2,0,1,
663a5d3e48441f253cc57071,TCN,2024-06-11_13h24.01.481,LearnStrategy,2023.2.3,Win32,15.97444089,8,2,4,,,,,,,,6,07,,,,,,,,,,,6,2.12,1,,,,,,-0.121296296,-0.413888889,1,0,0,2.1196,Pegmatite_rect,3,0,3,0,1,
663a5d3e48441f253cc57071,TCN,2024-06-11_13h24.01.481,LearnStrategy,2023.2.3,Win32,15.97444089,8,2,5,,,,,,,,7,04,,,,,,,,,,,6,1.058,0,,,,,,-0.134259259,-0.402777778,1,0,0,1.0583,Pegmatite_rect,4,0,4,0,1,
663a5d3e48441f253cc57071,TCN,2024-06-11_13h24.01.481,LearnStrategy,2023.2.3,Win32,15.97444089,8,2,6,,,,,,,,6,15,,,,,,,,,,,6,1.209,1,,,,,,-0.119444444,-0.417592593,1,0,0,1.2091,Pegmatite_rect,5,0,5,0,1,
663a5d3e48441f253cc57071,TCN,2024-06-11_13h24.01.481,LearnStrategy,2023.2.3,Win32,15.97444089,8,2,7,,,,,,,,1,10,,,,,,,,,,,2,2.138,0,,,,,,-0.12962963,-0.260185185,1,0,0,2.1379,Basalt_rect,6,0,6,0,1,
663a5d3e48441f253cc57071,TCN,2024-06-11_13h24.01.481,LearnStrategy,2023.2.3,Win32,15.97444089,8,2,8,,,,,,,,3,08,,,,,,,,,,,3,4.27,1,,,,,,0.12037037,-0.230555556,1,0,0,4.2699,Diorite_rect,7,0,7,0,1,
663a5d3e48441f253cc57071,TCN,2024-06-11_13h24.01.481,LearnStrategy,2023.2.3,Win32,15.97444089,8,2,9,,,,,,,,5,11,,,,,,,,,,,5,1.471,1,,,,,,-0.394444444,-0.407407407,1,0,0,1.4711,Obsidian_rect,8,0,8,0,1,
663a5d3e48441f253cc57071,TCN,2024-06-11_13h24.01.481,LearnStrategy,2023.2.3,Win32,15.97444089,8,2,10,,,,,,,,4,05,,,,,,,,,,,7,4.574,0,,,,,,0.161111111,-0.386111111,1,0,0,4.5744,Peridotite_rect,9,0,9,0,1,
663a5d3e48441f253cc57071,TCN,2024-06-11_13h24.01.481,LearnStrategy,2023.2.3,Win32,15.97444089,8,2,11,,,,,,,,3,16,,,,,,,,,,,3,3.39,1,,,,,,0.109259259,-0.239814815,1,0,0,3.3902,Diorite_rect,10,0,10,0,1,
663a5d3e48441f253cc57071,TCN,2024-06-11_13h24.01.481,LearnStrategy,2023.2.3,Win32,15.97444089,8,2,12,,,,,,,,8,02,,,,,,,,,,,8,1.843,1,,,,,,0.428703704,-0.415740741,1,0,0,1.8431,Pumice_rect,11,0,11,0,1,
663a5d3e48441f253cc57071,TCN,2024-06-11_13h24.01.481,LearnStrategy,2023.2.3,Win32,15.97444089,8,2,13,,,,,,,,5,08,,,,,,,,,,,5,1.045,1,,,,,,-0.409259259,-0.398148148,1,0,0,1.0451,Obsidian_rect,12,0,12,0,1,
663a5d3e48441f253cc57071,TCN,2024-06-11_13h24.01.481,LearnStrategy,2023.2.3,Win32,15.97444089,8,2,14,,,,,,,,7,12,,,,,,,,,,,7,1.639,1,,,,,,0.137037037,-0.4,1,0,0,1.6392,Peridotite_rect,13,0,13,0,1,
663a5d3e48441f253cc57071,TCN,2024-06-11_13h24.01.481,LearnStrategy,2023.2.3,Win32,15.97444089,8,2,15,,,,,,,,4,13,,,,,,,,,,,3,5.721,0,,,,,,0.14537037,-0.250925926,1,0,0,5.7215,Diorite_rect,14,0,14,0,1,
663a5d3e48441f253cc57071,TCN,2024-06-11_13h24.01.481,LearnStrategy,2023.2.3,Win32,15.97444089,8,2,16,,,,,,,,8,03,,,,,,,,,,,8,1.185,1,,,,,,0.430555556,-0.408333333,1,0,0,1.1849,Pumice_rect,15,0,15,0,1,
663a5d3e48441f253cc57071,TCN,2024-06-11_13h24.01.481,LearnStrategy,2023.2.3,Win32,15.97444089,9,1,1,-0.062037037,-0.001851852,1,0,0,0.7864,rock_grid_rect_2,3,11,-1,-1,0.786,0.123148148,-0.249074074,1,0,0,2.3688,Diorite_rect,3,2.369,1,0,0,0,0,1,,,,,,,,,,,,,
663a5d3e48441f253cc57071,TCN,2024-06-11_13h24.01.481,LearnStrategy,2023.2.3,Win32,15.97444089,9,1,2,-0.083333333,0,1,0,0,0.6052,rock_grid_rect_2,2,11,-1,-1,0.605,-0.151851852,-0.250925926,1,0,0,2.1248,Basalt_rect,2,2.125,1,1,0,1,0,1,,,,,,,,,,,,,
663a5d3e48441f253cc57071,TCN,2024-06-11_13h24.01.481,LearnStrategy,2023.2.3,Win32,15.97444089,9,1,3,0.025,-0.006481481,1,0,0,1.1399,rock_grid_rect_2,6,08,-1,-1,1.14,-0.164814815,-0.412962963,1,0,0,1.1956,Pegmatite_rect,6,1.196,1,2,0,2,0,1,,,,,,,,,,,,,
663a5d3e48441f253cc57071,TCN,2024-06-11_13h24.01.481,LearnStrategy,2023.2.3,Win32,15.97444089,9,1,4,-0.038888889,0.003703704,1,0,0,1.0404,rock_grid_rect_2,5,14,-1,-1,1.04,-0.435185185,-0.403703704,1,0,0,1.1955,Obsidian_rect,5,1.195,1,3,0,3,0,1,,,,,,,,,,,,,
663a5d3e48441f253cc57071,TCN,2024-06-11_13h24.01.481,LearnStrategy,2023.2.3,Win32,15.97444089,9,1,5,-0.012962963,0.003703704,1,0,0,0.5412,rock_grid_rect_2,7,06,-1,-1,0.541,0.114814815,-0.406481481,1,0,0,1.8537,Peridotite_rect,7,1.854,1,4,0,4,0,1,,,,,,,,,,,,,
663a5d3e48441f253cc57071,TCN,2024-06-11_13h24.01.481,LearnStrategy,2023.2.3,Win32,15.97444089,9,1,6,-0.007407407,-0.015740741,1,0,0,0.5133,rock_grid_rect_2,3,15,-1,-1,0.513,0.140740741,-0.244444444,1,0,0,1.3148,Diorite_rect,3,1.315,1,5,0,5,0,1,,,,,,,,,,,,,
663a5d3e48441f253cc57071,TCN,2024-06-11_13h24.01.481,LearnStrategy,2023.2.3,Win32,15.97444089,9,1,7,-0.025,-0.00462963,1,0,0,0.6192,rock_grid_rect_2,1,14,-1,-1,0.619,-0.397222222,-0.253703704,1,0,0,1.1555,Andesite_rect,1,1.155,1,6,0,6,0,1,,,,,,,,,,,,,
663a5d3e48441f253cc57071,TCN,2024-06-11_13h24.01.481,LearnStrategy,2023.2.3,Win32,15.97444089,9,1,8,-0.02037037,-0.001851852,1,0,0,0.6978,rock_grid_rect_2,5,12,-1,-1,0.698,-0.440740741,-0.402777778,1,0,0,0.9623,Obsidian_rect,5,0.962,1,7,0,7,0,1,,,,,,,,,,,,,
663a5d3e48441f253cc57071,TCN,2024-06-11_13h24.01.481,LearnStrategy,2023.2.3,Win32,15.97444089,9,1,9,0.015740741,-0.001851852,1,0,0,0.4499,rock_grid_rect_2,4,11,-1,-1,0.45,-0.380555556,-0.250925926,1,0,0,3.412,Andesite_rect,1,3.412,0,8,0,8,0,1,,,,,,,,,,,,,
663a5d3e48441f253cc57071,TCN,2024-06-11_13h24.01.481,LearnStrategy,2023.2.3,Win32,15.97444089,9,1,10,0.049074074,-0.012037037,1,0,0,0.4473,rock_grid_rect_2,4,16,-1,-1,0.447,0.455555556,-0.25462963,1,0,0,4.3006,Gabbro_rect,4,4.301,1,9,0,9,0,1,,,,,,,,,,,,,
663a5d3e48441f253cc57071,TCN,2024-06-11_13h24.01.481,LearnStrategy,2023.2.3,Win32,15.97444089,9,1,11,-0.040740741,0.009259259,1,0,0,0.5286,rock_grid_rect_2,1,04,-1,-1,0.529,-0.450925926,-0.234259259,1,0,0,3.1587,Andesite_rect,1,3.159,1,10,0,10,0,1,,,,,,,,,,,,,
663a5d3e48441f253cc57071,TCN,2024-06-11_13h24.01.481,LearnStrategy,2023.2.3,Win32,15.97444089,9,1,12,-0.027777778,-0.000925926,1,0,0,0.5172,rock_grid_rect_2,7,07,-1,-1,0.517,0.148148148,-0.418518519,1,0,0,1.1836,Peridotite_rect,7,1.184,1,11,0,11,0,1,,,,,,,,,,,,,
663a5d3e48441f253cc57071,TCN,2024-06-11_13h24.01.481,LearnStrategy,2023.2.3,Win32,15.97444089,9,1,13,0.009259259,-0.006481481,1,0,0,0.5245,rock_grid_rect_2,6,13,-1,-1,0.524,-0.166666667,-0.410185185,1,0,0,1.0695,Pegmatite_rect,6,1.07,1,12,0,12,0,1,,,,,,,,,,,,,
663a5d3e48441f253cc57071,TCN,2024-06-11_13h24.01.481,LearnStrategy,2023.2.3,Win32,15.97444089,9,1,14,0.025,0.001851852,1,0,0,0.5312,rock_grid_rect_2,8,08,-1,-1,0.531,0.396296296,-0.380555556,1,0,0,1.0543,Pumice_rect,8,1.054,1,13,0,13,0,1,,,,,,,,,,,,,
663a5d3e48441f253cc57071,TCN,2024-06-11_13h24.01.481,LearnStrategy,2023.2.3,Win32,15.97444089,9,1,15,0.003703704,0,1,0,0,0.524,rock_grid_rect_2,2,01,-1,-1,0.524,-0.158333333,-0.257407407,1,0,0,1.5136,Basalt_rect,2,1.514,1,14,0,14,0,1,,,,,,,,,,,,,
663a5d3e48441f253cc57071,TCN,2024-06-11_13h24.01.481,LearnStrategy,2023.2.3,Win32,15.97444089,9,1,16,0.011111111,0.00462963,1,0,0,0.5374,rock_grid_rect_2,8,15,-1,-1,0.537,0.385185185,-0.40462963,1,0,0,1.5792,Pumice_rect,8,1.579,1,15,0,15,0,1,,,,,,,,,,,,,
663a5d3e48441f253cc57071,TCN,2024-06-11_13h24.01.481,LearnStrategy,2023.2.3,Win32,15.97444089,9,2,1,,,,,,,,6,06,,,,,,,,,,,6,11.014,1,,,,,,-0.142592593,-0.411111111,1,0,0,11.0143,Pegmatite_rect,0,0,0,0,1,
663a5d3e48441f253cc57071,TCN,2024-06-11_13h24.01.481,LearnStrategy,2023.2.3,Win32,15.97444089,9,2,2,,,,,,,,2,02,,,,,,,,,,,2,1.185,1,,,,,,-0.133333333,-0.269444444,1,0,0,1.1849,Basalt_rect,1,0,1,0,1,
663a5d3e48441f253cc57071,TCN,2024-06-11_13h24.01.481,LearnStrategy,2023.2.3,Win32,15.97444089,9,2,3,,,,,,,,7,16,,,,,,,,,,,7,3.56,1,,,,,,0.124074074,-0.417592593,1,0,0,3.5596,Peridotite_rect,2,0,2,0,1,
663a5d3e48441f253cc57071,TCN,2024-06-11_13h24.01.481,LearnStrategy,2023.2.3,Win32,15.97444089,9,2,4,,,,,,,,6,12,,,,,,,,,,,3,8.073,0,,,,,,0.116666667,-0.248148148,1,0,0,8.0726,Diorite_rect,3,0,3,0,1,
663a5d3e48441f253cc57071,TCN,2024-06-11_13h24.01.481,LearnStrategy,2023.2.3,Win32,15.97444089,9,2,5,,,,,,,,7,08,,,,,,,,,,,7,1.137,1,,,,,,0.085185185,-0.397222222,1,0,0,1.1365,Peridotite_rect,4,0,4,0,1,
663a5d3e48441f253cc57071,TCN,2024-06-11_13h24.01.481,LearnStrategy,2023.2.3,Win32,15.97444089,9,2,6,,,,,,,,3,09,,,,,,,,,,,3,1.802,1,,,,,,0.139814815,-0.269444444,1,0,0,1.8021,Diorite_rect,5,0,5,0,1,
663a5d3e48441f253cc57071,TCN,2024-06-11_13h24.01.481,LearnStrategy,2023.2.3,Win32,15.97444089,9,2,7,,,,,,,,1,05,,,,,,,,,,,1,1.037,1,,,,,,-0.401851852,-0.264814815,1,0,0,1.0372,Andesite_rect,6,0,6,0,1,
663a5d3e48441f253cc57071,TCN,2024-06-11_13h24.01.481,LearnStrategy,2023.2.3,Win32,15.97444089,9,2,8,,,,,,,,5,10,,,,,,,,,,,5,1.092,1,,,,,,-0.406481481,-0.416666667,1,0,0,1.0917,Obsidian_rect,7,0,7,0,1,
663a5d3e48441f253cc57071,TCN,2024-06-11_13h24.01.481,LearnStrategy,2023.2.3,Win32,15.97444089,9,2,9,,,,,,,,1,09,,,,,,,,,,,1,1.146,1,,,,,,-0.388888889,-0.243518519,1,0,0,1.1459,Andesite_rect,8,0,8,0,1,
663a5d3e48441f253cc57071,TCN,2024-06-11_13h24.01.481,LearnStrategy,2023.2.3,Win32,15.97444089,9,2,10,,,,,,,,5,07,,,,,,,,,,,5,1.046,1,,,,,,-0.416666667,-0.408333333,1,0,0,1.0458,Obsidian_rect,9,0,9,0,1,
663a5d3e48441f253cc57071,TCN,2024-06-11_13h24.01.481,LearnStrategy,2023.2.3,Win32,15.97444089,9,2,11,,,,,,,,2,04,,,,,,,,,,,2,1.191,1,,,,,,-0.113888889,-0.244444444,1,0,0,1.191,Basalt_rect,10,0,10,0,1,
663a5d3e48441f253cc57071,TCN,2024-06-11_13h24.01.481,LearnStrategy,2023.2.3,Win32,15.97444089,9,2,12,,,,,,,,4,15,,,,,,,,,,,3,3.318,0,,,,,,0.157407407,-0.252777778,1,0,0,3.318,Diorite_rect,11,0,11,0,1,
663a5d3e48441f253cc57071,TCN,2024-06-11_13h24.01.481,LearnStrategy,2023.2.3,Win32,15.97444089,9,2,13,,,,,,,,8,16,,,,,,,,,,,8,1.374,1,,,,,,0.410185185,-0.401851852,1,0,0,1.3744,Pumice_rect,12,0,12,0,1,
663a5d3e48441f253cc57071,TCN,2024-06-11_13h24.01.481,LearnStrategy,2023.2.3,Win32,15.97444089,9,2,14,,,,,,,,3,06,,,,,,,,,,,3,1.365,1,,,,,,0.125925926,-0.250925926,1,0,0,1.3655,Diorite_rect,13,0,13,0,1,
663a5d3e48441f253cc57071,TCN,2024-06-11_13h24.01.481,LearnStrategy,2023.2.3,Win32,15.97444089,9,2,15,,,,,,,,8,05,,,,,,,,,,,8,1.049,1,,,,,,0.411111111,-0.406481481,1,0,0,1.0487,Pumice_rect,14,0,14,0,1,
663a5d3e48441f253cc57071,TCN,2024-06-11_13h24.01.481,LearnStrategy,2023.2.3,Win32,15.97444089,9,2,16,,,,,,,,4,01,,,,,,,,,,,3,3.183,0,,,,,,0.152777778,-0.241666667,1,0,0,3.1829,Diorite_rect,15,0,15,0,1,
663a5d3e48441f253cc57071,TCN,2024-06-11_13h24.01.481,LearnStrategy,2023.2.3,Win32,15.97444089,,,,,,,,,,,,,,,,,,,,,,,,,,,,,,,,,,,,,,,,,,,1
663a5d3e48441f253cc57071,TCN,2024-06-11_13h24.01.481,LearnStrategy,2023.2.3,Win32,15.97444089,,,,,,,,,,,,,,,,,,,,,,,,,,,,,,,,,,,,,,,,,,,
663a5d3e48441f253cc57071,TCN,2024-06-11_13h24.01.481,LearnStrategy,2023.2.3,Win32,15.97444089,,,,,,,,,,,3,07,1,1,,,,,,,,,,,,,,,,,,,,,,,,,,,,,
663a5d3e48441f253cc57071,TCN,2024-06-11_13h24.01.481,LearnStrategy,2023.2.3,Win32,15.97444089,,,,,,,,,,,5,16,1,2,,,,,,,,,,,,,,,,,,,,,,,,,,,,,
663a5d3e48441f253cc57071,TCN,2024-06-11_13h24.01.481,LearnStrategy,2023.2.3,Win32,15.97444089,,,,,,,,,,,6,13,1,3,,,,,,,,,,,,,,,,,,,,,,,,,,,,,
663a5d3e48441f253cc57071,TCN,2024-06-11_13h24.01.481,LearnStrategy,2023.2.3,Win32,15.97444089,,,,,,,,,,,8,08,1,4,,,,,,,,,,,,,,,,,,,,,,,,,,,,,
663a5d3e48441f253cc57071,TCN,2024-06-11_13h24.01.481,LearnStrategy,2023.2.3,Win32,15.97444089,,,,,,,,,,,6,16,1,5,,,,,,,,,,,,,,,,,,,,,,,,,,,,,
663a5d3e48441f253cc57071,TCN,2024-06-11_13h24.01.481,LearnStrategy,2023.2.3,Win32,15.97444089,,,,,,,,,,,3,15,1,6,,,,,,,,,,,,,,,,,,,,,,,,,,,,,
663a5d3e48441f253cc57071,TCN,2024-06-11_13h24.01.481,LearnStrategy,2023.2.3,Win32,15.97444089,,,,,,,,,,,2,14,1,7,,,,,,,,,,,,,,,,,,,,,,,,,,,,,
663a5d3e48441f253cc57071,TCN,2024-06-11_13h24.01.481,LearnStrategy,2023.2.3,Win32,15.97444089,,,,,,,,,,,3,02,1,8,,,,,,,,,,,,,,,,,,,,,,,,,,,,,
663a5d3e48441f253cc57071,TCN,2024-06-11_13h24.01.481,LearnStrategy,2023.2.3,Win32,15.97444089,,,,,,,,,,,5,12,2,1,,,,,,,,,,,,,,,,,,,,,,,,,,,,,
663a5d3e48441f253cc57071,TCN,2024-06-11_13h24.01.481,LearnStrategy,2023.2.3,Win32,15.97444089,,,,,,,,,,,5,06,2,2,,,,,,,,,,,,,,,,,,,,,,,,,,,,,
663a5d3e48441f253cc57071,TCN,2024-06-11_13h24.01.481,LearnStrategy,2023.2.3,Win32,15.97444089,,,,,,,,,,,1,01,2,3,,,,,,,,,,,,,,,,,,,,,,,,,,,,,
663a5d3e48441f253cc57071,TCN,2024-06-11_13h24.01.481,LearnStrategy,2023.2.3,Win32,15.97444089,,,,,,,,,,,5,14,2,4,,,,,,,,,,,,,,,,,,,,,,,,,,,,,
663a5d3e48441f253cc57071,TCN,2024-06-11_13h24.01.481,LearnStrategy,2023.2.3,Win32,15.97444089,,,,,,,,,,,2,11,2,5,,,,,,,,,,,,,,,,,,,,,,,,,,,,,
663a5d3e48441f253cc57071,TCN,2024-06-11_13h24.01.481,LearnStrategy,2023.2.3,Win32,15.97444089,,,,,,,,,,,1,06,2,6,,,,,,,,,,,,,,,,,,,,,,,,,,,,,
663a5d3e48441f253cc57071,TCN,2024-06-11_13h24.01.481,LearnStrategy,2023.2.3,Win32,15.97444089,,,,,,,,,,,8,10,2,7,,,,,,,,,,,,,,,,,,,,,,,,,,,,,
663a5d3e48441f253cc57071,TCN,2024-06-11_13h24.01.481,LearnStrategy,2023.2.3,Win32,15.97444089,,,,,,,,,,,4,11,2,8,,,,,,,,,,,,,,,,,,,,,,,,,,,,,
663a5d3e48441f253cc57071,TCN,2024-06-11_13h24.01.481,LearnStrategy,2023.2.3,Win32,15.97444089,,,,,,,,,,,7,06,3,1,,,,,,,,,,,,,,,,,,,,,,,,,,,,,
663a5d3e48441f253cc57071,TCN,2024-06-11_13h24.01.481,LearnStrategy,2023.2.3,Win32,15.97444089,,,,,,,,,,,2,06,3,2,,,,,,,,,,,,,,,,,,,,,,,,,,,,,
663a5d3e48441f253cc57071,TCN,2024-06-11_13h24.01.481,LearnStrategy,2023.2.3,Win32,15.97444089,,,,,,,,,,,4,09,3,3,,,,,,,,,,,,,,,,,,,,,,,,,,,,,
663a5d3e48441f253cc57071,TCN,2024-06-11_13h24.01.481,LearnStrategy,2023.2.3,Win32,15.97444089,,,,,,,,,,,7,05,3,4,,,,,,,,,,,,,,,,,,,,,,,,,,,,,
663a5d3e48441f253cc57071,TCN,2024-06-11_13h24.01.481,LearnStrategy,2023.2.3,Win32,15.97444089,,,,,,,,,,,4,16,3,5,,,,,,,,,,,,,,,,,,,,,,,,,,,,,
663a5d3e48441f253cc57071,TCN,2024-06-11_13h24.01.481,LearnStrategy,2023.2.3,Win32,15.97444089,,,,,,,,,,,6,08,3,6,,,,,,,,,,,,,,,,,,,,,,,,,,,,,
663a5d3e48441f253cc57071,TCN,2024-06-11_13h24.01.481,LearnStrategy,2023.2.3,Win32,15.97444089,,,,,,,,,,,7,15,3,7,,,,,,,,,,,,,,,,,,,,,,,,,,,,,
663a5d3e48441f253cc57071,TCN,2024-06-11_13h24.01.481,LearnStrategy,2023.2.3,Win32,15.97444089,,,,,,,,,,,8,13,3,8,,,,,,,,,,,,,,,,,,,,,,,,,,,,,
663a5d3e48441f253cc57071,TCN,2024-06-11_13h24.01.481,LearnStrategy,2023.2.3,Win32,15.97444089,,,,,,,,,,,2,01,4,1,,,,,,,,,,,,,,,,,,,,,,,,,,,,,
663a5d3e48441f253cc57071,TCN,2024-06-11_13h24.01.481,LearnStrategy,2023.2.3,Win32,15.97444089,,,,,,,,,,,3,13,4,2,,,,,,,,,,,,,,,,,,,,,,,,,,,,,
663a5d3e48441f253cc57071,TCN,2024-06-11_13h24.01.481,LearnStrategy,2023.2.3,Win32,15.97444089,,,,,,,,,,,4,10,4,3,,,,,,,,,,,,,,,,,,,,,,,,,,,,,
663a5d3e48441f253cc57071,TCN,2024-06-11_13h24.01.481,LearnStrategy,2023.2.3,Win32,15.97444089,,,,,,,,,,,8,15,4,4,,,,,,,,,,,,,,,,,,,,,,,,,,,,,
663a5d3e48441f253cc57071,TCN,2024-06-11_13h24.01.481,LearnStrategy,2023.2.3,Win32,15.97444089,,,,,,,,,,,7,10,4,5,,,,,,,,,,,,,,,,,,,,,,,,,,,,,
663a5d3e48441f253cc57071,TCN,2024-06-11_13h24.01.481,LearnStrategy,2023.2.3,Win32,15.97444089,,,,,,,,,,,4,14,4,6,,,,,,,,,,,,,,,,,,,,,,,,,,,,,
663a5d3e48441f253cc57071,TCN,2024-06-11_13h24.01.481,LearnStrategy,2023.2.3,Win32,15.97444089,,,,,,,,,,,4,12,4,7,,,,,,,,,,,,,,,,,,,,,,,,,,,,,
663a5d3e48441f253cc57071,TCN,2024-06-11_13h24.01.481,LearnStrategy,2023.2.3,Win32,15.97444089,,,,,,,,,,,6,03,4,8,,,,,,,,,,,,,,,,,,,,,,,,,,,,,
663a5d3e48441f253cc57071,TCN,2024-06-11_13h24.01.481,LearnStrategy,2023.2.3,Win32,15.97444089,,,,,,,,,,,1,14,5,1,,,,,,,,,,,,,,,,,,,,,,,,,,,,,
663a5d3e48441f253cc57071,TCN,2024-06-11_13h24.01.481,LearnStrategy,2023.2.3,Win32,15.97444089,,,,,,,,,,,5,09,5,2,,,,,,,,,,,,,,,,,,,,,,,,,,,,,
663a5d3e48441f253cc57071,TCN,2024-06-11_13h24.01.481,LearnStrategy,2023.2.3,Win32,15.97444089,,,,,,,,,,,5,05,5,3,,,,,,,,,,,,,,,,,,,,,,,,,,,,,
663a5d3e48441f253cc57071,TCN,2024-06-11_13h24.01.481,LearnStrategy,2023.2.3,Win32,15.97444089,,,,,,,,,,,1,03,5,4,,,,,,,,,,,,,,,,,,,,,,,,,,,,,
663a5d3e48441f253cc57071,TCN,2024-06-11_13h24.01.481,LearnStrategy,2023.2.3,Win32,15.97444089,,,,,,,,,,,8,09,5,5,,,,,,,,,,,,,,,,,,,,,,,,,,,,,
663a5d3e48441f253cc57071,TCN,2024-06-11_13h24.01.481,LearnStrategy,2023.2.3,Win32,15.97444089,,,,,,,,,,,2,09,5,6,,,,,,,,,,,,,,,,,,,,,,,,,,,,,
663a5d3e48441f253cc57071,TCN,2024-06-11_13h24.01.481,LearnStrategy,2023.2.3,Win32,15.97444089,,,,,,,,,,,3,11,5,7,,,,,,,,,,,,,,,,,,,,,,,,,,,,,
663a5d3e48441f253cc57071,TCN,2024-06-11_13h24.01.481,LearnStrategy,2023.2.3,Win32,15.97444089,,,,,,,,,,,2,10,5,8,,,,,,,,,,,,,,,,,,,,,,,,,,,,,
663a5d3e48441f253cc57071,TCN,2024-06-11_13h24.01.481,LearnStrategy,2023.2.3,Win32,15.97444089,,,,,,,,,,,1,04,6,1,,,,,,,,,,,,,,,,,,,,,,,,,,,,,
663a5d3e48441f253cc57071,TCN,2024-06-11_13h24.01.481,LearnStrategy,2023.2.3,Win32,15.97444089,,,,,,,,,,,6,05,6,2,,,,,,,,,,,,,,,,,,,,,,,,,,,,,
663a5d3e48441f253cc57071,TCN,2024-06-11_13h24.01.481,LearnStrategy,2023.2.3,Win32,15.97444089,,,,,,,,,,,6,10,6,3,,,,,,,,,,,,,,,,,,,,,,,,,,,,,
663a5d3e48441f253cc57071,TCN,2024-06-11_13h24.01.481,LearnStrategy,2023.2.3,Win32,15.97444089,,,,,,,,,,,8,14,6,4,,,,,,,,,,,,,,,,,,,,,,,,,,,,,
663a5d3e48441f253cc57071,TCN,2024-06-11_13h24.01.481,LearnStrategy,2023.2.3,Win32,15.97444089,,,,,,,,,,,1,11,6,5,,,,,,,,,,,,,,,,,,,,,,,,,,,,,
663a5d3e48441f253cc57071,TCN,2024-06-11_13h24.01.481,LearnStrategy,2023.2.3,Win32,15.97444089,,,,,,,,,,,7,02,6,6,,,,,,,,,,,,,,,,,,,,,,,,,,,,,
663a5d3e48441f253cc57071,TCN,2024-06-11_13h24.01.481,LearnStrategy,2023.2.3,Win32,15.97444089,,,,,,,,,,,7,07,6,7,,,,,,,,,,,,,,,,,,,,,,,,,,,,,
663a5d3e48441f253cc57071,TCN,2024-06-11_13h24.01.481,LearnStrategy,2023.2.3,Win32,15.97444089,,,,,,,,,,,3,10,6,8,,,,,,,,,,,,,,,,,,,,,,,,,,,,,