participant,condition,date,expName,psychopyVersion,OS,frameRate,block,phase,trial,learn_mouse.x,learn_mouse.y,learn_mouse.leftButton,learn_mouse.midButton,learn_mouse.rightButton,learn_mouse.time,learn_mouse.clicked_name,cat,token,row,col,t_select,cat_rec,token_rec,cat_mouse_l.x,cat_mouse_l.y,cat_mouse_l.leftButton,cat_mouse_l.midButton,cat_mouse_l.rightButton,cat_mouse_l.time,cat_mouse_l.clicked_name,resp,t_resp,corr,train_trials.thisRepN,train_trials.thisTrialN,train_trials.thisN,train_trials.thisIndex,train_trials.ran,cat_mouse_t.x,cat_mouse_t.y,cat_mouse_t.leftButton,cat_mouse_t.midButton,cat_mouse_t.rightButton,cat_mouse_t.time,cat_mouse_t.clicked_name,test_trials.thisRepN,test_trials.thisTrialN,test_trials.thisN,test_trials.thisIndex,test_trials.ran,Bonus
663abe859bcc3ea8ef9bbdf3,SCR,2024-06-21_12h51.09.993,LearnStrategy,2023.2.3,Win32,59.52380952,,,,,,,,,,,,,,,,,,,,,,,,,,,,,,,,,,,,,,,,,,,,,
663abe859bcc3ea8ef9bbdf3,SCR,2024-06-21_12h51.09.993,LearnStrategy,2023.2.3,Win32,59.52380952,1,1,1,0.2109375,0.115885417,1,0,0,3.7924,Pegmatite_15,6,15,4,6,3.792,6,15,-0.34765625,-0.3984375,1,0,0,9.7438,Obsidian_rect,5,9.744,0,0,0,0,0,1,,,,,,,,,,,,,
663abe859bcc3ea8ef9bbdf3,SCR,2024-06-21_12h51.09.993,LearnStrategy,2023.2.3,Win32,59.52380952,1,1,2,0.567708333,-0.41015625,1,0,0,2.8264,Peridotite_04,7,04,1,8,2.826,7,04,-0.364583333,-0.260416667,1,0,0,6.9957,Andesite_rect,1,6.996,0,1,0,1,0,1,,,,,,,,,,,,,
663abe859bcc3ea8ef9bbdf3,SCR,2024-06-21_12h51.09.993,LearnStrategy,2023.2.3,Win32,59.52380952,1,1,3,-0.389322917,0.430989583,1,0,0,1.76,Pumice_03,8,03,6,2,1.76,8,03,-0.131510417,-0.24609375,1,0,0,7.3276,Basalt_rect,2,7.328,0,2,0,2,0,1,,,,,,,,,,,,,
663abe859bcc3ea8ef9bbdf3,SCR,2024-06-21_12h51.09.993,LearnStrategy,2023.2.3,Win32,59.52380952,1,1,4,-0.221354167,-0.42578125,1,0,0,2.0875,Obsidian_02,5,02,1,3,2.087,5,02,-0.350260417,-0.37890625,1,0,0,3.392,Obsidian_rect,5,3.392,1,3,0,3,0,1,,,,,,,,,,,,,
663abe859bcc3ea8ef9bbdf3,SCR,2024-06-21_12h51.09.993,LearnStrategy,2023.2.3,Win32,59.52380952,1,1,5,-0.580729167,0.265625,1,0,0,2.3078,Andesite_11,1,11,5,1,2.308,1,11,0.0859375,-0.385416667,1,0,0,8.2045,Peridotite_rect,7,8.204,0,4,0,4,0,1,,,,,,,,,,,,,
663abe859bcc3ea8ef9bbdf3,SCR,2024-06-21_12h51.09.993,LearnStrategy,2023.2.3,Win32,59.52380952,1,1,6,0.071614583,-0.244791667,1,0,0,1.3838,Obsidian_14,5,14,2,5,1.384,5,14,-0.393229167,-0.407552083,1,0,0,5.0637,Obsidian_rect,5,5.064,1,5,0,5,0,1,,,,,,,,,,,,,
663abe859bcc3ea8ef9bbdf3,SCR,2024-06-21_12h51.09.993,LearnStrategy,2023.2.3,Win32,59.52380952,1,1,7,0.416666667,0.055989583,1,0,0,1.5274,Basalt_09,2,09,4,7,1.527,2,09,0.141927083,-0.41015625,1,0,0,6.6182,Peridotite_rect,7,6.618,0,6,0,6,0,1,,,,,,,,,,,,,
663abe859bcc3ea8ef9bbdf3,SCR,2024-06-21_12h51.09.993,LearnStrategy,2023.2.3,Win32,59.52380952,1,1,8,0.37109375,-0.239583333,1,0,0,5.5533,Diorite_16,3,16,2,7,5.553,3,16,0.110677083,-0.397135417,1,0,0,5.4594,Peridotite_rect,7,5.459,0,7,0,7,0,1,,,,,,,,,,,,,
663abe859bcc3ea8ef9bbdf3,SCR,2024-06-21_12h51.09.993,LearnStrategy,2023.2.3,Win32,59.52380952,1,1,9,0.044270833,-0.384114583,1,0,0,1.5241,Gabbro_13,4,13,1,5,1.524,4,13,-0.151041667,-0.247395833,1,0,0,5.6881,Basalt_rect,2,5.688,0,8,0,8,0,1,,,,,,,,,,,,,
663abe859bcc3ea8ef9bbdf3,SCR,2024-06-21_12h51.09.993,LearnStrategy,2023.2.3,Win32,59.52380952,1,1,10,0.563802083,0.408854167,1,0,0,1.7107,Andesite_02,1,02,6,8,1.711,1,02,0.341145833,-0.388020833,1,0,0,3.9915,Pumice_rect,8,3.992,0,9,0,9,0,1,,,,,,,,,,,,,
663abe859bcc3ea8ef9bbdf3,SCR,2024-06-21_12h51.09.993,LearnStrategy,2023.2.3,Win32,59.52380952,1,1,11,-0.50390625,0.079427083,1,0,0,4.283,Pumice_06,8,06,4,1,4.283,8,06,0.360677083,-0.389322917,1,0,0,8.0656,Pumice_rect,8,8.066,1,10,0,10,0,1,,,,,,,,,,,,,
663abe859bcc3ea8ef9bbdf3,SCR,2024-06-21_12h51.09.993,LearnStrategy,2023.2.3,Win32,59.52380952,1,1,12,-0.03515625,-0.223958333,1,0,0,1.3266,Gabbro_12,4,12,2,4,1.327,4,12,-0.388020833,-0.251302083,1,0,0,7.558,Andesite_rect,1,7.558,0,11,0,11,0,1,,,,,,,,,,,,,
663abe859bcc3ea8ef9bbdf3,SCR,2024-06-21_12h51.09.993,LearnStrategy,2023.2.3,Win32,59.52380952,1,1,13,0.276041667,0.223958333,1,0,0,1.414,Pegmatite_13,6,13,5,6,1.414,6,13,0.173177083,-0.403645833,1,0,0,6.5058,Peridotite_rect,7,6.506,0,12,0,12,0,1,,,,,,,,,,,,,
663abe859bcc3ea8ef9bbdf3,SCR,2024-06-21_12h51.09.993,LearnStrategy,2023.2.3,Win32,59.52380952,1,1,14,0.583333333,0.26171875,1,0,0,1.448,Basalt_11,2,11,5,8,1.448,2,11,0.412760417,-0.39453125,1,0,0,4.19,Pumice_rect,8,4.19,0,13,0,13,0,1,,,,,,,,,,,,,
663abe859bcc3ea8ef9bbdf3,SCR,2024-06-21_12h51.09.993,LearnStrategy,2023.2.3,Win32,59.52380952,1,1,15,-0.1953125,0.052083333,1,0,0,2.445,Peridotite_16,7,16,4,3,2.445,7,16,0.0703125,-0.248697917,1,0,0,7.1833,Diorite_rect,3,7.183,0,14,0,14,0,1,,,,,,,,,,,,,
663abe859bcc3ea8ef9bbdf3,SCR,2024-06-21_12h51.09.993,LearnStrategy,2023.2.3,Win32,59.52380952,1,1,16,-0.072916667,-0.08203125,1,0,0,1.2503,Diorite_10,3,10,3,4,1.25,3,10,-0.12109375,-0.235677083,1,0,0,3.1289,Basalt_rect,2,3.129,0,15,0,15,0,1,,,,,,,,,,,,,
663abe859bcc3ea8ef9bbdf3,SCR,2024-06-21_12h51.09.993,LearnStrategy,2023.2.3,Win32,59.52380952,1,2,1,,,,,,,,1,01,,,,,,,,,,,,,5,3.162,0,,,,,,-0.375,-0.4140625,1,0,0,3.1622,Obsidian_rect,0,0,0,0,1,
663abe859bcc3ea8ef9bbdf3,SCR,2024-06-21_12h51.09.993,LearnStrategy,2023.2.3,Win32,59.52380952,1,2,2,,,,,,,,8,15,,,,,,,,,,,,,8,2.851,1,,,,,,0.373697917,-0.420572917,1,0,0,2.8514,Pumice_rect,1,0,1,0,1,
663abe859bcc3ea8ef9bbdf3,SCR,2024-06-21_12h51.09.993,LearnStrategy,2023.2.3,Win32,59.52380952,1,2,3,,,,,,,,2,14,,,,,,,,,,,,,4,3.854,0,,,,,,0.40234375,-0.256510417,1,0,0,3.8541,Gabbro_rect,2,0,2,0,1,
663abe859bcc3ea8ef9bbdf3,SCR,2024-06-21_12h51.09.993,LearnStrategy,2023.2.3,Win32,59.52380952,1,2,4,,,,,,,,7,08,,,,,,,,,,,,,7,4.455,1,,,,,,0.092447917,-0.419270833,1,0,0,4.4549,Peridotite_rect,3,0,3,0,1,
663abe859bcc3ea8ef9bbdf3,SCR,2024-06-21_12h51.09.993,LearnStrategy,2023.2.3,Win32,59.52380952,1,2,5,,,,,,,,1,06,,,,,,,,,,,,,6,6.985,0,,,,,,-0.052083333,-0.397135417,1,0,0,6.985,Pegmatite_rect,4,0,4,0,1,
663abe859bcc3ea8ef9bbdf3,SCR,2024-06-21_12h51.09.993,LearnStrategy,2023.2.3,Win32,59.52380952,1,2,6,,,,,,,,6,07,,,,,,,,,,,,,5,4.434,0,,,,,,-0.411458333,-0.41015625,1,0,0,4.4342,Obsidian_rect,5,0,5,0,1,
663abe859bcc3ea8ef9bbdf3,SCR,2024-06-21_12h51.09.993,LearnStrategy,2023.2.3,Win32,59.52380952,1,2,7,,,,,,,,3,08,,,,,,,,,,,,,8,4.831,0,,,,,,0.48046875,-0.3984375,1,0,0,4.8309,Pumice_rect,6,0,6,0,1,
663abe859bcc3ea8ef9bbdf3,SCR,2024-06-21_12h51.09.993,LearnStrategy,2023.2.3,Win32,59.52380952,1,2,8,,,,,,,,4,05,,,,,,,,,,,,,7,2.94,0,,,,,,0.166666667,-0.393229167,1,0,0,2.9399,Peridotite_rect,7,0,7,0,1,
663abe859bcc3ea8ef9bbdf3,SCR,2024-06-21_12h51.09.993,LearnStrategy,2023.2.3,Win32,59.52380952,1,2,9,,,,,,,,2,12,,,,,,,,,,,,,8,1.974,0,,,,,,0.440104167,-0.40234375,1,0,0,1.9743,Pumice_rect,8,0,8,0,1,
663abe859bcc3ea8ef9bbdf3,SCR,2024-06-21_12h51.09.993,LearnStrategy,2023.2.3,Win32,59.52380952,1,2,10,,,,,,,,4,14,,,,,,,,,,,,,4,8.077,1,,,,,,0.375,-0.25,1,0,0,8.0768,Gabbro_rect,9,0,9,0,1,
663abe859bcc3ea8ef9bbdf3,SCR,2024-06-21_12h51.09.993,LearnStrategy,2023.2.3,Win32,59.52380952,1,2,11,,,,,,,,7,13,,,,,,,,,,,,,7,7.146,1,,,,,,0.154947917,-0.380208333,1,0,0,7.1459,Peridotite_rect,10,0,10,0,1,
663abe859bcc3ea8ef9bbdf3,SCR,2024-06-21_12h51.09.993,LearnStrategy,2023.2.3,Win32,59.52380952,1,2,12,,,,,,,,5,08,,,,,,,,,,,,,5,3.3,1,,,,,,-0.373697917,-0.388020833,1,0,0,3.2997,Obsidian_rect,11,0,11,0,1,
663abe859bcc3ea8ef9bbdf3,SCR,2024-06-21_12h51.09.993,LearnStrategy,2023.2.3,Win32,59.52380952,1,2,13,,,,,,,,3,13,,,,,,,,,,,,,6,12.462,0,,,,,,-0.080729167,-0.399739583,1,0,0,12.462,Pegmatite_rect,12,0,12,0,1,
663abe859bcc3ea8ef9bbdf3,SCR,2024-06-21_12h51.09.993,LearnStrategy,2023.2.3,Win32,59.52380952,1,2,14,,,,,,,,5,10,,,,,,,,,,,,,5,1.837,1,,,,,,-0.421875,-0.389322917,1,0,0,1.8373,Obsidian_rect,13,0,13,0,1,
663abe859bcc3ea8ef9bbdf3,SCR,2024-06-21_12h51.09.993,LearnStrategy,2023.2.3,Win32,59.52380952,1,2,15,,,,,,,,8,09,,,,,,,,,,,,,8,1.672,1,,,,,,0.399739583,-0.407552083,1,0,0,1.6715,Pumice_rect,14,0,14,0,1,
663abe859bcc3ea8ef9bbdf3,SCR,2024-06-21_12h51.09.993,LearnStrategy,2023.2.3,Win32,59.52380952,1,2,16,,,,,,,,6,16,,,,,,,,,,,,,3,7.088,0,,,,,,0.12890625,-0.268229167,1,0,0,7.0884,Diorite_rect,15,0,15,0,1,
663abe859bcc3ea8ef9bbdf3,SCR,2024-06-21_12h51.09.993,LearnStrategy,2023.2.3,Win32,59.52380952,2,1,1,-0.5546875,0.213541667,1,0,0,2.0491,Andesite_11,1,11,5,1,2.049,1,11,0.154947917,-0.25390625,1,0,0,8.7725,Diorite_rect,3,8.773,0,0,0,0,0,1,,,,,,,,,,,,,
663abe859bcc3ea8ef9bbdf3,SCR,2024-06-21_12h51.09.993,LearnStrategy,2023.2.3,Win32,59.52380952,2,1,2,-0.2265625,0.227864583,1,0,0,1.3267,Gabbro_08,4,08,5,3,1.327,4,08,0.47265625,-0.3828125,1,0,0,4.6697,Pumice_rect,8,4.67,0,1,0,1,0,1,,,,,,,,,,,,,
663abe859bcc3ea8ef9bbdf3,SCR,2024-06-21_12h51.09.993,LearnStrategy,2023.2.3,Win32,59.52380952,2,1,3,0.536458333,-0.23828125,1,0,0,1.4871,Diorite_06,3,06,2,8,1.487,3,06,0.364583333,-0.251302083,1,0,0,7.834,Gabbro_rect,4,7.834,0,2,0,2,0,1,,,,,,,,,,,,,
663abe859bcc3ea8ef9bbdf3,SCR,2024-06-21_12h51.09.993,LearnStrategy,2023.2.3,Win32,59.52380952,2,1,4,-0.546875,-0.438802083,1,0,0,1.4794,Basalt_04,2,04,1,1,1.479,2,04,-0.151041667,-0.25390625,1,0,0,2.2686,Basalt_rect,2,2.269,1,3,0,3,0,1,,,,,,,,,,,,,
663abe859bcc3ea8ef9bbdf3,SCR,2024-06-21_12h51.09.993,LearnStrategy,2023.2.3,Win32,59.52380952,2,1,5,0.21875,0.079427083,1,0,0,1.4606,Pegmatite_15,6,15,4,6,1.461,6,15,-0.440104167,-0.395833333,1,0,0,3.5982,Obsidian_rect,5,3.598,0,4,0,4,0,1,,,,,,,,,,,,,
663abe859bcc3ea8ef9bbdf3,SCR,2024-06-21_12h51.09.993,LearnStrategy,2023.2.3,Win32,59.52380952,2,1,6,-0.393229167,0.251302083,1,0,0,1.5147,Pegmatite_12,6,12,5,2,1.515,6,12,0.178385417,-0.389322917,1,0,0,7.0261,Peridotite_rect,7,7.026,0,5,0,5,0,1,,,,,,,,,,,,,
663abe859bcc3ea8ef9bbdf3,SCR,2024-06-21_12h51.09.993,LearnStrategy,2023.2.3,Win32,59.52380952,2,1,7,0.24609375,-0.442708333,1,0,0,2.9398,Basalt_16,2,16,1,6,2.94,2,16,0.447916667,-0.408854167,1,0,0,7.6705,Pumice_rect,8,7.671,0,6,0,6,0,1,,,,,,,,,,,,,
663abe859bcc3ea8ef9bbdf3,SCR,2024-06-21_12h51.09.993,LearnStrategy,2023.2.3,Win32,59.52380952,2,1,8,-0.40234375,-0.102864583,1,0,0,1.4662,Pegmatite_10,6,10,3,2,1.466,6,10,-0.36328125,-0.25390625,1,0,0,8.9297,Andesite_rect,1,8.93,0,7,0,7,0,1,,,,,,,,,,,,,
663abe859bcc3ea8ef9bbdf3,SCR,2024-06-21_12h51.09.993,LearnStrategy,2023.2.3,Win32,59.52380952,2,1,9,0.395833333,-0.243489583,1,0,0,1.9511,Diorite_16,3,16,2,7,1.951,3,16,0.395833333,-0.243489583,1,0,0,3.4439,Gabbro_rect,4,3.444,0,8,0,8,0,1,,,,,,,,,,,,,
663abe859bcc3ea8ef9bbdf3,SCR,2024-06-21_12h51.09.993,LearnStrategy,2023.2.3,Win32,59.52380952,2,1,10,-0.6015625,-0.377604167,1,0,0,1.4102,Basalt_04,2,04,1,1,1.41,2,04,-0.072916667,-0.231770833,1,0,0,1.8396,Basalt_rect,2,1.84,1,9,0,9,0,1,,,,,,,,,,,,,
663abe859bcc3ea8ef9bbdf3,SCR,2024-06-21_12h51.09.993,LearnStrategy,2023.2.3,Win32,59.52380952,2,1,11,0.036458333,-0.43359375,1,0,0,1.4533,Gabbro_13,4,13,1,5,1.453,4,13,0.342447917,-0.256510417,1,0,0,10.8688,Gabbro_rect,4,10.869,1,10,0,10,0,1,,,,,,,,,,,,,
663abe859bcc3ea8ef9bbdf3,SCR,2024-06-21_12h51.09.993,LearnStrategy,2023.2.3,Win32,59.52380952,2,1,12,0.233072917,0.3828125,1,0,0,1.4778,Diorite_02,3,02,6,6,1.478,3,02,-0.33984375,-0.255208333,1,0,0,8.8578,Andesite_rect,1,8.858,0,11,0,11,0,1,,,,,,,,,,,,,
663abe859bcc3ea8ef9bbdf3,SCR,2024-06-21_12h51.09.993,LearnStrategy,2023.2.3,Win32,59.52380952,2,1,13,-0.212239583,-0.063802083,1,0,0,1.673,Andesite_07,1,07,3,3,1.673,1,07,-0.380208333,-0.235677083,1,0,0,8.2365,Andesite_rect,1,8.236,1,12,0,12,0,1,,,,,,,,,,,,,
663abe859bcc3ea8ef9bbdf3,SCR,2024-06-21_12h51.09.993,LearnStrategy,2023.2.3,Win32,59.52380952,2,1,14,-0.541666667,0.252604167,1,0,0,2.1967,Andesite_11,1,11,5,1,2.197,1,11,-0.170572917,-0.407552083,1,0,0,8.3344,Pegmatite_rect,6,8.334,0,13,0,13,0,1,,,,,,,,,,,,,
663abe859bcc3ea8ef9bbdf3,SCR,2024-06-21_12h51.09.993,LearnStrategy,2023.2.3,Win32,59.52380952,2,1,15,-0.591145833,-0.12890625,1,0,0,1.4689,Pumice_16,8,16,3,1,1.469,8,16,0.36328125,-0.408854167,1,0,0,3.2816,Pumice_rect,8,3.282,1,14,0,14,0,1,,,,,,,,,,,,,
663abe859bcc3ea8ef9bbdf3,SCR,2024-06-21_12h51.09.993,LearnStrategy,2023.2.3,Win32,59.52380952,2,1,16,0.084635417,0.098958333,1,0,0,2.1399,Obsidian_05,5,05,4,5,2.14,5,05,-0.342447917,-0.388020833,1,0,0,1.9335,Obsidian_rect,5,1.933,1,15,0,15,0,1,,,,,,,,,,,,,
663abe859bcc3ea8ef9bbdf3,SCR,2024-06-21_12h51.09.993,LearnStrategy,2023.2.3,Win32,59.52380952,2,2,1,,,,,,,,2,06,,,,,,,,,,,,,2,3.34,1,,,,,,-0.15625,-0.251302083,1,0,0,3.3404,Basalt_rect,0,0,0,0,1,
663abe859bcc3ea8ef9bbdf3,SCR,2024-06-21_12h51.09.993,LearnStrategy,2023.2.3,Win32,59.52380952,2,2,2,,,,,,,,8,13,,,,,,,,,,,,,8,3.29,1,,,,,,0.337239583,-0.399739583,1,0,0,3.2902,Pumice_rect,1,0,1,0,1,
663abe859bcc3ea8ef9bbdf3,SCR,2024-06-21_12h51.09.993,LearnStrategy,2023.2.3,Win32,59.52380952,2,2,3,,,,,,,,4,03,,,,,,,,,,,,,1,6.11,0,,,,,,-0.34765625,-0.247395833,1,0,0,6.1097,Andesite_rect,2,0,2,0,1,
663abe859bcc3ea8ef9bbdf3,SCR,2024-06-21_12h51.09.993,LearnStrategy,2023.2.3,Win32,59.52380952,2,2,4,,,,,,,,7,02,,,,,,,,,,,,,6,5.154,0,,,,,,-0.05859375,-0.408854167,1,0,0,5.1536,Pegmatite_rect,3,0,3,0,1,
663abe859bcc3ea8ef9bbdf3,SCR,2024-06-21_12h51.09.993,LearnStrategy,2023.2.3,Win32,59.52380952,2,2,5,,,,,,,,3,07,,,,,,,,,,,,,1,7.691,0,,,,,,-0.466145833,-0.251302083,1,0,0,7.6906,Andesite_rect,4,0,4,0,1,
663abe859bcc3ea8ef9bbdf3,SCR,2024-06-21_12h51.09.993,LearnStrategy,2023.2.3,Win32,59.52380952,2,2,6,,,,,,,,1,16,,,,,,,,,,,,,4,3.471,0,,,,,,0.3046875,-0.236979167,1,0,0,3.4707,Gabbro_rect,5,0,5,0,1,
663abe859bcc3ea8ef9bbdf3,SCR,2024-06-21_12h51.09.993,LearnStrategy,2023.2.3,Win32,59.52380952,2,2,7,,,,,,,,4,16,,,,,,,,,,,,,3,6.087,0,,,,,,0.126302083,-0.24609375,1,0,0,6.0867,Diorite_rect,6,0,6,0,1,
663abe859bcc3ea8ef9bbdf3,SCR,2024-06-21_12h51.09.993,LearnStrategy,2023.2.3,Win32,59.52380952,2,2,8,,,,,,,,5,07,,,,,,,,,,,,,5,1.685,1,,,,,,-0.34375,-0.3984375,1,0,0,1.6854,Obsidian_rect,7,0,7,0,1,
663abe859bcc3ea8ef9bbdf3,SCR,2024-06-21_12h51.09.993,LearnStrategy,2023.2.3,Win32,59.52380952,2,2,9,,,,,,,,8,08,,,,,,,,,,,,,2,3.657,0,,,,,,-0.071614583,-0.2421875,1,0,0,3.6573,Basalt_rect,8,0,8,0,1,
663abe859bcc3ea8ef9bbdf3,SCR,2024-06-21_12h51.09.993,LearnStrategy,2023.2.3,Win32,59.52380952,2,2,10,,,,,,,,3,11,,,,,,,,,,,,,6,4.312,0,,,,,,-0.049479167,-0.412760417,1,0,0,4.3119,Pegmatite_rect,9,0,9,0,1,
663abe859bcc3ea8ef9bbdf3,SCR,2024-06-21_12h51.09.993,LearnStrategy,2023.2.3,Win32,59.52380952,2,2,11,,,,,,,,7,06,,,,,,,,,,,,,1,5.821,0,,,,,,-0.45703125,-0.231770833,1,0,0,5.8209,Andesite_rect,10,0,10,0,1,
663abe859bcc3ea8ef9bbdf3,SCR,2024-06-21_12h51.09.993,LearnStrategy,2023.2.3,Win32,59.52380952,2,2,12,,,,,,,,1,10,,,,,,,,,,,,,2,2.601,0,,,,,,-0.13671875,-0.263020833,1,0,0,2.6012,Basalt_rect,11,0,11,0,1,
663abe859bcc3ea8ef9bbdf3,SCR,2024-06-21_12h51.09.993,LearnStrategy,2023.2.3,Win32,59.52380952,2,2,13,,,,,,,,6,11,,,,,,,,,,,,,1,3.28,0,,,,,,-0.40234375,-0.2578125,1,0,0,3.2804,Andesite_rect,12,0,12,0,1,
663abe859bcc3ea8ef9bbdf3,SCR,2024-06-21_12h51.09.993,LearnStrategy,2023.2.3,Win32,59.52380952,2,2,14,,,,,,,,2,10,,,,,,,,,,,,,4,3.503,0,,,,,,0.401041667,-0.25390625,1,0,0,3.5034,Gabbro_rect,13,0,13,0,1,
663abe859bcc3ea8ef9bbdf3,SCR,2024-06-21_12h51.09.993,LearnStrategy,2023.2.3,Win32,59.52380952,2,2,15,,,,,,,,5,16,,,,,,,,,,,,,5,2.031,1,,,,,,-0.432291667,-0.385416667,1,0,0,2.0314,Obsidian_rect,14,0,14,0,1,
663abe859bcc3ea8ef9bbdf3,SCR,2024-06-21_12h51.09.993,LearnStrategy,2023.2.3,Win32,59.52380952,2,2,16,,,,,,,,6,09,,,,,,,,,,,,,1,1.965,0,,,,,,-0.385416667,-0.266927083,1,0,0,1.9654,Andesite_rect,15,0,15,0,1,
663abe859bcc3ea8ef9bbdf3,SCR,2024-06-21_12h51.09.993,LearnStrategy,2023.2.3,Win32,59.52380952,3,1,1,0.579427083,-0.26171875,1,0,0,2.7531,Diorite_06,3,06,2,8,2.753,3,06,0.119791667,-0.399739583,1,0,0,5.5493,Peridotite_rect,7,5.549,0,0,0,0,0,1,,,,,,,,,,,,,
663abe859bcc3ea8ef9bbdf3,SCR,2024-06-21_12h51.09.993,LearnStrategy,2023.2.3,Win32,59.52380952,3,1,2,0.083333333,-0.135416667,1,0,0,1.0632,Pegmatite_06,6,06,3,5,1.063,6,06,-0.421875,-0.239583333,1,0,0,2.3675,Andesite_rect,1,2.368,0,1,0,1,0,1,,,,,,,,,,,,,
663abe859bcc3ea8ef9bbdf3,SCR,2024-06-21_12h51.09.993,LearnStrategy,2023.2.3,Win32,59.52380952,3,1,3,-0.41015625,-0.118489583,1,0,0,1.6708,Pegmatite_10,6,10,3,2,1.671,6,10,-0.407552083,-0.268229167,1,0,0,1.9582,Andesite_rect,1,1.958,0,2,0,2,0,1,,,,,,,,,,,,,
663abe859bcc3ea8ef9bbdf3,SCR,2024-06-21_12h51.09.993,LearnStrategy,2023.2.3,Win32,59.52380952,3,1,4,0.528645833,-0.1171875,1,0,0,1.7095,Gabbro_10,4,10,3,8,1.709,4,10,-0.17578125,-0.252604167,1,0,0,2.2149,Basalt_rect,2,2.215,0,3,0,3,0,1,,,,,,,,,,,,,
663abe859bcc3ea8ef9bbdf3,SCR,2024-06-21_12h51.09.993,LearnStrategy,2023.2.3,Win32,59.52380952,3,1,5,-0.559895833,-0.364583333,1,0,0,1.8118,Basalt_04,2,04,1,1,1.812,2,04,-0.115885417,-0.2421875,1,0,0,1.4418,Basalt_rect,2,1.442,1,4,0,4,0,1,,,,,,,,,,,,,
663abe859bcc3ea8ef9bbdf3,SCR,2024-06-21_12h51.09.993,LearnStrategy,2023.2.3,Win32,59.52380952,3,1,6,-0.403645833,-0.389322917,1,0,0,1.4795,Diorite_15,3,15,1,2,1.479,3,15,0.424479167,-0.252604167,1,0,0,5.6326,Gabbro_rect,4,5.633,0,5,0,5,0,1,,,,,,,,,,,,,
663abe859bcc3ea8ef9bbdf3,SCR,2024-06-21_12h51.09.993,LearnStrategy,2023.2.3,Win32,59.52380952,3,1,7,-0.233072917,-0.11328125,1,0,0,1.5152,Andesite_07,1,07,3,3,1.515,1,07,0.3359375,-0.231770833,1,0,0,3.328,Gabbro_rect,4,3.328,0,6,0,6,0,1,,,,,,,,,,,,,
663abe859bcc3ea8ef9bbdf3,SCR,2024-06-21_12h51.09.993,LearnStrategy,2023.2.3,Win32,59.52380952,3,1,8,-0.075520833,-0.427083333,1,0,0,1.3442,Peridotite_15,7,15,1,4,1.344,7,15,0.141927083,-0.252604167,1,0,0,3.9655,Diorite_rect,3,3.966,0,7,0,7,0,1,,,,,,,,,,,,,
663abe859bcc3ea8ef9bbdf3,SCR,2024-06-21_12h51.09.993,LearnStrategy,2023.2.3,Win32,59.52380952,3,1,9,0.505208333,0.088541667,1,0,0,1.6905,Diorite_09,3,09,4,8,1.691,3,09,-0.088541667,-0.403645833,1,0,0,5.7266,Pegmatite_rect,6,5.727,0,8,0,8,0,1,,,,,,,,,,,,,
663abe859bcc3ea8ef9bbdf3,SCR,2024-06-21_12h51.09.993,LearnStrategy,2023.2.3,Win32,59.52380952,3,1,10,-0.549479167,-0.095052083,1,0,0,1.2874,Pumice_16,8,16,3,1,1.287,8,16,0.385416667,-0.401041667,1,0,0,2.2094,Pumice_rect,8,2.209,1,9,0,9,0,1,,,,,,,,,,,,,
663abe859bcc3ea8ef9bbdf3,SCR,2024-06-21_12h51.09.993,LearnStrategy,2023.2.3,Win32,59.52380952,3,1,11,-0.2265625,-0.078125,1,0,0,1.2458,Andesite_07,1,07,3,3,1.246,1,07,0.1953125,-0.263020833,1,0,0,2.9606,Diorite_rect,3,2.961,0,10,0,10,0,1,,,,,,,,,,,,,
663abe859bcc3ea8ef9bbdf3,SCR,2024-06-21_12h51.09.993,LearnStrategy,2023.2.3,Win32,59.52380952,3,1,12,0.397135417,-0.41015625,1,0,0,2.1083,Peridotite_10,7,10,1,7,2.108,7,10,0.14453125,-0.395833333,1,0,0,10.1287,Peridotite_rect,7,10.129,1,11,0,11,0,1,,,,,,,,,,,,,
663abe859bcc3ea8ef9bbdf3,SCR,2024-06-21_12h51.09.993,LearnStrategy,2023.2.3,Win32,59.52380952,3,1,13,0.212239583,-0.28125,1,0,0,1.8088,Andesite_04,1,04,2,6,1.809,1,04,0.173177083,-0.411458333,1,0,0,2.7604,Peridotite_rect,7,2.76,0,12,0,12,0,1,,,,,,,,,,,,,
663abe859bcc3ea8ef9bbdf3,SCR,2024-06-21_12h51.09.993,LearnStrategy,2023.2.3,Win32,59.52380952,3,1,14,0.565104167,0.236979167,1,0,0,1.5947,Basalt_11,2,11,5,8,1.595,2,11,-0.100260417,-0.240885417,1,0,0,1.5965,Basalt_rect,2,1.597,1,13,0,13,0,1,,,,,,,,,,,,,
663abe859bcc3ea8ef9bbdf3,SCR,2024-06-21_12h51.09.993,LearnStrategy,2023.2.3,Win32,59.52380952,3,1,15,-0.596354167,0.41796875,1,0,0,2.694,Gabbro_15,4,15,6,1,2.694,4,15,-0.178385417,-0.3984375,1,0,0,6.5049,Pegmatite_rect,6,6.505,0,14,0,14,0,1,,,,,,,,,,,,,
663abe859bcc3ea8ef9bbdf3,SCR,2024-06-21_12h51.09.993,LearnStrategy,2023.2.3,Win32,59.52380952,3,1,16,-0.05078125,0.080729167,1,0,0,1.415,Pegmatite_03,6,03,4,4,1.415,6,03,-0.333333333,-0.38671875,1,0,0,4.8654,Obsidian_rect,5,4.865,0,15,0,15,0,1,,,,,,,,,,,,,
663abe859bcc3ea8ef9bbdf3,SCR,2024-06-21_12h51.09.993,LearnStrategy,2023.2.3,Win32,59.52380952,3,2,1,,,,,,,,6,08,,,,,,,,,,,,,5,2.68,0,,,,,,-0.395833333,-0.41796875,1,0,0,2.6805,Obsidian_rect,0,0,0,0,1,
663abe859bcc3ea8ef9bbdf3,SCR,2024-06-21_12h51.09.993,LearnStrategy,2023.2.3,Win32,59.52380952,3,2,2,,,,,,,,5,06,,,,,,,,,,,,,5,1.626,1,,,,,,-0.395833333,-0.41796875,1,0,0,1.6255,Obsidian_rect,1,0,1,0,1,
663abe859bcc3ea8ef9bbdf3,SCR,2024-06-21_12h51.09.993,LearnStrategy,2023.2.3,Win32,59.52380952,3,2,3,,,,,,,,6,05,,,,,,,,,,,,,7,5.77,0,,,,,,0.091145833,-0.399739583,1,0,0,5.7697,Peridotite_rect,2,0,2,0,1,
663abe859bcc3ea8ef9bbdf3,SCR,2024-06-21_12h51.09.993,LearnStrategy,2023.2.3,Win32,59.52380952,3,2,4,,,,,,,,2,01,,,,,,,,,,,,,2,3.662,1,,,,,,-0.145833333,-0.2578125,1,0,0,3.6624,Basalt_rect,3,0,3,0,1,
663abe859bcc3ea8ef9bbdf3,SCR,2024-06-21_12h51.09.993,LearnStrategy,2023.2.3,Win32,59.52380952,3,2,5,,,,,,,,7,07,,,,,,,,,,,,,4,4.586,0,,,,,,0.302083333,-0.264322917,1,0,0,4.5861,Gabbro_rect,4,0,4,0,1,
663abe859bcc3ea8ef9bbdf3,SCR,2024-06-21_12h51.09.993,LearnStrategy,2023.2.3,Win32,59.52380952,3,2,6,,,,,,,,4,01,,,,,,,,,,,,,6,7.969,0,,,,,,-0.1015625,-0.404947917,1,0,0,7.9693,Pegmatite_rect,5,0,5,0,1,
663abe859bcc3ea8ef9bbdf3,SCR,2024-06-21_12h51.09.993,LearnStrategy,2023.2.3,Win32,59.52380952,3,2,7,,,,,,,,1,14,,,,,,,,,,,,,3,6.247,0,,,,,,0.1484375,-0.244791667,1,0,0,6.2466,Diorite_rect,6,0,6,0,1,
663abe859bcc3ea8ef9bbdf3,SCR,2024-06-21_12h51.09.993,LearnStrategy,2023.2.3,Win32,59.52380952,3,2,8,,,,,,,,3,12,,,,,,,,,,,,,7,5.58,0,,,,,,0.149739583,-0.384114583,1,0,0,5.5799,Peridotite_rect,7,0,7,0,1,
663abe859bcc3ea8ef9bbdf3,SCR,2024-06-21_12h51.09.993,LearnStrategy,2023.2.3,Win32,59.52380952,3,2,9,,,,,,,,8,02,,,,,,,,,,,,,8,4.935,1,,,,,,0.307291667,-0.389322917,1,0,0,4.9351,Pumice_rect,8,0,8,0,1,
663abe859bcc3ea8ef9bbdf3,SCR,2024-06-21_12h51.09.993,LearnStrategy,2023.2.3,Win32,59.52380952,3,2,10,,,,,,,,3,14,,,,,,,,,,,,,1,7.247,0,,,,,,-0.373697917,-0.240885417,1,0,0,7.2467,Andesite_rect,9,0,9,0,1,
663abe859bcc3ea8ef9bbdf3,SCR,2024-06-21_12h51.09.993,LearnStrategy,2023.2.3,Win32,59.52380952,3,2,11,,,,,,,,7,12,,,,,,,,,,,,,1,2.101,0,,,,,,-0.348958333,-0.24609375,1,0,0,2.1012,Andesite_rect,10,0,10,0,1,
663abe859bcc3ea8ef9bbdf3,SCR,2024-06-21_12h51.09.993,LearnStrategy,2023.2.3,Win32,59.52380952,3,2,12,,,,,,,,2,05,,,,,,,,,,,,,7,10.293,0,,,,,,0.102864583,-0.407552083,1,0,0,10.2925,Peridotite_rect,11,0,11,0,1,
663abe859bcc3ea8ef9bbdf3,SCR,2024-06-21_12h51.09.993,LearnStrategy,2023.2.3,Win32,59.52380952,3,2,13,,,,,,,,5,11,,,,,,,,,,,,,5,1.526,1,,,,,,-0.34375,-0.381510417,1,0,0,1.5256,Obsidian_rect,12,0,12,0,1,
663abe859bcc3ea8ef9bbdf3,SCR,2024-06-21_12h51.09.993,LearnStrategy,2023.2.3,Win32,59.52380952,3,2,14,,,,,,,,4,09,,,,,,,,,,,,,7,10.875,0,,,,,,0.18359375,-0.40625,1,0,0,10.875,Peridotite_rect,13,0,13,0,1,
663abe859bcc3ea8ef9bbdf3,SCR,2024-06-21_12h51.09.993,LearnStrategy,2023.2.3,Win32,59.52380952,3,2,15,,,,,,,,8,14,,,,,,,,,,,,,8,2.516,1,,,,,,0.376302083,-0.39453125,1,0,0,2.5159,Pumice_rect,14,0,14,0,1,
663abe859bcc3ea8ef9bbdf3,SCR,2024-06-21_12h51.09.993,LearnStrategy,2023.2.3,Win32,59.52380952,3,2,16,,,,,,,,1,03,,,,,,,,,,,,,4,5.442,0,,,,,,0.37890625,-0.244791667,1,0,0,5.4422,Gabbro_rect,15,0,15,0,1,
663abe859bcc3ea8ef9bbdf3,SCR,2024-06-21_12h51.09.993,LearnStrategy,2023.2.3,Win32,59.52380952,4,1,1,-0.381510417,-0.416666667,1,0,0,2.5795,Diorite_15,3,15,1,2,2.58,3,15,-0.401041667,-0.252604167,1,0,0,1.7892,Andesite_rect,1,1.789,0,0,0,0,0,1,,,,,,,,,,,,,
663abe859bcc3ea8ef9bbdf3,SCR,2024-06-21_12h51.09.993,LearnStrategy,2023.2.3,Win32,59.52380952,4,1,2,-0.522135417,-0.108072917,1,0,0,2.5327,Pumice_16,8,16,3,1,2.533,8,16,0.372395833,-0.384114583,1,0,0,2.0193,Pumice_rect,8,2.019,1,1,0,1,0,1,,,,,,,,,,,,,
663abe859bcc3ea8ef9bbdf3,SCR,2024-06-21_12h51.09.993,LearnStrategy,2023.2.3,Win32,59.52380952,4,1,3,0.515625,0.440104167,1,0,0,2.0756,Andesite_02,1,02,6,8,2.076,1,02,0.130208333,-0.407552083,1,0,0,5.6553,Peridotite_rect,7,5.655,0,2,0,2,0,1,,,,,,,,,,,,,
663abe859bcc3ea8ef9bbdf3,SCR,2024-06-21_12h51.09.993,LearnStrategy,2023.2.3,Win32,59.52380952,4,1,4,0.415364583,0.08984375,1,0,0,2.0081,Basalt_09,2,09,4,7,2.008,2,09,-0.12109375,-0.23828125,1,0,0,2.8469,Basalt_rect,2,2.847,1,3,0,3,0,1,,,,,,,,,,,,,
663abe859bcc3ea8ef9bbdf3,SCR,2024-06-21_12h51.09.993,LearnStrategy,2023.2.3,Win32,59.52380952,4,1,5,0.03125,0.4140625,1,0,0,1.4434,Peridotite_14,7,14,6,5,1.443,7,14,0.194010417,-0.239583333,1,0,0,9.6725,Diorite_rect,3,9.673,0,4,0,4,0,1,,,,,,,,,,,,,
663abe859bcc3ea8ef9bbdf3,SCR,2024-06-21_12h51.09.993,LearnStrategy,2023.2.3,Win32,59.52380952,4,1,6,0.390625,-0.255208333,1,0,0,1.6803,Diorite_16,3,16,2,7,1.68,3,16,0.381510417,-0.260416667,1,0,0,2.0185,Gabbro_rect,4,2.018,0,5,0,5,0,1,,,,,,,,,,,,,
663abe859bcc3ea8ef9bbdf3,SCR,2024-06-21_12h51.09.993,LearnStrategy,2023.2.3,Win32,59.52380952,4,1,7,0.516927083,0.440104167,1,0,0,1.2131,Andesite_02,1,02,6,8,1.213,1,02,-0.102864583,-0.4140625,1,0,0,3.0854,Pegmatite_rect,6,3.085,0,6,0,6,0,1,,,,,,,,,,,,,
663abe859bcc3ea8ef9bbdf3,SCR,2024-06-21_12h51.09.993,LearnStrategy,2023.2.3,Win32,59.52380952,4,1,8,-0.579427083,0.3671875,1,0,0,2.2799,Gabbro_15,4,15,6,1,2.28,4,15,0.182291667,-0.420572917,1,0,0,3.3753,Peridotite_rect,7,3.375,0,7,0,7,0,1,,,,,,,,,,,,,
663abe859bcc3ea8ef9bbdf3,SCR,2024-06-21_12h51.09.993,LearnStrategy,2023.2.3,Win32,59.52380952,4,1,9,-0.032552083,-0.0859375,1,0,0,0.9251,Diorite_10,3,10,3,4,0.925,3,10,0.139322917,-0.420572917,1,0,0,4.5093,Peridotite_rect,7,4.509,0,8,0,8,0,1,,,,,,,,,,,,,
663abe859bcc3ea8ef9bbdf3,SCR,2024-06-21_12h51.09.993,LearnStrategy,2023.2.3,Win32,59.52380952,4,1,10,-0.091145833,0.259114583,1,0,0,1.2283,Peridotite_05,7,05,5,4,1.228,7,05,-0.095052083,-0.407552083,1,0,0,4.2646,Pegmatite_rect,6,4.265,0,9,0,9,0,1,,,,,,,,,,,,,
663abe859bcc3ea8ef9bbdf3,SCR,2024-06-21_12h51.09.993,LearnStrategy,2023.2.3,Win32,59.52380952,4,1,11,0.596354167,0.248697917,1,0,0,2.0119,Basalt_11,2,11,5,8,2.012,2,11,-0.1171875,-0.229166667,1,0,0,3.1598,Basalt_rect,2,3.16,1,10,0,10,0,1,,,,,,,,,,,,,
663abe859bcc3ea8ef9bbdf3,SCR,2024-06-21_12h51.09.993,LearnStrategy,2023.2.3,Win32,59.52380952,4,1,12,-0.4375,0.270833333,1,0,0,2.0659,Pegmatite_12,6,12,5,2,2.066,6,12,0.377604167,-0.248697917,1,0,0,8.1117,Gabbro_rect,4,8.112,0,11,0,11,0,1,,,,,,,,,,,,,
663abe859bcc3ea8ef9bbdf3,SCR,2024-06-21_12h51.09.993,LearnStrategy,2023.2.3,Win32,59.52380952,4,1,13,-0.389322917,0.25,1,0,0,2.6881,Pegmatite_12,6,12,5,2,2.688,6,12,0.080729167,-0.390625,1,0,0,5.4018,Peridotite_rect,7,5.402,0,12,0,12,0,1,,,,,,,,,,,,,
663abe859bcc3ea8ef9bbdf3,SCR,2024-06-21_12h51.09.993,LearnStrategy,2023.2.3,Win32,59.52380952,4,1,14,-0.088541667,0.13671875,1,0,0,1.6629,Pegmatite_03,6,03,4,4,1.663,6,03,-0.346354167,-0.25,1,0,0,2.3053,Andesite_rect,1,2.305,0,13,0,13,0,1,,,,,,,,,,,,,
663abe859bcc3ea8ef9bbdf3,SCR,2024-06-21_12h51.09.993,LearnStrategy,2023.2.3,Win32,59.52380952,4,1,15,-0.51953125,0.235677083,1,0,0,1.6631,Andesite_11,1,11,5,1,1.663,1,11,0.165364583,-0.24609375,1,0,0,4.1388,Diorite_rect,3,4.139,0,14,0,14,0,1,,,,,,,,,,,,,
663abe859bcc3ea8ef9bbdf3,SCR,2024-06-21_12h51.09.993,LearnStrategy,2023.2.3,Win32,59.52380952,4,1,16,0.05859375,-0.423177083,1,0,0,1.2477,Gabbro_13,4,13,1,5,1.248,4,13,-0.350260417,-0.264322917,1,0,0,10.2432,Andesite_rect,1,10.243,0,15,0,15,0,1,,,,,,,,,,,,,
663abe859bcc3ea8ef9bbdf3,SCR,2024-06-21_12h51.09.993,LearnStrategy,2023.2.3,Win32,59.52380952,4,2,1,,,,,,,,2,14,,,,,,,,,,,,,4,7.555,0,,,,,,0.322916667,-0.255208333,1,0,0,7.5549,Gabbro_rect,0,0,0,0,1,
663abe859bcc3ea8ef9bbdf3,SCR,2024-06-21_12h51.09.993,LearnStrategy,2023.2.3,Win32,59.52380952,4,2,2,,,,,,,,8,09,,,,,,,,,,,,,8,1.836,1,,,,,,0.348958333,-0.40625,1,0,0,1.8362,Pumice_rect,1,0,1,0,1,
663abe859bcc3ea8ef9bbdf3,SCR,2024-06-21_12h51.09.993,LearnStrategy,2023.2.3,Win32,59.52380952,4,2,3,,,,,,,,3,13,,,,,,,,,,,,,1,5.68,0,,,,,,-0.354166667,-0.240885417,1,0,0,5.6805,Andesite_rect,2,0,2,0,1,
663abe859bcc3ea8ef9bbdf3,SCR,2024-06-21_12h51.09.993,LearnStrategy,2023.2.3,Win32,59.52380952,4,2,4,,,,,,,,4,14,,,,,,,,,,,,,6,4.518,0,,,,,,-0.18359375,-0.403645833,1,0,0,4.5183,Pegmatite_rect,3,0,3,0,1,
663abe859bcc3ea8ef9bbdf3,SCR,2024-06-21_12h51.09.993,LearnStrategy,2023.2.3,Win32,59.52380952,4,2,5,,,,,,,,6,07,,,,,,,,,,,,,1,10.513,0,,,,,,-0.412760417,-0.233072917,1,0,0,10.5129,Andesite_rect,4,0,4,0,1,
663abe859bcc3ea8ef9bbdf3,SCR,2024-06-21_12h51.09.993,LearnStrategy,2023.2.3,Win32,59.52380952,4,2,6,,,,,,,,2,10,,,,,,,,,,,,,2,4.73,1,,,,,,-0.15625,-0.259114583,1,0,0,4.7304,Basalt_rect,5,0,5,0,1,
663abe859bcc3ea8ef9bbdf3,SCR,2024-06-21_12h51.09.993,LearnStrategy,2023.2.3,Win32,59.52380952,4,2,7,,,,,,,,3,08,,,,,,,,,,,,,4,3.925,0,,,,,,0.388020833,-0.248697917,1,0,0,3.9252,Gabbro_rect,6,0,6,0,1,
663abe859bcc3ea8ef9bbdf3,SCR,2024-06-21_12h51.09.993,LearnStrategy,2023.2.3,Win32,59.52380952,4,2,8,,,,,,,,7,02,,,,,,,,,,,,,4,2.322,0,,,,,,0.330729167,-0.259114583,1,0,0,2.3222,Gabbro_rect,7,0,7,0,1,
663abe859bcc3ea8ef9bbdf3,SCR,2024-06-21_12h51.09.993,LearnStrategy,2023.2.3,Win32,59.52380952,4,2,9,,,,,,,,1,16,,,,,,,,,,,,,6,7.451,0,,,,,,-0.186197917,-0.395833333,1,0,0,7.4507,Pegmatite_rect,8,0,8,0,1,
663abe859bcc3ea8ef9bbdf3,SCR,2024-06-21_12h51.09.993,LearnStrategy,2023.2.3,Win32,59.52380952,4,2,10,,,,,,,,7,07,,,,,,,,,,,,,6,3.154,0,,,,,,-0.173177083,-0.393229167,1,0,0,3.154,Pegmatite_rect,9,0,9,0,1,
663abe859bcc3ea8ef9bbdf3,SCR,2024-06-21_12h51.09.993,LearnStrategy,2023.2.3,Win32,59.52380952,4,2,11,,,,,,,,5,11,,,,,,,,,,,,,5,1.426,1,,,,,,-0.352864583,-0.388020833,1,0,0,1.4264,Obsidian_rect,10,0,10,0,1,
663abe859bcc3ea8ef9bbdf3,SCR,2024-06-21_12h51.09.993,LearnStrategy,2023.2.3,Win32,59.52380952,4,2,12,,,,,,,,4,09,,,,,,,,,,,,,3,6.87,0,,,,,,0.221354167,-0.236979167,1,0,0,6.8701,Diorite_rect,11,0,11,0,1,
663abe859bcc3ea8ef9bbdf3,SCR,2024-06-21_12h51.09.993,LearnStrategy,2023.2.3,Win32,59.52380952,4,2,13,,,,,,,,6,08,,,,,,,,,,,,,1,1.619,0,,,,,,-0.412760417,-0.244791667,1,0,0,1.6191,Andesite_rect,12,0,12,0,1,
663abe859bcc3ea8ef9bbdf3,SCR,2024-06-21_12h51.09.993,LearnStrategy,2023.2.3,Win32,59.52380952,4,2,14,,,,,,,,1,01,,,,,,,,,,,,,1,3.028,1,,,,,,-0.412760417,-0.244791667,1,0,0,3.0278,Andesite_rect,13,0,13,0,1,
663abe859bcc3ea8ef9bbdf3,SCR,2024-06-21_12h51.09.993,LearnStrategy,2023.2.3,Win32,59.52380952,4,2,15,,,,,,,,8,13,,,,,,,,,,,,,8,5.872,1,,,,,,0.333333333,-0.40234375,1,0,0,5.872,Pumice_rect,14,0,14,0,1,
663abe859bcc3ea8ef9bbdf3,SCR,2024-06-21_12h51.09.993,LearnStrategy,2023.2.3,Win32,59.52380952,4,2,16,,,,,,,,5,08,,,,,,,,,,,,,5,1.274,1,,,,,,-0.377604167,-0.39453125,1,0,0,1.2737,Obsidian_rect,15,0,15,0,1,
663abe859bcc3ea8ef9bbdf3,SCR,2024-06-21_12h51.09.993,LearnStrategy,2023.2.3,Win32,59.52380952,5,1,1,-0.427083333,-0.227864583,1,0,0,5.3099,Basalt_02,2,02,2,2,5.31,2,02,-0.09375,-0.25,1,0,0,3.2721,Basalt_rect,2,3.272,1,0,0,0,0,1,,,,,,,,,,,,,
663abe859bcc3ea8ef9bbdf3,SCR,2024-06-21_12h51.09.993,LearnStrategy,2023.2.3,Win32,59.52380952,5,1,2,-0.110677083,-0.438802083,1,0,0,1.2825,Peridotite_15,7,15,1,4,1.283,7,15,-0.11328125,-0.411458333,1,0,0,3.9294,Pegmatite_rect,6,3.929,0,1,0,1,0,1,,,,,,,,,,,,,
663abe859bcc3ea8ef9bbdf3,SCR,2024-06-21_12h51.09.993,LearnStrategy,2023.2.3,Win32,59.52380952,5,1,3,-0.108072917,0.221354167,1,0,0,1.6524,Peridotite_05,7,05,5,4,1.652,7,05,0.079427083,-0.2421875,1,0,0,9.3637,Diorite_rect,3,9.364,0,2,0,2,0,1,,,,,,,,,,,,,
663abe859bcc3ea8ef9bbdf3,SCR,2024-06-21_12h51.09.993,LearnStrategy,2023.2.3,Win32,59.52380952,5,1,4,0.522135417,0.416666667,1,0,0,1.7169,Andesite_02,1,02,6,8,1.717,1,02,0.1171875,-0.391927083,1,0,0,2.2498,Peridotite_rect,7,2.25,0,3,0,3,0,1,,,,,,,,,,,,,
663abe859bcc3ea8ef9bbdf3,SCR,2024-06-21_12h51.09.993,LearnStrategy,2023.2.3,Win32,59.52380952,5,1,5,-0.05078125,0.072916667,1,0,0,1.2975,Pegmatite_03,6,03,4,4,1.298,6,03,-0.15234375,-0.401041667,1,0,0,4.3978,Pegmatite_rect,6,4.398,1,4,0,4,0,1,,,,,,,,,,,,,
663abe859bcc3ea8ef9bbdf3,SCR,2024-06-21_12h51.09.993,LearnStrategy,2023.2.3,Win32,59.52380952,5,1,6,-0.053385417,-0.252604167,1,0,0,2.9116,Gabbro_12,4,12,2,4,2.912,4,12,0.162760417,-0.395833333,1,0,0,8.6007,Peridotite_rect,7,8.601,0,5,0,5,0,1,,,,,,,,,,,,,
663abe859bcc3ea8ef9bbdf3,SCR,2024-06-21_12h51.09.993,LearnStrategy,2023.2.3,Win32,59.52380952,5,1,7,-0.061197917,-0.104166667,1,0,0,1.1625,Diorite_10,3,10,3,4,1.162,3,10,0.14453125,-0.404947917,1,0,0,9.7009,Peridotite_rect,7,9.701,0,6,0,6,0,1,,,,,,,,,,,,,
663abe859bcc3ea8ef9bbdf3,SCR,2024-06-21_12h51.09.993,LearnStrategy,2023.2.3,Win32,59.52380952,5,1,8,-0.51953125,0.395833333,1,0,0,2.8061,Gabbro_15,4,15,6,1,2.806,4,15,0.130208333,-0.4140625,1,0,0,4.8535,Peridotite_rect,7,4.854,0,7,0,7,0,1,,,,,,,,,,,,,
663abe859bcc3ea8ef9bbdf3,SCR,2024-06-21_12h51.09.993,LearnStrategy,2023.2.3,Win32,59.52380952,5,1,9,0.07421875,-0.088541667,1,0,0,1.0078,Pegmatite_06,6,06,3,5,1.008,6,06,-0.111979167,-0.412760417,1,0,0,3.4263,Pegmatite_rect,6,3.426,1,8,0,8,0,1,,,,,,,,,,,,,
663abe859bcc3ea8ef9bbdf3,SCR,2024-06-21_12h51.09.993,LearnStrategy,2023.2.3,Win32,59.52380952,5,1,10,-0.369791667,-0.265625,1,0,0,1.6181,Basalt_02,2,02,2,2,1.618,2,02,-0.071614583,-0.268229167,1,0,0,2.2327,Basalt_rect,2,2.233,1,9,0,9,0,1,,,,,,,,,,,,,
663abe859bcc3ea8ef9bbdf3,SCR,2024-06-21_12h51.09.993,LearnStrategy,2023.2.3,Win32,59.52380952,5,1,11,-0.352864583,0.234375,1,0,0,2.5454,Pegmatite_12,6,12,5,2,2.545,6,12,-0.08203125,-0.401041667,1,0,0,5.837,Pegmatite_rect,6,5.837,1,10,0,10,0,1,,,,,,,,,,,,,
663abe859bcc3ea8ef9bbdf3,SCR,2024-06-21_12h51.09.993,LearnStrategy,2023.2.3,Win32,59.52380952,5,1,12,0.244791667,0.407552083,1,0,0,1.693,Diorite_02,3,02,6,6,1.693,3,02,0.43359375,-0.266927083,1,0,0,4.0713,Gabbro_rect,4,4.071,0,11,0,11,0,1,,,,,,,,,,,,,
663abe859bcc3ea8ef9bbdf3,SCR,2024-06-21_12h51.09.993,LearnStrategy,2023.2.3,Win32,59.52380952,5,1,13,0.5390625,-0.225260417,1,0,0,1.7951,Diorite_06,3,06,2,8,1.795,3,06,0.165364583,-0.403645833,1,0,0,14.9027,Peridotite_rect,7,14.903,0,12,0,12,0,1,,,,,,,,,,,,,
663abe859bcc3ea8ef9bbdf3,SCR,2024-06-21_12h51.09.993,LearnStrategy,2023.2.3,Win32,59.52380952,5,1,14,-0.231770833,0.243489583,1,0,0,2.2606,Gabbro_08,4,08,5,3,2.261,4,08,0.069010417,-0.4140625,1,0,0,3.5883,Peridotite_rect,7,3.588,0,13,0,13,0,1,,,,,,,,,,,,,
663abe859bcc3ea8ef9bbdf3,SCR,2024-06-21_12h51.09.993,LearnStrategy,2023.2.3,Win32,59.52380952,5,1,15,-0.256510417,-0.0859375,1,0,0,1.935,Andesite_07,1,07,3,3,1.935,1,07,-0.369791667,-0.233072917,1,0,0,5.4685,Andesite_rect,1,5.468,1,14,0,14,0,1,,,,,,,,,,,,,
663abe859bcc3ea8ef9bbdf3,SCR,2024-06-21_12h51.09.993,LearnStrategy,2023.2.3,Win32,59.52380952,5,1,16,-0.063802083,0.264322917,1,0,0,1.2271,Peridotite_05,7,05,5,4,1.227,7,05,0.095052083,-0.404947917,1,0,0,7.6446,Peridotite_rect,7,7.645,1,15,0,15,0,1,,,,,,,,,,,,,
663abe859bcc3ea8ef9bbdf3,SCR,2024-06-21_12h51.09.993,LearnStrategy,2023.2.3,Win32,59.52380952,5,2,1,,,,,,,,6,05,,,,,,,,,,,,,6,15.678,1,,,,,,-0.158854167,-0.408854167,1,0,0,15.6784,Pegmatite_rect,0,0,0,0,1,
663abe859bcc3ea8ef9bbdf3,SCR,2024-06-21_12h51.09.993,LearnStrategy,2023.2.3,Win32,59.52380952,5,2,2,,,,,,,,1,14,,,,,,,,,,,,,4,7.042,0,,,,,,0.40234375,-0.243489583,1,0,0,7.0423,Gabbro_rect,1,0,1,0,1,
663abe859bcc3ea8ef9bbdf3,SCR,2024-06-21_12h51.09.993,LearnStrategy,2023.2.3,Win32,59.52380952,5,2,3,,,,,,,,3,07,,,,,,,,,,,,,7,5.676,0,,,,,,0.170572917,-0.412760417,1,0,0,5.6763,Peridotite_rect,2,0,2,0,1,
663abe859bcc3ea8ef9bbdf3,SCR,2024-06-21_12h51.09.993,LearnStrategy,2023.2.3,Win32,59.52380952,5,2,4,,,,,,,,6,16,,,,,,,,,,,,,6,5.127,1,,,,,,-0.12890625,-0.403645833,1,0,0,5.1265,Pegmatite_rect,3,0,3,0,1,
663abe859bcc3ea8ef9bbdf3,SCR,2024-06-21_12h51.09.993,LearnStrategy,2023.2.3,Win32,59.52380952,5,2,5,,,,,,,,5,06,,,,,,,,,,,,,5,1.25,1,,,,,,-0.39453125,-0.399739583,1,0,0,1.25,Obsidian_rect,4,0,4,0,1,
663abe859bcc3ea8ef9bbdf3,SCR,2024-06-21_12h51.09.993,LearnStrategy,2023.2.3,Win32,59.52380952,5,2,6,,,,,,,,2,05,,,,,,,,,,,,,2,3.524,1,,,,,,-0.1015625,-0.236979167,1,0,0,3.5235,Basalt_rect,5,0,5,0,1,
663abe859bcc3ea8ef9bbdf3,SCR,2024-06-21_12h51.09.993,LearnStrategy,2023.2.3,Win32,59.52380952,5,2,7,,,,,,,,7,08,,,,,,,,,,,,,3,4.651,0,,,,,,0.2265625,-0.265625,1,0,0,4.6514,Diorite_rect,6,0,6,0,1,
663abe859bcc3ea8ef9bbdf3,SCR,2024-06-21_12h51.09.993,LearnStrategy,2023.2.3,Win32,59.52380952,5,2,8,,,,,,,,2,12,,,,,,,,,,,,,2,1.584,1,,,,,,-0.18359375,-0.247395833,1,0,0,1.5841,Basalt_rect,7,0,7,0,1,
663abe859bcc3ea8ef9bbdf3,SCR,2024-06-21_12h51.09.993,LearnStrategy,2023.2.3,Win32,59.52380952,5,2,9,,,,,,,,7,06,,,,,,,,,,,,,1,6.152,0,,,,,,-0.40234375,-0.252604167,1,0,0,6.1523,Andesite_rect,8,0,8,0,1,
663abe859bcc3ea8ef9bbdf3,SCR,2024-06-21_12h51.09.993,LearnStrategy,2023.2.3,Win32,59.52380952,5,2,10,,,,,,,,8,08,,,,,,,,,,,,,8,2.744,1,,,,,,0.415364583,-0.412760417,1,0,0,2.744,Pumice_rect,9,0,9,0,1,
663abe859bcc3ea8ef9bbdf3,SCR,2024-06-21_12h51.09.993,LearnStrategy,2023.2.3,Win32,59.52380952,5,2,11,,,,,,,,1,03,,,,,,,,,,,,,3,7.459,0,,,,,,0.188802083,-0.24609375,1,0,0,7.4589,Diorite_rect,10,0,10,0,1,
663abe859bcc3ea8ef9bbdf3,SCR,2024-06-21_12h51.09.993,LearnStrategy,2023.2.3,Win32,59.52380952,5,2,12,,,,,,,,3,12,,,,,,,,,,,,,7,4.329,0,,,,,,0.157552083,-0.3984375,1,0,0,4.3291,Peridotite_rect,11,0,11,0,1,
663abe859bcc3ea8ef9bbdf3,SCR,2024-06-21_12h51.09.993,LearnStrategy,2023.2.3,Win32,59.52380952,5,2,13,,,,,,,,8,02,,,,,,,,,,,,,8,4.355,1,,,,,,0.35546875,-0.38671875,1,0,0,4.3547,Pumice_rect,12,0,12,0,1,
663abe859bcc3ea8ef9bbdf3,SCR,2024-06-21_12h51.09.993,LearnStrategy,2023.2.3,Win32,59.52380952,5,2,14,,,,,,,,4,01,,,,,,,,,,,,,4,3.487,1,,,,,,0.3203125,-0.2421875,1,0,0,3.4874,Gabbro_rect,13,0,13,0,1,
663abe859bcc3ea8ef9bbdf3,SCR,2024-06-21_12h51.09.993,LearnStrategy,2023.2.3,Win32,59.52380952,5,2,15,,,,,,,,5,16,,,,,,,,,,,,,5,1.588,1,,,,,,-0.42578125,-0.3984375,1,0,0,1.5885,Obsidian_rect,14,0,14,0,1,
663abe859bcc3ea8ef9bbdf3,SCR,2024-06-21_12h51.09.993,LearnStrategy,2023.2.3,Win32,59.52380952,5,2,16,,,,,,,,4,03,,,,,,,,,,,,,4,9.313,1,,,,,,0.3125,-0.244791667,1,0,0,9.3135,Gabbro_rect,15,0,15,0,1,
663abe859bcc3ea8ef9bbdf3,SCR,2024-06-21_12h51.09.993,LearnStrategy,2023.2.3,Win32,59.52380952,6,1,1,-0.067708333,0.067708333,1,0,0,2.1985,Pegmatite_03,6,03,4,4,2.198,6,03,-0.401041667,-0.260416667,1,0,0,5.78,Andesite_rect,1,5.78,0,0,0,0,0,1,,,,,,,,,,,,,
663abe859bcc3ea8ef9bbdf3,SCR,2024-06-21_12h51.09.993,LearnStrategy,2023.2.3,Win32,59.52380952,6,1,2,-0.044270833,-0.115885417,1,0,0,1.3803,Diorite_10,3,10,3,4,1.38,3,10,0.416666667,-0.264322917,1,0,0,7.9588,Gabbro_rect,4,7.959,0,1,0,1,0,1,,,,,,,,,,,,,
663abe859bcc3ea8ef9bbdf3,SCR,2024-06-21_12h51.09.993,LearnStrategy,2023.2.3,Win32,59.52380952,6,1,3,-0.430989583,-0.102864583,1,0,0,2.1131,Pegmatite_10,6,10,3,2,2.113,6,10,-0.141927083,-0.408854167,1,0,0,3.8138,Pegmatite_rect,6,3.814,1,2,0,2,0,1,,,,,,,,,,,,,
663abe859bcc3ea8ef9bbdf3,SCR,2024-06-21_12h51.09.993,LearnStrategy,2023.2.3,Win32,59.52380952,6,1,4,0.55859375,-0.076822917,1,0,0,1.6888,Gabbro_10,4,10,3,8,1.689,4,10,0.34765625,-0.265625,1,0,0,3.8992,Gabbro_rect,4,3.899,1,3,0,3,0,1,,,,,,,,,,,,,
663abe859bcc3ea8ef9bbdf3,SCR,2024-06-21_12h51.09.993,LearnStrategy,2023.2.3,Win32,59.52380952,6,1,5,-0.272135417,0.3828125,1,0,0,1.7784,Andesite_05,1,05,6,3,1.778,1,05,0.095052083,-0.419270833,1,0,0,6.5796,Peridotite_rect,7,6.58,0,4,0,4,0,1,,,,,,,,,,,,,
663abe859bcc3ea8ef9bbdf3,SCR,2024-06-21_12h51.09.993,LearnStrategy,2023.2.3,Win32,59.52380952,6,1,6,-0.04296875,0.205729167,1,0,0,1.1962,Peridotite_05,7,05,5,4,1.196,7,05,0.063802083,-0.412760417,1,0,0,4.7989,Peridotite_rect,7,4.799,1,5,0,5,0,1,,,,,,,,,,,,,
663abe859bcc3ea8ef9bbdf3,SCR,2024-06-21_12h51.09.993,LearnStrategy,2023.2.3,Win32,59.52380952,6,1,7,0.036458333,-0.412760417,1,0,0,1.7758,Gabbro_13,4,13,1,5,1.776,4,13,-0.087239583,-0.381510417,1,0,0,2.4913,Pegmatite_rect,6,2.491,0,6,0,6,0,1,,,,,,,,,,,,,
663abe859bcc3ea8ef9bbdf3,SCR,2024-06-21_12h51.09.993,LearnStrategy,2023.2.3,Win32,59.52380952,6,1,8,-0.053385417,-0.404947917,1,0,0,1.2594,Peridotite_15,7,15,1,4,1.259,7,15,0.149739583,-0.25390625,1,0,0,8.5715,Diorite_rect,3,8.572,0,7,0,7,0,1,,,,,,,,,,,,,
663abe859bcc3ea8ef9bbdf3,SCR,2024-06-21_12h51.09.993,LearnStrategy,2023.2.3,Win32,59.52380952,6,1,9,0.5625,0.251302083,1,0,0,1.642,Basalt_11,2,11,5,8,1.642,2,11,0.454427083,-0.40234375,1,0,0,3.0719,Pumice_rect,8,3.072,0,8,0,8,0,1,,,,,,,,,,,,,
663abe859bcc3ea8ef9bbdf3,SCR,2024-06-21_12h51.09.993,LearnStrategy,2023.2.3,Win32,59.52380952,6,1,10,-0.098958333,-0.125,1,0,0,0.8458,Diorite_10,3,10,3,4,0.846,3,10,0.162760417,-0.255208333,1,0,0,2.0078,Diorite_rect,3,2.008,1,9,0,9,0,1,,,,,,,,,,,,,
663abe859bcc3ea8ef9bbdf3,SCR,2024-06-21_12h51.09.993,LearnStrategy,2023.2.3,Win32,59.52380952,6,1,11,0.404947917,-0.138020833,1,0,0,1.5171,Pumice_10,8,10,3,7,1.517,8,10,0.388020833,-0.38671875,1,0,0,3.8122,Pumice_rect,8,3.812,1,10,0,10,0,1,,,,,,,,,,,,,
663abe859bcc3ea8ef9bbdf3,SCR,2024-06-21_12h51.09.993,LearnStrategy,2023.2.3,Win32,59.52380952,6,1,12,-0.580729167,0.25390625,1,0,0,1.5887,Andesite_11,1,11,5,1,1.589,1,11,0.057291667,-0.240885417,1,0,0,8.5058,Diorite_rect,3,8.506,0,11,0,11,0,1,,,,,,,,,,,,,
663abe859bcc3ea8ef9bbdf3,SCR,2024-06-21_12h51.09.993,LearnStrategy,2023.2.3,Win32,59.52380952,6,1,13,0.21484375,0.4140625,1,0,0,3.9972,Diorite_02,3,02,6,6,3.997,3,02,-0.075520833,-0.415364583,1,0,0,4.0237,Pegmatite_rect,6,4.024,0,12,0,12,0,1,,,,,,,,,,,,,
663abe859bcc3ea8ef9bbdf3,SCR,2024-06-21_12h51.09.993,LearnStrategy,2023.2.3,Win32,59.52380952,6,1,14,-0.044270833,0.255208333,1,0,0,1.228,Peridotite_05,7,05,5,4,1.228,7,05,-0.12109375,-0.38671875,1,0,0,2.9471,Pegmatite_rect,6,2.947,0,13,0,13,0,1,,,,,,,,,,,,,
663abe859bcc3ea8ef9bbdf3,SCR,2024-06-21_12h51.09.993,LearnStrategy,2023.2.3,Win32,59.52380952,6,1,15,0.3671875,0.276041667,1,0,0,1.7975,Andesite_09,1,09,5,7,1.798,1,09,0.2109375,-0.240885417,1,0,0,4.9993,Diorite_rect,3,4.999,0,14,0,14,0,1,,,,,,,,,,,,,
663abe859bcc3ea8ef9bbdf3,SCR,2024-06-21_12h51.09.993,LearnStrategy,2023.2.3,Win32,59.52380952,6,1,16,0.1015625,-0.2421875,1,0,0,1.7954,Obsidian_14,5,14,2,5,1.795,5,14,-0.444010417,-0.3984375,1,0,0,2.3345,Obsidian_rect,5,2.334,1,15,0,15,0,1,,,,,,,,,,,,,
663abe859bcc3ea8ef9bbdf3,SCR,2024-06-21_12h51.09.993,LearnStrategy,2023.2.3,Win32,59.52380952,6,2,1,,,,,,,,1,06,,,,,,,,,,,,,1,3.751,1,,,,,,-0.35546875,-0.243489583,1,0,0,3.7507,Andesite_rect,0,0,0,0,1,
663abe859bcc3ea8ef9bbdf3,SCR,2024-06-21_12h51.09.993,LearnStrategy,2023.2.3,Win32,59.52380952,6,2,2,,,,,,,,6,11,,,,,,,,,,,,,5,1.952,0,,,,,,-0.3984375,-0.399739583,1,0,0,1.9518,Obsidian_rect,1,0,1,0,1,
663abe859bcc3ea8ef9bbdf3,SCR,2024-06-21_12h51.09.993,LearnStrategy,2023.2.3,Win32,59.52380952,6,2,3,,,,,,,,4,05,,,,,,,,,,,,,7,11.228,0,,,,,,0.10546875,-0.408854167,1,0,0,11.228,Peridotite_rect,2,0,2,0,1,
663abe859bcc3ea8ef9bbdf3,SCR,2024-06-21_12h51.09.993,LearnStrategy,2023.2.3,Win32,59.52380952,6,2,4,,,,,,,,5,10,,,,,,,,,,,,,5,1.51,1,,,,,,-0.446614583,-0.419270833,1,0,0,1.5103,Obsidian_rect,3,0,3,0,1,
663abe859bcc3ea8ef9bbdf3,SCR,2024-06-21_12h51.09.993,LearnStrategy,2023.2.3,Win32,59.52380952,6,2,5,,,,,,,,8,15,,,,,,,,,,,,,8,2.335,1,,,,,,0.33984375,-0.41015625,1,0,0,2.3347,Pumice_rect,4,0,4,0,1,
663abe859bcc3ea8ef9bbdf3,SCR,2024-06-21_12h51.09.993,LearnStrategy,2023.2.3,Win32,59.52380952,6,2,6,,,,,,,,6,09,,,,,,,,,,,,,6,8.988,1,,,,,,-0.170572917,-0.40625,1,0,0,8.9878,Pegmatite_rect,5,0,5,0,1,
663abe859bcc3ea8ef9bbdf3,SCR,2024-06-21_12h51.09.993,LearnStrategy,2023.2.3,Win32,59.52380952,6,2,7,,,,,,,,1,10,,,,,,,,,,,,,4,5.814,0,,,,,,0.368489583,-0.255208333,1,0,0,5.8136,Gabbro_rect,6,0,6,0,1,
663abe859bcc3ea8ef9bbdf3,SCR,2024-06-21_12h51.09.993,LearnStrategy,2023.2.3,Win32,59.52380952,6,2,8,,,,,,,,5,07,,,,,,,,,,,,,5,2.224,1,,,,,,-0.493489583,-0.395833333,1,0,0,2.2237,Obsidian_rect,7,0,7,0,1,
663abe859bcc3ea8ef9bbdf3,SCR,2024-06-21_12h51.09.993,LearnStrategy,2023.2.3,Win32,59.52380952,6,2,9,,,,,,,,3,14,,,,,,,,,,,,,1,9.585,0,,,,,,-0.404947917,-0.25,1,0,0,9.5852,Andesite_rect,8,0,8,0,1,
663abe859bcc3ea8ef9bbdf3,SCR,2024-06-21_12h51.09.993,LearnStrategy,2023.2.3,Win32,59.52380952,6,2,10,,,,,,,,4,16,,,,,,,,,,,,,3,5.972,0,,,,,,0.161458333,-0.264322917,1,0,0,5.9716,Diorite_rect,9,0,9,0,1,
663abe859bcc3ea8ef9bbdf3,SCR,2024-06-21_12h51.09.993,LearnStrategy,2023.2.3,Win32,59.52380952,6,2,11,,,,,,,,8,14,,,,,,,,,,,,,8,1.656,1,,,,,,0.321614583,-0.412760417,1,0,0,1.656,Pumice_rect,10,0,10,0,1,
663abe859bcc3ea8ef9bbdf3,SCR,2024-06-21_12h51.09.993,LearnStrategy,2023.2.3,Win32,59.52380952,6,2,12,,,,,,,,7,13,,,,,,,,,,,,,7,3.393,1,,,,,,0.049479167,-0.393229167,1,0,0,3.3932,Peridotite_rect,11,0,11,0,1,
663abe859bcc3ea8ef9bbdf3,SCR,2024-06-21_12h51.09.993,LearnStrategy,2023.2.3,Win32,59.52380952,6,2,13,,,,,,,,3,11,,,,,,,,,,,,,3,2.722,1,,,,,,0.194010417,-0.240885417,1,0,0,2.7218,Diorite_rect,12,0,12,0,1,
663abe859bcc3ea8ef9bbdf3,SCR,2024-06-21_12h51.09.993,LearnStrategy,2023.2.3,Win32,59.52380952,6,2,14,,,,,,,,2,06,,,,,,,,,,,,,2,2.439,1,,,,,,-0.209635417,-0.244791667,1,0,0,2.439,Basalt_rect,13,0,13,0,1,
663abe859bcc3ea8ef9bbdf3,SCR,2024-06-21_12h51.09.993,LearnStrategy,2023.2.3,Win32,59.52380952,6,2,15,,,,,,,,2,01,,,,,,,,,,,,,2,5.139,1,,,,,,-0.18359375,-0.260416667,1,0,0,5.1393,Basalt_rect,14,0,14,0,1,
663abe859bcc3ea8ef9bbdf3,SCR,2024-06-21_12h51.09.993,LearnStrategy,2023.2.3,Win32,59.52380952,6,2,16,,,,,,,,7,12,,,,,,,,,,,,,1,4.153,0,,,,,,-0.364583333,-0.247395833,1,0,0,4.1532,Andesite_rect,15,0,15,0,1,
663abe859bcc3ea8ef9bbdf3,SCR,2024-06-21_12h51.09.993,LearnStrategy,2023.2.3,Win32,59.52380952,7,1,1,-0.205729167,-0.114583333,1,0,0,4.4096,Andesite_07,1,07,3,3,4.41,1,07,-0.381510417,-0.240885417,1,0,0,3.9503,Andesite_rect,1,3.95,1,0,0,0,0,1,,,,,,,,,,,,,
663abe859bcc3ea8ef9bbdf3,SCR,2024-06-21_12h51.09.993,LearnStrategy,2023.2.3,Win32,59.52380952,7,1,2,0.583333333,-0.272135417,1,0,0,1.691,Diorite_06,3,06,2,8,1.691,3,06,0.373697917,-0.243489583,1,0,0,4.6097,Gabbro_rect,4,4.61,0,1,0,1,0,1,,,,,,,,,,,,,
663abe859bcc3ea8ef9bbdf3,SCR,2024-06-21_12h51.09.993,LearnStrategy,2023.2.3,Win32,59.52380952,7,1,3,0.584635417,-0.109375,1,0,0,2.5473,Gabbro_10,4,10,3,8,2.547,4,10,0.411458333,-0.252604167,1,0,0,8.0175,Gabbro_rect,4,8.017,1,2,0,2,0,1,,,,,,,,,,,,,
663abe859bcc3ea8ef9bbdf3,SCR,2024-06-21_12h51.09.993,LearnStrategy,2023.2.3,Win32,59.52380952,7,1,4,0.51953125,-0.100260417,1,0,0,2.7761,Gabbro_10,4,10,3,8,2.776,4,10,0.397135417,-0.23046875,1,0,0,1.6985,Gabbro_rect,4,1.698,1,3,0,3,0,1,,,,,,,,,,,,,
663abe859bcc3ea8ef9bbdf3,SCR,2024-06-21_12h51.09.993,LearnStrategy,2023.2.3,Win32,59.52380952,7,1,5,0.095052083,0.266927083,1,0,0,1.3427,Basalt_08,2,08,5,5,1.343,2,08,-0.17578125,-0.236979167,1,0,0,1.2053,Basalt_rect,2,1.205,1,4,0,4,0,1,,,,,,,,,,,,,
663abe859bcc3ea8ef9bbdf3,SCR,2024-06-21_12h51.09.993,LearnStrategy,2023.2.3,Win32,59.52380952,7,1,6,-0.059895833,0.26953125,1,0,0,1.4613,Peridotite_05,7,05,5,4,1.461,7,05,0.153645833,-0.38671875,1,0,0,17.581,Peridotite_rect,7,17.581,1,5,0,5,0,1,,,,,,,,,,,,,
663abe859bcc3ea8ef9bbdf3,SCR,2024-06-21_12h51.09.993,LearnStrategy,2023.2.3,Win32,59.52380952,7,1,7,-0.06640625,-0.111979167,1,0,0,1.0778,Diorite_10,3,10,3,4,1.078,3,10,0.111979167,-0.243489583,1,0,0,6.374,Diorite_rect,3,6.374,1,6,0,6,0,1,,,,,,,,,,,,,
663abe859bcc3ea8ef9bbdf3,SCR,2024-06-21_12h51.09.993,LearnStrategy,2023.2.3,Win32,59.52380952,7,1,8,-0.21484375,0.053385417,1,0,0,1.6068,Peridotite_16,7,16,4,3,1.607,7,16,-0.203125,-0.3828125,1,0,0,11.6957,Pegmatite_rect,6,11.696,0,7,0,7,0,1,,,,,,,,,,,,,
663abe859bcc3ea8ef9bbdf3,SCR,2024-06-21_12h51.09.993,LearnStrategy,2023.2.3,Win32,59.52380952,7,1,9,-0.587239583,-0.235677083,1,0,0,2.7881,Obsidian_04,5,04,2,1,2.788,5,04,-0.471354167,-0.41015625,1,0,0,1.6095,Obsidian_rect,5,1.61,1,8,0,8,0,1,,,,,,,,,,,,,
663abe859bcc3ea8ef9bbdf3,SCR,2024-06-21_12h51.09.993,LearnStrategy,2023.2.3,Win32,59.52380952,7,1,10,-0.377604167,-0.4375,1,0,0,1.7961,Diorite_15,3,15,1,2,1.796,3,15,0.364583333,-0.239583333,1,0,0,7.5045,Gabbro_rect,4,7.505,0,9,0,9,0,1,,,,,,,,,,,,,
663abe859bcc3ea8ef9bbdf3,SCR,2024-06-21_12h51.09.993,LearnStrategy,2023.2.3,Win32,59.52380952,7,1,11,-0.578125,0.29296875,1,0,0,1.8941,Andesite_11,1,11,5,1,1.894,1,11,-0.4375,-0.23828125,1,0,0,2.8541,Andesite_rect,1,2.854,1,10,0,10,0,1,,,,,,,,,,,,,
663abe859bcc3ea8ef9bbdf3,SCR,2024-06-21_12h51.09.993,LearnStrategy,2023.2.3,Win32,59.52380952,7,1,12,-0.1015625,0.2734375,1,0,0,1.3451,Peridotite_05,7,05,5,4,1.345,7,05,0.337239583,-0.248697917,1,0,0,6.3587,Gabbro_rect,4,6.359,0,11,0,11,0,1,,,,,,,,,,,,,
663abe859bcc3ea8ef9bbdf3,SCR,2024-06-21_12h51.09.993,LearnStrategy,2023.2.3,Win32,59.52380952,7,1,13,0.220052083,0.076822917,1,0,0,1.1791,Pegmatite_15,6,15,4,6,1.179,6,15,-0.37109375,-0.240885417,1,0,0,2.8948,Andesite_rect,1,2.895,0,12,0,12,0,1,,,,,,,,,,,,,
663abe859bcc3ea8ef9bbdf3,SCR,2024-06-21_12h51.09.993,LearnStrategy,2023.2.3,Win32,59.52380952,7,1,14,-0.05859375,-0.259114583,1,0,0,1.5965,Gabbro_12,4,12,2,4,1.596,4,12,-0.424479167,-0.239583333,1,0,0,9.252,Andesite_rect,1,9.252,0,13,0,13,0,1,,,,,,,,,,,,,
663abe859bcc3ea8ef9bbdf3,SCR,2024-06-21_12h51.09.993,LearnStrategy,2023.2.3,Win32,59.52380952,7,1,15,0.244791667,-0.278645833,1,0,0,3.2459,Andesite_04,1,04,2,6,3.246,1,04,-0.375,-0.26171875,1,0,0,1.8932,Andesite_rect,1,1.893,1,14,0,14,0,1,,,,,,,,,,,,,
663abe859bcc3ea8ef9bbdf3,SCR,2024-06-21_12h51.09.993,LearnStrategy,2023.2.3,Win32,59.52380952,7,1,16,-0.041666667,0.055989583,1,0,0,1.3827,Pegmatite_03,6,03,4,4,1.383,6,03,-0.119791667,-0.3984375,1,0,0,3.2991,Pegmatite_rect,6,3.299,1,15,0,15,0,1,,,,,,,,,,,,,
663abe859bcc3ea8ef9bbdf3,SCR,2024-06-21_12h51.09.993,LearnStrategy,2023.2.3,Win32,59.52380952,7,2,1,,,,,,,,3,07,,,,,,,,,,,,,3,17.251,1,,,,,,0.127604167,-0.2578125,1,0,0,17.2513,Diorite_rect,0,0,0,0,1,
663abe859bcc3ea8ef9bbdf3,SCR,2024-06-21_12h51.09.993,LearnStrategy,2023.2.3,Win32,59.52380952,7,2,2,,,,,,,,1,03,,,,,,,,,,,,,1,2.648,1,,,,,,-0.479166667,-0.260416667,1,0,0,2.6485,Andesite_rect,1,0,1,0,1,
663abe859bcc3ea8ef9bbdf3,SCR,2024-06-21_12h51.09.993,LearnStrategy,2023.2.3,Win32,59.52380952,7,2,3,,,,,,,,5,11,,,,,,,,,,,,,5,1.443,1,,,,,,-0.380208333,-0.415364583,1,0,0,1.4435,Obsidian_rect,2,0,2,0,1,
663abe859bcc3ea8ef9bbdf3,SCR,2024-06-21_12h51.09.993,LearnStrategy,2023.2.3,Win32,59.52380952,7,2,4,,,,,,,,2,12,,,,,,,,,,,,,8,4.905,0,,,,,,0.388020833,-0.390625,1,0,0,4.9046,Pumice_rect,3,0,3,0,1,
663abe859bcc3ea8ef9bbdf3,SCR,2024-06-21_12h51.09.993,LearnStrategy,2023.2.3,Win32,59.52380952,7,2,5,,,,,,,,7,06,,,,,,,,,,,,,6,10.098,0,,,,,,-0.208333333,-0.408854167,1,0,0,10.0976,Pegmatite_rect,4,0,4,0,1,
663abe859bcc3ea8ef9bbdf3,SCR,2024-06-21_12h51.09.993,LearnStrategy,2023.2.3,Win32,59.52380952,7,2,6,,,,,,,,8,15,,,,,,,,,,,,,8,2.937,1,,,,,,0.3671875,-0.390625,1,0,0,2.9369,Pumice_rect,5,0,5,0,1,
663abe859bcc3ea8ef9bbdf3,SCR,2024-06-21_12h51.09.993,LearnStrategy,2023.2.3,Win32,59.52380952,7,2,7,,,,,,,,4,14,,,,,,,,,,,,,4,9.334,1,,,,,,0.325520833,-0.236979167,1,0,0,9.3341,Gabbro_rect,6,0,6,0,1,
663abe859bcc3ea8ef9bbdf3,SCR,2024-06-21_12h51.09.993,LearnStrategy,2023.2.3,Win32,59.52380952,7,2,8,,,,,,,,6,16,,,,,,,,,,,,,6,2.906,1,,,,,,-0.194010417,-0.40234375,1,0,0,2.9061,Pegmatite_rect,7,0,7,0,1,
663abe859bcc3ea8ef9bbdf3,SCR,2024-06-21_12h51.09.993,LearnStrategy,2023.2.3,Win32,59.52380952,7,2,9,,,,,,,,8,13,,,,,,,,,,,,,8,3.041,1,,,,,,0.41796875,-0.390625,1,0,0,3.0413,Pumice_rect,8,0,8,0,1,
663abe859bcc3ea8ef9bbdf3,SCR,2024-06-21_12h51.09.993,LearnStrategy,2023.2.3,Win32,59.52380952,7,2,10,,,,,,,,2,10,,,,,,,,,,,,,4,20.422,0,,,,,,0.458333333,-0.251302083,1,0,0,20.4223,Gabbro_rect,9,0,9,0,1,
663abe859bcc3ea8ef9bbdf3,SCR,2024-06-21_12h51.09.993,LearnStrategy,2023.2.3,Win32,59.52380952,7,2,11,,,,,,,,7,12,,,,,,,,,,,,,4,5.799,0,,,,,,0.364583333,-0.26171875,1,0,0,5.7989,Gabbro_rect,10,0,10,0,1,
663abe859bcc3ea8ef9bbdf3,SCR,2024-06-21_12h51.09.993,LearnStrategy,2023.2.3,Win32,59.52380952,7,2,12,,,,,,,,3,08,,,,,,,,,,,,,1,4.113,0,,,,,,-0.321614583,-0.2578125,1,0,0,4.1127,Andesite_rect,11,0,11,0,1,
663abe859bcc3ea8ef9bbdf3,SCR,2024-06-21_12h51.09.993,LearnStrategy,2023.2.3,Win32,59.52380952,7,2,13,,,,,,,,4,01,,,,,,,,,,,,,3,2.921,0,,,,,,0.203125,-0.256510417,1,0,0,2.9208,Diorite_rect,12,0,12,0,1,
663abe859bcc3ea8ef9bbdf3,SCR,2024-06-21_12h51.09.993,LearnStrategy,2023.2.3,Win32,59.52380952,7,2,14,,,,,,,,1,16,,,,,,,,,,,,,1,4.418,1,,,,,,-0.360677083,-0.265625,1,0,0,4.4179,Andesite_rect,13,0,13,0,1,
663abe859bcc3ea8ef9bbdf3,SCR,2024-06-21_12h51.09.993,LearnStrategy,2023.2.3,Win32,59.52380952,7,2,15,,,,,,,,6,11,,,,,,,,,,,,,6,3.103,1,,,,,,-0.11328125,-0.40625,1,0,0,3.1027,Pegmatite_rect,14,0,14,0,1,
663abe859bcc3ea8ef9bbdf3,SCR,2024-06-21_12h51.09.993,LearnStrategy,2023.2.3,Win32,59.52380952,7,2,16,,,,,,,,5,16,,,,,,,,,,,,,5,1.397,1,,,,,,-0.365885417,-0.407552083,1,0,0,1.3972,Obsidian_rect,15,0,15,0,1,
663abe859bcc3ea8ef9bbdf3,SCR,2024-06-21_12h51.09.993,LearnStrategy,2023.2.3,Win32,59.52380952,8,1,1,-0.600260417,0.420572917,1,0,0,2.659,Gabbro_15,4,15,6,1,2.659,4,15,0.196614583,-0.247395833,1,0,0,8.097,Diorite_rect,3,8.097,0,0,0,0,0,1,,,,,,,,,,,,,
663abe859bcc3ea8ef9bbdf3,SCR,2024-06-21_12h51.09.993,LearnStrategy,2023.2.3,Win32,59.52380952,8,1,2,-0.352864583,0.255208333,1,0,0,1.6196,Pegmatite_12,6,12,5,2,1.62,6,12,-0.19140625,-0.37890625,1,0,0,3.0117,Pegmatite_rect,6,3.012,1,1,0,1,0,1,,,,,,,,,,,,,
663abe859bcc3ea8ef9bbdf3,SCR,2024-06-21_12h51.09.993,LearnStrategy,2023.2.3,Win32,59.52380952,8,1,3,0.26953125,-0.114583333,1,0,0,1.4577,Gabbro_11,4,11,3,6,1.458,4,11,0.149739583,-0.255208333,1,0,0,5.021,Diorite_rect,3,5.021,0,2,0,2,0,1,,,,,,,,,,,,,
663abe859bcc3ea8ef9bbdf3,SCR,2024-06-21_12h51.09.993,LearnStrategy,2023.2.3,Win32,59.52380952,8,1,4,0.229166667,0.419270833,1,0,0,1.8115,Diorite_02,3,02,6,6,1.811,3,02,0.104166667,-0.2421875,1,0,0,2.8329,Diorite_rect,3,2.833,1,3,0,3,0,1,,,,,,,,,,,,,
663abe859bcc3ea8ef9bbdf3,SCR,2024-06-21_12h51.09.993,LearnStrategy,2023.2.3,Win32,59.52380952,8,1,5,-0.54296875,-0.412760417,1,0,0,3.7552,Basalt_04,2,04,1,1,3.755,2,04,-0.220052083,-0.240885417,1,0,0,1.4185,Basalt_rect,2,1.419,1,4,0,4,0,1,,,,,,,,,,,,,
663abe859bcc3ea8ef9bbdf3,SCR,2024-06-21_12h51.09.993,LearnStrategy,2023.2.3,Win32,59.52380952,8,1,6,-0.09765625,-0.102864583,1,0,0,1.0962,Diorite_10,3,10,3,4,1.096,3,10,0.084635417,-0.3984375,1,0,0,7.3331,Peridotite_rect,7,7.333,0,5,0,5,0,1,,,,,,,,,,,,,
663abe859bcc3ea8ef9bbdf3,SCR,2024-06-21_12h51.09.993,LearnStrategy,2023.2.3,Win32,59.52380952,8,1,7,0.501302083,-0.403645833,1,0,0,3.1361,Peridotite_04,7,04,1,8,3.136,7,04,0.158854167,-0.407552083,1,0,0,3.8578,Peridotite_rect,7,3.858,1,6,0,6,0,1,,,,,,,,,,,,,
663abe859bcc3ea8ef9bbdf3,SCR,2024-06-21_12h51.09.993,LearnStrategy,2023.2.3,Win32,59.52380952,8,1,8,0.217447917,-0.100260417,1,0,0,1.7257,Gabbro_11,4,11,3,6,1.726,4,11,0.153645833,-0.233072917,1,0,0,2.7736,Diorite_rect,3,2.774,0,7,0,7,0,1,,,,,,,,,,,,,
663abe859bcc3ea8ef9bbdf3,SCR,2024-06-21_12h51.09.993,LearnStrategy,2023.2.3,Win32,59.52380952,8,1,9,-0.0390625,0.266927083,1,0,0,1.9521,Peridotite_05,7,05,5,4,1.952,7,05,0.13671875,-0.263020833,1,0,0,1.4955,Diorite_rect,3,1.495,0,8,0,8,0,1,,,,,,,,,,,,,
663abe859bcc3ea8ef9bbdf3,SCR,2024-06-21_12h51.09.993,LearnStrategy,2023.2.3,Win32,59.52380952,8,1,10,0.240885417,-0.416666667,1,0,0,1.708,Basalt_16,2,16,1,6,1.708,2,16,0.076822917,-0.393229167,1,0,0,7.9484,Peridotite_rect,7,7.948,0,9,0,9,0,1,,,,,,,,,,,,,
663abe859bcc3ea8ef9bbdf3,SCR,2024-06-21_12h51.09.993,LearnStrategy,2023.2.3,Win32,59.52380952,8,1,11,0.40234375,-0.091145833,1,0,0,3.0314,Pumice_10,8,10,3,7,3.031,8,10,0.391927083,-0.403645833,1,0,0,2.6096,Pumice_rect,8,2.61,1,10,0,10,0,1,,,,,,,,,,,,,
663abe859bcc3ea8ef9bbdf3,SCR,2024-06-21_12h51.09.993,LearnStrategy,2023.2.3,Win32,59.52380952,8,1,12,-0.0625,0.252604167,1,0,0,1.3903,Peridotite_05,7,05,5,4,1.39,7,05,0.373697917,-0.256510417,1,0,0,6.4959,Gabbro_rect,4,6.496,0,11,0,11,0,1,,,,,,,,,,,,,
663abe859bcc3ea8ef9bbdf3,SCR,2024-06-21_12h51.09.993,LearnStrategy,2023.2.3,Win32,59.52380952,8,1,13,-0.385416667,-0.072916667,1,0,0,1.3949,Pegmatite_10,6,10,3,2,1.395,6,10,-0.069010417,-0.421875,1,0,0,1.9199,Pegmatite_rect,6,1.92,1,12,0,12,0,1,,,,,,,,,,,,,
663abe859bcc3ea8ef9bbdf3,SCR,2024-06-21_12h51.09.993,LearnStrategy,2023.2.3,Win32,59.52380952,8,1,14,-0.19140625,-0.138020833,1,0,0,1.3281,Andesite_07,1,07,3,3,1.328,1,07,-0.483072917,-0.2578125,1,0,0,1.7399,Andesite_rect,1,1.74,1,13,0,13,0,1,,,,,,,,,,,,,
663abe859bcc3ea8ef9bbdf3,SCR,2024-06-21_12h51.09.993,LearnStrategy,2023.2.3,Win32,59.52380952,8,1,15,0.555989583,0.430989583,1,0,0,1.8522,Andesite_02,1,02,6,8,1.852,1,02,0.147135417,-0.231770833,1,0,0,4.2284,Diorite_rect,3,4.228,0,14,0,14,0,1,,,,,,,,,,,,,
663abe859bcc3ea8ef9bbdf3,SCR,2024-06-21_12h51.09.993,LearnStrategy,2023.2.3,Win32,59.52380952,8,1,16,0.240885417,0.420572917,1,0,0,1.4739,Diorite_02,3,02,6,6,1.474,3,02,0.169270833,-0.25390625,1,0,0,2.1395,Diorite_rect,3,2.14,1,15,0,15,0,1,,,,,,,,,,,,,
663abe859bcc3ea8ef9bbdf3,SCR,2024-06-21_12h51.09.993,LearnStrategy,2023.2.3,Win32,59.52380952,8,2,1,,,,,,,,2,05,,,,,,,,,,,,,2,1.756,1,,,,,,-0.106770833,-0.260416667,1,0,0,1.7556,Basalt_rect,0,0,0,0,1,
663abe859bcc3ea8ef9bbdf3,SCR,2024-06-21_12h51.09.993,LearnStrategy,2023.2.3,Win32,59.52380952,8,2,2,,,,,,,,2,14,,,,,,,,,,,,,8,12.893,0,,,,,,0.403645833,-0.3984375,1,0,0,12.8933,Pumice_rect,1,0,1,0,1,
663abe859bcc3ea8ef9bbdf3,SCR,2024-06-21_12h51.09.993,LearnStrategy,2023.2.3,Win32,59.52380952,8,2,3,,,,,,,,6,08,,,,,,,,,,,,,6,1.521,1,,,,,,-0.213541667,-0.391927083,1,0,0,1.5211,Pegmatite_rect,2,0,2,0,1,
663abe859bcc3ea8ef9bbdf3,SCR,2024-06-21_12h51.09.993,LearnStrategy,2023.2.3,Win32,59.52380952,8,2,4,,,,,,,,4,05,,,,,,,,,,,,,7,5.974,0,,,,,,0.096354167,-0.41015625,1,0,0,5.9742,Peridotite_rect,3,0,3,0,1,
663abe859bcc3ea8ef9bbdf3,SCR,2024-06-21_12h51.09.993,LearnStrategy,2023.2.3,Win32,59.52380952,8,2,5,,,,,,,,1,01,,,,,,,,,,,,,4,3.527,0,,,,,,0.360677083,-0.252604167,1,0,0,3.5269,Gabbro_rect,4,0,4,0,1,
663abe859bcc3ea8ef9bbdf3,SCR,2024-06-21_12h51.09.993,LearnStrategy,2023.2.3,Win32,59.52380952,8,2,6,,,,,,,,7,07,,,,,,,,,,,,,7,10.787,1,,,,,,0.15625,-0.419270833,1,0,0,10.7866,Peridotite_rect,5,0,5,0,1,
663abe859bcc3ea8ef9bbdf3,SCR,2024-06-21_12h51.09.993,LearnStrategy,2023.2.3,Win32,59.52380952,8,2,7,,,,,,,,6,07,,,,,,,,,,,,,6,3.198,1,,,,,,-0.096354167,-0.395833333,1,0,0,3.1982,Pegmatite_rect,6,0,6,0,1,
663abe859bcc3ea8ef9bbdf3,SCR,2024-06-21_12h51.09.993,LearnStrategy,2023.2.3,Win32,59.52380952,8,2,8,,,,,,,,8,08,,,,,,,,,,,,,8,3.039,1,,,,,,0.373697917,-0.395833333,1,0,0,3.0392,Pumice_rect,7,0,7,0,1,
663abe859bcc3ea8ef9bbdf3,SCR,2024-06-21_12h51.09.993,LearnStrategy,2023.2.3,Win32,59.52380952,8,2,9,,,,,,,,7,08,,,,,,,,,,,,,7,14.427,1,,,,,,0.118489583,-0.395833333,1,0,0,14.4267,Peridotite_rect,8,0,8,0,1,
663abe859bcc3ea8ef9bbdf3,SCR,2024-06-21_12h51.09.993,LearnStrategy,2023.2.3,Win32,59.52380952,8,2,10,,,,,,,,8,09,,,,,,,,,,,,,8,1.825,1,,,,,,0.313802083,-0.395833333,1,0,0,1.8247,Pumice_rect,9,0,9,0,1,
663abe859bcc3ea8ef9bbdf3,SCR,2024-06-21_12h51.09.993,LearnStrategy,2023.2.3,Win32,59.52380952,8,2,11,,,,,,,,4,16,,,,,,,,,,,,,4,10.136,1,,,,,,0.423177083,-0.26953125,1,0,0,10.136,Gabbro_rect,10,0,10,0,1,
663abe859bcc3ea8ef9bbdf3,SCR,2024-06-21_12h51.09.993,LearnStrategy,2023.2.3,Win32,59.52380952,8,2,12,,,,,,,,5,10,,,,,,,,,,,,,5,3.198,1,,,,,,-0.348958333,-0.390625,1,0,0,3.1981,Obsidian_rect,11,0,11,0,1,
663abe859bcc3ea8ef9bbdf3,SCR,2024-06-21_12h51.09.993,LearnStrategy,2023.2.3,Win32,59.52380952,8,2,13,,,,,,,,3,14,,,,,,,,,,,,,3,17.143,1,,,,,,0.125,-0.236979167,1,0,0,17.1432,Diorite_rect,12,0,12,0,1,
663abe859bcc3ea8ef9bbdf3,SCR,2024-06-21_12h51.09.993,LearnStrategy,2023.2.3,Win32,59.52380952,8,2,14,,,,,,,,5,08,,,,,,,,,,,,,5,1.683,1,,,,,,-0.479166667,-0.3984375,1,0,0,1.683,Obsidian_rect,13,0,13,0,1,
663abe859bcc3ea8ef9bbdf3,SCR,2024-06-21_12h51.09.993,LearnStrategy,2023.2.3,Win32,59.52380952,8,2,15,,,,,,,,3,13,,,,,,,,,,,,,1,2.636,0,,,,,,-0.453125,-0.25390625,1,0,0,2.6358,Andesite_rect,14,0,14,0,1,
663abe859bcc3ea8ef9bbdf3,SCR,2024-06-21_12h51.09.993,LearnStrategy,2023.2.3,Win32,59.52380952,8,2,16,,,,,,,,1,14,,,,,,,,,,,,,1,10.59,1,,,,,,-0.403645833,-0.256510417,1,0,0,10.5897,Andesite_rect,15,0,15,0,1,
663abe859bcc3ea8ef9bbdf3,SCR,2024-06-21_12h51.09.993,LearnStrategy,2023.2.3,Win32,59.52380952,9,1,1,0.397135417,0.102864583,1,0,0,2.2607,Basalt_09,2,09,4,7,2.261,2,09,-0.127604167,-0.23828125,1,0,0,5.8181,Basalt_rect,2,5.818,1,0,0,0,0,1,,,,,,,,,,,,,
663abe859bcc3ea8ef9bbdf3,SCR,2024-06-21_12h51.09.993,LearnStrategy,2023.2.3,Win32,59.52380952,9,1,2,0.526041667,0.384114583,1,0,0,1.6221,Andesite_02,1,02,6,8,1.622,1,02,-0.428385417,-0.229166667,1,0,0,8.3902,Andesite_rect,1,8.39,1,1,0,1,0,1,,,,,,,,,,,,,
663abe859bcc3ea8ef9bbdf3,SCR,2024-06-21_12h51.09.993,LearnStrategy,2023.2.3,Win32,59.52380952,9,1,3,0.5546875,0.075520833,1,0,0,1.6245,Diorite_09,3,09,4,8,1.624,3,09,0.3359375,-0.243489583,1,0,0,10.5137,Gabbro_rect,4,10.514,0,2,0,2,0,1,,,,,,,,,,,,,
663abe859bcc3ea8ef9bbdf3,SCR,2024-06-21_12h51.09.993,LearnStrategy,2023.2.3,Win32,59.52380952,9,1,4,0.096354167,-0.421875,1,0,0,1.9781,Gabbro_13,4,13,1,5,1.978,4,13,0.311197917,-0.255208333,1,0,0,7.7526,Gabbro_rect,4,7.753,1,3,0,3,0,1,,,,,,,,,,,,,
663abe859bcc3ea8ef9bbdf3,SCR,2024-06-21_12h51.09.993,LearnStrategy,2023.2.3,Win32,59.52380952,9,1,5,-0.252604167,0.419270833,1,0,0,1.6333,Andesite_05,1,05,6,3,1.633,1,05,0.14453125,-0.389322917,1,0,0,6.4611,Peridotite_rect,7,6.461,0,4,0,4,0,1,,,,,,,,,,,,,
663abe859bcc3ea8ef9bbdf3,SCR,2024-06-21_12h51.09.993,LearnStrategy,2023.2.3,Win32,59.52380952,9,1,6,0.265625,-0.397135417,1,0,0,1.6916,Basalt_16,2,16,1,6,1.692,2,16,0.1796875,-0.384114583,1,0,0,5.7865,Peridotite_rect,7,5.786,0,5,0,5,0,1,,,,,,,,,,,,,
663abe859bcc3ea8ef9bbdf3,SCR,2024-06-21_12h51.09.993,LearnStrategy,2023.2.3,Win32,59.52380952,9,1,7,-0.0625,0.25390625,1,0,0,1.3469,Peridotite_05,7,05,5,4,1.347,7,05,0.166666667,-0.255208333,1,0,0,3.807,Diorite_rect,3,3.807,0,6,0,6,0,1,,,,,,,,,,,,,
663abe859bcc3ea8ef9bbdf3,SCR,2024-06-21_12h51.09.993,LearnStrategy,2023.2.3,Win32,59.52380952,9,1,8,0.407552083,0.416666667,1,0,0,1.4715,Pumice_04,8,04,6,7,1.472,8,04,0.4375,-0.384114583,1,0,0,2.7235,Pumice_rect,8,2.724,1,7,0,7,0,1,,,,,,,,,,,,,
663abe859bcc3ea8ef9bbdf3,SCR,2024-06-21_12h51.09.993,LearnStrategy,2023.2.3,Win32,59.52380952,9,1,9,-0.4140625,-0.095052083,1,0,0,1.7569,Pegmatite_10,6,10,3,2,1.757,6,10,-0.19140625,-0.407552083,1,0,0,1.8826,Pegmatite_rect,6,1.883,1,8,0,8,0,1,,,,,,,,,,,,,
663abe859bcc3ea8ef9bbdf3,SCR,2024-06-21_12h51.09.993,LearnStrategy,2023.2.3,Win32,59.52380952,9,1,10,-0.122395833,-0.11328125,1,0,0,1.7593,Diorite_10,3,10,3,4,1.759,3,10,0.126302083,-0.388020833,1,0,0,4.6219,Peridotite_rect,7,4.622,0,9,0,9,0,1,,,,,,,,,,,,,
663abe859bcc3ea8ef9bbdf3,SCR,2024-06-21_12h51.09.993,LearnStrategy,2023.2.3,Win32,59.52380952,9,1,11,-0.201822917,0.095052083,1,0,0,1.6014,Peridotite_16,7,16,4,3,1.601,7,16,-0.09375,-0.403645833,1,0,0,8.5448,Pegmatite_rect,6,8.545,0,10,0,10,0,1,,,,,,,,,,,,,
663abe859bcc3ea8ef9bbdf3,SCR,2024-06-21_12h51.09.993,LearnStrategy,2023.2.3,Win32,59.52380952,9,1,12,0.42578125,-0.251302083,1,0,0,1.351,Diorite_16,3,16,2,7,1.351,3,16,0.143229167,-0.251302083,1,0,0,7.375,Diorite_rect,3,7.375,1,11,0,11,0,1,,,,,,,,,,,,,
663abe859bcc3ea8ef9bbdf3,SCR,2024-06-21_12h51.09.993,LearnStrategy,2023.2.3,Win32,59.52380952,9,1,13,0.21875,-0.095052083,1,0,0,1.1602,Gabbro_11,4,11,3,6,1.16,4,11,0.408854167,-0.244791667,1,0,0,5.3394,Gabbro_rect,4,5.339,1,12,0,12,0,1,,,,,,,,,,,,,
663abe859bcc3ea8ef9bbdf3,SCR,2024-06-21_12h51.09.993,LearnStrategy,2023.2.3,Win32,59.52380952,9,1,14,-0.0390625,0.244791667,1,0,0,0.961,Peridotite_05,7,05,5,4,0.961,7,05,0.0859375,-0.41015625,1,0,0,2.1881,Peridotite_rect,7,2.188,1,13,0,13,0,1,,,,,,,,,,,,,
663abe859bcc3ea8ef9bbdf3,SCR,2024-06-21_12h51.09.993,LearnStrategy,2023.2.3,Win32,59.52380952,9,1,15,0.26171875,-0.2734375,1,0,0,1.6113,Andesite_04,1,04,2,6,1.611,1,04,-0.412760417,-0.234375,1,0,0,4.6023,Andesite_rect,1,4.602,1,14,0,14,0,1,,,,,,,,,,,,,
663abe859bcc3ea8ef9bbdf3,SCR,2024-06-21_12h51.09.993,LearnStrategy,2023.2.3,Win32,59.52380952,9,1,16,-0.579427083,0.4375,1,0,0,1.8736,Gabbro_15,4,15,6,1,1.874,4,15,0.06640625,-0.4140625,1,0,0,12.9063,Peridotite_rect,7,12.906,0,15,0,15,0,1,,,,,,,,,,,,,
663abe859bcc3ea8ef9bbdf3,SCR,2024-06-21_12h51.09.993,LearnStrategy,2023.2.3,Win32,59.52380952,9,2,1,,,,,,,,1,10,,,,,,,,,,,,,3,1.302,0,,,,,,0.080729167,-0.251302083,1,0,0,1.3024,Diorite_rect,0,0,0,0,1,
663abe859bcc3ea8ef9bbdf3,SCR,2024-06-21_12h51.09.993,LearnStrategy,2023.2.3,Win32,59.52380952,9,2,2,,,,,,,,2,01,,,,,,,,,,,,,2,4.337,1,,,,,,-0.239583333,-0.265625,1,0,0,4.3367,Basalt_rect,1,0,1,0,1,
663abe859bcc3ea8ef9bbdf3,SCR,2024-06-21_12h51.09.993,LearnStrategy,2023.2.3,Win32,59.52380952,9,2,3,,,,,,,,5,07,,,,,,,,,,,,,5,1.613,1,,,,,,-0.376302083,-0.391927083,1,0,0,1.6129,Obsidian_rect,2,0,2,0,1,
663abe859bcc3ea8ef9bbdf3,SCR,2024-06-21_12h51.09.993,LearnStrategy,2023.2.3,Win32,59.52380952,9,2,4,,,,,,,,5,06,,,,,,,,,,,,,5,1.817,1,,,,,,-0.43359375,-0.38671875,1,0,0,1.8168,Obsidian_rect,3,0,3,0,1,
663abe859bcc3ea8ef9bbdf3,SCR,2024-06-21_12h51.09.993,LearnStrategy,2023.2.3,Win32,59.52380952,9,2,5,,,,,,,,6,05,,,,,,,,,,,,,6,3.349,1,,,,,,-0.134114583,-0.404947917,1,0,0,3.3492,Pegmatite_rect,4,0,4,0,1,
663abe859bcc3ea8ef9bbdf3,SCR,2024-06-21_12h51.09.993,LearnStrategy,2023.2.3,Win32,59.52380952,9,2,6,,,,,,,,1,06,,,,,,,,,,,,,1,2.321,1,,,,,,-0.354166667,-0.2421875,1,0,0,2.3213,Andesite_rect,5,0,5,0,1,
663abe859bcc3ea8ef9bbdf3,SCR,2024-06-21_12h51.09.993,LearnStrategy,2023.2.3,Win32,59.52380952,9,2,7,,,,,,,,6,09,,,,,,,,,,,,,6,1.761,1,,,,,,-0.080729167,-0.403645833,1,0,0,1.7607,Pegmatite_rect,6,0,6,0,1,
663abe859bcc3ea8ef9bbdf3,SCR,2024-06-21_12h51.09.993,LearnStrategy,2023.2.3,Win32,59.52380952,9,2,8,,,,,,,,4,09,,,,,,,,,,,,,3,12.119,0,,,,,,0.0703125,-0.247395833,1,0,0,12.1185,Diorite_rect,7,0,7,0,1,
663abe859bcc3ea8ef9bbdf3,SCR,2024-06-21_12h51.09.993,LearnStrategy,2023.2.3,Win32,59.52380952,9,2,9,,,,,,,,4,03,,,,,,,,,,,,,7,3.859,0,,,,,,0.049479167,-0.391927083,1,0,0,3.8586,Peridotite_rect,8,0,8,0,1,
663abe859bcc3ea8ef9bbdf3,SCR,2024-06-21_12h51.09.993,LearnStrategy,2023.2.3,Win32,59.52380952,9,2,10,,,,,,,,8,14,,,,,,,,,,,,,8,1.967,1,,,,,,0.333333333,-0.401041667,1,0,0,1.9673,Pumice_rect,9,0,9,0,1,
663abe859bcc3ea8ef9bbdf3,SCR,2024-06-21_12h51.09.993,LearnStrategy,2023.2.3,Win32,59.52380952,9,2,11,,,,,,,,3,12,,,,,,,,,,,,,4,17.019,0,,,,,,0.3203125,-0.25390625,1,0,0,17.0193,Gabbro_rect,10,0,10,0,1,
663abe859bcc3ea8ef9bbdf3,SCR,2024-06-21_12h51.09.993,LearnStrategy,2023.2.3,Win32,59.52380952,9,2,12,,,,,,,,7,02,,,,,,,,,,,,,3,5.035,0,,,,,,0.102864583,-0.256510417,1,0,0,5.0353,Diorite_rect,11,0,11,0,1,
663abe859bcc3ea8ef9bbdf3,SCR,2024-06-21_12h51.09.993,LearnStrategy,2023.2.3,Win32,59.52380952,9,2,13,,,,,,,,3,11,,,,,,,,,,,,,7,3.481,0,,,,,,0.102864583,-0.408854167,1,0,0,3.4805,Peridotite_rect,12,0,12,0,1,
663abe859bcc3ea8ef9bbdf3,SCR,2024-06-21_12h51.09.993,LearnStrategy,2023.2.3,Win32,59.52380952,9,2,14,,,,,,,,2,06,,,,,,,,,,,,,2,1.878,1,,,,,,-0.145833333,-0.236979167,1,0,0,1.8782,Basalt_rect,13,0,13,0,1,
663abe859bcc3ea8ef9bbdf3,SCR,2024-06-21_12h51.09.993,LearnStrategy,2023.2.3,Win32,59.52380952,9,2,15,,,,,,,,8,02,,,,,,,,,,,,,8,2.636,1,,,,,,0.338541667,-0.421875,1,0,0,2.6361,Pumice_rect,14,0,14,0,1,
663abe859bcc3ea8ef9bbdf3,SCR,2024-06-21_12h51.09.993,LearnStrategy,2023.2.3,Win32,59.52380952,9,2,16,,,,,,,,7,13,,,,,,,,,,,,,6,2.65,0,,,,,,-0.084635417,-0.399739583,1,0,0,2.6495,Pegmatite_rect,15,0,15,0,1,
663abe859bcc3ea8ef9bbdf3,SCR,2024-06-21_12h51.09.993,LearnStrategy,2023.2.3,Win32,59.52380952,,,,,,,,,,,,,,,,,,,,,,,,,,,,,,,,,,,,,,,,,,,,,0
663abe859bcc3ea8ef9bbdf3,SCR,2024-06-21_12h51.09.993,LearnStrategy,2023.2.3,Win32,59.52380952,,,,,,,,,,,,,,,,,,,,,,,,,,,,,,,,,,,,,,,,,,,,,
663abe859bcc3ea8ef9bbdf3,SCR,2024-06-21_12h51.09.993,LearnStrategy,2023.2.3,Win32,59.52380952,,,,,,,,,,,2,04,1,1,,,,,,,,,,,,,,,,,,,,,,,,,,,,,,,
663abe859bcc3ea8ef9bbdf3,SCR,2024-06-21_12h51.09.993,LearnStrategy,2023.2.3,Win32,59.52380952,,,,,,,,,,,3,15,1,2,,,,,,,,,,,,,,,,,,,,,,,,,,,,,,,
663abe859bcc3ea8ef9bbdf3,SCR,2024-06-21_12h51.09.993,LearnStrategy,2023.2.3,Win32,59.52380952,,,,,,,,,,,5,02,1,3,,,,,,,,,,,,,,,,,,,,,,,,,,,,,,,
663abe859bcc3ea8ef9bbdf3,SCR,2024-06-21_12h51.09.993,LearnStrategy,2023.2.3,Win32,59.52380952,,,,,,,,,,,7,15,1,4,,,,,,,,,,,,,,,,,,,,,,,,,,,,,,,
663abe859bcc3ea8ef9bbdf3,SCR,2024-06-21_12h51.09.993,LearnStrategy,2023.2.3,Win32,59.52380952,,,,,,,,,,,4,13,1,5,,,,,,,,,,,,,,,,,,,,,,,,,,,,,,,
663abe859bcc3ea8ef9bbdf3,SCR,2024-06-21_12h51.09.993,LearnStrategy,2023.2.3,Win32,59.52380952,,,,,,,,,,,2,16,1,6,,,,,,,,,,,,,,,,,,,,,,,,,,,,,,,
663abe859bcc3ea8ef9bbdf3,SCR,2024-06-21_12h51.09.993,LearnStrategy,2023.2.3,Win32,59.52380952,,,,,,,,,,,7,10,1,7,,,,,,,,,,,,,,,,,,,,,,,,,,,,,,,
663abe859bcc3ea8ef9bbdf3,SCR,2024-06-21_12h51.09.993,LearnStrategy,2023.2.3,Win32,59.52380952,,,,,,,,,,,7,04,1,8,,,,,,,,,,,,,,,,,,,,,,,,,,,,,,,
663abe859bcc3ea8ef9bbdf3,SCR,2024-06-21_12h51.09.993,LearnStrategy,2023.2.3,Win32,59.52380952,,,,,,,,,,,5,04,2,1,,,,,,,,,,,,,,,,,,,,,,,,,,,,,,,
663abe859bcc3ea8ef9bbdf3,SCR,2024-06-21_12h51.09.993,LearnStrategy,2023.2.3,Win32,59.52380952,,,,,,,,,,,2,02,2,2,,,,,,,,,,,,,,,,,,,,,,,,,,,,,,,
663abe859bcc3ea8ef9bbdf3,SCR,2024-06-21_12h51.09.993,LearnStrategy,2023.2.3,Win32,59.52380952,,,,,,,,,,,5,12,2,3,,,,,,,,,,,,,,,,,,,,,,,,,,,,,,,
663abe859bcc3ea8ef9bbdf3,SCR,2024-06-21_12h51.09.993,LearnStrategy,2023.2.3,Win32,59.52380952,,,,,,,,,,,4,12,2,4,,,,,,,,,,,,,,,,,,,,,,,,,,,,,,,
663abe859bcc3ea8ef9bbdf3,SCR,2024-06-21_12h51.09.993,LearnStrategy,2023.2.3,Win32,59.52380952,,,,,,,,,,,5,14,2,5,,,,,,,,,,,,,,,,,,,,,,,,,,,,,,,
663abe859bcc3ea8ef9bbdf3,SCR,2024-06-21_12h51.09.993,LearnStrategy,2023.2.3,Win32,59.52380952,,,,,,,,,,,1,04,2,6,,,,,,,,,,,,,,,,,,,,,,,,,,,,,,,
663abe859bcc3ea8ef9bbdf3,SCR,2024-06-21_12h51.09.993,LearnStrategy,2023.2.3,Win32,59.52380952,,,,,,,,,,,3,16,2,7,,,,,,,,,,,,,,,,,,,,,,,,,,,,,,,
663abe859bcc3ea8ef9bbdf3,SCR,2024-06-21_12h51.09.993,LearnStrategy,2023.2.3,Win32,59.52380952,,,,,,,,,,,3,06,2,8,,,,,,,,,,,,,,,,,,,,,,,,,,,,,,,
663abe859bcc3ea8ef9bbdf3,SCR,2024-06-21_12h51.09.993,LearnStrategy,2023.2.3,Win32,59.52380952,,,,,,,,,,,8,16,3,1,,,,,,,,,,,,,,,,,,,,,,,,,,,,,,,
663abe859bcc3ea8ef9bbdf3,SCR,2024-06-21_12h51.09.993,LearnStrategy,2023.2.3,Win32,59.52380952,,,,,,,,,,,6,10,3,2,,,,,,,,,,,,,,,,,,,,,,,,,,,,,,,
663abe859bcc3ea8ef9bbdf3,SCR,2024-06-21_12h51.09.993,LearnStrategy,2023.2.3,Win32,59.52380952,,,,,,,,,,,1,07,3,3,,,,,,,,,,,,,,,,,,,,,,,,,,,,,,,
663abe859bcc3ea8ef9bbdf3,SCR,2024-06-21_12h51.09.993,LearnStrategy,2023.2.3,Win32,59.52380952,,,,,,,,,,,3,10,3,4,,,,,,,,,,,,,,,,,,,,,,,,,,,,,,,
663abe859bcc3ea8ef9bbdf3,SCR,2024-06-21_12h51.09.993,LearnStrategy,2023.2.3,Win32,59.52380952,,,,,,,,,,,6,06,3,5,,,,,,,,,,,,,,,,,,,,,,,,,,,,,,,
663abe859bcc3ea8ef9bbdf3,SCR,2024-06-21_12h51.09.993,LearnStrategy,2023.2.3,Win32,59.52380952,,,,,,,,,,,4,11,3,6,,,,,,,,,,,,,,,,,,,,,,,,,,,,,,,
663abe859bcc3ea8ef9bbdf3,SCR,2024-06-21_12h51.09.993,LearnStrategy,2023.2.3,Win32,59.52380952,,,,,,,,,,,8,10,3,7,,,,,,,,,,,,,,,,,,,,,,,,,,,,,,,
663abe859bcc3ea8ef9bbdf3,SCR,2024-06-21_12h51.09.993,LearnStrategy,2023.2.3,Win32,59.52380952,,,,,,,,,,,4,10,3,8,,,,,,,,,,,,,,,,,,,,,,,,,,,,,,,
663abe859bcc3ea8ef9bbdf3,SCR,2024-06-21_12h51.09.993,LearnStrategy,2023.2.3,Win32,59.52380952,,,,,,,,,,,8,06,4,1,,,,,,,,,,,,,,,,,,,,,,,,,,,,,,,
663abe859bcc3ea8ef9bbdf3,SCR,2024-06-21_12h51.09.993,LearnStrategy,2023.2.3,Win32,59.52380952,,,,,,,,,,,5,09,4,2,,,,,,,,,,,,,,,,,,,,,,,,,,,,,,,
663abe859bcc3ea8ef9bbdf3,SCR,2024-06-21_12h51.09.993,LearnStrategy,2023.2.3,Win32,59.52380952,,,,,,,,,,,7,16,4,3,,,,,,,,,,,,,,,,,,,,,,,,,,,,,,,
663abe859bcc3ea8ef9bbdf3,SCR,2024-06-21_12h51.09.993,LearnStrategy,2023.2.3,Win32,59.52380952,,,,,,,,,,,6,03,4,4,,,,,,,,,,,,,,,,,,,,,,,,,,,,,,,
663abe859bcc3ea8ef9bbdf3,SCR,2024-06-21_12h51.09.993,LearnStrategy,2023.2.3,Win32,59.52380952,,,,,,,,,,,5,05,4,5,,,,,,,,,,,,,,,,,,,,,,,,,,,,,,,
663abe859bcc3ea8ef9bbdf3,SCR,2024-06-21_12h51.09.993,LearnStrategy,2023.2.3,Win32,59.52380952,,,,,,,,,,,6,15,4,6,,,,,,,,,,,,,,,,,,,,,,,,,,,,,,,
663abe859bcc3ea8ef9bbdf3,SCR,2024-06-21_12h51.09.993,LearnStrategy,2023.2.3,Win32,59.52380952,,,,,,,,,,,2,09,4,7,,,,,,,,,,,,,,,,,,,,,,,,,,,,,,,
663abe859bcc3ea8ef9bbdf3,SCR,2024-06-21_12h51.09.993,LearnStrategy,2023.2.3,Win32,59.52380952,,,,,,,,,,,3,09,4,8,,,,,,,,,,,,,,,,,,,,,,,,,,,,,,,
663abe859bcc3ea8ef9bbdf3,SCR,2024-06-21_12h51.09.993,LearnStrategy,2023.2.3,Win32,59.52380952,,,,,,,,,,,1,11,5,1,,,,,,,,,,,,,,,,,,,,,,,,,,,,,,,
663abe859bcc3ea8ef9bbdf3,SCR,2024-06-21_12h51.09.993,LearnStrategy,2023.2.3,Win32,59.52380952,,,,,,,,,,,6,12,5,2,,,,,,,,,,,,,,,,,,,,,,,,,,,,,,,
663abe859bcc3ea8ef9bbdf3,SCR,2024-06-21_12h51.09.993,LearnStrategy,2023.2.3,Win32,59.52380952,,,,,,,,,,,4,08,5,3,,,,,,,,,,,,,,,,,,,,,,,,,,,,,,,
663abe859bcc3ea8ef9bbdf3,SCR,2024-06-21_12h51.09.993,LearnStrategy,2023.2.3,Win32,59.52380952,,,,,,,,,,,7,05,5,4,,,,,,,,,,,,,,,,,,,,,,,,,,,,,,,
663abe859bcc3ea8ef9bbdf3,SCR,2024-06-21_12h51.09.993,LearnStrategy,2023.2.3,Win32,59.52380952,,,,,,,,,,,2,08,5,5,,,,,,,,,,,,,,,,,,,,,,,,,,,,,,,
663abe859bcc3ea8ef9bbdf3,SCR,2024-06-21_12h51.09.993,LearnStrategy,2023.2.3,Win32,59.52380952,,,,,,,,,,,6,13,5,6,,,,,,,,,,,,,,,,,,,,,,,,,,,,,,,
663abe859bcc3ea8ef9bbdf3,SCR,2024-06-21_12h51.09.993,LearnStrategy,2023.2.3,Win32,59.52380952,,,,,,,,,,,1,09,5,7,,,,,,,,,,,,,,,,,,,,,,,,,,,,,,,
663abe859bcc3ea8ef9bbdf3,SCR,2024-06-21_12h51.09.993,LearnStrategy,2023.2.3,Win32,59.52380952,,,,,,,,,,,2,11,5,8,,,,,,,,,,,,,,,,,,,,,,,,,,,,,,,
663abe859bcc3ea8ef9bbdf3,SCR,2024-06-21_12h51.09.993,LearnStrategy,2023.2.3,Win32,59.52380952,,,,,,,,,,,4,15,6,1,,,,,,,,,,,,,,,,,,,,,,,,,,,,,,,
663abe859bcc3ea8ef9bbdf3,SCR,2024-06-21_12h51.09.993,LearnStrategy,2023.2.3,Win32,59.52380952,,,,,,,,,,,8,03,6,2,,,,,,,,,,,,,,,,,,,,,,,,,,,,,,,
663abe859bcc3ea8ef9bbdf3,SCR,2024-06-21_12h51.09.993,LearnStrategy,2023.2.3,Win32,59.52380952,,,,,,,,,,,1,05,6,3,,,,,,,,,,,,,,,,,,,,,,,,,,,,,,,
663abe859bcc3ea8ef9bbdf3,SCR,2024-06-21_12h51.09.993,LearnStrategy,2023.2.3,Win32,59.52380952,,,,,,,,,,,8,05,6,4,,,,,,,,,,,,,,,,,,,,,,,,,,,,,,,
663abe859bcc3ea8ef9bbdf3,SCR,2024-06-21_12h51.09.993,LearnStrategy,2023.2.3,Win32,59.52380952,,,,,,,,,,,7,14,6,5,,,,,,,,,,,,,,,,,,,,,,,,,,,,,,,
663abe859bcc3ea8ef9bbdf3,SCR,2024-06-21_12h51.09.993,LearnStrategy,2023.2.3,Win32,59.52380952,,,,,,,,,,,3,02,6,6,,,,,,,,,,,,,,,,,,,,,,,,,,,,,,,
663abe859bcc3ea8ef9bbdf3,SCR,2024-06-21_12h51.09.993,LearnStrategy,2023.2.3,Win32,59.52380952,,,,,,,,,,,8,04,6,7,,,,,,,,,,,,,,,,,,,,,,,,,,,,,,,
663abe859bcc3ea8ef9bbdf3,SCR,2024-06-21_12h51.09.993,LearnStrategy,2023.2.3,Win32,59.52380952,,,,,,,,,,,1,02,6,8,,,,,,,,,,,,,,,,,,,,,,,,,,,,,,,