participant,condition,date,expName,psychopyVersion,OS,frameRate,block,phase,trial,learn_mouse_2.x,learn_mouse_2.y,learn_mouse_2.leftButton,learn_mouse_2.midButton,learn_mouse_2.rightButton,learn_mouse_2.time,learn_mouse_2.clicked_name,cat,token,row,col,t_select,cat_mouse_l.x,cat_mouse_l.y,cat_mouse_l.leftButton,cat_mouse_l.midButton,cat_mouse_l.rightButton,cat_mouse_l.time,cat_mouse_l.clicked_name,resp,t_resp,corr,train_trials.thisRepN,train_trials.thisTrialN,train_trials.thisN,train_trials.thisIndex,train_trials.ran,cat_mouse_t.x,cat_mouse_t.y,cat_mouse_t.leftButton,cat_mouse_t.midButton,cat_mouse_t.rightButton,cat_mouse_t.time,cat_mouse_t.clicked_name,test_trials.thisRepN,test_trials.thisTrialN,test_trials.thisN,test_trials.thisIndex,test_trials.ran,Bonus
663d0826decc8dc71e4f6ea7,TCR,2024-06-24_11h43.43.066,LearnStrategy,2023.2.3,Win32,119.047619,,,,,,,,,,,,,,,,,,,,,,,,,,,,,,,,,,,,,,,,,,,
663d0826decc8dc71e4f6ea7,TCR,2024-06-24_11h43.43.066,LearnStrategy,2023.2.3,Win32,119.047619,1,1,1,0.072916667,0.0078125,1,0,0,2.0691,rock_grid_rect_2,7,15,-1,-1,2.069,-0.084635417,-0.235677083,1,0,0,4.2875,Basalt_rect,2,4.287,0,0,0,0,0,1,,,,,,,,,,,,,
663d0826decc8dc71e4f6ea7,TCR,2024-06-24_11h43.43.066,LearnStrategy,2023.2.3,Win32,119.047619,1,1,2,0.016927083,0,1,0,0,2.2546,rock_grid_rect_2,5,11,-1,-1,2.255,-0.364583333,-0.40625,1,0,0,3.1319,Obsidian_rect,5,3.132,1,1,0,1,0,1,,,,,,,,,,,,,
663d0826decc8dc71e4f6ea7,TCR,2024-06-24_11h43.43.066,LearnStrategy,2023.2.3,Win32,119.047619,1,1,3,0.088541667,0.020833333,1,0,0,1.679,rock_grid_rect_2,2,16,-1,-1,1.679,-0.130208333,-0.236979167,1,0,0,5.3107,Basalt_rect,2,5.311,1,2,0,2,0,1,,,,,,,,,,,,,
663d0826decc8dc71e4f6ea7,TCR,2024-06-24_11h43.43.066,LearnStrategy,2023.2.3,Win32,119.047619,1,1,4,0.0625,0.001302083,1,0,0,1.1991,rock_grid_rect_2,6,16,-1,-1,1.199,-0.165364583,-0.40234375,1,0,0,7.6136,Pegmatite_rect,6,7.614,1,3,0,3,0,1,,,,,,,,,,,,,
663d0826decc8dc71e4f6ea7,TCR,2024-06-24_11h43.43.066,LearnStrategy,2023.2.3,Win32,119.047619,1,1,5,-0.018229167,0.010416667,1,0,0,1.0792,rock_grid_rect_2,6,06,-1,-1,1.079,0.390625,-0.247395833,1,0,0,4.9202,Gabbro_rect,4,4.92,0,4,0,4,0,1,,,,,,,,,,,,,
663d0826decc8dc71e4f6ea7,TCR,2024-06-24_11h43.43.066,LearnStrategy,2023.2.3,Win32,119.047619,1,1,6,0.098958333,0.006510417,1,0,0,0.9907,rock_grid_rect_2,4,12,-1,-1,0.991,-0.376302083,-0.236979167,1,0,0,12.7717,Andesite_rect,1,12.772,0,5,0,5,0,1,,,,,,,,,,,,,
663d0826decc8dc71e4f6ea7,TCR,2024-06-24_11h43.43.066,LearnStrategy,2023.2.3,Win32,119.047619,1,1,7,0.026041667,-0.001302083,1,0,0,1.0496,rock_grid_rect_2,3,16,-1,-1,1.05,-0.373697917,-0.26171875,1,0,0,8.4469,Andesite_rect,1,8.447,0,6,0,6,0,1,,,,,,,,,,,,,
663d0826decc8dc71e4f6ea7,TCR,2024-06-24_11h43.43.066,LearnStrategy,2023.2.3,Win32,119.047619,1,1,8,0.0859375,0.005208333,1,0,0,1.0999,rock_grid_rect_2,2,02,-1,-1,1.1,0.412760417,-0.401041667,1,0,0,2.3304,Pumice_rect,8,2.33,0,7,0,7,0,1,,,,,,,,,,,,,
663d0826decc8dc71e4f6ea7,TCR,2024-06-24_11h43.43.066,LearnStrategy,2023.2.3,Win32,119.047619,1,1,9,0.0703125,0.006510417,1,0,0,1.1297,rock_grid_rect_2,8,06,-1,-1,1.13,0.39453125,-0.412760417,1,0,0,3.7126,Pumice_rect,8,3.713,1,8,0,8,0,1,,,,,,,,,,,,,
663d0826decc8dc71e4f6ea7,TCR,2024-06-24_11h43.43.066,LearnStrategy,2023.2.3,Win32,119.047619,1,1,10,0.0234375,0.009114583,1,0,0,1.1551,rock_grid_rect_2,7,16,-1,-1,1.155,0.11328125,-0.265625,1,0,0,10.8845,Diorite_rect,3,10.885,0,9,0,9,0,1,,,,,,,,,,,,,
663d0826decc8dc71e4f6ea7,TCR,2024-06-24_11h43.43.066,LearnStrategy,2023.2.3,Win32,119.047619,1,1,11,0.013020833,-0.001302083,1,0,0,1.2129,rock_grid_rect_2,1,04,-1,-1,1.213,-0.41796875,-0.24609375,1,0,0,5.5756,Andesite_rect,1,5.576,1,10,0,10,0,1,,,,,,,,,,,,,
663d0826decc8dc71e4f6ea7,TCR,2024-06-24_11h43.43.066,LearnStrategy,2023.2.3,Win32,119.047619,1,1,12,0.091145833,-0.014322917,1,0,0,1.0879,rock_grid_rect_2,3,08,-1,-1,1.088,0.127604167,-0.2578125,1,0,0,3.4314,Diorite_rect,3,3.431,1,11,0,11,0,1,,,,,,,,,,,,,
663d0826decc8dc71e4f6ea7,TCR,2024-06-24_11h43.43.066,LearnStrategy,2023.2.3,Win32,119.047619,1,1,13,-0.0078125,-0.010416667,1,0,0,1.1629,rock_grid_rect_2,8,03,-1,-1,1.163,0.37890625,-0.404947917,1,0,0,5.2645,Pumice_rect,8,5.264,1,12,0,12,0,1,,,,,,,,,,,,,
663d0826decc8dc71e4f6ea7,TCR,2024-06-24_11h43.43.066,LearnStrategy,2023.2.3,Win32,119.047619,1,1,14,0.0859375,-0.016927083,1,0,0,1.0372,rock_grid_rect_2,4,05,-1,-1,1.037,0.3515625,-0.239583333,1,0,0,13.3557,Gabbro_rect,4,13.356,1,13,0,13,0,1,,,,,,,,,,,,,
663d0826decc8dc71e4f6ea7,TCR,2024-06-24_11h43.43.066,LearnStrategy,2023.2.3,Win32,119.047619,1,1,15,-0.006510417,-0.01171875,1,0,0,1.1124,rock_grid_rect_2,1,01,-1,-1,1.112,0.1484375,-0.244791667,1,0,0,6.9479,Diorite_rect,3,6.948,0,14,0,14,0,1,,,,,,,,,,,,,
663d0826decc8dc71e4f6ea7,TCR,2024-06-24_11h43.43.066,LearnStrategy,2023.2.3,Win32,119.047619,1,1,16,0.063802083,-0.00390625,1,0,0,1.2091,rock_grid_rect_2,5,02,-1,-1,1.209,-0.427083333,-0.401041667,1,0,0,1.6585,Obsidian_rect,5,1.658,1,15,0,15,0,1,,,,,,,,,,,,,
663d0826decc8dc71e4f6ea7,TCR,2024-06-24_11h43.43.066,LearnStrategy,2023.2.3,Win32,119.047619,1,2,1,,,,,,,,3,10,,,,,,,,,,,3,7.088,1,,,,,,0.153645833,-0.236979167,1,0,0,7.0875,Diorite_rect,0,0,0,0,1,
663d0826decc8dc71e4f6ea7,TCR,2024-06-24_11h43.43.066,LearnStrategy,2023.2.3,Win32,119.047619,1,2,2,,,,,,,,1,02,,,,,,,,,,,1,6.02,1,,,,,,-0.39453125,-0.247395833,1,0,0,6.02,Andesite_rect,1,0,1,0,1,
663d0826decc8dc71e4f6ea7,TCR,2024-06-24_11h43.43.066,LearnStrategy,2023.2.3,Win32,119.047619,1,2,3,,,,,,,,2,04,,,,,,,,,,,2,10.392,1,,,,,,-0.130208333,-0.24609375,1,0,0,10.3923,Basalt_rect,2,0,2,0,1,
663d0826decc8dc71e4f6ea7,TCR,2024-06-24_11h43.43.066,LearnStrategy,2023.2.3,Win32,119.047619,1,2,4,,,,,,,,2,11,,,,,,,,,,,8,2.641,0,,,,,,0.3828125,-0.3984375,1,0,0,2.6407,Pumice_rect,3,0,3,0,1,
663d0826decc8dc71e4f6ea7,TCR,2024-06-24_11h43.43.066,LearnStrategy,2023.2.3,Win32,119.047619,1,2,5,,,,,,,,3,02,,,,,,,,,,,3,4.479,1,,,,,,0.138020833,-0.252604167,1,0,0,4.4789,Diorite_rect,4,0,4,0,1,
663d0826decc8dc71e4f6ea7,TCR,2024-06-24_11h43.43.066,LearnStrategy,2023.2.3,Win32,119.047619,1,2,6,,,,,,,,4,15,,,,,,,,,,,4,3.738,1,,,,,,0.384114583,-0.24609375,1,0,0,3.7379,Gabbro_rect,5,0,5,0,1,
663d0826decc8dc71e4f6ea7,TCR,2024-06-24_11h43.43.066,LearnStrategy,2023.2.3,Win32,119.047619,1,2,7,,,,,,,,7,08,,,,,,,,,,,4,9.634,0,,,,,,0.411458333,-0.23046875,1,0,0,9.6343,Gabbro_rect,6,0,6,0,1,
663d0826decc8dc71e4f6ea7,TCR,2024-06-24_11h43.43.066,LearnStrategy,2023.2.3,Win32,119.047619,1,2,8,,,,,,,,8,16,,,,,,,,,,,8,1.458,1,,,,,,0.444010417,-0.399739583,1,0,0,1.4579,Pumice_rect,7,0,7,0,1,
663d0826decc8dc71e4f6ea7,TCR,2024-06-24_11h43.43.066,LearnStrategy,2023.2.3,Win32,119.047619,1,2,9,,,,,,,,8,13,,,,,,,,,,,8,4.253,1,,,,,,0.39453125,-0.3984375,1,0,0,4.253,Pumice_rect,8,0,8,0,1,
663d0826decc8dc71e4f6ea7,TCR,2024-06-24_11h43.43.066,LearnStrategy,2023.2.3,Win32,119.047619,1,2,10,,,,,,,,6,11,,,,,,,,,,,3,3.796,0,,,,,,0.147135417,-0.236979167,1,0,0,3.7956,Diorite_rect,9,0,9,0,1,
663d0826decc8dc71e4f6ea7,TCR,2024-06-24_11h43.43.066,LearnStrategy,2023.2.3,Win32,119.047619,1,2,11,,,,,,,,6,08,,,,,,,,,,,3,1.606,0,,,,,,0.141927083,-0.25,1,0,0,1.6063,Diorite_rect,10,0,10,0,1,
663d0826decc8dc71e4f6ea7,TCR,2024-06-24_11h43.43.066,LearnStrategy,2023.2.3,Win32,119.047619,1,2,12,,,,,,,,5,06,,,,,,,,,,,5,3.58,1,,,,,,-0.375,-0.389322917,1,0,0,3.5804,Obsidian_rect,11,0,11,0,1,
663d0826decc8dc71e4f6ea7,TCR,2024-06-24_11h43.43.066,LearnStrategy,2023.2.3,Win32,119.047619,1,2,13,,,,,,,,7,14,,,,,,,,,,,6,4.423,0,,,,,,-0.123697917,-0.401041667,1,0,0,4.4229,Pegmatite_rect,12,0,12,0,1,
663d0826decc8dc71e4f6ea7,TCR,2024-06-24_11h43.43.066,LearnStrategy,2023.2.3,Win32,119.047619,1,2,14,,,,,,,,5,04,,,,,,,,,,,5,1.218,1,,,,,,-0.424479167,-0.411458333,1,0,0,1.2177,Obsidian_rect,13,0,13,0,1,
663d0826decc8dc71e4f6ea7,TCR,2024-06-24_11h43.43.066,LearnStrategy,2023.2.3,Win32,119.047619,1,2,15,,,,,,,,1,10,,,,,,,,,,,7,9.013,0,,,,,,0.154947917,-0.41015625,1,0,0,9.0134,Peridotite_rect,14,0,14,0,1,
663d0826decc8dc71e4f6ea7,TCR,2024-06-24_11h43.43.066,LearnStrategy,2023.2.3,Win32,119.047619,1,2,16,,,,,,,,4,03,,,,,,,,,,,7,5.386,0,,,,,,0.08984375,-0.395833333,1,0,0,5.3862,Peridotite_rect,15,0,15,0,1,
663d0826decc8dc71e4f6ea7,TCR,2024-06-24_11h43.43.066,LearnStrategy,2023.2.3,Win32,119.047619,2,1,1,0.065104167,0.010416667,1,0,0,1.4708,rock_grid_rect_2,3,16,-1,-1,1.471,0.141927083,-0.252604167,1,0,0,13.8453,Diorite_rect,3,13.845,1,0,0,0,0,1,,,,,,,,,,,,,
663d0826decc8dc71e4f6ea7,TCR,2024-06-24_11h43.43.066,LearnStrategy,2023.2.3,Win32,119.047619,2,1,2,0.059895833,-0.01171875,1,0,0,1.1711,rock_grid_rect_2,7,15,-1,-1,1.171,0.053385417,-0.397135417,1,0,0,12.7815,Peridotite_rect,7,12.782,1,1,0,1,0,1,,,,,,,,,,,,,
663d0826decc8dc71e4f6ea7,TCR,2024-06-24_11h43.43.066,LearnStrategy,2023.2.3,Win32,119.047619,2,1,3,0.08984375,0.018229167,1,0,0,0.9913,rock_grid_rect_2,4,11,-1,-1,0.991,-0.12890625,-0.236979167,1,0,0,12.8648,Basalt_rect,2,12.865,0,2,0,2,0,1,,,,,,,,,,,,,
663d0826decc8dc71e4f6ea7,TCR,2024-06-24_11h43.43.066,LearnStrategy,2023.2.3,Win32,119.047619,2,1,4,0.06640625,0,1,0,0,1.3301,rock_grid_rect_2,7,02,-1,-1,1.33,-0.399739583,-0.24609375,1,0,0,14.461,Andesite_rect,1,14.461,0,3,0,3,0,1,,,,,,,,,,,,,
663d0826decc8dc71e4f6ea7,TCR,2024-06-24_11h43.43.066,LearnStrategy,2023.2.3,Win32,119.047619,2,1,5,0.076822917,-0.006510417,1,0,0,1.1417,rock_grid_rect_2,8,06,-1,-1,1.142,0.408854167,-0.395833333,1,0,0,4.2304,Pumice_rect,8,4.23,1,4,0,4,0,1,,,,,,,,,,,,,
663d0826decc8dc71e4f6ea7,TCR,2024-06-24_11h43.43.066,LearnStrategy,2023.2.3,Win32,119.047619,2,1,6,0.091145833,-0.006510417,1,0,0,1.0955,rock_grid_rect_2,4,14,-1,-1,1.096,0.401041667,-0.248697917,1,0,0,3.3369,Gabbro_rect,4,3.337,1,5,0,5,0,1,,,,,,,,,,,,,
663d0826decc8dc71e4f6ea7,TCR,2024-06-24_11h43.43.066,LearnStrategy,2023.2.3,Win32,119.047619,2,1,7,0.044270833,-0.00390625,1,0,0,1.3631,rock_grid_rect_2,2,16,-1,-1,1.363,-0.143229167,-0.233072917,1,0,0,9.9411,Basalt_rect,2,9.941,1,6,0,6,0,1,,,,,,,,,,,,,
663d0826decc8dc71e4f6ea7,TCR,2024-06-24_11h43.43.066,LearnStrategy,2023.2.3,Win32,119.047619,2,1,8,0.09375,0.015625,1,0,0,0.8969,rock_grid_rect_2,1,05,-1,-1,0.897,0.10546875,-0.393229167,1,0,0,14.8757,Peridotite_rect,7,14.876,0,7,0,7,0,1,,,,,,,,,,,,,
663d0826decc8dc71e4f6ea7,TCR,2024-06-24_11h43.43.066,LearnStrategy,2023.2.3,Win32,119.047619,2,1,9,0.032552083,-0.001302083,1,0,0,0.9326,rock_grid_rect_2,6,09,-1,-1,0.933,-0.368489583,-0.243489583,1,0,0,4.9014,Andesite_rect,1,4.901,0,8,0,8,0,1,,,,,,,,,,,,,
663d0826decc8dc71e4f6ea7,TCR,2024-06-24_11h43.43.066,LearnStrategy,2023.2.3,Win32,119.047619,2,1,10,0.0390625,0.00390625,1,0,0,1.2909,rock_grid_rect_2,7,02,-1,-1,1.291,0.126302083,-0.236979167,1,0,0,11.0591,Diorite_rect,3,11.059,0,9,0,9,0,1,,,,,,,,,,,,,
663d0826decc8dc71e4f6ea7,TCR,2024-06-24_11h43.43.066,LearnStrategy,2023.2.3,Win32,119.047619,2,1,11,0.046875,-0.010416667,1,0,0,0.8802,rock_grid_rect_2,7,05,-1,-1,0.88,0.15234375,-0.40625,1,0,0,21.9326,Peridotite_rect,7,21.933,1,10,0,10,0,1,,,,,,,,,,,,,
663d0826decc8dc71e4f6ea7,TCR,2024-06-24_11h43.43.066,LearnStrategy,2023.2.3,Win32,119.047619,2,1,12,0.061197917,0.0078125,1,0,0,1.2043,rock_grid_rect_2,6,09,-1,-1,1.204,-0.139322917,-0.397135417,1,0,0,3.5468,Pegmatite_rect,6,3.547,1,11,0,11,0,1,,,,,,,,,,,,,
663d0826decc8dc71e4f6ea7,TCR,2024-06-24_11h43.43.066,LearnStrategy,2023.2.3,Win32,119.047619,2,1,13,-0.032552083,-0.024739583,1,0,0,0.9892,rock_grid_rect_2,6,15,-1,-1,0.989,-0.149739583,-0.395833333,1,0,0,4.2462,Pegmatite_rect,6,4.246,1,12,0,12,0,1,,,,,,,,,,,,,
663d0826decc8dc71e4f6ea7,TCR,2024-06-24_11h43.43.066,LearnStrategy,2023.2.3,Win32,119.047619,2,1,14,0.024739583,0.013020833,1,0,0,0.9559,rock_grid_rect_2,6,06,-1,-1,0.956,0.162760417,-0.41796875,1,0,0,9.7033,Peridotite_rect,7,9.703,0,13,0,13,0,1,,,,,,,,,,,,,
663d0826decc8dc71e4f6ea7,TCR,2024-06-24_11h43.43.066,LearnStrategy,2023.2.3,Win32,119.047619,2,1,15,0.053385417,-0.014322917,1,0,0,0.9553,rock_grid_rect_2,1,04,-1,-1,0.955,-0.408854167,-0.235677083,1,0,0,4.3294,Andesite_rect,1,4.329,1,14,0,14,0,1,,,,,,,,,,,,,
663d0826decc8dc71e4f6ea7,TCR,2024-06-24_11h43.43.066,LearnStrategy,2023.2.3,Win32,119.047619,2,1,16,0.111979167,-0.005208333,1,0,0,0.9809,rock_grid_rect_2,2,12,-1,-1,0.981,0.42578125,-0.4140625,1,0,0,2.2926,Pumice_rect,8,2.293,0,15,0,15,0,1,,,,,,,,,,,,,
663d0826decc8dc71e4f6ea7,TCR,2024-06-24_11h43.43.066,LearnStrategy,2023.2.3,Win32,119.047619,2,2,1,,,,,,,,4,01,,,,,,,,,,,3,30.475,0,,,,,,0.140625,-0.23046875,1,0,0,30.4753,Diorite_rect,0,0,0,0,1,
663d0826decc8dc71e4f6ea7,TCR,2024-06-24_11h43.43.066,LearnStrategy,2023.2.3,Win32,119.047619,2,2,2,,,,,,,,4,09,,,,,,,,,,,2,13.388,0,,,,,,-0.16015625,-0.233072917,1,0,0,13.3882,Basalt_rect,1,0,1,0,1,
663d0826decc8dc71e4f6ea7,TCR,2024-06-24_11h43.43.066,LearnStrategy,2023.2.3,Win32,119.047619,2,2,3,,,,,,,,2,08,,,,,,,,,,,2,10.318,1,,,,,,-0.135416667,-0.239583333,1,0,0,10.3176,Basalt_rect,2,0,2,0,1,
663d0826decc8dc71e4f6ea7,TCR,2024-06-24_11h43.43.066,LearnStrategy,2023.2.3,Win32,119.047619,2,2,4,,,,,,,,5,07,,,,,,,,,,,5,3.727,1,,,,,,-0.3515625,-0.391927083,1,0,0,3.7274,Obsidian_rect,3,0,3,0,1,
663d0826decc8dc71e4f6ea7,TCR,2024-06-24_11h43.43.066,LearnStrategy,2023.2.3,Win32,119.047619,2,2,5,,,,,,,,1,07,,,,,,,,,,,1,4.779,1,,,,,,-0.334635417,-0.244791667,1,0,0,4.7789,Andesite_rect,4,0,4,0,1,
663d0826decc8dc71e4f6ea7,TCR,2024-06-24_11h43.43.066,LearnStrategy,2023.2.3,Win32,119.047619,2,2,6,,,,,,,,6,10,,,,,,,,,,,6,9.726,1,,,,,,-0.1171875,-0.397135417,1,0,0,9.7261,Pegmatite_rect,5,0,5,0,1,
663d0826decc8dc71e4f6ea7,TCR,2024-06-24_11h43.43.066,LearnStrategy,2023.2.3,Win32,119.047619,2,2,7,,,,,,,,8,15,,,,,,,,,,,8,2.248,1,,,,,,0.403645833,-0.38671875,1,0,0,2.2479,Pumice_rect,6,0,6,0,1,
663d0826decc8dc71e4f6ea7,TCR,2024-06-24_11h43.43.066,LearnStrategy,2023.2.3,Win32,119.047619,2,2,8,,,,,,,,7,10,,,,,,,,,,,1,10.485,0,,,,,,-0.385416667,-0.251302083,1,0,0,10.485,Andesite_rect,7,0,7,0,1,
663d0826decc8dc71e4f6ea7,TCR,2024-06-24_11h43.43.066,LearnStrategy,2023.2.3,Win32,119.047619,2,2,9,,,,,,,,6,05,,,,,,,,,,,3,6.425,0,,,,,,0.067708333,-0.244791667,1,0,0,6.4253,Diorite_rect,8,0,8,0,1,
663d0826decc8dc71e4f6ea7,TCR,2024-06-24_11h43.43.066,LearnStrategy,2023.2.3,Win32,119.047619,2,2,10,,,,,,,,2,01,,,,,,,,,,,2,6.017,1,,,,,,-0.118489583,-0.243489583,1,0,0,6.0168,Basalt_rect,9,0,9,0,1,
663d0826decc8dc71e4f6ea7,TCR,2024-06-24_11h43.43.066,LearnStrategy,2023.2.3,Win32,119.047619,2,2,11,,,,,,,,5,05,,,,,,,,,,,5,1.62,1,,,,,,-0.384114583,-0.388020833,1,0,0,1.6203,Obsidian_rect,10,0,10,0,1,
663d0826decc8dc71e4f6ea7,TCR,2024-06-24_11h43.43.066,LearnStrategy,2023.2.3,Win32,119.047619,2,2,12,,,,,,,,7,06,,,,,,,,,,,7,8.405,1,,,,,,0.170572917,-0.403645833,1,0,0,8.4051,Peridotite_rect,11,0,11,0,1,
663d0826decc8dc71e4f6ea7,TCR,2024-06-24_11h43.43.066,LearnStrategy,2023.2.3,Win32,119.047619,2,2,13,,,,,,,,8,08,,,,,,,,,,,8,10.468,1,,,,,,0.438802083,-0.404947917,1,0,0,10.4683,Pumice_rect,12,0,12,0,1,
663d0826decc8dc71e4f6ea7,TCR,2024-06-24_11h43.43.066,LearnStrategy,2023.2.3,Win32,119.047619,2,2,14,,,,,,,,3,06,,,,,,,,,,,4,3.647,0,,,,,,0.395833333,-0.260416667,1,0,0,3.6471,Gabbro_rect,13,0,13,0,1,
663d0826decc8dc71e4f6ea7,TCR,2024-06-24_11h43.43.066,LearnStrategy,2023.2.3,Win32,119.047619,2,2,15,,,,,,,,1,14,,,,,,,,,,,3,2.962,0,,,,,,0.109375,-0.25,1,0,0,2.9623,Diorite_rect,14,0,14,0,1,
663d0826decc8dc71e4f6ea7,TCR,2024-06-24_11h43.43.066,LearnStrategy,2023.2.3,Win32,119.047619,2,2,16,,,,,,,,3,09,,,,,,,,,,,3,2.758,1,,,,,,0.109375,-0.25,1,0,0,2.7582,Diorite_rect,15,0,15,0,1,
663d0826decc8dc71e4f6ea7,TCR,2024-06-24_11h43.43.066,LearnStrategy,2023.2.3,Win32,119.047619,3,1,1,0.05078125,-0.009114583,1,0,0,1.1631,rock_grid_rect_2,6,15,-1,-1,1.163,-0.10546875,-0.391927083,1,0,0,11.4504,Pegmatite_rect,6,11.45,1,0,0,0,0,1,,,,,,,,,,,,,
663d0826decc8dc71e4f6ea7,TCR,2024-06-24_11h43.43.066,LearnStrategy,2023.2.3,Win32,119.047619,3,1,2,0.078125,0.01171875,1,0,0,1.4297,rock_grid_rect_2,7,16,-1,-1,1.43,0.14453125,-0.403645833,1,0,0,31.349,Peridotite_rect,7,31.349,1,1,0,1,0,1,,,,,,,,,,,,,
663d0826decc8dc71e4f6ea7,TCR,2024-06-24_11h43.43.066,LearnStrategy,2023.2.3,Win32,119.047619,3,1,3,0.078125,-0.006510417,1,0,0,0.9804,rock_grid_rect_2,6,12,-1,-1,0.98,0.122395833,-0.234375,1,0,0,6.8344,Diorite_rect,3,6.834,0,2,0,2,0,1,,,,,,,,,,,,,
663d0826decc8dc71e4f6ea7,TCR,2024-06-24_11h43.43.066,LearnStrategy,2023.2.3,Win32,119.047619,3,1,4,0.05859375,-0.005208333,1,0,0,1.0246,rock_grid_rect_2,8,05,-1,-1,1.025,0.446614583,-0.37890625,1,0,0,1.4144,Pumice_rect,8,1.414,1,3,0,3,0,1,,,,,,,,,,,,,
663d0826decc8dc71e4f6ea7,TCR,2024-06-24_11h43.43.066,LearnStrategy,2023.2.3,Win32,119.047619,3,1,5,0.087239583,-0.005208333,1,0,0,1.7709,rock_grid_rect_2,1,05,-1,-1,1.771,-0.473958333,-0.252604167,1,0,0,2.4636,Andesite_rect,1,2.464,1,4,0,4,0,1,,,,,,,,,,,,,
663d0826decc8dc71e4f6ea7,TCR,2024-06-24_11h43.43.066,LearnStrategy,2023.2.3,Win32,119.047619,3,1,6,0.075520833,-0.006510417,1,0,0,1.0051,rock_grid_rect_2,3,16,-1,-1,1.005,0.145833333,-0.252604167,1,0,0,3.2219,Diorite_rect,3,3.222,1,5,0,5,0,1,,,,,,,,,,,,,
663d0826decc8dc71e4f6ea7,TCR,2024-06-24_11h43.43.066,LearnStrategy,2023.2.3,Win32,119.047619,3,1,7,0.044270833,0.001302083,1,0,0,0.9552,rock_grid_rect_2,4,12,-1,-1,0.955,0.412760417,-0.23828125,1,0,0,3.2726,Gabbro_rect,4,3.273,1,6,0,6,0,1,,,,,,,,,,,,,
663d0826decc8dc71e4f6ea7,TCR,2024-06-24_11h43.43.066,LearnStrategy,2023.2.3,Win32,119.047619,3,1,8,0.08203125,0.020833333,1,0,0,1.259,rock_grid_rect_2,7,04,-1,-1,1.259,0.14453125,-0.234375,1,0,0,3.6143,Diorite_rect,3,3.614,0,7,0,7,0,1,,,,,,,,,,,,,
663d0826decc8dc71e4f6ea7,TCR,2024-06-24_11h43.43.066,LearnStrategy,2023.2.3,Win32,119.047619,3,1,9,0.05859375,0.001302083,1,0,0,1.4244,rock_grid_rect_2,3,12,-1,-1,1.424,0.16015625,-0.240885417,1,0,0,2.2709,Diorite_rect,3,2.271,1,8,0,8,0,1,,,,,,,,,,,,,
663d0826decc8dc71e4f6ea7,TCR,2024-06-24_11h43.43.066,LearnStrategy,2023.2.3,Win32,119.047619,3,1,10,0.09765625,-0.005208333,1,0,0,0.9726,rock_grid_rect_2,1,01,-1,-1,0.973,0.13671875,-0.404947917,1,0,0,18.2059,Peridotite_rect,7,18.206,0,9,0,9,0,1,,,,,,,,,,,,,
663d0826decc8dc71e4f6ea7,TCR,2024-06-24_11h43.43.066,LearnStrategy,2023.2.3,Win32,119.047619,3,1,11,0.09765625,-0.0078125,1,0,0,1.0556,rock_grid_rect_2,4,16,-1,-1,1.056,0.15234375,-0.403645833,1,0,0,9.5289,Peridotite_rect,7,9.529,0,10,0,10,0,1,,,,,,,,,,,,,
663d0826decc8dc71e4f6ea7,TCR,2024-06-24_11h43.43.066,LearnStrategy,2023.2.3,Win32,119.047619,3,1,12,0.065104167,-0.005208333,1,0,0,0.9913,rock_grid_rect_2,7,12,-1,-1,0.991,0.141927083,-0.234375,1,0,0,13.0387,Diorite_rect,3,13.039,0,11,0,11,0,1,,,,,,,,,,,,,
663d0826decc8dc71e4f6ea7,TCR,2024-06-24_11h43.43.066,LearnStrategy,2023.2.3,Win32,119.047619,3,1,13,0.009114583,-0.020833333,1,0,0,0.7723,rock_grid_rect_2,4,16,-1,-1,0.772,0.3828125,-0.2421875,1,0,0,2.4901,Gabbro_rect,4,2.49,1,12,0,12,0,1,,,,,,,,,,,,,
663d0826decc8dc71e4f6ea7,TCR,2024-06-24_11h43.43.066,LearnStrategy,2023.2.3,Win32,119.047619,3,1,14,0.08984375,0.006510417,1,0,0,1.1888,rock_grid_rect_2,4,13,-1,-1,1.189,0.135416667,-0.240885417,1,0,0,27.5937,Diorite_rect,3,27.594,0,13,0,13,0,1,,,,,,,,,,,,,
663d0826decc8dc71e4f6ea7,TCR,2024-06-24_11h43.43.066,LearnStrategy,2023.2.3,Win32,119.047619,3,1,15,0.12109375,-0.010416667,1,0,0,1.1788,rock_grid_rect_2,6,12,-1,-1,1.179,-0.111979167,-0.407552083,1,0,0,5.0093,Pegmatite_rect,6,5.009,1,14,0,14,0,1,,,,,,,,,,,,,
663d0826decc8dc71e4f6ea7,TCR,2024-06-24_11h43.43.066,LearnStrategy,2023.2.3,Win32,119.047619,3,1,16,0.071614583,-0.0078125,1,0,0,1.055,rock_grid_rect_2,2,09,-1,-1,1.055,-0.106770833,-0.24609375,1,0,0,12.9787,Basalt_rect,2,12.979,1,15,0,15,0,1,,,,,,,,,,,,,
663d0826decc8dc71e4f6ea7,TCR,2024-06-24_11h43.43.066,LearnStrategy,2023.2.3,Win32,119.047619,3,2,1,,,,,,,,6,07,,,,,,,,,,,6,13.173,1,,,,,,-0.149739583,-0.393229167,1,0,0,13.1728,Pegmatite_rect,0,0,0,0,1,
663d0826decc8dc71e4f6ea7,TCR,2024-06-24_11h43.43.066,LearnStrategy,2023.2.3,Win32,119.047619,3,2,2,,,,,,,,8,09,,,,,,,,,,,8,1.509,1,,,,,,0.404947917,-0.393229167,1,0,0,1.5086,Pumice_rect,1,0,1,0,1,
663d0826decc8dc71e4f6ea7,TCR,2024-06-24_11h43.43.066,LearnStrategy,2023.2.3,Win32,119.047619,3,2,3,,,,,,,,1,06,,,,,,,,,,,3,16.259,0,,,,,,0.162760417,-0.25,1,0,0,16.2588,Diorite_rect,2,0,2,0,1,
663d0826decc8dc71e4f6ea7,TCR,2024-06-24_11h43.43.066,LearnStrategy,2023.2.3,Win32,119.047619,3,2,4,,,,,,,,1,11,,,,,,,,,,,7,15.34,0,,,,,,0.165364583,-0.41015625,1,0,0,15.3401,Peridotite_rect,3,0,3,0,1,
663d0826decc8dc71e4f6ea7,TCR,2024-06-24_11h43.43.066,LearnStrategy,2023.2.3,Win32,119.047619,3,2,5,,,,,,,,7,13,,,,,,,,,,,4,3.945,0,,,,,,0.399739583,-0.23046875,1,0,0,3.9447,Gabbro_rect,4,0,4,0,1,
663d0826decc8dc71e4f6ea7,TCR,2024-06-24_11h43.43.066,LearnStrategy,2023.2.3,Win32,119.047619,3,2,6,,,,,,,,3,11,,,,,,,,,,,3,6.078,1,,,,,,0.169270833,-0.243489583,1,0,0,6.0785,Diorite_rect,5,0,5,0,1,
663d0826decc8dc71e4f6ea7,TCR,2024-06-24_11h43.43.066,LearnStrategy,2023.2.3,Win32,119.047619,3,2,7,,,,,,,,2,10,,,,,,,,,,,4,9.057,0,,,,,,0.444010417,-0.233072917,1,0,0,9.0566,Gabbro_rect,6,0,6,0,1,
663d0826decc8dc71e4f6ea7,TCR,2024-06-24_11h43.43.066,LearnStrategy,2023.2.3,Win32,119.047619,3,2,8,,,,,,,,7,07,,,,,,,,,,,1,10.604,0,,,,,,-0.41796875,-0.233072917,1,0,0,10.6044,Andesite_rect,7,0,7,0,1,
663d0826decc8dc71e4f6ea7,TCR,2024-06-24_11h43.43.066,LearnStrategy,2023.2.3,Win32,119.047619,3,2,9,,,,,,,,2,14,,,,,,,,,,,4,10.619,0,,,,,,0.444010417,-0.234375,1,0,0,10.6185,Gabbro_rect,8,0,8,0,1,
663d0826decc8dc71e4f6ea7,TCR,2024-06-24_11h43.43.066,LearnStrategy,2023.2.3,Win32,119.047619,3,2,10,,,,,,,,6,03,,,,,,,,,,,6,1.734,1,,,,,,-0.079427083,-0.40625,1,0,0,1.7337,Pegmatite_rect,9,0,9,0,1,
663d0826decc8dc71e4f6ea7,TCR,2024-06-24_11h43.43.066,LearnStrategy,2023.2.3,Win32,119.047619,3,2,11,,,,,,,,4,10,,,,,,,,,,,4,3.321,1,,,,,,0.3828125,-0.243489583,1,0,0,3.3208,Gabbro_rect,10,0,10,0,1,
663d0826decc8dc71e4f6ea7,TCR,2024-06-24_11h43.43.066,LearnStrategy,2023.2.3,Win32,119.047619,3,2,12,,,,,,,,5,16,,,,,,,,,,,5,1.509,1,,,,,,-0.359375,-0.39453125,1,0,0,1.509,Obsidian_rect,11,0,11,0,1,
663d0826decc8dc71e4f6ea7,TCR,2024-06-24_11h43.43.066,LearnStrategy,2023.2.3,Win32,119.047619,3,2,13,,,,,,,,8,14,,,,,,,,,,,8,1.285,1,,,,,,0.415364583,-0.404947917,1,0,0,1.2846,Pumice_rect,12,0,12,0,1,
663d0826decc8dc71e4f6ea7,TCR,2024-06-24_11h43.43.066,LearnStrategy,2023.2.3,Win32,119.047619,3,2,14,,,,,,,,3,15,,,,,,,,,,,3,8.156,1,,,,,,0.096354167,-0.248697917,1,0,0,8.1564,Diorite_rect,13,0,13,0,1,
663d0826decc8dc71e4f6ea7,TCR,2024-06-24_11h43.43.066,LearnStrategy,2023.2.3,Win32,119.047619,3,2,15,,,,,,,,5,12,,,,,,,,,,,5,2.262,1,,,,,,-0.4296875,-0.40234375,1,0,0,2.2615,Obsidian_rect,14,0,14,0,1,
663d0826decc8dc71e4f6ea7,TCR,2024-06-24_11h43.43.066,LearnStrategy,2023.2.3,Win32,119.047619,3,2,16,,,,,,,,4,08,,,,,,,,,,,7,19.61,0,,,,,,0.166666667,-0.3828125,1,0,0,19.6099,Peridotite_rect,15,0,15,0,1,
663d0826decc8dc71e4f6ea7,TCR,2024-06-24_11h43.43.066,LearnStrategy,2023.2.3,Win32,119.047619,4,1,1,0.052083333,-0.005208333,1,0,0,1.2385,rock_grid_rect_2,2,05,-1,-1,1.239,-0.095052083,-0.23828125,1,0,0,14.4546,Basalt_rect,2,14.455,1,0,0,0,0,1,,,,,,,,,,,,,
663d0826decc8dc71e4f6ea7,TCR,2024-06-24_11h43.43.066,LearnStrategy,2023.2.3,Win32,119.047619,4,1,2,0.063802083,0.015625,1,0,0,1.0882,rock_grid_rect_2,3,13,-1,-1,1.088,0.131510417,-0.239583333,1,0,0,3.1981,Diorite_rect,3,3.198,1,1,0,1,0,1,,,,,,,,,,,,,
663d0826decc8dc71e4f6ea7,TCR,2024-06-24_11h43.43.066,LearnStrategy,2023.2.3,Win32,119.047619,4,1,3,0.059895833,0.010416667,1,0,0,0.9297,rock_grid_rect_2,1,05,-1,-1,0.93,-0.43359375,-0.234375,1,0,0,1.8267,Andesite_rect,1,1.827,1,2,0,2,0,1,,,,,,,,,,,,,
663d0826decc8dc71e4f6ea7,TCR,2024-06-24_11h43.43.066,LearnStrategy,2023.2.3,Win32,119.047619,4,1,4,-0.04296875,-0.0078125,1,0,0,0.9805,rock_grid_rect_2,6,15,-1,-1,0.981,-0.125,-0.403645833,1,0,0,1.3259,Pegmatite_rect,6,1.326,1,3,0,3,0,1,,,,,,,,,,,,,
663d0826decc8dc71e4f6ea7,TCR,2024-06-24_11h43.43.066,LearnStrategy,2023.2.3,Win32,119.047619,4,1,5,0.029947917,-0.013020833,1,0,0,1.0223,rock_grid_rect_2,7,05,-1,-1,1.022,0.15625,-0.3984375,1,0,0,15.6182,Peridotite_rect,7,15.618,1,4,0,4,0,1,,,,,,,,,,,,,
663d0826decc8dc71e4f6ea7,TCR,2024-06-24_11h43.43.066,LearnStrategy,2023.2.3,Win32,119.047619,4,1,6,0.084635417,-0.024739583,1,0,0,1.0129,rock_grid_rect_2,1,05,-1,-1,1.013,-0.390625,-0.240885417,1,0,0,1.8345,Andesite_rect,1,1.834,1,5,0,5,0,1,,,,,,,,,,,,,
663d0826decc8dc71e4f6ea7,TCR,2024-06-24_11h43.43.066,LearnStrategy,2023.2.3,Win32,119.047619,4,1,7,0.04296875,-0.01171875,1,0,0,1.0882,rock_grid_rect_2,4,05,-1,-1,1.088,0.182291667,-0.244791667,1,0,0,7.8798,Diorite_rect,3,7.88,0,6,0,6,0,1,,,,,,,,,,,,,
663d0826decc8dc71e4f6ea7,TCR,2024-06-24_11h43.43.066,LearnStrategy,2023.2.3,Win32,119.047619,4,1,8,0.100260417,0.00390625,1,0,0,1.3135,rock_grid_rect_2,7,02,-1,-1,1.313,0.177083333,-0.255208333,1,0,0,7.0732,Diorite_rect,3,7.073,0,7,0,7,0,1,,,,,,,,,,,,,
663d0826decc8dc71e4f6ea7,TCR,2024-06-24_11h43.43.066,LearnStrategy,2023.2.3,Win32,119.047619,4,1,9,0.122395833,-0.0078125,1,0,0,1.1387,rock_grid_rect_2,7,15,-1,-1,1.139,-0.372395833,-0.240885417,1,0,0,2.0668,Andesite_rect,1,2.067,0,8,0,8,0,1,,,,,,,,,,,,,
663d0826decc8dc71e4f6ea7,TCR,2024-06-24_11h43.43.066,LearnStrategy,2023.2.3,Win32,119.047619,4,1,10,0.013020833,-0.0078125,1,0,0,0.8505,rock_grid_rect_2,4,16,-1,-1,0.851,-0.15625,-0.239583333,1,0,0,2.3369,Basalt_rect,2,2.337,0,9,0,9,0,1,,,,,,,,,,,,,
663d0826decc8dc71e4f6ea7,TCR,2024-06-24_11h43.43.066,LearnStrategy,2023.2.3,Win32,119.047619,4,1,11,0.083333333,0.014322917,1,0,0,0.8468,rock_grid_rect_2,2,12,-1,-1,0.847,0.395833333,-0.3984375,1,0,0,1.9503,Pumice_rect,8,1.95,0,10,0,10,0,1,,,,,,,,,,,,,
663d0826decc8dc71e4f6ea7,TCR,2024-06-24_11h43.43.066,LearnStrategy,2023.2.3,Win32,119.047619,4,1,12,0.037760417,0.001302083,1,0,0,1.0797,rock_grid_rect_2,7,15,-1,-1,1.08,-0.4296875,-0.25390625,1,0,0,1.5261,Andesite_rect,1,1.526,0,11,0,11,0,1,,,,,,,,,,,,,
663d0826decc8dc71e4f6ea7,TCR,2024-06-24_11h43.43.066,LearnStrategy,2023.2.3,Win32,119.047619,4,1,13,0.024739583,-0.013020833,1,0,0,0.8799,rock_grid_rect_2,6,16,-1,-1,0.88,-0.1328125,-0.401041667,1,0,0,2.0342,Pegmatite_rect,6,2.034,1,12,0,12,0,1,,,,,,,,,,,,,
663d0826decc8dc71e4f6ea7,TCR,2024-06-24_11h43.43.066,LearnStrategy,2023.2.3,Win32,119.047619,4,1,14,0.041666667,-0.0078125,1,0,0,1.0543,rock_grid_rect_2,4,14,-1,-1,1.054,0.432291667,-0.2578125,1,0,0,5.0869,Gabbro_rect,4,5.087,1,13,0,13,0,1,,,,,,,,,,,,,
663d0826decc8dc71e4f6ea7,TCR,2024-06-24_11h43.43.066,LearnStrategy,2023.2.3,Win32,119.047619,4,1,15,0.106770833,0.005208333,1,0,0,0.9115,rock_grid_rect_2,2,12,-1,-1,0.911,0.416666667,-0.39453125,1,0,0,2.6271,Pumice_rect,8,2.627,0,14,0,14,0,1,,,,,,,,,,,,,
663d0826decc8dc71e4f6ea7,TCR,2024-06-24_11h43.43.066,LearnStrategy,2023.2.3,Win32,119.047619,4,1,16,0.05078125,0.014322917,1,0,0,0.8972,rock_grid_rect_2,1,09,-1,-1,0.897,0.158854167,-0.265625,1,0,0,17.964,Diorite_rect,3,17.964,0,15,0,15,0,1,,,,,,,,,,,,,
663d0826decc8dc71e4f6ea7,TCR,2024-06-24_11h43.43.066,LearnStrategy,2023.2.3,Win32,119.047619,4,2,1,,,,,,,,4,01,,,,,,,,,,,7,11.126,0,,,,,,0.096354167,-0.388020833,1,0,0,11.1256,Peridotite_rect,0,0,0,0,1,
663d0826decc8dc71e4f6ea7,TCR,2024-06-24_11h43.43.066,LearnStrategy,2023.2.3,Win32,119.047619,4,2,2,,,,,,,,6,03,,,,,,,,,,,6,1.251,1,,,,,,-0.153645833,-0.412760417,1,0,0,1.2511,Pegmatite_rect,1,0,1,0,1,
663d0826decc8dc71e4f6ea7,TCR,2024-06-24_11h43.43.066,LearnStrategy,2023.2.3,Win32,119.047619,4,2,3,,,,,,,,2,10,,,,,,,,,,,2,5.477,1,,,,,,-0.09375,-0.240885417,1,0,0,5.477,Basalt_rect,2,0,2,0,1,
663d0826decc8dc71e4f6ea7,TCR,2024-06-24_11h43.43.066,LearnStrategy,2023.2.3,Win32,119.047619,4,2,4,,,,,,,,8,08,,,,,,,,,,,8,3.547,1,,,,,,0.4609375,-0.39453125,1,0,0,3.5471,Pumice_rect,3,0,3,0,1,
663d0826decc8dc71e4f6ea7,TCR,2024-06-24_11h43.43.066,LearnStrategy,2023.2.3,Win32,119.047619,4,2,5,,,,,,,,4,08,,,,,,,,,,,4,3.986,1,,,,,,0.453125,-0.251302083,1,0,0,3.9861,Gabbro_rect,4,0,4,0,1,
663d0826decc8dc71e4f6ea7,TCR,2024-06-24_11h43.43.066,LearnStrategy,2023.2.3,Win32,119.047619,4,2,6,,,,,,,,6,11,,,,,,,,,,,6,1.259,1,,,,,,-0.092447917,-0.389322917,1,0,0,1.2585,Pegmatite_rect,5,0,5,0,1,
663d0826decc8dc71e4f6ea7,TCR,2024-06-24_11h43.43.066,LearnStrategy,2023.2.3,Win32,119.047619,4,2,7,,,,,,,,5,12,,,,,,,,,,,5,1.06,1,,,,,,-0.423177083,-0.380208333,1,0,0,1.0598,Obsidian_rect,6,0,6,0,1,
663d0826decc8dc71e4f6ea7,TCR,2024-06-24_11h43.43.066,LearnStrategy,2023.2.3,Win32,119.047619,4,2,8,,,,,,,,8,14,,,,,,,,,,,8,1.292,1,,,,,,0.475260417,-0.390625,1,0,0,1.2916,Pumice_rect,7,0,7,0,1,
663d0826decc8dc71e4f6ea7,TCR,2024-06-24_11h43.43.066,LearnStrategy,2023.2.3,Win32,119.047619,4,2,9,,,,,,,,3,09,,,,,,,,,,,3,1.459,1,,,,,,0.14453125,-0.240885417,1,0,0,1.459,Diorite_rect,8,0,8,0,1,
663d0826decc8dc71e4f6ea7,TCR,2024-06-24_11h43.43.066,LearnStrategy,2023.2.3,Win32,119.047619,4,2,10,,,,,,,,1,06,,,,,,,,,,,7,3.406,0,,,,,,0.143229167,-0.415364583,1,0,0,3.406,Peridotite_rect,9,0,9,0,1,
663d0826decc8dc71e4f6ea7,TCR,2024-06-24_11h43.43.066,LearnStrategy,2023.2.3,Win32,119.047619,4,2,11,,,,,,,,3,02,,,,,,,,,,,3,1.984,1,,,,,,0.12109375,-0.24609375,1,0,0,1.9836,Diorite_rect,10,0,10,0,1,
663d0826decc8dc71e4f6ea7,TCR,2024-06-24_11h43.43.066,LearnStrategy,2023.2.3,Win32,119.047619,4,2,12,,,,,,,,2,01,,,,,,,,,,,2,5.211,1,,,,,,-0.080729167,-0.247395833,1,0,0,5.2108,Basalt_rect,11,0,11,0,1,
663d0826decc8dc71e4f6ea7,TCR,2024-06-24_11h43.43.066,LearnStrategy,2023.2.3,Win32,119.047619,4,2,13,,,,,,,,7,10,,,,,,,,,,,7,10.61,1,,,,,,0.151041667,-0.381510417,1,0,0,10.61,Peridotite_rect,12,0,12,0,1,
663d0826decc8dc71e4f6ea7,TCR,2024-06-24_11h43.43.066,LearnStrategy,2023.2.3,Win32,119.047619,4,2,14,,,,,,,,7,07,,,,,,,,,,,7,1.228,1,,,,,,0.151041667,-0.381510417,1,0,0,1.2278,Peridotite_rect,13,0,13,0,1,
663d0826decc8dc71e4f6ea7,TCR,2024-06-24_11h43.43.066,LearnStrategy,2023.2.3,Win32,119.047619,4,2,15,,,,,,,,1,07,,,,,,,,,,,6,2.474,0,,,,,,-0.109375,-0.3984375,1,0,0,2.4742,Pegmatite_rect,14,0,14,0,1,
663d0826decc8dc71e4f6ea7,TCR,2024-06-24_11h43.43.066,LearnStrategy,2023.2.3,Win32,119.047619,4,2,16,,,,,,,,5,04,,,,,,,,,,,5,1.209,1,,,,,,-0.368489583,-0.395833333,1,0,0,1.2093,Obsidian_rect,15,0,15,0,1,
663d0826decc8dc71e4f6ea7,TCR,2024-06-24_11h43.43.066,LearnStrategy,2023.2.3,Win32,119.047619,5,1,1,0.045572917,0.015625,1,0,0,1.3885,rock_grid_rect_2,6,13,-1,-1,1.388,0.1484375,-0.233072917,1,0,0,14.7534,Diorite_rect,3,14.753,0,0,0,0,0,1,,,,,,,,,,,,,
663d0826decc8dc71e4f6ea7,TCR,2024-06-24_11h43.43.066,LearnStrategy,2023.2.3,Win32,119.047619,5,1,2,0.080729167,-0.01171875,1,0,0,1.0464,rock_grid_rect_2,1,04,-1,-1,1.046,0.139322917,-0.397135417,1,0,0,8.6847,Peridotite_rect,7,8.685,0,1,0,1,0,1,,,,,,,,,,,,,
663d0826decc8dc71e4f6ea7,TCR,2024-06-24_11h43.43.066,LearnStrategy,2023.2.3,Win32,119.047619,5,1,3,0.05859375,-0.009114583,1,0,0,0.9495,rock_grid_rect_2,1,09,-1,-1,0.95,0.15625,-0.407552083,1,0,0,7.349,Peridotite_rect,7,7.349,0,2,0,2,0,1,,,,,,,,,,,,,
663d0826decc8dc71e4f6ea7,TCR,2024-06-24_11h43.43.066,LearnStrategy,2023.2.3,Win32,119.047619,5,1,4,0.010416667,-0.015625,1,0,0,0.9715,rock_grid_rect_2,4,14,-1,-1,0.971,0.17578125,-0.243489583,1,0,0,8.4196,Diorite_rect,3,8.42,0,3,0,3,0,1,,,,,,,,,,,,,
663d0826decc8dc71e4f6ea7,TCR,2024-06-24_11h43.43.066,LearnStrategy,2023.2.3,Win32,119.047619,5,1,5,0.071614583,0.009114583,1,0,0,0.9965,rock_grid_rect_2,2,09,-1,-1,0.997,-0.125,-0.2421875,1,0,0,4.339,Basalt_rect,2,4.339,1,4,0,4,0,1,,,,,,,,,,,,,
663d0826decc8dc71e4f6ea7,TCR,2024-06-24_11h43.43.066,LearnStrategy,2023.2.3,Win32,119.047619,5,1,6,0.09375,-0.01953125,1,0,0,1.0139,rock_grid_rect_2,4,05,-1,-1,1.014,0.376302083,-0.2578125,1,0,0,3.9456,Gabbro_rect,4,3.946,1,5,0,5,0,1,,,,,,,,,,,,,
663d0826decc8dc71e4f6ea7,TCR,2024-06-24_11h43.43.066,LearnStrategy,2023.2.3,Win32,119.047619,5,1,7,0.114583333,0.020833333,1,0,0,1.2881,rock_grid_rect_2,3,13,-1,-1,1.288,0.12109375,-0.239583333,1,0,0,1.5265,Diorite_rect,3,1.526,1,6,0,6,0,1,,,,,,,,,,,,,
663d0826decc8dc71e4f6ea7,TCR,2024-06-24_11h43.43.066,LearnStrategy,2023.2.3,Win32,119.047619,5,1,8,0.020833333,0.009114583,1,0,0,0.7713,rock_grid_rect_2,1,16,-1,-1,0.771,-0.377604167,-0.23828125,1,0,0,4.0075,Andesite_rect,1,4.007,1,7,0,7,0,1,,,,,,,,,,,,,
663d0826decc8dc71e4f6ea7,TCR,2024-06-24_11h43.43.066,LearnStrategy,2023.2.3,Win32,119.047619,5,1,9,0.084635417,0.00390625,1,0,0,0.9888,rock_grid_rect_2,2,02,-1,-1,0.989,-0.1171875,-0.252604167,1,0,0,5.2948,Basalt_rect,2,5.295,1,8,0,8,0,1,,,,,,,,,,,,,
663d0826decc8dc71e4f6ea7,TCR,2024-06-24_11h43.43.066,LearnStrategy,2023.2.3,Win32,119.047619,5,1,10,0.075520833,-0.013020833,1,0,0,1.0637,rock_grid_rect_2,5,14,-1,-1,1.064,-0.42578125,-0.397135417,1,0,0,1.3761,Obsidian_rect,5,1.376,1,9,0,9,0,1,,,,,,,,,,,,,
663d0826decc8dc71e4f6ea7,TCR,2024-06-24_11h43.43.066,LearnStrategy,2023.2.3,Win32,119.047619,5,1,11,0.024739583,-0.013020833,1,0,0,1.1969,rock_grid_rect_2,7,05,-1,-1,1.197,0.1328125,-0.393229167,1,0,0,4.4461,Peridotite_rect,7,4.446,1,10,0,10,0,1,,,,,,,,,,,,,
663d0826decc8dc71e4f6ea7,TCR,2024-06-24_11h43.43.066,LearnStrategy,2023.2.3,Win32,119.047619,5,1,12,0.063802083,-0.0078125,1,0,0,0.9716,rock_grid_rect_2,7,15,-1,-1,0.972,-0.3984375,-0.252604167,1,0,0,5.377,Andesite_rect,1,5.377,0,11,0,11,0,1,,,,,,,,,,,,,
663d0826decc8dc71e4f6ea7,TCR,2024-06-24_11h43.43.066,LearnStrategy,2023.2.3,Win32,119.047619,5,1,13,0.10546875,0.018229167,1,0,0,0.7063,rock_grid_rect_2,7,04,-1,-1,0.706,0.154947917,-0.234375,1,0,0,4.2048,Diorite_rect,3,4.205,0,12,0,12,0,1,,,,,,,,,,,,,
663d0826decc8dc71e4f6ea7,TCR,2024-06-24_11h43.43.066,LearnStrategy,2023.2.3,Win32,119.047619,5,1,14,0.072916667,0.024739583,1,0,0,0.7078,rock_grid_rect_2,1,03,-1,-1,0.708,0.115885417,-0.3828125,1,0,0,4.2282,Peridotite_rect,7,4.228,0,13,0,13,0,1,,,,,,,,,,,,,
663d0826decc8dc71e4f6ea7,TCR,2024-06-24_11h43.43.066,LearnStrategy,2023.2.3,Win32,119.047619,5,1,15,0.110677083,-0.014322917,1,0,0,0.872,rock_grid_rect_2,4,16,-1,-1,0.872,0.440104167,-0.244791667,1,0,0,1.8617,Gabbro_rect,4,1.862,1,14,0,14,0,1,,,,,,,,,,,,,
663d0826decc8dc71e4f6ea7,TCR,2024-06-24_11h43.43.066,LearnStrategy,2023.2.3,Win32,119.047619,5,1,16,0.122395833,-0.014322917,1,0,0,0.9632,rock_grid_rect_2,8,10,-1,-1,0.963,0.4140625,-0.416666667,1,0,0,1.5182,Pumice_rect,8,1.518,1,15,0,15,0,1,,,,,,,,,,,,,
663d0826decc8dc71e4f6ea7,TCR,2024-06-24_11h43.43.066,LearnStrategy,2023.2.3,Win32,119.047619,5,2,1,,,,,,,,2,11,,,,,,,,,,,4,10.908,0,,,,,,0.4453125,-0.252604167,1,0,0,10.9082,Gabbro_rect,0,0,0,0,1,
663d0826decc8dc71e4f6ea7,TCR,2024-06-24_11h43.43.066,LearnStrategy,2023.2.3,Win32,119.047619,5,2,2,,,,,,,,4,03,,,,,,,,,,,3,6.552,0,,,,,,0.15625,-0.2421875,1,0,0,6.5515,Diorite_rect,1,0,1,0,1,
663d0826decc8dc71e4f6ea7,TCR,2024-06-24_11h43.43.066,LearnStrategy,2023.2.3,Win32,119.047619,5,2,3,,,,,,,,3,15,,,,,,,,,,,3,2.4,1,,,,,,0.15625,-0.2421875,1,0,0,2.3997,Diorite_rect,2,0,2,0,1,
663d0826decc8dc71e4f6ea7,TCR,2024-06-24_11h43.43.066,LearnStrategy,2023.2.3,Win32,119.047619,5,2,4,,,,,,,,8,15,,,,,,,,,,,8,1.723,1,,,,,,0.420572917,-0.390625,1,0,0,1.7231,Pumice_rect,3,0,3,0,1,
663d0826decc8dc71e4f6ea7,TCR,2024-06-24_11h43.43.066,LearnStrategy,2023.2.3,Win32,119.047619,5,2,5,,,,,,,,8,13,,,,,,,,,,,8,0.894,1,,,,,,0.420572917,-0.393229167,1,0,0,0.8936,Pumice_rect,4,0,4,0,1,
663d0826decc8dc71e4f6ea7,TCR,2024-06-24_11h43.43.066,LearnStrategy,2023.2.3,Win32,119.047619,5,2,6,,,,,,,,2,04,,,,,,,,,,,2,1.934,1,,,,,,-0.07421875,-0.265625,1,0,0,1.9339,Basalt_rect,5,0,5,0,1,
663d0826decc8dc71e4f6ea7,TCR,2024-06-24_11h43.43.066,LearnStrategy,2023.2.3,Win32,119.047619,5,2,7,,,,,,,,6,08,,,,,,,,,,,6,1.183,1,,,,,,-0.135416667,-0.4140625,1,0,0,1.1828,Pegmatite_rect,6,0,6,0,1,
663d0826decc8dc71e4f6ea7,TCR,2024-06-24_11h43.43.066,LearnStrategy,2023.2.3,Win32,119.047619,5,2,8,,,,,,,,1,11,,,,,,,,,,,6,4.062,0,,,,,,-0.12890625,-0.391927083,1,0,0,4.0616,Pegmatite_rect,7,0,7,0,1,
663d0826decc8dc71e4f6ea7,TCR,2024-06-24_11h43.43.066,LearnStrategy,2023.2.3,Win32,119.047619,5,2,9,,,,,,,,7,14,,,,,,,,,,,7,10.311,1,,,,,,0.169270833,-0.3984375,1,0,0,10.3106,Peridotite_rect,8,0,8,0,1,
663d0826decc8dc71e4f6ea7,TCR,2024-06-24_11h43.43.066,LearnStrategy,2023.2.3,Win32,119.047619,5,2,10,,,,,,,,3,06,,,,,,,,,,,3,4.782,1,,,,,,0.17578125,-0.26171875,1,0,0,4.7823,Diorite_rect,9,0,9,0,1,
663d0826decc8dc71e4f6ea7,TCR,2024-06-24_11h43.43.066,LearnStrategy,2023.2.3,Win32,119.047619,5,2,11,,,,,,,,1,14,,,,,,,,,,,6,1.808,0,,,,,,-0.083333333,-0.390625,1,0,0,1.8077,Pegmatite_rect,10,0,10,0,1,
663d0826decc8dc71e4f6ea7,TCR,2024-06-24_11h43.43.066,LearnStrategy,2023.2.3,Win32,119.047619,5,2,12,,,,,,,,5,05,,,,,,,,,,,5,2.123,1,,,,,,-0.384114583,-0.40234375,1,0,0,2.1235,Obsidian_rect,11,0,11,0,1,
663d0826decc8dc71e4f6ea7,TCR,2024-06-24_11h43.43.066,LearnStrategy,2023.2.3,Win32,119.047619,5,2,13,,,,,,,,5,06,,,,,,,,,,,5,0.967,1,,,,,,-0.44921875,-0.40234375,1,0,0,0.9671,Obsidian_rect,12,0,12,0,1,
663d0826decc8dc71e4f6ea7,TCR,2024-06-24_11h43.43.066,LearnStrategy,2023.2.3,Win32,119.047619,5,2,14,,,,,,,,4,10,,,,,,,,,,,4,2.031,1,,,,,,0.430989583,-0.243489583,1,0,0,2.0312,Gabbro_rect,13,0,13,0,1,
663d0826decc8dc71e4f6ea7,TCR,2024-06-24_11h43.43.066,LearnStrategy,2023.2.3,Win32,119.047619,5,2,15,,,,,,,,7,06,,,,,,,,,,,3,1.743,0,,,,,,0.208333333,-0.256510417,1,0,0,1.7426,Diorite_rect,14,0,14,0,1,
663d0826decc8dc71e4f6ea7,TCR,2024-06-24_11h43.43.066,LearnStrategy,2023.2.3,Win32,119.047619,5,2,16,,,,,,,,6,10,,,,,,,,,,,6,4.67,1,,,,,,-0.078125,-0.41796875,1,0,0,4.6699,Pegmatite_rect,15,0,15,0,1,
663d0826decc8dc71e4f6ea7,TCR,2024-06-24_11h43.43.066,LearnStrategy,2023.2.3,Win32,119.047619,6,1,1,0.106770833,0.014322917,1,0,0,1.0634,rock_grid_rect_2,1,16,-1,-1,1.063,0.149739583,-0.24609375,1,0,0,2.5495,Diorite_rect,3,2.55,0,0,0,0,0,1,,,,,,,,,,,,,
663d0826decc8dc71e4f6ea7,TCR,2024-06-24_11h43.43.066,LearnStrategy,2023.2.3,Win32,119.047619,6,1,2,0.118489583,0.005208333,1,0,0,1.374,rock_grid_rect_2,4,13,-1,-1,1.374,0.166666667,-0.268229167,1,0,0,10.4755,Diorite_rect,3,10.476,0,1,0,1,0,1,,,,,,,,,,,,,
663d0826decc8dc71e4f6ea7,TCR,2024-06-24_11h43.43.066,LearnStrategy,2023.2.3,Win32,119.047619,6,1,3,0.0546875,0.01171875,1,0,0,0.7467,rock_grid_rect_2,1,05,-1,-1,0.747,-0.372395833,-0.233072917,1,0,0,2.3479,Andesite_rect,1,2.348,1,2,0,2,0,1,,,,,,,,,,,,,
663d0826decc8dc71e4f6ea7,TCR,2024-06-24_11h43.43.066,LearnStrategy,2023.2.3,Win32,119.047619,6,1,4,0.08984375,-0.018229167,1,0,0,0.8886,rock_grid_rect_2,5,10,-1,-1,0.889,-0.470052083,-0.407552083,1,0,0,1.2597,Obsidian_rect,5,1.26,1,3,0,3,0,1,,,,,,,,,,,,,
663d0826decc8dc71e4f6ea7,TCR,2024-06-24_11h43.43.066,LearnStrategy,2023.2.3,Win32,119.047619,6,1,5,0.02734375,-0.018229167,1,0,0,1.0878,rock_grid_rect_2,8,02,-1,-1,1.088,0.401041667,-0.404947917,1,0,0,1.6511,Pumice_rect,8,1.651,1,4,0,4,0,1,,,,,,,,,,,,,
663d0826decc8dc71e4f6ea7,TCR,2024-06-24_11h43.43.066,LearnStrategy,2023.2.3,Win32,119.047619,6,1,6,0.09765625,-0.0078125,1,0,0,0.8635,rock_grid_rect_2,1,01,-1,-1,0.864,0.184895833,-0.26953125,1,0,0,1.6923,Diorite_rect,3,1.692,0,5,0,5,0,1,,,,,,,,,,,,,
663d0826decc8dc71e4f6ea7,TCR,2024-06-24_11h43.43.066,LearnStrategy,2023.2.3,Win32,119.047619,6,1,7,0.122395833,-0.01171875,1,0,0,1.1073,rock_grid_rect_2,1,04,-1,-1,1.107,-0.3984375,-0.243489583,1,0,0,7.797,Andesite_rect,1,7.797,1,6,0,6,0,1,,,,,,,,,,,,,
663d0826decc8dc71e4f6ea7,TCR,2024-06-24_11h43.43.066,LearnStrategy,2023.2.3,Win32,119.047619,6,1,8,0.036458333,-0.01171875,1,0,0,1.1796,rock_grid_rect_2,2,12,-1,-1,1.18,-0.104166667,-0.2421875,1,0,0,8.3785,Basalt_rect,2,8.379,1,7,0,7,0,1,,,,,,,,,,,,,
663d0826decc8dc71e4f6ea7,TCR,2024-06-24_11h43.43.066,LearnStrategy,2023.2.3,Win32,119.047619,6,1,9,0.040364583,0.014322917,1,0,0,0.839,rock_grid_rect_2,7,04,-1,-1,0.839,0.12890625,-0.247395833,1,0,0,7.8326,Diorite_rect,3,7.833,0,8,0,8,0,1,,,,,,,,,,,,,
663d0826decc8dc71e4f6ea7,TCR,2024-06-24_11h43.43.066,LearnStrategy,2023.2.3,Win32,119.047619,6,1,10,0.065104167,-0.014322917,1,0,0,1.4235,rock_grid_rect_2,7,15,-1,-1,1.424,0.09375,-0.397135417,1,0,0,4.683,Peridotite_rect,7,4.683,1,9,0,9,0,1,,,,,,,,,,,,,
663d0826decc8dc71e4f6ea7,TCR,2024-06-24_11h43.43.066,LearnStrategy,2023.2.3,Win32,119.047619,6,1,11,0.080729167,-0.01171875,1,0,0,1.0714,rock_grid_rect_2,3,07,-1,-1,1.071,0.140625,-0.24609375,1,0,0,2.2059,Diorite_rect,3,2.206,1,10,0,10,0,1,,,,,,,,,,,,,
663d0826decc8dc71e4f6ea7,TCR,2024-06-24_11h43.43.066,LearnStrategy,2023.2.3,Win32,119.047619,6,1,12,0.098958333,0.013020833,1,0,0,1.1546,rock_grid_rect_2,6,09,-1,-1,1.155,-0.1484375,-0.389322917,1,0,0,1.3353,Pegmatite_rect,6,1.335,1,11,0,11,0,1,,,,,,,,,,,,,
663d0826decc8dc71e4f6ea7,TCR,2024-06-24_11h43.43.066,LearnStrategy,2023.2.3,Win32,119.047619,6,1,13,0.036458333,-0.00390625,1,0,0,0.8556,rock_grid_rect_2,4,05,-1,-1,0.856,0.4140625,-0.25,1,0,0,8.4575,Gabbro_rect,4,8.457,1,12,0,12,0,1,,,,,,,,,,,,,
663d0826decc8dc71e4f6ea7,TCR,2024-06-24_11h43.43.066,LearnStrategy,2023.2.3,Win32,119.047619,6,1,14,0.153645833,0.002604167,1,0,0,0.8726,rock_grid_rect_2,4,13,-1,-1,0.873,0.381510417,-0.240885417,1,0,0,1.3264,Gabbro_rect,4,1.326,1,13,0,13,0,1,,,,,,,,,,,,,
663d0826decc8dc71e4f6ea7,TCR,2024-06-24_11h43.43.066,LearnStrategy,2023.2.3,Win32,119.047619,6,1,15,0.115885417,-0.010416667,1,0,0,0.9472,rock_grid_rect_2,7,12,-1,-1,0.947,-0.380208333,-0.236979167,1,0,0,6.2186,Andesite_rect,1,6.219,0,14,0,14,0,1,,,,,,,,,,,,,
663d0826decc8dc71e4f6ea7,TCR,2024-06-24_11h43.43.066,LearnStrategy,2023.2.3,Win32,119.047619,6,1,16,0.118489583,0.005208333,1,0,0,0.7722,rock_grid_rect_2,2,12,-1,-1,0.772,-0.1796875,-0.236979167,1,0,0,2.6824,Basalt_rect,2,2.682,1,15,0,15,0,1,,,,,,,,,,,,,
663d0826decc8dc71e4f6ea7,TCR,2024-06-24_11h43.43.066,LearnStrategy,2023.2.3,Win32,119.047619,6,2,1,,,,,,,,6,05,,,,,,,,,,,3,13.93,0,,,,,,0.170572917,-0.25390625,1,0,0,13.9296,Diorite_rect,0,0,0,0,1,
663d0826decc8dc71e4f6ea7,TCR,2024-06-24_11h43.43.066,LearnStrategy,2023.2.3,Win32,119.047619,6,2,2,,,,,,,,7,13,,,,,,,,,,,7,9.72,1,,,,,,0.10546875,-0.3984375,1,0,0,9.7195,Peridotite_rect,1,0,1,0,1,
663d0826decc8dc71e4f6ea7,TCR,2024-06-24_11h43.43.066,LearnStrategy,2023.2.3,Win32,119.047619,6,2,3,,,,,,,,6,07,,,,,,,,,,,6,1.261,1,,,,,,-0.096354167,-0.393229167,1,0,0,1.2608,Pegmatite_rect,2,0,2,0,1,
663d0826decc8dc71e4f6ea7,TCR,2024-06-24_11h43.43.066,LearnStrategy,2023.2.3,Win32,119.047619,6,2,4,,,,,,,,8,09,,,,,,,,,,,8,1.85,1,,,,,,0.4296875,-0.395833333,1,0,0,1.8499,Pumice_rect,3,0,3,0,1,
663d0826decc8dc71e4f6ea7,TCR,2024-06-24_11h43.43.066,LearnStrategy,2023.2.3,Win32,119.047619,6,2,5,,,,,,,,7,08,,,,,,,,,,,1,8.082,0,,,,,,-0.380208333,-0.252604167,1,0,0,8.0817,Andesite_rect,4,0,4,0,1,
663d0826decc8dc71e4f6ea7,TCR,2024-06-24_11h43.43.066,LearnStrategy,2023.2.3,Win32,119.047619,6,2,6,,,,,,,,3,10,,,,,,,,,,,7,5.151,0,,,,,,0.140625,-0.4140625,1,0,0,5.1514,Peridotite_rect,5,0,5,0,1,
663d0826decc8dc71e4f6ea7,TCR,2024-06-24_11h43.43.066,LearnStrategy,2023.2.3,Win32,119.047619,6,2,7,,,,,,,,5,07,,,,,,,,,,,5,1.108,1,,,,,,-0.393229167,-0.393229167,1,0,0,1.1082,Obsidian_rect,6,0,6,0,1,
663d0826decc8dc71e4f6ea7,TCR,2024-06-24_11h43.43.066,LearnStrategy,2023.2.3,Win32,119.047619,6,2,8,,,,,,,,2,08,,,,,,,,,,,2,1.443,1,,,,,,-0.1640625,-0.2421875,1,0,0,1.443,Basalt_rect,7,0,7,0,1,
663d0826decc8dc71e4f6ea7,TCR,2024-06-24_11h43.43.066,LearnStrategy,2023.2.3,Win32,119.047619,6,2,9,,,,,,,,1,10,,,,,,,,,,,1,4.795,1,,,,,,-0.34375,-0.252604167,1,0,0,4.7951,Andesite_rect,8,0,8,0,1,
663d0826decc8dc71e4f6ea7,TCR,2024-06-24_11h43.43.066,LearnStrategy,2023.2.3,Win32,119.047619,6,2,10,,,,,,,,1,02,,,,,,,,,,,1,6.626,1,,,,,,-0.361979167,-0.240885417,1,0,0,6.6259,Andesite_rect,9,0,9,0,1,
663d0826decc8dc71e4f6ea7,TCR,2024-06-24_11h43.43.066,LearnStrategy,2023.2.3,Win32,119.047619,6,2,11,,,,,,,,5,16,,,,,,,,,,,5,1.127,1,,,,,,-0.358072917,-0.403645833,1,0,0,1.1265,Obsidian_rect,10,0,10,0,1,
663d0826decc8dc71e4f6ea7,TCR,2024-06-24_11h43.43.066,LearnStrategy,2023.2.3,Win32,119.047619,6,2,12,,,,,,,,2,14,,,,,,,,,,,4,5.992,0,,,,,,0.40234375,-0.229166667,1,0,0,5.9916,Gabbro_rect,11,0,11,0,1,
663d0826decc8dc71e4f6ea7,TCR,2024-06-24_11h43.43.066,LearnStrategy,2023.2.3,Win32,119.047619,6,2,13,,,,,,,,8,16,,,,,,,,,,,4,2.597,0,,,,,,0.403645833,-0.23046875,1,0,0,2.597,Gabbro_rect,12,0,12,0,1,
663d0826decc8dc71e4f6ea7,TCR,2024-06-24_11h43.43.066,LearnStrategy,2023.2.3,Win32,119.047619,6,2,14,,,,,,,,4,15,,,,,,,,,,,3,6.235,0,,,,,,0.192708333,-0.243489583,1,0,0,6.2346,Diorite_rect,13,0,13,0,1,
663d0826decc8dc71e4f6ea7,TCR,2024-06-24_11h43.43.066,LearnStrategy,2023.2.3,Win32,119.047619,6,2,15,,,,,,,,4,09,,,,,,,,,,,2,12.073,0,,,,,,-0.154947917,-0.252604167,1,0,0,12.0735,Basalt_rect,14,0,14,0,1,
663d0826decc8dc71e4f6ea7,TCR,2024-06-24_11h43.43.066,LearnStrategy,2023.2.3,Win32,119.047619,6,2,16,,,,,,,,3,11,,,,,,,,,,,7,7.785,0,,,,,,0.123697917,-0.399739583,1,0,0,7.7848,Peridotite_rect,15,0,15,0,1,
663d0826decc8dc71e4f6ea7,TCR,2024-06-24_11h43.43.066,LearnStrategy,2023.2.3,Win32,119.047619,7,1,1,0.09375,-0.010416667,1,0,0,1.5214,rock_grid_rect_2,1,16,-1,-1,1.521,-0.342447917,-0.24609375,1,0,0,3.5042,Andesite_rect,1,3.504,1,0,0,0,0,1,,,,,,,,,,,,,
663d0826decc8dc71e4f6ea7,TCR,2024-06-24_11h43.43.066,LearnStrategy,2023.2.3,Win32,119.047619,7,1,2,0.053385417,-0.006510417,1,0,0,1.0542,rock_grid_rect_2,2,12,-1,-1,1.054,-0.15625,-0.23046875,1,0,0,1.9157,Basalt_rect,2,1.916,1,1,0,1,0,1,,,,,,,,,,,,,
663d0826decc8dc71e4f6ea7,TCR,2024-06-24_11h43.43.066,LearnStrategy,2023.2.3,Win32,119.047619,7,1,3,0.045572917,-0.00390625,1,0,0,0.9549,rock_grid_rect_2,3,14,-1,-1,0.955,0.13671875,-0.384114583,1,0,0,5.6944,Peridotite_rect,7,5.694,0,2,0,2,0,1,,,,,,,,,,,,,
663d0826decc8dc71e4f6ea7,TCR,2024-06-24_11h43.43.066,LearnStrategy,2023.2.3,Win32,119.047619,7,1,4,0.106770833,-0.009114583,1,0,0,0.8799,rock_grid_rect_2,1,09,-1,-1,0.88,0.162760417,-0.235677083,1,0,0,5.1439,Diorite_rect,3,5.144,0,3,0,3,0,1,,,,,,,,,,,,,
663d0826decc8dc71e4f6ea7,TCR,2024-06-24_11h43.43.066,LearnStrategy,2023.2.3,Win32,119.047619,7,1,5,0.071614583,0.01171875,1,0,0,0.9006,rock_grid_rect_2,2,05,-1,-1,0.901,-0.13671875,-0.248697917,1,0,0,2.1625,Basalt_rect,2,2.163,1,4,0,4,0,1,,,,,,,,,,,,,
663d0826decc8dc71e4f6ea7,TCR,2024-06-24_11h43.43.066,LearnStrategy,2023.2.3,Win32,119.047619,7,1,6,0.084635417,0,1,0,0,1.0389,rock_grid_rect_2,4,14,-1,-1,1.039,0.428385417,-0.248697917,1,0,0,8.7628,Gabbro_rect,4,8.763,1,5,0,5,0,1,,,,,,,,,,,,,
663d0826decc8dc71e4f6ea7,TCR,2024-06-24_11h43.43.066,LearnStrategy,2023.2.3,Win32,119.047619,7,1,7,0.130208333,0.005208333,1,0,0,0.8633,rock_grid_rect_2,7,16,-1,-1,0.863,0.1484375,-0.393229167,1,0,0,9.9509,Peridotite_rect,7,9.951,1,6,0,6,0,1,,,,,,,,,,,,,
663d0826decc8dc71e4f6ea7,TCR,2024-06-24_11h43.43.066,LearnStrategy,2023.2.3,Win32,119.047619,7,1,8,0.076822917,-0.0078125,1,0,0,1.0299,rock_grid_rect_2,6,16,-1,-1,1.03,-0.115885417,-0.407552083,1,0,0,1.4141,Pegmatite_rect,6,1.414,1,7,0,7,0,1,,,,,,,,,,,,,
663d0826decc8dc71e4f6ea7,TCR,2024-06-24_11h43.43.066,LearnStrategy,2023.2.3,Win32,119.047619,7,1,9,0.067708333,0.001302083,1,0,0,0.9788,rock_grid_rect_2,4,05,-1,-1,0.979,0.170572917,-0.41015625,1,0,0,19.3109,Peridotite_rect,7,19.311,0,8,0,8,0,1,,,,,,,,,,,,,
663d0826decc8dc71e4f6ea7,TCR,2024-06-24_11h43.43.066,LearnStrategy,2023.2.3,Win32,119.047619,7,1,10,0.076822917,-0.014322917,1,0,0,1.0721,rock_grid_rect_2,3,16,-1,-1,1.072,0.13671875,-0.240885417,1,0,0,2.1847,Diorite_rect,3,2.185,1,9,0,9,0,1,,,,,,,,,,,,,
663d0826decc8dc71e4f6ea7,TCR,2024-06-24_11h43.43.066,LearnStrategy,2023.2.3,Win32,119.047619,7,1,11,0.040364583,0,1,0,0,0.9549,rock_grid_rect_2,4,11,-1,-1,0.955,-0.12109375,-0.23046875,1,0,0,9.9184,Basalt_rect,2,9.918,0,10,0,10,0,1,,,,,,,,,,,,,
663d0826decc8dc71e4f6ea7,TCR,2024-06-24_11h43.43.066,LearnStrategy,2023.2.3,Win32,119.047619,7,1,12,0.1484375,-0.024739583,1,0,0,1.113,rock_grid_rect_2,7,15,-1,-1,1.113,-0.40234375,-0.240885417,1,0,0,2.2081,Andesite_rect,1,2.208,0,11,0,11,0,1,,,,,,,,,,,,,
663d0826decc8dc71e4f6ea7,TCR,2024-06-24_11h43.43.066,LearnStrategy,2023.2.3,Win32,119.047619,7,1,13,0.088541667,0.001302083,1,0,0,1.0089,rock_grid_rect_2,6,12,-1,-1,1.009,-0.140625,-0.420572917,1,0,0,1.4563,Pegmatite_rect,6,1.456,1,12,0,12,0,1,,,,,,,,,,,,,
663d0826decc8dc71e4f6ea7,TCR,2024-06-24_11h43.43.066,LearnStrategy,2023.2.3,Win32,119.047619,7,1,14,0.0546875,-0.016927083,1,0,0,0.8965,rock_grid_rect_2,7,05,-1,-1,0.897,0.154947917,-0.399739583,1,0,0,2.0804,Peridotite_rect,7,2.08,1,13,0,13,0,1,,,,,,,,,,,,,
663d0826decc8dc71e4f6ea7,TCR,2024-06-24_11h43.43.066,LearnStrategy,2023.2.3,Win32,119.047619,7,1,15,0.102864583,0.013020833,1,0,0,0.8636,rock_grid_rect_2,1,01,-1,-1,0.864,0.1640625,-0.247395833,1,0,0,1.625,Diorite_rect,3,1.625,0,14,0,14,0,1,,,,,,,,,,,,,
663d0826decc8dc71e4f6ea7,TCR,2024-06-24_11h43.43.066,LearnStrategy,2023.2.3,Win32,119.047619,7,1,16,0.07421875,-0.00390625,1,0,0,0.9091,rock_grid_rect_2,8,03,-1,-1,0.909,0.404947917,-0.391927083,1,0,0,2.4941,Pumice_rect,8,2.494,1,15,0,15,0,1,,,,,,,,,,,,,
663d0826decc8dc71e4f6ea7,TCR,2024-06-24_11h43.43.066,LearnStrategy,2023.2.3,Win32,119.047619,7,2,1,,,,,,,,1,10,,,,,,,,,,,1,6.732,1,,,,,,-0.42578125,-0.248697917,1,0,0,6.7321,Andesite_rect,0,0,0,0,1,
663d0826decc8dc71e4f6ea7,TCR,2024-06-24_11h43.43.066,LearnStrategy,2023.2.3,Win32,119.047619,7,2,2,,,,,,,,8,08,,,,,,,,,,,8,5.11,1,,,,,,0.43359375,-0.384114583,1,0,0,5.1095,Pumice_rect,1,0,1,0,1,
663d0826decc8dc71e4f6ea7,TCR,2024-06-24_11h43.43.066,LearnStrategy,2023.2.3,Win32,119.047619,7,2,3,,,,,,,,4,10,,,,,,,,,,,4,7.549,1,,,,,,0.475260417,-0.23828125,1,0,0,7.5489,Gabbro_rect,2,0,2,0,1,
663d0826decc8dc71e4f6ea7,TCR,2024-06-24_11h43.43.066,LearnStrategy,2023.2.3,Win32,119.047619,7,2,4,,,,,,,,3,10,,,,,,,,,,,3,4.438,1,,,,,,0.177083333,-0.25,1,0,0,4.4378,Diorite_rect,3,0,3,0,1,
663d0826decc8dc71e4f6ea7,TCR,2024-06-24_11h43.43.066,LearnStrategy,2023.2.3,Win32,119.047619,7,2,5,,,,,,,,2,14,,,,,,,,,,,2,4.05,1,,,,,,-0.182291667,-0.235677083,1,0,0,4.0496,Basalt_rect,4,0,4,0,1,
663d0826decc8dc71e4f6ea7,TCR,2024-06-24_11h43.43.066,LearnStrategy,2023.2.3,Win32,119.047619,7,2,6,,,,,,,,6,03,,,,,,,,,,,6,1.234,1,,,,,,-0.1796875,-0.415364583,1,0,0,1.2343,Pegmatite_rect,5,0,5,0,1,
663d0826decc8dc71e4f6ea7,TCR,2024-06-24_11h43.43.066,LearnStrategy,2023.2.3,Win32,119.047619,7,2,7,,,,,,,,8,15,,,,,,,,,,,8,2.683,1,,,,,,0.459635417,-0.395833333,1,0,0,2.6829,Pumice_rect,6,0,6,0,1,
663d0826decc8dc71e4f6ea7,TCR,2024-06-24_11h43.43.066,LearnStrategy,2023.2.3,Win32,119.047619,7,2,8,,,,,,,,6,10,,,,,,,,,,,6,12.98,1,,,,,,-0.061197917,-0.3984375,1,0,0,12.9804,Pegmatite_rect,7,0,7,0,1,
663d0826decc8dc71e4f6ea7,TCR,2024-06-24_11h43.43.066,LearnStrategy,2023.2.3,Win32,119.047619,7,2,9,,,,,,,,1,14,,,,,,,,,,,6,12.25,0,,,,,,-0.08203125,-0.38671875,1,0,0,12.2497,Pegmatite_rect,8,0,8,0,1,
663d0826decc8dc71e4f6ea7,TCR,2024-06-24_11h43.43.066,LearnStrategy,2023.2.3,Win32,119.047619,7,2,10,,,,,,,,4,09,,,,,,,,,,,2,14.883,0,,,,,,-0.096354167,-0.247395833,1,0,0,14.8828,Basalt_rect,9,0,9,0,1,
663d0826decc8dc71e4f6ea7,TCR,2024-06-24_11h43.43.066,LearnStrategy,2023.2.3,Win32,119.047619,7,2,11,,,,,,,,2,08,,,,,,,,,,,2,1.478,1,,,,,,-0.096354167,-0.248697917,1,0,0,1.4784,Basalt_rect,10,0,10,0,1,
663d0826decc8dc71e4f6ea7,TCR,2024-06-24_11h43.43.066,LearnStrategy,2023.2.3,Win32,119.047619,7,2,12,,,,,,,,5,04,,,,,,,,,,,5,1.119,1,,,,,,-0.365885417,-0.404947917,1,0,0,1.1192,Obsidian_rect,11,0,11,0,1,
663d0826decc8dc71e4f6ea7,TCR,2024-06-24_11h43.43.066,LearnStrategy,2023.2.3,Win32,119.047619,7,2,13,,,,,,,,7,07,,,,,,,,,,,7,7.565,1,,,,,,0.147135417,-0.390625,1,0,0,7.5648,Peridotite_rect,12,0,12,0,1,
663d0826decc8dc71e4f6ea7,TCR,2024-06-24_11h43.43.066,LearnStrategy,2023.2.3,Win32,119.047619,7,2,14,,,,,,,,5,06,,,,,,,,,,,5,1.824,1,,,,,,-0.352864583,-0.381510417,1,0,0,1.8237,Obsidian_rect,13,0,13,0,1,
663d0826decc8dc71e4f6ea7,TCR,2024-06-24_11h43.43.066,LearnStrategy,2023.2.3,Win32,119.047619,7,2,15,,,,,,,,3,06,,,,,,,,,,,3,9.87,1,,,,,,0.161458333,-0.24609375,1,0,0,9.8702,Diorite_rect,14,0,14,0,1,
663d0826decc8dc71e4f6ea7,TCR,2024-06-24_11h43.43.066,LearnStrategy,2023.2.3,Win32,119.047619,7,2,16,,,,,,,,7,14,,,,,,,,,,,7,9.987,1,,,,,,0.153645833,-0.390625,1,0,0,9.987,Peridotite_rect,15,0,15,0,1,
663d0826decc8dc71e4f6ea7,TCR,2024-06-24_11h43.43.066,LearnStrategy,2023.2.3,Win32,119.047619,8,1,1,0.02734375,-0.010416667,1,0,0,1.3631,rock_grid_rect_2,7,02,-1,-1,1.363,-0.36328125,-0.23828125,1,0,0,6.0922,Andesite_rect,1,6.092,0,0,0,0,0,1,,,,,,,,,,,,,
663d0826decc8dc71e4f6ea7,TCR,2024-06-24_11h43.43.066,LearnStrategy,2023.2.3,Win32,119.047619,8,1,2,0.024739583,0.0078125,1,0,0,0.8922,rock_grid_rect_2,2,05,-1,-1,0.892,-0.151041667,-0.255208333,1,0,0,1.7922,Basalt_rect,2,1.792,1,1,0,1,0,1,,,,,,,,,,,,,
663d0826decc8dc71e4f6ea7,TCR,2024-06-24_11h43.43.066,LearnStrategy,2023.2.3,Win32,119.047619,8,1,3,0.041666667,-0.002604167,1,0,0,0.8221,rock_grid_rect_2,4,14,-1,-1,0.822,0.15625,-0.235677083,1,0,0,3.9807,Diorite_rect,3,3.981,0,2,0,2,0,1,,,,,,,,,,,,,
663d0826decc8dc71e4f6ea7,TCR,2024-06-24_11h43.43.066,LearnStrategy,2023.2.3,Win32,119.047619,8,1,4,0.083333333,0.001302083,1,0,0,0.8466,rock_grid_rect_2,3,07,-1,-1,0.847,-0.149739583,-0.389322917,1,0,0,9.6767,Pegmatite_rect,6,9.677,0,3,0,3,0,1,,,,,,,,,,,,,
663d0826decc8dc71e4f6ea7,TCR,2024-06-24_11h43.43.066,LearnStrategy,2023.2.3,Win32,119.047619,8,1,5,0.032552083,-0.014322917,1,0,0,0.9552,rock_grid_rect_2,1,04,-1,-1,0.955,0.134114583,-0.247395833,1,0,0,5.4352,Diorite_rect,3,5.435,0,4,0,4,0,1,,,,,,,,,,,,,
663d0826decc8dc71e4f6ea7,TCR,2024-06-24_11h43.43.066,LearnStrategy,2023.2.3,Win32,119.047619,8,1,6,0.022135417,0,1,0,0,1.0805,rock_grid_rect_2,1,04,-1,-1,1.08,-0.3828125,-0.26171875,1,0,0,1.8429,Andesite_rect,1,1.843,1,5,0,5,0,1,,,,,,,,,,,,,
663d0826decc8dc71e4f6ea7,TCR,2024-06-24_11h43.43.066,LearnStrategy,2023.2.3,Win32,119.047619,8,1,7,0.01171875,-0.013020833,1,0,0,0.9811,rock_grid_rect_2,5,11,-1,-1,0.981,-0.3984375,-0.40234375,1,0,0,1.1192,Obsidian_rect,5,1.119,1,6,0,6,0,1,,,,,,,,,,,,,
663d0826decc8dc71e4f6ea7,TCR,2024-06-24_11h43.43.066,LearnStrategy,2023.2.3,Win32,119.047619,8,1,8,0.028645833,-0.022135417,1,0,0,0.9633,rock_grid_rect_2,7,12,-1,-1,0.963,0.134114583,-0.407552083,1,0,0,6.7022,Peridotite_rect,7,6.702,1,7,0,7,0,1,,,,,,,,,,,,,
663d0826decc8dc71e4f6ea7,TCR,2024-06-24_11h43.43.066,LearnStrategy,2023.2.3,Win32,119.047619,8,1,9,0.087239583,-0.01953125,1,0,0,0.8887,rock_grid_rect_2,4,12,-1,-1,0.889,-0.130208333,-0.260416667,1,0,0,19.048,Basalt_rect,2,19.048,0,8,0,8,0,1,,,,,,,,,,,,,
663d0826decc8dc71e4f6ea7,TCR,2024-06-24_11h43.43.066,LearnStrategy,2023.2.3,Win32,119.047619,8,1,10,0.126302083,0.002604167,1,0,0,0.9557,rock_grid_rect_2,8,10,-1,-1,0.956,0.380208333,-0.411458333,1,0,0,1.2761,Pumice_rect,8,1.276,1,9,0,9,0,1,,,,,,,,,,,,,
663d0826decc8dc71e4f6ea7,TCR,2024-06-24_11h43.43.066,LearnStrategy,2023.2.3,Win32,119.047619,8,1,11,0.072916667,-0.018229167,1,0,0,0.9784,rock_grid_rect_2,6,06,-1,-1,0.978,-0.1484375,-0.408854167,1,0,0,1.4935,Pegmatite_rect,6,1.494,1,10,0,10,0,1,,,,,,,,,,,,,
663d0826decc8dc71e4f6ea7,TCR,2024-06-24_11h43.43.066,LearnStrategy,2023.2.3,Win32,119.047619,8,1,12,0.127604167,-0.022135417,1,0,0,0.997,rock_grid_rect_2,4,12,-1,-1,0.997,0.3984375,-0.234375,1,0,0,2.447,Gabbro_rect,4,2.447,1,11,0,11,0,1,,,,,,,,,,,,,
663d0826decc8dc71e4f6ea7,TCR,2024-06-24_11h43.43.066,LearnStrategy,2023.2.3,Win32,119.047619,8,1,13,0.088541667,-0.015625,1,0,0,1.0797,rock_grid_rect_2,2,06,-1,-1,1.08,-0.389322917,-0.399739583,1,0,0,1.3188,Obsidian_rect,5,1.319,0,12,0,12,0,1,,,,,,,,,,,,,
663d0826decc8dc71e4f6ea7,TCR,2024-06-24_11h43.43.066,LearnStrategy,2023.2.3,Win32,119.047619,8,1,14,0.092447917,-0.01953125,1,0,0,0.9217,rock_grid_rect_2,4,12,-1,-1,0.922,0.458333333,-0.240885417,1,0,0,5.0616,Gabbro_rect,4,5.062,1,13,0,13,0,1,,,,,,,,,,,,,
663d0826decc8dc71e4f6ea7,TCR,2024-06-24_11h43.43.066,LearnStrategy,2023.2.3,Win32,119.047619,8,1,15,0.127604167,-0.014322917,1,0,0,1.0807,rock_grid_rect_2,3,12,-1,-1,1.081,0.171875,-0.23828125,1,0,0,5.8849,Diorite_rect,3,5.885,1,14,0,14,0,1,,,,,,,,,,,,,
663d0826decc8dc71e4f6ea7,TCR,2024-06-24_11h43.43.066,LearnStrategy,2023.2.3,Win32,119.047619,8,1,16,0.095052083,0.016927083,1,0,0,0.872,rock_grid_rect_2,1,03,-1,-1,0.872,0.10546875,-0.251302083,1,0,0,13.0123,Diorite_rect,3,13.012,0,15,0,15,0,1,,,,,,,,,,,,,
663d0826decc8dc71e4f6ea7,TCR,2024-06-24_11h43.43.066,LearnStrategy,2023.2.3,Win32,119.047619,8,2,1,,,,,,,,8,09,,,,,,,,,,,8,2.54,1,,,,,,0.421875,-0.403645833,1,0,0,2.5399,Pumice_rect,0,0,0,0,1,
663d0826decc8dc71e4f6ea7,TCR,2024-06-24_11h43.43.066,LearnStrategy,2023.2.3,Win32,119.047619,8,2,2,,,,,,,,8,13,,,,,,,,,,,8,5.234,1,,,,,,0.3359375,-0.39453125,1,0,0,5.2336,Pumice_rect,1,0,1,0,1,
663d0826decc8dc71e4f6ea7,TCR,2024-06-24_11h43.43.066,LearnStrategy,2023.2.3,Win32,119.047619,8,2,3,,,,,,,,1,06,,,,,,,,,,,7,5.825,0,,,,,,0.18359375,-0.40625,1,0,0,5.8247,Peridotite_rect,2,0,2,0,1,
663d0826decc8dc71e4f6ea7,TCR,2024-06-24_11h43.43.066,LearnStrategy,2023.2.3,Win32,119.047619,8,2,4,,,,,,,,7,13,,,,,,,,,,,4,3.938,0,,,,,,0.373697917,-0.235677083,1,0,0,3.9382,Gabbro_rect,3,0,3,0,1,
663d0826decc8dc71e4f6ea7,TCR,2024-06-24_11h43.43.066,LearnStrategy,2023.2.3,Win32,119.047619,8,2,5,,,,,,,,7,08,,,,,,,,,,,1,6.099,0,,,,,,-0.345052083,-0.243489583,1,0,0,6.0991,Andesite_rect,4,0,4,0,1,
663d0826decc8dc71e4f6ea7,TCR,2024-06-24_11h43.43.066,LearnStrategy,2023.2.3,Win32,119.047619,8,2,6,,,,,,,,1,02,,,,,,,,,,,7,5.359,0,,,,,,0.154947917,-0.393229167,1,0,0,5.359,Peridotite_rect,5,0,5,0,1,
663d0826decc8dc71e4f6ea7,TCR,2024-06-24_11h43.43.066,LearnStrategy,2023.2.3,Win32,119.047619,8,2,7,,,,,,,,5,16,,,,,,,,,,,5,1.351,1,,,,,,-0.376302083,-0.399739583,1,0,0,1.3511,Obsidian_rect,6,0,6,0,1,
663d0826decc8dc71e4f6ea7,TCR,2024-06-24_11h43.43.066,LearnStrategy,2023.2.3,Win32,119.047619,8,2,8,,,,,,,,3,15,,,,,,,,,,,3,1.633,1,,,,,,0.147135417,-0.248697917,1,0,0,1.6335,Diorite_rect,7,0,7,0,1,
663d0826decc8dc71e4f6ea7,TCR,2024-06-24_11h43.43.066,LearnStrategy,2023.2.3,Win32,119.047619,8,2,9,,,,,,,,2,11,,,,,,,,,,,4,10.71,0,,,,,,0.41796875,-0.236979167,1,0,0,10.7103,Gabbro_rect,8,0,8,0,1,
663d0826decc8dc71e4f6ea7,TCR,2024-06-24_11h43.43.066,LearnStrategy,2023.2.3,Win32,119.047619,8,2,10,,,,,,,,4,15,,,,,,,,,,,3,5.269,0,,,,,,0.1796875,-0.259114583,1,0,0,5.2694,Diorite_rect,9,0,9,0,1,
663d0826decc8dc71e4f6ea7,TCR,2024-06-24_11h43.43.066,LearnStrategy,2023.2.3,Win32,119.047619,8,2,11,,,,,,,,5,12,,,,,,,,,,,5,1.176,1,,,,,,-0.391927083,-0.401041667,1,0,0,1.1762,Obsidian_rect,10,0,10,0,1,
663d0826decc8dc71e4f6ea7,TCR,2024-06-24_11h43.43.066,LearnStrategy,2023.2.3,Win32,119.047619,8,2,12,,,,,,,,2,04,,,,,,,,,,,2,1.25,1,,,,,,-0.135416667,-0.229166667,1,0,0,1.25,Basalt_rect,11,0,11,0,1,
663d0826decc8dc71e4f6ea7,TCR,2024-06-24_11h43.43.066,LearnStrategy,2023.2.3,Win32,119.047619,8,2,13,,,,,,,,6,07,,,,,,,,,,,6,1.61,1,,,,,,-0.143229167,-0.412760417,1,0,0,1.6095,Pegmatite_rect,12,0,12,0,1,
663d0826decc8dc71e4f6ea7,TCR,2024-06-24_11h43.43.066,LearnStrategy,2023.2.3,Win32,119.047619,8,2,14,,,,,,,,6,05,,,,,,,,,,,6,2.524,1,,,,,,-0.157552083,-0.3984375,1,0,0,2.5243,Pegmatite_rect,13,0,13,0,1,
663d0826decc8dc71e4f6ea7,TCR,2024-06-24_11h43.43.066,LearnStrategy,2023.2.3,Win32,119.047619,8,2,15,,,,,,,,3,11,,,,,,,,,,,3,1.529,1,,,,,,0.139322917,-0.25390625,1,0,0,1.5291,Diorite_rect,14,0,14,0,1,
663d0826decc8dc71e4f6ea7,TCR,2024-06-24_11h43.43.066,LearnStrategy,2023.2.3,Win32,119.047619,8,2,16,,,,,,,,4,01,,,,,,,,,,,4,17.813,1,,,,,,0.399739583,-0.23828125,1,0,0,17.813,Gabbro_rect,15,0,15,0,1,
663d0826decc8dc71e4f6ea7,TCR,2024-06-24_11h43.43.066,LearnStrategy,2023.2.3,Win32,119.047619,9,1,1,0.03125,0.01171875,1,0,0,1.0801,rock_grid_rect_2,8,04,-1,-1,1.08,0.397135417,-0.381510417,1,0,0,1.7276,Pumice_rect,8,1.728,1,0,0,0,0,1,,,,,,,,,,,,,
663d0826decc8dc71e4f6ea7,TCR,2024-06-24_11h43.43.066,LearnStrategy,2023.2.3,Win32,119.047619,9,1,2,0.079427083,0.015625,1,0,0,0.9551,rock_grid_rect_2,1,01,-1,-1,0.955,0.149739583,-0.404947917,1,0,0,4.5646,Peridotite_rect,7,4.565,0,1,0,1,0,1,,,,,,,,,,,,,
663d0826decc8dc71e4f6ea7,TCR,2024-06-24_11h43.43.066,LearnStrategy,2023.2.3,Win32,119.047619,9,1,3,0.12109375,0.01953125,1,0,0,0.8546,rock_grid_rect_2,2,02,-1,-1,0.855,-0.091145833,-0.236979167,1,0,0,1.446,Basalt_rect,2,1.446,1,2,0,2,0,1,,,,,,,,,,,,,
663d0826decc8dc71e4f6ea7,TCR,2024-06-24_11h43.43.066,LearnStrategy,2023.2.3,Win32,119.047619,9,1,4,0.1171875,0,1,0,0,0.8961,rock_grid_rect_2,6,16,-1,-1,0.896,-0.14453125,-0.420572917,1,0,0,1.1457,Pegmatite_rect,6,1.146,1,3,0,3,0,1,,,,,,,,,,,,,
663d0826decc8dc71e4f6ea7,TCR,2024-06-24_11h43.43.066,LearnStrategy,2023.2.3,Win32,119.047619,9,1,5,0.109375,-0.01171875,1,0,0,0.8302,rock_grid_rect_2,1,04,-1,-1,0.83,-0.380208333,-0.233072917,1,0,0,8.3218,Andesite_rect,1,8.322,1,4,0,4,0,1,,,,,,,,,,,,,
663d0826decc8dc71e4f6ea7,TCR,2024-06-24_11h43.43.066,LearnStrategy,2023.2.3,Win32,119.047619,9,1,6,0.131510417,-0.020833333,1,0,0,0.9803,rock_grid_rect_2,7,04,-1,-1,0.98,-0.369791667,-0.233072917,1,0,0,7.9012,Andesite_rect,1,7.901,0,5,0,5,0,1,,,,,,,,,,,,,
663d0826decc8dc71e4f6ea7,TCR,2024-06-24_11h43.43.066,LearnStrategy,2023.2.3,Win32,119.047619,9,1,7,0.143229167,0.010416667,1,0,0,0.8422,rock_grid_rect_2,2,05,-1,-1,0.842,-0.130208333,-0.234375,1,0,0,1.3753,Basalt_rect,2,1.375,1,6,0,6,0,1,,,,,,,,,,,,,
663d0826decc8dc71e4f6ea7,TCR,2024-06-24_11h43.43.066,LearnStrategy,2023.2.3,Win32,119.047619,9,1,8,0.108072917,-0.024739583,1,0,0,0.7734,rock_grid_rect_2,5,10,-1,-1,0.773,-0.420572917,-0.40234375,1,0,0,1.0762,Obsidian_rect,5,1.076,1,7,0,7,0,1,,,,,,,,,,,,,
663d0826decc8dc71e4f6ea7,TCR,2024-06-24_11h43.43.066,LearnStrategy,2023.2.3,Win32,119.047619,9,1,9,0.115885417,-0.002604167,1,0,0,0.7802,rock_grid_rect_2,7,16,-1,-1,0.78,0.119791667,-0.412760417,1,0,0,16.0516,Peridotite_rect,7,16.052,1,8,0,8,0,1,,,,,,,,,,,,,
663d0826decc8dc71e4f6ea7,TCR,2024-06-24_11h43.43.066,LearnStrategy,2023.2.3,Win32,119.047619,9,1,10,0.044270833,-0.005208333,1,0,0,1.2131,rock_grid_rect_2,4,16,-1,-1,1.213,0.397135417,-0.26171875,1,0,0,3.8871,Gabbro_rect,4,3.887,1,9,0,9,0,1,,,,,,,,,,,,,
663d0826decc8dc71e4f6ea7,TCR,2024-06-24_11h43.43.066,LearnStrategy,2023.2.3,Win32,119.047619,9,1,11,0.10546875,-0.016927083,1,0,0,1.1217,rock_grid_rect_2,1,04,-1,-1,1.122,-0.372395833,-0.255208333,1,0,0,12.7331,Andesite_rect,1,12.733,1,10,0,10,0,1,,,,,,,,,,,,,
663d0826decc8dc71e4f6ea7,TCR,2024-06-24_11h43.43.066,LearnStrategy,2023.2.3,Win32,119.047619,9,1,12,0.108072917,-0.010416667,1,0,0,0.9969,rock_grid_rect_2,4,12,-1,-1,0.997,0.4453125,-0.255208333,1,0,0,7.8224,Gabbro_rect,4,7.822,1,11,0,11,0,1,,,,,,,,,,,,,
663d0826decc8dc71e4f6ea7,TCR,2024-06-24_11h43.43.066,LearnStrategy,2023.2.3,Win32,119.047619,9,1,13,0.091145833,-0.013020833,1,0,0,1.0632,rock_grid_rect_2,3,08,-1,-1,1.063,0.173177083,-0.240885417,1,0,0,1.8642,Diorite_rect,3,1.864,1,12,0,12,0,1,,,,,,,,,,,,,
663d0826decc8dc71e4f6ea7,TCR,2024-06-24_11h43.43.066,LearnStrategy,2023.2.3,Win32,119.047619,9,1,14,0.09375,-0.014322917,1,0,0,1.0626,rock_grid_rect_2,1,03,-1,-1,1.063,0.108072917,-0.3984375,1,0,0,9.0225,Peridotite_rect,7,9.023,0,13,0,13,0,1,,,,,,,,,,,,,
663d0826decc8dc71e4f6ea7,TCR,2024-06-24_11h43.43.066,LearnStrategy,2023.2.3,Win32,119.047619,9,1,15,0.201822917,0.013020833,1,0,0,0.8056,rock_grid_rect_2,4,12,-1,-1,0.806,0.434895833,-0.2421875,1,0,0,1.7585,Gabbro_rect,4,1.758,1,14,0,14,0,1,,,,,,,,,,,,,
663d0826decc8dc71e4f6ea7,TCR,2024-06-24_11h43.43.066,LearnStrategy,2023.2.3,Win32,119.047619,9,1,16,0.111979167,-0.0078125,1,0,0,0.9132,rock_grid_rect_2,7,12,-1,-1,0.913,0.1171875,-0.389322917,1,0,0,4.3638,Peridotite_rect,7,4.364,1,15,0,15,0,1,,,,,,,,,,,,,
663d0826decc8dc71e4f6ea7,TCR,2024-06-24_11h43.43.066,LearnStrategy,2023.2.3,Win32,119.047619,9,2,1,,,,,,,,7,06,,,,,,,,,,,7,10.686,1,,,,,,0.12890625,-0.401041667,1,0,0,10.6862,Peridotite_rect,0,0,0,0,1,
663d0826decc8dc71e4f6ea7,TCR,2024-06-24_11h43.43.066,LearnStrategy,2023.2.3,Win32,119.047619,9,2,2,,,,,,,,8,16,,,,,,,,,,,8,4.212,1,,,,,,0.446614583,-0.407552083,1,0,0,4.2122,Pumice_rect,1,0,1,0,1,
663d0826decc8dc71e4f6ea7,TCR,2024-06-24_11h43.43.066,LearnStrategy,2023.2.3,Win32,119.047619,9,2,3,,,,,,,,3,09,,,,,,,,,,,3,2.139,1,,,,,,0.15234375,-0.251302083,1,0,0,2.1392,Diorite_rect,2,0,2,0,1,
663d0826decc8dc71e4f6ea7,TCR,2024-06-24_11h43.43.066,LearnStrategy,2023.2.3,Win32,119.047619,9,2,4,,,,,,,,2,01,,,,,,,,,,,2,1.692,1,,,,,,-0.084635417,-0.25,1,0,0,1.6918,Basalt_rect,3,0,3,0,1,
663d0826decc8dc71e4f6ea7,TCR,2024-06-24_11h43.43.066,LearnStrategy,2023.2.3,Win32,119.047619,9,2,5,,,,,,,,6,08,,,,,,,,,,,6,1.161,1,,,,,,-0.12890625,-0.412760417,1,0,0,1.1614,Pegmatite_rect,4,0,4,0,1,
663d0826decc8dc71e4f6ea7,TCR,2024-06-24_11h43.43.066,LearnStrategy,2023.2.3,Win32,119.047619,9,2,6,,,,,,,,1,07,,,,,,,,,,,1,4.471,1,,,,,,-0.397135417,-0.25,1,0,0,4.4713,Andesite_rect,5,0,5,0,1,
663d0826decc8dc71e4f6ea7,TCR,2024-06-24_11h43.43.066,LearnStrategy,2023.2.3,Win32,119.047619,9,2,7,,,,,,,,1,11,,,,,,,,,,,6,2.699,0,,,,,,-0.1328125,-0.403645833,1,0,0,2.6986,Pegmatite_rect,6,0,6,0,1,
663d0826decc8dc71e4f6ea7,TCR,2024-06-24_11h43.43.066,LearnStrategy,2023.2.3,Win32,119.047619,9,2,8,,,,,,,,2,10,,,,,,,,,,,2,3.081,1,,,,,,-0.11328125,-0.251302083,1,0,0,3.0812,Basalt_rect,7,0,7,0,1,
663d0826decc8dc71e4f6ea7,TCR,2024-06-24_11h43.43.066,LearnStrategy,2023.2.3,Win32,119.047619,9,2,9,,,,,,,,8,14,,,,,,,,,,,8,3.414,1,,,,,,0.408854167,-0.385416667,1,0,0,3.4142,Pumice_rect,8,0,8,0,1,
663d0826decc8dc71e4f6ea7,TCR,2024-06-24_11h43.43.066,LearnStrategy,2023.2.3,Win32,119.047619,9,2,10,,,,,,,,4,08,,,,,,,,,,,4,25.551,1,,,,,,0.432291667,-0.252604167,1,0,0,25.5507,Gabbro_rect,9,0,9,0,1,
663d0826decc8dc71e4f6ea7,TCR,2024-06-24_11h43.43.066,LearnStrategy,2023.2.3,Win32,119.047619,9,2,11,,,,,,,,3,02,,,,,,,,,,,3,1.4,1,,,,,,0.170572917,-0.266927083,1,0,0,1.3999,Diorite_rect,10,0,10,0,1,
663d0826decc8dc71e4f6ea7,TCR,2024-06-24_11h43.43.066,LearnStrategy,2023.2.3,Win32,119.047619,9,2,12,,,,,,,,4,03,,,,,,,,,,,4,3.598,1,,,,,,0.384114583,-0.243489583,1,0,0,3.5978,Gabbro_rect,11,0,11,0,1,
663d0826decc8dc71e4f6ea7,TCR,2024-06-24_11h43.43.066,LearnStrategy,2023.2.3,Win32,119.047619,9,2,13,,,,,,,,5,05,,,,,,,,,,,5,1.459,1,,,,,,-0.440104167,-0.412760417,1,0,0,1.4589,Obsidian_rect,12,0,12,0,1,
663d0826decc8dc71e4f6ea7,TCR,2024-06-24_11h43.43.066,LearnStrategy,2023.2.3,Win32,119.047619,9,2,14,,,,,,,,5,07,,,,,,,,,,,5,0.835,1,,,,,,-0.428385417,-0.3984375,1,0,0,0.8348,Obsidian_rect,13,0,13,0,1,
663d0826decc8dc71e4f6ea7,TCR,2024-06-24_11h43.43.066,LearnStrategy,2023.2.3,Win32,119.047619,9,2,15,,,,,,,,7,10,,,,,,,,,,,7,8.159,1,,,,,,0.16796875,-0.39453125,1,0,0,8.1587,Peridotite_rect,14,0,14,0,1,
663d0826decc8dc71e4f6ea7,TCR,2024-06-24_11h43.43.066,LearnStrategy,2023.2.3,Win32,119.047619,9,2,16,,,,,,,,6,11,,,,,,,,,,,6,1.805,1,,,,,,-0.104166667,-0.407552083,1,0,0,1.8053,Pegmatite_rect,15,0,15,0,1,
663d0826decc8dc71e4f6ea7,TCR,2024-06-24_11h43.43.066,LearnStrategy,2023.2.3,Win32,119.047619,,,,,,,,,,,,,,,,,,,,,,,,,,,,,,,,,,,,,,,,,,,1
663d0826decc8dc71e4f6ea7,TCR,2024-06-24_11h43.43.066,LearnStrategy,2023.2.3,Win32,119.047619,,,,,,,,,,,,,,,,,,,,,,,,,,,,,,,,,,,,,,,,,,,
663d0826decc8dc71e4f6ea7,TCR,2024-06-24_11h43.43.066,LearnStrategy,2023.2.3,Win32,119.047619,,,,,,,,,,,8,03,1,1,,,,,,,,,,,,,,,,,,,,,,,,,,,,,
663d0826decc8dc71e4f6ea7,TCR,2024-06-24_11h43.43.066,LearnStrategy,2023.2.3,Win32,119.047619,,,,,,,,,,,8,10,1,2,,,,,,,,,,,,,,,,,,,,,,,,,,,,,
663d0826decc8dc71e4f6ea7,TCR,2024-06-24_11h43.43.066,LearnStrategy,2023.2.3,Win32,119.047619,,,,,,,,,,,8,02,1,3,,,,,,,,,,,,,,,,,,,,,,,,,,,,,
663d0826decc8dc71e4f6ea7,TCR,2024-06-24_11h43.43.066,LearnStrategy,2023.2.3,Win32,119.047619,,,,,,,,,,,2,16,1,4,,,,,,,,,,,,,,,,,,,,,,,,,,,,,
663d0826decc8dc71e4f6ea7,TCR,2024-06-24_11h43.43.066,LearnStrategy,2023.2.3,Win32,119.047619,,,,,,,,,,,5,14,1,5,,,,,,,,,,,,,,,,,,,,,,,,,,,,,
663d0826decc8dc71e4f6ea7,TCR,2024-06-24_11h43.43.066,LearnStrategy,2023.2.3,Win32,119.047619,,,,,,,,,,,4,11,1,6,,,,,,,,,,,,,,,,,,,,,,,,,,,,,
663d0826decc8dc71e4f6ea7,TCR,2024-06-24_11h43.43.066,LearnStrategy,2023.2.3,Win32,119.047619,,,,,,,,,,,5,11,1,7,,,,,,,,,,,,,,,,,,,,,,,,,,,,,
663d0826decc8dc71e4f6ea7,TCR,2024-06-24_11h43.43.066,LearnStrategy,2023.2.3,Win32,119.047619,,,,,,,,,,,5,09,1,8,,,,,,,,,,,,,,,,,,,,,,,,,,,,,
663d0826decc8dc71e4f6ea7,TCR,2024-06-24_11h43.43.066,LearnStrategy,2023.2.3,Win32,119.047619,,,,,,,,,,,1,16,2,1,,,,,,,,,,,,,,,,,,,,,,,,,,,,,
663d0826decc8dc71e4f6ea7,TCR,2024-06-24_11h43.43.066,LearnStrategy,2023.2.3,Win32,119.047619,,,,,,,,,,,1,09,2,2,,,,,,,,,,,,,,,,,,,,,,,,,,,,,
663d0826decc8dc71e4f6ea7,TCR,2024-06-24_11h43.43.066,LearnStrategy,2023.2.3,Win32,119.047619,,,,,,,,,,,7,15,2,3,,,,,,,,,,,,,,,,,,,,,,,,,,,,,
663d0826decc8dc71e4f6ea7,TCR,2024-06-24_11h43.43.066,LearnStrategy,2023.2.3,Win32,119.047619,,,,,,,,,,,2,05,2,4,,,,,,,,,,,,,,,,,,,,,,,,,,,,,
663d0826decc8dc71e4f6ea7,TCR,2024-06-24_11h43.43.066,LearnStrategy,2023.2.3,Win32,119.047619,,,,,,,,,,,1,01,2,5,,,,,,,,,,,,,,,,,,,,,,,,,,,,,
663d0826decc8dc71e4f6ea7,TCR,2024-06-24_11h43.43.066,LearnStrategy,2023.2.3,Win32,119.047619,,,,,,,,,,,6,13,2,6,,,,,,,,,,,,,,,,,,,,,,,,,,,,,
663d0826decc8dc71e4f6ea7,TCR,2024-06-24_11h43.43.066,LearnStrategy,2023.2.3,Win32,119.047619,,,,,,,,,,,6,09,2,7,,,,,,,,,,,,,,,,,,,,,,,,,,,,,
663d0826decc8dc71e4f6ea7,TCR,2024-06-24_11h43.43.066,LearnStrategy,2023.2.3,Win32,119.047619,,,,,,,,,,,6,12,2,8,,,,,,,,,,,,,,,,,,,,,,,,,,,,,
663d0826decc8dc71e4f6ea7,TCR,2024-06-24_11h43.43.066,LearnStrategy,2023.2.3,Win32,119.047619,,,,,,,,,,,7,12,3,1,,,,,,,,,,,,,,,,,,,,,,,,,,,,,
663d0826decc8dc71e4f6ea7,TCR,2024-06-24_11h43.43.066,LearnStrategy,2023.2.3,Win32,119.047619,,,,,,,,,,,4,13,3,2,,,,,,,,,,,,,,,,,,,,,,,,,,,,,
663d0826decc8dc71e4f6ea7,TCR,2024-06-24_11h43.43.066,LearnStrategy,2023.2.3,Win32,119.047619,,,,,,,,,,,1,04,3,3,,,,,,,,,,,,,,,,,,,,,,,,,,,,,
663d0826decc8dc71e4f6ea7,TCR,2024-06-24_11h43.43.066,LearnStrategy,2023.2.3,Win32,119.047619,,,,,,,,,,,5,08,3,4,,,,,,,,,,,,,,,,,,,,,,,,,,,,,
663d0826decc8dc71e4f6ea7,TCR,2024-06-24_11h43.43.066,LearnStrategy,2023.2.3,Win32,119.047619,,,,,,,,,,,2,09,3,5,,,,,,,,,,,,,,,,,,,,,,,,,,,,,
663d0826decc8dc71e4f6ea7,TCR,2024-06-24_11h43.43.066,LearnStrategy,2023.2.3,Win32,119.047619,,,,,,,,,,,3,08,3,6,,,,,,,,,,,,,,,,,,,,,,,,,,,,,
663d0826decc8dc71e4f6ea7,TCR,2024-06-24_11h43.43.066,LearnStrategy,2023.2.3,Win32,119.047619,,,,,,,,,,,3,14,3,7,,,,,,,,,,,,,,,,,,,,,,,,,,,,,
663d0826decc8dc71e4f6ea7,TCR,2024-06-24_11h43.43.066,LearnStrategy,2023.2.3,Win32,119.047619,,,,,,,,,,,2,12,3,8,,,,,,,,,,,,,,,,,,,,,,,,,,,,,
663d0826decc8dc71e4f6ea7,TCR,2024-06-24_11h43.43.066,LearnStrategy,2023.2.3,Win32,119.047619,,,,,,,,,,,4,14,4,1,,,,,,,,,,,,,,,,,,,,,,,,,,,,,
663d0826decc8dc71e4f6ea7,TCR,2024-06-24_11h43.43.066,LearnStrategy,2023.2.3,Win32,119.047619,,,,,,,,,,,7,05,4,2,,,,,,,,,,,,,,,,,,,,,,,,,,,,,
663d0826decc8dc71e4f6ea7,TCR,2024-06-24_11h43.43.066,LearnStrategy,2023.2.3,Win32,119.047619,,,,,,,,,,,7,02,4,3,,,,,,,,,,,,,,,,,,,,,,,,,,,,,
663d0826decc8dc71e4f6ea7,TCR,2024-06-24_11h43.43.066,LearnStrategy,2023.2.3,Win32,119.047619,,,,,,,,,,,6,06,4,4,,,,,,,,,,,,,,,,,,,,,,,,,,,,,
663d0826decc8dc71e4f6ea7,TCR,2024-06-24_11h43.43.066,LearnStrategy,2023.2.3,Win32,119.047619,,,,,,,,,,,4,12,4,5,,,,,,,,,,,,,,,,,,,,,,,,,,,,,
663d0826decc8dc71e4f6ea7,TCR,2024-06-24_11h43.43.066,LearnStrategy,2023.2.3,Win32,119.047619,,,,,,,,,,,7,16,4,6,,,,,,,,,,,,,,,,,,,,,,,,,,,,,
663d0826decc8dc71e4f6ea7,TCR,2024-06-24_11h43.43.066,LearnStrategy,2023.2.3,Win32,119.047619,,,,,,,,,,,3,12,4,7,,,,,,,,,,,,,,,,,,,,,,,,,,,,,
663d0826decc8dc71e4f6ea7,TCR,2024-06-24_11h43.43.066,LearnStrategy,2023.2.3,Win32,119.047619,,,,,,,,,,,8,06,4,8,,,,,,,,,,,,,,,,,,,,,,,,,,,,,
663d0826decc8dc71e4f6ea7,TCR,2024-06-24_11h43.43.066,LearnStrategy,2023.2.3,Win32,119.047619,,,,,,,,,,,6,16,5,1,,,,,,,,,,,,,,,,,,,,,,,,,,,,,
663d0826decc8dc71e4f6ea7,TCR,2024-06-24_11h43.43.066,LearnStrategy,2023.2.3,Win32,119.047619,,,,,,,,,,,8,04,5,2,,,,,,,,,,,,,,,,,,,,,,,,,,,,,
663d0826decc8dc71e4f6ea7,TCR,2024-06-24_11h43.43.066,LearnStrategy,2023.2.3,Win32,119.047619,,,,,,,,,,,3,16,5,3,,,,,,,,,,,,,,,,,,,,,,,,,,,,,
663d0826decc8dc71e4f6ea7,TCR,2024-06-24_11h43.43.066,LearnStrategy,2023.2.3,Win32,119.047619,,,,,,,,,,,4,16,5,4,,,,,,,,,,,,,,,,,,,,,,,,,,,,,
663d0826decc8dc71e4f6ea7,TCR,2024-06-24_11h43.43.066,LearnStrategy,2023.2.3,Win32,119.047619,,,,,,,,,,,3,07,5,5,,,,,,,,,,,,,,,,,,,,,,,,,,,,,
663d0826decc8dc71e4f6ea7,TCR,2024-06-24_11h43.43.066,LearnStrategy,2023.2.3,Win32,119.047619,,,,,,,,,,,6,15,5,6,,,,,,,,,,,,,,,,,,,,,,,,,,,,,
663d0826decc8dc71e4f6ea7,TCR,2024-06-24_11h43.43.066,LearnStrategy,2023.2.3,Win32,119.047619,,,,,,,,,,,1,03,5,7,,,,,,,,,,,,,,,,,,,,,,,,,,,,,
663d0826decc8dc71e4f6ea7,TCR,2024-06-24_11h43.43.066,LearnStrategy,2023.2.3,Win32,119.047619,,,,,,,,,,,5,02,5,8,,,,,,,,,,,,,,,,,,,,,,,,,,,,,
663d0826decc8dc71e4f6ea7,TCR,2024-06-24_11h43.43.066,LearnStrategy,2023.2.3,Win32,119.047619,,,,,,,,,,,2,02,6,1,,,,,,,,,,,,,,,,,,,,,,,,,,,,,
663d0826decc8dc71e4f6ea7,TCR,2024-06-24_11h43.43.066,LearnStrategy,2023.2.3,Win32,119.047619,,,,,,,,,,,2,06,6,2,,,,,,,,,,,,,,,,,,,,,,,,,,,,,
663d0826decc8dc71e4f6ea7,TCR,2024-06-24_11h43.43.066,LearnStrategy,2023.2.3,Win32,119.047619,,,,,,,,,,,8,05,6,3,,,,,,,,,,,,,,,,,,,,,,,,,,,,,
663d0826decc8dc71e4f6ea7,TCR,2024-06-24_11h43.43.066,LearnStrategy,2023.2.3,Win32,119.047619,,,,,,,,,,,7,04,6,4,,,,,,,,,,,,,,,,,,,,,,,,,,,,,
663d0826decc8dc71e4f6ea7,TCR,2024-06-24_11h43.43.066,LearnStrategy,2023.2.3,Win32,119.047619,,,,,,,,,,,3,13,6,5,,,,,,,,,,,,,,,,,,,,,,,,,,,,,
663d0826decc8dc71e4f6ea7,TCR,2024-06-24_11h43.43.066,LearnStrategy,2023.2.3,Win32,119.047619,,,,,,,,,,,5,10,6,6,,,,,,,,,,,,,,,,,,,,,,,,,,,,,
663d0826decc8dc71e4f6ea7,TCR,2024-06-24_11h43.43.066,LearnStrategy,2023.2.3,Win32,119.047619,,,,,,,,,,,4,05,6,7,,,,,,,,,,,,,,,,,,,,,,,,,,,,,
663d0826decc8dc71e4f6ea7,TCR,2024-06-24_11h43.43.066,LearnStrategy,2023.2.3,Win32,119.047619,,,,,,,,,,,1,05,6,8,,,,,,,,,,,,,,,,,,,,,,,,,,,,,