participant,condition,date,expName,psychopyVersion,OS,frameRate,block,phase,trial,learn_mouse.x,learn_mouse.y,learn_mouse.leftButton,learn_mouse.midButton,learn_mouse.rightButton,learn_mouse.time,learn_mouse.clicked_name,cat,token,row,col,t_select,cat_mouse_l.x,cat_mouse_l.y,cat_mouse_l.leftButton,cat_mouse_l.midButton,cat_mouse_l.rightButton,cat_mouse_l.time,cat_mouse_l.clicked_name,resp,t_resp,corr,train_trials.thisRepN,train_trials.thisTrialN,train_trials.thisN,train_trials.thisIndex,train_trials.ran,cat_mouse_t.x,cat_mouse_t.y,cat_mouse_t.leftButton,cat_mouse_t.midButton,cat_mouse_t.rightButton,cat_mouse_t.time,cat_mouse_t.clicked_name,test_trials.thisRepN,test_trials.thisTrialN,test_trials.thisN,test_trials.thisIndex,test_trials.ran,Bonus
663e783bcd1ddd00b1970565,SCN,2024-06-24_13h53.24.804,LearnStrategy,2023.2.3,Win32,60.24096386,,,,,,,,,,,,,,,,,,,,,,,,,,,,,,,,,,,,,,,,,,,
663e783bcd1ddd00b1970565,SCN,2024-06-24_13h53.24.804,LearnStrategy,2023.2.3,Win32,60.24096386,1,1,1,-0.239814829,0.37037037,1,0,0,20.9973,Pumice_06,8,06,6,3,20.997,0.3648149,-0.400000042,1,0,0,5.3711,Pumice_rect,8,5.371,1,0,0,0,0,1,,,,,,,,,,,,,
663e783bcd1ddd00b1970565,SCN,2024-06-24_13h53.24.804,LearnStrategy,2023.2.3,Win32,60.24096386,1,1,2,0.231481481,0.12037037,1,0,0,6.5233,Diorite_09,3,09,4,6,6.523,-0.087962963,-0.417592578,1,0,0,6.1348,Pegmatite_rect,6,6.135,0,1,0,1,0,1,,,,,,,,,,,,,
663e783bcd1ddd00b1970565,SCN,2024-06-24_13h53.24.804,LearnStrategy,2023.2.3,Win32,60.24096386,1,1,3,-0.390740748,0.208333333,1,0,0,4.894,Peridotite_14,7,14,5,2,4.894,0.127777806,-0.242592635,1,0,0,4.5019,Diorite_rect,3,4.502,0,2,0,2,0,1,,,,,,,,,,,,,
663e783bcd1ddd00b1970565,SCN,2024-06-24_13h53.24.804,LearnStrategy,2023.2.3,Win32,60.24096386,1,1,4,0.407407407,-0.389814801,1,0,0,4.6193,Obsidian_14,5,14,1,7,4.619,-0.371296282,-0.410185213,1,0,0,4.8791,Obsidian_rect,5,4.879,1,3,0,3,0,1,,,,,,,,,,,,,
663e783bcd1ddd00b1970565,SCN,2024-06-24_13h53.24.804,LearnStrategy,2023.2.3,Win32,60.24096386,1,1,5,-0.080555527,-0.248148176,1,0,0,3.5606,Pegmatite_13,6,13,2,4,3.561,-0.377777771,-0.261111153,1,0,0,6.1479,Andesite_rect,1,6.148,0,4,0,4,0,1,,,,,,,,,,,,,
663e783bcd1ddd00b1970565,SCN,2024-06-24_13h53.24.804,LearnStrategy,2023.2.3,Win32,60.24096386,1,1,6,-0.541666667,0.081481474,1,0,0,2.0477,Gabbro_16,4,16,4,1,2.048,-0.084259245,-0.260185171,1,0,0,5.2857,Basalt_rect,2,5.286,0,5,0,5,0,1,,,,,,,,,,,,,
663e783bcd1ddd00b1970565,SCN,2024-06-24_13h53.24.804,LearnStrategy,2023.2.3,Win32,60.24096386,1,1,7,-0.060185185,0.267592589,1,0,0,7.9603,Andesite_11,1,11,5,4,7.96,0.17777782,-0.395370413,1,0,0,4.947,Peridotite_rect,7,4.947,0,6,0,6,0,1,,,,,,,,,,,,,
663e783bcd1ddd00b1970565,SCN,2024-06-24_13h53.24.804,LearnStrategy,2023.2.3,Win32,60.24096386,1,1,8,0.562037009,0.299999996,1,0,0,4.6486,Gabbro_11,4,11,5,8,4.649,-0.195370356,-0.393518519,1,0,0,19.6326,Pegmatite_rect,6,19.633,0,7,0,7,0,1,,,,,,,,,,,,,
663e783bcd1ddd00b1970565,SCN,2024-06-24_13h53.24.804,LearnStrategy,2023.2.3,Win32,60.24096386,1,1,9,-0.09629631,0.424999996,1,0,0,4.944,Pegmatite_09,6,09,6,4,4.944,-0.157407407,-0.252777806,1,0,0,5.2065,Basalt_rect,2,5.207,0,8,0,8,0,1,,,,,,,,,,,,,
663e783bcd1ddd00b1970565,SCN,2024-06-24_13h53.24.804,LearnStrategy,2023.2.3,Win32,60.24096386,1,1,10,-0.542592578,-0.255555541,1,0,0,2.4058,Basalt_16,2,16,2,1,2.406,-0.150925884,-0.237963005,1,0,0,6.4779,Basalt_rect,2,6.478,1,9,0,9,0,1,,,,,,,,,,,,,
663e783bcd1ddd00b1970565,SCN,2024-06-24_13h53.24.804,LearnStrategy,2023.2.3,Win32,60.24096386,1,1,11,0.424074102,-0.100000028,1,0,0,2.8055,Pegmatite_03,6,03,3,7,2.805,-0.142592607,-0.39907406,1,0,0,3.6273,Pegmatite_rect,6,3.627,1,10,0,10,0,1,,,,,,,,,,,,,
663e783bcd1ddd00b1970565,SCN,2024-06-24_13h53.24.804,LearnStrategy,2023.2.3,Win32,60.24096386,1,1,12,-0.38703703,-0.09629631,1,0,0,4.9649,Peridotite_16,7,16,3,2,4.965,0.094444487,-0.248148176,1,0,0,3.1921,Diorite_rect,3,3.192,0,11,0,11,0,1,,,,,,,,,,,,,
663e783bcd1ddd00b1970565,SCN,2024-06-24_13h53.24.804,LearnStrategy,2023.2.3,Win32,60.24096386,1,1,13,0.415740826,0.077777757,1,0,0,1.7108,Basalt_12,2,12,4,7,1.711,0.405555584,-0.406481496,1,0,0,3.8744,Pumice_rect,8,3.874,0,12,0,12,0,1,,,,,,,,,,,,,
663e783bcd1ddd00b1970565,SCN,2024-06-24_13h53.24.804,LearnStrategy,2023.2.3,Win32,60.24096386,1,1,14,0.584259316,-0.106481481,1,0,0,2.0252,Diorite_11,3,11,3,8,2.025,0.073148162,-0.389814801,1,0,0,4.1108,Peridotite_rect,7,4.111,0,13,0,13,0,1,,,,,,,,,,,,,
663e783bcd1ddd00b1970565,SCN,2024-06-24_13h53.24.804,LearnStrategy,2023.2.3,Win32,60.24096386,1,1,15,-0.383333312,-0.39907406,1,0,0,2.1389,Pumice_10,8,10,1,2,2.139,0.164814843,-0.240740741,1,0,0,3.8936,Diorite_rect,3,3.894,0,14,0,14,0,1,,,,,,,,,,,,,
663e783bcd1ddd00b1970565,SCN,2024-06-24_13h53.24.804,LearnStrategy,2023.2.3,Win32,60.24096386,1,1,16,0.540740826,-0.268518519,1,0,0,2.0863,Pegmatite_06,6,06,2,8,2.086,0.145370413,-0.407407407,1,0,0,3.3725,Peridotite_rect,7,3.373,0,15,0,15,0,1,,,,,,,,,,,,,
663e783bcd1ddd00b1970565,SCN,2024-06-24_13h53.24.804,LearnStrategy,2023.2.3,Win32,60.24096386,1,2,1,,,,,,,,8,13,,,,,,,,,,,3,4.049,0,,,,,,0.133333347,-0.25462963,1,0,0,4.0492,Diorite_rect,0,0,0,0,1,
663e783bcd1ddd00b1970565,SCN,2024-06-24_13h53.24.804,LearnStrategy,2023.2.3,Win32,60.24096386,1,2,2,,,,,,,,8,02,,,,,,,,,,,8,4.099,1,,,,,,0.3648149,-0.405555584,1,0,0,4.0993,Pumice_rect,1,0,1,0,1,
663e783bcd1ddd00b1970565,SCN,2024-06-24_13h53.24.804,LearnStrategy,2023.2.3,Win32,60.24096386,1,2,3,,,,,,,,6,08,,,,,,,,,,,6,4.285,1,,,,,,-0.070370356,-0.411111125,1,0,0,4.2846,Pegmatite_rect,2,0,2,0,1,
663e783bcd1ddd00b1970565,SCN,2024-06-24_13h53.24.804,LearnStrategy,2023.2.3,Win32,60.24096386,1,2,4,,,,,,,,2,09,,,,,,,,,,,2,4.375,1,,,,,,-0.156481496,-0.237963005,1,0,0,4.3751,Basalt_rect,3,0,3,0,1,
663e783bcd1ddd00b1970565,SCN,2024-06-24_13h53.24.804,LearnStrategy,2023.2.3,Win32,60.24096386,1,2,5,,,,,,,,2,10,,,,,,,,,,,2,7.125,1,,,,,,-0.146296254,-0.262962977,1,0,0,7.125,Basalt_rect,4,0,4,0,1,
663e783bcd1ddd00b1970565,SCN,2024-06-24_13h53.24.804,LearnStrategy,2023.2.3,Win32,60.24096386,1,2,6,,,,,,,,3,10,,,,,,,,,,,7,5.35,0,,,,,,0.088888875,-0.408333319,1,0,0,5.3498,Peridotite_rect,5,0,5,0,1,
663e783bcd1ddd00b1970565,SCN,2024-06-24_13h53.24.804,LearnStrategy,2023.2.3,Win32,60.24096386,1,2,7,,,,,,,,5,02,,,,,,,,,,,5,2.562,1,,,,,,-0.388888889,-0.385185171,1,0,0,2.5618,Obsidian_rect,6,0,6,0,1,
663e783bcd1ddd00b1970565,SCN,2024-06-24_13h53.24.804,LearnStrategy,2023.2.3,Win32,60.24096386,1,2,8,,,,,,,,1,01,,,,,,,,,,,1,8.942,1,,,,,,-0.381481489,-0.237963005,1,0,0,8.9417,Andesite_rect,7,0,7,0,1,
663e783bcd1ddd00b1970565,SCN,2024-06-24_13h53.24.804,LearnStrategy,2023.2.3,Win32,60.24096386,1,2,9,,,,,,,,5,16,,,,,,,,,,,5,1.784,1,,,,,,-0.39444443,-0.410185213,1,0,0,1.784,Obsidian_rect,8,0,8,0,1,
663e783bcd1ddd00b1970565,SCN,2024-06-24_13h53.24.804,LearnStrategy,2023.2.3,Win32,60.24096386,1,2,10,,,,,,,,1,04,,,,,,,,,,,3,99.371,0,,,,,,0.093518504,-0.253703718,1,0,0,99.3708,Diorite_rect,9,0,9,0,1,
663e783bcd1ddd00b1970565,SCN,2024-06-24_13h53.24.804,LearnStrategy,2023.2.3,Win32,60.24096386,1,2,11,,,,,,,,7,02,,,,,,,,,,,7,26.511,1,,,,,,0.051851838,-0.407407407,1,0,0,26.5113,Peridotite_rect,10,0,10,0,1,
663e783bcd1ddd00b1970565,SCN,2024-06-24_13h53.24.804,LearnStrategy,2023.2.3,Win32,60.24096386,1,2,12,,,,,,,,6,10,,,,,,,,,,,6,5.552,1,,,,,,-0.081481439,-0.418518561,1,0,0,5.5518,Pegmatite_rect,11,0,11,0,1,
663e783bcd1ddd00b1970565,SCN,2024-06-24_13h53.24.804,LearnStrategy,2023.2.3,Win32,60.24096386,1,2,13,,,,,,,,7,15,,,,,,,,,,,4,22.394,0,,,,,,0.372222194,-0.248148176,1,0,0,22.3945,Gabbro_rect,12,0,12,0,1,
663e783bcd1ddd00b1970565,SCN,2024-06-24_13h53.24.804,LearnStrategy,2023.2.3,Win32,60.24096386,1,2,14,,,,,,,,4,08,,,,,,,,,,,1,9.076,0,,,,,,-0.372222229,-0.266666695,1,0,0,9.0762,Andesite_rect,13,0,13,0,1,
663e783bcd1ddd00b1970565,SCN,2024-06-24_13h53.24.804,LearnStrategy,2023.2.3,Win32,60.24096386,1,2,15,,,,,,,,3,12,,,,,,,,,,,7,12.876,0,,,,,,0.100000028,-0.405555584,1,0,0,12.8761,Peridotite_rect,14,0,14,0,1,
663e783bcd1ddd00b1970565,SCN,2024-06-24_13h53.24.804,LearnStrategy,2023.2.3,Win32,60.24096386,1,2,16,,,,,,,,4,01,,,,,,,,,,,3,5.825,0,,,,,,0.084259245,-0.270370413,1,0,0,5.8252,Diorite_rect,15,0,15,0,1,
663e783bcd1ddd00b1970565,SCN,2024-06-24_13h53.24.804,LearnStrategy,2023.2.3,Win32,60.24096386,2,1,1,0.244444459,0.386111109,1,0,0,3.9782,Diorite_13,3,13,6,6,3.978,0.349074046,-0.240740741,1,0,0,4.7317,Gabbro_rect,4,4.732,0,0,0,0,0,1,,,,,,,,,,,,,
663e783bcd1ddd00b1970565,SCN,2024-06-24_13h53.24.804,LearnStrategy,2023.2.3,Win32,60.24096386,2,1,2,0.541666667,-0.405555584,1,0,0,5.3647,Diorite_15,3,15,1,8,5.365,0.169444473,-0.408333319,1,0,0,15.6357,Peridotite_rect,7,15.636,0,1,0,1,0,1,,,,,,,,,,,,,
663e783bcd1ddd00b1970565,SCN,2024-06-24_13h53.24.804,LearnStrategy,2023.2.3,Win32,60.24096386,2,1,3,-0.227777764,-0.280555584,1,0,0,5.2612,Diorite_16,3,16,2,3,5.261,0.146296325,-0.264814801,1,0,0,2.235,Diorite_rect,3,2.235,1,2,0,2,0,1,,,,,,,,,,,,,
663e783bcd1ddd00b1970565,SCN,2024-06-24_13h53.24.804,LearnStrategy,2023.2.3,Win32,60.24096386,2,1,4,-0.512962942,-0.228703746,1,0,0,6.5619,Basalt_16,2,16,2,1,6.562,-0.104629587,-0.249074088,1,0,0,5.449,Basalt_rect,2,5.449,1,3,0,3,0,1,,,,,,,,,,,,,
663e783bcd1ddd00b1970565,SCN,2024-06-24_13h53.24.804,LearnStrategy,2023.2.3,Win32,60.24096386,2,1,5,-0.383333312,-0.272222236,1,0,0,3.3607,Gabbro_09,4,09,2,2,3.361,-0.329629616,-0.246296282,1,0,0,2.4528,Andesite_rect,1,2.453,0,4,0,4,0,1,,,,,,,,,,,,,
663e783bcd1ddd00b1970565,SCN,2024-06-24_13h53.24.804,LearnStrategy,2023.2.3,Win32,60.24096386,2,1,6,-0.557407414,-0.125925912,1,0,0,8.1073,Gabbro_14,4,14,3,1,8.107,0.375925982,-0.241666653,1,0,0,5.1025,Gabbro_rect,4,5.102,1,5,0,5,0,1,,,,,,,,,,,,,
663e783bcd1ddd00b1970565,SCN,2024-06-24_13h53.24.804,LearnStrategy,2023.2.3,Win32,60.24096386,2,1,7,0.570370427,-0.10092594,1,0,0,8.7582,Diorite_11,3,11,3,8,8.758,0.121296282,-0.250925912,1,0,0,4.8693,Diorite_rect,3,4.869,1,6,0,6,0,1,,,,,,,,,,,,,
663e783bcd1ddd00b1970565,SCN,2024-06-24_13h53.24.804,LearnStrategy,2023.2.3,Win32,60.24096386,2,1,8,-0.252777735,-0.072222215,1,0,0,4.4778,Andesite_14,1,14,3,3,4.478,0.125,-0.234259288,1,0,0,4.9143,Diorite_rect,3,4.914,0,7,0,7,0,1,,,,,,,,,,,,,
663e783bcd1ddd00b1970565,SCN,2024-06-24_13h53.24.804,LearnStrategy,2023.2.3,Win32,60.24096386,2,1,9,-0.372222229,0.079629616,1,0,0,4.3108,Pumice_03,8,03,4,2,4.311,0.339814787,-0.421296296,1,0,0,5.536,Pumice_rect,8,5.536,1,8,0,8,0,1,,,,,,,,,,,,,
663e783bcd1ddd00b1970565,SCN,2024-06-24_13h53.24.804,LearnStrategy,2023.2.3,Win32,60.24096386,2,1,10,0.225000028,-0.101851852,1,0,0,3.5438,Peridotite_04,7,04,3,6,3.544,-0.330555563,-0.251851894,1,0,0,6.5307,Andesite_rect,1,6.531,0,9,0,9,0,1,,,,,,,,,,,,,
663e783bcd1ddd00b1970565,SCN,2024-06-24_13h53.24.804,LearnStrategy,2023.2.3,Win32,60.24096386,2,1,11,0.126851894,-0.414814843,1,0,0,8.2447,Pegmatite_05,6,05,1,5,8.245,0.132407436,-0.23055557,1,0,0,13.3476,Diorite_rect,3,13.348,0,10,0,10,0,1,,,,,,,,,,,,,
663e783bcd1ddd00b1970565,SCN,2024-06-24_13h53.24.804,LearnStrategy,2023.2.3,Win32,60.24096386,2,1,12,-0.106481481,-0.275925954,1,0,0,2.2768,Pegmatite_13,6,13,2,4,2.277,-0.087962963,-0.410185213,1,0,0,3.231,Pegmatite_rect,6,3.231,1,11,0,11,0,1,,,,,,,,,,,,,
663e783bcd1ddd00b1970565,SCN,2024-06-24_13h53.24.804,LearnStrategy,2023.2.3,Win32,60.24096386,2,1,13,0.384259259,-0.260185171,1,0,0,3.3476,Basalt_06,2,06,2,7,3.348,-0.107407393,-0.256481524,1,0,0,16.9748,Basalt_rect,2,16.975,1,12,0,12,0,1,,,,,,,,,,,,,
663e783bcd1ddd00b1970565,SCN,2024-06-24_13h53.24.804,LearnStrategy,2023.2.3,Win32,60.24096386,2,1,14,0.080555598,0.260185189,1,0,0,7.545,Peridotite_05,7,05,5,5,7.545,0.136111153,-0.407407407,1,0,0,21.0183,Peridotite_rect,7,21.018,1,13,0,13,0,1,,,,,,,,,,,,,
663e783bcd1ddd00b1970565,SCN,2024-06-24_13h53.24.804,LearnStrategy,2023.2.3,Win32,60.24096386,2,1,15,0.396296325,-0.09629631,1,0,0,15.0623,Pegmatite_03,6,03,3,7,15.062,-0.107407393,-0.402777778,1,0,0,5.1149,Pegmatite_rect,6,5.115,1,14,0,14,0,1,,,,,,,,,,,,,
663e783bcd1ddd00b1970565,SCN,2024-06-24_13h53.24.804,LearnStrategy,2023.2.3,Win32,60.24096386,2,1,16,-0.554629608,-0.09629631,1,0,0,7.5235,Gabbro_14,4,14,3,1,7.523,-0.457407386,-0.237963005,1,0,0,5.1464,Andesite_rect,1,5.146,0,15,0,15,0,1,,,,,,,,,,,,,
663e783bcd1ddd00b1970565,SCN,2024-06-24_13h53.24.804,LearnStrategy,2023.2.3,Win32,60.24096386,2,2,1,,,,,,,,4,03,,,,,,,,,,,7,11.972,0,,,,,,0.095370399,-0.395370413,1,0,0,11.9721,Peridotite_rect,0,0,0,0,1,
663e783bcd1ddd00b1970565,SCN,2024-06-24_13h53.24.804,LearnStrategy,2023.2.3,Win32,60.24096386,2,2,2,,,,,,,,7,08,,,,,,,,,,,3,13.608,0,,,,,,0.077777792,-0.267592607,1,0,0,13.6084,Diorite_rect,1,0,1,0,1,
663e783bcd1ddd00b1970565,SCN,2024-06-24_13h53.24.804,LearnStrategy,2023.2.3,Win32,60.24096386,2,2,3,,,,,,,,7,13,,,,,,,,,,,6,7.392,0,,,,,,-0.14444443,-0.413888931,1,0,0,7.3917,Pegmatite_rect,2,0,2,0,1,
663e783bcd1ddd00b1970565,SCN,2024-06-24_13h53.24.804,LearnStrategy,2023.2.3,Win32,60.24096386,2,2,4,,,,,,,,6,11,,,,,,,,,,,6,3.767,1,,,,,,-0.161111125,-0.380555541,1,0,0,3.7675,Pegmatite_rect,3,0,3,0,1,
663e783bcd1ddd00b1970565,SCN,2024-06-24_13h53.24.804,LearnStrategy,2023.2.3,Win32,60.24096386,2,2,5,,,,,,,,2,05,,,,,,,,,,,2,3.386,1,,,,,,-0.199999986,-0.262037065,1,0,0,3.3856,Basalt_rect,4,0,4,0,1,
663e783bcd1ddd00b1970565,SCN,2024-06-24_13h53.24.804,LearnStrategy,2023.2.3,Win32,60.24096386,2,2,6,,,,,,,,2,14,,,,,,,,,,,8,2.637,0,,,,,,0.458333333,-0.390740783,1,0,0,2.6365,Pumice_rect,5,0,5,0,1,
663e783bcd1ddd00b1970565,SCN,2024-06-24_13h53.24.804,LearnStrategy,2023.2.3,Win32,60.24096386,2,2,7,,,,,,,,1,16,,,,,,,,,,,7,6.009,0,,,,,,0.161111125,-0.388888889,1,0,0,6.009,Peridotite_rect,6,0,6,0,1,
663e783bcd1ddd00b1970565,SCN,2024-06-24_13h53.24.804,LearnStrategy,2023.2.3,Win32,60.24096386,2,2,8,,,,,,,,4,10,,,,,,,,,,,1,6.775,0,,,,,,-0.305555556,-0.258333347,1,0,0,6.775,Andesite_rect,7,0,7,0,1,
663e783bcd1ddd00b1970565,SCN,2024-06-24_13h53.24.804,LearnStrategy,2023.2.3,Win32,60.24096386,2,2,9,,,,,,,,5,05,,,,,,,,,,,5,5.175,1,,,,,,-0.453703704,-0.404629672,1,0,0,5.1746,Obsidian_rect,8,0,8,0,1,
663e783bcd1ddd00b1970565,SCN,2024-06-24_13h53.24.804,LearnStrategy,2023.2.3,Win32,60.24096386,2,2,10,,,,,,,,3,14,,,,,,,,,,,4,7.425,0,,,,,,0.399074131,-0.240740741,1,0,0,7.4253,Gabbro_rect,9,0,9,0,1,
663e783bcd1ddd00b1970565,SCN,2024-06-24_13h53.24.804,LearnStrategy,2023.2.3,Win32,60.24096386,2,2,11,,,,,,,,6,12,,,,,,,,,,,6,5.009,1,,,,,,-0.099999958,-0.397222236,1,0,0,5.0088,Pegmatite_rect,10,0,10,0,1,
663e783bcd1ddd00b1970565,SCN,2024-06-24_13h53.24.804,LearnStrategy,2023.2.3,Win32,60.24096386,2,2,12,,,,,,,,3,07,,,,,,,,,,,7,4.09,0,,,,,,0.191666709,-0.397222236,1,0,0,4.0903,Peridotite_rect,11,0,11,0,1,
663e783bcd1ddd00b1970565,SCN,2024-06-24_13h53.24.804,LearnStrategy,2023.2.3,Win32,60.24096386,2,2,13,,,,,,,,8,08,,,,,,,,,,,4,9.309,0,,,,,,0.387963048,-0.267592607,1,0,0,9.3091,Gabbro_rect,12,0,12,0,1,
663e783bcd1ddd00b1970565,SCN,2024-06-24_13h53.24.804,LearnStrategy,2023.2.3,Win32,60.24096386,2,2,14,,,,,,,,5,08,,,,,,,,,,,5,2.934,1,,,,,,-0.48333334,-0.406481496,1,0,0,2.9335,Obsidian_rect,13,0,13,0,1,
663e783bcd1ddd00b1970565,SCN,2024-06-24_13h53.24.804,LearnStrategy,2023.2.3,Win32,60.24096386,2,2,15,,,,,,,,1,07,,,,,,,,,,,7,11.265,0,,,,,,0.121296282,-0.407407407,1,0,0,11.2646,Peridotite_rect,14,0,14,0,1,
663e783bcd1ddd00b1970565,SCN,2024-06-24_13h53.24.804,LearnStrategy,2023.2.3,Win32,60.24096386,2,2,16,,,,,,,,8,09,,,,,,,,,,,8,2.509,1,,,,,,0.457407492,-0.386111153,1,0,0,2.5087,Pumice_rect,15,0,15,0,1,
663e783bcd1ddd00b1970565,SCN,2024-06-24_13h53.24.804,LearnStrategy,2023.2.3,Win32,60.24096386,3,1,1,-0.373148141,0.404629628,1,0,0,8.721,Gabbro_05,4,05,6,2,8.721,-0.372222229,-0.267592607,1,0,0,9.1969,Andesite_rect,1,9.197,0,0,0,0,0,1,,,,,,,,,,,,,
663e783bcd1ddd00b1970565,SCN,2024-06-24_13h53.24.804,LearnStrategy,2023.2.3,Win32,60.24096386,3,1,2,0.26944443,-0.102777764,1,0,0,2.0737,Peridotite_04,7,04,3,6,2.074,0.194444444,-0.400000042,1,0,0,4.0772,Peridotite_rect,7,4.077,1,1,0,1,0,1,,,,,,,,,,,,,
663e783bcd1ddd00b1970565,SCN,2024-06-24_13h53.24.804,LearnStrategy,2023.2.3,Win32,60.24096386,3,1,3,-0.06759255,0.234259252,1,0,0,4.9512,Andesite_11,1,11,5,4,4.951,-0.10092594,-0.408333319,1,0,0,10.3808,Pegmatite_rect,6,10.381,0,2,0,2,0,1,,,,,,,,,,,,,
663e783bcd1ddd00b1970565,SCN,2024-06-24_13h53.24.804,LearnStrategy,2023.2.3,Win32,60.24096386,3,1,4,-0.346296275,-0.276851866,1,0,0,2.3733,Gabbro_09,4,09,2,2,2.373,-0.420370349,-0.249074088,1,0,0,4.6877,Andesite_rect,1,4.688,0,3,0,3,0,1,,,,,,,,,,,,,
663e783bcd1ddd00b1970565,SCN,2024-06-24_13h53.24.804,LearnStrategy,2023.2.3,Win32,60.24096386,3,1,5,0.549074102,-0.282407407,1,0,0,2.5723,Pegmatite_06,6,06,2,8,2.572,-0.064814815,-0.417592578,1,0,0,2.571,Pegmatite_rect,6,2.571,1,4,0,4,0,1,,,,,,,,,,,,,
663e783bcd1ddd00b1970565,SCN,2024-06-24_13h53.24.804,LearnStrategy,2023.2.3,Win32,60.24096386,3,1,6,-0.37962963,0.260185189,1,0,0,9.4824,Peridotite_14,7,14,5,2,9.482,0.138888889,-0.231481481,1,0,0,5.7143,Diorite_rect,3,5.714,0,5,0,5,0,1,,,,,,,,,,,,,
663e783bcd1ddd00b1970565,SCN,2024-06-24_13h53.24.804,LearnStrategy,2023.2.3,Win32,60.24096386,3,1,7,0.555555556,-0.395370413,1,0,0,3.0092,Diorite_15,3,15,1,8,3.009,0.162962949,-0.405555584,1,0,0,7.8613,Peridotite_rect,7,7.861,0,6,0,6,0,1,,,,,,,,,,,,,
663e783bcd1ddd00b1970565,SCN,2024-06-24_13h53.24.804,LearnStrategy,2023.2.3,Win32,60.24096386,3,1,8,-0.047222208,-0.102777764,1,0,0,4.4318,Andesite_06,1,06,3,4,4.432,0.108333376,-0.257407436,1,0,0,2.86,Diorite_rect,3,2.86,0,7,0,7,0,1,,,,,,,,,,,,,
663e783bcd1ddd00b1970565,SCN,2024-06-24_13h53.24.804,LearnStrategy,2023.2.3,Win32,60.24096386,3,1,9,0.247222265,0.140740748,1,0,0,1.8601,Diorite_09,3,09,4,6,1.86,0.10555557,-0.250925912,1,0,0,3.1576,Diorite_rect,3,3.158,1,8,0,8,0,1,,,,,,,,,,,,,
663e783bcd1ddd00b1970565,SCN,2024-06-24_13h53.24.804,LearnStrategy,2023.2.3,Win32,60.24096386,3,1,10,-0.229629587,0.087037016,1,0,0,3.4813,Diorite_06,3,06,4,3,3.481,-0.427777785,-0.247222265,1,0,0,2.9147,Andesite_rect,1,2.915,0,9,0,9,0,1,,,,,,,,,,,,,
663e783bcd1ddd00b1970565,SCN,2024-06-24_13h53.24.804,LearnStrategy,2023.2.3,Win32,60.24096386,3,1,11,0.566666638,-0.094444487,1,0,0,2.577,Diorite_11,3,11,3,8,2.577,0.175000014,-0.25,1,0,0,2.4623,Diorite_rect,3,2.462,1,10,0,10,0,1,,,,,,,,,,,,,
663e783bcd1ddd00b1970565,SCN,2024-06-24_13h53.24.804,LearnStrategy,2023.2.3,Win32,60.24096386,3,1,12,-0.390740748,0.425925926,1,0,0,2.5519,Gabbro_05,4,05,6,2,2.552,0.354629658,-0.242592635,1,0,0,5.2819,Gabbro_rect,4,5.282,1,11,0,11,0,1,,,,,,,,,,,,,
663e783bcd1ddd00b1970565,SCN,2024-06-24_13h53.24.804,LearnStrategy,2023.2.3,Win32,60.24096386,3,1,13,0.40833339,0.215740734,1,0,0,4.6316,Andesite_09,1,09,5,7,4.632,-0.401851831,-0.229629658,1,0,0,6.2479,Andesite_rect,1,6.248,1,12,0,12,0,1,,,,,,,,,,,,,
663e783bcd1ddd00b1970565,SCN,2024-06-24_13h53.24.804,LearnStrategy,2023.2.3,Win32,60.24096386,3,1,14,-0.258333347,-0.113888917,1,0,0,2.4594,Andesite_14,1,14,3,3,2.459,0.132407436,-0.397222236,1,0,0,7.8617,Peridotite_rect,7,7.862,0,13,0,13,0,1,,,,,,,,,,,,,
663e783bcd1ddd00b1970565,SCN,2024-06-24_13h53.24.804,LearnStrategy,2023.2.3,Win32,60.24096386,3,1,15,-0.395370377,-0.124074088,1,0,0,2.0937,Peridotite_16,7,16,3,2,2.094,0.067592621,-0.396296325,1,0,0,7.4001,Peridotite_rect,7,7.4,1,14,0,14,0,1,,,,,,,,,,,,,
663e783bcd1ddd00b1970565,SCN,2024-06-24_13h53.24.804,LearnStrategy,2023.2.3,Win32,60.24096386,3,1,16,0.551851908,0.26666666,1,0,0,6.1403,Gabbro_11,4,11,5,8,6.14,-0.36296297,-0.247222265,1,0,0,5.7185,Andesite_rect,1,5.718,0,15,0,15,0,1,,,,,,,,,,,,,
663e783bcd1ddd00b1970565,SCN,2024-06-24_13h53.24.804,LearnStrategy,2023.2.3,Win32,60.24096386,3,2,1,,,,,,,,8,15,,,,,,,,,,,8,3.208,1,,,,,,0.371296353,-0.420370384,1,0,0,3.2081,Pumice_rect,0,0,0,0,1,
663e783bcd1ddd00b1970565,SCN,2024-06-24_13h53.24.804,LearnStrategy,2023.2.3,Win32,60.24096386,3,2,2,,,,,,,,4,15,,,,,,,,,,,3,8.192,0,,,,,,0.135185171,-0.260185171,1,0,0,8.1923,Diorite_rect,1,0,1,0,1,
663e783bcd1ddd00b1970565,SCN,2024-06-24_13h53.24.804,LearnStrategy,2023.2.3,Win32,60.24096386,3,2,3,,,,,,,,6,15,,,,,,,,,,,6,2.574,1,,,,,,-0.125925912,-0.408333319,1,0,0,2.5741,Pegmatite_rect,2,0,2,0,1,
663e783bcd1ddd00b1970565,SCN,2024-06-24_13h53.24.804,LearnStrategy,2023.2.3,Win32,60.24096386,3,2,4,,,,,,,,3,08,,,,,,,,,,,7,3.309,0,,,,,,0.087037051,-0.406481496,1,0,0,3.3092,Peridotite_rect,3,0,3,0,1,
663e783bcd1ddd00b1970565,SCN,2024-06-24_13h53.24.804,LearnStrategy,2023.2.3,Win32,60.24096386,3,2,5,,,,,,,,5,10,,,,,,,,,,,5,1.975,1,,,,,,-0.421296296,-0.404629672,1,0,0,1.9748,Obsidian_rect,4,0,4,0,1,
663e783bcd1ddd00b1970565,SCN,2024-06-24_13h53.24.804,LearnStrategy,2023.2.3,Win32,60.24096386,3,2,6,,,,,,,,2,01,,,,,,,,,,,2,2.341,1,,,,,,-0.237037023,-0.251851894,1,0,0,2.3413,Basalt_rect,5,0,5,0,1,
663e783bcd1ddd00b1970565,SCN,2024-06-24_13h53.24.804,LearnStrategy,2023.2.3,Win32,60.24096386,3,2,7,,,,,,,,7,12,,,,,,,,,,,7,4.201,1,,,,,,0.15370369,-0.393518519,1,0,0,4.201,Peridotite_rect,6,0,6,0,1,
663e783bcd1ddd00b1970565,SCN,2024-06-24_13h53.24.804,LearnStrategy,2023.2.3,Win32,60.24096386,3,2,8,,,,,,,,2,02,,,,,,,,,,,2,3.441,1,,,,,,-0.138888889,-0.263888889,1,0,0,3.4408,Basalt_rect,7,0,7,0,1,
663e783bcd1ddd00b1970565,SCN,2024-06-24_13h53.24.804,LearnStrategy,2023.2.3,Win32,60.24096386,3,2,9,,,,,,,,7,06,,,,,,,,,,,1,8.342,0,,,,,,-0.402777778,-0.25,1,0,0,8.3425,Andesite_rect,8,0,8,0,1,
663e783bcd1ddd00b1970565,SCN,2024-06-24_13h53.24.804,LearnStrategy,2023.2.3,Win32,60.24096386,3,2,10,,,,,,,,3,02,,,,,,,,,,,7,4.593,0,,,,,,0.186111097,-0.39444443,1,0,0,4.5933,Peridotite_rect,9,0,9,0,1,
663e783bcd1ddd00b1970565,SCN,2024-06-24_13h53.24.804,LearnStrategy,2023.2.3,Win32,60.24096386,3,2,11,,,,,,,,8,14,,,,,,,,,,,8,1.867,1,,,,,,0.345370399,-0.385185171,1,0,0,1.8672,Pumice_rect,10,0,10,0,1,
663e783bcd1ddd00b1970565,SCN,2024-06-24_13h53.24.804,LearnStrategy,2023.2.3,Win32,60.24096386,3,2,12,,,,,,,,6,16,,,,,,,,,,,6,6.409,1,,,,,,-0.12962963,-0.409259302,1,0,0,6.4088,Pegmatite_rect,11,0,11,0,1,
663e783bcd1ddd00b1970565,SCN,2024-06-24_13h53.24.804,LearnStrategy,2023.2.3,Win32,60.24096386,3,2,13,,,,,,,,5,12,,,,,,,,,,,5,1.907,1,,,,,,-0.37037037,-0.378703718,1,0,0,1.9066,Obsidian_rect,12,0,12,0,1,
663e783bcd1ddd00b1970565,SCN,2024-06-24_13h53.24.804,LearnStrategy,2023.2.3,Win32,60.24096386,3,2,14,,,,,,,,4,13,,,,,,,,,,,1,2.839,0,,,,,,-0.426851838,-0.263888889,1,0,0,2.8388,Andesite_rect,13,0,13,0,1,
663e783bcd1ddd00b1970565,SCN,2024-06-24_13h53.24.804,LearnStrategy,2023.2.3,Win32,60.24096386,3,2,15,,,,,,,,1,05,,,,,,,,,,,1,2.525,1,,,,,,-0.426851838,-0.263888889,1,0,0,2.5247,Andesite_rect,14,0,14,0,1,
663e783bcd1ddd00b1970565,SCN,2024-06-24_13h53.24.804,LearnStrategy,2023.2.3,Win32,60.24096386,3,2,16,,,,,,,,1,03,,,,,,,,,,,4,5.584,0,,,,,,0.324074074,-0.239814829,1,0,0,5.5836,Gabbro_rect,15,0,15,0,1,
663e783bcd1ddd00b1970565,SCN,2024-06-24_13h53.24.804,LearnStrategy,2023.2.3,Win32,60.24096386,4,1,1,0.101851852,-0.434259273,1,0,0,5.3157,Pegmatite_05,6,05,1,5,5.316,0.097222222,-0.39907406,1,0,0,8.449,Peridotite_rect,7,8.449,0,0,0,0,0,1,,,,,,,,,,,,,
663e783bcd1ddd00b1970565,SCN,2024-06-24_13h53.24.804,LearnStrategy,2023.2.3,Win32,60.24096386,4,1,2,-0.210185157,-0.085185192,1,0,0,2.2887,Andesite_14,1,14,3,3,2.289,0.108333376,-0.232407393,1,0,0,7.345,Diorite_rect,3,7.345,0,1,0,1,0,1,,,,,,,,,,,,,
663e783bcd1ddd00b1970565,SCN,2024-06-24_13h53.24.804,LearnStrategy,2023.2.3,Win32,60.24096386,4,1,3,0.592592593,-0.098148134,1,0,0,3.8479,Diorite_11,3,11,3,8,3.848,-0.414814808,-0.232407393,1,0,0,5.7318,Andesite_rect,1,5.732,0,2,0,2,0,1,,,,,,,,,,,,,
663e783bcd1ddd00b1970565,SCN,2024-06-24_13h53.24.804,LearnStrategy,2023.2.3,Win32,60.24096386,4,1,4,-0.348148134,0.248148141,1,0,0,3.6482,Peridotite_14,7,14,5,2,3.648,0.121296282,-0.240740741,1,0,0,4.445,Diorite_rect,3,4.445,0,3,0,3,0,1,,,,,,,,,,,,,
663e783bcd1ddd00b1970565,SCN,2024-06-24_13h53.24.804,LearnStrategy,2023.2.3,Win32,60.24096386,4,1,5,0.399074131,0.128703683,1,0,0,1.9884,Basalt_12,2,12,4,7,1.988,0.409259231,-0.262037065,1,0,0,5.084,Gabbro_rect,4,5.084,0,4,0,4,0,1,,,,,,,,,,,,,
663e783bcd1ddd00b1970565,SCN,2024-06-24_13h53.24.804,LearnStrategy,2023.2.3,Win32,60.24096386,4,1,6,0.087037051,0.260185189,1,0,0,2.2115,Peridotite_05,7,05,5,5,2.211,0.173148191,-0.236111111,1,0,0,3.915,Diorite_rect,3,3.915,0,5,0,5,0,1,,,,,,,,,,,,,
663e783bcd1ddd00b1970565,SCN,2024-06-24_13h53.24.804,LearnStrategy,2023.2.3,Win32,60.24096386,4,1,7,0.275925954,0.431481481,1,0,0,5.2603,Diorite_13,3,13,6,6,5.26,0.136111153,-0.412962949,1,0,0,3.2695,Peridotite_rect,7,3.269,0,6,0,6,0,1,,,,,,,,,,,,,
663e783bcd1ddd00b1970565,SCN,2024-06-24_13h53.24.804,LearnStrategy,2023.2.3,Win32,60.24096386,4,1,8,-0.39444443,0.1175926,1,0,0,2.1442,Pumice_03,8,03,4,2,2.144,-0.108333305,-0.262037065,1,0,0,6.8329,Basalt_rect,2,6.833,0,7,0,7,0,1,,,,,,,,,,,,,
663e783bcd1ddd00b1970565,SCN,2024-06-24_13h53.24.804,LearnStrategy,2023.2.3,Win32,60.24096386,4,1,9,-0.548148155,-0.117592635,1,0,0,2.932,Gabbro_14,4,14,3,1,2.932,-0.421296296,-0.25,1,0,0,3.965,Andesite_rect,1,3.965,0,8,0,8,0,1,,,,,,,,,,,,,
663e783bcd1ddd00b1970565,SCN,2024-06-24_13h53.24.804,LearnStrategy,2023.2.3,Win32,60.24096386,4,1,10,0.597222222,-0.407407407,1,0,0,3.8768,Diorite_15,3,15,1,8,3.877,0.148148148,-0.246296282,1,0,0,9.1747,Diorite_rect,3,9.175,1,9,0,9,0,1,,,,,,,,,,,,,
663e783bcd1ddd00b1970565,SCN,2024-06-24_13h53.24.804,LearnStrategy,2023.2.3,Win32,60.24096386,4,1,11,-0.047222208,0.104629623,1,0,0,1.5934,Peridotite_07,7,07,4,4,1.593,0.111111111,-0.39444443,1,0,0,5.2999,Peridotite_rect,7,5.3,1,10,0,10,0,1,,,,,,,,,,,,,
663e783bcd1ddd00b1970565,SCN,2024-06-24_13h53.24.804,LearnStrategy,2023.2.3,Win32,60.24096386,4,1,12,-0.083333333,0.25462963,1,0,0,4.5229,Andesite_11,1,11,5,4,4.523,-0.422222208,-0.25,1,0,0,2.6531,Andesite_rect,1,2.653,1,11,0,11,0,1,,,,,,,,,,,,,
663e783bcd1ddd00b1970565,SCN,2024-06-24_13h53.24.804,LearnStrategy,2023.2.3,Win32,60.24096386,4,1,13,0.541666667,0.260185189,1,0,0,6.0118,Gabbro_11,4,11,5,8,6.012,-0.201851809,-0.255555541,1,0,0,2.3968,Basalt_rect,2,2.397,0,12,0,12,0,1,,,,,,,,,,,,,
663e783bcd1ddd00b1970565,SCN,2024-06-24_13h53.24.804,LearnStrategy,2023.2.3,Win32,60.24096386,4,1,14,0.352777834,-0.246296282,1,0,0,3.2569,Basalt_06,2,06,2,7,3.257,0.412037037,-0.25462963,1,0,0,3.704,Gabbro_rect,4,3.704,0,13,0,13,0,1,,,,,,,,,,,,,
663e783bcd1ddd00b1970565,SCN,2024-06-24_13h53.24.804,LearnStrategy,2023.2.3,Win32,60.24096386,4,1,15,-0.071296268,0.099074081,1,0,0,6.2392,Peridotite_07,7,07,4,4,6.239,0.083333333,-0.402777778,1,0,0,6.4537,Peridotite_rect,7,6.454,1,14,0,14,0,1,,,,,,,,,,,,,
663e783bcd1ddd00b1970565,SCN,2024-06-24_13h53.24.804,LearnStrategy,2023.2.3,Win32,60.24096386,4,1,16,0.103703746,0.402777778,1,0,0,16.2337,Basalt_11,2,11,6,5,16.234,0.304629714,-0.25,1,0,0,7.5644,Gabbro_rect,4,7.564,0,15,0,15,0,1,,,,,,,,,,,,,
663e783bcd1ddd00b1970565,SCN,2024-06-24_13h53.24.804,LearnStrategy,2023.2.3,Win32,60.24096386,4,2,1,,,,,,,,5,12,,,,,,,,,,,5,2.153,1,,,,,,-0.385185171,-0.397222236,1,0,0,2.1533,Obsidian_rect,0,0,0,0,1,
663e783bcd1ddd00b1970565,SCN,2024-06-24_13h53.24.804,LearnStrategy,2023.2.3,Win32,60.24096386,4,2,2,,,,,,,,8,13,,,,,,,,,,,8,13.45,1,,,,,,0.363888917,-0.406481496,1,0,0,13.4505,Pumice_rect,1,0,1,0,1,
663e783bcd1ddd00b1970565,SCN,2024-06-24_13h53.24.804,LearnStrategy,2023.2.3,Win32,60.24096386,4,2,3,,,,,,,,3,02,,,,,,,,,,,7,10.793,0,,,,,,0.130555541,-0.40370369,1,0,0,10.7925,Peridotite_rect,2,0,2,0,1,
663e783bcd1ddd00b1970565,SCN,2024-06-24_13h53.24.804,LearnStrategy,2023.2.3,Win32,60.24096386,4,2,4,,,,,,,,5,08,,,,,,,,,,,5,1.859,1,,,,,,-0.464814822,-0.395370413,1,0,0,1.859,Obsidian_rect,3,0,3,0,1,
663e783bcd1ddd00b1970565,SCN,2024-06-24_13h53.24.804,LearnStrategy,2023.2.3,Win32,60.24096386,4,2,5,,,,,,,,6,08,,,,,,,,,,,6,2.541,1,,,,,,-0.166666667,-0.412962949,1,0,0,2.5408,Pegmatite_rect,4,0,4,0,1,
663e783bcd1ddd00b1970565,SCN,2024-06-24_13h53.24.804,LearnStrategy,2023.2.3,Win32,60.24096386,4,2,6,,,,,,,,1,01,,,,,,,,,,,1,11.111,1,,,,,,-0.39166666,-0.259259259,1,0,0,11.1105,Andesite_rect,5,0,5,0,1,
663e783bcd1ddd00b1970565,SCN,2024-06-24_13h53.24.804,LearnStrategy,2023.2.3,Win32,60.24096386,4,2,7,,,,,,,,8,08,,,,,,,,,,,8,3.325,1,,,,,,0.380555612,-0.387962977,1,0,0,3.3246,Pumice_rect,6,0,6,0,1,
663e783bcd1ddd00b1970565,SCN,2024-06-24_13h53.24.804,LearnStrategy,2023.2.3,Win32,60.24096386,4,2,8,,,,,,,,4,15,,,,,,,,,,,7,5.092,0,,,,,,0.121296282,-0.404629672,1,0,0,5.092,Peridotite_rect,7,0,7,0,1,
663e783bcd1ddd00b1970565,SCN,2024-06-24_13h53.24.804,LearnStrategy,2023.2.3,Win32,60.24096386,4,2,9,,,,,,,,7,15,,,,,,,,,,,7,3.502,1,,,,,,0.099074116,-0.396296325,1,0,0,3.5019,Peridotite_rect,8,0,8,0,1,
663e783bcd1ddd00b1970565,SCN,2024-06-24_13h53.24.804,LearnStrategy,2023.2.3,Win32,60.24096386,4,2,10,,,,,,,,2,05,,,,,,,,,,,2,1.841,1,,,,,,-0.071296268,-0.248148176,1,0,0,1.8411,Basalt_rect,9,0,9,0,1,
663e783bcd1ddd00b1970565,SCN,2024-06-24_13h53.24.804,LearnStrategy,2023.2.3,Win32,60.24096386,4,2,11,,,,,,,,1,04,,,,,,,,,,,1,7.9,1,,,,,,-0.385185171,-0.241666653,1,0,0,7.9002,Andesite_rect,10,0,10,0,1,
663e783bcd1ddd00b1970565,SCN,2024-06-24_13h53.24.804,LearnStrategy,2023.2.3,Win32,60.24096386,4,2,12,,,,,,,,2,14,,,,,,,,,,,8,3.792,0,,,,,,0.416666667,-0.401851866,1,0,0,3.7918,Pumice_rect,11,0,11,0,1,
663e783bcd1ddd00b1970565,SCN,2024-06-24_13h53.24.804,LearnStrategy,2023.2.3,Win32,60.24096386,4,2,13,,,,,,,,4,08,,,,,,,,,,,7,2.437,0,,,,,,0.225000028,-0.395370413,1,0,0,2.4365,Peridotite_rect,12,0,12,0,1,
663e783bcd1ddd00b1970565,SCN,2024-06-24_13h53.24.804,LearnStrategy,2023.2.3,Win32,60.24096386,4,2,14,,,,,,,,6,16,,,,,,,,,,,6,6.525,1,,,,,,-0.085185157,-0.380555541,1,0,0,6.5247,Pegmatite_rect,13,0,13,0,1,
663e783bcd1ddd00b1970565,SCN,2024-06-24_13h53.24.804,LearnStrategy,2023.2.3,Win32,60.24096386,4,2,15,,,,,,,,3,10,,,,,,,,,,,3,3.192,1,,,,,,0.181481467,-0.237963005,1,0,0,3.1917,Diorite_rect,14,0,14,0,1,
663e783bcd1ddd00b1970565,SCN,2024-06-24_13h53.24.804,LearnStrategy,2023.2.3,Win32,60.24096386,4,2,16,,,,,,,,7,08,,,,,,,,,,,7,1.807,1,,,,,,0.14907406,-0.400925954,1,0,0,1.8067,Peridotite_rect,15,0,15,0,1,
663e783bcd1ddd00b1970565,SCN,2024-06-24_13h53.24.804,LearnStrategy,2023.2.3,Win32,60.24096386,5,1,1,-0.38703703,0.228703693,1,0,0,3.6153,Peridotite_14,7,14,5,2,3.615,0.145370413,-0.252777806,1,0,0,3.0317,Diorite_rect,3,3.032,0,0,0,0,0,1,,,,,,,,,,,,,
663e783bcd1ddd00b1970565,SCN,2024-06-24_13h53.24.804,LearnStrategy,2023.2.3,Win32,60.24096386,5,1,2,0.393518519,0.099999993,1,0,0,1.5229,Basalt_12,2,12,4,7,1.523,-0.069444444,-0.232407393,1,0,0,4.0281,Basalt_rect,2,4.028,1,1,0,1,0,1,,,,,,,,,,,,,
663e783bcd1ddd00b1970565,SCN,2024-06-24_13h53.24.804,LearnStrategy,2023.2.3,Win32,60.24096386,5,1,3,-0.54074072,0.407407407,1,0,0,2.6067,Pumice_16,8,16,6,1,2.607,0.42777775,-0.397222236,1,0,0,2.2605,Pumice_rect,8,2.261,1,2,0,2,0,1,,,,,,,,,,,,,
663e783bcd1ddd00b1970565,SCN,2024-06-24_13h53.24.804,LearnStrategy,2023.2.3,Win32,60.24096386,5,1,4,-0.39166666,-0.271296325,1,0,0,2.2769,Gabbro_09,4,09,2,2,2.277,-0.35833334,-0.241666653,1,0,0,13.7796,Andesite_rect,1,13.78,0,3,0,3,0,1,,,,,,,,,,,,,
663e783bcd1ddd00b1970565,SCN,2024-06-24_13h53.24.804,LearnStrategy,2023.2.3,Win32,60.24096386,5,1,5,-0.377777771,0.412037037,1,0,0,2.7769,Gabbro_05,4,05,6,2,2.777,0.101851852,-0.404629672,1,0,0,3.0854,Peridotite_rect,7,3.085,0,4,0,4,0,1,,,,,,,,,,,,,
663e783bcd1ddd00b1970565,SCN,2024-06-24_13h53.24.804,LearnStrategy,2023.2.3,Win32,60.24096386,5,1,6,0.26944443,0.091666645,1,0,0,2.3775,Diorite_09,3,09,4,6,2.377,0.130555541,-0.39444443,1,0,0,3.8046,Peridotite_rect,7,3.805,0,5,0,5,0,1,,,,,,,,,,,,,
663e783bcd1ddd00b1970565,SCN,2024-06-24_13h53.24.804,LearnStrategy,2023.2.3,Win32,60.24096386,5,1,7,0.259259259,-0.237037023,1,0,0,5.295,Gabbro_12,4,12,2,6,5.295,-0.336111104,-0.248148176,1,0,0,3.564,Andesite_rect,1,3.564,0,6,0,6,0,1,,,,,,,,,,,,,
663e783bcd1ddd00b1970565,SCN,2024-06-24_13h53.24.804,LearnStrategy,2023.2.3,Win32,60.24096386,5,1,8,-0.065740727,-0.071296303,1,0,0,5.2642,Andesite_06,1,06,3,4,5.264,0.068518533,-0.246296282,1,0,0,2.2418,Diorite_rect,3,2.242,0,7,0,7,0,1,,,,,,,,,,,,,
663e783bcd1ddd00b1970565,SCN,2024-06-24_13h53.24.804,LearnStrategy,2023.2.3,Win32,60.24096386,5,1,9,-0.256481453,0.087962963,1,0,0,1.5442,Diorite_06,3,06,4,3,1.544,0.154629672,-0.264814801,1,0,0,7.9411,Diorite_rect,3,7.941,1,8,0,8,0,1,,,,,,,,,,,,,
663e783bcd1ddd00b1970565,SCN,2024-06-24_13h53.24.804,LearnStrategy,2023.2.3,Win32,60.24096386,5,1,10,0.535185213,0.2574074,1,0,0,2.7488,Gabbro_11,4,11,5,8,2.749,0.36018527,-0.235185199,1,0,0,3.6663,Gabbro_rect,4,3.666,1,9,0,9,0,1,,,,,,,,,,,,,
663e783bcd1ddd00b1970565,SCN,2024-06-24_13h53.24.804,LearnStrategy,2023.2.3,Win32,60.24096386,5,1,11,0.532407407,0.423148146,1,0,0,5.1938,Andesite_02,1,02,6,8,5.194,0.130555541,-0.25462963,1,0,0,27.2542,Diorite_rect,3,27.254,0,10,0,10,0,1,,,,,,,,,,,,,
663e783bcd1ddd00b1970565,SCN,2024-06-24_13h53.24.804,LearnStrategy,2023.2.3,Win32,60.24096386,5,1,12,-0.062962921,-0.246296282,1,0,0,6.8658,Pegmatite_13,6,13,2,4,6.866,-0.178703661,-0.397222236,1,0,0,5.1975,Pegmatite_rect,6,5.197,1,11,0,11,0,1,,,,,,,,,,,,,
663e783bcd1ddd00b1970565,SCN,2024-06-24_13h53.24.804,LearnStrategy,2023.2.3,Win32,60.24096386,5,1,13,0.402777778,0.249074071,1,0,0,4.7445,Andesite_09,1,09,5,7,4.745,-0.35833334,-0.231481481,1,0,0,28.973,Andesite_rect,1,28.973,1,12,0,12,0,1,,,,,,,,,,,,,
663e783bcd1ddd00b1970565,SCN,2024-06-24_13h53.24.804,LearnStrategy,2023.2.3,Win32,60.24096386,5,1,14,0.251851894,-0.081481474,1,0,0,14.5337,Peridotite_04,7,04,3,6,14.534,0.151851866,-0.410185213,1,0,0,2.4636,Peridotite_rect,7,2.464,1,13,0,13,0,1,,,,,,,,,,,,,
663e783bcd1ddd00b1970565,SCN,2024-06-24_13h53.24.804,LearnStrategy,2023.2.3,Win32,60.24096386,5,1,15,-0.22129631,0.232407411,1,0,0,2.1261,Andesite_10,1,10,5,3,2.126,0.109259288,-0.233333376,1,0,0,4.6609,Diorite_rect,3,4.661,0,14,0,14,0,1,,,,,,,,,,,,,
663e783bcd1ddd00b1970565,SCN,2024-06-24_13h53.24.804,LearnStrategy,2023.2.3,Win32,60.24096386,5,1,16,-0.374074053,-0.257407436,1,0,0,2.5266,Gabbro_09,4,09,2,2,2.527,0.417592649,-0.264814801,1,0,0,4.5451,Gabbro_rect,4,4.545,1,15,0,15,0,1,,,,,,,,,,,,,
663e783bcd1ddd00b1970565,SCN,2024-06-24_13h53.24.804,LearnStrategy,2023.2.3,Win32,60.24096386,5,2,1,,,,,,,,7,02,,,,,,,,,,,7,3.326,1,,,,,,0.157407407,-0.408333319,1,0,0,3.3261,Peridotite_rect,0,0,0,0,1,
663e783bcd1ddd00b1970565,SCN,2024-06-24_13h53.24.804,LearnStrategy,2023.2.3,Win32,60.24096386,5,2,2,,,,,,,,6,11,,,,,,,,,,,6,1.635,1,,,,,,-0.137962977,-0.406481496,1,0,0,1.6351,Pegmatite_rect,1,0,1,0,1,
663e783bcd1ddd00b1970565,SCN,2024-06-24_13h53.24.804,LearnStrategy,2023.2.3,Win32,60.24096386,5,2,3,,,,,,,,1,16,,,,,,,,,,,3,9.575,0,,,,,,0.086111139,-0.238888917,1,0,0,9.575,Diorite_rect,2,0,2,0,1,
663e783bcd1ddd00b1970565,SCN,2024-06-24_13h53.24.804,LearnStrategy,2023.2.3,Win32,60.24096386,5,2,4,,,,,,,,6,15,,,,,,,,,,,6,1.508,1,,,,,,-0.125925912,-0.412962949,1,0,0,1.5077,Pegmatite_rect,3,0,3,0,1,
663e783bcd1ddd00b1970565,SCN,2024-06-24_13h53.24.804,LearnStrategy,2023.2.3,Win32,60.24096386,5,2,5,,,,,,,,1,07,,,,,,,,,,,1,11.143,1,,,,,,-0.328703704,-0.25,1,0,0,11.1434,Andesite_rect,4,0,4,0,1,
663e783bcd1ddd00b1970565,SCN,2024-06-24_13h53.24.804,LearnStrategy,2023.2.3,Win32,60.24096386,5,2,6,,,,,,,,2,09,,,,,,,,,,,2,2.641,1,,,,,,-0.133333347,-0.251851894,1,0,0,2.6413,Basalt_rect,5,0,5,0,1,
663e783bcd1ddd00b1970565,SCN,2024-06-24_13h53.24.804,LearnStrategy,2023.2.3,Win32,60.24096386,5,2,7,,,,,,,,8,02,,,,,,,,,,,8,1.426,1,,,,,,0.394444501,-0.389814801,1,0,0,1.4257,Pumice_rect,6,0,6,0,1,
663e783bcd1ddd00b1970565,SCN,2024-06-24_13h53.24.804,LearnStrategy,2023.2.3,Win32,60.24096386,5,2,8,,,,,,,,4,03,,,,,,,,,,,4,4.038,1,,,,,,0.367592564,-0.239814829,1,0,0,4.0382,Gabbro_rect,7,0,7,0,1,
663e783bcd1ddd00b1970565,SCN,2024-06-24_13h53.24.804,LearnStrategy,2023.2.3,Win32,60.24096386,5,2,9,,,,,,,,7,13,,,,,,,,,,,6,9.126,0,,,,,,-0.089814787,-0.409259302,1,0,0,9.1264,Pegmatite_rect,8,0,8,0,1,
663e783bcd1ddd00b1970565,SCN,2024-06-24_13h53.24.804,LearnStrategy,2023.2.3,Win32,60.24096386,5,2,10,,,,,,,,2,01,,,,,,,,,,,2,2.446,1,,,,,,-0.076851809,-0.24537037,1,0,0,2.446,Basalt_rect,9,0,9,0,1,
663e783bcd1ddd00b1970565,SCN,2024-06-24_13h53.24.804,LearnStrategy,2023.2.3,Win32,60.24096386,5,2,11,,,,,,,,5,05,,,,,,,,,,,5,1.775,1,,,,,,-0.349999993,-0.39907406,1,0,0,1.7751,Obsidian_rect,10,0,10,0,1,
663e783bcd1ddd00b1970565,SCN,2024-06-24_13h53.24.804,LearnStrategy,2023.2.3,Win32,60.24096386,5,2,12,,,,,,,,8,14,,,,,,,,,,,8,5.659,1,,,,,,0.330555527,-0.418518561,1,0,0,5.6586,Pumice_rect,11,0,11,0,1,
663e783bcd1ddd00b1970565,SCN,2024-06-24_13h53.24.804,LearnStrategy,2023.2.3,Win32,60.24096386,5,2,13,,,,,,,,5,16,,,,,,,,,,,5,2.049,1,,,,,,-0.458333333,-0.380555541,1,0,0,2.049,Obsidian_rect,12,0,12,0,1,
663e783bcd1ddd00b1970565,SCN,2024-06-24_13h53.24.804,LearnStrategy,2023.2.3,Win32,60.24096386,5,2,14,,,,,,,,3,08,,,,,,,,,,,7,9.76,0,,,,,,0.159259302,-0.411111125,1,0,0,9.76,Peridotite_rect,13,0,13,0,1,
663e783bcd1ddd00b1970565,SCN,2024-06-24_13h53.24.804,LearnStrategy,2023.2.3,Win32,60.24096386,5,2,15,,,,,,,,4,10,,,,,,,,,,,4,3.492,1,,,,,,0.375925982,-0.244444459,1,0,0,3.4922,Gabbro_rect,14,0,14,0,1,
663e783bcd1ddd00b1970565,SCN,2024-06-24_13h53.24.804,LearnStrategy,2023.2.3,Win32,60.24096386,5,2,16,,,,,,,,3,14,,,,,,,,,,,1,12.243,0,,,,,,-0.341666645,-0.259259259,1,0,0,12.2432,Andesite_rect,15,0,15,0,1,
663e783bcd1ddd00b1970565,SCN,2024-06-24_13h53.24.804,LearnStrategy,2023.2.3,Win32,60.24096386,6,1,1,-0.209259245,0.081481474,1,0,0,2.2975,Diorite_06,3,06,4,3,2.297,0.098148134,-0.250925912,1,0,0,2.6068,Diorite_rect,3,2.607,1,0,0,0,0,1,,,,,,,,,,,,,
663e783bcd1ddd00b1970565,SCN,2024-06-24_13h53.24.804,LearnStrategy,2023.2.3,Win32,60.24096386,6,1,2,0.570370427,-0.116666653,1,0,0,2.4483,Diorite_11,3,11,3,8,2.448,-0.339814822,-0.259259259,1,0,0,3.803,Andesite_rect,1,3.803,0,1,0,1,0,1,,,,,,,,,,,,,
663e783bcd1ddd00b1970565,SCN,2024-06-24_13h53.24.804,LearnStrategy,2023.2.3,Win32,60.24096386,6,1,3,0.045370384,0.249074071,1,0,0,2.048,Peridotite_05,7,05,5,5,2.048,0.174074102,-0.400000042,1,0,0,4.056,Peridotite_rect,7,4.056,1,2,0,2,0,1,,,,,,,,,,,,,
663e783bcd1ddd00b1970565,SCN,2024-06-24_13h53.24.804,LearnStrategy,2023.2.3,Win32,60.24096386,6,1,4,-0.577777757,-0.075925933,1,0,0,1.7484,Gabbro_14,4,14,3,1,1.748,0.359259288,-0.233333376,1,0,0,3.117,Gabbro_rect,4,3.117,1,3,0,3,0,1,,,,,,,,,,,,,
663e783bcd1ddd00b1970565,SCN,2024-06-24_13h53.24.804,LearnStrategy,2023.2.3,Win32,60.24096386,6,1,5,0.264814801,0.405555557,1,0,0,3.5492,Diorite_13,3,13,6,6,3.549,0.102777764,-0.412037037,1,0,0,5.0364,Peridotite_rect,7,5.036,0,4,0,4,0,1,,,,,,,,,,,,,
663e783bcd1ddd00b1970565,SCN,2024-06-24_13h53.24.804,LearnStrategy,2023.2.3,Win32,60.24096386,6,1,6,-0.380555541,-0.089814822,1,0,0,1.843,Peridotite_16,7,16,3,2,1.843,0.085185228,-0.386111153,1,0,0,3.1884,Peridotite_rect,7,3.188,1,5,0,5,0,1,,,,,,,,,,,,,
663e783bcd1ddd00b1970565,SCN,2024-06-24_13h53.24.804,LearnStrategy,2023.2.3,Win32,60.24096386,6,1,7,-0.234259217,-0.25,1,0,0,3.3482,Diorite_16,3,16,2,3,3.348,0.116666653,-0.24537037,1,0,0,3.5331,Diorite_rect,3,3.533,1,6,0,6,0,1,,,,,,,,,,,,,
663e783bcd1ddd00b1970565,SCN,2024-06-24_13h53.24.804,LearnStrategy,2023.2.3,Win32,60.24096386,6,1,8,0.267592607,0.085185192,1,0,0,3.2558,Diorite_09,3,09,4,6,3.256,0.161111125,-0.246296282,1,0,0,2.0486,Diorite_rect,3,2.049,1,7,0,7,0,1,,,,,,,,,,,,,
663e783bcd1ddd00b1970565,SCN,2024-06-24_13h53.24.804,LearnStrategy,2023.2.3,Win32,60.24096386,6,1,9,-0.237962935,0.083333333,1,0,0,1.6475,Diorite_06,3,06,4,3,1.648,0.137962977,-0.242592635,1,0,0,3.6304,Diorite_rect,3,3.63,1,8,0,8,0,1,,,,,,,,,,,,,
663e783bcd1ddd00b1970565,SCN,2024-06-24_13h53.24.804,LearnStrategy,2023.2.3,Win32,60.24096386,6,1,10,-0.352777764,0.118518511,1,0,0,17.9838,Pumice_03,8,03,4,2,17.984,0.353703675,-0.384259259,1,0,0,3.1292,Pumice_rect,8,3.129,1,9,0,9,0,1,,,,,,,,,,,,,
663e783bcd1ddd00b1970565,SCN,2024-06-24_13h53.24.804,LearnStrategy,2023.2.3,Win32,60.24096386,6,1,11,0.080555598,0.369444441,1,0,0,4.2783,Basalt_11,2,11,6,5,4.278,0.358333305,-0.252777806,1,0,0,4.115,Gabbro_rect,4,4.115,0,10,0,10,0,1,,,,,,,,,,,,,
663e783bcd1ddd00b1970565,SCN,2024-06-24_13h53.24.804,LearnStrategy,2023.2.3,Win32,60.24096386,6,1,12,0.536111196,-0.098148134,1,0,0,3.4491,Diorite_11,3,11,3,8,3.449,0.080555598,-0.262962977,1,0,0,2.8722,Diorite_rect,3,2.872,1,11,0,11,0,1,,,,,,,,,,,,,
663e783bcd1ddd00b1970565,SCN,2024-06-24_13h53.24.804,LearnStrategy,2023.2.3,Win32,60.24096386,6,1,13,0.357407464,0.099999993,1,0,0,3.9442,Basalt_12,2,12,4,7,3.944,-0.088888875,-0.249074088,1,0,0,4.0265,Basalt_rect,2,4.026,1,12,0,12,0,1,,,,,,,,,,,,,
663e783bcd1ddd00b1970565,SCN,2024-06-24_13h53.24.804,LearnStrategy,2023.2.3,Win32,60.24096386,6,1,14,-0.253703718,0.430555556,1,0,0,3.3563,Pumice_06,8,06,6,3,3.356,0.401851937,-0.418518561,1,0,0,3.0128,Pumice_rect,8,3.013,1,13,0,13,0,1,,,,,,,,,,,,,
663e783bcd1ddd00b1970565,SCN,2024-06-24_13h53.24.804,LearnStrategy,2023.2.3,Win32,60.24096386,6,1,15,-0.385185171,-0.414814843,1,0,0,4.6399,Pumice_10,8,10,1,2,4.64,0.41851849,-0.405555584,1,0,0,6.186,Pumice_rect,8,6.186,1,14,0,14,0,1,,,,,,,,,,,,,
663e783bcd1ddd00b1970565,SCN,2024-06-24_13h53.24.804,LearnStrategy,2023.2.3,Win32,60.24096386,6,1,16,0.401851937,0.279629619,1,0,0,3.4738,Andesite_09,1,09,5,7,3.474,-0.353703711,-0.247222265,1,0,0,5.0266,Andesite_rect,1,5.027,1,15,0,15,0,1,,,,,,,,,,,,,
663e783bcd1ddd00b1970565,SCN,2024-06-24_13h53.24.804,LearnStrategy,2023.2.3,Win32,60.24096386,6,2,1,,,,,,,,2,10,,,,,,,,,,,2,3.851,1,,,,,,-0.084259245,-0.236111111,1,0,0,3.8513,Basalt_rect,0,0,0,0,1,
663e783bcd1ddd00b1970565,SCN,2024-06-24_13h53.24.804,LearnStrategy,2023.2.3,Win32,60.24096386,6,2,2,,,,,,,,5,10,,,,,,,,,,,5,1.603,1,,,,,,-0.39907406,-0.387962977,1,0,0,1.6033,Obsidian_rect,1,0,1,0,1,
663e783bcd1ddd00b1970565,SCN,2024-06-24_13h53.24.804,LearnStrategy,2023.2.3,Win32,60.24096386,6,2,3,,,,,,,,1,03,,,,,,,,,,,1,1.541,1,,,,,,-0.339814822,-0.252777806,1,0,0,1.5411,Andesite_rect,2,0,2,0,1,
663e783bcd1ddd00b1970565,SCN,2024-06-24_13h53.24.804,LearnStrategy,2023.2.3,Win32,60.24096386,6,2,4,,,,,,,,6,10,,,,,,,,,,,6,1.558,1,,,,,,-0.198148162,-0.40370369,1,0,0,1.5585,Pegmatite_rect,3,0,3,0,1,
663e783bcd1ddd00b1970565,SCN,2024-06-24_13h53.24.804,LearnStrategy,2023.2.3,Win32,60.24096386,6,2,5,,,,,,,,7,12,,,,,,,,,,,7,3.576,1,,,,,,0.171296296,-0.410185213,1,0,0,3.5756,Peridotite_rect,4,0,4,0,1,
663e783bcd1ddd00b1970565,SCN,2024-06-24_13h53.24.804,LearnStrategy,2023.2.3,Win32,60.24096386,6,2,6,,,,,,,,6,12,,,,,,,,,,,6,1.508,1,,,,,,-0.109259217,-0.396296325,1,0,0,1.508,Pegmatite_rect,5,0,5,0,1,
663e783bcd1ddd00b1970565,SCN,2024-06-24_13h53.24.804,LearnStrategy,2023.2.3,Win32,60.24096386,6,2,7,,,,,,,,3,07,,,,,,,,,,,7,7.772,0,,,,,,0.162962949,-0.40370369,1,0,0,7.7717,Peridotite_rect,6,0,6,0,1,
663e783bcd1ddd00b1970565,SCN,2024-06-24_13h53.24.804,LearnStrategy,2023.2.3,Win32,60.24096386,6,2,8,,,,,,,,7,06,,,,,,,,,,,7,2.375,1,,,,,,0.118518547,-0.392592607,1,0,0,2.3754,Peridotite_rect,7,0,7,0,1,
663e783bcd1ddd00b1970565,SCN,2024-06-24_13h53.24.804,LearnStrategy,2023.2.3,Win32,60.24096386,6,2,9,,,,,,,,1,05,,,,,,,,,,,3,7.159,0,,,,,,0.162962949,-0.239814829,1,0,0,7.1589,Diorite_rect,8,0,8,0,1,
663e783bcd1ddd00b1970565,SCN,2024-06-24_13h53.24.804,LearnStrategy,2023.2.3,Win32,60.24096386,6,2,10,,,,,,,,3,12,,,,,,,,,,,3,3.558,1,,,,,,0.127777806,-0.244444459,1,0,0,3.5576,Diorite_rect,9,0,9,0,1,
663e783bcd1ddd00b1970565,SCN,2024-06-24_13h53.24.804,LearnStrategy,2023.2.3,Win32,60.24096386,6,2,11,,,,,,,,5,02,,,,,,,,,,,5,3.225,1,,,,,,-0.36296297,-0.398148148,1,0,0,3.2254,Obsidian_rect,10,0,10,0,1,
663e783bcd1ddd00b1970565,SCN,2024-06-24_13h53.24.804,LearnStrategy,2023.2.3,Win32,60.24096386,6,2,12,,,,,,,,4,01,,,,,,,,,,,1,3.596,0,,,,,,-0.357407393,-0.238888917,1,0,0,3.5961,Andesite_rect,11,0,11,0,1,
663e783bcd1ddd00b1970565,SCN,2024-06-24_13h53.24.804,LearnStrategy,2023.2.3,Win32,60.24096386,6,2,13,,,,,,,,8,15,,,,,,,,,,,8,2.142,1,,,,,,0.351851852,-0.385185171,1,0,0,2.142,Pumice_rect,12,0,12,0,1,
663e783bcd1ddd00b1970565,SCN,2024-06-24_13h53.24.804,LearnStrategy,2023.2.3,Win32,60.24096386,6,2,14,,,,,,,,4,13,,,,,,,,,,,4,7.942,1,,,,,,0.341666751,-0.253703718,1,0,0,7.942,Gabbro_rect,13,0,13,0,1,
663e783bcd1ddd00b1970565,SCN,2024-06-24_13h53.24.804,LearnStrategy,2023.2.3,Win32,60.24096386,6,2,15,,,,,,,,8,09,,,,,,,,,,,8,1.702,1,,,,,,0.420370455,-0.406481496,1,0,0,1.7024,Pumice_rect,14,0,14,0,1,
663e783bcd1ddd00b1970565,SCN,2024-06-24_13h53.24.804,LearnStrategy,2023.2.3,Win32,60.24096386,6,2,16,,,,,,,,2,02,,,,,,,,,,,2,1.907,1,,,,,,-0.075925898,-0.247222265,1,0,0,1.9073,Basalt_rect,15,0,15,0,1,
663e783bcd1ddd00b1970565,SCN,2024-06-24_13h53.24.804,LearnStrategy,2023.2.3,Win32,60.24096386,7,1,1,-0.236111111,0.228703693,1,0,0,5.7946,Andesite_10,1,10,5,3,5.795,0.399074131,-0.242592635,1,0,0,6.0684,Gabbro_rect,4,6.068,0,0,0,0,0,1,,,,,,,,,,,,,
663e783bcd1ddd00b1970565,SCN,2024-06-24_13h53.24.804,LearnStrategy,2023.2.3,Win32,60.24096386,7,1,2,0.389814871,0.073148127,1,0,0,1.148,Basalt_12,2,12,4,7,1.148,-0.070370356,-0.238888917,1,0,0,6.9253,Basalt_rect,2,6.925,1,1,0,1,0,1,,,,,,,,,,,,,
663e783bcd1ddd00b1970565,SCN,2024-06-24_13h53.24.804,LearnStrategy,2023.2.3,Win32,60.24096386,7,1,3,-0.23055557,-0.253703718,1,0,0,1.8148,Diorite_16,3,16,2,3,1.815,0.12962963,-0.250925912,1,0,0,4.1916,Diorite_rect,3,4.192,1,2,0,2,0,1,,,,,,,,,,,,,
663e783bcd1ddd00b1970565,SCN,2024-06-24_13h53.24.804,LearnStrategy,2023.2.3,Win32,60.24096386,7,1,4,0.561111168,-0.385185171,1,0,0,3.1477,Diorite_15,3,15,1,8,3.148,0.111111111,-0.233333376,1,0,0,5.0741,Diorite_rect,3,5.074,1,3,0,3,0,1,,,,,,,,,,,,,
663e783bcd1ddd00b1970565,SCN,2024-06-24_13h53.24.804,LearnStrategy,2023.2.3,Win32,60.24096386,7,1,5,-0.051851838,0.415740737,1,0,0,3.144,Pegmatite_09,6,09,6,4,3.144,-0.060185185,-0.393518519,1,0,0,3.0395,Pegmatite_rect,6,3.039,1,4,0,4,0,1,,,,,,,,,,,,,
663e783bcd1ddd00b1970565,SCN,2024-06-24_13h53.24.804,LearnStrategy,2023.2.3,Win32,60.24096386,7,1,6,0.263888889,-0.262037065,1,0,0,4.2686,Gabbro_12,4,12,2,6,4.269,0.474074046,-0.252777806,1,0,0,3.9811,Gabbro_rect,4,3.981,1,5,0,5,0,1,,,,,,,,,,,,,
663e783bcd1ddd00b1970565,SCN,2024-06-24_13h53.24.804,LearnStrategy,2023.2.3,Win32,60.24096386,7,1,7,-0.071296268,0.247222212,1,0,0,5.228,Andesite_11,1,11,5,4,5.228,-0.37037037,-0.253703718,1,0,0,3.0811,Andesite_rect,1,3.081,1,6,0,6,0,1,,,,,,,,,,,,,
663e783bcd1ddd00b1970565,SCN,2024-06-24_13h53.24.804,LearnStrategy,2023.2.3,Win32,60.24096386,7,1,8,0.586111139,0.272222219,1,0,0,2.4808,Gabbro_11,4,11,5,8,2.481,0.415740826,-0.237963005,1,0,0,2.7133,Gabbro_rect,4,2.713,1,7,0,7,0,1,,,,,,,,,,,,,
663e783bcd1ddd00b1970565,SCN,2024-06-24_13h53.24.804,LearnStrategy,2023.2.3,Win32,60.24096386,7,1,9,-0.261111083,-0.112963005,1,0,0,2.3477,Andesite_14,1,14,3,3,2.348,0.098148134,-0.243518547,1,0,0,4.4897,Diorite_rect,3,4.49,0,8,0,8,0,1,,,,,,,,,,,,,
663e783bcd1ddd00b1970565,SCN,2024-06-24_13h53.24.804,LearnStrategy,2023.2.3,Win32,60.24096386,7,1,10,-0.545370349,-0.109259288,1,0,0,2.0641,Gabbro_14,4,14,3,1,2.064,0.308333362,-0.258333347,1,0,0,4.2422,Gabbro_rect,4,4.242,1,9,0,9,0,1,,,,,,,,,,,,,
663e783bcd1ddd00b1970565,SCN,2024-06-24_13h53.24.804,LearnStrategy,2023.2.3,Win32,60.24096386,7,1,11,-0.52407406,0.104629623,1,0,0,5.3451,Gabbro_16,4,16,4,1,5.345,0.339814787,-0.239814829,1,0,0,3.2537,Gabbro_rect,4,3.254,1,10,0,10,0,1,,,,,,,,,,,,,
663e783bcd1ddd00b1970565,SCN,2024-06-24_13h53.24.804,LearnStrategy,2023.2.3,Win32,60.24096386,7,1,12,0.380555612,0.261111101,1,0,0,4.1648,Andesite_09,1,09,5,7,4.165,-0.363888882,-0.255555541,1,0,0,3.0798,Andesite_rect,1,3.08,1,11,0,11,0,1,,,,,,,,,,,,,
663e783bcd1ddd00b1970565,SCN,2024-06-24_13h53.24.804,LearnStrategy,2023.2.3,Win32,60.24096386,7,1,13,0.575925898,0.405555557,1,0,0,5.4448,Andesite_02,1,02,6,8,5.445,-0.426851838,-0.262962977,1,0,0,5.3876,Andesite_rect,1,5.388,1,12,0,12,0,1,,,,,,,,,,,,,
663e783bcd1ddd00b1970565,SCN,2024-06-24_13h53.24.804,LearnStrategy,2023.2.3,Win32,60.24096386,7,1,14,-0.053703661,-0.126851894,1,0,0,3.4794,Andesite_06,1,06,3,4,3.479,-0.342592593,-0.25,1,0,0,5.0538,Andesite_rect,1,5.054,1,13,0,13,0,1,,,,,,,,,,,,,
663e783bcd1ddd00b1970565,SCN,2024-06-24_13h53.24.804,LearnStrategy,2023.2.3,Win32,60.24096386,7,1,15,0.073148162,-0.270370413,1,0,0,7.5606,Pegmatite_07,6,07,2,5,7.561,-0.09629631,-0.387962977,1,0,0,3.5361,Pegmatite_rect,6,3.536,1,14,0,14,0,1,,,,,,,,,,,,,
663e783bcd1ddd00b1970565,SCN,2024-06-24_13h53.24.804,LearnStrategy,2023.2.3,Win32,60.24096386,7,1,16,0.262962977,0.105555534,1,0,0,12.0622,Diorite_09,3,09,4,6,12.062,0.109259288,-0.262037065,0,0,1,5.071,Diorite_rect,3,5.071,1,15,0,15,0,1,,,,,,,,,,,,,
663e783bcd1ddd00b1970565,SCN,2024-06-24_13h53.24.804,LearnStrategy,2023.2.3,Win32,60.24096386,7,2,1,,,,,,,,7,02,,,,,,,,,,,7,2.948,1,,,,,,0.186111097,-0.391666695,1,0,0,2.9485,Peridotite_rect,0,0,0,0,1,
663e783bcd1ddd00b1970565,SCN,2024-06-24_13h53.24.804,LearnStrategy,2023.2.3,Win32,60.24096386,7,2,2,,,,,,,,4,10,,,,,,,,,,,4,5.06,1,,,,,,0.45648151,-0.235185199,1,0,0,5.0595,Gabbro_rect,1,0,1,0,1,
663e783bcd1ddd00b1970565,SCN,2024-06-24_13h53.24.804,LearnStrategy,2023.2.3,Win32,60.24096386,7,2,3,,,,,,,,1,03,,,,,,,,,,,1,1.818,1,,,,,,-0.40370369,-0.267592607,1,0,0,1.8184,Andesite_rect,2,0,2,0,1,
663e783bcd1ddd00b1970565,SCN,2024-06-24_13h53.24.804,LearnStrategy,2023.2.3,Win32,60.24096386,7,2,4,,,,,,,,5,05,,,,,,,,,,,5,5.13,1,,,,,,-0.389814801,-0.410185213,1,0,0,5.1295,Obsidian_rect,3,0,3,0,1,
663e783bcd1ddd00b1970565,SCN,2024-06-24_13h53.24.804,LearnStrategy,2023.2.3,Win32,60.24096386,7,2,5,,,,,,,,6,16,,,,,,,,,,,6,5.526,1,,,,,,-0.161111125,-0.40370369,1,0,0,5.5258,Pegmatite_rect,4,0,4,0,1,
663e783bcd1ddd00b1970565,SCN,2024-06-24_13h53.24.804,LearnStrategy,2023.2.3,Win32,60.24096386,7,2,6,,,,,,,,1,05,,,,,,,,,,,4,2.884,0,,,,,,0.320370427,-0.262962977,1,0,0,2.8843,Gabbro_rect,5,0,5,0,1,
663e783bcd1ddd00b1970565,SCN,2024-06-24_13h53.24.804,LearnStrategy,2023.2.3,Win32,60.24096386,7,2,7,,,,,,,,7,13,,,,,,,,,,,7,1.874,1,,,,,,0.118518547,-0.405555584,1,0,0,1.8735,Peridotite_rect,6,0,6,0,1,
663e783bcd1ddd00b1970565,SCN,2024-06-24_13h53.24.804,LearnStrategy,2023.2.3,Win32,60.24096386,7,2,8,,,,,,,,4,13,,,,,,,,,,,4,12.104,1,,,,,,0.383333418,-0.267592607,1,0,0,12.1041,Gabbro_rect,7,0,7,0,1,
663e783bcd1ddd00b1970565,SCN,2024-06-24_13h53.24.804,LearnStrategy,2023.2.3,Win32,60.24096386,7,2,9,,,,,,,,2,09,,,,,,,,,,,2,2.675,1,,,,,,-0.17777775,-0.261111153,1,0,0,2.6752,Basalt_rect,8,0,8,0,1,
663e783bcd1ddd00b1970565,SCN,2024-06-24_13h53.24.804,LearnStrategy,2023.2.3,Win32,60.24096386,7,2,10,,,,,,,,5,16,,,,,,,,,,,5,1.574,1,,,,,,-0.380555541,-0.404629672,1,0,0,1.5743,Obsidian_rect,9,0,9,0,1,
663e783bcd1ddd00b1970565,SCN,2024-06-24_13h53.24.804,LearnStrategy,2023.2.3,Win32,60.24096386,7,2,11,,,,,,,,6,10,,,,,,,,,,,6,2.159,1,,,,,,-0.125925912,-0.387962977,1,0,0,2.1592,Pegmatite_rect,10,0,10,0,1,
663e783bcd1ddd00b1970565,SCN,2024-06-24_13h53.24.804,LearnStrategy,2023.2.3,Win32,60.24096386,7,2,12,,,,,,,,8,02,,,,,,,,,,,8,1.851,1,,,,,,0.328703704,-0.39444443,1,0,0,1.8507,Pumice_rect,11,0,11,0,1,
663e783bcd1ddd00b1970565,SCN,2024-06-24_13h53.24.804,LearnStrategy,2023.2.3,Win32,60.24096386,7,2,13,,,,,,,,8,08,,,,,,,,,,,3,4.275,0,,,,,,0.228703746,-0.266666695,1,0,0,4.2752,Diorite_rect,12,0,12,0,1,
663e783bcd1ddd00b1970565,SCN,2024-06-24_13h53.24.804,LearnStrategy,2023.2.3,Win32,60.24096386,7,2,14,,,,,,,,3,08,,,,,,,,,,,7,7.774,0,,,,,,0.089814857,-0.396296325,1,0,0,7.7738,Peridotite_rect,13,0,13,0,1,
663e783bcd1ddd00b1970565,SCN,2024-06-24_13h53.24.804,LearnStrategy,2023.2.3,Win32,60.24096386,7,2,15,,,,,,,,3,14,,,,,,,,,,,3,2.951,1,,,,,,0.121296282,-0.231481481,1,0,0,2.9512,Diorite_rect,14,0,14,0,1,
663e783bcd1ddd00b1970565,SCN,2024-06-24_13h53.24.804,LearnStrategy,2023.2.3,Win32,60.24096386,7,2,16,,,,,,,,2,02,,,,,,,,,,,2,4.189,1,,,,,,-0.112037023,-0.251851894,1,0,0,4.1885,Basalt_rect,15,0,15,0,1,
663e783bcd1ddd00b1970565,SCN,2024-06-24_13h53.24.804,LearnStrategy,2023.2.3,Win32,60.24096386,8,1,1,0.241666653,0.065740727,1,0,0,3.4237,Diorite_09,3,09,4,6,3.424,0.119444459,-0.237037023,1,0,0,3.0677,Diorite_rect,3,3.068,1,0,0,0,0,1,,,,,,,,,,,,,
663e783bcd1ddd00b1970565,SCN,2024-06-24_13h53.24.804,LearnStrategy,2023.2.3,Win32,60.24096386,8,1,2,-0.546296296,0.119444423,1,0,0,2.4094,Gabbro_16,4,16,4,1,2.409,0.334259316,-0.239814829,1,0,0,2.7593,Gabbro_rect,4,2.759,1,1,0,1,0,1,,,,,,,,,,,,,
663e783bcd1ddd00b1970565,SCN,2024-06-24_13h53.24.804,LearnStrategy,2023.2.3,Win32,60.24096386,8,1,3,0.571296268,0.398148148,1,0,0,6.2772,Andesite_02,1,02,6,8,6.277,0.394444501,-0.26944443,1,0,0,9.3033,Gabbro_rect,4,9.303,0,2,0,2,0,1,,,,,,,,,,,,,
663e783bcd1ddd00b1970565,SCN,2024-06-24_13h53.24.804,LearnStrategy,2023.2.3,Win32,60.24096386,8,1,4,-0.375925912,0.107407393,1,0,0,1.9318,Pumice_03,8,03,4,2,1.932,0.406481566,-0.390740783,1,0,0,2.0558,Pumice_rect,8,2.056,1,3,0,3,0,1,,,,,,,,,,,,,
663e783bcd1ddd00b1970565,SCN,2024-06-24_13h53.24.804,LearnStrategy,2023.2.3,Win32,60.24096386,8,1,5,0.085185228,0.100925905,1,0,0,2.3941,Pumice_04,8,04,4,5,2.394,-0.130555541,-0.241666653,1,0,0,8.421,Basalt_rect,2,8.421,0,4,0,4,0,1,,,,,,,,,,,,,
663e783bcd1ddd00b1970565,SCN,2024-06-24_13h53.24.804,LearnStrategy,2023.2.3,Win32,60.24096386,8,1,6,-0.381481489,0.417592587,1,0,0,2.8606,Gabbro_05,4,05,6,2,2.861,0.139814801,-0.389814801,1,0,0,4.1612,Peridotite_rect,7,4.161,0,5,0,5,0,1,,,,,,,,,,,,,
663e783bcd1ddd00b1970565,SCN,2024-06-24_13h53.24.804,LearnStrategy,2023.2.3,Win32,60.24096386,8,1,7,0.545370455,0.256481471,1,0,0,3.4429,Gabbro_11,4,11,5,8,3.443,0.372222194,-0.242592635,1,0,0,2.0697,Gabbro_rect,4,2.07,1,6,0,6,0,1,,,,,,,,,,,,,
663e783bcd1ddd00b1970565,SCN,2024-06-24_13h53.24.804,LearnStrategy,2023.2.3,Win32,60.24096386,8,1,8,0.387037065,0.274074078,1,0,0,8.6836,Andesite_09,1,09,5,7,8.684,-0.455555563,-0.253703718,1,0,0,2.1306,Andesite_rect,1,2.131,1,7,0,7,0,1,,,,,,,,,,,,,
663e783bcd1ddd00b1970565,SCN,2024-06-24_13h53.24.804,LearnStrategy,2023.2.3,Win32,60.24096386,8,1,9,0.084259245,0.244444441,1,0,0,1.8823,Peridotite_05,7,05,5,5,1.882,0.103703746,-0.402777778,1,0,0,1.9839,Peridotite_rect,7,1.984,1,8,0,8,0,1,,,,,,,,,,,,,
663e783bcd1ddd00b1970565,SCN,2024-06-24_13h53.24.804,LearnStrategy,2023.2.3,Win32,60.24096386,8,1,10,0.233333376,0.409259257,1,0,0,10.2781,Diorite_13,3,13,6,6,10.278,0.119444459,-0.413888931,1,0,0,3.1181,Peridotite_rect,7,3.118,0,9,0,9,0,1,,,,,,,,,,,,,
663e783bcd1ddd00b1970565,SCN,2024-06-24_13h53.24.804,LearnStrategy,2023.2.3,Win32,60.24096386,8,1,11,0.563888974,-0.382407436,1,0,0,2.5434,Diorite_15,3,15,1,8,2.543,0.150925954,-0.25462963,1,0,0,2.9624,Diorite_rect,3,2.962,1,10,0,10,0,1,,,,,,,,,,,,,
663e783bcd1ddd00b1970565,SCN,2024-06-24_13h53.24.804,LearnStrategy,2023.2.3,Win32,60.24096386,8,1,12,-0.39444443,0.231481481,1,0,0,5.6497,Peridotite_14,7,14,5,2,5.65,0.123148176,-0.257407436,1,0,0,5.913,Diorite_rect,3,5.913,0,11,0,11,0,1,,,,,,,,,,,,,
663e783bcd1ddd00b1970565,SCN,2024-06-24_13h53.24.804,LearnStrategy,2023.2.3,Win32,60.24096386,8,1,13,0.249074088,0.418518517,1,0,0,3.6566,Diorite_13,3,13,6,6,3.657,0.068518533,-0.243518547,1,0,0,2.3356,Diorite_rect,3,2.336,1,12,0,12,0,1,,,,,,,,,,,,,
663e783bcd1ddd00b1970565,SCN,2024-06-24_13h53.24.804,LearnStrategy,2023.2.3,Win32,60.24096386,8,1,14,0.251851894,-0.114814829,1,0,0,4.0674,Peridotite_04,7,04,3,6,4.067,0.066666709,-0.39444443,1,0,0,1.7459,Peridotite_rect,7,1.746,1,13,0,13,0,1,,,,,,,,,,,,,
663e783bcd1ddd00b1970565,SCN,2024-06-24_13h53.24.804,LearnStrategy,2023.2.3,Win32,60.24096386,8,1,15,0.413888861,0.237962952,1,0,0,5.2157,Andesite_09,1,09,5,7,5.216,-0.40648146,-0.265740783,1,0,0,1.7465,Andesite_rect,1,1.747,1,14,0,14,0,1,,,,,,,,,,,,,
663e783bcd1ddd00b1970565,SCN,2024-06-24_13h53.24.804,LearnStrategy,2023.2.3,Win32,60.24096386,8,1,16,-0.538888896,-0.072222215,1,0,0,2.1066,Gabbro_14,4,14,3,1,2.107,0.387037065,-0.25462963,1,0,0,2.635,Gabbro_rect,4,2.635,1,15,0,15,0,1,,,,,,,,,,,,,
663e783bcd1ddd00b1970565,SCN,2024-06-24_13h53.24.804,LearnStrategy,2023.2.3,Win32,60.24096386,8,2,1,,,,,,,,4,01,,,,,,,,,,,3,11.092,0,,,,,,0.087962963,-0.241666653,1,0,0,11.0916,Diorite_rect,0,0,0,0,1,
663e783bcd1ddd00b1970565,SCN,2024-06-24_13h53.24.804,LearnStrategy,2023.2.3,Win32,60.24096386,8,2,2,,,,,,,,5,12,,,,,,,,,,,5,2.091,1,,,,,,-0.422222208,-0.39907406,1,0,0,2.0915,Obsidian_rect,1,0,1,0,1,
663e783bcd1ddd00b1970565,SCN,2024-06-24_13h53.24.804,LearnStrategy,2023.2.3,Win32,60.24096386,8,2,3,,,,,,,,1,07,,,,,,,,,,,3,4.841,0,,,,,,0.10092594,-0.262037065,1,0,0,4.841,Diorite_rect,2,0,2,0,1,
663e783bcd1ddd00b1970565,SCN,2024-06-24_13h53.24.804,LearnStrategy,2023.2.3,Win32,60.24096386,8,2,4,,,,,,,,4,15,,,,,,,,,,,4,5.543,1,,,,,,0.381481453,-0.253703718,1,0,0,5.5434,Gabbro_rect,3,0,3,0,1,
663e783bcd1ddd00b1970565,SCN,2024-06-24_13h53.24.804,LearnStrategy,2023.2.3,Win32,60.24096386,8,2,5,,,,,,,,3,12,,,,,,,,,,,3,6.641,1,,,,,,0.084259245,-0.251851894,1,0,0,6.6414,Diorite_rect,4,0,4,0,1,
663e783bcd1ddd00b1970565,SCN,2024-06-24_13h53.24.804,LearnStrategy,2023.2.3,Win32,60.24096386,8,2,6,,,,,,,,6,12,,,,,,,,,,,6,1.541,1,,,,,,-0.185185185,-0.405555584,1,0,0,1.541,Pegmatite_rect,5,0,5,0,1,
663e783bcd1ddd00b1970565,SCN,2024-06-24_13h53.24.804,LearnStrategy,2023.2.3,Win32,60.24096386,8,2,7,,,,,,,,8,13,,,,,,,,,,,8,2.689,1,,,,,,0.37962963,-0.414814843,1,0,0,2.6895,Pumice_rect,6,0,6,0,1,
663e783bcd1ddd00b1970565,SCN,2024-06-24_13h53.24.804,LearnStrategy,2023.2.3,Win32,60.24096386,8,2,8,,,,,,,,7,08,,,,,,,,,,,7,1.601,1,,,,,,0.208333333,-0.388888889,1,0,0,1.601,Peridotite_rect,7,0,7,0,1,
663e783bcd1ddd00b1970565,SCN,2024-06-24_13h53.24.804,LearnStrategy,2023.2.3,Win32,60.24096386,8,2,9,,,,,,,,7,06,,,,,,,,,,,7,2.507,1,,,,,,0.208333333,-0.388888889,1,0,0,2.5073,Peridotite_rect,8,0,8,0,1,
663e783bcd1ddd00b1970565,SCN,2024-06-24_13h53.24.804,LearnStrategy,2023.2.3,Win32,60.24096386,8,2,10,,,,,,,,6,11,,,,,,,,,,,6,1.717,1,,,,,,-0.10092594,-0.402777778,1,0,0,1.7166,Pegmatite_rect,9,0,9,0,1,
663e783bcd1ddd00b1970565,SCN,2024-06-24_13h53.24.804,LearnStrategy,2023.2.3,Win32,60.24096386,8,2,11,,,,,,,,2,01,,,,,,,,,,,4,4.275,0,,,,,,0.366666723,-0.244444459,1,0,0,4.2755,Gabbro_rect,10,0,10,0,1,
663e783bcd1ddd00b1970565,SCN,2024-06-24_13h53.24.804,LearnStrategy,2023.2.3,Win32,60.24096386,8,2,12,,,,,,,,8,09,,,,,,,,,,,8,1.624,1,,,,,,0.411111196,-0.400000042,1,0,0,1.6242,Pumice_rect,11,0,11,0,1,
663e783bcd1ddd00b1970565,SCN,2024-06-24_13h53.24.804,LearnStrategy,2023.2.3,Win32,60.24096386,8,2,13,,,,,,,,3,02,,,,,,,,,,,3,3.236,1,,,,,,0.073148162,-0.229629658,1,0,0,3.2361,Diorite_rect,12,0,12,0,1,
663e783bcd1ddd00b1970565,SCN,2024-06-24_13h53.24.804,LearnStrategy,2023.2.3,Win32,60.24096386,8,2,14,,,,,,,,5,10,,,,,,,,,,,5,1.841,1,,,,,,-0.416666667,-0.404629672,1,0,0,1.8412,Obsidian_rect,13,0,13,0,1,
663e783bcd1ddd00b1970565,SCN,2024-06-24_13h53.24.804,LearnStrategy,2023.2.3,Win32,60.24096386,8,2,15,,,,,,,,1,16,,,,,,,,,,,3,9.009,0,,,,,,0.113888917,-0.242592635,1,0,0,9.009,Diorite_rect,14,0,14,0,1,
663e783bcd1ddd00b1970565,SCN,2024-06-24_13h53.24.804,LearnStrategy,2023.2.3,Win32,60.24096386,8,2,16,,,,,,,,2,05,,,,,,,,,,,4,2.501,0,,,,,,0.327777863,-0.238888917,1,0,0,2.5007,Gabbro_rect,15,0,15,0,1,
663e783bcd1ddd00b1970565,SCN,2024-06-24_13h53.24.804,LearnStrategy,2023.2.3,Win32,60.24096386,9,1,1,0.382407436,-0.247222265,1,0,0,5.4997,Basalt_06,2,06,2,7,5.5,-0.141666624,-0.239814829,1,0,0,1.9137,Basalt_rect,2,1.914,1,0,0,0,0,1,,,,,,,,,,,,,
663e783bcd1ddd00b1970565,SCN,2024-06-24_13h53.24.804,LearnStrategy,2023.2.3,Win32,60.24096386,9,1,2,-0.083333333,-0.437962991,1,0,0,1.6264,Basalt_08,2,08,1,4,1.626,-0.141666624,-0.252777806,1,0,0,1.3746,Basalt_rect,2,1.375,1,1,0,1,0,1,,,,,,,,,,,,,
663e783bcd1ddd00b1970565,SCN,2024-06-24_13h53.24.804,LearnStrategy,2023.2.3,Win32,60.24096386,9,1,3,-0.260185171,0.061111097,1,0,0,4.3447,Diorite_06,3,06,4,3,4.345,0.044444473,-0.257407436,1,0,0,4.1585,Diorite_rect,3,4.159,1,2,0,2,0,1,,,,,,,,,,,,,
663e783bcd1ddd00b1970565,SCN,2024-06-24_13h53.24.804,LearnStrategy,2023.2.3,Win32,60.24096386,9,1,4,-0.375,-0.425925926,1,0,0,4.3412,Pumice_10,8,10,1,2,4.341,0.378703788,-0.409259302,1,0,0,7.6959,Pumice_rect,8,7.696,1,3,0,3,0,1,,,,,,,,,,,,,
663e783bcd1ddd00b1970565,SCN,2024-06-24_13h53.24.804,LearnStrategy,2023.2.3,Win32,60.24096386,9,1,5,0.109259288,0.414814817,1,0,0,5.5782,Basalt_11,2,11,6,5,5.578,0.324074074,-0.259259259,1,0,0,4.3154,Gabbro_rect,4,4.315,0,4,0,4,0,1,,,,,,,,,,,,,
663e783bcd1ddd00b1970565,SCN,2024-06-24_13h53.24.804,LearnStrategy,2023.2.3,Win32,60.24096386,9,1,6,0.400925954,0.118518511,1,0,0,1.7468,Basalt_12,2,12,4,7,1.747,-0.080555527,-0.262037065,1,0,0,2.4759,Basalt_rect,2,2.476,1,5,0,5,0,1,,,,,,,,,,,,,
663e783bcd1ddd00b1970565,SCN,2024-06-24_13h53.24.804,LearnStrategy,2023.2.3,Win32,60.24096386,9,1,7,0.25,0.089814822,1,0,0,1.8803,Diorite_09,3,09,4,6,1.88,0.180555556,-0.253703718,1,0,0,3.1576,Diorite_rect,3,3.158,1,6,0,6,0,1,,,,,,,,,,,,,
663e783bcd1ddd00b1970565,SCN,2024-06-24_13h53.24.804,LearnStrategy,2023.2.3,Win32,60.24096386,9,1,8,-0.109259217,0.290740737,1,0,0,3.9955,Andesite_11,1,11,5,4,3.995,-0.3824074,-0.246296282,1,0,0,2.2464,Andesite_rect,1,2.246,1,7,0,7,0,1,,,,,,,,,,,,,
663e783bcd1ddd00b1970565,SCN,2024-06-24_13h53.24.804,LearnStrategy,2023.2.3,Win32,60.24096386,9,1,9,-0.231481481,-0.443518533,1,0,0,2.1602,Peridotite_10,7,10,1,3,2.16,0.143518519,-0.40370369,1,0,0,2.2735,Peridotite_rect,7,2.274,1,8,0,8,0,1,,,,,,,,,,,,,
663e783bcd1ddd00b1970565,SCN,2024-06-24_13h53.24.804,LearnStrategy,2023.2.3,Win32,60.24096386,9,1,10,0.519444501,0.399074069,1,0,0,3.9952,Andesite_02,1,02,6,8,3.995,-0.424074067,-0.240740741,1,0,0,7.1055,Andesite_rect,1,7.106,1,9,0,9,0,1,,,,,,,,,,,,,
663e783bcd1ddd00b1970565,SCN,2024-06-24_13h53.24.804,LearnStrategy,2023.2.3,Win32,60.24096386,9,1,11,0.099074116,0.267592589,1,0,0,7.0795,Peridotite_05,7,05,5,5,7.079,0.189814815,-0.402777778,1,0,0,2.6979,Peridotite_rect,7,2.698,1,10,0,10,0,1,,,,,,,,,,,,,
663e783bcd1ddd00b1970565,SCN,2024-06-24_13h53.24.804,LearnStrategy,2023.2.3,Win32,60.24096386,9,1,12,0.578703704,-0.265740783,1,0,0,3.2229,Pegmatite_06,6,06,2,8,3.223,-0.130555541,-0.40370369,1,0,0,1.6623,Pegmatite_rect,6,1.662,1,11,0,11,0,1,,,,,,,,,,,,,
663e783bcd1ddd00b1970565,SCN,2024-06-24_13h53.24.804,LearnStrategy,2023.2.3,Win32,60.24096386,9,1,13,0.369444529,0.272222219,1,0,0,4.5243,Andesite_09,1,09,5,7,4.524,-0.385185171,-0.244444459,1,0,0,1.619,Andesite_rect,1,1.619,1,12,0,12,0,1,,,,,,,,,,,,,
663e783bcd1ddd00b1970565,SCN,2024-06-24_13h53.24.804,LearnStrategy,2023.2.3,Win32,60.24096386,9,1,14,0.238888917,0.399074069,1,0,0,2.931,Diorite_13,3,13,6,6,2.931,0.135185171,-0.251851894,1,0,0,2.8911,Diorite_rect,3,2.891,1,13,0,13,0,1,,,,,,,,,,,,,
663e783bcd1ddd00b1970565,SCN,2024-06-24_13h53.24.804,LearnStrategy,2023.2.3,Win32,60.24096386,9,1,15,0.252777806,-0.414814843,1,0,0,4.2941,Pumice_05,8,05,1,6,4.294,0.387963048,-0.386111153,1,0,0,1.9355,Pumice_rect,8,1.935,1,14,0,14,0,1,,,,,,,,,,,,,
663e783bcd1ddd00b1970565,SCN,2024-06-24_13h53.24.804,LearnStrategy,2023.2.3,Win32,60.24096386,9,1,16,-0.057407379,-0.119444459,1,0,0,4.4116,Andesite_06,1,06,3,4,4.412,-0.372222229,-0.23055557,1,0,0,3.3077,Andesite_rect,1,3.308,1,15,0,15,0,1,,,,,,,,,,,,,
663e783bcd1ddd00b1970565,SCN,2024-06-24_13h53.24.804,LearnStrategy,2023.2.3,Win32,60.24096386,9,2,1,,,,,,,,2,10,,,,,,,,,,,2,8.419,1,,,,,,-0.162962949,-0.238888917,1,0,0,8.4193,Basalt_rect,0,0,0,0,1,
663e783bcd1ddd00b1970565,SCN,2024-06-24_13h53.24.804,LearnStrategy,2023.2.3,Win32,60.24096386,9,2,2,,,,,,,,8,14,,,,,,,,,,,8,1.984,1,,,,,,0.396296325,-0.420370384,1,0,0,1.9842,Pumice_rect,1,0,1,0,1,
663e783bcd1ddd00b1970565,SCN,2024-06-24_13h53.24.804,LearnStrategy,2023.2.3,Win32,60.24096386,9,2,3,,,,,,,,8,15,,,,,,,,,,,8,2.201,1,,,,,,0.356481481,-0.408333319,1,0,0,2.2008,Pumice_rect,2,0,2,0,1,
663e783bcd1ddd00b1970565,SCN,2024-06-24_13h53.24.804,LearnStrategy,2023.2.3,Win32,60.24096386,9,2,4,,,,,,,,6,15,,,,,,,,,,,6,1.937,1,,,,,,-0.080555527,-0.391666695,1,0,0,1.9374,Pegmatite_rect,3,0,3,0,1,
663e783bcd1ddd00b1970565,SCN,2024-06-24_13h53.24.804,LearnStrategy,2023.2.3,Win32,60.24096386,9,2,5,,,,,,,,6,08,,,,,,,,,,,6,1.1,1,,,,,,-0.080555527,-0.391666695,1,0,0,1.0997,Pegmatite_rect,4,0,4,0,1,
663e783bcd1ddd00b1970565,SCN,2024-06-24_13h53.24.804,LearnStrategy,2023.2.3,Win32,60.24096386,9,2,6,,,,,,,,4,08,,,,,,,,,,,4,4.943,1,,,,,,0.333333333,-0.235185199,1,0,0,4.9431,Gabbro_rect,5,0,5,0,1,
663e783bcd1ddd00b1970565,SCN,2024-06-24_13h53.24.804,LearnStrategy,2023.2.3,Win32,60.24096386,9,2,7,,,,,,,,5,02,,,,,,,,,,,5,1.875,1,,,,,,-0.347222222,-0.396296325,1,0,0,1.8749,Obsidian_rect,6,0,6,0,1,
663e783bcd1ddd00b1970565,SCN,2024-06-24_13h53.24.804,LearnStrategy,2023.2.3,Win32,60.24096386,9,2,8,,,,,,,,3,10,,,,,,,,,,,3,3.309,1,,,,,,0.157407407,-0.258333347,1,0,0,3.3092,Diorite_rect,7,0,7,0,1,
663e783bcd1ddd00b1970565,SCN,2024-06-24_13h53.24.804,LearnStrategy,2023.2.3,Win32,60.24096386,9,2,9,,,,,,,,2,14,,,,,,,,,,,2,4.108,1,,,,,,-0.175925926,-0.240740741,1,0,0,4.1082,Basalt_rect,8,0,8,0,1,
663e783bcd1ddd00b1970565,SCN,2024-06-24_13h53.24.804,LearnStrategy,2023.2.3,Win32,60.24096386,9,2,10,,,,,,,,5,08,,,,,,,,,,,5,1.575,1,,,,,,-0.39444443,-0.404629672,1,0,0,1.5751,Obsidian_rect,9,0,9,0,1,
663e783bcd1ddd00b1970565,SCN,2024-06-24_13h53.24.804,LearnStrategy,2023.2.3,Win32,60.24096386,9,2,11,,,,,,,,4,03,,,,,,,,,,,1,7.986,0,,,,,,-0.377777771,-0.262962977,1,0,0,7.9858,Andesite_rect,10,0,10,0,1,
663e783bcd1ddd00b1970565,SCN,2024-06-24_13h53.24.804,LearnStrategy,2023.2.3,Win32,60.24096386,9,2,12,,,,,,,,3,07,,,,,,,,,,,3,5.158,1,,,,,,0.07685188,-0.24537037,1,0,0,5.1578,Diorite_rect,11,0,11,0,1,
663e783bcd1ddd00b1970565,SCN,2024-06-24_13h53.24.804,LearnStrategy,2023.2.3,Win32,60.24096386,9,2,13,,,,,,,,1,01,,,,,,,,,,,3,3.325,0,,,,,,0.07685188,-0.24537037,1,0,0,3.3247,Diorite_rect,12,0,12,0,1,
663e783bcd1ddd00b1970565,SCN,2024-06-24_13h53.24.804,LearnStrategy,2023.2.3,Win32,60.24096386,9,2,14,,,,,,,,7,12,,,,,,,,,,,7,1.927,1,,,,,,0.141666695,-0.39444443,1,0,0,1.9268,Peridotite_rect,13,0,13,0,1,
663e783bcd1ddd00b1970565,SCN,2024-06-24_13h53.24.804,LearnStrategy,2023.2.3,Win32,60.24096386,9,2,15,,,,,,,,1,04,,,,,,,,,,,1,2.115,1,,,,,,-0.348148134,-0.257407436,1,0,0,2.1153,Andesite_rect,14,0,14,0,1,
663e783bcd1ddd00b1970565,SCN,2024-06-24_13h53.24.804,LearnStrategy,2023.2.3,Win32,60.24096386,9,2,16,,,,,,,,7,15,,,,,,,,,,,7,1.667,1,,,,,,0.172222208,-0.388888889,1,0,0,1.6666,Peridotite_rect,15,0,15,0,1,
663e783bcd1ddd00b1970565,SCN,2024-06-24_13h53.24.804,LearnStrategy,2023.2.3,Win32,60.24096386,,,,,,,,,,,,,,,,,,,,,,,,,,,,,,,,,,,,,,,,,,,1
663e783bcd1ddd00b1970565,SCN,2024-06-24_13h53.24.804,LearnStrategy,2023.2.3,Win32,60.24096386,,,,,,,,,,,,,,,,,,,,,,,,,,,,,,,,,,,,,,,,,,,
663e783bcd1ddd00b1970565,SCN,2024-06-24_13h53.24.804,LearnStrategy,2023.2.3,Win32,60.24096386,,,,,,,,,,,2,04,1,1,,,,,,,,,,,,,,,,,,,,,,,,,,,,,
663e783bcd1ddd00b1970565,SCN,2024-06-24_13h53.24.804,LearnStrategy,2023.2.3,Win32,60.24096386,,,,,,,,,,,8,10,1,2,,,,,,,,,,,,,,,,,,,,,,,,,,,,,
663e783bcd1ddd00b1970565,SCN,2024-06-24_13h53.24.804,LearnStrategy,2023.2.3,Win32,60.24096386,,,,,,,,,,,7,10,1,3,,,,,,,,,,,,,,,,,,,,,,,,,,,,,
663e783bcd1ddd00b1970565,SCN,2024-06-24_13h53.24.804,LearnStrategy,2023.2.3,Win32,60.24096386,,,,,,,,,,,2,08,1,4,,,,,,,,,,,,,,,,,,,,,,,,,,,,,
663e783bcd1ddd00b1970565,SCN,2024-06-24_13h53.24.804,LearnStrategy,2023.2.3,Win32,60.24096386,,,,,,,,,,,6,05,1,5,,,,,,,,,,,,,,,,,,,,,,,,,,,,,
663e783bcd1ddd00b1970565,SCN,2024-06-24_13h53.24.804,LearnStrategy,2023.2.3,Win32,60.24096386,,,,,,,,,,,8,05,1,6,,,,,,,,,,,,,,,,,,,,,,,,,,,,,
663e783bcd1ddd00b1970565,SCN,2024-06-24_13h53.24.804,LearnStrategy,2023.2.3,Win32,60.24096386,,,,,,,,,,,5,14,1,7,,,,,,,,,,,,,,,,,,,,,,,,,,,,,
663e783bcd1ddd00b1970565,SCN,2024-06-24_13h53.24.804,LearnStrategy,2023.2.3,Win32,60.24096386,,,,,,,,,,,3,15,1,8,,,,,,,,,,,,,,,,,,,,,,,,,,,,,
663e783bcd1ddd00b1970565,SCN,2024-06-24_13h53.24.804,LearnStrategy,2023.2.3,Win32,60.24096386,,,,,,,,,,,2,16,2,1,,,,,,,,,,,,,,,,,,,,,,,,,,,,,
663e783bcd1ddd00b1970565,SCN,2024-06-24_13h53.24.804,LearnStrategy,2023.2.3,Win32,60.24096386,,,,,,,,,,,4,09,2,2,,,,,,,,,,,,,,,,,,,,,,,,,,,,,
663e783bcd1ddd00b1970565,SCN,2024-06-24_13h53.24.804,LearnStrategy,2023.2.3,Win32,60.24096386,,,,,,,,,,,3,16,2,3,,,,,,,,,,,,,,,,,,,,,,,,,,,,,
663e783bcd1ddd00b1970565,SCN,2024-06-24_13h53.24.804,LearnStrategy,2023.2.3,Win32,60.24096386,,,,,,,,,,,6,13,2,4,,,,,,,,,,,,,,,,,,,,,,,,,,,,,
663e783bcd1ddd00b1970565,SCN,2024-06-24_13h53.24.804,LearnStrategy,2023.2.3,Win32,60.24096386,,,,,,,,,,,6,07,2,5,,,,,,,,,,,,,,,,,,,,,,,,,,,,,
663e783bcd1ddd00b1970565,SCN,2024-06-24_13h53.24.804,LearnStrategy,2023.2.3,Win32,60.24096386,,,,,,,,,,,4,12,2,6,,,,,,,,,,,,,,,,,,,,,,,,,,,,,
663e783bcd1ddd00b1970565,SCN,2024-06-24_13h53.24.804,LearnStrategy,2023.2.3,Win32,60.24096386,,,,,,,,,,,2,06,2,7,,,,,,,,,,,,,,,,,,,,,,,,,,,,,
663e783bcd1ddd00b1970565,SCN,2024-06-24_13h53.24.804,LearnStrategy,2023.2.3,Win32,60.24096386,,,,,,,,,,,6,06,2,8,,,,,,,,,,,,,,,,,,,,,,,,,,,,,
663e783bcd1ddd00b1970565,SCN,2024-06-24_13h53.24.804,LearnStrategy,2023.2.3,Win32,60.24096386,,,,,,,,,,,4,14,3,1,,,,,,,,,,,,,,,,,,,,,,,,,,,,,
663e783bcd1ddd00b1970565,SCN,2024-06-24_13h53.24.804,LearnStrategy,2023.2.3,Win32,60.24096386,,,,,,,,,,,7,16,3,2,,,,,,,,,,,,,,,,,,,,,,,,,,,,,
663e783bcd1ddd00b1970565,SCN,2024-06-24_13h53.24.804,LearnStrategy,2023.2.3,Win32,60.24096386,,,,,,,,,,,1,14,3,3,,,,,,,,,,,,,,,,,,,,,,,,,,,,,
663e783bcd1ddd00b1970565,SCN,2024-06-24_13h53.24.804,LearnStrategy,2023.2.3,Win32,60.24096386,,,,,,,,,,,1,06,3,4,,,,,,,,,,,,,,,,,,,,,,,,,,,,,
663e783bcd1ddd00b1970565,SCN,2024-06-24_13h53.24.804,LearnStrategy,2023.2.3,Win32,60.24096386,,,,,,,,,,,5,04,3,5,,,,,,,,,,,,,,,,,,,,,,,,,,,,,
663e783bcd1ddd00b1970565,SCN,2024-06-24_13h53.24.804,LearnStrategy,2023.2.3,Win32,60.24096386,,,,,,,,,,,7,04,3,6,,,,,,,,,,,,,,,,,,,,,,,,,,,,,
663e783bcd1ddd00b1970565,SCN,2024-06-24_13h53.24.804,LearnStrategy,2023.2.3,Win32,60.24096386,,,,,,,,,,,6,03,3,7,,,,,,,,,,,,,,,,,,,,,,,,,,,,,
663e783bcd1ddd00b1970565,SCN,2024-06-24_13h53.24.804,LearnStrategy,2023.2.3,Win32,60.24096386,,,,,,,,,,,3,11,3,8,,,,,,,,,,,,,,,,,,,,,,,,,,,,,
663e783bcd1ddd00b1970565,SCN,2024-06-24_13h53.24.804,LearnStrategy,2023.2.3,Win32,60.24096386,,,,,,,,,,,4,16,4,1,,,,,,,,,,,,,,,,,,,,,,,,,,,,,
663e783bcd1ddd00b1970565,SCN,2024-06-24_13h53.24.804,LearnStrategy,2023.2.3,Win32,60.24096386,,,,,,,,,,,8,03,4,2,,,,,,,,,,,,,,,,,,,,,,,,,,,,,
663e783bcd1ddd00b1970565,SCN,2024-06-24_13h53.24.804,LearnStrategy,2023.2.3,Win32,60.24096386,,,,,,,,,,,3,06,4,3,,,,,,,,,,,,,,,,,,,,,,,,,,,,,
663e783bcd1ddd00b1970565,SCN,2024-06-24_13h53.24.804,LearnStrategy,2023.2.3,Win32,60.24096386,,,,,,,,,,,7,07,4,4,,,,,,,,,,,,,,,,,,,,,,,,,,,,,
663e783bcd1ddd00b1970565,SCN,2024-06-24_13h53.24.804,LearnStrategy,2023.2.3,Win32,60.24096386,,,,,,,,,,,8,04,4,5,,,,,,,,,,,,,,,,,,,,,,,,,,,,,
663e783bcd1ddd00b1970565,SCN,2024-06-24_13h53.24.804,LearnStrategy,2023.2.3,Win32,60.24096386,,,,,,,,,,,3,09,4,6,,,,,,,,,,,,,,,,,,,,,,,,,,,,,
663e783bcd1ddd00b1970565,SCN,2024-06-24_13h53.24.804,LearnStrategy,2023.2.3,Win32,60.24096386,,,,,,,,,,,2,12,4,7,,,,,,,,,,,,,,,,,,,,,,,,,,,,,
663e783bcd1ddd00b1970565,SCN,2024-06-24_13h53.24.804,LearnStrategy,2023.2.3,Win32,60.24096386,,,,,,,,,,,5,11,4,8,,,,,,,,,,,,,,,,,,,,,,,,,,,,,
663e783bcd1ddd00b1970565,SCN,2024-06-24_13h53.24.804,LearnStrategy,2023.2.3,Win32,60.24096386,,,,,,,,,,,5,09,5,1,,,,,,,,,,,,,,,,,,,,,,,,,,,,,
663e783bcd1ddd00b1970565,SCN,2024-06-24_13h53.24.804,LearnStrategy,2023.2.3,Win32,60.24096386,,,,,,,,,,,7,14,5,2,,,,,,,,,,,,,,,,,,,,,,,,,,,,,
663e783bcd1ddd00b1970565,SCN,2024-06-24_13h53.24.804,LearnStrategy,2023.2.3,Win32,60.24096386,,,,,,,,,,,1,10,5,3,,,,,,,,,,,,,,,,,,,,,,,,,,,,,
663e783bcd1ddd00b1970565,SCN,2024-06-24_13h53.24.804,LearnStrategy,2023.2.3,Win32,60.24096386,,,,,,,,,,,1,11,5,4,,,,,,,,,,,,,,,,,,,,,,,,,,,,,
663e783bcd1ddd00b1970565,SCN,2024-06-24_13h53.24.804,LearnStrategy,2023.2.3,Win32,60.24096386,,,,,,,,,,,7,05,5,5,,,,,,,,,,,,,,,,,,,,,,,,,,,,,
663e783bcd1ddd00b1970565,SCN,2024-06-24_13h53.24.804,LearnStrategy,2023.2.3,Win32,60.24096386,,,,,,,,,,,5,06,5,6,,,,,,,,,,,,,,,,,,,,,,,,,,,,,
663e783bcd1ddd00b1970565,SCN,2024-06-24_13h53.24.804,LearnStrategy,2023.2.3,Win32,60.24096386,,,,,,,,,,,1,09,5,7,,,,,,,,,,,,,,,,,,,,,,,,,,,,,
663e783bcd1ddd00b1970565,SCN,2024-06-24_13h53.24.804,LearnStrategy,2023.2.3,Win32,60.24096386,,,,,,,,,,,4,11,5,8,,,,,,,,,,,,,,,,,,,,,,,,,,,,,
663e783bcd1ddd00b1970565,SCN,2024-06-24_13h53.24.804,LearnStrategy,2023.2.3,Win32,60.24096386,,,,,,,,,,,8,16,6,1,,,,,,,,,,,,,,,,,,,,,,,,,,,,,
663e783bcd1ddd00b1970565,SCN,2024-06-24_13h53.24.804,LearnStrategy,2023.2.3,Win32,60.24096386,,,,,,,,,,,4,05,6,2,,,,,,,,,,,,,,,,,,,,,,,,,,,,,
663e783bcd1ddd00b1970565,SCN,2024-06-24_13h53.24.804,LearnStrategy,2023.2.3,Win32,60.24096386,,,,,,,,,,,8,06,6,3,,,,,,,,,,,,,,,,,,,,,,,,,,,,,
663e783bcd1ddd00b1970565,SCN,2024-06-24_13h53.24.804,LearnStrategy,2023.2.3,Win32,60.24096386,,,,,,,,,,,6,09,6,4,,,,,,,,,,,,,,,,,,,,,,,,,,,,,
663e783bcd1ddd00b1970565,SCN,2024-06-24_13h53.24.804,LearnStrategy,2023.2.3,Win32,60.24096386,,,,,,,,,,,2,11,6,5,,,,,,,,,,,,,,,,,,,,,,,,,,,,,
663e783bcd1ddd00b1970565,SCN,2024-06-24_13h53.24.804,LearnStrategy,2023.2.3,Win32,60.24096386,,,,,,,,,,,3,13,6,6,,,,,,,,,,,,,,,,,,,,,,,,,,,,,
663e783bcd1ddd00b1970565,SCN,2024-06-24_13h53.24.804,LearnStrategy,2023.2.3,Win32,60.24096386,,,,,,,,,,,5,07,6,7,,,,,,,,,,,,,,,,,,,,,,,,,,,,,
663e783bcd1ddd00b1970565,SCN,2024-06-24_13h53.24.804,LearnStrategy,2023.2.3,Win32,60.24096386,,,,,,,,,,,1,02,6,8,,,,,,,,,,,,,,,,,,,,,,,,,,,,,