participant,condition,date,expName,psychopyVersion,OS,frameRate,block,phase,trial,learn_mouse_2.x,learn_mouse_2.y,learn_mouse_2.leftButton,learn_mouse_2.midButton,learn_mouse_2.rightButton,learn_mouse_2.time,learn_mouse_2.clicked_name,cat,token,row,col,t_select,cat_mouse_l.x,cat_mouse_l.y,cat_mouse_l.leftButton,cat_mouse_l.midButton,cat_mouse_l.rightButton,cat_mouse_l.time,cat_mouse_l.clicked_name,resp,t_resp,corr,train_trials.thisRepN,train_trials.thisTrialN,train_trials.thisN,train_trials.thisIndex,train_trials.ran,cat_mouse_t.x,cat_mouse_t.y,cat_mouse_t.leftButton,cat_mouse_t.midButton,cat_mouse_t.rightButton,cat_mouse_t.time,cat_mouse_t.clicked_name,test_trials.thisRepN,test_trials.thisTrialN,test_trials.thisN,test_trials.thisIndex,test_trials.ran
663f9e130a5fd324fd419944,TCR,2024-06-10_12h20.31.509,LearnStrategy,2023.2.3,Win32,59.52380952,,,,,,,,,,,,,,,,,,,,,,,,,,,,,,,,,,,,,,,,,,
663f9e130a5fd324fd419944,TCR,2024-06-10_12h20.31.509,LearnStrategy,2023.2.3,Win32,59.52380952,1,1,1,0.002777778,-0.002777778,1,0,0,5.3462,rock_grid_rect_2,2,12,-1,-1,5.346,-0.112037037,-0.234259259,1,0,0,3.1071,Basalt_rect,2,3.107,1,0,0,0,0,1,,,,,,,,,,,,
663f9e130a5fd324fd419944,TCR,2024-06-10_12h20.31.509,LearnStrategy,2023.2.3,Win32,59.52380952,1,1,2,-0.037962963,0,1,0,0,2.1271,rock_grid_rect_2,1,02,-1,-1,2.127,0.116666667,-0.411111111,1,0,0,6.2989,Peridotite_rect,7,6.299,0,1,0,1,0,1,,,,,,,,,,,,
663f9e130a5fd324fd419944,TCR,2024-06-10_12h20.31.509,LearnStrategy,2023.2.3,Win32,59.52380952,1,1,3,-0.073148148,-0.00462963,1,0,0,1.7121,rock_grid_rect_2,7,08,-1,-1,1.712,-0.401851852,-0.241666667,1,0,0,12.0411,Andesite_rect,1,12.041,0,2,0,2,0,1,,,,,,,,,,,,
663f9e130a5fd324fd419944,TCR,2024-06-10_12h20.31.509,LearnStrategy,2023.2.3,Win32,59.52380952,1,1,4,-0.011111111,-0.010185185,1,0,0,2.2683,rock_grid_rect_2,1,16,-1,-1,2.268,-0.111111111,-0.385185185,1,0,0,5.2494,Pegmatite_rect,6,5.249,0,3,0,3,0,1,,,,,,,,,,,,
663f9e130a5fd324fd419944,TCR,2024-06-10_12h20.31.509,LearnStrategy,2023.2.3,Win32,59.52380952,1,1,5,-0.099074074,0.006481481,1,0,0,1.6199,rock_grid_rect_2,8,03,-1,-1,1.62,0.360185185,-0.403703704,1,0,0,2.9356,Pumice_rect,8,2.936,1,4,0,4,0,1,,,,,,,,,,,,
663f9e130a5fd324fd419944,TCR,2024-06-10_12h20.31.509,LearnStrategy,2023.2.3,Win32,59.52380952,1,1,6,-0.041666667,-0.002777778,1,0,0,1.4584,rock_grid_rect_2,8,09,-1,-1,1.458,0.367592593,-0.400925926,1,0,0,3.2151,Pumice_rect,8,3.215,1,5,0,5,0,1,,,,,,,,,,,,
663f9e130a5fd324fd419944,TCR,2024-06-10_12h20.31.509,LearnStrategy,2023.2.3,Win32,59.52380952,1,1,7,-0.081481481,0.012037037,1,0,0,1.2573,rock_grid_rect_2,4,03,-1,-1,1.257,0.155555556,-0.267592593,1,0,0,4.5398,Diorite_rect,3,4.54,0,6,0,6,0,1,,,,,,,,,,,,
663f9e130a5fd324fd419944,TCR,2024-06-10_12h20.31.509,LearnStrategy,2023.2.3,Win32,59.52380952,1,1,8,-0.024074074,-0.014814815,1,0,0,1.6553,rock_grid_rect_2,6,05,-1,-1,1.655,-0.147222222,-0.412037037,1,0,0,7.7574,Pegmatite_rect,6,7.757,1,7,0,7,0,1,,,,,,,,,,,,
663f9e130a5fd324fd419944,TCR,2024-06-10_12h20.31.509,LearnStrategy,2023.2.3,Win32,59.52380952,1,1,9,-0.05,0.003703704,1,0,0,2.4633,rock_grid_rect_2,6,06,-1,-1,2.463,-0.146296296,-0.384259259,1,0,0,5.5142,Pegmatite_rect,6,5.514,1,8,0,8,0,1,,,,,,,,,,,,
663f9e130a5fd324fd419944,TCR,2024-06-10_12h20.31.509,LearnStrategy,2023.2.3,Win32,59.52380952,1,1,10,-0.030555556,0.006481481,1,0,0,1.3999,rock_grid_rect_2,4,08,-1,-1,1.4,0.172222222,-0.261111111,1,0,0,5.469,Diorite_rect,3,5.469,0,9,0,9,0,1,,,,,,,,,,,,
663f9e130a5fd324fd419944,TCR,2024-06-10_12h20.31.509,LearnStrategy,2023.2.3,Win32,59.52380952,1,1,11,-0.012962963,-0.008333333,1,0,0,1.9486,rock_grid_rect_2,5,05,-1,-1,1.949,-0.37962963,-0.387962963,1,0,0,3.6287,Obsidian_rect,5,3.629,1,10,0,10,0,1,,,,,,,,,,,,
663f9e130a5fd324fd419944,TCR,2024-06-10_12h20.31.509,LearnStrategy,2023.2.3,Win32,59.52380952,1,1,12,-0.02962963,0.023148148,1,0,0,1.677,rock_grid_rect_2,7,02,-1,-1,1.677,0.123148148,-0.384259259,1,0,0,3.1569,Peridotite_rect,7,3.157,1,11,0,11,0,1,,,,,,,,,,,,
663f9e130a5fd324fd419944,TCR,2024-06-10_12h20.31.509,LearnStrategy,2023.2.3,Win32,59.52380952,1,1,13,0,-0.006481481,1,0,0,1.4137,rock_grid_rect_2,3,14,-1,-1,1.414,-0.075925926,-0.403703704,1,0,0,5.5169,Pegmatite_rect,6,5.517,0,12,0,12,0,1,,,,,,,,,,,,
663f9e130a5fd324fd419944,TCR,2024-06-10_12h20.31.509,LearnStrategy,2023.2.3,Win32,59.52380952,1,1,14,-0.002777778,-0.013888889,1,0,0,1.5513,rock_grid_rect_2,2,16,-1,-1,1.551,-0.35,-0.236111111,1,0,0,6.0215,Andesite_rect,1,6.022,0,13,0,13,0,1,,,,,,,,,,,,
663f9e130a5fd324fd419944,TCR,2024-06-10_12h20.31.509,LearnStrategy,2023.2.3,Win32,59.52380952,1,1,15,-0.052777778,0.003703704,1,0,0,1.5536,rock_grid_rect_2,3,06,-1,-1,1.554,-0.371296296,-0.231481481,1,0,0,6.7046,Andesite_rect,1,6.705,0,14,0,14,0,1,,,,,,,,,,,,
663f9e130a5fd324fd419944,TCR,2024-06-10_12h20.31.509,LearnStrategy,2023.2.3,Win32,59.52380952,1,1,16,-0.037037037,0.008333333,1,0,0,1.7558,rock_grid_rect_2,5,12,-1,-1,1.756,-0.346296296,-0.40462963,1,0,0,2.4344,Obsidian_rect,5,2.434,1,15,0,15,0,1,,,,,,,,,,,,
663f9e130a5fd324fd419944,TCR,2024-06-10_12h20.31.509,LearnStrategy,2023.2.3,Win32,59.52380952,1,2,1,,,,,,,,8,04,,,,,,,,,,,8,3.078,1,,,,,,0.4,-0.400925926,1,0,0,3.0785,Pumice_rect,0,0,0,0,1
663f9e130a5fd324fd419944,TCR,2024-06-10_12h20.31.509,LearnStrategy,2023.2.3,Win32,59.52380952,1,2,2,,,,,,,,4,01,,,,,,,,,,,4,11.163,1,,,,,,0.353703704,-0.262962963,1,0,0,11.1635,Gabbro_rect,1,0,1,0,1
663f9e130a5fd324fd419944,TCR,2024-06-10_12h20.31.509,LearnStrategy,2023.2.3,Win32,59.52380952,1,2,3,,,,,,,,1,01,,,,,,,,,,,1,17.185,1,,,,,,-0.356481481,-0.248148148,1,0,0,17.1847,Andesite_rect,2,0,2,0,1
663f9e130a5fd324fd419944,TCR,2024-06-10_12h20.31.509,LearnStrategy,2023.2.3,Win32,59.52380952,1,2,4,,,,,,,,5,07,,,,,,,,,,,6,8.674,0,,,,,,-0.181481481,-0.400925926,1,0,0,8.6736,Pegmatite_rect,3,0,3,0,1
663f9e130a5fd324fd419944,TCR,2024-06-10_12h20.31.509,LearnStrategy,2023.2.3,Win32,59.52380952,1,2,5,,,,,,,,6,03,,,,,,,,,,,3,16.819,0,,,,,,0.112037037,-0.259259259,1,0,0,16.8192,Diorite_rect,4,0,4,0,1
663f9e130a5fd324fd419944,TCR,2024-06-10_12h20.31.509,LearnStrategy,2023.2.3,Win32,59.52380952,1,2,6,,,,,,,,3,11,,,,,,,,,,,3,10.228,1,,,,,,0.112037037,-0.259259259,1,0,0,10.228,Diorite_rect,5,0,5,0,1
663f9e130a5fd324fd419944,TCR,2024-06-10_12h20.31.509,LearnStrategy,2023.2.3,Win32,59.52380952,1,2,7,,,,,,,,6,15,,,,,,,,,,,6,13.405,1,,,,,,-0.124074074,-0.409259259,1,0,0,13.4047,Pegmatite_rect,6,0,6,0,1
663f9e130a5fd324fd419944,TCR,2024-06-10_12h20.31.509,LearnStrategy,2023.2.3,Win32,59.52380952,1,2,8,,,,,,,,1,11,,,,,,,,,,,1,9.977,1,,,,,,-0.360185185,-0.246296296,1,0,0,9.9766,Andesite_rect,7,0,7,0,1
663f9e130a5fd324fd419944,TCR,2024-06-10_12h20.31.509,LearnStrategy,2023.2.3,Win32,59.52380952,1,2,9,,,,,,,,8,13,,,,,,,,,,,2,9.308,0,,,,,,-0.141666667,-0.22962963,1,0,0,9.3076,Basalt_rect,8,0,8,0,1
663f9e130a5fd324fd419944,TCR,2024-06-10_12h20.31.509,LearnStrategy,2023.2.3,Win32,59.52380952,1,2,10,,,,,,,,4,12,,,,,,,,,,,4,12.99,1,,,,,,0.338888889,-0.235185185,1,0,0,12.9903,Gabbro_rect,9,0,9,0,1
663f9e130a5fd324fd419944,TCR,2024-06-10_12h20.31.509,LearnStrategy,2023.2.3,Win32,59.52380952,1,2,11,,,,,,,,2,06,,,,,,,,,,,2,16.934,1,,,,,,-0.164814815,-0.256481481,1,0,0,16.9336,Basalt_rect,10,0,10,0,1
663f9e130a5fd324fd419944,TCR,2024-06-10_12h20.31.509,LearnStrategy,2023.2.3,Win32,59.52380952,1,2,12,,,,,,,,7,15,,,,,,,,,,,7,1.707,1,,,,,,0.089814815,-0.406481481,1,0,0,1.7068,Peridotite_rect,11,0,11,0,1
663f9e130a5fd324fd419944,TCR,2024-06-10_12h20.31.509,LearnStrategy,2023.2.3,Win32,59.52380952,1,2,13,,,,,,,,2,02,,,,,,,,,,,2,2.385,1,,,,,,-0.161111111,-0.25,1,0,0,2.3848,Basalt_rect,12,0,12,0,1
663f9e130a5fd324fd419944,TCR,2024-06-10_12h20.31.509,LearnStrategy,2023.2.3,Win32,59.52380952,1,2,14,,,,,,,,7,13,,,,,,,,,,,7,3.036,1,,,,,,0.131481481,-0.407407407,1,0,0,3.0365,Peridotite_rect,13,0,13,0,1
663f9e130a5fd324fd419944,TCR,2024-06-10_12h20.31.509,LearnStrategy,2023.2.3,Win32,59.52380952,1,2,15,,,,,,,,3,10,,,,,,,,,,,4,9.906,0,,,,,,0.394444444,-0.267592593,1,0,0,9.9061,Gabbro_rect,14,0,14,0,1
663f9e130a5fd324fd419944,TCR,2024-06-10_12h20.31.509,LearnStrategy,2023.2.3,Win32,59.52380952,1,2,16,,,,,,,,5,14,,,,,,,,,,,5,1.901,1,,,,,,-0.360185185,-0.416666667,1,0,0,1.901,Obsidian_rect,15,0,15,0,1
663f9e130a5fd324fd419944,TCR,2024-06-10_12h20.31.509,LearnStrategy,2023.2.3,Win32,59.52380952,2,1,1,-0.033333333,0.010185185,1,0,0,1.7773,rock_grid_rect_2,5,16,-1,-1,1.777,-0.382407407,-0.387962963,1,0,0,2.0934,Obsidian_rect,5,2.093,1,0,0,0,0,1,,,,,,,,,,,,
663f9e130a5fd324fd419944,TCR,2024-06-10_12h20.31.509,LearnStrategy,2023.2.3,Win32,59.52380952,2,1,2,-0.042592593,-0.014814815,1,0,0,1.4283,rock_grid_rect_2,6,11,-1,-1,1.428,-0.131481481,-0.380555556,1,0,0,11.201,Pegmatite_rect,6,11.201,1,1,0,1,0,1,,,,,,,,,,,,
663f9e130a5fd324fd419944,TCR,2024-06-10_12h20.31.509,LearnStrategy,2023.2.3,Win32,59.52380952,2,1,3,-0.031481481,-0.010185185,1,0,0,1.6792,rock_grid_rect_2,3,06,-1,-1,1.679,0.408333333,-0.243518519,1,0,0,4.1372,Gabbro_rect,4,4.137,0,2,0,2,0,1,,,,,,,,,,,,
663f9e130a5fd324fd419944,TCR,2024-06-10_12h20.31.509,LearnStrategy,2023.2.3,Win32,59.52380952,2,1,4,-0.121296296,-0.007407407,1,0,0,1.3011,rock_grid_rect_2,6,13,-1,-1,1.301,-0.160185185,-0.4,1,0,0,6.2393,Pegmatite_rect,6,6.239,1,3,0,3,0,1,,,,,,,,,,,,
663f9e130a5fd324fd419944,TCR,2024-06-10_12h20.31.509,LearnStrategy,2023.2.3,Win32,59.52380952,2,1,5,-0.014814815,-0.002777778,1,0,0,1.5171,rock_grid_rect_2,8,15,-1,-1,1.517,0.436111111,-0.407407407,1,0,0,2.0181,Pumice_rect,8,2.018,1,4,0,4,0,1,,,,,,,,,,,,
663f9e130a5fd324fd419944,TCR,2024-06-10_12h20.31.509,LearnStrategy,2023.2.3,Win32,59.52380952,2,1,6,-0.033333333,0.00462963,1,0,0,1.2896,rock_grid_rect_2,7,02,-1,-1,1.29,0.159259259,-0.413888889,1,0,0,1.8706,Peridotite_rect,7,1.871,1,5,0,5,0,1,,,,,,,,,,,,
663f9e130a5fd324fd419944,TCR,2024-06-10_12h20.31.509,LearnStrategy,2023.2.3,Win32,59.52380952,2,1,7,-0.055555556,-0.019444444,1,0,0,1.3303,rock_grid_rect_2,8,14,-1,-1,1.33,0.4,-0.409259259,1,0,0,2.4059,Pumice_rect,8,2.406,1,6,0,6,0,1,,,,,,,,,,,,
663f9e130a5fd324fd419944,TCR,2024-06-10_12h20.31.509,LearnStrategy,2023.2.3,Win32,59.52380952,2,1,8,-0.048148148,-0.016666667,1,0,0,1.3461,rock_grid_rect_2,1,06,-1,-1,1.346,0.148148148,-0.239814815,1,0,0,3.4964,Diorite_rect,3,3.496,0,7,0,7,0,1,,,,,,,,,,,,
663f9e130a5fd324fd419944,TCR,2024-06-10_12h20.31.509,LearnStrategy,2023.2.3,Win32,59.52380952,2,1,9,-0.100925926,0.006481481,1,0,0,4.047,rock_grid_rect_2,5,11,-1,-1,4.047,-0.378703704,-0.387037037,1,0,0,1.4419,Obsidian_rect,5,1.442,1,8,0,8,0,1,,,,,,,,,,,,
663f9e130a5fd324fd419944,TCR,2024-06-10_12h20.31.509,LearnStrategy,2023.2.3,Win32,59.52380952,2,1,10,-0.052777778,0.009259259,1,0,0,1.4915,rock_grid_rect_2,3,13,-1,-1,1.491,-0.393518519,-0.266666667,1,0,0,24.724,Andesite_rect,1,24.724,0,9,0,9,0,1,,,,,,,,,,,,
663f9e130a5fd324fd419944,TCR,2024-06-10_12h20.31.509,LearnStrategy,2023.2.3,Win32,59.52380952,2,1,11,0.023148148,-0.000925926,1,0,0,2.04,rock_grid_rect_2,4,13,-1,-1,2.04,0.387037037,-0.237962963,1,0,0,5.094,Gabbro_rect,4,5.094,1,10,0,10,0,1,,,,,,,,,,,,
663f9e130a5fd324fd419944,TCR,2024-06-10_12h20.31.509,LearnStrategy,2023.2.3,Win32,59.52380952,2,1,12,-0.006481481,-0.001851852,1,0,0,1.6404,rock_grid_rect_2,6,10,-1,-1,1.64,0.137962963,-0.405555556,1,0,0,1.9931,Peridotite_rect,7,1.993,0,11,0,11,0,1,,,,,,,,,,,,
663f9e130a5fd324fd419944,TCR,2024-06-10_12h20.31.509,LearnStrategy,2023.2.3,Win32,59.52380952,2,1,13,0.044444444,0.009259259,1,0,0,1.5787,rock_grid_rect_2,5,08,-1,-1,1.579,-0.383333333,-0.387962963,1,0,0,2.1158,Obsidian_rect,5,2.116,1,12,0,12,0,1,,,,,,,,,,,,
663f9e130a5fd324fd419944,TCR,2024-06-10_12h20.31.509,LearnStrategy,2023.2.3,Win32,59.52380952,2,1,14,0.003703704,-0.001851852,1,0,0,1.3156,rock_grid_rect_2,8,09,-1,-1,1.316,0.396296296,-0.408333333,1,0,0,4.7287,Pumice_rect,8,4.729,1,13,0,13,0,1,,,,,,,,,,,,
663f9e130a5fd324fd419944,TCR,2024-06-10_12h20.31.509,LearnStrategy,2023.2.3,Win32,59.52380952,2,1,15,-0.016666667,0.007407407,1,0,0,1.1868,rock_grid_rect_2,3,06,-1,-1,1.187,0.12962963,-0.250925926,1,0,0,12.237,Diorite_rect,3,12.237,1,14,0,14,0,1,,,,,,,,,,,,
663f9e130a5fd324fd419944,TCR,2024-06-10_12h20.31.509,LearnStrategy,2023.2.3,Win32,59.52380952,2,1,16,-0.042592593,0.009259259,1,0,0,1.0402,rock_grid_rect_2,2,05,-1,-1,1.04,-0.114814815,-0.248148148,1,0,0,3.1286,Basalt_rect,2,3.129,1,15,0,15,0,1,,,,,,,,,,,,
663f9e130a5fd324fd419944,TCR,2024-06-10_12h20.31.509,LearnStrategy,2023.2.3,Win32,59.52380952,2,2,1,,,,,,,,1,10,,,,,,,,,,,1,10.825,1,,,,,,-0.35462963,-0.240740741,1,0,0,10.8249,Andesite_rect,0,0,0,0,1
663f9e130a5fd324fd419944,TCR,2024-06-10_12h20.31.509,LearnStrategy,2023.2.3,Win32,59.52380952,2,2,2,,,,,,,,7,06,,,,,,,,,,,7,2.695,1,,,,,,0.139814815,-0.398148148,1,0,0,2.6951,Peridotite_rect,1,0,1,0,1
663f9e130a5fd324fd419944,TCR,2024-06-10_12h20.31.509,LearnStrategy,2023.2.3,Win32,59.52380952,2,2,3,,,,,,,,4,16,,,,,,,,,,,4,9.938,1,,,,,,0.394444444,-0.253703704,1,0,0,9.9382,Gabbro_rect,2,0,2,0,1
663f9e130a5fd324fd419944,TCR,2024-06-10_12h20.31.509,LearnStrategy,2023.2.3,Win32,59.52380952,2,2,4,,,,,,,,5,10,,,,,,,,,,,5,2,1,,,,,,-0.357407407,-0.402777778,1,0,0,1.9998,Obsidian_rect,3,0,3,0,1
663f9e130a5fd324fd419944,TCR,2024-06-10_12h20.31.509,LearnStrategy,2023.2.3,Win32,59.52380952,2,2,5,,,,,,,,3,09,,,,,,,,,,,3,27.463,1,,,,,,0.096296296,-0.255555556,1,0,0,27.4627,Diorite_rect,4,0,4,0,1
663f9e130a5fd324fd419944,TCR,2024-06-10_12h20.31.509,LearnStrategy,2023.2.3,Win32,59.52380952,2,2,6,,,,,,,,2,08,,,,,,,,,,,2,3.675,1,,,,,,-0.109259259,-0.238888889,1,0,0,3.6747,Basalt_rect,5,0,5,0,1
663f9e130a5fd324fd419944,TCR,2024-06-10_12h20.31.509,LearnStrategy,2023.2.3,Win32,59.52380952,2,2,7,,,,,,,,1,05,,,,,,,,,,,1,4.282,1,,,,,,-0.410185185,-0.258333333,1,0,0,4.2821,Andesite_rect,6,0,6,0,1
663f9e130a5fd324fd419944,TCR,2024-06-10_12h20.31.509,LearnStrategy,2023.2.3,Win32,59.52380952,2,2,8,,,,,,,,8,02,,,,,,,,,,,8,2.351,1,,,,,,0.422222222,-0.406481481,1,0,0,2.3514,Pumice_rect,7,0,7,0,1
663f9e130a5fd324fd419944,TCR,2024-06-10_12h20.31.509,LearnStrategy,2023.2.3,Win32,59.52380952,2,2,9,,,,,,,,6,16,,,,,,,,,,,6,4.472,1,,,,,,-0.128703704,-0.410185185,1,0,0,4.472,Pegmatite_rect,8,0,8,0,1
663f9e130a5fd324fd419944,TCR,2024-06-10_12h20.31.509,LearnStrategy,2023.2.3,Win32,59.52380952,2,2,10,,,,,,,,4,10,,,,,,,,,,,4,11.78,1,,,,,,0.403703704,-0.235185185,1,0,0,11.7803,Gabbro_rect,9,0,9,0,1
663f9e130a5fd324fd419944,TCR,2024-06-10_12h20.31.509,LearnStrategy,2023.2.3,Win32,59.52380952,2,2,11,,,,,,,,3,16,,,,,,,,,,,1,21.711,0,,,,,,-0.381481481,-0.232407407,1,0,0,21.7107,Andesite_rect,10,0,10,0,1
663f9e130a5fd324fd419944,TCR,2024-06-10_12h20.31.509,LearnStrategy,2023.2.3,Win32,59.52380952,2,2,12,,,,,,,,2,10,,,,,,,,,,,2,3.357,1,,,,,,-0.124074074,-0.253703704,1,0,0,3.3567,Basalt_rect,11,0,11,0,1
663f9e130a5fd324fd419944,TCR,2024-06-10_12h20.31.509,LearnStrategy,2023.2.3,Win32,59.52380952,2,2,13,,,,,,,,5,02,,,,,,,,,,,5,1.549,1,,,,,,-0.373148148,-0.396296296,1,0,0,1.5494,Obsidian_rect,12,0,12,0,1
663f9e130a5fd324fd419944,TCR,2024-06-10_12h20.31.509,LearnStrategy,2023.2.3,Win32,59.52380952,2,2,14,,,,,,,,8,05,,,,,,,,,,,8,1.914,1,,,,,,0.372222222,-0.40462963,1,0,0,1.9141,Pumice_rect,13,0,13,0,1
663f9e130a5fd324fd419944,TCR,2024-06-10_12h20.31.509,LearnStrategy,2023.2.3,Win32,59.52380952,2,2,15,,,,,,,,7,05,,,,,,,,,,,7,2.512,1,,,,,,0.157407407,-0.401851852,1,0,0,2.5122,Peridotite_rect,14,0,14,0,1
663f9e130a5fd324fd419944,TCR,2024-06-10_12h20.31.509,LearnStrategy,2023.2.3,Win32,59.52380952,2,2,16,,,,,,,,6,12,,,,,,,,,,,6,4.098,1,,,,,,-0.131481481,-0.391666667,1,0,0,4.0983,Pegmatite_rect,15,0,15,0,1
663f9e130a5fd324fd419944,TCR,2024-06-10_12h20.31.509,LearnStrategy,2023.2.3,Win32,59.52380952,3,1,1,-0.030555556,-0.001851852,1,0,0,1.324,rock_grid_rect_2,1,09,-1,-1,1.324,-0.388888889,-0.264814815,1,0,0,18.784,Andesite_rect,1,18.784,1,0,0,0,0,1,,,,,,,,,,,,
663f9e130a5fd324fd419944,TCR,2024-06-10_12h20.31.509,LearnStrategy,2023.2.3,Win32,59.52380952,3,1,2,0.038888889,-0.016666667,1,0,0,1.4574,rock_grid_rect_2,1,02,-1,-1,1.457,-0.375,-0.248148148,1,0,0,4.6306,Andesite_rect,1,4.631,1,1,0,1,0,1,,,,,,,,,,,,
663f9e130a5fd324fd419944,TCR,2024-06-10_12h20.31.509,LearnStrategy,2023.2.3,Win32,59.52380952,3,1,3,-0.025,-0.008333333,1,0,0,1.2428,rock_grid_rect_2,7,10,-1,-1,1.243,0.122222222,-0.393518519,1,0,0,2.2697,Peridotite_rect,7,2.27,1,2,0,2,0,1,,,,,,,,,,,,
663f9e130a5fd324fd419944,TCR,2024-06-10_12h20.31.509,LearnStrategy,2023.2.3,Win32,59.52380952,3,1,4,0.002777778,0.012037037,1,0,0,1.33,rock_grid_rect_2,6,05,-1,-1,1.33,-0.144444444,-0.39537037,1,0,0,2.4866,Pegmatite_rect,6,2.487,1,3,0,3,0,1,,,,,,,,,,,,
663f9e130a5fd324fd419944,TCR,2024-06-10_12h20.31.509,LearnStrategy,2023.2.3,Win32,59.52380952,3,1,5,0.00462963,-0.003703704,1,0,0,1.5795,rock_grid_rect_2,3,07,-1,-1,1.58,-0.162962963,-0.384259259,1,0,0,3.6646,Pegmatite_rect,6,3.665,0,4,0,4,0,1,,,,,,,,,,,,
663f9e130a5fd324fd419944,TCR,2024-06-10_12h20.31.509,LearnStrategy,2023.2.3,Win32,59.52380952,3,1,6,-0.005555556,-0.000925926,1,0,0,1.5282,rock_grid_rect_2,4,05,-1,-1,1.528,0.37962963,-0.246296296,1,0,0,2.3222,Gabbro_rect,4,2.322,1,5,0,5,0,1,,,,,,,,,,,,
663f9e130a5fd324fd419944,TCR,2024-06-10_12h20.31.509,LearnStrategy,2023.2.3,Win32,59.52380952,3,1,7,-0.014814815,0.007407407,1,0,0,1.2425,rock_grid_rect_2,6,10,-1,-1,1.242,-0.15,-0.403703704,1,0,0,2.7911,Pegmatite_rect,6,2.791,1,6,0,6,0,1,,,,,,,,,,,,
663f9e130a5fd324fd419944,TCR,2024-06-10_12h20.31.509,LearnStrategy,2023.2.3,Win32,59.52380952,3,1,8,-0.024074074,0.00462963,1,0,0,1.3447,rock_grid_rect_2,8,03,-1,-1,1.345,0.403703704,-0.397222222,1,0,0,1.4765,Pumice_rect,8,1.476,1,7,0,7,0,1,,,,,,,,,,,,
663f9e130a5fd324fd419944,TCR,2024-06-10_12h20.31.509,LearnStrategy,2023.2.3,Win32,59.52380952,3,1,9,-0.039814815,0.000925926,1,0,0,1.6623,rock_grid_rect_2,2,09,-1,-1,1.662,-0.109259259,-0.235185185,1,0,0,2.7759,Basalt_rect,2,2.776,1,8,0,8,0,1,,,,,,,,,,,,
663f9e130a5fd324fd419944,TCR,2024-06-10_12h20.31.509,LearnStrategy,2023.2.3,Win32,59.52380952,3,1,10,0.002777778,-0.003703704,1,0,0,1.1704,rock_grid_rect_2,5,16,-1,-1,1.17,-0.376851852,-0.401851852,1,0,0,1.3552,Obsidian_rect,5,1.355,1,9,0,9,0,1,,,,,,,,,,,,
663f9e130a5fd324fd419944,TCR,2024-06-10_12h20.31.509,LearnStrategy,2023.2.3,Win32,59.52380952,3,1,11,0.02962963,0.008333333,1,0,0,1.161,rock_grid_rect_2,3,07,-1,-1,1.161,0.12037037,-0.242592593,1,0,0,5.1677,Diorite_rect,3,5.168,1,10,0,10,0,1,,,,,,,,,,,,
663f9e130a5fd324fd419944,TCR,2024-06-10_12h20.31.509,LearnStrategy,2023.2.3,Win32,59.52380952,3,1,12,-0.060185185,0.010185185,1,0,0,1.2594,rock_grid_rect_2,3,02,-1,-1,1.259,-0.141666667,-0.421296296,1,0,0,3.2857,Pegmatite_rect,6,3.286,0,11,0,11,0,1,,,,,,,,,,,,
663f9e130a5fd324fd419944,TCR,2024-06-10_12h20.31.509,LearnStrategy,2023.2.3,Win32,59.52380952,3,1,13,-0.001851852,-0.007407407,1,0,0,1.3718,rock_grid_rect_2,3,15,-1,-1,1.372,0.125,-0.248148148,1,0,0,5.044,Diorite_rect,3,5.044,1,12,0,12,0,1,,,,,,,,,,,,
663f9e130a5fd324fd419944,TCR,2024-06-10_12h20.31.509,LearnStrategy,2023.2.3,Win32,59.52380952,3,1,14,-0.025925926,-0.006481481,1,0,0,1.5199,rock_grid_rect_2,3,15,-1,-1,1.52,0.119444444,-0.240740741,1,0,0,1.6274,Diorite_rect,3,1.627,1,13,0,13,0,1,,,,,,,,,,,,
663f9e130a5fd324fd419944,TCR,2024-06-10_12h20.31.509,LearnStrategy,2023.2.3,Win32,59.52380952,3,1,15,-0.015740741,0.012037037,1,0,0,1.1294,rock_grid_rect_2,8,14,-1,-1,1.129,0.391666667,-0.40462963,1,0,0,1.3782,Pumice_rect,8,1.378,1,14,0,14,0,1,,,,,,,,,,,,
663f9e130a5fd324fd419944,TCR,2024-06-10_12h20.31.509,LearnStrategy,2023.2.3,Win32,59.52380952,3,1,16,-0.02962963,-0.012962963,1,0,0,1.2457,rock_grid_rect_2,5,12,-1,-1,1.246,-0.360185185,-0.381481481,1,0,0,1.3504,Obsidian_rect,5,1.35,1,15,0,15,0,1,,,,,,,,,,,,
663f9e130a5fd324fd419944,TCR,2024-06-10_12h20.31.509,LearnStrategy,2023.2.3,Win32,59.52380952,3,2,1,,,,,,,,5,06,,,,,,,,,,,5,5.364,1,,,,,,-0.386111111,-0.392592593,1,0,0,5.3636,Obsidian_rect,0,0,0,0,1
663f9e130a5fd324fd419944,TCR,2024-06-10_12h20.31.509,LearnStrategy,2023.2.3,Win32,59.52380952,3,2,2,,,,,,,,3,08,,,,,,,,,,,3,5.245,1,,,,,,0.082407407,-0.261111111,1,0,0,5.2452,Diorite_rect,1,0,1,0,1
663f9e130a5fd324fd419944,TCR,2024-06-10_12h20.31.509,LearnStrategy,2023.2.3,Win32,59.52380952,3,2,3,,,,,,,,2,11,,,,,,,,,,,2,3.314,1,,,,,,-0.156481481,-0.258333333,1,0,0,3.3139,Basalt_rect,2,0,2,0,1
663f9e130a5fd324fd419944,TCR,2024-06-10_12h20.31.509,LearnStrategy,2023.2.3,Win32,59.52380952,3,2,4,,,,,,,,1,03,,,,,,,,,,,1,1.871,1,,,,,,-0.365740741,-0.253703704,1,0,0,1.8708,Andesite_rect,3,0,3,0,1
663f9e130a5fd324fd419944,TCR,2024-06-10_12h20.31.509,LearnStrategy,2023.2.3,Win32,59.52380952,3,2,5,,,,,,,,7,04,,,,,,,,,,,7,11.584,1,,,,,,0.100925926,-0.386111111,1,0,0,11.5838,Peridotite_rect,4,0,4,0,1
663f9e130a5fd324fd419944,TCR,2024-06-10_12h20.31.509,LearnStrategy,2023.2.3,Win32,59.52380952,3,2,6,,,,,,,,5,09,,,,,,,,,,,5,1.681,1,,,,,,-0.380555556,-0.394444444,1,0,0,1.6811,Obsidian_rect,5,0,5,0,1
663f9e130a5fd324fd419944,TCR,2024-06-10_12h20.31.509,LearnStrategy,2023.2.3,Win32,59.52380952,3,2,7,,,,,,,,1,14,,,,,,,,,,,6,26.084,0,,,,,,-0.108333333,-0.401851852,1,0,0,26.0844,Pegmatite_rect,6,0,6,0,1
663f9e130a5fd324fd419944,TCR,2024-06-10_12h20.31.509,LearnStrategy,2023.2.3,Win32,59.52380952,3,2,8,,,,,,,,2,14,,,,,,,,,,,2,4.38,1,,,,,,-0.118518519,-0.252777778,1,0,0,4.3803,Basalt_rect,7,0,7,0,1
663f9e130a5fd324fd419944,TCR,2024-06-10_12h20.31.509,LearnStrategy,2023.2.3,Win32,59.52380952,3,2,9,,,,,,,,6,08,,,,,,,,,,,6,2.993,1,,,,,,-0.122222222,-0.390740741,1,0,0,2.993,Pegmatite_rect,8,0,8,0,1
663f9e130a5fd324fd419944,TCR,2024-06-10_12h20.31.509,LearnStrategy,2023.2.3,Win32,59.52380952,3,2,10,,,,,,,,3,12,,,,,,,,,,,3,6.706,1,,,,,,0.122222222,-0.260185185,1,0,0,6.7058,Diorite_rect,9,0,9,0,1
663f9e130a5fd324fd419944,TCR,2024-06-10_12h20.31.509,LearnStrategy,2023.2.3,Win32,59.52380952,3,2,11,,,,,,,,7,12,,,,,,,,,,,7,21.757,1,,,,,,0.130555556,-0.4,1,0,0,21.7567,Peridotite_rect,10,0,10,0,1
663f9e130a5fd324fd419944,TCR,2024-06-10_12h20.31.509,LearnStrategy,2023.2.3,Win32,59.52380952,3,2,12,,,,,,,,6,09,,,,,,,,,,,6,7.211,1,,,,,,-0.097222222,-0.392592593,1,0,0,7.2111,Pegmatite_rect,11,0,11,0,1
663f9e130a5fd324fd419944,TCR,2024-06-10_12h20.31.509,LearnStrategy,2023.2.3,Win32,59.52380952,3,2,13,,,,,,,,4,14,,,,,,,,,,,4,29.7,1,,,,,,0.383333333,-0.25,1,0,0,29.7004,Gabbro_rect,12,0,12,0,1
663f9e130a5fd324fd419944,TCR,2024-06-10_12h20.31.509,LearnStrategy,2023.2.3,Win32,59.52380952,3,2,14,,,,,,,,4,11,,,,,,,,,,,4,5.455,1,,,,,,0.393518519,-0.247222222,1,0,0,5.4551,Gabbro_rect,13,0,13,0,1
663f9e130a5fd324fd419944,TCR,2024-06-10_12h20.31.509,LearnStrategy,2023.2.3,Win32,59.52380952,3,2,15,,,,,,,,8,06,,,,,,,,,,,8,1.68,1,,,,,,0.414814815,-0.411111111,1,0,0,1.6803,Pumice_rect,14,0,14,0,1
663f9e130a5fd324fd419944,TCR,2024-06-10_12h20.31.509,LearnStrategy,2023.2.3,Win32,59.52380952,3,2,16,,,,,,,,8,08,,,,,,,,,,,8,1.323,1,,,,,,0.414814815,-0.411111111,1,0,0,1.323,Pumice_rect,15,0,15,0,1
663f9e130a5fd324fd419944,TCR,2024-06-10_12h20.31.509,LearnStrategy,2023.2.3,Win32,59.52380952,4,1,1,0.005555556,0.002777778,1,0,0,1.6142,rock_grid_rect_2,2,01,-1,-1,1.614,-0.111111111,-0.25462963,1,0,0,4.1935,Basalt_rect,2,4.193,1,0,0,0,0,1,,,,,,,,,,,,
663f9e130a5fd324fd419944,TCR,2024-06-10_12h20.31.509,LearnStrategy,2023.2.3,Win32,59.52380952,4,1,2,-0.009259259,-0.00462963,1,0,0,1.3508,rock_grid_rect_2,3,02,-1,-1,1.351,0.184259259,-0.267592593,1,0,0,27.611,Diorite_rect,3,27.611,1,1,0,1,0,1,,,,,,,,,,,,
663f9e130a5fd324fd419944,TCR,2024-06-10_12h20.31.509,LearnStrategy,2023.2.3,Win32,59.52380952,4,1,3,-0.037037037,0.000925926,1,0,0,1.6971,rock_grid_rect_2,1,02,-1,-1,1.697,-0.406481481,-0.243518519,1,0,0,2.0129,Andesite_rect,1,2.013,1,2,0,2,0,1,,,,,,,,,,,,
663f9e130a5fd324fd419944,TCR,2024-06-10_12h20.31.509,LearnStrategy,2023.2.3,Win32,59.52380952,4,1,4,-0.007407407,-0.003703704,1,0,0,1.5501,rock_grid_rect_2,8,14,-1,-1,1.55,0.380555556,-0.399074074,1,0,0,1.4274,Pumice_rect,8,1.427,1,3,0,3,0,1,,,,,,,,,,,,
663f9e130a5fd324fd419944,TCR,2024-06-10_12h20.31.509,LearnStrategy,2023.2.3,Win32,59.52380952,4,1,5,-0.011111111,-0.011111111,1,0,0,1.3723,rock_grid_rect_2,1,07,-1,-1,1.372,-0.391666667,-0.237962963,1,0,0,1.8268,Andesite_rect,1,1.827,1,4,0,4,0,1,,,,,,,,,,,,
663f9e130a5fd324fd419944,TCR,2024-06-10_12h20.31.509,LearnStrategy,2023.2.3,Win32,59.52380952,4,1,6,0.013888889,0.012037037,1,0,0,1.1913,rock_grid_rect_2,3,15,-1,-1,1.191,0.118518519,-0.24537037,1,0,0,5.6251,Diorite_rect,3,5.625,1,5,0,5,0,1,,,,,,,,,,,,
663f9e130a5fd324fd419944,TCR,2024-06-10_12h20.31.509,LearnStrategy,2023.2.3,Win32,59.52380952,4,1,7,-0.012962963,-0.012962963,1,0,0,1.1261,rock_grid_rect_2,5,12,-1,-1,1.126,-0.382407407,-0.39537037,1,0,0,1.6105,Obsidian_rect,5,1.611,1,6,0,6,0,1,,,,,,,,,,,,
663f9e130a5fd324fd419944,TCR,2024-06-10_12h20.31.509,LearnStrategy,2023.2.3,Win32,59.52380952,4,1,8,-0.037962963,0.02037037,1,0,0,1.0599,rock_grid_rect_2,8,03,-1,-1,1.06,0.428703704,-0.411111111,1,0,0,1.4776,Pumice_rect,8,1.478,1,7,0,7,0,1,,,,,,,,,,,,
663f9e130a5fd324fd419944,TCR,2024-06-10_12h20.31.509,LearnStrategy,2023.2.3,Win32,59.52380952,4,1,9,0,0.011111111,1,0,0,1.2297,rock_grid_rect_2,6,11,-1,-1,1.23,-0.15462963,-0.409259259,1,0,0,2.1977,Pegmatite_rect,6,2.198,1,8,0,8,0,1,,,,,,,,,,,,
663f9e130a5fd324fd419944,TCR,2024-06-10_12h20.31.509,LearnStrategy,2023.2.3,Win32,59.52380952,4,1,10,-0.016666667,0.000925926,1,0,0,1.4948,rock_grid_rect_2,1,06,-1,-1,1.495,-0.390740741,-0.258333333,1,0,0,21.6958,Andesite_rect,1,21.696,1,9,0,9,0,1,,,,,,,,,,,,
663f9e130a5fd324fd419944,TCR,2024-06-10_12h20.31.509,LearnStrategy,2023.2.3,Win32,59.52380952,4,1,11,0.002777778,-0.008333333,1,0,0,1.3538,rock_grid_rect_2,3,02,-1,-1,1.354,0.143518519,-0.255555556,1,0,0,5.758,Diorite_rect,3,5.758,1,10,0,10,0,1,,,,,,,,,,,,
663f9e130a5fd324fd419944,TCR,2024-06-10_12h20.31.509,LearnStrategy,2023.2.3,Win32,59.52380952,4,1,12,0.02037037,-0.010185185,1,0,0,1.3091,rock_grid_rect_2,7,08,-1,-1,1.309,0.135185185,-0.414814815,1,0,0,2.0486,Peridotite_rect,7,2.049,1,11,0,11,0,1,,,,,,,,,,,,
663f9e130a5fd324fd419944,TCR,2024-06-10_12h20.31.509,LearnStrategy,2023.2.3,Win32,59.52380952,4,1,13,-0.001851852,0.009259259,1,0,0,1.1917,rock_grid_rect_2,4,03,-1,-1,1.192,0.138888889,-0.25462963,1,0,0,2.3092,Diorite_rect,3,2.309,0,12,0,12,0,1,,,,,,,,,,,,
663f9e130a5fd324fd419944,TCR,2024-06-10_12h20.31.509,LearnStrategy,2023.2.3,Win32,59.52380952,4,1,14,0.026851852,0.005555556,1,0,0,1.1703,rock_grid_rect_2,6,05,-1,-1,1.17,-0.124074074,-0.392592593,1,0,0,4.1246,Pegmatite_rect,6,4.125,1,13,0,13,0,1,,,,,,,,,,,,
663f9e130a5fd324fd419944,TCR,2024-06-10_12h20.31.509,LearnStrategy,2023.2.3,Win32,59.52380952,4,1,15,0.009259259,0.018518519,1,0,0,1.4776,rock_grid_rect_2,1,06,-1,-1,1.478,-0.382407407,-0.246296296,1,0,0,3.5772,Andesite_rect,1,3.577,1,14,0,14,0,1,,,,,,,,,,,,
663f9e130a5fd324fd419944,TCR,2024-06-10_12h20.31.509,LearnStrategy,2023.2.3,Win32,59.52380952,4,1,16,-0.042592593,-0.014814815,1,0,0,1.1341,rock_grid_rect_2,5,16,-1,-1,1.134,-0.37037037,-0.386111111,1,0,0,1.679,Obsidian_rect,5,1.679,1,15,0,15,0,1,,,,,,,,,,,,
663f9e130a5fd324fd419944,TCR,2024-06-10_12h20.31.509,LearnStrategy,2023.2.3,Win32,59.52380952,4,2,1,,,,,,,,1,03,,,,,,,,,,,1,27.726,1,,,,,,-0.4,-0.249074074,1,0,0,27.7263,Andesite_rect,0,0,0,0,1
663f9e130a5fd324fd419944,TCR,2024-06-10_12h20.31.509,LearnStrategy,2023.2.3,Win32,59.52380952,4,2,2,,,,,,,,1,11,,,,,,,,,,,1,1.457,1,,,,,,-0.386111111,-0.248148148,1,0,0,1.4571,Andesite_rect,1,0,1,0,1
663f9e130a5fd324fd419944,TCR,2024-06-10_12h20.31.509,LearnStrategy,2023.2.3,Win32,59.52380952,4,2,3,,,,,,,,4,11,,,,,,,,,,,4,3.382,1,,,,,,0.419444444,-0.25462963,1,0,0,3.3818,Gabbro_rect,2,0,2,0,1
663f9e130a5fd324fd419944,TCR,2024-06-10_12h20.31.509,LearnStrategy,2023.2.3,Win32,59.52380952,4,2,4,,,,,,,,3,09,,,,,,,,,,,3,2.85,1,,,,,,0.128703704,-0.252777778,1,0,0,2.8498,Diorite_rect,3,0,3,0,1
663f9e130a5fd324fd419944,TCR,2024-06-10_12h20.31.509,LearnStrategy,2023.2.3,Win32,59.52380952,4,2,5,,,,,,,,2,08,,,,,,,,,,,2,2.037,1,,,,,,-0.130555556,-0.255555556,1,0,0,2.037,Basalt_rect,4,0,4,0,1
663f9e130a5fd324fd419944,TCR,2024-06-10_12h20.31.509,LearnStrategy,2023.2.3,Win32,59.52380952,4,2,6,,,,,,,,6,03,,,,,,,,,,,6,11.085,1,,,,,,-0.136111111,-0.394444444,1,0,0,11.0851,Pegmatite_rect,5,0,5,0,1
663f9e130a5fd324fd419944,TCR,2024-06-10_12h20.31.509,LearnStrategy,2023.2.3,Win32,59.52380952,4,2,7,,,,,,,,5,02,,,,,,,,,,,5,1.033,1,,,,,,-0.358333333,-0.414814815,1,0,0,1.0327,Obsidian_rect,6,0,6,0,1
663f9e130a5fd324fd419944,TCR,2024-06-10_12h20.31.509,LearnStrategy,2023.2.3,Win32,59.52380952,4,2,8,,,,,,,,6,08,,,,,,,,,,,6,4.942,1,,,,,,-0.114814815,-0.405555556,1,0,0,4.9418,Pegmatite_rect,7,0,7,0,1
663f9e130a5fd324fd419944,TCR,2024-06-10_12h20.31.509,LearnStrategy,2023.2.3,Win32,59.52380952,4,2,9,,,,,,,,8,06,,,,,,,,,,,8,1.412,1,,,,,,0.391666667,-0.393518519,1,0,0,1.4116,Pumice_rect,8,0,8,0,1
663f9e130a5fd324fd419944,TCR,2024-06-10_12h20.31.509,LearnStrategy,2023.2.3,Win32,59.52380952,4,2,10,,,,,,,,7,05,,,,,,,,,,,7,1.988,1,,,,,,0.181481481,-0.407407407,1,0,0,1.9878,Peridotite_rect,9,0,9,0,1
663f9e130a5fd324fd419944,TCR,2024-06-10_12h20.31.509,LearnStrategy,2023.2.3,Win32,59.52380952,4,2,11,,,,,,,,2,10,,,,,,,,,,,2,1.531,1,,,,,,-0.100925926,-0.262962963,1,0,0,1.5308,Basalt_rect,10,0,10,0,1
663f9e130a5fd324fd419944,TCR,2024-06-10_12h20.31.509,LearnStrategy,2023.2.3,Win32,59.52380952,4,2,12,,,,,,,,4,12,,,,,,,,,,,4,2.16,1,,,,,,0.414814815,-0.253703704,1,0,0,2.1604,Gabbro_rect,11,0,11,0,1
663f9e130a5fd324fd419944,TCR,2024-06-10_12h20.31.509,LearnStrategy,2023.2.3,Win32,59.52380952,4,2,13,,,,,,,,8,13,,,,,,,,,,,8,1.344,1,,,,,,0.411111111,-0.402777778,1,0,0,1.3445,Pumice_rect,12,0,12,0,1
663f9e130a5fd324fd419944,TCR,2024-06-10_12h20.31.509,LearnStrategy,2023.2.3,Win32,59.52380952,4,2,14,,,,,,,,3,10,,,,,,,,,,,3,3.593,1,,,,,,0.130555556,-0.25462963,1,0,0,3.5928,Diorite_rect,13,0,13,0,1
663f9e130a5fd324fd419944,TCR,2024-06-10_12h20.31.509,LearnStrategy,2023.2.3,Win32,59.52380952,4,2,15,,,,,,,,5,10,,,,,,,,,,,5,1.582,1,,,,,,-0.387962963,-0.389814815,1,0,0,1.582,Obsidian_rect,14,0,14,0,1
663f9e130a5fd324fd419944,TCR,2024-06-10_12h20.31.509,LearnStrategy,2023.2.3,Win32,59.52380952,4,2,16,,,,,,,,7,04,,,,,,,,,,,7,1.881,1,,,,,,0.127777778,-0.402777778,1,0,0,1.8814,Peridotite_rect,15,0,15,0,1
663f9e130a5fd324fd419944,TCR,2024-06-10_12h20.31.509,LearnStrategy,2023.2.3,Win32,59.52380952,5,1,1,0.02037037,-0.005555556,1,0,0,1.3567,rock_grid_rect_2,4,13,-1,-1,1.357,0.140740741,-0.242592593,1,0,0,12.6889,Diorite_rect,3,12.689,0,0,0,0,0,1,,,,,,,,,,,,
663f9e130a5fd324fd419944,TCR,2024-06-10_12h20.31.509,LearnStrategy,2023.2.3,Win32,59.52380952,5,1,2,-0.008333333,-0.009259259,1,0,0,1.2783,rock_grid_rect_2,7,07,-1,-1,1.278,0.141666667,-0.392592593,1,0,0,1.6543,Peridotite_rect,7,1.654,1,1,0,1,0,1,,,,,,,,,,,,
663f9e130a5fd324fd419944,TCR,2024-06-10_12h20.31.509,LearnStrategy,2023.2.3,Win32,59.52380952,5,1,3,-0.021296296,-0.00462963,1,0,0,1.1668,rock_grid_rect_2,3,02,-1,-1,1.167,0.132407407,-0.234259259,1,0,0,1.4306,Diorite_rect,3,1.431,1,2,0,2,0,1,,,,,,,,,,,,
663f9e130a5fd324fd419944,TCR,2024-06-10_12h20.31.509,LearnStrategy,2023.2.3,Win32,59.52380952,5,1,4,-0.024074074,0.009259259,1,0,0,1.2327,rock_grid_rect_2,6,13,-1,-1,1.233,-0.131481481,-0.403703704,1,0,0,4.6118,Pegmatite_rect,6,4.612,1,3,0,3,0,1,,,,,,,,,,,,
663f9e130a5fd324fd419944,TCR,2024-06-10_12h20.31.509,LearnStrategy,2023.2.3,Win32,59.52380952,5,1,5,-0.008333333,0.003703704,1,0,0,1.4129,rock_grid_rect_2,1,06,-1,-1,1.413,-0.376851852,-0.252777778,1,0,0,2.4566,Andesite_rect,1,2.457,1,4,0,4,0,1,,,,,,,,,,,,
663f9e130a5fd324fd419944,TCR,2024-06-10_12h20.31.509,LearnStrategy,2023.2.3,Win32,59.52380952,5,1,6,0.009259259,-0.002777778,1,0,0,1.4859,rock_grid_rect_2,2,01,-1,-1,1.486,-0.132407407,-0.238888889,1,0,0,1.6384,Basalt_rect,2,1.638,1,5,0,5,0,1,,,,,,,,,,,,
663f9e130a5fd324fd419944,TCR,2024-06-10_12h20.31.509,LearnStrategy,2023.2.3,Win32,59.52380952,5,1,7,-0.022222222,0.003703704,1,0,0,1.2039,rock_grid_rect_2,1,07,-1,-1,1.204,-0.389814815,-0.25,1,0,0,2.8795,Andesite_rect,1,2.88,1,6,0,6,0,1,,,,,,,,,,,,
663f9e130a5fd324fd419944,TCR,2024-06-10_12h20.31.509,LearnStrategy,2023.2.3,Win32,59.52380952,5,1,8,-0.023148148,-0.000925926,1,0,0,0.913,rock_grid_rect_2,5,12,-1,-1,0.913,-0.372222222,-0.403703704,1,0,0,1.4963,Obsidian_rect,5,1.496,1,7,0,7,0,1,,,,,,,,,,,,
663f9e130a5fd324fd419944,TCR,2024-06-10_12h20.31.509,LearnStrategy,2023.2.3,Win32,59.52380952,5,1,9,-0.039814815,0.00462963,1,0,0,1.1442,rock_grid_rect_2,2,16,-1,-1,1.144,0.411111111,-0.24537037,1,0,0,3.5154,Gabbro_rect,4,3.515,0,8,0,8,0,1,,,,,,,,,,,,
663f9e130a5fd324fd419944,TCR,2024-06-10_12h20.31.509,LearnStrategy,2023.2.3,Win32,59.52380952,5,1,10,-0.024074074,0.001851852,1,0,0,1.5147,rock_grid_rect_2,3,07,-1,-1,1.515,0.116666667,-0.237962963,1,0,0,1.6554,Diorite_rect,3,1.655,1,9,0,9,0,1,,,,,,,,,,,,
663f9e130a5fd324fd419944,TCR,2024-06-10_12h20.31.509,LearnStrategy,2023.2.3,Win32,59.52380952,5,1,11,-0.068518519,-0.000925926,1,0,0,0.9673,rock_grid_rect_2,8,03,-1,-1,0.967,0.371296296,-0.406481481,1,0,0,1.4307,Pumice_rect,8,1.431,1,10,0,10,0,1,,,,,,,,,,,,
663f9e130a5fd324fd419944,TCR,2024-06-10_12h20.31.509,LearnStrategy,2023.2.3,Win32,59.52380952,5,1,12,0.007407407,0.005555556,1,0,0,1.1725,rock_grid_rect_2,6,11,-1,-1,1.173,-0.123148148,-0.386111111,1,0,0,1.7108,Pegmatite_rect,6,1.711,1,11,0,11,0,1,,,,,,,,,,,,
663f9e130a5fd324fd419944,TCR,2024-06-10_12h20.31.509,LearnStrategy,2023.2.3,Win32,59.52380952,5,1,13,-0.037962963,-0.010185185,1,0,0,1.1126,rock_grid_rect_2,1,04,-1,-1,1.113,-0.353703704,-0.243518519,1,0,0,1.9105,Andesite_rect,1,1.911,1,12,0,12,0,1,,,,,,,,,,,,
663f9e130a5fd324fd419944,TCR,2024-06-10_12h20.31.509,LearnStrategy,2023.2.3,Win32,59.52380952,5,1,14,0.018518519,-0.019444444,1,0,0,1.0188,rock_grid_rect_2,3,15,-1,-1,1.019,0.125925926,-0.246296296,1,0,0,1.1928,Diorite_rect,3,1.193,1,13,0,13,0,1,,,,,,,,,,,,
663f9e130a5fd324fd419944,TCR,2024-06-10_12h20.31.509,LearnStrategy,2023.2.3,Win32,59.52380952,5,1,15,-0.021296296,-0.003703704,1,0,0,1.1905,rock_grid_rect_2,8,09,-1,-1,1.19,0.386111111,-0.402777778,1,0,0,1.2894,Pumice_rect,8,1.289,1,14,0,14,0,1,,,,,,,,,,,,
663f9e130a5fd324fd419944,TCR,2024-06-10_12h20.31.509,LearnStrategy,2023.2.3,Win32,59.52380952,5,1,16,-0.00462963,0.005555556,1,0,0,1.2648,rock_grid_rect_2,5,05,-1,-1,1.265,-0.384259259,-0.402777778,1,0,0,3.9615,Obsidian_rect,5,3.961,1,15,0,15,0,1,,,,,,,,,,,,
663f9e130a5fd324fd419944,TCR,2024-06-10_12h20.31.509,LearnStrategy,2023.2.3,Win32,59.52380952,5,2,1,,,,,,,,5,06,,,,,,,,,,,5,2.431,1,,,,,,-0.337037037,-0.400925926,1,0,0,2.4307,Obsidian_rect,0,0,0,0,1
663f9e130a5fd324fd419944,TCR,2024-06-10_12h20.31.509,LearnStrategy,2023.2.3,Win32,59.52380952,5,2,2,,,,,,,,7,12,,,,,,,,,,,7,4.889,1,,,,,,0.162037037,-0.393518519,1,0,0,4.8895,Peridotite_rect,1,0,1,0,1
663f9e130a5fd324fd419944,TCR,2024-06-10_12h20.31.509,LearnStrategy,2023.2.3,Win32,59.52380952,5,2,3,,,,,,,,3,12,,,,,,,,,,,3,2.293,1,,,,,,0.166666667,-0.267592593,1,0,0,2.2926,Diorite_rect,2,0,2,0,1
663f9e130a5fd324fd419944,TCR,2024-06-10_12h20.31.509,LearnStrategy,2023.2.3,Win32,59.52380952,5,2,4,,,,,,,,4,01,,,,,,,,,,,4,2.81,1,,,,,,0.37962963,-0.246296296,1,0,0,2.8095,Gabbro_rect,3,0,3,0,1
663f9e130a5fd324fd419944,TCR,2024-06-10_12h20.31.509,LearnStrategy,2023.2.3,Win32,59.52380952,5,2,5,,,,,,,,6,09,,,,,,,,,,,6,5.569,1,,,,,,-0.132407407,-0.414814815,1,0,0,5.5686,Pegmatite_rect,4,0,4,0,1
663f9e130a5fd324fd419944,TCR,2024-06-10_12h20.31.509,LearnStrategy,2023.2.3,Win32,59.52380952,5,2,6,,,,,,,,5,07,,,,,,,,,,,5,1.867,1,,,,,,-0.356481481,-0.393518519,1,0,0,1.867,Obsidian_rect,5,0,5,0,1
663f9e130a5fd324fd419944,TCR,2024-06-10_12h20.31.509,LearnStrategy,2023.2.3,Win32,59.52380952,5,2,7,,,,,,,,3,11,,,,,,,,,,,3,1.66,1,,,,,,0.106481481,-0.243518519,1,0,0,1.6599,Diorite_rect,6,0,6,0,1
663f9e130a5fd324fd419944,TCR,2024-06-10_12h20.31.509,LearnStrategy,2023.2.3,Win32,59.52380952,5,2,8,,,,,,,,4,10,,,,,,,,,,,4,1.767,1,,,,,,0.362037037,-0.242592593,1,0,0,1.7665,Gabbro_rect,7,0,7,0,1
663f9e130a5fd324fd419944,TCR,2024-06-10_12h20.31.509,LearnStrategy,2023.2.3,Win32,59.52380952,5,2,9,,,,,,,,8,05,,,,,,,,,,,8,1.814,1,,,,,,0.386111111,-0.409259259,1,0,0,1.8142,Pumice_rect,8,0,8,0,1
663f9e130a5fd324fd419944,TCR,2024-06-10_12h20.31.509,LearnStrategy,2023.2.3,Win32,59.52380952,5,2,10,,,,,,,,1,05,,,,,,,,,,,1,2.145,1,,,,,,-0.400925926,-0.240740741,1,0,0,2.1455,Andesite_rect,9,0,9,0,1
663f9e130a5fd324fd419944,TCR,2024-06-10_12h20.31.509,LearnStrategy,2023.2.3,Win32,59.52380952,5,2,11,,,,,,,,6,12,,,,,,,,,,,6,6.919,1,,,,,,-0.15,-0.4,1,0,0,6.9192,Pegmatite_rect,10,0,10,0,1
663f9e130a5fd324fd419944,TCR,2024-06-10_12h20.31.509,LearnStrategy,2023.2.3,Win32,59.52380952,5,2,12,,,,,,,,8,08,,,,,,,,,,,8,1.418,1,,,,,,0.348148148,-0.399074074,1,0,0,1.4184,Pumice_rect,11,0,11,0,1
663f9e130a5fd324fd419944,TCR,2024-06-10_12h20.31.509,LearnStrategy,2023.2.3,Win32,59.52380952,5,2,13,,,,,,,,2,02,,,,,,,,,,,2,2.05,1,,,,,,-0.122222222,-0.256481481,1,0,0,2.0497,Basalt_rect,12,0,12,0,1
663f9e130a5fd324fd419944,TCR,2024-06-10_12h20.31.509,LearnStrategy,2023.2.3,Win32,59.52380952,5,2,14,,,,,,,,2,06,,,,,,,,,,,2,2.277,1,,,,,,-0.122222222,-0.24537037,1,0,0,2.2773,Basalt_rect,13,0,13,0,1
663f9e130a5fd324fd419944,TCR,2024-06-10_12h20.31.509,LearnStrategy,2023.2.3,Win32,59.52380952,5,2,15,,,,,,,,1,14,,,,,,,,,,,1,6.777,1,,,,,,-0.412037037,-0.246296296,1,0,0,6.7767,Andesite_rect,14,0,14,0,1
663f9e130a5fd324fd419944,TCR,2024-06-10_12h20.31.509,LearnStrategy,2023.2.3,Win32,59.52380952,5,2,16,,,,,,,,7,06,,,,,,,,,,,7,1.61,1,,,,,,0.099074074,-0.398148148,1,0,0,1.6098,Peridotite_rect,15,0,15,0,1
663f9e130a5fd324fd419944,TCR,2024-06-10_12h20.31.509,LearnStrategy,2023.2.3,Win32,59.52380952,6,1,1,-0.035185185,0.001851852,1,0,0,16.9936,rock_grid_rect_2,5,11,-1,-1,16.994,-0.368518519,-0.397222222,1,0,0,1.6115,Obsidian_rect,5,1.611,1,0,0,0,0,1,,,,,,,,,,,,
663f9e130a5fd324fd419944,TCR,2024-06-10_12h20.31.509,LearnStrategy,2023.2.3,Win32,59.52380952,6,1,2,-0.02037037,0.006481481,1,0,0,1.5929,rock_grid_rect_2,5,12,-1,-1,1.593,-0.406481481,-0.415740741,1,0,0,1.2534,Obsidian_rect,5,1.253,1,1,0,1,0,1,,,,,,,,,,,,
663f9e130a5fd324fd419944,TCR,2024-06-10_12h20.31.509,LearnStrategy,2023.2.3,Win32,59.52380952,6,1,3,0.021296296,-0.008333333,1,0,0,1.2846,rock_grid_rect_2,4,15,-1,-1,1.285,0.374074074,-0.239814815,1,0,0,7.7443,Gabbro_rect,4,7.744,1,2,0,2,0,1,,,,,,,,,,,,
663f9e130a5fd324fd419944,TCR,2024-06-10_12h20.31.509,LearnStrategy,2023.2.3,Win32,59.52380952,6,1,4,0.027777778,-0.011111111,1,0,0,1.168,rock_grid_rect_2,8,16,-1,-1,1.168,0.392592593,-0.40462963,1,0,0,1.4019,Pumice_rect,8,1.402,1,3,0,3,0,1,,,,,,,,,,,,
663f9e130a5fd324fd419944,TCR,2024-06-10_12h20.31.509,LearnStrategy,2023.2.3,Win32,59.52380952,6,1,5,0.024074074,-0.003703704,1,0,0,1.2922,rock_grid_rect_2,3,15,-1,-1,1.292,0.130555556,-0.243518519,1,0,0,2.1228,Diorite_rect,3,2.123,1,4,0,4,0,1,,,,,,,,,,,,
663f9e130a5fd324fd419944,TCR,2024-06-10_12h20.31.509,LearnStrategy,2023.2.3,Win32,59.52380952,6,1,6,0.009259259,-0.000925926,1,0,0,1.0698,rock_grid_rect_2,1,04,-1,-1,1.07,-0.376851852,-0.266666667,1,0,0,1.7214,Andesite_rect,1,1.721,1,5,0,5,0,1,,,,,,,,,,,,
663f9e130a5fd324fd419944,TCR,2024-06-10_12h20.31.509,LearnStrategy,2023.2.3,Win32,59.52380952,6,1,7,0.006481481,0.005555556,1,0,0,1.7915,rock_grid_rect_2,3,06,-1,-1,1.791,0.122222222,-0.240740741,1,0,0,1.3574,Diorite_rect,3,1.357,1,6,0,6,0,1,,,,,,,,,,,,
663f9e130a5fd324fd419944,TCR,2024-06-10_12h20.31.509,LearnStrategy,2023.2.3,Win32,59.52380952,6,1,8,0.031481481,-0.009259259,1,0,0,1.1234,rock_grid_rect_2,8,16,-1,-1,1.123,0.393518519,-0.402777778,1,0,0,1.3974,Pumice_rect,8,1.397,1,7,0,7,0,1,,,,,,,,,,,,
663f9e130a5fd324fd419944,TCR,2024-06-10_12h20.31.509,LearnStrategy,2023.2.3,Win32,59.52380952,6,1,9,0.010185185,-0.005555556,1,0,0,1.1861,rock_grid_rect_2,7,14,-1,-1,1.186,0.398148148,-0.25462963,1,0,0,11.699,Gabbro_rect,4,11.699,0,8,0,8,0,1,,,,,,,,,,,,
663f9e130a5fd324fd419944,TCR,2024-06-10_12h20.31.509,LearnStrategy,2023.2.3,Win32,59.52380952,6,1,10,0.012037037,-0.008333333,1,0,0,1.272,rock_grid_rect_2,2,16,-1,-1,1.272,0.434259259,-0.231481481,1,0,0,3.3734,Gabbro_rect,4,3.373,0,9,0,9,0,1,,,,,,,,,,,,
663f9e130a5fd324fd419944,TCR,2024-06-10_12h20.31.509,LearnStrategy,2023.2.3,Win32,59.52380952,6,1,11,-0.019444444,-0.002777778,1,0,0,1.6387,rock_grid_rect_2,4,09,-1,-1,1.639,0.363888889,-0.233333333,1,0,0,2.9266,Gabbro_rect,4,2.927,1,10,0,10,0,1,,,,,,,,,,,,
663f9e130a5fd324fd419944,TCR,2024-06-10_12h20.31.509,LearnStrategy,2023.2.3,Win32,59.52380952,6,1,12,0.024074074,0.005555556,1,0,0,1.0271,rock_grid_rect_2,7,14,-1,-1,1.027,0.162037037,-0.40462963,1,0,0,3.8617,Peridotite_rect,7,3.862,1,11,0,11,0,1,,,,,,,,,,,,
663f9e130a5fd324fd419944,TCR,2024-06-10_12h20.31.509,LearnStrategy,2023.2.3,Win32,59.52380952,6,1,13,0.014814815,0.002777778,1,0,0,1.5036,rock_grid_rect_2,1,02,-1,-1,1.504,-0.363888889,-0.247222222,1,0,0,1.6531,Andesite_rect,1,1.653,1,12,0,12,0,1,,,,,,,,,,,,
663f9e130a5fd324fd419944,TCR,2024-06-10_12h20.31.509,LearnStrategy,2023.2.3,Win32,59.52380952,6,1,14,-0.017592593,-0.006481481,1,0,0,1.0341,rock_grid_rect_2,6,06,-1,-1,1.034,-0.118518519,-0.393518519,1,0,0,2.8862,Pegmatite_rect,6,2.886,1,13,0,13,0,1,,,,,,,,,,,,
663f9e130a5fd324fd419944,TCR,2024-06-10_12h20.31.509,LearnStrategy,2023.2.3,Win32,59.52380952,6,1,15,0.027777778,-0.008333333,1,0,0,1.2328,rock_grid_rect_2,3,15,-1,-1,1.233,0.114814815,-0.262037037,1,0,0,1.2735,Diorite_rect,3,1.274,1,14,0,14,0,1,,,,,,,,,,,,
663f9e130a5fd324fd419944,TCR,2024-06-10_12h20.31.509,LearnStrategy,2023.2.3,Win32,59.52380952,6,1,16,0.036111111,0.005555556,1,0,0,1.403,rock_grid_rect_2,6,10,-1,-1,1.403,0.141666667,-0.412962963,1,0,0,3.768,Peridotite_rect,7,3.768,0,15,0,15,0,1,,,,,,,,,,,,
663f9e130a5fd324fd419944,TCR,2024-06-10_12h20.31.509,LearnStrategy,2023.2.3,Win32,59.52380952,6,2,1,,,,,,,,6,15,,,,,,,,,,,6,4.351,1,,,,,,-0.124074074,-0.390740741,1,0,0,4.3513,Pegmatite_rect,0,0,0,0,1
663f9e130a5fd324fd419944,TCR,2024-06-10_12h20.31.509,LearnStrategy,2023.2.3,Win32,59.52380952,6,2,2,,,,,,,,4,16,,,,,,,,,,,4,2.001,1,,,,,,0.401851852,-0.250925926,1,0,0,2.0007,Gabbro_rect,1,0,1,0,1
663f9e130a5fd324fd419944,TCR,2024-06-10_12h20.31.509,LearnStrategy,2023.2.3,Win32,59.52380952,6,2,3,,,,,,,,8,02,,,,,,,,,,,8,1.635,1,,,,,,0.4,-0.396296296,1,0,0,1.6346,Pumice_rect,2,0,2,0,1
663f9e130a5fd324fd419944,TCR,2024-06-10_12h20.31.509,LearnStrategy,2023.2.3,Win32,59.52380952,6,2,4,,,,,,,,1,01,,,,,,,,,,,8,0.624,0,,,,,,0.4,-0.396296296,1,0,0,0.6238,Pumice_rect,3,0,3,0,1
663f9e130a5fd324fd419944,TCR,2024-06-10_12h20.31.509,LearnStrategy,2023.2.3,Win32,59.52380952,6,2,5,,,,,,,,7,13,,,,,,,,,,,7,2.737,1,,,,,,0.152777778,-0.4,1,0,0,2.7366,Peridotite_rect,4,0,4,0,1
663f9e130a5fd324fd419944,TCR,2024-06-10_12h20.31.509,LearnStrategy,2023.2.3,Win32,59.52380952,6,2,6,,,,,,,,1,10,,,,,,,,,,,1,2.149,1,,,,,,-0.376851852,-0.25,1,0,0,2.1493,Andesite_rect,5,0,5,0,1
663f9e130a5fd324fd419944,TCR,2024-06-10_12h20.31.509,LearnStrategy,2023.2.3,Win32,59.52380952,6,2,7,,,,,,,,7,15,,,,,,,,,,,7,1.783,1,,,,,,0.149074074,-0.416666667,1,0,0,1.7833,Peridotite_rect,6,0,6,0,1
663f9e130a5fd324fd419944,TCR,2024-06-10_12h20.31.509,LearnStrategy,2023.2.3,Win32,59.52380952,6,2,8,,,,,,,,2,14,,,,,,,,,,,4,2.749,0,,,,,,0.431481481,-0.262962963,1,0,0,2.749,Gabbro_rect,7,0,7,0,1
663f9e130a5fd324fd419944,TCR,2024-06-10_12h20.31.509,LearnStrategy,2023.2.3,Win32,59.52380952,6,2,9,,,,,,,,3,16,,,,,,,,,,,3,3.234,1,,,,,,0.125925926,-0.24537037,1,0,0,3.2341,Diorite_rect,8,0,8,0,1
663f9e130a5fd324fd419944,TCR,2024-06-10_12h20.31.509,LearnStrategy,2023.2.3,Win32,59.52380952,6,2,10,,,,,,,,3,08,,,,,,,,,,,3,1.638,1,,,,,,0.112962963,-0.228703704,1,0,0,1.6375,Diorite_rect,9,0,9,0,1
663f9e130a5fd324fd419944,TCR,2024-06-10_12h20.31.509,LearnStrategy,2023.2.3,Win32,59.52380952,6,2,11,,,,,,,,8,04,,,,,,,,,,,8,2.006,1,,,,,,0.419444444,-0.388888889,1,0,0,2.0062,Pumice_rect,10,0,10,0,1
663f9e130a5fd324fd419944,TCR,2024-06-10_12h20.31.509,LearnStrategy,2023.2.3,Win32,59.52380952,6,2,12,,,,,,,,5,09,,,,,,,,,,,5,2.214,1,,,,,,-0.388888889,-0.399074074,1,0,0,2.2142,Obsidian_rect,11,0,11,0,1
663f9e130a5fd324fd419944,TCR,2024-06-10_12h20.31.509,LearnStrategy,2023.2.3,Win32,59.52380952,6,2,13,,,,,,,,5,14,,,,,,,,,,,5,1.482,1,,,,,,-0.42037037,-0.387037037,1,0,0,1.4815,Obsidian_rect,12,0,12,0,1
663f9e130a5fd324fd419944,TCR,2024-06-10_12h20.31.509,LearnStrategy,2023.2.3,Win32,59.52380952,6,2,14,,,,,,,,2,11,,,,,,,,,,,4,2.599,0,,,,,,0.386111111,-0.242592593,1,0,0,2.5993,Gabbro_rect,13,0,13,0,1
663f9e130a5fd324fd419944,TCR,2024-06-10_12h20.31.509,LearnStrategy,2023.2.3,Win32,59.52380952,6,2,15,,,,,,,,6,16,,,,,,,,,,,6,2.432,1,,,,,,-0.131481481,-0.410185185,1,0,0,2.4321,Pegmatite_rect,14,0,14,0,1
663f9e130a5fd324fd419944,TCR,2024-06-10_12h20.31.509,LearnStrategy,2023.2.3,Win32,59.52380952,6,2,16,,,,,,,,4,14,,,,,,,,,,,4,3.357,1,,,,,,0.391666667,-0.25,1,0,0,3.3566,Gabbro_rect,15,0,15,0,1
663f9e130a5fd324fd419944,TCR,2024-06-10_12h20.31.509,LearnStrategy,2023.2.3,Win32,59.52380952,7,1,1,0.043518519,-0.003703704,1,0,0,1.1911,rock_grid_rect_2,5,16,-1,-1,1.191,-0.343518519,-0.385185185,1,0,0,1.3693,Obsidian_rect,5,1.369,1,0,0,0,0,1,,,,,,,,,,,,
663f9e130a5fd324fd419944,TCR,2024-06-10_12h20.31.509,LearnStrategy,2023.2.3,Win32,59.52380952,7,1,2,-0.05,-0.002777778,1,0,0,1.1909,rock_grid_rect_2,8,16,-1,-1,1.191,0.371296296,-0.387037037,1,0,0,1.9254,Pumice_rect,8,1.925,1,1,0,1,0,1,,,,,,,,,,,,
663f9e130a5fd324fd419944,TCR,2024-06-10_12h20.31.509,LearnStrategy,2023.2.3,Win32,59.52380952,7,1,3,-0.012037037,0.002777778,1,0,0,1.3718,rock_grid_rect_2,3,13,-1,-1,1.372,0.121296296,-0.251851852,1,0,0,1.291,Diorite_rect,3,1.291,1,2,0,2,0,1,,,,,,,,,,,,
663f9e130a5fd324fd419944,TCR,2024-06-10_12h20.31.509,LearnStrategy,2023.2.3,Win32,59.52380952,7,1,4,0.019444444,-0.005555556,1,0,0,1.1129,rock_grid_rect_2,2,12,-1,-1,1.113,-0.119444444,-0.255555556,1,0,0,2.2766,Basalt_rect,2,2.277,1,3,0,3,0,1,,,,,,,,,,,,
663f9e130a5fd324fd419944,TCR,2024-06-10_12h20.31.509,LearnStrategy,2023.2.3,Win32,59.52380952,7,1,5,-0.019444444,-0.014814815,1,0,0,0.8237,rock_grid_rect_2,7,02,-1,-1,0.824,0.124074074,-0.413888889,1,0,0,1.445,Peridotite_rect,7,1.445,1,4,0,4,0,1,,,,,,,,,,,,
663f9e130a5fd324fd419944,TCR,2024-06-10_12h20.31.509,LearnStrategy,2023.2.3,Win32,59.52380952,7,1,6,-0.015740741,-0.008333333,1,0,0,1.0973,rock_grid_rect_2,2,01,-1,-1,1.097,-0.112962963,-0.240740741,1,0,0,1.6302,Basalt_rect,2,1.63,1,5,0,5,0,1,,,,,,,,,,,,
663f9e130a5fd324fd419944,TCR,2024-06-10_12h20.31.509,LearnStrategy,2023.2.3,Win32,59.52380952,7,1,7,-0.019444444,0.001851852,1,0,0,1.0664,rock_grid_rect_2,6,06,-1,-1,1.066,-0.124074074,-0.393518519,1,0,0,5.1721,Pegmatite_rect,6,5.172,1,6,0,6,0,1,,,,,,,,,,,,
663f9e130a5fd324fd419944,TCR,2024-06-10_12h20.31.509,LearnStrategy,2023.2.3,Win32,59.52380952,7,1,8,-0.066666667,-0.012962963,1,0,0,0.9885,rock_grid_rect_2,1,09,-1,-1,0.988,-0.375,-0.233333333,1,0,0,3.3142,Andesite_rect,1,3.314,1,7,0,7,0,1,,,,,,,,,,,,
663f9e130a5fd324fd419944,TCR,2024-06-10_12h20.31.509,LearnStrategy,2023.2.3,Win32,59.52380952,7,1,9,-0.02037037,0.007407407,1,0,0,1.1837,rock_grid_rect_2,2,09,-1,-1,1.184,-0.106481481,-0.252777778,1,0,0,2.7596,Basalt_rect,2,2.76,1,8,0,8,0,1,,,,,,,,,,,,
663f9e130a5fd324fd419944,TCR,2024-06-10_12h20.31.509,LearnStrategy,2023.2.3,Win32,59.52380952,7,1,10,0.001851852,-0.009259259,1,0,0,1.0138,rock_grid_rect_2,4,08,-1,-1,1.014,0.4,-0.242592593,1,0,0,2.7653,Gabbro_rect,4,2.765,1,9,0,9,0,1,,,,,,,,,,,,
663f9e130a5fd324fd419944,TCR,2024-06-10_12h20.31.509,LearnStrategy,2023.2.3,Win32,59.52380952,7,1,11,0.073148148,-0.016666667,1,0,0,0.7302,rock_grid_rect_2,1,06,-1,-1,0.73,-0.373148148,-0.238888889,1,0,0,4.0167,Andesite_rect,1,4.017,1,10,0,10,0,1,,,,,,,,,,,,
663f9e130a5fd324fd419944,TCR,2024-06-10_12h20.31.509,LearnStrategy,2023.2.3,Win32,59.52380952,7,1,12,-0.017592593,-0.000925926,1,0,0,1.1288,rock_grid_rect_2,4,09,-1,-1,1.129,0.4,-0.232407407,1,0,0,1.56,Gabbro_rect,4,1.56,1,11,0,11,0,1,,,,,,,,,,,,
663f9e130a5fd324fd419944,TCR,2024-06-10_12h20.31.509,LearnStrategy,2023.2.3,Win32,59.52380952,7,1,13,0.016666667,-0.023148148,1,0,0,1.2534,rock_grid_rect_2,2,12,-1,-1,1.253,-0.121296296,-0.262037037,1,0,0,1.8989,Basalt_rect,2,1.899,1,12,0,12,0,1,,,,,,,,,,,,
663f9e130a5fd324fd419944,TCR,2024-06-10_12h20.31.509,LearnStrategy,2023.2.3,Win32,59.52380952,7,1,14,-0.002777778,-0.002777778,1,0,0,1.179,rock_grid_rect_2,2,04,-1,-1,1.179,-0.137962963,-0.244444444,1,0,0,2.2035,Basalt_rect,2,2.204,1,13,0,13,0,1,,,,,,,,,,,,
663f9e130a5fd324fd419944,TCR,2024-06-10_12h20.31.509,LearnStrategy,2023.2.3,Win32,59.52380952,7,1,15,-0.018518519,-0.00462963,1,0,0,1.2132,rock_grid_rect_2,1,09,-1,-1,1.213,-0.381481481,-0.237037037,1,0,0,2.7288,Andesite_rect,1,2.729,1,14,0,14,0,1,,,,,,,,,,,,
663f9e130a5fd324fd419944,TCR,2024-06-10_12h20.31.509,LearnStrategy,2023.2.3,Win32,59.52380952,7,1,16,-0.021296296,-0.016666667,1,0,0,1.113,rock_grid_rect_2,1,06,-1,-1,1.113,-0.37962963,-0.253703704,1,0,0,1.4952,Andesite_rect,1,1.495,1,15,0,15,0,1,,,,,,,,,,,,
663f9e130a5fd324fd419944,TCR,2024-06-10_12h20.31.509,LearnStrategy,2023.2.3,Win32,59.52380952,7,2,1,,,,,,,,1,14,,,,,,,,,,,1,2.489,1,,,,,,-0.39537037,-0.250925926,1,0,0,2.4886,Andesite_rect,0,0,0,0,1
663f9e130a5fd324fd419944,TCR,2024-06-10_12h20.31.509,LearnStrategy,2023.2.3,Win32,59.52380952,7,2,2,,,,,,,,7,06,,,,,,,,,,,7,3.236,1,,,,,,0.121296296,-0.390740741,1,0,0,3.2362,Peridotite_rect,1,0,1,0,1
663f9e130a5fd324fd419944,TCR,2024-06-10_12h20.31.509,LearnStrategy,2023.2.3,Win32,59.52380952,7,2,3,,,,,,,,5,14,,,,,,,,,,,5,1.295,1,,,,,,-0.383333333,-0.403703704,1,0,0,1.2946,Obsidian_rect,2,0,2,0,1
663f9e130a5fd324fd419944,TCR,2024-06-10_12h20.31.509,LearnStrategy,2023.2.3,Win32,59.52380952,7,2,4,,,,,,,,7,15,,,,,,,,,,,7,1.395,1,,,,,,0.056481481,-0.393518519,1,0,0,1.3953,Peridotite_rect,3,0,3,0,1
663f9e130a5fd324fd419944,TCR,2024-06-10_12h20.31.509,LearnStrategy,2023.2.3,Win32,59.52380952,7,2,5,,,,,,,,5,09,,,,,,,,,,,5,1.315,1,,,,,,-0.386111111,-0.388888889,1,0,0,1.3151,Obsidian_rect,4,0,4,0,1
663f9e130a5fd324fd419944,TCR,2024-06-10_12h20.31.509,LearnStrategy,2023.2.3,Win32,59.52380952,7,2,6,,,,,,,,1,05,,,,,,,,,,,1,1.572,1,,,,,,-0.377777778,-0.248148148,1,0,0,1.5715,Andesite_rect,5,0,5,0,1
663f9e130a5fd324fd419944,TCR,2024-06-10_12h20.31.509,LearnStrategy,2023.2.3,Win32,59.52380952,7,2,7,,,,,,,,4,16,,,,,,,,,,,4,3.867,1,,,,,,0.408333333,-0.257407407,1,0,0,3.8668,Gabbro_rect,6,0,6,0,1
663f9e130a5fd324fd419944,TCR,2024-06-10_12h20.31.509,LearnStrategy,2023.2.3,Win32,59.52380952,7,2,8,,,,,,,,8,06,,,,,,,,,,,8,1.148,1,,,,,,0.425925926,-0.39537037,1,0,0,1.1484,Pumice_rect,7,0,7,0,1
663f9e130a5fd324fd419944,TCR,2024-06-10_12h20.31.509,LearnStrategy,2023.2.3,Win32,59.52380952,7,2,9,,,,,,,,4,10,,,,,,,,,,,4,1.308,1,,,,,,0.375925926,-0.24537037,1,0,0,1.3075,Gabbro_rect,8,0,8,0,1
663f9e130a5fd324fd419944,TCR,2024-06-10_12h20.31.509,LearnStrategy,2023.2.3,Win32,59.52380952,7,2,10,,,,,,,,2,06,,,,,,,,,,,2,2.274,1,,,,,,-0.131481481,-0.24537037,1,0,0,2.2742,Basalt_rect,9,0,9,0,1
663f9e130a5fd324fd419944,TCR,2024-06-10_12h20.31.509,LearnStrategy,2023.2.3,Win32,59.52380952,7,2,11,,,,,,,,2,11,,,,,,,,,,,2,2.638,1,,,,,,-0.137962963,-0.230555556,1,0,0,2.6376,Basalt_rect,10,0,10,0,1
663f9e130a5fd324fd419944,TCR,2024-06-10_12h20.31.509,LearnStrategy,2023.2.3,Win32,59.52380952,7,2,12,,,,,,,,3,10,,,,,,,,,,,1,2.837,0,,,,,,-0.392592593,-0.244444444,1,0,0,2.8369,Andesite_rect,11,0,11,0,1
663f9e130a5fd324fd419944,TCR,2024-06-10_12h20.31.509,LearnStrategy,2023.2.3,Win32,59.52380952,7,2,13,,,,,,,,6,16,,,,,,,,,,,6,3.26,1,,,,,,-0.12962963,-0.406481481,1,0,0,3.2603,Pegmatite_rect,12,0,12,0,1
663f9e130a5fd324fd419944,TCR,2024-06-10_12h20.31.509,LearnStrategy,2023.2.3,Win32,59.52380952,7,2,14,,,,,,,,3,09,,,,,,,,,,,3,2.556,1,,,,,,0.12962963,-0.241666667,1,0,0,2.5561,Diorite_rect,13,0,13,0,1
663f9e130a5fd324fd419944,TCR,2024-06-10_12h20.31.509,LearnStrategy,2023.2.3,Win32,59.52380952,7,2,15,,,,,,,,8,02,,,,,,,,,,,8,1.556,1,,,,,,0.382407407,-0.392592593,1,0,0,1.5565,Pumice_rect,14,0,14,0,1
663f9e130a5fd324fd419944,TCR,2024-06-10_12h20.31.509,LearnStrategy,2023.2.3,Win32,59.52380952,7,2,16,,,,,,,,6,12,,,,,,,,,,,6,1.391,1,,,,,,-0.135185185,-0.409259259,1,0,0,1.391,Pegmatite_rect,15,0,15,0,1
663f9e130a5fd324fd419944,TCR,2024-06-10_12h20.31.509,LearnStrategy,2023.2.3,Win32,59.52380952,8,1,1,0.025,0.001851852,1,0,0,1.1733,rock_grid_rect_2,3,02,-1,-1,1.173,0.141666667,-0.239814815,1,0,0,1.8457,Diorite_rect,3,1.846,1,0,0,0,0,1,,,,,,,,,,,,
663f9e130a5fd324fd419944,TCR,2024-06-10_12h20.31.509,LearnStrategy,2023.2.3,Win32,59.52380952,8,1,2,-0.007407407,0.000925926,1,0,0,1.2225,rock_grid_rect_2,3,06,-1,-1,1.222,0.147222222,-0.230555556,1,0,0,1.3085,Diorite_rect,3,1.309,1,1,0,1,0,1,,,,,,,,,,,,
663f9e130a5fd324fd419944,TCR,2024-06-10_12h20.31.509,LearnStrategy,2023.2.3,Win32,59.52380952,8,1,3,-0.000925926,0.005555556,1,0,0,1.5609,rock_grid_rect_2,2,01,-1,-1,1.561,-0.111111111,-0.235185185,1,0,0,1.4894,Basalt_rect,2,1.489,1,2,0,2,0,1,,,,,,,,,,,,
663f9e130a5fd324fd419944,TCR,2024-06-10_12h20.31.509,LearnStrategy,2023.2.3,Win32,59.52380952,8,1,4,0.010185185,0.003703704,1,0,0,1.3655,rock_grid_rect_2,5,16,-1,-1,1.365,-0.37037037,-0.388888889,1,0,0,1.3372,Obsidian_rect,5,1.337,1,3,0,3,0,1,,,,,,,,,,,,
663f9e130a5fd324fd419944,TCR,2024-06-10_12h20.31.509,LearnStrategy,2023.2.3,Win32,59.52380952,8,1,5,-0.000925926,-0.000925926,1,0,0,1.4853,rock_grid_rect_2,8,03,-1,-1,1.485,0.365740741,-0.386111111,1,0,0,1.1296,Pumice_rect,8,1.13,1,4,0,4,0,1,,,,,,,,,,,,
663f9e130a5fd324fd419944,TCR,2024-06-10_12h20.31.509,LearnStrategy,2023.2.3,Win32,59.52380952,8,1,6,-0.016666667,0.008333333,1,0,0,1.518,rock_grid_rect_2,2,09,-1,-1,1.518,-0.125,-0.25,1,0,0,1.6862,Basalt_rect,2,1.686,1,5,0,5,0,1,,,,,,,,,,,,
663f9e130a5fd324fd419944,TCR,2024-06-10_12h20.31.509,LearnStrategy,2023.2.3,Win32,59.52380952,8,1,7,0.007407407,0.002777778,1,0,0,1.2018,rock_grid_rect_2,2,12,-1,-1,1.202,-0.078703704,-0.232407407,1,0,0,1.314,Basalt_rect,2,1.314,1,6,0,6,0,1,,,,,,,,,,,,
663f9e130a5fd324fd419944,TCR,2024-06-10_12h20.31.509,LearnStrategy,2023.2.3,Win32,59.52380952,8,1,8,0.034259259,-0.014814815,1,0,0,0.8304,rock_grid_rect_2,1,06,-1,-1,0.83,-0.391666667,-0.257407407,1,0,0,1.449,Andesite_rect,1,1.449,1,7,0,7,0,1,,,,,,,,,,,,
663f9e130a5fd324fd419944,TCR,2024-06-10_12h20.31.509,LearnStrategy,2023.2.3,Win32,59.52380952,8,1,9,0.016666667,-0.001851852,1,0,0,1.2449,rock_grid_rect_2,3,06,-1,-1,1.245,0.157407407,-0.235185185,1,0,0,1.3682,Diorite_rect,3,1.368,1,8,0,8,0,1,,,,,,,,,,,,
663f9e130a5fd324fd419944,TCR,2024-06-10_12h20.31.509,LearnStrategy,2023.2.3,Win32,59.52380952,8,1,10,0.009259259,-0.015740741,1,0,0,1.0349,rock_grid_rect_2,1,07,-1,-1,1.035,-0.363888889,-0.242592593,1,0,0,1.3409,Andesite_rect,1,1.341,1,9,0,9,0,1,,,,,,,,,,,,
663f9e130a5fd324fd419944,TCR,2024-06-10_12h20.31.509,LearnStrategy,2023.2.3,Win32,59.52380952,8,1,11,-0.062037037,0.003703704,1,0,0,1.2295,rock_grid_rect_2,7,16,-1,-1,1.23,0.37962963,-0.247222222,1,0,0,7.8412,Gabbro_rect,4,7.841,0,10,0,10,0,1,,,,,,,,,,,,
663f9e130a5fd324fd419944,TCR,2024-06-10_12h20.31.509,LearnStrategy,2023.2.3,Win32,59.52380952,8,1,12,-0.025,-0.001851852,1,0,0,1.2239,rock_grid_rect_2,6,11,-1,-1,1.224,-0.098148148,-0.407407407,1,0,0,1.6247,Pegmatite_rect,6,1.625,1,11,0,11,0,1,,,,,,,,,,,,
663f9e130a5fd324fd419944,TCR,2024-06-10_12h20.31.509,LearnStrategy,2023.2.3,Win32,59.52380952,8,1,13,-0.039814815,-0.012037037,1,0,0,1.2038,rock_grid_rect_2,1,16,-1,-1,1.204,-0.380555556,-0.243518519,1,0,0,1.5263,Andesite_rect,1,1.526,1,12,0,12,0,1,,,,,,,,,,,,
663f9e130a5fd324fd419944,TCR,2024-06-10_12h20.31.509,LearnStrategy,2023.2.3,Win32,59.52380952,8,1,14,-0.015740741,0.00462963,1,0,0,1.1294,rock_grid_rect_2,3,14,-1,-1,1.129,0.115740741,-0.25,1,0,0,1.1039,Diorite_rect,3,1.104,1,13,0,13,0,1,,,,,,,,,,,,
663f9e130a5fd324fd419944,TCR,2024-06-10_12h20.31.509,LearnStrategy,2023.2.3,Win32,59.52380952,8,1,15,0.075925926,0.000925926,1,0,0,1.1166,rock_grid_rect_2,2,16,-1,-1,1.117,0.389814815,-0.252777778,1,0,0,1.7072,Gabbro_rect,4,1.707,0,14,0,14,0,1,,,,,,,,,,,,
663f9e130a5fd324fd419944,TCR,2024-06-10_12h20.31.509,LearnStrategy,2023.2.3,Win32,59.52380952,8,1,16,0,0.001851852,1,0,0,1.1956,rock_grid_rect_2,4,08,-1,-1,1.196,0.362962963,-0.248148148,1,0,0,1.4044,Gabbro_rect,4,1.404,1,15,0,15,0,1,,,,,,,,,,,,
663f9e130a5fd324fd419944,TCR,2024-06-10_12h20.31.509,LearnStrategy,2023.2.3,Win32,59.52380952,8,2,1,,,,,,,,8,04,,,,,,,,,,,8,1.877,1,,,,,,0.394444444,-0.393518519,1,0,0,1.877,Pumice_rect,0,0,0,0,1
663f9e130a5fd324fd419944,TCR,2024-06-10_12h20.31.509,LearnStrategy,2023.2.3,Win32,59.52380952,8,2,2,,,,,,,,5,02,,,,,,,,,,,5,1.32,1,,,,,,-0.415740741,-0.387037037,1,0,0,1.3202,Obsidian_rect,1,0,1,0,1
663f9e130a5fd324fd419944,TCR,2024-06-10_12h20.31.509,LearnStrategy,2023.2.3,Win32,59.52380952,8,2,3,,,,,,,,7,13,,,,,,,,,,,7,2.287,1,,,,,,0.12037037,-0.389814815,1,0,0,2.287,Peridotite_rect,2,0,2,0,1
663f9e130a5fd324fd419944,TCR,2024-06-10_12h20.31.509,LearnStrategy,2023.2.3,Win32,59.52380952,8,2,4,,,,,,,,1,10,,,,,,,,,,,1,3.553,1,,,,,,-0.398148148,-0.237037037,1,0,0,3.5535,Andesite_rect,3,0,3,0,1
663f9e130a5fd324fd419944,TCR,2024-06-10_12h20.31.509,LearnStrategy,2023.2.3,Win32,59.52380952,8,2,5,,,,,,,,1,01,,,,,,,,,,,3,3.591,0,,,,,,0.108333333,-0.25,1,0,0,3.5915,Diorite_rect,4,0,4,0,1
663f9e130a5fd324fd419944,TCR,2024-06-10_12h20.31.509,LearnStrategy,2023.2.3,Win32,59.52380952,8,2,6,,,,,,,,5,06,,,,,,,,,,,5,1.552,1,,,,,,-0.366666667,-0.40462963,1,0,0,1.5521,Obsidian_rect,5,0,5,0,1
663f9e130a5fd324fd419944,TCR,2024-06-10_12h20.31.509,LearnStrategy,2023.2.3,Win32,59.52380952,8,2,7,,,,,,,,6,03,,,,,,,,,,,6,4.388,1,,,,,,-0.137962963,-0.417592593,1,0,0,4.3884,Pegmatite_rect,6,0,6,0,1
663f9e130a5fd324fd419944,TCR,2024-06-10_12h20.31.509,LearnStrategy,2023.2.3,Win32,59.52380952,8,2,8,,,,,,,,3,11,,,,,,,,,,,3,1.518,1,,,,,,0.110185185,-0.25462963,1,0,0,1.5179,Diorite_rect,7,0,7,0,1
663f9e130a5fd324fd419944,TCR,2024-06-10_12h20.31.509,LearnStrategy,2023.2.3,Win32,59.52380952,8,2,9,,,,,,,,2,14,,,,,,,,,,,2,4.803,1,,,,,,-0.118518519,-0.27037037,1,0,0,4.8025,Basalt_rect,8,0,8,0,1
663f9e130a5fd324fd419944,TCR,2024-06-10_12h20.31.509,LearnStrategy,2023.2.3,Win32,59.52380952,8,2,10,,,,,,,,2,02,,,,,,,,,,,2,1.662,1,,,,,,-0.127777778,-0.240740741,1,0,0,1.6617,Basalt_rect,9,0,9,0,1
663f9e130a5fd324fd419944,TCR,2024-06-10_12h20.31.509,LearnStrategy,2023.2.3,Win32,59.52380952,8,2,11,,,,,,,,6,15,,,,,,,,,,,6,1.942,1,,,,,,-0.132407407,-0.406481481,1,0,0,1.9418,Pegmatite_rect,10,0,10,0,1
663f9e130a5fd324fd419944,TCR,2024-06-10_12h20.31.509,LearnStrategy,2023.2.3,Win32,59.52380952,8,2,12,,,,,,,,4,11,,,,,,,,,,,4,3.383,1,,,,,,0.390740741,-0.239814815,1,0,0,3.3826,Gabbro_rect,11,0,11,0,1
663f9e130a5fd324fd419944,TCR,2024-06-10_12h20.31.509,LearnStrategy,2023.2.3,Win32,59.52380952,8,2,13,,,,,,,,7,05,,,,,,,,,,,7,2.307,1,,,,,,0.148148148,-0.394444444,1,0,0,2.3066,Peridotite_rect,12,0,12,0,1
663f9e130a5fd324fd419944,TCR,2024-06-10_12h20.31.509,LearnStrategy,2023.2.3,Win32,59.52380952,8,2,14,,,,,,,,4,12,,,,,,,,,,,4,3.956,1,,,,,,0.388888889,-0.250925926,1,0,0,3.9562,Gabbro_rect,13,0,13,0,1
663f9e130a5fd324fd419944,TCR,2024-06-10_12h20.31.509,LearnStrategy,2023.2.3,Win32,59.52380952,8,2,15,,,,,,,,8,05,,,,,,,,,,,8,1.277,1,,,,,,0.387037037,-0.390740741,1,0,0,1.2767,Pumice_rect,14,0,14,0,1
663f9e130a5fd324fd419944,TCR,2024-06-10_12h20.31.509,LearnStrategy,2023.2.3,Win32,59.52380952,8,2,16,,,,,,,,3,08,,,,,,,,,,,3,2.001,1,,,,,,0.137962963,-0.257407407,1,0,0,2.001,Diorite_rect,15,0,15,0,1
663f9e130a5fd324fd419944,TCR,2024-06-10_12h20.31.509,LearnStrategy,2023.2.3,Win32,59.52380952,9,1,1,0.024074074,-0.001851852,1,0,0,2.0399,rock_grid_rect_2,5,11,-1,-1,2.04,-0.35,-0.399074074,1,0,0,1.4059,Obsidian_rect,5,1.406,1,0,0,0,0,1,,,,,,,,,,,,
663f9e130a5fd324fd419944,TCR,2024-06-10_12h20.31.509,LearnStrategy,2023.2.3,Win32,59.52380952,9,1,2,0.013888889,0.00462963,1,0,0,1.5823,rock_grid_rect_2,1,02,-1,-1,1.582,-0.366666667,-0.246296296,1,0,0,2.1486,Andesite_rect,1,2.149,1,1,0,1,0,1,,,,,,,,,,,,
663f9e130a5fd324fd419944,TCR,2024-06-10_12h20.31.509,LearnStrategy,2023.2.3,Win32,59.52380952,9,1,3,0.010185185,0.008333333,1,0,0,1.7773,rock_grid_rect_2,2,04,-1,-1,1.777,-0.140740741,-0.268518519,1,0,0,1.7564,Basalt_rect,2,1.756,1,2,0,2,0,1,,,,,,,,,,,,
663f9e130a5fd324fd419944,TCR,2024-06-10_12h20.31.509,LearnStrategy,2023.2.3,Win32,59.52380952,9,1,4,0.034259259,-0.005555556,1,0,0,1.461,rock_grid_rect_2,1,06,-1,-1,1.461,-0.37037037,-0.257407407,1,0,0,1.5114,Andesite_rect,1,1.511,1,3,0,3,0,1,,,,,,,,,,,,
663f9e130a5fd324fd419944,TCR,2024-06-10_12h20.31.509,LearnStrategy,2023.2.3,Win32,59.52380952,9,1,5,-0.024074074,0,1,0,0,0.9281,rock_grid_rect_2,3,06,-1,-1,0.928,0.12037037,-0.247222222,1,0,0,2.2872,Diorite_rect,3,2.287,1,4,0,4,0,1,,,,,,,,,,,,
663f9e130a5fd324fd419944,TCR,2024-06-10_12h20.31.509,LearnStrategy,2023.2.3,Win32,59.52380952,9,1,6,0.028703704,0.001851852,1,0,0,1.1353,rock_grid_rect_2,6,05,-1,-1,1.135,-0.140740741,-0.396296296,1,0,0,1.4947,Pegmatite_rect,6,1.495,1,5,0,5,0,1,,,,,,,,,,,,
663f9e130a5fd324fd419944,TCR,2024-06-10_12h20.31.509,LearnStrategy,2023.2.3,Win32,59.52380952,9,1,7,0.003703704,-0.009259259,1,0,0,1.1951,rock_grid_rect_2,1,04,-1,-1,1.195,-0.430555556,-0.251851852,1,0,0,1.5421,Andesite_rect,1,1.542,1,6,0,6,0,1,,,,,,,,,,,,
663f9e130a5fd324fd419944,TCR,2024-06-10_12h20.31.509,LearnStrategy,2023.2.3,Win32,59.52380952,9,1,8,0.006481481,-0.010185185,1,0,0,1.3471,rock_grid_rect_2,8,03,-1,-1,1.347,0.349074074,-0.409259259,1,0,0,1.1444,Pumice_rect,8,1.144,1,7,0,7,0,1,,,,,,,,,,,,
663f9e130a5fd324fd419944,TCR,2024-06-10_12h20.31.509,LearnStrategy,2023.2.3,Win32,59.52380952,9,1,9,-0.018518519,-0.011111111,1,0,0,1.0253,rock_grid_rect_2,2,12,-1,-1,1.025,-0.12037037,-0.240740741,1,0,0,1.3332,Basalt_rect,2,1.333,1,8,0,8,0,1,,,,,,,,,,,,
663f9e130a5fd324fd419944,TCR,2024-06-10_12h20.31.509,LearnStrategy,2023.2.3,Win32,59.52380952,9,1,10,0.001851852,0.007407407,1,0,0,1.5432,rock_grid_rect_2,4,03,-1,-1,1.543,0.126851852,-0.24537037,1,0,0,1.3308,Diorite_rect,3,1.331,0,9,0,9,0,1,,,,,,,,,,,,
663f9e130a5fd324fd419944,TCR,2024-06-10_12h20.31.509,LearnStrategy,2023.2.3,Win32,59.52380952,9,1,11,-0.012962963,-0.003703704,1,0,0,1.1937,rock_grid_rect_2,1,16,-1,-1,1.194,-0.357407407,-0.238888889,1,0,0,1.4045,Andesite_rect,1,1.405,1,10,0,10,0,1,,,,,,,,,,,,
663f9e130a5fd324fd419944,TCR,2024-06-10_12h20.31.509,LearnStrategy,2023.2.3,Win32,59.52380952,9,1,12,-0.012037037,0.012037037,1,0,0,1.1238,rock_grid_rect_2,3,14,-1,-1,1.124,0.117592593,-0.236111111,1,0,0,1.2538,Diorite_rect,3,1.254,1,11,0,11,0,1,,,,,,,,,,,,
663f9e130a5fd324fd419944,TCR,2024-06-10_12h20.31.509,LearnStrategy,2023.2.3,Win32,59.52380952,9,1,13,0.028703704,-0.00462963,1,0,0,1.0571,rock_grid_rect_2,1,09,-1,-1,1.057,0.383333333,-0.250925926,1,0,0,5.1339,Gabbro_rect,4,5.134,0,12,0,12,0,1,,,,,,,,,,,,
663f9e130a5fd324fd419944,TCR,2024-06-10_12h20.31.509,LearnStrategy,2023.2.3,Win32,59.52380952,9,1,14,-0.001851852,-0.013888889,1,0,0,1.1796,rock_grid_rect_2,2,12,-1,-1,1.18,-0.098148148,-0.246296296,1,0,0,1.4419,Basalt_rect,2,1.442,1,13,0,13,0,1,,,,,,,,,,,,
663f9e130a5fd324fd419944,TCR,2024-06-10_12h20.31.509,LearnStrategy,2023.2.3,Win32,59.52380952,9,1,15,-0.025,-0.00462963,1,0,0,1.0796,rock_grid_rect_2,3,07,-1,-1,1.08,0.132407407,-0.239814815,1,0,0,1.4614,Diorite_rect,3,1.461,1,14,0,14,0,1,,,,,,,,,,,,
663f9e130a5fd324fd419944,TCR,2024-06-10_12h20.31.509,LearnStrategy,2023.2.3,Win32,59.52380952,9,1,16,0.013888889,-0.002777778,1,0,0,1.2917,rock_grid_rect_2,7,14,-1,-1,1.292,-0.382407407,-0.237037037,1,0,0,3.9462,Andesite_rect,1,3.946,0,15,0,15,0,1,,,,,,,,,,,,
663f9e130a5fd324fd419944,TCR,2024-06-10_12h20.31.509,LearnStrategy,2023.2.3,Win32,59.52380952,9,2,1,,,,,,,,4,14,,,,,,,,,,,4,4.182,1,,,,,,0.423148148,-0.257407407,1,0,0,4.1817,Gabbro_rect,0,0,0,0,1
663f9e130a5fd324fd419944,TCR,2024-06-10_12h20.31.509,LearnStrategy,2023.2.3,Win32,59.52380952,9,2,2,,,,,,,,7,12,,,,,,,,,,,7,2.165,1,,,,,,0.115740741,-0.380555556,1,0,0,2.1652,Peridotite_rect,1,0,1,0,1
663f9e130a5fd324fd419944,TCR,2024-06-10_12h20.31.509,LearnStrategy,2023.2.3,Win32,59.52380952,9,2,3,,,,,,,,7,04,,,,,,,,,,,7,2.176,1,,,,,,0.12037037,-0.398148148,1,0,0,2.1762,Peridotite_rect,2,0,2,0,1
663f9e130a5fd324fd419944,TCR,2024-06-10_12h20.31.509,LearnStrategy,2023.2.3,Win32,59.52380952,9,2,4,,,,,,,,2,08,,,,,,,,,,,2,1.498,1,,,,,,-0.152777778,-0.249074074,1,0,0,1.4981,Basalt_rect,3,0,3,0,1
663f9e130a5fd324fd419944,TCR,2024-06-10_12h20.31.509,LearnStrategy,2023.2.3,Win32,59.52380952,9,2,5,,,,,,,,5,07,,,,,,,,,,,5,1.332,1,,,,,,-0.333333333,-0.37962963,1,0,0,1.3319,Obsidian_rect,4,0,4,0,1
663f9e130a5fd324fd419944,TCR,2024-06-10_12h20.31.509,LearnStrategy,2023.2.3,Win32,59.52380952,9,2,6,,,,,,,,1,03,,,,,,,,,,,1,1.675,1,,,,,,-0.362037037,-0.246296296,1,0,0,1.6747,Andesite_rect,5,0,5,0,1
663f9e130a5fd324fd419944,TCR,2024-06-10_12h20.31.509,LearnStrategy,2023.2.3,Win32,59.52380952,9,2,7,,,,,,,,6,08,,,,,,,,,,,6,1.182,1,,,,,,-0.115740741,-0.403703704,1,0,0,1.1823,Pegmatite_rect,6,0,6,0,1
663f9e130a5fd324fd419944,TCR,2024-06-10_12h20.31.509,LearnStrategy,2023.2.3,Win32,59.52380952,9,2,8,,,,,,,,8,08,,,,,,,,,,,8,1.379,1,,,,,,0.380555556,-0.397222222,1,0,0,1.3786,Pumice_rect,7,0,7,0,1
663f9e130a5fd324fd419944,TCR,2024-06-10_12h20.31.509,LearnStrategy,2023.2.3,Win32,59.52380952,9,2,9,,,,,,,,2,10,,,,,,,,,,,2,2.086,1,,,,,,-0.121296296,-0.238888889,1,0,0,2.0858,Basalt_rect,8,0,8,0,1
663f9e130a5fd324fd419944,TCR,2024-06-10_12h20.31.509,LearnStrategy,2023.2.3,Win32,59.52380952,9,2,10,,,,,,,,8,13,,,,,,,,,,,8,3.246,1,,,,,,0.412037037,-0.412962963,1,0,0,3.2465,Pumice_rect,9,0,9,0,1
663f9e130a5fd324fd419944,TCR,2024-06-10_12h20.31.509,LearnStrategy,2023.2.3,Win32,59.52380952,9,2,11,,,,,,,,4,01,,,,,,,,,,,7,9.05,0,,,,,,0.143518519,-0.399074074,1,0,0,9.05,Peridotite_rect,10,0,10,0,1
663f9e130a5fd324fd419944,TCR,2024-06-10_12h20.31.509,LearnStrategy,2023.2.3,Win32,59.52380952,9,2,12,,,,,,,,1,11,,,,,,,,,,,1,1.505,1,,,,,,-0.381481481,-0.256481481,1,0,0,1.5051,Andesite_rect,11,0,11,0,1
663f9e130a5fd324fd419944,TCR,2024-06-10_12h20.31.509,LearnStrategy,2023.2.3,Win32,59.52380952,9,2,13,,,,,,,,6,09,,,,,,,,,,,6,2.37,1,,,,,,-0.134259259,-0.400925926,1,0,0,2.3697,Pegmatite_rect,12,0,12,0,1
663f9e130a5fd324fd419944,TCR,2024-06-10_12h20.31.509,LearnStrategy,2023.2.3,Win32,59.52380952,9,2,14,,,,,,,,3,16,,,,,,,,,,,3,1.936,1,,,,,,0.134259259,-0.24537037,1,0,0,1.9358,Diorite_rect,13,0,13,0,1
663f9e130a5fd324fd419944,TCR,2024-06-10_12h20.31.509,LearnStrategy,2023.2.3,Win32,59.52380952,9,2,15,,,,,,,,3,12,,,,,,,,,,,3,1.668,1,,,,,,0.127777778,-0.246296296,1,0,0,1.6676,Diorite_rect,14,0,14,0,1
663f9e130a5fd324fd419944,TCR,2024-06-10_12h20.31.509,LearnStrategy,2023.2.3,Win32,59.52380952,9,2,16,,,,,,,,5,10,,,,,,,,,,,5,1.258,1,,,,,,-0.357407407,-0.402777778,1,0,0,1.2581,Obsidian_rect,15,0,15,0,1
663f9e130a5fd324fd419944,TCR,2024-06-10_12h20.31.509,LearnStrategy,2023.2.3,Win32,59.52380952,,,,,,,,,,,,,,,,,,,,,,,,,,,,,,,,,,,,,,,,,,
663f9e130a5fd324fd419944,TCR,2024-06-10_12h20.31.509,LearnStrategy,2023.2.3,Win32,59.52380952,,,,,,,,,,,,,,,,,,,,,,,,,,,,,,,,,,,,,,,,,,
663f9e130a5fd324fd419944,TCR,2024-06-10_12h20.31.509,LearnStrategy,2023.2.3,Win32,59.52380952,,,,,,,,,,,4,03,1,1,,,,,,,,,,,,,,,,,,,,,,,,,,,,
663f9e130a5fd324fd419944,TCR,2024-06-10_12h20.31.509,LearnStrategy,2023.2.3,Win32,59.52380952,,,,,,,,,,,4,05,1,2,,,,,,,,,,,,,,,,,,,,,,,,,,,,
663f9e130a5fd324fd419944,TCR,2024-06-10_12h20.31.509,LearnStrategy,2023.2.3,Win32,59.52380952,,,,,,,,,,,7,07,1,3,,,,,,,,,,,,,,,,,,,,,,,,,,,,
663f9e130a5fd324fd419944,TCR,2024-06-10_12h20.31.509,LearnStrategy,2023.2.3,Win32,59.52380952,,,,,,,,,,,2,12,1,4,,,,,,,,,,,,,,,,,,,,,,,,,,,,
663f9e130a5fd324fd419944,TCR,2024-06-10_12h20.31.509,LearnStrategy,2023.2.3,Win32,59.52380952,,,,,,,,,,,8,15,1,5,,,,,,,,,,,,,,,,,,,,,,,,,,,,
663f9e130a5fd324fd419944,TCR,2024-06-10_12h20.31.509,LearnStrategy,2023.2.3,Win32,59.52380952,,,,,,,,,,,1,04,1,6,,,,,,,,,,,,,,,,,,,,,,,,,,,,
663f9e130a5fd324fd419944,TCR,2024-06-10_12h20.31.509,LearnStrategy,2023.2.3,Win32,59.52380952,,,,,,,,,,,5,16,1,7,,,,,,,,,,,,,,,,,,,,,,,,,,,,
663f9e130a5fd324fd419944,TCR,2024-06-10_12h20.31.509,LearnStrategy,2023.2.3,Win32,59.52380952,,,,,,,,,,,8,09,1,8,,,,,,,,,,,,,,,,,,,,,,,,,,,,
663f9e130a5fd324fd419944,TCR,2024-06-10_12h20.31.509,LearnStrategy,2023.2.3,Win32,59.52380952,,,,,,,,,,,1,02,2,1,,,,,,,,,,,,,,,,,,,,,,,,,,,,
663f9e130a5fd324fd419944,TCR,2024-06-10_12h20.31.509,LearnStrategy,2023.2.3,Win32,59.52380952,,,,,,,,,,,8,14,2,2,,,,,,,,,,,,,,,,,,,,,,,,,,,,
663f9e130a5fd324fd419944,TCR,2024-06-10_12h20.31.509,LearnStrategy,2023.2.3,Win32,59.52380952,,,,,,,,,,,3,14,2,3,,,,,,,,,,,,,,,,,,,,,,,,,,,,
663f9e130a5fd324fd419944,TCR,2024-06-10_12h20.31.509,LearnStrategy,2023.2.3,Win32,59.52380952,,,,,,,,,,,7,10,2,4,,,,,,,,,,,,,,,,,,,,,,,,,,,,
663f9e130a5fd324fd419944,TCR,2024-06-10_12h20.31.509,LearnStrategy,2023.2.3,Win32,59.52380952,,,,,,,,,,,7,08,2,5,,,,,,,,,,,,,,,,,,,,,,,,,,,,
663f9e130a5fd324fd419944,TCR,2024-06-10_12h20.31.509,LearnStrategy,2023.2.3,Win32,59.52380952,,,,,,,,,,,2,16,2,6,,,,,,,,,,,,,,,,,,,,,,,,,,,,
663f9e130a5fd324fd419944,TCR,2024-06-10_12h20.31.509,LearnStrategy,2023.2.3,Win32,59.52380952,,,,,,,,,,,3,02,2,7,,,,,,,,,,,,,,,,,,,,,,,,,,,,
663f9e130a5fd324fd419944,TCR,2024-06-10_12h20.31.509,LearnStrategy,2023.2.3,Win32,59.52380952,,,,,,,,,,,3,13,2,8,,,,,,,,,,,,,,,,,,,,,,,,,,,,
663f9e130a5fd324fd419944,TCR,2024-06-10_12h20.31.509,LearnStrategy,2023.2.3,Win32,59.52380952,,,,,,,,,,,5,04,3,1,,,,,,,,,,,,,,,,,,,,,,,,,,,,
663f9e130a5fd324fd419944,TCR,2024-06-10_12h20.31.509,LearnStrategy,2023.2.3,Win32,59.52380952,,,,,,,,,,,1,09,3,2,,,,,,,,,,,,,,,,,,,,,,,,,,,,
663f9e130a5fd324fd419944,TCR,2024-06-10_12h20.31.509,LearnStrategy,2023.2.3,Win32,59.52380952,,,,,,,,,,,3,06,3,3,,,,,,,,,,,,,,,,,,,,,,,,,,,,
663f9e130a5fd324fd419944,TCR,2024-06-10_12h20.31.509,LearnStrategy,2023.2.3,Win32,59.52380952,,,,,,,,,,,5,05,3,4,,,,,,,,,,,,,,,,,,,,,,,,,,,,
663f9e130a5fd324fd419944,TCR,2024-06-10_12h20.31.509,LearnStrategy,2023.2.3,Win32,59.52380952,,,,,,,,,,,6,11,3,5,,,,,,,,,,,,,,,,,,,,,,,,,,,,
663f9e130a5fd324fd419944,TCR,2024-06-10_12h20.31.509,LearnStrategy,2023.2.3,Win32,59.52380952,,,,,,,,,,,7,16,3,6,,,,,,,,,,,,,,,,,,,,,,,,,,,,
663f9e130a5fd324fd419944,TCR,2024-06-10_12h20.31.509,LearnStrategy,2023.2.3,Win32,59.52380952,,,,,,,,,,,8,10,3,7,,,,,,,,,,,,,,,,,,,,,,,,,,,,
663f9e130a5fd324fd419944,TCR,2024-06-10_12h20.31.509,LearnStrategy,2023.2.3,Win32,59.52380952,,,,,,,,,,,8,03,3,8,,,,,,,,,,,,,,,,,,,,,,,,,,,,
663f9e130a5fd324fd419944,TCR,2024-06-10_12h20.31.509,LearnStrategy,2023.2.3,Win32,59.52380952,,,,,,,,,,,6,07,4,1,,,,,,,,,,,,,,,,,,,,,,,,,,,,
663f9e130a5fd324fd419944,TCR,2024-06-10_12h20.31.509,LearnStrategy,2023.2.3,Win32,59.52380952,,,,,,,,,,,5,08,4,2,,,,,,,,,,,,,,,,,,,,,,,,,,,,
663f9e130a5fd324fd419944,TCR,2024-06-10_12h20.31.509,LearnStrategy,2023.2.3,Win32,59.52380952,,,,,,,,,,,2,09,4,3,,,,,,,,,,,,,,,,,,,,,,,,,,,,
663f9e130a5fd324fd419944,TCR,2024-06-10_12h20.31.509,LearnStrategy,2023.2.3,Win32,59.52380952,,,,,,,,,,,8,16,4,4,,,,,,,,,,,,,,,,,,,,,,,,,,,,
663f9e130a5fd324fd419944,TCR,2024-06-10_12h20.31.509,LearnStrategy,2023.2.3,Win32,59.52380952,,,,,,,,,,,6,06,4,5,,,,,,,,,,,,,,,,,,,,,,,,,,,,
663f9e130a5fd324fd419944,TCR,2024-06-10_12h20.31.509,LearnStrategy,2023.2.3,Win32,59.52380952,,,,,,,,,,,2,04,4,6,,,,,,,,,,,,,,,,,,,,,,,,,,,,
663f9e130a5fd324fd419944,TCR,2024-06-10_12h20.31.509,LearnStrategy,2023.2.3,Win32,59.52380952,,,,,,,,,,,3,07,4,7,,,,,,,,,,,,,,,,,,,,,,,,,,,,
663f9e130a5fd324fd419944,TCR,2024-06-10_12h20.31.509,LearnStrategy,2023.2.3,Win32,59.52380952,,,,,,,,,,,7,02,4,8,,,,,,,,,,,,,,,,,,,,,,,,,,,,
663f9e130a5fd324fd419944,TCR,2024-06-10_12h20.31.509,LearnStrategy,2023.2.3,Win32,59.52380952,,,,,,,,,,,4,08,5,1,,,,,,,,,,,,,,,,,,,,,,,,,,,,
663f9e130a5fd324fd419944,TCR,2024-06-10_12h20.31.509,LearnStrategy,2023.2.3,Win32,59.52380952,,,,,,,,,,,4,13,5,2,,,,,,,,,,,,,,,,,,,,,,,,,,,,
663f9e130a5fd324fd419944,TCR,2024-06-10_12h20.31.509,LearnStrategy,2023.2.3,Win32,59.52380952,,,,,,,,,,,2,05,5,3,,,,,,,,,,,,,,,,,,,,,,,,,,,,
663f9e130a5fd324fd419944,TCR,2024-06-10_12h20.31.509,LearnStrategy,2023.2.3,Win32,59.52380952,,,,,,,,,,,1,06,5,4,,,,,,,,,,,,,,,,,,,,,,,,,,,,
663f9e130a5fd324fd419944,TCR,2024-06-10_12h20.31.509,LearnStrategy,2023.2.3,Win32,59.52380952,,,,,,,,,,,1,16,5,5,,,,,,,,,,,,,,,,,,,,,,,,,,,,
663f9e130a5fd324fd419944,TCR,2024-06-10_12h20.31.509,LearnStrategy,2023.2.3,Win32,59.52380952,,,,,,,,,,,4,09,5,6,,,,,,,,,,,,,,,,,,,,,,,,,,,,
663f9e130a5fd324fd419944,TCR,2024-06-10_12h20.31.509,LearnStrategy,2023.2.3,Win32,59.52380952,,,,,,,,,,,5,12,5,7,,,,,,,,,,,,,,,,,,,,,,,,,,,,
663f9e130a5fd324fd419944,TCR,2024-06-10_12h20.31.509,LearnStrategy,2023.2.3,Win32,59.52380952,,,,,,,,,,,6,10,5,8,,,,,,,,,,,,,,,,,,,,,,,,,,,,
663f9e130a5fd324fd419944,TCR,2024-06-10_12h20.31.509,LearnStrategy,2023.2.3,Win32,59.52380952,,,,,,,,,,,1,07,6,1,,,,,,,,,,,,,,,,,,,,,,,,,,,,
663f9e130a5fd324fd419944,TCR,2024-06-10_12h20.31.509,LearnStrategy,2023.2.3,Win32,59.52380952,,,,,,,,,,,7,14,6,2,,,,,,,,,,,,,,,,,,,,,,,,,,,,
663f9e130a5fd324fd419944,TCR,2024-06-10_12h20.31.509,LearnStrategy,2023.2.3,Win32,59.52380952,,,,,,,,,,,5,11,6,3,,,,,,,,,,,,,,,,,,,,,,,,,,,,
663f9e130a5fd324fd419944,TCR,2024-06-10_12h20.31.509,LearnStrategy,2023.2.3,Win32,59.52380952,,,,,,,,,,,3,15,6,4,,,,,,,,,,,,,,,,,,,,,,,,,,,,
663f9e130a5fd324fd419944,TCR,2024-06-10_12h20.31.509,LearnStrategy,2023.2.3,Win32,59.52380952,,,,,,,,,,,2,01,6,5,,,,,,,,,,,,,,,,,,,,,,,,,,,,
663f9e130a5fd324fd419944,TCR,2024-06-10_12h20.31.509,LearnStrategy,2023.2.3,Win32,59.52380952,,,,,,,,,,,4,15,6,6,,,,,,,,,,,,,,,,,,,,,,,,,,,,
663f9e130a5fd324fd419944,TCR,2024-06-10_12h20.31.509,LearnStrategy,2023.2.3,Win32,59.52380952,,,,,,,,,,,6,05,6,7,,,,,,,,,,,,,,,,,,,,,,,,,,,,
663f9e130a5fd324fd419944,TCR,2024-06-10_12h20.31.509,LearnStrategy,2023.2.3,Win32,59.52380952,,,,,,,,,,,6,13,6,8,,,,,,,,,,,,,,,,,,,,,,,,,,,,