participant,condition,date,expName,psychopyVersion,OS,frameRate,block,phase,trial,learn_mouse.x,learn_mouse.y,learn_mouse.leftButton,learn_mouse.midButton,learn_mouse.rightButton,learn_mouse.time,learn_mouse.clicked_name,cat,token,row,col,t_select,cat_rec,token_rec,cat_mouse_l.x,cat_mouse_l.y,cat_mouse_l.leftButton,cat_mouse_l.midButton,cat_mouse_l.rightButton,cat_mouse_l.time,cat_mouse_l.clicked_name,resp,t_resp,corr,train_trials.thisRepN,train_trials.thisTrialN,train_trials.thisN,train_trials.thisIndex,train_trials.ran,cat_mouse_t.x,cat_mouse_t.y,cat_mouse_t.leftButton,cat_mouse_t.midButton,cat_mouse_t.rightButton,cat_mouse_t.time,cat_mouse_t.clicked_name,test_trials.thisRepN,test_trials.thisTrialN,test_trials.thisN,test_trials.thisIndex,test_trials.ran,Bonus
663fab7c4193c77a18d5f5a5,SCR,2024-06-21_10h46.47.982,LearnStrategy,2023.2.3,Win32,243.902439,,,,,,,,,,,,,,,,,,,,,,,,,,,,,,,,,,,,,,,,,,,,,
663fab7c4193c77a18d5f5a5,SCR,2024-06-21_10h46.47.982,LearnStrategy,2023.2.3,Win32,243.902439,1,1,1,-0.511111111,0.398611111,1,0,0,2.32,Pumice_13,8,13,6,1,2.32,2,06,0.420833333,-0.385648148,1,0,0,24.6222,Pumice_rect,8,24.622,1,0,0,0,0,1,,,,,,,,,,,,,
663fab7c4193c77a18d5f5a5,SCR,2024-06-21_10h46.47.982,LearnStrategy,2023.2.3,Win32,243.902439,1,1,2,-0.358796296,0.385185185,1,0,0,1.2026,Basalt_01,2,01,6,2,1.203,6,05,-0.403703704,-0.228703704,1,0,0,50.023,Andesite_rect,1,50.023,0,1,0,1,0,1,,,,,,,,,,,,,
663fab7c4193c77a18d5f5a5,SCR,2024-06-21_10h46.47.982,LearnStrategy,2023.2.3,Win32,243.902439,1,1,3,-0.234259259,0.399074074,1,0,0,2.0917,Obsidian_16,5,16,6,3,2.092,5,06,-0.376388889,-0.406018519,1,0,0,30.576,Obsidian_rect,5,30.576,1,2,0,2,0,1,,,,,,,,,,,,,
663fab7c4193c77a18d5f5a5,SCR,2024-06-21_10h46.47.982,LearnStrategy,2023.2.3,Win32,243.902439,1,1,4,0.411574074,0.114351852,1,0,0,3.8935,Pumice_06,8,06,4,7,3.894,8,06,0.411111111,-0.387962963,1,0,0,32.3022,Pumice_rect,8,32.302,1,3,0,3,0,1,,,,,,,,,,,,,
663fab7c4193c77a18d5f5a5,SCR,2024-06-21_10h46.47.982,LearnStrategy,2023.2.3,Win32,243.902439,1,1,5,-0.237037037,-0.25,1,0,0,2.4361,Diorite_06,3,06,2,3,2.436,3,06,0.193055556,-0.259259259,1,0,0,34.8308,Diorite_rect,3,34.831,1,4,0,4,0,1,,,,,,,,,,,,,
663fab7c4193c77a18d5f5a5,SCR,2024-06-21_10h46.47.982,LearnStrategy,2023.2.3,Win32,243.902439,1,1,6,0.539351852,-0.441666667,1,0,0,1.0881,Diorite_07,3,07,1,8,1.088,3,07,-0.064814815,-0.398611111,1,0,0,44.8133,Pegmatite_rect,6,44.813,0,5,0,5,0,1,,,,,,,,,,,,,
663fab7c4193c77a18d5f5a5,SCR,2024-06-21_10h46.47.982,LearnStrategy,2023.2.3,Win32,243.902439,1,1,7,-0.525925926,0.406018519,1,0,0,1.6439,Pumice_13,8,13,6,1,1.644,8,13,0.405092593,-0.40787037,1,0,0,3.7454,Pumice_rect,8,3.745,1,6,0,6,0,1,,,,,,,,,,,,,
663fab7c4193c77a18d5f5a5,SCR,2024-06-21_10h46.47.982,LearnStrategy,2023.2.3,Win32,243.902439,1,1,8,-0.067592593,-0.397685185,1,0,0,1.0638,Peridotite_12,7,12,1,4,1.064,7,12,-0.334722222,-0.25,1,0,0,3.6584,Andesite_rect,1,3.658,0,7,0,7,0,1,,,,,,,,,,,,,
663fab7c4193c77a18d5f5a5,SCR,2024-06-21_10h46.47.982,LearnStrategy,2023.2.3,Win32,243.902439,1,1,9,0.410648148,0.415277778,1,0,0,1.5209,Basalt_02,2,02,6,7,1.521,2,02,-0.052777778,-0.229166667,1,0,0,4.4246,Basalt_rect,2,4.425,1,8,0,8,0,1,,,,,,,,,,,,,
663fab7c4193c77a18d5f5a5,SCR,2024-06-21_10h46.47.982,LearnStrategy,2023.2.3,Win32,243.902439,1,1,10,0.207407407,0.099074074,1,0,0,1.0226,Andesite_02,1,02,4,6,1.023,1,02,-0.360185185,-0.241666667,1,0,0,5.4832,Andesite_rect,1,5.483,1,9,0,9,0,1,,,,,,,,,,,,,
663fab7c4193c77a18d5f5a5,SCR,2024-06-21_10h46.47.982,LearnStrategy,2023.2.3,Win32,243.902439,1,1,11,-0.052314815,-0.087037037,1,0,0,0.7469,Pegmatite_10,6,10,3,4,0.747,6,10,-0.09537037,-0.396296296,1,0,0,4.6197,Pegmatite_rect,6,4.62,1,10,0,10,0,1,,,,,,,,,,,,,
663fab7c4193c77a18d5f5a5,SCR,2024-06-21_10h46.47.982,LearnStrategy,2023.2.3,Win32,243.902439,1,1,12,0.065740741,0.108333333,1,0,0,0.7876,Obsidian_05,5,05,4,5,0.788,5,05,-0.328703704,-0.381944444,1,0,0,4.1811,Obsidian_rect,5,4.181,1,11,0,11,0,1,,,,,,,,,,,,,
663fab7c4193c77a18d5f5a5,SCR,2024-06-21_10h46.47.982,LearnStrategy,2023.2.3,Win32,243.902439,1,1,13,-0.396759259,0.280092593,1,0,0,0.8664,Gabbro_08,4,08,5,2,0.866,4,08,-0.125462963,-0.265277778,1,0,0,3.3175,Basalt_rect,2,3.317,0,12,0,12,0,1,,,,,,,,,,,,,
663fab7c4193c77a18d5f5a5,SCR,2024-06-21_10h46.47.982,LearnStrategy,2023.2.3,Win32,243.902439,1,1,14,-0.533796296,-0.100925926,1,0,0,0.8946,Peridotite_06,7,06,3,1,0.895,7,06,-0.176388889,-0.393055556,1,0,0,1.2167,Pegmatite_rect,6,1.217,0,13,0,13,0,1,,,,,,,,,,,,,
663fab7c4193c77a18d5f5a5,SCR,2024-06-21_10h46.47.982,LearnStrategy,2023.2.3,Win32,243.902439,1,1,15,-0.359722222,-0.397222222,1,0,0,0.9124,Andesite_01,1,01,1,2,0.912,1,01,-0.349074074,-0.406481481,1,0,0,1.1746,Obsidian_rect,5,1.175,0,14,0,14,0,1,,,,,,,,,,,,,
663fab7c4193c77a18d5f5a5,SCR,2024-06-21_10h46.47.982,LearnStrategy,2023.2.3,Win32,243.902439,1,1,16,-0.363888889,-0.075925926,1,0,0,0.6655,Gabbro_13,4,13,3,2,0.666,4,13,0.181018519,-0.256018519,1,0,0,2.4257,Diorite_rect,3,2.426,0,15,0,15,0,1,,,,,,,,,,,,,
663fab7c4193c77a18d5f5a5,SCR,2024-06-21_10h46.47.982,LearnStrategy,2023.2.3,Win32,243.902439,1,2,1,,,,,,,,3,11,,,,,,,,,,,,,3,29.26,1,,,,,,0.148611111,-0.247685185,1,0,0,29.2602,Diorite_rect,0,0,0,0,1,
663fab7c4193c77a18d5f5a5,SCR,2024-06-21_10h46.47.982,LearnStrategy,2023.2.3,Win32,243.902439,1,2,2,,,,,,,,8,02,,,,,,,,,,,,,8,101.622,1,,,,,,0.462037037,-0.399537037,1,0,0,101.6223,Pumice_rect,1,0,1,0,1,
663fab7c4193c77a18d5f5a5,SCR,2024-06-21_10h46.47.982,LearnStrategy,2023.2.3,Win32,243.902439,1,2,3,,,,,,,,2,04,,,,,,,,,,,,,2,21.054,1,,,,,,-0.093981481,-0.244907407,1,0,0,21.0539,Basalt_rect,2,0,2,0,1,
663fab7c4193c77a18d5f5a5,SCR,2024-06-21_10h46.47.982,LearnStrategy,2023.2.3,Win32,243.902439,1,2,4,,,,,,,,7,07,,,,,,,,,,,,,7,29.422,1,,,,,,0.169444444,-0.415277778,1,0,0,29.4216,Peridotite_rect,3,0,3,0,1,
663fab7c4193c77a18d5f5a5,SCR,2024-06-21_10h46.47.982,LearnStrategy,2023.2.3,Win32,243.902439,1,2,5,,,,,,,,1,04,,,,,,,,,,,,,1,53.509,1,,,,,,-0.360185185,-0.231481481,1,0,0,53.5094,Andesite_rect,4,0,4,0,1,
663fab7c4193c77a18d5f5a5,SCR,2024-06-21_10h46.47.982,LearnStrategy,2023.2.3,Win32,243.902439,1,2,6,,,,,,,,5,08,,,,,,,,,,,,,5,3.207,1,,,,,,-0.415740741,-0.396759259,1,0,0,3.2066,Obsidian_rect,5,0,5,0,1,
663fab7c4193c77a18d5f5a5,SCR,2024-06-21_10h46.47.982,LearnStrategy,2023.2.3,Win32,243.902439,1,2,7,,,,,,,,2,09,,,,,,,,,,,,,2,2.237,1,,,,,,-0.138888889,-0.233333333,1,0,0,2.2373,Basalt_rect,6,0,6,0,1,
663fab7c4193c77a18d5f5a5,SCR,2024-06-21_10h46.47.982,LearnStrategy,2023.2.3,Win32,243.902439,1,2,8,,,,,,,,4,15,,,,,,,,,,,,,7,36.466,0,,,,,,0.158333333,-0.412962963,1,0,0,36.4664,Peridotite_rect,7,0,7,0,1,
663fab7c4193c77a18d5f5a5,SCR,2024-06-21_10h46.47.982,LearnStrategy,2023.2.3,Win32,243.902439,1,2,9,,,,,,,,6,11,,,,,,,,,,,,,4,7.403,0,,,,,,0.363425926,-0.261574074,1,0,0,7.4034,Gabbro_rect,8,0,8,0,1,
663fab7c4193c77a18d5f5a5,SCR,2024-06-21_10h46.47.982,LearnStrategy,2023.2.3,Win32,243.902439,1,2,10,,,,,,,,7,15,,,,,,,,,,,,,7,1.345,1,,,,,,0.100925926,-0.386574074,1,0,0,1.3446,Peridotite_rect,9,0,9,0,1,
663fab7c4193c77a18d5f5a5,SCR,2024-06-21_10h46.47.982,LearnStrategy,2023.2.3,Win32,243.902439,1,2,11,,,,,,,,8,09,,,,,,,,,,,,,8,1.037,1,,,,,,0.360185185,-0.382407407,1,0,0,1.0373,Pumice_rect,10,0,10,0,1,
663fab7c4193c77a18d5f5a5,SCR,2024-06-21_10h46.47.982,LearnStrategy,2023.2.3,Win32,243.902439,1,2,12,,,,,,,,6,12,,,,,,,,,,,,,3,4.11,0,,,,,,0.071296296,-0.256018519,1,0,0,4.1099,Diorite_rect,11,0,11,0,1,
663fab7c4193c77a18d5f5a5,SCR,2024-06-21_10h46.47.982,LearnStrategy,2023.2.3,Win32,243.902439,1,2,13,,,,,,,,4,03,,,,,,,,,,,,,3,3.427,0,,,,,,0.037962963,-0.254166667,1,0,0,3.4269,Diorite_rect,12,0,12,0,1,
663fab7c4193c77a18d5f5a5,SCR,2024-06-21_10h46.47.982,LearnStrategy,2023.2.3,Win32,243.902439,1,2,14,,,,,,,,3,02,,,,,,,,,,,,,5,3.08,0,,,,,,-0.321296296,-0.39537037,1,0,0,3.0798,Obsidian_rect,13,0,13,0,1,
663fab7c4193c77a18d5f5a5,SCR,2024-06-21_10h46.47.982,LearnStrategy,2023.2.3,Win32,243.902439,1,2,15,,,,,,,,1,14,,,,,,,,,,,,,6,2.224,0,,,,,,-0.05462963,-0.380092593,1,0,0,2.2243,Pegmatite_rect,14,0,14,0,1,
663fab7c4193c77a18d5f5a5,SCR,2024-06-21_10h46.47.982,LearnStrategy,2023.2.3,Win32,243.902439,1,2,16,,,,,,,,5,04,,,,,,,,,,,,,5,0.864,1,,,,,,-0.346759259,-0.380555556,1,0,0,0.8635,Obsidian_rect,15,0,15,0,1,
663fab7c4193c77a18d5f5a5,SCR,2024-06-21_10h46.47.982,LearnStrategy,2023.2.3,Win32,243.902439,2,1,1,0.112037037,0.252777778,1,0,0,1.3949,Gabbro_05,4,05,5,5,1.395,4,05,0.125925926,-0.261111111,1,0,0,8.0221,Diorite_rect,3,8.022,0,0,0,0,0,1,,,,,,,,,,,,,
663fab7c4193c77a18d5f5a5,SCR,2024-06-21_10h46.47.982,LearnStrategy,2023.2.3,Win32,243.902439,2,1,2,-0.228240741,0.418518519,1,0,0,0.9267,Obsidian_16,5,16,6,3,0.927,5,16,-0.331018519,-0.386111111,1,0,0,0.7824,Obsidian_rect,5,0.782,1,1,0,1,0,1,,,,,,,,,,,,,
663fab7c4193c77a18d5f5a5,SCR,2024-06-21_10h46.47.982,LearnStrategy,2023.2.3,Win32,243.902439,2,1,3,-0.389351852,-0.238425926,1,0,0,0.8613,Pegmatite_03,6,03,2,2,0.861,6,03,0.091666667,-0.418518519,1,0,0,0.644,Peridotite_rect,7,0.644,0,2,0,2,0,1,,,,,,,,,,,,,
663fab7c4193c77a18d5f5a5,SCR,2024-06-21_10h46.47.982,LearnStrategy,2023.2.3,Win32,243.902439,2,1,4,0.205555556,0.128240741,0,0,1,0.5029,Andesite_02,1,02,4,6,0.503,3,09,-0.411574074,-0.256944444,1,0,0,3.9941,Andesite_rect,1,3.994,1,3,0,3,0,1,,,,,,,,,,,,,
663fab7c4193c77a18d5f5a5,SCR,2024-06-21_10h46.47.982,LearnStrategy,2023.2.3,Win32,243.902439,2,1,5,0.533333333,0.273611111,1,0,0,1.8055,Gabbro_14,4,14,5,8,1.806,4,14,0.108333333,-0.241203704,1,0,0,1.263,Diorite_rect,3,1.263,0,4,0,4,0,1,,,,,,,,,,,,,
663fab7c4193c77a18d5f5a5,SCR,2024-06-21_10h46.47.982,LearnStrategy,2023.2.3,Win32,243.902439,2,1,6,-0.515277778,0.084722222,1,0,0,0.96,Pegmatite_08,6,08,4,1,0.96,6,08,-0.3625,-0.398148148,1,0,0,1.3123,Obsidian_rect,5,1.312,0,5,0,5,0,1,,,,,,,,,,,,,
663fab7c4193c77a18d5f5a5,SCR,2024-06-21_10h46.47.982,LearnStrategy,2023.2.3,Win32,243.902439,2,1,7,0.52962963,-0.240740741,1,0,0,0.9672,Pegmatite_05,6,05,2,8,0.967,6,05,-0.0625,-0.390740741,1,0,0,1.2876,Pegmatite_rect,6,1.288,1,6,0,6,0,1,,,,,,,,,,,,,
663fab7c4193c77a18d5f5a5,SCR,2024-06-21_10h46.47.982,LearnStrategy,2023.2.3,Win32,243.902439,2,1,8,-0.555555556,-0.429166667,1,0,0,0.9074,Andesite_10,1,10,1,1,0.907,1,10,0.333796296,-0.391203704,1,0,0,1.0153,Pumice_rect,8,1.015,0,7,0,7,0,1,,,,,,,,,,,,,
663fab7c4193c77a18d5f5a5,SCR,2024-06-21_10h46.47.982,LearnStrategy,2023.2.3,Win32,243.902439,2,1,9,-0.371296296,-0.419907407,1,0,0,0.7328,Andesite_01,1,01,1,2,0.733,1,01,-0.364351852,-0.383333333,1,0,0,1.0274,Obsidian_rect,5,1.027,0,8,0,8,0,1,,,,,,,,,,,,,
663fab7c4193c77a18d5f5a5,SCR,2024-06-21_10h46.47.982,LearnStrategy,2023.2.3,Win32,243.902439,2,1,10,0.233333333,-0.396296296,1,0,0,0.8772,Diorite_15,3,15,1,6,0.877,3,15,0.387962963,-0.381018519,1,0,0,0.9607,Pumice_rect,8,0.961,0,9,0,9,0,1,,,,,,,,,,,,,
663fab7c4193c77a18d5f5a5,SCR,2024-06-21_10h46.47.982,LearnStrategy,2023.2.3,Win32,243.902439,2,1,11,0.525,-0.375462963,1,0,0,1.7652,Diorite_07,3,07,1,8,1.765,4,01,0.093518519,-0.262037037,1,0,0,2.397,Diorite_rect,3,2.397,1,10,0,10,0,1,,,,,,,,,,,,,
663fab7c4193c77a18d5f5a5,SCR,2024-06-21_10h46.47.982,LearnStrategy,2023.2.3,Win32,243.902439,2,1,12,-0.070833333,0.265277778,1,0,0,1.6194,Peridotite_13,7,13,5,4,1.619,7,13,0.086574074,-0.396759259,1,0,0,1.8423,Peridotite_rect,7,1.842,1,11,0,11,0,1,,,,,,,,,,,,,
663fab7c4193c77a18d5f5a5,SCR,2024-06-21_10h46.47.982,LearnStrategy,2023.2.3,Win32,243.902439,2,1,13,-0.264351852,-0.27037037,1,0,0,0.6366,Diorite_06,3,06,2,3,0.637,3,06,-0.43287037,-0.265277778,1,0,0,1.2159,Andesite_rect,1,1.216,0,12,0,12,0,1,,,,,,,,,,,,,
663fab7c4193c77a18d5f5a5,SCR,2024-06-21_10h46.47.982,LearnStrategy,2023.2.3,Win32,243.902439,2,1,14,-0.358333333,0.099074074,1,0,0,1.1999,Basalt_10,2,10,4,2,1.2,2,10,0.42037037,-0.264814815,1,0,0,1.5413,Gabbro_rect,4,1.541,0,13,0,13,0,1,,,,,,,,,,,,,
663fab7c4193c77a18d5f5a5,SCR,2024-06-21_10h46.47.982,LearnStrategy,2023.2.3,Win32,243.902439,2,1,15,-0.339814815,-0.089351852,1,0,0,0.7172,Gabbro_13,4,13,3,2,0.717,4,13,0.372222222,-0.255555556,1,0,0,1.0113,Gabbro_rect,4,1.011,1,14,0,14,0,1,,,,,,,,,,,,,
663fab7c4193c77a18d5f5a5,SCR,2024-06-21_10h46.47.982,LearnStrategy,2023.2.3,Win32,243.902439,2,1,16,0.550925926,-0.090740741,1,0,0,0.6902,Pegmatite_16,6,16,3,8,0.69,6,16,0.1375,-0.246296296,1,0,0,1.7243,Diorite_rect,3,1.724,0,15,0,15,0,1,,,,,,,,,,,,,
663fab7c4193c77a18d5f5a5,SCR,2024-06-21_10h46.47.982,LearnStrategy,2023.2.3,Win32,243.902439,2,2,1,,,,,,,,7,14,,,,,,,,,,,,,6,5.007,0,,,,,,-0.094907407,-0.399537037,1,0,0,5.0072,Pegmatite_rect,0,0,0,0,1,
663fab7c4193c77a18d5f5a5,SCR,2024-06-21_10h46.47.982,LearnStrategy,2023.2.3,Win32,243.902439,2,2,2,,,,,,,,5,07,,,,,,,,,,,,,2,4.461,0,,,,,,-0.051388889,-0.2375,1,0,0,4.4614,Basalt_rect,1,0,1,0,1,
663fab7c4193c77a18d5f5a5,SCR,2024-06-21_10h46.47.982,LearnStrategy,2023.2.3,Win32,243.902439,2,2,3,,,,,,,,4,10,,,,,,,,,,,,,3,2.666,0,,,,,,0.121296296,-0.260185185,1,0,0,2.6665,Diorite_rect,2,0,2,0,1,
663fab7c4193c77a18d5f5a5,SCR,2024-06-21_10h46.47.982,LearnStrategy,2023.2.3,Win32,243.902439,2,2,4,,,,,,,,4,09,,,,,,,,,,,,,5,2.234,0,,,,,,-0.353703704,-0.381944444,1,0,0,2.2336,Obsidian_rect,3,0,3,0,1,
663fab7c4193c77a18d5f5a5,SCR,2024-06-21_10h46.47.982,LearnStrategy,2023.2.3,Win32,243.902439,2,2,5,,,,,,,,8,04,,,,,,,,,,,,,8,1.016,1,,,,,,0.422685185,-0.403240741,1,0,0,1.0161,Pumice_rect,4,0,4,0,1,
663fab7c4193c77a18d5f5a5,SCR,2024-06-21_10h46.47.982,LearnStrategy,2023.2.3,Win32,243.902439,2,2,6,,,,,,,,2,12,,,,,,,,,,,,,1,7.955,0,,,,,,-0.349537037,-0.243518519,1,0,0,7.9549,Andesite_rect,5,0,5,0,1,
663fab7c4193c77a18d5f5a5,SCR,2024-06-21_10h46.47.982,LearnStrategy,2023.2.3,Win32,243.902439,2,2,7,,,,,,,,6,09,,,,,,,,,,,,,7,2.373,0,,,,,,0.092592593,-0.400925926,1,0,0,2.3731,Peridotite_rect,6,0,6,0,1,
663fab7c4193c77a18d5f5a5,SCR,2024-06-21_10h46.47.982,LearnStrategy,2023.2.3,Win32,243.902439,2,2,8,,,,,,,,5,12,,,,,,,,,,,,,5,0.908,1,,,,,,-0.372685185,-0.393055556,1,0,0,0.9077,Obsidian_rect,7,0,7,0,1,
663fab7c4193c77a18d5f5a5,SCR,2024-06-21_10h46.47.982,LearnStrategy,2023.2.3,Win32,243.902439,2,2,9,,,,,,,,3,14,,,,,,,,,,,,,3,4.395,1,,,,,,0.171759259,-0.240277778,1,0,0,4.3953,Diorite_rect,8,0,8,0,1,
663fab7c4193c77a18d5f5a5,SCR,2024-06-21_10h46.47.982,LearnStrategy,2023.2.3,Win32,243.902439,2,2,10,,,,,,,,2,14,,,,,,,,,,,,,4,1.055,0,,,,,,0.392592593,-0.240277778,1,0,0,1.055,Gabbro_rect,9,0,9,0,1,
663fab7c4193c77a18d5f5a5,SCR,2024-06-21_10h46.47.982,LearnStrategy,2023.2.3,Win32,243.902439,2,2,11,,,,,,,,3,08,,,,,,,,,,,,,6,2.448,0,,,,,,-0.08287037,-0.395833333,1,0,0,2.4482,Pegmatite_rect,10,0,10,0,1,
663fab7c4193c77a18d5f5a5,SCR,2024-06-21_10h46.47.982,LearnStrategy,2023.2.3,Win32,243.902439,2,2,12,,,,,,,,8,08,,,,,,,,,,,,,8,0.917,1,,,,,,0.424074074,-0.399074074,1,0,0,0.9169,Pumice_rect,11,0,11,0,1,
663fab7c4193c77a18d5f5a5,SCR,2024-06-21_10h46.47.982,LearnStrategy,2023.2.3,Win32,243.902439,2,2,13,,,,,,,,7,04,,,,,,,,,,,,,1,3.265,0,,,,,,-0.375925926,-0.25,1,0,0,3.2653,Andesite_rect,12,0,12,0,1,
663fab7c4193c77a18d5f5a5,SCR,2024-06-21_10h46.47.982,LearnStrategy,2023.2.3,Win32,243.902439,2,2,14,,,,,,,,1,06,,,,,,,,,,,,,2,3.325,0,,,,,,-0.140740741,-0.24537037,1,0,0,3.3248,Basalt_rect,13,0,13,0,1,
663fab7c4193c77a18d5f5a5,SCR,2024-06-21_10h46.47.982,LearnStrategy,2023.2.3,Win32,243.902439,2,2,15,,,,,,,,1,09,,,,,,,,,,,,,3,1.565,0,,,,,,0.111111111,-0.256944444,1,0,0,1.5654,Diorite_rect,14,0,14,0,1,
663fab7c4193c77a18d5f5a5,SCR,2024-06-21_10h46.47.982,LearnStrategy,2023.2.3,Win32,243.902439,2,2,16,,,,,,,,6,07,,,,,,,,,,,,,6,2.38,1,,,,,,-0.103703704,-0.386111111,1,0,0,2.3797,Pegmatite_rect,15,0,15,0,1,
663fab7c4193c77a18d5f5a5,SCR,2024-06-21_10h46.47.982,LearnStrategy,2023.2.3,Win32,243.902439,3,1,1,0.547685185,-0.064351852,1,0,0,1.3204,Pegmatite_16,6,16,3,8,1.32,6,16,-0.123611111,-0.404166667,1,0,0,1.4822,Pegmatite_rect,6,1.482,1,0,0,0,0,1,,,,,,,,,,,,,
663fab7c4193c77a18d5f5a5,SCR,2024-06-21_10h46.47.982,LearnStrategy,2023.2.3,Win32,243.902439,3,1,2,-0.072685185,-0.264814815,1,0,0,0.5948,Andesite_07,1,07,2,4,0.595,1,07,-0.363425926,-0.250925926,1,0,0,1.7966,Andesite_rect,1,1.797,1,1,0,1,0,1,,,,,,,,,,,,,
663fab7c4193c77a18d5f5a5,SCR,2024-06-21_10h46.47.982,LearnStrategy,2023.2.3,Win32,243.902439,3,1,3,0.189814815,-0.069444444,1,0,0,0.5614,Peridotite_05,7,05,3,6,0.561,7,05,-0.097685185,-0.413425926,1,0,0,1.6715,Pegmatite_rect,6,1.671,0,2,0,2,0,1,,,,,,,,,,,,,
663fab7c4193c77a18d5f5a5,SCR,2024-06-21_10h46.47.982,LearnStrategy,2023.2.3,Win32,243.902439,3,1,4,-0.509722222,0.256944444,1,0,0,1.0598,Basalt_08,2,08,5,1,1.06,2,08,-0.152777778,-0.260648148,1,0,0,0.8251,Basalt_rect,2,0.825,1,3,0,3,0,1,,,,,,,,,,,,,
663fab7c4193c77a18d5f5a5,SCR,2024-06-21_10h46.47.982,LearnStrategy,2023.2.3,Win32,243.902439,3,1,5,-0.39212963,-0.260648148,1,0,0,0.6798,Pegmatite_03,6,03,2,2,0.68,6,03,0.110185185,-0.393518519,1,0,0,0.9642,Peridotite_rect,7,0.964,0,4,0,4,0,1,,,,,,,,,,,,,
663fab7c4193c77a18d5f5a5,SCR,2024-06-21_10h46.47.982,LearnStrategy,2023.2.3,Win32,243.902439,3,1,6,-0.21712963,-0.245833333,1,0,0,0.599,Diorite_06,3,06,2,3,0.599,3,06,-0.436574074,-0.248611111,1,0,0,1.1689,Andesite_rect,1,1.169,0,5,0,5,0,1,,,,,,,,,,,,,
663fab7c4193c77a18d5f5a5,SCR,2024-06-21_10h46.47.982,LearnStrategy,2023.2.3,Win32,243.902439,3,1,7,-0.522222222,-0.387037037,1,0,0,0.6783,Andesite_10,1,10,1,1,0.678,1,10,0.144444444,-0.243055556,1,0,0,2.0402,Diorite_rect,3,2.04,0,6,0,6,0,1,,,,,,,,,,,,,
663fab7c4193c77a18d5f5a5,SCR,2024-06-21_10h46.47.982,LearnStrategy,2023.2.3,Win32,243.902439,3,1,8,0.561574074,0.3875,1,0,0,0.9283,Diorite_09,3,09,6,8,0.928,3,09,-0.351851852,-0.260648148,1,0,0,2.1076,Andesite_rect,1,2.108,0,7,0,7,0,1,,,,,,,,,,,,,
663fab7c4193c77a18d5f5a5,SCR,2024-06-21_10h46.47.982,LearnStrategy,2023.2.3,Win32,243.902439,3,1,9,0.349537037,0.213888889,1,0,0,0.8875,Obsidian_09,5,09,5,7,0.887,5,09,-0.360648148,-0.397685185,1,0,0,0.7224,Obsidian_rect,5,0.722,1,8,0,8,0,1,,,,,,,,,,,,,
663fab7c4193c77a18d5f5a5,SCR,2024-06-21_10h46.47.982,LearnStrategy,2023.2.3,Win32,243.902439,3,1,10,0.374074074,0.375462963,1,0,0,0.9688,Basalt_02,2,02,6,7,0.969,2,02,-0.174537037,-0.259259259,1,0,0,0.9599,Basalt_rect,2,0.96,1,9,0,9,0,1,,,,,,,,,,,,,
663fab7c4193c77a18d5f5a5,SCR,2024-06-21_10h46.47.982,LearnStrategy,2023.2.3,Win32,243.902439,3,1,11,-0.247222222,0.208796296,1,0,0,0.6522,Gabbro_12,4,12,5,3,0.652,4,12,0.137962963,-0.25,1,0,0,1.5567,Diorite_rect,3,1.557,0,10,0,10,0,1,,,,,,,,,,,,,
663fab7c4193c77a18d5f5a5,SCR,2024-06-21_10h46.47.982,LearnStrategy,2023.2.3,Win32,243.902439,3,1,12,-0.379166667,0.251851852,1,0,0,0.6703,Gabbro_08,4,08,5,2,0.67,4,08,0.098148148,-0.243981481,1,0,0,1.0246,Diorite_rect,3,1.025,0,11,0,11,0,1,,,,,,,,,,,,,
663fab7c4193c77a18d5f5a5,SCR,2024-06-21_10h46.47.982,LearnStrategy,2023.2.3,Win32,243.902439,3,1,13,-0.4125,-0.101851852,1,0,0,0.57,Gabbro_13,4,13,3,2,0.57,4,13,0.369444444,-0.233796296,1,0,0,0.4756,Gabbro_rect,4,0.476,1,12,0,12,0,1,,,,,,,,,,,,,
663fab7c4193c77a18d5f5a5,SCR,2024-06-21_10h46.47.982,LearnStrategy,2023.2.3,Win32,243.902439,3,1,14,0.558333333,0.097222222,1,0,0,0.9028,Pegmatite_13,6,13,4,8,0.903,6,13,-0.12962963,-0.391203704,1,0,0,1.5421,Pegmatite_rect,6,1.542,1,13,0,13,0,1,,,,,,,,,,,,,
663fab7c4193c77a18d5f5a5,SCR,2024-06-21_10h46.47.982,LearnStrategy,2023.2.3,Win32,243.902439,3,1,15,0.389351852,-0.237037037,1,0,0,0.804,Andesite_03,1,03,2,7,0.804,1,03,0.132407407,-0.257407407,1,0,0,1.3107,Diorite_rect,3,1.311,0,14,0,14,0,1,,,,,,,,,,,,,
663fab7c4193c77a18d5f5a5,SCR,2024-06-21_10h46.47.982,LearnStrategy,2023.2.3,Win32,243.902439,3,1,16,0.228703704,-0.088888889,1,0,0,0.4919,Peridotite_05,7,05,3,6,0.492,7,05,-0.135185185,-0.390740741,1,0,0,1.2045,Pegmatite_rect,6,1.204,0,15,0,15,0,1,,,,,,,,,,,,,
663fab7c4193c77a18d5f5a5,SCR,2024-06-21_10h46.47.982,LearnStrategy,2023.2.3,Win32,243.902439,3,2,1,,,,,,,,6,15,,,,,,,,,,,,,6,3.613,1,,,,,,-0.106944444,-0.39537037,1,0,0,3.6129,Pegmatite_rect,0,0,0,0,1,
663fab7c4193c77a18d5f5a5,SCR,2024-06-21_10h46.47.982,LearnStrategy,2023.2.3,Win32,243.902439,3,2,2,,,,,,,,7,10,,,,,,,,,,,,,7,3.153,1,,,,,,0.07962963,-0.382407407,1,0,0,3.1531,Peridotite_rect,1,0,1,0,1,
663fab7c4193c77a18d5f5a5,SCR,2024-06-21_10h46.47.982,LearnStrategy,2023.2.3,Win32,243.902439,3,2,3,,,,,,,,6,06,,,,,,,,,,,,,6,5.138,1,,,,,,-0.082407407,-0.404166667,1,0,0,5.1383,Pegmatite_rect,2,0,2,0,1,
663fab7c4193c77a18d5f5a5,SCR,2024-06-21_10h46.47.982,LearnStrategy,2023.2.3,Win32,243.902439,3,2,4,,,,,,,,3,12,,,,,,,,,,,,,3,2.607,1,,,,,,0.175925926,-0.238888889,1,0,0,2.607,Diorite_rect,3,0,3,0,1,
663fab7c4193c77a18d5f5a5,SCR,2024-06-21_10h46.47.982,LearnStrategy,2023.2.3,Win32,243.902439,3,2,5,,,,,,,,2,11,,,,,,,,,,,,,2,1.419,1,,,,,,-0.05,-0.247222222,1,0,0,1.4192,Basalt_rect,4,0,4,0,1,
663fab7c4193c77a18d5f5a5,SCR,2024-06-21_10h46.47.982,LearnStrategy,2023.2.3,Win32,243.902439,3,2,6,,,,,,,,3,10,,,,,,,,,,,,,3,1.258,1,,,,,,0.173148148,-0.261574074,1,0,0,1.2579,Diorite_rect,5,0,5,0,1,
663fab7c4193c77a18d5f5a5,SCR,2024-06-21_10h46.47.982,LearnStrategy,2023.2.3,Win32,243.902439,3,2,7,,,,,,,,1,11,,,,,,,,,,,,,1,1.504,1,,,,,,-0.334259259,-0.259259259,1,0,0,1.5039,Andesite_rect,6,0,6,0,1,
663fab7c4193c77a18d5f5a5,SCR,2024-06-21_10h46.47.982,LearnStrategy,2023.2.3,Win32,243.902439,3,2,8,,,,,,,,8,15,,,,,,,,,,,,,8,1.187,1,,,,,,0.387037037,-0.39537037,1,0,0,1.1865,Pumice_rect,7,0,7,0,1,
663fab7c4193c77a18d5f5a5,SCR,2024-06-21_10h46.47.982,LearnStrategy,2023.2.3,Win32,243.902439,3,2,9,,,,,,,,1,05,,,,,,,,,,,,,3,2.221,0,,,,,,0.200925926,-0.253703704,1,0,0,2.221,Diorite_rect,8,0,8,0,1,
663fab7c4193c77a18d5f5a5,SCR,2024-06-21_10h46.47.982,LearnStrategy,2023.2.3,Win32,243.902439,3,2,10,,,,,,,,8,16,,,,,,,,,,,,,4,0.979,0,,,,,,0.333796296,-0.231944444,1,0,0,0.979,Gabbro_rect,9,0,9,0,1,
663fab7c4193c77a18d5f5a5,SCR,2024-06-21_10h46.47.982,LearnStrategy,2023.2.3,Win32,243.902439,3,2,11,,,,,,,,5,14,,,,,,,,,,,,,5,1.047,1,,,,,,-0.380555556,-0.378240741,1,0,0,1.0473,Obsidian_rect,10,0,10,0,1,
663fab7c4193c77a18d5f5a5,SCR,2024-06-21_10h46.47.982,LearnStrategy,2023.2.3,Win32,243.902439,3,2,12,,,,,,,,7,16,,,,,,,,,,,,,7,1.679,1,,,,,,0.116203704,-0.398148148,1,0,0,1.6794,Peridotite_rect,11,0,11,0,1,
663fab7c4193c77a18d5f5a5,SCR,2024-06-21_10h46.47.982,LearnStrategy,2023.2.3,Win32,243.902439,3,2,13,,,,,,,,2,05,,,,,,,,,,,,,2,1.169,1,,,,,,-0.130092593,-0.237037037,1,0,0,1.1691,Basalt_rect,12,0,12,0,1,
663fab7c4193c77a18d5f5a5,SCR,2024-06-21_10h46.47.982,LearnStrategy,2023.2.3,Win32,243.902439,3,2,14,,,,,,,,5,11,,,,,,,,,,,,,5,0.889,1,,,,,,-0.394907407,-0.388425926,1,0,0,0.8895,Obsidian_rect,13,0,13,0,1,
663fab7c4193c77a18d5f5a5,SCR,2024-06-21_10h46.47.982,LearnStrategy,2023.2.3,Win32,243.902439,3,2,15,,,,,,,,4,11,,,,,,,,,,,,,3,1.414,0,,,,,,0.123611111,-0.269444444,1,0,0,1.414,Diorite_rect,14,0,14,0,1,
663fab7c4193c77a18d5f5a5,SCR,2024-06-21_10h46.47.982,LearnStrategy,2023.2.3,Win32,243.902439,3,2,16,,,,,,,,4,16,,,,,,,,,,,,,4,1.632,1,,,,,,0.394907407,-0.229166667,1,0,0,1.6323,Gabbro_rect,15,0,15,0,1,
663fab7c4193c77a18d5f5a5,SCR,2024-06-21_10h46.47.982,LearnStrategy,2023.2.3,Win32,243.902439,4,1,1,0.391203704,0.389814815,1,0,0,0.895,Basalt_02,2,02,6,7,0.895,2,02,-0.177777778,-0.256481481,1,0,0,0.7481,Basalt_rect,2,0.748,1,0,0,0,0,1,,,,,,,,,,,,,
663fab7c4193c77a18d5f5a5,SCR,2024-06-21_10h46.47.982,LearnStrategy,2023.2.3,Win32,243.902439,4,1,2,-0.509722222,0.097222222,1,0,0,0.9322,Pegmatite_08,6,08,4,1,0.932,6,08,-0.093518519,-0.408796296,1,0,0,1.1461,Pegmatite_rect,6,1.146,1,1,0,1,0,1,,,,,,,,,,,,,
663fab7c4193c77a18d5f5a5,SCR,2024-06-21_10h46.47.982,LearnStrategy,2023.2.3,Win32,243.902439,4,1,3,0.046759259,-0.050925926,1,0,0,0.5282,Diorite_13,3,13,3,5,0.528,3,13,0.147222222,-0.271759259,1,0,0,1.3668,Diorite_rect,3,1.367,1,2,0,2,0,1,,,,,,,,,,,,,
663fab7c4193c77a18d5f5a5,SCR,2024-06-21_10h46.47.982,LearnStrategy,2023.2.3,Win32,243.902439,4,1,4,-0.233796296,-0.251851852,1,0,0,0.6118,Diorite_06,3,06,2,3,0.612,3,06,-0.446296296,-0.244907407,1,0,0,0.984,Andesite_rect,1,0.984,0,3,0,3,0,1,,,,,,,,,,,,,
663fab7c4193c77a18d5f5a5,SCR,2024-06-21_10h46.47.982,LearnStrategy,2023.2.3,Win32,243.902439,4,1,5,-0.362962963,-0.413888889,1,0,0,0.6325,Andesite_01,1,01,1,2,0.632,1,01,0.354166667,-0.251851852,1,0,0,1.9746,Gabbro_rect,4,1.975,0,4,0,4,0,1,,,,,,,,,,,,,
663fab7c4193c77a18d5f5a5,SCR,2024-06-21_10h46.47.982,LearnStrategy,2023.2.3,Win32,243.902439,4,1,6,-0.085648148,-0.406018519,1,0,0,0.6074,Peridotite_12,7,12,1,4,0.607,7,12,-0.098148148,-0.396296296,1,0,0,0.8609,Pegmatite_rect,6,0.861,0,5,0,5,0,1,,,,,,,,,,,,,
663fab7c4193c77a18d5f5a5,SCR,2024-06-21_10h46.47.982,LearnStrategy,2023.2.3,Win32,243.902439,4,1,7,0.372222222,-0.211574074,1,0,0,0.8381,Andesite_03,1,03,2,7,0.838,1,03,0.166666667,-0.258333333,1,0,0,0.8866,Diorite_rect,3,0.887,0,6,0,6,0,1,,,,,,,,,,,,,
663fab7c4193c77a18d5f5a5,SCR,2024-06-21_10h46.47.982,LearnStrategy,2023.2.3,Win32,243.902439,4,1,8,-0.099074074,0.133333333,1,0,0,0.6005,Pumice_14,8,14,4,4,0.6,8,14,0.442592593,-0.395833333,1,0,0,0.5764,Pumice_rect,8,0.576,1,7,0,7,0,1,,,,,,,,,,,,,
663fab7c4193c77a18d5f5a5,SCR,2024-06-21_10h46.47.982,LearnStrategy,2023.2.3,Win32,243.902439,4,1,9,0.226851852,0.379166667,1,0,0,0.6282,Gabbro_01,4,01,6,6,0.628,4,01,0.140740741,-0.256481481,1,0,0,1.6931,Diorite_rect,3,1.693,0,8,0,8,0,1,,,,,,,,,,,,,
663fab7c4193c77a18d5f5a5,SCR,2024-06-21_10h46.47.982,LearnStrategy,2023.2.3,Win32,243.902439,4,1,10,-0.366203704,-0.107407407,1,0,0,1.5168,Gabbro_13,4,13,3,2,1.517,4,13,0.413425926,-0.248611111,1,0,0,0.5402,Gabbro_rect,4,0.54,1,9,0,9,0,1,,,,,,,,,,,,,
663fab7c4193c77a18d5f5a5,SCR,2024-06-21_10h46.47.982,LearnStrategy,2023.2.3,Win32,243.902439,4,1,11,-0.566666667,-0.108333333,1,0,0,0.7707,Peridotite_06,7,06,3,1,0.771,7,06,0.119907407,-0.383796296,1,0,0,0.9053,Peridotite_rect,7,0.905,1,10,0,10,0,1,,,,,,,,,,,,,
663fab7c4193c77a18d5f5a5,SCR,2024-06-21_10h46.47.982,LearnStrategy,2023.2.3,Win32,243.902439,4,1,12,-0.349074074,0.267592593,1,0,0,0.714,Gabbro_08,4,08,5,2,0.714,4,08,-0.362037037,-0.240277778,1,0,0,0.9347,Andesite_rect,1,0.935,0,11,0,11,0,1,,,,,,,,,,,,,
663fab7c4193c77a18d5f5a5,SCR,2024-06-21_10h46.47.982,LearnStrategy,2023.2.3,Win32,243.902439,4,1,13,-0.499074074,0.273611111,1,0,0,1.1118,Basalt_08,2,08,5,1,1.112,2,08,-0.090277778,-0.249074074,1,0,0,0.5713,Basalt_rect,2,0.571,1,12,0,12,0,1,,,,,,,,,,,,,
663fab7c4193c77a18d5f5a5,SCR,2024-06-21_10h46.47.982,LearnStrategy,2023.2.3,Win32,243.902439,4,1,14,-0.565740741,-0.383796296,1,0,0,1.0532,Andesite_10,1,10,1,1,1.053,1,10,-0.357407407,-0.260648148,1,0,0,0.9651,Andesite_rect,1,0.965,1,13,0,13,0,1,,,,,,,,,,,,,
663fab7c4193c77a18d5f5a5,SCR,2024-06-21_10h46.47.982,LearnStrategy,2023.2.3,Win32,243.902439,4,1,15,0.114814815,0.406018519,1,0,0,0.8599,Obsidian_02,5,02,6,5,0.86,5,02,-0.382407407,-0.402314815,1,0,0,0.9076,Obsidian_rect,5,0.908,1,14,0,14,0,1,,,,,,,,,,,,,
663fab7c4193c77a18d5f5a5,SCR,2024-06-21_10h46.47.982,LearnStrategy,2023.2.3,Win32,243.902439,4,1,16,-0.543055556,0.12962963,1,0,0,0.7169,Pegmatite_08,6,08,4,1,0.717,6,08,-0.13287037,-0.416666667,1,0,0,3.0061,Pegmatite_rect,6,3.006,1,15,0,15,0,1,,,,,,,,,,,,,
663fab7c4193c77a18d5f5a5,SCR,2024-06-21_10h46.47.982,LearnStrategy,2023.2.3,Win32,243.902439,4,2,1,,,,,,,,4,09,,,,,,,,,,,,,2,1.319,0,,,,,,-0.112962963,-0.247222222,1,0,0,1.319,Basalt_rect,0,0,0,0,1,
663fab7c4193c77a18d5f5a5,SCR,2024-06-21_10h46.47.982,LearnStrategy,2023.2.3,Win32,243.902439,4,2,2,,,,,,,,6,06,,,,,,,,,,,,,6,3.83,1,,,,,,-0.113888889,-0.412037037,1,0,0,3.8297,Pegmatite_rect,1,0,1,0,1,
663fab7c4193c77a18d5f5a5,SCR,2024-06-21_10h46.47.982,LearnStrategy,2023.2.3,Win32,243.902439,4,2,3,,,,,,,,7,07,,,,,,,,,,,,,7,2.248,1,,,,,,0.135185185,-0.408333333,1,0,0,2.2484,Peridotite_rect,2,0,2,0,1,
663fab7c4193c77a18d5f5a5,SCR,2024-06-21_10h46.47.982,LearnStrategy,2023.2.3,Win32,243.902439,4,2,4,,,,,,,,5,14,,,,,,,,,,,,,5,0.858,1,,,,,,-0.319907407,-0.411574074,1,0,0,0.8576,Obsidian_rect,3,0,3,0,1,
663fab7c4193c77a18d5f5a5,SCR,2024-06-21_10h46.47.982,LearnStrategy,2023.2.3,Win32,243.902439,4,2,5,,,,,,,,1,09,,,,,,,,,,,,,1,1.103,1,,,,,,-0.376851852,-0.234259259,1,0,0,1.1031,Andesite_rect,4,0,4,0,1,
663fab7c4193c77a18d5f5a5,SCR,2024-06-21_10h46.47.982,LearnStrategy,2023.2.3,Win32,243.902439,4,2,6,,,,,,,,2,12,,,,,,,,,,,,,3,3.03,0,,,,,,0.123148148,-0.238425926,1,0,0,3.0299,Diorite_rect,5,0,5,0,1,
663fab7c4193c77a18d5f5a5,SCR,2024-06-21_10h46.47.982,LearnStrategy,2023.2.3,Win32,243.902439,4,2,7,,,,,,,,2,09,,,,,,,,,,,,,2,1.183,1,,,,,,-0.125462963,-0.234259259,1,0,0,1.1829,Basalt_rect,6,0,6,0,1,
663fab7c4193c77a18d5f5a5,SCR,2024-06-21_10h46.47.982,LearnStrategy,2023.2.3,Win32,243.902439,4,2,8,,,,,,,,7,04,,,,,,,,,,,,,6,3.768,0,,,,,,-0.072685185,-0.408796296,1,0,0,3.768,Pegmatite_rect,7,0,7,0,1,
663fab7c4193c77a18d5f5a5,SCR,2024-06-21_10h46.47.982,LearnStrategy,2023.2.3,Win32,243.902439,4,2,9,,,,,,,,1,06,,,,,,,,,,,,,1,1.388,1,,,,,,-0.332407407,-0.258333333,1,0,0,1.3883,Andesite_rect,8,0,8,0,1,
663fab7c4193c77a18d5f5a5,SCR,2024-06-21_10h46.47.982,LearnStrategy,2023.2.3,Win32,243.902439,4,2,10,,,,,,,,8,04,,,,,,,,,,,,,8,0.807,1,,,,,,0.397685185,-0.403240741,1,0,0,0.8065,Pumice_rect,9,0,9,0,1,
663fab7c4193c77a18d5f5a5,SCR,2024-06-21_10h46.47.982,LearnStrategy,2023.2.3,Win32,243.902439,4,2,11,,,,,,,,5,12,,,,,,,,,,,,,5,1.264,1,,,,,,-0.329166667,-0.381018519,1,0,0,1.2642,Obsidian_rect,10,0,10,0,1,
663fab7c4193c77a18d5f5a5,SCR,2024-06-21_10h46.47.982,LearnStrategy,2023.2.3,Win32,243.902439,4,2,12,,,,,,,,6,09,,,,,,,,,,,,,7,1.602,0,,,,,,0.105555556,-0.4,1,0,0,1.6016,Peridotite_rect,11,0,11,0,1,
663fab7c4193c77a18d5f5a5,SCR,2024-06-21_10h46.47.982,LearnStrategy,2023.2.3,Win32,243.902439,4,2,13,,,,,,,,8,09,,,,,,,,,,,,,8,0.823,1,,,,,,0.444444444,-0.413425926,1,0,0,0.8228,Pumice_rect,12,0,12,0,1,
663fab7c4193c77a18d5f5a5,SCR,2024-06-21_10h46.47.982,LearnStrategy,2023.2.3,Win32,243.902439,4,2,14,,,,,,,,3,10,,,,,,,,,,,,,3,1.659,1,,,,,,0.191666667,-0.24537037,1,0,0,1.6591,Diorite_rect,13,0,13,0,1,
663fab7c4193c77a18d5f5a5,SCR,2024-06-21_10h46.47.982,LearnStrategy,2023.2.3,Win32,243.902439,4,2,15,,,,,,,,4,10,,,,,,,,,,,,,4,1.595,1,,,,,,0.377777778,-0.228240741,1,0,0,1.5953,Gabbro_rect,14,0,14,0,1,
663fab7c4193c77a18d5f5a5,SCR,2024-06-21_10h46.47.982,LearnStrategy,2023.2.3,Win32,243.902439,4,2,16,,,,,,,,3,08,,,,,,,,,,,,,1,2.991,0,,,,,,-0.368981481,-0.263888889,1,0,0,2.9911,Andesite_rect,15,0,15,0,1,
663fab7c4193c77a18d5f5a5,SCR,2024-06-21_10h46.47.982,LearnStrategy,2023.2.3,Win32,243.902439,5,1,1,0.249074074,-0.231944444,1,0,0,0.92,Basalt_06,2,06,2,6,0.92,2,06,-0.110648148,-0.237962963,1,0,0,0.7314,Basalt_rect,2,0.731,1,0,0,0,0,1,,,,,,,,,,,,,
663fab7c4193c77a18d5f5a5,SCR,2024-06-21_10h46.47.982,LearnStrategy,2023.2.3,Win32,243.902439,5,1,2,-0.080092593,0.422222222,1,0,0,0.8614,Peridotite_02,7,02,6,4,0.861,7,02,0.140740741,-0.403703704,1,0,0,1.5322,Peridotite_rect,7,1.532,1,1,0,1,0,1,,,,,,,,,,,,,
663fab7c4193c77a18d5f5a5,SCR,2024-06-21_10h46.47.982,LearnStrategy,2023.2.3,Win32,243.902439,5,1,3,0.590740741,-0.463888889,1,0,0,1.071,Diorite_07,3,07,1,8,1.071,3,07,0.143518519,-0.252314815,1,0,0,0.8845,Diorite_rect,3,0.885,1,2,0,2,0,1,,,,,,,,,,,,,
663fab7c4193c77a18d5f5a5,SCR,2024-06-21_10h46.47.982,LearnStrategy,2023.2.3,Win32,243.902439,5,1,4,0.028703704,0.436111111,1,0,0,0.7948,Obsidian_02,5,02,6,5,0.795,5,02,-0.31712963,-0.393055556,1,0,0,1.1266,Obsidian_rect,5,1.127,1,3,0,3,0,1,,,,,,,,,,,,,
663fab7c4193c77a18d5f5a5,SCR,2024-06-21_10h46.47.982,LearnStrategy,2023.2.3,Win32,243.902439,5,1,5,0.394907407,-0.219907407,1,0,0,0.8571,Andesite_03,1,03,2,7,0.857,1,03,0.172685185,-0.239814815,1,0,0,0.9824,Diorite_rect,3,0.982,0,4,0,4,0,1,,,,,,,,,,,,,
663fab7c4193c77a18d5f5a5,SCR,2024-06-21_10h46.47.982,LearnStrategy,2023.2.3,Win32,243.902439,5,1,6,-0.596759259,0.143055556,1,0,0,0.7873,Pegmatite_08,6,08,4,1,0.787,6,08,-0.093981481,-0.417592593,1,0,0,0.6353,Pegmatite_rect,6,0.635,1,5,0,5,0,1,,,,,,,,,,,,,
663fab7c4193c77a18d5f5a5,SCR,2024-06-21_10h46.47.982,LearnStrategy,2023.2.3,Win32,243.902439,5,1,7,-0.263888889,0.231481481,1,0,0,0.6732,Gabbro_12,4,12,5,3,0.673,4,12,0.163425926,-0.252314815,1,0,0,1.1339,Diorite_rect,3,1.134,0,6,0,6,0,1,,,,,,,,,,,,,
663fab7c4193c77a18d5f5a5,SCR,2024-06-21_10h46.47.982,LearnStrategy,2023.2.3,Win32,243.902439,5,1,8,-0.288888889,-0.225462963,1,0,0,0.6657,Diorite_06,3,06,2,3,0.666,3,06,0.076388889,-0.250462963,1,0,0,1.2865,Diorite_rect,3,1.286,1,7,0,7,0,1,,,,,,,,,,,,,
663fab7c4193c77a18d5f5a5,SCR,2024-06-21_10h46.47.982,LearnStrategy,2023.2.3,Win32,243.902439,5,1,9,-0.362962963,-0.258796296,1,0,0,0.8491,Pegmatite_03,6,03,2,2,0.849,6,03,0.112037037,-0.40787037,1,0,0,0.7276,Peridotite_rect,7,0.728,0,8,0,8,0,1,,,,,,,,,,,,,
663fab7c4193c77a18d5f5a5,SCR,2024-06-21_10h46.47.982,LearnStrategy,2023.2.3,Win32,243.902439,5,1,10,-0.365277778,0.098148148,1,0,0,0.7323,Basalt_10,2,10,4,2,0.732,2,10,0.398148148,-0.231018519,1,0,0,0.8845,Gabbro_rect,4,0.884,0,9,0,9,0,1,,,,,,,,,,,,,
663fab7c4193c77a18d5f5a5,SCR,2024-06-21_10h46.47.982,LearnStrategy,2023.2.3,Win32,243.902439,5,1,11,-0.420833333,-0.099074074,1,0,0,0.5572,Gabbro_13,4,13,3,2,0.557,4,13,0.407407407,-0.22962963,1,0,0,0.548,Gabbro_rect,4,0.548,1,10,0,10,0,1,,,,,,,,,,,,,
663fab7c4193c77a18d5f5a5,SCR,2024-06-21_10h46.47.982,LearnStrategy,2023.2.3,Win32,243.902439,5,1,12,-0.198148148,0.219907407,1,0,0,0.717,Gabbro_12,4,12,5,3,0.717,4,12,0.096759259,-0.256018519,1,0,0,0.9864,Diorite_rect,3,0.986,0,11,0,11,0,1,,,,,,,,,,,,,
663fab7c4193c77a18d5f5a5,SCR,2024-06-21_10h46.47.982,LearnStrategy,2023.2.3,Win32,243.902439,5,1,13,0.238425926,-0.087037037,1,0,0,0.5263,Peridotite_05,7,05,3,6,0.526,7,05,0.105555556,-0.256944444,1,0,0,1.4657,Diorite_rect,3,1.466,0,12,0,12,0,1,,,,,,,,,,,,,
663fab7c4193c77a18d5f5a5,SCR,2024-06-21_10h46.47.982,LearnStrategy,2023.2.3,Win32,243.902439,5,1,14,-0.538425926,-0.389351852,1,0,0,0.7283,Andesite_10,1,10,1,1,0.728,1,10,0.339814815,-0.258796296,1,0,0,1.5204,Gabbro_rect,4,1.52,0,13,0,13,0,1,,,,,,,,,,,,,
663fab7c4193c77a18d5f5a5,SCR,2024-06-21_10h46.47.982,LearnStrategy,2023.2.3,Win32,243.902439,5,1,15,0.243518519,0.294907407,1,0,0,0.8777,Pumice_03,8,03,5,6,0.878,8,03,0.384259259,-0.398611111,1,0,0,1.3973,Pumice_rect,8,1.397,1,14,0,14,0,1,,,,,,,,,,,,,
663fab7c4193c77a18d5f5a5,SCR,2024-06-21_10h46.47.982,LearnStrategy,2023.2.3,Win32,243.902439,5,1,16,0.557407407,-0.125,1,0,0,0.8437,Pegmatite_16,6,16,3,8,0.844,6,16,-0.138425926,-0.389351852,1,0,0,0.5638,Pegmatite_rect,6,0.564,1,15,0,15,0,1,,,,,,,,,,,,,
663fab7c4193c77a18d5f5a5,SCR,2024-06-21_10h46.47.982,LearnStrategy,2023.2.3,Win32,243.902439,5,2,1,,,,,,,,8,08,,,,,,,,,,,,,8,1.73,1,,,,,,0.416203704,-0.395833333,1,0,0,1.7305,Pumice_rect,0,0,0,0,1,
663fab7c4193c77a18d5f5a5,SCR,2024-06-21_10h46.47.982,LearnStrategy,2023.2.3,Win32,243.902439,5,2,2,,,,,,,,2,05,,,,,,,,,,,,,2,2.229,1,,,,,,-0.149537037,-0.249537037,1,0,0,2.2293,Basalt_rect,1,0,1,0,1,
663fab7c4193c77a18d5f5a5,SCR,2024-06-21_10h46.47.982,LearnStrategy,2023.2.3,Win32,243.902439,5,2,3,,,,,,,,6,15,,,,,,,,,,,,,6,0.875,1,,,,,,-0.114814815,-0.412962963,1,0,0,0.8755,Pegmatite_rect,2,0,2,0,1,
663fab7c4193c77a18d5f5a5,SCR,2024-06-21_10h46.47.982,LearnStrategy,2023.2.3,Win32,243.902439,5,2,4,,,,,,,,3,12,,,,,,,,,,,,,3,3.803,1,,,,,,0.168981481,-0.236111111,1,0,0,3.8032,Diorite_rect,3,0,3,0,1,
663fab7c4193c77a18d5f5a5,SCR,2024-06-21_10h46.47.982,LearnStrategy,2023.2.3,Win32,243.902439,5,2,5,,,,,,,,8,16,,,,,,,,,,,,,8,1.927,1,,,,,,0.395833333,-0.397222222,1,0,0,1.9267,Pumice_rect,4,0,4,0,1,
663fab7c4193c77a18d5f5a5,SCR,2024-06-21_10h46.47.982,LearnStrategy,2023.2.3,Win32,243.902439,5,2,6,,,,,,,,1,11,,,,,,,,,,,,,1,2.311,1,,,,,,-0.313425926,-0.242592593,1,0,0,2.3111,Andesite_rect,5,0,5,0,1,
663fab7c4193c77a18d5f5a5,SCR,2024-06-21_10h46.47.982,LearnStrategy,2023.2.3,Win32,243.902439,5,2,7,,,,,,,,4,15,,,,,,,,,,,,,4,0.833,1,,,,,,0.397222222,-0.256944444,1,0,0,0.8326,Gabbro_rect,6,0,6,0,1,
663fab7c4193c77a18d5f5a5,SCR,2024-06-21_10h46.47.982,LearnStrategy,2023.2.3,Win32,243.902439,5,2,8,,,,,,,,5,07,,,,,,,,,,,,,5,1.442,1,,,,,,-0.352314815,-0.378703704,1,0,0,1.4418,Obsidian_rect,7,0,7,0,1,
663fab7c4193c77a18d5f5a5,SCR,2024-06-21_10h46.47.982,LearnStrategy,2023.2.3,Win32,243.902439,5,2,9,,,,,,,,2,14,,,,,,,,,,,,,4,3.395,0,,,,,,0.355092593,-0.255555556,1,0,0,3.3951,Gabbro_rect,8,0,8,0,1,
663fab7c4193c77a18d5f5a5,SCR,2024-06-21_10h46.47.982,LearnStrategy,2023.2.3,Win32,243.902439,5,2,10,,,,,,,,6,11,,,,,,,,,,,,,6,1.134,1,,,,,,-0.154166667,-0.381481481,1,0,0,1.1342,Pegmatite_rect,9,0,9,0,1,
663fab7c4193c77a18d5f5a5,SCR,2024-06-21_10h46.47.982,LearnStrategy,2023.2.3,Win32,243.902439,5,2,11,,,,,,,,1,05,,,,,,,,,,,,,3,0.872,0,,,,,,0.115277778,-0.256018519,1,0,0,0.8718,Diorite_rect,10,0,10,0,1,
663fab7c4193c77a18d5f5a5,SCR,2024-06-21_10h46.47.982,LearnStrategy,2023.2.3,Win32,243.902439,5,2,12,,,,,,,,5,11,,,,,,,,,,,,,5,0.724,1,,,,,,-0.310185185,-0.402314815,1,0,0,0.7243,Obsidian_rect,11,0,11,0,1,
663fab7c4193c77a18d5f5a5,SCR,2024-06-21_10h46.47.982,LearnStrategy,2023.2.3,Win32,243.902439,5,2,13,,,,,,,,4,16,,,,,,,,,,,,,2,1.94,0,,,,,,-0.053240741,-0.231944444,1,0,0,1.9397,Basalt_rect,12,0,12,0,1,
663fab7c4193c77a18d5f5a5,SCR,2024-06-21_10h46.47.982,LearnStrategy,2023.2.3,Win32,243.902439,5,2,14,,,,,,,,7,15,,,,,,,,,,,,,7,1.691,1,,,,,,0.118518519,-0.395833333,1,0,0,1.6912,Peridotite_rect,13,0,13,0,1,
663fab7c4193c77a18d5f5a5,SCR,2024-06-21_10h46.47.982,LearnStrategy,2023.2.3,Win32,243.902439,5,2,15,,,,,,,,3,14,,,,,,,,,,,,,3,1.774,1,,,,,,0.139351852,-0.240740741,1,0,0,1.7741,Diorite_rect,14,0,14,0,1,
663fab7c4193c77a18d5f5a5,SCR,2024-06-21_10h46.47.982,LearnStrategy,2023.2.3,Win32,243.902439,5,2,16,,,,,,,,7,14,,,,,,,,,,,,,6,1.428,0,,,,,,-0.110648148,-0.417592593,1,0,0,1.4277,Pegmatite_rect,15,0,15,0,1,
663fab7c4193c77a18d5f5a5,SCR,2024-06-21_10h46.47.982,LearnStrategy,2023.2.3,Win32,243.902439,6,1,1,0.521296296,-0.249537037,1,0,0,1.0324,Pegmatite_05,6,05,2,8,1.032,6,05,-0.149537037,-0.386111111,1,0,0,1.0454,Pegmatite_rect,6,1.045,1,0,0,0,0,1,,,,,,,,,,,,,
663fab7c4193c77a18d5f5a5,SCR,2024-06-21_10h46.47.982,LearnStrategy,2023.2.3,Win32,243.902439,6,1,2,-0.516666667,-0.237037037,1,0,0,0.8627,Diorite_16,3,16,2,1,0.863,3,16,0.098611111,-0.265277778,1,0,0,0.5337,Diorite_rect,3,0.534,1,1,0,1,0,1,,,,,,,,,,,,,
663fab7c4193c77a18d5f5a5,SCR,2024-06-21_10h46.47.982,LearnStrategy,2023.2.3,Win32,243.902439,6,1,3,0.36712963,0.390740741,1,0,0,1.0283,Basalt_02,2,02,6,7,1.028,2,02,-0.064814815,-0.233333333,1,0,0,0.6546,Basalt_rect,2,0.655,1,2,0,2,0,1,,,,,,,,,,,,,
663fab7c4193c77a18d5f5a5,SCR,2024-06-21_10h46.47.982,LearnStrategy,2023.2.3,Win32,243.902439,6,1,4,-0.218055556,0.083333333,1,0,0,0.6694,Peridotite_08,7,08,4,3,0.669,7,08,0.07037037,-0.38287037,1,0,0,1.0423,Peridotite_rect,7,1.042,1,3,0,3,0,1,,,,,,,,,,,,,
663fab7c4193c77a18d5f5a5,SCR,2024-06-21_10h46.47.982,LearnStrategy,2023.2.3,Win32,243.902439,6,1,5,-0.268981481,-0.231944444,1,0,0,0.6198,Diorite_06,3,06,2,3,0.62,3,06,0.378240741,-0.237037037,1,0,0,2.6206,Gabbro_rect,4,2.621,0,4,0,4,0,1,,,,,,,,,,,,,
663fab7c4193c77a18d5f5a5,SCR,2024-06-21_10h46.47.982,LearnStrategy,2023.2.3,Win32,243.902439,6,1,6,-0.366666667,-0.218518519,1,0,0,0.5619,Pegmatite_03,6,03,2,2,0.562,6,03,0.113425926,-0.397222222,1,0,0,0.9252,Peridotite_rect,7,0.925,0,5,0,5,0,1,,,,,,,,,,,,,
663fab7c4193c77a18d5f5a5,SCR,2024-06-21_10h46.47.982,LearnStrategy,2023.2.3,Win32,243.902439,6,1,7,0.081018519,-0.408333333,1,0,0,0.6237,Pumice_05,8,05,1,5,0.624,8,05,0.436574074,-0.403240741,1,0,0,1.5507,Pumice_rect,8,1.551,1,6,0,6,0,1,,,,,,,,,,,,,
663fab7c4193c77a18d5f5a5,SCR,2024-06-21_10h46.47.982,LearnStrategy,2023.2.3,Win32,243.902439,6,1,8,0.078240741,0.080092593,1,0,0,0.5406,Obsidian_05,5,05,4,5,0.541,5,05,-0.358796296,-0.382407407,1,0,0,1.1532,Obsidian_rect,5,1.153,1,7,0,7,0,1,,,,,,,,,,,,,
663fab7c4193c77a18d5f5a5,SCR,2024-06-21_10h46.47.982,LearnStrategy,2023.2.3,Win32,243.902439,6,1,9,0.528703704,0.265277778,1,0,0,0.7405,Gabbro_14,4,14,5,8,0.74,4,14,0.37962963,-0.252314815,1,0,0,0.917,Gabbro_rect,4,0.917,1,8,0,8,0,1,,,,,,,,,,,,,
663fab7c4193c77a18d5f5a5,SCR,2024-06-21_10h46.47.982,LearnStrategy,2023.2.3,Win32,243.902439,6,1,10,-0.086574074,-0.399537037,1,0,0,0.856,Peridotite_12,7,12,1,4,0.856,7,12,0.113888889,-0.238888889,1,0,0,1.3845,Diorite_rect,3,1.385,0,9,0,9,0,1,,,,,,,,,,,,,
663fab7c4193c77a18d5f5a5,SCR,2024-06-21_10h46.47.982,LearnStrategy,2023.2.3,Win32,243.902439,6,1,11,0.369907407,-0.05462963,1,0,0,0.5999,Andesite_16,1,16,3,7,0.6,1,16,0.143981481,-0.234259259,1,0,0,1.1495,Diorite_rect,3,1.149,0,10,0,10,0,1,,,,,,,,,,,,,
663fab7c4193c77a18d5f5a5,SCR,2024-06-21_10h46.47.982,LearnStrategy,2023.2.3,Win32,243.902439,6,1,12,-0.382407407,0.377314815,1,0,0,0.7279,Basalt_01,2,01,6,2,0.728,2,01,-0.131018519,-0.231481481,1,0,0,0.8027,Basalt_rect,2,0.803,1,11,0,11,0,1,,,,,,,,,,,,,
663fab7c4193c77a18d5f5a5,SCR,2024-06-21_10h46.47.982,LearnStrategy,2023.2.3,Win32,243.902439,6,1,13,0.234722222,0.381018519,1,0,0,0.6824,Gabbro_01,4,01,6,6,0.682,4,01,-0.344907407,-0.254166667,1,0,0,0.7136,Andesite_rect,1,0.714,0,12,0,12,0,1,,,,,,,,,,,,,
663fab7c4193c77a18d5f5a5,SCR,2024-06-21_10h46.47.982,LearnStrategy,2023.2.3,Win32,243.902439,6,1,14,-0.219907407,0.257407407,1,0,0,0.6082,Gabbro_12,4,12,5,3,0.608,4,12,0.366666667,-0.243055556,1,0,0,0.6233,Gabbro_rect,4,0.623,1,13,0,13,0,1,,,,,,,,,,,,,
663fab7c4193c77a18d5f5a5,SCR,2024-06-21_10h46.47.982,LearnStrategy,2023.2.3,Win32,243.902439,6,1,15,0.24537037,-0.278240741,1,0,0,0.5535,Basalt_06,2,06,2,6,0.553,2,06,-0.053703704,-0.240277778,1,0,0,0.6706,Basalt_rect,2,0.671,1,14,0,14,0,1,,,,,,,,,,,,,
663fab7c4193c77a18d5f5a5,SCR,2024-06-21_10h46.47.982,LearnStrategy,2023.2.3,Win32,243.902439,6,1,16,0.402777778,-0.250925926,1,0,0,0.5755,Andesite_03,1,03,2,7,0.576,1,03,-0.375,-0.248611111,1,0,0,0.8659,Andesite_rect,1,0.866,1,15,0,15,0,1,,,,,,,,,,,,,
663fab7c4193c77a18d5f5a5,SCR,2024-06-21_10h46.47.982,LearnStrategy,2023.2.3,Win32,243.902439,6,2,1,,,,,,,,2,11,,,,,,,,,,,,,4,13.255,0,,,,,,0.356018519,-0.237037037,1,0,0,13.255,Gabbro_rect,0,0,0,0,1,
663fab7c4193c77a18d5f5a5,SCR,2024-06-21_10h46.47.982,LearnStrategy,2023.2.3,Win32,243.902439,6,2,2,,,,,,,,5,04,,,,,,,,,,,,,5,1.819,1,,,,,,-0.4125,-0.398611111,1,0,0,1.8186,Obsidian_rect,1,0,1,0,1,
663fab7c4193c77a18d5f5a5,SCR,2024-06-21_10h46.47.982,LearnStrategy,2023.2.3,Win32,243.902439,6,2,3,,,,,,,,8,02,,,,,,,,,,,,,8,0.925,1,,,,,,0.325925926,-0.39212963,1,0,0,0.9252,Pumice_rect,2,0,2,0,1,
663fab7c4193c77a18d5f5a5,SCR,2024-06-21_10h46.47.982,LearnStrategy,2023.2.3,Win32,243.902439,6,2,4,,,,,,,,1,14,,,,,,,,,,,,,6,1.183,0,,,,,,-0.144444444,-0.393055556,1,0,0,1.1827,Pegmatite_rect,3,0,3,0,1,
663fab7c4193c77a18d5f5a5,SCR,2024-06-21_10h46.47.982,LearnStrategy,2023.2.3,Win32,243.902439,6,2,5,,,,,,,,5,08,,,,,,,,,,,,,5,1.592,1,,,,,,-0.416666667,-0.389814815,1,0,0,1.5919,Obsidian_rect,4,0,4,0,1,
663fab7c4193c77a18d5f5a5,SCR,2024-06-21_10h46.47.982,LearnStrategy,2023.2.3,Win32,243.902439,6,2,6,,,,,,,,3,11,,,,,,,,,,,,,6,4.979,0,,,,,,-0.051388889,-0.386111111,1,0,0,4.9786,Pegmatite_rect,5,0,5,0,1,
663fab7c4193c77a18d5f5a5,SCR,2024-06-21_10h46.47.982,LearnStrategy,2023.2.3,Win32,243.902439,6,2,7,,,,,,,,4,03,,,,,,,,,,,,,2,1.545,0,,,,,,-0.100462963,-0.24537037,1,0,0,1.5447,Basalt_rect,6,0,6,0,1,
663fab7c4193c77a18d5f5a5,SCR,2024-06-21_10h46.47.982,LearnStrategy,2023.2.3,Win32,243.902439,6,2,8,,,,,,,,6,07,,,,,,,,,,,,,6,2.03,1,,,,,,-0.137037037,-0.415740741,1,0,0,2.0301,Pegmatite_rect,7,0,7,0,1,
663fab7c4193c77a18d5f5a5,SCR,2024-06-21_10h46.47.982,LearnStrategy,2023.2.3,Win32,243.902439,6,2,9,,,,,,,,7,16,,,,,,,,,,,,,7,1.819,1,,,,,,0.138888889,-0.388888889,1,0,0,1.8186,Peridotite_rect,8,0,8,0,1,
663fab7c4193c77a18d5f5a5,SCR,2024-06-21_10h46.47.982,LearnStrategy,2023.2.3,Win32,243.902439,6,2,10,,,,,,,,3,02,,,,,,,,,,,,,3,1.703,1,,,,,,0.130555556,-0.253240741,1,0,0,1.7032,Diorite_rect,9,0,9,0,1,
663fab7c4193c77a18d5f5a5,SCR,2024-06-21_10h46.47.982,LearnStrategy,2023.2.3,Win32,243.902439,6,2,11,,,,,,,,7,10,,,,,,,,,,,,,6,2.053,0,,,,,,-0.087037037,-0.394444444,1,0,0,2.0528,Pegmatite_rect,10,0,10,0,1,
663fab7c4193c77a18d5f5a5,SCR,2024-06-21_10h46.47.982,LearnStrategy,2023.2.3,Win32,243.902439,6,2,12,,,,,,,,6,12,,,,,,,,,,,,,1,3.381,0,,,,,,-0.296759259,-0.25462963,1,0,0,3.381,Andesite_rect,11,0,11,0,1,
663fab7c4193c77a18d5f5a5,SCR,2024-06-21_10h46.47.982,LearnStrategy,2023.2.3,Win32,243.902439,6,2,13,,,,,,,,1,04,,,,,,,,,,,,,8,1.3,0,,,,,,0.401851852,-0.394907407,1,0,0,1.3,Pumice_rect,12,0,12,0,1,
663fab7c4193c77a18d5f5a5,SCR,2024-06-21_10h46.47.982,LearnStrategy,2023.2.3,Win32,243.902439,6,2,14,,,,,,,,8,15,,,,,,,,,,,,,8,1.102,1,,,,,,0.398148148,-0.383796296,1,0,0,1.1025,Pumice_rect,13,0,13,0,1,
663fab7c4193c77a18d5f5a5,SCR,2024-06-21_10h46.47.982,LearnStrategy,2023.2.3,Win32,243.902439,6,2,15,,,,,,,,2,04,,,,,,,,,,,,,2,0.927,1,,,,,,-0.183796296,-0.256481481,1,0,0,0.9269,Basalt_rect,14,0,14,0,1,
663fab7c4193c77a18d5f5a5,SCR,2024-06-21_10h46.47.982,LearnStrategy,2023.2.3,Win32,243.902439,6,2,16,,,,,,,,4,11,,,,,,,,,,,,,1,2.62,0,,,,,,-0.431481481,-0.242592593,1,0,0,2.6201,Andesite_rect,15,0,15,0,1,
663fab7c4193c77a18d5f5a5,SCR,2024-06-21_10h46.47.982,LearnStrategy,2023.2.3,Win32,243.902439,7,1,1,0.550462963,-0.09537037,1,0,0,0.8072,Pegmatite_16,6,16,3,8,0.807,6,16,-0.059259259,-0.384259259,1,0,0,0.9331,Pegmatite_rect,6,0.933,1,0,0,0,0,1,,,,,,,,,,,,,
663fab7c4193c77a18d5f5a5,SCR,2024-06-21_10h46.47.982,LearnStrategy,2023.2.3,Win32,243.902439,7,1,2,0.21712963,0.239351852,1,0,0,0.627,Pumice_03,8,03,5,6,0.627,8,03,0.384722222,-0.401388889,1,0,0,0.927,Pumice_rect,8,0.927,1,1,0,1,0,1,,,,,,,,,,,,,
663fab7c4193c77a18d5f5a5,SCR,2024-06-21_10h46.47.982,LearnStrategy,2023.2.3,Win32,243.902439,7,1,3,0.055555556,0.201388889,1,0,0,0.5001,Gabbro_05,4,05,5,5,0.5,4,05,0.10462963,-0.237037037,1,0,0,1.7095,Diorite_rect,3,1.709,0,2,0,2,0,1,,,,,,,,,,,,,
663fab7c4193c77a18d5f5a5,SCR,2024-06-21_10h46.47.982,LearnStrategy,2023.2.3,Win32,243.902439,7,1,4,-0.497222222,0.247685185,1,0,0,1.0034,Basalt_08,2,08,5,1,1.003,2,08,-0.103240741,-0.271296296,1,0,0,0.7839,Basalt_rect,2,0.784,1,3,0,3,0,1,,,,,,,,,,,,,
663fab7c4193c77a18d5f5a5,SCR,2024-06-21_10h46.47.982,LearnStrategy,2023.2.3,Win32,243.902439,7,1,5,0.207407407,-0.249537037,1,0,0,0.6834,Basalt_06,2,06,2,6,0.683,2,06,-0.10462963,-0.249074074,1,0,0,0.7848,Basalt_rect,2,0.785,1,4,0,4,0,1,,,,,,,,,,,,,
663fab7c4193c77a18d5f5a5,SCR,2024-06-21_10h46.47.982,LearnStrategy,2023.2.3,Win32,243.902439,7,1,6,-0.086574074,0.406018519,1,0,0,0.7824,Peridotite_02,7,02,6,4,0.782,7,02,-0.109722222,-0.405092593,1,0,0,0.9408,Pegmatite_rect,6,0.941,0,5,0,5,0,1,,,,,,,,,,,,,
663fab7c4193c77a18d5f5a5,SCR,2024-06-21_10h46.47.982,LearnStrategy,2023.2.3,Win32,243.902439,7,1,7,0.238888889,0.419907407,1,0,0,0.9473,Gabbro_01,4,01,6,6,0.947,4,01,0.401851852,-0.240277778,1,0,0,1.0091,Gabbro_rect,4,1.009,1,6,0,6,0,1,,,,,,,,,,,,,
663fab7c4193c77a18d5f5a5,SCR,2024-06-21_10h46.47.982,LearnStrategy,2023.2.3,Win32,243.902439,7,1,8,-0.553703704,-0.241203704,1,0,0,0.7923,Diorite_16,3,16,2,1,0.792,3,16,0.131481481,-0.250925926,1,0,0,0.6379,Diorite_rect,3,0.638,1,7,0,7,0,1,,,,,,,,,,,,,
663fab7c4193c77a18d5f5a5,SCR,2024-06-21_10h46.47.982,LearnStrategy,2023.2.3,Win32,243.902439,7,1,9,-0.525462963,-0.397685185,1,0,0,0.6537,Andesite_10,1,10,1,1,0.654,1,10,-0.44537037,-0.246759259,1,0,0,0.8845,Andesite_rect,1,0.885,1,8,0,8,0,1,,,,,,,,,,,,,
663fab7c4193c77a18d5f5a5,SCR,2024-06-21_10h46.47.982,LearnStrategy,2023.2.3,Win32,243.902439,7,1,10,-0.252777778,0.261111111,1,0,0,0.8588,Gabbro_12,4,12,5,3,0.859,4,12,-0.07962963,-0.2375,1,0,0,0.407,Basalt_rect,2,0.407,0,9,0,9,0,1,,,,,,,,,,,,,
663fab7c4193c77a18d5f5a5,SCR,2024-06-21_10h46.47.982,LearnStrategy,2023.2.3,Win32,243.902439,7,1,11,-0.222222222,-0.101851852,1,0,0,0.5506,Obsidian_10,5,10,3,3,0.551,5,10,-0.366666667,-0.387962963,1,0,0,1.1163,Obsidian_rect,5,1.116,1,10,0,10,0,1,,,,,,,,,,,,,
663fab7c4193c77a18d5f5a5,SCR,2024-06-21_10h46.47.982,LearnStrategy,2023.2.3,Win32,243.902439,7,1,12,-0.573148148,-0.37962963,1,0,0,0.6698,Andesite_10,1,10,1,1,0.67,1,10,-0.474537037,-0.267592593,1,0,0,0.6998,Andesite_rect,1,0.7,1,11,0,11,0,1,,,,,,,,,,,,,
663fab7c4193c77a18d5f5a5,SCR,2024-06-21_10h46.47.982,LearnStrategy,2023.2.3,Win32,243.902439,7,1,13,-0.574074074,0.083796296,1,0,0,0.7553,Pegmatite_08,6,08,4,1,0.755,6,08,-0.096759259,-0.387037037,1,0,0,1.1442,Pegmatite_rect,6,1.144,1,12,0,12,0,1,,,,,,,,,,,,,
663fab7c4193c77a18d5f5a5,SCR,2024-06-21_10h46.47.982,LearnStrategy,2023.2.3,Win32,243.902439,7,1,14,-0.369907407,-0.394907407,1,0,0,0.6909,Andesite_01,1,01,1,2,0.691,1,01,-0.150462963,-0.252314815,1,0,0,1.0463,Basalt_rect,2,1.046,0,13,0,13,0,1,,,,,,,,,,,,,
663fab7c4193c77a18d5f5a5,SCR,2024-06-21_10h46.47.982,LearnStrategy,2023.2.3,Win32,243.902439,7,1,15,0.082407407,-0.099074074,1,0,0,0.6697,Diorite_13,3,13,3,5,0.67,3,13,-0.095833333,-0.398611111,1,0,0,1.6198,Pegmatite_rect,6,1.62,0,14,0,14,0,1,,,,,,,,,,,,,
663fab7c4193c77a18d5f5a5,SCR,2024-06-21_10h46.47.982,LearnStrategy,2023.2.3,Win32,243.902439,7,1,16,-0.059259259,0.400925926,1,0,0,0.7284,Peridotite_02,7,02,6,4,0.728,7,02,0.157407407,-0.406944444,1,0,0,0.9573,Peridotite_rect,7,0.957,1,15,0,15,0,1,,,,,,,,,,,,,
663fab7c4193c77a18d5f5a5,SCR,2024-06-21_10h46.47.982,LearnStrategy,2023.2.3,Win32,243.902439,7,2,1,,,,,,,,6,06,,,,,,,,,,,,,4,5.077,0,,,,,,0.331944444,-0.262962963,1,0,0,5.0774,Gabbro_rect,0,0,0,0,1,
663fab7c4193c77a18d5f5a5,SCR,2024-06-21_10h46.47.982,LearnStrategy,2023.2.3,Win32,243.902439,7,2,2,,,,,,,,5,04,,,,,,,,,,,,,5,0.875,1,,,,,,-0.388888889,-0.413888889,1,0,0,0.8752,Obsidian_rect,1,0,1,0,1,
663fab7c4193c77a18d5f5a5,SCR,2024-06-21_10h46.47.982,LearnStrategy,2023.2.3,Win32,243.902439,7,2,3,,,,,,,,7,14,,,,,,,,,,,,,7,1.694,1,,,,,,0.143518519,-0.399537037,1,0,0,1.6943,Peridotite_rect,2,0,2,0,1,
663fab7c4193c77a18d5f5a5,SCR,2024-06-21_10h46.47.982,LearnStrategy,2023.2.3,Win32,243.902439,7,2,4,,,,,,,,4,09,,,,,,,,,,,,,5,0.892,0,,,,,,-0.388425926,-0.398611111,1,0,0,0.892,Obsidian_rect,3,0,3,0,1,
663fab7c4193c77a18d5f5a5,SCR,2024-06-21_10h46.47.982,LearnStrategy,2023.2.3,Win32,243.902439,7,2,5,,,,,,,,8,08,,,,,,,,,,,,,8,1.564,1,,,,,,0.402314815,-0.398611111,1,0,0,1.5644,Pumice_rect,4,0,4,0,1,
663fab7c4193c77a18d5f5a5,SCR,2024-06-21_10h46.47.982,LearnStrategy,2023.2.3,Win32,243.902439,7,2,6,,,,,,,,1,04,,,,,,,,,,,,,1,1.061,1,,,,,,-0.398611111,-0.250925926,1,0,0,1.0608,Andesite_rect,5,0,5,0,1,
663fab7c4193c77a18d5f5a5,SCR,2024-06-21_10h46.47.982,LearnStrategy,2023.2.3,Win32,243.902439,7,2,7,,,,,,,,2,09,,,,,,,,,,,,,2,2.402,1,,,,,,-0.134259259,-0.241666667,1,0,0,2.4024,Basalt_rect,6,0,6,0,1,
663fab7c4193c77a18d5f5a5,SCR,2024-06-21_10h46.47.982,LearnStrategy,2023.2.3,Win32,243.902439,7,2,8,,,,,,,,3,11,,,,,,,,,,,,,4,1.217,0,,,,,,0.390740741,-0.248148148,1,0,0,1.2175,Gabbro_rect,7,0,7,0,1,
663fab7c4193c77a18d5f5a5,SCR,2024-06-21_10h46.47.982,LearnStrategy,2023.2.3,Win32,243.902439,7,2,9,,,,,,,,4,10,,,,,,,,,,,,,3,2.453,0,,,,,,0.087037037,-0.235648148,1,0,0,2.453,Diorite_rect,8,0,8,0,1,
663fab7c4193c77a18d5f5a5,SCR,2024-06-21_10h46.47.982,LearnStrategy,2023.2.3,Win32,243.902439,7,2,10,,,,,,,,3,12,,,,,,,,,,,,,3,1.693,1,,,,,,0.115740741,-0.252314815,1,0,0,1.6932,Diorite_rect,9,0,9,0,1,
663fab7c4193c77a18d5f5a5,SCR,2024-06-21_10h46.47.982,LearnStrategy,2023.2.3,Win32,243.902439,7,2,11,,,,,,,,8,15,,,,,,,,,,,,,8,0.829,1,,,,,,0.383796296,-0.415740741,1,0,0,0.8293,Pumice_rect,10,0,10,0,1,
663fab7c4193c77a18d5f5a5,SCR,2024-06-21_10h46.47.982,LearnStrategy,2023.2.3,Win32,243.902439,7,2,12,,,,,,,,6,12,,,,,,,,,,,,,6,1.206,1,,,,,,-0.172222222,-0.398148148,1,0,0,1.2059,Pegmatite_rect,11,0,11,0,1,
663fab7c4193c77a18d5f5a5,SCR,2024-06-21_10h46.47.982,LearnStrategy,2023.2.3,Win32,243.902439,7,2,13,,,,,,,,7,10,,,,,,,,,,,,,7,0.99,1,,,,,,0.179166667,-0.421296296,1,0,0,0.9899,Peridotite_rect,12,0,12,0,1,
663fab7c4193c77a18d5f5a5,SCR,2024-06-21_10h46.47.982,LearnStrategy,2023.2.3,Win32,243.902439,7,2,14,,,,,,,,5,07,,,,,,,,,,,,,4,1.185,0,,,,,,0.32962963,-0.265277778,1,0,0,1.185,Gabbro_rect,13,0,13,0,1,
663fab7c4193c77a18d5f5a5,SCR,2024-06-21_10h46.47.982,LearnStrategy,2023.2.3,Win32,243.902439,7,2,15,,,,,,,,1,14,,,,,,,,,,,,,6,1.457,0,,,,,,-0.150462963,-0.390740741,1,0,0,1.4574,Pegmatite_rect,14,0,14,0,1,
663fab7c4193c77a18d5f5a5,SCR,2024-06-21_10h46.47.982,LearnStrategy,2023.2.3,Win32,243.902439,7,2,16,,,,,,,,2,04,,,,,,,,,,,,,2,0.884,1,,,,,,-0.156481481,-0.2625,1,0,0,0.8841,Basalt_rect,15,0,15,0,1,
663fab7c4193c77a18d5f5a5,SCR,2024-06-21_10h46.47.982,LearnStrategy,2023.2.3,Win32,243.902439,8,1,1,-0.518518519,-0.080555556,1,0,0,1.0991,Peridotite_06,7,06,3,1,1.099,7,06,0.129166667,-0.405555556,1,0,0,0.9816,Peridotite_rect,7,0.982,1,0,0,0,0,1,,,,,,,,,,,,,
663fab7c4193c77a18d5f5a5,SCR,2024-06-21_10h46.47.982,LearnStrategy,2023.2.3,Win32,243.902439,8,1,2,0.510185185,0.106481481,1,0,0,0.9698,Pegmatite_13,6,13,4,8,0.97,6,13,-0.123148148,-0.399074074,1,0,0,1.1186,Pegmatite_rect,6,1.119,1,1,0,1,0,1,,,,,,,,,,,,,
663fab7c4193c77a18d5f5a5,SCR,2024-06-21_10h46.47.982,LearnStrategy,2023.2.3,Win32,243.902439,8,1,3,-0.246296296,-0.114351852,1,0,0,0.5537,Obsidian_10,5,10,3,3,0.554,5,10,-0.383333333,-0.411111111,1,0,0,0.5607,Obsidian_rect,5,0.561,1,2,0,2,0,1,,,,,,,,,,,,,
663fab7c4193c77a18d5f5a5,SCR,2024-06-21_10h46.47.982,LearnStrategy,2023.2.3,Win32,243.902439,8,1,4,0.243981481,0.075925926,1,0,0,0.8006,Andesite_02,1,02,4,6,0.801,1,02,0.39537037,-0.249537037,1,0,0,1.4262,Gabbro_rect,4,1.426,0,3,0,3,0,1,,,,,,,,,,,,,
663fab7c4193c77a18d5f5a5,SCR,2024-06-21_10h46.47.982,LearnStrategy,2023.2.3,Win32,243.902439,8,1,5,-0.192592593,-0.229166667,1,0,0,0.6501,Diorite_06,3,06,2,3,0.65,3,06,-0.421759259,-0.259259259,1,0,0,1.9607,Andesite_rect,1,1.961,0,4,0,4,0,1,,,,,,,,,,,,,
663fab7c4193c77a18d5f5a5,SCR,2024-06-21_10h46.47.982,LearnStrategy,2023.2.3,Win32,243.902439,8,1,6,-0.372685185,0.228703704,1,0,0,0.8687,Gabbro_08,4,08,5,2,0.869,4,08,0.302314815,-0.262037037,1,0,0,2.1901,Gabbro_rect,4,2.19,1,5,0,5,0,1,,,,,,,,,,,,,
663fab7c4193c77a18d5f5a5,SCR,2024-06-21_10h46.47.982,LearnStrategy,2023.2.3,Win32,243.902439,8,1,7,-0.086111111,-0.245833333,1,0,0,0.6125,Andesite_07,1,07,2,4,0.612,1,07,0.111111111,-0.243518519,1,0,0,0.6206,Diorite_rect,3,0.621,0,6,0,6,0,1,,,,,,,,,,,,,
663fab7c4193c77a18d5f5a5,SCR,2024-06-21_10h46.47.982,LearnStrategy,2023.2.3,Win32,243.902439,8,1,8,-0.246759259,0.223148148,1,0,0,0.6838,Gabbro_12,4,12,5,3,0.684,4,12,-0.116666667,-0.240277778,1,0,0,0.5229,Basalt_rect,2,0.523,0,7,0,7,0,1,,,,,,,,,,,,,
663fab7c4193c77a18d5f5a5,SCR,2024-06-21_10h46.47.982,LearnStrategy,2023.2.3,Win32,243.902439,8,1,9,-0.393981481,0.41712963,1,0,0,0.7024,Basalt_01,2,01,6,2,0.702,2,01,-0.10462963,-0.24537037,1,0,0,0.8392,Basalt_rect,2,0.839,1,8,0,8,0,1,,,,,,,,,,,,,
663fab7c4193c77a18d5f5a5,SCR,2024-06-21_10h46.47.982,LearnStrategy,2023.2.3,Win32,243.902439,8,1,10,0.400462963,-0.221296296,1,0,0,0.6201,Andesite_03,1,03,2,7,0.62,1,03,-0.401851852,-0.255092593,1,0,0,0.7553,Andesite_rect,1,0.755,1,9,0,9,0,1,,,,,,,,,,,,,
663fab7c4193c77a18d5f5a5,SCR,2024-06-21_10h46.47.982,LearnStrategy,2023.2.3,Win32,243.902439,8,1,11,0.186111111,0.383796296,1,0,0,0.7281,Gabbro_01,4,01,6,6,0.728,4,01,0.164351852,-0.252777778,1,0,0,0.7605,Diorite_rect,3,0.76,0,10,0,10,0,1,,,,,,,,,,,,,
663fab7c4193c77a18d5f5a5,SCR,2024-06-21_10h46.47.982,LearnStrategy,2023.2.3,Win32,243.902439,8,1,12,0.219907407,-0.264814815,1,0,0,0.6296,Basalt_06,2,06,2,6,0.63,2,06,-0.127777778,-0.264814815,1,0,0,0.5411,Basalt_rect,2,0.541,1,11,0,11,0,1,,,,,,,,,,,,,
663fab7c4193c77a18d5f5a5,SCR,2024-06-21_10h46.47.982,LearnStrategy,2023.2.3,Win32,243.902439,8,1,13,0.058333333,-0.065277778,1,0,0,0.4823,Diorite_13,3,13,3,5,0.482,3,13,0.138425926,-0.248148148,1,0,0,1.6706,Diorite_rect,3,1.671,1,12,0,12,0,1,,,,,,,,,,,,,
663fab7c4193c77a18d5f5a5,SCR,2024-06-21_10h46.47.982,LearnStrategy,2023.2.3,Win32,243.902439,8,1,14,-0.363888889,-0.215277778,1,0,0,0.6282,Pegmatite_03,6,03,2,2,0.628,6,03,0.086111111,-0.413425926,1,0,0,0.8282,Peridotite_rect,7,0.828,0,13,0,13,0,1,,,,,,,,,,,,,
663fab7c4193c77a18d5f5a5,SCR,2024-06-21_10h46.47.982,LearnStrategy,2023.2.3,Win32,243.902439,8,1,15,0.08287037,-0.418055556,1,0,0,0.5755,Pumice_05,8,05,1,5,0.575,8,05,0.36712963,-0.387962963,1,0,0,0.3979,Pumice_rect,8,0.398,1,14,0,14,0,1,,,,,,,,,,,,,
663fab7c4193c77a18d5f5a5,SCR,2024-06-21_10h46.47.982,LearnStrategy,2023.2.3,Win32,243.902439,8,1,16,0.083796296,0.270833333,1,0,0,0.7618,Gabbro_05,4,05,5,5,0.762,4,05,0.3375,-0.256481481,1,0,0,1.3459,Gabbro_rect,4,1.346,1,15,0,15,0,1,,,,,,,,,,,,,
663fab7c4193c77a18d5f5a5,SCR,2024-06-21_10h46.47.982,LearnStrategy,2023.2.3,Win32,243.902439,8,2,1,,,,,,,,4,03,,,,,,,,,,,,,4,1.794,1,,,,,,0.378703704,-0.240740741,1,0,0,1.7943,Gabbro_rect,0,0,0,0,1,
663fab7c4193c77a18d5f5a5,SCR,2024-06-21_10h46.47.982,LearnStrategy,2023.2.3,Win32,243.902439,8,2,2,,,,,,,,5,14,,,,,,,,,,,,,5,0.833,1,,,,,,-0.415277778,-0.411574074,1,0,0,0.8329,Obsidian_rect,1,0,1,0,1,
663fab7c4193c77a18d5f5a5,SCR,2024-06-21_10h46.47.982,LearnStrategy,2023.2.3,Win32,243.902439,8,2,3,,,,,,,,5,11,,,,,,,,,,,,,5,0.857,1,,,,,,-0.433333333,-0.393518519,1,0,0,0.8571,Obsidian_rect,2,0,2,0,1,
663fab7c4193c77a18d5f5a5,SCR,2024-06-21_10h46.47.982,LearnStrategy,2023.2.3,Win32,243.902439,8,2,4,,,,,,,,3,10,,,,,,,,,,,,,3,3.194,1,,,,,,0.160648148,-0.248148148,1,0,0,3.1944,Diorite_rect,3,0,3,0,1,
663fab7c4193c77a18d5f5a5,SCR,2024-06-21_10h46.47.982,LearnStrategy,2023.2.3,Win32,243.902439,8,2,5,,,,,,,,1,11,,,,,,,,,,,,,1,1.564,1,,,,,,-0.337962963,-0.255092593,1,0,0,1.5642,Andesite_rect,4,0,4,0,1,
663fab7c4193c77a18d5f5a5,SCR,2024-06-21_10h46.47.982,LearnStrategy,2023.2.3,Win32,243.902439,8,2,6,,,,,,,,2,12,,,,,,,,,,,,,1,8.318,0,,,,,,-0.371296296,-0.252777778,1,0,0,8.3183,Andesite_rect,5,0,5,0,1,
663fab7c4193c77a18d5f5a5,SCR,2024-06-21_10h46.47.982,LearnStrategy,2023.2.3,Win32,243.902439,8,2,7,,,,,,,,7,04,,,,,,,,,,,,,4,0.919,0,,,,,,0.345833333,-0.260185185,1,0,0,0.9192,Gabbro_rect,6,0,6,0,1,
663fab7c4193c77a18d5f5a5,SCR,2024-06-21_10h46.47.982,LearnStrategy,2023.2.3,Win32,243.902439,8,2,8,,,,,,,,8,09,,,,,,,,,,,,,8,1.294,1,,,,,,0.416666667,-0.389351852,1,0,0,1.2941,Pumice_rect,7,0,7,0,1,
663fab7c4193c77a18d5f5a5,SCR,2024-06-21_10h46.47.982,LearnStrategy,2023.2.3,Win32,243.902439,8,2,9,,,,,,,,7,16,,,,,,,,,,,,,7,1.736,1,,,,,,0.081944444,-0.399074074,1,0,0,1.7363,Peridotite_rect,8,0,8,0,1,
663fab7c4193c77a18d5f5a5,SCR,2024-06-21_10h46.47.982,LearnStrategy,2023.2.3,Win32,243.902439,8,2,10,,,,,,,,1,06,,,,,,,,,,,,,1,1.93,1,,,,,,-0.366203704,-0.257407407,1,0,0,1.9301,Andesite_rect,9,0,9,0,1,
663fab7c4193c77a18d5f5a5,SCR,2024-06-21_10h46.47.982,LearnStrategy,2023.2.3,Win32,243.902439,8,2,11,,,,,,,,2,05,,,,,,,,,,,,,2,1.08,1,,,,,,-0.099537037,-0.258796296,1,0,0,1.0802,Basalt_rect,10,0,10,0,1,
663fab7c4193c77a18d5f5a5,SCR,2024-06-21_10h46.47.982,LearnStrategy,2023.2.3,Win32,243.902439,8,2,12,,,,,,,,6,09,,,,,,,,,,,,,7,1.358,0,,,,,,0.085648148,-0.378703704,1,0,0,1.3581,Peridotite_rect,11,0,11,0,1,
663fab7c4193c77a18d5f5a5,SCR,2024-06-21_10h46.47.982,LearnStrategy,2023.2.3,Win32,243.902439,8,2,13,,,,,,,,8,16,,,,,,,,,,,,,8,0.948,1,,,,,,0.353703704,-0.399537037,1,0,0,0.9483,Pumice_rect,12,0,12,0,1,
663fab7c4193c77a18d5f5a5,SCR,2024-06-21_10h46.47.982,LearnStrategy,2023.2.3,Win32,243.902439,8,2,14,,,,,,,,3,08,,,,,,,,,,,,,3,1.841,1,,,,,,0.176851852,-0.248611111,1,0,0,1.8413,Diorite_rect,13,0,13,0,1,
663fab7c4193c77a18d5f5a5,SCR,2024-06-21_10h46.47.982,LearnStrategy,2023.2.3,Win32,243.902439,8,2,15,,,,,,,,6,11,,,,,,,,,,,,,6,1.103,1,,,,,,-0.093055556,-0.39212963,1,0,0,1.1033,Pegmatite_rect,14,0,14,0,1,
663fab7c4193c77a18d5f5a5,SCR,2024-06-21_10h46.47.982,LearnStrategy,2023.2.3,Win32,243.902439,8,2,16,,,,,,,,4,15,,,,,,,,,,,,,4,0.972,1,,,,,,0.383333333,-0.264814815,1,0,0,0.9721,Gabbro_rect,15,0,15,0,1,
663fab7c4193c77a18d5f5a5,SCR,2024-06-21_10h46.47.982,LearnStrategy,2023.2.3,Win32,243.902439,9,1,1,0.21712963,0.124537037,1,0,0,0.8815,Andesite_02,1,02,4,6,0.882,1,02,0.174537037,-0.240277778,1,0,0,1.2711,Diorite_rect,3,1.271,0,0,0,0,0,1,,,,,,,,,,,,,
663fab7c4193c77a18d5f5a5,SCR,2024-06-21_10h46.47.982,LearnStrategy,2023.2.3,Win32,243.902439,9,1,2,0.52037037,-0.25,1,0,0,0.999,Pegmatite_05,6,05,2,8,0.999,6,05,-0.147685185,-0.4,1,0,0,0.5809,Pegmatite_rect,6,0.581,1,1,0,1,0,1,,,,,,,,,,,,,
663fab7c4193c77a18d5f5a5,SCR,2024-06-21_10h46.47.982,LearnStrategy,2023.2.3,Win32,243.902439,9,1,3,0.346296296,-0.414351852,1,0,0,0.7161,Obsidian_06,5,06,1,7,0.716,5,06,0.421759259,-0.237037037,1,0,0,0.9177,Gabbro_rect,4,0.918,0,2,0,2,0,1,,,,,,,,,,,,,
663fab7c4193c77a18d5f5a5,SCR,2024-06-21_10h46.47.982,LearnStrategy,2023.2.3,Win32,243.902439,9,1,4,0.049537037,0.250462963,1,0,0,0.849,Gabbro_05,4,05,5,5,0.849,4,05,-0.427777778,-0.243055556,1,0,0,0.9775,Andesite_rect,1,0.977,0,3,0,3,0,1,,,,,,,,,,,,,
663fab7c4193c77a18d5f5a5,SCR,2024-06-21_10h46.47.982,LearnStrategy,2023.2.3,Win32,243.902439,9,1,5,-0.500462963,0.101388889,1,0,0,0.9001,Pegmatite_08,6,08,4,1,0.9,6,08,-0.128240741,-0.410185185,1,0,0,0.6415,Pegmatite_rect,6,0.641,1,4,0,4,0,1,,,,,,,,,,,,,
663fab7c4193c77a18d5f5a5,SCR,2024-06-21_10h46.47.982,LearnStrategy,2023.2.3,Win32,243.902439,9,1,6,0.365740741,0.422685185,1,0,0,0.8339,Basalt_02,2,02,6,7,0.834,2,02,0.428703704,-0.258333333,1,0,0,1.1168,Gabbro_rect,4,1.117,0,5,0,5,0,1,,,,,,,,,,,,,
663fab7c4193c77a18d5f5a5,SCR,2024-06-21_10h46.47.982,LearnStrategy,2023.2.3,Win32,243.902439,9,1,7,0.061574074,0.253703704,1,0,0,0.5954,Gabbro_05,4,05,5,5,0.595,4,05,0.166666667,-0.266666667,1,0,0,0.787,Diorite_rect,3,0.787,0,6,0,6,0,1,,,,,,,,,,,,,
663fab7c4193c77a18d5f5a5,SCR,2024-06-21_10h46.47.982,LearnStrategy,2023.2.3,Win32,243.902439,9,1,8,-0.586574074,-0.259722222,1,0,0,0.6797,Diorite_16,3,16,2,1,0.68,3,16,0.164814815,-0.271296296,1,0,0,0.4955,Diorite_rect,3,0.495,1,7,0,7,0,1,,,,,,,,,,,,,
663fab7c4193c77a18d5f5a5,SCR,2024-06-21_10h46.47.982,LearnStrategy,2023.2.3,Win32,243.902439,9,1,9,0.225,-0.212037037,1,0,0,0.552,Basalt_06,2,06,2,6,0.552,2,06,-0.109259259,-0.229166667,1,0,0,0.3977,Basalt_rect,2,0.398,1,8,0,8,0,1,,,,,,,,,,,,,
663fab7c4193c77a18d5f5a5,SCR,2024-06-21_10h46.47.982,LearnStrategy,2023.2.3,Win32,243.902439,9,1,10,-0.517592593,-0.087037037,1,0,0,0.9408,Peridotite_06,7,06,3,1,0.941,7,06,0.106018519,-0.403240741,1,0,0,1.0385,Peridotite_rect,7,1.039,1,9,0,9,0,1,,,,,,,,,,,,,
663fab7c4193c77a18d5f5a5,SCR,2024-06-21_10h46.47.982,LearnStrategy,2023.2.3,Win32,243.902439,9,1,11,0.210648148,0.236574074,1,0,0,0.5611,Pumice_03,8,03,5,6,0.561,8,03,0.39537037,-0.398611111,1,0,0,0.803,Pumice_rect,8,0.803,1,10,0,10,0,1,,,,,,,,,,,,,
663fab7c4193c77a18d5f5a5,SCR,2024-06-21_10h46.47.982,LearnStrategy,2023.2.3,Win32,243.902439,9,1,12,-0.535185185,-0.098611111,1,0,0,0.6273,Peridotite_06,7,06,3,1,0.627,7,06,0.151388889,-0.388425926,1,0,0,0.7621,Peridotite_rect,7,0.762,1,11,0,11,0,1,,,,,,,,,,,,,
663fab7c4193c77a18d5f5a5,SCR,2024-06-21_10h46.47.982,LearnStrategy,2023.2.3,Win32,243.902439,9,1,13,0.251851852,0.097222222,1,0,0,0.4783,Andesite_02,1,02,4,6,0.478,1,02,-0.304166667,-0.255092593,1,0,0,1.3904,Andesite_rect,1,1.39,1,12,0,12,0,1,,,,,,,,,,,,,
663fab7c4193c77a18d5f5a5,SCR,2024-06-21_10h46.47.982,LearnStrategy,2023.2.3,Win32,243.902439,9,1,14,-0.368518519,0.245833333,1,0,0,0.696,Gabbro_08,4,08,5,2,0.696,4,08,0.408796296,-0.253703704,1,0,0,0.9114,Gabbro_rect,4,0.911,1,13,0,13,0,1,,,,,,,,,,,,,
663fab7c4193c77a18d5f5a5,SCR,2024-06-21_10h46.47.982,LearnStrategy,2023.2.3,Win32,243.902439,9,1,15,0.060185185,-0.093518519,1,0,0,0.5286,Diorite_13,3,13,3,5,0.529,3,13,0.125925926,-0.228703704,1,0,0,0.8716,Diorite_rect,3,0.872,1,14,0,14,0,1,,,,,,,,,,,,,
663fab7c4193c77a18d5f5a5,SCR,2024-06-21_10h46.47.982,LearnStrategy,2023.2.3,Win32,243.902439,9,1,16,0.565277778,-0.079166667,1,0,0,1.0877,Pegmatite_16,6,16,3,8,1.088,6,16,-0.051851852,-0.411111111,1,0,0,1.284,Pegmatite_rect,6,1.284,1,15,0,15,0,1,,,,,,,,,,,,,
663fab7c4193c77a18d5f5a5,SCR,2024-06-21_10h46.47.982,LearnStrategy,2023.2.3,Win32,243.902439,9,2,1,,,,,,,,4,16,,,,,,,,,,,,,4,1.779,1,,,,,,0.393981481,-0.247222222,1,0,0,1.7789,Gabbro_rect,0,0,0,0,1,
663fab7c4193c77a18d5f5a5,SCR,2024-06-21_10h46.47.982,LearnStrategy,2023.2.3,Win32,243.902439,9,2,2,,,,,,,,1,09,,,,,,,,,,,,,1,2.359,1,,,,,,-0.308796296,-0.231944444,1,0,0,2.3591,Andesite_rect,1,0,1,0,1,
663fab7c4193c77a18d5f5a5,SCR,2024-06-21_10h46.47.982,LearnStrategy,2023.2.3,Win32,243.902439,9,2,3,,,,,,,,6,15,,,,,,,,,,,,,6,1.12,1,,,,,,-0.087037037,-0.397222222,1,0,0,1.12,Pegmatite_rect,2,0,2,0,1,
663fab7c4193c77a18d5f5a5,SCR,2024-06-21_10h46.47.982,LearnStrategy,2023.2.3,Win32,243.902439,9,2,4,,,,,,,,1,05,,,,,,,,,,,,,3,3.687,0,,,,,,0.078703704,-0.234259259,1,0,0,3.6873,Diorite_rect,3,0,3,0,1,
663fab7c4193c77a18d5f5a5,SCR,2024-06-21_10h46.47.982,LearnStrategy,2023.2.3,Win32,243.902439,9,2,5,,,,,,,,7,15,,,,,,,,,,,,,7,1.134,1,,,,,,0.091203704,-0.406944444,1,0,0,1.1345,Peridotite_rect,4,0,4,0,1,
663fab7c4193c77a18d5f5a5,SCR,2024-06-21_10h46.47.982,LearnStrategy,2023.2.3,Win32,243.902439,9,2,6,,,,,,,,2,14,,,,,,,,,,,,,4,1.689,0,,,,,,0.384722222,-0.249074074,1,0,0,1.6887,Gabbro_rect,5,0,5,0,1,
663fab7c4193c77a18d5f5a5,SCR,2024-06-21_10h46.47.982,LearnStrategy,2023.2.3,Win32,243.902439,9,2,7,,,,,,,,5,08,,,,,,,,,,,,,5,0.799,1,,,,,,-0.371296296,-0.398148148,1,0,0,0.7993,Obsidian_rect,6,0,6,0,1,
663fab7c4193c77a18d5f5a5,SCR,2024-06-21_10h46.47.982,LearnStrategy,2023.2.3,Win32,243.902439,9,2,8,,,,,,,,7,07,,,,,,,,,,,,,7,3.498,1,,,,,,0.084722222,-0.402314815,1,0,0,3.4981,Peridotite_rect,7,0,7,0,1,
663fab7c4193c77a18d5f5a5,SCR,2024-06-21_10h46.47.982,LearnStrategy,2023.2.3,Win32,243.902439,9,2,9,,,,,,,,8,04,,,,,,,,,,,,,8,0.667,1,,,,,,0.314351852,-0.397685185,1,0,0,0.6674,Pumice_rect,8,0,8,0,1,
663fab7c4193c77a18d5f5a5,SCR,2024-06-21_10h46.47.982,LearnStrategy,2023.2.3,Win32,243.902439,9,2,10,,,,,,,,6,07,,,,,,,,,,,,,6,2.327,1,,,,,,-0.110185185,-0.401851852,1,0,0,2.3272,Pegmatite_rect,9,0,9,0,1,
663fab7c4193c77a18d5f5a5,SCR,2024-06-21_10h46.47.982,LearnStrategy,2023.2.3,Win32,243.902439,9,2,11,,,,,,,,3,14,,,,,,,,,,,,,3,0.833,1,,,,,,0.153703704,-0.264351852,1,0,0,0.833,Diorite_rect,10,0,10,0,1,
663fab7c4193c77a18d5f5a5,SCR,2024-06-21_10h46.47.982,LearnStrategy,2023.2.3,Win32,243.902439,9,2,12,,,,,,,,4,11,,,,,,,,,,,,,1,0.876,0,,,,,,-0.343981481,-0.234722222,1,0,0,0.8756,Andesite_rect,11,0,11,0,1,
663fab7c4193c77a18d5f5a5,SCR,2024-06-21_10h46.47.982,LearnStrategy,2023.2.3,Win32,243.902439,9,2,13,,,,,,,,8,02,,,,,,,,,,,,,8,1.053,1,,,,,,0.379166667,-0.421759259,1,0,0,1.0535,Pumice_rect,12,0,12,0,1,
663fab7c4193c77a18d5f5a5,SCR,2024-06-21_10h46.47.982,LearnStrategy,2023.2.3,Win32,243.902439,9,2,14,,,,,,,,3,02,,,,,,,,,,,,,3,1.152,1,,,,,,0.155555556,-0.231481481,1,0,0,1.1522,Diorite_rect,13,0,13,0,1,
663fab7c4193c77a18d5f5a5,SCR,2024-06-21_10h46.47.982,LearnStrategy,2023.2.3,Win32,243.902439,9,2,15,,,,,,,,2,11,,,,,,,,,,,,,2,3.651,1,,,,,,-0.116666667,-0.234259259,1,0,0,3.6509,Basalt_rect,14,0,14,0,1,
663fab7c4193c77a18d5f5a5,SCR,2024-06-21_10h46.47.982,LearnStrategy,2023.2.3,Win32,243.902439,9,2,16,,,,,,,,5,12,,,,,,,,,,,,,5,1.161,1,,,,,,-0.401851852,-0.402314815,1,0,0,1.1614,Obsidian_rect,15,0,15,0,1,
663fab7c4193c77a18d5f5a5,SCR,2024-06-21_10h46.47.982,LearnStrategy,2023.2.3,Win32,243.902439,,,,,,,,,,,,,,,,,,,,,,,,,,,,,,,,,,,,,,,,,,,,,1
663fab7c4193c77a18d5f5a5,SCR,2024-06-21_10h46.47.982,LearnStrategy,2023.2.3,Win32,243.902439,,,,,,,,,,,,,,,,,,,,,,,,,,,,,,,,,,,,,,,,,,,,,
663fab7c4193c77a18d5f5a5,SCR,2024-06-21_10h46.47.982,LearnStrategy,2023.2.3,Win32,243.902439,,,,,,,,,,,1,10,1,1,,,,,,,,,,,,,,,,,,,,,,,,,,,,,,,
663fab7c4193c77a18d5f5a5,SCR,2024-06-21_10h46.47.982,LearnStrategy,2023.2.3,Win32,243.902439,,,,,,,,,,,1,01,1,2,,,,,,,,,,,,,,,,,,,,,,,,,,,,,,,
663fab7c4193c77a18d5f5a5,SCR,2024-06-21_10h46.47.982,LearnStrategy,2023.2.3,Win32,243.902439,,,,,,,,,,,8,10,1,3,,,,,,,,,,,,,,,,,,,,,,,,,,,,,,,
663fab7c4193c77a18d5f5a5,SCR,2024-06-21_10h46.47.982,LearnStrategy,2023.2.3,Win32,243.902439,,,,,,,,,,,7,12,1,4,,,,,,,,,,,,,,,,,,,,,,,,,,,,,,,
663fab7c4193c77a18d5f5a5,SCR,2024-06-21_10h46.47.982,LearnStrategy,2023.2.3,Win32,243.902439,,,,,,,,,,,8,05,1,5,,,,,,,,,,,,,,,,,,,,,,,,,,,,,,,
663fab7c4193c77a18d5f5a5,SCR,2024-06-21_10h46.47.982,LearnStrategy,2023.2.3,Win32,243.902439,,,,,,,,,,,3,15,1,6,,,,,,,,,,,,,,,,,,,,,,,,,,,,,,,
663fab7c4193c77a18d5f5a5,SCR,2024-06-21_10h46.47.982,LearnStrategy,2023.2.3,Win32,243.902439,,,,,,,,,,,5,06,1,7,,,,,,,,,,,,,,,,,,,,,,,,,,,,,,,
663fab7c4193c77a18d5f5a5,SCR,2024-06-21_10h46.47.982,LearnStrategy,2023.2.3,Win32,243.902439,,,,,,,,,,,3,07,1,8,,,,,,,,,,,,,,,,,,,,,,,,,,,,,,,
663fab7c4193c77a18d5f5a5,SCR,2024-06-21_10h46.47.982,LearnStrategy,2023.2.3,Win32,243.902439,,,,,,,,,,,3,16,2,1,,,,,,,,,,,,,,,,,,,,,,,,,,,,,,,
663fab7c4193c77a18d5f5a5,SCR,2024-06-21_10h46.47.982,LearnStrategy,2023.2.3,Win32,243.902439,,,,,,,,,,,6,03,2,2,,,,,,,,,,,,,,,,,,,,,,,,,,,,,,,
663fab7c4193c77a18d5f5a5,SCR,2024-06-21_10h46.47.982,LearnStrategy,2023.2.3,Win32,243.902439,,,,,,,,,,,3,06,2,3,,,,,,,,,,,,,,,,,,,,,,,,,,,,,,,
663fab7c4193c77a18d5f5a5,SCR,2024-06-21_10h46.47.982,LearnStrategy,2023.2.3,Win32,243.902439,,,,,,,,,,,1,07,2,4,,,,,,,,,,,,,,,,,,,,,,,,,,,,,,,
663fab7c4193c77a18d5f5a5,SCR,2024-06-21_10h46.47.982,LearnStrategy,2023.2.3,Win32,243.902439,,,,,,,,,,,2,16,2,5,,,,,,,,,,,,,,,,,,,,,,,,,,,,,,,
663fab7c4193c77a18d5f5a5,SCR,2024-06-21_10h46.47.982,LearnStrategy,2023.2.3,Win32,243.902439,,,,,,,,,,,2,06,2,6,,,,,,,,,,,,,,,,,,,,,,,,,,,,,,,
663fab7c4193c77a18d5f5a5,SCR,2024-06-21_10h46.47.982,LearnStrategy,2023.2.3,Win32,243.902439,,,,,,,,,,,1,03,2,7,,,,,,,,,,,,,,,,,,,,,,,,,,,,,,,
663fab7c4193c77a18d5f5a5,SCR,2024-06-21_10h46.47.982,LearnStrategy,2023.2.3,Win32,243.902439,,,,,,,,,,,6,05,2,8,,,,,,,,,,,,,,,,,,,,,,,,,,,,,,,
663fab7c4193c77a18d5f5a5,SCR,2024-06-21_10h46.47.982,LearnStrategy,2023.2.3,Win32,243.902439,,,,,,,,,,,7,06,3,1,,,,,,,,,,,,,,,,,,,,,,,,,,,,,,,
663fab7c4193c77a18d5f5a5,SCR,2024-06-21_10h46.47.982,LearnStrategy,2023.2.3,Win32,243.902439,,,,,,,,,,,4,13,3,2,,,,,,,,,,,,,,,,,,,,,,,,,,,,,,,
663fab7c4193c77a18d5f5a5,SCR,2024-06-21_10h46.47.982,LearnStrategy,2023.2.3,Win32,243.902439,,,,,,,,,,,5,10,3,3,,,,,,,,,,,,,,,,,,,,,,,,,,,,,,,
663fab7c4193c77a18d5f5a5,SCR,2024-06-21_10h46.47.982,LearnStrategy,2023.2.3,Win32,243.902439,,,,,,,,,,,6,10,3,4,,,,,,,,,,,,,,,,,,,,,,,,,,,,,,,
663fab7c4193c77a18d5f5a5,SCR,2024-06-21_10h46.47.982,LearnStrategy,2023.2.3,Win32,243.902439,,,,,,,,,,,3,13,3,5,,,,,,,,,,,,,,,,,,,,,,,,,,,,,,,
663fab7c4193c77a18d5f5a5,SCR,2024-06-21_10h46.47.982,LearnStrategy,2023.2.3,Win32,243.902439,,,,,,,,,,,7,05,3,6,,,,,,,,,,,,,,,,,,,,,,,,,,,,,,,
663fab7c4193c77a18d5f5a5,SCR,2024-06-21_10h46.47.982,LearnStrategy,2023.2.3,Win32,243.902439,,,,,,,,,,,1,16,3,7,,,,,,,,,,,,,,,,,,,,,,,,,,,,,,,
663fab7c4193c77a18d5f5a5,SCR,2024-06-21_10h46.47.982,LearnStrategy,2023.2.3,Win32,243.902439,,,,,,,,,,,6,16,3,8,,,,,,,,,,,,,,,,,,,,,,,,,,,,,,,
663fab7c4193c77a18d5f5a5,SCR,2024-06-21_10h46.47.982,LearnStrategy,2023.2.3,Win32,243.902439,,,,,,,,,,,6,08,4,1,,,,,,,,,,,,,,,,,,,,,,,,,,,,,,,
663fab7c4193c77a18d5f5a5,SCR,2024-06-21_10h46.47.982,LearnStrategy,2023.2.3,Win32,243.902439,,,,,,,,,,,2,10,4,2,,,,,,,,,,,,,,,,,,,,,,,,,,,,,,,
663fab7c4193c77a18d5f5a5,SCR,2024-06-21_10h46.47.982,LearnStrategy,2023.2.3,Win32,243.902439,,,,,,,,,,,7,08,4,3,,,,,,,,,,,,,,,,,,,,,,,,,,,,,,,
663fab7c4193c77a18d5f5a5,SCR,2024-06-21_10h46.47.982,LearnStrategy,2023.2.3,Win32,243.902439,,,,,,,,,,,8,14,4,4,,,,,,,,,,,,,,,,,,,,,,,,,,,,,,,
663fab7c4193c77a18d5f5a5,SCR,2024-06-21_10h46.47.982,LearnStrategy,2023.2.3,Win32,243.902439,,,,,,,,,,,5,05,4,5,,,,,,,,,,,,,,,,,,,,,,,,,,,,,,,
663fab7c4193c77a18d5f5a5,SCR,2024-06-21_10h46.47.982,LearnStrategy,2023.2.3,Win32,243.902439,,,,,,,,,,,1,02,4,6,,,,,,,,,,,,,,,,,,,,,,,,,,,,,,,
663fab7c4193c77a18d5f5a5,SCR,2024-06-21_10h46.47.982,LearnStrategy,2023.2.3,Win32,243.902439,,,,,,,,,,,8,06,4,7,,,,,,,,,,,,,,,,,,,,,,,,,,,,,,,
663fab7c4193c77a18d5f5a5,SCR,2024-06-21_10h46.47.982,LearnStrategy,2023.2.3,Win32,243.902439,,,,,,,,,,,6,13,4,8,,,,,,,,,,,,,,,,,,,,,,,,,,,,,,,
663fab7c4193c77a18d5f5a5,SCR,2024-06-21_10h46.47.982,LearnStrategy,2023.2.3,Win32,243.902439,,,,,,,,,,,2,08,5,1,,,,,,,,,,,,,,,,,,,,,,,,,,,,,,,
663fab7c4193c77a18d5f5a5,SCR,2024-06-21_10h46.47.982,LearnStrategy,2023.2.3,Win32,243.902439,,,,,,,,,,,4,08,5,2,,,,,,,,,,,,,,,,,,,,,,,,,,,,,,,
663fab7c4193c77a18d5f5a5,SCR,2024-06-21_10h46.47.982,LearnStrategy,2023.2.3,Win32,243.902439,,,,,,,,,,,4,12,5,3,,,,,,,,,,,,,,,,,,,,,,,,,,,,,,,
663fab7c4193c77a18d5f5a5,SCR,2024-06-21_10h46.47.982,LearnStrategy,2023.2.3,Win32,243.902439,,,,,,,,,,,7,13,5,4,,,,,,,,,,,,,,,,,,,,,,,,,,,,,,,
663fab7c4193c77a18d5f5a5,SCR,2024-06-21_10h46.47.982,LearnStrategy,2023.2.3,Win32,243.902439,,,,,,,,,,,4,05,5,5,,,,,,,,,,,,,,,,,,,,,,,,,,,,,,,
663fab7c4193c77a18d5f5a5,SCR,2024-06-21_10h46.47.982,LearnStrategy,2023.2.3,Win32,243.902439,,,,,,,,,,,8,03,5,6,,,,,,,,,,,,,,,,,,,,,,,,,,,,,,,
663fab7c4193c77a18d5f5a5,SCR,2024-06-21_10h46.47.982,LearnStrategy,2023.2.3,Win32,243.902439,,,,,,,,,,,5,09,5,7,,,,,,,,,,,,,,,,,,,,,,,,,,,,,,,
663fab7c4193c77a18d5f5a5,SCR,2024-06-21_10h46.47.982,LearnStrategy,2023.2.3,Win32,243.902439,,,,,,,,,,,4,14,5,8,,,,,,,,,,,,,,,,,,,,,,,,,,,,,,,
663fab7c4193c77a18d5f5a5,SCR,2024-06-21_10h46.47.982,LearnStrategy,2023.2.3,Win32,243.902439,,,,,,,,,,,8,13,6,1,,,,,,,,,,,,,,,,,,,,,,,,,,,,,,,
663fab7c4193c77a18d5f5a5,SCR,2024-06-21_10h46.47.982,LearnStrategy,2023.2.3,Win32,243.902439,,,,,,,,,,,2,01,6,2,,,,,,,,,,,,,,,,,,,,,,,,,,,,,,,
663fab7c4193c77a18d5f5a5,SCR,2024-06-21_10h46.47.982,LearnStrategy,2023.2.3,Win32,243.902439,,,,,,,,,,,5,16,6,3,,,,,,,,,,,,,,,,,,,,,,,,,,,,,,,
663fab7c4193c77a18d5f5a5,SCR,2024-06-21_10h46.47.982,LearnStrategy,2023.2.3,Win32,243.902439,,,,,,,,,,,7,02,6,4,,,,,,,,,,,,,,,,,,,,,,,,,,,,,,,
663fab7c4193c77a18d5f5a5,SCR,2024-06-21_10h46.47.982,LearnStrategy,2023.2.3,Win32,243.902439,,,,,,,,,,,5,02,6,5,,,,,,,,,,,,,,,,,,,,,,,,,,,,,,,
663fab7c4193c77a18d5f5a5,SCR,2024-06-21_10h46.47.982,LearnStrategy,2023.2.3,Win32,243.902439,,,,,,,,,,,4,01,6,6,,,,,,,,,,,,,,,,,,,,,,,,,,,,,,,
663fab7c4193c77a18d5f5a5,SCR,2024-06-21_10h46.47.982,LearnStrategy,2023.2.3,Win32,243.902439,,,,,,,,,,,2,02,6,7,,,,,,,,,,,,,,,,,,,,,,,,,,,,,,,
663fab7c4193c77a18d5f5a5,SCR,2024-06-21_10h46.47.982,LearnStrategy,2023.2.3,Win32,243.902439,,,,,,,,,,,3,09,6,8,,,,,,,,,,,,,,,,,,,,,,,,,,,,,,,