participant,condition,date,expName,psychopyVersion,OS,frameRate,block,phase,trial,learn_mouse.x,learn_mouse.y,learn_mouse.leftButton,learn_mouse.midButton,learn_mouse.rightButton,learn_mouse.time,learn_mouse.clicked_name,cat,token,row,col,t_select,cat_mouse_l.x,cat_mouse_l.y,cat_mouse_l.leftButton,cat_mouse_l.midButton,cat_mouse_l.rightButton,cat_mouse_l.time,cat_mouse_l.clicked_name,resp,t_resp,corr,train_trials.thisRepN,train_trials.thisTrialN,train_trials.thisN,train_trials.thisIndex,train_trials.ran,cat_mouse_t.x,cat_mouse_t.y,cat_mouse_t.leftButton,cat_mouse_t.midButton,cat_mouse_t.rightButton,cat_mouse_t.time,cat_mouse_t.clicked_name,test_trials.thisRepN,test_trials.thisTrialN,test_trials.thisN,test_trials.thisIndex,test_trials.ran,Bonus
664287debe4750708ea0ecf7,SCN,2024-06-12_11h39.47.808,LearnStrategy,2023.2.3,Win32,58.82352941,,,,,,,,,,,,,,,,,,,,,,,,,,,,,,,,,,,,,,,,,,,
664287debe4750708ea0ecf7,SCN,2024-06-12_11h39.47.808,LearnStrategy,2023.2.3,Win32,58.82352941,1,1,1,0.256481524,-0.112963005,1,0,0,5.0194,Diorite_02,3,02,3,6,5.019,0.139814801,-0.393518519,1,0,0,9.7313,Peridotite_rect,7,9.731,0,0,0,0,0,1,,,,,,,,,,,,,
664287debe4750708ea0ecf7,SCN,2024-06-12_11h39.47.808,LearnStrategy,2023.2.3,Win32,58.82352941,1,1,2,-0.530555548,-0.102777764,1,0,0,1.6571,Obsidian_06,5,06,3,1,1.657,-0.419444437,-0.421296296,1,0,0,4.7915,Obsidian_rect,5,4.792,1,1,0,1,0,1,,,,,,,,,,,,,
664287debe4750708ea0ecf7,SCN,2024-06-12_11h39.47.808,LearnStrategy,2023.2.3,Win32,58.82352941,1,1,3,0.061111097,-0.281481496,1,0,0,2.7066,Peridotite_14,7,14,2,5,2.707,-0.110185199,-0.262037065,1,0,0,3.3367,Basalt_rect,2,3.337,0,2,0,2,0,1,,,,,,,,,,,,,
664287debe4750708ea0ecf7,SCN,2024-06-12_11h39.47.808,LearnStrategy,2023.2.3,Win32,58.82352941,1,1,4,-0.402777778,0.122222229,1,0,0,4.036,Pumice_09,8,09,4,2,4.036,0.42777775,-0.383333347,1,0,0,1.6937,Pumice_rect,8,1.694,1,3,0,3,0,1,,,,,,,,,,,,,
664287debe4750708ea0ecf7,SCN,2024-06-12_11h39.47.808,LearnStrategy,2023.2.3,Win32,58.82352941,1,1,5,-0.074999986,-0.410185213,1,0,0,4.7352,Basalt_08,2,08,1,4,4.735,-0.116666653,-0.260185171,1,0,0,1.5762,Basalt_rect,2,1.576,1,4,0,4,0,1,,,,,,,,,,,,,
664287debe4750708ea0ecf7,SCN,2024-06-12_11h39.47.808,LearnStrategy,2023.2.3,Win32,58.82352941,1,1,6,-0.544444437,0.118518511,1,0,0,1.9202,Pegmatite_10,6,10,4,1,1.92,-0.115740741,-0.404629672,1,0,0,8.4134,Pegmatite_rect,6,8.413,1,5,0,5,0,1,,,,,,,,,,,,,
664287debe4750708ea0ecf7,SCN,2024-06-12_11h39.47.808,LearnStrategy,2023.2.3,Win32,58.82352941,1,1,7,-0.046296296,0.259259259,1,0,0,3.2082,Obsidian_14,5,14,5,4,3.208,-0.443518497,-0.39444443,1,0,0,2.8654,Obsidian_rect,5,2.865,1,6,0,6,0,1,,,,,,,,,,,,,
664287debe4750708ea0ecf7,SCN,2024-06-12_11h39.47.808,LearnStrategy,2023.2.3,Win32,58.82352941,1,1,8,-0.22129631,-0.411111125,1,0,0,8.3629,Gabbro_12,4,12,1,3,8.363,-0.158333319,-0.265740783,1,0,0,2.2911,Basalt_rect,2,2.291,0,7,0,7,0,1,,,,,,,,,,,,,
664287debe4750708ea0ecf7,SCN,2024-06-12_11h39.47.808,LearnStrategy,2023.2.3,Win32,58.82352941,1,1,9,0.507407436,0.247222212,1,0,0,6.6882,Peridotite_12,7,12,5,8,6.688,-0.090740698,-0.416666667,1,0,0,4.7447,Pegmatite_rect,6,4.745,0,8,0,8,0,1,,,,,,,,,,,,,
664287debe4750708ea0ecf7,SCN,2024-06-12_11h39.47.808,LearnStrategy,2023.2.3,Win32,58.82352941,1,1,10,0.087962963,0.264814818,1,0,0,4.9379,Pumice_05,8,05,5,5,4.938,0.40370376,-0.39444443,1,0,0,1.3285,Pumice_rect,8,1.329,1,9,0,9,0,1,,,,,,,,,,,,,
664287debe4750708ea0ecf7,SCN,2024-06-12_11h39.47.808,LearnStrategy,2023.2.3,Win32,58.82352941,1,1,11,0.591666751,0.43611111,1,0,0,2.8213,Pegmatite_16,6,16,6,8,2.821,0.437037009,-0.262037065,1,0,0,6.8704,Gabbro_rect,4,6.87,0,10,0,10,0,1,,,,,,,,,,,,,
664287debe4750708ea0ecf7,SCN,2024-06-12_11h39.47.808,LearnStrategy,2023.2.3,Win32,58.82352941,1,1,12,-0.259259259,-0.263888889,1,0,0,6.3586,Pegmatite_08,6,08,2,3,6.359,-0.112962935,-0.411111125,1,0,0,2.3759,Pegmatite_rect,6,2.376,1,11,0,11,0,1,,,,,,,,,,,,,
664287debe4750708ea0ecf7,SCN,2024-06-12_11h39.47.808,LearnStrategy,2023.2.3,Win32,58.82352941,1,1,13,0.248148176,0.402777778,1,0,0,11.9378,Peridotite_04,7,04,6,6,11.938,0.131481524,-0.239814829,1,0,0,2.2148,Diorite_rect,3,2.215,0,12,0,12,0,1,,,,,,,,,,,,,
664287debe4750708ea0ecf7,SCN,2024-06-12_11h39.47.808,LearnStrategy,2023.2.3,Win32,58.82352941,1,1,14,0.395370342,0.26574073,1,0,0,7.5991,Basalt_10,2,10,5,7,7.599,-0.148148148,-0.234259288,1,0,0,2.1816,Basalt_rect,2,2.182,1,13,0,13,0,1,,,,,,,,,,,,,
664287debe4750708ea0ecf7,SCN,2024-06-12_11h39.47.808,LearnStrategy,2023.2.3,Win32,58.82352941,1,1,15,0.25,0.427777776,1,0,0,2.9936,Peridotite_04,7,04,6,6,2.994,0.083333333,-0.405555584,1,0,0,2.2531,Peridotite_rect,7,2.253,1,14,0,14,0,1,,,,,,,,,,,,,
664287debe4750708ea0ecf7,SCN,2024-06-12_11h39.47.808,LearnStrategy,2023.2.3,Win32,58.82352941,1,1,16,-0.3824074,-0.411111125,1,0,0,2.5268,Basalt_11,2,11,1,2,2.527,0.325000057,-0.385185171,1,0,0,1.4583,Pumice_rect,8,1.458,0,15,0,15,0,1,,,,,,,,,,,,,
664287debe4750708ea0ecf7,SCN,2024-06-12_11h39.47.808,LearnStrategy,2023.2.3,Win32,58.82352941,1,2,1,,,,,,,,2,16,,,,,,,,,,,2,19.974,1,,,,,,-0.12962963,-0.247222265,1,0,0,19.9742,Basalt_rect,0,0,0,0,1,
664287debe4750708ea0ecf7,SCN,2024-06-12_11h39.47.808,LearnStrategy,2023.2.3,Win32,58.82352941,1,2,2,,,,,,,,4,01,,,,,,,,,,,6,4.238,0,,,,,,-0.149999972,-0.409259302,1,0,0,4.2384,Pegmatite_rect,1,0,1,0,1,
664287debe4750708ea0ecf7,SCN,2024-06-12_11h39.47.808,LearnStrategy,2023.2.3,Win32,58.82352941,1,2,3,,,,,,,,6,07,,,,,,,,,,,7,7.389,0,,,,,,0.147222236,-0.397222236,1,0,0,7.3885,Peridotite_rect,2,0,2,0,1,
664287debe4750708ea0ecf7,SCN,2024-06-12_11h39.47.808,LearnStrategy,2023.2.3,Win32,58.82352941,1,2,4,,,,,,,,7,05,,,,,,,,,,,3,6.451,0,,,,,,0.191666709,-0.240740741,1,0,0,6.4514,Diorite_rect,3,0,3,0,1,
664287debe4750708ea0ecf7,SCN,2024-06-12_11h39.47.808,LearnStrategy,2023.2.3,Win32,58.82352941,1,2,5,,,,,,,,6,15,,,,,,,,,,,3,15.996,0,,,,,,0.209259245,-0.23055557,1,0,0,15.9961,Diorite_rect,4,0,4,0,1,
664287debe4750708ea0ecf7,SCN,2024-06-12_11h39.47.808,LearnStrategy,2023.2.3,Win32,58.82352941,1,2,6,,,,,,,,8,06,,,,,,,,,,,8,1.143,1,,,,,,0.350926011,-0.414814843,1,0,0,1.1427,Pumice_rect,5,0,5,0,1,
664287debe4750708ea0ecf7,SCN,2024-06-12_11h39.47.808,LearnStrategy,2023.2.3,Win32,58.82352941,1,2,7,,,,,,,,1,09,,,,,,,,,,,3,6.594,0,,,,,,0.074999986,-0.23055557,1,0,0,6.5936,Diorite_rect,6,0,6,0,1,
664287debe4750708ea0ecf7,SCN,2024-06-12_11h39.47.808,LearnStrategy,2023.2.3,Win32,58.82352941,1,2,8,,,,,,,,3,09,,,,,,,,,,,1,3.151,0,,,,,,-0.330555563,-0.262962977,1,0,0,3.151,Andesite_rect,7,0,7,0,1,
664287debe4750708ea0ecf7,SCN,2024-06-12_11h39.47.808,LearnStrategy,2023.2.3,Win32,58.82352941,1,2,9,,,,,,,,8,10,,,,,,,,,,,8,2.158,1,,,,,,0.349074046,-0.384259259,1,0,0,2.1575,Pumice_rect,8,0,8,0,1,
664287debe4750708ea0ecf7,SCN,2024-06-12_11h39.47.808,LearnStrategy,2023.2.3,Win32,58.82352941,1,2,10,,,,,,,,3,07,,,,,,,,,,,6,1.679,0,,,,,,-0.065740727,-0.412037037,1,0,0,1.6794,Pegmatite_rect,9,0,9,0,1,
664287debe4750708ea0ecf7,SCN,2024-06-12_11h39.47.808,LearnStrategy,2023.2.3,Win32,58.82352941,1,2,11,,,,,,,,5,12,,,,,,,,,,,5,1.345,1,,,,,,-0.336111104,-0.408333319,1,0,0,1.3453,Obsidian_rect,10,0,10,0,1,
664287debe4750708ea0ecf7,SCN,2024-06-12_11h39.47.808,LearnStrategy,2023.2.3,Win32,58.82352941,1,2,12,,,,,,,,2,09,,,,,,,,,,,2,2.672,1,,,,,,-0.140740712,-0.259259259,1,0,0,2.6721,Basalt_rect,11,0,11,0,1,
664287debe4750708ea0ecf7,SCN,2024-06-12_11h39.47.808,LearnStrategy,2023.2.3,Win32,58.82352941,1,2,13,,,,,,,,4,13,,,,,,,,,,,4,3.496,1,,,,,,0.475000028,-0.244444459,1,0,0,3.4961,Gabbro_rect,12,0,12,0,1,
664287debe4750708ea0ecf7,SCN,2024-06-12_11h39.47.808,LearnStrategy,2023.2.3,Win32,58.82352941,1,2,14,,,,,,,,5,09,,,,,,,,,,,5,1.487,1,,,,,,-0.380555541,-0.413888931,1,0,0,1.4873,Obsidian_rect,13,0,13,0,1,
664287debe4750708ea0ecf7,SCN,2024-06-12_11h39.47.808,LearnStrategy,2023.2.3,Win32,58.82352941,1,2,15,,,,,,,,1,04,,,,,,,,,,,6,1.714,0,,,,,,-0.166666667,-0.416666667,1,0,0,1.7144,Pegmatite_rect,14,0,14,0,1,
664287debe4750708ea0ecf7,SCN,2024-06-12_11h39.47.808,LearnStrategy,2023.2.3,Win32,58.82352941,1,2,16,,,,,,,,7,16,,,,,,,,,,,7,2.352,1,,,,,,0.061111097,-0.402777778,1,0,0,2.3522,Peridotite_rect,15,0,15,0,1,
664287debe4750708ea0ecf7,SCN,2024-06-12_11h39.47.808,LearnStrategy,2023.2.3,Win32,58.82352941,2,1,1,-0.229629587,0.083333333,1,0,0,4.575,Peridotite_15,7,15,4,3,4.575,-0.419444437,-0.236111111,1,0,0,3.5927,Andesite_rect,1,3.593,0,0,0,0,0,1,,,,,,,,,,,,,
664287debe4750708ea0ecf7,SCN,2024-06-12_11h39.47.808,LearnStrategy,2023.2.3,Win32,58.82352941,2,1,2,0.266666695,0.260185189,1,0,0,7.2523,Basalt_14,2,14,5,6,7.252,0.376851824,-0.401851866,1,0,0,3.6976,Pumice_rect,8,3.698,0,1,0,1,0,1,,,,,,,,,,,,,
664287debe4750708ea0ecf7,SCN,2024-06-12_11h39.47.808,LearnStrategy,2023.2.3,Win32,58.82352941,2,1,3,-0.362037023,0.094444452,1,0,0,2.2748,Pumice_09,8,09,4,2,2.275,0.381481453,-0.395370413,1,0,0,1.3478,Pumice_rect,8,1.348,1,2,0,2,0,1,,,,,,,,,,,,,
664287debe4750708ea0ecf7,SCN,2024-06-12_11h39.47.808,LearnStrategy,2023.2.3,Win32,58.82352941,2,1,4,0.232407393,0.431481481,1,0,0,1.9048,Peridotite_04,7,04,6,6,1.905,-0.092592593,-0.410185213,1,0,0,2.246,Pegmatite_rect,6,2.246,0,3,0,3,0,1,,,,,,,,,,,,,
664287debe4750708ea0ecf7,SCN,2024-06-12_11h39.47.808,LearnStrategy,2023.2.3,Win32,58.82352941,2,1,5,0.575000057,0.421296296,1,0,0,2.3868,Pegmatite_16,6,16,6,8,2.387,-0.326851845,-0.262037065,1,0,0,1.6592,Andesite_rect,1,1.659,0,4,0,4,0,1,,,,,,,,,,,,,
664287debe4750708ea0ecf7,SCN,2024-06-12_11h39.47.808,LearnStrategy,2023.2.3,Win32,58.82352941,2,1,6,-0.546296296,-0.423148191,1,0,0,2.9573,Diorite_16,3,16,1,1,2.957,0.392592677,-0.240740741,1,0,0,2.5304,Gabbro_rect,4,2.53,0,5,0,5,0,1,,,,,,,,,,,,,
664287debe4750708ea0ecf7,SCN,2024-06-12_11h39.47.808,LearnStrategy,2023.2.3,Win32,58.82352941,2,1,7,0.068518533,-0.098148134,1,0,0,1.3763,Pegmatite_12,6,12,3,5,1.376,0.159259302,-0.250925912,1,0,0,2.614,Diorite_rect,3,2.614,0,6,0,6,0,1,,,,,,,,,,,,,
664287debe4750708ea0ecf7,SCN,2024-06-12_11h39.47.808,LearnStrategy,2023.2.3,Win32,58.82352941,2,1,8,-0.062037009,0.388888889,1,0,0,4.8062,Pegmatite_13,6,13,6,4,4.806,-0.169444402,-0.400000042,1,0,0,1.8418,Pegmatite_rect,6,1.842,1,7,0,7,0,1,,,,,,,,,,,,,
664287debe4750708ea0ecf7,SCN,2024-06-12_11h39.47.808,LearnStrategy,2023.2.3,Win32,58.82352941,2,1,9,0.535185213,-0.25462963,1,0,0,1.8437,Andesite_16,1,16,2,8,1.844,0.163888931,-0.246296282,1,0,0,2.5985,Diorite_rect,3,2.599,0,8,0,8,0,1,,,,,,,,,,,,,
664287debe4750708ea0ecf7,SCN,2024-06-12_11h39.47.808,LearnStrategy,2023.2.3,Win32,58.82352941,2,1,10,-0.249074088,0.409259257,1,0,0,4.0575,Basalt_02,2,02,6,3,4.058,-0.134259259,-0.256481524,1,0,0,2.8615,Basalt_rect,2,2.861,1,9,0,9,0,1,,,,,,,,,,,,,
664287debe4750708ea0ecf7,SCN,2024-06-12_11h39.47.808,LearnStrategy,2023.2.3,Win32,58.82352941,2,1,11,0.396296325,-0.416666667,1,0,0,3.5769,Pumice_08,8,08,1,7,3.577,0.152777778,-0.25,1,0,0,2.5644,Diorite_rect,3,2.564,0,10,0,10,0,1,,,,,,,,,,,,,
664287debe4750708ea0ecf7,SCN,2024-06-12_11h39.47.808,LearnStrategy,2023.2.3,Win32,58.82352941,2,1,12,-0.05277775,-0.127777806,1,0,0,1.1712,Peridotite_07,7,07,3,4,1.171,0.061111097,-0.396296325,1,0,0,3.4982,Peridotite_rect,7,3.498,1,11,0,11,0,1,,,,,,,,,,,,,
664287debe4750708ea0ecf7,SCN,2024-06-12_11h39.47.808,LearnStrategy,2023.2.3,Win32,58.82352941,2,1,13,0.559259344,-0.113888917,1,0,0,2.011,Diorite_10,3,10,3,8,2.011,0.40370376,-0.256481524,1,0,0,3.1173,Gabbro_rect,4,3.117,0,12,0,12,0,1,,,,,,,,,,,,,
664287debe4750708ea0ecf7,SCN,2024-06-12_11h39.47.808,LearnStrategy,2023.2.3,Win32,58.82352941,2,1,14,0.255555541,-0.12037037,1,0,0,1.3426,Diorite_02,3,02,3,6,1.343,-0.150925884,-0.39444443,1,0,0,1.5933,Pegmatite_rect,6,1.593,0,13,0,13,0,1,,,,,,,,,,,,,
664287debe4750708ea0ecf7,SCN,2024-06-12_11h39.47.808,LearnStrategy,2023.2.3,Win32,58.82352941,2,1,15,-0.232407393,0.237037041,1,0,0,3.0601,Gabbro_05,4,05,5,3,3.06,0.154629672,-0.260185171,1,0,0,1.3042,Diorite_rect,3,1.304,0,14,0,14,0,1,,,,,,,,,,,,,
664287debe4750708ea0ecf7,SCN,2024-06-12_11h39.47.808,LearnStrategy,2023.2.3,Win32,58.82352941,2,1,16,-0.410185178,-0.246296282,1,0,0,1.5921,Obsidian_07,5,07,2,2,1.592,-0.381481489,-0.412037037,1,0,0,1.4982,Obsidian_rect,5,1.498,1,15,0,15,0,1,,,,,,,,,,,,,
664287debe4750708ea0ecf7,SCN,2024-06-12_11h39.47.808,LearnStrategy,2023.2.3,Win32,58.82352941,2,2,1,,,,,,,,3,14,,,,,,,,,,,6,4.345,0,,,,,,-0.080555527,-0.413888931,1,0,0,4.3453,Pegmatite_rect,0,0,0,0,1,
664287debe4750708ea0ecf7,SCN,2024-06-12_11h39.47.808,LearnStrategy,2023.2.3,Win32,58.82352941,2,2,2,,,,,,,,4,11,,,,,,,,,,,4,3.049,1,,,,,,0.487962935,-0.246296282,1,0,0,3.0486,Gabbro_rect,1,0,1,0,1,
664287debe4750708ea0ecf7,SCN,2024-06-12_11h39.47.808,LearnStrategy,2023.2.3,Win32,58.82352941,2,2,3,,,,,,,,2,05,,,,,,,,,,,2,2.57,1,,,,,,-0.147222236,-0.253703718,1,0,0,2.5703,Basalt_rect,2,0,2,0,1,
664287debe4750708ea0ecf7,SCN,2024-06-12_11h39.47.808,LearnStrategy,2023.2.3,Win32,58.82352941,2,2,4,,,,,,,,7,02,,,,,,,,,,,6,1.879,0,,,,,,-0.068518533,-0.390740783,1,0,0,1.8791,Pegmatite_rect,3,0,3,0,1,
664287debe4750708ea0ecf7,SCN,2024-06-12_11h39.47.808,LearnStrategy,2023.2.3,Win32,58.82352941,2,2,5,,,,,,,,8,16,,,,,,,,,,,8,2.52,1,,,,,,0.410185213,-0.389814801,1,0,0,2.5202,Pumice_rect,4,0,4,0,1,
664287debe4750708ea0ecf7,SCN,2024-06-12_11h39.47.808,LearnStrategy,2023.2.3,Win32,58.82352941,2,2,6,,,,,,,,6,05,,,,,,,,,,,7,1.971,0,,,,,,0.124074088,-0.390740783,1,0,0,1.9706,Peridotite_rect,5,0,5,0,1,
664287debe4750708ea0ecf7,SCN,2024-06-12_11h39.47.808,LearnStrategy,2023.2.3,Win32,58.82352941,2,2,7,,,,,,,,4,15,,,,,,,,,,,3,2.01,0,,,,,,0.151851866,-0.252777806,1,0,0,2.0104,Diorite_rect,6,0,6,0,1,
664287debe4750708ea0ecf7,SCN,2024-06-12_11h39.47.808,LearnStrategy,2023.2.3,Win32,58.82352941,2,2,8,,,,,,,,5,04,,,,,,,,,,,5,1.374,1,,,,,,-0.424074067,-0.397222236,1,0,0,1.3743,Obsidian_rect,7,0,7,0,1,
664287debe4750708ea0ecf7,SCN,2024-06-12_11h39.47.808,LearnStrategy,2023.2.3,Win32,58.82352941,2,2,9,,,,,,,,2,04,,,,,,,,,,,2,1.763,1,,,,,,-0.152777778,-0.24537037,1,0,0,1.7634,Basalt_rect,8,0,8,0,1,
664287debe4750708ea0ecf7,SCN,2024-06-12_11h39.47.808,LearnStrategy,2023.2.3,Win32,58.82352941,2,2,10,,,,,,,,6,06,,,,,,,,,,,1,2.578,0,,,,,,-0.363888882,-0.250925912,1,0,0,2.5784,Andesite_rect,9,0,9,0,1,
664287debe4750708ea0ecf7,SCN,2024-06-12_11h39.47.808,LearnStrategy,2023.2.3,Win32,58.82352941,2,2,11,,,,,,,,5,11,,,,,,,,,,,5,1.127,1,,,,,,-0.345370363,-0.396296325,1,0,0,1.1268,Obsidian_rect,10,0,10,0,1,
664287debe4750708ea0ecf7,SCN,2024-06-12_11h39.47.808,LearnStrategy,2023.2.3,Win32,58.82352941,2,2,12,,,,,,,,1,11,,,,,,,,,,,6,1.926,0,,,,,,-0.199999986,-0.410185213,1,0,0,1.9257,Pegmatite_rect,11,0,11,0,1,
664287debe4750708ea0ecf7,SCN,2024-06-12_11h39.47.808,LearnStrategy,2023.2.3,Win32,58.82352941,2,2,13,,,,,,,,7,13,,,,,,,,,,,3,4.5,0,,,,,,0.101851852,-0.267592607,1,0,0,4.4998,Diorite_rect,12,0,12,0,1,
664287debe4750708ea0ecf7,SCN,2024-06-12_11h39.47.808,LearnStrategy,2023.2.3,Win32,58.82352941,2,2,14,,,,,,,,3,13,,,,,,,,,,,7,6.155,0,,,,,,0.062962991,-0.397222236,1,0,0,6.1555,Peridotite_rect,13,0,13,0,1,
664287debe4750708ea0ecf7,SCN,2024-06-12_11h39.47.808,LearnStrategy,2023.2.3,Win32,58.82352941,2,2,15,,,,,,,,1,02,,,,,,,,,,,1,2.39,1,,,,,,-0.40370369,-0.257407436,1,0,0,2.3897,Andesite_rect,14,0,14,0,1,
664287debe4750708ea0ecf7,SCN,2024-06-12_11h39.47.808,LearnStrategy,2023.2.3,Win32,58.82352941,2,2,16,,,,,,,,8,04,,,,,,,,,,,8,7.141,1,,,,,,0.368518547,-0.409259302,1,0,0,7.1409,Pumice_rect,15,0,15,0,1,
664287debe4750708ea0ecf7,SCN,2024-06-12_11h39.47.808,LearnStrategy,2023.2.3,Win32,58.82352941,3,1,1,0.064814815,-0.086111104,1,0,0,1.9987,Pegmatite_12,6,12,3,5,1.999,0.12962963,-0.24537037,1,0,0,2.0195,Diorite_rect,3,2.019,0,0,0,0,0,1,,,,,,,,,,,,,
664287debe4750708ea0ecf7,SCN,2024-06-12_11h39.47.808,LearnStrategy,2023.2.3,Win32,58.82352941,3,1,2,-0.562962956,0.234259252,1,0,0,4.5576,Pegmatite_11,6,11,5,1,4.558,-0.095370328,-0.414814843,1,0,0,2.0795,Pegmatite_rect,6,2.08,1,1,0,1,0,1,,,,,,,,,,,,,
664287debe4750708ea0ecf7,SCN,2024-06-12_11h39.47.808,LearnStrategy,2023.2.3,Win32,58.82352941,3,1,3,0.092592593,-0.273148148,1,0,0,4.2196,Peridotite_14,7,14,2,5,4.22,-0.41111109,-0.241666653,1,0,0,2.1823,Andesite_rect,1,2.182,0,2,0,2,0,1,,,,,,,,,,,,,
664287debe4750708ea0ecf7,SCN,2024-06-12_11h39.47.808,LearnStrategy,2023.2.3,Win32,58.82352941,3,1,4,-0.554629608,-0.413888931,1,0,0,2.0439,Diorite_16,3,16,1,1,2.044,0.189814815,-0.415740755,1,0,0,4.2542,Peridotite_rect,7,4.254,0,3,0,3,0,1,,,,,,,,,,,,,
664287debe4750708ea0ecf7,SCN,2024-06-12_11h39.47.808,LearnStrategy,2023.2.3,Win32,58.82352941,3,1,5,0.416666667,-0.124074088,1,0,0,1.888,Gabbro_08,4,08,3,7,1.888,0.192592621,-0.246296282,1,0,0,3.9618,Diorite_rect,3,3.962,0,4,0,4,0,1,,,,,,,,,,,,,
664287debe4750708ea0ecf7,SCN,2024-06-12_11h39.47.808,LearnStrategy,2023.2.3,Win32,58.82352941,3,1,6,0.263888889,0.248148141,1,0,0,2.026,Basalt_14,2,14,5,6,2.026,0.14907406,-0.25462963,1,0,0,1.4927,Diorite_rect,3,1.493,0,5,0,5,0,1,,,,,,,,,,,,,
664287debe4750708ea0ecf7,SCN,2024-06-12_11h39.47.808,LearnStrategy,2023.2.3,Win32,58.82352941,3,1,7,-0.587037016,-0.253703718,1,0,0,2.5254,Pumice_15,8,15,2,1,2.525,0.109259288,-0.250925912,1,0,0,4.4142,Diorite_rect,3,4.414,0,6,0,6,0,1,,,,,,,,,,,,,
664287debe4750708ea0ecf7,SCN,2024-06-12_11h39.47.808,LearnStrategy,2023.2.3,Win32,58.82352941,3,1,8,0.544444473,-0.408333319,1,0,0,1.6091,Andesite_06,1,06,1,8,1.609,-0.113888847,-0.392592607,1,0,0,3.4409,Pegmatite_rect,6,3.441,0,7,0,7,0,1,,,,,,,,,,,,,
664287debe4750708ea0ecf7,SCN,2024-06-12_11h39.47.808,LearnStrategy,2023.2.3,Win32,58.82352941,3,1,9,0.587962963,-0.103703746,1,0,0,1.4892,Diorite_10,3,10,3,8,1.489,0.169444473,-0.264814801,1,0,0,2.0615,Diorite_rect,3,2.062,1,8,0,8,0,1,,,,,,,,,,,,,
664287debe4750708ea0ecf7,SCN,2024-06-12_11h39.47.808,LearnStrategy,2023.2.3,Win32,58.82352941,3,1,10,0.068518533,0.087962963,1,0,0,6.6831,Diorite_06,3,06,4,5,6.683,-0.121296282,-0.389814801,1,0,0,4.0705,Pegmatite_rect,6,4.07,0,9,0,9,0,1,,,,,,,,,,,,,
664287debe4750708ea0ecf7,SCN,2024-06-12_11h39.47.808,LearnStrategy,2023.2.3,Win32,58.82352941,3,1,11,0.582407492,0.106481481,1,0,0,3.0009,Pumice_02,8,02,4,8,3.001,0.4898149,-0.378703718,1,0,0,1.1377,Pumice_rect,8,1.138,1,10,0,10,0,1,,,,,,,,,,,,,
664287debe4750708ea0ecf7,SCN,2024-06-12_11h39.47.808,LearnStrategy,2023.2.3,Win32,58.82352941,3,1,12,-0.112962935,0.410185187,1,0,0,2.7942,Pegmatite_13,6,13,6,4,2.794,-0.17777775,-0.40370369,1,0,0,1.9029,Pegmatite_rect,6,1.903,1,11,0,11,0,1,,,,,,,,,,,,,
664287debe4750708ea0ecf7,SCN,2024-06-12_11h39.47.808,LearnStrategy,2023.2.3,Win32,58.82352941,3,1,13,-0.39166666,-0.239814829,1,0,0,4.4612,Obsidian_07,5,07,2,2,4.461,-0.405555548,-0.419444473,1,0,0,0.9841,Obsidian_rect,5,0.984,1,12,0,12,0,1,,,,,,,,,,,,,
664287debe4750708ea0ecf7,SCN,2024-06-12_11h39.47.808,LearnStrategy,2023.2.3,Win32,58.82352941,3,1,14,0.40833339,-0.25,1,0,0,2.9739,Diorite_12,3,12,2,7,2.974,0.18240745,-0.251851894,1,0,0,3.8824,Diorite_rect,3,3.882,1,13,0,13,0,1,,,,,,,,,,,,,
664287debe4750708ea0ecf7,SCN,2024-06-12_11h39.47.808,LearnStrategy,2023.2.3,Win32,58.82352941,3,1,15,-0.267592607,0.44722222,1,0,0,4.272,Basalt_02,2,02,6,3,4.272,0.502777806,-0.249074088,1,0,0,4.0292,Gabbro_rect,4,4.029,0,14,0,14,0,1,,,,,,,,,,,,,
664287debe4750708ea0ecf7,SCN,2024-06-12_11h39.47.808,LearnStrategy,2023.2.3,Win32,58.82352941,3,1,16,-0.213888875,0.112037023,1,0,0,3.9898,Peridotite_15,7,15,4,3,3.99,-0.056481467,-0.400000042,1,0,0,3.1507,Pegmatite_rect,6,3.151,0,15,0,15,0,1,,,,,,,,,,,,,
664287debe4750708ea0ecf7,SCN,2024-06-12_11h39.47.808,LearnStrategy,2023.2.3,Win32,58.82352941,3,2,1,,,,,,,,6,03,,,,,,,,,,,7,3.141,0,,,,,,0.119444459,-0.385185171,1,0,0,3.1407,Peridotite_rect,0,0,0,0,1,
664287debe4750708ea0ecf7,SCN,2024-06-12_11h39.47.808,LearnStrategy,2023.2.3,Win32,58.82352941,3,2,2,,,,,,,,8,13,,,,,,,,,,,3,7.254,0,,,,,,0.143518519,-0.233333376,1,0,0,7.2535,Diorite_rect,1,0,1,0,1,
664287debe4750708ea0ecf7,SCN,2024-06-12_11h39.47.808,LearnStrategy,2023.2.3,Win32,58.82352941,3,2,3,,,,,,,,7,10,,,,,,,,,,,3,3.481,0,,,,,,0.124074088,-0.238888917,1,0,0,3.4809,Diorite_rect,2,0,2,0,1,
664287debe4750708ea0ecf7,SCN,2024-06-12_11h39.47.808,LearnStrategy,2023.2.3,Win32,58.82352941,3,2,4,,,,,,,,1,14,,,,,,,,,,,6,7.51,0,,,,,,-0.089814787,-0.414814843,1,0,0,7.5097,Pegmatite_rect,3,0,3,0,1,
664287debe4750708ea0ecf7,SCN,2024-06-12_11h39.47.808,LearnStrategy,2023.2.3,Win32,58.82352941,3,2,5,,,,,,,,4,09,,,,,,,,,,,2,2.889,0,,,,,,-0.087962963,-0.255555541,1,0,0,2.8891,Basalt_rect,4,0,4,0,1,
664287debe4750708ea0ecf7,SCN,2024-06-12_11h39.47.808,LearnStrategy,2023.2.3,Win32,58.82352941,3,2,6,,,,,,,,3,08,,,,,,,,,,,6,1.227,0,,,,,,-0.112962935,-0.391666695,1,0,0,1.227,Pegmatite_rect,5,0,5,0,1,
664287debe4750708ea0ecf7,SCN,2024-06-12_11h39.47.808,LearnStrategy,2023.2.3,Win32,58.82352941,3,2,7,,,,,,,,7,06,,,,,,,,,,,6,0.96,0,,,,,,-0.112962935,-0.391666695,1,0,0,0.9598,Pegmatite_rect,6,0,6,0,1,
664287debe4750708ea0ecf7,SCN,2024-06-12_11h39.47.808,LearnStrategy,2023.2.3,Win32,58.82352941,3,2,8,,,,,,,,4,03,,,,,,,,,,,4,3.952,1,,,,,,0.401851937,-0.250925912,1,0,0,3.9517,Gabbro_rect,7,0,7,0,1,
664287debe4750708ea0ecf7,SCN,2024-06-12_11h39.47.808,LearnStrategy,2023.2.3,Win32,58.82352941,3,2,9,,,,,,,,2,12,,,,,,,,,,,8,0.879,0,,,,,,0.421296296,-0.389814801,1,0,0,0.8793,Pumice_rect,8,0,8,0,1,
664287debe4750708ea0ecf7,SCN,2024-06-12_11h39.47.808,LearnStrategy,2023.2.3,Win32,58.82352941,3,2,10,,,,,,,,1,03,,,,,,,,,,,1,5.991,1,,,,,,-0.37037037,-0.251851894,1,0,0,5.9914,Andesite_rect,9,0,9,0,1,
664287debe4750708ea0ecf7,SCN,2024-06-12_11h39.47.808,LearnStrategy,2023.2.3,Win32,58.82352941,3,2,11,,,,,,,,2,01,,,,,,,,,,,2,1.455,1,,,,,,-0.199074074,-0.239814829,1,0,0,1.4554,Basalt_rect,10,0,10,0,1,
664287debe4750708ea0ecf7,SCN,2024-06-12_11h39.47.808,LearnStrategy,2023.2.3,Win32,58.82352941,3,2,12,,,,,,,,3,15,,,,,,,,,,,6,2.186,0,,,,,,-0.130555541,-0.407407407,1,0,0,2.1858,Pegmatite_rect,11,0,11,0,1,
664287debe4750708ea0ecf7,SCN,2024-06-12_11h39.47.808,LearnStrategy,2023.2.3,Win32,58.82352941,3,2,13,,,,,,,,5,16,,,,,,,,,,,5,1.159,1,,,,,,-0.347222222,-0.402777778,1,0,0,1.1593,Obsidian_rect,12,0,12,0,1,
664287debe4750708ea0ecf7,SCN,2024-06-12_11h39.47.808,LearnStrategy,2023.2.3,Win32,58.82352941,3,2,14,,,,,,,,8,03,,,,,,,,,,,8,1.858,1,,,,,,0.385185242,-0.396296325,1,0,0,1.8578,Pumice_rect,13,0,13,0,1,
664287debe4750708ea0ecf7,SCN,2024-06-12_11h39.47.808,LearnStrategy,2023.2.3,Win32,58.82352941,3,2,15,,,,,,,,6,09,,,,,,,,,,,6,2.977,1,,,,,,-0.09629631,-0.39907406,1,0,0,2.9771,Pegmatite_rect,14,0,14,0,1,
664287debe4750708ea0ecf7,SCN,2024-06-12_11h39.47.808,LearnStrategy,2023.2.3,Win32,58.82352941,3,2,16,,,,,,,,5,05,,,,,,,,,,,5,1.327,1,,,,,,-0.342592593,-0.401851866,1,0,0,1.327,Obsidian_rect,15,0,15,0,1,
664287debe4750708ea0ecf7,SCN,2024-06-12_11h39.47.808,LearnStrategy,2023.2.3,Win32,58.82352941,4,1,1,-0.552777785,0.429629631,1,0,0,1.859,Andesite_07,1,07,6,1,1.859,0.168518561,-0.24537037,1,0,0,2.3498,Diorite_rect,3,2.35,0,0,0,0,0,1,,,,,,,,,,,,,
664287debe4750708ea0ecf7,SCN,2024-06-12_11h39.47.808,LearnStrategy,2023.2.3,Win32,58.82352941,4,1,2,-0.368518511,0.446296295,1,0,0,1.0575,Gabbro_16,4,16,6,2,1.057,-0.076851809,-0.261111153,1,0,0,3.2551,Basalt_rect,2,3.255,0,1,0,1,0,1,,,,,,,,,,,,,
664287debe4750708ea0ecf7,SCN,2024-06-12_11h39.47.808,LearnStrategy,2023.2.3,Win32,58.82352941,4,1,3,-0.239814829,0.410185187,1,0,0,0.7596,Basalt_02,2,02,6,3,0.76,-0.086111069,-0.251851894,1,0,0,2.3631,Basalt_rect,2,2.363,1,2,0,2,0,1,,,,,,,,,,,,,
664287debe4750708ea0ecf7,SCN,2024-06-12_11h39.47.808,LearnStrategy,2023.2.3,Win32,58.82352941,4,1,4,-0.054629644,0.394444439,1,0,0,0.8899,Pegmatite_13,6,13,6,4,0.89,-0.134259259,-0.39444443,1,0,0,2.2574,Pegmatite_rect,6,2.257,1,3,0,3,0,1,,,,,,,,,,,,,
664287debe4750708ea0ecf7,SCN,2024-06-12_11h39.47.808,LearnStrategy,2023.2.3,Win32,58.82352941,4,1,5,0.097222222,0.427777776,1,0,0,1.226,Pumice_14,8,14,6,5,1.226,0.35555564,-0.420370384,1,0,0,1.0381,Pumice_rect,8,1.038,1,4,0,4,0,1,,,,,,,,,,,,,
664287debe4750708ea0ecf7,SCN,2024-06-12_11h39.47.808,LearnStrategy,2023.2.3,Win32,58.82352941,4,1,6,0.261111153,0.412037037,1,0,0,1.3246,Peridotite_04,7,04,6,6,1.325,-0.12962963,-0.413888931,1,0,0,3.1558,Pegmatite_rect,6,3.156,0,5,0,5,0,1,,,,,,,,,,,,,
664287debe4750708ea0ecf7,SCN,2024-06-12_11h39.47.808,LearnStrategy,2023.2.3,Win32,58.82352941,4,1,7,0.42314812,0.432407406,1,0,0,1.2093,Diorite_11,3,11,6,7,1.209,-0.339814822,-0.241666653,1,0,0,2.7562,Andesite_rect,1,2.756,0,6,0,6,0,1,,,,,,,,,,,,,
664287debe4750708ea0ecf7,SCN,2024-06-12_11h39.47.808,LearnStrategy,2023.2.3,Win32,58.82352941,4,1,8,0.594444416,0.411111108,1,0,0,1.4121,Pegmatite_16,6,16,6,8,1.412,-0.317592586,-0.265740783,1,0,0,7.9955,Andesite_rect,1,7.995,0,7,0,7,0,1,,,,,,,,,,,,,
664287debe4750708ea0ecf7,SCN,2024-06-12_11h39.47.808,LearnStrategy,2023.2.3,Win32,58.82352941,4,1,9,-0.521296289,0.256481471,1,0,0,1.2942,Pegmatite_11,6,11,5,1,1.294,0.145370413,-0.263888889,1,0,0,2.1995,Diorite_rect,3,2.199,0,8,0,8,0,1,,,,,,,,,,,,,
664287debe4750708ea0ecf7,SCN,2024-06-12_11h39.47.808,LearnStrategy,2023.2.3,Win32,58.82352941,4,1,10,-0.409259266,0.278703707,1,0,0,1.1061,Obsidian_08,5,08,5,2,1.106,-0.39444443,-0.404629672,1,0,0,0.9156,Obsidian_rect,5,0.916,1,9,0,9,0,1,,,,,,,,,,,,,
664287debe4750708ea0ecf7,SCN,2024-06-12_11h39.47.808,LearnStrategy,2023.2.3,Win32,58.82352941,4,1,11,-0.206481439,0.25,1,0,0,0.8757,Gabbro_05,4,05,5,3,0.876,0.172222208,-0.249074088,1,0,0,8.3193,Diorite_rect,3,8.319,0,10,0,10,0,1,,,,,,,,,,,,,
664287debe4750708ea0ecf7,SCN,2024-06-12_11h39.47.808,LearnStrategy,2023.2.3,Win32,58.82352941,4,1,12,-0.090740698,0.255555559,1,0,0,1.6419,Obsidian_14,5,14,5,4,1.642,-0.357407393,-0.411111125,1,0,0,1.3545,Obsidian_rect,5,1.355,1,11,0,11,0,1,,,,,,,,,,,,,
664287debe4750708ea0ecf7,SCN,2024-06-12_11h39.47.808,LearnStrategy,2023.2.3,Win32,58.82352941,4,1,13,0.262037065,0.25833333,1,0,0,1.5919,Basalt_14,2,14,5,6,1.592,0.392592677,-0.234259288,1,0,0,2.1399,Gabbro_rect,4,2.14,0,12,0,12,0,1,,,,,,,,,,,,,
664287debe4750708ea0ecf7,SCN,2024-06-12_11h39.47.808,LearnStrategy,2023.2.3,Win32,58.82352941,4,1,14,0.214814857,0.080555563,1,0,0,2.5101,Basalt_06,2,06,4,6,2.51,-0.110185199,-0.25,1,0,0,1.8448,Basalt_rect,2,1.845,1,13,0,13,0,1,,,,,,,,,,,,,
664287debe4750708ea0ecf7,SCN,2024-06-12_11h39.47.808,LearnStrategy,2023.2.3,Win32,58.82352941,4,1,15,-0.055555556,-0.23055557,1,0,0,2.3581,Peridotite_08,7,08,2,4,2.358,0.188888903,-0.392592607,1,0,0,5.0543,Peridotite_rect,7,5.054,1,14,0,14,0,1,,,,,,,,,,,,,
664287debe4750708ea0ecf7,SCN,2024-06-12_11h39.47.808,LearnStrategy,2023.2.3,Win32,58.82352941,4,1,16,0.212037051,-0.288888931,1,0,0,1.9751,Andesite_01,1,01,2,6,1.975,0.137962977,-0.252777806,1,0,0,4.0612,Diorite_rect,3,4.061,0,15,0,15,0,1,,,,,,,,,,,,,
664287debe4750708ea0ecf7,SCN,2024-06-12_11h39.47.808,LearnStrategy,2023.2.3,Win32,58.82352941,4,2,1,,,,,,,,8,03,,,,,,,,,,,8,3.468,1,,,,,,0.377777806,-0.400000042,1,0,0,3.4684,Pumice_rect,0,0,0,0,1,
664287debe4750708ea0ecf7,SCN,2024-06-12_11h39.47.808,LearnStrategy,2023.2.3,Win32,58.82352941,4,2,2,,,,,,,,6,05,,,,,,,,,,,4,12.31,0,,,,,,0.435185185,-0.237037023,1,0,0,12.3097,Gabbro_rect,1,0,1,0,1,
664287debe4750708ea0ecf7,SCN,2024-06-12_11h39.47.808,LearnStrategy,2023.2.3,Win32,58.82352941,4,2,3,,,,,,,,8,06,,,,,,,,,,,8,1.264,1,,,,,,0.399999972,-0.397222236,1,0,0,1.2636,Pumice_rect,2,0,2,0,1,
664287debe4750708ea0ecf7,SCN,2024-06-12_11h39.47.808,LearnStrategy,2023.2.3,Win32,58.82352941,4,2,4,,,,,,,,4,09,,,,,,,,,,,7,5.424,0,,,,,,0.110185199,-0.389814801,1,0,0,5.4241,Peridotite_rect,3,0,3,0,1,
664287debe4750708ea0ecf7,SCN,2024-06-12_11h39.47.808,LearnStrategy,2023.2.3,Win32,58.82352941,4,2,5,,,,,,,,1,14,,,,,,,,,,,3,10.866,0,,,,,,0.145370413,-0.250925912,1,0,0,10.8664,Diorite_rect,4,0,4,0,1,
664287debe4750708ea0ecf7,SCN,2024-06-12_11h39.47.808,LearnStrategy,2023.2.3,Win32,58.82352941,4,2,6,,,,,,,,6,15,,,,,,,,,,,5,2.24,0,,,,,,-0.433333326,-0.415740755,1,0,0,2.2404,Obsidian_rect,5,0,5,0,1,
664287debe4750708ea0ecf7,SCN,2024-06-12_11h39.47.808,LearnStrategy,2023.2.3,Win32,58.82352941,4,2,7,,,,,,,,2,05,,,,,,,,,,,2,1.566,1,,,,,,-0.214814787,-0.262962977,1,0,0,1.5656,Basalt_rect,6,0,6,0,1,
664287debe4750708ea0ecf7,SCN,2024-06-12_11h39.47.808,LearnStrategy,2023.2.3,Win32,58.82352941,4,2,8,,,,,,,,3,13,,,,,,,,,,,6,1.86,0,,,,,,-0.159259231,-0.397222236,1,0,0,1.8604,Pegmatite_rect,7,0,7,0,1,
664287debe4750708ea0ecf7,SCN,2024-06-12_11h39.47.808,LearnStrategy,2023.2.3,Win32,58.82352941,4,2,9,,,,,,,,5,05,,,,,,,,,,,5,1.387,1,,,,,,-0.324074074,-0.406481496,1,0,0,1.3866,Obsidian_rect,8,0,8,0,1,
664287debe4750708ea0ecf7,SCN,2024-06-12_11h39.47.808,LearnStrategy,2023.2.3,Win32,58.82352941,4,2,10,,,,,,,,4,03,,,,,,,,,,,6,3.478,0,,,,,,-0.093518504,-0.412037037,1,0,0,3.4778,Pegmatite_rect,9,0,9,0,1,
664287debe4750708ea0ecf7,SCN,2024-06-12_11h39.47.808,LearnStrategy,2023.2.3,Win32,58.82352941,4,2,11,,,,,,,,7,16,,,,,,,,,,,7,3.49,1,,,,,,0.103703746,-0.396296325,1,0,0,3.4904,Peridotite_rect,10,0,10,0,1,
664287debe4750708ea0ecf7,SCN,2024-06-12_11h39.47.808,LearnStrategy,2023.2.3,Win32,58.82352941,4,2,12,,,,,,,,7,05,,,,,,,,,,,4,3.558,0,,,,,,0.325925898,-0.23055557,1,0,0,3.5584,Gabbro_rect,11,0,11,0,1,
664287debe4750708ea0ecf7,SCN,2024-06-12_11h39.47.808,LearnStrategy,2023.2.3,Win32,58.82352941,4,2,13,,,,,,,,3,08,,,,,,,,,,,7,4.671,0,,,,,,0.123148176,-0.396296325,1,0,0,4.6715,Peridotite_rect,12,0,12,0,1,
664287debe4750708ea0ecf7,SCN,2024-06-12_11h39.47.808,LearnStrategy,2023.2.3,Win32,58.82352941,4,2,14,,,,,,,,2,12,,,,,,,,,,,3,2.029,0,,,,,,0.110185199,-0.257407436,1,0,0,2.0285,Diorite_rect,13,0,13,0,1,
664287debe4750708ea0ecf7,SCN,2024-06-12_11h39.47.808,LearnStrategy,2023.2.3,Win32,58.82352941,4,2,15,,,,,,,,5,12,,,,,,,,,,,5,1.293,1,,,,,,-0.402777778,-0.409259302,1,0,0,1.2929,Obsidian_rect,14,0,14,0,1,
664287debe4750708ea0ecf7,SCN,2024-06-12_11h39.47.808,LearnStrategy,2023.2.3,Win32,58.82352941,4,2,16,,,,,,,,1,02,,,,,,,,,,,3,5.331,0,,,,,,0.066666709,-0.252777806,1,0,0,5.3311,Diorite_rect,15,0,15,0,1,
664287debe4750708ea0ecf7,SCN,2024-06-12_11h39.47.808,LearnStrategy,2023.2.3,Win32,58.82352941,5,1,1,-0.393518519,-0.112037023,1,0,0,4.7245,Andesite_05,1,05,3,2,4.725,0.089814857,-0.259259259,1,0,0,3.487,Diorite_rect,3,3.487,0,0,0,0,0,1,,,,,,,,,,,,,
664287debe4750708ea0ecf7,SCN,2024-06-12_11h39.47.808,LearnStrategy,2023.2.3,Win32,58.82352941,5,1,2,0.380555612,-0.26944443,1,0,0,3.4223,Diorite_12,3,12,2,7,3.422,0.167592578,-0.256481524,1,0,0,2.2578,Diorite_rect,3,2.258,1,1,0,1,0,1,,,,,,,,,,,,,
664287debe4750708ea0ecf7,SCN,2024-06-12_11h39.47.808,LearnStrategy,2023.2.3,Win32,58.82352941,5,1,3,0.385185242,-0.460185228,1,0,0,1.5709,Pumice_08,8,08,1,7,1.571,0.204629616,-0.271296325,1,0,0,4.4297,Diorite_rect,3,4.43,0,2,0,2,0,1,,,,,,,,,,,,,
664287debe4750708ea0ecf7,SCN,2024-06-12_11h39.47.808,LearnStrategy,2023.2.3,Win32,58.82352941,5,1,4,-0.537037037,0.098148134,1,0,0,4.1722,Pegmatite_10,6,10,4,1,4.172,-0.140740712,-0.405555584,1,0,0,2.0572,Pegmatite_rect,6,2.057,1,3,0,3,0,1,,,,,,,,,,,,,
664287debe4750708ea0ecf7,SCN,2024-06-12_11h39.47.808,LearnStrategy,2023.2.3,Win32,58.82352941,5,1,5,0.089814857,0.240740741,1,0,0,5.8558,Pumice_05,8,05,5,5,5.856,0.381481453,-0.396296325,1,0,0,1.3029,Pumice_rect,8,1.303,1,4,0,4,0,1,,,,,,,,,,,,,
664287debe4750708ea0ecf7,SCN,2024-06-12_11h39.47.808,LearnStrategy,2023.2.3,Win32,58.82352941,5,1,6,-0.539814808,0.2537037,1,0,0,3.8593,Pegmatite_11,6,11,5,1,3.859,0.112037023,-0.247222265,1,0,0,3.8678,Diorite_rect,3,3.868,0,5,0,5,0,1,,,,,,,,,,,,,
664287debe4750708ea0ecf7,SCN,2024-06-12_11h39.47.808,LearnStrategy,2023.2.3,Win32,58.82352941,5,1,7,0.553703732,0.418518517,1,0,0,2.6583,Pegmatite_16,6,16,6,8,2.658,-0.069444444,-0.401851866,1,0,0,1.6196,Pegmatite_rect,6,1.62,1,6,0,6,0,1,,,,,,,,,,,,,
664287debe4750708ea0ecf7,SCN,2024-06-12_11h39.47.808,LearnStrategy,2023.2.3,Win32,58.82352941,5,1,8,-0.360185164,-0.08425928,1,0,0,2.2934,Andesite_05,1,05,3,2,2.293,0.439814815,-0.262037065,1,0,0,5.5384,Gabbro_rect,4,5.538,0,7,0,7,0,1,,,,,,,,,,,,,
664287debe4750708ea0ecf7,SCN,2024-06-12_11h39.47.808,LearnStrategy,2023.2.3,Win32,58.82352941,5,1,9,-0.517592571,-0.417592578,1,0,0,3.3198,Diorite_16,3,16,1,1,3.32,-0.467592593,-0.264814801,1,0,0,1.3866,Andesite_rect,1,1.387,0,8,0,8,0,1,,,,,,,,,,,,,
664287debe4750708ea0ecf7,SCN,2024-06-12_11h39.47.808,LearnStrategy,2023.2.3,Win32,58.82352941,5,1,10,-0.247222194,0.233333323,1,0,0,3.691,Gabbro_05,4,05,5,3,3.691,0.350000028,-0.243518547,1,0,0,5.26,Gabbro_rect,4,5.26,1,9,0,9,0,1,,,,,,,,,,,,,
664287debe4750708ea0ecf7,SCN,2024-06-12_11h39.47.808,LearnStrategy,2023.2.3,Win32,58.82352941,5,1,11,0.587037122,0.115740741,1,0,0,1.0108,Pumice_02,8,02,4,8,1.011,0.443518603,-0.390740783,1,0,0,0.9917,Pumice_rect,8,0.992,1,10,0,10,0,1,,,,,,,,,,,,,
664287debe4750708ea0ecf7,SCN,2024-06-12_11h39.47.808,LearnStrategy,2023.2.3,Win32,58.82352941,5,1,12,-0.10092594,0.412037037,1,0,0,4.108,Pegmatite_13,6,13,6,4,4.108,-0.093518504,-0.395370413,1,0,0,1.8233,Pegmatite_rect,6,1.823,1,11,0,11,0,1,,,,,,,,,,,,,
664287debe4750708ea0ecf7,SCN,2024-06-12_11h39.47.808,LearnStrategy,2023.2.3,Win32,58.82352941,5,1,13,0.09629631,-0.268518519,1,0,0,3.3211,Peridotite_14,7,14,2,5,3.321,0.341666751,-0.247222265,1,0,0,8.5587,Gabbro_rect,4,8.559,0,12,0,12,0,1,,,,,,,,,,,,,
664287debe4750708ea0ecf7,SCN,2024-06-12_11h39.47.808,LearnStrategy,2023.2.3,Win32,58.82352941,5,1,14,0.406481566,-0.110185199,1,0,0,21.1587,Gabbro_08,4,08,3,7,21.159,0.42777775,-0.247222265,1,0,0,5.4698,Gabbro_rect,4,5.47,1,13,0,13,0,1,,,,,,,,,,,,,
664287debe4750708ea0ecf7,SCN,2024-06-12_11h39.47.808,LearnStrategy,2023.2.3,Win32,58.82352941,5,1,15,-0.078703704,-0.257407436,1,0,0,4.2733,Peridotite_08,7,08,2,4,4.273,-0.336111104,-0.267592607,1,0,0,4.3493,Andesite_rect,1,4.349,0,14,0,14,0,1,,,,,,,,,,,,,
664287debe4750708ea0ecf7,SCN,2024-06-12_11h39.47.808,LearnStrategy,2023.2.3,Win32,58.82352941,5,1,16,0.575000057,-0.400925954,1,0,0,1.8094,Andesite_06,1,06,1,8,1.809,0.116666653,-0.411111125,1,0,0,1.4804,Peridotite_rect,7,1.48,0,15,0,15,0,1,,,,,,,,,,,,,
664287debe4750708ea0ecf7,SCN,2024-06-12_11h39.47.808,LearnStrategy,2023.2.3,Win32,58.82352941,5,2,1,,,,,,,,6,06,,,,,,,,,,,7,3.752,0,,,,,,0.156481496,-0.407407407,1,0,0,3.752,Peridotite_rect,0,0,0,0,1,
664287debe4750708ea0ecf7,SCN,2024-06-12_11h39.47.808,LearnStrategy,2023.2.3,Win32,58.82352941,5,2,2,,,,,,,,3,14,,,,,,,,,,,1,1.98,0,,,,,,-0.396296289,-0.248148176,1,0,0,1.9802,Andesite_rect,1,0,1,0,1,
664287debe4750708ea0ecf7,SCN,2024-06-12_11h39.47.808,LearnStrategy,2023.2.3,Win32,58.82352941,5,2,3,,,,,,,,8,16,,,,,,,,,,,8,1.672,1,,,,,,0.344444416,-0.400925954,1,0,0,1.6721,Pumice_rect,2,0,2,0,1,
664287debe4750708ea0ecf7,SCN,2024-06-12_11h39.47.808,LearnStrategy,2023.2.3,Win32,58.82352941,5,2,4,,,,,,,,5,09,,,,,,,,,,,5,1.517,1,,,,,,-0.401851831,-0.411111125,1,0,0,1.5172,Obsidian_rect,3,0,3,0,1,
664287debe4750708ea0ecf7,SCN,2024-06-12_11h39.47.808,LearnStrategy,2023.2.3,Win32,58.82352941,5,2,5,,,,,,,,2,01,,,,,,,,,,,2,1.698,1,,,,,,-0.150925884,-0.234259288,1,0,0,1.6983,Basalt_rect,4,0,4,0,1,
664287debe4750708ea0ecf7,SCN,2024-06-12_11h39.47.808,LearnStrategy,2023.2.3,Win32,58.82352941,5,2,6,,,,,,,,8,13,,,,,,,,,,,3,1.852,0,,,,,,0.132407436,-0.249074088,1,0,0,1.8522,Diorite_rect,5,0,5,0,1,
664287debe4750708ea0ecf7,SCN,2024-06-12_11h39.47.808,LearnStrategy,2023.2.3,Win32,58.82352941,5,2,7,,,,,,,,1,11,,,,,,,,,,,4,8.45,0,,,,,,0.444444444,-0.257407436,1,0,0,8.4505,Gabbro_rect,6,0,6,0,1,
664287debe4750708ea0ecf7,SCN,2024-06-12_11h39.47.808,LearnStrategy,2023.2.3,Win32,58.82352941,5,2,8,,,,,,,,5,04,,,,,,,,,,,5,2.021,1,,,,,,-0.381481489,-0.398148148,1,0,0,2.021,Obsidian_rect,7,0,7,0,1,
664287debe4750708ea0ecf7,SCN,2024-06-12_11h39.47.808,LearnStrategy,2023.2.3,Win32,58.82352941,5,2,9,,,,,,,,4,15,,,,,,,,,,,3,4.041,0,,,,,,0.099074116,-0.252777806,1,0,0,4.0411,Diorite_rect,8,0,8,0,1,
664287debe4750708ea0ecf7,SCN,2024-06-12_11h39.47.808,LearnStrategy,2023.2.3,Win32,58.82352941,5,2,10,,,,,,,,7,10,,,,,,,,,,,1,4.078,0,,,,,,-0.398148148,-0.270370413,1,0,0,4.0784,Andesite_rect,9,0,9,0,1,
664287debe4750708ea0ecf7,SCN,2024-06-12_11h39.47.808,LearnStrategy,2023.2.3,Win32,58.82352941,5,2,11,,,,,,,,4,11,,,,,,,,,,,7,5.236,0,,,,,,0.124074088,-0.409259302,1,0,0,5.2355,Peridotite_rect,10,0,10,0,1,
664287debe4750708ea0ecf7,SCN,2024-06-12_11h39.47.808,LearnStrategy,2023.2.3,Win32,58.82352941,5,2,12,,,,,,,,6,03,,,,,,,,,,,7,4.744,0,,,,,,0.109259288,-0.39444443,1,0,0,4.7444,Peridotite_rect,11,0,11,0,1,
664287debe4750708ea0ecf7,SCN,2024-06-12_11h39.47.808,LearnStrategy,2023.2.3,Win32,58.82352941,5,2,13,,,,,,,,7,13,,,,,,,,,,,6,3.035,0,,,,,,-0.139814801,-0.387037065,1,0,0,3.0349,Pegmatite_rect,12,0,12,0,1,
664287debe4750708ea0ecf7,SCN,2024-06-12_11h39.47.808,LearnStrategy,2023.2.3,Win32,58.82352941,5,2,14,,,,,,,,1,09,,,,,,,,,,,4,2.139,0,,,,,,0.372222194,-0.247222265,1,0,0,2.1387,Gabbro_rect,13,0,13,0,1,
664287debe4750708ea0ecf7,SCN,2024-06-12_11h39.47.808,LearnStrategy,2023.2.3,Win32,58.82352941,5,2,15,,,,,,,,3,15,,,,,,,,,,,3,2.769,1,,,,,,0.058333362,-0.259259259,1,0,0,2.7694,Diorite_rect,14,0,14,0,1,
664287debe4750708ea0ecf7,SCN,2024-06-12_11h39.47.808,LearnStrategy,2023.2.3,Win32,58.82352941,5,2,16,,,,,,,,2,16,,,,,,,,,,,3,9.372,0,,,,,,0.150925954,-0.258333347,1,0,0,9.3721,Diorite_rect,15,0,15,0,1,
664287debe4750708ea0ecf7,SCN,2024-06-12_11h39.47.808,LearnStrategy,2023.2.3,Win32,58.82352941,6,1,1,-0.588888875,0.411111108,1,0,0,2.2102,Andesite_07,1,07,6,1,2.21,-0.427777785,-0.259259259,1,0,0,10.8139,Andesite_rect,1,10.814,1,0,0,0,0,1,,,,,,,,,,,,,
664287debe4750708ea0ecf7,SCN,2024-06-12_11h39.47.808,LearnStrategy,2023.2.3,Win32,58.82352941,6,1,2,0.250925912,0.106481481,1,0,0,2.807,Basalt_06,2,06,4,6,2.807,-0.10092594,-0.257407436,1,0,0,1.4354,Basalt_rect,2,1.435,1,1,0,1,0,1,,,,,,,,,,,,,
664287debe4750708ea0ecf7,SCN,2024-06-12_11h39.47.808,LearnStrategy,2023.2.3,Win32,58.82352941,6,1,3,0.236111111,-0.25462963,1,0,0,1.9083,Andesite_01,1,01,2,6,1.908,-0.324999986,-0.255555541,1,0,0,1.5634,Andesite_rect,1,1.563,1,2,0,2,0,1,,,,,,,,,,,,,
664287debe4750708ea0ecf7,SCN,2024-06-12_11h39.47.808,LearnStrategy,2023.2.3,Win32,58.82352941,6,1,4,0.561111168,-0.255555541,1,0,0,1.8609,Andesite_16,1,16,2,8,1.861,-0.323148127,-0.26944443,1,0,0,2.8897,Andesite_rect,1,2.89,1,3,0,3,0,1,,,,,,,,,,,,,
664287debe4750708ea0ecf7,SCN,2024-06-12_11h39.47.808,LearnStrategy,2023.2.3,Win32,58.82352941,6,1,5,-0.552777785,-0.421296296,1,0,0,1.8913,Diorite_16,3,16,1,1,1.891,-0.387962942,-0.263888889,1,0,0,1.1167,Andesite_rect,1,1.117,0,4,0,4,0,1,,,,,,,,,,,,,
664287debe4750708ea0ecf7,SCN,2024-06-12_11h39.47.808,LearnStrategy,2023.2.3,Win32,58.82352941,6,1,6,-0.224074046,0.092592593,1,0,0,5.2387,Peridotite_15,7,15,4,3,5.239,0.079629616,-0.237037023,1,0,0,1.6678,Diorite_rect,3,1.668,0,5,0,5,0,1,,,,,,,,,,,,,
664287debe4750708ea0ecf7,SCN,2024-06-12_11h39.47.808,LearnStrategy,2023.2.3,Win32,58.82352941,6,1,7,0.555555556,-0.235185199,1,0,0,2.2856,Andesite_16,1,16,2,8,2.286,-0.347222222,-0.250925912,1,0,0,6.0967,Andesite_rect,1,6.097,1,6,0,6,0,1,,,,,,,,,,,,,
664287debe4750708ea0ecf7,SCN,2024-06-12_11h39.47.808,LearnStrategy,2023.2.3,Win32,58.82352941,6,1,8,-0.097222222,-0.075000021,1,0,0,2.2759,Peridotite_07,7,07,3,4,2.276,0.063888903,-0.396296325,1,0,0,5.3567,Peridotite_rect,7,5.357,1,7,0,7,0,1,,,,,,,,,,,,,
664287debe4750708ea0ecf7,SCN,2024-06-12_11h39.47.808,LearnStrategy,2023.2.3,Win32,58.82352941,6,1,9,0.517592677,-0.231481481,1,0,0,1.899,Andesite_16,1,16,2,8,1.899,0.191666709,-0.417592578,1,0,0,1.9553,Peridotite_rect,7,1.955,0,8,0,8,0,1,,,,,,,,,,,,,
664287debe4750708ea0ecf7,SCN,2024-06-12_11h39.47.808,LearnStrategy,2023.2.3,Win32,58.82352941,6,1,10,-0.237037023,0.238888882,1,0,0,2.6399,Gabbro_05,4,05,5,3,2.64,0.371296353,-0.260185171,1,0,0,3.1983,Gabbro_rect,4,3.198,1,9,0,9,0,1,,,,,,,,,,,,,
664287debe4750708ea0ecf7,SCN,2024-06-12_11h39.47.808,LearnStrategy,2023.2.3,Win32,58.82352941,6,1,11,0.23055557,0.244444441,1,0,0,9.4171,Basalt_14,2,14,5,6,9.417,0.128703718,-0.261111153,1,0,0,2.7349,Diorite_rect,3,2.735,0,10,0,10,0,1,,,,,,,,,,,,,
664287debe4750708ea0ecf7,SCN,2024-06-12_11h39.47.808,LearnStrategy,2023.2.3,Win32,58.82352941,6,1,12,-0.086111069,0.079629616,1,0,0,2.6454,Gabbro_14,4,14,4,4,2.645,0.383333418,-0.266666695,1,0,0,3.0697,Gabbro_rect,4,3.07,1,11,0,11,0,1,,,,,,,,,,,,,
664287debe4750708ea0ecf7,SCN,2024-06-12_11h39.47.808,LearnStrategy,2023.2.3,Win32,58.82352941,6,1,13,0.390740712,0.44722222,1,0,0,2.6234,Diorite_11,3,11,6,7,2.623,0.161111125,-0.246296282,1,0,0,2.1728,Diorite_rect,3,2.173,1,12,0,12,0,1,,,,,,,,,,,,,
664287debe4750708ea0ecf7,SCN,2024-06-12_11h39.47.808,LearnStrategy,2023.2.3,Win32,58.82352941,6,1,14,-0.584259245,0.118518511,1,0,0,2.738,Pegmatite_10,6,10,4,1,2.738,0.166666667,-0.24537037,1,0,0,4.6956,Diorite_rect,3,4.696,0,13,0,13,0,1,,,,,,,,,,,,,
664287debe4750708ea0ecf7,SCN,2024-06-12_11h39.47.808,LearnStrategy,2023.2.3,Win32,58.82352941,6,1,15,0.100000028,-0.080555563,1,0,0,7.5367,Pegmatite_12,6,12,3,5,7.537,0.159259302,-0.249074088,1,0,0,8.4132,Diorite_rect,3,8.413,0,14,0,14,0,1,,,,,,,,,,,,,
664287debe4750708ea0ecf7,SCN,2024-06-12_11h39.47.808,LearnStrategy,2023.2.3,Win32,58.82352941,6,1,16,-0.053703661,-0.083333333,1,0,0,1.4788,Peridotite_07,7,07,3,4,1.479,-0.38703703,-0.252777806,1,0,0,2.6965,Andesite_rect,1,2.697,0,15,0,15,0,1,,,,,,,,,,,,,
664287debe4750708ea0ecf7,SCN,2024-06-12_11h39.47.808,LearnStrategy,2023.2.3,Win32,58.82352941,6,2,1,,,,,,,,7,02,,,,,,,,,,,7,3.58,1,,,,,,0.090740769,-0.386111153,1,0,0,3.5799,Peridotite_rect,0,0,0,0,1,
664287debe4750708ea0ecf7,SCN,2024-06-12_11h39.47.808,LearnStrategy,2023.2.3,Win32,58.82352941,6,2,2,,,,,,,,1,03,,,,,,,,,,,4,3.583,0,,,,,,0.425925926,-0.24537037,1,0,0,3.5828,Gabbro_rect,1,0,1,0,1,
664287debe4750708ea0ecf7,SCN,2024-06-12_11h39.47.808,LearnStrategy,2023.2.3,Win32,58.82352941,6,2,3,,,,,,,,3,09,,,,,,,,,,,7,3.224,0,,,,,,0.179629644,-0.387962977,1,0,0,3.2242,Peridotite_rect,2,0,2,0,1,
664287debe4750708ea0ecf7,SCN,2024-06-12_11h39.47.808,LearnStrategy,2023.2.3,Win32,58.82352941,6,2,4,,,,,,,,5,16,,,,,,,,,,,5,1.742,1,,,,,,-0.393518519,-0.414814843,1,0,0,1.7417,Obsidian_rect,3,0,3,0,1,
664287debe4750708ea0ecf7,SCN,2024-06-12_11h39.47.808,LearnStrategy,2023.2.3,Win32,58.82352941,6,2,5,,,,,,,,2,04,,,,,,,,,,,2,1.272,1,,,,,,-0.158333319,-0.257407436,1,0,0,1.2722,Basalt_rect,4,0,4,0,1,
664287debe4750708ea0ecf7,SCN,2024-06-12_11h39.47.808,LearnStrategy,2023.2.3,Win32,58.82352941,6,2,6,,,,,,,,8,10,,,,,,,,,,,8,1.408,1,,,,,,0.410185213,-0.392592607,1,0,0,1.4079,Pumice_rect,5,0,5,0,1,
664287debe4750708ea0ecf7,SCN,2024-06-12_11h39.47.808,LearnStrategy,2023.2.3,Win32,58.82352941,6,2,7,,,,,,,,4,13,,,,,,,,,,,4,2.438,1,,,,,,0.421296296,-0.248148176,1,0,0,2.4377,Gabbro_rect,6,0,6,0,1,
664287debe4750708ea0ecf7,SCN,2024-06-12_11h39.47.808,LearnStrategy,2023.2.3,Win32,58.82352941,6,2,8,,,,,,,,3,07,,,,,,,,,,,3,11.159,1,,,,,,0.066666709,-0.248148176,1,0,0,11.1587,Diorite_rect,7,0,7,0,1,
664287debe4750708ea0ecf7,SCN,2024-06-12_11h39.47.808,LearnStrategy,2023.2.3,Win32,58.82352941,6,2,9,,,,,,,,4,01,,,,,,,,,,,1,3.569,0,,,,,,-0.315740727,-0.270370413,1,0,0,3.5686,Andesite_rect,8,0,8,0,1,
664287debe4750708ea0ecf7,SCN,2024-06-12_11h39.47.808,LearnStrategy,2023.2.3,Win32,58.82352941,6,2,10,,,,,,,,1,04,,,,,,,,,,,6,6.978,0,,,,,,-0.097222222,-0.415740755,1,0,0,6.9783,Pegmatite_rect,9,0,9,0,1,
664287debe4750708ea0ecf7,SCN,2024-06-12_11h39.47.808,LearnStrategy,2023.2.3,Win32,58.82352941,6,2,11,,,,,,,,6,07,,,,,,,,,,,5,1.56,0,,,,,,-0.353703711,-0.386111153,1,0,0,1.5595,Obsidian_rect,10,0,10,0,1,
664287debe4750708ea0ecf7,SCN,2024-06-12_11h39.47.808,LearnStrategy,2023.2.3,Win32,58.82352941,6,2,12,,,,,,,,7,06,,,,,,,,,,,6,2.17,0,,,,,,-0.175000014,-0.405555584,1,0,0,2.1698,Pegmatite_rect,11,0,11,0,1,
664287debe4750708ea0ecf7,SCN,2024-06-12_11h39.47.808,LearnStrategy,2023.2.3,Win32,58.82352941,6,2,13,,,,,,,,5,11,,,,,,,,,,,5,1.138,1,,,,,,-0.332407386,-0.393518519,1,0,0,1.1383,Obsidian_rect,12,0,12,0,1,
664287debe4750708ea0ecf7,SCN,2024-06-12_11h39.47.808,LearnStrategy,2023.2.3,Win32,58.82352941,6,2,14,,,,,,,,2,09,,,,,,,,,,,2,1.365,1,,,,,,-0.216666681,-0.237963005,1,0,0,1.3652,Basalt_rect,13,0,13,0,1,
664287debe4750708ea0ecf7,SCN,2024-06-12_11h39.47.808,LearnStrategy,2023.2.3,Win32,58.82352941,6,2,15,,,,,,,,8,04,,,,,,,,,,,8,1.526,1,,,,,,0.348148205,-0.387037065,1,0,0,1.5264,Pumice_rect,14,0,14,0,1,
664287debe4750708ea0ecf7,SCN,2024-06-12_11h39.47.808,LearnStrategy,2023.2.3,Win32,58.82352941,6,2,16,,,,,,,,6,09,,,,,,,,,,,6,6.233,1,,,,,,-0.099074046,-0.402777778,1,0,0,6.2328,Pegmatite_rect,15,0,15,0,1,
664287debe4750708ea0ecf7,SCN,2024-06-12_11h39.47.808,LearnStrategy,2023.2.3,Win32,58.82352941,7,1,1,0.393518519,-0.087962963,1,0,0,2.1889,Gabbro_08,4,08,3,7,2.189,0.172222208,-0.259259259,1,0,0,5.5565,Diorite_rect,3,5.556,0,0,0,0,0,1,,,,,,,,,,,,,
664287debe4750708ea0ecf7,SCN,2024-06-12_11h39.47.808,LearnStrategy,2023.2.3,Win32,58.82352941,7,1,2,-0.228703675,0.092592593,1,0,0,1.4594,Peridotite_15,7,15,4,3,1.459,0.137962977,-0.39907406,1,0,0,7.129,Peridotite_rect,7,7.129,1,1,0,1,0,1,,,,,,,,,,,,,
664287debe4750708ea0ecf7,SCN,2024-06-12_11h39.47.808,LearnStrategy,2023.2.3,Win32,58.82352941,7,1,3,-0.400925919,-0.112963005,1,0,0,2.5754,Andesite_05,1,05,3,2,2.575,0.376851824,-0.235185199,1,0,0,1.8371,Gabbro_rect,4,1.837,0,2,0,2,0,1,,,,,,,,,,,,,
664287debe4750708ea0ecf7,SCN,2024-06-12_11h39.47.808,LearnStrategy,2023.2.3,Win32,58.82352941,7,1,4,0.40833339,-0.099074116,1,0,0,0.8596,Gabbro_08,4,08,3,7,0.86,0.198148162,-0.253703718,1,0,0,2.5274,Diorite_rect,3,2.527,0,3,0,3,0,1,,,,,,,,,,,,,
664287debe4750708ea0ecf7,SCN,2024-06-12_11h39.47.808,LearnStrategy,2023.2.3,Win32,58.82352941,7,1,5,0.571296268,-0.249074088,1,0,0,1.4931,Andesite_16,1,16,2,8,1.493,0.193518533,-0.411111125,1,0,0,1.9533,Peridotite_rect,7,1.953,0,4,0,4,0,1,,,,,,,,,,,,,
664287debe4750708ea0ecf7,SCN,2024-06-12_11h39.47.808,LearnStrategy,2023.2.3,Win32,58.82352941,7,1,6,0.390740712,0.274999989,1,0,0,4.9354,Basalt_10,2,10,5,7,4.935,-0.167592578,-0.262962977,1,0,0,1.7196,Basalt_rect,2,1.72,1,5,0,5,0,1,,,,,,,,,,,,,
664287debe4750708ea0ecf7,SCN,2024-06-12_11h39.47.808,LearnStrategy,2023.2.3,Win32,58.82352941,7,1,7,0.228703746,-0.232407393,1,0,0,1.5589,Andesite_01,1,01,2,6,1.559,0.148148148,-0.262037065,1,0,0,4.01,Diorite_rect,3,4.01,0,6,0,6,0,1,,,,,,,,,,,,,
664287debe4750708ea0ecf7,SCN,2024-06-12_11h39.47.808,LearnStrategy,2023.2.3,Win32,58.82352941,7,1,8,0.066666709,-0.402777778,1,0,0,2.9793,Gabbro_10,4,10,1,5,2.979,0.329629686,-0.236111111,1,0,0,3.6575,Gabbro_rect,4,3.658,1,7,0,7,0,1,,,,,,,,,,,,,
664287debe4750708ea0ecf7,SCN,2024-06-12_11h39.47.808,LearnStrategy,2023.2.3,Win32,58.82352941,7,1,9,0.412037037,0.397222219,1,0,0,5.6255,Diorite_11,3,11,6,7,5.626,0.067592621,-0.397222236,1,0,0,2.2784,Peridotite_rect,7,2.278,0,8,0,8,0,1,,,,,,,,,,,,,
664287debe4750708ea0ecf7,SCN,2024-06-12_11h39.47.808,LearnStrategy,2023.2.3,Win32,58.82352941,7,1,10,-0.224074046,-0.075000021,1,0,0,2.058,Andesite_10,1,10,3,3,2.058,0.359259288,-0.39907406,1,0,0,2.093,Pumice_rect,8,2.093,0,9,0,9,0,1,,,,,,,,,,,,,
664287debe4750708ea0ecf7,SCN,2024-06-12_11h39.47.808,LearnStrategy,2023.2.3,Win32,58.82352941,7,1,11,-0.259259259,-0.112963005,1,0,0,1.8919,Andesite_10,1,10,3,3,1.892,-0.373148141,-0.255555541,1,0,0,1.899,Andesite_rect,1,1.899,1,10,0,10,0,1,,,,,,,,,,,,,
664287debe4750708ea0ecf7,SCN,2024-06-12_11h39.47.808,LearnStrategy,2023.2.3,Win32,58.82352941,7,1,12,0.399074131,-0.091666681,1,0,0,2.0196,Gabbro_08,4,08,3,7,2.02,-0.362037023,-0.237037023,1,0,0,1.2792,Andesite_rect,1,1.279,0,11,0,11,0,1,,,,,,,,,,,,,
664287debe4750708ea0ecf7,SCN,2024-06-12_11h39.47.808,LearnStrategy,2023.2.3,Win32,58.82352941,7,1,13,0.575000057,0.133333312,1,0,0,2.058,Pumice_02,8,02,4,8,2.058,0.37962963,-0.412037037,1,0,0,2.2074,Pumice_rect,8,2.207,1,12,0,12,0,1,,,,,,,,,,,,,
664287debe4750708ea0ecf7,SCN,2024-06-12_11h39.47.808,LearnStrategy,2023.2.3,Win32,58.82352941,7,1,14,0.367592564,0.106481481,1,0,0,3.7074,Obsidian_10,5,10,4,7,3.707,-0.425925926,-0.400925954,1,0,0,1.1029,Obsidian_rect,5,1.103,1,13,0,13,0,1,,,,,,,,,,,,,
664287debe4750708ea0ecf7,SCN,2024-06-12_11h39.47.808,LearnStrategy,2023.2.3,Win32,58.82352941,7,1,15,0.223148134,-0.09629631,1,0,0,2.4086,Diorite_02,3,02,3,6,2.409,-0.062962921,-0.411111125,1,0,0,8.8717,Pegmatite_rect,6,8.872,0,14,0,14,0,1,,,,,,,,,,,,,
664287debe4750708ea0ecf7,SCN,2024-06-12_11h39.47.808,LearnStrategy,2023.2.3,Win32,58.82352941,7,1,16,0.071296339,0.068518497,1,0,0,2.6259,Diorite_06,3,06,4,5,2.626,0.159259302,-0.248148176,1,0,0,1.2122,Diorite_rect,3,1.212,1,15,0,15,0,1,,,,,,,,,,,,,
664287debe4750708ea0ecf7,SCN,2024-06-12_11h39.47.808,LearnStrategy,2023.2.3,Win32,58.82352941,7,2,1,,,,,,,,3,09,,,,,,,,,,,3,1.174,1,,,,,,0.104629658,-0.244444459,1,0,0,1.1742,Diorite_rect,0,0,0,0,1,
664287debe4750708ea0ecf7,SCN,2024-06-12_11h39.47.808,LearnStrategy,2023.2.3,Win32,58.82352941,7,2,2,,,,,,,,5,05,,,,,,,,,,,5,2.557,1,,,,,,-0.350925905,-0.395370413,1,0,0,2.5573,Obsidian_rect,1,0,1,0,1,
664287debe4750708ea0ecf7,SCN,2024-06-12_11h39.47.808,LearnStrategy,2023.2.3,Win32,58.82352941,7,2,3,,,,,,,,4,11,,,,,,,,,,,1,2.681,0,,,,,,-0.335185192,-0.242592635,1,0,0,2.6808,Andesite_rect,2,0,2,0,1,
664287debe4750708ea0ecf7,SCN,2024-06-12_11h39.47.808,LearnStrategy,2023.2.3,Win32,58.82352941,7,2,4,,,,,,,,7,10,,,,,,,,,,,7,7.002,1,,,,,,0.087037051,-0.398148148,1,0,0,7.002,Peridotite_rect,3,0,3,0,1,
664287debe4750708ea0ecf7,SCN,2024-06-12_11h39.47.808,LearnStrategy,2023.2.3,Win32,58.82352941,7,2,5,,,,,,,,6,03,,,,,,,,,,,6,3.659,1,,,,,,-0.132407365,-0.418518561,1,0,0,3.6588,Pegmatite_rect,4,0,4,0,1,
664287debe4750708ea0ecf7,SCN,2024-06-12_11h39.47.808,LearnStrategy,2023.2.3,Win32,58.82352941,7,2,6,,,,,,,,2,04,,,,,,,,,,,2,1.146,1,,,,,,-0.145370342,-0.232407393,1,0,0,1.1455,Basalt_rect,5,0,5,0,1,
664287debe4750708ea0ecf7,SCN,2024-06-12_11h39.47.808,LearnStrategy,2023.2.3,Win32,58.82352941,7,2,7,,,,,,,,5,12,,,,,,,,,,,5,1.036,1,,,,,,-0.325925933,-0.396296325,1,0,0,1.036,Obsidian_rect,6,0,6,0,1,
664287debe4750708ea0ecf7,SCN,2024-06-12_11h39.47.808,LearnStrategy,2023.2.3,Win32,58.82352941,7,2,8,,,,,,,,6,06,,,,,,,,,,,4,2.513,0,,,,,,0.325000057,-0.252777806,1,0,0,2.5127,Gabbro_rect,7,0,7,0,1,
664287debe4750708ea0ecf7,SCN,2024-06-12_11h39.47.808,LearnStrategy,2023.2.3,Win32,58.82352941,7,2,9,,,,,,,,2,05,,,,,,,,,,,2,1.389,1,,,,,,-0.139814801,-0.255555541,1,0,0,1.3895,Basalt_rect,8,0,8,0,1,
664287debe4750708ea0ecf7,SCN,2024-06-12_11h39.47.808,LearnStrategy,2023.2.3,Win32,58.82352941,7,2,10,,,,,,,,7,16,,,,,,,,,,,6,2.779,0,,,,,,-0.095370328,-0.412037037,1,0,0,2.7791,Pegmatite_rect,9,0,9,0,1,
664287debe4750708ea0ecf7,SCN,2024-06-12_11h39.47.808,LearnStrategy,2023.2.3,Win32,58.82352941,7,2,11,,,,,,,,4,03,,,,,,,,,,,3,2.388,0,,,,,,0.116666653,-0.25462963,1,0,0,2.3884,Diorite_rect,10,0,10,0,1,
664287debe4750708ea0ecf7,SCN,2024-06-12_11h39.47.808,LearnStrategy,2023.2.3,Win32,58.82352941,7,2,12,,,,,,,,8,06,,,,,,,,,,,8,1.33,1,,,,,,0.351851852,-0.396296325,1,0,0,1.33,Pumice_rect,11,0,11,0,1,
664287debe4750708ea0ecf7,SCN,2024-06-12_11h39.47.808,LearnStrategy,2023.2.3,Win32,58.82352941,7,2,13,,,,,,,,1,02,,,,,,,,,,,1,2.115,1,,,,,,-0.355555534,-0.252777806,1,0,0,2.1149,Andesite_rect,12,0,12,0,1,
664287debe4750708ea0ecf7,SCN,2024-06-12_11h39.47.808,LearnStrategy,2023.2.3,Win32,58.82352941,7,2,14,,,,,,,,3,08,,,,,,,,,,,3,5.193,1,,,,,,0.09629631,-0.253703718,1,0,0,5.1934,Diorite_rect,13,0,13,0,1,
664287debe4750708ea0ecf7,SCN,2024-06-12_11h39.47.808,LearnStrategy,2023.2.3,Win32,58.82352941,7,2,15,,,,,,,,1,04,,,,,,,,,,,7,2.439,0,,,,,,0.080555598,-0.402777778,1,0,0,2.4395,Peridotite_rect,14,0,14,0,1,
664287debe4750708ea0ecf7,SCN,2024-06-12_11h39.47.808,LearnStrategy,2023.2.3,Win32,58.82352941,7,2,16,,,,,,,,8,13,,,,,,,,,,,1,1.711,0,,,,,,-0.346296275,-0.255555541,1,0,0,1.7111,Andesite_rect,15,0,15,0,1,
664287debe4750708ea0ecf7,SCN,2024-06-12_11h39.47.808,LearnStrategy,2023.2.3,Win32,58.82352941,8,1,1,-0.38703703,0.097222222,1,0,0,5.4915,Pumice_09,8,09,4,2,5.492,0.394444501,-0.412962949,1,0,0,1.3103,Pumice_rect,8,1.31,1,0,0,0,0,1,,,,,,,,,,,,,
664287debe4750708ea0ecf7,SCN,2024-06-12_11h39.47.808,LearnStrategy,2023.2.3,Win32,58.82352941,8,1,2,-0.213888875,0.122222229,1,0,0,1.5434,Peridotite_15,7,15,4,3,1.543,-0.347222222,-0.25,1,0,0,2.6868,Andesite_rect,1,2.687,0,1,0,1,0,1,,,,,,,,,,,,,
664287debe4750708ea0ecf7,SCN,2024-06-12_11h39.47.808,LearnStrategy,2023.2.3,Win32,58.82352941,8,1,3,-0.071296268,0.233333323,1,0,0,1.7091,Obsidian_14,5,14,5,4,1.709,-0.328703704,-0.412037037,1,0,0,1.098,Obsidian_rect,5,1.098,1,2,0,2,0,1,,,,,,,,,,,,,
664287debe4750708ea0ecf7,SCN,2024-06-12_11h39.47.808,LearnStrategy,2023.2.3,Win32,58.82352941,8,1,4,0.051851838,0.2537037,1,0,0,0.8379,Pumice_05,8,05,5,5,0.838,0.362037094,-0.393518519,1,0,0,2.3378,Pumice_rect,8,2.338,1,3,0,3,0,1,,,,,,,,,,,,,
664287debe4750708ea0ecf7,SCN,2024-06-12_11h39.47.808,LearnStrategy,2023.2.3,Win32,58.82352941,8,1,5,0.239814829,0.273148148,1,0,0,0.7632,Basalt_14,2,14,5,6,0.763,0.363888917,-0.239814829,1,0,0,2.3344,Gabbro_rect,4,2.334,0,4,0,4,0,1,,,,,,,,,,,,,
664287debe4750708ea0ecf7,SCN,2024-06-12_11h39.47.808,LearnStrategy,2023.2.3,Win32,58.82352941,8,1,6,0.541666667,0.272222219,1,0,0,1.6257,Peridotite_12,7,12,5,8,1.626,0.119444459,-0.415740755,1,0,0,4.2944,Peridotite_rect,7,4.294,1,5,0,5,0,1,,,,,,,,,,,,,
664287debe4750708ea0ecf7,SCN,2024-06-12_11h39.47.808,LearnStrategy,2023.2.3,Win32,58.82352941,8,1,7,-0.238888847,0.099999993,1,0,0,2.3926,Peridotite_15,7,15,4,3,2.393,0.172222208,-0.396296325,1,0,0,3.1938,Peridotite_rect,7,3.194,1,6,0,6,0,1,,,,,,,,,,,,,
664287debe4750708ea0ecf7,SCN,2024-06-12_11h39.47.808,LearnStrategy,2023.2.3,Win32,58.82352941,8,1,8,-0.3675926,-0.097222222,1,0,0,2.0406,Andesite_05,1,05,3,2,2.041,-0.372222229,-0.260185171,1,0,0,2.5467,Andesite_rect,1,2.547,1,7,0,7,0,1,,,,,,,,,,,,,
664287debe4750708ea0ecf7,SCN,2024-06-12_11h39.47.808,LearnStrategy,2023.2.3,Win32,58.82352941,8,1,9,-0.063888903,-0.26944443,1,0,0,2.3589,Peridotite_08,7,08,2,4,2.359,0.362962935,-0.235185199,1,0,0,1.4243,Gabbro_rect,4,1.424,0,8,0,8,0,1,,,,,,,,,,,,,
664287debe4750708ea0ecf7,SCN,2024-06-12_11h39.47.808,LearnStrategy,2023.2.3,Win32,58.82352941,8,1,10,0.381481453,-0.247222265,1,0,0,2.9043,Diorite_12,3,12,2,7,2.904,-0.334259245,-0.252777806,1,0,0,4.0959,Andesite_rect,1,4.096,0,9,0,9,0,1,,,,,,,,,,,,,
664287debe4750708ea0ecf7,SCN,2024-06-12_11h39.47.808,LearnStrategy,2023.2.3,Win32,58.82352941,8,1,11,0.219444487,-0.40370369,1,0,0,1.4762,Obsidian_02,5,02,1,6,1.476,-0.348148134,-0.387962977,1,0,0,0.852,Obsidian_rect,5,0.852,1,10,0,10,0,1,,,,,,,,,,,,,
664287debe4750708ea0ecf7,SCN,2024-06-12_11h39.47.808,LearnStrategy,2023.2.3,Win32,58.82352941,8,1,12,-0.587962963,-0.24537037,1,0,0,2.0109,Pumice_15,8,15,2,1,2.011,-0.36296297,-0.237963005,1,0,0,3.7582,Andesite_rect,1,3.758,0,11,0,11,0,1,,,,,,,,,,,,,
664287debe4750708ea0ecf7,SCN,2024-06-12_11h39.47.808,LearnStrategy,2023.2.3,Win32,58.82352941,8,1,13,0.094444487,0.114814794,1,0,0,3.477,Diorite_06,3,06,4,5,3.477,0.125,-0.248148176,1,0,0,3.3573,Diorite_rect,3,3.357,1,12,0,12,0,1,,,,,,,,,,,,,
664287debe4750708ea0ecf7,SCN,2024-06-12_11h39.47.808,LearnStrategy,2023.2.3,Win32,58.82352941,8,1,14,0.219444487,-0.261111153,1,0,0,1.9931,Andesite_01,1,01,2,6,1.993,0.412037037,-0.233333376,1,0,0,1.6093,Gabbro_rect,4,1.609,0,13,0,13,0,1,,,,,,,,,,,,,
664287debe4750708ea0ecf7,SCN,2024-06-12_11h39.47.808,LearnStrategy,2023.2.3,Win32,58.82352941,8,1,15,-0.058333291,-0.272222236,1,0,0,3.8922,Peridotite_08,7,08,2,4,3.892,0.3648149,-0.234259288,1,0,0,2.4303,Gabbro_rect,4,2.43,0,14,0,14,0,1,,,,,,,,,,,,,
664287debe4750708ea0ecf7,SCN,2024-06-12_11h39.47.808,LearnStrategy,2023.2.3,Win32,58.82352941,8,1,16,0.578703704,-0.396296325,1,0,0,1.7082,Andesite_06,1,06,1,8,1.708,-0.38703703,-0.238888917,1,0,0,3.0107,Andesite_rect,1,3.011,1,15,0,15,0,1,,,,,,,,,,,,,
664287debe4750708ea0ecf7,SCN,2024-06-12_11h39.47.808,LearnStrategy,2023.2.3,Win32,58.82352941,8,2,1,,,,,,,,7,02,,,,,,,,,,,7,8.303,1,,,,,,0.14444443,-0.412962949,1,0,0,8.3033,Peridotite_rect,0,0,0,0,1,
664287debe4750708ea0ecf7,SCN,2024-06-12_11h39.47.808,LearnStrategy,2023.2.3,Win32,58.82352941,8,2,2,,,,,,,,7,05,,,,,,,,,,,1,9.81,0,,,,,,-0.40370369,-0.25462963,1,0,0,9.8097,Andesite_rect,1,0,1,0,1,
664287debe4750708ea0ecf7,SCN,2024-06-12_11h39.47.808,LearnStrategy,2023.2.3,Win32,58.82352941,8,2,3,,,,,,,,4,01,,,,,,,,,,,4,2.373,1,,,,,,0.368518547,-0.250925912,1,0,0,2.373,Gabbro_rect,2,0,2,0,1,
664287debe4750708ea0ecf7,SCN,2024-06-12_11h39.47.808,LearnStrategy,2023.2.3,Win32,58.82352941,8,2,4,,,,,,,,1,11,,,,,,,,,,,7,1.976,0,,,,,,0.19722225,-0.389814801,1,0,0,1.9755,Peridotite_rect,3,0,3,0,1,
664287debe4750708ea0ecf7,SCN,2024-06-12_11h39.47.808,LearnStrategy,2023.2.3,Win32,58.82352941,8,2,5,,,,,,,,3,07,,,,,,,,,,,3,4.057,1,,,,,,0.15370369,-0.255555541,1,0,0,4.0575,Diorite_rect,4,0,4,0,1,
664287debe4750708ea0ecf7,SCN,2024-06-12_11h39.47.808,LearnStrategy,2023.2.3,Win32,58.82352941,8,2,6,,,,,,,,4,15,,,,,,,,,,,6,3.641,0,,,,,,-0.077777792,-0.417592578,1,0,0,3.6408,Pegmatite_rect,5,0,5,0,1,
664287debe4750708ea0ecf7,SCN,2024-06-12_11h39.47.808,LearnStrategy,2023.2.3,Win32,58.82352941,8,2,7,,,,,,,,2,01,,,,,,,,,,,2,1.337,1,,,,,,-0.090740698,-0.247222265,1,0,0,1.3369,Basalt_rect,6,0,6,0,1,
664287debe4750708ea0ecf7,SCN,2024-06-12_11h39.47.808,LearnStrategy,2023.2.3,Win32,58.82352941,8,2,8,,,,,,,,3,15,,,,,,,,,,,6,8.645,0,,,,,,-0.082407422,-0.412962949,1,0,0,8.6454,Pegmatite_rect,7,0,7,0,1,
664287debe4750708ea0ecf7,SCN,2024-06-12_11h39.47.808,LearnStrategy,2023.2.3,Win32,58.82352941,8,2,9,,,,,,,,6,05,,,,,,,,,,,5,4.525,0,,,,,,-0.402777778,-0.409259302,1,0,0,4.5252,Obsidian_rect,8,0,8,0,1,
664287debe4750708ea0ecf7,SCN,2024-06-12_11h39.47.808,LearnStrategy,2023.2.3,Win32,58.82352941,8,2,10,,,,,,,,8,03,,,,,,,,,,,8,1.541,1,,,,,,0.385185242,-0.393518519,1,0,0,1.541,Pumice_rect,9,0,9,0,1,
664287debe4750708ea0ecf7,SCN,2024-06-12_11h39.47.808,LearnStrategy,2023.2.3,Win32,58.82352941,8,2,11,,,,,,,,8,16,,,,,,,,,,,8,3.556,1,,,,,,0.362962935,-0.389814801,1,0,0,3.5559,Pumice_rect,10,0,10,0,1,
664287debe4750708ea0ecf7,SCN,2024-06-12_11h39.47.808,LearnStrategy,2023.2.3,Win32,58.82352941,8,2,12,,,,,,,,1,09,,,,,,,,,,,1,3.102,1,,,,,,-0.39907406,-0.24537037,1,0,0,3.1016,Andesite_rect,11,0,11,0,1,
664287debe4750708ea0ecf7,SCN,2024-06-12_11h39.47.808,LearnStrategy,2023.2.3,Win32,58.82352941,8,2,13,,,,,,,,2,12,,,,,,,,,,,8,6.759,0,,,,,,0.358333305,-0.395370413,1,0,0,6.7591,Pumice_rect,12,0,12,0,1,
664287debe4750708ea0ecf7,SCN,2024-06-12_11h39.47.808,LearnStrategy,2023.2.3,Win32,58.82352941,8,2,14,,,,,,,,5,09,,,,,,,,,,,5,1.428,1,,,,,,-0.395370377,-0.405555584,1,0,0,1.4283,Obsidian_rect,13,0,13,0,1,
664287debe4750708ea0ecf7,SCN,2024-06-12_11h39.47.808,LearnStrategy,2023.2.3,Win32,58.82352941,8,2,15,,,,,,,,5,11,,,,,,,,,,,5,0.658,1,,,,,,-0.395370377,-0.405555584,1,0,0,0.6576,Obsidian_rect,14,0,14,0,1,
664287debe4750708ea0ecf7,SCN,2024-06-12_11h39.47.808,LearnStrategy,2023.2.3,Win32,58.82352941,8,2,16,,,,,,,,6,07,,,,,,,,,,,6,3.468,1,,,,,,-0.076851809,-0.392592607,1,0,0,3.4677,Pegmatite_rect,15,0,15,0,1,
664287debe4750708ea0ecf7,SCN,2024-06-12_11h39.47.808,LearnStrategy,2023.2.3,Win32,58.82352941,9,1,1,0.22592594,-0.257407436,1,0,0,3.425,Andesite_01,1,01,2,6,3.425,0.376851824,-0.251851894,1,0,0,2.0811,Gabbro_rect,4,2.081,0,0,0,0,0,1,,,,,,,,,,,,,
664287debe4750708ea0ecf7,SCN,2024-06-12_11h39.47.808,LearnStrategy,2023.2.3,Win32,58.82352941,9,1,2,0.095370399,0.396296298,1,0,0,2.841,Pumice_14,8,14,6,5,2.841,0.413888861,-0.396296325,1,0,0,1.1477,Pumice_rect,8,1.148,1,1,0,1,0,1,,,,,,,,,,,,,
664287debe4750708ea0ecf7,SCN,2024-06-12_11h39.47.808,LearnStrategy,2023.2.3,Win32,58.82352941,9,1,3,0.232407393,0.091666645,1,0,0,1.3214,Basalt_06,2,06,4,6,1.321,-0.092592593,-0.243518547,1,0,0,1.3284,Basalt_rect,2,1.328,1,2,0,2,0,1,,,,,,,,,,,,,
664287debe4750708ea0ecf7,SCN,2024-06-12_11h39.47.808,LearnStrategy,2023.2.3,Win32,58.82352941,9,1,4,-0.061111097,-0.257407436,1,0,0,1.9252,Peridotite_08,7,08,2,4,1.925,0.113888917,-0.249074088,1,0,0,2.9776,Diorite_rect,3,2.978,0,3,0,3,0,1,,,,,,,,,,,,,
664287debe4750708ea0ecf7,SCN,2024-06-12_11h39.47.808,LearnStrategy,2023.2.3,Win32,58.82352941,9,1,5,-0.37037037,-0.122222265,1,0,0,1.7977,Andesite_05,1,05,3,2,1.798,0.174074102,-0.250925912,1,0,0,4.2002,Diorite_rect,3,4.2,0,4,0,4,0,1,,,,,,,,,,,,,
664287debe4750708ea0ecf7,SCN,2024-06-12_11h39.47.808,LearnStrategy,2023.2.3,Win32,58.82352941,9,1,6,0.384259259,0.397222219,1,0,0,4.3674,Diorite_11,3,11,6,7,4.367,0.111111111,-0.39444443,1,0,0,2.5146,Peridotite_rect,7,2.515,0,5,0,5,0,1,,,,,,,,,,,,,
664287debe4750708ea0ecf7,SCN,2024-06-12_11h39.47.808,LearnStrategy,2023.2.3,Win32,58.82352941,9,1,7,-0.099074046,0.094444452,1,0,0,3.7071,Gabbro_14,4,14,4,4,3.707,0.099074116,-0.251851894,1,0,0,6.6055,Diorite_rect,3,6.606,0,6,0,6,0,1,,,,,,,,,,,,,
664287debe4750708ea0ecf7,SCN,2024-06-12_11h39.47.808,LearnStrategy,2023.2.3,Win32,58.82352941,9,1,8,0.390740712,-0.087962963,1,0,0,1.2287,Gabbro_08,4,08,3,7,1.229,0.416666667,-0.248148176,1,0,0,1.3973,Gabbro_rect,4,1.397,1,7,0,7,0,1,,,,,,,,,,,,,
664287debe4750708ea0ecf7,SCN,2024-06-12_11h39.47.808,LearnStrategy,2023.2.3,Win32,58.82352941,9,1,9,0.396296325,-0.237037023,1,0,0,6.3213,Diorite_12,3,12,2,7,6.321,0.157407407,-0.414814843,1,0,0,2.0192,Peridotite_rect,7,2.019,0,8,0,8,0,1,,,,,,,,,,,,,
664287debe4750708ea0ecf7,SCN,2024-06-12_11h39.47.808,LearnStrategy,2023.2.3,Win32,58.82352941,9,1,10,-0.3824074,-0.244444459,1,0,0,2.6775,Obsidian_07,5,07,2,2,2.677,-0.413888896,-0.393518519,1,0,0,0.9907,Obsidian_rect,5,0.991,1,9,0,9,0,1,,,,,,,,,,,,,
664287debe4750708ea0ecf7,SCN,2024-06-12_11h39.47.808,LearnStrategy,2023.2.3,Win32,58.82352941,9,1,11,-0.534259266,0.1175926,1,0,0,2.1291,Pegmatite_10,6,10,4,1,2.129,-0.127777735,-0.405555584,1,0,0,4.1532,Pegmatite_rect,6,4.153,1,10,0,10,0,1,,,,,,,,,,,,,
664287debe4750708ea0ecf7,SCN,2024-06-12_11h39.47.808,LearnStrategy,2023.2.3,Win32,58.82352941,9,1,12,0.396296325,0.400925928,1,0,0,3.2057,Diorite_11,3,11,6,7,3.206,0.386111083,-0.247222265,1,0,0,4.1309,Gabbro_rect,4,4.131,0,11,0,11,0,1,,,,,,,,,,,,,
664287debe4750708ea0ecf7,SCN,2024-06-12_11h39.47.808,LearnStrategy,2023.2.3,Win32,58.82352941,9,1,13,0.227777764,-0.099074116,1,0,0,1.5785,Diorite_02,3,02,3,6,1.578,0.180555556,-0.246296282,1,0,0,1.364,Diorite_rect,3,1.364,1,12,0,12,0,1,,,,,,,,,,,,,
664287debe4750708ea0ecf7,SCN,2024-06-12_11h39.47.808,LearnStrategy,2023.2.3,Win32,58.82352941,9,1,14,-0.066666638,0.118518511,1,0,0,2.2446,Gabbro_14,4,14,4,4,2.245,0.354629658,-0.246296282,1,0,0,2.799,Gabbro_rect,4,2.799,1,13,0,13,0,1,,,,,,,,,,,,,
664287debe4750708ea0ecf7,SCN,2024-06-12_11h39.47.808,LearnStrategy,2023.2.3,Win32,58.82352941,9,1,15,-0.541666667,0.411111108,1,0,0,2.3055,Andesite_07,1,07,6,1,2.306,-0.39166666,-0.261111153,1,0,0,2.512,Andesite_rect,1,2.512,1,14,0,14,0,1,,,,,,,,,,,,,
664287debe4750708ea0ecf7,SCN,2024-06-12_11h39.47.808,LearnStrategy,2023.2.3,Win32,58.82352941,9,1,16,0.257407436,-0.077777792,1,0,0,2.5967,Diorite_02,3,02,3,6,2.597,-0.39907406,-0.232407393,1,0,0,1.464,Andesite_rect,1,1.464,0,15,0,15,0,1,,,,,,,,,,,,,
664287debe4750708ea0ecf7,SCN,2024-06-12_11h39.47.808,LearnStrategy,2023.2.3,Win32,58.82352941,9,2,1,,,,,,,,1,14,,,,,,,,,,,7,2.238,0,,,,,,0.10555557,-0.400925954,1,0,0,2.2377,Peridotite_rect,0,0,0,0,1,
664287debe4750708ea0ecf7,SCN,2024-06-12_11h39.47.808,LearnStrategy,2023.2.3,Win32,58.82352941,9,2,2,,,,,,,,8,04,,,,,,,,,,,8,1.298,1,,,,,,0.349074046,-0.395370413,1,0,0,1.2981,Pumice_rect,1,0,1,0,1,
664287debe4750708ea0ecf7,SCN,2024-06-12_11h39.47.808,LearnStrategy,2023.2.3,Win32,58.82352941,9,2,3,,,,,,,,4,09,,,,,,,,,,,7,10.118,0,,,,,,0.137962977,-0.393518519,1,0,0,10.1177,Peridotite_rect,2,0,2,0,1,
664287debe4750708ea0ecf7,SCN,2024-06-12_11h39.47.808,LearnStrategy,2023.2.3,Win32,58.82352941,9,2,4,,,,,,,,5,04,,,,,,,,,,,5,1.519,1,,,,,,-0.362037023,-0.400000042,1,0,0,1.5193,Obsidian_rect,3,0,3,0,1,
664287debe4750708ea0ecf7,SCN,2024-06-12_11h39.47.808,LearnStrategy,2023.2.3,Win32,58.82352941,9,2,5,,,,,,,,1,03,,,,,,,,,,,4,5.87,0,,,,,,0.354629658,-0.241666653,1,0,0,5.8698,Gabbro_rect,4,0,4,0,1,
664287debe4750708ea0ecf7,SCN,2024-06-12_11h39.47.808,LearnStrategy,2023.2.3,Win32,58.82352941,9,2,6,,,,,,,,4,13,,,,,,,,,,,6,6.808,0,,,,,,-0.080555527,-0.408333319,1,0,0,6.8084,Pegmatite_rect,5,0,5,0,1,
664287debe4750708ea0ecf7,SCN,2024-06-12_11h39.47.808,LearnStrategy,2023.2.3,Win32,58.82352941,9,2,7,,,,,,,,7,13,,,,,,,,,,,3,6.074,0,,,,,,0.148148148,-0.253703718,1,0,0,6.0737,Diorite_rect,6,0,6,0,1,
664287debe4750708ea0ecf7,SCN,2024-06-12_11h39.47.808,LearnStrategy,2023.2.3,Win32,58.82352941,9,2,8,,,,,,,,6,09,,,,,,,,,,,6,2.22,1,,,,,,-0.151851866,-0.406481496,1,0,0,2.2197,Pegmatite_rect,7,0,7,0,1,
664287debe4750708ea0ecf7,SCN,2024-06-12_11h39.47.808,LearnStrategy,2023.2.3,Win32,58.82352941,9,2,9,,,,,,,,5,16,,,,,,,,,,,5,1.159,1,,,,,,-0.334259245,-0.414814843,1,0,0,1.1593,Obsidian_rect,8,0,8,0,1,
664287debe4750708ea0ecf7,SCN,2024-06-12_11h39.47.808,LearnStrategy,2023.2.3,Win32,58.82352941,9,2,10,,,,,,,,6,15,,,,,,,,,,,7,7.402,0,,,,,,0.108333376,-0.387037065,1,0,0,7.4021,Peridotite_rect,9,0,9,0,1,
664287debe4750708ea0ecf7,SCN,2024-06-12_11h39.47.808,LearnStrategy,2023.2.3,Win32,58.82352941,9,2,11,,,,,,,,2,09,,,,,,,,,,,2,1.332,1,,,,,,-0.154629601,-0.234259288,1,0,0,1.3322,Basalt_rect,10,0,10,0,1,
664287debe4750708ea0ecf7,SCN,2024-06-12_11h39.47.808,LearnStrategy,2023.2.3,Win32,58.82352941,9,2,12,,,,,,,,2,16,,,,,,,,,,,8,1.98,0,,,,,,0.350926011,-0.392592607,1,0,0,1.9798,Pumice_rect,11,0,11,0,1,
664287debe4750708ea0ecf7,SCN,2024-06-12_11h39.47.808,LearnStrategy,2023.2.3,Win32,58.82352941,9,2,13,,,,,,,,7,06,,,,,,,,,,,3,3.843,0,,,,,,0.101851852,-0.250925912,1,0,0,3.8435,Diorite_rect,12,0,12,0,1,
664287debe4750708ea0ecf7,SCN,2024-06-12_11h39.47.808,LearnStrategy,2023.2.3,Win32,58.82352941,9,2,14,,,,,,,,3,13,,,,,,,,,,,7,4.542,0,,,,,,0.085185228,-0.396296325,1,0,0,4.542,Peridotite_rect,13,0,13,0,1,
664287debe4750708ea0ecf7,SCN,2024-06-12_11h39.47.808,LearnStrategy,2023.2.3,Win32,58.82352941,9,2,15,,,,,,,,3,14,,,,,,,,,,,1,2.905,0,,,,,,-0.349999993,-0.243518547,1,0,0,2.9052,Andesite_rect,14,0,14,0,1,
664287debe4750708ea0ecf7,SCN,2024-06-12_11h39.47.808,LearnStrategy,2023.2.3,Win32,58.82352941,9,2,16,,,,,,,,8,10,,,,,,,,,,,8,1.181,1,,,,,,0.389814871,-0.387037065,1,0,0,1.1808,Pumice_rect,15,0,15,0,1,
664287debe4750708ea0ecf7,SCN,2024-06-12_11h39.47.808,LearnStrategy,2023.2.3,Win32,58.82352941,,,,,,,,,,,,,,,,,,,,,,,,,,,,,,,,,,,,,,,,,,,0
664287debe4750708ea0ecf7,SCN,2024-06-12_11h39.47.808,LearnStrategy,2023.2.3,Win32,58.82352941,,,,,,,,,,,,,,,,,,,,,,,,,,,,,,,,,,,,,,,,,,,
664287debe4750708ea0ecf7,SCN,2024-06-12_11h39.47.808,LearnStrategy,2023.2.3,Win32,58.82352941,,,,,,,,,,,3,16,1,1,,,,,,,,,,,,,,,,,,,,,,,,,,,,,
664287debe4750708ea0ecf7,SCN,2024-06-12_11h39.47.808,LearnStrategy,2023.2.3,Win32,58.82352941,,,,,,,,,,,2,11,1,2,,,,,,,,,,,,,,,,,,,,,,,,,,,,,
664287debe4750708ea0ecf7,SCN,2024-06-12_11h39.47.808,LearnStrategy,2023.2.3,Win32,58.82352941,,,,,,,,,,,4,12,1,3,,,,,,,,,,,,,,,,,,,,,,,,,,,,,
664287debe4750708ea0ecf7,SCN,2024-06-12_11h39.47.808,LearnStrategy,2023.2.3,Win32,58.82352941,,,,,,,,,,,2,08,1,4,,,,,,,,,,,,,,,,,,,,,,,,,,,,,
664287debe4750708ea0ecf7,SCN,2024-06-12_11h39.47.808,LearnStrategy,2023.2.3,Win32,58.82352941,,,,,,,,,,,4,10,1,5,,,,,,,,,,,,,,,,,,,,,,,,,,,,,
664287debe4750708ea0ecf7,SCN,2024-06-12_11h39.47.808,LearnStrategy,2023.2.3,Win32,58.82352941,,,,,,,,,,,5,02,1,6,,,,,,,,,,,,,,,,,,,,,,,,,,,,,
664287debe4750708ea0ecf7,SCN,2024-06-12_11h39.47.808,LearnStrategy,2023.2.3,Win32,58.82352941,,,,,,,,,,,8,08,1,7,,,,,,,,,,,,,,,,,,,,,,,,,,,,,
664287debe4750708ea0ecf7,SCN,2024-06-12_11h39.47.808,LearnStrategy,2023.2.3,Win32,58.82352941,,,,,,,,,,,1,06,1,8,,,,,,,,,,,,,,,,,,,,,,,,,,,,,
664287debe4750708ea0ecf7,SCN,2024-06-12_11h39.47.808,LearnStrategy,2023.2.3,Win32,58.82352941,,,,,,,,,,,8,15,2,1,,,,,,,,,,,,,,,,,,,,,,,,,,,,,
664287debe4750708ea0ecf7,SCN,2024-06-12_11h39.47.808,LearnStrategy,2023.2.3,Win32,58.82352941,,,,,,,,,,,5,07,2,2,,,,,,,,,,,,,,,,,,,,,,,,,,,,,
664287debe4750708ea0ecf7,SCN,2024-06-12_11h39.47.808,LearnStrategy,2023.2.3,Win32,58.82352941,,,,,,,,,,,6,08,2,3,,,,,,,,,,,,,,,,,,,,,,,,,,,,,
664287debe4750708ea0ecf7,SCN,2024-06-12_11h39.47.808,LearnStrategy,2023.2.3,Win32,58.82352941,,,,,,,,,,,7,08,2,4,,,,,,,,,,,,,,,,,,,,,,,,,,,,,
664287debe4750708ea0ecf7,SCN,2024-06-12_11h39.47.808,LearnStrategy,2023.2.3,Win32,58.82352941,,,,,,,,,,,7,14,2,5,,,,,,,,,,,,,,,,,,,,,,,,,,,,,
664287debe4750708ea0ecf7,SCN,2024-06-12_11h39.47.808,LearnStrategy,2023.2.3,Win32,58.82352941,,,,,,,,,,,1,01,2,6,,,,,,,,,,,,,,,,,,,,,,,,,,,,,
664287debe4750708ea0ecf7,SCN,2024-06-12_11h39.47.808,LearnStrategy,2023.2.3,Win32,58.82352941,,,,,,,,,,,3,12,2,7,,,,,,,,,,,,,,,,,,,,,,,,,,,,,
664287debe4750708ea0ecf7,SCN,2024-06-12_11h39.47.808,LearnStrategy,2023.2.3,Win32,58.82352941,,,,,,,,,,,1,16,2,8,,,,,,,,,,,,,,,,,,,,,,,,,,,,,
664287debe4750708ea0ecf7,SCN,2024-06-12_11h39.47.808,LearnStrategy,2023.2.3,Win32,58.82352941,,,,,,,,,,,5,06,3,1,,,,,,,,,,,,,,,,,,,,,,,,,,,,,
664287debe4750708ea0ecf7,SCN,2024-06-12_11h39.47.808,LearnStrategy,2023.2.3,Win32,58.82352941,,,,,,,,,,,1,05,3,2,,,,,,,,,,,,,,,,,,,,,,,,,,,,,
664287debe4750708ea0ecf7,SCN,2024-06-12_11h39.47.808,LearnStrategy,2023.2.3,Win32,58.82352941,,,,,,,,,,,1,10,3,3,,,,,,,,,,,,,,,,,,,,,,,,,,,,,
664287debe4750708ea0ecf7,SCN,2024-06-12_11h39.47.808,LearnStrategy,2023.2.3,Win32,58.82352941,,,,,,,,,,,7,07,3,4,,,,,,,,,,,,,,,,,,,,,,,,,,,,,
664287debe4750708ea0ecf7,SCN,2024-06-12_11h39.47.808,LearnStrategy,2023.2.3,Win32,58.82352941,,,,,,,,,,,6,12,3,5,,,,,,,,,,,,,,,,,,,,,,,,,,,,,
664287debe4750708ea0ecf7,SCN,2024-06-12_11h39.47.808,LearnStrategy,2023.2.3,Win32,58.82352941,,,,,,,,,,,3,02,3,6,,,,,,,,,,,,,,,,,,,,,,,,,,,,,
664287debe4750708ea0ecf7,SCN,2024-06-12_11h39.47.808,LearnStrategy,2023.2.3,Win32,58.82352941,,,,,,,,,,,4,08,3,7,,,,,,,,,,,,,,,,,,,,,,,,,,,,,
664287debe4750708ea0ecf7,SCN,2024-06-12_11h39.47.808,LearnStrategy,2023.2.3,Win32,58.82352941,,,,,,,,,,,3,10,3,8,,,,,,,,,,,,,,,,,,,,,,,,,,,,,
664287debe4750708ea0ecf7,SCN,2024-06-12_11h39.47.808,LearnStrategy,2023.2.3,Win32,58.82352941,,,,,,,,,,,6,10,4,1,,,,,,,,,,,,,,,,,,,,,,,,,,,,,
664287debe4750708ea0ecf7,SCN,2024-06-12_11h39.47.808,LearnStrategy,2023.2.3,Win32,58.82352941,,,,,,,,,,,8,09,4,2,,,,,,,,,,,,,,,,,,,,,,,,,,,,,
664287debe4750708ea0ecf7,SCN,2024-06-12_11h39.47.808,LearnStrategy,2023.2.3,Win32,58.82352941,,,,,,,,,,,7,15,4,3,,,,,,,,,,,,,,,,,,,,,,,,,,,,,
664287debe4750708ea0ecf7,SCN,2024-06-12_11h39.47.808,LearnStrategy,2023.2.3,Win32,58.82352941,,,,,,,,,,,4,14,4,4,,,,,,,,,,,,,,,,,,,,,,,,,,,,,
664287debe4750708ea0ecf7,SCN,2024-06-12_11h39.47.808,LearnStrategy,2023.2.3,Win32,58.82352941,,,,,,,,,,,3,06,4,5,,,,,,,,,,,,,,,,,,,,,,,,,,,,,
664287debe4750708ea0ecf7,SCN,2024-06-12_11h39.47.808,LearnStrategy,2023.2.3,Win32,58.82352941,,,,,,,,,,,2,06,4,6,,,,,,,,,,,,,,,,,,,,,,,,,,,,,
664287debe4750708ea0ecf7,SCN,2024-06-12_11h39.47.808,LearnStrategy,2023.2.3,Win32,58.82352941,,,,,,,,,,,5,10,4,7,,,,,,,,,,,,,,,,,,,,,,,,,,,,,
664287debe4750708ea0ecf7,SCN,2024-06-12_11h39.47.808,LearnStrategy,2023.2.3,Win32,58.82352941,,,,,,,,,,,8,02,4,8,,,,,,,,,,,,,,,,,,,,,,,,,,,,,
664287debe4750708ea0ecf7,SCN,2024-06-12_11h39.47.808,LearnStrategy,2023.2.3,Win32,58.82352941,,,,,,,,,,,6,11,5,1,,,,,,,,,,,,,,,,,,,,,,,,,,,,,
664287debe4750708ea0ecf7,SCN,2024-06-12_11h39.47.808,LearnStrategy,2023.2.3,Win32,58.82352941,,,,,,,,,,,5,08,5,2,,,,,,,,,,,,,,,,,,,,,,,,,,,,,
664287debe4750708ea0ecf7,SCN,2024-06-12_11h39.47.808,LearnStrategy,2023.2.3,Win32,58.82352941,,,,,,,,,,,4,05,5,3,,,,,,,,,,,,,,,,,,,,,,,,,,,,,
664287debe4750708ea0ecf7,SCN,2024-06-12_11h39.47.808,LearnStrategy,2023.2.3,Win32,58.82352941,,,,,,,,,,,5,14,5,4,,,,,,,,,,,,,,,,,,,,,,,,,,,,,
664287debe4750708ea0ecf7,SCN,2024-06-12_11h39.47.808,LearnStrategy,2023.2.3,Win32,58.82352941,,,,,,,,,,,8,05,5,5,,,,,,,,,,,,,,,,,,,,,,,,,,,,,
664287debe4750708ea0ecf7,SCN,2024-06-12_11h39.47.808,LearnStrategy,2023.2.3,Win32,58.82352941,,,,,,,,,,,2,14,5,6,,,,,,,,,,,,,,,,,,,,,,,,,,,,,
664287debe4750708ea0ecf7,SCN,2024-06-12_11h39.47.808,LearnStrategy,2023.2.3,Win32,58.82352941,,,,,,,,,,,2,10,5,7,,,,,,,,,,,,,,,,,,,,,,,,,,,,,
664287debe4750708ea0ecf7,SCN,2024-06-12_11h39.47.808,LearnStrategy,2023.2.3,Win32,58.82352941,,,,,,,,,,,7,12,5,8,,,,,,,,,,,,,,,,,,,,,,,,,,,,,
664287debe4750708ea0ecf7,SCN,2024-06-12_11h39.47.808,LearnStrategy,2023.2.3,Win32,58.82352941,,,,,,,,,,,1,07,6,1,,,,,,,,,,,,,,,,,,,,,,,,,,,,,
664287debe4750708ea0ecf7,SCN,2024-06-12_11h39.47.808,LearnStrategy,2023.2.3,Win32,58.82352941,,,,,,,,,,,4,16,6,2,,,,,,,,,,,,,,,,,,,,,,,,,,,,,
664287debe4750708ea0ecf7,SCN,2024-06-12_11h39.47.808,LearnStrategy,2023.2.3,Win32,58.82352941,,,,,,,,,,,2,02,6,3,,,,,,,,,,,,,,,,,,,,,,,,,,,,,
664287debe4750708ea0ecf7,SCN,2024-06-12_11h39.47.808,LearnStrategy,2023.2.3,Win32,58.82352941,,,,,,,,,,,6,13,6,4,,,,,,,,,,,,,,,,,,,,,,,,,,,,,
664287debe4750708ea0ecf7,SCN,2024-06-12_11h39.47.808,LearnStrategy,2023.2.3,Win32,58.82352941,,,,,,,,,,,8,14,6,5,,,,,,,,,,,,,,,,,,,,,,,,,,,,,
664287debe4750708ea0ecf7,SCN,2024-06-12_11h39.47.808,LearnStrategy,2023.2.3,Win32,58.82352941,,,,,,,,,,,7,04,6,6,,,,,,,,,,,,,,,,,,,,,,,,,,,,,
664287debe4750708ea0ecf7,SCN,2024-06-12_11h39.47.808,LearnStrategy,2023.2.3,Win32,58.82352941,,,,,,,,,,,3,11,6,7,,,,,,,,,,,,,,,,,,,,,,,,,,,,,
664287debe4750708ea0ecf7,SCN,2024-06-12_11h39.47.808,LearnStrategy,2023.2.3,Win32,58.82352941,,,,,,,,,,,6,16,6,8,,,,,,,,,,,,,,,,,,,,,,,,,,,,,