participant,condition,date,expName,psychopyVersion,OS,frameRate,block,phase,trial,learn_mouse_2.x,learn_mouse_2.y,learn_mouse_2.leftButton,learn_mouse_2.midButton,learn_mouse_2.rightButton,learn_mouse_2.time,learn_mouse_2.clicked_name,cat,token,row,col,t_select,cat_mouse_l.x,cat_mouse_l.y,cat_mouse_l.leftButton,cat_mouse_l.midButton,cat_mouse_l.rightButton,cat_mouse_l.time,cat_mouse_l.clicked_name,resp,t_resp,corr,train_trials.thisRepN,train_trials.thisTrialN,train_trials.thisN,train_trials.thisIndex,train_trials.ran,cat_mouse_t.x,cat_mouse_t.y,cat_mouse_t.leftButton,cat_mouse_t.midButton,cat_mouse_t.rightButton,cat_mouse_t.time,cat_mouse_t.clicked_name,test_trials.thisRepN,test_trials.thisTrialN,test_trials.thisN,test_trials.thisIndex,test_trials.ran,Bonus
6643ad1d6324582f8867c01a,TCR,2024-06-25_14h31.36.751,LearnStrategy,2023.2.3,Win32,144.9275362,,,,,,,,,,,,,,,,,,,,,,,,,,,,,,,,,,,,,,,,,,,
6643ad1d6324582f8867c01a,TCR,2024-06-25_14h31.36.751,LearnStrategy,2023.2.3,Win32,144.9275362,1,1,1,0.012037037,-0.002777778,1,0,0,2.332,rock_grid_rect_2,2,05,-1,-1,2.332,0.396296296,-0.255555556,1,0,0,3.1991,Gabbro_rect,4,3.199,0,0,0,0,0,1,,,,,,,,,,,,,
6643ad1d6324582f8867c01a,TCR,2024-06-25_14h31.36.751,LearnStrategy,2023.2.3,Win32,144.9275362,1,1,2,0.018518519,0.012037037,1,0,0,2.3387,rock_grid_rect_2,2,11,-1,-1,2.339,-0.085185185,-0.394444444,1,0,0,1.4359,Pegmatite_rect,6,1.436,0,1,0,1,0,1,,,,,,,,,,,,,
6643ad1d6324582f8867c01a,TCR,2024-06-25_14h31.36.751,LearnStrategy,2023.2.3,Win32,144.9275362,1,1,3,0.122222222,0.000925926,1,0,0,1.075,rock_grid_rect_2,4,09,-1,-1,1.075,-0.150925926,-0.260185185,1,0,0,2.2874,Basalt_rect,2,2.287,0,2,0,2,0,1,,,,,,,,,,,,,
6643ad1d6324582f8867c01a,TCR,2024-06-25_14h31.36.751,LearnStrategy,2023.2.3,Win32,144.9275362,1,1,4,0.011111111,-0.014814815,1,0,0,0.9013,rock_grid_rect_2,4,16,-1,-1,0.901,-0.336111111,-0.256481481,1,0,0,1.8663,Andesite_rect,1,1.866,0,3,0,3,0,1,,,,,,,,,,,,,
6643ad1d6324582f8867c01a,TCR,2024-06-25_14h31.36.751,LearnStrategy,2023.2.3,Win32,144.9275362,1,1,5,0.110185185,0.001851852,1,0,0,0.846,rock_grid_rect_2,8,16,-1,-1,0.846,0.365740741,-0.255555556,1,0,0,1.1279,Gabbro_rect,4,1.128,0,4,0,4,0,1,,,,,,,,,,,,,
6643ad1d6324582f8867c01a,TCR,2024-06-25_14h31.36.751,LearnStrategy,2023.2.3,Win32,144.9275362,1,1,6,0.071296296,0.00462963,1,0,0,0.7556,rock_grid_rect_2,5,12,-1,-1,0.756,-0.112037037,-0.257407407,1,0,0,1.5025,Basalt_rect,2,1.503,0,5,0,5,0,1,,,,,,,,,,,,,
6643ad1d6324582f8867c01a,TCR,2024-06-25_14h31.36.751,LearnStrategy,2023.2.3,Win32,144.9275362,1,1,7,-0.026851852,-0.015740741,1,0,0,0.7138,rock_grid_rect_2,6,08,-1,-1,0.714,0.094444444,-0.387037037,1,0,0,1.1486,Peridotite_rect,7,1.149,0,6,0,6,0,1,,,,,,,,,,,,,
6643ad1d6324582f8867c01a,TCR,2024-06-25_14h31.36.751,LearnStrategy,2023.2.3,Win32,144.9275362,1,1,8,0.026851852,-0.016666667,1,0,0,0.6027,rock_grid_rect_2,7,05,-1,-1,0.603,-0.117592593,-0.266666667,1,0,0,2.1691,Basalt_rect,2,2.169,0,7,0,7,0,1,,,,,,,,,,,,,
6643ad1d6324582f8867c01a,TCR,2024-06-25_14h31.36.751,LearnStrategy,2023.2.3,Win32,144.9275362,1,1,9,0.013888889,-0.019444444,1,0,0,0.839,rock_grid_rect_2,3,13,-1,-1,0.839,-0.310185185,-0.405555556,1,0,0,1.7872,Obsidian_rect,5,1.787,0,8,0,8,0,1,,,,,,,,,,,,,
6643ad1d6324582f8867c01a,TCR,2024-06-25_14h31.36.751,LearnStrategy,2023.2.3,Win32,144.9275362,1,1,10,0.061111111,-0.025,1,0,0,0.5264,rock_grid_rect_2,1,07,-1,-1,0.526,0.124074074,-0.4,1,0,0,1.8884,Peridotite_rect,7,1.888,0,9,0,9,0,1,,,,,,,,,,,,,
6643ad1d6324582f8867c01a,TCR,2024-06-25_14h31.36.751,LearnStrategy,2023.2.3,Win32,144.9275362,1,1,11,0.107407407,-0.00462963,1,0,0,0.6167,rock_grid_rect_2,6,16,-1,-1,0.617,-0.113888889,-0.4,1,0,0,1.7178,Pegmatite_rect,6,1.718,1,10,0,10,0,1,,,,,,,,,,,,,
6643ad1d6324582f8867c01a,TCR,2024-06-25_14h31.36.751,LearnStrategy,2023.2.3,Win32,144.9275362,1,1,12,0.049074074,-0.022222222,1,0,0,0.8041,rock_grid_rect_2,1,09,-1,-1,0.804,0.082407407,-0.259259259,1,0,0,0.53,Diorite_rect,3,0.53,0,11,0,11,0,1,,,,,,,,,,,,,
6643ad1d6324582f8867c01a,TCR,2024-06-25_14h31.36.751,LearnStrategy,2023.2.3,Win32,144.9275362,1,1,13,0.058333333,-0.012037037,1,0,0,0.6375,rock_grid_rect_2,3,08,-1,-1,0.638,0.327777778,-0.248148148,1,0,0,2.9431,Gabbro_rect,4,2.943,0,12,0,12,0,1,,,,,,,,,,,,,
6643ad1d6324582f8867c01a,TCR,2024-06-25_14h31.36.751,LearnStrategy,2023.2.3,Win32,144.9275362,1,1,14,0.102777778,0.019444444,1,0,0,0.7279,rock_grid_rect_2,8,13,-1,-1,0.728,-0.368518519,-0.246296296,1,0,0,1.1762,Andesite_rect,1,1.176,0,13,0,13,0,1,,,,,,,,,,,,,
6643ad1d6324582f8867c01a,TCR,2024-06-25_14h31.36.751,LearnStrategy,2023.2.3,Win32,144.9275362,1,1,15,0.062962963,0.016666667,1,0,0,0.6793,rock_grid_rect_2,5,02,-1,-1,0.679,0.076851852,-0.244444444,1,0,0,0.8517,Diorite_rect,3,0.852,0,14,0,14,0,1,,,,,,,,,,,,,
6643ad1d6324582f8867c01a,TCR,2024-06-25_14h31.36.751,LearnStrategy,2023.2.3,Win32,144.9275362,1,1,16,0.049074074,-0.014814815,1,0,0,0.8394,rock_grid_rect_2,7,10,-1,-1,0.839,0.087037037,-0.397222222,1,0,0,1.6133,Peridotite_rect,7,1.613,1,15,0,15,0,1,,,,,,,,,,,,,
6643ad1d6324582f8867c01a,TCR,2024-06-25_14h31.36.751,LearnStrategy,2023.2.3,Win32,144.9275362,1,2,1,,,,,,,,4,08,,,,,,,,,,,2,3.709,0,,,,,,-0.107407407,-0.256481481,1,0,0,3.7091,Basalt_rect,0,0,0,0,1,
6643ad1d6324582f8867c01a,TCR,2024-06-25_14h31.36.751,LearnStrategy,2023.2.3,Win32,144.9275362,1,2,2,,,,,,,,5,10,,,,,,,,,,,5,1.474,1,,,,,,-0.374074074,-0.392592593,1,0,0,1.4744,Obsidian_rect,1,0,1,0,1,
6643ad1d6324582f8867c01a,TCR,2024-06-25_14h31.36.751,LearnStrategy,2023.2.3,Win32,144.9275362,1,2,3,,,,,,,,8,02,,,,,,,,,,,4,1.655,0,,,,,,0.383333333,-0.267592593,1,0,0,1.655,Gabbro_rect,2,0,2,0,1,
6643ad1d6324582f8867c01a,TCR,2024-06-25_14h31.36.751,LearnStrategy,2023.2.3,Win32,144.9275362,1,2,4,,,,,,,,4,11,,,,,,,,,,,7,1.694,0,,,,,,0.160185185,-0.408333333,1,0,0,1.6938,Peridotite_rect,3,0,3,0,1,
6643ad1d6324582f8867c01a,TCR,2024-06-25_14h31.36.751,LearnStrategy,2023.2.3,Win32,144.9275362,1,2,5,,,,,,,,2,16,,,,,,,,,,,7,1.254,0,,,,,,0.187037037,-0.399074074,1,0,0,1.2537,Peridotite_rect,4,0,4,0,1,
6643ad1d6324582f8867c01a,TCR,2024-06-25_14h31.36.751,LearnStrategy,2023.2.3,Win32,144.9275362,1,2,6,,,,,,,,2,04,,,,,,,,,,,6,1.491,0,,,,,,-0.124074074,-0.392592593,1,0,0,1.4911,Pegmatite_rect,5,0,5,0,1,
6643ad1d6324582f8867c01a,TCR,2024-06-25_14h31.36.751,LearnStrategy,2023.2.3,Win32,144.9275362,1,2,7,,,,,,,,1,06,,,,,,,,,,,1,1.184,1,,,,,,-0.324074074,-0.250925926,1,0,0,1.1838,Andesite_rect,6,0,6,0,1,
6643ad1d6324582f8867c01a,TCR,2024-06-25_14h31.36.751,LearnStrategy,2023.2.3,Win32,144.9275362,1,2,8,,,,,,,,6,15,,,,,,,,,,,3,1.296,0,,,,,,0.190740741,-0.260185185,1,0,0,1.296,Diorite_rect,7,0,7,0,1,
6643ad1d6324582f8867c01a,TCR,2024-06-25_14h31.36.751,LearnStrategy,2023.2.3,Win32,144.9275362,1,2,9,,,,,,,,7,14,,,,,,,,,,,4,1.06,0,,,,,,0.335185185,-0.256481481,1,0,0,1.0604,Gabbro_rect,8,0,8,0,1,
6643ad1d6324582f8867c01a,TCR,2024-06-25_14h31.36.751,LearnStrategy,2023.2.3,Win32,144.9275362,1,2,10,,,,,,,,1,14,,,,,,,,,,,3,1.349,0,,,,,,0.109259259,-0.230555556,1,0,0,1.3486,Diorite_rect,9,0,9,0,1,
6643ad1d6324582f8867c01a,TCR,2024-06-25_14h31.36.751,LearnStrategy,2023.2.3,Win32,144.9275362,1,2,11,,,,,,,,5,09,,,,,,,,,,,6,0.774,0,,,,,,-0.106481481,-0.385185185,1,0,0,0.7738,Pegmatite_rect,10,0,10,0,1,
6643ad1d6324582f8867c01a,TCR,2024-06-25_14h31.36.751,LearnStrategy,2023.2.3,Win32,144.9275362,1,2,12,,,,,,,,6,09,,,,,,,,,,,1,1.736,0,,,,,,-0.318518519,-0.260185185,1,0,0,1.7356,Andesite_rect,11,0,11,0,1,
6643ad1d6324582f8867c01a,TCR,2024-06-25_14h31.36.751,LearnStrategy,2023.2.3,Win32,144.9275362,1,2,13,,,,,,,,8,06,,,,,,,,,,,2,2,0,,,,,,-0.148148148,-0.27037037,1,0,0,1.9995,Basalt_rect,12,0,12,0,1,
6643ad1d6324582f8867c01a,TCR,2024-06-25_14h31.36.751,LearnStrategy,2023.2.3,Win32,144.9275362,1,2,14,,,,,,,,3,02,,,,,,,,,,,8,1.412,0,,,,,,0.337037037,-0.390740741,1,0,0,1.4123,Pumice_rect,13,0,13,0,1,
6643ad1d6324582f8867c01a,TCR,2024-06-25_14h31.36.751,LearnStrategy,2023.2.3,Win32,144.9275362,1,2,15,,,,,,,,3,07,,,,,,,,,,,3,1.228,1,,,,,,0.122222222,-0.250925926,1,0,0,1.2283,Diorite_rect,14,0,14,0,1,
6643ad1d6324582f8867c01a,TCR,2024-06-25_14h31.36.751,LearnStrategy,2023.2.3,Win32,144.9275362,1,2,16,,,,,,,,7,15,,,,,,,,,,,4,1.357,0,,,,,,0.331481481,-0.266666667,1,0,0,1.3566,Gabbro_rect,15,0,15,0,1,
6643ad1d6324582f8867c01a,TCR,2024-06-25_14h31.36.751,LearnStrategy,2023.2.3,Win32,144.9275362,2,1,1,0.063888889,0.000925926,1,0,0,1.0617,rock_grid_rect_2,8,09,-1,-1,1.062,0.356481481,-0.268518519,1,0,0,1.0581,Gabbro_rect,4,1.058,0,0,0,0,0,1,,,,,,,,,,,,,
6643ad1d6324582f8867c01a,TCR,2024-06-25_14h31.36.751,LearnStrategy,2023.2.3,Win32,144.9275362,2,1,2,0.089814815,0.011111111,1,0,0,0.589,rock_grid_rect_2,7,16,-1,-1,0.589,0.148148148,-0.243518519,1,0,0,0.3644,Diorite_rect,3,0.364,0,1,0,1,0,1,,,,,,,,,,,,,
6643ad1d6324582f8867c01a,TCR,2024-06-25_14h31.36.751,LearnStrategy,2023.2.3,Win32,144.9275362,2,1,3,-0.064814815,-0.014814815,1,0,0,0.4784,rock_grid_rect_2,1,07,-1,-1,0.478,-0.037037037,-0.241666667,1,0,0,0.3472,Basalt_rect,2,0.347,0,2,0,2,0,1,,,,,,,,,,,,,
6643ad1d6324582f8867c01a,TCR,2024-06-25_14h31.36.751,LearnStrategy,2023.2.3,Win32,144.9275362,2,1,4,-0.026851852,0.016666667,1,0,0,0.6312,rock_grid_rect_2,4,13,-1,-1,0.631,0.086111111,-0.393518519,1,0,0,0.4613,Peridotite_rect,7,0.461,0,3,0,3,0,1,,,,,,,,,,,,,
6643ad1d6324582f8867c01a,TCR,2024-06-25_14h31.36.751,LearnStrategy,2023.2.3,Win32,144.9275362,2,1,5,-0.014814815,0.016666667,1,0,0,0.6104,rock_grid_rect_2,6,16,-1,-1,0.61,-0.128703704,-0.416666667,1,0,0,0.7269,Pegmatite_rect,6,0.727,1,4,0,4,0,1,,,,,,,,,,,,,
6643ad1d6324582f8867c01a,TCR,2024-06-25_14h31.36.751,LearnStrategy,2023.2.3,Win32,144.9275362,2,1,6,-0.063888889,-0.001851852,1,0,0,0.6727,rock_grid_rect_2,4,10,-1,-1,0.673,-0.371296296,-0.233333333,1,0,0,0.3798,Andesite_rect,1,0.38,0,5,0,5,0,1,,,,,,,,,,,,,
6643ad1d6324582f8867c01a,TCR,2024-06-25_14h31.36.751,LearnStrategy,2023.2.3,Win32,144.9275362,2,1,7,0,-0.013888889,1,0,0,0.7839,rock_grid_rect_2,2,14,-1,-1,0.784,-0.356481481,-0.386111111,1,0,0,0.4263,Obsidian_rect,5,0.426,0,6,0,6,0,1,,,,,,,,,,,,,
6643ad1d6324582f8867c01a,TCR,2024-06-25_14h31.36.751,LearnStrategy,2023.2.3,Win32,144.9275362,2,1,8,0.000925926,-0.010185185,1,0,0,0.5201,rock_grid_rect_2,4,16,-1,-1,0.52,-0.089814815,-0.246296296,1,0,0,0.4237,Basalt_rect,2,0.424,0,7,0,7,0,1,,,,,,,,,,,,,
6643ad1d6324582f8867c01a,TCR,2024-06-25_14h31.36.751,LearnStrategy,2023.2.3,Win32,144.9275362,2,1,9,0.123148148,-0.012037037,1,0,0,0.5967,rock_grid_rect_2,3,12,-1,-1,0.597,0.313888889,-0.410185185,1,0,0,0.4576,Pumice_rect,8,0.458,0,8,0,8,0,1,,,,,,,,,,,,,
6643ad1d6324582f8867c01a,TCR,2024-06-25_14h31.36.751,LearnStrategy,2023.2.3,Win32,144.9275362,2,1,10,0.097222222,-0.019444444,1,0,0,0.7283,rock_grid_rect_2,3,08,-1,-1,0.728,0.180555556,-0.380555556,1,0,0,0.475,Peridotite_rect,7,0.475,0,9,0,9,0,1,,,,,,,,,,,,,
6643ad1d6324582f8867c01a,TCR,2024-06-25_14h31.36.751,LearnStrategy,2023.2.3,Win32,144.9275362,2,1,11,0.059259259,-0.012962963,1,0,0,0.4854,rock_grid_rect_2,5,12,-1,-1,0.485,0.371296296,-0.246296296,1,0,0,0.7544,Gabbro_rect,4,0.754,0,10,0,10,0,1,,,,,,,,,,,,,
6643ad1d6324582f8867c01a,TCR,2024-06-25_14h31.36.751,LearnStrategy,2023.2.3,Win32,144.9275362,2,1,12,0.096296296,-0.008333333,1,0,0,0.5409,rock_grid_rect_2,7,05,-1,-1,0.541,0.173148148,-0.246296296,1,0,0,0.6277,Diorite_rect,3,0.628,0,11,0,11,0,1,,,,,,,,,,,,,
6643ad1d6324582f8867c01a,TCR,2024-06-25_14h31.36.751,LearnStrategy,2023.2.3,Win32,144.9275362,2,1,13,0.044444444,-0.019444444,1,0,0,0.7562,rock_grid_rect_2,7,10,-1,-1,0.756,-0.060185185,-0.384259259,1,0,0,0.7256,Pegmatite_rect,6,0.726,0,12,0,12,0,1,,,,,,,,,,,,,
6643ad1d6324582f8867c01a,TCR,2024-06-25_14h31.36.751,LearnStrategy,2023.2.3,Win32,144.9275362,2,1,14,0.062037037,-0.008333333,1,0,0,0.7145,rock_grid_rect_2,6,07,-1,-1,0.715,0.121296296,-0.396296296,1,0,0,0.4194,Peridotite_rect,7,0.419,0,13,0,13,0,1,,,,,,,,,,,,,
6643ad1d6324582f8867c01a,TCR,2024-06-25_14h31.36.751,LearnStrategy,2023.2.3,Win32,144.9275362,2,1,15,0.056481481,0.002777778,1,0,0,0.4923,rock_grid_rect_2,2,11,-1,-1,0.492,0.099074074,-0.27037037,1,0,0,0.3299,Diorite_rect,3,0.33,0,14,0,14,0,1,,,,,,,,,,,,,
6643ad1d6324582f8867c01a,TCR,2024-06-25_14h31.36.751,LearnStrategy,2023.2.3,Win32,144.9275362,2,1,16,0.060185185,-0.011111111,1,0,0,0.5826,rock_grid_rect_2,8,15,-1,-1,0.583,-0.094444444,-0.242592593,1,0,0,0.8616,Basalt_rect,2,0.862,0,15,0,15,0,1,,,,,,,,,,,,,
6643ad1d6324582f8867c01a,TCR,2024-06-25_14h31.36.751,LearnStrategy,2023.2.3,Win32,144.9275362,2,2,1,,,,,,,,4,15,,,,,,,,,,,4,2.402,1,,,,,,0.333333333,-0.251851852,1,0,0,2.402,Gabbro_rect,0,0,0,0,1,
6643ad1d6324582f8867c01a,TCR,2024-06-25_14h31.36.751,LearnStrategy,2023.2.3,Win32,144.9275362,2,2,2,,,,,,,,3,06,,,,,,,,,,,2,3.311,0,,,,,,-0.162037037,-0.257407407,1,0,0,3.3111,Basalt_rect,1,0,1,0,1,
6643ad1d6324582f8867c01a,TCR,2024-06-25_14h31.36.751,LearnStrategy,2023.2.3,Win32,144.9275362,2,2,3,,,,,,,,3,14,,,,,,,,,,,8,1.697,0,,,,,,0.37962963,-0.409259259,1,0,0,1.697,Pumice_rect,2,0,2,0,1,
6643ad1d6324582f8867c01a,TCR,2024-06-25_14h31.36.751,LearnStrategy,2023.2.3,Win32,144.9275362,2,2,4,,,,,,,,8,05,,,,,,,,,,,7,0.426,0,,,,,,0.185185185,-0.388888889,1,0,0,0.4257,Peridotite_rect,3,0,3,0,1,
6643ad1d6324582f8867c01a,TCR,2024-06-25_14h31.36.751,LearnStrategy,2023.2.3,Win32,144.9275362,2,2,5,,,,,,,,7,02,,,,,,,,,,,6,1.503,0,,,,,,-0.127777778,-0.384259259,1,0,0,1.5028,Pegmatite_rect,4,0,4,0,1,
6643ad1d6324582f8867c01a,TCR,2024-06-25_14h31.36.751,LearnStrategy,2023.2.3,Win32,144.9275362,2,2,6,,,,,,,,1,11,,,,,,,,,,,3,1.523,0,,,,,,0.099074074,-0.251851852,1,0,0,1.5232,Diorite_rect,5,0,5,0,1,
6643ad1d6324582f8867c01a,TCR,2024-06-25_14h31.36.751,LearnStrategy,2023.2.3,Win32,144.9275362,2,2,7,,,,,,,,5,05,,,,,,,,,,,5,1.908,1,,,,,,-0.359259259,-0.387962963,1,0,0,1.9084,Obsidian_rect,6,0,6,0,1,
6643ad1d6324582f8867c01a,TCR,2024-06-25_14h31.36.751,LearnStrategy,2023.2.3,Win32,144.9275362,2,2,8,,,,,,,,5,04,,,,,,,,,,,5,1.094,1,,,,,,-0.419444444,-0.399074074,1,0,0,1.094,Obsidian_rect,7,0,7,0,1,
6643ad1d6324582f8867c01a,TCR,2024-06-25_14h31.36.751,LearnStrategy,2023.2.3,Win32,144.9275362,2,2,9,,,,,,,,1,03,,,,,,,,,,,2,1.163,0,,,,,,-0.158333333,-0.250925926,1,0,0,1.1632,Basalt_rect,8,0,8,0,1,
6643ad1d6324582f8867c01a,TCR,2024-06-25_14h31.36.751,LearnStrategy,2023.2.3,Win32,144.9275362,2,2,10,,,,,,,,6,12,,,,,,,,,,,1,0.866,0,,,,,,-0.330555556,-0.237962963,1,0,0,0.8665,Andesite_rect,9,0,9,0,1,
6643ad1d6324582f8867c01a,TCR,2024-06-25_14h31.36.751,LearnStrategy,2023.2.3,Win32,144.9275362,2,2,11,,,,,,,,8,14,,,,,,,,,,,4,0.69,0,,,,,,0.359259259,-0.255555556,1,0,0,0.6903,Gabbro_rect,10,0,10,0,1,
6643ad1d6324582f8867c01a,TCR,2024-06-25_14h31.36.751,LearnStrategy,2023.2.3,Win32,144.9275362,2,2,12,,,,,,,,2,01,,,,,,,,,,,3,0.883,0,,,,,,0.164814815,-0.257407407,1,0,0,0.8831,Diorite_rect,11,0,11,0,1,
6643ad1d6324582f8867c01a,TCR,2024-06-25_14h31.36.751,LearnStrategy,2023.2.3,Win32,144.9275362,2,2,13,,,,,,,,2,06,,,,,,,,,,,8,1.259,0,,,,,,0.375,-0.412037037,1,0,0,1.2594,Pumice_rect,12,0,12,0,1,
6643ad1d6324582f8867c01a,TCR,2024-06-25_14h31.36.751,LearnStrategy,2023.2.3,Win32,144.9275362,2,2,14,,,,,,,,7,06,,,,,,,,,,,2,1.752,0,,,,,,-0.1,-0.252777778,1,0,0,1.7525,Basalt_rect,13,0,13,0,1,
6643ad1d6324582f8867c01a,TCR,2024-06-25_14h31.36.751,LearnStrategy,2023.2.3,Win32,144.9275362,2,2,15,,,,,,,,6,06,,,,,,,,,,,3,0.742,0,,,,,,0.114814815,-0.271296296,1,0,0,0.742,Diorite_rect,14,0,14,0,1,
6643ad1d6324582f8867c01a,TCR,2024-06-25_14h31.36.751,LearnStrategy,2023.2.3,Win32,144.9275362,2,2,16,,,,,,,,4,01,,,,,,,,,,,1,1.343,0,,,,,,-0.355555556,-0.257407407,1,0,0,1.3431,Andesite_rect,15,0,15,0,1,
6643ad1d6324582f8867c01a,TCR,2024-06-25_14h31.36.751,LearnStrategy,2023.2.3,Win32,144.9275362,3,1,1,0.065740741,-0.022222222,1,0,0,1.0481,rock_grid_rect_2,2,09,-1,-1,1.048,-0.082407407,-0.264814815,1,0,0,3.5238,Basalt_rect,2,3.524,1,0,0,0,0,1,,,,,,,,,,,,,
6643ad1d6324582f8867c01a,TCR,2024-06-25_14h31.36.751,LearnStrategy,2023.2.3,Win32,144.9275362,3,1,2,0.036111111,-0.022222222,1,0,0,1.0063,rock_grid_rect_2,6,07,-1,-1,1.006,-0.359259259,-0.241666667,1,0,0,1.1988,Andesite_rect,1,1.199,0,1,0,1,0,1,,,,,,,,,,,,,
6643ad1d6324582f8867c01a,TCR,2024-06-25_14h31.36.751,LearnStrategy,2023.2.3,Win32,144.9275362,3,1,3,0.062962963,-0.011111111,1,0,0,0.777,rock_grid_rect_2,3,08,-1,-1,0.777,0.052777778,-0.256481481,1,0,0,1.9334,Diorite_rect,3,1.933,1,2,0,2,0,1,,,,,,,,,,,,,
6643ad1d6324582f8867c01a,TCR,2024-06-25_14h31.36.751,LearnStrategy,2023.2.3,Win32,144.9275362,3,1,4,0.086111111,-0.008333333,1,0,0,0.8325,rock_grid_rect_2,6,08,-1,-1,0.832,0.355555556,-0.382407407,1,0,0,1.3163,Pumice_rect,8,1.316,0,3,0,3,0,1,,,,,,,,,,,,,
6643ad1d6324582f8867c01a,TCR,2024-06-25_14h31.36.751,LearnStrategy,2023.2.3,Win32,144.9275362,3,1,5,0.075925926,-0.00462963,1,0,0,0.6451,rock_grid_rect_2,8,09,-1,-1,0.645,0.360185185,-0.246296296,1,0,0,1.0626,Gabbro_rect,4,1.063,0,4,0,4,0,1,,,,,,,,,,,,,
6643ad1d6324582f8867c01a,TCR,2024-06-25_14h31.36.751,LearnStrategy,2023.2.3,Win32,144.9275362,3,1,6,0.076851852,0.017592593,1,0,0,0.5061,rock_grid_rect_2,2,02,-1,-1,0.506,-0.112962963,-0.27037037,1,0,0,2.2474,Basalt_rect,2,2.247,1,5,0,5,0,1,,,,,,,,,,,,,
6643ad1d6324582f8867c01a,TCR,2024-06-25_14h31.36.751,LearnStrategy,2023.2.3,Win32,144.9275362,3,1,7,0.075,-0.025,1,0,0,0.5478,rock_grid_rect_2,3,12,-1,-1,0.548,0.146296296,-0.392592593,1,0,0,1.1419,Peridotite_rect,7,1.142,0,6,0,6,0,1,,,,,,,,,,,,,
6643ad1d6324582f8867c01a,TCR,2024-06-25_14h31.36.751,LearnStrategy,2023.2.3,Win32,144.9275362,3,1,8,0.067592593,-0.008333333,1,0,0,0.6172,rock_grid_rect_2,4,12,-1,-1,0.617,-0.07037037,-0.380555556,1,0,0,2.3079,Pegmatite_rect,6,2.308,0,7,0,7,0,1,,,,,,,,,,,,,
6643ad1d6324582f8867c01a,TCR,2024-06-25_14h31.36.751,LearnStrategy,2023.2.3,Win32,144.9275362,3,1,9,0.071296296,-0.012037037,1,0,0,0.5132,rock_grid_rect_2,1,09,-1,-1,0.513,0.159259259,-0.237962963,1,0,0,0.4954,Diorite_rect,3,0.495,0,8,0,8,0,1,,,,,,,,,,,,,
6643ad1d6324582f8867c01a,TCR,2024-06-25_14h31.36.751,LearnStrategy,2023.2.3,Win32,144.9275362,3,1,10,0.10462963,-0.023148148,1,0,0,0.4438,rock_grid_rect_2,1,05,-1,-1,0.444,0.332407407,-0.237962963,1,0,0,0.6575,Gabbro_rect,4,0.657,0,9,0,9,0,1,,,,,,,,,,,,,
6643ad1d6324582f8867c01a,TCR,2024-06-25_14h31.36.751,LearnStrategy,2023.2.3,Win32,144.9275362,3,1,11,0.05,0.00462963,1,0,0,0.4923,rock_grid_rect_2,7,04,-1,-1,0.492,-0.12037037,-0.230555556,1,0,0,0.6902,Basalt_rect,2,0.69,0,10,0,10,0,1,,,,,,,,,,,,,
6643ad1d6324582f8867c01a,TCR,2024-06-25_14h31.36.751,LearnStrategy,2023.2.3,Win32,144.9275362,3,1,12,0.04537037,-0.017592593,1,0,0,0.4505,rock_grid_rect_2,7,13,-1,-1,0.45,-0.294444444,-0.396296296,1,0,0,0.7873,Obsidian_rect,5,0.787,0,11,0,11,0,1,,,,,,,,,,,,,
6643ad1d6324582f8867c01a,TCR,2024-06-25_14h31.36.751,LearnStrategy,2023.2.3,Win32,144.9275362,3,1,13,0.031481481,-0.024074074,1,0,0,0.7006,rock_grid_rect_2,8,08,-1,-1,0.701,-0.127777778,-0.25462963,1,0,0,1.1048,Basalt_rect,2,1.105,0,12,0,12,0,1,,,,,,,,,,,,,
6643ad1d6324582f8867c01a,TCR,2024-06-25_14h31.36.751,LearnStrategy,2023.2.3,Win32,144.9275362,3,1,14,0.027777778,-0.021296296,1,0,0,0.4645,rock_grid_rect_2,4,13,-1,-1,0.465,0.341666667,-0.380555556,1,0,0,0.8512,Pumice_rect,8,0.851,0,13,0,13,0,1,,,,,,,,,,,,,
6643ad1d6324582f8867c01a,TCR,2024-06-25_14h31.36.751,LearnStrategy,2023.2.3,Win32,144.9275362,3,1,15,0.125925926,0.014814815,1,0,0,0.7908,rock_grid_rect_2,5,07,-1,-1,0.791,0.175,-0.398148148,1,0,0,0.8431,Peridotite_rect,7,0.843,0,14,0,14,0,1,,,,,,,,,,,,,
6643ad1d6324582f8867c01a,TCR,2024-06-25_14h31.36.751,LearnStrategy,2023.2.3,Win32,144.9275362,3,1,16,0.111111111,-0.009259259,1,0,0,0.7076,rock_grid_rect_2,2,14,-1,-1,0.708,0.37037037,-0.230555556,1,0,0,1.1666,Gabbro_rect,4,1.167,0,15,0,15,0,1,,,,,,,,,,,,,
6643ad1d6324582f8867c01a,TCR,2024-06-25_14h31.36.751,LearnStrategy,2023.2.3,Win32,144.9275362,3,2,1,,,,,,,,6,13,,,,,,,,,,,3,8.469,0,,,,,,0.119444444,-0.250925926,1,0,0,8.4689,Diorite_rect,0,0,0,0,1,
6643ad1d6324582f8867c01a,TCR,2024-06-25_14h31.36.751,LearnStrategy,2023.2.3,Win32,144.9275362,3,2,2,,,,,,,,7,07,,,,,,,,,,,2,0.824,0,,,,,,-0.076851852,-0.247222222,1,0,0,0.8239,Basalt_rect,1,0,1,0,1,
6643ad1d6324582f8867c01a,TCR,2024-06-25_14h31.36.751,LearnStrategy,2023.2.3,Win32,144.9275362,3,2,3,,,,,,,,1,02,,,,,,,,,,,4,1.037,0,,,,,,0.410185185,-0.260185185,1,0,0,1.0369,Gabbro_rect,2,0,2,0,1,
6643ad1d6324582f8867c01a,TCR,2024-06-25_14h31.36.751,LearnStrategy,2023.2.3,Win32,144.9275362,3,2,4,,,,,,,,3,09,,,,,,,,,,,6,1.199,0,,,,,,-0.086111111,-0.412037037,1,0,0,1.1989,Pegmatite_rect,3,0,3,0,1,
6643ad1d6324582f8867c01a,TCR,2024-06-25_14h31.36.751,LearnStrategy,2023.2.3,Win32,144.9275362,3,2,5,,,,,,,,8,10,,,,,,,,,,,7,1.063,0,,,,,,0.151851852,-0.411111111,1,0,0,1.0625,Peridotite_rect,4,0,4,0,1,
6643ad1d6324582f8867c01a,TCR,2024-06-25_14h31.36.751,LearnStrategy,2023.2.3,Win32,144.9275362,3,2,6,,,,,,,,3,11,,,,,,,,,,,1,1.462,0,,,,,,-0.319444444,-0.258333333,1,0,0,1.4616,Andesite_rect,5,0,5,0,1,
6643ad1d6324582f8867c01a,TCR,2024-06-25_14h31.36.751,LearnStrategy,2023.2.3,Win32,144.9275362,3,2,7,,,,,,,,7,12,,,,,,,,,,,6,2.627,0,,,,,,-0.103703704,-0.408333333,1,0,0,2.6272,Pegmatite_rect,6,0,6,0,1,
6643ad1d6324582f8867c01a,TCR,2024-06-25_14h31.36.751,LearnStrategy,2023.2.3,Win32,144.9275362,3,2,8,,,,,,,,5,14,,,,,,,,,,,5,0.957,1,,,,,,-0.360185185,-0.39537037,1,0,0,0.9568,Obsidian_rect,7,0,7,0,1,
6643ad1d6324582f8867c01a,TCR,2024-06-25_14h31.36.751,LearnStrategy,2023.2.3,Win32,144.9275362,3,2,9,,,,,,,,2,08,,,,,,,,,,,4,3.473,0,,,,,,0.362962963,-0.27037037,1,0,0,3.4732,Gabbro_rect,8,0,8,0,1,
6643ad1d6324582f8867c01a,TCR,2024-06-25_14h31.36.751,LearnStrategy,2023.2.3,Win32,144.9275362,3,2,10,,,,,,,,8,03,,,,,,,,,,,3,1.382,0,,,,,,0.167592593,-0.268518519,1,0,0,1.3825,Diorite_rect,9,0,9,0,1,
6643ad1d6324582f8867c01a,TCR,2024-06-25_14h31.36.751,LearnStrategy,2023.2.3,Win32,144.9275362,3,2,11,,,,,,,,2,10,,,,,,,,,,,5,1.193,0,,,,,,-0.360185185,-0.385185185,1,0,0,1.1933,Obsidian_rect,10,0,10,0,1,
6643ad1d6324582f8867c01a,TCR,2024-06-25_14h31.36.751,LearnStrategy,2023.2.3,Win32,144.9275362,3,2,12,,,,,,,,4,03,,,,,,,,,,,2,1.308,0,,,,,,-0.185185185,-0.249074074,1,0,0,1.3081,Basalt_rect,11,0,11,0,1,
6643ad1d6324582f8867c01a,TCR,2024-06-25_14h31.36.751,LearnStrategy,2023.2.3,Win32,144.9275362,3,2,13,,,,,,,,4,05,,,,,,,,,,,7,1.752,0,,,,,,0.119444444,-0.387037037,1,0,0,1.7523,Peridotite_rect,12,0,12,0,1,
6643ad1d6324582f8867c01a,TCR,2024-06-25_14h31.36.751,LearnStrategy,2023.2.3,Win32,144.9275362,3,2,14,,,,,,,,1,04,,,,,,,,,,,3,1.339,0,,,,,,0.166666667,-0.260185185,1,0,0,1.3388,Diorite_rect,13,0,13,0,1,
6643ad1d6324582f8867c01a,TCR,2024-06-25_14h31.36.751,LearnStrategy,2023.2.3,Win32,144.9275362,3,2,15,,,,,,,,6,05,,,,,,,,,,,5,0.981,0,,,,,,-0.365740741,-0.409259259,1,0,0,0.9814,Obsidian_rect,14,0,14,0,1,
6643ad1d6324582f8867c01a,TCR,2024-06-25_14h31.36.751,LearnStrategy,2023.2.3,Win32,144.9275362,3,2,16,,,,,,,,5,11,,,,,,,,,,,5,0.739,1,,,,,,-0.422222222,-0.401851852,1,0,0,0.7386,Obsidian_rect,15,0,15,0,1,
6643ad1d6324582f8867c01a,TCR,2024-06-25_14h31.36.751,LearnStrategy,2023.2.3,Win32,144.9275362,4,1,1,0.144444444,0.019444444,1,0,0,0.9161,rock_grid_rect_2,6,10,-1,-1,0.916,0.348148148,-0.268518519,1,0,0,1.5786,Gabbro_rect,4,1.579,0,0,0,0,0,1,,,,,,,,,,,,,
6643ad1d6324582f8867c01a,TCR,2024-06-25_14h31.36.751,LearnStrategy,2023.2.3,Win32,144.9275362,4,1,2,0.088888889,-0.011111111,1,0,0,0.6936,rock_grid_rect_2,6,10,-1,-1,0.694,0.175,-0.4,1,0,0,1.1742,Peridotite_rect,7,1.174,0,1,0,1,0,1,,,,,,,,,,,,,
6643ad1d6324582f8867c01a,TCR,2024-06-25_14h31.36.751,LearnStrategy,2023.2.3,Win32,144.9275362,4,1,3,0.068518519,-0.010185185,1,0,0,0.6875,rock_grid_rect_2,2,14,-1,-1,0.688,-0.067592593,-0.246296296,1,0,0,0.7169,Basalt_rect,2,0.717,1,2,0,2,0,1,,,,,,,,,,,,,
6643ad1d6324582f8867c01a,TCR,2024-06-25_14h31.36.751,LearnStrategy,2023.2.3,Win32,144.9275362,4,1,4,0.082407407,0.007407407,1,0,0,0.5896,rock_grid_rect_2,7,10,-1,-1,0.59,-0.089814815,-0.396296296,1,0,0,1.3308,Pegmatite_rect,6,1.331,0,3,0,3,0,1,,,,,,,,,,,,,
6643ad1d6324582f8867c01a,TCR,2024-06-25_14h31.36.751,LearnStrategy,2023.2.3,Win32,144.9275362,4,1,5,0.062962963,-0.012037037,1,0,0,0.527,rock_grid_rect_2,4,09,-1,-1,0.527,-0.365740741,-0.249074074,1,0,0,0.6697,Andesite_rect,1,0.67,0,4,0,4,0,1,,,,,,,,,,,,,
6643ad1d6324582f8867c01a,TCR,2024-06-25_14h31.36.751,LearnStrategy,2023.2.3,Win32,144.9275362,4,1,6,0.063888889,-0.012962963,1,0,0,0.4791,rock_grid_rect_2,8,16,-1,-1,0.479,0.118518519,-0.264814815,1,0,0,0.4839,Diorite_rect,3,0.484,0,5,0,5,0,1,,,,,,,,,,,,,
6643ad1d6324582f8867c01a,TCR,2024-06-25_14h31.36.751,LearnStrategy,2023.2.3,Win32,144.9275362,4,1,7,0.065740741,-0.001851852,1,0,0,0.4506,rock_grid_rect_2,3,15,-1,-1,0.451,0.315740741,-0.4,1,0,0,1.4265,Pumice_rect,8,1.427,0,6,0,6,0,1,,,,,,,,,,,,,
6643ad1d6324582f8867c01a,TCR,2024-06-25_14h31.36.751,LearnStrategy,2023.2.3,Win32,144.9275362,4,1,8,0.107407407,-0.009259259,1,0,0,0.4507,rock_grid_rect_2,1,01,-1,-1,0.451,0.087037037,-0.418518519,1,0,0,1.5661,Peridotite_rect,7,1.566,0,7,0,7,0,1,,,,,,,,,,,,,
6643ad1d6324582f8867c01a,TCR,2024-06-25_14h31.36.751,LearnStrategy,2023.2.3,Win32,144.9275362,4,1,9,0.116666667,0.012962963,1,0,0,0.5896,rock_grid_rect_2,3,12,-1,-1,0.59,-0.068518519,-0.39537037,1,0,0,1.0582,Pegmatite_rect,6,1.058,0,8,0,8,0,1,,,,,,,,,,,,,
6643ad1d6324582f8867c01a,TCR,2024-06-25_14h31.36.751,LearnStrategy,2023.2.3,Win32,144.9275362,4,1,10,0.065740741,-0.00462963,1,0,0,0.4784,rock_grid_rect_2,1,10,-1,-1,0.478,-0.063888889,-0.261111111,1,0,0,2.3175,Basalt_rect,2,2.317,0,9,0,9,0,1,,,,,,,,,,,,,
6643ad1d6324582f8867c01a,TCR,2024-06-25_14h31.36.751,LearnStrategy,2023.2.3,Win32,144.9275362,4,1,11,0.05,-0.012037037,1,0,0,0.527,rock_grid_rect_2,2,11,-1,-1,0.527,0.406481481,-0.400925926,1,0,0,0.8407,Pumice_rect,8,0.841,0,10,0,10,0,1,,,,,,,,,,,,,
6643ad1d6324582f8867c01a,TCR,2024-06-25_14h31.36.751,LearnStrategy,2023.2.3,Win32,144.9275362,4,1,12,0.052777778,-0.000925926,1,0,0,0.6241,rock_grid_rect_2,8,13,-1,-1,0.624,-0.34537037,-0.248148148,1,0,0,0.6945,Andesite_rect,1,0.695,0,11,0,11,0,1,,,,,,,,,,,,,
6643ad1d6324582f8867c01a,TCR,2024-06-25_14h31.36.751,LearnStrategy,2023.2.3,Win32,144.9275362,4,1,13,0.085185185,-0.012037037,1,0,0,0.5617,rock_grid_rect_2,5,07,-1,-1,0.562,0.382407407,-0.249074074,1,0,0,0.496,Gabbro_rect,4,0.496,0,12,0,12,0,1,,,,,,,,,,,,,
6643ad1d6324582f8867c01a,TCR,2024-06-25_14h31.36.751,LearnStrategy,2023.2.3,Win32,144.9275362,4,1,14,0.037037037,-0.015740741,1,0,0,0.4436,rock_grid_rect_2,7,04,-1,-1,0.444,0.064814815,-0.256481481,1,0,0,1.8527,Diorite_rect,3,1.853,0,13,0,13,0,1,,,,,,,,,,,,,
6643ad1d6324582f8867c01a,TCR,2024-06-25_14h31.36.751,LearnStrategy,2023.2.3,Win32,144.9275362,4,1,15,0.090740741,-0.005555556,1,0,0,0.5269,rock_grid_rect_2,4,10,-1,-1,0.527,-0.139814815,-0.266666667,1,0,0,1.4315,Basalt_rect,2,1.431,0,14,0,14,0,1,,,,,,,,,,,,,
6643ad1d6324582f8867c01a,TCR,2024-06-25_14h31.36.751,LearnStrategy,2023.2.3,Win32,144.9275362,4,1,16,0.096296296,0,1,0,0,0.5821,rock_grid_rect_2,2,12,-1,-1,0.582,0.349074074,-0.243518519,1,0,0,1.6177,Gabbro_rect,4,1.618,0,15,0,15,0,1,,,,,,,,,,,,,
6643ad1d6324582f8867c01a,TCR,2024-06-25_14h31.36.751,LearnStrategy,2023.2.3,Win32,144.9275362,4,2,1,,,,,,,,2,01,,,,,,,,,,,2,1.205,1,,,,,,-0.069444444,-0.260185185,1,0,0,1.2051,Basalt_rect,0,0,0,0,1,
6643ad1d6324582f8867c01a,TCR,2024-06-25_14h31.36.751,LearnStrategy,2023.2.3,Win32,144.9275362,4,2,2,,,,,,,,3,11,,,,,,,,,,,7,1.5,0,,,,,,0.096296296,-0.387962963,1,0,0,1.4997,Peridotite_rect,1,0,1,0,1,
6643ad1d6324582f8867c01a,TCR,2024-06-25_14h31.36.751,LearnStrategy,2023.2.3,Win32,144.9275362,4,2,3,,,,,,,,5,09,,,,,,,,,,,5,0.835,1,,,,,,-0.434259259,-0.387037037,1,0,0,0.835,Obsidian_rect,2,0,2,0,1,
6643ad1d6324582f8867c01a,TCR,2024-06-25_14h31.36.751,LearnStrategy,2023.2.3,Win32,144.9275362,4,2,4,,,,,,,,8,03,,,,,,,,,,,4,1.738,0,,,,,,0.331481481,-0.252777778,1,0,0,1.7382,Gabbro_rect,3,0,3,0,1,
6643ad1d6324582f8867c01a,TCR,2024-06-25_14h31.36.751,LearnStrategy,2023.2.3,Win32,144.9275362,4,2,5,,,,,,,,7,15,,,,,,,,,,,7,2.188,1,,,,,,0.184259259,-0.387962963,1,0,0,2.188,Peridotite_rect,4,0,4,0,1,
6643ad1d6324582f8867c01a,TCR,2024-06-25_14h31.36.751,LearnStrategy,2023.2.3,Win32,144.9275362,4,2,6,,,,,,,,1,11,,,,,,,,,,,2,1.026,0,,,,,,-0.085185185,-0.246296296,1,0,0,1.0263,Basalt_rect,5,0,5,0,1,
6643ad1d6324582f8867c01a,TCR,2024-06-25_14h31.36.751,LearnStrategy,2023.2.3,Win32,144.9275362,4,2,7,,,,,,,,4,01,,,,,,,,,,,2,1.343,0,,,,,,-0.073148148,-0.253703704,1,0,0,1.3428,Basalt_rect,6,0,6,0,1,
6643ad1d6324582f8867c01a,TCR,2024-06-25_14h31.36.751,LearnStrategy,2023.2.3,Win32,144.9275362,4,2,8,,,,,,,,3,14,,,,,,,,,,,8,0.775,0,,,,,,0.317592593,-0.409259259,1,0,0,0.7748,Pumice_rect,7,0,7,0,1,
6643ad1d6324582f8867c01a,TCR,2024-06-25_14h31.36.751,LearnStrategy,2023.2.3,Win32,144.9275362,4,2,9,,,,,,,,4,08,,,,,,,,,,,7,1.342,0,,,,,,0.187037037,-0.403703704,1,0,0,1.3423,Peridotite_rect,8,0,8,0,1,
6643ad1d6324582f8867c01a,TCR,2024-06-25_14h31.36.751,LearnStrategy,2023.2.3,Win32,144.9275362,4,2,10,,,,,,,,1,06,,,,,,,,,,,3,1.228,0,,,,,,0.160185185,-0.269444444,1,0,0,1.2277,Diorite_rect,9,0,9,0,1,
6643ad1d6324582f8867c01a,TCR,2024-06-25_14h31.36.751,LearnStrategy,2023.2.3,Win32,144.9275362,4,2,11,,,,,,,,5,05,,,,,,,,,,,5,0.85,1,,,,,,-0.406481481,-0.391666667,1,0,0,0.8502,Obsidian_rect,10,0,10,0,1,
6643ad1d6324582f8867c01a,TCR,2024-06-25_14h31.36.751,LearnStrategy,2023.2.3,Win32,144.9275362,4,2,12,,,,,,,,2,04,,,,,,,,,,,2,1.082,1,,,,,,-0.082407407,-0.261111111,1,0,0,1.0821,Basalt_rect,11,0,11,0,1,
6643ad1d6324582f8867c01a,TCR,2024-06-25_14h31.36.751,LearnStrategy,2023.2.3,Win32,144.9275362,4,2,13,,,,,,,,7,02,,,,,,,,,,,1,0.864,0,,,,,,-0.35462963,-0.261111111,1,0,0,0.8637,Andesite_rect,12,0,12,0,1,
6643ad1d6324582f8867c01a,TCR,2024-06-25_14h31.36.751,LearnStrategy,2023.2.3,Win32,144.9275362,4,2,14,,,,,,,,6,06,,,,,,,,,,,4,2.088,0,,,,,,0.342592593,-0.264814815,1,0,0,2.0876,Gabbro_rect,13,0,13,0,1,
6643ad1d6324582f8867c01a,TCR,2024-06-25_14h31.36.751,LearnStrategy,2023.2.3,Win32,144.9275362,4,2,15,,,,,,,,6,09,,,,,,,,,,,3,14.157,0,,,,,,0.151851852,-0.256481481,1,0,0,14.1572,Diorite_rect,14,0,14,0,1,
6643ad1d6324582f8867c01a,TCR,2024-06-25_14h31.36.751,LearnStrategy,2023.2.3,Win32,144.9275362,4,2,16,,,,,,,,8,06,,,,,,,,,,,1,1.904,0,,,,,,-0.346296296,-0.238888889,1,0,0,1.9039,Andesite_rect,15,0,15,0,1,
6643ad1d6324582f8867c01a,TCR,2024-06-25_14h31.36.751,LearnStrategy,2023.2.3,Win32,144.9275362,5,1,1,0.094444444,-0.012962963,1,0,0,0.9993,rock_grid_rect_2,4,09,-1,-1,0.999,0.090740741,-0.243518519,1,0,0,1.4101,Diorite_rect,3,1.41,0,0,0,0,0,1,,,,,,,,,,,,,
6643ad1d6324582f8867c01a,TCR,2024-06-25_14h31.36.751,LearnStrategy,2023.2.3,Win32,144.9275362,5,1,2,-0.014814815,0.003703704,1,0,0,1.2861,rock_grid_rect_2,2,05,-1,-1,1.286,-0.085185185,-0.260185185,1,0,0,2.6694,Basalt_rect,2,2.669,1,1,0,1,0,1,,,,,,,,,,,,,
6643ad1d6324582f8867c01a,TCR,2024-06-25_14h31.36.751,LearnStrategy,2023.2.3,Win32,144.9275362,5,1,3,0.011111111,-0.003703704,1,0,0,0.7005,rock_grid_rect_2,7,13,-1,-1,0.7,0.200925926,-0.261111111,1,0,0,1.1762,Diorite_rect,3,1.176,0,2,0,2,0,1,,,,,,,,,,,,,
6643ad1d6324582f8867c01a,TCR,2024-06-25_14h31.36.751,LearnStrategy,2023.2.3,Win32,144.9275362,5,1,4,0.087037037,-0.012962963,1,0,0,0.6728,rock_grid_rect_2,1,10,-1,-1,0.673,-0.34537037,-0.261111111,1,0,0,1.2944,Andesite_rect,1,1.294,1,3,0,3,0,1,,,,,,,,,,,,,
6643ad1d6324582f8867c01a,TCR,2024-06-25_14h31.36.751,LearnStrategy,2023.2.3,Win32,144.9275362,5,1,5,0.053703704,0.005555556,1,0,0,0.5062,rock_grid_rect_2,6,10,-1,-1,0.506,0.351851852,-0.237037037,1,0,0,1.0549,Gabbro_rect,4,1.055,0,4,0,4,0,1,,,,,,,,,,,,,
6643ad1d6324582f8867c01a,TCR,2024-06-25_14h31.36.751,LearnStrategy,2023.2.3,Win32,144.9275362,5,1,6,0.072222222,-0.008333333,1,0,0,0.5827,rock_grid_rect_2,2,09,-1,-1,0.583,-0.080555556,-0.266666667,1,0,0,1.3432,Basalt_rect,2,1.343,1,5,0,5,0,1,,,,,,,,,,,,,
6643ad1d6324582f8867c01a,TCR,2024-06-25_14h31.36.751,LearnStrategy,2023.2.3,Win32,144.9275362,5,1,7,0.031481481,-0.001851852,1,0,0,0.5339,rock_grid_rect_2,3,15,-1,-1,0.534,0.12037037,-0.398148148,1,0,0,0.8913,Peridotite_rect,7,0.891,0,6,0,6,0,1,,,,,,,,,,,,,
6643ad1d6324582f8867c01a,TCR,2024-06-25_14h31.36.751,LearnStrategy,2023.2.3,Win32,144.9275362,5,1,8,0.106481481,-0.000925926,1,0,0,0.5756,rock_grid_rect_2,3,12,-1,-1,0.576,-0.106481481,-0.388888889,1,0,0,0.8731,Pegmatite_rect,6,0.873,0,7,0,7,0,1,,,,,,,,,,,,,
6643ad1d6324582f8867c01a,TCR,2024-06-25_14h31.36.751,LearnStrategy,2023.2.3,Win32,144.9275362,5,1,9,0.073148148,-0.009259259,1,0,0,0.6032,rock_grid_rect_2,8,16,-1,-1,0.603,0.406481481,-0.409259259,1,0,0,1.1272,Pumice_rect,8,1.127,1,8,0,8,0,1,,,,,,,,,,,,,
6643ad1d6324582f8867c01a,TCR,2024-06-25_14h31.36.751,LearnStrategy,2023.2.3,Win32,144.9275362,5,1,10,0.076851852,0.014814815,1,0,0,0.5617,rock_grid_rect_2,4,10,-1,-1,0.562,-0.125925926,-0.269444444,1,0,0,3.1204,Basalt_rect,2,3.12,0,9,0,9,0,1,,,,,,,,,,,,,
6643ad1d6324582f8867c01a,TCR,2024-06-25_14h31.36.751,LearnStrategy,2023.2.3,Win32,144.9275362,5,1,11,-0.001851852,0.00462963,1,0,0,0.5965,rock_grid_rect_2,7,16,-1,-1,0.597,0.147222222,-0.236111111,1,0,0,0.9888,Diorite_rect,3,0.989,0,10,0,10,0,1,,,,,,,,,,,,,
6643ad1d6324582f8867c01a,TCR,2024-06-25_14h31.36.751,LearnStrategy,2023.2.3,Win32,144.9275362,5,1,12,0.103703704,0.001851852,1,0,0,7.8465,rock_grid_rect_2,3,08,-1,-1,7.847,-0.196296296,-0.400925926,1,0,0,1.7704,Pegmatite_rect,6,1.77,0,11,0,11,0,1,,,,,,,,,,,,,
6643ad1d6324582f8867c01a,TCR,2024-06-25_14h31.36.751,LearnStrategy,2023.2.3,Win32,144.9275362,5,1,13,-0.001851852,0.000925926,1,0,0,0.6798,rock_grid_rect_2,8,15,-1,-1,0.68,0.175,-0.259259259,1,0,0,1.6075,Diorite_rect,3,1.607,0,12,0,12,0,1,,,,,,,,,,,,,
6643ad1d6324582f8867c01a,TCR,2024-06-25_14h31.36.751,LearnStrategy,2023.2.3,Win32,144.9275362,5,1,14,0.035185185,-0.007407407,1,0,0,0.9505,rock_grid_rect_2,5,06,-1,-1,0.95,-0.412962963,-0.402777778,1,0,0,1.4822,Obsidian_rect,5,1.482,1,13,0,13,0,1,,,,,,,,,,,,,
6643ad1d6324582f8867c01a,TCR,2024-06-25_14h31.36.751,LearnStrategy,2023.2.3,Win32,144.9275362,5,1,15,0.037962963,-0.017592593,1,0,0,0.666,rock_grid_rect_2,1,16,-1,-1,0.666,-0.043518519,-0.25,1,0,0,1.3599,Basalt_rect,2,1.36,0,14,0,14,0,1,,,,,,,,,,,,,
6643ad1d6324582f8867c01a,TCR,2024-06-25_14h31.36.751,LearnStrategy,2023.2.3,Win32,144.9275362,5,1,16,0.060185185,0.010185185,1,0,0,0.4643,rock_grid_rect_2,6,03,-1,-1,0.464,0.092592593,-0.384259259,1,0,0,1.107,Peridotite_rect,7,1.107,0,15,0,15,0,1,,,,,,,,,,,,,
6643ad1d6324582f8867c01a,TCR,2024-06-25_14h31.36.751,LearnStrategy,2023.2.3,Win32,144.9275362,5,2,1,,,,,,,,6,12,,,,,,,,,,,3,1.961,0,,,,,,0.138888889,-0.260185185,1,0,0,1.9614,Diorite_rect,0,0,0,0,1,
6643ad1d6324582f8867c01a,TCR,2024-06-25_14h31.36.751,LearnStrategy,2023.2.3,Win32,144.9275362,5,2,2,,,,,,,,8,02,,,,,,,,,,,4,1.083,0,,,,,,0.326851852,-0.235185185,1,0,0,1.0827,Gabbro_rect,1,0,1,0,1,
6643ad1d6324582f8867c01a,TCR,2024-06-25_14h31.36.751,LearnStrategy,2023.2.3,Win32,144.9275362,5,2,3,,,,,,,,8,05,,,,,,,,,,,8,1.324,1,,,,,,0.349074074,-0.415740741,1,0,0,1.3241,Pumice_rect,2,0,2,0,1,
6643ad1d6324582f8867c01a,TCR,2024-06-25_14h31.36.751,LearnStrategy,2023.2.3,Win32,144.9275362,5,2,4,,,,,,,,5,04,,,,,,,,,,,5,0.892,1,,,,,,-0.421296296,-0.40462963,1,0,0,0.892,Obsidian_rect,3,0,3,0,1,
6643ad1d6324582f8867c01a,TCR,2024-06-25_14h31.36.751,LearnStrategy,2023.2.3,Win32,144.9275362,5,2,5,,,,,,,,6,05,,,,,,,,,,,5,1.329,0,,,,,,-0.393518519,-0.39537037,1,0,0,1.3293,Obsidian_rect,4,0,4,0,1,
6643ad1d6324582f8867c01a,TCR,2024-06-25_14h31.36.751,LearnStrategy,2023.2.3,Win32,144.9275362,5,2,6,,,,,,,,3,06,,,,,,,,,,,6,1.212,0,,,,,,-0.141666667,-0.409259259,1,0,0,1.2117,Pegmatite_rect,5,0,5,0,1,
6643ad1d6324582f8867c01a,TCR,2024-06-25_14h31.36.751,LearnStrategy,2023.2.3,Win32,144.9275362,5,2,7,,,,,,,,4,15,,,,,,,,,,,1,0.986,0,,,,,,-0.362037037,-0.261111111,1,0,0,0.9859,Andesite_rect,6,0,6,0,1,
6643ad1d6324582f8867c01a,TCR,2024-06-25_14h31.36.751,LearnStrategy,2023.2.3,Win32,144.9275362,5,2,8,,,,,,,,3,09,,,,,,,,,,,3,1.417,1,,,,,,0.184259259,-0.258333333,1,0,0,1.4168,Diorite_rect,7,0,7,0,1,
6643ad1d6324582f8867c01a,TCR,2024-06-25_14h31.36.751,LearnStrategy,2023.2.3,Win32,144.9275362,5,2,9,,,,,,,,7,06,,,,,,,,,,,7,1.134,1,,,,,,0.124074074,-0.382407407,1,0,0,1.1341,Peridotite_rect,8,0,8,0,1,
6643ad1d6324582f8867c01a,TCR,2024-06-25_14h31.36.751,LearnStrategy,2023.2.3,Win32,144.9275362,5,2,10,,,,,,,,7,07,,,,,,,,,,,6,1.854,0,,,,,,-0.109259259,-0.412037037,1,0,0,1.8538,Pegmatite_rect,9,0,9,0,1,
6643ad1d6324582f8867c01a,TCR,2024-06-25_14h31.36.751,LearnStrategy,2023.2.3,Win32,144.9275362,5,2,11,,,,,,,,1,02,,,,,,,,,,,8,1.419,0,,,,,,0.367592593,-0.398148148,1,0,0,1.4191,Pumice_rect,10,0,10,0,1,
6643ad1d6324582f8867c01a,TCR,2024-06-25_14h31.36.751,LearnStrategy,2023.2.3,Win32,144.9275362,5,2,12,,,,,,,,2,10,,,,,,,,,,,5,0.926,0,,,,,,-0.369444444,-0.405555556,1,0,0,0.926,Obsidian_rect,11,0,11,0,1,
6643ad1d6324582f8867c01a,TCR,2024-06-25_14h31.36.751,LearnStrategy,2023.2.3,Win32,144.9275362,5,2,13,,,,,,,,5,10,,,,,,,,,,,5,0.614,1,,,,,,-0.366666667,-0.405555556,1,0,0,0.6137,Obsidian_rect,12,0,12,0,1,
6643ad1d6324582f8867c01a,TCR,2024-06-25_14h31.36.751,LearnStrategy,2023.2.3,Win32,144.9275362,5,2,14,,,,,,,,4,05,,,,,,,,,,,3,0.885,0,,,,,,0.130555556,-0.258333333,1,0,0,0.885,Diorite_rect,13,0,13,0,1,
6643ad1d6324582f8867c01a,TCR,2024-06-25_14h31.36.751,LearnStrategy,2023.2.3,Win32,144.9275362,5,2,15,,,,,,,,1,03,,,,,,,,,,,4,0.663,0,,,,,,0.425,-0.263888889,1,0,0,0.6628,Gabbro_rect,14,0,14,0,1,
6643ad1d6324582f8867c01a,TCR,2024-06-25_14h31.36.751,LearnStrategy,2023.2.3,Win32,144.9275362,5,2,16,,,,,,,,2,16,,,,,,,,,,,1,1.725,0,,,,,,-0.359259259,-0.260185185,1,0,0,1.725,Andesite_rect,15,0,15,0,1,
6643ad1d6324582f8867c01a,TCR,2024-06-25_14h31.36.751,LearnStrategy,2023.2.3,Win32,144.9275362,6,1,1,0.100925926,-0.008333333,1,0,0,0.8397,rock_grid_rect_2,4,10,-1,-1,0.84,-0.114814815,-0.265740741,1,0,0,3.4467,Basalt_rect,2,3.447,0,0,0,0,0,1,,,,,,,,,,,,,
6643ad1d6324582f8867c01a,TCR,2024-06-25_14h31.36.751,LearnStrategy,2023.2.3,Win32,144.9275362,6,1,2,0.033333333,-0.015740741,1,0,0,0.659,rock_grid_rect_2,2,05,-1,-1,0.659,-0.062037037,-0.251851852,1,0,0,2.1841,Basalt_rect,2,2.184,1,1,0,1,0,1,,,,,,,,,,,,,
6643ad1d6324582f8867c01a,TCR,2024-06-25_14h31.36.751,LearnStrategy,2023.2.3,Win32,144.9275362,6,1,3,0.026851852,0.014814815,1,0,0,0.5477,rock_grid_rect_2,6,08,-1,-1,0.548,-0.346296296,-0.394444444,1,0,0,1.1149,Obsidian_rect,5,1.115,0,2,0,2,0,1,,,,,,,,,,,,,
6643ad1d6324582f8867c01a,TCR,2024-06-25_14h31.36.751,LearnStrategy,2023.2.3,Win32,144.9275362,6,1,4,0.052777778,-0.005555556,1,0,0,0.7842,rock_grid_rect_2,6,03,-1,-1,0.784,0.115740741,-0.412037037,1,0,0,1.2003,Peridotite_rect,7,1.2,0,3,0,3,0,1,,,,,,,,,,,,,
6643ad1d6324582f8867c01a,TCR,2024-06-25_14h31.36.751,LearnStrategy,2023.2.3,Win32,144.9275362,6,1,5,0.081481481,-0.011111111,1,0,0,0.5757,rock_grid_rect_2,7,05,-1,-1,0.576,-0.097222222,-0.40462963,1,0,0,2.126,Pegmatite_rect,6,2.126,0,4,0,4,0,1,,,,,,,,,,,,,
6643ad1d6324582f8867c01a,TCR,2024-06-25_14h31.36.751,LearnStrategy,2023.2.3,Win32,144.9275362,6,1,6,0.069444444,-0.012037037,1,0,0,0.4922,rock_grid_rect_2,8,04,-1,-1,0.492,0.352777778,-0.408333333,1,0,0,0.9125,Pumice_rect,8,0.912,1,5,0,5,0,1,,,,,,,,,,,,,
6643ad1d6324582f8867c01a,TCR,2024-06-25_14h31.36.751,LearnStrategy,2023.2.3,Win32,144.9275362,6,1,7,0.116666667,-0.022222222,1,0,0,0.4922,rock_grid_rect_2,1,07,-1,-1,0.492,0.382407407,-0.265740741,1,0,0,0.9053,Gabbro_rect,4,0.905,0,6,0,6,0,1,,,,,,,,,,,,,
6643ad1d6324582f8867c01a,TCR,2024-06-25_14h31.36.751,LearnStrategy,2023.2.3,Win32,144.9275362,6,1,8,0.086111111,0.023148148,1,0,0,0.4507,rock_grid_rect_2,4,09,-1,-1,0.451,0.041666667,-0.260185185,1,0,0,1.6483,Diorite_rect,3,1.648,0,7,0,7,0,1,,,,,,,,,,,,,
6643ad1d6324582f8867c01a,TCR,2024-06-25_14h31.36.751,LearnStrategy,2023.2.3,Win32,144.9275362,6,1,9,0.041666667,0.010185185,1,0,0,0.3883,rock_grid_rect_2,1,16,-1,-1,0.388,-0.337962963,-0.261111111,1,0,0,1.1779,Andesite_rect,1,1.178,1,8,0,8,0,1,,,,,,,,,,,,,
6643ad1d6324582f8867c01a,TCR,2024-06-25_14h31.36.751,LearnStrategy,2023.2.3,Win32,144.9275362,6,1,10,0.033333333,-0.008333333,1,0,0,0.4645,rock_grid_rect_2,1,07,-1,-1,0.465,-0.39537037,-0.232407407,1,0,0,1.5877,Andesite_rect,1,1.588,1,9,0,9,0,1,,,,,,,,,,,,,
6643ad1d6324582f8867c01a,TCR,2024-06-25_14h31.36.751,LearnStrategy,2023.2.3,Win32,144.9275362,6,1,11,0.040740741,-0.009259259,1,0,0,0.5131,rock_grid_rect_2,2,12,-1,-1,0.513,0.369444444,-0.262037037,1,0,0,1.007,Gabbro_rect,4,1.007,0,10,0,10,0,1,,,,,,,,,,,,,
6643ad1d6324582f8867c01a,TCR,2024-06-25_14h31.36.751,LearnStrategy,2023.2.3,Win32,144.9275362,6,1,12,0.097222222,-0.014814815,1,0,0,0.457,rock_grid_rect_2,7,10,-1,-1,0.457,0.119444444,-0.239814815,1,0,0,1.0395,Diorite_rect,3,1.04,0,11,0,11,0,1,,,,,,,,,,,,,
6643ad1d6324582f8867c01a,TCR,2024-06-25_14h31.36.751,LearnStrategy,2023.2.3,Win32,144.9275362,6,1,13,0.135185185,0.003703704,1,0,0,0.402,rock_grid_rect_2,8,15,-1,-1,0.402,0.419444444,-0.411111111,1,0,0,0.8763,Pumice_rect,8,0.876,1,12,0,12,0,1,,,,,,,,,,,,,
6643ad1d6324582f8867c01a,TCR,2024-06-25_14h31.36.751,LearnStrategy,2023.2.3,Win32,144.9275362,6,1,14,0.143518519,-0.02037037,1,0,0,0.4784,rock_grid_rect_2,6,10,-1,-1,0.478,0.136111111,-0.387037037,1,0,0,2.5543,Peridotite_rect,7,2.554,0,13,0,13,0,1,,,,,,,,,,,,,
6643ad1d6324582f8867c01a,TCR,2024-06-25_14h31.36.751,LearnStrategy,2023.2.3,Win32,144.9275362,6,1,15,0.077777778,0.013888889,1,0,0,0.4992,rock_grid_rect_2,3,10,-1,-1,0.499,0.15,-0.387962963,1,0,0,1.9492,Peridotite_rect,7,1.949,0,14,0,14,0,1,,,,,,,,,,,,,
6643ad1d6324582f8867c01a,TCR,2024-06-25_14h31.36.751,LearnStrategy,2023.2.3,Win32,144.9275362,6,1,16,0.073148148,-0.007407407,1,0,0,0.4646,rock_grid_rect_2,3,13,-1,-1,0.465,0.362037037,-0.242592593,1,0,0,1.2611,Gabbro_rect,4,1.261,0,15,0,15,0,1,,,,,,,,,,,,,
6643ad1d6324582f8867c01a,TCR,2024-06-25_14h31.36.751,LearnStrategy,2023.2.3,Win32,144.9275362,6,2,1,,,,,,,,4,03,,,,,,,,,,,2,1.294,0,,,,,,-0.116666667,-0.257407407,1,0,0,1.2942,Basalt_rect,0,0,0,0,1,
6643ad1d6324582f8867c01a,TCR,2024-06-25_14h31.36.751,LearnStrategy,2023.2.3,Win32,144.9275362,6,2,2,,,,,,,,5,11,,,,,,,,,,,5,1.135,1,,,,,,-0.406481481,-0.412037037,1,0,0,1.1347,Obsidian_rect,1,0,1,0,1,
6643ad1d6324582f8867c01a,TCR,2024-06-25_14h31.36.751,LearnStrategy,2023.2.3,Win32,144.9275362,6,2,3,,,,,,,,5,14,,,,,,,,,,,5,0.69,1,,,,,,-0.353703704,-0.390740741,1,0,0,0.6898,Obsidian_rect,2,0,2,0,1,
6643ad1d6324582f8867c01a,TCR,2024-06-25_14h31.36.751,LearnStrategy,2023.2.3,Win32,144.9275362,6,2,4,,,,,,,,8,14,,,,,,,,,,,8,1.069,1,,,,,,0.4,-0.409259259,1,0,0,1.0693,Pumice_rect,3,0,3,0,1,
6643ad1d6324582f8867c01a,TCR,2024-06-25_14h31.36.751,LearnStrategy,2023.2.3,Win32,144.9275362,6,2,5,,,,,,,,6,15,,,,,,,,,,,6,2.415,1,,,,,,-0.027777778,-0.412037037,1,0,0,2.4148,Pegmatite_rect,4,0,4,0,1,
6643ad1d6324582f8867c01a,TCR,2024-06-25_14h31.36.751,LearnStrategy,2023.2.3,Win32,144.9275362,6,2,6,,,,,,,,2,08,,,,,,,,,,,2,1.416,1,,,,,,-0.116666667,-0.261111111,1,0,0,1.4157,Basalt_rect,5,0,5,0,1,
6643ad1d6324582f8867c01a,TCR,2024-06-25_14h31.36.751,LearnStrategy,2023.2.3,Win32,144.9275362,6,2,7,,,,,,,,3,07,,,,,,,,,,,4,1.611,0,,,,,,0.348148148,-0.239814815,1,0,0,1.6109,Gabbro_rect,6,0,6,0,1,
6643ad1d6324582f8867c01a,TCR,2024-06-25_14h31.36.751,LearnStrategy,2023.2.3,Win32,144.9275362,6,2,8,,,,,,,,2,06,,,,,,,,,,,2,1.264,1,,,,,,-0.135185185,-0.247222222,1,0,0,1.2643,Basalt_rect,7,0,7,0,1,
6643ad1d6324582f8867c01a,TCR,2024-06-25_14h31.36.751,LearnStrategy,2023.2.3,Win32,144.9275362,6,2,9,,,,,,,,7,14,,,,,,,,,,,1,2.233,0,,,,,,-0.352777778,-0.267592593,1,0,0,2.233,Andesite_rect,8,0,8,0,1,
6643ad1d6324582f8867c01a,TCR,2024-06-25_14h31.36.751,LearnStrategy,2023.2.3,Win32,144.9275362,6,2,10,,,,,,,,4,11,,,,,,,,,,,1,0.956,0,,,,,,-0.416666667,-0.250925926,1,0,0,0.9564,Andesite_rect,9,0,9,0,1,
6643ad1d6324582f8867c01a,TCR,2024-06-25_14h31.36.751,LearnStrategy,2023.2.3,Win32,144.9275362,6,2,11,,,,,,,,1,14,,,,,,,,,,,3,1.176,0,,,,,,0.097222222,-0.253703704,1,0,0,1.1761,Diorite_rect,10,0,10,0,1,
6643ad1d6324582f8867c01a,TCR,2024-06-25_14h31.36.751,LearnStrategy,2023.2.3,Win32,144.9275362,6,2,12,,,,,,,,7,12,,,,,,,,,,,6,2.176,0,,,,,,-0.030555556,-0.39537037,1,0,0,2.1763,Pegmatite_rect,11,0,11,0,1,
6643ad1d6324582f8867c01a,TCR,2024-06-25_14h31.36.751,LearnStrategy,2023.2.3,Win32,144.9275362,6,2,13,,,,,,,,6,13,,,,,,,,,,,7,1.193,0,,,,,,0.046296296,-0.410185185,1,0,0,1.1926,Peridotite_rect,12,0,12,0,1,
6643ad1d6324582f8867c01a,TCR,2024-06-25_14h31.36.751,LearnStrategy,2023.2.3,Win32,144.9275362,6,2,14,,,,,,,,3,02,,,,,,,,,,,6,1.199,0,,,,,,-0.09537037,-0.415740741,1,0,0,1.1986,Pegmatite_rect,13,0,13,0,1,
6643ad1d6324582f8867c01a,TCR,2024-06-25_14h31.36.751,LearnStrategy,2023.2.3,Win32,144.9275362,6,2,15,,,,,,,,8,10,,,,,,,,,,,8,1.263,1,,,,,,0.44537037,-0.408333333,1,0,0,1.2634,Pumice_rect,14,0,14,0,1,
6643ad1d6324582f8867c01a,TCR,2024-06-25_14h31.36.751,LearnStrategy,2023.2.3,Win32,144.9275362,6,2,16,,,,,,,,1,04,,,,,,,,,,,8,0.56,0,,,,,,0.402777778,-0.408333333,1,0,0,0.5597,Pumice_rect,15,0,15,0,1,
6643ad1d6324582f8867c01a,TCR,2024-06-25_14h31.36.751,LearnStrategy,2023.2.3,Win32,144.9275362,7,1,1,0.021296296,-0.019444444,1,0,0,0.8118,rock_grid_rect_2,2,14,-1,-1,0.812,0.384259259,-0.409259259,1,0,0,2.073,Pumice_rect,8,2.073,0,0,0,0,0,1,,,,,,,,,,,,,
6643ad1d6324582f8867c01a,TCR,2024-06-25_14h31.36.751,LearnStrategy,2023.2.3,Win32,144.9275362,7,1,2,0.057407407,-0.006481481,1,0,0,0.6033,rock_grid_rect_2,7,04,-1,-1,0.603,0.14537037,-0.378703704,1,0,0,0.84,Peridotite_rect,7,0.84,1,1,0,1,0,1,,,,,,,,,,,,,
6643ad1d6324582f8867c01a,TCR,2024-06-25_14h31.36.751,LearnStrategy,2023.2.3,Win32,144.9275362,7,1,3,0.112037037,-0.008333333,1,0,0,0.6868,rock_grid_rect_2,1,05,-1,-1,0.687,-0.356481481,-0.25462963,1,0,0,2.5443,Andesite_rect,1,2.544,1,2,0,2,0,1,,,,,,,,,,,,,
6643ad1d6324582f8867c01a,TCR,2024-06-25_14h31.36.751,LearnStrategy,2023.2.3,Win32,144.9275362,7,1,4,0.047222222,-0.010185185,1,0,0,0.659,rock_grid_rect_2,4,09,-1,-1,0.659,0.106481481,-0.250925926,1,0,0,0.884,Diorite_rect,3,0.884,0,3,0,3,0,1,,,,,,,,,,,,,
6643ad1d6324582f8867c01a,TCR,2024-06-25_14h31.36.751,LearnStrategy,2023.2.3,Win32,144.9275362,7,1,5,0.05462963,-0.021296296,1,0,0,0.5061,rock_grid_rect_2,4,13,-1,-1,0.506,-0.155555556,-0.421296296,1,0,0,1.4721,Pegmatite_rect,6,1.472,0,4,0,4,0,1,,,,,,,,,,,,,
6643ad1d6324582f8867c01a,TCR,2024-06-25_14h31.36.751,LearnStrategy,2023.2.3,Win32,144.9275362,7,1,6,0.065740741,-0.003703704,1,0,0,0.7772,rock_grid_rect_2,3,12,-1,-1,0.777,0.169444444,-0.383333333,1,0,0,1.0506,Peridotite_rect,7,1.051,0,5,0,5,0,1,,,,,,,,,,,,,
6643ad1d6324582f8867c01a,TCR,2024-06-25_14h31.36.751,LearnStrategy,2023.2.3,Win32,144.9275362,7,1,7,0.112037037,0.016666667,1,0,0,0.5201,rock_grid_rect_2,6,07,-1,-1,0.52,-0.334259259,-0.386111111,1,0,0,0.9752,Obsidian_rect,5,0.975,0,6,0,6,0,1,,,,,,,,,,,,,
6643ad1d6324582f8867c01a,TCR,2024-06-25_14h31.36.751,LearnStrategy,2023.2.3,Win32,144.9275362,7,1,8,0.078703704,-0.011111111,1,0,0,0.6728,rock_grid_rect_2,8,08,-1,-1,0.673,0.366666667,-0.384259259,1,0,0,2.4491,Pumice_rect,8,2.449,1,7,0,7,0,1,,,,,,,,,,,,,
6643ad1d6324582f8867c01a,TCR,2024-06-25_14h31.36.751,LearnStrategy,2023.2.3,Win32,144.9275362,7,1,9,0.037037037,0.012962963,1,0,0,0.4437,rock_grid_rect_2,8,15,-1,-1,0.444,0.449074074,-0.412037037,1,0,0,1.329,Pumice_rect,8,1.329,1,8,0,8,0,1,,,,,,,,,,,,,
6643ad1d6324582f8867c01a,TCR,2024-06-25_14h31.36.751,LearnStrategy,2023.2.3,Win32,144.9275362,7,1,10,0.076851852,-0.010185185,1,0,0,0.5893,rock_grid_rect_2,1,16,-1,-1,0.589,-0.131481481,-0.233333333,1,0,0,1.4055,Basalt_rect,2,1.405,0,9,0,9,0,1,,,,,,,,,,,,,
6643ad1d6324582f8867c01a,TCR,2024-06-25_14h31.36.751,LearnStrategy,2023.2.3,Win32,144.9275362,7,1,11,0.055555556,-0.012962963,1,0,0,0.666,rock_grid_rect_2,3,10,-1,-1,0.666,0.382407407,-0.257407407,1,0,0,0.9888,Gabbro_rect,4,0.989,0,10,0,10,0,1,,,,,,,,,,,,,
6643ad1d6324582f8867c01a,TCR,2024-06-25_14h31.36.751,LearnStrategy,2023.2.3,Win32,144.9275362,7,1,12,0.141666667,0,1,0,0,0.6658,rock_grid_rect_2,6,08,-1,-1,0.666,0.189814815,-0.391666667,1,0,0,1.497,Peridotite_rect,7,1.497,0,11,0,11,0,1,,,,,,,,,,,,,
6643ad1d6324582f8867c01a,TCR,2024-06-25_14h31.36.751,LearnStrategy,2023.2.3,Win32,144.9275362,7,1,13,0.05,-0.005555556,1,0,0,0.6866,rock_grid_rect_2,3,08,-1,-1,0.687,0.163888889,-0.25462963,1,0,0,1.0913,Diorite_rect,3,1.091,1,12,0,12,0,1,,,,,,,,,,,,,
6643ad1d6324582f8867c01a,TCR,2024-06-25_14h31.36.751,LearnStrategy,2023.2.3,Win32,144.9275362,7,1,14,0.090740741,-0.002777778,1,0,0,0.7284,rock_grid_rect_2,1,01,-1,-1,0.728,-0.037962963,-0.247222222,1,0,0,0.9141,Basalt_rect,2,0.914,0,13,0,13,0,1,,,,,,,,,,,,,
6643ad1d6324582f8867c01a,TCR,2024-06-25_14h31.36.751,LearnStrategy,2023.2.3,Win32,144.9275362,7,1,15,0.096296296,0.012962963,1,0,0,0.7771,rock_grid_rect_2,4,10,-1,-1,0.777,-0.044444444,-0.263888889,1,0,0,1.8642,Basalt_rect,2,1.864,0,14,0,14,0,1,,,,,,,,,,,,,
6643ad1d6324582f8867c01a,TCR,2024-06-25_14h31.36.751,LearnStrategy,2023.2.3,Win32,144.9275362,7,1,16,0.036111111,0,1,0,0,0.5618,rock_grid_rect_2,7,04,-1,-1,0.562,0.350925926,-0.237037037,1,0,0,0.941,Gabbro_rect,4,0.941,0,15,0,15,0,1,,,,,,,,,,,,,
6643ad1d6324582f8867c01a,TCR,2024-06-25_14h31.36.751,LearnStrategy,2023.2.3,Win32,144.9275362,7,2,1,,,,,,,,1,04,,,,,,,,,,,8,4.194,0,,,,,,0.387037037,-0.381481481,1,0,0,4.1937,Pumice_rect,0,0,0,0,1,
6643ad1d6324582f8867c01a,TCR,2024-06-25_14h31.36.751,LearnStrategy,2023.2.3,Win32,144.9275362,7,2,2,,,,,,,,2,06,,,,,,,,,,,2,0.866,1,,,,,,-0.078703704,-0.236111111,1,0,0,0.8657,Basalt_rect,1,0,1,0,1,
6643ad1d6324582f8867c01a,TCR,2024-06-25_14h31.36.751,LearnStrategy,2023.2.3,Win32,144.9275362,7,2,3,,,,,,,,3,06,,,,,,,,,,,3,1.753,1,,,,,,0.089814815,-0.25,1,0,0,1.7525,Diorite_rect,2,0,2,0,1,
6643ad1d6324582f8867c01a,TCR,2024-06-25_14h31.36.751,LearnStrategy,2023.2.3,Win32,144.9275362,7,2,4,,,,,,,,4,05,,,,,,,,,,,7,1.537,0,,,,,,0.041666667,-0.389814815,1,0,0,1.5375,Peridotite_rect,3,0,3,0,1,
6643ad1d6324582f8867c01a,TCR,2024-06-25_14h31.36.751,LearnStrategy,2023.2.3,Win32,144.9275362,7,2,5,,,,,,,,4,11,,,,,,,,,,,2,0.998,0,,,,,,-0.081481481,-0.24537037,1,0,0,0.998,Basalt_rect,4,0,4,0,1,
6643ad1d6324582f8867c01a,TCR,2024-06-25_14h31.36.751,LearnStrategy,2023.2.3,Win32,144.9275362,7,2,6,,,,,,,,7,02,,,,,,,,,,,6,2.454,0,,,,,,-0.093518519,-0.39537037,1,0,0,2.4538,Pegmatite_rect,5,0,5,0,1,
6643ad1d6324582f8867c01a,TCR,2024-06-25_14h31.36.751,LearnStrategy,2023.2.3,Win32,144.9275362,7,2,7,,,,,,,,7,12,,,,,,,,,,,1,2.185,0,,,,,,-0.362962963,-0.246296296,1,0,0,2.1854,Andesite_rect,6,0,6,0,1,
6643ad1d6324582f8867c01a,TCR,2024-06-25_14h31.36.751,LearnStrategy,2023.2.3,Win32,144.9275362,7,2,8,,,,,,,,5,05,,,,,,,,,,,5,1.103,1,,,,,,-0.341666667,-0.382407407,1,0,0,1.1032,Obsidian_rect,7,0,7,0,1,
6643ad1d6324582f8867c01a,TCR,2024-06-25_14h31.36.751,LearnStrategy,2023.2.3,Win32,144.9275362,7,2,9,,,,,,,,6,06,,,,,,,,,,,4,3.441,0,,,,,,0.330555556,-0.260185185,1,0,0,3.4409,Gabbro_rect,8,0,8,0,1,
6643ad1d6324582f8867c01a,TCR,2024-06-25_14h31.36.751,LearnStrategy,2023.2.3,Win32,144.9275362,7,2,10,,,,,,,,8,05,,,,,,,,,,,8,0.859,1,,,,,,0.335185185,-0.380555556,1,0,0,0.8593,Pumice_rect,9,0,9,0,1,
6643ad1d6324582f8867c01a,TCR,2024-06-25_14h31.36.751,LearnStrategy,2023.2.3,Win32,144.9275362,7,2,11,,,,,,,,5,14,,,,,,,,,,,5,0.782,1,,,,,,-0.450925926,-0.394444444,1,0,0,0.782,Obsidian_rect,10,0,10,0,1,
6643ad1d6324582f8867c01a,TCR,2024-06-25_14h31.36.751,LearnStrategy,2023.2.3,Win32,144.9275362,7,2,12,,,,,,,,2,04,,,,,,,,,,,2,1.003,1,,,,,,-0.167592593,-0.257407407,1,0,0,1.0028,Basalt_rect,11,0,11,0,1,
6643ad1d6324582f8867c01a,TCR,2024-06-25_14h31.36.751,LearnStrategy,2023.2.3,Win32,144.9275362,7,2,13,,,,,,,,6,12,,,,,,,,,,,3,2.509,0,,,,,,0.064814815,-0.263888889,1,0,0,2.5094,Diorite_rect,12,0,12,0,1,
6643ad1d6324582f8867c01a,TCR,2024-06-25_14h31.36.751,LearnStrategy,2023.2.3,Win32,144.9275362,7,2,14,,,,,,,,1,11,,,,,,,,,,,4,5.486,0,,,,,,0.394444444,-0.261111111,1,0,0,5.4858,Gabbro_rect,13,0,13,0,1,
6643ad1d6324582f8867c01a,TCR,2024-06-25_14h31.36.751,LearnStrategy,2023.2.3,Win32,144.9275362,7,2,15,,,,,,,,8,03,,,,,,,,,,,8,4.574,1,,,,,,0.350925926,-0.389814815,1,0,0,4.5743,Pumice_rect,14,0,14,0,1,
6643ad1d6324582f8867c01a,TCR,2024-06-25_14h31.36.751,LearnStrategy,2023.2.3,Win32,144.9275362,7,2,16,,,,,,,,3,02,,,,,,,,,,,7,1.755,0,,,,,,0.115740741,-0.403703704,1,0,0,1.7549,Peridotite_rect,15,0,15,0,1,
6643ad1d6324582f8867c01a,TCR,2024-06-25_14h31.36.751,LearnStrategy,2023.2.3,Win32,144.9275362,8,1,1,0.063888889,0.006481481,1,0,0,1.1389,rock_grid_rect_2,2,02,-1,-1,1.139,-0.072222222,-0.24537037,1,0,0,1.1685,Basalt_rect,2,1.168,1,0,0,0,0,1,,,,,,,,,,,,,
6643ad1d6324582f8867c01a,TCR,2024-06-25_14h31.36.751,LearnStrategy,2023.2.3,Win32,144.9275362,8,1,2,0.040740741,-0.017592593,1,0,0,0.6727,rock_grid_rect_2,8,16,-1,-1,0.673,0.378703704,-0.40462963,1,0,0,0.7179,Pumice_rect,8,0.718,1,1,0,1,0,1,,,,,,,,,,,,,
6643ad1d6324582f8867c01a,TCR,2024-06-25_14h31.36.751,LearnStrategy,2023.2.3,Win32,144.9275362,8,1,3,0.093518519,-0.017592593,1,0,0,0.4436,rock_grid_rect_2,7,08,-1,-1,0.444,0.134259259,-0.384259259,1,0,0,0.9265,Peridotite_rect,7,0.927,1,2,0,2,0,1,,,,,,,,,,,,,
6643ad1d6324582f8867c01a,TCR,2024-06-25_14h31.36.751,LearnStrategy,2023.2.3,Win32,144.9275362,8,1,4,0.027777778,0.021296296,1,0,0,0.4227,rock_grid_rect_2,1,07,-1,-1,0.423,-0.084259259,-0.391666667,1,0,0,0.7741,Pegmatite_rect,6,0.774,0,3,0,3,0,1,,,,,,,,,,,,,
6643ad1d6324582f8867c01a,TCR,2024-06-25_14h31.36.751,LearnStrategy,2023.2.3,Win32,144.9275362,8,1,5,0.05462963,-0.012962963,1,0,0,0.6866,rock_grid_rect_2,7,10,-1,-1,0.687,0.327777778,-0.251851852,1,0,0,0.9067,Gabbro_rect,4,0.907,0,4,0,4,0,1,,,,,,,,,,,,,
6643ad1d6324582f8867c01a,TCR,2024-06-25_14h31.36.751,LearnStrategy,2023.2.3,Win32,144.9275362,8,1,6,0.076851852,-0.012962963,1,0,0,0.541,rock_grid_rect_2,3,08,-1,-1,0.541,0.160185185,-0.241666667,1,0,0,0.6791,Diorite_rect,3,0.679,1,5,0,5,0,1,,,,,,,,,,,,,
6643ad1d6324582f8867c01a,TCR,2024-06-25_14h31.36.751,LearnStrategy,2023.2.3,Win32,144.9275362,8,1,7,0.010185185,0.021296296,1,0,0,0.4714,rock_grid_rect_2,6,10,-1,-1,0.471,-0.335185185,-0.258333333,1,0,0,2.0306,Andesite_rect,1,2.031,0,6,0,6,0,1,,,,,,,,,,,,,
6643ad1d6324582f8867c01a,TCR,2024-06-25_14h31.36.751,LearnStrategy,2023.2.3,Win32,144.9275362,8,1,8,-0.002777778,-0.012037037,1,0,0,0.4717,rock_grid_rect_2,4,13,-1,-1,0.472,-0.34537037,-0.235185185,1,0,0,0.9517,Andesite_rect,1,0.952,0,7,0,7,0,1,,,,,,,,,,,,,
6643ad1d6324582f8867c01a,TCR,2024-06-25_14h31.36.751,LearnStrategy,2023.2.3,Win32,144.9275362,8,1,9,0.087962963,-0.016666667,1,0,0,0.7354,rock_grid_rect_2,6,11,-1,-1,0.735,-0.412037037,-0.25462963,1,0,0,1.1509,Andesite_rect,1,1.151,0,8,0,8,0,1,,,,,,,,,,,,,
6643ad1d6324582f8867c01a,TCR,2024-06-25_14h31.36.751,LearnStrategy,2023.2.3,Win32,144.9275362,8,1,10,0.031481481,0.000925926,1,0,0,0.7769,rock_grid_rect_2,3,13,-1,-1,0.777,-0.371296296,-0.261111111,1,0,0,1.475,Andesite_rect,1,1.475,0,9,0,9,0,1,,,,,,,,,,,,,
6643ad1d6324582f8867c01a,TCR,2024-06-25_14h31.36.751,LearnStrategy,2023.2.3,Win32,144.9275362,8,1,11,-0.007407407,-0.015740741,1,0,0,0.4576,rock_grid_rect_2,4,16,-1,-1,0.458,-0.132407407,-0.228703704,1,0,0,0.9471,Basalt_rect,2,0.947,0,10,0,10,0,1,,,,,,,,,,,,,
6643ad1d6324582f8867c01a,TCR,2024-06-25_14h31.36.751,LearnStrategy,2023.2.3,Win32,144.9275362,8,1,12,0.039814815,0.008333333,1,0,0,0.3672,rock_grid_rect_2,6,16,-1,-1,0.367,0.390740741,-0.230555556,1,0,0,0.6903,Gabbro_rect,4,0.69,0,11,0,11,0,1,,,,,,,,,,,,,
6643ad1d6324582f8867c01a,TCR,2024-06-25_14h31.36.751,LearnStrategy,2023.2.3,Win32,144.9275362,8,1,13,0.037037037,-0.007407407,1,0,0,0.7006,rock_grid_rect_2,1,07,-1,-1,0.701,-0.442592593,-0.25462963,1,0,0,1.0276,Andesite_rect,1,1.028,1,12,0,12,0,1,,,,,,,,,,,,,
6643ad1d6324582f8867c01a,TCR,2024-06-25_14h31.36.751,LearnStrategy,2023.2.3,Win32,144.9275362,8,1,14,0.106481481,0.010185185,1,0,0,0.4367,rock_grid_rect_2,7,04,-1,-1,0.437,-0.291666667,-0.258333333,1,0,0,0.905,Andesite_rect,1,0.905,0,13,0,13,0,1,,,,,,,,,,,,,
6643ad1d6324582f8867c01a,TCR,2024-06-25_14h31.36.751,LearnStrategy,2023.2.3,Win32,144.9275362,8,1,15,0.103703704,0.021296296,1,0,0,0.4436,rock_grid_rect_2,4,12,-1,-1,0.444,-0.102777778,-0.252777778,1,0,0,0.9957,Basalt_rect,2,0.996,0,14,0,14,0,1,,,,,,,,,,,,,
6643ad1d6324582f8867c01a,TCR,2024-06-25_14h31.36.751,LearnStrategy,2023.2.3,Win32,144.9275362,8,1,16,0.12962963,-0.019444444,1,0,0,0.4295,rock_grid_rect_2,1,07,-1,-1,0.429,-0.393518519,-0.268518519,1,0,0,1.0307,Andesite_rect,1,1.031,1,15,0,15,0,1,,,,,,,,,,,,,
6643ad1d6324582f8867c01a,TCR,2024-06-25_14h31.36.751,LearnStrategy,2023.2.3,Win32,144.9275362,8,2,1,,,,,,,,8,06,,,,,,,,,,,8,1.56,1,,,,,,0.362962963,-0.415740741,1,0,0,1.5602,Pumice_rect,0,0,0,0,1,
6643ad1d6324582f8867c01a,TCR,2024-06-25_14h31.36.751,LearnStrategy,2023.2.3,Win32,144.9275362,8,2,2,,,,,,,,3,09,,,,,,,,,,,1,0.843,0,,,,,,-0.406481481,-0.260185185,1,0,0,0.8429,Andesite_rect,1,0,1,0,1,
6643ad1d6324582f8867c01a,TCR,2024-06-25_14h31.36.751,LearnStrategy,2023.2.3,Win32,144.9275362,8,2,3,,,,,,,,1,03,,,,,,,,,,,4,1.277,0,,,,,,0.410185185,-0.25,1,0,0,1.2768,Gabbro_rect,2,0,2,0,1,
6643ad1d6324582f8867c01a,TCR,2024-06-25_14h31.36.751,LearnStrategy,2023.2.3,Win32,144.9275362,8,2,4,,,,,,,,2,08,,,,,,,,,,,2,2.558,1,,,,,,-0.115740741,-0.258333333,1,0,0,2.5578,Basalt_rect,3,0,3,0,1,
6643ad1d6324582f8867c01a,TCR,2024-06-25_14h31.36.751,LearnStrategy,2023.2.3,Win32,144.9275362,8,2,5,,,,,,,,7,07,,,,,,,,,,,3,1.234,0,,,,,,0.138888889,-0.263888889,1,0,0,1.2342,Diorite_rect,4,0,4,0,1,
6643ad1d6324582f8867c01a,TCR,2024-06-25_14h31.36.751,LearnStrategy,2023.2.3,Win32,144.9275362,8,2,6,,,,,,,,7,06,,,,,,,,,,,3,0.621,0,,,,,,0.138888889,-0.263888889,1,0,0,0.6207,Diorite_rect,5,0,5,0,1,
6643ad1d6324582f8867c01a,TCR,2024-06-25_14h31.36.751,LearnStrategy,2023.2.3,Win32,144.9275362,8,2,7,,,,,,,,5,09,,,,,,,,,,,5,1.079,1,,,,,,-0.381481481,-0.37962963,1,0,0,1.0792,Obsidian_rect,6,0,6,0,1,
6643ad1d6324582f8867c01a,TCR,2024-06-25_14h31.36.751,LearnStrategy,2023.2.3,Win32,144.9275362,8,2,8,,,,,,,,2,16,,,,,,,,,,,8,1.024,0,,,,,,0.365740741,-0.388888889,1,0,0,1.0243,Pumice_rect,7,0,7,0,1,
6643ad1d6324582f8867c01a,TCR,2024-06-25_14h31.36.751,LearnStrategy,2023.2.3,Win32,144.9275362,8,2,9,,,,,,,,4,08,,,,,,,,,,,7,0.815,0,,,,,,0.113888889,-0.412037037,1,0,0,0.8148,Peridotite_rect,8,0,8,0,1,
6643ad1d6324582f8867c01a,TCR,2024-06-25_14h31.36.751,LearnStrategy,2023.2.3,Win32,144.9275362,8,2,10,,,,,,,,3,11,,,,,,,,,,,1,1.035,0,,,,,,-0.37037037,-0.262962963,1,0,0,1.0346,Andesite_rect,9,0,9,0,1,
6643ad1d6324582f8867c01a,TCR,2024-06-25_14h31.36.751,LearnStrategy,2023.2.3,Win32,144.9275362,8,2,11,,,,,,,,4,15,,,,,,,,,,,6,0.836,0,,,,,,-0.068518519,-0.387962963,1,0,0,0.836,Pegmatite_rect,10,0,10,0,1,
6643ad1d6324582f8867c01a,TCR,2024-06-25_14h31.36.751,LearnStrategy,2023.2.3,Win32,144.9275362,8,2,12,,,,,,,,6,09,,,,,,,,,,,6,1.13,1,,,,,,-0.074074074,-0.391666667,1,0,0,1.1301,Pegmatite_rect,11,0,11,0,1,
6643ad1d6324582f8867c01a,TCR,2024-06-25_14h31.36.751,LearnStrategy,2023.2.3,Win32,144.9275362,8,2,13,,,,,,,,8,10,,,,,,,,,,,7,1.385,0,,,,,,0.149074074,-0.413888889,1,0,0,1.3848,Peridotite_rect,12,0,12,0,1,
6643ad1d6324582f8867c01a,TCR,2024-06-25_14h31.36.751,LearnStrategy,2023.2.3,Win32,144.9275362,8,2,14,,,,,,,,6,13,,,,,,,,,,,4,0.968,0,,,,,,0.387962963,-0.264814815,1,0,0,0.9684,Gabbro_rect,13,0,13,0,1,
6643ad1d6324582f8867c01a,TCR,2024-06-25_14h31.36.751,LearnStrategy,2023.2.3,Win32,144.9275362,8,2,15,,,,,,,,5,11,,,,,,,,,,,5,1.114,1,,,,,,-0.349074074,-0.396296296,1,0,0,1.1137,Obsidian_rect,14,0,14,0,1,
6643ad1d6324582f8867c01a,TCR,2024-06-25_14h31.36.751,LearnStrategy,2023.2.3,Win32,144.9275362,8,2,16,,,,,,,,1,14,,,,,,,,,,,3,0.815,0,,,,,,0.036111111,-0.244444444,1,0,0,0.815,Diorite_rect,15,0,15,0,1,
6643ad1d6324582f8867c01a,TCR,2024-06-25_14h31.36.751,LearnStrategy,2023.2.3,Win32,144.9275362,9,1,1,-0.032407407,-0.022222222,1,0,0,0.7494,rock_grid_rect_2,6,03,-1,-1,0.749,0.152777778,-0.255555556,1,0,0,1.1287,Diorite_rect,3,1.129,0,0,0,0,0,1,,,,,,,,,,,,,
6643ad1d6324582f8867c01a,TCR,2024-06-25_14h31.36.751,LearnStrategy,2023.2.3,Win32,144.9275362,9,1,2,0.057407407,0.012962963,1,0,0,0.4368,rock_grid_rect_2,1,01,-1,-1,0.437,-0.115740741,-0.246296296,1,0,0,1.4071,Basalt_rect,2,1.407,0,1,0,1,0,1,,,,,,,,,,,,,
6643ad1d6324582f8867c01a,TCR,2024-06-25_14h31.36.751,LearnStrategy,2023.2.3,Win32,144.9275362,9,1,3,0.082407407,-0.012962963,1,0,0,0.5896,rock_grid_rect_2,3,13,-1,-1,0.59,0.148148148,-0.391666667,1,0,0,0.9263,Peridotite_rect,7,0.926,0,2,0,2,0,1,,,,,,,,,,,,,
6643ad1d6324582f8867c01a,TCR,2024-06-25_14h31.36.751,LearnStrategy,2023.2.3,Win32,144.9275362,9,1,4,0.02037037,-0.022222222,1,0,0,0.4228,rock_grid_rect_2,3,16,-1,-1,0.423,0.398148148,-0.239814815,1,0,0,1.0455,Gabbro_rect,4,1.045,0,3,0,3,0,1,,,,,,,,,,,,,
6643ad1d6324582f8867c01a,TCR,2024-06-25_14h31.36.751,LearnStrategy,2023.2.3,Win32,144.9275362,9,1,5,0.050925926,-0.025,1,0,0,0.4508,rock_grid_rect_2,1,09,-1,-1,0.451,-0.091666667,-0.261111111,1,0,0,1.4612,Basalt_rect,2,1.461,0,4,0,4,0,1,,,,,,,,,,,,,
6643ad1d6324582f8867c01a,TCR,2024-06-25_14h31.36.751,LearnStrategy,2023.2.3,Win32,144.9275362,9,1,6,0.059259259,0.016666667,1,0,0,0.4367,rock_grid_rect_2,7,10,-1,-1,0.437,-0.332407407,-0.240740741,1,0,0,0.7252,Andesite_rect,1,0.725,0,5,0,5,0,1,,,,,,,,,,,,,
6643ad1d6324582f8867c01a,TCR,2024-06-25_14h31.36.751,LearnStrategy,2023.2.3,Win32,144.9275362,9,1,7,0.059259259,0.014814815,1,0,0,0.4992,rock_grid_rect_2,8,15,-1,-1,0.499,0.34537037,-0.403703704,1,0,0,0.975,Pumice_rect,8,0.975,1,6,0,6,0,1,,,,,,,,,,,,,
6643ad1d6324582f8867c01a,TCR,2024-06-25_14h31.36.751,LearnStrategy,2023.2.3,Win32,144.9275362,9,1,8,0.075925926,-0.022222222,1,0,0,0.4993,rock_grid_rect_2,3,08,-1,-1,0.499,0.087962963,-0.394444444,1,0,0,0.8779,Peridotite_rect,7,0.878,0,7,0,7,0,1,,,,,,,,,,,,,
6643ad1d6324582f8867c01a,TCR,2024-06-25_14h31.36.751,LearnStrategy,2023.2.3,Win32,144.9275362,9,1,9,0.075925926,-0.015740741,1,0,0,0.7003,rock_grid_rect_2,7,16,-1,-1,0.7,-0.101851852,-0.415740741,1,0,0,0.7599,Pegmatite_rect,6,0.76,0,8,0,8,0,1,,,,,,,,,,,,,
6643ad1d6324582f8867c01a,TCR,2024-06-25_14h31.36.751,LearnStrategy,2023.2.3,Win32,144.9275362,9,1,10,0.064814815,0.009259259,1,0,0,0.4437,rock_grid_rect_2,7,13,-1,-1,0.444,0.148148148,-0.261111111,1,0,0,1.8084,Diorite_rect,3,1.808,0,9,0,9,0,1,,,,,,,,,,,,,
6643ad1d6324582f8867c01a,TCR,2024-06-25_14h31.36.751,LearnStrategy,2023.2.3,Win32,144.9275362,9,1,11,0.059259259,-0.009259259,1,0,0,0.3951,rock_grid_rect_2,2,11,-1,-1,0.395,-0.125925926,-0.268518519,1,0,0,0.6571,Basalt_rect,2,0.657,1,10,0,10,0,1,,,,,,,,,,,,,
6643ad1d6324582f8867c01a,TCR,2024-06-25_14h31.36.751,LearnStrategy,2023.2.3,Win32,144.9275362,9,1,12,0.047222222,0.009259259,1,0,0,0.6103,rock_grid_rect_2,1,09,-1,-1,0.61,-0.117592593,-0.262962963,1,0,0,1.0988,Basalt_rect,2,1.099,0,11,0,11,0,1,,,,,,,,,,,,,
6643ad1d6324582f8867c01a,TCR,2024-06-25_14h31.36.751,LearnStrategy,2023.2.3,Win32,144.9275362,9,1,13,0.09537037,-0.015740741,1,0,0,0.9367,rock_grid_rect_2,4,16,-1,-1,0.937,0.406481481,-0.400925926,1,0,0,1.1559,Pumice_rect,8,1.156,0,12,0,12,0,1,,,,,,,,,,,,,
6643ad1d6324582f8867c01a,TCR,2024-06-25_14h31.36.751,LearnStrategy,2023.2.3,Win32,144.9275362,9,1,14,0.068518519,-0.014814815,1,0,0,0.6659,rock_grid_rect_2,4,12,-1,-1,0.666,0.167592593,-0.406481481,1,0,0,0.8713,Peridotite_rect,7,0.871,0,13,0,13,0,1,,,,,,,,,,,,,
6643ad1d6324582f8867c01a,TCR,2024-06-25_14h31.36.751,LearnStrategy,2023.2.3,Win32,144.9275362,9,1,15,0.128703704,-0.007407407,1,0,0,0.52,rock_grid_rect_2,4,13,-1,-1,0.52,-0.106481481,-0.37962963,1,0,0,1.5382,Pegmatite_rect,6,1.538,0,14,0,14,0,1,,,,,,,,,,,,,
6643ad1d6324582f8867c01a,TCR,2024-06-25_14h31.36.751,LearnStrategy,2023.2.3,Win32,144.9275362,9,1,16,0.037037037,-0.025,1,0,0,0.7354,rock_grid_rect_2,6,08,-1,-1,0.735,0.112037037,-0.237037037,1,0,0,1.275,Diorite_rect,3,1.275,0,15,0,15,0,1,,,,,,,,,,,,,
6643ad1d6324582f8867c01a,TCR,2024-06-25_14h31.36.751,LearnStrategy,2023.2.3,Win32,144.9275362,9,2,1,,,,,,,,2,01,,,,,,,,,,,2,0.813,1,,,,,,-0.075,-0.251851852,1,0,0,0.8126,Basalt_rect,0,0,0,0,1,
6643ad1d6324582f8867c01a,TCR,2024-06-25_14h31.36.751,LearnStrategy,2023.2.3,Win32,144.9275362,9,2,2,,,,,,,,1,06,,,,,,,,,,,3,2.377,0,,,,,,0.082407407,-0.260185185,1,0,0,2.3773,Diorite_rect,1,0,1,0,1,
6643ad1d6324582f8867c01a,TCR,2024-06-25_14h31.36.751,LearnStrategy,2023.2.3,Win32,144.9275362,9,2,3,,,,,,,,7,15,,,,,,,,,,,4,1.517,0,,,,,,0.35,-0.261111111,1,0,0,1.5174,Gabbro_rect,2,0,2,0,1,
6643ad1d6324582f8867c01a,TCR,2024-06-25_14h31.36.751,LearnStrategy,2023.2.3,Win32,144.9275362,9,2,4,,,,,,,,7,14,,,,,,,,,,,4,1.86,0,,,,,,0.346296296,-0.266666667,1,0,0,1.8602,Gabbro_rect,3,0,3,0,1,
6643ad1d6324582f8867c01a,TCR,2024-06-25_14h31.36.751,LearnStrategy,2023.2.3,Win32,144.9275362,9,2,5,,,,,,,,4,03,,,,,,,,,,,1,1.013,0,,,,,,-0.341666667,-0.25,1,0,0,1.0133,Andesite_rect,4,0,4,0,1,
6643ad1d6324582f8867c01a,TCR,2024-06-25_14h31.36.751,LearnStrategy,2023.2.3,Win32,144.9275362,9,2,6,,,,,,,,2,10,,,,,,,,,,,5,1.309,0,,,,,,-0.34537037,-0.403703704,1,0,0,1.3085,Obsidian_rect,5,0,5,0,1,
6643ad1d6324582f8867c01a,TCR,2024-06-25_14h31.36.751,LearnStrategy,2023.2.3,Win32,144.9275362,9,2,7,,,,,,,,4,01,,,,,,,,,,,2,1.635,0,,,,,,-0.113888889,-0.261111111,1,0,0,1.6354,Basalt_rect,6,0,6,0,1,
6643ad1d6324582f8867c01a,TCR,2024-06-25_14h31.36.751,LearnStrategy,2023.2.3,Win32,144.9275362,9,2,8,,,,,,,,1,02,,,,,,,,,,,3,1.206,0,,,,,,0.134259259,-0.271296296,1,0,0,1.2061,Diorite_rect,7,0,7,0,1,
6643ad1d6324582f8867c01a,TCR,2024-06-25_14h31.36.751,LearnStrategy,2023.2.3,Win32,144.9275362,9,2,9,,,,,,,,3,07,,,,,,,,,,,3,4.446,1,,,,,,0.140740741,-0.250925926,1,0,0,4.4464,Diorite_rect,8,0,8,0,1,
6643ad1d6324582f8867c01a,TCR,2024-06-25_14h31.36.751,LearnStrategy,2023.2.3,Win32,144.9275362,9,2,10,,,,,,,,5,10,,,,,,,,,,,5,0.903,1,,,,,,-0.462962963,-0.419444444,1,0,0,0.9033,Obsidian_rect,9,0,9,0,1,
6643ad1d6324582f8867c01a,TCR,2024-06-25_14h31.36.751,LearnStrategy,2023.2.3,Win32,144.9275362,9,2,11,,,,,,,,8,02,,,,,,,,,,,2,2.197,0,,,,,,-0.219444444,-0.258333333,1,0,0,2.197,Basalt_rect,10,0,10,0,1,
6643ad1d6324582f8867c01a,TCR,2024-06-25_14h31.36.751,LearnStrategy,2023.2.3,Win32,144.9275362,9,2,12,,,,,,,,8,14,,,,,,,,,,,8,0.852,1,,,,,,0.413888889,-0.402777778,1,0,0,0.8522,Pumice_rect,11,0,11,0,1,
6643ad1d6324582f8867c01a,TCR,2024-06-25_14h31.36.751,LearnStrategy,2023.2.3,Win32,144.9275362,9,2,13,,,,,,,,6,05,,,,,,,,,,,5,1.33,0,,,,,,-0.339814815,-0.410185185,1,0,0,1.3304,Obsidian_rect,12,0,12,0,1,
6643ad1d6324582f8867c01a,TCR,2024-06-25_14h31.36.751,LearnStrategy,2023.2.3,Win32,144.9275362,9,2,14,,,,,,,,3,14,,,,,,,,,,,1,1.072,0,,,,,,-0.328703704,-0.249074074,1,0,0,1.0716,Andesite_rect,13,0,13,0,1,
6643ad1d6324582f8867c01a,TCR,2024-06-25_14h31.36.751,LearnStrategy,2023.2.3,Win32,144.9275362,9,2,15,,,,,,,,6,15,,,,,,,,,,,3,2.13,0,,,,,,0.187037037,-0.242592593,1,0,0,2.13,Diorite_rect,14,0,14,0,1,
6643ad1d6324582f8867c01a,TCR,2024-06-25_14h31.36.751,LearnStrategy,2023.2.3,Win32,144.9275362,9,2,16,,,,,,,,5,04,,,,,,,,,,,5,0.843,1,,,,,,-0.428703704,-0.398148148,1,0,0,0.8428,Obsidian_rect,15,0,15,0,1,
6643ad1d6324582f8867c01a,TCR,2024-06-25_14h31.36.751,LearnStrategy,2023.2.3,Win32,144.9275362,,,,,,,,,,,,,,,,,,,,,,,,,,,,,,,,,,,,,,,,,,,0
6643ad1d6324582f8867c01a,TCR,2024-06-25_14h31.36.751,LearnStrategy,2023.2.3,Win32,144.9275362,,,,,,,,,,,,,,,,,,,,,,,,,,,,,,,,,,,,,,,,,,,
6643ad1d6324582f8867c01a,TCR,2024-06-25_14h31.36.751,LearnStrategy,2023.2.3,Win32,144.9275362,,,,,,,,,,,6,03,1,1,,,,,,,,,,,,,,,,,,,,,,,,,,,,,
6643ad1d6324582f8867c01a,TCR,2024-06-25_14h31.36.751,LearnStrategy,2023.2.3,Win32,144.9275362,,,,,,,,,,,8,04,1,2,,,,,,,,,,,,,,,,,,,,,,,,,,,,,
6643ad1d6324582f8867c01a,TCR,2024-06-25_14h31.36.751,LearnStrategy,2023.2.3,Win32,144.9275362,,,,,,,,,,,8,16,1,3,,,,,,,,,,,,,,,,,,,,,,,,,,,,,
6643ad1d6324582f8867c01a,TCR,2024-06-25_14h31.36.751,LearnStrategy,2023.2.3,Win32,144.9275362,,,,,,,,,,,7,05,1,4,,,,,,,,,,,,,,,,,,,,,,,,,,,,,
6643ad1d6324582f8867c01a,TCR,2024-06-25_14h31.36.751,LearnStrategy,2023.2.3,Win32,144.9275362,,,,,,,,,,,5,02,1,5,,,,,,,,,,,,,,,,,,,,,,,,,,,,,
6643ad1d6324582f8867c01a,TCR,2024-06-25_14h31.36.751,LearnStrategy,2023.2.3,Win32,144.9275362,,,,,,,,,,,5,08,1,6,,,,,,,,,,,,,,,,,,,,,,,,,,,,,
6643ad1d6324582f8867c01a,TCR,2024-06-25_14h31.36.751,LearnStrategy,2023.2.3,Win32,144.9275362,,,,,,,,,,,1,05,1,7,,,,,,,,,,,,,,,,,,,,,,,,,,,,,
6643ad1d6324582f8867c01a,TCR,2024-06-25_14h31.36.751,LearnStrategy,2023.2.3,Win32,144.9275362,,,,,,,,,,,3,12,1,8,,,,,,,,,,,,,,,,,,,,,,,,,,,,,
6643ad1d6324582f8867c01a,TCR,2024-06-25_14h31.36.751,LearnStrategy,2023.2.3,Win32,144.9275362,,,,,,,,,,,4,09,2,1,,,,,,,,,,,,,,,,,,,,,,,,,,,,,
6643ad1d6324582f8867c01a,TCR,2024-06-25_14h31.36.751,LearnStrategy,2023.2.3,Win32,144.9275362,,,,,,,,,,,1,10,2,2,,,,,,,,,,,,,,,,,,,,,,,,,,,,,
6643ad1d6324582f8867c01a,TCR,2024-06-25_14h31.36.751,LearnStrategy,2023.2.3,Win32,144.9275362,,,,,,,,,,,4,13,2,3,,,,,,,,,,,,,,,,,,,,,,,,,,,,,
6643ad1d6324582f8867c01a,TCR,2024-06-25_14h31.36.751,LearnStrategy,2023.2.3,Win32,144.9275362,,,,,,,,,,,2,02,2,4,,,,,,,,,,,,,,,,,,,,,,,,,,,,,
6643ad1d6324582f8867c01a,TCR,2024-06-25_14h31.36.751,LearnStrategy,2023.2.3,Win32,144.9275362,,,,,,,,,,,6,10,2,5,,,,,,,,,,,,,,,,,,,,,,,,,,,,,
6643ad1d6324582f8867c01a,TCR,2024-06-25_14h31.36.751,LearnStrategy,2023.2.3,Win32,144.9275362,,,,,,,,,,,3,15,2,6,,,,,,,,,,,,,,,,,,,,,,,,,,,,,
6643ad1d6324582f8867c01a,TCR,2024-06-25_14h31.36.751,LearnStrategy,2023.2.3,Win32,144.9275362,,,,,,,,,,,2,09,2,7,,,,,,,,,,,,,,,,,,,,,,,,,,,,,
6643ad1d6324582f8867c01a,TCR,2024-06-25_14h31.36.751,LearnStrategy,2023.2.3,Win32,144.9275362,,,,,,,,,,,6,16,2,8,,,,,,,,,,,,,,,,,,,,,,,,,,,,,
6643ad1d6324582f8867c01a,TCR,2024-06-25_14h31.36.751,LearnStrategy,2023.2.3,Win32,144.9275362,,,,,,,,,,,7,08,3,1,,,,,,,,,,,,,,,,,,,,,,,,,,,,,
6643ad1d6324582f8867c01a,TCR,2024-06-25_14h31.36.751,LearnStrategy,2023.2.3,Win32,144.9275362,,,,,,,,,,,4,12,3,2,,,,,,,,,,,,,,,,,,,,,,,,,,,,,
6643ad1d6324582f8867c01a,TCR,2024-06-25_14h31.36.751,LearnStrategy,2023.2.3,Win32,144.9275362,,,,,,,,,,,7,04,3,3,,,,,,,,,,,,,,,,,,,,,,,,,,,,,
6643ad1d6324582f8867c01a,TCR,2024-06-25_14h31.36.751,LearnStrategy,2023.2.3,Win32,144.9275362,,,,,,,,,,,7,13,3,4,,,,,,,,,,,,,,,,,,,,,,,,,,,,,
6643ad1d6324582f8867c01a,TCR,2024-06-25_14h31.36.751,LearnStrategy,2023.2.3,Win32,144.9275362,,,,,,,,,,,5,07,3,5,,,,,,,,,,,,,,,,,,,,,,,,,,,,,
6643ad1d6324582f8867c01a,TCR,2024-06-25_14h31.36.751,LearnStrategy,2023.2.3,Win32,144.9275362,,,,,,,,,,,5,16,3,6,,,,,,,,,,,,,,,,,,,,,,,,,,,,,
6643ad1d6324582f8867c01a,TCR,2024-06-25_14h31.36.751,LearnStrategy,2023.2.3,Win32,144.9275362,,,,,,,,,,,6,07,3,7,,,,,,,,,,,,,,,,,,,,,,,,,,,,,
6643ad1d6324582f8867c01a,TCR,2024-06-25_14h31.36.751,LearnStrategy,2023.2.3,Win32,144.9275362,,,,,,,,,,,1,16,3,8,,,,,,,,,,,,,,,,,,,,,,,,,,,,,
6643ad1d6324582f8867c01a,TCR,2024-06-25_14h31.36.751,LearnStrategy,2023.2.3,Win32,144.9275362,,,,,,,,,,,4,10,4,1,,,,,,,,,,,,,,,,,,,,,,,,,,,,,
6643ad1d6324582f8867c01a,TCR,2024-06-25_14h31.36.751,LearnStrategy,2023.2.3,Win32,144.9275362,,,,,,,,,,,3,10,4,2,,,,,,,,,,,,,,,,,,,,,,,,,,,,,
6643ad1d6324582f8867c01a,TCR,2024-06-25_14h31.36.751,LearnStrategy,2023.2.3,Win32,144.9275362,,,,,,,,,,,2,05,4,3,,,,,,,,,,,,,,,,,,,,,,,,,,,,,
6643ad1d6324582f8867c01a,TCR,2024-06-25_14h31.36.751,LearnStrategy,2023.2.3,Win32,144.9275362,,,,,,,,,,,5,06,4,4,,,,,,,,,,,,,,,,,,,,,,,,,,,,,
6643ad1d6324582f8867c01a,TCR,2024-06-25_14h31.36.751,LearnStrategy,2023.2.3,Win32,144.9275362,,,,,,,,,,,2,12,4,5,,,,,,,,,,,,,,,,,,,,,,,,,,,,,
6643ad1d6324582f8867c01a,TCR,2024-06-25_14h31.36.751,LearnStrategy,2023.2.3,Win32,144.9275362,,,,,,,,,,,2,14,4,6,,,,,,,,,,,,,,,,,,,,,,,,,,,,,
6643ad1d6324582f8867c01a,TCR,2024-06-25_14h31.36.751,LearnStrategy,2023.2.3,Win32,144.9275362,,,,,,,,,,,3,13,4,7,,,,,,,,,,,,,,,,,,,,,,,,,,,,,
6643ad1d6324582f8867c01a,TCR,2024-06-25_14h31.36.751,LearnStrategy,2023.2.3,Win32,144.9275362,,,,,,,,,,,4,14,4,8,,,,,,,,,,,,,,,,,,,,,,,,,,,,,
6643ad1d6324582f8867c01a,TCR,2024-06-25_14h31.36.751,LearnStrategy,2023.2.3,Win32,144.9275362,,,,,,,,,,,5,12,5,1,,,,,,,,,,,,,,,,,,,,,,,,,,,,,
6643ad1d6324582f8867c01a,TCR,2024-06-25_14h31.36.751,LearnStrategy,2023.2.3,Win32,144.9275362,,,,,,,,,,,6,08,5,2,,,,,,,,,,,,,,,,,,,,,,,,,,,,,
6643ad1d6324582f8867c01a,TCR,2024-06-25_14h31.36.751,LearnStrategy,2023.2.3,Win32,144.9275362,,,,,,,,,,,3,16,5,3,,,,,,,,,,,,,,,,,,,,,,,,,,,,,
6643ad1d6324582f8867c01a,TCR,2024-06-25_14h31.36.751,LearnStrategy,2023.2.3,Win32,144.9275362,,,,,,,,,,,8,08,5,4,,,,,,,,,,,,,,,,,,,,,,,,,,,,,
6643ad1d6324582f8867c01a,TCR,2024-06-25_14h31.36.751,LearnStrategy,2023.2.3,Win32,144.9275362,,,,,,,,,,,1,01,5,5,,,,,,,,,,,,,,,,,,,,,,,,,,,,,
6643ad1d6324582f8867c01a,TCR,2024-06-25_14h31.36.751,LearnStrategy,2023.2.3,Win32,144.9275362,,,,,,,,,,,2,11,5,6,,,,,,,,,,,,,,,,,,,,,,,,,,,,,
6643ad1d6324582f8867c01a,TCR,2024-06-25_14h31.36.751,LearnStrategy,2023.2.3,Win32,144.9275362,,,,,,,,,,,7,16,5,7,,,,,,,,,,,,,,,,,,,,,,,,,,,,,
6643ad1d6324582f8867c01a,TCR,2024-06-25_14h31.36.751,LearnStrategy,2023.2.3,Win32,144.9275362,,,,,,,,,,,1,09,5,8,,,,,,,,,,,,,,,,,,,,,,,,,,,,,
6643ad1d6324582f8867c01a,TCR,2024-06-25_14h31.36.751,LearnStrategy,2023.2.3,Win32,144.9275362,,,,,,,,,,,4,16,6,1,,,,,,,,,,,,,,,,,,,,,,,,,,,,,
6643ad1d6324582f8867c01a,TCR,2024-06-25_14h31.36.751,LearnStrategy,2023.2.3,Win32,144.9275362,,,,,,,,,,,8,09,6,2,,,,,,,,,,,,,,,,,,,,,,,,,,,,,
6643ad1d6324582f8867c01a,TCR,2024-06-25_14h31.36.751,LearnStrategy,2023.2.3,Win32,144.9275362,,,,,,,,,,,8,13,6,3,,,,,,,,,,,,,,,,,,,,,,,,,,,,,
6643ad1d6324582f8867c01a,TCR,2024-06-25_14h31.36.751,LearnStrategy,2023.2.3,Win32,144.9275362,,,,,,,,,,,6,11,6,4,,,,,,,,,,,,,,,,,,,,,,,,,,,,,
6643ad1d6324582f8867c01a,TCR,2024-06-25_14h31.36.751,LearnStrategy,2023.2.3,Win32,144.9275362,,,,,,,,,,,8,15,6,5,,,,,,,,,,,,,,,,,,,,,,,,,,,,,
6643ad1d6324582f8867c01a,TCR,2024-06-25_14h31.36.751,LearnStrategy,2023.2.3,Win32,144.9275362,,,,,,,,,,,7,10,6,6,,,,,,,,,,,,,,,,,,,,,,,,,,,,,
6643ad1d6324582f8867c01a,TCR,2024-06-25_14h31.36.751,LearnStrategy,2023.2.3,Win32,144.9275362,,,,,,,,,,,3,08,6,7,,,,,,,,,,,,,,,,,,,,,,,,,,,,,
6643ad1d6324582f8867c01a,TCR,2024-06-25_14h31.36.751,LearnStrategy,2023.2.3,Win32,144.9275362,,,,,,,,,,,1,07,6,8,,,,,,,,,,,,,,,,,,,,,,,,,,,,,