participant,condition,date,expName,psychopyVersion,OS,frameRate,block,phase,trial,learn_mouse.x,learn_mouse.y,learn_mouse.leftButton,learn_mouse.midButton,learn_mouse.rightButton,learn_mouse.time,learn_mouse.clicked_name,cat,token,row,col,t_select,cat_rec,token_rec,cat_mouse_l.x,cat_mouse_l.y,cat_mouse_l.leftButton,cat_mouse_l.midButton,cat_mouse_l.rightButton,cat_mouse_l.time,cat_mouse_l.clicked_name,resp,t_resp,corr,train_trials.thisRepN,train_trials.thisTrialN,train_trials.thisN,train_trials.thisIndex,train_trials.ran,cat_mouse_t.x,cat_mouse_t.y,cat_mouse_t.leftButton,cat_mouse_t.midButton,cat_mouse_t.rightButton,cat_mouse_t.time,cat_mouse_t.clicked_name,test_trials.thisRepN,test_trials.thisTrialN,test_trials.thisN,test_trials.thisIndex,test_trials.ran,Bonus
6644c218e860482bd1d5113a,SCR,2024-06-24_15h58.18.879,LearnStrategy,2023.2.3,MacIntel,58.47953216,,,,,,,,,,,,,,,,,,,,,,,,,,,,,,,,,,,,,,,,,,,,,
6644c218e860482bd1d5113a,SCR,2024-06-24_15h58.18.879,LearnStrategy,2023.2.3,MacIntel,58.47953216,1,1,1,0.574898098,0.088633662,1,0,0,3.3856,Diorite_11,3,11,4,8,3.386,3,11,-0.10381284,-0.232672385,1,0,0,9.6296,Basalt_rect,2,9.63,0,0,0,0,0,1,,,,,,,,,,,,,
6644c218e860482bd1d5113a,SCR,2024-06-24_15h58.18.879,LearnStrategy,2023.2.3,MacIntel,58.47953216,1,1,2,-0.541610054,0.394463315,1,0,0,2.2964,Diorite_09,3,09,6,1,2.296,3,09,0.102955163,-0.252381963,1,0,0,1.6063,Diorite_rect,3,1.606,1,1,0,1,0,1,,,,,,,,,,,,,
6644c218e860482bd1d5113a,SCR,2024-06-24_15h58.18.879,LearnStrategy,2023.2.3,MacIntel,58.47953216,1,1,3,0.078829823,-0.131653363,1,0,0,1.3968,Obsidian_14,5,14,3,5,1.397,8,02,-0.330664063,-0.411438519,1,0,0,1.4411,Obsidian_rect,5,1.441,1,2,0,2,0,1,,,,,,,,,,,,,
6644c218e860482bd1d5113a,SCR,2024-06-24_15h58.18.879,LearnStrategy,2023.2.3,MacIntel,58.47953216,1,1,4,0.228456182,0.067939029,1,0,0,3.0464,Gabbro_12,4,12,4,6,3.046,2,06,-0.075543478,-0.242195992,1,0,0,2.1237,Basalt_rect,2,2.124,0,3,0,3,0,1,,,,,,,,,,,,,
6644c218e860482bd1d5113a,SCR,2024-06-24_15h58.18.879,LearnStrategy,2023.2.3,MacIntel,58.47953216,1,1,5,0.426494565,-0.151452106,1,0,0,1.1121,Pegmatite_08,6,08,3,7,1.112,6,08,0.115090014,-0.406339164,1,0,0,2.3088,Peridotite_rect,7,2.309,0,4,0,4,0,1,,,,,,,,,,,,,
6644c218e860482bd1d5113a,SCR,2024-06-24_15h58.18.879,LearnStrategy,2023.2.3,MacIntel,58.47953216,1,1,6,-0.549201766,-0.117650306,1,0,0,2.9132,Obsidian_10,5,10,3,1,2.913,8,14,-0.083750849,-0.386255944,1,0,0,1.5067,Pegmatite_rect,6,1.507,0,5,0,5,0,1,,,,,,,,,,,,,
6644c218e860482bd1d5113a,SCR,2024-06-24_15h58.18.879,LearnStrategy,2023.2.3,MacIntel,58.47953216,1,1,7,-0.086693274,0.088119905,1,0,0,1.5131,Pumice_02,8,02,4,4,1.513,1,03,0.31583305,-0.388085937,1,0,0,2.1588,Pumice_rect,8,2.159,1,6,0,6,0,1,,,,,,,,,,,,,
6644c218e860482bd1d5113a,SCR,2024-06-24_15h58.18.879,LearnStrategy,2023.2.3,MacIntel,58.47953216,1,1,8,-0.233419667,0.247231658,1,0,0,3.2955,Pegmatite_07,6,07,5,3,3.296,6,07,-0.080753227,-0.401507303,1,0,0,2.7246,Pegmatite_rect,6,2.725,1,7,0,7,0,1,,,,,,,,,,,,,
6644c218e860482bd1d5113a,SCR,2024-06-24_15h58.18.879,LearnStrategy,2023.2.3,MacIntel,58.47953216,1,1,9,0.230103601,0.209162704,1,0,0,1.6463,Gabbro_08,4,08,5,6,1.646,4,08,0.302657948,-0.250624151,1,0,0,3.0257,Gabbro_rect,4,3.026,1,8,0,8,0,1,,,,,,,,,,,,,
6644c218e860482bd1d5113a,SCR,2024-06-24_15h58.18.879,LearnStrategy,2023.2.3,MacIntel,58.47953216,1,1,10,0.080069633,-0.14207286,1,0,0,0.862,Obsidian_14,5,14,3,5,0.862,5,14,-0.34464589,-0.379882813,1,0,0,1.3409,Obsidian_rect,5,1.341,1,9,0,9,0,1,,,,,,,,,,,,,
6644c218e860482bd1d5113a,SCR,2024-06-24_15h58.18.879,LearnStrategy,2023.2.3,MacIntel,58.47953216,1,1,11,-0.252195143,-0.09329144,1,0,0,0.8885,Peridotite_06,7,06,3,3,0.888,7,06,-0.084498132,-0.393019701,1,0,0,2.0081,Pegmatite_rect,6,2.008,0,10,0,10,0,1,,,,,,,,,,,,,
6644c218e860482bd1d5113a,SCR,2024-06-24_15h58.18.879,LearnStrategy,2023.2.3,MacIntel,58.47953216,1,1,12,-0.391953974,-0.277288553,1,0,0,1.2959,Peridotite_12,7,12,2,2,1.296,7,12,0.141376529,-0.405078125,1,0,0,1.4579,Peridotite_rect,7,1.458,1,11,0,11,0,1,,,,,,,,,,,,,
6644c218e860482bd1d5113a,SCR,2024-06-24_15h58.18.879,LearnStrategy,2023.2.3,MacIntel,58.47953216,1,1,13,0.102798064,-0.214168648,1,0,0,1.4822,Obsidian_12,5,12,2,5,1.482,5,12,-0.422494905,-0.419055707,1,0,0,1.225,Obsidian_rect,5,1.225,1,12,0,12,0,1,,,,,,,,,,,,,
6644c218e860482bd1d5113a,SCR,2024-06-24_15h58.18.879,LearnStrategy,2023.2.3,MacIntel,58.47953216,1,1,14,-0.034035326,-0.396917459,1,0,0,1.515,Andesite_06,1,06,1,4,1.515,1,06,0.125441576,-0.242348845,1,0,0,5.0575,Diorite_rect,3,5.058,0,13,0,13,0,1,,,,,,,,,,,,,
6644c218e860482bd1d5113a,SCR,2024-06-24_15h58.18.879,LearnStrategy,2023.2.3,MacIntel,58.47953216,1,1,15,0.248182745,0.397477921,1,0,0,0.8619,Basalt_08,2,08,6,6,0.862,2,08,-0.347325068,-0.392514436,1,0,0,5.075,Obsidian_rect,5,5.075,0,14,0,14,0,1,,,,,,,,,,,,,
6644c218e860482bd1d5113a,SCR,2024-06-24_15h58.18.879,LearnStrategy,2023.2.3,MacIntel,58.47953216,1,1,16,0.069501529,0.26204144,1,0,0,0.8961,Gabbro_13,4,13,5,5,0.896,4,13,0.412028702,-0.235109545,1,0,0,2.3071,Gabbro_rect,4,2.307,1,15,0,15,0,1,,,,,,,,,,,,,
6644c218e860482bd1d5113a,SCR,2024-06-24_15h58.18.879,LearnStrategy,2023.2.3,MacIntel,58.47953216,1,2,1,,,,,,,,5,09,,,,,,,,,,,,,5,3.642,1,,,,,,-0.382863451,-0.402942425,1,0,0,3.6415,Obsidian_rect,0,0,0,0,1,
6644c218e860482bd1d5113a,SCR,2024-06-24_15h58.18.879,LearnStrategy,2023.2.3,MacIntel,58.47953216,1,2,2,,,,,,,,1,14,,,,,,,,,,,,,3,8.292,0,,,,,,0.187347147,-0.259209409,1,0,0,8.2915,Diorite_rect,1,0,1,0,1,
6644c218e860482bd1d5113a,SCR,2024-06-24_15h58.18.879,LearnStrategy,2023.2.3,MacIntel,58.47953216,1,2,3,,,,,,,,2,05,,,,,,,,,,,,,2,2.457,1,,,,,,-0.110797385,-0.256976053,1,0,0,2.4574,Basalt_rect,2,0,2,0,1,
6644c218e860482bd1d5113a,SCR,2024-06-24_15h58.18.879,LearnStrategy,2023.2.3,MacIntel,58.47953216,1,2,4,,,,,,,,2,04,,,,,,,,,,,,,2,2.776,1,,,,,,-0.110797385,-0.256976053,1,0,0,2.7757,Basalt_rect,3,0,3,0,1,
6644c218e860482bd1d5113a,SCR,2024-06-24_15h58.18.879,LearnStrategy,2023.2.3,MacIntel,58.47953216,1,2,5,,,,,,,,6,05,,,,,,,,,,,,,5,1.706,0,,,,,,-0.33361498,-0.404921026,1,0,0,1.7062,Obsidian_rect,4,0,4,0,1,
6644c218e860482bd1d5113a,SCR,2024-06-24_15h58.18.879,LearnStrategy,2023.2.3,MacIntel,58.47953216,1,2,6,,,,,,,,3,02,,,,,,,,,,,,,4,4.643,0,,,,,,0.419688349,-0.250900136,1,0,0,4.6428,Gabbro_rect,5,0,5,0,1,
6644c218e860482bd1d5113a,SCR,2024-06-24_15h58.18.879,LearnStrategy,2023.2.3,MacIntel,58.47953216,1,2,7,,,,,,,,5,04,,,,,,,,,,,,,5,1.427,1,,,,,,-0.432990829,-0.416478431,1,0,0,1.4275,Obsidian_rect,6,0,6,0,1,
6644c218e860482bd1d5113a,SCR,2024-06-24_15h58.18.879,LearnStrategy,2023.2.3,MacIntel,58.47953216,1,2,8,,,,,,,,1,10,,,,,,,,,,,,,2,3.093,0,,,,,,-0.088930876,-0.252759851,1,0,0,3.093,Basalt_rect,7,0,7,0,1,
6644c218e860482bd1d5113a,SCR,2024-06-24_15h58.18.879,LearnStrategy,2023.2.3,MacIntel,58.47953216,1,2,9,,,,,,,,8,09,,,,,,,,,,,,,8,1.174,1,,,,,,0.336035156,-0.379950747,1,0,0,1.1744,Pumice_rect,8,0,8,0,1,
6644c218e860482bd1d5113a,SCR,2024-06-24_15h58.18.879,LearnStrategy,2023.2.3,MacIntel,58.47953216,1,2,10,,,,,,,,3,08,,,,,,,,,,,,,6,2.741,0,,,,,,-0.15034392,-0.406925102,1,0,0,2.7414,Pegmatite_rect,9,0,9,0,1,
6644c218e860482bd1d5113a,SCR,2024-06-24_15h58.18.879,LearnStrategy,2023.2.3,MacIntel,58.47953216,1,2,11,,,,,,,,4,11,,,,,,,,,,,,,1,1.156,0,,,,,,-0.3521357,-0.245240319,1,0,0,1.1563,Andesite_rect,10,0,10,0,1,
6644c218e860482bd1d5113a,SCR,2024-06-24_15h58.18.879,LearnStrategy,2023.2.3,MacIntel,58.47953216,1,2,12,,,,,,,,7,14,,,,,,,,,,,,,7,1.408,1,,,,,,0.101367187,-0.400887398,1,0,0,1.4083,Peridotite_rect,11,0,11,0,1,
6644c218e860482bd1d5113a,SCR,2024-06-24_15h58.18.879,LearnStrategy,2023.2.3,MacIntel,58.47953216,1,2,13,,,,,,,,8,05,,,,,,,,,,,,,8,1.227,1,,,,,,0.477029552,-0.393503736,1,0,0,1.2266,Pumice_rect,12,0,12,0,1,
6644c218e860482bd1d5113a,SCR,2024-06-24_15h58.18.879,LearnStrategy,2023.2.3,MacIntel,58.47953216,1,2,14,,,,,,,,4,16,,,,,,,,,,,,,3,3.36,0,,,,,,0.135538383,-0.250743037,1,0,0,3.3603,Diorite_rect,13,0,13,0,1,
6644c218e860482bd1d5113a,SCR,2024-06-24_15h58.18.879,LearnStrategy,2023.2.3,MacIntel,58.47953216,1,2,15,,,,,,,,6,06,,,,,,,,,,,,,4,2.509,0,,,,,,0.324783458,-0.268401834,1,0,0,2.5088,Gabbro_rect,14,0,14,0,1,
6644c218e860482bd1d5113a,SCR,2024-06-24_15h58.18.879,LearnStrategy,2023.2.3,MacIntel,58.47953216,1,2,16,,,,,,,,7,13,,,,,,,,,,,,,7,1.107,1,,,,,,0.142595109,-0.389775815,1,0,0,1.1073,Peridotite_rect,15,0,15,0,1,
6644c218e860482bd1d5113a,SCR,2024-06-24_15h58.18.879,LearnStrategy,2023.2.3,MacIntel,58.47953216,2,1,1,-0.245940897,-0.402046535,1,0,0,1.7634,Basalt_12,2,12,1,3,1.763,2,12,0.383432405,-0.378502887,1,0,0,2.123,Pumice_rect,8,2.123,0,0,0,0,0,1,,,,,,,,,,,,,
6644c218e860482bd1d5113a,SCR,2024-06-24_15h58.18.879,LearnStrategy,2023.2.3,MacIntel,58.47953216,2,1,2,-0.082515285,0.221917459,1,0,0,0.963,Gabbro_15,4,15,5,4,0.963,4,15,0.343172554,-0.250263247,1,0,0,2.9921,Gabbro_rect,4,2.992,1,1,0,1,0,1,,,,,,,,,,,,,
6644c218e860482bd1d5113a,SCR,2024-06-24_15h58.18.879,LearnStrategy,2023.2.3,MacIntel,58.47953216,2,1,3,-0.399324898,-0.098879076,1,0,0,0.995,Gabbro_01,4,01,3,2,0.995,4,01,0.116227921,-0.382621433,1,0,0,1.6585,Peridotite_rect,7,1.659,0,2,0,2,0,1,,,,,,,,,,,,,
6644c218e860482bd1d5113a,SCR,2024-06-24_15h58.18.879,LearnStrategy,2023.2.3,MacIntel,58.47953216,2,1,4,0.393592901,0.092085598,1,0,0,0.9477,Pegmatite_16,6,16,4,7,0.948,6,16,-0.131368886,-0.24721892,1,0,0,3.1073,Basalt_rect,2,3.107,0,3,0,3,0,1,,,,,,,,,,,,,
6644c218e860482bd1d5113a,SCR,2024-06-24_15h58.18.879,LearnStrategy,2023.2.3,MacIntel,58.47953216,2,1,5,0.521004586,-0.063353431,1,0,0,1.279,Diorite_06,3,06,3,8,1.279,3,06,-0.082150136,-0.39363536,1,0,0,2.0249,Pegmatite_rect,6,2.025,0,4,0,4,0,1,,,,,,,,,,,,,
6644c218e860482bd1d5113a,SCR,2024-06-24_15h58.18.879,LearnStrategy,2023.2.3,MacIntel,58.47953216,2,1,6,0.529025136,0.234799592,1,0,0,1.0473,Andesite_04,1,04,5,8,1.047,1,04,0.154054857,-0.26169752,1,0,0,1.4404,Diorite_rect,3,1.44,0,5,0,5,0,1,,,,,,,,,,,,,
6644c218e860482bd1d5113a,SCR,2024-06-24_15h58.18.879,LearnStrategy,2023.2.3,MacIntel,58.47953216,2,1,7,0.567064368,-0.121620245,1,0,0,1.7146,Diorite_06,3,06,3,8,1.715,3,06,0.383203125,-0.260194463,1,0,0,3.2746,Gabbro_rect,4,3.275,0,6,0,6,0,1,,,,,,,,,,,,,
6644c218e860482bd1d5113a,SCR,2024-06-24_15h58.18.879,LearnStrategy,2023.2.3,MacIntel,58.47953216,2,1,8,0.064780061,0.393363621,1,0,0,0.8129,Andesite_16,1,16,6,5,0.813,1,16,0.341151495,-0.25893767,1,0,0,3.1571,Gabbro_rect,4,3.157,0,7,0,7,0,1,,,,,,,,,,,,,
6644c218e860482bd1d5113a,SCR,2024-06-24_15h58.18.879,LearnStrategy,2023.2.3,MacIntel,58.47953216,2,1,9,0.035224185,-0.396683933,1,0,0,1.5125,Diorite_07,3,07,1,5,1.512,3,07,-0.09544837,-0.397023607,1,0,0,1.2909,Pegmatite_rect,6,1.291,0,8,0,8,0,1,,,,,,,,,,,,,
6644c218e860482bd1d5113a,SCR,2024-06-24_15h58.18.879,LearnStrategy,2023.2.3,MacIntel,58.47953216,2,1,10,0.245949389,-0.275908628,1,0,0,0.9641,Obsidian_07,5,07,2,6,0.964,5,07,-0.389512568,-0.408296535,1,0,0,1.0417,Obsidian_rect,5,1.042,1,9,0,9,0,1,,,,,,,,,,,,,
6644c218e860482bd1d5113a,SCR,2024-06-24_15h58.18.879,LearnStrategy,2023.2.3,MacIntel,58.47953216,2,1,11,0.234557575,0.248441746,1,0,0,0.7809,Gabbro_08,4,08,5,6,0.781,4,08,-0.046017323,-0.264253567,1,0,0,3.0244,Basalt_rect,2,3.024,0,10,0,10,0,1,,,,,,,,,,,,,
6644c218e860482bd1d5113a,SCR,2024-06-24_15h58.18.879,LearnStrategy,2023.2.3,MacIntel,58.47953216,2,1,12,0.339898947,0.210415251,1,0,0,0.7132,Pegmatite_03,6,03,5,7,0.713,6,03,0.090225883,-0.401112432,1,0,0,1.5579,Peridotite_rect,7,1.558,0,11,0,11,0,1,,,,,,,,,,,,,
6644c218e860482bd1d5113a,SCR,2024-06-24_15h58.18.879,LearnStrategy,2023.2.3,MacIntel,58.47953216,2,1,13,-0.391045346,0.088918139,1,0,0,0.8298,Diorite_10,3,10,4,2,0.83,3,10,-0.080422045,-0.248590353,1,0,0,2.6412,Basalt_rect,2,2.641,0,12,0,12,0,1,,,,,,,,,,,,,
6644c218e860482bd1d5113a,SCR,2024-06-24_15h58.18.879,LearnStrategy,2023.2.3,MacIntel,58.47953216,2,1,14,0.065213145,0.256233016,1,0,0,0.681,Gabbro_13,4,13,5,5,0.681,4,13,-0.18908373,-0.396577785,1,0,0,2.3246,Pegmatite_rect,6,2.325,0,13,0,13,0,1,,,,,,,,,,,,,
6644c218e860482bd1d5113a,SCR,2024-06-24_15h58.18.879,LearnStrategy,2023.2.3,MacIntel,58.47953216,2,1,15,-0.072477921,0.376927649,1,0,0,0.9812,Andesite_03,1,03,6,4,0.981,1,03,-0.130247962,-0.400246264,1,0,0,2.908,Pegmatite_rect,6,2.908,0,14,0,14,0,1,,,,,,,,,,,,,
6644c218e860482bd1d5113a,SCR,2024-06-24_15h58.18.879,LearnStrategy,2023.2.3,MacIntel,58.47953216,2,1,16,0.40627123,0.226846977,1,0,0,0.9143,Pegmatite_03,6,03,5,7,0.914,6,03,-0.109740149,-0.396488621,1,0,0,3.0576,Pegmatite_rect,6,3.058,1,15,0,15,0,1,,,,,,,,,,,,,
6644c218e860482bd1d5113a,SCR,2024-06-24_15h58.18.879,LearnStrategy,2023.2.3,MacIntel,58.47953216,2,2,1,,,,,,,,5,16,,,,,,,,,,,,,5,1.325,1,,,,,,-0.333895211,-0.398942765,1,0,0,1.3245,Obsidian_rect,0,0,0,0,1,
6644c218e860482bd1d5113a,SCR,2024-06-24_15h58.18.879,LearnStrategy,2023.2.3,MacIntel,58.47953216,2,2,2,,,,,,,,7,10,,,,,,,,,,,,,7,1.51,1,,,,,,0.082672385,-0.397159477,1,0,0,1.5099,Peridotite_rect,1,0,1,0,1,
6644c218e860482bd1d5113a,SCR,2024-06-24_15h58.18.879,LearnStrategy,2023.2.3,MacIntel,58.47953216,2,2,3,,,,,,,,3,12,,,,,,,,,,,,,4,2.224,0,,,,,,0.350543478,-0.255523947,1,0,0,2.2244,Gabbro_rect,2,0,2,0,1,
6644c218e860482bd1d5113a,SCR,2024-06-24_15h58.18.879,LearnStrategy,2023.2.3,MacIntel,58.47953216,2,2,4,,,,,,,,4,14,,,,,,,,,,,,,3,1.192,0,,,,,,0.096819803,-0.267977242,1,0,0,1.1917,Diorite_rect,3,0,3,0,1,
6644c218e860482bd1d5113a,SCR,2024-06-24_15h58.18.879,LearnStrategy,2023.2.3,MacIntel,58.47953216,2,2,5,,,,,,,,8,03,,,,,,,,,,,,,8,1.141,1,,,,,,0.358092731,-0.418856148,1,0,0,1.1413,Pumice_rect,4,0,4,0,1,
6644c218e860482bd1d5113a,SCR,2024-06-24_15h58.18.879,LearnStrategy,2023.2.3,MacIntel,58.47953216,2,2,6,,,,,,,,6,13,,,,,,,,,,,,,1,2.81,0,,,,,,-0.403006114,-0.265026325,1,0,0,2.8095,Andesite_rect,5,0,5,0,1,
6644c218e860482bd1d5113a,SCR,2024-06-24_15h58.18.879,LearnStrategy,2023.2.3,MacIntel,58.47953216,2,2,7,,,,,,,,6,15,,,,,,,,,,,,,5,1.924,0,,,,,,-0.341210937,-0.389304518,1,0,0,1.924,Obsidian_rect,6,0,6,0,1,
6644c218e860482bd1d5113a,SCR,2024-06-24_15h58.18.879,LearnStrategy,2023.2.3,MacIntel,58.47953216,2,2,8,,,,,,,,2,09,,,,,,,,,,,,,2,1.552,1,,,,,,-0.123726223,-0.236319633,1,0,0,1.5517,Basalt_rect,7,0,7,0,1,
6644c218e860482bd1d5113a,SCR,2024-06-24_15h58.18.879,LearnStrategy,2023.2.3,MacIntel,58.47953216,2,2,9,,,,,,,,3,14,,,,,,,,,,,,,3,2.008,1,,,,,,0.209786855,-0.261353601,1,0,0,2.0082,Diorite_rect,8,0,8,0,1,
6644c218e860482bd1d5113a,SCR,2024-06-24_15h58.18.879,LearnStrategy,2023.2.3,MacIntel,58.47953216,2,2,10,,,,,,,,2,02,,,,,,,,,,,,,2,3.759,1,,,,,,-0.106165082,-0.261366338,1,0,0,3.7593,Basalt_rect,9,0,9,0,1,
6644c218e860482bd1d5113a,SCR,2024-06-24_15h58.18.879,LearnStrategy,2023.2.3,MacIntel,58.47953216,2,2,11,,,,,,,,1,01,,,,,,,,,,,,,4,3.973,0,,,,,,0.349881114,-0.261009681,1,0,0,3.9733,Gabbro_rect,10,0,10,0,1,
6644c218e860482bd1d5113a,SCR,2024-06-24_15h58.18.879,LearnStrategy,2023.2.3,MacIntel,58.47953216,2,2,12,,,,,,,,8,13,,,,,,,,,,,,,8,0.908,1,,,,,,0.363323709,-0.396866508,1,0,0,0.9081,Pumice_rect,11,0,11,0,1,
6644c218e860482bd1d5113a,SCR,2024-06-24_15h58.18.879,LearnStrategy,2023.2.3,MacIntel,58.47953216,2,2,13,,,,,,,,5,06,,,,,,,,,,,,,5,1.692,1,,,,,,-0.41852072,-0.40177055,1,0,0,1.6919,Obsidian_rect,12,0,12,0,1,
6644c218e860482bd1d5113a,SCR,2024-06-24_15h58.18.879,LearnStrategy,2023.2.3,MacIntel,58.47953216,2,2,14,,,,,,,,1,02,,,,,,,,,,,,,1,2.842,1,,,,,,-0.414839504,-0.230366848,1,0,0,2.8424,Andesite_rect,13,0,13,0,1,
6644c218e860482bd1d5113a,SCR,2024-06-24_15h58.18.879,LearnStrategy,2023.2.3,MacIntel,58.47953216,2,2,15,,,,,,,,4,03,,,,,,,,,,,,,3,2.224,0,,,,,,0.119251019,-0.239733356,1,0,0,2.2243,Diorite_rect,14,0,14,0,1,
6644c218e860482bd1d5113a,SCR,2024-06-24_15h58.18.879,LearnStrategy,2023.2.3,MacIntel,58.47953216,2,2,16,,,,,,,,7,08,,,,,,,,,,,,,7,1.594,1,,,,,,0.119514266,-0.389117697,1,0,0,1.5944,Peridotite_rect,15,0,15,0,1,
6644c218e860482bd1d5113a,SCR,2024-06-24_15h58.18.879,LearnStrategy,2023.2.3,MacIntel,58.47953216,3,1,1,-0.21829144,0.383241338,1,0,0,1.1291,Andesite_05,1,05,6,3,1.129,1,05,0.104101562,-0.410185971,1,0,0,1.2577,Peridotite_rect,7,1.258,0,0,0,0,0,1,,,,,,,,,,,,,
6644c218e860482bd1d5113a,SCR,2024-06-24_15h58.18.879,LearnStrategy,2023.2.3,MacIntel,58.47953216,3,1,2,0.196059783,0.069352921,1,0,0,0.7798,Gabbro_12,4,12,4,6,0.78,4,12,-0.403473166,-0.266185462,1,0,0,1.4906,Andesite_rect,1,1.491,0,1,0,1,0,1,,,,,,,,,,,,,
6644c218e860482bd1d5113a,SCR,2024-06-24_15h58.18.879,LearnStrategy,2023.2.3,MacIntel,58.47953216,3,1,3,0.095720109,0.209400476,1,0,0,1.4638,Gabbro_13,4,13,5,5,1.464,4,13,0.334366508,-0.261120075,1,0,0,1.2742,Gabbro_rect,4,1.274,1,2,0,2,0,1,,,,,,,,,,,,,
6644c218e860482bd1d5113a,SCR,2024-06-24_15h58.18.879,LearnStrategy,2023.2.3,MacIntel,58.47953216,3,1,4,0.42297894,-0.141605808,1,0,0,1.2475,Pegmatite_08,6,08,3,7,1.248,6,08,-0.424647588,-0.401286515,1,0,0,1.0596,Obsidian_rect,5,1.06,0,3,0,3,0,1,,,,,,,,,,,,,
6644c218e860482bd1d5113a,SCR,2024-06-24_15h58.18.879,LearnStrategy,2023.2.3,MacIntel,58.47953216,3,1,5,-0.083449389,-0.454729959,1,0,0,1.2646,Andesite_06,1,06,1,4,1.265,1,06,0.126507303,-0.264453125,1,0,0,1.8408,Diorite_rect,3,1.841,0,4,0,4,0,1,,,,,,,,,,,,,
6644c218e860482bd1d5113a,SCR,2024-06-24_15h58.18.879,LearnStrategy,2023.2.3,MacIntel,58.47953216,3,1,6,0.55202106,-0.122609545,1,0,0,0.9308,Diorite_06,3,06,3,8,0.931,3,06,0.155078125,-0.234918478,1,0,0,1.4241,Diorite_rect,3,1.424,1,5,0,5,0,1,,,,,,,,,,,,,
6644c218e860482bd1d5113a,SCR,2024-06-24_15h58.18.879,LearnStrategy,2023.2.3,MacIntel,58.47953216,3,1,7,0.585466202,0.236531929,1,0,0,1.0146,Andesite_04,1,04,5,8,1.015,1,04,0.088879925,-0.24283288,1,0,0,3.8912,Diorite_rect,3,3.891,0,6,0,6,0,1,,,,,,,,,,,,,
6644c218e860482bd1d5113a,SCR,2024-06-24_15h58.18.879,LearnStrategy,2023.2.3,MacIntel,58.47953216,3,1,8,0.073102072,0.236875849,1,0,0,0.6302,Gabbro_13,4,13,5,5,0.63,4,13,0.065217391,-0.268418818,1,0,0,6.8426,Diorite_rect,3,6.843,0,7,0,7,0,1,,,,,,,,,,,,,
6644c218e860482bd1d5113a,SCR,2024-06-24_15h58.18.879,LearnStrategy,2023.2.3,MacIntel,58.47953216,3,1,9,-0.349545686,-0.391605808,1,0,0,0.8625,Pegmatite_10,6,10,1,2,0.863,6,10,0.113060462,-0.394802989,1,0,0,2.4409,Peridotite_rect,7,2.441,0,8,0,8,0,1,,,,,,,,,,,,,
6644c218e860482bd1d5113a,SCR,2024-06-24_15h58.18.879,LearnStrategy,2023.2.3,MacIntel,58.47953216,3,1,10,-0.423339844,0.114151664,1,0,0,0.9306,Diorite_10,3,10,4,2,0.931,3,10,-0.309162704,-0.247227412,1,0,0,2.1421,Andesite_rect,1,2.142,0,9,0,9,0,1,,,,,,,,,,,,,
6644c218e860482bd1d5113a,SCR,2024-06-24_15h58.18.879,LearnStrategy,2023.2.3,MacIntel,58.47953216,3,1,11,0.085185971,-0.230443274,1,0,0,0.9632,Obsidian_12,5,12,2,5,0.963,5,12,-0.357693614,-0.406126868,1,0,0,1.3239,Obsidian_rect,5,1.324,1,10,0,10,0,1,,,,,,,,,,,,,
6644c218e860482bd1d5113a,SCR,2024-06-24_15h58.18.879,LearnStrategy,2023.2.3,MacIntel,58.47953216,3,1,12,-0.19319803,0.083542799,1,0,0,0.93,Basalt_11,2,11,4,3,0.93,2,11,0.396153193,-0.398569124,1,0,0,1.4416,Pumice_rect,8,1.442,0,11,0,11,0,1,,,,,,,,,,,,,
6644c218e860482bd1d5113a,SCR,2024-06-24_15h58.18.879,LearnStrategy,2023.2.3,MacIntel,58.47953216,3,1,13,0.572660496,-0.409137228,1,0,0,1.1971,Pegmatite_12,6,12,1,8,1.197,6,12,0.31105214,-0.259769871,1,0,0,1.3079,Gabbro_rect,4,1.308,0,12,0,12,0,1,,,,,,,,,,,,,
6644c218e860482bd1d5113a,SCR,2024-06-24_15h58.18.879,LearnStrategy,2023.2.3,MacIntel,58.47953216,3,1,14,0.569501529,-0.107277514,1,0,0,2.4645,Diorite_06,3,06,3,8,2.464,3,06,0.142747962,-0.236425781,1,0,0,1.1758,Diorite_rect,3,1.176,1,13,0,13,0,1,,,,,,,,,,,,,
6644c218e860482bd1d5113a,SCR,2024-06-24_15h58.18.879,LearnStrategy,2023.2.3,MacIntel,58.47953216,3,1,15,0.24595788,0.067149287,1,0,0,0.7825,Gabbro_12,4,12,4,6,0.782,4,12,0.380052649,-0.255634341,1,0,0,1.3285,Gabbro_rect,4,1.328,1,14,0,14,0,1,,,,,,,,,,,,,
6644c218e860482bd1d5113a,SCR,2024-06-24_15h58.18.879,LearnStrategy,2023.2.3,MacIntel,58.47953216,3,1,16,-0.436132813,-0.39641644,1,0,0,1.2635,Pegmatite_10,6,10,1,2,1.264,6,10,-0.142327615,-0.410122283,1,0,0,1.4973,Pegmatite_rect,6,1.497,1,15,0,15,0,1,,,,,,,,,,,,,
6644c218e860482bd1d5113a,SCR,2024-06-24_15h58.18.879,LearnStrategy,2023.2.3,MacIntel,58.47953216,3,2,1,,,,,,,,2,14,,,,,,,,,,,,,2,2.859,1,,,,,,-0.088344939,-0.250577446,1,0,0,2.8587,Basalt_rect,0,0,0,0,1,
6644c218e860482bd1d5113a,SCR,2024-06-24_15h58.18.879,LearnStrategy,2023.2.3,MacIntel,58.47953216,3,2,2,,,,,,,,8,15,,,,,,,,,,,,,8,1.392,1,,,,,,0.34855214,-0.403192935,1,0,0,1.392,Pumice_rect,1,0,1,0,1,
6644c218e860482bd1d5113a,SCR,2024-06-24_15h58.18.879,LearnStrategy,2023.2.3,MacIntel,58.47953216,3,2,3,,,,,,,,2,01,,,,,,,,,,,,,2,2.458,1,,,,,,-0.123913043,-0.259230639,1,0,0,2.4584,Basalt_rect,2,0,2,0,1,
6644c218e860482bd1d5113a,SCR,2024-06-24_15h58.18.879,LearnStrategy,2023.2.3,MacIntel,58.47953216,3,2,4,,,,,,,,4,05,,,,,,,,,,,,,7,1.801,0,,,,,,0.105460258,-0.412389606,1,0,0,1.801,Peridotite_rect,3,0,3,0,1,
6644c218e860482bd1d5113a,SCR,2024-06-24_15h58.18.879,LearnStrategy,2023.2.3,MacIntel,58.47953216,3,2,5,,,,,,,,5,08,,,,,,,,,,,,,5,1.059,1,,,,,,-0.405154552,-0.399057405,1,0,0,1.059,Obsidian_rect,4,0,4,0,1,
6644c218e860482bd1d5113a,SCR,2024-06-24_15h58.18.879,LearnStrategy,2023.2.3,MacIntel,58.47953216,3,2,6,,,,,,,,1,11,,,,,,,,,,,,,1,4.676,1,,,,,,-0.44354195,-0.247741168,1,0,0,4.6759,Andesite_rect,5,0,5,0,1,
6644c218e860482bd1d5113a,SCR,2024-06-24_15h58.18.879,LearnStrategy,2023.2.3,MacIntel,58.47953216,3,2,7,,,,,,,,7,16,,,,,,,,,,,,,7,1.25,1,,,,,,0.109264606,-0.412920346,1,0,0,1.2501,Peridotite_rect,6,0,6,0,1,
6644c218e860482bd1d5113a,SCR,2024-06-24_15h58.18.879,LearnStrategy,2023.2.3,MacIntel,58.47953216,3,2,8,,,,,,,,3,15,,,,,,,,,,,,,3,3.942,1,,,,,,0.137865149,-0.246335768,1,0,0,3.9417,Diorite_rect,7,0,7,0,1,
6644c218e860482bd1d5113a,SCR,2024-06-24_15h58.18.879,LearnStrategy,2023.2.3,MacIntel,58.47953216,3,2,9,,,,,,,,4,09,,,,,,,,,,,,,2,1.668,0,,,,,,-0.081852921,-0.241440217,1,0,0,1.6679,Basalt_rect,8,0,8,0,1,
6644c218e860482bd1d5113a,SCR,2024-06-24_15h58.18.879,LearnStrategy,2023.2.3,MacIntel,58.47953216,3,2,10,,,,,,,,3,16,,,,,,,,,,,,,4,1.442,0,,,,,,0.341049592,-0.246501359,1,0,0,1.4417,Gabbro_rect,9,0,9,0,1,
6644c218e860482bd1d5113a,SCR,2024-06-24_15h58.18.879,LearnStrategy,2023.2.3,MacIntel,58.47953216,3,2,11,,,,,,,,6,11,,,,,,,,,,,,,5,1.925,0,,,,,,-0.397053329,-0.408462126,1,0,0,1.9252,Obsidian_rect,10,0,10,0,1,
6644c218e860482bd1d5113a,SCR,2024-06-24_15h58.18.879,LearnStrategy,2023.2.3,MacIntel,58.47953216,3,2,12,,,,,,,,5,05,,,,,,,,,,,,,5,1.324,1,,,,,,-0.350675102,-0.40123981,1,0,0,1.3239,Obsidian_rect,11,0,11,0,1,
6644c218e860482bd1d5113a,SCR,2024-06-24_15h58.18.879,LearnStrategy,2023.2.3,MacIntel,58.47953216,3,2,13,,,,,,,,1,09,,,,,,,,,,,,,1,1.725,1,,,,,,-0.33178074,-0.252360734,1,0,0,1.7248,Andesite_rect,12,0,12,0,1,
6644c218e860482bd1d5113a,SCR,2024-06-24_15h58.18.879,LearnStrategy,2023.2.3,MacIntel,58.47953216,3,2,14,,,,,,,,6,09,,,,,,,,,,,,,6,1.526,1,,,,,,-0.093792459,-0.382680876,1,0,0,1.526,Pegmatite_rect,13,0,13,0,1,
6644c218e860482bd1d5113a,SCR,2024-06-24_15h58.18.879,LearnStrategy,2023.2.3,MacIntel,58.47953216,3,2,15,,,,,,,,8,16,,,,,,,,,,,,,8,1.224,1,,,,,,0.403710937,-0.401745075,1,0,0,1.2244,Pumice_rect,14,0,14,0,1,
6644c218e860482bd1d5113a,SCR,2024-06-24_15h58.18.879,LearnStrategy,2023.2.3,MacIntel,58.47953216,3,2,16,,,,,,,,7,05,,,,,,,,,,,,,7,1.558,1,,,,,,0.200084918,-0.420384681,1,0,0,1.5577,Peridotite_rect,15,0,15,0,1,
6644c218e860482bd1d5113a,SCR,2024-06-24_15h58.18.879,LearnStrategy,2023.2.3,MacIntel,58.47953216,4,1,1,0.059400476,0.088888417,1,0,0,0.6801,Diorite_13,3,13,4,5,0.68,3,13,0.159646739,-0.25804178,1,0,0,1.1738,Diorite_rect,3,1.174,1,0,0,0,0,1,,,,,,,,,,,,,
6644c218e860482bd1d5113a,SCR,2024-06-24_15h58.18.879,LearnStrategy,2023.2.3,MacIntel,58.47953216,4,1,2,0.070134171,0.074155061,1,0,0,0.9145,Diorite_13,3,13,4,5,0.914,3,13,0.104908288,-0.270070482,1,0,0,0.9587,Diorite_rect,3,0.959,1,1,0,1,0,1,,,,,,,,,,,,,
6644c218e860482bd1d5113a,SCR,2024-06-24_15h58.18.879,LearnStrategy,2023.2.3,MacIntel,58.47953216,4,1,3,-0.06863536,-0.37768767,1,0,0,0.8824,Andesite_06,1,06,1,4,0.882,1,06,0.372987432,-0.246170177,1,0,0,1.4069,Gabbro_rect,4,1.407,0,2,0,2,0,1,,,,,,,,,,,,,
6644c218e860482bd1d5113a,SCR,2024-06-24_15h58.18.879,LearnStrategy,2023.2.3,MacIntel,58.47953216,4,1,4,-0.246051291,-0.269038723,1,0,0,0.8961,Andesite_07,1,07,2,3,0.896,1,07,0.136319633,-0.25232252,1,0,0,1.8444,Diorite_rect,3,1.844,0,3,0,3,0,1,,,,,,,,,,,,,
6644c218e860482bd1d5113a,SCR,2024-06-24_15h58.18.879,LearnStrategy,2023.2.3,MacIntel,58.47953216,4,1,5,0.372919497,-0.118053668,1,0,0,0.8648,Pegmatite_08,6,08,3,7,0.865,6,08,-0.395117188,-0.392951766,1,0,0,1.0742,Obsidian_rect,5,1.074,0,4,0,4,0,1,,,,,,,,,,,,,
6644c218e860482bd1d5113a,SCR,2024-06-24_15h58.18.879,LearnStrategy,2023.2.3,MacIntel,58.47953216,4,1,6,-0.531186311,-0.21920856,1,0,0,0.7627,Gabbro_10,4,10,2,1,0.763,4,10,-0.142620584,-0.23908373,1,0,0,1.759,Basalt_rect,2,1.759,0,5,0,5,0,1,,,,,,,,,,,,,
6644c218e860482bd1d5113a,SCR,2024-06-24_15h58.18.879,LearnStrategy,2023.2.3,MacIntel,58.47953216,4,1,7,0.551490319,0.083988621,1,0,0,0.9812,Diorite_11,3,11,4,8,0.981,3,11,0.128290591,-0.387907609,1,0,0,1.8598,Peridotite_rect,7,1.86,0,6,0,6,0,1,,,,,,,,,,,,,
6644c218e860482bd1d5113a,SCR,2024-06-24_15h58.18.879,LearnStrategy,2023.2.3,MacIntel,58.47953216,4,1,8,0.062287704,-0.106827446,1,0,0,1.5138,Obsidian_14,5,14,3,5,1.514,5,14,-0.389758832,-0.396327276,1,0,0,0.7252,Obsidian_rect,5,0.725,1,7,0,7,0,1,,,,,,,,,,,,,
6644c218e860482bd1d5113a,SCR,2024-06-24_15h58.18.879,LearnStrategy,2023.2.3,MacIntel,58.47953216,4,1,9,-0.511408798,-0.208105469,1,0,0,0.9477,Gabbro_10,4,10,2,1,0.948,4,10,-0.356432575,-0.255035666,1,0,0,1.7905,Andesite_rect,1,1.79,0,8,0,8,0,1,,,,,,,,,,,,,
6644c218e860482bd1d5113a,SCR,2024-06-24_15h58.18.879,LearnStrategy,2023.2.3,MacIntel,58.47953216,4,1,10,-0.105226732,-0.251324728,1,0,0,0.9796,Basalt_10,2,10,2,4,0.98,2,10,-0.094098166,-0.260427989,1,0,0,1.4574,Basalt_rect,2,1.457,1,9,0,9,0,1,,,,,,,,,,,,,
6644c218e860482bd1d5113a,SCR,2024-06-24_15h58.18.879,LearnStrategy,2023.2.3,MacIntel,58.47953216,4,1,11,0.19485394,0.281649117,1,0,0,0.7828,Gabbro_08,4,08,5,6,0.783,4,08,0.085266644,-0.38894786,1,0,0,2.2726,Peridotite_rect,7,2.273,0,10,0,10,0,1,,,,,,,,,,,,,
6644c218e860482bd1d5113a,SCR,2024-06-24_15h58.18.879,LearnStrategy,2023.2.3,MacIntel,58.47953216,4,1,12,-0.217985734,0.243418818,1,0,0,0.7987,Pegmatite_07,6,07,5,3,0.799,6,07,-0.11861413,-0.392064368,1,0,0,1.624,Pegmatite_rect,6,1.624,1,11,0,11,0,1,,,,,,,,,,,,,
6644c218e860482bd1d5113a,SCR,2024-06-24_15h58.18.879,LearnStrategy,2023.2.3,MacIntel,58.47953216,4,1,13,-0.078362772,0.254097317,1,0,0,0.766,Gabbro_15,4,15,5,4,0.766,4,15,0.19018767,-0.246700917,1,0,0,1.2079,Diorite_rect,3,1.208,0,12,0,12,0,1,,,,,,,,,,,,,
6644c218e860482bd1d5113a,SCR,2024-06-24_15h58.18.879,LearnStrategy,2023.2.3,MacIntel,58.47953216,4,1,14,0.10882303,0.229700238,1,0,0,0.7648,Gabbro_13,4,13,5,5,0.765,4,13,0.340238621,-0.25179178,1,0,0,1.0581,Gabbro_rect,4,1.058,1,13,0,13,0,1,,,,,,,,,,,,,
6644c218e860482bd1d5113a,SCR,2024-06-24_15h58.18.879,LearnStrategy,2023.2.3,MacIntel,58.47953216,4,1,15,-0.210419497,-0.100764266,1,0,0,1.0141,Peridotite_06,7,06,3,3,1.014,7,06,0.167268173,-0.401337466,1,0,0,1.1736,Peridotite_rect,7,1.174,1,14,0,14,0,1,,,,,,,,,,,,,
6644c218e860482bd1d5113a,SCR,2024-06-24_15h58.18.879,LearnStrategy,2023.2.3,MacIntel,58.47953216,4,1,16,-0.55323964,0.281398607,1,0,0,2.3648,Peridotite_04,7,04,5,1,2.365,6,10,-0.306950577,-0.244412364,1,0,0,2.9183,Andesite_rect,1,2.918,0,15,0,15,0,1,,,,,,,,,,,,,
6644c218e860482bd1d5113a,SCR,2024-06-24_15h58.18.879,LearnStrategy,2023.2.3,MacIntel,58.47953216,4,2,1,,,,,,,,7,13,,,,,,,,,,,,,7,1.641,1,,,,,,0.104318105,-0.410882303,1,0,0,1.6407,Peridotite_rect,0,0,0,0,1,
6644c218e860482bd1d5113a,SCR,2024-06-24_15h58.18.879,LearnStrategy,2023.2.3,MacIntel,58.47953216,4,2,2,,,,,,,,1,09,,,,,,,,,,,,,1,1.592,1,,,,,,-0.447660496,-0.25969769,1,0,0,1.5921,Andesite_rect,1,0,1,0,1,
6644c218e860482bd1d5113a,SCR,2024-06-24_15h58.18.879,LearnStrategy,2023.2.3,MacIntel,58.47953216,4,2,3,,,,,,,,3,02,,,,,,,,,,,,,4,3.708,0,,,,,,0.347728431,-0.271297554,1,0,0,3.7078,Gabbro_rect,2,0,2,0,1,
6644c218e860482bd1d5113a,SCR,2024-06-24_15h58.18.879,LearnStrategy,2023.2.3,MacIntel,58.47953216,4,2,4,,,,,,,,8,03,,,,,,,,,,,,,8,2.085,1,,,,,,0.359638247,-0.406882643,1,0,0,2.0849,Pumice_rect,3,0,3,0,1,
6644c218e860482bd1d5113a,SCR,2024-06-24_15h58.18.879,LearnStrategy,2023.2.3,MacIntel,58.47953216,4,2,5,,,,,,,,4,11,,,,,,,,,,,,,2,2.341,0,,,,,,-0.116953974,-0.264928668,1,0,0,2.3415,Basalt_rect,4,0,4,0,1,
6644c218e860482bd1d5113a,SCR,2024-06-24_15h58.18.879,LearnStrategy,2023.2.3,MacIntel,58.47953216,4,2,6,,,,,,,,6,13,,,,,,,,,,,,,6,2.951,1,,,,,,-0.078706692,-0.407404891,1,0,0,2.9505,Pegmatite_rect,5,0,5,0,1,
6644c218e860482bd1d5113a,SCR,2024-06-24_15h58.18.879,LearnStrategy,2023.2.3,MacIntel,58.47953216,4,2,7,,,,,,,,1,14,,,,,,,,,,,,,4,1.918,0,,,,,,0.380923064,-0.245040761,1,0,0,1.9177,Gabbro_rect,6,0,6,0,1,
6644c218e860482bd1d5113a,SCR,2024-06-24_15h58.18.879,LearnStrategy,2023.2.3,MacIntel,58.47953216,4,2,8,,,,,,,,5,06,,,,,,,,,,,,,5,2.242,1,,,,,,-0.412652853,-0.399821671,1,0,0,2.2416,Obsidian_rect,7,0,7,0,1,
6644c218e860482bd1d5113a,SCR,2024-06-24_15h58.18.879,LearnStrategy,2023.2.3,MacIntel,58.47953216,4,2,9,,,,,,,,8,05,,,,,,,,,,,,,8,1.359,1,,,,,,0.387262228,-0.388523268,1,0,0,1.3585,Pumice_rect,8,0,8,0,1,
6644c218e860482bd1d5113a,SCR,2024-06-24_15h58.18.879,LearnStrategy,2023.2.3,MacIntel,58.47953216,4,2,10,,,,,,,,3,08,,,,,,,,,,,,,3,1.426,1,,,,,,0.139533798,-0.254029382,1,0,0,1.4257,Diorite_rect,9,0,9,0,1,
6644c218e860482bd1d5113a,SCR,2024-06-24_15h58.18.879,LearnStrategy,2023.2.3,MacIntel,58.47953216,4,2,11,,,,,,,,7,10,,,,,,,,,,,,,7,1.292,1,,,,,,0.130642833,-0.395677649,1,0,0,1.2923,Peridotite_rect,10,0,10,0,1,
6644c218e860482bd1d5113a,SCR,2024-06-24_15h58.18.879,LearnStrategy,2023.2.3,MacIntel,58.47953216,4,2,12,,,,,,,,4,03,,,,,,,,,,,,,4,3.008,1,,,,,,0.335300611,-0.238170856,1,0,0,3.0076,Gabbro_rect,11,0,11,0,1,
6644c218e860482bd1d5113a,SCR,2024-06-24_15h58.18.879,LearnStrategy,2023.2.3,MacIntel,58.47953216,4,2,13,,,,,,,,2,01,,,,,,,,,,,,,2,1.052,1,,,,,,-0.124893852,-0.257018512,1,0,0,1.0519,Basalt_rect,12,0,12,0,1,
6644c218e860482bd1d5113a,SCR,2024-06-24_15h58.18.879,LearnStrategy,2023.2.3,MacIntel,58.47953216,4,2,14,,,,,,,,6,09,,,,,,,,,,,,,6,1.375,1,,,,,,-0.138752548,-0.399966033,1,0,0,1.3752,Pegmatite_rect,13,0,13,0,1,
6644c218e860482bd1d5113a,SCR,2024-06-24_15h58.18.879,LearnStrategy,2023.2.3,MacIntel,58.47953216,4,2,15,,,,,,,,2,05,,,,,,,,,,,,,2,1.741,1,,,,,,-0.147291101,-0.236536175,1,0,0,1.7415,Basalt_rect,14,0,14,0,1,
6644c218e860482bd1d5113a,SCR,2024-06-24_15h58.18.879,LearnStrategy,2023.2.3,MacIntel,58.47953216,4,2,16,,,,,,,,5,05,,,,,,,,,,,,,5,1.087,1,,,,,,-0.326210088,-0.384850543,1,0,0,1.0867,Obsidian_rect,15,0,15,0,1,
6644c218e860482bd1d5113a,SCR,2024-06-24_15h58.18.879,LearnStrategy,2023.2.3,MacIntel,58.47953216,5,1,1,-0.427492357,-0.11326002,1,0,0,1.3298,Gabbro_01,4,01,3,2,1.33,4,01,0.360665761,-0.233988621,1,0,0,1.2244,Gabbro_rect,4,1.224,1,0,0,0,0,1,,,,,,,,,,,,,
6644c218e860482bd1d5113a,SCR,2024-06-24_15h58.18.879,LearnStrategy,2023.2.3,MacIntel,58.47953216,5,1,2,-0.533177649,0.450467052,1,0,0,1.3482,Diorite_09,3,09,6,1,1.348,3,09,0.147274117,-0.231483526,1,0,0,1.1738,Diorite_rect,3,1.174,1,1,0,1,0,1,,,,,,,,,,,,,
6644c218e860482bd1d5113a,SCR,2024-06-24_15h58.18.879,LearnStrategy,2023.2.3,MacIntel,58.47953216,5,1,3,-0.347061821,-0.226923404,1,0,0,0.8643,Peridotite_12,7,12,2,2,0.864,7,12,0.19094769,-0.418851902,1,0,0,1.0086,Peridotite_rect,7,1.009,1,2,0,2,0,1,,,,,,,,,,,,,
6644c218e860482bd1d5113a,SCR,2024-06-24_15h58.18.879,LearnStrategy,2023.2.3,MacIntel,58.47953216,5,1,4,-0.077827785,0.379356318,1,0,0,0.964,Andesite_03,1,03,6,4,0.964,1,03,-0.132901664,-0.241249151,1,0,0,0.8417,Basalt_rect,2,0.842,0,3,0,3,0,1,,,,,,,,,,,,,
6644c218e860482bd1d5113a,SCR,2024-06-24_15h58.18.879,LearnStrategy,2023.2.3,MacIntel,58.47953216,5,1,5,0.073853601,-0.361824898,1,0,0,1.1148,Diorite_07,3,07,1,5,1.115,3,07,0.389300272,-0.238799253,1,0,0,1.0578,Gabbro_rect,4,1.058,0,4,0,4,0,1,,,,,,,,,,,,,
6644c218e860482bd1d5113a,SCR,2024-06-24_15h58.18.879,LearnStrategy,2023.2.3,MacIntel,58.47953216,5,1,6,0.236871603,0.240850034,1,0,0,1.0478,Gabbro_08,4,08,5,6,1.048,4,08,-0.148607337,-0.263429857,1,0,0,1.908,Basalt_rect,2,1.908,0,5,0,5,0,1,,,,,,,,,,,,,
6644c218e860482bd1d5113a,SCR,2024-06-24_15h58.18.879,LearnStrategy,2023.2.3,MacIntel,58.47953216,5,1,7,-0.257914402,0.242803159,1,0,0,1.3978,Pegmatite_07,6,07,5,3,1.398,6,07,-0.177122962,-0.397936481,1,0,0,0.9744,Pegmatite_rect,6,0.974,1,6,0,6,0,1,,,,,,,,,,,,,
6644c218e860482bd1d5113a,SCR,2024-06-24_15h58.18.879,LearnStrategy,2023.2.3,MacIntel,58.47953216,5,1,8,0.579390285,-0.384634001,1,0,0,1.0813,Pegmatite_12,6,12,1,8,1.081,6,12,-0.044030231,-0.262389606,1,0,0,2.2582,Basalt_rect,2,2.258,0,7,0,7,0,1,,,,,,,,,,,,,
6644c218e860482bd1d5113a,SCR,2024-06-24_15h58.18.879,LearnStrategy,2023.2.3,MacIntel,58.47953216,5,1,9,0.363803499,0.238922385,1,0,0,3.4985,Pegmatite_03,6,03,5,7,3.499,5,07,-0.10259426,-0.417735224,1,0,0,1.0877,Pegmatite_rect,6,1.088,1,8,0,8,0,1,,,,,,,,,,,,,
6644c218e860482bd1d5113a,SCR,2024-06-24_15h58.18.879,LearnStrategy,2023.2.3,MacIntel,58.47953216,5,1,10,-0.053498641,0.216278872,1,0,0,0.9646,Gabbro_15,4,15,5,4,0.965,4,15,0.349859885,-0.25101053,1,0,0,1.7922,Gabbro_rect,4,1.792,1,9,0,9,0,1,,,,,,,,,,,,,
6644c218e860482bd1d5113a,SCR,2024-06-24_15h58.18.879,LearnStrategy,2023.2.3,MacIntel,58.47953216,5,1,11,0.567174762,0.227823539,1,0,0,0.9308,Andesite_04,1,04,5,8,0.931,1,04,-0.367951766,-0.244327446,1,0,0,1.3749,Andesite_rect,1,1.375,1,10,0,10,0,1,,,,,,,,,,,,,
6644c218e860482bd1d5113a,SCR,2024-06-24_15h58.18.879,LearnStrategy,2023.2.3,MacIntel,58.47953216,5,1,12,0.053384001,0.244679857,1,0,0,1.1978,Gabbro_13,4,13,5,5,1.198,4,13,0.31642748,-0.236200747,1,0,0,0.9082,Gabbro_rect,4,0.908,1,11,0,11,0,1,,,,,,,,,,,,,
6644c218e860482bd1d5113a,SCR,2024-06-24_15h58.18.879,LearnStrategy,2023.2.3,MacIntel,58.47953216,5,1,13,-0.100632643,-0.403184443,1,0,0,1.4645,Andesite_06,1,06,1,4,1.465,1,06,-0.328303329,-0.254177989,1,0,0,2.1916,Andesite_rect,1,2.192,1,12,0,12,0,1,,,,,,,,,,,,,
6644c218e860482bd1d5113a,SCR,2024-06-24_15h58.18.879,LearnStrategy,2023.2.3,MacIntel,58.47953216,5,1,14,-0.49622962,-0.227640965,1,0,0,1.0643,Gabbro_10,4,10,2,1,1.064,4,10,-0.146013077,-0.264130435,1,0,0,1.542,Basalt_rect,2,1.542,0,13,0,13,0,1,,,,,,,,,,,,,
6644c218e860482bd1d5113a,SCR,2024-06-24_15h58.18.879,LearnStrategy,2023.2.3,MacIntel,58.47953216,5,1,15,0.554899796,0.100165591,1,0,0,0.9144,Diorite_11,3,11,4,8,0.914,3,11,0.112096637,-0.406636379,1,0,0,1.7073,Peridotite_rect,7,1.707,0,14,0,14,0,1,,,,,,,,,,,,,
6644c218e860482bd1d5113a,SCR,2024-06-24_15h58.18.879,LearnStrategy,2023.2.3,MacIntel,58.47953216,5,1,16,0.233610734,0.383194633,1,0,0,1.0983,Basalt_08,2,08,6,6,1.098,2,08,-0.179411515,-0.250963825,1,0,0,1.1411,Basalt_rect,2,1.141,1,15,0,15,0,1,,,,,,,,,,,,,
6644c218e860482bd1d5113a,SCR,2024-06-24_15h58.18.879,LearnStrategy,2023.2.3,MacIntel,58.47953216,5,2,1,,,,,,,,2,04,,,,,,,,,,,,,2,1.192,1,,,,,,-0.076188859,-0.245337976,1,0,0,1.192,Basalt_rect,0,0,0,0,1,
6644c218e860482bd1d5113a,SCR,2024-06-24_15h58.18.879,LearnStrategy,2023.2.3,MacIntel,58.47953216,5,2,2,,,,,,,,6,15,,,,,,,,,,,,,6,1.247,1,,,,,,-0.115119735,-0.407969599,1,0,0,1.2466,Pegmatite_rect,1,0,1,0,1,
6644c218e860482bd1d5113a,SCR,2024-06-24_15h58.18.879,LearnStrategy,2023.2.3,MacIntel,58.47953216,5,2,3,,,,,,,,8,13,,,,,,,,,,,,,8,1.242,1,,,,,,0.408767833,-0.411162534,1,0,0,1.2423,Pumice_rect,2,0,2,0,1,
6644c218e860482bd1d5113a,SCR,2024-06-24_15h58.18.879,LearnStrategy,2023.2.3,MacIntel,58.47953216,5,2,4,,,,,,,,5,04,,,,,,,,,,,,,5,1.059,1,,,,,,-0.424036175,-0.414427649,1,0,0,1.0591,Obsidian_rect,3,0,3,0,1,
6644c218e860482bd1d5113a,SCR,2024-06-24_15h58.18.879,LearnStrategy,2023.2.3,MacIntel,58.47953216,5,2,5,,,,,,,,8,09,,,,,,,,,,,,,8,1.542,1,,,,,,0.40388502,-0.411026664,1,0,0,1.5421,Pumice_rect,4,0,4,0,1,
6644c218e860482bd1d5113a,SCR,2024-06-24_15h58.18.879,LearnStrategy,2023.2.3,MacIntel,58.47953216,5,2,6,,,,,,,,4,05,,,,,,,,,,,,,7,4.076,0,,,,,,0.166440217,-0.391907269,1,0,0,4.0759,Peridotite_rect,5,0,5,0,1,
6644c218e860482bd1d5113a,SCR,2024-06-24_15h58.18.879,LearnStrategy,2023.2.3,MacIntel,58.47953216,5,2,7,,,,,,,,4,14,,,,,,,,,,,,,4,3.837,1,,,,,,0.356317935,-0.246450408,1,0,0,3.8365,Gabbro_rect,6,0,6,0,1,
6644c218e860482bd1d5113a,SCR,2024-06-24_15h58.18.879,LearnStrategy,2023.2.3,MacIntel,58.47953216,5,2,8,,,,,,,,1,01,,,,,,,,,,,,,3,1.785,0,,,,,,0.065140965,-0.25377038,1,0,0,1.7853,Diorite_rect,7,0,7,0,1,
6644c218e860482bd1d5113a,SCR,2024-06-24_15h58.18.879,LearnStrategy,2023.2.3,MacIntel,58.47953216,5,2,9,,,,,,,,3,12,,,,,,,,,,,,,4,2.542,0,,,,,,0.342361583,-0.257901664,1,0,0,2.5418,Gabbro_rect,8,0,8,0,1,
6644c218e860482bd1d5113a,SCR,2024-06-24_15h58.18.879,LearnStrategy,2023.2.3,MacIntel,58.47953216,5,2,10,,,,,,,,5,09,,,,,,,,,,,,,5,1.128,1,,,,,,-0.364533798,-0.385929008,1,0,0,1.1277,Obsidian_rect,9,0,9,0,1,
6644c218e860482bd1d5113a,SCR,2024-06-24_15h58.18.879,LearnStrategy,2023.2.3,MacIntel,58.47953216,5,2,11,,,,,,,,6,05,,,,,,,,,,,,,6,1.692,1,,,,,,-0.131640625,-0.396161685,1,0,0,1.6916,Pegmatite_rect,10,0,10,0,1,
6644c218e860482bd1d5113a,SCR,2024-06-24_15h58.18.879,LearnStrategy,2023.2.3,MacIntel,58.47953216,5,2,12,,,,,,,,1,10,,,,,,,,,,,,,1,1.576,1,,,,,,-0.341274626,-0.263943614,1,0,0,1.5758,Andesite_rect,11,0,11,0,1,
6644c218e860482bd1d5113a,SCR,2024-06-24_15h58.18.879,LearnStrategy,2023.2.3,MacIntel,58.47953216,5,2,13,,,,,,,,7,16,,,,,,,,,,,,,7,0.992,1,,,,,,0.114461617,-0.417370075,1,0,0,0.992,Peridotite_rect,12,0,12,0,1,
6644c218e860482bd1d5113a,SCR,2024-06-24_15h58.18.879,LearnStrategy,2023.2.3,MacIntel,58.47953216,5,2,14,,,,,,,,3,14,,,,,,,,,,,,,3,2.342,1,,,,,,0.11627038,-0.263960598,1,0,0,2.3417,Diorite_rect,13,0,13,0,1,
6644c218e860482bd1d5113a,SCR,2024-06-24_15h58.18.879,LearnStrategy,2023.2.3,MacIntel,58.47953216,5,2,15,,,,,,,,7,14,,,,,,,,,,,,,7,1.875,1,,,,,,0.157591712,-0.380757473,1,0,0,1.8752,Peridotite_rect,14,0,14,0,1,
6644c218e860482bd1d5113a,SCR,2024-06-24_15h58.18.879,LearnStrategy,2023.2.3,MacIntel,58.47953216,5,2,16,,,,,,,,2,09,,,,,,,,,,,,,2,0.976,1,,,,,,-0.138973336,-0.238620924,1,0,0,0.9759,Basalt_rect,15,0,15,0,1,
6644c218e860482bd1d5113a,SCR,2024-06-24_15h58.18.879,LearnStrategy,2023.2.3,MacIntel,58.47953216,6,1,1,-0.068189538,0.376027514,1,0,0,0.9804,Andesite_03,1,03,6,4,0.98,1,03,-0.324949049,-0.230422045,1,0,0,1.5247,Andesite_rect,1,1.525,1,0,0,0,0,1,,,,,,,,,,,,,
6644c218e860482bd1d5113a,SCR,2024-06-24_15h58.18.879,LearnStrategy,2023.2.3,MacIntel,58.47953216,6,1,2,-0.228923234,-0.289992357,1,0,0,1.131,Andesite_07,1,07,2,3,1.131,1,07,0.175611413,-0.249944803,1,0,0,0.8924,Diorite_rect,3,0.892,0,1,0,1,0,1,,,,,,,,,,,,,
6644c218e860482bd1d5113a,SCR,2024-06-24_15h58.18.879,LearnStrategy,2023.2.3,MacIntel,58.47953216,6,1,3,0.598492697,0.089814029,1,0,0,0.9318,Diorite_11,3,11,4,8,0.932,3,11,0.361196501,-0.258377208,1,0,0,2.0265,Gabbro_rect,4,2.027,0,2,0,2,0,1,,,,,,,,,,,,,
6644c218e860482bd1d5113a,SCR,2024-06-24_15h58.18.879,LearnStrategy,2023.2.3,MacIntel,58.47953216,6,1,4,0.221429178,0.089397928,1,0,0,0.8472,Gabbro_12,4,12,4,6,0.847,4,12,0.164453125,-0.260241168,1,0,0,2.909,Diorite_rect,3,2.909,0,3,0,3,0,1,,,,,,,,,,,,,
6644c218e860482bd1d5113a,SCR,2024-06-24_15h58.18.879,LearnStrategy,2023.2.3,MacIntel,58.47953216,6,1,5,-0.393325408,-0.056606658,1,0,0,0.9481,Gabbro_01,4,01,3,2,0.948,4,01,0.105171535,-0.383682914,1,0,0,2.4577,Peridotite_rect,7,2.458,0,4,0,4,0,1,,,,,,,,,,,,,
6644c218e860482bd1d5113a,SCR,2024-06-24_15h58.18.879,LearnStrategy,2023.2.3,MacIntel,58.47953216,6,1,6,-0.565272588,0.426515795,1,0,0,0.8984,Diorite_09,3,09,6,1,0.898,3,09,0.384132982,-0.255120584,1,0,0,0.7398,Gabbro_rect,4,0.74,0,5,0,5,0,1,,,,,,,,,,,,,
6644c218e860482bd1d5113a,SCR,2024-06-24_15h58.18.879,LearnStrategy,2023.2.3,MacIntel,58.47953216,6,1,7,-0.224358865,-0.289066746,1,0,0,2.7645,Andesite_07,1,07,2,3,2.764,5,10,0.168626868,-0.257073709,1,0,0,1.5737,Diorite_rect,3,1.574,0,6,0,6,0,1,,,,,,,,,,,,,
6644c218e860482bd1d5113a,SCR,2024-06-24_15h58.18.879,LearnStrategy,2023.2.3,MacIntel,58.47953216,6,1,8,0.561459749,-0.113344939,1,0,0,0.8477,Diorite_06,3,06,3,8,0.848,4,01,0.333203125,-0.248798404,1,0,0,4.2255,Gabbro_rect,4,4.225,0,7,0,7,0,1,,,,,,,,,,,,,
6644c218e860482bd1d5113a,SCR,2024-06-24_15h58.18.879,LearnStrategy,2023.2.3,MacIntel,58.47953216,6,1,9,0.086544667,-0.426931895,1,0,0,1.2149,Diorite_07,3,07,1,5,1.215,1,04,0.443911345,-0.253651495,1,0,0,1.1756,Gabbro_rect,4,1.176,0,8,0,8,0,1,,,,,,,,,,,,,
6644c218e860482bd1d5113a,SCR,2024-06-24_15h58.18.879,LearnStrategy,2023.2.3,MacIntel,58.47953216,6,1,10,-0.195533288,-0.254296875,1,0,0,1.548,Andesite_07,1,07,2,3,1.548,4,01,0.3359375,-0.264512568,1,0,0,1.5915,Gabbro_rect,4,1.591,0,9,0,9,0,1,,,,,,,,,,,,,
6644c218e860482bd1d5113a,SCR,2024-06-24_15h58.18.879,LearnStrategy,2023.2.3,MacIntel,58.47953216,6,1,11,-0.397596807,-0.37084324,1,0,0,1.8316,Pegmatite_10,6,10,1,2,1.832,6,10,-0.080876359,-0.396356997,1,0,0,9.2757,Pegmatite_rect,6,9.276,1,10,0,10,0,1,,,,,,,,,,,,,
6644c218e860482bd1d5113a,SCR,2024-06-24_15h58.18.879,LearnStrategy,2023.2.3,MacIntel,58.47953216,6,1,12,-0.372078804,0.369340183,1,0,0,1.0809,Pumice_14,8,14,6,2,1.081,8,14,0.339695143,-0.40232252,1,0,0,0.9067,Pumice_rect,8,0.907,1,11,0,11,0,1,,,,,,,,,,,,,
6644c218e860482bd1d5113a,SCR,2024-06-24_15h58.18.879,LearnStrategy,2023.2.3,MacIntel,58.47953216,6,1,13,-0.053451936,-0.211871603,1,0,0,1.0985,Basalt_10,2,10,2,4,1.098,2,10,-0.156080163,-0.25443699,1,0,0,1.3411,Basalt_rect,2,1.341,1,12,0,12,0,1,,,,,,,,,,,,,
6644c218e860482bd1d5113a,SCR,2024-06-24_15h58.18.879,LearnStrategy,2023.2.3,MacIntel,58.47953216,6,1,14,-0.398403533,-0.282141644,1,0,0,1.1648,Peridotite_12,7,12,2,2,1.165,7,12,0.146450408,-0.402649457,1,0,0,1.6905,Peridotite_rect,7,1.691,1,13,0,13,0,1,,,,,,,,,,,,,
6644c218e860482bd1d5113a,SCR,2024-06-24_15h58.18.879,LearnStrategy,2023.2.3,MacIntel,58.47953216,6,1,15,0.091605808,-0.390170686,1,0,0,1.3647,Diorite_07,3,07,1,5,1.365,3,07,0.376044497,-0.269369905,1,0,0,2.0922,Gabbro_rect,4,2.092,0,14,0,14,0,1,,,,,,,,,,,,,
6644c218e860482bd1d5113a,SCR,2024-06-24_15h58.18.879,LearnStrategy,2023.2.3,MacIntel,58.47953216,6,1,16,-0.276953125,0.297278363,1,0,0,0.8982,Pegmatite_07,6,07,5,3,0.898,6,07,-0.085487432,-0.409421705,1,0,0,4.1077,Pegmatite_rect,6,4.108,1,15,0,15,0,1,,,,,,,,,,,,,
6644c218e860482bd1d5113a,SCR,2024-06-24_15h58.18.879,LearnStrategy,2023.2.3,MacIntel,58.47953216,6,2,1,,,,,,,,5,16,,,,,,,,,,,,,5,1.374,1,,,,,,-0.370490829,-0.379165251,1,0,0,1.3744,Obsidian_rect,0,0,0,0,1,
6644c218e860482bd1d5113a,SCR,2024-06-24_15h58.18.879,LearnStrategy,2023.2.3,MacIntel,58.47953216,6,2,2,,,,,,,,3,15,,,,,,,,,,,,,3,5.208,1,,,,,,0.18180197,-0.267535666,1,0,0,5.208,Diorite_rect,1,0,1,0,1,
6644c218e860482bd1d5113a,SCR,2024-06-24_15h58.18.879,LearnStrategy,2023.2.3,MacIntel,58.47953216,6,2,3,,,,,,,,7,08,,,,,,,,,,,,,7,1.719,1,,,,,,0.135402514,-0.401613451,1,0,0,1.7189,Peridotite_rect,2,0,2,0,1,
6644c218e860482bd1d5113a,SCR,2024-06-24_15h58.18.879,LearnStrategy,2023.2.3,MacIntel,58.47953216,6,2,4,,,,,,,,2,02,,,,,,,,,,,,,2,1.075,1,,,,,,-0.075424592,-0.264363961,1,0,0,1.0754,Basalt_rect,3,0,3,0,1,
6644c218e860482bd1d5113a,SCR,2024-06-24_15h58.18.879,LearnStrategy,2023.2.3,MacIntel,58.47953216,6,2,5,,,,,,,,5,08,,,,,,,,,,,,,5,1.342,1,,,,,,-0.33896909,-0.384205163,1,0,0,1.3419,Obsidian_rect,4,0,4,0,1,
6644c218e860482bd1d5113a,SCR,2024-06-24_15h58.18.879,LearnStrategy,2023.2.3,MacIntel,58.47953216,6,2,6,,,,,,,,6,11,,,,,,,,,,,,,6,1.609,1,,,,,,-0.08830248,-0.410967221,1,0,0,1.6094,Pegmatite_rect,5,0,5,0,1,
6644c218e860482bd1d5113a,SCR,2024-06-24_15h58.18.879,LearnStrategy,2023.2.3,MacIntel,58.47953216,6,2,7,,,,,,,,1,11,,,,,,,,,,,,,1,1.577,1,,,,,,-0.341533628,-0.2427607,1,0,0,1.5765,Andesite_rect,6,0,6,0,1,
6644c218e860482bd1d5113a,SCR,2024-06-24_15h58.18.879,LearnStrategy,2023.2.3,MacIntel,58.47953216,6,2,8,,,,,,,,8,15,,,,,,,,,,,,,8,1.975,1,,,,,,0.376409647,-0.411081861,1,0,0,1.9752,Pumice_rect,7,0,7,0,1,
6644c218e860482bd1d5113a,SCR,2024-06-24_15h58.18.879,LearnStrategy,2023.2.3,MacIntel,58.47953216,6,2,9,,,,,,,,8,16,,,,,,,,,,,,,8,0.726,1,,,,,,0.356339164,-0.412640115,1,0,0,0.7256,Pumice_rect,8,0,8,0,1,
6644c218e860482bd1d5113a,SCR,2024-06-24_15h58.18.879,LearnStrategy,2023.2.3,MacIntel,58.47953216,6,2,10,,,,,,,,6,06,,,,,,,,,,,,,6,2.543,1,,,,,,-0.096081012,-0.400390625,1,0,0,2.5427,Pegmatite_rect,9,0,9,0,1,
6644c218e860482bd1d5113a,SCR,2024-06-24_15h58.18.879,LearnStrategy,2023.2.3,MacIntel,58.47953216,6,2,11,,,,,,,,4,16,,,,,,,,,,,,,2,1.475,0,,,,,,-0.103078295,-0.253575068,1,0,0,1.4754,Basalt_rect,10,0,10,0,1,
6644c218e860482bd1d5113a,SCR,2024-06-24_15h58.18.879,LearnStrategy,2023.2.3,MacIntel,58.47953216,6,2,12,,,,,,,,3,16,,,,,,,,,,,,,3,1.307,1,,,,,,0.181007982,-0.250233526,1,0,0,1.3074,Diorite_rect,11,0,11,0,1,
6644c218e860482bd1d5113a,SCR,2024-06-24_15h58.18.879,LearnStrategy,2023.2.3,MacIntel,58.47953216,6,2,13,,,,,,,,1,02,,,,,,,,,,,,,1,1.525,1,,,,,,-0.407799762,-0.260546875,1,0,0,1.525,Andesite_rect,12,0,12,0,1,
6644c218e860482bd1d5113a,SCR,2024-06-24_15h58.18.879,LearnStrategy,2023.2.3,MacIntel,58.47953216,6,2,14,,,,,,,,2,14,,,,,,,,,,,,,2,1.793,1,,,,,,-0.164818274,-0.269883662,1,0,0,1.7929,Basalt_rect,13,0,13,0,1,
6644c218e860482bd1d5113a,SCR,2024-06-24_15h58.18.879,LearnStrategy,2023.2.3,MacIntel,58.47953216,6,2,15,,,,,,,,7,05,,,,,,,,,,,,,7,1.541,1,,,,,,0.111829144,-0.409077785,1,0,0,1.5412,Peridotite_rect,14,0,14,0,1,
6644c218e860482bd1d5113a,SCR,2024-06-24_15h58.18.879,LearnStrategy,2023.2.3,MacIntel,58.47953216,6,2,16,,,,,,,,4,09,,,,,,,,,,,,,2,6.175,0,,,,,,-0.129254416,-0.242140795,1,0,0,6.1751,Basalt_rect,15,0,15,0,1,
6644c218e860482bd1d5113a,SCR,2024-06-24_15h58.18.879,LearnStrategy,2023.2.3,MacIntel,58.47953216,7,1,1,0.070240319,0.110321841,1,0,0,1.0978,Diorite_13,3,13,4,5,1.098,3,13,0.196017323,-0.241304348,1,0,0,1.0407,Diorite_rect,3,1.041,1,0,0,0,0,1,,,,,,,,,,,,,
6644c218e860482bd1d5113a,SCR,2024-06-24_15h58.18.879,LearnStrategy,2023.2.3,MacIntel,58.47953216,7,1,2,-0.546705163,-0.267043139,1,0,0,1.1975,Gabbro_10,4,10,2,1,1.197,4,10,-0.100191067,-0.235924762,1,0,0,2.9076,Basalt_rect,2,2.908,0,1,0,1,0,1,,,,,,,,,,,,,
6644c218e860482bd1d5113a,SCR,2024-06-24_15h58.18.879,LearnStrategy,2023.2.3,MacIntel,58.47953216,7,1,3,-0.096514096,0.267917799,1,0,0,0.8169,Gabbro_15,4,15,5,4,0.817,4,15,0.120011039,-0.243622622,1,0,0,1.8735,Diorite_rect,3,1.874,0,2,0,2,0,1,,,,,,,,,,,,,
6644c218e860482bd1d5113a,SCR,2024-06-24_15h58.18.879,LearnStrategy,2023.2.3,MacIntel,58.47953216,7,1,4,0.406080163,0.065132473,1,0,0,0.7309,Pegmatite_16,6,16,4,7,0.731,6,16,-0.094811481,-0.390625,1,0,0,1.0069,Pegmatite_rect,6,1.007,1,3,0,3,0,1,,,,,,,,,,,,,
6644c218e860482bd1d5113a,SCR,2024-06-24_15h58.18.879,LearnStrategy,2023.2.3,MacIntel,58.47953216,7,1,5,0.210903533,0.073539402,1,0,0,1.0467,Gabbro_12,4,12,4,6,1.047,4,12,0.422516135,-0.23099949,1,0,0,3.0077,Gabbro_rect,4,3.008,1,4,0,4,0,1,,,,,,,,,,,,,
6644c218e860482bd1d5113a,SCR,2024-06-24_15h58.18.879,LearnStrategy,2023.2.3,MacIntel,58.47953216,7,1,6,0.096140455,-0.100934103,1,0,0,0.681,Obsidian_14,5,14,3,5,0.681,5,14,-0.382629925,-0.400738791,1,0,0,1.0903,Obsidian_rect,5,1.09,1,5,0,5,0,1,,,,,,,,,,,,,
6644c218e860482bd1d5113a,SCR,2024-06-24_15h58.18.879,LearnStrategy,2023.2.3,MacIntel,58.47953216,7,1,7,-0.573403533,-0.282379416,1,0,0,1.2632,Gabbro_10,4,10,2,1,1.263,4,10,0.349702785,-0.268490999,1,0,0,5.0268,Gabbro_rect,4,5.027,1,6,0,6,0,1,,,,,,,,,,,,,
6644c218e860482bd1d5113a,SCR,2024-06-24_15h58.18.879,LearnStrategy,2023.2.3,MacIntel,58.47953216,7,1,8,-0.360457711,-0.233852751,1,0,0,0.914,Peridotite_12,7,12,2,2,0.914,7,12,0.152012568,-0.390884001,1,0,0,1.6572,Peridotite_rect,7,1.657,1,7,0,7,0,1,,,,,,,,,,,,,
6644c218e860482bd1d5113a,SCR,2024-06-24_15h58.18.879,LearnStrategy,2023.2.3,MacIntel,58.47953216,7,1,9,0.046356997,0.07810377,1,0,0,0.5488,Diorite_13,3,13,4,5,0.549,3,13,0.11806216,-0.271811311,1,0,0,1.1424,Diorite_rect,3,1.142,1,8,0,8,0,1,,,,,,,,,,,,,
6644c218e860482bd1d5113a,SCR,2024-06-24_15h58.18.879,LearnStrategy,2023.2.3,MacIntel,58.47953216,7,1,10,0.089720618,0.256933594,1,0,0,0.9993,Gabbro_13,4,13,5,5,0.999,4,13,0.413599694,-0.258585258,1,0,0,3.2744,Gabbro_rect,4,3.274,1,9,0,9,0,1,,,,,,,,,,,,,
6644c218e860482bd1d5113a,SCR,2024-06-24_15h58.18.879,LearnStrategy,2023.2.3,MacIntel,58.47953216,7,1,11,-0.097091542,-0.453918988,1,0,0,0.8821,Andesite_06,1,06,1,4,0.882,1,06,-0.418113111,-0.236230469,1,0,0,1.3415,Andesite_rect,1,1.341,1,10,0,10,0,1,,,,,,,,,,,,,
6644c218e860482bd1d5113a,SCR,2024-06-24_15h58.18.879,LearnStrategy,2023.2.3,MacIntel,58.47953216,7,1,12,0.219824219,0.261196501,1,0,0,0.7973,Gabbro_08,4,08,5,6,0.797,4,08,-0.073654042,-0.402471128,1,0,0,1.3422,Pegmatite_rect,6,1.342,0,11,0,11,0,1,,,,,,,,,,,,,
6644c218e860482bd1d5113a,SCR,2024-06-24_15h58.18.879,LearnStrategy,2023.2.3,MacIntel,58.47953216,7,1,13,0.267909307,-0.088022249,1,0,0,0.8147,Pumice_04,8,04,3,6,0.815,8,04,0.377275815,-0.379177989,1,0,0,0.9073,Pumice_rect,8,0.907,1,12,0,12,0,1,,,,,,,,,,,,,
6644c218e860482bd1d5113a,SCR,2024-06-24_15h58.18.879,LearnStrategy,2023.2.3,MacIntel,58.47953216,7,1,14,0.500199558,0.251405401,1,0,0,0.8653,Andesite_04,1,04,5,8,0.865,1,04,-0.346573539,-0.232723336,1,0,0,1.2911,Andesite_rect,1,1.291,1,13,0,13,0,1,,,,,,,,,,,,,
6644c218e860482bd1d5113a,SCR,2024-06-24_15h58.18.879,LearnStrategy,2023.2.3,MacIntel,58.47953216,7,1,15,-0.233564029,-0.4431768,1,0,0,0.7824,Basalt_12,2,12,1,3,0.782,2,12,0.102267323,-0.263391644,1,0,0,6.0578,Diorite_rect,3,6.058,0,14,0,14,0,1,,,,,,,,,,,,,
6644c218e860482bd1d5113a,SCR,2024-06-24_15h58.18.879,LearnStrategy,2023.2.3,MacIntel,58.47953216,7,1,16,0.563841712,0.084383492,1,0,0,0.9339,Diorite_11,3,11,4,8,0.934,3,11,0.179097317,-0.264070992,1,0,0,2.9074,Diorite_rect,3,2.907,1,15,0,15,0,1,,,,,,,,,,,,,
6644c218e860482bd1d5113a,SCR,2024-06-24_15h58.18.879,LearnStrategy,2023.2.3,MacIntel,58.47953216,7,2,1,,,,,,,,3,16,,,,,,,,,,,,,3,3.242,1,,,,,,0.153137738,-0.271068274,1,0,0,3.2417,Diorite_rect,0,0,0,0,1,
6644c218e860482bd1d5113a,SCR,2024-06-24_15h58.18.879,LearnStrategy,2023.2.3,MacIntel,58.47953216,7,2,2,,,,,,,,4,11,,,,,,,,,,,,,2,1.185,0,,,,,,-0.138332201,-0.259073539,1,0,0,1.1847,Basalt_rect,1,0,1,0,1,
6644c218e860482bd1d5113a,SCR,2024-06-24_15h58.18.879,LearnStrategy,2023.2.3,MacIntel,58.47953216,7,2,3,,,,,,,,5,06,,,,,,,,,,,,,5,0.993,1,,,,,,-0.358521569,-0.391741678,1,0,0,0.9929,Obsidian_rect,2,0,2,0,1,
6644c218e860482bd1d5113a,SCR,2024-06-24_15h58.18.879,LearnStrategy,2023.2.3,MacIntel,58.47953216,7,2,4,,,,,,,,7,05,,,,,,,,,,,,,7,1.858,1,,,,,,0.075598675,-0.392382813,1,0,0,1.8577,Peridotite_rect,3,0,3,0,1,
6644c218e860482bd1d5113a,SCR,2024-06-24_15h58.18.879,LearnStrategy,2023.2.3,MacIntel,58.47953216,7,2,5,,,,,,,,1,10,,,,,,,,,,,,,4,2.343,0,,,,,,0.386158288,-0.243070652,1,0,0,2.3428,Gabbro_rect,4,0,4,0,1,
6644c218e860482bd1d5113a,SCR,2024-06-24_15h58.18.879,LearnStrategy,2023.2.3,MacIntel,58.47953216,7,2,6,,,,,,,,8,03,,,,,,,,,,,,,8,1.002,1,,,,,,0.378477412,-0.421883492,1,0,0,1.0021,Pumice_rect,5,0,5,0,1,
6644c218e860482bd1d5113a,SCR,2024-06-24_15h58.18.879,LearnStrategy,2023.2.3,MacIntel,58.47953216,7,2,7,,,,,,,,1,02,,,,,,,,,,,,,4,1.476,0,,,,,,0.377305537,-0.266007133,1,0,0,1.4761,Gabbro_rect,6,0,6,0,1,
6644c218e860482bd1d5113a,SCR,2024-06-24_15h58.18.879,LearnStrategy,2023.2.3,MacIntel,58.47953216,7,2,8,,,,,,,,8,15,,,,,,,,,,,,,8,0.995,1,,,,,,0.349350374,-0.389945652,1,0,0,0.9948,Pumice_rect,7,0,7,0,1,
6644c218e860482bd1d5113a,SCR,2024-06-24_15h58.18.879,LearnStrategy,2023.2.3,MacIntel,58.47953216,7,2,9,,,,,,,,6,06,,,,,,,,,,,,,6,1.992,1,,,,,,-0.198284647,-0.400356658,1,0,0,1.9918,Pegmatite_rect,8,0,8,0,1,
6644c218e860482bd1d5113a,SCR,2024-06-24_15h58.18.879,LearnStrategy,2023.2.3,MacIntel,58.47953216,7,2,10,,,,,,,,6,15,,,,,,,,,,,,,6,0.767,1,,,,,,-0.198284647,-0.400356658,1,0,0,0.7673,Pegmatite_rect,9,0,9,0,1,
6644c218e860482bd1d5113a,SCR,2024-06-24_15h58.18.879,LearnStrategy,2023.2.3,MacIntel,58.47953216,7,2,11,,,,,,,,5,05,,,,,,,,,,,,,5,0.858,1,,,,,,-0.347711447,-0.40202106,1,0,0,0.8582,Obsidian_rect,10,0,10,0,1,
6644c218e860482bd1d5113a,SCR,2024-06-24_15h58.18.879,LearnStrategy,2023.2.3,MacIntel,58.47953216,7,2,12,,,,,,,,2,09,,,,,,,,,,,,,2,1.076,1,,,,,,-0.161124321,-0.262504246,1,0,0,1.0756,Basalt_rect,11,0,11,0,1,
6644c218e860482bd1d5113a,SCR,2024-06-24_15h58.18.879,LearnStrategy,2023.2.3,MacIntel,58.47953216,7,2,13,,,,,,,,2,02,,,,,,,,,,,,,2,0.691,1,,,,,,-0.160623302,-0.262754755,1,0,0,0.6915,Basalt_rect,12,0,12,0,1,
6644c218e860482bd1d5113a,SCR,2024-06-24_15h58.18.879,LearnStrategy,2023.2.3,MacIntel,58.47953216,7,2,14,,,,,,,,3,02,,,,,,,,,,,,,4,4.025,0,,,,,,0.399609375,-0.248828125,1,0,0,4.0247,Gabbro_rect,13,0,13,0,1,
6644c218e860482bd1d5113a,SCR,2024-06-24_15h58.18.879,LearnStrategy,2023.2.3,MacIntel,58.47953216,7,2,15,,,,,,,,7,16,,,,,,,,,,,,,7,1.752,1,,,,,,0.122626529,-0.401099694,1,0,0,1.7516,Peridotite_rect,14,0,14,0,1,
6644c218e860482bd1d5113a,SCR,2024-06-24_15h58.18.879,LearnStrategy,2023.2.3,MacIntel,58.47953216,7,2,16,,,,,,,,4,05,,,,,,,,,,,,,7,2.426,0,,,,,,0.096675442,-0.39689623,1,0,0,2.4255,Peridotite_rect,15,0,15,0,1,
6644c218e860482bd1d5113a,SCR,2024-06-24_15h58.18.879,LearnStrategy,2023.2.3,MacIntel,58.47953216,8,1,1,-0.233691406,0.258423913,1,0,0,1.2641,Pegmatite_07,6,07,5,3,1.264,6,07,-0.157294497,-0.386251698,1,0,0,1.0245,Pegmatite_rect,6,1.024,1,0,0,0,0,1,,,,,,,,,,,,,
6644c218e860482bd1d5113a,SCR,2024-06-24_15h58.18.879,LearnStrategy,2023.2.3,MacIntel,58.47953216,8,1,2,0.54864555,0.043783967,1,0,0,0.9482,Diorite_11,3,11,4,8,0.948,3,11,0.164020041,-0.25321841,1,0,0,2.0575,Diorite_rect,3,2.058,1,1,0,1,0,1,,,,,,,,,,,,,
6644c218e860482bd1d5113a,SCR,2024-06-24_15h58.18.879,LearnStrategy,2023.2.3,MacIntel,58.47953216,8,1,3,-0.25599949,0.417747962,1,0,0,1.0144,Andesite_05,1,05,6,3,1.014,1,05,-0.402454144,-0.257409137,1,0,0,1.4413,Andesite_rect,1,1.441,1,2,0,2,0,1,,,,,,,,,,,,,
6644c218e860482bd1d5113a,SCR,2024-06-24_15h58.18.879,LearnStrategy,2023.2.3,MacIntel,58.47953216,8,1,4,-0.417493207,-0.127938179,1,0,0,0.7313,Gabbro_01,4,01,3,2,0.731,4,01,0.352568784,-0.257668139,1,0,0,1.8419,Gabbro_rect,4,1.842,1,3,0,3,0,1,,,,,,,,,,,,,
6644c218e860482bd1d5113a,SCR,2024-06-24_15h58.18.879,LearnStrategy,2023.2.3,MacIntel,58.47953216,8,1,5,-0.385126529,-0.304942255,1,0,0,0.781,Peridotite_12,7,12,2,2,0.781,7,12,0.145966372,-0.406513247,1,0,0,1.1584,Peridotite_rect,7,1.158,1,4,0,4,0,1,,,,,,,,,,,,,
6644c218e860482bd1d5113a,SCR,2024-06-24_15h58.18.879,LearnStrategy,2023.2.3,MacIntel,58.47953216,8,1,6,-0.09117697,0.249783458,1,0,0,0.6978,Gabbro_15,4,15,5,4,0.698,4,15,0.339703635,-0.231092901,1,0,0,1.6235,Gabbro_rect,4,1.624,1,5,0,5,0,1,,,,,,,,,,,,,
6644c218e860482bd1d5113a,SCR,2024-06-24_15h58.18.879,LearnStrategy,2023.2.3,MacIntel,58.47953216,8,1,7,-0.390777853,0.26431301,1,0,0,1.1478,Obsidian_02,5,02,5,2,1.148,5,02,-0.415544327,-0.383194633,1,0,0,0.9251,Obsidian_rect,5,0.925,1,6,0,6,0,1,,,,,,,,,,,,,
6644c218e860482bd1d5113a,SCR,2024-06-24_15h58.18.879,LearnStrategy,2023.2.3,MacIntel,58.47953216,8,1,8,-0.574983016,-0.290586787,1,0,0,0.8982,Gabbro_10,4,10,2,1,0.898,4,10,-0.109566067,-0.25769786,1,0,0,2.6081,Basalt_rect,2,2.608,0,7,0,7,0,1,,,,,,,,,,,,,
6644c218e860482bd1d5113a,SCR,2024-06-24_15h58.18.879,LearnStrategy,2023.2.3,MacIntel,58.47953216,8,1,9,-0.260899287,0.452033798,1,0,0,0.8311,Andesite_05,1,05,6,3,0.831,1,05,-0.355863621,-0.246891984,1,0,0,2.1923,Andesite_rect,1,2.192,1,8,0,8,0,1,,,,,,,,,,,,,
6644c218e860482bd1d5113a,SCR,2024-06-24_15h58.18.879,LearnStrategy,2023.2.3,MacIntel,58.47953216,8,1,10,-0.554729959,-0.230872113,1,0,0,0.7812,Gabbro_10,4,10,2,1,0.781,4,10,0.369603431,-0.22890625,1,0,0,1.1748,Gabbro_rect,4,1.175,1,9,0,9,0,1,,,,,,,,,,,,,
6644c218e860482bd1d5113a,SCR,2024-06-24_15h58.18.879,LearnStrategy,2023.2.3,MacIntel,58.47953216,8,1,11,0.078477412,0.221794327,1,0,0,0.6144,Gabbro_13,4,13,5,5,0.614,4,13,0.419123641,-0.261565897,1,0,0,2.825,Gabbro_rect,4,2.825,1,10,0,10,0,1,,,,,,,,,,,,,
6644c218e860482bd1d5113a,SCR,2024-06-24_15h58.18.879,LearnStrategy,2023.2.3,MacIntel,58.47953216,8,1,12,-0.531886889,0.359943954,1,0,0,1.1646,Diorite_09,3,09,6,1,1.165,3,09,0.08258322,-0.256967561,1,0,0,2.3596,Diorite_rect,3,2.36,1,11,0,11,0,1,,,,,,,,,,,,,
6644c218e860482bd1d5113a,SCR,2024-06-24_15h58.18.879,LearnStrategy,2023.2.3,MacIntel,58.47953216,8,1,13,-0.071102242,-0.238523268,1,0,0,0.6804,Basalt_10,2,10,2,4,0.68,2,10,-0.09485394,-0.25512483,1,0,0,0.6248,Basalt_rect,2,0.625,1,12,0,12,0,1,,,,,,,,,,,,,
6644c218e860482bd1d5113a,SCR,2024-06-24_15h58.18.879,LearnStrategy,2023.2.3,MacIntel,58.47953216,8,1,14,0.557523777,0.258606488,1,0,0,1.1475,Andesite_04,1,04,5,8,1.147,1,04,-0.395456861,-0.271582031,1,0,0,1.0416,Andesite_rect,1,1.042,1,13,0,13,0,1,,,,,,,,,,,,,
6644c218e860482bd1d5113a,SCR,2024-06-24_15h58.18.879,LearnStrategy,2023.2.3,MacIntel,58.47953216,8,1,15,0.077513587,-0.460219939,1,0,0,0.7983,Diorite_07,3,07,1,5,0.798,3,07,0.154967731,-0.263599694,1,0,0,1.2407,Diorite_rect,3,1.241,1,14,0,14,0,1,,,,,,,,,,,,,
6644c218e860482bd1d5113a,SCR,2024-06-24_15h58.18.879,LearnStrategy,2023.2.3,MacIntel,58.47953216,8,1,16,-0.415497622,-0.138633662,1,0,0,0.8648,Gabbro_01,4,01,3,2,0.865,4,01,0.396828295,-0.251116678,1,0,0,1.4078,Gabbro_rect,4,1.408,1,15,0,15,0,1,,,,,,,,,,,,,
6644c218e860482bd1d5113a,SCR,2024-06-24_15h58.18.879,LearnStrategy,2023.2.3,MacIntel,58.47953216,8,2,1,,,,,,,,1,09,,,,,,,,,,,,,2,3.608,0,,,,,,-0.094242527,-0.254258662,1,0,0,3.6079,Basalt_rect,0,0,0,0,1,
6644c218e860482bd1d5113a,SCR,2024-06-24_15h58.18.879,LearnStrategy,2023.2.3,MacIntel,58.47953216,8,2,2,,,,,,,,7,13,,,,,,,,,,,,,7,1.001,1,,,,,,0.090238621,-0.413264266,1,0,0,1.0011,Peridotite_rect,1,0,1,0,1,
6644c218e860482bd1d5113a,SCR,2024-06-24_15h58.18.879,LearnStrategy,2023.2.3,MacIntel,58.47953216,8,2,3,,,,,,,,5,08,,,,,,,,,,,,,5,0.892,1,,,,,,-0.331717052,-0.413378906,1,0,0,0.892,Obsidian_rect,2,0,2,0,1,
6644c218e860482bd1d5113a,SCR,2024-06-24_15h58.18.879,LearnStrategy,2023.2.3,MacIntel,58.47953216,8,2,4,,,,,,,,4,09,,,,,,,,,,,,,2,1.76,0,,,,,,-0.158950408,-0.269735054,1,0,0,1.7596,Basalt_rect,3,0,3,0,1,
6644c218e860482bd1d5113a,SCR,2024-06-24_15h58.18.879,LearnStrategy,2023.2.3,MacIntel,58.47953216,8,2,5,,,,,,,,6,09,,,,,,,,,,,,,6,1.776,1,,,,,,-0.110988451,-0.414818274,1,0,0,1.7756,Pegmatite_rect,4,0,4,0,1,
6644c218e860482bd1d5113a,SCR,2024-06-24_15h58.18.879,LearnStrategy,2023.2.3,MacIntel,58.47953216,8,2,6,,,,,,,,6,05,,,,,,,,,,,,,6,2.193,1,,,,,,-0.110737942,-0.414818274,1,0,0,2.193,Pegmatite_rect,5,0,5,0,1,
6644c218e860482bd1d5113a,SCR,2024-06-24_15h58.18.879,LearnStrategy,2023.2.3,MacIntel,58.47953216,8,2,7,,,,,,,,8,16,,,,,,,,,,,,,8,1.342,1,,,,,,0.382366678,-0.403986923,1,0,0,1.3424,Pumice_rect,6,0,6,0,1,
6644c218e860482bd1d5113a,SCR,2024-06-24_15h58.18.879,LearnStrategy,2023.2.3,MacIntel,58.47953216,8,2,8,,,,,,,,2,01,,,,,,,,,,,,,2,1.075,1,,,,,,-0.139559273,-0.242425272,1,0,0,1.075,Basalt_rect,7,0,7,0,1,
6644c218e860482bd1d5113a,SCR,2024-06-24_15h58.18.879,LearnStrategy,2023.2.3,MacIntel,58.47953216,8,2,9,,,,,,,,1,11,,,,,,,,,,,,,1,1.508,1,,,,,,-0.356470788,-0.246204144,1,0,0,1.5077,Andesite_rect,8,0,8,0,1,
6644c218e860482bd1d5113a,SCR,2024-06-24_15h58.18.879,LearnStrategy,2023.2.3,MacIntel,58.47953216,8,2,10,,,,,,,,2,14,,,,,,,,,,,,,4,2.775,0,,,,,,0.415013587,-0.262533967,1,0,0,2.7752,Gabbro_rect,9,0,9,0,1,
6644c218e860482bd1d5113a,SCR,2024-06-24_15h58.18.879,LearnStrategy,2023.2.3,MacIntel,58.47953216,8,2,11,,,,,,,,8,05,,,,,,,,,,,,,8,1.268,1,,,,,,0.399116848,-0.40939623,1,0,0,1.2682,Pumice_rect,10,0,10,0,1,
6644c218e860482bd1d5113a,SCR,2024-06-24_15h58.18.879,LearnStrategy,2023.2.3,MacIntel,58.47953216,8,2,12,,,,,,,,3,15,,,,,,,,,,,,,4,2.542,0,,,,,,0.358092731,-0.260423743,1,0,0,2.5421,Gabbro_rect,11,0,11,0,1,
6644c218e860482bd1d5113a,SCR,2024-06-24_15h58.18.879,LearnStrategy,2023.2.3,MacIntel,58.47953216,8,2,13,,,,,,,,5,16,,,,,,,,,,,,,5,1.041,1,,,,,,-0.387589164,-0.411413043,1,0,0,1.0414,Obsidian_rect,12,0,12,0,1,
6644c218e860482bd1d5113a,SCR,2024-06-24_15h58.18.879,LearnStrategy,2023.2.3,MacIntel,58.47953216,8,2,14,,,,,,,,3,08,,,,,,,,,,,,,3,1.059,1,,,,,,0.210084069,-0.248501189,1,0,0,1.0587,Diorite_rect,13,0,13,0,1,
6644c218e860482bd1d5113a,SCR,2024-06-24_15h58.18.879,LearnStrategy,2023.2.3,MacIntel,58.47953216,8,2,15,,,,,,,,7,08,,,,,,,,,,,,,7,1.176,1,,,,,,0.132035496,-0.403532609,1,0,0,1.1757,Peridotite_rect,14,0,14,0,1,
6644c218e860482bd1d5113a,SCR,2024-06-24_15h58.18.879,LearnStrategy,2023.2.3,MacIntel,58.47953216,8,2,16,,,,,,,,4,03,,,,,,,,,,,,,4,1.691,1,,,,,,0.3822393,-0.260084069,1,0,0,1.6914,Gabbro_rect,15,0,15,0,1,
6644c218e860482bd1d5113a,SCR,2024-06-24_15h58.18.879,LearnStrategy,2023.2.3,MacIntel,58.47953216,9,1,1,-0.077012568,-0.251970109,1,0,0,0.7225,Basalt_10,2,10,2,4,0.723,2,10,-0.077012568,-0.251970109,1,0,0,0.7403,Basalt_rect,2,0.74,1,0,0,0,0,1,,,,,,,,,,,,,
6644c218e860482bd1d5113a,SCR,2024-06-24_15h58.18.879,LearnStrategy,2023.2.3,MacIntel,58.47953216,9,1,2,-0.063378906,0.402407439,1,0,0,0.9638,Andesite_03,1,03,6,4,0.964,1,03,-0.329768173,-0.234094769,1,0,0,1.1595,Andesite_rect,1,1.159,1,1,0,1,0,1,,,,,,,,,,,,,
6644c218e860482bd1d5113a,SCR,2024-06-24_15h58.18.879,LearnStrategy,2023.2.3,MacIntel,58.47953216,9,1,3,0.559056556,-0.082001529,1,0,0,0.798,Diorite_06,3,06,3,8,0.798,3,06,0.169055707,-0.2609375,1,0,0,1.7916,Diorite_rect,3,1.792,1,2,0,2,0,1,,,,,,,,,,,,,
6644c218e860482bd1d5113a,SCR,2024-06-24_15h58.18.879,LearnStrategy,2023.2.3,MacIntel,58.47953216,9,1,4,0.078158967,0.230982507,1,0,0,1.031,Gabbro_13,4,13,5,5,1.031,4,13,0.359676461,-0.25523947,1,0,0,1.0579,Gabbro_rect,4,1.058,1,3,0,3,0,1,,,,,,,,,,,,,
6644c218e860482bd1d5113a,SCR,2024-06-24_15h58.18.879,LearnStrategy,2023.2.3,MacIntel,58.47953216,9,1,5,-0.558449389,-0.413349185,1,0,0,1.1471,Basalt_16,2,16,1,1,1.147,2,16,0.397758152,-0.245478091,1,0,0,2.9249,Gabbro_rect,4,2.925,0,4,0,4,0,1,,,,,,,,,,,,,
6644c218e860482bd1d5113a,SCR,2024-06-24_15h58.18.879,LearnStrategy,2023.2.3,MacIntel,58.47953216,9,1,6,0.119832711,0.257740319,1,0,0,0.7817,Gabbro_13,4,13,5,5,0.782,4,13,0.392705503,-0.259455673,1,0,0,1.2576,Gabbro_rect,4,1.258,1,5,0,5,0,1,,,,,,,,,,,,,
6644c218e860482bd1d5113a,SCR,2024-06-24_15h58.18.879,LearnStrategy,2023.2.3,MacIntel,58.47953216,9,1,7,0.231521739,0.100755774,1,0,0,0.681,Gabbro_12,4,12,4,6,0.681,4,12,0.368554687,-0.258835768,1,0,0,1.4417,Gabbro_rect,4,1.442,1,6,0,6,0,1,,,,,,,,,,,,,
6644c218e860482bd1d5113a,SCR,2024-06-24_15h58.18.879,LearnStrategy,2023.2.3,MacIntel,58.47953216,9,1,8,0.238438349,0.270461107,1,0,0,0.865,Gabbro_08,4,08,5,6,0.865,4,08,-0.171607507,-0.410275136,1,0,0,1.6915,Pegmatite_rect,6,1.691,0,7,0,7,0,1,,,,,,,,,,,,,
6644c218e860482bd1d5113a,SCR,2024-06-24_15h58.18.879,LearnStrategy,2023.2.3,MacIntel,58.47953216,9,1,9,0.572257133,-0.366019871,1,0,0,0.9646,Pegmatite_12,6,12,1,8,0.965,6,12,-0.085326087,-0.3978643,1,0,0,1.7738,Pegmatite_rect,6,1.774,1,8,0,8,0,1,,,,,,,,,,,,,
6644c218e860482bd1d5113a,SCR,2024-06-24_15h58.18.879,LearnStrategy,2023.2.3,MacIntel,58.47953216,9,1,10,-0.342629076,0.11642748,1,0,0,0.9315,Diorite_10,3,10,4,2,0.931,3,10,0.158564029,-0.253069803,1,0,0,0.8414,Diorite_rect,3,0.841,1,9,0,9,0,1,,,,,,,,,,,,,
6644c218e860482bd1d5113a,SCR,2024-06-24_15h58.18.879,LearnStrategy,2023.2.3,MacIntel,58.47953216,9,1,11,-0.565782099,-0.109973675,1,0,0,0.8321,Obsidian_10,5,10,3,1,0.832,5,10,-0.420537534,-0.398908798,1,0,0,1.458,Obsidian_rect,5,1.458,1,10,0,10,0,1,,,,,,,,,,,,,
6644c218e860482bd1d5113a,SCR,2024-06-24_15h58.18.879,LearnStrategy,2023.2.3,MacIntel,58.47953216,9,1,12,-0.099626359,0.294709579,1,0,0,0.7481,Gabbro_15,4,15,5,4,0.748,4,15,0.337814198,-0.244365659,1,0,0,0.8747,Gabbro_rect,4,0.875,1,11,0,11,0,1,,,,,,,,,,,,,
6644c218e860482bd1d5113a,SCR,2024-06-24_15h58.18.879,LearnStrategy,2023.2.3,MacIntel,58.47953216,9,1,13,-0.430574898,0.083109715,1,0,0,0.9647,Diorite_10,3,10,4,2,0.965,3,10,0.110432235,-0.386056386,1,0,0,2.5915,Peridotite_rect,7,2.591,0,12,0,12,0,1,,,,,,,,,,,,,
6644c218e860482bd1d5113a,SCR,2024-06-24_15h58.18.879,LearnStrategy,2023.2.3,MacIntel,58.47953216,9,1,14,-0.231292459,-0.276740829,1,0,0,0.914,Andesite_07,1,07,2,3,0.914,1,07,-0.379538893,-0.239054008,1,0,0,0.8084,Andesite_rect,1,0.808,1,13,0,13,0,1,,,,,,,,,,,,,
6644c218e860482bd1d5113a,SCR,2024-06-24_15h58.18.879,LearnStrategy,2023.2.3,MacIntel,58.47953216,9,1,15,0.57621858,0.260551121,1,0,0,1.4144,Andesite_04,1,04,5,8,1.414,1,04,-0.399583899,-0.242255435,1,0,0,0.925,Andesite_rect,1,0.925,1,14,0,14,0,1,,,,,,,,,,,,,
6644c218e860482bd1d5113a,SCR,2024-06-24_15h58.18.879,LearnStrategy,2023.2.3,MacIntel,58.47953216,9,1,16,-0.100513757,-0.096976902,1,0,0,0.5806,Peridotite_07,7,07,3,4,0.581,7,07,0.193970788,-0.411447011,1,0,0,1.3912,Peridotite_rect,7,1.391,1,15,0,15,0,1,,,,,,,,,,,,,
6644c218e860482bd1d5113a,SCR,2024-06-24_15h58.18.879,LearnStrategy,2023.2.3,MacIntel,58.47953216,9,2,1,,,,,,,,6,11,,,,,,,,,,,,,6,1.592,1,,,,,,-0.099002208,-0.409094769,1,0,0,1.5919,Pegmatite_rect,0,0,0,0,1,
6644c218e860482bd1d5113a,SCR,2024-06-24_15h58.18.879,LearnStrategy,2023.2.3,MacIntel,58.47953216,9,2,2,,,,,,,,7,14,,,,,,,,,,,,,7,1.842,1,,,,,,0.103672724,-0.392616338,1,0,0,1.8418,Peridotite_rect,1,0,1,0,1,
6644c218e860482bd1d5113a,SCR,2024-06-24_15h58.18.879,LearnStrategy,2023.2.3,MacIntel,58.47953216,9,2,3,,,,,,,,5,09,,,,,,,,,,,,,5,1.076,1,,,,,,-0.380213995,-0.392242697,1,0,0,1.0757,Obsidian_rect,2,0,2,0,1,
6644c218e860482bd1d5113a,SCR,2024-06-24_15h58.18.879,LearnStrategy,2023.2.3,MacIntel,58.47953216,9,2,4,,,,,,,,3,14,,,,,,,,,,,,,3,3.493,1,,,,,,0.140726902,-0.260818614,1,0,0,3.4927,Diorite_rect,3,0,3,0,1,
6644c218e860482bd1d5113a,SCR,2024-06-24_15h58.18.879,LearnStrategy,2023.2.3,MacIntel,58.47953216,9,2,5,,,,,,,,7,10,,,,,,,,,,,,,7,1.102,1,,,,,,0.11810462,-0.416045346,1,0,0,1.1016,Peridotite_rect,4,0,4,0,1,
6644c218e860482bd1d5113a,SCR,2024-06-24_15h58.18.879,LearnStrategy,2023.2.3,MacIntel,58.47953216,9,2,6,,,,,,,,8,13,,,,,,,,,,,,,8,1.093,1,,,,,,0.333232846,-0.403685462,1,0,0,1.0927,Pumice_rect,5,0,5,0,1,
6644c218e860482bd1d5113a,SCR,2024-06-24_15h58.18.879,LearnStrategy,2023.2.3,MacIntel,58.47953216,9,2,7,,,,,,,,4,14,,,,,,,,,,,,,4,1.726,1,,,,,,0.401044497,-0.269845448,1,0,0,1.7257,Gabbro_rect,6,0,6,0,1,
6644c218e860482bd1d5113a,SCR,2024-06-24_15h58.18.879,LearnStrategy,2023.2.3,MacIntel,58.47953216,9,2,8,,,,,,,,8,09,,,,,,,,,,,,,8,0.969,1,,,,,,0.363943614,-0.388243037,1,0,0,0.9688,Pumice_rect,7,0,7,0,1,
6644c218e860482bd1d5113a,SCR,2024-06-24_15h58.18.879,LearnStrategy,2023.2.3,MacIntel,58.47953216,9,2,9,,,,,,,,1,01,,,,,,,,,,,,,4,2.342,0,,,,,,0.401889436,-0.260071332,1,0,0,2.3421,Gabbro_rect,8,0,8,0,1,
6644c218e860482bd1d5113a,SCR,2024-06-24_15h58.18.879,LearnStrategy,2023.2.3,MacIntel,58.47953216,9,2,10,,,,,,,,5,04,,,,,,,,,,,,,5,1.835,1,,,,,,-0.458716882,-0.38306301,1,0,0,1.8349,Obsidian_rect,9,0,9,0,1,
6644c218e860482bd1d5113a,SCR,2024-06-24_15h58.18.879,LearnStrategy,2023.2.3,MacIntel,58.47953216,9,2,11,,,,,,,,2,05,,,,,,,,,,,,,2,1.159,1,,,,,,-0.175267493,-0.259901495,1,0,0,1.159,Basalt_rect,10,0,10,0,1,
6644c218e860482bd1d5113a,SCR,2024-06-24_15h58.18.879,LearnStrategy,2023.2.3,MacIntel,58.47953216,9,2,12,,,,,,,,2,04,,,,,,,,,,,,,2,0.508,1,,,,,,-0.175267493,-0.259901495,1,0,0,0.5084,Basalt_rect,11,0,11,0,1,
6644c218e860482bd1d5113a,SCR,2024-06-24_15h58.18.879,LearnStrategy,2023.2.3,MacIntel,58.47953216,9,2,13,,,,,,,,6,13,,,,,,,,,,,,,6,1.374,1,,,,,,-0.162300442,-0.387920346,1,0,0,1.3743,Pegmatite_rect,12,0,12,0,1,
6644c218e860482bd1d5113a,SCR,2024-06-24_15h58.18.879,LearnStrategy,2023.2.3,MacIntel,58.47953216,9,2,14,,,,,,,,3,12,,,,,,,,,,,,,3,2.642,1,,,,,,0.175004246,-0.242068614,1,0,0,2.6423,Diorite_rect,13,0,13,0,1,
6644c218e860482bd1d5113a,SCR,2024-06-24_15h58.18.879,LearnStrategy,2023.2.3,MacIntel,58.47953216,9,2,15,,,,,,,,1,14,,,,,,,,,,,,,4,1.717,0,,,,,,0.369994056,-0.239746094,1,0,0,1.7167,Gabbro_rect,14,0,14,0,1,
6644c218e860482bd1d5113a,SCR,2024-06-24_15h58.18.879,LearnStrategy,2023.2.3,MacIntel,58.47953216,9,2,16,,,,,,,,4,16,,,,,,,,,,,,,2,2.559,0,,,,,,-0.147049083,-0.262975543,1,0,0,2.5589,Basalt_rect,15,0,15,0,1,
6644c218e860482bd1d5113a,SCR,2024-06-24_15h58.18.879,LearnStrategy,2023.2.3,MacIntel,58.47953216,,,,,,,,,,,,,,,,,,,,,,,,,,,,,,,,,,,,,,,,,,,,,1
6644c218e860482bd1d5113a,SCR,2024-06-24_15h58.18.879,LearnStrategy,2023.2.3,MacIntel,58.47953216,,,,,,,,,,,,,,,,,,,,,,,,,,,,,,,,,,,,,,,,,,,,,
6644c218e860482bd1d5113a,SCR,2024-06-24_15h58.18.879,LearnStrategy,2023.2.3,MacIntel,58.47953216,,,,,,,,,,,2,16,1,1,,,,,,,,,,,,,,,,,,,,,,,,,,,,,,,
6644c218e860482bd1d5113a,SCR,2024-06-24_15h58.18.879,LearnStrategy,2023.2.3,MacIntel,58.47953216,,,,,,,,,,,6,10,1,2,,,,,,,,,,,,,,,,,,,,,,,,,,,,,,,
6644c218e860482bd1d5113a,SCR,2024-06-24_15h58.18.879,LearnStrategy,2023.2.3,MacIntel,58.47953216,,,,,,,,,,,2,12,1,3,,,,,,,,,,,,,,,,,,,,,,,,,,,,,,,
6644c218e860482bd1d5113a,SCR,2024-06-24_15h58.18.879,LearnStrategy,2023.2.3,MacIntel,58.47953216,,,,,,,,,,,1,06,1,4,,,,,,,,,,,,,,,,,,,,,,,,,,,,,,,
6644c218e860482bd1d5113a,SCR,2024-06-24_15h58.18.879,LearnStrategy,2023.2.3,MacIntel,58.47953216,,,,,,,,,,,3,07,1,5,,,,,,,,,,,,,,,,,,,,,,,,,,,,,,,
6644c218e860482bd1d5113a,SCR,2024-06-24_15h58.18.879,LearnStrategy,2023.2.3,MacIntel,58.47953216,,,,,,,,,,,7,02,1,6,,,,,,,,,,,,,,,,,,,,,,,,,,,,,,,
6644c218e860482bd1d5113a,SCR,2024-06-24_15h58.18.879,LearnStrategy,2023.2.3,MacIntel,58.47953216,,,,,,,,,,,8,10,1,7,,,,,,,,,,,,,,,,,,,,,,,,,,,,,,,
6644c218e860482bd1d5113a,SCR,2024-06-24_15h58.18.879,LearnStrategy,2023.2.3,MacIntel,58.47953216,,,,,,,,,,,6,12,1,8,,,,,,,,,,,,,,,,,,,,,,,,,,,,,,,
6644c218e860482bd1d5113a,SCR,2024-06-24_15h58.18.879,LearnStrategy,2023.2.3,MacIntel,58.47953216,,,,,,,,,,,4,10,2,1,,,,,,,,,,,,,,,,,,,,,,,,,,,,,,,
6644c218e860482bd1d5113a,SCR,2024-06-24_15h58.18.879,LearnStrategy,2023.2.3,MacIntel,58.47953216,,,,,,,,,,,7,12,2,2,,,,,,,,,,,,,,,,,,,,,,,,,,,,,,,
6644c218e860482bd1d5113a,SCR,2024-06-24_15h58.18.879,LearnStrategy,2023.2.3,MacIntel,58.47953216,,,,,,,,,,,1,07,2,3,,,,,,,,,,,,,,,,,,,,,,,,,,,,,,,
6644c218e860482bd1d5113a,SCR,2024-06-24_15h58.18.879,LearnStrategy,2023.2.3,MacIntel,58.47953216,,,,,,,,,,,2,10,2,4,,,,,,,,,,,,,,,,,,,,,,,,,,,,,,,
6644c218e860482bd1d5113a,SCR,2024-06-24_15h58.18.879,LearnStrategy,2023.2.3,MacIntel,58.47953216,,,,,,,,,,,5,12,2,5,,,,,,,,,,,,,,,,,,,,,,,,,,,,,,,
6644c218e860482bd1d5113a,SCR,2024-06-24_15h58.18.879,LearnStrategy,2023.2.3,MacIntel,58.47953216,,,,,,,,,,,5,07,2,6,,,,,,,,,,,,,,,,,,,,,,,,,,,,,,,
6644c218e860482bd1d5113a,SCR,2024-06-24_15h58.18.879,LearnStrategy,2023.2.3,MacIntel,58.47953216,,,,,,,,,,,8,08,2,7,,,,,,,,,,,,,,,,,,,,,,,,,,,,,,,
6644c218e860482bd1d5113a,SCR,2024-06-24_15h58.18.879,LearnStrategy,2023.2.3,MacIntel,58.47953216,,,,,,,,,,,2,06,2,8,,,,,,,,,,,,,,,,,,,,,,,,,,,,,,,
6644c218e860482bd1d5113a,SCR,2024-06-24_15h58.18.879,LearnStrategy,2023.2.3,MacIntel,58.47953216,,,,,,,,,,,5,10,3,1,,,,,,,,,,,,,,,,,,,,,,,,,,,,,,,
6644c218e860482bd1d5113a,SCR,2024-06-24_15h58.18.879,LearnStrategy,2023.2.3,MacIntel,58.47953216,,,,,,,,,,,4,01,3,2,,,,,,,,,,,,,,,,,,,,,,,,,,,,,,,
6644c218e860482bd1d5113a,SCR,2024-06-24_15h58.18.879,LearnStrategy,2023.2.3,MacIntel,58.47953216,,,,,,,,,,,7,06,3,3,,,,,,,,,,,,,,,,,,,,,,,,,,,,,,,
6644c218e860482bd1d5113a,SCR,2024-06-24_15h58.18.879,LearnStrategy,2023.2.3,MacIntel,58.47953216,,,,,,,,,,,7,07,3,4,,,,,,,,,,,,,,,,,,,,,,,,,,,,,,,
6644c218e860482bd1d5113a,SCR,2024-06-24_15h58.18.879,LearnStrategy,2023.2.3,MacIntel,58.47953216,,,,,,,,,,,5,14,3,5,,,,,,,,,,,,,,,,,,,,,,,,,,,,,,,
6644c218e860482bd1d5113a,SCR,2024-06-24_15h58.18.879,LearnStrategy,2023.2.3,MacIntel,58.47953216,,,,,,,,,,,8,04,3,6,,,,,,,,,,,,,,,,,,,,,,,,,,,,,,,
6644c218e860482bd1d5113a,SCR,2024-06-24_15h58.18.879,LearnStrategy,2023.2.3,MacIntel,58.47953216,,,,,,,,,,,6,08,3,7,,,,,,,,,,,,,,,,,,,,,,,,,,,,,,,
6644c218e860482bd1d5113a,SCR,2024-06-24_15h58.18.879,LearnStrategy,2023.2.3,MacIntel,58.47953216,,,,,,,,,,,3,06,3,8,,,,,,,,,,,,,,,,,,,,,,,,,,,,,,,
6644c218e860482bd1d5113a,SCR,2024-06-24_15h58.18.879,LearnStrategy,2023.2.3,MacIntel,58.47953216,,,,,,,,,,,5,11,4,1,,,,,,,,,,,,,,,,,,,,,,,,,,,,,,,
6644c218e860482bd1d5113a,SCR,2024-06-24_15h58.18.879,LearnStrategy,2023.2.3,MacIntel,58.47953216,,,,,,,,,,,3,10,4,2,,,,,,,,,,,,,,,,,,,,,,,,,,,,,,,
6644c218e860482bd1d5113a,SCR,2024-06-24_15h58.18.879,LearnStrategy,2023.2.3,MacIntel,58.47953216,,,,,,,,,,,2,11,4,3,,,,,,,,,,,,,,,,,,,,,,,,,,,,,,,
6644c218e860482bd1d5113a,SCR,2024-06-24_15h58.18.879,LearnStrategy,2023.2.3,MacIntel,58.47953216,,,,,,,,,,,8,02,4,4,,,,,,,,,,,,,,,,,,,,,,,,,,,,,,,
6644c218e860482bd1d5113a,SCR,2024-06-24_15h58.18.879,LearnStrategy,2023.2.3,MacIntel,58.47953216,,,,,,,,,,,3,13,4,5,,,,,,,,,,,,,,,,,,,,,,,,,,,,,,,
6644c218e860482bd1d5113a,SCR,2024-06-24_15h58.18.879,LearnStrategy,2023.2.3,MacIntel,58.47953216,,,,,,,,,,,4,12,4,6,,,,,,,,,,,,,,,,,,,,,,,,,,,,,,,
6644c218e860482bd1d5113a,SCR,2024-06-24_15h58.18.879,LearnStrategy,2023.2.3,MacIntel,58.47953216,,,,,,,,,,,6,16,4,7,,,,,,,,,,,,,,,,,,,,,,,,,,,,,,,
6644c218e860482bd1d5113a,SCR,2024-06-24_15h58.18.879,LearnStrategy,2023.2.3,MacIntel,58.47953216,,,,,,,,,,,3,11,4,8,,,,,,,,,,,,,,,,,,,,,,,,,,,,,,,
6644c218e860482bd1d5113a,SCR,2024-06-24_15h58.18.879,LearnStrategy,2023.2.3,MacIntel,58.47953216,,,,,,,,,,,7,04,5,1,,,,,,,,,,,,,,,,,,,,,,,,,,,,,,,
6644c218e860482bd1d5113a,SCR,2024-06-24_15h58.18.879,LearnStrategy,2023.2.3,MacIntel,58.47953216,,,,,,,,,,,5,02,5,2,,,,,,,,,,,,,,,,,,,,,,,,,,,,,,,
6644c218e860482bd1d5113a,SCR,2024-06-24_15h58.18.879,LearnStrategy,2023.2.3,MacIntel,58.47953216,,,,,,,,,,,6,07,5,3,,,,,,,,,,,,,,,,,,,,,,,,,,,,,,,
6644c218e860482bd1d5113a,SCR,2024-06-24_15h58.18.879,LearnStrategy,2023.2.3,MacIntel,58.47953216,,,,,,,,,,,4,15,5,4,,,,,,,,,,,,,,,,,,,,,,,,,,,,,,,
6644c218e860482bd1d5113a,SCR,2024-06-24_15h58.18.879,LearnStrategy,2023.2.3,MacIntel,58.47953216,,,,,,,,,,,4,13,5,5,,,,,,,,,,,,,,,,,,,,,,,,,,,,,,,
6644c218e860482bd1d5113a,SCR,2024-06-24_15h58.18.879,LearnStrategy,2023.2.3,MacIntel,58.47953216,,,,,,,,,,,4,08,5,6,,,,,,,,,,,,,,,,,,,,,,,,,,,,,,,
6644c218e860482bd1d5113a,SCR,2024-06-24_15h58.18.879,LearnStrategy,2023.2.3,MacIntel,58.47953216,,,,,,,,,,,6,03,5,7,,,,,,,,,,,,,,,,,,,,,,,,,,,,,,,
6644c218e860482bd1d5113a,SCR,2024-06-24_15h58.18.879,LearnStrategy,2023.2.3,MacIntel,58.47953216,,,,,,,,,,,1,04,5,8,,,,,,,,,,,,,,,,,,,,,,,,,,,,,,,
6644c218e860482bd1d5113a,SCR,2024-06-24_15h58.18.879,LearnStrategy,2023.2.3,MacIntel,58.47953216,,,,,,,,,,,3,09,6,1,,,,,,,,,,,,,,,,,,,,,,,,,,,,,,,
6644c218e860482bd1d5113a,SCR,2024-06-24_15h58.18.879,LearnStrategy,2023.2.3,MacIntel,58.47953216,,,,,,,,,,,8,14,6,2,,,,,,,,,,,,,,,,,,,,,,,,,,,,,,,
6644c218e860482bd1d5113a,SCR,2024-06-24_15h58.18.879,LearnStrategy,2023.2.3,MacIntel,58.47953216,,,,,,,,,,,1,05,6,3,,,,,,,,,,,,,,,,,,,,,,,,,,,,,,,
6644c218e860482bd1d5113a,SCR,2024-06-24_15h58.18.879,LearnStrategy,2023.2.3,MacIntel,58.47953216,,,,,,,,,,,1,03,6,4,,,,,,,,,,,,,,,,,,,,,,,,,,,,,,,
6644c218e860482bd1d5113a,SCR,2024-06-24_15h58.18.879,LearnStrategy,2023.2.3,MacIntel,58.47953216,,,,,,,,,,,1,16,6,5,,,,,,,,,,,,,,,,,,,,,,,,,,,,,,,
6644c218e860482bd1d5113a,SCR,2024-06-24_15h58.18.879,LearnStrategy,2023.2.3,MacIntel,58.47953216,,,,,,,,,,,2,08,6,6,,,,,,,,,,,,,,,,,,,,,,,,,,,,,,,
6644c218e860482bd1d5113a,SCR,2024-06-24_15h58.18.879,LearnStrategy,2023.2.3,MacIntel,58.47953216,,,,,,,,,,,8,06,6,7,,,,,,,,,,,,,,,,,,,,,,,,,,,,,,,
6644c218e860482bd1d5113a,SCR,2024-06-24_15h58.18.879,LearnStrategy,2023.2.3,MacIntel,58.47953216,,,,,,,,,,,7,15,6,8,,,,,,,,,,,,,,,,,,,,,,,,,,,,,,,