participant,condition,date,expName,psychopyVersion,OS,frameRate,block,phase,trial,learn_mouse.x,learn_mouse.y,learn_mouse.leftButton,learn_mouse.midButton,learn_mouse.rightButton,learn_mouse.time,learn_mouse.clicked_name,cat,token,row,col,t_select,cat_rec,token_rec,cat_mouse_l.x,cat_mouse_l.y,cat_mouse_l.leftButton,cat_mouse_l.midButton,cat_mouse_l.rightButton,cat_mouse_l.time,cat_mouse_l.clicked_name,resp,t_resp,corr,train_trials.thisRepN,train_trials.thisTrialN,train_trials.thisN,train_trials.thisIndex,train_trials.ran,cat_mouse_t.x,cat_mouse_t.y,cat_mouse_t.leftButton,cat_mouse_t.midButton,cat_mouse_t.rightButton,cat_mouse_t.time,cat_mouse_t.clicked_name,test_trials.thisRepN,test_trials.thisTrialN,test_trials.thisN,test_trials.thisIndex,test_trials.ran,Bonus
66467e6f4c38889f9d043c4b,SCR,2024-06-26_12h39.59.929,LearnStrategy,2023.2.3,Win32,60.0240096,,,,,,,,,,,,,,,,,,,,,,,,,,,,,,,,,,,,,,,,,,,,,
66467e6f4c38889f9d043c4b,SCR,2024-06-26_12h39.59.929,LearnStrategy,2023.2.3,Win32,60.0240096,1,1,1,-0.25,-0.4125,1,0,0,2.276,Diorite_11,3,11,1,3,2.276,3,11,0.363888889,-0.404166667,1,0,0,7.661,Pumice_rect,8,7.661,0,0,0,0,0,1,,,,,,,,,,,,,
66467e6f4c38889f9d043c4b,SCR,2024-06-26_12h39.59.929,LearnStrategy,2023.2.3,Win32,60.0240096,1,1,2,0.068055556,0.080555556,1,0,0,1.551,Pumice_02,8,02,4,5,1.551,8,02,0.383333333,-0.386111111,1,0,0,2.684,Pumice_rect,8,2.684,1,1,0,1,0,1,,,,,,,,,,,,,
66467e6f4c38889f9d043c4b,SCR,2024-06-26_12h39.59.929,LearnStrategy,2023.2.3,Win32,60.0240096,1,1,3,0.211111111,-0.088888889,1,0,0,1.698,Obsidian_07,5,07,3,6,1.698,5,07,-0.388888889,-0.380555556,1,0,0,2.005,Obsidian_rect,5,2.005,1,2,0,2,0,1,,,,,,,,,,,,,
66467e6f4c38889f9d043c4b,SCR,2024-06-26_12h39.59.929,LearnStrategy,2023.2.3,Win32,60.0240096,1,1,4,0.261111111,0.402777778,1,0,0,1.202,Peridotite_14,7,14,6,6,1.202,7,14,-0.434722222,-0.25,1,0,0,1.931,Andesite_rect,1,1.931,0,3,0,3,0,1,,,,,,,,,,,,,
66467e6f4c38889f9d043c4b,SCR,2024-06-26_12h39.59.929,LearnStrategy,2023.2.3,Win32,60.0240096,1,1,5,0.4,0.230555556,1,0,0,1.487,Pegmatite_09,6,09,5,7,1.487,6,09,-0.102777778,-0.265277778,1,0,0,2.866,Basalt_rect,2,2.866,0,4,0,4,0,1,,,,,,,,,,,,,
66467e6f4c38889f9d043c4b,SCR,2024-06-26_12h39.59.929,LearnStrategy,2023.2.3,Win32,60.0240096,1,1,6,-0.118055556,0.252777778,1,0,0,1.37,Andesite_16,1,16,5,4,1.37,1,16,0.420833333,-0.266666667,1,0,0,2.38,Gabbro_rect,4,2.38,0,5,0,5,0,1,,,,,,,,,,,,,
66467e6f4c38889f9d043c4b,SCR,2024-06-26_12h39.59.929,LearnStrategy,2023.2.3,Win32,60.0240096,1,1,7,0.518055556,-0.419444444,1,0,0,1.914,Pumice_15,8,15,1,8,1.914,8,15,0.169444444,-0.405555556,1,0,0,2.667,Peridotite_rect,7,2.667,0,6,0,6,0,1,,,,,,,,,,,,,
66467e6f4c38889f9d043c4b,SCR,2024-06-26_12h39.59.929,LearnStrategy,2023.2.3,Win32,60.0240096,1,1,8,-0.529166667,0.404166667,1,0,0,2.352,Gabbro_03,4,03,6,1,2.352,2,02,-0.448611111,-0.397222222,1,0,0,1.408,Obsidian_rect,5,1.408,0,7,0,7,0,1,,,,,,,,,,,,,
66467e6f4c38889f9d043c4b,SCR,2024-06-26_12h39.59.929,LearnStrategy,2023.2.3,Win32,60.0240096,1,1,9,-0.372222222,0.379166667,1,0,0,1.185,Pumice_13,8,13,6,2,1.185,7,05,0.351388889,-0.408333333,1,0,0,2.218,Pumice_rect,8,2.218,1,8,0,8,0,1,,,,,,,,,,,,,
66467e6f4c38889f9d043c4b,SCR,2024-06-26_12h39.59.929,LearnStrategy,2023.2.3,Win32,60.0240096,1,1,10,-0.222222222,0.394444444,1,0,0,1.129,Gabbro_16,4,16,6,3,1.129,2,06,0.158333333,-0.261111111,1,0,0,5.285,Diorite_rect,3,5.285,0,9,0,9,0,1,,,,,,,,,,,,,
66467e6f4c38889f9d043c4b,SCR,2024-06-26_12h39.59.929,LearnStrategy,2023.2.3,Win32,60.0240096,1,1,11,-0.073611111,0.377777778,1,0,0,1.07,Obsidian_02,5,02,6,4,1.07,3,07,-0.4375,-0.379166667,1,0,0,1.147,Obsidian_rect,5,1.147,1,10,0,10,0,1,,,,,,,,,,,,,
66467e6f4c38889f9d043c4b,SCR,2024-06-26_12h39.59.929,LearnStrategy,2023.2.3,Win32,60.0240096,1,1,12,0.080555556,0.397222222,1,0,0,1.047,Andesite_09,1,09,6,5,1.047,6,11,0.369444444,-0.233333333,1,0,0,3.079,Gabbro_rect,4,3.079,0,11,0,11,0,1,,,,,,,,,,,,,
66467e6f4c38889f9d043c4b,SCR,2024-06-26_12h39.59.929,LearnStrategy,2023.2.3,Win32,60.0240096,1,1,13,0.233333333,0.375,1,0,0,1.179,Peridotite_14,7,14,6,6,1.179,1,03,-0.383333333,-0.234722222,1,0,0,2.19,Andesite_rect,1,2.19,0,12,0,12,0,1,,,,,,,,,,,,,
66467e6f4c38889f9d043c4b,SCR,2024-06-26_12h39.59.929,LearnStrategy,2023.2.3,Win32,60.0240096,1,1,14,0.3875,0.402777778,1,0,0,1.624,Basalt_06,2,06,6,7,1.624,4,16,-0.361111111,-0.401388889,1,0,0,2.893,Obsidian_rect,5,2.893,0,13,0,13,0,1,,,,,,,,,,,,,
66467e6f4c38889f9d043c4b,SCR,2024-06-26_12h39.59.929,LearnStrategy,2023.2.3,Win32,60.0240096,1,1,15,0.569444444,0.386111111,1,0,0,1.277,Pegmatite_16,6,16,6,8,1.277,4,13,-0.366666667,-0.415277778,1,0,0,2.074,Obsidian_rect,5,2.074,0,14,0,14,0,1,,,,,,,,,,,,,
66467e6f4c38889f9d043c4b,SCR,2024-06-26_12h39.59.929,LearnStrategy,2023.2.3,Win32,60.0240096,1,1,16,-0.55,0.251388889,1,0,0,1.211,Basalt_04,2,04,5,1,1.211,5,02,-0.384722222,-0.254166667,1,0,0,2.573,Andesite_rect,1,2.573,0,15,0,15,0,1,,,,,,,,,,,,,
66467e6f4c38889f9d043c4b,SCR,2024-06-26_12h39.59.929,LearnStrategy,2023.2.3,Win32,60.0240096,1,2,1,,,,,,,,8,03,,,,,,,,,,,,,8,2.024,1,,,,,,0.404166667,-0.393055556,1,0,0,2.024,Pumice_rect,0,0,0,0,1,
66467e6f4c38889f9d043c4b,SCR,2024-06-26_12h39.59.929,LearnStrategy,2023.2.3,Win32,60.0240096,1,2,2,,,,,,,,2,01,,,,,,,,,,,,,2,5.721,1,,,,,,-0.120833333,-0.266666667,1,0,0,5.721,Basalt_rect,1,0,1,0,1,
66467e6f4c38889f9d043c4b,SCR,2024-06-26_12h39.59.929,LearnStrategy,2023.2.3,Win32,60.0240096,1,2,3,,,,,,,,3,08,,,,,,,,,,,,,3,10.561,1,,,,,,0.097222222,-0.255555556,1,0,0,10.561,Diorite_rect,2,0,2,0,1,
66467e6f4c38889f9d043c4b,SCR,2024-06-26_12h39.59.929,LearnStrategy,2023.2.3,Win32,60.0240096,1,2,4,,,,,,,,2,16,,,,,,,,,,,,,2,11.543,1,,,,,,-0.183333333,-0.247222222,1,0,0,11.543,Basalt_rect,3,0,3,0,1,
66467e6f4c38889f9d043c4b,SCR,2024-06-26_12h39.59.929,LearnStrategy,2023.2.3,Win32,60.0240096,1,2,5,,,,,,,,3,02,,,,,,,,,,,,,1,4.552,0,,,,,,-0.426388889,-0.240277778,1,0,0,4.552,Andesite_rect,4,0,4,0,1,
66467e6f4c38889f9d043c4b,SCR,2024-06-26_12h39.59.929,LearnStrategy,2023.2.3,Win32,60.0240096,1,2,6,,,,,,,,7,02,,,,,,,,,,,,,6,2.666,0,,,,,,-0.126388889,-0.416666667,1,0,0,2.666,Pegmatite_rect,5,0,5,0,1,
66467e6f4c38889f9d043c4b,SCR,2024-06-26_12h39.59.929,LearnStrategy,2023.2.3,Win32,60.0240096,1,2,7,,,,,,,,4,10,,,,,,,,,,,,,2,4.091,0,,,,,,-0.127777778,-0.252777778,1,0,0,4.091,Basalt_rect,6,0,6,0,1,
66467e6f4c38889f9d043c4b,SCR,2024-06-26_12h39.59.929,LearnStrategy,2023.2.3,Win32,60.0240096,1,2,8,,,,,,,,8,05,,,,,,,,,,,,,8,1.989,1,,,,,,0.376388889,-0.401388889,1,0,0,1.989,Pumice_rect,7,0,7,0,1,
66467e6f4c38889f9d043c4b,SCR,2024-06-26_12h39.59.929,LearnStrategy,2023.2.3,Win32,60.0240096,1,2,9,,,,,,,,1,01,,,,,,,,,,,,,2,4.428,0,,,,,,-0.190277778,-0.234722222,1,0,0,4.428,Basalt_rect,8,0,8,0,1,
66467e6f4c38889f9d043c4b,SCR,2024-06-26_12h39.59.929,LearnStrategy,2023.2.3,Win32,60.0240096,1,2,10,,,,,,,,5,09,,,,,,,,,,,,,5,1.486,1,,,,,,-0.469444444,-0.402777778,1,0,0,1.486,Obsidian_rect,9,0,9,0,1,
66467e6f4c38889f9d043c4b,SCR,2024-06-26_12h39.59.929,LearnStrategy,2023.2.3,Win32,60.0240096,1,2,11,,,,,,,,6,10,,,,,,,,,,,,,7,3.347,0,,,,,,0.084722222,-0.411111111,1,0,0,3.347,Peridotite_rect,10,0,10,0,1,
66467e6f4c38889f9d043c4b,SCR,2024-06-26_12h39.59.929,LearnStrategy,2023.2.3,Win32,60.0240096,1,2,12,,,,,,,,6,07,,,,,,,,,,,,,1,2.338,0,,,,,,-0.344444444,-0.248611111,1,0,0,2.338,Andesite_rect,11,0,11,0,1,
66467e6f4c38889f9d043c4b,SCR,2024-06-26_12h39.59.929,LearnStrategy,2023.2.3,Win32,60.0240096,1,2,13,,,,,,,,7,07,,,,,,,,,,,,,6,8.313,0,,,,,,-0.133333333,-0.411111111,1,0,0,8.313,Pegmatite_rect,12,0,12,0,1,
66467e6f4c38889f9d043c4b,SCR,2024-06-26_12h39.59.929,LearnStrategy,2023.2.3,Win32,60.0240096,1,2,14,,,,,,,,5,12,,,,,,,,,,,,,5,1.545,1,,,,,,-0.434722222,-0.406944444,1,0,0,1.545,Obsidian_rect,13,0,13,0,1,
66467e6f4c38889f9d043c4b,SCR,2024-06-26_12h39.59.929,LearnStrategy,2023.2.3,Win32,60.0240096,1,2,15,,,,,,,,1,14,,,,,,,,,,,,,1,5.073,1,,,,,,-0.452777778,-0.243055556,1,0,0,5.073,Andesite_rect,14,0,14,0,1,
66467e6f4c38889f9d043c4b,SCR,2024-06-26_12h39.59.929,LearnStrategy,2023.2.3,Win32,60.0240096,1,2,16,,,,,,,,4,11,,,,,,,,,,,,,2,1.765,0,,,,,,-0.105555556,-0.268055556,1,0,0,1.765,Basalt_rect,15,0,15,0,1,
66467e6f4c38889f9d043c4b,SCR,2024-06-26_12h39.59.929,LearnStrategy,2023.2.3,Win32,60.0240096,2,1,1,-0.545833333,0.413888889,1,0,0,2.663,Gabbro_03,4,03,6,1,2.663,1,04,-0.147222222,-0.395833333,1,0,0,5.647,Pegmatite_rect,6,5.647,0,0,0,0,0,1,,,,,,,,,,,,,
66467e6f4c38889f9d043c4b,SCR,2024-06-26_12h39.59.929,LearnStrategy,2023.2.3,Win32,60.0240096,2,1,2,-0.388888889,0.370833333,1,0,0,0.985,Pumice_13,8,13,6,2,0.985,6,15,0.356944444,-0.402777778,1,0,0,1.721,Pumice_rect,8,1.721,1,1,0,1,0,1,,,,,,,,,,,,,
66467e6f4c38889f9d043c4b,SCR,2024-06-26_12h39.59.929,LearnStrategy,2023.2.3,Win32,60.0240096,2,1,3,-0.255555556,0.444444444,1,0,0,0.956,Gabbro_16,4,16,6,3,0.956,7,04,-0.140277778,-0.241666667,1,0,0,1.901,Basalt_rect,2,1.901,0,2,0,2,0,1,,,,,,,,,,,,,
66467e6f4c38889f9d043c4b,SCR,2024-06-26_12h39.59.929,LearnStrategy,2023.2.3,Win32,60.0240096,2,1,4,-0.066666667,0.397222222,1,0,0,1.167,Obsidian_02,5,02,6,4,1.167,1,09,-0.402777778,-0.406944444,1,0,0,1.448,Obsidian_rect,5,1.448,1,3,0,3,0,1,,,,,,,,,,,,,
66467e6f4c38889f9d043c4b,SCR,2024-06-26_12h39.59.929,LearnStrategy,2023.2.3,Win32,60.0240096,2,1,5,0.055555556,0.394444444,1,0,0,0.906,Andesite_09,1,09,6,5,0.906,2,05,-0.404166667,-0.238888889,1,0,0,1.457,Andesite_rect,1,1.457,1,4,0,4,0,1,,,,,,,,,,,,,
66467e6f4c38889f9d043c4b,SCR,2024-06-26_12h39.59.929,LearnStrategy,2023.2.3,Win32,60.0240096,2,1,6,0.243055556,0.380555556,1,0,0,2.444,Peridotite_14,7,14,6,6,2.444,7,12,0.119444444,-0.240277778,1,0,0,1.461,Diorite_rect,3,1.461,0,5,0,5,0,1,,,,,,,,,,,,,
66467e6f4c38889f9d043c4b,SCR,2024-06-26_12h39.59.929,LearnStrategy,2023.2.3,Win32,60.0240096,2,1,7,0.406944444,0.425,1,0,0,2.162,Basalt_06,2,06,6,7,2.162,7,05,-0.126388889,-0.254166667,1,0,0,1.159,Basalt_rect,2,1.159,1,6,0,6,0,1,,,,,,,,,,,,,
66467e6f4c38889f9d043c4b,SCR,2024-06-26_12h39.59.929,LearnStrategy,2023.2.3,Win32,60.0240096,2,1,8,0.561111111,0.376388889,1,0,0,1.095,Pegmatite_16,6,16,6,8,1.095,4,16,-0.129166667,-0.383333333,1,0,0,1.195,Pegmatite_rect,6,1.195,1,7,0,7,0,1,,,,,,,,,,,,,
66467e6f4c38889f9d043c4b,SCR,2024-06-26_12h39.59.929,LearnStrategy,2023.2.3,Win32,60.0240096,2,1,9,-0.565277778,0.261111111,1,0,0,1.311,Basalt_04,2,04,5,1,1.311,7,10,-0.154166667,-0.233333333,1,0,0,1.05,Basalt_rect,2,1.05,1,8,0,8,0,1,,,,,,,,,,,,,
66467e6f4c38889f9d043c4b,SCR,2024-06-26_12h39.59.929,LearnStrategy,2023.2.3,Win32,60.0240096,2,1,10,-0.347222222,0.238888889,1,0,0,1.08,Peridotite_04,7,04,5,2,1.08,3,11,0.163888889,-0.258333333,1,0,0,1.865,Diorite_rect,3,1.865,0,9,0,9,0,1,,,,,,,,,,,,,
66467e6f4c38889f9d043c4b,SCR,2024-06-26_12h39.59.929,LearnStrategy,2023.2.3,Win32,60.0240096,2,1,11,-0.222222222,0.238888889,1,0,0,1.777,Diorite_15,3,15,5,3,1.777,6,13,0.411111111,-0.254166667,1,0,0,1.662,Gabbro_rect,4,1.662,0,10,0,10,0,1,,,,,,,,,,,,,
66467e6f4c38889f9d043c4b,SCR,2024-06-26_12h39.59.929,LearnStrategy,2023.2.3,Win32,60.0240096,2,1,12,-0.080555556,0.247222222,1,0,0,1.325,Andesite_16,1,16,5,4,1.325,3,09,-0.145833333,-0.391666667,1,0,0,1.524,Pegmatite_rect,6,1.524,0,11,0,11,0,1,,,,,,,,,,,,,
66467e6f4c38889f9d043c4b,SCR,2024-06-26_12h39.59.929,LearnStrategy,2023.2.3,Win32,60.0240096,2,1,13,0.070833333,0.091666667,1,0,0,2.601,Pumice_02,8,02,4,5,2.601,4,03,0.363888889,-0.4125,1,0,0,1.884,Pumice_rect,8,1.884,1,12,0,12,0,1,,,,,,,,,,,,,
66467e6f4c38889f9d043c4b,SCR,2024-06-26_12h39.59.929,LearnStrategy,2023.2.3,Win32,60.0240096,2,1,14,0.569444444,0.240277778,1,0,0,0.967,Pegmatite_08,6,08,5,8,0.967,6,08,-0.054166667,-0.395833333,1,0,0,2.327,Pegmatite_rect,6,2.327,1,13,0,13,0,1,,,,,,,,,,,,,
66467e6f4c38889f9d043c4b,SCR,2024-06-26_12h39.59.929,LearnStrategy,2023.2.3,Win32,60.0240096,2,1,15,0.083333333,-0.097222222,1,0,0,1.335,Pegmatite_11,6,11,3,5,1.335,6,09,-0.147222222,-0.401388889,1,0,0,23.553,Pegmatite_rect,6,23.553,1,14,0,14,0,1,,,,,,,,,,,,,
66467e6f4c38889f9d043c4b,SCR,2024-06-26_12h39.59.929,LearnStrategy,2023.2.3,Win32,60.0240096,2,1,16,-0.548611111,0.065277778,1,0,0,1.15,Gabbro_13,4,13,4,1,1.15,4,13,0.441666667,-0.234722222,1,0,0,3.333,Gabbro_rect,4,3.333,1,15,0,15,0,1,,,,,,,,,,,,,
66467e6f4c38889f9d043c4b,SCR,2024-06-26_12h39.59.929,LearnStrategy,2023.2.3,Win32,60.0240096,2,2,1,,,,,,,,8,16,,,,,,,,,,,,,8,3.777,1,,,,,,0.423611111,-0.383333333,1,0,0,3.777,Pumice_rect,0,0,0,0,1,
66467e6f4c38889f9d043c4b,SCR,2024-06-26_12h39.59.929,LearnStrategy,2023.2.3,Win32,60.0240096,2,2,2,,,,,,,,4,12,,,,,,,,,,,,,1,4.406,0,,,,,,-0.438888889,-0.254166667,1,0,0,4.406,Andesite_rect,1,0,1,0,1,
66467e6f4c38889f9d043c4b,SCR,2024-06-26_12h39.59.929,LearnStrategy,2023.2.3,Win32,60.0240096,2,2,3,,,,,,,,2,09,,,,,,,,,,,,,2,1.731,1,,,,,,-0.141666667,-0.251388889,1,0,0,1.731,Basalt_rect,2,0,2,0,1,
66467e6f4c38889f9d043c4b,SCR,2024-06-26_12h39.59.929,LearnStrategy,2023.2.3,Win32,60.0240096,2,2,4,,,,,,,,7,13,,,,,,,,,,,,,1,13.564,0,,,,,,-0.4375,-0.251388889,1,0,0,13.564,Andesite_rect,3,0,3,0,1,
66467e6f4c38889f9d043c4b,SCR,2024-06-26_12h39.59.929,LearnStrategy,2023.2.3,Win32,60.0240096,2,2,5,,,,,,,,6,03,,,,,,,,,,,,,6,3.751,1,,,,,,-0.1125,-0.413888889,1,0,0,3.751,Pegmatite_rect,4,0,4,0,1,
66467e6f4c38889f9d043c4b,SCR,2024-06-26_12h39.59.929,LearnStrategy,2023.2.3,Win32,60.0240096,2,2,6,,,,,,,,1,06,,,,,,,,,,,,,1,5.148,1,,,,,,-0.451388889,-0.256944444,1,0,0,5.148,Andesite_rect,5,0,5,0,1,
66467e6f4c38889f9d043c4b,SCR,2024-06-26_12h39.59.929,LearnStrategy,2023.2.3,Win32,60.0240096,2,2,7,,,,,,,,4,08,,,,,,,,,,,,,2,7.117,0,,,,,,-0.104166667,-0.248611111,1,0,0,7.117,Basalt_rect,6,0,6,0,1,
66467e6f4c38889f9d043c4b,SCR,2024-06-26_12h39.59.929,LearnStrategy,2023.2.3,Win32,60.0240096,2,2,8,,,,,,,,3,12,,,,,,,,,,,,,3,4.609,1,,,,,,0.119444444,-0.255555556,1,0,0,4.609,Diorite_rect,7,0,7,0,1,
66467e6f4c38889f9d043c4b,SCR,2024-06-26_12h39.59.929,LearnStrategy,2023.2.3,Win32,60.0240096,2,2,9,,,,,,,,5,11,,,,,,,,,,,,,5,1.712,1,,,,,,-0.436111111,-0.404166667,1,0,0,1.712,Obsidian_rect,8,0,8,0,1,
66467e6f4c38889f9d043c4b,SCR,2024-06-26_12h39.59.929,LearnStrategy,2023.2.3,Win32,60.0240096,2,2,10,,,,,,,,8,09,,,,,,,,,,,,,8,1.49,1,,,,,,0.375,-0.4,1,0,0,1.49,Pumice_rect,9,0,9,0,1,
66467e6f4c38889f9d043c4b,SCR,2024-06-26_12h39.59.929,LearnStrategy,2023.2.3,Win32,60.0240096,2,2,11,,,,,,,,2,12,,,,,,,,,,,,,2,3.063,1,,,,,,-0.129166667,-0.25,1,0,0,3.063,Basalt_rect,10,0,10,0,1,
66467e6f4c38889f9d043c4b,SCR,2024-06-26_12h39.59.929,LearnStrategy,2023.2.3,Win32,60.0240096,2,2,12,,,,,,,,1,02,,,,,,,,,,,,,4,11.505,0,,,,,,0.355555556,-0.241666667,1,0,0,11.505,Gabbro_rect,11,0,11,0,1,
66467e6f4c38889f9d043c4b,SCR,2024-06-26_12h39.59.929,LearnStrategy,2023.2.3,Win32,60.0240096,2,2,13,,,,,,,,6,12,,,,,,,,,,,,,6,5.298,1,,,,,,-0.161111111,-0.4,1,0,0,5.298,Pegmatite_rect,12,0,12,0,1,
66467e6f4c38889f9d043c4b,SCR,2024-06-26_12h39.59.929,LearnStrategy,2023.2.3,Win32,60.0240096,2,2,14,,,,,,,,5,05,,,,,,,,,,,,,5,1.601,1,,,,,,-0.402777778,-0.416666667,1,0,0,1.601,Obsidian_rect,13,0,13,0,1,
66467e6f4c38889f9d043c4b,SCR,2024-06-26_12h39.59.929,LearnStrategy,2023.2.3,Win32,60.0240096,2,2,15,,,,,,,,3,16,,,,,,,,,,,,,4,7.86,0,,,,,,0.384722222,-0.2625,1,0,0,7.86,Gabbro_rect,14,0,14,0,1,
66467e6f4c38889f9d043c4b,SCR,2024-06-26_12h39.59.929,LearnStrategy,2023.2.3,Win32,60.0240096,2,2,16,,,,,,,,7,06,,,,,,,,,,,,,6,1.648,0,,,,,,-0.172222222,-0.420833333,1,0,0,1.648,Pegmatite_rect,15,0,15,0,1,
66467e6f4c38889f9d043c4b,SCR,2024-06-26_12h39.59.929,LearnStrategy,2023.2.3,Win32,60.0240096,3,1,1,-0.544444444,0.072222222,1,0,0,1.634,Gabbro_13,4,13,4,1,1.634,4,13,0.426388889,-0.243055556,1,0,0,5.582,Gabbro_rect,4,5.582,1,0,0,0,0,1,,,,,,,,,,,,,
66467e6f4c38889f9d043c4b,SCR,2024-06-26_12h39.59.929,LearnStrategy,2023.2.3,Win32,60.0240096,3,1,2,0.197222222,0.090277778,1,0,0,1.18,Andesite_11,1,11,4,6,1.18,1,11,0.076388889,-0.391666667,1,0,0,6.356,Peridotite_rect,7,6.356,0,1,0,1,0,1,,,,,,,,,,,,,
66467e6f4c38889f9d043c4b,SCR,2024-06-26_12h39.59.929,LearnStrategy,2023.2.3,Win32,60.0240096,3,1,3,-0.097222222,-0.116666667,1,0,0,1.049,Peridotite_10,7,10,3,4,1.049,7,10,-0.348611111,-0.258333333,1,0,0,5.625,Andesite_rect,1,5.625,0,2,0,2,0,1,,,,,,,,,,,,,
66467e6f4c38889f9d043c4b,SCR,2024-06-26_12h39.59.929,LearnStrategy,2023.2.3,Win32,60.0240096,3,1,4,0.070833333,0.231944444,1,0,0,1.178,Gabbro_05,4,05,5,5,1.178,4,05,0.370833333,-0.255555556,1,0,0,10.814,Gabbro_rect,4,10.814,1,3,0,3,0,1,,,,,,,,,,,,,
66467e6f4c38889f9d043c4b,SCR,2024-06-26_12h39.59.929,LearnStrategy,2023.2.3,Win32,60.0240096,3,1,5,-0.211111111,0.244444444,1,0,0,1.286,Diorite_15,3,15,5,3,1.286,3,15,0.0875,-0.268055556,1,0,0,3.754,Diorite_rect,3,3.754,1,4,0,4,0,1,,,,,,,,,,,,,
66467e6f4c38889f9d043c4b,SCR,2024-06-26_12h39.59.929,LearnStrategy,2023.2.3,Win32,60.0240096,3,1,6,0.077777778,-0.240277778,1,0,0,1.746,Andesite_03,1,03,2,5,1.746,6,15,-0.4375,-0.234722222,1,0,0,4.797,Andesite_rect,1,4.797,1,5,0,5,0,1,,,,,,,,,,,,,
66467e6f4c38889f9d043c4b,SCR,2024-06-26_12h39.59.929,LearnStrategy,2023.2.3,Win32,60.0240096,3,1,7,0.380555556,-0.095833333,1,0,0,1.202,Andesite_07,1,07,3,7,1.202,1,07,0.120833333,-0.241666667,1,0,0,1.931,Diorite_rect,3,1.931,0,6,0,6,0,1,,,,,,,,,,,,,
66467e6f4c38889f9d043c4b,SCR,2024-06-26_12h39.59.929,LearnStrategy,2023.2.3,Win32,60.0240096,3,1,8,-0.536111111,0.447222222,1,0,0,2.239,Gabbro_03,4,03,6,1,2.239,4,03,-0.436111111,-0.25,1,0,0,1.165,Andesite_rect,1,1.165,0,7,0,7,0,1,,,,,,,,,,,,,
66467e6f4c38889f9d043c4b,SCR,2024-06-26_12h39.59.929,LearnStrategy,2023.2.3,Win32,60.0240096,3,1,9,0.569444444,0.252777778,1,0,0,1.412,Pegmatite_08,6,08,5,8,1.412,6,08,-0.163888889,-0.402777778,1,0,0,1.223,Pegmatite_rect,6,1.223,1,8,0,8,0,1,,,,,,,,,,,,,
66467e6f4c38889f9d043c4b,SCR,2024-06-26_12h39.59.929,LearnStrategy,2023.2.3,Win32,60.0240096,3,1,10,-0.395833333,-0.1125,1,0,0,1.252,Diorite_13,3,13,3,2,1.252,3,13,-0.372222222,-0.259722222,1,0,0,1.242,Andesite_rect,1,1.242,0,9,0,9,0,1,,,,,,,,,,,,,
66467e6f4c38889f9d043c4b,SCR,2024-06-26_12h39.59.929,LearnStrategy,2023.2.3,Win32,60.0240096,3,1,11,0.561111111,-0.256944444,1,0,0,1.564,Peridotite_15,7,15,2,8,1.564,7,15,-0.147222222,-0.418055556,1,0,0,2.474,Pegmatite_rect,6,2.474,0,10,0,10,0,1,,,,,,,,,,,,,
66467e6f4c38889f9d043c4b,SCR,2024-06-26_12h39.59.929,LearnStrategy,2023.2.3,Win32,60.0240096,3,1,12,-0.580555556,-0.4125,1,0,0,1.605,Peridotite_12,7,12,1,1,1.605,7,12,-0.136111111,-0.391666667,1,0,0,1.873,Pegmatite_rect,6,1.873,0,11,0,11,0,1,,,,,,,,,,,,,
66467e6f4c38889f9d043c4b,SCR,2024-06-26_12h39.59.929,LearnStrategy,2023.2.3,Win32,60.0240096,3,1,13,-0.405555556,0.083333333,1,0,0,1.136,Basalt_10,2,10,4,2,1.136,2,10,-0.176388889,-0.241666667,1,0,0,1.228,Basalt_rect,2,1.228,1,12,0,12,0,1,,,,,,,,,,,,,
66467e6f4c38889f9d043c4b,SCR,2024-06-26_12h39.59.929,LearnStrategy,2023.2.3,Win32,60.0240096,3,1,14,-0.55,0.056944444,1,0,0,1.152,Gabbro_13,4,13,4,1,1.152,4,13,0.383333333,-0.268055556,1,0,0,1.108,Gabbro_rect,4,1.108,1,13,0,13,0,1,,,,,,,,,,,,,
66467e6f4c38889f9d043c4b,SCR,2024-06-26_12h39.59.929,LearnStrategy,2023.2.3,Win32,60.0240096,3,1,15,-0.095833333,0.226388889,1,0,0,1.112,Andesite_16,1,16,5,4,1.112,1,16,-0.375,-0.25,1,0,0,1.5,Andesite_rect,1,1.5,1,14,0,14,0,1,,,,,,,,,,,,,
66467e6f4c38889f9d043c4b,SCR,2024-06-26_12h39.59.929,LearnStrategy,2023.2.3,Win32,60.0240096,3,1,16,0.354166667,0.111111111,1,0,0,1.11,Peridotite_05,7,05,4,7,1.11,7,05,-0.097222222,-0.395833333,1,0,0,2.159,Pegmatite_rect,6,2.159,0,15,0,15,0,1,,,,,,,,,,,,,
66467e6f4c38889f9d043c4b,SCR,2024-06-26_12h39.59.929,LearnStrategy,2023.2.3,Win32,60.0240096,3,2,1,,,,,,,,3,06,,,,,,,,,,,,,4,10.743,0,,,,,,0.441666667,-0.247222222,1,0,0,10.743,Gabbro_rect,0,0,0,0,1,
66467e6f4c38889f9d043c4b,SCR,2024-06-26_12h39.59.929,LearnStrategy,2023.2.3,Win32,60.0240096,3,2,2,,,,,,,,1,05,,,,,,,,,,,,,1,7.141,1,,,,,,-0.475,-0.248611111,1,0,0,7.141,Andesite_rect,1,0,1,0,1,
66467e6f4c38889f9d043c4b,SCR,2024-06-26_12h39.59.929,LearnStrategy,2023.2.3,Win32,60.0240096,3,2,3,,,,,,,,3,10,,,,,,,,,,,,,3,3.875,1,,,,,,0.122222222,-0.233333333,1,0,0,3.875,Diorite_rect,2,0,2,0,1,
66467e6f4c38889f9d043c4b,SCR,2024-06-26_12h39.59.929,LearnStrategy,2023.2.3,Win32,60.0240096,3,2,4,,,,,,,,1,10,,,,,,,,,,,,,1,9.967,1,,,,,,-0.409722222,-0.240277778,1,0,0,9.967,Andesite_rect,3,0,3,0,1,
66467e6f4c38889f9d043c4b,SCR,2024-06-26_12h39.59.929,LearnStrategy,2023.2.3,Win32,60.0240096,3,2,5,,,,,,,,8,04,,,,,,,,,,,,,8,2.43,1,,,,,,0.366666667,-0.397222222,1,0,0,2.43,Pumice_rect,4,0,4,0,1,
66467e6f4c38889f9d043c4b,SCR,2024-06-26_12h39.59.929,LearnStrategy,2023.2.3,Win32,60.0240096,3,2,6,,,,,,,,5,10,,,,,,,,,,,,,5,2.17,1,,,,,,-0.395833333,-0.391666667,1,0,0,2.17,Obsidian_rect,5,0,5,0,1,
66467e6f4c38889f9d043c4b,SCR,2024-06-26_12h39.59.929,LearnStrategy,2023.2.3,Win32,60.0240096,3,2,7,,,,,,,,6,05,,,,,,,,,,,,,6,8.735,1,,,,,,-0.123611111,-0.406944444,1,0,0,8.735,Pegmatite_rect,6,0,6,0,1,
66467e6f4c38889f9d043c4b,SCR,2024-06-26_12h39.59.929,LearnStrategy,2023.2.3,Win32,60.0240096,3,2,8,,,,,,,,2,11,,,,,,,,,,,,,2,1.437,1,,,,,,-0.145833333,-0.245833333,1,0,0,1.437,Basalt_rect,7,0,7,0,1,
66467e6f4c38889f9d043c4b,SCR,2024-06-26_12h39.59.929,LearnStrategy,2023.2.3,Win32,60.0240096,3,2,9,,,,,,,,6,06,,,,,,,,,,,,,6,2.606,1,,,,,,-0.118055556,-0.404166667,1,0,0,2.606,Pegmatite_rect,8,0,8,0,1,
66467e6f4c38889f9d043c4b,SCR,2024-06-26_12h39.59.929,LearnStrategy,2023.2.3,Win32,60.0240096,3,2,10,,,,,,,,5,14,,,,,,,,,,,,,5,2.896,1,,,,,,-0.475,-0.406944444,1,0,0,2.896,Obsidian_rect,9,0,9,0,1,
66467e6f4c38889f9d043c4b,SCR,2024-06-26_12h39.59.929,LearnStrategy,2023.2.3,Win32,60.0240096,3,2,11,,,,,,,,4,15,,,,,,,,,,,,,4,5.584,1,,,,,,0.390277778,-0.230555556,1,0,0,5.584,Gabbro_rect,10,0,10,0,1,
66467e6f4c38889f9d043c4b,SCR,2024-06-26_12h39.59.929,LearnStrategy,2023.2.3,Win32,60.0240096,3,2,12,,,,,,,,2,08,,,,,,,,,,,,,2,2.619,1,,,,,,-0.111111111,-0.230555556,1,0,0,2.619,Basalt_rect,11,0,11,0,1,
66467e6f4c38889f9d043c4b,SCR,2024-06-26_12h39.59.929,LearnStrategy,2023.2.3,Win32,60.0240096,3,2,13,,,,,,,,8,08,,,,,,,,,,,,,8,4.841,1,,,,,,0.368055556,-0.391666667,1,0,0,4.841,Pumice_rect,12,0,12,0,1,
66467e6f4c38889f9d043c4b,SCR,2024-06-26_12h39.59.929,LearnStrategy,2023.2.3,Win32,60.0240096,3,2,14,,,,,,,,7,16,,,,,,,,,,,,,2,5.002,0,,,,,,-0.180555556,-0.247222222,1,0,0,5.002,Basalt_rect,13,0,13,0,1,
66467e6f4c38889f9d043c4b,SCR,2024-06-26_12h39.59.929,LearnStrategy,2023.2.3,Win32,60.0240096,3,2,15,,,,,,,,7,08,,,,,,,,,,,,,7,4.673,1,,,,,,0.081944444,-0.394444444,1,0,0,4.673,Peridotite_rect,14,0,14,0,1,
66467e6f4c38889f9d043c4b,SCR,2024-06-26_12h39.59.929,LearnStrategy,2023.2.3,Win32,60.0240096,3,2,16,,,,,,,,4,01,,,,,,,,,,,,,7,8.93,0,,,,,,0.077777778,-0.401388889,1,0,0,8.93,Peridotite_rect,15,0,15,0,1,
66467e6f4c38889f9d043c4b,SCR,2024-06-26_12h39.59.929,LearnStrategy,2023.2.3,Win32,60.0240096,4,1,1,-0.281944444,0.391666667,1,0,0,46.411,Gabbro_16,4,16,6,3,46.411,4,16,-0.138888889,-0.269444444,1,0,0,1.139,Basalt_rect,2,1.139,0,0,0,0,0,1,,,,,,,,,,,,,
66467e6f4c38889f9d043c4b,SCR,2024-06-26_12h39.59.929,LearnStrategy,2023.2.3,Win32,60.0240096,4,1,2,0.377777778,-0.395833333,1,0,0,1.32,Gabbro_14,4,14,1,7,1.32,4,14,0.331944444,-0.256944444,1,0,0,2.154,Gabbro_rect,4,2.154,1,1,0,1,0,1,,,,,,,,,,,,,
66467e6f4c38889f9d043c4b,SCR,2024-06-26_12h39.59.929,LearnStrategy,2023.2.3,Win32,60.0240096,4,1,3,-0.541666667,-0.4125,1,0,0,17.577,Peridotite_12,7,12,1,1,17.577,7,12,0.1375,-0.4125,1,0,0,2.858,Peridotite_rect,7,2.858,1,2,0,2,0,1,,,,,,,,,,,,,
66467e6f4c38889f9d043c4b,SCR,2024-06-26_12h39.59.929,LearnStrategy,2023.2.3,Win32,60.0240096,4,1,4,0.086111111,-0.113888889,1,0,0,1.338,Pegmatite_11,6,11,3,5,1.338,6,09,-0.116666667,-0.411111111,1,0,0,1.557,Pegmatite_rect,6,1.557,1,3,0,3,0,1,,,,,,,,,,,,,
66467e6f4c38889f9d043c4b,SCR,2024-06-26_12h39.59.929,LearnStrategy,2023.2.3,Win32,60.0240096,4,1,5,-0.238888889,0.0875,1,0,0,1.192,Andesite_04,1,04,4,3,1.192,4,16,0.108333333,-0.4,1,0,0,2.799,Peridotite_rect,7,2.799,0,4,0,4,0,1,,,,,,,,,,,,,
66467e6f4c38889f9d043c4b,SCR,2024-06-26_12h39.59.929,LearnStrategy,2023.2.3,Win32,60.0240096,4,1,6,0.083333333,-0.419444444,1,0,0,0.887,Basalt_05,2,05,1,5,0.887,2,05,-0.086111111,-0.243055556,1,0,0,1.514,Basalt_rect,2,1.514,1,5,0,5,0,1,,,,,,,,,,,,,
66467e6f4c38889f9d043c4b,SCR,2024-06-26_12h39.59.929,LearnStrategy,2023.2.3,Win32,60.0240096,4,1,7,0.248611111,-0.408333333,1,0,0,2.48,Diorite_07,3,07,1,6,2.48,3,07,-0.095833333,-0.408333333,1,0,0,1.369,Pegmatite_rect,6,1.369,0,6,0,6,0,1,,,,,,,,,,,,,
66467e6f4c38889f9d043c4b,SCR,2024-06-26_12h39.59.929,LearnStrategy,2023.2.3,Win32,60.0240096,4,1,8,0.245833333,0.105555556,1,0,0,0.973,Andesite_11,1,11,4,6,0.973,1,11,-0.361111111,-0.265277778,1,0,0,1.16,Andesite_rect,1,1.16,1,7,0,7,0,1,,,,,,,,,,,,,
66467e6f4c38889f9d043c4b,SCR,2024-06-26_12h39.59.929,LearnStrategy,2023.2.3,Win32,60.0240096,4,1,9,-0.220833333,-0.244444444,1,0,0,1.027,Pumice_14,8,14,2,3,1.027,8,14,0.366666667,-0.405555556,1,0,0,0.946,Pumice_rect,8,0.946,1,8,0,8,0,1,,,,,,,,,,,,,
66467e6f4c38889f9d043c4b,SCR,2024-06-26_12h39.59.929,LearnStrategy,2023.2.3,Win32,60.0240096,4,1,10,-0.236111111,0.205555556,1,0,0,2.454,Diorite_15,3,15,5,3,2.454,3,15,0.420833333,-0.25,1,0,0,2.02,Gabbro_rect,4,2.02,0,9,0,9,0,1,,,,,,,,,,,,,
66467e6f4c38889f9d043c4b,SCR,2024-06-26_12h39.59.929,LearnStrategy,2023.2.3,Win32,60.0240096,4,1,11,-0.386111111,0.263888889,1,0,0,0.987,Peridotite_04,7,04,5,2,0.987,7,04,-0.115277778,-0.402777778,1,0,0,1.279,Pegmatite_rect,6,1.279,0,10,0,10,0,1,,,,,,,,,,,,,
66467e6f4c38889f9d043c4b,SCR,2024-06-26_12h39.59.929,LearnStrategy,2023.2.3,Win32,60.0240096,4,1,12,0.075,0.401388889,1,0,0,0.807,Andesite_09,1,09,6,5,0.807,1,09,-0.363888889,-0.247222222,1,0,0,1.133,Andesite_rect,1,1.133,1,11,0,11,0,1,,,,,,,,,,,,,
66467e6f4c38889f9d043c4b,SCR,2024-06-26_12h39.59.929,LearnStrategy,2023.2.3,Win32,60.0240096,4,1,13,-0.555555556,0.068055556,1,0,0,0.95,Gabbro_13,4,13,4,1,0.95,4,13,0.363888889,-0.2625,1,0,0,2.265,Gabbro_rect,4,2.265,1,12,0,12,0,1,,,,,,,,,,,,,
66467e6f4c38889f9d043c4b,SCR,2024-06-26_12h39.59.929,LearnStrategy,2023.2.3,Win32,60.0240096,4,1,14,-0.094444444,-0.391666667,1,0,0,0.732,Diorite_14,3,14,1,4,0.732,3,14,-0.373611111,-0.234722222,1,0,0,1.056,Andesite_rect,1,1.056,0,13,0,13,0,1,,,,,,,,,,,,,
66467e6f4c38889f9d043c4b,SCR,2024-06-26_12h39.59.929,LearnStrategy,2023.2.3,Win32,60.0240096,4,1,15,-0.077777778,-0.411111111,1,0,0,1.655,Diorite_14,3,14,1,4,1.655,7,04,0.1,-0.236111111,1,0,0,5.691,Diorite_rect,3,5.691,1,14,0,14,0,1,,,,,,,,,,,,,
66467e6f4c38889f9d043c4b,SCR,2024-06-26_12h39.59.929,LearnStrategy,2023.2.3,Win32,60.0240096,4,1,16,0.2125,0.419444444,1,0,0,0.805,Peridotite_14,7,14,6,6,0.805,7,14,-0.380555556,-0.255555556,1,0,0,1.109,Andesite_rect,1,1.109,0,15,0,15,0,1,,,,,,,,,,,,,
66467e6f4c38889f9d043c4b,SCR,2024-06-26_12h39.59.929,LearnStrategy,2023.2.3,Win32,60.0240096,4,2,1,,,,,,,,7,08,,,,,,,,,,,,,7,8.412,1,,,,,,0.158333333,-0.398611111,1,0,0,8.412,Peridotite_rect,0,0,0,0,1,
66467e6f4c38889f9d043c4b,SCR,2024-06-26_12h39.59.929,LearnStrategy,2023.2.3,Win32,60.0240096,4,2,2,,,,,,,,8,08,,,,,,,,,,,,,8,1.387,1,,,,,,0.452777778,-0.405555556,1,0,0,1.387,Pumice_rect,1,0,1,0,1,
66467e6f4c38889f9d043c4b,SCR,2024-06-26_12h39.59.929,LearnStrategy,2023.2.3,Win32,60.0240096,4,2,3,,,,,,,,4,12,,,,,,,,,,,,,2,8.565,0,,,,,,-0.161111111,-0.25,1,0,0,8.565,Basalt_rect,2,0,2,0,1,
66467e6f4c38889f9d043c4b,SCR,2024-06-26_12h39.59.929,LearnStrategy,2023.2.3,Win32,60.0240096,4,2,4,,,,,,,,2,09,,,,,,,,,,,,,2,0.788,1,,,,,,-0.161111111,-0.25,1,0,0,0.788,Basalt_rect,3,0,3,0,1,
66467e6f4c38889f9d043c4b,SCR,2024-06-26_12h39.59.929,LearnStrategy,2023.2.3,Win32,60.0240096,4,2,5,,,,,,,,1,14,,,,,,,,,,,,,1,7.422,1,,,,,,-0.429166667,-0.248611111,1,0,0,7.422,Andesite_rect,4,0,4,0,1,
66467e6f4c38889f9d043c4b,SCR,2024-06-26_12h39.59.929,LearnStrategy,2023.2.3,Win32,60.0240096,4,2,6,,,,,,,,4,10,,,,,,,,,,,,,4,10.759,1,,,,,,0.334722222,-0.252777778,1,0,0,10.759,Gabbro_rect,5,0,5,0,1,
66467e6f4c38889f9d043c4b,SCR,2024-06-26_12h39.59.929,LearnStrategy,2023.2.3,Win32,60.0240096,4,2,7,,,,,,,,2,12,,,,,,,,,,,,,1,6.467,0,,,,,,-0.441666667,-0.238888889,1,0,0,6.467,Andesite_rect,6,0,6,0,1,
66467e6f4c38889f9d043c4b,SCR,2024-06-26_12h39.59.929,LearnStrategy,2023.2.3,Win32,60.0240096,4,2,8,,,,,,,,7,02,,,,,,,,,,,,,7,4.504,1,,,,,,0.116666667,-0.4,1,0,0,4.504,Peridotite_rect,7,0,7,0,1,
66467e6f4c38889f9d043c4b,SCR,2024-06-26_12h39.59.929,LearnStrategy,2023.2.3,Win32,60.0240096,4,2,9,,,,,,,,6,06,,,,,,,,,,,,,6,2.283,1,,,,,,-0.138888889,-0.391666667,1,0,0,2.283,Pegmatite_rect,8,0,8,0,1,
66467e6f4c38889f9d043c4b,SCR,2024-06-26_12h39.59.929,LearnStrategy,2023.2.3,Win32,60.0240096,4,2,10,,,,,,,,3,06,,,,,,,,,,,,,3,5.094,1,,,,,,0.130555556,-0.234722222,1,0,0,5.094,Diorite_rect,9,0,9,0,1,
66467e6f4c38889f9d043c4b,SCR,2024-06-26_12h39.59.929,LearnStrategy,2023.2.3,Win32,60.0240096,4,2,11,,,,,,,,1,10,,,,,,,,,,,,,1,8.042,1,,,,,,-0.447222222,-0.243055556,1,0,0,8.042,Andesite_rect,10,0,10,0,1,
66467e6f4c38889f9d043c4b,SCR,2024-06-26_12h39.59.929,LearnStrategy,2023.2.3,Win32,60.0240096,4,2,12,,,,,,,,5,14,,,,,,,,,,,,,5,1.388,1,,,,,,-0.425,-0.3875,1,0,0,1.388,Obsidian_rect,11,0,11,0,1,
66467e6f4c38889f9d043c4b,SCR,2024-06-26_12h39.59.929,LearnStrategy,2023.2.3,Win32,60.0240096,4,2,13,,,,,,,,6,05,,,,,,,,,,,,,6,1.686,1,,,,,,-0.163888889,-0.391666667,1,0,0,1.686,Pegmatite_rect,12,0,12,0,1,
66467e6f4c38889f9d043c4b,SCR,2024-06-26_12h39.59.929,LearnStrategy,2023.2.3,Win32,60.0240096,4,2,14,,,,,,,,3,02,,,,,,,,,,,,,7,7.698,0,,,,,,0.152777778,-0.401388889,1,0,0,7.698,Peridotite_rect,13,0,13,0,1,
66467e6f4c38889f9d043c4b,SCR,2024-06-26_12h39.59.929,LearnStrategy,2023.2.3,Win32,60.0240096,4,2,15,,,,,,,,5,10,,,,,,,,,,,,,5,1.546,1,,,,,,-0.415277778,-0.409722222,1,0,0,1.546,Obsidian_rect,14,0,14,0,1,
66467e6f4c38889f9d043c4b,SCR,2024-06-26_12h39.59.929,LearnStrategy,2023.2.3,Win32,60.0240096,4,2,16,,,,,,,,8,03,,,,,,,,,,,,,8,1.556,1,,,,,,0.329166667,-0.386111111,1,0,0,1.556,Pumice_rect,15,0,15,0,1,
66467e6f4c38889f9d043c4b,SCR,2024-06-26_12h39.59.929,LearnStrategy,2023.2.3,Win32,60.0240096,5,1,1,0.394444444,-0.422222222,1,0,0,1.39,Gabbro_14,4,14,1,7,1.39,4,14,0.386111111,-0.2375,1,0,0,1.949,Gabbro_rect,4,1.949,1,0,0,0,0,1,,,,,,,,,,,,,
66467e6f4c38889f9d043c4b,SCR,2024-06-26_12h39.59.929,LearnStrategy,2023.2.3,Win32,60.0240096,5,1,2,0.55,-0.105555556,1,0,0,1.065,Basalt_02,2,02,3,8,1.065,2,02,-0.140277778,-0.254166667,1,0,0,1.187,Basalt_rect,2,1.187,1,1,0,1,0,1,,,,,,,,,,,,,
66467e6f4c38889f9d043c4b,SCR,2024-06-26_12h39.59.929,LearnStrategy,2023.2.3,Win32,60.0240096,5,1,3,-0.230555556,0.259722222,1,0,0,1.018,Diorite_15,3,15,5,3,1.018,3,15,0.141666667,-0.261111111,1,0,0,0.795,Diorite_rect,3,0.795,1,2,0,2,0,1,,,,,,,,,,,,,
66467e6f4c38889f9d043c4b,SCR,2024-06-26_12h39.59.929,LearnStrategy,2023.2.3,Win32,60.0240096,5,1,4,-0.238888889,-0.243055556,1,0,0,0.798,Pumice_14,8,14,2,3,0.798,8,14,0.338888889,-0.416666667,1,0,0,1.323,Pumice_rect,8,1.323,1,3,0,3,0,1,,,,,,,,,,,,,
66467e6f4c38889f9d043c4b,SCR,2024-06-26_12h39.59.929,LearnStrategy,2023.2.3,Win32,60.0240096,5,1,5,0.075,0.248611111,1,0,0,0.761,Gabbro_05,4,05,5,5,0.761,4,05,0.140277778,-0.252777778,1,0,0,4.292,Diorite_rect,3,4.292,0,4,0,4,0,1,,,,,,,,,,,,,
66467e6f4c38889f9d043c4b,SCR,2024-06-26_12h39.59.929,LearnStrategy,2023.2.3,Win32,60.0240096,5,1,6,0.220833333,0.127777778,1,0,0,73.586,Andesite_11,1,11,4,6,73.586,1,11,0.136111111,-0.263888889,1,0,0,1.686,Diorite_rect,3,1.686,0,5,0,5,0,1,,,,,,,,,,,,,
66467e6f4c38889f9d043c4b,SCR,2024-06-26_12h39.59.929,LearnStrategy,2023.2.3,Win32,60.0240096,5,1,7,-0.193055556,-0.118055556,1,0,0,0.696,Obsidian_16,5,16,3,3,0.696,5,16,-0.377777778,-0.411111111,1,0,0,0.641,Obsidian_rect,5,0.641,1,6,0,6,0,1,,,,,,,,,,,,,
66467e6f4c38889f9d043c4b,SCR,2024-06-26_12h39.59.929,LearnStrategy,2023.2.3,Win32,60.0240096,5,1,8,-0.543055556,0.075,1,0,0,0.839,Gabbro_13,4,13,4,1,0.839,4,13,0.341666667,-0.256944444,1,0,0,0.758,Gabbro_rect,4,0.758,1,7,0,7,0,1,,,,,,,,,,,,,
66467e6f4c38889f9d043c4b,SCR,2024-06-26_12h39.59.929,LearnStrategy,2023.2.3,Win32,60.0240096,5,1,9,0.240277778,0.397222222,1,0,0,0.684,Peridotite_14,7,14,6,6,0.684,7,14,-0.390277778,-0.255555556,1,0,0,1.414,Andesite_rect,1,1.414,0,8,0,8,0,1,,,,,,,,,,,,,
66467e6f4c38889f9d043c4b,SCR,2024-06-26_12h39.59.929,LearnStrategy,2023.2.3,Win32,60.0240096,5,1,10,0.236111111,0.4125,1,0,0,0.719,Peridotite_14,7,14,6,6,0.719,7,14,0.163888889,-0.391666667,1,0,0,0.599,Peridotite_rect,7,0.599,1,9,0,9,0,1,,,,,,,,,,,,,
66467e6f4c38889f9d043c4b,SCR,2024-06-26_12h39.59.929,LearnStrategy,2023.2.3,Win32,60.0240096,5,1,11,0.408333333,0.095833333,1,0,0,0.764,Peridotite_05,7,05,4,7,0.764,7,05,0.148611111,-0.4125,1,0,0,0.986,Peridotite_rect,7,0.986,1,10,0,10,0,1,,,,,,,,,,,,,
66467e6f4c38889f9d043c4b,SCR,2024-06-26_12h39.59.929,LearnStrategy,2023.2.3,Win32,60.0240096,5,1,12,0.1,-0.433333333,1,0,0,0.825,Basalt_05,2,05,1,5,0.825,2,05,-0.123611111,-0.244444444,1,0,0,0.595,Basalt_rect,2,0.595,1,11,0,11,0,1,,,,,,,,,,,,,
66467e6f4c38889f9d043c4b,SCR,2024-06-26_12h39.59.929,LearnStrategy,2023.2.3,Win32,60.0240096,5,1,13,0.219444444,-0.4125,1,0,0,0.906,Diorite_07,3,07,1,6,0.906,3,07,0.172222222,-0.269444444,1,0,0,1.499,Diorite_rect,3,1.499,1,12,0,12,0,1,,,,,,,,,,,,,
66467e6f4c38889f9d043c4b,SCR,2024-06-26_12h39.59.929,LearnStrategy,2023.2.3,Win32,60.0240096,5,1,14,-0.552777778,0.405555556,1,0,0,0.93,Gabbro_03,4,03,6,1,0.93,4,03,-0.391666667,-0.236111111,1,0,0,0.922,Andesite_rect,1,0.922,0,13,0,13,0,1,,,,,,,,,,,,,
66467e6f4c38889f9d043c4b,SCR,2024-06-26_12h39.59.929,LearnStrategy,2023.2.3,Win32,60.0240096,5,1,15,0.522222222,0.4,1,0,0,0.843,Pegmatite_16,6,16,6,8,0.843,6,16,-0.125,-0.408333333,1,0,0,1.949,Pegmatite_rect,6,1.949,1,14,0,14,0,1,,,,,,,,,,,,,
66467e6f4c38889f9d043c4b,SCR,2024-06-26_12h39.59.929,LearnStrategy,2023.2.3,Win32,60.0240096,5,1,16,0.236111111,-0.408333333,1,0,0,1.024,Diorite_07,3,07,1,6,1.024,3,07,0.111111111,-0.404166667,1,0,0,2.392,Peridotite_rect,7,2.392,0,15,0,15,0,1,,,,,,,,,,,,,
66467e6f4c38889f9d043c4b,SCR,2024-06-26_12h39.59.929,LearnStrategy,2023.2.3,Win32,60.0240096,5,2,1,,,,,,,,7,07,,,,,,,,,,,,,7,4.962,1,,,,,,0.140277778,-0.401388889,1,0,0,4.962,Peridotite_rect,0,0,0,0,1,
66467e6f4c38889f9d043c4b,SCR,2024-06-26_12h39.59.929,LearnStrategy,2023.2.3,Win32,60.0240096,5,2,2,,,,,,,,2,11,,,,,,,,,,,,,4,62.694,0,,,,,,0.416666667,-0.258333333,1,0,0,62.694,Gabbro_rect,1,0,1,0,1,
66467e6f4c38889f9d043c4b,SCR,2024-06-26_12h39.59.929,LearnStrategy,2023.2.3,Win32,60.0240096,5,2,3,,,,,,,,6,12,,,,,,,,,,,,,6,1.916,1,,,,,,-0.098611111,-0.4,1,0,0,1.916,Pegmatite_rect,2,0,2,0,1,
66467e6f4c38889f9d043c4b,SCR,2024-06-26_12h39.59.929,LearnStrategy,2023.2.3,Win32,60.0240096,5,2,4,,,,,,,,5,09,,,,,,,,,,,,,5,1.211,1,,,,,,-0.441666667,-0.4125,1,0,0,1.211,Obsidian_rect,3,0,3,0,1,
66467e6f4c38889f9d043c4b,SCR,2024-06-26_12h39.59.929,LearnStrategy,2023.2.3,Win32,60.0240096,5,2,5,,,,,,,,5,05,,,,,,,,,,,,,5,1.272,1,,,,,,-0.422222222,-0.401388889,1,0,0,1.272,Obsidian_rect,4,0,4,0,1,
66467e6f4c38889f9d043c4b,SCR,2024-06-26_12h39.59.929,LearnStrategy,2023.2.3,Win32,60.0240096,5,2,6,,,,,,,,8,05,,,,,,,,,,,,,8,1.04,1,,,,,,0.383333333,-0.401388889,1,0,0,1.04,Pumice_rect,5,0,5,0,1,
66467e6f4c38889f9d043c4b,SCR,2024-06-26_12h39.59.929,LearnStrategy,2023.2.3,Win32,60.0240096,5,2,7,,,,,,,,4,01,,,,,,,,,,,,,1,3.925,0,,,,,,-0.443055556,-0.231944444,1,0,0,3.925,Andesite_rect,6,0,6,0,1,
66467e6f4c38889f9d043c4b,SCR,2024-06-26_12h39.59.929,LearnStrategy,2023.2.3,Win32,60.0240096,5,2,8,,,,,,,,2,16,,,,,,,,,,,,,4,7.491,0,,,,,,0.415277778,-0.247222222,1,0,0,7.491,Gabbro_rect,7,0,7,0,1,
66467e6f4c38889f9d043c4b,SCR,2024-06-26_12h39.59.929,LearnStrategy,2023.2.3,Win32,60.0240096,5,2,9,,,,,,,,3,16,,,,,,,,,,,,,3,11.571,1,,,,,,0.138888889,-0.254166667,1,0,0,11.571,Diorite_rect,8,0,8,0,1,
66467e6f4c38889f9d043c4b,SCR,2024-06-26_12h39.59.929,LearnStrategy,2023.2.3,Win32,60.0240096,5,2,10,,,,,,,,1,05,,,,,,,,,,,,,1,1.64,1,,,,,,-0.391666667,-0.266666667,1,0,0,1.64,Andesite_rect,9,0,9,0,1,
66467e6f4c38889f9d043c4b,SCR,2024-06-26_12h39.59.929,LearnStrategy,2023.2.3,Win32,60.0240096,5,2,11,,,,,,,,7,13,,,,,,,,,,,,,7,1.793,1,,,,,,0.1625,-0.405555556,1,0,0,1.793,Peridotite_rect,10,0,10,0,1,
66467e6f4c38889f9d043c4b,SCR,2024-06-26_12h39.59.929,LearnStrategy,2023.2.3,Win32,60.0240096,5,2,12,,,,,,,,6,03,,,,,,,,,,,,,6,1.438,1,,,,,,-0.140277778,-0.402777778,1,0,0,1.438,Pegmatite_rect,11,0,11,0,1,
66467e6f4c38889f9d043c4b,SCR,2024-06-26_12h39.59.929,LearnStrategy,2023.2.3,Win32,60.0240096,5,2,13,,,,,,,,8,09,,,,,,,,,,,,,8,1.256,1,,,,,,0.427777778,-0.420833333,1,0,0,1.256,Pumice_rect,12,0,12,0,1,
66467e6f4c38889f9d043c4b,SCR,2024-06-26_12h39.59.929,LearnStrategy,2023.2.3,Win32,60.0240096,5,2,14,,,,,,,,4,11,,,,,,,,,,,,,2,1.387,0,,,,,,-0.111111111,-0.240277778,1,0,0,1.387,Basalt_rect,13,0,13,0,1,
66467e6f4c38889f9d043c4b,SCR,2024-06-26_12h39.59.929,LearnStrategy,2023.2.3,Win32,60.0240096,5,2,15,,,,,,,,1,01,,,,,,,,,,,,,1,10.527,1,,,,,,-0.425,-0.2625,1,0,0,10.527,Andesite_rect,14,0,14,0,1,
66467e6f4c38889f9d043c4b,SCR,2024-06-26_12h39.59.929,LearnStrategy,2023.2.3,Win32,60.0240096,5,2,16,,,,,,,,3,10,,,,,,,,,,,,,3,2.392,1,,,,,,0.170833333,-0.251388889,1,0,0,2.392,Diorite_rect,15,0,15,0,1,
66467e6f4c38889f9d043c4b,SCR,2024-06-26_12h39.59.929,LearnStrategy,2023.2.3,Win32,60.0240096,6,1,1,-0.594444444,-0.2375,1,0,0,57.712,Gabbro_09,4,09,2,1,57.712,4,09,-0.081944444,-0.252777778,1,0,0,0.846,Basalt_rect,2,0.846,0,0,0,0,0,1,,,,,,,,,,,,,
66467e6f4c38889f9d043c4b,SCR,2024-06-26_12h39.59.929,LearnStrategy,2023.2.3,Win32,60.0240096,6,1,2,-0.377777778,-0.265277778,1,0,0,0.77,Basalt_14,2,14,2,2,0.77,2,14,0.104166667,-0.245833333,1,0,0,0.803,Diorite_rect,3,0.803,0,1,0,1,0,1,,,,,,,,,,,,,
66467e6f4c38889f9d043c4b,SCR,2024-06-26_12h39.59.929,LearnStrategy,2023.2.3,Win32,60.0240096,6,1,3,-0.55,0.4,1,0,0,0.981,Gabbro_03,4,03,6,1,0.981,4,03,-0.381944444,-0.255555556,1,0,0,0.769,Andesite_rect,1,0.769,0,2,0,2,0,1,,,,,,,,,,,,,
66467e6f4c38889f9d043c4b,SCR,2024-06-26_12h39.59.929,LearnStrategy,2023.2.3,Win32,60.0240096,6,1,4,0.370833333,-0.401388889,1,0,0,1.163,Gabbro_14,4,14,1,7,1.163,4,14,0.361111111,-0.233333333,1,0,0,0.688,Gabbro_rect,4,0.688,1,3,0,3,0,1,,,,,,,,,,,,,
66467e6f4c38889f9d043c4b,SCR,2024-06-26_12h39.59.929,LearnStrategy,2023.2.3,Win32,60.0240096,6,1,5,-0.573611111,0.430555556,1,0,0,0.816,Gabbro_03,4,03,6,1,0.816,4,03,0.373611111,-0.25,1,0,0,0.951,Gabbro_rect,4,0.951,1,4,0,4,0,1,,,,,,,,,,,,,
66467e6f4c38889f9d043c4b,SCR,2024-06-26_12h39.59.929,LearnStrategy,2023.2.3,Win32,60.0240096,6,1,6,0.066666667,-0.409722222,1,0,0,1.015,Basalt_05,2,05,1,5,1.015,2,05,-0.120833333,-0.258333333,1,0,0,0.636,Basalt_rect,2,0.636,1,5,0,5,0,1,,,,,,,,,,,,,
66467e6f4c38889f9d043c4b,SCR,2024-06-26_12h39.59.929,LearnStrategy,2023.2.3,Win32,60.0240096,6,1,7,0.094444444,0.281944444,1,0,0,1.023,Gabbro_05,4,05,5,5,1.023,4,05,0.090277778,-0.266666667,1,0,0,1.053,Diorite_rect,3,1.053,0,6,0,6,0,1,,,,,,,,,,,,,
66467e6f4c38889f9d043c4b,SCR,2024-06-26_12h39.59.929,LearnStrategy,2023.2.3,Win32,60.0240096,6,1,8,-0.416666667,0.105555556,1,0,0,0.708,Basalt_10,2,10,4,2,0.708,2,10,-0.066666667,-0.247222222,1,0,0,1.85,Basalt_rect,2,1.85,1,7,0,7,0,1,,,,,,,,,,,,,
66467e6f4c38889f9d043c4b,SCR,2024-06-26_12h39.59.929,LearnStrategy,2023.2.3,Win32,60.0240096,6,1,9,-0.548611111,-0.379166667,1,0,0,0.825,Peridotite_12,7,12,1,1,0.825,7,12,0.143055556,-0.25,1,0,0,1.401,Diorite_rect,3,1.401,0,8,0,8,0,1,,,,,,,,,,,,,
66467e6f4c38889f9d043c4b,SCR,2024-06-26_12h39.59.929,LearnStrategy,2023.2.3,Win32,60.0240096,6,1,10,-0.088888889,-0.436111111,1,0,0,0.727,Diorite_14,3,14,1,4,0.727,3,14,0.116666667,-0.258333333,1,0,0,1.622,Diorite_rect,3,1.622,1,9,0,9,0,1,,,,,,,,,,,,,
66467e6f4c38889f9d043c4b,SCR,2024-06-26_12h39.59.929,LearnStrategy,2023.2.3,Win32,60.0240096,6,1,11,0.072222222,-0.127777778,1,0,0,0.707,Pegmatite_11,6,11,3,5,0.707,6,11,-0.140277778,-0.397222222,1,0,0,0.562,Pegmatite_rect,6,0.562,1,10,0,10,0,1,,,,,,,,,,,,,
66467e6f4c38889f9d043c4b,SCR,2024-06-26_12h39.59.929,LearnStrategy,2023.2.3,Win32,60.0240096,6,1,12,0.511111111,-0.406944444,1,0,0,1.117,Pumice_15,8,15,1,8,1.117,8,15,0.419444444,-0.4125,1,0,0,0.789,Pumice_rect,8,0.789,1,11,0,11,0,1,,,,,,,,,,,,,
66467e6f4c38889f9d043c4b,SCR,2024-06-26_12h39.59.929,LearnStrategy,2023.2.3,Win32,60.0240096,6,1,13,-0.388888889,0.208333333,1,0,0,0.796,Peridotite_04,7,04,5,2,0.796,7,04,0.113888889,-0.4,1,0,0,2.428,Peridotite_rect,7,2.428,1,12,0,12,0,1,,,,,,,,,,,,,
66467e6f4c38889f9d043c4b,SCR,2024-06-26_12h39.59.929,LearnStrategy,2023.2.3,Win32,60.0240096,6,1,14,-0.502777778,0.220833333,1,0,0,0.986,Basalt_04,2,04,5,1,0.986,2,04,-0.138888889,-0.2625,1,0,0,1.735,Basalt_rect,2,1.735,1,13,0,13,0,1,,,,,,,,,,,,,
66467e6f4c38889f9d043c4b,SCR,2024-06-26_12h39.59.929,LearnStrategy,2023.2.3,Win32,60.0240096,6,1,15,0.556944444,0.077777778,1,0,0,0.676,Diorite_09,3,09,4,8,0.676,3,09,0.127777778,-0.261111111,1,0,0,1.026,Diorite_rect,3,1.026,1,14,0,14,0,1,,,,,,,,,,,,,
66467e6f4c38889f9d043c4b,SCR,2024-06-26_12h39.59.929,LearnStrategy,2023.2.3,Win32,60.0240096,6,1,16,0.068055556,0.433333333,1,0,0,0.908,Andesite_09,1,09,6,5,0.908,1,09,-0.408333333,-0.25,1,0,0,1.411,Andesite_rect,1,1.411,1,15,0,15,0,1,,,,,,,,,,,,,
66467e6f4c38889f9d043c4b,SCR,2024-06-26_12h39.59.929,LearnStrategy,2023.2.3,Win32,60.0240096,6,2,1,,,,,,,,2,01,,,,,,,,,,,,,2,2.073,1,,,,,,-0.1,-0.255555556,1,0,0,2.073,Basalt_rect,0,0,0,0,1,
66467e6f4c38889f9d043c4b,SCR,2024-06-26_12h39.59.929,LearnStrategy,2023.2.3,Win32,60.0240096,6,2,2,,,,,,,,3,12,,,,,,,,,,,,,3,2.188,1,,,,,,0.138888889,-0.25,1,0,0,2.188,Diorite_rect,1,0,1,0,1,
66467e6f4c38889f9d043c4b,SCR,2024-06-26_12h39.59.929,LearnStrategy,2023.2.3,Win32,60.0240096,6,2,3,,,,,,,,7,06,,,,,,,,,,,,,7,1.229,1,,,,,,0.111111111,-0.419444444,1,0,0,1.229,Peridotite_rect,2,0,2,0,1,
66467e6f4c38889f9d043c4b,SCR,2024-06-26_12h39.59.929,LearnStrategy,2023.2.3,Win32,60.0240096,6,2,4,,,,,,,,5,11,,,,,,,,,,,,,5,1.058,1,,,,,,-0.325,-0.4,1,0,0,1.058,Obsidian_rect,3,0,3,0,1,
66467e6f4c38889f9d043c4b,SCR,2024-06-26_12h39.59.929,LearnStrategy,2023.2.3,Win32,60.0240096,6,2,5,,,,,,,,6,10,,,,,,,,,,,,,6,0.96,1,,,,,,-0.141666667,-0.411111111,1,0,0,0.96,Pegmatite_rect,4,0,4,0,1,
66467e6f4c38889f9d043c4b,SCR,2024-06-26_12h39.59.929,LearnStrategy,2023.2.3,Win32,60.0240096,6,2,6,,,,,,,,3,08,,,,,,,,,,,,,7,4.778,0,,,,,,0.147222222,-0.416666667,1,0,0,4.778,Peridotite_rect,5,0,5,0,1,
66467e6f4c38889f9d043c4b,SCR,2024-06-26_12h39.59.929,LearnStrategy,2023.2.3,Win32,60.0240096,6,2,7,,,,,,,,2,08,,,,,,,,,,,,,2,1.158,1,,,,,,-0.119444444,-0.254166667,1,0,0,1.158,Basalt_rect,6,0,6,0,1,
66467e6f4c38889f9d043c4b,SCR,2024-06-26_12h39.59.929,LearnStrategy,2023.2.3,Win32,60.0240096,6,2,8,,,,,,,,7,16,,,,,,,,,,,,,4,2.239,0,,,,,,0.398611111,-0.234722222,1,0,0,2.239,Gabbro_rect,7,0,7,0,1,
66467e6f4c38889f9d043c4b,SCR,2024-06-26_12h39.59.929,LearnStrategy,2023.2.3,Win32,60.0240096,6,2,9,,,,,,,,4,08,,,,,,,,,,,,,4,1.826,1,,,,,,0.4,-0.255555556,1,0,0,1.826,Gabbro_rect,8,0,8,0,1,
66467e6f4c38889f9d043c4b,SCR,2024-06-26_12h39.59.929,LearnStrategy,2023.2.3,Win32,60.0240096,6,2,10,,,,,,,,4,15,,,,,,,,,,,,,3,2.069,0,,,,,,0.102777778,-0.252777778,1,0,0,2.069,Diorite_rect,9,0,9,0,1,
66467e6f4c38889f9d043c4b,SCR,2024-06-26_12h39.59.929,LearnStrategy,2023.2.3,Win32,60.0240096,6,2,11,,,,,,,,1,02,,,,,,,,,,,,,1,1.193,1,,,,,,-0.365277778,-0.247222222,1,0,0,1.193,Andesite_rect,10,0,10,0,1,
66467e6f4c38889f9d043c4b,SCR,2024-06-26_12h39.59.929,LearnStrategy,2023.2.3,Win32,60.0240096,6,2,12,,,,,,,,1,06,,,,,,,,,,,,,1,1.202,1,,,,,,-0.391666667,-0.233333333,1,0,0,1.202,Andesite_rect,11,0,11,0,1,
66467e6f4c38889f9d043c4b,SCR,2024-06-26_12h39.59.929,LearnStrategy,2023.2.3,Win32,60.0240096,6,2,13,,,,,,,,8,04,,,,,,,,,,,,,8,1.057,1,,,,,,0.352777778,-0.397222222,1,0,0,1.057,Pumice_rect,12,0,12,0,1,
66467e6f4c38889f9d043c4b,SCR,2024-06-26_12h39.59.929,LearnStrategy,2023.2.3,Win32,60.0240096,6,2,14,,,,,,,,6,07,,,,,,,,,,,,,6,1.093,1,,,,,,-0.118055556,-0.397222222,1,0,0,1.093,Pegmatite_rect,13,0,13,0,1,
66467e6f4c38889f9d043c4b,SCR,2024-06-26_12h39.59.929,LearnStrategy,2023.2.3,Win32,60.0240096,6,2,15,,,,,,,,5,12,,,,,,,,,,,,,5,1.203,1,,,,,,-0.384722222,-0.394444444,1,0,0,1.203,Obsidian_rect,14,0,14,0,1,
66467e6f4c38889f9d043c4b,SCR,2024-06-26_12h39.59.929,LearnStrategy,2023.2.3,Win32,60.0240096,6,2,16,,,,,,,,8,16,,,,,,,,,,,,,8,1.041,1,,,,,,0.375,-0.404166667,1,0,0,1.041,Pumice_rect,15,0,15,0,1,
66467e6f4c38889f9d043c4b,SCR,2024-06-26_12h39.59.929,LearnStrategy,2023.2.3,Win32,60.0240096,7,1,1,0.35,0.081944444,1,0,0,0.746,Peridotite_05,7,05,4,7,0.746,7,05,0.133333333,-0.401388889,1,0,0,1.592,Peridotite_rect,7,1.592,1,0,0,0,0,1,,,,,,,,,,,,,
66467e6f4c38889f9d043c4b,SCR,2024-06-26_12h39.59.929,LearnStrategy,2023.2.3,Win32,60.0240096,7,1,2,-0.573611111,-0.275,1,0,0,1.019,Gabbro_09,4,09,2,1,1.019,4,09,0.372222222,-0.258333333,1,0,0,2.155,Gabbro_rect,4,2.155,1,1,0,1,0,1,,,,,,,,,,,,,
66467e6f4c38889f9d043c4b,SCR,2024-06-26_12h39.59.929,LearnStrategy,2023.2.3,Win32,60.0240096,7,1,3,0.219444444,-0.098611111,1,0,0,0.67,Obsidian_07,5,07,3,6,0.67,5,07,-0.402777778,-0.406944444,1,0,0,0.798,Obsidian_rect,5,0.798,1,2,0,2,0,1,,,,,,,,,,,,,
66467e6f4c38889f9d043c4b,SCR,2024-06-26_12h39.59.929,LearnStrategy,2023.2.3,Win32,60.0240096,7,1,4,0.241666667,-0.409722222,1,0,0,1.309,Diorite_07,3,07,1,6,1.309,3,07,0.127777778,-0.233333333,1,0,0,0.429,Diorite_rect,3,0.429,1,3,0,3,0,1,,,,,,,,,,,,,
66467e6f4c38889f9d043c4b,SCR,2024-06-26_12h39.59.929,LearnStrategy,2023.2.3,Win32,60.0240096,7,1,5,0.522222222,0.243055556,1,0,0,0.878,Pegmatite_08,6,08,5,8,0.878,6,08,-0.180555556,-0.411111111,1,0,0,0.624,Pegmatite_rect,6,0.624,1,4,0,4,0,1,,,,,,,,,,,,,
66467e6f4c38889f9d043c4b,SCR,2024-06-26_12h39.59.929,LearnStrategy,2023.2.3,Win32,60.0240096,7,1,6,0.091666667,0.430555556,1,0,0,0.803,Andesite_09,1,09,6,5,0.803,1,09,-0.416666667,-0.241666667,1,0,0,0.923,Andesite_rect,1,0.923,1,5,0,5,0,1,,,,,,,,,,,,,
66467e6f4c38889f9d043c4b,SCR,2024-06-26_12h39.59.929,LearnStrategy,2023.2.3,Win32,60.0240096,7,1,7,-0.541666667,0.411111111,1,0,0,0.811,Gabbro_03,4,03,6,1,0.811,4,03,-0.397222222,-0.231944444,1,0,0,0.692,Andesite_rect,1,0.692,0,6,0,6,0,1,,,,,,,,,,,,,
66467e6f4c38889f9d043c4b,SCR,2024-06-26_12h39.59.929,LearnStrategy,2023.2.3,Win32,60.0240096,7,1,8,-0.244444444,0.434722222,1,0,0,0.802,Gabbro_16,4,16,6,3,0.802,4,16,0.380555556,-0.254166667,1,0,0,0.525,Gabbro_rect,4,0.525,1,7,0,7,0,1,,,,,,,,,,,,,
66467e6f4c38889f9d043c4b,SCR,2024-06-26_12h39.59.929,LearnStrategy,2023.2.3,Win32,60.0240096,7,1,9,-0.573611111,0.1,1,0,0,0.695,Gabbro_13,4,13,4,1,0.695,4,13,0.383333333,-0.244444444,1,0,0,0.536,Gabbro_rect,4,0.536,1,8,0,8,0,1,,,,,,,,,,,,,
66467e6f4c38889f9d043c4b,SCR,2024-06-26_12h39.59.929,LearnStrategy,2023.2.3,Win32,60.0240096,7,1,10,-0.211111111,-0.4125,1,0,0,0.994,Diorite_11,3,11,1,3,0.994,3,11,0.038888889,-0.261111111,1,0,0,0.85,Diorite_rect,3,0.85,1,9,0,9,0,1,,,,,,,,,,,,,
66467e6f4c38889f9d043c4b,SCR,2024-06-26_12h39.59.929,LearnStrategy,2023.2.3,Win32,60.0240096,7,1,11,-0.275,0.247222222,1,0,0,0.695,Diorite_15,3,15,5,3,0.695,3,15,-0.359722222,-0.254166667,1,0,0,1.925,Andesite_rect,1,1.925,0,10,0,10,0,1,,,,,,,,,,,,,
66467e6f4c38889f9d043c4b,SCR,2024-06-26_12h39.59.929,LearnStrategy,2023.2.3,Win32,60.0240096,7,1,12,0.579166667,-0.229166667,1,0,0,0.898,Peridotite_15,7,15,2,8,0.898,7,15,0.140277778,-0.384722222,1,0,0,0.943,Peridotite_rect,7,0.943,1,11,0,11,0,1,,,,,,,,,,,,,
66467e6f4c38889f9d043c4b,SCR,2024-06-26_12h39.59.929,LearnStrategy,2023.2.3,Win32,60.0240096,7,1,13,0.426388889,0.397222222,1,0,0,0.817,Basalt_06,2,06,6,7,0.817,2,06,-0.179166667,-0.269444444,1,0,0,0.542,Basalt_rect,2,0.542,1,12,0,12,0,1,,,,,,,,,,,,,
66467e6f4c38889f9d043c4b,SCR,2024-06-26_12h39.59.929,LearnStrategy,2023.2.3,Win32,60.0240096,7,1,14,-0.094444444,-0.133333333,1,0,0,0.518,Peridotite_10,7,10,3,4,0.518,7,10,0.079166667,-0.4125,1,0,0,1.836,Peridotite_rect,7,1.836,1,13,0,13,0,1,,,,,,,,,,,,,
66467e6f4c38889f9d043c4b,SCR,2024-06-26_12h39.59.929,LearnStrategy,2023.2.3,Win32,60.0240096,7,1,15,0.061111111,0.066666667,1,0,0,0.596,Pumice_02,8,02,4,5,0.596,8,02,0.356944444,-0.386111111,1,0,0,0.839,Pumice_rect,8,0.839,1,14,0,14,0,1,,,,,,,,,,,,,
66467e6f4c38889f9d043c4b,SCR,2024-06-26_12h39.59.929,LearnStrategy,2023.2.3,Win32,60.0240096,7,1,16,0.070833333,-0.4,1,0,0,0.829,Basalt_05,2,05,1,5,0.829,2,05,-0.154166667,-0.256944444,1,0,0,0.707,Basalt_rect,2,0.707,1,15,0,15,0,1,,,,,,,,,,,,,
66467e6f4c38889f9d043c4b,SCR,2024-06-26_12h39.59.929,LearnStrategy,2023.2.3,Win32,60.0240096,7,2,1,,,,,,,,1,10,,,,,,,,,,,,,1,19.708,1,,,,,,-0.413888889,-0.266666667,1,0,0,19.708,Andesite_rect,0,0,0,0,1,
66467e6f4c38889f9d043c4b,SCR,2024-06-26_12h39.59.929,LearnStrategy,2023.2.3,Win32,60.0240096,7,2,2,,,,,,,,3,10,,,,,,,,,,,,,3,1.238,1,,,,,,0.133333333,-0.256944444,1,0,0,1.238,Diorite_rect,1,0,1,0,1,
66467e6f4c38889f9d043c4b,SCR,2024-06-26_12h39.59.929,LearnStrategy,2023.2.3,Win32,60.0240096,7,2,3,,,,,,,,2,01,,,,,,,,,,,,,2,1.006,1,,,,,,-0.116666667,-0.247222222,1,0,0,1.006,Basalt_rect,2,0,2,0,1,
66467e6f4c38889f9d043c4b,SCR,2024-06-26_12h39.59.929,LearnStrategy,2023.2.3,Win32,60.0240096,7,2,4,,,,,,,,4,15,,,,,,,,,,,,,4,2.558,1,,,,,,0.429166667,-0.261111111,1,0,0,2.558,Gabbro_rect,3,0,3,0,1,
66467e6f4c38889f9d043c4b,SCR,2024-06-26_12h39.59.929,LearnStrategy,2023.2.3,Win32,60.0240096,7,2,5,,,,,,,,2,12,,,,,,,,,,,,,4,1.87,0,,,,,,0.406944444,-0.252777778,1,0,0,1.87,Gabbro_rect,4,0,4,0,1,
66467e6f4c38889f9d043c4b,SCR,2024-06-26_12h39.59.929,LearnStrategy,2023.2.3,Win32,60.0240096,7,2,6,,,,,,,,3,08,,,,,,,,,,,,,7,1.661,0,,,,,,0.145833333,-0.404166667,1,0,0,1.661,Peridotite_rect,5,0,5,0,1,
66467e6f4c38889f9d043c4b,SCR,2024-06-26_12h39.59.929,LearnStrategy,2023.2.3,Win32,60.0240096,7,2,7,,,,,,,,8,09,,,,,,,,,,,,,8,1.101,1,,,,,,0.368055556,-0.411111111,1,0,0,1.101,Pumice_rect,6,0,6,0,1,
66467e6f4c38889f9d043c4b,SCR,2024-06-26_12h39.59.929,LearnStrategy,2023.2.3,Win32,60.0240096,7,2,8,,,,,,,,7,13,,,,,,,,,,,,,7,1.156,1,,,,,,0.133333333,-0.408333333,1,0,0,1.156,Peridotite_rect,7,0,7,0,1,
66467e6f4c38889f9d043c4b,SCR,2024-06-26_12h39.59.929,LearnStrategy,2023.2.3,Win32,60.0240096,7,2,9,,,,,,,,6,06,,,,,,,,,,,,,6,1.118,1,,,,,,-0.126388889,-0.402777778,1,0,0,1.118,Pegmatite_rect,8,0,8,0,1,
66467e6f4c38889f9d043c4b,SCR,2024-06-26_12h39.59.929,LearnStrategy,2023.2.3,Win32,60.0240096,7,2,10,,,,,,,,6,07,,,,,,,,,,,,,6,1.842,1,,,,,,-0.151388889,-0.406944444,1,0,0,1.842,Pegmatite_rect,9,0,9,0,1,
66467e6f4c38889f9d043c4b,SCR,2024-06-26_12h39.59.929,LearnStrategy,2023.2.3,Win32,60.0240096,7,2,11,,,,,,,,4,12,,,,,,,,,,,,,4,3.031,1,,,,,,0.419444444,-0.245833333,1,0,0,3.031,Gabbro_rect,10,0,10,0,1,
66467e6f4c38889f9d043c4b,SCR,2024-06-26_12h39.59.929,LearnStrategy,2023.2.3,Win32,60.0240096,7,2,12,,,,,,,,1,05,,,,,,,,,,,,,1,1.357,1,,,,,,-0.394444444,-0.248611111,1,0,0,1.357,Andesite_rect,11,0,11,0,1,
66467e6f4c38889f9d043c4b,SCR,2024-06-26_12h39.59.929,LearnStrategy,2023.2.3,Win32,60.0240096,7,2,13,,,,,,,,5,05,,,,,,,,,,,,,5,0.959,1,,,,,,-0.363888889,-0.419444444,1,0,0,0.959,Obsidian_rect,12,0,12,0,1,
66467e6f4c38889f9d043c4b,SCR,2024-06-26_12h39.59.929,LearnStrategy,2023.2.3,Win32,60.0240096,7,2,14,,,,,,,,5,11,,,,,,,,,,,,,5,0.818,1,,,,,,-0.383333333,-0.402777778,1,0,0,0.818,Obsidian_rect,13,0,13,0,1,
66467e6f4c38889f9d043c4b,SCR,2024-06-26_12h39.59.929,LearnStrategy,2023.2.3,Win32,60.0240096,7,2,15,,,,,,,,8,04,,,,,,,,,,,,,8,1.034,1,,,,,,0.363888889,-0.394444444,1,0,0,1.034,Pumice_rect,14,0,14,0,1,
66467e6f4c38889f9d043c4b,SCR,2024-06-26_12h39.59.929,LearnStrategy,2023.2.3,Win32,60.0240096,7,2,16,,,,,,,,7,07,,,,,,,,,,,,,7,1.267,1,,,,,,0.119444444,-0.4125,1,0,0,1.267,Peridotite_rect,15,0,15,0,1,
66467e6f4c38889f9d043c4b,SCR,2024-06-26_12h39.59.929,LearnStrategy,2023.2.3,Win32,60.0240096,8,1,1,0.552777778,-0.090277778,1,0,0,1.171,Basalt_02,2,02,3,8,1.171,2,02,-0.119444444,-0.25,1,0,0,0.763,Basalt_rect,2,0.763,1,0,0,0,0,1,,,,,,,,,,,,,
66467e6f4c38889f9d043c4b,SCR,2024-06-26_12h39.59.929,LearnStrategy,2023.2.3,Win32,60.0240096,8,1,2,-0.244444444,0.247222222,1,0,0,0.891,Diorite_15,3,15,5,3,0.891,3,15,0.179166667,-0.259722222,1,0,0,0.712,Diorite_rect,3,0.712,1,1,0,1,0,1,,,,,,,,,,,,,
66467e6f4c38889f9d043c4b,SCR,2024-06-26_12h39.59.929,LearnStrategy,2023.2.3,Win32,60.0240096,8,1,3,-0.565277778,0.441666667,1,0,0,0.724,Gabbro_03,4,03,6,1,0.724,4,03,0.154166667,-0.244444444,1,0,0,0.714,Diorite_rect,3,0.714,0,2,0,2,0,1,,,,,,,,,,,,,
66467e6f4c38889f9d043c4b,SCR,2024-06-26_12h39.59.929,LearnStrategy,2023.2.3,Win32,60.0240096,8,1,4,-0.093055556,-0.091666667,1,0,0,0.738,Peridotite_10,7,10,3,4,0.738,7,10,0.152777778,-0.408333333,1,0,0,1.326,Peridotite_rect,7,1.326,1,3,0,3,0,1,,,,,,,,,,,,,
66467e6f4c38889f9d043c4b,SCR,2024-06-26_12h39.59.929,LearnStrategy,2023.2.3,Win32,60.0240096,8,1,5,0.386111111,0.454166667,1,0,0,0.776,Basalt_06,2,06,6,7,0.776,2,06,-0.136111111,-0.247222222,1,0,0,1.067,Basalt_rect,2,1.067,1,4,0,4,0,1,,,,,,,,,,,,,
66467e6f4c38889f9d043c4b,SCR,2024-06-26_12h39.59.929,LearnStrategy,2023.2.3,Win32,60.0240096,8,1,6,-0.216666667,-0.134722222,1,0,0,0.608,Obsidian_16,5,16,3,3,0.608,5,16,-0.405555556,-0.397222222,1,0,0,0.435,Obsidian_rect,5,0.435,1,5,0,5,0,1,,,,,,,,,,,,,
66467e6f4c38889f9d043c4b,SCR,2024-06-26_12h39.59.929,LearnStrategy,2023.2.3,Win32,60.0240096,8,1,7,-0.222222222,0.277777778,1,0,0,0.692,Diorite_15,3,15,5,3,0.692,3,15,0.111111111,-0.2375,1,0,0,0.754,Diorite_rect,3,0.754,1,6,0,6,0,1,,,,,,,,,,,,,
66467e6f4c38889f9d043c4b,SCR,2024-06-26_12h39.59.929,LearnStrategy,2023.2.3,Win32,60.0240096,8,1,8,0.402777778,-0.394444444,1,0,0,1.378,Gabbro_14,4,14,1,7,1.378,4,14,0.369444444,-0.261111111,1,0,0,2.198,Gabbro_rect,4,2.198,1,7,0,7,0,1,,,,,,,,,,,,,
66467e6f4c38889f9d043c4b,SCR,2024-06-26_12h39.59.929,LearnStrategy,2023.2.3,Win32,60.0240096,8,1,9,0.583333333,-0.261111111,1,0,0,0.783,Peridotite_15,7,15,2,8,0.783,7,15,0.193055556,-0.386111111,1,0,0,0.463,Peridotite_rect,7,0.463,1,8,0,8,0,1,,,,,,,,,,,,,
66467e6f4c38889f9d043c4b,SCR,2024-06-26_12h39.59.929,LearnStrategy,2023.2.3,Win32,60.0240096,8,1,10,0.077777778,0.379166667,1,0,0,0.79,Andesite_09,1,09,6,5,0.79,1,09,-0.375,-0.247222222,1,0,0,1.16,Andesite_rect,1,1.16,1,9,0,9,0,1,,,,,,,,,,,,,
66467e6f4c38889f9d043c4b,SCR,2024-06-26_12h39.59.929,LearnStrategy,2023.2.3,Win32,60.0240096,8,1,11,-0.083333333,-0.411111111,1,0,0,0.86,Diorite_14,3,14,1,4,0.86,3,14,0.113888889,-0.259722222,1,0,0,0.609,Diorite_rect,3,0.609,1,10,0,10,0,1,,,,,,,,,,,,,
66467e6f4c38889f9d043c4b,SCR,2024-06-26_12h39.59.929,LearnStrategy,2023.2.3,Win32,60.0240096,8,1,12,-0.386111111,0.066666667,1,0,0,0.788,Basalt_10,2,10,4,2,0.788,2,10,-0.108333333,-0.259722222,1,0,0,1.765,Basalt_rect,2,1.765,1,11,0,11,0,1,,,,,,,,,,,,,
66467e6f4c38889f9d043c4b,SCR,2024-06-26_12h39.59.929,LearnStrategy,2023.2.3,Win32,60.0240096,8,1,13,0.391666667,-0.423611111,1,0,0,1.097,Gabbro_14,4,14,1,7,1.097,4,14,0.369444444,-0.266666667,1,0,0,0.994,Gabbro_rect,4,0.994,1,12,0,12,0,1,,,,,,,,,,,,,
66467e6f4c38889f9d043c4b,SCR,2024-06-26_12h39.59.929,LearnStrategy,2023.2.3,Win32,60.0240096,8,1,14,-0.569444444,-0.291666667,1,0,0,0.764,Gabbro_09,4,09,2,1,0.764,4,09,0.370833333,-0.231944444,1,0,0,0.949,Gabbro_rect,4,0.949,1,13,0,13,0,1,,,,,,,,,,,,,
66467e6f4c38889f9d043c4b,SCR,2024-06-26_12h39.59.929,LearnStrategy,2023.2.3,Win32,60.0240096,8,1,15,0.236111111,0.240277778,1,0,0,0.708,Pegmatite_15,6,15,5,6,0.708,6,15,-0.129166667,-0.390277778,1,0,0,1.289,Pegmatite_rect,6,1.289,1,14,0,14,0,1,,,,,,,,,,,,,
66467e6f4c38889f9d043c4b,SCR,2024-06-26_12h39.59.929,LearnStrategy,2023.2.3,Win32,60.0240096,8,1,16,0.2625,-0.266666667,1,0,0,0.979,Pumice_10,8,10,2,6,0.979,8,10,0.368055556,-0.411111111,1,0,0,1.017,Pumice_rect,8,1.017,1,15,0,15,0,1,,,,,,,,,,,,,
66467e6f4c38889f9d043c4b,SCR,2024-06-26_12h39.59.929,LearnStrategy,2023.2.3,Win32,60.0240096,8,2,1,,,,,,,,7,06,,,,,,,,,,,,,7,3.122,1,,,,,,0.108333333,-0.405555556,1,0,0,3.122,Peridotite_rect,0,0,0,0,1,
66467e6f4c38889f9d043c4b,SCR,2024-06-26_12h39.59.929,LearnStrategy,2023.2.3,Win32,60.0240096,8,2,2,,,,,,,,1,14,,,,,,,,,,,,,1,1.502,1,,,,,,-0.363888889,-0.266666667,1,0,0,1.502,Andesite_rect,1,0,1,0,1,
66467e6f4c38889f9d043c4b,SCR,2024-06-26_12h39.59.929,LearnStrategy,2023.2.3,Win32,60.0240096,8,2,3,,,,,,,,6,03,,,,,,,,,,,,,6,0.966,1,,,,,,-0.161111111,-0.406944444,1,0,0,0.966,Pegmatite_rect,2,0,2,0,1,
66467e6f4c38889f9d043c4b,SCR,2024-06-26_12h39.59.929,LearnStrategy,2023.2.3,Win32,60.0240096,8,2,4,,,,,,,,1,02,,,,,,,,,,,,,1,1.22,1,,,,,,-0.375,-0.251388889,1,0,0,1.22,Andesite_rect,3,0,3,0,1,
66467e6f4c38889f9d043c4b,SCR,2024-06-26_12h39.59.929,LearnStrategy,2023.2.3,Win32,60.0240096,8,2,5,,,,,,,,5,09,,,,,,,,,,,,,5,0.9,1,,,,,,-0.380555556,-0.393055556,1,0,0,0.9,Obsidian_rect,4,0,4,0,1,
66467e6f4c38889f9d043c4b,SCR,2024-06-26_12h39.59.929,LearnStrategy,2023.2.3,Win32,60.0240096,8,2,6,,,,,,,,4,10,,,,,,,,,,,,,4,1.375,1,,,,,,0.384722222,-0.25,1,0,0,1.375,Gabbro_rect,5,0,5,0,1,
66467e6f4c38889f9d043c4b,SCR,2024-06-26_12h39.59.929,LearnStrategy,2023.2.3,Win32,60.0240096,8,2,7,,,,,,,,5,10,,,,,,,,,,,,,5,0.998,1,,,,,,-0.386111111,-0.395833333,1,0,0,0.998,Obsidian_rect,6,0,6,0,1,
66467e6f4c38889f9d043c4b,SCR,2024-06-26_12h39.59.929,LearnStrategy,2023.2.3,Win32,60.0240096,8,2,8,,,,,,,,3,12,,,,,,,,,,,,,3,0.922,1,,,,,,0.136111111,-0.247222222,1,0,0,0.922,Diorite_rect,7,0,7,0,1,
66467e6f4c38889f9d043c4b,SCR,2024-06-26_12h39.59.929,LearnStrategy,2023.2.3,Win32,60.0240096,8,2,9,,,,,,,,4,11,,,,,,,,,,,,,4,1.499,1,,,,,,0.3875,-0.259722222,1,0,0,1.499,Gabbro_rect,8,0,8,0,1,
66467e6f4c38889f9d043c4b,SCR,2024-06-26_12h39.59.929,LearnStrategy,2023.2.3,Win32,60.0240096,8,2,10,,,,,,,,2,09,,,,,,,,,,,,,2,0.932,1,,,,,,-0.126388889,-0.247222222,1,0,0,0.932,Basalt_rect,9,0,9,0,1,
66467e6f4c38889f9d043c4b,SCR,2024-06-26_12h39.59.929,LearnStrategy,2023.2.3,Win32,60.0240096,8,2,11,,,,,,,,8,16,,,,,,,,,,,,,8,1.105,1,,,,,,0.376388889,-0.397222222,1,0,0,1.105,Pumice_rect,10,0,10,0,1,
66467e6f4c38889f9d043c4b,SCR,2024-06-26_12h39.59.929,LearnStrategy,2023.2.3,Win32,60.0240096,8,2,12,,,,,,,,2,11,,,,,,,,,,,,,4,1.877,0,,,,,,0.4,-0.261111111,1,0,0,1.877,Gabbro_rect,11,0,11,0,1,
66467e6f4c38889f9d043c4b,SCR,2024-06-26_12h39.59.929,LearnStrategy,2023.2.3,Win32,60.0240096,8,2,13,,,,,,,,3,16,,,,,,,,,,,,,3,0.929,1,,,,,,0.120833333,-0.252777778,1,0,0,0.929,Diorite_rect,12,0,12,0,1,
66467e6f4c38889f9d043c4b,SCR,2024-06-26_12h39.59.929,LearnStrategy,2023.2.3,Win32,60.0240096,8,2,14,,,,,,,,6,12,,,,,,,,,,,,,6,1.026,1,,,,,,-0.119444444,-0.3875,1,0,0,1.026,Pegmatite_rect,13,0,13,0,1,
66467e6f4c38889f9d043c4b,SCR,2024-06-26_12h39.59.929,LearnStrategy,2023.2.3,Win32,60.0240096,8,2,15,,,,,,,,8,03,,,,,,,,,,,,,8,0.971,1,,,,,,0.3875,-0.402777778,1,0,0,0.971,Pumice_rect,14,0,14,0,1,
66467e6f4c38889f9d043c4b,SCR,2024-06-26_12h39.59.929,LearnStrategy,2023.2.3,Win32,60.0240096,8,2,16,,,,,,,,7,02,,,,,,,,,,,,,7,0.851,1,,,,,,0.122222222,-0.411111111,1,0,0,0.851,Peridotite_rect,15,0,15,0,1,
66467e6f4c38889f9d043c4b,SCR,2024-06-26_12h39.59.929,LearnStrategy,2023.2.3,Win32,60.0240096,9,1,1,-0.095833333,0.401388889,1,0,0,1.346,Obsidian_02,5,02,6,4,1.346,5,02,-0.390277778,-0.408333333,1,0,0,1.156,Obsidian_rect,5,1.156,1,0,0,0,0,1,,,,,,,,,,,,,
66467e6f4c38889f9d043c4b,SCR,2024-06-26_12h39.59.929,LearnStrategy,2023.2.3,Win32,60.0240096,9,1,2,-0.563888889,0.247222222,1,0,0,0.707,Basalt_04,2,04,5,1,0.707,2,04,-0.140277778,-0.247222222,1,0,0,1.337,Basalt_rect,2,1.337,1,1,0,1,0,1,,,,,,,,,,,,,
66467e6f4c38889f9d043c4b,SCR,2024-06-26_12h39.59.929,LearnStrategy,2023.2.3,Win32,60.0240096,9,1,3,-0.236111111,0.375,1,0,0,1.007,Gabbro_16,4,16,6,3,1.007,4,16,0.379166667,-0.256944444,1,0,0,0.784,Gabbro_rect,4,0.784,1,2,0,2,0,1,,,,,,,,,,,,,
66467e6f4c38889f9d043c4b,SCR,2024-06-26_12h39.59.929,LearnStrategy,2023.2.3,Win32,60.0240096,9,1,4,-0.088888889,0.234722222,1,0,0,0.622,Andesite_16,1,16,5,4,0.622,1,16,0.143055556,-0.256944444,1,0,0,0.987,Diorite_rect,3,0.987,0,3,0,3,0,1,,,,,,,,,,,,,
66467e6f4c38889f9d043c4b,SCR,2024-06-26_12h39.59.929,LearnStrategy,2023.2.3,Win32,60.0240096,9,1,5,-0.545833333,-0.102777778,1,0,0,0.81,Pumice_06,8,06,3,1,0.81,8,06,0.351388889,-0.420833333,1,0,0,1.306,Pumice_rect,8,1.306,1,4,0,4,0,1,,,,,,,,,,,,,
66467e6f4c38889f9d043c4b,SCR,2024-06-26_12h39.59.929,LearnStrategy,2023.2.3,Win32,60.0240096,9,1,6,0.202777778,0.383333333,1,0,0,0.921,Peridotite_14,7,14,6,6,0.921,7,14,-0.413888889,-0.229166667,1,0,0,2.763,Andesite_rect,1,2.763,0,5,0,5,0,1,,,,,,,,,,,,,
66467e6f4c38889f9d043c4b,SCR,2024-06-26_12h39.59.929,LearnStrategy,2023.2.3,Win32,60.0240096,9,1,7,0.531944444,-0.133333333,1,0,0,0.757,Basalt_02,2,02,3,8,0.757,2,02,-0.081944444,-0.255555556,1,0,0,1.252,Basalt_rect,2,1.252,1,6,0,6,0,1,,,,,,,,,,,,,
66467e6f4c38889f9d043c4b,SCR,2024-06-26_12h39.59.929,LearnStrategy,2023.2.3,Win32,60.0240096,9,1,8,-0.397222222,0.266666667,1,0,0,1.43,Peridotite_04,7,04,5,2,1.43,7,04,0.075,-0.413888889,1,0,0,1.547,Peridotite_rect,7,1.547,1,7,0,7,0,1,,,,,,,,,,,,,
66467e6f4c38889f9d043c4b,SCR,2024-06-26_12h39.59.929,LearnStrategy,2023.2.3,Win32,60.0240096,9,1,9,0.202777778,-0.408333333,1,0,0,1.08,Diorite_07,3,07,1,6,1.08,3,07,0.151388889,-0.25,1,0,0,0.976,Diorite_rect,3,0.976,1,8,0,8,0,1,,,,,,,,,,,,,
66467e6f4c38889f9d043c4b,SCR,2024-06-26_12h39.59.929,LearnStrategy,2023.2.3,Win32,60.0240096,9,1,10,0.388888889,0.411111111,1,0,0,0.664,Basalt_06,2,06,6,7,0.664,2,06,-0.130555556,-0.259722222,1,0,0,0.482,Basalt_rect,2,0.482,1,9,0,9,0,1,,,,,,,,,,,,,
66467e6f4c38889f9d043c4b,SCR,2024-06-26_12h39.59.929,LearnStrategy,2023.2.3,Win32,60.0240096,9,1,11,-0.572222222,0.259722222,1,0,0,0.866,Basalt_04,2,04,5,1,0.866,2,04,-0.127777778,-0.25,1,0,0,1.041,Basalt_rect,2,1.041,1,10,0,10,0,1,,,,,,,,,,,,,
66467e6f4c38889f9d043c4b,SCR,2024-06-26_12h39.59.929,LearnStrategy,2023.2.3,Win32,60.0240096,9,1,12,-0.225,-0.406944444,1,0,0,0.892,Diorite_11,3,11,1,3,0.892,3,11,0.141666667,-0.261111111,1,0,0,2.266,Diorite_rect,3,2.266,1,11,0,11,0,1,,,,,,,,,,,,,
66467e6f4c38889f9d043c4b,SCR,2024-06-26_12h39.59.929,LearnStrategy,2023.2.3,Win32,60.0240096,9,1,13,0.379166667,0.251388889,1,0,0,0.679,Pegmatite_09,6,09,5,7,0.679,6,09,-0.163888889,-0.381944444,1,0,0,0.507,Pegmatite_rect,6,0.507,1,12,0,12,0,1,,,,,,,,,,,,,
66467e6f4c38889f9d043c4b,SCR,2024-06-26_12h39.59.929,LearnStrategy,2023.2.3,Win32,60.0240096,9,1,14,0.409722222,-0.402777778,1,0,0,0.97,Gabbro_14,4,14,1,7,0.97,4,14,0.415277778,-0.261111111,1,0,0,0.575,Gabbro_rect,4,0.575,1,13,0,13,0,1,,,,,,,,,,,,,
66467e6f4c38889f9d043c4b,SCR,2024-06-26_12h39.59.929,LearnStrategy,2023.2.3,Win32,60.0240096,9,1,15,0.575,0.091666667,1,0,0,0.657,Diorite_09,3,09,4,8,0.657,3,09,0.141666667,-0.255555556,1,0,0,0.856,Diorite_rect,3,0.856,1,14,0,14,0,1,,,,,,,,,,,,,
66467e6f4c38889f9d043c4b,SCR,2024-06-26_12h39.59.929,LearnStrategy,2023.2.3,Win32,60.0240096,9,1,16,-0.558333333,0.423611111,1,0,0,0.846,Gabbro_03,4,03,6,1,0.846,4,03,-0.386111111,-0.251388889,1,0,0,0.591,Andesite_rect,1,0.591,0,15,0,15,0,1,,,,,,,,,,,,,
66467e6f4c38889f9d043c4b,SCR,2024-06-26_12h39.59.929,LearnStrategy,2023.2.3,Win32,60.0240096,9,2,1,,,,,,,,7,16,,,,,,,,,,,,,4,1.835,0,,,,,,0.394444444,-0.25,1,0,0,1.835,Gabbro_rect,0,0,0,0,1,
66467e6f4c38889f9d043c4b,SCR,2024-06-26_12h39.59.929,LearnStrategy,2023.2.3,Win32,60.0240096,9,2,2,,,,,,,,4,01,,,,,,,,,,,,,4,2.241,1,,,,,,0.358333333,-0.248611111,1,0,0,2.241,Gabbro_rect,1,0,1,0,1,
66467e6f4c38889f9d043c4b,SCR,2024-06-26_12h39.59.929,LearnStrategy,2023.2.3,Win32,60.0240096,9,2,3,,,,,,,,2,16,,,,,,,,,,,,,2,2.137,1,,,,,,-0.155555556,-0.255555556,1,0,0,2.137,Basalt_rect,2,0,2,0,1,
66467e6f4c38889f9d043c4b,SCR,2024-06-26_12h39.59.929,LearnStrategy,2023.2.3,Win32,60.0240096,9,2,4,,,,,,,,8,05,,,,,,,,,,,,,8,1.721,1,,,,,,0.351388889,-0.402777778,1,0,0,1.721,Pumice_rect,3,0,3,0,1,
66467e6f4c38889f9d043c4b,SCR,2024-06-26_12h39.59.929,LearnStrategy,2023.2.3,Win32,60.0240096,9,2,5,,,,,,,,7,08,,,,,,,,,,,,,7,1.647,1,,,,,,0.123611111,-0.401388889,1,0,0,1.647,Peridotite_rect,4,0,4,0,1,
66467e6f4c38889f9d043c4b,SCR,2024-06-26_12h39.59.929,LearnStrategy,2023.2.3,Win32,60.0240096,9,2,6,,,,,,,,4,08,,,,,,,,,,,,,4,4.492,1,,,,,,0.351388889,-0.25,1,0,0,4.492,Gabbro_rect,5,0,5,0,1,
66467e6f4c38889f9d043c4b,SCR,2024-06-26_12h39.59.929,LearnStrategy,2023.2.3,Win32,60.0240096,9,2,7,,,,,,,,5,12,,,,,,,,,,,,,5,0.966,1,,,,,,-0.383333333,-0.388888889,1,0,0,0.966,Obsidian_rect,6,0,6,0,1,
66467e6f4c38889f9d043c4b,SCR,2024-06-26_12h39.59.929,LearnStrategy,2023.2.3,Win32,60.0240096,9,2,8,,,,,,,,3,06,,,,,,,,,,,,,3,1.797,1,,,,,,0.111111111,-0.231944444,1,0,0,1.797,Diorite_rect,7,0,7,0,1,
66467e6f4c38889f9d043c4b,SCR,2024-06-26_12h39.59.929,LearnStrategy,2023.2.3,Win32,60.0240096,9,2,9,,,,,,,,1,01,,,,,,,,,,,,,1,0.902,1,,,,,,-0.440277778,-0.240277778,1,0,0,0.902,Andesite_rect,8,0,8,0,1,
66467e6f4c38889f9d043c4b,SCR,2024-06-26_12h39.59.929,LearnStrategy,2023.2.3,Win32,60.0240096,9,2,10,,,,,,,,3,02,,,,,,,,,,,,,7,3.987,0,,,,,,0.133333333,-0.406944444,1,0,0,3.987,Peridotite_rect,9,0,9,0,1,
66467e6f4c38889f9d043c4b,SCR,2024-06-26_12h39.59.929,LearnStrategy,2023.2.3,Win32,60.0240096,9,2,11,,,,,,,,8,08,,,,,,,,,,,,,8,0.973,1,,,,,,0.373611111,-0.406944444,1,0,0,0.973,Pumice_rect,10,0,10,0,1,
66467e6f4c38889f9d043c4b,SCR,2024-06-26_12h39.59.929,LearnStrategy,2023.2.3,Win32,60.0240096,9,2,12,,,,,,,,6,10,,,,,,,,,,,,,6,0.94,1,,,,,,-0.083333333,-0.406944444,1,0,0,0.94,Pegmatite_rect,11,0,11,0,1,
66467e6f4c38889f9d043c4b,SCR,2024-06-26_12h39.59.929,LearnStrategy,2023.2.3,Win32,60.0240096,9,2,13,,,,,,,,2,08,,,,,,,,,,,,,2,0.918,1,,,,,,-0.122222222,-0.234722222,1,0,0,0.918,Basalt_rect,12,0,12,0,1,
66467e6f4c38889f9d043c4b,SCR,2024-06-26_12h39.59.929,LearnStrategy,2023.2.3,Win32,60.0240096,9,2,14,,,,,,,,6,05,,,,,,,,,,,,,6,0.942,1,,,,,,-0.119444444,-0.380555556,1,0,0,0.942,Pegmatite_rect,13,0,13,0,1,
66467e6f4c38889f9d043c4b,SCR,2024-06-26_12h39.59.929,LearnStrategy,2023.2.3,Win32,60.0240096,9,2,15,,,,,,,,5,14,,,,,,,,,,,,,5,0.923,1,,,,,,-0.377777778,-0.395833333,1,0,0,0.923,Obsidian_rect,14,0,14,0,1,
66467e6f4c38889f9d043c4b,SCR,2024-06-26_12h39.59.929,LearnStrategy,2023.2.3,Win32,60.0240096,9,2,16,,,,,,,,1,06,,,,,,,,,,,,,1,1.918,1,,,,,,-0.369444444,-0.247222222,1,0,0,1.918,Andesite_rect,15,0,15,0,1,
66467e6f4c38889f9d043c4b,SCR,2024-06-26_12h39.59.929,LearnStrategy,2023.2.3,Win32,60.0240096,,,,,,,,,,,,,,,,,,,,,,,,,,,,,,,,,,,,,,,,,,,,,1
66467e6f4c38889f9d043c4b,SCR,2024-06-26_12h39.59.929,LearnStrategy,2023.2.3,Win32,60.0240096,,,,,,,,,,,,,,,,,,,,,,,,,,,,,,,,,,,,,,,,,,,,,
66467e6f4c38889f9d043c4b,SCR,2024-06-26_12h39.59.929,LearnStrategy,2023.2.3,Win32,60.0240096,,,,,,,,,,,7,12,1,1,,,,,,,,,,,,,,,,,,,,,,,,,,,,,,,
66467e6f4c38889f9d043c4b,SCR,2024-06-26_12h39.59.929,LearnStrategy,2023.2.3,Win32,60.0240096,,,,,,,,,,,5,04,1,2,,,,,,,,,,,,,,,,,,,,,,,,,,,,,,,
66467e6f4c38889f9d043c4b,SCR,2024-06-26_12h39.59.929,LearnStrategy,2023.2.3,Win32,60.0240096,,,,,,,,,,,3,11,1,3,,,,,,,,,,,,,,,,,,,,,,,,,,,,,,,
66467e6f4c38889f9d043c4b,SCR,2024-06-26_12h39.59.929,LearnStrategy,2023.2.3,Win32,60.0240096,,,,,,,,,,,3,14,1,4,,,,,,,,,,,,,,,,,,,,,,,,,,,,,,,
66467e6f4c38889f9d043c4b,SCR,2024-06-26_12h39.59.929,LearnStrategy,2023.2.3,Win32,60.0240096,,,,,,,,,,,2,05,1,5,,,,,,,,,,,,,,,,,,,,,,,,,,,,,,,
66467e6f4c38889f9d043c4b,SCR,2024-06-26_12h39.59.929,LearnStrategy,2023.2.3,Win32,60.0240096,,,,,,,,,,,3,07,1,6,,,,,,,,,,,,,,,,,,,,,,,,,,,,,,,
66467e6f4c38889f9d043c4b,SCR,2024-06-26_12h39.59.929,LearnStrategy,2023.2.3,Win32,60.0240096,,,,,,,,,,,4,14,1,7,,,,,,,,,,,,,,,,,,,,,,,,,,,,,,,
66467e6f4c38889f9d043c4b,SCR,2024-06-26_12h39.59.929,LearnStrategy,2023.2.3,Win32,60.0240096,,,,,,,,,,,8,15,1,8,,,,,,,,,,,,,,,,,,,,,,,,,,,,,,,
66467e6f4c38889f9d043c4b,SCR,2024-06-26_12h39.59.929,LearnStrategy,2023.2.3,Win32,60.0240096,,,,,,,,,,,4,09,2,1,,,,,,,,,,,,,,,,,,,,,,,,,,,,,,,
66467e6f4c38889f9d043c4b,SCR,2024-06-26_12h39.59.929,LearnStrategy,2023.2.3,Win32,60.0240096,,,,,,,,,,,2,14,2,2,,,,,,,,,,,,,,,,,,,,,,,,,,,,,,,
66467e6f4c38889f9d043c4b,SCR,2024-06-26_12h39.59.929,LearnStrategy,2023.2.3,Win32,60.0240096,,,,,,,,,,,8,14,2,3,,,,,,,,,,,,,,,,,,,,,,,,,,,,,,,
66467e6f4c38889f9d043c4b,SCR,2024-06-26_12h39.59.929,LearnStrategy,2023.2.3,Win32,60.0240096,,,,,,,,,,,6,13,2,4,,,,,,,,,,,,,,,,,,,,,,,,,,,,,,,
66467e6f4c38889f9d043c4b,SCR,2024-06-26_12h39.59.929,LearnStrategy,2023.2.3,Win32,60.0240096,,,,,,,,,,,1,03,2,5,,,,,,,,,,,,,,,,,,,,,,,,,,,,,,,
66467e6f4c38889f9d043c4b,SCR,2024-06-26_12h39.59.929,LearnStrategy,2023.2.3,Win32,60.0240096,,,,,,,,,,,8,10,2,6,,,,,,,,,,,,,,,,,,,,,,,,,,,,,,,
66467e6f4c38889f9d043c4b,SCR,2024-06-26_12h39.59.929,LearnStrategy,2023.2.3,Win32,60.0240096,,,,,,,,,,,5,06,2,7,,,,,,,,,,,,,,,,,,,,,,,,,,,,,,,
66467e6f4c38889f9d043c4b,SCR,2024-06-26_12h39.59.929,LearnStrategy,2023.2.3,Win32,60.0240096,,,,,,,,,,,7,15,2,8,,,,,,,,,,,,,,,,,,,,,,,,,,,,,,,
66467e6f4c38889f9d043c4b,SCR,2024-06-26_12h39.59.929,LearnStrategy,2023.2.3,Win32,60.0240096,,,,,,,,,,,8,06,3,1,,,,,,,,,,,,,,,,,,,,,,,,,,,,,,,
66467e6f4c38889f9d043c4b,SCR,2024-06-26_12h39.59.929,LearnStrategy,2023.2.3,Win32,60.0240096,,,,,,,,,,,3,13,3,2,,,,,,,,,,,,,,,,,,,,,,,,,,,,,,,
66467e6f4c38889f9d043c4b,SCR,2024-06-26_12h39.59.929,LearnStrategy,2023.2.3,Win32,60.0240096,,,,,,,,,,,5,16,3,3,,,,,,,,,,,,,,,,,,,,,,,,,,,,,,,
66467e6f4c38889f9d043c4b,SCR,2024-06-26_12h39.59.929,LearnStrategy,2023.2.3,Win32,60.0240096,,,,,,,,,,,7,10,3,4,,,,,,,,,,,,,,,,,,,,,,,,,,,,,,,
66467e6f4c38889f9d043c4b,SCR,2024-06-26_12h39.59.929,LearnStrategy,2023.2.3,Win32,60.0240096,,,,,,,,,,,6,11,3,5,,,,,,,,,,,,,,,,,,,,,,,,,,,,,,,
66467e6f4c38889f9d043c4b,SCR,2024-06-26_12h39.59.929,LearnStrategy,2023.2.3,Win32,60.0240096,,,,,,,,,,,5,07,3,6,,,,,,,,,,,,,,,,,,,,,,,,,,,,,,,
66467e6f4c38889f9d043c4b,SCR,2024-06-26_12h39.59.929,LearnStrategy,2023.2.3,Win32,60.0240096,,,,,,,,,,,1,07,3,7,,,,,,,,,,,,,,,,,,,,,,,,,,,,,,,
66467e6f4c38889f9d043c4b,SCR,2024-06-26_12h39.59.929,LearnStrategy,2023.2.3,Win32,60.0240096,,,,,,,,,,,2,02,3,8,,,,,,,,,,,,,,,,,,,,,,,,,,,,,,,
66467e6f4c38889f9d043c4b,SCR,2024-06-26_12h39.59.929,LearnStrategy,2023.2.3,Win32,60.0240096,,,,,,,,,,,4,13,4,1,,,,,,,,,,,,,,,,,,,,,,,,,,,,,,,
66467e6f4c38889f9d043c4b,SCR,2024-06-26_12h39.59.929,LearnStrategy,2023.2.3,Win32,60.0240096,,,,,,,,,,,2,10,4,2,,,,,,,,,,,,,,,,,,,,,,,,,,,,,,,
66467e6f4c38889f9d043c4b,SCR,2024-06-26_12h39.59.929,LearnStrategy,2023.2.3,Win32,60.0240096,,,,,,,,,,,1,04,4,3,,,,,,,,,,,,,,,,,,,,,,,,,,,,,,,
66467e6f4c38889f9d043c4b,SCR,2024-06-26_12h39.59.929,LearnStrategy,2023.2.3,Win32,60.0240096,,,,,,,,,,,5,08,4,4,,,,,,,,,,,,,,,,,,,,,,,,,,,,,,,
66467e6f4c38889f9d043c4b,SCR,2024-06-26_12h39.59.929,LearnStrategy,2023.2.3,Win32,60.0240096,,,,,,,,,,,8,02,4,5,,,,,,,,,,,,,,,,,,,,,,,,,,,,,,,
66467e6f4c38889f9d043c4b,SCR,2024-06-26_12h39.59.929,LearnStrategy,2023.2.3,Win32,60.0240096,,,,,,,,,,,1,11,4,6,,,,,,,,,,,,,,,,,,,,,,,,,,,,,,,
66467e6f4c38889f9d043c4b,SCR,2024-06-26_12h39.59.929,LearnStrategy,2023.2.3,Win32,60.0240096,,,,,,,,,,,7,05,4,7,,,,,,,,,,,,,,,,,,,,,,,,,,,,,,,
66467e6f4c38889f9d043c4b,SCR,2024-06-26_12h39.59.929,LearnStrategy,2023.2.3,Win32,60.0240096,,,,,,,,,,,3,09,4,8,,,,,,,,,,,,,,,,,,,,,,,,,,,,,,,
66467e6f4c38889f9d043c4b,SCR,2024-06-26_12h39.59.929,LearnStrategy,2023.2.3,Win32,60.0240096,,,,,,,,,,,2,04,5,1,,,,,,,,,,,,,,,,,,,,,,,,,,,,,,,
66467e6f4c38889f9d043c4b,SCR,2024-06-26_12h39.59.929,LearnStrategy,2023.2.3,Win32,60.0240096,,,,,,,,,,,7,04,5,2,,,,,,,,,,,,,,,,,,,,,,,,,,,,,,,
66467e6f4c38889f9d043c4b,SCR,2024-06-26_12h39.59.929,LearnStrategy,2023.2.3,Win32,60.0240096,,,,,,,,,,,3,15,5,3,,,,,,,,,,,,,,,,,,,,,,,,,,,,,,,
66467e6f4c38889f9d043c4b,SCR,2024-06-26_12h39.59.929,LearnStrategy,2023.2.3,Win32,60.0240096,,,,,,,,,,,1,16,5,4,,,,,,,,,,,,,,,,,,,,,,,,,,,,,,,
66467e6f4c38889f9d043c4b,SCR,2024-06-26_12h39.59.929,LearnStrategy,2023.2.3,Win32,60.0240096,,,,,,,,,,,4,05,5,5,,,,,,,,,,,,,,,,,,,,,,,,,,,,,,,
66467e6f4c38889f9d043c4b,SCR,2024-06-26_12h39.59.929,LearnStrategy,2023.2.3,Win32,60.0240096,,,,,,,,,,,6,15,5,6,,,,,,,,,,,,,,,,,,,,,,,,,,,,,,,
66467e6f4c38889f9d043c4b,SCR,2024-06-26_12h39.59.929,LearnStrategy,2023.2.3,Win32,60.0240096,,,,,,,,,,,6,09,5,7,,,,,,,,,,,,,,,,,,,,,,,,,,,,,,,
66467e6f4c38889f9d043c4b,SCR,2024-06-26_12h39.59.929,LearnStrategy,2023.2.3,Win32,60.0240096,,,,,,,,,,,6,08,5,8,,,,,,,,,,,,,,,,,,,,,,,,,,,,,,,
66467e6f4c38889f9d043c4b,SCR,2024-06-26_12h39.59.929,LearnStrategy,2023.2.3,Win32,60.0240096,,,,,,,,,,,4,03,6,1,,,,,,,,,,,,,,,,,,,,,,,,,,,,,,,
66467e6f4c38889f9d043c4b,SCR,2024-06-26_12h39.59.929,LearnStrategy,2023.2.3,Win32,60.0240096,,,,,,,,,,,8,13,6,2,,,,,,,,,,,,,,,,,,,,,,,,,,,,,,,
66467e6f4c38889f9d043c4b,SCR,2024-06-26_12h39.59.929,LearnStrategy,2023.2.3,Win32,60.0240096,,,,,,,,,,,4,16,6,3,,,,,,,,,,,,,,,,,,,,,,,,,,,,,,,
66467e6f4c38889f9d043c4b,SCR,2024-06-26_12h39.59.929,LearnStrategy,2023.2.3,Win32,60.0240096,,,,,,,,,,,5,02,6,4,,,,,,,,,,,,,,,,,,,,,,,,,,,,,,,
66467e6f4c38889f9d043c4b,SCR,2024-06-26_12h39.59.929,LearnStrategy,2023.2.3,Win32,60.0240096,,,,,,,,,,,1,09,6,5,,,,,,,,,,,,,,,,,,,,,,,,,,,,,,,
66467e6f4c38889f9d043c4b,SCR,2024-06-26_12h39.59.929,LearnStrategy,2023.2.3,Win32,60.0240096,,,,,,,,,,,7,14,6,6,,,,,,,,,,,,,,,,,,,,,,,,,,,,,,,
66467e6f4c38889f9d043c4b,SCR,2024-06-26_12h39.59.929,LearnStrategy,2023.2.3,Win32,60.0240096,,,,,,,,,,,2,06,6,7,,,,,,,,,,,,,,,,,,,,,,,,,,,,,,,
66467e6f4c38889f9d043c4b,SCR,2024-06-26_12h39.59.929,LearnStrategy,2023.2.3,Win32,60.0240096,,,,,,,,,,,6,16,6,8,,,,,,,,,,,,,,,,,,,,,,,,,,,,,,,