participant,condition,date,expName,psychopyVersion,OS,frameRate,block,phase,trial,learn_mouse.x,learn_mouse.y,learn_mouse.leftButton,learn_mouse.midButton,learn_mouse.rightButton,learn_mouse.time,learn_mouse.clicked_name,cat,token,row,col,t_select,cat_rec,token_rec,cat_mouse_l.x,cat_mouse_l.y,cat_mouse_l.leftButton,cat_mouse_l.midButton,cat_mouse_l.rightButton,cat_mouse_l.time,cat_mouse_l.clicked_name,resp,t_resp,corr,train_trials.thisRepN,train_trials.thisTrialN,train_trials.thisN,train_trials.thisIndex,train_trials.ran,cat_mouse_t.x,cat_mouse_t.y,cat_mouse_t.leftButton,cat_mouse_t.midButton,cat_mouse_t.rightButton,cat_mouse_t.time,cat_mouse_t.clicked_name,test_trials.thisRepN,test_trials.thisTrialN,test_trials.thisN,test_trials.thisIndex,test_trials.ran,Bonus
6647b9d85e49c207ba28f76f,SCR,2024-06-24_14h43.02.920,LearnStrategy,2023.2.3,MacIntel,120.4819277,,,,,,,,,,,,,,,,,,,,,,,,,,,,,,,,,,,,,,,,,,,,,
6647b9d85e49c207ba28f76f,SCR,2024-06-24_14h43.02.920,LearnStrategy,2023.2.3,MacIntel,120.4819277,1,1,1,0.080818646,-0.055599267,1,0,0,4.9369,Gabbro_12,4,12,3,5,4.937,3,11,-0.32607931,-0.260108116,1,0,0,7.016,Andesite_rect,1,7.016,0,0,0,0,0,1,,,,,,,,,,,,,
6647b9d85e49c207ba28f76f,SCR,2024-06-24_14h43.02.920,LearnStrategy,2023.2.3,MacIntel,120.4819277,1,1,2,0.391573793,0.385270105,1,0,0,4.0811,Basalt_11,2,11,6,7,4.081,2,11,0.108518772,-0.264810427,1,0,0,4.6284,Diorite_rect,3,4.628,0,1,0,1,0,1,,,,,,,,,,,,,
6647b9d85e49c207ba28f76f,SCR,2024-06-24_14h43.02.920,LearnStrategy,2023.2.3,MacIntel,120.4819277,1,1,3,-0.551887404,-0.275552614,1,0,0,2.8466,Peridotite_13,7,13,2,1,2.847,5,14,-0.169912618,-0.241354414,1,0,0,5.8896,Basalt_rect,2,5.89,0,2,0,2,0,1,,,,,,,,,,,,,
6647b9d85e49c207ba28f76f,SCR,2024-06-24_14h43.02.920,LearnStrategy,2023.2.3,MacIntel,120.4819277,1,1,4,0.364415173,-0.10740799,1,0,0,4.8234,Pumice_05,8,05,3,7,4.823,3,02,0.390972119,-0.414636404,1,0,0,0.971,Pumice_rect,8,0.971,1,3,0,3,0,1,,,,,,,,,,,,,
6647b9d85e49c207ba28f76f,SCR,2024-06-24_14h43.02.920,LearnStrategy,2023.2.3,MacIntel,120.4819277,1,1,5,-0.101363485,-0.231977562,1,0,0,2.9737,Basalt_02,2,02,2,4,2.974,2,02,-0.065971194,-0.412326903,1,0,0,5.1969,Pegmatite_rect,6,5.197,0,4,0,4,0,1,,,,,,,,,,,,,
6647b9d85e49c207ba28f76f,SCR,2024-06-24_14h43.02.920,LearnStrategy,2023.2.3,MacIntel,120.4819277,1,1,6,0.532448719,0.106667469,1,0,0,1.5817,Obsidian_07,5,07,4,8,1.582,5,07,0.129980006,-0.397627555,1,0,0,3.2842,Peridotite_rect,7,3.284,0,5,0,5,0,1,,,,,,,,,,,,,
6647b9d85e49c207ba28f76f,SCR,2024-06-24_14h43.02.920,LearnStrategy,2023.2.3,MacIntel,120.4819277,1,1,7,0.084789692,-0.396428836,1,0,0,1.4648,Pumice_15,8,15,1,5,1.465,8,15,0.398020957,-0.400580384,1,0,0,1.0417,Pumice_rect,8,1.042,1,6,0,6,0,1,,,,,,,,,,,,,
6647b9d85e49c207ba28f76f,SCR,2024-06-24_14h43.02.920,LearnStrategy,2023.2.3,MacIntel,120.4819277,1,1,8,-0.383006887,-0.252726044,1,0,0,0.9235,Gabbro_10,4,10,2,2,0.924,4,10,0.076426429,-0.254656028,1,0,0,5.5535,Diorite_rect,3,5.553,0,7,0,7,0,1,,,,,,,,,,,,,
6647b9d85e49c207ba28f76f,SCR,2024-06-24_14h43.02.920,LearnStrategy,2023.2.3,MacIntel,120.4819277,1,1,9,-0.103969194,0.417255998,1,0,0,1.4655,Andesite_05,1,05,6,4,1.465,1,05,-0.324343713,-0.251337567,1,0,0,4.1118,Andesite_rect,1,4.112,1,8,0,8,0,1,,,,,,,,,,,,,
6647b9d85e49c207ba28f76f,SCR,2024-06-24_14h43.02.920,LearnStrategy,2023.2.3,MacIntel,120.4819277,1,1,10,-0.213057242,0.077032731,1,0,0,0.9979,Gabbro_15,4,15,4,3,0.998,4,15,-0.166228525,-0.383067054,1,0,0,2.2137,Pegmatite_rect,6,2.214,0,9,0,9,0,1,,,,,,,,,,,,,
6647b9d85e49c207ba28f76f,SCR,2024-06-24_14h43.02.920,LearnStrategy,2023.2.3,MacIntel,120.4819277,1,1,11,-0.355029065,0.372111967,1,0,0,1.3813,Pegmatite_11,6,11,6,2,1.381,6,11,0.11112911,-0.251652288,1,0,0,6.0115,Diorite_rect,3,6.011,0,10,0,10,0,1,,,,,,,,,,,,,
6647b9d85e49c207ba28f76f,SCR,2024-06-24_14h43.02.920,LearnStrategy,2023.2.3,MacIntel,120.4819277,1,1,12,-0.258543765,-0.387001074,1,0,0,0.9984,Peridotite_06,7,06,1,3,0.998,7,06,0.043727784,-0.393874037,1,0,0,2.9231,Peridotite_rect,7,2.923,1,11,0,11,0,1,,,,,,,,,,,,,
6647b9d85e49c207ba28f76f,SCR,2024-06-24_14h43.02.920,LearnStrategy,2023.2.3,MacIntel,120.4819277,1,1,13,0.232079384,0.425785878,1,0,0,1.9319,Peridotite_08,7,08,6,6,1.932,7,08,0.097073089,-0.411609523,1,0,0,4.2771,Peridotite_rect,7,4.277,1,12,0,12,0,1,,,,,,,,,,,,,
6647b9d85e49c207ba28f76f,SCR,2024-06-24_14h43.02.920,LearnStrategy,2023.2.3,MacIntel,120.4819277,1,1,14,-0.230292876,-0.126106154,1,0,0,0.8481,Andesite_10,1,10,3,3,0.848,1,10,0.310486708,-0.242446682,1,0,0,7.4952,Gabbro_rect,4,7.495,0,13,0,13,0,1,,,,,,,,,,,,,
6647b9d85e49c207ba28f76f,SCR,2024-06-24_14h43.02.920,LearnStrategy,2023.2.3,MacIntel,120.4819277,1,1,15,-0.381067647,0.101520846,1,0,0,0.9729,Pegmatite_05,6,05,4,2,0.973,6,05,0.061560464,-0.241493261,1,0,0,6.4118,Diorite_rect,3,6.412,0,14,0,14,0,1,,,,,,,,,,,,,
6647b9d85e49c207ba28f76f,SCR,2024-06-24_14h43.02.920,LearnStrategy,2023.2.3,MacIntel,120.4819277,1,1,16,0.362934131,-0.052919505,1,0,0,1.1229,Pumice_05,8,05,3,7,1.123,8,05,0.425498926,-0.3912637,1,0,0,0.8864,Pumice_rect,8,0.886,1,15,0,15,0,1,,,,,,,,,,,,,
6647b9d85e49c207ba28f76f,SCR,2024-06-24_14h43.02.920,LearnStrategy,2023.2.3,MacIntel,120.4819277,1,2,1,,,,,,,,2,12,,,,,,,,,,,,,4,4.867,0,,,,,,0.346230746,-0.243289025,1,0,0,4.8668,Gabbro_rect,0,0,0,0,1,
6647b9d85e49c207ba28f76f,SCR,2024-06-24_14h43.02.920,LearnStrategy,2023.2.3,MacIntel,120.4819277,1,2,2,,,,,,,,8,06,,,,,,,,,,,,,8,4.04,1,,,,,,0.3792256,-0.390393587,1,0,0,4.0401,Pumice_rect,1,0,1,0,1,
6647b9d85e49c207ba28f76f,SCR,2024-06-24_14h43.02.920,LearnStrategy,2023.2.3,MacIntel,120.4819277,1,2,3,,,,,,,,5,11,,,,,,,,,,,,,5,1.89,1,,,,,,-0.386408657,-0.398340307,1,0,0,1.89,Obsidian_rect,2,0,2,0,1,
6647b9d85e49c207ba28f76f,SCR,2024-06-24_14h43.02.920,LearnStrategy,2023.2.3,MacIntel,120.4819277,1,2,4,,,,,,,,7,02,,,,,,,,,,,,,3,6.442,0,,,,,,0.07400585,-0.267490188,1,0,0,6.4422,Diorite_rect,3,0,3,0,1,
6647b9d85e49c207ba28f76f,SCR,2024-06-24_14h43.02.920,LearnStrategy,2023.2.3,MacIntel,120.4819277,1,2,5,,,,,,,,6,08,,,,,,,,,,,,,7,4.215,0,,,,,,0.051855006,-0.400682205,1,0,0,4.215,Peridotite_rect,4,0,4,0,1,
6647b9d85e49c207ba28f76f,SCR,2024-06-24_14h43.02.920,LearnStrategy,2023.2.3,MacIntel,120.4819277,1,2,6,,,,,,,,4,08,,,,,,,,,,,,,2,4.396,0,,,,,,-0.087432427,-0.260348786,1,0,0,4.3958,Basalt_rect,5,0,5,0,1,
6647b9d85e49c207ba28f76f,SCR,2024-06-24_14h43.02.920,LearnStrategy,2023.2.3,MacIntel,120.4819277,1,2,7,,,,,,,,3,10,,,,,,,,,,,,,1,2.675,0,,,,,,-0.321210382,-0.250453569,1,0,0,2.6748,Andesite_rect,6,0,6,0,1,
6647b9d85e49c207ba28f76f,SCR,2024-06-24_14h43.02.920,LearnStrategy,2023.2.3,MacIntel,120.4819277,1,2,8,,,,,,,,3,08,,,,,,,,,,,,,6,4.02,0,,,,,,-0.05476618,-0.400682205,1,0,0,4.0197,Pegmatite_rect,7,0,7,0,1,
6647b9d85e49c207ba28f76f,SCR,2024-06-24_14h43.02.920,LearnStrategy,2023.2.3,MacIntel,120.4819277,1,2,9,,,,,,,,8,14,,,,,,,,,,,,,8,1.191,1,,,,,,0.370468935,-0.407420949,1,0,0,1.1908,Pumice_rect,8,0,8,0,1,
6647b9d85e49c207ba28f76f,SCR,2024-06-24_14h43.02.920,LearnStrategy,2023.2.3,MacIntel,120.4819277,1,2,10,,,,,,,,1,02,,,,,,,,,,,,,2,7.704,0,,,,,,-0.084558279,-0.238151659,1,0,0,7.7038,Basalt_rect,9,0,9,0,1,
6647b9d85e49c207ba28f76f,SCR,2024-06-24_14h43.02.920,LearnStrategy,2023.2.3,MacIntel,120.4819277,1,2,11,,,,,,,,4,14,,,,,,,,,,,,,4,2.724,1,,,,,,0.308797393,-0.238952347,1,0,0,2.7236,Gabbro_rect,10,0,10,0,1,
6647b9d85e49c207ba28f76f,SCR,2024-06-24_14h43.02.920,LearnStrategy,2023.2.3,MacIntel,120.4819277,1,2,12,,,,,,,,6,03,,,,,,,,,,,,,7,4.202,0,,,,,,0.092666988,-0.411387367,1,0,0,4.2025,Peridotite_rect,11,0,11,0,1,
6647b9d85e49c207ba28f76f,SCR,2024-06-24_14h43.02.920,LearnStrategy,2023.2.3,MacIntel,120.4819277,1,2,13,,,,,,,,5,04,,,,,,,,,,,,,5,1.138,1,,,,,,-0.341662656,-0.386154102,1,0,0,1.1376,Obsidian_rect,12,0,12,0,1,
6647b9d85e49c207ba28f76f,SCR,2024-06-24_14h43.02.920,LearnStrategy,2023.2.3,MacIntel,120.4819277,1,2,14,,,,,,,,2,06,,,,,,,,,,,,,4,6.312,0,,,,,,0.299989818,-0.250411915,1,0,0,6.3122,Gabbro_rect,13,0,13,0,1,
6647b9d85e49c207ba28f76f,SCR,2024-06-24_14h43.02.920,LearnStrategy,2023.2.3,MacIntel,120.4819277,1,2,15,,,,,,,,7,07,,,,,,,,,,,,,3,2.966,0,,,,,,0.112582383,-0.258659471,1,0,0,2.9663,Diorite_rect,14,0,14,0,1,
6647b9d85e49c207ba28f76f,SCR,2024-06-24_14h43.02.920,LearnStrategy,2023.2.3,MacIntel,120.4819277,1,2,16,,,,,,,,1,11,,,,,,,,,,,,,2,4.411,0,,,,,,-0.196821312,-0.244640477,1,0,0,4.4114,Basalt_rect,15,0,15,0,1,
6647b9d85e49c207ba28f76f,SCR,2024-06-24_14h43.02.920,LearnStrategy,2023.2.3,MacIntel,120.4819277,2,1,1,-0.37019124,-0.075884923,1,0,0,1.6217,Andesite_14,1,14,3,2,1.622,1,14,-0.166510849,-0.237258405,1,0,0,3.311,Basalt_rect,2,3.311,0,0,0,0,0,1,,,,,,,,,,,,,
6647b9d85e49c207ba28f76f,SCR,2024-06-24_14h43.02.920,LearnStrategy,2023.2.3,MacIntel,120.4819277,2,1,2,-0.561185575,-0.25680354,1,0,0,1.0319,Peridotite_13,7,13,2,1,1.032,7,13,0.095462456,-0.395197719,1,0,0,3.5112,Peridotite_rect,7,3.511,1,1,0,1,0,1,,,,,,,,,,,,,
6647b9d85e49c207ba28f76f,SCR,2024-06-24_14h43.02.920,LearnStrategy,2023.2.3,MacIntel,120.4819277,2,1,3,0.529347786,-0.381312944,1,0,0,1.3228,Gabbro_05,4,05,1,8,1.323,4,05,0.395253258,-0.234217639,1,0,0,4.4134,Gabbro_rect,4,4.413,1,2,0,2,0,1,,,,,,,,,,,,,
6647b9d85e49c207ba28f76f,SCR,2024-06-24_14h43.02.920,LearnStrategy,2023.2.3,MacIntel,120.4819277,2,1,4,0.36553984,-0.2571738,1,0,0,1.1958,Gabbro_13,4,13,2,7,1.196,4,13,-0.111865003,-0.400936759,1,0,0,3.8954,Pegmatite_rect,6,3.895,0,3,0,3,0,1,,,,,,,,,,,,,
6647b9d85e49c207ba28f76f,SCR,2024-06-24_14h43.02.920,LearnStrategy,2023.2.3,MacIntel,120.4819277,2,1,5,-0.053100007,0.08460919,1,0,0,0.6728,Peridotite_12,7,12,4,4,0.673,7,12,0.093134442,-0.234967417,1,0,0,1.6198,Diorite_rect,3,1.62,0,4,0,4,0,1,,,,,,,,,,,,,
6647b9d85e49c207ba28f76f,SCR,2024-06-24_14h43.02.920,LearnStrategy,2023.2.3,MacIntel,120.4819277,2,1,6,0.235046097,0.234712863,1,0,0,1.181,Basalt_10,2,10,5,6,1.181,2,10,-0.217690129,-0.266823719,1,0,0,4.1196,Basalt_rect,2,4.12,1,5,0,5,0,1,,,,,,,,,,,,,
6647b9d85e49c207ba28f76f,SCR,2024-06-24_14h43.02.920,LearnStrategy,2023.2.3,MacIntel,120.4819277,2,1,7,0.410063685,0.093254776,1,0,0,1.263,Pegmatite_12,6,12,4,7,1.263,6,12,-0.135126629,-0.409994261,1,0,0,6.2411,Pegmatite_rect,6,6.241,1,6,0,6,0,1,,,,,,,,,,,,,
6647b9d85e49c207ba28f76f,SCR,2024-06-24_14h43.02.920,LearnStrategy,2023.2.3,MacIntel,120.4819277,2,1,8,-0.235601488,0.216468269,1,0,0,1.165,Diorite_11,3,11,5,3,1.165,3,11,0.051350526,-0.238225711,1,0,0,5.4536,Diorite_rect,3,5.454,1,7,0,7,0,1,,,,,,,,,,,,,
6647b9d85e49c207ba28f76f,SCR,2024-06-24_14h43.02.920,LearnStrategy,2023.2.3,MacIntel,120.4819277,2,1,9,-0.080179947,0.390310278,1,0,0,1.2976,Andesite_05,1,05,6,4,1.298,1,05,-0.312064944,-0.250856228,1,0,0,4.2868,Andesite_rect,1,4.287,1,8,0,8,0,1,,,,,,,,,,,,,
6647b9d85e49c207ba28f76f,SCR,2024-06-24_14h43.02.920,LearnStrategy,2023.2.3,MacIntel,120.4819277,2,1,10,0.046759294,0.233838122,1,0,0,0.9799,Basalt_16,2,16,5,5,0.98,2,16,0.378207383,-0.238022068,1,0,0,3.9865,Gabbro_rect,4,3.987,0,9,0,9,0,1,,,,,,,,,,,,,
6647b9d85e49c207ba28f76f,SCR,2024-06-24_14h43.02.920,LearnStrategy,2023.2.3,MacIntel,120.4819277,2,1,11,-0.221253888,0.280004999,1,0,0,0.9399,Diorite_11,3,11,5,3,0.94,3,11,0.099290025,-0.263343269,1,0,0,6.1704,Diorite_rect,3,6.17,1,10,0,10,0,1,,,,,,,,,,,,,
6647b9d85e49c207ba28f76f,SCR,2024-06-24_14h43.02.920,LearnStrategy,2023.2.3,MacIntel,120.4819277,2,1,12,-0.077541839,0.243265884,1,0,0,1.348,Basalt_05,2,05,5,4,1.348,2,05,-0.152464085,-0.23788322,1,0,0,1.2884,Basalt_rect,2,1.288,1,11,0,11,0,1,,,,,,,,,,,,,
6647b9d85e49c207ba28f76f,SCR,2024-06-24_14h43.02.920,LearnStrategy,2023.2.3,MacIntel,120.4819277,2,1,13,-0.205369705,-0.095541136,1,0,0,0.6811,Andesite_10,1,10,3,3,0.681,1,10,-0.347753443,-0.237151955,1,0,0,1.6342,Andesite_rect,1,1.634,1,12,0,12,0,1,,,,,,,,,,,,,
6647b9d85e49c207ba28f76f,SCR,2024-06-24_14h43.02.920,LearnStrategy,2023.2.3,MacIntel,120.4819277,2,1,14,0.53114355,0.222295246,1,0,0,1.4059,Pegmatite_16,6,16,5,8,1.406,6,16,-0.054830976,-0.395581865,1,0,0,2.4702,Pegmatite_rect,6,2.47,1,13,0,13,0,1,,,,,,,,,,,,,
6647b9d85e49c207ba28f76f,SCR,2024-06-24_14h43.02.920,LearnStrategy,2023.2.3,MacIntel,120.4819277,2,1,15,-0.248787396,-0.436018957,1,0,0,0.7971,Peridotite_06,7,06,1,3,0.797,7,06,0.127804725,-0.236601192,1,0,0,1.1532,Diorite_rect,3,1.153,0,14,0,14,0,1,,,,,,,,,,,,,
6647b9d85e49c207ba28f76f,SCR,2024-06-24_14h43.02.920,LearnStrategy,2023.2.3,MacIntel,120.4819277,2,1,16,-0.072612744,-0.073242188,1,0,0,1.6401,Diorite_16,3,16,3,4,1.64,3,16,-0.355112374,-0.249153029,1,0,0,5.37,Andesite_rect,1,5.37,0,15,0,15,0,1,,,,,,,,,,,,,
6647b9d85e49c207ba28f76f,SCR,2024-06-24_14h43.02.920,LearnStrategy,2023.2.3,MacIntel,120.4819277,2,2,1,,,,,,,,2,04,,,,,,,,,,,,,2,2.612,1,,,,,,-0.090357487,-0.23208864,1,0,0,2.6123,Basalt_rect,0,0,0,0,1,
6647b9d85e49c207ba28f76f,SCR,2024-06-24_14h43.02.920,LearnStrategy,2023.2.3,MacIntel,120.4819277,2,2,2,,,,,,,,6,13,,,,,,,,,,,,,6,3.101,1,,,,,,-0.090288063,-0.406911841,1,0,0,3.1006,Pegmatite_rect,1,0,1,0,1,
6647b9d85e49c207ba28f76f,SCR,2024-06-24_14h43.02.920,LearnStrategy,2023.2.3,MacIntel,120.4819277,2,2,3,,,,,,,,4,16,,,,,,,,,,,,,2,4.175,0,,,,,,-0.086136515,-0.244274844,1,0,0,4.1752,Basalt_rect,2,0,2,0,1,
6647b9d85e49c207ba28f76f,SCR,2024-06-24_14h43.02.920,LearnStrategy,2023.2.3,MacIntel,120.4819277,2,2,4,,,,,,,,2,14,,,,,,,,,,,,,8,2.276,0,,,,,,0.332781028,-0.394086937,1,0,0,2.2758,Pumice_rect,3,0,3,0,1,
6647b9d85e49c207ba28f76f,SCR,2024-06-24_14h43.02.920,LearnStrategy,2023.2.3,MacIntel,120.4819277,2,2,5,,,,,,,,4,11,,,,,,,,,,,,,4,5.417,1,,,,,,0.363734819,-0.229020105,1,0,0,5.417,Gabbro_rect,4,0,4,0,1,
6647b9d85e49c207ba28f76f,SCR,2024-06-24_14h43.02.920,LearnStrategy,2023.2.3,MacIntel,120.4819277,2,2,6,,,,,,,,8,09,,,,,,,,,,,,,8,1.474,1,,,,,,0.385955087,-0.398682798,1,0,0,1.4739,Pumice_rect,5,0,5,0,1,
6647b9d85e49c207ba28f76f,SCR,2024-06-24_14h43.02.920,LearnStrategy,2023.2.3,MacIntel,120.4819277,2,2,7,,,,,,,,5,08,,,,,,,,,,,,,5,1.053,1,,,,,,-0.40005739,-0.387713826,1,0,0,1.0534,Obsidian_rect,6,0,6,0,1,
6647b9d85e49c207ba28f76f,SCR,2024-06-24_14h43.02.920,LearnStrategy,2023.2.3,MacIntel,120.4819277,2,2,8,,,,,,,,1,07,,,,,,,,,,,,,1,3.919,1,,,,,,-0.355649252,-0.266666358,1,0,0,3.9188,Andesite_rect,7,0,7,0,1,
6647b9d85e49c207ba28f76f,SCR,2024-06-24_14h43.02.920,LearnStrategy,2023.2.3,MacIntel,120.4819277,2,2,9,,,,,,,,7,15,,,,,,,,,,,,,3,3.436,0,,,,,,0.090422282,-0.251763366,1,0,0,3.4359,Diorite_rect,8,0,8,0,1,
6647b9d85e49c207ba28f76f,SCR,2024-06-24_14h43.02.920,LearnStrategy,2023.2.3,MacIntel,120.4819277,2,2,10,,,,,,,,5,05,,,,,,,,,,,,,5,1.641,1,,,,,,-0.358500259,-0.396688018,1,0,0,1.6413,Obsidian_rect,9,0,9,0,1,
6647b9d85e49c207ba28f76f,SCR,2024-06-24_14h43.02.920,LearnStrategy,2023.2.3,MacIntel,120.4819277,2,2,11,,,,,,,,6,09,,,,,,,,,,,,,6,4.194,1,,,,,,-0.106024141,-0.388144254,1,0,0,4.1945,Pegmatite_rect,10,0,10,0,1,
6647b9d85e49c207ba28f76f,SCR,2024-06-24_14h43.02.920,LearnStrategy,2023.2.3,MacIntel,120.4819277,2,2,12,,,,,,,,3,12,,,,,,,,,,,,,1,2.671,0,,,,,,-0.321048393,-0.239280954,1,0,0,2.6708,Andesite_rect,11,0,11,0,1,
6647b9d85e49c207ba28f76f,SCR,2024-06-24_14h43.02.920,LearnStrategy,2023.2.3,MacIntel,120.4819277,2,2,13,,,,,,,,3,15,,,,,,,,,,,,,1,3.769,0,,,,,,-0.335456161,-0.246241854,1,0,0,3.7692,Andesite_rect,12,0,12,0,1,
6647b9d85e49c207ba28f76f,SCR,2024-06-24_14h43.02.920,LearnStrategy,2023.2.3,MacIntel,120.4819277,2,2,14,,,,,,,,1,01,,,,,,,,,,,,,4,8.011,0,,,,,,0.33210993,-0.231625815,1,0,0,8.0112,Gabbro_rect,13,0,13,0,1,
6647b9d85e49c207ba28f76f,SCR,2024-06-24_14h43.02.920,LearnStrategy,2023.2.3,MacIntel,120.4819277,2,2,15,,,,,,,,7,16,,,,,,,,,,,,,3,1.37,0,,,,,,0.057427429,-0.241011922,1,0,0,1.37,Diorite_rect,14,0,14,0,1,
6647b9d85e49c207ba28f76f,SCR,2024-06-24_14h43.02.920,LearnStrategy,2023.2.3,MacIntel,120.4819277,2,2,16,,,,,,,,8,10,,,,,,,,,,,,,8,2.666,1,,,,,,0.397895994,-0.418061315,1,0,0,2.6662,Pumice_rect,15,0,15,0,1,
6647b9d85e49c207ba28f76f,SCR,2024-06-24_14h43.02.920,LearnStrategy,2023.2.3,MacIntel,120.4819277,3,1,1,0.212631443,0.409156546,1,0,0,1.3731,Peridotite_08,7,08,6,6,1.373,7,08,0.13807483,-0.238322904,1,0,0,1.7324,Diorite_rect,3,1.732,0,0,0,0,0,1,,,,,,,,,,,,,
6647b9d85e49c207ba28f76f,SCR,2024-06-24_14h43.02.920,LearnStrategy,2023.2.3,MacIntel,120.4819277,3,1,2,0.052850081,0.24311778,1,0,0,1.04,Basalt_16,2,16,5,5,1.04,2,16,-0.103099082,-0.246260367,1,0,0,3.4863,Basalt_rect,2,3.486,1,1,0,1,0,1,,,,,,,,,,,,,
6647b9d85e49c207ba28f76f,SCR,2024-06-24_14h43.02.920,LearnStrategy,2023.2.3,MacIntel,120.4819277,3,1,3,0.231537878,0.207364485,1,0,0,1.0558,Basalt_10,2,10,5,6,1.056,2,10,-0.166177614,-0.253702607,1,0,0,1.0199,Basalt_rect,2,1.02,1,2,0,2,0,1,,,,,,,,,,,,,
6647b9d85e49c207ba28f76f,SCR,2024-06-24_14h43.02.920,LearnStrategy,2023.2.3,MacIntel,120.4819277,3,1,4,-0.226090418,-0.103904399,1,0,0,0.8488,Andesite_10,1,10,3,3,0.849,1,10,-0.354390366,-0.250712752,1,0,0,3.3699,Andesite_rect,1,3.37,1,3,0,3,0,1,,,,,,,,,,,,,
6647b9d85e49c207ba28f76f,SCR,2024-06-24_14h43.02.920,LearnStrategy,2023.2.3,MacIntel,120.4819277,3,1,5,0.354367225,-0.211668765,1,0,0,1.1804,Gabbro_13,4,13,2,7,1.18,4,13,0.386852969,-0.249652881,1,0,0,5.1456,Gabbro_rect,4,5.146,1,4,0,4,0,1,,,,,,,,,,,,,
6647b9d85e49c207ba28f76f,SCR,2024-06-24_14h43.02.920,LearnStrategy,2023.2.3,MacIntel,120.4819277,3,1,6,0.067817869,0.428530435,1,0,0,1.0799,Basalt_08,2,08,6,5,1.08,2,08,-0.11099489,-0.23570331,1,0,0,1.0033,Basalt_rect,2,1.003,1,5,0,5,0,1,,,,,,,,,,,,,
6647b9d85e49c207ba28f76f,SCR,2024-06-24_14h43.02.920,LearnStrategy,2023.2.3,MacIntel,120.4819277,3,1,7,0.055932501,0.095258812,1,0,0,0.7831,Peridotite_14,7,14,4,5,0.783,7,14,-0.363808871,-0.243182576,1,0,0,4.4343,Andesite_rect,1,4.434,0,6,0,6,0,1,,,,,,,,,,,,,
6647b9d85e49c207ba28f76f,SCR,2024-06-24_14h43.02.920,LearnStrategy,2023.2.3,MacIntel,120.4819277,3,1,8,0.546685241,0.406078754,1,0,0,1.1491,Andesite_04,1,04,6,8,1.149,1,04,-0.333419727,-0.247121223,1,0,0,1.4279,Andesite_rect,1,1.428,1,7,0,7,0,1,,,,,,,,,,,,,
6647b9d85e49c207ba28f76f,SCR,2024-06-24_14h43.02.920,LearnStrategy,2023.2.3,MacIntel,120.4819277,3,1,9,0.54575959,-0.124416839,1,0,0,1.0554,Diorite_02,3,02,3,8,1.055,3,02,-0.069664544,-0.405810315,1,0,0,2.9372,Pegmatite_rect,6,2.937,0,8,0,8,0,1,,,,,,,,,,,,,
6647b9d85e49c207ba28f76f,SCR,2024-06-24_14h43.02.920,LearnStrategy,2023.2.3,MacIntel,120.4819277,3,1,10,-0.52665414,-0.372056428,1,0,0,1.247,Pegmatite_10,6,10,1,1,1.247,6,10,0.120158842,-0.388241447,1,0,0,1.5911,Peridotite_rect,7,1.591,0,9,0,9,0,1,,,,,,,,,,,,,
6647b9d85e49c207ba28f76f,SCR,2024-06-24_14h43.02.920,LearnStrategy,2023.2.3,MacIntel,120.4819277,3,1,11,0.251791136,-0.381835938,1,0,0,1.0902,Pumice_03,8,03,1,6,1.09,8,03,0.392235634,-0.408078162,1,0,0,1.0881,Pumice_rect,8,1.088,1,10,0,10,0,1,,,,,,,,,,,,,
6647b9d85e49c207ba28f76f,SCR,2024-06-24_14h43.02.920,LearnStrategy,2023.2.3,MacIntel,120.4819277,3,1,12,0.366835752,0.240488929,1,0,0,1.1816,Andesite_03,1,03,5,7,1.182,1,03,-0.334498112,-0.251795764,1,0,0,3.4614,Andesite_rect,1,3.461,1,11,0,11,0,1,,,,,,,,,,,,,
6647b9d85e49c207ba28f76f,SCR,2024-06-24_14h43.02.920,LearnStrategy,2023.2.3,MacIntel,120.4819277,3,1,13,0.591176688,-0.115077014,1,0,0,1.1152,Diorite_02,3,02,3,8,1.115,3,02,0.060074793,-0.247709012,1,0,0,1.9116,Diorite_rect,3,1.912,1,12,0,12,0,1,,,,,,,,,,,,,
6647b9d85e49c207ba28f76f,SCR,2024-06-24_14h43.02.920,LearnStrategy,2023.2.3,MacIntel,120.4819277,3,1,14,0.381044505,-0.234990558,1,0,0,1.115,Gabbro_13,4,13,2,7,1.115,4,13,0.408101303,-0.247005517,1,0,0,1.77,Gabbro_rect,4,1.77,1,13,0,13,0,1,,,,,,,,,,,,,
6647b9d85e49c207ba28f76f,SCR,2024-06-24_14h43.02.920,LearnStrategy,2023.2.3,MacIntel,120.4819277,3,1,15,-0.550253629,0.241720046,1,0,0,0.8621,Diorite_14,3,14,5,1,0.862,3,14,-0.368710197,-0.240299171,1,0,0,2.1951,Andesite_rect,1,2.195,0,14,0,14,0,1,,,,,,,,,,,,,
6647b9d85e49c207ba28f76f,SCR,2024-06-24_14h43.02.920,LearnStrategy,2023.2.3,MacIntel,120.4819277,3,1,16,-0.128466565,0.1448506,1,0,0,0.6302,Peridotite_12,7,12,4,4,0.63,7,12,0.06433279,-0.402093824,1,0,0,2.7374,Peridotite_rect,7,2.737,1,15,0,15,0,1,,,,,,,,,,,,,
6647b9d85e49c207ba28f76f,SCR,2024-06-24_14h43.02.920,LearnStrategy,2023.2.3,MacIntel,120.4819277,3,2,1,,,,,,,,5,02,,,,,,,,,,,,,5,1.296,1,,,,,,-0.350382294,-0.393295505,1,0,0,1.2963,Obsidian_rect,0,0,0,0,1,
6647b9d85e49c207ba28f76f,SCR,2024-06-24_14h43.02.920,LearnStrategy,2023.2.3,MacIntel,120.4819277,3,2,2,,,,,,,,6,06,,,,,,,,,,,,,7,6.461,0,,,,,,0.056279621,-0.388320127,1,0,0,6.4606,Peridotite_rect,1,0,1,0,1,
6647b9d85e49c207ba28f76f,SCR,2024-06-24_14h43.02.920,LearnStrategy,2023.2.3,MacIntel,120.4819277,3,2,3,,,,,,,,2,01,,,,,,,,,,,,,2,0.951,1,,,,,,-0.13432594,-0.258904769,1,0,0,0.9506,Basalt_rect,2,0,2,0,1,
6647b9d85e49c207ba28f76f,SCR,2024-06-24_14h43.02.920,LearnStrategy,2023.2.3,MacIntel,120.4819277,3,2,4,,,,,,,,1,09,,,,,,,,,,,,,1,1.538,1,,,,,,-0.34999352,-0.255618706,1,0,0,1.5378,Andesite_rect,3,0,3,0,1,
6647b9d85e49c207ba28f76f,SCR,2024-06-24_14h43.02.920,LearnStrategy,2023.2.3,MacIntel,120.4819277,3,2,5,,,,,,,,4,09,,,,,,,,,,,,,4,4.42,1,,,,,,0.33686778,-0.257780102,1,0,0,4.4202,Gabbro_rect,4,0,4,0,1,
6647b9d85e49c207ba28f76f,SCR,2024-06-24_14h43.02.920,LearnStrategy,2023.2.3,MacIntel,120.4819277,3,2,6,,,,,,,,8,08,,,,,,,,,,,,,8,1.466,1,,,,,,0.377795468,-0.397474822,1,0,0,1.4664,Pumice_rect,5,0,5,0,1,
6647b9d85e49c207ba28f76f,SCR,2024-06-24_14h43.02.920,LearnStrategy,2023.2.3,MacIntel,120.4819277,3,2,7,,,,,,,,1,16,,,,,,,,,,,,,1,2.276,1,,,,,,-0.425114781,-0.233528029,1,0,0,2.2758,Andesite_rect,6,0,6,0,1,
6647b9d85e49c207ba28f76f,SCR,2024-06-24_14h43.02.920,LearnStrategy,2023.2.3,MacIntel,120.4819277,3,2,8,,,,,,,,4,03,,,,,,,,,,,,,3,7.217,0,,,,,,0.092921542,-0.252133627,1,0,0,7.2171,Diorite_rect,7,0,7,0,1,
6647b9d85e49c207ba28f76f,SCR,2024-06-24_14h43.02.920,LearnStrategy,2023.2.3,MacIntel,120.4819277,3,2,9,,,,,,,,7,05,,,,,,,,,,,,,7,4.933,1,,,,,,0.071330717,-0.39793302,1,0,0,4.9333,Peridotite_rect,8,0,8,0,1,
6647b9d85e49c207ba28f76f,SCR,2024-06-24_14h43.02.920,LearnStrategy,2023.2.3,MacIntel,120.4819277,3,2,10,,,,,,,,7,04,,,,,,,,,,,,,1,4.575,0,,,,,,-0.362596268,-0.230112374,1,0,0,4.575,Andesite_rect,9,0,9,0,1,
6647b9d85e49c207ba28f76f,SCR,2024-06-24_14h43.02.920,LearnStrategy,2023.2.3,MacIntel,120.4819277,3,2,11,,,,,,,,5,10,,,,,,,,,,,,,5,2.958,1,,,,,,-0.381701718,-0.400598897,1,0,0,2.9581,Obsidian_rect,10,0,10,0,1,
6647b9d85e49c207ba28f76f,SCR,2024-06-24_14h43.02.920,LearnStrategy,2023.2.3,MacIntel,120.4819277,3,2,12,,,,,,,,8,04,,,,,,,,,,,,,8,1.541,1,,,,,,0.328833124,-0.382946719,1,0,0,1.5407,Pumice_rect,11,0,11,0,1,
6647b9d85e49c207ba28f76f,SCR,2024-06-24_14h43.02.920,LearnStrategy,2023.2.3,MacIntel,120.4819277,3,2,13,,,,,,,,6,07,,,,,,,,,,,,,6,5.038,1,,,,,,-0.111230932,-0.38735745,1,0,0,5.0384,Pegmatite_rect,12,0,12,0,1,
6647b9d85e49c207ba28f76f,SCR,2024-06-24_14h43.02.920,LearnStrategy,2023.2.3,MacIntel,120.4819277,3,2,14,,,,,,,,3,06,,,,,,,,,,,,,3,5.425,1,,,,,,0.139657694,-0.264338344,1,0,0,5.4249,Diorite_rect,13,0,13,0,1,
6647b9d85e49c207ba28f76f,SCR,2024-06-24_14h43.02.920,LearnStrategy,2023.2.3,MacIntel,120.4819277,3,2,15,,,,,,,,3,07,,,,,,,,,,,,,1,2.482,0,,,,,,-0.332401511,-0.243969379,1,0,0,2.4821,Andesite_rect,14,0,14,0,1,
6647b9d85e49c207ba28f76f,SCR,2024-06-24_14h43.02.920,LearnStrategy,2023.2.3,MacIntel,120.4819277,3,2,16,,,,,,,,2,09,,,,,,,,,,,,,2,1.037,1,,,,,,-0.132631998,-0.259191721,1,0,0,1.0371,Basalt_rect,15,0,15,0,1,
6647b9d85e49c207ba28f76f,SCR,2024-06-24_14h43.02.920,LearnStrategy,2023.2.3,MacIntel,120.4819277,4,1,1,0.544820053,0.244251703,1,0,0,1.2803,Pegmatite_16,6,16,5,8,1.28,6,16,-0.11073108,-0.408365114,1,0,0,1.8197,Pegmatite_rect,6,1.82,1,0,0,0,0,1,,,,,,,,,,,,,
6647b9d85e49c207ba28f76f,SCR,2024-06-24_14h43.02.920,LearnStrategy,2023.2.3,MacIntel,120.4819277,4,1,2,-0.090315832,0.249662137,1,0,0,1.215,Basalt_05,2,05,5,4,1.215,2,05,-0.16023493,-0.239632701,1,0,0,0.7449,Basalt_rect,2,0.745,1,1,0,1,0,1,,,,,,,,,,,,,
6647b9d85e49c207ba28f76f,SCR,2024-06-24_14h43.02.920,LearnStrategy,2023.2.3,MacIntel,120.4819277,4,1,3,0.604478303,-0.3992891,1,0,0,1.1903,Gabbro_05,4,05,1,8,1.19,4,05,0.448010775,-0.255257701,1,0,0,2.2028,Gabbro_rect,4,2.203,1,2,0,2,0,1,,,,,,,,,,,,,
6647b9d85e49c207ba28f76f,SCR,2024-06-24_14h43.02.920,LearnStrategy,2023.2.3,MacIntel,120.4819277,4,1,4,-0.253008368,-0.282087715,1,0,0,0.7894,Gabbro_01,4,01,2,3,0.789,4,01,-0.357583864,-0.258622445,1,0,0,2.5534,Andesite_rect,1,2.553,0,3,0,3,0,1,,,,,,,,,,,,,
6647b9d85e49c207ba28f76f,SCR,2024-06-24_14h43.02.920,LearnStrategy,2023.2.3,MacIntel,120.4819277,4,1,5,-0.205957494,-0.086210567,1,0,0,0.6807,Andesite_10,1,10,3,3,0.681,1,10,-0.362188981,-0.249958346,1,0,0,2.1869,Andesite_rect,1,2.187,1,4,0,4,0,1,,,,,,,,,,,,,
6647b9d85e49c207ba28f76f,SCR,2024-06-24_14h43.02.920,LearnStrategy,2023.2.3,MacIntel,120.4819277,4,1,6,0.2459873,-0.262315795,1,0,0,0.8734,Pumice_16,8,16,2,6,0.873,8,16,0.35754221,-0.386468824,1,0,0,1.0839,Pumice_rect,8,1.084,1,5,0,5,0,1,,,,,,,,,,,,,
6647b9d85e49c207ba28f76f,SCR,2024-06-24_14h43.02.920,LearnStrategy,2023.2.3,MacIntel,120.4819277,4,1,7,-0.061764107,-0.08981598,1,0,0,0.6231,Diorite_16,3,16,3,4,0.623,3,16,0.110050726,-0.242363374,1,0,0,2.6284,Diorite_rect,3,2.628,1,6,0,6,0,1,,,,,,,,,,,,,
6647b9d85e49c207ba28f76f,SCR,2024-06-24_14h43.02.920,LearnStrategy,2023.2.3,MacIntel,120.4819277,4,1,8,0.065813833,0.083479895,1,0,0,0.6741,Peridotite_14,7,14,4,5,0.674,7,14,0.137227858,-0.246584345,1,0,0,1.721,Diorite_rect,3,1.721,0,7,0,7,0,1,,,,,,,,,,,,,
6647b9d85e49c207ba28f76f,SCR,2024-06-24_14h43.02.920,LearnStrategy,2023.2.3,MacIntel,120.4819277,4,1,9,-0.535239559,0.081142624,1,0,0,1.1056,Peridotite_10,7,10,4,1,1.106,7,10,0.083105006,-0.259427762,1,0,0,3.8616,Diorite_rect,3,3.862,0,8,0,8,0,1,,,,,,,,,,,,,
6647b9d85e49c207ba28f76f,SCR,2024-06-24_14h43.02.920,LearnStrategy,2023.2.3,MacIntel,120.4819277,4,1,10,-0.066045246,-0.215764773,1,0,0,1.4911,Basalt_02,2,02,2,4,1.491,2,02,-0.107866188,-0.243585234,1,0,0,1.0111,Basalt_rect,2,1.011,1,9,0,9,0,1,,,,,,,,,,,,,
6647b9d85e49c207ba28f76f,SCR,2024-06-24_14h43.02.920,LearnStrategy,2023.2.3,MacIntel,120.4819277,4,1,11,-0.394142476,-0.110508923,1,0,0,0.749,Andesite_14,1,14,3,2,0.749,1,14,-0.367516106,-0.243057613,1,0,0,1.8022,Andesite_rect,1,1.802,1,10,0,10,0,1,,,,,,,,,,,,,
6647b9d85e49c207ba28f76f,SCR,2024-06-24_14h43.02.920,LearnStrategy,2023.2.3,MacIntel,120.4819277,4,1,12,-0.070030176,-0.438180354,1,0,0,0.8225,Obsidian_14,5,14,1,4,0.823,5,14,-0.362188981,-0.38608005,1,0,0,1.588,Obsidian_rect,5,1.588,1,11,0,11,0,1,,,,,,,,,,,,,
6647b9d85e49c207ba28f76f,SCR,2024-06-24_14h43.02.920,LearnStrategy,2023.2.3,MacIntel,120.4819277,4,1,13,0.210497815,0.383432687,1,0,0,1.0733,Peridotite_08,7,08,6,6,1.073,7,08,0.153732227,-0.266842232,1,0,0,2.6364,Diorite_rect,3,2.636,0,12,0,12,0,1,,,,,,,,,,,,,
6647b9d85e49c207ba28f76f,SCR,2024-06-24_14h43.02.920,LearnStrategy,2023.2.3,MacIntel,120.4819277,4,1,14,-0.418857376,-0.412993372,1,0,0,0.9962,Diorite_09,3,09,1,2,0.996,3,09,-0.384807279,-0.265833272,1,0,0,1.1697,Andesite_rect,1,1.17,0,13,0,13,0,1,,,,,,,,,,,,,
6647b9d85e49c207ba28f76f,SCR,2024-06-24_14h43.02.920,LearnStrategy,2023.2.3,MacIntel,120.4819277,4,1,15,-0.399816721,-0.374125259,1,0,0,1.0719,Diorite_09,3,09,1,2,1.072,3,09,0.107454273,-0.249190055,1,0,0,1.5535,Diorite_rect,3,1.553,1,14,0,14,0,1,,,,,,,,,,,,,
6647b9d85e49c207ba28f76f,SCR,2024-06-24_14h43.02.920,LearnStrategy,2023.2.3,MacIntel,120.4819277,4,1,16,-0.371153917,0.360957864,1,0,0,0.9804,Pegmatite_11,6,11,6,2,0.98,6,11,-0.117099563,-0.402181761,1,0,0,1.4782,Pegmatite_rect,6,1.478,1,15,0,15,0,1,,,,,,,,,,,,,
6647b9d85e49c207ba28f76f,SCR,2024-06-24_14h43.02.920,LearnStrategy,2023.2.3,MacIntel,120.4819277,4,2,1,,,,,,,,6,07,,,,,,,,,,,,,6,1.21,1,,,,,,-0.097350785,-0.393304762,1,0,0,1.2097,Pegmatite_rect,0,0,0,0,1,
6647b9d85e49c207ba28f76f,SCR,2024-06-24_14h43.02.920,LearnStrategy,2023.2.3,MacIntel,120.4819277,4,2,2,,,,,,,,2,12,,,,,,,,,,,,,2,3.068,1,,,,,,-0.145225489,-0.231125963,1,0,0,3.0685,Basalt_rect,1,0,1,0,1,
6647b9d85e49c207ba28f76f,SCR,2024-06-24_14h43.02.920,LearnStrategy,2023.2.3,MacIntel,120.4819277,4,2,3,,,,,,,,4,11,,,,,,,,,,,,,2,6.841,0,,,,,,-0.154491262,-0.232773623,1,0,0,6.841,Basalt_rect,2,0,2,0,1,
6647b9d85e49c207ba28f76f,SCR,2024-06-24_14h43.02.920,LearnStrategy,2023.2.3,MacIntel,120.4819277,4,2,4,,,,,,,,5,11,,,,,,,,,,,,,5,0.975,1,,,,,,-0.33519235,-0.411521586,1,0,0,0.9753,Obsidian_rect,3,0,3,0,1,
6647b9d85e49c207ba28f76f,SCR,2024-06-24_14h43.02.920,LearnStrategy,2023.2.3,MacIntel,120.4819277,4,2,5,,,,,,,,6,08,,,,,,,,,,,,,6,1.277,1,,,,,,-0.175873815,-0.385260849,1,0,0,1.2768,Pegmatite_rect,4,0,4,0,1,
6647b9d85e49c207ba28f76f,SCR,2024-06-24_14h43.02.920,LearnStrategy,2023.2.3,MacIntel,120.4819277,4,2,6,,,,,,,,3,12,,,,,,,,,,,,,3,4.657,1,,,,,,0.078745187,-0.245043135,1,0,0,4.6574,Diorite_rect,5,0,5,0,1,
6647b9d85e49c207ba28f76f,SCR,2024-06-24_14h43.02.920,LearnStrategy,2023.2.3,MacIntel,120.4819277,4,2,7,,,,,,,,7,16,,,,,,,,,,,,,7,5.987,1,,,,,,0.091287767,-0.397150844,1,0,0,5.987,Peridotite_rect,6,0,6,0,1,
6647b9d85e49c207ba28f76f,SCR,2024-06-24_14h43.02.920,LearnStrategy,2023.2.3,MacIntel,120.4819277,4,2,8,,,,,,,,7,07,,,,,,,,,,,,,7,5.875,1,,,,,,0.082420024,-0.38879221,1,0,0,5.8754,Peridotite_rect,7,0,7,0,1,
6647b9d85e49c207ba28f76f,SCR,2024-06-24_14h43.02.920,LearnStrategy,2023.2.3,MacIntel,120.4819277,4,2,9,,,,,,,,8,10,,,,,,,,,,,,,8,1.184,1,,,,,,0.333567832,-0.389847453,1,0,0,1.1837,Pumice_rect,8,0,8,0,1,
6647b9d85e49c207ba28f76f,SCR,2024-06-24_14h43.02.920,LearnStrategy,2023.2.3,MacIntel,120.4819277,4,2,10,,,,,,,,8,08,,,,,,,,,,,,,8,1.043,1,,,,,,0.333567832,-0.389847453,1,0,0,1.0426,Pumice_rect,9,0,9,0,1,
6647b9d85e49c207ba28f76f,SCR,2024-06-24_14h43.02.920,LearnStrategy,2023.2.3,MacIntel,120.4819277,4,2,11,,,,,,,,3,10,,,,,,,,,,,,,3,3.167,1,,,,,,0.079379258,-0.23878573,1,0,0,3.1665,Diorite_rect,10,0,10,0,1,
6647b9d85e49c207ba28f76f,SCR,2024-06-24_14h43.02.920,LearnStrategy,2023.2.3,MacIntel,120.4819277,4,2,12,,,,,,,,5,04,,,,,,,,,,,,,5,1.019,1,,,,,,-0.366243335,-0.403843306,1,0,0,1.0187,Obsidian_rect,11,0,11,0,1,
6647b9d85e49c207ba28f76f,SCR,2024-06-24_14h43.02.920,LearnStrategy,2023.2.3,MacIntel,120.4819277,4,2,13,,,,,,,,2,04,,,,,,,,,,,,,2,1.743,1,,,,,,-0.161341084,-0.248606894,1,0,0,1.7425,Basalt_rect,12,0,12,0,1,
6647b9d85e49c207ba28f76f,SCR,2024-06-24_14h43.02.920,LearnStrategy,2023.2.3,MacIntel,120.4819277,4,2,14,,,,,,,,1,02,,,,,,,,,,,,,1,4.275,1,,,,,,-0.323765181,-0.257233968,1,0,0,4.2747,Andesite_rect,13,0,13,0,1,
6647b9d85e49c207ba28f76f,SCR,2024-06-24_14h43.02.920,LearnStrategy,2023.2.3,MacIntel,120.4819277,4,2,15,,,,,,,,1,09,,,,,,,,,,,,,4,4.058,0,,,,,,0.340547245,-0.232158064,1,0,0,4.0578,Gabbro_rect,14,0,14,0,1,
6647b9d85e49c207ba28f76f,SCR,2024-06-24_14h43.02.920,LearnStrategy,2023.2.3,MacIntel,120.4819277,4,2,16,,,,,,,,4,08,,,,,,,,,,,,,1,5.276,0,,,,,,-0.424536249,-0.24290488,1,0,0,5.2756,Andesite_rect,15,0,15,0,1,
6647b9d85e49c207ba28f76f,SCR,2024-06-24_14h43.02.920,LearnStrategy,2023.2.3,MacIntel,120.4819277,5,1,1,-0.087029769,0.381613781,1,0,0,1.0324,Andesite_05,1,05,6,4,1.032,1,05,-0.314559575,-0.234749889,1,0,0,1.1518,Andesite_rect,1,1.152,1,0,0,0,0,1,,,,,,,,,,,,,
6647b9d85e49c207ba28f76f,SCR,2024-06-24_14h43.02.920,LearnStrategy,2023.2.3,MacIntel,120.4819277,5,1,2,0.202287285,-0.22802503,1,0,0,1.065,Pumice_16,8,16,2,6,1.065,8,16,0.371505665,-0.396035434,1,0,0,0.9033,Pumice_rect,8,0.903,1,1,0,1,0,1,,,,,,,,,,,,,
6647b9d85e49c207ba28f76f,SCR,2024-06-24_14h43.02.920,LearnStrategy,2023.2.3,MacIntel,120.4819277,5,1,3,-0.543528769,-0.443391773,1,0,0,1.1328,Pegmatite_10,6,10,1,1,1.133,6,10,-0.171791691,-0.391786693,1,0,0,1.2274,Pegmatite_rect,6,1.227,1,2,0,2,0,1,,,,,,,,,,,,,
6647b9d85e49c207ba28f76f,SCR,2024-06-24_14h43.02.920,LearnStrategy,2023.2.3,MacIntel,120.4819277,5,1,4,0.340829569,0.384950755,1,0,0,1.2983,Basalt_11,2,11,6,7,1.298,2,11,-0.139245779,-0.243886071,1,0,0,2.3032,Basalt_rect,2,2.303,1,3,0,3,0,1,,,,,,,,,,,,,
6647b9d85e49c207ba28f76f,SCR,2024-06-24_14h43.02.920,LearnStrategy,2023.2.3,MacIntel,120.4819277,5,1,5,-0.093467676,-0.102515921,1,0,0,0.6069,Diorite_16,3,16,3,4,0.607,3,16,0.112804539,-0.242011626,1,0,0,1.2881,Diorite_rect,3,1.288,1,4,0,4,0,1,,,,,,,,,,,,,
6647b9d85e49c207ba28f76f,SCR,2024-06-24_14h43.02.920,LearnStrategy,2023.2.3,MacIntel,120.4819277,5,1,6,-0.376120039,0.064031953,1,0,0,0.7147,Pegmatite_05,6,05,4,2,0.715,6,05,-0.144563648,-0.397460938,1,0,0,1.3599,Pegmatite_rect,6,1.36,1,5,0,5,0,1,,,,,,,,,,,,,
6647b9d85e49c207ba28f76f,SCR,2024-06-24_14h43.02.920,LearnStrategy,2023.2.3,MacIntel,120.4819277,5,1,7,-0.058644661,0.095022771,1,0,0,0.716,Peridotite_12,7,12,4,4,0.716,7,12,0.122542395,-0.25161989,1,0,0,1.2962,Diorite_rect,3,1.296,0,6,0,6,0,1,,,,,,,,,,,,,
6647b9d85e49c207ba28f76f,SCR,2024-06-24_14h43.02.920,LearnStrategy,2023.2.3,MacIntel,120.4819277,5,1,8,-0.071298319,-0.253063907,1,0,0,0.7489,Basalt_02,2,02,2,4,0.749,2,02,-0.101849452,-0.254609745,1,0,0,0.6542,Basalt_rect,2,0.654,1,7,0,7,0,1,,,,,,,,,,,,,
6647b9d85e49c207ba28f76f,SCR,2024-06-24_14h43.02.920,LearnStrategy,2023.2.3,MacIntel,120.4819277,5,1,9,-0.241604339,-0.229640292,1,0,0,0.6642,Gabbro_01,4,01,2,3,0.664,4,01,-0.3365762,-0.243765736,1,0,0,1.2036,Andesite_rect,1,1.204,0,8,0,8,0,1,,,,,,,,,,,,,
6647b9d85e49c207ba28f76f,SCR,2024-06-24_14h43.02.920,LearnStrategy,2023.2.3,MacIntel,120.4819277,5,1,10,0.111240188,0.095786434,1,0,0,0.8409,Peridotite_14,7,14,4,5,0.841,7,14,0.12159823,-0.261279065,1,0,0,0.9898,Diorite_rect,3,0.99,0,9,0,9,0,1,,,,,,,,,,,,,
6647b9d85e49c207ba28f76f,SCR,2024-06-24_14h43.02.920,LearnStrategy,2023.2.3,MacIntel,120.4819277,5,1,11,0.079962419,-0.246797245,1,0,0,0.6637,Diorite_13,3,13,2,5,0.664,3,13,-0.324589011,-0.25613707,1,0,0,2.4524,Andesite_rect,1,2.452,0,10,0,10,0,1,,,,,,,,,,,,,
6647b9d85e49c207ba28f76f,SCR,2024-06-24_14h43.02.920,LearnStrategy,2023.2.3,MacIntel,120.4819277,5,1,12,-0.440082568,-0.125166617,1,0,0,0.6985,Andesite_14,1,14,3,2,0.699,1,14,-0.35148382,-0.258002259,1,0,0,1.545,Andesite_rect,1,1.545,1,11,0,11,0,1,,,,,,,,,,,,,
6647b9d85e49c207ba28f76f,SCR,2024-06-24_14h43.02.920,LearnStrategy,2023.2.3,MacIntel,120.4819277,5,1,13,0.097725674,-0.102724193,1,0,0,0.7967,Gabbro_12,4,12,3,5,0.797,4,12,-0.09250037,-0.249180798,1,0,0,1.4374,Basalt_rect,2,1.437,0,12,0,12,0,1,,,,,,,,,,,,,
6647b9d85e49c207ba28f76f,SCR,2024-06-24_14h43.02.920,LearnStrategy,2023.2.3,MacIntel,120.4819277,5,1,14,-0.240308427,0.084479599,1,0,0,0.6807,Gabbro_15,4,15,4,3,0.681,4,15,0.358620594,-0.243867558,1,0,0,1.4366,Gabbro_rect,4,1.437,1,13,0,13,0,1,,,,,,,,,,,,,
6647b9d85e49c207ba28f76f,SCR,2024-06-24_14h43.02.920,LearnStrategy,2023.2.3,MacIntel,120.4819277,5,1,15,-0.380192906,-0.140893439,1,0,0,0.6068,Andesite_14,1,14,3,2,0.607,1,14,-0.389421653,-0.237387996,1,0,0,1.8526,Andesite_rect,1,1.853,1,14,0,14,0,1,,,,,,,,,,,,,
6647b9d85e49c207ba28f76f,SCR,2024-06-24_14h43.02.920,LearnStrategy,2023.2.3,MacIntel,120.4819277,5,1,16,0.34643439,-0.263417321,1,0,0,0.8222,Gabbro_13,4,13,2,7,0.822,4,13,0.367446682,-0.249157657,1,0,0,0.8783,Gabbro_rect,4,0.878,1,15,0,15,0,1,,,,,,,,,,,,,
6647b9d85e49c207ba28f76f,SCR,2024-06-24_14h43.02.920,LearnStrategy,2023.2.3,MacIntel,120.4819277,5,2,1,,,,,,,,1,16,,,,,,,,,,,,,1,3.98,1,,,,,,-0.329791173,-0.24117854,1,0,0,3.9798,Andesite_rect,0,0,0,0,1,
6647b9d85e49c207ba28f76f,SCR,2024-06-24_14h43.02.920,LearnStrategy,2023.2.3,MacIntel,120.4819277,5,2,2,,,,,,,,4,03,,,,,,,,,,,,,3,2.783,0,,,,,,0.134455532,-0.254933723,1,0,0,2.7827,Diorite_rect,1,0,1,0,1,
6647b9d85e49c207ba28f76f,SCR,2024-06-24_14h43.02.920,LearnStrategy,2023.2.3,MacIntel,120.4819277,5,2,3,,,,,,,,1,01,,,,,,,,,,,,,4,3.511,0,,,,,,0.355570572,-0.238790358,1,0,0,3.5106,Gabbro_rect,2,0,2,0,1,
6647b9d85e49c207ba28f76f,SCR,2024-06-24_14h43.02.920,LearnStrategy,2023.2.3,MacIntel,120.4819277,5,2,4,,,,,,,,7,15,,,,,,,,,,,,,7,3.052,1,,,,,,0.10905565,-0.407467232,1,0,0,3.0517,Peridotite_rect,3,0,3,0,1,
6647b9d85e49c207ba28f76f,SCR,2024-06-24_14h43.02.920,LearnStrategy,2023.2.3,MacIntel,120.4819277,5,2,5,,,,,,,,6,03,,,,,,,,,,,,,6,1.121,1,,,,,,-0.092167136,-0.389699348,1,0,0,1.1215,Pegmatite_rect,4,0,4,0,1,
6647b9d85e49c207ba28f76f,SCR,2024-06-24_14h43.02.920,LearnStrategy,2023.2.3,MacIntel,120.4819277,5,2,6,,,,,,,,8,14,,,,,,,,,,,,,8,1.029,1,,,,,,0.353904399,-0.384876703,1,0,0,1.0292,Pumice_rect,5,0,5,0,1,
6647b9d85e49c207ba28f76f,SCR,2024-06-24_14h43.02.920,LearnStrategy,2023.2.3,MacIntel,120.4819277,5,2,7,,,,,,,,5,08,,,,,,,,,,,,,5,0.992,1,,,,,,-0.302058649,-0.386334605,1,0,0,0.9921,Obsidian_rect,6,0,6,0,1,
6647b9d85e49c207ba28f76f,SCR,2024-06-24_14h43.02.920,LearnStrategy,2023.2.3,MacIntel,120.4819277,5,2,8,,,,,,,,7,04,,,,,,,,,,,,,7,5.135,1,,,,,,0.07350137,-0.392953014,1,0,0,5.1354,Peridotite_rect,7,0,7,0,1,
6647b9d85e49c207ba28f76f,SCR,2024-06-24_14h43.02.920,LearnStrategy,2023.2.3,MacIntel,120.4819277,5,2,9,,,,,,,,4,09,,,,,,,,,,,,,4,2.474,1,,,,,,0.306427725,-0.229506072,1,0,0,2.4745,Gabbro_rect,8,0,8,0,1,
6647b9d85e49c207ba28f76f,SCR,2024-06-24_14h43.02.920,LearnStrategy,2023.2.3,MacIntel,120.4819277,5,2,10,,,,,,,,2,09,,,,,,,,,,,,,2,1.663,1,,,,,,-0.102557576,-0.243640773,1,0,0,1.6625,Basalt_rect,9,0,9,0,1,
6647b9d85e49c207ba28f76f,SCR,2024-06-24_14h43.02.920,LearnStrategy,2023.2.3,MacIntel,120.4819277,5,2,11,,,,,,,,6,09,,,,,,,,,,,,,6,1.167,1,,,,,,-0.108990855,-0.404412581,1,0,0,1.1668,Pegmatite_rect,10,0,10,0,1,
6647b9d85e49c207ba28f76f,SCR,2024-06-24_14h43.02.920,LearnStrategy,2023.2.3,MacIntel,120.4819277,5,2,12,,,,,,,,3,15,,,,,,,,,,,,,3,2.435,1,,,,,,0.062277844,-0.251406991,1,0,0,2.4349,Diorite_rect,11,0,11,0,1,
6647b9d85e49c207ba28f76f,SCR,2024-06-24_14h43.02.920,LearnStrategy,2023.2.3,MacIntel,120.4819277,5,2,13,,,,,,,,3,08,,,,,,,,,,,,,3,2.634,1,,,,,,0.088293283,-0.241433094,1,0,0,2.6337,Diorite_rect,12,0,12,0,1,
6647b9d85e49c207ba28f76f,SCR,2024-06-24_14h43.02.920,LearnStrategy,2023.2.3,MacIntel,120.4819277,5,2,14,,,,,,,,2,01,,,,,,,,,,,,,2,2.532,1,,,,,,-0.163483968,-0.252290988,1,0,0,2.5316,Basalt_rect,13,0,13,0,1,
6647b9d85e49c207ba28f76f,SCR,2024-06-24_14h43.02.920,LearnStrategy,2023.2.3,MacIntel,120.4819277,5,2,15,,,,,,,,8,09,,,,,,,,,,,,,8,1.087,1,,,,,,0.387292654,-0.392004221,1,0,0,1.0869,Pumice_rect,14,0,14,0,1,
6647b9d85e49c207ba28f76f,SCR,2024-06-24_14h43.02.920,LearnStrategy,2023.2.3,MacIntel,120.4819277,5,2,16,,,,,,,,5,10,,,,,,,,,,,,,5,1.168,1,,,,,,-0.350599822,-0.398895698,1,0,0,1.1676,Obsidian_rect,15,0,15,0,1,
6647b9d85e49c207ba28f76f,SCR,2024-06-24_14h43.02.920,LearnStrategy,2023.2.3,MacIntel,120.4819277,6,1,1,0.22058279,0.249504776,1,0,0,1.2308,Basalt_10,2,10,5,6,1.231,2,10,-0.184250963,-0.252855635,1,0,0,1.1272,Basalt_rect,2,1.127,1,0,0,0,0,1,,,,,,,,,,,,,
6647b9d85e49c207ba28f76f,SCR,2024-06-24_14h43.02.920,LearnStrategy,2023.2.3,MacIntel,120.4819277,6,1,2,-0.103645216,0.241863522,1,0,0,6.9721,Basalt_05,2,05,5,4,6.972,2,05,-0.154005295,-0.260237707,1,0,0,1.4792,Basalt_rect,2,1.479,1,1,0,1,0,1,,,,,,,,,,,,,
6647b9d85e49c207ba28f76f,SCR,2024-06-24_14h43.02.920,LearnStrategy,2023.2.3,MacIntel,120.4819277,6,1,3,0.535531139,-0.387306539,1,0,0,1.3336,Gabbro_05,4,05,1,8,1.334,4,05,0.347466491,-0.251383849,1,0,0,1.3776,Gabbro_rect,4,1.378,1,2,0,2,0,1,,,,,,,,,,,,,
6647b9d85e49c207ba28f76f,SCR,2024-06-24_14h43.02.920,LearnStrategy,2023.2.3,MacIntel,120.4819277,6,1,4,-0.230528917,0.377087344,1,0,0,0.9981,Pegmatite_15,6,15,6,3,0.998,6,15,-0.131919246,-0.379693054,1,0,0,1.0191,Pegmatite_rect,6,1.019,1,3,0,3,0,1,,,,,,,,,,,,,
6647b9d85e49c207ba28f76f,SCR,2024-06-24_14h43.02.920,LearnStrategy,2023.2.3,MacIntel,120.4819277,6,1,5,-0.37776307,-0.229640292,1,0,0,0.9404,Gabbro_10,4,10,2,2,0.94,4,10,0.332461678,-0.238457124,1,0,0,4.5456,Gabbro_rect,4,4.546,1,4,0,4,0,1,,,,,,,,,,,,,
6647b9d85e49c207ba28f76f,SCR,2024-06-24_14h43.02.920,LearnStrategy,2023.2.3,MacIntel,120.4819277,6,1,6,-0.080753851,0.120644809,1,0,0,0.7072,Peridotite_12,7,12,4,4,0.707,7,12,0.149025289,-0.238234967,1,0,0,1.0963,Diorite_rect,3,1.096,0,5,0,5,0,1,,,,,,,,,,,,,
6647b9d85e49c207ba28f76f,SCR,2024-06-24_14h43.02.920,LearnStrategy,2023.2.3,MacIntel,120.4819277,6,1,7,0.231810945,-0.248477303,1,0,0,0.9711,Pumice_16,8,16,2,6,0.971,8,16,0.338288655,-0.386348489,1,0,0,1.294,Pumice_rect,8,1.294,1,6,0,6,0,1,,,,,,,,,,,,,
6647b9d85e49c207ba28f76f,SCR,2024-06-24_14h43.02.920,LearnStrategy,2023.2.3,MacIntel,120.4819277,6,1,8,-0.413081309,-0.264778029,1,0,0,0.8564,Gabbro_10,4,10,2,2,0.856,4,10,0.35658416,-0.255600193,1,0,0,1.9935,Gabbro_rect,4,1.994,1,7,0,7,0,1,,,,,,,,,,,,,
6647b9d85e49c207ba28f76f,SCR,2024-06-24_14h43.02.920,LearnStrategy,2023.2.3,MacIntel,120.4819277,6,1,9,0.222984856,0.45695257,1,0,0,1.0565,Peridotite_08,7,08,6,6,1.057,7,08,0.086580828,-0.384913729,1,0,0,1.1869,Peridotite_rect,7,1.187,1,8,0,8,0,1,,,,,,,,,,,,,
6647b9d85e49c207ba28f76f,SCR,2024-06-24_14h43.02.920,LearnStrategy,2023.2.3,MacIntel,120.4819277,6,1,10,-0.08471564,-0.117238411,1,0,0,0.5416,Diorite_16,3,16,3,4,0.542,3,16,0.136450311,-0.247454458,1,0,0,0.7605,Diorite_rect,3,0.761,1,9,0,9,0,1,,,,,,,,,,,,,
6647b9d85e49c207ba28f76f,SCR,2024-06-24_14h43.02.920,LearnStrategy,2023.2.3,MacIntel,120.4819277,6,1,11,-0.55099415,-0.085275659,1,0,0,0.9151,Andesite_06,1,06,3,1,0.915,1,06,-0.381586012,-0.263190536,1,0,0,0.9362,Andesite_rect,1,0.936,1,10,0,10,0,1,,,,,,,,,,,,,
6647b9d85e49c207ba28f76f,SCR,2024-06-24_14h43.02.920,LearnStrategy,2023.2.3,MacIntel,120.4819277,6,1,12,-0.373685575,-0.105741817,1,0,0,0.7405,Andesite_14,1,14,3,2,0.74,1,14,-0.374421468,-0.232384849,1,0,0,0.9451,Andesite_rect,1,0.945,1,11,0,11,0,1,,,,,,,,,,,,,
6647b9d85e49c207ba28f76f,SCR,2024-06-24_14h43.02.920,LearnStrategy,2023.2.3,MacIntel,120.4819277,6,1,13,0.522164729,0.107880073,1,0,0,0.9482,Obsidian_07,5,07,4,8,0.948,5,07,-0.384025104,-0.411739114,1,0,0,1.8202,Obsidian_rect,5,1.82,1,12,0,12,0,1,,,,,,,,,,,,,
6647b9d85e49c207ba28f76f,SCR,2024-06-24_14h43.02.920,LearnStrategy,2023.2.3,MacIntel,120.4819277,6,1,14,-0.403838677,-0.428322164,1,0,0,0.9641,Diorite_09,3,09,1,2,0.964,3,09,0.108426207,-0.243774993,1,0,0,1.4629,Diorite_rect,3,1.463,1,13,0,13,0,1,,,,,,,,,,,,,
6647b9d85e49c207ba28f76f,SCR,2024-06-24_14h43.02.920,LearnStrategy,2023.2.3,MacIntel,120.4819277,6,1,15,0.384737855,-0.269512737,1,0,0,0.9483,Gabbro_13,4,13,2,7,0.948,4,13,0.377601081,-0.246926836,1,0,0,1.6783,Gabbro_rect,4,1.678,1,14,0,14,0,1,,,,,,,,,,,,,
6647b9d85e49c207ba28f76f,SCR,2024-06-24_14h43.02.920,LearnStrategy,2023.2.3,MacIntel,120.4819277,6,1,16,0.560338603,0.416677466,1,0,0,1.165,Andesite_04,1,04,6,8,1.165,1,04,-0.364535508,-0.251805021,1,0,0,1.3199,Andesite_rect,1,1.32,1,15,0,15,0,1,,,,,,,,,,,,,
6647b9d85e49c207ba28f76f,SCR,2024-06-24_14h43.02.920,LearnStrategy,2023.2.3,MacIntel,120.4819277,6,2,1,,,,,,,,8,04,,,,,,,,,,,,,8,1.143,1,,,,,,0.351409767,-0.381891477,1,0,0,1.1432,Pumice_rect,0,0,0,0,1,
6647b9d85e49c207ba28f76f,SCR,2024-06-24_14h43.02.920,LearnStrategy,2023.2.3,MacIntel,120.4819277,6,2,2,,,,,,,,7,05,,,,,,,,,,,,,7,4.496,1,,,,,,0.11583142,-0.380998223,1,0,0,4.4958,Peridotite_rect,1,0,1,0,1,
6647b9d85e49c207ba28f76f,SCR,2024-06-24_14h43.02.920,LearnStrategy,2023.2.3,MacIntel,120.4819277,6,2,3,,,,,,,,7,02,,,,,,,,,,,,,7,2.726,1,,,,,,0.095712382,-0.384770253,1,0,0,2.7257,Peridotite_rect,2,0,2,0,1,
6647b9d85e49c207ba28f76f,SCR,2024-06-24_14h43.02.920,LearnStrategy,2023.2.3,MacIntel,120.4819277,6,2,4,,,,,,,,3,06,,,,,,,,,,,,,3,1.459,1,,,,,,0.078356413,-0.248879961,1,0,0,1.4592,Diorite_rect,3,0,3,0,1,
6647b9d85e49c207ba28f76f,SCR,2024-06-24_14h43.02.920,LearnStrategy,2023.2.3,MacIntel,120.4819277,6,2,5,,,,,,,,6,13,,,,,,,,,,,,,6,1.291,1,,,,,,-0.090079791,-0.405352118,1,0,0,1.291,Pegmatite_rect,4,0,4,0,1,
6647b9d85e49c207ba28f76f,SCR,2024-06-24_14h43.02.920,LearnStrategy,2023.2.3,MacIntel,120.4819277,6,2,6,,,,,,,,6,06,,,,,,,,,,,,,6,5.101,1,,,,,,-0.088441388,-0.403024104,1,0,0,5.1009,Pegmatite_rect,5,0,5,0,1,
6647b9d85e49c207ba28f76f,SCR,2024-06-24_14h43.02.920,LearnStrategy,2023.2.3,MacIntel,120.4819277,6,2,7,,,,,,,,8,06,,,,,,,,,,,,,8,1.145,1,,,,,,0.337751777,-0.405180872,1,0,0,1.1451,Pumice_rect,6,0,6,0,1,
6647b9d85e49c207ba28f76f,SCR,2024-06-24_14h43.02.920,LearnStrategy,2023.2.3,MacIntel,120.4819277,6,2,8,,,,,,,,1,07,,,,,,,,,,,,,1,2.637,1,,,,,,-0.356908138,-0.251805021,1,0,0,2.6367,Andesite_rect,7,0,7,0,1,
6647b9d85e49c207ba28f76f,SCR,2024-06-24_14h43.02.920,LearnStrategy,2023.2.3,MacIntel,120.4819277,6,2,9,,,,,,,,5,02,,,,,,,,,,,,,5,1.245,1,,,,,,-0.385570942,-0.404565314,1,0,0,1.2454,Obsidian_rect,8,0,8,0,1,
6647b9d85e49c207ba28f76f,SCR,2024-06-24_14h43.02.920,LearnStrategy,2023.2.3,MacIntel,120.4819277,6,2,10,,,,,,,,3,07,,,,,,,,,,,,,3,1.856,1,,,,,,0.088251629,-0.241659879,1,0,0,1.8557,Diorite_rect,9,0,9,0,1,
6647b9d85e49c207ba28f76f,SCR,2024-06-24_14h43.02.920,LearnStrategy,2023.2.3,MacIntel,120.4819277,6,2,11,,,,,,,,5,05,,,,,,,,,,,,,5,1.153,1,,,,,,-0.355302133,-0.406199089,1,0,0,1.1532,Obsidian_rect,10,0,10,0,1,
6647b9d85e49c207ba28f76f,SCR,2024-06-24_14h43.02.920,LearnStrategy,2023.2.3,MacIntel,120.4819277,6,2,12,,,,,,,,2,06,,,,,,,,,,,,,2,0.968,1,,,,,,-0.145882701,-0.241428466,1,0,0,0.9679,Basalt_rect,11,0,11,0,1,
6647b9d85e49c207ba28f76f,SCR,2024-06-24_14h43.02.920,LearnStrategy,2023.2.3,MacIntel,120.4819277,6,2,13,,,,,,,,1,11,,,,,,,,,,,,,1,2.592,1,,,,,,-0.358731672,-0.251985523,1,0,0,2.5918,Andesite_rect,12,0,12,0,1,
6647b9d85e49c207ba28f76f,SCR,2024-06-24_14h43.02.920,LearnStrategy,2023.2.3,MacIntel,120.4819277,6,2,14,,,,,,,,2,14,,,,,,,,,,,,,8,2.454,0,,,,,,0.385191425,-0.394165618,1,0,0,2.4538,Pumice_rect,13,0,13,0,1,
6647b9d85e49c207ba28f76f,SCR,2024-06-24_14h43.02.920,LearnStrategy,2023.2.3,MacIntel,120.4819277,6,2,15,,,,,,,,4,14,,,,,,,,,,,,,4,1.153,1,,,,,,0.32892106,-0.246862041,1,0,0,1.1535,Gabbro_rect,14,0,14,0,1,
6647b9d85e49c207ba28f76f,SCR,2024-06-24_14h43.02.920,LearnStrategy,2023.2.3,MacIntel,120.4819277,6,2,16,,,,,,,,4,16,,,,,,,,,,,,,4,2.308,1,,,,,,0.318831457,-0.228747038,1,0,0,2.3082,Gabbro_rect,15,0,15,0,1,
6647b9d85e49c207ba28f76f,SCR,2024-06-24_14h43.02.920,LearnStrategy,2023.2.3,MacIntel,120.4819277,7,1,1,-0.403722971,-0.241664507,1,0,0,1.2464,Gabbro_10,4,10,2,2,1.246,4,10,0.376494927,-0.238984745,1,0,0,1.5619,Gabbro_rect,4,1.562,1,0,0,0,0,1,,,,,,,,,,,,,
6647b9d85e49c207ba28f76f,SCR,2024-06-24_14h43.02.920,LearnStrategy,2023.2.3,MacIntel,120.4819277,7,1,2,-0.071941647,0.268559316,1,0,0,0.989,Basalt_05,2,05,5,4,0.989,2,05,-0.136922393,-0.253628555,1,0,0,1.2286,Basalt_rect,2,1.229,1,1,0,1,0,1,,,,,,,,,,,,,
6647b9d85e49c207ba28f76f,SCR,2024-06-24_14h43.02.920,LearnStrategy,2023.2.3,MacIntel,120.4819277,7,1,3,-0.082623667,0.10671838,1,0,0,0.7817,Peridotite_12,7,12,4,4,0.782,7,12,0.086678021,-0.400205495,1,0,0,3.1464,Peridotite_rect,7,3.146,1,2,0,2,0,1,,,,,,,,,,,,,
6647b9d85e49c207ba28f76f,SCR,2024-06-24_14h43.02.920,LearnStrategy,2023.2.3,MacIntel,120.4819277,7,1,4,0.575607227,0.384020475,1,0,0,1.1639,Andesite_04,1,04,6,8,1.164,1,04,-0.365266773,-0.24946775,1,0,0,1.6535,Andesite_rect,1,1.653,1,3,0,3,0,1,,,,,,,,,,,,,
6647b9d85e49c207ba28f76f,SCR,2024-06-24_14h43.02.920,LearnStrategy,2023.2.3,MacIntel,120.4819277,7,1,5,0.54360745,-0.07594509,1,0,0,0.9983,Diorite_02,3,02,3,8,0.998,3,02,0.072529436,-0.246954606,1,0,0,0.8869,Diorite_rect,3,0.887,1,4,0,4,0,1,,,,,,,,,,,,,
6647b9d85e49c207ba28f76f,SCR,2024-06-24_14h43.02.920,LearnStrategy,2023.2.3,MacIntel,120.4819277,7,1,6,0.525571127,-0.409424985,1,0,0,1.1729,Gabbro_05,4,05,1,8,1.173,4,05,0.333516921,-0.246251111,1,0,0,1.4451,Gabbro_rect,4,1.445,1,5,0,5,0,1,,,,,,,,,,,,,
6647b9d85e49c207ba28f76f,SCR,2024-06-24_14h43.02.920,LearnStrategy,2023.2.3,MacIntel,120.4819277,7,1,7,-0.368761108,0.237022364,1,0,0,0.7981,Obsidian_16,5,16,5,2,0.798,5,16,-0.371639884,-0.394309094,1,0,0,0.855,Obsidian_rect,5,0.855,1,6,0,6,0,1,,,,,,,,,,,,,
6647b9d85e49c207ba28f76f,SCR,2024-06-24_14h43.02.920,LearnStrategy,2023.2.3,MacIntel,120.4819277,7,1,8,-0.369344268,-0.374180798,1,0,0,1.0656,Diorite_09,3,09,1,2,1.066,3,09,0.144799689,-0.253540618,1,0,0,0.9037,Diorite_rect,3,0.904,1,7,0,7,0,1,,,,,,,,,,,,,
6647b9d85e49c207ba28f76f,SCR,2024-06-24_14h43.02.920,LearnStrategy,2023.2.3,MacIntel,120.4819277,7,1,9,0.371959234,-0.095985449,1,0,0,0.9893,Pumice_05,8,05,3,7,0.989,8,05,0.374810241,-0.414641032,1,0,0,0.7282,Pumice_rect,8,0.728,1,8,0,8,0,1,,,,,,,,,,,,,
6647b9d85e49c207ba28f76f,SCR,2024-06-24_14h43.02.920,LearnStrategy,2023.2.3,MacIntel,120.4819277,7,1,10,0.073006146,-0.090408398,1,0,0,0.7834,Gabbro_12,4,12,3,5,0.783,4,12,-0.105320646,-0.250490595,1,0,0,1.171,Basalt_rect,2,1.171,0,9,0,9,0,1,,,,,,,,,,,,,
6647b9d85e49c207ba28f76f,SCR,2024-06-24_14h43.02.920,LearnStrategy,2023.2.3,MacIntel,120.4819277,7,1,11,0.370612411,0.097998741,1,0,0,1.0894,Pegmatite_12,6,12,4,7,1.089,6,12,-0.119459975,-0.399673245,1,0,0,1.5057,Pegmatite_rect,6,1.506,1,10,0,10,0,1,,,,,,,,,,,,,
6647b9d85e49c207ba28f76f,SCR,2024-06-24_14h43.02.920,LearnStrategy,2023.2.3,MacIntel,120.4819277,7,1,12,0.362309316,0.27455291,1,0,0,0.9727,Andesite_03,1,03,5,7,0.973,1,03,-0.325213826,-0.263176651,1,0,0,1.1204,Andesite_rect,1,1.12,1,11,0,11,0,1,,,,,,,,,,,,,
6647b9d85e49c207ba28f76f,SCR,2024-06-24_14h43.02.920,LearnStrategy,2023.2.3,MacIntel,120.4819277,7,1,13,-0.282587567,-0.43933279,1,0,0,0.7996,Peridotite_06,7,06,1,3,0.8,7,06,0.091912581,-0.400108301,1,0,0,1.6121,Peridotite_rect,7,1.612,1,12,0,12,0,1,,,,,,,,,,,,,
6647b9d85e49c207ba28f76f,SCR,2024-06-24_14h43.02.920,LearnStrategy,2023.2.3,MacIntel,120.4819277,7,1,14,-0.413844972,-0.122287841,1,0,0,0.6981,Andesite_14,1,14,3,2,0.698,1,14,-0.364660471,-0.241835752,1,0,0,1.2116,Andesite_rect,1,1.212,1,13,0,13,0,1,,,,,,,,,,,,,
6647b9d85e49c207ba28f76f,SCR,2024-06-24_14h43.02.920,LearnStrategy,2023.2.3,MacIntel,120.4819277,7,1,15,0.095457827,0.412373186,1,0,0,0.9492,Basalt_08,2,08,6,5,0.949,2,08,-0.109513848,-0.25555391,1,0,0,1.177,Basalt_rect,2,1.177,1,14,0,14,0,1,,,,,,,,,,,,,
6647b9d85e49c207ba28f76f,SCR,2024-06-24_14h43.02.920,LearnStrategy,2023.2.3,MacIntel,120.4819277,7,1,16,0.048226451,0.456337011,1,0,0,0.9637,Basalt_08,2,08,6,5,0.964,2,08,-0.16940351,-0.23594398,1,0,0,1.0038,Basalt_rect,2,1.004,1,15,0,15,0,1,,,,,,,,,,,,,
6647b9d85e49c207ba28f76f,SCR,2024-06-24_14h43.02.920,LearnStrategy,2023.2.3,MacIntel,120.4819277,7,2,1,,,,,,,,7,04,,,,,,,,,,,,,7,9.017,1,,,,,,0.129716195,-0.414386478,1,0,0,9.017,Peridotite_rect,0,0,0,0,1,
6647b9d85e49c207ba28f76f,SCR,2024-06-24_14h43.02.920,LearnStrategy,2023.2.3,MacIntel,120.4819277,7,2,2,,,,,,,,5,04,,,,,,,,,,,,,5,1.145,1,,,,,,-0.334697127,-0.406254628,1,0,0,1.1455,Obsidian_rect,1,0,1,0,1,
6647b9d85e49c207ba28f76f,SCR,2024-06-24_14h43.02.920,LearnStrategy,2023.2.3,MacIntel,120.4819277,7,2,3,,,,,,,,2,06,,,,,,,,,,,,,2,0.951,1,,,,,,-0.133367891,-0.255336382,1,0,0,0.9505,Basalt_rect,2,0,2,0,1,
6647b9d85e49c207ba28f76f,SCR,2024-06-24_14h43.02.920,LearnStrategy,2023.2.3,MacIntel,120.4819277,7,2,4,,,,,,,,6,03,,,,,,,,,,,,,6,1.187,1,,,,,,-0.12109375,-0.391397919,1,0,0,1.1874,Pegmatite_rect,3,0,3,0,1,
6647b9d85e49c207ba28f76f,SCR,2024-06-24_14h43.02.920,LearnStrategy,2023.2.3,MacIntel,120.4819277,7,2,5,,,,,,,,8,04,,,,,,,,,,,,,8,0.975,1,,,,,,0.394484967,-0.388940314,1,0,0,0.9753,Pumice_rect,4,0,4,0,1,
6647b9d85e49c207ba28f76f,SCR,2024-06-24_14h43.02.920,LearnStrategy,2023.2.3,MacIntel,120.4819277,7,2,6,,,,,,,,1,07,,,,,,,,,,,,,1,1.392,1,,,,,,-0.346156694,-0.241155398,1,0,0,1.3916,Andesite_rect,5,0,5,0,1,
6647b9d85e49c207ba28f76f,SCR,2024-06-24_14h43.02.920,LearnStrategy,2023.2.3,MacIntel,120.4819277,7,2,7,,,,,,,,6,09,,,,,,,,,,,,,6,1.195,1,,,,,,-0.134362967,-0.407050689,1,0,0,1.1951,Pegmatite_rect,6,0,6,0,1,
6647b9d85e49c207ba28f76f,SCR,2024-06-24_14h43.02.920,LearnStrategy,2023.2.3,MacIntel,120.4819277,7,2,8,,,,,,,,4,03,,,,,,,,,,,,,3,7.377,0,,,,,,0.175679428,-0.2651992,1,0,0,7.377,Diorite_rect,7,0,7,0,1,
6647b9d85e49c207ba28f76f,SCR,2024-06-24_14h43.02.920,LearnStrategy,2023.2.3,MacIntel,120.4819277,7,2,9,,,,,,,,5,05,,,,,,,,,,,,,5,0.94,1,,,,,,-0.367594787,-0.383497482,1,0,0,0.9401,Obsidian_rect,8,0,8,0,1,
6647b9d85e49c207ba28f76f,SCR,2024-06-24_14h43.02.920,LearnStrategy,2023.2.3,MacIntel,120.4819277,7,2,10,,,,,,,,3,08,,,,,,,,,,,,,3,1.079,1,,,,,,0.122162878,-0.259936871,1,0,0,1.0792,Diorite_rect,9,0,9,0,1,
6647b9d85e49c207ba28f76f,SCR,2024-06-24_14h43.02.920,LearnStrategy,2023.2.3,MacIntel,120.4819277,7,2,11,,,,,,,,2,09,,,,,,,,,,,,,2,1.442,1,,,,,,-0.139185612,-0.254049726,1,0,0,1.4418,Basalt_rect,10,0,10,0,1,
6647b9d85e49c207ba28f76f,SCR,2024-06-24_14h43.02.920,LearnStrategy,2023.2.3,MacIntel,120.4819277,7,2,12,,,,,,,,8,08,,,,,,,,,,,,,8,1.005,1,,,,,,0.360633886,-0.388796838,1,0,0,1.0046,Pumice_rect,11,0,11,0,1,
6647b9d85e49c207ba28f76f,SCR,2024-06-24_14h43.02.920,LearnStrategy,2023.2.3,MacIntel,120.4819277,7,2,13,,,,,,,,3,10,,,,,,,,,,,,,3,2.434,1,,,,,,0.138107227,-0.247523882,1,0,0,2.434,Diorite_rect,12,0,12,0,1,
6647b9d85e49c207ba28f76f,SCR,2024-06-24_14h43.02.920,LearnStrategy,2023.2.3,MacIntel,120.4819277,7,2,14,,,,,,,,4,09,,,,,,,,,,,,,4,1.675,1,,,,,,0.343638922,-0.239234671,1,0,0,1.6749,Gabbro_rect,13,0,13,0,1,
6647b9d85e49c207ba28f76f,SCR,2024-06-24_14h43.02.920,LearnStrategy,2023.2.3,MacIntel,120.4819277,7,2,15,,,,,,,,7,02,,,,,,,,,,,,,7,1.362,1,,,,,,0.093949015,-0.396026177,1,0,0,1.3618,Peridotite_rect,14,0,14,0,1,
6647b9d85e49c207ba28f76f,SCR,2024-06-24_14h43.02.920,LearnStrategy,2023.2.3,MacIntel,120.4819277,7,2,16,,,,,,,,1,01,,,,,,,,,,,,,4,4.179,0,,,,,,0.345883627,-0.234675837,1,0,0,4.1795,Gabbro_rect,15,0,15,0,1,
6647b9d85e49c207ba28f76f,SCR,2024-06-24_14h43.02.920,LearnStrategy,2023.2.3,MacIntel,120.4819277,8,1,1,0.547254517,0.377420579,1,0,0,1.3971,Andesite_04,1,04,6,8,1.397,1,04,-0.412197312,-0.257118261,1,0,0,1.3495,Andesite_rect,1,1.35,1,0,0,0,0,1,,,,,,,,,,,,,
6647b9d85e49c207ba28f76f,SCR,2024-06-24_14h43.02.920,LearnStrategy,2023.2.3,MacIntel,120.4819277,8,1,2,0.077875074,0.099896327,1,0,0,4.0808,Peridotite_14,7,14,4,5,4.081,7,14,0.105218824,-0.400487818,1,0,0,1.2748,Peridotite_rect,7,1.275,1,1,0,1,0,1,,,,,,,,,,,,,
6647b9d85e49c207ba28f76f,SCR,2024-06-24_14h43.02.920,LearnStrategy,2023.2.3,MacIntel,120.4819277,8,1,3,0.543750926,0.379142291,1,0,0,4.8905,Andesite_04,1,04,6,8,4.89,1,04,-0.354334827,-0.252397438,1,0,0,1.4249,Andesite_rect,1,1.425,1,2,0,2,0,1,,,,,,,,,,,,,
6647b9d85e49c207ba28f76f,SCR,2024-06-24_14h43.02.920,LearnStrategy,2023.2.3,MacIntel,120.4819277,8,1,4,-0.410452459,-0.058922356,1,0,0,5.3404,Andesite_14,1,14,3,2,5.34,1,14,-0.34526344,-0.251615262,1,0,0,1.2758,Andesite_rect,1,1.276,1,3,0,3,0,1,,,,,,,,,,,,,
6647b9d85e49c207ba28f76f,SCR,2024-06-24_14h43.02.920,LearnStrategy,2023.2.3,MacIntel,120.4819277,8,1,5,-0.530953791,-0.381419394,1,0,0,2.8234,Pegmatite_10,6,10,1,1,2.823,6,10,-0.150524844,-0.39790525,1,0,0,1.3484,Pegmatite_rect,6,1.348,1,4,0,4,0,1,,,,,,,,,,,,,
6647b9d85e49c207ba28f76f,SCR,2024-06-24_14h43.02.920,LearnStrategy,2023.2.3,MacIntel,120.4819277,8,1,6,0.22749278,-0.220045912,1,0,0,2.858,Pumice_16,8,16,2,6,2.858,8,16,0.364924282,-0.393013181,1,0,0,1.0499,Pumice_rect,8,1.05,1,5,0,5,0,1,,,,,,,,,,,,,
6647b9d85e49c207ba28f76f,SCR,2024-06-24_14h43.02.920,LearnStrategy,2023.2.3,MacIntel,120.4819277,8,1,7,0.049429799,-0.077472416,1,0,0,0.6822,Gabbro_12,4,12,3,5,0.682,4,12,0.329680095,-0.24497834,1,0,0,2.3114,Gabbro_rect,4,2.311,1,6,0,6,0,1,,,,,,,,,,,,,
6647b9d85e49c207ba28f76f,SCR,2024-06-24_14h43.02.920,LearnStrategy,2023.2.3,MacIntel,120.4819277,8,1,8,0.372010145,0.381729488,1,0,0,2.3487,Basalt_11,2,11,6,7,2.349,2,11,-0.091732079,-0.25124963,1,0,0,3.797,Basalt_rect,2,3.797,1,7,0,7,0,1,,,,,,,,,,,,,
6647b9d85e49c207ba28f76f,SCR,2024-06-24_14h43.02.920,LearnStrategy,2023.2.3,MacIntel,120.4819277,8,1,9,0.536947386,0.08891347,1,0,0,1.1573,Obsidian_07,5,07,4,8,1.157,5,07,-0.425327681,-0.382534805,1,0,0,1.4526,Obsidian_rect,5,1.453,1,8,0,8,0,1,,,,,,,,,,,,,
6647b9d85e49c207ba28f76f,SCR,2024-06-24_14h43.02.920,LearnStrategy,2023.2.3,MacIntel,120.4819277,8,1,10,-0.546782435,0.261154102,1,0,0,1.5812,Diorite_14,3,14,5,1,1.581,3,14,0.06454569,-0.258659471,1,0,0,1.387,Diorite_rect,3,1.387,1,9,0,9,0,1,,,,,,,,,,,,,
6647b9d85e49c207ba28f76f,SCR,2024-06-24_14h43.02.920,LearnStrategy,2023.2.3,MacIntel,120.4819277,8,1,11,0.087538877,-0.259006591,1,0,0,1.9648,Diorite_13,3,13,2,5,1.965,3,13,0.087538877,-0.259006591,1,0,0,1.7995,Diorite_rect,3,1.8,1,10,0,10,0,1,,,,,,,,,,,,,
6647b9d85e49c207ba28f76f,SCR,2024-06-24_14h43.02.920,LearnStrategy,2023.2.3,MacIntel,120.4819277,8,1,12,-0.079342232,0.245422653,1,0,0,0.8221,Basalt_05,2,05,5,4,0.822,2,05,-0.122454458,-0.237887848,1,0,0,0.761,Basalt_rect,2,0.761,1,11,0,11,0,1,,,,,,,,,,,,,
6647b9d85e49c207ba28f76f,SCR,2024-06-24_14h43.02.920,LearnStrategy,2023.2.3,MacIntel,120.4819277,8,1,13,0.380933427,-0.262991521,1,0,0,1.1395,Gabbro_13,4,13,2,7,1.139,4,13,0.368534323,-0.266430317,1,0,0,0.6612,Gabbro_rect,4,0.661,1,12,0,12,0,1,,,,,,,,,,,,,
6647b9d85e49c207ba28f76f,SCR,2024-06-24_14h43.02.920,LearnStrategy,2023.2.3,MacIntel,120.4819277,8,1,14,-0.533059649,-0.070946571,1,0,0,1.1153,Andesite_06,1,06,3,1,1.115,1,06,-0.39915488,-0.268244594,1,0,0,1.3871,Andesite_rect,1,1.387,1,13,0,13,0,1,,,,,,,,,,,,,
6647b9d85e49c207ba28f76f,SCR,2024-06-24_14h43.02.920,LearnStrategy,2023.2.3,MacIntel,120.4819277,8,1,15,-0.236004147,-0.254285767,1,0,0,0.9394,Gabbro_01,4,01,2,3,0.939,4,01,-0.358241077,-0.247611819,1,0,0,2.0029,Andesite_rect,1,2.003,0,14,0,14,0,1,,,,,,,,,,,,,
6647b9d85e49c207ba28f76f,SCR,2024-06-24_14h43.02.920,LearnStrategy,2023.2.3,MacIntel,120.4819277,8,1,16,0.10432557,-0.144545135,1,0,0,0.6823,Gabbro_12,4,12,3,5,0.682,4,12,0.332424652,-0.246214085,1,0,0,0.7832,Gabbro_rect,4,0.783,1,15,0,15,0,1,,,,,,,,,,,,,
6647b9d85e49c207ba28f76f,SCR,2024-06-24_14h43.02.920,LearnStrategy,2023.2.3,MacIntel,120.4819277,8,2,1,,,,,,,,3,12,,,,,,,,,,,,,3,1.844,1,,,,,,0.104524585,-0.236466973,1,0,0,1.8437,Diorite_rect,0,0,0,0,1,
6647b9d85e49c207ba28f76f,SCR,2024-06-24_14h43.02.920,LearnStrategy,2023.2.3,MacIntel,120.4819277,8,2,2,,,,,,,,6,13,,,,,,,,,,,,,6,1.284,1,,,,,,-0.122570164,-0.402945424,1,0,0,1.284,Pegmatite_rect,1,0,1,0,1,
6647b9d85e49c207ba28f76f,SCR,2024-06-24_14h43.02.920,LearnStrategy,2023.2.3,MacIntel,120.4819277,8,2,3,,,,,,,,2,01,,,,,,,,,,,,,2,0.912,1,,,,,,-0.095133849,-0.245158842,1,0,0,0.912,Basalt_rect,2,0,2,0,1,
6647b9d85e49c207ba28f76f,SCR,2024-06-24_14h43.02.920,LearnStrategy,2023.2.3,MacIntel,120.4819277,8,2,4,,,,,,,,1,02,,,,,,,,,,,,,1,3.695,1,,,,,,-0.337881368,-0.245316203,1,0,0,3.6949,Andesite_rect,3,0,3,0,1,
6647b9d85e49c207ba28f76f,SCR,2024-06-24_14h43.02.920,LearnStrategy,2023.2.3,MacIntel,120.4819277,8,2,5,,,,,,,,7,16,,,,,,,,,,,,,7,2.549,1,,,,,,0.110217343,-0.406865558,1,0,0,2.5495,Peridotite_rect,4,0,4,0,1,
6647b9d85e49c207ba28f76f,SCR,2024-06-24_14h43.02.920,LearnStrategy,2023.2.3,MacIntel,120.4819277,8,2,6,,,,,,,,1,09,,,,,,,,,,,,,1,2.475,1,,,,,,-0.356486967,-0.236425318,1,0,0,2.475,Andesite_rect,5,0,5,0,1,
6647b9d85e49c207ba28f76f,SCR,2024-06-24_14h43.02.920,LearnStrategy,2023.2.3,MacIntel,120.4819277,8,2,7,,,,,,,,8,09,,,,,,,,,,,,,8,1.684,1,,,,,,0.359814685,-0.391254443,1,0,0,1.6843,Pumice_rect,6,0,6,0,1,
6647b9d85e49c207ba28f76f,SCR,2024-06-24_14h43.02.920,LearnStrategy,2023.2.3,MacIntel,120.4819277,8,2,8,,,,,,,,4,16,,,,,,,,,,,,,4,6.917,1,,,,,,0.406384219,-0.263250703,1,0,0,6.9169,Gabbro_rect,7,0,7,0,1,
6647b9d85e49c207ba28f76f,SCR,2024-06-24_14h43.02.920,LearnStrategy,2023.2.3,MacIntel,120.4819277,8,2,9,,,,,,,,5,08,,,,,,,,,,,,,5,0.884,1,,,,,,-0.375388774,-0.390995261,1,0,0,0.8845,Obsidian_rect,8,0,8,0,1,
6647b9d85e49c207ba28f76f,SCR,2024-06-24_14h43.02.920,LearnStrategy,2023.2.3,MacIntel,120.4819277,8,2,10,,,,,,,,7,05,,,,,,,,,,,,,7,1.263,1,,,,,,0.064244853,-0.397354488,1,0,0,1.2625,Peridotite_rect,9,0,9,0,1,
6647b9d85e49c207ba28f76f,SCR,2024-06-24_14h43.02.920,LearnStrategy,2023.2.3,MacIntel,120.4819277,8,2,11,,,,,,,,6,07,,,,,,,,,,,,,6,1.114,1,,,,,,-0.086728932,-0.413854228,1,0,0,1.1141,Pegmatite_rect,10,0,10,0,1,
6647b9d85e49c207ba28f76f,SCR,2024-06-24_14h43.02.920,LearnStrategy,2023.2.3,MacIntel,120.4819277,8,2,12,,,,,,,,5,02,,,,,,,,,,,,,5,0.962,1,,,,,,-0.33665488,-0.392527214,1,0,0,0.9623,Obsidian_rect,11,0,11,0,1,
6647b9d85e49c207ba28f76f,SCR,2024-06-24_14h43.02.920,LearnStrategy,2023.2.3,MacIntel,120.4819277,8,2,13,,,,,,,,3,15,,,,,,,,,,,,,3,1.004,1,,,,,,0.112235264,-0.238396956,1,0,0,1.0043,Diorite_rect,12,0,12,0,1,
6647b9d85e49c207ba28f76f,SCR,2024-06-24_14h43.02.920,LearnStrategy,2023.2.3,MacIntel,120.4819277,8,2,14,,,,,,,,8,10,,,,,,,,,,,,,8,1.095,1,,,,,,0.318868483,-0.396090973,1,0,0,1.0955,Pumice_rect,13,0,13,0,1,
6647b9d85e49c207ba28f76f,SCR,2024-06-24_14h43.02.920,LearnStrategy,2023.2.3,MacIntel,120.4819277,8,2,15,,,,,,,,2,14,,,,,,,,,,,,,8,1.25,0,,,,,,0.340014996,-0.382965233,1,0,0,1.2498,Pumice_rect,14,0,14,0,1,
6647b9d85e49c207ba28f76f,SCR,2024-06-24_14h43.02.920,LearnStrategy,2023.2.3,MacIntel,120.4819277,8,2,16,,,,,,,,4,11,,,,,,,,,,,,,4,2.75,1,,,,,,0.351317202,-0.232199719,1,0,0,2.7499,Gabbro_rect,15,0,15,0,1,
6647b9d85e49c207ba28f76f,SCR,2024-06-24_14h43.02.920,LearnStrategy,2023.2.3,MacIntel,120.4819277,9,1,1,-0.202458531,-0.081040803,1,0,0,5.3467,Andesite_10,1,10,3,3,5.347,1,10,-0.323788322,-0.251295912,1,0,0,1.7447,Andesite_rect,1,1.745,1,0,0,0,0,1,,,,,,,,,,,,,
6647b9d85e49c207ba28f76f,SCR,2024-06-24_14h43.02.920,LearnStrategy,2023.2.3,MacIntel,120.4819277,9,1,2,0.067989114,-0.084905398,1,0,0,0.8229,Gabbro_12,4,12,3,5,0.823,4,12,0.353834975,-0.247195275,1,0,0,1.4613,Gabbro_rect,4,1.461,1,1,0,1,0,1,,,,,,,,,,,,,
6647b9d85e49c207ba28f76f,SCR,2024-06-24_14h43.02.920,LearnStrategy,2023.2.3,MacIntel,120.4819277,9,1,3,0.380248445,-0.415372297,1,0,0,0.9307,Pumice_13,8,13,1,7,0.931,8,13,0.403241632,-0.420764218,1,0,0,0.7865,Pumice_rect,8,0.786,1,2,0,2,0,1,,,,,,,,,,,,,
6647b9d85e49c207ba28f76f,SCR,2024-06-24_14h43.02.920,LearnStrategy,2023.2.3,MacIntel,120.4819277,9,1,4,-0.076935538,0.388722786,1,0,0,0.9492,Andesite_05,1,05,6,4,0.949,1,05,-0.340112189,-0.253137959,1,0,0,1.0248,Andesite_rect,1,1.025,1,3,0,3,0,1,,,,,,,,,,,,,
6647b9d85e49c207ba28f76f,SCR,2024-06-24_14h43.02.920,LearnStrategy,2023.2.3,MacIntel,120.4819277,9,1,5,-0.413798689,-0.450602599,1,0,0,0.8738,Diorite_09,3,09,1,2,0.874,3,09,0.062759182,-0.245274548,1,0,0,0.9204,Diorite_rect,3,0.92,1,4,0,4,0,1,,,,,,,,,,,,,
6647b9d85e49c207ba28f76f,SCR,2024-06-24_14h43.02.920,LearnStrategy,2023.2.3,MacIntel,120.4819277,9,1,6,0.237818424,0.290423208,1,0,0,0.8992,Basalt_10,2,10,5,6,0.899,2,10,-0.127277103,-0.266865373,1,0,0,1.6035,Basalt_rect,2,1.604,1,5,0,5,0,1,,,,,,,,,,,,,
6647b9d85e49c207ba28f76f,SCR,2024-06-24_14h43.02.920,LearnStrategy,2023.2.3,MacIntel,120.4819277,9,1,7,-0.437115855,-0.129063611,1,0,0,1.1319,Andesite_14,1,14,3,2,1.132,1,14,-0.405116077,-0.236939055,1,0,0,0.6425,Andesite_rect,1,0.643,1,6,0,6,0,1,,,,,,,,,,,,,
6647b9d85e49c207ba28f76f,SCR,2024-06-24_14h43.02.920,LearnStrategy,2023.2.3,MacIntel,120.4819277,9,1,8,-0.069868187,0.215024252,1,0,0,0.8327,Basalt_05,2,05,5,4,0.833,2,05,-0.096318683,-0.249171542,1,0,0,0.9452,Basalt_rect,2,0.945,1,7,0,7,0,1,,,,,,,,,,,,,
6647b9d85e49c207ba28f76f,SCR,2024-06-24_14h43.02.920,LearnStrategy,2023.2.3,MacIntel,120.4819277,9,1,9,0.071576015,-0.07424652,1,0,0,0.7644,Gabbro_12,4,12,3,5,0.764,4,12,0.363276622,-0.256405509,1,0,0,1.196,Gabbro_rect,4,1.196,1,8,0,8,0,1,,,,,,,,,,,,,
6647b9d85e49c207ba28f76f,SCR,2024-06-24_14h43.02.920,LearnStrategy,2023.2.3,MacIntel,120.4819277,9,1,10,-0.066790395,0.093106672,1,0,0,0.6404,Peridotite_12,7,12,4,4,0.64,7,12,0.14617891,-0.385811611,1,0,0,0.937,Peridotite_rect,7,0.937,1,9,0,9,0,1,,,,,,,,,,,,,
6647b9d85e49c207ba28f76f,SCR,2024-06-24_14h43.02.920,LearnStrategy,2023.2.3,MacIntel,120.4819277,9,1,11,-0.386422541,0.261741891,1,0,0,1.0562,Obsidian_16,5,16,5,2,1.056,5,16,-0.34536989,-0.41865836,1,0,0,0.9209,Obsidian_rect,5,0.921,1,10,0,10,0,1,,,,,,,,,,,,,
6647b9d85e49c207ba28f76f,SCR,2024-06-24_14h43.02.920,LearnStrategy,2023.2.3,MacIntel,120.4819277,9,1,12,0.045551318,0.108861263,1,0,0,0.6724,Peridotite_14,7,14,4,5,0.672,7,14,0.109138959,-0.390393587,1,0,0,1.6286,Peridotite_rect,7,1.629,1,11,0,11,0,1,,,,,,,,,,,,,
6647b9d85e49c207ba28f76f,SCR,2024-06-24_14h43.02.920,LearnStrategy,2023.2.3,MacIntel,120.4819277,9,1,13,-0.403931243,-0.409600859,1,0,0,1.0561,Diorite_09,3,09,1,2,1.056,3,09,0.033540988,-0.260737559,1,0,0,0.9491,Diorite_rect,3,0.949,1,12,0,12,0,1,,,,,,,,,,,,,
6647b9d85e49c207ba28f76f,SCR,2024-06-24_14h43.02.920,LearnStrategy,2023.2.3,MacIntel,120.4819277,9,1,14,-0.379540321,0.065142735,1,0,0,0.7579,Pegmatite_05,6,05,4,2,0.758,6,05,-0.100187907,-0.413419172,1,0,0,1.7285,Pegmatite_rect,6,1.728,1,13,0,13,0,1,,,,,,,,,,,,,
6647b9d85e49c207ba28f76f,SCR,2024-06-24_14h43.02.920,LearnStrategy,2023.2.3,MacIntel,120.4819277,9,1,15,0.076070053,0.278287915,1,0,0,0.8051,Basalt_16,2,16,5,5,0.805,2,16,0.368057613,-0.269091565,1,0,0,2.2449,Gabbro_rect,4,2.245,0,14,0,14,0,1,,,,,,,,,,,,,
6647b9d85e49c207ba28f76f,SCR,2024-06-24_14h43.02.920,LearnStrategy,2023.2.3,MacIntel,120.4819277,9,1,16,-0.359037137,-0.253207383,1,0,0,0.9232,Gabbro_10,4,10,2,2,0.923,4,10,0.412350044,-0.233055946,1,0,0,0.9276,Gabbro_rect,4,0.928,1,15,0,15,0,1,,,,,,,,,,,,,
6647b9d85e49c207ba28f76f,SCR,2024-06-24_14h43.02.920,LearnStrategy,2023.2.3,MacIntel,120.4819277,9,2,1,,,,,,,,1,11,,,,,,,,,,,,,1,1.476,1,,,,,,-0.347082346,-0.229973526,1,0,0,1.4758,Andesite_rect,0,0,0,0,1,
6647b9d85e49c207ba28f76f,SCR,2024-06-24_14h43.02.920,LearnStrategy,2023.2.3,MacIntel,120.4819277,9,2,2,,,,,,,,4,14,,,,,,,,,,,,,4,1.928,1,,,,,,0.346499185,-0.228349008,1,0,0,1.9283,Gabbro_rect,1,0,1,0,1,
6647b9d85e49c207ba28f76f,SCR,2024-06-24_14h43.02.920,LearnStrategy,2023.2.3,MacIntel,120.4819277,9,2,3,,,,,,,,7,07,,,,,,,,,,,,,7,1.641,1,,,,,,0.188309945,-0.396234449,1,0,0,1.6412,Peridotite_rect,2,0,2,0,1,
6647b9d85e49c207ba28f76f,SCR,2024-06-24_14h43.02.920,LearnStrategy,2023.2.3,MacIntel,120.4819277,9,2,4,,,,,,,,6,06,,,,,,,,,,,,,6,4.642,1,,,,,,-0.073098711,-0.393943461,1,0,0,4.6416,Pegmatite_rect,3,0,3,0,1,
6647b9d85e49c207ba28f76f,SCR,2024-06-24_14h43.02.920,LearnStrategy,2023.2.3,MacIntel,120.4819277,9,2,5,,,,,,,,2,12,,,,,,,,,,,,,2,4.004,1,,,,,,-0.083526177,-0.245228266,1,0,0,4.0041,Basalt_rect,4,0,4,0,1,
6647b9d85e49c207ba28f76f,SCR,2024-06-24_14h43.02.920,LearnStrategy,2023.2.3,MacIntel,120.4819277,9,2,6,,,,,,,,7,15,,,,,,,,,,,,,7,4.366,1,,,,,,0.128087048,-0.393901807,1,0,0,4.3662,Peridotite_rect,5,0,5,0,1,
6647b9d85e49c207ba28f76f,SCR,2024-06-24_14h43.02.920,LearnStrategy,2023.2.3,MacIntel,120.4819277,9,2,7,,,,,,,,1,16,,,,,,,,,,,,,1,1.592,1,,,,,,-0.34045468,-0.271123371,1,0,0,1.592,Andesite_rect,6,0,6,0,1,
6647b9d85e49c207ba28f76f,SCR,2024-06-24_14h43.02.920,LearnStrategy,2023.2.3,MacIntel,120.4819277,9,2,8,,,,,,,,2,04,,,,,,,,,,,,,2,1.184,1,,,,,,-0.159642513,-0.253901622,1,0,0,1.1837,Basalt_rect,7,0,7,0,1,
6647b9d85e49c207ba28f76f,SCR,2024-06-24_14h43.02.920,LearnStrategy,2023.2.3,MacIntel,120.4819277,9,2,9,,,,,,,,5,10,,,,,,,,,,,,,5,0.953,1,,,,,,-0.346240003,-0.413391403,1,0,0,0.9529,Obsidian_rect,8,0,8,0,1,
6647b9d85e49c207ba28f76f,SCR,2024-06-24_14h43.02.920,LearnStrategy,2023.2.3,MacIntel,120.4819277,9,2,10,,,,,,,,8,06,,,,,,,,,,,,,8,0.962,1,,,,,,0.350794209,-0.410507998,1,0,0,0.9621,Pumice_rect,9,0,9,0,1,
6647b9d85e49c207ba28f76f,SCR,2024-06-24_14h43.02.920,LearnStrategy,2023.2.3,MacIntel,120.4819277,9,2,11,,,,,,,,8,14,,,,,,,,,,,,,8,0.734,1,,,,,,0.350794209,-0.410507998,1,0,0,0.7335,Pumice_rect,10,0,10,0,1,
6647b9d85e49c207ba28f76f,SCR,2024-06-24_14h43.02.920,LearnStrategy,2023.2.3,MacIntel,120.4819277,9,2,12,,,,,,,,5,11,,,,,,,,,,,,,5,0.985,1,,,,,,-0.39030565,-0.385057205,1,0,0,0.9854,Obsidian_rect,11,0,11,0,1,
6647b9d85e49c207ba28f76f,SCR,2024-06-24_14h43.02.920,LearnStrategy,2023.2.3,MacIntel,120.4819277,9,2,13,,,,,,,,6,08,,,,,,,,,,,,,6,1.744,1,,,,,,-0.120399511,-0.404347786,1,0,0,1.7438,Pegmatite_rect,12,0,12,0,1,
6647b9d85e49c207ba28f76f,SCR,2024-06-24_14h43.02.920,LearnStrategy,2023.2.3,MacIntel,120.4819277,9,2,14,,,,,,,,3,07,,,,,,,,,,,,,3,1.5,1,,,,,,0.127735301,-0.230922319,1,0,0,1.4996,Diorite_rect,13,0,13,0,1,
6647b9d85e49c207ba28f76f,SCR,2024-06-24_14h43.02.920,LearnStrategy,2023.2.3,MacIntel,120.4819277,9,2,15,,,,,,,,4,08,,,,,,,,,,,,,4,2.484,1,,,,,,0.385408953,-0.2430391,1,0,0,2.4836,Gabbro_rect,14,0,14,0,1,
6647b9d85e49c207ba28f76f,SCR,2024-06-24_14h43.02.920,LearnStrategy,2023.2.3,MacIntel,120.4819277,9,2,16,,,,,,,,3,06,,,,,,,,,,,,,3,0.997,1,,,,,,0.080985264,-0.23498593,1,0,0,0.9973,Diorite_rect,15,0,15,0,1,
6647b9d85e49c207ba28f76f,SCR,2024-06-24_14h43.02.920,LearnStrategy,2023.2.3,MacIntel,120.4819277,,,,,,,,,,,,,,,,,,,,,,,,,,,,,,,,,,,,,,,,,,,,,1
6647b9d85e49c207ba28f76f,SCR,2024-06-24_14h43.02.920,LearnStrategy,2023.2.3,MacIntel,120.4819277,,,,,,,,,,,,,,,,,,,,,,,,,,,,,,,,,,,,,,,,,,,,,
6647b9d85e49c207ba28f76f,SCR,2024-06-24_14h43.02.920,LearnStrategy,2023.2.3,MacIntel,120.4819277,,,,,,,,,,,6,10,1,1,,,,,,,,,,,,,,,,,,,,,,,,,,,,,,,
6647b9d85e49c207ba28f76f,SCR,2024-06-24_14h43.02.920,LearnStrategy,2023.2.3,MacIntel,120.4819277,,,,,,,,,,,3,09,1,2,,,,,,,,,,,,,,,,,,,,,,,,,,,,,,,
6647b9d85e49c207ba28f76f,SCR,2024-06-24_14h43.02.920,LearnStrategy,2023.2.3,MacIntel,120.4819277,,,,,,,,,,,7,06,1,3,,,,,,,,,,,,,,,,,,,,,,,,,,,,,,,
6647b9d85e49c207ba28f76f,SCR,2024-06-24_14h43.02.920,LearnStrategy,2023.2.3,MacIntel,120.4819277,,,,,,,,,,,5,14,1,4,,,,,,,,,,,,,,,,,,,,,,,,,,,,,,,
6647b9d85e49c207ba28f76f,SCR,2024-06-24_14h43.02.920,LearnStrategy,2023.2.3,MacIntel,120.4819277,,,,,,,,,,,8,15,1,5,,,,,,,,,,,,,,,,,,,,,,,,,,,,,,,
6647b9d85e49c207ba28f76f,SCR,2024-06-24_14h43.02.920,LearnStrategy,2023.2.3,MacIntel,120.4819277,,,,,,,,,,,8,03,1,6,,,,,,,,,,,,,,,,,,,,,,,,,,,,,,,
6647b9d85e49c207ba28f76f,SCR,2024-06-24_14h43.02.920,LearnStrategy,2023.2.3,MacIntel,120.4819277,,,,,,,,,,,8,13,1,7,,,,,,,,,,,,,,,,,,,,,,,,,,,,,,,
6647b9d85e49c207ba28f76f,SCR,2024-06-24_14h43.02.920,LearnStrategy,2023.2.3,MacIntel,120.4819277,,,,,,,,,,,4,05,1,8,,,,,,,,,,,,,,,,,,,,,,,,,,,,,,,
6647b9d85e49c207ba28f76f,SCR,2024-06-24_14h43.02.920,LearnStrategy,2023.2.3,MacIntel,120.4819277,,,,,,,,,,,7,13,2,1,,,,,,,,,,,,,,,,,,,,,,,,,,,,,,,
6647b9d85e49c207ba28f76f,SCR,2024-06-24_14h43.02.920,LearnStrategy,2023.2.3,MacIntel,120.4819277,,,,,,,,,,,4,10,2,2,,,,,,,,,,,,,,,,,,,,,,,,,,,,,,,
6647b9d85e49c207ba28f76f,SCR,2024-06-24_14h43.02.920,LearnStrategy,2023.2.3,MacIntel,120.4819277,,,,,,,,,,,4,01,2,3,,,,,,,,,,,,,,,,,,,,,,,,,,,,,,,
6647b9d85e49c207ba28f76f,SCR,2024-06-24_14h43.02.920,LearnStrategy,2023.2.3,MacIntel,120.4819277,,,,,,,,,,,2,02,2,4,,,,,,,,,,,,,,,,,,,,,,,,,,,,,,,
6647b9d85e49c207ba28f76f,SCR,2024-06-24_14h43.02.920,LearnStrategy,2023.2.3,MacIntel,120.4819277,,,,,,,,,,,3,13,2,5,,,,,,,,,,,,,,,,,,,,,,,,,,,,,,,
6647b9d85e49c207ba28f76f,SCR,2024-06-24_14h43.02.920,LearnStrategy,2023.2.3,MacIntel,120.4819277,,,,,,,,,,,8,16,2,6,,,,,,,,,,,,,,,,,,,,,,,,,,,,,,,
6647b9d85e49c207ba28f76f,SCR,2024-06-24_14h43.02.920,LearnStrategy,2023.2.3,MacIntel,120.4819277,,,,,,,,,,,4,13,2,7,,,,,,,,,,,,,,,,,,,,,,,,,,,,,,,
6647b9d85e49c207ba28f76f,SCR,2024-06-24_14h43.02.920,LearnStrategy,2023.2.3,MacIntel,120.4819277,,,,,,,,,,,5,06,2,8,,,,,,,,,,,,,,,,,,,,,,,,,,,,,,,
6647b9d85e49c207ba28f76f,SCR,2024-06-24_14h43.02.920,LearnStrategy,2023.2.3,MacIntel,120.4819277,,,,,,,,,,,1,06,3,1,,,,,,,,,,,,,,,,,,,,,,,,,,,,,,,
6647b9d85e49c207ba28f76f,SCR,2024-06-24_14h43.02.920,LearnStrategy,2023.2.3,MacIntel,120.4819277,,,,,,,,,,,1,14,3,2,,,,,,,,,,,,,,,,,,,,,,,,,,,,,,,
6647b9d85e49c207ba28f76f,SCR,2024-06-24_14h43.02.920,LearnStrategy,2023.2.3,MacIntel,120.4819277,,,,,,,,,,,1,10,3,3,,,,,,,,,,,,,,,,,,,,,,,,,,,,,,,
6647b9d85e49c207ba28f76f,SCR,2024-06-24_14h43.02.920,LearnStrategy,2023.2.3,MacIntel,120.4819277,,,,,,,,,,,3,16,3,4,,,,,,,,,,,,,,,,,,,,,,,,,,,,,,,
6647b9d85e49c207ba28f76f,SCR,2024-06-24_14h43.02.920,LearnStrategy,2023.2.3,MacIntel,120.4819277,,,,,,,,,,,4,12,3,5,,,,,,,,,,,,,,,,,,,,,,,,,,,,,,,
6647b9d85e49c207ba28f76f,SCR,2024-06-24_14h43.02.920,LearnStrategy,2023.2.3,MacIntel,120.4819277,,,,,,,,,,,5,12,3,6,,,,,,,,,,,,,,,,,,,,,,,,,,,,,,,
6647b9d85e49c207ba28f76f,SCR,2024-06-24_14h43.02.920,LearnStrategy,2023.2.3,MacIntel,120.4819277,,,,,,,,,,,8,05,3,7,,,,,,,,,,,,,,,,,,,,,,,,,,,,,,,
6647b9d85e49c207ba28f76f,SCR,2024-06-24_14h43.02.920,LearnStrategy,2023.2.3,MacIntel,120.4819277,,,,,,,,,,,3,02,3,8,,,,,,,,,,,,,,,,,,,,,,,,,,,,,,,
6647b9d85e49c207ba28f76f,SCR,2024-06-24_14h43.02.920,LearnStrategy,2023.2.3,MacIntel,120.4819277,,,,,,,,,,,7,10,4,1,,,,,,,,,,,,,,,,,,,,,,,,,,,,,,,
6647b9d85e49c207ba28f76f,SCR,2024-06-24_14h43.02.920,LearnStrategy,2023.2.3,MacIntel,120.4819277,,,,,,,,,,,6,05,4,2,,,,,,,,,,,,,,,,,,,,,,,,,,,,,,,
6647b9d85e49c207ba28f76f,SCR,2024-06-24_14h43.02.920,LearnStrategy,2023.2.3,MacIntel,120.4819277,,,,,,,,,,,4,15,4,3,,,,,,,,,,,,,,,,,,,,,,,,,,,,,,,
6647b9d85e49c207ba28f76f,SCR,2024-06-24_14h43.02.920,LearnStrategy,2023.2.3,MacIntel,120.4819277,,,,,,,,,,,7,12,4,4,,,,,,,,,,,,,,,,,,,,,,,,,,,,,,,
6647b9d85e49c207ba28f76f,SCR,2024-06-24_14h43.02.920,LearnStrategy,2023.2.3,MacIntel,120.4819277,,,,,,,,,,,7,14,4,5,,,,,,,,,,,,,,,,,,,,,,,,,,,,,,,
6647b9d85e49c207ba28f76f,SCR,2024-06-24_14h43.02.920,LearnStrategy,2023.2.3,MacIntel,120.4819277,,,,,,,,,,,8,02,4,6,,,,,,,,,,,,,,,,,,,,,,,,,,,,,,,
6647b9d85e49c207ba28f76f,SCR,2024-06-24_14h43.02.920,LearnStrategy,2023.2.3,MacIntel,120.4819277,,,,,,,,,,,6,12,4,7,,,,,,,,,,,,,,,,,,,,,,,,,,,,,,,
6647b9d85e49c207ba28f76f,SCR,2024-06-24_14h43.02.920,LearnStrategy,2023.2.3,MacIntel,120.4819277,,,,,,,,,,,5,07,4,8,,,,,,,,,,,,,,,,,,,,,,,,,,,,,,,
6647b9d85e49c207ba28f76f,SCR,2024-06-24_14h43.02.920,LearnStrategy,2023.2.3,MacIntel,120.4819277,,,,,,,,,,,3,14,5,1,,,,,,,,,,,,,,,,,,,,,,,,,,,,,,,
6647b9d85e49c207ba28f76f,SCR,2024-06-24_14h43.02.920,LearnStrategy,2023.2.3,MacIntel,120.4819277,,,,,,,,,,,5,16,5,2,,,,,,,,,,,,,,,,,,,,,,,,,,,,,,,
6647b9d85e49c207ba28f76f,SCR,2024-06-24_14h43.02.920,LearnStrategy,2023.2.3,MacIntel,120.4819277,,,,,,,,,,,3,11,5,3,,,,,,,,,,,,,,,,,,,,,,,,,,,,,,,
6647b9d85e49c207ba28f76f,SCR,2024-06-24_14h43.02.920,LearnStrategy,2023.2.3,MacIntel,120.4819277,,,,,,,,,,,2,05,5,4,,,,,,,,,,,,,,,,,,,,,,,,,,,,,,,
6647b9d85e49c207ba28f76f,SCR,2024-06-24_14h43.02.920,LearnStrategy,2023.2.3,MacIntel,120.4819277,,,,,,,,,,,2,16,5,5,,,,,,,,,,,,,,,,,,,,,,,,,,,,,,,
6647b9d85e49c207ba28f76f,SCR,2024-06-24_14h43.02.920,LearnStrategy,2023.2.3,MacIntel,120.4819277,,,,,,,,,,,2,10,5,6,,,,,,,,,,,,,,,,,,,,,,,,,,,,,,,
6647b9d85e49c207ba28f76f,SCR,2024-06-24_14h43.02.920,LearnStrategy,2023.2.3,MacIntel,120.4819277,,,,,,,,,,,1,03,5,7,,,,,,,,,,,,,,,,,,,,,,,,,,,,,,,
6647b9d85e49c207ba28f76f,SCR,2024-06-24_14h43.02.920,LearnStrategy,2023.2.3,MacIntel,120.4819277,,,,,,,,,,,6,16,5,8,,,,,,,,,,,,,,,,,,,,,,,,,,,,,,,
6647b9d85e49c207ba28f76f,SCR,2024-06-24_14h43.02.920,LearnStrategy,2023.2.3,MacIntel,120.4819277,,,,,,,,,,,5,09,6,1,,,,,,,,,,,,,,,,,,,,,,,,,,,,,,,
6647b9d85e49c207ba28f76f,SCR,2024-06-24_14h43.02.920,LearnStrategy,2023.2.3,MacIntel,120.4819277,,,,,,,,,,,6,11,6,2,,,,,,,,,,,,,,,,,,,,,,,,,,,,,,,
6647b9d85e49c207ba28f76f,SCR,2024-06-24_14h43.02.920,LearnStrategy,2023.2.3,MacIntel,120.4819277,,,,,,,,,,,6,15,6,3,,,,,,,,,,,,,,,,,,,,,,,,,,,,,,,
6647b9d85e49c207ba28f76f,SCR,2024-06-24_14h43.02.920,LearnStrategy,2023.2.3,MacIntel,120.4819277,,,,,,,,,,,1,05,6,4,,,,,,,,,,,,,,,,,,,,,,,,,,,,,,,
6647b9d85e49c207ba28f76f,SCR,2024-06-24_14h43.02.920,LearnStrategy,2023.2.3,MacIntel,120.4819277,,,,,,,,,,,2,08,6,5,,,,,,,,,,,,,,,,,,,,,,,,,,,,,,,
6647b9d85e49c207ba28f76f,SCR,2024-06-24_14h43.02.920,LearnStrategy,2023.2.3,MacIntel,120.4819277,,,,,,,,,,,7,08,6,6,,,,,,,,,,,,,,,,,,,,,,,,,,,,,,,
6647b9d85e49c207ba28f76f,SCR,2024-06-24_14h43.02.920,LearnStrategy,2023.2.3,MacIntel,120.4819277,,,,,,,,,,,2,11,6,7,,,,,,,,,,,,,,,,,,,,,,,,,,,,,,,
6647b9d85e49c207ba28f76f,SCR,2024-06-24_14h43.02.920,LearnStrategy,2023.2.3,MacIntel,120.4819277,,,,,,,,,,,1,04,6,8,,,,,,,,,,,,,,,,,,,,,,,,,,,,,,,