participant,condition,date,expName,psychopyVersion,OS,frameRate,block,phase,trial,learn_mouse.x,learn_mouse.y,learn_mouse.leftButton,learn_mouse.midButton,learn_mouse.rightButton,learn_mouse.time,learn_mouse.clicked_name,cat,token,row,col,t_select,cat_rec,token_rec,cat_mouse_l.x,cat_mouse_l.y,cat_mouse_l.leftButton,cat_mouse_l.midButton,cat_mouse_l.rightButton,cat_mouse_l.time,cat_mouse_l.clicked_name,resp,t_resp,corr,train_trials.thisRepN,train_trials.thisTrialN,train_trials.thisN,train_trials.thisIndex,train_trials.ran,cat_mouse_t.x,cat_mouse_t.y,cat_mouse_t.leftButton,cat_mouse_t.midButton,cat_mouse_t.rightButton,cat_mouse_t.time,cat_mouse_t.clicked_name,test_trials.thisRepN,test_trials.thisTrialN,test_trials.thisN,test_trials.thisIndex,test_trials.ran,Bonus
6647b26b402c0a3c5ab8b0cd,SCR,2024-06-20_13h28.40.192,LearnStrategy,2023.2.3,Linux x86_64,60.97560976,,,,,,,,,,,,,,,,,,,,,,,,,,,,,,,,,,,,,,,,,,,,,
6647b26b402c0a3c5ab8b0cd,SCR,2024-06-20_13h28.40.192,LearnStrategy,2023.2.3,Linux x86_64,60.97560976,1,1,1,0.076889277,0.075730602,1,0,0,3.0168,Diorite_08,3,08,4,5,3.017,3,11,0.364659707,-0.418433587,1,0,0,2.5929,Pumice_rect,8,2.593,0,0,0,0,0,1,,,,,,,,,,,,,
6647b26b402c0a3c5ab8b0cd,SCR,2024-06-20_13h28.40.192,LearnStrategy,2023.2.3,Linux x86_64,60.97560976,1,1,2,-0.067709128,0.063507557,1,0,0,2.0607,Pumice_15,8,15,4,4,2.061,2,08,0.178566933,-0.253169139,1,0,0,4.7644,Diorite_rect,3,4.764,0,1,0,1,0,1,,,,,,,,,,,,,
6647b26b402c0a3c5ab8b0cd,SCR,2024-06-20_13h28.40.192,LearnStrategy,2023.2.3,Linux x86_64,60.97560976,1,1,3,0.55486536,-0.109481454,1,0,0,1.7696,Obsidian_12,5,12,3,8,1.77,4,15,-0.395158648,-0.414002577,1,0,0,3.1048,Obsidian_rect,5,3.105,1,2,0,2,0,1,,,,,,,,,,,,,
6647b26b402c0a3c5ab8b0cd,SCR,2024-06-20_13h28.40.192,LearnStrategy,2023.2.3,Linux x86_64,60.97560976,1,1,4,0.402646303,0.421930825,1,0,0,2.5231,Diorite_11,3,11,6,7,2.523,2,02,-0.133301099,-0.25604852,1,0,0,5.4065,Basalt_rect,2,5.406,0,3,0,3,0,1,,,,,,,,,,,,,
6647b26b402c0a3c5ab8b0cd,SCR,2024-06-20_13h28.40.192,LearnStrategy,2023.2.3,Linux x86_64,60.97560976,1,1,5,-0.544565519,-0.129833817,1,0,0,2.0795,Pegmatite_10,6,10,3,1,2.079,7,07,-0.13684694,-0.415381034,1,0,0,3.4303,Pegmatite_rect,6,3.43,1,4,0,4,0,1,,,,,,,,,,,,,
6647b26b402c0a3c5ab8b0cd,SCR,2024-06-20_13h28.40.192,LearnStrategy,2023.2.3,Linux x86_64,60.97560976,1,1,6,-0.573370457,0.06794707,1,0,0,1.8253,Basalt_08,2,08,4,1,1.825,7,05,-0.421235919,-0.251661301,1,0,0,1.9912,Andesite_rect,1,1.991,0,5,0,5,0,1,,,,,,,,,,,,,
6647b26b402c0a3c5ab8b0cd,SCR,2024-06-20_13h28.40.192,LearnStrategy,2023.2.3,Linux x86_64,60.97560976,1,1,7,0.56124862,-0.127117316,1,0,0,1.4954,Obsidian_12,5,12,3,8,1.495,1,05,-0.405348976,-0.396289905,1,0,0,1.1122,Obsidian_rect,5,1.112,1,6,0,6,0,1,,,,,,,,,,,,,
6647b26b402c0a3c5ab8b0cd,SCR,2024-06-20_13h28.40.192,LearnStrategy,2023.2.3,Linux x86_64,60.97560976,1,1,8,-0.40131851,0.421009332,1,0,0,1.5152,Pumice_05,8,05,6,2,1.515,6,15,0.365754366,-0.409230471,1,0,0,1.8978,Pumice_rect,8,1.898,1,7,0,7,0,1,,,,,,,,,,,,,
6647b26b402c0a3c5ab8b0cd,SCR,2024-06-20_13h28.40.192,LearnStrategy,2023.2.3,Linux x86_64,60.97560976,1,1,9,-0.55382061,0.409842283,1,0,0,1.1916,Andesite_14,1,14,6,1,1.192,8,04,-0.361877441,-0.257052739,1,0,0,2.0633,Andesite_rect,1,2.063,1,8,0,8,0,1,,,,,,,,,,,,,
6647b26b402c0a3c5ab8b0cd,SCR,2024-06-20_13h28.40.192,LearnStrategy,2023.2.3,Linux x86_64,60.97560976,1,1,10,-0.223828117,0.4148057,1,0,0,1.484,Gabbro_15,4,15,6,3,1.484,5,08,0.420713027,-0.251832565,1,0,0,2.7663,Gabbro_rect,4,2.766,1,9,0,9,0,1,,,,,,,,,,,,,
6647b26b402c0a3c5ab8b0cd,SCR,2024-06-20_13h28.40.192,LearnStrategy,2023.2.3,Linux x86_64,60.97560976,1,1,11,-0.105594635,0.390807519,1,0,0,1.3051,Gabbro_10,4,10,6,4,1.305,6,10,0.095201333,-0.405663331,1,0,0,2.7165,Peridotite_rect,7,2.716,0,10,0,10,0,1,,,,,,,,,,,,,
6647b26b402c0a3c5ab8b0cd,SCR,2024-06-20_13h28.40.192,LearnStrategy,2023.2.3,Linux x86_64,60.97560976,1,1,12,0.122326374,0.420105979,1,0,0,1.5027,Andesite_07,1,07,6,5,1.503,3,08,-0.099875132,-0.257429441,1,0,0,5.1052,Basalt_rect,2,5.105,0,11,0,11,0,1,,,,,,,,,,,,,
6647b26b402c0a3c5ab8b0cd,SCR,2024-06-20_13h28.40.192,LearnStrategy,2023.2.3,Linux x86_64,60.97560976,1,1,13,0.372790813,0.41191709,1,0,0,1.4463,Diorite_11,3,11,6,7,1.446,5,06,0.165335814,-0.251848618,1,0,0,1.6503,Diorite_rect,3,1.65,1,12,0,12,0,1,,,,,,,,,,,,,
6647b26b402c0a3c5ab8b0cd,SCR,2024-06-20_13h28.40.192,LearnStrategy,2023.2.3,Linux x86_64,60.97560976,1,1,14,0.552538872,0.416045924,1,0,0,1.8383,Pegmatite_16,6,16,6,8,1.838,4,16,0.338149468,-0.248750369,1,0,0,1.9143,Gabbro_rect,4,1.914,0,13,0,13,0,1,,,,,,,,,,,,,
6647b26b402c0a3c5ab8b0cd,SCR,2024-06-20_13h28.40.192,LearnStrategy,2023.2.3,Linux x86_64,60.97560976,1,1,15,-0.416890065,0.257806162,1,0,0,1.5693,Gabbro_16,4,16,5,2,1.569,8,05,-0.409903725,-0.2715168,1,0,0,1.5594,Andesite_rect,1,1.559,0,14,0,14,0,1,,,,,,,,,,,,,
6647b26b402c0a3c5ab8b0cd,SCR,2024-06-20_13h28.40.192,LearnStrategy,2023.2.3,Linux x86_64,60.97560976,1,1,16,-0.240862966,0.261594156,1,0,0,1.2181,Diorite_16,3,16,5,3,1.218,1,07,0.345464468,-0.263333797,1,0,0,2.5128,Gabbro_rect,4,2.513,0,15,0,15,0,1,,,,,,,,,,,,,
6647b26b402c0a3c5ab8b0cd,SCR,2024-06-20_13h28.40.192,LearnStrategy,2023.2.3,Linux x86_64,60.97560976,1,2,1,,,,,,,,3,14,,,,,,,,,,,,,3,2.107,1,,,,,,0.163399458,-0.254757643,1,0,0,2.1069,Diorite_rect,0,0,0,0,1,
6647b26b402c0a3c5ab8b0cd,SCR,2024-06-20_13h28.40.192,LearnStrategy,2023.2.3,Linux x86_64,60.97560976,1,2,2,,,,,,,,8,03,,,,,,,,,,,,,2,1.962,0,,,,,,-0.116435607,-0.25270462,1,0,0,1.9624,Basalt_rect,1,0,1,0,1,
6647b26b402c0a3c5ab8b0cd,SCR,2024-06-20_13h28.40.192,LearnStrategy,2023.2.3,Linux x86_64,60.97560976,1,2,3,,,,,,,,4,03,,,,,,,,,,,,,1,1.647,0,,,,,,-0.341834307,-0.251447678,1,0,0,1.6474,Andesite_rect,2,0,2,0,1,
6647b26b402c0a3c5ab8b0cd,SCR,2024-06-20_13h28.40.192,LearnStrategy,2023.2.3,Linux x86_64,60.97560976,1,2,4,,,,,,,,3,12,,,,,,,,,,,,,6,3.449,0,,,,,,-0.10530448,-0.408175071,1,0,0,3.4488,Pegmatite_rect,3,0,3,0,1,
6647b26b402c0a3c5ab8b0cd,SCR,2024-06-20_13h28.40.192,LearnStrategy,2023.2.3,Linux x86_64,60.97560976,1,2,5,,,,,,,,2,05,,,,,,,,,,,,,2,2.423,1,,,,,,-0.109022617,-0.257344961,1,0,0,2.4232,Basalt_rect,4,0,4,0,1,
6647b26b402c0a3c5ab8b0cd,SCR,2024-06-20_13h28.40.192,LearnStrategy,2023.2.3,Linux x86_64,60.97560976,1,2,6,,,,,,,,2,11,,,,,,,,,,,,,7,2.108,0,,,,,,0.175959031,-0.417987426,1,0,0,2.1083,Peridotite_rect,5,0,5,0,1,
6647b26b402c0a3c5ab8b0cd,SCR,2024-06-20_13h28.40.192,LearnStrategy,2023.2.3,Linux x86_64,60.97560976,1,2,7,,,,,,,,7,08,,,,,,,,,,,,,4,1.562,0,,,,,,0.377883116,-0.247695208,1,0,0,1.5623,Gabbro_rect,6,0,6,0,1,
6647b26b402c0a3c5ab8b0cd,SCR,2024-06-20_13h28.40.192,LearnStrategy,2023.2.3,Linux x86_64,60.97560976,1,2,8,,,,,,,,8,08,,,,,,,,,,,,,1,2.048,0,,,,,,-0.446441174,-0.248766104,1,0,0,2.0483,Andesite_rect,7,0,7,0,1,
6647b26b402c0a3c5ab8b0cd,SCR,2024-06-20_13h28.40.192,LearnStrategy,2023.2.3,Linux x86_64,60.97560976,1,2,9,,,,,,,,5,10,,,,,,,,,,,,,5,1.915,1,,,,,,-0.374737263,-0.405702988,1,0,0,1.9147,Obsidian_rect,8,0,8,0,1,
6647b26b402c0a3c5ab8b0cd,SCR,2024-06-20_13h28.40.192,LearnStrategy,2023.2.3,Linux x86_64,60.97560976,1,2,10,,,,,,,,1,06,,,,,,,,,,,,,2,2.984,0,,,,,,-0.091889461,-0.249754826,1,0,0,2.9837,Basalt_rect,9,0,9,0,1,
6647b26b402c0a3c5ab8b0cd,SCR,2024-06-20_13h28.40.192,LearnStrategy,2023.2.3,Linux x86_64,60.97560976,1,2,11,,,,,,,,1,01,,,,,,,,,,,,,6,2.089,0,,,,,,-0.06822141,-0.415044546,1,0,0,2.0888,Pegmatite_rect,10,0,10,0,1,
6647b26b402c0a3c5ab8b0cd,SCR,2024-06-20_13h28.40.192,LearnStrategy,2023.2.3,Linux x86_64,60.97560976,1,2,12,,,,,,,,6,03,,,,,,,,,,,,,4,3.641,0,,,,,,0.481702646,-0.25514849,1,0,0,3.6409,Gabbro_rect,11,0,11,0,1,
6647b26b402c0a3c5ab8b0cd,SCR,2024-06-20_13h28.40.192,LearnStrategy,2023.2.3,Linux x86_64,60.97560976,1,2,13,,,,,,,,5,04,,,,,,,,,,,,,5,1.547,1,,,,,,-0.431340615,-0.391837994,1,0,0,1.5467,Obsidian_rect,12,0,12,0,1,
6647b26b402c0a3c5ab8b0cd,SCR,2024-06-20_13h28.40.192,LearnStrategy,2023.2.3,Linux x86_64,60.97560976,1,2,14,,,,,,,,7,16,,,,,,,,,,,,,1,2.234,0,,,,,,-0.388993661,-0.255584319,1,0,0,2.2336,Andesite_rect,13,0,13,0,1,
6647b26b402c0a3c5ab8b0cd,SCR,2024-06-20_13h28.40.192,LearnStrategy,2023.2.3,Linux x86_64,60.97560976,1,2,15,,,,,,,,6,09,,,,,,,,,,,,,4,2.213,0,,,,,,0.39777867,-0.255927563,1,0,0,2.2129,Gabbro_rect,14,0,14,0,1,
6647b26b402c0a3c5ab8b0cd,SCR,2024-06-20_13h28.40.192,LearnStrategy,2023.2.3,Linux x86_64,60.97560976,1,2,16,,,,,,,,4,09,,,,,,,,,,,,,7,2.631,0,,,,,,0.179994345,-0.402286212,1,0,0,2.6312,Peridotite_rect,15,0,15,0,1,
6647b26b402c0a3c5ab8b0cd,SCR,2024-06-20_13h28.40.192,LearnStrategy,2023.2.3,Linux x86_64,60.97560976,2,1,1,0.228350242,-0.445885181,1,0,0,2.4246,Peridotite_13,7,13,1,6,2.425,8,16,0.376736164,-0.257196109,1,0,0,3.3476,Gabbro_rect,4,3.348,0,0,0,0,0,1,,,,,,,,,,,,,
6647b26b402c0a3c5ab8b0cd,SCR,2024-06-20_13h28.40.192,LearnStrategy,2023.2.3,Linux x86_64,60.97560976,2,1,2,-0.064724207,0.070558151,1,0,0,1.357,Pumice_15,8,15,4,4,1.357,4,15,-0.148609241,-0.257987817,1,0,0,1.3075,Basalt_rect,2,1.308,0,1,0,1,0,1,,,,,,,,,,,,,
6647b26b402c0a3c5ab8b0cd,SCR,2024-06-20_13h28.40.192,LearnStrategy,2023.2.3,Linux x86_64,60.97560976,2,1,3,-0.239897251,-0.08824265,1,0,0,1.1345,Basalt_14,2,14,3,3,1.135,6,08,-0.372593721,-0.237744967,1,0,0,1.2406,Andesite_rect,1,1.241,0,2,0,2,0,1,,,,,,,,,,,,,
6647b26b402c0a3c5ab8b0cd,SCR,2024-06-20_13h28.40.192,LearnStrategy,2023.2.3,Linux x86_64,60.97560976,2,1,4,-0.4030538,0.255463401,1,0,0,1.6601,Gabbro_16,4,16,5,2,1.66,6,15,-0.188989083,-0.260898113,1,0,0,0.9972,Basalt_rect,2,0.997,0,3,0,3,0,1,,,,,,,,,,,,,
6647b26b402c0a3c5ab8b0cd,SCR,2024-06-20_13h28.40.192,LearnStrategy,2023.2.3,Linux x86_64,60.97560976,2,1,5,0.38661178,0.272854606,1,0,0,1.6131,Basalt_04,2,04,5,7,1.613,6,07,0.176059564,-0.249778986,1,0,0,1.7171,Diorite_rect,3,1.717,0,4,0,4,0,1,,,,,,,,,,,,,
6647b26b402c0a3c5ab8b0cd,SCR,2024-06-20_13h28.40.192,LearnStrategy,2023.2.3,Linux x86_64,60.97560976,2,1,6,-0.23280406,0.263929427,1,0,0,1.383,Diorite_16,3,16,5,3,1.383,2,04,-0.212740183,-0.406832854,1,0,0,1.4393,Pegmatite_rect,6,1.439,0,5,0,5,0,1,,,,,,,,,,,,,
6647b26b402c0a3c5ab8b0cd,SCR,2024-06-20_13h28.40.192,LearnStrategy,2023.2.3,Linux x86_64,60.97560976,2,1,7,-0.380764604,0.091008941,1,0,0,1.2061,Basalt_02,2,02,4,2,1.206,1,07,-0.200452089,-0.248931487,1,0,0,1.9895,Basalt_rect,2,1.989,1,6,0,6,0,1,,,,,,,,,,,,,
6647b26b402c0a3c5ab8b0cd,SCR,2024-06-20_13h28.40.192,LearnStrategy,2023.2.3,Linux x86_64,60.97560976,2,1,8,-0.568901658,0.078334649,1,0,0,2.2153,Basalt_08,2,08,4,1,2.215,3,13,-0.127648274,-0.257579406,1,0,0,1.1279,Basalt_rect,2,1.128,1,7,0,7,0,1,,,,,,,,,,,,,
6647b26b402c0a3c5ab8b0cd,SCR,2024-06-20_13h28.40.192,LearnStrategy,2023.2.3,Linux x86_64,60.97560976,2,1,9,-0.11206309,0.076366782,1,0,0,1.1253,Pumice_15,8,15,4,4,1.125,7,15,0.396080971,-0.397038062,1,0,0,1.7236,Pumice_rect,8,1.724,1,8,0,8,0,1,,,,,,,,,,,,,
6647b26b402c0a3c5ab8b0cd,SCR,2024-06-20_13h28.40.192,LearnStrategy,2023.2.3,Linux x86_64,60.97560976,2,1,10,-0.093975385,-0.099701683,1,0,0,1.7675,Peridotite_15,7,15,3,4,1.767,1,14,0.361285289,-0.237129529,1,0,0,2.467,Gabbro_rect,4,2.467,0,9,0,9,0,1,,,,,,,,,,,,,
6647b26b402c0a3c5ab8b0cd,SCR,2024-06-20_13h28.40.192,LearnStrategy,2023.2.3,Linux x86_64,60.97560976,2,1,11,-0.077450991,-0.269904693,1,0,0,1.2444,Obsidian_05,5,05,2,4,1.244,7,05,-0.3674769,-0.404546102,1,0,0,1.5761,Obsidian_rect,5,1.576,1,10,0,10,0,1,,,,,,,,,,,,,
6647b26b402c0a3c5ab8b0cd,SCR,2024-06-20_13h28.40.192,LearnStrategy,2023.2.3,Linux x86_64,60.97560976,2,1,12,-0.252958099,-0.274669568,1,0,0,1.3416,Obsidian_06,5,06,2,3,1.342,7,13,-0.350838025,-0.403974771,1,0,0,1.3313,Obsidian_rect,5,1.331,1,11,0,11,0,1,,,,,,,,,,,,,
6647b26b402c0a3c5ab8b0cd,SCR,2024-06-20_13h28.40.192,LearnStrategy,2023.2.3,Linux x86_64,60.97560976,2,1,13,-0.371635636,0.405668696,1,0,0,2.1148,Pumice_05,8,05,6,2,2.115,4,12,0.356469631,-0.38654836,1,0,0,1.8034,Pumice_rect,8,1.803,1,12,0,12,0,1,,,,,,,,,,,,,
6647b26b402c0a3c5ab8b0cd,SCR,2024-06-20_13h28.40.192,LearnStrategy,2023.2.3,Linux x86_64,60.97560976,2,1,14,0.080966075,0.090705673,1,0,0,1.2629,Diorite_08,3,08,4,5,1.263,8,04,0.13384374,-0.259458224,1,0,0,1.9853,Diorite_rect,3,1.985,1,13,0,13,0,1,,,,,,,,,,,,,
6647b26b402c0a3c5ab8b0cd,SCR,2024-06-20_13h28.40.192,LearnStrategy,2023.2.3,Linux x86_64,60.97560976,2,1,15,0.246531963,-0.105245988,1,0,0,1.4934,Peridotite_02,7,02,3,6,1.493,1,10,0.161185265,-0.418319146,1,0,0,2.5533,Peridotite_rect,7,2.553,1,14,0,14,0,1,,,,,,,,,,,,,
6647b26b402c0a3c5ab8b0cd,SCR,2024-06-20_13h28.40.192,LearnStrategy,2023.2.3,Linux x86_64,60.97560976,2,1,16,-0.070801338,-0.102775693,1,0,0,1.3185,Peridotite_15,7,15,3,4,1.318,4,10,0.186879953,-0.413253943,1,0,0,1.4544,Peridotite_rect,7,1.454,1,15,0,15,0,1,,,,,,,,,,,,,
6647b26b402c0a3c5ab8b0cd,SCR,2024-06-20_13h28.40.192,LearnStrategy,2023.2.3,Linux x86_64,60.97560976,2,2,1,,,,,,,,6,06,,,,,,,,,,,,,2,3.514,0,,,,,,-0.107259115,-0.254628658,1,0,0,3.5141,Basalt_rect,0,0,0,0,1,
6647b26b402c0a3c5ab8b0cd,SCR,2024-06-20_13h28.40.192,LearnStrategy,2023.2.3,Linux x86_64,60.97560976,2,2,2,,,,,,,,1,03,,,,,,,,,,,,,3,3.957,0,,,,,,0.123267015,-0.257049958,1,0,0,3.9574,Diorite_rect,1,0,1,0,1,
6647b26b402c0a3c5ab8b0cd,SCR,2024-06-20_13h28.40.192,LearnStrategy,2023.2.3,Linux x86_64,60.97560976,2,2,3,,,,,,,,1,11,,,,,,,,,,,,,3,2.126,0,,,,,,0.123267015,-0.257049958,1,0,0,2.1264,Diorite_rect,2,0,2,0,1,
6647b26b402c0a3c5ab8b0cd,SCR,2024-06-20_13h28.40.192,LearnStrategy,2023.2.3,Linux x86_64,60.97560976,2,2,4,,,,,,,,2,06,,,,,,,,,,,,,2,9.175,1,,,,,,-0.101607005,-0.265220801,1,0,0,9.1754,Basalt_rect,3,0,3,0,1,
6647b26b402c0a3c5ab8b0cd,SCR,2024-06-20_13h28.40.192,LearnStrategy,2023.2.3,Linux x86_64,60.97560976,2,2,5,,,,,,,,6,11,,,,,,,,,,,,,6,2.766,1,,,,,,-0.089659214,-0.407575051,1,0,0,2.7661,Pegmatite_rect,4,0,4,0,1,
6647b26b402c0a3c5ab8b0cd,SCR,2024-06-20_13h28.40.192,LearnStrategy,2023.2.3,Linux x86_64,60.97560976,2,2,6,,,,,,,,5,16,,,,,,,,,,,,,5,1.039,1,,,,,,-0.346115947,-0.41021204,1,0,0,1.0392,Obsidian_rect,5,0,5,0,1,
6647b26b402c0a3c5ab8b0cd,SCR,2024-06-20_13h28.40.192,LearnStrategy,2023.2.3,Linux x86_64,60.97560976,2,2,7,,,,,,,,8,09,,,,,,,,,,,,,4,3.061,0,,,,,,0.405990839,-0.249783039,1,0,0,3.0614,Gabbro_rect,6,0,6,0,1,
6647b26b402c0a3c5ab8b0cd,SCR,2024-06-20_13h28.40.192,LearnStrategy,2023.2.3,Linux x86_64,60.97560976,2,2,8,,,,,,,,4,01,,,,,,,,,,,,,3,3.532,0,,,,,,0.109503031,-0.261108319,1,0,0,3.5323,Diorite_rect,7,0,7,0,1,
6647b26b402c0a3c5ab8b0cd,SCR,2024-06-20_13h28.40.192,LearnStrategy,2023.2.3,Linux x86_64,60.97560976,2,2,9,,,,,,,,4,13,,,,,,,,,,,,,2,2.548,0,,,,,,-0.077016115,-0.259476741,1,0,0,2.5482,Basalt_rect,8,0,8,0,1,
6647b26b402c0a3c5ab8b0cd,SCR,2024-06-20_13h28.40.192,LearnStrategy,2023.2.3,Linux x86_64,60.97560976,2,2,10,,,,,,,,2,09,,,,,,,,,,,,,3,2.329,0,,,,,,0.178690116,-0.255001307,1,0,0,2.3292,Diorite_rect,9,0,9,0,1,
6647b26b402c0a3c5ab8b0cd,SCR,2024-06-20_13h28.40.192,LearnStrategy,2023.2.3,Linux x86_64,60.97560976,2,2,11,,,,,,,,7,06,,,,,,,,,,,,,7,2.153,1,,,,,,0.181215843,-0.407527765,1,0,0,2.1533,Peridotite_rect,10,0,10,0,1,
6647b26b402c0a3c5ab8b0cd,SCR,2024-06-20_13h28.40.192,LearnStrategy,2023.2.3,Linux x86_64,60.97560976,2,2,12,,,,,,,,5,02,,,,,,,,,,,,,5,2.205,1,,,,,,-0.399057031,-0.405180931,1,0,0,2.2051,Obsidian_rect,11,0,11,0,1,
6647b26b402c0a3c5ab8b0cd,SCR,2024-06-20_13h28.40.192,LearnStrategy,2023.2.3,Linux x86_64,60.97560976,2,2,13,,,,,,,,8,06,,,,,,,,,,,,,2,3.351,0,,,,,,-0.064746459,-0.255171299,1,0,0,3.3515,Basalt_rect,12,0,12,0,1,
6647b26b402c0a3c5ab8b0cd,SCR,2024-06-20_13h28.40.192,LearnStrategy,2023.2.3,Linux x86_64,60.97560976,2,2,14,,,,,,,,3,06,,,,,,,,,,,,,3,3.483,1,,,,,,0.127372265,-0.263159355,1,0,0,3.4833,Diorite_rect,13,0,13,0,1,
6647b26b402c0a3c5ab8b0cd,SCR,2024-06-20_13h28.40.192,LearnStrategy,2023.2.3,Linux x86_64,60.97560976,2,2,15,,,,,,,,3,15,,,,,,,,,,,,,2,2.07,0,,,,,,-0.05374972,-0.269449949,1,0,0,2.0699,Basalt_rect,14,0,14,0,1,
6647b26b402c0a3c5ab8b0cd,SCR,2024-06-20_13h28.40.192,LearnStrategy,2023.2.3,Linux x86_64,60.97560976,2,2,16,,,,,,,,7,12,,,,,,,,,,,,,3,3.089,0,,,,,,0.181965113,-0.26171422,1,0,0,3.0889,Diorite_rect,15,0,15,0,1,
6647b26b402c0a3c5ab8b0cd,SCR,2024-06-20_13h28.40.192,LearnStrategy,2023.2.3,Linux x86_64,60.97560976,3,1,1,-0.540475965,0.38347584,1,0,0,2.9579,Andesite_14,1,14,6,1,2.958,3,11,-0.134407759,-0.405021667,1,0,0,2.0259,Pegmatite_rect,6,2.026,0,0,0,0,0,1,,,,,,,,,,,,,
6647b26b402c0a3c5ab8b0cd,SCR,2024-06-20_13h28.40.192,LearnStrategy,2023.2.3,Linux x86_64,60.97560976,3,1,2,-0.579289595,0.409768532,1,0,0,1.1887,Andesite_14,1,14,6,1,1.189,2,10,-0.425835252,-0.253536701,1,0,0,0.9487,Andesite_rect,1,0.949,1,1,0,1,0,1,,,,,,,,,,,,,
6647b26b402c0a3c5ab8b0cd,SCR,2024-06-20_13h28.40.192,LearnStrategy,2023.2.3,Linux x86_64,60.97560976,3,1,3,-0.371189634,0.436629067,1,0,0,0.8862,Pumice_05,8,05,6,2,0.886,7,07,0.381119251,-0.393829584,1,0,0,1.3757,Pumice_rect,8,1.376,1,2,0,2,0,1,,,,,,,,,,,,,
6647b26b402c0a3c5ab8b0cd,SCR,2024-06-20_13h28.40.192,LearnStrategy,2023.2.3,Linux x86_64,60.97560976,3,1,4,-0.221368233,0.403347284,1,0,0,1.1141,Gabbro_15,4,15,6,3,1.114,7,13,0.119418144,-0.269782941,1,0,0,1.7087,Diorite_rect,3,1.709,0,3,0,3,0,1,,,,,,,,,,,,,
6647b26b402c0a3c5ab8b0cd,SCR,2024-06-20_13h28.40.192,LearnStrategy,2023.2.3,Linux x86_64,60.97560976,3,1,5,-0.209961891,0.407196383,1,0,0,0.9772,Gabbro_15,4,15,6,3,0.977,1,09,0.400763273,-0.2521348,1,0,0,2.7955,Gabbro_rect,4,2.796,1,4,0,4,0,1,,,,,,,,,,,,,
6647b26b402c0a3c5ab8b0cd,SCR,2024-06-20_13h28.40.192,LearnStrategy,2023.2.3,Linux x86_64,60.97560976,3,1,6,-0.095417658,0.385769109,1,0,0,1.0335,Gabbro_10,4,10,6,4,1.034,4,11,-0.179011345,-0.243651072,1,0,0,4.332,Basalt_rect,2,4.332,0,5,0,5,0,1,,,,,,,,,,,,,
6647b26b402c0a3c5ab8b0cd,SCR,2024-06-20_13h28.40.192,LearnStrategy,2023.2.3,Linux x86_64,60.97560976,3,1,7,-0.053004185,0.422933713,1,0,0,0.983,Gabbro_10,4,10,6,4,0.983,4,08,0.438337882,-0.24491787,1,0,0,1.0867,Gabbro_rect,4,1.087,1,6,0,6,0,1,,,,,,,,,,,,,
6647b26b402c0a3c5ab8b0cd,SCR,2024-06-20_13h28.40.192,LearnStrategy,2023.2.3,Linux x86_64,60.97560976,3,1,8,-0.069120487,0.380919208,1,0,0,0.8409,Gabbro_10,4,10,6,4,0.841,6,07,0.349980354,-0.248252869,1,0,0,0.9991,Gabbro_rect,4,0.999,1,7,0,7,0,1,,,,,,,,,,,,,
6647b26b402c0a3c5ab8b0cd,SCR,2024-06-20_13h28.40.192,LearnStrategy,2023.2.3,Linux x86_64,60.97560976,3,1,9,0.093536297,0.399056902,1,0,0,1.0701,Andesite_07,1,07,6,5,1.07,1,09,-0.099961599,-0.259659529,1,0,0,1.7148,Basalt_rect,2,1.715,0,8,0,8,0,1,,,,,,,,,,,,,
6647b26b402c0a3c5ab8b0cd,SCR,2024-06-20_13h28.40.192,LearnStrategy,2023.2.3,Linux x86_64,60.97560976,3,1,10,0.105185747,0.419872115,1,0,0,0.8309,Andesite_07,1,07,6,5,0.831,1,05,-0.388095895,-0.264254014,1,0,0,1.0218,Andesite_rect,1,1.022,1,9,0,9,0,1,,,,,,,,,,,,,
6647b26b402c0a3c5ab8b0cd,SCR,2024-06-20_13h28.40.192,LearnStrategy,2023.2.3,Linux x86_64,60.97560976,3,1,11,0.214553197,0.399868021,1,0,0,1.1271,Peridotite_07,7,07,6,6,1.127,3,11,-0.123116334,-0.399226824,1,0,0,2.0289,Pegmatite_rect,6,2.029,0,10,0,10,0,1,,,,,,,,,,,,,
6647b26b402c0a3c5ab8b0cd,SCR,2024-06-20_13h28.40.192,LearnStrategy,2023.2.3,Linux x86_64,60.97560976,3,1,12,0.088120937,0.406158249,1,0,0,1.3159,Andesite_07,1,07,6,5,1.316,4,15,0.082544486,-0.411860228,1,0,0,1.4299,Peridotite_rect,7,1.43,0,11,0,11,0,1,,,,,,,,,,,,,
6647b26b402c0a3c5ab8b0cd,SCR,2024-06-20_13h28.40.192,LearnStrategy,2023.2.3,Linux x86_64,60.97560976,3,1,13,0.085259676,0.398879608,1,0,0,0.8407,Andesite_07,1,07,6,5,0.841,6,08,-0.422805905,-0.263718764,1,0,0,1.1326,Andesite_rect,1,1.133,1,12,0,12,0,1,,,,,,,,,,,,,
6647b26b402c0a3c5ab8b0cd,SCR,2024-06-20_13h28.40.192,LearnStrategy,2023.2.3,Linux x86_64,60.97560976,3,1,14,0.263987541,0.399872293,1,0,0,1.168,Peridotite_07,7,07,6,6,1.168,2,04,-0.345936855,-0.242599646,1,0,0,2.5713,Andesite_rect,1,2.571,0,13,0,13,0,1,,,,,,,,,,,,,
6647b26b402c0a3c5ab8b0cd,SCR,2024-06-20_13h28.40.192,LearnStrategy,2023.2.3,Linux x86_64,60.97560976,3,1,15,0.224948088,0.410241425,1,0,0,1.3835,Peridotite_07,7,07,6,6,1.384,8,13,0.094131947,-0.41330568,1,0,0,1.4388,Peridotite_rect,7,1.439,1,14,0,14,0,1,,,,,,,,,,,,,
6647b26b402c0a3c5ab8b0cd,SCR,2024-06-20_13h28.40.192,LearnStrategy,2023.2.3,Linux x86_64,60.97560976,3,1,16,0.413949172,0.43408516,1,0,0,1.1066,Diorite_11,3,11,6,7,1.107,8,05,-0.168034871,-0.251993259,1,0,0,2.4651,Basalt_rect,2,2.465,0,15,0,15,0,1,,,,,,,,,,,,,
6647b26b402c0a3c5ab8b0cd,SCR,2024-06-20_13h28.40.192,LearnStrategy,2023.2.3,Linux x86_64,60.97560976,3,2,1,,,,,,,,8,14,,,,,,,,,,,,,8,1.964,1,,,,,,0.333426396,-0.398462693,1,0,0,1.9642,Pumice_rect,0,0,0,0,1,
6647b26b402c0a3c5ab8b0cd,SCR,2024-06-20_13h28.40.192,LearnStrategy,2023.2.3,Linux x86_64,60.97560976,3,2,2,,,,,,,,3,10,,,,,,,,,,,,,3,4.73,1,,,,,,0.100073099,-0.253950834,1,0,0,4.7298,Diorite_rect,1,0,1,0,1,
6647b26b402c0a3c5ab8b0cd,SCR,2024-06-20_13h28.40.192,LearnStrategy,2023.2.3,Linux x86_64,60.97560976,3,2,3,,,,,,,,7,10,,,,,,,,,,,,,7,2.382,1,,,,,,0.090585391,-0.402683496,1,0,0,2.3815,Peridotite_rect,2,0,2,0,1,
6647b26b402c0a3c5ab8b0cd,SCR,2024-06-20_13h28.40.192,LearnStrategy,2023.2.3,Linux x86_64,60.97560976,3,2,4,,,,,,,,5,14,,,,,,,,,,,,,5,1.191,1,,,,,,-0.402880549,-0.38476634,1,0,0,1.191,Obsidian_rect,3,0,3,0,1,
6647b26b402c0a3c5ab8b0cd,SCR,2024-06-20_13h28.40.192,LearnStrategy,2023.2.3,Linux x86_64,60.97560976,3,2,5,,,,,,,,2,16,,,,,,,,,,,,,2,2.111,1,,,,,,-0.158649286,-0.250128746,1,0,0,2.1114,Basalt_rect,4,0,4,0,1,
6647b26b402c0a3c5ab8b0cd,SCR,2024-06-20_13h28.40.192,LearnStrategy,2023.2.3,Linux x86_64,60.97560976,3,2,6,,,,,,,,6,05,,,,,,,,,,,,,1,6.069,0,,,,,,-0.430811723,-0.252026876,1,0,0,6.069,Andesite_rect,5,0,5,0,1,
6647b26b402c0a3c5ab8b0cd,SCR,2024-06-20_13h28.40.192,LearnStrategy,2023.2.3,Linux x86_64,60.97560976,3,2,7,,,,,,,,1,02,,,,,,,,,,,,,7,2.597,0,,,,,,0.114469767,-0.407706738,1,0,0,2.5969,Peridotite_rect,6,0,6,0,1,
6647b26b402c0a3c5ab8b0cd,SCR,2024-06-20_13h28.40.192,LearnStrategy,2023.2.3,Linux x86_64,60.97560976,3,2,8,,,,,,,,4,05,,,,,,,,,,,,,6,3.5,0,,,,,,-0.083317518,-0.403550069,1,0,0,3.4999,Pegmatite_rect,7,0,7,0,1,
6647b26b402c0a3c5ab8b0cd,SCR,2024-06-20_13h28.40.192,LearnStrategy,2023.2.3,Linux x86_64,60.97560976,3,2,9,,,,,,,,3,02,,,,,,,,,,,,,3,2.292,1,,,,,,0.131741206,-0.263689995,1,0,0,2.2919,Diorite_rect,8,0,8,0,1,
6647b26b402c0a3c5ab8b0cd,SCR,2024-06-20_13h28.40.192,LearnStrategy,2023.2.3,Linux x86_64,60.97560976,3,2,10,,,,,,,,1,04,,,,,,,,,,,,,2,1.783,0,,,,,,-0.090024153,-0.255782922,1,0,0,1.7828,Basalt_rect,9,0,9,0,1,
6647b26b402c0a3c5ab8b0cd,SCR,2024-06-20_13h28.40.192,LearnStrategy,2023.2.3,Linux x86_64,60.97560976,3,2,11,,,,,,,,4,14,,,,,,,,,,,,,2,1.134,0,,,,,,-0.090024153,-0.255782922,1,0,0,1.1344,Basalt_rect,10,0,10,0,1,
6647b26b402c0a3c5ab8b0cd,SCR,2024-06-20_13h28.40.192,LearnStrategy,2023.2.3,Linux x86_64,60.97560976,3,2,12,,,,,,,,2,01,,,,,,,,,,,,,4,3.685,0,,,,,,0.408214172,-0.245653788,1,0,0,3.6848,Gabbro_rect,11,0,11,0,1,
6647b26b402c0a3c5ab8b0cd,SCR,2024-06-20_13h28.40.192,LearnStrategy,2023.2.3,Linux x86_64,60.97560976,3,2,13,,,,,,,,8,02,,,,,,,,,,,,,8,4.378,1,,,,,,0.324448824,-0.409844637,1,0,0,4.3784,Pumice_rect,12,0,12,0,1,
6647b26b402c0a3c5ab8b0cd,SCR,2024-06-20_13h28.40.192,LearnStrategy,2023.2.3,Linux x86_64,60.97560976,3,2,14,,,,,,,,5,07,,,,,,,,,,,,,5,1.603,1,,,,,,-0.374541203,-0.402947823,1,0,0,1.603,Obsidian_rect,13,0,13,0,1,
6647b26b402c0a3c5ab8b0cd,SCR,2024-06-20_13h28.40.192,LearnStrategy,2023.2.3,Linux x86_64,60.97560976,3,2,15,,,,,,,,7,14,,,,,,,,,,,,,6,4.287,0,,,,,,-0.08381629,-0.405805985,1,0,0,4.287,Pegmatite_rect,14,0,14,0,1,
6647b26b402c0a3c5ab8b0cd,SCR,2024-06-20_13h28.40.192,LearnStrategy,2023.2.3,Linux x86_64,60.97560976,3,2,16,,,,,,,,6,13,,,,,,,,,,,,,7,1.872,0,,,,,,0.080906789,-0.409081697,1,0,0,1.8722,Peridotite_rect,15,0,15,0,1,
6647b26b402c0a3c5ab8b0cd,SCR,2024-06-20_13h28.40.192,LearnStrategy,2023.2.3,Linux x86_64,60.97560976,4,1,1,-0.590835094,0.412112991,1,0,0,1.4321,Andesite_14,1,14,6,1,1.432,3,08,-0.089935859,-0.404457728,1,0,0,3.4158,Pegmatite_rect,6,3.416,0,0,0,0,0,1,,,,,,,,,,,,,
6647b26b402c0a3c5ab8b0cd,SCR,2024-06-20_13h28.40.192,LearnStrategy,2023.2.3,Linux x86_64,60.97560976,4,1,2,-0.59431837,0.408285797,1,0,0,1.1139,Andesite_14,1,14,6,1,1.114,1,10,-0.440326969,-0.261562109,1,0,0,1.4203,Andesite_rect,1,1.42,1,1,0,1,0,1,,,,,,,,,,,,,
6647b26b402c0a3c5ab8b0cd,SCR,2024-06-20_13h28.40.192,LearnStrategy,2023.2.3,Linux x86_64,60.97560976,4,1,3,-0.420180639,0.406392237,1,0,0,0.8136,Pumice_05,8,05,6,2,0.814,2,04,0.433044036,-0.395587126,1,0,1,1.9232,Pumice_rect,8,1.923,1,2,0,2,0,1,,,,,,,,,,,,,
6647b26b402c0a3c5ab8b0cd,SCR,2024-06-20_13h28.40.192,LearnStrategy,2023.2.3,Linux x86_64,60.97560976,4,1,4,-0.230107307,0.442579066,1,0,1,0.9065,Gabbro_15,4,15,6,3,0.906,1,09,-0.160795371,-0.268096368,1,0,1,2.2703,Basalt_rect,2,2.27,0,3,0,3,0,1,,,,,,,,,,,,,
6647b26b402c0a3c5ab8b0cd,SCR,2024-06-20_13h28.40.192,LearnStrategy,2023.2.3,Linux x86_64,60.97560976,4,1,5,-0.583720466,-0.420639992,1,0,1,1.0829,Pumice_10,8,10,1,1,1.083,6,07,0.440720956,-0.401820024,1,0,1,1.7246,Pumice_rect,8,1.725,1,4,0,4,0,1,,,,,,,,,,,,,
6647b26b402c0a3c5ab8b0cd,SCR,2024-06-20_13h28.40.192,LearnStrategy,2023.2.3,Linux x86_64,60.97560976,4,1,6,-0.373908281,-0.383320491,1,0,1,1.15,Pegmatite_08,6,08,1,2,1.15,1,16,-0.373908281,-0.383320491,0,0,1,0.0734,Obsidian_rect,5,0.073,0,5,0,5,0,1,,,,,,,,,,,,,
6647b26b402c0a3c5ab8b0cd,SCR,2024-06-20_13h28.40.192,LearnStrategy,2023.2.3,Linux x86_64,60.97560976,4,1,7,-0.234669566,-0.406653643,1,0,1,1.1882,Obsidian_08,5,08,1,3,1.188,8,13,-0.234669566,-0.406653643,0,0,1,0.1281,Pegmatite_rect,6,0.128,0,6,0,6,0,1,,,,,,,,,,,,,
6647b26b402c0a3c5ab8b0cd,SCR,2024-06-20_13h28.40.192,LearnStrategy,2023.2.3,Linux x86_64,60.97560976,4,1,8,-0.080133518,-0.434726954,1,0,1,2.3373,Basalt_10,2,10,1,4,2.337,4,10,0.383159161,-0.244047801,1,0,1,4.0747,Gabbro_rect,4,4.075,0,7,0,7,0,1,,,,,,,,,,,,,
6647b26b402c0a3c5ab8b0cd,SCR,2024-06-20_13h28.40.192,LearnStrategy,2023.2.3,Linux x86_64,60.97560976,4,1,9,0.05969278,-0.44005084,1,0,1,1.3249,Obsidian_11,5,11,1,5,1.325,2,12,-0.418069005,-0.393103997,1,0,1,1.0836,Obsidian_rect,5,1.084,1,8,0,8,0,1,,,,,,,,,,,,,
6647b26b402c0a3c5ab8b0cd,SCR,2024-06-20_13h28.40.192,LearnStrategy,2023.2.3,Linux x86_64,60.97560976,4,1,10,0.250329336,-0.437679211,1,0,1,1.0687,Peridotite_13,7,13,1,6,1.069,8,10,-0.116820812,-0.401352326,1,0,1,1.43,Pegmatite_rect,6,1.43,0,9,0,9,0,1,,,,,,,,,,,,,
6647b26b402c0a3c5ab8b0cd,SCR,2024-06-20_13h28.40.192,LearnStrategy,2023.2.3,Linux x86_64,60.97560976,4,1,11,0.222836336,-0.431860924,1,0,1,1.5293,Peridotite_13,7,13,1,6,1.529,6,08,0.09694171,-0.401809216,1,0,1,1.7374,Peridotite_rect,7,1.737,1,10,0,10,0,1,,,,,,,,,,,,,
6647b26b402c0a3c5ab8b0cd,SCR,2024-06-20_13h28.40.192,LearnStrategy,2023.2.3,Linux x86_64,60.97560976,4,1,12,0.229907592,-0.09146893,1,0,1,4.7345,Peridotite_02,7,02,3,6,4.735,7,02,0.068658034,-0.393479665,1,0,1,6.8602,Peridotite_rect,7,6.86,1,11,0,11,0,1,,,,,,,,,,,,,
6647b26b402c0a3c5ab8b0cd,SCR,2024-06-20_13h28.40.192,LearnStrategy,2023.2.3,Linux x86_64,60.97560976,4,1,13,-0.572338661,-0.289277077,1,0,1,2.437,Gabbro_12,4,12,2,1,2.437,4,12,-0.44374756,-0.256891251,1,0,1,2.6172,Andesite_rect,1,2.617,0,12,0,12,0,1,,,,,,,,,,,,,
6647b26b402c0a3c5ab8b0cd,SCR,2024-06-20_13h28.40.192,LearnStrategy,2023.2.3,Linux x86_64,60.97560976,4,1,14,0.576325417,0.411166449,1,0,1,1.5171,Pegmatite_16,6,16,6,8,1.517,6,16,0.400291363,-0.257132689,1,0,1,6.4168,Gabbro_rect,4,6.417,0,13,0,13,0,1,,,,,,,,,,,,,
6647b26b402c0a3c5ab8b0cd,SCR,2024-06-20_13h28.40.192,LearnStrategy,2023.2.3,Linux x86_64,60.97560976,4,1,15,-0.368905862,0.249193052,1,0,1,1.1645,Gabbro_16,4,16,5,2,1.165,4,16,-0.122219721,-0.254529556,1,0,1,3.0021,Basalt_rect,2,3.002,0,14,0,14,0,1,,,,,,,,,,,,,
6647b26b402c0a3c5ab8b0cd,SCR,2024-06-20_13h28.40.192,LearnStrategy,2023.2.3,Linux x86_64,60.97560976,4,1,16,0.579370022,-0.402296146,1,0,1,1.6439,Peridotite_05,7,05,1,8,1.644,7,05,0.150172075,-0.257744869,1,0,1,5.5382,Diorite_rect,3,5.538,0,15,0,15,0,1,,,,,,,,,,,,,
6647b26b402c0a3c5ab8b0cd,SCR,2024-06-20_13h28.40.192,LearnStrategy,2023.2.3,Linux x86_64,60.97560976,4,2,1,,,,,,,,3,02,,,,,,,,,,,,,7,4.864,0,,,,,,0.090325912,-0.412019889,1,0,1,4.8638,Peridotite_rect,0,0,0,0,1,
6647b26b402c0a3c5ab8b0cd,SCR,2024-06-20_13h28.40.192,LearnStrategy,2023.2.3,Linux x86_64,60.97560976,4,2,2,,,,,,,,7,08,,,,,,,,,,,,,7,4.096,1,,,,,,0.051138639,-0.412083785,1,0,1,4.0957,Peridotite_rect,1,0,1,0,1,
6647b26b402c0a3c5ab8b0cd,SCR,2024-06-20_13h28.40.192,LearnStrategy,2023.2.3,Linux x86_64,60.97560976,4,2,3,,,,,,,,4,05,,,,,,,,,,,,,1,3.096,0,,,,,,-0.332717061,-0.237063964,1,0,1,3.0955,Andesite_rect,2,0,2,0,1,
6647b26b402c0a3c5ab8b0cd,SCR,2024-06-20_13h28.40.192,LearnStrategy,2023.2.3,Linux x86_64,60.97560976,4,2,4,,,,,,,,5,07,,,,,,,,,,,,,5,1.314,1,,,,,,-0.339185715,-0.403226693,1,0,1,1.3137,Obsidian_rect,3,0,3,0,1,
6647b26b402c0a3c5ab8b0cd,SCR,2024-06-20_13h28.40.192,LearnStrategy,2023.2.3,Linux x86_64,60.97560976,4,2,5,,,,,,,,3,06,,,,,,,,,,,,,4,5.234,0,,,,,,0.425406218,-0.259009997,1,0,1,5.2336,Gabbro_rect,4,0,4,0,1,
6647b26b402c0a3c5ab8b0cd,SCR,2024-06-20_13h28.40.192,LearnStrategy,2023.2.3,Linux x86_64,60.97560976,4,2,6,,,,,,,,8,14,,,,,,,,,,,,,8,1.418,1,,,,,,0.432697773,-0.388061523,1,0,1,1.4185,Pumice_rect,5,0,5,0,1,
6647b26b402c0a3c5ab8b0cd,SCR,2024-06-20_13h28.40.192,LearnStrategy,2023.2.3,Linux x86_64,60.97560976,4,2,7,,,,,,,,1,06,,,,,,,,,,,,,3,3.303,0,,,,,,0.217689753,-0.264711062,1,0,1,3.3033,Diorite_rect,6,0,6,0,1,
6647b26b402c0a3c5ab8b0cd,SCR,2024-06-20_13h28.40.192,LearnStrategy,2023.2.3,Linux x86_64,60.97560976,4,2,8,,,,,,,,6,05,,,,,,,,,,,,,3,4.687,0,,,,,,0.127464374,-0.264711062,1,0,1,4.6873,Diorite_rect,7,0,7,0,1,
6647b26b402c0a3c5ab8b0cd,SCR,2024-06-20_13h28.40.192,LearnStrategy,2023.2.3,Linux x86_64,60.97560976,4,2,9,,,,,,,,4,01,,,,,,,,,,,,,1,5.251,0,,,,,,-0.315807263,-0.263979673,1,0,1,5.2509,Andesite_rect,8,0,8,0,1,
6647b26b402c0a3c5ab8b0cd,SCR,2024-06-20_13h28.40.192,LearnStrategy,2023.2.3,Linux x86_64,60.97560976,4,2,10,,,,,,,,7,10,,,,,,,,,,,,,6,2.025,0,,,,,,-0.120108445,-0.408179204,1,0,1,2.0246,Pegmatite_rect,9,0,9,0,1,
6647b26b402c0a3c5ab8b0cd,SCR,2024-06-20_13h28.40.192,LearnStrategy,2023.2.3,Linux x86_64,60.97560976,4,2,11,,,,,,,,2,05,,,,,,,,,,,,,4,4.613,0,,,,,,0.395018657,-0.257169485,1,0,1,4.6131,Gabbro_rect,10,0,10,0,1,
6647b26b402c0a3c5ab8b0cd,SCR,2024-06-20_13h28.40.192,LearnStrategy,2023.2.3,Linux x86_64,60.97560976,4,2,12,,,,,,,,6,11,,,,,,,,,,,,,1,5.495,0,,,,,,-0.33613046,-0.254670858,1,0,1,5.4945,Andesite_rect,11,0,11,0,1,
6647b26b402c0a3c5ab8b0cd,SCR,2024-06-20_13h28.40.192,LearnStrategy,2023.2.3,Linux x86_64,60.97560976,4,2,13,,,,,,,,2,06,,,,,,,,,,,,,4,2.519,0,,,,,,0.418765227,-0.257532199,1,0,1,2.5193,Gabbro_rect,12,0,12,0,1,
6647b26b402c0a3c5ab8b0cd,SCR,2024-06-20_13h28.40.192,LearnStrategy,2023.2.3,Linux x86_64,60.97560976,4,2,14,,,,,,,,1,01,,,,,,,,,,,,,1,7.022,1,,,,,,-0.329844912,-0.261884212,1,0,1,7.0222,Andesite_rect,13,0,13,0,1,
6647b26b402c0a3c5ab8b0cd,SCR,2024-06-20_13h28.40.192,LearnStrategy,2023.2.3,Linux x86_64,60.97560976,4,2,15,,,,,,,,5,16,,,,,,,,,,,,,5,1.095,1,,,,,,-0.333487391,-0.411405484,1,0,1,1.0947,Obsidian_rect,14,0,14,0,1,
6647b26b402c0a3c5ab8b0cd,SCR,2024-06-20_13h28.40.192,LearnStrategy,2023.2.3,Linux x86_64,60.97560976,4,2,16,,,,,,,,8,09,,,,,,,,,,,,,8,1.535,1,,,,,,0.416876396,-0.406370083,1,0,1,1.5354,Pumice_rect,15,0,15,0,1,
6647b26b402c0a3c5ab8b0cd,SCR,2024-06-20_13h28.40.192,LearnStrategy,2023.2.3,Linux x86_64,60.97560976,5,1,1,0.064119975,0.388016065,1,0,1,1.9843,Andesite_07,1,07,6,5,1.984,1,07,0.154173215,-0.416333596,1,0,1,7.4722,Peridotite_rect,7,7.472,0,0,0,0,0,1,,,,,,,,,,,,,
6647b26b402c0a3c5ab8b0cd,SCR,2024-06-20_13h28.40.192,LearnStrategy,2023.2.3,Linux x86_64,60.97560976,5,1,2,0.370574236,0.233620346,1,0,1,1.083,Basalt_04,2,04,5,7,1.083,2,04,0.356944958,-0.243504604,1,0,1,1.4052,Gabbro_rect,4,1.405,0,1,0,1,0,1,,,,,,,,,,,,,
6647b26b402c0a3c5ab8b0cd,SCR,2024-06-20_13h28.40.192,LearnStrategy,2023.2.3,Linux x86_64,60.97560976,5,1,3,-0.397508144,-0.428322872,1,0,1,1.2633,Pegmatite_08,6,08,1,2,1.263,6,08,-0.136003256,-0.406371673,1,0,1,1.6639,Pegmatite_rect,6,1.664,1,2,0,2,0,1,,,,,,,,,,,,,
6647b26b402c0a3c5ab8b0cd,SCR,2024-06-20_13h28.40.192,LearnStrategy,2023.2.3,Linux x86_64,60.97560976,5,1,4,-0.391740561,-0.390599807,1,0,1,1.0983,Pegmatite_08,6,08,1,2,1.098,6,08,-0.390801748,-0.391793728,0,0,1,0.0723,Obsidian_rect,5,0.072,0,3,0,3,0,1,,,,,,,,,,,,,
6647b26b402c0a3c5ab8b0cd,SCR,2024-06-20_13h28.40.192,LearnStrategy,2023.2.3,Linux x86_64,60.97560976,5,1,5,-0.218240341,-0.077241778,1,0,1,1.1532,Basalt_14,2,14,3,3,1.153,2,14,0.375637611,-0.395466884,1,0,1,2.8657,Pumice_rect,8,2.866,0,4,0,4,0,1,,,,,,,,,,,,,
6647b26b402c0a3c5ab8b0cd,SCR,2024-06-20_13h28.40.192,LearnStrategy,2023.2.3,Linux x86_64,60.97560976,5,1,6,0.38293306,0.076729258,1,0,1,1.0647,Andesite_10,1,10,4,7,1.065,1,10,0.362818082,-0.405379693,1,0,1,2.0362,Pumice_rect,8,2.036,0,5,0,5,0,1,,,,,,,,,,,,,
6647b26b402c0a3c5ab8b0cd,SCR,2024-06-20_13h28.40.192,LearnStrategy,2023.2.3,Linux x86_64,60.97560976,5,1,7,-0.06080087,0.386154304,1,0,1,1.1823,Gabbro_10,4,10,6,4,1.182,4,10,-0.322332025,-0.235762199,1,0,1,3.371,Andesite_rect,1,3.371,0,6,0,6,0,1,,,,,,,,,,,,,
6647b26b402c0a3c5ab8b0cd,SCR,2024-06-20_13h28.40.192,LearnStrategy,2023.2.3,Linux x86_64,60.97560976,5,1,8,-0.367652973,0.266079346,1,0,1,1.6784,Gabbro_16,4,16,5,2,1.678,4,16,-0.160305897,-0.25492533,1,0,1,2.5205,Basalt_rect,2,2.52,0,7,0,7,0,1,,,,,,,,,,,,,
6647b26b402c0a3c5ab8b0cd,SCR,2024-06-20_13h28.40.192,LearnStrategy,2023.2.3,Linux x86_64,60.97560976,5,1,9,0.242960533,-0.415612062,1,0,1,1.2309,Peridotite_13,7,13,1,6,1.231,7,13,0.242960533,-0.415612062,0,0,1,0.0739,Peridotite_rect,7,0.074,1,8,0,8,0,1,,,,,,,,,,,,,
6647b26b402c0a3c5ab8b0cd,SCR,2024-06-20_13h28.40.192,LearnStrategy,2023.2.3,Linux x86_64,60.97560976,5,1,10,0.065175533,-0.112317602,1,0,1,0.992,Gabbro_08,4,08,3,5,0.992,4,08,-0.114189784,-0.243928909,1,0,1,5.8147,Basalt_rect,2,5.815,0,9,0,9,0,1,,,,,,,,,,,,,
6647b26b402c0a3c5ab8b0cd,SCR,2024-06-20_13h28.40.192,LearnStrategy,2023.2.3,Linux x86_64,60.97560976,5,1,11,0.258093198,0.385290027,1,0,1,1.2202,Peridotite_07,7,07,6,6,1.22,7,07,0.068748156,-0.414141019,1,0,1,2.1182,Peridotite_rect,7,2.118,1,10,0,10,0,1,,,,,,,,,,,,,
6647b26b402c0a3c5ab8b0cd,SCR,2024-06-20_13h28.40.192,LearnStrategy,2023.2.3,Linux x86_64,60.97560976,5,1,12,-0.578989069,0.390410771,1,0,1,1.8024,Andesite_14,1,14,6,1,1.802,1,14,-0.117799441,-0.414851348,1,0,1,3.0401,Pegmatite_rect,6,3.04,0,11,0,11,0,1,,,,,,,,,,,,,
6647b26b402c0a3c5ab8b0cd,SCR,2024-06-20_13h28.40.192,LearnStrategy,2023.2.3,Linux x86_64,60.97560976,5,1,13,-0.407607118,0.39186727,1,0,1,0.9221,Pumice_05,8,05,6,2,0.922,8,05,0.423484325,-0.40501078,1,0,1,1.6942,Pumice_rect,8,1.694,1,12,0,12,0,1,,,,,,,,,,,,,
6647b26b402c0a3c5ab8b0cd,SCR,2024-06-20_13h28.40.192,LearnStrategy,2023.2.3,Linux x86_64,60.97560976,5,1,14,-0.056149483,0.227335771,1,0,1,1.2208,Diorite_13,3,13,5,4,1.221,3,13,0.083029509,-0.410666068,1,0,1,2.2249,Peridotite_rect,7,2.225,0,13,0,13,0,1,,,,,,,,,,,,,
6647b26b402c0a3c5ab8b0cd,SCR,2024-06-20_13h28.40.192,LearnStrategy,2023.2.3,Linux x86_64,60.97560976,5,1,15,-0.265239596,0.274186293,1,0,1,0.9987,Diorite_16,3,16,5,3,0.999,3,16,-0.389136831,-0.240240574,1,0,1,2.2681,Andesite_rect,1,2.268,0,14,0,14,0,1,,,,,,,,,,,,,
6647b26b402c0a3c5ab8b0cd,SCR,2024-06-20_13h28.40.192,LearnStrategy,2023.2.3,Linux x86_64,60.97560976,5,1,16,-0.584625125,0.229982058,1,0,1,1.2556,Pegmatite_15,6,15,5,1,1.256,6,15,-0.190273762,-0.418036064,1,0,1,2.0333,Pegmatite_rect,6,2.033,1,15,0,15,0,1,,,,,,,,,,,,,
6647b26b402c0a3c5ab8b0cd,SCR,2024-06-20_13h28.40.192,LearnStrategy,2023.2.3,Linux x86_64,60.97560976,5,2,1,,,,,,,,8,08,,,,,,,,,,,,,8,2.429,1,,,,,,0.349059661,-0.385199785,1,0,1,2.4287,Pumice_rect,0,0,0,0,1,
6647b26b402c0a3c5ab8b0cd,SCR,2024-06-20_13h28.40.192,LearnStrategy,2023.2.3,Linux x86_64,60.97560976,5,2,2,,,,,,,,6,09,,,,,,,,,,,,,6,2.458,1,,,,,,-0.103983402,-0.398752928,1,0,1,2.458,Pegmatite_rect,1,0,1,0,1,
6647b26b402c0a3c5ab8b0cd,SCR,2024-06-20_13h28.40.192,LearnStrategy,2023.2.3,Linux x86_64,60.97560976,5,2,3,,,,,,,,3,15,,,,,,,,,,,,,3,6.257,1,,,,,,0.126814206,-0.260241032,1,0,1,6.257,Diorite_rect,2,0,2,0,1,
6647b26b402c0a3c5ab8b0cd,SCR,2024-06-20_13h28.40.192,LearnStrategy,2023.2.3,Linux x86_64,60.97560976,5,2,4,,,,,,,,4,09,,,,,,,,,,,,,2,3.03,0,,,,,,-0.075992425,-0.260796706,1,0,1,3.0304,Basalt_rect,3,0,3,0,1,
6647b26b402c0a3c5ab8b0cd,SCR,2024-06-20_13h28.40.192,LearnStrategy,2023.2.3,Linux x86_64,60.97560976,5,2,5,,,,,,,,7,14,,,,,,,,,,,,,6,2.14,0,,,,,,-0.098621527,-0.4088854,1,0,1,2.1401,Pegmatite_rect,4,0,4,0,1,
6647b26b402c0a3c5ab8b0cd,SCR,2024-06-20_13h28.40.192,LearnStrategy,2023.2.3,Linux x86_64,60.97560976,5,2,6,,,,,,,,8,02,,,,,,,,,,,,,8,1.534,1,,,,,,0.460830053,-0.416745742,1,0,1,1.5338,Pumice_rect,5,0,5,0,1,
6647b26b402c0a3c5ab8b0cd,SCR,2024-06-20_13h28.40.192,LearnStrategy,2023.2.3,Linux x86_64,60.97560976,5,2,7,,,,,,,,2,16,,,,,,,,,,,,,2,1.931,1,,,,,,-0.152726968,-0.262893915,1,0,1,1.9307,Basalt_rect,6,0,6,0,1,
6647b26b402c0a3c5ab8b0cd,SCR,2024-06-20_13h28.40.192,LearnStrategy,2023.2.3,Linux x86_64,60.97560976,5,2,8,,,,,,,,3,10,,,,,,,,,,,,,4,4.593,0,,,,,,0.371467829,-0.259378433,1,0,1,4.5932,Gabbro_rect,7,0,7,0,1,
6647b26b402c0a3c5ab8b0cd,SCR,2024-06-20_13h28.40.192,LearnStrategy,2023.2.3,Linux x86_64,60.97560976,5,2,9,,,,,,,,5,14,,,,,,,,,,,,,5,1.416,1,,,,,,-0.458946188,-0.400393883,1,0,1,1.4157,Obsidian_rect,8,0,8,0,1,
6647b26b402c0a3c5ab8b0cd,SCR,2024-06-20_13h28.40.192,LearnStrategy,2023.2.3,Linux x86_64,60.97560976,5,2,10,,,,,,,,4,14,,,,,,,,,,,,,2,1.84,0,,,,,,-0.14345789,-0.263699532,1,0,1,1.8401,Basalt_rect,9,0,9,0,1,
6647b26b402c0a3c5ab8b0cd,SCR,2024-06-20_13h28.40.192,LearnStrategy,2023.2.3,Linux x86_64,60.97560976,5,2,11,,,,,,,,1,11,,,,,,,,,,,,,4,2.758,0,,,,,,0.333177169,-0.257982334,1,0,1,2.7576,Gabbro_rect,10,0,10,0,1,
6647b26b402c0a3c5ab8b0cd,SCR,2024-06-20_13h28.40.192,LearnStrategy,2023.2.3,Linux x86_64,60.97560976,5,2,12,,,,,,,,1,04,,,,,,,,,,,,,1,1.938,1,,,,,,-0.418071508,-0.253883839,1,0,1,1.9378,Andesite_rect,11,0,11,0,1,
6647b26b402c0a3c5ab8b0cd,SCR,2024-06-20_13h28.40.192,LearnStrategy,2023.2.3,Linux x86_64,60.97560976,5,2,13,,,,,,,,7,12,,,,,,,,,,,,,6,3.989,0,,,,,,-0.064349413,-0.407849868,1,0,1,3.9891,Pegmatite_rect,12,0,12,0,1,
6647b26b402c0a3c5ab8b0cd,SCR,2024-06-20_13h28.40.192,LearnStrategy,2023.2.3,Linux x86_64,60.97560976,5,2,14,,,,,,,,6,03,,,,,,,,,,,,,7,1.306,0,,,,,,0.078504403,-0.407936653,1,0,1,1.3059,Peridotite_rect,13,0,13,0,1,
6647b26b402c0a3c5ab8b0cd,SCR,2024-06-20_13h28.40.192,LearnStrategy,2023.2.3,Linux x86_64,60.97560976,5,2,15,,,,,,,,5,10,,,,,,,,,,,,,5,1.058,1,,,,,,-0.337412675,-0.390357176,1,0,1,1.058,Obsidian_rect,14,0,14,0,1,
6647b26b402c0a3c5ab8b0cd,SCR,2024-06-20_13h28.40.192,LearnStrategy,2023.2.3,Linux x86_64,60.97560976,5,2,16,,,,,,,,2,09,,,,,,,,,,,,,2,1.543,1,,,,,,-0.171849251,-0.264891704,1,0,1,1.5432,Basalt_rect,15,0,15,0,1,
6647b26b402c0a3c5ab8b0cd,SCR,2024-06-20_13h28.40.192,LearnStrategy,2023.2.3,Linux x86_64,60.97560976,6,1,1,-0.395337145,-0.268818299,1,0,1,1.8652,Peridotite_04,7,04,2,2,1.865,7,04,-0.395337145,-0.268818299,0,0,1,0.0834,Andesite_rect,1,0.083,0,0,0,0,0,1,,,,,,,,,,,,,
6647b26b402c0a3c5ab8b0cd,SCR,2024-06-20_13h28.40.192,LearnStrategy,2023.2.3,Linux x86_64,60.97560976,6,1,2,-0.244248271,0.438119859,1,0,1,1.5063,Gabbro_15,4,15,6,3,1.506,4,15,0.324731668,-0.239206076,1,0,1,2.8776,Gabbro_rect,4,2.878,1,1,0,1,0,1,,,,,,,,,,,,,
6647b26b402c0a3c5ab8b0cd,SCR,2024-06-20_13h28.40.192,LearnStrategy,2023.2.3,Linux x86_64,60.97560976,6,1,3,-0.594710847,0.238210857,1,0,1,1.1251,Pegmatite_15,6,15,5,1,1.125,6,15,-0.145556132,-0.398483356,1,0,1,1.2004,Pegmatite_rect,6,1.2,1,2,0,2,0,1,,,,,,,,,,,,,
6647b26b402c0a3c5ab8b0cd,SCR,2024-06-20_13h28.40.192,LearnStrategy,2023.2.3,Linux x86_64,60.97560976,6,1,4,0.54936711,0.440979963,1,0,1,1.8437,Pegmatite_16,6,16,6,8,1.844,6,16,0.147349834,-0.415076176,1,0,1,1.8891,Peridotite_rect,7,1.889,0,3,0,3,0,1,,,,,,,,,,,,,
6647b26b402c0a3c5ab8b0cd,SCR,2024-06-20_13h28.40.192,LearnStrategy,2023.2.3,Linux x86_64,60.97560976,6,1,5,-0.536240697,-0.245616515,1,0,1,1.1985,Gabbro_12,4,12,2,1,1.198,4,12,0.06469806,-0.410161813,1,0,1,1.7064,Peridotite_rect,7,1.706,0,4,0,4,0,1,,,,,,,,,,,,,
6647b26b402c0a3c5ab8b0cd,SCR,2024-06-20_13h28.40.192,LearnStrategy,2023.2.3,Linux x86_64,60.97560976,6,1,6,-0.435720801,0.077808301,1,0,1,1.0732,Basalt_02,2,02,4,2,1.073,2,02,-0.169557095,-0.244722525,1,0,1,1.6273,Basalt_rect,2,1.627,1,5,0,5,0,1,,,,,,,,,,,,,
6647b26b402c0a3c5ab8b0cd,SCR,2024-06-20_13h28.40.192,LearnStrategy,2023.2.3,Linux x86_64,60.97560976,6,1,7,0.201349974,-0.422037681,1,0,1,1.2661,Peridotite_13,7,13,1,6,1.266,7,13,-0.098767996,-0.397139152,1,0,1,1.6038,Pegmatite_rect,6,1.604,0,6,0,6,0,1,,,,,,,,,,,,,
6647b26b402c0a3c5ab8b0cd,SCR,2024-06-20_13h28.40.192,LearnStrategy,2023.2.3,Linux x86_64,60.97560976,6,1,8,0.066579819,0.230978549,1,0,1,0.9996,Diorite_09,3,09,5,5,1,3,09,-0.061294635,-0.396152814,1,0,1,1.8632,Pegmatite_rect,6,1.863,0,7,0,7,0,1,,,,,,,,,,,,,
6647b26b402c0a3c5ab8b0cd,SCR,2024-06-20_13h28.40.192,LearnStrategy,2023.2.3,Linux x86_64,60.97560976,6,1,9,0.574456692,0.102067033,1,0,1,1.0469,Andesite_16,1,16,4,8,1.047,1,16,-0.120833317,-0.408024391,1,0,1,1.4165,Pegmatite_rect,6,1.417,0,8,0,8,0,1,,,,,,,,,,,,,
6647b26b402c0a3c5ab8b0cd,SCR,2024-06-20_13h28.40.192,LearnStrategy,2023.2.3,Linux x86_64,60.97560976,6,1,10,-0.416935523,0.387723227,1,0,1,1.5217,Pumice_05,8,05,6,2,1.522,8,05,0.428565105,-0.394076109,1,0,1,1.208,Pumice_rect,8,1.208,1,9,0,9,0,1,,,,,,,,,,,,,
6647b26b402c0a3c5ab8b0cd,SCR,2024-06-20_13h28.40.192,LearnStrategy,2023.2.3,Linux x86_64,60.97560976,6,1,11,0.598520756,0.081497749,1,0,1,1.2747,Andesite_16,1,16,4,8,1.275,1,16,0.104627848,-0.40336283,1,0,1,1.2003,Peridotite_rect,7,1.2,0,10,0,10,0,1,,,,,,,,,,,,,
6647b26b402c0a3c5ab8b0cd,SCR,2024-06-20_13h28.40.192,LearnStrategy,2023.2.3,Linux x86_64,60.97560976,6,1,12,-0.364367763,-0.442809184,1,0,1,1.2494,Pegmatite_08,6,08,1,2,1.249,6,08,-0.157909314,-0.410947005,1,0,1,1.0299,Pegmatite_rect,6,1.03,1,11,0,11,0,1,,,,,,,,,,,,,
6647b26b402c0a3c5ab8b0cd,SCR,2024-06-20_13h28.40.192,LearnStrategy,2023.2.3,Linux x86_64,60.97560976,6,1,13,-0.359293024,0.244301736,1,0,1,1.2759,Gabbro_16,4,16,5,2,1.276,4,16,-0.198641857,-0.270719131,1,0,1,2.2161,Basalt_rect,2,2.216,0,12,0,12,0,1,,,,,,,,,,,,,
6647b26b402c0a3c5ab8b0cd,SCR,2024-06-20_13h28.40.192,LearnStrategy,2023.2.3,Linux x86_64,60.97560976,6,1,14,-0.068283478,-0.0779411,1,0,1,0.8404,Peridotite_15,7,15,3,4,0.84,7,15,-0.121751388,-0.392670631,1,0,1,1.2598,Pegmatite_rect,6,1.26,0,13,0,13,0,1,,,,,,,,,,,,,
6647b26b402c0a3c5ab8b0cd,SCR,2024-06-20_13h28.40.192,LearnStrategy,2023.2.3,Linux x86_64,60.97560976,6,1,15,-0.20081679,-0.070648313,1,0,1,0.7386,Basalt_14,2,14,3,3,0.739,2,14,0.435328007,-0.402374585,1,0,1,1.6961,Pumice_rect,8,1.696,0,14,0,14,0,1,,,,,,,,,,,,,
6647b26b402c0a3c5ab8b0cd,SCR,2024-06-20_13h28.40.192,LearnStrategy,2023.2.3,Linux x86_64,60.97560976,6,1,16,0.090915044,0.220416685,1,0,1,1.3126,Diorite_09,3,09,5,5,1.313,3,09,0.078451236,-0.404503266,1,0,1,1.421,Peridotite_rect,7,1.421,0,15,0,15,0,1,,,,,,,,,,,,,
6647b26b402c0a3c5ab8b0cd,SCR,2024-06-20_13h28.40.192,LearnStrategy,2023.2.3,Linux x86_64,60.97560976,6,2,1,,,,,,,,8,03,,,,,,,,,,,,,8,1.733,1,,,,,,0.32395347,-0.407386541,1,0,1,1.7333,Pumice_rect,0,0,0,0,1,
6647b26b402c0a3c5ab8b0cd,SCR,2024-06-20_13h28.40.192,LearnStrategy,2023.2.3,Linux x86_64,60.97560976,6,2,2,,,,,,,,6,13,,,,,,,,,,,,,7,1.666,0,,,,,,0.104286353,-0.384371996,1,0,1,1.666,Peridotite_rect,1,0,1,0,1,
6647b26b402c0a3c5ab8b0cd,SCR,2024-06-20_13h28.40.192,LearnStrategy,2023.2.3,Linux x86_64,60.97560976,6,2,3,,,,,,,,2,01,,,,,,,,,,,,,4,4.757,0,,,,,,0.326429049,-0.26294438,1,0,1,4.7574,Gabbro_rect,2,0,2,0,1,
6647b26b402c0a3c5ab8b0cd,SCR,2024-06-20_13h28.40.192,LearnStrategy,2023.2.3,Linux x86_64,60.97560976,6,2,4,,,,,,,,8,06,,,,,,,,,,,,,8,1.796,1,,,,,,0.359809399,-0.407323996,1,0,1,1.7958,Pumice_rect,3,0,3,0,1,
6647b26b402c0a3c5ab8b0cd,SCR,2024-06-20_13h28.40.192,LearnStrategy,2023.2.3,Linux x86_64,60.97560976,6,2,5,,,,,,,,7,06,,,,,,,,,,,,,6,1.798,0,,,,,,-0.100034634,-0.398875713,1,0,1,1.7985,Pegmatite_rect,4,0,4,0,1,
6647b26b402c0a3c5ab8b0cd,SCR,2024-06-20_13h28.40.192,LearnStrategy,2023.2.3,Linux x86_64,60.97560976,6,2,6,,,,,,,,4,03,,,,,,,,,,,,,7,1.751,0,,,,,,0.112974087,-0.406490088,1,0,1,1.7514,Peridotite_rect,5,0,5,0,1,
6647b26b402c0a3c5ab8b0cd,SCR,2024-06-20_13h28.40.192,LearnStrategy,2023.2.3,Linux x86_64,60.97560976,6,2,7,,,,,,,,1,03,,,,,,,,,,,,,1,29.332,1,,,,,,-0.380680084,-0.267988443,1,0,1,29.3321,Andesite_rect,6,0,6,0,1,
6647b26b402c0a3c5ab8b0cd,SCR,2024-06-20_13h28.40.192,LearnStrategy,2023.2.3,Linux x86_64,60.97560976,6,2,8,,,,,,,,5,04,,,,,,,,,,,,,5,1.449,1,,,,,,-0.350224892,-0.39360261,1,0,1,1.4487,Obsidian_rect,7,0,7,0,1,
6647b26b402c0a3c5ab8b0cd,SCR,2024-06-20_13h28.40.192,LearnStrategy,2023.2.3,Linux x86_64,60.97560976,6,2,9,,,,,,,,2,11,,,,,,,,,,,,,2,2.857,1,,,,,,-0.153139909,-0.262178183,1,0,1,2.8574,Basalt_rect,8,0,8,0,1,
6647b26b402c0a3c5ab8b0cd,SCR,2024-06-20_13h28.40.192,LearnStrategy,2023.2.3,Linux x86_64,60.97560976,6,2,10,,,,,,,,3,14,,,,,,,,,,,,,7,2.124,0,,,,,,0.055232048,-0.406766812,1,0,1,2.1243,Peridotite_rect,9,0,9,0,1,
6647b26b402c0a3c5ab8b0cd,SCR,2024-06-20_13h28.40.192,LearnStrategy,2023.2.3,Linux x86_64,60.97560976,6,2,11,,,,,,,,7,16,,,,,,,,,,,,,6,1.33,0,,,,,,-0.105224927,-0.418858449,1,0,1,1.3305,Pegmatite_rect,10,0,10,0,1,
6647b26b402c0a3c5ab8b0cd,SCR,2024-06-20_13h28.40.192,LearnStrategy,2023.2.3,Linux x86_64,60.97560976,6,2,12,,,,,,,,1,02,,,,,,,,,,,,,8,1.51,0,,,,,,0.419763883,-0.394844453,1,0,1,1.51,Pumice_rect,11,0,11,0,1,
6647b26b402c0a3c5ab8b0cd,SCR,2024-06-20_13h28.40.192,LearnStrategy,2023.2.3,Linux x86_64,60.97560976,6,2,13,,,,,,,,3,12,,,,,,,,,,,,,6,2.161,0,,,,,,-0.079377174,-0.397802353,1,0,1,2.1615,Pegmatite_rect,12,0,12,0,1,
6647b26b402c0a3c5ab8b0cd,SCR,2024-06-20_13h28.40.192,LearnStrategy,2023.2.3,Linux x86_64,60.97560976,6,2,14,,,,,,,,6,06,,,,,,,,,,,,,1,2.803,0,,,,,,-0.344546477,-0.248031934,1,0,1,2.8034,Andesite_rect,13,0,13,0,1,
6647b26b402c0a3c5ab8b0cd,SCR,2024-06-20_13h28.40.192,LearnStrategy,2023.2.3,Linux x86_64,60.97560976,6,2,15,,,,,,,,4,13,,,,,,,,,,,,,2,2.355,0,,,,,,-0.150961002,-0.259971857,1,0,1,2.3548,Basalt_rect,14,0,14,0,1,
6647b26b402c0a3c5ab8b0cd,SCR,2024-06-20_13h28.40.192,LearnStrategy,2023.2.3,Linux x86_64,60.97560976,6,2,16,,,,,,,,5,02,,,,,,,,,,,,,5,1.246,1,,,,,,-0.307277679,-0.401937882,1,0,1,1.2463,Obsidian_rect,15,0,15,0,1,
6647b26b402c0a3c5ab8b0cd,SCR,2024-06-20_13h28.40.192,LearnStrategy,2023.2.3,Linux x86_64,60.97560976,7,1,1,0.539851189,0.248800516,1,0,1,1.1846,Pegmatite_07,6,07,5,8,1.185,6,07,0.168043375,-0.401523908,1,0,1,1.2691,Peridotite_rect,7,1.269,0,0,0,0,0,1,,,,,,,,,,,,,
6647b26b402c0a3c5ab8b0cd,SCR,2024-06-20_13h28.40.192,LearnStrategy,2023.2.3,Linux x86_64,60.97560976,7,1,2,-0.284658194,0.277727524,1,0,1,0.8906,Diorite_16,3,16,5,3,0.891,3,16,-0.365891695,-0.245165428,1,0,1,1.275,Andesite_rect,1,1.275,0,1,0,1,0,1,,,,,,,,,,,,,
6647b26b402c0a3c5ab8b0cd,SCR,2024-06-20_13h28.40.192,LearnStrategy,2023.2.3,Linux x86_64,60.97560976,7,1,3,-0.38047572,-0.390635888,1,0,1,1.0079,Pegmatite_08,6,08,1,2,1.008,6,08,-0.38047572,-0.391790231,0,0,1,0.0773,Obsidian_rect,5,0.077,0,2,0,2,0,1,,,,,,,,,,,,,
6647b26b402c0a3c5ab8b0cd,SCR,2024-06-20_13h28.40.192,LearnStrategy,2023.2.3,Linux x86_64,60.97560976,7,1,4,0.243372122,0.240448058,1,0,1,0.753,Basalt_12,2,12,5,6,0.753,2,12,0.446071784,-0.405551513,1,0,1,1.203,Pumice_rect,8,1.203,0,3,0,3,0,1,,,,,,,,,,,,,
6647b26b402c0a3c5ab8b0cd,SCR,2024-06-20_13h28.40.192,LearnStrategy,2023.2.3,Linux x86_64,60.97560976,7,1,5,-0.524882833,0.247496764,1,0,1,0.8913,Pegmatite_15,6,15,5,1,0.891,6,15,-0.107833068,-0.404209693,1,0,1,1.0565,Pegmatite_rect,6,1.057,1,4,0,4,0,1,,,,,,,,,,,,,
6647b26b402c0a3c5ab8b0cd,SCR,2024-06-20_13h28.40.192,LearnStrategy,2023.2.3,Linux x86_64,60.97560976,7,1,6,-0.51247855,0.389147272,1,0,1,0.83,Andesite_14,1,14,6,1,0.83,1,14,0.087041775,-0.415508906,1,0,1,1.3469,Peridotite_rect,7,1.347,0,5,0,5,0,1,,,,,,,,,,,,,
6647b26b402c0a3c5ab8b0cd,SCR,2024-06-20_13h28.40.192,LearnStrategy,2023.2.3,Linux x86_64,60.97560976,7,1,7,0.237926722,-0.117775877,1,0,1,1.2782,Peridotite_02,7,02,3,6,1.278,7,02,-0.16206948,-0.388603608,1,0,1,1.2139,Pegmatite_rect,6,1.214,0,6,0,6,0,1,,,,,,,,,,,,,
6647b26b402c0a3c5ab8b0cd,SCR,2024-06-20_13h28.40.192,LearnStrategy,2023.2.3,Linux x86_64,60.97560976,7,1,8,-0.580357989,-0.289295753,1,0,1,0.8347,Gabbro_12,4,12,2,1,0.835,4,12,-0.156474113,-0.260229349,1,0,1,1.5375,Basalt_rect,2,1.537,0,7,0,7,0,1,,,,,,,,,,,,,
6647b26b402c0a3c5ab8b0cd,SCR,2024-06-20_13h28.40.192,LearnStrategy,2023.2.3,Linux x86_64,60.97560976,7,1,9,-0.421539028,0.242820183,1,0,1,0.9863,Gabbro_16,4,16,5,2,0.986,4,16,-0.165906191,-0.266787608,1,0,1,0.8641,Basalt_rect,2,0.864,0,8,0,8,0,1,,,,,,,,,,,,,
6647b26b402c0a3c5ab8b0cd,SCR,2024-06-20_13h28.40.192,LearnStrategy,2023.2.3,Linux x86_64,60.97560976,7,1,10,-0.112559477,-0.132468104,1,0,1,0.8101,Peridotite_15,7,15,3,4,0.81,7,15,-0.107447783,-0.403212468,1,0,1,1.3747,Pegmatite_rect,6,1.375,0,9,0,9,0,1,,,,,,,,,,,,,
6647b26b402c0a3c5ab8b0cd,SCR,2024-06-20_13h28.40.192,LearnStrategy,2023.2.3,Linux x86_64,60.97560976,7,1,11,0.035458008,-0.286477725,1,0,1,0.7966,Pumice_13,8,13,2,5,0.797,8,13,0.440294822,-0.398061911,1,0,1,1.0335,Pumice_rect,8,1.034,1,10,0,10,0,1,,,,,,,,,,,,,
6647b26b402c0a3c5ab8b0cd,SCR,2024-06-20_13h28.40.192,LearnStrategy,2023.2.3,Linux x86_64,60.97560976,7,1,12,0.06972901,-0.0724322,1,0,1,0.6179,Gabbro_08,4,08,3,5,0.618,4,08,0.364537954,-0.251445134,1,0,1,1.926,Gabbro_rect,4,1.926,1,11,0,11,0,1,,,,,,,,,,,,,
6647b26b402c0a3c5ab8b0cd,SCR,2024-06-20_13h28.40.192,LearnStrategy,2023.2.3,Linux x86_64,60.97560976,7,1,13,-0.382166028,-0.27204895,1,0,1,0.7951,Peridotite_04,7,04,2,2,0.795,7,04,-0.058681488,-0.397982041,1,0,1,1.9223,Pegmatite_rect,6,1.922,0,12,0,12,0,1,,,,,,,,,,,,,
6647b26b402c0a3c5ab8b0cd,SCR,2024-06-20_13h28.40.192,LearnStrategy,2023.2.3,Linux x86_64,60.97560976,7,1,14,-0.563419501,0.068991343,1,0,1,1.0687,Basalt_08,2,08,4,1,1.069,2,08,0.365259171,-0.259381215,1,0,1,1.7773,Gabbro_rect,4,1.777,0,13,0,13,0,1,,,,,,,,,,,,,
6647b26b402c0a3c5ab8b0cd,SCR,2024-06-20_13h28.40.192,LearnStrategy,2023.2.3,Linux x86_64,60.97560976,7,1,15,0.402463833,-0.211065292,1,0,1,1.041,Diorite_07,3,07,2,7,1.041,3,07,-0.464732766,-0.240530411,1,0,1,2.2363,Andesite_rect,1,2.236,0,14,0,14,0,1,,,,,,,,,,,,,
6647b26b402c0a3c5ab8b0cd,SCR,2024-06-20_13h28.40.192,LearnStrategy,2023.2.3,Linux x86_64,60.97560976,7,1,16,0.355659644,0.074589928,1,0,1,0.9706,Andesite_10,1,10,4,7,0.971,1,10,0.395245155,-0.257855336,1,0,1,1.9135,Gabbro_rect,4,1.914,0,15,0,15,0,1,,,,,,,,,,,,,
6647b26b402c0a3c5ab8b0cd,SCR,2024-06-20_13h28.40.192,LearnStrategy,2023.2.3,Linux x86_64,60.97560976,7,2,1,,,,,,,,2,09,,,,,,,,,,,,,4,3.019,0,,,,,,0.341476202,-0.255425453,1,0,1,3.0195,Gabbro_rect,0,0,0,0,1,
6647b26b402c0a3c5ab8b0cd,SCR,2024-06-20_13h28.40.192,LearnStrategy,2023.2.3,Linux x86_64,60.97560976,7,2,2,,,,,,,,7,10,,,,,,,,,,,,,7,2.287,1,,,,,,0.077527444,-0.402622302,1,0,1,2.2874,Peridotite_rect,1,0,1,0,1,
6647b26b402c0a3c5ab8b0cd,SCR,2024-06-20_13h28.40.192,LearnStrategy,2023.2.3,Linux x86_64,60.97560976,7,2,3,,,,,,,,8,02,,,,,,,,,,,,,8,2.081,1,,,,,,0.385598977,-0.402543863,1,0,1,2.0809,Pumice_rect,2,0,2,0,1,
6647b26b402c0a3c5ab8b0cd,SCR,2024-06-20_13h28.40.192,LearnStrategy,2023.2.3,Linux x86_64,60.97560976,7,2,4,,,,,,,,2,06,,,,,,,,,,,,,2,3.023,1,,,,,,-0.14096872,-0.270219485,1,0,1,3.0231,Basalt_rect,3,0,3,0,1,
6647b26b402c0a3c5ab8b0cd,SCR,2024-06-20_13h28.40.192,LearnStrategy,2023.2.3,Linux x86_64,60.97560976,7,2,5,,,,,,,,8,03,,,,,,,,,,,,,8,1.646,1,,,,,,0.402939638,-0.393696467,1,0,1,1.6463,Pumice_rect,4,0,4,0,1,
6647b26b402c0a3c5ab8b0cd,SCR,2024-06-20_13h28.40.192,LearnStrategy,2023.2.3,Linux x86_64,60.97560976,7,2,6,,,,,,,,1,02,,,,,,,,,,,,,1,2.072,1,,,,,,-0.397860209,-0.23734355,1,0,1,2.0721,Andesite_rect,5,0,5,0,1,
6647b26b402c0a3c5ab8b0cd,SCR,2024-06-20_13h28.40.192,LearnStrategy,2023.2.3,Linux x86_64,60.97560976,7,2,7,,,,,,,,4,01,,,,,,,,,,,,,6,2.254,0,,,,,,-0.066657384,-0.395749013,1,0,1,2.2542,Pegmatite_rect,6,0,6,0,1,
6647b26b402c0a3c5ab8b0cd,SCR,2024-06-20_13h28.40.192,LearnStrategy,2023.2.3,Linux x86_64,60.97560976,7,2,8,,,,,,,,4,09,,,,,,,,,,,,,4,2.947,1,,,,,,0.365039666,-0.266986609,1,0,1,2.9468,Gabbro_rect,7,0,7,0,1,
6647b26b402c0a3c5ab8b0cd,SCR,2024-06-20_13h28.40.192,LearnStrategy,2023.2.3,Linux x86_64,60.97560976,7,2,9,,,,,,,,7,16,,,,,,,,,,,,,6,4.893,0,,,,,,-0.160297871,-0.397297382,1,0,1,4.8927,Pegmatite_rect,8,0,8,0,1,
6647b26b402c0a3c5ab8b0cd,SCR,2024-06-20_13h28.40.192,LearnStrategy,2023.2.3,Linux x86_64,60.97560976,7,2,10,,,,,,,,5,02,,,,,,,,,,,,,5,1.306,1,,,,,,-0.369315783,-0.401498556,1,0,1,1.3057,Obsidian_rect,9,0,9,0,1,
6647b26b402c0a3c5ab8b0cd,SCR,2024-06-20_13h28.40.192,LearnStrategy,2023.2.3,Linux x86_64,60.97560976,7,2,11,,,,,,,,6,11,,,,,,,,,,,,,7,1.6,0,,,,,,0.174538374,-0.403455655,1,0,1,1.6,Peridotite_rect,10,0,10,0,1,
6647b26b402c0a3c5ab8b0cd,SCR,2024-06-20_13h28.40.192,LearnStrategy,2023.2.3,Linux x86_64,60.97560976,7,2,12,,,,,,,,6,05,,,,,,,,,,,,,3,3.257,0,,,,,,0.180788914,-0.2531871,1,0,1,3.2572,Diorite_rect,11,0,11,0,1,
6647b26b402c0a3c5ab8b0cd,SCR,2024-06-20_13h28.40.192,LearnStrategy,2023.2.3,Linux x86_64,60.97560976,7,2,13,,,,,,,,3,10,,,,,,,,,,,,,1,6.022,0,,,,,,-0.353006124,-0.24853301,1,0,1,6.0224,Andesite_rect,12,0,12,0,1,
6647b26b402c0a3c5ab8b0cd,SCR,2024-06-20_13h28.40.192,LearnStrategy,2023.2.3,Linux x86_64,60.97560976,7,2,14,,,,,,,,3,02,,,,,,,,,,,,,1,1.484,0,,,,,,-0.353006124,-0.24853301,1,0,1,1.4838,Andesite_rect,13,0,13,0,1,
6647b26b402c0a3c5ab8b0cd,SCR,2024-06-20_13h28.40.192,LearnStrategy,2023.2.3,Linux x86_64,60.97560976,7,2,15,,,,,,,,1,01,,,,,,,,,,,,,2,2.061,0,,,,,,-0.116200606,-0.261588335,1,0,1,2.0609,Basalt_rect,14,0,14,0,1,
6647b26b402c0a3c5ab8b0cd,SCR,2024-06-20_13h28.40.192,LearnStrategy,2023.2.3,Linux x86_64,60.97560976,7,2,16,,,,,,,,5,10,,,,,,,,,,,,,5,1.397,1,,,,,,-0.33632497,-0.417138656,1,0,1,1.3973,Obsidian_rect,15,0,15,0,1,
6647b26b402c0a3c5ab8b0cd,SCR,2024-06-20_13h28.40.192,LearnStrategy,2023.2.3,Linux x86_64,60.97560976,8,1,1,-0.571696341,0.107781053,1,0,1,1.3948,Basalt_08,2,08,4,1,1.395,2,08,0.427515586,-0.257520596,1,0,1,1.615,Gabbro_rect,4,1.615,0,0,0,0,0,1,,,,,,,,,,,,,
6647b26b402c0a3c5ab8b0cd,SCR,2024-06-20_13h28.40.192,LearnStrategy,2023.2.3,Linux x86_64,60.97560976,8,1,2,0.37991794,-0.428136349,1,0,1,0.9367,Andesite_05,1,05,1,7,0.937,1,05,-0.408724705,-0.26805226,1,0,1,1.4069,Andesite_rect,1,1.407,1,1,0,1,0,1,,,,,,,,,,,,,
6647b26b402c0a3c5ab8b0cd,SCR,2024-06-20_13h28.40.192,LearnStrategy,2023.2.3,Linux x86_64,60.97560976,8,1,3,0.57734712,0.422388454,1,0,1,1.3241,Pegmatite_16,6,16,6,8,1.324,6,16,0.113108953,-0.409679572,1,0,1,1.594,Peridotite_rect,7,1.594,0,2,0,2,0,1,,,,,,,,,,,,,
6647b26b402c0a3c5ab8b0cd,SCR,2024-06-20_13h28.40.192,LearnStrategy,2023.2.3,Linux x86_64,60.97560976,8,1,4,-0.046675523,0.260243773,1,0,1,0.7572,Diorite_13,3,13,5,4,0.757,3,13,-0.341747522,-0.260998726,1,0,1,1.6539,Andesite_rect,1,1.654,0,3,0,3,0,1,,,,,,,,,,,,,
6647b26b402c0a3c5ab8b0cd,SCR,2024-06-20_13h28.40.192,LearnStrategy,2023.2.3,Linux x86_64,60.97560976,8,1,5,-0.203938246,0.063637972,1,0,1,0.884,Gabbro_11,4,11,4,3,0.884,4,11,0.3256917,-0.258224805,1,0,1,1.3575,Gabbro_rect,4,1.357,1,4,0,4,0,1,,,,,,,,,,,,,
6647b26b402c0a3c5ab8b0cd,SCR,2024-06-20_13h28.40.192,LearnStrategy,2023.2.3,Linux x86_64,60.97560976,8,1,6,0.273609718,0.365485887,1,0,1,1.5283,Peridotite_07,7,07,6,6,1.528,7,07,-0.144718011,-0.250092665,1,0,1,1.5143,Basalt_rect,2,1.514,0,5,0,5,0,1,,,,,,,,,,,,,
6647b26b402c0a3c5ab8b0cd,SCR,2024-06-20_13h28.40.192,LearnStrategy,2023.2.3,Linux x86_64,60.97560976,8,1,7,-0.368934035,-0.111990809,1,0,1,0.8713,Pegmatite_12,6,12,3,2,0.871,6,12,-0.341272871,-0.241802454,1,0,1,2.1185,Andesite_rect,1,2.119,0,6,0,6,0,1,,,,,,,,,,,,,
6647b26b402c0a3c5ab8b0cd,SCR,2024-06-20_13h28.40.192,LearnStrategy,2023.2.3,Linux x86_64,60.97560976,8,1,8,0.227649053,-0.429686149,1,0,1,1.0096,Peridotite_13,7,13,1,6,1.01,7,13,-0.089951913,-0.415320714,1,0,1,0.8206,Pegmatite_rect,6,0.821,0,7,0,7,0,1,,,,,,,,,,,,,
6647b26b402c0a3c5ab8b0cd,SCR,2024-06-20_13h28.40.192,LearnStrategy,2023.2.3,Linux x86_64,60.97560976,8,1,9,-0.363342444,-0.281724135,1,0,1,0.9,Peridotite_04,7,04,2,2,0.9,7,04,-0.058921019,-0.39320453,1,0,1,1.8422,Pegmatite_rect,6,1.842,0,8,0,8,0,1,,,,,,,,,,,,,
6647b26b402c0a3c5ab8b0cd,SCR,2024-06-20_13h28.40.192,LearnStrategy,2023.2.3,Linux x86_64,60.97560976,8,1,10,0.383193175,0.082929095,1,0,1,1.2408,Andesite_10,1,10,4,7,1.241,1,10,0.128450632,-0.230968316,1,0,1,2.1901,Diorite_rect,3,2.19,0,9,0,9,0,1,,,,,,,,,,,,,
6647b26b402c0a3c5ab8b0cd,SCR,2024-06-20_13h28.40.192,LearnStrategy,2023.2.3,Linux x86_64,60.97560976,8,1,11,0.35315458,-0.275167147,1,0,1,1.1521,Diorite_07,3,07,2,7,1.152,3,07,0.175292492,-0.257601182,1,0,1,3.53,Diorite_rect,3,3.53,1,10,0,10,0,1,,,,,,,,,,,,,
6647b26b402c0a3c5ab8b0cd,SCR,2024-06-20_13h28.40.192,LearnStrategy,2023.2.3,Linux x86_64,60.97560976,8,1,12,-0.405655106,-0.439131498,1,0,1,1.1687,Pegmatite_08,6,08,1,2,1.169,6,08,-0.187686602,-0.414973736,1,0,1,0.8085,Pegmatite_rect,6,0.809,1,11,0,11,0,1,,,,,,,,,,,,,
6647b26b402c0a3c5ab8b0cd,SCR,2024-06-20_13h28.40.192,LearnStrategy,2023.2.3,Linux x86_64,60.97560976,8,1,13,-0.099155744,0.381585211,1,0,1,1.053,Gabbro_10,4,10,6,4,1.053,4,10,-0.131450097,-0.259881894,1,0,1,1.7955,Basalt_rect,2,1.795,0,12,0,12,0,1,,,,,,,,,,,,,
6647b26b402c0a3c5ab8b0cd,SCR,2024-06-20_13h28.40.192,LearnStrategy,2023.2.3,Linux x86_64,60.97560976,8,1,14,0.05632782,-0.097489993,1,0,1,0.7246,Gabbro_08,4,08,3,5,0.725,4,08,-0.100835562,-0.249710878,1,0,1,1.6008,Basalt_rect,2,1.601,0,13,0,13,0,1,,,,,,,,,,,,,
6647b26b402c0a3c5ab8b0cd,SCR,2024-06-20_13h28.40.192,LearnStrategy,2023.2.3,Linux x86_64,60.97560976,8,1,15,-0.21675539,0.224714677,1,0,1,1.3719,Diorite_16,3,16,5,3,1.372,3,16,-0.367148836,-0.264832735,1,0,1,6.6137,Andesite_rect,1,6.614,0,14,0,14,0,1,,,,,,,,,,,,,
6647b26b402c0a3c5ab8b0cd,SCR,2024-06-20_13h28.40.192,LearnStrategy,2023.2.3,Linux x86_64,60.97560976,8,1,16,-0.096538703,-0.441710869,1,0,1,1.2533,Basalt_10,2,10,1,4,1.253,2,10,-0.402572672,-0.24005127,1,0,1,0.9539,Andesite_rect,1,0.954,0,15,0,15,0,1,,,,,,,,,,,,,
6647b26b402c0a3c5ab8b0cd,SCR,2024-06-20_13h28.40.192,LearnStrategy,2023.2.3,Linux x86_64,60.97560976,8,2,1,,,,,,,,6,13,,,,,,,,,,,,,1,7.211,0,,,,,,-0.363258044,-0.234588146,1,0,1,7.211,Andesite_rect,0,0,0,0,1,
6647b26b402c0a3c5ab8b0cd,SCR,2024-06-20_13h28.40.192,LearnStrategy,2023.2.3,Linux x86_64,60.97560976,8,2,2,,,,,,,,2,01,,,,,,,,,,,,,2,1.045,1,,,,,,-0.102860769,-0.263566573,1,0,1,1.0452,Basalt_rect,1,0,1,0,1,
6647b26b402c0a3c5ab8b0cd,SCR,2024-06-20_13h28.40.192,LearnStrategy,2023.2.3,Linux x86_64,60.97560976,8,2,3,,,,,,,,3,14,,,,,,,,,,,,,8,19.804,0,,,,,,0.326889435,-0.397822936,1,0,1,19.8037,Pumice_rect,2,0,2,0,1,
6647b26b402c0a3c5ab8b0cd,SCR,2024-06-20_13h28.40.192,LearnStrategy,2023.2.3,Linux x86_64,60.97560976,8,2,4,,,,,,,,1,04,,,,,,,,,,,,,7,5.457,0,,,,,,0.089305321,-0.409295162,1,0,1,5.4567,Peridotite_rect,3,0,3,0,1,
6647b26b402c0a3c5ab8b0cd,SCR,2024-06-20_13h28.40.192,LearnStrategy,2023.2.3,Linux x86_64,60.97560976,8,2,5,,,,,,,,2,11,,,,,,,,,,,,,4,2.388,0,,,,,,0.394825538,-0.252968709,1,0,1,2.3877,Gabbro_rect,4,0,4,0,1,
6647b26b402c0a3c5ab8b0cd,SCR,2024-06-20_13h28.40.192,LearnStrategy,2023.2.3,Linux x86_64,60.97560976,8,2,6,,,,,,,,1,06,,,,,,,,,,,,,6,1.884,0,,,,,,-0.143091679,-0.389445861,1,0,1,1.8839,Pegmatite_rect,5,0,5,0,1,
6647b26b402c0a3c5ab8b0cd,SCR,2024-06-20_13h28.40.192,LearnStrategy,2023.2.3,Linux x86_64,60.97560976,8,2,7,,,,,,,,3,06,,,,,,,,,,,,,1,2.094,0,,,,,,-0.368676146,-0.248225609,1,0,1,2.0939,Andesite_rect,6,0,6,0,1,
6647b26b402c0a3c5ab8b0cd,SCR,2024-06-20_13h28.40.192,LearnStrategy,2023.2.3,Linux x86_64,60.97560976,8,2,8,,,,,,,,7,14,,,,,,,,,,,,,7,1.963,1,,,,,,0.079125245,-0.387045622,1,0,1,1.9626,Peridotite_rect,7,0,7,0,1,
6647b26b402c0a3c5ab8b0cd,SCR,2024-06-20_13h28.40.192,LearnStrategy,2023.2.3,Linux x86_64,60.97560976,8,2,9,,,,,,,,4,03,,,,,,,,,,,,,4,8.295,1,,,,,,0.371367534,-0.250809431,1,0,1,8.2947,Gabbro_rect,8,0,8,0,1,
6647b26b402c0a3c5ab8b0cd,SCR,2024-06-20_13h28.40.192,LearnStrategy,2023.2.3,Linux x86_64,60.97560976,8,2,10,,,,,,,,6,09,,,,,,,,,,,,,7,2.314,0,,,,,,0.14707462,-0.399643342,1,0,1,2.3143,Peridotite_rect,9,0,9,0,1,
6647b26b402c0a3c5ab8b0cd,SCR,2024-06-20_13h28.40.192,LearnStrategy,2023.2.3,Linux x86_64,60.97560976,8,2,11,,,,,,,,5,07,,,,,,,,,,,,,5,1.362,1,,,,,,-0.377473712,-0.410279274,1,0,1,1.3616,Obsidian_rect,10,0,10,0,1,
6647b26b402c0a3c5ab8b0cd,SCR,2024-06-20_13h28.40.192,LearnStrategy,2023.2.3,Linux x86_64,60.97560976,8,2,12,,,,,,,,5,14,,,,,,,,,,,,,5,1.586,1,,,,,,-0.377473712,-0.410279274,1,0,1,1.5857,Obsidian_rect,11,0,11,0,1,
6647b26b402c0a3c5ab8b0cd,SCR,2024-06-20_13h28.40.192,LearnStrategy,2023.2.3,Linux x86_64,60.97560976,8,2,13,,,,,,,,8,09,,,,,,,,,,,,,8,1.402,1,,,,,,0.379698912,-0.391007582,1,0,1,1.4023,Pumice_rect,12,0,12,0,1,
6647b26b402c0a3c5ab8b0cd,SCR,2024-06-20_13h28.40.192,LearnStrategy,2023.2.3,Linux x86_64,60.97560976,8,2,14,,,,,,,,7,12,,,,,,,,,,,,,1,4.498,0,,,,,,-0.361406565,-0.267524322,1,0,1,4.498,Andesite_rect,13,0,13,0,1,
6647b26b402c0a3c5ab8b0cd,SCR,2024-06-20_13h28.40.192,LearnStrategy,2023.2.3,Linux x86_64,60.97560976,8,2,15,,,,,,,,4,13,,,,,,,,,,,,,2,3.372,0,,,,,,-0.138702154,-0.260623296,1,0,1,3.3724,Basalt_rect,14,0,14,0,1,
6647b26b402c0a3c5ab8b0cd,SCR,2024-06-20_13h28.40.192,LearnStrategy,2023.2.3,Linux x86_64,60.97560976,8,2,16,,,,,,,,8,14,,,,,,,,,,,,,8,1.368,1,,,,,,0.456246376,-0.383379857,1,0,1,1.3683,Pumice_rect,15,0,15,0,1,
6647b26b402c0a3c5ab8b0cd,SCR,2024-06-20_13h28.40.192,LearnStrategy,2023.2.3,Linux x86_64,60.97560976,9,1,1,0.561115106,0.246591051,1,0,1,1.8992,Pegmatite_07,6,07,5,8,1.899,6,07,-0.101381938,-0.394446532,1,0,1,0.9951,Pegmatite_rect,6,0.995,1,0,0,0,0,1,,,,,,,,,,,,,
6647b26b402c0a3c5ab8b0cd,SCR,2024-06-20_13h28.40.192,LearnStrategy,2023.2.3,Linux x86_64,60.97560976,9,1,2,-0.226578752,-0.115574559,1,0,1,0.9297,Basalt_14,2,14,3,3,0.93,2,14,0.462498188,-0.260772705,1,0,1,1.1014,Gabbro_rect,4,1.101,0,1,0,1,0,1,,,,,,,,,,,,,
6647b26b402c0a3c5ab8b0cd,SCR,2024-06-20_13h28.40.192,LearnStrategy,2023.2.3,Linux x86_64,60.97560976,9,1,3,-0.381265124,-0.216872613,1,0,1,1.1128,Peridotite_04,7,04,2,2,1.113,7,04,-0.059803645,-0.421815952,1,0,1,0.7029,Pegmatite_rect,6,0.703,0,2,0,2,0,1,,,,,,,,,,,,,
6647b26b402c0a3c5ab8b0cd,SCR,2024-06-20_13h28.40.192,LearnStrategy,2023.2.3,Linux x86_64,60.97560976,9,1,4,0.116248608,0.228334963,1,0,1,0.9251,Diorite_09,3,09,5,5,0.925,3,09,0.142499526,-0.387716532,1,0,1,1.4929,Peridotite_rect,7,1.493,0,3,0,3,0,1,,,,,,,,,,,,,
6647b26b402c0a3c5ab8b0cd,SCR,2024-06-20_13h28.40.192,LearnStrategy,2023.2.3,Linux x86_64,60.97560976,9,1,5,0.09991471,0.072662671,1,0,1,0.8243,Diorite_08,3,08,4,5,0.824,3,08,-0.090378284,-0.391896725,1,0,1,1.532,Pegmatite_rect,6,1.532,0,4,0,4,0,1,,,,,,,,,,,,,
6647b26b402c0a3c5ab8b0cd,SCR,2024-06-20_13h28.40.192,LearnStrategy,2023.2.3,Linux x86_64,60.97560976,9,1,6,-0.346454581,0.38259696,1,0,1,1.1798,Pumice_05,8,05,6,2,1.18,8,05,0.501134555,-0.403892199,0,0,1,1.346,Pumice_rect,8,1.346,1,5,0,5,0,1,,,,,,,,,,,,,
6647b26b402c0a3c5ab8b0cd,SCR,2024-06-20_13h28.40.192,LearnStrategy,2023.2.3,Linux x86_64,60.97560976,9,1,7,-0.221229951,0.393943856,1,0,1,4.2968,Gabbro_15,4,15,6,3,4.297,4,15,-0.146771113,-0.265757243,1,0,1,1.894,Basalt_rect,2,1.894,0,6,0,6,0,1,,,,,,,,,,,,,
6647b26b402c0a3c5ab8b0cd,SCR,2024-06-20_13h28.40.192,LearnStrategy,2023.2.3,Linux x86_64,60.97560976,9,1,8,0.1104304,0.383295854,1,0,1,1.1521,Andesite_07,1,07,6,5,1.152,1,07,-0.428663254,-0.267836253,1,0,1,1.1486,Andesite_rect,1,1.149,1,7,0,7,0,1,,,,,,,,,,,,,
6647b26b402c0a3c5ab8b0cd,SCR,2024-06-20_13h28.40.192,LearnStrategy,2023.2.3,Linux x86_64,60.97560976,9,1,9,0.08945926,0.07839028,1,0,1,1.1205,Diorite_08,3,08,4,5,1.12,6,16,-0.127991358,-0.391468048,1,0,1,1.3691,Pegmatite_rect,6,1.369,0,8,0,8,0,1,,,,,,,,,,,,,
6647b26b402c0a3c5ab8b0cd,SCR,2024-06-20_13h28.40.192,LearnStrategy,2023.2.3,Linux x86_64,60.97560976,9,1,10,-0.554888407,0.248542984,1,0,1,1.3048,Pegmatite_15,6,15,5,1,1.305,6,15,0.129912853,-0.398208459,1,0,1,1.6238,Peridotite_rect,7,1.624,0,9,0,9,0,1,,,,,,,,,,,,,
6647b26b402c0a3c5ab8b0cd,SCR,2024-06-20_13h28.40.192,LearnStrategy,2023.2.3,Linux x86_64,60.97560976,9,1,11,0.060673714,0.444871351,1,0,1,0.9218,Andesite_07,1,07,6,5,0.922,1,07,-0.411912998,-0.242477814,1,0,1,1.166,Andesite_rect,1,1.166,1,10,0,10,0,1,,,,,,,,,,,,,
6647b26b402c0a3c5ab8b0cd,SCR,2024-06-20_13h28.40.192,LearnStrategy,2023.2.3,Linux x86_64,60.97560976,9,1,12,-0.395140131,0.214355588,1,0,1,1.2852,Gabbro_16,4,16,5,2,1.285,4,16,0.476913293,-0.263058742,1,0,1,0.9619,Gabbro_rect,4,0.962,1,11,0,11,0,1,,,,,,,,,,,,,
6647b26b402c0a3c5ab8b0cd,SCR,2024-06-20_13h28.40.192,LearnStrategy,2023.2.3,Linux x86_64,60.97560976,9,1,13,-0.357066472,-0.254334529,1,0,1,0.8388,Peridotite_04,7,04,2,2,0.839,7,04,-0.357066472,-0.255269527,0,0,1,0.0723,Andesite_rect,1,0.072,0,12,0,12,0,1,,,,,,,,,,,,,
6647b26b402c0a3c5ab8b0cd,SCR,2024-06-20_13h28.40.192,LearnStrategy,2023.2.3,Linux x86_64,60.97560976,9,1,14,0.418706258,0.230006437,1,0,1,1.0856,Basalt_04,2,04,5,7,1.086,2,04,-0.194103797,-0.243948619,1,0,1,1.4585,Basalt_rect,2,1.458,1,13,0,13,0,1,,,,,,,,,,,,,
6647b26b402c0a3c5ab8b0cd,SCR,2024-06-20_13h28.40.192,LearnStrategy,2023.2.3,Linux x86_64,60.97560976,9,1,15,0.202582518,0.079542597,1,0,1,0.7991,Andesite_09,1,09,4,6,0.799,1,09,-0.437267303,-0.253290415,1,0,1,1.3995,Andesite_rect,1,1.399,1,14,0,14,0,1,,,,,,,,,,,,,
6647b26b402c0a3c5ab8b0cd,SCR,2024-06-20_13h28.40.192,LearnStrategy,2023.2.3,Linux x86_64,60.97560976,9,1,16,0.358930111,-0.257690907,1,0,1,1.0768,Diorite_07,3,07,2,7,1.077,3,07,0.358930111,-0.257690907,0,0,1,0.0726,Gabbro_rect,4,0.073,0,15,0,15,0,1,,,,,,,,,,,,,
6647b26b402c0a3c5ab8b0cd,SCR,2024-06-20_13h28.40.192,LearnStrategy,2023.2.3,Linux x86_64,60.97560976,9,2,1,,,,,,,,7,08,,,,,,,,,,,,,8,1.3,0,,,,,,0.371167421,-0.409745375,1,0,1,1.2998,Pumice_rect,0,0,0,0,1,
6647b26b402c0a3c5ab8b0cd,SCR,2024-06-20_13h28.40.192,LearnStrategy,2023.2.3,Linux x86_64,60.97560976,9,2,2,,,,,,,,8,06,,,,,,,,,,,,,8,3.692,1,,,,,,0.381335258,-0.395764033,1,0,1,3.6921,Pumice_rect,1,0,1,0,1,
6647b26b402c0a3c5ab8b0cd,SCR,2024-06-20_13h28.40.192,LearnStrategy,2023.2.3,Linux x86_64,60.97560976,9,2,3,,,,,,,,6,03,,,,,,,,,,,,,6,1.902,1,,,,,,-0.120992422,-0.399660428,1,0,1,1.902,Pegmatite_rect,2,0,2,0,1,
6647b26b402c0a3c5ab8b0cd,SCR,2024-06-20_13h28.40.192,LearnStrategy,2023.2.3,Linux x86_64,60.97560976,9,2,4,,,,,,,,2,16,,,,,,,,,,,,,4,2.007,0,,,,,,0.39601922,-0.260068496,1,0,1,2.0069,Gabbro_rect,3,0,3,0,1,
6647b26b402c0a3c5ab8b0cd,SCR,2024-06-20_13h28.40.192,LearnStrategy,2023.2.3,Linux x86_64,60.97560976,9,2,5,,,,,,,,1,11,,,,,,,,,,,,,2,3.839,0,,,,,,-0.118558009,-0.256589254,1,0,1,3.8392,Basalt_rect,4,0,4,0,1,
6647b26b402c0a3c5ab8b0cd,SCR,2024-06-20_13h28.40.192,LearnStrategy,2023.2.3,Linux x86_64,60.97560976,9,2,6,,,,,,,,7,06,,,,,,,,,,,,,7,3.243,1,,,,,,0.096870263,-0.406767607,1,0,1,3.2427,Peridotite_rect,5,0,5,0,1,
6647b26b402c0a3c5ab8b0cd,SCR,2024-06-20_13h28.40.192,LearnStrategy,2023.2.3,Linux x86_64,60.97560976,9,2,7,,,,,,,,3,15,,,,,,,,,,,,,6,1.61,0,,,,,,-0.126205126,-0.386730274,1,0,1,1.6097,Pegmatite_rect,6,0,6,0,1,
6647b26b402c0a3c5ab8b0cd,SCR,2024-06-20_13h28.40.192,LearnStrategy,2023.2.3,Linux x86_64,60.97560976,9,2,8,,,,,,,,1,03,,,,,,,,,,,,,2,1.746,0,,,,,,-0.106487989,-0.25655365,1,0,1,1.7464,Basalt_rect,7,0,7,0,1,
6647b26b402c0a3c5ab8b0cd,SCR,2024-06-20_13h28.40.192,LearnStrategy,2023.2.3,Linux x86_64,60.97560976,9,2,9,,,,,,,,2,05,,,,,,,,,,,,,4,1.721,0,,,,,,0.365360419,-0.266160409,1,0,1,1.7208,Gabbro_rect,8,0,8,0,1,
6647b26b402c0a3c5ab8b0cd,SCR,2024-06-20_13h28.40.192,LearnStrategy,2023.2.3,Linux x86_64,60.97560976,9,2,10,,,,,,,,4,05,,,,,,,,,,,,,3,2.496,0,,,,,,0.089886268,-0.262499253,1,0,1,2.4957,Diorite_rect,9,0,9,0,1,
6647b26b402c0a3c5ab8b0cd,SCR,2024-06-20_13h28.40.192,LearnStrategy,2023.2.3,Linux x86_64,60.97560976,9,2,11,,,,,,,,4,14,,,,,,,,,,,,,2,2.074,0,,,,,,-0.083366076,-0.252229929,1,0,1,2.0739,Basalt_rect,10,0,10,0,1,
6647b26b402c0a3c5ab8b0cd,SCR,2024-06-20_13h28.40.192,LearnStrategy,2023.2.3,Linux x86_64,60.97560976,9,2,12,,,,,,,,5,04,,,,,,,,,,,,,5,1.286,1,,,,,,-0.353940765,-0.402240038,1,0,1,1.2859,Obsidian_rect,11,0,11,0,1,
6647b26b402c0a3c5ab8b0cd,SCR,2024-06-20_13h28.40.192,LearnStrategy,2023.2.3,Linux x86_64,60.97560976,9,2,13,,,,,,,,8,08,,,,,,,,,,,,,8,1.218,1,,,,,,0.463431835,-0.411225796,1,0,1,1.2178,Pumice_rect,12,0,12,0,1,
6647b26b402c0a3c5ab8b0cd,SCR,2024-06-20_13h28.40.192,LearnStrategy,2023.2.3,Linux x86_64,60.97560976,9,2,14,,,,,,,,5,16,,,,,,,,,,,,,5,1.285,1,,,,,,-0.339059273,-0.396327178,1,0,1,1.285,Obsidian_rect,13,0,13,0,1,
6647b26b402c0a3c5ab8b0cd,SCR,2024-06-20_13h28.40.192,LearnStrategy,2023.2.3,Linux x86_64,60.97560976,9,2,15,,,,,,,,6,06,,,,,,,,,,,,,6,2.123,1,,,,,,-0.188766479,-0.392240286,1,0,1,2.1229,Pegmatite_rect,14,0,14,0,1,
6647b26b402c0a3c5ab8b0cd,SCR,2024-06-20_13h28.40.192,LearnStrategy,2023.2.3,Linux x86_64,60.97560976,9,2,16,,,,,,,,3,12,,,,,,,,,,,,,3,3.645,1,,,,,,0.138017734,-0.258179426,1,0,1,3.6452,Diorite_rect,15,0,15,0,1,
6647b26b402c0a3c5ab8b0cd,SCR,2024-06-20_13h28.40.192,LearnStrategy,2023.2.3,Linux x86_64,60.97560976,,,,,,,,,,,,,,,,,,,,,,,,,,,,,,,,,,,,,,,,,,,,,0
6647b26b402c0a3c5ab8b0cd,SCR,2024-06-20_13h28.40.192,LearnStrategy,2023.2.3,Linux x86_64,60.97560976,,,,,,,,,,,,,,,,,,,,,,,,,,,,,,,,,,,,,,,,,,,,,
6647b26b402c0a3c5ab8b0cd,SCR,2024-06-20_13h28.40.192,LearnStrategy,2023.2.3,Linux x86_64,60.97560976,,,,,,,,,,,8,10,1,1,,,,,,,,,,,,,,,,,,,,,,,,,,,,,,,
6647b26b402c0a3c5ab8b0cd,SCR,2024-06-20_13h28.40.192,LearnStrategy,2023.2.3,Linux x86_64,60.97560976,,,,,,,,,,,6,08,1,2,,,,,,,,,,,,,,,,,,,,,,,,,,,,,,,
6647b26b402c0a3c5ab8b0cd,SCR,2024-06-20_13h28.40.192,LearnStrategy,2023.2.3,Linux x86_64,60.97560976,,,,,,,,,,,5,08,1,3,,,,,,,,,,,,,,,,,,,,,,,,,,,,,,,
6647b26b402c0a3c5ab8b0cd,SCR,2024-06-20_13h28.40.192,LearnStrategy,2023.2.3,Linux x86_64,60.97560976,,,,,,,,,,,2,10,1,4,,,,,,,,,,,,,,,,,,,,,,,,,,,,,,,
6647b26b402c0a3c5ab8b0cd,SCR,2024-06-20_13h28.40.192,LearnStrategy,2023.2.3,Linux x86_64,60.97560976,,,,,,,,,,,5,11,1,5,,,,,,,,,,,,,,,,,,,,,,,,,,,,,,,
6647b26b402c0a3c5ab8b0cd,SCR,2024-06-20_13h28.40.192,LearnStrategy,2023.2.3,Linux x86_64,60.97560976,,,,,,,,,,,7,13,1,6,,,,,,,,,,,,,,,,,,,,,,,,,,,,,,,
6647b26b402c0a3c5ab8b0cd,SCR,2024-06-20_13h28.40.192,LearnStrategy,2023.2.3,Linux x86_64,60.97560976,,,,,,,,,,,1,05,1,7,,,,,,,,,,,,,,,,,,,,,,,,,,,,,,,
6647b26b402c0a3c5ab8b0cd,SCR,2024-06-20_13h28.40.192,LearnStrategy,2023.2.3,Linux x86_64,60.97560976,,,,,,,,,,,7,05,1,8,,,,,,,,,,,,,,,,,,,,,,,,,,,,,,,
6647b26b402c0a3c5ab8b0cd,SCR,2024-06-20_13h28.40.192,LearnStrategy,2023.2.3,Linux x86_64,60.97560976,,,,,,,,,,,4,12,2,1,,,,,,,,,,,,,,,,,,,,,,,,,,,,,,,
6647b26b402c0a3c5ab8b0cd,SCR,2024-06-20_13h28.40.192,LearnStrategy,2023.2.3,Linux x86_64,60.97560976,,,,,,,,,,,7,04,2,2,,,,,,,,,,,,,,,,,,,,,,,,,,,,,,,
6647b26b402c0a3c5ab8b0cd,SCR,2024-06-20_13h28.40.192,LearnStrategy,2023.2.3,Linux x86_64,60.97560976,,,,,,,,,,,5,06,2,3,,,,,,,,,,,,,,,,,,,,,,,,,,,,,,,
6647b26b402c0a3c5ab8b0cd,SCR,2024-06-20_13h28.40.192,LearnStrategy,2023.2.3,Linux x86_64,60.97560976,,,,,,,,,,,5,05,2,4,,,,,,,,,,,,,,,,,,,,,,,,,,,,,,,
6647b26b402c0a3c5ab8b0cd,SCR,2024-06-20_13h28.40.192,LearnStrategy,2023.2.3,Linux x86_64,60.97560976,,,,,,,,,,,8,13,2,5,,,,,,,,,,,,,,,,,,,,,,,,,,,,,,,
6647b26b402c0a3c5ab8b0cd,SCR,2024-06-20_13h28.40.192,LearnStrategy,2023.2.3,Linux x86_64,60.97560976,,,,,,,,,,,8,16,2,6,,,,,,,,,,,,,,,,,,,,,,,,,,,,,,,
6647b26b402c0a3c5ab8b0cd,SCR,2024-06-20_13h28.40.192,LearnStrategy,2023.2.3,Linux x86_64,60.97560976,,,,,,,,,,,3,07,2,7,,,,,,,,,,,,,,,,,,,,,,,,,,,,,,,
6647b26b402c0a3c5ab8b0cd,SCR,2024-06-20_13h28.40.192,LearnStrategy,2023.2.3,Linux x86_64,60.97560976,,,,,,,,,,,8,04,2,8,,,,,,,,,,,,,,,,,,,,,,,,,,,,,,,
6647b26b402c0a3c5ab8b0cd,SCR,2024-06-20_13h28.40.192,LearnStrategy,2023.2.3,Linux x86_64,60.97560976,,,,,,,,,,,6,10,3,1,,,,,,,,,,,,,,,,,,,,,,,,,,,,,,,
6647b26b402c0a3c5ab8b0cd,SCR,2024-06-20_13h28.40.192,LearnStrategy,2023.2.3,Linux x86_64,60.97560976,,,,,,,,,,,6,12,3,2,,,,,,,,,,,,,,,,,,,,,,,,,,,,,,,
6647b26b402c0a3c5ab8b0cd,SCR,2024-06-20_13h28.40.192,LearnStrategy,2023.2.3,Linux x86_64,60.97560976,,,,,,,,,,,2,14,3,3,,,,,,,,,,,,,,,,,,,,,,,,,,,,,,,
6647b26b402c0a3c5ab8b0cd,SCR,2024-06-20_13h28.40.192,LearnStrategy,2023.2.3,Linux x86_64,60.97560976,,,,,,,,,,,7,15,3,4,,,,,,,,,,,,,,,,,,,,,,,,,,,,,,,
6647b26b402c0a3c5ab8b0cd,SCR,2024-06-20_13h28.40.192,LearnStrategy,2023.2.3,Linux x86_64,60.97560976,,,,,,,,,,,4,08,3,5,,,,,,,,,,,,,,,,,,,,,,,,,,,,,,,
6647b26b402c0a3c5ab8b0cd,SCR,2024-06-20_13h28.40.192,LearnStrategy,2023.2.3,Linux x86_64,60.97560976,,,,,,,,,,,7,02,3,6,,,,,,,,,,,,,,,,,,,,,,,,,,,,,,,
6647b26b402c0a3c5ab8b0cd,SCR,2024-06-20_13h28.40.192,LearnStrategy,2023.2.3,Linux x86_64,60.97560976,,,,,,,,,,,5,09,3,7,,,,,,,,,,,,,,,,,,,,,,,,,,,,,,,
6647b26b402c0a3c5ab8b0cd,SCR,2024-06-20_13h28.40.192,LearnStrategy,2023.2.3,Linux x86_64,60.97560976,,,,,,,,,,,5,12,3,8,,,,,,,,,,,,,,,,,,,,,,,,,,,,,,,
6647b26b402c0a3c5ab8b0cd,SCR,2024-06-20_13h28.40.192,LearnStrategy,2023.2.3,Linux x86_64,60.97560976,,,,,,,,,,,2,08,4,1,,,,,,,,,,,,,,,,,,,,,,,,,,,,,,,
6647b26b402c0a3c5ab8b0cd,SCR,2024-06-20_13h28.40.192,LearnStrategy,2023.2.3,Linux x86_64,60.97560976,,,,,,,,,,,2,02,4,2,,,,,,,,,,,,,,,,,,,,,,,,,,,,,,,
6647b26b402c0a3c5ab8b0cd,SCR,2024-06-20_13h28.40.192,LearnStrategy,2023.2.3,Linux x86_64,60.97560976,,,,,,,,,,,4,11,4,3,,,,,,,,,,,,,,,,,,,,,,,,,,,,,,,
6647b26b402c0a3c5ab8b0cd,SCR,2024-06-20_13h28.40.192,LearnStrategy,2023.2.3,Linux x86_64,60.97560976,,,,,,,,,,,8,15,4,4,,,,,,,,,,,,,,,,,,,,,,,,,,,,,,,
6647b26b402c0a3c5ab8b0cd,SCR,2024-06-20_13h28.40.192,LearnStrategy,2023.2.3,Linux x86_64,60.97560976,,,,,,,,,,,3,08,4,5,,,,,,,,,,,,,,,,,,,,,,,,,,,,,,,
6647b26b402c0a3c5ab8b0cd,SCR,2024-06-20_13h28.40.192,LearnStrategy,2023.2.3,Linux x86_64,60.97560976,,,,,,,,,,,1,09,4,6,,,,,,,,,,,,,,,,,,,,,,,,,,,,,,,
6647b26b402c0a3c5ab8b0cd,SCR,2024-06-20_13h28.40.192,LearnStrategy,2023.2.3,Linux x86_64,60.97560976,,,,,,,,,,,1,10,4,7,,,,,,,,,,,,,,,,,,,,,,,,,,,,,,,
6647b26b402c0a3c5ab8b0cd,SCR,2024-06-20_13h28.40.192,LearnStrategy,2023.2.3,Linux x86_64,60.97560976,,,,,,,,,,,1,16,4,8,,,,,,,,,,,,,,,,,,,,,,,,,,,,,,,
6647b26b402c0a3c5ab8b0cd,SCR,2024-06-20_13h28.40.192,LearnStrategy,2023.2.3,Linux x86_64,60.97560976,,,,,,,,,,,6,15,5,1,,,,,,,,,,,,,,,,,,,,,,,,,,,,,,,
6647b26b402c0a3c5ab8b0cd,SCR,2024-06-20_13h28.40.192,LearnStrategy,2023.2.3,Linux x86_64,60.97560976,,,,,,,,,,,4,16,5,2,,,,,,,,,,,,,,,,,,,,,,,,,,,,,,,
6647b26b402c0a3c5ab8b0cd,SCR,2024-06-20_13h28.40.192,LearnStrategy,2023.2.3,Linux x86_64,60.97560976,,,,,,,,,,,3,16,5,3,,,,,,,,,,,,,,,,,,,,,,,,,,,,,,,
6647b26b402c0a3c5ab8b0cd,SCR,2024-06-20_13h28.40.192,LearnStrategy,2023.2.3,Linux x86_64,60.97560976,,,,,,,,,,,3,13,5,4,,,,,,,,,,,,,,,,,,,,,,,,,,,,,,,
6647b26b402c0a3c5ab8b0cd,SCR,2024-06-20_13h28.40.192,LearnStrategy,2023.2.3,Linux x86_64,60.97560976,,,,,,,,,,,3,09,5,5,,,,,,,,,,,,,,,,,,,,,,,,,,,,,,,
6647b26b402c0a3c5ab8b0cd,SCR,2024-06-20_13h28.40.192,LearnStrategy,2023.2.3,Linux x86_64,60.97560976,,,,,,,,,,,2,12,5,6,,,,,,,,,,,,,,,,,,,,,,,,,,,,,,,
6647b26b402c0a3c5ab8b0cd,SCR,2024-06-20_13h28.40.192,LearnStrategy,2023.2.3,Linux x86_64,60.97560976,,,,,,,,,,,2,04,5,7,,,,,,,,,,,,,,,,,,,,,,,,,,,,,,,
6647b26b402c0a3c5ab8b0cd,SCR,2024-06-20_13h28.40.192,LearnStrategy,2023.2.3,Linux x86_64,60.97560976,,,,,,,,,,,6,07,5,8,,,,,,,,,,,,,,,,,,,,,,,,,,,,,,,
6647b26b402c0a3c5ab8b0cd,SCR,2024-06-20_13h28.40.192,LearnStrategy,2023.2.3,Linux x86_64,60.97560976,,,,,,,,,,,1,14,6,1,,,,,,,,,,,,,,,,,,,,,,,,,,,,,,,
6647b26b402c0a3c5ab8b0cd,SCR,2024-06-20_13h28.40.192,LearnStrategy,2023.2.3,Linux x86_64,60.97560976,,,,,,,,,,,8,05,6,2,,,,,,,,,,,,,,,,,,,,,,,,,,,,,,,
6647b26b402c0a3c5ab8b0cd,SCR,2024-06-20_13h28.40.192,LearnStrategy,2023.2.3,Linux x86_64,60.97560976,,,,,,,,,,,4,15,6,3,,,,,,,,,,,,,,,,,,,,,,,,,,,,,,,
6647b26b402c0a3c5ab8b0cd,SCR,2024-06-20_13h28.40.192,LearnStrategy,2023.2.3,Linux x86_64,60.97560976,,,,,,,,,,,4,10,6,4,,,,,,,,,,,,,,,,,,,,,,,,,,,,,,,
6647b26b402c0a3c5ab8b0cd,SCR,2024-06-20_13h28.40.192,LearnStrategy,2023.2.3,Linux x86_64,60.97560976,,,,,,,,,,,1,07,6,5,,,,,,,,,,,,,,,,,,,,,,,,,,,,,,,
6647b26b402c0a3c5ab8b0cd,SCR,2024-06-20_13h28.40.192,LearnStrategy,2023.2.3,Linux x86_64,60.97560976,,,,,,,,,,,7,07,6,6,,,,,,,,,,,,,,,,,,,,,,,,,,,,,,,
6647b26b402c0a3c5ab8b0cd,SCR,2024-06-20_13h28.40.192,LearnStrategy,2023.2.3,Linux x86_64,60.97560976,,,,,,,,,,,3,11,6,7,,,,,,,,,,,,,,,,,,,,,,,,,,,,,,,
6647b26b402c0a3c5ab8b0cd,SCR,2024-06-20_13h28.40.192,LearnStrategy,2023.2.3,Linux x86_64,60.97560976,,,,,,,,,,,6,16,6,8,,,,,,,,,,,,,,,,,,,,,,,,,,,,,,,