participant,condition,date,expName,psychopyVersion,OS,frameRate,block,phase,trial,learn_mouse_2.x,learn_mouse_2.y,learn_mouse_2.leftButton,learn_mouse_2.midButton,learn_mouse_2.rightButton,learn_mouse_2.time,learn_mouse_2.clicked_name,cat,token,row,col,t_select,cat_mouse_l.x,cat_mouse_l.y,cat_mouse_l.leftButton,cat_mouse_l.midButton,cat_mouse_l.rightButton,cat_mouse_l.time,cat_mouse_l.clicked_name,resp,t_resp,corr,train_trials.thisRepN,train_trials.thisTrialN,train_trials.thisN,train_trials.thisIndex,train_trials.ran,cat_mouse_t.x,cat_mouse_t.y,cat_mouse_t.leftButton,cat_mouse_t.midButton,cat_mouse_t.rightButton,cat_mouse_t.time,cat_mouse_t.clicked_name,test_trials.thisRepN,test_trials.thisTrialN,test_trials.thisN,test_trials.thisIndex,test_trials.ran,Bonus
664925f5dac2a21296428a6f,TCN,2024-06-24_11h46.06.168,LearnStrategy,2023.2.3,MacIntel,57.14285714,,,,,,,,,,,,,,,,,,,,,,,,,,,,,,,,,,,,,,,,,,,
664925f5dac2a21296428a6f,TCN,2024-06-24_11h46.06.168,LearnStrategy,2023.2.3,MacIntel,57.14285714,1,1,1,0.137174988,-0.011832301,1,0,0,4.8469,rock_grid_rect_2,5,08,-1,-1,4.847,-0.324175517,-0.415109338,1,0,0,37.4857,Obsidian_rect,5,37.486,1,0,0,0,0,1,,,,,,,,,,,,,
664925f5dac2a21296428a6f,TCN,2024-06-24_11h46.06.168,LearnStrategy,2023.2.3,MacIntel,57.14285714,1,1,2,-0.029001363,-0.015457831,1,0,0,9.3144,rock_grid_rect_2,6,12,-1,-1,9.314,-0.472231208,-0.236444431,1,0,0,96.1486,Andesite_rect,1,96.149,0,1,0,1,0,1,,,,,,,,,,,,,
664925f5dac2a21296428a6f,TCN,2024-06-24_11h46.06.168,LearnStrategy,2023.2.3,MacIntel,57.14285714,1,1,3,0.160247888,-0.000430171,1,0,0,4.0844,rock_grid_rect_2,3,09,-1,-1,4.084,-0.120873515,-0.412837219,1,0,0,34.0065,Pegmatite_rect,6,34.007,0,2,0,2,0,1,,,,,,,,,,,,,
664925f5dac2a21296428a6f,TCN,2024-06-24_11h46.06.168,LearnStrategy,2023.2.3,MacIntel,57.14285714,1,1,4,0.116011726,-0.009896681,1,0,0,3.4955,rock_grid_rect_2,2,04,-1,-1,3.495,-0.106583659,-0.235703532,1,0,0,42.8347,Basalt_rect,2,42.835,1,3,0,3,0,1,,,,,,,,,,,,,
664925f5dac2a21296428a6f,TCN,2024-06-24_11h46.06.168,LearnStrategy,2023.2.3,MacIntel,57.14285714,1,1,5,0.195998383,0.001217948,1,0,0,2.1894,rock_grid_rect_2,5,12,-1,-1,2.189,-0.330604553,-0.39764311,1,0,0,2.1372,Obsidian_rect,5,2.137,1,4,0,4,0,1,,,,,,,,,,,,,
664925f5dac2a21296428a6f,TCN,2024-06-24_11h46.06.168,LearnStrategy,2023.2.3,MacIntel,57.14285714,1,1,6,-0.001096853,-0.013431083,1,0,0,1.2351,rock_grid_rect_2,6,10,-1,-1,1.235,0.190941789,-0.395438809,1,0,0,5.4066,Peridotite_rect,7,5.407,0,5,0,5,0,1,,,,,,,,,,,,,
664925f5dac2a21296428a6f,TCN,2024-06-24_11h46.06.168,LearnStrategy,2023.2.3,MacIntel,57.14285714,1,1,7,-0.006157939,-0.000245412,1,0,0,2.3604,rock_grid_rect_2,4,09,-1,-1,2.36,0.191601732,-0.253678725,1,0,0,12.965,Diorite_rect,3,12.965,0,6,0,6,0,1,,,,,,,,,,,,,
664925f5dac2a21296428a6f,TCN,2024-06-24_11h46.06.168,LearnStrategy,2023.2.3,MacIntel,57.14285714,1,1,8,-0.009295739,-0.011610709,1,0,0,1.1941,rock_grid_rect_2,1,07,-1,-1,1.194,-0.110880195,-0.249309794,1,0,0,21.9568,Basalt_rect,2,21.957,0,7,0,7,0,1,,,,,,,,,,,,,
664925f5dac2a21296428a6f,TCN,2024-06-24_11h46.06.168,LearnStrategy,2023.2.3,MacIntel,57.14285714,1,1,9,-0.016529083,-0.005325487,1,0,0,1.2619,rock_grid_rect_2,8,09,-1,-1,1.262,0.344875336,-0.406282298,1,0,0,1.8158,Pumice_rect,8,1.816,1,8,0,8,0,1,,,,,,,,,,,,,
664925f5dac2a21296428a6f,TCN,2024-06-24_11h46.06.168,LearnStrategy,2023.2.3,MacIntel,57.14285714,1,1,10,0.078945584,-0.009486983,1,0,0,1.2365,rock_grid_rect_2,1,06,-1,-1,1.236,-0.389464951,-0.252492693,1,0,0,5.0162,Andesite_rect,1,5.016,1,9,0,9,0,1,,,,,,,,,,,,,
664925f5dac2a21296428a6f,TCN,2024-06-24_11h46.06.168,LearnStrategy,2023.2.3,MacIntel,57.14285714,1,1,11,0.086374834,-0.000731744,1,0,0,1.2706,rock_grid_rect_2,2,05,-1,-1,1.271,0.073562537,-0.25310652,1,0,0,7.329,Diorite_rect,3,7.329,0,10,0,10,0,1,,,,,,,,,,,,,
664925f5dac2a21296428a6f,TCN,2024-06-24_11h46.06.168,LearnStrategy,2023.2.3,MacIntel,57.14285714,1,1,12,0.078944736,0.013821835,1,0,0,1.2647,rock_grid_rect_2,7,15,-1,-1,1.265,-0.325043572,-0.251797655,1,0,0,24.6341,Andesite_rect,1,24.634,0,11,0,11,0,1,,,,,,,,,,,,,
664925f5dac2a21296428a6f,TCN,2024-06-24_11h46.06.168,LearnStrategy,2023.2.3,MacIntel,57.14285714,1,1,13,-0.036857859,0.008013789,1,0,0,0.9942,rock_grid_rect_2,8,14,-1,-1,0.994,0.358089532,-0.387201775,1,0,0,1.1977,Pumice_rect,8,1.198,1,12,0,12,0,1,,,,,,,,,,,,,
664925f5dac2a21296428a6f,TCN,2024-06-24_11h46.06.168,LearnStrategy,2023.2.3,MacIntel,57.14285714,1,1,14,-0.04076767,-0.010950724,1,0,0,1.2222,rock_grid_rect_2,7,06,-1,-1,1.222,0.054349264,-0.389488305,1,0,0,71.6392,Peridotite_rect,7,71.639,1,13,0,13,0,1,,,,,,,,,,,,,
664925f5dac2a21296428a6f,TCN,2024-06-24_11h46.06.168,LearnStrategy,2023.2.3,MacIntel,57.14285714,1,1,15,0.024983215,0.007462862,1,0,0,1.7773,rock_grid_rect_2,4,08,-1,-1,1.777,-0.102912903,-0.258880785,1,0,0,12.6185,Basalt_rect,2,12.619,0,14,0,14,0,1,,,,,,,,,,,,,
664925f5dac2a21296428a6f,TCN,2024-06-24_11h46.06.168,LearnStrategy,2023.2.3,MacIntel,57.14285714,1,1,16,0.027760739,0.004615148,1,0,0,1.1437,rock_grid_rect_2,3,16,-1,-1,1.144,-0.398955494,-0.258856879,1,0,0,13.3591,Andesite_rect,1,13.359,0,15,0,15,0,1,,,,,,,,,,,,,
664925f5dac2a21296428a6f,TCN,2024-06-24_11h46.06.168,LearnStrategy,2023.2.3,MacIntel,57.14285714,1,2,1,,,,,,,,2,12,,,,,,,,,,,8,4.301,0,,,,,,0.390597873,-0.393706089,1,0,0,4.3013,Pumice_rect,0,0,0,0,1,
664925f5dac2a21296428a6f,TCN,2024-06-24_11h46.06.168,LearnStrategy,2023.2.3,MacIntel,57.14285714,1,2,2,,,,,,,,7,04,,,,,,,,,,,6,99.675,0,,,,,,-0.1044782,-0.406799825,1,0,0,99.6749,Pegmatite_rect,1,0,1,0,1,
664925f5dac2a21296428a6f,TCN,2024-06-24_11h46.06.168,LearnStrategy,2023.2.3,MacIntel,57.14285714,1,2,3,,,,,,,,8,04,,,,,,,,,,,8,1.259,1,,,,,,0.332636431,-0.389312914,1,0,0,1.2587,Pumice_rect,2,0,2,0,1,
664925f5dac2a21296428a6f,TCN,2024-06-24_11h46.06.168,LearnStrategy,2023.2.3,MacIntel,57.14285714,1,2,4,,,,,,,,2,16,,,,,,,,,,,4,36.75,0,,,,,,0.450167338,-0.25737203,1,0,0,36.75,Gabbro_rect,3,0,3,0,1,
664925f5dac2a21296428a6f,TCN,2024-06-24_11h46.06.168,LearnStrategy,2023.2.3,MacIntel,57.14285714,1,2,5,,,,,,,,4,14,,,,,,,,,,,1,6.536,0,,,,,,-0.342648655,-0.270782725,1,0,0,6.5364,Andesite_rect,4,0,4,0,1,
664925f5dac2a21296428a6f,TCN,2024-06-24_11h46.06.168,LearnStrategy,2023.2.3,MacIntel,57.14285714,1,2,6,,,,,,,,4,16,,,,,,,,,,,4,10.267,1,,,,,,0.342011685,-0.235012224,1,0,0,10.2666,Gabbro_rect,5,0,5,0,1,
664925f5dac2a21296428a6f,TCN,2024-06-24_11h46.06.168,LearnStrategy,2023.2.3,MacIntel,57.14285714,1,2,7,,,,,,,,6,08,,,,,,,,,,,1,25.239,0,,,,,,-0.320396847,-0.260589684,1,0,0,25.2394,Andesite_rect,6,0,6,0,1,
664925f5dac2a21296428a6f,TCN,2024-06-24_11h46.06.168,LearnStrategy,2023.2.3,MacIntel,57.14285714,1,2,8,,,,,,,,7,10,,,,,,,,,,,7,6.635,1,,,,,,0.084093391,-0.402363163,1,0,0,6.6346,Peridotite_rect,7,0,7,0,1,
664925f5dac2a21296428a6f,TCN,2024-06-24_11h46.06.168,LearnStrategy,2023.2.3,MacIntel,57.14285714,1,2,9,,,,,,,,5,10,,,,,,,,,,,5,1.367,1,,,,,,-0.32578871,-0.406171926,1,0,0,1.3673,Obsidian_rect,8,0,8,0,1,
664925f5dac2a21296428a6f,TCN,2024-06-24_11h46.06.168,LearnStrategy,2023.2.3,MacIntel,57.14285714,1,2,10,,,,,,,,3,11,,,,,,,,,,,3,9.391,1,,,,,,0.165436215,-0.262007226,1,0,0,9.391,Diorite_rect,9,0,9,0,1,
664925f5dac2a21296428a6f,TCN,2024-06-24_11h46.06.168,LearnStrategy,2023.2.3,MacIntel,57.14285714,1,2,11,,,,,,,,1,05,,,,,,,,,,,3,4.487,0,,,,,,0.165436215,-0.262007226,1,0,0,4.4874,Diorite_rect,10,0,10,0,1,
664925f5dac2a21296428a6f,TCN,2024-06-24_11h46.06.168,LearnStrategy,2023.2.3,MacIntel,57.14285714,1,2,12,,,,,,,,6,03,,,,,,,,,,,7,8.539,0,,,,,,0.069516669,-0.414591132,1,0,0,8.5392,Peridotite_rect,11,0,11,0,1,
664925f5dac2a21296428a6f,TCN,2024-06-24_11h46.06.168,LearnStrategy,2023.2.3,MacIntel,57.14285714,1,2,13,,,,,,,,1,16,,,,,,,,,,,3,2.633,0,,,,,,0.098875427,-0.239621396,1,0,0,2.6329,Diorite_rect,12,0,12,0,1,
664925f5dac2a21296428a6f,TCN,2024-06-24_11h46.06.168,LearnStrategy,2023.2.3,MacIntel,57.14285714,1,2,14,,,,,,,,5,09,,,,,,,,,,,5,1.267,1,,,,,,-0.333944872,-0.394959768,1,0,0,1.2667,Obsidian_rect,13,0,13,0,1,
664925f5dac2a21296428a6f,TCN,2024-06-24_11h46.06.168,LearnStrategy,2023.2.3,MacIntel,57.14285714,1,2,15,,,,,,,,3,15,,,,,,,,,,,3,16.716,1,,,,,,0.082650418,-0.262648434,1,0,0,16.7164,Diorite_rect,14,0,14,0,1,
664925f5dac2a21296428a6f,TCN,2024-06-24_11h46.06.168,LearnStrategy,2023.2.3,MacIntel,57.14285714,1,2,16,,,,,,,,8,02,,,,,,,,,,,8,1.254,1,,,,,,0.299680922,-0.386241828,1,0,0,1.2539,Pumice_rect,15,0,15,0,1,
664925f5dac2a21296428a6f,TCN,2024-06-24_11h46.06.168,LearnStrategy,2023.2.3,MacIntel,57.14285714,2,1,1,0.022449154,-0.008502579,1,0,0,1.9359,rock_grid_rect_2,7,12,-1,-1,1.936,0.062113359,-0.389041816,1,0,0,28.9049,Peridotite_rect,7,28.905,1,0,0,0,0,1,,,,,,,,,,,,,
664925f5dac2a21296428a6f,TCN,2024-06-24_11h46.06.168,LearnStrategy,2023.2.3,MacIntel,57.14285714,2,1,2,0.037883335,-7.66754E-05,1,0,0,1.7967,rock_grid_rect_2,8,05,-1,-1,1.797,0.427152761,-0.398618825,1,0,0,1.8115,Pumice_rect,8,1.812,1,1,0,1,0,1,,,,,,,,,,,,,
664925f5dac2a21296428a6f,TCN,2024-06-24_11h46.06.168,LearnStrategy,2023.2.3,MacIntel,57.14285714,2,1,3,0.121538713,-0.003816817,1,0,0,1.3387,rock_grid_rect_2,1,11,-1,-1,1.339,-0.151572842,-0.395528073,1,0,0,37.1064,Pegmatite_rect,6,37.106,0,2,0,2,0,1,,,,,,,,,,,,,
664925f5dac2a21296428a6f,TCN,2024-06-24_11h46.06.168,LearnStrategy,2023.2.3,MacIntel,57.14285714,2,1,4,0.13001158,-0.009115262,1,0,0,1.4604,rock_grid_rect_2,3,12,-1,-1,1.46,-0.42408727,-0.237464396,1,0,0,58.998,Andesite_rect,1,58.998,0,3,0,3,0,1,,,,,,,,,,,,,
664925f5dac2a21296428a6f,TCN,2024-06-24_11h46.06.168,LearnStrategy,2023.2.3,MacIntel,57.14285714,2,1,5,-0.027815586,0.008410094,1,0,0,1.5324,rock_grid_rect_2,6,13,-1,-1,1.532,-0.088642799,-0.419430542,1,0,0,2.6767,Pegmatite_rect,6,2.677,1,4,0,4,0,1,,,,,,,,,,,,,
664925f5dac2a21296428a6f,TCN,2024-06-24_11h46.06.168,LearnStrategy,2023.2.3,MacIntel,57.14285714,2,1,6,-0.001688046,-0.002074348,1,0,0,1.2317,rock_grid_rect_2,8,16,-1,-1,1.232,0.372526381,-0.383116913,1,0,0,1.5107,Pumice_rect,8,1.511,1,5,0,5,0,1,,,,,,,,,,,,,
664925f5dac2a21296428a6f,TCN,2024-06-24_11h46.06.168,LearnStrategy,2023.2.3,MacIntel,57.14285714,2,1,7,0.014526706,-0.015476396,1,0,0,1.1768,rock_grid_rect_2,5,04,-1,-1,1.177,-0.341905848,-0.404841275,1,0,0,1.1936,Obsidian_rect,5,1.194,1,6,0,6,0,1,,,,,,,,,,,,,
664925f5dac2a21296428a6f,TCN,2024-06-24_11h46.06.168,LearnStrategy,2023.2.3,MacIntel,57.14285714,2,1,8,-0.032162984,0.008685642,1,0,0,1.087,rock_grid_rect_2,6,07,-1,-1,1.087,-0.079547967,-0.397456275,1,0,0,8.5025,Pegmatite_rect,6,8.503,1,7,0,7,0,1,,,,,,,,,,,,,
664925f5dac2a21296428a6f,TCN,2024-06-24_11h46.06.168,LearnStrategy,2023.2.3,MacIntel,57.14285714,2,1,9,0.017486487,-0.014010578,1,0,0,0.9757,rock_grid_rect_2,5,06,-1,-1,0.976,-0.320148468,-0.40134591,1,0,0,1.7155,Obsidian_rect,5,1.716,1,8,0,8,0,1,,,,,,,,,,,,,
664925f5dac2a21296428a6f,TCN,2024-06-24_11h46.06.168,LearnStrategy,2023.2.3,MacIntel,57.14285714,2,1,10,0.005696615,0.002731917,1,0,0,1.1537,rock_grid_rect_2,3,02,-1,-1,1.154,0.111252764,-0.257641432,1,0,0,2.7133,Diorite_rect,3,2.713,1,9,0,9,0,1,,,,,,,,,,,,,
664925f5dac2a21296428a6f,TCN,2024-06-24_11h46.06.168,LearnStrategy,2023.2.3,MacIntel,57.14285714,2,1,11,0.108294254,0.018765683,1,0,0,2.4977,rock_grid_rect_2,2,14,-1,-1,2.498,0.324209849,-0.395457713,1,0,0,2.8189,Pumice_rect,8,2.819,0,10,0,10,0,1,,,,,,,,,,,,,
664925f5dac2a21296428a6f,TCN,2024-06-24_11h46.06.168,LearnStrategy,2023.2.3,MacIntel,57.14285714,2,1,12,0.115257178,-0.012246916,1,0,0,1.6746,rock_grid_rect_2,1,14,-1,-1,1.675,-0.339071867,-0.24023641,1,0,0,2.5104,Andesite_rect,1,2.51,1,11,0,11,0,1,,,,,,,,,,,,,
664925f5dac2a21296428a6f,TCN,2024-06-24_11h46.06.168,LearnStrategy,2023.2.3,MacIntel,57.14285714,2,1,13,-0.001287164,-0.005404833,1,0,0,1.461,rock_grid_rect_2,7,16,-1,-1,1.461,0.048422835,-0.389431508,1,0,0,2.3275,Peridotite_rect,7,2.328,1,12,0,12,0,1,,,,,,,,,,,,,
664925f5dac2a21296428a6f,TCN,2024-06-24_11h46.06.168,LearnStrategy,2023.2.3,MacIntel,57.14285714,2,1,14,0.00500963,0.002933333,1,0,0,1.3321,rock_grid_rect_2,4,01,-1,-1,1.332,-0.435168839,-0.262205421,1,0,0,6.4705,Andesite_rect,1,6.47,0,13,0,13,0,1,,,,,,,,,,,,,
664925f5dac2a21296428a6f,TCN,2024-06-24_11h46.06.168,LearnStrategy,2023.2.3,MacIntel,57.14285714,2,1,15,0.035668437,-0.00924068,1,0,0,1,rock_grid_rect_2,4,15,-1,-1,1,0.154330105,-0.267697313,1,0,0,4.9352,Diorite_rect,3,4.935,0,14,0,14,0,1,,,,,,,,,,,,,
664925f5dac2a21296428a6f,TCN,2024-06-24_11h46.06.168,LearnStrategy,2023.2.3,MacIntel,57.14285714,2,1,16,0.057251061,-0.016380692,1,0,0,1.1927,rock_grid_rect_2,2,09,-1,-1,1.193,-0.143088616,-0.269687059,1,0,0,17.4376,Basalt_rect,2,17.438,1,15,0,15,0,1,,,,,,,,,,,,,
664925f5dac2a21296428a6f,TCN,2024-06-24_11h46.06.168,LearnStrategy,2023.2.3,MacIntel,57.14285714,2,2,1,,,,,,,,8,10,,,,,,,,,,,8,4.272,1,,,,,,0.32679401,-0.403846402,1,0,0,4.2717,Pumice_rect,0,0,0,0,1,
664925f5dac2a21296428a6f,TCN,2024-06-24_11h46.06.168,LearnStrategy,2023.2.3,MacIntel,57.14285714,2,2,2,,,,,,,,3,10,,,,,,,,,,,3,10.861,1,,,,,,0.062022654,-0.265631866,1,0,0,10.8612,Diorite_rect,1,0,1,0,1,
664925f5dac2a21296428a6f,TCN,2024-06-24_11h46.06.168,LearnStrategy,2023.2.3,MacIntel,57.14285714,2,2,3,,,,,,,,5,11,,,,,,,,,,,5,1.293,1,,,,,,-0.43039199,-0.412988875,1,0,0,1.293,Obsidian_rect,2,0,2,0,1,
664925f5dac2a21296428a6f,TCN,2024-06-24_11h46.06.168,LearnStrategy,2023.2.3,MacIntel,57.14285714,2,2,4,,,,,,,,4,13,,,,,,,,,,,3,29.323,0,,,,,,0.106404622,-0.230742645,1,0,0,29.3227,Diorite_rect,3,0,3,0,1,
664925f5dac2a21296428a6f,TCN,2024-06-24_11h46.06.168,LearnStrategy,2023.2.3,MacIntel,57.14285714,2,2,5,,,,,,,,7,13,,,,,,,,,,,7,4.272,1,,,,,,0.132617527,-0.385472192,1,0,0,4.2721,Peridotite_rect,4,0,4,0,1,
664925f5dac2a21296428a6f,TCN,2024-06-24_11h46.06.168,LearnStrategy,2023.2.3,MacIntel,57.14285714,2,2,6,,,,,,,,8,08,,,,,,,,,,,8,1.478,1,,,,,,0.339246453,-0.396159787,1,0,0,1.4783,Pumice_rect,5,0,5,0,1,
664925f5dac2a21296428a6f,TCN,2024-06-24_11h46.06.168,LearnStrategy,2023.2.3,MacIntel,57.14285714,2,2,7,,,,,,,,1,09,,,,,,,,,,,3,13.704,0,,,,,,0.063145108,-0.252380202,1,0,0,13.7041,Diorite_rect,6,0,6,0,1,
664925f5dac2a21296428a6f,TCN,2024-06-24_11h46.06.168,LearnStrategy,2023.2.3,MacIntel,57.14285714,2,2,8,,,,,,,,4,05,,,,,,,,,,,2,5.655,0,,,,,,-0.035705397,-0.247831726,1,0,0,5.6552,Basalt_rect,7,0,7,0,1,
664925f5dac2a21296428a6f,TCN,2024-06-24_11h46.06.168,LearnStrategy,2023.2.3,MacIntel,57.14285714,2,2,9,,,,,,,,5,14,,,,,,,,,,,5,1.205,1,,,,,,-0.325487815,-0.405242242,1,0,0,1.2049,Obsidian_rect,8,0,8,0,1,
664925f5dac2a21296428a6f,TCN,2024-06-24_11h46.06.168,LearnStrategy,2023.2.3,MacIntel,57.14285714,2,2,10,,,,,,,,6,09,,,,,,,,,,,7,6.634,0,,,,,,0.069062636,-0.395997111,1,0,0,6.6343,Peridotite_rect,9,0,9,0,1,
664925f5dac2a21296428a6f,TCN,2024-06-24_11h46.06.168,LearnStrategy,2023.2.3,MacIntel,57.14285714,2,2,11,,,,,,,,3,13,,,,,,,,,,,3,20.083,1,,,,,,0.101848094,-0.262460412,1,0,0,20.0831,Diorite_rect,10,0,10,0,1,
664925f5dac2a21296428a6f,TCN,2024-06-24_11h46.06.168,LearnStrategy,2023.2.3,MacIntel,57.14285714,2,2,12,,,,,,,,2,01,,,,,,,,,,,2,29.124,1,,,,,,-0.097162374,-0.242213355,1,0,0,29.1241,Basalt_rect,11,0,11,0,1,
664925f5dac2a21296428a6f,TCN,2024-06-24_11h46.06.168,LearnStrategy,2023.2.3,MacIntel,57.14285714,2,2,13,,,,,,,,6,11,,,,,,,,,,,1,21.369,0,,,,,,-0.31679874,-0.234276157,1,0,0,21.3694,Andesite_rect,12,0,12,0,1,
664925f5dac2a21296428a6f,TCN,2024-06-24_11h46.06.168,LearnStrategy,2023.2.3,MacIntel,57.14285714,2,2,14,,,,,,,,2,06,,,,,,,,,,,2,4.002,1,,,,,,-0.148881022,-0.252600861,1,0,0,4.0024,Basalt_rect,13,0,13,0,1,
664925f5dac2a21296428a6f,TCN,2024-06-24_11h46.06.168,LearnStrategy,2023.2.3,MacIntel,57.14285714,2,2,15,,,,,,,,1,02,,,,,,,,,,,6,16.399,0,,,,,,-0.171286604,-0.383466848,1,0,0,16.3986,Pegmatite_rect,14,0,14,0,1,
664925f5dac2a21296428a6f,TCN,2024-06-24_11h46.06.168,LearnStrategy,2023.2.3,MacIntel,57.14285714,2,2,16,,,,,,,,7,07,,,,,,,,,,,7,1.833,1,,,,,,0.133149804,-0.394148254,1,0,0,1.8328,Peridotite_rect,15,0,15,0,1,
664925f5dac2a21296428a6f,TCN,2024-06-24_11h46.06.168,LearnStrategy,2023.2.3,MacIntel,57.14285714,3,1,1,-0.039494324,-0.001815584,1,0,0,3.6709,rock_grid_rect_2,1,03,-1,-1,3.671,0.111716292,-0.259785801,1,0,0,8.3968,Diorite_rect,3,8.397,0,0,0,0,0,1,,,,,,,,,,,,,
664925f5dac2a21296428a6f,TCN,2024-06-24_11h46.06.168,LearnStrategy,2023.2.3,MacIntel,57.14285714,3,1,2,-0.026475186,-0.010181597,1,0,0,1.2918,rock_grid_rect_2,4,03,-1,-1,1.292,0.109925673,-0.248265923,1,0,0,3.9033,Diorite_rect,3,3.903,0,1,0,1,0,1,,,,,,,,,,,,,
664925f5dac2a21296428a6f,TCN,2024-06-24_11h46.06.168,LearnStrategy,2023.2.3,MacIntel,57.14285714,3,1,3,0.00092943,-0.013097339,1,0,0,1.4793,rock_grid_rect_2,6,05,-1,-1,1.479,-0.316769536,-0.242547947,1,0,0,4.7504,Andesite_rect,1,4.75,0,2,0,2,0,1,,,,,,,,,,,,,
664925f5dac2a21296428a6f,TCN,2024-06-24_11h46.06.168,LearnStrategy,2023.2.3,MacIntel,57.14285714,3,1,4,0.10760871,0.000707414,1,0,0,1.5096,rock_grid_rect_2,8,03,-1,-1,1.51,0.436950599,-0.407816484,1,0,0,1.9192,Pumice_rect,8,1.919,1,3,0,3,0,1,,,,,,,,,,,,,
664925f5dac2a21296428a6f,TCN,2024-06-24_11h46.06.168,LearnStrategy,2023.2.3,MacIntel,57.14285714,3,1,5,0.021413337,0.000500361,1,0,0,1.4174,rock_grid_rect_2,2,11,-1,-1,1.417,-0.062677171,-0.248155636,1,0,0,6.4722,Basalt_rect,2,6.472,1,4,0,4,0,1,,,,,,,,,,,,,
664925f5dac2a21296428a6f,TCN,2024-06-24_11h46.06.168,LearnStrategy,2023.2.3,MacIntel,57.14285714,3,1,6,0.041602665,-0.004010137,1,0,0,1.2968,rock_grid_rect_2,4,10,-1,-1,1.297,0.337938012,-0.246569231,1,0,0,4.9731,Gabbro_rect,4,4.973,1,5,0,5,0,1,,,,,,,,,,,,,
664925f5dac2a21296428a6f,TCN,2024-06-24_11h46.06.168,LearnStrategy,2023.2.3,MacIntel,57.14285714,3,1,7,0.101119486,-0.011205716,1,0,0,1.3604,rock_grid_rect_2,3,14,-1,-1,1.36,0.110466343,-0.231507534,1,0,0,3.8694,Diorite_rect,3,3.869,1,6,0,6,0,1,,,,,,,,,,,,,
664925f5dac2a21296428a6f,TCN,2024-06-24_11h46.06.168,LearnStrategy,2023.2.3,MacIntel,57.14285714,3,1,8,0.068980916,-0.022134315,1,0,0,1.3275,rock_grid_rect_2,8,15,-1,-1,1.328,-0.129336039,-0.257219866,1,0,0,46.8085,Basalt_rect,2,46.808,0,7,0,7,0,1,,,,,,,,,,,,,
664925f5dac2a21296428a6f,TCN,2024-06-24_11h46.06.168,LearnStrategy,2023.2.3,MacIntel,57.14285714,3,1,9,0.00158454,-0.00194291,1,0,0,1.4426,rock_grid_rect_2,7,08,-1,-1,1.443,0.07156957,-0.399287669,1,0,0,3.3134,Peridotite_rect,7,3.313,1,8,0,8,0,1,,,,,,,,,,,,,
664925f5dac2a21296428a6f,TCN,2024-06-24_11h46.06.168,LearnStrategy,2023.2.3,MacIntel,57.14285714,3,1,10,0.023939345,-0.009105216,1,0,0,1.3779,rock_grid_rect_2,6,16,-1,-1,1.378,-0.119667901,-0.410939111,1,0,0,4.2091,Pegmatite_rect,6,4.209,1,9,0,9,0,1,,,,,,,,,,,,,
664925f5dac2a21296428a6f,TCN,2024-06-24_11h46.06.168,LearnStrategy,2023.2.3,MacIntel,57.14285714,3,1,11,-0.01056544,0.006083128,1,0,0,1.4245,rock_grid_rect_2,5,16,-1,-1,1.425,-0.345699565,-0.401976691,1,0,0,1.9062,Obsidian_rect,5,1.906,1,10,0,10,0,1,,,,,,,,,,,,,
664925f5dac2a21296428a6f,TCN,2024-06-24_11h46.06.168,LearnStrategy,2023.2.3,MacIntel,57.14285714,3,1,12,0.033112335,-0.006513426,1,0,0,1.2357,rock_grid_rect_2,5,02,-1,-1,1.236,-0.332201682,-0.398458269,1,0,0,1.2272,Obsidian_rect,5,1.227,1,11,0,11,0,1,,,,,,,,,,,,,
664925f5dac2a21296428a6f,TCN,2024-06-24_11h46.06.168,LearnStrategy,2023.2.3,MacIntel,57.14285714,3,1,13,-0.03716685,-0.017499797,1,0,0,1.2024,rock_grid_rect_2,7,14,-1,-1,1.202,0.074166616,-0.392598979,1,0,0,3.4862,Peridotite_rect,7,3.486,1,12,0,12,0,1,,,,,,,,,,,,,
664925f5dac2a21296428a6f,TCN,2024-06-24_11h46.06.168,LearnStrategy,2023.2.3,MacIntel,57.14285714,3,1,14,-0.003167809,-0.005396907,1,0,0,1.2578,rock_grid_rect_2,2,08,-1,-1,1.258,0.344118669,-0.258018155,1,0,0,4.6737,Gabbro_rect,4,4.674,0,13,0,13,0,1,,,,,,,,,,,,,
664925f5dac2a21296428a6f,TCN,2024-06-24_11h46.06.168,LearnStrategy,2023.2.3,MacIntel,57.14285714,3,1,15,0.002324931,0.018375312,1,0,0,1.097,rock_grid_rect_2,3,06,-1,-1,1.097,0.091213311,-0.234496138,1,0,0,5.161,Diorite_rect,3,5.161,1,14,0,14,0,1,,,,,,,,,,,,,
664925f5dac2a21296428a6f,TCN,2024-06-24_11h46.06.168,LearnStrategy,2023.2.3,MacIntel,57.14285714,3,1,16,0.046454112,0.001550717,1,0,0,1.1035,rock_grid_rect_2,1,01,-1,-1,1.103,0.098726145,-0.251537153,1,0,0,1.8603,Diorite_rect,3,1.86,0,15,0,15,0,1,,,,,,,,,,,,,
664925f5dac2a21296428a6f,TCN,2024-06-24_11h46.06.168,LearnStrategy,2023.2.3,MacIntel,57.14285714,3,2,1,,,,,,,,3,07,,,,,,,,,,,6,5.711,0,,,,,,-0.064643097,-0.397993215,1,0,0,5.7114,Pegmatite_rect,0,0,0,0,1,
664925f5dac2a21296428a6f,TCN,2024-06-24_11h46.06.168,LearnStrategy,2023.2.3,MacIntel,57.14285714,3,2,2,,,,,,,,5,05,,,,,,,,,,,5,2.515,1,,,,,,-0.316955143,-0.390507168,1,0,0,2.5153,Obsidian_rect,1,0,1,0,1,
664925f5dac2a21296428a6f,TCN,2024-06-24_11h46.06.168,LearnStrategy,2023.2.3,MacIntel,57.14285714,3,2,3,,,,,,,,8,06,,,,,,,,,,,8,1.224,1,,,,,,0.353553263,-0.401790195,1,0,0,1.2235,Pumice_rect,2,0,2,0,1,
664925f5dac2a21296428a6f,TCN,2024-06-24_11h46.06.168,LearnStrategy,2023.2.3,MacIntel,57.14285714,3,2,4,,,,,,,,6,15,,,,,,,,,,,6,2.151,1,,,,,,-0.057453156,-0.40458925,1,0,0,2.1509,Pegmatite_rect,3,0,3,0,1,
664925f5dac2a21296428a6f,TCN,2024-06-24_11h46.06.168,LearnStrategy,2023.2.3,MacIntel,57.14285714,3,2,5,,,,,,,,1,04,,,,,,,,,,,1,1.752,1,,,,,,-0.343697866,-0.258376736,1,0,0,1.7516,Andesite_rect,4,0,4,0,1,
664925f5dac2a21296428a6f,TCN,2024-06-24_11h46.06.168,LearnStrategy,2023.2.3,MacIntel,57.14285714,3,2,6,,,,,,,,7,02,,,,,,,,,,,7,1.142,1,,,,,,0.141741096,-0.395041572,1,0,0,1.1423,Peridotite_rect,5,0,5,0,1,
664925f5dac2a21296428a6f,TCN,2024-06-24_11h46.06.168,LearnStrategy,2023.2.3,MacIntel,57.14285714,3,2,7,,,,,,,,2,02,,,,,,,,,,,2,4.788,1,,,,,,-0.105958557,-0.256460232,1,0,0,4.7879,Basalt_rect,6,0,6,0,1,
664925f5dac2a21296428a6f,TCN,2024-06-24_11h46.06.168,LearnStrategy,2023.2.3,MacIntel,57.14285714,3,2,8,,,,,,,,3,08,,,,,,,,,,,3,3.401,1,,,,,,0.051750607,-0.254958513,1,0,0,3.4007,Diorite_rect,7,0,7,0,1,
664925f5dac2a21296428a6f,TCN,2024-06-24_11h46.06.168,LearnStrategy,2023.2.3,MacIntel,57.14285714,3,2,9,,,,,,,,6,06,,,,,,,,,,,6,2.934,1,,,,,,-0.074602339,-0.39169303,1,0,0,2.9335,Pegmatite_rect,8,0,8,0,1,
664925f5dac2a21296428a6f,TCN,2024-06-24_11h46.06.168,LearnStrategy,2023.2.3,MacIntel,57.14285714,3,2,10,,,,,,,,5,07,,,,,,,,,,,5,2.344,1,,,,,,-0.356651094,-0.406154124,1,0,0,2.3442,Obsidian_rect,9,0,9,0,1,
664925f5dac2a21296428a6f,TCN,2024-06-24_11h46.06.168,LearnStrategy,2023.2.3,MacIntel,57.14285714,3,2,11,,,,,,,,4,11,,,,,,,,,,,4,44.74,1,,,,,,0.382409075,-0.237947422,1,0,0,44.7395,Gabbro_rect,10,0,10,0,1,
664925f5dac2a21296428a6f,TCN,2024-06-24_11h46.06.168,LearnStrategy,2023.2.3,MacIntel,57.14285714,3,2,12,,,,,,,,2,10,,,,,,,,,,,2,7.112,1,,,,,,-0.098960114,-0.249364641,1,0,0,7.1125,Basalt_rect,11,0,11,0,1,
664925f5dac2a21296428a6f,TCN,2024-06-24_11h46.06.168,LearnStrategy,2023.2.3,MacIntel,57.14285714,3,2,13,,,,,,,,1,10,,,,,,,,,,,1,1.804,1,,,,,,-0.379034297,-0.267205471,1,0,0,1.8039,Andesite_rect,12,0,12,0,1,
664925f5dac2a21296428a6f,TCN,2024-06-24_11h46.06.168,LearnStrategy,2023.2.3,MacIntel,57.14285714,3,2,14,,,,,,,,8,13,,,,,,,,,,,8,2.465,1,,,,,,0.341465335,-0.404392666,1,0,0,2.465,Pumice_rect,13,0,13,0,1,
664925f5dac2a21296428a6f,TCN,2024-06-24_11h46.06.168,LearnStrategy,2023.2.3,MacIntel,57.14285714,3,2,15,,,,,,,,7,05,,,,,,,,,,,7,2.944,1,,,,,,0.204997593,-0.396068997,1,0,0,2.9441,Peridotite_rect,14,0,14,0,1,
664925f5dac2a21296428a6f,TCN,2024-06-24_11h46.06.168,LearnStrategy,2023.2.3,MacIntel,57.14285714,3,2,16,,,,,,,,4,12,,,,,,,,,,,4,11.453,1,,,,,,0.326238844,-0.269404178,1,0,0,11.4534,Gabbro_rect,15,0,15,0,1,
664925f5dac2a21296428a6f,TCN,2024-06-24_11h46.06.168,LearnStrategy,2023.2.3,MacIntel,57.14285714,4,1,1,0.151265971,-0.011641566,1,0,0,1.4883,rock_grid_rect_2,3,06,-1,-1,1.488,0.11856664,-0.23495831,1,0,0,7.1166,Diorite_rect,3,7.117,1,0,0,0,0,1,,,,,,,,,,,,,
664925f5dac2a21296428a6f,TCN,2024-06-24_11h46.06.168,LearnStrategy,2023.2.3,MacIntel,57.14285714,4,1,2,0.049979231,-0.005404748,1,0,0,1.3357,rock_grid_rect_2,8,03,-1,-1,1.336,0.358819665,-0.385719469,1,0,0,2.0228,Pumice_rect,8,2.023,1,1,0,1,0,1,,,,,,,,,,,,,
664925f5dac2a21296428a6f,TCN,2024-06-24_11h46.06.168,LearnStrategy,2023.2.3,MacIntel,57.14285714,4,1,3,0.020423804,-0.014676158,1,0,0,0.9673,rock_grid_rect_2,4,08,-1,-1,0.967,0.352750651,-0.251774428,1,0,0,2.9171,Gabbro_rect,4,2.917,1,2,0,2,0,1,,,,,,,,,,,,,
664925f5dac2a21296428a6f,TCN,2024-06-24_11h46.06.168,LearnStrategy,2023.2.3,MacIntel,57.14285714,4,1,4,0.011638641,-0.009636519,1,0,0,0.9473,rock_grid_rect_2,1,06,-1,-1,0.947,-0.370573086,-0.246657138,1,0,0,1.8935,Andesite_rect,1,1.894,1,3,0,3,0,1,,,,,,,,,,,,,
664925f5dac2a21296428a6f,TCN,2024-06-24_11h46.06.168,LearnStrategy,2023.2.3,MacIntel,57.14285714,4,1,5,0.00292511,-0.015338855,1,0,0,1.0524,rock_grid_rect_2,5,02,-1,-1,1.052,-0.348662906,-0.405510881,1,0,0,1.1012,Obsidian_rect,5,1.101,1,4,0,4,0,1,,,,,,,,,,,,,
664925f5dac2a21296428a6f,TCN,2024-06-24_11h46.06.168,LearnStrategy,2023.2.3,MacIntel,57.14285714,4,1,6,0.029436069,-0.015718291,1,0,0,1.002,rock_grid_rect_2,6,12,-1,-1,1.002,-0.119917636,-0.405861749,1,0,0,3.7945,Pegmatite_rect,6,3.795,1,5,0,5,0,1,,,,,,,,,,,,,
664925f5dac2a21296428a6f,TCN,2024-06-24_11h46.06.168,LearnStrategy,2023.2.3,MacIntel,57.14285714,4,1,7,0.095078786,-0.012102297,1,0,0,1.9231,rock_grid_rect_2,7,06,-1,-1,1.923,0.164065552,-0.389715322,1,0,0,1.3303,Peridotite_rect,7,1.33,1,6,0,6,0,1,,,,,,,,,,,,,
664925f5dac2a21296428a6f,TCN,2024-06-24_11h46.06.168,LearnStrategy,2023.2.3,MacIntel,57.14285714,4,1,8,0.148621368,0.00273624,1,0,0,1.1232,rock_grid_rect_2,3,12,-1,-1,1.123,0.121153005,-0.252557966,1,0,0,3.6815,Diorite_rect,3,3.682,1,7,0,7,0,1,,,,,,,,,,,,,
664925f5dac2a21296428a6f,TCN,2024-06-24_11h46.06.168,LearnStrategy,2023.2.3,MacIntel,57.14285714,4,1,9,0.004847972,-0.016911485,1,0,0,1.0215,rock_grid_rect_2,2,08,-1,-1,1.021,-0.134307353,-0.251488664,1,0,0,2.9691,Basalt_rect,2,2.969,1,8,0,8,0,1,,,,,,,,,,,,,
664925f5dac2a21296428a6f,TCN,2024-06-24_11h46.06.168,LearnStrategy,2023.2.3,MacIntel,57.14285714,4,1,10,-0.001803758,-0.009339735,1,0,0,1.2555,rock_grid_rect_2,8,09,-1,-1,1.256,0.336636861,-0.406220415,1,0,0,1.2607,Pumice_rect,8,1.261,1,9,0,9,0,1,,,,,,,,,,,,,
664925f5dac2a21296428a6f,TCN,2024-06-24_11h46.06.168,LearnStrategy,2023.2.3,MacIntel,57.14285714,4,1,11,-0.022898526,-0.010569424,1,0,0,1.0044,rock_grid_rect_2,7,16,-1,-1,1.004,0.05949334,-0.407212151,1,0,0,2.8986,Peridotite_rect,7,2.899,1,10,0,10,0,1,,,,,,,,,,,,,
664925f5dac2a21296428a6f,TCN,2024-06-24_11h46.06.168,LearnStrategy,2023.2.3,MacIntel,57.14285714,4,1,12,0.047105577,-0.018253708,1,0,0,1.1523,rock_grid_rect_2,4,09,-1,-1,1.152,-0.099297757,-0.241441854,1,0,0,6.968,Basalt_rect,2,6.968,0,11,0,11,0,1,,,,,,,,,,,,,
664925f5dac2a21296428a6f,TCN,2024-06-24_11h46.06.168,LearnStrategy,2023.2.3,MacIntel,57.14285714,4,1,13,0.036693064,-0.012987942,1,0,0,1.0793,rock_grid_rect_2,5,04,-1,-1,1.079,-0.350787947,-0.407191722,1,0,0,1.6485,Obsidian_rect,5,1.649,1,12,0,12,0,1,,,,,,,,,,,,,
664925f5dac2a21296428a6f,TCN,2024-06-24_11h46.06.168,LearnStrategy,2023.2.3,MacIntel,57.14285714,4,1,14,0.004958598,-0.012015661,1,0,0,0.9976,rock_grid_rect_2,2,09,-1,-1,0.998,-0.072204251,-0.262206692,1,0,0,4.7354,Basalt_rect,2,4.735,1,13,0,13,0,1,,,,,,,,,,,,,
664925f5dac2a21296428a6f,TCN,2024-06-24_11h46.06.168,LearnStrategy,2023.2.3,MacIntel,57.14285714,4,1,15,0.009589386,-0.018986808,1,0,0,0.9722,rock_grid_rect_2,6,07,-1,-1,0.972,-0.14344635,-0.408407932,1,0,0,1.3767,Pegmatite_rect,6,1.377,1,14,0,14,0,1,,,,,,,,,,,,,
664925f5dac2a21296428a6f,TCN,2024-06-24_11h46.06.168,LearnStrategy,2023.2.3,MacIntel,57.14285714,4,1,16,-0.007647875,-0.016429308,1,0,0,0.8855,rock_grid_rect_2,1,11,-1,-1,0.885,-0.328688049,-0.238967556,1,0,0,1.7587,Andesite_rect,1,1.759,1,15,0,15,0,1,,,,,,,,,,,,,
664925f5dac2a21296428a6f,TCN,2024-06-24_11h46.06.168,LearnStrategy,2023.2.3,MacIntel,57.14285714,4,2,1,,,,,,,,1,10,,,,,,,,,,,1,2.253,1,,,,,,-0.334471215,-0.263546499,1,0,0,2.2525,Andesite_rect,0,0,0,0,1,
664925f5dac2a21296428a6f,TCN,2024-06-24_11h46.06.168,LearnStrategy,2023.2.3,MacIntel,57.14285714,4,2,2,,,,,,,,1,05,,,,,,,,,,,1,9.17,1,,,,,,-0.395060009,-0.264608934,1,0,0,9.1699,Andesite_rect,1,0,1,0,1,
664925f5dac2a21296428a6f,TCN,2024-06-24_11h46.06.168,LearnStrategy,2023.2.3,MacIntel,57.14285714,4,2,3,,,,,,,,6,11,,,,,,,,,,,6,1.052,1,,,,,,-0.177032301,-0.397259098,1,0,0,1.052,Pegmatite_rect,2,0,2,0,1,
664925f5dac2a21296428a6f,TCN,2024-06-24_11h46.06.168,LearnStrategy,2023.2.3,MacIntel,57.14285714,4,2,4,,,,,,,,5,05,,,,,,,,,,,5,1.255,1,,,,,,-0.344089932,-0.411797587,1,0,0,1.2546,Obsidian_rect,3,0,3,0,1,
664925f5dac2a21296428a6f,TCN,2024-06-24_11h46.06.168,LearnStrategy,2023.2.3,MacIntel,57.14285714,4,2,5,,,,,,,,8,06,,,,,,,,,,,8,1.302,1,,,,,,0.40557234,-0.394635857,1,0,0,1.3022,Pumice_rect,4,0,4,0,1,
664925f5dac2a21296428a6f,TCN,2024-06-24_11h46.06.168,LearnStrategy,2023.2.3,MacIntel,57.14285714,4,2,6,,,,,,,,4,12,,,,,,,,,,,4,30.465,1,,,,,,0.373573218,-0.257061344,1,0,0,30.4653,Gabbro_rect,5,0,5,0,1,
664925f5dac2a21296428a6f,TCN,2024-06-24_11h46.06.168,LearnStrategy,2023.2.3,MacIntel,57.14285714,4,2,7,,,,,,,,7,05,,,,,,,,,,,7,1.94,1,,,,,,0.217860667,-0.406638251,1,0,0,1.9397,Peridotite_rect,6,0,6,0,1,
664925f5dac2a21296428a6f,TCN,2024-06-24_11h46.06.168,LearnStrategy,2023.2.3,MacIntel,57.14285714,4,2,8,,,,,,,,7,07,,,,,,,,,,,7,1.232,1,,,,,,0.217603895,-0.400735135,1,0,0,1.2324,Peridotite_rect,7,0,7,0,1,
664925f5dac2a21296428a6f,TCN,2024-06-24_11h46.06.168,LearnStrategy,2023.2.3,MacIntel,57.14285714,4,2,9,,,,,,,,3,15,,,,,,,,,,,3,3.771,1,,,,,,0.179601203,-0.258044264,1,0,0,3.7706,Diorite_rect,8,0,8,0,1,
664925f5dac2a21296428a6f,TCN,2024-06-24_11h46.06.168,LearnStrategy,2023.2.3,MacIntel,57.14285714,4,2,10,,,,,,,,3,10,,,,,,,,,,,3,1.006,1,,,,,,0.179601203,-0.258044264,1,0,0,1.0057,Diorite_rect,9,0,9,0,1,
664925f5dac2a21296428a6f,TCN,2024-06-24_11h46.06.168,LearnStrategy,2023.2.3,MacIntel,57.14285714,4,2,11,,,,,,,,2,10,,,,,,,,,,,2,55.898,1,,,,,,-0.082481893,-0.266145494,1,0,0,55.8983,Basalt_rect,10,0,10,0,1,
664925f5dac2a21296428a6f,TCN,2024-06-24_11h46.06.168,LearnStrategy,2023.2.3,MacIntel,57.14285714,4,2,12,,,,,,,,6,15,,,,,,,,,,,6,2.783,1,,,,,,-0.07020518,-0.401795197,1,0,0,2.783,Pegmatite_rect,11,0,11,0,1,
664925f5dac2a21296428a6f,TCN,2024-06-24_11h46.06.168,LearnStrategy,2023.2.3,MacIntel,57.14285714,4,2,13,,,,,,,,4,14,,,,,,,,,,,1,5.405,0,,,,,,-0.34322035,-0.253019036,1,0,0,5.4052,Andesite_rect,12,0,12,0,1,
664925f5dac2a21296428a6f,TCN,2024-06-24_11h46.06.168,LearnStrategy,2023.2.3,MacIntel,57.14285714,4,2,14,,,,,,,,5,07,,,,,,,,,,,5,1.019,1,,,,,,-0.401061927,-0.416110908,1,0,0,1.0191,Obsidian_rect,13,0,13,0,1,
664925f5dac2a21296428a6f,TCN,2024-06-24_11h46.06.168,LearnStrategy,2023.2.3,MacIntel,57.14285714,4,2,15,,,,,,,,2,06,,,,,,,,,,,2,5.8,1,,,,,,-0.157307773,-0.24795795,1,0,0,5.7997,Basalt_rect,14,0,14,0,1,
664925f5dac2a21296428a6f,TCN,2024-06-24_11h46.06.168,LearnStrategy,2023.2.3,MacIntel,57.14285714,4,2,16,,,,,,,,8,02,,,,,,,,,,,8,1.443,1,,,,,,0.462148794,-0.408168454,1,0,0,1.4431,Pumice_rect,15,0,15,0,1,
664925f5dac2a21296428a6f,TCN,2024-06-24_11h46.06.168,LearnStrategy,2023.2.3,MacIntel,57.14285714,5,1,1,0.075048659,-0.015844938,1,0,0,1.7214,rock_grid_rect_2,7,12,-1,-1,1.721,0.074495019,-0.403171031,1,0,0,1.6499,Peridotite_rect,7,1.65,1,0,0,0,0,1,,,,,,,,,,,,,
664925f5dac2a21296428a6f,TCN,2024-06-24_11h46.06.168,LearnStrategy,2023.2.3,MacIntel,57.14285714,5,1,2,0.137091827,-0.017027918,1,0,0,1.07,rock_grid_rect_2,2,11,-1,-1,1.07,-0.056076813,-0.247115411,1,0,0,3.7172,Basalt_rect,2,3.717,1,1,0,1,0,1,,,,,,,,,,,,,
664925f5dac2a21296428a6f,TCN,2024-06-24_11h46.06.168,LearnStrategy,2023.2.3,MacIntel,57.14285714,5,1,3,0.107492998,0.003811773,1,0,0,1.245,rock_grid_rect_2,5,08,-1,-1,1.245,-0.329688432,-0.380890401,1,0,0,1.1822,Obsidian_rect,5,1.182,1,2,0,2,0,1,,,,,,,,,,,,,
664925f5dac2a21296428a6f,TCN,2024-06-24_11h46.06.168,LearnStrategy,2023.2.3,MacIntel,57.14285714,5,1,4,0.115202247,0.000103209,1,0,0,1.2227,rock_grid_rect_2,5,06,-1,-1,1.223,-0.358855693,-0.394791836,1,0,0,1.1106,Obsidian_rect,5,1.111,1,3,0,3,0,1,,,,,,,,,,,,,
664925f5dac2a21296428a6f,TCN,2024-06-24_11h46.06.168,LearnStrategy,2023.2.3,MacIntel,57.14285714,5,1,5,0.056119707,-0.013639196,1,0,0,0.9888,rock_grid_rect_2,2,05,-1,-1,0.989,0.343631744,-0.243723551,1,0,0,8.5998,Gabbro_rect,4,8.6,0,4,0,4,0,1,,,,,,,,,,,,,
664925f5dac2a21296428a6f,TCN,2024-06-24_11h46.06.168,LearnStrategy,2023.2.3,MacIntel,57.14285714,5,1,6,0.105167982,-0.000295512,1,0,0,1.199,rock_grid_rect_2,1,01,-1,-1,1.199,0.090070513,-0.237574599,1,0,0,2.4957,Diorite_rect,3,2.496,0,5,0,5,0,1,,,,,,,,,,,,,
664925f5dac2a21296428a6f,TCN,2024-06-24_11h46.06.168,LearnStrategy,2023.2.3,MacIntel,57.14285714,5,1,7,0.051955244,-0.002031369,1,0,0,1.2424,rock_grid_rect_2,8,15,-1,-1,1.242,0.383069865,-0.392190637,1,0,0,4.0061,Pumice_rect,8,4.006,1,6,0,6,0,1,,,,,,,,,,,,,
664925f5dac2a21296428a6f,TCN,2024-06-24_11h46.06.168,LearnStrategy,2023.2.3,MacIntel,57.14285714,5,1,8,0.032223172,0.005675676,1,0,0,1.0822,rock_grid_rect_2,4,15,-1,-1,1.082,-0.451155175,-0.252085029,1,0,0,4.2454,Andesite_rect,1,4.245,0,7,0,7,0,1,,,,,,,,,,,,,
664925f5dac2a21296428a6f,TCN,2024-06-24_11h46.06.168,LearnStrategy,2023.2.3,MacIntel,57.14285714,5,1,9,0.006961399,-0.009539371,1,0,0,1.2459,rock_grid_rect_2,3,14,-1,-1,1.246,0.072135078,-0.236462402,1,0,0,5.2972,Diorite_rect,3,5.297,1,8,0,8,0,1,,,,,,,,,,,,,
664925f5dac2a21296428a6f,TCN,2024-06-24_11h46.06.168,LearnStrategy,2023.2.3,MacIntel,57.14285714,5,1,10,0.06525667,0.011351013,1,0,0,1.3656,rock_grid_rect_2,8,14,-1,-1,1.366,0.411449856,-0.404031626,1,0,0,1.1914,Pumice_rect,8,1.191,1,9,0,9,0,1,,,,,,,,,,,,,
664925f5dac2a21296428a6f,TCN,2024-06-24_11h46.06.168,LearnStrategy,2023.2.3,MacIntel,57.14285714,5,1,11,-0.013066101,-0.000607597,1,0,0,1.1707,rock_grid_rect_2,6,10,-1,-1,1.171,0.083298747,-0.38899782,1,0,0,1.5272,Peridotite_rect,7,1.527,0,10,0,10,0,1,,,,,,,,,,,,,
664925f5dac2a21296428a6f,TCN,2024-06-24_11h46.06.168,LearnStrategy,2023.2.3,MacIntel,57.14285714,5,1,12,0.077346463,0.00954611,1,0,0,1.433,rock_grid_rect_2,6,16,-1,-1,1.433,-0.0759591,-0.390539381,1,0,0,1.2466,Pegmatite_rect,6,1.247,1,11,0,11,0,1,,,,,,,,,,,,,
664925f5dac2a21296428a6f,TCN,2024-06-24_11h46.06.168,LearnStrategy,2023.2.3,MacIntel,57.14285714,5,1,13,0.049204424,-0.010486264,1,0,0,1.2501,rock_grid_rect_2,3,02,-1,-1,1.25,0.08671307,-0.246572622,1,0,0,1.6548,Diorite_rect,3,1.655,1,12,0,12,0,1,,,,,,,,,,,,,
664925f5dac2a21296428a6f,TCN,2024-06-24_11h46.06.168,LearnStrategy,2023.2.3,MacIntel,57.14285714,5,1,14,0.082283105,-6.15438E-05,1,0,0,1.1173,rock_grid_rect_2,1,14,-1,-1,1.117,-0.336201901,-0.230944146,1,0,0,1.8783,Andesite_rect,1,1.878,1,13,0,13,0,1,,,,,,,,,,,,,
664925f5dac2a21296428a6f,TCN,2024-06-24_11h46.06.168,LearnStrategy,2023.2.3,MacIntel,57.14285714,5,1,15,0.106018829,-0.006648339,1,0,0,1.5848,rock_grid_rect_2,7,15,-1,-1,1.585,0.049013689,-0.395143212,1,0,0,4.4962,Peridotite_rect,7,4.496,1,14,0,14,0,1,,,,,,,,,,,,,
664925f5dac2a21296428a6f,TCN,2024-06-24_11h46.06.168,LearnStrategy,2023.2.3,MacIntel,57.14285714,5,1,16,0.07293379,-0.022403081,1,0,0,1.0563,rock_grid_rect_2,4,03,-1,-1,1.056,0.418405321,-0.258860948,1,0,0,22.1941,Gabbro_rect,4,22.194,1,15,0,15,0,1,,,,,,,,,,,,,
664925f5dac2a21296428a6f,TCN,2024-06-24_11h46.06.168,LearnStrategy,2023.2.3,MacIntel,57.14285714,5,2,1,,,,,,,,5,14,,,,,,,,,,,5,1.241,1,,,,,,-0.318449699,-0.388172404,1,0,0,1.2413,Obsidian_rect,0,0,0,0,1,
664925f5dac2a21296428a6f,TCN,2024-06-24_11h46.06.168,LearnStrategy,2023.2.3,MacIntel,57.14285714,5,2,2,,,,,,,,8,08,,,,,,,,,,,8,1.282,1,,,,,,0.369702742,-0.420368788,1,0,0,1.2821,Pumice_rect,1,0,1,0,1,
664925f5dac2a21296428a6f,TCN,2024-06-24_11h46.06.168,LearnStrategy,2023.2.3,MacIntel,57.14285714,5,2,3,,,,,,,,1,16,,,,,,,,,,,1,1.884,1,,,,,,-0.367539639,-0.232881419,1,0,0,1.8844,Andesite_rect,2,0,2,0,1,
664925f5dac2a21296428a6f,TCN,2024-06-24_11h46.06.168,LearnStrategy,2023.2.3,MacIntel,57.14285714,5,2,4,,,,,,,,4,13,,,,,,,,,,,4,29.193,1,,,,,,0.453822751,-0.254011027,1,0,0,29.1931,Gabbro_rect,3,0,3,0,1,
664925f5dac2a21296428a6f,TCN,2024-06-24_11h46.06.168,LearnStrategy,2023.2.3,MacIntel,57.14285714,5,2,5,,,,,,,,7,13,,,,,,,,,,,7,1.568,1,,,,,,0.153622945,-0.411310916,1,0,0,1.5682,Peridotite_rect,4,0,4,0,1,
664925f5dac2a21296428a6f,TCN,2024-06-24_11h46.06.168,LearnStrategy,2023.2.3,MacIntel,57.14285714,5,2,6,,,,,,,,6,08,,,,,,,,,,,6,2.073,1,,,,,,-0.123798455,-0.381559245,1,0,0,2.0729,Pegmatite_rect,5,0,5,0,1,
664925f5dac2a21296428a6f,TCN,2024-06-24_11h46.06.168,LearnStrategy,2023.2.3,MacIntel,57.14285714,5,2,7,,,,,,,,5,10,,,,,,,,,,,5,1.282,1,,,,,,-0.335335626,-0.388739946,1,0,0,1.282,Obsidian_rect,6,0,6,0,1,
664925f5dac2a21296428a6f,TCN,2024-06-24_11h46.06.168,LearnStrategy,2023.2.3,MacIntel,57.14285714,5,2,8,,,,,,,,2,01,,,,,,,,,,,2,23.165,1,,,,,,-0.208012093,-0.26065411,1,0,0,23.1654,Basalt_rect,7,0,7,0,1,
664925f5dac2a21296428a6f,TCN,2024-06-24_11h46.06.168,LearnStrategy,2023.2.3,MacIntel,57.14285714,5,2,9,,,,,,,,4,11,,,,,,,,,,,4,8.229,1,,,,,,0.317197673,-0.250766924,1,0,0,8.2291,Gabbro_rect,8,0,8,0,1,
664925f5dac2a21296428a6f,TCN,2024-06-24_11h46.06.168,LearnStrategy,2023.2.3,MacIntel,57.14285714,5,2,10,,,,,,,,8,10,,,,,,,,,,,8,2.313,1,,,,,,0.4353764,-0.402550507,1,0,0,2.3128,Pumice_rect,9,0,9,0,1,
664925f5dac2a21296428a6f,TCN,2024-06-24_11h46.06.168,LearnStrategy,2023.2.3,MacIntel,57.14285714,5,2,11,,,,,,,,1,02,,,,,,,,,,,1,1.99,1,,,,,,-0.344281133,-0.243772549,1,0,0,1.9898,Andesite_rect,10,0,10,0,1,
664925f5dac2a21296428a6f,TCN,2024-06-24_11h46.06.168,LearnStrategy,2023.2.3,MacIntel,57.14285714,5,2,12,,,,,,,,6,09,,,,,,,,,,,6,1.281,1,,,,,,-0.200397534,-0.40074802,1,0,0,1.2813,Pegmatite_rect,11,0,11,0,1,
664925f5dac2a21296428a6f,TCN,2024-06-24_11h46.06.168,LearnStrategy,2023.2.3,MacIntel,57.14285714,5,2,13,,,,,,,,3,13,,,,,,,,,,,3,2.012,1,,,,,,0.047453054,-0.25479109,1,0,0,2.0123,Diorite_rect,12,0,12,0,1,
664925f5dac2a21296428a6f,TCN,2024-06-24_11h46.06.168,LearnStrategy,2023.2.3,MacIntel,57.14285714,5,2,14,,,,,,,,3,11,,,,,,,,,,,3,1.149,1,,,,,,0.047453054,-0.25479109,1,0,0,1.1485,Diorite_rect,13,0,13,0,1,
664925f5dac2a21296428a6f,TCN,2024-06-24_11h46.06.168,LearnStrategy,2023.2.3,MacIntel,57.14285714,5,2,15,,,,,,,,2,02,,,,,,,,,,,2,1.238,1,,,,,,-0.127027639,-0.247310045,1,0,0,1.2379,Basalt_rect,14,0,14,0,1,
664925f5dac2a21296428a6f,TCN,2024-06-24_11h46.06.168,LearnStrategy,2023.2.3,MacIntel,57.14285714,5,2,16,,,,,,,,7,04,,,,,,,,,,,6,1.914,0,,,,,,-0.130170356,-0.383350033,1,0,0,1.9135,Pegmatite_rect,15,0,15,0,1,
664925f5dac2a21296428a6f,TCN,2024-06-24_11h46.06.168,LearnStrategy,2023.2.3,MacIntel,57.14285714,6,1,1,-0.013987054,-0.00963334,1,0,0,1.5878,rock_grid_rect_2,6,05,-1,-1,1.588,-0.090348223,-0.394917891,1,0,0,2.5336,Pegmatite_rect,6,2.534,1,0,0,0,0,1,,,,,,,,,,,,,
664925f5dac2a21296428a6f,TCN,2024-06-24_11h46.06.168,LearnStrategy,2023.2.3,MacIntel,57.14285714,6,1,2,-0.011885834,0.00058492,1,0,0,1.2424,rock_grid_rect_2,5,12,-1,-1,1.242,-0.318888813,-0.384877947,1,0,0,1.2894,Obsidian_rect,5,1.289,1,1,0,1,0,1,,,,,,,,,,,,,
664925f5dac2a21296428a6f,TCN,2024-06-24_11h46.06.168,LearnStrategy,2023.2.3,MacIntel,57.14285714,6,1,3,-0.037134298,-0.008022563,1,0,0,1.0372,rock_grid_rect_2,6,13,-1,-1,1.037,-0.173832364,-0.387790595,1,0,0,1.6876,Pegmatite_rect,6,1.688,1,2,0,2,0,1,,,,,,,,,,,,,
664925f5dac2a21296428a6f,TCN,2024-06-24_11h46.06.168,LearnStrategy,2023.2.3,MacIntel,57.14285714,6,1,4,-0.067307281,-0.001784388,1,0,0,0.9916,rock_grid_rect_2,8,05,-1,-1,0.992,0.329339769,-0.380471039,1,0,0,1.3744,Pumice_rect,8,1.374,1,3,0,3,0,1,,,,,,,,,,,,,
664925f5dac2a21296428a6f,TCN,2024-06-24_11h46.06.168,LearnStrategy,2023.2.3,MacIntel,57.14285714,6,1,5,-0.018997786,0.015874057,1,0,0,1.303,rock_grid_rect_2,1,03,-1,-1,1.303,-0.354162343,-0.241729821,1,0,0,1.8551,Andesite_rect,1,1.855,1,4,0,4,0,1,,,,,,,,,,,,,
664925f5dac2a21296428a6f,TCN,2024-06-24_11h46.06.168,LearnStrategy,2023.2.3,MacIntel,57.14285714,6,1,6,0.04974077,-0.012875621,1,0,0,1.2972,rock_grid_rect_2,8,16,-1,-1,1.297,0.331959703,-0.391415405,1,0,0,1.2943,Pumice_rect,8,1.294,1,5,0,5,0,1,,,,,,,,,,,,,
664925f5dac2a21296428a6f,TCN,2024-06-24_11h46.06.168,LearnStrategy,2023.2.3,MacIntel,57.14285714,6,1,7,0.044933828,-0.009468672,1,0,0,1.1873,rock_grid_rect_2,4,10,-1,-1,1.187,-0.082368554,-0.247961765,1,0,0,6.8536,Basalt_rect,2,6.854,0,6,0,6,0,1,,,,,,,,,,,,,
664925f5dac2a21296428a6f,TCN,2024-06-24_11h46.06.168,LearnStrategy,2023.2.3,MacIntel,57.14285714,6,1,8,0.021778954,-0.009055413,1,0,0,1.1322,rock_grid_rect_2,2,14,-1,-1,1.132,0.343198903,-0.240231069,1,0,0,6.4941,Gabbro_rect,4,6.494,0,7,0,7,0,1,,,,,,,,,,,,,
664925f5dac2a21296428a6f,TCN,2024-06-24_11h46.06.168,LearnStrategy,2023.2.3,MacIntel,57.14285714,6,1,9,0.018388706,-0.004629601,1,0,0,1.2735,rock_grid_rect_2,5,16,-1,-1,1.273,-0.315502633,-0.384904819,1,0,0,1.2757,Obsidian_rect,5,1.276,1,8,0,8,0,1,,,,,,,,,,,,,
664925f5dac2a21296428a6f,TCN,2024-06-24_11h46.06.168,LearnStrategy,2023.2.3,MacIntel,57.14285714,6,1,10,-0.043595123,-0.000948122,1,0,0,1.5704,rock_grid_rect_2,4,01,-1,-1,1.57,0.350367398,-0.240381538,1,0,0,7.9433,Gabbro_rect,4,7.943,1,9,0,9,0,1,,,,,,,,,,,,,
664925f5dac2a21296428a6f,TCN,2024-06-24_11h46.06.168,LearnStrategy,2023.2.3,MacIntel,57.14285714,6,1,11,0.01112069,0.005983353,1,0,0,1.6109,rock_grid_rect_2,7,14,-1,-1,1.611,0.043890635,-0.407252502,1,0,0,4.1338,Peridotite_rect,7,4.134,1,10,0,10,0,1,,,,,,,,,,,,,
664925f5dac2a21296428a6f,TCN,2024-06-24_11h46.06.168,LearnStrategy,2023.2.3,MacIntel,57.14285714,6,1,12,0.0150216,0.003271357,1,0,0,1.1377,rock_grid_rect_2,3,09,-1,-1,1.138,0.051874288,-0.241859012,1,0,0,1.8949,Diorite_rect,3,1.895,1,11,0,11,0,1,,,,,,,,,,,,,
664925f5dac2a21296428a6f,TCN,2024-06-24_11h46.06.168,LearnStrategy,2023.2.3,MacIntel,57.14285714,6,1,13,-0.022079298,-0.008474731,1,0,0,1.0696,rock_grid_rect_2,3,16,-1,-1,1.07,0.060915799,-0.242115953,1,0,0,1.0455,Diorite_rect,3,1.046,1,12,0,12,0,1,,,,,,,,,,,,,
664925f5dac2a21296428a6f,TCN,2024-06-24_11h46.06.168,LearnStrategy,2023.2.3,MacIntel,57.14285714,6,1,14,-0.015798018,-0.009783385,1,0,0,1.1846,rock_grid_rect_2,2,04,-1,-1,1.185,-0.086196052,-0.230964237,1,0,0,1.9314,Basalt_rect,2,1.931,1,13,0,13,0,1,,,,,,,,,,,,,
664925f5dac2a21296428a6f,TCN,2024-06-24_11h46.06.168,LearnStrategy,2023.2.3,MacIntel,57.14285714,6,1,15,-0.02518709,0.003504011,1,0,0,1.0661,rock_grid_rect_2,1,07,-1,-1,1.066,-0.357195452,-0.24029363,1,0,0,15.1497,Andesite_rect,1,15.15,1,14,0,14,0,1,,,,,,,,,,,,,
664925f5dac2a21296428a6f,TCN,2024-06-24_11h46.06.168,LearnStrategy,2023.2.3,MacIntel,57.14285714,6,1,16,0.021689521,0.007514784,1,0,0,1.2047,rock_grid_rect_2,7,08,-1,-1,1.205,0.051202477,-0.415953657,1,0,0,1.9932,Peridotite_rect,7,1.993,1,15,0,15,0,1,,,,,,,,,,,,,
664925f5dac2a21296428a6f,TCN,2024-06-24_11h46.06.168,LearnStrategy,2023.2.3,MacIntel,57.14285714,6,2,1,,,,,,,,7,02,,,,,,,,,,,7,1.003,1,,,,,,0.053961436,-0.39539388,1,0,0,1.0026,Peridotite_rect,0,0,0,0,1,
664925f5dac2a21296428a6f,TCN,2024-06-24_11h46.06.168,LearnStrategy,2023.2.3,MacIntel,57.14285714,6,2,2,,,,,,,,1,09,,,,,,,,,,,1,2.292,1,,,,,,-0.370377477,-0.258986833,1,0,0,2.2923,Andesite_rect,1,0,1,0,1,
664925f5dac2a21296428a6f,TCN,2024-06-24_11h46.06.168,LearnStrategy,2023.2.3,MacIntel,57.14285714,6,2,3,,,,,,,,4,16,,,,,,,,,,,4,5.656,1,,,,,,0.31331838,-0.228044128,1,0,0,5.6563,Gabbro_rect,2,0,2,0,1,
664925f5dac2a21296428a6f,TCN,2024-06-24_11h46.06.168,LearnStrategy,2023.2.3,MacIntel,57.14285714,6,2,4,,,,,,,,7,10,,,,,,,,,,,7,1.277,1,,,,,,0.13850903,-0.420252058,1,0,0,1.2775,Peridotite_rect,3,0,3,0,1,
664925f5dac2a21296428a6f,TCN,2024-06-24_11h46.06.168,LearnStrategy,2023.2.3,MacIntel,57.14285714,6,2,5,,,,,,,,2,16,,,,,,,,,,,2,4.552,1,,,,,,-0.092277018,-0.262727102,1,0,0,4.5524,Basalt_rect,4,0,4,0,1,
664925f5dac2a21296428a6f,TCN,2024-06-24_11h46.06.168,LearnStrategy,2023.2.3,MacIntel,57.14285714,6,2,6,,,,,,,,8,04,,,,,,,,,,,8,1.549,1,,,,,,0.361004469,-0.400421058,1,0,0,1.549,Pumice_rect,5,0,5,0,1,
664925f5dac2a21296428a6f,TCN,2024-06-24_11h46.06.168,LearnStrategy,2023.2.3,MacIntel,57.14285714,6,2,7,,,,,,,,6,03,,,,,,,,,,,6,7.352,1,,,,,,-0.045321994,-0.39752655,1,0,0,7.3522,Pegmatite_rect,6,0,6,0,1,
664925f5dac2a21296428a6f,TCN,2024-06-24_11h46.06.168,LearnStrategy,2023.2.3,MacIntel,57.14285714,6,2,8,,,,,,,,4,05,,,,,,,,,,,4,2.371,1,,,,,,0.347588942,-0.250516595,1,0,0,2.3706,Gabbro_rect,7,0,7,0,1,
664925f5dac2a21296428a6f,TCN,2024-06-24_11h46.06.168,LearnStrategy,2023.2.3,MacIntel,57.14285714,6,2,9,,,,,,,,8,13,,,,,,,,,,,8,1.639,1,,,,,,0.358787452,-0.416822561,1,0,0,1.6386,Pumice_rect,8,0,8,0,1,
664925f5dac2a21296428a6f,TCN,2024-06-24_11h46.06.168,LearnStrategy,2023.2.3,MacIntel,57.14285714,6,2,10,,,,,,,,1,04,,,,,,,,,,,1,1.238,1,,,,,,-0.333544201,-0.235384199,1,0,0,1.2378,Andesite_rect,9,0,9,0,1,
664925f5dac2a21296428a6f,TCN,2024-06-24_11h46.06.168,LearnStrategy,2023.2.3,MacIntel,57.14285714,6,2,11,,,,,,,,3,08,,,,,,,,,,,3,1.617,1,,,,,,0.10182529,-0.241663106,1,0,0,1.6168,Diorite_rect,10,0,10,0,1,
664925f5dac2a21296428a6f,TCN,2024-06-24_11h46.06.168,LearnStrategy,2023.2.3,MacIntel,57.14285714,6,2,12,,,,,,,,5,09,,,,,,,,,,,5,1.355,1,,,,,,-0.324885262,-0.385619354,1,0,0,1.3547,Obsidian_rect,11,0,11,0,1,
664925f5dac2a21296428a6f,TCN,2024-06-24_11h46.06.168,LearnStrategy,2023.2.3,MacIntel,57.14285714,6,2,13,,,,,,,,5,11,,,,,,,,,,,5,0.672,1,,,,,,-0.313335673,-0.381769477,1,0,0,0.6718,Obsidian_rect,12,0,12,0,1,
664925f5dac2a21296428a6f,TCN,2024-06-24_11h46.06.168,LearnStrategy,2023.2.3,MacIntel,57.14285714,6,2,14,,,,,,,,6,06,,,,,,,,,,,6,1.272,1,,,,,,-0.168922679,-0.392689345,1,0,0,1.2718,Pegmatite_rect,13,0,13,0,1,
664925f5dac2a21296428a6f,TCN,2024-06-24_11h46.06.168,LearnStrategy,2023.2.3,MacIntel,57.14285714,6,2,15,,,,,,,,3,07,,,,,,,,,,,6,3.259,0,,,,,,-0.166099464,-0.393972694,1,0,0,3.2592,Pegmatite_rect,14,0,14,0,1,
664925f5dac2a21296428a6f,TCN,2024-06-24_11h46.06.168,LearnStrategy,2023.2.3,MacIntel,57.14285714,6,2,16,,,,,,,,2,12,,,,,,,,,,,2,2.806,1,,,,,,-0.088679165,-0.256019084,1,0,0,2.8063,Basalt_rect,15,0,15,0,1,
664925f5dac2a21296428a6f,TCN,2024-06-24_11h46.06.168,LearnStrategy,2023.2.3,MacIntel,57.14285714,7,1,1,-0.008538055,-0.006370926,1,0,0,1.6691,rock_grid_rect_2,5,04,-1,-1,1.669,-0.330069054,-0.390028975,1,0,0,1.2497,Obsidian_rect,5,1.25,1,0,0,0,0,1,,,,,,,,,,,,,
664925f5dac2a21296428a6f,TCN,2024-06-24_11h46.06.168,LearnStrategy,2023.2.3,MacIntel,57.14285714,7,1,2,-0.019742245,-0.006841278,1,0,0,1.5035,rock_grid_rect_2,6,07,-1,-1,1.503,-0.103562164,-0.39057117,1,0,0,1.3495,Pegmatite_rect,6,1.35,1,1,0,1,0,1,,,,,,,,,,,,,
664925f5dac2a21296428a6f,TCN,2024-06-24_11h46.06.168,LearnStrategy,2023.2.3,MacIntel,57.14285714,7,1,3,-0.016825019,-0.006771257,1,0,0,1.5186,rock_grid_rect_2,8,03,-1,-1,1.519,0.362695821,-0.397509427,1,0,0,1.3038,Pumice_rect,8,1.304,1,2,0,2,0,1,,,,,,,,,,,,,
664925f5dac2a21296428a6f,TCN,2024-06-24_11h46.06.168,LearnStrategy,2023.2.3,MacIntel,57.14285714,7,1,4,0.000985463,0.000798501,1,0,0,1.1865,rock_grid_rect_2,6,13,-1,-1,1.187,-0.098996819,-0.388148075,1,0,0,1.2388,Pegmatite_rect,6,1.239,1,3,0,3,0,1,,,,,,,,,,,,,
664925f5dac2a21296428a6f,TCN,2024-06-24_11h46.06.168,LearnStrategy,2023.2.3,MacIntel,57.14285714,7,1,5,0.006827545,-0.022210948,1,0,0,0.8511,rock_grid_rect_2,7,12,-1,-1,0.851,0.06737086,-0.395719062,1,0,0,1.6655,Peridotite_rect,7,1.666,1,4,0,4,0,1,,,,,,,,,,,,,
664925f5dac2a21296428a6f,TCN,2024-06-24_11h46.06.168,LearnStrategy,2023.2.3,MacIntel,57.14285714,7,1,6,0.007133908,-0.003711234,1,0,0,1.2509,rock_grid_rect_2,1,14,-1,-1,1.251,-0.332128906,-0.24435162,1,0,0,1.1349,Andesite_rect,1,1.135,1,5,0,5,0,1,,,,,,,,,,,,,
664925f5dac2a21296428a6f,TCN,2024-06-24_11h46.06.168,LearnStrategy,2023.2.3,MacIntel,57.14285714,7,1,7,0.00310296,-0.012945387,1,0,0,1.475,rock_grid_rect_2,2,14,-1,-1,1.475,0.442040761,-0.264235348,1,0,0,2.0792,Gabbro_rect,4,2.079,0,6,0,6,0,1,,,,,,,,,,,,,
664925f5dac2a21296428a6f,TCN,2024-06-24_11h46.06.168,LearnStrategy,2023.2.3,MacIntel,57.14285714,7,1,8,0.065367381,-0.003392156,1,0,0,1.7296,rock_grid_rect_2,7,16,-1,-1,1.73,0.07848604,-0.408000437,1,0,0,2.7075,Peridotite_rect,7,2.707,1,7,0,7,0,1,,,,,,,,,,,,,
664925f5dac2a21296428a6f,TCN,2024-06-24_11h46.06.168,LearnStrategy,2023.2.3,MacIntel,57.14285714,7,1,9,0.04498681,-0.005892224,1,0,0,1.4536,rock_grid_rect_2,3,14,-1,-1,1.454,0.063334995,-0.230525631,1,0,0,1.6912,Diorite_rect,3,1.691,1,8,0,8,0,1,,,,,,,,,,,,,
664925f5dac2a21296428a6f,TCN,2024-06-24_11h46.06.168,LearnStrategy,2023.2.3,MacIntel,57.14285714,7,1,10,0.002379608,-0.002720345,1,0,0,1.7174,rock_grid_rect_2,5,16,-1,-1,1.717,-0.372112062,-0.390933482,1,0,0,1.4127,Obsidian_rect,5,1.413,1,9,0,9,0,1,,,,,,,,,,,,,
664925f5dac2a21296428a6f,TCN,2024-06-24_11h46.06.168,LearnStrategy,2023.2.3,MacIntel,57.14285714,7,1,11,0.015668403,0.008786901,1,0,0,1.1507,rock_grid_rect_2,3,16,-1,-1,1.151,0.084164174,-0.247316996,1,0,0,1.9746,Diorite_rect,3,1.975,1,10,0,10,0,1,,,,,,,,,,,,,
664925f5dac2a21296428a6f,TCN,2024-06-24_11h46.06.168,LearnStrategy,2023.2.3,MacIntel,57.14285714,7,1,12,-0.046026781,-0.013121711,1,0,0,2.1196,rock_grid_rect_2,4,03,-1,-1,2.12,0.34784317,-0.244993337,1,0,0,13.231,Gabbro_rect,4,13.231,1,11,0,11,0,1,,,,,,,,,,,,,
664925f5dac2a21296428a6f,TCN,2024-06-24_11h46.06.168,LearnStrategy,2023.2.3,MacIntel,57.14285714,7,1,13,0.067510986,-0.012997097,1,0,0,1.7552,rock_grid_rect_2,1,03,-1,-1,1.755,-0.348569277,-0.242111291,1,0,0,3.7873,Andesite_rect,1,3.787,1,12,0,12,0,1,,,,,,,,,,,,,
664925f5dac2a21296428a6f,TCN,2024-06-24_11h46.06.168,LearnStrategy,2023.2.3,MacIntel,57.14285714,7,1,14,0.016103109,-0.009545687,1,0,0,1.1727,rock_grid_rect_2,4,01,-1,-1,1.173,0.399042935,-0.262558322,1,0,0,3.1726,Gabbro_rect,4,3.173,1,13,0,13,0,1,,,,,,,,,,,,,
664925f5dac2a21296428a6f,TCN,2024-06-24_11h46.06.168,LearnStrategy,2023.2.3,MacIntel,57.14285714,7,1,15,0.026112959,-0.005592728,1,0,0,1.2876,rock_grid_rect_2,2,05,-1,-1,1.288,-0.103525628,-0.241041056,1,0,0,1.2875,Basalt_rect,2,1.287,1,14,0,14,0,1,,,,,,,,,,,,,
664925f5dac2a21296428a6f,TCN,2024-06-24_11h46.06.168,LearnStrategy,2023.2.3,MacIntel,57.14285714,7,1,16,0.001139323,0.009493976,1,0,0,1.8151,rock_grid_rect_2,8,14,-1,-1,1.815,0.34615487,-0.393310462,1,0,0,2.0293,Pumice_rect,8,2.029,1,15,0,15,0,1,,,,,,,,,,,,,
664925f5dac2a21296428a6f,TCN,2024-06-24_11h46.06.168,LearnStrategy,2023.2.3,MacIntel,57.14285714,7,2,1,,,,,,,,6,15,,,,,,,,,,,6,1.641,1,,,,,,-0.131193373,-0.387150743,1,0,0,1.6407,Pegmatite_rect,0,0,0,0,1,
664925f5dac2a21296428a6f,TCN,2024-06-24_11h46.06.168,LearnStrategy,2023.2.3,MacIntel,57.14285714,7,2,2,,,,,,,,4,16,,,,,,,,,,,4,11.313,1,,,,,,0.374820624,-0.229536692,1,0,0,11.3134,Gabbro_rect,1,0,1,0,1,
664925f5dac2a21296428a6f,TCN,2024-06-24_11h46.06.168,LearnStrategy,2023.2.3,MacIntel,57.14285714,7,2,3,,,,,,,,7,04,,,,,,,,,,,6,2.112,0,,,,,,-0.119567702,-0.417487759,1,0,0,2.112,Pegmatite_rect,2,0,2,0,1,
664925f5dac2a21296428a6f,TCN,2024-06-24_11h46.06.168,LearnStrategy,2023.2.3,MacIntel,57.14285714,7,2,4,,,,,,,,2,16,,,,,,,,,,,2,3.361,1,,,,,,-0.122686513,-0.254771254,1,0,0,3.3612,Basalt_rect,3,0,3,0,1,
664925f5dac2a21296428a6f,TCN,2024-06-24_11h46.06.168,LearnStrategy,2023.2.3,MacIntel,57.14285714,7,2,5,,,,,,,,2,01,,,,,,,,,,,2,1.288,1,,,,,,-0.122686513,-0.254771254,1,0,0,1.2876,Basalt_rect,4,0,4,0,1,
664925f5dac2a21296428a6f,TCN,2024-06-24_11h46.06.168,LearnStrategy,2023.2.3,MacIntel,57.14285714,7,2,6,,,,,,,,3,10,,,,,,,,,,,3,3.551,1,,,,,,0.055572001,-0.264725325,1,0,0,3.5511,Diorite_rect,5,0,5,0,1,
664925f5dac2a21296428a6f,TCN,2024-06-24_11h46.06.168,LearnStrategy,2023.2.3,MacIntel,57.14285714,7,2,7,,,,,,,,3,11,,,,,,,,,,,3,1.036,1,,,,,,0.055572001,-0.264725325,1,0,0,1.0365,Diorite_rect,6,0,6,0,1,
664925f5dac2a21296428a6f,TCN,2024-06-24_11h46.06.168,LearnStrategy,2023.2.3,MacIntel,57.14285714,7,2,8,,,,,,,,5,05,,,,,,,,,,,5,1.363,1,,,,,,-0.298113039,-0.398693593,1,0,0,1.3632,Obsidian_rect,7,0,7,0,1,
664925f5dac2a21296428a6f,TCN,2024-06-24_11h46.06.168,LearnStrategy,2023.2.3,MacIntel,57.14285714,7,2,9,,,,,,,,8,04,,,,,,,,,,,8,1.23,1,,,,,,0.321786245,-0.405733744,1,0,0,1.2296,Pumice_rect,8,0,8,0,1,
664925f5dac2a21296428a6f,TCN,2024-06-24_11h46.06.168,LearnStrategy,2023.2.3,MacIntel,57.14285714,7,2,10,,,,,,,,4,05,,,,,,,,,,,4,25.614,1,,,,,,0.32484826,-0.258644613,1,0,0,25.6138,Gabbro_rect,9,0,9,0,1,
664925f5dac2a21296428a6f,TCN,2024-06-24_11h46.06.168,LearnStrategy,2023.2.3,MacIntel,57.14285714,7,2,11,,,,,,,,8,08,,,,,,,,,,,8,1.192,1,,,,,,0.338318634,-0.389991675,1,0,0,1.1919,Pumice_rect,10,0,10,0,1,
664925f5dac2a21296428a6f,TCN,2024-06-24_11h46.06.168,LearnStrategy,2023.2.3,MacIntel,57.14285714,7,2,12,,,,,,,,1,16,,,,,,,,,,,1,9.758,1,,,,,,-0.423320304,-0.252332221,1,0,0,9.7584,Andesite_rect,11,0,11,0,1,
664925f5dac2a21296428a6f,TCN,2024-06-24_11h46.06.168,LearnStrategy,2023.2.3,MacIntel,57.14285714,7,2,13,,,,,,,,6,03,,,,,,,,,,,6,1.234,1,,,,,,-0.149055057,-0.405704922,1,0,0,1.2335,Pegmatite_rect,12,0,12,0,1,
664925f5dac2a21296428a6f,TCN,2024-06-24_11h46.06.168,LearnStrategy,2023.2.3,MacIntel,57.14285714,7,2,14,,,,,,,,5,07,,,,,,,,,,,5,1.565,1,,,,,,-0.459028117,-0.38852556,1,0,0,1.5652,Obsidian_rect,13,0,13,0,1,
664925f5dac2a21296428a6f,TCN,2024-06-24_11h46.06.168,LearnStrategy,2023.2.3,MacIntel,57.14285714,7,2,15,,,,,,,,7,10,,,,,,,,,,,7,1.336,1,,,,,,0.068126424,-0.401062859,1,0,0,1.3358,Peridotite_rect,14,0,14,0,1,
664925f5dac2a21296428a6f,TCN,2024-06-24_11h46.06.168,LearnStrategy,2023.2.3,MacIntel,57.14285714,7,2,16,,,,,,,,1,09,,,,,,,,,,,1,2.078,1,,,,,,-0.391138331,-0.264336056,1,0,0,2.0777,Andesite_rect,15,0,15,0,1,
664925f5dac2a21296428a6f,TCN,2024-06-24_11h46.06.168,LearnStrategy,2023.2.3,MacIntel,57.14285714,8,1,1,0.025410546,-0.002588993,1,0,0,1.8575,rock_grid_rect_2,7,08,-1,-1,1.858,0.119749705,-0.399909888,1,0,0,4.2735,Peridotite_rect,7,4.274,1,0,0,0,0,1,,,,,,,,,,,,,
664925f5dac2a21296428a6f,TCN,2024-06-24_11h46.06.168,LearnStrategy,2023.2.3,MacIntel,57.14285714,8,1,2,0.015281338,0.001501083,1,0,0,1.2367,rock_grid_rect_2,6,05,-1,-1,1.237,-0.05145323,-0.386608632,1,0,0,2.103,Pegmatite_rect,6,2.103,1,1,0,1,0,1,,,,,,,,,,,,,
664925f5dac2a21296428a6f,TCN,2024-06-24_11h46.06.168,LearnStrategy,2023.2.3,MacIntel,57.14285714,8,1,3,0.013143328,0.001132329,1,0,0,1.5072,rock_grid_rect_2,4,15,-1,-1,1.507,0.455190108,-0.240451219,1,0,0,12.8655,Gabbro_rect,4,12.865,1,2,0,2,0,1,,,,,,,,,,,,,
664925f5dac2a21296428a6f,TCN,2024-06-24_11h46.06.168,LearnStrategy,2023.2.3,MacIntel,57.14285714,8,1,4,-0.026982541,0.01030515,1,0,0,1.6066,rock_grid_rect_2,1,06,-1,-1,1.607,-0.349416987,-0.249750773,1,0,0,20.4558,Andesite_rect,1,20.456,1,3,0,3,0,1,,,,,,,,,,,,,
664925f5dac2a21296428a6f,TCN,2024-06-24_11h46.06.168,LearnStrategy,2023.2.3,MacIntel,57.14285714,8,1,5,0.025662231,-0.013066271,1,0,0,1.2544,rock_grid_rect_2,3,09,-1,-1,1.254,0.093351067,-0.254726325,1,0,0,3.4515,Diorite_rect,3,3.451,1,4,0,4,0,1,,,,,,,,,,,,,
664925f5dac2a21296428a6f,TCN,2024-06-24_11h46.06.168,LearnStrategy,2023.2.3,MacIntel,57.14285714,8,1,6,0.019181909,-0.01552124,1,0,0,1.3683,rock_grid_rect_2,5,02,-1,-1,1.368,-0.307426029,-0.391911316,1,0,0,1.3523,Obsidian_rect,5,1.352,1,5,0,5,0,1,,,,,,,,,,,,,
664925f5dac2a21296428a6f,TCN,2024-06-24_11h46.06.168,LearnStrategy,2023.2.3,MacIntel,57.14285714,8,1,7,-0.031884257,0.002673425,1,0,0,1.4449,rock_grid_rect_2,8,16,-1,-1,1.445,0.399022505,-0.406363932,1,0,0,2.2017,Pumice_rect,8,2.202,1,6,0,6,0,1,,,,,,,,,,,,,
664925f5dac2a21296428a6f,TCN,2024-06-24_11h46.06.168,LearnStrategy,2023.2.3,MacIntel,57.14285714,8,1,8,-0.00473192,-0.002371216,1,0,0,1.1904,rock_grid_rect_2,2,09,-1,-1,1.19,-0.073529731,-0.240398577,1,0,0,3.3328,Basalt_rect,2,3.333,1,7,0,7,0,1,,,,,,,,,,,,,
664925f5dac2a21296428a6f,TCN,2024-06-24_11h46.06.168,LearnStrategy,2023.2.3,MacIntel,57.14285714,8,1,9,-0.005497572,0.008067449,1,0,0,1.1082,rock_grid_rect_2,1,07,-1,-1,1.108,-0.327150048,-0.244700623,1,0,0,1.2519,Andesite_rect,1,1.252,1,8,0,8,0,1,,,,,,,,,,,,,
664925f5dac2a21296428a6f,TCN,2024-06-24_11h46.06.168,LearnStrategy,2023.2.3,MacIntel,57.14285714,8,1,10,0.028440348,-3.72993E-05,1,0,0,1.1211,rock_grid_rect_2,2,04,-1,-1,1.121,-0.085388438,-0.239576467,1,0,0,1.5099,Basalt_rect,2,1.51,1,9,0,9,0,1,,,,,,,,,,,,,
664925f5dac2a21296428a6f,TCN,2024-06-24_11h46.06.168,LearnStrategy,2023.2.3,MacIntel,57.14285714,8,1,11,-0.039705488,-0.005627102,1,0,0,1.4163,rock_grid_rect_2,8,09,-1,-1,1.416,0.334982045,-0.403145345,1,0,0,1.1191,Pumice_rect,8,1.119,1,10,0,10,0,1,,,,,,,,,,,,,
664925f5dac2a21296428a6f,TCN,2024-06-24_11h46.06.168,LearnStrategy,2023.2.3,MacIntel,57.14285714,8,1,12,-0.021753777,-0.002988985,1,0,0,1.3871,rock_grid_rect_2,4,10,-1,-1,1.387,0.43408449,-0.250221252,1,0,0,8.3197,Gabbro_rect,4,8.32,1,11,0,11,0,1,,,,,,,,,,,,,
664925f5dac2a21296428a6f,TCN,2024-06-24_11h46.06.168,LearnStrategy,2023.2.3,MacIntel,57.14285714,8,1,13,-0.064024353,-0.019368744,1,0,0,1.2719,rock_grid_rect_2,3,06,-1,-1,1.272,0.116387685,-0.260821448,1,0,0,1.9471,Diorite_rect,3,1.947,1,12,0,12,0,1,,,,,,,,,,,,,
664925f5dac2a21296428a6f,TCN,2024-06-24_11h46.06.168,LearnStrategy,2023.2.3,MacIntel,57.14285714,8,1,14,-0.036893463,-7.26912E-05,1,0,0,1.8056,rock_grid_rect_2,7,06,-1,-1,1.806,0.096198273,-0.411682468,1,0,0,2.1666,Peridotite_rect,7,2.167,1,13,0,13,0,1,,,,,,,,,,,,,
664925f5dac2a21296428a6f,TCN,2024-06-24_11h46.06.168,LearnStrategy,2023.2.3,MacIntel,57.14285714,8,1,15,-0.115291595,0.006334729,1,0,0,13.4775,rock_grid_rect_2,5,08,-1,-1,13.477,-0.362733587,-0.397928874,1,0,0,3.1436,Obsidian_rect,5,3.144,1,14,0,14,0,1,,,,,,,,,,,,,
664925f5dac2a21296428a6f,TCN,2024-06-24_11h46.06.168,LearnStrategy,2023.2.3,MacIntel,57.14285714,8,1,16,-0.088457319,0.000686985,1,0,0,1.4287,rock_grid_rect_2,6,12,-1,-1,1.429,-0.14091746,-0.378989326,1,0,0,2.6076,Pegmatite_rect,6,2.608,1,15,0,15,0,1,,,,,,,,,,,,,
664925f5dac2a21296428a6f,TCN,2024-06-24_11h46.06.168,LearnStrategy,2023.2.3,MacIntel,57.14285714,8,2,1,,,,,,,,5,14,,,,,,,,,,,5,1.502,1,,,,,,-0.334377713,-0.38840917,1,0,0,1.5016,Obsidian_rect,0,0,0,0,1,
664925f5dac2a21296428a6f,TCN,2024-06-24_11h46.06.168,LearnStrategy,2023.2.3,MacIntel,57.14285714,8,2,2,,,,,,,,8,02,,,,,,,,,,,8,1.564,1,,,,,,0.310235426,-0.401424917,1,0,0,1.5642,Pumice_rect,1,0,1,0,1,
664925f5dac2a21296428a6f,TCN,2024-06-24_11h46.06.168,LearnStrategy,2023.2.3,MacIntel,57.14285714,8,2,3,,,,,,,,2,10,,,,,,,,,,,2,2.65,1,,,,,,-0.0658677,-0.252660539,1,0,0,2.6499,Basalt_rect,2,0,2,0,1,
664925f5dac2a21296428a6f,TCN,2024-06-24_11h46.06.168,LearnStrategy,2023.2.3,MacIntel,57.14285714,8,2,4,,,,,,,,8,13,,,,,,,,,,,8,4.516,1,,,,,,0.31133567,-0.406507365,1,0,0,4.5164,Pumice_rect,3,0,3,0,1,
664925f5dac2a21296428a6f,TCN,2024-06-24_11h46.06.168,LearnStrategy,2023.2.3,MacIntel,57.14285714,8,2,5,,,,,,,,4,14,,,,,,,,,,,4,3.692,1,,,,,,0.310053084,-0.259886085,1,0,0,3.692,Gabbro_rect,4,0,4,0,1,
664925f5dac2a21296428a6f,TCN,2024-06-24_11h46.06.168,LearnStrategy,2023.2.3,MacIntel,57.14285714,8,2,6,,,,,,,,5,11,,,,,,,,,,,5,1.596,1,,,,,,-0.331106398,-0.382256656,1,0,0,1.5958,Obsidian_rect,5,0,5,0,1,
664925f5dac2a21296428a6f,TCN,2024-06-24_11h46.06.168,LearnStrategy,2023.2.3,MacIntel,57.14285714,8,2,7,,,,,,,,4,13,,,,,,,,,,,2,32.54,0,,,,,,-0.058889431,-0.262714471,1,0,0,32.5397,Basalt_rect,6,0,6,0,1,
664925f5dac2a21296428a6f,TCN,2024-06-24_11h46.06.168,LearnStrategy,2023.2.3,MacIntel,57.14285714,8,2,8,,,,,,,,1,10,,,,,,,,,,,1,1.726,1,,,,,,-0.326735518,-0.243788486,1,0,0,1.7261,Andesite_rect,7,0,7,0,1,
664925f5dac2a21296428a6f,TCN,2024-06-24_11h46.06.168,LearnStrategy,2023.2.3,MacIntel,57.14285714,8,2,9,,,,,,,,7,07,,,,,,,,,,,7,1.553,1,,,,,,0.065571679,-0.39967592,1,0,0,1.5531,Peridotite_rect,8,0,8,0,1,
664925f5dac2a21296428a6f,TCN,2024-06-24_11h46.06.168,LearnStrategy,2023.2.3,MacIntel,57.14285714,8,2,10,,,,,,,,2,12,,,,,,,,,,,2,4.052,1,,,,,,-0.090838454,-0.251622009,1,0,0,4.0515,Basalt_rect,9,0,9,0,1,
664925f5dac2a21296428a6f,TCN,2024-06-24_11h46.06.168,LearnStrategy,2023.2.3,MacIntel,57.14285714,8,2,11,,,,,,,,1,04,,,,,,,,,,,1,1.497,1,,,,,,-0.331947115,-0.251449076,1,0,0,1.4975,Andesite_rect,10,0,10,0,1,
664925f5dac2a21296428a6f,TCN,2024-06-24_11h46.06.168,LearnStrategy,2023.2.3,MacIntel,57.14285714,8,2,12,,,,,,,,3,15,,,,,,,,,,,3,1.94,1,,,,,,0.069442071,-0.270032077,1,0,0,1.9402,Diorite_rect,11,0,11,0,1,
664925f5dac2a21296428a6f,TCN,2024-06-24_11h46.06.168,LearnStrategy,2023.2.3,MacIntel,57.14285714,8,2,13,,,,,,,,6,08,,,,,,,,,,,6,1.384,1,,,,,,-0.056476,-0.386461724,1,0,0,1.3843,Pegmatite_rect,12,0,12,0,1,
664925f5dac2a21296428a6f,TCN,2024-06-24_11h46.06.168,LearnStrategy,2023.2.3,MacIntel,57.14285714,8,2,14,,,,,,,,7,02,,,,,,,,,,,7,1.078,1,,,,,,0.063928562,-0.391307746,1,0,0,1.0781,Peridotite_rect,13,0,13,0,1,
664925f5dac2a21296428a6f,TCN,2024-06-24_11h46.06.168,LearnStrategy,2023.2.3,MacIntel,57.14285714,8,2,15,,,,,,,,6,11,,,,,,,,,,,6,1.142,1,,,,,,-0.038666534,-0.387703959,1,0,0,1.1419,Pegmatite_rect,14,0,14,0,1,
664925f5dac2a21296428a6f,TCN,2024-06-24_11h46.06.168,LearnStrategy,2023.2.3,MacIntel,57.14285714,8,2,16,,,,,,,,3,07,,,,,,,,,,,6,1.199,0,,,,,,-0.038666534,-0.387703959,1,0,0,1.1987,Pegmatite_rect,15,0,15,0,1,
664925f5dac2a21296428a6f,TCN,2024-06-24_11h46.06.168,LearnStrategy,2023.2.3,MacIntel,57.14285714,9,1,1,0.02673289,-0.008083767,1,0,0,1.8697,rock_grid_rect_2,4,08,-1,-1,1.87,0.334194522,-0.234636349,1,0,0,6.0428,Gabbro_rect,4,6.043,1,0,0,0,0,1,,,,,,,,,,,,,
664925f5dac2a21296428a6f,TCN,2024-06-24_11h46.06.168,LearnStrategy,2023.2.3,MacIntel,57.14285714,9,1,2,0.005974579,-0.00985277,1,0,0,1.4015,rock_grid_rect_2,1,11,-1,-1,1.401,-0.364947637,-0.243956502,1,0,0,1.6757,Andesite_rect,1,1.676,1,1,0,1,0,1,,,,,,,,,,,,,
664925f5dac2a21296428a6f,TCN,2024-06-24_11h46.06.168,LearnStrategy,2023.2.3,MacIntel,57.14285714,9,1,3,-0.013821157,-0.004972204,1,0,0,1.3357,rock_grid_rect_2,7,14,-1,-1,1.336,0.109176975,-0.393241035,1,0,0,2.1334,Peridotite_rect,7,2.133,1,2,0,2,0,1,,,,,,,,,,,,,
664925f5dac2a21296428a6f,TCN,2024-06-24_11h46.06.168,LearnStrategy,2023.2.3,MacIntel,57.14285714,9,1,4,0.051393806,-0.002931171,1,0,0,1.3044,rock_grid_rect_2,7,15,-1,-1,1.304,0.137718964,-0.383218723,1,0,0,1.1607,Peridotite_rect,7,1.161,1,3,0,3,0,1,,,,,,,,,,,,,
664925f5dac2a21296428a6f,TCN,2024-06-24_11h46.06.168,LearnStrategy,2023.2.3,MacIntel,57.14285714,9,1,5,-0.0478636,-0.010502328,1,0,0,1.2496,rock_grid_rect_2,2,08,-1,-1,1.25,-0.112261454,-0.231595188,1,0,0,1.2459,Basalt_rect,2,1.246,1,4,0,4,0,1,,,,,,,,,,,,,
664925f5dac2a21296428a6f,TCN,2024-06-24_11h46.06.168,LearnStrategy,2023.2.3,MacIntel,57.14285714,9,1,6,-0.019047123,-0.015195168,1,0,0,1.2689,rock_grid_rect_2,6,10,-1,-1,1.269,-0.085839674,-0.383844418,1,0,0,2.0985,Pegmatite_rect,6,2.099,1,5,0,5,0,1,,,,,,,,,,,,,
664925f5dac2a21296428a6f,TCN,2024-06-24_11h46.06.168,LearnStrategy,2023.2.3,MacIntel,57.14285714,9,1,7,0.007213253,-0.008116828,1,0,0,1.3205,rock_grid_rect_2,8,15,-1,-1,1.32,0.331290012,-0.390063477,1,0,0,1.3403,Pumice_rect,8,1.34,1,6,0,6,0,1,,,,,,,,,,,,,
664925f5dac2a21296428a6f,TCN,2024-06-24_11h46.06.168,LearnStrategy,2023.2.3,MacIntel,57.14285714,9,1,8,0.008491431,-0.014562183,1,0,0,1.5199,rock_grid_rect_2,5,06,-1,-1,1.52,-0.337000148,-0.379149458,1,0,0,1.477,Obsidian_rect,5,1.477,1,7,0,7,0,1,,,,,,,,,,,,,
664925f5dac2a21296428a6f,TCN,2024-06-24_11h46.06.168,LearnStrategy,2023.2.3,MacIntel,57.14285714,9,1,9,-0.023183356,-0.004754427,1,0,0,1.2709,rock_grid_rect_2,5,12,-1,-1,1.271,-0.351009793,-0.38951967,1,0,0,1.5178,Obsidian_rect,5,1.518,1,8,0,8,0,1,,,,,,,,,,,,,
664925f5dac2a21296428a6f,TCN,2024-06-24_11h46.06.168,LearnStrategy,2023.2.3,MacIntel,57.14285714,9,1,10,-0.003158739,-0.003008355,1,0,0,1.1517,rock_grid_rect_2,4,09,-1,-1,1.152,0.311673991,-0.2712382,1,0,0,8.9593,Gabbro_rect,4,8.959,1,9,0,9,0,1,,,,,,,,,,,,,
664925f5dac2a21296428a6f,TCN,2024-06-24_11h46.06.168,LearnStrategy,2023.2.3,MacIntel,57.14285714,9,1,11,0.047475264,-0.005575646,1,0,0,1.498,rock_grid_rect_2,6,16,-1,-1,1.498,-0.070309872,-0.39662128,1,0,0,1.2421,Pegmatite_rect,6,1.242,1,10,0,10,0,1,,,,,,,,,,,,,
664925f5dac2a21296428a6f,TCN,2024-06-24_11h46.06.168,LearnStrategy,2023.2.3,MacIntel,57.14285714,9,1,12,-0.015820312,0.01104304,1,0,0,1.3205,rock_grid_rect_2,1,01,-1,-1,1.32,0.328888279,-0.238486481,1,0,0,3.7342,Gabbro_rect,4,3.734,0,11,0,11,0,1,,,,,,,,,,,,,
664925f5dac2a21296428a6f,TCN,2024-06-24_11h46.06.168,LearnStrategy,2023.2.3,MacIntel,57.14285714,9,1,13,0.030904304,0.005248642,1,0,0,1.8061,rock_grid_rect_2,8,05,-1,-1,1.806,0.342142656,-0.416139476,1,0,0,1.3416,Pumice_rect,8,1.342,1,12,0,12,0,1,,,,,,,,,,,,,
664925f5dac2a21296428a6f,TCN,2024-06-24_11h46.06.168,LearnStrategy,2023.2.3,MacIntel,57.14285714,9,1,14,0.091862488,-0.015020116,1,0,0,1.7312,rock_grid_rect_2,3,02,-1,-1,1.731,0.090135362,-0.232272508,1,0,0,2.0713,Diorite_rect,3,2.071,1,13,0,13,0,1,,,,,,,,,,,,,
664925f5dac2a21296428a6f,TCN,2024-06-24_11h46.06.168,LearnStrategy,2023.2.3,MacIntel,57.14285714,9,1,15,0.01400494,-0.006015354,1,0,0,2.2678,rock_grid_rect_2,2,11,-1,-1,2.268,-0.093101841,-0.239844343,1,0,0,3.0505,Basalt_rect,2,3.051,1,14,0,14,0,1,,,,,,,,,,,,,
664925f5dac2a21296428a6f,TCN,2024-06-24_11h46.06.168,LearnStrategy,2023.2.3,MacIntel,57.14285714,9,1,16,0.043059455,0.003877385,1,0,0,1.1719,rock_grid_rect_2,3,12,-1,-1,1.172,0.119976976,-0.235555946,1,0,0,2.3969,Diorite_rect,3,2.397,1,15,0,15,0,1,,,,,,,,,,,,,
664925f5dac2a21296428a6f,TCN,2024-06-24_11h46.06.168,LearnStrategy,2023.2.3,MacIntel,57.14285714,9,2,1,,,,,,,,7,05,,,,,,,,,,,7,2.271,1,,,,,,0.084897444,-0.409206984,1,0,0,2.2714,Peridotite_rect,0,0,0,0,1,
664925f5dac2a21296428a6f,TCN,2024-06-24_11h46.06.168,LearnStrategy,2023.2.3,MacIntel,57.14285714,9,2,2,,,,,,,,7,13,,,,,,,,,,,7,1.093,1,,,,,,0.077533298,-0.403081428,1,0,0,1.0935,Peridotite_rect,1,0,1,0,1,
664925f5dac2a21296428a6f,TCN,2024-06-24_11h46.06.168,LearnStrategy,2023.2.3,MacIntel,57.14285714,9,2,3,,,,,,,,2,02,,,,,,,,,,,2,3.069,1,,,,,,-0.05561303,-0.264653015,1,0,0,3.0687,Basalt_rect,2,0,2,0,1,
664925f5dac2a21296428a6f,TCN,2024-06-24_11h46.06.168,LearnStrategy,2023.2.3,MacIntel,57.14285714,9,2,4,,,,,,,,1,02,,,,,,,,,,,1,2.251,1,,,,,,-0.323391724,-0.261586931,1,0,0,2.251,Andesite_rect,3,0,3,0,1,
664925f5dac2a21296428a6f,TCN,2024-06-24_11h46.06.168,LearnStrategy,2023.2.3,MacIntel,57.14285714,9,2,5,,,,,,,,4,11,,,,,,,,,,,4,3.565,1,,,,,,0.331846958,-0.262574853,1,0,0,3.5646,Gabbro_rect,4,0,4,0,1,
664925f5dac2a21296428a6f,TCN,2024-06-24_11h46.06.168,LearnStrategy,2023.2.3,MacIntel,57.14285714,9,2,6,,,,,,,,1,05,,,,,,,,,,,1,1.839,1,,,,,,-0.332945548,-0.250440725,1,0,0,1.8393,Andesite_rect,5,0,5,0,1,
664925f5dac2a21296428a6f,TCN,2024-06-24_11h46.06.168,LearnStrategy,2023.2.3,MacIntel,57.14285714,9,2,7,,,,,,,,5,10,,,,,,,,,,,5,1.308,1,,,,,,-0.335122002,-0.399760861,1,0,0,1.3077,Obsidian_rect,6,0,6,0,1,
664925f5dac2a21296428a6f,TCN,2024-06-24_11h46.06.168,LearnStrategy,2023.2.3,MacIntel,57.14285714,9,2,8,,,,,,,,6,09,,,,,,,,,,,6,1.1,1,,,,,,-0.222875849,-0.417142147,1,0,0,1.1002,Pegmatite_rect,7,0,7,0,1,
664925f5dac2a21296428a6f,TCN,2024-06-24_11h46.06.168,LearnStrategy,2023.2.3,MacIntel,57.14285714,9,2,9,,,,,,,,3,08,,,,,,,,,,,3,1.655,1,,,,,,0.056247203,-0.260477193,1,0,0,1.6552,Diorite_rect,8,0,8,0,1,
664925f5dac2a21296428a6f,TCN,2024-06-24_11h46.06.168,LearnStrategy,2023.2.3,MacIntel,57.14285714,9,2,10,,,,,,,,6,06,,,,,,,,,,,6,1.115,1,,,,,,-0.080552165,-0.378566657,1,0,0,1.1153,Pegmatite_rect,9,0,9,0,1,
664925f5dac2a21296428a6f,TCN,2024-06-24_11h46.06.168,LearnStrategy,2023.2.3,MacIntel,57.14285714,9,2,11,,,,,,,,8,06,,,,,,,,,,,8,1.185,1,,,,,,0.395033858,-0.416539001,1,0,0,1.1847,Pumice_rect,10,0,10,0,1,
664925f5dac2a21296428a6f,TCN,2024-06-24_11h46.06.168,LearnStrategy,2023.2.3,MacIntel,57.14285714,9,2,12,,,,,,,,4,12,,,,,,,,,,,4,13.783,1,,,,,,0.403112963,-0.256533644,1,0,0,13.7831,Gabbro_rect,11,0,11,0,1,
664925f5dac2a21296428a6f,TCN,2024-06-24_11h46.06.168,LearnStrategy,2023.2.3,MacIntel,57.14285714,9,2,13,,,,,,,,3,13,,,,,,,,,,,3,1.776,1,,,,,,0.178931851,-0.257978736,1,0,0,1.7765,Diorite_rect,12,0,12,0,1,
664925f5dac2a21296428a6f,TCN,2024-06-24_11h46.06.168,LearnStrategy,2023.2.3,MacIntel,57.14285714,9,2,14,,,,,,,,8,10,,,,,,,,,,,8,1.213,1,,,,,,0.350706651,-0.390532769,1,0,0,1.2135,Pumice_rect,13,0,13,0,1,
664925f5dac2a21296428a6f,TCN,2024-06-24_11h46.06.168,LearnStrategy,2023.2.3,MacIntel,57.14285714,9,2,15,,,,,,,,2,06,,,,,,,,,,,2,2.223,1,,,,,,-0.060370975,-0.252502357,1,0,0,2.2229,Basalt_rect,14,0,14,0,1,
664925f5dac2a21296428a6f,TCN,2024-06-24_11h46.06.168,LearnStrategy,2023.2.3,MacIntel,57.14285714,9,2,16,,,,,,,,5,09,,,,,,,,,,,5,1.202,1,,,,,,-0.34159868,-0.387048086,1,0,0,1.2015,Obsidian_rect,15,0,15,0,1,
664925f5dac2a21296428a6f,TCN,2024-06-24_11h46.06.168,LearnStrategy,2023.2.3,MacIntel,57.14285714,,,,,,,,,,,,,,,,,,,,,,,,,,,,,,,,,,,,,,,,,,,1
664925f5dac2a21296428a6f,TCN,2024-06-24_11h46.06.168,LearnStrategy,2023.2.3,MacIntel,57.14285714,,,,,,,,,,,,,,,,,,,,,,,,,,,,,,,,,,,,,,,,,,,
664925f5dac2a21296428a6f,TCN,2024-06-24_11h46.06.168,LearnStrategy,2023.2.3,MacIntel,57.14285714,,,,,,,,,,,5,06,1,1,,,,,,,,,,,,,,,,,,,,,,,,,,,,,
664925f5dac2a21296428a6f,TCN,2024-06-24_11h46.06.168,LearnStrategy,2023.2.3,MacIntel,57.14285714,,,,,,,,,,,7,14,1,2,,,,,,,,,,,,,,,,,,,,,,,,,,,,,
664925f5dac2a21296428a6f,TCN,2024-06-24_11h46.06.168,LearnStrategy,2023.2.3,MacIntel,57.14285714,,,,,,,,,,,3,16,1,3,,,,,,,,,,,,,,,,,,,,,,,,,,,,,
664925f5dac2a21296428a6f,TCN,2024-06-24_11h46.06.168,LearnStrategy,2023.2.3,MacIntel,57.14285714,,,,,,,,,,,7,08,1,4,,,,,,,,,,,,,,,,,,,,,,,,,,,,,
664925f5dac2a21296428a6f,TCN,2024-06-24_11h46.06.168,LearnStrategy,2023.2.3,MacIntel,57.14285714,,,,,,,,,,,1,14,1,5,,,,,,,,,,,,,,,,,,,,,,,,,,,,,
664925f5dac2a21296428a6f,TCN,2024-06-24_11h46.06.168,LearnStrategy,2023.2.3,MacIntel,57.14285714,,,,,,,,,,,3,14,1,6,,,,,,,,,,,,,,,,,,,,,,,,,,,,,
664925f5dac2a21296428a6f,TCN,2024-06-24_11h46.06.168,LearnStrategy,2023.2.3,MacIntel,57.14285714,,,,,,,,,,,5,02,1,7,,,,,,,,,,,,,,,,,,,,,,,,,,,,,
664925f5dac2a21296428a6f,TCN,2024-06-24_11h46.06.168,LearnStrategy,2023.2.3,MacIntel,57.14285714,,,,,,,,,,,1,07,1,8,,,,,,,,,,,,,,,,,,,,,,,,,,,,,
664925f5dac2a21296428a6f,TCN,2024-06-24_11h46.06.168,LearnStrategy,2023.2.3,MacIntel,57.14285714,,,,,,,,,,,2,08,2,1,,,,,,,,,,,,,,,,,,,,,,,,,,,,,
664925f5dac2a21296428a6f,TCN,2024-06-24_11h46.06.168,LearnStrategy,2023.2.3,MacIntel,57.14285714,,,,,,,,,,,2,05,2,2,,,,,,,,,,,,,,,,,,,,,,,,,,,,,
664925f5dac2a21296428a6f,TCN,2024-06-24_11h46.06.168,LearnStrategy,2023.2.3,MacIntel,57.14285714,,,,,,,,,,,4,08,2,3,,,,,,,,,,,,,,,,,,,,,,,,,,,,,
664925f5dac2a21296428a6f,TCN,2024-06-24_11h46.06.168,LearnStrategy,2023.2.3,MacIntel,57.14285714,,,,,,,,,,,2,14,2,4,,,,,,,,,,,,,,,,,,,,,,,,,,,,,
664925f5dac2a21296428a6f,TCN,2024-06-24_11h46.06.168,LearnStrategy,2023.2.3,MacIntel,57.14285714,,,,,,,,,,,1,11,2,5,,,,,,,,,,,,,,,,,,,,,,,,,,,,,
664925f5dac2a21296428a6f,TCN,2024-06-24_11h46.06.168,LearnStrategy,2023.2.3,MacIntel,57.14285714,,,,,,,,,,,5,08,2,6,,,,,,,,,,,,,,,,,,,,,,,,,,,,,
664925f5dac2a21296428a6f,TCN,2024-06-24_11h46.06.168,LearnStrategy,2023.2.3,MacIntel,57.14285714,,,,,,,,,,,8,14,2,7,,,,,,,,,,,,,,,,,,,,,,,,,,,,,
664925f5dac2a21296428a6f,TCN,2024-06-24_11h46.06.168,LearnStrategy,2023.2.3,MacIntel,57.14285714,,,,,,,,,,,4,15,2,8,,,,,,,,,,,,,,,,,,,,,,,,,,,,,
664925f5dac2a21296428a6f,TCN,2024-06-24_11h46.06.168,LearnStrategy,2023.2.3,MacIntel,57.14285714,,,,,,,,,,,7,16,3,1,,,,,,,,,,,,,,,,,,,,,,,,,,,,,
664925f5dac2a21296428a6f,TCN,2024-06-24_11h46.06.168,LearnStrategy,2023.2.3,MacIntel,57.14285714,,,,,,,,,,,7,15,3,2,,,,,,,,,,,,,,,,,,,,,,,,,,,,,
664925f5dac2a21296428a6f,TCN,2024-06-24_11h46.06.168,LearnStrategy,2023.2.3,MacIntel,57.14285714,,,,,,,,,,,5,12,3,3,,,,,,,,,,,,,,,,,,,,,,,,,,,,,
664925f5dac2a21296428a6f,TCN,2024-06-24_11h46.06.168,LearnStrategy,2023.2.3,MacIntel,57.14285714,,,,,,,,,,,8,09,3,4,,,,,,,,,,,,,,,,,,,,,,,,,,,,,
664925f5dac2a21296428a6f,TCN,2024-06-24_11h46.06.168,LearnStrategy,2023.2.3,MacIntel,57.14285714,,,,,,,,,,,1,03,3,5,,,,,,,,,,,,,,,,,,,,,,,,,,,,,
664925f5dac2a21296428a6f,TCN,2024-06-24_11h46.06.168,LearnStrategy,2023.2.3,MacIntel,57.14285714,,,,,,,,,,,6,10,3,6,,,,,,,,,,,,,,,,,,,,,,,,,,,,,
664925f5dac2a21296428a6f,TCN,2024-06-24_11h46.06.168,LearnStrategy,2023.2.3,MacIntel,57.14285714,,,,,,,,,,,8,16,3,7,,,,,,,,,,,,,,,,,,,,,,,,,,,,,
664925f5dac2a21296428a6f,TCN,2024-06-24_11h46.06.168,LearnStrategy,2023.2.3,MacIntel,57.14285714,,,,,,,,,,,5,16,3,8,,,,,,,,,,,,,,,,,,,,,,,,,,,,,
664925f5dac2a21296428a6f,TCN,2024-06-24_11h46.06.168,LearnStrategy,2023.2.3,MacIntel,57.14285714,,,,,,,,,,,3,06,4,1,,,,,,,,,,,,,,,,,,,,,,,,,,,,,
664925f5dac2a21296428a6f,TCN,2024-06-24_11h46.06.168,LearnStrategy,2023.2.3,MacIntel,57.14285714,,,,,,,,,,,7,12,4,2,,,,,,,,,,,,,,,,,,,,,,,,,,,,,
664925f5dac2a21296428a6f,TCN,2024-06-24_11h46.06.168,LearnStrategy,2023.2.3,MacIntel,57.14285714,,,,,,,,,,,6,13,4,3,,,,,,,,,,,,,,,,,,,,,,,,,,,,,
664925f5dac2a21296428a6f,TCN,2024-06-24_11h46.06.168,LearnStrategy,2023.2.3,MacIntel,57.14285714,,,,,,,,,,,6,16,4,4,,,,,,,,,,,,,,,,,,,,,,,,,,,,,
664925f5dac2a21296428a6f,TCN,2024-06-24_11h46.06.168,LearnStrategy,2023.2.3,MacIntel,57.14285714,,,,,,,,,,,6,12,4,5,,,,,,,,,,,,,,,,,,,,,,,,,,,,,
664925f5dac2a21296428a6f,TCN,2024-06-24_11h46.06.168,LearnStrategy,2023.2.3,MacIntel,57.14285714,,,,,,,,,,,2,11,4,6,,,,,,,,,,,,,,,,,,,,,,,,,,,,,
664925f5dac2a21296428a6f,TCN,2024-06-24_11h46.06.168,LearnStrategy,2023.2.3,MacIntel,57.14285714,,,,,,,,,,,4,03,4,7,,,,,,,,,,,,,,,,,,,,,,,,,,,,,
664925f5dac2a21296428a6f,TCN,2024-06-24_11h46.06.168,LearnStrategy,2023.2.3,MacIntel,57.14285714,,,,,,,,,,,8,03,4,8,,,,,,,,,,,,,,,,,,,,,,,,,,,,,
664925f5dac2a21296428a6f,TCN,2024-06-24_11h46.06.168,LearnStrategy,2023.2.3,MacIntel,57.14285714,,,,,,,,,,,5,04,5,1,,,,,,,,,,,,,,,,,,,,,,,,,,,,,
664925f5dac2a21296428a6f,TCN,2024-06-24_11h46.06.168,LearnStrategy,2023.2.3,MacIntel,57.14285714,,,,,,,,,,,6,07,5,2,,,,,,,,,,,,,,,,,,,,,,,,,,,,,
664925f5dac2a21296428a6f,TCN,2024-06-24_11h46.06.168,LearnStrategy,2023.2.3,MacIntel,57.14285714,,,,,,,,,,,1,01,5,3,,,,,,,,,,,,,,,,,,,,,,,,,,,,,
664925f5dac2a21296428a6f,TCN,2024-06-24_11h46.06.168,LearnStrategy,2023.2.3,MacIntel,57.14285714,,,,,,,,,,,3,02,5,4,,,,,,,,,,,,,,,,,,,,,,,,,,,,,
664925f5dac2a21296428a6f,TCN,2024-06-24_11h46.06.168,LearnStrategy,2023.2.3,MacIntel,57.14285714,,,,,,,,,,,3,09,5,5,,,,,,,,,,,,,,,,,,,,,,,,,,,,,
664925f5dac2a21296428a6f,TCN,2024-06-24_11h46.06.168,LearnStrategy,2023.2.3,MacIntel,57.14285714,,,,,,,,,,,7,06,5,6,,,,,,,,,,,,,,,,,,,,,,,,,,,,,
664925f5dac2a21296428a6f,TCN,2024-06-24_11h46.06.168,LearnStrategy,2023.2.3,MacIntel,57.14285714,,,,,,,,,,,8,05,5,7,,,,,,,,,,,,,,,,,,,,,,,,,,,,,
664925f5dac2a21296428a6f,TCN,2024-06-24_11h46.06.168,LearnStrategy,2023.2.3,MacIntel,57.14285714,,,,,,,,,,,4,10,5,8,,,,,,,,,,,,,,,,,,,,,,,,,,,,,
664925f5dac2a21296428a6f,TCN,2024-06-24_11h46.06.168,LearnStrategy,2023.2.3,MacIntel,57.14285714,,,,,,,,,,,4,09,6,1,,,,,,,,,,,,,,,,,,,,,,,,,,,,,
664925f5dac2a21296428a6f,TCN,2024-06-24_11h46.06.168,LearnStrategy,2023.2.3,MacIntel,57.14285714,,,,,,,,,,,2,09,6,2,,,,,,,,,,,,,,,,,,,,,,,,,,,,,
664925f5dac2a21296428a6f,TCN,2024-06-24_11h46.06.168,LearnStrategy,2023.2.3,MacIntel,57.14285714,,,,,,,,,,,4,01,6,3,,,,,,,,,,,,,,,,,,,,,,,,,,,,,
664925f5dac2a21296428a6f,TCN,2024-06-24_11h46.06.168,LearnStrategy,2023.2.3,MacIntel,57.14285714,,,,,,,,,,,1,06,6,4,,,,,,,,,,,,,,,,,,,,,,,,,,,,,
664925f5dac2a21296428a6f,TCN,2024-06-24_11h46.06.168,LearnStrategy,2023.2.3,MacIntel,57.14285714,,,,,,,,,,,6,05,6,5,,,,,,,,,,,,,,,,,,,,,,,,,,,,,
664925f5dac2a21296428a6f,TCN,2024-06-24_11h46.06.168,LearnStrategy,2023.2.3,MacIntel,57.14285714,,,,,,,,,,,2,04,6,6,,,,,,,,,,,,,,,,,,,,,,,,,,,,,
664925f5dac2a21296428a6f,TCN,2024-06-24_11h46.06.168,LearnStrategy,2023.2.3,MacIntel,57.14285714,,,,,,,,,,,3,12,6,7,,,,,,,,,,,,,,,,,,,,,,,,,,,,,
664925f5dac2a21296428a6f,TCN,2024-06-24_11h46.06.168,LearnStrategy,2023.2.3,MacIntel,57.14285714,,,,,,,,,,,8,15,6,8,,,,,,,,,,,,,,,,,,,,,,,,,,,,,