participant,condition,date,expName,psychopyVersion,OS,frameRate,block,phase,trial,learn_mouse_2.x,learn_mouse_2.y,learn_mouse_2.leftButton,learn_mouse_2.midButton,learn_mouse_2.rightButton,learn_mouse_2.time,learn_mouse_2.clicked_name,cat,token,row,col,t_select,cat_mouse_l.x,cat_mouse_l.y,cat_mouse_l.leftButton,cat_mouse_l.midButton,cat_mouse_l.rightButton,cat_mouse_l.time,cat_mouse_l.clicked_name,resp,t_resp,corr,train_trials.thisRepN,train_trials.thisTrialN,train_trials.thisN,train_trials.thisIndex,train_trials.ran,cat_mouse_t.x,cat_mouse_t.y,cat_mouse_t.leftButton,cat_mouse_t.midButton,cat_mouse_t.rightButton,cat_mouse_t.time,cat_mouse_t.clicked_name,test_trials.thisRepN,test_trials.thisTrialN,test_trials.thisN,test_trials.thisIndex,test_trials.ran
664a4e8f87996f8c08fb3a62,TCN,2024-06-10_15h03.58.266,LearnStrategy,2023.2.3,MacIntel,60.0240096,,,,,,,,,,,,,,,,,,,,,,,,,,,,,,,,,,,,,,,,,,
664a4e8f87996f8c08fb3a62,TCN,2024-06-10_15h03.58.266,LearnStrategy,2023.2.3,MacIntel,60.0240096,1,1,1,0.174074074,0.000925926,1,0,0,5.254,rock_grid_rect_2,6,15,-1,-1,5.254,0.137962963,-0.261111111,1,0,0,6.038,Diorite_rect,3,6.038,0,0,0,0,0,1,,,,,,,,,,,,
664a4e8f87996f8c08fb3a62,TCN,2024-06-10_15h03.58.266,LearnStrategy,2023.2.3,MacIntel,60.0240096,1,1,2,0.008333333,-0.001851852,1,0,0,2.311,rock_grid_rect_2,2,08,-1,-1,2.311,-0.077777778,-0.260185185,1,0,0,6.041,Basalt_rect,2,6.041,1,1,0,1,0,1,,,,,,,,,,,,
664a4e8f87996f8c08fb3a62,TCN,2024-06-10_15h03.58.266,LearnStrategy,2023.2.3,MacIntel,60.0240096,1,1,3,0.05,-0.012962963,1,0,0,0.963,rock_grid_rect_2,1,04,-1,-1,0.963,0.17962963,-0.262962963,1,0,0,4.664,Diorite_rect,3,4.664,0,2,0,2,0,1,,,,,,,,,,,,
664a4e8f87996f8c08fb3a62,TCN,2024-06-10_15h03.58.266,LearnStrategy,2023.2.3,MacIntel,60.0240096,1,1,4,0.050925926,-0.006481481,1,0,0,1.064,rock_grid_rect_2,7,06,-1,-1,1.064,0.155555556,-0.394444444,1,0,0,3.229,Peridotite_rect,7,3.229,1,3,0,3,0,1,,,,,,,,,,,,
664a4e8f87996f8c08fb3a62,TCN,2024-06-10_15h03.58.266,LearnStrategy,2023.2.3,MacIntel,60.0240096,1,1,5,0.178703704,-0.006481481,1,0,0,1.044,rock_grid_rect_2,6,10,-1,-1,1.044,0.305555556,-0.24537037,1,0,0,6.057,Gabbro_rect,4,6.057,0,4,0,4,0,1,,,,,,,,,,,,
664a4e8f87996f8c08fb3a62,TCN,2024-06-10_15h03.58.266,LearnStrategy,2023.2.3,MacIntel,60.0240096,1,1,6,-0.014814815,0.012962963,1,0,0,1.597,rock_grid_rect_2,7,14,-1,-1,1.597,0.371296296,-0.25462963,1,0,0,5.162,Gabbro_rect,4,5.162,0,5,0,5,0,1,,,,,,,,,,,,
664a4e8f87996f8c08fb3a62,TCN,2024-06-10_15h03.58.266,LearnStrategy,2023.2.3,MacIntel,60.0240096,1,1,7,0.075925926,-0.010185185,1,0,0,1.246,rock_grid_rect_2,3,11,-1,-1,1.246,0.300925926,-0.415740741,1,0,0,3.579,Pumice_rect,8,3.579,0,6,0,6,0,1,,,,,,,,,,,,
664a4e8f87996f8c08fb3a62,TCN,2024-06-10_15h03.58.266,LearnStrategy,2023.2.3,MacIntel,60.0240096,1,1,8,0.021296296,0.006481481,1,0,0,1.563,rock_grid_rect_2,8,05,-1,-1,1.563,0.39537037,-0.413888889,1,0,0,2.635,Pumice_rect,8,2.635,1,7,0,7,0,1,,,,,,,,,,,,
664a4e8f87996f8c08fb3a62,TCN,2024-06-10_15h03.58.266,LearnStrategy,2023.2.3,MacIntel,60.0240096,1,1,9,0.132407407,0.017592593,1,0,0,0.963,rock_grid_rect_2,1,16,-1,-1,0.963,-0.142592593,-0.397222222,1,0,0,5.245,Pegmatite_rect,6,5.245,0,8,0,8,0,1,,,,,,,,,,,,
664a4e8f87996f8c08fb3a62,TCN,2024-06-10_15h03.58.266,LearnStrategy,2023.2.3,MacIntel,60.0240096,1,1,10,0.025925926,-0.007407407,1,0,0,1.244,rock_grid_rect_2,4,13,-1,-1,1.244,0.403703704,-0.264814815,1,0,0,3.514,Gabbro_rect,4,3.514,1,9,0,9,0,1,,,,,,,,,,,,
664a4e8f87996f8c08fb3a62,TCN,2024-06-10_15h03.58.266,LearnStrategy,2023.2.3,MacIntel,60.0240096,1,1,11,0.022222222,0.007407407,1,0,0,1.296,rock_grid_rect_2,2,12,-1,-1,1.296,0.353703704,-0.397222222,1,0,0,2.343,Pumice_rect,8,2.343,0,10,0,10,0,1,,,,,,,,,,,,
664a4e8f87996f8c08fb3a62,TCN,2024-06-10_15h03.58.266,LearnStrategy,2023.2.3,MacIntel,60.0240096,1,1,12,0.000925926,0.011111111,1,0,0,0.864,rock_grid_rect_2,5,02,-1,-1,0.864,-0.339814815,-0.397222222,1,0,0,2.313,Obsidian_rect,5,2.313,1,11,0,11,0,1,,,,,,,,,,,,
664a4e8f87996f8c08fb3a62,TCN,2024-06-10_15h03.58.266,LearnStrategy,2023.2.3,MacIntel,60.0240096,1,1,13,0.014814815,-0.006481481,1,0,0,1.164,rock_grid_rect_2,5,07,-1,-1,1.164,-0.437962963,-0.412037037,1,0,0,1.176,Obsidian_rect,5,1.176,1,12,0,12,0,1,,,,,,,,,,,,
664a4e8f87996f8c08fb3a62,TCN,2024-06-10_15h03.58.266,LearnStrategy,2023.2.3,MacIntel,60.0240096,1,1,14,-0.051851852,-0.000925926,1,0,0,1.13,rock_grid_rect_2,8,14,-1,-1,1.13,0.386111111,-0.388888889,1,0,0,1.945,Pumice_rect,8,1.945,1,13,0,13,0,1,,,,,,,,,,,,
664a4e8f87996f8c08fb3a62,TCN,2024-06-10_15h03.58.266,LearnStrategy,2023.2.3,MacIntel,60.0240096,1,1,15,0.10462963,-0.001851852,1,0,0,0.98,rock_grid_rect_2,4,03,-1,-1,0.98,-0.07037037,-0.268518519,1,0,0,1.208,Basalt_rect,2,1.208,0,14,0,14,0,1,,,,,,,,,,,,
664a4e8f87996f8c08fb3a62,TCN,2024-06-10_15h03.58.266,LearnStrategy,2023.2.3,MacIntel,60.0240096,1,1,16,0.042592593,0.006481481,1,0,0,0.913,rock_grid_rect_2,3,10,-1,-1,0.913,-0.432407407,-0.253703704,1,0,0,3.44,Andesite_rect,1,3.44,0,15,0,15,0,1,,,,,,,,,,,,
664a4e8f87996f8c08fb3a62,TCN,2024-06-10_15h03.58.266,LearnStrategy,2023.2.3,MacIntel,60.0240096,1,2,1,,,,,,,,1,09,,,,,,,,,,,2,3.555,0,,,,,,-0.065740741,-0.25,1,0,0,3.555,Basalt_rect,0,0,0,0,1
664a4e8f87996f8c08fb3a62,TCN,2024-06-10_15h03.58.266,LearnStrategy,2023.2.3,MacIntel,60.0240096,1,2,2,,,,,,,,3,14,,,,,,,,,,,6,3.765,0,,,,,,-0.141666667,-0.411111111,1,0,0,3.765,Pegmatite_rect,1,0,1,0,1
664a4e8f87996f8c08fb3a62,TCN,2024-06-10_15h03.58.266,LearnStrategy,2023.2.3,MacIntel,60.0240096,1,2,3,,,,,,,,8,06,,,,,,,,,,,8,1.942,1,,,,,,0.423148148,-0.387962963,1,0,0,1.942,Pumice_rect,2,0,2,0,1
664a4e8f87996f8c08fb3a62,TCN,2024-06-10_15h03.58.266,LearnStrategy,2023.2.3,MacIntel,60.0240096,1,2,4,,,,,,,,6,08,,,,,,,,,,,6,5.915,1,,,,,,-0.07962963,-0.413888889,1,0,0,5.915,Pegmatite_rect,3,0,3,0,1
664a4e8f87996f8c08fb3a62,TCN,2024-06-10_15h03.58.266,LearnStrategy,2023.2.3,MacIntel,60.0240096,1,2,5,,,,,,,,5,14,,,,,,,,,,,5,1.341,1,,,,,,-0.417592593,-0.419444444,1,0,0,1.341,Obsidian_rect,4,0,4,0,1
664a4e8f87996f8c08fb3a62,TCN,2024-06-10_15h03.58.266,LearnStrategy,2023.2.3,MacIntel,60.0240096,1,2,6,,,,,,,,7,15,,,,,,,,,,,7,1.089,1,,,,,,0.094444444,-0.396296296,1,0,0,1.089,Peridotite_rect,5,0,5,0,1
664a4e8f87996f8c08fb3a62,TCN,2024-06-10_15h03.58.266,LearnStrategy,2023.2.3,MacIntel,60.0240096,1,2,7,,,,,,,,3,08,,,,,,,,,,,3,4.89,1,,,,,,0.132407407,-0.257407407,1,0,0,4.89,Diorite_rect,6,0,6,0,1
664a4e8f87996f8c08fb3a62,TCN,2024-06-10_15h03.58.266,LearnStrategy,2023.2.3,MacIntel,60.0240096,1,2,8,,,,,,,,7,10,,,,,,,,,,,7,1.153,1,,,,,,0.112037037,-0.402777778,1,0,0,1.153,Peridotite_rect,7,0,7,0,1
664a4e8f87996f8c08fb3a62,TCN,2024-06-10_15h03.58.266,LearnStrategy,2023.2.3,MacIntel,60.0240096,1,2,9,,,,,,,,5,09,,,,,,,,,,,5,1.221,1,,,,,,-0.410185185,-0.412962963,1,0,0,1.221,Obsidian_rect,8,0,8,0,1
664a4e8f87996f8c08fb3a62,TCN,2024-06-10_15h03.58.266,LearnStrategy,2023.2.3,MacIntel,60.0240096,1,2,10,,,,,,,,1,05,,,,,,,,,,,7,1.186,0,,,,,,0.159259259,-0.408333333,1,0,0,1.186,Peridotite_rect,9,0,9,0,1
664a4e8f87996f8c08fb3a62,TCN,2024-06-10_15h03.58.266,LearnStrategy,2023.2.3,MacIntel,60.0240096,1,2,11,,,,,,,,2,06,,,,,,,,,,,5,1.169,0,,,,,,-0.403703704,-0.421296296,1,0,0,1.169,Obsidian_rect,10,0,10,0,1
664a4e8f87996f8c08fb3a62,TCN,2024-06-10_15h03.58.266,LearnStrategy,2023.2.3,MacIntel,60.0240096,1,2,12,,,,,,,,2,02,,,,,,,,,,,2,3.207,1,,,,,,-0.047222222,-0.269444444,1,0,0,3.207,Basalt_rect,11,0,11,0,1
664a4e8f87996f8c08fb3a62,TCN,2024-06-10_15h03.58.266,LearnStrategy,2023.2.3,MacIntel,60.0240096,1,2,13,,,,,,,,4,14,,,,,,,,,,,4,1.634,1,,,,,,0.44537037,-0.237037037,1,0,0,1.634,Gabbro_rect,12,0,12,0,1
664a4e8f87996f8c08fb3a62,TCN,2024-06-10_15h03.58.266,LearnStrategy,2023.2.3,MacIntel,60.0240096,1,2,14,,,,,,,,4,08,,,,,,,,,,,1,5.501,0,,,,,,-0.348148148,-0.235185185,1,0,0,5.501,Andesite_rect,13,0,13,0,1
664a4e8f87996f8c08fb3a62,TCN,2024-06-10_15h03.58.266,LearnStrategy,2023.2.3,MacIntel,60.0240096,1,2,15,,,,,,,,8,04,,,,,,,,,,,8,1.853,1,,,,,,0.37037037,-0.400925926,1,0,0,1.853,Pumice_rect,14,0,14,0,1
664a4e8f87996f8c08fb3a62,TCN,2024-06-10_15h03.58.266,LearnStrategy,2023.2.3,MacIntel,60.0240096,1,2,16,,,,,,,,6,13,,,,,,,,,,,6,2.405,1,,,,,,-0.091666667,-0.401851852,1,0,0,2.405,Pegmatite_rect,15,0,15,0,1
664a4e8f87996f8c08fb3a62,TCN,2024-06-10_15h03.58.266,LearnStrategy,2023.2.3,MacIntel,60.0240096,2,1,1,0.150925926,0.008333333,1,0,0,1.778,rock_grid_rect_2,2,11,-1,-1,1.778,-0.098148148,-0.258333333,1,0,0,3.602,Basalt_rect,2,3.602,1,0,0,0,0,1,,,,,,,,,,,,
664a4e8f87996f8c08fb3a62,TCN,2024-06-10_15h03.58.266,LearnStrategy,2023.2.3,MacIntel,60.0240096,2,1,2,0.130555556,-0.010185185,1,0,0,1.306,rock_grid_rect_2,3,12,-1,-1,1.306,-0.356481481,-0.232407407,1,0,0,2.309,Andesite_rect,1,2.309,0,1,0,1,0,1,,,,,,,,,,,,
664a4e8f87996f8c08fb3a62,TCN,2024-06-10_15h03.58.266,LearnStrategy,2023.2.3,MacIntel,60.0240096,2,1,3,0.136111111,-0.001851852,1,0,0,1.198,rock_grid_rect_2,6,03,-1,-1,1.198,0.122222222,-0.417592593,1,0,0,1.261,Peridotite_rect,7,1.261,0,2,0,2,0,1,,,,,,,,,,,,
664a4e8f87996f8c08fb3a62,TCN,2024-06-10_15h03.58.266,LearnStrategy,2023.2.3,MacIntel,60.0240096,2,1,4,0.119444444,0.003703704,1,0,0,1.296,rock_grid_rect_2,1,11,-1,-1,1.296,-0.073148148,-0.408333333,1,0,0,3.716,Pegmatite_rect,6,3.716,0,3,0,3,0,1,,,,,,,,,,,,
664a4e8f87996f8c08fb3a62,TCN,2024-06-10_15h03.58.266,LearnStrategy,2023.2.3,MacIntel,60.0240096,2,1,5,0.162962963,0.003703704,1,0,0,1.331,rock_grid_rect_2,7,08,-1,-1,1.331,0.108333333,-0.411111111,1,0,0,1.641,Peridotite_rect,7,1.641,1,4,0,4,0,1,,,,,,,,,,,,
664a4e8f87996f8c08fb3a62,TCN,2024-06-10_15h03.58.266,LearnStrategy,2023.2.3,MacIntel,60.0240096,2,1,6,0.111111111,-0.019444444,1,0,0,1.297,rock_grid_rect_2,2,09,-1,-1,1.297,-0.077777778,-0.248148148,1,0,0,2.278,Basalt_rect,2,2.278,1,5,0,5,0,1,,,,,,,,,,,,
664a4e8f87996f8c08fb3a62,TCN,2024-06-10_15h03.58.266,LearnStrategy,2023.2.3,MacIntel,60.0240096,2,1,7,0.166666667,-0.016666667,1,0,0,1.14,rock_grid_rect_2,5,16,-1,-1,1.14,-0.35462963,-0.403703704,1,0,0,1.738,Obsidian_rect,5,1.738,1,6,0,6,0,1,,,,,,,,,,,,
664a4e8f87996f8c08fb3a62,TCN,2024-06-10_15h03.58.266,LearnStrategy,2023.2.3,MacIntel,60.0240096,2,1,8,0.156481481,-0.018518519,1,0,0,1.014,rock_grid_rect_2,4,09,-1,-1,1.014,-0.371296296,-0.248148148,1,0,0,5.359,Andesite_rect,1,5.359,0,7,0,7,0,1,,,,,,,,,,,,
664a4e8f87996f8c08fb3a62,TCN,2024-06-10_15h03.58.266,LearnStrategy,2023.2.3,MacIntel,60.0240096,2,1,9,0.072222222,-0.005555556,1,0,0,1.147,rock_grid_rect_2,7,02,-1,-1,1.147,0.114814815,-0.382407407,1,0,0,1.825,Peridotite_rect,7,1.825,1,8,0,8,0,1,,,,,,,,,,,,
664a4e8f87996f8c08fb3a62,TCN,2024-06-10_15h03.58.266,LearnStrategy,2023.2.3,MacIntel,60.0240096,2,1,10,0.144444444,-0.002777778,1,0,0,1.149,rock_grid_rect_2,5,10,-1,-1,1.149,-0.330555556,-0.39537037,1,0,0,1.026,Obsidian_rect,5,1.026,1,9,0,9,0,1,,,,,,,,,,,,
664a4e8f87996f8c08fb3a62,TCN,2024-06-10_15h03.58.266,LearnStrategy,2023.2.3,MacIntel,60.0240096,2,1,11,0.1,-0.002777778,1,0,0,0.946,rock_grid_rect_2,8,16,-1,-1,0.946,0.347222222,-0.412962963,1,0,0,1.788,Pumice_rect,8,1.788,1,10,0,10,0,1,,,,,,,,,,,,
664a4e8f87996f8c08fb3a62,TCN,2024-06-10_15h03.58.266,LearnStrategy,2023.2.3,MacIntel,60.0240096,2,1,12,0.014814815,-0.000925926,1,0,0,0.997,rock_grid_rect_2,4,05,-1,-1,0.997,0.45,-0.27037037,1,0,0,3.526,Gabbro_rect,4,3.526,1,11,0,11,0,1,,,,,,,,,,,,
664a4e8f87996f8c08fb3a62,TCN,2024-06-10_15h03.58.266,LearnStrategy,2023.2.3,MacIntel,60.0240096,2,1,13,0.102777778,0.003703704,1,0,0,0.947,rock_grid_rect_2,8,03,-1,-1,0.947,0.425,-0.391666667,1,0,0,2.01,Pumice_rect,8,2.01,1,12,0,12,0,1,,,,,,,,,,,,
664a4e8f87996f8c08fb3a62,TCN,2024-06-10_15h03.58.266,LearnStrategy,2023.2.3,MacIntel,60.0240096,2,1,14,0.046296296,-0.016666667,1,0,0,1.073,rock_grid_rect_2,3,09,-1,-1,1.073,-0.115740741,-0.411111111,1,0,0,2.154,Pegmatite_rect,6,2.154,0,13,0,13,0,1,,,,,,,,,,,,
664a4e8f87996f8c08fb3a62,TCN,2024-06-10_15h03.58.266,LearnStrategy,2023.2.3,MacIntel,60.0240096,2,1,15,0.062962963,0.001851852,1,0,0,1.663,rock_grid_rect_2,1,14,-1,-1,1.663,-0.109259259,-0.387037037,1,0,0,9.259,Pegmatite_rect,6,9.259,0,14,0,14,0,1,,,,,,,,,,,,
664a4e8f87996f8c08fb3a62,TCN,2024-06-10_15h03.58.266,LearnStrategy,2023.2.3,MacIntel,60.0240096,2,1,16,0.041666667,-0.013888889,1,0,0,1.564,rock_grid_rect_2,6,05,-1,-1,1.564,0.122222222,-0.259259259,1,0,0,11.618,Diorite_rect,3,11.618,0,15,0,15,0,1,,,,,,,,,,,,
664a4e8f87996f8c08fb3a62,TCN,2024-06-10_15h03.58.266,LearnStrategy,2023.2.3,MacIntel,60.0240096,2,2,1,,,,,,,,7,05,,,,,,,,,,,7,1.283,1,,,,,,0.144444444,-0.384259259,1,0,0,1.283,Peridotite_rect,0,0,0,0,1
664a4e8f87996f8c08fb3a62,TCN,2024-06-10_15h03.58.266,LearnStrategy,2023.2.3,MacIntel,60.0240096,2,2,2,,,,,,,,3,06,,,,,,,,,,,3,2.181,1,,,,,,0.07962963,-0.27037037,1,0,0,2.181,Diorite_rect,1,0,1,0,1
664a4e8f87996f8c08fb3a62,TCN,2024-06-10_15h03.58.266,LearnStrategy,2023.2.3,MacIntel,60.0240096,2,2,3,,,,,,,,5,06,,,,,,,,,,,5,1.082,1,,,,,,-0.402777778,-0.400925926,1,0,0,1.082,Obsidian_rect,2,0,2,0,1
664a4e8f87996f8c08fb3a62,TCN,2024-06-10_15h03.58.266,LearnStrategy,2023.2.3,MacIntel,60.0240096,2,2,4,,,,,,,,3,02,,,,,,,,,,,3,3.69,1,,,,,,0.212037037,-0.266666667,1,0,0,3.69,Diorite_rect,3,0,3,0,1
664a4e8f87996f8c08fb3a62,TCN,2024-06-10_15h03.58.266,LearnStrategy,2023.2.3,MacIntel,60.0240096,2,2,5,,,,,,,,6,11,,,,,,,,,,,6,2.601,1,,,,,,-0.174074074,-0.399074074,1,0,0,2.601,Pegmatite_rect,4,0,4,0,1
664a4e8f87996f8c08fb3a62,TCN,2024-06-10_15h03.58.266,LearnStrategy,2023.2.3,MacIntel,60.0240096,2,2,6,,,,,,,,4,10,,,,,,,,,,,6,0.507,0,,,,,,-0.162037037,-0.39537037,1,0,0,0.507,Pegmatite_rect,5,0,5,0,1
664a4e8f87996f8c08fb3a62,TCN,2024-06-10_15h03.58.266,LearnStrategy,2023.2.3,MacIntel,60.0240096,2,2,7,,,,,,,,7,07,,,,,,,,,,,7,1.012,1,,,,,,0.199074074,-0.399074074,1,0,0,1.012,Peridotite_rect,6,0,6,0,1
664a4e8f87996f8c08fb3a62,TCN,2024-06-10_15h03.58.266,LearnStrategy,2023.2.3,MacIntel,60.0240096,2,2,8,,,,,,,,1,07,,,,,,,,,,,1,4.274,1,,,,,,-0.300925926,-0.231481481,1,0,0,4.274,Andesite_rect,7,0,7,0,1
664a4e8f87996f8c08fb3a62,TCN,2024-06-10_15h03.58.266,LearnStrategy,2023.2.3,MacIntel,60.0240096,2,2,9,,,,,,,,4,11,,,,,,,,,,,2,1.982,0,,,,,,-0.072222222,-0.259259259,1,0,0,1.982,Basalt_rect,8,0,8,0,1
664a4e8f87996f8c08fb3a62,TCN,2024-06-10_15h03.58.266,LearnStrategy,2023.2.3,MacIntel,60.0240096,2,2,10,,,,,,,,2,05,,,,,,,,,,,2,1.961,1,,,,,,-0.068518519,-0.256481481,1,0,0,1.961,Basalt_rect,9,0,9,0,1
664a4e8f87996f8c08fb3a62,TCN,2024-06-10_15h03.58.266,LearnStrategy,2023.2.3,MacIntel,60.0240096,2,2,11,,,,,,,,1,03,,,,,,,,,,,4,1.325,0,,,,,,0.392592593,-0.251851852,1,0,0,1.325,Gabbro_rect,10,0,10,0,1
664a4e8f87996f8c08fb3a62,TCN,2024-06-10_15h03.58.266,LearnStrategy,2023.2.3,MacIntel,60.0240096,2,2,12,,,,,,,,8,10,,,,,,,,,,,7,4.056,0,,,,,,0.038888889,-0.414814815,1,0,0,4.056,Peridotite_rect,11,0,11,0,1
664a4e8f87996f8c08fb3a62,TCN,2024-06-10_15h03.58.266,LearnStrategy,2023.2.3,MacIntel,60.0240096,2,2,13,,,,,,,,5,11,,,,,,,,,,,5,1.601,1,,,,,,-0.351851852,-0.397222222,1,0,0,1.601,Obsidian_rect,12,0,12,0,1
664a4e8f87996f8c08fb3a62,TCN,2024-06-10_15h03.58.266,LearnStrategy,2023.2.3,MacIntel,60.0240096,2,2,14,,,,,,,,8,13,,,,,,,,,,,8,1.491,1,,,,,,0.373148148,-0.410185185,1,0,0,1.491,Pumice_rect,13,0,13,0,1
664a4e8f87996f8c08fb3a62,TCN,2024-06-10_15h03.58.266,LearnStrategy,2023.2.3,MacIntel,60.0240096,2,2,15,,,,,,,,6,12,,,,,,,,,,,1,4.473,0,,,,,,-0.37037037,-0.263888889,1,0,0,4.473,Andesite_rect,14,0,14,0,1
664a4e8f87996f8c08fb3a62,TCN,2024-06-10_15h03.58.266,LearnStrategy,2023.2.3,MacIntel,60.0240096,2,2,16,,,,,,,,2,16,,,,,,,,,,,8,1.581,0,,,,,,0.357407407,-0.413888889,1,0,0,1.581,Pumice_rect,15,0,15,0,1
664a4e8f87996f8c08fb3a62,TCN,2024-06-10_15h03.58.266,LearnStrategy,2023.2.3,MacIntel,60.0240096,3,1,1,0.101851852,-0.007407407,1,0,0,32.761,rock_grid_rect_2,6,06,-1,-1,32.761,-0.423148148,-0.242592593,1,0,0,2.244,Andesite_rect,1,2.244,0,0,0,0,0,1,,,,,,,,,,,,
664a4e8f87996f8c08fb3a62,TCN,2024-06-10_15h03.58.266,LearnStrategy,2023.2.3,MacIntel,60.0240096,3,1,2,0.075,-0.011111111,1,0,0,1.328,rock_grid_rect_2,2,04,-1,-1,1.328,-0.060185185,-0.255555556,1,0,0,1.574,Basalt_rect,2,1.574,1,1,0,1,0,1,,,,,,,,,,,,
664a4e8f87996f8c08fb3a62,TCN,2024-06-10_15h03.58.266,LearnStrategy,2023.2.3,MacIntel,60.0240096,3,1,3,0.038888889,0.000925926,1,0,0,1.391,rock_grid_rect_2,1,01,-1,-1,1.391,0.151851852,-0.241666667,1,0,0,3.132,Diorite_rect,3,3.132,0,2,0,2,0,1,,,,,,,,,,,,
664a4e8f87996f8c08fb3a62,TCN,2024-06-10_15h03.58.266,LearnStrategy,2023.2.3,MacIntel,60.0240096,3,1,4,0.023148148,-0.010185185,1,0,0,1.015,rock_grid_rect_2,1,10,-1,-1,1.015,-0.108333333,-0.381481481,1,0,0,2.077,Pegmatite_rect,6,2.077,0,3,0,3,0,1,,,,,,,,,,,,
664a4e8f87996f8c08fb3a62,TCN,2024-06-10_15h03.58.266,LearnStrategy,2023.2.3,MacIntel,60.0240096,3,1,5,0.056481481,0.006481481,1,0,0,1.313,rock_grid_rect_2,7,13,-1,-1,1.313,0.114814815,-0.39537037,1,0,0,1.577,Peridotite_rect,7,1.577,1,4,0,4,0,1,,,,,,,,,,,,
664a4e8f87996f8c08fb3a62,TCN,2024-06-10_15h03.58.266,LearnStrategy,2023.2.3,MacIntel,60.0240096,3,1,6,0.001851852,-0.001851852,1,0,0,0.997,rock_grid_rect_2,3,13,-1,-1,0.997,-0.315740741,-0.243518519,1,0,0,1.662,Andesite_rect,1,1.662,0,5,0,5,0,1,,,,,,,,,,,,
664a4e8f87996f8c08fb3a62,TCN,2024-06-10_15h03.58.266,LearnStrategy,2023.2.3,MacIntel,60.0240096,3,1,7,0.008333333,-0.006481481,1,0,0,1.163,rock_grid_rect_2,6,16,-1,-1,1.163,-0.077777778,-0.412037037,1,0,0,1.81,Pegmatite_rect,6,1.81,1,6,0,6,0,1,,,,,,,,,,,,
664a4e8f87996f8c08fb3a62,TCN,2024-06-10_15h03.58.266,LearnStrategy,2023.2.3,MacIntel,60.0240096,3,1,8,0.012037037,-0.00462963,1,0,0,1.032,rock_grid_rect_2,7,04,-1,-1,1.032,0.128703704,-0.265740741,1,0,0,2.985,Diorite_rect,3,2.985,0,7,0,7,0,1,,,,,,,,,,,,
664a4e8f87996f8c08fb3a62,TCN,2024-06-10_15h03.58.266,LearnStrategy,2023.2.3,MacIntel,60.0240096,3,1,9,-0.025,0.000925926,1,0,0,1.146,rock_grid_rect_2,8,08,-1,-1,1.146,0.475,-0.417592593,1,0,0,1.377,Pumice_rect,8,1.377,1,8,0,8,0,1,,,,,,,,,,,,
664a4e8f87996f8c08fb3a62,TCN,2024-06-10_15h03.58.266,LearnStrategy,2023.2.3,MacIntel,60.0240096,3,1,10,0.081481481,0.010185185,1,0,0,0.872,rock_grid_rect_2,4,16,-1,-1,0.872,0.467592593,-0.250925926,1,0,0,1.654,Gabbro_rect,4,1.654,1,9,0,9,0,1,,,,,,,,,,,,
664a4e8f87996f8c08fb3a62,TCN,2024-06-10_15h03.58.266,LearnStrategy,2023.2.3,MacIntel,60.0240096,3,1,11,0.016666667,-0.005555556,1,0,0,1.048,rock_grid_rect_2,5,05,-1,-1,1.048,-0.386111111,-0.400925926,1,0,0,2.955,Obsidian_rect,5,2.955,1,10,0,10,0,1,,,,,,,,,,,,
664a4e8f87996f8c08fb3a62,TCN,2024-06-10_15h03.58.266,LearnStrategy,2023.2.3,MacIntel,60.0240096,3,1,12,-0.032407407,-0.014814815,1,0,0,0.979,rock_grid_rect_2,2,14,-1,-1,0.979,0.375,-0.236111111,1,0,0,1.676,Gabbro_rect,4,1.676,0,11,0,11,0,1,,,,,,,,,,,,
664a4e8f87996f8c08fb3a62,TCN,2024-06-10_15h03.58.266,LearnStrategy,2023.2.3,MacIntel,60.0240096,3,1,13,-0.056481481,-0.008333333,1,0,0,1.214,rock_grid_rect_2,5,08,-1,-1,1.214,-0.403703704,-0.390740741,1,0,0,1.093,Obsidian_rect,5,1.093,1,12,0,12,0,1,,,,,,,,,,,,
664a4e8f87996f8c08fb3a62,TCN,2024-06-10_15h03.58.266,LearnStrategy,2023.2.3,MacIntel,60.0240096,3,1,14,-0.000925926,-0.024074074,1,0,0,1.048,rock_grid_rect_2,8,02,-1,-1,1.048,0.398148148,-0.40462963,1,0,0,1.96,Pumice_rect,8,1.96,1,13,0,13,0,1,,,,,,,,,,,,
664a4e8f87996f8c08fb3a62,TCN,2024-06-10_15h03.58.266,LearnStrategy,2023.2.3,MacIntel,60.0240096,3,1,15,0.001851852,-0.010185185,1,0,0,1.046,rock_grid_rect_2,3,16,-1,-1,1.046,0.138888889,-0.258333333,1,0,0,4.364,Diorite_rect,3,4.364,1,14,0,14,0,1,,,,,,,,,,,,
664a4e8f87996f8c08fb3a62,TCN,2024-06-10_15h03.58.266,LearnStrategy,2023.2.3,MacIntel,60.0240096,3,1,16,0.011111111,0.001851852,1,0,0,1.191,rock_grid_rect_2,4,15,-1,-1,1.191,0.402777778,-0.261111111,1,0,0,2.686,Gabbro_rect,4,2.686,1,15,0,15,0,1,,,,,,,,,,,,
664a4e8f87996f8c08fb3a62,TCN,2024-06-10_15h03.58.266,LearnStrategy,2023.2.3,MacIntel,60.0240096,3,2,1,,,,,,,,7,16,,,,,,,,,,,7,1.639,1,,,,,,0.075,-0.393518519,1,0,0,1.639,Peridotite_rect,0,0,0,0,1
664a4e8f87996f8c08fb3a62,TCN,2024-06-10_15h03.58.266,LearnStrategy,2023.2.3,MacIntel,60.0240096,3,2,2,,,,,,,,4,12,,,,,,,,,,,2,1.378,0,,,,,,-0.191666667,-0.24537037,1,0,0,1.378,Basalt_rect,1,0,1,0,1
664a4e8f87996f8c08fb3a62,TCN,2024-06-10_15h03.58.266,LearnStrategy,2023.2.3,MacIntel,60.0240096,3,2,3,,,,,,,,2,01,,,,,,,,,,,2,1.018,1,,,,,,-0.075,-0.25462963,1,0,0,1.018,Basalt_rect,2,0,2,0,1
664a4e8f87996f8c08fb3a62,TCN,2024-06-10_15h03.58.266,LearnStrategy,2023.2.3,MacIntel,60.0240096,3,2,4,,,,,,,,5,04,,,,,,,,,,,5,1.135,1,,,,,,-0.355555556,-0.382407407,1,0,0,1.135,Obsidian_rect,3,0,3,0,1
664a4e8f87996f8c08fb3a62,TCN,2024-06-10_15h03.58.266,LearnStrategy,2023.2.3,MacIntel,60.0240096,3,2,5,,,,,,,,8,15,,,,,,,,,,,8,1.159,1,,,,,,0.37962963,-0.387037037,1,0,0,1.159,Pumice_rect,4,0,4,0,1
664a4e8f87996f8c08fb3a62,TCN,2024-06-10_15h03.58.266,LearnStrategy,2023.2.3,MacIntel,60.0240096,3,2,6,,,,,,,,5,12,,,,,,,,,,,5,1.155,1,,,,,,-0.401851852,-0.402777778,1,0,0,1.155,Obsidian_rect,5,0,5,0,1
664a4e8f87996f8c08fb3a62,TCN,2024-06-10_15h03.58.266,LearnStrategy,2023.2.3,MacIntel,60.0240096,3,2,7,,,,,,,,3,15,,,,,,,,,,,4,2.342,0,,,,,,0.394444444,-0.241666667,1,0,0,2.342,Gabbro_rect,6,0,6,0,1
664a4e8f87996f8c08fb3a62,TCN,2024-06-10_15h03.58.266,LearnStrategy,2023.2.3,MacIntel,60.0240096,3,2,8,,,,,,,,3,07,,,,,,,,,,,3,4.244,1,,,,,,0.122222222,-0.262962963,1,0,0,4.244,Diorite_rect,7,0,7,0,1
664a4e8f87996f8c08fb3a62,TCN,2024-06-10_15h03.58.266,LearnStrategy,2023.2.3,MacIntel,60.0240096,3,2,9,,,,,,,,8,09,,,,,,,,,,,8,2.759,1,,,,,,0.357407407,-0.409259259,1,0,0,2.759,Pumice_rect,8,0,8,0,1
664a4e8f87996f8c08fb3a62,TCN,2024-06-10_15h03.58.266,LearnStrategy,2023.2.3,MacIntel,60.0240096,3,2,10,,,,,,,,7,12,,,,,,,,,,,7,1.423,1,,,,,,0.10462963,-0.40462963,1,0,0,1.423,Peridotite_rect,9,0,9,0,1
664a4e8f87996f8c08fb3a62,TCN,2024-06-10_15h03.58.266,LearnStrategy,2023.2.3,MacIntel,60.0240096,3,2,11,,,,,,,,1,02,,,,,,,,,,,1,2.579,1,,,,,,-0.37962963,-0.255555556,1,0,0,2.579,Andesite_rect,10,0,10,0,1
664a4e8f87996f8c08fb3a62,TCN,2024-06-10_15h03.58.266,LearnStrategy,2023.2.3,MacIntel,60.0240096,3,2,12,,,,,,,,4,01,,,,,,,,,,,7,1.383,0,,,,,,0.17037037,-0.413888889,1,0,0,1.383,Peridotite_rect,11,0,11,0,1
664a4e8f87996f8c08fb3a62,TCN,2024-06-10_15h03.58.266,LearnStrategy,2023.2.3,MacIntel,60.0240096,3,2,13,,,,,,,,6,07,,,,,,,,,,,6,1.719,1,,,,,,-0.114814815,-0.405555556,1,0,0,1.719,Pegmatite_rect,12,0,12,0,1
664a4e8f87996f8c08fb3a62,TCN,2024-06-10_15h03.58.266,LearnStrategy,2023.2.3,MacIntel,60.0240096,3,2,14,,,,,,,,1,06,,,,,,,,,,,1,4.071,1,,,,,,-0.362962963,-0.262037037,1,0,0,4.071,Andesite_rect,13,0,13,0,1
664a4e8f87996f8c08fb3a62,TCN,2024-06-10_15h03.58.266,LearnStrategy,2023.2.3,MacIntel,60.0240096,3,2,15,,,,,,,,6,09,,,,,,,,,,,7,1.443,0,,,,,,0.155555556,-0.406481481,1,0,0,1.443,Peridotite_rect,14,0,14,0,1
664a4e8f87996f8c08fb3a62,TCN,2024-06-10_15h03.58.266,LearnStrategy,2023.2.3,MacIntel,60.0240096,3,2,16,,,,,,,,2,10,,,,,,,,,,,2,1.774,1,,,,,,-0.134259259,-0.257407407,1,0,0,1.774,Basalt_rect,15,0,15,0,1
664a4e8f87996f8c08fb3a62,TCN,2024-06-10_15h03.58.266,LearnStrategy,2023.2.3,MacIntel,60.0240096,4,1,1,0.122222222,0.006481481,1,0,0,1.48,rock_grid_rect_2,4,15,-1,-1,1.48,0.391666667,-0.248148148,1,0,0,2.676,Gabbro_rect,4,2.676,1,0,0,0,0,1,,,,,,,,,,,,
664a4e8f87996f8c08fb3a62,TCN,2024-06-10_15h03.58.266,LearnStrategy,2023.2.3,MacIntel,60.0240096,4,1,2,0.115740741,-0.016666667,1,0,0,0.847,rock_grid_rect_2,3,13,-1,-1,0.847,-0.381481481,-0.24537037,1,0,0,2.092,Andesite_rect,1,2.092,0,1,0,1,0,1,,,,,,,,,,,,
664a4e8f87996f8c08fb3a62,TCN,2024-06-10_15h03.58.266,LearnStrategy,2023.2.3,MacIntel,60.0240096,4,1,3,0.041666667,-0.017592593,1,0,0,1.182,rock_grid_rect_2,8,14,-1,-1,1.182,0.369444444,-0.415740741,1,0,0,1.308,Pumice_rect,8,1.308,1,2,0,2,0,1,,,,,,,,,,,,
664a4e8f87996f8c08fb3a62,TCN,2024-06-10_15h03.58.266,LearnStrategy,2023.2.3,MacIntel,60.0240096,4,1,4,0.060185185,0.006481481,1,0,0,0.929,rock_grid_rect_2,4,13,-1,-1,0.929,0.40462963,-0.239814815,1,0,0,1.627,Gabbro_rect,4,1.627,1,3,0,3,0,1,,,,,,,,,,,,
664a4e8f87996f8c08fb3a62,TCN,2024-06-10_15h03.58.266,LearnStrategy,2023.2.3,MacIntel,60.0240096,4,1,5,0.000925926,-0.012037037,1,0,0,1.03,rock_grid_rect_2,1,16,-1,-1,1.03,-0.330555556,-0.244444444,1,0,0,3.01,Andesite_rect,1,3.01,1,4,0,4,0,1,,,,,,,,,,,,
664a4e8f87996f8c08fb3a62,TCN,2024-06-10_15h03.58.266,LearnStrategy,2023.2.3,MacIntel,60.0240096,4,1,6,0.036111111,-0.000925926,1,0,0,1.143,rock_grid_rect_2,3,11,-1,-1,1.143,0.151851852,-0.251851852,1,0,0,3.89,Diorite_rect,3,3.89,1,5,0,5,0,1,,,,,,,,,,,,
664a4e8f87996f8c08fb3a62,TCN,2024-06-10_15h03.58.266,LearnStrategy,2023.2.3,MacIntel,60.0240096,4,1,7,0.014814815,-0.006481481,1,0,0,1.196,rock_grid_rect_2,1,14,-1,-1,1.196,-0.118518519,-0.39537037,1,0,0,1.778,Pegmatite_rect,6,1.778,0,6,0,6,0,1,,,,,,,,,,,,
664a4e8f87996f8c08fb3a62,TCN,2024-06-10_15h03.58.266,LearnStrategy,2023.2.3,MacIntel,60.0240096,4,1,8,0.014814815,-0.010185185,1,0,0,1.115,rock_grid_rect_2,2,09,-1,-1,1.115,-0.051851852,-0.230555556,1,0,0,1.261,Basalt_rect,2,1.261,1,7,0,7,0,1,,,,,,,,,,,,
664a4e8f87996f8c08fb3a62,TCN,2024-06-10_15h03.58.266,LearnStrategy,2023.2.3,MacIntel,60.0240096,4,1,9,0.019444444,0.021296296,1,0,0,0.947,rock_grid_rect_2,5,16,-1,-1,0.947,-0.39537037,-0.412037037,1,0,0,1.231,Obsidian_rect,5,1.231,1,8,0,8,0,1,,,,,,,,,,,,
664a4e8f87996f8c08fb3a62,TCN,2024-06-10_15h03.58.266,LearnStrategy,2023.2.3,MacIntel,60.0240096,4,1,10,-0.067592593,-0.012962963,1,0,0,0.931,rock_grid_rect_2,8,08,-1,-1,0.931,0.35462963,-0.389814815,1,0,0,1.291,Pumice_rect,8,1.291,1,9,0,9,0,1,,,,,,,,,,,,
664a4e8f87996f8c08fb3a62,TCN,2024-06-10_15h03.58.266,LearnStrategy,2023.2.3,MacIntel,60.0240096,4,1,11,0.005555556,-0.003703704,1,0,0,1.013,rock_grid_rect_2,5,02,-1,-1,1.013,-0.386111111,-0.383333333,1,0,0,1.091,Obsidian_rect,5,1.091,1,10,0,10,0,1,,,,,,,,,,,,
664a4e8f87996f8c08fb3a62,TCN,2024-06-10_15h03.58.266,LearnStrategy,2023.2.3,MacIntel,60.0240096,4,1,12,0.009259259,-0.005555556,1,0,0,0.865,rock_grid_rect_2,2,04,-1,-1,0.865,-0.087037037,-0.246296296,1,0,0,1.46,Basalt_rect,2,1.46,1,11,0,11,0,1,,,,,,,,,,,,
664a4e8f87996f8c08fb3a62,TCN,2024-06-10_15h03.58.266,LearnStrategy,2023.2.3,MacIntel,60.0240096,4,1,13,0.003703704,-0.012962963,1,0,0,1.097,rock_grid_rect_2,7,06,-1,-1,1.097,0.109259259,-0.412037037,1,0,0,1.212,Peridotite_rect,7,1.212,1,12,0,12,0,1,,,,,,,,,,,,
664a4e8f87996f8c08fb3a62,TCN,2024-06-10_15h03.58.266,LearnStrategy,2023.2.3,MacIntel,60.0240096,4,1,14,0.078703704,0.008333333,1,0,0,0.798,rock_grid_rect_2,6,16,-1,-1,0.798,-0.059259259,-0.402777778,1,0,0,1.053,Pegmatite_rect,6,1.053,1,13,0,13,0,1,,,,,,,,,,,,
664a4e8f87996f8c08fb3a62,TCN,2024-06-10_15h03.58.266,LearnStrategy,2023.2.3,MacIntel,60.0240096,4,1,15,0.02037037,-0.013888889,1,0,0,1.007,rock_grid_rect_2,6,05,-1,-1,1.007,-0.090740741,-0.396296296,1,0,0,2.424,Pegmatite_rect,6,2.424,1,14,0,14,0,1,,,,,,,,,,,,
664a4e8f87996f8c08fb3a62,TCN,2024-06-10_15h03.58.266,LearnStrategy,2023.2.3,MacIntel,60.0240096,4,1,16,0.036111111,-0.000925926,1,0,0,0.78,rock_grid_rect_2,7,14,-1,-1,0.78,0.115740741,-0.390740741,1,0,0,2.06,Peridotite_rect,7,2.06,1,15,0,15,0,1,,,,,,,,,,,,
664a4e8f87996f8c08fb3a62,TCN,2024-06-10_15h03.58.266,LearnStrategy,2023.2.3,MacIntel,60.0240096,4,2,1,,,,,,,,1,07,,,,,,,,,,,1,1.939,1,,,,,,-0.338888889,-0.237962963,1,0,0,1.939,Andesite_rect,0,0,0,0,1
664a4e8f87996f8c08fb3a62,TCN,2024-06-10_15h03.58.266,LearnStrategy,2023.2.3,MacIntel,60.0240096,4,2,2,,,,,,,,7,07,,,,,,,,,,,7,1.206,1,,,,,,0.112037037,-0.400925926,1,0,0,1.206,Peridotite_rect,1,0,1,0,1
664a4e8f87996f8c08fb3a62,TCN,2024-06-10_15h03.58.266,LearnStrategy,2023.2.3,MacIntel,60.0240096,4,2,3,,,,,,,,1,09,,,,,,,,,,,1,1.304,1,,,,,,-0.333333333,-0.262962963,1,0,0,1.304,Andesite_rect,2,0,2,0,1
664a4e8f87996f8c08fb3a62,TCN,2024-06-10_15h03.58.266,LearnStrategy,2023.2.3,MacIntel,60.0240096,4,2,4,,,,,,,,7,12,,,,,,,,,,,7,1.392,1,,,,,,0.182407407,-0.408333333,1,0,0,1.392,Peridotite_rect,3,0,3,0,1
664a4e8f87996f8c08fb3a62,TCN,2024-06-10_15h03.58.266,LearnStrategy,2023.2.3,MacIntel,60.0240096,4,2,5,,,,,,,,4,12,,,,,,,,,,,2,1.137,0,,,,,,-0.085185185,-0.263888889,1,0,0,1.137,Basalt_rect,4,0,4,0,1
664a4e8f87996f8c08fb3a62,TCN,2024-06-10_15h03.58.266,LearnStrategy,2023.2.3,MacIntel,60.0240096,4,2,6,,,,,,,,5,14,,,,,,,,,,,5,1.035,1,,,,,,-0.344444444,-0.412037037,1,0,0,1.035,Obsidian_rect,5,0,5,0,1
664a4e8f87996f8c08fb3a62,TCN,2024-06-10_15h03.58.266,LearnStrategy,2023.2.3,MacIntel,60.0240096,4,2,7,,,,,,,,2,05,,,,,,,,,,,2,1.141,1,,,,,,-0.178703704,-0.261111111,1,0,0,1.141,Basalt_rect,6,0,6,0,1
664a4e8f87996f8c08fb3a62,TCN,2024-06-10_15h03.58.266,LearnStrategy,2023.2.3,MacIntel,60.0240096,4,2,8,,,,,,,,4,14,,,,,,,,,,,4,1.245,1,,,,,,0.501851852,-0.234259259,1,0,0,1.245,Gabbro_rect,7,0,7,0,1
664a4e8f87996f8c08fb3a62,TCN,2024-06-10_15h03.58.266,LearnStrategy,2023.2.3,MacIntel,60.0240096,4,2,9,,,,,,,,6,07,,,,,,,,,,,6,1.717,1,,,,,,-0.085185185,-0.398148148,1,0,0,1.717,Pegmatite_rect,8,0,8,0,1
664a4e8f87996f8c08fb3a62,TCN,2024-06-10_15h03.58.266,LearnStrategy,2023.2.3,MacIntel,60.0240096,4,2,10,,,,,,,,3,07,,,,,,,,,,,3,1.545,1,,,,,,0.157407407,-0.260185185,1,0,0,1.545,Diorite_rect,9,0,9,0,1
664a4e8f87996f8c08fb3a62,TCN,2024-06-10_15h03.58.266,LearnStrategy,2023.2.3,MacIntel,60.0240096,4,2,11,,,,,,,,6,11,,,,,,,,,,,6,1.558,1,,,,,,-0.07962963,-0.411111111,1,0,0,1.558,Pegmatite_rect,10,0,10,0,1
664a4e8f87996f8c08fb3a62,TCN,2024-06-10_15h03.58.266,LearnStrategy,2023.2.3,MacIntel,60.0240096,4,2,12,,,,,,,,8,04,,,,,,,,,,,8,2.879,1,,,,,,0.386111111,-0.421296296,1,0,0,2.879,Pumice_rect,11,0,11,0,1
664a4e8f87996f8c08fb3a62,TCN,2024-06-10_15h03.58.266,LearnStrategy,2023.2.3,MacIntel,60.0240096,4,2,13,,,,,,,,3,02,,,,,,,,,,,3,2.804,1,,,,,,0.138888889,-0.248148148,1,0,0,2.804,Diorite_rect,12,0,12,0,1
664a4e8f87996f8c08fb3a62,TCN,2024-06-10_15h03.58.266,LearnStrategy,2023.2.3,MacIntel,60.0240096,4,2,14,,,,,,,,8,10,,,,,,,,,,,6,1.597,0,,,,,,-0.066666667,-0.386111111,1,0,0,1.597,Pegmatite_rect,13,0,13,0,1
664a4e8f87996f8c08fb3a62,TCN,2024-06-10_15h03.58.266,LearnStrategy,2023.2.3,MacIntel,60.0240096,4,2,15,,,,,,,,2,16,,,,,,,,,,,4,2.294,0,,,,,,0.34537037,-0.256481481,1,0,0,2.294,Gabbro_rect,14,0,14,0,1
664a4e8f87996f8c08fb3a62,TCN,2024-06-10_15h03.58.266,LearnStrategy,2023.2.3,MacIntel,60.0240096,4,2,16,,,,,,,,5,11,,,,,,,,,,,5,1.284,1,,,,,,-0.413888889,-0.389814815,1,0,0,1.284,Obsidian_rect,15,0,15,0,1
664a4e8f87996f8c08fb3a62,TCN,2024-06-10_15h03.58.266,LearnStrategy,2023.2.3,MacIntel,60.0240096,5,1,1,0.056481481,-0.019444444,1,0,0,1.479,rock_grid_rect_2,4,16,-1,-1,1.479,0.439814815,-0.244444444,1,0,0,1.625,Gabbro_rect,4,1.625,1,0,0,0,0,1,,,,,,,,,,,,
664a4e8f87996f8c08fb3a62,TCN,2024-06-10_15h03.58.266,LearnStrategy,2023.2.3,MacIntel,60.0240096,5,1,2,0.160185185,-0.012962963,1,0,0,1.715,rock_grid_rect_2,6,10,-1,-1,1.715,0.097222222,-0.402777778,1,0,0,1.676,Peridotite_rect,7,1.676,0,1,0,1,0,1,,,,,,,,,,,,
664a4e8f87996f8c08fb3a62,TCN,2024-06-10_15h03.58.266,LearnStrategy,2023.2.3,MacIntel,60.0240096,5,1,3,0.028703704,-0.015740741,1,0,0,1.247,rock_grid_rect_2,1,10,-1,-1,1.247,-0.321296296,-0.261111111,1,0,0,6.359,Andesite_rect,1,6.359,1,2,0,2,0,1,,,,,,,,,,,,
664a4e8f87996f8c08fb3a62,TCN,2024-06-10_15h03.58.266,LearnStrategy,2023.2.3,MacIntel,60.0240096,5,1,4,0.111111111,0.00462963,1,0,0,1.39,rock_grid_rect_2,8,02,-1,-1,1.39,0.351851852,-0.410185185,1,0,0,1.071,Pumice_rect,8,1.071,1,3,0,3,0,1,,,,,,,,,,,,
664a4e8f87996f8c08fb3a62,TCN,2024-06-10_15h03.58.266,LearnStrategy,2023.2.3,MacIntel,60.0240096,5,1,5,0.021296296,-0.009259259,1,0,0,0.998,rock_grid_rect_2,7,13,-1,-1,0.998,0.082407407,-0.410185185,1,0,0,2.896,Peridotite_rect,7,2.896,1,4,0,4,0,1,,,,,,,,,,,,
664a4e8f87996f8c08fb3a62,TCN,2024-06-10_15h03.58.266,LearnStrategy,2023.2.3,MacIntel,60.0240096,5,1,6,-0.001851852,-0.00462963,1,0,0,0.797,rock_grid_rect_2,1,04,-1,-1,0.797,-0.364814815,-0.239814815,1,0,0,2.193,Andesite_rect,1,2.193,1,5,0,5,0,1,,,,,,,,,,,,
664a4e8f87996f8c08fb3a62,TCN,2024-06-10_15h03.58.266,LearnStrategy,2023.2.3,MacIntel,60.0240096,5,1,7,0.160185185,-0.00462963,1,0,0,1.298,rock_grid_rect_2,6,03,-1,-1,1.298,-0.113888889,-0.405555556,1,0,0,1.56,Pegmatite_rect,6,1.56,1,6,0,6,0,1,,,,,,,,,,,,
664a4e8f87996f8c08fb3a62,TCN,2024-06-10_15h03.58.266,LearnStrategy,2023.2.3,MacIntel,60.0240096,5,1,8,0.032407407,-0.001851852,1,0,0,0.998,rock_grid_rect_2,2,08,-1,-1,0.998,-0.100925926,-0.243518519,1,0,0,2.636,Basalt_rect,2,2.636,1,7,0,7,0,1,,,,,,,,,,,,
664a4e8f87996f8c08fb3a62,TCN,2024-06-10_15h03.58.266,LearnStrategy,2023.2.3,MacIntel,60.0240096,5,1,9,0.044444444,-0.000925926,1,0,0,1.33,rock_grid_rect_2,3,12,-1,-1,1.33,0.112962963,-0.261111111,1,0,0,1.741,Diorite_rect,3,1.741,1,8,0,8,0,1,,,,,,,,,,,,
664a4e8f87996f8c08fb3a62,TCN,2024-06-10_15h03.58.266,LearnStrategy,2023.2.3,MacIntel,60.0240096,5,1,10,0.00462963,-0.005555556,1,0,0,0.879,rock_grid_rect_2,3,09,-1,-1,0.879,0.148148148,-0.25462963,1,0,0,1.094,Diorite_rect,3,1.094,1,9,0,9,0,1,,,,,,,,,,,,
664a4e8f87996f8c08fb3a62,TCN,2024-06-10_15h03.58.266,LearnStrategy,2023.2.3,MacIntel,60.0240096,5,1,11,0.030555556,-0.019444444,1,0,0,1.046,rock_grid_rect_2,4,09,-1,-1,1.046,-0.123148148,-0.237962963,1,0,0,1.986,Basalt_rect,2,1.986,0,10,0,10,0,1,,,,,,,,,,,,
664a4e8f87996f8c08fb3a62,TCN,2024-06-10_15h03.58.266,LearnStrategy,2023.2.3,MacIntel,60.0240096,5,1,12,0.005555556,-0.011111111,1,0,0,1.059,rock_grid_rect_2,7,04,-1,-1,1.059,0.056481481,-0.409259259,1,0,0,2.309,Peridotite_rect,7,2.309,1,11,0,11,0,1,,,,,,,,,,,,
664a4e8f87996f8c08fb3a62,TCN,2024-06-10_15h03.58.266,LearnStrategy,2023.2.3,MacIntel,60.0240096,5,1,13,-0.07037037,0.019444444,1,0,0,0.964,rock_grid_rect_2,8,03,-1,-1,0.964,0.428703704,-0.415740741,1,0,0,1.793,Pumice_rect,8,1.793,1,12,0,12,0,1,,,,,,,,,,,,
664a4e8f87996f8c08fb3a62,TCN,2024-06-10_15h03.58.266,LearnStrategy,2023.2.3,MacIntel,60.0240096,5,1,14,-0.037962963,-0.012037037,1,0,0,0.797,rock_grid_rect_2,5,05,-1,-1,0.797,-0.357407407,-0.403703704,1,0,0,1.192,Obsidian_rect,5,1.192,1,13,0,13,0,1,,,,,,,,,,,,
664a4e8f87996f8c08fb3a62,TCN,2024-06-10_15h03.58.266,LearnStrategy,2023.2.3,MacIntel,60.0240096,5,1,15,0.05,-0.008333333,1,0,0,0.831,rock_grid_rect_2,2,14,-1,-1,0.831,0.363888889,-0.259259259,1,0,0,1.005,Gabbro_rect,4,1.005,0,14,0,14,0,1,,,,,,,,,,,,
664a4e8f87996f8c08fb3a62,TCN,2024-06-10_15h03.58.266,LearnStrategy,2023.2.3,MacIntel,60.0240096,5,1,16,0.012037037,0.00462963,1,0,0,1.163,rock_grid_rect_2,5,08,-1,-1,1.163,-0.369444444,-0.398148148,1,0,0,0.959,Obsidian_rect,5,0.959,1,15,0,15,0,1,,,,,,,,,,,,
664a4e8f87996f8c08fb3a62,TCN,2024-06-10_15h03.58.266,LearnStrategy,2023.2.3,MacIntel,60.0240096,5,2,1,,,,,,,,7,10,,,,,,,,,,,7,2.901,1,,,,,,0.114814815,-0.399074074,1,0,0,2.901,Peridotite_rect,0,0,0,0,1
664a4e8f87996f8c08fb3a62,TCN,2024-06-10_15h03.58.266,LearnStrategy,2023.2.3,MacIntel,60.0240096,5,2,2,,,,,,,,5,12,,,,,,,,,,,5,1.243,1,,,,,,-0.4,-0.406481481,1,0,0,1.243,Obsidian_rect,1,0,1,0,1
664a4e8f87996f8c08fb3a62,TCN,2024-06-10_15h03.58.266,LearnStrategy,2023.2.3,MacIntel,60.0240096,5,2,3,,,,,,,,2,06,,,,,,,,,,,2,1.191,1,,,,,,-0.075925926,-0.259259259,1,0,0,1.191,Basalt_rect,2,0,2,0,1
664a4e8f87996f8c08fb3a62,TCN,2024-06-10_15h03.58.266,LearnStrategy,2023.2.3,MacIntel,60.0240096,5,2,4,,,,,,,,6,08,,,,,,,,,,,6,2.413,1,,,,,,-0.084259259,-0.413888889,1,0,0,2.413,Pegmatite_rect,3,0,3,0,1
664a4e8f87996f8c08fb3a62,TCN,2024-06-10_15h03.58.266,LearnStrategy,2023.2.3,MacIntel,60.0240096,5,2,5,,,,,,,,3,06,,,,,,,,,,,3,1.779,1,,,,,,0.148148148,-0.269444444,1,0,0,1.779,Diorite_rect,4,0,4,0,1
664a4e8f87996f8c08fb3a62,TCN,2024-06-10_15h03.58.266,LearnStrategy,2023.2.3,MacIntel,60.0240096,5,2,6,,,,,,,,1,03,,,,,,,,,,,1,1.207,1,,,,,,-0.387962963,-0.236111111,1,0,0,1.207,Andesite_rect,5,0,5,0,1
664a4e8f87996f8c08fb3a62,TCN,2024-06-10_15h03.58.266,LearnStrategy,2023.2.3,MacIntel,60.0240096,5,2,7,,,,,,,,2,02,,,,,,,,,,,2,1.006,1,,,,,,-0.039814815,-0.251851852,1,0,0,1.006,Basalt_rect,6,0,6,0,1
664a4e8f87996f8c08fb3a62,TCN,2024-06-10_15h03.58.266,LearnStrategy,2023.2.3,MacIntel,60.0240096,5,2,8,,,,,,,,1,06,,,,,,,,,,,1,2.094,1,,,,,,-0.357407407,-0.253703704,1,0,0,2.094,Andesite_rect,7,0,7,0,1
664a4e8f87996f8c08fb3a62,TCN,2024-06-10_15h03.58.266,LearnStrategy,2023.2.3,MacIntel,60.0240096,5,2,9,,,,,,,,8,09,,,,,,,,,,,8,1.142,1,,,,,,0.385185185,-0.391666667,1,0,0,1.142,Pumice_rect,8,0,8,0,1
664a4e8f87996f8c08fb3a62,TCN,2024-06-10_15h03.58.266,LearnStrategy,2023.2.3,MacIntel,60.0240096,5,2,10,,,,,,,,4,01,,,,,,,,,,,7,1.176,0,,,,,,0.062037037,-0.407407407,1,0,0,1.176,Peridotite_rect,9,0,9,0,1
664a4e8f87996f8c08fb3a62,TCN,2024-06-10_15h03.58.266,LearnStrategy,2023.2.3,MacIntel,60.0240096,5,2,11,,,,,,,,3,15,,,,,,,,,,,4,1.81,0,,,,,,0.347222222,-0.262962963,1,0,0,1.81,Gabbro_rect,10,0,10,0,1
664a4e8f87996f8c08fb3a62,TCN,2024-06-10_15h03.58.266,LearnStrategy,2023.2.3,MacIntel,60.0240096,5,2,12,,,,,,,,7,05,,,,,,,,,,,7,1.392,1,,,,,,0.065740741,-0.401851852,1,0,0,1.392,Peridotite_rect,11,0,11,0,1
664a4e8f87996f8c08fb3a62,TCN,2024-06-10_15h03.58.266,LearnStrategy,2023.2.3,MacIntel,60.0240096,5,2,13,,,,,,,,6,13,,,,,,,,,,,6,1.235,1,,,,,,-0.100925926,-0.412037037,1,0,0,1.235,Pegmatite_rect,12,0,12,0,1
664a4e8f87996f8c08fb3a62,TCN,2024-06-10_15h03.58.266,LearnStrategy,2023.2.3,MacIntel,60.0240096,5,2,14,,,,,,,,5,09,,,,,,,,,,,5,1.188,1,,,,,,-0.377777778,-0.406481481,1,0,0,1.188,Obsidian_rect,13,0,13,0,1
664a4e8f87996f8c08fb3a62,TCN,2024-06-10_15h03.58.266,LearnStrategy,2023.2.3,MacIntel,60.0240096,5,2,15,,,,,,,,4,11,,,,,,,,,,,2,1.381,0,,,,,,-0.114814815,-0.241666667,1,0,0,1.381,Basalt_rect,14,0,14,0,1
664a4e8f87996f8c08fb3a62,TCN,2024-06-10_15h03.58.266,LearnStrategy,2023.2.3,MacIntel,60.0240096,5,2,16,,,,,,,,8,15,,,,,,,,,,,8,1.316,1,,,,,,0.42962963,-0.421296296,1,0,0,1.316,Pumice_rect,15,0,15,0,1
664a4e8f87996f8c08fb3a62,TCN,2024-06-10_15h03.58.266,LearnStrategy,2023.2.3,MacIntel,60.0240096,6,1,1,0.143518519,0.021296296,1,0,0,1.398,rock_grid_rect_2,8,16,-1,-1,1.398,0.411111111,-0.391666667,1,0,0,1.24,Pumice_rect,8,1.24,1,0,0,0,0,1,,,,,,,,,,,,
664a4e8f87996f8c08fb3a62,TCN,2024-06-10_15h03.58.266,LearnStrategy,2023.2.3,MacIntel,60.0240096,6,1,2,0.085185185,-0.006481481,1,0,0,0.873,rock_grid_rect_2,7,08,-1,-1,0.873,0.07962963,-0.401851852,1,0,0,0.988,Peridotite_rect,7,0.988,1,1,0,1,0,1,,,,,,,,,,,,
664a4e8f87996f8c08fb3a62,TCN,2024-06-10_15h03.58.266,LearnStrategy,2023.2.3,MacIntel,60.0240096,6,1,3,0.030555556,0.007407407,1,0,0,0.797,rock_grid_rect_2,3,16,-1,-1,0.797,0.162037037,-0.233333333,1,0,0,1.788,Diorite_rect,3,1.788,1,2,0,2,0,1,,,,,,,,,,,,
664a4e8f87996f8c08fb3a62,TCN,2024-06-10_15h03.58.266,LearnStrategy,2023.2.3,MacIntel,60.0240096,6,1,4,-0.009259259,0.006481481,1,0,0,0.763,rock_grid_rect_2,7,02,-1,-1,0.763,0.101851852,-0.392592593,1,0,0,1.292,Peridotite_rect,7,1.292,1,3,0,3,0,1,,,,,,,,,,,,
664a4e8f87996f8c08fb3a62,TCN,2024-06-10_15h03.58.266,LearnStrategy,2023.2.3,MacIntel,60.0240096,6,1,5,-0.002777778,0.005555556,1,0,0,0.712,rock_grid_rect_2,4,05,-1,-1,0.712,0.064814815,-0.394444444,1,0,0,2.009,Peridotite_rect,7,2.009,0,4,0,4,0,1,,,,,,,,,,,,
664a4e8f87996f8c08fb3a62,TCN,2024-06-10_15h03.58.266,LearnStrategy,2023.2.3,MacIntel,60.0240096,6,1,6,0.005555556,-0.010185185,1,0,0,1.129,rock_grid_rect_2,3,10,-1,-1,1.129,0.083333333,-0.248148148,1,0,0,2.235,Diorite_rect,3,2.235,1,5,0,5,0,1,,,,,,,,,,,,
664a4e8f87996f8c08fb3a62,TCN,2024-06-10_15h03.58.266,LearnStrategy,2023.2.3,MacIntel,60.0240096,6,1,7,0.032407407,0.002777778,1,0,0,0.98,rock_grid_rect_2,8,05,-1,-1,0.98,0.341666667,-0.413888889,1,0,0,1.108,Pumice_rect,8,1.108,1,6,0,6,0,1,,,,,,,,,,,,
664a4e8f87996f8c08fb3a62,TCN,2024-06-10_15h03.58.266,LearnStrategy,2023.2.3,MacIntel,60.0240096,6,1,8,0.02962963,-0.003703704,1,0,0,0.831,rock_grid_rect_2,2,12,-1,-1,0.831,0.399074074,-0.413888889,1,0,0,2.218,Pumice_rect,8,2.218,0,7,0,7,0,1,,,,,,,,,,,,
664a4e8f87996f8c08fb3a62,TCN,2024-06-10_15h03.58.266,LearnStrategy,2023.2.3,MacIntel,60.0240096,6,1,9,0.00462963,-0.024074074,1,0,0,0.781,rock_grid_rect_2,1,11,-1,-1,0.781,-0.417592593,-0.250925926,1,0,0,1.31,Andesite_rect,1,1.31,1,8,0,8,0,1,,,,,,,,,,,,
664a4e8f87996f8c08fb3a62,TCN,2024-06-10_15h03.58.266,LearnStrategy,2023.2.3,MacIntel,60.0240096,6,1,10,-0.05462963,-0.002777778,1,0,0,0.813,rock_grid_rect_2,6,06,-1,-1,0.813,-0.176851852,-0.407407407,1,0,0,1.392,Pegmatite_rect,6,1.392,1,9,0,9,0,1,,,,,,,,,,,,
664a4e8f87996f8c08fb3a62,TCN,2024-06-10_15h03.58.266,LearnStrategy,2023.2.3,MacIntel,60.0240096,6,1,11,0.017592593,0.005555556,1,0,0,0.864,rock_grid_rect_2,5,10,-1,-1,0.864,-0.410185185,-0.389814815,1,0,0,0.973,Obsidian_rect,5,0.973,1,10,0,10,0,1,,,,,,,,,,,,
664a4e8f87996f8c08fb3a62,TCN,2024-06-10_15h03.58.266,LearnStrategy,2023.2.3,MacIntel,60.0240096,6,1,12,0.037962963,-0.013888889,1,0,0,1.333,rock_grid_rect_2,4,03,-1,-1,1.333,0.131481481,-0.269444444,1,0,0,2.406,Diorite_rect,3,2.406,0,11,0,11,0,1,,,,,,,,,,,,
664a4e8f87996f8c08fb3a62,TCN,2024-06-10_15h03.58.266,LearnStrategy,2023.2.3,MacIntel,60.0240096,6,1,13,0.023148148,0.012037037,1,0,0,0.993,rock_grid_rect_2,2,11,-1,-1,0.993,0.337037037,-0.412037037,1,0,0,2.313,Pumice_rect,8,2.313,0,12,0,12,0,1,,,,,,,,,,,,
664a4e8f87996f8c08fb3a62,TCN,2024-06-10_15h03.58.266,LearnStrategy,2023.2.3,MacIntel,60.0240096,6,1,14,-0.000925926,0.00462963,1,0,0,16.213,rock_grid_rect_2,6,15,-1,-1,16.213,-0.116666667,-0.40462963,1,0,0,1.743,Pegmatite_rect,6,1.743,1,13,0,13,0,1,,,,,,,,,,,,
664a4e8f87996f8c08fb3a62,TCN,2024-06-10_15h03.58.266,LearnStrategy,2023.2.3,MacIntel,60.0240096,6,1,15,0.100925926,0.008333333,1,0,0,1.28,rock_grid_rect_2,5,07,-1,-1,1.28,-0.45462963,-0.386111111,1,0,0,1.154,Obsidian_rect,5,1.154,1,14,0,14,0,1,,,,,,,,,,,,
664a4e8f87996f8c08fb3a62,TCN,2024-06-10_15h03.58.266,LearnStrategy,2023.2.3,MacIntel,60.0240096,6,1,16,0.026851852,0.001851852,1,0,0,0.978,rock_grid_rect_2,1,01,-1,-1,0.978,-0.398148148,-0.255555556,1,0,0,2.551,Andesite_rect,1,2.551,1,15,0,15,0,1,,,,,,,,,,,,
664a4e8f87996f8c08fb3a62,TCN,2024-06-10_15h03.58.266,LearnStrategy,2023.2.3,MacIntel,60.0240096,6,2,1,,,,,,,,3,14,,,,,,,,,,,3,3.218,1,,,,,,0.074074074,-0.259259259,1,0,0,3.218,Diorite_rect,0,0,0,0,1
664a4e8f87996f8c08fb3a62,TCN,2024-06-10_15h03.58.266,LearnStrategy,2023.2.3,MacIntel,60.0240096,6,2,2,,,,,,,,2,01,,,,,,,,,,,2,1.234,1,,,,,,-0.200925926,-0.260185185,1,0,0,1.234,Basalt_rect,1,0,1,0,1
664a4e8f87996f8c08fb3a62,TCN,2024-06-10_15h03.58.266,LearnStrategy,2023.2.3,MacIntel,60.0240096,6,2,3,,,,,,,,6,09,,,,,,,,,,,7,2.408,0,,,,,,0.141666667,-0.405555556,1,0,0,2.408,Peridotite_rect,2,0,2,0,1
664a4e8f87996f8c08fb3a62,TCN,2024-06-10_15h03.58.266,LearnStrategy,2023.2.3,MacIntel,60.0240096,6,2,4,,,,,,,,6,12,,,,,,,,,,,6,2.429,1,,,,,,-0.088888889,-0.4,1,0,0,2.429,Pegmatite_rect,3,0,3,0,1
664a4e8f87996f8c08fb3a62,TCN,2024-06-10_15h03.58.266,LearnStrategy,2023.2.3,MacIntel,60.0240096,6,2,5,,,,,,,,7,15,,,,,,,,,,,7,1.099,1,,,,,,0.169444444,-0.406481481,1,0,0,1.099,Peridotite_rect,4,0,4,0,1
664a4e8f87996f8c08fb3a62,TCN,2024-06-10_15h03.58.266,LearnStrategy,2023.2.3,MacIntel,60.0240096,6,2,6,,,,,,,,8,13,,,,,,,,,,,8,0.94,1,,,,,,0.325,-0.412037037,1,0,0,0.94,Pumice_rect,5,0,5,0,1
664a4e8f87996f8c08fb3a62,TCN,2024-06-10_15h03.58.266,LearnStrategy,2023.2.3,MacIntel,60.0240096,6,2,7,,,,,,,,3,08,,,,,,,,,,,3,1.44,1,,,,,,0.090740741,-0.233333333,1,0,0,1.44,Diorite_rect,6,0,6,0,1
664a4e8f87996f8c08fb3a62,TCN,2024-06-10_15h03.58.266,LearnStrategy,2023.2.3,MacIntel,60.0240096,6,2,8,,,,,,,,8,06,,,,,,,,,,,8,1.027,1,,,,,,0.351851852,-0.387037037,1,0,0,1.027,Pumice_rect,7,0,7,0,1
664a4e8f87996f8c08fb3a62,TCN,2024-06-10_15h03.58.266,LearnStrategy,2023.2.3,MacIntel,60.0240096,6,2,9,,,,,,,,5,06,,,,,,,,,,,5,1.075,1,,,,,,-0.412037037,-0.392592593,1,0,0,1.075,Obsidian_rect,8,0,8,0,1
664a4e8f87996f8c08fb3a62,TCN,2024-06-10_15h03.58.266,LearnStrategy,2023.2.3,MacIntel,60.0240096,6,2,10,,,,,,,,1,02,,,,,,,,,,,1,1.287,1,,,,,,-0.356481481,-0.262962963,1,0,0,1.287,Andesite_rect,9,0,9,0,1
664a4e8f87996f8c08fb3a62,TCN,2024-06-10_15h03.58.266,LearnStrategy,2023.2.3,MacIntel,60.0240096,6,2,11,,,,,,,,4,10,,,,,,,,,,,4,2.142,1,,,,,,0.391666667,-0.256481481,1,0,0,2.142,Gabbro_rect,10,0,10,0,1
664a4e8f87996f8c08fb3a62,TCN,2024-06-10_15h03.58.266,LearnStrategy,2023.2.3,MacIntel,60.0240096,6,2,12,,,,,,,,5,04,,,,,,,,,,,5,1.121,1,,,,,,-0.399074074,-0.39537037,1,0,0,1.121,Obsidian_rect,11,0,11,0,1
664a4e8f87996f8c08fb3a62,TCN,2024-06-10_15h03.58.266,LearnStrategy,2023.2.3,MacIntel,60.0240096,6,2,13,,,,,,,,7,16,,,,,,,,,,,7,2.056,1,,,,,,0.091666667,-0.401851852,1,0,0,2.056,Peridotite_rect,12,0,12,0,1
664a4e8f87996f8c08fb3a62,TCN,2024-06-10_15h03.58.266,LearnStrategy,2023.2.3,MacIntel,60.0240096,6,2,14,,,,,,,,2,10,,,,,,,,,,,2,2.292,1,,,,,,-0.119444444,-0.260185185,1,0,0,2.292,Basalt_rect,13,0,13,0,1
664a4e8f87996f8c08fb3a62,TCN,2024-06-10_15h03.58.266,LearnStrategy,2023.2.3,MacIntel,60.0240096,6,2,15,,,,,,,,1,05,,,,,,,,,,,6,4.649,0,,,,,,-0.049074074,-0.412962963,1,0,0,4.649,Pegmatite_rect,14,0,14,0,1
664a4e8f87996f8c08fb3a62,TCN,2024-06-10_15h03.58.266,LearnStrategy,2023.2.3,MacIntel,60.0240096,6,2,16,,,,,,,,4,08,,,,,,,,,,,2,4.453,0,,,,,,-0.04537037,-0.261111111,1,0,0,4.453,Basalt_rect,15,0,15,0,1
664a4e8f87996f8c08fb3a62,TCN,2024-06-10_15h03.58.266,LearnStrategy,2023.2.3,MacIntel,60.0240096,7,1,1,0.15462963,0.007407407,1,0,0,1.447,rock_grid_rect_2,5,08,-1,-1,1.447,-0.381481481,-0.400925926,1,0,0,1.324,Obsidian_rect,5,1.324,1,0,0,0,0,1,,,,,,,,,,,,
664a4e8f87996f8c08fb3a62,TCN,2024-06-10_15h03.58.266,LearnStrategy,2023.2.3,MacIntel,60.0240096,7,1,2,-0.057407407,-0.008333333,1,0,0,1.213,rock_grid_rect_2,3,16,-1,-1,1.213,0.12962963,-0.244444444,1,0,0,1.293,Diorite_rect,3,1.293,1,1,0,1,0,1,,,,,,,,,,,,
664a4e8f87996f8c08fb3a62,TCN,2024-06-10_15h03.58.266,LearnStrategy,2023.2.3,MacIntel,60.0240096,7,1,3,0.063888889,-0.000925926,1,0,0,0.748,rock_grid_rect_2,5,05,-1,-1,0.748,-0.496296296,-0.387037037,1,0,0,2.863,Obsidian_rect,5,2.863,1,2,0,2,0,1,,,,,,,,,,,,
664a4e8f87996f8c08fb3a62,TCN,2024-06-10_15h03.58.266,LearnStrategy,2023.2.3,MacIntel,60.0240096,7,1,4,-0.001851852,-0.02037037,1,0,0,0.98,rock_grid_rect_2,3,11,-1,-1,0.98,0.098148148,-0.240740741,1,0,0,1.059,Diorite_rect,3,1.059,1,3,0,3,0,1,,,,,,,,,,,,
664a4e8f87996f8c08fb3a62,TCN,2024-06-10_15h03.58.266,LearnStrategy,2023.2.3,MacIntel,60.0240096,7,1,5,0.017592593,-0.001851852,1,0,0,0.88,rock_grid_rect_2,2,04,-1,-1,0.88,-0.102777778,-0.234259259,1,0,0,1.002,Basalt_rect,2,1.002,1,4,0,4,0,1,,,,,,,,,,,,
664a4e8f87996f8c08fb3a62,TCN,2024-06-10_15h03.58.266,LearnStrategy,2023.2.3,MacIntel,60.0240096,7,1,6,0.008333333,0.014814815,1,0,0,0.714,rock_grid_rect_2,6,03,-1,-1,0.714,-0.062037037,-0.399074074,1,0,0,1.527,Pegmatite_rect,6,1.527,1,5,0,5,0,1,,,,,,,,,,,,
664a4e8f87996f8c08fb3a62,TCN,2024-06-10_15h03.58.266,LearnStrategy,2023.2.3,MacIntel,60.0240096,7,1,7,0.012962963,-0.007407407,1,0,0,1.113,rock_grid_rect_2,8,02,-1,-1,1.113,0.356481481,-0.399074074,1,0,0,1.391,Pumice_rect,8,1.391,1,6,0,6,0,1,,,,,,,,,,,,
664a4e8f87996f8c08fb3a62,TCN,2024-06-10_15h03.58.266,LearnStrategy,2023.2.3,MacIntel,60.0240096,7,1,8,-0.022222222,-0.015740741,1,0,0,0.846,rock_grid_rect_2,2,08,-1,-1,0.846,-0.067592593,-0.251851852,1,0,0,1.175,Basalt_rect,2,1.175,1,7,0,7,0,1,,,,,,,,,,,,
664a4e8f87996f8c08fb3a62,TCN,2024-06-10_15h03.58.266,LearnStrategy,2023.2.3,MacIntel,60.0240096,7,1,9,0.024074074,-0.011111111,1,0,0,1.047,rock_grid_rect_2,1,01,-1,-1,1.047,-0.32037037,-0.256481481,1,0,0,2.482,Andesite_rect,1,2.482,1,8,0,8,0,1,,,,,,,,,,,,
664a4e8f87996f8c08fb3a62,TCN,2024-06-10_15h03.58.266,LearnStrategy,2023.2.3,MacIntel,60.0240096,7,1,10,0.024074074,0.002777778,1,0,0,1.314,rock_grid_rect_2,6,05,-1,-1,1.314,-0.112962963,-0.417592593,1,0,0,1.661,Pegmatite_rect,6,1.661,1,9,0,9,0,1,,,,,,,,,,,,
664a4e8f87996f8c08fb3a62,TCN,2024-06-10_15h03.58.266,LearnStrategy,2023.2.3,MacIntel,60.0240096,7,1,11,-0.027777778,-0.007407407,1,0,0,0.828,rock_grid_rect_2,1,11,-1,-1,0.828,-0.359259259,-0.265740741,1,0,0,1.61,Andesite_rect,1,1.61,1,10,0,10,0,1,,,,,,,,,,,,
664a4e8f87996f8c08fb3a62,TCN,2024-06-10_15h03.58.266,LearnStrategy,2023.2.3,MacIntel,60.0240096,7,1,12,0.030555556,-0.024074074,1,0,0,0.847,rock_grid_rect_2,7,14,-1,-1,0.847,0.116666667,-0.416666667,1,0,0,3.295,Peridotite_rect,7,3.295,1,11,0,11,0,1,,,,,,,,,,,,
664a4e8f87996f8c08fb3a62,TCN,2024-06-10_15h03.58.266,LearnStrategy,2023.2.3,MacIntel,60.0240096,7,1,13,0.026851852,0.002777778,1,0,0,1.128,rock_grid_rect_2,4,05,-1,-1,1.128,0.414814815,-0.236111111,1,0,0,3.245,Gabbro_rect,4,3.245,1,12,0,12,0,1,,,,,,,,,,,,
664a4e8f87996f8c08fb3a62,TCN,2024-06-10_15h03.58.266,LearnStrategy,2023.2.3,MacIntel,60.0240096,7,1,14,0.030555556,-0.013888889,1,0,0,1.463,rock_grid_rect_2,4,09,-1,-1,1.463,0.34537037,-0.248148148,1,0,0,1.71,Gabbro_rect,4,1.71,1,13,0,13,0,1,,,,,,,,,,,,
664a4e8f87996f8c08fb3a62,TCN,2024-06-10_15h03.58.266,LearnStrategy,2023.2.3,MacIntel,60.0240096,7,1,15,0.006481481,-0.007407407,1,0,0,1.047,rock_grid_rect_2,7,04,-1,-1,1.047,0.112962963,-0.402777778,1,0,0,2.077,Peridotite_rect,7,2.077,1,14,0,14,0,1,,,,,,,,,,,,
664a4e8f87996f8c08fb3a62,TCN,2024-06-10_15h03.58.266,LearnStrategy,2023.2.3,MacIntel,60.0240096,7,1,16,-0.011111111,0.024074074,1,0,0,0.847,rock_grid_rect_2,8,14,-1,-1,0.847,0.436111111,-0.396296296,1,0,0,1.108,Pumice_rect,8,1.108,1,15,0,15,0,1,,,,,,,,,,,,
664a4e8f87996f8c08fb3a62,TCN,2024-06-10_15h03.58.266,LearnStrategy,2023.2.3,MacIntel,60.0240096,7,2,1,,,,,,,,2,16,,,,,,,,,,,8,2.932,0,,,,,,0.393518519,-0.412962963,1,0,0,2.932,Pumice_rect,0,0,0,0,1
664a4e8f87996f8c08fb3a62,TCN,2024-06-10_15h03.58.266,LearnStrategy,2023.2.3,MacIntel,60.0240096,7,2,2,,,,,,,,3,06,,,,,,,,,,,3,1.985,1,,,,,,0.116666667,-0.264814815,1,0,0,1.985,Diorite_rect,1,0,1,0,1
664a4e8f87996f8c08fb3a62,TCN,2024-06-10_15h03.58.266,LearnStrategy,2023.2.3,MacIntel,60.0240096,7,2,3,,,,,,,,7,05,,,,,,,,,,,7,1.185,1,,,,,,0.150925926,-0.416666667,1,0,0,1.185,Peridotite_rect,2,0,2,0,1
664a4e8f87996f8c08fb3a62,TCN,2024-06-10_15h03.58.266,LearnStrategy,2023.2.3,MacIntel,60.0240096,7,2,4,,,,,,,,8,09,,,,,,,,,,,8,1.601,1,,,,,,0.343518519,-0.413888889,1,0,0,1.601,Pumice_rect,3,0,3,0,1
664a4e8f87996f8c08fb3a62,TCN,2024-06-10_15h03.58.266,LearnStrategy,2023.2.3,MacIntel,60.0240096,7,2,5,,,,,,,,4,01,,,,,,,,,,,7,2.693,0,,,,,,0.065740741,-0.406481481,1,0,0,2.693,Peridotite_rect,4,0,4,0,1
664a4e8f87996f8c08fb3a62,TCN,2024-06-10_15h03.58.266,LearnStrategy,2023.2.3,MacIntel,60.0240096,7,2,6,,,,,,,,5,11,,,,,,,,,,,5,0.935,1,,,,,,-0.413888889,-0.385185185,1,0,0,0.935,Obsidian_rect,5,0,5,0,1
664a4e8f87996f8c08fb3a62,TCN,2024-06-10_15h03.58.266,LearnStrategy,2023.2.3,MacIntel,60.0240096,7,2,7,,,,,,,,5,06,,,,,,,,,,,5,0.953,1,,,,,,-0.388888889,-0.412962963,1,0,0,0.953,Obsidian_rect,6,0,6,0,1
664a4e8f87996f8c08fb3a62,TCN,2024-06-10_15h03.58.266,LearnStrategy,2023.2.3,MacIntel,60.0240096,7,2,8,,,,,,,,1,05,,,,,,,,,,,7,1.051,0,,,,,,0.211111111,-0.387037037,1,0,0,1.051,Peridotite_rect,7,0,7,0,1
664a4e8f87996f8c08fb3a62,TCN,2024-06-10_15h03.58.266,LearnStrategy,2023.2.3,MacIntel,60.0240096,7,2,9,,,,,,,,3,02,,,,,,,,,,,3,2.002,1,,,,,,0.063888889,-0.264814815,1,0,0,2.002,Diorite_rect,8,0,8,0,1
664a4e8f87996f8c08fb3a62,TCN,2024-06-10_15h03.58.266,LearnStrategy,2023.2.3,MacIntel,60.0240096,7,2,10,,,,,,,,2,02,,,,,,,,,,,2,1.26,1,,,,,,-0.135185185,-0.246296296,1,0,0,1.26,Basalt_rect,9,0,9,0,1
664a4e8f87996f8c08fb3a62,TCN,2024-06-10_15h03.58.266,LearnStrategy,2023.2.3,MacIntel,60.0240096,7,2,11,,,,,,,,4,08,,,,,,,,,,,4,1.618,1,,,,,,0.34537037,-0.236111111,1,0,0,1.618,Gabbro_rect,10,0,10,0,1
664a4e8f87996f8c08fb3a62,TCN,2024-06-10_15h03.58.266,LearnStrategy,2023.2.3,MacIntel,60.0240096,7,2,12,,,,,,,,8,10,,,,,,,,,,,7,3.996,0,,,,,,0.057407407,-0.403703704,1,0,0,3.996,Peridotite_rect,11,0,11,0,1
664a4e8f87996f8c08fb3a62,TCN,2024-06-10_15h03.58.266,LearnStrategy,2023.2.3,MacIntel,60.0240096,7,2,13,,,,,,,,6,08,,,,,,,,,,,6,0.983,1,,,,,,-0.12037037,-0.388888889,1,0,0,0.983,Pegmatite_rect,12,0,12,0,1
664a4e8f87996f8c08fb3a62,TCN,2024-06-10_15h03.58.266,LearnStrategy,2023.2.3,MacIntel,60.0240096,7,2,14,,,,,,,,6,12,,,,,,,,,,,6,1.56,1,,,,,,-0.12037037,-0.388888889,1,0,0,1.56,Pegmatite_rect,13,0,13,0,1
664a4e8f87996f8c08fb3a62,TCN,2024-06-10_15h03.58.266,LearnStrategy,2023.2.3,MacIntel,60.0240096,7,2,15,,,,,,,,1,02,,,,,,,,,,,1,1.355,1,,,,,,-0.391666667,-0.249074074,1,0,0,1.355,Andesite_rect,14,0,14,0,1
664a4e8f87996f8c08fb3a62,TCN,2024-06-10_15h03.58.266,LearnStrategy,2023.2.3,MacIntel,60.0240096,7,2,16,,,,,,,,7,15,,,,,,,,,,,7,1.082,1,,,,,,0.127777778,-0.390740741,1,0,0,1.082,Peridotite_rect,15,0,15,0,1
664a4e8f87996f8c08fb3a62,TCN,2024-06-10_15h03.58.266,LearnStrategy,2023.2.3,MacIntel,60.0240096,8,1,1,-0.026851852,0.000925926,1,0,0,1.398,rock_grid_rect_2,6,10,-1,-1,1.398,-0.112037037,-0.39537037,1,0,0,1.968,Pegmatite_rect,6,1.968,1,0,0,0,0,1,,,,,,,,,,,,
664a4e8f87996f8c08fb3a62,TCN,2024-06-10_15h03.58.266,LearnStrategy,2023.2.3,MacIntel,60.0240096,8,1,2,0.028703704,0.002777778,1,0,0,1.028,rock_grid_rect_2,2,12,-1,-1,1.028,0.386111111,-0.405555556,1,0,0,2.108,Pumice_rect,8,2.108,0,1,0,1,0,1,,,,,,,,,,,,
664a4e8f87996f8c08fb3a62,TCN,2024-06-10_15h03.58.266,LearnStrategy,2023.2.3,MacIntel,60.0240096,8,1,3,0.078703704,0,1,0,0,1.012,rock_grid_rect_2,3,09,-1,-1,1.012,0.151851852,-0.234259259,1,0,0,0.976,Diorite_rect,3,0.976,1,2,0,2,0,1,,,,,,,,,,,,
664a4e8f87996f8c08fb3a62,TCN,2024-06-10_15h03.58.266,LearnStrategy,2023.2.3,MacIntel,60.0240096,8,1,4,0.012037037,-0.001851852,1,0,0,1.031,rock_grid_rect_2,1,16,-1,-1,1.031,0.375925926,-0.268518519,1,0,0,4.203,Gabbro_rect,4,4.203,0,3,0,3,0,1,,,,,,,,,,,,
664a4e8f87996f8c08fb3a62,TCN,2024-06-10_15h03.58.266,LearnStrategy,2023.2.3,MacIntel,60.0240096,8,1,5,-0.015740741,0.007407407,1,0,0,1.099,rock_grid_rect_2,6,15,-1,-1,1.099,-0.073148148,-0.397222222,1,0,0,1.308,Pegmatite_rect,6,1.308,1,4,0,4,0,1,,,,,,,,,,,,
664a4e8f87996f8c08fb3a62,TCN,2024-06-10_15h03.58.266,LearnStrategy,2023.2.3,MacIntel,60.0240096,8,1,6,-0.019444444,-0.018518519,1,0,0,1.097,rock_grid_rect_2,5,16,-1,-1,1.097,-0.403703704,-0.408333333,1,0,0,1.108,Obsidian_rect,5,1.108,1,5,0,5,0,1,,,,,,,,,,,,
664a4e8f87996f8c08fb3a62,TCN,2024-06-10_15h03.58.266,LearnStrategy,2023.2.3,MacIntel,60.0240096,8,1,7,0.025925926,-0.015740741,1,0,0,1.114,rock_grid_rect_2,7,08,-1,-1,1.114,0.124074074,-0.421296296,1,0,0,1.205,Peridotite_rect,7,1.205,1,6,0,6,0,1,,,,,,,,,,,,
664a4e8f87996f8c08fb3a62,TCN,2024-06-10_15h03.58.266,LearnStrategy,2023.2.3,MacIntel,60.0240096,8,1,8,0.025925926,-0.006481481,1,0,0,0.997,rock_grid_rect_2,4,16,-1,-1,0.997,0.347222222,-0.247222222,1,0,0,1.361,Gabbro_rect,4,1.361,1,7,0,7,0,1,,,,,,,,,,,,
664a4e8f87996f8c08fb3a62,TCN,2024-06-10_15h03.58.266,LearnStrategy,2023.2.3,MacIntel,60.0240096,8,1,9,-0.008333333,0.017592593,1,0,0,0.831,rock_grid_rect_2,8,05,-1,-1,0.831,0.333333333,-0.409259259,1,0,0,1.225,Pumice_rect,8,1.225,1,8,0,8,0,1,,,,,,,,,,,,
664a4e8f87996f8c08fb3a62,TCN,2024-06-10_15h03.58.266,LearnStrategy,2023.2.3,MacIntel,60.0240096,8,1,10,0.007407407,-0.003703704,1,0,0,0.982,rock_grid_rect_2,4,13,-1,-1,0.982,0.353703704,-0.244444444,1,0,0,1.557,Gabbro_rect,4,1.557,1,9,0,9,0,1,,,,,,,,,,,,
664a4e8f87996f8c08fb3a62,TCN,2024-06-10_15h03.58.266,LearnStrategy,2023.2.3,MacIntel,60.0240096,8,1,11,0.019444444,-0.019444444,1,0,0,0.877,rock_grid_rect_2,8,03,-1,-1,0.877,0.384259259,-0.406481481,1,0,0,1.137,Pumice_rect,8,1.137,1,10,0,10,0,1,,,,,,,,,,,,
664a4e8f87996f8c08fb3a62,TCN,2024-06-10_15h03.58.266,LearnStrategy,2023.2.3,MacIntel,60.0240096,8,1,12,0.018518519,-0.013888889,1,0,0,1.047,rock_grid_rect_2,2,09,-1,-1,1.047,-0.081481481,-0.251851852,1,0,0,1.12,Basalt_rect,2,1.12,1,11,0,11,0,1,,,,,,,,,,,,
664a4e8f87996f8c08fb3a62,TCN,2024-06-10_15h03.58.266,LearnStrategy,2023.2.3,MacIntel,60.0240096,8,1,13,-0.011111111,-0.001851852,1,0,0,0.831,rock_grid_rect_2,3,10,-1,-1,0.831,0.157407407,-0.268518519,1,0,0,3.374,Diorite_rect,3,3.374,1,12,0,12,0,1,,,,,,,,,,,,
664a4e8f87996f8c08fb3a62,TCN,2024-06-10_15h03.58.266,LearnStrategy,2023.2.3,MacIntel,60.0240096,8,1,14,0.021296296,0.002777778,1,0,0,1.08,rock_grid_rect_2,7,02,-1,-1,1.08,0.153703704,-0.37962963,1,0,0,1.227,Peridotite_rect,7,1.227,1,13,0,13,0,1,,,,,,,,,,,,
664a4e8f87996f8c08fb3a62,TCN,2024-06-10_15h03.58.266,LearnStrategy,2023.2.3,MacIntel,60.0240096,8,1,15,0.036111111,-0.007407407,1,0,0,1.114,rock_grid_rect_2,1,14,-1,-1,1.114,-0.087962963,-0.421296296,1,0,0,1.66,Pegmatite_rect,6,1.66,0,14,0,14,0,1,,,,,,,,,,,,
664a4e8f87996f8c08fb3a62,TCN,2024-06-10_15h03.58.266,LearnStrategy,2023.2.3,MacIntel,60.0240096,8,1,16,-0.036111111,-0.012037037,1,0,0,1.264,rock_grid_rect_2,5,02,-1,-1,1.264,-0.384259259,-0.411111111,1,0,0,1.343,Obsidian_rect,5,1.343,1,15,0,15,0,1,,,,,,,,,,,,
664a4e8f87996f8c08fb3a62,TCN,2024-06-10_15h03.58.266,LearnStrategy,2023.2.3,MacIntel,60.0240096,8,2,1,,,,,,,,7,10,,,,,,,,,,,7,1.333,1,,,,,,0.114814815,-0.386111111,1,0,0,1.333,Peridotite_rect,0,0,0,0,1
664a4e8f87996f8c08fb3a62,TCN,2024-06-10_15h03.58.266,LearnStrategy,2023.2.3,MacIntel,60.0240096,8,2,2,,,,,,,,1,06,,,,,,,,,,,1,1.213,1,,,,,,-0.365740741,-0.259259259,1,0,0,1.213,Andesite_rect,1,0,1,0,1
664a4e8f87996f8c08fb3a62,TCN,2024-06-10_15h03.58.266,LearnStrategy,2023.2.3,MacIntel,60.0240096,8,2,3,,,,,,,,5,14,,,,,,,,,,,5,1.156,1,,,,,,-0.356481481,-0.399074074,1,0,0,1.156,Obsidian_rect,2,0,2,0,1
664a4e8f87996f8c08fb3a62,TCN,2024-06-10_15h03.58.266,LearnStrategy,2023.2.3,MacIntel,60.0240096,8,2,4,,,,,,,,3,15,,,,,,,,,,,3,1.303,1,,,,,,0.14537037,-0.260185185,1,0,0,1.303,Diorite_rect,3,0,3,0,1
664a4e8f87996f8c08fb3a62,TCN,2024-06-10_15h03.58.266,LearnStrategy,2023.2.3,MacIntel,60.0240096,8,2,5,,,,,,,,2,01,,,,,,,,,,,2,1.149,1,,,,,,-0.108333333,-0.260185185,1,0,0,1.149,Basalt_rect,4,0,4,0,1
664a4e8f87996f8c08fb3a62,TCN,2024-06-10_15h03.58.266,LearnStrategy,2023.2.3,MacIntel,60.0240096,8,2,6,,,,,,,,2,06,,,,,,,,,,,2,2.608,1,,,,,,-0.10462963,-0.255555556,1,0,0,2.608,Basalt_rect,5,0,5,0,1
664a4e8f87996f8c08fb3a62,TCN,2024-06-10_15h03.58.266,LearnStrategy,2023.2.3,MacIntel,60.0240096,8,2,7,,,,,,,,3,07,,,,,,,,,,,3,3.885,1,,,,,,0.144444444,-0.24537037,1,0,0,3.885,Diorite_rect,6,0,6,0,1
664a4e8f87996f8c08fb3a62,TCN,2024-06-10_15h03.58.266,LearnStrategy,2023.2.3,MacIntel,60.0240096,8,2,8,,,,,,,,8,04,,,,,,,,,,,8,1.141,1,,,,,,0.349074074,-0.414814815,1,0,0,1.141,Pumice_rect,7,0,7,0,1
664a4e8f87996f8c08fb3a62,TCN,2024-06-10_15h03.58.266,LearnStrategy,2023.2.3,MacIntel,60.0240096,8,2,9,,,,,,,,1,07,,,,,,,,,,,1,1.45,1,,,,,,-0.394444444,-0.232407407,1,0,0,1.45,Andesite_rect,8,0,8,0,1
664a4e8f87996f8c08fb3a62,TCN,2024-06-10_15h03.58.266,LearnStrategy,2023.2.3,MacIntel,60.0240096,8,2,10,,,,,,,,6,13,,,,,,,,,,,6,1.296,1,,,,,,-0.131481481,-0.403703704,1,0,0,1.296,Pegmatite_rect,9,0,9,0,1
664a4e8f87996f8c08fb3a62,TCN,2024-06-10_15h03.58.266,LearnStrategy,2023.2.3,MacIntel,60.0240096,8,2,11,,,,,,,,4,10,,,,,,,,,,,4,1.136,1,,,,,,0.439814815,-0.260185185,1,0,0,1.136,Gabbro_rect,10,0,10,0,1
664a4e8f87996f8c08fb3a62,TCN,2024-06-10_15h03.58.266,LearnStrategy,2023.2.3,MacIntel,60.0240096,8,2,12,,,,,,,,5,09,,,,,,,,,,,5,1.119,1,,,,,,-0.348148148,-0.400925926,1,0,0,1.119,Obsidian_rect,11,0,11,0,1
664a4e8f87996f8c08fb3a62,TCN,2024-06-10_15h03.58.266,LearnStrategy,2023.2.3,MacIntel,60.0240096,8,2,13,,,,,,,,4,12,,,,,,,,,,,2,2.934,0,,,,,,-0.05,-0.258333333,1,0,0,2.934,Basalt_rect,12,0,12,0,1
664a4e8f87996f8c08fb3a62,TCN,2024-06-10_15h03.58.266,LearnStrategy,2023.2.3,MacIntel,60.0240096,8,2,14,,,,,,,,8,13,,,,,,,,,,,8,1.201,1,,,,,,0.383333333,-0.414814815,1,0,0,1.201,Pumice_rect,13,0,13,0,1
664a4e8f87996f8c08fb3a62,TCN,2024-06-10_15h03.58.266,LearnStrategy,2023.2.3,MacIntel,60.0240096,8,2,15,,,,,,,,6,07,,,,,,,,,,,6,1.751,1,,,,,,-0.07962963,-0.4,1,0,0,1.751,Pegmatite_rect,14,0,14,0,1
664a4e8f87996f8c08fb3a62,TCN,2024-06-10_15h03.58.266,LearnStrategy,2023.2.3,MacIntel,60.0240096,8,2,16,,,,,,,,7,16,,,,,,,,,,,7,1.805,1,,,,,,0.148148148,-0.412962963,1,0,0,1.805,Peridotite_rect,15,0,15,0,1
664a4e8f87996f8c08fb3a62,TCN,2024-06-10_15h03.58.266,LearnStrategy,2023.2.3,MacIntel,60.0240096,9,1,1,0.062962963,-0.010185185,1,0,0,2.181,rock_grid_rect_2,8,16,-1,-1,2.181,0.356481481,-0.412962963,1,0,0,1.587,Pumice_rect,8,1.587,1,0,0,0,0,1,,,,,,,,,,,,
664a4e8f87996f8c08fb3a62,TCN,2024-06-10_15h03.58.266,LearnStrategy,2023.2.3,MacIntel,60.0240096,9,1,2,0.016666667,0.00462963,1,0,0,1.179,rock_grid_rect_2,6,06,-1,-1,1.179,-0.144444444,-0.419444444,1,0,0,2.571,Pegmatite_rect,6,2.571,1,1,0,1,0,1,,,,,,,,,,,,
664a4e8f87996f8c08fb3a62,TCN,2024-06-10_15h03.58.266,LearnStrategy,2023.2.3,MacIntel,60.0240096,9,1,3,0.017592593,0.014814815,1,0,0,1.081,rock_grid_rect_2,4,15,-1,-1,1.081,0.360185185,-0.237962963,1,0,0,1.258,Gabbro_rect,4,1.258,1,2,0,2,0,1,,,,,,,,,,,,
664a4e8f87996f8c08fb3a62,TCN,2024-06-10_15h03.58.266,LearnStrategy,2023.2.3,MacIntel,60.0240096,9,1,4,0.047222222,-0.003703704,1,0,0,1.098,rock_grid_rect_2,5,10,-1,-1,1.098,-0.421296296,-0.405555556,1,0,0,0.961,Obsidian_rect,5,0.961,1,3,0,3,0,1,,,,,,,,,,,,
664a4e8f87996f8c08fb3a62,TCN,2024-06-10_15h03.58.266,LearnStrategy,2023.2.3,MacIntel,60.0240096,9,1,5,0.000925926,0.005555556,1,0,0,1.096,rock_grid_rect_2,1,04,-1,-1,1.096,-0.422222222,-0.257407407,1,0,0,1.423,Andesite_rect,1,1.423,1,4,0,4,0,1,,,,,,,,,,,,
664a4e8f87996f8c08fb3a62,TCN,2024-06-10_15h03.58.266,LearnStrategy,2023.2.3,MacIntel,60.0240096,9,1,6,0.034259259,-0.001851852,1,0,0,0.862,rock_grid_rect_2,5,07,-1,-1,0.862,-0.357407407,-0.392592593,1,0,0,1.191,Obsidian_rect,5,1.191,1,5,0,5,0,1,,,,,,,,,,,,
664a4e8f87996f8c08fb3a62,TCN,2024-06-10_15h03.58.266,LearnStrategy,2023.2.3,MacIntel,60.0240096,9,1,7,0.012962963,0.003703704,1,0,0,0.898,rock_grid_rect_2,1,10,-1,-1,0.898,-0.098148148,-0.260185185,1,0,0,1.481,Basalt_rect,2,1.481,0,6,0,6,0,1,,,,,,,,,,,,
664a4e8f87996f8c08fb3a62,TCN,2024-06-10_15h03.58.266,LearnStrategy,2023.2.3,MacIntel,60.0240096,9,1,8,0.013888889,0.007407407,1,0,0,0.981,rock_grid_rect_2,7,06,-1,-1,0.981,0.114814815,-0.410185185,1,0,0,1.328,Peridotite_rect,7,1.328,1,7,0,7,0,1,,,,,,,,,,,,
664a4e8f87996f8c08fb3a62,TCN,2024-06-10_15h03.58.266,LearnStrategy,2023.2.3,MacIntel,60.0240096,9,1,9,0.005555556,-0.008333333,1,0,0,1.047,rock_grid_rect_2,2,14,-1,-1,1.047,0.389814815,-0.253703704,1,0,0,1.409,Gabbro_rect,4,1.409,0,8,0,8,0,1,,,,,,,,,,,,
664a4e8f87996f8c08fb3a62,TCN,2024-06-10_15h03.58.266,LearnStrategy,2023.2.3,MacIntel,60.0240096,9,1,10,0.006481481,-0.022222222,1,0,0,1.257,rock_grid_rect_2,7,13,-1,-1,1.257,0.143518519,-0.417592593,1,0,0,1.303,Peridotite_rect,7,1.303,1,9,0,9,0,1,,,,,,,,,,,,
664a4e8f87996f8c08fb3a62,TCN,2024-06-10_15h03.58.266,LearnStrategy,2023.2.3,MacIntel,60.0240096,9,1,11,0.062037037,-0.00462963,1,0,0,1.763,rock_grid_rect_2,4,03,-1,-1,1.763,0.152777778,-0.253703704,1,0,0,3.179,Diorite_rect,3,3.179,0,10,0,10,0,1,,,,,,,,,,,,
664a4e8f87996f8c08fb3a62,TCN,2024-06-10_15h03.58.266,LearnStrategy,2023.2.3,MacIntel,60.0240096,9,1,12,0.07037037,-0.006481481,1,0,0,0.847,rock_grid_rect_2,2,11,-1,-1,0.847,0.394444444,-0.417592593,1,0,0,1.943,Pumice_rect,8,1.943,0,11,0,11,0,1,,,,,,,,,,,,
664a4e8f87996f8c08fb3a62,TCN,2024-06-10_15h03.58.266,LearnStrategy,2023.2.3,MacIntel,60.0240096,9,1,13,0.024074074,0.000925926,1,0,0,1.081,rock_grid_rect_2,3,12,-1,-1,1.081,0.12037037,-0.258333333,1,0,0,1.11,Diorite_rect,3,1.11,1,12,0,12,0,1,,,,,,,,,,,,
664a4e8f87996f8c08fb3a62,TCN,2024-06-10_15h03.58.266,LearnStrategy,2023.2.3,MacIntel,60.0240096,9,1,14,0.014814815,-0.010185185,1,0,0,1.065,rock_grid_rect_2,3,13,-1,-1,1.065,0.106481481,-0.240740741,1,0,0,1.122,Diorite_rect,3,1.122,1,13,0,13,0,1,,,,,,,,,,,,
664a4e8f87996f8c08fb3a62,TCN,2024-06-10_15h03.58.266,LearnStrategy,2023.2.3,MacIntel,60.0240096,9,1,15,0.013888889,0.003703704,1,0,0,0.88,rock_grid_rect_2,6,16,-1,-1,0.88,-0.083333333,-0.403703704,1,0,0,1.343,Pegmatite_rect,6,1.343,1,14,0,14,0,1,,,,,,,,,,,,
664a4e8f87996f8c08fb3a62,TCN,2024-06-10_15h03.58.266,LearnStrategy,2023.2.3,MacIntel,60.0240096,9,1,16,0.02037037,0.005555556,1,0,0,0.98,rock_grid_rect_2,8,08,-1,-1,0.98,0.422222222,-0.416666667,1,0,0,1.011,Pumice_rect,8,1.011,1,15,0,15,0,1,,,,,,,,,,,,
664a4e8f87996f8c08fb3a62,TCN,2024-06-10_15h03.58.266,LearnStrategy,2023.2.3,MacIntel,60.0240096,9,2,1,,,,,,,,8,15,,,,,,,,,,,8,1.15,1,,,,,,0.350925926,-0.4,1,0,0,1.15,Pumice_rect,0,0,0,0,1
664a4e8f87996f8c08fb3a62,TCN,2024-06-10_15h03.58.266,LearnStrategy,2023.2.3,MacIntel,60.0240096,9,2,2,,,,,,,,6,11,,,,,,,,,,,6,1.063,1,,,,,,-0.130555556,-0.40462963,1,0,0,1.063,Pegmatite_rect,1,0,1,0,1
664a4e8f87996f8c08fb3a62,TCN,2024-06-10_15h03.58.266,LearnStrategy,2023.2.3,MacIntel,60.0240096,9,2,3,,,,,,,,7,07,,,,,,,,,,,7,1.185,1,,,,,,0.186111111,-0.394444444,1,0,0,1.185,Peridotite_rect,2,0,2,0,1
664a4e8f87996f8c08fb3a62,TCN,2024-06-10_15h03.58.266,LearnStrategy,2023.2.3,MacIntel,60.0240096,9,2,4,,,,,,,,1,03,,,,,,,,,,,1,1.475,1,,,,,,-0.364814815,-0.234259259,1,0,0,1.475,Andesite_rect,3,0,3,0,1
664a4e8f87996f8c08fb3a62,TCN,2024-06-10_15h03.58.266,LearnStrategy,2023.2.3,MacIntel,60.0240096,9,2,5,,,,,,,,3,14,,,,,,,,,,,3,1.084,1,,,,,,0.1,-0.246296296,1,0,0,1.084,Diorite_rect,4,0,4,0,1
664a4e8f87996f8c08fb3a62,TCN,2024-06-10_15h03.58.266,LearnStrategy,2023.2.3,MacIntel,60.0240096,9,2,6,,,,,,,,2,05,,,,,,,,,,,2,1.124,1,,,,,,-0.105555556,-0.243518519,1,0,0,1.124,Basalt_rect,5,0,5,0,1
664a4e8f87996f8c08fb3a62,TCN,2024-06-10_15h03.58.266,LearnStrategy,2023.2.3,MacIntel,60.0240096,9,2,7,,,,,,,,1,09,,,,,,,,,,,1,1.443,1,,,,,,-0.312962963,-0.235185185,1,0,0,1.443,Andesite_rect,6,0,6,0,1
664a4e8f87996f8c08fb3a62,TCN,2024-06-10_15h03.58.266,LearnStrategy,2023.2.3,MacIntel,60.0240096,9,2,8,,,,,,,,7,12,,,,,,,,,,,7,1.166,1,,,,,,0.124074074,-0.4,1,0,0,1.166,Peridotite_rect,7,0,7,0,1
664a4e8f87996f8c08fb3a62,TCN,2024-06-10_15h03.58.266,LearnStrategy,2023.2.3,MacIntel,60.0240096,9,2,9,,,,,,,,5,04,,,,,,,,,,,5,1.26,1,,,,,,-0.351851852,-0.383333333,1,0,0,1.26,Obsidian_rect,8,0,8,0,1
664a4e8f87996f8c08fb3a62,TCN,2024-06-10_15h03.58.266,LearnStrategy,2023.2.3,MacIntel,60.0240096,9,2,10,,,,,,,,5,12,,,,,,,,,,,5,1.433,1,,,,,,-0.382407407,-0.412962963,1,0,0,1.433,Obsidian_rect,9,0,9,0,1
664a4e8f87996f8c08fb3a62,TCN,2024-06-10_15h03.58.266,LearnStrategy,2023.2.3,MacIntel,60.0240096,9,2,11,,,,,,,,3,08,,,,,,,,,,,3,1.399,1,,,,,,0.152777778,-0.230555556,1,0,0,1.399,Diorite_rect,10,0,10,0,1
664a4e8f87996f8c08fb3a62,TCN,2024-06-10_15h03.58.266,LearnStrategy,2023.2.3,MacIntel,60.0240096,9,2,12,,,,,,,,4,11,,,,,,,,,,,4,3.456,1,,,,,,0.358333333,-0.250925926,1,0,0,3.456,Gabbro_rect,11,0,11,0,1
664a4e8f87996f8c08fb3a62,TCN,2024-06-10_15h03.58.266,LearnStrategy,2023.2.3,MacIntel,60.0240096,9,2,13,,,,,,,,2,10,,,,,,,,,,,2,2.686,1,,,,,,-0.066666667,-0.246296296,1,0,0,2.686,Basalt_rect,12,0,12,0,1
664a4e8f87996f8c08fb3a62,TCN,2024-06-10_15h03.58.266,LearnStrategy,2023.2.3,MacIntel,60.0240096,9,2,14,,,,,,,,6,09,,,,,,,,,,,6,2.009,1,,,,,,-0.147222222,-0.406481481,1,0,0,2.009,Pegmatite_rect,13,0,13,0,1
664a4e8f87996f8c08fb3a62,TCN,2024-06-10_15h03.58.266,LearnStrategy,2023.2.3,MacIntel,60.0240096,9,2,15,,,,,,,,8,06,,,,,,,,,,,8,1.552,1,,,,,,0.375925926,-0.409259259,1,0,0,1.552,Pumice_rect,14,0,14,0,1
664a4e8f87996f8c08fb3a62,TCN,2024-06-10_15h03.58.266,LearnStrategy,2023.2.3,MacIntel,60.0240096,9,2,16,,,,,,,,4,14,,,,,,,,,,,4,3.118,1,,,,,,0.371296296,-0.264814815,1,0,0,3.118,Gabbro_rect,15,0,15,0,1
664a4e8f87996f8c08fb3a62,TCN,2024-06-10_15h03.58.266,LearnStrategy,2023.2.3,MacIntel,60.0240096,,,,,,,,,,,,,,,,,,,,,,,,,,,,,,,,,,,,,,,,,,
664a4e8f87996f8c08fb3a62,TCN,2024-06-10_15h03.58.266,LearnStrategy,2023.2.3,MacIntel,60.0240096,,,,,,,,,,,,,,,,,,,,,,,,,,,,,,,,,,,,,,,,,,
664a4e8f87996f8c08fb3a62,TCN,2024-06-10_15h03.58.266,LearnStrategy,2023.2.3,MacIntel,60.0240096,,,,,,,,,,,7,04,1,1,,,,,,,,,,,,,,,,,,,,,,,,,,,,
664a4e8f87996f8c08fb3a62,TCN,2024-06-10_15h03.58.266,LearnStrategy,2023.2.3,MacIntel,60.0240096,,,,,,,,,,,5,07,1,2,,,,,,,,,,,,,,,,,,,,,,,,,,,,
664a4e8f87996f8c08fb3a62,TCN,2024-06-10_15h03.58.266,LearnStrategy,2023.2.3,MacIntel,60.0240096,,,,,,,,,,,5,16,1,3,,,,,,,,,,,,,,,,,,,,,,,,,,,,
664a4e8f87996f8c08fb3a62,TCN,2024-06-10_15h03.58.266,LearnStrategy,2023.2.3,MacIntel,60.0240096,,,,,,,,,,,2,12,1,4,,,,,,,,,,,,,,,,,,,,,,,,,,,,
664a4e8f87996f8c08fb3a62,TCN,2024-06-10_15h03.58.266,LearnStrategy,2023.2.3,MacIntel,60.0240096,,,,,,,,,,,8,05,1,5,,,,,,,,,,,,,,,,,,,,,,,,,,,,
664a4e8f87996f8c08fb3a62,TCN,2024-06-10_15h03.58.266,LearnStrategy,2023.2.3,MacIntel,60.0240096,,,,,,,,,,,3,13,1,6,,,,,,,,,,,,,,,,,,,,,,,,,,,,
664a4e8f87996f8c08fb3a62,TCN,2024-06-10_15h03.58.266,LearnStrategy,2023.2.3,MacIntel,60.0240096,,,,,,,,,,,8,03,1,7,,,,,,,,,,,,,,,,,,,,,,,,,,,,
664a4e8f87996f8c08fb3a62,TCN,2024-06-10_15h03.58.266,LearnStrategy,2023.2.3,MacIntel,60.0240096,,,,,,,,,,,3,09,1,8,,,,,,,,,,,,,,,,,,,,,,,,,,,,
664a4e8f87996f8c08fb3a62,TCN,2024-06-10_15h03.58.266,LearnStrategy,2023.2.3,MacIntel,60.0240096,,,,,,,,,,,8,02,2,1,,,,,,,,,,,,,,,,,,,,,,,,,,,,
664a4e8f87996f8c08fb3a62,TCN,2024-06-10_15h03.58.266,LearnStrategy,2023.2.3,MacIntel,60.0240096,,,,,,,,,,,2,14,2,2,,,,,,,,,,,,,,,,,,,,,,,,,,,,
664a4e8f87996f8c08fb3a62,TCN,2024-06-10_15h03.58.266,LearnStrategy,2023.2.3,MacIntel,60.0240096,,,,,,,,,,,3,11,2,3,,,,,,,,,,,,,,,,,,,,,,,,,,,,
664a4e8f87996f8c08fb3a62,TCN,2024-06-10_15h03.58.266,LearnStrategy,2023.2.3,MacIntel,60.0240096,,,,,,,,,,,7,08,2,4,,,,,,,,,,,,,,,,,,,,,,,,,,,,
664a4e8f87996f8c08fb3a62,TCN,2024-06-10_15h03.58.266,LearnStrategy,2023.2.3,MacIntel,60.0240096,,,,,,,,,,,3,12,2,5,,,,,,,,,,,,,,,,,,,,,,,,,,,,
664a4e8f87996f8c08fb3a62,TCN,2024-06-10_15h03.58.266,LearnStrategy,2023.2.3,MacIntel,60.0240096,,,,,,,,,,,1,01,2,6,,,,,,,,,,,,,,,,,,,,,,,,,,,,
664a4e8f87996f8c08fb3a62,TCN,2024-06-10_15h03.58.266,LearnStrategy,2023.2.3,MacIntel,60.0240096,,,,,,,,,,,3,10,2,7,,,,,,,,,,,,,,,,,,,,,,,,,,,,
664a4e8f87996f8c08fb3a62,TCN,2024-06-10_15h03.58.266,LearnStrategy,2023.2.3,MacIntel,60.0240096,,,,,,,,,,,5,10,2,8,,,,,,,,,,,,,,,,,,,,,,,,,,,,
664a4e8f87996f8c08fb3a62,TCN,2024-06-10_15h03.58.266,LearnStrategy,2023.2.3,MacIntel,60.0240096,,,,,,,,,,,1,14,3,1,,,,,,,,,,,,,,,,,,,,,,,,,,,,
664a4e8f87996f8c08fb3a62,TCN,2024-06-10_15h03.58.266,LearnStrategy,2023.2.3,MacIntel,60.0240096,,,,,,,,,,,6,06,3,2,,,,,,,,,,,,,,,,,,,,,,,,,,,,
664a4e8f87996f8c08fb3a62,TCN,2024-06-10_15h03.58.266,LearnStrategy,2023.2.3,MacIntel,60.0240096,,,,,,,,,,,8,14,3,3,,,,,,,,,,,,,,,,,,,,,,,,,,,,
664a4e8f87996f8c08fb3a62,TCN,2024-06-10_15h03.58.266,LearnStrategy,2023.2.3,MacIntel,60.0240096,,,,,,,,,,,1,11,3,4,,,,,,,,,,,,,,,,,,,,,,,,,,,,
664a4e8f87996f8c08fb3a62,TCN,2024-06-10_15h03.58.266,LearnStrategy,2023.2.3,MacIntel,60.0240096,,,,,,,,,,,2,11,3,5,,,,,,,,,,,,,,,,,,,,,,,,,,,,
664a4e8f87996f8c08fb3a62,TCN,2024-06-10_15h03.58.266,LearnStrategy,2023.2.3,MacIntel,60.0240096,,,,,,,,,,,7,06,3,6,,,,,,,,,,,,,,,,,,,,,,,,,,,,
664a4e8f87996f8c08fb3a62,TCN,2024-06-10_15h03.58.266,LearnStrategy,2023.2.3,MacIntel,60.0240096,,,,,,,,,,,5,05,3,7,,,,,,,,,,,,,,,,,,,,,,,,,,,,
664a4e8f87996f8c08fb3a62,TCN,2024-06-10_15h03.58.266,LearnStrategy,2023.2.3,MacIntel,60.0240096,,,,,,,,,,,7,14,3,8,,,,,,,,,,,,,,,,,,,,,,,,,,,,
664a4e8f87996f8c08fb3a62,TCN,2024-06-10_15h03.58.266,LearnStrategy,2023.2.3,MacIntel,60.0240096,,,,,,,,,,,4,09,4,1,,,,,,,,,,,,,,,,,,,,,,,,,,,,
664a4e8f87996f8c08fb3a62,TCN,2024-06-10_15h03.58.266,LearnStrategy,2023.2.3,MacIntel,60.0240096,,,,,,,,,,,8,16,4,2,,,,,,,,,,,,,,,,,,,,,,,,,,,,
664a4e8f87996f8c08fb3a62,TCN,2024-06-10_15h03.58.266,LearnStrategy,2023.2.3,MacIntel,60.0240096,,,,,,,,,,,6,05,4,3,,,,,,,,,,,,,,,,,,,,,,,,,,,,
664a4e8f87996f8c08fb3a62,TCN,2024-06-10_15h03.58.266,LearnStrategy,2023.2.3,MacIntel,60.0240096,,,,,,,,,,,6,03,4,4,,,,,,,,,,,,,,,,,,,,,,,,,,,,
664a4e8f87996f8c08fb3a62,TCN,2024-06-10_15h03.58.266,LearnStrategy,2023.2.3,MacIntel,60.0240096,,,,,,,,,,,1,04,4,5,,,,,,,,,,,,,,,,,,,,,,,,,,,,
664a4e8f87996f8c08fb3a62,TCN,2024-06-10_15h03.58.266,LearnStrategy,2023.2.3,MacIntel,60.0240096,,,,,,,,,,,8,08,4,6,,,,,,,,,,,,,,,,,,,,,,,,,,,,
664a4e8f87996f8c08fb3a62,TCN,2024-06-10_15h03.58.266,LearnStrategy,2023.2.3,MacIntel,60.0240096,,,,,,,,,,,4,15,4,7,,,,,,,,,,,,,,,,,,,,,,,,,,,,
664a4e8f87996f8c08fb3a62,TCN,2024-06-10_15h03.58.266,LearnStrategy,2023.2.3,MacIntel,60.0240096,,,,,,,,,,,6,15,4,8,,,,,,,,,,,,,,,,,,,,,,,,,,,,
664a4e8f87996f8c08fb3a62,TCN,2024-06-10_15h03.58.266,LearnStrategy,2023.2.3,MacIntel,60.0240096,,,,,,,,,,,6,10,5,1,,,,,,,,,,,,,,,,,,,,,,,,,,,,
664a4e8f87996f8c08fb3a62,TCN,2024-06-10_15h03.58.266,LearnStrategy,2023.2.3,MacIntel,60.0240096,,,,,,,,,,,2,04,5,2,,,,,,,,,,,,,,,,,,,,,,,,,,,,
664a4e8f87996f8c08fb3a62,TCN,2024-06-10_15h03.58.266,LearnStrategy,2023.2.3,MacIntel,60.0240096,,,,,,,,,,,4,03,5,3,,,,,,,,,,,,,,,,,,,,,,,,,,,,
664a4e8f87996f8c08fb3a62,TCN,2024-06-10_15h03.58.266,LearnStrategy,2023.2.3,MacIntel,60.0240096,,,,,,,,,,,2,08,5,4,,,,,,,,,,,,,,,,,,,,,,,,,,,,
664a4e8f87996f8c08fb3a62,TCN,2024-06-10_15h03.58.266,LearnStrategy,2023.2.3,MacIntel,60.0240096,,,,,,,,,,,4,16,5,5,,,,,,,,,,,,,,,,,,,,,,,,,,,,
664a4e8f87996f8c08fb3a62,TCN,2024-06-10_15h03.58.266,LearnStrategy,2023.2.3,MacIntel,60.0240096,,,,,,,,,,,6,16,5,6,,,,,,,,,,,,,,,,,,,,,,,,,,,,
664a4e8f87996f8c08fb3a62,TCN,2024-06-10_15h03.58.266,LearnStrategy,2023.2.3,MacIntel,60.0240096,,,,,,,,,,,2,09,5,7,,,,,,,,,,,,,,,,,,,,,,,,,,,,
664a4e8f87996f8c08fb3a62,TCN,2024-06-10_15h03.58.266,LearnStrategy,2023.2.3,MacIntel,60.0240096,,,,,,,,,,,5,02,5,8,,,,,,,,,,,,,,,,,,,,,,,,,,,,
664a4e8f87996f8c08fb3a62,TCN,2024-06-10_15h03.58.266,LearnStrategy,2023.2.3,MacIntel,60.0240096,,,,,,,,,,,5,08,6,1,,,,,,,,,,,,,,,,,,,,,,,,,,,,
664a4e8f87996f8c08fb3a62,TCN,2024-06-10_15h03.58.266,LearnStrategy,2023.2.3,MacIntel,60.0240096,,,,,,,,,,,4,05,6,2,,,,,,,,,,,,,,,,,,,,,,,,,,,,
664a4e8f87996f8c08fb3a62,TCN,2024-06-10_15h03.58.266,LearnStrategy,2023.2.3,MacIntel,60.0240096,,,,,,,,,,,7,13,6,3,,,,,,,,,,,,,,,,,,,,,,,,,,,,
664a4e8f87996f8c08fb3a62,TCN,2024-06-10_15h03.58.266,LearnStrategy,2023.2.3,MacIntel,60.0240096,,,,,,,,,,,1,16,6,4,,,,,,,,,,,,,,,,,,,,,,,,,,,,
664a4e8f87996f8c08fb3a62,TCN,2024-06-10_15h03.58.266,LearnStrategy,2023.2.3,MacIntel,60.0240096,,,,,,,,,,,4,13,6,5,,,,,,,,,,,,,,,,,,,,,,,,,,,,
664a4e8f87996f8c08fb3a62,TCN,2024-06-10_15h03.58.266,LearnStrategy,2023.2.3,MacIntel,60.0240096,,,,,,,,,,,7,02,6,6,,,,,,,,,,,,,,,,,,,,,,,,,,,,
664a4e8f87996f8c08fb3a62,TCN,2024-06-10_15h03.58.266,LearnStrategy,2023.2.3,MacIntel,60.0240096,,,,,,,,,,,1,10,6,7,,,,,,,,,,,,,,,,,,,,,,,,,,,,
664a4e8f87996f8c08fb3a62,TCN,2024-06-10_15h03.58.266,LearnStrategy,2023.2.3,MacIntel,60.0240096,,,,,,,,,,,3,16,6,8,,,,,,,,,,,,,,,,,,,,,,,,,,,,