participant,condition,date,expName,psychopyVersion,OS,frameRate,block,phase,trial,learn_mouse.x,learn_mouse.y,learn_mouse.leftButton,learn_mouse.midButton,learn_mouse.rightButton,learn_mouse.time,learn_mouse.clicked_name,cat,token,row,col,t_select,cat_rec,token_rec,cat_mouse_l.x,cat_mouse_l.y,cat_mouse_l.leftButton,cat_mouse_l.midButton,cat_mouse_l.rightButton,cat_mouse_l.time,cat_mouse_l.clicked_name,resp,t_resp,corr,train_trials.thisRepN,train_trials.thisTrialN,train_trials.thisN,train_trials.thisIndex,train_trials.ran,cat_mouse_t.x,cat_mouse_t.y,cat_mouse_t.leftButton,cat_mouse_t.midButton,cat_mouse_t.rightButton,cat_mouse_t.time,cat_mouse_t.clicked_name,test_trials.thisRepN,test_trials.thisTrialN,test_trials.thisN,test_trials.thisIndex,test_trials.ran,Bonus
664a60503cd44ff529185b6e,SCR,2024-06-25_12h41.04.066,LearnStrategy,2023.2.3,MacIntel,60.24096386,,,,,,,,,,,,,,,,,,,,,,,,,,,,,,,,,,,,,,,,,,,,,
664a60503cd44ff529185b6e,SCR,2024-06-25_12h41.04.066,LearnStrategy,2023.2.3,MacIntel,60.24096386,1,1,1,0.560140516,0.246151801,1,0,0,4.0498,Diorite_12,3,12,5,8,4.05,3,12,0.379217122,-0.231987169,1,0,0,8.285,Gabbro_rect,4,8.285,0,0,0,0,0,1,,,,,,,,,,,,,
664a60503cd44ff529185b6e,SCR,2024-06-25_12h41.04.066,LearnStrategy,2023.2.3,MacIntel,60.24096386,1,1,2,-0.543970252,-0.082585653,1,0,0,4.6826,Pegmatite_13,6,13,3,1,4.683,6,13,-0.095544298,-0.253050401,1,0,0,6.4937,Basalt_rect,2,6.494,0,1,0,1,0,1,,,,,,,,,,,,,
664a60503cd44ff529185b6e,SCR,2024-06-25_12h41.04.066,LearnStrategy,2023.2.3,MacIntel,60.24096386,1,1,3,0.53769694,0.105407783,1,0,0,2.5819,Diorite_09,3,09,4,8,2.582,3,09,0.132268405,-0.393250597,1,0,0,4.4134,Peridotite_rect,7,4.413,0,2,0,2,0,1,,,,,,,,,,,,,
664a60503cd44ff529185b6e,SCR,2024-06-25_12h41.04.066,LearnStrategy,2023.2.3,MacIntel,60.24096386,1,1,4,-0.351998494,-0.084491306,1,0,0,1.9316,Pegmatite_12,6,12,3,2,1.932,6,12,-0.165690104,-0.251480374,1,0,0,4.3753,Basalt_rect,2,4.375,0,3,0,3,0,1,,,,,,,,,,,,,
664a60503cd44ff529185b6e,SCR,2024-06-25_12h41.04.066,LearnStrategy,2023.2.3,MacIntel,60.24096386,1,1,5,-0.232152642,0.414925927,1,0,0,1.6978,Gabbro_01,4,01,6,3,1.698,4,01,-0.388630371,-0.240701565,1,0,0,4.0237,Andesite_rect,1,4.024,0,4,0,4,0,1,,,,,,,,,,,,,
664a60503cd44ff529185b6e,SCR,2024-06-25_12h41.04.066,LearnStrategy,2023.2.3,MacIntel,60.24096386,1,1,6,0.23514818,0.242592129,1,0,0,1.431,Obsidian_10,5,10,5,6,1.431,5,10,0.349037137,-0.389798516,1,0,0,3.8056,Pumice_rect,8,3.806,0,5,0,5,0,1,,,,,,,,,,,,,
664a60503cd44ff529185b6e,SCR,2024-06-25_12h41.04.066,LearnStrategy,2023.2.3,MacIntel,60.24096386,1,1,7,-0.535568475,0.25874978,1,0,0,2.1154,Basalt_04,2,04,5,1,2.115,2,04,-0.356510959,-0.395494453,1,0,0,4.7803,Obsidian_rect,5,4.78,0,6,0,6,0,1,,,,,,,,,,,,,
664a60503cd44ff529185b6e,SCR,2024-06-25_12h41.04.066,LearnStrategy,2023.2.3,MacIntel,60.24096386,1,1,8,-0.560115102,0.410140245,1,0,0,1.8466,Andesite_06,1,06,6,1,1.847,1,06,0.161040717,-0.236735975,1,0,0,10.9146,Diorite_rect,3,10.915,0,7,0,7,0,1,,,,,,,,,,,,,
664a60503cd44ff529185b6e,SCR,2024-06-25_12h41.04.066,LearnStrategy,2023.2.3,MacIntel,60.24096386,1,1,9,-0.056376682,-0.241240709,1,0,0,1.6978,Peridotite_10,7,10,2,4,1.698,7,10,0.372683784,-0.401797418,1,0,0,7.1445,Pumice_rect,8,7.144,0,8,0,8,0,1,,,,,,,,,,,,,
664a60503cd44ff529185b6e,SCR,2024-06-25_12h41.04.066,LearnStrategy,2023.2.3,MacIntel,60.24096386,1,1,10,0.385133328,0.398399404,1,0,0,1.6475,Pumice_14,8,14,6,7,1.647,8,14,0.374657525,-0.400844591,1,0,0,1.5412,Pumice_rect,8,1.541,1,9,0,9,0,1,,,,,,,,,,,,,
664a60503cd44ff529185b6e,SCR,2024-06-25_12h41.04.066,LearnStrategy,2023.2.3,MacIntel,60.24096386,1,1,11,0.053456217,-0.080825941,1,0,0,1.0312,Gabbro_08,4,08,3,5,1.031,4,08,-0.333668484,-0.262011176,1,0,0,16.0265,Andesite_rect,1,16.027,0,10,0,10,0,1,,,,,,,,,,,,,
664a60503cd44ff529185b6e,SCR,2024-06-25_12h41.04.066,LearnStrategy,2023.2.3,MacIntel,60.24096386,1,1,12,0.380349392,-0.090136922,1,0,0,1.3312,Obsidian_04,5,04,3,7,1.331,5,04,-0.332012533,-0.389161784,1,0,0,2.8895,Obsidian_rect,5,2.889,1,11,0,11,0,1,,,,,,,,,,,,,
664a60503cd44ff529185b6e,SCR,2024-06-25_12h41.04.066,LearnStrategy,2023.2.3,MacIntel,60.24096386,1,1,13,-0.047902425,-0.084020047,1,0,0,0.9982,Pumice_03,8,03,3,4,0.998,8,03,0.370797797,-0.394002075,1,0,0,1.6897,Pumice_rect,8,1.69,1,12,0,12,0,1,,,,,,,,,,,,,
664a60503cd44ff529185b6e,SCR,2024-06-25_12h41.04.066,LearnStrategy,2023.2.3,MacIntel,60.24096386,1,1,14,0.094949137,-0.254316067,1,0,0,1.2651,Andesite_07,1,07,2,5,1.265,1,07,0.094949137,-0.254316067,1,0,0,3.8286,Diorite_rect,3,3.829,0,13,0,13,0,1,,,,,,,,,,,,,
664a60503cd44ff529185b6e,SCR,2024-06-25_12h41.04.066,LearnStrategy,2023.2.3,MacIntel,60.24096386,1,1,15,0.551095785,-0.255755141,1,0,0,1.4818,Basalt_14,2,14,2,8,1.482,2,14,0.438074409,-0.402444594,1,0,0,7.4456,Pumice_rect,8,7.446,0,14,0,14,0,1,,,,,,,,,,,,,
664a60503cd44ff529185b6e,SCR,2024-06-25_12h41.04.066,LearnStrategy,2023.2.3,MacIntel,60.24096386,1,1,16,0.243289795,-0.25765096,1,0,0,1.3303,Peridotite_13,7,13,2,6,1.33,7,13,0.101720785,-0.393839111,1,0,0,6.9664,Peridotite_rect,7,6.966,1,15,0,15,0,1,,,,,,,,,,,,,
664a60503cd44ff529185b6e,SCR,2024-06-25_12h41.04.066,LearnStrategy,2023.2.3,MacIntel,60.24096386,1,2,1,,,,,,,,4,11,,,,,,,,,,,,,4,6.085,1,,,,,,0.405753038,-0.24717475,1,0,0,6.0849,Gabbro_rect,0,0,0,0,1,
664a60503cd44ff529185b6e,SCR,2024-06-25_12h41.04.066,LearnStrategy,2023.2.3,MacIntel,60.24096386,1,2,2,,,,,,,,3,16,,,,,,,,,,,,,1,10.373,0,,,,,,-0.353882819,-0.263341471,1,0,0,10.3727,Andesite_rect,1,0,1,0,1,
664a60503cd44ff529185b6e,SCR,2024-06-25_12h41.04.066,LearnStrategy,2023.2.3,MacIntel,60.24096386,1,2,3,,,,,,,,1,03,,,,,,,,,,,,,3,14.694,0,,,,,,0.197109646,-0.248442518,1,0,0,14.694,Diorite_rect,2,0,2,0,1,
664a60503cd44ff529185b6e,SCR,2024-06-25_12h41.04.066,LearnStrategy,2023.2.3,MacIntel,60.24096386,1,2,4,,,,,,,,3,14,,,,,,,,,,,,,3,4.394,1,,,,,,0.159001533,-0.232422553,1,0,0,4.3943,Diorite_rect,3,0,3,0,1,
664a60503cd44ff529185b6e,SCR,2024-06-25_12h41.04.066,LearnStrategy,2023.2.3,MacIntel,60.24096386,1,2,5,,,,,,,,2,12,,,,,,,,,,,,,8,1.577,0,,,,,,0.377857395,-0.402759196,1,0,0,1.5775,Pumice_rect,4,0,4,0,1,
664a60503cd44ff529185b6e,SCR,2024-06-25_12h41.04.066,LearnStrategy,2023.2.3,MacIntel,60.24096386,1,2,6,,,,,,,,5,14,,,,,,,,,,,,,5,2.034,1,,,,,,-0.340057576,-0.404092,1,0,0,2.0345,Obsidian_rect,5,0,5,0,1,
664a60503cd44ff529185b6e,SCR,2024-06-25_12h41.04.066,LearnStrategy,2023.2.3,MacIntel,60.24096386,1,2,7,,,,,,,,4,14,,,,,,,,,,,,,2,5.62,0,,,,,,-0.09328437,-0.265235731,1,0,0,5.6205,Basalt_rect,6,0,6,0,1,
664a60503cd44ff529185b6e,SCR,2024-06-25_12h41.04.066,LearnStrategy,2023.2.3,MacIntel,60.24096386,1,2,8,,,,,,,,6,03,,,,,,,,,,,,,7,6.37,0,,,,,,0.179679565,-0.383977932,1,0,0,6.3702,Peridotite_rect,7,0,7,0,1,
664a60503cd44ff529185b6e,SCR,2024-06-25_12h41.04.066,LearnStrategy,2023.2.3,MacIntel,60.24096386,1,2,9,,,,,,,,5,08,,,,,,,,,,,,,5,2.515,1,,,,,,-0.361107856,-0.399346042,1,0,0,2.5149,Obsidian_rect,8,0,8,0,1,
664a60503cd44ff529185b6e,SCR,2024-06-25_12h41.04.066,LearnStrategy,2023.2.3,MacIntel,60.24096386,1,2,10,,,,,,,,8,09,,,,,,,,,,,,,8,1.712,1,,,,,,0.397054715,-0.390359429,1,0,0,1.7118,Pumice_rect,9,0,9,0,1,
664a60503cd44ff529185b6e,SCR,2024-06-25_12h41.04.066,LearnStrategy,2023.2.3,MacIntel,60.24096386,1,2,11,,,,,,,,7,06,,,,,,,,,,,,,7,4.229,1,,,,,,0.068698459,-0.399132826,1,0,0,4.2289,Peridotite_rect,10,0,10,0,1,
664a60503cd44ff529185b6e,SCR,2024-06-25_12h41.04.066,LearnStrategy,2023.2.3,MacIntel,60.24096386,1,2,12,,,,,,,,8,10,,,,,,,,,,,,,8,2.404,1,,,,,,0.373315158,-0.40496087,1,0,0,2.4035,Pumice_rect,11,0,11,0,1,
664a60503cd44ff529185b6e,SCR,2024-06-25_12h41.04.066,LearnStrategy,2023.2.3,MacIntel,60.24096386,1,2,13,,,,,,,,7,15,,,,,,,,,,,,,7,2.059,1,,,,,,0.097124498,-0.398934394,1,0,0,2.059,Peridotite_rect,12,0,12,0,1,
664a60503cd44ff529185b6e,SCR,2024-06-25_12h41.04.066,LearnStrategy,2023.2.3,MacIntel,60.24096386,1,2,14,,,,,,,,1,04,,,,,,,,,,,,,1,16.234,1,,,,,,-0.342367011,-0.258457845,1,0,0,16.2335,Andesite_rect,13,0,13,0,1,
664a60503cd44ff529185b6e,SCR,2024-06-25_12h41.04.066,LearnStrategy,2023.2.3,MacIntel,60.24096386,1,2,15,,,,,,,,2,01,,,,,,,,,,,,,4,16.166,0,,,,,,0.37038642,-0.26120497,1,0,0,16.1658,Gabbro_rect,14,0,14,0,1,
664a60503cd44ff529185b6e,SCR,2024-06-25_12h41.04.066,LearnStrategy,2023.2.3,MacIntel,60.24096386,1,2,16,,,,,,,,6,08,,,,,,,,,,,,,5,7.408,0,,,,,,-0.354314372,-0.396224976,1,0,0,7.408,Obsidian_rect,15,0,15,0,1,
664a60503cd44ff529185b6e,SCR,2024-06-25_12h41.04.066,LearnStrategy,2023.2.3,MacIntel,60.24096386,2,1,1,-0.249293213,-0.072865736,1,0,0,1.9139,Diorite_02,3,02,3,3,1.914,3,02,0.109284668,-0.402982788,1,0,0,5.4685,Peridotite_rect,7,5.469,0,0,0,0,0,1,,,,,,,,,,,,,
664a60503cd44ff529185b6e,SCR,2024-06-25_12h41.04.066,LearnStrategy,2023.2.3,MacIntel,60.24096386,2,1,2,0.245308567,-0.405843777,1,0,0,1.7151,Diorite_15,3,15,1,6,1.715,3,15,0.343456896,-0.261800605,1,0,0,7.1899,Gabbro_rect,4,7.19,0,1,0,1,0,1,,,,,,,,,,,,,
664a60503cd44ff529185b6e,SCR,2024-06-25_12h41.04.066,LearnStrategy,2023.2.3,MacIntel,60.24096386,2,1,3,0.532625054,-0.404649387,1,0,0,1.5818,Basalt_05,2,05,1,8,1.582,2,05,-0.100652737,-0.255463121,1,0,0,3.9604,Basalt_rect,2,3.96,1,2,0,2,0,1,,,,,,,,,,,,,
664a60503cd44ff529185b6e,SCR,2024-06-25_12h41.04.066,LearnStrategy,2023.2.3,MacIntel,60.24096386,2,1,4,-0.230499878,-0.39414856,1,0,0,1.3479,Peridotite_02,7,02,1,3,1.348,7,02,0.065231527,-0.406678331,1,0,0,4.3827,Peridotite_rect,7,4.383,1,3,0,3,0,1,,,,,,,,,,,,,
664a60503cd44ff529185b6e,SCR,2024-06-25_12h41.04.066,LearnStrategy,2023.2.3,MacIntel,60.24096386,2,1,5,-0.2224941,0.378222334,1,0,0,1.7651,Gabbro_01,4,01,6,3,1.765,4,01,0.319013875,-0.238026055,1,0,0,7.3378,Gabbro_rect,4,7.338,1,4,0,4,0,1,,,,,,,,,,,,,
664a60503cd44ff529185b6e,SCR,2024-06-25_12h41.04.066,LearnStrategy,2023.2.3,MacIntel,60.24096386,2,1,6,-0.397473484,0.408549754,1,0,0,1.5302,Pegmatite_06,6,06,6,2,1.53,6,06,-0.372858615,-0.266470269,1,0,0,8.028,Andesite_rect,1,8.028,0,5,0,5,0,1,,,,,,,,,,,,,
664a60503cd44ff529185b6e,SCR,2024-06-25_12h41.04.066,LearnStrategy,2023.2.3,MacIntel,60.24096386,2,1,7,-0.392503187,0.236728024,1,0,0,1.9644,Basalt_08,2,08,5,2,1.964,2,08,-0.14015252,-0.250282796,1,0,0,6.1472,Basalt_rect,2,6.147,1,6,0,6,0,1,,,,,,,,,,,,,
664a60503cd44ff529185b6e,SCR,2024-06-25_12h41.04.066,LearnStrategy,2023.2.3,MacIntel,60.24096386,2,1,8,-0.217177734,-0.231917114,1,0,0,1.3144,Pegmatite_09,6,09,2,3,1.314,6,09,0.13209649,-0.394139608,1,0,0,6.208,Peridotite_rect,7,6.208,0,7,0,7,0,1,,,,,,,,,,,,,
664a60503cd44ff529185b6e,SCR,2024-06-25_12h41.04.066,LearnStrategy,2023.2.3,MacIntel,60.24096386,2,1,9,0.221386787,0.092481689,1,0,0,1.3317,Obsidian_09,5,09,4,6,1.332,5,09,-0.388340895,-0.404479099,1,0,0,1.9379,Obsidian_rect,5,1.938,1,8,0,8,0,1,,,,,,,,,,,,,
664a60503cd44ff529185b6e,SCR,2024-06-25_12h41.04.066,LearnStrategy,2023.2.3,MacIntel,60.24096386,2,1,10,-0.075882297,-0.397610474,1,0,0,1.4315,Basalt_09,2,09,1,4,1.432,2,09,-0.170248345,-0.264952325,1,0,0,5.644,Basalt_rect,2,5.644,1,9,0,9,0,1,,,,,,,,,,,,,
664a60503cd44ff529185b6e,SCR,2024-06-25_12h41.04.066,LearnStrategy,2023.2.3,MacIntel,60.24096386,2,1,11,0.416891819,0.083687236,1,0,0,1.3474,Basalt_10,2,10,4,7,1.347,2,10,-0.139133165,-0.262873942,1,0,0,4.7016,Basalt_rect,2,4.702,1,10,0,10,0,1,,,,,,,,,,,,,
664a60503cd44ff529185b6e,SCR,2024-06-25_12h41.04.066,LearnStrategy,2023.2.3,MacIntel,60.24096386,2,1,12,-0.399610731,0.098685438,1,0,0,1.2806,Andesite_14,1,14,4,2,1.281,1,14,-0.09364502,-0.415895386,1,0,0,18.9575,Pegmatite_rect,6,18.957,0,11,0,11,0,1,,,,,,,,,,,,,
664a60503cd44ff529185b6e,SCR,2024-06-25_12h41.04.066,LearnStrategy,2023.2.3,MacIntel,60.24096386,2,1,13,-0.238814629,0.380070818,1,0,0,1.498,Gabbro_01,4,01,6,3,1.498,4,01,0.394607612,-0.247010227,1,0,0,12.6378,Gabbro_rect,4,12.638,1,12,0,12,0,1,,,,,,,,,,,,,
664a60503cd44ff529185b6e,SCR,2024-06-25_12h41.04.066,LearnStrategy,2023.2.3,MacIntel,60.24096386,2,1,14,-0.362227783,-0.099166734,1,0,0,1.2809,Pegmatite_12,6,12,3,2,1.281,6,12,-0.155435181,-0.384835544,1,0,0,7.6935,Pegmatite_rect,6,7.693,1,13,0,13,0,1,,,,,,,,,,,,,
664a60503cd44ff529185b6e,SCR,2024-06-25_12h41.04.066,LearnStrategy,2023.2.3,MacIntel,60.24096386,2,1,15,-0.544015706,-0.389347738,1,0,0,1.4972,Andesite_11,1,11,1,1,1.497,1,11,-0.326073473,-0.229449531,1,0,0,9.6911,Andesite_rect,1,9.691,1,14,0,14,0,1,,,,,,,,,,,,,
664a60503cd44ff529185b6e,SCR,2024-06-25_12h41.04.066,LearnStrategy,2023.2.3,MacIntel,60.24096386,2,1,16,-0.093163723,0.405454898,1,0,0,1.231,Pumice_06,8,06,6,4,1.231,8,06,0.367253418,-0.393768921,1,0,0,1.682,Pumice_rect,8,1.682,1,15,0,15,0,1,,,,,,,,,,,,,
664a60503cd44ff529185b6e,SCR,2024-06-25_12h41.04.066,LearnStrategy,2023.2.3,MacIntel,60.24096386,2,2,1,,,,,,,,2,11,,,,,,,,,,,,,2,11.895,1,,,,,,-0.117327745,-0.244475708,1,0,0,11.8948,Basalt_rect,0,0,0,0,1,
664a60503cd44ff529185b6e,SCR,2024-06-25_12h41.04.066,LearnStrategy,2023.2.3,MacIntel,60.24096386,2,2,2,,,,,,,,3,13,,,,,,,,,,,,,4,24.061,0,,,,,,0.335552233,-0.260106947,1,0,0,24.0614,Gabbro_rect,1,0,1,0,1,
664a60503cd44ff529185b6e,SCR,2024-06-25_12h41.04.066,LearnStrategy,2023.2.3,MacIntel,60.24096386,2,2,3,,,,,,,,6,11,,,,,,,,,,,,,5,6.328,0,,,,,,-0.366528998,-0.391323378,1,0,0,6.3279,Obsidian_rect,2,0,2,0,1,
664a60503cd44ff529185b6e,SCR,2024-06-25_12h41.04.066,LearnStrategy,2023.2.3,MacIntel,60.24096386,2,2,4,,,,,,,,5,05,,,,,,,,,,,,,5,3.093,1,,,,,,-0.384386529,-0.390162354,1,0,0,3.0935,Obsidian_rect,3,0,3,0,1,
664a60503cd44ff529185b6e,SCR,2024-06-25_12h41.04.066,LearnStrategy,2023.2.3,MacIntel,60.24096386,2,2,5,,,,,,,,1,10,,,,,,,,,,,,,1,13.491,1,,,,,,-0.372530145,-0.24132921,1,0,0,13.4906,Andesite_rect,4,0,4,0,1,
664a60503cd44ff529185b6e,SCR,2024-06-25_12h41.04.066,LearnStrategy,2023.2.3,MacIntel,60.24096386,2,2,6,,,,,,,,1,02,,,,,,,,,,,,,6,9.656,0,,,,,,-0.059593506,-0.407252401,1,0,0,9.6557,Pegmatite_rect,5,0,5,0,1,
664a60503cd44ff529185b6e,SCR,2024-06-25_12h41.04.066,LearnStrategy,2023.2.3,MacIntel,60.24096386,2,2,7,,,,,,,,7,04,,,,,,,,,,,,,6,16.653,0,,,,,,-0.153708225,-0.398792114,1,0,0,16.6525,Pegmatite_rect,6,0,6,0,1,
664a60503cd44ff529185b6e,SCR,2024-06-25_12h41.04.066,LearnStrategy,2023.2.3,MacIntel,60.24096386,2,2,8,,,,,,,,4,09,,,,,,,,,,,,,2,8.371,0,,,,,,-0.115250651,-0.25998447,1,0,0,8.3714,Basalt_rect,7,0,7,0,1,
664a60503cd44ff529185b6e,SCR,2024-06-25_12h41.04.066,LearnStrategy,2023.2.3,MacIntel,60.24096386,2,2,9,,,,,,,,8,16,,,,,,,,,,,,,8,1.942,1,,,,,,0.37237047,-0.420337999,1,0,0,1.9424,Pumice_rect,8,0,8,0,1,
664a60503cd44ff529185b6e,SCR,2024-06-25_12h41.04.066,LearnStrategy,2023.2.3,MacIntel,60.24096386,2,2,10,,,,,,,,2,02,,,,,,,,,,,,,2,7.263,1,,,,,,-0.092379286,-0.254170464,1,0,0,7.2629,Basalt_rect,9,0,9,0,1,
664a60503cd44ff529185b6e,SCR,2024-06-25_12h41.04.066,LearnStrategy,2023.2.3,MacIntel,60.24096386,2,2,11,,,,,,,,4,13,,,,,,,,,,,,,2,6.034,0,,,,,,-0.095725708,-0.238459676,1,0,0,6.0336,Basalt_rect,10,0,10,0,1,
664a60503cd44ff529185b6e,SCR,2024-06-25_12h41.04.066,LearnStrategy,2023.2.3,MacIntel,60.24096386,2,2,12,,,,,,,,3,10,,,,,,,,,,,,,3,4.435,1,,,,,,0.122755941,-0.254871758,1,0,0,4.4347,Diorite_rect,11,0,11,0,1,
664a60503cd44ff529185b6e,SCR,2024-06-25_12h41.04.066,LearnStrategy,2023.2.3,MacIntel,60.24096386,2,2,13,,,,,,,,7,14,,,,,,,,,,,,,6,14.131,0,,,,,,-0.100483331,-0.404772068,1,0,0,14.1307,Pegmatite_rect,12,0,12,0,1,
664a60503cd44ff529185b6e,SCR,2024-06-25_12h41.04.066,LearnStrategy,2023.2.3,MacIntel,60.24096386,2,2,14,,,,,,,,6,10,,,,,,,,,,,,,7,4.989,0,,,,,,0.068110148,-0.404368625,1,0,0,4.9888,Peridotite_rect,13,0,13,0,1,
664a60503cd44ff529185b6e,SCR,2024-06-25_12h41.04.066,LearnStrategy,2023.2.3,MacIntel,60.24096386,2,2,15,,,,,,,,8,13,,,,,,,,,,,,,8,6.678,1,,,,,,0.30943807,-0.406373088,1,0,0,6.6776,Pumice_rect,14,0,14,0,1,
664a60503cd44ff529185b6e,SCR,2024-06-25_12h41.04.066,LearnStrategy,2023.2.3,MacIntel,60.24096386,2,2,16,,,,,,,,5,16,,,,,,,,,,,,,5,1.931,1,,,,,,-0.357185126,-0.404652913,1,0,0,1.9313,Obsidian_rect,15,0,15,0,1,
664a60503cd44ff529185b6e,SCR,2024-06-25_12h41.04.066,LearnStrategy,2023.2.3,MacIntel,60.24096386,3,1,1,-0.554579875,-0.109554986,1,0,0,1.8327,Pegmatite_13,6,13,3,1,1.833,6,13,0.105748155,-0.253615858,1,0,0,19.3467,Diorite_rect,3,19.347,0,0,0,0,0,1,,,,,,,,,,,,,
664a60503cd44ff529185b6e,SCR,2024-06-25_12h41.04.066,LearnStrategy,2023.2.3,MacIntel,60.24096386,3,1,2,0.393737522,-0.280807699,1,0,0,1.3468,Gabbro_03,4,03,2,7,1.347,4,03,0.177260878,-0.245781521,1,0,0,3.3953,Diorite_rect,3,3.395,0,1,0,1,0,1,,,,,,,,,,,,,
664a60503cd44ff529185b6e,SCR,2024-06-25_12h41.04.066,LearnStrategy,2023.2.3,MacIntel,60.24096386,3,1,3,0.413722738,-0.265691054,1,0,0,1.2303,Gabbro_03,4,03,2,7,1.23,4,03,0.392183431,-0.249488864,1,0,0,1.1434,Gabbro_rect,4,1.143,1,2,0,2,0,1,,,,,,,,,,,,,
664a60503cd44ff529185b6e,SCR,2024-06-25_12h41.04.066,LearnStrategy,2023.2.3,MacIntel,60.24096386,3,1,4,0.245935737,-0.235490723,1,0,0,1.2489,Peridotite_13,7,13,2,6,1.249,7,13,0.142751194,-0.401440769,1,0,0,8.3718,Peridotite_rect,7,8.372,1,3,0,3,0,1,,,,,,,,,,,,,
664a60503cd44ff529185b6e,SCR,2024-06-25_12h41.04.066,LearnStrategy,2023.2.3,MacIntel,60.24096386,3,1,5,0.36608941,-0.072551066,1,0,0,1.1162,Obsidian_04,5,04,3,7,1.116,5,04,-0.367974311,-0.400150621,1,0,0,1.1408,Obsidian_rect,5,1.141,1,4,0,4,0,1,,,,,,,,,,,,,
664a60503cd44ff529185b6e,SCR,2024-06-25_12h41.04.066,LearnStrategy,2023.2.3,MacIntel,60.24096386,3,1,6,0.559709608,-0.254880507,1,0,0,1.2652,Basalt_14,2,14,2,8,1.265,2,14,0.443528375,-0.414158529,1,0,0,6.1004,Pumice_rect,8,6.1,0,5,0,5,0,1,,,,,,,,,,,,,
664a60503cd44ff529185b6e,SCR,2024-06-25_12h41.04.066,LearnStrategy,2023.2.3,MacIntel,60.24096386,3,1,7,-0.044380358,0.063727451,1,0,0,1.0308,Diorite_11,3,11,4,4,1.031,3,11,0.183628743,-0.245669759,1,0,0,4.4877,Diorite_rect,3,4.488,1,6,0,6,0,1,,,,,,,,,,,,,
664a60503cd44ff529185b6e,SCR,2024-06-25_12h41.04.066,LearnStrategy,2023.2.3,MacIntel,60.24096386,3,1,8,-0.522232429,0.390863444,1,0,0,1.5647,Andesite_06,1,06,6,1,1.565,1,06,0.402033285,-0.259105699,1,0,0,8.002,Gabbro_rect,4,8.002,0,7,0,7,0,1,,,,,,,,,,,,,
664a60503cd44ff529185b6e,SCR,2024-06-25_12h41.04.066,LearnStrategy,2023.2.3,MacIntel,60.24096386,3,1,9,-0.39912618,-0.107037082,1,0,0,1.2302,Pegmatite_12,6,12,3,2,1.23,6,12,-0.094429728,-0.395431179,1,0,0,13.6793,Pegmatite_rect,6,13.679,1,8,0,8,0,1,,,,,,,,,,,,,
664a60503cd44ff529185b6e,SCR,2024-06-25_12h41.04.066,LearnStrategy,2023.2.3,MacIntel,60.24096386,3,1,10,0.549558105,-0.255023397,1,0,0,1.3324,Basalt_14,2,14,2,8,1.332,2,14,-0.100644735,-0.249576755,1,0,0,6.3177,Basalt_rect,2,6.318,1,9,0,9,0,1,,,,,,,,,,,,,
664a60503cd44ff529185b6e,SCR,2024-06-25_12h41.04.066,LearnStrategy,2023.2.3,MacIntel,60.24096386,3,1,11,-0.36307095,0.379447869,1,0,0,1.566,Pegmatite_06,6,06,6,2,1.566,6,06,-0.367132433,-0.235118815,1,0,0,30.3216,Andesite_rect,1,30.322,0,10,0,10,0,1,,,,,,,,,,,,,
664a60503cd44ff529185b6e,SCR,2024-06-25_12h41.04.066,LearnStrategy,2023.2.3,MacIntel,60.24096386,3,1,12,-0.251406047,0.415953318,1,0,0,1.2979,Gabbro_01,4,01,6,3,1.298,4,01,0.385683458,-0.242604913,1,0,0,9.6261,Gabbro_rect,4,9.626,1,11,0,11,0,1,,,,,,,,,,,,,
664a60503cd44ff529185b6e,SCR,2024-06-25_12h41.04.066,LearnStrategy,2023.2.3,MacIntel,60.24096386,3,1,13,-0.221392687,-0.384667358,1,0,0,1.3818,Peridotite_02,7,02,1,3,1.382,7,02,0.128966539,-0.3801631,1,0,0,4.458,Peridotite_rect,7,4.458,1,12,0,12,0,1,,,,,,,,,,,,,
664a60503cd44ff529185b6e,SCR,2024-06-25_12h41.04.066,LearnStrategy,2023.2.3,MacIntel,60.24096386,3,1,14,-0.371591051,0.375749139,1,0,0,1.3159,Pegmatite_06,6,06,6,2,1.316,6,06,-0.080400933,-0.394577772,1,0,0,5.1547,Pegmatite_rect,6,5.155,1,13,0,13,0,1,,,,,,,,,,,,,
664a60503cd44ff529185b6e,SCR,2024-06-25_12h41.04.066,LearnStrategy,2023.2.3,MacIntel,60.24096386,3,1,15,0.085795085,-0.229190403,1,0,0,1.0819,Andesite_07,1,07,2,5,1.082,1,07,-0.399934082,-0.25887797,1,0,0,18.7938,Andesite_rect,1,18.794,1,14,0,14,0,1,,,,,,,,,,,,,
664a60503cd44ff529185b6e,SCR,2024-06-25_12h41.04.066,LearnStrategy,2023.2.3,MacIntel,60.24096386,3,1,16,0.565144043,0.230859409,1,0,0,1.381,Diorite_12,3,12,5,8,1.381,3,12,0.166788669,-0.240504829,1,0,0,8.4292,Diorite_rect,3,8.429,1,15,0,15,0,1,,,,,,,,,,,,,
664a60503cd44ff529185b6e,SCR,2024-06-25_12h41.04.066,LearnStrategy,2023.2.3,MacIntel,60.24096386,3,2,1,,,,,,,,2,06,,,,,,,,,,,,,2,5.093,1,,,,,,-0.094885118,-0.252728204,1,0,0,5.0928,Basalt_rect,0,0,0,0,1,
664a60503cd44ff529185b6e,SCR,2024-06-25_12h41.04.066,LearnStrategy,2023.2.3,MacIntel,60.24096386,3,2,2,,,,,,,,2,16,,,,,,,,,,,,,2,3.523,1,,,,,,-0.086449924,-0.247878282,1,0,0,3.5231,Basalt_rect,1,0,1,0,1,
664a60503cd44ff529185b6e,SCR,2024-06-25_12h41.04.066,LearnStrategy,2023.2.3,MacIntel,60.24096386,3,2,3,,,,,,,,5,11,,,,,,,,,,,,,5,4.814,1,,,,,,-0.408630134,-0.407080485,1,0,0,4.8144,Obsidian_rect,2,0,2,0,1,
664a60503cd44ff529185b6e,SCR,2024-06-25_12h41.04.066,LearnStrategy,2023.2.3,MacIntel,60.24096386,3,2,4,,,,,,,,1,01,,,,,,,,,,,,,4,22.097,0,,,,,,0.411118707,-0.248471612,1,0,0,22.0966,Gabbro_rect,3,0,3,0,1,
664a60503cd44ff529185b6e,SCR,2024-06-25_12h41.04.066,LearnStrategy,2023.2.3,MacIntel,60.24096386,3,2,5,,,,,,,,3,08,,,,,,,,,,,,,3,8.397,1,,,,,,0.131800944,-0.247934163,1,0,0,8.3974,Diorite_rect,4,0,4,0,1,
664a60503cd44ff529185b6e,SCR,2024-06-25_12h41.04.066,LearnStrategy,2023.2.3,MacIntel,60.24096386,3,2,6,,,,,,,,1,05,,,,,,,,,,,,,6,13.494,0,,,,,,-0.104453125,-0.406728516,1,0,0,13.4936,Pegmatite_rect,5,0,5,0,1,
664a60503cd44ff529185b6e,SCR,2024-06-25_12h41.04.066,LearnStrategy,2023.2.3,MacIntel,60.24096386,3,2,7,,,,,,,,6,15,,,,,,,,,,,,,6,7.686,1,,,,,,-0.096424425,-0.4037146,1,0,0,7.6862,Pegmatite_rect,6,0,6,0,1,
664a60503cd44ff529185b6e,SCR,2024-06-25_12h41.04.066,LearnStrategy,2023.2.3,MacIntel,60.24096386,3,2,8,,,,,,,,7,08,,,,,,,,,,,,,7,6.037,1,,,,,,0.139397108,-0.400519748,1,0,0,6.0372,Peridotite_rect,7,0,7,0,1,
664a60503cd44ff529185b6e,SCR,2024-06-25_12h41.04.066,LearnStrategy,2023.2.3,MacIntel,60.24096386,3,2,9,,,,,,,,8,04,,,,,,,,,,,,,8,1.59,1,,,,,,0.420032552,-0.404124349,1,0,0,1.5895,Pumice_rect,8,0,8,0,1,
664a60503cd44ff529185b6e,SCR,2024-06-25_12h41.04.066,LearnStrategy,2023.2.3,MacIntel,60.24096386,3,2,10,,,,,,,,8,08,,,,,,,,,,,,,8,5.271,1,,,,,,0.415918511,-0.401728583,1,0,0,5.271,Pumice_rect,9,0,9,0,1,
664a60503cd44ff529185b6e,SCR,2024-06-25_12h41.04.066,LearnStrategy,2023.2.3,MacIntel,60.24096386,3,2,11,,,,,,,,4,12,,,,,,,,,,,,,1,22.143,0,,,,,,-0.333506978,-0.255803765,1,0,0,22.1429,Andesite_rect,10,0,10,0,1,
664a60503cd44ff529185b6e,SCR,2024-06-25_12h41.04.066,LearnStrategy,2023.2.3,MacIntel,60.24096386,3,2,12,,,,,,,,4,05,,,,,,,,,,,,,6,15.141,0,,,,,,-0.155842353,-0.398999566,1,0,0,15.1413,Pegmatite_rect,11,0,11,0,1,
664a60503cd44ff529185b6e,SCR,2024-06-25_12h41.04.066,LearnStrategy,2023.2.3,MacIntel,60.24096386,3,2,13,,,,,,,,7,07,,,,,,,,,,,,,7,2.658,1,,,,,,0.073658922,-0.409838799,1,0,0,2.6581,Peridotite_rect,12,0,12,0,1,
664a60503cd44ff529185b6e,SCR,2024-06-25_12h41.04.066,LearnStrategy,2023.2.3,MacIntel,60.24096386,3,2,14,,,,,,,,5,02,,,,,,,,,,,,,5,1.719,1,,,,,,-0.401916504,-0.406347928,1,0,0,1.7194,Obsidian_rect,13,0,13,0,1,
664a60503cd44ff529185b6e,SCR,2024-06-25_12h41.04.066,LearnStrategy,2023.2.3,MacIntel,60.24096386,3,2,15,,,,,,,,6,07,,,,,,,,,,,,,6,18.599,1,,,,,,-0.183974609,-0.414097561,1,0,0,18.5991,Pegmatite_rect,14,0,14,0,1,
664a60503cd44ff529185b6e,SCR,2024-06-25_12h41.04.066,LearnStrategy,2023.2.3,MacIntel,60.24096386,3,2,16,,,,,,,,3,07,,,,,,,,,,,,,3,5.358,1,,,,,,0.105717299,-0.264136217,1,0,0,5.3577,Diorite_rect,15,0,15,0,1,
664a60503cd44ff529185b6e,SCR,2024-06-25_12h41.04.066,LearnStrategy,2023.2.3,MacIntel,60.24096386,4,1,1,-0.223486192,0.237693176,1,0,0,6.2651,Pegmatite_16,6,16,5,3,6.265,6,16,-0.11654012,-0.395317112,1,0,0,16.2746,Pegmatite_rect,6,16.275,1,0,0,0,0,1,,,,,,,,,,,,,
664a60503cd44ff529185b6e,SCR,2024-06-25_12h41.04.066,LearnStrategy,2023.2.3,MacIntel,60.24096386,4,1,2,-0.419469062,-0.259463298,1,0,0,1.1651,Andesite_09,1,09,2,2,1.165,1,09,-0.399206543,-0.258437636,1,0,0,15.786,Andesite_rect,1,15.786,1,1,0,1,0,1,,,,,,,,,,,,,
664a60503cd44ff529185b6e,SCR,2024-06-25_12h41.04.066,LearnStrategy,2023.2.3,MacIntel,60.24096386,4,1,3,0.075046726,-0.093279148,1,0,0,0.9652,Gabbro_08,4,08,3,5,0.965,4,08,0.331220635,-0.239106852,1,0,0,16.1283,Gabbro_rect,4,16.128,1,2,0,2,0,1,,,,,,,,,,,,,
664a60503cd44ff529185b6e,SCR,2024-06-25_12h41.04.066,LearnStrategy,2023.2.3,MacIntel,60.24096386,4,1,4,0.094289008,0.394498342,1,0,0,1.2983,Gabbro_10,4,10,6,5,1.298,4,10,0.415294461,-0.245830214,1,0,0,4.5916,Gabbro_rect,4,4.592,1,3,0,3,0,1,,,,,,,,,,,,,
664a60503cd44ff529185b6e,SCR,2024-06-25_12h41.04.066,LearnStrategy,2023.2.3,MacIntel,60.24096386,4,1,5,0.404500868,0.422662048,1,0,0,1.1815,Pumice_14,8,14,6,7,1.181,8,14,0.41042494,-0.405513645,1,0,0,1.2925,Pumice_rect,8,1.292,1,4,0,4,0,1,,,,,,,,,,,,,
664a60503cd44ff529185b6e,SCR,2024-06-25_12h41.04.066,LearnStrategy,2023.2.3,MacIntel,60.24096386,4,1,6,-0.046445991,0.224333666,1,0,0,0.9649,Peridotite_12,7,12,5,4,0.965,7,12,0.125409749,-0.384349569,1,0,0,1.8006,Peridotite_rect,7,1.801,1,5,0,5,0,1,,,,,,,,,,,,,
664a60503cd44ff529185b6e,SCR,2024-06-25_12h41.04.066,LearnStrategy,2023.2.3,MacIntel,60.24096386,4,1,7,0.214124417,-0.231247694,1,0,0,1.0651,Peridotite_13,7,13,2,6,1.065,7,13,0.177237752,-0.408070475,1,0,0,1.0354,Peridotite_rect,7,1.035,1,6,0,6,0,1,,,,,,,,,,,,,
664a60503cd44ff529185b6e,SCR,2024-06-25_12h41.04.066,LearnStrategy,2023.2.3,MacIntel,60.24096386,4,1,8,0.400703668,-0.260562066,1,0,0,1.0829,Gabbro_03,4,03,2,7,1.083,4,03,0.156666463,-0.246325277,1,0,0,13.5223,Diorite_rect,3,13.522,0,7,0,7,0,1,,,,,,,,,,,,,
664a60503cd44ff529185b6e,SCR,2024-06-25_12h41.04.066,LearnStrategy,2023.2.3,MacIntel,60.24096386,4,1,9,-0.399028625,0.255016123,1,0,0,1.365,Basalt_08,2,08,5,2,1.365,2,08,-0.126073541,-0.24576043,1,0,0,7.4235,Basalt_rect,2,7.423,1,8,0,8,0,1,,,,,,,,,,,,,
664a60503cd44ff529185b6e,SCR,2024-06-25_12h41.04.066,LearnStrategy,2023.2.3,MacIntel,60.24096386,4,1,10,0.576745334,0.386500922,1,0,0,1.314,Andesite_16,1,16,6,8,1.314,1,16,-0.413691135,-0.243889567,1,0,0,7.7799,Andesite_rect,1,7.78,1,9,0,9,0,1,,,,,,,,,,,,,
664a60503cd44ff529185b6e,SCR,2024-06-25_12h41.04.066,LearnStrategy,2023.2.3,MacIntel,60.24096386,4,1,11,0.193569743,-0.086330024,1,0,0,0.9808,Pegmatite_05,6,05,3,6,0.981,6,05,0.199246148,-0.246101956,1,0,0,2.7604,Diorite_rect,3,2.76,0,10,0,10,0,1,,,,,,,,,,,,,
664a60503cd44ff529185b6e,SCR,2024-06-25_12h41.04.066,LearnStrategy,2023.2.3,MacIntel,60.24096386,4,1,12,0.2514485,-0.422870348,1,0,0,1.2148,Diorite_15,3,15,1,6,1.215,3,15,0.17902927,-0.249985623,1,0,0,6.2494,Diorite_rect,3,6.249,1,11,0,11,0,1,,,,,,,,,,,,,
664a60503cd44ff529185b6e,SCR,2024-06-25_12h41.04.066,LearnStrategy,2023.2.3,MacIntel,60.24096386,4,1,13,0.068589206,-0.255150011,1,0,0,1.0151,Andesite_07,1,07,2,5,1.015,1,07,-0.399934625,-0.265118137,1,0,0,11.4296,Andesite_rect,1,11.43,1,12,0,12,0,1,,,,,,,,,,,,,
664a60503cd44ff529185b6e,SCR,2024-06-25_12h41.04.066,LearnStrategy,2023.2.3,MacIntel,60.24096386,4,1,14,-0.367038167,0.386544189,1,0,0,1.4659,Pegmatite_06,6,06,6,2,1.466,6,06,-0.140762533,-0.390189616,1,0,0,6.9245,Pegmatite_rect,6,6.925,1,13,0,13,0,1,,,,,,,,,,,,,
664a60503cd44ff529185b6e,SCR,2024-06-25_12h41.04.066,LearnStrategy,2023.2.3,MacIntel,60.24096386,4,1,15,0.257567071,0.400318502,1,0,0,1.1804,Obsidian_12,5,12,6,6,1.18,5,12,-0.424823914,-0.396566501,1,0,0,1.0742,Obsidian_rect,5,1.074,1,14,0,14,0,1,,,,,,,,,,,,,
664a60503cd44ff529185b6e,SCR,2024-06-25_12h41.04.066,LearnStrategy,2023.2.3,MacIntel,60.24096386,4,1,16,-0.566609497,0.083365614,1,0,0,1.5653,Gabbro_16,4,16,4,1,1.565,4,16,-0.109221191,-0.245665622,1,0,0,4.1031,Basalt_rect,2,4.103,0,15,0,15,0,1,,,,,,,,,,,,,
664a60503cd44ff529185b6e,SCR,2024-06-25_12h41.04.066,LearnStrategy,2023.2.3,MacIntel,60.24096386,4,2,1,,,,,,,,8,09,,,,,,,,,,,,,8,1.943,1,,,,,,0.410908474,-0.392877129,1,0,0,1.943,Pumice_rect,0,0,0,0,1,
664a60503cd44ff529185b6e,SCR,2024-06-25_12h41.04.066,LearnStrategy,2023.2.3,MacIntel,60.24096386,4,2,2,,,,,,,,4,13,,,,,,,,,,,,,4,10.464,1,,,,,,0.37734904,-0.242332492,1,0,0,10.4637,Gabbro_rect,1,0,1,0,1,
664a60503cd44ff529185b6e,SCR,2024-06-25_12h41.04.066,LearnStrategy,2023.2.3,MacIntel,60.24096386,4,2,3,,,,,,,,3,13,,,,,,,,,,,,,3,17.742,1,,,,,,0.097578532,-0.244085829,1,0,0,17.7421,Diorite_rect,2,0,2,0,1,
664a60503cd44ff529185b6e,SCR,2024-06-25_12h41.04.066,LearnStrategy,2023.2.3,MacIntel,60.24096386,4,2,4,,,,,,,,6,03,,,,,,,,,,,,,7,15.742,0,,,,,,0.133829956,-0.407135484,1,0,0,15.7419,Peridotite_rect,3,0,3,0,1,
664a60503cd44ff529185b6e,SCR,2024-06-25_12h41.04.066,LearnStrategy,2023.2.3,MacIntel,60.24096386,4,2,5,,,,,,,,4,05,,,,,,,,,,,,,6,13.335,0,,,,,,-0.194790649,-0.416270549,1,0,0,13.3355,Pegmatite_rect,4,0,4,0,1,
664a60503cd44ff529185b6e,SCR,2024-06-25_12h41.04.066,LearnStrategy,2023.2.3,MacIntel,60.24096386,4,2,6,,,,,,,,2,12,,,,,,,,,,,,,2,8.987,1,,,,,,-0.14629971,-0.253143514,1,0,0,8.987,Basalt_rect,5,0,5,0,1,
664a60503cd44ff529185b6e,SCR,2024-06-25_12h41.04.066,LearnStrategy,2023.2.3,MacIntel,60.24096386,4,2,7,,,,,,,,5,05,,,,,,,,,,,,,5,1.57,1,,,,,,-0.347222731,-0.387694092,1,0,0,1.57,Obsidian_rect,6,0,6,0,1,
664a60503cd44ff529185b6e,SCR,2024-06-25_12h41.04.066,LearnStrategy,2023.2.3,MacIntel,60.24096386,4,2,8,,,,,,,,8,04,,,,,,,,,,,,,8,1.58,1,,,,,,0.421964111,-0.408499349,1,0,0,1.5803,Pumice_rect,7,0,7,0,1,
664a60503cd44ff529185b6e,SCR,2024-06-25_12h41.04.066,LearnStrategy,2023.2.3,MacIntel,60.24096386,4,2,9,,,,,,,,1,05,,,,,,,,,,,,,6,15.404,0,,,,,,-0.124163547,-0.403599447,1,0,0,15.4042,Pegmatite_rect,8,0,8,0,1,
664a60503cd44ff529185b6e,SCR,2024-06-25_12h41.04.066,LearnStrategy,2023.2.3,MacIntel,60.24096386,4,2,10,,,,,,,,5,08,,,,,,,,,,,,,5,2.058,1,,,,,,-0.357614746,-0.403188341,1,0,0,2.0577,Obsidian_rect,9,0,9,0,1,
664a60503cd44ff529185b6e,SCR,2024-06-25_12h41.04.066,LearnStrategy,2023.2.3,MacIntel,60.24096386,4,2,11,,,,,,,,1,02,,,,,,,,,,,,,6,19.812,0,,,,,,-0.19033176,-0.410269504,1,0,0,19.8117,Pegmatite_rect,10,0,10,0,1,
664a60503cd44ff529185b6e,SCR,2024-06-25_12h41.04.066,LearnStrategy,2023.2.3,MacIntel,60.24096386,4,2,12,,,,,,,,7,07,,,,,,,,,,,,,7,1.741,1,,,,,,0.089926826,-0.410890706,1,0,0,1.7414,Peridotite_rect,11,0,11,0,1,
664a60503cd44ff529185b6e,SCR,2024-06-25_12h41.04.066,LearnStrategy,2023.2.3,MacIntel,60.24096386,4,2,13,,,,,,,,7,15,,,,,,,,,,,,,7,1.165,1,,,,,,0.089926826,-0.410890706,1,0,0,1.1651,Peridotite_rect,12,0,12,0,1,
664a60503cd44ff529185b6e,SCR,2024-06-25_12h41.04.066,LearnStrategy,2023.2.3,MacIntel,60.24096386,4,2,14,,,,,,,,6,11,,,,,,,,,,,,,5,3.849,0,,,,,,-0.326563517,-0.407137383,1,0,0,3.8491,Obsidian_rect,13,0,13,0,1,
664a60503cd44ff529185b6e,SCR,2024-06-25_12h41.04.066,LearnStrategy,2023.2.3,MacIntel,60.24096386,4,2,15,,,,,,,,3,14,,,,,,,,,,,,,3,9.327,1,,,,,,0.135208469,-0.267964478,1,0,0,9.3268,Diorite_rect,14,0,14,0,1,
664a60503cd44ff529185b6e,SCR,2024-06-25_12h41.04.066,LearnStrategy,2023.2.3,MacIntel,60.24096386,4,2,16,,,,,,,,2,02,,,,,,,,,,,,,2,7.954,1,,,,,,-0.096066488,-0.253595242,1,0,0,7.9543,Basalt_rect,15,0,15,0,1,
664a60503cd44ff529185b6e,SCR,2024-06-25_12h41.04.066,LearnStrategy,2023.2.3,MacIntel,60.24096386,5,1,1,-0.215639716,0.373048401,1,0,0,2.9484,Gabbro_01,4,01,6,3,2.948,4,01,0.389326308,-0.252978651,1,0,0,13.9727,Gabbro_rect,4,13.973,1,0,0,0,0,1,,,,,,,,,,,,,
664a60503cd44ff529185b6e,SCR,2024-06-25_12h41.04.066,LearnStrategy,2023.2.3,MacIntel,60.24096386,5,1,2,-0.196824409,-0.069832492,1,0,0,1.0311,Diorite_02,3,02,3,3,1.031,3,02,0.081009861,-0.235100369,1,0,0,12.7542,Diorite_rect,3,12.754,1,1,0,1,0,1,,,,,,,,,,,,,
664a60503cd44ff529185b6e,SCR,2024-06-25_12h41.04.066,LearnStrategy,2023.2.3,MacIntel,60.24096386,5,1,3,-0.387669305,0.110393032,1,0,0,1.249,Andesite_14,1,14,4,2,1.249,1,14,-0.361665988,-0.234611884,1,0,0,6.8521,Andesite_rect,1,6.852,1,2,0,2,0,1,,,,,,,,,,,,,
664a60503cd44ff529185b6e,SCR,2024-06-25_12h41.04.066,LearnStrategy,2023.2.3,MacIntel,60.24096386,5,1,4,-0.573047418,-0.377541368,1,0,0,1.3818,Andesite_11,1,11,1,1,1.382,1,11,-0.373657362,-0.251719632,1,0,0,15.6104,Andesite_rect,1,15.61,1,3,0,3,0,1,,,,,,,,,,,,,
664a60503cd44ff529185b6e,SCR,2024-06-25_12h41.04.066,LearnStrategy,2023.2.3,MacIntel,60.24096386,5,1,5,0.195932482,0.060035299,1,0,0,1.0328,Obsidian_09,5,09,4,6,1.033,5,09,-0.421467658,-0.380834418,1,0,0,1.3296,Obsidian_rect,5,1.33,1,4,0,4,0,1,,,,,,,,,,,,,
664a60503cd44ff529185b6e,SCR,2024-06-25_12h41.04.066,LearnStrategy,2023.2.3,MacIntel,60.24096386,5,1,6,0.239604221,-0.094426405,1,0,0,0.9827,Pegmatite_05,6,05,3,6,0.983,6,05,-0.091882595,-0.385901964,1,0,0,8.2753,Pegmatite_rect,6,8.275,1,5,0,5,0,1,,,,,,,,,,,,,
664a60503cd44ff529185b6e,SCR,2024-06-25_12h41.04.066,LearnStrategy,2023.2.3,MacIntel,60.24096386,5,1,7,-0.510709364,0.378152364,1,0,0,1.4816,Andesite_06,1,06,6,1,1.482,1,06,0.393200684,-0.246566976,1,0,0,13.6812,Gabbro_rect,4,13.681,0,6,0,6,0,1,,,,,,,,,,,,,
664a60503cd44ff529185b6e,SCR,2024-06-25_12h41.04.066,LearnStrategy,2023.2.3,MacIntel,60.24096386,5,1,8,-0.559139184,-0.098533936,1,0,0,1.1323,Pegmatite_13,6,13,3,1,1.132,6,13,0.330970323,-0.259888577,1,0,0,12.4895,Gabbro_rect,4,12.489,0,7,0,7,0,1,,,,,,,,,,,,,
664a60503cd44ff529185b6e,SCR,2024-06-25_12h41.04.066,LearnStrategy,2023.2.3,MacIntel,60.24096386,5,1,9,0.059733209,-0.083071696,1,0,0,1.0149,Gabbro_08,4,08,3,5,1.015,4,08,0.383957248,-0.233566623,1,0,0,10.4868,Gabbro_rect,4,10.487,1,8,0,8,0,1,,,,,,,,,,,,,
664a60503cd44ff529185b6e,SCR,2024-06-25_12h41.04.066,LearnStrategy,2023.2.3,MacIntel,60.24096386,5,1,10,-0.057921956,0.247711775,1,0,0,1.0817,Peridotite_12,7,12,5,4,1.082,7,12,0.114600084,-0.408848131,1,0,0,2.0054,Peridotite_rect,7,2.005,1,9,0,9,0,1,,,,,,,,,,,,,
664a60503cd44ff529185b6e,SCR,2024-06-25_12h41.04.066,LearnStrategy,2023.2.3,MacIntel,60.24096386,5,1,11,0.534597846,-0.399003499,1,0,0,1.333,Basalt_05,2,05,1,8,1.333,2,05,-0.173276571,-0.259946493,1,0,0,4.3058,Basalt_rect,2,4.306,1,10,0,10,0,1,,,,,,,,,,,,,
664a60503cd44ff529185b6e,SCR,2024-06-25_12h41.04.066,LearnStrategy,2023.2.3,MacIntel,60.24096386,5,1,12,0.384739176,-0.414012519,1,0,0,1.2964,Pumice_02,8,02,1,7,1.296,8,02,0.40829739,-0.388238458,1,0,0,1.9476,Pumice_rect,8,1.948,1,11,0,11,0,1,,,,,,,,,,,,,
664a60503cd44ff529185b6e,SCR,2024-06-25_12h41.04.066,LearnStrategy,2023.2.3,MacIntel,60.24096386,5,1,13,-0.416188287,-0.411281128,1,0,0,1.3138,Gabbro_15,4,15,1,2,1.314,4,15,-0.103067356,-0.387933078,1,0,0,7.0101,Pegmatite_rect,6,7.01,0,12,0,12,0,1,,,,,,,,,,,,,
664a60503cd44ff529185b6e,SCR,2024-06-25_12h41.04.066,LearnStrategy,2023.2.3,MacIntel,60.24096386,5,1,14,0.59121582,0.422410075,1,0,0,1.3313,Andesite_16,1,16,6,8,1.331,1,16,-0.410013801,-0.270764092,1,0,0,4.3743,Andesite_rect,1,4.374,1,13,0,13,0,1,,,,,,,,,,,,,
664a60503cd44ff529185b6e,SCR,2024-06-25_12h41.04.066,LearnStrategy,2023.2.3,MacIntel,60.24096386,5,1,15,0.186406793,-0.071088392,1,0,0,1.0317,Pegmatite_05,6,05,3,6,1.032,6,05,0.182416585,-0.243347778,1,0,0,4.9886,Diorite_rect,3,4.989,0,14,0,14,0,1,,,,,,,,,,,,,
664a60503cd44ff529185b6e,SCR,2024-06-25_12h41.04.066,LearnStrategy,2023.2.3,MacIntel,60.24096386,5,1,16,0.210024957,-0.081000095,1,0,0,0.9654,Pegmatite_05,6,05,3,6,0.965,6,05,-0.097036675,-0.403439806,1,0,0,2.4765,Pegmatite_rect,6,2.476,1,15,0,15,0,1,,,,,,,,,,,,,
664a60503cd44ff529185b6e,SCR,2024-06-25_12h41.04.066,LearnStrategy,2023.2.3,MacIntel,60.24096386,5,2,1,,,,,,,,1,03,,,,,,,,,,,,,4,12.698,0,,,,,,0.347538384,-0.236253798,1,0,0,12.6981,Gabbro_rect,0,0,0,0,1,
664a60503cd44ff529185b6e,SCR,2024-06-25_12h41.04.066,LearnStrategy,2023.2.3,MacIntel,60.24096386,5,2,2,,,,,,,,7,06,,,,,,,,,,,,,7,2.006,1,,,,,,0.188096313,-0.402499186,1,0,0,2.0064,Peridotite_rect,1,0,1,0,1,
664a60503cd44ff529185b6e,SCR,2024-06-25_12h41.04.066,LearnStrategy,2023.2.3,MacIntel,60.24096386,5,2,3,,,,,,,,3,10,,,,,,,,,,,,,4,24.607,0,,,,,,0.384412299,-0.25597073,1,0,0,24.6069,Gabbro_rect,2,0,2,0,1,
664a60503cd44ff529185b6e,SCR,2024-06-25_12h41.04.066,LearnStrategy,2023.2.3,MacIntel,60.24096386,5,2,4,,,,,,,,6,08,,,,,,,,,,,,,6,21.313,1,,,,,,-0.140570543,-0.388830363,1,0,0,21.3133,Pegmatite_rect,3,0,3,0,1,
664a60503cd44ff529185b6e,SCR,2024-06-25_12h41.04.066,LearnStrategy,2023.2.3,MacIntel,60.24096386,5,2,5,,,,,,,,5,14,,,,,,,,,,,,,5,1.709,1,,,,,,-0.345230645,-0.396745673,1,0,0,1.7092,Obsidian_rect,4,0,4,0,1,
664a60503cd44ff529185b6e,SCR,2024-06-25_12h41.04.066,LearnStrategy,2023.2.3,MacIntel,60.24096386,5,2,6,,,,,,,,8,13,,,,,,,,,,,,,8,5.086,1,,,,,,0.34947876,-0.399399753,1,0,0,5.0863,Pumice_rect,5,0,5,0,1,
664a60503cd44ff529185b6e,SCR,2024-06-25_12h41.04.066,LearnStrategy,2023.2.3,MacIntel,60.24096386,5,2,7,,,,,,,,5,16,,,,,,,,,,,,,5,1.441,1,,,,,,-0.366766425,-0.395007867,1,0,0,1.4408,Obsidian_rect,6,0,6,0,1,
664a60503cd44ff529185b6e,SCR,2024-06-25_12h41.04.066,LearnStrategy,2023.2.3,MacIntel,60.24096386,5,2,8,,,,,,,,7,14,,,,,,,,,,,,,6,12.31,0,,,,,,-0.108586561,-0.401278619,1,0,0,12.31,Pegmatite_rect,7,0,7,0,1,
664a60503cd44ff529185b6e,SCR,2024-06-25_12h41.04.066,LearnStrategy,2023.2.3,MacIntel,60.24096386,5,2,9,,,,,,,,4,11,,,,,,,,,,,,,4,10.332,1,,,,,,0.383107368,-0.23714681,1,0,0,10.3325,Gabbro_rect,8,0,8,0,1,
664a60503cd44ff529185b6e,SCR,2024-06-25_12h41.04.066,LearnStrategy,2023.2.3,MacIntel,60.24096386,5,2,10,,,,,,,,3,07,,,,,,,,,,,,,6,13.405,0,,,,,,-0.060921495,-0.390697767,1,0,0,13.4051,Pegmatite_rect,9,0,9,0,1,
664a60503cd44ff529185b6e,SCR,2024-06-25_12h41.04.066,LearnStrategy,2023.2.3,MacIntel,60.24096386,5,2,11,,,,,,,,8,08,,,,,,,,,,,,,8,10.585,1,,,,,,0.341435818,-0.394183011,1,0,0,10.585,Pumice_rect,10,0,10,0,1,
664a60503cd44ff529185b6e,SCR,2024-06-25_12h41.04.066,LearnStrategy,2023.2.3,MacIntel,60.24096386,5,2,12,,,,,,,,4,12,,,,,,,,,,,,,4,8.092,1,,,,,,0.356937527,-0.233090007,1,0,0,8.0918,Gabbro_rect,11,0,11,0,1,
664a60503cd44ff529185b6e,SCR,2024-06-25_12h41.04.066,LearnStrategy,2023.2.3,MacIntel,60.24096386,5,2,13,,,,,,,,6,10,,,,,,,,,,,,,7,11.195,0,,,,,,0.195985379,-0.394619073,1,0,0,11.1952,Peridotite_rect,12,0,12,0,1,
664a60503cd44ff529185b6e,SCR,2024-06-25_12h41.04.066,LearnStrategy,2023.2.3,MacIntel,60.24096386,5,2,14,,,,,,,,2,06,,,,,,,,,,,,,2,7.108,1,,,,,,-0.110162557,-0.257029215,1,0,0,7.1076,Basalt_rect,13,0,13,0,1,
664a60503cd44ff529185b6e,SCR,2024-06-25_12h41.04.066,LearnStrategy,2023.2.3,MacIntel,60.24096386,5,2,15,,,,,,,,2,11,,,,,,,,,,,,,2,10.858,1,,,,,,-0.110162557,-0.257029215,1,0,0,10.8585,Basalt_rect,14,0,14,0,1,
664a60503cd44ff529185b6e,SCR,2024-06-25_12h41.04.066,LearnStrategy,2023.2.3,MacIntel,60.24096386,5,2,16,,,,,,,,1,01,,,,,,,,,,,,,3,20.895,0,,,,,,0.113449707,-0.254936591,1,0,0,20.8948,Diorite_rect,15,0,15,0,1,
664a60503cd44ff529185b6e,SCR,2024-06-25_12h41.04.066,LearnStrategy,2023.2.3,MacIntel,60.24096386,6,1,1,-0.373182543,0.234654778,1,0,0,1.8326,Basalt_08,2,08,5,2,1.833,2,08,-0.116528185,-0.246178453,1,0,0,5.2541,Basalt_rect,2,5.254,1,0,0,0,0,1,,,,,,,,,,,,,
664a60503cd44ff529185b6e,SCR,2024-06-25_12h41.04.066,LearnStrategy,2023.2.3,MacIntel,60.24096386,6,1,2,-0.523153398,-0.388432482,1,0,0,1.4156,Andesite_11,1,11,1,1,1.416,1,11,-0.385209554,-0.243836466,1,0,0,13.5405,Andesite_rect,1,13.54,1,1,0,1,0,1,,,,,,,,,,,,,
664a60503cd44ff529185b6e,SCR,2024-06-25_12h41.04.066,LearnStrategy,2023.2.3,MacIntel,60.24096386,6,1,3,-0.040063748,0.109770067,1,0,0,0.8484,Diorite_11,3,11,4,4,0.848,3,11,-0.365306193,-0.240654026,1,0,0,19.53,Andesite_rect,1,19.53,0,2,0,2,0,1,,,,,,,,,,,,,
664a60503cd44ff529185b6e,SCR,2024-06-25_12h41.04.066,LearnStrategy,2023.2.3,MacIntel,60.24096386,6,1,4,0.091444906,-0.23660692,1,0,0,1.1321,Andesite_07,1,07,2,5,1.132,1,07,-0.378244222,-0.250824585,1,0,0,7.3569,Andesite_rect,1,7.357,1,3,0,3,0,1,,,,,,,,,,,,,
664a60503cd44ff529185b6e,SCR,2024-06-25_12h41.04.066,LearnStrategy,2023.2.3,MacIntel,60.24096386,6,1,5,-0.369212002,-0.066193814,1,0,0,1.0827,Pegmatite_12,6,12,3,2,1.083,6,12,-0.115982463,-0.394577501,1,0,0,5.7418,Pegmatite_rect,6,5.742,1,4,0,4,0,1,,,,,,,,,,,,,
664a60503cd44ff529185b6e,SCR,2024-06-25_12h41.04.066,LearnStrategy,2023.2.3,MacIntel,60.24096386,6,1,6,-0.369760505,0.387048204,1,0,0,1.2826,Pegmatite_06,6,06,6,2,1.283,6,06,-0.092554864,-0.405512153,1,0,0,7.9237,Pegmatite_rect,6,7.924,1,5,0,5,0,1,,,,,,,,,,,,,
664a60503cd44ff529185b6e,SCR,2024-06-25_12h41.04.066,LearnStrategy,2023.2.3,MacIntel,60.24096386,6,1,7,0.085890164,0.397086063,1,0,0,1.1982,Gabbro_10,4,10,6,5,1.198,4,10,0.395464138,-0.233597276,1,0,0,16.5877,Gabbro_rect,4,16.588,1,6,0,6,0,1,,,,,,,,,,,,,
664a60503cd44ff529185b6e,SCR,2024-06-25_12h41.04.066,LearnStrategy,2023.2.3,MacIntel,60.24096386,6,1,8,0.219756334,-0.406915622,1,0,0,1.298,Diorite_15,3,15,1,6,1.298,3,15,0.106270006,-0.236893311,1,0,0,16.7795,Diorite_rect,3,16.78,1,7,0,7,0,1,,,,,,,,,,,,,
664a60503cd44ff529185b6e,SCR,2024-06-25_12h41.04.066,LearnStrategy,2023.2.3,MacIntel,60.24096386,6,1,9,0.071487427,-0.410229017,1,0,0,1.0814,Peridotite_16,7,16,1,5,1.081,7,16,0.185480889,-0.400750393,1,0,0,4.5099,Peridotite_rect,7,4.51,1,8,0,8,0,1,,,,,,,,,,,,,
664a60503cd44ff529185b6e,SCR,2024-06-25_12h41.04.066,LearnStrategy,2023.2.3,MacIntel,60.24096386,6,1,10,0.049021674,-0.096463081,1,0,0,0.8655,Gabbro_08,4,08,3,5,0.865,4,08,0.364890137,-0.237492676,1,0,0,5.3374,Gabbro_rect,4,5.337,1,9,0,9,0,1,,,,,,,,,,,,,
664a60503cd44ff529185b6e,SCR,2024-06-25_12h41.04.066,LearnStrategy,2023.2.3,MacIntel,60.24096386,6,1,11,0.109417996,0.077583754,1,0,0,0.8979,Obsidian_06,5,06,4,5,0.898,5,06,-0.402420993,-0.403591919,1,0,0,1.2361,Obsidian_rect,5,1.236,1,10,0,10,0,1,,,,,,,,,,,,,
664a60503cd44ff529185b6e,SCR,2024-06-25_12h41.04.066,LearnStrategy,2023.2.3,MacIntel,60.24096386,6,1,12,-0.523377313,0.385392439,1,0,0,1.3138,Andesite_06,1,06,6,1,1.314,1,06,0.41870931,-0.251820475,1,0,0,12.8451,Gabbro_rect,4,12.845,0,11,0,11,0,1,,,,,,,,,,,,,
664a60503cd44ff529185b6e,SCR,2024-06-25_12h41.04.066,LearnStrategy,2023.2.3,MacIntel,60.24096386,6,1,13,0.066778293,-0.252471381,1,0,0,1.0149,Andesite_07,1,07,2,5,1.015,1,07,-0.373476088,-0.244503649,1,0,0,2.5682,Andesite_rect,1,2.568,1,12,0,12,0,1,,,,,,,,,,,,,
664a60503cd44ff529185b6e,SCR,2024-06-25_12h41.04.066,LearnStrategy,2023.2.3,MacIntel,60.24096386,6,1,14,0.061524455,-0.397667847,1,0,0,1.1332,Peridotite_16,7,16,1,5,1.133,7,16,0.119684448,-0.414980672,1,0,0,0.9299,Peridotite_rect,7,0.93,1,13,0,13,0,1,,,,,,,,,,,,,
664a60503cd44ff529185b6e,SCR,2024-06-25_12h41.04.066,LearnStrategy,2023.2.3,MacIntel,60.24096386,6,1,15,-0.339187181,-0.05563107,1,0,0,0.9822,Pegmatite_12,6,12,3,2,0.982,6,12,-0.152710707,-0.395826755,1,0,0,4.099,Pegmatite_rect,6,4.099,1,14,0,14,0,1,,,,,,,,,,,,,
664a60503cd44ff529185b6e,SCR,2024-06-25_12h41.04.066,LearnStrategy,2023.2.3,MacIntel,60.24096386,6,1,16,0.560775825,0.068649631,1,0,0,1.1822,Diorite_09,3,09,4,8,1.182,3,09,-0.362809991,-0.253161214,1,0,0,18.3443,Andesite_rect,1,18.344,0,15,0,15,0,1,,,,,,,,,,,,,
664a60503cd44ff529185b6e,SCR,2024-06-25_12h41.04.066,LearnStrategy,2023.2.3,MacIntel,60.24096386,6,2,1,,,,,,,,5,11,,,,,,,,,,,,,5,1.32,1,,,,,,-0.34823744,-0.379389106,1,0,0,1.3196,Obsidian_rect,0,0,0,0,1,
664a60503cd44ff529185b6e,SCR,2024-06-25_12h41.04.066,LearnStrategy,2023.2.3,MacIntel,60.24096386,6,2,2,,,,,,,,8,10,,,,,,,,,,,,,8,5.143,1,,,,,,0.385274251,-0.397642551,1,0,0,5.1426,Pumice_rect,1,0,1,0,1,
664a60503cd44ff529185b6e,SCR,2024-06-25_12h41.04.066,LearnStrategy,2023.2.3,MacIntel,60.24096386,6,2,3,,,,,,,,4,14,,,,,,,,,,,,,2,4.554,0,,,,,,-0.095366347,-0.234748332,1,0,0,4.554,Basalt_rect,2,0,2,0,1,
664a60503cd44ff529185b6e,SCR,2024-06-25_12h41.04.066,LearnStrategy,2023.2.3,MacIntel,60.24096386,6,2,4,,,,,,,,3,08,,,,,,,,,,,,,3,8.932,1,,,,,,0.161930881,-0.242632514,1,0,0,8.9323,Diorite_rect,3,0,3,0,1,
664a60503cd44ff529185b6e,SCR,2024-06-25_12h41.04.066,LearnStrategy,2023.2.3,MacIntel,60.24096386,6,2,5,,,,,,,,8,16,,,,,,,,,,,,,2,9.092,0,,,,,,-0.060683187,-0.249380425,1,0,0,9.0916,Basalt_rect,4,0,4,0,1,
664a60503cd44ff529185b6e,SCR,2024-06-25_12h41.04.066,LearnStrategy,2023.2.3,MacIntel,60.24096386,6,2,6,,,,,,,,1,10,,,,,,,,,,,,,4,18.161,0,,,,,,0.337649807,-0.241327447,1,0,0,18.1606,Gabbro_rect,5,0,5,0,1,
664a60503cd44ff529185b6e,SCR,2024-06-25_12h41.04.066,LearnStrategy,2023.2.3,MacIntel,60.24096386,6,2,7,,,,,,,,6,15,,,,,,,,,,,,,6,7.028,1,,,,,,-0.14067471,-0.408534682,1,0,0,7.0283,Pegmatite_rect,6,0,6,0,1,
664a60503cd44ff529185b6e,SCR,2024-06-25_12h41.04.066,LearnStrategy,2023.2.3,MacIntel,60.24096386,6,2,8,,,,,,,,7,08,,,,,,,,,,,,,7,1.35,1,,,,,,0.091962958,-0.416844482,1,0,0,1.3503,Peridotite_rect,7,0,7,0,1,
664a60503cd44ff529185b6e,SCR,2024-06-25_12h41.04.066,LearnStrategy,2023.2.3,MacIntel,60.24096386,6,2,9,,,,,,,,2,16,,,,,,,,,,,,,2,4.993,1,,,,,,-0.10641805,-0.256382582,1,0,0,4.9927,Basalt_rect,8,0,8,0,1,
664a60503cd44ff529185b6e,SCR,2024-06-25_12h41.04.066,LearnStrategy,2023.2.3,MacIntel,60.24096386,6,2,10,,,,,,,,7,04,,,,,,,,,,,,,1,12.257,0,,,,,,-0.369859958,-0.260390354,1,0,0,12.2566,Andesite_rect,9,0,9,0,1,
664a60503cd44ff529185b6e,SCR,2024-06-25_12h41.04.066,LearnStrategy,2023.2.3,MacIntel,60.24096386,6,2,11,,,,,,,,5,02,,,,,,,,,,,,,5,1.296,1,,,,,,-0.384118822,-0.404947374,1,0,0,1.2964,Obsidian_rect,10,0,10,0,1,
664a60503cd44ff529185b6e,SCR,2024-06-25_12h41.04.066,LearnStrategy,2023.2.3,MacIntel,60.24096386,6,2,12,,,,,,,,2,01,,,,,,,,,,,,,4,8.36,0,,,,,,0.349683702,-0.239668172,1,0,0,8.3599,Gabbro_rect,11,0,11,0,1,
664a60503cd44ff529185b6e,SCR,2024-06-25_12h41.04.066,LearnStrategy,2023.2.3,MacIntel,60.24096386,6,2,13,,,,,,,,4,09,,,,,,,,,,,,,1,23.181,0,,,,,,-0.334990234,-0.244944458,1,0,0,23.1811,Andesite_rect,12,0,12,0,1,
664a60503cd44ff529185b6e,SCR,2024-06-25_12h41.04.066,LearnStrategy,2023.2.3,MacIntel,60.24096386,6,2,14,,,,,,,,1,04,,,,,,,,,,,,,6,28.375,0,,,,,,-0.108089261,-0.407817044,1,0,0,28.3751,Pegmatite_rect,13,0,13,0,1,
664a60503cd44ff529185b6e,SCR,2024-06-25_12h41.04.066,LearnStrategy,2023.2.3,MacIntel,60.24096386,6,2,15,,,,,,,,6,07,,,,,,,,,,,,,6,14.762,1,,,,,,-0.1447052,-0.401037937,1,0,0,14.7615,Pegmatite_rect,14,0,14,0,1,
664a60503cd44ff529185b6e,SCR,2024-06-25_12h41.04.066,LearnStrategy,2023.2.3,MacIntel,60.24096386,6,2,16,,,,,,,,3,16,,,,,,,,,,,,,3,3.609,1,,,,,,0.104797906,-0.240344781,1,0,0,3.6091,Diorite_rect,15,0,15,0,1,
664a60503cd44ff529185b6e,SCR,2024-06-25_12h41.04.066,LearnStrategy,2023.2.3,MacIntel,60.24096386,7,1,1,-0.260132005,0.400408173,1,0,0,2.1817,Gabbro_01,4,01,6,3,2.182,4,01,0.359455838,-0.245587633,1,0,0,6.7502,Gabbro_rect,4,6.75,1,0,0,0,0,1,,,,,,,,,,,,,
664a60503cd44ff529185b6e,SCR,2024-06-25_12h41.04.066,LearnStrategy,2023.2.3,MacIntel,60.24096386,7,1,2,0.564734294,0.413001506,1,0,0,1.149,Andesite_16,1,16,6,8,1.149,1,16,0.338771294,-0.234587741,1,0,0,14.8737,Gabbro_rect,4,14.874,0,1,0,1,0,1,,,,,,,,,,,,,
664a60503cd44ff529185b6e,SCR,2024-06-25_12h41.04.066,LearnStrategy,2023.2.3,MacIntel,60.24096386,7,1,3,0.585881619,0.256118757,1,0,0,1.3151,Diorite_12,3,12,5,8,1.315,3,12,0.172589789,-0.244045749,1,0,0,1.4,Diorite_rect,3,1.4,1,2,0,2,0,1,,,,,,,,,,,,,
664a60503cd44ff529185b6e,SCR,2024-06-25_12h41.04.066,LearnStrategy,2023.2.3,MacIntel,60.24096386,7,1,4,-0.386262919,-0.224954088,1,0,0,1.3485,Andesite_09,1,09,2,2,1.349,1,09,-0.351835531,-0.259026286,1,0,0,6.638,Andesite_rect,1,6.638,1,3,0,3,0,1,,,,,,,,,,,,,
664a60503cd44ff529185b6e,SCR,2024-06-25_12h41.04.066,LearnStrategy,2023.2.3,MacIntel,60.24096386,7,1,5,-0.527579261,0.217856106,1,0,0,1.1814,Basalt_04,2,04,5,1,1.181,2,04,-0.125349392,-0.236619127,1,0,0,3.7574,Basalt_rect,2,3.757,1,4,0,4,0,1,,,,,,,,,,,,,
664a60503cd44ff529185b6e,SCR,2024-06-25_12h41.04.066,LearnStrategy,2023.2.3,MacIntel,60.24096386,7,1,6,-0.226108398,0.087208388,1,0,0,0.8644,Peridotite_05,7,05,4,3,0.864,7,05,0.157507053,-0.405897352,1,0,0,2.2571,Peridotite_rect,7,2.257,1,5,0,5,0,1,,,,,,,,,,,,,
664a60503cd44ff529185b6e,SCR,2024-06-25_12h41.04.066,LearnStrategy,2023.2.3,MacIntel,60.24096386,7,1,7,0.585149875,0.243765038,1,0,0,0.9823,Diorite_12,3,12,5,8,0.982,3,12,0.136008165,-0.255159641,1,0,0,0.9071,Diorite_rect,3,0.907,1,6,0,6,0,1,,,,,,,,,,,,,
664a60503cd44ff529185b6e,SCR,2024-06-25_12h41.04.066,LearnStrategy,2023.2.3,MacIntel,60.24096386,7,1,8,-0.563439619,-0.397660726,1,0,0,1.1812,Andesite_11,1,11,1,1,1.181,1,11,-0.37332567,-0.257155897,1,0,0,6.9893,Andesite_rect,1,6.989,1,7,0,7,0,1,,,,,,,,,,,,,
664a60503cd44ff529185b6e,SCR,2024-06-25_12h41.04.066,LearnStrategy,2023.2.3,MacIntel,60.24096386,7,1,9,-0.551033325,0.080699938,1,0,0,1.1995,Gabbro_16,4,16,4,1,1.2,4,16,-0.11747796,-0.264283583,1,0,0,4.6566,Basalt_rect,2,4.657,0,8,0,8,0,1,,,,,,,,,,,,,
664a60503cd44ff529185b6e,SCR,2024-06-25_12h41.04.066,LearnStrategy,2023.2.3,MacIntel,60.24096386,7,1,10,-0.20293457,0.23263265,1,0,0,1.1321,Pegmatite_16,6,16,5,3,1.132,6,16,-0.146433919,-0.400621474,1,0,0,8.5443,Pegmatite_rect,6,8.544,1,9,0,9,0,1,,,,,,,,,,,,,
664a60503cd44ff529185b6e,SCR,2024-06-25_12h41.04.066,LearnStrategy,2023.2.3,MacIntel,60.24096386,7,1,11,-0.413954603,-0.389990438,1,0,0,1.1819,Gabbro_15,4,15,1,2,1.182,4,15,0.33585985,-0.241756931,1,0,0,10.09,Gabbro_rect,4,10.09,1,10,0,10,0,1,,,,,,,,,,,,,
664a60503cd44ff529185b6e,SCR,2024-06-25_12h41.04.066,LearnStrategy,2023.2.3,MacIntel,60.24096386,7,1,12,0.220496216,-0.253308919,1,0,0,1.282,Peridotite_13,7,13,2,6,1.282,7,13,0.186331787,-0.399899563,1,0,0,1.9034,Peridotite_rect,7,1.903,1,11,0,11,0,1,,,,,,,,,,,,,
664a60503cd44ff529185b6e,SCR,2024-06-25_12h41.04.066,LearnStrategy,2023.2.3,MacIntel,60.24096386,7,1,13,-0.073290473,-0.083530341,1,0,0,0.8485,Pumice_03,8,03,3,4,0.849,8,03,0.411598579,-0.393022597,1,0,0,1.1423,Pumice_rect,8,1.142,1,12,0,12,0,1,,,,,,,,,,,,,
664a60503cd44ff529185b6e,SCR,2024-06-25_12h41.04.066,LearnStrategy,2023.2.3,MacIntel,60.24096386,7,1,14,0.399192573,0.113880344,1,0,0,0.9318,Basalt_10,2,10,4,7,0.932,2,10,-0.086282959,-0.255334947,1,0,0,6.8257,Basalt_rect,2,6.826,1,13,0,13,0,1,,,,,,,,,,,,,
664a60503cd44ff529185b6e,SCR,2024-06-25_12h41.04.066,LearnStrategy,2023.2.3,MacIntel,60.24096386,7,1,15,-0.360876058,-0.23944614,1,0,0,1.048,Andesite_09,1,09,2,2,1.048,1,09,-0.368446859,-0.244560818,1,0,0,11.6824,Andesite_rect,1,11.682,1,14,0,14,0,1,,,,,,,,,,,,,
664a60503cd44ff529185b6e,SCR,2024-06-25_12h41.04.066,LearnStrategy,2023.2.3,MacIntel,60.24096386,7,1,16,-0.224407416,-0.274373372,1,0,0,0.9654,Pegmatite_09,6,09,2,3,0.965,6,09,-0.106451552,-0.395758938,1,0,0,8.1107,Pegmatite_rect,6,8.111,1,15,0,15,0,1,,,,,,,,,,,,,
664a60503cd44ff529185b6e,SCR,2024-06-25_12h41.04.066,LearnStrategy,2023.2.3,MacIntel,60.24096386,7,2,1,,,,,,,,1,04,,,,,,,,,,,,,6,25.219,0,,,,,,-0.129033881,-0.393236423,1,0,0,25.2186,Pegmatite_rect,0,0,0,0,1,
664a60503cd44ff529185b6e,SCR,2024-06-25_12h41.04.066,LearnStrategy,2023.2.3,MacIntel,60.24096386,7,2,2,,,,,,,,2,11,,,,,,,,,,,,,4,17.456,0,,,,,,0.339074164,-0.249377238,1,0,0,17.4559,Gabbro_rect,1,0,1,0,1,
664a60503cd44ff529185b6e,SCR,2024-06-25_12h41.04.066,LearnStrategy,2023.2.3,MacIntel,60.24096386,7,2,3,,,,,,,,2,12,,,,,,,,,,,,,4,3.93,0,,,,,,0.363324382,-0.242329373,1,0,0,3.9299,Gabbro_rect,2,0,2,0,1,
664a60503cd44ff529185b6e,SCR,2024-06-25_12h41.04.066,LearnStrategy,2023.2.3,MacIntel,60.24096386,7,2,4,,,,,,,,6,08,,,,,,,,,,,,,6,22.216,1,,,,,,-0.112429131,-0.392452257,1,0,0,22.2157,Pegmatite_rect,3,0,3,0,1,
664a60503cd44ff529185b6e,SCR,2024-06-25_12h41.04.066,LearnStrategy,2023.2.3,MacIntel,60.24096386,7,2,5,,,,,,,,7,04,,,,,,,,,,,,,1,5.223,0,,,,,,-0.363798692,-0.256053196,1,0,0,5.2231,Andesite_rect,4,0,4,0,1,
664a60503cd44ff529185b6e,SCR,2024-06-25_12h41.04.066,LearnStrategy,2023.2.3,MacIntel,60.24096386,7,2,6,,,,,,,,5,08,,,,,,,,,,,,,5,1.17,1,,,,,,-0.34695265,-0.407465346,1,0,0,1.1698,Obsidian_rect,5,0,5,0,1,
664a60503cd44ff529185b6e,SCR,2024-06-25_12h41.04.066,LearnStrategy,2023.2.3,MacIntel,60.24096386,7,2,7,,,,,,,,5,11,,,,,,,,,,,,,5,0.737,1,,,,,,-0.34695265,-0.407465346,1,0,0,0.7371,Obsidian_rect,6,0,6,0,1,
664a60503cd44ff529185b6e,SCR,2024-06-25_12h41.04.066,LearnStrategy,2023.2.3,MacIntel,60.24096386,7,2,8,,,,,,,,6,03,,,,,,,,,,,,,7,2.819,0,,,,,,0.121781684,-0.395355767,1,0,0,2.8193,Peridotite_rect,7,0,7,0,1,
664a60503cd44ff529185b6e,SCR,2024-06-25_12h41.04.066,LearnStrategy,2023.2.3,MacIntel,60.24096386,7,2,9,,,,,,,,3,08,,,,,,,,,,,,,3,1.704,1,,,,,,0.121781684,-0.261714478,1,0,0,1.7043,Diorite_rect,8,0,8,0,1,
664a60503cd44ff529185b6e,SCR,2024-06-25_12h41.04.066,LearnStrategy,2023.2.3,MacIntel,60.24096386,7,2,10,,,,,,,,8,10,,,,,,,,,,,,,8,2.788,1,,,,,,0.314681464,-0.393182644,1,0,0,2.7879,Pumice_rect,9,0,9,0,1,
664a60503cd44ff529185b6e,SCR,2024-06-25_12h41.04.066,LearnStrategy,2023.2.3,MacIntel,60.24096386,7,2,11,,,,,,,,1,05,,,,,,,,,,,,,7,3.979,0,,,,,,0.170382826,-0.402651367,1,0,0,3.9794,Peridotite_rect,10,0,10,0,1,
664a60503cd44ff529185b6e,SCR,2024-06-25_12h41.04.066,LearnStrategy,2023.2.3,MacIntel,60.24096386,7,2,12,,,,,,,,4,12,,,,,,,,,,,,,4,9.342,1,,,,,,0.31935886,-0.25446913,1,0,0,9.3416,Gabbro_rect,11,0,11,0,1,
664a60503cd44ff529185b6e,SCR,2024-06-25_12h41.04.066,LearnStrategy,2023.2.3,MacIntel,60.24096386,7,2,13,,,,,,,,4,11,,,,,,,,,,,,,4,1.164,1,,,,,,0.31935886,-0.25446913,1,0,0,1.1645,Gabbro_rect,12,0,12,0,1,
664a60503cd44ff529185b6e,SCR,2024-06-25_12h41.04.066,LearnStrategy,2023.2.3,MacIntel,60.24096386,7,2,14,,,,,,,,8,09,,,,,,,,,,,,,8,1.438,1,,,,,,0.372967801,-0.394863281,1,0,0,1.4382,Pumice_rect,13,0,13,0,1,
664a60503cd44ff529185b6e,SCR,2024-06-25_12h41.04.066,LearnStrategy,2023.2.3,MacIntel,60.24096386,7,2,15,,,,,,,,7,07,,,,,,,,,,,,,7,1.262,1,,,,,,0.23659417,-0.405222575,1,0,0,1.262,Peridotite_rect,14,0,14,0,1,
664a60503cd44ff529185b6e,SCR,2024-06-25_12h41.04.066,LearnStrategy,2023.2.3,MacIntel,60.24096386,7,2,16,,,,,,,,3,13,,,,,,,,,,,,,3,20.03,1,,,,,,0.181748793,-0.257603353,1,0,0,20.0301,Diorite_rect,15,0,15,0,1,
664a60503cd44ff529185b6e,SCR,2024-06-25_12h41.04.066,LearnStrategy,2023.2.3,MacIntel,60.24096386,8,1,1,-0.368703376,0.09666843,1,0,0,1.5821,Andesite_14,1,14,4,2,1.582,1,14,-0.420129055,-0.229368083,1,0,0,8.4931,Andesite_rect,1,8.493,1,0,0,0,0,1,,,,,,,,,,,,,
664a60503cd44ff529185b6e,SCR,2024-06-25_12h41.04.066,LearnStrategy,2023.2.3,MacIntel,60.24096386,8,1,2,-0.067151964,0.392642093,1,0,0,1.2657,Pumice_06,8,06,6,4,1.266,8,06,0.402058377,-0.416546021,1,0,0,1.1789,Pumice_rect,8,1.179,1,1,0,1,0,1,,,,,,,,,,,,,
664a60503cd44ff529185b6e,SCR,2024-06-25_12h41.04.066,LearnStrategy,2023.2.3,MacIntel,60.24096386,8,1,3,-0.52596344,-0.386293877,1,0,0,1.2157,Andesite_11,1,11,1,1,1.216,1,11,0.382997504,-0.268401693,1,0,0,5.1437,Gabbro_rect,4,5.144,0,2,0,2,0,1,,,,,,,,,,,,,
664a60503cd44ff529185b6e,SCR,2024-06-25_12h41.04.066,LearnStrategy,2023.2.3,MacIntel,60.24096386,8,1,4,0.068142768,-0.093296238,1,0,0,0.765,Gabbro_08,4,08,3,5,0.765,4,08,0.400588108,-0.256415541,1,0,0,6.6786,Gabbro_rect,4,6.679,1,3,0,3,0,1,,,,,,,,,,,,,
664a60503cd44ff529185b6e,SCR,2024-06-25_12h41.04.066,LearnStrategy,2023.2.3,MacIntel,60.24096386,8,1,5,-0.568836839,0.401544495,1,0,0,1.182,Andesite_06,1,06,6,1,1.182,1,06,-0.380043572,-0.251910672,1,0,0,4.3176,Andesite_rect,1,4.318,1,4,0,4,0,1,,,,,,,,,,,,,
664a60503cd44ff529185b6e,SCR,2024-06-25_12h41.04.066,LearnStrategy,2023.2.3,MacIntel,60.24096386,8,1,6,0.204326104,-0.228308919,1,0,0,0.9817,Peridotite_13,7,13,2,6,0.982,7,13,0.162062717,-0.392762722,1,0,0,0.6391,Peridotite_rect,7,0.639,1,5,0,5,0,1,,,,,,,,,,,,,
664a60503cd44ff529185b6e,SCR,2024-06-25_12h41.04.066,LearnStrategy,2023.2.3,MacIntel,60.24096386,8,1,7,-0.04007331,0.060894945,1,0,0,0.8486,Diorite_11,3,11,4,4,0.849,3,11,0.117505154,-0.253971558,1,0,0,1.1241,Diorite_rect,3,1.124,1,6,0,6,0,1,,,,,,,,,,,,,
664a60503cd44ff529185b6e,SCR,2024-06-25_12h41.04.066,LearnStrategy,2023.2.3,MacIntel,60.24096386,8,1,8,-0.558070017,-0.385781589,1,0,0,1.2144,Andesite_11,1,11,1,1,1.214,1,11,-0.428578966,-0.259866469,1,0,0,1.3519,Andesite_rect,1,1.352,1,7,0,7,0,1,,,,,,,,,,,,,
664a60503cd44ff529185b6e,SCR,2024-06-25_12h41.04.066,LearnStrategy,2023.2.3,MacIntel,60.24096386,8,1,9,-0.379094815,0.378284081,1,0,0,1.149,Pegmatite_06,6,06,6,2,1.149,6,06,-0.075228339,-0.385426568,1,0,0,5.7867,Pegmatite_rect,6,5.787,1,8,0,8,0,1,,,,,,,,,,,,,
664a60503cd44ff529185b6e,SCR,2024-06-25_12h41.04.066,LearnStrategy,2023.2.3,MacIntel,60.24096386,8,1,10,0.549723036,-0.109133165,1,0,0,1.1485,Obsidian_07,5,07,3,8,1.148,5,07,-0.418515828,-0.414210748,1,0,0,1.0577,Obsidian_rect,5,1.058,1,9,0,9,0,1,,,,,,,,,,,,,
664a60503cd44ff529185b6e,SCR,2024-06-25_12h41.04.066,LearnStrategy,2023.2.3,MacIntel,60.24096386,8,1,11,0.555321994,-0.254238688,1,0,0,1.1321,Basalt_14,2,14,2,8,1.132,2,14,-0.150241225,-0.23470364,1,0,0,4.219,Basalt_rect,2,4.219,1,10,0,10,0,1,,,,,,,,,,,,,
664a60503cd44ff529185b6e,SCR,2024-06-25_12h41.04.066,LearnStrategy,2023.2.3,MacIntel,60.24096386,8,1,12,0.264221056,-0.226455146,1,0,0,0.9652,Peridotite_13,7,13,2,6,0.965,7,13,0.171967367,-0.39277242,1,0,0,0.6215,Peridotite_rect,7,0.621,1,11,0,11,0,1,,,,,,,,,,,,,
664a60503cd44ff529185b6e,SCR,2024-06-25_12h41.04.066,LearnStrategy,2023.2.3,MacIntel,60.24096386,8,1,13,0.424130859,0.105094198,1,0,0,1.1327,Basalt_10,2,10,4,7,1.133,2,10,-0.080981717,-0.250636936,1,0,0,2.5717,Basalt_rect,2,2.572,1,12,0,12,0,1,,,,,,,,,,,,,
664a60503cd44ff529185b6e,SCR,2024-06-25_12h41.04.066,LearnStrategy,2023.2.3,MacIntel,60.24096386,8,1,14,0.099861857,0.452195943,1,0,0,1.2822,Gabbro_10,4,10,6,5,1.282,4,10,0.370152452,-0.235791694,1,0,0,2.5443,Gabbro_rect,4,2.544,1,13,0,13,0,1,,,,,,,,,,,,,
664a60503cd44ff529185b6e,SCR,2024-06-25_12h41.04.066,LearnStrategy,2023.2.3,MacIntel,60.24096386,8,1,15,-0.554394803,0.229004381,1,0,0,1.0651,Basalt_04,2,04,5,1,1.065,2,04,-0.080671794,-0.231457791,1,0,0,2.8295,Basalt_rect,2,2.83,1,14,0,14,0,1,,,,,,,,,,,,,
664a60503cd44ff529185b6e,SCR,2024-06-25_12h41.04.066,LearnStrategy,2023.2.3,MacIntel,60.24096386,8,1,16,0.226286214,-0.071538493,1,0,0,0.8315,Pegmatite_05,6,05,3,6,0.832,6,05,0.118127577,-0.266637641,1,0,0,1.281,Diorite_rect,3,1.281,0,15,0,15,0,1,,,,,,,,,,,,,
664a60503cd44ff529185b6e,SCR,2024-06-25_12h41.04.066,LearnStrategy,2023.2.3,MacIntel,60.24096386,8,2,1,,,,,,,,6,15,,,,,,,,,,,,,6,5.804,1,,,,,,-0.184679159,-0.401902534,1,0,0,5.8043,Pegmatite_rect,0,0,0,0,1,
664a60503cd44ff529185b6e,SCR,2024-06-25_12h41.04.066,LearnStrategy,2023.2.3,MacIntel,60.24096386,8,2,2,,,,,,,,2,02,,,,,,,,,,,,,1,11.274,0,,,,,,-0.318428684,-0.243927612,1,0,0,11.2737,Andesite_rect,1,0,1,0,1,
664a60503cd44ff529185b6e,SCR,2024-06-25_12h41.04.066,LearnStrategy,2023.2.3,MacIntel,60.24096386,8,2,3,,,,,,,,5,02,,,,,,,,,,,,,5,1.265,1,,,,,,-0.342418688,-0.411094428,1,0,0,1.2653,Obsidian_rect,2,0,2,0,1,
664a60503cd44ff529185b6e,SCR,2024-06-25_12h41.04.066,LearnStrategy,2023.2.3,MacIntel,60.24096386,8,2,4,,,,,,,,7,15,,,,,,,,,,,,,7,1.313,1,,,,,,0.122338189,-0.417818604,1,0,0,1.3127,Peridotite_rect,3,0,3,0,1,
664a60503cd44ff529185b6e,SCR,2024-06-25_12h41.04.066,LearnStrategy,2023.2.3,MacIntel,60.24096386,8,2,5,,,,,,,,7,14,,,,,,,,,,,,,6,10.098,0,,,,,,-0.09948622,-0.405981988,1,0,0,10.0979,Pegmatite_rect,4,0,4,0,1,
664a60503cd44ff529185b6e,SCR,2024-06-25_12h41.04.066,LearnStrategy,2023.2.3,MacIntel,60.24096386,8,2,6,,,,,,,,1,02,,,,,,,,,,,,,3,15.994,0,,,,,,0.175074531,-0.237334391,1,0,0,15.9936,Diorite_rect,5,0,5,0,1,
664a60503cd44ff529185b6e,SCR,2024-06-25_12h41.04.066,LearnStrategy,2023.2.3,MacIntel,60.24096386,8,2,7,,,,,,,,1,01,,,,,,,,,,,,,1,11.081,1,,,,,,-0.369744161,-0.239393107,1,0,0,11.0807,Andesite_rect,6,0,6,0,1,
664a60503cd44ff529185b6e,SCR,2024-06-25_12h41.04.066,LearnStrategy,2023.2.3,MacIntel,60.24096386,8,2,8,,,,,,,,4,05,,,,,,,,,,,,,6,6.165,0,,,,,,-0.085943264,-0.393143785,1,0,0,6.1647,Pegmatite_rect,7,0,7,0,1,
664a60503cd44ff529185b6e,SCR,2024-06-25_12h41.04.066,LearnStrategy,2023.2.3,MacIntel,60.24096386,8,2,9,,,,,,,,8,16,,,,,,,,,,,,,2,6.173,0,,,,,,-0.144853719,-0.263369276,1,0,0,6.1734,Basalt_rect,8,0,8,0,1,
664a60503cd44ff529185b6e,SCR,2024-06-25_12h41.04.066,LearnStrategy,2023.2.3,MacIntel,60.24096386,8,2,10,,,,,,,,8,13,,,,,,,,,,,,,8,2.056,1,,,,,,0.391699626,-0.412591078,1,0,0,2.0564,Pumice_rect,9,0,9,0,1,
664a60503cd44ff529185b6e,SCR,2024-06-25_12h41.04.066,LearnStrategy,2023.2.3,MacIntel,60.24096386,8,2,11,,,,,,,,3,14,,,,,,,,,,,,,3,3.144,1,,,,,,0.204639282,-0.238187256,1,0,0,3.1442,Diorite_rect,10,0,10,0,1,
664a60503cd44ff529185b6e,SCR,2024-06-25_12h41.04.066,LearnStrategy,2023.2.3,MacIntel,60.24096386,8,2,12,,,,,,,,5,14,,,,,,,,,,,,,5,1.352,1,,,,,,-0.347527907,-0.398097263,1,0,0,1.3521,Obsidian_rect,11,0,11,0,1,
664a60503cd44ff529185b6e,SCR,2024-06-25_12h41.04.066,LearnStrategy,2023.2.3,MacIntel,60.24096386,8,2,13,,,,,,,,4,09,,,,,,,,,,,,,4,45.394,1,,,,,,0.411677924,-0.259256727,1,0,0,45.3939,Gabbro_rect,12,0,12,0,1,
664a60503cd44ff529185b6e,SCR,2024-06-25_12h41.04.066,LearnStrategy,2023.2.3,MacIntel,60.24096386,8,2,14,,,,,,,,6,11,,,,,,,,,,,,,5,5.148,0,,,,,,-0.381441379,-0.394630466,1,0,0,5.1477,Obsidian_rect,13,0,13,0,1,
664a60503cd44ff529185b6e,SCR,2024-06-25_12h41.04.066,LearnStrategy,2023.2.3,MacIntel,60.24096386,8,2,15,,,,,,,,3,07,,,,,,,,,,,,,3,3.887,1,,,,,,0.112067939,-0.249731581,1,0,0,3.8875,Diorite_rect,14,0,14,0,1,
664a60503cd44ff529185b6e,SCR,2024-06-25_12h41.04.066,LearnStrategy,2023.2.3,MacIntel,60.24096386,8,2,16,,,,,,,,2,01,,,,,,,,,,,,,4,11.605,0,,,,,,0.39056939,-0.243223674,1,0,0,11.6048,Gabbro_rect,15,0,15,0,1,
664a60503cd44ff529185b6e,SCR,2024-06-25_12h41.04.066,LearnStrategy,2023.2.3,MacIntel,60.24096386,9,1,1,-0.077681817,-0.393543091,1,0,0,1.7977,Basalt_09,2,09,1,4,1.798,2,09,-0.12788303,-0.389751112,1,0,0,3.7871,Pegmatite_rect,6,3.787,0,0,0,0,0,1,,,,,,,,,,,,,
664a60503cd44ff529185b6e,SCR,2024-06-25_12h41.04.066,LearnStrategy,2023.2.3,MacIntel,60.24096386,9,1,2,0.567618815,0.371472388,1,0,0,1.2664,Andesite_16,1,16,6,8,1.266,1,16,-0.384786174,-0.24831387,1,0,0,3.0186,Andesite_rect,1,3.019,1,1,0,1,0,1,,,,,,,,,,,,,
664a60503cd44ff529185b6e,SCR,2024-06-25_12h41.04.066,LearnStrategy,2023.2.3,MacIntel,60.24096386,9,1,3,0.254520196,0.387936588,1,0,0,1.1317,Obsidian_12,5,12,6,6,1.132,5,12,-0.415607096,-0.381276042,1,0,0,0.9815,Obsidian_rect,5,0.982,1,2,0,2,0,1,,,,,,,,,,,,,
664a60503cd44ff529185b6e,SCR,2024-06-25_12h41.04.066,LearnStrategy,2023.2.3,MacIntel,60.24096386,9,1,4,0.209321832,-0.250604723,1,0,0,0.9655,Peridotite_13,7,13,2,6,0.965,7,13,0.161127048,-0.415631782,1,0,0,1.0857,Peridotite_rect,7,1.086,1,3,0,3,0,1,,,,,,,,,,,,,
664a60503cd44ff529185b6e,SCR,2024-06-25_12h41.04.066,LearnStrategy,2023.2.3,MacIntel,60.24096386,9,1,5,-0.388175591,-0.252671034,1,0,0,1.1324,Andesite_09,1,09,2,2,1.132,1,09,-0.42530348,-0.244049954,1,0,0,6.0463,Andesite_rect,1,6.046,1,4,0,4,0,1,,,,,,,,,,,,,
664a60503cd44ff529185b6e,SCR,2024-06-25_12h41.04.066,LearnStrategy,2023.2.3,MacIntel,60.24096386,9,1,6,0.081647407,0.400965542,1,0,0,1.0988,Gabbro_10,4,10,6,5,1.099,4,10,-0.151915215,-0.403892958,1,0,0,15.2994,Pegmatite_rect,6,15.299,0,5,0,5,0,1,,,,,,,,,,,,,
664a60503cd44ff529185b6e,SCR,2024-06-25_12h41.04.066,LearnStrategy,2023.2.3,MacIntel,60.24096386,9,1,7,-0.386901889,-0.261791517,1,0,0,1.0994,Andesite_09,1,09,2,2,1.099,1,09,-0.36068512,-0.255454102,1,0,0,4.3038,Andesite_rect,1,4.304,1,6,0,6,0,1,,,,,,,,,,,,,
664a60503cd44ff529185b6e,SCR,2024-06-25_12h41.04.066,LearnStrategy,2023.2.3,MacIntel,60.24096386,9,1,8,-0.367772827,0.399025981,1,0,0,1.3152,Pegmatite_06,6,06,6,2,1.315,6,06,-0.133767361,-0.399807875,1,0,0,7.0394,Pegmatite_rect,6,7.039,1,7,0,7,0,1,,,,,,,,,,,,,
664a60503cd44ff529185b6e,SCR,2024-06-25_12h41.04.066,LearnStrategy,2023.2.3,MacIntel,60.24096386,9,1,9,-0.379201253,0.400783488,1,0,0,1.0655,Pegmatite_06,6,06,6,2,1.065,6,06,-0.123427599,-0.416850179,1,0,0,1.0947,Pegmatite_rect,6,1.095,1,8,0,8,0,1,,,,,,,,,,,,,
664a60503cd44ff529185b6e,SCR,2024-06-25_12h41.04.066,LearnStrategy,2023.2.3,MacIntel,60.24096386,9,1,10,-0.394687703,-0.082068753,1,0,0,1.0658,Pegmatite_12,6,12,3,2,1.066,6,12,-0.146738688,-0.392754042,1,0,0,3.9215,Pegmatite_rect,6,3.921,1,9,0,9,0,1,,,,,,,,,,,,,
664a60503cd44ff529185b6e,SCR,2024-06-25_12h41.04.066,LearnStrategy,2023.2.3,MacIntel,60.24096386,9,1,11,0.065065036,0.382088318,1,0,0,1.1824,Gabbro_10,4,10,6,5,1.182,4,10,0.402331,-0.246404215,1,0,0,6.9748,Gabbro_rect,4,6.975,1,10,0,10,0,1,,,,,,,,,,,,,
664a60503cd44ff529185b6e,SCR,2024-06-25_12h41.04.066,LearnStrategy,2023.2.3,MacIntel,60.24096386,9,1,12,0.508761258,-0.395069105,1,0,0,1.232,Basalt_05,2,05,1,8,1.232,2,05,-0.077011312,-0.268177151,1,0,0,6.641,Basalt_rect,2,6.641,1,11,0,11,0,1,,,,,,,,,,,,,
664a60503cd44ff529185b6e,SCR,2024-06-25_12h41.04.066,LearnStrategy,2023.2.3,MacIntel,60.24096386,9,1,13,-0.550479787,-0.25491767,1,0,0,1.0984,Diorite_06,3,06,2,1,1.098,3,06,0.117939724,-0.263168606,1,0,0,1.3898,Diorite_rect,3,1.39,1,12,0,12,0,1,,,,,,,,,,,,,
664a60503cd44ff529185b6e,SCR,2024-06-25_12h41.04.066,LearnStrategy,2023.2.3,MacIntel,60.24096386,9,1,14,-0.413265516,0.240431078,1,0,0,1.0815,Basalt_08,2,08,5,2,1.082,2,08,-0.134840766,-0.260444539,1,0,0,3.9915,Basalt_rect,2,3.992,1,13,0,13,0,1,,,,,,,,,,,,,
664a60503cd44ff529185b6e,SCR,2024-06-25_12h41.04.066,LearnStrategy,2023.2.3,MacIntel,60.24096386,9,1,15,-0.06275628,-0.087352159,1,0,0,0.8148,Pumice_03,8,03,3,4,0.815,8,03,0.415095079,-0.402994588,1,0,0,1.0936,Pumice_rect,8,1.094,1,14,0,14,0,1,,,,,,,,,,,,,
664a60503cd44ff529185b6e,SCR,2024-06-25_12h41.04.066,LearnStrategy,2023.2.3,MacIntel,60.24096386,9,1,16,0.102864176,-0.41940667,1,0,0,1.1497,Peridotite_16,7,16,1,5,1.15,7,16,0.125879313,-0.407364366,1,0,0,0.8449,Peridotite_rect,7,0.845,1,15,0,15,0,1,,,,,,,,,,,,,
664a60503cd44ff529185b6e,SCR,2024-06-25_12h41.04.066,LearnStrategy,2023.2.3,MacIntel,60.24096386,9,2,1,,,,,,,,3,16,,,,,,,,,,,,,3,2.023,1,,,,,,0.112994588,-0.239288805,1,0,0,2.0228,Diorite_rect,0,0,0,0,1,
664a60503cd44ff529185b6e,SCR,2024-06-25_12h41.04.066,LearnStrategy,2023.2.3,MacIntel,60.24096386,9,2,2,,,,,,,,5,05,,,,,,,,,,,,,5,1.371,1,,,,,,-0.341775784,-0.394524672,1,0,0,1.3706,Obsidian_rect,1,0,1,0,1,
664a60503cd44ff529185b6e,SCR,2024-06-25_12h41.04.066,LearnStrategy,2023.2.3,MacIntel,60.24096386,9,2,3,,,,,,,,2,16,,,,,,,,,,,,,2,6.824,1,,,,,,-0.119373644,-0.262742174,1,0,0,6.8241,Basalt_rect,2,0,2,0,1,
664a60503cd44ff529185b6e,SCR,2024-06-25_12h41.04.066,LearnStrategy,2023.2.3,MacIntel,60.24096386,9,2,4,,,,,,,,4,14,,,,,,,,,,,,,4,19.471,1,,,,,,0.377025418,-0.230658569,1,0,0,19.4708,Gabbro_rect,3,0,3,0,1,
664a60503cd44ff529185b6e,SCR,2024-06-25_12h41.04.066,LearnStrategy,2023.2.3,MacIntel,60.24096386,9,2,5,,,,,,,,7,08,,,,,,,,,,,,,7,1.213,1,,,,,,0.092780287,-0.395013902,1,0,0,1.2129,Peridotite_rect,4,0,4,0,1,
664a60503cd44ff529185b6e,SCR,2024-06-25_12h41.04.066,LearnStrategy,2023.2.3,MacIntel,60.24096386,9,2,6,,,,,,,,6,10,,,,,,,,,,,,,7,9.106,0,,,,,,0.092780287,-0.395013902,1,0,0,9.1061,Peridotite_rect,5,0,5,0,1,
664a60503cd44ff529185b6e,SCR,2024-06-25_12h41.04.066,LearnStrategy,2023.2.3,MacIntel,60.24096386,9,2,7,,,,,,,,7,06,,,,,,,,,,,,,7,1.151,1,,,,,,0.092780287,-0.395013902,1,0,0,1.151,Peridotite_rect,6,0,6,0,1,
664a60503cd44ff529185b6e,SCR,2024-06-25_12h41.04.066,LearnStrategy,2023.2.3,MacIntel,60.24096386,9,2,8,,,,,,,,2,06,,,,,,,,,,,,,2,4.712,1,,,,,,-0.089349433,-0.267872111,1,0,0,4.7118,Basalt_rect,7,0,7,0,1,
664a60503cd44ff529185b6e,SCR,2024-06-25_12h41.04.066,LearnStrategy,2023.2.3,MacIntel,60.24096386,9,2,9,,,,,,,,5,16,,,,,,,,,,,,,5,1.274,1,,,,,,-0.322764893,-0.395174425,1,0,0,1.2737,Obsidian_rect,8,0,8,0,1,
664a60503cd44ff529185b6e,SCR,2024-06-25_12h41.04.066,LearnStrategy,2023.2.3,MacIntel,60.24096386,9,2,10,,,,,,,,6,07,,,,,,,,,,,,,1,29.115,0,,,,,,-0.337406718,-0.259809842,1,0,0,29.1148,Andesite_rect,9,0,9,0,1,
664a60503cd44ff529185b6e,SCR,2024-06-25_12h41.04.066,LearnStrategy,2023.2.3,MacIntel,60.24096386,9,2,11,,,,,,,,3,10,,,,,,,,,,,,,1,15.698,0,,,,,,-0.337406718,-0.259809842,1,0,0,15.6985,Andesite_rect,10,0,10,0,1,
664a60503cd44ff529185b6e,SCR,2024-06-25_12h41.04.066,LearnStrategy,2023.2.3,MacIntel,60.24096386,9,2,12,,,,,,,,1,10,,,,,,,,,,,,,1,17.262,1,,,,,,-0.337406718,-0.259809842,1,0,0,17.2624,Andesite_rect,11,0,11,0,1,
664a60503cd44ff529185b6e,SCR,2024-06-25_12h41.04.066,LearnStrategy,2023.2.3,MacIntel,60.24096386,9,2,13,,,,,,,,8,08,,,,,,,,,,,,,8,2.178,1,,,,,,0.397646484,-0.404768609,1,0,0,2.1784,Pumice_rect,12,0,12,0,1,
664a60503cd44ff529185b6e,SCR,2024-06-25_12h41.04.066,LearnStrategy,2023.2.3,MacIntel,60.24096386,9,2,14,,,,,,,,4,13,,,,,,,,,,,,,4,15.331,1,,,,,,0.39909573,-0.253523153,1,0,0,15.3314,Gabbro_rect,13,0,13,0,1,
664a60503cd44ff529185b6e,SCR,2024-06-25_12h41.04.066,LearnStrategy,2023.2.3,MacIntel,60.24096386,9,2,15,,,,,,,,8,04,,,,,,,,,,,,,8,1.336,1,,,,,,0.372119412,-0.394927639,1,0,0,1.3357,Pumice_rect,14,0,14,0,1,
664a60503cd44ff529185b6e,SCR,2024-06-25_12h41.04.066,LearnStrategy,2023.2.3,MacIntel,60.24096386,9,2,16,,,,,,,,1,03,,,,,,,,,,,,,4,13.562,0,,,,,,0.475269911,-0.270009969,1,0,0,13.5622,Gabbro_rect,15,0,15,0,1,
664a60503cd44ff529185b6e,SCR,2024-06-25_12h41.04.066,LearnStrategy,2023.2.3,MacIntel,60.24096386,,,,,,,,,,,,,,,,,,,,,,,,,,,,,,,,,,,,,,,,,,,,,0
664a60503cd44ff529185b6e,SCR,2024-06-25_12h41.04.066,LearnStrategy,2023.2.3,MacIntel,60.24096386,,,,,,,,,,,,,,,,,,,,,,,,,,,,,,,,,,,,,,,,,,,,,
664a60503cd44ff529185b6e,SCR,2024-06-25_12h41.04.066,LearnStrategy,2023.2.3,MacIntel,60.24096386,,,,,,,,,,,1,11,1,1,,,,,,,,,,,,,,,,,,,,,,,,,,,,,,,
664a60503cd44ff529185b6e,SCR,2024-06-25_12h41.04.066,LearnStrategy,2023.2.3,MacIntel,60.24096386,,,,,,,,,,,4,15,1,2,,,,,,,,,,,,,,,,,,,,,,,,,,,,,,,
664a60503cd44ff529185b6e,SCR,2024-06-25_12h41.04.066,LearnStrategy,2023.2.3,MacIntel,60.24096386,,,,,,,,,,,7,02,1,3,,,,,,,,,,,,,,,,,,,,,,,,,,,,,,,
664a60503cd44ff529185b6e,SCR,2024-06-25_12h41.04.066,LearnStrategy,2023.2.3,MacIntel,60.24096386,,,,,,,,,,,2,09,1,4,,,,,,,,,,,,,,,,,,,,,,,,,,,,,,,
664a60503cd44ff529185b6e,SCR,2024-06-25_12h41.04.066,LearnStrategy,2023.2.3,MacIntel,60.24096386,,,,,,,,,,,7,16,1,5,,,,,,,,,,,,,,,,,,,,,,,,,,,,,,,
664a60503cd44ff529185b6e,SCR,2024-06-25_12h41.04.066,LearnStrategy,2023.2.3,MacIntel,60.24096386,,,,,,,,,,,3,15,1,6,,,,,,,,,,,,,,,,,,,,,,,,,,,,,,,
664a60503cd44ff529185b6e,SCR,2024-06-25_12h41.04.066,LearnStrategy,2023.2.3,MacIntel,60.24096386,,,,,,,,,,,8,02,1,7,,,,,,,,,,,,,,,,,,,,,,,,,,,,,,,
664a60503cd44ff529185b6e,SCR,2024-06-25_12h41.04.066,LearnStrategy,2023.2.3,MacIntel,60.24096386,,,,,,,,,,,2,05,1,8,,,,,,,,,,,,,,,,,,,,,,,,,,,,,,,
664a60503cd44ff529185b6e,SCR,2024-06-25_12h41.04.066,LearnStrategy,2023.2.3,MacIntel,60.24096386,,,,,,,,,,,3,06,2,1,,,,,,,,,,,,,,,,,,,,,,,,,,,,,,,
664a60503cd44ff529185b6e,SCR,2024-06-25_12h41.04.066,LearnStrategy,2023.2.3,MacIntel,60.24096386,,,,,,,,,,,1,09,2,2,,,,,,,,,,,,,,,,,,,,,,,,,,,,,,,
664a60503cd44ff529185b6e,SCR,2024-06-25_12h41.04.066,LearnStrategy,2023.2.3,MacIntel,60.24096386,,,,,,,,,,,6,09,2,3,,,,,,,,,,,,,,,,,,,,,,,,,,,,,,,
664a60503cd44ff529185b6e,SCR,2024-06-25_12h41.04.066,LearnStrategy,2023.2.3,MacIntel,60.24096386,,,,,,,,,,,7,10,2,4,,,,,,,,,,,,,,,,,,,,,,,,,,,,,,,
664a60503cd44ff529185b6e,SCR,2024-06-25_12h41.04.066,LearnStrategy,2023.2.3,MacIntel,60.24096386,,,,,,,,,,,1,07,2,5,,,,,,,,,,,,,,,,,,,,,,,,,,,,,,,
664a60503cd44ff529185b6e,SCR,2024-06-25_12h41.04.066,LearnStrategy,2023.2.3,MacIntel,60.24096386,,,,,,,,,,,7,13,2,6,,,,,,,,,,,,,,,,,,,,,,,,,,,,,,,
664a60503cd44ff529185b6e,SCR,2024-06-25_12h41.04.066,LearnStrategy,2023.2.3,MacIntel,60.24096386,,,,,,,,,,,4,03,2,7,,,,,,,,,,,,,,,,,,,,,,,,,,,,,,,
664a60503cd44ff529185b6e,SCR,2024-06-25_12h41.04.066,LearnStrategy,2023.2.3,MacIntel,60.24096386,,,,,,,,,,,2,14,2,8,,,,,,,,,,,,,,,,,,,,,,,,,,,,,,,
664a60503cd44ff529185b6e,SCR,2024-06-25_12h41.04.066,LearnStrategy,2023.2.3,MacIntel,60.24096386,,,,,,,,,,,6,13,3,1,,,,,,,,,,,,,,,,,,,,,,,,,,,,,,,
664a60503cd44ff529185b6e,SCR,2024-06-25_12h41.04.066,LearnStrategy,2023.2.3,MacIntel,60.24096386,,,,,,,,,,,6,12,3,2,,,,,,,,,,,,,,,,,,,,,,,,,,,,,,,
664a60503cd44ff529185b6e,SCR,2024-06-25_12h41.04.066,LearnStrategy,2023.2.3,MacIntel,60.24096386,,,,,,,,,,,3,02,3,3,,,,,,,,,,,,,,,,,,,,,,,,,,,,,,,
664a60503cd44ff529185b6e,SCR,2024-06-25_12h41.04.066,LearnStrategy,2023.2.3,MacIntel,60.24096386,,,,,,,,,,,8,03,3,4,,,,,,,,,,,,,,,,,,,,,,,,,,,,,,,
664a60503cd44ff529185b6e,SCR,2024-06-25_12h41.04.066,LearnStrategy,2023.2.3,MacIntel,60.24096386,,,,,,,,,,,4,08,3,5,,,,,,,,,,,,,,,,,,,,,,,,,,,,,,,
664a60503cd44ff529185b6e,SCR,2024-06-25_12h41.04.066,LearnStrategy,2023.2.3,MacIntel,60.24096386,,,,,,,,,,,6,05,3,6,,,,,,,,,,,,,,,,,,,,,,,,,,,,,,,
664a60503cd44ff529185b6e,SCR,2024-06-25_12h41.04.066,LearnStrategy,2023.2.3,MacIntel,60.24096386,,,,,,,,,,,5,04,3,7,,,,,,,,,,,,,,,,,,,,,,,,,,,,,,,
664a60503cd44ff529185b6e,SCR,2024-06-25_12h41.04.066,LearnStrategy,2023.2.3,MacIntel,60.24096386,,,,,,,,,,,5,07,3,8,,,,,,,,,,,,,,,,,,,,,,,,,,,,,,,
664a60503cd44ff529185b6e,SCR,2024-06-25_12h41.04.066,LearnStrategy,2023.2.3,MacIntel,60.24096386,,,,,,,,,,,4,16,4,1,,,,,,,,,,,,,,,,,,,,,,,,,,,,,,,
664a60503cd44ff529185b6e,SCR,2024-06-25_12h41.04.066,LearnStrategy,2023.2.3,MacIntel,60.24096386,,,,,,,,,,,1,14,4,2,,,,,,,,,,,,,,,,,,,,,,,,,,,,,,,
664a60503cd44ff529185b6e,SCR,2024-06-25_12h41.04.066,LearnStrategy,2023.2.3,MacIntel,60.24096386,,,,,,,,,,,7,05,4,3,,,,,,,,,,,,,,,,,,,,,,,,,,,,,,,
664a60503cd44ff529185b6e,SCR,2024-06-25_12h41.04.066,LearnStrategy,2023.2.3,MacIntel,60.24096386,,,,,,,,,,,3,11,4,4,,,,,,,,,,,,,,,,,,,,,,,,,,,,,,,
664a60503cd44ff529185b6e,SCR,2024-06-25_12h41.04.066,LearnStrategy,2023.2.3,MacIntel,60.24096386,,,,,,,,,,,5,06,4,5,,,,,,,,,,,,,,,,,,,,,,,,,,,,,,,
664a60503cd44ff529185b6e,SCR,2024-06-25_12h41.04.066,LearnStrategy,2023.2.3,MacIntel,60.24096386,,,,,,,,,,,5,09,4,6,,,,,,,,,,,,,,,,,,,,,,,,,,,,,,,
664a60503cd44ff529185b6e,SCR,2024-06-25_12h41.04.066,LearnStrategy,2023.2.3,MacIntel,60.24096386,,,,,,,,,,,2,10,4,7,,,,,,,,,,,,,,,,,,,,,,,,,,,,,,,
664a60503cd44ff529185b6e,SCR,2024-06-25_12h41.04.066,LearnStrategy,2023.2.3,MacIntel,60.24096386,,,,,,,,,,,3,09,4,8,,,,,,,,,,,,,,,,,,,,,,,,,,,,,,,
664a60503cd44ff529185b6e,SCR,2024-06-25_12h41.04.066,LearnStrategy,2023.2.3,MacIntel,60.24096386,,,,,,,,,,,2,04,5,1,,,,,,,,,,,,,,,,,,,,,,,,,,,,,,,
664a60503cd44ff529185b6e,SCR,2024-06-25_12h41.04.066,LearnStrategy,2023.2.3,MacIntel,60.24096386,,,,,,,,,,,2,08,5,2,,,,,,,,,,,,,,,,,,,,,,,,,,,,,,,
664a60503cd44ff529185b6e,SCR,2024-06-25_12h41.04.066,LearnStrategy,2023.2.3,MacIntel,60.24096386,,,,,,,,,,,6,16,5,3,,,,,,,,,,,,,,,,,,,,,,,,,,,,,,,
664a60503cd44ff529185b6e,SCR,2024-06-25_12h41.04.066,LearnStrategy,2023.2.3,MacIntel,60.24096386,,,,,,,,,,,7,12,5,4,,,,,,,,,,,,,,,,,,,,,,,,,,,,,,,
664a60503cd44ff529185b6e,SCR,2024-06-25_12h41.04.066,LearnStrategy,2023.2.3,MacIntel,60.24096386,,,,,,,,,,,8,15,5,5,,,,,,,,,,,,,,,,,,,,,,,,,,,,,,,
664a60503cd44ff529185b6e,SCR,2024-06-25_12h41.04.066,LearnStrategy,2023.2.3,MacIntel,60.24096386,,,,,,,,,,,5,10,5,6,,,,,,,,,,,,,,,,,,,,,,,,,,,,,,,
664a60503cd44ff529185b6e,SCR,2024-06-25_12h41.04.066,LearnStrategy,2023.2.3,MacIntel,60.24096386,,,,,,,,,,,8,05,5,7,,,,,,,,,,,,,,,,,,,,,,,,,,,,,,,
664a60503cd44ff529185b6e,SCR,2024-06-25_12h41.04.066,LearnStrategy,2023.2.3,MacIntel,60.24096386,,,,,,,,,,,3,12,5,8,,,,,,,,,,,,,,,,,,,,,,,,,,,,,,,
664a60503cd44ff529185b6e,SCR,2024-06-25_12h41.04.066,LearnStrategy,2023.2.3,MacIntel,60.24096386,,,,,,,,,,,1,06,6,1,,,,,,,,,,,,,,,,,,,,,,,,,,,,,,,
664a60503cd44ff529185b6e,SCR,2024-06-25_12h41.04.066,LearnStrategy,2023.2.3,MacIntel,60.24096386,,,,,,,,,,,6,06,6,2,,,,,,,,,,,,,,,,,,,,,,,,,,,,,,,
664a60503cd44ff529185b6e,SCR,2024-06-25_12h41.04.066,LearnStrategy,2023.2.3,MacIntel,60.24096386,,,,,,,,,,,4,01,6,3,,,,,,,,,,,,,,,,,,,,,,,,,,,,,,,
664a60503cd44ff529185b6e,SCR,2024-06-25_12h41.04.066,LearnStrategy,2023.2.3,MacIntel,60.24096386,,,,,,,,,,,8,06,6,4,,,,,,,,,,,,,,,,,,,,,,,,,,,,,,,
664a60503cd44ff529185b6e,SCR,2024-06-25_12h41.04.066,LearnStrategy,2023.2.3,MacIntel,60.24096386,,,,,,,,,,,4,10,6,5,,,,,,,,,,,,,,,,,,,,,,,,,,,,,,,
664a60503cd44ff529185b6e,SCR,2024-06-25_12h41.04.066,LearnStrategy,2023.2.3,MacIntel,60.24096386,,,,,,,,,,,5,12,6,6,,,,,,,,,,,,,,,,,,,,,,,,,,,,,,,
664a60503cd44ff529185b6e,SCR,2024-06-25_12h41.04.066,LearnStrategy,2023.2.3,MacIntel,60.24096386,,,,,,,,,,,8,14,6,7,,,,,,,,,,,,,,,,,,,,,,,,,,,,,,,
664a60503cd44ff529185b6e,SCR,2024-06-25_12h41.04.066,LearnStrategy,2023.2.3,MacIntel,60.24096386,,,,,,,,,,,1,16,6,8,,,,,,,,,,,,,,,,,,,,,,,,,,,,,,,