participant,condition,date,expName,psychopyVersion,OS,frameRate,block,phase,trial,learn_mouse.x,learn_mouse.y,learn_mouse.leftButton,learn_mouse.midButton,learn_mouse.rightButton,learn_mouse.time,learn_mouse.clicked_name,cat,token,row,col,t_select,cat_mouse_l.x,cat_mouse_l.y,cat_mouse_l.leftButton,cat_mouse_l.midButton,cat_mouse_l.rightButton,cat_mouse_l.time,cat_mouse_l.clicked_name,resp,t_resp,corr,train_trials.thisRepN,train_trials.thisTrialN,train_trials.thisN,train_trials.thisIndex,train_trials.ran,cat_mouse_t.x,cat_mouse_t.y,cat_mouse_t.leftButton,cat_mouse_t.midButton,cat_mouse_t.rightButton,cat_mouse_t.time,cat_mouse_t.clicked_name,test_trials.thisRepN,test_trials.thisTrialN,test_trials.thisN,test_trials.thisIndex,test_trials.ran,Bonus
664b804f02ee82829c916d49,SCN,2024-06-26_18h14.51.564,LearnStrategy,2023.2.3,Win32,59.52380952,,,,,,,,,,,,,,,,,,,,,,,,,,,,,,,,,,,,,,,,,,,
664b804f02ee82829c916d49,SCN,2024-06-26_18h14.51.564,LearnStrategy,2023.2.3,Win32,59.52380952,1,1,1,-0.075520833,0.083333333,1,0,0,3.3543,Basalt_05,2,05,4,4,3.354,-0.083333333,-0.236979167,1,0,0,1.0113,Basalt_rect,2,1.011,1,0,0,0,0,1,,,,,,,,,,,,,
664b804f02ee82829c916d49,SCN,2024-06-26_18h14.51.564,LearnStrategy,2023.2.3,Win32,59.52380952,1,1,2,0.130208333,-0.09765625,1,0,0,3.2273,Andesite_10,1,10,3,5,3.227,0.161458333,-0.268229167,1,0,0,0.8424,Diorite_rect,3,0.842,0,1,0,1,0,1,,,,,,,,,,,,,
664b804f02ee82829c916d49,SCN,2024-06-26_18h14.51.564,LearnStrategy,2023.2.3,Win32,59.52380952,1,1,3,0.235677083,0.104166667,1,0,0,0.7591,Pumice_02,8,02,4,6,0.759,0.098958333,-0.25390625,1,0,0,0.7445,Diorite_rect,3,0.745,0,2,0,2,0,1,,,,,,,,,,,,,
664b804f02ee82829c916d49,SCN,2024-06-26_18h14.51.564,LearnStrategy,2023.2.3,Win32,59.52380952,1,1,4,0.42578125,-0.126302083,1,0,0,2.2105,Peridotite_16,7,16,3,7,2.21,0.416666667,-0.395833333,1,0,0,1.1951,Pumice_rect,8,1.195,0,3,0,3,0,1,,,,,,,,,,,,,
664b804f02ee82829c916d49,SCN,2024-06-26_18h14.51.564,LearnStrategy,2023.2.3,Win32,59.52380952,1,1,5,0.233072917,0.221354167,1,0,0,0.9944,Peridotite_13,7,13,5,6,0.994,0.154947917,-0.248697917,1,0,0,0.868,Diorite_rect,3,0.868,0,4,0,4,0,1,,,,,,,,,,,,,
664b804f02ee82829c916d49,SCN,2024-06-26_18h14.51.564,LearnStrategy,2023.2.3,Win32,59.52380952,1,1,6,0.049479167,0.110677083,1,0,0,0.8312,Gabbro_10,4,10,4,5,0.831,-0.1171875,-0.3828125,1,0,0,1.3657,Pegmatite_rect,6,1.366,0,5,0,5,0,1,,,,,,,,,,,,,
664b804f02ee82829c916d49,SCN,2024-06-26_18h14.51.564,LearnStrategy,2023.2.3,Win32,59.52380952,1,1,7,-0.22265625,0.283854167,1,0,0,1.6068,Pegmatite_06,6,06,5,3,1.607,0.11328125,-0.256510417,1,0,0,1.0545,Diorite_rect,3,1.055,0,6,0,6,0,1,,,,,,,,,,,,,
664b804f02ee82829c916d49,SCN,2024-06-26_18h14.51.564,LearnStrategy,2023.2.3,Win32,59.52380952,1,1,8,-0.25390625,0.100260417,1,0,0,1.2601,Gabbro_01,4,01,4,3,1.26,-0.203125,-0.25,1,0,0,0.6704,Basalt_rect,2,0.67,0,7,0,7,0,1,,,,,,,,,,,,,
664b804f02ee82829c916d49,SCN,2024-06-26_18h14.51.564,LearnStrategy,2023.2.3,Win32,59.52380952,1,1,9,-0.40625,-0.119791667,1,0,0,0.7769,Peridotite_05,7,05,3,2,0.777,-0.059895833,-0.393229167,1,0,0,0.9949,Pegmatite_rect,6,0.995,0,8,0,8,0,1,,,,,,,,,,,,,
664b804f02ee82829c916d49,SCN,2024-06-26_18h14.51.564,LearnStrategy,2023.2.3,Win32,59.52380952,1,1,10,0.365885417,-0.0703125,1,0,0,1.1121,Peridotite_16,7,16,3,7,1.112,0.359375,-0.235677083,1,0,0,0.5662,Gabbro_rect,4,0.566,0,9,0,9,0,1,,,,,,,,,,,,,
664b804f02ee82829c916d49,SCN,2024-06-26_18h14.51.564,LearnStrategy,2023.2.3,Win32,59.52380952,1,1,11,0.393229167,0.286458333,1,0,0,2.233,Pegmatite_09,6,09,5,7,2.233,0.358072917,-0.248697917,1,0,0,1.055,Gabbro_rect,4,1.055,0,10,0,10,0,1,,,,,,,,,,,,,
664b804f02ee82829c916d49,SCN,2024-06-26_18h14.51.564,LearnStrategy,2023.2.3,Win32,59.52380952,1,1,12,-0.052083333,0.223958333,1,0,0,2.1463,Obsidian_10,5,10,5,4,2.146,0.3984375,-0.24609375,1,0,0,1.3067,Gabbro_rect,4,1.307,0,11,0,11,0,1,,,,,,,,,,,,,
664b804f02ee82829c916d49,SCN,2024-06-26_18h14.51.564,LearnStrategy,2023.2.3,Win32,59.52380952,1,1,13,-0.104166667,0.29296875,1,0,0,0.7458,Obsidian_10,5,10,5,4,0.746,-0.361979167,-0.380208333,1,0,0,1.8661,Obsidian_rect,5,1.866,1,12,0,12,0,1,,,,,,,,,,,,,
664b804f02ee82829c916d49,SCN,2024-06-26_18h14.51.564,LearnStrategy,2023.2.3,Win32,59.52380952,1,1,14,-0.072916667,0.092447917,1,0,0,0.9404,Basalt_05,2,05,4,4,0.94,0.091145833,-0.38671875,1,0,0,1.3486,Peridotite_rect,7,1.349,0,13,0,13,0,1,,,,,,,,,,,,,
664b804f02ee82829c916d49,SCN,2024-06-26_18h14.51.564,LearnStrategy,2023.2.3,Win32,59.52380952,1,1,15,-0.049479167,0.2421875,1,0,0,1.0009,Obsidian_10,5,10,5,4,1.001,-0.372395833,-0.389322917,1,0,0,1.4037,Obsidian_rect,5,1.404,1,14,0,14,0,1,,,,,,,,,,,,,
664b804f02ee82829c916d49,SCN,2024-06-26_18h14.51.564,LearnStrategy,2023.2.3,Win32,59.52380952,1,1,16,0.119791667,0.083333333,1,0,0,0.7757,Gabbro_10,4,10,4,5,0.776,-0.3515625,-0.412760417,1,0,0,0.937,Obsidian_rect,5,0.937,0,15,0,15,0,1,,,,,,,,,,,,,
664b804f02ee82829c916d49,SCN,2024-06-26_18h14.51.564,LearnStrategy,2023.2.3,Win32,59.52380952,1,2,1,,,,,,,,4,09,,,,,,,,,,,4,1.838,1,,,,,,0.381510417,-0.2578125,1,0,0,1.838,Gabbro_rect,0,0,0,0,1,
664b804f02ee82829c916d49,SCN,2024-06-26_18h14.51.564,LearnStrategy,2023.2.3,Win32,59.52380952,1,2,2,,,,,,,,2,16,,,,,,,,,,,3,1.185,0,,,,,,0.037760417,-0.26953125,1,0,0,1.1854,Diorite_rect,1,0,1,0,1,
664b804f02ee82829c916d49,SCN,2024-06-26_18h14.51.564,LearnStrategy,2023.2.3,Win32,59.52380952,1,2,3,,,,,,,,4,11,,,,,,,,,,,6,0.341,0,,,,,,-0.065104167,-0.407552083,1,0,0,0.3411,Pegmatite_rect,2,0,2,0,1,
664b804f02ee82829c916d49,SCN,2024-06-26_18h14.51.564,LearnStrategy,2023.2.3,Win32,59.52380952,1,2,4,,,,,,,,2,08,,,,,,,,,,,2,0.712,1,,,,,,-0.118489583,-0.252604167,1,0,0,0.7123,Basalt_rect,3,0,3,0,1,
664b804f02ee82829c916d49,SCN,2024-06-26_18h14.51.564,LearnStrategy,2023.2.3,Win32,59.52380952,1,2,5,,,,,,,,5,07,,,,,,,,,,,4,1.084,0,,,,,,0.39453125,-0.248697917,1,0,0,1.0845,Gabbro_rect,4,0,4,0,1,
664b804f02ee82829c916d49,SCN,2024-06-26_18h14.51.564,LearnStrategy,2023.2.3,Win32,59.52380952,1,2,6,,,,,,,,7,15,,,,,,,,,,,7,1.24,1,,,,,,0.170572917,-0.388020833,1,0,0,1.2397,Peridotite_rect,5,0,5,0,1,
664b804f02ee82829c916d49,SCN,2024-06-26_18h14.51.564,LearnStrategy,2023.2.3,Win32,59.52380952,1,2,7,,,,,,,,8,15,,,,,,,,,,,3,1.014,0,,,,,,0.118489583,-0.243489583,1,0,0,1.0136,Diorite_rect,6,0,6,0,1,
664b804f02ee82829c916d49,SCN,2024-06-26_18h14.51.564,LearnStrategy,2023.2.3,Win32,59.52380952,1,2,8,,,,,,,,7,06,,,,,,,,,,,4,0.856,0,,,,,,0.408854167,-0.264322917,1,0,0,0.8562,Gabbro_rect,7,0,7,0,1,
664b804f02ee82829c916d49,SCN,2024-06-26_18h14.51.564,LearnStrategy,2023.2.3,Win32,59.52380952,1,2,9,,,,,,,,3,06,,,,,,,,,,,1,0.996,0,,,,,,-0.33984375,-0.244791667,1,0,0,0.9961,Andesite_rect,8,0,8,0,1,
664b804f02ee82829c916d49,SCN,2024-06-26_18h14.51.564,LearnStrategy,2023.2.3,Win32,59.52380952,1,2,10,,,,,,,,6,15,,,,,,,,,,,6,2.958,1,,,,,,-0.118489583,-0.390625,1,0,0,2.9584,Pegmatite_rect,9,0,9,0,1,
664b804f02ee82829c916d49,SCN,2024-06-26_18h14.51.564,LearnStrategy,2023.2.3,Win32,59.52380952,1,2,11,,,,,,,,6,05,,,,,,,,,,,3,1.122,0,,,,,,0.122395833,-0.235677083,1,0,0,1.1224,Diorite_rect,10,0,10,0,1,
664b804f02ee82829c916d49,SCN,2024-06-26_18h14.51.564,LearnStrategy,2023.2.3,Win32,59.52380952,1,2,12,,,,,,,,8,06,,,,,,,,,,,8,1.292,1,,,,,,0.3203125,-0.399739583,1,0,0,1.2923,Pumice_rect,11,0,11,0,1,
664b804f02ee82829c916d49,SCN,2024-06-26_18h14.51.564,LearnStrategy,2023.2.3,Win32,59.52380952,1,2,13,,,,,,,,1,14,,,,,,,,,,,8,1.426,0,,,,,,0.361979167,-0.404947917,1,0,0,1.4261,Pumice_rect,12,0,12,0,1,
664b804f02ee82829c916d49,SCN,2024-06-26_18h14.51.564,LearnStrategy,2023.2.3,Win32,59.52380952,1,2,14,,,,,,,,3,12,,,,,,,,,,,8,2.031,0,,,,,,0.321614583,-0.403645833,1,0,0,2.0307,Pumice_rect,13,0,13,0,1,
664b804f02ee82829c916d49,SCN,2024-06-26_18h14.51.564,LearnStrategy,2023.2.3,Win32,59.52380952,1,2,15,,,,,,,,5,12,,,,,,,,,,,4,1.051,0,,,,,,0.348958333,-0.235677083,1,0,0,1.0506,Gabbro_rect,14,0,14,0,1,
664b804f02ee82829c916d49,SCN,2024-06-26_18h14.51.564,LearnStrategy,2023.2.3,Win32,59.52380952,1,2,16,,,,,,,,1,04,,,,,,,,,,,1,0.918,1,,,,,,-0.440104167,-0.255208333,1,0,0,0.9175,Andesite_rect,15,0,15,0,1,
664b804f02ee82829c916d49,SCN,2024-06-26_18h14.51.564,LearnStrategy,2023.2.3,Win32,59.52380952,2,1,1,-0.080729167,0.25390625,1,0,0,3.0768,Obsidian_10,5,10,5,4,3.077,0.326822917,-0.229166667,1,0,0,1.0688,Gabbro_rect,4,1.069,0,0,0,0,0,1,,,,,,,,,,,,,
664b804f02ee82829c916d49,SCN,2024-06-26_18h14.51.564,LearnStrategy,2023.2.3,Win32,59.52380952,2,1,2,-0.092447917,0.216145833,1,0,0,1.0447,Obsidian_10,5,10,5,4,1.045,-0.4296875,-0.419270833,1,0,0,0.8634,Obsidian_rect,5,0.863,1,1,0,1,0,1,,,,,,,,,,,,,
664b804f02ee82829c916d49,SCN,2024-06-26_18h14.51.564,LearnStrategy,2023.2.3,Win32,59.52380952,2,1,3,-0.5234375,0.12890625,1,0,0,1.1062,Peridotite_14,7,14,4,1,1.106,0.1484375,-0.388020833,1,0,0,1.245,Peridotite_rect,7,1.245,1,2,0,2,0,1,,,,,,,,,,,,,
664b804f02ee82829c916d49,SCN,2024-06-26_18h14.51.564,LearnStrategy,2023.2.3,Win32,59.52380952,2,1,4,0.397135417,0.1015625,1,0,0,1.9889,Obsidian_05,5,05,4,7,1.989,0.373697917,-0.408854167,1,0,0,1.3708,Pumice_rect,8,1.371,0,3,0,3,0,1,,,,,,,,,,,,,
664b804f02ee82829c916d49,SCN,2024-06-26_18h14.51.564,LearnStrategy,2023.2.3,Win32,59.52380952,2,1,5,0.37890625,0.1015625,1,0,0,1.0304,Obsidian_05,5,05,4,7,1.03,-0.3203125,-0.391927083,1,0,0,1.8155,Obsidian_rect,5,1.816,1,4,0,4,0,1,,,,,,,,,,,,,
664b804f02ee82829c916d49,SCN,2024-06-26_18h14.51.564,LearnStrategy,2023.2.3,Win32,59.52380952,2,1,6,0.09375,0.260416667,1,0,0,0.8156,Andesite_11,1,11,5,5,0.816,-0.12109375,-0.3984375,1,0,0,1.7648,Pegmatite_rect,6,1.765,0,5,0,5,0,1,,,,,,,,,,,,,
664b804f02ee82829c916d49,SCN,2024-06-26_18h14.51.564,LearnStrategy,2023.2.3,Win32,59.52380952,2,1,7,-0.233072917,0.243489583,1,0,0,0.9413,Pegmatite_06,6,06,5,3,0.941,-0.171875,-0.416666667,1,0,0,1.2362,Pegmatite_rect,6,1.236,1,6,0,6,0,1,,,,,,,,,,,,,
664b804f02ee82829c916d49,SCN,2024-06-26_18h14.51.564,LearnStrategy,2023.2.3,Win32,59.52380952,2,1,8,-0.216145833,-0.266927083,1,0,0,0.8732,Pumice_03,8,03,2,3,0.873,-0.098958333,-0.393229167,1,0,0,1.141,Pegmatite_rect,6,1.141,0,7,0,7,0,1,,,,,,,,,,,,,
664b804f02ee82829c916d49,SCN,2024-06-26_18h14.51.564,LearnStrategy,2023.2.3,Win32,59.52380952,2,1,9,-0.233072917,-0.247395833,1,0,0,0.9131,Pumice_03,8,03,2,3,0.913,0.3515625,-0.3828125,1,0,0,1.6813,Pumice_rect,8,1.681,1,8,0,8,0,1,,,,,,,,,,,,,
664b804f02ee82829c916d49,SCN,2024-06-26_18h14.51.564,LearnStrategy,2023.2.3,Win32,59.52380952,2,1,10,-0.56640625,-0.126302083,1,0,0,0.8703,Diorite_13,3,13,3,1,0.87,0.119791667,-0.41796875,1,0,0,1.1806,Peridotite_rect,7,1.181,0,9,0,9,0,1,,,,,,,,,,,,,
664b804f02ee82829c916d49,SCN,2024-06-26_18h14.51.564,LearnStrategy,2023.2.3,Win32,59.52380952,2,1,11,-0.56640625,-0.088541667,1,0,0,1.3641,Diorite_13,3,13,3,1,1.364,0.067708333,-0.256510417,1,0,0,1.3141,Diorite_rect,3,1.314,1,10,0,10,0,1,,,,,,,,,,,,,
664b804f02ee82829c916d49,SCN,2024-06-26_18h14.51.564,LearnStrategy,2023.2.3,Win32,59.52380952,2,1,12,-0.25390625,0.236979167,1,0,0,0.8094,Pegmatite_06,6,06,5,3,0.809,0.170572917,-0.251302083,1,0,0,1.5678,Diorite_rect,3,1.568,0,11,0,11,0,1,,,,,,,,,,,,,
664b804f02ee82829c916d49,SCN,2024-06-26_18h14.51.564,LearnStrategy,2023.2.3,Win32,59.52380952,2,1,13,-0.375,0.21875,1,0,0,0.9621,Obsidian_14,5,14,5,2,0.962,0.1484375,-0.395833333,1,0,0,1.442,Peridotite_rect,7,1.442,0,12,0,12,0,1,,,,,,,,,,,,,
664b804f02ee82829c916d49,SCN,2024-06-26_18h14.51.564,LearnStrategy,2023.2.3,Win32,59.52380952,2,1,14,-0.095052083,0.25,1,0,0,0.8794,Obsidian_10,5,10,5,4,0.879,-0.376302083,-0.40625,1,0,0,2.1022,Obsidian_rect,5,2.102,1,13,0,13,0,1,,,,,,,,,,,,,
664b804f02ee82829c916d49,SCN,2024-06-26_18h14.51.564,LearnStrategy,2023.2.3,Win32,59.52380952,2,1,15,0.115885417,0.095052083,1,0,0,1.5896,Gabbro_10,4,10,4,5,1.59,-0.416666667,-0.259114583,1,0,0,1.2885,Andesite_rect,1,1.288,0,14,0,14,0,1,,,,,,,,,,,,,
664b804f02ee82829c916d49,SCN,2024-06-26_18h14.51.564,LearnStrategy,2023.2.3,Win32,59.52380952,2,1,16,0.083333333,0.108072917,1,0,0,0.7689,Gabbro_10,4,10,4,5,0.769,0.451822917,-0.233072917,1,0,0,0.8596,Gabbro_rect,4,0.86,1,15,0,15,0,1,,,,,,,,,,,,,
664b804f02ee82829c916d49,SCN,2024-06-26_18h14.51.564,LearnStrategy,2023.2.3,Win32,59.52380952,2,2,1,,,,,,,,4,13,,,,,,,,,,,3,1.124,0,,,,,,0.125,-0.264322917,1,0,0,1.124,Diorite_rect,0,0,0,0,1,
664b804f02ee82829c916d49,SCN,2024-06-26_18h14.51.564,LearnStrategy,2023.2.3,Win32,59.52380952,2,2,2,,,,,,,,2,11,,,,,,,,,,,2,0.828,1,,,,,,-0.05078125,-0.240885417,1,0,0,0.8277,Basalt_rect,1,0,1,0,1,
664b804f02ee82829c916d49,SCN,2024-06-26_18h14.51.564,LearnStrategy,2023.2.3,Win32,59.52380952,2,2,3,,,,,,,,7,02,,,,,,,,,,,6,1.311,0,,,,,,-0.0703125,-0.380208333,1,0,0,1.3115,Pegmatite_rect,2,0,2,0,1,
664b804f02ee82829c916d49,SCN,2024-06-26_18h14.51.564,LearnStrategy,2023.2.3,Win32,59.52380952,2,2,4,,,,,,,,6,10,,,,,,,,,,,1,1.274,0,,,,,,-0.33984375,-0.236979167,1,0,0,1.2742,Andesite_rect,3,0,3,0,1,
664b804f02ee82829c916d49,SCN,2024-06-26_18h14.51.564,LearnStrategy,2023.2.3,Win32,59.52380952,2,2,5,,,,,,,,3,14,,,,,,,,,,,8,1.736,0,,,,,,0.390625,-0.41796875,1,0,0,1.7363,Pumice_rect,4,0,4,0,1,
664b804f02ee82829c916d49,SCN,2024-06-26_18h14.51.564,LearnStrategy,2023.2.3,Win32,59.52380952,2,2,6,,,,,,,,6,12,,,,,,,,,,,8,0.489,0,,,,,,0.390625,-0.41796875,1,0,0,0.4891,Pumice_rect,5,0,5,0,1,
664b804f02ee82829c916d49,SCN,2024-06-26_18h14.51.564,LearnStrategy,2023.2.3,Win32,59.52380952,2,2,7,,,,,,,,8,08,,,,,,,,,,,8,1.834,1,,,,,,0.341145833,-0.401041667,1,0,0,1.8337,Pumice_rect,6,0,6,0,1,
664b804f02ee82829c916d49,SCN,2024-06-26_18h14.51.564,LearnStrategy,2023.2.3,Win32,59.52380952,2,2,8,,,,,,,,1,06,,,,,,,,,,,6,1.476,0,,,,,,-0.165364583,-0.408854167,1,0,0,1.4758,Pegmatite_rect,7,0,7,0,1,
664b804f02ee82829c916d49,SCN,2024-06-26_18h14.51.564,LearnStrategy,2023.2.3,Win32,59.52380952,2,2,9,,,,,,,,5,02,,,,,,,,,,,5,1.17,1,,,,,,-0.401041667,-0.403645833,1,0,0,1.1695,Obsidian_rect,8,0,8,0,1,
664b804f02ee82829c916d49,SCN,2024-06-26_18h14.51.564,LearnStrategy,2023.2.3,Win32,59.52380952,2,2,10,,,,,,,,2,01,,,,,,,,,,,6,1.7,0,,,,,,-0.06640625,-0.3984375,1,0,0,1.6996,Pegmatite_rect,9,0,9,0,1,
664b804f02ee82829c916d49,SCN,2024-06-26_18h14.51.564,LearnStrategy,2023.2.3,Win32,59.52380952,2,2,11,,,,,,,,8,10,,,,,,,,,,,8,1.144,1,,,,,,0.403645833,-0.419270833,1,0,0,1.1442,Pumice_rect,10,0,10,0,1,
664b804f02ee82829c916d49,SCN,2024-06-26_18h14.51.564,LearnStrategy,2023.2.3,Win32,59.52380952,2,2,12,,,,,,,,7,04,,,,,,,,,,,2,0.981,0,,,,,,-0.1015625,-0.240885417,1,0,0,0.9813,Basalt_rect,11,0,11,0,1,
664b804f02ee82829c916d49,SCN,2024-06-26_18h14.51.564,LearnStrategy,2023.2.3,Win32,59.52380952,2,2,13,,,,,,,,3,10,,,,,,,,,,,3,1.239,1,,,,,,0.205729167,-0.252604167,1,0,0,1.2393,Diorite_rect,12,0,12,0,1,
664b804f02ee82829c916d49,SCN,2024-06-26_18h14.51.564,LearnStrategy,2023.2.3,Win32,59.52380952,2,2,14,,,,,,,,4,05,,,,,,,,,,,6,1.972,0,,,,,,-0.231770833,-0.401041667,1,0,0,1.972,Pegmatite_rect,13,0,13,0,1,
664b804f02ee82829c916d49,SCN,2024-06-26_18h14.51.564,LearnStrategy,2023.2.3,Win32,59.52380952,2,2,15,,,,,,,,1,01,,,,,,,,,,,1,1.221,1,,,,,,-0.369791667,-0.234375,1,0,0,1.2207,Andesite_rect,14,0,14,0,1,
664b804f02ee82829c916d49,SCN,2024-06-26_18h14.51.564,LearnStrategy,2023.2.3,Win32,59.52380952,2,2,16,,,,,,,,5,08,,,,,,,,,,,4,0.949,0,,,,,,0.35546875,-0.229166667,1,0,0,0.9491,Gabbro_rect,15,0,15,0,1,
664b804f02ee82829c916d49,SCN,2024-06-26_18h14.51.564,LearnStrategy,2023.2.3,Win32,59.52380952,3,1,1,-0.360677083,-0.270833333,1,0,0,3.3714,Andesite_02,1,02,2,2,3.371,0.477864583,-0.391927083,1,0,0,0.7169,Pumice_rect,8,0.717,0,0,0,0,0,1,,,,,,,,,,,,,
664b804f02ee82829c916d49,SCN,2024-06-26_18h14.51.564,LearnStrategy,2023.2.3,Win32,59.52380952,3,1,2,-0.513020833,0.397135417,1,0,0,1.1738,Basalt_10,2,10,6,1,1.174,-0.341145833,-0.2421875,1,0,0,2.6936,Andesite_rect,1,2.694,0,1,0,1,0,1,,,,,,,,,,,,,
664b804f02ee82829c916d49,SCN,2024-06-26_18h14.51.564,LearnStrategy,2023.2.3,Win32,59.52380952,3,1,3,-0.541666667,0.408854167,1,0,0,0.8247,Basalt_10,2,10,6,1,0.825,-0.092447917,-0.240885417,1,0,0,0.9864,Basalt_rect,2,0.986,1,2,0,2,0,1,,,,,,,,,,,,,
664b804f02ee82829c916d49,SCN,2024-06-26_18h14.51.564,LearnStrategy,2023.2.3,Win32,59.52380952,3,1,4,-0.393229167,0.384114583,1,0,0,0.9894,Andesite_09,1,09,6,2,0.989,0.080729167,-0.25390625,1,0,0,0.9958,Diorite_rect,3,0.996,0,3,0,3,0,1,,,,,,,,,,,,,
664b804f02ee82829c916d49,SCN,2024-06-26_18h14.51.564,LearnStrategy,2023.2.3,Win32,59.52380952,3,1,5,-0.373697917,0.384114583,1,0,0,1.0281,Andesite_09,1,09,6,2,1.028,-0.389322917,-0.2421875,1,0,0,1.0443,Andesite_rect,1,1.044,1,4,0,4,0,1,,,,,,,,,,,,,
664b804f02ee82829c916d49,SCN,2024-06-26_18h14.51.564,LearnStrategy,2023.2.3,Win32,59.52380952,3,1,6,-0.260416667,0.36328125,1,0,0,1.1044,Gabbro_03,4,03,6,3,1.104,0.08984375,-0.41796875,1,0,0,1.011,Peridotite_rect,7,1.011,0,5,0,5,0,1,,,,,,,,,,,,,
664b804f02ee82829c916d49,SCN,2024-06-26_18h14.51.564,LearnStrategy,2023.2.3,Win32,59.52380952,3,1,7,-0.213541667,0.376302083,1,0,0,0.8098,Gabbro_03,4,03,6,3,0.81,0.475260417,-0.247395833,1,0,0,0.633,Gabbro_rect,4,0.633,1,6,0,6,0,1,,,,,,,,,,,,,
664b804f02ee82829c916d49,SCN,2024-06-26_18h14.51.564,LearnStrategy,2023.2.3,Win32,59.52380952,3,1,8,-0.096354167,0.399739583,1,0,0,1.09,Pumice_16,8,16,6,4,1.09,0.430989583,-0.421875,1,0,0,0.8862,Pumice_rect,8,0.886,1,7,0,7,0,1,,,,,,,,,,,,,
664b804f02ee82829c916d49,SCN,2024-06-26_18h14.51.564,LearnStrategy,2023.2.3,Win32,59.52380952,3,1,9,0.0859375,0.389322917,1,0,0,2.5557,Pegmatite_03,6,03,6,5,2.556,-0.369791667,-0.266927083,1,0,0,1.5733,Andesite_rect,1,1.573,0,8,0,8,0,1,,,,,,,,,,,,,
664b804f02ee82829c916d49,SCN,2024-06-26_18h14.51.564,LearnStrategy,2023.2.3,Win32,59.52380952,3,1,10,0.05078125,0.395833333,1,0,0,0.8318,Pegmatite_03,6,03,6,5,0.832,-0.049479167,-0.395833333,1,0,0,2.3996,Pegmatite_rect,6,2.4,1,9,0,9,0,1,,,,,,,,,,,,,
664b804f02ee82829c916d49,SCN,2024-06-26_18h14.51.564,LearnStrategy,2023.2.3,Win32,59.52380952,3,1,11,0.256510417,0.438802083,1,0,0,1.0257,Basalt_09,2,09,6,6,1.026,-0.342447917,-0.416666667,1,0,0,1.7622,Obsidian_rect,5,1.762,0,10,0,10,0,1,,,,,,,,,,,,,
664b804f02ee82829c916d49,SCN,2024-06-26_18h14.51.564,LearnStrategy,2023.2.3,Win32,59.52380952,3,1,12,0.229166667,0.404947917,1,0,0,0.8404,Basalt_09,2,09,6,6,0.84,-0.06640625,-0.235677083,1,0,0,1.6159,Basalt_rect,2,1.616,1,11,0,11,0,1,,,,,,,,,,,,,
664b804f02ee82829c916d49,SCN,2024-06-26_18h14.51.564,LearnStrategy,2023.2.3,Win32,59.52380952,3,1,13,0.416666667,0.424479167,1,0,0,1.2947,Andesite_05,1,05,6,7,1.295,0.17578125,-0.40625,1,0,0,1.6208,Peridotite_rect,7,1.621,0,12,0,12,0,1,,,,,,,,,,,,,
664b804f02ee82829c916d49,SCN,2024-06-26_18h14.51.564,LearnStrategy,2023.2.3,Win32,59.52380952,3,1,14,0.44140625,0.420572917,1,0,0,1.4737,Andesite_05,1,05,6,7,1.474,-0.36328125,-0.24609375,1,0,0,1.088,Andesite_rect,1,1.088,1,13,0,13,0,1,,,,,,,,,,,,,
664b804f02ee82829c916d49,SCN,2024-06-26_18h14.51.564,LearnStrategy,2023.2.3,Win32,59.52380952,3,1,15,-0.212239583,0.217447917,1,0,0,2.0443,Pegmatite_06,6,06,5,3,2.044,0.203125,-0.40625,1,0,0,0.875,Peridotite_rect,7,0.875,0,14,0,14,0,1,,,,,,,,,,,,,
664b804f02ee82829c916d49,SCN,2024-06-26_18h14.51.564,LearnStrategy,2023.2.3,Win32,59.52380952,3,1,16,-0.227864583,0.233072917,1,0,0,1.2151,Pegmatite_06,6,06,5,3,1.215,-0.385416667,-0.240885417,1,0,0,1.7657,Andesite_rect,1,1.766,0,15,0,15,0,1,,,,,,,,,,,,,
664b804f02ee82829c916d49,SCN,2024-06-26_18h14.51.564,LearnStrategy,2023.2.3,Win32,59.52380952,3,2,1,,,,,,,,7,10,,,,,,,,,,,3,0.783,0,,,,,,0.15625,-0.244791667,1,0,0,0.7825,Diorite_rect,0,0,0,0,1,
664b804f02ee82829c916d49,SCN,2024-06-26_18h14.51.564,LearnStrategy,2023.2.3,Win32,59.52380952,3,2,2,,,,,,,,1,03,,,,,,,,,,,6,1.083,0,,,,,,-0.162760417,-0.408854167,1,0,0,1.0828,Pegmatite_rect,1,0,1,0,1,
664b804f02ee82829c916d49,SCN,2024-06-26_18h14.51.564,LearnStrategy,2023.2.3,Win32,59.52380952,3,2,3,,,,,,,,5,04,,,,,,,,,,,4,1.095,0,,,,,,0.376302083,-0.264322917,1,0,0,1.0951,Gabbro_rect,2,0,2,0,1,
664b804f02ee82829c916d49,SCN,2024-06-26_18h14.51.564,LearnStrategy,2023.2.3,Win32,59.52380952,3,2,4,,,,,,,,4,12,,,,,,,,,,,4,2.259,1,,,,,,0.37109375,-0.25390625,1,0,0,2.2592,Gabbro_rect,3,0,3,0,1,
664b804f02ee82829c916d49,SCN,2024-06-26_18h14.51.564,LearnStrategy,2023.2.3,Win32,59.52380952,3,2,5,,,,,,,,5,11,,,,,,,,,,,5,1.494,1,,,,,,-0.341145833,-0.401041667,1,0,0,1.4941,Obsidian_rect,4,0,4,0,1,
664b804f02ee82829c916d49,SCN,2024-06-26_18h14.51.564,LearnStrategy,2023.2.3,Win32,59.52380952,3,2,6,,,,,,,,1,16,,,,,,,,,,,7,1.157,0,,,,,,0.123697917,-0.39453125,1,0,0,1.1572,Peridotite_rect,5,0,5,0,1,
664b804f02ee82829c916d49,SCN,2024-06-26_18h14.51.564,LearnStrategy,2023.2.3,Win32,59.52380952,3,2,7,,,,,,,,2,02,,,,,,,,,,,2,0.897,1,,,,,,-0.196614583,-0.231770833,1,0,0,0.8967,Basalt_rect,6,0,6,0,1,
664b804f02ee82829c916d49,SCN,2024-06-26_18h14.51.564,LearnStrategy,2023.2.3,Win32,59.52380952,3,2,8,,,,,,,,8,14,,,,,,,,,,,8,1.284,1,,,,,,0.450520833,-0.404947917,1,0,0,1.2838,Pumice_rect,7,0,7,0,1,
664b804f02ee82829c916d49,SCN,2024-06-26_18h14.51.564,LearnStrategy,2023.2.3,Win32,59.52380952,3,2,9,,,,,,,,8,05,,,,,,,,,,,8,0.925,1,,,,,,0.368489583,-0.401041667,1,0,0,0.9252,Pumice_rect,8,0,8,0,1,
664b804f02ee82829c916d49,SCN,2024-06-26_18h14.51.564,LearnStrategy,2023.2.3,Win32,59.52380952,3,2,10,,,,,,,,4,14,,,,,,,,,,,1,1.712,0,,,,,,-0.41015625,-0.23046875,1,0,0,1.7123,Andesite_rect,9,0,9,0,1,
664b804f02ee82829c916d49,SCN,2024-06-26_18h14.51.564,LearnStrategy,2023.2.3,Win32,59.52380952,3,2,11,,,,,,,,7,08,,,,,,,,,,,7,1.275,1,,,,,,0.078125,-0.381510417,1,0,0,1.2747,Peridotite_rect,10,0,10,0,1,
664b804f02ee82829c916d49,SCN,2024-06-26_18h14.51.564,LearnStrategy,2023.2.3,Win32,59.52380952,3,2,12,,,,,,,,2,06,,,,,,,,,,,2,0.794,1,,,,,,-0.204427083,-0.251302083,1,0,0,0.794,Basalt_rect,11,0,11,0,1,
664b804f02ee82829c916d49,SCN,2024-06-26_18h14.51.564,LearnStrategy,2023.2.3,Win32,59.52380952,3,2,13,,,,,,,,6,07,,,,,,,,,,,3,0.773,0,,,,,,0.09765625,-0.247395833,1,0,0,0.7733,Diorite_rect,12,0,12,0,1,
664b804f02ee82829c916d49,SCN,2024-06-26_18h14.51.564,LearnStrategy,2023.2.3,Win32,59.52380952,3,2,14,,,,,,,,3,08,,,,,,,,,,,7,0.518,0,,,,,,0.100260417,-0.401041667,1,0,0,0.5176,Peridotite_rect,13,0,13,0,1,
664b804f02ee82829c916d49,SCN,2024-06-26_18h14.51.564,LearnStrategy,2023.2.3,Win32,59.52380952,3,2,15,,,,,,,,3,02,,,,,,,,,,,6,0.554,0,,,,,,-0.076822917,-0.404947917,1,0,0,0.5544,Pegmatite_rect,14,0,14,0,1,
664b804f02ee82829c916d49,SCN,2024-06-26_18h14.51.564,LearnStrategy,2023.2.3,Win32,59.52380952,3,2,16,,,,,,,,6,11,,,,,,,,,,,5,0.395,0,,,,,,-0.31640625,-0.3828125,1,0,0,0.3951,Obsidian_rect,15,0,15,0,1,
664b804f02ee82829c916d49,SCN,2024-06-26_18h14.51.564,LearnStrategy,2023.2.3,Win32,59.52380952,4,1,1,0.06640625,0.123697917,1,0,0,0.5795,Gabbro_10,4,10,4,5,0.579,0.109375,-0.260416667,1,0,0,0.8994,Diorite_rect,3,0.899,0,0,0,0,0,1,,,,,,,,,,,,,
664b804f02ee82829c916d49,SCN,2024-06-26_18h14.51.564,LearnStrategy,2023.2.3,Win32,59.52380952,4,1,2,0.067708333,0.11328125,1,0,0,0.8428,Gabbro_10,4,10,4,5,0.843,0.489583333,-0.247395833,1,0,0,0.6664,Gabbro_rect,4,0.666,1,1,0,1,0,1,,,,,,,,,,,,,
664b804f02ee82829c916d49,SCN,2024-06-26_18h14.51.564,LearnStrategy,2023.2.3,Win32,59.52380952,4,1,3,0.23828125,0.104166667,1,0,0,0.7947,Pumice_02,8,02,4,6,0.795,0.11328125,-0.25,1,0,0,1.1883,Diorite_rect,3,1.188,0,2,0,2,0,1,,,,,,,,,,,,,
664b804f02ee82829c916d49,SCN,2024-06-26_18h14.51.564,LearnStrategy,2023.2.3,Win32,59.52380952,4,1,4,0.213541667,0.079427083,1,0,0,0.7267,Pumice_02,8,02,4,6,0.727,0.416666667,-0.419270833,1,0,0,0.9838,Pumice_rect,8,0.984,1,3,0,3,0,1,,,,,,,,,,,,,
664b804f02ee82829c916d49,SCN,2024-06-26_18h14.51.564,LearnStrategy,2023.2.3,Win32,59.52380952,4,1,5,0.411458333,0.134114583,1,0,0,0.8289,Obsidian_05,5,05,4,7,0.829,-0.326822917,-0.389322917,1,0,0,1.4219,Obsidian_rect,5,1.422,1,4,0,4,0,1,,,,,,,,,,,,,
664b804f02ee82829c916d49,SCN,2024-06-26_18h14.51.564,LearnStrategy,2023.2.3,Win32,59.52380952,4,1,6,0.575520833,0.104166667,1,0,0,1.2574,Gabbro_08,4,08,4,8,1.257,0.40625,-0.404947917,1,0,0,1.487,Pumice_rect,8,1.487,0,5,0,5,0,1,,,,,,,,,,,,,
664b804f02ee82829c916d49,SCN,2024-06-26_18h14.51.564,LearnStrategy,2023.2.3,Win32,59.52380952,4,1,7,0.584635417,0.110677083,1,0,0,0.8568,Gabbro_08,4,08,4,8,0.857,0.41015625,-0.268229167,1,0,0,1.1421,Gabbro_rect,4,1.142,1,6,0,6,0,1,,,,,,,,,,,,,
664b804f02ee82829c916d49,SCN,2024-06-26_18h14.51.564,LearnStrategy,2023.2.3,Win32,59.52380952,4,1,8,-0.513020833,-0.06640625,1,0,0,0.9084,Diorite_13,3,13,3,1,0.908,0.192708333,-0.389322917,1,0,0,1.4028,Peridotite_rect,7,1.403,0,7,0,7,0,1,,,,,,,,,,,,,
664b804f02ee82829c916d49,SCN,2024-06-26_18h14.51.564,LearnStrategy,2023.2.3,Win32,59.52380952,4,1,9,-0.5625,-0.09375,1,0,0,1.1887,Diorite_13,3,13,3,1,1.189,0.102864583,-0.268229167,1,0,0,1.4205,Diorite_rect,3,1.42,1,8,0,8,0,1,,,,,,,,,,,,,
664b804f02ee82829c916d49,SCN,2024-06-26_18h14.51.564,LearnStrategy,2023.2.3,Win32,59.52380952,4,1,10,-0.4296875,0.075520833,1,0,0,1.3447,Andesite_07,1,07,4,2,1.345,-0.078125,-0.412760417,1,0,0,0.9457,Pegmatite_rect,6,0.946,0,9,0,9,0,1,,,,,,,,,,,,,
664b804f02ee82829c916d49,SCN,2024-06-26_18h14.51.564,LearnStrategy,2023.2.3,Win32,59.52380952,4,1,11,-0.356770833,0.078125,1,0,0,0.9622,Andesite_07,1,07,4,2,0.962,-0.348958333,-0.255208333,1,0,0,0.6778,Andesite_rect,1,0.678,1,10,0,10,0,1,,,,,,,,,,,,,
664b804f02ee82829c916d49,SCN,2024-06-26_18h14.51.564,LearnStrategy,2023.2.3,Win32,59.52380952,4,1,12,-0.088541667,0.078125,1,0,0,0.764,Basalt_05,2,05,4,4,0.764,0.341145833,-0.240885417,1,0,0,0.9348,Gabbro_rect,4,0.935,0,11,0,11,0,1,,,,,,,,,,,,,
664b804f02ee82829c916d49,SCN,2024-06-26_18h14.51.564,LearnStrategy,2023.2.3,Win32,59.52380952,4,1,13,-0.09765625,0.075520833,1,0,0,0.6636,Basalt_05,2,05,4,4,0.664,-0.098958333,-0.23046875,1,0,0,1.5535,Basalt_rect,2,1.553,1,12,0,12,0,1,,,,,,,,,,,,,
664b804f02ee82829c916d49,SCN,2024-06-26_18h14.51.564,LearnStrategy,2023.2.3,Win32,59.52380952,4,1,14,0.036458333,0.079427083,1,0,0,0.6759,Gabbro_10,4,10,4,5,0.676,-0.139322917,-0.234375,1,0,0,0.8788,Basalt_rect,2,0.879,0,13,0,13,0,1,,,,,,,,,,,,,
664b804f02ee82829c916d49,SCN,2024-06-26_18h14.51.564,LearnStrategy,2023.2.3,Win32,59.52380952,4,1,15,0.1171875,0.11328125,1,0,0,0.8047,Gabbro_10,4,10,4,5,0.805,0.420572917,-0.270833333,1,0,0,0.8221,Gabbro_rect,4,0.822,1,14,0,14,0,1,,,,,,,,,,,,,
664b804f02ee82829c916d49,SCN,2024-06-26_18h14.51.564,LearnStrategy,2023.2.3,Win32,59.52380952,4,1,16,0.278645833,0.067708333,1,0,0,0.6557,Pumice_02,8,02,4,6,0.656,-0.091145833,-0.40234375,1,0,0,0.9694,Pegmatite_rect,6,0.969,0,15,0,15,0,1,,,,,,,,,,,,,
664b804f02ee82829c916d49,SCN,2024-06-26_18h14.51.564,LearnStrategy,2023.2.3,Win32,59.52380952,4,2,1,,,,,,,,8,15,,,,,,,,,,,4,2.813,0,,,,,,0.348958333,-0.244791667,1,0,0,2.8125,Gabbro_rect,0,0,0,0,1,
664b804f02ee82829c916d49,SCN,2024-06-26_18h14.51.564,LearnStrategy,2023.2.3,Win32,59.52380952,4,2,2,,,,,,,,6,15,,,,,,,,,,,6,1.942,1,,,,,,-0.09375,-0.39453125,1,0,0,1.9422,Pegmatite_rect,1,0,1,0,1,
664b804f02ee82829c916d49,SCN,2024-06-26_18h14.51.564,LearnStrategy,2023.2.3,Win32,59.52380952,4,2,3,,,,,,,,4,11,,,,,,,,,,,2,1.012,0,,,,,,-0.09765625,-0.247395833,1,0,0,1.0124,Basalt_rect,2,0,2,0,1,
664b804f02ee82829c916d49,SCN,2024-06-26_18h14.51.564,LearnStrategy,2023.2.3,Win32,59.52380952,4,2,4,,,,,,,,3,02,,,,,,,,,,,3,0.677,1,,,,,,0.071614583,-0.255208333,1,0,0,0.6767,Diorite_rect,3,0,3,0,1,
664b804f02ee82829c916d49,SCN,2024-06-26_18h14.51.564,LearnStrategy,2023.2.3,Win32,59.52380952,4,2,5,,,,,,,,7,15,,,,,,,,,,,3,0.552,0,,,,,,0.07421875,-0.26171875,1,0,0,0.5524,Diorite_rect,4,0,4,0,1,
664b804f02ee82829c916d49,SCN,2024-06-26_18h14.51.564,LearnStrategy,2023.2.3,Win32,59.52380952,4,2,6,,,,,,,,2,08,,,,,,,,,,,5,0.658,0,,,,,,-0.34375,-0.388020833,1,0,0,0.6583,Obsidian_rect,5,0,5,0,1,
664b804f02ee82829c916d49,SCN,2024-06-26_18h14.51.564,LearnStrategy,2023.2.3,Win32,59.52380952,4,2,7,,,,,,,,7,08,,,,,,,,,,,4,0.847,0,,,,,,0.352864583,-0.255208333,1,0,0,0.8467,Gabbro_rect,6,0,6,0,1,
664b804f02ee82829c916d49,SCN,2024-06-26_18h14.51.564,LearnStrategy,2023.2.3,Win32,59.52380952,4,2,8,,,,,,,,5,07,,,,,,,,,,,5,1.197,1,,,,,,-0.38671875,-0.391927083,1,0,0,1.1969,Obsidian_rect,7,0,7,0,1,
664b804f02ee82829c916d49,SCN,2024-06-26_18h14.51.564,LearnStrategy,2023.2.3,Win32,59.52380952,4,2,9,,,,,,,,6,10,,,,,,,,,,,6,1.307,1,,,,,,-0.201822917,-0.401041667,1,0,0,1.3071,Pegmatite_rect,8,0,8,0,1,
664b804f02ee82829c916d49,SCN,2024-06-26_18h14.51.564,LearnStrategy,2023.2.3,Win32,59.52380952,4,2,10,,,,,,,,5,02,,,,,,,,,,,5,3.467,1,,,,,,-0.401041667,-0.41796875,1,0,0,3.4672,Obsidian_rect,9,0,9,0,1,
664b804f02ee82829c916d49,SCN,2024-06-26_18h14.51.564,LearnStrategy,2023.2.3,Win32,59.52380952,4,2,11,,,,,,,,2,01,,,,,,,,,,,7,1.189,0,,,,,,0.125,-0.393229167,1,0,0,1.1892,Peridotite_rect,10,0,10,0,1,
664b804f02ee82829c916d49,SCN,2024-06-26_18h14.51.564,LearnStrategy,2023.2.3,Win32,59.52380952,4,2,12,,,,,,,,1,16,,,,,,,,,,,8,1.317,0,,,,,,0.428385417,-0.412760417,1,0,0,1.3169,Pumice_rect,11,0,11,0,1,
664b804f02ee82829c916d49,SCN,2024-06-26_18h14.51.564,LearnStrategy,2023.2.3,Win32,59.52380952,4,2,13,,,,,,,,1,01,,,,,,,,,,,3,1.383,0,,,,,,0.154947917,-0.259114583,1,0,0,1.3829,Diorite_rect,12,0,12,0,1,
664b804f02ee82829c916d49,SCN,2024-06-26_18h14.51.564,LearnStrategy,2023.2.3,Win32,59.52380952,4,2,14,,,,,,,,8,08,,,,,,,,,,,8,1.109,1,,,,,,0.34375,-0.395833333,1,0,0,1.1093,Pumice_rect,13,0,13,0,1,
664b804f02ee82829c916d49,SCN,2024-06-26_18h14.51.564,LearnStrategy,2023.2.3,Win32,59.52380952,4,2,15,,,,,,,,3,06,,,,,,,,,,,1,0.679,0,,,,,,-0.40234375,-0.229166667,1,0,0,0.6792,Andesite_rect,14,0,14,0,1,
664b804f02ee82829c916d49,SCN,2024-06-26_18h14.51.564,LearnStrategy,2023.2.3,Win32,59.52380952,4,2,16,,,,,,,,4,09,,,,,,,,,,,2,0.717,0,,,,,,-0.106770833,-0.2421875,1,0,0,0.7173,Basalt_rect,15,0,15,0,1,
664b804f02ee82829c916d49,SCN,2024-06-26_18h14.51.564,LearnStrategy,2023.2.3,Win32,59.52380952,5,1,1,0.05859375,0.08984375,1,0,0,0.691,Gabbro_10,4,10,4,5,0.691,0.138020833,-0.236979167,1,0,0,0.875,Diorite_rect,3,0.875,0,0,0,0,0,1,,,,,,,,,,,,,
664b804f02ee82829c916d49,SCN,2024-06-26_18h14.51.564,LearnStrategy,2023.2.3,Win32,59.52380952,5,1,2,0.088541667,-0.067708333,1,0,0,0.8287,Andesite_10,1,10,3,5,0.829,0.391927083,-0.256510417,1,0,0,1.1173,Gabbro_rect,4,1.117,0,1,0,1,0,1,,,,,,,,,,,,,
664b804f02ee82829c916d49,SCN,2024-06-26_18h14.51.564,LearnStrategy,2023.2.3,Win32,59.52380952,5,1,3,0.08984375,-0.046875,1,0,0,0.6293,Andesite_10,1,10,3,5,0.629,-0.36328125,-0.229166667,1,0,0,1.7353,Andesite_rect,1,1.735,1,2,0,2,0,1,,,,,,,,,,,,,
664b804f02ee82829c916d49,SCN,2024-06-26_18h14.51.564,LearnStrategy,2023.2.3,Win32,59.52380952,5,1,4,0.108072917,-0.438802083,1,0,0,0.9093,Peridotite_12,7,12,1,5,0.909,0.364583333,-0.408854167,1,0,0,1.2581,Pumice_rect,8,1.258,0,3,0,3,0,1,,,,,,,,,,,,,
664b804f02ee82829c916d49,SCN,2024-06-26_18h14.51.564,LearnStrategy,2023.2.3,Win32,59.52380952,5,1,5,0.41796875,-0.38671875,1,0,0,0.8219,Diorite_11,3,11,1,7,0.822,0.389322917,-0.264322917,1,0,0,0.5698,Gabbro_rect,4,0.57,0,4,0,4,0,1,,,,,,,,,,,,,
664b804f02ee82829c916d49,SCN,2024-06-26_18h14.51.564,LearnStrategy,2023.2.3,Win32,59.52380952,5,1,6,0.397135417,-0.416666667,1,0,0,0.98,Diorite_11,3,11,1,7,0.98,0.438802083,-0.421875,1,0,0,4.1022,Pumice_rect,8,4.102,0,5,0,5,0,1,,,,,,,,,,,,,
664b804f02ee82829c916d49,SCN,2024-06-26_18h14.51.564,LearnStrategy,2023.2.3,Win32,59.52380952,5,1,7,-0.06640625,-0.098958333,1,0,0,0.6323,Gabbro_15,4,15,3,4,0.632,-0.33203125,-0.401041667,1,0,0,1.441,Obsidian_rect,5,1.441,0,6,0,6,0,1,,,,,,,,,,,,,
664b804f02ee82829c916d49,SCN,2024-06-26_18h14.51.564,LearnStrategy,2023.2.3,Win32,59.52380952,5,1,8,0.048177083,-0.260416667,1,0,0,0.7024,Pegmatite_13,6,13,2,5,0.702,0.416666667,-0.407552083,1,0,0,1.2144,Pumice_rect,8,1.214,0,7,0,7,0,1,,,,,,,,,,,,,
664b804f02ee82829c916d49,SCN,2024-06-26_18h14.51.564,LearnStrategy,2023.2.3,Win32,59.52380952,5,1,9,0.109375,-0.255208333,1,0,0,0.7737,Pegmatite_13,6,13,2,5,0.774,0.075520833,-0.407552083,1,0,0,1.1802,Peridotite_rect,7,1.18,0,8,0,8,0,1,,,,,,,,,,,,,
664b804f02ee82829c916d49,SCN,2024-06-26_18h14.51.564,LearnStrategy,2023.2.3,Win32,59.52380952,5,1,10,0.106770833,-0.259114583,1,0,0,1.2794,Pegmatite_13,6,13,2,5,1.279,-0.174479167,-0.415364583,1,0,0,0.9537,Pegmatite_rect,6,0.954,1,9,0,9,0,1,,,,,,,,,,,,,
664b804f02ee82829c916d49,SCN,2024-06-26_18h14.51.564,LearnStrategy,2023.2.3,Win32,59.52380952,5,1,11,-0.095052083,0.07421875,1,0,0,0.725,Basalt_05,2,05,4,4,0.725,0.1875,-0.233072917,1,0,0,0.9606,Diorite_rect,3,0.961,0,10,0,10,0,1,,,,,,,,,,,,,
664b804f02ee82829c916d49,SCN,2024-06-26_18h14.51.564,LearnStrategy,2023.2.3,Win32,59.52380952,5,1,12,-0.208333333,0.079427083,1,0,0,0.9725,Gabbro_01,4,01,4,3,0.972,0.197916667,-0.419270833,1,0,0,1.043,Peridotite_rect,7,1.043,0,11,0,11,0,1,,,,,,,,,,,,,
664b804f02ee82829c916d49,SCN,2024-06-26_18h14.51.564,LearnStrategy,2023.2.3,Win32,59.52380952,5,1,13,-0.260416667,-0.109375,1,0,0,1.3596,Obsidian_06,5,06,3,3,1.36,-0.361979167,-0.37890625,1,0,0,1.3322,Obsidian_rect,5,1.332,1,12,0,12,0,1,,,,,,,,,,,,,
664b804f02ee82829c916d49,SCN,2024-06-26_18h14.51.564,LearnStrategy,2023.2.3,Win32,59.52380952,5,1,14,-0.239583333,0.072916667,1,0,0,0.8776,Gabbro_01,4,01,4,3,0.878,0.07421875,-0.229166667,1,0,0,1.016,Diorite_rect,3,1.016,0,13,0,13,0,1,,,,,,,,,,,,,
664b804f02ee82829c916d49,SCN,2024-06-26_18h14.51.564,LearnStrategy,2023.2.3,Win32,59.52380952,5,1,15,-0.196614583,0.096354167,1,0,0,0.7823,Gabbro_01,4,01,4,3,0.782,0.37109375,-0.234375,1,0,0,1.6002,Gabbro_rect,4,1.6,1,14,0,14,0,1,,,,,,,,,,,,,
664b804f02ee82829c916d49,SCN,2024-06-26_18h14.51.564,LearnStrategy,2023.2.3,Win32,59.52380952,5,1,16,-0.072916667,0.0859375,1,0,0,0.8267,Basalt_05,2,05,4,4,0.827,0.102864583,-0.24609375,1,0,0,0.725,Diorite_rect,3,0.725,0,15,0,15,0,1,,,,,,,,,,,,,
664b804f02ee82829c916d49,SCN,2024-06-26_18h14.51.564,LearnStrategy,2023.2.3,Win32,59.52380952,5,2,1,,,,,,,,1,14,,,,,,,,,,,7,1.735,0,,,,,,0.1328125,-0.389322917,1,0,0,1.7352,Peridotite_rect,0,0,0,0,1,
664b804f02ee82829c916d49,SCN,2024-06-26_18h14.51.564,LearnStrategy,2023.2.3,Win32,59.52380952,5,2,2,,,,,,,,1,03,,,,,,,,,,,6,0.551,0,,,,,,-0.0859375,-0.388020833,1,0,0,0.5507,Pegmatite_rect,1,0,1,0,1,
664b804f02ee82829c916d49,SCN,2024-06-26_18h14.51.564,LearnStrategy,2023.2.3,Win32,59.52380952,5,2,3,,,,,,,,8,06,,,,,,,,,,,2,0.423,0,,,,,,-0.115885417,-0.23828125,1,0,0,0.4229,Basalt_rect,2,0,2,0,1,
664b804f02ee82829c916d49,SCN,2024-06-26_18h14.51.564,LearnStrategy,2023.2.3,Win32,59.52380952,5,2,4,,,,,,,,7,04,,,,,,,,,,,5,0.743,0,,,,,,-0.356770833,-0.3984375,1,0,0,0.7435,Obsidian_rect,3,0,3,0,1,
664b804f02ee82829c916d49,SCN,2024-06-26_18h14.51.564,LearnStrategy,2023.2.3,Win32,59.52380952,5,2,5,,,,,,,,6,12,,,,,,,,,,,3,0.628,0,,,,,,0.141927083,-0.2421875,1,0,0,0.6278,Diorite_rect,4,0,4,0,1,
664b804f02ee82829c916d49,SCN,2024-06-26_18h14.51.564,LearnStrategy,2023.2.3,Win32,59.52380952,5,2,6,,,,,,,,6,11,,,,,,,,,,,1,1.216,0,,,,,,-0.447916667,-0.265625,1,0,0,1.2155,Andesite_rect,5,0,5,0,1,
664b804f02ee82829c916d49,SCN,2024-06-26_18h14.51.564,LearnStrategy,2023.2.3,Win32,59.52380952,5,2,7,,,,,,,,5,12,,,,,,,,,,,5,1.066,1,,,,,,-0.364583333,-0.384114583,1,0,0,1.0656,Obsidian_rect,6,0,6,0,1,
664b804f02ee82829c916d49,SCN,2024-06-26_18h14.51.564,LearnStrategy,2023.2.3,Win32,59.52380952,5,2,8,,,,,,,,7,06,,,,,,,,,,,6,0.837,0,,,,,,-0.126302083,-0.415364583,1,0,0,0.8365,Pegmatite_rect,7,0,7,0,1,
664b804f02ee82829c916d49,SCN,2024-06-26_18h14.51.564,LearnStrategy,2023.2.3,Win32,59.52380952,5,2,9,,,,,,,,4,13,,,,,,,,,,,3,0.692,0,,,,,,0.0703125,-0.25390625,1,0,0,0.6921,Diorite_rect,8,0,8,0,1,
664b804f02ee82829c916d49,SCN,2024-06-26_18h14.51.564,LearnStrategy,2023.2.3,Win32,59.52380952,5,2,10,,,,,,,,5,08,,,,,,,,,,,5,1.451,1,,,,,,-0.393229167,-0.391927083,1,0,0,1.4511,Obsidian_rect,9,0,9,0,1,
664b804f02ee82829c916d49,SCN,2024-06-26_18h14.51.564,LearnStrategy,2023.2.3,Win32,59.52380952,5,2,11,,,,,,,,3,08,,,,,,,,,,,2,0.761,0,,,,,,-0.184895833,-0.233072917,1,0,0,0.7614,Basalt_rect,10,0,10,0,1,
664b804f02ee82829c916d49,SCN,2024-06-26_18h14.51.564,LearnStrategy,2023.2.3,Win32,59.52380952,5,2,12,,,,,,,,8,05,,,,,,,,,,,8,1.281,1,,,,,,0.415364583,-0.384114583,1,0,0,1.2814,Pumice_rect,11,0,11,0,1,
664b804f02ee82829c916d49,SCN,2024-06-26_18h14.51.564,LearnStrategy,2023.2.3,Win32,59.52380952,5,2,13,,,,,,,,2,02,,,,,,,,,,,8,1.622,0,,,,,,0.3984375,-0.41015625,1,0,0,1.6215,Pumice_rect,12,0,12,0,1,
664b804f02ee82829c916d49,SCN,2024-06-26_18h14.51.564,LearnStrategy,2023.2.3,Win32,59.52380952,5,2,14,,,,,,,,3,14,,,,,,,,,,,4,1.21,0,,,,,,0.350260417,-0.2421875,1,0,0,1.21,Gabbro_rect,13,0,13,0,1,
664b804f02ee82829c916d49,SCN,2024-06-26_18h14.51.564,LearnStrategy,2023.2.3,Win32,59.52380952,5,2,15,,,,,,,,2,06,,,,,,,,,,,4,0.593,0,,,,,,0.3125,-0.2421875,1,0,0,0.5928,Gabbro_rect,14,0,14,0,1,
664b804f02ee82829c916d49,SCN,2024-06-26_18h14.51.564,LearnStrategy,2023.2.3,Win32,59.52380952,5,2,16,,,,,,,,4,12,,,,,,,,,,,4,1.161,1,,,,,,0.415364583,-0.260416667,1,0,0,1.1611,Gabbro_rect,15,0,15,0,1,
664b804f02ee82829c916d49,SCN,2024-06-26_18h14.51.564,LearnStrategy,2023.2.3,Win32,59.52380952,6,1,1,-0.063802083,-0.102864583,1,0,0,0.7932,Gabbro_15,4,15,3,4,0.793,0.0703125,-0.233072917,1,0,0,0.5684,Diorite_rect,3,0.568,0,0,0,0,0,1,,,,,,,,,,,,,
664b804f02ee82829c916d49,SCN,2024-06-26_18h14.51.564,LearnStrategy,2023.2.3,Win32,59.52380952,6,1,2,-0.22265625,-0.102864583,1,0,0,0.6518,Obsidian_06,5,06,3,3,0.652,-0.420572917,-0.393229167,1,0,0,1.2033,Obsidian_rect,5,1.203,1,1,0,1,0,1,,,,,,,,,,,,,
664b804f02ee82829c916d49,SCN,2024-06-26_18h14.51.564,LearnStrategy,2023.2.3,Win32,59.52380952,6,1,3,-0.240885417,-0.424479167,1,0,0,0.7091,Pegmatite_16,6,16,1,3,0.709,-0.213541667,-0.38671875,1,0,0,0.4601,Pegmatite_rect,6,0.46,1,2,0,2,0,1,,,,,,,,,,,,,
664b804f02ee82829c916d49,SCN,2024-06-26_18h14.51.564,LearnStrategy,2023.2.3,Win32,59.52380952,6,1,4,0.055989583,-0.248697917,1,0,0,0.8101,Pegmatite_13,6,13,2,5,0.81,0.338541667,-0.397135417,1,0,0,2.5727,Pumice_rect,8,2.573,0,3,0,3,0,1,,,,,,,,,,,,,
664b804f02ee82829c916d49,SCN,2024-06-26_18h14.51.564,LearnStrategy,2023.2.3,Win32,59.52380952,6,1,5,0.057291667,-0.263020833,1,0,0,0.6856,Pegmatite_13,6,13,2,5,0.686,0.19140625,-0.411458333,1,0,0,0.5517,Peridotite_rect,7,0.552,0,4,0,4,0,1,,,,,,,,,,,,,
664b804f02ee82829c916d49,SCN,2024-06-26_18h14.51.564,LearnStrategy,2023.2.3,Win32,59.52380952,6,1,6,0.067708333,-0.229166667,1,0,0,1.0829,Pegmatite_13,6,13,2,5,1.083,-0.166666667,-0.391927083,1,0,0,0.8624,Pegmatite_rect,6,0.862,1,5,0,5,0,1,,,,,,,,,,,,,
664b804f02ee82829c916d49,SCN,2024-06-26_18h14.51.564,LearnStrategy,2023.2.3,Win32,59.52380952,6,1,7,0.571614583,-0.430989583,1,0,0,1.115,Basalt_14,2,14,1,8,1.115,0.4375,-0.264322917,1,0,0,0.8631,Gabbro_rect,4,0.863,0,6,0,6,0,1,,,,,,,,,,,,,
664b804f02ee82829c916d49,SCN,2024-06-26_18h14.51.564,LearnStrategy,2023.2.3,Win32,59.52380952,6,1,8,0.541666667,-0.395833333,1,0,0,1.0648,Basalt_14,2,14,1,8,1.065,-0.15234375,-0.420572917,1,0,0,1.8892,Pegmatite_rect,6,1.889,0,7,0,7,0,1,,,,,,,,,,,,,
664b804f02ee82829c916d49,SCN,2024-06-26_18h14.51.564,LearnStrategy,2023.2.3,Win32,59.52380952,6,1,9,0.576822917,-0.412760417,1,0,0,0.9266,Basalt_14,2,14,1,8,0.927,-0.104166667,-0.25390625,1,0,0,1.014,Basalt_rect,2,1.014,1,8,0,8,0,1,,,,,,,,,,,,,
664b804f02ee82829c916d49,SCN,2024-06-26_18h14.51.564,LearnStrategy,2023.2.3,Win32,59.52380952,6,1,10,0.2421875,-0.407552083,1,0,0,0.9468,Obsidian_16,5,16,1,6,0.947,-0.41015625,-0.40625,1,0,0,1.3954,Obsidian_rect,5,1.395,1,9,0,9,0,1,,,,,,,,,,,,,
664b804f02ee82829c916d49,SCN,2024-06-26_18h14.51.564,LearnStrategy,2023.2.3,Win32,59.52380952,6,1,11,-0.2421875,-0.41015625,1,0,0,0.8481,Pegmatite_16,6,16,1,3,0.848,0.15625,-0.395833333,1,0,0,0.8748,Peridotite_rect,7,0.875,0,10,0,10,0,1,,,,,,,,,,,,,
664b804f02ee82829c916d49,SCN,2024-06-26_18h14.51.564,LearnStrategy,2023.2.3,Win32,59.52380952,6,1,12,-0.190104167,-0.11328125,1,0,0,1.0628,Obsidian_06,5,06,3,3,1.063,0.450520833,-0.40234375,1,0,0,1.1243,Pumice_rect,8,1.124,0,11,0,11,0,1,,,,,,,,,,,,,
664b804f02ee82829c916d49,SCN,2024-06-26_18h14.51.564,LearnStrategy,2023.2.3,Win32,59.52380952,6,1,13,-0.563802083,-0.27734375,1,0,0,0.677,Gabbro_16,4,16,2,1,0.677,0.4140625,-0.236979167,1,0,0,1.5862,Gabbro_rect,4,1.586,1,12,0,12,0,1,,,,,,,,,,,,,
664b804f02ee82829c916d49,SCN,2024-06-26_18h14.51.564,LearnStrategy,2023.2.3,Win32,59.52380952,6,1,14,-0.552083333,-0.07421875,1,0,0,0.8658,Diorite_13,3,13,3,1,0.866,-0.126302083,-0.397135417,1,0,0,1.0464,Pegmatite_rect,6,1.046,0,13,0,13,0,1,,,,,,,,,,,,,
664b804f02ee82829c916d49,SCN,2024-06-26_18h14.51.564,LearnStrategy,2023.2.3,Win32,59.52380952,6,1,15,-0.397135417,0.110677083,1,0,0,1.0352,Andesite_07,1,07,4,2,1.035,0.09765625,-0.420572917,1,0,0,1.2725,Peridotite_rect,7,1.273,0,14,0,14,0,1,,,,,,,,,,,,,
664b804f02ee82829c916d49,SCN,2024-06-26_18h14.51.564,LearnStrategy,2023.2.3,Win32,59.52380952,6,1,16,0.21484375,-0.091145833,1,0,0,1.1246,Diorite_15,3,15,3,6,1.125,0.389322917,-0.252604167,1,0,0,0.7048,Gabbro_rect,4,0.705,0,15,0,15,0,1,,,,,,,,,,,,,
664b804f02ee82829c916d49,SCN,2024-06-26_18h14.51.564,LearnStrategy,2023.2.3,Win32,59.52380952,6,2,1,,,,,,,,5,04,,,,,,,,,,,5,2.161,1,,,,,,-0.389322917,-0.40625,1,0,0,2.1608,Obsidian_rect,0,0,0,0,1,
664b804f02ee82829c916d49,SCN,2024-06-26_18h14.51.564,LearnStrategy,2023.2.3,Win32,59.52380952,6,2,2,,,,,,,,6,07,,,,,,,,,,,6,1.075,1,,,,,,-0.0859375,-0.420572917,1,0,0,1.0745,Pegmatite_rect,1,0,1,0,1,
664b804f02ee82829c916d49,SCN,2024-06-26_18h14.51.564,LearnStrategy,2023.2.3,Win32,59.52380952,6,2,3,,,,,,,,4,14,,,,,,,,,,,8,1.497,0,,,,,,0.34765625,-0.390625,1,0,0,1.4965,Pumice_rect,2,0,2,0,1,
664b804f02ee82829c916d49,SCN,2024-06-26_18h14.51.564,LearnStrategy,2023.2.3,Win32,59.52380952,6,2,4,,,,,,,,7,02,,,,,,,,,,,7,1.234,1,,,,,,0.2265625,-0.404947917,1,0,0,1.2336,Peridotite_rect,3,0,3,0,1,
664b804f02ee82829c916d49,SCN,2024-06-26_18h14.51.564,LearnStrategy,2023.2.3,Win32,59.52380952,6,2,5,,,,,,,,4,05,,,,,,,,,,,4,1.193,1,,,,,,0.291666667,-0.2421875,1,0,0,1.1927,Gabbro_rect,4,0,4,0,1,
664b804f02ee82829c916d49,SCN,2024-06-26_18h14.51.564,LearnStrategy,2023.2.3,Win32,59.52380952,6,2,6,,,,,,,,3,10,,,,,,,,,,,4,0.597,0,,,,,,0.34375,-0.252604167,1,0,0,0.5974,Gabbro_rect,5,0,5,0,1,
664b804f02ee82829c916d49,SCN,2024-06-26_18h14.51.564,LearnStrategy,2023.2.3,Win32,59.52380952,6,2,7,,,,,,,,1,04,,,,,,,,,,,3,0.713,0,,,,,,0.180989583,-0.240885417,1,0,0,0.7135,Diorite_rect,6,0,6,0,1,
664b804f02ee82829c916d49,SCN,2024-06-26_18h14.51.564,LearnStrategy,2023.2.3,Win32,59.52380952,6,2,8,,,,,,,,2,11,,,,,,,,,,,2,0.906,1,,,,,,-0.072916667,-0.255208333,1,0,0,0.9059,Basalt_rect,7,0,7,0,1,
664b804f02ee82829c916d49,SCN,2024-06-26_18h14.51.564,LearnStrategy,2023.2.3,Win32,59.52380952,6,2,9,,,,,,,,1,06,,,,,,,,,,,6,0.411,0,,,,,,-0.1796875,-0.38671875,1,0,0,0.4112,Pegmatite_rect,8,0,8,0,1,
664b804f02ee82829c916d49,SCN,2024-06-26_18h14.51.564,LearnStrategy,2023.2.3,Win32,59.52380952,6,2,10,,,,,,,,2,16,,,,,,,,,,,2,4.461,1,,,,,,-0.06640625,-0.251302083,1,0,0,4.4609,Basalt_rect,9,0,9,0,1,
664b804f02ee82829c916d49,SCN,2024-06-26_18h14.51.564,LearnStrategy,2023.2.3,Win32,59.52380952,6,2,11,,,,,,,,7,10,,,,,,,,,,,3,0.451,0,,,,,,0.076822917,-0.255208333,1,0,0,0.4514,Diorite_rect,10,0,10,0,1,
664b804f02ee82829c916d49,SCN,2024-06-26_18h14.51.564,LearnStrategy,2023.2.3,Win32,59.52380952,6,2,12,,,,,,,,6,05,,,,,,,,,,,6,0.464,1,,,,,,-0.08203125,-0.39453125,1,0,0,0.4639,Pegmatite_rect,11,0,11,0,1,
664b804f02ee82829c916d49,SCN,2024-06-26_18h14.51.564,LearnStrategy,2023.2.3,Win32,59.52380952,6,2,13,,,,,,,,5,11,,,,,,,,,,,7,0.366,0,,,,,,0.138020833,-0.407552083,1,0,0,0.3658,Peridotite_rect,12,0,12,0,1,
664b804f02ee82829c916d49,SCN,2024-06-26_18h14.51.564,LearnStrategy,2023.2.3,Win32,59.52380952,6,2,14,,,,,,,,3,12,,,,,,,,,,,4,0.773,0,,,,,,0.427083333,-0.243489583,1,0,0,0.7734,Gabbro_rect,13,0,13,0,1,
664b804f02ee82829c916d49,SCN,2024-06-26_18h14.51.564,LearnStrategy,2023.2.3,Win32,59.52380952,6,2,15,,,,,,,,8,14,,,,,,,,,,,3,0.389,0,,,,,,0.186197917,-0.239583333,1,0,0,0.389,Diorite_rect,14,0,14,0,1,
664b804f02ee82829c916d49,SCN,2024-06-26_18h14.51.564,LearnStrategy,2023.2.3,Win32,59.52380952,6,2,16,,,,,,,,8,10,,,,,,,,,,,8,0.59,1,,,,,,0.35546875,-0.403645833,1,0,0,0.59,Pumice_rect,15,0,15,0,1,
664b804f02ee82829c916d49,SCN,2024-06-26_18h14.51.564,LearnStrategy,2023.2.3,Win32,59.52380952,7,1,1,-0.069010417,0.09375,1,0,0,0.7872,Basalt_05,2,05,4,4,0.787,0.139322917,-0.25,1,0,0,0.9041,Diorite_rect,3,0.904,0,0,0,0,0,1,,,,,,,,,,,,,
664b804f02ee82829c916d49,SCN,2024-06-26_18h14.51.564,LearnStrategy,2023.2.3,Win32,59.52380952,7,1,2,-0.208333333,-0.075520833,1,0,0,0.747,Obsidian_06,5,06,3,3,0.747,-0.380208333,-0.385416667,1,0,0,0.8571,Obsidian_rect,5,0.857,1,1,0,1,0,1,,,,,,,,,,,,,
664b804f02ee82829c916d49,SCN,2024-06-26_18h14.51.564,LearnStrategy,2023.2.3,Win32,59.52380952,7,1,3,-0.21484375,-0.0859375,1,0,0,0.917,Obsidian_06,5,06,3,3,0.917,-0.368489583,-0.40234375,1,0,0,0.59,Obsidian_rect,5,0.59,1,2,0,2,0,1,,,,,,,,,,,,,
664b804f02ee82829c916d49,SCN,2024-06-26_18h14.51.564,LearnStrategy,2023.2.3,Win32,59.52380952,7,1,4,-0.223958333,-0.102864583,1,0,0,0.5829,Obsidian_06,5,06,3,3,0.583,-0.317708333,-0.390625,1,0,0,1.2696,Obsidian_rect,5,1.27,1,3,0,3,0,1,,,,,,,,,,,,,
664b804f02ee82829c916d49,SCN,2024-06-26_18h14.51.564,LearnStrategy,2023.2.3,Win32,59.52380952,7,1,5,-0.04296875,0.110677083,1,0,0,0.5789,Basalt_05,2,05,4,4,0.579,0.15625,-0.235677083,1,0,0,0.7916,Diorite_rect,3,0.792,0,4,0,4,0,1,,,,,,,,,,,,,
664b804f02ee82829c916d49,SCN,2024-06-26_18h14.51.564,LearnStrategy,2023.2.3,Win32,59.52380952,7,1,6,0.114583333,0.078125,1,0,0,0.5287,Gabbro_10,4,10,4,5,0.529,0.161458333,-0.252604167,1,0,0,0.5981,Diorite_rect,3,0.598,0,5,0,5,0,1,,,,,,,,,,,,,
664b804f02ee82829c916d49,SCN,2024-06-26_18h14.51.564,LearnStrategy,2023.2.3,Win32,59.52380952,7,1,7,-0.220052083,0.200520833,1,0,0,0.7936,Pegmatite_06,6,06,5,3,0.794,0.09375,-0.24609375,1,0,0,1.2223,Diorite_rect,3,1.222,0,6,0,6,0,1,,,,,,,,,,,,,
664b804f02ee82829c916d49,SCN,2024-06-26_18h14.51.564,LearnStrategy,2023.2.3,Win32,59.52380952,7,1,8,-0.21875,0.071614583,1,0,0,0.7837,Gabbro_01,4,01,4,3,0.784,0.1328125,-0.259114583,1,0,0,0.9785,Diorite_rect,3,0.979,0,7,0,7,0,1,,,,,,,,,,,,,
664b804f02ee82829c916d49,SCN,2024-06-26_18h14.51.564,LearnStrategy,2023.2.3,Win32,59.52380952,7,1,9,-0.08203125,0.088541667,1,0,0,0.5628,Basalt_05,2,05,4,4,0.563,0.147135417,-0.25390625,1,0,0,0.5784,Diorite_rect,3,0.578,0,8,0,8,0,1,,,,,,,,,,,,,
664b804f02ee82829c916d49,SCN,2024-06-26_18h14.51.564,LearnStrategy,2023.2.3,Win32,59.52380952,7,1,10,-0.075520833,0.102864583,1,0,0,0.7107,Basalt_05,2,05,4,4,0.711,-0.12109375,-0.26953125,1,0,0,1.8239,Basalt_rect,2,1.824,1,9,0,9,0,1,,,,,,,,,,,,,
664b804f02ee82829c916d49,SCN,2024-06-26_18h14.51.564,LearnStrategy,2023.2.3,Win32,59.52380952,7,1,11,-0.213541667,0.213541667,1,0,0,1.0237,Pegmatite_06,6,06,5,3,1.024,0.35546875,-0.26171875,1,0,0,1.1528,Gabbro_rect,4,1.153,0,10,0,10,0,1,,,,,,,,,,,,,
664b804f02ee82829c916d49,SCN,2024-06-26_18h14.51.564,LearnStrategy,2023.2.3,Win32,59.52380952,7,1,12,-0.235677083,0.071614583,1,0,0,0.7088,Gabbro_01,4,01,4,3,0.709,-0.123697917,-0.411458333,1,0,0,0.7699,Pegmatite_rect,6,0.77,0,11,0,11,0,1,,,,,,,,,,,,,
664b804f02ee82829c916d49,SCN,2024-06-26_18h14.51.564,LearnStrategy,2023.2.3,Win32,59.52380952,7,1,13,-0.055989583,0.078125,1,0,0,0.8831,Basalt_05,2,05,4,4,0.883,-0.114583333,-0.393229167,1,0,0,0.839,Pegmatite_rect,6,0.839,0,12,0,12,0,1,,,,,,,,,,,,,
664b804f02ee82829c916d49,SCN,2024-06-26_18h14.51.564,LearnStrategy,2023.2.3,Win32,59.52380952,7,1,14,-0.393229167,0.138020833,1,0,0,0.6275,Andesite_07,1,07,4,2,0.627,0.154947917,-0.404947917,1,0,0,0.8475,Peridotite_rect,7,0.847,0,13,0,13,0,1,,,,,,,,,,,,,
664b804f02ee82829c916d49,SCN,2024-06-26_18h14.51.564,LearnStrategy,2023.2.3,Win32,59.52380952,7,1,15,0.278645833,-0.079427083,1,0,0,0.7121,Diorite_15,3,15,3,6,0.712,0.375,-0.268229167,1,0,0,0.5338,Gabbro_rect,4,0.534,0,14,0,14,0,1,,,,,,,,,,,,,
664b804f02ee82829c916d49,SCN,2024-06-26_18h14.51.564,LearnStrategy,2023.2.3,Win32,59.52380952,7,1,16,-0.208333333,-0.115885417,1,0,0,0.7526,Obsidian_06,5,06,3,3,0.753,-0.338541667,-0.407552083,1,0,0,0.7554,Obsidian_rect,5,0.755,1,15,0,15,0,1,,,,,,,,,,,,,
664b804f02ee82829c916d49,SCN,2024-06-26_18h14.51.564,LearnStrategy,2023.2.3,Win32,59.52380952,7,2,1,,,,,,,,7,06,,,,,,,,,,,7,0.447,1,,,,,,0.040364583,-0.3828125,1,0,0,0.4474,Peridotite_rect,0,0,0,0,1,
664b804f02ee82829c916d49,SCN,2024-06-26_18h14.51.564,LearnStrategy,2023.2.3,Win32,59.52380952,7,2,2,,,,,,,,3,08,,,,,,,,,,,6,0.443,0,,,,,,-0.078125,-0.390625,1,0,0,0.443,Pegmatite_rect,1,0,1,0,1,
664b804f02ee82829c916d49,SCN,2024-06-26_18h14.51.564,LearnStrategy,2023.2.3,Win32,59.52380952,7,2,3,,,,,,,,6,05,,,,,,,,,,,5,0.549,0,,,,,,-0.322916667,-0.39453125,1,0,0,0.5489,Obsidian_rect,2,0,2,0,1,
664b804f02ee82829c916d49,SCN,2024-06-26_18h14.51.564,LearnStrategy,2023.2.3,Win32,59.52380952,7,2,4,,,,,,,,2,06,,,,,,,,,,,4,1.447,0,,,,,,0.384114583,-0.25,1,0,0,1.4465,Gabbro_rect,3,0,3,0,1,
664b804f02ee82829c916d49,SCN,2024-06-26_18h14.51.564,LearnStrategy,2023.2.3,Win32,59.52380952,7,2,5,,,,,,,,2,11,,,,,,,,,,,4,0.749,0,,,,,,0.42578125,-0.24609375,1,0,0,0.7491,Gabbro_rect,4,0,4,0,1,
664b804f02ee82829c916d49,SCN,2024-06-26_18h14.51.564,LearnStrategy,2023.2.3,Win32,59.52380952,7,2,6,,,,,,,,3,10,,,,,,,,,,,3,0.461,1,,,,,,0.157552083,-0.25,1,0,0,0.4612,Diorite_rect,5,0,5,0,1,
664b804f02ee82829c916d49,SCN,2024-06-26_18h14.51.564,LearnStrategy,2023.2.3,Win32,59.52380952,7,2,7,,,,,,,,4,09,,,,,,,,,,,2,0.39,0,,,,,,-0.06640625,-0.240885417,1,0,0,0.3899,Basalt_rect,6,0,6,0,1,
664b804f02ee82829c916d49,SCN,2024-06-26_18h14.51.564,LearnStrategy,2023.2.3,Win32,59.52380952,7,2,8,,,,,,,,8,08,,,,,,,,,,,8,1.281,1,,,,,,0.352864583,-0.3984375,1,0,0,1.2814,Pumice_rect,7,0,7,0,1,
664b804f02ee82829c916d49,SCN,2024-06-26_18h14.51.564,LearnStrategy,2023.2.3,Win32,59.52380952,7,2,9,,,,,,,,5,11,,,,,,,,,,,3,0.35,0,,,,,,0.079427083,-0.229166667,1,0,0,0.3496,Diorite_rect,8,0,8,0,1,
664b804f02ee82829c916d49,SCN,2024-06-26_18h14.51.564,LearnStrategy,2023.2.3,Win32,59.52380952,7,2,10,,,,,,,,8,10,,,,,,,,,,,2,0.945,0,,,,,,-0.087239583,-0.264322917,1,0,0,0.945,Basalt_rect,9,0,9,0,1,
664b804f02ee82829c916d49,SCN,2024-06-26_18h14.51.564,LearnStrategy,2023.2.3,Win32,59.52380952,7,2,11,,,,,,,,7,10,,,,,,,,,,,6,0.771,0,,,,,,-0.102864583,-0.389322917,1,0,0,0.7706,Pegmatite_rect,10,0,10,0,1,
664b804f02ee82829c916d49,SCN,2024-06-26_18h14.51.564,LearnStrategy,2023.2.3,Win32,59.52380952,7,2,12,,,,,,,,4,05,,,,,,,,,,,7,0.532,0,,,,,,0.029947917,-0.395833333,1,0,0,0.5317,Peridotite_rect,11,0,11,0,1,
664b804f02ee82829c916d49,SCN,2024-06-26_18h14.51.564,LearnStrategy,2023.2.3,Win32,59.52380952,7,2,13,,,,,,,,6,10,,,,,,,,,,,8,1.193,0,,,,,,0.423177083,-0.40625,1,0,0,1.1934,Pumice_rect,12,0,12,0,1,
664b804f02ee82829c916d49,SCN,2024-06-26_18h14.51.564,LearnStrategy,2023.2.3,Win32,59.52380952,7,2,14,,,,,,,,5,07,,,,,,,,,,,5,0.982,1,,,,,,-0.364583333,-0.389322917,1,0,0,0.9821,Obsidian_rect,13,0,13,0,1,
664b804f02ee82829c916d49,SCN,2024-06-26_18h14.51.564,LearnStrategy,2023.2.3,Win32,59.52380952,7,2,15,,,,,,,,1,01,,,,,,,,,,,2,0.301,0,,,,,,-0.1875,-0.239583333,1,0,0,0.3009,Basalt_rect,14,0,14,0,1,
664b804f02ee82829c916d49,SCN,2024-06-26_18h14.51.564,LearnStrategy,2023.2.3,Win32,59.52380952,7,2,16,,,,,,,,1,04,,,,,,,,,,,3,0.43,0,,,,,,0.106770833,-0.248697917,1,0,0,0.4302,Diorite_rect,15,0,15,0,1,
664b804f02ee82829c916d49,SCN,2024-06-26_18h14.51.564,LearnStrategy,2023.2.3,Win32,59.52380952,8,1,1,0.065104167,-0.09375,1,0,0,0.8366,Andesite_10,1,10,3,5,0.837,0.134114583,-0.3828125,1,0,0,1.1795,Peridotite_rect,7,1.18,0,0,0,0,0,1,,,,,,,,,,,,,
664b804f02ee82829c916d49,SCN,2024-06-26_18h14.51.564,LearnStrategy,2023.2.3,Win32,59.52380952,8,1,2,-0.209635417,0.091145833,1,0,0,0.6891,Gabbro_01,4,01,4,3,0.689,0.166666667,-0.26171875,1,0,0,1.436,Diorite_rect,3,1.436,0,1,0,1,0,1,,,,,,,,,,,,,
664b804f02ee82829c916d49,SCN,2024-06-26_18h14.51.564,LearnStrategy,2023.2.3,Win32,59.52380952,8,1,3,-0.348958333,0.248697917,1,0,0,0.9346,Obsidian_14,5,14,5,2,0.935,-0.0859375,-0.251302083,1,0,0,0.7818,Basalt_rect,2,0.782,0,2,0,2,0,1,,,,,,,,,,,,,
664b804f02ee82829c916d49,SCN,2024-06-26_18h14.51.564,LearnStrategy,2023.2.3,Win32,59.52380952,8,1,4,-0.381510417,0.263020833,1,0,0,1.0244,Obsidian_14,5,14,5,2,1.024,-0.375,-0.407552083,1,0,0,1.0313,Obsidian_rect,5,1.031,1,3,0,3,0,1,,,,,,,,,,,,,
664b804f02ee82829c916d49,SCN,2024-06-26_18h14.51.564,LearnStrategy,2023.2.3,Win32,59.52380952,8,1,5,-0.024739583,0.14453125,1,0,0,0.5663,Basalt_05,2,05,4,4,0.566,-0.1171875,-0.256510417,1,0,0,0.7594,Basalt_rect,2,0.759,1,4,0,4,0,1,,,,,,,,,,,,,
664b804f02ee82829c916d49,SCN,2024-06-26_18h14.51.564,LearnStrategy,2023.2.3,Win32,59.52380952,8,1,6,-0.377604167,0.083333333,1,0,0,0.7384,Andesite_07,1,07,4,2,0.738,-0.09375,-0.240885417,1,0,0,1.4817,Basalt_rect,2,1.482,0,5,0,5,0,1,,,,,,,,,,,,,
664b804f02ee82829c916d49,SCN,2024-06-26_18h14.51.564,LearnStrategy,2023.2.3,Win32,59.52380952,8,1,7,-0.106770833,0.1015625,1,0,0,1.0286,Basalt_05,2,05,4,4,1.029,-0.365885417,-0.265625,1,0,0,0.738,Andesite_rect,1,0.738,0,6,0,6,0,1,,,,,,,,,,,,,
664b804f02ee82829c916d49,SCN,2024-06-26_18h14.51.564,LearnStrategy,2023.2.3,Win32,59.52380952,8,1,8,-0.225260417,0.231770833,1,0,0,1.0076,Pegmatite_06,6,06,5,3,1.008,0.110677083,-0.41796875,1,0,0,0.8312,Peridotite_rect,7,0.831,0,7,0,7,0,1,,,,,,,,,,,,,
664b804f02ee82829c916d49,SCN,2024-06-26_18h14.51.564,LearnStrategy,2023.2.3,Win32,59.52380952,8,1,9,-0.235677083,0.1171875,1,0,0,0.6763,Gabbro_01,4,01,4,3,0.676,0.12109375,-0.247395833,1,0,0,0.8772,Diorite_rect,3,0.877,0,8,0,8,0,1,,,,,,,,,,,,,
664b804f02ee82829c916d49,SCN,2024-06-26_18h14.51.564,LearnStrategy,2023.2.3,Win32,59.52380952,8,1,10,-0.364583333,0.083333333,1,0,0,0.7869,Andesite_07,1,07,4,2,0.787,-0.06640625,-0.247395833,1,0,0,1.2162,Basalt_rect,2,1.216,0,9,0,9,0,1,,,,,,,,,,,,,
664b804f02ee82829c916d49,SCN,2024-06-26_18h14.51.564,LearnStrategy,2023.2.3,Win32,59.52380952,8,1,11,-0.06640625,0.2421875,1,0,0,0.6824,Obsidian_10,5,10,5,4,0.682,0.08984375,-0.270833333,1,0,0,0.8313,Diorite_rect,3,0.831,0,10,0,10,0,1,,,,,,,,,,,,,
664b804f02ee82829c916d49,SCN,2024-06-26_18h14.51.564,LearnStrategy,2023.2.3,Win32,59.52380952,8,1,12,-0.084635417,0.139322917,1,0,0,0.6301,Basalt_05,2,05,4,4,0.63,-0.373697917,-0.390625,1,0,0,0.7859,Obsidian_rect,5,0.786,0,11,0,11,0,1,,,,,,,,,,,,,
664b804f02ee82829c916d49,SCN,2024-06-26_18h14.51.564,LearnStrategy,2023.2.3,Win32,59.52380952,8,1,13,0.040364583,0.264322917,1,0,0,0.6173,Andesite_11,1,11,5,5,0.617,0.162760417,-0.39453125,1,0,0,0.8205,Peridotite_rect,7,0.821,0,12,0,12,0,1,,,,,,,,,,,,,
664b804f02ee82829c916d49,SCN,2024-06-26_18h14.51.564,LearnStrategy,2023.2.3,Win32,59.52380952,8,1,14,-0.052083333,0.204427083,1,0,0,1.1683,Obsidian_10,5,10,5,4,1.168,-0.345052083,-0.41796875,1,0,0,1.1556,Obsidian_rect,5,1.156,1,13,0,13,0,1,,,,,,,,,,,,,
664b804f02ee82829c916d49,SCN,2024-06-26_18h14.51.564,LearnStrategy,2023.2.3,Win32,59.52380952,8,1,15,-0.091145833,0.075520833,1,0,0,0.5918,Basalt_05,2,05,4,4,0.592,0.368489583,-0.252604167,1,0,0,0.9025,Gabbro_rect,4,0.903,0,14,0,14,0,1,,,,,,,,,,,,,
664b804f02ee82829c916d49,SCN,2024-06-26_18h14.51.564,LearnStrategy,2023.2.3,Win32,59.52380952,8,1,16,-0.075520833,0.045572917,1,0,0,0.4586,Basalt_05,2,05,4,4,0.459,-0.140625,-0.231770833,1,0,0,0.7043,Basalt_rect,2,0.704,1,15,0,15,0,1,,,,,,,,,,,,,
664b804f02ee82829c916d49,SCN,2024-06-26_18h14.51.564,LearnStrategy,2023.2.3,Win32,59.52380952,8,2,1,,,,,,,,4,11,,,,,,,,,,,4,2.039,1,,,,,,0.4140625,-0.240885417,1,0,0,2.0392,Gabbro_rect,0,0,0,0,1,
664b804f02ee82829c916d49,SCN,2024-06-26_18h14.51.564,LearnStrategy,2023.2.3,Win32,59.52380952,8,2,2,,,,,,,,5,08,,,,,,,,,,,5,1.571,1,,,,,,-0.501302083,-0.420572917,1,0,0,1.5714,Obsidian_rect,1,0,1,0,1,
664b804f02ee82829c916d49,SCN,2024-06-26_18h14.51.564,LearnStrategy,2023.2.3,Win32,59.52380952,8,2,3,,,,,,,,4,13,,,,,,,,,,,7,1.236,0,,,,,,0.05078125,-0.403645833,1,0,0,1.2362,Peridotite_rect,2,0,2,0,1,
664b804f02ee82829c916d49,SCN,2024-06-26_18h14.51.564,LearnStrategy,2023.2.3,Win32,59.52380952,8,2,4,,,,,,,,1,16,,,,,,,,,,,1,0.993,1,,,,,,-0.369791667,-0.25,1,0,0,0.9926,Andesite_rect,3,0,3,0,1,
664b804f02ee82829c916d49,SCN,2024-06-26_18h14.51.564,LearnStrategy,2023.2.3,Win32,59.52380952,8,2,5,,,,,,,,2,08,,,,,,,,,,,3,0.795,0,,,,,,0.197916667,-0.270833333,1,0,0,0.7954,Diorite_rect,4,0,4,0,1,
664b804f02ee82829c916d49,SCN,2024-06-26_18h14.51.564,LearnStrategy,2023.2.3,Win32,59.52380952,8,2,6,,,,,,,,6,15,,,,,,,,,,,6,0.417,1,,,,,,-0.0859375,-0.419270833,1,0,0,0.4166,Pegmatite_rect,5,0,5,0,1,
664b804f02ee82829c916d49,SCN,2024-06-26_18h14.51.564,LearnStrategy,2023.2.3,Win32,59.52380952,8,2,7,,,,,,,,6,07,,,,,,,,,,,5,0.282,0,,,,,,-0.329427083,-0.401041667,1,0,0,0.2819,Obsidian_rect,6,0,6,0,1,
664b804f02ee82829c916d49,SCN,2024-06-26_18h14.51.564,LearnStrategy,2023.2.3,Win32,59.52380952,8,2,8,,,,,,,,8,06,,,,,,,,,,,4,1.04,0,,,,,,0.348958333,-0.265625,1,0,0,1.0397,Gabbro_rect,7,0,7,0,1,
664b804f02ee82829c916d49,SCN,2024-06-26_18h14.51.564,LearnStrategy,2023.2.3,Win32,59.52380952,8,2,9,,,,,,,,5,04,,,,,,,,,,,5,1.226,1,,,,,,-0.372395833,-0.37890625,1,0,0,1.2265,Obsidian_rect,8,0,8,0,1,
664b804f02ee82829c916d49,SCN,2024-06-26_18h14.51.564,LearnStrategy,2023.2.3,Win32,59.52380952,8,2,10,,,,,,,,1,14,,,,,,,,,,,8,1.492,0,,,,,,0.438802083,-0.415364583,1,0,0,1.4924,Pumice_rect,9,0,9,0,1,
664b804f02ee82829c916d49,SCN,2024-06-26_18h14.51.564,LearnStrategy,2023.2.3,Win32,59.52380952,8,2,11,,,,,,,,3,14,,,,,,,,,,,7,0.815,0,,,,,,0.07421875,-0.403645833,1,0,0,0.8147,Peridotite_rect,10,0,10,0,1,
664b804f02ee82829c916d49,SCN,2024-06-26_18h14.51.564,LearnStrategy,2023.2.3,Win32,59.52380952,8,2,12,,,,,,,,8,05,,,,,,,,,,,8,1.175,1,,,,,,0.34375,-0.3984375,1,0,0,1.1746,Pumice_rect,11,0,11,0,1,
664b804f02ee82829c916d49,SCN,2024-06-26_18h14.51.564,LearnStrategy,2023.2.3,Win32,59.52380952,8,2,13,,,,,,,,7,04,,,,,,,,,,,3,0.721,0,,,,,,0.0390625,-0.233072917,1,0,0,0.7206,Diorite_rect,12,0,12,0,1,
664b804f02ee82829c916d49,SCN,2024-06-26_18h14.51.564,LearnStrategy,2023.2.3,Win32,59.52380952,8,2,14,,,,,,,,7,02,,,,,,,,,,,6,1.167,0,,,,,,-0.141927083,-0.3984375,1,0,0,1.1673,Pegmatite_rect,13,0,13,0,1,
664b804f02ee82829c916d49,SCN,2024-06-26_18h14.51.564,LearnStrategy,2023.2.3,Win32,59.52380952,8,2,15,,,,,,,,3,02,,,,,,,,,,,2,1.167,0,,,,,,-0.1875,-0.266927083,1,0,0,1.1668,Basalt_rect,14,0,14,0,1,
664b804f02ee82829c916d49,SCN,2024-06-26_18h14.51.564,LearnStrategy,2023.2.3,Win32,59.52380952,8,2,16,,,,,,,,2,01,,,,,,,,,,,4,1.173,0,,,,,,0.41015625,-0.25,1,0,0,1.1733,Gabbro_rect,15,0,15,0,1,
664b804f02ee82829c916d49,SCN,2024-06-26_18h14.51.564,LearnStrategy,2023.2.3,Win32,59.52380952,9,1,1,-0.057291667,0.069010417,1,0,0,0.6294,Basalt_05,2,05,4,4,0.629,-0.083333333,-0.252604167,1,0,0,1.0505,Basalt_rect,2,1.05,1,0,0,0,0,1,,,,,,,,,,,,,
664b804f02ee82829c916d49,SCN,2024-06-26_18h14.51.564,LearnStrategy,2023.2.3,Win32,59.52380952,9,1,2,0.23046875,0.0703125,1,0,0,1.0185,Pumice_02,8,02,4,6,1.018,0.204427083,-0.252604167,1,0,0,0.7345,Diorite_rect,3,0.734,0,1,0,1,0,1,,,,,,,,,,,,,
664b804f02ee82829c916d49,SCN,2024-06-26_18h14.51.564,LearnStrategy,2023.2.3,Win32,59.52380952,9,1,3,-0.395833333,0.1171875,1,0,0,1.0314,Andesite_07,1,07,4,2,1.031,-0.111979167,-0.25,1,0,0,0.789,Basalt_rect,2,0.789,0,2,0,2,0,1,,,,,,,,,,,,,
664b804f02ee82829c916d49,SCN,2024-06-26_18h14.51.564,LearnStrategy,2023.2.3,Win32,59.52380952,9,1,4,-0.196614583,0.091145833,1,0,0,0.6622,Gabbro_01,4,01,4,3,0.662,0.102864583,-0.265625,1,0,0,0.8148,Diorite_rect,3,0.815,0,3,0,3,0,1,,,,,,,,,,,,,
664b804f02ee82829c916d49,SCN,2024-06-26_18h14.51.564,LearnStrategy,2023.2.3,Win32,59.52380952,9,1,5,-0.213541667,0.087239583,1,0,0,0.7928,Gabbro_01,4,01,4,3,0.793,0.483072917,-0.25,1,0,0,1.2628,Gabbro_rect,4,1.263,1,4,0,4,0,1,,,,,,,,,,,,,
664b804f02ee82829c916d49,SCN,2024-06-26_18h14.51.564,LearnStrategy,2023.2.3,Win32,59.52380952,9,1,6,-0.377604167,0.092447917,1,0,0,0.8751,Andesite_07,1,07,4,2,0.875,-0.122395833,-0.229166667,1,0,0,0.88,Basalt_rect,2,0.88,0,5,0,5,0,1,,,,,,,,,,,,,
664b804f02ee82829c916d49,SCN,2024-06-26_18h14.51.564,LearnStrategy,2023.2.3,Win32,59.52380952,9,1,7,-0.065104167,0.078125,1,0,0,0.6487,Basalt_05,2,05,4,4,0.649,0.08984375,-0.259114583,1,0,0,0.8863,Diorite_rect,3,0.886,0,6,0,6,0,1,,,,,,,,,,,,,
664b804f02ee82829c916d49,SCN,2024-06-26_18h14.51.564,LearnStrategy,2023.2.3,Win32,59.52380952,9,1,8,-0.188802083,0.071614583,1,0,0,0.8734,Gabbro_01,4,01,4,3,0.873,-0.095052083,-0.234375,1,0,0,0.8134,Basalt_rect,2,0.813,0,7,0,7,0,1,,,,,,,,,,,,,
664b804f02ee82829c916d49,SCN,2024-06-26_18h14.51.564,LearnStrategy,2023.2.3,Win32,59.52380952,9,1,9,-0.365885417,0.106770833,1,0,0,0.7905,Andesite_07,1,07,4,2,0.791,0.05078125,-0.255208333,1,0,0,0.6418,Diorite_rect,3,0.642,0,8,0,8,0,1,,,,,,,,,,,,,
664b804f02ee82829c916d49,SCN,2024-06-26_18h14.51.564,LearnStrategy,2023.2.3,Win32,59.52380952,9,1,10,-0.376302083,0.236979167,1,0,0,0.905,Obsidian_14,5,14,5,2,0.905,-0.325520833,-0.408854167,1,0,0,2.4336,Obsidian_rect,5,2.434,1,9,0,9,0,1,,,,,,,,,,,,,
664b804f02ee82829c916d49,SCN,2024-06-26_18h14.51.564,LearnStrategy,2023.2.3,Win32,59.52380952,9,1,11,-0.067708333,0.3984375,1,0,0,0.8881,Pumice_16,8,16,6,4,0.888,0.12890625,-0.265625,1,0,0,0.9971,Diorite_rect,3,0.997,0,10,0,10,0,1,,,,,,,,,,,,,
664b804f02ee82829c916d49,SCN,2024-06-26_18h14.51.564,LearnStrategy,2023.2.3,Win32,59.52380952,9,1,12,-0.252604167,0.098958333,1,0,0,1.1056,Gabbro_01,4,01,4,3,1.106,-0.09375,-0.239583333,1,0,0,1.3371,Basalt_rect,2,1.337,0,11,0,11,0,1,,,,,,,,,,,,,
664b804f02ee82829c916d49,SCN,2024-06-26_18h14.51.564,LearnStrategy,2023.2.3,Win32,59.52380952,9,1,13,-0.52734375,0.091145833,1,0,0,0.9719,Peridotite_14,7,14,4,1,0.972,-0.158854167,-0.263020833,1,0,0,0.7642,Basalt_rect,2,0.764,0,12,0,12,0,1,,,,,,,,,,,,,
664b804f02ee82829c916d49,SCN,2024-06-26_18h14.51.564,LearnStrategy,2023.2.3,Win32,59.52380952,9,1,14,-0.0703125,-0.279947917,1,0,0,0.7246,Pumice_09,8,09,2,4,0.725,-0.08984375,-0.408854167,1,0,0,1.3597,Pegmatite_rect,6,1.36,0,13,0,13,0,1,,,,,,,,,,,,,
664b804f02ee82829c916d49,SCN,2024-06-26_18h14.51.564,LearnStrategy,2023.2.3,Win32,59.52380952,9,1,15,0.381510417,0.229166667,1,0,0,1.2747,Pegmatite_09,6,09,5,7,1.275,0.184895833,-0.244791667,1,0,0,0.8907,Diorite_rect,3,0.891,0,14,0,14,0,1,,,,,,,,,,,,,
664b804f02ee82829c916d49,SCN,2024-06-26_18h14.51.564,LearnStrategy,2023.2.3,Win32,59.52380952,9,1,16,-0.110677083,0.263020833,1,0,0,1.0375,Obsidian_10,5,10,5,4,1.038,-0.350260417,-0.39453125,1,0,0,3.4812,Obsidian_rect,5,3.481,1,15,0,15,0,1,,,,,,,,,,,,,
664b804f02ee82829c916d49,SCN,2024-06-26_18h14.51.564,LearnStrategy,2023.2.3,Win32,59.52380952,9,2,1,,,,,,,,1,06,,,,,,,,,,,3,1.814,0,,,,,,0.139322917,-0.259114583,1,0,0,1.8141,Diorite_rect,0,0,0,0,1,
664b804f02ee82829c916d49,SCN,2024-06-26_18h14.51.564,LearnStrategy,2023.2.3,Win32,59.52380952,9,2,2,,,,,,,,4,14,,,,,,,,,,,2,0.603,0,,,,,,-0.098958333,-0.23828125,1,0,0,0.6028,Basalt_rect,1,0,1,0,1,
664b804f02ee82829c916d49,SCN,2024-06-26_18h14.51.564,LearnStrategy,2023.2.3,Win32,59.52380952,9,2,3,,,,,,,,2,02,,,,,,,,,,,6,0.369,0,,,,,,-0.12109375,-0.408854167,1,0,0,0.3694,Pegmatite_rect,2,0,2,0,1,
664b804f02ee82829c916d49,SCN,2024-06-26_18h14.51.564,LearnStrategy,2023.2.3,Win32,59.52380952,9,2,4,,,,,,,,2,16,,,,,,,,,,,7,0.635,0,,,,,,0.125,-0.411458333,1,0,0,0.6352,Peridotite_rect,3,0,3,0,1,
664b804f02ee82829c916d49,SCN,2024-06-26_18h14.51.564,LearnStrategy,2023.2.3,Win32,59.52380952,9,2,5,,,,,,,,3,06,,,,,,,,,,,4,1.365,0,,,,,,0.309895833,-0.255208333,1,0,0,1.3648,Gabbro_rect,4,0,4,0,1,
664b804f02ee82829c916d49,SCN,2024-06-26_18h14.51.564,LearnStrategy,2023.2.3,Win32,59.52380952,9,2,6,,,,,,,,1,03,,,,,,,,,,,1,1.35,1,,,,,,-0.313802083,-0.239583333,1,0,0,1.3498,Andesite_rect,5,0,5,0,1,
664b804f02ee82829c916d49,SCN,2024-06-26_18h14.51.564,LearnStrategy,2023.2.3,Win32,59.52380952,9,2,7,,,,,,,,5,02,,,,,,,,,,,5,1.258,1,,,,,,-0.44140625,-0.39453125,1,0,0,1.2581,Obsidian_rect,6,0,6,0,1,
664b804f02ee82829c916d49,SCN,2024-06-26_18h14.51.564,LearnStrategy,2023.2.3,Win32,59.52380952,9,2,8,,,,,,,,8,15,,,,,,,,,,,7,0.581,0,,,,,,0.053385417,-0.419270833,1,0,0,0.5814,Peridotite_rect,7,0,7,0,1,
664b804f02ee82829c916d49,SCN,2024-06-26_18h14.51.564,LearnStrategy,2023.2.3,Win32,59.52380952,9,2,9,,,,,,,,5,12,,,,,,,,,,,5,1.371,1,,,,,,-0.430989583,-0.41015625,1,0,0,1.3713,Obsidian_rect,8,0,8,0,1,
664b804f02ee82829c916d49,SCN,2024-06-26_18h14.51.564,LearnStrategy,2023.2.3,Win32,59.52380952,9,2,10,,,,,,,,7,08,,,,,,,,,,,8,1.606,0,,,,,,0.442708333,-0.393229167,1,0,0,1.6063,Pumice_rect,9,0,9,0,1,
664b804f02ee82829c916d49,SCN,2024-06-26_18h14.51.564,LearnStrategy,2023.2.3,Win32,59.52380952,9,2,11,,,,,,,,7,15,,,,,,,,,,,4,0.649,0,,,,,,0.40234375,-0.243489583,1,0,0,0.6495,Gabbro_rect,10,0,10,0,1,
664b804f02ee82829c916d49,SCN,2024-06-26_18h14.51.564,LearnStrategy,2023.2.3,Win32,59.52380952,9,2,12,,,,,,,,3,12,,,,,,,,,,,4,0.529,0,,,,,,0.393229167,-0.24609375,1,0,0,0.5292,Gabbro_rect,11,0,11,0,1,
664b804f02ee82829c916d49,SCN,2024-06-26_18h14.51.564,LearnStrategy,2023.2.3,Win32,59.52380952,9,2,13,,,,,,,,4,12,,,,,,,,,,,3,0.413,0,,,,,,0.134114583,-0.2578125,1,0,0,0.4132,Diorite_rect,12,0,12,0,1,
664b804f02ee82829c916d49,SCN,2024-06-26_18h14.51.564,LearnStrategy,2023.2.3,Win32,59.52380952,9,2,14,,,,,,,,6,12,,,,,,,,,,,2,0.497,0,,,,,,-0.067708333,-0.252604167,1,0,0,0.497,Basalt_rect,13,0,13,0,1,
664b804f02ee82829c916d49,SCN,2024-06-26_18h14.51.564,LearnStrategy,2023.2.3,Win32,59.52380952,9,2,15,,,,,,,,8,14,,,,,,,,,,,6,0.275,0,,,,,,-0.087239583,-0.388020833,1,0,0,0.2745,Pegmatite_rect,14,0,14,0,1,
664b804f02ee82829c916d49,SCN,2024-06-26_18h14.51.564,LearnStrategy,2023.2.3,Win32,59.52380952,9,2,16,,,,,,,,6,11,,,,,,,,,,,5,1.877,0,,,,,,-0.315104167,-0.390625,1,0,0,1.8774,Obsidian_rect,15,0,15,0,1,
664b804f02ee82829c916d49,SCN,2024-06-26_18h14.51.564,LearnStrategy,2023.2.3,Win32,59.52380952,,,,,,,,,,,,,,,,,,,,,,,,,,,,,,,,,,,,,,,,,,,0
664b804f02ee82829c916d49,SCN,2024-06-26_18h14.51.564,LearnStrategy,2023.2.3,Win32,59.52380952,,,,,,,,,,,,,,,,,,,,,,,,,,,,,,,,,,,,,,,,,,,
664b804f02ee82829c916d49,SCN,2024-06-26_18h14.51.564,LearnStrategy,2023.2.3,Win32,59.52380952,,,,,,,,,,,5,09,1,1,,,,,,,,,,,,,,,,,,,,,,,,,,,,,
664b804f02ee82829c916d49,SCN,2024-06-26_18h14.51.564,LearnStrategy,2023.2.3,Win32,59.52380952,,,,,,,,,,,7,07,1,2,,,,,,,,,,,,,,,,,,,,,,,,,,,,,
664b804f02ee82829c916d49,SCN,2024-06-26_18h14.51.564,LearnStrategy,2023.2.3,Win32,59.52380952,,,,,,,,,,,6,16,1,3,,,,,,,,,,,,,,,,,,,,,,,,,,,,,
664b804f02ee82829c916d49,SCN,2024-06-26_18h14.51.564,LearnStrategy,2023.2.3,Win32,59.52380952,,,,,,,,,,,8,04,1,4,,,,,,,,,,,,,,,,,,,,,,,,,,,,,
664b804f02ee82829c916d49,SCN,2024-06-26_18h14.51.564,LearnStrategy,2023.2.3,Win32,59.52380952,,,,,,,,,,,7,12,1,5,,,,,,,,,,,,,,,,,,,,,,,,,,,,,
664b804f02ee82829c916d49,SCN,2024-06-26_18h14.51.564,LearnStrategy,2023.2.3,Win32,59.52380952,,,,,,,,,,,5,16,1,6,,,,,,,,,,,,,,,,,,,,,,,,,,,,,
664b804f02ee82829c916d49,SCN,2024-06-26_18h14.51.564,LearnStrategy,2023.2.3,Win32,59.52380952,,,,,,,,,,,3,11,1,7,,,,,,,,,,,,,,,,,,,,,,,,,,,,,
664b804f02ee82829c916d49,SCN,2024-06-26_18h14.51.564,LearnStrategy,2023.2.3,Win32,59.52380952,,,,,,,,,,,2,14,1,8,,,,,,,,,,,,,,,,,,,,,,,,,,,,,
664b804f02ee82829c916d49,SCN,2024-06-26_18h14.51.564,LearnStrategy,2023.2.3,Win32,59.52380952,,,,,,,,,,,4,16,2,1,,,,,,,,,,,,,,,,,,,,,,,,,,,,,
664b804f02ee82829c916d49,SCN,2024-06-26_18h14.51.564,LearnStrategy,2023.2.3,Win32,59.52380952,,,,,,,,,,,1,02,2,2,,,,,,,,,,,,,,,,,,,,,,,,,,,,,
664b804f02ee82829c916d49,SCN,2024-06-26_18h14.51.564,LearnStrategy,2023.2.3,Win32,59.52380952,,,,,,,,,,,8,03,2,3,,,,,,,,,,,,,,,,,,,,,,,,,,,,,
664b804f02ee82829c916d49,SCN,2024-06-26_18h14.51.564,LearnStrategy,2023.2.3,Win32,59.52380952,,,,,,,,,,,8,09,2,4,,,,,,,,,,,,,,,,,,,,,,,,,,,,,
664b804f02ee82829c916d49,SCN,2024-06-26_18h14.51.564,LearnStrategy,2023.2.3,Win32,59.52380952,,,,,,,,,,,6,13,2,5,,,,,,,,,,,,,,,,,,,,,,,,,,,,,
664b804f02ee82829c916d49,SCN,2024-06-26_18h14.51.564,LearnStrategy,2023.2.3,Win32,59.52380952,,,,,,,,,,,6,08,2,6,,,,,,,,,,,,,,,,,,,,,,,,,,,,,
664b804f02ee82829c916d49,SCN,2024-06-26_18h14.51.564,LearnStrategy,2023.2.3,Win32,59.52380952,,,,,,,,,,,2,04,2,7,,,,,,,,,,,,,,,,,,,,,,,,,,,,,
664b804f02ee82829c916d49,SCN,2024-06-26_18h14.51.564,LearnStrategy,2023.2.3,Win32,59.52380952,,,,,,,,,,,3,16,2,8,,,,,,,,,,,,,,,,,,,,,,,,,,,,,
664b804f02ee82829c916d49,SCN,2024-06-26_18h14.51.564,LearnStrategy,2023.2.3,Win32,59.52380952,,,,,,,,,,,3,13,3,1,,,,,,,,,,,,,,,,,,,,,,,,,,,,,
664b804f02ee82829c916d49,SCN,2024-06-26_18h14.51.564,LearnStrategy,2023.2.3,Win32,59.52380952,,,,,,,,,,,7,05,3,2,,,,,,,,,,,,,,,,,,,,,,,,,,,,,
664b804f02ee82829c916d49,SCN,2024-06-26_18h14.51.564,LearnStrategy,2023.2.3,Win32,59.52380952,,,,,,,,,,,5,06,3,3,,,,,,,,,,,,,,,,,,,,,,,,,,,,,
664b804f02ee82829c916d49,SCN,2024-06-26_18h14.51.564,LearnStrategy,2023.2.3,Win32,59.52380952,,,,,,,,,,,4,15,3,4,,,,,,,,,,,,,,,,,,,,,,,,,,,,,
664b804f02ee82829c916d49,SCN,2024-06-26_18h14.51.564,LearnStrategy,2023.2.3,Win32,59.52380952,,,,,,,,,,,1,10,3,5,,,,,,,,,,,,,,,,,,,,,,,,,,,,,
664b804f02ee82829c916d49,SCN,2024-06-26_18h14.51.564,LearnStrategy,2023.2.3,Win32,59.52380952,,,,,,,,,,,3,15,3,6,,,,,,,,,,,,,,,,,,,,,,,,,,,,,
664b804f02ee82829c916d49,SCN,2024-06-26_18h14.51.564,LearnStrategy,2023.2.3,Win32,59.52380952,,,,,,,,,,,7,16,3,7,,,,,,,,,,,,,,,,,,,,,,,,,,,,,
664b804f02ee82829c916d49,SCN,2024-06-26_18h14.51.564,LearnStrategy,2023.2.3,Win32,59.52380952,,,,,,,,,,,3,07,3,8,,,,,,,,,,,,,,,,,,,,,,,,,,,,,
664b804f02ee82829c916d49,SCN,2024-06-26_18h14.51.564,LearnStrategy,2023.2.3,Win32,59.52380952,,,,,,,,,,,7,14,4,1,,,,,,,,,,,,,,,,,,,,,,,,,,,,,
664b804f02ee82829c916d49,SCN,2024-06-26_18h14.51.564,LearnStrategy,2023.2.3,Win32,59.52380952,,,,,,,,,,,1,07,4,2,,,,,,,,,,,,,,,,,,,,,,,,,,,,,
664b804f02ee82829c916d49,SCN,2024-06-26_18h14.51.564,LearnStrategy,2023.2.3,Win32,59.52380952,,,,,,,,,,,4,01,4,3,,,,,,,,,,,,,,,,,,,,,,,,,,,,,
664b804f02ee82829c916d49,SCN,2024-06-26_18h14.51.564,LearnStrategy,2023.2.3,Win32,59.52380952,,,,,,,,,,,2,05,4,4,,,,,,,,,,,,,,,,,,,,,,,,,,,,,
664b804f02ee82829c916d49,SCN,2024-06-26_18h14.51.564,LearnStrategy,2023.2.3,Win32,59.52380952,,,,,,,,,,,4,10,4,5,,,,,,,,,,,,,,,,,,,,,,,,,,,,,
664b804f02ee82829c916d49,SCN,2024-06-26_18h14.51.564,LearnStrategy,2023.2.3,Win32,59.52380952,,,,,,,,,,,8,02,4,6,,,,,,,,,,,,,,,,,,,,,,,,,,,,,
664b804f02ee82829c916d49,SCN,2024-06-26_18h14.51.564,LearnStrategy,2023.2.3,Win32,59.52380952,,,,,,,,,,,5,05,4,7,,,,,,,,,,,,,,,,,,,,,,,,,,,,,
664b804f02ee82829c916d49,SCN,2024-06-26_18h14.51.564,LearnStrategy,2023.2.3,Win32,59.52380952,,,,,,,,,,,4,08,4,8,,,,,,,,,,,,,,,,,,,,,,,,,,,,,
664b804f02ee82829c916d49,SCN,2024-06-26_18h14.51.564,LearnStrategy,2023.2.3,Win32,59.52380952,,,,,,,,,,,3,09,5,1,,,,,,,,,,,,,,,,,,,,,,,,,,,,,
664b804f02ee82829c916d49,SCN,2024-06-26_18h14.51.564,LearnStrategy,2023.2.3,Win32,59.52380952,,,,,,,,,,,5,14,5,2,,,,,,,,,,,,,,,,,,,,,,,,,,,,,
664b804f02ee82829c916d49,SCN,2024-06-26_18h14.51.564,LearnStrategy,2023.2.3,Win32,59.52380952,,,,,,,,,,,6,06,5,3,,,,,,,,,,,,,,,,,,,,,,,,,,,,,
664b804f02ee82829c916d49,SCN,2024-06-26_18h14.51.564,LearnStrategy,2023.2.3,Win32,59.52380952,,,,,,,,,,,5,10,5,4,,,,,,,,,,,,,,,,,,,,,,,,,,,,,
664b804f02ee82829c916d49,SCN,2024-06-26_18h14.51.564,LearnStrategy,2023.2.3,Win32,59.52380952,,,,,,,,,,,1,11,5,5,,,,,,,,,,,,,,,,,,,,,,,,,,,,,
664b804f02ee82829c916d49,SCN,2024-06-26_18h14.51.564,LearnStrategy,2023.2.3,Win32,59.52380952,,,,,,,,,,,7,13,5,6,,,,,,,,,,,,,,,,,,,,,,,,,,,,,
664b804f02ee82829c916d49,SCN,2024-06-26_18h14.51.564,LearnStrategy,2023.2.3,Win32,59.52380952,,,,,,,,,,,6,09,5,7,,,,,,,,,,,,,,,,,,,,,,,,,,,,,
664b804f02ee82829c916d49,SCN,2024-06-26_18h14.51.564,LearnStrategy,2023.2.3,Win32,59.52380952,,,,,,,,,,,8,13,5,8,,,,,,,,,,,,,,,,,,,,,,,,,,,,,
664b804f02ee82829c916d49,SCN,2024-06-26_18h14.51.564,LearnStrategy,2023.2.3,Win32,59.52380952,,,,,,,,,,,2,10,6,1,,,,,,,,,,,,,,,,,,,,,,,,,,,,,
664b804f02ee82829c916d49,SCN,2024-06-26_18h14.51.564,LearnStrategy,2023.2.3,Win32,59.52380952,,,,,,,,,,,1,09,6,2,,,,,,,,,,,,,,,,,,,,,,,,,,,,,
664b804f02ee82829c916d49,SCN,2024-06-26_18h14.51.564,LearnStrategy,2023.2.3,Win32,59.52380952,,,,,,,,,,,4,03,6,3,,,,,,,,,,,,,,,,,,,,,,,,,,,,,
664b804f02ee82829c916d49,SCN,2024-06-26_18h14.51.564,LearnStrategy,2023.2.3,Win32,59.52380952,,,,,,,,,,,8,16,6,4,,,,,,,,,,,,,,,,,,,,,,,,,,,,,
664b804f02ee82829c916d49,SCN,2024-06-26_18h14.51.564,LearnStrategy,2023.2.3,Win32,59.52380952,,,,,,,,,,,6,03,6,5,,,,,,,,,,,,,,,,,,,,,,,,,,,,,
664b804f02ee82829c916d49,SCN,2024-06-26_18h14.51.564,LearnStrategy,2023.2.3,Win32,59.52380952,,,,,,,,,,,2,09,6,6,,,,,,,,,,,,,,,,,,,,,,,,,,,,,
664b804f02ee82829c916d49,SCN,2024-06-26_18h14.51.564,LearnStrategy,2023.2.3,Win32,59.52380952,,,,,,,,,,,1,05,6,7,,,,,,,,,,,,,,,,,,,,,,,,,,,,,
664b804f02ee82829c916d49,SCN,2024-06-26_18h14.51.564,LearnStrategy,2023.2.3,Win32,59.52380952,,,,,,,,,,,2,12,6,8,,,,,,,,,,,,,,,,,,,,,,,,,,,,,