participant,condition,date,expName,psychopyVersion,OS,frameRate,block,phase,trial,learn_mouse_2.x,learn_mouse_2.y,learn_mouse_2.leftButton,learn_mouse_2.midButton,learn_mouse_2.rightButton,learn_mouse_2.time,learn_mouse_2.clicked_name,cat,token,row,col,t_select,cat_mouse_l.x,cat_mouse_l.y,cat_mouse_l.leftButton,cat_mouse_l.midButton,cat_mouse_l.rightButton,cat_mouse_l.time,cat_mouse_l.clicked_name,resp,t_resp,corr,train_trials.thisRepN,train_trials.thisTrialN,train_trials.thisN,train_trials.thisIndex,train_trials.ran,cat_mouse_t.x,cat_mouse_t.y,cat_mouse_t.leftButton,cat_mouse_t.midButton,cat_mouse_t.rightButton,cat_mouse_t.time,cat_mouse_t.clicked_name,test_trials.thisRepN,test_trials.thisTrialN,test_trials.thisN,test_trials.thisIndex,test_trials.ran,Bonus
664ce5c7969975237f0e8ffa,TCR,2024-06-21_12h47.59.239,LearnStrategy,2023.2.3,MacIntel,30.76923077,,,,,,,,,,,,,,,,,,,,,,,,,,,,,,,,,,,,,,,,,,,
664ce5c7969975237f0e8ffa,TCR,2024-06-21_12h47.59.239,LearnStrategy,2023.2.3,MacIntel,30.76923077,1,1,1,0.039592421,-0.008197937,1,0,0,2.6028,rock_grid_rect_2,1,09,-1,-1,2.603,0.094207696,-0.25648017,1,0,0,3.009,Diorite_rect,3,3.009,0,0,0,0,0,1,,,,,,,,,,,,,
664ce5c7969975237f0e8ffa,TCR,2024-06-21_12h47.59.239,LearnStrategy,2023.2.3,MacIntel,30.76923077,1,1,2,0.18559082,0.002711317,1,0,0,1.3809,rock_grid_rect_2,3,12,-1,-1,1.381,0.310294257,-0.386113485,1,0,0,4.0768,Pumice_rect,8,4.077,0,1,0,1,0,1,,,,,,,,,,,,,
664ce5c7969975237f0e8ffa,TCR,2024-06-21_12h47.59.239,LearnStrategy,2023.2.3,MacIntel,30.76923077,1,1,3,0.168154907,-0.011105889,1,0,0,1.5192,rock_grid_rect_2,7,07,-1,-1,1.519,-0.337336256,-0.250559625,1,0,0,3.2129,Andesite_rect,1,3.213,0,2,0,2,0,1,,,,,,,,,,,,,
664ce5c7969975237f0e8ffa,TCR,2024-06-21_12h47.59.239,LearnStrategy,2023.2.3,MacIntel,30.76923077,1,1,4,0.102066989,0.002009142,1,0,0,1.2254,rock_grid_rect_2,4,13,-1,-1,1.225,0.34018514,-0.255034112,1,0,0,3.3164,Gabbro_rect,4,3.316,1,3,0,3,0,1,,,,,,,,,,,,,
664ce5c7969975237f0e8ffa,TCR,2024-06-21_12h47.59.239,LearnStrategy,2023.2.3,MacIntel,30.76923077,1,1,5,0.090485569,0.012690362,1,0,0,1.0519,rock_grid_rect_2,6,03,-1,-1,1.052,-0.087401326,-0.382979397,1,0,0,1.867,Pegmatite_rect,6,1.867,1,4,0,4,0,1,,,,,,,,,,,,,
664ce5c7969975237f0e8ffa,TCR,2024-06-21_12h47.59.239,LearnStrategy,2023.2.3,MacIntel,30.76923077,1,1,6,0.064372559,-0.010520528,1,0,0,1.0631,rock_grid_rect_2,1,02,-1,-1,1.063,0.348333876,-0.401413845,1,0,0,3.5778,Pumice_rect,8,3.578,0,5,0,5,0,1,,,,,,,,,,,,,
664ce5c7969975237f0e8ffa,TCR,2024-06-21_12h47.59.239,LearnStrategy,2023.2.3,MacIntel,30.76923077,1,1,7,0.181950819,0.009711439,1,0,0,1.5431,rock_grid_rect_2,2,10,-1,-1,1.543,-0.146199341,-0.23872701,1,0,0,2.724,Basalt_rect,2,2.724,1,6,0,6,0,1,,,,,,,,,,,,,
664ce5c7969975237f0e8ffa,TCR,2024-06-21_12h47.59.239,LearnStrategy,2023.2.3,MacIntel,30.76923077,1,1,8,0.021128269,-0.013076884,1,0,0,1.0456,rock_grid_rect_2,5,14,-1,-1,1.046,-0.093340929,-0.266300524,1,0,0,2.0928,Basalt_rect,2,2.093,0,7,0,7,0,1,,,,,,,,,,,,,
664ce5c7969975237f0e8ffa,TCR,2024-06-21_12h47.59.239,LearnStrategy,2023.2.3,MacIntel,30.76923077,1,1,9,0.03434394,0.009795837,1,0,0,1.0424,rock_grid_rect_2,2,11,-1,-1,1.042,0.324751383,-0.385605265,1,0,0,3.4515,Pumice_rect,8,3.452,0,8,0,8,0,1,,,,,,,,,,,,,
664ce5c7969975237f0e8ffa,TCR,2024-06-21_12h47.59.239,LearnStrategy,2023.2.3,MacIntel,30.76923077,1,1,10,0.062846612,0.004744263,1,0,0,1.1365,rock_grid_rect_2,8,06,-1,-1,1.137,-0.138863322,-0.381417033,1,0,0,1.9363,Pegmatite_rect,6,1.936,0,9,0,9,0,1,,,,,,,,,,,,,
664ce5c7969975237f0e8ffa,TCR,2024-06-21_12h47.59.239,LearnStrategy,2023.2.3,MacIntel,30.76923077,1,1,11,0.067189806,-0.009482117,1,0,0,0.9172,rock_grid_rect_2,3,07,-1,-1,0.917,0.069509956,-0.251433512,1,0,0,1.298,Diorite_rect,3,1.298,1,10,0,10,0,1,,,,,,,,,,,,,
664ce5c7969975237f0e8ffa,TCR,2024-06-21_12h47.59.239,LearnStrategy,2023.2.3,MacIntel,30.76923077,1,1,12,0.022660455,0.004225939,1,0,0,0.9373,rock_grid_rect_2,5,10,-1,-1,0.937,-0.349310371,-0.386408013,1,0,0,2.1455,Obsidian_rect,5,2.145,1,11,0,11,0,1,,,,,,,,,,,,,
664ce5c7969975237f0e8ffa,TCR,2024-06-21_12h47.59.239,LearnStrategy,2023.2.3,MacIntel,30.76923077,1,1,13,0.025264825,0.00482388,1,0,0,0.9033,rock_grid_rect_2,8,13,-1,-1,0.903,0.323005032,-0.41918925,1,0,0,2.4247,Pumice_rect,8,2.425,1,12,0,12,0,1,,,,,,,,,,,,,
664ce5c7969975237f0e8ffa,TCR,2024-06-21_12h47.59.239,LearnStrategy,2023.2.3,MacIntel,30.76923077,1,1,14,0.091863471,0.004895766,1,0,0,0.8673,rock_grid_rect_2,4,11,-1,-1,0.867,-0.336241082,-0.267277696,1,0,0,2.4576,Andesite_rect,1,2.458,0,13,0,13,0,1,,,,,,,,,,,,,
664ce5c7969975237f0e8ffa,TCR,2024-06-21_12h47.59.239,LearnStrategy,2023.2.3,MacIntel,30.76923077,1,1,15,0.02605462,-0.013584256,1,0,0,1.0098,rock_grid_rect_2,6,15,-1,-1,1.01,0.345086806,-0.247532959,1,0,0,1.5559,Gabbro_rect,4,1.556,0,14,0,14,0,1,,,,,,,,,,,,,
664ce5c7969975237f0e8ffa,TCR,2024-06-21_12h47.59.239,LearnStrategy,2023.2.3,MacIntel,30.76923077,1,1,16,0.022637939,-0.021077542,1,0,0,0.8612,rock_grid_rect_2,7,04,-1,-1,0.861,0.085811428,-0.390450846,1,0,0,2.572,Peridotite_rect,7,2.572,1,15,0,15,0,1,,,,,,,,,,,,,
664ce5c7969975237f0e8ffa,TCR,2024-06-21_12h47.59.239,LearnStrategy,2023.2.3,MacIntel,30.76923077,1,2,1,,,,,,,,4,14,,,,,,,,,,,1,3.923,0,,,,,,-0.293189087,-0.234040256,1,0,0,3.9235,Andesite_rect,0,0,0,0,1,
664ce5c7969975237f0e8ffa,TCR,2024-06-21_12h47.59.239,LearnStrategy,2023.2.3,MacIntel,30.76923077,1,2,2,,,,,,,,8,09,,,,,,,,,,,8,2.772,1,,,,,,0.407044813,-0.417849053,1,0,0,2.7721,Pumice_rect,1,0,1,0,1,
664ce5c7969975237f0e8ffa,TCR,2024-06-21_12h47.59.239,LearnStrategy,2023.2.3,MacIntel,30.76923077,1,2,3,,,,,,,,5,05,,,,,,,,,,,5,2.378,1,,,,,,-0.336598443,-0.381953803,1,0,0,2.3781,Obsidian_rect,2,0,2,0,1,
664ce5c7969975237f0e8ffa,TCR,2024-06-21_12h47.59.239,LearnStrategy,2023.2.3,MacIntel,30.76923077,1,2,4,,,,,,,,6,07,,,,,,,,,,,4,2.064,0,,,,,,0.323648003,-0.248898655,1,0,0,2.0639,Gabbro_rect,3,0,3,0,1,
664ce5c7969975237f0e8ffa,TCR,2024-06-21_12h47.59.239,LearnStrategy,2023.2.3,MacIntel,30.76923077,1,2,5,,,,,,,,2,02,,,,,,,,,,,2,4.234,1,,,,,,-0.112489963,-0.239222412,1,0,0,4.234,Basalt_rect,4,0,4,0,1,
664ce5c7969975237f0e8ffa,TCR,2024-06-21_12h47.59.239,LearnStrategy,2023.2.3,MacIntel,30.76923077,1,2,6,,,,,,,,8,02,,,,,,,,,,,8,1.928,1,,,,,,0.453504639,-0.394178738,1,0,0,1.9283,Pumice_rect,5,0,5,0,1,
664ce5c7969975237f0e8ffa,TCR,2024-06-21_12h47.59.239,LearnStrategy,2023.2.3,MacIntel,30.76923077,1,2,7,,,,,,,,1,14,,,,,,,,,,,1,2.708,1,,,,,,-0.315332709,-0.238348796,1,0,0,2.7075,Andesite_rect,6,0,6,0,1,
664ce5c7969975237f0e8ffa,TCR,2024-06-21_12h47.59.239,LearnStrategy,2023.2.3,MacIntel,30.76923077,1,2,8,,,,,,,,1,10,,,,,,,,,,,1,2.291,1,,,,,,-0.313935038,-0.236960653,1,0,0,2.2911,Andesite_rect,7,0,7,0,1,
664ce5c7969975237f0e8ffa,TCR,2024-06-21_12h47.59.239,LearnStrategy,2023.2.3,MacIntel,30.76923077,1,2,9,,,,,,,,5,04,,,,,,,,,,,5,1.889,1,,,,,,-0.350848999,-0.401459554,1,0,0,1.8885,Obsidian_rect,8,0,8,0,1,
664ce5c7969975237f0e8ffa,TCR,2024-06-21_12h47.59.239,LearnStrategy,2023.2.3,MacIntel,30.76923077,1,2,10,,,,,,,,4,01,,,,,,,,,,,3,2.808,0,,,,,,0.144740533,-0.230467597,1,0,0,2.8082,Diorite_rect,9,0,9,0,1,
664ce5c7969975237f0e8ffa,TCR,2024-06-21_12h47.59.239,LearnStrategy,2023.2.3,MacIntel,30.76923077,1,2,11,,,,,,,,7,06,,,,,,,,,,,6,2.637,0,,,,,,-0.073035753,-0.416097887,1,0,0,2.6375,Pegmatite_rect,10,0,10,0,1,
664ce5c7969975237f0e8ffa,TCR,2024-06-21_12h47.59.239,LearnStrategy,2023.2.3,MacIntel,30.76923077,1,2,12,,,,,,,,6,10,,,,,,,,,,,4,2.313,0,,,,,,0.323341064,-0.24548428,1,0,0,2.3125,Gabbro_rect,11,0,11,0,1,
664ce5c7969975237f0e8ffa,TCR,2024-06-21_12h47.59.239,LearnStrategy,2023.2.3,MacIntel,30.76923077,1,2,13,,,,,,,,3,11,,,,,,,,,,,3,1.539,1,,,,,,0.144996474,-0.267678562,1,0,0,1.5389,Diorite_rect,12,0,12,0,1,
664ce5c7969975237f0e8ffa,TCR,2024-06-21_12h47.59.239,LearnStrategy,2023.2.3,MacIntel,30.76923077,1,2,14,,,,,,,,3,09,,,,,,,,,,,3,1.14,1,,,,,,0.145810683,-0.267678562,1,0,0,1.1398,Diorite_rect,13,0,13,0,1,
664ce5c7969975237f0e8ffa,TCR,2024-06-21_12h47.59.239,LearnStrategy,2023.2.3,MacIntel,30.76923077,1,2,15,,,,,,,,2,08,,,,,,,,,,,2,1.407,1,,,,,,-0.105986599,-0.25870992,1,0,0,1.4066,Basalt_rect,14,0,14,0,1,
664ce5c7969975237f0e8ffa,TCR,2024-06-21_12h47.59.239,LearnStrategy,2023.2.3,MacIntel,30.76923077,1,2,16,,,,,,,,7,14,,,,,,,,,,,8,1.478,0,,,,,,0.346993273,-0.395367228,1,0,0,1.4777,Pumice_rect,15,0,15,0,1,
664ce5c7969975237f0e8ffa,TCR,2024-06-21_12h47.59.239,LearnStrategy,2023.2.3,MacIntel,30.76923077,2,1,1,0.076145698,0.011372206,1,0,0,1.0858,rock_grid_rect_2,8,04,-1,-1,1.086,0.366782498,-0.385112576,1,0,0,2.3886,Pumice_rect,8,2.389,1,0,0,0,0,1,,,,,,,,,,,,,
664ce5c7969975237f0e8ffa,TCR,2024-06-21_12h47.59.239,LearnStrategy,2023.2.3,MacIntel,30.76923077,2,1,2,0.025537109,0.024557156,1,0,0,1.466,rock_grid_rect_2,7,16,-1,-1,1.466,0.308048435,-0.230655992,1,0,0,1.5592,Gabbro_rect,4,1.559,0,1,0,1,0,1,,,,,,,,,,,,,
664ce5c7969975237f0e8ffa,TCR,2024-06-21_12h47.59.239,LearnStrategy,2023.2.3,MacIntel,30.76923077,2,1,3,0.025514662,-0.01192237,1,0,0,0.8993,rock_grid_rect_2,6,08,-1,-1,0.899,0.348602431,-0.240439724,1,0,0,1.7939,Gabbro_rect,4,1.794,0,2,0,2,0,1,,,,,,,,,,,,,
664ce5c7969975237f0e8ffa,TCR,2024-06-21_12h47.59.239,LearnStrategy,2023.2.3,MacIntel,30.76923077,2,1,4,0.081912842,0.002801378,1,0,0,1.2192,rock_grid_rect_2,7,13,-1,-1,1.219,0.34750434,-0.234685126,1,0,0,2.8868,Gabbro_rect,4,2.887,0,3,0,3,0,1,,,,,,,,,,,,,
664ce5c7969975237f0e8ffa,TCR,2024-06-21_12h47.59.239,LearnStrategy,2023.2.3,MacIntel,30.76923077,2,1,5,0.07125963,0.004490628,1,0,0,0.8419,rock_grid_rect_2,4,11,-1,-1,0.842,-0.377506578,-0.255637071,1,0,0,2.6386,Andesite_rect,1,2.639,0,4,0,4,0,1,,,,,,,,,,,,,
664ce5c7969975237f0e8ffa,TCR,2024-06-21_12h47.59.239,LearnStrategy,2023.2.3,MacIntel,30.76923077,2,1,6,0.090537516,-0.018771261,1,0,0,0.943,rock_grid_rect_2,7,04,-1,-1,0.943,0.148760647,-0.397687988,1,0,0,2.1066,Peridotite_rect,7,2.107,1,5,0,5,0,1,,,,,,,,,,,,,
664ce5c7969975237f0e8ffa,TCR,2024-06-21_12h47.59.239,LearnStrategy,2023.2.3,MacIntel,30.76923077,2,1,7,0.033190443,-0.01373447,1,0,0,0.8296,rock_grid_rect_2,6,09,-1,-1,0.83,0.328236694,-0.264831882,1,0,0,1.6619,Gabbro_rect,4,1.662,0,6,0,6,0,1,,,,,,,,,,,,,
664ce5c7969975237f0e8ffa,TCR,2024-06-21_12h47.59.239,LearnStrategy,2023.2.3,MacIntel,30.76923077,2,1,8,0.138878377,0.007016093,1,0,0,0.9175,rock_grid_rect_2,4,12,-1,-1,0.917,0.121984728,-0.251012505,1,0,0,1.1249,Diorite_rect,3,1.125,0,7,0,7,0,1,,,,,,,,,,,,,
664ce5c7969975237f0e8ffa,TCR,2024-06-21_12h47.59.239,LearnStrategy,2023.2.3,MacIntel,30.76923077,2,1,9,0.097020331,-0.000119019,1,0,0,0.8803,rock_grid_rect_2,4,12,-1,-1,0.88,0.379122721,-0.23322781,1,0,0,1.7378,Gabbro_rect,4,1.738,1,8,0,8,0,1,,,,,,,,,,,,,
664ce5c7969975237f0e8ffa,TCR,2024-06-21_12h47.59.239,LearnStrategy,2023.2.3,MacIntel,30.76923077,2,1,10,0.049670749,-0.003507962,1,0,0,0.82,rock_grid_rect_2,1,09,-1,-1,0.82,0.100699056,-0.228027276,1,0,0,1.4338,Diorite_rect,3,1.434,0,9,0,9,0,1,,,,,,,,,,,,,
664ce5c7969975237f0e8ffa,TCR,2024-06-21_12h47.59.239,LearnStrategy,2023.2.3,MacIntel,30.76923077,2,1,11,0.041571181,0.014332004,1,0,0,0.6609,rock_grid_rect_2,6,08,-1,-1,0.661,-0.111930813,-0.418338555,1,0,0,1.6632,Pegmatite_rect,6,1.663,1,10,0,10,0,1,,,,,,,,,,,,,
664ce5c7969975237f0e8ffa,TCR,2024-06-21_12h47.59.239,LearnStrategy,2023.2.3,MacIntel,30.76923077,2,1,12,0.026058892,0.024470418,1,0,0,0.9378,rock_grid_rect_2,3,12,-1,-1,0.938,0.118537598,-0.248700562,1,0,0,1.4379,Diorite_rect,3,1.438,1,11,0,11,0,1,,,,,,,,,,,,,
664ce5c7969975237f0e8ffa,TCR,2024-06-21_12h47.59.239,LearnStrategy,2023.2.3,MacIntel,30.76923077,2,1,13,0.041927151,-0.019235399,1,0,0,0.8945,rock_grid_rect_2,7,16,-1,-1,0.894,0.372790256,-0.242097168,1,0,0,1.7414,Gabbro_rect,4,1.741,0,12,0,12,0,1,,,,,,,,,,,,,
664ce5c7969975237f0e8ffa,TCR,2024-06-21_12h47.59.239,LearnStrategy,2023.2.3,MacIntel,30.76923077,2,1,14,0.11710612,-0.004365641,1,0,0,1.3783,rock_grid_rect_2,4,15,-1,-1,1.378,0.062072144,-0.244487169,1,0,0,1.2291,Diorite_rect,3,1.229,0,13,0,13,0,1,,,,,,,,,,,,,
664ce5c7969975237f0e8ffa,TCR,2024-06-21_12h47.59.239,LearnStrategy,2023.2.3,MacIntel,30.76923077,2,1,15,0.049655355,0.00662323,1,0,0,0.6019,rock_grid_rect_2,4,15,-1,-1,0.602,0.353178304,-0.231389906,1,0,0,0.9871,Gabbro_rect,4,0.987,1,14,0,14,0,1,,,,,,,,,,,,,
664ce5c7969975237f0e8ffa,TCR,2024-06-21_12h47.59.239,LearnStrategy,2023.2.3,MacIntel,30.76923077,2,1,16,-0.005262519,-0.004004924,1,0,0,0.8244,rock_grid_rect_2,6,08,-1,-1,0.824,-0.116758898,-0.379832967,1,0,0,1.5287,Pegmatite_rect,6,1.529,1,15,0,15,0,1,,,,,,,,,,,,,
664ce5c7969975237f0e8ffa,TCR,2024-06-21_12h47.59.239,LearnStrategy,2023.2.3,MacIntel,30.76923077,2,2,1,,,,,,,,1,07,,,,,,,,,,,3,1.511,0,,,,,,0.045744154,-0.258899061,1,0,0,1.5111,Diorite_rect,0,0,0,0,1,
664ce5c7969975237f0e8ffa,TCR,2024-06-21_12h47.59.239,LearnStrategy,2023.2.3,MacIntel,30.76923077,2,2,2,,,,,,,,8,14,,,,,,,,,,,3,0.287,0,,,,,,0.045744154,-0.258899061,1,0,0,0.287,Diorite_rect,1,0,1,0,1,
664ce5c7969975237f0e8ffa,TCR,2024-06-21_12h47.59.239,LearnStrategy,2023.2.3,MacIntel,30.76923077,2,2,3,,,,,,,,3,08,,,,,,,,,,,3,1.169,1,,,,,,0.045744154,-0.258899061,1,0,0,1.1692,Diorite_rect,2,0,2,0,1,
664ce5c7969975237f0e8ffa,TCR,2024-06-21_12h47.59.239,LearnStrategy,2023.2.3,MacIntel,30.76923077,2,2,4,,,,,,,,1,16,,,,,,,,,,,1,1.707,1,,,,,,-0.347558458,-0.260304498,1,0,0,1.707,Andesite_rect,3,0,3,0,1,
664ce5c7969975237f0e8ffa,TCR,2024-06-21_12h47.59.239,LearnStrategy,2023.2.3,MacIntel,30.76923077,2,2,5,,,,,,,,8,16,,,,,,,,,,,8,1.245,1,,,,,,0.407690837,-0.403479818,1,0,0,1.2452,Pumice_rect,4,0,4,0,1,
664ce5c7969975237f0e8ffa,TCR,2024-06-21_12h47.59.239,LearnStrategy,2023.2.3,MacIntel,30.76923077,2,2,6,,,,,,,,6,06,,,,,,,,,,,4,1.05,0,,,,,,0.387495117,-0.230584581,1,0,0,1.0497,Gabbro_rect,5,0,5,0,1,
664ce5c7969975237f0e8ffa,TCR,2024-06-21_12h47.59.239,LearnStrategy,2023.2.3,MacIntel,30.76923077,2,2,7,,,,,,,,4,08,,,,,,,,,,,1,1.81,0,,,,,,-0.329819675,-0.254620497,1,0,0,1.81,Andesite_rect,6,0,6,0,1,
664ce5c7969975237f0e8ffa,TCR,2024-06-21_12h47.59.239,LearnStrategy,2023.2.3,MacIntel,30.76923077,2,2,8,,,,,,,,6,16,,,,,,,,,,,7,1.811,0,,,,,,0.033707072,-0.417379693,1,0,0,1.811,Peridotite_rect,7,0,7,0,1,
664ce5c7969975237f0e8ffa,TCR,2024-06-21_12h47.59.239,LearnStrategy,2023.2.3,MacIntel,30.76923077,2,2,9,,,,,,,,4,03,,,,,,,,,,,3,1.63,0,,,,,,0.130607435,-0.240914917,1,0,0,1.63,Diorite_rect,8,0,8,0,1,
664ce5c7969975237f0e8ffa,TCR,2024-06-21_12h47.59.239,LearnStrategy,2023.2.3,MacIntel,30.76923077,2,2,10,,,,,,,,2,06,,,,,,,,,,,5,1.366,0,,,,,,-0.382403937,-0.393178779,1,0,0,1.366,Obsidian_rect,9,0,9,0,1,
664ce5c7969975237f0e8ffa,TCR,2024-06-21_12h47.59.239,LearnStrategy,2023.2.3,MacIntel,30.76923077,2,2,11,,,,,,,,2,09,,,,,,,,,,,2,1.072,1,,,,,,-0.174252116,-0.251523641,1,0,0,1.0724,Basalt_rect,10,0,10,0,1,
664ce5c7969975237f0e8ffa,TCR,2024-06-21_12h47.59.239,LearnStrategy,2023.2.3,MacIntel,30.76923077,2,2,12,,,,,,,,7,10,,,,,,,,,,,6,1.57,0,,,,,,-0.076472439,-0.403676147,1,0,0,1.5703,Pegmatite_rect,11,0,11,0,1,
664ce5c7969975237f0e8ffa,TCR,2024-06-21_12h47.59.239,LearnStrategy,2023.2.3,MacIntel,30.76923077,2,2,13,,,,,,,,5,02,,,,,,,,,,,5,1.293,1,,,,,,-0.349691399,-0.380441827,1,0,0,1.2929,Obsidian_rect,12,0,12,0,1,
664ce5c7969975237f0e8ffa,TCR,2024-06-21_12h47.59.239,LearnStrategy,2023.2.3,MacIntel,30.76923077,2,2,14,,,,,,,,5,08,,,,,,,,,,,5,0.761,1,,,,,,-0.349691399,-0.380441827,1,0,0,0.761,Obsidian_rect,13,0,13,0,1,
664ce5c7969975237f0e8ffa,TCR,2024-06-21_12h47.59.239,LearnStrategy,2023.2.3,MacIntel,30.76923077,2,2,15,,,,,,,,3,10,,,,,,,,,,,3,2.393,1,,,,,,0.103987834,-0.243800456,1,0,0,2.3932,Diorite_rect,14,0,14,0,1,
664ce5c7969975237f0e8ffa,TCR,2024-06-21_12h47.59.239,LearnStrategy,2023.2.3,MacIntel,30.76923077,2,2,16,,,,,,,,7,12,,,,,,,,,,,4,1.367,0,,,,,,0.390503201,-0.259967516,1,0,0,1.3666,Gabbro_rect,15,0,15,0,1,
664ce5c7969975237f0e8ffa,TCR,2024-06-21_12h47.59.239,LearnStrategy,2023.2.3,MacIntel,30.76923077,3,1,1,-0.03002828,0.004092136,1,0,0,1.4213,rock_grid_rect_2,4,13,-1,-1,1.421,0.337570936,-0.25029697,1,0,0,1.9634,Gabbro_rect,4,1.963,1,0,0,0,0,1,,,,,,,,,,,,,
664ce5c7969975237f0e8ffa,TCR,2024-06-21_12h47.59.239,LearnStrategy,2023.2.3,MacIntel,30.76923077,3,1,2,0.017455241,-0.007346836,1,0,0,1.8761,rock_grid_rect_2,4,13,-1,-1,1.876,0.329323459,-0.228703274,1,0,0,1.1702,Gabbro_rect,4,1.17,1,1,0,1,0,1,,,,,,,,,,,,,
664ce5c7969975237f0e8ffa,TCR,2024-06-21_12h47.59.239,LearnStrategy,2023.2.3,MacIntel,30.76923077,3,1,3,0.001962416,0.008010356,1,0,0,0.8926,rock_grid_rect_2,8,08,-1,-1,0.893,0.324817912,-0.40399448,1,0,0,1.7973,Pumice_rect,8,1.797,1,2,0,2,0,1,,,,,,,,,,,,,
664ce5c7969975237f0e8ffa,TCR,2024-06-21_12h47.59.239,LearnStrategy,2023.2.3,MacIntel,30.76923077,3,1,4,0.005686917,0.01528968,1,0,0,1.3651,rock_grid_rect_2,4,12,-1,-1,1.365,-0.398591173,-0.237307807,1,0,0,1.6384,Andesite_rect,1,1.638,0,3,0,3,0,1,,,,,,,,,,,,,
664ce5c7969975237f0e8ffa,TCR,2024-06-21_12h47.59.239,LearnStrategy,2023.2.3,MacIntel,30.76923077,3,1,5,0.105363498,-0.00888716,1,0,0,0.8898,rock_grid_rect_2,2,11,-1,-1,0.89,-0.367736782,-0.254170871,1,0,0,2.7985,Andesite_rect,1,2.798,0,4,0,4,0,1,,,,,,,,,,,,,
664ce5c7969975237f0e8ffa,TCR,2024-06-21_12h47.59.239,LearnStrategy,2023.2.3,MacIntel,30.76923077,3,1,6,0.015382351,-0.003764784,1,0,0,1.2363,rock_grid_rect_2,7,16,-1,-1,1.236,0.359695502,-0.25988817,1,0,0,2.1451,Gabbro_rect,4,2.145,0,5,0,5,0,1,,,,,,,,,,,,,
664ce5c7969975237f0e8ffa,TCR,2024-06-21_12h47.59.239,LearnStrategy,2023.2.3,MacIntel,30.76923077,3,1,7,0.086434801,-0.009256253,1,0,0,0.7479,rock_grid_rect_2,7,16,-1,-1,0.748,0.106094225,-0.38973999,1,0,0,1.0982,Peridotite_rect,7,1.098,1,6,0,6,0,1,,,,,,,,,,,,,
664ce5c7969975237f0e8ffa,TCR,2024-06-21_12h47.59.239,LearnStrategy,2023.2.3,MacIntel,30.76923077,3,1,8,0.083821004,0.001951362,1,0,0,0.8467,rock_grid_rect_2,6,09,-1,-1,0.847,-0.145249295,-0.412789374,1,0,0,1.3289,Pegmatite_rect,6,1.329,1,7,0,7,0,1,,,,,,,,,,,,,
664ce5c7969975237f0e8ffa,TCR,2024-06-21_12h47.59.239,LearnStrategy,2023.2.3,MacIntel,30.76923077,3,1,9,0.069134318,-0.001674567,1,0,0,0.9692,rock_grid_rect_2,4,13,-1,-1,0.969,0.317354872,-0.264839952,1,0,0,1.6963,Gabbro_rect,4,1.696,1,8,0,8,0,1,,,,,,,,,,,,,
664ce5c7969975237f0e8ffa,TCR,2024-06-21_12h47.59.239,LearnStrategy,2023.2.3,MacIntel,30.76923077,3,1,10,0.058386773,-0.014648505,1,0,0,0.9429,rock_grid_rect_2,6,08,-1,-1,0.943,-0.131398044,-0.398145752,1,0,0,2.1092,Pegmatite_rect,6,2.109,1,9,0,9,0,1,,,,,,,,,,,,,
664ce5c7969975237f0e8ffa,TCR,2024-06-21_12h47.59.239,LearnStrategy,2023.2.3,MacIntel,30.76923077,3,1,11,0.167145996,0.016979031,1,0,0,0.882,rock_grid_rect_2,3,16,-1,-1,0.882,0.101889988,-0.252380507,1,0,0,1.0952,Diorite_rect,3,1.095,1,10,0,10,0,1,,,,,,,,,,,,,
664ce5c7969975237f0e8ffa,TCR,2024-06-21_12h47.59.239,LearnStrategy,2023.2.3,MacIntel,30.76923077,3,1,12,0.01070638,-0.016981879,1,0,0,0.8362,rock_grid_rect_2,5,11,-1,-1,0.836,-0.391942173,-0.394415419,1,0,0,1.1548,Obsidian_rect,5,1.155,1,11,0,11,0,1,,,,,,,,,,,,,
664ce5c7969975237f0e8ffa,TCR,2024-06-21_12h47.59.239,LearnStrategy,2023.2.3,MacIntel,30.76923077,3,1,13,0.037662557,0.019224989,1,0,0,0.9027,rock_grid_rect_2,6,05,-1,-1,0.903,-0.133933173,-0.408192952,1,0,0,2.9255,Pegmatite_rect,6,2.925,1,12,0,12,0,1,,,,,,,,,,,,,
664ce5c7969975237f0e8ffa,TCR,2024-06-21_12h47.59.239,LearnStrategy,2023.2.3,MacIntel,30.76923077,3,1,14,0.108952705,-0.004958293,1,0,0,0.9364,rock_grid_rect_2,6,03,-1,-1,0.936,0.2015212,-0.41102044,1,0,0,1.792,Peridotite_rect,7,1.792,0,13,0,13,0,1,,,,,,,,,,,,,
664ce5c7969975237f0e8ffa,TCR,2024-06-21_12h47.59.239,LearnStrategy,2023.2.3,MacIntel,30.76923077,3,1,15,-0.018062812,0.010404867,1,0,0,4.7541,rock_grid_rect_2,7,04,-1,-1,4.754,-0.122091675,-0.418883396,1,0,0,1.2271,Pegmatite_rect,6,1.227,0,14,0,14,0,1,,,,,,,,,,,,,
664ce5c7969975237f0e8ffa,TCR,2024-06-21_12h47.59.239,LearnStrategy,2023.2.3,MacIntel,30.76923077,3,1,16,0.079859144,0.017701653,1,0,0,0.9895,rock_grid_rect_2,1,05,-1,-1,0.99,-0.103918186,-0.243920492,1,0,0,1.3519,Basalt_rect,2,1.352,0,15,0,15,0,1,,,,,,,,,,,,,
664ce5c7969975237f0e8ffa,TCR,2024-06-21_12h47.59.239,LearnStrategy,2023.2.3,MacIntel,30.76923077,3,2,1,,,,,,,,2,16,,,,,,,,,,,2,1.615,1,,,,,,-0.097080417,-0.244234687,1,0,0,1.615,Basalt_rect,0,0,0,0,1,
664ce5c7969975237f0e8ffa,TCR,2024-06-21_12h47.59.239,LearnStrategy,2023.2.3,MacIntel,30.76923077,3,2,2,,,,,,,,7,05,,,,,,,,,,,7,3.71,1,,,,,,0.134439901,-0.397255249,1,0,0,3.7102,Peridotite_rect,1,0,1,0,1,
664ce5c7969975237f0e8ffa,TCR,2024-06-21_12h47.59.239,LearnStrategy,2023.2.3,MacIntel,30.76923077,3,2,3,,,,,,,,1,03,,,,,,,,,,,1,1.922,1,,,,,,-0.386335246,-0.233857558,1,0,0,1.9224,Andesite_rect,2,0,2,0,1,
664ce5c7969975237f0e8ffa,TCR,2024-06-21_12h47.59.239,LearnStrategy,2023.2.3,MacIntel,30.76923077,3,2,4,,,,,,,,6,13,,,,,,,,,,,6,1.477,1,,,,,,-0.137978516,-0.401703423,1,0,0,1.477,Pegmatite_rect,3,0,3,0,1,
664ce5c7969975237f0e8ffa,TCR,2024-06-21_12h47.59.239,LearnStrategy,2023.2.3,MacIntel,30.76923077,3,2,5,,,,,,,,1,04,,,,,,,,,,,6,1.093,0,,,,,,-0.137978516,-0.401703423,1,0,0,1.0933,Pegmatite_rect,4,0,4,0,1,
664ce5c7969975237f0e8ffa,TCR,2024-06-21_12h47.59.239,LearnStrategy,2023.2.3,MacIntel,30.76923077,3,2,6,,,,,,,,8,03,,,,,,,,,,,8,1.185,1,,,,,,0.384988336,-0.395449626,1,0,0,1.1849,Pumice_rect,5,0,5,0,1,
664ce5c7969975237f0e8ffa,TCR,2024-06-21_12h47.59.239,LearnStrategy,2023.2.3,MacIntel,30.76923077,3,2,7,,,,,,,,3,02,,,,,,,,,,,3,1.094,1,,,,,,0.170372111,-0.260749986,1,0,0,1.0943,Diorite_rect,6,0,6,0,1,
664ce5c7969975237f0e8ffa,TCR,2024-06-21_12h47.59.239,LearnStrategy,2023.2.3,MacIntel,30.76923077,3,2,8,,,,,,,,2,05,,,,,,,,,,,2,1.567,1,,,,,,-0.14294047,-0.246825968,1,0,0,1.5667,Basalt_rect,7,0,7,0,1,
664ce5c7969975237f0e8ffa,TCR,2024-06-21_12h47.59.239,LearnStrategy,2023.2.3,MacIntel,30.76923077,3,2,9,,,,,,,,5,07,,,,,,,,,,,5,1.584,1,,,,,,-0.384326138,-0.40549235,1,0,0,1.5836,Obsidian_rect,8,0,8,0,1,
664ce5c7969975237f0e8ffa,TCR,2024-06-21_12h47.59.239,LearnStrategy,2023.2.3,MacIntel,30.76923077,3,2,10,,,,,,,,8,05,,,,,,,,,,,8,1.377,1,,,,,,0.406316596,-0.410238512,1,0,0,1.3767,Pumice_rect,9,0,9,0,1,
664ce5c7969975237f0e8ffa,TCR,2024-06-21_12h47.59.239,LearnStrategy,2023.2.3,MacIntel,30.76923077,3,2,11,,,,,,,,5,09,,,,,,,,,,,5,1.388,1,,,,,,-0.348766785,-0.380854763,1,0,0,1.3884,Obsidian_rect,10,0,10,0,1,
664ce5c7969975237f0e8ffa,TCR,2024-06-21_12h47.59.239,LearnStrategy,2023.2.3,MacIntel,30.76923077,3,2,12,,,,,,,,4,16,,,,,,,,,,,7,3.262,0,,,,,,0.03454617,-0.395988702,1,0,0,3.2617,Peridotite_rect,11,0,11,0,1,
664ce5c7969975237f0e8ffa,TCR,2024-06-21_12h47.59.239,LearnStrategy,2023.2.3,MacIntel,30.76923077,3,2,13,,,,,,,,4,10,,,,,,,,,,,7,3.543,0,,,,,,0.126829427,-0.409276666,1,0,0,3.5427,Peridotite_rect,12,0,12,0,1,
664ce5c7969975237f0e8ffa,TCR,2024-06-21_12h47.59.239,LearnStrategy,2023.2.3,MacIntel,30.76923077,3,2,14,,,,,,,,6,11,,,,,,,,,,,6,1.099,1,,,,,,-0.099741347,-0.41203064,1,0,0,1.0989,Pegmatite_rect,13,0,13,0,1,
664ce5c7969975237f0e8ffa,TCR,2024-06-21_12h47.59.239,LearnStrategy,2023.2.3,MacIntel,30.76923077,3,2,15,,,,,,,,3,14,,,,,,,,,,,3,1.001,1,,,,,,0.115760023,-0.230553385,1,0,0,1.0014,Diorite_rect,14,0,14,0,1,
664ce5c7969975237f0e8ffa,TCR,2024-06-21_12h47.59.239,LearnStrategy,2023.2.3,MacIntel,30.76923077,3,2,16,,,,,,,,7,08,,,,,,,,,,,4,1.765,0,,,,,,0.447077365,-0.240167508,1,0,0,1.7646,Gabbro_rect,15,0,15,0,1,
664ce5c7969975237f0e8ffa,TCR,2024-06-21_12h47.59.239,LearnStrategy,2023.2.3,MacIntel,30.76923077,4,1,1,0.019304674,-0.00120619,1,0,0,6.3832,rock_grid_rect_2,4,05,-1,-1,6.383,0.347888048,-0.246349759,1,0,0,1.6024,Gabbro_rect,4,1.602,1,0,0,0,0,1,,,,,,,,,,,,,
664ce5c7969975237f0e8ffa,TCR,2024-06-21_12h47.59.239,LearnStrategy,2023.2.3,MacIntel,30.76923077,4,1,2,0.083256565,-0.017748277,1,0,0,0.8459,rock_grid_rect_2,1,01,-1,-1,0.846,0.086287774,-0.264068468,1,0,0,1.9815,Diorite_rect,3,1.981,0,1,0,1,0,1,,,,,,,,,,,,,
664ce5c7969975237f0e8ffa,TCR,2024-06-21_12h47.59.239,LearnStrategy,2023.2.3,MacIntel,30.76923077,4,1,3,0.040386692,0.003154433,1,0,0,0.7866,rock_grid_rect_2,6,05,-1,-1,0.787,-0.133645223,-0.417325236,1,0,0,1.0909,Pegmatite_rect,6,1.091,1,2,0,2,0,1,,,,,,,,,,,,,
664ce5c7969975237f0e8ffa,TCR,2024-06-21_12h47.59.239,LearnStrategy,2023.2.3,MacIntel,30.76923077,4,1,4,0.035549452,-0.004415317,1,0,0,0.9731,rock_grid_rect_2,1,06,-1,-1,0.973,0.151539985,-0.241616686,1,0,0,1.0341,Diorite_rect,3,1.034,0,3,0,3,0,1,,,,,,,,,,,,,
664ce5c7969975237f0e8ffa,TCR,2024-06-21_12h47.59.239,LearnStrategy,2023.2.3,MacIntel,30.76923077,4,1,5,0.025685154,0.001185811,1,0,0,0.7758,rock_grid_rect_2,8,06,-1,-1,0.776,0.336695218,-0.412230767,1,0,0,1.0969,Pumice_rect,8,1.097,1,4,0,4,0,1,,,,,,,,,,,,,
664ce5c7969975237f0e8ffa,TCR,2024-06-21_12h47.59.239,LearnStrategy,2023.2.3,MacIntel,30.76923077,4,1,6,-0.024457737,-0.012941962,1,0,0,1.2416,rock_grid_rect_2,4,09,-1,-1,1.242,-0.352256741,-0.254339396,1,0,0,1.6182,Andesite_rect,1,1.618,0,5,0,5,0,1,,,,,,,,,,,,,
664ce5c7969975237f0e8ffa,TCR,2024-06-21_12h47.59.239,LearnStrategy,2023.2.3,MacIntel,30.76923077,4,1,7,0.033276774,0.003022156,1,0,0,1.1581,rock_grid_rect_2,2,14,-1,-1,1.158,0.372522922,-0.384410197,1,0,0,1.6236,Pumice_rect,8,1.624,0,6,0,6,0,1,,,,,,,,,,,,,
664ce5c7969975237f0e8ffa,TCR,2024-06-21_12h47.59.239,LearnStrategy,2023.2.3,MacIntel,30.76923077,4,1,8,0.009042697,0.006626078,1,0,0,0.7901,rock_grid_rect_2,7,02,-1,-1,0.79,0.365203315,-0.249479167,1,0,0,1.2966,Gabbro_rect,4,1.297,0,7,0,7,0,1,,,,,,,,,,,,,
664ce5c7969975237f0e8ffa,TCR,2024-06-21_12h47.59.239,LearnStrategy,2023.2.3,MacIntel,30.76923077,4,1,9,0.005714315,-0.016823629,1,0,0,0.7129,rock_grid_rect_2,3,16,-1,-1,0.713,0.1584139,-0.266311646,1,0,0,0.9059,Diorite_rect,3,0.906,1,8,0,8,0,1,,,,,,,,,,,,,
664ce5c7969975237f0e8ffa,TCR,2024-06-21_12h47.59.239,LearnStrategy,2023.2.3,MacIntel,30.76923077,4,1,10,0.036453451,0.010371229,1,0,0,1.2509,rock_grid_rect_2,5,12,-1,-1,1.251,-0.366388855,-0.405884806,1,0,0,1.9885,Obsidian_rect,5,1.988,1,9,0,9,0,1,,,,,,,,,,,,,
664ce5c7969975237f0e8ffa,TCR,2024-06-21_12h47.59.239,LearnStrategy,2023.2.3,MacIntel,30.76923077,4,1,11,0.030525987,-0.012657301,1,0,0,0.9392,rock_grid_rect_2,7,04,-1,-1,0.939,0.080619032,-0.386741062,1,0,0,1.6657,Peridotite_rect,7,1.666,1,10,0,10,0,1,,,,,,,,,,,,,
664ce5c7969975237f0e8ffa,TCR,2024-06-21_12h47.59.239,LearnStrategy,2023.2.3,MacIntel,30.76923077,4,1,12,0.013372531,-0.012527974,1,0,0,1.2774,rock_grid_rect_2,4,15,-1,-1,1.277,-0.311354268,-0.236195679,1,0,0,1.6864,Andesite_rect,1,1.686,0,11,0,11,0,1,,,,,,,,,,,,,
664ce5c7969975237f0e8ffa,TCR,2024-06-21_12h47.59.239,LearnStrategy,2023.2.3,MacIntel,30.76923077,4,1,13,-0.000297445,0.01017395,1,0,0,0.8447,rock_grid_rect_2,4,13,-1,-1,0.845,0.358045519,-0.246499498,1,0,0,1.2003,Gabbro_rect,4,1.2,1,12,0,12,0,1,,,,,,,,,,,,,
664ce5c7969975237f0e8ffa,TCR,2024-06-21_12h47.59.239,LearnStrategy,2023.2.3,MacIntel,30.76923077,4,1,14,-0.007665202,-0.004049683,1,0,0,0.878,rock_grid_rect_2,7,15,-1,-1,0.878,0.131099311,-0.396460571,1,0,0,1.7096,Peridotite_rect,7,1.71,1,13,0,13,0,1,,,,,,,,,,,,,
664ce5c7969975237f0e8ffa,TCR,2024-06-21_12h47.59.239,LearnStrategy,2023.2.3,MacIntel,30.76923077,4,1,15,0.040201619,0.022268202,1,0,0,1.3604,rock_grid_rect_2,7,07,-1,-1,1.36,0.122645128,-0.391354506,1,0,0,1.1796,Peridotite_rect,7,1.18,1,14,0,14,0,1,,,,,,,,,,,,,
664ce5c7969975237f0e8ffa,TCR,2024-06-21_12h47.59.239,LearnStrategy,2023.2.3,MacIntel,30.76923077,4,1,16,0.051655884,-0.022868313,1,0,0,0.896,rock_grid_rect_2,6,15,-1,-1,0.896,-0.112528008,-0.408340929,1,0,0,0.9982,Pegmatite_rect,6,0.998,1,15,0,15,0,1,,,,,,,,,,,,,
664ce5c7969975237f0e8ffa,TCR,2024-06-21_12h47.59.239,LearnStrategy,2023.2.3,MacIntel,30.76923077,4,2,1,,,,,,,,7,06,,,,,,,,,,,6,15.008,0,,,,,,-0.093256768,-0.398879666,1,0,0,15.0078,Pegmatite_rect,0,0,0,0,1,
664ce5c7969975237f0e8ffa,TCR,2024-06-21_12h47.59.239,LearnStrategy,2023.2.3,MacIntel,30.76923077,4,2,2,,,,,,,,2,16,,,,,,,,,,,2,1.802,1,,,,,,-0.147501899,-0.253669705,1,0,0,1.8021,Basalt_rect,1,0,1,0,1,
664ce5c7969975237f0e8ffa,TCR,2024-06-21_12h47.59.239,LearnStrategy,2023.2.3,MacIntel,30.76923077,4,2,3,,,,,,,,8,02,,,,,,,,,,,8,0.987,1,,,,,,0.422928331,-0.414590318,1,0,0,0.9874,Pumice_rect,2,0,2,0,1,
664ce5c7969975237f0e8ffa,TCR,2024-06-21_12h47.59.239,LearnStrategy,2023.2.3,MacIntel,30.76923077,4,2,4,,,,,,,,6,10,,,,,,,,,,,6,2.964,1,,,,,,-0.137094455,-0.403269179,1,0,0,2.9638,Pegmatite_rect,3,0,3,0,1,
664ce5c7969975237f0e8ffa,TCR,2024-06-21_12h47.59.239,LearnStrategy,2023.2.3,MacIntel,30.76923077,4,2,5,,,,,,,,1,03,,,,,,,,,,,1,3.535,1,,,,,,-0.371831699,-0.253618978,1,0,0,3.5347,Andesite_rect,4,0,4,0,1,
664ce5c7969975237f0e8ffa,TCR,2024-06-21_12h47.59.239,LearnStrategy,2023.2.3,MacIntel,30.76923077,4,2,6,,,,,,,,3,08,,,,,,,,,,,3,2.234,1,,,,,,0.14998725,-0.242094387,1,0,0,2.2341,Diorite_rect,5,0,5,0,1,
664ce5c7969975237f0e8ffa,TCR,2024-06-21_12h47.59.239,LearnStrategy,2023.2.3,MacIntel,30.76923077,4,2,7,,,,,,,,1,10,,,,,,,,,,,1,1.906,1,,,,,,-0.370701701,-0.240396864,1,0,0,1.9062,Andesite_rect,6,0,6,0,1,
664ce5c7969975237f0e8ffa,TCR,2024-06-21_12h47.59.239,LearnStrategy,2023.2.3,MacIntel,30.76923077,4,2,8,,,,,,,,8,14,,,,,,,,,,,8,1.983,1,,,,,,0.391873915,-0.39534417,1,0,0,1.9825,Pumice_rect,7,0,7,0,1,
664ce5c7969975237f0e8ffa,TCR,2024-06-21_12h47.59.239,LearnStrategy,2023.2.3,MacIntel,30.76923077,4,2,9,,,,,,,,2,02,,,,,,,,,,,2,1.333,1,,,,,,-0.09233412,-0.236357422,1,0,0,1.3329,Basalt_rect,8,0,8,0,1,
664ce5c7969975237f0e8ffa,TCR,2024-06-21_12h47.59.239,LearnStrategy,2023.2.3,MacIntel,30.76923077,4,2,10,,,,,,,,7,10,,,,,,,,,,,4,2.287,0,,,,,,0.416646593,-0.250674845,1,0,0,2.2872,Gabbro_rect,9,0,9,0,1,
664ce5c7969975237f0e8ffa,TCR,2024-06-21_12h47.59.239,LearnStrategy,2023.2.3,MacIntel,30.76923077,4,2,11,,,,,,,,5,05,,,,,,,,,,,5,1.465,1,,,,,,-0.349612359,-0.388493585,1,0,0,1.465,Obsidian_rect,10,0,10,0,1,
664ce5c7969975237f0e8ffa,TCR,2024-06-21_12h47.59.239,LearnStrategy,2023.2.3,MacIntel,30.76923077,4,2,12,,,,,,,,4,01,,,,,,,,,,,1,1.424,0,,,,,,-0.38276947,-0.256203206,1,0,0,1.4239,Andesite_rect,11,0,11,0,1,
664ce5c7969975237f0e8ffa,TCR,2024-06-21_12h47.59.239,LearnStrategy,2023.2.3,MacIntel,30.76923077,4,2,13,,,,,,,,3,09,,,,,,,,,,,3,1.184,1,,,,,,0.104552816,-0.264078234,1,0,0,1.1841,Diorite_rect,12,0,12,0,1,
664ce5c7969975237f0e8ffa,TCR,2024-06-21_12h47.59.239,LearnStrategy,2023.2.3,MacIntel,30.76923077,4,2,14,,,,,,,,5,09,,,,,,,,,,,5,1.503,1,,,,,,-0.367551032,-0.394711846,1,0,0,1.5035,Obsidian_rect,13,0,13,0,1,
664ce5c7969975237f0e8ffa,TCR,2024-06-21_12h47.59.239,LearnStrategy,2023.2.3,MacIntel,30.76923077,4,2,15,,,,,,,,4,16,,,,,,,,,,,2,1.552,0,,,,,,-0.146695218,-0.233234456,1,0,0,1.5522,Basalt_rect,14,0,14,0,1,
664ce5c7969975237f0e8ffa,TCR,2024-06-21_12h47.59.239,LearnStrategy,2023.2.3,MacIntel,30.76923077,4,2,16,,,,,,,,6,07,,,,,,,,,,,6,1.137,1,,,,,,-0.083677707,-0.388092244,1,0,0,1.1372,Pegmatite_rect,15,0,15,0,1,
664ce5c7969975237f0e8ffa,TCR,2024-06-21_12h47.59.239,LearnStrategy,2023.2.3,MacIntel,30.76923077,5,1,1,0.031051771,0.001617737,1,0,0,2.3005,rock_grid_rect_2,4,05,-1,-1,2.3,0.337729831,-0.249368829,1,0,0,1.4598,Gabbro_rect,4,1.46,1,0,0,0,0,1,,,,,,,,,,,,,
664ce5c7969975237f0e8ffa,TCR,2024-06-21_12h47.59.239,LearnStrategy,2023.2.3,MacIntel,30.76923077,5,1,2,0.03934984,-0.000182699,1,0,0,1.7408,rock_grid_rect_2,1,11,-1,-1,1.741,-0.350657654,-0.236268107,1,0,0,1.5974,Andesite_rect,1,1.597,1,1,0,1,0,1,,,,,,,,,,,,,
664ce5c7969975237f0e8ffa,TCR,2024-06-21_12h47.59.239,LearnStrategy,2023.2.3,MacIntel,30.76923077,5,1,3,0.030132514,0.000767958,1,0,0,1.2587,rock_grid_rect_2,7,13,-1,-1,1.259,0.354109429,-0.262344157,1,0,0,2.4466,Gabbro_rect,4,2.447,0,2,0,2,0,1,,,,,,,,,,,,,
664ce5c7969975237f0e8ffa,TCR,2024-06-21_12h47.59.239,LearnStrategy,2023.2.3,MacIntel,30.76923077,5,1,4,0.059381104,0.000851474,1,0,0,0.8199,rock_grid_rect_2,7,07,-1,-1,0.82,0.385322401,-0.251566298,1,0,0,1.62,Gabbro_rect,4,1.62,0,3,0,3,0,1,,,,,,,,,,,,,
664ce5c7969975237f0e8ffa,TCR,2024-06-21_12h47.59.239,LearnStrategy,2023.2.3,MacIntel,30.76923077,5,1,5,0.123092787,0.020295478,1,0,0,0.8236,rock_grid_rect_2,6,15,-1,-1,0.824,-0.100571764,-0.408033108,1,0,0,1.6394,Pegmatite_rect,6,1.639,1,4,0,4,0,1,,,,,,,,,,,,,
664ce5c7969975237f0e8ffa,TCR,2024-06-21_12h47.59.239,LearnStrategy,2023.2.3,MacIntel,30.76923077,5,1,6,0.103986003,0.01300276,1,0,0,1.2441,rock_grid_rect_2,4,05,-1,-1,1.244,0.129084269,-0.395309177,1,0,0,2.7663,Peridotite_rect,7,2.766,0,5,0,5,0,1,,,,,,,,,,,,,
664ce5c7969975237f0e8ffa,TCR,2024-06-21_12h47.59.239,LearnStrategy,2023.2.3,MacIntel,30.76923077,5,1,7,0.093816867,0.015684679,1,0,0,0.7,rock_grid_rect_2,4,13,-1,-1,0.7,0.453177897,-0.241306898,1,0,0,2.0665,Gabbro_rect,4,2.067,1,6,0,6,0,1,,,,,,,,,,,,,
664ce5c7969975237f0e8ffa,TCR,2024-06-21_12h47.59.239,LearnStrategy,2023.2.3,MacIntel,30.76923077,5,1,8,0.082460327,-0.008736606,1,0,0,0.852,rock_grid_rect_2,4,09,-1,-1,0.852,-0.366765544,-0.253561537,1,0,0,3.5998,Andesite_rect,1,3.6,0,7,0,7,0,1,,,,,,,,,,,,,
664ce5c7969975237f0e8ffa,TCR,2024-06-21_12h47.59.239,LearnStrategy,2023.2.3,MacIntel,30.76923077,5,1,9,0.077380981,0.012807753,1,0,0,0.747,rock_grid_rect_2,1,01,-1,-1,0.747,0.390852322,-0.253023478,1,0,0,1.6204,Gabbro_rect,4,1.62,0,8,0,8,0,1,,,,,,,,,,,,,
664ce5c7969975237f0e8ffa,TCR,2024-06-21_12h47.59.239,LearnStrategy,2023.2.3,MacIntel,30.76923077,5,1,10,0.006012709,-0.012319743,1,0,0,0.9728,rock_grid_rect_2,8,13,-1,-1,0.973,0.341178792,-0.41079678,1,0,0,1.4397,Pumice_rect,8,1.44,1,9,0,9,0,1,,,,,,,,,,,,,
664ce5c7969975237f0e8ffa,TCR,2024-06-21_12h47.59.239,LearnStrategy,2023.2.3,MacIntel,30.76923077,5,1,11,0.042597995,0.014768711,1,0,0,1.5123,rock_grid_rect_2,7,16,-1,-1,1.512,0.154271918,-0.400613132,1,0,0,2.3872,Peridotite_rect,7,2.387,1,10,0,10,0,1,,,,,,,,,,,,,
664ce5c7969975237f0e8ffa,TCR,2024-06-21_12h47.59.239,LearnStrategy,2023.2.3,MacIntel,30.76923077,5,1,12,0.041529066,0.003366225,1,0,0,0.8047,rock_grid_rect_2,3,13,-1,-1,0.805,-0.142092421,-0.390833333,1,0,0,3.9861,Pegmatite_rect,6,3.986,0,11,0,11,0,1,,,,,,,,,,,,,
664ce5c7969975237f0e8ffa,TCR,2024-06-21_12h47.59.239,LearnStrategy,2023.2.3,MacIntel,30.76923077,5,1,13,0.084644504,0.014570007,1,0,0,0.7371,rock_grid_rect_2,6,12,-1,-1,0.737,-0.095996094,-0.38626614,1,0,0,1.1814,Pegmatite_rect,6,1.181,1,12,0,12,0,1,,,,,,,,,,,,,
664ce5c7969975237f0e8ffa,TCR,2024-06-21_12h47.59.239,LearnStrategy,2023.2.3,MacIntel,30.76923077,5,1,14,0.082080078,0.003736674,1,0,0,0.8986,rock_grid_rect_2,2,14,-1,-1,0.899,0.406118028,-0.40009847,1,0,0,1.3378,Pumice_rect,8,1.338,0,13,0,13,0,1,,,,,,,,,,,,,
664ce5c7969975237f0e8ffa,TCR,2024-06-21_12h47.59.239,LearnStrategy,2023.2.3,MacIntel,30.76923077,5,1,15,0.027014906,-0.008346592,1,0,0,0.7926,rock_grid_rect_2,4,11,-1,-1,0.793,-0.355982022,-0.228976576,1,0,0,2.1942,Andesite_rect,1,2.194,0,14,0,14,0,1,,,,,,,,,,,,,
664ce5c7969975237f0e8ffa,TCR,2024-06-21_12h47.59.239,LearnStrategy,2023.2.3,MacIntel,30.76923077,5,1,16,0.042741225,0.008195699,1,0,0,0.7193,rock_grid_rect_2,7,04,-1,-1,0.719,0.111290487,-0.395518663,1,0,0,2.6489,Peridotite_rect,7,2.649,1,15,0,15,0,1,,,,,,,,,,,,,
664ce5c7969975237f0e8ffa,TCR,2024-06-21_12h47.59.239,LearnStrategy,2023.2.3,MacIntel,30.76923077,5,2,1,,,,,,,,5,04,,,,,,,,,,,5,1.244,1,,,,,,-0.334092814,-0.384127808,1,0,0,1.2439,Obsidian_rect,0,0,0,0,1,
664ce5c7969975237f0e8ffa,TCR,2024-06-21_12h47.59.239,LearnStrategy,2023.2.3,MacIntel,30.76923077,5,2,2,,,,,,,,6,11,,,,,,,,,,,6,1.419,1,,,,,,-0.16173211,-0.404489068,1,0,0,1.4186,Pegmatite_rect,1,0,1,0,1,
664ce5c7969975237f0e8ffa,TCR,2024-06-21_12h47.59.239,LearnStrategy,2023.2.3,MacIntel,30.76923077,5,2,3,,,,,,,,3,02,,,,,,,,,,,3,1.709,1,,,,,,0.109609578,-0.239196167,1,0,0,1.7092,Diorite_rect,2,0,2,0,1,
664ce5c7969975237f0e8ffa,TCR,2024-06-21_12h47.59.239,LearnStrategy,2023.2.3,MacIntel,30.76923077,5,2,4,,,,,,,,1,14,,,,,,,,,,,7,3.51,0,,,,,,0.117021688,-0.40464369,1,0,0,3.5095,Peridotite_rect,3,0,3,0,1,
664ce5c7969975237f0e8ffa,TCR,2024-06-21_12h47.59.239,LearnStrategy,2023.2.3,MacIntel,30.76923077,5,2,5,,,,,,,,7,05,,,,,,,,,,,7,2.729,1,,,,,,0.218049113,-0.39918613,1,0,0,2.729,Peridotite_rect,4,0,4,0,1,
664ce5c7969975237f0e8ffa,TCR,2024-06-21_12h47.59.239,LearnStrategy,2023.2.3,MacIntel,30.76923077,5,2,6,,,,,,,,5,02,,,,,,,,,,,5,1.382,1,,,,,,-0.371201884,-0.390639581,1,0,0,1.3824,Obsidian_rect,5,0,5,0,1,
664ce5c7969975237f0e8ffa,TCR,2024-06-21_12h47.59.239,LearnStrategy,2023.2.3,MacIntel,30.76923077,5,2,7,,,,,,,,6,06,,,,,,,,,,,6,2.06,1,,,,,,-0.102417331,-0.410134345,1,0,0,2.0603,Pegmatite_rect,6,0,6,0,1,
664ce5c7969975237f0e8ffa,TCR,2024-06-21_12h47.59.239,LearnStrategy,2023.2.3,MacIntel,30.76923077,5,2,8,,,,,,,,3,11,,,,,,,,,,,3,1.283,1,,,,,,0.112441949,-0.232733019,1,0,0,1.2828,Diorite_rect,7,0,7,0,1,
664ce5c7969975237f0e8ffa,TCR,2024-06-21_12h47.59.239,LearnStrategy,2023.2.3,MacIntel,30.76923077,5,2,9,,,,,,,,1,07,,,,,,,,,,,1,1.568,1,,,,,,-0.409118551,-0.239091254,1,0,0,1.5685,Andesite_rect,8,0,8,0,1,
664ce5c7969975237f0e8ffa,TCR,2024-06-21_12h47.59.239,LearnStrategy,2023.2.3,MacIntel,30.76923077,5,2,10,,,,,,,,2,05,,,,,,,,,,,2,1.654,1,,,,,,-0.100362413,-0.249221395,1,0,0,1.6536,Basalt_rect,9,0,9,0,1,
664ce5c7969975237f0e8ffa,TCR,2024-06-21_12h47.59.239,LearnStrategy,2023.2.3,MacIntel,30.76923077,5,2,11,,,,,,,,2,08,,,,,,,,,,,2,0.997,1,,,,,,-0.099839817,-0.249221395,1,0,0,0.9969,Basalt_rect,10,0,10,0,1,
664ce5c7969975237f0e8ffa,TCR,2024-06-21_12h47.59.239,LearnStrategy,2023.2.3,MacIntel,30.76923077,5,2,12,,,,,,,,4,10,,,,,,,,,,,4,2.377,1,,,,,,0.394657661,-0.243849759,1,0,0,2.3772,Gabbro_rect,11,0,11,0,1,
664ce5c7969975237f0e8ffa,TCR,2024-06-21_12h47.59.239,LearnStrategy,2023.2.3,MacIntel,30.76923077,5,2,13,,,,,,,,8,05,,,,,,,,,,,8,1.326,1,,,,,,0.406263835,-0.389560683,1,0,0,1.3258,Pumice_rect,12,0,12,0,1,
664ce5c7969975237f0e8ffa,TCR,2024-06-21_12h47.59.239,LearnStrategy,2023.2.3,MacIntel,30.76923077,5,2,14,,,,,,,,8,09,,,,,,,,,,,8,0.97,1,,,,,,0.370289035,-0.394165582,1,0,0,0.9699,Pumice_rect,13,0,13,0,1,
664ce5c7969975237f0e8ffa,TCR,2024-06-21_12h47.59.239,LearnStrategy,2023.2.3,MacIntel,30.76923077,5,2,15,,,,,,,,4,14,,,,,,,,,,,1,3.274,0,,,,,,-0.347838101,-0.233905843,1,0,0,3.2745,Andesite_rect,14,0,14,0,1,
664ce5c7969975237f0e8ffa,TCR,2024-06-21_12h47.59.239,LearnStrategy,2023.2.3,MacIntel,30.76923077,5,2,16,,,,,,,,7,14,,,,,,,,,,,7,2.774,1,,,,,,0.095177409,-0.404428779,1,0,0,2.7737,Peridotite_rect,15,0,15,0,1,
664ce5c7969975237f0e8ffa,TCR,2024-06-21_12h47.59.239,LearnStrategy,2023.2.3,MacIntel,30.76923077,6,1,1,-0.027627903,-0.018324585,1,0,0,1.0065,rock_grid_rect_2,5,11,-1,-1,1.006,-0.335369907,-0.38212226,1,0,0,1.2326,Obsidian_rect,5,1.233,1,0,0,0,0,1,,,,,,,,,,,,,
664ce5c7969975237f0e8ffa,TCR,2024-06-21_12h47.59.239,LearnStrategy,2023.2.3,MacIntel,30.76923077,6,1,2,0.116640015,0.012286377,1,0,0,1.053,rock_grid_rect_2,1,05,-1,-1,1.053,0.379941949,-0.233313938,1,0,0,2.1617,Gabbro_rect,4,2.162,0,1,0,1,0,1,,,,,,,,,,,,,
664ce5c7969975237f0e8ffa,TCR,2024-06-21_12h47.59.239,LearnStrategy,2023.2.3,MacIntel,30.76923077,6,1,3,0.058706936,-0.01114997,1,0,0,0.8605,rock_grid_rect_2,4,15,-1,-1,0.861,0.364191895,-0.269207628,1,0,0,1.5762,Gabbro_rect,4,1.576,1,2,0,2,0,1,,,,,,,,,,,,,
664ce5c7969975237f0e8ffa,TCR,2024-06-21_12h47.59.239,LearnStrategy,2023.2.3,MacIntel,30.76923077,6,1,4,0.105146891,-0.00592041,1,0,0,0.7539,rock_grid_rect_2,8,10,-1,-1,0.754,0.335699056,-0.391826104,1,0,0,1.6045,Pumice_rect,8,1.605,1,3,0,3,0,1,,,,,,,,,,,,,
664ce5c7969975237f0e8ffa,TCR,2024-06-21_12h47.59.239,LearnStrategy,2023.2.3,MacIntel,30.76923077,6,1,5,0.046753404,-0.007282918,1,0,0,0.7917,rock_grid_rect_2,7,04,-1,-1,0.792,-0.084582113,-0.42177124,1,0,0,1.0918,Pegmatite_rect,6,1.092,0,4,0,4,0,1,,,,,,,,,,,,,
664ce5c7969975237f0e8ffa,TCR,2024-06-21_12h47.59.239,LearnStrategy,2023.2.3,MacIntel,30.76923077,6,1,6,0.028928155,0.010718926,1,0,0,0.7586,rock_grid_rect_2,4,13,-1,-1,0.759,0.371553006,-0.248632067,1,0,0,1.0541,Gabbro_rect,4,1.054,1,5,0,5,0,1,,,,,,,,,,,,,
664ce5c7969975237f0e8ffa,TCR,2024-06-21_12h47.59.239,LearnStrategy,2023.2.3,MacIntel,30.76923077,6,1,7,0.0107213,-0.010286899,1,0,0,0.8784,rock_grid_rect_2,7,13,-1,-1,0.878,0.143800727,-0.384499376,1,0,0,1.5502,Peridotite_rect,7,1.55,1,6,0,6,0,1,,,,,,,,,,,,,
664ce5c7969975237f0e8ffa,TCR,2024-06-21_12h47.59.239,LearnStrategy,2023.2.3,MacIntel,30.76923077,6,1,8,-0.001707221,0.021639777,1,0,0,0.7531,rock_grid_rect_2,4,13,-1,-1,0.753,0.331728109,-0.242450019,1,0,0,0.8909,Gabbro_rect,4,0.891,1,7,0,7,0,1,,,,,,,,,,,,,
664ce5c7969975237f0e8ffa,TCR,2024-06-21_12h47.59.239,LearnStrategy,2023.2.3,MacIntel,30.76923077,6,1,9,0.025554267,-0.006094801,1,0,0,1.458,rock_grid_rect_2,1,06,-1,-1,1.458,-0.392518955,-0.23534356,1,0,0,1.2832,Andesite_rect,1,1.283,1,8,0,8,0,1,,,,,,,,,,,,,
664ce5c7969975237f0e8ffa,TCR,2024-06-21_12h47.59.239,LearnStrategy,2023.2.3,MacIntel,30.76923077,6,1,10,0.124452447,0.000297207,1,0,0,0.9163,rock_grid_rect_2,2,04,-1,-1,0.916,-0.138870443,-0.252953288,1,0,0,1.1753,Basalt_rect,2,1.175,1,9,0,9,0,1,,,,,,,,,,,,,
664ce5c7969975237f0e8ffa,TCR,2024-06-21_12h47.59.239,LearnStrategy,2023.2.3,MacIntel,30.76923077,6,1,11,0.080295275,-0.007233649,1,0,0,0.7543,rock_grid_rect_2,4,11,-1,-1,0.754,0.345955675,-0.241835463,1,0,0,3.1977,Gabbro_rect,4,3.198,1,10,0,10,0,1,,,,,,,,,,,,,
664ce5c7969975237f0e8ffa,TCR,2024-06-21_12h47.59.239,LearnStrategy,2023.2.3,MacIntel,30.76923077,6,1,12,0.095849609,0.024222683,1,0,0,0.9216,rock_grid_rect_2,7,16,-1,-1,0.922,0.10330329,-0.407216865,1,0,0,1.4189,Peridotite_rect,7,1.419,1,11,0,11,0,1,,,,,,,,,,,,,
664ce5c7969975237f0e8ffa,TCR,2024-06-21_12h47.59.239,LearnStrategy,2023.2.3,MacIntel,30.76923077,6,1,13,0.14619656,-0.009035984,1,0,0,1.1231,rock_grid_rect_2,4,05,-1,-1,1.123,0.423364665,-0.246326362,1,0,0,1.3624,Gabbro_rect,4,1.362,1,12,0,12,0,1,,,,,,,,,,,,,
664ce5c7969975237f0e8ffa,TCR,2024-06-21_12h47.59.239,LearnStrategy,2023.2.3,MacIntel,30.76923077,6,1,14,0.033548652,0.009221429,1,0,0,0.6837,rock_grid_rect_2,1,02,-1,-1,0.684,-0.125987888,-0.412838474,1,0,0,1.8274,Pegmatite_rect,6,1.827,0,13,0,13,0,1,,,,,,,,,,,,,
664ce5c7969975237f0e8ffa,TCR,2024-06-21_12h47.59.239,LearnStrategy,2023.2.3,MacIntel,30.76923077,6,1,15,0.023746677,0.00312656,1,0,0,0.7185,rock_grid_rect_2,3,16,-1,-1,0.718,0.127094862,-0.247069024,1,0,0,1.3275,Diorite_rect,3,1.327,1,14,0,14,0,1,,,,,,,,,,,,,
664ce5c7969975237f0e8ffa,TCR,2024-06-21_12h47.59.239,LearnStrategy,2023.2.3,MacIntel,30.76923077,6,1,16,0.083244765,-0.014300605,1,0,0,1.3772,rock_grid_rect_2,6,09,-1,-1,1.377,-0.109520196,-0.400138346,1,0,0,1.2754,Pegmatite_rect,6,1.275,1,15,0,15,0,1,,,,,,,,,,,,,
664ce5c7969975237f0e8ffa,TCR,2024-06-21_12h47.59.239,LearnStrategy,2023.2.3,MacIntel,30.76923077,6,2,1,,,,,,,,1,16,,,,,,,,,,,1,1.689,1,,,,,,-0.366807692,-0.24414171,1,0,0,1.6891,Andesite_rect,0,0,0,0,1,
664ce5c7969975237f0e8ffa,TCR,2024-06-21_12h47.59.239,LearnStrategy,2023.2.3,MacIntel,30.76923077,6,2,2,,,,,,,,5,08,,,,,,,,,,,5,1.34,1,,,,,,-0.385199755,-0.38952969,1,0,0,1.3398,Obsidian_rect,1,0,1,0,1,
664ce5c7969975237f0e8ffa,TCR,2024-06-21_12h47.59.239,LearnStrategy,2023.2.3,MacIntel,30.76923077,6,2,3,,,,,,,,1,04,,,,,,,,,,,1,2.205,1,,,,,,-0.346737332,-0.241203071,1,0,0,2.2049,Andesite_rect,2,0,2,0,1,
664ce5c7969975237f0e8ffa,TCR,2024-06-21_12h47.59.239,LearnStrategy,2023.2.3,MacIntel,30.76923077,6,2,4,,,,,,,,2,09,,,,,,,,,,,2,1.052,1,,,,,,-0.078589817,-0.252128567,1,0,0,1.052,Basalt_rect,3,0,3,0,1,
664ce5c7969975237f0e8ffa,TCR,2024-06-21_12h47.59.239,LearnStrategy,2023.2.3,MacIntel,30.76923077,6,2,5,,,,,,,,2,06,,,,,,,,,,,4,2.656,0,,,,,,0.387243652,-0.233528849,1,0,0,2.6565,Gabbro_rect,4,0,4,0,1,
664ce5c7969975237f0e8ffa,TCR,2024-06-21_12h47.59.239,LearnStrategy,2023.2.3,MacIntel,30.76923077,6,2,6,,,,,,,,8,16,,,,,,,,,,,8,1.277,1,,,,,,0.376860487,-0.404933607,1,0,0,1.2771,Pumice_rect,5,0,5,0,1,
664ce5c7969975237f0e8ffa,TCR,2024-06-21_12h47.59.239,LearnStrategy,2023.2.3,MacIntel,30.76923077,6,2,7,,,,,,,,5,07,,,,,,,,,,,5,1.69,1,,,,,,-0.363371616,-0.389785834,1,0,0,1.6898,Obsidian_rect,6,0,6,0,1,
664ce5c7969975237f0e8ffa,TCR,2024-06-21_12h47.59.239,LearnStrategy,2023.2.3,MacIntel,30.76923077,6,2,8,,,,,,,,6,16,,,,,,,,,,,6,1.249,1,,,,,,-0.081588881,-0.408481445,1,0,0,1.2489,Pegmatite_rect,7,0,7,0,1,
664ce5c7969975237f0e8ffa,TCR,2024-06-21_12h47.59.239,LearnStrategy,2023.2.3,MacIntel,30.76923077,6,2,9,,,,,,,,8,03,,,,,,,,,,,8,1.098,1,,,,,,0.47156033,-0.405248481,1,0,0,1.0982,Pumice_rect,8,0,8,0,1,
664ce5c7969975237f0e8ffa,TCR,2024-06-21_12h47.59.239,LearnStrategy,2023.2.3,MacIntel,30.76923077,6,2,10,,,,,,,,7,08,,,,,,,,,,,7,2.041,1,,,,,,0.1051376,-0.398275825,1,0,0,2.0414,Peridotite_rect,9,0,9,0,1,
664ce5c7969975237f0e8ffa,TCR,2024-06-21_12h47.59.239,LearnStrategy,2023.2.3,MacIntel,30.76923077,6,2,11,,,,,,,,7,12,,,,,,,,,,,4,1.256,0,,,,,,0.384183078,-0.232757094,1,0,0,1.2565,Gabbro_rect,10,0,10,0,1,
664ce5c7969975237f0e8ffa,TCR,2024-06-21_12h47.59.239,LearnStrategy,2023.2.3,MacIntel,30.76923077,6,2,12,,,,,,,,3,10,,,,,,,,,,,3,0.913,1,,,,,,0.138278266,-0.263660075,1,0,0,0.9131,Diorite_rect,11,0,11,0,1,
664ce5c7969975237f0e8ffa,TCR,2024-06-21_12h47.59.239,LearnStrategy,2023.2.3,MacIntel,30.76923077,6,2,13,,,,,,,,3,14,,,,,,,,,,,3,0.706,1,,,,,,0.138278266,-0.263660075,1,0,0,0.7059,Diorite_rect,12,0,12,0,1,
664ce5c7969975237f0e8ffa,TCR,2024-06-21_12h47.59.239,LearnStrategy,2023.2.3,MacIntel,30.76923077,6,2,14,,,,,,,,4,08,,,,,,,,,,,7,3.496,0,,,,,,0.123823174,-0.417064345,1,0,0,3.4964,Peridotite_rect,13,0,13,0,1,
664ce5c7969975237f0e8ffa,TCR,2024-06-21_12h47.59.239,LearnStrategy,2023.2.3,MacIntel,30.76923077,6,2,15,,,,,,,,4,03,,,,,,,,,,,3,0.972,0,,,,,,0.087932671,-0.247668186,1,0,0,0.9722,Diorite_rect,14,0,14,0,1,
664ce5c7969975237f0e8ffa,TCR,2024-06-21_12h47.59.239,LearnStrategy,2023.2.3,MacIntel,30.76923077,6,2,16,,,,,,,,6,13,,,,,,,,,,,6,2.025,1,,,,,,-0.097704807,-0.382042779,1,0,0,2.0251,Pegmatite_rect,15,0,15,0,1,
664ce5c7969975237f0e8ffa,TCR,2024-06-21_12h47.59.239,LearnStrategy,2023.2.3,MacIntel,30.76923077,7,1,1,0.016053535,-0.007896966,1,0,0,0.9578,rock_grid_rect_2,4,15,-1,-1,0.958,0.119334988,-0.242734036,1,0,0,1.2479,Diorite_rect,3,1.248,0,0,0,0,0,1,,,,,,,,,,,,,
664ce5c7969975237f0e8ffa,TCR,2024-06-21_12h47.59.239,LearnStrategy,2023.2.3,MacIntel,30.76923077,7,1,2,0.047127821,-0.010698853,1,0,0,0.7193,rock_grid_rect_2,4,09,-1,-1,0.719,-0.133021376,-0.237667508,1,0,0,1.7698,Basalt_rect,2,1.77,0,1,0,1,0,1,,,,,,,,,,,,,
664ce5c7969975237f0e8ffa,TCR,2024-06-21_12h47.59.239,LearnStrategy,2023.2.3,MacIntel,30.76923077,7,1,3,0.018636882,-0.011125895,1,0,0,0.8785,rock_grid_rect_2,2,11,-1,-1,0.879,0.315623711,-0.393053792,1,0,0,1.2565,Pumice_rect,8,1.257,0,2,0,2,0,1,,,,,,,,,,,,,
664ce5c7969975237f0e8ffa,TCR,2024-06-21_12h47.59.239,LearnStrategy,2023.2.3,MacIntel,30.76923077,7,1,4,-0.008205702,0.007016771,1,0,0,0.9713,rock_grid_rect_2,1,11,-1,-1,0.971,-0.38042867,-0.267240533,1,0,0,1.797,Andesite_rect,1,1.797,1,3,0,3,0,1,,,,,,,,,,,,,
664ce5c7969975237f0e8ffa,TCR,2024-06-21_12h47.59.239,LearnStrategy,2023.2.3,MacIntel,30.76923077,7,1,5,0.062865872,0.015469733,1,0,0,0.7557,rock_grid_rect_2,3,16,-1,-1,0.756,0.139694146,-0.249929335,1,0,0,1.0314,Diorite_rect,3,1.031,1,4,0,4,0,1,,,,,,,,,,,,,
664ce5c7969975237f0e8ffa,TCR,2024-06-21_12h47.59.239,LearnStrategy,2023.2.3,MacIntel,30.76923077,7,1,6,0.012592231,0.005043708,1,0,0,0.9544,rock_grid_rect_2,2,10,-1,-1,0.954,-0.212405667,-0.268757053,1,0,0,1.333,Basalt_rect,2,1.333,1,5,0,5,0,1,,,,,,,,,,,,,
664ce5c7969975237f0e8ffa,TCR,2024-06-21_12h47.59.239,LearnStrategy,2023.2.3,MacIntel,30.76923077,7,1,7,0.000500827,0.014370253,1,0,0,0.8934,rock_grid_rect_2,8,04,-1,-1,0.893,0.358965115,-0.408053996,1,0,0,1.0946,Pumice_rect,8,1.095,1,6,0,6,0,1,,,,,,,,,,,,,
664ce5c7969975237f0e8ffa,TCR,2024-06-21_12h47.59.239,LearnStrategy,2023.2.3,MacIntel,30.76923077,7,1,8,0.029442342,-0.012251078,1,0,0,0.7898,rock_grid_rect_2,4,12,-1,-1,0.79,0.361055366,-0.255286594,1,0,0,2.9298,Gabbro_rect,4,2.93,1,7,0,7,0,1,,,,,,,,,,,,,
664ce5c7969975237f0e8ffa,TCR,2024-06-21_12h47.59.239,LearnStrategy,2023.2.3,MacIntel,30.76923077,7,1,9,0.089578857,-0.012525499,1,0,0,0.862,rock_grid_rect_2,7,15,-1,-1,0.862,0.064984199,-0.398248901,1,0,0,1.1753,Peridotite_rect,7,1.175,1,8,0,8,0,1,,,,,,,,,,,,,
664ce5c7969975237f0e8ffa,TCR,2024-06-21_12h47.59.239,LearnStrategy,2023.2.3,MacIntel,30.76923077,7,1,10,0.037403564,-0.013417664,1,0,0,0.7936,rock_grid_rect_2,5,16,-1,-1,0.794,-0.328328857,-0.391580675,1,0,0,1.0939,Obsidian_rect,5,1.094,1,9,0,9,0,1,,,,,,,,,,,,,
664ce5c7969975237f0e8ffa,TCR,2024-06-21_12h47.59.239,LearnStrategy,2023.2.3,MacIntel,30.76923077,7,1,11,0.0035633,-0.005855679,1,0,0,0.7325,rock_grid_rect_2,6,05,-1,-1,0.732,-0.095825534,-0.378041178,1,0,0,1.0075,Pegmatite_rect,6,1.007,1,10,0,10,0,1,,,,,,,,,,,,,
664ce5c7969975237f0e8ffa,TCR,2024-06-21_12h47.59.239,LearnStrategy,2023.2.3,MacIntel,30.76923077,7,1,12,-0.002208659,-0.010022515,1,0,0,1.2555,rock_grid_rect_2,7,04,-1,-1,1.255,0.136907281,-0.409201389,1,0,0,2.4875,Peridotite_rect,7,2.487,1,11,0,11,0,1,,,,,,,,,,,,,
664ce5c7969975237f0e8ffa,TCR,2024-06-21_12h47.59.239,LearnStrategy,2023.2.3,MacIntel,30.76923077,7,1,13,0.053152873,-0.014115804,1,0,0,0.8099,rock_grid_rect_2,4,05,-1,-1,0.81,0.354052056,-0.251256171,1,0,0,1.1393,Gabbro_rect,4,1.139,1,12,0,12,0,1,,,,,,,,,,,,,
664ce5c7969975237f0e8ffa,TCR,2024-06-21_12h47.59.239,LearnStrategy,2023.2.3,MacIntel,30.76923077,7,1,14,0.084700317,0.0160692,1,0,0,0.7408,rock_grid_rect_2,4,15,-1,-1,0.741,0.103553874,-0.232527059,1,0,0,0.9957,Diorite_rect,3,0.996,0,13,0,13,0,1,,,,,,,,,,,,,
664ce5c7969975237f0e8ffa,TCR,2024-06-21_12h47.59.239,LearnStrategy,2023.2.3,MacIntel,30.76923077,7,1,15,0.083884074,-0.022532247,1,0,0,0.7607,rock_grid_rect_2,7,04,-1,-1,0.761,0.066483968,-0.405021227,1,0,0,2.2623,Peridotite_rect,7,2.262,1,14,0,14,0,1,,,,,,,,,,,,,
664ce5c7969975237f0e8ffa,TCR,2024-06-21_12h47.59.239,LearnStrategy,2023.2.3,MacIntel,30.76923077,7,1,16,0.031642795,-0.002047594,1,0,0,1.0229,rock_grid_rect_2,1,01,-1,-1,1.023,0.302546115,-0.255346408,1,0,0,1.3924,Gabbro_rect,4,1.392,0,15,0,15,0,1,,,,,,,,,,,,,
664ce5c7969975237f0e8ffa,TCR,2024-06-21_12h47.59.239,LearnStrategy,2023.2.3,MacIntel,30.76923077,7,2,1,,,,,,,,5,07,,,,,,,,,,,5,1.231,1,,,,,,-0.361675618,-0.394765896,1,0,0,1.2315,Obsidian_rect,0,0,0,0,1,
664ce5c7969975237f0e8ffa,TCR,2024-06-21_12h47.59.239,LearnStrategy,2023.2.3,MacIntel,30.76923077,7,2,2,,,,,,,,7,12,,,,,,,,,,,4,1.799,0,,,,,,0.464152832,-0.263445231,1,0,0,1.7986,Gabbro_rect,1,0,1,0,1,
664ce5c7969975237f0e8ffa,TCR,2024-06-21_12h47.59.239,LearnStrategy,2023.2.3,MacIntel,30.76923077,7,2,3,,,,,,,,2,05,,,,,,,,,,,2,1.22,1,,,,,,-0.045643311,-0.26157369,1,0,0,1.2197,Basalt_rect,2,0,2,0,1,
664ce5c7969975237f0e8ffa,TCR,2024-06-21_12h47.59.239,LearnStrategy,2023.2.3,MacIntel,30.76923077,7,2,4,,,,,,,,4,14,,,,,,,,,,,1,1.797,0,,,,,,-0.423354255,-0.228483548,1,0,0,1.7967,Andesite_rect,3,0,3,0,1,
664ce5c7969975237f0e8ffa,TCR,2024-06-21_12h47.59.239,LearnStrategy,2023.2.3,MacIntel,30.76923077,7,2,5,,,,,,,,5,02,,,,,,,,,,,5,1.047,1,,,,,,-0.402935994,-0.415332574,1,0,0,1.0467,Obsidian_rect,4,0,4,0,1,
664ce5c7969975237f0e8ffa,TCR,2024-06-21_12h47.59.239,LearnStrategy,2023.2.3,MacIntel,30.76923077,7,2,6,,,,,,,,1,03,,,,,,,,,,,4,1.436,0,,,,,,0.38361735,-0.256638251,1,0,0,1.4364,Gabbro_rect,5,0,5,0,1,
664ce5c7969975237f0e8ffa,TCR,2024-06-21_12h47.59.239,LearnStrategy,2023.2.3,MacIntel,30.76923077,7,2,7,,,,,,,,8,09,,,,,,,,,,,8,1.088,1,,,,,,0.379154188,-0.388568183,1,0,0,1.0876,Pumice_rect,6,0,6,0,1,
664ce5c7969975237f0e8ffa,TCR,2024-06-21_12h47.59.239,LearnStrategy,2023.2.3,MacIntel,30.76923077,7,2,8,,,,,,,,2,08,,,,,,,,,,,2,1.4,1,,,,,,-0.118180542,-0.239938151,1,0,0,1.4001,Basalt_rect,7,0,7,0,1,
664ce5c7969975237f0e8ffa,TCR,2024-06-21_12h47.59.239,LearnStrategy,2023.2.3,MacIntel,30.76923077,7,2,9,,,,,,,,6,10,,,,,,,,,,,6,1.304,1,,,,,,-0.138308038,-0.402102932,1,0,0,1.3044,Pegmatite_rect,8,0,8,0,1,
664ce5c7969975237f0e8ffa,TCR,2024-06-21_12h47.59.239,LearnStrategy,2023.2.3,MacIntel,30.76923077,7,2,10,,,,,,,,3,11,,,,,,,,,,,3,1.367,1,,,,,,0.130313992,-0.242201335,1,0,0,1.3666,Diorite_rect,9,0,9,0,1,
664ce5c7969975237f0e8ffa,TCR,2024-06-21_12h47.59.239,LearnStrategy,2023.2.3,MacIntel,30.76923077,7,2,11,,,,,,,,7,05,,,,,,,,,,,7,1.716,1,,,,,,0.193059421,-0.413701308,1,0,0,1.7165,Peridotite_rect,10,0,10,0,1,
664ce5c7969975237f0e8ffa,TCR,2024-06-21_12h47.59.239,LearnStrategy,2023.2.3,MacIntel,30.76923077,7,2,12,,,,,,,,4,10,,,,,,,,,,,1,2.017,0,,,,,,-0.420838284,-0.232743869,1,0,0,2.0171,Andesite_rect,11,0,11,0,1,
664ce5c7969975237f0e8ffa,TCR,2024-06-21_12h47.59.239,LearnStrategy,2023.2.3,MacIntel,30.76923077,7,2,13,,,,,,,,8,16,,,,,,,,,,,8,1.242,1,,,,,,0.412970242,-0.401004503,1,0,0,1.2421,Pumice_rect,12,0,12,0,1,
664ce5c7969975237f0e8ffa,TCR,2024-06-21_12h47.59.239,LearnStrategy,2023.2.3,MacIntel,30.76923077,7,2,14,,,,,,,,1,10,,,,,,,,,,,4,1.668,0,,,,,,0.406760661,-0.25960239,1,0,0,1.6683,Gabbro_rect,13,0,13,0,1,
664ce5c7969975237f0e8ffa,TCR,2024-06-21_12h47.59.239,LearnStrategy,2023.2.3,MacIntel,30.76923077,7,2,15,,,,,,,,3,10,,,,,,,,,,,3,1.344,1,,,,,,0.209322578,-0.245810343,1,0,0,1.3444,Diorite_rect,14,0,14,0,1,
664ce5c7969975237f0e8ffa,TCR,2024-06-21_12h47.59.239,LearnStrategy,2023.2.3,MacIntel,30.76923077,7,2,16,,,,,,,,6,11,,,,,,,,,,,6,1.181,1,,,,,,-0.120650635,-0.414280328,1,0,0,1.1808,Pegmatite_rect,15,0,15,0,1,
664ce5c7969975237f0e8ffa,TCR,2024-06-21_12h47.59.239,LearnStrategy,2023.2.3,MacIntel,30.76923077,8,1,1,0.002930298,-0.00822269,1,0,0,0.9335,rock_grid_rect_2,4,11,-1,-1,0.934,-0.371773919,-0.245588515,1,0,0,1.8516,Andesite_rect,1,1.852,0,0,0,0,0,1,,,,,,,,,,,,,
664ce5c7969975237f0e8ffa,TCR,2024-06-21_12h47.59.239,LearnStrategy,2023.2.3,MacIntel,30.76923077,8,1,2,0.078488363,-0.003278029,1,0,0,0.7721,rock_grid_rect_2,7,04,-1,-1,0.772,0.115359497,-0.378028836,1,0,0,1.3919,Peridotite_rect,7,1.392,1,1,0,1,0,1,,,,,,,,,,,,,
664ce5c7969975237f0e8ffa,TCR,2024-06-21_12h47.59.239,LearnStrategy,2023.2.3,MacIntel,30.76923077,8,1,3,0.043725789,-0.000714315,1,0,0,0.7525,rock_grid_rect_2,3,13,-1,-1,0.753,0.370803765,-0.271208767,1,0,0,1.6167,Gabbro_rect,4,1.617,0,2,0,2,0,1,,,,,,,,,,,,,
664ce5c7969975237f0e8ffa,TCR,2024-06-21_12h47.59.239,LearnStrategy,2023.2.3,MacIntel,30.76923077,8,1,4,0.038673774,-0.003271281,1,0,0,0.6474,rock_grid_rect_2,4,15,-1,-1,0.647,0.320185886,-0.243009711,1,0,0,1.2325,Gabbro_rect,4,1.232,1,3,0,3,0,1,,,,,,,,,,,,,
664ce5c7969975237f0e8ffa,TCR,2024-06-21_12h47.59.239,LearnStrategy,2023.2.3,MacIntel,30.76923077,8,1,5,0.047641195,-0.011813863,1,0,0,0.7711,rock_grid_rect_2,1,01,-1,-1,0.771,-0.361091444,-0.240311957,1,0,0,1.3737,Andesite_rect,1,1.374,1,4,0,4,0,1,,,,,,,,,,,,,
664ce5c7969975237f0e8ffa,TCR,2024-06-21_12h47.59.239,LearnStrategy,2023.2.3,MacIntel,30.76923077,8,1,6,0.031572062,-0.014717407,1,0,0,0.8605,rock_grid_rect_2,1,11,-1,-1,0.861,0.338699816,-0.256720174,1,0,0,1.571,Gabbro_rect,4,1.571,0,5,0,5,0,1,,,,,,,,,,,,,
664ce5c7969975237f0e8ffa,TCR,2024-06-21_12h47.59.239,LearnStrategy,2023.2.3,MacIntel,30.76923077,8,1,7,0.07479031,-0.004372796,1,0,0,0.8715,rock_grid_rect_2,8,06,-1,-1,0.871,0.306892632,-0.402066922,1,0,0,1.1595,Pumice_rect,8,1.159,1,6,0,6,0,1,,,,,,,,,,,,,
664ce5c7969975237f0e8ffa,TCR,2024-06-21_12h47.59.239,LearnStrategy,2023.2.3,MacIntel,30.76923077,8,1,8,0.03512797,0.001359321,1,0,0,1.1558,rock_grid_rect_2,7,15,-1,-1,1.156,0.057251044,-0.378650377,1,0,0,1.3243,Peridotite_rect,7,1.324,1,7,0,7,0,1,,,,,,,,,,,,,
664ce5c7969975237f0e8ffa,TCR,2024-06-21_12h47.59.239,LearnStrategy,2023.2.3,MacIntel,30.76923077,8,1,9,0.013889771,-0.014614122,1,0,0,0.8346,rock_grid_rect_2,4,09,-1,-1,0.835,-0.33216373,-0.245737033,1,0,0,3.6134,Andesite_rect,1,3.613,0,8,0,8,0,1,,,,,,,,,,,,,
664ce5c7969975237f0e8ffa,TCR,2024-06-21_12h47.59.239,LearnStrategy,2023.2.3,MacIntel,30.76923077,8,1,10,0.092186144,-0.012537469,1,0,0,8.7361,rock_grid_rect_2,1,09,-1,-1,8.736,0.430157606,-0.254293755,1,0,0,5.6305,Gabbro_rect,4,5.63,0,9,0,9,0,1,,,,,,,,,,,,,
664ce5c7969975237f0e8ffa,TCR,2024-06-21_12h47.59.239,LearnStrategy,2023.2.3,MacIntel,30.76923077,8,1,11,0.080100979,0.002413025,1,0,0,0.7135,rock_grid_rect_2,5,14,-1,-1,0.714,-0.373379856,-0.403651394,1,0,0,1.5181,Obsidian_rect,5,1.518,1,10,0,10,0,1,,,,,,,,,,,,,
664ce5c7969975237f0e8ffa,TCR,2024-06-21_12h47.59.239,LearnStrategy,2023.2.3,MacIntel,30.76923077,8,1,12,0.060697225,0.022285936,1,0,0,0.9741,rock_grid_rect_2,7,16,-1,-1,0.974,0.36688897,-0.271860012,1,0,0,1.4856,Gabbro_rect,4,1.486,0,11,0,11,0,1,,,,,,,,,,,,,
664ce5c7969975237f0e8ffa,TCR,2024-06-21_12h47.59.239,LearnStrategy,2023.2.3,MacIntel,30.76923077,8,1,13,0.112730509,-0.016317952,1,0,0,1.2127,rock_grid_rect_2,4,11,-1,-1,1.213,-0.335227051,-0.2370558,1,0,0,1.6559,Andesite_rect,1,1.656,0,12,0,12,0,1,,,,,,,,,,,,,
664ce5c7969975237f0e8ffa,TCR,2024-06-21_12h47.59.239,LearnStrategy,2023.2.3,MacIntel,30.76923077,8,1,14,0.130134888,0.00590549,1,0,0,1.0084,rock_grid_rect_2,2,12,-1,-1,1.008,0.316702271,-0.245978733,1,0,0,1.964,Gabbro_rect,4,1.964,0,13,0,13,0,1,,,,,,,,,,,,,
664ce5c7969975237f0e8ffa,TCR,2024-06-21_12h47.59.239,LearnStrategy,2023.2.3,MacIntel,30.76923077,8,1,15,0.060481093,0.005294698,1,0,0,0.8701,rock_grid_rect_2,4,12,-1,-1,0.87,0.103926799,-0.271890734,1,0,0,1.5245,Diorite_rect,3,1.524,0,14,0,14,0,1,,,,,,,,,,,,,
664ce5c7969975237f0e8ffa,TCR,2024-06-21_12h47.59.239,LearnStrategy,2023.2.3,MacIntel,30.76923077,8,1,16,0.063878174,-0.008728943,1,0,0,1.4317,rock_grid_rect_2,6,05,-1,-1,1.432,-0.08314704,-0.386864963,1,0,0,1.2792,Pegmatite_rect,6,1.279,1,15,0,15,0,1,,,,,,,,,,,,,
664ce5c7969975237f0e8ffa,TCR,2024-06-21_12h47.59.239,LearnStrategy,2023.2.3,MacIntel,30.76923077,8,2,1,,,,,,,,4,08,,,,,,,,,,,4,16.711,1,,,,,,0.411073947,-0.247792291,1,0,0,16.7107,Gabbro_rect,0,0,0,0,1,
664ce5c7969975237f0e8ffa,TCR,2024-06-21_12h47.59.239,LearnStrategy,2023.2.3,MacIntel,30.76923077,8,2,2,,,,,,,,1,16,,,,,,,,,,,1,1.793,1,,,,,,-0.385267232,-0.229883558,1,0,0,1.7926,Andesite_rect,1,0,1,0,1,
664ce5c7969975237f0e8ffa,TCR,2024-06-21_12h47.59.239,LearnStrategy,2023.2.3,MacIntel,30.76923077,8,2,3,,,,,,,,6,13,,,,,,,,,,,6,1.147,1,,,,,,-0.128078003,-0.396847263,1,0,0,1.1467,Pegmatite_rect,2,0,2,0,1,
664ce5c7969975237f0e8ffa,TCR,2024-06-21_12h47.59.239,LearnStrategy,2023.2.3,MacIntel,30.76923077,8,2,4,,,,,,,,8,03,,,,,,,,,,,8,1.418,1,,,,,,0.416648356,-0.395570882,1,0,0,1.4181,Pumice_rect,3,0,3,0,1,
664ce5c7969975237f0e8ffa,TCR,2024-06-21_12h47.59.239,LearnStrategy,2023.2.3,MacIntel,30.76923077,8,2,5,,,,,,,,7,14,,,,,,,,,,,7,4.761,1,,,,,,0.122147285,-0.409568549,1,0,0,4.7608,Peridotite_rect,4,0,4,0,1,
664ce5c7969975237f0e8ffa,TCR,2024-06-21_12h47.59.239,LearnStrategy,2023.2.3,MacIntel,30.76923077,8,2,6,,,,,,,,4,16,,,,,,,,,,,1,1.892,0,,,,,,-0.329571669,-0.246153564,1,0,0,1.8924,Andesite_rect,5,0,5,0,1,
664ce5c7969975237f0e8ffa,TCR,2024-06-21_12h47.59.239,LearnStrategy,2023.2.3,MacIntel,30.76923077,8,2,7,,,,,,,,3,02,,,,,,,,,,,3,1.188,1,,,,,,0.101216702,-0.241768053,1,0,0,1.1885,Diorite_rect,6,0,6,0,1,
664ce5c7969975237f0e8ffa,TCR,2024-06-21_12h47.59.239,LearnStrategy,2023.2.3,MacIntel,30.76923077,8,2,8,,,,,,,,2,02,,,,,,,,,,,2,1.248,1,,,,,,-0.107203437,-0.256187405,1,0,0,1.2478,Basalt_rect,7,0,7,0,1,
664ce5c7969975237f0e8ffa,TCR,2024-06-21_12h47.59.239,LearnStrategy,2023.2.3,MacIntel,30.76923077,8,2,9,,,,,,,,7,06,,,,,,,,,,,6,1.421,0,,,,,,-0.110291748,-0.395604926,1,0,0,1.4212,Pegmatite_rect,8,0,8,0,1,
664ce5c7969975237f0e8ffa,TCR,2024-06-21_12h47.59.239,LearnStrategy,2023.2.3,MacIntel,30.76923077,8,2,10,,,,,,,,2,09,,,,,,,,,,,2,1.714,1,,,,,,-0.086786228,-0.250094401,1,0,0,1.7137,Basalt_rect,9,0,9,0,1,
664ce5c7969975237f0e8ffa,TCR,2024-06-21_12h47.59.239,LearnStrategy,2023.2.3,MacIntel,30.76923077,8,2,11,,,,,,,,1,14,,,,,,,,,,,1,2.608,1,,,,,,-0.37918023,-0.248831041,1,0,0,2.6076,Andesite_rect,10,0,10,0,1,
664ce5c7969975237f0e8ffa,TCR,2024-06-21_12h47.59.239,LearnStrategy,2023.2.3,MacIntel,30.76923077,8,2,12,,,,,,,,3,09,,,,,,,,,,,3,0.96,1,,,,,,0.141373359,-0.23572035,1,0,0,0.9604,Diorite_rect,11,0,11,0,1,
664ce5c7969975237f0e8ffa,TCR,2024-06-21_12h47.59.239,LearnStrategy,2023.2.3,MacIntel,30.76923077,8,2,13,,,,,,,,6,07,,,,,,,,,,,6,1.702,1,,,,,,-0.108815511,-0.396954617,1,0,0,1.7021,Pegmatite_rect,12,0,12,0,1,
664ce5c7969975237f0e8ffa,TCR,2024-06-21_12h47.59.239,LearnStrategy,2023.2.3,MacIntel,30.76923077,8,2,14,,,,,,,,5,05,,,,,,,,,,,5,1.237,1,,,,,,-0.34080329,-0.399696655,1,0,0,1.2367,Obsidian_rect,13,0,13,0,1,
664ce5c7969975237f0e8ffa,TCR,2024-06-21_12h47.59.239,LearnStrategy,2023.2.3,MacIntel,30.76923077,8,2,15,,,,,,,,5,04,,,,,,,,,,,5,0.712,1,,,,,,-0.34080329,-0.399696655,1,0,0,0.7124,Obsidian_rect,14,0,14,0,1,
664ce5c7969975237f0e8ffa,TCR,2024-06-21_12h47.59.239,LearnStrategy,2023.2.3,MacIntel,30.76923077,8,2,16,,,,,,,,8,14,,,,,,,,,,,8,1.191,1,,,,,,0.380230035,-0.38229031,1,0,0,1.1907,Pumice_rect,15,0,15,0,1,
664ce5c7969975237f0e8ffa,TCR,2024-06-21_12h47.59.239,LearnStrategy,2023.2.3,MacIntel,30.76923077,9,1,1,-0.028026055,-0.012211473,1,0,0,2.4291,rock_grid_rect_2,2,01,-1,-1,2.429,-0.133037177,-0.229879286,1,0,0,1.0324,Basalt_rect,2,1.032,1,0,0,0,0,1,,,,,,,,,,,,,
664ce5c7969975237f0e8ffa,TCR,2024-06-21_12h47.59.239,LearnStrategy,2023.2.3,MacIntel,30.76923077,9,1,2,0.028367174,0.009324171,1,0,0,0.9391,rock_grid_rect_2,6,03,-1,-1,0.939,-0.091200494,-0.385126546,1,0,0,1.3746,Pegmatite_rect,6,1.375,1,1,0,1,0,1,,,,,,,,,,,,,
664ce5c7969975237f0e8ffa,TCR,2024-06-21_12h47.59.239,LearnStrategy,2023.2.3,MacIntel,30.76923077,9,1,3,0.010047201,-0.01048662,1,0,0,0.8802,rock_grid_rect_2,8,06,-1,-1,0.88,0.318614909,-0.407419637,1,0,0,1.8115,Pumice_rect,8,1.812,1,2,0,2,0,1,,,,,,,,,,,,,
664ce5c7969975237f0e8ffa,TCR,2024-06-21_12h47.59.239,LearnStrategy,2023.2.3,MacIntel,30.76923077,9,1,4,0.037527466,0.014169651,1,0,0,0.7464,rock_grid_rect_2,4,15,-1,-1,0.746,0.364627957,-0.248335978,1,0,0,1.1947,Gabbro_rect,4,1.195,1,3,0,3,0,1,,,,,,,,,,,,,
664ce5c7969975237f0e8ffa,TCR,2024-06-21_12h47.59.239,LearnStrategy,2023.2.3,MacIntel,30.76923077,9,1,5,0.016638116,-0.005445964,1,0,0,0.7282,rock_grid_rect_2,1,06,-1,-1,0.728,-0.355808377,-0.243820936,1,0,0,1.7231,Andesite_rect,1,1.723,1,4,0,4,0,1,,,,,,,,,,,,,
664ce5c7969975237f0e8ffa,TCR,2024-06-21_12h47.59.239,LearnStrategy,2023.2.3,MacIntel,30.76923077,9,1,6,-0.076108059,0.024711711,1,0,0,0.8115,rock_grid_rect_2,7,13,-1,-1,0.812,0.149148695,-0.412800836,1,0,0,1.5799,Peridotite_rect,7,1.58,1,5,0,5,0,1,,,,,,,,,,,,,
664ce5c7969975237f0e8ffa,TCR,2024-06-21_12h47.59.239,LearnStrategy,2023.2.3,MacIntel,30.76923077,9,1,7,0.030840318,-0.003780077,1,0,0,0.7717,rock_grid_rect_2,7,15,-1,-1,0.772,0.373002794,-0.239865384,1,0,0,1.4056,Gabbro_rect,4,1.406,0,6,0,6,0,1,,,,,,,,,,,,,
664ce5c7969975237f0e8ffa,TCR,2024-06-21_12h47.59.239,LearnStrategy,2023.2.3,MacIntel,30.76923077,9,1,8,-0.016876967,0.007295397,1,0,0,0.7196,rock_grid_rect_2,3,16,-1,-1,0.72,0.126605564,-0.230456136,1,0,0,0.9924,Diorite_rect,3,0.992,1,7,0,7,0,1,,,,,,,,,,,,,
664ce5c7969975237f0e8ffa,TCR,2024-06-21_12h47.59.239,LearnStrategy,2023.2.3,MacIntel,30.76923077,9,1,9,0.021498006,-0.000200229,1,0,0,0.7825,rock_grid_rect_2,4,11,-1,-1,0.783,-0.409552544,-0.242321981,1,0,0,1.2154,Andesite_rect,1,1.215,0,8,0,8,0,1,,,,,,,,,,,,,
664ce5c7969975237f0e8ffa,TCR,2024-06-21_12h47.59.239,LearnStrategy,2023.2.3,MacIntel,30.76923077,9,1,10,0.012082859,0.018120965,1,0,0,0.7742,rock_grid_rect_2,7,13,-1,-1,0.774,0.132057631,-0.409522027,1,0,0,1.571,Peridotite_rect,7,1.571,1,9,0,9,0,1,,,,,,,,,,,,,
664ce5c7969975237f0e8ffa,TCR,2024-06-21_12h47.59.239,LearnStrategy,2023.2.3,MacIntel,30.76923077,9,1,11,0.036702135,-0.01961775,1,0,0,0.8739,rock_grid_rect_2,4,05,-1,-1,0.874,0.367252333,-0.240846829,1,0,0,1.0076,Gabbro_rect,4,1.008,1,10,0,10,0,1,,,,,,,,,,,,,
664ce5c7969975237f0e8ffa,TCR,2024-06-21_12h47.59.239,LearnStrategy,2023.2.3,MacIntel,30.76923077,9,1,12,0.077317573,-0.017292175,1,0,0,0.7682,rock_grid_rect_2,4,09,-1,-1,0.768,0.426638862,-0.261378716,1,0,0,3.8063,Gabbro_rect,4,3.806,1,11,0,11,0,1,,,,,,,,,,,,,
664ce5c7969975237f0e8ffa,TCR,2024-06-21_12h47.59.239,LearnStrategy,2023.2.3,MacIntel,30.76923077,9,1,13,-0.054252658,-0.001913757,1,0,0,0.8181,rock_grid_rect_2,4,11,-1,-1,0.818,0.19639289,-0.395044217,1,0,0,3.6691,Peridotite_rect,7,3.669,0,12,0,12,0,1,,,,,,,,,,,,,
664ce5c7969975237f0e8ffa,TCR,2024-06-21_12h47.59.239,LearnStrategy,2023.2.3,MacIntel,30.76923077,9,1,14,0.065697293,-0.018789808,1,0,0,1.1202,rock_grid_rect_2,5,14,-1,-1,1.12,-0.3781938,-0.385899726,1,0,0,1.23,Obsidian_rect,5,1.23,1,13,0,13,0,1,,,,,,,,,,,,,
664ce5c7969975237f0e8ffa,TCR,2024-06-21_12h47.59.239,LearnStrategy,2023.2.3,MacIntel,30.76923077,9,1,15,0.103172268,0.02227634,1,0,0,0.8635,rock_grid_rect_2,1,09,-1,-1,0.863,-0.363053419,-0.25019755,1,0,0,1.4824,Andesite_rect,1,1.482,1,14,0,14,0,1,,,,,,,,,,,,,
664ce5c7969975237f0e8ffa,TCR,2024-06-21_12h47.59.239,LearnStrategy,2023.2.3,MacIntel,30.76923077,9,1,16,0.040651449,-0.02235928,1,0,0,0.8514,rock_grid_rect_2,1,02,-1,-1,0.851,-0.326867337,-0.254566718,1,0,0,1.9224,Andesite_rect,1,1.922,1,15,0,15,0,1,,,,,,,,,,,,,
664ce5c7969975237f0e8ffa,TCR,2024-06-21_12h47.59.239,LearnStrategy,2023.2.3,MacIntel,30.76923077,9,2,1,,,,,,,,1,04,,,,,,,,,,,1,1.135,1,,,,,,-0.380384827,-0.244989217,1,0,0,1.135,Andesite_rect,0,0,0,0,1,
664ce5c7969975237f0e8ffa,TCR,2024-06-21_12h47.59.239,LearnStrategy,2023.2.3,MacIntel,30.76923077,9,2,2,,,,,,,,5,08,,,,,,,,,,,5,1.089,1,,,,,,-0.34399899,-0.396494344,1,0,0,1.0894,Obsidian_rect,1,0,1,0,1,
664ce5c7969975237f0e8ffa,TCR,2024-06-21_12h47.59.239,LearnStrategy,2023.2.3,MacIntel,30.76923077,9,2,3,,,,,,,,3,14,,,,,,,,,,,3,1.097,1,,,,,,0.126049466,-0.236820407,1,0,0,1.0965,Diorite_rect,2,0,2,0,1,
664ce5c7969975237f0e8ffa,TCR,2024-06-21_12h47.59.239,LearnStrategy,2023.2.3,MacIntel,30.76923077,9,2,4,,,,,,,,5,09,,,,,,,,,,,5,1.159,1,,,,,,-0.324368184,-0.397299398,1,0,0,1.1591,Obsidian_rect,3,0,3,0,1,
664ce5c7969975237f0e8ffa,TCR,2024-06-21_12h47.59.239,LearnStrategy,2023.2.3,MacIntel,30.76923077,9,2,5,,,,,,,,6,06,,,,,,,,,,,6,1.132,1,,,,,,-0.088780246,-0.392826267,1,0,0,1.1319,Pegmatite_rect,4,0,4,0,1,
664ce5c7969975237f0e8ffa,TCR,2024-06-21_12h47.59.239,LearnStrategy,2023.2.3,MacIntel,30.76923077,9,2,6,,,,,,,,4,01,,,,,,,,,,,4,1.218,1,,,,,,0.364832764,-0.240129462,1,0,0,1.2185,Gabbro_rect,5,0,5,0,1,
664ce5c7969975237f0e8ffa,TCR,2024-06-21_12h47.59.239,LearnStrategy,2023.2.3,MacIntel,30.76923077,9,2,7,,,,,,,,8,02,,,,,,,,,,,8,1.039,1,,,,,,0.353099501,-0.39958964,1,0,0,1.0387,Pumice_rect,6,0,6,0,1,
664ce5c7969975237f0e8ffa,TCR,2024-06-21_12h47.59.239,LearnStrategy,2023.2.3,MacIntel,30.76923077,9,2,8,,,,,,,,2,06,,,,,,,,,,,2,1.094,1,,,,,,-0.141141764,-0.256878323,1,0,0,1.0945,Basalt_rect,7,0,7,0,1,
664ce5c7969975237f0e8ffa,TCR,2024-06-21_12h47.59.239,LearnStrategy,2023.2.3,MacIntel,30.76923077,9,2,9,,,,,,,,7,10,,,,,,,,,,,7,1.298,1,,,,,,0.141809489,-0.40601766,1,0,0,1.2982,Peridotite_rect,8,0,8,0,1,
664ce5c7969975237f0e8ffa,TCR,2024-06-21_12h47.59.239,LearnStrategy,2023.2.3,MacIntel,30.76923077,9,2,10,,,,,,,,3,08,,,,,,,,,,,3,1.099,1,,,,,,0.14337538,-0.238568726,1,0,0,1.0989,Diorite_rect,9,0,9,0,1,
664ce5c7969975237f0e8ffa,TCR,2024-06-21_12h47.59.239,LearnStrategy,2023.2.3,MacIntel,30.76923077,9,2,11,,,,,,,,7,08,,,,,,,,,,,4,1.911,0,,,,,,0.375599637,-0.256751777,1,0,0,1.9108,Gabbro_rect,10,0,10,0,1,
664ce5c7969975237f0e8ffa,TCR,2024-06-21_12h47.59.239,LearnStrategy,2023.2.3,MacIntel,30.76923077,9,2,12,,,,,,,,8,05,,,,,,,,,,,8,0.917,1,,,,,,0.398650174,-0.419845852,1,0,0,0.9169,Pumice_rect,11,0,11,0,1,
664ce5c7969975237f0e8ffa,TCR,2024-06-21_12h47.59.239,LearnStrategy,2023.2.3,MacIntel,30.76923077,9,2,13,,,,,,,,6,16,,,,,,,,,,,6,1.339,1,,,,,,-0.173567844,-0.408519965,1,0,0,1.3394,Pegmatite_rect,12,0,12,0,1,
664ce5c7969975237f0e8ffa,TCR,2024-06-21_12h47.59.239,LearnStrategy,2023.2.3,MacIntel,30.76923077,9,2,14,,,,,,,,2,16,,,,,,,,,,,2,1.134,1,,,,,,-0.125993313,-0.242625054,1,0,0,1.1337,Basalt_rect,13,0,13,0,1,
664ce5c7969975237f0e8ffa,TCR,2024-06-21_12h47.59.239,LearnStrategy,2023.2.3,MacIntel,30.76923077,9,2,15,,,,,,,,1,07,,,,,,,,,,,1,1.196,1,,,,,,-0.358604228,-0.252423638,1,0,0,1.1962,Andesite_rect,14,0,14,0,1,
664ce5c7969975237f0e8ffa,TCR,2024-06-21_12h47.59.239,LearnStrategy,2023.2.3,MacIntel,30.76923077,9,2,16,,,,,,,,4,03,,,,,,,,,,,4,3.199,1,,,,,,0.381987983,-0.246350979,1,0,0,3.1992,Gabbro_rect,15,0,15,0,1,
664ce5c7969975237f0e8ffa,TCR,2024-06-21_12h47.59.239,LearnStrategy,2023.2.3,MacIntel,30.76923077,,,,,,,,,,,,,,,,,,,,,,,,,,,,,,,,,,,,,,,,,,,1
664ce5c7969975237f0e8ffa,TCR,2024-06-21_12h47.59.239,LearnStrategy,2023.2.3,MacIntel,30.76923077,,,,,,,,,,,,,,,,,,,,,,,,,,,,,,,,,,,,,,,,,,,
664ce5c7969975237f0e8ffa,TCR,2024-06-21_12h47.59.239,LearnStrategy,2023.2.3,MacIntel,30.76923077,,,,,,,,,,,1,09,1,1,,,,,,,,,,,,,,,,,,,,,,,,,,,,,
664ce5c7969975237f0e8ffa,TCR,2024-06-21_12h47.59.239,LearnStrategy,2023.2.3,MacIntel,30.76923077,,,,,,,,,,,2,14,1,2,,,,,,,,,,,,,,,,,,,,,,,,,,,,,
664ce5c7969975237f0e8ffa,TCR,2024-06-21_12h47.59.239,LearnStrategy,2023.2.3,MacIntel,30.76923077,,,,,,,,,,,6,05,1,3,,,,,,,,,,,,,,,,,,,,,,,,,,,,,
664ce5c7969975237f0e8ffa,TCR,2024-06-21_12h47.59.239,LearnStrategy,2023.2.3,MacIntel,30.76923077,,,,,,,,,,,3,06,1,4,,,,,,,,,,,,,,,,,,,,,,,,,,,,,
664ce5c7969975237f0e8ffa,TCR,2024-06-21_12h47.59.239,LearnStrategy,2023.2.3,MacIntel,30.76923077,,,,,,,,,,,8,08,1,5,,,,,,,,,,,,,,,,,,,,,,,,,,,,,
664ce5c7969975237f0e8ffa,TCR,2024-06-21_12h47.59.239,LearnStrategy,2023.2.3,MacIntel,30.76923077,,,,,,,,,,,1,05,1,6,,,,,,,,,,,,,,,,,,,,,,,,,,,,,
664ce5c7969975237f0e8ffa,TCR,2024-06-21_12h47.59.239,LearnStrategy,2023.2.3,MacIntel,30.76923077,,,,,,,,,,,3,13,1,7,,,,,,,,,,,,,,,,,,,,,,,,,,,,,
664ce5c7969975237f0e8ffa,TCR,2024-06-21_12h47.59.239,LearnStrategy,2023.2.3,MacIntel,30.76923077,,,,,,,,,,,4,11,1,8,,,,,,,,,,,,,,,,,,,,,,,,,,,,,
664ce5c7969975237f0e8ffa,TCR,2024-06-21_12h47.59.239,LearnStrategy,2023.2.3,MacIntel,30.76923077,,,,,,,,,,,7,04,2,1,,,,,,,,,,,,,,,,,,,,,,,,,,,,,
664ce5c7969975237f0e8ffa,TCR,2024-06-21_12h47.59.239,LearnStrategy,2023.2.3,MacIntel,30.76923077,,,,,,,,,,,6,03,2,2,,,,,,,,,,,,,,,,,,,,,,,,,,,,,
664ce5c7969975237f0e8ffa,TCR,2024-06-21_12h47.59.239,LearnStrategy,2023.2.3,MacIntel,30.76923077,,,,,,,,,,,6,15,2,3,,,,,,,,,,,,,,,,,,,,,,,,,,,,,
664ce5c7969975237f0e8ffa,TCR,2024-06-21_12h47.59.239,LearnStrategy,2023.2.3,MacIntel,30.76923077,,,,,,,,,,,1,06,2,4,,,,,,,,,,,,,,,,,,,,,,,,,,,,,
664ce5c7969975237f0e8ffa,TCR,2024-06-21_12h47.59.239,LearnStrategy,2023.2.3,MacIntel,30.76923077,,,,,,,,,,,2,12,2,5,,,,,,,,,,,,,,,,,,,,,,,,,,,,,
664ce5c7969975237f0e8ffa,TCR,2024-06-21_12h47.59.239,LearnStrategy,2023.2.3,MacIntel,30.76923077,,,,,,,,,,,8,04,2,6,,,,,,,,,,,,,,,,,,,,,,,,,,,,,
664ce5c7969975237f0e8ffa,TCR,2024-06-21_12h47.59.239,LearnStrategy,2023.2.3,MacIntel,30.76923077,,,,,,,,,,,3,15,2,7,,,,,,,,,,,,,,,,,,,,,,,,,,,,,
664ce5c7969975237f0e8ffa,TCR,2024-06-21_12h47.59.239,LearnStrategy,2023.2.3,MacIntel,30.76923077,,,,,,,,,,,2,10,2,8,,,,,,,,,,,,,,,,,,,,,,,,,,,,,
664ce5c7969975237f0e8ffa,TCR,2024-06-21_12h47.59.239,LearnStrategy,2023.2.3,MacIntel,30.76923077,,,,,,,,,,,8,13,3,1,,,,,,,,,,,,,,,,,,,,,,,,,,,,,
664ce5c7969975237f0e8ffa,TCR,2024-06-21_12h47.59.239,LearnStrategy,2023.2.3,MacIntel,30.76923077,,,,,,,,,,,3,12,3,2,,,,,,,,,,,,,,,,,,,,,,,,,,,,,
664ce5c7969975237f0e8ffa,TCR,2024-06-21_12h47.59.239,LearnStrategy,2023.2.3,MacIntel,30.76923077,,,,,,,,,,,1,01,3,3,,,,,,,,,,,,,,,,,,,,,,,,,,,,,
664ce5c7969975237f0e8ffa,TCR,2024-06-21_12h47.59.239,LearnStrategy,2023.2.3,MacIntel,30.76923077,,,,,,,,,,,4,13,3,4,,,,,,,,,,,,,,,,,,,,,,,,,,,,,
664ce5c7969975237f0e8ffa,TCR,2024-06-21_12h47.59.239,LearnStrategy,2023.2.3,MacIntel,30.76923077,,,,,,,,,,,8,10,3,5,,,,,,,,,,,,,,,,,,,,,,,,,,,,,
664ce5c7969975237f0e8ffa,TCR,2024-06-21_12h47.59.239,LearnStrategy,2023.2.3,MacIntel,30.76923077,,,,,,,,,,,5,14,3,6,,,,,,,,,,,,,,,,,,,,,,,,,,,,,
664ce5c7969975237f0e8ffa,TCR,2024-06-21_12h47.59.239,LearnStrategy,2023.2.3,MacIntel,30.76923077,,,,,,,,,,,7,16,3,7,,,,,,,,,,,,,,,,,,,,,,,,,,,,,
664ce5c7969975237f0e8ffa,TCR,2024-06-21_12h47.59.239,LearnStrategy,2023.2.3,MacIntel,30.76923077,,,,,,,,,,,6,08,3,8,,,,,,,,,,,,,,,,,,,,,,,,,,,,,
664ce5c7969975237f0e8ffa,TCR,2024-06-21_12h47.59.239,LearnStrategy,2023.2.3,MacIntel,30.76923077,,,,,,,,,,,5,16,4,1,,,,,,,,,,,,,,,,,,,,,,,,,,,,,
664ce5c7969975237f0e8ffa,TCR,2024-06-21_12h47.59.239,LearnStrategy,2023.2.3,MacIntel,30.76923077,,,,,,,,,,,7,15,4,2,,,,,,,,,,,,,,,,,,,,,,,,,,,,,
664ce5c7969975237f0e8ffa,TCR,2024-06-21_12h47.59.239,LearnStrategy,2023.2.3,MacIntel,30.76923077,,,,,,,,,,,3,07,4,3,,,,,,,,,,,,,,,,,,,,,,,,,,,,,
664ce5c7969975237f0e8ffa,TCR,2024-06-21_12h47.59.239,LearnStrategy,2023.2.3,MacIntel,30.76923077,,,,,,,,,,,3,16,4,4,,,,,,,,,,,,,,,,,,,,,,,,,,,,,
664ce5c7969975237f0e8ffa,TCR,2024-06-21_12h47.59.239,LearnStrategy,2023.2.3,MacIntel,30.76923077,,,,,,,,,,,7,13,4,5,,,,,,,,,,,,,,,,,,,,,,,,,,,,,
664ce5c7969975237f0e8ffa,TCR,2024-06-21_12h47.59.239,LearnStrategy,2023.2.3,MacIntel,30.76923077,,,,,,,,,,,5,06,4,6,,,,,,,,,,,,,,,,,,,,,,,,,,,,,
664ce5c7969975237f0e8ffa,TCR,2024-06-21_12h47.59.239,LearnStrategy,2023.2.3,MacIntel,30.76923077,,,,,,,,,,,4,09,4,7,,,,,,,,,,,,,,,,,,,,,,,,,,,,,
664ce5c7969975237f0e8ffa,TCR,2024-06-21_12h47.59.239,LearnStrategy,2023.2.3,MacIntel,30.76923077,,,,,,,,,,,6,09,4,8,,,,,,,,,,,,,,,,,,,,,,,,,,,,,
664ce5c7969975237f0e8ffa,TCR,2024-06-21_12h47.59.239,LearnStrategy,2023.2.3,MacIntel,30.76923077,,,,,,,,,,,2,11,5,1,,,,,,,,,,,,,,,,,,,,,,,,,,,,,
664ce5c7969975237f0e8ffa,TCR,2024-06-21_12h47.59.239,LearnStrategy,2023.2.3,MacIntel,30.76923077,,,,,,,,,,,4,05,5,2,,,,,,,,,,,,,,,,,,,,,,,,,,,,,
664ce5c7969975237f0e8ffa,TCR,2024-06-21_12h47.59.239,LearnStrategy,2023.2.3,MacIntel,30.76923077,,,,,,,,,,,7,02,5,3,,,,,,,,,,,,,,,,,,,,,,,,,,,,,
664ce5c7969975237f0e8ffa,TCR,2024-06-21_12h47.59.239,LearnStrategy,2023.2.3,MacIntel,30.76923077,,,,,,,,,,,7,07,5,4,,,,,,,,,,,,,,,,,,,,,,,,,,,,,
664ce5c7969975237f0e8ffa,TCR,2024-06-21_12h47.59.239,LearnStrategy,2023.2.3,MacIntel,30.76923077,,,,,,,,,,,8,06,5,5,,,,,,,,,,,,,,,,,,,,,,,,,,,,,
664ce5c7969975237f0e8ffa,TCR,2024-06-21_12h47.59.239,LearnStrategy,2023.2.3,MacIntel,30.76923077,,,,,,,,,,,5,11,5,6,,,,,,,,,,,,,,,,,,,,,,,,,,,,,
664ce5c7969975237f0e8ffa,TCR,2024-06-21_12h47.59.239,LearnStrategy,2023.2.3,MacIntel,30.76923077,,,,,,,,,,,6,12,5,7,,,,,,,,,,,,,,,,,,,,,,,,,,,,,
664ce5c7969975237f0e8ffa,TCR,2024-06-21_12h47.59.239,LearnStrategy,2023.2.3,MacIntel,30.76923077,,,,,,,,,,,2,01,5,8,,,,,,,,,,,,,,,,,,,,,,,,,,,,,
664ce5c7969975237f0e8ffa,TCR,2024-06-21_12h47.59.239,LearnStrategy,2023.2.3,MacIntel,30.76923077,,,,,,,,,,,5,10,6,1,,,,,,,,,,,,,,,,,,,,,,,,,,,,,
664ce5c7969975237f0e8ffa,TCR,2024-06-21_12h47.59.239,LearnStrategy,2023.2.3,MacIntel,30.76923077,,,,,,,,,,,8,15,6,2,,,,,,,,,,,,,,,,,,,,,,,,,,,,,
664ce5c7969975237f0e8ffa,TCR,2024-06-21_12h47.59.239,LearnStrategy,2023.2.3,MacIntel,30.76923077,,,,,,,,,,,5,12,6,3,,,,,,,,,,,,,,,,,,,,,,,,,,,,,
664ce5c7969975237f0e8ffa,TCR,2024-06-21_12h47.59.239,LearnStrategy,2023.2.3,MacIntel,30.76923077,,,,,,,,,,,1,11,6,4,,,,,,,,,,,,,,,,,,,,,,,,,,,,,
664ce5c7969975237f0e8ffa,TCR,2024-06-21_12h47.59.239,LearnStrategy,2023.2.3,MacIntel,30.76923077,,,,,,,,,,,2,04,6,5,,,,,,,,,,,,,,,,,,,,,,,,,,,,,
664ce5c7969975237f0e8ffa,TCR,2024-06-21_12h47.59.239,LearnStrategy,2023.2.3,MacIntel,30.76923077,,,,,,,,,,,1,02,6,6,,,,,,,,,,,,,,,,,,,,,,,,,,,,,
664ce5c7969975237f0e8ffa,TCR,2024-06-21_12h47.59.239,LearnStrategy,2023.2.3,MacIntel,30.76923077,,,,,,,,,,,4,12,6,7,,,,,,,,,,,,,,,,,,,,,,,,,,,,,
664ce5c7969975237f0e8ffa,TCR,2024-06-21_12h47.59.239,LearnStrategy,2023.2.3,MacIntel,30.76923077,,,,,,,,,,,4,15,6,8,,,,,,,,,,,,,,,,,,,,,,,,,,,,,