participant,condition,date,expName,psychopyVersion,OS,frameRate,block,phase,trial,learn_mouse_2.x,learn_mouse_2.y,learn_mouse_2.leftButton,learn_mouse_2.midButton,learn_mouse_2.rightButton,learn_mouse_2.time,learn_mouse_2.clicked_name,cat,token,row,col,t_select,cat_mouse_l.x,cat_mouse_l.y,cat_mouse_l.leftButton,cat_mouse_l.midButton,cat_mouse_l.rightButton,cat_mouse_l.time,cat_mouse_l.clicked_name,resp,t_resp,corr,train_trials.thisRepN,train_trials.thisTrialN,train_trials.thisN,train_trials.thisIndex,train_trials.ran,cat_mouse_t.x,cat_mouse_t.y,cat_mouse_t.leftButton,cat_mouse_t.midButton,cat_mouse_t.rightButton,cat_mouse_t.time,cat_mouse_t.clicked_name,test_trials.thisRepN,test_trials.thisTrialN,test_trials.thisN,test_trials.thisIndex,test_trials.ran,Bonus
664cf412f465d48105837dac,TCN,2024-06-24_11h47.16.877,LearnStrategy,2023.2.3,Win32,60.24096386,,,,,,,,,,,,,,,,,,,,,,,,,,,,,,,,,,,,,,,,,,,
664cf412f465d48105837dac,TCN,2024-06-24_11h47.16.877,LearnStrategy,2023.2.3,Win32,60.24096386,1,1,1,-0.04296875,0.001302083,1,0,0,5.8053,rock_grid_rect_2,3,06,-1,-1,5.805,-0.192708333,-0.229166667,1,0,0,7.8852,Basalt_rect,2,7.885,0,0,0,0,0,1,,,,,,,,,,,,,
664cf412f465d48105837dac,TCN,2024-06-24_11h47.16.877,LearnStrategy,2023.2.3,Win32,60.24096386,1,1,2,-0.140625,-0.009114583,1,0,0,2.1636,rock_grid_rect_2,7,15,-1,-1,2.164,0.08984375,-0.40625,1,0,0,4.531,Peridotite_rect,7,4.531,1,1,0,1,0,1,,,,,,,,,,,,,
664cf412f465d48105837dac,TCN,2024-06-24_11h47.16.877,LearnStrategy,2023.2.3,Win32,60.24096386,1,1,3,-0.111979167,-0.001302083,1,0,0,2.7419,rock_grid_rect_2,5,14,-1,-1,2.742,-0.384114583,-0.407552083,1,0,0,1.6665,Obsidian_rect,5,1.666,1,2,0,2,0,1,,,,,,,,,,,,,
664cf412f465d48105837dac,TCN,2024-06-24_11h47.16.877,LearnStrategy,2023.2.3,Win32,60.24096386,1,1,4,-0.04296875,-0.01953125,1,0,0,1.078,rock_grid_rect_2,6,06,-1,-1,1.078,0.377604167,-0.235677083,1,0,0,26.344,Gabbro_rect,4,26.344,0,3,0,3,0,1,,,,,,,,,,,,,
664cf412f465d48105837dac,TCN,2024-06-24_11h47.16.877,LearnStrategy,2023.2.3,Win32,60.24096386,1,1,5,-0.079427083,0.01953125,1,0,0,1.4129,rock_grid_rect_2,4,11,-1,-1,1.413,-0.08984375,-0.264322917,1,0,0,6.3117,Basalt_rect,2,6.312,0,4,0,4,0,1,,,,,,,,,,,,,
664cf412f465d48105837dac,TCN,2024-06-24_11h47.16.877,LearnStrategy,2023.2.3,Win32,60.24096386,1,1,6,-0.100260417,-0.002604167,1,0,0,1.5257,rock_grid_rect_2,1,10,-1,-1,1.526,0.352864583,-0.388020833,1,0,0,2.3717,Pumice_rect,8,2.372,0,5,0,5,0,1,,,,,,,,,,,,,
664cf412f465d48105837dac,TCN,2024-06-24_11h47.16.877,LearnStrategy,2023.2.3,Win32,60.24096386,1,1,7,-0.084635417,-0.0234375,1,0,0,1.7988,rock_grid_rect_2,5,06,-1,-1,1.799,-0.447916667,-0.421875,1,0,0,1.7818,Obsidian_rect,5,1.782,1,6,0,6,0,1,,,,,,,,,,,,,
664cf412f465d48105837dac,TCN,2024-06-24_11h47.16.877,LearnStrategy,2023.2.3,Win32,60.24096386,1,1,8,-0.029947917,-0.0078125,1,0,0,0.9319,rock_grid_rect_2,8,13,-1,-1,0.932,-0.09765625,-0.264322917,1,0,0,6.5343,Basalt_rect,2,6.534,0,7,0,7,0,1,,,,,,,,,,,,,
664cf412f465d48105837dac,TCN,2024-06-24_11h47.16.877,LearnStrategy,2023.2.3,Win32,60.24096386,1,1,9,-0.016927083,-0.005208333,1,0,0,1.3926,rock_grid_rect_2,6,03,-1,-1,1.393,0.1015625,-0.25390625,1,0,0,4.7195,Diorite_rect,3,4.719,0,8,0,8,0,1,,,,,,,,,,,,,
664cf412f465d48105837dac,TCN,2024-06-24_11h47.16.877,LearnStrategy,2023.2.3,Win32,60.24096386,1,1,10,-0.03125,-0.014322917,1,0,0,1.3596,rock_grid_rect_2,8,02,-1,-1,1.36,0.368489583,-0.421875,1,0,0,2.2786,Pumice_rect,8,2.279,1,9,0,9,0,1,,,,,,,,,,,,,
664cf412f465d48105837dac,TCN,2024-06-24_11h47.16.877,LearnStrategy,2023.2.3,Win32,60.24096386,1,1,11,0.026041667,-0.01953125,1,0,0,1.4615,rock_grid_rect_2,2,08,-1,-1,1.462,-0.111979167,-0.419270833,1,0,0,3.952,Pegmatite_rect,6,3.952,0,10,0,10,0,1,,,,,,,,,,,,,
664cf412f465d48105837dac,TCN,2024-06-24_11h47.16.877,LearnStrategy,2023.2.3,Win32,60.24096386,1,1,12,-0.057291667,-0.020833333,1,0,0,1.1133,rock_grid_rect_2,2,14,-1,-1,1.113,-0.3515625,-0.25,1,0,0,5.7265,Andesite_rect,1,5.727,0,11,0,11,0,1,,,,,,,,,,,,,
664cf412f465d48105837dac,TCN,2024-06-24_11h47.16.877,LearnStrategy,2023.2.3,Win32,60.24096386,1,1,13,-0.087239583,-0.005208333,1,0,0,1.1125,rock_grid_rect_2,3,14,-1,-1,1.113,-0.12109375,-0.3984375,1,0,0,4.1585,Pegmatite_rect,6,4.159,0,12,0,12,0,1,,,,,,,,,,,,,
664cf412f465d48105837dac,TCN,2024-06-24_11h47.16.877,LearnStrategy,2023.2.3,Win32,60.24096386,1,1,14,-0.061197917,-0.01953125,1,0,0,1.127,rock_grid_rect_2,1,16,-1,-1,1.127,-0.0859375,-0.401041667,1,0,0,4.7781,Pegmatite_rect,6,4.778,0,13,0,13,0,1,,,,,,,,,,,,,
664cf412f465d48105837dac,TCN,2024-06-24_11h47.16.877,LearnStrategy,2023.2.3,Win32,60.24096386,1,1,15,-0.057291667,0.002604167,1,0,0,0.9095,rock_grid_rect_2,4,16,-1,-1,0.909,-0.067708333,-0.2421875,1,0,0,1.8083,Basalt_rect,2,1.808,0,14,0,14,0,1,,,,,,,,,,,,,
664cf412f465d48105837dac,TCN,2024-06-24_11h47.16.877,LearnStrategy,2023.2.3,Win32,60.24096386,1,1,16,-0.009114583,-0.001302083,1,0,0,1.195,rock_grid_rect_2,7,16,-1,-1,1.195,0.096354167,-0.408854167,1,0,0,2.2064,Peridotite_rect,7,2.206,1,15,0,15,0,1,,,,,,,,,,,,,
664cf412f465d48105837dac,TCN,2024-06-24_11h47.16.877,LearnStrategy,2023.2.3,Win32,60.24096386,1,2,1,,,,,,,,2,16,,,,,,,,,,,2,5.635,1,,,,,,-0.122395833,-0.259114583,1,0,0,5.635,Basalt_rect,0,0,0,0,1,
664cf412f465d48105837dac,TCN,2024-06-24_11h47.16.877,LearnStrategy,2023.2.3,Win32,60.24096386,1,2,2,,,,,,,,7,02,,,,,,,,,,,3,3.611,0,,,,,,0.114583333,-0.266927083,1,0,0,3.6111,Diorite_rect,1,0,1,0,1,
664cf412f465d48105837dac,TCN,2024-06-24_11h47.16.877,LearnStrategy,2023.2.3,Win32,60.24096386,1,2,3,,,,,,,,1,09,,,,,,,,,,,3,2.496,0,,,,,,0.091145833,-0.260416667,0,0,1,2.4958,Diorite_rect,2,0,2,0,1,
664cf412f465d48105837dac,TCN,2024-06-24_11h47.16.877,LearnStrategy,2023.2.3,Win32,60.24096386,1,2,4,,,,,,,,5,05,,,,,,,,,,,5,4.545,1,,,,,,-0.37890625,-0.411458333,1,0,0,4.5452,Obsidian_rect,3,0,3,0,1,
664cf412f465d48105837dac,TCN,2024-06-24_11h47.16.877,LearnStrategy,2023.2.3,Win32,60.24096386,1,2,5,,,,,,,,7,04,,,,,,,,,,,1,6.321,0,,,,,,-0.3359375,-0.25390625,1,0,0,6.3212,Andesite_rect,4,0,4,0,1,
664cf412f465d48105837dac,TCN,2024-06-24_11h47.16.877,LearnStrategy,2023.2.3,Win32,60.24096386,1,2,6,,,,,,,,6,16,,,,,,,,,,,2,5.772,0,,,,,,-0.138020833,-0.248697917,1,0,0,5.7724,Basalt_rect,5,0,5,0,1,
664cf412f465d48105837dac,TCN,2024-06-24_11h47.16.877,LearnStrategy,2023.2.3,Win32,60.24096386,1,2,7,,,,,,,,4,15,,,,,,,,,,,4,3.101,1,,,,,,0.45703125,-0.2578125,1,0,0,3.1015,Gabbro_rect,6,0,6,0,1,
664cf412f465d48105837dac,TCN,2024-06-24_11h47.16.877,LearnStrategy,2023.2.3,Win32,60.24096386,1,2,8,,,,,,,,3,11,,,,,,,,,,,7,5.181,0,,,,,,0.104166667,-0.404947917,1,0,0,5.1809,Peridotite_rect,7,0,7,0,1,
664cf412f465d48105837dac,TCN,2024-06-24_11h47.16.877,LearnStrategy,2023.2.3,Win32,60.24096386,1,2,9,,,,,,,,5,04,,,,,,,,,,,5,2.166,1,,,,,,-0.376302083,-0.40234375,1,0,0,2.166,Obsidian_rect,8,0,8,0,1,
664cf412f465d48105837dac,TCN,2024-06-24_11h47.16.877,LearnStrategy,2023.2.3,Win32,60.24096386,1,2,10,,,,,,,,1,07,,,,,,,,,,,6,7.046,0,,,,,,-0.145833333,-0.407552083,1,0,0,7.046,Pegmatite_rect,9,0,9,0,1,
664cf412f465d48105837dac,TCN,2024-06-24_11h47.16.877,LearnStrategy,2023.2.3,Win32,60.24096386,1,2,11,,,,,,,,6,08,,,,,,,,,,,1,12.612,0,,,,,,-0.356770833,-0.263020833,1,0,0,12.6118,Andesite_rect,10,0,10,0,1,
664cf412f465d48105837dac,TCN,2024-06-24_11h47.16.877,LearnStrategy,2023.2.3,Win32,60.24096386,1,2,12,,,,,,,,3,15,,,,,,,,,,,3,4.354,1,,,,,,0.111979167,-0.233072917,1,0,0,4.3544,Diorite_rect,11,0,11,0,1,
664cf412f465d48105837dac,TCN,2024-06-24_11h47.16.877,LearnStrategy,2023.2.3,Win32,60.24096386,1,2,13,,,,,,,,4,10,,,,,,,,,,,8,2.704,0,,,,,,0.397135417,-0.412760417,1,0,0,2.7039,Pumice_rect,12,0,12,0,1,
664cf412f465d48105837dac,TCN,2024-06-24_11h47.16.877,LearnStrategy,2023.2.3,Win32,60.24096386,1,2,14,,,,,,,,8,08,,,,,,,,,,,8,1.211,1,,,,,,0.390625,-0.411458333,1,0,0,1.2109,Pumice_rect,13,0,13,0,1,
664cf412f465d48105837dac,TCN,2024-06-24_11h47.16.877,LearnStrategy,2023.2.3,Win32,60.24096386,1,2,15,,,,,,,,2,01,,,,,,,,,,,2,2.538,1,,,,,,-0.100260417,-0.239583333,1,0,0,2.5378,Basalt_rect,14,0,14,0,1,
664cf412f465d48105837dac,TCN,2024-06-24_11h47.16.877,LearnStrategy,2023.2.3,Win32,60.24096386,1,2,16,,,,,,,,8,09,,,,,,,,,,,8,5.391,1,,,,,,0.358072917,-0.397135417,1,0,0,5.3915,Pumice_rect,15,0,15,0,1,
664cf412f465d48105837dac,TCN,2024-06-24_11h47.16.877,LearnStrategy,2023.2.3,Win32,60.24096386,2,1,1,-0.05078125,-0.005208333,1,0,0,3.6263,rock_grid_rect_2,3,02,-1,-1,3.626,-0.337239583,-0.247395833,1,0,0,14.546,Andesite_rect,1,14.546,0,0,0,0,0,1,,,,,,,,,,,,,
664cf412f465d48105837dac,TCN,2024-06-24_11h47.16.877,LearnStrategy,2023.2.3,Win32,60.24096386,2,1,2,-0.026041667,0.0078125,1,0,0,1.8589,rock_grid_rect_2,2,12,-1,-1,1.859,0.359375,-0.37890625,1,0,0,2.7452,Pumice_rect,8,2.745,0,1,0,1,0,1,,,,,,,,,,,,,
664cf412f465d48105837dac,TCN,2024-06-24_11h47.16.877,LearnStrategy,2023.2.3,Win32,60.24096386,2,1,3,0.015625,0.015625,1,0,0,2.2115,rock_grid_rect_2,4,05,-1,-1,2.212,-0.111979167,-0.415364583,1,0,0,4.6222,Pegmatite_rect,6,4.622,0,2,0,2,0,1,,,,,,,,,,,,,
664cf412f465d48105837dac,TCN,2024-06-24_11h47.16.877,LearnStrategy,2023.2.3,Win32,60.24096386,2,1,4,-0.006510417,0,1,0,0,1.5636,rock_grid_rect_2,6,12,-1,-1,1.564,0.15234375,-0.23828125,1,0,0,2.5063,Diorite_rect,3,2.506,0,3,0,3,0,1,,,,,,,,,,,,,
664cf412f465d48105837dac,TCN,2024-06-24_11h47.16.877,LearnStrategy,2023.2.3,Win32,60.24096386,2,1,5,-0.002604167,-0.002604167,1,0,0,1.2102,rock_grid_rect_2,1,03,-1,-1,1.21,-0.079427083,-0.243489583,1,0,0,4.345,Basalt_rect,2,4.345,0,4,0,4,0,1,,,,,,,,,,,,,
664cf412f465d48105837dac,TCN,2024-06-24_11h47.16.877,LearnStrategy,2023.2.3,Win32,60.24096386,2,1,6,-0.045572917,-0.010416667,1,0,0,1.043,rock_grid_rect_2,3,07,-1,-1,1.043,-0.208333333,-0.41015625,1,0,0,5.1126,Pegmatite_rect,6,5.113,0,5,0,5,0,1,,,,,,,,,,,,,
664cf412f465d48105837dac,TCN,2024-06-24_11h47.16.877,LearnStrategy,2023.2.3,Win32,60.24096386,2,1,7,0.015625,0.018229167,1,0,0,1.0756,rock_grid_rect_2,7,13,-1,-1,1.076,0.104166667,-0.415364583,1,0,0,1.5807,Peridotite_rect,7,1.581,1,6,0,6,0,1,,,,,,,,,,,,,
664cf412f465d48105837dac,TCN,2024-06-24_11h47.16.877,LearnStrategy,2023.2.3,Win32,60.24096386,2,1,8,-0.01171875,-0.01171875,1,0,0,1.1457,rock_grid_rect_2,6,10,-1,-1,1.146,-0.33984375,-0.252604167,1,0,0,3.793,Andesite_rect,1,3.793,0,7,0,7,0,1,,,,,,,,,,,,,
664cf412f465d48105837dac,TCN,2024-06-24_11h47.16.877,LearnStrategy,2023.2.3,Win32,60.24096386,2,1,9,0.015625,0.006510417,1,0,0,1.5463,rock_grid_rect_2,4,03,-1,-1,1.546,-0.360677083,-0.235677083,1,0,0,9.3286,Andesite_rect,1,9.329,0,8,0,8,0,1,,,,,,,,,,,,,
664cf412f465d48105837dac,TCN,2024-06-24_11h47.16.877,LearnStrategy,2023.2.3,Win32,60.24096386,2,1,10,-0.009114583,-0.00390625,1,0,0,1.0767,rock_grid_rect_2,1,02,-1,-1,1.077,-0.130208333,-0.421875,1,0,0,3.5906,Pegmatite_rect,6,3.591,0,9,0,9,0,1,,,,,,,,,,,,,
664cf412f465d48105837dac,TCN,2024-06-24_11h47.16.877,LearnStrategy,2023.2.3,Win32,60.24096386,2,1,11,-0.033854167,-0.013020833,1,0,0,0.9447,rock_grid_rect_2,8,06,-1,-1,0.945,0.326822917,-0.41015625,1,0,0,1.6223,Pumice_rect,8,1.622,1,10,0,10,0,1,,,,,,,,,,,,,
664cf412f465d48105837dac,TCN,2024-06-24_11h47.16.877,LearnStrategy,2023.2.3,Win32,60.24096386,2,1,12,-0.0078125,-0.016927083,1,0,0,1.1781,rock_grid_rect_2,5,16,-1,-1,1.178,-0.34375,-0.407552083,1,0,0,1.5207,Obsidian_rect,5,1.521,1,11,0,11,0,1,,,,,,,,,,,,,
664cf412f465d48105837dac,TCN,2024-06-24_11h47.16.877,LearnStrategy,2023.2.3,Win32,60.24096386,2,1,13,-0.01171875,-0.01171875,1,0,0,0.945,rock_grid_rect_2,7,10,-1,-1,0.945,-0.071614583,-0.41796875,1,0,0,5.2267,Pegmatite_rect,6,5.227,0,12,0,12,0,1,,,,,,,,,,,,,
664cf412f465d48105837dac,TCN,2024-06-24_11h47.16.877,LearnStrategy,2023.2.3,Win32,60.24096386,2,1,14,0.036458333,-0.001302083,1,0,0,1.0761,rock_grid_rect_2,5,02,-1,-1,1.076,-0.399739583,-0.399739583,1,0,0,1.7889,Obsidian_rect,5,1.789,1,13,0,13,0,1,,,,,,,,,,,,,
664cf412f465d48105837dac,TCN,2024-06-24_11h47.16.877,LearnStrategy,2023.2.3,Win32,60.24096386,2,1,15,0.032552083,-0.015625,1,0,0,1.3943,rock_grid_rect_2,2,09,-1,-1,1.394,-0.127604167,-0.239583333,1,0,0,1.2773,Basalt_rect,2,1.277,1,14,0,14,0,1,,,,,,,,,,,,,
664cf412f465d48105837dac,TCN,2024-06-24_11h47.16.877,LearnStrategy,2023.2.3,Win32,60.24096386,2,1,16,0.00390625,0.001302083,1,0,0,1.1291,rock_grid_rect_2,8,15,-1,-1,1.129,0.372395833,-0.2578125,1,0,0,6.8353,Gabbro_rect,4,6.835,0,15,0,15,0,1,,,,,,,,,,,,,
664cf412f465d48105837dac,TCN,2024-06-24_11h47.16.877,LearnStrategy,2023.2.3,Win32,60.24096386,2,2,1,,,,,,,,3,10,,,,,,,,,,,1,3.613,0,,,,,,-0.325520833,-0.25390625,1,0,0,3.6133,Andesite_rect,0,0,0,0,1,
664cf412f465d48105837dac,TCN,2024-06-24_11h47.16.877,LearnStrategy,2023.2.3,Win32,60.24096386,2,2,2,,,,,,,,5,10,,,,,,,,,,,5,1.115,1,,,,,,-0.37109375,-0.407552083,1,0,0,1.1146,Obsidian_rect,1,0,1,0,1,
664cf412f465d48105837dac,TCN,2024-06-24_11h47.16.877,LearnStrategy,2023.2.3,Win32,60.24096386,2,2,3,,,,,,,,4,01,,,,,,,,,,,7,1.517,0,,,,,,0.080729167,-0.399739583,1,0,0,1.517,Peridotite_rect,2,0,2,0,1,
664cf412f465d48105837dac,TCN,2024-06-24_11h47.16.877,LearnStrategy,2023.2.3,Win32,60.24096386,2,2,4,,,,,,,,7,07,,,,,,,,,,,3,2.234,0,,,,,,0.104166667,-0.255208333,1,0,0,2.2338,Diorite_rect,3,0,3,0,1,
664cf412f465d48105837dac,TCN,2024-06-24_11h47.16.877,LearnStrategy,2023.2.3,Win32,60.24096386,2,2,5,,,,,,,,2,11,,,,,,,,,,,2,2.797,1,,,,,,-0.190104167,-0.239583333,1,0,0,2.7971,Basalt_rect,4,0,4,0,1,
664cf412f465d48105837dac,TCN,2024-06-24_11h47.16.877,LearnStrategy,2023.2.3,Win32,60.24096386,2,2,6,,,,,,,,1,01,,,,,,,,,,,6,2.317,0,,,,,,-0.154947917,-0.403645833,1,0,0,2.3167,Pegmatite_rect,5,0,5,0,1,
664cf412f465d48105837dac,TCN,2024-06-24_11h47.16.877,LearnStrategy,2023.2.3,Win32,60.24096386,2,2,7,,,,,,,,4,09,,,,,,,,,,,3,3.445,0,,,,,,0.182291667,-0.260416667,1,0,0,3.4448,Diorite_rect,6,0,6,0,1,
664cf412f465d48105837dac,TCN,2024-06-24_11h47.16.877,LearnStrategy,2023.2.3,Win32,60.24096386,2,2,8,,,,,,,,1,05,,,,,,,,,,,1,2.139,1,,,,,,-0.346354167,-0.233072917,1,0,0,2.1395,Andesite_rect,7,0,7,0,1,
664cf412f465d48105837dac,TCN,2024-06-24_11h47.16.877,LearnStrategy,2023.2.3,Win32,60.24096386,2,2,9,,,,,,,,3,13,,,,,,,,,,,6,4.852,0,,,,,,-0.076822917,-0.40234375,1,0,0,4.8522,Pegmatite_rect,8,0,8,0,1,
664cf412f465d48105837dac,TCN,2024-06-24_11h47.16.877,LearnStrategy,2023.2.3,Win32,60.24096386,2,2,10,,,,,,,,8,03,,,,,,,,,,,8,1.82,1,,,,,,0.3515625,-0.403645833,1,0,0,1.8202,Pumice_rect,9,0,9,0,1,
664cf412f465d48105837dac,TCN,2024-06-24_11h47.16.877,LearnStrategy,2023.2.3,Win32,60.24096386,2,2,11,,,,,,,,7,14,,,,,,,,,,,7,2.203,1,,,,,,0.149739583,-0.381510417,1,0,0,2.203,Peridotite_rect,10,0,10,0,1,
664cf412f465d48105837dac,TCN,2024-06-24_11h47.16.877,LearnStrategy,2023.2.3,Win32,60.24096386,2,2,12,,,,,,,,6,09,,,,,,,,,,,4,2.696,0,,,,,,0.408854167,-0.260416667,1,0,0,2.6961,Gabbro_rect,11,0,11,0,1,
664cf412f465d48105837dac,TCN,2024-06-24_11h47.16.877,LearnStrategy,2023.2.3,Win32,60.24096386,2,2,13,,,,,,,,6,05,,,,,,,,,,,3,7.953,0,,,,,,0.203125,-0.264322917,1,0,0,7.9529,Diorite_rect,12,0,12,0,1,
664cf412f465d48105837dac,TCN,2024-06-24_11h47.16.877,LearnStrategy,2023.2.3,Win32,60.24096386,2,2,14,,,,,,,,2,05,,,,,,,,,,,2,2.59,1,,,,,,-0.080729167,-0.2421875,1,0,0,2.5896,Basalt_rect,13,0,13,0,1,
664cf412f465d48105837dac,TCN,2024-06-24_11h47.16.877,LearnStrategy,2023.2.3,Win32,60.24096386,2,2,15,,,,,,,,8,14,,,,,,,,,,,8,1.968,1,,,,,,0.33203125,-0.39453125,1,0,0,1.9684,Pumice_rect,14,0,14,0,1,
664cf412f465d48105837dac,TCN,2024-06-24_11h47.16.877,LearnStrategy,2023.2.3,Win32,60.24096386,2,2,16,,,,,,,,5,08,,,,,,,,,,,5,2,1,,,,,,-0.30859375,-0.412760417,1,0,0,1.9997,Obsidian_rect,15,0,15,0,1,
664cf412f465d48105837dac,TCN,2024-06-24_11h47.16.877,LearnStrategy,2023.2.3,Win32,60.24096386,3,1,1,0.010416667,0.002604167,1,0,0,3.8437,rock_grid_rect_2,3,16,-1,-1,3.844,0.115885417,-0.239583333,1,0,0,1.5605,Diorite_rect,3,1.56,1,0,0,0,0,1,,,,,,,,,,,,,
664cf412f465d48105837dac,TCN,2024-06-24_11h47.16.877,LearnStrategy,2023.2.3,Win32,60.24096386,3,1,2,0.013020833,0.0078125,1,0,0,1.7616,rock_grid_rect_2,4,08,-1,-1,1.762,-0.1484375,-0.385416667,1,0,0,7.5458,Pegmatite_rect,6,7.546,0,1,0,1,0,1,,,,,,,,,,,,,
664cf412f465d48105837dac,TCN,2024-06-24_11h47.16.877,LearnStrategy,2023.2.3,Win32,60.24096386,3,1,3,-0.00390625,-0.001302083,1,0,0,1.9562,rock_grid_rect_2,3,12,-1,-1,1.956,0.170572917,-0.243489583,1,0,0,2.9077,Diorite_rect,3,2.908,1,2,0,2,0,1,,,,,,,,,,,,,
664cf412f465d48105837dac,TCN,2024-06-24_11h47.16.877,LearnStrategy,2023.2.3,Win32,60.24096386,3,1,4,-0.028645833,0.009114583,1,0,0,1.3324,rock_grid_rect_2,1,06,-1,-1,1.332,-0.399739583,-0.259114583,1,0,0,4.476,Andesite_rect,1,4.476,1,3,0,3,0,1,,,,,,,,,,,,,
664cf412f465d48105837dac,TCN,2024-06-24_11h47.16.877,LearnStrategy,2023.2.3,Win32,60.24096386,3,1,5,-0.095052083,0.00390625,1,0,0,1.0314,rock_grid_rect_2,6,07,-1,-1,1.031,-0.115885417,-0.395833333,1,0,0,1.5716,Pegmatite_rect,6,1.572,1,4,0,4,0,1,,,,,,,,,,,,,
664cf412f465d48105837dac,TCN,2024-06-24_11h47.16.877,LearnStrategy,2023.2.3,Win32,60.24096386,3,1,6,-0.126302083,0.010416667,1,0,0,1.1117,rock_grid_rect_2,4,14,-1,-1,1.112,-0.109375,-0.236979167,1,0,0,1.7297,Basalt_rect,2,1.73,0,5,0,5,0,1,,,,,,,,,,,,,
664cf412f465d48105837dac,TCN,2024-06-24_11h47.16.877,LearnStrategy,2023.2.3,Win32,60.24096386,3,1,7,-0.01171875,-0.009114583,1,0,0,1.0546,rock_grid_rect_2,1,14,-1,-1,1.055,0.151041667,-0.263020833,1,0,0,7.1129,Diorite_rect,3,7.113,0,6,0,6,0,1,,,,,,,,,,,,,
664cf412f465d48105837dac,TCN,2024-06-24_11h47.16.877,LearnStrategy,2023.2.3,Win32,60.24096386,3,1,8,0,-0.001302083,1,0,0,12.3294,rock_grid_rect_2,6,11,-1,-1,12.329,-0.34765625,-0.3828125,1,0,0,2.5706,Obsidian_rect,5,2.571,0,7,0,7,0,1,,,,,,,,,,,,,
664cf412f465d48105837dac,TCN,2024-06-24_11h47.16.877,LearnStrategy,2023.2.3,Win32,60.24096386,3,1,9,-0.049479167,-0.01171875,1,0,0,0.9452,rock_grid_rect_2,8,16,-1,-1,0.945,0.384114583,-0.411458333,1,0,0,1.6402,Pumice_rect,8,1.64,1,8,0,8,0,1,,,,,,,,,,,,,
664cf412f465d48105837dac,TCN,2024-06-24_11h47.16.877,LearnStrategy,2023.2.3,Win32,60.24096386,3,1,10,0,0.0078125,1,0,0,1.6115,rock_grid_rect_2,5,11,-1,-1,1.612,-0.337239583,-0.391927083,1,0,0,1.4682,Obsidian_rect,5,1.468,1,9,0,9,0,1,,,,,,,,,,,,,
664cf412f465d48105837dac,TCN,2024-06-24_11h47.16.877,LearnStrategy,2023.2.3,Win32,60.24096386,3,1,11,-0.010416667,0.014322917,1,0,0,0.9955,rock_grid_rect_2,7,05,-1,-1,0.995,-0.080729167,-0.263020833,1,0,0,1.6292,Basalt_rect,2,1.629,0,10,0,10,0,1,,,,,,,,,,,,,
664cf412f465d48105837dac,TCN,2024-06-24_11h47.16.877,LearnStrategy,2023.2.3,Win32,60.24096386,3,1,12,-0.013020833,-0.009114583,1,0,0,1.0324,rock_grid_rect_2,7,12,-1,-1,1.032,0.098958333,-0.243489583,1,0,0,2.6673,Diorite_rect,3,2.667,0,11,0,11,0,1,,,,,,,,,,,,,
664cf412f465d48105837dac,TCN,2024-06-24_11h47.16.877,LearnStrategy,2023.2.3,Win32,60.24096386,3,1,13,0.001302083,-0.01171875,1,0,0,1.627,rock_grid_rect_2,2,10,-1,-1,1.627,-0.104166667,-0.233072917,1,0,0,1.7395,Basalt_rect,2,1.739,1,12,0,12,0,1,,,,,,,,,,,,,
664cf412f465d48105837dac,TCN,2024-06-24_11h47.16.877,LearnStrategy,2023.2.3,Win32,60.24096386,3,1,14,-0.009114583,-0.016927083,1,0,0,1.1953,rock_grid_rect_2,5,07,-1,-1,1.195,-0.360677083,-0.407552083,1,0,0,2.2672,Obsidian_rect,5,2.267,1,13,0,13,0,1,,,,,,,,,,,,,
664cf412f465d48105837dac,TCN,2024-06-24_11h47.16.877,LearnStrategy,2023.2.3,Win32,60.24096386,3,1,15,-0.013020833,0.0078125,1,0,0,1.1825,rock_grid_rect_2,8,05,-1,-1,1.183,0.361979167,-0.391927083,1,0,0,1.4834,Pumice_rect,8,1.483,1,14,0,14,0,1,,,,,,,,,,,,,
664cf412f465d48105837dac,TCN,2024-06-24_11h47.16.877,LearnStrategy,2023.2.3,Win32,60.24096386,3,1,16,0.00390625,-0.00390625,1,0,0,0.9326,rock_grid_rect_2,2,02,-1,-1,0.933,-0.1484375,-0.240885417,1,0,0,1.4634,Basalt_rect,2,1.463,1,15,0,15,0,1,,,,,,,,,,,,,
664cf412f465d48105837dac,TCN,2024-06-24_11h47.16.877,LearnStrategy,2023.2.3,Win32,60.24096386,3,2,1,,,,,,,,7,06,,,,,,,,,,,3,13.898,0,,,,,,0.141927083,-0.244791667,1,0,0,13.8984,Diorite_rect,0,0,0,0,1,
664cf412f465d48105837dac,TCN,2024-06-24_11h47.16.877,LearnStrategy,2023.2.3,Win32,60.24096386,3,2,2,,,,,,,,8,04,,,,,,,,,,,8,1.337,1,,,,,,0.404947917,-0.411458333,1,0,0,1.3366,Pumice_rect,1,0,1,0,1,
664cf412f465d48105837dac,TCN,2024-06-24_11h47.16.877,LearnStrategy,2023.2.3,Win32,60.24096386,3,2,3,,,,,,,,3,09,,,,,,,,,,,3,2.229,1,,,,,,0.092447917,-0.256510417,1,0,0,2.2293,Diorite_rect,2,0,2,0,1,
664cf412f465d48105837dac,TCN,2024-06-24_11h47.16.877,LearnStrategy,2023.2.3,Win32,60.24096386,3,2,4,,,,,,,,2,06,,,,,,,,,,,2,1.526,1,,,,,,-0.16796875,-0.252604167,1,0,0,1.526,Basalt_rect,3,0,3,0,1,
664cf412f465d48105837dac,TCN,2024-06-24_11h47.16.877,LearnStrategy,2023.2.3,Win32,60.24096386,3,2,5,,,,,,,,6,15,,,,,,,,,,,4,2.916,0,,,,,,0.342447917,-0.268229167,1,0,0,2.9155,Gabbro_rect,4,0,4,0,1,
664cf412f465d48105837dac,TCN,2024-06-24_11h47.16.877,LearnStrategy,2023.2.3,Win32,60.24096386,3,2,6,,,,,,,,4,12,,,,,,,,,,,6,7.712,0,,,,,,-0.069010417,-0.41796875,1,0,0,7.7125,Pegmatite_rect,5,0,5,0,1,
664cf412f465d48105837dac,TCN,2024-06-24_11h47.16.877,LearnStrategy,2023.2.3,Win32,60.24096386,3,2,7,,,,,,,,1,04,,,,,,,,,,,1,2.222,1,,,,,,-0.346354167,-0.239583333,1,0,0,2.2217,Andesite_rect,6,0,6,0,1,
664cf412f465d48105837dac,TCN,2024-06-24_11h47.16.877,LearnStrategy,2023.2.3,Win32,60.24096386,3,2,8,,,,,,,,2,04,,,,,,,,,,,2,1.66,1,,,,,,-0.108072917,-0.266927083,1,0,0,1.6601,Basalt_rect,7,0,7,0,1,
664cf412f465d48105837dac,TCN,2024-06-24_11h47.16.877,LearnStrategy,2023.2.3,Win32,60.24096386,3,2,9,,,,,,,,5,09,,,,,,,,,,,5,1.057,1,,,,,,-0.33984375,-0.39453125,1,0,0,1.0568,Obsidian_rect,8,0,8,0,1,
664cf412f465d48105837dac,TCN,2024-06-24_11h47.16.877,LearnStrategy,2023.2.3,Win32,60.24096386,3,2,10,,,,,,,,1,11,,,,,,,,,,,6,14.322,0,,,,,,-0.151041667,-0.421875,1,0,0,14.3216,Pegmatite_rect,9,0,9,0,1,
664cf412f465d48105837dac,TCN,2024-06-24_11h47.16.877,LearnStrategy,2023.2.3,Win32,60.24096386,3,2,11,,,,,,,,8,10,,,,,,,,,,,8,2.456,1,,,,,,0.328125,-0.37890625,1,0,0,2.4556,Pumice_rect,10,0,10,0,1,
664cf412f465d48105837dac,TCN,2024-06-24_11h47.16.877,LearnStrategy,2023.2.3,Win32,60.24096386,3,2,12,,,,,,,,3,08,,,,,,,,,,,1,2.798,0,,,,,,-0.345052083,-0.26171875,1,0,0,2.7981,Andesite_rect,11,0,11,0,1,
664cf412f465d48105837dac,TCN,2024-06-24_11h47.16.877,LearnStrategy,2023.2.3,Win32,60.24096386,3,2,13,,,,,,,,6,13,,,,,,,,,,,6,4.369,1,,,,,,-0.11328125,-0.407552083,1,0,0,4.3689,Pegmatite_rect,12,0,12,0,1,
664cf412f465d48105837dac,TCN,2024-06-24_11h47.16.877,LearnStrategy,2023.2.3,Win32,60.24096386,3,2,14,,,,,,,,4,13,,,,,,,,,,,3,2.351,0,,,,,,0.08984375,-0.25,1,0,0,2.3514,Diorite_rect,13,0,13,0,1,
664cf412f465d48105837dac,TCN,2024-06-24_11h47.16.877,LearnStrategy,2023.2.3,Win32,60.24096386,3,2,15,,,,,,,,5,12,,,,,,,,,,,5,1.537,1,,,,,,-0.35546875,-0.397135417,1,0,0,1.5372,Obsidian_rect,14,0,14,0,1,
664cf412f465d48105837dac,TCN,2024-06-24_11h47.16.877,LearnStrategy,2023.2.3,Win32,60.24096386,3,2,16,,,,,,,,7,08,,,,,,,,,,,7,3.549,1,,,,,,0.053385417,-0.388020833,1,0,0,3.5488,Peridotite_rect,15,0,15,0,1,
664cf412f465d48105837dac,TCN,2024-06-24_11h47.16.877,LearnStrategy,2023.2.3,Win32,60.24096386,4,1,1,-0.024739583,0.005208333,1,0,0,1.7354,rock_grid_rect_2,4,03,-1,-1,1.735,-0.350260417,-0.255208333,1,0,0,9.4954,Andesite_rect,1,9.495,0,0,0,0,0,1,,,,,,,,,,,,,
664cf412f465d48105837dac,TCN,2024-06-24_11h47.16.877,LearnStrategy,2023.2.3,Win32,60.24096386,4,1,2,0.015625,0.0078125,1,0,0,1.2095,rock_grid_rect_2,2,02,-1,-1,1.209,-0.109375,-0.23828125,1,0,0,1.3716,Basalt_rect,2,1.372,1,1,0,1,0,1,,,,,,,,,,,,,
664cf412f465d48105837dac,TCN,2024-06-24_11h47.16.877,LearnStrategy,2023.2.3,Win32,60.24096386,4,1,3,-0.005208333,-0.015625,1,0,0,1.8621,rock_grid_rect_2,5,06,-1,-1,1.862,-0.365885417,-0.399739583,1,0,0,1.8783,Obsidian_rect,5,1.878,1,2,0,2,0,1,,,,,,,,,,,,,
664cf412f465d48105837dac,TCN,2024-06-24_11h47.16.877,LearnStrategy,2023.2.3,Win32,60.24096386,4,1,4,-0.033854167,-0.005208333,1,0,0,2.7305,rock_grid_rect_2,5,07,-1,-1,2.73,-0.376302083,-0.404947917,1,0,0,2.3023,Obsidian_rect,5,2.302,1,3,0,3,0,1,,,,,,,,,,,,,
664cf412f465d48105837dac,TCN,2024-06-24_11h47.16.877,LearnStrategy,2023.2.3,Win32,60.24096386,4,1,5,-0.032552083,0.001302083,1,0,0,1.9316,rock_grid_rect_2,3,02,-1,-1,1.932,-0.326822917,-0.252604167,1,0,0,1.9724,Andesite_rect,1,1.972,0,4,0,4,0,1,,,,,,,,,,,,,
664cf412f465d48105837dac,TCN,2024-06-24_11h47.16.877,LearnStrategy,2023.2.3,Win32,60.24096386,4,1,6,0.005208333,0.016927083,1,0,0,1.2447,rock_grid_rect_2,1,03,-1,-1,1.245,-0.119791667,-0.4140625,1,0,0,7.6995,Pegmatite_rect,6,7.7,0,5,0,5,0,1,,,,,,,,,,,,,
664cf412f465d48105837dac,TCN,2024-06-24_11h47.16.877,LearnStrategy,2023.2.3,Win32,60.24096386,4,1,7,-0.029947917,-0.00390625,1,0,0,1.1305,rock_grid_rect_2,3,16,-1,-1,1.131,0.072916667,-0.24609375,1,0,0,7.764,Diorite_rect,3,7.764,1,6,0,6,0,1,,,,,,,,,,,,,
664cf412f465d48105837dac,TCN,2024-06-24_11h47.16.877,LearnStrategy,2023.2.3,Win32,60.24096386,4,1,8,-0.020833333,-0.0078125,1,0,0,1.9797,rock_grid_rect_2,2,12,-1,-1,1.98,0.3359375,-0.388020833,1,0,0,2.193,Pumice_rect,8,2.193,0,7,0,7,0,1,,,,,,,,,,,,,
664cf412f465d48105837dac,TCN,2024-06-24_11h47.16.877,LearnStrategy,2023.2.3,Win32,60.24096386,4,1,9,-0.0078125,-0.018229167,1,0,0,1.3947,rock_grid_rect_2,8,16,-1,-1,1.395,0.303385417,-0.3984375,1,0,0,1.5573,Pumice_rect,8,1.557,1,8,0,8,0,1,,,,,,,,,,,,,
664cf412f465d48105837dac,TCN,2024-06-24_11h47.16.877,LearnStrategy,2023.2.3,Win32,60.24096386,4,1,10,0.006510417,-0.024739583,1,0,0,1.1688,rock_grid_rect_2,7,12,-1,-1,1.169,0.106770833,-0.411458333,1,0,0,2.5106,Peridotite_rect,7,2.511,1,9,0,9,0,1,,,,,,,,,,,,,
664cf412f465d48105837dac,TCN,2024-06-24_11h47.16.877,LearnStrategy,2023.2.3,Win32,60.24096386,4,1,11,-0.0546875,-0.01171875,1,0,0,2.0273,rock_grid_rect_2,4,11,-1,-1,2.027,-0.098958333,-0.265625,1,0,0,1.2714,Basalt_rect,2,1.271,0,10,0,10,0,1,,,,,,,,,,,,,
664cf412f465d48105837dac,TCN,2024-06-24_11h47.16.877,LearnStrategy,2023.2.3,Win32,60.24096386,4,1,12,-0.05078125,0.01953125,1,0,0,1.2952,rock_grid_rect_2,7,05,-1,-1,1.295,-0.149739583,-0.4140625,1,0,0,2.3432,Pegmatite_rect,6,2.343,0,11,0,11,0,1,,,,,,,,,,,,,
664cf412f465d48105837dac,TCN,2024-06-24_11h47.16.877,LearnStrategy,2023.2.3,Win32,60.24096386,4,1,13,-0.018229167,-0.001302083,1,0,0,1.7147,rock_grid_rect_2,6,06,-1,-1,1.715,0.09375,-0.234375,1,0,0,2.9589,Diorite_rect,3,2.959,0,12,0,12,0,1,,,,,,,,,,,,,
664cf412f465d48105837dac,TCN,2024-06-24_11h47.16.877,LearnStrategy,2023.2.3,Win32,60.24096386,4,1,14,0.001302083,0.016927083,1,0,0,1.7286,rock_grid_rect_2,6,11,-1,-1,1.729,-0.393229167,-0.233072917,1,0,0,5.4009,Andesite_rect,1,5.401,0,13,0,13,0,1,,,,,,,,,,,,,
664cf412f465d48105837dac,TCN,2024-06-24_11h47.16.877,LearnStrategy,2023.2.3,Win32,60.24096386,4,1,15,-0.04296875,-0.002604167,1,0,0,1.5587,rock_grid_rect_2,8,06,-1,-1,1.559,0.360677083,-0.412760417,1,0,0,3.5173,Pumice_rect,8,3.517,1,14,0,14,0,1,,,,,,,,,,,,,
664cf412f465d48105837dac,TCN,2024-06-24_11h47.16.877,LearnStrategy,2023.2.3,Win32,60.24096386,4,1,16,-0.0078125,0,1,0,0,1.2257,rock_grid_rect_2,1,02,-1,-1,1.226,0.1171875,-0.268229167,1,0,0,2.4601,Diorite_rect,3,2.46,0,15,0,15,0,1,,,,,,,,,,,,,
664cf412f465d48105837dac,TCN,2024-06-24_11h47.16.877,LearnStrategy,2023.2.3,Win32,60.24096386,4,2,1,,,,,,,,2,05,,,,,,,,,,,2,2.653,1,,,,,,-0.12109375,-0.2421875,1,0,0,2.6533,Basalt_rect,0,0,0,0,1,
664cf412f465d48105837dac,TCN,2024-06-24_11h47.16.877,LearnStrategy,2023.2.3,Win32,60.24096386,4,2,2,,,,,,,,4,01,,,,,,,,,,,7,1.992,0,,,,,,0.0859375,-0.4140625,1,0,0,1.9922,Peridotite_rect,1,0,1,0,1,
664cf412f465d48105837dac,TCN,2024-06-24_11h47.16.877,LearnStrategy,2023.2.3,Win32,60.24096386,4,2,3,,,,,,,,3,11,,,,,,,,,,,1,2.24,0,,,,,,-0.376302083,-0.2578125,1,0,0,2.2402,Andesite_rect,2,0,2,0,1,
664cf412f465d48105837dac,TCN,2024-06-24_11h47.16.877,LearnStrategy,2023.2.3,Win32,60.24096386,4,2,4,,,,,,,,7,14,,,,,,,,,,,7,3.362,1,,,,,,0.106770833,-0.412760417,1,0,0,3.3617,Peridotite_rect,3,0,3,0,1,
664cf412f465d48105837dac,TCN,2024-06-24_11h47.16.877,LearnStrategy,2023.2.3,Win32,60.24096386,4,2,5,,,,,,,,3,13,,,,,,,,,,,6,1.186,0,,,,,,-0.096354167,-0.399739583,1,0,0,1.1861,Pegmatite_rect,4,0,4,0,1,
664cf412f465d48105837dac,TCN,2024-06-24_11h47.16.877,LearnStrategy,2023.2.3,Win32,60.24096386,4,2,6,,,,,,,,4,09,,,,,,,,,,,4,5.191,1,,,,,,0.325520833,-0.25,1,0,0,5.1912,Gabbro_rect,5,0,5,0,1,
664cf412f465d48105837dac,TCN,2024-06-24_11h47.16.877,LearnStrategy,2023.2.3,Win32,60.24096386,4,2,7,,,,,,,,1,04,,,,,,,,,,,2,2.136,0,,,,,,-0.10546875,-0.259114583,1,0,0,2.1359,Basalt_rect,6,0,6,0,1,
664cf412f465d48105837dac,TCN,2024-06-24_11h47.16.877,LearnStrategy,2023.2.3,Win32,60.24096386,4,2,8,,,,,,,,6,09,,,,,,,,,,,6,4.864,1,,,,,,-0.118489583,-0.388020833,1,0,0,4.8636,Pegmatite_rect,7,0,7,0,1,
664cf412f465d48105837dac,TCN,2024-06-24_11h47.16.877,LearnStrategy,2023.2.3,Win32,60.24096386,4,2,9,,,,,,,,8,10,,,,,,,,,,,8,2.087,1,,,,,,0.348958333,-0.39453125,1,0,0,2.0869,Pumice_rect,8,0,8,0,1,
664cf412f465d48105837dac,TCN,2024-06-24_11h47.16.877,LearnStrategy,2023.2.3,Win32,60.24096386,4,2,10,,,,,,,,1,05,,,,,,,,,,,1,6.228,1,,,,,,-0.40234375,-0.25,1,0,0,6.228,Andesite_rect,9,0,9,0,1,
664cf412f465d48105837dac,TCN,2024-06-24_11h47.16.877,LearnStrategy,2023.2.3,Win32,60.24096386,4,2,11,,,,,,,,5,12,,,,,,,,,,,5,1.649,1,,,,,,-0.372395833,-0.397135417,1,0,0,1.6493,Obsidian_rect,10,0,10,0,1,
664cf412f465d48105837dac,TCN,2024-06-24_11h47.16.877,LearnStrategy,2023.2.3,Win32,60.24096386,4,2,12,,,,,,,,6,15,,,,,,,,,,,6,5.079,1,,,,,,-0.158854167,-0.403645833,1,0,0,5.0785,Pegmatite_rect,11,0,11,0,1,
664cf412f465d48105837dac,TCN,2024-06-24_11h47.16.877,LearnStrategy,2023.2.3,Win32,60.24096386,4,2,13,,,,,,,,8,09,,,,,,,,,,,8,2.103,1,,,,,,0.40234375,-0.408854167,1,0,0,2.1028,Pumice_rect,12,0,12,0,1,
664cf412f465d48105837dac,TCN,2024-06-24_11h47.16.877,LearnStrategy,2023.2.3,Win32,60.24096386,4,2,14,,,,,,,,7,04,,,,,,,,,,,3,5.12,0,,,,,,0.140625,-0.25,1,0,0,5.1205,Diorite_rect,13,0,13,0,1,
664cf412f465d48105837dac,TCN,2024-06-24_11h47.16.877,LearnStrategy,2023.2.3,Win32,60.24096386,4,2,15,,,,,,,,5,09,,,,,,,,,,,5,1.776,1,,,,,,-0.35546875,-0.421875,1,0,0,1.7757,Obsidian_rect,14,0,14,0,1,
664cf412f465d48105837dac,TCN,2024-06-24_11h47.16.877,LearnStrategy,2023.2.3,Win32,60.24096386,4,2,16,,,,,,,,2,06,,,,,,,,,,,2,2.581,1,,,,,,-0.122395833,-0.236979167,1,0,0,2.5808,Basalt_rect,15,0,15,0,1,
664cf412f465d48105837dac,TCN,2024-06-24_11h47.16.877,LearnStrategy,2023.2.3,Win32,60.24096386,5,1,1,0.02734375,0.0078125,1,0,0,3.3583,rock_grid_rect_2,7,10,-1,-1,3.358,-0.098958333,-0.390625,1,0,0,2.5835,Pegmatite_rect,6,2.583,0,0,0,0,0,1,,,,,,,,,,,,,
664cf412f465d48105837dac,TCN,2024-06-24_11h47.16.877,LearnStrategy,2023.2.3,Win32,60.24096386,5,1,2,-0.009114583,-0.009114583,1,0,0,1.5624,rock_grid_rect_2,1,10,-1,-1,1.562,-0.1015625,-0.251302083,1,0,0,1.748,Basalt_rect,2,1.748,0,1,0,1,0,1,,,,,,,,,,,,,
664cf412f465d48105837dac,TCN,2024-06-24_11h47.16.877,LearnStrategy,2023.2.3,Win32,60.24096386,5,1,3,-0.001302083,-0.013020833,1,0,0,0.9479,rock_grid_rect_2,8,13,-1,-1,0.948,0.3671875,-0.2578125,1,0,0,2.9404,Gabbro_rect,4,2.94,0,2,0,2,0,1,,,,,,,,,,,,,
664cf412f465d48105837dac,TCN,2024-06-24_11h47.16.877,LearnStrategy,2023.2.3,Win32,60.24096386,5,1,4,0.0078125,-0.006510417,1,0,0,0.8621,rock_grid_rect_2,7,15,-1,-1,0.862,0.126302083,-0.3828125,1,0,0,1.934,Peridotite_rect,7,1.934,1,3,0,3,0,1,,,,,,,,,,,,,
664cf412f465d48105837dac,TCN,2024-06-24_11h47.16.877,LearnStrategy,2023.2.3,Win32,60.24096386,5,1,5,-0.028645833,-0.01171875,1,0,0,1.461,rock_grid_rect_2,4,05,-1,-1,1.461,-0.196614583,-0.403645833,1,0,0,5.4973,Pegmatite_rect,6,5.497,0,4,0,4,0,1,,,,,,,,,,,,,
664cf412f465d48105837dac,TCN,2024-06-24_11h47.16.877,LearnStrategy,2023.2.3,Win32,60.24096386,5,1,6,0.108072917,0.00390625,1,0,0,1.1429,rock_grid_rect_2,8,05,-1,-1,1.143,0.325520833,-0.3984375,1,0,0,1.7117,Pumice_rect,8,1.712,1,5,0,5,0,1,,,,,,,,,,,,,
664cf412f465d48105837dac,TCN,2024-06-24_11h47.16.877,LearnStrategy,2023.2.3,Win32,60.24096386,5,1,7,-0.002604167,-0.00390625,1,0,0,1.63,rock_grid_rect_2,5,02,-1,-1,1.63,-0.432291667,-0.395833333,1,0,0,1.9114,Obsidian_rect,5,1.911,1,6,0,6,0,1,,,,,,,,,,,,,
664cf412f465d48105837dac,TCN,2024-06-24_11h47.16.877,LearnStrategy,2023.2.3,Win32,60.24096386,5,1,8,0.009114583,-0.014322917,1,0,0,0.846,rock_grid_rect_2,5,11,-1,-1,0.846,-0.390625,-0.397135417,1,0,0,1.7884,Obsidian_rect,5,1.788,1,7,0,7,0,1,,,,,,,,,,,,,
664cf412f465d48105837dac,TCN,2024-06-24_11h47.16.877,LearnStrategy,2023.2.3,Win32,60.24096386,5,1,9,0.005208333,0.01171875,1,0,0,0.845,rock_grid_rect_2,2,14,-1,-1,0.845,-0.095052083,-0.263020833,1,0,0,2.3673,Basalt_rect,2,2.367,1,8,0,8,0,1,,,,,,,,,,,,,
664cf412f465d48105837dac,TCN,2024-06-24_11h47.16.877,LearnStrategy,2023.2.3,Win32,60.24096386,5,1,10,-0.00390625,-0.009114583,1,0,0,0.846,rock_grid_rect_2,3,12,-1,-1,0.846,0.143229167,-0.391927083,1,0,0,2.4704,Peridotite_rect,7,2.47,0,9,0,9,0,1,,,,,,,,,,,,,
664cf412f465d48105837dac,TCN,2024-06-24_11h47.16.877,LearnStrategy,2023.2.3,Win32,60.24096386,5,1,11,-0.010416667,-0.013020833,1,0,0,1.2276,rock_grid_rect_2,3,07,-1,-1,1.228,0.14453125,-0.24609375,1,0,0,2.0964,Diorite_rect,3,2.096,1,10,0,10,0,1,,,,,,,,,,,,,
664cf412f465d48105837dac,TCN,2024-06-24_11h47.16.877,LearnStrategy,2023.2.3,Win32,60.24096386,5,1,12,-0.00390625,0.00390625,1,0,0,1.0996,rock_grid_rect_2,2,10,-1,-1,1.1,-0.092447917,-0.255208333,1,0,0,1.6077,Basalt_rect,2,1.608,1,11,0,11,0,1,,,,,,,,,,,,,
664cf412f465d48105837dac,TCN,2024-06-24_11h47.16.877,LearnStrategy,2023.2.3,Win32,60.24096386,5,1,13,0.0078125,-0.006510417,1,0,0,1.0792,rock_grid_rect_2,1,14,-1,-1,1.079,-0.341145833,-0.248697917,1,0,0,3.4132,Andesite_rect,1,3.413,1,12,0,12,0,1,,,,,,,,,,,,,
664cf412f465d48105837dac,TCN,2024-06-24_11h47.16.877,LearnStrategy,2023.2.3,Win32,60.24096386,5,1,14,-0.002604167,-0.013020833,1,0,0,1.4287,rock_grid_rect_2,6,10,-1,-1,1.429,0.071614583,-0.38671875,1,0,0,2.9211,Peridotite_rect,7,2.921,0,13,0,13,0,1,,,,,,,,,,,,,
664cf412f465d48105837dac,TCN,2024-06-24_11h47.16.877,LearnStrategy,2023.2.3,Win32,60.24096386,5,1,15,-0.013020833,0.010416667,1,0,0,1.4311,rock_grid_rect_2,6,03,-1,-1,1.431,-0.11328125,-0.399739583,1,0,0,1.7835,Pegmatite_rect,6,1.784,1,14,0,14,0,1,,,,,,,,,,,,,
664cf412f465d48105837dac,TCN,2024-06-24_11h47.16.877,LearnStrategy,2023.2.3,Win32,60.24096386,5,1,16,-0.03125,0.014322917,1,0,0,1.1819,rock_grid_rect_2,4,14,-1,-1,1.182,0.350260417,-0.264322917,1,0,0,2.6861,Gabbro_rect,4,2.686,1,15,0,15,0,1,,,,,,,,,,,,,
664cf412f465d48105837dac,TCN,2024-06-24_11h47.16.877,LearnStrategy,2023.2.3,Win32,60.24096386,5,2,1,,,,,,,,1,11,,,,,,,,,,,1,6.571,1,,,,,,-0.385416667,-0.239583333,1,0,0,6.5705,Andesite_rect,0,0,0,0,1,
664cf412f465d48105837dac,TCN,2024-06-24_11h47.16.877,LearnStrategy,2023.2.3,Win32,60.24096386,5,2,2,,,,,,,,1,07,,,,,,,,,,,3,3.304,0,,,,,,0.149739583,-0.248697917,1,0,0,3.3043,Diorite_rect,1,0,1,0,1,
664cf412f465d48105837dac,TCN,2024-06-24_11h47.16.877,LearnStrategy,2023.2.3,Win32,60.24096386,5,2,3,,,,,,,,7,07,,,,,,,,,,,4,3.074,0,,,,,,0.34765625,-0.252604167,1,0,0,3.0742,Gabbro_rect,2,0,2,0,1,
664cf412f465d48105837dac,TCN,2024-06-24_11h47.16.877,LearnStrategy,2023.2.3,Win32,60.24096386,5,2,4,,,,,,,,5,04,,,,,,,,,,,5,1.679,1,,,,,,-0.403645833,-0.395833333,1,0,0,1.6786,Obsidian_rect,3,0,3,0,1,
664cf412f465d48105837dac,TCN,2024-06-24_11h47.16.877,LearnStrategy,2023.2.3,Win32,60.24096386,5,2,5,,,,,,,,6,13,,,,,,,,,,,6,7.238,1,,,,,,-0.123697917,-0.416666667,1,0,0,7.2383,Pegmatite_rect,4,0,4,0,1,
664cf412f465d48105837dac,TCN,2024-06-24_11h47.16.877,LearnStrategy,2023.2.3,Win32,60.24096386,5,2,6,,,,,,,,7,08,,,,,,,,,,,7,1.731,1,,,,,,0.123697917,-0.384114583,1,0,0,1.7307,Peridotite_rect,5,0,5,0,1,
664cf412f465d48105837dac,TCN,2024-06-24_11h47.16.877,LearnStrategy,2023.2.3,Win32,60.24096386,5,2,7,,,,,,,,2,16,,,,,,,,,,,4,2.724,0,,,,,,0.3671875,-0.259114583,1,0,0,2.724,Gabbro_rect,6,0,6,0,1,
664cf412f465d48105837dac,TCN,2024-06-24_11h47.16.877,LearnStrategy,2023.2.3,Win32,60.24096386,5,2,8,,,,,,,,8,08,,,,,,,,,,,8,1.496,1,,,,,,0.37890625,-0.415364583,1,0,0,1.4962,Pumice_rect,7,0,7,0,1,
664cf412f465d48105837dac,TCN,2024-06-24_11h47.16.877,LearnStrategy,2023.2.3,Win32,60.24096386,5,2,9,,,,,,,,5,10,,,,,,,,,,,5,1.538,1,,,,,,-0.436197917,-0.391927083,1,0,0,1.5381,Obsidian_rect,8,0,8,0,1,
664cf412f465d48105837dac,TCN,2024-06-24_11h47.16.877,LearnStrategy,2023.2.3,Win32,60.24096386,5,2,10,,,,,,,,8,04,,,,,,,,,,,8,1.555,1,,,,,,0.372395833,-0.397135417,1,0,0,1.5549,Pumice_rect,9,0,9,0,1,
664cf412f465d48105837dac,TCN,2024-06-24_11h47.16.877,LearnStrategy,2023.2.3,Win32,60.24096386,5,2,11,,,,,,,,4,13,,,,,,,,,,,4,3.119,1,,,,,,0.420572917,-0.26953125,1,0,0,3.1185,Gabbro_rect,10,0,10,0,1,
664cf412f465d48105837dac,TCN,2024-06-24_11h47.16.877,LearnStrategy,2023.2.3,Win32,60.24096386,5,2,12,,,,,,,,3,10,,,,,,,,,,,7,2.587,0,,,,,,0.095052083,-0.395833333,1,0,0,2.5871,Peridotite_rect,11,0,11,0,1,
664cf412f465d48105837dac,TCN,2024-06-24_11h47.16.877,LearnStrategy,2023.2.3,Win32,60.24096386,5,2,13,,,,,,,,2,01,,,,,,,,,,,2,1.865,1,,,,,,-0.125,-0.244791667,1,0,0,1.8651,Basalt_rect,12,0,12,0,1,
664cf412f465d48105837dac,TCN,2024-06-24_11h47.16.877,LearnStrategy,2023.2.3,Win32,60.24096386,5,2,14,,,,,,,,4,10,,,,,,,,,,,1,3.593,0,,,,,,-0.3203125,-0.251302083,1,0,0,3.5926,Andesite_rect,13,0,13,0,1,
664cf412f465d48105837dac,TCN,2024-06-24_11h47.16.877,LearnStrategy,2023.2.3,Win32,60.24096386,5,2,15,,,,,,,,6,05,,,,,,,,,,,6,4.104,1,,,,,,-0.171875,-0.397135417,1,0,0,4.1045,Pegmatite_rect,14,0,14,0,1,
664cf412f465d48105837dac,TCN,2024-06-24_11h47.16.877,LearnStrategy,2023.2.3,Win32,60.24096386,5,2,16,,,,,,,,3,08,,,,,,,,,,,3,2.747,1,,,,,,0.135416667,-0.264322917,1,0,0,2.7475,Diorite_rect,15,0,15,0,1,
664cf412f465d48105837dac,TCN,2024-06-24_11h47.16.877,LearnStrategy,2023.2.3,Win32,60.24096386,6,1,1,-0.006510417,-0.002604167,1,0,0,1.9271,rock_grid_rect_2,2,09,-1,-1,1.927,-0.087239583,-0.259114583,1,0,0,2.1709,Basalt_rect,2,2.171,1,0,0,0,0,1,,,,,,,,,,,,,
664cf412f465d48105837dac,TCN,2024-06-24_11h47.16.877,LearnStrategy,2023.2.3,Win32,60.24096386,6,1,2,-0.065104167,0.014322917,1,0,0,1.1117,rock_grid_rect_2,4,16,-1,-1,1.112,0.364583333,-0.263020833,1,0,0,1.9564,Gabbro_rect,4,1.956,1,1,0,1,0,1,,,,,,,,,,,,,
664cf412f465d48105837dac,TCN,2024-06-24_11h47.16.877,LearnStrategy,2023.2.3,Win32,60.24096386,6,1,3,-0.02734375,-0.002604167,1,0,0,2.2272,rock_grid_rect_2,6,12,-1,-1,2.227,0.149739583,-0.260416667,1,0,0,1.7901,Diorite_rect,3,1.79,0,2,0,2,0,1,,,,,,,,,,,,,
664cf412f465d48105837dac,TCN,2024-06-24_11h47.16.877,LearnStrategy,2023.2.3,Win32,60.24096386,6,1,4,-0.0390625,0.010416667,1,0,0,2.8098,rock_grid_rect_2,3,14,-1,-1,2.81,0.143229167,-0.2421875,1,0,0,1.1797,Diorite_rect,3,1.18,1,3,0,3,0,1,,,,,,,,,,,,,
664cf412f465d48105837dac,TCN,2024-06-24_11h47.16.877,LearnStrategy,2023.2.3,Win32,60.24096386,6,1,5,-0.033854167,-0.00390625,1,0,0,1.5184,rock_grid_rect_2,2,08,-1,-1,1.518,-0.10546875,-0.263020833,1,0,0,1.4021,Basalt_rect,2,1.402,1,4,0,4,0,1,,,,,,,,,,,,,
664cf412f465d48105837dac,TCN,2024-06-24_11h47.16.877,LearnStrategy,2023.2.3,Win32,60.24096386,6,1,6,-0.01953125,-0.001302083,1,0,0,1.1119,rock_grid_rect_2,3,06,-1,-1,1.112,-0.12109375,-0.41015625,1,0,0,1.9437,Pegmatite_rect,6,1.944,0,5,0,5,0,1,,,,,,,,,,,,,
664cf412f465d48105837dac,TCN,2024-06-24_11h47.16.877,LearnStrategy,2023.2.3,Win32,60.24096386,6,1,7,-0.033854167,-0.010416667,1,0,0,0.8148,rock_grid_rect_2,1,06,-1,-1,0.815,-0.07421875,-0.388020833,1,0,0,2.1802,Pegmatite_rect,6,2.18,0,6,0,6,0,1,,,,,,,,,,,,,
664cf412f465d48105837dac,TCN,2024-06-24_11h47.16.877,LearnStrategy,2023.2.3,Win32,60.24096386,6,1,8,0.0078125,-0.001302083,1,0,0,1.6608,rock_grid_rect_2,7,13,-1,-1,1.661,0.123697917,-0.380208333,1,0,0,1.4316,Peridotite_rect,7,1.432,1,7,0,7,0,1,,,,,,,,,,,,,
664cf412f465d48105837dac,TCN,2024-06-24_11h47.16.877,LearnStrategy,2023.2.3,Win32,60.24096386,6,1,9,0.020833333,-0.014322917,1,0,0,1.0791,rock_grid_rect_2,5,16,-1,-1,1.079,-0.354166667,-0.38671875,1,0,0,1.4803,Obsidian_rect,5,1.48,1,8,0,8,0,1,,,,,,,,,,,,,
664cf412f465d48105837dac,TCN,2024-06-24_11h47.16.877,LearnStrategy,2023.2.3,Win32,60.24096386,6,1,10,0.026041667,0.002604167,1,0,0,1.1327,rock_grid_rect_2,5,14,-1,-1,1.133,-0.388020833,-0.401041667,1,0,0,2.1357,Obsidian_rect,5,2.136,1,9,0,9,0,1,,,,,,,,,,,,,
664cf412f465d48105837dac,TCN,2024-06-24_11h47.16.877,LearnStrategy,2023.2.3,Win32,60.24096386,6,1,11,-0.0078125,-0.001302083,1,0,0,1.5318,rock_grid_rect_2,8,02,-1,-1,1.532,0.338541667,-0.380208333,1,0,0,2.6253,Pumice_rect,8,2.625,1,10,0,10,0,1,,,,,,,,,,,,,
664cf412f465d48105837dac,TCN,2024-06-24_11h47.16.877,LearnStrategy,2023.2.3,Win32,60.24096386,6,1,12,0.005208333,-0.014322917,1,0,0,1.8782,rock_grid_rect_2,4,08,-1,-1,1.878,-0.334635417,-0.23828125,1,0,0,3.1812,Andesite_rect,1,3.181,0,11,0,11,0,1,,,,,,,,,,,,,
664cf412f465d48105837dac,TCN,2024-06-24_11h47.16.877,LearnStrategy,2023.2.3,Win32,60.24096386,6,1,13,0,-0.016927083,1,0,0,0.9459,rock_grid_rect_2,7,16,-1,-1,0.946,0.08203125,-0.3984375,1,0,0,1.6108,Peridotite_rect,7,1.611,1,12,0,12,0,1,,,,,,,,,,,,,
664cf412f465d48105837dac,TCN,2024-06-24_11h47.16.877,LearnStrategy,2023.2.3,Win32,60.24096386,6,1,14,-0.020833333,0.006510417,1,0,0,1.1492,rock_grid_rect_2,1,16,-1,-1,1.149,-0.3515625,-0.263020833,1,0,0,4.0845,Andesite_rect,1,4.085,1,13,0,13,0,1,,,,,,,,,,,,,
664cf412f465d48105837dac,TCN,2024-06-24_11h47.16.877,LearnStrategy,2023.2.3,Win32,60.24096386,6,1,15,0.024739583,0.005208333,1,0,0,1.5762,rock_grid_rect_2,8,15,-1,-1,1.576,0.345052083,-0.2578125,1,0,0,2.9696,Gabbro_rect,4,2.97,0,14,0,14,0,1,,,,,,,,,,,,,
664cf412f465d48105837dac,TCN,2024-06-24_11h47.16.877,LearnStrategy,2023.2.3,Win32,60.24096386,6,1,16,-0.013020833,-0.005208333,1,0,0,2.7263,rock_grid_rect_2,6,07,-1,-1,2.726,-0.126302083,-0.411458333,1,0,0,2.3503,Pegmatite_rect,6,2.35,1,15,0,15,0,1,,,,,,,,,,,,,
664cf412f465d48105837dac,TCN,2024-06-24_11h47.16.877,LearnStrategy,2023.2.3,Win32,60.24096386,6,2,1,,,,,,,,6,08,,,,,,,,,,,6,1.616,1,,,,,,-0.145833333,-0.403645833,1,0,0,1.6161,Pegmatite_rect,0,0,0,0,1,
664cf412f465d48105837dac,TCN,2024-06-24_11h47.16.877,LearnStrategy,2023.2.3,Win32,60.24096386,6,2,2,,,,,,,,3,15,,,,,,,,,,,3,4.947,1,,,,,,0.125,-0.266927083,1,0,0,4.9475,Diorite_rect,1,0,1,0,1,
664cf412f465d48105837dac,TCN,2024-06-24_11h47.16.877,LearnStrategy,2023.2.3,Win32,60.24096386,6,2,3,,,,,,,,6,16,,,,,,,,,,,6,1.448,1,,,,,,-0.1015625,-0.395833333,1,0,0,1.4477,Pegmatite_rect,2,0,2,0,1,
664cf412f465d48105837dac,TCN,2024-06-24_11h47.16.877,LearnStrategy,2023.2.3,Win32,60.24096386,6,2,4,,,,,,,,1,01,,,,,,,,,,,3,5.027,0,,,,,,0.143229167,-0.256510417,1,0,0,5.027,Diorite_rect,3,0,3,0,1,
664cf412f465d48105837dac,TCN,2024-06-24_11h47.16.877,LearnStrategy,2023.2.3,Win32,60.24096386,6,2,5,,,,,,,,4,15,,,,,,,,,,,4,5.134,1,,,,,,0.3984375,-0.265625,1,0,0,5.1338,Gabbro_rect,4,0,4,0,1,
664cf412f465d48105837dac,TCN,2024-06-24_11h47.16.877,LearnStrategy,2023.2.3,Win32,60.24096386,6,2,6,,,,,,,,8,14,,,,,,,,,,,8,1.207,1,,,,,,0.345052083,-0.390625,1,0,0,1.207,Pumice_rect,5,0,5,0,1,
664cf412f465d48105837dac,TCN,2024-06-24_11h47.16.877,LearnStrategy,2023.2.3,Win32,60.24096386,6,2,7,,,,,,,,7,06,,,,,,,,,,,6,1.454,0,,,,,,-0.123697917,-0.401041667,1,0,0,1.4539,Pegmatite_rect,6,0,6,0,1,
664cf412f465d48105837dac,TCN,2024-06-24_11h47.16.877,LearnStrategy,2023.2.3,Win32,60.24096386,6,2,8,,,,,,,,7,02,,,,,,,,,,,7,1.428,1,,,,,,0.118489583,-0.4140625,1,0,0,1.4285,Peridotite_rect,7,0,7,0,1,
664cf412f465d48105837dac,TCN,2024-06-24_11h47.16.877,LearnStrategy,2023.2.3,Win32,60.24096386,6,2,9,,,,,,,,2,11,,,,,,,,,,,4,3.476,0,,,,,,0.368489583,-0.235677083,1,0,0,3.4756,Gabbro_rect,8,0,8,0,1,
664cf412f465d48105837dac,TCN,2024-06-24_11h47.16.877,LearnStrategy,2023.2.3,Win32,60.24096386,6,2,10,,,,,,,,4,12,,,,,,,,,,,2,2.277,0,,,,,,-0.13671875,-0.25,1,0,0,2.2774,Basalt_rect,9,0,9,0,1,
664cf412f465d48105837dac,TCN,2024-06-24_11h47.16.877,LearnStrategy,2023.2.3,Win32,60.24096386,6,2,11,,,,,,,,8,03,,,,,,,,,,,8,1.578,1,,,,,,0.319010417,-0.380208333,1,0,0,1.5775,Pumice_rect,10,0,10,0,1,
664cf412f465d48105837dac,TCN,2024-06-24_11h47.16.877,LearnStrategy,2023.2.3,Win32,60.24096386,6,2,12,,,,,,,,3,09,,,,,,,,,,,3,1.413,1,,,,,,0.15234375,-0.24609375,1,0,0,1.4128,Diorite_rect,11,0,11,0,1,
664cf412f465d48105837dac,TCN,2024-06-24_11h47.16.877,LearnStrategy,2023.2.3,Win32,60.24096386,6,2,13,,,,,,,,2,04,,,,,,,,,,,2,1.935,1,,,,,,-0.10546875,-0.235677083,1,0,0,1.9349,Basalt_rect,12,0,12,0,1,
664cf412f465d48105837dac,TCN,2024-06-24_11h47.16.877,LearnStrategy,2023.2.3,Win32,60.24096386,6,2,14,,,,,,,,5,08,,,,,,,,,,,5,1.641,1,,,,,,-0.376302083,-0.39453125,1,0,0,1.6408,Obsidian_rect,13,0,13,0,1,
664cf412f465d48105837dac,TCN,2024-06-24_11h47.16.877,LearnStrategy,2023.2.3,Win32,60.24096386,6,2,15,,,,,,,,1,09,,,,,,,,,,,2,1.812,0,,,,,,-0.100260417,-0.255208333,1,0,0,1.8117,Basalt_rect,14,0,14,0,1,
664cf412f465d48105837dac,TCN,2024-06-24_11h47.16.877,LearnStrategy,2023.2.3,Win32,60.24096386,6,2,16,,,,,,,,5,05,,,,,,,,,,,5,2.891,1,,,,,,-0.364583333,-0.393229167,1,0,0,2.8908,Obsidian_rect,15,0,15,0,1,
664cf412f465d48105837dac,TCN,2024-06-24_11h47.16.877,LearnStrategy,2023.2.3,Win32,60.24096386,7,1,1,0.01171875,0.016927083,1,0,0,1.1608,rock_grid_rect_2,7,05,-1,-1,1.161,0.12109375,-0.412760417,1,0,0,2.6439,Peridotite_rect,7,2.644,1,0,0,0,0,1,,,,,,,,,,,,,
664cf412f465d48105837dac,TCN,2024-06-24_11h47.16.877,LearnStrategy,2023.2.3,Win32,60.24096386,7,1,2,0.009114583,-0.002604167,1,0,0,2.1142,rock_grid_rect_2,5,07,-1,-1,2.114,-0.356770833,-0.407552083,1,0,0,2.0041,Obsidian_rect,5,2.004,1,1,0,1,0,1,,,,,,,,,,,,,
664cf412f465d48105837dac,TCN,2024-06-24_11h47.16.877,LearnStrategy,2023.2.3,Win32,60.24096386,7,1,3,-0.01171875,-0.01171875,1,0,0,1.2788,rock_grid_rect_2,1,16,-1,-1,1.279,-0.395833333,-0.264322917,1,0,0,1.5811,Andesite_rect,1,1.581,1,2,0,2,0,1,,,,,,,,,,,,,
664cf412f465d48105837dac,TCN,2024-06-24_11h47.16.877,LearnStrategy,2023.2.3,Win32,60.24096386,7,1,4,-0.006510417,0.018229167,1,0,0,2.5468,rock_grid_rect_2,7,15,-1,-1,2.547,0.110677083,-0.41015625,1,0,0,1.7684,Peridotite_rect,7,1.768,1,3,0,3,0,1,,,,,,,,,,,,,
664cf412f465d48105837dac,TCN,2024-06-24_11h47.16.877,LearnStrategy,2023.2.3,Win32,60.24096386,7,1,5,0.020833333,0,1,0,0,1.2648,rock_grid_rect_2,1,02,-1,-1,1.265,0.102864583,-0.26171875,1,0,0,2.3568,Diorite_rect,3,2.357,0,4,0,4,0,1,,,,,,,,,,,,,
664cf412f465d48105837dac,TCN,2024-06-24_11h47.16.877,LearnStrategy,2023.2.3,Win32,60.24096386,7,1,6,0.049479167,0.006510417,1,0,0,1.6946,rock_grid_rect_2,4,05,-1,-1,1.695,0.110677083,-0.408854167,1,0,0,4.5096,Peridotite_rect,7,4.51,0,5,0,5,0,1,,,,,,,,,,,,,
664cf412f465d48105837dac,TCN,2024-06-24_11h47.16.877,LearnStrategy,2023.2.3,Win32,60.24096386,7,1,7,0.09375,0.0078125,1,0,0,0.9472,rock_grid_rect_2,6,07,-1,-1,0.947,-0.1015625,-0.40234375,1,0,0,1.6838,Pegmatite_rect,6,1.684,1,6,0,6,0,1,,,,,,,,,,,,,
664cf412f465d48105837dac,TCN,2024-06-24_11h47.16.877,LearnStrategy,2023.2.3,Win32,60.24096386,7,1,8,0.018229167,-0.013020833,1,0,0,1.6694,rock_grid_rect_2,8,15,-1,-1,1.669,0.373697917,-0.41796875,1,0,0,3.5443,Pumice_rect,8,3.544,1,7,0,7,0,1,,,,,,,,,,,,,
664cf412f465d48105837dac,TCN,2024-06-24_11h47.16.877,LearnStrategy,2023.2.3,Win32,60.24096386,7,1,9,-0.022135417,0.002604167,1,0,0,1.7754,rock_grid_rect_2,4,14,-1,-1,1.775,0.46875,-0.235677083,1,0,0,2.1365,Gabbro_rect,4,2.137,1,8,0,8,0,1,,,,,,,,,,,,,
664cf412f465d48105837dac,TCN,2024-06-24_11h47.16.877,LearnStrategy,2023.2.3,Win32,60.24096386,7,1,10,0.01953125,-0.01171875,1,0,0,1.3276,rock_grid_rect_2,5,14,-1,-1,1.328,-0.354166667,-0.403645833,1,0,0,1.8062,Obsidian_rect,5,1.806,1,9,0,9,0,1,,,,,,,,,,,,,
664cf412f465d48105837dac,TCN,2024-06-24_11h47.16.877,LearnStrategy,2023.2.3,Win32,60.24096386,7,1,11,0.01171875,0.002604167,1,0,0,1.479,rock_grid_rect_2,6,10,-1,-1,1.479,-0.095052083,-0.381510417,1,0,0,2.1057,Pegmatite_rect,6,2.106,1,10,0,10,0,1,,,,,,,,,,,,,
664cf412f465d48105837dac,TCN,2024-06-24_11h47.16.877,LearnStrategy,2023.2.3,Win32,60.24096386,7,1,12,0.032552083,-0.006510417,1,0,0,1.328,rock_grid_rect_2,8,02,-1,-1,1.328,0.369791667,-0.404947917,1,0,0,2.999,Pumice_rect,8,2.999,1,11,0,11,0,1,,,,,,,,,,,,,
664cf412f465d48105837dac,TCN,2024-06-24_11h47.16.877,LearnStrategy,2023.2.3,Win32,60.24096386,7,1,13,0.029947917,0,1,0,0,1.2797,rock_grid_rect_2,2,02,-1,-1,1.28,-0.087239583,-0.233072917,1,0,0,1.79,Basalt_rect,2,1.79,1,12,0,12,0,1,,,,,,,,,,,,,
664cf412f465d48105837dac,TCN,2024-06-24_11h47.16.877,LearnStrategy,2023.2.3,Win32,60.24096386,7,1,14,0.01171875,0.00390625,1,0,0,1.21,rock_grid_rect_2,3,16,-1,-1,1.21,0.087239583,-0.256510417,1,0,0,2.1163,Diorite_rect,3,2.116,1,13,0,13,0,1,,,,,,,,,,,,,
664cf412f465d48105837dac,TCN,2024-06-24_11h47.16.877,LearnStrategy,2023.2.3,Win32,60.24096386,7,1,15,0.001302083,-0.006510417,1,0,0,0.8468,rock_grid_rect_2,3,06,-1,-1,0.847,-0.375,-0.268229167,1,0,0,2.5875,Andesite_rect,1,2.588,0,14,0,14,0,1,,,,,,,,,,,,,
664cf412f465d48105837dac,TCN,2024-06-24_11h47.16.877,LearnStrategy,2023.2.3,Win32,60.24096386,7,1,16,0.059895833,-0.013020833,1,0,0,1.3796,rock_grid_rect_2,2,12,-1,-1,1.38,-0.08203125,-0.25,1,0,0,2.4838,Basalt_rect,2,2.484,1,15,0,15,0,1,,,,,,,,,,,,,
664cf412f465d48105837dac,TCN,2024-06-24_11h47.16.877,LearnStrategy,2023.2.3,Win32,60.24096386,7,2,1,,,,,,,,3,15,,,,,,,,,,,3,3.289,1,,,,,,0.154947917,-0.256510417,1,0,0,3.2887,Diorite_rect,0,0,0,0,1,
664cf412f465d48105837dac,TCN,2024-06-24_11h47.16.877,LearnStrategy,2023.2.3,Win32,60.24096386,7,2,2,,,,,,,,6,09,,,,,,,,,,,6,2.956,1,,,,,,-0.09375,-0.407552083,1,0,0,2.956,Pegmatite_rect,1,0,1,0,1,
664cf412f465d48105837dac,TCN,2024-06-24_11h47.16.877,LearnStrategy,2023.2.3,Win32,60.24096386,7,2,3,,,,,,,,6,13,,,,,,,,,,,4,18.317,0,,,,,,0.348958333,-0.2578125,1,0,0,18.3169,Gabbro_rect,2,0,2,0,1,
664cf412f465d48105837dac,TCN,2024-06-24_11h47.16.877,LearnStrategy,2023.2.3,Win32,60.24096386,7,2,4,,,,,,,,7,14,,,,,,,,,,,7,1.99,1,,,,,,0.140625,-0.399739583,1,0,0,1.9898,Peridotite_rect,3,0,3,0,1,
664cf412f465d48105837dac,TCN,2024-06-24_11h47.16.877,LearnStrategy,2023.2.3,Win32,60.24096386,7,2,5,,,,,,,,8,03,,,,,,,,,,,8,1.577,1,,,,,,0.385416667,-0.381510417,1,0,0,1.5771,Pumice_rect,4,0,4,0,1,
664cf412f465d48105837dac,TCN,2024-06-24_11h47.16.877,LearnStrategy,2023.2.3,Win32,60.24096386,7,2,6,,,,,,,,7,04,,,,,,,,,,,6,4.852,0,,,,,,-0.141927083,-0.399739583,1,0,0,4.8517,Pegmatite_rect,5,0,5,0,1,
664cf412f465d48105837dac,TCN,2024-06-24_11h47.16.877,LearnStrategy,2023.2.3,Win32,60.24096386,7,2,7,,,,,,,,3,10,,,,,,,,,,,1,1.284,0,,,,,,-0.380208333,-0.240885417,1,0,0,1.2845,Andesite_rect,6,0,6,0,1,
664cf412f465d48105837dac,TCN,2024-06-24_11h47.16.877,LearnStrategy,2023.2.3,Win32,60.24096386,7,2,8,,,,,,,,4,10,,,,,,,,,,,4,3.179,1,,,,,,0.341145833,-0.248697917,1,0,0,3.1786,Gabbro_rect,7,0,7,0,1,
664cf412f465d48105837dac,TCN,2024-06-24_11h47.16.877,LearnStrategy,2023.2.3,Win32,60.24096386,7,2,9,,,,,,,,2,11,,,,,,,,,,,2,2.479,1,,,,,,-0.104166667,-0.251302083,1,0,0,2.479,Basalt_rect,8,0,8,0,1,
664cf412f465d48105837dac,TCN,2024-06-24_11h47.16.877,LearnStrategy,2023.2.3,Win32,60.24096386,7,2,10,,,,,,,,5,10,,,,,,,,,,,5,2.106,1,,,,,,-0.442708333,-0.404947917,1,0,0,2.1062,Obsidian_rect,9,0,9,0,1,
664cf412f465d48105837dac,TCN,2024-06-24_11h47.16.877,LearnStrategy,2023.2.3,Win32,60.24096386,7,2,11,,,,,,,,8,14,,,,,,,,,,,8,1.806,1,,,,,,0.35546875,-0.395833333,1,0,0,1.806,Pumice_rect,10,0,10,0,1,
664cf412f465d48105837dac,TCN,2024-06-24_11h47.16.877,LearnStrategy,2023.2.3,Win32,60.24096386,7,2,12,,,,,,,,1,04,,,,,,,,,,,4,3.711,0,,,,,,0.438802083,-0.256510417,1,0,0,3.711,Gabbro_rect,11,0,11,0,1,
664cf412f465d48105837dac,TCN,2024-06-24_11h47.16.877,LearnStrategy,2023.2.3,Win32,60.24096386,7,2,13,,,,,,,,2,16,,,,,,,,,,,4,2.495,0,,,,,,0.3984375,-0.247395833,1,0,0,2.495,Gabbro_rect,12,0,12,0,1,
664cf412f465d48105837dac,TCN,2024-06-24_11h47.16.877,LearnStrategy,2023.2.3,Win32,60.24096386,7,2,14,,,,,,,,1,07,,,,,,,,,,,3,1.705,0,,,,,,0.123697917,-0.247395833,1,0,0,1.7046,Diorite_rect,13,0,13,0,1,
664cf412f465d48105837dac,TCN,2024-06-24_11h47.16.877,LearnStrategy,2023.2.3,Win32,60.24096386,7,2,15,,,,,,,,5,12,,,,,,,,,,,5,2.225,1,,,,,,-0.365885417,-0.395833333,1,0,0,2.2247,Obsidian_rect,14,0,14,0,1,
664cf412f465d48105837dac,TCN,2024-06-24_11h47.16.877,LearnStrategy,2023.2.3,Win32,60.24096386,7,2,16,,,,,,,,4,09,,,,,,,,,,,4,2.431,1,,,,,,0.401041667,-0.244791667,1,0,0,2.4312,Gabbro_rect,15,0,15,0,1,
664cf412f465d48105837dac,TCN,2024-06-24_11h47.16.877,LearnStrategy,2023.2.3,Win32,60.24096386,8,1,1,0.032552083,-0.009114583,1,0,0,1.3611,rock_grid_rect_2,1,03,-1,-1,1.361,0.348958333,-0.23828125,1,0,0,2.3414,Gabbro_rect,4,2.341,0,0,0,0,0,1,,,,,,,,,,,,,
664cf412f465d48105837dac,TCN,2024-06-24_11h47.16.877,LearnStrategy,2023.2.3,Win32,60.24096386,8,1,2,-0.018229167,-0.00390625,1,0,0,1.8758,rock_grid_rect_2,4,11,-1,-1,1.876,0.3359375,-0.234375,1,0,0,2.494,Gabbro_rect,4,2.494,1,1,0,1,0,1,,,,,,,,,,,,,
664cf412f465d48105837dac,TCN,2024-06-24_11h47.16.877,LearnStrategy,2023.2.3,Win32,60.24096386,8,1,3,0.0390625,0.005208333,1,0,0,1.7152,rock_grid_rect_2,1,10,-1,-1,1.715,-0.389322917,-0.24609375,1,0,0,2.9545,Andesite_rect,1,2.955,1,2,0,2,0,1,,,,,,,,,,,,,
664cf412f465d48105837dac,TCN,2024-06-24_11h47.16.877,LearnStrategy,2023.2.3,Win32,60.24096386,8,1,4,-0.015625,0.00390625,1,0,0,1.1789,rock_grid_rect_2,4,08,-1,-1,1.179,0.345052083,-0.229166667,1,0,0,4.2792,Gabbro_rect,4,4.279,1,3,0,3,0,1,,,,,,,,,,,,,
664cf412f465d48105837dac,TCN,2024-06-24_11h47.16.877,LearnStrategy,2023.2.3,Win32,60.24096386,8,1,5,0.006510417,-0.00390625,1,0,0,0.9604,rock_grid_rect_2,8,16,-1,-1,0.96,0.372395833,-0.389322917,1,0,0,2.1819,Pumice_rect,8,2.182,1,4,0,4,0,1,,,,,,,,,,,,,
664cf412f465d48105837dac,TCN,2024-06-24_11h47.16.877,LearnStrategy,2023.2.3,Win32,60.24096386,8,1,6,-0.014322917,0.001302083,1,0,0,1.7279,rock_grid_rect_2,7,10,-1,-1,1.728,0.12109375,-0.40625,1,0,0,1.8968,Peridotite_rect,7,1.897,1,5,0,5,0,1,,,,,,,,,,,,,
664cf412f465d48105837dac,TCN,2024-06-24_11h47.16.877,LearnStrategy,2023.2.3,Win32,60.24096386,8,1,7,-0.01953125,0.01171875,1,0,0,0.9829,rock_grid_rect_2,5,11,-1,-1,0.983,-0.341145833,-0.3828125,1,0,0,1.8099,Obsidian_rect,5,1.81,1,6,0,6,0,1,,,,,,,,,,,,,
664cf412f465d48105837dac,TCN,2024-06-24_11h47.16.877,LearnStrategy,2023.2.3,Win32,60.24096386,8,1,8,0.032552083,-0.002604167,1,0,0,0.9608,rock_grid_rect_2,7,13,-1,-1,0.961,0.115885417,-0.390625,1,0,0,1.6359,Peridotite_rect,7,1.636,1,7,0,7,0,1,,,,,,,,,,,,,
664cf412f465d48105837dac,TCN,2024-06-24_11h47.16.877,LearnStrategy,2023.2.3,Win32,60.24096386,8,1,9,-0.009114583,0.00390625,1,0,0,0.9119,rock_grid_rect_2,2,09,-1,-1,0.912,-0.125,-0.26171875,1,0,0,2.0819,Basalt_rect,2,2.082,1,8,0,8,0,1,,,,,,,,,,,,,
664cf412f465d48105837dac,TCN,2024-06-24_11h47.16.877,LearnStrategy,2023.2.3,Win32,60.24096386,8,1,10,0.002604167,-0.015625,1,0,0,1.4445,rock_grid_rect_2,2,08,-1,-1,1.444,-0.122395833,-0.233072917,1,0,0,2.3535,Basalt_rect,2,2.353,1,9,0,9,0,1,,,,,,,,,,,,,
664cf412f465d48105837dac,TCN,2024-06-24_11h47.16.877,LearnStrategy,2023.2.3,Win32,60.24096386,8,1,11,0.029947917,-0.014322917,1,0,0,1.3446,rock_grid_rect_2,6,12,-1,-1,1.345,-0.09765625,-0.419270833,1,0,0,2.408,Pegmatite_rect,6,2.408,1,10,0,10,0,1,,,,,,,,,,,,,
664cf412f465d48105837dac,TCN,2024-06-24_11h47.16.877,LearnStrategy,2023.2.3,Win32,60.24096386,8,1,12,0.001302083,0.001302083,1,0,0,1.0945,rock_grid_rect_2,5,16,-1,-1,1.094,-0.385416667,-0.401041667,1,0,0,2.3044,Obsidian_rect,5,2.304,1,11,0,11,0,1,,,,,,,,,,,,,
664cf412f465d48105837dac,TCN,2024-06-24_11h47.16.877,LearnStrategy,2023.2.3,Win32,60.24096386,8,1,13,0,-0.005208333,1,0,0,1.1953,rock_grid_rect_2,3,14,-1,-1,1.195,0.071614583,-0.244791667,1,0,0,5.5587,Diorite_rect,3,5.559,1,12,0,12,0,1,,,,,,,,,,,,,
664cf412f465d48105837dac,TCN,2024-06-24_11h47.16.877,LearnStrategy,2023.2.3,Win32,60.24096386,8,1,14,0.00390625,-0.002604167,1,0,0,1.1913,rock_grid_rect_2,3,12,-1,-1,1.191,-0.384114583,-0.236979167,1,0,0,2.0244,Andesite_rect,1,2.024,0,13,0,13,0,1,,,,,,,,,,,,,
664cf412f465d48105837dac,TCN,2024-06-24_11h47.16.877,LearnStrategy,2023.2.3,Win32,60.24096386,8,1,15,-0.09765625,0.013020833,1,0,0,1.0283,rock_grid_rect_2,8,13,-1,-1,1.028,0.361979167,-0.404947917,1,0,0,2.8339,Pumice_rect,8,2.834,1,14,0,14,0,1,,,,,,,,,,,,,
664cf412f465d48105837dac,TCN,2024-06-24_11h47.16.877,LearnStrategy,2023.2.3,Win32,60.24096386,8,1,16,0.061197917,-0.013020833,1,0,0,1.5265,rock_grid_rect_2,6,06,-1,-1,1.526,-0.0859375,-0.388020833,1,0,0,2.2774,Pegmatite_rect,6,2.277,1,15,0,15,0,1,,,,,,,,,,,,,
664cf412f465d48105837dac,TCN,2024-06-24_11h47.16.877,LearnStrategy,2023.2.3,Win32,60.24096386,8,2,1,,,,,,,,8,04,,,,,,,,,,,8,3.48,1,,,,,,0.317708333,-0.412760417,1,0,0,3.4797,Pumice_rect,0,0,0,0,1,
664cf412f465d48105837dac,TCN,2024-06-24_11h47.16.877,LearnStrategy,2023.2.3,Win32,60.24096386,8,2,2,,,,,,,,3,13,,,,,,,,,,,3,1.996,1,,,,,,0.141927083,-0.256510417,1,0,0,1.9959,Diorite_rect,1,0,1,0,1,
664cf412f465d48105837dac,TCN,2024-06-24_11h47.16.877,LearnStrategy,2023.2.3,Win32,60.24096386,8,2,3,,,,,,,,7,07,,,,,,,,,,,7,3.332,1,,,,,,0.122395833,-0.384114583,1,0,0,3.3315,Peridotite_rect,2,0,2,0,1,
664cf412f465d48105837dac,TCN,2024-06-24_11h47.16.877,LearnStrategy,2023.2.3,Win32,60.24096386,8,2,4,,,,,,,,6,16,,,,,,,,,,,6,1.457,1,,,,,,-0.083333333,-0.38671875,1,0,0,1.4569,Pegmatite_rect,3,0,3,0,1,
664cf412f465d48105837dac,TCN,2024-06-24_11h47.16.877,LearnStrategy,2023.2.3,Win32,60.24096386,8,2,5,,,,,,,,6,05,,,,,,,,,,,6,1.272,1,,,,,,-0.114583333,-0.393229167,1,0,0,1.2717,Pegmatite_rect,4,0,4,0,1,
664cf412f465d48105837dac,TCN,2024-06-24_11h47.16.877,LearnStrategy,2023.2.3,Win32,60.24096386,8,2,6,,,,,,,,2,06,,,,,,,,,,,2,3.55,1,,,,,,-0.15234375,-0.235677083,1,0,0,3.5503,Basalt_rect,5,0,5,0,1,
664cf412f465d48105837dac,TCN,2024-06-24_11h47.16.877,LearnStrategy,2023.2.3,Win32,60.24096386,8,2,7,,,,,,,,1,01,,,,,,,,,,,1,2.799,1,,,,,,-0.375,-0.24609375,1,0,0,2.7991,Andesite_rect,6,0,6,0,1,
664cf412f465d48105837dac,TCN,2024-06-24_11h47.16.877,LearnStrategy,2023.2.3,Win32,60.24096386,8,2,8,,,,,,,,1,09,,,,,,,,,,,2,2.674,0,,,,,,-0.134114583,-0.2578125,1,0,0,2.6742,Basalt_rect,7,0,7,0,1,
664cf412f465d48105837dac,TCN,2024-06-24_11h47.16.877,LearnStrategy,2023.2.3,Win32,60.24096386,8,2,9,,,,,,,,2,01,,,,,,,,,,,4,2.368,0,,,,,,0.38671875,-0.23828125,1,0,0,2.3684,Gabbro_rect,8,0,8,0,1,
664cf412f465d48105837dac,TCN,2024-06-24_11h47.16.877,LearnStrategy,2023.2.3,Win32,60.24096386,8,2,10,,,,,,,,3,11,,,,,,,,,,,1,3.518,0,,,,,,-0.407552083,-0.247395833,1,0,0,3.518,Andesite_rect,9,0,9,0,1,
664cf412f465d48105837dac,TCN,2024-06-24_11h47.16.877,LearnStrategy,2023.2.3,Win32,60.24096386,8,2,11,,,,,,,,4,12,,,,,,,,,,,4,5.61,1,,,,,,0.411458333,-0.25390625,1,0,0,5.6096,Gabbro_rect,10,0,10,0,1,
664cf412f465d48105837dac,TCN,2024-06-24_11h47.16.877,LearnStrategy,2023.2.3,Win32,60.24096386,8,2,12,,,,,,,,5,09,,,,,,,,,,,5,2.991,1,,,,,,-0.403645833,-0.40625,1,0,0,2.991,Obsidian_rect,11,0,11,0,1,
664cf412f465d48105837dac,TCN,2024-06-24_11h47.16.877,LearnStrategy,2023.2.3,Win32,60.24096386,8,2,13,,,,,,,,4,13,,,,,,,,,,,4,3.491,1,,,,,,0.368489583,-0.25,1,0,0,3.4905,Gabbro_rect,12,0,12,0,1,
664cf412f465d48105837dac,TCN,2024-06-24_11h47.16.877,LearnStrategy,2023.2.3,Win32,60.24096386,8,2,14,,,,,,,,5,08,,,,,,,,,,,5,2.845,1,,,,,,-0.369791667,-0.3984375,1,0,0,2.8453,Obsidian_rect,13,0,13,0,1,
664cf412f465d48105837dac,TCN,2024-06-24_11h47.16.877,LearnStrategy,2023.2.3,Win32,60.24096386,8,2,15,,,,,,,,8,09,,,,,,,,,,,8,3.188,1,,,,,,0.403645833,-0.40234375,1,0,0,3.1879,Pumice_rect,14,0,14,0,1,
664cf412f465d48105837dac,TCN,2024-06-24_11h47.16.877,LearnStrategy,2023.2.3,Win32,60.24096386,8,2,16,,,,,,,,7,08,,,,,,,,,,,7,1.922,1,,,,,,0.196614583,-0.3828125,1,0,0,1.9224,Peridotite_rect,15,0,15,0,1,
664cf412f465d48105837dac,TCN,2024-06-24_11h47.16.877,LearnStrategy,2023.2.3,Win32,60.24096386,9,1,1,-0.009114583,-0.00390625,1,0,0,1.5812,rock_grid_rect_2,7,12,-1,-1,1.581,0.126302083,-0.408854167,1,0,0,3.8957,Peridotite_rect,7,3.896,1,0,0,0,0,1,,,,,,,,,,,,,
664cf412f465d48105837dac,TCN,2024-06-24_11h47.16.877,LearnStrategy,2023.2.3,Win32,60.24096386,9,1,2,-0.01953125,-0.015625,1,0,0,1.1436,rock_grid_rect_2,3,07,-1,-1,1.144,0.0703125,-0.252604167,1,0,0,2.0408,Diorite_rect,3,2.041,1,1,0,1,0,1,,,,,,,,,,,,,
664cf412f465d48105837dac,TCN,2024-06-24_11h47.16.877,LearnStrategy,2023.2.3,Win32,60.24096386,9,1,3,0.001302083,-0.009114583,1,0,0,1.229,rock_grid_rect_2,5,02,-1,-1,1.229,-0.365885417,-0.401041667,1,0,0,1.5122,Obsidian_rect,5,1.512,1,2,0,2,0,1,,,,,,,,,,,,,
664cf412f465d48105837dac,TCN,2024-06-24_11h47.16.877,LearnStrategy,2023.2.3,Win32,60.24096386,9,1,4,-0.044270833,0.010416667,1,0,0,1.0165,rock_grid_rect_2,8,06,-1,-1,1.016,0.33984375,-0.407552083,1,0,0,2.2084,Pumice_rect,8,2.208,1,3,0,3,0,1,,,,,,,,,,,,,
664cf412f465d48105837dac,TCN,2024-06-24_11h47.16.877,LearnStrategy,2023.2.3,Win32,60.24096386,9,1,5,-0.041666667,-0.014322917,1,0,0,1.2962,rock_grid_rect_2,3,02,-1,-1,1.296,-0.34375,-0.229166667,1,0,0,2.1378,Andesite_rect,1,2.138,0,4,0,4,0,1,,,,,,,,,,,,,
664cf412f465d48105837dac,TCN,2024-06-24_11h47.16.877,LearnStrategy,2023.2.3,Win32,60.24096386,9,1,6,-0.028645833,0.015625,1,0,0,1.096,rock_grid_rect_2,1,06,-1,-1,1.096,0.37890625,-0.26171875,1,0,0,4.2787,Gabbro_rect,4,4.279,0,5,0,5,0,1,,,,,,,,,,,,,
664cf412f465d48105837dac,TCN,2024-06-24_11h47.16.877,LearnStrategy,2023.2.3,Win32,60.24096386,9,1,7,-0.028645833,0.005208333,1,0,0,1.7297,rock_grid_rect_2,1,14,-1,-1,1.73,0.348958333,-0.255208333,1,0,0,4.2766,Gabbro_rect,4,4.277,0,6,0,6,0,1,,,,,,,,,,,,,
664cf412f465d48105837dac,TCN,2024-06-24_11h47.16.877,LearnStrategy,2023.2.3,Win32,60.24096386,9,1,8,0.045572917,0.00390625,1,0,0,3.0111,rock_grid_rect_2,8,05,-1,-1,3.011,0.333333333,-0.401041667,1,0,0,2.0205,Pumice_rect,8,2.021,1,7,0,7,0,1,,,,,,,,,,,,,
664cf412f465d48105837dac,TCN,2024-06-24_11h47.16.877,LearnStrategy,2023.2.3,Win32,60.24096386,9,1,9,-0.022135417,-0.010416667,1,0,0,1.4616,rock_grid_rect_2,2,14,-1,-1,1.462,0.399739583,-0.252604167,1,0,0,2.6716,Gabbro_rect,4,2.672,0,8,0,8,0,1,,,,,,,,,,,,,
664cf412f465d48105837dac,TCN,2024-06-24_11h47.16.877,LearnStrategy,2023.2.3,Win32,60.24096386,9,1,10,0.01953125,-0.006510417,1,0,0,1.015,rock_grid_rect_2,6,03,-1,-1,1.015,-0.087239583,-0.388020833,1,0,0,1.6353,Pegmatite_rect,6,1.635,1,9,0,9,0,1,,,,,,,,,,,,,
664cf412f465d48105837dac,TCN,2024-06-24_11h47.16.877,LearnStrategy,2023.2.3,Win32,60.24096386,9,1,11,0.075520833,-0.01171875,1,0,0,0.8301,rock_grid_rect_2,4,16,-1,-1,0.83,0.322916667,-0.236979167,1,0,0,2.2625,Gabbro_rect,4,2.263,1,10,0,10,0,1,,,,,,,,,,,,,
664cf412f465d48105837dac,TCN,2024-06-24_11h47.16.877,LearnStrategy,2023.2.3,Win32,60.24096386,9,1,12,0.0234375,-0.020833333,1,0,0,1.7456,rock_grid_rect_2,5,06,-1,-1,1.746,-0.359375,-0.40625,1,0,0,1.9722,Obsidian_rect,5,1.972,1,11,0,11,0,1,,,,,,,,,,,,,
664cf412f465d48105837dac,TCN,2024-06-24_11h47.16.877,LearnStrategy,2023.2.3,Win32,60.24096386,9,1,13,-0.005208333,-0.010416667,1,0,0,1.1779,rock_grid_rect_2,2,10,-1,-1,1.178,-0.096354167,-0.23828125,1,0,0,1.5786,Basalt_rect,2,1.579,1,12,0,12,0,1,,,,,,,,,,,,,
664cf412f465d48105837dac,TCN,2024-06-24_11h47.16.877,LearnStrategy,2023.2.3,Win32,60.24096386,9,1,14,0.002604167,-0.001302083,1,0,0,3.1054,rock_grid_rect_2,7,16,-1,-1,3.105,0.102864583,-0.401041667,1,0,0,3.1359,Peridotite_rect,7,3.136,1,13,0,13,0,1,,,,,,,,,,,,,
664cf412f465d48105837dac,TCN,2024-06-24_11h47.16.877,LearnStrategy,2023.2.3,Win32,60.24096386,9,1,15,0.063802083,-0.005208333,1,0,0,2.2102,rock_grid_rect_2,4,03,-1,-1,2.21,-0.39453125,-0.25390625,1,0,0,3.6833,Andesite_rect,1,3.683,0,14,0,14,0,1,,,,,,,,,,,,,
664cf412f465d48105837dac,TCN,2024-06-24_11h47.16.877,LearnStrategy,2023.2.3,Win32,60.24096386,9,1,16,0.005208333,-0.018229167,1,0,0,1.697,rock_grid_rect_2,6,11,-1,-1,1.697,-0.044270833,-0.41015625,1,0,0,2.1712,Pegmatite_rect,6,2.171,1,15,0,15,0,1,,,,,,,,,,,,,
664cf412f465d48105837dac,TCN,2024-06-24_11h47.16.877,LearnStrategy,2023.2.3,Win32,60.24096386,9,2,1,,,,,,,,2,04,,,,,,,,,,,2,2.428,1,,,,,,-0.095052083,-0.233072917,1,0,0,2.4278,Basalt_rect,0,0,0,0,1,
664cf412f465d48105837dac,TCN,2024-06-24_11h47.16.877,LearnStrategy,2023.2.3,Win32,60.24096386,9,2,2,,,,,,,,7,02,,,,,,,,,,,7,1.408,1,,,,,,0.115885417,-0.40625,1,0,0,1.4077,Peridotite_rect,1,0,1,0,1,
664cf412f465d48105837dac,TCN,2024-06-24_11h47.16.877,LearnStrategy,2023.2.3,Win32,60.24096386,9,2,3,,,,,,,,3,09,,,,,,,,,,,1,1.493,0,,,,,,-0.434895833,-0.268229167,1,0,0,1.4927,Andesite_rect,2,0,2,0,1,
664cf412f465d48105837dac,TCN,2024-06-24_11h47.16.877,LearnStrategy,2023.2.3,Win32,60.24096386,9,2,4,,,,,,,,8,08,,,,,,,,,,,8,2.054,1,,,,,,0.33984375,-0.39453125,1,0,0,2.0537,Pumice_rect,3,0,3,0,1,
664cf412f465d48105837dac,TCN,2024-06-24_11h47.16.877,LearnStrategy,2023.2.3,Win32,60.24096386,9,2,5,,,,,,,,1,05,,,,,,,,,,,3,7.425,0,,,,,,0.130208333,-0.247395833,1,0,0,7.4254,Diorite_rect,4,0,4,0,1,
664cf412f465d48105837dac,TCN,2024-06-24_11h47.16.877,LearnStrategy,2023.2.3,Win32,60.24096386,9,2,6,,,,,,,,2,05,,,,,,,,,,,2,3.516,1,,,,,,-0.147135417,-0.24609375,1,0,0,3.5156,Basalt_rect,5,0,5,0,1,
664cf412f465d48105837dac,TCN,2024-06-24_11h47.16.877,LearnStrategy,2023.2.3,Win32,60.24096386,9,2,7,,,,,,,,6,08,,,,,,,,,,,6,1.513,1,,,,,,-0.08984375,-0.415364583,1,0,0,1.5126,Pegmatite_rect,6,0,6,0,1,
664cf412f465d48105837dac,TCN,2024-06-24_11h47.16.877,LearnStrategy,2023.2.3,Win32,60.24096386,9,2,8,,,,,,,,6,15,,,,,,,,,,,6,1.118,1,,,,,,-0.134114583,-0.403645833,1,0,0,1.1184,Pegmatite_rect,7,0,7,0,1,
664cf412f465d48105837dac,TCN,2024-06-24_11h47.16.877,LearnStrategy,2023.2.3,Win32,60.24096386,9,2,9,,,,,,,,7,06,,,,,,,,,,,7,1.681,1,,,,,,0.098958333,-0.393229167,1,0,0,1.6814,Peridotite_rect,8,0,8,0,1,
664cf412f465d48105837dac,TCN,2024-06-24_11h47.16.877,LearnStrategy,2023.2.3,Win32,60.24096386,9,2,10,,,,,,,,5,05,,,,,,,,,,,5,1.971,1,,,,,,-0.39453125,-0.416666667,1,0,0,1.9713,Obsidian_rect,9,0,9,0,1,
664cf412f465d48105837dac,TCN,2024-06-24_11h47.16.877,LearnStrategy,2023.2.3,Win32,60.24096386,9,2,11,,,,,,,,1,11,,,,,,,,,,,3,8.631,0,,,,,,0.18359375,-0.256510417,1,0,0,8.6312,Diorite_rect,10,0,10,0,1,
664cf412f465d48105837dac,TCN,2024-06-24_11h47.16.877,LearnStrategy,2023.2.3,Win32,60.24096386,9,2,12,,,,,,,,4,01,,,,,,,,,,,7,1.285,0,,,,,,0.111979167,-0.408854167,1,0,0,1.2848,Peridotite_rect,11,0,11,0,1,
664cf412f465d48105837dac,TCN,2024-06-24_11h47.16.877,LearnStrategy,2023.2.3,Win32,60.24096386,9,2,13,,,,,,,,4,15,,,,,,,,,,,4,3.579,1,,,,,,0.35546875,-0.25,1,0,0,3.579,Gabbro_rect,12,0,12,0,1,
664cf412f465d48105837dac,TCN,2024-06-24_11h47.16.877,LearnStrategy,2023.2.3,Win32,60.24096386,9,2,14,,,,,,,,8,10,,,,,,,,,,,8,1.38,1,,,,,,0.375,-0.412760417,1,0,0,1.3795,Pumice_rect,13,0,13,0,1,
664cf412f465d48105837dac,TCN,2024-06-24_11h47.16.877,LearnStrategy,2023.2.3,Win32,60.24096386,9,2,15,,,,,,,,3,08,,,,,,,,,,,1,2.883,0,,,,,,-0.404947917,-0.256510417,1,0,0,2.8834,Andesite_rect,14,0,14,0,1,
664cf412f465d48105837dac,TCN,2024-06-24_11h47.16.877,LearnStrategy,2023.2.3,Win32,60.24096386,9,2,16,,,,,,,,5,04,,,,,,,,,,,5,1.582,1,,,,,,-0.3984375,-0.389322917,1,0,0,1.5816,Obsidian_rect,15,0,15,0,1,
664cf412f465d48105837dac,TCN,2024-06-24_11h47.16.877,LearnStrategy,2023.2.3,Win32,60.24096386,,,,,,,,,,,,,,,,,,,,,,,,,,,,,,,,,,,,,,,,,,,1
664cf412f465d48105837dac,TCN,2024-06-24_11h47.16.877,LearnStrategy,2023.2.3,Win32,60.24096386,,,,,,,,,,,,,,,,,,,,,,,,,,,,,,,,,,,,,,,,,,,
664cf412f465d48105837dac,TCN,2024-06-24_11h47.16.877,LearnStrategy,2023.2.3,Win32,60.24096386,,,,,,,,,,,6,03,1,1,,,,,,,,,,,,,,,,,,,,,,,,,,,,,
664cf412f465d48105837dac,TCN,2024-06-24_11h47.16.877,LearnStrategy,2023.2.3,Win32,60.24096386,,,,,,,,,,,8,06,1,2,,,,,,,,,,,,,,,,,,,,,,,,,,,,,
664cf412f465d48105837dac,TCN,2024-06-24_11h47.16.877,LearnStrategy,2023.2.3,Win32,60.24096386,,,,,,,,,,,4,11,1,3,,,,,,,,,,,,,,,,,,,,,,,,,,,,,
664cf412f465d48105837dac,TCN,2024-06-24_11h47.16.877,LearnStrategy,2023.2.3,Win32,60.24096386,,,,,,,,,,,5,07,1,4,,,,,,,,,,,,,,,,,,,,,,,,,,,,,
664cf412f465d48105837dac,TCN,2024-06-24_11h47.16.877,LearnStrategy,2023.2.3,Win32,60.24096386,,,,,,,,,,,5,16,1,5,,,,,,,,,,,,,,,,,,,,,,,,,,,,,
664cf412f465d48105837dac,TCN,2024-06-24_11h47.16.877,LearnStrategy,2023.2.3,Win32,60.24096386,,,,,,,,,,,6,11,1,6,,,,,,,,,,,,,,,,,,,,,,,,,,,,,
664cf412f465d48105837dac,TCN,2024-06-24_11h47.16.877,LearnStrategy,2023.2.3,Win32,60.24096386,,,,,,,,,,,4,05,1,7,,,,,,,,,,,,,,,,,,,,,,,,,,,,,
664cf412f465d48105837dac,TCN,2024-06-24_11h47.16.877,LearnStrategy,2023.2.3,Win32,60.24096386,,,,,,,,,,,6,12,1,8,,,,,,,,,,,,,,,,,,,,,,,,,,,,,
664cf412f465d48105837dac,TCN,2024-06-24_11h47.16.877,LearnStrategy,2023.2.3,Win32,60.24096386,,,,,,,,,,,4,14,2,1,,,,,,,,,,,,,,,,,,,,,,,,,,,,,
664cf412f465d48105837dac,TCN,2024-06-24_11h47.16.877,LearnStrategy,2023.2.3,Win32,60.24096386,,,,,,,,,,,3,02,2,2,,,,,,,,,,,,,,,,,,,,,,,,,,,,,
664cf412f465d48105837dac,TCN,2024-06-24_11h47.16.877,LearnStrategy,2023.2.3,Win32,60.24096386,,,,,,,,,,,2,08,2,3,,,,,,,,,,,,,,,,,,,,,,,,,,,,,
664cf412f465d48105837dac,TCN,2024-06-24_11h47.16.877,LearnStrategy,2023.2.3,Win32,60.24096386,,,,,,,,,,,2,02,2,4,,,,,,,,,,,,,,,,,,,,,,,,,,,,,
664cf412f465d48105837dac,TCN,2024-06-24_11h47.16.877,LearnStrategy,2023.2.3,Win32,60.24096386,,,,,,,,,,,8,13,2,5,,,,,,,,,,,,,,,,,,,,,,,,,,,,,
664cf412f465d48105837dac,TCN,2024-06-24_11h47.16.877,LearnStrategy,2023.2.3,Win32,60.24096386,,,,,,,,,,,2,12,2,6,,,,,,,,,,,,,,,,,,,,,,,,,,,,,
664cf412f465d48105837dac,TCN,2024-06-24_11h47.16.877,LearnStrategy,2023.2.3,Win32,60.24096386,,,,,,,,,,,7,13,2,7,,,,,,,,,,,,,,,,,,,,,,,,,,,,,
664cf412f465d48105837dac,TCN,2024-06-24_11h47.16.877,LearnStrategy,2023.2.3,Win32,60.24096386,,,,,,,,,,,2,09,2,8,,,,,,,,,,,,,,,,,,,,,,,,,,,,,
664cf412f465d48105837dac,TCN,2024-06-24_11h47.16.877,LearnStrategy,2023.2.3,Win32,60.24096386,,,,,,,,,,,1,06,3,1,,,,,,,,,,,,,,,,,,,,,,,,,,,,,
664cf412f465d48105837dac,TCN,2024-06-24_11h47.16.877,LearnStrategy,2023.2.3,Win32,60.24096386,,,,,,,,,,,8,15,3,2,,,,,,,,,,,,,,,,,,,,,,,,,,,,,
664cf412f465d48105837dac,TCN,2024-06-24_11h47.16.877,LearnStrategy,2023.2.3,Win32,60.24096386,,,,,,,,,,,7,05,3,3,,,,,,,,,,,,,,,,,,,,,,,,,,,,,
664cf412f465d48105837dac,TCN,2024-06-24_11h47.16.877,LearnStrategy,2023.2.3,Win32,60.24096386,,,,,,,,,,,7,10,3,4,,,,,,,,,,,,,,,,,,,,,,,,,,,,,
664cf412f465d48105837dac,TCN,2024-06-24_11h47.16.877,LearnStrategy,2023.2.3,Win32,60.24096386,,,,,,,,,,,7,16,3,5,,,,,,,,,,,,,,,,,,,,,,,,,,,,,
664cf412f465d48105837dac,TCN,2024-06-24_11h47.16.877,LearnStrategy,2023.2.3,Win32,60.24096386,,,,,,,,,,,8,05,3,6,,,,,,,,,,,,,,,,,,,,,,,,,,,,,
664cf412f465d48105837dac,TCN,2024-06-24_11h47.16.877,LearnStrategy,2023.2.3,Win32,60.24096386,,,,,,,,,,,4,03,3,7,,,,,,,,,,,,,,,,,,,,,,,,,,,,,
664cf412f465d48105837dac,TCN,2024-06-24_11h47.16.877,LearnStrategy,2023.2.3,Win32,60.24096386,,,,,,,,,,,5,11,3,8,,,,,,,,,,,,,,,,,,,,,,,,,,,,,
664cf412f465d48105837dac,TCN,2024-06-24_11h47.16.877,LearnStrategy,2023.2.3,Win32,60.24096386,,,,,,,,,,,1,16,4,1,,,,,,,,,,,,,,,,,,,,,,,,,,,,,
664cf412f465d48105837dac,TCN,2024-06-24_11h47.16.877,LearnStrategy,2023.2.3,Win32,60.24096386,,,,,,,,,,,1,03,4,2,,,,,,,,,,,,,,,,,,,,,,,,,,,,,
664cf412f465d48105837dac,TCN,2024-06-24_11h47.16.877,LearnStrategy,2023.2.3,Win32,60.24096386,,,,,,,,,,,8,02,4,3,,,,,,,,,,,,,,,,,,,,,,,,,,,,,
664cf412f465d48105837dac,TCN,2024-06-24_11h47.16.877,LearnStrategy,2023.2.3,Win32,60.24096386,,,,,,,,,,,3,07,4,4,,,,,,,,,,,,,,,,,,,,,,,,,,,,,
664cf412f465d48105837dac,TCN,2024-06-24_11h47.16.877,LearnStrategy,2023.2.3,Win32,60.24096386,,,,,,,,,,,3,06,4,5,,,,,,,,,,,,,,,,,,,,,,,,,,,,,
664cf412f465d48105837dac,TCN,2024-06-24_11h47.16.877,LearnStrategy,2023.2.3,Win32,60.24096386,,,,,,,,,,,4,08,4,6,,,,,,,,,,,,,,,,,,,,,,,,,,,,,
664cf412f465d48105837dac,TCN,2024-06-24_11h47.16.877,LearnStrategy,2023.2.3,Win32,60.24096386,,,,,,,,,,,5,02,4,7,,,,,,,,,,,,,,,,,,,,,,,,,,,,,
664cf412f465d48105837dac,TCN,2024-06-24_11h47.16.877,LearnStrategy,2023.2.3,Win32,60.24096386,,,,,,,,,,,6,07,4,8,,,,,,,,,,,,,,,,,,,,,,,,,,,,,
664cf412f465d48105837dac,TCN,2024-06-24_11h47.16.877,LearnStrategy,2023.2.3,Win32,60.24096386,,,,,,,,,,,1,02,5,1,,,,,,,,,,,,,,,,,,,,,,,,,,,,,
664cf412f465d48105837dac,TCN,2024-06-24_11h47.16.877,LearnStrategy,2023.2.3,Win32,60.24096386,,,,,,,,,,,1,10,5,2,,,,,,,,,,,,,,,,,,,,,,,,,,,,,
664cf412f465d48105837dac,TCN,2024-06-24_11h47.16.877,LearnStrategy,2023.2.3,Win32,60.24096386,,,,,,,,,,,5,06,5,3,,,,,,,,,,,,,,,,,,,,,,,,,,,,,
664cf412f465d48105837dac,TCN,2024-06-24_11h47.16.877,LearnStrategy,2023.2.3,Win32,60.24096386,,,,,,,,,,,7,15,5,4,,,,,,,,,,,,,,,,,,,,,,,,,,,,,
664cf412f465d48105837dac,TCN,2024-06-24_11h47.16.877,LearnStrategy,2023.2.3,Win32,60.24096386,,,,,,,,,,,3,12,5,5,,,,,,,,,,,,,,,,,,,,,,,,,,,,,
664cf412f465d48105837dac,TCN,2024-06-24_11h47.16.877,LearnStrategy,2023.2.3,Win32,60.24096386,,,,,,,,,,,1,14,5,6,,,,,,,,,,,,,,,,,,,,,,,,,,,,,
664cf412f465d48105837dac,TCN,2024-06-24_11h47.16.877,LearnStrategy,2023.2.3,Win32,60.24096386,,,,,,,,,,,6,06,5,7,,,,,,,,,,,,,,,,,,,,,,,,,,,,,
664cf412f465d48105837dac,TCN,2024-06-24_11h47.16.877,LearnStrategy,2023.2.3,Win32,60.24096386,,,,,,,,,,,2,10,5,8,,,,,,,,,,,,,,,,,,,,,,,,,,,,,
664cf412f465d48105837dac,TCN,2024-06-24_11h47.16.877,LearnStrategy,2023.2.3,Win32,60.24096386,,,,,,,,,,,3,14,6,1,,,,,,,,,,,,,,,,,,,,,,,,,,,,,
664cf412f465d48105837dac,TCN,2024-06-24_11h47.16.877,LearnStrategy,2023.2.3,Win32,60.24096386,,,,,,,,,,,3,16,6,2,,,,,,,,,,,,,,,,,,,,,,,,,,,,,
664cf412f465d48105837dac,TCN,2024-06-24_11h47.16.877,LearnStrategy,2023.2.3,Win32,60.24096386,,,,,,,,,,,5,14,6,3,,,,,,,,,,,,,,,,,,,,,,,,,,,,,
664cf412f465d48105837dac,TCN,2024-06-24_11h47.16.877,LearnStrategy,2023.2.3,Win32,60.24096386,,,,,,,,,,,2,14,6,4,,,,,,,,,,,,,,,,,,,,,,,,,,,,,
664cf412f465d48105837dac,TCN,2024-06-24_11h47.16.877,LearnStrategy,2023.2.3,Win32,60.24096386,,,,,,,,,,,6,10,6,5,,,,,,,,,,,,,,,,,,,,,,,,,,,,,
664cf412f465d48105837dac,TCN,2024-06-24_11h47.16.877,LearnStrategy,2023.2.3,Win32,60.24096386,,,,,,,,,,,8,16,6,6,,,,,,,,,,,,,,,,,,,,,,,,,,,,,
664cf412f465d48105837dac,TCN,2024-06-24_11h47.16.877,LearnStrategy,2023.2.3,Win32,60.24096386,,,,,,,,,,,4,16,6,7,,,,,,,,,,,,,,,,,,,,,,,,,,,,,
664cf412f465d48105837dac,TCN,2024-06-24_11h47.16.877,LearnStrategy,2023.2.3,Win32,60.24096386,,,,,,,,,,,7,12,6,8,,,,,,,,,,,,,,,,,,,,,,,,,,,,,