participant,condition,date,expName,psychopyVersion,OS,frameRate,block,phase,trial,learn_mouse_2.x,learn_mouse_2.y,learn_mouse_2.leftButton,learn_mouse_2.midButton,learn_mouse_2.rightButton,learn_mouse_2.time,learn_mouse_2.clicked_name,cat,token,row,col,t_select,cat_mouse_l.x,cat_mouse_l.y,cat_mouse_l.leftButton,cat_mouse_l.midButton,cat_mouse_l.rightButton,cat_mouse_l.time,cat_mouse_l.clicked_name,resp,t_resp,corr,train_trials.thisRepN,train_trials.thisTrialN,train_trials.thisN,train_trials.thisIndex,train_trials.ran,cat_mouse_t.x,cat_mouse_t.y,cat_mouse_t.leftButton,cat_mouse_t.midButton,cat_mouse_t.rightButton,cat_mouse_t.time,cat_mouse_t.clicked_name,test_trials.thisRepN,test_trials.thisTrialN,test_trials.thisN,test_trials.thisIndex,test_trials.ran,Bonus
6650d8bb5a4e87dbcf05fd21,TCR,2024-06-24_14h46.31.372,LearnStrategy,2023.2.3,Win32,58.82352941,,,,,,,,,,,,,,,,,,,,,,,,,,,,,,,,,,,,,,,,,,,
6650d8bb5a4e87dbcf05fd21,TCR,2024-06-24_14h46.31.372,LearnStrategy,2023.2.3,Win32,58.82352941,1,1,1,0.004444444,-0.003333333,1,0,0,1.697,rock_grid_rect_2,2,10,-1,-1,1.697,-0.418888889,-0.416666667,1,0,0,11.804,Obsidian_rect,5,11.804,0,0,0,0,0,1,,,,,,,,,,,,,
6650d8bb5a4e87dbcf05fd21,TCR,2024-06-24_14h46.31.372,LearnStrategy,2023.2.3,Win32,58.82352941,1,1,2,-0.083333333,-0.002222222,1,0,0,1.162,rock_grid_rect_2,3,06,-1,-1,1.162,0.153333333,-0.238888889,1,0,0,5.417,Diorite_rect,3,5.417,1,1,0,1,0,1,,,,,,,,,,,,,
6650d8bb5a4e87dbcf05fd21,TCR,2024-06-24_14h46.31.372,LearnStrategy,2023.2.3,Win32,58.82352941,1,1,3,-0.127777778,-0.001111111,1,0,0,0.78,rock_grid_rect_2,4,05,-1,-1,0.78,-0.468888889,-0.255555556,1,0,0,5.415,Andesite_rect,1,5.415,0,2,0,2,0,1,,,,,,,,,,,,,
6650d8bb5a4e87dbcf05fd21,TCR,2024-06-24_14h46.31.372,LearnStrategy,2023.2.3,Win32,58.82352941,1,1,4,-0.001111111,0.004444444,1,0,0,0.813,rock_grid_rect_2,7,04,-1,-1,0.813,-0.131111111,-0.414444444,1,0,0,3.47,Pegmatite_rect,6,3.47,0,3,0,3,0,1,,,,,,,,,,,,,
6650d8bb5a4e87dbcf05fd21,TCR,2024-06-24_14h46.31.372,LearnStrategy,2023.2.3,Win32,58.82352941,1,1,5,0.092222222,0.012222222,1,0,0,1.113,rock_grid_rect_2,8,16,-1,-1,1.113,0.115555556,-0.244444444,1,0,0,4.052,Diorite_rect,3,4.052,0,4,0,4,0,1,,,,,,,,,,,,,
6650d8bb5a4e87dbcf05fd21,TCR,2024-06-24_14h46.31.372,LearnStrategy,2023.2.3,Win32,58.82352941,1,1,6,0.038888889,-0.023333333,1,0,0,0.58,rock_grid_rect_2,1,06,-1,-1,0.58,0.166666667,-0.254444444,1,0,0,4.102,Diorite_rect,3,4.102,0,5,0,5,0,1,,,,,,,,,,,,,
6650d8bb5a4e87dbcf05fd21,TCR,2024-06-24_14h46.31.372,LearnStrategy,2023.2.3,Win32,58.82352941,1,1,7,-0.096666667,-0.004444444,1,0,0,0.846,rock_grid_rect_2,5,10,-1,-1,0.846,-0.395555556,-0.411111111,1,0,0,1.756,Obsidian_rect,5,1.756,1,6,0,6,0,1,,,,,,,,,,,,,
6650d8bb5a4e87dbcf05fd21,TCR,2024-06-24_14h46.31.372,LearnStrategy,2023.2.3,Win32,58.82352941,1,1,8,-0.158888889,-0.002222222,1,0,0,0.631,rock_grid_rect_2,6,10,-1,-1,0.631,-0.118888889,-0.405555556,1,0,0,3.139,Pegmatite_rect,6,3.139,1,7,0,7,0,1,,,,,,,,,,,,,
6650d8bb5a4e87dbcf05fd21,TCR,2024-06-24_14h46.31.372,LearnStrategy,2023.2.3,Win32,58.82352941,1,1,9,-0.032222222,0,1,0,0,0.713,rock_grid_rect_2,6,16,-1,-1,0.713,0.155555556,-0.253333333,1,0,0,17.028,Diorite_rect,3,17.028,0,8,0,8,0,1,,,,,,,,,,,,,
6650d8bb5a4e87dbcf05fd21,TCR,2024-06-24_14h46.31.372,LearnStrategy,2023.2.3,Win32,58.82352941,1,1,10,-0.003333333,0.003333333,1,0,0,0.78,rock_grid_rect_2,5,07,-1,-1,0.78,-0.185555556,-0.406666667,1,0,0,9.425,Pegmatite_rect,6,9.425,0,9,0,9,0,1,,,,,,,,,,,,,
6650d8bb5a4e87dbcf05fd21,TCR,2024-06-24_14h46.31.372,LearnStrategy,2023.2.3,Win32,58.82352941,1,1,11,-0.07,0.008888889,1,0,0,1.096,rock_grid_rect_2,8,03,-1,-1,1.096,0.406666667,-0.394444444,1,0,0,4.535,Pumice_rect,8,4.535,1,10,0,10,0,1,,,,,,,,,,,,,
6650d8bb5a4e87dbcf05fd21,TCR,2024-06-24_14h46.31.372,LearnStrategy,2023.2.3,Win32,58.82352941,1,1,12,-0.041111111,-0.014444444,1,0,0,0.879,rock_grid_rect_2,7,07,-1,-1,0.879,0.341111111,-0.244444444,1,0,0,7.413,Gabbro_rect,4,7.413,0,11,0,11,0,1,,,,,,,,,,,,,
6650d8bb5a4e87dbcf05fd21,TCR,2024-06-24_14h46.31.372,LearnStrategy,2023.2.3,Win32,58.82352941,1,1,13,-0.032222222,-0.023333333,1,0,0,0.828,rock_grid_rect_2,4,14,-1,-1,0.828,-0.147777778,-0.243333333,1,0,0,2.972,Basalt_rect,2,2.972,0,12,0,12,0,1,,,,,,,,,,,,,
6650d8bb5a4e87dbcf05fd21,TCR,2024-06-24_14h46.31.372,LearnStrategy,2023.2.3,Win32,58.82352941,1,1,14,-0.022222222,-0.007777778,1,0,0,0.731,rock_grid_rect_2,2,09,-1,-1,0.731,0.106666667,-0.253333333,1,0,0,4.9,Diorite_rect,3,4.9,0,13,0,13,0,1,,,,,,,,,,,,,
6650d8bb5a4e87dbcf05fd21,TCR,2024-06-24_14h46.31.372,LearnStrategy,2023.2.3,Win32,58.82352941,1,1,15,0.012222222,0,1,0,0,0.746,rock_grid_rect_2,3,12,-1,-1,0.746,0.115555556,-0.414444444,1,0,0,7.439,Peridotite_rect,7,7.439,0,14,0,14,0,1,,,,,,,,,,,,,
6650d8bb5a4e87dbcf05fd21,TCR,2024-06-24_14h46.31.372,LearnStrategy,2023.2.3,Win32,58.82352941,1,1,16,0.066666667,0.006666667,1,0,0,0.665,rock_grid_rect_2,1,10,-1,-1,0.665,-0.415555556,-0.236666667,1,0,0,4.055,Andesite_rect,1,4.055,1,15,0,15,0,1,,,,,,,,,,,,,
6650d8bb5a4e87dbcf05fd21,TCR,2024-06-24_14h46.31.372,LearnStrategy,2023.2.3,Win32,58.82352941,1,2,1,,,,,,,,1,09,,,,,,,,,,,1,1.679,1,,,,,,-0.431111111,-0.264444444,1,0,0,1.679,Andesite_rect,0,0,0,0,1,
6650d8bb5a4e87dbcf05fd21,TCR,2024-06-24_14h46.31.372,LearnStrategy,2023.2.3,Win32,58.82352941,1,2,2,,,,,,,,6,03,,,,,,,,,,,6,5.216,1,,,,,,-0.067777778,-0.404444444,1,0,0,5.216,Pegmatite_rect,1,0,1,0,1,
6650d8bb5a4e87dbcf05fd21,TCR,2024-06-24_14h46.31.372,LearnStrategy,2023.2.3,Win32,58.82352941,1,2,3,,,,,,,,6,09,,,,,,,,,,,7,4.4,0,,,,,,0.154444444,-0.405555556,1,0,0,4.4,Peridotite_rect,2,0,2,0,1,
6650d8bb5a4e87dbcf05fd21,TCR,2024-06-24_14h46.31.372,LearnStrategy,2023.2.3,Win32,58.82352941,1,2,4,,,,,,,,5,11,,,,,,,,,,,5,1.125,1,,,,,,-0.357777778,-0.39,1,0,0,1.125,Obsidian_rect,3,0,3,0,1,
6650d8bb5a4e87dbcf05fd21,TCR,2024-06-24_14h46.31.372,LearnStrategy,2023.2.3,Win32,58.82352941,1,2,5,,,,,,,,7,15,,,,,,,,,,,8,5.883,0,,,,,,0.315555556,-0.421111111,1,0,0,5.883,Pumice_rect,4,0,4,0,1,
6650d8bb5a4e87dbcf05fd21,TCR,2024-06-24_14h46.31.372,LearnStrategy,2023.2.3,Win32,58.82352941,1,2,6,,,,,,,,3,08,,,,,,,,,,,4,4.076,0,,,,,,0.443333333,-0.24,1,0,0,4.076,Gabbro_rect,5,0,5,0,1,
6650d8bb5a4e87dbcf05fd21,TCR,2024-06-24_14h46.31.372,LearnStrategy,2023.2.3,Win32,58.82352941,1,2,7,,,,,,,,4,16,,,,,,,,,,,5,1.236,0,,,,,,-0.377777778,-0.416666667,1,0,0,1.236,Obsidian_rect,6,0,6,0,1,
6650d8bb5a4e87dbcf05fd21,TCR,2024-06-24_14h46.31.372,LearnStrategy,2023.2.3,Win32,58.82352941,1,2,8,,,,,,,,5,12,,,,,,,,,,,5,1.64,1,,,,,,-0.434444444,-0.417777778,1,0,0,1.64,Obsidian_rect,7,0,7,0,1,
6650d8bb5a4e87dbcf05fd21,TCR,2024-06-24_14h46.31.372,LearnStrategy,2023.2.3,Win32,58.82352941,1,2,9,,,,,,,,4,15,,,,,,,,,,,2,2.438,0,,,,,,-0.147777778,-0.255555556,1,0,0,2.438,Basalt_rect,8,0,8,0,1,
6650d8bb5a4e87dbcf05fd21,TCR,2024-06-24_14h46.31.372,LearnStrategy,2023.2.3,Win32,58.82352941,1,2,10,,,,,,,,2,02,,,,,,,,,,,3,3.486,0,,,,,,0.107777778,-0.254444444,1,0,0,3.486,Diorite_rect,9,0,9,0,1,
6650d8bb5a4e87dbcf05fd21,TCR,2024-06-24_14h46.31.372,LearnStrategy,2023.2.3,Win32,58.82352941,1,2,11,,,,,,,,7,14,,,,,,,,,,,8,5.631,0,,,,,,0.327777778,-0.394444444,1,0,0,5.631,Pumice_rect,10,0,10,0,1,
6650d8bb5a4e87dbcf05fd21,TCR,2024-06-24_14h46.31.372,LearnStrategy,2023.2.3,Win32,58.82352941,1,2,12,,,,,,,,1,05,,,,,,,,,,,6,6.447,0,,,,,,-0.118888889,-0.403333333,1,0,0,6.447,Pegmatite_rect,11,0,11,0,1,
6650d8bb5a4e87dbcf05fd21,TCR,2024-06-24_14h46.31.372,LearnStrategy,2023.2.3,Win32,58.82352941,1,2,13,,,,,,,,2,12,,,,,,,,,,,2,2.654,1,,,,,,-0.087777778,-0.258888889,1,0,0,2.654,Basalt_rect,12,0,12,0,1,
6650d8bb5a4e87dbcf05fd21,TCR,2024-06-24_14h46.31.372,LearnStrategy,2023.2.3,Win32,58.82352941,1,2,14,,,,,,,,8,13,,,,,,,,,,,4,2.38,0,,,,,,0.398888889,-0.244444444,1,0,0,2.38,Gabbro_rect,13,0,13,0,1,
6650d8bb5a4e87dbcf05fd21,TCR,2024-06-24_14h46.31.372,LearnStrategy,2023.2.3,Win32,58.82352941,1,2,15,,,,,,,,8,02,,,,,,,,,,,8,2.582,1,,,,,,0.367777778,-0.398888889,1,0,0,2.582,Pumice_rect,14,0,14,0,1,
6650d8bb5a4e87dbcf05fd21,TCR,2024-06-24_14h46.31.372,LearnStrategy,2023.2.3,Win32,58.82352941,1,2,16,,,,,,,,3,16,,,,,,,,,,,3,2.629,1,,,,,,0.077777778,-0.244444444,1,0,0,2.629,Diorite_rect,15,0,15,0,1,
6650d8bb5a4e87dbcf05fd21,TCR,2024-06-24_14h46.31.372,LearnStrategy,2023.2.3,Win32,58.82352941,2,1,1,0.011111111,-0.012222222,1,0,0,2.232,rock_grid_rect_2,6,15,-1,-1,2.232,0.108888889,-0.41,1,0,0,6.741,Peridotite_rect,7,6.741,0,0,0,0,0,1,,,,,,,,,,,,,
6650d8bb5a4e87dbcf05fd21,TCR,2024-06-24_14h46.31.372,LearnStrategy,2023.2.3,Win32,58.82352941,2,1,2,-0.076666667,0.001111111,1,0,0,0.78,rock_grid_rect_2,8,16,-1,-1,0.78,0.392222222,-0.408888889,1,0,0,3.637,Pumice_rect,8,3.637,1,1,0,1,0,1,,,,,,,,,,,,,
6650d8bb5a4e87dbcf05fd21,TCR,2024-06-24_14h46.31.372,LearnStrategy,2023.2.3,Win32,58.82352941,2,1,3,-0.047777778,-0.013333333,1,0,0,0.731,rock_grid_rect_2,3,14,-1,-1,0.731,-0.065555556,-0.406666667,1,0,0,4.586,Pegmatite_rect,6,4.586,0,2,0,2,0,1,,,,,,,,,,,,,
6650d8bb5a4e87dbcf05fd21,TCR,2024-06-24_14h46.31.372,LearnStrategy,2023.2.3,Win32,58.82352941,2,1,4,0.011111111,0.007777778,1,0,0,0.963,rock_grid_rect_2,2,08,-1,-1,0.963,-0.424444444,-0.235555556,1,0,0,1.956,Andesite_rect,1,1.956,0,3,0,3,0,1,,,,,,,,,,,,,
6650d8bb5a4e87dbcf05fd21,TCR,2024-06-24_14h46.31.372,LearnStrategy,2023.2.3,Win32,58.82352941,2,1,5,-0.02,-0.018888889,1,0,0,0.812,rock_grid_rect_2,6,08,-1,-1,0.812,0.492222222,-0.243333333,1,0,0,5.101,Gabbro_rect,4,5.101,0,4,0,4,0,1,,,,,,,,,,,,,
6650d8bb5a4e87dbcf05fd21,TCR,2024-06-24_14h46.31.372,LearnStrategy,2023.2.3,Win32,58.82352941,2,1,6,-0.007777778,-0.006666667,1,0,0,0.863,rock_grid_rect_2,2,16,-1,-1,0.863,-0.125555556,-0.26,1,0,0,4.268,Basalt_rect,2,4.268,1,5,0,5,0,1,,,,,,,,,,,,,
6650d8bb5a4e87dbcf05fd21,TCR,2024-06-24_14h46.31.372,LearnStrategy,2023.2.3,Win32,58.82352941,2,1,7,0.004444444,-0.007777778,1,0,0,0.581,rock_grid_rect_2,4,12,-1,-1,0.581,-0.421111111,-0.247777778,1,0,0,2.338,Andesite_rect,1,2.338,0,6,0,6,0,1,,,,,,,,,,,,,
6650d8bb5a4e87dbcf05fd21,TCR,2024-06-24_14h46.31.372,LearnStrategy,2023.2.3,Win32,58.82352941,2,1,8,0.127777778,0.001111111,1,0,0,0.773,rock_grid_rect_2,8,10,-1,-1,0.773,0.071111111,-0.264444444,1,0,0,4.667,Diorite_rect,3,4.667,0,7,0,7,0,1,,,,,,,,,,,,,
6650d8bb5a4e87dbcf05fd21,TCR,2024-06-24_14h46.31.372,LearnStrategy,2023.2.3,Win32,58.82352941,2,1,9,-0.026666667,-0.013333333,1,0,0,0.797,rock_grid_rect_2,4,08,-1,-1,0.797,-0.14,-0.266666667,1,0,0,6.332,Basalt_rect,2,6.332,0,8,0,8,0,1,,,,,,,,,,,,,
6650d8bb5a4e87dbcf05fd21,TCR,2024-06-24_14h46.31.372,LearnStrategy,2023.2.3,Win32,58.82352941,2,1,10,0.072222222,-0.012222222,1,0,0,0.614,rock_grid_rect_2,7,10,-1,-1,0.614,0.133333333,-0.398888889,1,0,0,4.319,Peridotite_rect,7,4.319,1,9,0,9,0,1,,,,,,,,,,,,,
6650d8bb5a4e87dbcf05fd21,TCR,2024-06-24_14h46.31.372,LearnStrategy,2023.2.3,Win32,58.82352941,2,1,11,-0.006666667,0.007777778,1,0,0,0.713,rock_grid_rect_2,1,16,-1,-1,0.713,0.387777778,-0.414444444,1,0,0,3.619,Pumice_rect,8,3.619,0,10,0,10,0,1,,,,,,,,,,,,,
6650d8bb5a4e87dbcf05fd21,TCR,2024-06-24_14h46.31.372,LearnStrategy,2023.2.3,Win32,58.82352941,2,1,12,-0.037777778,-0.003333333,1,0,0,0.746,rock_grid_rect_2,3,10,-1,-1,0.746,0.104444444,-0.416666667,1,0,0,2.488,Peridotite_rect,7,2.488,0,11,0,11,0,1,,,,,,,,,,,,,
6650d8bb5a4e87dbcf05fd21,TCR,2024-06-24_14h46.31.372,LearnStrategy,2023.2.3,Win32,58.82352941,2,1,13,0.005555556,0.001111111,1,0,0,0.697,rock_grid_rect_2,7,12,-1,-1,0.697,0.418888889,-0.261111111,1,0,0,4.468,Gabbro_rect,4,4.468,0,12,0,12,0,1,,,,,,,,,,,,,
6650d8bb5a4e87dbcf05fd21,TCR,2024-06-24_14h46.31.372,LearnStrategy,2023.2.3,Win32,58.82352941,2,1,14,-0.003333333,-0.005555556,1,0,0,0.63,rock_grid_rect_2,1,07,-1,-1,0.63,-0.414444444,-0.245555556,1,0,0,1.923,Andesite_rect,1,1.923,1,13,0,13,0,1,,,,,,,,,,,,,
6650d8bb5a4e87dbcf05fd21,TCR,2024-06-24_14h46.31.372,LearnStrategy,2023.2.3,Win32,58.82352941,2,1,15,-0.004444444,0.012222222,1,0,0,0.647,rock_grid_rect_2,7,12,-1,-1,0.647,0.391111111,-0.268888889,1,0,0,7.596,Gabbro_rect,4,7.596,0,14,0,14,0,1,,,,,,,,,,,,,
6650d8bb5a4e87dbcf05fd21,TCR,2024-06-24_14h46.31.372,LearnStrategy,2023.2.3,Win32,58.82352941,2,1,16,-0.007777778,-0.013333333,1,0,0,0.664,rock_grid_rect_2,4,01,-1,-1,0.664,0.143333333,-0.245555556,1,0,0,4.202,Diorite_rect,3,4.202,0,15,0,15,0,1,,,,,,,,,,,,,
6650d8bb5a4e87dbcf05fd21,TCR,2024-06-24_14h46.31.372,LearnStrategy,2023.2.3,Win32,58.82352941,2,2,1,,,,,,,,6,12,,,,,,,,,,,1,6.331,0,,,,,,-0.3,-0.24,1,0,0,6.331,Andesite_rect,0,0,0,0,1,
6650d8bb5a4e87dbcf05fd21,TCR,2024-06-24_14h46.31.372,LearnStrategy,2023.2.3,Win32,58.82352941,2,2,2,,,,,,,,8,04,,,,,,,,,,,2,1.822,0,,,,,,-0.113333333,-0.26,1,0,0,1.822,Basalt_rect,1,0,1,0,1,
6650d8bb5a4e87dbcf05fd21,TCR,2024-06-24_14h46.31.372,LearnStrategy,2023.2.3,Win32,58.82352941,2,2,3,,,,,,,,4,03,,,,,,,,,,,7,4.467,0,,,,,,0.114444444,-0.411111111,1,0,0,4.467,Peridotite_rect,2,0,2,0,1,
6650d8bb5a4e87dbcf05fd21,TCR,2024-06-24_14h46.31.372,LearnStrategy,2023.2.3,Win32,58.82352941,2,2,4,,,,,,,,5,02,,,,,,,,,,,5,1.264,1,,,,,,-0.44,-0.396666667,1,0,0,1.264,Obsidian_rect,3,0,3,0,1,
6650d8bb5a4e87dbcf05fd21,TCR,2024-06-24_14h46.31.372,LearnStrategy,2023.2.3,Win32,58.82352941,2,2,5,,,,,,,,7,02,,,,,,,,,,,7,3.928,1,,,,,,0.12,-0.413333333,1,0,0,3.928,Peridotite_rect,4,0,4,0,1,
6650d8bb5a4e87dbcf05fd21,TCR,2024-06-24_14h46.31.372,LearnStrategy,2023.2.3,Win32,58.82352941,2,2,6,,,,,,,,3,13,,,,,,,,,,,8,3.062,0,,,,,,0.394444444,-0.395555556,1,0,0,3.062,Pumice_rect,5,0,5,0,1,
6650d8bb5a4e87dbcf05fd21,TCR,2024-06-24_14h46.31.372,LearnStrategy,2023.2.3,Win32,58.82352941,2,2,7,,,,,,,,2,01,,,,,,,,,,,2,2.097,1,,,,,,-0.106666667,-0.235555556,1,0,0,2.097,Basalt_rect,6,0,6,0,1,
6650d8bb5a4e87dbcf05fd21,TCR,2024-06-24_14h46.31.372,LearnStrategy,2023.2.3,Win32,58.82352941,2,2,8,,,,,,,,2,11,,,,,,,,,,,4,2.696,0,,,,,,0.321111111,-0.255555556,1,0,0,2.696,Gabbro_rect,7,0,7,0,1,
6650d8bb5a4e87dbcf05fd21,TCR,2024-06-24_14h46.31.372,LearnStrategy,2023.2.3,Win32,58.82352941,2,2,9,,,,,,,,7,05,,,,,,,,,,,8,2.563,0,,,,,,0.353333333,-0.393333333,1,0,0,2.563,Pumice_rect,8,0,8,0,1,
6650d8bb5a4e87dbcf05fd21,TCR,2024-06-24_14h46.31.372,LearnStrategy,2023.2.3,Win32,58.82352941,2,2,10,,,,,,,,6,07,,,,,,,,,,,6,2.877,1,,,,,,-0.054444444,-0.387777778,1,0,0,2.877,Pegmatite_rect,9,0,9,0,1,
6650d8bb5a4e87dbcf05fd21,TCR,2024-06-24_14h46.31.372,LearnStrategy,2023.2.3,Win32,58.82352941,2,2,11,,,,,,,,1,11,,,,,,,,,,,1,3.594,1,,,,,,-0.402222222,-0.264444444,1,0,0,3.594,Andesite_rect,10,0,10,0,1,
6650d8bb5a4e87dbcf05fd21,TCR,2024-06-24_14h46.31.372,LearnStrategy,2023.2.3,Win32,58.82352941,2,2,12,,,,,,,,5,05,,,,,,,,,,,5,3.013,1,,,,,,-0.403333333,-0.396666667,1,0,0,3.013,Obsidian_rect,11,0,11,0,1,
6650d8bb5a4e87dbcf05fd21,TCR,2024-06-24_14h46.31.372,LearnStrategy,2023.2.3,Win32,58.82352941,2,2,13,,,,,,,,3,11,,,,,,,,,,,6,6.473,0,,,,,,-0.215555556,-0.397777778,1,0,0,6.473,Pegmatite_rect,12,0,12,0,1,
6650d8bb5a4e87dbcf05fd21,TCR,2024-06-24_14h46.31.372,LearnStrategy,2023.2.3,Win32,58.82352941,2,2,14,,,,,,,,1,14,,,,,,,,,,,8,3.518,0,,,,,,0.386666667,-0.401111111,1,0,0,3.518,Pumice_rect,13,0,13,0,1,
6650d8bb5a4e87dbcf05fd21,TCR,2024-06-24_14h46.31.372,LearnStrategy,2023.2.3,Win32,58.82352941,2,2,15,,,,,,,,4,11,,,,,,,,,,,2,1.805,0,,,,,,-0.112222222,-0.242222222,1,0,0,1.805,Basalt_rect,14,0,14,0,1,
6650d8bb5a4e87dbcf05fd21,TCR,2024-06-24_14h46.31.372,LearnStrategy,2023.2.3,Win32,58.82352941,2,2,16,,,,,,,,8,05,,,,,,,,,,,4,3.004,0,,,,,,0.363333333,-0.234444444,1,0,0,3.004,Gabbro_rect,15,0,15,0,1,
6650d8bb5a4e87dbcf05fd21,TCR,2024-06-24_14h46.31.372,LearnStrategy,2023.2.3,Win32,58.82352941,3,1,1,0.074444444,0.007777778,1,0,0,0.997,rock_grid_rect_2,8,08,-1,-1,0.997,-0.161111111,-0.251111111,1,0,0,1.34,Basalt_rect,2,1.34,0,0,0,0,0,1,,,,,,,,,,,,,
6650d8bb5a4e87dbcf05fd21,TCR,2024-06-24_14h46.31.372,LearnStrategy,2023.2.3,Win32,58.82352941,3,1,2,0.071111111,-0.014444444,1,0,0,0.797,rock_grid_rect_2,3,14,-1,-1,0.797,0.128888889,-0.386666667,1,0,0,2.706,Peridotite_rect,7,2.706,0,1,0,1,0,1,,,,,,,,,,,,,
6650d8bb5a4e87dbcf05fd21,TCR,2024-06-24_14h46.31.372,LearnStrategy,2023.2.3,Win32,58.82352941,3,1,3,0.033333333,0.003333333,1,0,0,0.78,rock_grid_rect_2,6,15,-1,-1,0.78,0.398888889,-0.253333333,1,0,0,1.724,Gabbro_rect,4,1.724,0,2,0,2,0,1,,,,,,,,,,,,,
6650d8bb5a4e87dbcf05fd21,TCR,2024-06-24_14h46.31.372,LearnStrategy,2023.2.3,Win32,58.82352941,3,1,4,0.031111111,-0.005555556,1,0,0,0.631,rock_grid_rect_2,8,03,-1,-1,0.631,-0.134444444,-0.241111111,1,0,0,1.641,Basalt_rect,2,1.641,0,3,0,3,0,1,,,,,,,,,,,,,
6650d8bb5a4e87dbcf05fd21,TCR,2024-06-24_14h46.31.372,LearnStrategy,2023.2.3,Win32,58.82352941,3,1,5,-0.014444444,-0.012222222,1,0,0,0.747,rock_grid_rect_2,6,05,-1,-1,0.747,-0.034444444,-0.408888889,1,0,0,4.669,Pegmatite_rect,6,4.669,1,4,0,4,0,1,,,,,,,,,,,,,
6650d8bb5a4e87dbcf05fd21,TCR,2024-06-24_14h46.31.372,LearnStrategy,2023.2.3,Win32,58.82352941,3,1,6,0.031111111,-0.022222222,1,0,0,0.496,rock_grid_rect_2,1,04,-1,-1,0.496,0.401111111,-0.407777778,1,0,0,2.256,Pumice_rect,8,2.256,0,5,0,5,0,1,,,,,,,,,,,,,
6650d8bb5a4e87dbcf05fd21,TCR,2024-06-24_14h46.31.372,LearnStrategy,2023.2.3,Win32,58.82352941,3,1,7,0.04,-0.003333333,1,0,0,0.813,rock_grid_rect_2,4,14,-1,-1,0.813,-0.103333333,-0.256666667,1,0,0,2.272,Basalt_rect,2,2.272,0,6,0,6,0,1,,,,,,,,,,,,,
6650d8bb5a4e87dbcf05fd21,TCR,2024-06-24_14h46.31.372,LearnStrategy,2023.2.3,Win32,58.82352941,3,1,8,0.091111111,-0.006666667,1,0,0,0.498,rock_grid_rect_2,4,05,-1,-1,0.498,0.358888889,-0.266666667,1,0,0,7.812,Gabbro_rect,4,7.812,1,7,0,7,0,1,,,,,,,,,,,,,
6650d8bb5a4e87dbcf05fd21,TCR,2024-06-24_14h46.31.372,LearnStrategy,2023.2.3,Win32,58.82352941,3,1,9,0.071111111,0.008888889,1,0,0,0.913,rock_grid_rect_2,2,04,-1,-1,0.913,-0.128888889,-0.261111111,1,0,0,0.991,Basalt_rect,2,0.991,1,8,0,8,0,1,,,,,,,,,,,,,
6650d8bb5a4e87dbcf05fd21,TCR,2024-06-24_14h46.31.372,LearnStrategy,2023.2.3,Win32,58.82352941,3,1,10,-0.054444444,-0.008888889,1,0,0,0.448,rock_grid_rect_2,2,04,-1,-1,0.448,-0.131111111,-0.262222222,1,0,0,1.076,Basalt_rect,2,1.076,1,9,0,9,0,1,,,,,,,,,,,,,
6650d8bb5a4e87dbcf05fd21,TCR,2024-06-24_14h46.31.372,LearnStrategy,2023.2.3,Win32,58.82352941,3,1,11,-0.063333333,0.005555556,1,0,0,0.482,rock_grid_rect_2,7,12,-1,-1,0.482,0.445555556,-0.256666667,1,0,0,4.319,Gabbro_rect,4,4.319,0,10,0,10,0,1,,,,,,,,,,,,,
6650d8bb5a4e87dbcf05fd21,TCR,2024-06-24_14h46.31.372,LearnStrategy,2023.2.3,Win32,58.82352941,3,1,12,0.072222222,0.006666667,1,0,0,0.763,rock_grid_rect_2,4,01,-1,-1,0.763,0.508888889,-0.255555556,1,0,0,1.706,Gabbro_rect,4,1.706,1,11,0,11,0,1,,,,,,,,,,,,,
6650d8bb5a4e87dbcf05fd21,TCR,2024-06-24_14h46.31.372,LearnStrategy,2023.2.3,Win32,58.82352941,3,1,13,0.167777778,0.008888889,1,0,0,0.563,rock_grid_rect_2,3,10,-1,-1,0.563,0.167777778,-0.408888889,1,0,0,3.936,Peridotite_rect,7,3.936,0,12,0,12,0,1,,,,,,,,,,,,,
6650d8bb5a4e87dbcf05fd21,TCR,2024-06-24_14h46.31.372,LearnStrategy,2023.2.3,Win32,58.82352941,3,1,14,0.032222222,-0.013333333,1,0,0,0.764,rock_grid_rect_2,7,13,-1,-1,0.764,0.401111111,-0.396666667,1,0,0,3.802,Pumice_rect,8,3.802,0,13,0,13,0,1,,,,,,,,,,,,,
6650d8bb5a4e87dbcf05fd21,TCR,2024-06-24_14h46.31.372,LearnStrategy,2023.2.3,Win32,58.82352941,3,1,15,0.021111111,-0.013333333,1,0,0,0.664,rock_grid_rect_2,8,16,-1,-1,0.664,0.427777778,-0.257777778,1,0,0,2.072,Gabbro_rect,4,2.072,0,14,0,14,0,1,,,,,,,,,,,,,
6650d8bb5a4e87dbcf05fd21,TCR,2024-06-24_14h46.31.372,LearnStrategy,2023.2.3,Win32,58.82352941,3,1,16,0.04,-0.007777778,1,0,0,0.53,rock_grid_rect_2,1,06,-1,-1,0.53,-0.306666667,-0.232222222,1,0,0,1.375,Andesite_rect,1,1.375,1,15,0,15,0,1,,,,,,,,,,,,,
6650d8bb5a4e87dbcf05fd21,TCR,2024-06-24_14h46.31.372,LearnStrategy,2023.2.3,Win32,58.82352941,3,2,1,,,,,,,,3,02,,,,,,,,,,,1,1.107,0,,,,,,-0.386666667,-0.262222222,1,0,0,1.107,Andesite_rect,0,0,0,0,1,
6650d8bb5a4e87dbcf05fd21,TCR,2024-06-24_14h46.31.372,LearnStrategy,2023.2.3,Win32,58.82352941,3,2,2,,,,,,,,4,13,,,,,,,,,,,8,1.939,0,,,,,,0.366666667,-0.384444444,1,0,0,1.939,Pumice_rect,1,0,1,0,1,
6650d8bb5a4e87dbcf05fd21,TCR,2024-06-24_14h46.31.372,LearnStrategy,2023.2.3,Win32,58.82352941,3,2,3,,,,,,,,7,06,,,,,,,,,,,3,2.321,0,,,,,,0.116666667,-0.247777778,1,0,0,2.321,Diorite_rect,2,0,2,0,1,
6650d8bb5a4e87dbcf05fd21,TCR,2024-06-24_14h46.31.372,LearnStrategy,2023.2.3,Win32,58.82352941,3,2,4,,,,,,,,5,16,,,,,,,,,,,5,1.007,1,,,,,,-0.358888889,-0.407777778,1,0,0,1.007,Obsidian_rect,3,0,3,0,1,
6650d8bb5a4e87dbcf05fd21,TCR,2024-06-24_14h46.31.372,LearnStrategy,2023.2.3,Win32,58.82352941,3,2,5,,,,,,,,6,13,,,,,,,,,,,4,3.802,0,,,,,,0.367777778,-0.231111111,1,0,0,3.802,Gabbro_rect,4,0,4,0,1,
6650d8bb5a4e87dbcf05fd21,TCR,2024-06-24_14h46.31.372,LearnStrategy,2023.2.3,Win32,58.82352941,3,2,6,,,,,,,,1,02,,,,,,,,,,,8,5.931,0,,,,,,0.452222222,-0.416666667,1,0,0,5.931,Pumice_rect,5,0,5,0,1,
6650d8bb5a4e87dbcf05fd21,TCR,2024-06-24_14h46.31.372,LearnStrategy,2023.2.3,Win32,58.82352941,3,2,7,,,,,,,,5,06,,,,,,,,,,,5,1.056,1,,,,,,-0.423333333,-0.398888889,1,0,0,1.056,Obsidian_rect,6,0,6,0,1,
6650d8bb5a4e87dbcf05fd21,TCR,2024-06-24_14h46.31.372,LearnStrategy,2023.2.3,Win32,58.82352941,3,2,8,,,,,,,,6,06,,,,,,,,,,,4,8.078,0,,,,,,0.365555556,-0.263333333,1,0,0,8.078,Gabbro_rect,7,0,7,0,1,
6650d8bb5a4e87dbcf05fd21,TCR,2024-06-24_14h46.31.372,LearnStrategy,2023.2.3,Win32,58.82352941,3,2,9,,,,,,,,2,14,,,,,,,,,,,7,3.752,0,,,,,,0.138888889,-0.402222222,1,0,0,3.752,Peridotite_rect,8,0,8,0,1,
6650d8bb5a4e87dbcf05fd21,TCR,2024-06-24_14h46.31.372,LearnStrategy,2023.2.3,Win32,58.82352941,3,2,10,,,,,,,,7,16,,,,,,,,,,,8,5.126,0,,,,,,0.383333333,-0.392222222,1,0,0,5.126,Pumice_rect,9,0,9,0,1,
6650d8bb5a4e87dbcf05fd21,TCR,2024-06-24_14h46.31.372,LearnStrategy,2023.2.3,Win32,58.82352941,3,2,11,,,,,,,,8,06,,,,,,,,,,,4,2.8,0,,,,,,0.384444444,-0.244444444,1,0,0,2.8,Gabbro_rect,10,0,10,0,1,
6650d8bb5a4e87dbcf05fd21,TCR,2024-06-24_14h46.31.372,LearnStrategy,2023.2.3,Win32,58.82352941,3,2,12,,,,,,,,4,10,,,,,,,,,,,7,5.051,0,,,,,,0.064444444,-0.406666667,1,0,0,5.051,Peridotite_rect,11,0,11,0,1,
6650d8bb5a4e87dbcf05fd21,TCR,2024-06-24_14h46.31.372,LearnStrategy,2023.2.3,Win32,58.82352941,3,2,13,,,,,,,,2,05,,,,,,,,,,,2,1.524,1,,,,,,-0.123333333,-0.257777778,1,0,0,1.524,Basalt_rect,12,0,12,0,1,
6650d8bb5a4e87dbcf05fd21,TCR,2024-06-24_14h46.31.372,LearnStrategy,2023.2.3,Win32,58.82352941,3,2,14,,,,,,,,8,14,,,,,,,,,,,4,2.771,0,,,,,,0.336666667,-0.264444444,1,0,0,2.771,Gabbro_rect,13,0,13,0,1,
6650d8bb5a4e87dbcf05fd21,TCR,2024-06-24_14h46.31.372,LearnStrategy,2023.2.3,Win32,58.82352941,3,2,15,,,,,,,,3,15,,,,,,,,,,,3,1.523,1,,,,,,0.114444444,-0.25,1,0,0,1.523,Diorite_rect,14,0,14,0,1,
6650d8bb5a4e87dbcf05fd21,TCR,2024-06-24_14h46.31.372,LearnStrategy,2023.2.3,Win32,58.82352941,3,2,16,,,,,,,,1,03,,,,,,,,,,,2,2.472,0,,,,,,-0.071111111,-0.266666667,1,0,0,2.472,Basalt_rect,15,0,15,0,1,
6650d8bb5a4e87dbcf05fd21,TCR,2024-06-24_14h46.31.372,LearnStrategy,2023.2.3,Win32,58.82352941,4,1,1,0.086666667,-0.01,1,0,0,2.726,rock_grid_rect_2,4,08,-1,-1,2.726,-0.401111111,-0.264444444,1,0,0,2.155,Andesite_rect,1,2.155,0,0,0,0,0,1,,,,,,,,,,,,,
6650d8bb5a4e87dbcf05fd21,TCR,2024-06-24_14h46.31.372,LearnStrategy,2023.2.3,Win32,58.82352941,4,1,2,0.072222222,0.022222222,1,0,0,0.713,rock_grid_rect_2,2,09,-1,-1,0.713,-0.143333333,-0.232222222,1,0,0,0.974,Basalt_rect,2,0.974,1,1,0,1,0,1,,,,,,,,,,,,,
6650d8bb5a4e87dbcf05fd21,TCR,2024-06-24_14h46.31.372,LearnStrategy,2023.2.3,Win32,58.82352941,4,1,3,-0.097777778,-0.012222222,1,0,0,0.53,rock_grid_rect_2,1,01,-1,-1,0.53,-0.075555556,-0.405555556,1,0,0,2.671,Pegmatite_rect,6,2.671,0,2,0,2,0,1,,,,,,,,,,,,,
6650d8bb5a4e87dbcf05fd21,TCR,2024-06-24_14h46.31.372,LearnStrategy,2023.2.3,Win32,58.82352941,4,1,4,0.003333333,-0.017777778,1,0,0,0.548,rock_grid_rect_2,7,12,-1,-1,0.548,0.392222222,-0.401111111,1,0,0,3.254,Pumice_rect,8,3.254,0,3,0,3,0,1,,,,,,,,,,,,,
6650d8bb5a4e87dbcf05fd21,TCR,2024-06-24_14h46.31.372,LearnStrategy,2023.2.3,Win32,58.82352941,4,1,5,0.06,-0.002222222,1,0,0,0.514,rock_grid_rect_2,2,09,-1,-1,0.514,-0.164444444,-0.25,1,0,0,1.175,Basalt_rect,2,1.175,1,4,0,4,0,1,,,,,,,,,,,,,
6650d8bb5a4e87dbcf05fd21,TCR,2024-06-24_14h46.31.372,LearnStrategy,2023.2.3,Win32,58.82352941,4,1,6,-0.083333333,0.018888889,1,0,0,0.515,rock_grid_rect_2,8,16,-1,-1,0.515,-0.111111111,-0.412222222,1,0,0,3.785,Pegmatite_rect,6,3.785,0,5,0,5,0,1,,,,,,,,,,,,,
6650d8bb5a4e87dbcf05fd21,TCR,2024-06-24_14h46.31.372,LearnStrategy,2023.2.3,Win32,58.82352941,4,1,7,0.031111111,0.02,1,0,0,0.63,rock_grid_rect_2,8,09,-1,-1,0.63,0.12,-0.404444444,1,0,0,3.254,Peridotite_rect,7,3.254,0,6,0,6,0,1,,,,,,,,,,,,,
6650d8bb5a4e87dbcf05fd21,TCR,2024-06-24_14h46.31.372,LearnStrategy,2023.2.3,Win32,58.82352941,4,1,8,0.006666667,-0.011111111,1,0,0,0.813,rock_grid_rect_2,7,13,-1,-1,0.813,0.365555556,-0.258888889,1,0,0,6.299,Gabbro_rect,4,6.299,0,7,0,7,0,1,,,,,,,,,,,,,
6650d8bb5a4e87dbcf05fd21,TCR,2024-06-24_14h46.31.372,LearnStrategy,2023.2.3,Win32,58.82352941,4,1,9,0.055555556,0.01,1,0,0,0.63,rock_grid_rect_2,4,05,-1,-1,0.63,0.408888889,-0.232222222,1,0,0,4.484,Gabbro_rect,4,4.484,1,8,0,8,0,1,,,,,,,,,,,,,
6650d8bb5a4e87dbcf05fd21,TCR,2024-06-24_14h46.31.372,LearnStrategy,2023.2.3,Win32,58.82352941,4,1,10,0.056666667,0,1,0,0,0.497,rock_grid_rect_2,6,15,-1,-1,0.497,0.325555556,-0.404444444,1,0,0,2.523,Pumice_rect,8,2.523,0,9,0,9,0,1,,,,,,,,,,,,,
6650d8bb5a4e87dbcf05fd21,TCR,2024-06-24_14h46.31.372,LearnStrategy,2023.2.3,Win32,58.82352941,4,1,11,-0.011111111,0.012222222,1,0,0,0.88,rock_grid_rect_2,3,10,-1,-1,0.88,-0.355555556,-0.241111111,1,0,0,2.521,Andesite_rect,1,2.521,0,10,0,10,0,1,,,,,,,,,,,,,
6650d8bb5a4e87dbcf05fd21,TCR,2024-06-24_14h46.31.372,LearnStrategy,2023.2.3,Win32,58.82352941,4,1,12,0.007777778,0.006666667,1,0,0,0.879,rock_grid_rect_2,3,09,-1,-1,0.879,-0.401111111,-0.254444444,1,0,0,2.955,Andesite_rect,1,2.955,0,11,0,11,0,1,,,,,,,,,,,,,
6650d8bb5a4e87dbcf05fd21,TCR,2024-06-24_14h46.31.372,LearnStrategy,2023.2.3,Win32,58.82352941,4,1,13,-0.004444444,0.012222222,1,0,0,0.747,rock_grid_rect_2,4,09,-1,-1,0.747,-0.418888889,-0.412222222,1,0,0,1.507,Obsidian_rect,5,1.507,0,12,0,12,0,1,,,,,,,,,,,,,
6650d8bb5a4e87dbcf05fd21,TCR,2024-06-24_14h46.31.372,LearnStrategy,2023.2.3,Win32,58.82352941,4,1,14,0.034444444,-0.006666667,1,0,0,0.898,rock_grid_rect_2,8,15,-1,-1,0.898,0.453333333,-0.381111111,1,0,0,6.832,Pumice_rect,8,6.832,1,13,0,13,0,1,,,,,,,,,,,,,
6650d8bb5a4e87dbcf05fd21,TCR,2024-06-24_14h46.31.372,LearnStrategy,2023.2.3,Win32,58.82352941,4,1,15,0.017777778,-0.008888889,1,0,0,0.78,rock_grid_rect_2,1,10,-1,-1,0.78,0.428888889,-0.254444444,1,0,0,8.561,Gabbro_rect,4,8.561,0,14,0,14,0,1,,,,,,,,,,,,,
6650d8bb5a4e87dbcf05fd21,TCR,2024-06-24_14h46.31.372,LearnStrategy,2023.2.3,Win32,58.82352941,4,1,16,0.063333333,-0.002222222,1,0,0,0.663,rock_grid_rect_2,6,10,-1,-1,0.663,0.138888889,-0.38,1,0,0,2.805,Peridotite_rect,7,2.805,0,15,0,15,0,1,,,,,,,,,,,,,
6650d8bb5a4e87dbcf05fd21,TCR,2024-06-24_14h46.31.372,LearnStrategy,2023.2.3,Win32,58.82352941,4,2,1,,,,,,,,6,06,,,,,,,,,,,3,7.229,0,,,,,,0.142222222,-0.247777778,1,0,0,7.229,Diorite_rect,0,0,0,0,1,
6650d8bb5a4e87dbcf05fd21,TCR,2024-06-24_14h46.31.372,LearnStrategy,2023.2.3,Win32,58.82352941,4,2,2,,,,,,,,1,09,,,,,,,,,,,1,2.022,1,,,,,,-0.49,-0.243333333,1,0,0,2.022,Andesite_rect,1,0,1,0,1,
6650d8bb5a4e87dbcf05fd21,TCR,2024-06-24_14h46.31.372,LearnStrategy,2023.2.3,Win32,58.82352941,4,2,3,,,,,,,,5,05,,,,,,,,,,,5,1.123,1,,,,,,-0.384444444,-0.417777778,1,0,0,1.123,Obsidian_rect,2,0,2,0,1,
6650d8bb5a4e87dbcf05fd21,TCR,2024-06-24_14h46.31.372,LearnStrategy,2023.2.3,Win32,58.82352941,4,2,4,,,,,,,,8,05,,,,,,,,,,,8,2.323,1,,,,,,0.306666667,-0.398888889,1,0,0,2.323,Pumice_rect,3,0,3,0,1,
6650d8bb5a4e87dbcf05fd21,TCR,2024-06-24_14h46.31.372,LearnStrategy,2023.2.3,Win32,58.82352941,4,2,5,,,,,,,,3,13,,,,,,,,,,,7,2.089,0,,,,,,0.135555556,-0.404444444,1,0,0,2.089,Peridotite_rect,4,0,4,0,1,
6650d8bb5a4e87dbcf05fd21,TCR,2024-06-24_14h46.31.372,LearnStrategy,2023.2.3,Win32,58.82352941,4,2,6,,,,,,,,8,14,,,,,,,,,,,4,2.321,0,,,,,,0.452222222,-0.256666667,1,0,0,2.321,Gabbro_rect,5,0,5,0,1,
6650d8bb5a4e87dbcf05fd21,TCR,2024-06-24_14h46.31.372,LearnStrategy,2023.2.3,Win32,58.82352941,4,2,7,,,,,,,,4,10,,,,,,,,,,,2,3.619,0,,,,,,-0.048888889,-0.263333333,1,0,0,3.619,Basalt_rect,6,0,6,0,1,
6650d8bb5a4e87dbcf05fd21,TCR,2024-06-24_14h46.31.372,LearnStrategy,2023.2.3,Win32,58.82352941,4,2,8,,,,,,,,7,05,,,,,,,,,,,6,3.969,0,,,,,,-0.095555556,-0.408888889,1,0,0,3.969,Pegmatite_rect,7,0,7,0,1,
6650d8bb5a4e87dbcf05fd21,TCR,2024-06-24_14h46.31.372,LearnStrategy,2023.2.3,Win32,58.82352941,4,2,9,,,,,,,,2,05,,,,,,,,,,,2,1.072,1,,,,,,-0.095555556,-0.251111111,1,0,0,1.072,Basalt_rect,8,0,8,0,1,
6650d8bb5a4e87dbcf05fd21,TCR,2024-06-24_14h46.31.372,LearnStrategy,2023.2.3,Win32,58.82352941,4,2,10,,,,,,,,6,03,,,,,,,,,,,6,6.231,1,,,,,,-0.073333333,-0.404444444,1,0,0,6.231,Pegmatite_rect,9,0,9,0,1,
6650d8bb5a4e87dbcf05fd21,TCR,2024-06-24_14h46.31.372,LearnStrategy,2023.2.3,Win32,58.82352941,4,2,11,,,,,,,,2,11,,,,,,,,,,,6,1.406,0,,,,,,-0.151111111,-0.39,1,0,0,1.406,Pegmatite_rect,10,0,10,0,1,
6650d8bb5a4e87dbcf05fd21,TCR,2024-06-24_14h46.31.372,LearnStrategy,2023.2.3,Win32,58.82352941,4,2,12,,,,,,,,5,16,,,,,,,,,,,5,0.891,1,,,,,,-0.326666667,-0.411111111,1,0,0,0.891,Obsidian_rect,11,0,11,0,1,
6650d8bb5a4e87dbcf05fd21,TCR,2024-06-24_14h46.31.372,LearnStrategy,2023.2.3,Win32,58.82352941,4,2,13,,,,,,,,3,08,,,,,,,,,,,4,3.47,0,,,,,,0.435555556,-0.234444444,1,0,0,3.47,Gabbro_rect,12,0,12,0,1,
6650d8bb5a4e87dbcf05fd21,TCR,2024-06-24_14h46.31.372,LearnStrategy,2023.2.3,Win32,58.82352941,4,2,14,,,,,,,,4,13,,,,,,,,,,,8,4.701,0,,,,,,0.41,-0.417777778,1,0,0,4.701,Pumice_rect,13,0,13,0,1,
6650d8bb5a4e87dbcf05fd21,TCR,2024-06-24_14h46.31.372,LearnStrategy,2023.2.3,Win32,58.82352941,4,2,15,,,,,,,,7,16,,,,,,,,,,,4,3.686,0,,,,,,0.425555556,-0.263333333,1,0,0,3.686,Gabbro_rect,14,0,14,0,1,
6650d8bb5a4e87dbcf05fd21,TCR,2024-06-24_14h46.31.372,LearnStrategy,2023.2.3,Win32,58.82352941,4,2,16,,,,,,,,1,14,,,,,,,,,,,3,1.19,0,,,,,,0.122222222,-0.238888889,1,0,0,1.19,Diorite_rect,15,0,15,0,1,
6650d8bb5a4e87dbcf05fd21,TCR,2024-06-24_14h46.31.372,LearnStrategy,2023.2.3,Win32,58.82352941,5,1,1,0.076666667,-0.002222222,1,0,0,0.964,rock_grid_rect_2,7,13,-1,-1,0.964,0.367777778,-0.228888889,1,0,0,2.14,Gabbro_rect,4,2.14,0,0,0,0,0,1,,,,,,,,,,,,,
6650d8bb5a4e87dbcf05fd21,TCR,2024-06-24_14h46.31.372,LearnStrategy,2023.2.3,Win32,58.82352941,5,1,2,0.057777778,-0.007777778,1,0,0,0.597,rock_grid_rect_2,6,15,-1,-1,0.597,-0.105555556,-0.404444444,1,0,0,2.305,Pegmatite_rect,6,2.305,1,1,0,1,0,1,,,,,,,,,,,,,
6650d8bb5a4e87dbcf05fd21,TCR,2024-06-24_14h46.31.372,LearnStrategy,2023.2.3,Win32,58.82352941,5,1,3,-0.051111111,0.01,1,0,0,0.714,rock_grid_rect_2,7,10,-1,-1,0.714,0.397777778,-0.392222222,1,0,0,9.792,Pumice_rect,8,9.792,0,2,0,2,0,1,,,,,,,,,,,,,
6650d8bb5a4e87dbcf05fd21,TCR,2024-06-24_14h46.31.372,LearnStrategy,2023.2.3,Win32,58.82352941,5,1,4,-0.008888889,0.018888889,1,0,0,0.613,rock_grid_rect_2,1,10,-1,-1,0.613,0.352222222,-0.27,1,0,0,2.473,Gabbro_rect,4,2.473,0,3,0,3,0,1,,,,,,,,,,,,,
6650d8bb5a4e87dbcf05fd21,TCR,2024-06-24_14h46.31.372,LearnStrategy,2023.2.3,Win32,58.82352941,5,1,5,0.012222222,-0.01,1,0,0,0.797,rock_grid_rect_2,4,08,-1,-1,0.797,-0.448888889,-0.257777778,1,0,0,1.923,Andesite_rect,1,1.923,0,4,0,4,0,1,,,,,,,,,,,,,
6650d8bb5a4e87dbcf05fd21,TCR,2024-06-24_14h46.31.372,LearnStrategy,2023.2.3,Win32,58.82352941,5,1,6,0.063333333,0.001111111,1,0,0,0.73,rock_grid_rect_2,2,08,-1,-1,0.73,-0.048888889,-0.241111111,1,0,0,1.723,Basalt_rect,2,1.723,1,5,0,5,0,1,,,,,,,,,,,,,
6650d8bb5a4e87dbcf05fd21,TCR,2024-06-24_14h46.31.372,LearnStrategy,2023.2.3,Win32,58.82352941,5,1,7,0.1,-0.004444444,1,0,0,0.447,rock_grid_rect_2,6,16,-1,-1,0.447,0.387777778,-0.408888889,1,0,0,1.552,Pumice_rect,8,1.552,0,6,0,6,0,1,,,,,,,,,,,,,
6650d8bb5a4e87dbcf05fd21,TCR,2024-06-24_14h46.31.372,LearnStrategy,2023.2.3,Win32,58.82352941,5,1,8,0.075555556,0.011111111,1,0,0,0.702,rock_grid_rect_2,8,03,-1,-1,0.702,0.365555556,-0.241111111,1,0,0,5.677,Gabbro_rect,4,5.677,0,7,0,7,0,1,,,,,,,,,,,,,
6650d8bb5a4e87dbcf05fd21,TCR,2024-06-24_14h46.31.372,LearnStrategy,2023.2.3,Win32,58.82352941,5,1,9,-0.002222222,-0.008888889,1,0,0,0.864,rock_grid_rect_2,7,04,-1,-1,0.864,0.336666667,-0.238888889,1,0,0,2.956,Gabbro_rect,4,2.956,0,8,0,8,0,1,,,,,,,,,,,,,
6650d8bb5a4e87dbcf05fd21,TCR,2024-06-24_14h46.31.372,LearnStrategy,2023.2.3,Win32,58.82352941,5,1,10,-0.013333333,0.006666667,1,0,0,0.679,rock_grid_rect_2,2,09,-1,-1,0.679,-0.096666667,-0.243333333,1,0,0,1.307,Basalt_rect,2,1.307,1,9,0,9,0,1,,,,,,,,,,,,,
6650d8bb5a4e87dbcf05fd21,TCR,2024-06-24_14h46.31.372,LearnStrategy,2023.2.3,Win32,58.82352941,5,1,11,0.041111111,-0.001111111,1,0,0,0.665,rock_grid_rect_2,4,05,-1,-1,0.665,0.177777778,-0.4,1,0,0,3.721,Peridotite_rect,7,3.721,0,10,0,10,0,1,,,,,,,,,,,,,
6650d8bb5a4e87dbcf05fd21,TCR,2024-06-24_14h46.31.372,LearnStrategy,2023.2.3,Win32,58.82352941,5,1,12,0.087777778,0.002222222,1,0,0,0.597,rock_grid_rect_2,3,07,-1,-1,0.597,0.397777778,-0.39,1,0,0,2.555,Pumice_rect,8,2.555,0,11,0,11,0,1,,,,,,,,,,,,,
6650d8bb5a4e87dbcf05fd21,TCR,2024-06-24_14h46.31.372,LearnStrategy,2023.2.3,Win32,58.82352941,5,1,13,0.061111111,-0.005555556,1,0,0,0.729,rock_grid_rect_2,4,14,-1,-1,0.729,0.157777778,-0.387777778,1,0,0,2.771,Peridotite_rect,7,2.771,0,12,0,12,0,1,,,,,,,,,,,,,
6650d8bb5a4e87dbcf05fd21,TCR,2024-06-24_14h46.31.372,LearnStrategy,2023.2.3,Win32,58.82352941,5,1,14,0.034444444,0,1,0,0,0.564,rock_grid_rect_2,8,09,-1,-1,0.564,0.302222222,-0.38,1,0,0,3.221,Pumice_rect,8,3.221,1,13,0,13,0,1,,,,,,,,,,,,,
6650d8bb5a4e87dbcf05fd21,TCR,2024-06-24_14h46.31.372,LearnStrategy,2023.2.3,Win32,58.82352941,5,1,15,0.035555556,0.022222222,1,0,0,0.564,rock_grid_rect_2,1,07,-1,-1,0.564,0.103333333,-0.234444444,1,0,0,1.823,Diorite_rect,3,1.823,0,14,0,14,0,1,,,,,,,,,,,,,
6650d8bb5a4e87dbcf05fd21,TCR,2024-06-24_14h46.31.372,LearnStrategy,2023.2.3,Win32,58.82352941,5,1,16,-0.031111111,0.018888889,1,0,0,0.579,rock_grid_rect_2,3,12,-1,-1,0.579,-0.363333333,-0.254444444,1,0,0,1.883,Andesite_rect,1,1.883,0,15,0,15,0,1,,,,,,,,,,,,,
6650d8bb5a4e87dbcf05fd21,TCR,2024-06-24_14h46.31.372,LearnStrategy,2023.2.3,Win32,58.82352941,5,2,1,,,,,,,,6,09,,,,,,,,,,,8,2.182,0,,,,,,0.46,-0.415555556,1,0,0,2.182,Pumice_rect,0,0,0,0,1,
6650d8bb5a4e87dbcf05fd21,TCR,2024-06-24_14h46.31.372,LearnStrategy,2023.2.3,Win32,58.82352941,5,2,2,,,,,,,,3,15,,,,,,,,,,,7,4.692,0,,,,,,0.086666667,-0.411111111,1,0,0,4.692,Peridotite_rect,1,0,1,0,1,
6650d8bb5a4e87dbcf05fd21,TCR,2024-06-24_14h46.31.372,LearnStrategy,2023.2.3,Win32,58.82352941,5,2,3,,,,,,,,8,13,,,,,,,,,,,4,2.564,0,,,,,,0.461111111,-0.271111111,1,0,0,2.564,Gabbro_rect,2,0,2,0,1,
6650d8bb5a4e87dbcf05fd21,TCR,2024-06-24_14h46.31.372,LearnStrategy,2023.2.3,Win32,58.82352941,5,2,4,,,,,,,,7,02,,,,,,,,,,,7,1.947,1,,,,,,0.073333333,-0.401111111,1,0,0,1.947,Peridotite_rect,3,0,3,0,1,
6650d8bb5a4e87dbcf05fd21,TCR,2024-06-24_14h46.31.372,LearnStrategy,2023.2.3,Win32,58.82352941,5,2,5,,,,,,,,4,03,,,,,,,,,,,1,2.863,0,,,,,,-0.394444444,-0.244444444,1,0,0,2.863,Andesite_rect,4,0,4,0,1,
6650d8bb5a4e87dbcf05fd21,TCR,2024-06-24_14h46.31.372,LearnStrategy,2023.2.3,Win32,58.82352941,5,2,6,,,,,,,,8,06,,,,,,,,,,,8,2.695,1,,,,,,0.381111111,-0.414444444,1,0,0,2.695,Pumice_rect,5,0,5,0,1,
6650d8bb5a4e87dbcf05fd21,TCR,2024-06-24_14h46.31.372,LearnStrategy,2023.2.3,Win32,58.82352941,5,2,7,,,,,,,,6,12,,,,,,,,,,,3,1.781,0,,,,,,0.086666667,-0.263333333,1,0,0,1.781,Diorite_rect,6,0,6,0,1,
6650d8bb5a4e87dbcf05fd21,TCR,2024-06-24_14h46.31.372,LearnStrategy,2023.2.3,Win32,58.82352941,5,2,8,,,,,,,,1,05,,,,,,,,,,,1,1.995,1,,,,,,-0.472222222,-0.236666667,1,0,0,1.995,Andesite_rect,7,0,7,0,1,
6650d8bb5a4e87dbcf05fd21,TCR,2024-06-24_14h46.31.372,LearnStrategy,2023.2.3,Win32,58.82352941,5,2,9,,,,,,,,7,06,,,,,,,,,,,3,1.34,0,,,,,,0.143333333,-0.251111111,1,0,0,1.34,Diorite_rect,8,0,8,0,1,
6650d8bb5a4e87dbcf05fd21,TCR,2024-06-24_14h46.31.372,LearnStrategy,2023.2.3,Win32,58.82352941,5,2,10,,,,,,,,3,11,,,,,,,,,,,6,2.855,0,,,,,,-0.125555556,-0.392222222,1,0,0,2.855,Pegmatite_rect,9,0,9,0,1,
6650d8bb5a4e87dbcf05fd21,TCR,2024-06-24_14h46.31.372,LearnStrategy,2023.2.3,Win32,58.82352941,5,2,11,,,,,,,,2,01,,,,,,,,,,,2,0.816,1,,,,,,-0.154444444,-0.245555556,1,0,0,0.816,Basalt_rect,10,0,10,0,1,
6650d8bb5a4e87dbcf05fd21,TCR,2024-06-24_14h46.31.372,LearnStrategy,2023.2.3,Win32,58.82352941,5,2,12,,,,,,,,2,14,,,,,,,,,,,7,1.944,0,,,,,,0.082222222,-0.412222222,1,0,0,1.944,Peridotite_rect,11,0,11,0,1,
6650d8bb5a4e87dbcf05fd21,TCR,2024-06-24_14h46.31.372,LearnStrategy,2023.2.3,Win32,58.82352941,5,2,13,,,,,,,,5,06,,,,,,,,,,,5,0.851,1,,,,,,-0.413333333,-0.414444444,1,0,0,0.851,Obsidian_rect,12,0,12,0,1,
6650d8bb5a4e87dbcf05fd21,TCR,2024-06-24_14h46.31.372,LearnStrategy,2023.2.3,Win32,58.82352941,5,2,14,,,,,,,,1,03,,,,,,,,,,,7,3.294,0,,,,,,0.151111111,-0.415555556,1,0,0,3.294,Peridotite_rect,13,0,13,0,1,
6650d8bb5a4e87dbcf05fd21,TCR,2024-06-24_14h46.31.372,LearnStrategy,2023.2.3,Win32,58.82352941,5,2,15,,,,,,,,4,16,,,,,,,,,,,7,4.373,0,,,,,,0.072222222,-0.397777778,1,0,0,4.373,Peridotite_rect,14,0,14,0,1,
6650d8bb5a4e87dbcf05fd21,TCR,2024-06-24_14h46.31.372,LearnStrategy,2023.2.3,Win32,58.82352941,5,2,16,,,,,,,,5,12,,,,,,,,,,,5,1.013,1,,,,,,-0.39,-0.415555556,1,0,0,1.013,Obsidian_rect,15,0,15,0,1,
6650d8bb5a4e87dbcf05fd21,TCR,2024-06-24_14h46.31.372,LearnStrategy,2023.2.3,Win32,58.82352941,6,1,1,0.051111111,-0.007777778,1,0,0,1.435,rock_grid_rect_2,8,09,-1,-1,1.435,0.457777778,-0.396666667,1,0,0,2.118,Pumice_rect,8,2.118,1,0,0,0,0,1,,,,,,,,,,,,,
6650d8bb5a4e87dbcf05fd21,TCR,2024-06-24_14h46.31.372,LearnStrategy,2023.2.3,Win32,58.82352941,6,1,2,0.065555556,-0.014444444,1,0,0,0.479,rock_grid_rect_2,3,10,-1,-1,0.479,0.418888889,-0.228888889,1,0,0,5.782,Gabbro_rect,4,5.782,0,1,0,1,0,1,,,,,,,,,,,,,
6650d8bb5a4e87dbcf05fd21,TCR,2024-06-24_14h46.31.372,LearnStrategy,2023.2.3,Win32,58.82352941,6,1,3,0.027777778,0.005555556,1,0,0,0.863,rock_grid_rect_2,4,08,-1,-1,0.863,-0.39,-0.255555556,1,0,0,2.654,Andesite_rect,1,2.654,0,2,0,2,0,1,,,,,,,,,,,,,
6650d8bb5a4e87dbcf05fd21,TCR,2024-06-24_14h46.31.372,LearnStrategy,2023.2.3,Win32,58.82352941,6,1,4,0.01,-0.008888889,1,0,0,0.531,rock_grid_rect_2,4,09,-1,-1,0.531,-0.394444444,-0.398888889,1,0,0,1.74,Obsidian_rect,5,1.74,0,3,0,3,0,1,,,,,,,,,,,,,
6650d8bb5a4e87dbcf05fd21,TCR,2024-06-24_14h46.31.372,LearnStrategy,2023.2.3,Win32,58.82352941,6,1,5,0.004444444,0,1,0,0,0.814,rock_grid_rect_2,3,14,-1,-1,0.814,0.117777778,-0.231111111,1,0,0,4.585,Diorite_rect,3,4.585,1,4,0,4,0,1,,,,,,,,,,,,,
6650d8bb5a4e87dbcf05fd21,TCR,2024-06-24_14h46.31.372,LearnStrategy,2023.2.3,Win32,58.82352941,6,1,6,0.056666667,-0.015555556,1,0,0,0.497,rock_grid_rect_2,1,10,-1,-1,0.497,0.367777778,-0.248888889,1,0,0,2.605,Gabbro_rect,4,2.605,0,5,0,5,0,1,,,,,,,,,,,,,
6650d8bb5a4e87dbcf05fd21,TCR,2024-06-24_14h46.31.372,LearnStrategy,2023.2.3,Win32,58.82352941,6,1,7,-0.016666667,-0.006666667,1,0,0,0.646,rock_grid_rect_2,4,14,-1,-1,0.646,0.08,-0.4,1,0,0,4.003,Peridotite_rect,7,4.003,0,6,0,6,0,1,,,,,,,,,,,,,
6650d8bb5a4e87dbcf05fd21,TCR,2024-06-24_14h46.31.372,LearnStrategy,2023.2.3,Win32,58.82352941,6,1,8,0.035555556,0.015555556,1,0,0,0.498,rock_grid_rect_2,7,04,-1,-1,0.498,0.122222222,-0.408888889,1,0,0,2.405,Peridotite_rect,7,2.405,1,7,0,7,0,1,,,,,,,,,,,,,
6650d8bb5a4e87dbcf05fd21,TCR,2024-06-24_14h46.31.372,LearnStrategy,2023.2.3,Win32,58.82352941,6,1,9,0.048888889,0.008888889,1,0,0,0.497,rock_grid_rect_2,6,11,-1,-1,0.497,-0.325555556,-0.414444444,1,0,0,1.458,Obsidian_rect,5,1.458,0,8,0,8,0,1,,,,,,,,,,,,,
6650d8bb5a4e87dbcf05fd21,TCR,2024-06-24_14h46.31.372,LearnStrategy,2023.2.3,Win32,58.82352941,6,1,10,0.086666667,0.006666667,1,0,0,0.565,rock_grid_rect_2,3,06,-1,-1,0.565,0.101111111,-0.246666667,1,0,0,1.59,Diorite_rect,3,1.59,1,9,0,9,0,1,,,,,,,,,,,,,
6650d8bb5a4e87dbcf05fd21,TCR,2024-06-24_14h46.31.372,LearnStrategy,2023.2.3,Win32,58.82352941,6,1,11,-0.022222222,0.013333333,1,0,0,0.532,rock_grid_rect_2,2,08,-1,-1,0.532,-0.106666667,-0.266666667,1,0,0,1.539,Basalt_rect,2,1.539,1,10,0,10,0,1,,,,,,,,,,,,,
6650d8bb5a4e87dbcf05fd21,TCR,2024-06-24_14h46.31.372,LearnStrategy,2023.2.3,Win32,58.82352941,6,1,12,-0.024444444,-0.013333333,1,0,0,0.53,rock_grid_rect_2,2,06,-1,-1,0.53,-0.132222222,-0.256666667,1,0,0,1.175,Basalt_rect,2,1.175,1,11,0,11,0,1,,,,,,,,,,,,,
6650d8bb5a4e87dbcf05fd21,TCR,2024-06-24_14h46.31.372,LearnStrategy,2023.2.3,Win32,58.82352941,6,1,13,0.01,-0.022222222,1,0,0,0.63,rock_grid_rect_2,8,08,-1,-1,0.63,0.111111111,-0.242222222,1,0,0,2.223,Diorite_rect,3,2.223,0,12,0,12,0,1,,,,,,,,,,,,,
6650d8bb5a4e87dbcf05fd21,TCR,2024-06-24_14h46.31.372,LearnStrategy,2023.2.3,Win32,58.82352941,6,1,14,0.003333333,-0.014444444,1,0,0,0.746,rock_grid_rect_2,6,11,-1,-1,0.746,-0.383333333,-0.261111111,1,0,0,2.871,Andesite_rect,1,2.871,0,13,0,13,0,1,,,,,,,,,,,,,
6650d8bb5a4e87dbcf05fd21,TCR,2024-06-24_14h46.31.372,LearnStrategy,2023.2.3,Win32,58.82352941,6,1,15,0.068888889,-0.005555556,1,0,0,0.447,rock_grid_rect_2,7,07,-1,-1,0.447,0.326666667,-0.398888889,1,0,0,1.889,Pumice_rect,8,1.889,0,14,0,14,0,1,,,,,,,,,,,,,
6650d8bb5a4e87dbcf05fd21,TCR,2024-06-24_14h46.31.372,LearnStrategy,2023.2.3,Win32,58.82352941,6,1,16,0.127777778,0.003333333,1,0,0,0.514,rock_grid_rect_2,1,06,-1,-1,0.514,0.106666667,-0.262222222,1,0,0,1.924,Diorite_rect,3,1.924,0,15,0,15,0,1,,,,,,,,,,,,,
6650d8bb5a4e87dbcf05fd21,TCR,2024-06-24_14h46.31.372,LearnStrategy,2023.2.3,Win32,58.82352941,6,2,1,,,,,,,,3,02,,,,,,,,,,,7,6.364,0,,,,,,0.07,-0.385555556,1,0,0,6.364,Peridotite_rect,0,0,0,0,1,
6650d8bb5a4e87dbcf05fd21,TCR,2024-06-24_14h46.31.372,LearnStrategy,2023.2.3,Win32,58.82352941,6,2,2,,,,,,,,2,12,,,,,,,,,,,2,2.688,1,,,,,,-0.072222222,-0.232222222,1,0,0,2.688,Basalt_rect,1,0,1,0,1,
6650d8bb5a4e87dbcf05fd21,TCR,2024-06-24_14h46.31.372,LearnStrategy,2023.2.3,Win32,58.82352941,6,2,3,,,,,,,,6,13,,,,,,,,,,,7,2.055,0,,,,,,0.106666667,-0.412222222,1,0,0,2.055,Peridotite_rect,2,0,2,0,1,
6650d8bb5a4e87dbcf05fd21,TCR,2024-06-24_14h46.31.372,LearnStrategy,2023.2.3,Win32,58.82352941,6,2,4,,,,,,,,1,11,,,,,,,,,,,3,1.491,0,,,,,,0.101111111,-0.253333333,1,0,0,1.491,Diorite_rect,3,0,3,0,1,
6650d8bb5a4e87dbcf05fd21,TCR,2024-06-24_14h46.31.372,LearnStrategy,2023.2.3,Win32,58.82352941,6,2,5,,,,,,,,7,14,,,,,,,,,,,6,3.153,0,,,,,,-0.108888889,-0.391111111,1,0,0,3.153,Pegmatite_rect,4,0,4,0,1,
6650d8bb5a4e87dbcf05fd21,TCR,2024-06-24_14h46.31.372,LearnStrategy,2023.2.3,Win32,58.82352941,6,2,6,,,,,,,,7,15,,,,,,,,,,,6,2.19,0,,,,,,-0.135555556,-0.415555556,1,0,0,2.19,Pegmatite_rect,5,0,5,0,1,
6650d8bb5a4e87dbcf05fd21,TCR,2024-06-24_14h46.31.372,LearnStrategy,2023.2.3,Win32,58.82352941,6,2,7,,,,,,,,6,07,,,,,,,,,,,7,3.685,0,,,,,,0.143333333,-0.387777778,1,0,0,3.685,Peridotite_rect,6,0,6,0,1,
6650d8bb5a4e87dbcf05fd21,TCR,2024-06-24_14h46.31.372,LearnStrategy,2023.2.3,Win32,58.82352941,6,2,8,,,,,,,,5,02,,,,,,,,,,,5,1.041,1,,,,,,-0.347777778,-0.406666667,1,0,0,1.041,Obsidian_rect,7,0,7,0,1,
6650d8bb5a4e87dbcf05fd21,TCR,2024-06-24_14h46.31.372,LearnStrategy,2023.2.3,Win32,58.82352941,6,2,9,,,,,,,,4,11,,,,,,,,,,,2,1.29,0,,,,,,-0.117777778,-0.27,1,0,0,1.29,Basalt_rect,8,0,8,0,1,
6650d8bb5a4e87dbcf05fd21,TCR,2024-06-24_14h46.31.372,LearnStrategy,2023.2.3,Win32,58.82352941,6,2,10,,,,,,,,5,11,,,,,,,,,,,5,1.007,1,,,,,,-0.395555556,-0.378888889,1,0,0,1.007,Obsidian_rect,9,0,9,0,1,
6650d8bb5a4e87dbcf05fd21,TCR,2024-06-24_14h46.31.372,LearnStrategy,2023.2.3,Win32,58.82352941,6,2,11,,,,,,,,4,15,,,,,,,,,,,4,3.535,1,,,,,,0.428888889,-0.263333333,1,0,0,3.535,Gabbro_rect,10,0,10,0,1,
6650d8bb5a4e87dbcf05fd21,TCR,2024-06-24_14h46.31.372,LearnStrategy,2023.2.3,Win32,58.82352941,6,2,12,,,,,,,,1,02,,,,,,,,,,,3,2.636,0,,,,,,0.148888889,-0.26,1,0,0,2.636,Diorite_rect,11,0,11,0,1,
6650d8bb5a4e87dbcf05fd21,TCR,2024-06-24_14h46.31.372,LearnStrategy,2023.2.3,Win32,58.82352941,6,2,13,,,,,,,,8,02,,,,,,,,,,,8,1.224,1,,,,,,0.466666667,-0.404444444,1,0,0,1.224,Pumice_rect,12,0,12,0,1,
6650d8bb5a4e87dbcf05fd21,TCR,2024-06-24_14h46.31.372,LearnStrategy,2023.2.3,Win32,58.82352941,6,2,14,,,,,,,,3,16,,,,,,,,,,,3,2.787,1,,,,,,0.095555556,-0.255555556,1,0,0,2.787,Diorite_rect,13,0,13,0,1,
6650d8bb5a4e87dbcf05fd21,TCR,2024-06-24_14h46.31.372,LearnStrategy,2023.2.3,Win32,58.82352941,6,2,15,,,,,,,,2,02,,,,,,,,,,,2,0.909,1,,,,,,-0.162222222,-0.247777778,1,0,0,0.909,Basalt_rect,14,0,14,0,1,
6650d8bb5a4e87dbcf05fd21,TCR,2024-06-24_14h46.31.372,LearnStrategy,2023.2.3,Win32,58.82352941,6,2,16,,,,,,,,8,04,,,,,,,,,,,8,2.005,1,,,,,,0.302222222,-0.414444444,1,0,0,2.005,Pumice_rect,15,0,15,0,1,
6650d8bb5a4e87dbcf05fd21,TCR,2024-06-24_14h46.31.372,LearnStrategy,2023.2.3,Win32,58.82352941,7,1,1,0.11,-0.01,1,0,0,0.565,rock_grid_rect_2,4,09,-1,-1,0.565,0.32,-0.264444444,1,0,0,2.438,Gabbro_rect,4,2.438,1,0,0,0,0,1,,,,,,,,,,,,,
6650d8bb5a4e87dbcf05fd21,TCR,2024-06-24_14h46.31.372,LearnStrategy,2023.2.3,Win32,58.82352941,7,1,2,0.137777778,0.004444444,1,0,0,0.714,rock_grid_rect_2,4,12,-1,-1,0.714,0.108888889,-0.402222222,1,0,0,4.635,Peridotite_rect,7,4.635,0,1,0,1,0,1,,,,,,,,,,,,,
6650d8bb5a4e87dbcf05fd21,TCR,2024-06-24_14h46.31.372,LearnStrategy,2023.2.3,Win32,58.82352941,7,1,3,-0.025555556,0.02,1,0,0,0.596,rock_grid_rect_2,3,12,-1,-1,0.596,0.107777778,-0.255555556,1,0,0,1.058,Diorite_rect,3,1.058,1,2,0,2,0,1,,,,,,,,,,,,,
6650d8bb5a4e87dbcf05fd21,TCR,2024-06-24_14h46.31.372,LearnStrategy,2023.2.3,Win32,58.82352941,7,1,4,-0.056666667,-0.013333333,1,0,0,0.48,rock_grid_rect_2,6,15,-1,-1,0.48,-0.11,-0.411111111,1,0,0,1.057,Pegmatite_rect,6,1.057,1,3,0,3,0,1,,,,,,,,,,,,,
6650d8bb5a4e87dbcf05fd21,TCR,2024-06-24_14h46.31.372,LearnStrategy,2023.2.3,Win32,58.82352941,7,1,5,0.04,0.021111111,1,0,0,0.397,rock_grid_rect_2,6,11,-1,-1,0.397,0.08,-0.395555556,1,0,0,1.973,Peridotite_rect,7,1.973,0,4,0,4,0,1,,,,,,,,,,,,,
6650d8bb5a4e87dbcf05fd21,TCR,2024-06-24_14h46.31.372,LearnStrategy,2023.2.3,Win32,58.82352941,7,1,6,-0.03,0.015555556,1,0,0,0.532,rock_grid_rect_2,7,12,-1,-1,0.532,0.074444444,-0.385555556,1,0,0,3.736,Peridotite_rect,7,3.736,1,5,0,5,0,1,,,,,,,,,,,,,
6650d8bb5a4e87dbcf05fd21,TCR,2024-06-24_14h46.31.372,LearnStrategy,2023.2.3,Win32,58.82352941,7,1,7,0.015555556,-0.011111111,1,0,0,0.53,rock_grid_rect_2,1,04,-1,-1,0.53,0.364444444,-0.24,1,0,0,3.553,Gabbro_rect,4,3.553,0,6,0,6,0,1,,,,,,,,,,,,,
6650d8bb5a4e87dbcf05fd21,TCR,2024-06-24_14h46.31.372,LearnStrategy,2023.2.3,Win32,58.82352941,7,1,8,0.017777778,-0.012222222,1,0,0,0.464,rock_grid_rect_2,4,09,-1,-1,0.464,0.075555556,-0.257777778,1,0,0,1.592,Diorite_rect,3,1.592,0,7,0,7,0,1,,,,,,,,,,,,,
6650d8bb5a4e87dbcf05fd21,TCR,2024-06-24_14h46.31.372,LearnStrategy,2023.2.3,Win32,58.82352941,7,1,9,-0.004444444,0.008888889,1,0,0,0.531,rock_grid_rect_2,3,12,-1,-1,0.531,0.136666667,-0.26,1,0,0,1.606,Diorite_rect,3,1.606,1,8,0,8,0,1,,,,,,,,,,,,,
6650d8bb5a4e87dbcf05fd21,TCR,2024-06-24_14h46.31.372,LearnStrategy,2023.2.3,Win32,58.82352941,7,1,10,0.048888889,0,1,0,0,0.681,rock_grid_rect_2,7,04,-1,-1,0.681,0.113333333,-0.416666667,1,0,0,1.923,Peridotite_rect,7,1.923,1,9,0,9,0,1,,,,,,,,,,,,,
6650d8bb5a4e87dbcf05fd21,TCR,2024-06-24_14h46.31.372,LearnStrategy,2023.2.3,Win32,58.82352941,7,1,11,0.044444444,-0.008888889,1,0,0,0.448,rock_grid_rect_2,8,08,-1,-1,0.448,0.418888889,-0.401111111,1,0,0,5.068,Pumice_rect,8,5.068,1,10,0,10,0,1,,,,,,,,,,,,,
6650d8bb5a4e87dbcf05fd21,TCR,2024-06-24_14h46.31.372,LearnStrategy,2023.2.3,Win32,58.82352941,7,1,12,0.081111111,0.003333333,1,0,0,0.631,rock_grid_rect_2,3,06,-1,-1,0.631,0.118888889,-0.256666667,1,0,0,1.806,Diorite_rect,3,1.806,1,11,0,11,0,1,,,,,,,,,,,,,
6650d8bb5a4e87dbcf05fd21,TCR,2024-06-24_14h46.31.372,LearnStrategy,2023.2.3,Win32,58.82352941,7,1,13,0.004444444,-0.024444444,1,0,0,0.432,rock_grid_rect_2,2,08,-1,-1,0.432,-0.075555556,-0.252222222,1,0,0,0.876,Basalt_rect,2,0.876,1,12,0,12,0,1,,,,,,,,,,,,,
6650d8bb5a4e87dbcf05fd21,TCR,2024-06-24_14h46.31.372,LearnStrategy,2023.2.3,Win32,58.82352941,7,1,14,-0.044444444,0.011111111,1,0,0,0.58,rock_grid_rect_2,1,01,-1,-1,0.58,-0.384444444,-0.246666667,1,0,0,2.156,Andesite_rect,1,2.156,1,13,0,13,0,1,,,,,,,,,,,,,
6650d8bb5a4e87dbcf05fd21,TCR,2024-06-24_14h46.31.372,LearnStrategy,2023.2.3,Win32,58.82352941,7,1,15,-0.018888889,-0.006666667,1,0,0,0.865,rock_grid_rect_2,6,16,-1,-1,0.865,0.421111111,-0.411111111,1,0,0,1.241,Pumice_rect,8,1.241,0,14,0,14,0,1,,,,,,,,,,,,,
6650d8bb5a4e87dbcf05fd21,TCR,2024-06-24_14h46.31.372,LearnStrategy,2023.2.3,Win32,58.82352941,7,1,16,0.048888889,-0.005555556,1,0,0,0.481,rock_grid_rect_2,7,04,-1,-1,0.481,0.11,-0.401111111,1,0,0,1.108,Peridotite_rect,7,1.108,1,15,0,15,0,1,,,,,,,,,,,,,
6650d8bb5a4e87dbcf05fd21,TCR,2024-06-24_14h46.31.372,LearnStrategy,2023.2.3,Win32,58.82352941,7,2,1,,,,,,,,8,04,,,,,,,,,,,8,1.141,1,,,,,,0.362222222,-0.415555556,1,0,0,1.141,Pumice_rect,0,0,0,0,1,
6650d8bb5a4e87dbcf05fd21,TCR,2024-06-24_14h46.31.372,LearnStrategy,2023.2.3,Win32,58.82352941,7,2,2,,,,,,,,7,15,,,,,,,,,,,6,2.072,0,,,,,,-0.068888889,-0.407777778,1,0,0,2.072,Pegmatite_rect,1,0,1,0,1,
6650d8bb5a4e87dbcf05fd21,TCR,2024-06-24_14h46.31.372,LearnStrategy,2023.2.3,Win32,58.82352941,7,2,3,,,,,,,,6,07,,,,,,,,,,,6,1.357,1,,,,,,-0.093333333,-0.415555556,1,0,0,1.357,Pegmatite_rect,2,0,2,0,1,
6650d8bb5a4e87dbcf05fd21,TCR,2024-06-24_14h46.31.372,LearnStrategy,2023.2.3,Win32,58.82352941,7,2,4,,,,,,,,5,11,,,,,,,,,,,5,1.14,1,,,,,,-0.385555556,-0.383333333,1,0,0,1.14,Obsidian_rect,3,0,3,0,1,
6650d8bb5a4e87dbcf05fd21,TCR,2024-06-24_14h46.31.372,LearnStrategy,2023.2.3,Win32,58.82352941,7,2,5,,,,,,,,4,03,,,,,,,,,,,1,1.839,0,,,,,,-0.392222222,-0.257777778,1,0,0,1.839,Andesite_rect,4,0,4,0,1,
6650d8bb5a4e87dbcf05fd21,TCR,2024-06-24_14h46.31.372,LearnStrategy,2023.2.3,Win32,58.82352941,7,2,6,,,,,,,,2,11,,,,,,,,,,,7,1.839,0,,,,,,0.141111111,-0.407777778,1,0,0,1.839,Peridotite_rect,5,0,5,0,1,
6650d8bb5a4e87dbcf05fd21,TCR,2024-06-24_14h46.31.372,LearnStrategy,2023.2.3,Win32,58.82352941,7,2,7,,,,,,,,1,03,,,,,,,,,,,3,1.906,0,,,,,,0.18,-0.268888889,1,0,0,1.906,Diorite_rect,6,0,6,0,1,
6650d8bb5a4e87dbcf05fd21,TCR,2024-06-24_14h46.31.372,LearnStrategy,2023.2.3,Win32,58.82352941,7,2,8,,,,,,,,2,05,,,,,,,,,,,2,1.257,1,,,,,,-0.218888889,-0.245555556,1,0,0,1.257,Basalt_rect,7,0,7,0,1,
6650d8bb5a4e87dbcf05fd21,TCR,2024-06-24_14h46.31.372,LearnStrategy,2023.2.3,Win32,58.82352941,7,2,9,,,,,,,,8,13,,,,,,,,,,,8,1.273,1,,,,,,0.406666667,-0.396666667,1,0,0,1.273,Pumice_rect,8,0,8,0,1,
6650d8bb5a4e87dbcf05fd21,TCR,2024-06-24_14h46.31.372,LearnStrategy,2023.2.3,Win32,58.82352941,7,2,10,,,,,,,,1,05,,,,,,,,,,,3,0.923,0,,,,,,0.157777778,-0.268888889,1,0,0,0.923,Diorite_rect,9,0,9,0,1,
6650d8bb5a4e87dbcf05fd21,TCR,2024-06-24_14h46.31.372,LearnStrategy,2023.2.3,Win32,58.82352941,7,2,11,,,,,,,,3,16,,,,,,,,,,,3,1.623,1,,,,,,0.113333333,-0.238888889,1,0,0,1.623,Diorite_rect,10,0,10,0,1,
6650d8bb5a4e87dbcf05fd21,TCR,2024-06-24_14h46.31.372,LearnStrategy,2023.2.3,Win32,58.82352941,7,2,12,,,,,,,,5,12,,,,,,,,,,,5,1.407,1,,,,,,-0.354444444,-0.411111111,1,0,0,1.407,Obsidian_rect,11,0,11,0,1,
6650d8bb5a4e87dbcf05fd21,TCR,2024-06-24_14h46.31.372,LearnStrategy,2023.2.3,Win32,58.82352941,7,2,13,,,,,,,,3,13,,,,,,,,,,,4,1.905,0,,,,,,0.428888889,-0.261111111,1,0,0,1.905,Gabbro_rect,12,0,12,0,1,
6650d8bb5a4e87dbcf05fd21,TCR,2024-06-24_14h46.31.372,LearnStrategy,2023.2.3,Win32,58.82352941,7,2,14,,,,,,,,4,15,,,,,,,,,,,4,0.739,1,,,,,,0.355555556,-0.241111111,1,0,0,0.739,Gabbro_rect,13,0,13,0,1,
6650d8bb5a4e87dbcf05fd21,TCR,2024-06-24_14h46.31.372,LearnStrategy,2023.2.3,Win32,58.82352941,7,2,15,,,,,,,,6,09,,,,,,,,,,,6,1.49,1,,,,,,-0.077777778,-0.406666667,1,0,0,1.49,Pegmatite_rect,14,0,14,0,1,
6650d8bb5a4e87dbcf05fd21,TCR,2024-06-24_14h46.31.372,LearnStrategy,2023.2.3,Win32,58.82352941,7,2,16,,,,,,,,7,14,,,,,,,,,,,7,1.025,1,,,,,,0.165555556,-0.396666667,1,0,0,1.025,Peridotite_rect,15,0,15,0,1,
6650d8bb5a4e87dbcf05fd21,TCR,2024-06-24_14h46.31.372,LearnStrategy,2023.2.3,Win32,58.82352941,8,1,1,0.051111111,-0.001111111,1,0,0,0.763,rock_grid_rect_2,6,05,-1,-1,0.763,0.406666667,-0.406666667,1,0,0,1.673,Pumice_rect,8,1.673,0,0,0,0,0,1,,,,,,,,,,,,,
6650d8bb5a4e87dbcf05fd21,TCR,2024-06-24_14h46.31.372,LearnStrategy,2023.2.3,Win32,58.82352941,8,1,2,0.026666667,-0.001111111,1,0,0,0.798,rock_grid_rect_2,4,14,-1,-1,0.798,0.157777778,-0.401111111,1,0,0,3.969,Peridotite_rect,7,3.969,0,1,0,1,0,1,,,,,,,,,,,,,
6650d8bb5a4e87dbcf05fd21,TCR,2024-06-24_14h46.31.372,LearnStrategy,2023.2.3,Win32,58.82352941,8,1,3,0.066666667,-0.001111111,1,0,0,0.397,rock_grid_rect_2,7,07,-1,-1,0.397,-0.055555556,-0.384444444,1,0,0,1.89,Pegmatite_rect,6,1.89,0,2,0,2,0,1,,,,,,,,,,,,,
6650d8bb5a4e87dbcf05fd21,TCR,2024-06-24_14h46.31.372,LearnStrategy,2023.2.3,Win32,58.82352941,8,1,4,0.011111111,0.018888889,1,0,0,0.781,rock_grid_rect_2,1,06,-1,-1,0.781,0.158888889,-0.24,1,0,0,1.273,Diorite_rect,3,1.273,0,3,0,3,0,1,,,,,,,,,,,,,
6650d8bb5a4e87dbcf05fd21,TCR,2024-06-24_14h46.31.372,LearnStrategy,2023.2.3,Win32,58.82352941,8,1,5,0.016666667,-0.021111111,1,0,0,0.464,rock_grid_rect_2,3,06,-1,-1,0.464,0.132222222,-0.257777778,1,0,0,1.24,Diorite_rect,3,1.24,1,4,0,4,0,1,,,,,,,,,,,,,
6650d8bb5a4e87dbcf05fd21,TCR,2024-06-24_14h46.31.372,LearnStrategy,2023.2.3,Win32,58.82352941,8,1,6,-0.018888889,0.004444444,1,0,0,0.498,rock_grid_rect_2,8,03,-1,-1,0.498,0.318888889,-0.415555556,1,0,0,0.891,Pumice_rect,8,0.891,1,5,0,5,0,1,,,,,,,,,,,,,
6650d8bb5a4e87dbcf05fd21,TCR,2024-06-24_14h46.31.372,LearnStrategy,2023.2.3,Win32,58.82352941,8,1,7,0.006666667,-0.002222222,1,0,0,0.481,rock_grid_rect_2,2,08,-1,-1,0.481,-0.05,-0.24,1,0,0,0.876,Basalt_rect,2,0.876,1,6,0,6,0,1,,,,,,,,,,,,,
6650d8bb5a4e87dbcf05fd21,TCR,2024-06-24_14h46.31.372,LearnStrategy,2023.2.3,Win32,58.82352941,8,1,8,-0.021111111,0.016666667,1,0,0,0.581,rock_grid_rect_2,6,15,-1,-1,0.581,-0.11,-0.383333333,1,0,0,0.975,Pegmatite_rect,6,0.975,1,7,0,7,0,1,,,,,,,,,,,,,
6650d8bb5a4e87dbcf05fd21,TCR,2024-06-24_14h46.31.372,LearnStrategy,2023.2.3,Win32,58.82352941,8,1,9,-0.034444444,-0.005555556,1,0,0,0.847,rock_grid_rect_2,1,10,-1,-1,0.847,0.184444444,-0.395555556,1,0,0,2.189,Peridotite_rect,7,2.189,0,8,0,8,0,1,,,,,,,,,,,,,
6650d8bb5a4e87dbcf05fd21,TCR,2024-06-24_14h46.31.372,LearnStrategy,2023.2.3,Win32,58.82352941,8,1,10,-0.01,0.015555556,1,0,0,0.63,rock_grid_rect_2,7,13,-1,-1,0.63,0.394444444,-0.236666667,1,0,0,3.303,Gabbro_rect,4,3.303,0,9,0,9,0,1,,,,,,,,,,,,,
6650d8bb5a4e87dbcf05fd21,TCR,2024-06-24_14h46.31.372,LearnStrategy,2023.2.3,Win32,58.82352941,8,1,11,0.075555556,-0.013333333,1,0,0,0.514,rock_grid_rect_2,3,06,-1,-1,0.514,0.122222222,-0.267777778,1,0,0,1.058,Diorite_rect,3,1.058,1,10,0,10,0,1,,,,,,,,,,,,,
6650d8bb5a4e87dbcf05fd21,TCR,2024-06-24_14h46.31.372,LearnStrategy,2023.2.3,Win32,58.82352941,8,1,12,0.074444444,-0.001111111,1,0,0,0.415,rock_grid_rect_2,4,12,-1,-1,0.415,-0.126666667,-0.256666667,1,0,0,0.96,Basalt_rect,2,0.96,0,11,0,11,0,1,,,,,,,,,,,,,
6650d8bb5a4e87dbcf05fd21,TCR,2024-06-24_14h46.31.372,LearnStrategy,2023.2.3,Win32,58.82352941,8,1,13,0.137777778,0.016666667,1,0,0,0.53,rock_grid_rect_2,2,04,-1,-1,0.53,-0.062222222,-0.257777778,1,0,0,1.041,Basalt_rect,2,1.041,1,12,0,12,0,1,,,,,,,,,,,,,
6650d8bb5a4e87dbcf05fd21,TCR,2024-06-24_14h46.31.372,LearnStrategy,2023.2.3,Win32,58.82352941,8,1,14,0.025555556,0.008888889,1,0,0,0.88,rock_grid_rect_2,1,04,-1,-1,0.88,0.107777778,-0.228888889,1,0,0,2.357,Diorite_rect,3,2.357,0,13,0,13,0,1,,,,,,,,,,,,,
6650d8bb5a4e87dbcf05fd21,TCR,2024-06-24_14h46.31.372,LearnStrategy,2023.2.3,Win32,58.82352941,8,1,15,-0.026666667,-0.012222222,1,0,0,0.414,rock_grid_rect_2,7,13,-1,-1,0.414,0.403333333,-0.254444444,1,0,0,1.474,Gabbro_rect,4,1.474,0,14,0,14,0,1,,,,,,,,,,,,,
6650d8bb5a4e87dbcf05fd21,TCR,2024-06-24_14h46.31.372,LearnStrategy,2023.2.3,Win32,58.82352941,8,1,16,0.081111111,-0.013333333,1,0,0,0.481,rock_grid_rect_2,3,07,-1,-1,0.481,0.414444444,-0.265555556,1,0,0,1.075,Gabbro_rect,4,1.075,0,15,0,15,0,1,,,,,,,,,,,,,
6650d8bb5a4e87dbcf05fd21,TCR,2024-06-24_14h46.31.372,LearnStrategy,2023.2.3,Win32,58.82352941,8,2,1,,,,,,,,4,16,,,,,,,,,,,6,4.102,0,,,,,,-0.118888889,-0.418888889,1,0,0,4.102,Pegmatite_rect,0,0,0,0,1,
6650d8bb5a4e87dbcf05fd21,TCR,2024-06-24_14h46.31.372,LearnStrategy,2023.2.3,Win32,58.82352941,8,2,2,,,,,,,,4,13,,,,,,,,,,,6,1.358,0,,,,,,-0.054444444,-0.403333333,1,0,0,1.358,Pegmatite_rect,1,0,1,0,1,
6650d8bb5a4e87dbcf05fd21,TCR,2024-06-24_14h46.31.372,LearnStrategy,2023.2.3,Win32,58.82352941,8,2,3,,,,,,,,7,16,,,,,,,,,,,7,2.04,1,,,,,,0.172222222,-0.396666667,1,0,0,2.04,Peridotite_rect,2,0,2,0,1,
6650d8bb5a4e87dbcf05fd21,TCR,2024-06-24_14h46.31.372,LearnStrategy,2023.2.3,Win32,58.82352941,8,2,4,,,,,,,,1,11,,,,,,,,,,,3,1.739,0,,,,,,0.136666667,-0.233333333,1,0,0,1.739,Diorite_rect,3,0,3,0,1,
6650d8bb5a4e87dbcf05fd21,TCR,2024-06-24_14h46.31.372,LearnStrategy,2023.2.3,Win32,58.82352941,8,2,5,,,,,,,,8,05,,,,,,,,,,,8,1.79,1,,,,,,0.431111111,-0.382222222,1,0,0,1.79,Pumice_rect,4,0,4,0,1,
6650d8bb5a4e87dbcf05fd21,TCR,2024-06-24_14h46.31.372,LearnStrategy,2023.2.3,Win32,58.82352941,8,2,6,,,,,,,,3,02,,,,,,,,,,,1,1.835,0,,,,,,-0.355555556,-0.257777778,1,0,0,1.835,Andesite_rect,5,0,5,0,1,
6650d8bb5a4e87dbcf05fd21,TCR,2024-06-24_14h46.31.372,LearnStrategy,2023.2.3,Win32,58.82352941,8,2,7,,,,,,,,6,12,,,,,,,,,,,3,2.121,0,,,,,,0.12,-0.252222222,1,0,0,2.121,Diorite_rect,6,0,6,0,1,
6650d8bb5a4e87dbcf05fd21,TCR,2024-06-24_14h46.31.372,LearnStrategy,2023.2.3,Win32,58.82352941,8,2,8,,,,,,,,6,03,,,,,,,,,,,6,3.102,1,,,,,,-0.138888889,-0.406666667,1,0,0,3.102,Pegmatite_rect,7,0,7,0,1,
6650d8bb5a4e87dbcf05fd21,TCR,2024-06-24_14h46.31.372,LearnStrategy,2023.2.3,Win32,58.82352941,8,2,9,,,,,,,,5,05,,,,,,,,,,,5,1.556,1,,,,,,-0.41,-0.391111111,1,0,0,1.556,Obsidian_rect,8,0,8,0,1,
6650d8bb5a4e87dbcf05fd21,TCR,2024-06-24_14h46.31.372,LearnStrategy,2023.2.3,Win32,58.82352941,8,2,10,,,,,,,,7,02,,,,,,,,,,,4,2.454,0,,,,,,0.417777778,-0.245555556,1,0,0,2.454,Gabbro_rect,9,0,9,0,1,
6650d8bb5a4e87dbcf05fd21,TCR,2024-06-24_14h46.31.372,LearnStrategy,2023.2.3,Win32,58.82352941,8,2,11,,,,,,,,5,06,,,,,,,,,,,5,1.241,1,,,,,,-0.424444444,-0.41,1,0,0,1.241,Obsidian_rect,10,0,10,0,1,
6650d8bb5a4e87dbcf05fd21,TCR,2024-06-24_14h46.31.372,LearnStrategy,2023.2.3,Win32,58.82352941,8,2,12,,,,,,,,2,14,,,,,,,,,,,7,1.541,0,,,,,,0.16,-0.383333333,1,0,0,1.541,Peridotite_rect,11,0,11,0,1,
6650d8bb5a4e87dbcf05fd21,TCR,2024-06-24_14h46.31.372,LearnStrategy,2023.2.3,Win32,58.82352941,8,2,13,,,,,,,,3,15,,,,,,,,,,,8,4.668,0,,,,,,0.358888889,-0.394444444,1,0,0,4.668,Pumice_rect,12,0,12,0,1,
6650d8bb5a4e87dbcf05fd21,TCR,2024-06-24_14h46.31.372,LearnStrategy,2023.2.3,Win32,58.82352941,8,2,14,,,,,,,,1,02,,,,,,,,,,,7,3.069,0,,,,,,0.161111111,-0.413333333,1,0,0,3.069,Peridotite_rect,13,0,13,0,1,
6650d8bb5a4e87dbcf05fd21,TCR,2024-06-24_14h46.31.372,LearnStrategy,2023.2.3,Win32,58.82352941,8,2,15,,,,,,,,8,02,,,,,,,,,,,8,1.04,1,,,,,,0.347777778,-0.396666667,1,0,0,1.04,Pumice_rect,14,0,14,0,1,
6650d8bb5a4e87dbcf05fd21,TCR,2024-06-24_14h46.31.372,LearnStrategy,2023.2.3,Win32,58.82352941,8,2,16,,,,,,,,2,02,,,,,,,,,,,2,1.21,1,,,,,,-0.113333333,-0.243333333,1,0,0,1.21,Basalt_rect,15,0,15,0,1,
6650d8bb5a4e87dbcf05fd21,TCR,2024-06-24_14h46.31.372,LearnStrategy,2023.2.3,Win32,58.82352941,9,1,1,0.117777778,-0.01,1,0,0,0.58,rock_grid_rect_2,6,08,-1,-1,0.58,-0.412222222,-0.405555556,1,0,0,1.623,Obsidian_rect,5,1.623,0,0,0,0,0,1,,,,,,,,,,,,,
6650d8bb5a4e87dbcf05fd21,TCR,2024-06-24_14h46.31.372,LearnStrategy,2023.2.3,Win32,58.82352941,9,1,2,0.035555556,0.008888889,1,0,0,0.647,rock_grid_rect_2,2,06,-1,-1,0.647,-0.143333333,-0.264444444,1,0,0,0.908,Basalt_rect,2,0.908,1,1,0,1,0,1,,,,,,,,,,,,,
6650d8bb5a4e87dbcf05fd21,TCR,2024-06-24_14h46.31.372,LearnStrategy,2023.2.3,Win32,58.82352941,9,1,3,-0.048888889,-0.011111111,1,0,0,0.531,rock_grid_rect_2,2,08,-1,-1,0.531,-0.135555556,-0.251111111,1,0,0,0.791,Basalt_rect,2,0.791,1,2,0,2,0,1,,,,,,,,,,,,,
6650d8bb5a4e87dbcf05fd21,TCR,2024-06-24_14h46.31.372,LearnStrategy,2023.2.3,Win32,58.82352941,9,1,4,-0.056666667,-0.001111111,1,0,0,0.58,rock_grid_rect_2,4,14,-1,-1,0.58,-0.108888889,-0.398888889,1,0,0,1.94,Pegmatite_rect,6,1.94,0,3,0,3,0,1,,,,,,,,,,,,,
6650d8bb5a4e87dbcf05fd21,TCR,2024-06-24_14h46.31.372,LearnStrategy,2023.2.3,Win32,58.82352941,9,1,5,0.095555556,-0.001111111,1,0,0,0.514,rock_grid_rect_2,1,01,-1,-1,0.514,0.101111111,-0.39,1,0,0,1.708,Peridotite_rect,7,1.708,0,4,0,4,0,1,,,,,,,,,,,,,
6650d8bb5a4e87dbcf05fd21,TCR,2024-06-24_14h46.31.372,LearnStrategy,2023.2.3,Win32,58.82352941,9,1,6,-0.008888889,0.023333333,1,0,0,0.464,rock_grid_rect_2,7,08,-1,-1,0.464,-0.105555556,-0.405555556,1,0,0,1.609,Pegmatite_rect,6,1.609,0,5,0,5,0,1,,,,,,,,,,,,,
6650d8bb5a4e87dbcf05fd21,TCR,2024-06-24_14h46.31.372,LearnStrategy,2023.2.3,Win32,58.82352941,9,1,7,0.022222222,-0.006666667,1,0,0,0.565,rock_grid_rect_2,3,10,-1,-1,0.565,0.094444444,-0.242222222,1,0,0,1.19,Diorite_rect,3,1.19,1,6,0,6,0,1,,,,,,,,,,,,,
6650d8bb5a4e87dbcf05fd21,TCR,2024-06-24_14h46.31.372,LearnStrategy,2023.2.3,Win32,58.82352941,9,1,8,-0.041111111,-0.018888889,1,0,0,0.397,rock_grid_rect_2,1,07,-1,-1,0.397,0.137777778,-0.234444444,1,0,0,0.742,Diorite_rect,3,0.742,0,7,0,7,0,1,,,,,,,,,,,,,
6650d8bb5a4e87dbcf05fd21,TCR,2024-06-24_14h46.31.372,LearnStrategy,2023.2.3,Win32,58.82352941,9,1,9,0.067777778,-0.024444444,1,0,0,0.448,rock_grid_rect_2,7,12,-1,-1,0.448,-0.071111111,-0.406666667,1,0,0,2.106,Pegmatite_rect,6,2.106,0,8,0,8,0,1,,,,,,,,,,,,,
6650d8bb5a4e87dbcf05fd21,TCR,2024-06-24_14h46.31.372,LearnStrategy,2023.2.3,Win32,58.82352941,9,1,10,0.083333333,-0.014444444,1,0,0,0.497,rock_grid_rect_2,1,01,-1,-1,0.497,-0.416666667,-0.247777778,1,0,0,1.506,Andesite_rect,1,1.506,1,9,0,9,0,1,,,,,,,,,,,,,
6650d8bb5a4e87dbcf05fd21,TCR,2024-06-24_14h46.31.372,LearnStrategy,2023.2.3,Win32,58.82352941,9,1,11,-0.02,0.013333333,1,0,0,0.415,rock_grid_rect_2,3,14,-1,-1,0.415,-0.445555556,-0.258888889,1,0,0,1.74,Andesite_rect,1,1.74,0,10,0,10,0,1,,,,,,,,,,,,,
6650d8bb5a4e87dbcf05fd21,TCR,2024-06-24_14h46.31.372,LearnStrategy,2023.2.3,Win32,58.82352941,9,1,12,0.032222222,-0.001111111,1,0,0,0.748,rock_grid_rect_2,6,16,-1,-1,0.748,-0.153333333,-0.396666667,1,0,0,3.837,Pegmatite_rect,6,3.837,1,11,0,11,0,1,,,,,,,,,,,,,
6650d8bb5a4e87dbcf05fd21,TCR,2024-06-24_14h46.31.372,LearnStrategy,2023.2.3,Win32,58.82352941,9,1,13,-0.008888889,0,1,0,0,0.629,rock_grid_rect_2,4,01,-1,-1,0.629,0.421111111,-0.258888889,1,0,0,1.94,Gabbro_rect,4,1.94,1,12,0,12,0,1,,,,,,,,,,,,,
6650d8bb5a4e87dbcf05fd21,TCR,2024-06-24_14h46.31.372,LearnStrategy,2023.2.3,Win32,58.82352941,9,1,14,0.153333333,0.003333333,1,0,0,0.813,rock_grid_rect_2,4,14,-1,-1,0.813,0.131111111,-0.394444444,1,0,0,2.34,Peridotite_rect,7,2.34,0,13,0,13,0,1,,,,,,,,,,,,,
6650d8bb5a4e87dbcf05fd21,TCR,2024-06-24_14h46.31.372,LearnStrategy,2023.2.3,Win32,58.82352941,9,1,15,0.115555556,0.006666667,1,0,0,0.464,rock_grid_rect_2,3,12,-1,-1,0.464,0.361111111,-0.395555556,1,0,0,1.623,Pumice_rect,8,1.623,0,14,0,14,0,1,,,,,,,,,,,,,
6650d8bb5a4e87dbcf05fd21,TCR,2024-06-24_14h46.31.372,LearnStrategy,2023.2.3,Win32,58.82352941,9,1,16,0.127777778,0.001111111,1,0,0,0.732,rock_grid_rect_2,8,10,-1,-1,0.732,0.427777778,-0.388888889,1,0,0,0.975,Pumice_rect,8,0.975,1,15,0,15,0,1,,,,,,,,,,,,,
6650d8bb5a4e87dbcf05fd21,TCR,2024-06-24_14h46.31.372,LearnStrategy,2023.2.3,Win32,58.82352941,9,2,1,,,,,,,,1,14,,,,,,,,,,,7,3.404,0,,,,,,0.135555556,-0.401111111,1,0,0,3.404,Peridotite_rect,0,0,0,0,1,
6650d8bb5a4e87dbcf05fd21,TCR,2024-06-24_14h46.31.372,LearnStrategy,2023.2.3,Win32,58.82352941,9,2,2,,,,,,,,8,14,,,,,,,,,,,8,0.89,1,,,,,,0.362222222,-0.415555556,1,0,0,0.89,Pumice_rect,1,0,1,0,1,
6650d8bb5a4e87dbcf05fd21,TCR,2024-06-24_14h46.31.372,LearnStrategy,2023.2.3,Win32,58.82352941,9,2,3,,,,,,,,6,06,,,,,,,,,,,8,1.808,0,,,,,,0.396666667,-0.386666667,1,0,0,1.808,Pumice_rect,2,0,2,0,1,
6650d8bb5a4e87dbcf05fd21,TCR,2024-06-24_14h46.31.372,LearnStrategy,2023.2.3,Win32,58.82352941,9,2,4,,,,,,,,2,01,,,,,,,,,,,2,0.957,1,,,,,,-0.132222222,-0.265555556,1,0,0,0.957,Basalt_rect,3,0,3,0,1,
6650d8bb5a4e87dbcf05fd21,TCR,2024-06-24_14h46.31.372,LearnStrategy,2023.2.3,Win32,58.82352941,9,2,5,,,,,,,,1,09,,,,,,,,,,,1,1.904,1,,,,,,-0.364444444,-0.251111111,1,0,0,1.904,Andesite_rect,4,0,4,0,1,
6650d8bb5a4e87dbcf05fd21,TCR,2024-06-24_14h46.31.372,LearnStrategy,2023.2.3,Win32,58.82352941,9,2,6,,,,,,,,3,11,,,,,,,,,,,4,2.887,0,,,,,,0.403333333,-0.256666667,1,0,0,2.887,Gabbro_rect,5,0,5,0,1,
6650d8bb5a4e87dbcf05fd21,TCR,2024-06-24_14h46.31.372,LearnStrategy,2023.2.3,Win32,58.82352941,9,2,7,,,,,,,,3,08,,,,,,,,,,,7,4.335,0,,,,,,0.095555556,-0.407777778,1,0,0,4.335,Peridotite_rect,6,0,6,0,1,
6650d8bb5a4e87dbcf05fd21,TCR,2024-06-24_14h46.31.372,LearnStrategy,2023.2.3,Win32,58.82352941,9,2,8,,,,,,,,4,10,,,,,,,,,,,6,2.804,0,,,,,,-0.088888889,-0.406666667,1,0,0,2.804,Pegmatite_rect,7,0,7,0,1,
6650d8bb5a4e87dbcf05fd21,TCR,2024-06-24_14h46.31.372,LearnStrategy,2023.2.3,Win32,58.82352941,9,2,9,,,,,,,,8,06,,,,,,,,,,,8,0.875,1,,,,,,0.503333333,-0.398888889,1,0,0,0.875,Pumice_rect,8,0,8,0,1,
6650d8bb5a4e87dbcf05fd21,TCR,2024-06-24_14h46.31.372,LearnStrategy,2023.2.3,Win32,58.82352941,9,2,10,,,,,,,,7,05,,,,,,,,,,,4,1.723,0,,,,,,0.421111111,-0.256666667,1,0,0,1.723,Gabbro_rect,9,0,9,0,1,
6650d8bb5a4e87dbcf05fd21,TCR,2024-06-24_14h46.31.372,LearnStrategy,2023.2.3,Win32,58.82352941,9,2,11,,,,,,,,2,12,,,,,,,,,,,1,2.388,0,,,,,,-0.351111111,-0.262222222,1,0,0,2.388,Andesite_rect,10,0,10,0,1,
6650d8bb5a4e87dbcf05fd21,TCR,2024-06-24_14h46.31.372,LearnStrategy,2023.2.3,Win32,58.82352941,9,2,12,,,,,,,,6,13,,,,,,,,,,,7,1.524,0,,,,,,0.104444444,-0.383333333,1,0,0,1.524,Peridotite_rect,11,0,11,0,1,
6650d8bb5a4e87dbcf05fd21,TCR,2024-06-24_14h46.31.372,LearnStrategy,2023.2.3,Win32,58.82352941,9,2,13,,,,,,,,7,06,,,,,,,,,,,4,4.119,0,,,,,,0.404444444,-0.231111111,1,0,0,4.119,Gabbro_rect,12,0,12,0,1,
6650d8bb5a4e87dbcf05fd21,TCR,2024-06-24_14h46.31.372,LearnStrategy,2023.2.3,Win32,58.82352941,9,2,14,,,,,,,,5,02,,,,,,,,,,,5,0.909,1,,,,,,-0.385555556,-0.406666667,1,0,0,0.909,Obsidian_rect,13,0,13,0,1,
6650d8bb5a4e87dbcf05fd21,TCR,2024-06-24_14h46.31.372,LearnStrategy,2023.2.3,Win32,58.82352941,9,2,15,,,,,,,,4,11,,,,,,,,,,,2,1.341,0,,,,,,-0.088888889,-0.254444444,1,0,0,1.341,Basalt_rect,14,0,14,0,1,
6650d8bb5a4e87dbcf05fd21,TCR,2024-06-24_14h46.31.372,LearnStrategy,2023.2.3,Win32,58.82352941,9,2,16,,,,,,,,5,16,,,,,,,,,,,5,0.911,1,,,,,,-0.301111111,-0.4,1,0,0,0.911,Obsidian_rect,15,0,15,0,1,
6650d8bb5a4e87dbcf05fd21,TCR,2024-06-24_14h46.31.372,LearnStrategy,2023.2.3,Win32,58.82352941,,,,,,,,,,,,,,,,,,,,,,,,,,,,,,,,,,,,,,,,,,,0
6650d8bb5a4e87dbcf05fd21,TCR,2024-06-24_14h46.31.372,LearnStrategy,2023.2.3,Win32,58.82352941,,,,,,,,,,,,,,,,,,,,,,,,,,,,,,,,,,,,,,,,,,,
6650d8bb5a4e87dbcf05fd21,TCR,2024-06-24_14h46.31.372,LearnStrategy,2023.2.3,Win32,58.82352941,,,,,,,,,,,5,10,1,1,,,,,,,,,,,,,,,,,,,,,,,,,,,,,
6650d8bb5a4e87dbcf05fd21,TCR,2024-06-24_14h46.31.372,LearnStrategy,2023.2.3,Win32,58.82352941,,,,,,,,,,,8,16,1,2,,,,,,,,,,,,,,,,,,,,,,,,,,,,,
6650d8bb5a4e87dbcf05fd21,TCR,2024-06-24_14h46.31.372,LearnStrategy,2023.2.3,Win32,58.82352941,,,,,,,,,,,1,01,1,3,,,,,,,,,,,,,,,,,,,,,,,,,,,,,
6650d8bb5a4e87dbcf05fd21,TCR,2024-06-24_14h46.31.372,LearnStrategy,2023.2.3,Win32,58.82352941,,,,,,,,,,,8,09,1,4,,,,,,,,,,,,,,,,,,,,,,,,,,,,,
6650d8bb5a4e87dbcf05fd21,TCR,2024-06-24_14h46.31.372,LearnStrategy,2023.2.3,Win32,58.82352941,,,,,,,,,,,6,15,1,5,,,,,,,,,,,,,,,,,,,,,,,,,,,,,
6650d8bb5a4e87dbcf05fd21,TCR,2024-06-24_14h46.31.372,LearnStrategy,2023.2.3,Win32,58.82352941,,,,,,,,,,,3,06,1,6,,,,,,,,,,,,,,,,,,,,,,,,,,,,,
6650d8bb5a4e87dbcf05fd21,TCR,2024-06-24_14h46.31.372,LearnStrategy,2023.2.3,Win32,58.82352941,,,,,,,,,,,1,10,1,7,,,,,,,,,,,,,,,,,,,,,,,,,,,,,
6650d8bb5a4e87dbcf05fd21,TCR,2024-06-24_14h46.31.372,LearnStrategy,2023.2.3,Win32,58.82352941,,,,,,,,,,,3,10,1,8,,,,,,,,,,,,,,,,,,,,,,,,,,,,,
6650d8bb5a4e87dbcf05fd21,TCR,2024-06-24_14h46.31.372,LearnStrategy,2023.2.3,Win32,58.82352941,,,,,,,,,,,3,09,2,1,,,,,,,,,,,,,,,,,,,,,,,,,,,,,
6650d8bb5a4e87dbcf05fd21,TCR,2024-06-24_14h46.31.372,LearnStrategy,2023.2.3,Win32,58.82352941,,,,,,,,,,,1,04,2,2,,,,,,,,,,,,,,,,,,,,,,,,,,,,,
6650d8bb5a4e87dbcf05fd21,TCR,2024-06-24_14h46.31.372,LearnStrategy,2023.2.3,Win32,58.82352941,,,,,,,,,,,2,16,2,3,,,,,,,,,,,,,,,,,,,,,,,,,,,,,
6650d8bb5a4e87dbcf05fd21,TCR,2024-06-24_14h46.31.372,LearnStrategy,2023.2.3,Win32,58.82352941,,,,,,,,,,,5,09,2,4,,,,,,,,,,,,,,,,,,,,,,,,,,,,,
6650d8bb5a4e87dbcf05fd21,TCR,2024-06-24_14h46.31.372,LearnStrategy,2023.2.3,Win32,58.82352941,,,,,,,,,,,7,10,2,5,,,,,,,,,,,,,,,,,,,,,,,,,,,,,
6650d8bb5a4e87dbcf05fd21,TCR,2024-06-24_14h46.31.372,LearnStrategy,2023.2.3,Win32,58.82352941,,,,,,,,,,,2,10,2,6,,,,,,,,,,,,,,,,,,,,,,,,,,,,,
6650d8bb5a4e87dbcf05fd21,TCR,2024-06-24_14h46.31.372,LearnStrategy,2023.2.3,Win32,58.82352941,,,,,,,,,,,7,12,2,7,,,,,,,,,,,,,,,,,,,,,,,,,,,,,
6650d8bb5a4e87dbcf05fd21,TCR,2024-06-24_14h46.31.372,LearnStrategy,2023.2.3,Win32,58.82352941,,,,,,,,,,,6,05,2,8,,,,,,,,,,,,,,,,,,,,,,,,,,,,,
6650d8bb5a4e87dbcf05fd21,TCR,2024-06-24_14h46.31.372,LearnStrategy,2023.2.3,Win32,58.82352941,,,,,,,,,,,4,12,3,1,,,,,,,,,,,,,,,,,,,,,,,,,,,,,
6650d8bb5a4e87dbcf05fd21,TCR,2024-06-24_14h46.31.372,LearnStrategy,2023.2.3,Win32,58.82352941,,,,,,,,,,,7,07,3,2,,,,,,,,,,,,,,,,,,,,,,,,,,,,,
6650d8bb5a4e87dbcf05fd21,TCR,2024-06-24_14h46.31.372,LearnStrategy,2023.2.3,Win32,58.82352941,,,,,,,,,,,3,07,3,3,,,,,,,,,,,,,,,,,,,,,,,,,,,,,
6650d8bb5a4e87dbcf05fd21,TCR,2024-06-24_14h46.31.372,LearnStrategy,2023.2.3,Win32,58.82352941,,,,,,,,,,,8,08,3,4,,,,,,,,,,,,,,,,,,,,,,,,,,,,,
6650d8bb5a4e87dbcf05fd21,TCR,2024-06-24_14h46.31.372,LearnStrategy,2023.2.3,Win32,58.82352941,,,,,,,,,,,4,05,3,5,,,,,,,,,,,,,,,,,,,,,,,,,,,,,
6650d8bb5a4e87dbcf05fd21,TCR,2024-06-24_14h46.31.372,LearnStrategy,2023.2.3,Win32,58.82352941,,,,,,,,,,,5,14,3,6,,,,,,,,,,,,,,,,,,,,,,,,,,,,,
6650d8bb5a4e87dbcf05fd21,TCR,2024-06-24_14h46.31.372,LearnStrategy,2023.2.3,Win32,58.82352941,,,,,,,,,,,1,06,3,7,,,,,,,,,,,,,,,,,,,,,,,,,,,,,
6650d8bb5a4e87dbcf05fd21,TCR,2024-06-24_14h46.31.372,LearnStrategy,2023.2.3,Win32,58.82352941,,,,,,,,,,,2,08,3,8,,,,,,,,,,,,,,,,,,,,,,,,,,,,,
6650d8bb5a4e87dbcf05fd21,TCR,2024-06-24_14h46.31.372,LearnStrategy,2023.2.3,Win32,58.82352941,,,,,,,,,,,7,04,4,1,,,,,,,,,,,,,,,,,,,,,,,,,,,,,
6650d8bb5a4e87dbcf05fd21,TCR,2024-06-24_14h46.31.372,LearnStrategy,2023.2.3,Win32,58.82352941,,,,,,,,,,,6,10,4,2,,,,,,,,,,,,,,,,,,,,,,,,,,,,,
6650d8bb5a4e87dbcf05fd21,TCR,2024-06-24_14h46.31.372,LearnStrategy,2023.2.3,Win32,58.82352941,,,,,,,,,,,3,14,4,3,,,,,,,,,,,,,,,,,,,,,,,,,,,,,
6650d8bb5a4e87dbcf05fd21,TCR,2024-06-24_14h46.31.372,LearnStrategy,2023.2.3,Win32,58.82352941,,,,,,,,,,,8,03,4,4,,,,,,,,,,,,,,,,,,,,,,,,,,,,,
6650d8bb5a4e87dbcf05fd21,TCR,2024-06-24_14h46.31.372,LearnStrategy,2023.2.3,Win32,58.82352941,,,,,,,,,,,5,08,4,5,,,,,,,,,,,,,,,,,,,,,,,,,,,,,
6650d8bb5a4e87dbcf05fd21,TCR,2024-06-24_14h46.31.372,LearnStrategy,2023.2.3,Win32,58.82352941,,,,,,,,,,,2,06,4,6,,,,,,,,,,,,,,,,,,,,,,,,,,,,,
6650d8bb5a4e87dbcf05fd21,TCR,2024-06-24_14h46.31.372,LearnStrategy,2023.2.3,Win32,58.82352941,,,,,,,,,,,8,10,4,7,,,,,,,,,,,,,,,,,,,,,,,,,,,,,
6650d8bb5a4e87dbcf05fd21,TCR,2024-06-24_14h46.31.372,LearnStrategy,2023.2.3,Win32,58.82352941,,,,,,,,,,,5,07,4,8,,,,,,,,,,,,,,,,,,,,,,,,,,,,,
6650d8bb5a4e87dbcf05fd21,TCR,2024-06-24_14h46.31.372,LearnStrategy,2023.2.3,Win32,58.82352941,,,,,,,,,,,1,16,5,1,,,,,,,,,,,,,,,,,,,,,,,,,,,,,
6650d8bb5a4e87dbcf05fd21,TCR,2024-06-24_14h46.31.372,LearnStrategy,2023.2.3,Win32,58.82352941,,,,,,,,,,,6,16,5,2,,,,,,,,,,,,,,,,,,,,,,,,,,,,,
6650d8bb5a4e87dbcf05fd21,TCR,2024-06-24_14h46.31.372,LearnStrategy,2023.2.3,Win32,58.82352941,,,,,,,,,,,4,09,5,3,,,,,,,,,,,,,,,,,,,,,,,,,,,,,
6650d8bb5a4e87dbcf05fd21,TCR,2024-06-24_14h46.31.372,LearnStrategy,2023.2.3,Win32,58.82352941,,,,,,,,,,,7,08,5,4,,,,,,,,,,,,,,,,,,,,,,,,,,,,,
6650d8bb5a4e87dbcf05fd21,TCR,2024-06-24_14h46.31.372,LearnStrategy,2023.2.3,Win32,58.82352941,,,,,,,,,,,6,08,5,5,,,,,,,,,,,,,,,,,,,,,,,,,,,,,
6650d8bb5a4e87dbcf05fd21,TCR,2024-06-24_14h46.31.372,LearnStrategy,2023.2.3,Win32,58.82352941,,,,,,,,,,,4,01,5,6,,,,,,,,,,,,,,,,,,,,,,,,,,,,,
6650d8bb5a4e87dbcf05fd21,TCR,2024-06-24_14h46.31.372,LearnStrategy,2023.2.3,Win32,58.82352941,,,,,,,,,,,2,04,5,7,,,,,,,,,,,,,,,,,,,,,,,,,,,,,
6650d8bb5a4e87dbcf05fd21,TCR,2024-06-24_14h46.31.372,LearnStrategy,2023.2.3,Win32,58.82352941,,,,,,,,,,,6,11,5,8,,,,,,,,,,,,,,,,,,,,,,,,,,,,,
6650d8bb5a4e87dbcf05fd21,TCR,2024-06-24_14h46.31.372,LearnStrategy,2023.2.3,Win32,58.82352941,,,,,,,,,,,4,08,6,1,,,,,,,,,,,,,,,,,,,,,,,,,,,,,
6650d8bb5a4e87dbcf05fd21,TCR,2024-06-24_14h46.31.372,LearnStrategy,2023.2.3,Win32,58.82352941,,,,,,,,,,,1,07,6,2,,,,,,,,,,,,,,,,,,,,,,,,,,,,,
6650d8bb5a4e87dbcf05fd21,TCR,2024-06-24_14h46.31.372,LearnStrategy,2023.2.3,Win32,58.82352941,,,,,,,,,,,7,13,6,3,,,,,,,,,,,,,,,,,,,,,,,,,,,,,
6650d8bb5a4e87dbcf05fd21,TCR,2024-06-24_14h46.31.372,LearnStrategy,2023.2.3,Win32,58.82352941,,,,,,,,,,,5,04,6,4,,,,,,,,,,,,,,,,,,,,,,,,,,,,,
6650d8bb5a4e87dbcf05fd21,TCR,2024-06-24_14h46.31.372,LearnStrategy,2023.2.3,Win32,58.82352941,,,,,,,,,,,3,12,6,5,,,,,,,,,,,,,,,,,,,,,,,,,,,,,
6650d8bb5a4e87dbcf05fd21,TCR,2024-06-24_14h46.31.372,LearnStrategy,2023.2.3,Win32,58.82352941,,,,,,,,,,,2,09,6,6,,,,,,,,,,,,,,,,,,,,,,,,,,,,,
6650d8bb5a4e87dbcf05fd21,TCR,2024-06-24_14h46.31.372,LearnStrategy,2023.2.3,Win32,58.82352941,,,,,,,,,,,8,15,6,7,,,,,,,,,,,,,,,,,,,,,,,,,,,,,
6650d8bb5a4e87dbcf05fd21,TCR,2024-06-24_14h46.31.372,LearnStrategy,2023.2.3,Win32,58.82352941,,,,,,,,,,,4,14,6,8,,,,,,,,,,,,,,,,,,,,,,,,,,,,,