participant,condition,date,expName,psychopyVersion,OS,frameRate,block,phase,trial,learn_mouse.x,learn_mouse.y,learn_mouse.leftButton,learn_mouse.midButton,learn_mouse.rightButton,learn_mouse.time,learn_mouse.clicked_name,cat,token,row,col,t_select,cat_rec,token_rec,cat_mouse_l.x,cat_mouse_l.y,cat_mouse_l.leftButton,cat_mouse_l.midButton,cat_mouse_l.rightButton,cat_mouse_l.time,cat_mouse_l.clicked_name,resp,t_resp,corr,train_trials.thisRepN,train_trials.thisTrialN,train_trials.thisN,train_trials.thisIndex,train_trials.ran,cat_mouse_t.x,cat_mouse_t.y,cat_mouse_t.leftButton,cat_mouse_t.midButton,cat_mouse_t.rightButton,cat_mouse_t.time,cat_mouse_t.clicked_name,test_trials.thisRepN,test_trials.thisTrialN,test_trials.thisN,test_trials.thisIndex,test_trials.ran,Bonus
665294bea976e31f9602bf76,SCR,2024-06-24_16h33.24.760,LearnStrategy,2023.2.3,MacIntel,60.60606061,,,,,,,,,,,,,,,,,,,,,,,,,,,,,,,,,,,,,,,,,,,,,
665294bea976e31f9602bf76,SCR,2024-06-24_16h33.24.760,LearnStrategy,2023.2.3,MacIntel,60.60606061,1,1,1,-0.062698907,0.22959593,1,0,0,4.2089,Obsidian_04,5,04,5,4,4.209,5,04,-0.351510824,-0.415642497,1,0,0,4.7869,Obsidian_rect,5,4.787,1,0,0,0,0,1,,,,,,,,,,,,,
665294bea976e31f9602bf76,SCR,2024-06-24_16h33.24.760,LearnStrategy,2023.2.3,MacIntel,60.60606061,1,1,2,0.247796902,0.434041087,1,0,0,1.5005,Pegmatite_12,6,12,6,6,1.5,6,12,0.130479262,-0.238572049,1,0,0,13.1783,Diorite_rect,3,13.178,0,1,0,1,0,1,,,,,,,,,,,,,
665294bea976e31f9602bf76,SCR,2024-06-24_16h33.24.760,LearnStrategy,2023.2.3,MacIntel,60.60606061,1,1,3,-0.067299669,0.10654758,1,0,0,2.9999,Basalt_14,2,14,4,4,3,2,14,0.345699327,-0.391500719,1,0,0,3.0822,Pumice_rect,8,3.082,0,2,0,2,0,1,,,,,,,,,,,,,
665294bea976e31f9602bf76,SCR,2024-06-24_16h33.24.760,LearnStrategy,2023.2.3,MacIntel,60.60606061,1,1,4,0.071385905,-0.138572456,1,0,0,1.4686,Diorite_07,3,07,3,5,1.469,3,07,-0.1281132,-0.420604791,1,0,0,4.5382,Pegmatite_rect,6,4.538,0,3,0,3,0,1,,,,,,,,,,,,,
665294bea976e31f9602bf76,SCR,2024-06-24_16h33.24.760,LearnStrategy,2023.2.3,MacIntel,60.60606061,1,1,5,0.230439996,0.069495782,1,0,0,1.4362,Peridotite_14,7,14,4,6,1.436,7,14,0.362705892,-0.24069831,1,0,0,2.4181,Gabbro_rect,4,2.418,0,4,0,4,0,1,,,,,,,,,,,,,
665294bea976e31f9602bf76,SCR,2024-06-24_16h33.24.760,LearnStrategy,2023.2.3,MacIntel,60.60606061,1,1,6,0.501692166,0.41162991,1,0,0,1.4843,Andesite_05,1,05,6,8,1.484,1,05,-0.150603841,-0.39996521,1,0,0,9.4559,Pegmatite_rect,6,9.456,0,5,0,5,0,1,,,,,,,,,,,,,
665294bea976e31f9602bf76,SCR,2024-06-24_16h33.24.760,LearnStrategy,2023.2.3,MacIntel,60.60606061,1,1,7,-0.522567003,0.089586928,1,0,0,1.254,Pumice_04,8,04,4,1,1.254,8,04,0.393208143,-0.39128635,1,0,0,1.4735,Pumice_rect,8,1.474,1,6,0,6,0,1,,,,,,,,,,,,,
665294bea976e31f9602bf76,SCR,2024-06-24_16h33.24.760,LearnStrategy,2023.2.3,MacIntel,60.60606061,1,1,8,-0.241419,0.11805603,1,0,0,1.3694,Diorite_09,3,09,4,3,1.369,3,09,0.09862915,-0.245429281,1,0,0,4.2668,Diorite_rect,3,4.267,1,7,0,7,0,1,,,,,,,,,,,,,
665294bea976e31f9602bf76,SCR,2024-06-24_16h33.24.760,LearnStrategy,2023.2.3,MacIntel,60.60606061,1,1,9,-0.218617825,-0.252554525,1,0,0,1.3712,Peridotite_07,7,07,2,3,1.371,7,07,0.34896403,-0.256335314,1,0,0,6.0829,Gabbro_rect,4,6.083,0,8,0,8,0,1,,,,,,,,,,,,,
665294bea976e31f9602bf76,SCR,2024-06-24_16h33.24.760,LearnStrategy,2023.2.3,MacIntel,60.60606061,1,1,10,0.070489027,0.429395701,1,0,0,1.2006,Pumice_14,8,14,6,5,1.201,8,14,0.356508382,-0.389473945,1,0,0,14.2985,Pumice_rect,8,14.298,1,9,0,9,0,1,,,,,,,,,,,,,
665294bea976e31f9602bf76,SCR,2024-06-24_16h33.24.760,LearnStrategy,2023.2.3,MacIntel,60.60606061,1,1,11,-0.091382175,0.430288408,1,0,0,0.9828,Obsidian_08,5,08,6,4,0.983,5,08,-0.353157484,-0.39955112,1,0,0,1.6608,Obsidian_rect,5,1.661,1,10,0,10,0,1,,,,,,,,,,,,,
665294bea976e31f9602bf76,SCR,2024-06-24_16h33.24.760,LearnStrategy,2023.2.3,MacIntel,60.60606061,1,1,12,0.381170112,0.382351142,1,0,0,2.2846,Basalt_11,2,11,6,7,2.285,2,11,0.423946804,-0.255206095,1,0,0,8.9453,Gabbro_rect,4,8.945,0,11,0,11,0,1,,,,,,,,,,,,,
665294bea976e31f9602bf76,SCR,2024-06-24_16h33.24.760,LearnStrategy,2023.2.3,MacIntel,60.60606061,1,1,13,0.546715495,-0.062744073,1,0,0,1.2703,Gabbro_12,4,12,3,8,1.27,4,12,-0.139117432,-0.404976807,1,0,0,25.5889,Pegmatite_rect,6,25.589,0,12,0,12,0,1,,,,,,,,,,,,,
665294bea976e31f9602bf76,SCR,2024-06-24_16h33.24.760,LearnStrategy,2023.2.3,MacIntel,60.60606061,1,1,14,-0.130589057,-0.44616116,1,0,0,1.3534,Gabbro_09,4,09,1,4,1.353,4,09,-0.130571832,-0.406172485,1,0,0,14.0615,Pegmatite_rect,6,14.061,0,13,0,13,0,1,,,,,,,,,,,,,
665294bea976e31f9602bf76,SCR,2024-06-24_16h33.24.760,LearnStrategy,2023.2.3,MacIntel,60.60606061,1,1,15,0.261565959,0.267493947,1,0,0,1.7154,Pegmatite_08,6,08,5,6,1.715,6,08,-0.111765476,-0.38638265,1,0,0,16.3806,Pegmatite_rect,6,16.381,1,14,0,14,0,1,,,,,,,,,,,,,
665294bea976e31f9602bf76,SCR,2024-06-24_16h33.24.760,LearnStrategy,2023.2.3,MacIntel,60.60606061,1,1,16,-0.231564941,0.237539961,1,0,0,0.8683,Andesite_07,1,07,5,3,0.868,1,07,0.135962253,-0.249075928,1,0,0,2.904,Diorite_rect,3,2.904,0,15,0,15,0,1,,,,,,,,,,,,,
665294bea976e31f9602bf76,SCR,2024-06-24_16h33.24.760,LearnStrategy,2023.2.3,MacIntel,60.60606061,1,2,1,,,,,,,,7,06,,,,,,,,,,,,,7,4.158,1,,,,,,0.131094496,-0.420155707,1,0,0,4.158,Peridotite_rect,0,0,0,0,1,
665294bea976e31f9602bf76,SCR,2024-06-24_16h33.24.760,LearnStrategy,2023.2.3,MacIntel,60.60606061,1,2,2,,,,,,,,1,06,,,,,,,,,,,,,4,16.501,0,,,,,,0.391485324,-0.238968913,1,0,0,16.5011,Gabbro_rect,1,0,1,0,1,
665294bea976e31f9602bf76,SCR,2024-06-24_16h33.24.760,LearnStrategy,2023.2.3,MacIntel,60.60606061,1,2,3,,,,,,,,5,11,,,,,,,,,,,,,5,1.426,1,,,,,,-0.356555583,-0.386227756,1,0,0,1.4264,Obsidian_rect,2,0,2,0,1,
665294bea976e31f9602bf76,SCR,2024-06-24_16h33.24.760,LearnStrategy,2023.2.3,MacIntel,60.60606061,1,2,4,,,,,,,,1,16,,,,,,,,,,,,,1,10.62,1,,,,,,-0.381290351,-0.246397366,1,0,0,10.6203,Andesite_rect,3,0,3,0,1,
665294bea976e31f9602bf76,SCR,2024-06-24_16h33.24.760,LearnStrategy,2023.2.3,MacIntel,60.60606061,1,2,5,,,,,,,,2,12,,,,,,,,,,,,,2,10.951,1,,,,,,-0.101576335,-0.239440375,1,0,0,10.9513,Basalt_rect,4,0,4,0,1,
665294bea976e31f9602bf76,SCR,2024-06-24_16h33.24.760,LearnStrategy,2023.2.3,MacIntel,60.60606061,1,2,6,,,,,,,,4,16,,,,,,,,,,,,,2,6.684,0,,,,,,-0.15358195,-0.237708469,1,0,0,6.6845,Basalt_rect,5,0,5,0,1,
665294bea976e31f9602bf76,SCR,2024-06-24_16h33.24.760,LearnStrategy,2023.2.3,MacIntel,60.60606061,1,2,7,,,,,,,,4,08,,,,,,,,,,,,,4,18.807,1,,,,,,0.438622233,-0.230059136,1,0,0,18.8069,Gabbro_rect,6,0,6,0,1,
665294bea976e31f9602bf76,SCR,2024-06-24_16h33.24.760,LearnStrategy,2023.2.3,MacIntel,60.60606061,1,2,8,,,,,,,,2,16,,,,,,,,,,,,,2,5.729,1,,,,,,-0.115054118,-0.232314792,1,0,0,5.7288,Basalt_rect,7,0,7,0,1,
665294bea976e31f9602bf76,SCR,2024-06-24_16h33.24.760,LearnStrategy,2023.2.3,MacIntel,60.60606061,1,2,9,,,,,,,,8,15,,,,,,,,,,,,,8,1.968,1,,,,,,0.404766439,-0.410998874,1,0,0,1.9683,Pumice_rect,8,0,8,0,1,
665294bea976e31f9602bf76,SCR,2024-06-24_16h33.24.760,LearnStrategy,2023.2.3,MacIntel,60.60606061,1,2,10,,,,,,,,7,13,,,,,,,,,,,,,7,3.702,1,,,,,,0.120941908,-0.406446465,1,0,0,3.7016,Peridotite_rect,9,0,9,0,1,
665294bea976e31f9602bf76,SCR,2024-06-24_16h33.24.760,LearnStrategy,2023.2.3,MacIntel,60.60606061,1,2,11,,,,,,,,5,05,,,,,,,,,,,,,5,7.626,1,,,,,,-0.396862047,-0.406756999,1,0,0,7.6262,Obsidian_rect,10,0,10,0,1,
665294bea976e31f9602bf76,SCR,2024-06-24_16h33.24.760,LearnStrategy,2023.2.3,MacIntel,60.60606061,1,2,12,,,,,,,,8,09,,,,,,,,,,,,,8,1.956,1,,,,,,0.397332492,-0.383209093,1,0,0,1.9563,Pumice_rect,11,0,11,0,1,
665294bea976e31f9602bf76,SCR,2024-06-24_16h33.24.760,LearnStrategy,2023.2.3,MacIntel,60.60606061,1,2,13,,,,,,,,6,03,,,,,,,,,,,,,1,40.265,0,,,,,,-0.384775899,-0.256112332,1,0,0,40.2652,Andesite_rect,12,0,12,0,1,
665294bea976e31f9602bf76,SCR,2024-06-24_16h33.24.760,LearnStrategy,2023.2.3,MacIntel,60.60606061,1,2,14,,,,,,,,3,14,,,,,,,,,,,,,3,3.178,1,,,,,,0.130224474,-0.247902018,1,0,0,3.178,Diorite_rect,13,0,13,0,1,
665294bea976e31f9602bf76,SCR,2024-06-24_16h33.24.760,LearnStrategy,2023.2.3,MacIntel,60.60606061,1,2,15,,,,,,,,6,05,,,,,,,,,,,,,3,17.371,0,,,,,,0.111654121,-0.247353855,1,0,0,17.3714,Diorite_rect,14,0,14,0,1,
665294bea976e31f9602bf76,SCR,2024-06-24_16h33.24.760,LearnStrategy,2023.2.3,MacIntel,60.60606061,1,2,16,,,,,,,,3,02,,,,,,,,,,,,,1,41.591,0,,,,,,-0.381867472,-0.254096544,1,0,0,41.5912,Andesite_rect,15,0,15,0,1,
665294bea976e31f9602bf76,SCR,2024-06-24_16h33.24.760,LearnStrategy,2023.2.3,MacIntel,60.60606061,2,1,1,-0.377717217,-0.399168091,1,0,0,1.7215,Diorite_11,3,11,1,2,1.722,3,11,0.163228082,-0.249451226,1,0,0,16.1002,Diorite_rect,3,16.1,1,0,0,0,0,1,,,,,,,,,,,,,
665294bea976e31f9602bf76,SCR,2024-06-24_16h33.24.760,LearnStrategy,2023.2.3,MacIntel,60.60606061,2,1,2,0.258460829,0.241354641,1,0,0,1.136,Pegmatite_08,6,08,5,6,1.136,6,08,-0.139664646,-0.414960192,1,0,0,3.603,Pegmatite_rect,6,3.603,1,1,0,1,0,1,,,,,,,,,,,,,
665294bea976e31f9602bf76,SCR,2024-06-24_16h33.24.760,LearnStrategy,2023.2.3,MacIntel,60.60606061,2,1,3,0.423815375,0.09072659,1,0,0,0.8789,Diorite_06,3,06,4,7,0.879,3,06,0.148477851,-0.242003106,1,0,0,19.0199,Diorite_rect,3,19.02,1,2,0,2,0,1,,,,,,,,,,,,,
665294bea976e31f9602bf76,SCR,2024-06-24_16h33.24.760,LearnStrategy,2023.2.3,MacIntel,60.60606061,2,1,4,0.045644735,0.05924842,1,0,0,1.6484,Pegmatite_15,6,15,4,5,1.648,6,15,-0.13053677,-0.404286296,1,0,0,3.7219,Pegmatite_rect,6,3.722,1,3,0,3,0,1,,,,,,,,,,,,,
665294bea976e31f9602bf76,SCR,2024-06-24_16h33.24.760,LearnStrategy,2023.2.3,MacIntel,60.60606061,2,1,5,0.212784966,0.376460453,1,0,0,1.2552,Pegmatite_12,6,12,6,6,1.255,6,12,-0.119656915,-0.392030911,1,0,0,3.3387,Pegmatite_rect,6,3.339,1,4,0,4,0,1,,,,,,,,,,,,,
665294bea976e31f9602bf76,SCR,2024-06-24_16h33.24.760,LearnStrategy,2023.2.3,MacIntel,60.60606061,2,1,6,-0.546291182,0.086285807,1,0,0,0.9342,Pumice_04,8,04,4,1,0.934,8,04,0.311790365,-0.387554932,1,0,0,1.5681,Pumice_rect,8,1.568,1,5,0,5,0,1,,,,,,,,,,,,,
665294bea976e31f9602bf76,SCR,2024-06-24_16h33.24.760,LearnStrategy,2023.2.3,MacIntel,60.60606061,2,1,7,0.546213379,-0.394191352,1,0,0,1.2702,Gabbro_11,4,11,1,8,1.27,4,11,0.391707086,-0.238181831,1,0,0,1.4126,Gabbro_rect,4,1.413,1,6,0,6,0,1,,,,,,,,,,,,,
665294bea976e31f9602bf76,SCR,2024-06-24_16h33.24.760,LearnStrategy,2023.2.3,MacIntel,60.60606061,2,1,8,0.276236979,-0.421111993,1,0,0,1.0904,Andesite_14,1,14,1,6,1.09,1,14,-0.384390937,-0.264854262,1,0,0,8.1092,Andesite_rect,1,8.109,1,7,0,7,0,1,,,,,,,,,,,,,
665294bea976e31f9602bf76,SCR,2024-06-24_16h33.24.760,LearnStrategy,2023.2.3,MacIntel,60.60606061,2,1,9,0.549618869,-0.087252875,1,0,0,2.3397,Gabbro_12,4,12,3,8,2.34,4,12,0.311959364,-0.262946574,1,0,0,1.0042,Gabbro_rect,4,1.004,1,8,0,8,0,1,,,,,,,,,,,,,
665294bea976e31f9602bf76,SCR,2024-06-24_16h33.24.760,LearnStrategy,2023.2.3,MacIntel,60.60606061,2,1,10,0.370915256,0.082618815,1,0,0,1.255,Diorite_06,3,06,4,7,1.255,3,06,0.121516181,-0.253404541,1,0,0,2.2179,Diorite_rect,3,2.218,1,9,0,9,0,1,,,,,,,,,,,,,
665294bea976e31f9602bf76,SCR,2024-06-24_16h33.24.760,LearnStrategy,2023.2.3,MacIntel,60.60606061,2,1,11,-0.390009223,0.417904138,1,0,0,1.104,Pegmatite_09,6,09,6,2,1.104,6,09,-0.096789686,-0.38973192,1,0,0,10.9605,Pegmatite_rect,6,10.961,1,10,0,10,0,1,,,,,,,,,,,,,
665294bea976e31f9602bf76,SCR,2024-06-24_16h33.24.760,LearnStrategy,2023.2.3,MacIntel,60.60606061,2,1,12,0.584328613,-0.070486789,1,0,0,0.9825,Gabbro_12,4,12,3,8,0.983,4,12,0.333973253,-0.247927314,1,0,0,0.8455,Gabbro_rect,4,0.846,1,11,0,11,0,1,,,,,,,,,,,,,
665294bea976e31f9602bf76,SCR,2024-06-24_16h33.24.760,LearnStrategy,2023.2.3,MacIntel,60.60606061,2,1,13,0.565958794,0.266200528,1,0,0,6.3898,Andesite_03,1,03,5,8,6.39,2,05,-0.380678575,-0.260534261,1,0,0,10.3973,Andesite_rect,1,10.397,1,12,0,12,0,1,,,,,,,,,,,,,
665294bea976e31f9602bf76,SCR,2024-06-24_16h33.24.760,LearnStrategy,2023.2.3,MacIntel,60.60606061,2,1,14,-0.423379042,-0.257653266,1,0,0,3.2868,Obsidian_06,5,06,2,2,3.287,1,11,-0.399193793,-0.40118693,1,0,0,2.1824,Obsidian_rect,5,2.182,1,13,0,13,0,1,,,,,,,,,,,,,
665294bea976e31f9602bf76,SCR,2024-06-24_16h33.24.760,LearnStrategy,2023.2.3,MacIntel,60.60606061,2,1,15,0.556752658,-0.26118571,1,0,0,2.6045,Pegmatite_06,6,06,2,8,2.605,6,06,-0.133961928,-0.387746175,1,0,0,15.1153,Pegmatite_rect,6,15.115,1,14,0,14,0,1,,,,,,,,,,,,,
665294bea976e31f9602bf76,SCR,2024-06-24_16h33.24.760,LearnStrategy,2023.2.3,MacIntel,60.60606061,2,1,16,0.227283325,-0.399846802,1,0,0,4.0195,Andesite_14,1,14,1,6,4.019,1,14,-0.344096544,-0.234045681,1,0,0,2.3867,Andesite_rect,1,2.387,1,15,0,15,0,1,,,,,,,,,,,,,
665294bea976e31f9602bf76,SCR,2024-06-24_16h33.24.760,LearnStrategy,2023.2.3,MacIntel,60.60606061,2,2,1,,,,,,,,6,11,,,,,,,,,,,,,6,6.717,1,,,,,,-0.125764703,-0.406210734,1,0,0,6.717,Pegmatite_rect,0,0,0,0,1,
665294bea976e31f9602bf76,SCR,2024-06-24_16h33.24.760,LearnStrategy,2023.2.3,MacIntel,60.60606061,2,2,2,,,,,,,,4,03,,,,,,,,,,,,,4,2.878,1,,,,,,0.412526313,-0.247304484,1,0,0,2.8781,Gabbro_rect,1,0,1,0,1,
665294bea976e31f9602bf76,SCR,2024-06-24_16h33.24.760,LearnStrategy,2023.2.3,MacIntel,60.60606061,2,2,3,,,,,,,,8,10,,,,,,,,,,,,,8,1.585,1,,,,,,0.344577365,-0.417306586,1,0,0,1.585,Pumice_rect,2,0,2,0,1,
665294bea976e31f9602bf76,SCR,2024-06-24_16h33.24.760,LearnStrategy,2023.2.3,MacIntel,60.60606061,2,2,4,,,,,,,,3,15,,,,,,,,,,,,,3,43.136,1,,,,,,0.116489936,-0.264675903,1,0,0,43.136,Diorite_rect,3,0,3,0,1,
665294bea976e31f9602bf76,SCR,2024-06-24_16h33.24.760,LearnStrategy,2023.2.3,MacIntel,60.60606061,2,2,5,,,,,,,,1,02,,,,,,,,,,,,,1,7.016,1,,,,,,-0.412166206,-0.260710381,1,0,0,7.0163,Andesite_rect,4,0,4,0,1,
665294bea976e31f9602bf76,SCR,2024-06-24_16h33.24.760,LearnStrategy,2023.2.3,MacIntel,60.60606061,2,2,6,,,,,,,,2,01,,,,,,,,,,,,,4,14.034,0,,,,,,0.354934082,-0.240568983,1,0,0,14.0344,Gabbro_rect,5,0,5,0,1,
665294bea976e31f9602bf76,SCR,2024-06-24_16h33.24.760,LearnStrategy,2023.2.3,MacIntel,60.60606061,2,2,7,,,,,,,,5,02,,,,,,,,,,,,,5,3.241,1,,,,,,-0.425993788,-0.398476359,1,0,0,3.2411,Obsidian_rect,6,0,6,0,1,
665294bea976e31f9602bf76,SCR,2024-06-24_16h33.24.760,LearnStrategy,2023.2.3,MacIntel,60.60606061,2,2,8,,,,,,,,6,13,,,,,,,,,,,,,6,35.474,1,,,,,,-0.125862427,-0.403551432,1,0,0,35.4741,Pegmatite_rect,7,0,7,0,1,
665294bea976e31f9602bf76,SCR,2024-06-24_16h33.24.760,LearnStrategy,2023.2.3,MacIntel,60.60606061,2,2,9,,,,,,,,4,10,,,,,,,,,,,,,4,13.244,1,,,,,,0.412003716,-0.249292806,1,0,0,13.2444,Gabbro_rect,8,0,8,0,1,
665294bea976e31f9602bf76,SCR,2024-06-24_16h33.24.760,LearnStrategy,2023.2.3,MacIntel,60.60606061,2,2,10,,,,,,,,5,10,,,,,,,,,,,,,5,1.451,1,,,,,,-0.420403307,-0.399835476,1,0,0,1.4508,Obsidian_rect,9,0,9,0,1,
665294bea976e31f9602bf76,SCR,2024-06-24_16h33.24.760,LearnStrategy,2023.2.3,MacIntel,60.60606061,2,2,11,,,,,,,,3,12,,,,,,,,,,,,,3,9.445,1,,,,,,0.117646417,-0.237879706,1,0,0,9.4447,Diorite_rect,10,0,10,0,1,
665294bea976e31f9602bf76,SCR,2024-06-24_16h33.24.760,LearnStrategy,2023.2.3,MacIntel,60.60606061,2,2,12,,,,,,,,8,05,,,,,,,,,,,,,8,1.951,1,,,,,,0.37094496,-0.412885403,1,0,0,1.9511,Pumice_rect,11,0,11,0,1,
665294bea976e31f9602bf76,SCR,2024-06-24_16h33.24.760,LearnStrategy,2023.2.3,MacIntel,60.60606061,2,2,13,,,,,,,,1,01,,,,,,,,,,,,,4,16.379,0,,,,,,0.376087646,-0.247436049,1,0,0,16.3787,Gabbro_rect,12,0,12,0,1,
665294bea976e31f9602bf76,SCR,2024-06-24_16h33.24.760,LearnStrategy,2023.2.3,MacIntel,60.60606061,2,2,14,,,,,,,,2,02,,,,,,,,,,,,,4,2.377,0,,,,,,0.398715413,-0.233503011,1,0,0,2.3768,Gabbro_rect,13,0,13,0,1,
665294bea976e31f9602bf76,SCR,2024-06-24_16h33.24.760,LearnStrategy,2023.2.3,MacIntel,60.60606061,2,2,15,,,,,,,,7,12,,,,,,,,,,,,,7,16.841,1,,,,,,0.157355414,-0.393086819,1,0,0,16.8406,Peridotite_rect,14,0,14,0,1,
665294bea976e31f9602bf76,SCR,2024-06-24_16h33.24.760,LearnStrategy,2023.2.3,MacIntel,60.60606061,2,2,16,,,,,,,,7,16,,,,,,,,,,,,,7,13.682,1,,,,,,0.126199748,-0.393488837,1,0,0,13.6822,Peridotite_rect,15,0,15,0,1,
665294bea976e31f9602bf76,SCR,2024-06-24_16h33.24.760,LearnStrategy,2023.2.3,MacIntel,60.60606061,3,1,1,-0.086755778,-0.104838596,1,0,0,1.8852,Basalt_10,2,10,3,4,1.885,2,10,-0.123006388,-0.237806736,1,0,0,7.9362,Basalt_rect,2,7.936,1,0,0,0,0,1,,,,,,,,,,,,,
665294bea976e31f9602bf76,SCR,2024-06-24_16h33.24.760,LearnStrategy,2023.2.3,MacIntel,60.60606061,3,1,2,-0.428711785,0.068386366,1,0,0,3.4193,Peridotite_15,7,15,4,2,3.419,5,16,0.123425836,-0.393398098,1,0,0,2.0388,Peridotite_rect,7,2.039,1,1,0,1,0,1,,,,,,,,,,,,,
665294bea976e31f9602bf76,SCR,2024-06-24_16h33.24.760,LearnStrategy,2023.2.3,MacIntel,60.60606061,3,1,3,0.545863037,0.098438789,1,0,0,2.9541,Peridotite_04,7,04,4,8,2.954,6,07,-0.382851664,-0.257538384,1,0,0,2.8417,Andesite_rect,1,2.842,0,2,0,2,0,1,,,,,,,,,,,,,
665294bea976e31f9602bf76,SCR,2024-06-24_16h33.24.760,LearnStrategy,2023.2.3,MacIntel,60.60606061,3,1,4,0.065158556,-0.124381443,1,0,0,9.6604,Diorite_07,3,07,3,5,9.66,8,14,0.087615017,-0.234793633,1,0,0,1.2269,Diorite_rect,3,1.227,1,3,0,3,0,1,,,,,,,,,,,,,
665294bea976e31f9602bf76,SCR,2024-06-24_16h33.24.760,LearnStrategy,2023.2.3,MacIntel,60.60606061,3,1,5,-0.235413276,-0.254489407,1,0,0,1.8171,Peridotite_07,7,07,2,3,1.817,1,09,0.116146512,-0.395898777,1,0,0,1.4183,Peridotite_rect,7,1.418,1,4,0,4,0,1,,,,,,,,,,,,,
665294bea976e31f9602bf76,SCR,2024-06-24_16h33.24.760,LearnStrategy,2023.2.3,MacIntel,60.60606061,3,1,6,0.37958469,-0.399416436,1,0,0,3.742,Andesite_11,1,11,1,7,3.742,3,11,-0.364523485,-0.251567112,1,0,0,4.298,Andesite_rect,1,4.298,1,5,0,5,0,1,,,,,,,,,,,,,
665294bea976e31f9602bf76,SCR,2024-06-24_16h33.24.760,LearnStrategy,2023.2.3,MacIntel,60.60606061,3,1,7,0.355111762,0.402024502,1,0,0,3.7268,Basalt_11,2,11,6,7,3.727,2,11,-0.131744453,-0.256561415,1,0,0,1.9173,Basalt_rect,2,1.917,1,6,0,6,0,1,,,,,,,,,,,,,
665294bea976e31f9602bf76,SCR,2024-06-24_16h33.24.760,LearnStrategy,2023.2.3,MacIntel,60.60606061,3,1,8,0.352285428,-0.089060465,1,0,0,1.4593,Gabbro_01,4,01,3,7,1.459,4,01,0.104225871,-0.41314053,1,0,0,3.4432,Peridotite_rect,7,3.443,0,7,0,7,0,1,,,,,,,,,,,,,
665294bea976e31f9602bf76,SCR,2024-06-24_16h33.24.760,LearnStrategy,2023.2.3,MacIntel,60.60606061,3,1,9,-0.273509962,-0.102417263,1,0,0,1.3087,Diorite_10,3,10,3,3,1.309,3,10,0.124404229,-0.23414388,1,0,0,1.5734,Diorite_rect,3,1.573,1,8,0,8,0,1,,,,,,,,,,,,,
665294bea976e31f9602bf76,SCR,2024-06-24_16h33.24.760,LearnStrategy,2023.2.3,MacIntel,60.60606061,3,1,10,0.387659776,-0.111434597,1,0,0,1.2563,Gabbro_01,4,01,3,7,1.256,4,01,0.407221544,-0.234426676,1,0,0,4.3394,Gabbro_rect,4,4.339,1,9,0,9,0,1,,,,,,,,,,,,,
665294bea976e31f9602bf76,SCR,2024-06-24_16h33.24.760,LearnStrategy,2023.2.3,MacIntel,60.60606061,3,1,11,-0.53916253,-0.090965237,1,0,0,6.0739,Diorite_13,3,13,3,1,6.074,2,11,0.091559245,-0.271761339,1,0,0,1.6077,Diorite_rect,3,1.608,1,10,0,10,0,1,,,,,,,,,,,,,
665294bea976e31f9602bf76,SCR,2024-06-24_16h33.24.760,LearnStrategy,2023.2.3,MacIntel,60.60606061,3,1,12,-0.378896925,-0.400280626,1,0,0,3.4557,Diorite_11,3,11,1,2,3.456,2,14,0.114607476,-0.242937961,1,0,0,2.3529,Diorite_rect,3,2.353,1,11,0,11,0,1,,,,,,,,,,,,,
665294bea976e31f9602bf76,SCR,2024-06-24_16h33.24.760,LearnStrategy,2023.2.3,MacIntel,60.60606061,3,1,13,0.073091498,-0.267773098,1,0,0,0.9538,Pumice_02,8,02,2,5,0.954,1,03,0.348067491,-0.39593221,1,0,0,1.641,Pumice_rect,8,1.641,1,12,0,12,0,1,,,,,,,,,,,,,
665294bea976e31f9602bf76,SCR,2024-06-24_16h33.24.760,LearnStrategy,2023.2.3,MacIntel,60.60606061,3,1,14,0.533800998,0.379411655,1,0,0,4.8719,Andesite_05,1,05,6,8,4.872,7,14,-0.461862861,-0.249548272,1,0,0,22.1524,Andesite_rect,1,22.152,1,13,0,13,0,1,,,,,,,,,,,,,
665294bea976e31f9602bf76,SCR,2024-06-24_16h33.24.760,LearnStrategy,2023.2.3,MacIntel,60.60606061,3,1,15,-0.506943665,0.23649843,1,0,0,3.4202,Andesite_09,1,09,5,1,3.42,1,09,-0.413257751,-0.250663588,1,0,0,21.8134,Andesite_rect,1,21.813,1,14,0,14,0,1,,,,,,,,,,,,,
665294bea976e31f9602bf76,SCR,2024-06-24_16h33.24.760,LearnStrategy,2023.2.3,MacIntel,60.60606061,3,1,16,0.553665771,-0.252055935,1,0,0,1.3691,Pegmatite_06,6,06,2,8,1.369,6,06,-0.109748332,-0.394322374,1,0,0,4.0434,Pegmatite_rect,6,4.043,1,15,0,15,0,1,,,,,,,,,,,,,
665294bea976e31f9602bf76,SCR,2024-06-24_16h33.24.760,LearnStrategy,2023.2.3,MacIntel,60.60606061,3,2,1,,,,,,,,7,05,,,,,,,,,,,,,7,2.098,1,,,,,,0.120931261,-0.418083089,1,0,0,2.0976,Peridotite_rect,0,0,0,0,1,
665294bea976e31f9602bf76,SCR,2024-06-24_16h33.24.760,LearnStrategy,2023.2.3,MacIntel,60.60606061,3,2,2,,,,,,,,6,16,,,,,,,,,,,,,6,16.62,1,,,,,,-0.112596978,-0.390747613,1,0,0,16.6196,Pegmatite_rect,1,0,1,0,1,
665294bea976e31f9602bf76,SCR,2024-06-24_16h33.24.760,LearnStrategy,2023.2.3,MacIntel,60.60606061,3,2,3,,,,,,,,1,10,,,,,,,,,,,,,1,4.318,1,,,,,,-0.410553792,-0.257546997,1,0,0,4.318,Andesite_rect,2,0,2,0,1,
665294bea976e31f9602bf76,SCR,2024-06-24_16h33.24.760,LearnStrategy,2023.2.3,MacIntel,60.60606061,3,2,4,,,,,,,,2,09,,,,,,,,,,,,,4,37.325,0,,,,,,0.397115614,-0.242301771,1,0,0,37.3251,Gabbro_rect,3,0,3,0,1,
665294bea976e31f9602bf76,SCR,2024-06-24_16h33.24.760,LearnStrategy,2023.2.3,MacIntel,60.60606061,3,2,5,,,,,,,,4,05,,,,,,,,,,,,,1,8.392,0,,,,,,-0.424304335,-0.230108982,1,0,0,8.3922,Andesite_rect,4,0,4,0,1,
665294bea976e31f9602bf76,SCR,2024-06-24_16h33.24.760,LearnStrategy,2023.2.3,MacIntel,60.60606061,3,2,6,,,,,,,,7,02,,,,,,,,,,,,,7,1.993,1,,,,,,0.097346259,-0.403705037,1,0,0,1.9928,Peridotite_rect,5,0,5,0,1,
665294bea976e31f9602bf76,SCR,2024-06-24_16h33.24.760,LearnStrategy,2023.2.3,MacIntel,60.60606061,3,2,7,,,,,,,,8,08,,,,,,,,,,,,,8,2.25,1,,,,,,0.427299127,-0.392964613,1,0,0,2.2498,Pumice_rect,6,0,6,0,1,
665294bea976e31f9602bf76,SCR,2024-06-24_16h33.24.760,LearnStrategy,2023.2.3,MacIntel,60.60606061,3,2,8,,,,,,,,5,09,,,,,,,,,,,,,5,1.637,1,,,,,,-0.41996599,-0.399770237,1,0,0,1.6368,Obsidian_rect,7,0,7,0,1,
665294bea976e31f9602bf76,SCR,2024-06-24_16h33.24.760,LearnStrategy,2023.2.3,MacIntel,60.60606061,3,2,9,,,,,,,,6,10,,,,,,,,,,,,,6,9.439,1,,,,,,-0.140293104,-0.409114583,1,0,0,9.4393,Pegmatite_rect,8,0,8,0,1,
665294bea976e31f9602bf76,SCR,2024-06-24_16h33.24.760,LearnStrategy,2023.2.3,MacIntel,60.60606061,3,2,10,,,,,,,,4,14,,,,,,,,,,,,,2,20.51,0,,,,,,-0.166005452,-0.25183336,1,0,0,20.5103,Basalt_rect,9,0,9,0,1,
665294bea976e31f9602bf76,SCR,2024-06-24_16h33.24.760,LearnStrategy,2023.2.3,MacIntel,60.60606061,3,2,11,,,,,,,,1,04,,,,,,,,,,,,,1,10.179,1,,,,,,-0.434681702,-0.248001709,1,0,0,10.1793,Andesite_rect,10,0,10,0,1,
665294bea976e31f9602bf76,SCR,2024-06-24_16h33.24.760,LearnStrategy,2023.2.3,MacIntel,60.60606061,3,2,12,,,,,,,,5,07,,,,,,,,,,,,,5,3.51,1,,,,,,-0.379755012,-0.409243164,1,0,0,3.5104,Obsidian_rect,11,0,11,0,1,
665294bea976e31f9602bf76,SCR,2024-06-24_16h33.24.760,LearnStrategy,2023.2.3,MacIntel,60.60606061,3,2,13,,,,,,,,2,08,,,,,,,,,,,,,4,2.703,0,,,,,,0.37812188,-0.250225491,1,0,0,2.7028,Gabbro_rect,12,0,12,0,1,
665294bea976e31f9602bf76,SCR,2024-06-24_16h33.24.760,LearnStrategy,2023.2.3,MacIntel,60.60606061,3,2,14,,,,,,,,3,08,,,,,,,,,,,,,3,3.111,1,,,,,,0.13073093,-0.25169515,1,0,0,3.1106,Diorite_rect,13,0,13,0,1,
665294bea976e31f9602bf76,SCR,2024-06-24_16h33.24.760,LearnStrategy,2023.2.3,MacIntel,60.60606061,3,2,15,,,,,,,,8,16,,,,,,,,,,,,,8,2.625,1,,,,,,0.40694987,-0.411183879,1,0,0,2.6246,Pumice_rect,14,0,14,0,1,
665294bea976e31f9602bf76,SCR,2024-06-24_16h33.24.760,LearnStrategy,2023.2.3,MacIntel,60.60606061,3,2,16,,,,,,,,3,16,,,,,,,,,,,,,3,8.056,1,,,,,,0.133811578,-0.247754381,1,0,0,8.0563,Diorite_rect,15,0,15,0,1,
665294bea976e31f9602bf76,SCR,2024-06-24_16h33.24.760,LearnStrategy,2023.2.3,MacIntel,60.60606061,4,1,1,0.412823622,0.240173459,1,0,0,2.9618,Basalt_06,2,06,5,7,2.962,2,06,0.394257541,-0.259263577,1,0,0,3.9288,Gabbro_rect,4,3.929,0,0,0,0,0,1,,,,,,,,,,,,,
665294bea976e31f9602bf76,SCR,2024-06-24_16h33.24.760,LearnStrategy,2023.2.3,MacIntel,60.60606061,4,1,2,-0.102984823,-0.107937961,1,0,0,0.9846,Basalt_10,2,10,3,4,0.985,4,12,-0.137675578,-0.239935303,1,0,0,1.8169,Basalt_rect,2,1.817,1,1,0,1,0,1,,,,,,,,,,,,,
665294bea976e31f9602bf76,SCR,2024-06-24_16h33.24.760,LearnStrategy,2023.2.3,MacIntel,60.60606061,4,1,3,-0.084533352,0.103763292,1,0,0,2.0214,Basalt_14,2,14,4,4,2.021,4,12,0.352333713,-0.403038059,1,0,0,4.293,Pumice_rect,8,4.293,0,2,0,2,0,1,,,,,,,,,,,,,
665294bea976e31f9602bf76,SCR,2024-06-24_16h33.24.760,LearnStrategy,2023.2.3,MacIntel,60.60606061,4,1,4,0.220745239,-0.263530545,1,0,0,1.3203,Gabbro_13,4,13,2,6,1.32,3,10,-0.415071106,-0.261835192,1,0,0,6.8161,Andesite_rect,1,6.816,0,3,0,3,0,1,,,,,,,,,,,,,
665294bea976e31f9602bf76,SCR,2024-06-24_16h33.24.760,LearnStrategy,2023.2.3,MacIntel,60.60606061,4,1,5,0.096198188,-0.260729777,1,0,0,1.6429,Pumice_02,8,02,2,5,1.643,8,06,0.370081109,-0.402055868,1,0,0,1.0234,Pumice_rect,8,1.023,1,4,0,4,0,1,,,,,,,,,,,,,
665294bea976e31f9602bf76,SCR,2024-06-24_16h33.24.760,LearnStrategy,2023.2.3,MacIntel,60.60606061,4,1,6,-0.539901428,0.385545993,1,0,0,1.3915,Basalt_05,2,05,6,1,1.391,2,05,0.396925184,-0.253094754,1,0,0,2.0146,Gabbro_rect,4,2.015,0,5,0,5,0,1,,,,,,,,,,,,,
665294bea976e31f9602bf76,SCR,2024-06-24_16h33.24.760,LearnStrategy,2023.2.3,MacIntel,60.60606061,4,1,7,0.568794217,-0.400577257,1,0,0,4.0899,Gabbro_11,4,11,1,8,4.09,1,03,0.379260661,-0.256282823,1,0,0,4.1372,Gabbro_rect,4,4.137,1,6,0,6,0,1,,,,,,,,,,,,,
665294bea976e31f9602bf76,SCR,2024-06-24_16h33.24.760,LearnStrategy,2023.2.3,MacIntel,60.60606061,4,1,8,-0.242121446,0.238077833,1,0,0,14.1882,Andesite_07,1,07,5,3,14.188,2,11,-0.400170966,-0.246949124,1,0,0,2.2872,Andesite_rect,1,2.287,1,7,0,7,0,1,,,,,,,,,,,,,
665294bea976e31f9602bf76,SCR,2024-06-24_16h33.24.760,LearnStrategy,2023.2.3,MacIntel,60.60606061,4,1,9,-0.053415256,-0.260011258,1,0,0,3.1549,Basalt_04,2,04,2,4,3.155,2,04,-0.053415256,-0.260011258,1,0,0,1.8254,Basalt_rect,2,1.825,1,8,0,8,0,1,,,,,,,,,,,,,
665294bea976e31f9602bf76,SCR,2024-06-24_16h33.24.760,LearnStrategy,2023.2.3,MacIntel,60.60606061,4,1,10,-0.214304945,-0.254852973,1,0,0,1.139,Peridotite_07,7,07,2,3,1.139,7,07,0.120252143,-0.415119222,1,0,0,2.54,Peridotite_rect,7,2.54,1,9,0,9,0,1,,,,,,,,,,,,,
665294bea976e31f9602bf76,SCR,2024-06-24_16h33.24.760,LearnStrategy,2023.2.3,MacIntel,60.60606061,4,1,11,-0.392993571,0.374454549,1,0,0,1.2431,Pegmatite_09,6,09,6,2,1.243,6,09,-0.160239936,-0.401350844,1,0,0,1.8482,Pegmatite_rect,6,1.848,1,10,0,10,0,1,,,,,,,,,,,,,
665294bea976e31f9602bf76,SCR,2024-06-24_16h33.24.760,LearnStrategy,2023.2.3,MacIntel,60.60606061,4,1,12,0.4096266,-0.13221639,1,0,0,1.1748,Gabbro_01,4,01,3,7,1.175,4,01,0.406333415,-0.255463325,1,0,0,1.9136,Gabbro_rect,4,1.914,1,11,0,11,0,1,,,,,,,,,,,,,
665294bea976e31f9602bf76,SCR,2024-06-24_16h33.24.760,LearnStrategy,2023.2.3,MacIntel,60.60606061,4,1,13,-0.539799737,-0.082331204,1,0,0,2.6232,Diorite_13,3,13,3,1,2.623,5,16,0.098381483,-0.239555461,1,0,0,1.6139,Diorite_rect,3,1.614,1,12,0,12,0,1,,,,,,,,,,,,,
665294bea976e31f9602bf76,SCR,2024-06-24_16h33.24.760,LearnStrategy,2023.2.3,MacIntel,60.60606061,4,1,14,0.521772597,0.285511865,1,0,0,1.2906,Andesite_03,1,03,5,8,1.291,1,03,-0.364877896,-0.255820448,1,0,0,10.8465,Andesite_rect,1,10.847,1,13,0,13,0,1,,,,,,,,,,,,,
665294bea976e31f9602bf76,SCR,2024-06-24_16h33.24.760,LearnStrategy,2023.2.3,MacIntel,60.60606061,4,1,15,-0.523101451,0.390710941,1,0,0,1.2458,Basalt_05,2,05,6,1,1.246,2,05,-0.092349311,-0.253548652,1,0,0,1.2198,Basalt_rect,2,1.22,1,14,0,14,0,1,,,,,,,,,,,,,
665294bea976e31f9602bf76,SCR,2024-06-24_16h33.24.760,LearnStrategy,2023.2.3,MacIntel,60.60606061,4,1,16,-0.203971422,0.416850942,1,0,0,1.0632,Gabbro_15,4,15,6,3,1.063,4,15,0.42758667,-0.255886434,1,0,0,2.8469,Gabbro_rect,4,2.847,1,15,0,15,0,1,,,,,,,,,,,,,
665294bea976e31f9602bf76,SCR,2024-06-24_16h33.24.760,LearnStrategy,2023.2.3,MacIntel,60.60606061,4,2,1,,,,,,,,1,10,,,,,,,,,,,,,1,4.024,1,,,,,,-0.383555976,-0.243851861,1,0,0,4.024,Andesite_rect,0,0,0,0,1,
665294bea976e31f9602bf76,SCR,2024-06-24_16h33.24.760,LearnStrategy,2023.2.3,MacIntel,60.60606061,4,2,2,,,,,,,,1,16,,,,,,,,,,,,,1,4.441,1,,,,,,-0.418640544,-0.260025024,1,0,0,4.4411,Andesite_rect,1,0,1,0,1,
665294bea976e31f9602bf76,SCR,2024-06-24_16h33.24.760,LearnStrategy,2023.2.3,MacIntel,60.60606061,4,2,3,,,,,,,,3,12,,,,,,,,,,,,,3,2.421,1,,,,,,0.13555108,-0.245326674,1,0,0,2.4206,Diorite_rect,2,0,2,0,1,
665294bea976e31f9602bf76,SCR,2024-06-24_16h33.24.760,LearnStrategy,2023.2.3,MacIntel,60.60606061,4,2,4,,,,,,,,6,05,,,,,,,,,,,,,6,2.572,1,,,,,,-0.122403632,-0.414072537,1,0,0,2.5723,Pegmatite_rect,3,0,3,0,1,
665294bea976e31f9602bf76,SCR,2024-06-24_16h33.24.760,LearnStrategy,2023.2.3,MacIntel,60.60606061,4,2,5,,,,,,,,8,08,,,,,,,,,,,,,8,2.057,1,,,,,,0.387956272,-0.4034729,1,0,0,2.0566,Pumice_rect,4,0,4,0,1,
665294bea976e31f9602bf76,SCR,2024-06-24_16h33.24.760,LearnStrategy,2023.2.3,MacIntel,60.60606061,4,2,6,,,,,,,,6,13,,,,,,,,,,,,,6,3.44,1,,,,,,-0.144059652,-0.39757053,1,0,0,3.44,Pegmatite_rect,5,0,5,0,1,
665294bea976e31f9602bf76,SCR,2024-06-24_16h33.24.760,LearnStrategy,2023.2.3,MacIntel,60.60606061,4,2,7,,,,,,,,5,09,,,,,,,,,,,,,5,1.514,1,,,,,,-0.411333076,-0.398285048,1,0,0,1.5137,Obsidian_rect,6,0,6,0,1,
665294bea976e31f9602bf76,SCR,2024-06-24_16h33.24.760,LearnStrategy,2023.2.3,MacIntel,60.60606061,4,2,8,,,,,,,,2,01,,,,,,,,,,,,,2,3.249,1,,,,,,-0.095449015,-0.239595947,1,0,0,3.2495,Basalt_rect,7,0,7,0,1,
665294bea976e31f9602bf76,SCR,2024-06-24_16h33.24.760,LearnStrategy,2023.2.3,MacIntel,60.60606061,4,2,9,,,,,,,,2,09,,,,,,,,,,,,,2,6.138,1,,,,,,-0.106880764,-0.259046631,1,0,0,6.138,Basalt_rect,8,0,8,0,1,
665294bea976e31f9602bf76,SCR,2024-06-24_16h33.24.760,LearnStrategy,2023.2.3,MacIntel,60.60606061,4,2,10,,,,,,,,7,13,,,,,,,,,,,,,7,1.895,1,,,,,,0.150385674,-0.402264811,1,0,0,1.8951,Peridotite_rect,9,0,9,0,1,
665294bea976e31f9602bf76,SCR,2024-06-24_16h33.24.760,LearnStrategy,2023.2.3,MacIntel,60.60606061,4,2,11,,,,,,,,3,14,,,,,,,,,,,,,3,1.523,1,,,,,,0.130084568,-0.255819702,1,0,0,1.5235,Diorite_rect,10,0,10,0,1,
665294bea976e31f9602bf76,SCR,2024-06-24_16h33.24.760,LearnStrategy,2023.2.3,MacIntel,60.60606061,4,2,12,,,,,,,,4,05,,,,,,,,,,,,,4,9.421,1,,,,,,0.389582926,-0.241392687,1,0,0,9.4206,Gabbro_rect,11,0,11,0,1,
665294bea976e31f9602bf76,SCR,2024-06-24_16h33.24.760,LearnStrategy,2023.2.3,MacIntel,60.60606061,4,2,13,,,,,,,,7,02,,,,,,,,,,,,,7,2.661,1,,,,,,0.096445245,-0.40556566,1,0,0,2.6609,Peridotite_rect,12,0,12,0,1,
665294bea976e31f9602bf76,SCR,2024-06-24_16h33.24.760,LearnStrategy,2023.2.3,MacIntel,60.60606061,4,2,14,,,,,,,,8,16,,,,,,,,,,,,,8,1.64,1,,,,,,0.346083849,-0.404931708,1,0,0,1.6396,Pumice_rect,13,0,13,0,1,
665294bea976e31f9602bf76,SCR,2024-06-24_16h33.24.760,LearnStrategy,2023.2.3,MacIntel,60.60606061,4,2,15,,,,,,,,4,10,,,,,,,,,,,,,4,13.489,1,,,,,,0.40246365,-0.261247016,1,0,0,13.4887,Gabbro_rect,14,0,14,0,1,
665294bea976e31f9602bf76,SCR,2024-06-24_16h33.24.760,LearnStrategy,2023.2.3,MacIntel,60.60606061,4,2,16,,,,,,,,5,07,,,,,,,,,,,,,5,1.623,1,,,,,,-0.387883267,-0.395866428,1,0,0,1.623,Obsidian_rect,15,0,15,0,1,
665294bea976e31f9602bf76,SCR,2024-06-24_16h33.24.760,LearnStrategy,2023.2.3,MacIntel,60.60606061,5,1,1,0.587457004,-0.440303616,1,0,0,1.3348,Gabbro_11,4,11,1,8,1.335,4,11,-0.135752835,-0.247894151,1,0,0,5.5986,Basalt_rect,2,5.599,0,0,0,0,0,1,,,,,,,,,,,,,
665294bea976e31f9602bf76,SCR,2024-06-24_16h33.24.760,LearnStrategy,2023.2.3,MacIntel,60.60606061,5,1,2,-0.388856066,-0.245164252,1,0,0,1.1425,Obsidian_06,5,06,2,2,1.143,5,06,-0.42866689,-0.392195231,1,0,0,0.6817,Obsidian_rect,5,0.682,1,1,0,1,0,1,,,,,,,,,,,,,
665294bea976e31f9602bf76,SCR,2024-06-24_16h33.24.760,LearnStrategy,2023.2.3,MacIntel,60.60606061,5,1,3,-0.225480889,0.396717021,1,0,0,0.9739,Gabbro_15,4,15,6,3,0.974,4,15,0.383513184,-0.260190091,1,0,0,2.2499,Gabbro_rect,4,2.25,1,2,0,2,0,1,,,,,,,,,,,,,
665294bea976e31f9602bf76,SCR,2024-06-24_16h33.24.760,LearnStrategy,2023.2.3,MacIntel,60.60606061,5,1,4,0.512220188,0.245553301,1,0,0,1.0222,Andesite_03,1,03,5,8,1.022,1,03,-0.390592143,-0.253223131,1,0,0,1.2736,Andesite_rect,1,1.274,1,3,0,3,0,1,,,,,,,,,,,,,
665294bea976e31f9602bf76,SCR,2024-06-24_16h33.24.760,LearnStrategy,2023.2.3,MacIntel,60.60606061,5,1,5,-0.047727186,-0.225100844,1,0,0,0.8036,Basalt_04,2,04,2,4,0.804,2,04,-0.101342299,-0.241409166,1,0,0,0.7201,Basalt_rect,2,0.72,1,4,0,4,0,1,,,,,,,,,,,,,
665294bea976e31f9602bf76,SCR,2024-06-24_16h33.24.760,LearnStrategy,2023.2.3,MacIntel,60.60606061,5,1,6,0.062458089,0.109982571,1,0,0,0.7053,Pegmatite_15,6,15,4,5,0.705,6,15,-0.128366699,-0.394653252,1,0,0,1.8138,Pegmatite_rect,6,1.814,1,5,0,5,0,1,,,,,,,,,,,,,
665294bea976e31f9602bf76,SCR,2024-06-24_16h33.24.760,LearnStrategy,2023.2.3,MacIntel,60.60606061,5,1,7,0.352672933,0.24426295,1,0,0,1.2915,Basalt_06,2,06,5,7,1.292,2,06,-0.152206963,-0.259345364,1,0,0,1.1157,Basalt_rect,2,1.116,1,6,0,6,0,1,,,,,,,,,,,,,
665294bea976e31f9602bf76,SCR,2024-06-24_16h33.24.760,LearnStrategy,2023.2.3,MacIntel,60.60606061,5,1,8,-0.559874607,0.392680511,1,0,0,0.9537,Basalt_05,2,05,6,1,0.954,2,05,-0.16648641,-0.252150811,1,0,0,1.3672,Basalt_rect,2,1.367,1,7,0,7,0,1,,,,,,,,,,,,,
665294bea976e31f9602bf76,SCR,2024-06-24_16h33.24.760,LearnStrategy,2023.2.3,MacIntel,60.60606061,5,1,9,-0.060184394,0.097810567,1,0,0,0.7091,Basalt_14,2,14,4,4,0.709,2,14,0.414031711,-0.40737203,1,0,0,1.1457,Pumice_rect,8,1.146,0,8,0,8,0,1,,,,,,,,,,,,,
665294bea976e31f9602bf76,SCR,2024-06-24_16h33.24.760,LearnStrategy,2023.2.3,MacIntel,60.60606061,5,1,10,-0.215335219,0.108990411,1,0,0,0.9899,Diorite_09,3,09,4,3,0.99,3,09,0.079382731,-0.229232449,1,0,0,1.7705,Diorite_rect,3,1.77,1,9,0,9,0,1,,,,,,,,,,,,,
665294bea976e31f9602bf76,SCR,2024-06-24_16h33.24.760,LearnStrategy,2023.2.3,MacIntel,60.60606061,5,1,11,0.226742486,-0.271199002,1,0,0,0.9692,Gabbro_13,4,13,2,6,0.969,4,13,0.376527235,-0.257045424,1,0,0,2.3113,Gabbro_rect,4,2.311,1,10,0,10,0,1,,,,,,,,,,,,,
665294bea976e31f9602bf76,SCR,2024-06-24_16h33.24.760,LearnStrategy,2023.2.3,MacIntel,60.60606061,5,1,12,-0.237340936,0.230493011,1,0,0,2.859,Andesite_07,1,07,5,3,2.859,1,07,-0.388085768,-0.239663357,1,0,0,1.7177,Andesite_rect,1,1.718,1,11,0,11,0,1,,,,,,,,,,,,,
665294bea976e31f9602bf76,SCR,2024-06-24_16h33.24.760,LearnStrategy,2023.2.3,MacIntel,60.60606061,5,1,13,0.103839518,0.240074836,1,0,0,0.7703,Pumice_06,8,06,5,5,0.77,8,06,0.39779636,-0.397925822,1,0,0,1.3944,Pumice_rect,8,1.394,1,12,0,12,0,1,,,,,,,,,,,,,
665294bea976e31f9602bf76,SCR,2024-06-24_16h33.24.760,LearnStrategy,2023.2.3,MacIntel,60.60606061,5,1,14,0.285877618,-0.260726047,1,0,0,0.8984,Gabbro_13,4,13,2,6,0.898,4,13,0.35817098,-0.264990506,1,0,0,3.8902,Gabbro_rect,4,3.89,1,13,0,13,0,1,,,,,,,,,,,,,
665294bea976e31f9602bf76,SCR,2024-06-24_16h33.24.760,LearnStrategy,2023.2.3,MacIntel,60.60606061,5,1,15,0.258721178,0.089235399,1,0,0,2.2345,Peridotite_14,7,14,4,6,2.235,7,14,0.142391222,-0.405269165,1,0,0,1.8031,Peridotite_rect,7,1.803,1,14,0,14,0,1,,,,,,,,,,,,,
665294bea976e31f9602bf76,SCR,2024-06-24_16h33.24.760,LearnStrategy,2023.2.3,MacIntel,60.60606061,5,1,16,0.259560343,0.401826647,1,0,0,1.1169,Pegmatite_12,6,12,6,6,1.117,6,12,-0.130587497,-0.408314345,1,0,0,1.3742,Pegmatite_rect,6,1.374,1,15,0,15,0,1,,,,,,,,,,,,,
665294bea976e31f9602bf76,SCR,2024-06-24_16h33.24.760,LearnStrategy,2023.2.3,MacIntel,60.60606061,5,2,1,,,,,,,,4,16,,,,,,,,,,,,,4,17.389,1,,,,,,0.382496745,-0.266706475,1,0,0,17.3885,Gabbro_rect,0,0,0,0,1,
665294bea976e31f9602bf76,SCR,2024-06-24_16h33.24.760,LearnStrategy,2023.2.3,MacIntel,60.60606061,5,2,2,,,,,,,,1,06,,,,,,,,,,,,,1,2.373,1,,,,,,-0.402484775,-0.264241876,1,0,0,2.3729,Andesite_rect,1,0,1,0,1,
665294bea976e31f9602bf76,SCR,2024-06-24_16h33.24.760,LearnStrategy,2023.2.3,MacIntel,60.60606061,5,2,3,,,,,,,,6,10,,,,,,,,,,,,,6,8.254,1,,,,,,-0.135635105,-0.409286363,1,0,0,8.2541,Pegmatite_rect,2,0,2,0,1,
665294bea976e31f9602bf76,SCR,2024-06-24_16h33.24.760,LearnStrategy,2023.2.3,MacIntel,60.60606061,5,2,4,,,,,,,,8,15,,,,,,,,,,,,,8,1.542,1,,,,,,0.407838949,-0.409363471,1,0,0,1.5418,Pumice_rect,3,0,3,0,1,
665294bea976e31f9602bf76,SCR,2024-06-24_16h33.24.760,LearnStrategy,2023.2.3,MacIntel,60.60606061,5,2,5,,,,,,,,8,05,,,,,,,,,,,,,8,1.233,1,,,,,,0.407838949,-0.409363471,1,0,0,1.2333,Pumice_rect,4,0,4,0,1,
665294bea976e31f9602bf76,SCR,2024-06-24_16h33.24.760,LearnStrategy,2023.2.3,MacIntel,60.60606061,5,2,6,,,,,,,,2,02,,,,,,,,,,,,,2,12.47,1,,,,,,-0.058917304,-0.250665283,1,0,0,12.4705,Basalt_rect,5,0,5,0,1,
665294bea976e31f9602bf76,SCR,2024-06-24_16h33.24.760,LearnStrategy,2023.2.3,MacIntel,60.60606061,5,2,7,,,,,,,,7,06,,,,,,,,,,,,,7,2.001,1,,,,,,0.107165188,-0.399529012,1,0,0,2.0009,Peridotite_rect,6,0,6,0,1,
665294bea976e31f9602bf76,SCR,2024-06-24_16h33.24.760,LearnStrategy,2023.2.3,MacIntel,60.60606061,5,2,8,,,,,,,,7,12,,,,,,,,,,,,,7,30.8,1,,,,,,0.146636285,-0.384270359,1,0,0,30.8004,Peridotite_rect,7,0,7,0,1,
665294bea976e31f9602bf76,SCR,2024-06-24_16h33.24.760,LearnStrategy,2023.2.3,MacIntel,60.60606061,5,2,9,,,,,,,,3,08,,,,,,,,,,,,,3,1.149,1,,,,,,0.104932658,-0.240219794,1,0,0,1.1486,Diorite_rect,8,0,8,0,1,
665294bea976e31f9602bf76,SCR,2024-06-24_16h33.24.760,LearnStrategy,2023.2.3,MacIntel,60.60606061,5,2,10,,,,,,,,5,05,,,,,,,,,,,,,5,1.66,1,,,,,,-0.439328376,-0.406060588,1,0,0,1.6599,Obsidian_rect,9,0,9,0,1,
665294bea976e31f9602bf76,SCR,2024-06-24_16h33.24.760,LearnStrategy,2023.2.3,MacIntel,60.60606061,5,2,11,,,,,,,,1,02,,,,,,,,,,,,,1,2.871,1,,,,,,-0.39463779,-0.245021159,1,0,0,2.8712,Andesite_rect,10,0,10,0,1,
665294bea976e31f9602bf76,SCR,2024-06-24_16h33.24.760,LearnStrategy,2023.2.3,MacIntel,60.60606061,5,2,12,,,,,,,,2,16,,,,,,,,,,,,,2,1.717,1,,,,,,-0.13024136,-0.25099155,1,0,0,1.7169,Basalt_rect,11,0,11,0,1,
665294bea976e31f9602bf76,SCR,2024-06-24_16h33.24.760,LearnStrategy,2023.2.3,MacIntel,60.60606061,5,2,13,,,,,,,,3,15,,,,,,,,,,,,,3,26.998,1,,,,,,0.102666219,-0.253458591,1,0,0,26.9982,Diorite_rect,12,0,12,0,1,
665294bea976e31f9602bf76,SCR,2024-06-24_16h33.24.760,LearnStrategy,2023.2.3,MacIntel,60.60606061,5,2,14,,,,,,,,5,10,,,,,,,,,,,,,5,1.19,1,,,,,,-0.430028924,-0.420806749,1,0,0,1.1903,Obsidian_rect,13,0,13,0,1,
665294bea976e31f9602bf76,SCR,2024-06-24_16h33.24.760,LearnStrategy,2023.2.3,MacIntel,60.60606061,5,2,15,,,,,,,,6,16,,,,,,,,,,,,,6,1.98,1,,,,,,-0.163802083,-0.408054403,1,0,0,1.9802,Pegmatite_rect,14,0,14,0,1,
665294bea976e31f9602bf76,SCR,2024-06-24_16h33.24.760,LearnStrategy,2023.2.3,MacIntel,60.60606061,5,2,16,,,,,,,,4,14,,,,,,,,,,,,,4,6.74,1,,,,,,0.383458659,-0.252979533,1,0,0,6.7402,Gabbro_rect,15,0,15,0,1,
665294bea976e31f9602bf76,SCR,2024-06-24_16h33.24.760,LearnStrategy,2023.2.3,MacIntel,60.60606061,6,1,1,-0.596068573,0.254117652,1,0,0,1.4435,Andesite_09,1,09,5,1,1.444,1,09,-0.386933017,-0.245203247,1,0,0,9.9807,Andesite_rect,1,9.981,1,0,0,0,0,1,,,,,,,,,,,,,
665294bea976e31f9602bf76,SCR,2024-06-24_16h33.24.760,LearnStrategy,2023.2.3,MacIntel,60.60606061,6,1,2,-0.554313253,-0.382036472,1,0,0,1.2124,Obsidian_16,5,16,1,1,1.212,5,16,-0.416818915,-0.379419488,1,0,0,0.601,Obsidian_rect,5,0.601,1,1,0,1,0,1,,,,,,,,,,,,,
665294bea976e31f9602bf76,SCR,2024-06-24_16h33.24.760,LearnStrategy,2023.2.3,MacIntel,60.60606061,6,1,3,-0.068872816,-0.401940443,1,0,0,0.899,Gabbro_09,4,09,1,4,0.899,4,09,-0.111139459,-0.267938368,1,0,0,1.2502,Basalt_rect,2,1.25,0,2,0,2,0,1,,,,,,,,,,,,,
665294bea976e31f9602bf76,SCR,2024-06-24_16h33.24.760,LearnStrategy,2023.2.3,MacIntel,60.60606061,6,1,4,0.209497952,-0.262149183,1,0,0,0.9712,Gabbro_13,4,13,2,6,0.971,4,13,0.404950765,-0.23218906,1,0,0,0.5005,Gabbro_rect,4,0.5,1,3,0,3,0,1,,,,,,,,,,,,,
665294bea976e31f9602bf76,SCR,2024-06-24_16h33.24.760,LearnStrategy,2023.2.3,MacIntel,60.60606061,6,1,5,-0.071800537,0.085866157,1,0,0,0.8476,Basalt_14,2,14,4,4,0.848,2,14,-0.164598321,-0.261535984,1,0,0,1.5412,Basalt_rect,2,1.541,1,4,0,4,0,1,,,,,,,,,,,,,
665294bea976e31f9602bf76,SCR,2024-06-24_16h33.24.760,LearnStrategy,2023.2.3,MacIntel,60.60606061,6,1,6,-0.540689697,0.396144477,1,0,0,1.0333,Basalt_05,2,05,6,1,1.033,2,05,-0.160731676,-0.238275282,1,0,0,1.0475,Basalt_rect,2,1.048,1,5,0,5,0,1,,,,,,,,,,,,,
665294bea976e31f9602bf76,SCR,2024-06-24_16h33.24.760,LearnStrategy,2023.2.3,MacIntel,60.60606061,6,1,7,-0.238455777,-0.111972317,1,0,0,0.7622,Diorite_10,3,10,3,3,0.762,3,10,0.118409559,-0.240482517,1,0,0,1.3442,Diorite_rect,3,1.344,1,6,0,6,0,1,,,,,,,,,,,,,
665294bea976e31f9602bf76,SCR,2024-06-24_16h33.24.760,LearnStrategy,2023.2.3,MacIntel,60.60606061,6,1,8,-0.381737128,0.404506802,1,0,0,1.0393,Pegmatite_09,6,09,6,2,1.039,6,09,-0.113791368,-0.405265435,1,0,0,1.6442,Pegmatite_rect,6,1.644,1,7,0,7,0,1,,,,,,,,,,,,,
665294bea976e31f9602bf76,SCR,2024-06-24_16h33.24.760,LearnStrategy,2023.2.3,MacIntel,60.60606061,6,1,9,-0.570257009,0.129779561,1,0,0,0.8867,Pumice_04,8,04,4,1,0.887,8,04,0.400506185,-0.419804484,1,0,0,0.9771,Pumice_rect,8,0.977,1,8,0,8,0,1,,,,,,,,,,,,,
665294bea976e31f9602bf76,SCR,2024-06-24_16h33.24.760,LearnStrategy,2023.2.3,MacIntel,60.60606061,6,1,10,-0.182705078,0.429388919,1,0,0,0.9232,Gabbro_15,4,15,6,3,0.923,4,15,0.360176459,-0.247572361,1,0,0,9.2345,Gabbro_rect,4,9.235,1,9,0,9,0,1,,,,,,,,,,,,,
665294bea976e31f9602bf76,SCR,2024-06-24_16h33.24.760,LearnStrategy,2023.2.3,MacIntel,60.60606061,6,1,11,0.503122152,0.116677585,1,0,0,1.2467,Peridotite_04,7,04,4,8,1.247,7,04,0.125794474,-0.409238553,1,0,0,1.1061,Peridotite_rect,7,1.106,1,10,0,10,0,1,,,,,,,,,,,,,
665294bea976e31f9602bf76,SCR,2024-06-24_16h33.24.760,LearnStrategy,2023.2.3,MacIntel,60.60606061,6,1,12,0.236602851,-0.424527927,1,0,0,1.215,Andesite_14,1,14,1,6,1.215,1,14,-0.416865641,-0.250994941,1,0,0,10.0576,Andesite_rect,1,10.058,1,11,0,11,0,1,,,,,,,,,,,,,
665294bea976e31f9602bf76,SCR,2024-06-24_16h33.24.760,LearnStrategy,2023.2.3,MacIntel,60.60606061,6,1,13,0.234481201,0.278557553,1,0,0,1.1375,Pegmatite_08,6,08,5,6,1.138,6,08,-0.151688775,-0.397021959,1,0,0,1.0988,Pegmatite_rect,6,1.099,1,12,0,12,0,1,,,,,,,,,,,,,
665294bea976e31f9602bf76,SCR,2024-06-24_16h33.24.760,LearnStrategy,2023.2.3,MacIntel,60.60606061,6,1,14,0.395701497,0.431791941,1,0,0,0.9476,Basalt_11,2,11,6,7,0.948,2,11,-0.132225884,-0.242666965,1,0,0,2.649,Basalt_rect,2,2.649,1,13,0,13,0,1,,,,,,,,,,,,,
665294bea976e31f9602bf76,SCR,2024-06-24_16h33.24.760,LearnStrategy,2023.2.3,MacIntel,60.60606061,6,1,15,-0.564180637,-0.087497762,1,0,0,0.9866,Diorite_13,3,13,3,1,0.987,3,13,0.091918199,-0.251723497,1,0,0,1.1347,Diorite_rect,3,1.135,1,14,0,14,0,1,,,,,,,,,,,,,
665294bea976e31f9602bf76,SCR,2024-06-24_16h33.24.760,LearnStrategy,2023.2.3,MacIntel,60.60606061,6,1,16,-0.072879028,0.090272183,1,0,0,0.7314,Basalt_14,2,14,4,4,0.731,2,14,-0.100328573,-0.256863471,1,0,0,1.0387,Basalt_rect,2,1.039,1,15,0,15,0,1,,,,,,,,,,,,,
665294bea976e31f9602bf76,SCR,2024-06-24_16h33.24.760,LearnStrategy,2023.2.3,MacIntel,60.60606061,6,2,1,,,,,,,,3,16,,,,,,,,,,,,,3,1.788,1,,,,,,0.121149224,-0.258300035,1,0,0,1.7876,Diorite_rect,0,0,0,0,1,
665294bea976e31f9602bf76,SCR,2024-06-24_16h33.24.760,LearnStrategy,2023.2.3,MacIntel,60.60606061,6,2,2,,,,,,,,6,03,,,,,,,,,,,,,6,2.78,1,,,,,,-0.134567193,-0.406913181,1,0,0,2.7797,Pegmatite_rect,1,0,1,0,1,
665294bea976e31f9602bf76,SCR,2024-06-24_16h33.24.760,LearnStrategy,2023.2.3,MacIntel,60.60606061,6,2,3,,,,,,,,8,10,,,,,,,,,,,,,8,1.689,1,,,,,,0.369747043,-0.39908237,1,0,0,1.6888,Pumice_rect,2,0,2,0,1,
665294bea976e31f9602bf76,SCR,2024-06-24_16h33.24.760,LearnStrategy,2023.2.3,MacIntel,60.60606061,6,2,4,,,,,,,,5,02,,,,,,,,,,,,,5,3.835,1,,,,,,-0.413268772,-0.407452257,1,0,0,3.8351,Obsidian_rect,3,0,3,0,1,
665294bea976e31f9602bf76,SCR,2024-06-24_16h33.24.760,LearnStrategy,2023.2.3,MacIntel,60.60606061,6,2,5,,,,,,,,5,11,,,,,,,,,,,,,5,1.376,1,,,,,,-0.399098443,-0.38911594,1,0,0,1.3758,Obsidian_rect,4,0,4,0,1,
665294bea976e31f9602bf76,SCR,2024-06-24_16h33.24.760,LearnStrategy,2023.2.3,MacIntel,60.60606061,6,2,6,,,,,,,,2,12,,,,,,,,,,,,,1,20.468,0,,,,,,-0.414158495,-0.271510891,1,0,0,20.4681,Andesite_rect,5,0,5,0,1,
665294bea976e31f9602bf76,SCR,2024-06-24_16h33.24.760,LearnStrategy,2023.2.3,MacIntel,60.60606061,6,2,7,,,,,,,,4,03,,,,,,,,,,,,,3,5.93,0,,,,,,0.111239081,-0.248552585,1,0,0,5.9302,Diorite_rect,6,0,6,0,1,
665294bea976e31f9602bf76,SCR,2024-06-24_16h33.24.760,LearnStrategy,2023.2.3,MacIntel,60.60606061,6,2,8,,,,,,,,7,05,,,,,,,,,,,,,7,1.511,1,,,,,,0.124408637,-0.39774231,1,0,0,1.5108,Peridotite_rect,7,0,7,0,1,
665294bea976e31f9602bf76,SCR,2024-06-24_16h33.24.760,LearnStrategy,2023.2.3,MacIntel,60.60606061,6,2,9,,,,,,,,8,09,,,,,,,,,,,,,8,1.173,1,,,,,,0.383254666,-0.391670058,1,0,0,1.1727,Pumice_rect,8,0,8,0,1,
665294bea976e31f9602bf76,SCR,2024-06-24_16h33.24.760,LearnStrategy,2023.2.3,MacIntel,60.60606061,6,2,10,,,,,,,,6,11,,,,,,,,,,,,,6,1.484,1,,,,,,-0.146221585,-0.394397515,1,0,0,1.4843,Pegmatite_rect,9,0,9,0,1,
665294bea976e31f9602bf76,SCR,2024-06-24_16h33.24.760,LearnStrategy,2023.2.3,MacIntel,60.60606061,6,2,11,,,,,,,,3,02,,,,,,,,,,,,,3,2.892,1,,,,,,0.153115031,-0.245682102,1,0,0,2.8919,Diorite_rect,10,0,10,0,1,
665294bea976e31f9602bf76,SCR,2024-06-24_16h33.24.760,LearnStrategy,2023.2.3,MacIntel,60.60606061,6,2,12,,,,,,,,4,08,,,,,,,,,,,,,4,21.143,1,,,,,,0.376952854,-0.236028781,1,0,0,21.1427,Gabbro_rect,11,0,11,0,1,
665294bea976e31f9602bf76,SCR,2024-06-24_16h33.24.760,LearnStrategy,2023.2.3,MacIntel,60.60606061,6,2,13,,,,,,,,1,01,,,,,,,,,,,,,2,18.45,0,,,,,,-0.149578518,-0.246467556,1,0,0,18.4505,Basalt_rect,12,0,12,0,1,
665294bea976e31f9602bf76,SCR,2024-06-24_16h33.24.760,LearnStrategy,2023.2.3,MacIntel,60.60606061,6,2,14,,,,,,,,2,08,,,,,,,,,,,,,2,8.358,1,,,,,,-0.137869263,-0.241269463,1,0,0,8.3578,Basalt_rect,13,0,13,0,1,
665294bea976e31f9602bf76,SCR,2024-06-24_16h33.24.760,LearnStrategy,2023.2.3,MacIntel,60.60606061,6,2,15,,,,,,,,7,16,,,,,,,,,,,,,7,1.842,1,,,,,,0.11537462,-0.39207133,1,0,0,1.8425,Peridotite_rect,14,0,14,0,1,
665294bea976e31f9602bf76,SCR,2024-06-24_16h33.24.760,LearnStrategy,2023.2.3,MacIntel,60.60606061,6,2,16,,,,,,,,1,04,,,,,,,,,,,,,3,9.857,0,,,,,,0.112285495,-0.245864665,1,0,0,9.8572,Diorite_rect,15,0,15,0,1,
665294bea976e31f9602bf76,SCR,2024-06-24_16h33.24.760,LearnStrategy,2023.2.3,MacIntel,60.60606061,7,1,1,-0.358360935,0.058297933,1,0,0,2.2162,Peridotite_15,7,15,4,2,2.216,8,04,0.138774821,-0.394630941,1,0,0,1.6214,Peridotite_rect,7,1.621,1,0,0,0,0,1,,,,,,,,,,,,,
665294bea976e31f9602bf76,SCR,2024-06-24_16h33.24.760,LearnStrategy,2023.2.3,MacIntel,60.60606061,7,1,2,-0.211999715,0.405814667,1,0,0,2.3303,Gabbro_15,4,15,6,3,2.33,2,05,0.352088216,-0.244110107,1,0,0,8.8748,Gabbro_rect,4,8.875,1,1,0,1,0,1,,,,,,,,,,,,,
665294bea976e31f9602bf76,SCR,2024-06-24_16h33.24.760,LearnStrategy,2023.2.3,MacIntel,60.60606061,7,1,3,0.370465224,0.381239132,1,0,0,4.932,Basalt_11,2,11,6,7,4.932,4,12,-0.106654121,-0.246219957,1,0,0,4.6884,Basalt_rect,2,4.688,1,2,0,2,0,1,,,,,,,,,,,,,
665294bea976e31f9602bf76,SCR,2024-06-24_16h33.24.760,LearnStrategy,2023.2.3,MacIntel,60.60606061,7,1,4,0.092886081,-0.281245117,1,0,0,7.3236,Pumice_02,8,02,2,5,7.324,2,11,0.393174913,-0.420836249,1,0,0,1.3792,Pumice_rect,8,1.379,1,3,0,3,0,1,,,,,,,,,,,,,
665294bea976e31f9602bf76,SCR,2024-06-24_16h33.24.760,LearnStrategy,2023.2.3,MacIntel,60.60606061,7,1,5,-0.577046204,-0.137736681,1,0,0,3.0634,Diorite_13,3,13,3,1,3.063,5,16,0.09101732,-0.256360474,1,0,0,1.2492,Diorite_rect,3,1.249,1,4,0,4,0,1,,,,,,,,,,,,,
665294bea976e31f9602bf76,SCR,2024-06-24_16h33.24.760,LearnStrategy,2023.2.3,MacIntel,60.60606061,7,1,6,-0.248629998,0.233396996,1,0,0,1.5102,Andesite_07,1,07,5,3,1.51,1,07,-0.400226983,-0.250178765,1,0,0,0.8716,Andesite_rect,1,0.872,1,5,0,5,0,1,,,,,,,,,,,,,
665294bea976e31f9602bf76,SCR,2024-06-24_16h33.24.760,LearnStrategy,2023.2.3,MacIntel,60.60606061,7,1,7,0.356314562,0.122301941,1,0,0,1.0854,Diorite_06,3,06,4,7,1.085,3,06,0.125249769,-0.232291463,1,0,0,4.3205,Diorite_rect,3,4.32,1,6,0,6,0,1,,,,,,,,,,,,,
665294bea976e31f9602bf76,SCR,2024-06-24_16h33.24.760,LearnStrategy,2023.2.3,MacIntel,60.60606061,7,1,8,0.597140435,-0.10082038,1,0,0,1.1802,Gabbro_12,4,12,3,8,1.18,4,12,0.375991075,-0.248376329,1,0,0,1.3485,Gabbro_rect,4,1.348,1,7,0,7,0,1,,,,,,,,,,,,,
665294bea976e31f9602bf76,SCR,2024-06-24_16h33.24.760,LearnStrategy,2023.2.3,MacIntel,60.60606061,7,1,9,0.233722805,-0.42447191,1,0,0,1.0561,Andesite_14,1,14,1,6,1.056,1,14,-0.391968926,-0.239246826,1,0,0,1.2331,Andesite_rect,1,1.233,1,8,0,8,0,1,,,,,,,,,,,,,
665294bea976e31f9602bf76,SCR,2024-06-24_16h33.24.760,LearnStrategy,2023.2.3,MacIntel,60.60606061,7,1,10,-0.224593167,0.250666741,1,0,0,0.8204,Andesite_07,1,07,5,3,0.82,1,07,-0.417742445,-0.261118639,1,0,0,0.8738,Andesite_rect,1,0.874,1,9,0,9,0,1,,,,,,,,,,,,,
665294bea976e31f9602bf76,SCR,2024-06-24_16h33.24.760,LearnStrategy,2023.2.3,MacIntel,60.60606061,7,1,11,-0.247022061,0.405418922,1,0,0,0.9279,Gabbro_15,4,15,6,3,0.928,4,15,0.394140489,-0.251858724,1,0,0,1.0325,Gabbro_rect,4,1.033,1,10,0,10,0,1,,,,,,,,,,,,,
665294bea976e31f9602bf76,SCR,2024-06-24_16h33.24.760,LearnStrategy,2023.2.3,MacIntel,60.60606061,7,1,12,0.382955594,-0.394924995,1,0,0,2.0188,Andesite_11,1,11,1,7,2.019,1,11,-0.413747762,-0.239523655,1,0,0,1.5381,Andesite_rect,1,1.538,1,11,0,11,0,1,,,,,,,,,,,,,
665294bea976e31f9602bf76,SCR,2024-06-24_16h33.24.760,LearnStrategy,2023.2.3,MacIntel,60.60606061,7,1,13,0.393684489,-0.254079725,1,0,0,1.0593,Peridotite_10,7,10,2,7,1.059,7,10,0.134408502,-0.39263265,1,0,0,5.1147,Peridotite_rect,7,5.115,1,12,0,12,0,1,,,,,,,,,,,,,
665294bea976e31f9602bf76,SCR,2024-06-24_16h33.24.760,LearnStrategy,2023.2.3,MacIntel,60.60606061,7,1,14,0.543152398,-0.282888048,1,0,0,1.3161,Pegmatite_06,6,06,2,8,1.316,6,06,-0.148397488,-0.402861464,1,0,0,1.4349,Pegmatite_rect,6,1.435,1,13,0,13,0,1,,,,,,,,,,,,,
665294bea976e31f9602bf76,SCR,2024-06-24_16h33.24.760,LearnStrategy,2023.2.3,MacIntel,60.60606061,7,1,15,-0.092467177,-0.090845066,1,0,0,1.3824,Basalt_10,2,10,3,4,1.382,2,10,-0.125413344,-0.247846476,1,0,0,0.7558,Basalt_rect,2,0.756,1,14,0,14,0,1,,,,,,,,,,,,,
665294bea976e31f9602bf76,SCR,2024-06-24_16h33.24.760,LearnStrategy,2023.2.3,MacIntel,60.60606061,7,1,16,-0.061153225,0.103774923,1,0,0,0.7494,Basalt_14,2,14,4,4,0.749,2,14,-0.128744236,-0.253444485,1,0,0,1.1429,Basalt_rect,2,1.143,1,15,0,15,0,1,,,,,,,,,,,,,
665294bea976e31f9602bf76,SCR,2024-06-24_16h33.24.760,LearnStrategy,2023.2.3,MacIntel,60.60606061,7,2,1,,,,,,,,8,08,,,,,,,,,,,,,8,1.573,1,,,,,,0.431135932,-0.412253554,1,0,0,1.573,Pumice_rect,0,0,0,0,1,
665294bea976e31f9602bf76,SCR,2024-06-24_16h33.24.760,LearnStrategy,2023.2.3,MacIntel,60.60606061,7,2,2,,,,,,,,7,05,,,,,,,,,,,,,7,1.425,1,,,,,,0.107921278,-0.388655802,1,0,0,1.4249,Peridotite_rect,1,0,1,0,1,
665294bea976e31f9602bf76,SCR,2024-06-24_16h33.24.760,LearnStrategy,2023.2.3,MacIntel,60.60606061,7,2,3,,,,,,,,4,16,,,,,,,,,,,,,2,25.957,0,,,,,,-0.091499159,-0.246597358,1,0,0,25.9572,Basalt_rect,2,0,2,0,1,
665294bea976e31f9602bf76,SCR,2024-06-24_16h33.24.760,LearnStrategy,2023.2.3,MacIntel,60.60606061,7,2,4,,,,,,,,4,05,,,,,,,,,,,,,4,25.389,1,,,,,,0.421861301,-0.267657945,1,0,0,25.3895,Gabbro_rect,3,0,3,0,1,
665294bea976e31f9602bf76,SCR,2024-06-24_16h33.24.760,LearnStrategy,2023.2.3,MacIntel,60.60606061,7,2,5,,,,,,,,1,04,,,,,,,,,,,,,1,14.479,1,,,,,,-0.377653944,-0.243023071,1,0,0,14.4788,Andesite_rect,4,0,4,0,1,
665294bea976e31f9602bf76,SCR,2024-06-24_16h33.24.760,LearnStrategy,2023.2.3,MacIntel,60.60606061,7,2,6,,,,,,,,6,13,,,,,,,,,,,,,6,1.636,1,,,,,,-0.149695367,-0.398635729,1,0,0,1.6361,Pegmatite_rect,5,0,5,0,1,
665294bea976e31f9602bf76,SCR,2024-06-24_16h33.24.760,LearnStrategy,2023.2.3,MacIntel,60.60606061,7,2,7,,,,,,,,3,14,,,,,,,,,,,,,3,1.419,1,,,,,,0.126662055,-0.248926324,1,0,0,1.4195,Diorite_rect,6,0,6,0,1,
665294bea976e31f9602bf76,SCR,2024-06-24_16h33.24.760,LearnStrategy,2023.2.3,MacIntel,60.60606061,7,2,8,,,,,,,,2,08,,,,,,,,,,,,,2,19.401,1,,,,,,-0.113237576,-0.245486247,1,0,0,19.4013,Basalt_rect,7,0,7,0,1,
665294bea976e31f9602bf76,SCR,2024-06-24_16h33.24.760,LearnStrategy,2023.2.3,MacIntel,60.60606061,7,2,9,,,,,,,,5,11,,,,,,,,,,,,,5,2.134,1,,,,,,-0.398139275,-0.393350016,1,0,0,2.1339,Obsidian_rect,8,0,8,0,1,
665294bea976e31f9602bf76,SCR,2024-06-24_16h33.24.760,LearnStrategy,2023.2.3,MacIntel,60.60606061,7,2,10,,,,,,,,2,12,,,,,,,,,,,,,4,49.126,0,,,,,,0.39381212,-0.249554715,1,0,0,49.1255,Gabbro_rect,9,0,9,0,1,
665294bea976e31f9602bf76,SCR,2024-06-24_16h33.24.760,LearnStrategy,2023.2.3,MacIntel,60.60606061,7,2,11,,,,,,,,7,02,,,,,,,,,,,,,7,1.368,1,,,,,,0.172232937,-0.398739081,1,0,0,1.3683,Peridotite_rect,10,0,10,0,1,
665294bea976e31f9602bf76,SCR,2024-06-24_16h33.24.760,LearnStrategy,2023.2.3,MacIntel,60.60606061,7,2,12,,,,,,,,5,10,,,,,,,,,,,,,5,1.428,1,,,,,,-0.364285753,-0.393340047,1,0,0,1.4284,Obsidian_rect,11,0,11,0,1,
665294bea976e31f9602bf76,SCR,2024-06-24_16h33.24.760,LearnStrategy,2023.2.3,MacIntel,60.60606061,7,2,13,,,,,,,,6,03,,,,,,,,,,,,,6,1.406,1,,,,,,-0.160855509,-0.406495429,1,0,0,1.4062,Pegmatite_rect,12,0,12,0,1,
665294bea976e31f9602bf76,SCR,2024-06-24_16h33.24.760,LearnStrategy,2023.2.3,MacIntel,60.60606061,7,2,14,,,,,,,,8,16,,,,,,,,,,,,,8,1.847,1,,,,,,0.383741319,-0.411081136,1,0,0,1.8467,Pumice_rect,13,0,13,0,1,
665294bea976e31f9602bf76,SCR,2024-06-24_16h33.24.760,LearnStrategy,2023.2.3,MacIntel,60.60606061,7,2,15,,,,,,,,3,08,,,,,,,,,,,,,3,1.25,1,,,,,,0.133629625,-0.264775052,1,0,0,1.2497,Diorite_rect,14,0,14,0,1,
665294bea976e31f9602bf76,SCR,2024-06-24_16h33.24.760,LearnStrategy,2023.2.3,MacIntel,60.60606061,7,2,16,,,,,,,,1,06,,,,,,,,,,,,,1,1.889,1,,,,,,-0.371325514,-0.239574449,1,0,0,1.8891,Andesite_rect,15,0,15,0,1,
665294bea976e31f9602bf76,SCR,2024-06-24_16h33.24.760,LearnStrategy,2023.2.3,MacIntel,60.60606061,8,1,1,-0.099210951,-0.240372382,1,0,0,1.3309,Basalt_04,2,04,2,4,1.331,2,04,0.363659668,-0.239518636,1,0,0,1.7448,Gabbro_rect,4,1.745,0,0,0,0,0,1,,,,,,,,,,,,,
665294bea976e31f9602bf76,SCR,2024-06-24_16h33.24.760,LearnStrategy,2023.2.3,MacIntel,60.60606061,8,1,2,0.555664198,0.228004235,1,0,0,1.4101,Andesite_03,1,03,5,8,1.41,1,03,-0.386291877,-0.247995877,1,0,0,1.5612,Andesite_rect,1,1.561,1,1,0,1,0,1,,,,,,,,,,,,,
665294bea976e31f9602bf76,SCR,2024-06-24_16h33.24.760,LearnStrategy,2023.2.3,MacIntel,60.60606061,8,1,3,-0.084063789,0.132104899,1,0,0,0.6557,Basalt_14,2,14,4,4,0.656,2,14,-0.118441705,-0.25830112,1,0,0,2.3843,Basalt_rect,2,2.384,1,2,0,2,0,1,,,,,,,,,,,,,
665294bea976e31f9602bf76,SCR,2024-06-24_16h33.24.760,LearnStrategy,2023.2.3,MacIntel,60.60606061,8,1,4,-0.251565993,0.10135359,1,0,0,2.0957,Diorite_09,3,09,4,3,2.096,3,09,0.120469225,-0.270996162,1,0,0,0.8807,Diorite_rect,3,0.881,1,3,0,3,0,1,,,,,,,,,,,,,
665294bea976e31f9602bf76,SCR,2024-06-24_16h33.24.760,LearnStrategy,2023.2.3,MacIntel,60.60606061,8,1,5,0.073849284,0.432381812,1,0,0,1.0791,Pumice_14,8,14,6,5,1.079,8,14,0.345085992,-0.410147298,1,0,0,1.0725,Pumice_rect,8,1.072,1,4,0,4,0,1,,,,,,,,,,,,,
665294bea976e31f9602bf76,SCR,2024-06-24_16h33.24.760,LearnStrategy,2023.2.3,MacIntel,60.60606061,8,1,6,0.386397976,-0.13118103,1,0,0,1.1399,Gabbro_01,4,01,3,7,1.14,4,01,0.388627794,-0.25689426,1,0,0,1.0812,Gabbro_rect,4,1.081,1,5,0,5,0,1,,,,,,,,,,,,,
665294bea976e31f9602bf76,SCR,2024-06-24_16h33.24.760,LearnStrategy,2023.2.3,MacIntel,60.60606061,8,1,7,0.264833713,-0.10571445,1,0,0,2.0372,Pumice_03,8,03,3,6,2.037,4,01,0.359010145,-0.391156481,1,0,0,1.3524,Pumice_rect,8,1.352,1,6,0,6,0,1,,,,,,,,,,,,,
665294bea976e31f9602bf76,SCR,2024-06-24_16h33.24.760,LearnStrategy,2023.2.3,MacIntel,60.60606061,8,1,8,-0.440856662,-0.134407891,1,0,0,0.8937,Obsidian_14,5,14,3,2,0.894,5,14,-0.409660882,-0.410092706,1,0,0,1.9734,Obsidian_rect,5,1.973,1,7,0,7,0,1,,,,,,,,,,,,,
665294bea976e31f9602bf76,SCR,2024-06-24_16h33.24.760,LearnStrategy,2023.2.3,MacIntel,60.60606061,8,1,9,0.346914741,0.402464905,1,0,0,1.5561,Basalt_11,2,11,6,7,1.556,2,11,-0.136710883,-0.260370755,1,0,0,4.9936,Basalt_rect,2,4.994,1,8,0,8,0,1,,,,,,,,,,,,,
665294bea976e31f9602bf76,SCR,2024-06-24_16h33.24.760,LearnStrategy,2023.2.3,MacIntel,60.60606061,8,1,10,-0.226606852,-0.279526028,1,0,0,1.2908,Peridotite_07,7,07,2,3,1.291,7,07,0.121992052,-0.396868286,1,0,0,1.365,Peridotite_rect,7,1.365,1,9,0,9,0,1,,,,,,,,,,,,,
665294bea976e31f9602bf76,SCR,2024-06-24_16h33.24.760,LearnStrategy,2023.2.3,MacIntel,60.60606061,8,1,11,-0.223991292,0.252361264,1,0,0,1.0902,Andesite_07,1,07,5,3,1.09,1,07,-0.398296034,-0.252904324,1,0,0,2.3771,Andesite_rect,1,2.377,1,10,0,10,0,1,,,,,,,,,,,,,
665294bea976e31f9602bf76,SCR,2024-06-24_16h33.24.760,LearnStrategy,2023.2.3,MacIntel,60.60606061,8,1,12,0.214049208,-0.210789185,1,0,0,0.7801,Gabbro_13,4,13,2,6,0.78,4,13,0.358678114,-0.258524034,1,0,0,1.552,Gabbro_rect,4,1.552,1,11,0,11,0,1,,,,,,,,,,,,,
665294bea976e31f9602bf76,SCR,2024-06-24_16h33.24.760,LearnStrategy,2023.2.3,MacIntel,60.60606061,8,1,13,-0.066115723,-0.102063734,1,0,0,0.7251,Basalt_10,2,10,3,4,0.725,2,10,-0.101314562,-0.233845418,1,0,0,0.9127,Basalt_rect,2,0.913,1,12,0,12,0,1,,,,,,,,,,,,,
665294bea976e31f9602bf76,SCR,2024-06-24_16h33.24.760,LearnStrategy,2023.2.3,MacIntel,60.60606061,8,1,14,0.244087592,-0.421511773,1,0,0,1.1248,Andesite_14,1,14,1,6,1.125,1,14,-0.423245612,-0.252251587,1,0,0,3.0118,Andesite_rect,1,3.012,1,13,0,13,0,1,,,,,,,,,,,,,
665294bea976e31f9602bf76,SCR,2024-06-24_16h33.24.760,LearnStrategy,2023.2.3,MacIntel,60.60606061,8,1,15,0.061483697,0.110680203,1,0,0,0.7972,Pegmatite_15,6,15,4,5,0.797,6,15,-0.140289646,-0.402867499,1,0,0,0.9728,Pegmatite_rect,6,0.973,1,14,0,14,0,1,,,,,,,,,,,,,
665294bea976e31f9602bf76,SCR,2024-06-24_16h33.24.760,LearnStrategy,2023.2.3,MacIntel,60.60606061,8,1,16,0.55180447,-0.134160563,1,0,0,1.025,Gabbro_12,4,12,3,8,1.025,4,12,0.378159993,-0.25944831,1,0,0,2.6418,Gabbro_rect,4,2.642,1,15,0,15,0,1,,,,,,,,,,,,,
665294bea976e31f9602bf76,SCR,2024-06-24_16h33.24.760,LearnStrategy,2023.2.3,MacIntel,60.60606061,8,2,1,,,,,,,,4,10,,,,,,,,,,,,,4,2.692,1,,,,,,0.431872694,-0.248221775,1,0,0,2.6918,Gabbro_rect,0,0,0,0,1,
665294bea976e31f9602bf76,SCR,2024-06-24_16h33.24.760,LearnStrategy,2023.2.3,MacIntel,60.60606061,8,2,2,,,,,,,,2,09,,,,,,,,,,,,,2,7.171,1,,,,,,-0.107908732,-0.233754544,1,0,0,7.1714,Basalt_rect,1,0,1,0,1,
665294bea976e31f9602bf76,SCR,2024-06-24_16h33.24.760,LearnStrategy,2023.2.3,MacIntel,60.60606061,8,2,3,,,,,,,,3,15,,,,,,,,,,,,,3,10.566,1,,,,,,0.093128866,-0.246115044,1,0,0,10.5657,Diorite_rect,2,0,2,0,1,
665294bea976e31f9602bf76,SCR,2024-06-24_16h33.24.760,LearnStrategy,2023.2.3,MacIntel,60.60606061,8,2,4,,,,,,,,7,13,,,,,,,,,,,,,7,1.365,1,,,,,,0.102937419,-0.386964789,1,0,0,1.3647,Peridotite_rect,3,0,3,0,1,
665294bea976e31f9602bf76,SCR,2024-06-24_16h33.24.760,LearnStrategy,2023.2.3,MacIntel,60.60606061,8,2,5,,,,,,,,1,01,,,,,,,,,,,,,4,23.502,0,,,,,,0.384561361,-0.252951525,1,0,0,23.5018,Gabbro_rect,4,0,4,0,1,
665294bea976e31f9602bf76,SCR,2024-06-24_16h33.24.760,LearnStrategy,2023.2.3,MacIntel,60.60606061,8,2,6,,,,,,,,5,09,,,,,,,,,,,,,5,1.329,1,,,,,,-0.417952474,-0.395204739,1,0,0,1.329,Obsidian_rect,5,0,5,0,1,
665294bea976e31f9602bf76,SCR,2024-06-24_16h33.24.760,LearnStrategy,2023.2.3,MacIntel,60.60606061,8,2,7,,,,,,,,6,11,,,,,,,,,,,,,6,1.248,1,,,,,,-0.111574707,-0.400758124,1,0,0,1.2481,Pegmatite_rect,6,0,6,0,1,
665294bea976e31f9602bf76,SCR,2024-06-24_16h33.24.760,LearnStrategy,2023.2.3,MacIntel,60.60606061,8,2,8,,,,,,,,4,03,,,,,,,,,,,,,4,8.661,1,,,,,,0.394468723,-0.24809767,1,0,0,8.6606,Gabbro_rect,7,0,7,0,1,
665294bea976e31f9602bf76,SCR,2024-06-24_16h33.24.760,LearnStrategy,2023.2.3,MacIntel,60.60606061,8,2,9,,,,,,,,8,15,,,,,,,,,,,,,8,3.078,1,,,,,,0.341326497,-0.407665677,1,0,0,3.0783,Pumice_rect,8,0,8,0,1,
665294bea976e31f9602bf76,SCR,2024-06-24_16h33.24.760,LearnStrategy,2023.2.3,MacIntel,60.60606061,8,2,10,,,,,,,,5,05,,,,,,,,,,,,,5,1.205,1,,,,,,-0.425311144,-0.402139893,1,0,0,1.2045,Obsidian_rect,9,0,9,0,1,
665294bea976e31f9602bf76,SCR,2024-06-24_16h33.24.760,LearnStrategy,2023.2.3,MacIntel,60.60606061,8,2,11,,,,,,,,3,16,,,,,,,,,,,,,3,6.725,1,,,,,,0.139778917,-0.251128811,1,0,0,6.7246,Diorite_rect,10,0,10,0,1,
665294bea976e31f9602bf76,SCR,2024-06-24_16h33.24.760,LearnStrategy,2023.2.3,MacIntel,60.60606061,8,2,12,,,,,,,,2,01,,,,,,,,,,,,,2,16.491,1,,,,,,-0.115619778,-0.252150675,1,0,0,16.4913,Basalt_rect,11,0,11,0,1,
665294bea976e31f9602bf76,SCR,2024-06-24_16h33.24.760,LearnStrategy,2023.2.3,MacIntel,60.60606061,8,2,13,,,,,,,,8,09,,,,,,,,,,,,,8,1.154,1,,,,,,0.396028781,-0.403153008,1,0,0,1.1544,Pumice_rect,12,0,12,0,1,
665294bea976e31f9602bf76,SCR,2024-06-24_16h33.24.760,LearnStrategy,2023.2.3,MacIntel,60.60606061,8,2,14,,,,,,,,1,02,,,,,,,,,,,,,1,1.433,1,,,,,,-0.403623895,-0.241274143,1,0,0,1.4329,Andesite_rect,13,0,13,0,1,
665294bea976e31f9602bf76,SCR,2024-06-24_16h33.24.760,LearnStrategy,2023.2.3,MacIntel,60.60606061,8,2,15,,,,,,,,6,10,,,,,,,,,,,,,6,1.746,1,,,,,,-0.113675741,-0.408865967,1,0,0,1.7462,Pegmatite_rect,14,0,14,0,1,
665294bea976e31f9602bf76,SCR,2024-06-24_16h33.24.760,LearnStrategy,2023.2.3,MacIntel,60.60606061,8,2,16,,,,,,,,7,12,,,,,,,,,,,,,7,1.492,1,,,,,,0.127883572,-0.397112834,1,0,0,1.4919,Peridotite_rect,15,0,15,0,1,
665294bea976e31f9602bf76,SCR,2024-06-24_16h33.24.760,LearnStrategy,2023.2.3,MacIntel,60.60606061,9,1,1,-0.052419976,-0.106759644,1,0,0,1.1832,Basalt_10,2,10,3,4,1.183,2,10,-0.122966105,-0.249834866,1,0,0,1.2377,Basalt_rect,2,1.238,1,0,0,0,0,1,,,,,,,,,,,,,
665294bea976e31f9602bf76,SCR,2024-06-24_16h33.24.760,LearnStrategy,2023.2.3,MacIntel,60.60606061,9,1,2,-0.095084364,-0.428407118,1,0,0,1.1997,Gabbro_09,4,09,1,4,1.2,4,09,0.370509711,-0.231466539,1,0,0,6.7218,Gabbro_rect,4,6.722,1,1,0,1,0,1,,,,,,,,,,,,,
665294bea976e31f9602bf76,SCR,2024-06-24_16h33.24.760,LearnStrategy,2023.2.3,MacIntel,60.60606061,9,1,3,-0.209730767,-0.070710042,1,0,0,0.8647,Diorite_10,3,10,3,3,0.865,3,10,0.099739651,-0.24620714,1,0,0,2.5643,Diorite_rect,3,2.564,1,2,0,2,0,1,,,,,,,,,,,,,
665294bea976e31f9602bf76,SCR,2024-06-24_16h33.24.760,LearnStrategy,2023.2.3,MacIntel,60.60606061,9,1,4,0.22644911,0.266698151,1,0,0,0.8642,Pegmatite_08,6,08,5,6,0.864,6,08,-0.146213175,-0.408942057,1,0,0,0.7355,Pegmatite_rect,6,0.735,1,3,0,3,0,1,,,,,,,,,,,,,
665294bea976e31f9602bf76,SCR,2024-06-24_16h33.24.760,LearnStrategy,2023.2.3,MacIntel,60.60606061,9,1,5,-0.100683187,0.261448805,1,0,0,0.8276,Obsidian_04,5,04,5,4,0.828,5,04,-0.423299391,-0.390463053,1,0,0,0.9721,Obsidian_rect,5,0.972,1,4,0,4,0,1,,,,,,,,,,,,,
665294bea976e31f9602bf76,SCR,2024-06-24_16h33.24.760,LearnStrategy,2023.2.3,MacIntel,60.60606061,9,1,6,0.37811225,-0.231316461,1,0,0,1.0943,Peridotite_10,7,10,2,7,1.094,7,10,0.129866401,-0.414870741,1,0,0,1.2468,Peridotite_rect,7,1.247,1,5,0,5,0,1,,,,,,,,,,,,,
665294bea976e31f9602bf76,SCR,2024-06-24_16h33.24.760,LearnStrategy,2023.2.3,MacIntel,60.60606061,9,1,7,0.29057468,-0.093844537,1,0,0,0.8155,Pumice_03,8,03,3,6,0.816,8,03,0.414285617,-0.394500258,1,0,0,0.838,Pumice_rect,8,0.838,1,6,0,6,0,1,,,,,,,,,,,,,
665294bea976e31f9602bf76,SCR,2024-06-24_16h33.24.760,LearnStrategy,2023.2.3,MacIntel,60.60606061,9,1,8,-0.543919135,0.226859775,1,0,0,1.0515,Andesite_09,1,09,5,1,1.052,1,09,-0.388321872,-0.263852132,1,0,0,1.6043,Andesite_rect,1,1.604,1,7,0,7,0,1,,,,,,,,,,,,,
665294bea976e31f9602bf76,SCR,2024-06-24_16h33.24.760,LearnStrategy,2023.2.3,MacIntel,60.60606061,9,1,9,0.517280273,-0.118807983,1,0,0,1.3306,Gabbro_12,4,12,3,8,1.331,4,12,0.381334771,-0.249743517,1,0,0,0.5308,Gabbro_rect,4,0.531,1,8,0,8,0,1,,,,,,,,,,,,,
665294bea976e31f9602bf76,SCR,2024-06-24_16h33.24.760,LearnStrategy,2023.2.3,MacIntel,60.60606061,9,1,10,-0.069745009,0.128442722,1,0,0,0.6897,Basalt_14,2,14,4,4,0.69,2,14,-0.14153361,-0.250495063,1,0,0,0.7276,Basalt_rect,2,0.728,1,9,0,9,0,1,,,,,,,,,,,,,
665294bea976e31f9602bf76,SCR,2024-06-24_16h33.24.760,LearnStrategy,2023.2.3,MacIntel,60.60606061,9,1,11,0.549197591,0.427697974,1,0,0,0.9429,Andesite_05,1,05,6,8,0.943,1,05,-0.414264865,-0.230815769,1,0,0,1.5357,Andesite_rect,1,1.536,1,10,0,10,0,1,,,,,,,,,,,,,
665294bea976e31f9602bf76,SCR,2024-06-24_16h33.24.760,LearnStrategy,2023.2.3,MacIntel,60.60606061,9,1,12,0.233850505,-0.389963447,1,0,0,1.2564,Andesite_14,1,14,1,6,1.256,1,14,-0.3825334,-0.252282376,1,0,0,1.955,Andesite_rect,1,1.955,1,11,0,11,0,1,,,,,,,,,,,,,
665294bea976e31f9602bf76,SCR,2024-06-24_16h33.24.760,LearnStrategy,2023.2.3,MacIntel,60.60606061,9,1,13,0.402515191,-0.415037977,1,0,0,2.6694,Andesite_11,1,11,1,7,2.669,1,14,-0.385389845,-0.252019314,1,0,0,1.9513,Andesite_rect,1,1.951,1,12,0,12,0,1,,,,,,,,,,,,,
665294bea976e31f9602bf76,SCR,2024-06-24_16h33.24.760,LearnStrategy,2023.2.3,MacIntel,60.60606061,9,1,14,-0.054883965,-0.071560465,1,0,0,0.7026,Basalt_10,2,10,3,4,0.703,2,10,-0.101569146,-0.241558974,1,0,0,0.7984,Basalt_rect,2,0.798,1,13,0,13,0,1,,,,,,,,,,,,,
665294bea976e31f9602bf76,SCR,2024-06-24_16h33.24.760,LearnStrategy,2023.2.3,MacIntel,60.60606061,9,1,15,0.536907959,-0.113093126,1,0,0,1.8071,Gabbro_12,4,12,3,8,1.807,4,12,0.420916206,-0.253705648,1,0,0,1.9941,Gabbro_rect,4,1.994,1,14,0,14,0,1,,,,,,,,,,,,,
665294bea976e31f9602bf76,SCR,2024-06-24_16h33.24.760,LearnStrategy,2023.2.3,MacIntel,60.60606061,9,1,16,0.549800483,-0.389498969,1,0,0,1.2705,Gabbro_11,4,11,1,8,1.27,4,11,0.399973958,-0.242804905,1,0,0,2.5123,Gabbro_rect,4,2.512,1,15,0,15,0,1,,,,,,,,,,,,,
665294bea976e31f9602bf76,SCR,2024-06-24_16h33.24.760,LearnStrategy,2023.2.3,MacIntel,60.60606061,9,2,1,,,,,,,,3,12,,,,,,,,,,,,,3,1.499,1,,,,,,0.109901259,-0.247764689,1,0,0,1.4989,Diorite_rect,0,0,0,0,1,
665294bea976e31f9602bf76,SCR,2024-06-24_16h33.24.760,LearnStrategy,2023.2.3,MacIntel,60.60606061,9,2,2,,,,,,,,2,02,,,,,,,,,,,,,4,1.91,0,,,,,,0.372148844,-0.256145223,1,0,0,1.9097,Gabbro_rect,1,0,1,0,1,
665294bea976e31f9602bf76,SCR,2024-06-24_16h33.24.760,LearnStrategy,2023.2.3,MacIntel,60.60606061,9,2,3,,,,,,,,8,10,,,,,,,,,,,,,8,1.338,1,,,,,,0.366053467,-0.401226196,1,0,0,1.3381,Pumice_rect,2,0,2,0,1,
665294bea976e31f9602bf76,SCR,2024-06-24_16h33.24.760,LearnStrategy,2023.2.3,MacIntel,60.60606061,9,2,4,,,,,,,,8,05,,,,,,,,,,,,,8,1.241,1,,,,,,0.364971788,-0.391499837,1,0,0,1.2406,Pumice_rect,3,0,3,0,1,
665294bea976e31f9602bf76,SCR,2024-06-24_16h33.24.760,LearnStrategy,2023.2.3,MacIntel,60.60606061,9,2,5,,,,,,,,7,16,,,,,,,,,,,,,7,1.381,1,,,,,,0.134442206,-0.415946994,1,0,0,1.3814,Peridotite_rect,4,0,4,0,1,
665294bea976e31f9602bf76,SCR,2024-06-24_16h33.24.760,LearnStrategy,2023.2.3,MacIntel,60.60606061,9,2,6,,,,,,,,5,07,,,,,,,,,,,,,5,1.289,1,,,,,,-0.40097663,-0.400818075,1,0,0,1.289,Obsidian_rect,5,0,5,0,1,
665294bea976e31f9602bf76,SCR,2024-06-24_16h33.24.760,LearnStrategy,2023.2.3,MacIntel,60.60606061,9,2,7,,,,,,,,1,16,,,,,,,,,,,,,1,1.705,1,,,,,,-0.391780633,-0.23990587,1,0,0,1.7051,Andesite_rect,6,0,6,0,1,
665294bea976e31f9602bf76,SCR,2024-06-24_16h33.24.760,LearnStrategy,2023.2.3,MacIntel,60.60606061,9,2,8,,,,,,,,1,10,,,,,,,,,,,,,1,2.287,1,,,,,,-0.378413188,-0.236061198,1,0,0,2.2865,Andesite_rect,7,0,7,0,1,
665294bea976e31f9602bf76,SCR,2024-06-24_16h33.24.760,LearnStrategy,2023.2.3,MacIntel,60.60606061,9,2,9,,,,,,,,2,16,,,,,,,,,,,,,2,1.085,1,,,,,,-0.152662828,-0.262930908,1,0,0,1.085,Basalt_rect,8,0,8,0,1,
665294bea976e31f9602bf76,SCR,2024-06-24_16h33.24.760,LearnStrategy,2023.2.3,MacIntel,60.60606061,9,2,10,,,,,,,,6,16,,,,,,,,,,,,,6,1.439,1,,,,,,-0.135080092,-0.405834622,1,0,0,1.4392,Pegmatite_rect,9,0,9,0,1,
665294bea976e31f9602bf76,SCR,2024-06-24_16h33.24.760,LearnStrategy,2023.2.3,MacIntel,60.60606061,9,2,11,,,,,,,,5,02,,,,,,,,,,,,,5,1.323,1,,,,,,-0.405686408,-0.385567898,1,0,0,1.3232,Obsidian_rect,10,0,10,0,1,
665294bea976e31f9602bf76,SCR,2024-06-24_16h33.24.760,LearnStrategy,2023.2.3,MacIntel,60.60606061,9,2,12,,,,,,,,4,08,,,,,,,,,,,,,4,9,1,,,,,,0.380159776,-0.25836792,1,0,0,8.9996,Gabbro_rect,11,0,11,0,1,
665294bea976e31f9602bf76,SCR,2024-06-24_16h33.24.760,LearnStrategy,2023.2.3,MacIntel,60.60606061,9,2,13,,,,,,,,3,02,,,,,,,,,,,,,3,1.229,1,,,,,,0.135798204,-0.24675198,1,0,0,1.2293,Diorite_rect,12,0,12,0,1,
665294bea976e31f9602bf76,SCR,2024-06-24_16h33.24.760,LearnStrategy,2023.2.3,MacIntel,60.60606061,9,2,14,,,,,,,,7,06,,,,,,,,,,,,,6,29.922,0,,,,,,-0.113517524,-0.412059462,1,0,0,29.9217,Pegmatite_rect,13,0,13,0,1,
665294bea976e31f9602bf76,SCR,2024-06-24_16h33.24.760,LearnStrategy,2023.2.3,MacIntel,60.60606061,9,2,15,,,,,,,,6,05,,,,,,,,,,,,,6,1.454,1,,,,,,-0.120062324,-0.405386827,1,0,0,1.4544,Pegmatite_rect,14,0,14,0,1,
665294bea976e31f9602bf76,SCR,2024-06-24_16h33.24.760,LearnStrategy,2023.2.3,MacIntel,60.60606061,9,2,16,,,,,,,,4,14,,,,,,,,,,,,,2,7.793,0,,,,,,-0.087364231,-0.244483643,1,0,0,7.7928,Basalt_rect,15,0,15,0,1,
665294bea976e31f9602bf76,SCR,2024-06-24_16h33.24.760,LearnStrategy,2023.2.3,MacIntel,60.60606061,,,,,,,,,,,,,,,,,,,,,,,,,,,,,,,,,,,,,,,,,,,,,1
665294bea976e31f9602bf76,SCR,2024-06-24_16h33.24.760,LearnStrategy,2023.2.3,MacIntel,60.60606061,,,,,,,,,,,,,,,,,,,,,,,,,,,,,,,,,,,,,,,,,,,,,
665294bea976e31f9602bf76,SCR,2024-06-24_16h33.24.760,LearnStrategy,2023.2.3,MacIntel,60.60606061,,,,,,,,,,,5,16,1,1,,,,,,,,,,,,,,,,,,,,,,,,,,,,,,,
665294bea976e31f9602bf76,SCR,2024-06-24_16h33.24.760,LearnStrategy,2023.2.3,MacIntel,60.60606061,,,,,,,,,,,3,11,1,2,,,,,,,,,,,,,,,,,,,,,,,,,,,,,,,
665294bea976e31f9602bf76,SCR,2024-06-24_16h33.24.760,LearnStrategy,2023.2.3,MacIntel,60.60606061,,,,,,,,,,,7,08,1,3,,,,,,,,,,,,,,,,,,,,,,,,,,,,,,,
665294bea976e31f9602bf76,SCR,2024-06-24_16h33.24.760,LearnStrategy,2023.2.3,MacIntel,60.60606061,,,,,,,,,,,4,09,1,4,,,,,,,,,,,,,,,,,,,,,,,,,,,,,,,
665294bea976e31f9602bf76,SCR,2024-06-24_16h33.24.760,LearnStrategy,2023.2.3,MacIntel,60.60606061,,,,,,,,,,,6,07,1,5,,,,,,,,,,,,,,,,,,,,,,,,,,,,,,,
665294bea976e31f9602bf76,SCR,2024-06-24_16h33.24.760,LearnStrategy,2023.2.3,MacIntel,60.60606061,,,,,,,,,,,1,14,1,6,,,,,,,,,,,,,,,,,,,,,,,,,,,,,,,
665294bea976e31f9602bf76,SCR,2024-06-24_16h33.24.760,LearnStrategy,2023.2.3,MacIntel,60.60606061,,,,,,,,,,,1,11,1,7,,,,,,,,,,,,,,,,,,,,,,,,,,,,,,,
665294bea976e31f9602bf76,SCR,2024-06-24_16h33.24.760,LearnStrategy,2023.2.3,MacIntel,60.60606061,,,,,,,,,,,4,11,1,8,,,,,,,,,,,,,,,,,,,,,,,,,,,,,,,
665294bea976e31f9602bf76,SCR,2024-06-24_16h33.24.760,LearnStrategy,2023.2.3,MacIntel,60.60606061,,,,,,,,,,,5,12,2,1,,,,,,,,,,,,,,,,,,,,,,,,,,,,,,,
665294bea976e31f9602bf76,SCR,2024-06-24_16h33.24.760,LearnStrategy,2023.2.3,MacIntel,60.60606061,,,,,,,,,,,5,06,2,2,,,,,,,,,,,,,,,,,,,,,,,,,,,,,,,
665294bea976e31f9602bf76,SCR,2024-06-24_16h33.24.760,LearnStrategy,2023.2.3,MacIntel,60.60606061,,,,,,,,,,,7,07,2,3,,,,,,,,,,,,,,,,,,,,,,,,,,,,,,,
665294bea976e31f9602bf76,SCR,2024-06-24_16h33.24.760,LearnStrategy,2023.2.3,MacIntel,60.60606061,,,,,,,,,,,2,04,2,4,,,,,,,,,,,,,,,,,,,,,,,,,,,,,,,
665294bea976e31f9602bf76,SCR,2024-06-24_16h33.24.760,LearnStrategy,2023.2.3,MacIntel,60.60606061,,,,,,,,,,,8,02,2,5,,,,,,,,,,,,,,,,,,,,,,,,,,,,,,,
665294bea976e31f9602bf76,SCR,2024-06-24_16h33.24.760,LearnStrategy,2023.2.3,MacIntel,60.60606061,,,,,,,,,,,4,13,2,6,,,,,,,,,,,,,,,,,,,,,,,,,,,,,,,
665294bea976e31f9602bf76,SCR,2024-06-24_16h33.24.760,LearnStrategy,2023.2.3,MacIntel,60.60606061,,,,,,,,,,,7,10,2,7,,,,,,,,,,,,,,,,,,,,,,,,,,,,,,,
665294bea976e31f9602bf76,SCR,2024-06-24_16h33.24.760,LearnStrategy,2023.2.3,MacIntel,60.60606061,,,,,,,,,,,6,06,2,8,,,,,,,,,,,,,,,,,,,,,,,,,,,,,,,
665294bea976e31f9602bf76,SCR,2024-06-24_16h33.24.760,LearnStrategy,2023.2.3,MacIntel,60.60606061,,,,,,,,,,,3,13,3,1,,,,,,,,,,,,,,,,,,,,,,,,,,,,,,,
665294bea976e31f9602bf76,SCR,2024-06-24_16h33.24.760,LearnStrategy,2023.2.3,MacIntel,60.60606061,,,,,,,,,,,5,14,3,2,,,,,,,,,,,,,,,,,,,,,,,,,,,,,,,
665294bea976e31f9602bf76,SCR,2024-06-24_16h33.24.760,LearnStrategy,2023.2.3,MacIntel,60.60606061,,,,,,,,,,,3,10,3,3,,,,,,,,,,,,,,,,,,,,,,,,,,,,,,,
665294bea976e31f9602bf76,SCR,2024-06-24_16h33.24.760,LearnStrategy,2023.2.3,MacIntel,60.60606061,,,,,,,,,,,2,10,3,4,,,,,,,,,,,,,,,,,,,,,,,,,,,,,,,
665294bea976e31f9602bf76,SCR,2024-06-24_16h33.24.760,LearnStrategy,2023.2.3,MacIntel,60.60606061,,,,,,,,,,,3,07,3,5,,,,,,,,,,,,,,,,,,,,,,,,,,,,,,,
665294bea976e31f9602bf76,SCR,2024-06-24_16h33.24.760,LearnStrategy,2023.2.3,MacIntel,60.60606061,,,,,,,,,,,8,03,3,6,,,,,,,,,,,,,,,,,,,,,,,,,,,,,,,
665294bea976e31f9602bf76,SCR,2024-06-24_16h33.24.760,LearnStrategy,2023.2.3,MacIntel,60.60606061,,,,,,,,,,,4,01,3,7,,,,,,,,,,,,,,,,,,,,,,,,,,,,,,,
665294bea976e31f9602bf76,SCR,2024-06-24_16h33.24.760,LearnStrategy,2023.2.3,MacIntel,60.60606061,,,,,,,,,,,4,12,3,8,,,,,,,,,,,,,,,,,,,,,,,,,,,,,,,
665294bea976e31f9602bf76,SCR,2024-06-24_16h33.24.760,LearnStrategy,2023.2.3,MacIntel,60.60606061,,,,,,,,,,,8,04,4,1,,,,,,,,,,,,,,,,,,,,,,,,,,,,,,,
665294bea976e31f9602bf76,SCR,2024-06-24_16h33.24.760,LearnStrategy,2023.2.3,MacIntel,60.60606061,,,,,,,,,,,7,15,4,2,,,,,,,,,,,,,,,,,,,,,,,,,,,,,,,
665294bea976e31f9602bf76,SCR,2024-06-24_16h33.24.760,LearnStrategy,2023.2.3,MacIntel,60.60606061,,,,,,,,,,,3,09,4,3,,,,,,,,,,,,,,,,,,,,,,,,,,,,,,,
665294bea976e31f9602bf76,SCR,2024-06-24_16h33.24.760,LearnStrategy,2023.2.3,MacIntel,60.60606061,,,,,,,,,,,2,14,4,4,,,,,,,,,,,,,,,,,,,,,,,,,,,,,,,
665294bea976e31f9602bf76,SCR,2024-06-24_16h33.24.760,LearnStrategy,2023.2.3,MacIntel,60.60606061,,,,,,,,,,,6,15,4,5,,,,,,,,,,,,,,,,,,,,,,,,,,,,,,,
665294bea976e31f9602bf76,SCR,2024-06-24_16h33.24.760,LearnStrategy,2023.2.3,MacIntel,60.60606061,,,,,,,,,,,7,14,4,6,,,,,,,,,,,,,,,,,,,,,,,,,,,,,,,
665294bea976e31f9602bf76,SCR,2024-06-24_16h33.24.760,LearnStrategy,2023.2.3,MacIntel,60.60606061,,,,,,,,,,,3,06,4,7,,,,,,,,,,,,,,,,,,,,,,,,,,,,,,,
665294bea976e31f9602bf76,SCR,2024-06-24_16h33.24.760,LearnStrategy,2023.2.3,MacIntel,60.60606061,,,,,,,,,,,7,04,4,8,,,,,,,,,,,,,,,,,,,,,,,,,,,,,,,
665294bea976e31f9602bf76,SCR,2024-06-24_16h33.24.760,LearnStrategy,2023.2.3,MacIntel,60.60606061,,,,,,,,,,,1,09,5,1,,,,,,,,,,,,,,,,,,,,,,,,,,,,,,,
665294bea976e31f9602bf76,SCR,2024-06-24_16h33.24.760,LearnStrategy,2023.2.3,MacIntel,60.60606061,,,,,,,,,,,8,13,5,2,,,,,,,,,,,,,,,,,,,,,,,,,,,,,,,
665294bea976e31f9602bf76,SCR,2024-06-24_16h33.24.760,LearnStrategy,2023.2.3,MacIntel,60.60606061,,,,,,,,,,,1,07,5,3,,,,,,,,,,,,,,,,,,,,,,,,,,,,,,,
665294bea976e31f9602bf76,SCR,2024-06-24_16h33.24.760,LearnStrategy,2023.2.3,MacIntel,60.60606061,,,,,,,,,,,5,04,5,4,,,,,,,,,,,,,,,,,,,,,,,,,,,,,,,
665294bea976e31f9602bf76,SCR,2024-06-24_16h33.24.760,LearnStrategy,2023.2.3,MacIntel,60.60606061,,,,,,,,,,,8,06,5,5,,,,,,,,,,,,,,,,,,,,,,,,,,,,,,,
665294bea976e31f9602bf76,SCR,2024-06-24_16h33.24.760,LearnStrategy,2023.2.3,MacIntel,60.60606061,,,,,,,,,,,6,08,5,6,,,,,,,,,,,,,,,,,,,,,,,,,,,,,,,
665294bea976e31f9602bf76,SCR,2024-06-24_16h33.24.760,LearnStrategy,2023.2.3,MacIntel,60.60606061,,,,,,,,,,,2,06,5,7,,,,,,,,,,,,,,,,,,,,,,,,,,,,,,,
665294bea976e31f9602bf76,SCR,2024-06-24_16h33.24.760,LearnStrategy,2023.2.3,MacIntel,60.60606061,,,,,,,,,,,1,03,5,8,,,,,,,,,,,,,,,,,,,,,,,,,,,,,,,
665294bea976e31f9602bf76,SCR,2024-06-24_16h33.24.760,LearnStrategy,2023.2.3,MacIntel,60.60606061,,,,,,,,,,,2,05,6,1,,,,,,,,,,,,,,,,,,,,,,,,,,,,,,,
665294bea976e31f9602bf76,SCR,2024-06-24_16h33.24.760,LearnStrategy,2023.2.3,MacIntel,60.60606061,,,,,,,,,,,6,09,6,2,,,,,,,,,,,,,,,,,,,,,,,,,,,,,,,
665294bea976e31f9602bf76,SCR,2024-06-24_16h33.24.760,LearnStrategy,2023.2.3,MacIntel,60.60606061,,,,,,,,,,,4,15,6,3,,,,,,,,,,,,,,,,,,,,,,,,,,,,,,,
665294bea976e31f9602bf76,SCR,2024-06-24_16h33.24.760,LearnStrategy,2023.2.3,MacIntel,60.60606061,,,,,,,,,,,5,08,6,4,,,,,,,,,,,,,,,,,,,,,,,,,,,,,,,
665294bea976e31f9602bf76,SCR,2024-06-24_16h33.24.760,LearnStrategy,2023.2.3,MacIntel,60.60606061,,,,,,,,,,,8,14,6,5,,,,,,,,,,,,,,,,,,,,,,,,,,,,,,,
665294bea976e31f9602bf76,SCR,2024-06-24_16h33.24.760,LearnStrategy,2023.2.3,MacIntel,60.60606061,,,,,,,,,,,6,12,6,6,,,,,,,,,,,,,,,,,,,,,,,,,,,,,,,
665294bea976e31f9602bf76,SCR,2024-06-24_16h33.24.760,LearnStrategy,2023.2.3,MacIntel,60.60606061,,,,,,,,,,,2,11,6,7,,,,,,,,,,,,,,,,,,,,,,,,,,,,,,,
665294bea976e31f9602bf76,SCR,2024-06-24_16h33.24.760,LearnStrategy,2023.2.3,MacIntel,60.60606061,,,,,,,,,,,1,05,6,8,,,,,,,,,,,,,,,,,,,,,,,,,,,,,,,