participant,condition,date,expName,psychopyVersion,OS,frameRate,block,phase,trial,learn_mouse_2.x,learn_mouse_2.y,learn_mouse_2.leftButton,learn_mouse_2.midButton,learn_mouse_2.rightButton,learn_mouse_2.time,learn_mouse_2.clicked_name,cat,token,row,col,t_select,cat_mouse_l.x,cat_mouse_l.y,cat_mouse_l.leftButton,cat_mouse_l.midButton,cat_mouse_l.rightButton,cat_mouse_l.time,cat_mouse_l.clicked_name,resp,t_resp,corr,train_trials.thisRepN,train_trials.thisTrialN,train_trials.thisN,train_trials.thisIndex,train_trials.ran,cat_mouse_t.x,cat_mouse_t.y,cat_mouse_t.leftButton,cat_mouse_t.midButton,cat_mouse_t.rightButton,cat_mouse_t.time,cat_mouse_t.clicked_name,test_trials.thisRepN,test_trials.thisTrialN,test_trials.thisN,test_trials.thisIndex,test_trials.ran,Bonus
66548532974360d0c90b9dd5,TCR,2024-06-21_13h45.28.713,LearnStrategy,2023.2.3,Win32,60.60606061,,,,,,,,,,,,,,,,,,,,,,,,,,,,,,,,,,,,,,,,,,,
66548532974360d0c90b9dd5,TCR,2024-06-21_13h45.28.713,LearnStrategy,2023.2.3,Win32,60.60606061,1,1,1,0.035185213,0.003703683,1,0,0,8.4473,rock_grid_rect_2,2,11,-1,-1,8.447,-0.374074053,-0.24537037,1,0,0,5.5648,Andesite_rect,1,5.565,0,0,0,0,0,1,,,,,,,,,,,,,
66548532974360d0c90b9dd5,TCR,2024-06-21_13h45.28.713,LearnStrategy,2023.2.3,Win32,60.60606061,1,1,2,0.05740745,0.009259259,1,0,0,2.6119,rock_grid_rect_2,6,13,-1,-1,2.612,0.12037037,-0.262037065,1,0,0,2.8413,Diorite_rect,3,2.841,0,1,0,1,0,1,,,,,,,,,,,,,
66548532974360d0c90b9dd5,TCR,2024-06-21_13h45.28.713,LearnStrategy,2023.2.3,Win32,60.60606061,1,1,3,0.029629672,-0.01666666,1,0,0,2.6615,rock_grid_rect_2,7,13,-1,-1,2.662,-0.412037037,-0.407407407,1,0,0,6.9575,Obsidian_rect,5,6.958,0,2,0,2,0,1,,,,,,,,,,,,,
66548532974360d0c90b9dd5,TCR,2024-06-21_13h45.28.713,LearnStrategy,2023.2.3,Win32,60.60606061,1,1,4,0.049074102,-0.001851859,1,0,0,1.6615,rock_grid_rect_2,3,14,-1,-1,1.662,-0.104629587,-0.250925912,1,0,0,3.4609,Basalt_rect,2,3.461,0,3,0,3,0,1,,,,,,,,,,,,,
66548532974360d0c90b9dd5,TCR,2024-06-21_13h45.28.713,LearnStrategy,2023.2.3,Win32,60.60606061,1,1,5,0.011111153,-0.000925947,1,0,0,1.512,rock_grid_rect_2,4,12,-1,-1,1.512,0.146296325,-0.401851866,1,0,0,5.4232,Peridotite_rect,7,5.423,0,4,0,4,0,1,,,,,,,,,,,,,
66548532974360d0c90b9dd5,TCR,2024-06-21_13h45.28.713,LearnStrategy,2023.2.3,Win32,60.60606061,1,1,6,-0.046296296,-0.011111118,1,0,0,1.4289,rock_grid_rect_2,8,05,-1,-1,1.429,0.424074102,-0.404629672,1,0,0,2.256,Pumice_rect,8,2.256,1,5,0,5,0,1,,,,,,,,,,,,,
66548532974360d0c90b9dd5,TCR,2024-06-21_13h45.28.713,LearnStrategy,2023.2.3,Win32,60.60606061,1,1,7,-0.012036995,0.001851859,1,0,0,1.6126,rock_grid_rect_2,2,10,-1,-1,1.613,-0.375,-0.400925954,1,0,0,2.9588,Obsidian_rect,5,2.959,0,6,0,6,0,1,,,,,,,,,,,,,
66548532974360d0c90b9dd5,TCR,2024-06-21_13h45.28.713,LearnStrategy,2023.2.3,Win32,60.60606061,1,1,8,0.005555541,-0.015740748,1,0,0,1.4281,rock_grid_rect_2,6,07,-1,-1,1.428,0.172222208,-0.237037023,1,0,0,2.0726,Diorite_rect,3,2.073,0,7,0,7,0,1,,,,,,,,,,,,,
66548532974360d0c90b9dd5,TCR,2024-06-21_13h45.28.713,LearnStrategy,2023.2.3,Win32,60.60606061,1,1,9,-0.071296268,0.02407406,1,0,0,2.4466,rock_grid_rect_2,7,04,-1,-1,2.447,0.384259259,-0.252777806,1,0,0,5.2753,Gabbro_rect,4,5.275,0,8,0,8,0,1,,,,,,,,,,,,,
66548532974360d0c90b9dd5,TCR,2024-06-21_13h45.28.713,LearnStrategy,2023.2.3,Win32,60.60606061,1,1,10,0.043518561,-0.00462963,1,0,0,1.242,rock_grid_rect_2,5,10,-1,-1,1.242,-0.359259252,-0.409259302,1,0,0,2.2738,Obsidian_rect,5,2.274,1,9,0,9,0,1,,,,,,,,,,,,,
66548532974360d0c90b9dd5,TCR,2024-06-21_13h45.28.713,LearnStrategy,2023.2.3,Win32,60.60606061,1,1,11,0.029629672,0.012962942,1,0,0,1.0868,rock_grid_rect_2,5,07,-1,-1,1.087,-0.375,-0.250925912,1,0,0,3.8965,Andesite_rect,1,3.896,0,10,0,10,0,1,,,,,,,,,,,,,
66548532974360d0c90b9dd5,TCR,2024-06-21_13h45.28.713,LearnStrategy,2023.2.3,Win32,60.60606061,1,1,12,0.079629616,0.0074074,1,0,0,1.2999,rock_grid_rect_2,3,07,-1,-1,1.3,-0.122222194,-0.384259259,1,0,0,3.2093,Pegmatite_rect,6,3.209,0,11,0,11,0,1,,,,,,,,,,,,,
66548532974360d0c90b9dd5,TCR,2024-06-21_13h45.28.713,LearnStrategy,2023.2.3,Win32,60.60606061,1,1,13,0.034259302,0.0074074,1,0,0,1.3199,rock_grid_rect_2,1,05,-1,-1,1.32,-0.10555557,-0.258333347,1,0,0,1.6434,Basalt_rect,2,1.643,0,12,0,12,0,1,,,,,,,,,,,,,
66548532974360d0c90b9dd5,TCR,2024-06-21_13h45.28.713,LearnStrategy,2023.2.3,Win32,60.60606061,1,1,14,0.003703718,0.001851859,1,0,0,1.28,rock_grid_rect_2,8,15,-1,-1,1.28,0.125,-0.244444459,1,0,0,1.8263,Diorite_rect,3,1.826,0,13,0,13,0,1,,,,,,,,,,,,,
66548532974360d0c90b9dd5,TCR,2024-06-21_13h45.28.713,LearnStrategy,2023.2.3,Win32,60.60606061,1,1,15,0.043518561,-0.003703718,1,0,0,1.2691,rock_grid_rect_2,1,14,-1,-1,1.269,0.183333362,-0.264814801,1,0,0,1.3564,Diorite_rect,3,1.356,0,14,0,14,0,1,,,,,,,,,,,,,
66548532974360d0c90b9dd5,TCR,2024-06-21_13h45.28.713,LearnStrategy,2023.2.3,Win32,60.60606061,1,1,16,0.025000042,0.002777771,1,0,0,1.3147,rock_grid_rect_2,4,10,-1,-1,1.315,-0.421296296,-0.39444443,1,0,0,2.001,Obsidian_rect,5,2.001,0,15,0,15,0,1,,,,,,,,,,,,,
66548532974360d0c90b9dd5,TCR,2024-06-21_13h45.28.713,LearnStrategy,2023.2.3,Win32,60.60606061,1,2,1,,,,,,,,6,12,,,,,,,,,,,1,9.051,0,,,,,,-0.330555563,-0.263888889,1,0,0,9.0513,Andesite_rect,0,0,0,0,1,
66548532974360d0c90b9dd5,TCR,2024-06-21_13h45.28.713,LearnStrategy,2023.2.3,Win32,60.60606061,1,2,2,,,,,,,,5,04,,,,,,,,,,,5,1.658,1,,,,,,-0.357407393,-0.393518519,1,0,0,1.6579,Obsidian_rect,1,0,1,0,1,
66548532974360d0c90b9dd5,TCR,2024-06-21_13h45.28.713,LearnStrategy,2023.2.3,Win32,60.60606061,1,2,3,,,,,,,,7,02,,,,,,,,,,,7,5.033,1,,,,,,0.100000028,-0.404629672,1,0,0,5.0333,Peridotite_rect,2,0,2,0,1,
66548532974360d0c90b9dd5,TCR,2024-06-21_13h45.28.713,LearnStrategy,2023.2.3,Win32,60.60606061,1,2,4,,,,,,,,3,10,,,,,,,,,,,3,3.585,1,,,,,,0.117592635,-0.233333376,1,0,0,3.5846,Diorite_rect,3,0,3,0,1,
66548532974360d0c90b9dd5,TCR,2024-06-21_13h45.28.713,LearnStrategy,2023.2.3,Win32,60.60606061,1,2,5,,,,,,,,4,03,,,,,,,,,,,4,2.77,1,,,,,,0.374074159,-0.263888889,1,0,0,2.7703,Gabbro_rect,4,0,4,0,1,
66548532974360d0c90b9dd5,TCR,2024-06-21_13h45.28.713,LearnStrategy,2023.2.3,Win32,60.60606061,1,2,6,,,,,,,,3,16,,,,,,,,,,,3,5.603,1,,,,,,0.123148176,-0.238888917,1,0,0,5.6029,Diorite_rect,5,0,5,0,1,
66548532974360d0c90b9dd5,TCR,2024-06-21_13h45.28.713,LearnStrategy,2023.2.3,Win32,60.60606061,1,2,7,,,,,,,,1,07,,,,,,,,,,,3,3.305,0,,,,,,0.123148176,-0.238888917,1,0,0,3.305,Diorite_rect,6,0,6,0,1,
66548532974360d0c90b9dd5,TCR,2024-06-21_13h45.28.713,LearnStrategy,2023.2.3,Win32,60.60606061,1,2,8,,,,,,,,1,03,,,,,,,,,,,1,4.704,1,,,,,,-0.385185171,-0.258333347,1,0,0,4.7038,Andesite_rect,7,0,7,0,1,
66548532974360d0c90b9dd5,TCR,2024-06-21_13h45.28.713,LearnStrategy,2023.2.3,Win32,60.60606061,1,2,9,,,,,,,,7,12,,,,,,,,,,,6,5.704,0,,,,,,-0.086111069,-0.390740783,1,0,0,5.704,Pegmatite_rect,8,0,8,0,1,
66548532974360d0c90b9dd5,TCR,2024-06-21_13h45.28.713,LearnStrategy,2023.2.3,Win32,60.60606061,1,2,10,,,,,,,,8,06,,,,,,,,,,,8,2.409,1,,,,,,0.424074102,-0.409259302,1,0,0,2.4085,Pumice_rect,9,0,9,0,1,
66548532974360d0c90b9dd5,TCR,2024-06-21_13h45.28.713,LearnStrategy,2023.2.3,Win32,60.60606061,1,2,11,,,,,,,,5,11,,,,,,,,,,,5,1.722,1,,,,,,-0.412037037,-0.407407407,1,0,0,1.722,Obsidian_rect,10,0,10,0,1,
66548532974360d0c90b9dd5,TCR,2024-06-21_13h45.28.713,LearnStrategy,2023.2.3,Win32,60.60606061,1,2,12,,,,,,,,2,12,,,,,,,,,,,1,5.402,0,,,,,,-0.395370377,-0.262037065,1,0,0,5.4024,Andesite_rect,11,0,11,0,1,
66548532974360d0c90b9dd5,TCR,2024-06-21_13h45.28.713,LearnStrategy,2023.2.3,Win32,60.60606061,1,2,13,,,,,,,,2,08,,,,,,,,,,,5,1.642,0,,,,,,-0.430555556,-0.389814801,1,0,0,1.6422,Obsidian_rect,12,0,12,0,1,
66548532974360d0c90b9dd5,TCR,2024-06-21_13h45.28.713,LearnStrategy,2023.2.3,Win32,60.60606061,1,2,14,,,,,,,,6,05,,,,,,,,,,,3,3.134,0,,,,,,0.214814857,-0.238888917,1,0,0,3.1337,Diorite_rect,13,0,13,0,1,
66548532974360d0c90b9dd5,TCR,2024-06-21_13h45.28.713,LearnStrategy,2023.2.3,Win32,60.60606061,1,2,15,,,,,,,,8,02,,,,,,,,,,,8,2.203,1,,,,,,0.361111111,-0.39444443,1,0,0,2.2034,Pumice_rect,14,0,14,0,1,
66548532974360d0c90b9dd5,TCR,2024-06-21_13h45.28.713,LearnStrategy,2023.2.3,Win32,60.60606061,1,2,16,,,,,,,,4,14,,,,,,,,,,,4,3.321,1,,,,,,0.40370376,-0.260185171,1,0,0,3.3206,Gabbro_rect,15,0,15,0,1,
66548532974360d0c90b9dd5,TCR,2024-06-21_13h45.28.713,LearnStrategy,2023.2.3,Win32,60.60606061,2,1,1,-0.064814815,0.003703683,1,0,0,1.6798,rock_grid_rect_2,2,04,-1,-1,1.68,-0.402777778,-0.378703718,1,0,0,2.3071,Obsidian_rect,5,2.307,0,0,0,0,0,1,,,,,,,,,,,,,
66548532974360d0c90b9dd5,TCR,2024-06-21_13h45.28.713,LearnStrategy,2023.2.3,Win32,60.60606061,2,1,2,0.025925954,-0.003703718,1,0,0,1.4704,rock_grid_rect_2,1,05,-1,-1,1.47,0.138888889,-0.246296282,1,0,0,3.2069,Diorite_rect,3,3.207,0,1,0,1,0,1,,,,,,,,,,,,,
66548532974360d0c90b9dd5,TCR,2024-06-21_13h45.28.713,LearnStrategy,2023.2.3,Win32,60.60606061,2,1,3,-0.027777778,0.020370377,1,0,0,1.3684,rock_grid_rect_2,6,16,-1,-1,1.368,0.139814801,-0.250925912,1,0,0,2.6598,Diorite_rect,3,2.66,0,2,0,2,0,1,,,,,,,,,,,,,
66548532974360d0c90b9dd5,TCR,2024-06-21_13h45.28.713,LearnStrategy,2023.2.3,Win32,60.60606061,2,1,4,-0.112962935,-0.022222236,1,0,0,1.3456,rock_grid_rect_2,6,03,-1,-1,1.346,-0.409259266,-0.252777806,1,0,0,2.0188,Andesite_rect,1,2.019,0,3,0,3,0,1,,,,,,,,,,,,,
66548532974360d0c90b9dd5,TCR,2024-06-21_13h45.28.713,LearnStrategy,2023.2.3,Win32,60.60606061,2,1,5,-0.014814801,0,1,0,0,1.2841,rock_grid_rect_2,6,16,-1,-1,1.284,-0.125,-0.416666667,1,0,0,6.1802,Pegmatite_rect,6,6.18,1,4,0,4,0,1,,,,,,,,,,,,,
66548532974360d0c90b9dd5,TCR,2024-06-21_13h45.28.713,LearnStrategy,2023.2.3,Win32,60.60606061,2,1,6,0.009259259,-0.002777771,1,0,0,2.828,rock_grid_rect_2,2,02,-1,-1,2.828,-0.083333333,-0.241666653,1,0,0,5.206,Basalt_rect,2,5.206,1,5,0,5,0,1,,,,,,,,,,,,,
66548532974360d0c90b9dd5,TCR,2024-06-21_13h45.28.713,LearnStrategy,2023.2.3,Win32,60.60606061,2,1,7,0.025925954,0.01666666,1,0,0,1.3503,rock_grid_rect_2,2,16,-1,-1,1.35,0.342592593,-0.386111153,1,0,0,2.2562,Pumice_rect,8,2.256,0,6,0,6,0,1,,,,,,,,,,,,,
66548532974360d0c90b9dd5,TCR,2024-06-21_13h45.28.713,LearnStrategy,2023.2.3,Win32,60.60606061,2,1,8,0.012962977,0.009259259,1,0,0,1.1786,rock_grid_rect_2,7,04,-1,-1,1.179,-0.166666667,-0.386111153,1,0,0,4.4934,Pegmatite_rect,6,4.493,0,7,0,7,0,1,,,,,,,,,,,,,
66548532974360d0c90b9dd5,TCR,2024-06-21_13h45.28.713,LearnStrategy,2023.2.3,Win32,60.60606061,2,1,9,0.027777778,-0.002777771,1,0,0,1.368,rock_grid_rect_2,1,09,-1,-1,1.368,-0.143518519,-0.243518547,1,0,0,3.8744,Basalt_rect,2,3.874,0,8,0,8,0,1,,,,,,,,,,,,,
66548532974360d0c90b9dd5,TCR,2024-06-21_13h45.28.713,LearnStrategy,2023.2.3,Win32,60.60606061,2,1,10,-0.056481467,0.020370377,1,0,0,6.9833,rock_grid_rect_2,4,13,-1,-1,6.983,0.107407393,-0.246296282,1,0,0,1.5439,Diorite_rect,3,1.544,0,9,0,9,0,1,,,,,,,,,,,,,
66548532974360d0c90b9dd5,TCR,2024-06-21_13h45.28.713,LearnStrategy,2023.2.3,Win32,60.60606061,2,1,11,-0.038888861,0.001851859,1,0,0,2.1513,rock_grid_rect_2,7,05,-1,-1,2.151,0.383333418,-0.262037065,1,0,0,3.5905,Gabbro_rect,4,3.591,0,10,0,10,0,1,,,,,,,,,,,,,
66548532974360d0c90b9dd5,TCR,2024-06-21_13h45.28.713,LearnStrategy,2023.2.3,Win32,60.60606061,2,1,12,0.049074102,0,1,0,0,1.245,rock_grid_rect_2,2,02,-1,-1,1.245,-0.172222208,-0.244444459,1,0,0,2.0402,Basalt_rect,2,2.04,1,11,0,11,0,1,,,,,,,,,,,,,
66548532974360d0c90b9dd5,TCR,2024-06-21_13h45.28.713,LearnStrategy,2023.2.3,Win32,60.60606061,2,1,13,0.089814857,-0.0074074,1,0,0,1.2294,rock_grid_rect_2,3,07,-1,-1,1.229,-0.413888896,-0.25462963,1,0,0,1.9243,Andesite_rect,1,1.924,0,12,0,12,0,1,,,,,,,,,,,,,
66548532974360d0c90b9dd5,TCR,2024-06-21_13h45.28.713,LearnStrategy,2023.2.3,Win32,60.60606061,2,1,14,0.071296339,0.01666666,1,0,0,1.1964,rock_grid_rect_2,1,14,-1,-1,1.196,-0.085185157,-0.389814801,1,0,0,2.558,Pegmatite_rect,6,2.558,0,13,0,13,0,1,,,,,,,,,,,,,
66548532974360d0c90b9dd5,TCR,2024-06-21_13h45.28.713,LearnStrategy,2023.2.3,Win32,60.60606061,2,1,15,0.086111139,0.008333312,1,0,0,1.4832,rock_grid_rect_2,5,07,-1,-1,1.483,-0.39907406,-0.401851866,1,0,0,3.3903,Obsidian_rect,5,3.39,1,14,0,14,0,1,,,,,,,,,,,,,
66548532974360d0c90b9dd5,TCR,2024-06-21_13h45.28.713,LearnStrategy,2023.2.3,Win32,60.60606061,2,1,16,0.071296339,0.01203703,1,0,0,1.4337,rock_grid_rect_2,6,10,-1,-1,1.434,-0.393518519,-0.251851894,1,0,0,3.1599,Andesite_rect,1,3.16,0,15,0,15,0,1,,,,,,,,,,,,,
66548532974360d0c90b9dd5,TCR,2024-06-21_13h45.28.713,LearnStrategy,2023.2.3,Win32,60.60606061,2,2,1,,,,,,,,2,09,,,,,,,,,,,5,6.137,0,,,,,,-0.378703683,-0.412037037,1,0,0,6.1371,Obsidian_rect,0,0,0,0,1,
66548532974360d0c90b9dd5,TCR,2024-06-21_13h45.28.713,LearnStrategy,2023.2.3,Win32,60.60606061,2,2,2,,,,,,,,4,08,,,,,,,,,,,1,12.437,0,,,,,,-0.425925926,-0.259259259,1,0,0,12.4373,Andesite_rect,1,0,1,0,1,
66548532974360d0c90b9dd5,TCR,2024-06-21_13h45.28.713,LearnStrategy,2023.2.3,Win32,60.60606061,2,2,3,,,,,,,,5,06,,,,,,,,,,,5,5.27,1,,,,,,-0.407407407,-0.411111125,1,0,0,5.2699,Obsidian_rect,2,0,2,0,1,
66548532974360d0c90b9dd5,TCR,2024-06-21_13h45.28.713,LearnStrategy,2023.2.3,Win32,60.60606061,2,2,4,,,,,,,,7,08,,,,,,,,,,,4,8.67,0,,,,,,0.362962935,-0.25462963,1,0,0,8.6697,Gabbro_rect,3,0,3,0,1,
66548532974360d0c90b9dd5,TCR,2024-06-21_13h45.28.713,LearnStrategy,2023.2.3,Win32,60.60606061,2,2,5,,,,,,,,3,13,,,,,,,,,,,3,4.221,1,,,,,,0.111111111,-0.255555541,1,0,0,4.2207,Diorite_rect,4,0,4,0,1,
66548532974360d0c90b9dd5,TCR,2024-06-21_13h45.28.713,LearnStrategy,2023.2.3,Win32,60.60606061,2,2,6,,,,,,,,4,16,,,,,,,,,,,2,4.87,0,,,,,,-0.156481496,-0.237037023,1,0,0,4.8705,Basalt_rect,5,0,5,0,1,
66548532974360d0c90b9dd5,TCR,2024-06-21_13h45.28.713,LearnStrategy,2023.2.3,Win32,60.60606061,2,2,7,,,,,,,,5,09,,,,,,,,,,,5,2.121,1,,,,,,-0.41111109,-0.401851866,1,0,0,2.1209,Obsidian_rect,6,0,6,0,1,
66548532974360d0c90b9dd5,TCR,2024-06-21_13h45.28.713,LearnStrategy,2023.2.3,Win32,60.60606061,2,2,8,,,,,,,,1,06,,,,,,,,,,,1,6.207,1,,,,,,-0.465740734,-0.25462963,1,0,0,6.2065,Andesite_rect,7,0,7,0,1,
66548532974360d0c90b9dd5,TCR,2024-06-21_13h45.28.713,LearnStrategy,2023.2.3,Win32,60.60606061,2,2,9,,,,,,,,1,01,,,,,,,,,,,4,5.621,0,,,,,,0.406481566,-0.237037023,1,0,0,5.6209,Gabbro_rect,8,0,8,0,1,
66548532974360d0c90b9dd5,TCR,2024-06-21_13h45.28.713,LearnStrategy,2023.2.3,Win32,60.60606061,2,2,10,,,,,,,,2,01,,,,,,,,,,,2,3.987,1,,,,,,-0.113888847,-0.247222265,1,0,0,3.9874,Basalt_rect,9,0,9,0,1,
66548532974360d0c90b9dd5,TCR,2024-06-21_13h45.28.713,LearnStrategy,2023.2.3,Win32,60.60606061,2,2,11,,,,,,,,8,03,,,,,,,,,,,8,1.989,1,,,,,,0.42777775,-0.387962977,1,0,0,1.9894,Pumice_rect,10,0,10,0,1,
66548532974360d0c90b9dd5,TCR,2024-06-21_13h45.28.713,LearnStrategy,2023.2.3,Win32,60.60606061,2,2,12,,,,,,,,8,14,,,,,,,,,,,8,0.772,1,,,,,,0.42777775,-0.387962977,1,0,0,0.7719,Pumice_rect,11,0,11,0,1,
66548532974360d0c90b9dd5,TCR,2024-06-21_13h45.28.713,LearnStrategy,2023.2.3,Win32,60.60606061,2,2,13,,,,,,,,7,15,,,,,,,,,,,3,8.858,0,,,,,,0.139814801,-0.251851894,1,0,0,8.8579,Diorite_rect,12,0,12,0,1,
66548532974360d0c90b9dd5,TCR,2024-06-21_13h45.28.713,LearnStrategy,2023.2.3,Win32,60.60606061,2,2,14,,,,,,,,6,06,,,,,,,,,,,3,12.17,0,,,,,,0.135185171,-0.236111111,1,0,0,12.17,Diorite_rect,13,0,13,0,1,
66548532974360d0c90b9dd5,TCR,2024-06-21_13h45.28.713,LearnStrategy,2023.2.3,Win32,60.60606061,2,2,15,,,,,,,,3,08,,,,,,,,,,,3,8.553,1,,,,,,0.127777806,-0.252777806,1,0,0,8.5529,Diorite_rect,14,0,14,0,1,
66548532974360d0c90b9dd5,TCR,2024-06-21_13h45.28.713,LearnStrategy,2023.2.3,Win32,60.60606061,2,2,16,,,,,,,,6,08,,,,,,,,,,,3,8.603,0,,,,,,0.127777806,-0.252777806,1,0,0,8.6033,Diorite_rect,15,0,15,0,1,
66548532974360d0c90b9dd5,TCR,2024-06-21_13h45.28.713,LearnStrategy,2023.2.3,Win32,60.60606061,3,1,1,0.029629672,-0.001851859,1,0,0,2.9634,rock_grid_rect_2,4,12,-1,-1,2.963,-0.166666667,-0.235185199,1,0,0,3.8068,Basalt_rect,2,3.807,0,0,0,0,0,1,,,,,,,,,,,,,
66548532974360d0c90b9dd5,TCR,2024-06-21_13h45.28.713,LearnStrategy,2023.2.3,Win32,60.60606061,3,1,2,-0.041666667,0,1,0,0,1.4573,rock_grid_rect_2,2,16,-1,-1,1.457,-0.111111111,-0.248148176,1,0,0,2.6729,Basalt_rect,2,2.673,1,1,0,1,0,1,,,,,,,,,,,,,
66548532974360d0c90b9dd5,TCR,2024-06-21_13h45.28.713,LearnStrategy,2023.2.3,Win32,60.60606061,3,1,3,-0.033333319,0,1,0,0,2.337,rock_grid_rect_2,7,05,-1,-1,2.337,0.168518561,-0.25462963,1,0,0,2.4568,Diorite_rect,3,2.457,0,2,0,2,0,1,,,,,,,,,,,,,
66548532974360d0c90b9dd5,TCR,2024-06-21_13h45.28.713,LearnStrategy,2023.2.3,Win32,60.60606061,3,1,4,0.014814801,0.017592571,1,0,0,1.3323,rock_grid_rect_2,2,02,-1,-1,1.332,0.374074159,-0.233333376,1,0,0,1.8742,Gabbro_rect,4,1.874,0,3,0,3,0,1,,,,,,,,,,,,,
66548532974360d0c90b9dd5,TCR,2024-06-21_13h45.28.713,LearnStrategy,2023.2.3,Win32,60.60606061,3,1,5,0.087962963,-0.020370377,1,0,0,1.3125,rock_grid_rect_2,2,06,-1,-1,1.313,-0.132407365,-0.248148176,1,0,0,3.3938,Basalt_rect,2,3.394,1,4,0,4,0,1,,,,,,,,,,,,,
66548532974360d0c90b9dd5,TCR,2024-06-21_13h45.28.713,LearnStrategy,2023.2.3,Win32,60.60606061,3,1,6,-0.013888889,-0.000925947,1,0,0,1.3778,rock_grid_rect_2,5,16,-1,-1,1.378,-0.434259238,-0.37962963,1,0,0,1.9899,Obsidian_rect,5,1.99,1,5,0,5,0,1,,,,,,,,,,,,,
66548532974360d0c90b9dd5,TCR,2024-06-21_13h45.28.713,LearnStrategy,2023.2.3,Win32,60.60606061,3,1,7,0.014814801,-0.010185206,1,0,0,1.3463,rock_grid_rect_2,1,05,-1,-1,1.346,-0.397222201,-0.25462963,1,0,0,3.1104,Andesite_rect,1,3.11,1,6,0,6,0,1,,,,,,,,,,,,,
66548532974360d0c90b9dd5,TCR,2024-06-21_13h45.28.713,LearnStrategy,2023.2.3,Win32,60.60606061,3,1,8,0.061111097,0.023148148,1,0,0,1.145,rock_grid_rect_2,4,10,-1,-1,1.145,0.412963019,-0.244444459,1,0,0,2.7923,Gabbro_rect,4,2.792,1,7,0,7,0,1,,,,,,,,,,,,,
66548532974360d0c90b9dd5,TCR,2024-06-21_13h45.28.713,LearnStrategy,2023.2.3,Win32,60.60606061,3,1,9,0.027777778,0.005555541,1,0,0,1.3297,rock_grid_rect_2,6,03,-1,-1,1.33,0.128703718,-0.264814801,1,0,0,1.857,Diorite_rect,3,1.857,0,8,0,8,0,1,,,,,,,,,,,,,
66548532974360d0c90b9dd5,TCR,2024-06-21_13h45.28.713,LearnStrategy,2023.2.3,Win32,60.60606061,3,1,10,0.059259273,0.01203703,1,0,0,1.1973,rock_grid_rect_2,7,14,-1,-1,1.197,-0.39166666,-0.262037065,1,0,0,5.722,Andesite_rect,1,5.722,0,9,0,9,0,1,,,,,,,,,,,,,
66548532974360d0c90b9dd5,TCR,2024-06-21_13h45.28.713,LearnStrategy,2023.2.3,Win32,60.60606061,3,1,11,0.045370384,-0.005555577,1,0,0,1.3781,rock_grid_rect_2,6,16,-1,-1,1.378,0.12962963,-0.404629672,1,0,0,2.4411,Peridotite_rect,7,2.441,0,10,0,10,0,1,,,,,,,,,,,,,
66548532974360d0c90b9dd5,TCR,2024-06-21_13h45.28.713,LearnStrategy,2023.2.3,Win32,60.60606061,3,1,12,-0.003703718,0,1,0,0,1.1003,rock_grid_rect_2,1,04,-1,-1,1.1,-0.352777764,-0.243518547,1,0,0,3.5326,Andesite_rect,1,3.533,1,11,0,11,0,1,,,,,,,,,,,,,
66548532974360d0c90b9dd5,TCR,2024-06-21_13h45.28.713,LearnStrategy,2023.2.3,Win32,60.60606061,3,1,13,0.037037037,0.008333312,1,0,0,2.3289,rock_grid_rect_2,4,11,-1,-1,2.329,0.387963048,-0.259259259,1,0,0,2.7959,Gabbro_rect,4,2.796,1,12,0,12,0,1,,,,,,,,,,,,,
66548532974360d0c90b9dd5,TCR,2024-06-21_13h45.28.713,LearnStrategy,2023.2.3,Win32,60.60606061,3,1,14,0.025925954,0.003703683,1,0,0,1.1952,rock_grid_rect_2,7,04,-1,-1,1.195,0.130555541,-0.25,1,0,0,2.963,Diorite_rect,3,2.963,0,13,0,13,0,1,,,,,,,,,,,,,
66548532974360d0c90b9dd5,TCR,2024-06-21_13h45.28.713,LearnStrategy,2023.2.3,Win32,60.60606061,3,1,15,-0.006481453,0.005555541,1,0,0,1.3017,rock_grid_rect_2,6,10,-1,-1,1.302,-0.081481439,-0.412962949,1,0,0,3.0068,Pegmatite_rect,6,3.007,1,14,0,14,0,1,,,,,,,,,,,,,
66548532974360d0c90b9dd5,TCR,2024-06-21_13h45.28.713,LearnStrategy,2023.2.3,Win32,60.60606061,3,1,16,0.041666667,-0.01203703,1,0,0,1.429,rock_grid_rect_2,3,07,-1,-1,1.429,0.111111111,-0.271296325,1,0,0,1.7101,Diorite_rect,3,1.71,1,15,0,15,0,1,,,,,,,,,,,,,
66548532974360d0c90b9dd5,TCR,2024-06-21_13h45.28.713,LearnStrategy,2023.2.3,Win32,60.60606061,3,2,1,,,,,,,,6,15,,,,,,,,,,,3,18.019,0,,,,,,0.15370369,-0.243518547,1,0,0,18.0186,Diorite_rect,0,0,0,0,1,
66548532974360d0c90b9dd5,TCR,2024-06-21_13h45.28.713,LearnStrategy,2023.2.3,Win32,60.60606061,3,2,2,,,,,,,,4,01,,,,,,,,,,,1,5.069,0,,,,,,-0.41111109,-0.234259288,1,0,0,5.069,Andesite_rect,1,0,1,0,1,
66548532974360d0c90b9dd5,TCR,2024-06-21_13h45.28.713,LearnStrategy,2023.2.3,Win32,60.60606061,3,2,3,,,,,,,,5,02,,,,,,,,,,,5,1.638,1,,,,,,-0.412962949,-0.39907406,1,0,0,1.6384,Obsidian_rect,2,0,2,0,1,
66548532974360d0c90b9dd5,TCR,2024-06-21_13h45.28.713,LearnStrategy,2023.2.3,Win32,60.60606061,3,2,4,,,,,,,,7,07,,,,,,,,,,,4,5.041,0,,,,,,0.380555612,-0.252777806,1,0,0,5.0414,Gabbro_rect,3,0,3,0,1,
66548532974360d0c90b9dd5,TCR,2024-06-21_13h45.28.713,LearnStrategy,2023.2.3,Win32,60.60606061,3,2,5,,,,,,,,1,16,,,,,,,,,,,1,8.471,1,,,,,,-0.337962963,-0.234259288,1,0,0,8.4705,Andesite_rect,4,0,4,0,1,
66548532974360d0c90b9dd5,TCR,2024-06-21_13h45.28.713,LearnStrategy,2023.2.3,Win32,60.60606061,3,2,6,,,,,,,,7,10,,,,,,,,,,,1,1.587,0,,,,,,-0.357407393,-0.24537037,1,0,0,1.5872,Andesite_rect,5,0,5,0,1,
66548532974360d0c90b9dd5,TCR,2024-06-21_13h45.28.713,LearnStrategy,2023.2.3,Win32,60.60606061,3,2,7,,,,,,,,6,09,,,,,,,,,,,6,6.837,1,,,,,,-0.141666624,-0.398148148,1,0,0,6.8368,Pegmatite_rect,6,0,6,0,1,
66548532974360d0c90b9dd5,TCR,2024-06-21_13h45.28.713,LearnStrategy,2023.2.3,Win32,60.60606061,3,2,8,,,,,,,,5,08,,,,,,,,,,,5,1.525,1,,,,,,-0.341666645,-0.400000042,1,0,0,1.525,Obsidian_rect,7,0,7,0,1,
66548532974360d0c90b9dd5,TCR,2024-06-21_13h45.28.713,LearnStrategy,2023.2.3,Win32,60.60606061,3,2,9,,,,,,,,8,13,,,,,,,,,,,8,1.844,1,,,,,,0.385185242,-0.39907406,1,0,0,1.8439,Pumice_rect,8,0,8,0,1,
66548532974360d0c90b9dd5,TCR,2024-06-21_13h45.28.713,LearnStrategy,2023.2.3,Win32,60.60606061,3,2,10,,,,,,,,3,12,,,,,,,,,,,3,5.146,1,,,,,,0.127777806,-0.255555541,1,0,0,5.1458,Diorite_rect,9,0,9,0,1,
66548532974360d0c90b9dd5,TCR,2024-06-21_13h45.28.713,LearnStrategy,2023.2.3,Win32,60.60606061,3,2,11,,,,,,,,2,14,,,,,,,,,,,2,4.987,1,,,,,,-0.14907406,-0.271296325,1,0,0,4.9873,Basalt_rect,10,0,10,0,1,
66548532974360d0c90b9dd5,TCR,2024-06-21_13h45.28.713,LearnStrategy,2023.2.3,Win32,60.60606061,3,2,12,,,,,,,,1,10,,,,,,,,,,,4,5.104,0,,,,,,0.347222222,-0.234259288,1,0,0,5.1043,Gabbro_rect,11,0,11,0,1,
66548532974360d0c90b9dd5,TCR,2024-06-21_13h45.28.713,LearnStrategy,2023.2.3,Win32,60.60606061,3,2,13,,,,,,,,8,09,,,,,,,,,,,8,1.537,1,,,,,,0.366666723,-0.402777778,1,0,0,1.5372,Pumice_rect,12,0,12,0,1,
66548532974360d0c90b9dd5,TCR,2024-06-21_13h45.28.713,LearnStrategy,2023.2.3,Win32,60.60606061,3,2,14,,,,,,,,4,05,,,,,,,,,,,4,3.687,1,,,,,,0.389814871,-0.246296282,1,0,0,3.6865,Gabbro_rect,13,0,13,0,1,
66548532974360d0c90b9dd5,TCR,2024-06-21_13h45.28.713,LearnStrategy,2023.2.3,Win32,60.60606061,3,2,15,,,,,,,,2,05,,,,,,,,,,,2,1.916,1,,,,,,-0.097222222,-0.25,1,0,0,1.916,Basalt_rect,14,0,14,0,1,
66548532974360d0c90b9dd5,TCR,2024-06-21_13h45.28.713,LearnStrategy,2023.2.3,Win32,60.60606061,3,2,16,,,,,,,,3,06,,,,,,,,,,,3,6.372,1,,,,,,0.143518519,-0.250925912,1,0,0,6.3721,Diorite_rect,15,0,15,0,1,
66548532974360d0c90b9dd5,TCR,2024-06-21_13h45.28.713,LearnStrategy,2023.2.3,Win32,60.60606061,4,1,1,0.026851866,-0.003703718,1,0,0,1.3793,rock_grid_rect_2,6,11,-1,-1,1.379,-0.098148134,-0.416666667,1,0,0,4.9773,Pegmatite_rect,6,4.977,1,0,0,0,0,1,,,,,,,,,,,,,
66548532974360d0c90b9dd5,TCR,2024-06-21_13h45.28.713,LearnStrategy,2023.2.3,Win32,60.60606061,4,1,2,0.038888931,-0.003703718,1,0,0,2.2449,rock_grid_rect_2,7,16,-1,-1,2.245,-0.151851866,-0.382407436,1,0,0,12.0243,Pegmatite_rect,6,12.024,0,1,0,1,0,1,,,,,,,,,,,,,
66548532974360d0c90b9dd5,TCR,2024-06-21_13h45.28.713,LearnStrategy,2023.2.3,Win32,60.60606061,4,1,3,0.079629616,0.00462963,1,0,0,1.6005,rock_grid_rect_2,7,06,-1,-1,1.601,0.067592621,-0.259259259,1,0,0,2.8063,Diorite_rect,3,2.806,0,2,0,2,0,1,,,,,,,,,,,,,
66548532974360d0c90b9dd5,TCR,2024-06-21_13h45.28.713,LearnStrategy,2023.2.3,Win32,60.60606061,4,1,4,0.012037065,-0.024074095,1,0,0,1.2837,rock_grid_rect_2,4,12,-1,-1,1.284,-0.077777792,-0.252777806,1,0,0,1.7039,Basalt_rect,2,1.704,0,3,0,3,0,1,,,,,,,,,,,,,
66548532974360d0c90b9dd5,TCR,2024-06-21_13h45.28.713,LearnStrategy,2023.2.3,Win32,60.60606061,4,1,5,0.042592578,-0.013888889,1,0,0,1.3462,rock_grid_rect_2,2,02,-1,-1,1.346,-0.164814772,-0.261111153,1,0,0,1.6437,Basalt_rect,2,1.644,1,4,0,4,0,1,,,,,,,,,,,,,
66548532974360d0c90b9dd5,TCR,2024-06-21_13h45.28.713,LearnStrategy,2023.2.3,Win32,60.60606061,4,1,6,-0.011111083,-0.017592607,1,0,0,1.7625,rock_grid_rect_2,7,05,-1,-1,1.762,0.158333319,-0.261111153,1,0,0,1.7335,Diorite_rect,3,1.734,0,5,0,5,0,1,,,,,,,,,,,,,
66548532974360d0c90b9dd5,TCR,2024-06-21_13h45.28.713,LearnStrategy,2023.2.3,Win32,60.60606061,4,1,7,0.029629672,-0.015740748,1,0,0,1.5526,rock_grid_rect_2,2,04,-1,-1,1.553,0.319444444,-0.267592607,1,0,0,2.262,Gabbro_rect,4,2.262,0,6,0,6,0,1,,,,,,,,,,,,,
66548532974360d0c90b9dd5,TCR,2024-06-21_13h45.28.713,LearnStrategy,2023.2.3,Win32,60.60606061,4,1,8,0.02407406,-0.00462963,1,0,0,1.4452,rock_grid_rect_2,1,04,-1,-1,1.445,0.049074102,-0.413888931,1,0,0,2.1936,Peridotite_rect,7,2.194,0,7,0,7,0,1,,,,,,,,,,,,,
66548532974360d0c90b9dd5,TCR,2024-06-21_13h45.28.713,LearnStrategy,2023.2.3,Win32,60.60606061,4,1,9,0.051851838,-0.003703718,1,0,0,1.3294,rock_grid_rect_2,7,14,-1,-1,1.329,-0.077777792,-0.396296325,1,0,0,2.478,Pegmatite_rect,6,2.478,0,8,0,8,0,1,,,,,,,,,,,,,
66548532974360d0c90b9dd5,TCR,2024-06-21_13h45.28.713,LearnStrategy,2023.2.3,Win32,60.60606061,4,1,10,0.071296339,0.008333312,1,0,0,1.479,rock_grid_rect_2,6,03,-1,-1,1.479,-0.151851866,-0.405555584,1,0,0,3.8452,Pegmatite_rect,6,3.845,1,9,0,9,0,1,,,,,,,,,,,,,
66548532974360d0c90b9dd5,TCR,2024-06-21_13h45.28.713,LearnStrategy,2023.2.3,Win32,60.60606061,4,1,11,0.062962991,0.003703683,1,0,0,1.2829,rock_grid_rect_2,1,02,-1,-1,1.283,0.406481566,-0.235185199,1,0,0,3.0097,Gabbro_rect,4,3.01,0,10,0,10,0,1,,,,,,,,,,,,,
66548532974360d0c90b9dd5,TCR,2024-06-21_13h45.28.713,LearnStrategy,2023.2.3,Win32,60.60606061,4,1,12,-0.079629616,-0.020370377,1,0,0,1.1455,rock_grid_rect_2,3,02,-1,-1,1.145,0.055555556,-0.386111153,1,0,0,3.251,Peridotite_rect,7,3.251,0,11,0,11,0,1,,,,,,,,,,,,,
66548532974360d0c90b9dd5,TCR,2024-06-21_13h45.28.713,LearnStrategy,2023.2.3,Win32,60.60606061,4,1,13,0.02407406,-0.001851859,1,0,0,1.3703,rock_grid_rect_2,4,09,-1,-1,1.37,-0.115740741,-0.25,1,0,0,2.8801,Basalt_rect,2,2.88,0,12,0,12,0,1,,,,,,,,,,,,,
66548532974360d0c90b9dd5,TCR,2024-06-21_13h45.28.713,LearnStrategy,2023.2.3,Win32,60.60606061,4,1,14,0.041666667,-0.021296289,1,0,0,1.3537,rock_grid_rect_2,1,09,-1,-1,1.354,-0.12037037,-0.235185199,1,0,0,2.2077,Basalt_rect,2,2.208,0,13,0,13,0,1,,,,,,,,,,,,,
66548532974360d0c90b9dd5,TCR,2024-06-21_13h45.28.713,LearnStrategy,2023.2.3,Win32,60.60606061,4,1,15,0.017592607,-0.021296289,1,0,0,1.1133,rock_grid_rect_2,4,11,-1,-1,1.113,0.132407436,-0.262037065,1,0,0,1.2447,Diorite_rect,3,1.245,0,14,0,14,0,1,,,,,,,,,,,,,
66548532974360d0c90b9dd5,TCR,2024-06-21_13h45.28.713,LearnStrategy,2023.2.3,Win32,60.60606061,4,1,16,0.051851838,-0.010185206,1,0,0,2.513,rock_grid_rect_2,6,07,-1,-1,2.513,-0.140740712,-0.410185213,1,0,0,2.9573,Pegmatite_rect,6,2.957,1,15,0,15,0,1,,,,,,,,,,,,,
66548532974360d0c90b9dd5,TCR,2024-06-21_13h45.28.713,LearnStrategy,2023.2.3,Win32,60.60606061,4,2,1,,,,,,,,8,09,,,,,,,,,,,8,2.827,1,,,,,,0.413888861,-0.418518561,1,0,0,2.8275,Pumice_rect,0,0,0,0,1,
66548532974360d0c90b9dd5,TCR,2024-06-21_13h45.28.713,LearnStrategy,2023.2.3,Win32,60.60606061,4,2,2,,,,,,,,7,15,,,,,,,,,,,7,20.918,1,,,,,,0.108333376,-0.391666695,1,0,0,20.9183,Peridotite_rect,1,0,1,0,1,
66548532974360d0c90b9dd5,TCR,2024-06-21_13h45.28.713,LearnStrategy,2023.2.3,Win32,60.60606061,4,2,3,,,,,,,,5,08,,,,,,,,,,,5,1.588,1,,,,,,-0.416666667,-0.412962949,1,0,0,1.5883,Obsidian_rect,2,0,2,0,1,
66548532974360d0c90b9dd5,TCR,2024-06-21_13h45.28.713,LearnStrategy,2023.2.3,Win32,60.60606061,4,2,4,,,,,,,,3,13,,,,,,,,,,,3,4.982,1,,,,,,0.163888931,-0.229629658,1,0,0,4.9817,Diorite_rect,3,0,3,0,1,
66548532974360d0c90b9dd5,TCR,2024-06-21_13h45.28.713,LearnStrategy,2023.2.3,Win32,60.60606061,4,2,5,,,,,,,,4,01,,,,,,,,,,,7,4.12,0,,,,,,0.121296282,-0.389814801,1,0,0,4.1196,Peridotite_rect,4,0,4,0,1,
66548532974360d0c90b9dd5,TCR,2024-06-21_13h45.28.713,LearnStrategy,2023.2.3,Win32,60.60606061,4,2,6,,,,,,,,7,10,,,,,,,,,,,7,1.258,1,,,,,,0.121296282,-0.389814801,1,0,0,1.2578,Peridotite_rect,5,0,5,0,1,
66548532974360d0c90b9dd5,TCR,2024-06-21_13h45.28.713,LearnStrategy,2023.2.3,Win32,60.60606061,4,2,7,,,,,,,,1,03,,,,,,,,,,,1,7.337,1,,,,,,-0.40648146,-0.257407436,1,0,0,7.3373,Andesite_rect,6,0,6,0,1,
66548532974360d0c90b9dd5,TCR,2024-06-21_13h45.28.713,LearnStrategy,2023.2.3,Win32,60.60606061,4,2,8,,,,,,,,6,09,,,,,,,,,,,6,6.537,1,,,,,,-0.175000014,-0.393518519,1,0,0,6.5368,Pegmatite_rect,7,0,7,0,1,
66548532974360d0c90b9dd5,TCR,2024-06-21_13h45.28.713,LearnStrategy,2023.2.3,Win32,60.60606061,4,2,9,,,,,,,,6,08,,,,,,,,,,,6,3.904,1,,,,,,-0.149999972,-0.410185213,1,0,0,3.9038,Pegmatite_rect,8,0,8,0,1,
66548532974360d0c90b9dd5,TCR,2024-06-21_13h45.28.713,LearnStrategy,2023.2.3,Win32,60.60606061,4,2,10,,,,,,,,3,08,,,,,,,,,,,3,3.787,1,,,,,,0.170370384,-0.246296282,1,0,0,3.7866,Diorite_rect,9,0,9,0,1,
66548532974360d0c90b9dd5,TCR,2024-06-21_13h45.28.713,LearnStrategy,2023.2.3,Win32,60.60606061,4,2,11,,,,,,,,5,09,,,,,,,,,,,5,1.565,1,,,,,,-0.400925919,-0.390740783,1,0,0,1.5649,Obsidian_rect,10,0,10,0,1,
66548532974360d0c90b9dd5,TCR,2024-06-21_13h45.28.713,LearnStrategy,2023.2.3,Win32,60.60606061,4,2,12,,,,,,,,8,13,,,,,,,,,,,8,2.453,1,,,,,,0.40833339,-0.400925954,1,0,0,2.453,Pumice_rect,11,0,11,0,1,
66548532974360d0c90b9dd5,TCR,2024-06-21_13h45.28.713,LearnStrategy,2023.2.3,Win32,60.60606061,4,2,13,,,,,,,,1,06,,,,,,,,,,,1,3.688,1,,,,,,-0.341666645,-0.236111111,1,0,0,3.6876,Andesite_rect,12,0,12,0,1,
66548532974360d0c90b9dd5,TCR,2024-06-21_13h45.28.713,LearnStrategy,2023.2.3,Win32,60.60606061,4,2,14,,,,,,,,2,14,,,,,,,,,,,2,9.607,1,,,,,,-0.143518519,-0.257407436,1,0,0,9.6073,Basalt_rect,13,0,13,0,1,
66548532974360d0c90b9dd5,TCR,2024-06-21_13h45.28.713,LearnStrategy,2023.2.3,Win32,60.60606061,4,2,15,,,,,,,,2,01,,,,,,,,,,,2,6.003,1,,,,,,-0.119444459,-0.257407436,1,0,0,6.0032,Basalt_rect,14,0,14,0,1,
66548532974360d0c90b9dd5,TCR,2024-06-21_13h45.28.713,LearnStrategy,2023.2.3,Win32,60.60606061,4,2,16,,,,,,,,4,16,,,,,,,,,,,2,2.756,0,,,,,,-0.140740712,-0.236111111,1,0,0,2.7558,Basalt_rect,15,0,15,0,1,
66548532974360d0c90b9dd5,TCR,2024-06-21_13h45.28.713,LearnStrategy,2023.2.3,Win32,60.60606061,5,1,1,0.051851838,-0.000925947,1,0,0,2.307,rock_grid_rect_2,4,09,-1,-1,2.307,0.382407436,-0.265740783,1,0,0,7.2117,Gabbro_rect,4,7.212,1,0,0,0,0,1,,,,,,,,,,,,,
66548532974360d0c90b9dd5,TCR,2024-06-21_13h45.28.713,LearnStrategy,2023.2.3,Win32,60.60606061,5,1,2,0.017592607,-0.010185206,1,0,0,1.9521,rock_grid_rect_2,1,14,-1,-1,1.952,0.12037037,-0.257407436,1,0,0,2.5249,Diorite_rect,3,2.525,0,1,0,1,0,1,,,,,,,,,,,,,
66548532974360d0c90b9dd5,TCR,2024-06-21_13h45.28.713,LearnStrategy,2023.2.3,Win32,60.60606061,5,1,3,0.029629672,-0.012962977,1,0,0,1.2886,rock_grid_rect_2,3,02,-1,-1,1.289,0.148148148,-0.249074088,1,0,0,2.0118,Diorite_rect,3,2.012,1,2,0,2,0,1,,,,,,,,,,,,,
66548532974360d0c90b9dd5,TCR,2024-06-21_13h45.28.713,LearnStrategy,2023.2.3,Win32,60.60606061,5,1,4,-0.065740727,0.003703683,1,0,0,1.1846,rock_grid_rect_2,5,10,-1,-1,1.185,-0.171296296,-0.401851866,1,0,0,2.4421,Pegmatite_rect,6,2.442,0,3,0,3,0,1,,,,,,,,,,,,,
66548532974360d0c90b9dd5,TCR,2024-06-21_13h45.28.713,LearnStrategy,2023.2.3,Win32,60.60606061,5,1,5,-0.049074032,0.006481489,1,0,0,1.3119,rock_grid_rect_2,7,04,-1,-1,1.312,0.089814857,-0.397222236,1,0,0,1.7887,Peridotite_rect,7,1.789,1,4,0,4,0,1,,,,,,,,,,,,,
66548532974360d0c90b9dd5,TCR,2024-06-21_13h45.28.713,LearnStrategy,2023.2.3,Win32,60.60606061,5,1,6,-0.066666638,-0.002777771,1,0,0,1.0462,rock_grid_rect_2,2,16,-1,-1,1.046,-0.17777775,-0.250925912,1,0,0,2.7761,Basalt_rect,2,2.776,1,5,0,5,0,1,,,,,,,,,,,,,
66548532974360d0c90b9dd5,TCR,2024-06-21_13h45.28.713,LearnStrategy,2023.2.3,Win32,60.60606061,5,1,7,-0.035185143,-0.01203703,1,0,0,1.4005,rock_grid_rect_2,4,13,-1,-1,1.401,0.087037051,-0.262962977,1,0,0,2.2604,Diorite_rect,3,2.26,0,6,0,6,0,1,,,,,,,,,,,,,
66548532974360d0c90b9dd5,TCR,2024-06-21_13h45.28.713,LearnStrategy,2023.2.3,Win32,60.60606061,5,1,8,-0.007407365,-0.003703718,1,0,0,1.2956,rock_grid_rect_2,6,07,-1,-1,1.296,0.068518533,-0.393518519,1,0,0,1.5879,Peridotite_rect,7,1.588,0,7,0,7,0,1,,,,,,,,,,,,,
66548532974360d0c90b9dd5,TCR,2024-06-21_13h45.28.713,LearnStrategy,2023.2.3,Win32,60.60606061,5,1,9,-0.049074032,-0.002777771,1,0,0,1.2142,rock_grid_rect_2,6,03,-1,-1,1.214,-0.151851866,-0.408333319,1,0,0,1.8237,Pegmatite_rect,6,1.824,1,8,0,8,0,1,,,,,,,,,,,,,
66548532974360d0c90b9dd5,TCR,2024-06-21_13h45.28.713,LearnStrategy,2023.2.3,Win32,60.60606061,5,1,10,0.008333347,-0.005555577,1,0,0,1.3032,rock_grid_rect_2,1,09,-1,-1,1.303,-0.412962949,-0.266666695,1,0,0,4.1061,Andesite_rect,1,4.106,1,9,0,9,0,1,,,,,,,,,,,,,
66548532974360d0c90b9dd5,TCR,2024-06-21_13h45.28.713,LearnStrategy,2023.2.3,Win32,60.60606061,5,1,11,0.00462963,-0.003703718,1,0,0,1.136,rock_grid_rect_2,7,05,-1,-1,1.136,0.102777764,-0.251851894,1,0,0,3.6057,Diorite_rect,3,3.606,0,10,0,10,0,1,,,,,,,,,,,,,
66548532974360d0c90b9dd5,TCR,2024-06-21_13h45.28.713,LearnStrategy,2023.2.3,Win32,60.60606061,5,1,12,0.025000042,0.01944443,1,0,0,1.4461,rock_grid_rect_2,8,10,-1,-1,1.446,0.375,-0.381481524,1,0,0,2.2233,Pumice_rect,8,2.223,1,11,0,11,0,1,,,,,,,,,,,,,
66548532974360d0c90b9dd5,TCR,2024-06-21_13h45.28.713,LearnStrategy,2023.2.3,Win32,60.60606061,5,1,13,0.050000014,-0.008333347,1,0,0,1.2967,rock_grid_rect_2,4,11,-1,-1,1.297,0.37962963,-0.262962977,1,0,0,1.4232,Gabbro_rect,4,1.423,1,12,0,12,0,1,,,,,,,,,,,,,
66548532974360d0c90b9dd5,TCR,2024-06-21_13h45.28.713,LearnStrategy,2023.2.3,Win32,60.60606061,5,1,14,-0.010185171,0,1,0,0,2.9301,rock_grid_rect_2,4,10,-1,-1,2.93,-0.134259259,-0.262962977,1,0,0,2.0228,Basalt_rect,2,2.023,0,13,0,13,0,1,,,,,,,,,,,,,
66548532974360d0c90b9dd5,TCR,2024-06-21_13h45.28.713,LearnStrategy,2023.2.3,Win32,60.60606061,5,1,15,0.007407436,0.010185171,1,0,0,2.0631,rock_grid_rect_2,2,10,-1,-1,2.063,-0.132407365,-0.261111153,1,0,0,1.9053,Basalt_rect,2,1.905,1,14,0,14,0,1,,,,,,,,,,,,,
66548532974360d0c90b9dd5,TCR,2024-06-21_13h45.28.713,LearnStrategy,2023.2.3,Win32,60.60606061,5,1,16,0.05740745,-0.006481489,1,0,0,1.3132,rock_grid_rect_2,7,05,-1,-1,1.313,-0.079629616,-0.387962977,1,0,0,2.858,Pegmatite_rect,6,2.858,0,15,0,15,0,1,,,,,,,,,,,,,
66548532974360d0c90b9dd5,TCR,2024-06-21_13h45.28.713,LearnStrategy,2023.2.3,Win32,60.60606061,5,2,1,,,,,,,,1,01,,,,,,,,,,,4,11.543,0,,,,,,0.387037065,-0.232407393,1,0,0,11.5428,Gabbro_rect,0,0,0,0,1,
66548532974360d0c90b9dd5,TCR,2024-06-21_13h45.28.713,LearnStrategy,2023.2.3,Win32,60.60606061,5,2,2,,,,,,,,8,06,,,,,,,,,,,8,1.223,1,,,,,,0.375925982,-0.401851866,1,0,0,1.2231,Pumice_rect,1,0,1,0,1,
66548532974360d0c90b9dd5,TCR,2024-06-21_13h45.28.713,LearnStrategy,2023.2.3,Win32,60.60606061,5,2,3,,,,,,,,7,02,,,,,,,,,,,7,7.153,1,,,,,,0.108333376,-0.412037037,1,0,0,7.1525,Peridotite_rect,2,0,2,0,1,
66548532974360d0c90b9dd5,TCR,2024-06-21_13h45.28.713,LearnStrategy,2023.2.3,Win32,60.60606061,5,2,4,,,,,,,,7,07,,,,,,,,,,,7,1.27,1,,,,,,0.108333376,-0.412037037,1,0,0,1.2705,Peridotite_rect,3,0,3,0,1,
66548532974360d0c90b9dd5,TCR,2024-06-21_13h45.28.713,LearnStrategy,2023.2.3,Win32,60.60606061,5,2,5,,,,,,,,4,03,,,,,,,,,,,4,3.871,1,,,,,,0.412037037,-0.256481524,1,0,0,3.8709,Gabbro_rect,4,0,4,0,1,
66548532974360d0c90b9dd5,TCR,2024-06-21_13h45.28.713,LearnStrategy,2023.2.3,Win32,60.60606061,5,2,6,,,,,,,,5,04,,,,,,,,,,,5,1.454,1,,,,,,-0.431481467,-0.395370413,1,0,0,1.4539,Obsidian_rect,5,0,5,0,1,
66548532974360d0c90b9dd5,TCR,2024-06-21_13h45.28.713,LearnStrategy,2023.2.3,Win32,60.60606061,5,2,7,,,,,,,,3,16,,,,,,,,,,,1,7.52,0,,,,,,-0.439814815,-0.25462963,1,0,0,7.5204,Andesite_rect,6,0,6,0,1,
66548532974360d0c90b9dd5,TCR,2024-06-21_13h45.28.713,LearnStrategy,2023.2.3,Win32,60.60606061,5,2,8,,,,,,,,4,14,,,,,,,,,,,4,3.771,1,,,,,,0.404629601,-0.257407436,1,0,0,3.7706,Gabbro_rect,7,0,7,0,1,
66548532974360d0c90b9dd5,TCR,2024-06-21_13h45.28.713,LearnStrategy,2023.2.3,Win32,60.60606061,5,2,9,,,,,,,,8,14,,,,,,,,,,,8,1.405,1,,,,,,0.346296381,-0.421296296,1,0,0,1.4046,Pumice_rect,8,0,8,0,1,
66548532974360d0c90b9dd5,TCR,2024-06-21_13h45.28.713,LearnStrategy,2023.2.3,Win32,60.60606061,5,2,10,,,,,,,,2,05,,,,,,,,,,,2,2.621,1,,,,,,-0.12962963,-0.239814829,1,0,0,2.6207,Basalt_rect,9,0,9,0,1,
66548532974360d0c90b9dd5,TCR,2024-06-21_13h45.28.713,LearnStrategy,2023.2.3,Win32,60.60606061,5,2,11,,,,,,,,2,12,,,,,,,,,,,2,12.472,1,,,,,,-0.148148148,-0.251851894,1,0,0,12.4723,Basalt_rect,10,0,10,0,1,
66548532974360d0c90b9dd5,TCR,2024-06-21_13h45.28.713,LearnStrategy,2023.2.3,Win32,60.60606061,5,2,12,,,,,,,,5,06,,,,,,,,,,,5,3.671,1,,,,,,-0.354629623,-0.39907406,1,0,0,3.6705,Obsidian_rect,11,0,11,0,1,
66548532974360d0c90b9dd5,TCR,2024-06-21_13h45.28.713,LearnStrategy,2023.2.3,Win32,60.60606061,5,2,13,,,,,,,,6,05,,,,,,,,,,,3,4.188,0,,,,,,0.10092594,-0.247222265,1,0,0,4.1884,Diorite_rect,12,0,12,0,1,
66548532974360d0c90b9dd5,TCR,2024-06-21_13h45.28.713,LearnStrategy,2023.2.3,Win32,60.60606061,5,2,14,,,,,,,,1,10,,,,,,,,,,,1,20.171,1,,,,,,-0.400925919,-0.259259259,1,0,0,20.1711,Andesite_rect,13,0,13,0,1,
66548532974360d0c90b9dd5,TCR,2024-06-21_13h45.28.713,LearnStrategy,2023.2.3,Win32,60.60606061,5,2,15,,,,,,,,6,15,,,,,,,,,,,6,4.803,1,,,,,,-0.142592607,-0.387962977,1,0,0,4.8031,Pegmatite_rect,14,0,14,0,1,
66548532974360d0c90b9dd5,TCR,2024-06-21_13h45.28.713,LearnStrategy,2023.2.3,Win32,60.60606061,5,2,16,,,,,,,,3,10,,,,,,,,,,,7,4.621,0,,,,,,0.162962949,-0.401851866,1,0,0,4.6209,Peridotite_rect,15,0,15,0,1,
66548532974360d0c90b9dd5,TCR,2024-06-21_13h45.28.713,LearnStrategy,2023.2.3,Win32,60.60606061,6,1,1,0.034259302,-0.00462963,1,0,0,1.6152,rock_grid_rect_2,5,12,-1,-1,1.615,-0.412037037,-0.416666667,1,0,0,1.3439,Obsidian_rect,5,1.344,1,0,0,0,0,1,,,,,,,,,,,,,
66548532974360d0c90b9dd5,TCR,2024-06-21_13h45.28.713,LearnStrategy,2023.2.3,Win32,60.60606061,6,1,2,0.056481467,-0.01666666,1,0,0,1.229,rock_grid_rect_2,4,11,-1,-1,1.229,0.334259316,-0.25,1,0,0,2.4731,Gabbro_rect,4,2.473,1,1,0,1,0,1,,,,,,,,,,,,,
66548532974360d0c90b9dd5,TCR,2024-06-21_13h45.28.713,LearnStrategy,2023.2.3,Win32,60.60606061,6,1,3,-0.011111083,0.014814801,1,0,0,1.0987,rock_grid_rect_2,3,14,-1,-1,1.099,0.077777792,-0.412962949,1,0,0,1.9256,Peridotite_rect,7,1.926,0,2,0,2,0,1,,,,,,,,,,,,,
66548532974360d0c90b9dd5,TCR,2024-06-21_13h45.28.713,LearnStrategy,2023.2.3,Win32,60.60606061,6,1,4,0.035185213,-0.006481489,1,0,0,1.3634,rock_grid_rect_2,6,10,-1,-1,1.363,-0.131481453,-0.413888931,1,0,0,2.3243,Pegmatite_rect,6,2.324,1,3,0,3,0,1,,,,,,,,,,,,,
66548532974360d0c90b9dd5,TCR,2024-06-21_13h45.28.713,LearnStrategy,2023.2.3,Win32,60.60606061,6,1,5,0.068518533,0.0074074,1,0,0,1.4641,rock_grid_rect_2,3,07,-1,-1,1.464,0.104629658,-0.390740783,1,0,0,1.6095,Peridotite_rect,7,1.609,0,4,0,4,0,1,,,,,,,,,,,,,
66548532974360d0c90b9dd5,TCR,2024-06-21_13h45.28.713,LearnStrategy,2023.2.3,Win32,60.60606061,6,1,6,-0.010185171,-0.003703718,1,0,0,1.0134,rock_grid_rect_2,6,10,-1,-1,1.013,-0.156481496,-0.380555541,1,0,0,1.4086,Pegmatite_rect,6,1.409,1,5,0,5,0,1,,,,,,,,,,,,,
66548532974360d0c90b9dd5,TCR,2024-06-21_13h45.28.713,LearnStrategy,2023.2.3,Win32,60.60606061,6,1,7,0.012037065,0,1,0,0,1.1634,rock_grid_rect_2,1,11,-1,-1,1.163,-0.137036995,-0.258333347,1,0,0,2.559,Basalt_rect,2,2.559,0,6,0,6,0,1,,,,,,,,,,,,,
66548532974360d0c90b9dd5,TCR,2024-06-21_13h45.28.713,LearnStrategy,2023.2.3,Win32,60.60606061,6,1,8,0.00462963,-0.006481489,1,0,0,1.0621,rock_grid_rect_2,4,11,-1,-1,1.062,0.369444529,-0.240740741,1,0,0,1.3419,Gabbro_rect,4,1.342,1,7,0,7,0,1,,,,,,,,,,,,,
66548532974360d0c90b9dd5,TCR,2024-06-21_13h45.28.713,LearnStrategy,2023.2.3,Win32,60.60606061,6,1,9,0.018518519,0.009259259,1,0,0,1.0629,rock_grid_rect_2,1,02,-1,-1,1.063,0.371296353,-0.231481481,1,0,0,2.6241,Gabbro_rect,4,2.624,0,8,0,8,0,1,,,,,,,,,,,,,
66548532974360d0c90b9dd5,TCR,2024-06-21_13h45.28.713,LearnStrategy,2023.2.3,Win32,60.60606061,6,1,10,-0.010185171,0.001851859,1,0,0,1.1621,rock_grid_rect_2,7,14,-1,-1,1.162,0.09629631,-0.412962949,1,0,0,4.1461,Peridotite_rect,7,4.146,1,9,0,9,0,1,,,,,,,,,,,,,
66548532974360d0c90b9dd5,TCR,2024-06-21_13h45.28.713,LearnStrategy,2023.2.3,Win32,60.60606061,6,1,11,0.027777778,-0.01203703,1,0,0,1.2459,rock_grid_rect_2,6,07,-1,-1,1.246,-0.078703704,-0.402777778,1,0,0,2.2438,Pegmatite_rect,6,2.244,1,10,0,10,0,1,,,,,,,,,,,,,
66548532974360d0c90b9dd5,TCR,2024-06-21_13h45.28.713,LearnStrategy,2023.2.3,Win32,60.60606061,6,1,12,0.042592578,0.002777771,1,0,0,1.2473,rock_grid_rect_2,2,11,-1,-1,1.247,-0.134259259,-0.258333347,1,0,0,3.8095,Basalt_rect,2,3.809,1,11,0,11,0,1,,,,,,,,,,,,,
66548532974360d0c90b9dd5,TCR,2024-06-21_13h45.28.713,LearnStrategy,2023.2.3,Win32,60.60606061,6,1,13,-0.012962977,0.021296289,1,0,0,1.2451,rock_grid_rect_2,7,14,-1,-1,1.245,0.066666709,-0.392592607,1,0,0,1.5772,Peridotite_rect,7,1.577,1,12,0,12,0,1,,,,,,,,,,,,,
66548532974360d0c90b9dd5,TCR,2024-06-21_13h45.28.713,LearnStrategy,2023.2.3,Win32,60.60606061,6,1,14,0.056481467,0.003703683,1,0,0,1.3466,rock_grid_rect_2,4,13,-1,-1,1.347,-0.114814829,-0.251851894,1,0,0,1.6243,Basalt_rect,2,1.624,0,13,0,13,0,1,,,,,,,,,,,,,
66548532974360d0c90b9dd5,TCR,2024-06-21_13h45.28.713,LearnStrategy,2023.2.3,Win32,60.60606061,6,1,15,0.088888875,-0.005555577,1,0,0,1.3967,rock_grid_rect_2,3,11,-1,-1,1.397,0.086111139,-0.243518547,1,0,0,1.8723,Diorite_rect,3,1.872,1,14,0,14,0,1,,,,,,,,,,,,,
66548532974360d0c90b9dd5,TCR,2024-06-21_13h45.28.713,LearnStrategy,2023.2.3,Win32,60.60606061,6,1,16,-0.017592607,-0.020370377,1,0,0,1.8797,rock_grid_rect_2,1,05,-1,-1,1.88,0.117592635,-0.253703718,1,0,0,2.8284,Diorite_rect,3,2.828,0,15,0,15,0,1,,,,,,,,,,,,,
66548532974360d0c90b9dd5,TCR,2024-06-21_13h45.28.713,LearnStrategy,2023.2.3,Win32,60.60606061,6,2,1,,,,,,,,8,02,,,,,,,,,,,8,2.02,1,,,,,,0.377777806,-0.389814801,1,0,0,2.02,Pumice_rect,0,0,0,0,1,
66548532974360d0c90b9dd5,TCR,2024-06-21_13h45.28.713,LearnStrategy,2023.2.3,Win32,60.60606061,6,2,2,,,,,,,,7,12,,,,,,,,,,,3,2.755,0,,,,,,0.114814829,-0.239814829,1,0,0,2.7547,Diorite_rect,1,0,1,0,1,
66548532974360d0c90b9dd5,TCR,2024-06-21_13h45.28.713,LearnStrategy,2023.2.3,Win32,60.60606061,6,2,3,,,,,,,,4,08,,,,,,,,,,,4,1.675,1,,,,,,0.32222225,-0.263888889,1,0,0,1.675,Gabbro_rect,2,0,2,0,1,
66548532974360d0c90b9dd5,TCR,2024-06-21_13h45.28.713,LearnStrategy,2023.2.3,Win32,60.60606061,6,2,4,,,,,,,,1,07,,,,,,,,,,,3,5.02,0,,,,,,0.148148148,-0.244444459,1,0,0,5.0201,Diorite_rect,3,0,3,0,1,
66548532974360d0c90b9dd5,TCR,2024-06-21_13h45.28.713,LearnStrategy,2023.2.3,Win32,60.60606061,6,2,5,,,,,,,,8,03,,,,,,,,,,,8,1.888,1,,,,,,0.353703675,-0.391666695,1,0,0,1.8875,Pumice_rect,4,0,4,0,1,
66548532974360d0c90b9dd5,TCR,2024-06-21_13h45.28.713,LearnStrategy,2023.2.3,Win32,60.60606061,6,2,6,,,,,,,,1,16,,,,,,,,,,,1,3.654,1,,,,,,-0.420370349,-0.248148176,1,0,0,3.6537,Andesite_rect,5,0,5,0,1,
66548532974360d0c90b9dd5,TCR,2024-06-21_13h45.28.713,LearnStrategy,2023.2.3,Win32,60.60606061,6,2,7,,,,,,,,2,08,,,,,,,,,,,2,4.021,1,,,,,,-0.131481453,-0.262037065,1,0,0,4.0207,Basalt_rect,6,0,6,0,1,
66548532974360d0c90b9dd5,TCR,2024-06-21_13h45.28.713,LearnStrategy,2023.2.3,Win32,60.60606061,6,2,8,,,,,,,,5,11,,,,,,,,,,,5,1.418,1,,,,,,-0.354629623,-0.414814843,1,0,0,1.4177,Obsidian_rect,7,0,7,0,1,
66548532974360d0c90b9dd5,TCR,2024-06-21_13h45.28.713,LearnStrategy,2023.2.3,Win32,60.60606061,6,2,9,,,,,,,,7,08,,,,,,,,,,,1,6.857,0,,,,,,-0.378703683,-0.247222265,1,0,0,6.8573,Andesite_rect,8,0,8,0,1,
66548532974360d0c90b9dd5,TCR,2024-06-21_13h45.28.713,LearnStrategy,2023.2.3,Win32,60.60606061,6,2,10,,,,,,,,6,06,,,,,,,,,,,7,6.154,0,,,,,,0.118518547,-0.398148148,1,0,0,6.1537,Peridotite_rect,9,0,9,0,1,
66548532974360d0c90b9dd5,TCR,2024-06-21_13h45.28.713,LearnStrategy,2023.2.3,Win32,60.60606061,6,2,11,,,,,,,,6,12,,,,,,,,,,,3,2.323,0,,,,,,0.143518519,-0.263888889,1,0,0,2.3234,Diorite_rect,10,0,10,0,1,
66548532974360d0c90b9dd5,TCR,2024-06-21_13h45.28.713,LearnStrategy,2023.2.3,Win32,60.60606061,6,2,12,,,,,,,,3,12,,,,,,,,,,,6,2.022,0,,,,,,-0.178703661,-0.407407407,1,0,0,2.0215,Pegmatite_rect,11,0,11,0,1,
66548532974360d0c90b9dd5,TCR,2024-06-21_13h45.28.713,LearnStrategy,2023.2.3,Win32,60.60606061,6,2,13,,,,,,,,2,09,,,,,,,,,,,4,2.591,0,,,,,,0.437962991,-0.258333347,1,0,0,2.5907,Gabbro_rect,12,0,12,0,1,
66548532974360d0c90b9dd5,TCR,2024-06-21_13h45.28.713,LearnStrategy,2023.2.3,Win32,60.60606061,6,2,14,,,,,,,,3,06,,,,,,,,,,,3,1.338,1,,,,,,0.171296296,-0.241666653,1,0,0,1.3378,Diorite_rect,13,0,13,0,1,
66548532974360d0c90b9dd5,TCR,2024-06-21_13h45.28.713,LearnStrategy,2023.2.3,Win32,60.60606061,6,2,15,,,,,,,,5,02,,,,,,,,,,,5,1.538,1,,,,,,-0.39166666,-0.389814801,1,0,0,1.5382,Obsidian_rect,14,0,14,0,1,
66548532974360d0c90b9dd5,TCR,2024-06-21_13h45.28.713,LearnStrategy,2023.2.3,Win32,60.60606061,6,2,16,,,,,,,,4,05,,,,,,,,,,,2,1.266,0,,,,,,-0.164814772,-0.251851894,1,0,0,1.2663,Basalt_rect,15,0,15,0,1,
66548532974360d0c90b9dd5,TCR,2024-06-21_13h45.28.713,LearnStrategy,2023.2.3,Win32,60.60606061,7,1,1,0.040740755,-0.0074074,1,0,0,7.9622,rock_grid_rect_2,5,10,-1,-1,7.962,-0.462037016,-0.381481524,1,0,0,1.94,Obsidian_rect,5,1.94,1,0,0,0,0,1,,,,,,,,,,,,,
66548532974360d0c90b9dd5,TCR,2024-06-21_13h45.28.713,LearnStrategy,2023.2.3,Win32,60.60606061,7,1,2,0.112037023,0.012962942,1,0,0,1.5628,rock_grid_rect_2,7,14,-1,-1,1.563,-0.364814794,-0.234259288,1,0,0,2.1611,Andesite_rect,1,2.161,0,1,0,1,0,1,,,,,,,,,,,,,
66548532974360d0c90b9dd5,TCR,2024-06-21_13h45.28.713,LearnStrategy,2023.2.3,Win32,60.60606061,7,1,3,0.075925968,0.005555541,1,0,0,1.095,rock_grid_rect_2,6,03,-1,-1,1.095,-0.124074088,-0.412962949,1,0,0,1.8991,Pegmatite_rect,6,1.899,1,2,0,2,0,1,,,,,,,,,,,,,
66548532974360d0c90b9dd5,TCR,2024-06-21_13h45.28.713,LearnStrategy,2023.2.3,Win32,60.60606061,7,1,4,0.060185185,0.006481489,1,0,0,1.2295,rock_grid_rect_2,3,09,-1,-1,1.229,0.148148148,-0.268518519,1,0,0,1.1364,Diorite_rect,3,1.136,1,3,0,3,0,1,,,,,,,,,,,,,
66548532974360d0c90b9dd5,TCR,2024-06-21_13h45.28.713,LearnStrategy,2023.2.3,Win32,60.60606061,7,1,5,0.026851866,0.01666666,1,0,0,1.2696,rock_grid_rect_2,4,11,-1,-1,1.27,-0.154629601,-0.232407393,1,0,0,1.5655,Basalt_rect,2,1.566,0,4,0,4,0,1,,,,,,,,,,,,,
66548532974360d0c90b9dd5,TCR,2024-06-21_13h45.28.713,LearnStrategy,2023.2.3,Win32,60.60606061,7,1,6,0.037037037,0.02407406,1,0,0,1.0459,rock_grid_rect_2,1,11,-1,-1,1.046,0.108333376,-0.234259288,1,0,0,1.3291,Diorite_rect,3,1.329,0,5,0,5,0,1,,,,,,,,,,,,,
66548532974360d0c90b9dd5,TCR,2024-06-21_13h45.28.713,LearnStrategy,2023.2.3,Win32,60.60606061,7,1,7,0.007407436,-0.018518519,1,0,0,1.1298,rock_grid_rect_2,6,13,-1,-1,1.13,0.107407393,-0.405555584,1,0,0,1.307,Peridotite_rect,7,1.307,0,6,0,6,0,1,,,,,,,,,,,,,
66548532974360d0c90b9dd5,TCR,2024-06-21_13h45.28.713,LearnStrategy,2023.2.3,Win32,60.60606061,7,1,8,0.056481467,-0.013888889,1,0,0,1.6323,rock_grid_rect_2,6,03,-1,-1,1.632,-0.169444402,-0.385185171,1,0,0,2.1406,Pegmatite_rect,6,2.141,1,7,0,7,0,1,,,,,,,,,,,,,
66548532974360d0c90b9dd5,TCR,2024-06-21_13h45.28.713,LearnStrategy,2023.2.3,Win32,60.60606061,7,1,9,0.075925968,-0.001851859,1,0,0,1.1617,rock_grid_rect_2,3,07,-1,-1,1.162,0.107407393,-0.257407436,1,0,0,1.413,Diorite_rect,3,1.413,1,8,0,8,0,1,,,,,,,,,,,,,
66548532974360d0c90b9dd5,TCR,2024-06-21_13h45.28.713,LearnStrategy,2023.2.3,Win32,60.60606061,7,1,10,0.022222236,-0.018518519,1,0,0,1.1795,rock_grid_rect_2,2,11,-1,-1,1.179,0.32685188,-0.25,1,0,0,1.7927,Gabbro_rect,4,1.793,0,9,0,9,0,1,,,,,,,,,,,,,
66548532974360d0c90b9dd5,TCR,2024-06-21_13h45.28.713,LearnStrategy,2023.2.3,Win32,60.60606061,7,1,11,-0.09629631,0.002777771,1,0,0,1.1126,rock_grid_rect_2,7,06,-1,-1,1.113,0.101851852,-0.397222236,1,0,0,2.8406,Peridotite_rect,7,2.841,1,10,0,10,0,1,,,,,,,,,,,,,
66548532974360d0c90b9dd5,TCR,2024-06-21_13h45.28.713,LearnStrategy,2023.2.3,Win32,60.60606061,7,1,12,0.007407436,0.0074074,1,0,0,1.2288,rock_grid_rect_2,2,04,-1,-1,1.229,-0.15370369,-0.265740783,1,0,0,1.8931,Basalt_rect,2,1.893,1,11,0,11,0,1,,,,,,,,,,,,,
66548532974360d0c90b9dd5,TCR,2024-06-21_13h45.28.713,LearnStrategy,2023.2.3,Win32,60.60606061,7,1,13,0.061111097,0.002777771,1,0,0,1.1968,rock_grid_rect_2,1,05,-1,-1,1.197,-0.3824074,-0.249074088,1,0,0,4.0076,Andesite_rect,1,4.008,1,12,0,12,0,1,,,,,,,,,,,,,
66548532974360d0c90b9dd5,TCR,2024-06-21_13h45.28.713,LearnStrategy,2023.2.3,Win32,60.60606061,7,1,14,0.064814815,-0.021296289,1,0,0,1.3316,rock_grid_rect_2,3,15,-1,-1,1.332,0.118518547,-0.258333347,1,0,0,1.2749,Diorite_rect,3,1.275,1,13,0,13,0,1,,,,,,,,,,,,,
66548532974360d0c90b9dd5,TCR,2024-06-21_13h45.28.713,LearnStrategy,2023.2.3,Win32,60.60606061,7,1,15,0.07685188,-0.01203703,1,0,0,3.3966,rock_grid_rect_2,4,13,-1,-1,3.397,0.117592635,-0.405555584,1,0,0,3.6932,Peridotite_rect,7,3.693,0,14,0,14,0,1,,,,,,,,,,,,,
66548532974360d0c90b9dd5,TCR,2024-06-21_13h45.28.713,LearnStrategy,2023.2.3,Win32,60.60606061,7,1,16,0.043518561,0,1,0,0,1.2284,rock_grid_rect_2,7,13,-1,-1,1.228,-0.133333347,-0.411111125,1,0,0,4.2278,Pegmatite_rect,6,4.228,0,15,0,15,0,1,,,,,,,,,,,,,
66548532974360d0c90b9dd5,TCR,2024-06-21_13h45.28.713,LearnStrategy,2023.2.3,Win32,60.60606061,7,2,1,,,,,,,,1,03,,,,,,,,,,,2,14.552,0,,,,,,-0.142592607,-0.244444459,1,0,0,14.5522,Basalt_rect,0,0,0,0,1,
66548532974360d0c90b9dd5,TCR,2024-06-21_13h45.28.713,LearnStrategy,2023.2.3,Win32,60.60606061,7,2,2,,,,,,,,3,06,,,,,,,,,,,3,1.715,1,,,,,,0.125,-0.239814829,1,0,0,1.7149,Diorite_rect,1,0,1,0,1,
66548532974360d0c90b9dd5,TCR,2024-06-21_13h45.28.713,LearnStrategy,2023.2.3,Win32,60.60606061,7,2,3,,,,,,,,6,05,,,,,,,,,,,3,4.969,0,,,,,,0.103703746,-0.263888889,1,0,0,4.969,Diorite_rect,2,0,2,0,1,
66548532974360d0c90b9dd5,TCR,2024-06-21_13h45.28.713,LearnStrategy,2023.2.3,Win32,60.60606061,7,2,4,,,,,,,,3,12,,,,,,,,,,,3,7.154,1,,,,,,0.110185199,-0.251851894,1,0,0,7.1537,Diorite_rect,3,0,3,0,1,
66548532974360d0c90b9dd5,TCR,2024-06-21_13h45.28.713,LearnStrategy,2023.2.3,Win32,60.60606061,7,2,5,,,,,,,,8,09,,,,,,,,,,,8,1.571,1,,,,,,0.365740741,-0.414814843,1,0,0,1.5713,Pumice_rect,4,0,4,0,1,
66548532974360d0c90b9dd5,TCR,2024-06-21_13h45.28.713,LearnStrategy,2023.2.3,Win32,60.60606061,7,2,6,,,,,,,,4,14,,,,,,,,,,,4,5.388,1,,,,,,0.404629601,-0.258333347,1,0,0,5.3876,Gabbro_rect,5,0,5,0,1,
66548532974360d0c90b9dd5,TCR,2024-06-21_13h45.28.713,LearnStrategy,2023.2.3,Win32,60.60606061,7,2,7,,,,,,,,6,08,,,,,,,,,,,7,8.653,0,,,,,,0.14444443,-0.418518561,1,0,0,8.6535,Peridotite_rect,6,0,6,0,1,
66548532974360d0c90b9dd5,TCR,2024-06-21_13h45.28.713,LearnStrategy,2023.2.3,Win32,60.60606061,7,2,8,,,,,,,,2,09,,,,,,,,,,,2,7.69,1,,,,,,-0.146296254,-0.260185171,1,0,0,7.69,Basalt_rect,7,0,7,0,1,
66548532974360d0c90b9dd5,TCR,2024-06-21_13h45.28.713,LearnStrategy,2023.2.3,Win32,60.60606061,7,2,9,,,,,,,,7,12,,,,,,,,,,,7,12.038,1,,,,,,0.123148176,-0.407407407,1,0,0,12.0384,Peridotite_rect,8,0,8,0,1,
66548532974360d0c90b9dd5,TCR,2024-06-21_13h45.28.713,LearnStrategy,2023.2.3,Win32,60.60606061,7,2,10,,,,,,,,2,08,,,,,,,,,,,2,2.771,1,,,,,,-0.140740712,-0.247222265,1,0,0,2.7711,Basalt_rect,9,0,9,0,1,
66548532974360d0c90b9dd5,TCR,2024-06-21_13h45.28.713,LearnStrategy,2023.2.3,Win32,60.60606061,7,2,11,,,,,,,,4,08,,,,,,,,,,,1,1.812,0,,,,,,-0.390740748,-0.255555541,1,0,0,1.8118,Andesite_rect,10,0,10,0,1,
66548532974360d0c90b9dd5,TCR,2024-06-21_13h45.28.713,LearnStrategy,2023.2.3,Win32,60.60606061,7,2,12,,,,,,,,1,06,,,,,,,,,,,1,0.794,1,,,,,,-0.390740748,-0.255555541,1,0,0,0.7944,Andesite_rect,11,0,11,0,1,
66548532974360d0c90b9dd5,TCR,2024-06-21_13h45.28.713,LearnStrategy,2023.2.3,Win32,60.60606061,7,2,13,,,,,,,,5,06,,,,,,,,,,,5,2.286,1,,,,,,-0.449999986,-0.39907406,1,0,0,2.2862,Obsidian_rect,12,0,12,0,1,
66548532974360d0c90b9dd5,TCR,2024-06-21_13h45.28.713,LearnStrategy,2023.2.3,Win32,60.60606061,7,2,14,,,,,,,,7,10,,,,,,,,,,,6,4.071,0,,,,,,-0.200925898,-0.408333319,1,0,0,4.0711,Pegmatite_rect,13,0,13,0,1,
66548532974360d0c90b9dd5,TCR,2024-06-21_13h45.28.713,LearnStrategy,2023.2.3,Win32,60.60606061,7,2,15,,,,,,,,5,02,,,,,,,,,,,5,1.721,1,,,,,,-0.393518519,-0.407407407,1,0,0,1.721,Obsidian_rect,14,0,14,0,1,
66548532974360d0c90b9dd5,TCR,2024-06-21_13h45.28.713,LearnStrategy,2023.2.3,Win32,60.60606061,7,2,16,,,,,,,,8,03,,,,,,,,,,,8,1.371,1,,,,,,0.429629714,-0.392592607,1,0,0,1.3706,Pumice_rect,15,0,15,0,1,
66548532974360d0c90b9dd5,TCR,2024-06-21_13h45.28.713,LearnStrategy,2023.2.3,Win32,60.60606061,8,1,1,0.02407406,0.005555541,1,0,0,4.1965,rock_grid_rect_2,6,13,-1,-1,4.197,0.142592607,-0.260185171,1,0,0,2.2891,Diorite_rect,3,2.289,0,0,0,0,0,1,,,,,,,,,,,,,
66548532974360d0c90b9dd5,TCR,2024-06-21_13h45.28.713,LearnStrategy,2023.2.3,Win32,60.60606061,8,1,2,0.07685188,-0.003703718,1,0,0,1.3629,rock_grid_rect_2,3,07,-1,-1,1.363,0.115740741,-0.255555541,1,0,0,1.3456,Diorite_rect,3,1.346,1,1,0,1,0,1,,,,,,,,,,,,,
66548532974360d0c90b9dd5,TCR,2024-06-21_13h45.28.713,LearnStrategy,2023.2.3,Win32,60.60606061,8,1,3,0.034259302,0.008333312,1,0,0,1.1796,rock_grid_rect_2,7,04,-1,-1,1.18,-0.14444443,-0.39907406,1,0,0,1.3891,Pegmatite_rect,6,1.389,0,2,0,2,0,1,,,,,,,,,,,,,
66548532974360d0c90b9dd5,TCR,2024-06-21_13h45.28.713,LearnStrategy,2023.2.3,Win32,60.60606061,8,1,4,0.011111153,-0.01203703,1,0,0,1.3464,rock_grid_rect_2,1,04,-1,-1,1.346,-0.372222229,-0.23055557,1,0,0,2.457,Andesite_rect,1,2.457,1,3,0,3,0,1,,,,,,,,,,,,,
66548532974360d0c90b9dd5,TCR,2024-06-21_13h45.28.713,LearnStrategy,2023.2.3,Win32,60.60606061,8,1,5,-0.137962977,0.006481489,1,0,0,14.5928,rock_grid_rect_2,6,07,-1,-1,14.593,0.127777806,-0.251851894,1,0,0,1.6931,Diorite_rect,3,1.693,0,4,0,4,0,1,,,,,,,,,,,,,
66548532974360d0c90b9dd5,TCR,2024-06-21_13h45.28.713,LearnStrategy,2023.2.3,Win32,60.60606061,8,1,6,0.029629672,-0.012962977,1,0,0,1.5801,rock_grid_rect_2,4,13,-1,-1,1.58,0.337962963,-0.240740741,1,0,0,2.6247,Gabbro_rect,4,2.625,1,5,0,5,0,1,,,,,,,,,,,,,
66548532974360d0c90b9dd5,TCR,2024-06-21_13h45.28.713,LearnStrategy,2023.2.3,Win32,60.60606061,8,1,7,0.007407436,0.0074074,1,0,0,1.345,rock_grid_rect_2,1,02,-1,-1,1.345,-0.444444444,-0.252777806,1,0,0,1.8592,Andesite_rect,1,1.859,1,6,0,6,0,1,,,,,,,,,,,,,
66548532974360d0c90b9dd5,TCR,2024-06-21_13h45.28.713,LearnStrategy,2023.2.3,Win32,60.60606061,8,1,8,0.104629658,0.011111118,1,0,0,1.3627,rock_grid_rect_2,3,11,-1,-1,1.363,0.097222222,-0.242592635,1,0,0,1.4229,Diorite_rect,3,1.423,1,7,0,7,0,1,,,,,,,,,,,,,
66548532974360d0c90b9dd5,TCR,2024-06-21_13h45.28.713,LearnStrategy,2023.2.3,Win32,60.60606061,8,1,9,0.051851838,0.005555541,1,0,0,1.2799,rock_grid_rect_2,1,11,-1,-1,1.28,-0.41574072,-0.228703746,1,0,0,2.4934,Andesite_rect,1,2.493,1,8,0,8,0,1,,,,,,,,,,,,,
66548532974360d0c90b9dd5,TCR,2024-06-21_13h45.28.713,LearnStrategy,2023.2.3,Win32,60.60606061,8,1,10,0.082407422,-0.005555577,1,0,0,1.2951,rock_grid_rect_2,6,03,-1,-1,1.295,-0.14444443,-0.421296296,1,0,0,1.6722,Pegmatite_rect,6,1.672,1,9,0,9,0,1,,,,,,,,,,,,,
66548532974360d0c90b9dd5,TCR,2024-06-21_13h45.28.713,LearnStrategy,2023.2.3,Win32,60.60606061,8,1,11,0.01944443,-0.005555577,1,0,0,1.4464,rock_grid_rect_2,7,04,-1,-1,1.446,0.074074074,-0.406481496,1,0,0,1.1727,Peridotite_rect,7,1.173,1,10,0,10,0,1,,,,,,,,,,,,,
66548532974360d0c90b9dd5,TCR,2024-06-21_13h45.28.713,LearnStrategy,2023.2.3,Win32,60.60606061,8,1,12,-0.000925912,0.014814801,1,0,0,1.2962,rock_grid_rect_2,4,10,-1,-1,1.296,0.413888861,-0.248148176,1,0,0,2.9411,Gabbro_rect,4,2.941,1,11,0,11,0,1,,,,,,,,,,,,,
66548532974360d0c90b9dd5,TCR,2024-06-21_13h45.28.713,LearnStrategy,2023.2.3,Win32,60.60606061,8,1,13,-0.020370342,-0.008333347,1,0,0,1.1446,rock_grid_rect_2,6,11,-1,-1,1.145,-0.132407365,-0.40370369,1,0,0,2.2407,Pegmatite_rect,6,2.241,1,12,0,12,0,1,,,,,,,,,,,,,
66548532974360d0c90b9dd5,TCR,2024-06-21_13h45.28.713,LearnStrategy,2023.2.3,Win32,60.60606061,8,1,14,0.047222208,-0.012962977,1,0,0,1.1136,rock_grid_rect_2,7,16,-1,-1,1.114,-0.196296268,-0.257407436,1,0,0,5.5368,Basalt_rect,2,5.537,0,13,0,13,0,1,,,,,,,,,,,,,
66548532974360d0c90b9dd5,TCR,2024-06-21_13h45.28.713,LearnStrategy,2023.2.3,Win32,60.60606061,8,1,15,-0.033333319,-0.021296289,1,0,0,1.3622,rock_grid_rect_2,2,04,-1,-1,1.362,-0.146296254,-0.237037023,1,0,0,1.4891,Basalt_rect,2,1.489,1,14,0,14,0,1,,,,,,,,,,,,,
66548532974360d0c90b9dd5,TCR,2024-06-21_13h45.28.713,LearnStrategy,2023.2.3,Win32,60.60606061,8,1,16,0.034259302,-0.000925947,1,0,0,1.6792,rock_grid_rect_2,4,10,-1,-1,1.679,0.436111168,-0.261111153,1,0,0,1.1729,Gabbro_rect,4,1.173,1,15,0,15,0,1,,,,,,,,,,,,,
66548532974360d0c90b9dd5,TCR,2024-06-21_13h45.28.713,LearnStrategy,2023.2.3,Win32,60.60606061,8,2,1,,,,,,,,7,07,,,,,,,,,,,3,4.555,0,,,,,,0.103703746,-0.234259288,1,0,0,4.5551,Diorite_rect,0,0,0,0,1,
66548532974360d0c90b9dd5,TCR,2024-06-21_13h45.28.713,LearnStrategy,2023.2.3,Win32,60.60606061,8,2,2,,,,,,,,8,13,,,,,,,,,,,8,1.438,1,,,,,,0.387963048,-0.421296296,1,0,0,1.4377,Pumice_rect,1,0,1,0,1,
66548532974360d0c90b9dd5,TCR,2024-06-21_13h45.28.713,LearnStrategy,2023.2.3,Win32,60.60606061,8,2,3,,,,,,,,1,10,,,,,,,,,,,1,2.538,1,,,,,,-0.393518519,-0.259259259,1,0,0,2.5382,Andesite_rect,2,0,2,0,1,
66548532974360d0c90b9dd5,TCR,2024-06-21_13h45.28.713,LearnStrategy,2023.2.3,Win32,60.60606061,8,2,4,,,,,,,,7,15,,,,,,,,,,,6,3.187,0,,,,,,-0.152777778,-0.402777778,1,0,0,3.1872,Pegmatite_rect,3,0,3,0,1,
66548532974360d0c90b9dd5,TCR,2024-06-21_13h45.28.713,LearnStrategy,2023.2.3,Win32,60.60606061,8,2,5,,,,,,,,2,12,,,,,,,,,,,4,4.97,0,,,,,,0.386111083,-0.236111111,1,0,0,4.9698,Gabbro_rect,4,0,4,0,1,
66548532974360d0c90b9dd5,TCR,2024-06-21_13h45.28.713,LearnStrategy,2023.2.3,Win32,60.60606061,8,2,6,,,,,,,,5,04,,,,,,,,,,,5,1.554,1,,,,,,-0.439814815,-0.400000042,1,0,0,1.5543,Obsidian_rect,5,0,5,0,1,
66548532974360d0c90b9dd5,TCR,2024-06-21_13h45.28.713,LearnStrategy,2023.2.3,Win32,60.60606061,8,2,7,,,,,,,,6,06,,,,,,,,,,,6,2.487,1,,,,,,-0.136111083,-0.407407407,1,0,0,2.4875,Pegmatite_rect,6,0,6,0,1,
66548532974360d0c90b9dd5,TCR,2024-06-21_13h45.28.713,LearnStrategy,2023.2.3,Win32,60.60606061,8,2,8,,,,,,,,2,01,,,,,,,,,,,2,1.637,1,,,,,,-0.10092594,-0.266666695,1,0,0,1.6374,Basalt_rect,7,0,7,0,1,
66548532974360d0c90b9dd5,TCR,2024-06-21_13h45.28.713,LearnStrategy,2023.2.3,Win32,60.60606061,8,2,9,,,,,,,,8,06,,,,,,,,,,,8,1.371,1,,,,,,0.470370399,-0.410185213,1,0,0,1.371,Pumice_rect,8,0,8,0,1,
66548532974360d0c90b9dd5,TCR,2024-06-21_13h45.28.713,LearnStrategy,2023.2.3,Win32,60.60606061,8,2,10,,,,,,,,4,03,,,,,,,,,,,3,2.988,0,,,,,,0.09629631,-0.25462963,1,0,0,2.9877,Diorite_rect,9,0,9,0,1,
66548532974360d0c90b9dd5,TCR,2024-06-21_13h45.28.713,LearnStrategy,2023.2.3,Win32,60.60606061,8,2,11,,,,,,,,3,13,,,,,,,,,,,6,3.754,0,,,,,,-0.155555513,-0.407407407,1,0,0,3.7539,Pegmatite_rect,10,0,10,0,1,
66548532974360d0c90b9dd5,TCR,2024-06-21_13h45.28.713,LearnStrategy,2023.2.3,Win32,60.60606061,8,2,12,,,,,,,,5,08,,,,,,,,,,,5,1.388,1,,,,,,-0.401851831,-0.39907406,1,0,0,1.3877,Obsidian_rect,11,0,11,0,1,
66548532974360d0c90b9dd5,TCR,2024-06-21_13h45.28.713,LearnStrategy,2023.2.3,Win32,60.60606061,8,2,13,,,,,,,,1,16,,,,,,,,,,,1,1.405,1,,,,,,-0.404629637,-0.258333347,1,0,0,1.4045,Andesite_rect,12,0,12,0,1,
66548532974360d0c90b9dd5,TCR,2024-06-21_13h45.28.713,LearnStrategy,2023.2.3,Win32,60.60606061,8,2,14,,,,,,,,3,16,,,,,,,,,,,3,1.538,1,,,,,,0.097222222,-0.256481524,1,0,0,1.5379,Diorite_rect,13,0,13,0,1,
66548532974360d0c90b9dd5,TCR,2024-06-21_13h45.28.713,LearnStrategy,2023.2.3,Win32,60.60606061,8,2,15,,,,,,,,6,12,,,,,,,,,,,3,1.454,0,,,,,,0.066666709,-0.259259259,1,0,0,1.4542,Diorite_rect,14,0,14,0,1,
66548532974360d0c90b9dd5,TCR,2024-06-21_13h45.28.713,LearnStrategy,2023.2.3,Win32,60.60606061,8,2,16,,,,,,,,4,05,,,,,,,,,,,4,2.541,1,,,,,,0.37962963,-0.268518519,1,0,0,2.5413,Gabbro_rect,15,0,15,0,1,
66548532974360d0c90b9dd5,TCR,2024-06-21_13h45.28.713,LearnStrategy,2023.2.3,Win32,60.60606061,9,1,1,0.014814801,0.000925912,1,0,0,1.2804,rock_grid_rect_2,2,04,-1,-1,1.28,-0.141666624,-0.242592635,1,0,0,1.4749,Basalt_rect,2,1.475,1,0,0,0,0,1,,,,,,,,,,,,,
66548532974360d0c90b9dd5,TCR,2024-06-21_13h45.28.713,LearnStrategy,2023.2.3,Win32,60.60606061,9,1,2,0.038888931,0.00462963,1,0,0,1.1632,rock_grid_rect_2,5,12,-1,-1,1.163,-0.336111104,-0.397222236,1,0,0,1.207,Obsidian_rect,5,1.207,1,1,0,1,0,1,,,,,,,,,,,,,
66548532974360d0c90b9dd5,TCR,2024-06-21_13h45.28.713,LearnStrategy,2023.2.3,Win32,60.60606061,9,1,3,0.030555584,-0.006481489,1,0,0,1.3459,rock_grid_rect_2,3,07,-1,-1,1.346,0.087962963,-0.244444459,1,0,0,2.2097,Diorite_rect,3,2.21,1,2,0,2,0,1,,,,,,,,,,,,,
66548532974360d0c90b9dd5,TCR,2024-06-21_13h45.28.713,LearnStrategy,2023.2.3,Win32,60.60606061,9,1,4,-0.017592607,-0.008333347,1,0,0,2.0294,rock_grid_rect_2,6,16,-1,-1,2.029,-0.172222208,-0.402777778,1,0,0,1.843,Pegmatite_rect,6,1.843,1,3,0,3,0,1,,,,,,,,,,,,,
66548532974360d0c90b9dd5,TCR,2024-06-21_13h45.28.713,LearnStrategy,2023.2.3,Win32,60.60606061,9,1,5,0.062037079,-0.003703718,1,0,0,1.4134,rock_grid_rect_2,1,14,-1,-1,1.413,-0.378703683,-0.24537037,1,0,0,1.574,Andesite_rect,1,1.574,1,4,0,4,0,1,,,,,,,,,,,,,
66548532974360d0c90b9dd5,TCR,2024-06-21_13h45.28.713,LearnStrategy,2023.2.3,Win32,60.60606061,9,1,6,0.099074116,-0.008333347,1,0,0,1.2462,rock_grid_rect_2,7,06,-1,-1,1.246,-0.201851809,-0.417592578,1,0,0,1.1774,Pegmatite_rect,6,1.177,0,5,0,5,0,1,,,,,,,,,,,,,
66548532974360d0c90b9dd5,TCR,2024-06-21_13h45.28.713,LearnStrategy,2023.2.3,Win32,60.60606061,9,1,7,0.079629616,-0.010185206,1,0,0,1.296,rock_grid_rect_2,7,13,-1,-1,1.296,-0.115740741,-0.387962977,1,0,0,2.0746,Pegmatite_rect,6,2.075,0,6,0,6,0,1,,,,,,,,,,,,,
66548532974360d0c90b9dd5,TCR,2024-06-21_13h45.28.713,LearnStrategy,2023.2.3,Win32,60.60606061,9,1,8,-0.027777778,-0.000925947,1,0,0,1.3296,rock_grid_rect_2,4,12,-1,-1,1.33,0.36018527,-0.26944443,1,0,0,4.1743,Gabbro_rect,4,4.174,1,7,0,7,0,1,,,,,,,,,,,,,
66548532974360d0c90b9dd5,TCR,2024-06-21_13h45.28.713,LearnStrategy,2023.2.3,Win32,60.60606061,9,1,9,-0.000925912,0.003703683,1,0,0,1.1949,rock_grid_rect_2,2,02,-1,-1,1.195,-0.191666638,-0.247222265,1,0,0,1.428,Basalt_rect,2,1.428,1,8,0,8,0,1,,,,,,,,,,,,,
66548532974360d0c90b9dd5,TCR,2024-06-21_13h45.28.713,LearnStrategy,2023.2.3,Win32,60.60606061,9,1,10,0.012962977,-0.012962977,1,0,0,1.2129,rock_grid_rect_2,6,11,-1,-1,1.213,0.084259245,-0.396296325,1,0,0,1.4913,Peridotite_rect,7,1.491,0,9,0,9,0,1,,,,,,,,,,,,,
66548532974360d0c90b9dd5,TCR,2024-06-21_13h45.28.713,LearnStrategy,2023.2.3,Win32,60.60606061,9,1,11,-0.008333347,-0.011111118,1,0,0,1.197,rock_grid_rect_2,4,09,-1,-1,1.197,-0.104629587,-0.249074088,1,0,0,3.4064,Basalt_rect,2,3.406,0,10,0,10,0,1,,,,,,,,,,,,,
66548532974360d0c90b9dd5,TCR,2024-06-21_13h45.28.713,LearnStrategy,2023.2.3,Win32,60.60606061,9,1,12,0.05740745,-0.006481489,1,0,0,1.0286,rock_grid_rect_2,6,10,-1,-1,1.029,-0.125,-0.400925954,1,0,0,2.2897,Pegmatite_rect,6,2.29,1,11,0,11,0,1,,,,,,,,,,,,,
66548532974360d0c90b9dd5,TCR,2024-06-21_13h45.28.713,LearnStrategy,2023.2.3,Win32,60.60606061,9,1,13,0.046296296,0.0074074,1,0,0,1.1284,rock_grid_rect_2,1,02,-1,-1,1.128,-0.373148141,-0.240740741,1,0,0,1.4611,Andesite_rect,1,1.461,1,12,0,12,0,1,,,,,,,,,,,,,
66548532974360d0c90b9dd5,TCR,2024-06-21_13h45.28.713,LearnStrategy,2023.2.3,Win32,60.60606061,9,1,14,0.045370384,0,1,0,0,1.1469,rock_grid_rect_2,7,14,-1,-1,1.147,0.095370399,-0.252777806,1,0,0,2.8759,Diorite_rect,3,2.876,0,13,0,13,0,1,,,,,,,,,,,,,
66548532974360d0c90b9dd5,TCR,2024-06-21_13h45.28.713,LearnStrategy,2023.2.3,Win32,60.60606061,9,1,15,0.021296325,-0.008333347,1,0,0,1.2959,rock_grid_rect_2,3,02,-1,-1,1.296,0.108333376,-0.241666653,1,0,0,3.2073,Diorite_rect,3,3.207,1,14,0,14,0,1,,,,,,,,,,,,,
66548532974360d0c90b9dd5,TCR,2024-06-21_13h45.28.713,LearnStrategy,2023.2.3,Win32,60.60606061,9,1,16,0.058333362,-0.001851859,1,0,0,1.1122,rock_grid_rect_2,4,13,-1,-1,1.112,0.475000028,-0.25462963,1,0,0,3.3823,Gabbro_rect,4,3.382,1,15,0,15,0,1,,,,,,,,,,,,,
66548532974360d0c90b9dd5,TCR,2024-06-21_13h45.28.713,LearnStrategy,2023.2.3,Win32,60.60606061,9,2,1,,,,,,,,6,15,,,,,,,,,,,6,2.019,1,,,,,,-0.165740755,-0.406481496,1,0,0,2.0195,Pegmatite_rect,0,0,0,0,1,
66548532974360d0c90b9dd5,TCR,2024-06-21_13h45.28.713,LearnStrategy,2023.2.3,Win32,60.60606061,9,2,2,,,,,,,,6,09,,,,,,,,,,,6,1.126,1,,,,,,-0.165740755,-0.406481496,1,0,0,1.126,Pegmatite_rect,1,0,1,0,1,
66548532974360d0c90b9dd5,TCR,2024-06-21_13h45.28.713,LearnStrategy,2023.2.3,Win32,60.60606061,9,2,3,,,,,,,,8,14,,,,,,,,,,,8,1.391,1,,,,,,0.378703788,-0.388888889,1,0,0,1.3914,Pumice_rect,2,0,2,0,1,
66548532974360d0c90b9dd5,TCR,2024-06-21_13h45.28.713,LearnStrategy,2023.2.3,Win32,60.60606061,9,2,4,,,,,,,,8,02,,,,,,,,,,,8,1.004,1,,,,,,0.378703788,-0.388888889,1,0,0,1.0037,Pumice_rect,3,0,3,0,1,
66548532974360d0c90b9dd5,TCR,2024-06-21_13h45.28.713,LearnStrategy,2023.2.3,Win32,60.60606061,9,2,5,,,,,,,,3,10,,,,,,,,,,,1,1.753,0,,,,,,-0.409259266,-0.260185171,1,0,0,1.7534,Andesite_rect,4,0,4,0,1,
66548532974360d0c90b9dd5,TCR,2024-06-21_13h45.28.713,LearnStrategy,2023.2.3,Win32,60.60606061,9,2,6,,,,,,,,7,02,,,,,,,,,,,6,2.215,0,,,,,,-0.112962935,-0.400925954,1,0,0,2.2145,Pegmatite_rect,5,0,5,0,1,
66548532974360d0c90b9dd5,TCR,2024-06-21_13h45.28.713,LearnStrategy,2023.2.3,Win32,60.60606061,9,2,7,,,,,,,,5,09,,,,,,,,,,,5,2.259,1,,,,,,-0.389814801,-0.419444473,1,0,0,2.2593,Obsidian_rect,6,0,6,0,1,
66548532974360d0c90b9dd5,TCR,2024-06-21_13h45.28.713,LearnStrategy,2023.2.3,Win32,60.60606061,9,2,8,,,,,,,,1,07,,,,,,,,,,,3,1.672,0,,,,,,0.12962963,-0.248148176,1,0,0,1.672,Diorite_rect,7,0,7,0,1,
66548532974360d0c90b9dd5,TCR,2024-06-21_13h45.28.713,LearnStrategy,2023.2.3,Win32,60.60606061,9,2,9,,,,,,,,3,08,,,,,,,,,,,3,1.122,1,,,,,,0.117592635,-0.250925912,1,0,0,1.1222,Diorite_rect,8,0,8,0,1,
66548532974360d0c90b9dd5,TCR,2024-06-21_13h45.28.713,LearnStrategy,2023.2.3,Win32,60.60606061,9,2,10,,,,,,,,5,11,,,,,,,,,,,5,1.463,1,,,,,,-0.385185171,-0.395370413,1,0,0,1.4632,Obsidian_rect,9,0,9,0,1,
66548532974360d0c90b9dd5,TCR,2024-06-21_13h45.28.713,LearnStrategy,2023.2.3,Win32,60.60606061,9,2,11,,,,,,,,7,08,,,,,,,,,,,7,1.881,1,,,,,,0.079629616,-0.402777778,1,0,0,1.8811,Peridotite_rect,10,0,10,0,1,
66548532974360d0c90b9dd5,TCR,2024-06-21_13h45.28.713,LearnStrategy,2023.2.3,Win32,60.60606061,9,2,12,,,,,,,,1,01,,,,,,,,,,,4,2.385,0,,,,,,0.413888861,-0.236111111,1,0,0,2.3854,Gabbro_rect,11,0,11,0,1,
66548532974360d0c90b9dd5,TCR,2024-06-21_13h45.28.713,LearnStrategy,2023.2.3,Win32,60.60606061,9,2,13,,,,,,,,2,05,,,,,,,,,,,2,1.621,1,,,,,,-0.125,-0.253703718,1,0,0,1.6212,Basalt_rect,12,0,12,0,1,
66548532974360d0c90b9dd5,TCR,2024-06-21_13h45.28.713,LearnStrategy,2023.2.3,Win32,60.60606061,9,2,14,,,,,,,,4,16,,,,,,,,,,,4,1.688,1,,,,,,0.411111196,-0.25,1,0,0,1.6877,Gabbro_rect,13,0,13,0,1,
66548532974360d0c90b9dd5,TCR,2024-06-21_13h45.28.713,LearnStrategy,2023.2.3,Win32,60.60606061,9,2,15,,,,,,,,4,01,,,,,,,,,,,3,2.421,0,,,,,,0.090740769,-0.23055557,1,0,0,2.4211,Diorite_rect,14,0,14,0,1,
66548532974360d0c90b9dd5,TCR,2024-06-21_13h45.28.713,LearnStrategy,2023.2.3,Win32,60.60606061,9,2,16,,,,,,,,2,14,,,,,,,,,,,4,2.345,0,,,,,,0.363888917,-0.246296282,1,0,0,2.3451,Gabbro_rect,15,0,15,0,1,
66548532974360d0c90b9dd5,TCR,2024-06-21_13h45.28.713,LearnStrategy,2023.2.3,Win32,60.60606061,,,,,,,,,,,,,,,,,,,,,,,,,,,,,,,,,,,,,,,,,,,1
66548532974360d0c90b9dd5,TCR,2024-06-21_13h45.28.713,LearnStrategy,2023.2.3,Win32,60.60606061,,,,,,,,,,,,,,,,,,,,,,,,,,,,,,,,,,,,,,,,,,,
66548532974360d0c90b9dd5,TCR,2024-06-21_13h45.28.713,LearnStrategy,2023.2.3,Win32,60.60606061,,,,,,,,,,,2,06,1,1,,,,,,,,,,,,,,,,,,,,,,,,,,,,,
66548532974360d0c90b9dd5,TCR,2024-06-21_13h45.28.713,LearnStrategy,2023.2.3,Win32,60.60606061,,,,,,,,,,,5,16,1,2,,,,,,,,,,,,,,,,,,,,,,,,,,,,,
66548532974360d0c90b9dd5,TCR,2024-06-21_13h45.28.713,LearnStrategy,2023.2.3,Win32,60.60606061,,,,,,,,,,,5,07,1,3,,,,,,,,,,,,,,,,,,,,,,,,,,,,,
66548532974360d0c90b9dd5,TCR,2024-06-21_13h45.28.713,LearnStrategy,2023.2.3,Win32,60.60606061,,,,,,,,,,,7,06,1,4,,,,,,,,,,,,,,,,,,,,,,,,,,,,,
66548532974360d0c90b9dd5,TCR,2024-06-21_13h45.28.713,LearnStrategy,2023.2.3,Win32,60.60606061,,,,,,,,,,,5,05,1,5,,,,,,,,,,,,,,,,,,,,,,,,,,,,,
66548532974360d0c90b9dd5,TCR,2024-06-21_13h45.28.713,LearnStrategy,2023.2.3,Win32,60.60606061,,,,,,,,,,,2,04,1,6,,,,,,,,,,,,,,,,,,,,,,,,,,,,,
66548532974360d0c90b9dd5,TCR,2024-06-21_13h45.28.713,LearnStrategy,2023.2.3,Win32,60.60606061,,,,,,,,,,,1,02,1,7,,,,,,,,,,,,,,,,,,,,,,,,,,,,,
66548532974360d0c90b9dd5,TCR,2024-06-21_13h45.28.713,LearnStrategy,2023.2.3,Win32,60.60606061,,,,,,,,,,,6,03,1,8,,,,,,,,,,,,,,,,,,,,,,,,,,,,,
66548532974360d0c90b9dd5,TCR,2024-06-21_13h45.28.713,LearnStrategy,2023.2.3,Win32,60.60606061,,,,,,,,,,,3,09,2,1,,,,,,,,,,,,,,,,,,,,,,,,,,,,,
66548532974360d0c90b9dd5,TCR,2024-06-21_13h45.28.713,LearnStrategy,2023.2.3,Win32,60.60606061,,,,,,,,,,,4,13,2,2,,,,,,,,,,,,,,,,,,,,,,,,,,,,,
66548532974360d0c90b9dd5,TCR,2024-06-21_13h45.28.713,LearnStrategy,2023.2.3,Win32,60.60606061,,,,,,,,,,,6,10,2,3,,,,,,,,,,,,,,,,,,,,,,,,,,,,,
66548532974360d0c90b9dd5,TCR,2024-06-21_13h45.28.713,LearnStrategy,2023.2.3,Win32,60.60606061,,,,,,,,,,,2,16,2,4,,,,,,,,,,,,,,,,,,,,,,,,,,,,,
66548532974360d0c90b9dd5,TCR,2024-06-21_13h45.28.713,LearnStrategy,2023.2.3,Win32,60.60606061,,,,,,,,,,,8,05,2,5,,,,,,,,,,,,,,,,,,,,,,,,,,,,,
66548532974360d0c90b9dd5,TCR,2024-06-21_13h45.28.713,LearnStrategy,2023.2.3,Win32,60.60606061,,,,,,,,,,,7,14,2,6,,,,,,,,,,,,,,,,,,,,,,,,,,,,,
66548532974360d0c90b9dd5,TCR,2024-06-21_13h45.28.713,LearnStrategy,2023.2.3,Win32,60.60606061,,,,,,,,,,,7,16,2,7,,,,,,,,,,,,,,,,,,,,,,,,,,,,,
66548532974360d0c90b9dd5,TCR,2024-06-21_13h45.28.713,LearnStrategy,2023.2.3,Win32,60.60606061,,,,,,,,,,,1,05,2,8,,,,,,,,,,,,,,,,,,,,,,,,,,,,,
66548532974360d0c90b9dd5,TCR,2024-06-21_13h45.28.713,LearnStrategy,2023.2.3,Win32,60.60606061,,,,,,,,,,,1,14,3,1,,,,,,,,,,,,,,,,,,,,,,,,,,,,,
66548532974360d0c90b9dd5,TCR,2024-06-21_13h45.28.713,LearnStrategy,2023.2.3,Win32,60.60606061,,,,,,,,,,,3,02,3,2,,,,,,,,,,,,,,,,,,,,,,,,,,,,,
66548532974360d0c90b9dd5,TCR,2024-06-21_13h45.28.713,LearnStrategy,2023.2.3,Win32,60.60606061,,,,,,,,,,,5,12,3,3,,,,,,,,,,,,,,,,,,,,,,,,,,,,,
66548532974360d0c90b9dd5,TCR,2024-06-21_13h45.28.713,LearnStrategy,2023.2.3,Win32,60.60606061,,,,,,,,,,,3,15,3,4,,,,,,,,,,,,,,,,,,,,,,,,,,,,,
66548532974360d0c90b9dd5,TCR,2024-06-21_13h45.28.713,LearnStrategy,2023.2.3,Win32,60.60606061,,,,,,,,,,,4,12,3,5,,,,,,,,,,,,,,,,,,,,,,,,,,,,,
66548532974360d0c90b9dd5,TCR,2024-06-21_13h45.28.713,LearnStrategy,2023.2.3,Win32,60.60606061,,,,,,,,,,,1,04,3,6,,,,,,,,,,,,,,,,,,,,,,,,,,,,,
66548532974360d0c90b9dd5,TCR,2024-06-21_13h45.28.713,LearnStrategy,2023.2.3,Win32,60.60606061,,,,,,,,,,,4,11,3,7,,,,,,,,,,,,,,,,,,,,,,,,,,,,,
66548532974360d0c90b9dd5,TCR,2024-06-21_13h45.28.713,LearnStrategy,2023.2.3,Win32,60.60606061,,,,,,,,,,,8,10,3,8,,,,,,,,,,,,,,,,,,,,,,,,,,,,,
66548532974360d0c90b9dd5,TCR,2024-06-21_13h45.28.713,LearnStrategy,2023.2.3,Win32,60.60606061,,,,,,,,,,,2,10,4,1,,,,,,,,,,,,,,,,,,,,,,,,,,,,,
66548532974360d0c90b9dd5,TCR,2024-06-21_13h45.28.713,LearnStrategy,2023.2.3,Win32,60.60606061,,,,,,,,,,,5,10,4,2,,,,,,,,,,,,,,,,,,,,,,,,,,,,,
66548532974360d0c90b9dd5,TCR,2024-06-21_13h45.28.713,LearnStrategy,2023.2.3,Win32,60.60606061,,,,,,,,,,,1,11,4,3,,,,,,,,,,,,,,,,,,,,,,,,,,,,,
66548532974360d0c90b9dd5,TCR,2024-06-21_13h45.28.713,LearnStrategy,2023.2.3,Win32,60.60606061,,,,,,,,,,,5,14,4,4,,,,,,,,,,,,,,,,,,,,,,,,,,,,,
66548532974360d0c90b9dd5,TCR,2024-06-21_13h45.28.713,LearnStrategy,2023.2.3,Win32,60.60606061,,,,,,,,,,,8,15,4,5,,,,,,,,,,,,,,,,,,,,,,,,,,,,,
66548532974360d0c90b9dd5,TCR,2024-06-21_13h45.28.713,LearnStrategy,2023.2.3,Win32,60.60606061,,,,,,,,,,,8,04,4,6,,,,,,,,,,,,,,,,,,,,,,,,,,,,,
66548532974360d0c90b9dd5,TCR,2024-06-21_13h45.28.713,LearnStrategy,2023.2.3,Win32,60.60606061,,,,,,,,,,,4,15,4,7,,,,,,,,,,,,,,,,,,,,,,,,,,,,,
66548532974360d0c90b9dd5,TCR,2024-06-21_13h45.28.713,LearnStrategy,2023.2.3,Win32,60.60606061,,,,,,,,,,,4,10,4,8,,,,,,,,,,,,,,,,,,,,,,,,,,,,,
66548532974360d0c90b9dd5,TCR,2024-06-21_13h45.28.713,LearnStrategy,2023.2.3,Win32,60.60606061,,,,,,,,,,,8,16,5,1,,,,,,,,,,,,,,,,,,,,,,,,,,,,,
66548532974360d0c90b9dd5,TCR,2024-06-21_13h45.28.713,LearnStrategy,2023.2.3,Win32,60.60606061,,,,,,,,,,,7,04,5,2,,,,,,,,,,,,,,,,,,,,,,,,,,,,,
66548532974360d0c90b9dd5,TCR,2024-06-21_13h45.28.713,LearnStrategy,2023.2.3,Win32,60.60606061,,,,,,,,,,,4,09,5,3,,,,,,,,,,,,,,,,,,,,,,,,,,,,,
66548532974360d0c90b9dd5,TCR,2024-06-21_13h45.28.713,LearnStrategy,2023.2.3,Win32,60.60606061,,,,,,,,,,,8,08,5,4,,,,,,,,,,,,,,,,,,,,,,,,,,,,,
66548532974360d0c90b9dd5,TCR,2024-06-21_13h45.28.713,LearnStrategy,2023.2.3,Win32,60.60606061,,,,,,,,,,,3,11,5,5,,,,,,,,,,,,,,,,,,,,,,,,,,,,,
66548532974360d0c90b9dd5,TCR,2024-06-21_13h45.28.713,LearnStrategy,2023.2.3,Win32,60.60606061,,,,,,,,,,,7,05,5,6,,,,,,,,,,,,,,,,,,,,,,,,,,,,,
66548532974360d0c90b9dd5,TCR,2024-06-21_13h45.28.713,LearnStrategy,2023.2.3,Win32,60.60606061,,,,,,,,,,,6,11,5,7,,,,,,,,,,,,,,,,,,,,,,,,,,,,,
66548532974360d0c90b9dd5,TCR,2024-06-21_13h45.28.713,LearnStrategy,2023.2.3,Win32,60.60606061,,,,,,,,,,,2,02,5,8,,,,,,,,,,,,,,,,,,,,,,,,,,,,,
66548532974360d0c90b9dd5,TCR,2024-06-21_13h45.28.713,LearnStrategy,2023.2.3,Win32,60.60606061,,,,,,,,,,,7,13,6,1,,,,,,,,,,,,,,,,,,,,,,,,,,,,,
66548532974360d0c90b9dd5,TCR,2024-06-21_13h45.28.713,LearnStrategy,2023.2.3,Win32,60.60606061,,,,,,,,,,,1,09,6,2,,,,,,,,,,,,,,,,,,,,,,,,,,,,,
66548532974360d0c90b9dd5,TCR,2024-06-21_13h45.28.713,LearnStrategy,2023.2.3,Win32,60.60606061,,,,,,,,,,,6,16,6,3,,,,,,,,,,,,,,,,,,,,,,,,,,,,,
66548532974360d0c90b9dd5,TCR,2024-06-21_13h45.28.713,LearnStrategy,2023.2.3,Win32,60.60606061,,,,,,,,,,,3,07,6,4,,,,,,,,,,,,,,,,,,,,,,,,,,,,,
66548532974360d0c90b9dd5,TCR,2024-06-21_13h45.28.713,LearnStrategy,2023.2.3,Win32,60.60606061,,,,,,,,,,,3,14,6,5,,,,,,,,,,,,,,,,,,,,,,,,,,,,,
66548532974360d0c90b9dd5,TCR,2024-06-21_13h45.28.713,LearnStrategy,2023.2.3,Win32,60.60606061,,,,,,,,,,,6,07,6,6,,,,,,,,,,,,,,,,,,,,,,,,,,,,,
66548532974360d0c90b9dd5,TCR,2024-06-21_13h45.28.713,LearnStrategy,2023.2.3,Win32,60.60606061,,,,,,,,,,,6,13,6,7,,,,,,,,,,,,,,,,,,,,,,,,,,,,,
66548532974360d0c90b9dd5,TCR,2024-06-21_13h45.28.713,LearnStrategy,2023.2.3,Win32,60.60606061,,,,,,,,,,,2,11,6,8,,,,,,,,,,,,,,,,,,,,,,,,,,,,,