participant,condition,date,expName,psychopyVersion,OS,frameRate,block,phase,trial,learn_mouse_2.x,learn_mouse_2.y,learn_mouse_2.leftButton,learn_mouse_2.midButton,learn_mouse_2.rightButton,learn_mouse_2.time,learn_mouse_2.clicked_name,cat,token,row,col,t_select,cat_mouse_l.x,cat_mouse_l.y,cat_mouse_l.leftButton,cat_mouse_l.midButton,cat_mouse_l.rightButton,cat_mouse_l.time,cat_mouse_l.clicked_name,resp,t_resp,corr,train_trials.thisRepN,train_trials.thisTrialN,train_trials.thisN,train_trials.thisIndex,train_trials.ran,cat_mouse_t.x,cat_mouse_t.y,cat_mouse_t.leftButton,cat_mouse_t.midButton,cat_mouse_t.rightButton,cat_mouse_t.time,cat_mouse_t.clicked_name,test_trials.thisRepN,test_trials.thisTrialN,test_trials.thisN,test_trials.thisIndex,test_trials.ran,Bonus
66555f0de9cdf0c596d5a7aa,TCR,2024-06-24_11h47.03.038,LearnStrategy,2023.2.3,Win32,60.24096386,,,,,,,,,,,,,,,,,,,,,,,,,,,,,,,,,,,,,,,,,,,
66555f0de9cdf0c596d5a7aa,TCR,2024-06-24_11h47.03.038,LearnStrategy,2023.2.3,Win32,60.24096386,1,1,1,0.009114583,0.00390625,1,0,0,3.5944,rock_grid_rect_2,5,07,-1,-1,3.594,0.095052083,-0.385416667,1,0,0,8.6436,Peridotite_rect,7,8.644,0,0,0,0,0,1,,,,,,,,,,,,,
66555f0de9cdf0c596d5a7aa,TCR,2024-06-24_11h47.03.038,LearnStrategy,2023.2.3,Win32,60.24096386,1,1,2,-0.02734375,-0.001302083,1,0,0,2.013,rock_grid_rect_2,4,14,-1,-1,2.013,0.359375,-0.3984375,1,0,0,6.4189,Pumice_rect,8,6.419,0,1,0,1,0,1,,,,,,,,,,,,,
66555f0de9cdf0c596d5a7aa,TCR,2024-06-24_11h47.03.038,LearnStrategy,2023.2.3,Win32,60.24096386,1,1,3,0.014322917,0.01171875,1,0,0,1.758,rock_grid_rect_2,7,15,-1,-1,1.758,-0.11328125,-0.235677083,1,0,0,4.3169,Basalt_rect,2,4.317,0,2,0,2,0,1,,,,,,,,,,,,,
66555f0de9cdf0c596d5a7aa,TCR,2024-06-24_11h47.03.038,LearnStrategy,2023.2.3,Win32,60.24096386,1,1,4,0.002604167,-0.00390625,1,0,0,1.4756,rock_grid_rect_2,1,01,-1,-1,1.476,-0.345052083,-0.3984375,1,0,0,2.6718,Obsidian_rect,5,2.672,0,3,0,3,0,1,,,,,,,,,,,,,
66555f0de9cdf0c596d5a7aa,TCR,2024-06-24_11h47.03.038,LearnStrategy,2023.2.3,Win32,60.24096386,1,1,5,0.020833333,0.009114583,1,0,0,1.2485,rock_grid_rect_2,2,01,-1,-1,1.249,0.376302083,-0.390625,1,0,0,5.1917,Pumice_rect,8,5.192,0,4,0,4,0,1,,,,,,,,,,,,,
66555f0de9cdf0c596d5a7aa,TCR,2024-06-24_11h47.03.038,LearnStrategy,2023.2.3,Win32,60.24096386,1,1,6,0.002604167,0.0078125,1,0,0,1.5915,rock_grid_rect_2,4,10,-1,-1,1.591,-0.08984375,-0.401041667,1,0,0,3.2927,Pegmatite_rect,6,3.293,0,5,0,5,0,1,,,,,,,,,,,,,
66555f0de9cdf0c596d5a7aa,TCR,2024-06-24_11h47.03.038,LearnStrategy,2023.2.3,Win32,60.24096386,1,1,7,0,0.014322917,1,0,0,1.1605,rock_grid_rect_2,6,09,-1,-1,1.161,0.09765625,-0.233072917,1,0,0,3.4838,Diorite_rect,3,3.484,0,6,0,6,0,1,,,,,,,,,,,,,
66555f0de9cdf0c596d5a7aa,TCR,2024-06-24_11h47.03.038,LearnStrategy,2023.2.3,Win32,60.24096386,1,1,8,-0.029947917,0.015625,1,0,0,1.2613,rock_grid_rect_2,3,16,-1,-1,1.261,0.135416667,-0.252604167,1,0,0,6.2873,Diorite_rect,3,6.287,1,7,0,7,0,1,,,,,,,,,,,,,
66555f0de9cdf0c596d5a7aa,TCR,2024-06-24_11h47.03.038,LearnStrategy,2023.2.3,Win32,60.24096386,1,1,9,-0.015625,0.010416667,1,0,0,1.4517,rock_grid_rect_2,1,09,-1,-1,1.452,0.365885417,-0.391927083,1,0,0,3.9135,Pumice_rect,8,3.913,0,8,0,8,0,1,,,,,,,,,,,,,
66555f0de9cdf0c596d5a7aa,TCR,2024-06-24_11h47.03.038,LearnStrategy,2023.2.3,Win32,60.24096386,1,1,10,-0.01953125,0.002604167,1,0,0,1.2705,rock_grid_rect_2,2,09,-1,-1,1.27,-0.348958333,-0.244791667,1,0,0,4.2762,Andesite_rect,1,4.276,0,9,0,9,0,1,,,,,,,,,,,,,
66555f0de9cdf0c596d5a7aa,TCR,2024-06-24_11h47.03.038,LearnStrategy,2023.2.3,Win32,60.24096386,1,1,11,-0.014322917,-0.015625,1,0,0,1.1249,rock_grid_rect_2,3,14,-1,-1,1.125,0.11328125,-0.255208333,1,0,0,1.5124,Diorite_rect,3,1.512,1,10,0,10,0,1,,,,,,,,,,,,,
66555f0de9cdf0c596d5a7aa,TCR,2024-06-24_11h47.03.038,LearnStrategy,2023.2.3,Win32,60.24096386,1,1,12,-0.016927083,-0.002604167,1,0,0,1.1338,rock_grid_rect_2,5,12,-1,-1,1.134,-0.348958333,-0.401041667,1,0,0,3.0306,Obsidian_rect,5,3.031,1,11,0,11,0,1,,,,,,,,,,,,,
66555f0de9cdf0c596d5a7aa,TCR,2024-06-24_11h47.03.038,LearnStrategy,2023.2.3,Win32,60.24096386,1,1,13,0.02734375,-0.006510417,1,0,0,1.1089,rock_grid_rect_2,8,09,-1,-1,1.109,0.337239583,-0.3984375,1,0,0,2.6117,Pumice_rect,8,2.612,1,12,0,12,0,1,,,,,,,,,,,,,
66555f0de9cdf0c596d5a7aa,TCR,2024-06-24_11h47.03.038,LearnStrategy,2023.2.3,Win32,60.24096386,1,1,14,-0.009114583,0.009114583,1,0,0,1.1583,rock_grid_rect_2,8,06,-1,-1,1.158,0.404947917,-0.391927083,1,0,0,2.3055,Pumice_rect,8,2.305,1,13,0,13,0,1,,,,,,,,,,,,,
66555f0de9cdf0c596d5a7aa,TCR,2024-06-24_11h47.03.038,LearnStrategy,2023.2.3,Win32,60.24096386,1,1,15,-0.0078125,-0.015625,1,0,0,1.1244,rock_grid_rect_2,6,07,-1,-1,1.124,0.169270833,-0.421875,1,0,0,6.0136,Peridotite_rect,7,6.014,0,14,0,14,0,1,,,,,,,,,,,,,
66555f0de9cdf0c596d5a7aa,TCR,2024-06-24_11h47.03.038,LearnStrategy,2023.2.3,Win32,60.24096386,1,1,16,-0.026041667,-0.01171875,1,0,0,1.1417,rock_grid_rect_2,7,14,-1,-1,1.142,0.12890625,-0.395833333,1,0,0,1.4592,Peridotite_rect,7,1.459,1,15,0,15,0,1,,,,,,,,,,,,,
66555f0de9cdf0c596d5a7aa,TCR,2024-06-24_11h47.03.038,LearnStrategy,2023.2.3,Win32,60.24096386,1,2,1,,,,,,,,4,05,,,,,,,,,,,1,6.509,0,,,,,,-0.380208333,-0.244791667,1,0,0,6.5094,Andesite_rect,0,0,0,0,1,
66555f0de9cdf0c596d5a7aa,TCR,2024-06-24_11h47.03.038,LearnStrategy,2023.2.3,Win32,60.24096386,1,2,2,,,,,,,,6,11,,,,,,,,,,,6,4.938,1,,,,,,-0.069010417,-0.391927083,1,0,0,4.9385,Pegmatite_rect,1,0,1,0,1,
66555f0de9cdf0c596d5a7aa,TCR,2024-06-24_11h47.03.038,LearnStrategy,2023.2.3,Win32,60.24096386,1,2,3,,,,,,,,3,12,,,,,,,,,,,3,1.287,1,,,,,,0.09765625,-0.236979167,1,0,0,1.2868,Diorite_rect,2,0,2,0,1,
66555f0de9cdf0c596d5a7aa,TCR,2024-06-24_11h47.03.038,LearnStrategy,2023.2.3,Win32,60.24096386,1,2,4,,,,,,,,4,12,,,,,,,,,,,2,1.836,0,,,,,,-0.151041667,-0.255208333,1,0,0,1.8359,Basalt_rect,3,0,3,0,1,
66555f0de9cdf0c596d5a7aa,TCR,2024-06-24_11h47.03.038,LearnStrategy,2023.2.3,Win32,60.24096386,1,2,5,,,,,,,,1,11,,,,,,,,,,,7,2.853,0,,,,,,0.079427083,-0.401041667,1,0,0,2.8531,Peridotite_rect,4,0,4,0,1,
66555f0de9cdf0c596d5a7aa,TCR,2024-06-24_11h47.03.038,LearnStrategy,2023.2.3,Win32,60.24096386,1,2,6,,,,,,,,7,10,,,,,,,,,,,6,5.485,0,,,,,,-0.09765625,-0.40234375,1,0,0,5.4853,Pegmatite_rect,5,0,5,0,1,
66555f0de9cdf0c596d5a7aa,TCR,2024-06-24_11h47.03.038,LearnStrategy,2023.2.3,Win32,60.24096386,1,2,7,,,,,,,,5,09,,,,,,,,,,,5,1.343,1,,,,,,-0.385416667,-0.404947917,1,0,0,1.3433,Obsidian_rect,6,0,6,0,1,
66555f0de9cdf0c596d5a7aa,TCR,2024-06-24_11h47.03.038,LearnStrategy,2023.2.3,Win32,60.24096386,1,2,8,,,,,,,,8,10,,,,,,,,,,,8,1.621,1,,,,,,0.350260417,-0.407552083,1,0,0,1.6209,Pumice_rect,7,0,7,0,1,
66555f0de9cdf0c596d5a7aa,TCR,2024-06-24_11h47.03.038,LearnStrategy,2023.2.3,Win32,60.24096386,1,2,9,,,,,,,,3,02,,,,,,,,,,,3,1.464,1,,,,,,0.135416667,-0.256510417,1,0,0,1.4639,Diorite_rect,8,0,8,0,1,
66555f0de9cdf0c596d5a7aa,TCR,2024-06-24_11h47.03.038,LearnStrategy,2023.2.3,Win32,60.24096386,1,2,10,,,,,,,,8,03,,,,,,,,,,,8,1.451,1,,,,,,0.39453125,-0.39453125,1,0,0,1.4508,Pumice_rect,9,0,9,0,1,
66555f0de9cdf0c596d5a7aa,TCR,2024-06-24_11h47.03.038,LearnStrategy,2023.2.3,Win32,60.24096386,1,2,11,,,,,,,,1,03,,,,,,,,,,,4,3.612,0,,,,,,0.39453125,-0.240885417,1,0,0,3.6124,Gabbro_rect,10,0,10,0,1,
66555f0de9cdf0c596d5a7aa,TCR,2024-06-24_11h47.03.038,LearnStrategy,2023.2.3,Win32,60.24096386,1,2,12,,,,,,,,2,08,,,,,,,,,,,5,1.929,0,,,,,,-0.37109375,-0.40234375,1,0,0,1.9289,Obsidian_rect,11,0,11,0,1,
66555f0de9cdf0c596d5a7aa,TCR,2024-06-24_11h47.03.038,LearnStrategy,2023.2.3,Win32,60.24096386,1,2,13,,,,,,,,2,04,,,,,,,,,,,1,6.694,0,,,,,,-0.381510417,-0.240885417,1,0,0,6.6936,Andesite_rect,12,0,12,0,1,
66555f0de9cdf0c596d5a7aa,TCR,2024-06-24_11h47.03.038,LearnStrategy,2023.2.3,Win32,60.24096386,1,2,14,,,,,,,,6,08,,,,,,,,,,,3,1.577,0,,,,,,0.15234375,-0.2578125,1,0,0,1.5773,Diorite_rect,13,0,13,0,1,
66555f0de9cdf0c596d5a7aa,TCR,2024-06-24_11h47.03.038,LearnStrategy,2023.2.3,Win32,60.24096386,1,2,15,,,,,,,,7,16,,,,,,,,,,,6,5.032,0,,,,,,-0.1328125,-0.403645833,1,0,0,5.0322,Pegmatite_rect,14,0,14,0,1,
66555f0de9cdf0c596d5a7aa,TCR,2024-06-24_11h47.03.038,LearnStrategy,2023.2.3,Win32,60.24096386,1,2,16,,,,,,,,5,05,,,,,,,,,,,5,1.957,1,,,,,,-0.427083333,-0.403645833,1,0,0,1.9567,Obsidian_rect,15,0,15,0,1,
66555f0de9cdf0c596d5a7aa,TCR,2024-06-24_11h47.03.038,LearnStrategy,2023.2.3,Win32,60.24096386,2,1,1,0,0,1,0,0,2.4728,rock_grid_rect_2,6,09,-1,-1,2.473,0.11328125,-0.229166667,1,0,0,2.7697,Diorite_rect,3,2.77,0,0,0,0,0,1,,,,,,,,,,,,,
66555f0de9cdf0c596d5a7aa,TCR,2024-06-24_11h47.03.038,LearnStrategy,2023.2.3,Win32,60.24096386,2,1,2,-0.032552083,0,1,0,0,1.0602,rock_grid_rect_2,4,14,-1,-1,1.06,0.10546875,-0.38671875,1,0,0,4.1171,Peridotite_rect,7,4.117,0,1,0,1,0,1,,,,,,,,,,,,,
66555f0de9cdf0c596d5a7aa,TCR,2024-06-24_11h47.03.038,LearnStrategy,2023.2.3,Win32,60.24096386,2,1,3,-0.05859375,0.006510417,1,0,0,1.3084,rock_grid_rect_2,4,03,-1,-1,1.308,0.123697917,-0.240885417,1,0,0,2.537,Diorite_rect,3,2.537,0,2,0,2,0,1,,,,,,,,,,,,,
66555f0de9cdf0c596d5a7aa,TCR,2024-06-24_11h47.03.038,LearnStrategy,2023.2.3,Win32,60.24096386,2,1,4,-0.00390625,0.001302083,1,0,0,1.2227,rock_grid_rect_2,1,09,-1,-1,1.223,-0.15234375,-0.2578125,1,0,0,3.826,Basalt_rect,2,3.826,0,3,0,3,0,1,,,,,,,,,,,,,
66555f0de9cdf0c596d5a7aa,TCR,2024-06-24_11h47.03.038,LearnStrategy,2023.2.3,Win32,60.24096386,2,1,5,-0.014322917,0,1,0,0,1.2143,rock_grid_rect_2,4,10,-1,-1,1.214,-0.411458333,-0.243489583,1,0,0,3.0346,Andesite_rect,1,3.035,0,4,0,4,0,1,,,,,,,,,,,,,
66555f0de9cdf0c596d5a7aa,TCR,2024-06-24_11h47.03.038,LearnStrategy,2023.2.3,Win32,60.24096386,2,1,6,-0.032552083,-0.002604167,1,0,0,1.2624,rock_grid_rect_2,7,04,-1,-1,1.262,0.161458333,-0.265625,1,0,0,2.5423,Diorite_rect,3,2.542,0,5,0,5,0,1,,,,,,,,,,,,,
66555f0de9cdf0c596d5a7aa,TCR,2024-06-24_11h47.03.038,LearnStrategy,2023.2.3,Win32,60.24096386,2,1,7,0,-0.001302083,1,0,0,1.179,rock_grid_rect_2,5,04,-1,-1,1.179,-0.373697917,-0.393229167,1,0,0,1.4584,Obsidian_rect,5,1.458,1,6,0,6,0,1,,,,,,,,,,,,,
66555f0de9cdf0c596d5a7aa,TCR,2024-06-24_11h47.03.038,LearnStrategy,2023.2.3,Win32,60.24096386,2,1,8,0.026041667,-0.009114583,1,0,0,1.1133,rock_grid_rect_2,2,09,-1,-1,1.113,-0.40234375,-0.247395833,1,0,0,1.909,Andesite_rect,1,1.909,0,7,0,7,0,1,,,,,,,,,,,,,
66555f0de9cdf0c596d5a7aa,TCR,2024-06-24_11h47.03.038,LearnStrategy,2023.2.3,Win32,60.24096386,2,1,9,-0.013020833,-0.0078125,1,0,0,0.8601,rock_grid_rect_2,1,14,-1,-1,0.86,0.147135417,-0.247395833,1,0,0,2.5441,Diorite_rect,3,2.544,0,8,0,8,0,1,,,,,,,,,,,,,
66555f0de9cdf0c596d5a7aa,TCR,2024-06-24_11h47.03.038,LearnStrategy,2023.2.3,Win32,60.24096386,2,1,10,-0.036458333,0,1,0,0,0.7833,rock_grid_rect_2,1,05,-1,-1,0.783,-0.436197917,-0.2421875,1,0,0,1.6681,Andesite_rect,1,1.668,1,9,0,9,0,1,,,,,,,,,,,,,
66555f0de9cdf0c596d5a7aa,TCR,2024-06-24_11h47.03.038,LearnStrategy,2023.2.3,Win32,60.24096386,2,1,11,-0.006510417,0.001302083,1,0,0,0.8136,rock_grid_rect_2,6,07,-1,-1,0.814,0.09765625,-0.41796875,1,0,0,2.0248,Peridotite_rect,7,2.025,0,10,0,10,0,1,,,,,,,,,,,,,
66555f0de9cdf0c596d5a7aa,TCR,2024-06-24_11h47.03.038,LearnStrategy,2023.2.3,Win32,60.24096386,2,1,12,0.102864583,0.013020833,1,0,0,1.0626,rock_grid_rect_2,2,01,-1,-1,1.063,0.364583333,-0.256510417,1,0,0,2.727,Gabbro_rect,4,2.727,0,11,0,11,0,1,,,,,,,,,,,,,
66555f0de9cdf0c596d5a7aa,TCR,2024-06-24_11h47.03.038,LearnStrategy,2023.2.3,Win32,60.24096386,2,1,13,-0.02734375,0.015625,1,0,0,1.1686,rock_grid_rect_2,7,04,-1,-1,1.169,-0.069010417,-0.403645833,1,0,0,5.2064,Pegmatite_rect,6,5.206,0,12,0,12,0,1,,,,,,,,,,,,,
66555f0de9cdf0c596d5a7aa,TCR,2024-06-24_11h47.03.038,LearnStrategy,2023.2.3,Win32,60.24096386,2,1,14,0.045572917,0,1,0,0,0.8811,rock_grid_rect_2,7,05,-1,-1,0.881,-0.393229167,-0.2578125,1,0,0,4.9211,Andesite_rect,1,4.921,0,13,0,13,0,1,,,,,,,,,,,,,
66555f0de9cdf0c596d5a7aa,TCR,2024-06-24_11h47.03.038,LearnStrategy,2023.2.3,Win32,60.24096386,2,1,15,0.065104167,-0.009114583,1,0,0,0.8447,rock_grid_rect_2,3,16,-1,-1,0.845,0.171875,-0.260416667,1,0,0,1.187,Diorite_rect,3,1.187,1,14,0,14,0,1,,,,,,,,,,,,,
66555f0de9cdf0c596d5a7aa,TCR,2024-06-24_11h47.03.038,LearnStrategy,2023.2.3,Win32,60.24096386,2,1,16,0.0078125,-0.005208333,1,0,0,0.9084,rock_grid_rect_2,2,09,-1,-1,0.908,0.109375,-0.40234375,1,0,0,6.9819,Peridotite_rect,7,6.982,0,15,0,15,0,1,,,,,,,,,,,,,
66555f0de9cdf0c596d5a7aa,TCR,2024-06-24_11h47.03.038,LearnStrategy,2023.2.3,Win32,60.24096386,2,2,1,,,,,,,,7,08,,,,,,,,,,,6,4.982,0,,,,,,-0.078125,-0.3984375,1,0,0,4.9822,Pegmatite_rect,0,0,0,0,1,
66555f0de9cdf0c596d5a7aa,TCR,2024-06-24_11h47.03.038,LearnStrategy,2023.2.3,Win32,60.24096386,2,2,2,,,,,,,,6,05,,,,,,,,,,,7,6.568,0,,,,,,0.223958333,-0.41796875,1,0,0,6.5682,Peridotite_rect,1,0,1,0,1,
66555f0de9cdf0c596d5a7aa,TCR,2024-06-24_11h47.03.038,LearnStrategy,2023.2.3,Win32,60.24096386,2,2,3,,,,,,,,7,06,,,,,,,,,,,6,3.009,0,,,,,,-0.126302083,-0.388020833,1,0,0,3.0091,Pegmatite_rect,2,0,2,0,1,
66555f0de9cdf0c596d5a7aa,TCR,2024-06-24_11h47.03.038,LearnStrategy,2023.2.3,Win32,60.24096386,2,2,4,,,,,,,,8,08,,,,,,,,,,,8,2.6,1,,,,,,0.403645833,-0.41015625,1,0,0,2.6003,Pumice_rect,3,0,3,0,1,
66555f0de9cdf0c596d5a7aa,TCR,2024-06-24_11h47.03.038,LearnStrategy,2023.2.3,Win32,60.24096386,2,2,5,,,,,,,,5,16,,,,,,,,,,,5,1.251,1,,,,,,-0.462239583,-0.393229167,1,0,0,1.2511,Obsidian_rect,4,0,4,0,1,
66555f0de9cdf0c596d5a7aa,TCR,2024-06-24_11h47.03.038,LearnStrategy,2023.2.3,Win32,60.24096386,2,2,6,,,,,,,,2,05,,,,,,,,,,,2,2.468,1,,,,,,-0.14453125,-0.234375,1,0,0,2.4679,Basalt_rect,5,0,5,0,1,
66555f0de9cdf0c596d5a7aa,TCR,2024-06-24_11h47.03.038,LearnStrategy,2023.2.3,Win32,60.24096386,2,2,7,,,,,,,,4,16,,,,,,,,,,,4,2.619,1,,,,,,0.390625,-0.26171875,1,0,0,2.6195,Gabbro_rect,6,0,6,0,1,
66555f0de9cdf0c596d5a7aa,TCR,2024-06-24_11h47.03.038,LearnStrategy,2023.2.3,Win32,60.24096386,2,2,8,,,,,,,,5,08,,,,,,,,,,,5,2.647,1,,,,,,-0.4296875,-0.393229167,1,0,0,2.6469,Obsidian_rect,7,0,7,0,1,
66555f0de9cdf0c596d5a7aa,TCR,2024-06-24_11h47.03.038,LearnStrategy,2023.2.3,Win32,60.24096386,2,2,9,,,,,,,,1,07,,,,,,,,,,,3,1.332,0,,,,,,0.079427083,-0.23828125,1,0,0,1.3322,Diorite_rect,8,0,8,0,1,
66555f0de9cdf0c596d5a7aa,TCR,2024-06-24_11h47.03.038,LearnStrategy,2023.2.3,Win32,60.24096386,2,2,10,,,,,,,,6,03,,,,,,,,,,,6,2.129,1,,,,,,-0.13671875,-0.401041667,1,0,0,2.129,Pegmatite_rect,9,0,9,0,1,
66555f0de9cdf0c596d5a7aa,TCR,2024-06-24_11h47.03.038,LearnStrategy,2023.2.3,Win32,60.24096386,2,2,11,,,,,,,,4,15,,,,,,,,,,,4,1.774,1,,,,,,0.375,-0.231770833,1,0,0,1.7742,Gabbro_rect,10,0,10,0,1,
66555f0de9cdf0c596d5a7aa,TCR,2024-06-24_11h47.03.038,LearnStrategy,2023.2.3,Win32,60.24096386,2,2,12,,,,,,,,8,15,,,,,,,,,,,8,1.316,1,,,,,,0.38671875,-0.393229167,1,0,0,1.316,Pumice_rect,11,0,11,0,1,
66555f0de9cdf0c596d5a7aa,TCR,2024-06-24_11h47.03.038,LearnStrategy,2023.2.3,Win32,60.24096386,2,2,13,,,,,,,,3,08,,,,,,,,,,,3,1.117,1,,,,,,0.15234375,-0.255208333,1,0,0,1.1172,Diorite_rect,12,0,12,0,1,
66555f0de9cdf0c596d5a7aa,TCR,2024-06-24_11h47.03.038,LearnStrategy,2023.2.3,Win32,60.24096386,2,2,14,,,,,,,,2,12,,,,,,,,,,,8,1.716,0,,,,,,0.411458333,-0.384114583,1,0,0,1.7163,Pumice_rect,13,0,13,0,1,
66555f0de9cdf0c596d5a7aa,TCR,2024-06-24_11h47.03.038,LearnStrategy,2023.2.3,Win32,60.24096386,2,2,15,,,,,,,,1,16,,,,,,,,,,,1,5.297,1,,,,,,-0.368489583,-0.259114583,1,0,0,5.2968,Andesite_rect,14,0,14,0,1,
66555f0de9cdf0c596d5a7aa,TCR,2024-06-24_11h47.03.038,LearnStrategy,2023.2.3,Win32,60.24096386,2,2,16,,,,,,,,3,13,,,,,,,,,,,3,1.471,1,,,,,,0.095052083,-0.2421875,1,0,0,1.4715,Diorite_rect,15,0,15,0,1,
66555f0de9cdf0c596d5a7aa,TCR,2024-06-24_11h47.03.038,LearnStrategy,2023.2.3,Win32,60.24096386,3,1,1,-0.018229167,0.005208333,1,0,0,1.1766,rock_grid_rect_2,2,09,-1,-1,1.177,-0.125,-0.252604167,1,0,0,2.3925,Basalt_rect,2,2.393,1,0,0,0,0,1,,,,,,,,,,,,,
66555f0de9cdf0c596d5a7aa,TCR,2024-06-24_11h47.03.038,LearnStrategy,2023.2.3,Win32,60.24096386,3,1,2,0.014322917,-0.0078125,1,0,0,1.3887,rock_grid_rect_2,1,14,-1,-1,1.389,0.1484375,-0.23828125,1,0,0,1.3344,Diorite_rect,3,1.334,0,1,0,1,0,1,,,,,,,,,,,,,
66555f0de9cdf0c596d5a7aa,TCR,2024-06-24_11h47.03.038,LearnStrategy,2023.2.3,Win32,60.24096386,3,1,3,-0.053385417,-0.01171875,1,0,0,1.119,rock_grid_rect_2,7,15,-1,-1,1.119,-0.115885417,-0.393229167,1,0,0,2.3077,Pegmatite_rect,6,2.308,0,2,0,2,0,1,,,,,,,,,,,,,
66555f0de9cdf0c596d5a7aa,TCR,2024-06-24_11h47.03.038,LearnStrategy,2023.2.3,Win32,60.24096386,3,1,4,0.005208333,0,1,0,0,0.8614,rock_grid_rect_2,4,03,-1,-1,0.861,0.106770833,-0.388020833,1,0,0,5.3127,Peridotite_rect,7,5.313,0,3,0,3,0,1,,,,,,,,,,,,,
66555f0de9cdf0c596d5a7aa,TCR,2024-06-24_11h47.03.038,LearnStrategy,2023.2.3,Win32,60.24096386,3,1,5,0.05078125,0.01953125,1,0,0,1.159,rock_grid_rect_2,1,05,-1,-1,1.159,-0.359375,-0.24609375,1,0,0,3.8273,Andesite_rect,1,3.827,1,4,0,4,0,1,,,,,,,,,,,,,
66555f0de9cdf0c596d5a7aa,TCR,2024-06-24_11h47.03.038,LearnStrategy,2023.2.3,Win32,60.24096386,3,1,6,-0.005208333,-0.002604167,1,0,0,1.209,rock_grid_rect_2,4,03,-1,-1,1.209,0.08203125,-0.384114583,1,0,0,6.9608,Peridotite_rect,7,6.961,0,5,0,5,0,1,,,,,,,,,,,,,
66555f0de9cdf0c596d5a7aa,TCR,2024-06-24_11h47.03.038,LearnStrategy,2023.2.3,Win32,60.24096386,3,1,7,-0.005208333,-0.005208333,1,0,0,1.397,rock_grid_rect_2,1,01,-1,-1,1.397,-0.364583333,-0.40625,1,0,0,3.2713,Obsidian_rect,5,3.271,0,6,0,6,0,1,,,,,,,,,,,,,
66555f0de9cdf0c596d5a7aa,TCR,2024-06-24_11h47.03.038,LearnStrategy,2023.2.3,Win32,60.24096386,3,1,8,-0.022135417,-0.006510417,1,0,0,1.0937,rock_grid_rect_2,3,16,-1,-1,1.094,0.154947917,-0.25,1,0,0,1.274,Diorite_rect,3,1.274,1,7,0,7,0,1,,,,,,,,,,,,,
66555f0de9cdf0c596d5a7aa,TCR,2024-06-24_11h47.03.038,LearnStrategy,2023.2.3,Win32,60.24096386,3,1,9,-0.057291667,-0.001302083,1,0,0,0.9597,rock_grid_rect_2,6,06,-1,-1,0.96,0.372395833,-0.259114583,1,0,0,7.3092,Gabbro_rect,4,7.309,0,8,0,8,0,1,,,,,,,,,,,,,
66555f0de9cdf0c596d5a7aa,TCR,2024-06-24_11h47.03.038,LearnStrategy,2023.2.3,Win32,60.24096386,3,1,10,0.095052083,0.009114583,1,0,0,1.3772,rock_grid_rect_2,2,10,-1,-1,1.377,-0.122395833,-0.247395833,1,0,0,1.6872,Basalt_rect,2,1.687,1,9,0,9,0,1,,,,,,,,,,,,,
66555f0de9cdf0c596d5a7aa,TCR,2024-06-24_11h47.03.038,LearnStrategy,2023.2.3,Win32,60.24096386,3,1,11,-0.033854167,0.002604167,1,0,0,1.0493,rock_grid_rect_2,7,13,-1,-1,1.049,-0.141927083,-0.385416667,1,0,0,2.7096,Pegmatite_rect,6,2.71,0,10,0,10,0,1,,,,,,,,,,,,,
66555f0de9cdf0c596d5a7aa,TCR,2024-06-24_11h47.03.038,LearnStrategy,2023.2.3,Win32,60.24096386,3,1,12,-0.002604167,0,1,0,0,0.9599,rock_grid_rect_2,7,15,-1,-1,0.96,-0.071614583,-0.3828125,1,0,0,1.3329,Pegmatite_rect,6,1.333,0,11,0,11,0,1,,,,,,,,,,,,,
66555f0de9cdf0c596d5a7aa,TCR,2024-06-24_11h47.03.038,LearnStrategy,2023.2.3,Win32,60.24096386,3,1,13,-0.013020833,0.013020833,1,0,0,0.7648,rock_grid_rect_2,2,16,-1,-1,0.765,-0.12890625,-0.233072917,1,0,0,1.31,Basalt_rect,2,1.31,1,12,0,12,0,1,,,,,,,,,,,,,
66555f0de9cdf0c596d5a7aa,TCR,2024-06-24_11h47.03.038,LearnStrategy,2023.2.3,Win32,60.24096386,3,1,14,0.01171875,0.022135417,1,0,0,0.8262,rock_grid_rect_2,7,14,-1,-1,0.826,0.088541667,-0.381510417,1,0,0,2.6697,Peridotite_rect,7,2.67,1,13,0,13,0,1,,,,,,,,,,,,,
66555f0de9cdf0c596d5a7aa,TCR,2024-06-24_11h47.03.038,LearnStrategy,2023.2.3,Win32,60.24096386,3,1,15,0.033854167,-0.01953125,1,0,0,0.9826,rock_grid_rect_2,6,15,-1,-1,0.983,-0.071614583,-0.404947917,1,0,0,6.3167,Pegmatite_rect,6,6.317,1,14,0,14,0,1,,,,,,,,,,,,,
66555f0de9cdf0c596d5a7aa,TCR,2024-06-24_11h47.03.038,LearnStrategy,2023.2.3,Win32,60.24096386,3,1,16,-0.01953125,0.001302083,1,0,0,0.9756,rock_grid_rect_2,6,16,-1,-1,0.976,-0.088541667,-0.233072917,1,0,0,3.0631,Basalt_rect,2,3.063,0,15,0,15,0,1,,,,,,,,,,,,,
66555f0de9cdf0c596d5a7aa,TCR,2024-06-24_11h47.03.038,LearnStrategy,2023.2.3,Win32,60.24096386,3,2,1,,,,,,,,3,06,,,,,,,,,,,1,8.169,0,,,,,,-0.423177083,-0.236979167,1,0,0,8.1687,Andesite_rect,0,0,0,0,1,
66555f0de9cdf0c596d5a7aa,TCR,2024-06-24_11h47.03.038,LearnStrategy,2023.2.3,Win32,60.24096386,3,2,2,,,,,,,,6,10,,,,,,,,,,,6,1.934,1,,,,,,-0.09375,-0.384114583,1,0,0,1.9338,Pegmatite_rect,1,0,1,0,1,
66555f0de9cdf0c596d5a7aa,TCR,2024-06-24_11h47.03.038,LearnStrategy,2023.2.3,Win32,60.24096386,3,2,3,,,,,,,,5,02,,,,,,,,,,,5,1.237,1,,,,,,-0.385416667,-0.39453125,1,0,0,1.2373,Obsidian_rect,2,0,2,0,1,
66555f0de9cdf0c596d5a7aa,TCR,2024-06-24_11h47.03.038,LearnStrategy,2023.2.3,Win32,60.24096386,3,2,4,,,,,,,,7,07,,,,,,,,,,,7,3.099,1,,,,,,0.096354167,-0.388020833,1,0,0,3.0994,Peridotite_rect,3,0,3,0,1,
66555f0de9cdf0c596d5a7aa,TCR,2024-06-24_11h47.03.038,LearnStrategy,2023.2.3,Win32,60.24096386,3,2,5,,,,,,,,2,14,,,,,,,,,,,8,2.281,0,,,,,,0.377604167,-0.397135417,1,0,0,2.2806,Pumice_rect,4,0,4,0,1,
66555f0de9cdf0c596d5a7aa,TCR,2024-06-24_11h47.03.038,LearnStrategy,2023.2.3,Win32,60.24096386,3,2,6,,,,,,,,3,15,,,,,,,,,,,1,4.055,0,,,,,,-0.4453125,-0.256510417,1,0,0,4.0552,Andesite_rect,5,0,5,0,1,
66555f0de9cdf0c596d5a7aa,TCR,2024-06-24_11h47.03.038,LearnStrategy,2023.2.3,Win32,60.24096386,3,2,7,,,,,,,,1,06,,,,,,,,,,,2,4.246,0,,,,,,-0.166666667,-0.2421875,1,0,0,4.2456,Basalt_rect,6,0,6,0,1,
66555f0de9cdf0c596d5a7aa,TCR,2024-06-24_11h47.03.038,LearnStrategy,2023.2.3,Win32,60.24096386,3,2,8,,,,,,,,8,14,,,,,,,,,,,8,1.432,1,,,,,,0.338541667,-0.384114583,1,0,0,1.4315,Pumice_rect,7,0,7,0,1,
66555f0de9cdf0c596d5a7aa,TCR,2024-06-24_11h47.03.038,LearnStrategy,2023.2.3,Win32,60.24096386,3,2,9,,,,,,,,1,04,,,,,,,,,,,4,1.525,0,,,,,,0.350260417,-0.234375,1,0,0,1.5249,Gabbro_rect,8,0,8,0,1,
66555f0de9cdf0c596d5a7aa,TCR,2024-06-24_11h47.03.038,LearnStrategy,2023.2.3,Win32,60.24096386,3,2,10,,,,,,,,4,09,,,,,,,,,,,4,1.846,1,,,,,,0.350260417,-0.234375,1,0,0,1.8465,Gabbro_rect,9,0,9,0,1,
66555f0de9cdf0c596d5a7aa,TCR,2024-06-24_11h47.03.038,LearnStrategy,2023.2.3,Win32,60.24096386,3,2,11,,,,,,,,4,08,,,,,,,,,,,2,1.861,0,,,,,,-0.080729167,-0.239583333,1,0,0,1.8613,Basalt_rect,10,0,10,0,1,
66555f0de9cdf0c596d5a7aa,TCR,2024-06-24_11h47.03.038,LearnStrategy,2023.2.3,Win32,60.24096386,3,2,12,,,,,,,,8,04,,,,,,,,,,,8,1.216,1,,,,,,0.341145833,-0.389322917,1,0,0,1.2162,Pumice_rect,11,0,11,0,1,
66555f0de9cdf0c596d5a7aa,TCR,2024-06-24_11h47.03.038,LearnStrategy,2023.2.3,Win32,60.24096386,3,2,13,,,,,,,,6,12,,,,,,,,,,,3,2.223,0,,,,,,0.130208333,-0.251302083,1,0,0,2.2227,Diorite_rect,12,0,12,0,1,
66555f0de9cdf0c596d5a7aa,TCR,2024-06-24_11h47.03.038,LearnStrategy,2023.2.3,Win32,60.24096386,3,2,14,,,,,,,,7,12,,,,,,,,,,,6,1.447,0,,,,,,-0.118489583,-0.399739583,1,0,0,1.4468,Pegmatite_rect,13,0,13,0,1,
66555f0de9cdf0c596d5a7aa,TCR,2024-06-24_11h47.03.038,LearnStrategy,2023.2.3,Win32,60.24096386,3,2,15,,,,,,,,5,06,,,,,,,,,,,5,1.427,1,,,,,,-0.368489583,-0.411458333,1,0,0,1.4269,Obsidian_rect,14,0,14,0,1,
66555f0de9cdf0c596d5a7aa,TCR,2024-06-24_11h47.03.038,LearnStrategy,2023.2.3,Win32,60.24096386,3,2,16,,,,,,,,2,11,,,,,,,,,,,8,1.736,0,,,,,,0.345052083,-0.384114583,1,0,0,1.736,Pumice_rect,15,0,15,0,1,
66555f0de9cdf0c596d5a7aa,TCR,2024-06-24_11h47.03.038,LearnStrategy,2023.2.3,Win32,60.24096386,4,1,1,0,0.016927083,1,0,0,1.6964,rock_grid_rect_2,3,10,-1,-1,1.696,0.149739583,-0.380208333,1,0,0,9.5131,Peridotite_rect,7,9.513,0,0,0,0,0,1,,,,,,,,,,,,,
66555f0de9cdf0c596d5a7aa,TCR,2024-06-24_11h47.03.038,LearnStrategy,2023.2.3,Win32,60.24096386,4,1,2,-0.016927083,-0.013020833,1,0,0,1.0753,rock_grid_rect_2,1,01,-1,-1,1.075,-0.415364583,-0.239583333,1,0,0,3.08,Andesite_rect,1,3.08,1,1,0,1,0,1,,,,,,,,,,,,,
66555f0de9cdf0c596d5a7aa,TCR,2024-06-24_11h47.03.038,LearnStrategy,2023.2.3,Win32,60.24096386,4,1,3,-0.022135417,-0.00390625,1,0,0,1.4773,rock_grid_rect_2,2,01,-1,-1,1.477,-0.1015625,-0.240885417,1,0,0,1.5769,Basalt_rect,2,1.577,1,2,0,2,0,1,,,,,,,,,,,,,
66555f0de9cdf0c596d5a7aa,TCR,2024-06-24_11h47.03.038,LearnStrategy,2023.2.3,Win32,60.24096386,4,1,4,-0.0078125,-0.016927083,1,0,0,1.248,rock_grid_rect_2,2,02,-1,-1,1.248,-0.1328125,-0.240885417,1,0,0,1.8528,Basalt_rect,2,1.853,1,3,0,3,0,1,,,,,,,,,,,,,
66555f0de9cdf0c596d5a7aa,TCR,2024-06-24_11h47.03.038,LearnStrategy,2023.2.3,Win32,60.24096386,4,1,5,0,-0.016927083,1,0,0,1.3608,rock_grid_rect_2,2,01,-1,-1,1.361,-0.10546875,-0.248697917,1,0,0,1.273,Basalt_rect,2,1.273,1,4,0,4,0,1,,,,,,,,,,,,,
66555f0de9cdf0c596d5a7aa,TCR,2024-06-24_11h47.03.038,LearnStrategy,2023.2.3,Win32,60.24096386,4,1,6,-0.016927083,-0.009114583,1,0,0,0.9282,rock_grid_rect_2,7,13,-1,-1,0.928,-0.12109375,-0.3984375,1,0,0,1.8814,Pegmatite_rect,6,1.881,0,5,0,5,0,1,,,,,,,,,,,,,
66555f0de9cdf0c596d5a7aa,TCR,2024-06-24_11h47.03.038,LearnStrategy,2023.2.3,Win32,60.24096386,4,1,7,-0.0234375,-0.00390625,1,0,0,0.9261,rock_grid_rect_2,7,02,-1,-1,0.926,0.10546875,-0.38671875,1,0,0,1.1647,Peridotite_rect,7,1.165,1,6,0,6,0,1,,,,,,,,,,,,,
66555f0de9cdf0c596d5a7aa,TCR,2024-06-24_11h47.03.038,LearnStrategy,2023.2.3,Win32,60.24096386,4,1,8,0.01953125,0.005208333,1,0,0,0.8675,rock_grid_rect_2,1,02,-1,-1,0.867,0.34375,-0.248697917,1,0,0,4.2441,Gabbro_rect,4,4.244,0,7,0,7,0,1,,,,,,,,,,,,,
66555f0de9cdf0c596d5a7aa,TCR,2024-06-24_11h47.03.038,LearnStrategy,2023.2.3,Win32,60.24096386,4,1,9,-0.006510417,-0.00390625,1,0,0,0.9805,rock_grid_rect_2,7,05,-1,-1,0.981,0.102864583,-0.404947917,1,0,0,4.4354,Peridotite_rect,7,4.435,1,8,0,8,0,1,,,,,,,,,,,,,
66555f0de9cdf0c596d5a7aa,TCR,2024-06-24_11h47.03.038,LearnStrategy,2023.2.3,Win32,60.24096386,4,1,10,0.020833333,0.009114583,1,0,0,0.9148,rock_grid_rect_2,4,14,-1,-1,0.915,0.372395833,-0.229166667,1,0,0,1.941,Gabbro_rect,4,1.941,1,9,0,9,0,1,,,,,,,,,,,,,
66555f0de9cdf0c596d5a7aa,TCR,2024-06-24_11h47.03.038,LearnStrategy,2023.2.3,Win32,60.24096386,4,1,11,0.00390625,-0.009114583,1,0,0,0.9753,rock_grid_rect_2,1,14,-1,-1,0.975,0.131510417,-0.26171875,1,0,0,3.1912,Diorite_rect,3,3.191,0,10,0,10,0,1,,,,,,,,,,,,,
66555f0de9cdf0c596d5a7aa,TCR,2024-06-24_11h47.03.038,LearnStrategy,2023.2.3,Win32,60.24096386,4,1,12,0.00390625,-0.009114583,1,0,0,0.8801,rock_grid_rect_2,4,01,-1,-1,0.88,-0.309895833,-0.236979167,1,0,0,1.9422,Andesite_rect,1,1.942,0,11,0,11,0,1,,,,,,,,,,,,,
66555f0de9cdf0c596d5a7aa,TCR,2024-06-24_11h47.03.038,LearnStrategy,2023.2.3,Win32,60.24096386,4,1,13,0.02734375,0.0234375,1,0,0,0.7827,rock_grid_rect_2,6,06,-1,-1,0.783,-0.348958333,-0.264322917,1,0,0,4.7207,Andesite_rect,1,4.721,0,12,0,12,0,1,,,,,,,,,,,,,
66555f0de9cdf0c596d5a7aa,TCR,2024-06-24_11h47.03.038,LearnStrategy,2023.2.3,Win32,60.24096386,4,1,14,-0.013020833,-0.010416667,1,0,0,1.0284,rock_grid_rect_2,6,09,-1,-1,1.028,-0.13671875,-0.401041667,1,0,0,1.3672,Pegmatite_rect,6,1.367,1,13,0,13,0,1,,,,,,,,,,,,,
66555f0de9cdf0c596d5a7aa,TCR,2024-06-24_11h47.03.038,LearnStrategy,2023.2.3,Win32,60.24096386,4,1,15,-0.028645833,0.005208333,1,0,0,0.8605,rock_grid_rect_2,3,10,-1,-1,0.861,0.114583333,-0.243489583,1,0,0,3.4749,Diorite_rect,3,3.475,1,14,0,14,0,1,,,,,,,,,,,,,
66555f0de9cdf0c596d5a7aa,TCR,2024-06-24_11h47.03.038,LearnStrategy,2023.2.3,Win32,60.24096386,4,1,16,-0.00390625,-0.00390625,1,0,0,0.9844,rock_grid_rect_2,8,13,-1,-1,0.984,0.416666667,-0.40234375,1,0,0,1.5915,Pumice_rect,8,1.591,1,15,0,15,0,1,,,,,,,,,,,,,
66555f0de9cdf0c596d5a7aa,TCR,2024-06-24_11h47.03.038,LearnStrategy,2023.2.3,Win32,60.24096386,4,2,1,,,,,,,,3,02,,,,,,,,,,,3,1.558,1,,,,,,0.12109375,-0.240885417,1,0,0,1.558,Diorite_rect,0,0,0,0,1,
66555f0de9cdf0c596d5a7aa,TCR,2024-06-24_11h47.03.038,LearnStrategy,2023.2.3,Win32,60.24096386,4,2,2,,,,,,,,3,08,,,,,,,,,,,3,1.057,1,,,,,,0.119791667,-0.240885417,1,0,0,1.057,Diorite_rect,1,0,1,0,1,
66555f0de9cdf0c596d5a7aa,TCR,2024-06-24_11h47.03.038,LearnStrategy,2023.2.3,Win32,60.24096386,4,2,3,,,,,,,,8,10,,,,,,,,,,,8,1.336,1,,,,,,0.43359375,-0.388020833,1,0,0,1.3357,Pumice_rect,2,0,2,0,1,
66555f0de9cdf0c596d5a7aa,TCR,2024-06-24_11h47.03.038,LearnStrategy,2023.2.3,Win32,60.24096386,4,2,4,,,,,,,,7,08,,,,,,,,,,,7,5.753,1,,,,,,0.125,-0.403645833,1,0,0,5.7529,Peridotite_rect,3,0,3,0,1,
66555f0de9cdf0c596d5a7aa,TCR,2024-06-24_11h47.03.038,LearnStrategy,2023.2.3,Win32,60.24096386,4,2,5,,,,,,,,4,08,,,,,,,,,,,4,3.961,1,,,,,,0.372395833,-0.247395833,1,0,0,3.961,Gabbro_rect,4,0,4,0,1,
66555f0de9cdf0c596d5a7aa,TCR,2024-06-24_11h47.03.038,LearnStrategy,2023.2.3,Win32,60.24096386,4,2,6,,,,,,,,1,03,,,,,,,,,,,2,1.309,0,,,,,,-0.075520833,-0.25,1,0,0,1.3087,Basalt_rect,5,0,5,0,1,
66555f0de9cdf0c596d5a7aa,TCR,2024-06-24_11h47.03.038,LearnStrategy,2023.2.3,Win32,60.24096386,4,2,7,,,,,,,,2,14,,,,,,,,,,,8,1.587,0,,,,,,0.41015625,-0.4140625,1,0,0,1.5868,Pumice_rect,6,0,6,0,1,
66555f0de9cdf0c596d5a7aa,TCR,2024-06-24_11h47.03.038,LearnStrategy,2023.2.3,Win32,60.24096386,4,2,8,,,,,,,,8,04,,,,,,,,,,,8,1.24,1,,,,,,0.411458333,-0.4140625,1,0,0,1.2404,Pumice_rect,7,0,7,0,1,
66555f0de9cdf0c596d5a7aa,TCR,2024-06-24_11h47.03.038,LearnStrategy,2023.2.3,Win32,60.24096386,4,2,9,,,,,,,,5,06,,,,,,,,,,,5,1.689,1,,,,,,-0.388020833,-0.403645833,1,0,0,1.6889,Obsidian_rect,8,0,8,0,1,
66555f0de9cdf0c596d5a7aa,TCR,2024-06-24_11h47.03.038,LearnStrategy,2023.2.3,Win32,60.24096386,4,2,10,,,,,,,,6,08,,,,,,,,,,,6,6.507,1,,,,,,-0.135416667,-0.384114583,1,0,0,6.5072,Pegmatite_rect,9,0,9,0,1,
66555f0de9cdf0c596d5a7aa,TCR,2024-06-24_11h47.03.038,LearnStrategy,2023.2.3,Win32,60.24096386,4,2,11,,,,,,,,4,05,,,,,,,,,,,7,1.836,0,,,,,,0.119791667,-0.384114583,1,0,0,1.8363,Peridotite_rect,10,0,10,0,1,
66555f0de9cdf0c596d5a7aa,TCR,2024-06-24_11h47.03.038,LearnStrategy,2023.2.3,Win32,60.24096386,4,2,12,,,,,,,,2,04,,,,,,,,,,,2,2.554,1,,,,,,-0.118489583,-0.243489583,1,0,0,2.5539,Basalt_rect,11,0,11,0,1,
66555f0de9cdf0c596d5a7aa,TCR,2024-06-24_11h47.03.038,LearnStrategy,2023.2.3,Win32,60.24096386,4,2,13,,,,,,,,1,16,,,,,,,,,,,1,1.764,1,,,,,,-0.399739583,-0.243489583,1,0,0,1.7635,Andesite_rect,12,0,12,0,1,
66555f0de9cdf0c596d5a7aa,TCR,2024-06-24_11h47.03.038,LearnStrategy,2023.2.3,Win32,60.24096386,4,2,14,,,,,,,,6,03,,,,,,,,,,,6,1.742,1,,,,,,-0.130208333,-0.403645833,1,0,0,1.7417,Pegmatite_rect,13,0,13,0,1,
66555f0de9cdf0c596d5a7aa,TCR,2024-06-24_11h47.03.038,LearnStrategy,2023.2.3,Win32,60.24096386,4,2,15,,,,,,,,5,16,,,,,,,,,,,5,1.264,1,,,,,,-0.360677083,-0.393229167,1,0,0,1.2636,Obsidian_rect,14,0,14,0,1,
66555f0de9cdf0c596d5a7aa,TCR,2024-06-24_11h47.03.038,LearnStrategy,2023.2.3,Win32,60.24096386,4,2,16,,,,,,,,7,10,,,,,,,,,,,7,2.904,1,,,,,,0.130208333,-0.388020833,1,0,0,2.9039,Peridotite_rect,15,0,15,0,1,
66555f0de9cdf0c596d5a7aa,TCR,2024-06-24_11h47.03.038,LearnStrategy,2023.2.3,Win32,60.24096386,5,1,1,-0.041666667,0.010416667,1,0,0,1.1342,rock_grid_rect_2,2,02,-1,-1,1.134,-0.135416667,-0.2421875,1,0,0,3.0803,Basalt_rect,2,3.08,1,0,0,0,0,1,,,,,,,,,,,,,
66555f0de9cdf0c596d5a7aa,TCR,2024-06-24_11h47.03.038,LearnStrategy,2023.2.3,Win32,60.24096386,5,1,2,-0.001302083,0.002604167,1,0,0,1.8347,rock_grid_rect_2,7,05,-1,-1,1.835,0.139322917,-0.39453125,1,0,0,2.1772,Peridotite_rect,7,2.177,1,1,0,1,0,1,,,,,,,,,,,,,
66555f0de9cdf0c596d5a7aa,TCR,2024-06-24_11h47.03.038,LearnStrategy,2023.2.3,Win32,60.24096386,5,1,3,-0.009114583,-0.002604167,1,0,0,1.1921,rock_grid_rect_2,4,13,-1,-1,1.192,0.369791667,-0.247395833,1,0,0,3.4484,Gabbro_rect,4,3.448,1,2,0,2,0,1,,,,,,,,,,,,,
66555f0de9cdf0c596d5a7aa,TCR,2024-06-24_11h47.03.038,LearnStrategy,2023.2.3,Win32,60.24096386,5,1,4,-0.01171875,0.022135417,1,0,0,0.9737,rock_grid_rect_2,3,10,-1,-1,0.974,-0.391927083,-0.23046875,1,0,0,1.9852,Andesite_rect,1,1.985,0,3,0,3,0,1,,,,,,,,,,,,,
66555f0de9cdf0c596d5a7aa,TCR,2024-06-24_11h47.03.038,LearnStrategy,2023.2.3,Win32,60.24096386,5,1,5,0.006510417,0.001302083,1,0,0,0.8502,rock_grid_rect_2,7,05,-1,-1,0.85,0.139322917,-0.385416667,1,0,0,1.4045,Peridotite_rect,7,1.404,1,4,0,4,0,1,,,,,,,,,,,,,
66555f0de9cdf0c596d5a7aa,TCR,2024-06-24_11h47.03.038,LearnStrategy,2023.2.3,Win32,60.24096386,5,1,6,-0.016927083,-0.015625,1,0,0,0.9603,rock_grid_rect_2,1,05,-1,-1,0.96,0.149739583,-0.40234375,1,0,0,1.5186,Peridotite_rect,7,1.519,0,5,0,5,0,1,,,,,,,,,,,,,
66555f0de9cdf0c596d5a7aa,TCR,2024-06-24_11h47.03.038,LearnStrategy,2023.2.3,Win32,60.24096386,5,1,7,0.009114583,-0.009114583,1,0,0,1.0003,rock_grid_rect_2,2,09,-1,-1,1,-0.114583333,-0.251302083,1,0,0,1.3114,Basalt_rect,2,1.311,1,6,0,6,0,1,,,,,,,,,,,,,
66555f0de9cdf0c596d5a7aa,TCR,2024-06-24_11h47.03.038,LearnStrategy,2023.2.3,Win32,60.24096386,5,1,8,-0.044270833,0,1,0,0,1.0452,rock_grid_rect_2,6,06,-1,-1,1.045,0.390625,-0.239583333,1,0,0,6.6001,Gabbro_rect,4,6.6,0,7,0,7,0,1,,,,,,,,,,,,,
66555f0de9cdf0c596d5a7aa,TCR,2024-06-24_11h47.03.038,LearnStrategy,2023.2.3,Win32,60.24096386,5,1,9,-0.036458333,-0.01171875,1,0,0,0.8989,rock_grid_rect_2,3,11,-1,-1,0.899,0.118489583,-0.23828125,1,0,0,1.4014,Diorite_rect,3,1.401,1,8,0,8,0,1,,,,,,,,,,,,,
66555f0de9cdf0c596d5a7aa,TCR,2024-06-24_11h47.03.038,LearnStrategy,2023.2.3,Win32,60.24096386,5,1,10,-0.015625,0.005208333,1,0,0,0.8269,rock_grid_rect_2,4,01,-1,-1,0.827,-0.3671875,-0.240885417,1,0,0,2.553,Andesite_rect,1,2.553,0,9,0,9,0,1,,,,,,,,,,,,,
66555f0de9cdf0c596d5a7aa,TCR,2024-06-24_11h47.03.038,LearnStrategy,2023.2.3,Win32,60.24096386,5,1,11,-0.022135417,0,1,0,0,0.8128,rock_grid_rect_2,5,07,-1,-1,0.813,-0.368489583,-0.412760417,1,0,0,1.1053,Obsidian_rect,5,1.105,1,10,0,10,0,1,,,,,,,,,,,,,
66555f0de9cdf0c596d5a7aa,TCR,2024-06-24_11h47.03.038,LearnStrategy,2023.2.3,Win32,60.24096386,5,1,12,-0.01171875,0.005208333,1,0,0,0.9311,rock_grid_rect_2,6,15,-1,-1,0.931,-0.102864583,-0.407552083,1,0,0,4.0877,Pegmatite_rect,6,4.088,1,11,0,11,0,1,,,,,,,,,,,,,
66555f0de9cdf0c596d5a7aa,TCR,2024-06-24_11h47.03.038,LearnStrategy,2023.2.3,Win32,60.24096386,5,1,13,-0.01953125,-0.001302083,1,0,0,1.2403,rock_grid_rect_2,8,05,-1,-1,1.24,0.390625,-0.39453125,1,0,0,1.4045,Pumice_rect,8,1.404,1,12,0,12,0,1,,,,,,,,,,,,,
66555f0de9cdf0c596d5a7aa,TCR,2024-06-24_11h47.03.038,LearnStrategy,2023.2.3,Win32,60.24096386,5,1,14,-0.00390625,-0.010416667,1,0,0,0.9241,rock_grid_rect_2,1,10,-1,-1,0.924,0.39453125,-0.391927083,1,0,0,5.9748,Pumice_rect,8,5.975,0,13,0,13,0,1,,,,,,,,,,,,,
66555f0de9cdf0c596d5a7aa,TCR,2024-06-24_11h47.03.038,LearnStrategy,2023.2.3,Win32,60.24096386,5,1,15,-0.032552083,-0.009114583,1,0,0,1.0257,rock_grid_rect_2,2,10,-1,-1,1.026,-0.151041667,-0.239583333,1,0,0,1.4419,Basalt_rect,2,1.442,1,14,0,14,0,1,,,,,,,,,,,,,
66555f0de9cdf0c596d5a7aa,TCR,2024-06-24_11h47.03.038,LearnStrategy,2023.2.3,Win32,60.24096386,5,1,16,-0.002604167,-0.001302083,1,0,0,1.0062,rock_grid_rect_2,1,14,-1,-1,1.006,-0.381510417,-0.2578125,1,0,0,3.6222,Andesite_rect,1,3.622,1,15,0,15,0,1,,,,,,,,,,,,,
66555f0de9cdf0c596d5a7aa,TCR,2024-06-24_11h47.03.038,LearnStrategy,2023.2.3,Win32,60.24096386,5,2,1,,,,,,,,8,14,,,,,,,,,,,8,1.363,1,,,,,,0.358072917,-0.39453125,1,0,0,1.3634,Pumice_rect,0,0,0,0,1,
66555f0de9cdf0c596d5a7aa,TCR,2024-06-24_11h47.03.038,LearnStrategy,2023.2.3,Win32,60.24096386,5,2,2,,,,,,,,4,15,,,,,,,,,,,4,3.589,1,,,,,,0.328125,-0.244791667,1,0,0,3.5886,Gabbro_rect,1,0,1,0,1,
66555f0de9cdf0c596d5a7aa,TCR,2024-06-24_11h47.03.038,LearnStrategy,2023.2.3,Win32,60.24096386,5,2,3,,,,,,,,3,15,,,,,,,,,,,1,3.536,0,,,,,,-0.38671875,-0.248697917,1,0,0,3.536,Andesite_rect,2,0,2,0,1,
66555f0de9cdf0c596d5a7aa,TCR,2024-06-24_11h47.03.038,LearnStrategy,2023.2.3,Win32,60.24096386,5,2,4,,,,,,,,6,10,,,,,,,,,,,6,1.233,1,,,,,,-0.102864583,-0.404947917,1,0,0,1.2334,Pegmatite_rect,3,0,3,0,1,
66555f0de9cdf0c596d5a7aa,TCR,2024-06-24_11h47.03.038,LearnStrategy,2023.2.3,Win32,60.24096386,5,2,5,,,,,,,,3,06,,,,,,,,,,,3,3.803,1,,,,,,0.114583333,-0.247395833,1,0,0,3.8028,Diorite_rect,4,0,4,0,1,
66555f0de9cdf0c596d5a7aa,TCR,2024-06-24_11h47.03.038,LearnStrategy,2023.2.3,Win32,60.24096386,5,2,6,,,,,,,,1,06,,,,,,,,,,,1,2.509,1,,,,,,-0.375,-0.240885417,1,0,0,2.509,Andesite_rect,5,0,5,0,1,
66555f0de9cdf0c596d5a7aa,TCR,2024-06-24_11h47.03.038,LearnStrategy,2023.2.3,Win32,60.24096386,5,2,7,,,,,,,,2,08,,,,,,,,,,,2,1.121,1,,,,,,-0.1796875,-0.235677083,1,0,0,1.1209,Basalt_rect,6,0,6,0,1,
66555f0de9cdf0c596d5a7aa,TCR,2024-06-24_11h47.03.038,LearnStrategy,2023.2.3,Win32,60.24096386,5,2,8,,,,,,,,5,09,,,,,,,,,,,5,2.284,1,,,,,,-0.39453125,-0.399739583,1,0,0,2.2839,Obsidian_rect,7,0,7,0,1,
66555f0de9cdf0c596d5a7aa,TCR,2024-06-24_11h47.03.038,LearnStrategy,2023.2.3,Win32,60.24096386,5,2,9,,,,,,,,8,08,,,,,,,,,,,8,2.169,1,,,,,,0.372395833,-0.3984375,1,0,0,2.1688,Pumice_rect,8,0,8,0,1,
66555f0de9cdf0c596d5a7aa,TCR,2024-06-24_11h47.03.038,LearnStrategy,2023.2.3,Win32,60.24096386,5,2,10,,,,,,,,5,05,,,,,,,,,,,5,1.981,1,,,,,,-0.348958333,-0.4140625,1,0,0,1.9806,Obsidian_rect,9,0,9,0,1,
66555f0de9cdf0c596d5a7aa,TCR,2024-06-24_11h47.03.038,LearnStrategy,2023.2.3,Win32,60.24096386,5,2,11,,,,,,,,7,07,,,,,,,,,,,7,3.086,1,,,,,,0.140625,-0.408854167,1,0,0,3.0857,Peridotite_rect,10,0,10,0,1,
66555f0de9cdf0c596d5a7aa,TCR,2024-06-24_11h47.03.038,LearnStrategy,2023.2.3,Win32,60.24096386,5,2,12,,,,,,,,6,11,,,,,,,,,,,6,2.604,1,,,,,,-0.131510417,-0.395833333,1,0,0,2.6038,Pegmatite_rect,11,0,11,0,1,
66555f0de9cdf0c596d5a7aa,TCR,2024-06-24_11h47.03.038,LearnStrategy,2023.2.3,Win32,60.24096386,5,2,13,,,,,,,,4,09,,,,,,,,,,,4,5.054,1,,,,,,0.35546875,-0.23828125,1,0,0,5.0536,Gabbro_rect,12,0,12,0,1,
66555f0de9cdf0c596d5a7aa,TCR,2024-06-24_11h47.03.038,LearnStrategy,2023.2.3,Win32,60.24096386,5,2,14,,,,,,,,2,05,,,,,,,,,,,2,1.302,1,,,,,,-0.166666667,-0.270833333,1,0,0,1.3016,Basalt_rect,13,0,13,0,1,
66555f0de9cdf0c596d5a7aa,TCR,2024-06-24_11h47.03.038,LearnStrategy,2023.2.3,Win32,60.24096386,5,2,15,,,,,,,,7,06,,,,,,,,,,,7,1.246,1,,,,,,0.139322917,-0.391927083,1,0,0,1.2464,Peridotite_rect,14,0,14,0,1,
66555f0de9cdf0c596d5a7aa,TCR,2024-06-24_11h47.03.038,LearnStrategy,2023.2.3,Win32,60.24096386,5,2,16,,,,,,,,1,11,,,,,,,,,,,1,6.638,1,,,,,,-0.385416667,-0.25390625,1,0,0,6.6376,Andesite_rect,15,0,15,0,1,
66555f0de9cdf0c596d5a7aa,TCR,2024-06-24_11h47.03.038,LearnStrategy,2023.2.3,Win32,60.24096386,6,1,1,0.002604167,0,1,0,0,1.8287,rock_grid_rect_2,4,11,-1,-1,1.829,0.35546875,-0.260416667,1,0,0,7.5897,Gabbro_rect,4,7.59,1,0,0,0,0,1,,,,,,,,,,,,,
66555f0de9cdf0c596d5a7aa,TCR,2024-06-24_11h47.03.038,LearnStrategy,2023.2.3,Win32,60.24096386,6,1,2,-0.026041667,0.002604167,1,0,0,1.1588,rock_grid_rect_2,1,10,-1,-1,1.159,0.375,-0.2578125,1,0,0,4.3191,Gabbro_rect,4,4.319,0,1,0,1,0,1,,,,,,,,,,,,,
66555f0de9cdf0c596d5a7aa,TCR,2024-06-24_11h47.03.038,LearnStrategy,2023.2.3,Win32,60.24096386,6,1,3,0.065104167,0.00390625,1,0,0,1.0124,rock_grid_rect_2,4,10,-1,-1,1.012,-0.399739583,-0.2421875,1,0,0,2.418,Andesite_rect,1,2.418,0,2,0,2,0,1,,,,,,,,,,,,,
66555f0de9cdf0c596d5a7aa,TCR,2024-06-24_11h47.03.038,LearnStrategy,2023.2.3,Win32,60.24096386,6,1,4,0.014322917,-0.009114583,1,0,0,1.0815,rock_grid_rect_2,5,11,-1,-1,1.082,-0.381510417,-0.3828125,1,0,0,1.2392,Obsidian_rect,5,1.239,1,3,0,3,0,1,,,,,,,,,,,,,
66555f0de9cdf0c596d5a7aa,TCR,2024-06-24_11h47.03.038,LearnStrategy,2023.2.3,Win32,60.24096386,6,1,5,0.0390625,0.0078125,1,0,0,1.0936,rock_grid_rect_2,3,14,-1,-1,1.094,0.092447917,-0.25390625,1,0,0,1.4295,Diorite_rect,3,1.429,1,4,0,4,0,1,,,,,,,,,,,,,
66555f0de9cdf0c596d5a7aa,TCR,2024-06-24_11h47.03.038,LearnStrategy,2023.2.3,Win32,60.24096386,6,1,6,0.020833333,-0.016927083,1,0,0,1.1454,rock_grid_rect_2,3,16,-1,-1,1.145,0.13671875,-0.2578125,1,0,0,1.6677,Diorite_rect,3,1.668,1,5,0,5,0,1,,,,,,,,,,,,,
66555f0de9cdf0c596d5a7aa,TCR,2024-06-24_11h47.03.038,LearnStrategy,2023.2.3,Win32,60.24096386,6,1,7,-0.00390625,0.0078125,1,0,0,0.9398,rock_grid_rect_2,2,02,-1,-1,0.94,-0.127604167,-0.24609375,1,0,0,1.4161,Basalt_rect,2,1.416,1,6,0,6,0,1,,,,,,,,,,,,,
66555f0de9cdf0c596d5a7aa,TCR,2024-06-24_11h47.03.038,LearnStrategy,2023.2.3,Win32,60.24096386,6,1,8,-0.010416667,0.002604167,1,0,0,0.9116,rock_grid_rect_2,7,05,-1,-1,0.912,0.09765625,-0.412760417,1,0,0,2.2452,Peridotite_rect,7,2.245,1,7,0,7,0,1,,,,,,,,,,,,,
66555f0de9cdf0c596d5a7aa,TCR,2024-06-24_11h47.03.038,LearnStrategy,2023.2.3,Win32,60.24096386,6,1,9,0.001302083,0.005208333,1,0,0,0.8319,rock_grid_rect_2,6,15,-1,-1,0.832,-0.1484375,-0.389322917,1,0,0,2.9883,Pegmatite_rect,6,2.988,1,8,0,8,0,1,,,,,,,,,,,,,
66555f0de9cdf0c596d5a7aa,TCR,2024-06-24_11h47.03.038,LearnStrategy,2023.2.3,Win32,60.24096386,6,1,10,0.01171875,-0.002604167,1,0,0,0.8918,rock_grid_rect_2,3,16,-1,-1,0.892,0.12890625,-0.252604167,1,0,0,1.3778,Diorite_rect,3,1.378,1,9,0,9,0,1,,,,,,,,,,,,,
66555f0de9cdf0c596d5a7aa,TCR,2024-06-24_11h47.03.038,LearnStrategy,2023.2.3,Win32,60.24096386,6,1,11,-0.015625,0,1,0,0,0.9064,rock_grid_rect_2,1,14,-1,-1,0.906,-0.365885417,-0.243489583,1,0,0,2.0057,Andesite_rect,1,2.006,1,10,0,10,0,1,,,,,,,,,,,,,
66555f0de9cdf0c596d5a7aa,TCR,2024-06-24_11h47.03.038,LearnStrategy,2023.2.3,Win32,60.24096386,6,1,12,0.010416667,-0.0234375,1,0,0,0.8958,rock_grid_rect_2,8,02,-1,-1,0.896,0.361979167,-0.395833333,1,0,0,1.2674,Pumice_rect,8,1.267,1,11,0,11,0,1,,,,,,,,,,,,,
66555f0de9cdf0c596d5a7aa,TCR,2024-06-24_11h47.03.038,LearnStrategy,2023.2.3,Win32,60.24096386,6,1,13,-0.046875,0.00390625,1,0,0,1.1807,rock_grid_rect_2,2,09,-1,-1,1.181,-0.122395833,-0.260416667,1,0,0,1.2075,Basalt_rect,2,1.207,1,12,0,12,0,1,,,,,,,,,,,,,
66555f0de9cdf0c596d5a7aa,TCR,2024-06-24_11h47.03.038,LearnStrategy,2023.2.3,Win32,60.24096386,6,1,14,-0.033854167,-0.010416667,1,0,0,0.9438,rock_grid_rect_2,2,16,-1,-1,0.944,-0.067708333,-0.256510417,1,0,0,2.7383,Basalt_rect,2,2.738,1,13,0,13,0,1,,,,,,,,,,,,,
66555f0de9cdf0c596d5a7aa,TCR,2024-06-24_11h47.03.038,LearnStrategy,2023.2.3,Win32,60.24096386,6,1,15,-0.083333333,-0.0078125,1,0,0,0.8814,rock_grid_rect_2,1,01,-1,-1,0.881,-0.3515625,-0.2421875,1,0,0,3.4933,Andesite_rect,1,3.493,1,14,0,14,0,1,,,,,,,,,,,,,
66555f0de9cdf0c596d5a7aa,TCR,2024-06-24_11h47.03.038,LearnStrategy,2023.2.3,Win32,60.24096386,6,1,16,0.00390625,0.001302083,1,0,0,1.1987,rock_grid_rect_2,7,14,-1,-1,1.199,0.102864583,-0.408854167,1,0,0,3.0395,Peridotite_rect,7,3.04,1,15,0,15,0,1,,,,,,,,,,,,,
66555f0de9cdf0c596d5a7aa,TCR,2024-06-24_11h47.03.038,LearnStrategy,2023.2.3,Win32,60.24096386,6,2,1,,,,,,,,8,03,,,,,,,,,,,8,1.676,1,,,,,,0.38671875,-0.40234375,1,0,0,1.6755,Pumice_rect,0,0,0,0,1,
66555f0de9cdf0c596d5a7aa,TCR,2024-06-24_11h47.03.038,LearnStrategy,2023.2.3,Win32,60.24096386,6,2,2,,,,,,,,8,15,,,,,,,,,,,8,1.9,1,,,,,,0.407552083,-0.38671875,1,0,0,1.9004,Pumice_rect,1,0,1,0,1,
66555f0de9cdf0c596d5a7aa,TCR,2024-06-24_11h47.03.038,LearnStrategy,2023.2.3,Win32,60.24096386,6,2,3,,,,,,,,5,08,,,,,,,,,,,5,1.38,1,,,,,,-0.360677083,-0.40625,1,0,0,1.3796,Obsidian_rect,2,0,2,0,1,
66555f0de9cdf0c596d5a7aa,TCR,2024-06-24_11h47.03.038,LearnStrategy,2023.2.3,Win32,60.24096386,6,2,4,,,,,,,,2,11,,,,,,,,,,,4,4.816,0,,,,,,0.434895833,-0.247395833,1,0,0,4.8163,Gabbro_rect,3,0,3,0,1,
66555f0de9cdf0c596d5a7aa,TCR,2024-06-24_11h47.03.038,LearnStrategy,2023.2.3,Win32,60.24096386,6,2,5,,,,,,,,6,05,,,,,,,,,,,3,3.675,0,,,,,,0.08203125,-0.24609375,1,0,0,3.6747,Diorite_rect,4,0,4,0,1,
66555f0de9cdf0c596d5a7aa,TCR,2024-06-24_11h47.03.038,LearnStrategy,2023.2.3,Win32,60.24096386,6,2,6,,,,,,,,1,07,,,,,,,,,,,3,1.455,0,,,,,,0.143229167,-0.255208333,1,0,0,1.4549,Diorite_rect,5,0,5,0,1,
66555f0de9cdf0c596d5a7aa,TCR,2024-06-24_11h47.03.038,LearnStrategy,2023.2.3,Win32,60.24096386,6,2,7,,,,,,,,3,12,,,,,,,,,,,3,0.954,1,,,,,,0.134114583,-0.263020833,1,0,0,0.9544,Diorite_rect,6,0,6,0,1,
66555f0de9cdf0c596d5a7aa,TCR,2024-06-24_11h47.03.038,LearnStrategy,2023.2.3,Win32,60.24096386,6,2,8,,,,,,,,4,16,,,,,,,,,,,4,3.301,1,,,,,,0.43359375,-0.2578125,1,0,0,3.3005,Gabbro_rect,7,0,7,0,1,
66555f0de9cdf0c596d5a7aa,TCR,2024-06-24_11h47.03.038,LearnStrategy,2023.2.3,Win32,60.24096386,6,2,9,,,,,,,,4,12,,,,,,,,,,,1,4.341,0,,,,,,-0.376302083,-0.251302083,1,0,0,4.3407,Andesite_rect,8,0,8,0,1,
66555f0de9cdf0c596d5a7aa,TCR,2024-06-24_11h47.03.038,LearnStrategy,2023.2.3,Win32,60.24096386,6,2,10,,,,,,,,7,12,,,,,,,,,,,7,2.701,1,,,,,,0.143229167,-0.395833333,1,0,0,2.701,Peridotite_rect,9,0,9,0,1,
66555f0de9cdf0c596d5a7aa,TCR,2024-06-24_11h47.03.038,LearnStrategy,2023.2.3,Win32,60.24096386,6,2,11,,,,,,,,1,04,,,,,,,,,,,1,2.103,1,,,,,,-0.373697917,-0.256510417,1,0,0,2.103,Andesite_rect,10,0,10,0,1,
66555f0de9cdf0c596d5a7aa,TCR,2024-06-24_11h47.03.038,LearnStrategy,2023.2.3,Win32,60.24096386,6,2,12,,,,,,,,7,16,,,,,,,,,,,7,2.631,1,,,,,,0.149739583,-0.408854167,1,0,0,2.6315,Peridotite_rect,11,0,11,0,1,
66555f0de9cdf0c596d5a7aa,TCR,2024-06-24_11h47.03.038,LearnStrategy,2023.2.3,Win32,60.24096386,6,2,13,,,,,,,,3,13,,,,,,,,,,,3,4.298,1,,,,,,0.1328125,-0.263020833,1,0,0,4.2979,Diorite_rect,12,0,12,0,1,
66555f0de9cdf0c596d5a7aa,TCR,2024-06-24_11h47.03.038,LearnStrategy,2023.2.3,Win32,60.24096386,6,2,14,,,,,,,,6,12,,,,,,,,,,,3,0.985,0,,,,,,0.135416667,-0.263020833,1,0,0,0.9849,Diorite_rect,13,0,13,0,1,
66555f0de9cdf0c596d5a7aa,TCR,2024-06-24_11h47.03.038,LearnStrategy,2023.2.3,Win32,60.24096386,6,2,15,,,,,,,,2,12,,,,,,,,,,,8,1.155,0,,,,,,0.361979167,-0.419270833,1,0,0,1.1552,Pumice_rect,14,0,14,0,1,
66555f0de9cdf0c596d5a7aa,TCR,2024-06-24_11h47.03.038,LearnStrategy,2023.2.3,Win32,60.24096386,6,2,16,,,,,,,,5,02,,,,,,,,,,,5,1.367,1,,,,,,-0.36328125,-0.407552083,1,0,0,1.3671,Obsidian_rect,15,0,15,0,1,
66555f0de9cdf0c596d5a7aa,TCR,2024-06-24_11h47.03.038,LearnStrategy,2023.2.3,Win32,60.24096386,7,1,1,0.03125,0.01171875,1,0,0,1.0753,rock_grid_rect_2,2,10,-1,-1,1.075,-0.080729167,-0.255208333,1,0,0,2.6212,Basalt_rect,2,2.621,1,0,0,0,0,1,,,,,,,,,,,,,
66555f0de9cdf0c596d5a7aa,TCR,2024-06-24_11h47.03.038,LearnStrategy,2023.2.3,Win32,60.24096386,7,1,2,0.009114583,-0.013020833,1,0,0,1.7662,rock_grid_rect_2,3,10,-1,-1,1.766,-0.397135417,-0.25,1,0,0,3.5417,Andesite_rect,1,3.542,0,1,0,1,0,1,,,,,,,,,,,,,
66555f0de9cdf0c596d5a7aa,TCR,2024-06-24_11h47.03.038,LearnStrategy,2023.2.3,Win32,60.24096386,7,1,3,0,-0.01953125,1,0,0,0.8486,rock_grid_rect_2,4,11,-1,-1,0.849,0.307291667,-0.256510417,1,0,0,5.1994,Gabbro_rect,4,5.199,1,2,0,2,0,1,,,,,,,,,,,,,
66555f0de9cdf0c596d5a7aa,TCR,2024-06-24_11h47.03.038,LearnStrategy,2023.2.3,Win32,60.24096386,7,1,4,0.045572917,-0.010416667,1,0,0,0.9518,rock_grid_rect_2,3,16,-1,-1,0.952,0.119791667,-0.231770833,1,0,0,1.7416,Diorite_rect,3,1.742,1,3,0,3,0,1,,,,,,,,,,,,,
66555f0de9cdf0c596d5a7aa,TCR,2024-06-24_11h47.03.038,LearnStrategy,2023.2.3,Win32,60.24096386,7,1,5,-0.010416667,0.002604167,1,0,0,1.0683,rock_grid_rect_2,6,06,-1,-1,1.068,-0.13671875,-0.40234375,1,0,0,4.0859,Pegmatite_rect,6,4.086,1,4,0,4,0,1,,,,,,,,,,,,,
66555f0de9cdf0c596d5a7aa,TCR,2024-06-24_11h47.03.038,LearnStrategy,2023.2.3,Win32,60.24096386,7,1,6,0.05078125,-0.00390625,1,0,0,1.0921,rock_grid_rect_2,1,14,-1,-1,1.092,-0.33984375,-0.248697917,1,0,0,3.907,Andesite_rect,1,3.907,1,5,0,5,0,1,,,,,,,,,,,,,
66555f0de9cdf0c596d5a7aa,TCR,2024-06-24_11h47.03.038,LearnStrategy,2023.2.3,Win32,60.24096386,7,1,7,0.032552083,-0.0078125,1,0,0,0.9909,rock_grid_rect_2,1,09,-1,-1,0.991,-0.415364583,-0.243489583,1,0,0,2.4523,Andesite_rect,1,2.452,1,6,0,6,0,1,,,,,,,,,,,,,
66555f0de9cdf0c596d5a7aa,TCR,2024-06-24_11h47.03.038,LearnStrategy,2023.2.3,Win32,60.24096386,7,1,8,-0.032552083,-0.01171875,1,0,0,0.8431,rock_grid_rect_2,5,14,-1,-1,0.843,-0.430989583,-0.39453125,1,0,0,1.309,Obsidian_rect,5,1.309,1,7,0,7,0,1,,,,,,,,,,,,,
66555f0de9cdf0c596d5a7aa,TCR,2024-06-24_11h47.03.038,LearnStrategy,2023.2.3,Win32,60.24096386,7,1,9,0.100260417,-0.010416667,1,0,0,0.942,rock_grid_rect_2,6,16,-1,-1,0.942,-0.145833333,-0.395833333,1,0,0,1.7915,Pegmatite_rect,6,1.792,1,8,0,8,0,1,,,,,,,,,,,,,
66555f0de9cdf0c596d5a7aa,TCR,2024-06-24_11h47.03.038,LearnStrategy,2023.2.3,Win32,60.24096386,7,1,10,0.046875,-0.00390625,1,0,0,1.2403,rock_grid_rect_2,1,05,-1,-1,1.24,-0.365885417,-0.252604167,1,0,0,4.284,Andesite_rect,1,4.284,1,9,0,9,0,1,,,,,,,,,,,,,
66555f0de9cdf0c596d5a7aa,TCR,2024-06-24_11h47.03.038,LearnStrategy,2023.2.3,Win32,60.24096386,7,1,11,0.041666667,-0.018229167,1,0,0,0.8219,rock_grid_rect_2,2,16,-1,-1,0.822,-0.13671875,-0.25,1,0,0,1.2773,Basalt_rect,2,1.277,1,10,0,10,0,1,,,,,,,,,,,,,
66555f0de9cdf0c596d5a7aa,TCR,2024-06-24_11h47.03.038,LearnStrategy,2023.2.3,Win32,60.24096386,7,1,12,0.045572917,-0.014322917,1,0,0,1.0421,rock_grid_rect_2,7,05,-1,-1,1.042,0.12109375,-0.389322917,1,0,0,1.9508,Peridotite_rect,7,1.951,1,11,0,11,0,1,,,,,,,,,,,,,
66555f0de9cdf0c596d5a7aa,TCR,2024-06-24_11h47.03.038,LearnStrategy,2023.2.3,Win32,60.24096386,7,1,13,0.0390625,-0.005208333,1,0,0,0.8792,rock_grid_rect_2,6,15,-1,-1,0.879,-0.140625,-0.40625,1,0,0,1.4086,Pegmatite_rect,6,1.409,1,12,0,12,0,1,,,,,,,,,,,,,
66555f0de9cdf0c596d5a7aa,TCR,2024-06-24_11h47.03.038,LearnStrategy,2023.2.3,Win32,60.24096386,7,1,14,-0.020833333,0.009114583,1,0,0,0.9675,rock_grid_rect_2,2,01,-1,-1,0.967,-0.15234375,-0.244791667,1,0,0,1.5745,Basalt_rect,2,1.574,1,13,0,13,0,1,,,,,,,,,,,,,
66555f0de9cdf0c596d5a7aa,TCR,2024-06-24_11h47.03.038,LearnStrategy,2023.2.3,Win32,60.24096386,7,1,15,0.04296875,0.001302083,1,0,0,0.9582,rock_grid_rect_2,4,10,-1,-1,0.958,0.37890625,-0.251302083,1,0,0,3.47,Gabbro_rect,4,3.47,1,14,0,14,0,1,,,,,,,,,,,,,
66555f0de9cdf0c596d5a7aa,TCR,2024-06-24_11h47.03.038,LearnStrategy,2023.2.3,Win32,60.24096386,7,1,16,0.006510417,-0.01953125,1,0,0,0.7598,rock_grid_rect_2,8,05,-1,-1,0.76,0.384114583,-0.388020833,1,0,0,1.3969,Pumice_rect,8,1.397,1,15,0,15,0,1,,,,,,,,,,,,,
66555f0de9cdf0c596d5a7aa,TCR,2024-06-24_11h47.03.038,LearnStrategy,2023.2.3,Win32,60.24096386,7,2,1,,,,,,,,7,16,,,,,,,,,,,7,3.335,1,,,,,,0.102864583,-0.393229167,1,0,0,3.3345,Peridotite_rect,0,0,0,0,1,
66555f0de9cdf0c596d5a7aa,TCR,2024-06-24_11h47.03.038,LearnStrategy,2023.2.3,Win32,60.24096386,7,2,2,,,,,,,,4,05,,,,,,,,,,,1,5.551,0,,,,,,-0.3984375,-0.255208333,1,0,0,5.5511,Andesite_rect,1,0,1,0,1,
66555f0de9cdf0c596d5a7aa,TCR,2024-06-24_11h47.03.038,LearnStrategy,2023.2.3,Win32,60.24096386,7,2,3,,,,,,,,2,12,,,,,,,,,,,8,1.246,0,,,,,,0.415364583,-0.3828125,1,0,0,1.246,Pumice_rect,2,0,2,0,1,
66555f0de9cdf0c596d5a7aa,TCR,2024-06-24_11h47.03.038,LearnStrategy,2023.2.3,Win32,60.24096386,7,2,4,,,,,,,,4,12,,,,,,,,,,,4,3.52,1,,,,,,0.376302083,-0.266927083,1,0,0,3.5197,Gabbro_rect,3,0,3,0,1,
66555f0de9cdf0c596d5a7aa,TCR,2024-06-24_11h47.03.038,LearnStrategy,2023.2.3,Win32,60.24096386,7,2,5,,,,,,,,3,12,,,,,,,,,,,3,1.467,1,,,,,,0.080729167,-0.268229167,1,0,0,1.4666,Diorite_rect,4,0,4,0,1,
66555f0de9cdf0c596d5a7aa,TCR,2024-06-24_11h47.03.038,LearnStrategy,2023.2.3,Win32,60.24096386,7,2,6,,,,,,,,5,08,,,,,,,,,,,5,1.235,1,,,,,,-0.373697917,-0.3984375,1,0,0,1.2346,Obsidian_rect,5,0,5,0,1,
66555f0de9cdf0c596d5a7aa,TCR,2024-06-24_11h47.03.038,LearnStrategy,2023.2.3,Win32,60.24096386,7,2,7,,,,,,,,8,08,,,,,,,,,,,8,1.476,1,,,,,,0.368489583,-0.397135417,1,0,0,1.476,Pumice_rect,6,0,6,0,1,
66555f0de9cdf0c596d5a7aa,TCR,2024-06-24_11h47.03.038,LearnStrategy,2023.2.3,Win32,60.24096386,7,2,8,,,,,,,,5,05,,,,,,,,,,,5,1.468,1,,,,,,-0.415364583,-0.388020833,1,0,0,1.4682,Obsidian_rect,7,0,7,0,1,
66555f0de9cdf0c596d5a7aa,TCR,2024-06-24_11h47.03.038,LearnStrategy,2023.2.3,Win32,60.24096386,7,2,9,,,,,,,,1,11,,,,,,,,,,,1,3.559,1,,,,,,-0.361979167,-0.251302083,1,0,0,3.5588,Andesite_rect,8,0,8,0,1,
66555f0de9cdf0c596d5a7aa,TCR,2024-06-24_11h47.03.038,LearnStrategy,2023.2.3,Win32,60.24096386,7,2,10,,,,,,,,3,13,,,,,,,,,,,3,5.237,1,,,,,,0.114583333,-0.244791667,1,0,0,5.2373,Diorite_rect,9,0,9,0,1,
66555f0de9cdf0c596d5a7aa,TCR,2024-06-24_11h47.03.038,LearnStrategy,2023.2.3,Win32,60.24096386,7,2,11,,,,,,,,6,08,,,,,,,,,,,6,1.807,1,,,,,,-0.079427083,-0.381510417,1,0,0,1.8067,Pegmatite_rect,10,0,10,0,1,
66555f0de9cdf0c596d5a7aa,TCR,2024-06-24_11h47.03.038,LearnStrategy,2023.2.3,Win32,60.24096386,7,2,12,,,,,,,,6,10,,,,,,,,,,,6,1.035,1,,,,,,-0.09765625,-0.399739583,1,0,0,1.0348,Pegmatite_rect,11,0,11,0,1,
66555f0de9cdf0c596d5a7aa,TCR,2024-06-24_11h47.03.038,LearnStrategy,2023.2.3,Win32,60.24096386,7,2,13,,,,,,,,7,07,,,,,,,,,,,7,1.164,1,,,,,,0.108072917,-0.40234375,1,0,0,1.1635,Peridotite_rect,12,0,12,0,1,
66555f0de9cdf0c596d5a7aa,TCR,2024-06-24_11h47.03.038,LearnStrategy,2023.2.3,Win32,60.24096386,7,2,14,,,,,,,,2,04,,,,,,,,,,,2,1.454,1,,,,,,-0.096354167,-0.247395833,1,0,0,1.4541,Basalt_rect,13,0,13,0,1,
66555f0de9cdf0c596d5a7aa,TCR,2024-06-24_11h47.03.038,LearnStrategy,2023.2.3,Win32,60.24096386,7,2,15,,,,,,,,8,15,,,,,,,,,,,8,1.298,1,,,,,,0.377604167,-0.397135417,1,0,0,1.2979,Pumice_rect,14,0,14,0,1,
66555f0de9cdf0c596d5a7aa,TCR,2024-06-24_11h47.03.038,LearnStrategy,2023.2.3,Win32,60.24096386,7,2,16,,,,,,,,1,07,,,,,,,,,,,3,1.862,0,,,,,,0.09375,-0.235677083,1,0,0,1.8618,Diorite_rect,15,0,15,0,1,
66555f0de9cdf0c596d5a7aa,TCR,2024-06-24_11h47.03.038,LearnStrategy,2023.2.3,Win32,60.24096386,8,1,1,-0.055989583,0.005208333,1,0,0,1.2114,rock_grid_rect_2,6,09,-1,-1,1.211,-0.178385417,-0.395833333,1,0,0,1.6325,Pegmatite_rect,6,1.632,1,0,0,0,0,1,,,,,,,,,,,,,
66555f0de9cdf0c596d5a7aa,TCR,2024-06-24_11h47.03.038,LearnStrategy,2023.2.3,Win32,60.24096386,8,1,2,0.01171875,-0.01953125,1,0,0,1.1341,rock_grid_rect_2,1,10,-1,-1,1.134,0.3671875,-0.24609375,1,0,0,3.4029,Gabbro_rect,4,3.403,0,1,0,1,0,1,,,,,,,,,,,,,
66555f0de9cdf0c596d5a7aa,TCR,2024-06-24_11h47.03.038,LearnStrategy,2023.2.3,Win32,60.24096386,8,1,3,-0.005208333,-0.013020833,1,0,0,1.051,rock_grid_rect_2,8,02,-1,-1,1.051,0.381510417,-0.41796875,1,0,0,1.3514,Pumice_rect,8,1.351,1,2,0,2,0,1,,,,,,,,,,,,,
66555f0de9cdf0c596d5a7aa,TCR,2024-06-24_11h47.03.038,LearnStrategy,2023.2.3,Win32,60.24096386,8,1,4,-0.018229167,-0.015625,1,0,0,1.1924,rock_grid_rect_2,1,02,-1,-1,1.192,-0.389322917,-0.2421875,1,0,0,1.7786,Andesite_rect,1,1.779,1,3,0,3,0,1,,,,,,,,,,,,,
66555f0de9cdf0c596d5a7aa,TCR,2024-06-24_11h47.03.038,LearnStrategy,2023.2.3,Win32,60.24096386,8,1,5,0.01171875,-0.001302083,1,0,0,0.9943,rock_grid_rect_2,4,14,-1,-1,0.994,0.33203125,-0.243489583,1,0,0,2.865,Gabbro_rect,4,2.865,1,4,0,4,0,1,,,,,,,,,,,,,
66555f0de9cdf0c596d5a7aa,TCR,2024-06-24_11h47.03.038,LearnStrategy,2023.2.3,Win32,60.24096386,8,1,6,-0.03515625,0.006510417,1,0,0,0.8704,rock_grid_rect_2,7,14,-1,-1,0.87,0.15625,-0.393229167,1,0,0,1.4585,Peridotite_rect,7,1.458,1,5,0,5,0,1,,,,,,,,,,,,,
66555f0de9cdf0c596d5a7aa,TCR,2024-06-24_11h47.03.038,LearnStrategy,2023.2.3,Win32,60.24096386,8,1,7,0.037760417,-0.0078125,1,0,0,0.9279,rock_grid_rect_2,2,09,-1,-1,0.928,-0.111979167,-0.266927083,1,0,0,1.2419,Basalt_rect,2,1.242,1,6,0,6,0,1,,,,,,,,,,,,,
66555f0de9cdf0c596d5a7aa,TCR,2024-06-24_11h47.03.038,LearnStrategy,2023.2.3,Win32,60.24096386,8,1,8,0.001302083,0.015625,1,0,0,0.9277,rock_grid_rect_2,6,16,-1,-1,0.928,-0.135416667,-0.401041667,1,0,0,1.3998,Pegmatite_rect,6,1.4,1,7,0,7,0,1,,,,,,,,,,,,,
66555f0de9cdf0c596d5a7aa,TCR,2024-06-24_11h47.03.038,LearnStrategy,2023.2.3,Win32,60.24096386,8,1,9,0.014322917,-0.018229167,1,0,0,0.7282,rock_grid_rect_2,3,14,-1,-1,0.728,0.15625,-0.236979167,1,0,0,1.0655,Diorite_rect,3,1.065,1,8,0,8,0,1,,,,,,,,,,,,,
66555f0de9cdf0c596d5a7aa,TCR,2024-06-24_11h47.03.038,LearnStrategy,2023.2.3,Win32,60.24096386,8,1,10,-0.016927083,-0.010416667,1,0,0,0.8643,rock_grid_rect_2,3,16,-1,-1,0.864,0.127604167,-0.259114583,1,0,0,0.9481,Diorite_rect,3,0.948,1,9,0,9,0,1,,,,,,,,,,,,,
66555f0de9cdf0c596d5a7aa,TCR,2024-06-24_11h47.03.038,LearnStrategy,2023.2.3,Win32,60.24096386,8,1,11,0.002604167,-0.0078125,1,0,0,0.9104,rock_grid_rect_2,2,06,-1,-1,0.91,-0.134114583,-0.244791667,1,0,0,1.397,Basalt_rect,2,1.397,1,10,0,10,0,1,,,,,,,,,,,,,
66555f0de9cdf0c596d5a7aa,TCR,2024-06-24_11h47.03.038,LearnStrategy,2023.2.3,Win32,60.24096386,8,1,12,-0.016927083,-0.001302083,1,0,0,0.9902,rock_grid_rect_2,4,10,-1,-1,0.99,0.37890625,-0.247395833,1,0,0,2.3746,Gabbro_rect,4,2.375,1,11,0,11,0,1,,,,,,,,,,,,,
66555f0de9cdf0c596d5a7aa,TCR,2024-06-24_11h47.03.038,LearnStrategy,2023.2.3,Win32,60.24096386,8,1,13,0.010416667,-0.01171875,1,0,0,1.2682,rock_grid_rect_2,1,14,-1,-1,1.268,-0.397135417,-0.25,1,0,0,3.3401,Andesite_rect,1,3.34,1,12,0,12,0,1,,,,,,,,,,,,,
66555f0de9cdf0c596d5a7aa,TCR,2024-06-24_11h47.03.038,LearnStrategy,2023.2.3,Win32,60.24096386,8,1,14,0.075520833,-0.015625,1,0,0,0.9127,rock_grid_rect_2,2,10,-1,-1,0.913,-0.141927083,-0.251302083,1,0,0,1.2222,Basalt_rect,2,1.222,1,13,0,13,0,1,,,,,,,,,,,,,
66555f0de9cdf0c596d5a7aa,TCR,2024-06-24_11h47.03.038,LearnStrategy,2023.2.3,Win32,60.24096386,8,1,15,-0.005208333,0.0078125,1,0,0,0.9446,rock_grid_rect_2,5,12,-1,-1,0.945,-0.416666667,-0.41015625,1,0,0,1.921,Obsidian_rect,5,1.921,1,14,0,14,0,1,,,,,,,,,,,,,
66555f0de9cdf0c596d5a7aa,TCR,2024-06-24_11h47.03.038,LearnStrategy,2023.2.3,Win32,60.24096386,8,1,16,0.053385417,0.005208333,1,0,0,0.8664,rock_grid_rect_2,4,11,-1,-1,0.866,-0.346354167,-0.24609375,1,0,0,1.6621,Andesite_rect,1,1.662,0,15,0,15,0,1,,,,,,,,,,,,,
66555f0de9cdf0c596d5a7aa,TCR,2024-06-24_11h47.03.038,LearnStrategy,2023.2.3,Win32,60.24096386,8,2,1,,,,,,,,6,12,,,,,,,,,,,3,1.482,0,,,,,,0.1328125,-0.2421875,1,0,0,1.4817,Diorite_rect,0,0,0,0,1,
66555f0de9cdf0c596d5a7aa,TCR,2024-06-24_11h47.03.038,LearnStrategy,2023.2.3,Win32,60.24096386,8,2,2,,,,,,,,4,08,,,,,,,,,,,4,3.291,1,,,,,,0.365885417,-0.244791667,1,0,0,3.2906,Gabbro_rect,1,0,1,0,1,
66555f0de9cdf0c596d5a7aa,TCR,2024-06-24_11h47.03.038,LearnStrategy,2023.2.3,Win32,60.24096386,8,2,3,,,,,,,,8,04,,,,,,,,,,,8,1.084,1,,,,,,0.359375,-0.388020833,1,0,0,1.0837,Pumice_rect,2,0,2,0,1,
66555f0de9cdf0c596d5a7aa,TCR,2024-06-24_11h47.03.038,LearnStrategy,2023.2.3,Win32,60.24096386,8,2,4,,,,,,,,4,16,,,,,,,,,,,4,3.908,1,,,,,,0.38671875,-0.244791667,1,0,0,3.9084,Gabbro_rect,3,0,3,0,1,
66555f0de9cdf0c596d5a7aa,TCR,2024-06-24_11h47.03.038,LearnStrategy,2023.2.3,Win32,60.24096386,8,2,5,,,,,,,,1,16,,,,,,,,,,,1,3.145,1,,,,,,-0.408854167,-0.264322917,1,0,0,3.145,Andesite_rect,4,0,4,0,1,
66555f0de9cdf0c596d5a7aa,TCR,2024-06-24_11h47.03.038,LearnStrategy,2023.2.3,Win32,60.24096386,8,2,6,,,,,,,,7,08,,,,,,,,,,,7,1.842,1,,,,,,0.123697917,-0.395833333,1,0,0,1.8425,Peridotite_rect,5,0,5,0,1,
66555f0de9cdf0c596d5a7aa,TCR,2024-06-24_11h47.03.038,LearnStrategy,2023.2.3,Win32,60.24096386,8,2,7,,,,,,,,6,05,,,,,,,,,,,3,5.448,0,,,,,,0.087239583,-0.236979167,1,0,0,5.4484,Diorite_rect,6,0,6,0,1,
66555f0de9cdf0c596d5a7aa,TCR,2024-06-24_11h47.03.038,LearnStrategy,2023.2.3,Win32,60.24096386,8,2,8,,,,,,,,5,02,,,,,,,,,,,5,1.171,1,,,,,,-0.377604167,-0.391927083,1,0,0,1.1709,Obsidian_rect,7,0,7,0,1,
66555f0de9cdf0c596d5a7aa,TCR,2024-06-24_11h47.03.038,LearnStrategy,2023.2.3,Win32,60.24096386,8,2,9,,,,,,,,2,14,,,,,,,,,,,8,2.906,0,,,,,,0.369791667,-0.408854167,1,0,0,2.9063,Pumice_rect,8,0,8,0,1,
66555f0de9cdf0c596d5a7aa,TCR,2024-06-24_11h47.03.038,LearnStrategy,2023.2.3,Win32,60.24096386,8,2,10,,,,,,,,5,09,,,,,,,,,,,5,1.367,1,,,,,,-0.385416667,-0.411458333,1,0,0,1.3675,Obsidian_rect,9,0,9,0,1,
66555f0de9cdf0c596d5a7aa,TCR,2024-06-24_11h47.03.038,LearnStrategy,2023.2.3,Win32,60.24096386,8,2,11,,,,,,,,8,14,,,,,,,,,,,8,1.621,1,,,,,,0.38671875,-0.3828125,1,0,0,1.6215,Pumice_rect,10,0,10,0,1,
66555f0de9cdf0c596d5a7aa,TCR,2024-06-24_11h47.03.038,LearnStrategy,2023.2.3,Win32,60.24096386,8,2,12,,,,,,,,2,11,,,,,,,,,,,1,2.62,0,,,,,,-0.3671875,-0.243489583,1,0,0,2.6196,Andesite_rect,11,0,11,0,1,
66555f0de9cdf0c596d5a7aa,TCR,2024-06-24_11h47.03.038,LearnStrategy,2023.2.3,Win32,60.24096386,8,2,13,,,,,,,,7,12,,,,,,,,,,,7,1.333,1,,,,,,0.126302083,-0.407552083,1,0,0,1.3327,Peridotite_rect,12,0,12,0,1,
66555f0de9cdf0c596d5a7aa,TCR,2024-06-24_11h47.03.038,LearnStrategy,2023.2.3,Win32,60.24096386,8,2,14,,,,,,,,1,06,,,,,,,,,,,1,1.833,1,,,,,,-0.354166667,-0.263020833,1,0,0,1.8328,Andesite_rect,13,0,13,0,1,
66555f0de9cdf0c596d5a7aa,TCR,2024-06-24_11h47.03.038,LearnStrategy,2023.2.3,Win32,60.24096386,8,2,15,,,,,,,,3,02,,,,,,,,,,,3,1.821,1,,,,,,0.125,-0.24609375,1,0,0,1.8214,Diorite_rect,14,0,14,0,1,
66555f0de9cdf0c596d5a7aa,TCR,2024-06-24_11h47.03.038,LearnStrategy,2023.2.3,Win32,60.24096386,8,2,16,,,,,,,,3,08,,,,,,,,,,,3,1.591,1,,,,,,0.125,-0.24609375,1,0,0,1.5907,Diorite_rect,15,0,15,0,1,
66555f0de9cdf0c596d5a7aa,TCR,2024-06-24_11h47.03.038,LearnStrategy,2023.2.3,Win32,60.24096386,9,1,1,-0.03515625,0.001302083,1,0,0,1.4014,rock_grid_rect_2,6,13,-1,-1,1.401,-0.092447917,-0.40625,1,0,0,1.9653,Pegmatite_rect,6,1.965,1,0,0,0,0,1,,,,,,,,,,,,,
66555f0de9cdf0c596d5a7aa,TCR,2024-06-24_11h47.03.038,LearnStrategy,2023.2.3,Win32,60.24096386,9,1,2,-0.075520833,-0.001302083,1,0,0,1.1495,rock_grid_rect_2,3,16,-1,-1,1.149,0.134114583,-0.244791667,1,0,0,1.819,Diorite_rect,3,1.819,1,1,0,1,0,1,,,,,,,,,,,,,
66555f0de9cdf0c596d5a7aa,TCR,2024-06-24_11h47.03.038,LearnStrategy,2023.2.3,Win32,60.24096386,9,1,3,-0.020833333,0.010416667,1,0,0,1.2458,rock_grid_rect_2,2,10,-1,-1,1.246,-0.135416667,-0.247395833,1,0,0,1.4616,Basalt_rect,2,1.462,1,2,0,2,0,1,,,,,,,,,,,,,
66555f0de9cdf0c596d5a7aa,TCR,2024-06-24_11h47.03.038,LearnStrategy,2023.2.3,Win32,60.24096386,9,1,4,0.0078125,0.005208333,1,0,0,0.8793,rock_grid_rect_2,4,14,-1,-1,0.879,0.368489583,-0.248697917,1,0,0,3.0793,Gabbro_rect,4,3.079,1,3,0,3,0,1,,,,,,,,,,,,,
66555f0de9cdf0c596d5a7aa,TCR,2024-06-24_11h47.03.038,LearnStrategy,2023.2.3,Win32,60.24096386,9,1,5,-0.015625,-0.01171875,1,0,0,0.8232,rock_grid_rect_2,8,13,-1,-1,0.823,0.419270833,-0.415364583,1,0,0,1.569,Pumice_rect,8,1.569,1,4,0,4,0,1,,,,,,,,,,,,,
66555f0de9cdf0c596d5a7aa,TCR,2024-06-24_11h47.03.038,LearnStrategy,2023.2.3,Win32,60.24096386,9,1,6,0.0078125,-0.01171875,1,0,0,0.9833,rock_grid_rect_2,6,16,-1,-1,0.983,-0.114583333,-0.3984375,1,0,0,1.297,Pegmatite_rect,6,1.297,1,5,0,5,0,1,,,,,,,,,,,,,
66555f0de9cdf0c596d5a7aa,TCR,2024-06-24_11h47.03.038,LearnStrategy,2023.2.3,Win32,60.24096386,9,1,7,-0.03125,-0.0078125,1,0,0,0.8425,rock_grid_rect_2,7,15,-1,-1,0.842,0.158854167,-0.404947917,1,0,0,1.2574,Peridotite_rect,7,1.257,1,6,0,6,0,1,,,,,,,,,,,,,
66555f0de9cdf0c596d5a7aa,TCR,2024-06-24_11h47.03.038,LearnStrategy,2023.2.3,Win32,60.24096386,9,1,8,-0.028645833,0.010416667,1,0,0,0.8439,rock_grid_rect_2,3,07,-1,-1,0.844,0.114583333,-0.244791667,1,0,0,1.4791,Diorite_rect,3,1.479,1,7,0,7,0,1,,,,,,,,,,,,,
66555f0de9cdf0c596d5a7aa,TCR,2024-06-24_11h47.03.038,LearnStrategy,2023.2.3,Win32,60.24096386,9,1,9,0,0.010416667,1,0,0,1.005,rock_grid_rect_2,5,11,-1,-1,1.005,-0.388020833,-0.393229167,1,0,0,1.3474,Obsidian_rect,5,1.347,1,8,0,8,0,1,,,,,,,,,,,,,
66555f0de9cdf0c596d5a7aa,TCR,2024-06-24_11h47.03.038,LearnStrategy,2023.2.3,Win32,60.24096386,9,1,10,-0.037760417,-0.014322917,1,0,0,0.6608,rock_grid_rect_2,6,16,-1,-1,0.661,-0.114583333,-0.404947917,1,0,0,1.2311,Pegmatite_rect,6,1.231,1,9,0,9,0,1,,,,,,,,,,,,,
66555f0de9cdf0c596d5a7aa,TCR,2024-06-24_11h47.03.038,LearnStrategy,2023.2.3,Win32,60.24096386,9,1,11,-0.0234375,-0.010416667,1,0,0,0.8629,rock_grid_rect_2,2,02,-1,-1,0.863,-0.106770833,-0.240885417,1,0,0,1.5277,Basalt_rect,2,1.528,1,10,0,10,0,1,,,,,,,,,,,,,
66555f0de9cdf0c596d5a7aa,TCR,2024-06-24_11h47.03.038,LearnStrategy,2023.2.3,Win32,60.24096386,9,1,12,-0.036458333,0.016927083,1,0,0,0.7777,rock_grid_rect_2,1,09,-1,-1,0.778,-0.3671875,-0.2421875,1,0,0,1.7159,Andesite_rect,1,1.716,1,11,0,11,0,1,,,,,,,,,,,,,
66555f0de9cdf0c596d5a7aa,TCR,2024-06-24_11h47.03.038,LearnStrategy,2023.2.3,Win32,60.24096386,9,1,13,-0.028645833,0.005208333,1,0,0,0.7991,rock_grid_rect_2,1,09,-1,-1,0.799,-0.354166667,-0.260416667,1,0,0,1.0761,Andesite_rect,1,1.076,1,12,0,12,0,1,,,,,,,,,,,,,
66555f0de9cdf0c596d5a7aa,TCR,2024-06-24_11h47.03.038,LearnStrategy,2023.2.3,Win32,60.24096386,9,1,14,-0.04296875,-0.006510417,1,0,0,0.9022,rock_grid_rect_2,4,11,-1,-1,0.902,0.397135417,-0.236979167,1,0,0,2.1901,Gabbro_rect,4,2.19,1,13,0,13,0,1,,,,,,,,,,,,,
66555f0de9cdf0c596d5a7aa,TCR,2024-06-24_11h47.03.038,LearnStrategy,2023.2.3,Win32,60.24096386,9,1,15,-0.016927083,-0.01171875,1,0,0,0.9663,rock_grid_rect_2,2,02,-1,-1,0.966,-0.131510417,-0.256510417,1,0,0,1.4265,Basalt_rect,2,1.427,1,14,0,14,0,1,,,,,,,,,,,,,
66555f0de9cdf0c596d5a7aa,TCR,2024-06-24_11h47.03.038,LearnStrategy,2023.2.3,Win32,60.24096386,9,1,16,-0.05859375,0.006510417,1,0,0,1.0786,rock_grid_rect_2,2,10,-1,-1,1.079,-0.115885417,-0.25390625,1,0,0,1.4104,Basalt_rect,2,1.41,1,15,0,15,0,1,,,,,,,,,,,,,
66555f0de9cdf0c596d5a7aa,TCR,2024-06-24_11h47.03.038,LearnStrategy,2023.2.3,Win32,60.24096386,9,2,1,,,,,,,,4,15,,,,,,,,,,,4,8.069,1,,,,,,0.424479167,-0.244791667,1,0,0,8.0691,Gabbro_rect,0,0,0,0,1,
66555f0de9cdf0c596d5a7aa,TCR,2024-06-24_11h47.03.038,LearnStrategy,2023.2.3,Win32,60.24096386,9,2,2,,,,,,,,3,15,,,,,,,,,,,1,2.752,0,,,,,,-0.48828125,-0.26171875,1,0,0,2.752,Andesite_rect,1,0,1,0,1,
66555f0de9cdf0c596d5a7aa,TCR,2024-06-24_11h47.03.038,LearnStrategy,2023.2.3,Win32,60.24096386,9,2,3,,,,,,,,3,06,,,,,,,,,,,3,2.075,1,,,,,,0.114583333,-0.248697917,1,0,0,2.0749,Diorite_rect,2,0,2,0,1,
66555f0de9cdf0c596d5a7aa,TCR,2024-06-24_11h47.03.038,LearnStrategy,2023.2.3,Win32,60.24096386,9,2,4,,,,,,,,1,03,,,,,,,,,,,2,1.554,0,,,,,,-0.092447917,-0.266927083,1,0,0,1.5545,Basalt_rect,3,0,3,0,1,
66555f0de9cdf0c596d5a7aa,TCR,2024-06-24_11h47.03.038,LearnStrategy,2023.2.3,Win32,60.24096386,9,2,5,,,,,,,,6,11,,,,,,,,,,,6,2.045,1,,,,,,-0.1171875,-0.388020833,1,0,0,2.0446,Pegmatite_rect,4,0,4,0,1,
66555f0de9cdf0c596d5a7aa,TCR,2024-06-24_11h47.03.038,LearnStrategy,2023.2.3,Win32,60.24096386,9,2,6,,,,,,,,5,16,,,,,,,,,,,5,1.609,1,,,,,,-0.404947917,-0.399739583,1,0,0,1.6087,Obsidian_rect,5,0,5,0,1,
66555f0de9cdf0c596d5a7aa,TCR,2024-06-24_11h47.03.038,LearnStrategy,2023.2.3,Win32,60.24096386,9,2,7,,,,,,,,2,08,,,,,,,,,,,2,1.18,1,,,,,,-0.109375,-0.2421875,1,0,0,1.1802,Basalt_rect,6,0,6,0,1,
66555f0de9cdf0c596d5a7aa,TCR,2024-06-24_11h47.03.038,LearnStrategy,2023.2.3,Win32,60.24096386,9,2,8,,,,,,,,7,06,,,,,,,,,,,7,1.34,1,,,,,,0.1171875,-0.37890625,1,0,0,1.3402,Peridotite_rect,7,0,7,0,1,
66555f0de9cdf0c596d5a7aa,TCR,2024-06-24_11h47.03.038,LearnStrategy,2023.2.3,Win32,60.24096386,9,2,9,,,,,,,,8,10,,,,,,,,,,,8,1.194,1,,,,,,0.384114583,-0.380208333,1,0,0,1.1939,Pumice_rect,8,0,8,0,1,
66555f0de9cdf0c596d5a7aa,TCR,2024-06-24_11h47.03.038,LearnStrategy,2023.2.3,Win32,60.24096386,9,2,10,,,,,,,,5,06,,,,,,,,,,,5,1.501,1,,,,,,-0.372395833,-0.408854167,1,0,0,1.501,Obsidian_rect,9,0,9,0,1,
66555f0de9cdf0c596d5a7aa,TCR,2024-06-24_11h47.03.038,LearnStrategy,2023.2.3,Win32,60.24096386,9,2,11,,,,,,,,8,03,,,,,,,,,,,8,1.558,1,,,,,,0.3984375,-0.401041667,1,0,0,1.558,Pumice_rect,10,0,10,0,1,
66555f0de9cdf0c596d5a7aa,TCR,2024-06-24_11h47.03.038,LearnStrategy,2023.2.3,Win32,60.24096386,9,2,12,,,,,,,,6,03,,,,,,,,,,,6,1.434,1,,,,,,-0.126302083,-0.40625,1,0,0,1.4336,Pegmatite_rect,11,0,11,0,1,
66555f0de9cdf0c596d5a7aa,TCR,2024-06-24_11h47.03.038,LearnStrategy,2023.2.3,Win32,60.24096386,9,2,13,,,,,,,,2,05,,,,,,,,,,,2,1.426,1,,,,,,-0.134114583,-0.24609375,1,0,0,1.4261,Basalt_rect,12,0,12,0,1,
66555f0de9cdf0c596d5a7aa,TCR,2024-06-24_11h47.03.038,LearnStrategy,2023.2.3,Win32,60.24096386,9,2,14,,,,,,,,7,10,,,,,,,,,,,7,1.464,1,,,,,,0.126302083,-0.40234375,1,0,0,1.4636,Peridotite_rect,13,0,13,0,1,
66555f0de9cdf0c596d5a7aa,TCR,2024-06-24_11h47.03.038,LearnStrategy,2023.2.3,Win32,60.24096386,9,2,15,,,,,,,,1,04,,,,,,,,,,,1,3.367,1,,,,,,-0.341145833,-0.25390625,1,0,0,3.3671,Andesite_rect,14,0,14,0,1,
66555f0de9cdf0c596d5a7aa,TCR,2024-06-24_11h47.03.038,LearnStrategy,2023.2.3,Win32,60.24096386,9,2,16,,,,,,,,4,09,,,,,,,,,,,1,3.066,0,,,,,,-0.3984375,-0.23046875,1,0,0,3.0664,Andesite_rect,15,0,15,0,1,
66555f0de9cdf0c596d5a7aa,TCR,2024-06-24_11h47.03.038,LearnStrategy,2023.2.3,Win32,60.24096386,,,,,,,,,,,,,,,,,,,,,,,,,,,,,,,,,,,,,,,,,,,1
66555f0de9cdf0c596d5a7aa,TCR,2024-06-24_11h47.03.038,LearnStrategy,2023.2.3,Win32,60.24096386,,,,,,,,,,,,,,,,,,,,,,,,,,,,,,,,,,,,,,,,,,,
66555f0de9cdf0c596d5a7aa,TCR,2024-06-24_11h47.03.038,LearnStrategy,2023.2.3,Win32,60.24096386,,,,,,,,,,,8,13,1,1,,,,,,,,,,,,,,,,,,,,,,,,,,,,,
66555f0de9cdf0c596d5a7aa,TCR,2024-06-24_11h47.03.038,LearnStrategy,2023.2.3,Win32,60.24096386,,,,,,,,,,,2,02,1,2,,,,,,,,,,,,,,,,,,,,,,,,,,,,,
66555f0de9cdf0c596d5a7aa,TCR,2024-06-24_11h47.03.038,LearnStrategy,2023.2.3,Win32,60.24096386,,,,,,,,,,,2,16,1,3,,,,,,,,,,,,,,,,,,,,,,,,,,,,,
66555f0de9cdf0c596d5a7aa,TCR,2024-06-24_11h47.03.038,LearnStrategy,2023.2.3,Win32,60.24096386,,,,,,,,,,,7,13,1,4,,,,,,,,,,,,,,,,,,,,,,,,,,,,,
66555f0de9cdf0c596d5a7aa,TCR,2024-06-24_11h47.03.038,LearnStrategy,2023.2.3,Win32,60.24096386,,,,,,,,,,,3,10,1,5,,,,,,,,,,,,,,,,,,,,,,,,,,,,,
66555f0de9cdf0c596d5a7aa,TCR,2024-06-24_11h47.03.038,LearnStrategy,2023.2.3,Win32,60.24096386,,,,,,,,,,,7,14,1,6,,,,,,,,,,,,,,,,,,,,,,,,,,,,,
66555f0de9cdf0c596d5a7aa,TCR,2024-06-24_11h47.03.038,LearnStrategy,2023.2.3,Win32,60.24096386,,,,,,,,,,,5,07,1,7,,,,,,,,,,,,,,,,,,,,,,,,,,,,,
66555f0de9cdf0c596d5a7aa,TCR,2024-06-24_11h47.03.038,LearnStrategy,2023.2.3,Win32,60.24096386,,,,,,,,,,,4,13,1,8,,,,,,,,,,,,,,,,,,,,,,,,,,,,,
66555f0de9cdf0c596d5a7aa,TCR,2024-06-24_11h47.03.038,LearnStrategy,2023.2.3,Win32,60.24096386,,,,,,,,,,,1,05,2,1,,,,,,,,,,,,,,,,,,,,,,,,,,,,,
66555f0de9cdf0c596d5a7aa,TCR,2024-06-24_11h47.03.038,LearnStrategy,2023.2.3,Win32,60.24096386,,,,,,,,,,,1,01,2,2,,,,,,,,,,,,,,,,,,,,,,,,,,,,,
66555f0de9cdf0c596d5a7aa,TCR,2024-06-24_11h47.03.038,LearnStrategy,2023.2.3,Win32,60.24096386,,,,,,,,,,,1,10,2,3,,,,,,,,,,,,,,,,,,,,,,,,,,,,,
66555f0de9cdf0c596d5a7aa,TCR,2024-06-24_11h47.03.038,LearnStrategy,2023.2.3,Win32,60.24096386,,,,,,,,,,,3,16,2,4,,,,,,,,,,,,,,,,,,,,,,,,,,,,,
66555f0de9cdf0c596d5a7aa,TCR,2024-06-24_11h47.03.038,LearnStrategy,2023.2.3,Win32,60.24096386,,,,,,,,,,,5,10,2,5,,,,,,,,,,,,,,,,,,,,,,,,,,,,,
66555f0de9cdf0c596d5a7aa,TCR,2024-06-24_11h47.03.038,LearnStrategy,2023.2.3,Win32,60.24096386,,,,,,,,,,,7,02,2,6,,,,,,,,,,,,,,,,,,,,,,,,,,,,,
66555f0de9cdf0c596d5a7aa,TCR,2024-06-24_11h47.03.038,LearnStrategy,2023.2.3,Win32,60.24096386,,,,,,,,,,,2,10,2,7,,,,,,,,,,,,,,,,,,,,,,,,,,,,,
66555f0de9cdf0c596d5a7aa,TCR,2024-06-24_11h47.03.038,LearnStrategy,2023.2.3,Win32,60.24096386,,,,,,,,,,,5,04,2,8,,,,,,,,,,,,,,,,,,,,,,,,,,,,,
66555f0de9cdf0c596d5a7aa,TCR,2024-06-24_11h47.03.038,LearnStrategy,2023.2.3,Win32,60.24096386,,,,,,,,,,,1,09,3,1,,,,,,,,,,,,,,,,,,,,,,,,,,,,,
66555f0de9cdf0c596d5a7aa,TCR,2024-06-24_11h47.03.038,LearnStrategy,2023.2.3,Win32,60.24096386,,,,,,,,,,,3,09,3,2,,,,,,,,,,,,,,,,,,,,,,,,,,,,,
66555f0de9cdf0c596d5a7aa,TCR,2024-06-24_11h47.03.038,LearnStrategy,2023.2.3,Win32,60.24096386,,,,,,,,,,,4,10,3,3,,,,,,,,,,,,,,,,,,,,,,,,,,,,,
66555f0de9cdf0c596d5a7aa,TCR,2024-06-24_11h47.03.038,LearnStrategy,2023.2.3,Win32,60.24096386,,,,,,,,,,,4,11,3,4,,,,,,,,,,,,,,,,,,,,,,,,,,,,,
66555f0de9cdf0c596d5a7aa,TCR,2024-06-24_11h47.03.038,LearnStrategy,2023.2.3,Win32,60.24096386,,,,,,,,,,,8,09,3,5,,,,,,,,,,,,,,,,,,,,,,,,,,,,,
66555f0de9cdf0c596d5a7aa,TCR,2024-06-24_11h47.03.038,LearnStrategy,2023.2.3,Win32,60.24096386,,,,,,,,,,,1,02,3,6,,,,,,,,,,,,,,,,,,,,,,,,,,,,,
66555f0de9cdf0c596d5a7aa,TCR,2024-06-24_11h47.03.038,LearnStrategy,2023.2.3,Win32,60.24096386,,,,,,,,,,,3,14,3,7,,,,,,,,,,,,,,,,,,,,,,,,,,,,,
66555f0de9cdf0c596d5a7aa,TCR,2024-06-24_11h47.03.038,LearnStrategy,2023.2.3,Win32,60.24096386,,,,,,,,,,,4,03,3,8,,,,,,,,,,,,,,,,,,,,,,,,,,,,,
66555f0de9cdf0c596d5a7aa,TCR,2024-06-24_11h47.03.038,LearnStrategy,2023.2.3,Win32,60.24096386,,,,,,,,,,,6,13,4,1,,,,,,,,,,,,,,,,,,,,,,,,,,,,,
66555f0de9cdf0c596d5a7aa,TCR,2024-06-24_11h47.03.038,LearnStrategy,2023.2.3,Win32,60.24096386,,,,,,,,,,,8,05,4,2,,,,,,,,,,,,,,,,,,,,,,,,,,,,,
66555f0de9cdf0c596d5a7aa,TCR,2024-06-24_11h47.03.038,LearnStrategy,2023.2.3,Win32,60.24096386,,,,,,,,,,,4,01,4,3,,,,,,,,,,,,,,,,,,,,,,,,,,,,,
66555f0de9cdf0c596d5a7aa,TCR,2024-06-24_11h47.03.038,LearnStrategy,2023.2.3,Win32,60.24096386,,,,,,,,,,,1,14,4,4,,,,,,,,,,,,,,,,,,,,,,,,,,,,,
66555f0de9cdf0c596d5a7aa,TCR,2024-06-24_11h47.03.038,LearnStrategy,2023.2.3,Win32,60.24096386,,,,,,,,,,,3,07,4,5,,,,,,,,,,,,,,,,,,,,,,,,,,,,,
66555f0de9cdf0c596d5a7aa,TCR,2024-06-24_11h47.03.038,LearnStrategy,2023.2.3,Win32,60.24096386,,,,,,,,,,,2,06,4,6,,,,,,,,,,,,,,,,,,,,,,,,,,,,,
66555f0de9cdf0c596d5a7aa,TCR,2024-06-24_11h47.03.038,LearnStrategy,2023.2.3,Win32,60.24096386,,,,,,,,,,,6,15,4,7,,,,,,,,,,,,,,,,,,,,,,,,,,,,,
66555f0de9cdf0c596d5a7aa,TCR,2024-06-24_11h47.03.038,LearnStrategy,2023.2.3,Win32,60.24096386,,,,,,,,,,,4,14,4,8,,,,,,,,,,,,,,,,,,,,,,,,,,,,,
66555f0de9cdf0c596d5a7aa,TCR,2024-06-24_11h47.03.038,LearnStrategy,2023.2.3,Win32,60.24096386,,,,,,,,,,,5,14,5,1,,,,,,,,,,,,,,,,,,,,,,,,,,,,,
66555f0de9cdf0c596d5a7aa,TCR,2024-06-24_11h47.03.038,LearnStrategy,2023.2.3,Win32,60.24096386,,,,,,,,,,,2,09,5,2,,,,,,,,,,,,,,,,,,,,,,,,,,,,,
66555f0de9cdf0c596d5a7aa,TCR,2024-06-24_11h47.03.038,LearnStrategy,2023.2.3,Win32,60.24096386,,,,,,,,,,,6,09,5,3,,,,,,,,,,,,,,,,,,,,,,,,,,,,,
66555f0de9cdf0c596d5a7aa,TCR,2024-06-24_11h47.03.038,LearnStrategy,2023.2.3,Win32,60.24096386,,,,,,,,,,,8,02,5,4,,,,,,,,,,,,,,,,,,,,,,,,,,,,,
66555f0de9cdf0c596d5a7aa,TCR,2024-06-24_11h47.03.038,LearnStrategy,2023.2.3,Win32,60.24096386,,,,,,,,,,,7,15,5,5,,,,,,,,,,,,,,,,,,,,,,,,,,,,,
66555f0de9cdf0c596d5a7aa,TCR,2024-06-24_11h47.03.038,LearnStrategy,2023.2.3,Win32,60.24096386,,,,,,,,,,,6,16,5,6,,,,,,,,,,,,,,,,,,,,,,,,,,,,,
66555f0de9cdf0c596d5a7aa,TCR,2024-06-24_11h47.03.038,LearnStrategy,2023.2.3,Win32,60.24096386,,,,,,,,,,,8,16,5,7,,,,,,,,,,,,,,,,,,,,,,,,,,,,,
66555f0de9cdf0c596d5a7aa,TCR,2024-06-24_11h47.03.038,LearnStrategy,2023.2.3,Win32,60.24096386,,,,,,,,,,,2,01,5,8,,,,,,,,,,,,,,,,,,,,,,,,,,,,,
66555f0de9cdf0c596d5a7aa,TCR,2024-06-24_11h47.03.038,LearnStrategy,2023.2.3,Win32,60.24096386,,,,,,,,,,,3,11,6,1,,,,,,,,,,,,,,,,,,,,,,,,,,,,,
66555f0de9cdf0c596d5a7aa,TCR,2024-06-24_11h47.03.038,LearnStrategy,2023.2.3,Win32,60.24096386,,,,,,,,,,,5,11,6,2,,,,,,,,,,,,,,,,,,,,,,,,,,,,,
66555f0de9cdf0c596d5a7aa,TCR,2024-06-24_11h47.03.038,LearnStrategy,2023.2.3,Win32,60.24096386,,,,,,,,,,,5,12,6,3,,,,,,,,,,,,,,,,,,,,,,,,,,,,,
66555f0de9cdf0c596d5a7aa,TCR,2024-06-24_11h47.03.038,LearnStrategy,2023.2.3,Win32,60.24096386,,,,,,,,,,,7,05,6,4,,,,,,,,,,,,,,,,,,,,,,,,,,,,,
66555f0de9cdf0c596d5a7aa,TCR,2024-06-24_11h47.03.038,LearnStrategy,2023.2.3,Win32,60.24096386,,,,,,,,,,,8,06,6,5,,,,,,,,,,,,,,,,,,,,,,,,,,,,,
66555f0de9cdf0c596d5a7aa,TCR,2024-06-24_11h47.03.038,LearnStrategy,2023.2.3,Win32,60.24096386,,,,,,,,,,,6,07,6,6,,,,,,,,,,,,,,,,,,,,,,,,,,,,,
66555f0de9cdf0c596d5a7aa,TCR,2024-06-24_11h47.03.038,LearnStrategy,2023.2.3,Win32,60.24096386,,,,,,,,,,,7,04,6,7,,,,,,,,,,,,,,,,,,,,,,,,,,,,,
66555f0de9cdf0c596d5a7aa,TCR,2024-06-24_11h47.03.038,LearnStrategy,2023.2.3,Win32,60.24096386,,,,,,,,,,,6,06,6,8,,,,,,,,,,,,,,,,,,,,,,,,,,,,,