participant,condition,date,expName,psychopyVersion,OS,frameRate,block,phase,trial,learn_mouse.x,learn_mouse.y,learn_mouse.leftButton,learn_mouse.midButton,learn_mouse.rightButton,learn_mouse.time,learn_mouse.clicked_name,cat,token,row,col,t_select,cat_rec,token_rec,cat_mouse_l.x,cat_mouse_l.y,cat_mouse_l.leftButton,cat_mouse_l.midButton,cat_mouse_l.rightButton,cat_mouse_l.time,cat_mouse_l.clicked_name,resp,t_resp,corr,train_trials.thisRepN,train_trials.thisTrialN,train_trials.thisN,train_trials.thisIndex,train_trials.ran,cat_mouse_t.x,cat_mouse_t.y,cat_mouse_t.leftButton,cat_mouse_t.midButton,cat_mouse_t.rightButton,cat_mouse_t.time,cat_mouse_t.clicked_name,test_trials.thisRepN,test_trials.thisTrialN,test_trials.thisN,test_trials.thisIndex,test_trials.ran,Bonus
6655f45c1e2ab295525736fb,SCR,2024-06-21_05h30.04.620,LearnStrategy,2023.2.3,Win32,59.88023952,,,,,,,,,,,,,,,,,,,,,,,,,,,,,,,,,,,,,,,,,,,,,
6655f45c1e2ab295525736fb,SCR,2024-06-21_05h30.04.620,LearnStrategy,2023.2.3,Win32,59.88023952,1,1,1,-0.534259266,0.236111111,1,0,0,2.6934,Diorite_09,3,09,5,1,2.693,3,09,0.378703788,-0.249074088,1,0,0,3.9018,Gabbro_rect,4,3.902,0,0,0,0,0,1,,,,,,,,,,,,,
6655f45c1e2ab295525736fb,SCR,2024-06-21_05h30.04.620,LearnStrategy,2023.2.3,Win32,59.88023952,1,1,2,0.240740741,0.240740741,1,0,0,2.2486,Pegmatite_03,6,03,5,6,2.249,6,03,-0.098148134,-0.238888917,1,0,0,1.9284,Basalt_rect,2,1.928,0,1,0,1,0,1,,,,,,,,,,,,,
6655f45c1e2ab295525736fb,SCR,2024-06-21_05h30.04.620,LearnStrategy,2023.2.3,Win32,59.88023952,1,1,3,-0.537962949,0.225925922,1,0,0,6.2297,Diorite_09,3,09,5,1,6.23,4,12,0.125925912,-0.242592635,1,0,0,2.2519,Diorite_rect,3,2.252,1,2,0,2,0,1,,,,,,,,,,,,,
6655f45c1e2ab295525736fb,SCR,2024-06-21_05h30.04.620,LearnStrategy,2023.2.3,Win32,59.88023952,1,1,4,0.551851908,0.437037035,1,0,0,2.3099,Peridotite_13,7,13,6,8,2.31,7,06,-0.116666653,-0.262037065,1,0,0,2.1584,Basalt_rect,2,2.158,0,3,0,3,0,1,,,,,,,,,,,,,
6655f45c1e2ab295525736fb,SCR,2024-06-21_05h30.04.620,LearnStrategy,2023.2.3,Win32,59.88023952,1,1,5,-0.37962963,-0.404629672,1,0,0,5.4135,Andesite_04,1,04,1,2,5.413,1,04,-0.375925912,-0.408333319,1,0,0,1.0828,Obsidian_rect,5,1.083,0,4,0,4,0,1,,,,,,,,,,,,,
6655f45c1e2ab295525736fb,SCR,2024-06-21_05h30.04.620,LearnStrategy,2023.2.3,Win32,59.88023952,1,1,6,0.384259259,-0.091666681,1,0,0,5.4136,Pegmatite_08,6,08,3,7,5.414,5,07,0.345370399,-0.404629672,1,0,0,2.1373,Pumice_rect,8,2.137,0,5,0,5,0,1,,,,,,,,,,,,,
6655f45c1e2ab295525736fb,SCR,2024-06-21_05h30.04.620,LearnStrategy,2023.2.3,Win32,59.88023952,1,1,7,-0.209259245,-0.093518504,1,0,0,6.3459,Obsidian_02,5,02,3,3,6.346,6,09,-0.341666645,-0.26944443,1,0,0,6.2822,Andesite_rect,1,6.282,0,6,0,6,0,1,,,,,,,,,,,,,
6655f45c1e2ab295525736fb,SCR,2024-06-21_05h30.04.620,LearnStrategy,2023.2.3,Win32,59.88023952,1,1,8,0.534259231,0.084259245,1,0,0,5.1309,Diorite_16,3,16,4,8,5.131,3,16,0.07685188,-0.406481496,1,0,0,6.1331,Peridotite_rect,7,6.133,0,7,0,7,0,1,,,,,,,,,,,,,
6655f45c1e2ab295525736fb,SCR,2024-06-21_05h30.04.620,LearnStrategy,2023.2.3,Win32,59.88023952,1,1,9,0.393518519,0.244444441,1,0,0,1.5788,Obsidian_04,5,04,5,7,1.579,5,04,-0.15370369,-0.238888917,1,0,0,1.5086,Basalt_rect,2,1.509,0,8,0,8,0,1,,,,,,,,,,,,,
6655f45c1e2ab295525736fb,SCR,2024-06-21_05h30.04.620,LearnStrategy,2023.2.3,Win32,59.88023952,1,1,10,-0.066666638,-0.37962963,1,0,0,6.2121,Basalt_11,2,11,1,4,6.212,2,11,-0.083333333,-0.381481524,1,0,0,1.2972,Pegmatite_rect,6,1.297,0,9,0,9,0,1,,,,,,,,,,,,,
6655f45c1e2ab295525736fb,SCR,2024-06-21_05h30.04.620,LearnStrategy,2023.2.3,Win32,59.88023952,1,1,11,-0.51203703,0.387962959,1,0,0,1.5902,Pumice_08,8,08,6,1,1.59,8,08,-0.341666645,-0.247222265,1,0,0,1.6056,Andesite_rect,1,1.606,0,10,0,10,0,1,,,,,,,,,,,,,
6655f45c1e2ab295525736fb,SCR,2024-06-21_05h30.04.620,LearnStrategy,2023.2.3,Win32,59.88023952,1,1,12,0.046296296,0.054629608,1,0,0,1.3809,Gabbro_14,4,14,4,5,1.381,4,14,0.375925982,-0.242592635,1,0,0,2.269,Gabbro_rect,4,2.269,1,11,0,11,0,1,,,,,,,,,,,,,
6655f45c1e2ab295525736fb,SCR,2024-06-21_05h30.04.620,LearnStrategy,2023.2.3,Win32,59.88023952,1,1,13,-0.283333319,0.072222215,1,0,0,1.3388,Pumice_03,8,03,4,3,1.339,8,03,-0.371296282,-0.246296282,1,0,0,2.6424,Andesite_rect,1,2.642,0,12,0,12,0,1,,,,,,,,,,,,,
6655f45c1e2ab295525736fb,SCR,2024-06-21_05h30.04.620,LearnStrategy,2023.2.3,Win32,59.88023952,1,1,14,0.231481481,-0.093518504,1,0,0,1.3125,Andesite_09,1,09,3,6,1.313,1,09,0.336111139,-0.233333376,1,0,0,2.3764,Gabbro_rect,4,2.376,0,13,0,13,0,1,,,,,,,,,,,,,
6655f45c1e2ab295525736fb,SCR,2024-06-21_05h30.04.620,LearnStrategy,2023.2.3,Win32,59.88023952,1,1,15,-0.369444423,0.084259245,1,0,0,1.4994,Peridotite_07,7,07,4,2,1.499,7,07,0.099074116,-0.248148176,1,0,0,1.4524,Diorite_rect,3,1.452,0,14,0,14,0,1,,,,,,,,,,,,,
6655f45c1e2ab295525736fb,SCR,2024-06-21_05h30.04.620,LearnStrategy,2023.2.3,Win32,59.88023952,1,1,16,-0.51203703,-0.10092594,1,0,0,7.6024,Basalt_02,2,02,3,1,7.602,2,02,-0.169444402,-0.390740783,1,0,0,3.1064,Pegmatite_rect,6,3.106,0,15,0,15,0,1,,,,,,,,,,,,,
6655f45c1e2ab295525736fb,SCR,2024-06-21_05h30.04.620,LearnStrategy,2023.2.3,Win32,59.88023952,1,2,1,,,,,,,,2,12,,,,,,,,,,,,,7,5.3,0,,,,,,0.161111125,-0.416666667,1,0,0,5.3005,Peridotite_rect,0,0,0,0,1,
6655f45c1e2ab295525736fb,SCR,2024-06-21_05h30.04.620,LearnStrategy,2023.2.3,Win32,59.88023952,1,2,2,,,,,,,,3,07,,,,,,,,,,,,,4,6.574,0,,,,,,0.352777834,-0.251851894,1,0,0,6.574,Gabbro_rect,1,0,1,0,1,
6655f45c1e2ab295525736fb,SCR,2024-06-21_05h30.04.620,LearnStrategy,2023.2.3,Win32,59.88023952,1,2,3,,,,,,,,5,10,,,,,,,,,,,,,5,2.19,1,,,,,,-0.39444443,-0.413888931,1,0,0,2.19,Obsidian_rect,2,0,2,0,1,
6655f45c1e2ab295525736fb,SCR,2024-06-21_05h30.04.620,LearnStrategy,2023.2.3,Win32,59.88023952,1,2,4,,,,,,,,5,08,,,,,,,,,,,,,5,2.093,1,,,,,,-0.40648146,-0.404629672,1,0,0,2.093,Obsidian_rect,3,0,3,0,1,
6655f45c1e2ab295525736fb,SCR,2024-06-21_05h30.04.620,LearnStrategy,2023.2.3,Win32,59.88023952,1,2,5,,,,,,,,4,03,,,,,,,,,,,,,6,2.905,0,,,,,,-0.090740698,-0.381481524,1,0,0,2.9053,Pegmatite_rect,4,0,4,0,1,
6655f45c1e2ab295525736fb,SCR,2024-06-21_05h30.04.620,LearnStrategy,2023.2.3,Win32,59.88023952,1,2,6,,,,,,,,3,02,,,,,,,,,,,,,1,1.941,0,,,,,,-0.347222222,-0.258333347,1,0,0,1.9407,Andesite_rect,5,0,5,0,1,
6655f45c1e2ab295525736fb,SCR,2024-06-21_05h30.04.620,LearnStrategy,2023.2.3,Win32,59.88023952,1,2,7,,,,,,,,7,08,,,,,,,,,,,,,7,3.724,1,,,,,,0.112963005,-0.391666695,1,0,0,3.7238,Peridotite_rect,6,0,6,0,1,
6655f45c1e2ab295525736fb,SCR,2024-06-21_05h30.04.620,LearnStrategy,2023.2.3,Win32,59.88023952,1,2,8,,,,,,,,1,01,,,,,,,,,,,,,4,2.175,0,,,,,,0.329629686,-0.228703746,1,0,0,2.1745,Gabbro_rect,7,0,7,0,1,
6655f45c1e2ab295525736fb,SCR,2024-06-21_05h30.04.620,LearnStrategy,2023.2.3,Win32,59.88023952,1,2,9,,,,,,,,8,04,,,,,,,,,,,,,8,1.619,1,,,,,,0.335185157,-0.382407436,1,0,0,1.6192,Pumice_rect,8,0,8,0,1,
6655f45c1e2ab295525736fb,SCR,2024-06-21_05h30.04.620,LearnStrategy,2023.2.3,Win32,59.88023952,1,2,10,,,,,,,,1,02,,,,,,,,,,,,,2,2.542,0,,,,,,-0.084259245,-0.237037023,1,0,0,2.5418,Basalt_rect,9,0,9,0,1,
6655f45c1e2ab295525736fb,SCR,2024-06-21_05h30.04.620,LearnStrategy,2023.2.3,Win32,59.88023952,1,2,11,,,,,,,,2,01,,,,,,,,,,,,,1,5.634,0,,,,,,-0.335185192,-0.24537037,1,0,0,5.6343,Andesite_rect,10,0,10,0,1,
6655f45c1e2ab295525736fb,SCR,2024-06-21_05h30.04.620,LearnStrategy,2023.2.3,Win32,59.88023952,1,2,12,,,,,,,,4,01,,,,,,,,,,,,,3,1.875,0,,,,,,0.14444443,-0.253703718,1,0,0,1.8753,Diorite_rect,11,0,11,0,1,
6655f45c1e2ab295525736fb,SCR,2024-06-21_05h30.04.620,LearnStrategy,2023.2.3,Win32,59.88023952,1,2,13,,,,,,,,7,15,,,,,,,,,,,,,3,1.382,0,,,,,,0.14444443,-0.253703718,1,0,0,1.382,Diorite_rect,12,0,12,0,1,
6655f45c1e2ab295525736fb,SCR,2024-06-21_05h30.04.620,LearnStrategy,2023.2.3,Win32,59.88023952,1,2,14,,,,,,,,6,16,,,,,,,,,,,,,2,2.579,0,,,,,,-0.063888903,-0.255555541,1,0,0,2.5785,Basalt_rect,13,0,13,0,1,
6655f45c1e2ab295525736fb,SCR,2024-06-21_05h30.04.620,LearnStrategy,2023.2.3,Win32,59.88023952,1,2,15,,,,,,,,6,13,,,,,,,,,,,,,1,2.284,0,,,,,,-0.307407414,-0.258333347,1,0,0,2.2841,Andesite_rect,14,0,14,0,1,
6655f45c1e2ab295525736fb,SCR,2024-06-21_05h30.04.620,LearnStrategy,2023.2.3,Win32,59.88023952,1,2,16,,,,,,,,8,09,,,,,,,,,,,,,8,2.453,1,,,,,,0.40833339,-0.387037065,1,0,0,2.4526,Pumice_rect,15,0,15,0,1,
6655f45c1e2ab295525736fb,SCR,2024-06-21_05h30.04.620,LearnStrategy,2023.2.3,Win32,59.88023952,2,1,1,-0.378703683,0.110185164,1,0,0,6.8155,Peridotite_07,7,07,4,2,6.816,1,04,0.374074159,-0.246296282,1,0,0,2.881,Gabbro_rect,4,2.881,0,0,0,0,0,1,,,,,,,,,,,,,
6655f45c1e2ab295525736fb,SCR,2024-06-21_05h30.04.620,LearnStrategy,2023.2.3,Win32,59.88023952,2,1,2,-0.402777778,0.116666653,1,0,0,1.3967,Peridotite_07,7,07,4,2,1.397,6,05,0.132407436,-0.417592578,1,0,0,1.9416,Peridotite_rect,7,1.942,1,1,0,1,0,1,,,,,,,,,,,,,
6655f45c1e2ab295525736fb,SCR,2024-06-21_05h30.04.620,LearnStrategy,2023.2.3,Win32,59.88023952,2,1,3,0.214814857,0.072222215,1,0,0,6.48,Gabbro_05,4,05,4,6,6.48,4,05,0.357407464,-0.231481481,1,0,0,2.3187,Gabbro_rect,4,2.319,1,2,0,2,0,1,,,,,,,,,,,,,
6655f45c1e2ab295525736fb,SCR,2024-06-21_05h30.04.620,LearnStrategy,2023.2.3,Win32,59.88023952,2,1,4,0.522222307,0.070370356,1,0,0,1.6483,Diorite_16,3,16,4,8,1.648,4,14,0.371296353,-0.228703746,1,0,0,1.0432,Gabbro_rect,4,1.043,0,3,0,3,0,1,,,,,,,,,,,,,
6655f45c1e2ab295525736fb,SCR,2024-06-21_05h30.04.620,LearnStrategy,2023.2.3,Win32,59.88023952,2,1,5,-0.392592571,0.086111104,1,0,0,1.3308,Peridotite_07,7,07,4,2,1.331,3,12,0.104629658,-0.389814801,1,0,0,1.2788,Peridotite_rect,7,1.279,1,4,0,4,0,1,,,,,,,,,,,,,
6655f45c1e2ab295525736fb,SCR,2024-06-21_05h30.04.620,LearnStrategy,2023.2.3,Win32,59.88023952,2,1,6,0.57685188,0.099999993,1,0,0,1.1651,Diorite_16,3,16,4,8,1.165,2,02,0.134259259,-0.253703718,1,0,0,1.6121,Diorite_rect,3,1.612,1,5,0,5,0,1,,,,,,,,,,,,,
6655f45c1e2ab295525736fb,SCR,2024-06-21_05h30.04.620,LearnStrategy,2023.2.3,Win32,59.88023952,2,1,7,-0.387962942,-0.255555541,1,0,0,1.9154,Basalt_16,2,16,2,2,1.915,4,12,-0.145370342,-0.248148176,1,0,0,1.3765,Basalt_rect,2,1.377,1,6,0,6,0,1,,,,,,,,,,,,,
6655f45c1e2ab295525736fb,SCR,2024-06-21_05h30.04.620,LearnStrategy,2023.2.3,Win32,59.88023952,2,1,8,-0.251851824,0.382407409,1,0,0,4.3807,Diorite_11,3,11,6,3,4.381,2,05,0.356481481,-0.260185171,1,0,0,1.6965,Gabbro_rect,4,1.697,0,7,0,7,0,1,,,,,,,,,,,,,
6655f45c1e2ab295525736fb,SCR,2024-06-21_05h30.04.620,LearnStrategy,2023.2.3,Win32,59.88023952,2,1,9,-0.373148141,0.087037016,1,0,0,1.2017,Peridotite_07,7,07,4,2,1.202,6,08,0.179629644,-0.392592607,1,0,0,1.3786,Peridotite_rect,7,1.379,1,8,0,8,0,1,,,,,,,,,,,,,
6655f45c1e2ab295525736fb,SCR,2024-06-21_05h30.04.620,LearnStrategy,2023.2.3,Win32,59.88023952,2,1,10,0.237963005,0.127777771,1,0,0,6.5336,Gabbro_05,4,05,4,6,6.534,3,13,0.106481481,-0.247222265,1,0,0,1.5609,Diorite_rect,3,1.561,0,9,0,9,0,1,,,,,,,,,,,,,
6655f45c1e2ab295525736fb,SCR,2024-06-21_05h30.04.620,LearnStrategy,2023.2.3,Win32,59.88023952,2,1,11,-0.246296282,0.426851851,1,0,0,1.3636,Diorite_11,3,11,6,3,1.364,1,06,0.140740783,-0.240740741,1,0,0,1.4178,Diorite_rect,3,1.418,1,10,0,10,0,1,,,,,,,,,,,,,
6655f45c1e2ab295525736fb,SCR,2024-06-21_05h30.04.620,LearnStrategy,2023.2.3,Win32,59.88023952,2,1,12,-0.51666666,0.242592582,1,0,0,2.2152,Diorite_09,3,09,5,1,2.215,2,11,0.373148176,-0.25,1,0,0,2.2341,Gabbro_rect,4,2.234,0,11,0,11,0,1,,,,,,,,,,,,,
6655f45c1e2ab295525736fb,SCR,2024-06-21_05h30.04.620,LearnStrategy,2023.2.3,Win32,59.88023952,2,1,13,-0.563888868,-0.262962977,1,0,0,4.5555,Diorite_15,3,15,2,1,4.555,3,15,0.112963005,-0.388888889,1,0,0,1.8921,Peridotite_rect,7,1.892,0,12,0,12,0,1,,,,,,,,,,,,,
6655f45c1e2ab295525736fb,SCR,2024-06-21_05h30.04.620,LearnStrategy,2023.2.3,Win32,59.88023952,2,1,14,-0.3824074,0.274074078,1,0,0,1.8971,Andesite_06,1,06,5,2,1.897,1,06,0.356481481,-0.244444459,1,0,0,1.3527,Gabbro_rect,4,1.353,0,13,0,13,0,1,,,,,,,,,,,,,
6655f45c1e2ab295525736fb,SCR,2024-06-21_05h30.04.620,LearnStrategy,2023.2.3,Win32,59.88023952,2,1,15,-0.544444437,-0.387962977,1,0,0,1.3519,Diorite_13,3,13,1,1,1.352,6,07,-0.365740741,-0.24537037,1,0,0,1.3674,Andesite_rect,1,1.367,0,14,0,14,0,1,,,,,,,,,,,,,
6655f45c1e2ab295525736fb,SCR,2024-06-21_05h30.04.620,LearnStrategy,2023.2.3,Win32,59.88023952,2,1,16,0.384259259,0.37314815,1,0,0,1.3309,Peridotite_06,7,06,6,7,1.331,7,06,-0.336111104,-0.261111153,1,0,0,2.6888,Andesite_rect,1,2.689,0,15,0,15,0,1,,,,,,,,,,,,,
6655f45c1e2ab295525736fb,SCR,2024-06-21_05h30.04.620,LearnStrategy,2023.2.3,Win32,59.88023952,2,2,1,,,,,,,,7,10,,,,,,,,,,,,,3,3.161,0,,,,,,0.111111111,-0.238888917,1,0,0,3.1611,Diorite_rect,0,0,0,0,1,
6655f45c1e2ab295525736fb,SCR,2024-06-21_05h30.04.620,LearnStrategy,2023.2.3,Win32,59.88023952,2,2,2,,,,,,,,7,05,,,,,,,,,,,,,1,2.543,0,,,,,,-0.405555548,-0.237963005,1,0,0,2.5426,Andesite_rect,1,0,1,0,1,
6655f45c1e2ab295525736fb,SCR,2024-06-21_05h30.04.620,LearnStrategy,2023.2.3,Win32,59.88023952,2,2,3,,,,,,,,8,05,,,,,,,,,,,,,8,1.963,1,,,,,,0.384259259,-0.396296325,1,0,0,1.9632,Pumice_rect,2,0,2,0,1,
6655f45c1e2ab295525736fb,SCR,2024-06-21_05h30.04.620,LearnStrategy,2023.2.3,Win32,59.88023952,2,2,4,,,,,,,,6,10,,,,,,,,,,,,,2,4.268,0,,,,,,-0.107407393,-0.256481524,1,0,0,4.2675,Basalt_rect,3,0,3,0,1,
6655f45c1e2ab295525736fb,SCR,2024-06-21_05h30.04.620,LearnStrategy,2023.2.3,Win32,59.88023952,2,2,5,,,,,,,,6,12,,,,,,,,,,,,,7,2.244,0,,,,,,0.100000028,-0.412962949,1,0,0,2.2442,Peridotite_rect,4,0,4,0,1,
6655f45c1e2ab295525736fb,SCR,2024-06-21_05h30.04.620,LearnStrategy,2023.2.3,Win32,59.88023952,2,2,6,,,,,,,,4,13,,,,,,,,,,,,,4,1.354,1,,,,,,0.332407492,-0.253703718,1,0,0,1.3544,Gabbro_rect,5,0,5,0,1,
6655f45c1e2ab295525736fb,SCR,2024-06-21_05h30.04.620,LearnStrategy,2023.2.3,Win32,59.88023952,2,2,7,,,,,,,,1,11,,,,,,,,,,,,,4,1.825,0,,,,,,0.371296353,-0.258333347,1,0,0,1.8253,Gabbro_rect,6,0,6,0,1,
6655f45c1e2ab295525736fb,SCR,2024-06-21_05h30.04.620,LearnStrategy,2023.2.3,Win32,59.88023952,2,2,8,,,,,,,,2,08,,,,,,,,,,,,,5,2.159,0,,,,,,-0.386111118,-0.400925954,1,0,0,2.1586,Obsidian_rect,7,0,7,0,1,
6655f45c1e2ab295525736fb,SCR,2024-06-21_05h30.04.620,LearnStrategy,2023.2.3,Win32,59.88023952,2,2,9,,,,,,,,3,06,,,,,,,,,,,,,7,3.19,0,,,,,,0.087962963,-0.39444443,1,0,0,3.1901,Peridotite_rect,8,0,8,0,1,
6655f45c1e2ab295525736fb,SCR,2024-06-21_05h30.04.620,LearnStrategy,2023.2.3,Win32,59.88023952,2,2,10,,,,,,,,5,12,,,,,,,,,,,,,5,1.301,1,,,,,,-0.338888875,-0.39444443,1,0,0,1.301,Obsidian_rect,9,0,9,0,1,
6655f45c1e2ab295525736fb,SCR,2024-06-21_05h30.04.620,LearnStrategy,2023.2.3,Win32,59.88023952,2,2,11,,,,,,,,4,11,,,,,,,,,,,,,6,1.593,0,,,,,,-0.14444443,-0.398148148,1,0,0,1.5935,Pegmatite_rect,10,0,10,0,1,
6655f45c1e2ab295525736fb,SCR,2024-06-21_05h30.04.620,LearnStrategy,2023.2.3,Win32,59.88023952,2,2,12,,,,,,,,5,11,,,,,,,,,,,,,5,1.86,1,,,,,,-0.384259259,-0.409259302,1,0,0,1.86,Obsidian_rect,11,0,11,0,1,
6655f45c1e2ab295525736fb,SCR,2024-06-21_05h30.04.620,LearnStrategy,2023.2.3,Win32,59.88023952,2,2,13,,,,,,,,2,06,,,,,,,,,,,,,2,2.277,1,,,,,,-0.14444443,-0.256481524,1,0,0,2.2767,Basalt_rect,12,0,12,0,1,
6655f45c1e2ab295525736fb,SCR,2024-06-21_05h30.04.620,LearnStrategy,2023.2.3,Win32,59.88023952,2,2,14,,,,,,,,8,02,,,,,,,,,,,,,8,4.891,1,,,,,,0.330555527,-0.380555541,1,0,0,4.8907,Pumice_rect,13,0,13,0,1,
6655f45c1e2ab295525736fb,SCR,2024-06-21_05h30.04.620,LearnStrategy,2023.2.3,Win32,59.88023952,2,2,15,,,,,,,,3,08,,,,,,,,,,,,,3,1.754,1,,,,,,0.199999986,-0.271296325,1,0,0,1.7543,Diorite_rect,14,0,14,0,1,
6655f45c1e2ab295525736fb,SCR,2024-06-21_05h30.04.620,LearnStrategy,2023.2.3,Win32,59.88023952,2,2,16,,,,,,,,1,14,,,,,,,,,,,,,3,2.823,0,,,,,,0.199999986,-0.271296325,1,0,0,2.8227,Diorite_rect,15,0,15,0,1,
6655f45c1e2ab295525736fb,SCR,2024-06-21_05h30.04.620,LearnStrategy,2023.2.3,Win32,59.88023952,3,1,1,-0.077777792,0.093518504,1,0,0,2.3635,Basalt_10,2,10,4,4,2.364,2,10,-0.121296282,-0.388888889,1,0,0,4.0553,Pegmatite_rect,6,4.055,0,0,0,0,0,1,,,,,,,,,,,,,
6655f45c1e2ab295525736fb,SCR,2024-06-21_05h30.04.620,LearnStrategy,2023.2.3,Win32,59.88023952,3,1,2,0.401851937,0.424074076,1,0,0,3.364,Peridotite_06,7,06,6,7,3.364,7,06,0.157407407,-0.25,1,0,0,1.6863,Diorite_rect,3,1.686,0,1,0,1,0,1,,,,,,,,,,,,,
6655f45c1e2ab295525736fb,SCR,2024-06-21_05h30.04.620,LearnStrategy,2023.2.3,Win32,59.88023952,3,1,3,-0.538888896,-0.405555584,1,0,0,1.5307,Diorite_13,3,13,1,1,1.531,3,13,0.19722225,-0.267592607,1,0,0,2.4066,Diorite_rect,3,2.407,1,2,0,2,0,1,,,,,,,,,,,,,
6655f45c1e2ab295525736fb,SCR,2024-06-21_05h30.04.620,LearnStrategy,2023.2.3,Win32,59.88023952,3,1,4,0.203703704,0.271296289,1,0,0,1.1288,Pegmatite_03,6,03,5,6,1.129,6,03,-0.36296297,-0.260185171,1,0,0,3.2294,Andesite_rect,1,3.229,0,3,0,3,0,1,,,,,,,,,,,,,
6655f45c1e2ab295525736fb,SCR,2024-06-21_05h30.04.620,LearnStrategy,2023.2.3,Win32,59.88023952,3,1,5,-0.091666681,0.222222222,1,0,0,1.1262,Andesite_16,1,16,5,4,1.126,1,16,0.333333333,-0.270370413,1,0,0,1.725,Gabbro_rect,4,1.725,0,4,0,4,0,1,,,,,,,,,,,,,
6655f45c1e2ab295525736fb,SCR,2024-06-21_05h30.04.620,LearnStrategy,2023.2.3,Win32,59.88023952,3,1,6,0.217592593,-0.40370369,1,0,0,1.8633,Gabbro_09,4,09,1,6,1.863,4,09,-0.075925898,-0.406481496,1,0,0,1.5597,Pegmatite_rect,6,1.56,0,5,0,5,0,1,,,,,,,,,,,,,
6655f45c1e2ab295525736fb,SCR,2024-06-21_05h30.04.620,LearnStrategy,2023.2.3,Win32,59.88023952,3,1,7,0.389814871,-0.430555556,1,0,0,0.9871,Pegmatite_09,6,09,1,7,0.987,1,09,-0.353703711,-0.251851894,1,0,0,2.3426,Andesite_rect,1,2.343,0,6,0,6,0,1,,,,,,,,,,,,,
6655f45c1e2ab295525736fb,SCR,2024-06-21_05h30.04.620,LearnStrategy,2023.2.3,Win32,59.88023952,3,1,8,-0.353703711,-0.420370384,1,0,0,1.4355,Andesite_04,1,04,1,2,1.436,1,04,0.351851852,-0.395370413,1,0,0,5.0953,Pumice_rect,8,5.095,0,7,0,7,0,1,,,,,,,,,,,,,
6655f45c1e2ab295525736fb,SCR,2024-06-21_05h30.04.620,LearnStrategy,2023.2.3,Win32,59.88023952,3,1,9,0.233333376,0.2537037,1,0,0,3.1257,Pegmatite_03,6,03,5,6,3.126,5,14,-0.126851824,-0.418518561,1,0,0,1.937,Pegmatite_rect,6,1.937,1,8,0,8,0,1,,,,,,,,,,,,,
6655f45c1e2ab295525736fb,SCR,2024-06-21_05h30.04.620,LearnStrategy,2023.2.3,Win32,59.88023952,3,1,10,-0.19722218,-0.410185213,1,0,0,2.3809,Pegmatite_07,6,07,1,3,2.381,6,07,-0.174074032,-0.421296296,1,0,0,1.7063,Pegmatite_rect,6,1.706,1,9,0,9,0,1,,,,,,,,,,,,,
6655f45c1e2ab295525736fb,SCR,2024-06-21_05h30.04.620,LearnStrategy,2023.2.3,Win32,59.88023952,3,1,11,0.040740755,0.068518497,1,0,0,1.047,Gabbro_14,4,14,4,5,1.047,4,14,-0.181481467,-0.259259259,1,0,0,3.4162,Basalt_rect,2,3.416,0,10,0,10,0,1,,,,,,,,,,,,,
6655f45c1e2ab295525736fb,SCR,2024-06-21_05h30.04.620,LearnStrategy,2023.2.3,Win32,59.88023952,3,1,12,0.24537037,0.375925921,1,0,0,1.3779,Peridotite_02,7,02,6,6,1.378,7,02,0.301851908,-0.253703718,1,0,0,3.5591,Gabbro_rect,4,3.559,0,11,0,11,0,1,,,,,,,,,,,,,
6655f45c1e2ab295525736fb,SCR,2024-06-21_05h30.04.620,LearnStrategy,2023.2.3,Win32,59.88023952,3,1,13,0.546296296,0.221296293,1,0,0,1.4966,Pegmatite_11,6,11,5,8,1.497,6,11,-0.17777775,-0.398148148,1,0,0,1.3767,Pegmatite_rect,6,1.377,1,12,0,12,0,1,,,,,,,,,,,,,
6655f45c1e2ab295525736fb,SCR,2024-06-21_05h30.04.620,LearnStrategy,2023.2.3,Win32,59.88023952,3,1,14,-0.074999986,-0.422222208,1,0,0,1.4307,Basalt_11,2,11,1,4,1.431,2,11,0.32222225,-0.385185171,1,0,0,1.5962,Pumice_rect,8,1.596,0,13,0,13,0,1,,,,,,,,,,,,,
6655f45c1e2ab295525736fb,SCR,2024-06-21_05h30.04.620,LearnStrategy,2023.2.3,Win32,59.88023952,3,1,15,0.571296268,0.421296296,1,0,0,1.0013,Peridotite_13,7,13,6,8,1.001,7,13,-0.385185171,-0.246296282,1,0,0,1.6224,Andesite_rect,1,1.622,0,14,0,14,0,1,,,,,,,,,,,,,
6655f45c1e2ab295525736fb,SCR,2024-06-21_05h30.04.620,LearnStrategy,2023.2.3,Win32,59.88023952,3,1,16,-0.534259266,0.262962959,1,0,0,1.4219,Diorite_09,3,09,5,1,1.422,3,09,0.12962963,-0.249074088,1,0,0,1.5912,Diorite_rect,3,1.591,1,15,0,15,0,1,,,,,,,,,,,,,
6655f45c1e2ab295525736fb,SCR,2024-06-21_05h30.04.620,LearnStrategy,2023.2.3,Win32,59.88023952,3,2,1,,,,,,,,4,15,,,,,,,,,,,,,2,14.475,0,,,,,,-0.114814829,-0.251851894,1,0,0,14.4745,Basalt_rect,0,0,0,0,1,
6655f45c1e2ab295525736fb,SCR,2024-06-21_05h30.04.620,LearnStrategy,2023.2.3,Win32,59.88023952,3,2,2,,,,,,,,8,16,,,,,,,,,,,,,1,2.125,0,,,,,,-0.393518519,-0.249074088,1,0,0,2.1247,Andesite_rect,1,0,1,0,1,
6655f45c1e2ab295525736fb,SCR,2024-06-21_05h30.04.620,LearnStrategy,2023.2.3,Win32,59.88023952,3,2,3,,,,,,,,8,14,,,,,,,,,,,,,8,1.76,1,,,,,,0.468518575,-0.413888931,1,0,0,1.7603,Pumice_rect,2,0,2,0,1,
6655f45c1e2ab295525736fb,SCR,2024-06-21_05h30.04.620,LearnStrategy,2023.2.3,Win32,59.88023952,3,2,4,,,,,,,,5,06,,,,,,,,,,,,,5,1.795,1,,,,,,-0.357407393,-0.387962977,1,0,0,1.7946,Obsidian_rect,3,0,3,0,1,
6655f45c1e2ab295525736fb,SCR,2024-06-21_05h30.04.620,LearnStrategy,2023.2.3,Win32,59.88023952,3,2,5,,,,,,,,3,10,,,,,,,,,,,,,4,2.41,0,,,,,,0.393518519,-0.266666695,1,0,0,2.41,Gabbro_rect,4,0,4,0,1,
6655f45c1e2ab295525736fb,SCR,2024-06-21_05h30.04.620,LearnStrategy,2023.2.3,Win32,59.88023952,3,2,6,,,,,,,,3,14,,,,,,,,,,,,,3,3.944,1,,,,,,0.176851838,-0.26944443,1,0,0,3.9443,Diorite_rect,5,0,5,0,1,
6655f45c1e2ab295525736fb,SCR,2024-06-21_05h30.04.620,LearnStrategy,2023.2.3,Win32,59.88023952,3,2,7,,,,,,,,1,10,,,,,,,,,,,,,2,1.849,0,,,,,,-0.065740727,-0.264814801,1,0,0,1.8489,Basalt_rect,6,0,6,0,1,
6655f45c1e2ab295525736fb,SCR,2024-06-21_05h30.04.620,LearnStrategy,2023.2.3,Win32,59.88023952,3,2,8,,,,,,,,7,04,,,,,,,,,,,,,2,3.27,0,,,,,,-0.122222194,-0.257407436,1,0,0,3.2705,Basalt_rect,7,0,7,0,1,
6655f45c1e2ab295525736fb,SCR,2024-06-21_05h30.04.620,LearnStrategy,2023.2.3,Win32,59.88023952,3,2,9,,,,,,,,6,06,,,,,,,,,,,,,6,1.575,1,,,,,,-0.156481496,-0.412037037,1,0,0,1.5748,Pegmatite_rect,8,0,8,0,1,
6655f45c1e2ab295525736fb,SCR,2024-06-21_05h30.04.620,LearnStrategy,2023.2.3,Win32,59.88023952,3,2,10,,,,,,,,4,10,,,,,,,,,,,,,4,4.114,1,,,,,,0.381481453,-0.244444459,1,0,0,4.1136,Gabbro_rect,9,0,9,0,1,
6655f45c1e2ab295525736fb,SCR,2024-06-21_05h30.04.620,LearnStrategy,2023.2.3,Win32,59.88023952,3,2,11,,,,,,,,2,14,,,,,,,,,,,,,1,1.78,0,,,,,,-0.41574072,-0.249074088,1,0,0,1.7796,Andesite_rect,10,0,10,0,1,
6655f45c1e2ab295525736fb,SCR,2024-06-21_05h30.04.620,LearnStrategy,2023.2.3,Win32,59.88023952,3,2,12,,,,,,,,6,15,,,,,,,,,,,,,7,2.013,0,,,,,,0.043518561,-0.386111153,1,0,0,2.0128,Peridotite_rect,11,0,11,0,1,
6655f45c1e2ab295525736fb,SCR,2024-06-21_05h30.04.620,LearnStrategy,2023.2.3,Win32,59.88023952,3,2,13,,,,,,,,2,09,,,,,,,,,,,,,2,4.064,1,,,,,,-0.161111125,-0.270370413,1,0,0,4.0636,Basalt_rect,12,0,12,0,1,
6655f45c1e2ab295525736fb,SCR,2024-06-21_05h30.04.620,LearnStrategy,2023.2.3,Win32,59.88023952,3,2,14,,,,,,,,7,16,,,,,,,,,,,,,4,2.645,0,,,,,,0.394444501,-0.231481481,1,0,0,2.645,Gabbro_rect,13,0,13,0,1,
6655f45c1e2ab295525736fb,SCR,2024-06-21_05h30.04.620,LearnStrategy,2023.2.3,Win32,59.88023952,3,2,15,,,,,,,,1,07,,,,,,,,,,,,,3,2.697,0,,,,,,0.192592621,-0.256481524,1,0,0,2.6966,Diorite_rect,14,0,14,0,1,
6655f45c1e2ab295525736fb,SCR,2024-06-21_05h30.04.620,LearnStrategy,2023.2.3,Win32,59.88023952,3,2,16,,,,,,,,5,05,,,,,,,,,,,,,5,2.758,1,,,,,,-0.353703711,-0.389814801,1,0,0,2.758,Obsidian_rect,15,0,15,0,1,
6655f45c1e2ab295525736fb,SCR,2024-06-21_05h30.04.620,LearnStrategy,2023.2.3,Win32,59.88023952,4,1,1,-0.061111097,0.38333333,1,0,0,2.4655,Obsidian_14,5,14,6,4,2.466,5,14,-0.35833334,-0.408333319,1,0,0,2.0411,Obsidian_rect,5,2.041,1,0,0,0,0,1,,,,,,,,,,,,,
6655f45c1e2ab295525736fb,SCR,2024-06-21_05h30.04.620,LearnStrategy,2023.2.3,Win32,59.88023952,4,1,2,-0.533333319,0.242592582,1,0,0,9.7794,Diorite_09,3,09,5,1,9.779,3,09,-0.368518511,-0.243518547,1,0,0,2.1383,Andesite_rect,1,2.138,0,1,0,1,0,1,,,,,,,,,,,,,
6655f45c1e2ab295525736fb,SCR,2024-06-21_05h30.04.620,LearnStrategy,2023.2.3,Win32,59.88023952,4,1,3,-0.392592571,0.399999998,1,0,0,2.1632,Gabbro_12,4,12,6,2,2.163,4,12,-0.155555513,-0.416666667,1,0,0,1.9665,Pegmatite_rect,6,1.966,0,2,0,2,0,1,,,,,,,,,,,,,
6655f45c1e2ab295525736fb,SCR,2024-06-21_05h30.04.620,LearnStrategy,2023.2.3,Win32,59.88023952,4,1,4,0.389814871,-0.25,1,0,0,1.631,Basalt_05,2,05,2,7,1.631,2,05,0.383333418,-0.233333376,1,0,0,1.2944,Gabbro_rect,4,1.294,0,3,0,3,0,1,,,,,,,,,,,,,
6655f45c1e2ab295525736fb,SCR,2024-06-21_05h30.04.620,LearnStrategy,2023.2.3,Win32,59.88023952,4,1,5,0.202777792,0.236111111,1,0,0,1.6798,Pegmatite_03,6,03,5,6,1.68,6,03,0.10555557,-0.397222236,1,0,0,1.9064,Peridotite_rect,7,1.906,0,4,0,4,0,1,,,,,,,,,,,,,
6655f45c1e2ab295525736fb,SCR,2024-06-21_05h30.04.620,LearnStrategy,2023.2.3,Win32,59.88023952,4,1,6,-0.393518519,-0.437962991,1,0,0,1.8652,Andesite_04,1,04,1,2,1.865,1,04,0.352777834,-0.255555541,1,0,0,2.6587,Gabbro_rect,4,2.659,0,5,0,5,0,1,,,,,,,,,,,,,
6655f45c1e2ab295525736fb,SCR,2024-06-21_05h30.04.620,LearnStrategy,2023.2.3,Win32,59.88023952,4,1,7,-0.550925926,-0.387037065,1,0,0,3.1982,Diorite_13,3,13,1,1,3.198,1,16,-0.455555563,-0.253703718,1,0,0,1.1614,Andesite_rect,1,1.161,0,6,0,6,0,1,,,,,,,,,,,,,
6655f45c1e2ab295525736fb,SCR,2024-06-21_05h30.04.620,LearnStrategy,2023.2.3,Win32,59.88023952,4,1,8,-0.400000007,-0.272222236,1,0,0,2.2638,Basalt_16,2,16,2,2,2.264,7,12,-0.371296282,-0.235185199,1,0,0,1.1803,Andesite_rect,1,1.18,0,7,0,7,0,1,,,,,,,,,,,,,
6655f45c1e2ab295525736fb,SCR,2024-06-21_05h30.04.620,LearnStrategy,2023.2.3,Win32,59.88023952,4,1,9,0.249074088,-0.247222265,1,0,0,2.665,Gabbro_16,4,16,2,6,2.665,8,08,-0.10092594,-0.239814829,1,0,0,1.6589,Basalt_rect,2,1.659,0,8,0,8,0,1,,,,,,,,,,,,,
6655f45c1e2ab295525736fb,SCR,2024-06-21_05h30.04.620,LearnStrategy,2023.2.3,Win32,59.88023952,4,1,10,0.225000028,-0.115740741,1,0,0,4.4638,Andesite_09,1,09,3,6,4.464,6,11,-0.194444444,-0.256481524,1,0,0,1.054,Basalt_rect,2,1.054,0,9,0,9,0,1,,,,,,,,,,,,,
6655f45c1e2ab295525736fb,SCR,2024-06-21_05h30.04.620,LearnStrategy,2023.2.3,Win32,59.88023952,4,1,11,0.10555557,0.393518519,1,0,0,1.904,Diorite_12,3,12,6,5,1.904,3,12,-0.079629616,-0.410185213,1,0,0,3.8645,Pegmatite_rect,6,3.864,0,10,0,10,0,1,,,,,,,,,,,,,
6655f45c1e2ab295525736fb,SCR,2024-06-21_05h30.04.620,LearnStrategy,2023.2.3,Win32,59.88023952,4,1,12,0.077777792,-0.438888903,1,0,0,1.7365,Andesite_03,1,03,1,5,1.736,1,03,0.367592564,-0.24537037,1,0,0,3.3751,Gabbro_rect,4,3.375,0,11,0,11,0,1,,,,,,,,,,,,,
6655f45c1e2ab295525736fb,SCR,2024-06-21_05h30.04.620,LearnStrategy,2023.2.3,Win32,59.88023952,4,1,13,-0.031481496,0.099999993,1,0,0,2.0148,Basalt_10,2,10,4,4,2.015,2,10,-0.089814787,-0.25462963,1,0,0,2.2587,Basalt_rect,2,2.259,1,12,0,12,0,1,,,,,,,,,,,,,
6655f45c1e2ab295525736fb,SCR,2024-06-21_05h30.04.620,LearnStrategy,2023.2.3,Win32,59.88023952,4,1,14,0.410185213,0.412962958,1,0,0,1.2972,Peridotite_06,7,06,6,7,1.297,7,06,0.358333305,-0.265740783,1,0,0,1.9417,Gabbro_rect,4,1.942,0,13,0,13,0,1,,,,,,,,,,,,,
6655f45c1e2ab295525736fb,SCR,2024-06-21_05h30.04.620,LearnStrategy,2023.2.3,Win32,59.88023952,4,1,15,0.055555556,0.091666645,1,0,0,1.2988,Gabbro_14,4,14,4,5,1.299,4,14,-0.110185199,-0.239814829,1,0,0,21.3339,Basalt_rect,2,21.334,0,14,0,14,0,1,,,,,,,,,,,,,
6655f45c1e2ab295525736fb,SCR,2024-06-21_05h30.04.620,LearnStrategy,2023.2.3,Win32,59.88023952,4,1,16,0.192592621,0.37222222,1,0,0,1.7644,Peridotite_02,7,02,6,6,1.764,7,02,-0.087962963,-0.401851866,1,0,0,5.4243,Pegmatite_rect,6,5.424,0,15,0,15,0,1,,,,,,,,,,,,,
6655f45c1e2ab295525736fb,SCR,2024-06-21_05h30.04.620,LearnStrategy,2023.2.3,Win32,59.88023952,4,2,1,,,,,,,,8,05,,,,,,,,,,,,,8,38.442,1,,,,,,0.433333362,-0.396296325,1,0,0,38.4419,Pumice_rect,0,0,0,0,1,
6655f45c1e2ab295525736fb,SCR,2024-06-21_05h30.04.620,LearnStrategy,2023.2.3,Win32,59.88023952,4,2,2,,,,,,,,1,02,,,,,,,,,,,,,6,5.654,0,,,,,,-0.061111097,-0.386111153,1,0,0,5.654,Pegmatite_rect,1,0,1,0,1,
6655f45c1e2ab295525736fb,SCR,2024-06-21_05h30.04.620,LearnStrategy,2023.2.3,Win32,59.88023952,4,2,3,,,,,,,,2,08,,,,,,,,,,,,,2,42.162,1,,,,,,-0.143518519,-0.257407436,1,0,0,42.1616,Basalt_rect,2,0,2,0,1,
6655f45c1e2ab295525736fb,SCR,2024-06-21_05h30.04.620,LearnStrategy,2023.2.3,Win32,59.88023952,4,2,4,,,,,,,,5,11,,,,,,,,,,,,,5,1.617,1,,,,,,-0.360185164,-0.395370413,1,0,0,1.6173,Obsidian_rect,3,0,3,0,1,
6655f45c1e2ab295525736fb,SCR,2024-06-21_05h30.04.620,LearnStrategy,2023.2.3,Win32,59.88023952,4,2,5,,,,,,,,2,12,,,,,,,,,,,,,2,5.973,1,,,,,,-0.123148106,-0.235185199,1,0,0,5.9734,Basalt_rect,4,0,4,0,1,
6655f45c1e2ab295525736fb,SCR,2024-06-21_05h30.04.620,LearnStrategy,2023.2.3,Win32,59.88023952,4,2,6,,,,,,,,6,10,,,,,,,,,,,,,6,3.519,1,,,,,,-0.12962963,-0.400925954,1,0,0,3.5192,Pegmatite_rect,5,0,5,0,1,
6655f45c1e2ab295525736fb,SCR,2024-06-21_05h30.04.620,LearnStrategy,2023.2.3,Win32,59.88023952,4,2,7,,,,,,,,3,10,,,,,,,,,,,,,4,2.798,0,,,,,,0.333333333,-0.266666695,1,0,0,2.7983,Gabbro_rect,6,0,6,0,1,
6655f45c1e2ab295525736fb,SCR,2024-06-21_05h30.04.620,LearnStrategy,2023.2.3,Win32,59.88023952,4,2,8,,,,,,,,3,14,,,,,,,,,,,,,3,3.361,1,,,,,,0.237963005,-0.264814801,1,0,0,3.3615,Diorite_rect,7,0,7,0,1,
6655f45c1e2ab295525736fb,SCR,2024-06-21_05h30.04.620,LearnStrategy,2023.2.3,Win32,59.88023952,4,2,9,,,,,,,,4,10,,,,,,,,,,,,,3,29.828,0,,,,,,0.143518519,-0.238888917,1,0,0,29.8282,Diorite_rect,8,0,8,0,1,
6655f45c1e2ab295525736fb,SCR,2024-06-21_05h30.04.620,LearnStrategy,2023.2.3,Win32,59.88023952,4,2,10,,,,,,,,8,14,,,,,,,,,,,,,3,4.22,0,,,,,,0.199074074,-0.259259259,1,0,0,4.2205,Diorite_rect,9,0,9,0,1,
6655f45c1e2ab295525736fb,SCR,2024-06-21_05h30.04.620,LearnStrategy,2023.2.3,Win32,59.88023952,4,2,11,,,,,,,,5,12,,,,,,,,,,,,,5,1.711,1,,,,,,-0.343518504,-0.382407436,1,0,0,1.7106,Obsidian_rect,10,0,10,0,1,
6655f45c1e2ab295525736fb,SCR,2024-06-21_05h30.04.620,LearnStrategy,2023.2.3,Win32,59.88023952,4,2,12,,,,,,,,4,11,,,,,,,,,,,,,1,3.522,0,,,,,,-0.375925912,-0.251851894,1,0,0,3.5215,Andesite_rect,11,0,11,0,1,
6655f45c1e2ab295525736fb,SCR,2024-06-21_05h30.04.620,LearnStrategy,2023.2.3,Win32,59.88023952,4,2,13,,,,,,,,7,15,,,,,,,,,,,,,4,2.187,0,,,,,,0.462037122,-0.234259288,1,0,0,2.1874,Gabbro_rect,12,0,12,0,1,
6655f45c1e2ab295525736fb,SCR,2024-06-21_05h30.04.620,LearnStrategy,2023.2.3,Win32,59.88023952,4,2,14,,,,,,,,7,05,,,,,,,,,,,,,3,2.451,0,,,,,,0.220370399,-0.238888917,1,0,0,2.4511,Diorite_rect,13,0,13,0,1,
6655f45c1e2ab295525736fb,SCR,2024-06-21_05h30.04.620,LearnStrategy,2023.2.3,Win32,59.88023952,4,2,15,,,,,,,,6,06,,,,,,,,,,,,,7,2.702,0,,,,,,0.117592635,-0.392592607,1,0,0,2.7018,Peridotite_rect,14,0,14,0,1,
6655f45c1e2ab295525736fb,SCR,2024-06-21_05h30.04.620,LearnStrategy,2023.2.3,Win32,59.88023952,4,2,16,,,,,,,,1,01,,,,,,,,,,,,,1,3.394,1,,,,,,-0.334259245,-0.243518547,1,0,0,3.3938,Andesite_rect,15,0,15,0,1,
6655f45c1e2ab295525736fb,SCR,2024-06-21_05h30.04.620,LearnStrategy,2023.2.3,Win32,59.88023952,5,1,1,0.544444473,0.38981481,1,0,0,18.6602,Peridotite_13,7,13,6,8,18.66,7,13,0.195370356,-0.258333347,1,0,0,1.4504,Diorite_rect,3,1.45,0,0,0,0,0,1,,,,,,,,,,,,,
6655f45c1e2ab295525736fb,SCR,2024-06-21_05h30.04.620,LearnStrategy,2023.2.3,Win32,59.88023952,5,1,2,0.067592621,0.406481478,1,0,0,1.5254,Diorite_12,3,12,6,5,1.525,3,12,0.396296325,-0.236111111,1,0,0,2.7196,Gabbro_rect,4,2.72,0,1,0,1,0,1,,,,,,,,,,,,,
6655f45c1e2ab295525736fb,SCR,2024-06-21_05h30.04.620,LearnStrategy,2023.2.3,Win32,59.88023952,5,1,3,0.087037051,0.244444441,1,0,0,1.2265,Andesite_05,1,05,5,5,1.226,1,05,0.124074088,-0.413888931,1,0,0,2.5715,Peridotite_rect,7,2.572,0,2,0,2,0,1,,,,,,,,,,,,,
6655f45c1e2ab295525736fb,SCR,2024-06-21_05h30.04.620,LearnStrategy,2023.2.3,Win32,59.88023952,5,1,4,-0.52870369,-0.237037023,1,0,0,1.7877,Diorite_15,3,15,2,1,1.788,3,15,0.374074159,-0.397222236,1,0,0,3.0699,Pumice_rect,8,3.07,0,3,0,3,0,1,,,,,,,,,,,,,
6655f45c1e2ab295525736fb,SCR,2024-06-21_05h30.04.620,LearnStrategy,2023.2.3,Win32,59.88023952,5,1,5,0.391666695,0.37222222,1,0,0,1.1299,Peridotite_06,7,06,6,7,1.13,7,06,0.10555557,-0.412962949,1,0,0,2.558,Peridotite_rect,7,2.558,1,4,0,4,0,1,,,,,,,,,,,,,
6655f45c1e2ab295525736fb,SCR,2024-06-21_05h30.04.620,LearnStrategy,2023.2.3,Win32,59.88023952,5,1,6,-0.070370356,0.072222215,1,0,0,1.0148,Basalt_10,2,10,4,4,1.015,2,10,-0.104629587,-0.253703718,1,0,0,29.9,Basalt_rect,2,29.9,1,5,0,5,0,1,,,,,,,,,,,,,
6655f45c1e2ab295525736fb,SCR,2024-06-21_05h30.04.620,LearnStrategy,2023.2.3,Win32,59.88023952,5,1,7,-0.255555541,0.100925905,1,0,0,1.2094,Pumice_03,8,03,4,3,1.209,8,03,0.341666751,-0.391666695,1,0,0,2.6129,Pumice_rect,8,2.613,1,6,0,6,0,1,,,,,,,,,,,,,
6655f45c1e2ab295525736fb,SCR,2024-06-21_05h30.04.620,LearnStrategy,2023.2.3,Win32,59.88023952,5,1,8,-0.437037044,0.428703701,1,0,0,2.0463,Gabbro_12,4,12,6,2,2.046,4,12,-0.36296297,-0.258333347,1,0,0,4.6513,Andesite_rect,1,4.651,0,7,0,7,0,1,,,,,,,,,,,,,
6655f45c1e2ab295525736fb,SCR,2024-06-21_05h30.04.620,LearnStrategy,2023.2.3,Win32,59.88023952,5,1,9,0.027777778,0.050925926,1,0,0,1.0583,Gabbro_14,4,14,4,5,1.058,4,14,-0.122222194,-0.263888889,1,0,0,2.1975,Basalt_rect,2,2.197,0,8,0,8,0,1,,,,,,,,,,,,,
6655f45c1e2ab295525736fb,SCR,2024-06-21_05h30.04.620,LearnStrategy,2023.2.3,Win32,59.88023952,5,1,10,-0.086111069,0.101851852,1,0,0,0.8351,Basalt_10,2,10,4,4,0.835,2,10,-0.124074088,-0.249074088,1,0,0,1.4083,Basalt_rect,2,1.408,1,9,0,9,0,1,,,,,,,,,,,,,
6655f45c1e2ab295525736fb,SCR,2024-06-21_05h30.04.620,LearnStrategy,2023.2.3,Win32,59.88023952,5,1,11,0.25462963,-0.248148176,1,0,0,1.2378,Gabbro_16,4,16,2,6,1.238,4,16,-0.103703675,-0.253703718,1,0,0,1.7518,Basalt_rect,2,1.752,0,10,0,10,0,1,,,,,,,,,,,,,
6655f45c1e2ab295525736fb,SCR,2024-06-21_05h30.04.620,LearnStrategy,2023.2.3,Win32,59.88023952,5,1,12,0.400925954,0.38055555,1,0,0,1.7276,Peridotite_06,7,06,6,7,1.728,7,06,0.07222225,-0.411111125,1,0,0,1.7332,Peridotite_rect,7,1.733,1,11,0,11,0,1,,,,,,,,,,,,,
6655f45c1e2ab295525736fb,SCR,2024-06-21_05h30.04.620,LearnStrategy,2023.2.3,Win32,59.88023952,5,1,13,0.391666695,-0.410185213,1,0,0,1.7503,Pegmatite_09,6,09,1,7,1.75,6,09,-0.128703718,-0.401851866,1,0,0,1.4154,Pegmatite_rect,6,1.415,1,12,0,12,0,1,,,,,,,,,,,,,
6655f45c1e2ab295525736fb,SCR,2024-06-21_05h30.04.620,LearnStrategy,2023.2.3,Win32,59.88023952,5,1,14,-0.068518533,0.25,1,0,0,2.3593,Andesite_16,1,16,5,4,2.359,1,16,0.145370413,-0.247222265,1,0,0,4.1288,Diorite_rect,3,4.129,0,13,0,13,0,1,,,,,,,,,,,,,
6655f45c1e2ab295525736fb,SCR,2024-06-21_05h30.04.620,LearnStrategy,2023.2.3,Win32,59.88023952,5,1,15,-0.398148148,0.24166667,1,0,0,1.2472,Andesite_06,1,06,5,2,1.247,1,06,0.175000014,-0.239814829,1,0,0,1.8161,Diorite_rect,3,1.816,0,14,0,14,0,1,,,,,,,,,,,,,
6655f45c1e2ab295525736fb,SCR,2024-06-21_05h30.04.620,LearnStrategy,2023.2.3,Win32,59.88023952,5,1,16,0.392592677,-0.388888889,1,0,0,1.5818,Pegmatite_09,6,09,1,7,1.582,6,09,-0.088888875,-0.391666695,1,0,0,1.158,Pegmatite_rect,6,1.158,1,15,0,15,0,1,,,,,,,,,,,,,
6655f45c1e2ab295525736fb,SCR,2024-06-21_05h30.04.620,LearnStrategy,2023.2.3,Win32,59.88023952,5,2,1,,,,,,,,8,09,,,,,,,,,,,,,3,5.051,0,,,,,,0.18240745,-0.264814801,1,0,0,5.0513,Diorite_rect,0,0,0,0,1,
6655f45c1e2ab295525736fb,SCR,2024-06-21_05h30.04.620,LearnStrategy,2023.2.3,Win32,59.88023952,5,2,2,,,,,,,,7,16,,,,,,,,,,,,,3,6.779,0,,,,,,0.123148176,-0.251851894,1,0,0,6.7789,Diorite_rect,1,0,1,0,1,
6655f45c1e2ab295525736fb,SCR,2024-06-21_05h30.04.620,LearnStrategy,2023.2.3,Win32,59.88023952,5,2,3,,,,,,,,5,10,,,,,,,,,,,,,5,1.274,1,,,,,,-0.386111118,-0.410185213,1,0,0,1.2744,Obsidian_rect,2,0,2,0,1,
6655f45c1e2ab295525736fb,SCR,2024-06-21_05h30.04.620,LearnStrategy,2023.2.3,Win32,59.88023952,5,2,4,,,,,,,,6,15,,,,,,,,,,,,,5,1.566,0,,,,,,-0.386111118,-0.410185213,1,0,0,1.5664,Obsidian_rect,3,0,3,0,1,
6655f45c1e2ab295525736fb,SCR,2024-06-21_05h30.04.620,LearnStrategy,2023.2.3,Win32,59.88023952,5,2,5,,,,,,,,1,10,,,,,,,,,,,,,1,3.528,1,,,,,,-0.373148141,-0.262037065,1,0,0,3.5278,Andesite_rect,4,0,4,0,1,
6655f45c1e2ab295525736fb,SCR,2024-06-21_05h30.04.620,LearnStrategy,2023.2.3,Win32,59.88023952,5,2,6,,,,,,,,4,13,,,,,,,,,,,,,2,2.195,0,,,,,,-0.157407407,-0.237963005,1,0,0,2.1945,Basalt_rect,5,0,5,0,1,
6655f45c1e2ab295525736fb,SCR,2024-06-21_05h30.04.620,LearnStrategy,2023.2.3,Win32,59.88023952,5,2,7,,,,,,,,3,06,,,,,,,,,,,,,4,1.717,0,,,,,,0.335185157,-0.237037023,1,0,0,1.7175,Gabbro_rect,6,0,6,0,1,
6655f45c1e2ab295525736fb,SCR,2024-06-21_05h30.04.620,LearnStrategy,2023.2.3,Win32,59.88023952,5,2,8,,,,,,,,7,08,,,,,,,,,,,,,3,1.661,0,,,,,,0.146296325,-0.246296282,1,0,0,1.6612,Diorite_rect,7,0,7,0,1,
6655f45c1e2ab295525736fb,SCR,2024-06-21_05h30.04.620,LearnStrategy,2023.2.3,Win32,59.88023952,5,2,9,,,,,,,,8,02,,,,,,,,,,,,,8,1.818,1,,,,,,0.359259288,-0.396296325,1,0,0,1.8179,Pumice_rect,8,0,8,0,1,
6655f45c1e2ab295525736fb,SCR,2024-06-21_05h30.04.620,LearnStrategy,2023.2.3,Win32,59.88023952,5,2,10,,,,,,,,6,16,,,,,,,,,,,,,6,1.865,1,,,,,,-0.106481481,-0.415740755,1,0,0,1.8654,Pegmatite_rect,9,0,9,0,1,
6655f45c1e2ab295525736fb,SCR,2024-06-21_05h30.04.620,LearnStrategy,2023.2.3,Win32,59.88023952,5,2,11,,,,,,,,5,06,,,,,,,,,,,,,5,1.236,1,,,,,,-0.385185171,-0.382407436,1,0,0,1.236,Obsidian_rect,10,0,10,0,1,
6655f45c1e2ab295525736fb,SCR,2024-06-21_05h30.04.620,LearnStrategy,2023.2.3,Win32,59.88023952,5,2,12,,,,,,,,2,14,,,,,,,,,,,,,1,2.616,0,,,,,,-0.392592571,-0.262037065,1,0,0,2.6156,Andesite_rect,11,0,11,0,1,
6655f45c1e2ab295525736fb,SCR,2024-06-21_05h30.04.620,LearnStrategy,2023.2.3,Win32,59.88023952,5,2,13,,,,,,,,3,07,,,,,,,,,,,,,4,1.863,0,,,,,,0.380555612,-0.242592635,1,0,0,1.8629,Gabbro_rect,12,0,12,0,1,
6655f45c1e2ab295525736fb,SCR,2024-06-21_05h30.04.620,LearnStrategy,2023.2.3,Win32,59.88023952,5,2,14,,,,,,,,2,06,,,,,,,,,,,,,2,2.443,1,,,,,,-0.099074046,-0.247222265,1,0,0,2.4429,Basalt_rect,13,0,13,0,1,
6655f45c1e2ab295525736fb,SCR,2024-06-21_05h30.04.620,LearnStrategy,2023.2.3,Win32,59.88023952,5,2,15,,,,,,,,4,01,,,,,,,,,,,,,1,2.593,0,,,,,,-0.347222222,-0.241666653,1,0,0,2.593,Andesite_rect,14,0,14,0,1,
6655f45c1e2ab295525736fb,SCR,2024-06-21_05h30.04.620,LearnStrategy,2023.2.3,Win32,59.88023952,5,2,16,,,,,,,,1,11,,,,,,,,,,,,,2,7.129,0,,,,,,-0.108333305,-0.25,1,0,0,7.1288,Basalt_rect,15,0,15,0,1,
6655f45c1e2ab295525736fb,SCR,2024-06-21_05h30.04.620,LearnStrategy,2023.2.3,Win32,59.88023952,6,1,1,-0.534259266,0.391666668,1,0,0,5.1996,Pumice_08,8,08,6,1,5.2,8,08,0.35555564,-0.383333347,1,0,0,2.7661,Pumice_rect,8,2.766,1,0,0,0,0,1,,,,,,,,,,,,,
6655f45c1e2ab295525736fb,SCR,2024-06-21_05h30.04.620,LearnStrategy,2023.2.3,Win32,59.88023952,6,1,2,-0.414814808,0.38333333,1,0,0,1.0931,Gabbro_12,4,12,6,2,1.093,4,12,-0.132407365,-0.241666653,1,0,0,1.7923,Basalt_rect,2,1.792,0,1,0,1,0,1,,,,,,,,,,,,,
6655f45c1e2ab295525736fb,SCR,2024-06-21_05h30.04.620,LearnStrategy,2023.2.3,Win32,59.88023952,6,1,3,0.080555598,-0.26944443,1,0,0,1.1441,Gabbro_08,4,08,2,5,1.144,4,08,0.118518547,-0.25462963,1,0,0,1.6391,Diorite_rect,3,1.639,0,2,0,2,0,1,,,,,,,,,,,,,
6655f45c1e2ab295525736fb,SCR,2024-06-21_05h30.04.620,LearnStrategy,2023.2.3,Win32,59.88023952,6,1,4,0.087037051,-0.424074102,1,0,0,1.1113,Andesite_03,1,03,1,5,1.111,1,03,0.35555564,-0.253703718,1,0,0,1.3328,Gabbro_rect,4,1.333,0,3,0,3,0,1,,,,,,,,,,,,,
6655f45c1e2ab295525736fb,SCR,2024-06-21_05h30.04.620,LearnStrategy,2023.2.3,Win32,59.88023952,6,1,5,0.515740712,0.071296303,1,0,0,1.3523,Diorite_16,3,16,4,8,1.352,3,16,0.380555612,-0.253703718,1,0,0,1.0913,Gabbro_rect,4,1.091,0,4,0,4,0,1,,,,,,,,,,,,,
6655f45c1e2ab295525736fb,SCR,2024-06-21_05h30.04.620,LearnStrategy,2023.2.3,Win32,59.88023952,6,1,6,0.09629631,-0.40370369,1,0,0,1.1984,Andesite_03,1,03,1,5,1.198,1,03,-0.35833334,-0.25,1,0,0,1.454,Andesite_rect,1,1.454,1,5,0,5,0,1,,,,,,,,,,,,,
6655f45c1e2ab295525736fb,SCR,2024-06-21_05h30.04.620,LearnStrategy,2023.2.3,Win32,59.88023952,6,1,7,-0.241666653,0.396296298,1,0,0,1.1112,Diorite_11,3,11,6,3,1.111,3,11,0.135185171,-0.418518561,1,0,0,2.192,Peridotite_rect,7,2.192,0,6,0,6,0,1,,,,,,,,,,,,,
6655f45c1e2ab295525736fb,SCR,2024-06-21_05h30.04.620,LearnStrategy,2023.2.3,Win32,59.88023952,6,1,8,0.365740741,0.399999998,1,0,0,1.214,Peridotite_06,7,06,6,7,1.214,7,06,0.083333333,-0.387037065,1,0,0,1.5373,Peridotite_rect,7,1.537,1,7,0,7,0,1,,,,,,,,,,,,,
6655f45c1e2ab295525736fb,SCR,2024-06-21_05h30.04.620,LearnStrategy,2023.2.3,Win32,59.88023952,6,1,9,0.509259259,0.3787037,1,0,0,1.5394,Peridotite_13,7,13,6,8,1.539,7,13,0.103703746,-0.400000042,1,0,0,1.5555,Peridotite_rect,7,1.556,1,8,0,8,0,1,,,,,,,,,,,,,
6655f45c1e2ab295525736fb,SCR,2024-06-21_05h30.04.620,LearnStrategy,2023.2.3,Win32,59.88023952,6,1,10,-0.392592571,0.079629616,1,0,0,1.3259,Peridotite_07,7,07,4,2,1.326,7,07,0.142592607,-0.271296325,1,0,0,1.2634,Diorite_rect,3,1.263,0,9,0,9,0,1,,,,,,,,,,,,,
6655f45c1e2ab295525736fb,SCR,2024-06-21_05h30.04.620,LearnStrategy,2023.2.3,Win32,59.88023952,6,1,11,-0.384259259,-0.25,1,0,0,1.2224,Basalt_16,2,16,2,2,1.222,2,16,-0.170370384,-0.237037023,1,0,0,0.9117,Basalt_rect,2,0.912,1,10,0,10,0,1,,,,,,,,,,,,,
6655f45c1e2ab295525736fb,SCR,2024-06-21_05h30.04.620,LearnStrategy,2023.2.3,Win32,59.88023952,6,1,12,0.562037009,0.248148141,1,0,0,1.0496,Pegmatite_11,6,11,5,8,1.05,6,11,-0.182407379,-0.40370369,1,0,0,1.6616,Pegmatite_rect,6,1.662,1,11,0,11,0,1,,,,,,,,,,,,,
6655f45c1e2ab295525736fb,SCR,2024-06-21_05h30.04.620,LearnStrategy,2023.2.3,Win32,59.88023952,6,1,13,-0.575925933,0.236111111,1,0,0,1.2749,Diorite_09,3,09,5,1,1.275,3,09,0.179629644,-0.268518519,1,0,0,2.1862,Diorite_rect,3,2.186,1,12,0,12,0,1,,,,,,,,,,,,,
6655f45c1e2ab295525736fb,SCR,2024-06-21_05h30.04.620,LearnStrategy,2023.2.3,Win32,59.88023952,6,1,14,0.395370342,-0.264814801,1,0,0,1.4951,Basalt_05,2,05,2,7,1.495,2,05,-0.166666667,-0.246296282,1,0,0,1.2696,Basalt_rect,2,1.27,1,13,0,13,0,1,,,,,,,,,,,,,
6655f45c1e2ab295525736fb,SCR,2024-06-21_05h30.04.620,LearnStrategy,2023.2.3,Win32,59.88023952,6,1,15,-0.239814829,-0.40370369,1,0,0,1.2257,Pegmatite_07,6,07,1,3,1.226,6,07,-0.19259255,-0.386111153,1,0,0,0.7772,Pegmatite_rect,6,0.777,1,14,0,14,0,1,,,,,,,,,,,,,
6655f45c1e2ab295525736fb,SCR,2024-06-21_05h30.04.620,LearnStrategy,2023.2.3,Win32,59.88023952,6,1,16,0.210185228,-0.227777764,1,0,0,0.9467,Gabbro_16,4,16,2,6,0.947,4,16,-0.101851852,-0.241666653,1,0,0,1.3072,Basalt_rect,2,1.307,0,15,0,15,0,1,,,,,,,,,,,,,
6655f45c1e2ab295525736fb,SCR,2024-06-21_05h30.04.620,LearnStrategy,2023.2.3,Win32,59.88023952,6,2,1,,,,,,,,4,15,,,,,,,,,,,,,4,5.087,1,,,,,,0.371296353,-0.25,1,0,0,5.087,Gabbro_rect,0,0,0,0,1,
6655f45c1e2ab295525736fb,SCR,2024-06-21_05h30.04.620,LearnStrategy,2023.2.3,Win32,59.88023952,6,2,2,,,,,,,,5,08,,,,,,,,,,,,,5,1.541,1,,,,,,-0.38703703,-0.408333319,1,0,0,1.5413,Obsidian_rect,1,0,1,0,1,
6655f45c1e2ab295525736fb,SCR,2024-06-21_05h30.04.620,LearnStrategy,2023.2.3,Win32,59.88023952,6,2,3,,,,,,,,7,10,,,,,,,,,,,,,7,1.644,1,,,,,,0.078703704,-0.414814843,1,0,0,1.6439,Peridotite_rect,2,0,2,0,1,
6655f45c1e2ab295525736fb,SCR,2024-06-21_05h30.04.620,LearnStrategy,2023.2.3,Win32,59.88023952,6,2,4,,,,,,,,2,01,,,,,,,,,,,,,2,2.204,1,,,,,,-0.117592564,-0.237037023,1,0,0,2.2043,Basalt_rect,3,0,3,0,1,
6655f45c1e2ab295525736fb,SCR,2024-06-21_05h30.04.620,LearnStrategy,2023.2.3,Win32,59.88023952,6,2,5,,,,,,,,7,04,,,,,,,,,,,,,7,3.371,1,,,,,,0.091666681,-0.388888889,1,0,0,3.3715,Peridotite_rect,4,0,4,0,1,
6655f45c1e2ab295525736fb,SCR,2024-06-21_05h30.04.620,LearnStrategy,2023.2.3,Win32,59.88023952,6,2,6,,,,,,,,4,03,,,,,,,,,,,,,3,1.992,0,,,,,,0.090740769,-0.241666653,1,0,0,1.9923,Diorite_rect,5,0,5,0,1,
6655f45c1e2ab295525736fb,SCR,2024-06-21_05h30.04.620,LearnStrategy,2023.2.3,Win32,59.88023952,6,2,7,,,,,,,,5,05,,,,,,,,,,,,,5,1.801,1,,,,,,-0.348148134,-0.402777778,1,0,0,1.8009,Obsidian_rect,6,0,6,0,1,
6655f45c1e2ab295525736fb,SCR,2024-06-21_05h30.04.620,LearnStrategy,2023.2.3,Win32,59.88023952,6,2,8,,,,,,,,8,16,,,,,,,,,,,,,4,3.947,0,,,,,,0.368518547,-0.236111111,1,0,0,3.9472,Gabbro_rect,7,0,7,0,1,
6655f45c1e2ab295525736fb,SCR,2024-06-21_05h30.04.620,LearnStrategy,2023.2.3,Win32,59.88023952,6,2,9,,,,,,,,6,13,,,,,,,,,,,,,3,3.059,0,,,,,,0.161111125,-0.253703718,1,0,0,3.0591,Diorite_rect,8,0,8,0,1,
6655f45c1e2ab295525736fb,SCR,2024-06-21_05h30.04.620,LearnStrategy,2023.2.3,Win32,59.88023952,6,2,10,,,,,,,,1,07,,,,,,,,,,,,,3,0.995,0,,,,,,0.161111125,-0.253703718,1,0,0,0.9955,Diorite_rect,9,0,9,0,1,
6655f45c1e2ab295525736fb,SCR,2024-06-21_05h30.04.620,LearnStrategy,2023.2.3,Win32,59.88023952,6,2,11,,,,,,,,6,12,,,,,,,,,,,,,6,3.636,1,,,,,,-0.079629616,-0.415740755,1,0,0,3.6358,Pegmatite_rect,10,0,10,0,1,
6655f45c1e2ab295525736fb,SCR,2024-06-21_05h30.04.620,LearnStrategy,2023.2.3,Win32,59.88023952,6,2,12,,,,,,,,8,04,,,,,,,,,,,,,1,5.283,0,,,,,,-0.348148134,-0.248148176,1,0,0,5.2827,Andesite_rect,11,0,11,0,1,
6655f45c1e2ab295525736fb,SCR,2024-06-21_05h30.04.620,LearnStrategy,2023.2.3,Win32,59.88023952,6,2,13,,,,,,,,3,02,,,,,,,,,,,,,3,1.513,1,,,,,,0.114814829,-0.243518547,1,0,0,1.513,Diorite_rect,12,0,12,0,1,
6655f45c1e2ab295525736fb,SCR,2024-06-21_05h30.04.620,LearnStrategy,2023.2.3,Win32,59.88023952,6,2,14,,,,,,,,1,14,,,,,,,,,,,,,3,2.605,0,,,,,,0.108333376,-0.243518547,1,0,0,2.605,Diorite_rect,13,0,13,0,1,
6655f45c1e2ab295525736fb,SCR,2024-06-21_05h30.04.620,LearnStrategy,2023.2.3,Win32,59.88023952,6,2,15,,,,,,,,3,08,,,,,,,,,,,,,3,0.776,1,,,,,,0.108333376,-0.243518547,1,0,0,0.7763,Diorite_rect,14,0,14,0,1,
6655f45c1e2ab295525736fb,SCR,2024-06-21_05h30.04.620,LearnStrategy,2023.2.3,Win32,59.88023952,6,2,16,,,,,,,,2,09,,,,,,,,,,,,,2,1.905,1,,,,,,-0.114814829,-0.244444459,1,0,0,1.9052,Basalt_rect,15,0,15,0,1,
6655f45c1e2ab295525736fb,SCR,2024-06-21_05h30.04.620,LearnStrategy,2023.2.3,Win32,59.88023952,7,1,1,-0.393518519,0.127777771,1,0,0,1.6933,Peridotite_07,7,07,4,2,1.693,7,07,0.128703718,-0.391666695,1,0,0,1.7386,Peridotite_rect,7,1.739,1,0,0,0,0,1,,,,,,,,,,,,,
6655f45c1e2ab295525736fb,SCR,2024-06-21_05h30.04.620,LearnStrategy,2023.2.3,Win32,59.88023952,7,1,2,0.214814857,0.273148148,1,0,0,0.8711,Pegmatite_03,6,03,5,6,0.871,6,03,-0.137036995,-0.421296296,1,0,0,1.2012,Pegmatite_rect,6,1.201,1,1,0,1,0,1,,,,,,,,,,,,,
6655f45c1e2ab295525736fb,SCR,2024-06-21_05h30.04.620,LearnStrategy,2023.2.3,Win32,59.88023952,7,1,3,0.240740741,-0.116666653,1,0,0,0.9379,Andesite_09,1,09,3,6,0.938,1,09,-0.161111125,-0.264814801,1,0,0,2.5572,Basalt_rect,2,2.557,0,2,0,2,0,1,,,,,,,,,,,,,
6655f45c1e2ab295525736fb,SCR,2024-06-21_05h30.04.620,LearnStrategy,2023.2.3,Win32,59.88023952,7,1,4,-0.549074067,0.402777778,1,0,0,1.3372,Pumice_08,8,08,6,1,1.337,8,08,0.173148191,-0.256481524,1,0,0,1.1445,Diorite_rect,3,1.144,0,3,0,3,0,1,,,,,,,,,,,,,
6655f45c1e2ab295525736fb,SCR,2024-06-21_05h30.04.620,LearnStrategy,2023.2.3,Win32,59.88023952,7,1,5,-0.35833334,-0.395370413,1,0,0,1.2744,Andesite_04,1,04,1,2,1.274,1,04,0.063888903,-0.261111153,1,0,0,2.5941,Diorite_rect,3,2.594,0,4,0,4,0,1,,,,,,,,,,,,,
6655f45c1e2ab295525736fb,SCR,2024-06-21_05h30.04.620,LearnStrategy,2023.2.3,Win32,59.88023952,7,1,6,0.58148151,-0.107407393,1,0,0,1.1628,Obsidian_07,5,07,3,8,1.163,5,07,-0.385185171,-0.412037037,1,0,0,1.2063,Obsidian_rect,5,1.206,1,5,0,5,0,1,,,,,,,,,,,,,
6655f45c1e2ab295525736fb,SCR,2024-06-21_05h30.04.620,LearnStrategy,2023.2.3,Win32,59.88023952,7,1,7,0.063888903,0.357407402,1,0,0,1.3888,Diorite_12,3,12,6,5,1.389,3,12,0.20185188,-0.253703718,1,0,0,1.6043,Diorite_rect,3,1.604,1,6,0,6,0,1,,,,,,,,,,,,,
6655f45c1e2ab295525736fb,SCR,2024-06-21_05h30.04.620,LearnStrategy,2023.2.3,Win32,59.88023952,7,1,8,-0.232407393,0.398148148,1,0,0,1.1426,Diorite_11,3,11,6,3,1.143,3,11,0.140740783,-0.252777806,1,0,0,1.3647,Diorite_rect,3,1.365,1,7,0,7,0,1,,,,,,,,,,,,,
6655f45c1e2ab295525736fb,SCR,2024-06-21_05h30.04.620,LearnStrategy,2023.2.3,Win32,59.88023952,7,1,9,-0.047222208,-0.239814829,1,0,0,1.0672,Peridotite_14,7,14,2,4,1.067,7,14,-0.047222208,-0.239814829,1,0,0,1.1624,Basalt_rect,2,1.162,0,8,0,8,0,1,,,,,,,,,,,,,
6655f45c1e2ab295525736fb,SCR,2024-06-21_05h30.04.620,LearnStrategy,2023.2.3,Win32,59.88023952,7,1,10,0.545370455,-0.406481496,1,0,0,1.3638,Pumice_15,8,15,1,8,1.364,8,15,0.413888861,-0.389814801,1,0,0,1.7657,Pumice_rect,8,1.766,1,9,0,9,0,1,,,,,,,,,,,,,
6655f45c1e2ab295525736fb,SCR,2024-06-21_05h30.04.620,LearnStrategy,2023.2.3,Win32,59.88023952,7,1,11,0.025000042,0.091666645,1,0,0,0.8768,Gabbro_14,4,14,4,5,0.877,4,14,-0.135185171,-0.240740741,1,0,0,1.2195,Basalt_rect,2,1.22,0,10,0,10,0,1,,,,,,,,,,,,,
6655f45c1e2ab295525736fb,SCR,2024-06-21_05h30.04.620,LearnStrategy,2023.2.3,Win32,59.88023952,7,1,12,0.202777792,0.069444444,1,0,0,1.1317,Gabbro_05,4,05,4,6,1.132,4,05,0.162962949,-0.408333319,1,0,0,1.4604,Peridotite_rect,7,1.46,0,11,0,11,0,1,,,,,,,,,,,,,
6655f45c1e2ab295525736fb,SCR,2024-06-21_05h30.04.620,LearnStrategy,2023.2.3,Win32,59.88023952,7,1,13,-0.359259252,-0.385185171,1,0,0,1.3143,Andesite_04,1,04,1,2,1.314,1,04,-0.338888875,-0.237037023,1,0,0,1.1369,Andesite_rect,1,1.137,1,12,0,12,0,1,,,,,,,,,,,,,
6655f45c1e2ab295525736fb,SCR,2024-06-21_05h30.04.620,LearnStrategy,2023.2.3,Win32,59.88023952,7,1,14,0.382407436,-0.103703746,1,0,0,0.929,Pegmatite_08,6,08,3,7,0.929,6,08,-0.130555541,-0.392592607,1,0,0,1.254,Pegmatite_rect,6,1.254,1,13,0,13,0,1,,,,,,,,,,,,,
6655f45c1e2ab295525736fb,SCR,2024-06-21_05h30.04.620,LearnStrategy,2023.2.3,Win32,59.88023952,7,1,15,-0.056481467,0.075925933,1,0,0,0.8774,Basalt_10,2,10,4,4,0.877,2,10,-0.094444416,-0.248148176,1,0,0,1.3709,Basalt_rect,2,1.371,1,14,0,14,0,1,,,,,,,,,,,,,
6655f45c1e2ab295525736fb,SCR,2024-06-21_05h30.04.620,LearnStrategy,2023.2.3,Win32,59.88023952,7,1,16,0.258333347,-0.406481496,1,0,0,1.0811,Gabbro_09,4,09,1,6,1.081,4,09,0.327777863,-0.228703746,1,0,0,2.3075,Gabbro_rect,4,2.308,1,15,0,15,0,1,,,,,,,,,,,,,
6655f45c1e2ab295525736fb,SCR,2024-06-21_05h30.04.620,LearnStrategy,2023.2.3,Win32,59.88023952,7,2,1,,,,,,,,5,06,,,,,,,,,,,,,5,1.731,1,,,,,,-0.351851852,-0.381481524,1,0,0,1.7313,Obsidian_rect,0,0,0,0,1,
6655f45c1e2ab295525736fb,SCR,2024-06-21_05h30.04.620,LearnStrategy,2023.2.3,Win32,59.88023952,7,2,2,,,,,,,,4,01,,,,,,,,,,,,,7,3.518,0,,,,,,0.101851852,-0.389814801,1,0,0,3.5182,Peridotite_rect,1,0,1,0,1,
6655f45c1e2ab295525736fb,SCR,2024-06-21_05h30.04.620,LearnStrategy,2023.2.3,Win32,59.88023952,7,2,3,,,,,,,,3,10,,,,,,,,,,,,,3,1.301,1,,,,,,0.113888917,-0.261111153,1,0,0,1.3011,Diorite_rect,2,0,2,0,1,
6655f45c1e2ab295525736fb,SCR,2024-06-21_05h30.04.620,LearnStrategy,2023.2.3,Win32,59.88023952,7,2,4,,,,,,,,7,05,,,,,,,,,,,,,7,2.476,1,,,,,,0.112037023,-0.393518519,1,0,0,2.476,Peridotite_rect,3,0,3,0,1,
6655f45c1e2ab295525736fb,SCR,2024-06-21_05h30.04.620,LearnStrategy,2023.2.3,Win32,59.88023952,7,2,5,,,,,,,,7,15,,,,,,,,,,,,,7,1.174,1,,,,,,0.102777764,-0.395370413,1,0,0,1.1742,Peridotite_rect,4,0,4,0,1,
6655f45c1e2ab295525736fb,SCR,2024-06-21_05h30.04.620,LearnStrategy,2023.2.3,Win32,59.88023952,7,2,6,,,,,,,,1,10,,,,,,,,,,,,,1,2.534,1,,,,,,-0.390740748,-0.239814829,1,0,0,2.5345,Andesite_rect,5,0,5,0,1,
6655f45c1e2ab295525736fb,SCR,2024-06-21_05h30.04.620,LearnStrategy,2023.2.3,Win32,59.88023952,7,2,7,,,,,,,,2,14,,,,,,,,,,,,,4,4.434,0,,,,,,0.425000085,-0.246296282,1,0,0,4.4339,Gabbro_rect,6,0,6,0,1,
6655f45c1e2ab295525736fb,SCR,2024-06-21_05h30.04.620,LearnStrategy,2023.2.3,Win32,59.88023952,7,2,8,,,,,,,,6,15,,,,,,,,,,,,,6,1.386,1,,,,,,-0.10092594,-0.397222236,1,0,0,1.3857,Pegmatite_rect,7,0,7,0,1,
6655f45c1e2ab295525736fb,SCR,2024-06-21_05h30.04.620,LearnStrategy,2023.2.3,Win32,59.88023952,7,2,9,,,,,,,,2,01,,,,,,,,,,,,,2,1.262,1,,,,,,-0.115740741,-0.263888889,1,0,0,1.2622,Basalt_rect,8,0,8,0,1,
6655f45c1e2ab295525736fb,SCR,2024-06-21_05h30.04.620,LearnStrategy,2023.2.3,Win32,59.88023952,7,2,10,,,,,,,,8,16,,,,,,,,,,,,,8,3.21,1,,,,,,0.40833339,-0.401851866,1,0,0,3.2098,Pumice_rect,9,0,9,0,1,
6655f45c1e2ab295525736fb,SCR,2024-06-21_05h30.04.620,LearnStrategy,2023.2.3,Win32,59.88023952,7,2,11,,,,,,,,3,08,,,,,,,,,,,,,3,2.047,1,,,,,,0.12962963,-0.246296282,1,0,0,2.0473,Diorite_rect,10,0,10,0,1,
6655f45c1e2ab295525736fb,SCR,2024-06-21_05h30.04.620,LearnStrategy,2023.2.3,Win32,59.88023952,7,2,12,,,,,,,,8,05,,,,,,,,,,,,,8,1.707,1,,,,,,0.336111139,-0.387037065,1,0,0,1.7073,Pumice_rect,11,0,11,0,1,
6655f45c1e2ab295525736fb,SCR,2024-06-21_05h30.04.620,LearnStrategy,2023.2.3,Win32,59.88023952,7,2,13,,,,,,,,5,05,,,,,,,,,,,,,5,1.608,1,,,,,,-0.381481489,-0.388888889,1,0,0,1.6083,Obsidian_rect,12,0,12,0,1,
6655f45c1e2ab295525736fb,SCR,2024-06-21_05h30.04.620,LearnStrategy,2023.2.3,Win32,59.88023952,7,2,14,,,,,,,,1,02,,,,,,,,,,,,,1,3.332,1,,,,,,-0.3824074,-0.232407393,1,0,0,3.3316,Andesite_rect,13,0,13,0,1,
6655f45c1e2ab295525736fb,SCR,2024-06-21_05h30.04.620,LearnStrategy,2023.2.3,Win32,59.88023952,7,2,15,,,,,,,,4,13,,,,,,,,,,,,,4,2.933,1,,,,,,0.346296381,-0.240740741,1,0,0,2.9328,Gabbro_rect,14,0,14,0,1,
6655f45c1e2ab295525736fb,SCR,2024-06-21_05h30.04.620,LearnStrategy,2023.2.3,Win32,59.88023952,7,2,16,,,,,,,,6,12,,,,,,,,,,,,,6,1.784,1,,,,,,-0.104629587,-0.39444443,1,0,0,1.7842,Pegmatite_rect,15,0,15,0,1,
6655f45c1e2ab295525736fb,SCR,2024-06-21_05h30.04.620,LearnStrategy,2023.2.3,Win32,59.88023952,8,1,1,0.240740741,0.260185189,1,0,0,3.2889,Pegmatite_03,6,03,5,6,3.289,6,03,-0.119444459,-0.400000042,1,0,0,1.4672,Pegmatite_rect,6,1.467,1,0,0,0,0,1,,,,,,,,,,,,,
6655f45c1e2ab295525736fb,SCR,2024-06-21_05h30.04.620,LearnStrategy,2023.2.3,Win32,59.88023952,8,1,2,-0.54074072,-0.087037051,1,0,0,1.2735,Basalt_02,2,02,3,1,1.274,2,02,-0.167592578,-0.23055557,1,0,0,1.7953,Basalt_rect,2,1.795,1,1,0,1,0,1,,,,,,,,,,,,,
6655f45c1e2ab295525736fb,SCR,2024-06-21_05h30.04.620,LearnStrategy,2023.2.3,Win32,59.88023952,8,1,3,-0.534259266,-0.374074088,1,0,0,1.5424,Diorite_13,3,13,1,1,1.542,3,13,0.175000014,-0.260185171,1,0,0,7.3238,Diorite_rect,3,7.324,1,2,0,2,0,1,,,,,,,,,,,,,
6655f45c1e2ab295525736fb,SCR,2024-06-21_05h30.04.620,LearnStrategy,2023.2.3,Win32,59.88023952,8,1,4,0.242592635,-0.091666681,1,0,0,0.8975,Andesite_09,1,09,3,6,0.898,1,09,-0.152777778,-0.244444459,1,0,0,1.0767,Basalt_rect,2,1.077,0,3,0,3,0,1,,,,,,,,,,,,,
6655f45c1e2ab295525736fb,SCR,2024-06-21_05h30.04.620,LearnStrategy,2023.2.3,Win32,59.88023952,8,1,5,-0.369444423,-0.251851894,1,0,0,1.0626,Basalt_16,2,16,2,2,1.063,2,16,-0.179629644,-0.235185199,1,0,0,0.9869,Basalt_rect,2,0.987,1,4,0,4,0,1,,,,,,,,,,,,,
6655f45c1e2ab295525736fb,SCR,2024-06-21_05h30.04.620,LearnStrategy,2023.2.3,Win32,59.88023952,8,1,6,0.372222194,-0.402777778,1,0,0,1.2815,Pegmatite_09,6,09,1,7,1.282,6,09,-0.139814801,-0.400000042,1,0,0,0.9951,Pegmatite_rect,6,0.995,1,5,0,5,0,1,,,,,,,,,,,,,
6655f45c1e2ab295525736fb,SCR,2024-06-21_05h30.04.620,LearnStrategy,2023.2.3,Win32,59.88023952,8,1,7,0.25,-0.408333319,1,0,0,1.1983,Gabbro_09,4,09,1,6,1.198,4,09,-0.351851852,-0.271296325,1,0,0,2.9807,Andesite_rect,1,2.981,0,6,0,6,0,1,,,,,,,,,,,,,
6655f45c1e2ab295525736fb,SCR,2024-06-21_05h30.04.620,LearnStrategy,2023.2.3,Win32,59.88023952,8,1,8,0.226851852,-0.239814829,1,0,0,1.0546,Gabbro_16,4,16,2,6,1.055,4,16,-0.089814787,-0.251851894,1,0,0,1.8314,Basalt_rect,2,1.831,0,7,0,7,0,1,,,,,,,,,,,,,
6655f45c1e2ab295525736fb,SCR,2024-06-21_05h30.04.620,LearnStrategy,2023.2.3,Win32,59.88023952,8,1,9,-0.188888903,-0.248148176,1,0,0,0.8254,Pumice_10,8,10,2,3,0.825,8,10,0.36018527,-0.238888917,1,0,0,2.3499,Gabbro_rect,4,2.35,0,8,0,8,0,1,,,,,,,,,,,,,
6655f45c1e2ab295525736fb,SCR,2024-06-21_05h30.04.620,LearnStrategy,2023.2.3,Win32,59.88023952,8,1,10,0.231481481,0.400925928,1,0,0,1.4062,Peridotite_02,7,02,6,6,1.406,7,02,0.179629644,-0.243518547,1,0,0,1.1424,Diorite_rect,3,1.142,0,9,0,9,0,1,,,,,,,,,,,,,
6655f45c1e2ab295525736fb,SCR,2024-06-21_05h30.04.620,LearnStrategy,2023.2.3,Win32,59.88023952,8,1,11,-0.543518526,-0.40370369,1,0,0,1.3774,Diorite_13,3,13,1,1,1.377,3,13,0.077777792,-0.258333347,1,0,0,1.81,Diorite_rect,3,1.81,1,10,0,10,0,1,,,,,,,,,,,,,
6655f45c1e2ab295525736fb,SCR,2024-06-21_05h30.04.620,LearnStrategy,2023.2.3,Win32,59.88023952,8,1,12,0.497222194,-0.404629672,1,0,0,1.3213,Pumice_15,8,15,1,8,1.321,8,15,0.417592649,-0.392592607,1,0,0,1.4335,Pumice_rect,8,1.434,1,11,0,11,0,1,,,,,,,,,,,,,
6655f45c1e2ab295525736fb,SCR,2024-06-21_05h30.04.620,LearnStrategy,2023.2.3,Win32,59.88023952,8,1,13,-0.408333319,0.222222222,1,0,0,1.1267,Andesite_06,1,06,5,2,1.127,1,06,-0.366666653,-0.241666653,1,0,0,1.3337,Andesite_rect,1,1.334,1,12,0,12,0,1,,,,,,,,,,,,,
6655f45c1e2ab295525736fb,SCR,2024-06-21_05h30.04.620,LearnStrategy,2023.2.3,Win32,59.88023952,8,1,14,0.252777806,-0.404629672,1,0,0,1.1625,Gabbro_09,4,09,1,6,1.162,4,09,-0.088888875,-0.238888917,1,0,0,2.435,Basalt_rect,2,2.435,0,13,0,13,0,1,,,,,,,,,,,,,
6655f45c1e2ab295525736fb,SCR,2024-06-21_05h30.04.620,LearnStrategy,2023.2.3,Win32,59.88023952,8,1,15,0.060185185,0.259259259,1,0,0,0.992,Andesite_05,1,05,5,5,0.992,1,05,0.185185185,-0.238888917,1,0,0,2.803,Diorite_rect,3,2.803,0,14,0,14,0,1,,,,,,,,,,,,,
6655f45c1e2ab295525736fb,SCR,2024-06-21_05h30.04.620,LearnStrategy,2023.2.3,Win32,59.88023952,8,1,16,0.525925954,0.431481481,1,0,0,0.9486,Peridotite_13,7,13,6,8,0.949,7,13,0.172222208,-0.400000042,1,0,0,1.4984,Peridotite_rect,7,1.498,1,15,0,15,0,1,,,,,,,,,,,,,
6655f45c1e2ab295525736fb,SCR,2024-06-21_05h30.04.620,LearnStrategy,2023.2.3,Win32,59.88023952,8,2,1,,,,,,,,1,01,,,,,,,,,,,,,1,3.74,1,,,,,,-0.345370363,-0.238888917,1,0,0,3.7399,Andesite_rect,0,0,0,0,1,
6655f45c1e2ab295525736fb,SCR,2024-06-21_05h30.04.620,LearnStrategy,2023.2.3,Win32,59.88023952,8,2,2,,,,,,,,1,11,,,,,,,,,,,,,2,1.634,0,,,,,,-0.087962963,-0.244444459,1,0,0,1.6344,Basalt_rect,1,0,1,0,1,
6655f45c1e2ab295525736fb,SCR,2024-06-21_05h30.04.620,LearnStrategy,2023.2.3,Win32,59.88023952,8,2,3,,,,,,,,7,16,,,,,,,,,,,,,7,2.198,1,,,,,,0.10555557,-0.397222236,1,0,0,2.1979,Peridotite_rect,2,0,2,0,1,
6655f45c1e2ab295525736fb,SCR,2024-06-21_05h30.04.620,LearnStrategy,2023.2.3,Win32,59.88023952,8,2,4,,,,,,,,4,15,,,,,,,,,,,,,4,2.051,1,,,,,,0.409259231,-0.238888917,1,0,0,2.0505,Gabbro_rect,3,0,3,0,1,
6655f45c1e2ab295525736fb,SCR,2024-06-21_05h30.04.620,LearnStrategy,2023.2.3,Win32,59.88023952,8,2,5,,,,,,,,2,08,,,,,,,,,,,,,2,1.437,1,,,,,,-0.065740727,-0.25462963,1,0,0,1.4372,Basalt_rect,4,0,4,0,1,
6655f45c1e2ab295525736fb,SCR,2024-06-21_05h30.04.620,LearnStrategy,2023.2.3,Win32,59.88023952,8,2,6,,,,,,,,4,10,,,,,,,,,,,,,4,3.517,1,,,,,,0.339814787,-0.240740741,1,0,0,3.5168,Gabbro_rect,5,0,5,0,1,
6655f45c1e2ab295525736fb,SCR,2024-06-21_05h30.04.620,LearnStrategy,2023.2.3,Win32,59.88023952,8,2,7,,,,,,,,7,04,,,,,,,,,,,,,7,2.325,1,,,,,,0.162037037,-0.406481496,1,0,0,2.3253,Peridotite_rect,6,0,6,0,1,
6655f45c1e2ab295525736fb,SCR,2024-06-21_05h30.04.620,LearnStrategy,2023.2.3,Win32,59.88023952,8,2,8,,,,,,,,3,14,,,,,,,,,,,,,1,2.317,0,,,,,,-0.390740748,-0.233333376,1,0,0,2.3173,Andesite_rect,7,0,7,0,1,
6655f45c1e2ab295525736fb,SCR,2024-06-21_05h30.04.620,LearnStrategy,2023.2.3,Win32,59.88023952,8,2,9,,,,,,,,5,11,,,,,,,,,,,,,5,1.166,1,,,,,,-0.37037037,-0.407407407,1,0,0,1.1655,Obsidian_rect,8,0,8,0,1,
6655f45c1e2ab295525736fb,SCR,2024-06-21_05h30.04.620,LearnStrategy,2023.2.3,Win32,59.88023952,8,2,10,,,,,,,,2,12,,,,,,,,,,,,,2,1.41,1,,,,,,-0.130555541,-0.244444459,1,0,0,1.4099,Basalt_rect,9,0,9,0,1,
6655f45c1e2ab295525736fb,SCR,2024-06-21_05h30.04.620,LearnStrategy,2023.2.3,Win32,59.88023952,8,2,11,,,,,,,,6,10,,,,,,,,,,,,,6,1.481,1,,,,,,-0.148148148,-0.404629672,1,0,0,1.4813,Pegmatite_rect,10,0,10,0,1,
6655f45c1e2ab295525736fb,SCR,2024-06-21_05h30.04.620,LearnStrategy,2023.2.3,Win32,59.88023952,8,2,12,,,,,,,,8,02,,,,,,,,,,,,,8,1.478,1,,,,,,0.337962963,-0.382407436,1,0,0,1.4784,Pumice_rect,11,0,11,0,1,
6655f45c1e2ab295525736fb,SCR,2024-06-21_05h30.04.620,LearnStrategy,2023.2.3,Win32,59.88023952,8,2,13,,,,,,,,5,10,,,,,,,,,,,,,5,1.323,1,,,,,,-0.372222229,-0.411111125,1,0,0,1.3235,Obsidian_rect,12,0,12,0,1,
6655f45c1e2ab295525736fb,SCR,2024-06-21_05h30.04.620,LearnStrategy,2023.2.3,Win32,59.88023952,8,2,14,,,,,,,,3,02,,,,,,,,,,,,,3,4.686,1,,,,,,0.082407422,-0.255555541,1,0,0,4.6856,Diorite_rect,13,0,13,0,1,
6655f45c1e2ab295525736fb,SCR,2024-06-21_05h30.04.620,LearnStrategy,2023.2.3,Win32,59.88023952,8,2,15,,,,,,,,6,16,,,,,,,,,,,,,6,2.455,1,,,,,,-0.150925884,-0.412037037,1,0,0,2.4554,Pegmatite_rect,14,0,14,0,1,
6655f45c1e2ab295525736fb,SCR,2024-06-21_05h30.04.620,LearnStrategy,2023.2.3,Win32,59.88023952,8,2,16,,,,,,,,8,14,,,,,,,,,,,,,8,1.752,1,,,,,,0.356481481,-0.395370413,1,0,0,1.7518,Pumice_rect,15,0,15,0,1,
6655f45c1e2ab295525736fb,SCR,2024-06-21_05h30.04.620,LearnStrategy,2023.2.3,Win32,59.88023952,9,1,1,0.583333333,0.11296297,1,0,0,2.8954,Diorite_16,3,16,4,8,2.895,3,16,0.387963048,-0.25,1,0,0,1.2718,Gabbro_rect,4,1.272,0,0,0,0,0,1,,,,,,,,,,,,,
6655f45c1e2ab295525736fb,SCR,2024-06-21_05h30.04.620,LearnStrategy,2023.2.3,Win32,59.88023952,9,1,2,0.09629631,0.412962958,1,0,0,1.3285,Diorite_12,3,12,6,5,1.329,3,12,0.170370384,-0.240740741,1,0,0,1.3542,Diorite_rect,3,1.354,1,1,0,1,0,1,,,,,,,,,,,,,
6655f45c1e2ab295525736fb,SCR,2024-06-21_05h30.04.620,LearnStrategy,2023.2.3,Win32,59.88023952,9,1,3,-0.069444444,-0.10555557,1,0,0,0.8115,Peridotite_12,7,12,3,4,0.811,7,12,0.171296296,-0.402777778,1,0,0,1.7403,Peridotite_rect,7,1.74,1,2,0,2,0,1,,,,,,,,,,,,,
6655f45c1e2ab295525736fb,SCR,2024-06-21_05h30.04.620,LearnStrategy,2023.2.3,Win32,59.88023952,9,1,4,0.362962935,-0.116666653,1,0,0,1.1623,Pegmatite_08,6,08,3,7,1.162,6,08,-0.188888903,-0.409259302,1,0,0,0.9166,Pegmatite_rect,6,0.917,1,3,0,3,0,1,,,,,,,,,,,,,
6655f45c1e2ab295525736fb,SCR,2024-06-21_05h30.04.620,LearnStrategy,2023.2.3,Win32,59.88023952,9,1,5,-0.549999979,0.409259257,1,0,0,1.2803,Pumice_08,8,08,6,1,1.28,8,08,0.348148205,-0.381481524,1,0,0,1.2331,Pumice_rect,8,1.233,1,4,0,4,0,1,,,,,,,,,,,,,
6655f45c1e2ab295525736fb,SCR,2024-06-21_05h30.04.620,LearnStrategy,2023.2.3,Win32,59.88023952,9,1,6,0.043518561,0.248148141,1,0,0,0.8923,Andesite_05,1,05,5,5,0.892,1,05,-0.347222222,-0.251851894,1,0,0,1.8642,Andesite_rect,1,1.864,1,5,0,5,0,1,,,,,,,,,,,,,
6655f45c1e2ab295525736fb,SCR,2024-06-21_05h30.04.620,LearnStrategy,2023.2.3,Win32,59.88023952,9,1,7,-0.503703683,-0.389814801,1,0,0,0.9704,Diorite_13,3,13,1,1,0.97,3,13,0.128703718,-0.262962977,1,0,0,1.2589,Diorite_rect,3,1.259,1,6,0,6,0,1,,,,,,,,,,,,,
6655f45c1e2ab295525736fb,SCR,2024-06-21_05h30.04.620,LearnStrategy,2023.2.3,Win32,59.88023952,9,1,8,0.050925926,-0.224074116,1,0,0,0.8184,Gabbro_08,4,08,2,5,0.818,4,08,-0.076851809,-0.235185199,1,0,0,1.6703,Basalt_rect,2,1.67,0,7,0,7,0,1,,,,,,,,,,,,,
6655f45c1e2ab295525736fb,SCR,2024-06-21_05h30.04.620,LearnStrategy,2023.2.3,Win32,59.88023952,9,1,9,0.231481481,-0.268518519,1,0,0,0.9102,Gabbro_16,4,16,2,6,0.91,4,16,0.371296353,-0.249074088,1,0,0,1.3591,Gabbro_rect,4,1.359,1,8,0,8,0,1,,,,,,,,,,,,,
6655f45c1e2ab295525736fb,SCR,2024-06-21_05h30.04.620,LearnStrategy,2023.2.3,Win32,59.88023952,9,1,10,-0.112037023,0.225925922,1,0,0,1.0316,Andesite_16,1,16,5,4,1.032,1,16,0.133333347,-0.248148176,1,0,0,1.8333,Diorite_rect,3,1.833,0,9,0,9,0,1,,,,,,,,,,,,,
6655f45c1e2ab295525736fb,SCR,2024-06-21_05h30.04.620,LearnStrategy,2023.2.3,Win32,59.88023952,9,1,11,-0.237962935,-0.267592607,1,0,0,1.1328,Pumice_10,8,10,2,3,1.133,8,10,0.344444416,-0.408333319,1,0,0,1.6146,Pumice_rect,8,1.615,1,10,0,10,0,1,,,,,,,,,,,,,
6655f45c1e2ab295525736fb,SCR,2024-06-21_05h30.04.620,LearnStrategy,2023.2.3,Win32,59.88023952,9,1,12,-0.363888882,-0.425925926,1,0,0,1.332,Andesite_04,1,04,1,2,1.332,1,04,-0.334259245,-0.257407436,1,0,0,1.3629,Andesite_rect,1,1.363,1,11,0,11,0,1,,,,,,,,,,,,,
6655f45c1e2ab295525736fb,SCR,2024-06-21_05h30.04.620,LearnStrategy,2023.2.3,Win32,59.88023952,9,1,13,-0.381481489,-0.239814829,1,0,0,1.0209,Basalt_16,2,16,2,2,1.021,2,16,-0.119444459,-0.240740741,1,0,0,2.3875,Basalt_rect,2,2.388,1,12,0,12,0,1,,,,,,,,,,,,,
6655f45c1e2ab295525736fb,SCR,2024-06-21_05h30.04.620,LearnStrategy,2023.2.3,Win32,59.88023952,9,1,14,0.390740712,0.407407407,1,0,0,1.4976,Peridotite_06,7,06,6,7,1.498,7,06,0.099074116,-0.417592578,1,0,0,1.665,Peridotite_rect,7,1.665,1,13,0,13,0,1,,,,,,,,,,,,,
6655f45c1e2ab295525736fb,SCR,2024-06-21_05h30.04.620,LearnStrategy,2023.2.3,Win32,59.88023952,9,1,15,-0.347222222,-0.253703718,1,0,0,1.1599,Basalt_16,2,16,2,2,1.16,2,16,-0.151851866,-0.266666695,1,0,0,0.8876,Basalt_rect,2,0.888,1,14,0,14,0,1,,,,,,,,,,,,,
6655f45c1e2ab295525736fb,SCR,2024-06-21_05h30.04.620,LearnStrategy,2023.2.3,Win32,59.88023952,9,1,16,0.249074088,-0.401851866,1,0,0,1.104,Gabbro_09,4,09,1,6,1.104,4,09,0.412037037,-0.24537037,1,0,0,1.4196,Gabbro_rect,4,1.42,1,15,0,15,0,1,,,,,,,,,,,,,
6655f45c1e2ab295525736fb,SCR,2024-06-21_05h30.04.620,LearnStrategy,2023.2.3,Win32,59.88023952,9,2,1,,,,,,,,6,06,,,,,,,,,,,,,6,2.169,1,,,,,,-0.160185143,-0.388888889,1,0,0,2.169,Pegmatite_rect,0,0,0,0,1,
6655f45c1e2ab295525736fb,SCR,2024-06-21_05h30.04.620,LearnStrategy,2023.2.3,Win32,59.88023952,9,2,2,,,,,,,,5,08,,,,,,,,,,,,,5,1.291,1,,,,,,-0.362037023,-0.395370413,1,0,0,1.2909,Obsidian_rect,1,0,1,0,1,
6655f45c1e2ab295525736fb,SCR,2024-06-21_05h30.04.620,LearnStrategy,2023.2.3,Win32,59.88023952,9,2,3,,,,,,,,2,06,,,,,,,,,,,,,2,1.629,1,,,,,,-0.132407365,-0.264814801,1,0,0,1.6286,Basalt_rect,2,0,2,0,1,
6655f45c1e2ab295525736fb,SCR,2024-06-21_05h30.04.620,LearnStrategy,2023.2.3,Win32,59.88023952,9,2,4,,,,,,,,6,13,,,,,,,,,,,,,6,3.305,1,,,,,,-0.118518476,-0.400000042,1,0,0,3.305,Pegmatite_rect,3,0,3,0,1,
6655f45c1e2ab295525736fb,SCR,2024-06-21_05h30.04.620,LearnStrategy,2023.2.3,Win32,59.88023952,9,2,5,,,,,,,,8,04,,,,,,,,,,,,,8,1.361,1,,,,,,0.353703675,-0.397222236,1,0,0,1.3608,Pumice_rect,4,0,4,0,1,
6655f45c1e2ab295525736fb,SCR,2024-06-21_05h30.04.620,LearnStrategy,2023.2.3,Win32,59.88023952,9,2,6,,,,,,,,3,07,,,,,,,,,,,,,3,1.637,1,,,,,,0.127777806,-0.260185171,1,0,0,1.6374,Diorite_rect,5,0,5,0,1,
6655f45c1e2ab295525736fb,SCR,2024-06-21_05h30.04.620,LearnStrategy,2023.2.3,Win32,59.88023952,9,2,7,,,,,,,,7,08,,,,,,,,,,,,,7,1.413,1,,,,,,0.093518504,-0.40370369,1,0,0,1.4127,Peridotite_rect,6,0,6,0,1,
6655f45c1e2ab295525736fb,SCR,2024-06-21_05h30.04.620,LearnStrategy,2023.2.3,Win32,59.88023952,9,2,8,,,,,,,,1,07,,,,,,,,,,,,,1,2.745,1,,,,,,-0.343518504,-0.258333347,1,0,0,2.7446,Andesite_rect,7,0,7,0,1,
6655f45c1e2ab295525736fb,SCR,2024-06-21_05h30.04.620,LearnStrategy,2023.2.3,Win32,59.88023952,9,2,9,,,,,,,,5,12,,,,,,,,,,,,,5,1.455,1,,,,,,-0.339814822,-0.388888889,1,0,0,1.4547,Obsidian_rect,8,0,8,0,1,
6655f45c1e2ab295525736fb,SCR,2024-06-21_05h30.04.620,LearnStrategy,2023.2.3,Win32,59.88023952,9,2,10,,,,,,,,7,10,,,,,,,,,,,,,7,2.552,1,,,,,,0.17777782,-0.417592578,1,0,0,2.5515,Peridotite_rect,9,0,9,0,1,
6655f45c1e2ab295525736fb,SCR,2024-06-21_05h30.04.620,LearnStrategy,2023.2.3,Win32,59.88023952,9,2,11,,,,,,,,2,09,,,,,,,,,,,,,2,2.998,1,,,,,,-0.132407365,-0.263888889,1,0,0,2.9977,Basalt_rect,10,0,10,0,1,
6655f45c1e2ab295525736fb,SCR,2024-06-21_05h30.04.620,LearnStrategy,2023.2.3,Win32,59.88023952,9,2,12,,,,,,,,8,09,,,,,,,,,,,,,8,1.372,1,,,,,,0.325925898,-0.402777778,1,0,0,1.3723,Pumice_rect,11,0,11,0,1,
6655f45c1e2ab295525736fb,SCR,2024-06-21_05h30.04.620,LearnStrategy,2023.2.3,Win32,59.88023952,9,2,13,,,,,,,,4,03,,,,,,,,,,,,,1,3.88,0,,,,,,-0.365740741,-0.267592607,1,0,0,3.8798,Andesite_rect,12,0,12,0,1,
6655f45c1e2ab295525736fb,SCR,2024-06-21_05h30.04.620,LearnStrategy,2023.2.3,Win32,59.88023952,9,2,14,,,,,,,,3,06,,,,,,,,,,,,,1,2.119,0,,,,,,-0.380555541,-0.233333376,1,0,0,2.1192,Andesite_rect,13,0,13,0,1,
6655f45c1e2ab295525736fb,SCR,2024-06-21_05h30.04.620,LearnStrategy,2023.2.3,Win32,59.88023952,9,2,15,,,,,,,,1,14,,,,,,,,,,,,,1,3.516,1,,,,,,-0.378703683,-0.262962977,1,0,0,3.5158,Andesite_rect,14,0,14,0,1,
6655f45c1e2ab295525736fb,SCR,2024-06-21_05h30.04.620,LearnStrategy,2023.2.3,Win32,59.88023952,9,2,16,,,,,,,,4,11,,,,,,,,,,,,,1,2.422,0,,,,,,-0.348148134,-0.252777806,1,0,0,2.4223,Andesite_rect,15,0,15,0,1,
6655f45c1e2ab295525736fb,SCR,2024-06-21_05h30.04.620,LearnStrategy,2023.2.3,Win32,59.88023952,,,,,,,,,,,,,,,,,,,,,,,,,,,,,,,,,,,,,,,,,,,,,1
6655f45c1e2ab295525736fb,SCR,2024-06-21_05h30.04.620,LearnStrategy,2023.2.3,Win32,59.88023952,,,,,,,,,,,,,,,,,,,,,,,,,,,,,,,,,,,,,,,,,,,,,
6655f45c1e2ab295525736fb,SCR,2024-06-21_05h30.04.620,LearnStrategy,2023.2.3,Win32,59.88023952,,,,,,,,,,,3,13,1,1,,,,,,,,,,,,,,,,,,,,,,,,,,,,,,,
6655f45c1e2ab295525736fb,SCR,2024-06-21_05h30.04.620,LearnStrategy,2023.2.3,Win32,59.88023952,,,,,,,,,,,1,04,1,2,,,,,,,,,,,,,,,,,,,,,,,,,,,,,,,
6655f45c1e2ab295525736fb,SCR,2024-06-21_05h30.04.620,LearnStrategy,2023.2.3,Win32,59.88023952,,,,,,,,,,,6,07,1,3,,,,,,,,,,,,,,,,,,,,,,,,,,,,,,,
6655f45c1e2ab295525736fb,SCR,2024-06-21_05h30.04.620,LearnStrategy,2023.2.3,Win32,59.88023952,,,,,,,,,,,2,11,1,4,,,,,,,,,,,,,,,,,,,,,,,,,,,,,,,
6655f45c1e2ab295525736fb,SCR,2024-06-21_05h30.04.620,LearnStrategy,2023.2.3,Win32,59.88023952,,,,,,,,,,,1,03,1,5,,,,,,,,,,,,,,,,,,,,,,,,,,,,,,,
6655f45c1e2ab295525736fb,SCR,2024-06-21_05h30.04.620,LearnStrategy,2023.2.3,Win32,59.88023952,,,,,,,,,,,4,09,1,6,,,,,,,,,,,,,,,,,,,,,,,,,,,,,,,
6655f45c1e2ab295525736fb,SCR,2024-06-21_05h30.04.620,LearnStrategy,2023.2.3,Win32,59.88023952,,,,,,,,,,,6,09,1,7,,,,,,,,,,,,,,,,,,,,,,,,,,,,,,,
6655f45c1e2ab295525736fb,SCR,2024-06-21_05h30.04.620,LearnStrategy,2023.2.3,Win32,59.88023952,,,,,,,,,,,8,15,1,8,,,,,,,,,,,,,,,,,,,,,,,,,,,,,,,
6655f45c1e2ab295525736fb,SCR,2024-06-21_05h30.04.620,LearnStrategy,2023.2.3,Win32,59.88023952,,,,,,,,,,,3,15,2,1,,,,,,,,,,,,,,,,,,,,,,,,,,,,,,,
6655f45c1e2ab295525736fb,SCR,2024-06-21_05h30.04.620,LearnStrategy,2023.2.3,Win32,59.88023952,,,,,,,,,,,2,16,2,2,,,,,,,,,,,,,,,,,,,,,,,,,,,,,,,
6655f45c1e2ab295525736fb,SCR,2024-06-21_05h30.04.620,LearnStrategy,2023.2.3,Win32,59.88023952,,,,,,,,,,,8,10,2,3,,,,,,,,,,,,,,,,,,,,,,,,,,,,,,,
6655f45c1e2ab295525736fb,SCR,2024-06-21_05h30.04.620,LearnStrategy,2023.2.3,Win32,59.88023952,,,,,,,,,,,7,14,2,4,,,,,,,,,,,,,,,,,,,,,,,,,,,,,,,
6655f45c1e2ab295525736fb,SCR,2024-06-21_05h30.04.620,LearnStrategy,2023.2.3,Win32,59.88023952,,,,,,,,,,,4,08,2,5,,,,,,,,,,,,,,,,,,,,,,,,,,,,,,,
6655f45c1e2ab295525736fb,SCR,2024-06-21_05h30.04.620,LearnStrategy,2023.2.3,Win32,59.88023952,,,,,,,,,,,4,16,2,6,,,,,,,,,,,,,,,,,,,,,,,,,,,,,,,
6655f45c1e2ab295525736fb,SCR,2024-06-21_05h30.04.620,LearnStrategy,2023.2.3,Win32,59.88023952,,,,,,,,,,,2,05,2,7,,,,,,,,,,,,,,,,,,,,,,,,,,,,,,,
6655f45c1e2ab295525736fb,SCR,2024-06-21_05h30.04.620,LearnStrategy,2023.2.3,Win32,59.88023952,,,,,,,,,,,6,05,2,8,,,,,,,,,,,,,,,,,,,,,,,,,,,,,,,
6655f45c1e2ab295525736fb,SCR,2024-06-21_05h30.04.620,LearnStrategy,2023.2.3,Win32,59.88023952,,,,,,,,,,,2,02,3,1,,,,,,,,,,,,,,,,,,,,,,,,,,,,,,,
6655f45c1e2ab295525736fb,SCR,2024-06-21_05h30.04.620,LearnStrategy,2023.2.3,Win32,59.88023952,,,,,,,,,,,8,06,3,2,,,,,,,,,,,,,,,,,,,,,,,,,,,,,,,
6655f45c1e2ab295525736fb,SCR,2024-06-21_05h30.04.620,LearnStrategy,2023.2.3,Win32,59.88023952,,,,,,,,,,,5,02,3,3,,,,,,,,,,,,,,,,,,,,,,,,,,,,,,,
6655f45c1e2ab295525736fb,SCR,2024-06-21_05h30.04.620,LearnStrategy,2023.2.3,Win32,59.88023952,,,,,,,,,,,7,12,3,4,,,,,,,,,,,,,,,,,,,,,,,,,,,,,,,
6655f45c1e2ab295525736fb,SCR,2024-06-21_05h30.04.620,LearnStrategy,2023.2.3,Win32,59.88023952,,,,,,,,,,,5,09,3,5,,,,,,,,,,,,,,,,,,,,,,,,,,,,,,,
6655f45c1e2ab295525736fb,SCR,2024-06-21_05h30.04.620,LearnStrategy,2023.2.3,Win32,59.88023952,,,,,,,,,,,1,09,3,6,,,,,,,,,,,,,,,,,,,,,,,,,,,,,,,
6655f45c1e2ab295525736fb,SCR,2024-06-21_05h30.04.620,LearnStrategy,2023.2.3,Win32,59.88023952,,,,,,,,,,,6,08,3,7,,,,,,,,,,,,,,,,,,,,,,,,,,,,,,,
6655f45c1e2ab295525736fb,SCR,2024-06-21_05h30.04.620,LearnStrategy,2023.2.3,Win32,59.88023952,,,,,,,,,,,5,07,3,8,,,,,,,,,,,,,,,,,,,,,,,,,,,,,,,
6655f45c1e2ab295525736fb,SCR,2024-06-21_05h30.04.620,LearnStrategy,2023.2.3,Win32,59.88023952,,,,,,,,,,,2,04,4,1,,,,,,,,,,,,,,,,,,,,,,,,,,,,,,,
6655f45c1e2ab295525736fb,SCR,2024-06-21_05h30.04.620,LearnStrategy,2023.2.3,Win32,59.88023952,,,,,,,,,,,7,07,4,2,,,,,,,,,,,,,,,,,,,,,,,,,,,,,,,
6655f45c1e2ab295525736fb,SCR,2024-06-21_05h30.04.620,LearnStrategy,2023.2.3,Win32,59.88023952,,,,,,,,,,,8,03,4,3,,,,,,,,,,,,,,,,,,,,,,,,,,,,,,,
6655f45c1e2ab295525736fb,SCR,2024-06-21_05h30.04.620,LearnStrategy,2023.2.3,Win32,59.88023952,,,,,,,,,,,2,10,4,4,,,,,,,,,,,,,,,,,,,,,,,,,,,,,,,
6655f45c1e2ab295525736fb,SCR,2024-06-21_05h30.04.620,LearnStrategy,2023.2.3,Win32,59.88023952,,,,,,,,,,,4,14,4,5,,,,,,,,,,,,,,,,,,,,,,,,,,,,,,,
6655f45c1e2ab295525736fb,SCR,2024-06-21_05h30.04.620,LearnStrategy,2023.2.3,Win32,59.88023952,,,,,,,,,,,4,05,4,6,,,,,,,,,,,,,,,,,,,,,,,,,,,,,,,
6655f45c1e2ab295525736fb,SCR,2024-06-21_05h30.04.620,LearnStrategy,2023.2.3,Win32,59.88023952,,,,,,,,,,,5,16,4,7,,,,,,,,,,,,,,,,,,,,,,,,,,,,,,,
6655f45c1e2ab295525736fb,SCR,2024-06-21_05h30.04.620,LearnStrategy,2023.2.3,Win32,59.88023952,,,,,,,,,,,3,16,4,8,,,,,,,,,,,,,,,,,,,,,,,,,,,,,,,
6655f45c1e2ab295525736fb,SCR,2024-06-21_05h30.04.620,LearnStrategy,2023.2.3,Win32,59.88023952,,,,,,,,,,,3,09,5,1,,,,,,,,,,,,,,,,,,,,,,,,,,,,,,,
6655f45c1e2ab295525736fb,SCR,2024-06-21_05h30.04.620,LearnStrategy,2023.2.3,Win32,59.88023952,,,,,,,,,,,1,06,5,2,,,,,,,,,,,,,,,,,,,,,,,,,,,,,,,
6655f45c1e2ab295525736fb,SCR,2024-06-21_05h30.04.620,LearnStrategy,2023.2.3,Win32,59.88023952,,,,,,,,,,,8,13,5,3,,,,,,,,,,,,,,,,,,,,,,,,,,,,,,,
6655f45c1e2ab295525736fb,SCR,2024-06-21_05h30.04.620,LearnStrategy,2023.2.3,Win32,59.88023952,,,,,,,,,,,1,16,5,4,,,,,,,,,,,,,,,,,,,,,,,,,,,,,,,
6655f45c1e2ab295525736fb,SCR,2024-06-21_05h30.04.620,LearnStrategy,2023.2.3,Win32,59.88023952,,,,,,,,,,,1,05,5,5,,,,,,,,,,,,,,,,,,,,,,,,,,,,,,,
6655f45c1e2ab295525736fb,SCR,2024-06-21_05h30.04.620,LearnStrategy,2023.2.3,Win32,59.88023952,,,,,,,,,,,6,03,5,6,,,,,,,,,,,,,,,,,,,,,,,,,,,,,,,
6655f45c1e2ab295525736fb,SCR,2024-06-21_05h30.04.620,LearnStrategy,2023.2.3,Win32,59.88023952,,,,,,,,,,,5,04,5,7,,,,,,,,,,,,,,,,,,,,,,,,,,,,,,,
6655f45c1e2ab295525736fb,SCR,2024-06-21_05h30.04.620,LearnStrategy,2023.2.3,Win32,59.88023952,,,,,,,,,,,6,11,5,8,,,,,,,,,,,,,,,,,,,,,,,,,,,,,,,
6655f45c1e2ab295525736fb,SCR,2024-06-21_05h30.04.620,LearnStrategy,2023.2.3,Win32,59.88023952,,,,,,,,,,,8,08,6,1,,,,,,,,,,,,,,,,,,,,,,,,,,,,,,,
6655f45c1e2ab295525736fb,SCR,2024-06-21_05h30.04.620,LearnStrategy,2023.2.3,Win32,59.88023952,,,,,,,,,,,4,12,6,2,,,,,,,,,,,,,,,,,,,,,,,,,,,,,,,
6655f45c1e2ab295525736fb,SCR,2024-06-21_05h30.04.620,LearnStrategy,2023.2.3,Win32,59.88023952,,,,,,,,,,,3,11,6,3,,,,,,,,,,,,,,,,,,,,,,,,,,,,,,,
6655f45c1e2ab295525736fb,SCR,2024-06-21_05h30.04.620,LearnStrategy,2023.2.3,Win32,59.88023952,,,,,,,,,,,5,14,6,4,,,,,,,,,,,,,,,,,,,,,,,,,,,,,,,
6655f45c1e2ab295525736fb,SCR,2024-06-21_05h30.04.620,LearnStrategy,2023.2.3,Win32,59.88023952,,,,,,,,,,,3,12,6,5,,,,,,,,,,,,,,,,,,,,,,,,,,,,,,,
6655f45c1e2ab295525736fb,SCR,2024-06-21_05h30.04.620,LearnStrategy,2023.2.3,Win32,59.88023952,,,,,,,,,,,7,02,6,6,,,,,,,,,,,,,,,,,,,,,,,,,,,,,,,
6655f45c1e2ab295525736fb,SCR,2024-06-21_05h30.04.620,LearnStrategy,2023.2.3,Win32,59.88023952,,,,,,,,,,,7,06,6,7,,,,,,,,,,,,,,,,,,,,,,,,,,,,,,,
6655f45c1e2ab295525736fb,SCR,2024-06-21_05h30.04.620,LearnStrategy,2023.2.3,Win32,59.88023952,,,,,,,,,,,7,13,6,8,,,,,,,,,,,,,,,,,,,,,,,,,,,,,,,