participant,condition,date,expName,psychopyVersion,OS,frameRate,block,phase,trial,learn_mouse.x,learn_mouse.y,learn_mouse.leftButton,learn_mouse.midButton,learn_mouse.rightButton,learn_mouse.time,learn_mouse.clicked_name,cat,token,row,col,t_select,cat_rec,token_rec,cat_mouse_l.x,cat_mouse_l.y,cat_mouse_l.leftButton,cat_mouse_l.midButton,cat_mouse_l.rightButton,cat_mouse_l.time,cat_mouse_l.clicked_name,resp,t_resp,corr,train_trials.thisRepN,train_trials.thisTrialN,train_trials.thisN,train_trials.thisIndex,train_trials.ran,cat_mouse_t.x,cat_mouse_t.y,cat_mouse_t.leftButton,cat_mouse_t.midButton,cat_mouse_t.rightButton,cat_mouse_t.time,cat_mouse_t.clicked_name,test_trials.thisRepN,test_trials.thisTrialN,test_trials.thisN,test_trials.thisIndex,test_trials.ran,Bonus
6655e4f304ea91b8ecb46edc,SCR,2024-06-24_14h45.03.944,LearnStrategy,2023.2.3,Win32,59.52380952,,,,,,,,,,,,,,,,,,,,,,,,,,,,,,,,,,,,,,,,,,,,,
6655e4f304ea91b8ecb46edc,SCR,2024-06-24_14h45.03.944,LearnStrategy,2023.2.3,Win32,59.52380952,1,1,1,0.07962963,-0.076851852,1,0,0,7.2119,Pegmatite_13,6,13,3,5,7.212,4,10,-0.164814815,-0.262037037,1,0,0,60.8323,Basalt_rect,2,60.832,0,0,0,0,0,1,,,,,,,,,,,,,
6655e4f304ea91b8ecb46edc,SCR,2024-06-24_14h45.03.944,LearnStrategy,2023.2.3,Win32,59.52380952,1,1,2,0.237962963,-0.419444444,1,0,0,8.381,Pegmatite_10,6,10,1,6,8.381,1,02,-0.363888889,-0.268518519,1,0,0,68.9228,Andesite_rect,1,68.923,0,1,0,1,0,1,,,,,,,,,,,,,
6655e4f304ea91b8ecb46edc,SCR,2024-06-24_14h45.03.944,LearnStrategy,2023.2.3,Win32,59.52380952,1,1,3,0.518518519,0.244444444,1,0,0,8.9649,Pegmatite_16,6,16,5,8,8.965,2,09,0.143518519,-0.248148148,1,0,0,2.7557,Diorite_rect,3,2.756,0,2,0,2,0,1,,,,,,,,,,,,,
6655e4f304ea91b8ecb46edc,SCR,2024-06-24_14h45.03.944,LearnStrategy,2023.2.3,Win32,59.52380952,1,1,4,-0.249074074,0.085185185,1,0,0,6.7977,Pumice_13,8,13,4,3,6.798,3,06,-0.375925926,-0.262962963,1,0,0,9.3232,Andesite_rect,1,9.323,0,3,0,3,0,1,,,,,,,,,,,,,
6655e4f304ea91b8ecb46edc,SCR,2024-06-24_14h45.03.944,LearnStrategy,2023.2.3,Win32,59.52380952,1,1,5,0.408333333,-0.259259259,1,0,0,2.6975,Basalt_06,2,06,2,7,2.697,7,15,-0.47962963,-0.389814815,1,0,0,2.8933,Obsidian_rect,5,2.893,0,4,0,4,0,1,,,,,,,,,,,,,
6655e4f304ea91b8ecb46edc,SCR,2024-06-24_14h45.03.944,LearnStrategy,2023.2.3,Win32,59.52380952,1,1,6,-0.368518519,-0.414814815,1,0,0,1.7136,Obsidian_10,5,10,1,2,1.714,8,10,-0.157407407,-0.251851852,1,0,0,4.1932,Basalt_rect,2,4.193,0,5,0,5,0,1,,,,,,,,,,,,,
6655e4f304ea91b8ecb46edc,SCR,2024-06-24_14h45.03.944,LearnStrategy,2023.2.3,Win32,59.52380952,1,1,7,0.390740741,0.101851852,1,0,0,6.5643,Pegmatite_08,6,08,4,7,6.564,4,16,-0.103703704,-0.405555556,1,0,0,3.79,Pegmatite_rect,6,3.79,1,6,0,6,0,1,,,,,,,,,,,,,
6655e4f304ea91b8ecb46edc,SCR,2024-06-24_14h45.03.944,LearnStrategy,2023.2.3,Win32,59.52380952,1,1,8,-0.074074074,-0.424074074,1,0,0,3.2469,Peridotite_13,7,13,1,4,3.247,7,13,0.133333333,-0.261111111,1,0,0,2.7221,Diorite_rect,3,2.722,0,7,0,7,0,1,,,,,,,,,,,,,
6655e4f304ea91b8ecb46edc,SCR,2024-06-24_14h45.03.944,LearnStrategy,2023.2.3,Win32,59.52380952,1,1,9,-0.225,-0.099074074,1,0,0,2.9637,Obsidian_05,5,05,3,3,2.964,3,16,-0.380555556,-0.266666667,1,0,0,2.2771,Andesite_rect,1,2.277,0,8,0,8,0,1,,,,,,,,,,,,,
6655e4f304ea91b8ecb46edc,SCR,2024-06-24_14h45.03.944,LearnStrategy,2023.2.3,Win32,59.52380952,1,1,10,0.087962963,0.081481481,1,0,0,1.2136,Andesite_09,1,09,4,5,1.214,6,08,0.335185185,-0.392592593,1,0,0,1.211,Pumice_rect,8,1.211,0,9,0,9,0,1,,,,,,,,,,,,,
6655e4f304ea91b8ecb46edc,SCR,2024-06-24_14h45.03.944,LearnStrategy,2023.2.3,Win32,59.52380952,1,1,11,0.236111111,0.438888889,1,0,0,2.2813,Andesite_03,1,03,6,6,2.281,5,05,-0.341666667,-0.265740741,1,0,0,1.7406,Andesite_rect,1,1.741,1,10,0,10,0,1,,,,,,,,,,,,,
6655e4f304ea91b8ecb46edc,SCR,2024-06-24_14h45.03.944,LearnStrategy,2023.2.3,Win32,59.52380952,1,1,12,0.37962963,0.406481481,1,0,0,1.1807,Pumice_10,8,10,6,7,1.181,8,16,0.37037037,-0.391666667,1,0,0,1.8387,Pumice_rect,8,1.839,1,11,0,11,0,1,,,,,,,,,,,,,
6655e4f304ea91b8ecb46edc,SCR,2024-06-24_14h45.03.944,LearnStrategy,2023.2.3,Win32,59.52380952,1,1,13,0.585185185,0.413888889,1,0,0,1.1481,Diorite_16,3,16,6,8,1.148,2,06,0.072222222,-0.252777778,1,0,0,1.3287,Diorite_rect,3,1.329,1,12,0,12,0,1,,,,,,,,,,,,,
6655e4f304ea91b8ecb46edc,SCR,2024-06-24_14h45.03.944,LearnStrategy,2023.2.3,Win32,59.52380952,1,1,14,0.565740741,0.080555556,1,0,0,1.9477,Diorite_09,3,09,4,8,1.948,6,13,0.119444444,-0.257407407,1,0,0,1.528,Diorite_rect,3,1.528,1,13,0,13,0,1,,,,,,,,,,,,,
6655e4f304ea91b8ecb46edc,SCR,2024-06-24_14h45.03.944,LearnStrategy,2023.2.3,Win32,59.52380952,1,1,15,0.072222222,-0.102777778,1,0,0,0.9472,Pegmatite_13,6,13,3,5,0.947,5,07,-0.108333333,-0.416666667,1,0,0,3.2619,Pegmatite_rect,6,3.262,1,14,0,14,0,1,,,,,,,,,,,,,
6655e4f304ea91b8ecb46edc,SCR,2024-06-24_14h45.03.944,LearnStrategy,2023.2.3,Win32,59.52380952,1,1,16,-0.561111111,0.101851852,1,0,0,2.2965,Pumice_16,8,16,4,1,2.297,1,05,-0.051851852,-0.249074074,1,0,0,1.3618,Basalt_rect,2,1.362,0,15,0,15,0,1,,,,,,,,,,,,,
6655e4f304ea91b8ecb46edc,SCR,2024-06-24_14h45.03.944,LearnStrategy,2023.2.3,Win32,59.52380952,1,2,1,,,,,,,,3,15,,,,,,,,,,,,,3,22.178,1,,,,,,0.156481481,-0.250925926,1,0,0,22.1776,Diorite_rect,0,0,0,0,1,
6655e4f304ea91b8ecb46edc,SCR,2024-06-24_14h45.03.944,LearnStrategy,2023.2.3,Win32,59.52380952,1,2,2,,,,,,,,8,14,,,,,,,,,,,,,8,3.879,1,,,,,,0.4,-0.399074074,1,0,0,3.8786,Pumice_rect,1,0,1,0,1,
6655e4f304ea91b8ecb46edc,SCR,2024-06-24_14h45.03.944,LearnStrategy,2023.2.3,Win32,59.52380952,1,2,3,,,,,,,,8,04,,,,,,,,,,,,,8,49.508,1,,,,,,0.342592593,-0.397222222,1,0,0,49.5076,Pumice_rect,2,0,2,0,1,
6655e4f304ea91b8ecb46edc,SCR,2024-06-24_14h45.03.944,LearnStrategy,2023.2.3,Win32,59.52380952,1,2,4,,,,,,,,6,03,,,,,,,,,,,,,6,16.728,1,,,,,,-0.111111111,-0.387037037,1,0,0,16.7285,Pegmatite_rect,3,0,3,0,1,
6655e4f304ea91b8ecb46edc,SCR,2024-06-24_14h45.03.944,LearnStrategy,2023.2.3,Win32,59.52380952,1,2,5,,,,,,,,4,11,,,,,,,,,,,,,7,8.439,0,,,,,,0.118518519,-0.416666667,1,0,0,8.4391,Peridotite_rect,4,0,4,0,1,
6655e4f304ea91b8ecb46edc,SCR,2024-06-24_14h45.03.944,LearnStrategy,2023.2.3,Win32,59.52380952,1,2,6,,,,,,,,2,01,,,,,,,,,,,,,2,4.979,1,,,,,,-0.07962963,-0.25,1,0,0,4.9789,Basalt_rect,5,0,5,0,1,
6655e4f304ea91b8ecb46edc,SCR,2024-06-24_14h45.03.944,LearnStrategy,2023.2.3,Win32,59.52380952,1,2,7,,,,,,,,7,14,,,,,,,,,,,,,4,12.961,0,,,,,,0.421296296,-0.257407407,1,0,0,12.9613,Gabbro_rect,6,0,6,0,1,
6655e4f304ea91b8ecb46edc,SCR,2024-06-24_14h45.03.944,LearnStrategy,2023.2.3,Win32,59.52380952,1,2,8,,,,,,,,6,05,,,,,,,,,,,,,5,13.525,0,,,,,,-0.388888889,-0.412037037,1,0,0,13.5247,Obsidian_rect,7,0,7,0,1,
6655e4f304ea91b8ecb46edc,SCR,2024-06-24_14h45.03.944,LearnStrategy,2023.2.3,Win32,59.52380952,1,2,9,,,,,,,,1,06,,,,,,,,,,,,,3,16.543,0,,,,,,0.118518519,-0.250925926,1,0,0,16.5432,Diorite_rect,8,0,8,0,1,
6655e4f304ea91b8ecb46edc,SCR,2024-06-24_14h45.03.944,LearnStrategy,2023.2.3,Win32,59.52380952,1,2,10,,,,,,,,5,06,,,,,,,,,,,,,5,6.009,1,,,,,,-0.39537037,-0.381481481,1,0,0,6.009,Obsidian_rect,9,0,9,0,1,
6655e4f304ea91b8ecb46edc,SCR,2024-06-24_14h45.03.944,LearnStrategy,2023.2.3,Win32,59.52380952,1,2,11,,,,,,,,2,02,,,,,,,,,,,,,2,5.013,1,,,,,,-0.194444444,-0.251851852,1,0,0,5.0126,Basalt_rect,10,0,10,0,1,
6655e4f304ea91b8ecb46edc,SCR,2024-06-24_14h45.03.944,LearnStrategy,2023.2.3,Win32,59.52380952,1,2,12,,,,,,,,7,02,,,,,,,,,,,,,6,18.659,0,,,,,,-0.122222222,-0.403703704,1,0,0,18.6595,Pegmatite_rect,11,0,11,0,1,
6655e4f304ea91b8ecb46edc,SCR,2024-06-24_14h45.03.944,LearnStrategy,2023.2.3,Win32,59.52380952,1,2,13,,,,,,,,5,09,,,,,,,,,,,,,5,1.411,1,,,,,,-0.430555556,-0.406481481,1,0,0,1.4112,Obsidian_rect,12,0,12,0,1,
6655e4f304ea91b8ecb46edc,SCR,2024-06-24_14h45.03.944,LearnStrategy,2023.2.3,Win32,59.52380952,1,2,14,,,,,,,,3,07,,,,,,,,,,,,,6,5.225,0,,,,,,-0.090740741,-0.385185185,1,0,0,5.2252,Pegmatite_rect,13,0,13,0,1,
6655e4f304ea91b8ecb46edc,SCR,2024-06-24_14h45.03.944,LearnStrategy,2023.2.3,Win32,59.52380952,1,2,15,,,,,,,,1,11,,,,,,,,,,,,,1,62.81,1,,,,,,-0.339814815,-0.261111111,1,0,0,62.8103,Andesite_rect,14,0,14,0,1,
6655e4f304ea91b8ecb46edc,SCR,2024-06-24_14h45.03.944,LearnStrategy,2023.2.3,Win32,59.52380952,1,2,16,,,,,,,,4,14,,,,,,,,,,,,,4,50.729,1,,,,,,0.356481481,-0.262037037,1,0,0,50.7287,Gabbro_rect,15,0,15,0,1,
6655e4f304ea91b8ecb46edc,SCR,2024-06-24_14h45.03.944,LearnStrategy,2023.2.3,Win32,59.52380952,2,1,1,0.561111111,-0.113888889,1,0,0,4.6316,Gabbro_15,4,15,3,8,4.632,6,10,0.377777778,-0.24537037,1,0,0,11.0206,Gabbro_rect,4,11.021,1,0,0,0,0,1,,,,,,,,,,,,,
6655e4f304ea91b8ecb46edc,SCR,2024-06-24_14h45.03.944,LearnStrategy,2023.2.3,Win32,59.52380952,2,1,2,-0.058333333,-0.262037037,1,0,0,2.0813,Obsidian_07,5,07,2,4,2.081,7,10,-0.411111111,-0.397222222,1,0,0,1.5095,Obsidian_rect,5,1.51,1,1,0,1,0,1,,,,,,,,,,,,,
6655e4f304ea91b8ecb46edc,SCR,2024-06-24_14h45.03.944,LearnStrategy,2023.2.3,Win32,59.52380952,2,1,3,0.069444444,0.393518519,1,0,0,4.9489,Pegmatite_12,6,12,6,5,4.949,4,01,-0.366666667,-0.243518519,1,0,0,2.7886,Andesite_rect,1,2.789,0,2,0,2,0,1,,,,,,,,,,,,,
6655e4f304ea91b8ecb46edc,SCR,2024-06-24_14h45.03.944,LearnStrategy,2023.2.3,Win32,59.52380952,2,1,4,0.568518519,0.415740741,1,0,0,9.247,Diorite_16,3,16,6,8,9.247,4,01,-0.35,-0.233333333,1,0,0,1.3705,Andesite_rect,1,1.37,0,3,0,3,0,1,,,,,,,,,,,,,
6655e4f304ea91b8ecb46edc,SCR,2024-06-24_14h45.03.944,LearnStrategy,2023.2.3,Win32,59.52380952,2,1,5,-0.549074074,0.409259259,1,0,0,4.9813,Andesite_14,1,14,6,1,4.981,7,05,-0.352777778,-0.257407407,1,0,0,1.2066,Andesite_rect,1,1.207,1,4,0,4,0,1,,,,,,,,,,,,,
6655e4f304ea91b8ecb46edc,SCR,2024-06-24_14h45.03.944,LearnStrategy,2023.2.3,Win32,59.52380952,2,1,6,-0.390740741,-0.098148148,1,0,0,2.2481,Peridotite_07,7,07,3,2,2.248,1,01,-0.1,-0.4,1,0,0,3.3777,Pegmatite_rect,6,3.378,0,5,0,5,0,1,,,,,,,,,,,,,
6655e4f304ea91b8ecb46edc,SCR,2024-06-24_14h45.03.944,LearnStrategy,2023.2.3,Win32,59.52380952,2,1,7,0.54537037,-0.256481481,1,0,0,4.9803,Pumice_09,8,09,2,8,4.98,7,08,0.386111111,-0.4,1,0,0,3.6568,Pumice_rect,8,3.657,1,6,0,6,0,1,,,,,,,,,,,,,
6655e4f304ea91b8ecb46edc,SCR,2024-06-24_14h45.03.944,LearnStrategy,2023.2.3,Win32,59.52380952,2,1,8,-0.058333333,0.091666667,1,0,0,2.5978,Pegmatite_06,6,06,4,4,2.598,1,01,0.112037037,-0.259259259,1,0,0,3.2614,Diorite_rect,3,3.261,0,7,0,7,0,1,,,,,,,,,,,,,
6655e4f304ea91b8ecb46edc,SCR,2024-06-24_14h45.03.944,LearnStrategy,2023.2.3,Win32,59.52380952,2,1,9,0.243518519,-0.264814815,1,0,0,4.7805,Diorite_08,3,08,2,6,4.78,3,09,-0.077777778,-0.421296296,1,0,0,2.1891,Pegmatite_rect,6,2.189,0,8,0,8,0,1,,,,,,,,,,,,,
6655e4f304ea91b8ecb46edc,SCR,2024-06-24_14h45.03.944,LearnStrategy,2023.2.3,Win32,59.52380952,2,1,10,0.541666667,0.403703704,1,0,0,5.3474,Diorite_16,3,16,6,8,5.347,3,14,0.136111111,-0.237962963,1,0,0,1.0376,Diorite_rect,3,1.038,1,9,0,9,0,1,,,,,,,,,,,,,
6655e4f304ea91b8ecb46edc,SCR,2024-06-24_14h45.03.944,LearnStrategy,2023.2.3,Win32,59.52380952,2,1,11,-0.214814815,-0.253703704,1,0,0,4.0818,Peridotite_08,7,08,2,3,4.082,6,12,0.136111111,-0.394444444,1,0,0,3.1217,Peridotite_rect,7,3.122,1,10,0,10,0,1,,,,,,,,,,,,,
6655e4f304ea91b8ecb46edc,SCR,2024-06-24_14h45.03.944,LearnStrategy,2023.2.3,Win32,59.52380952,2,1,12,-0.221296296,0.066666667,1,0,0,2.2632,Pumice_13,8,13,4,3,2.263,5,16,0.37037037,-0.402777778,1,0,0,8.1774,Pumice_rect,8,8.177,1,11,0,11,0,1,,,,,,,,,,,,,
6655e4f304ea91b8ecb46edc,SCR,2024-06-24_14h45.03.944,LearnStrategy,2023.2.3,Win32,59.52380952,2,1,13,0.386111111,-0.418518519,1,0,0,6.0309,Andesite_05,1,05,1,7,6.031,7,15,0.1,-0.239814815,1,0,0,3.1059,Diorite_rect,3,3.106,0,12,0,12,0,1,,,,,,,,,,,,,
6655e4f304ea91b8ecb46edc,SCR,2024-06-24_14h45.03.944,LearnStrategy,2023.2.3,Win32,59.52380952,2,1,14,0.225,0.433333333,1,0,0,4.0647,Andesite_03,1,03,6,6,4.065,6,06,-0.162037037,-0.250925926,1,0,0,1.2396,Basalt_rect,2,1.24,0,13,0,13,0,1,,,,,,,,,,,,,
6655e4f304ea91b8ecb46edc,SCR,2024-06-24_14h45.03.944,LearnStrategy,2023.2.3,Win32,59.52380952,2,1,15,-0.383333333,0.250925926,1,0,0,1.6158,Basalt_09,2,09,5,2,1.616,3,09,-0.099074074,-0.259259259,1,0,0,1.2102,Basalt_rect,2,1.21,1,14,0,14,0,1,,,,,,,,,,,,,
6655e4f304ea91b8ecb46edc,SCR,2024-06-24_14h45.03.944,LearnStrategy,2023.2.3,Win32,59.52380952,2,1,16,-0.059259259,-0.096296296,1,0,0,3.9638,Diorite_14,3,14,3,4,3.964,4,03,0.142592593,-0.403703704,1,0,0,3.3238,Peridotite_rect,7,3.324,0,15,0,15,0,1,,,,,,,,,,,,,
6655e4f304ea91b8ecb46edc,SCR,2024-06-24_14h45.03.944,LearnStrategy,2023.2.3,Win32,59.52380952,2,2,1,,,,,,,,7,04,,,,,,,,,,,,,3,17.593,0,,,,,,0.098148148,-0.247222222,1,0,0,17.5933,Diorite_rect,0,0,0,0,1,
6655e4f304ea91b8ecb46edc,SCR,2024-06-24_14h45.03.944,LearnStrategy,2023.2.3,Win32,59.52380952,2,2,2,,,,,,,,3,13,,,,,,,,,,,,,6,10.347,0,,,,,,-0.098148148,-0.397222222,1,0,0,10.3469,Pegmatite_rect,1,0,1,0,1,
6655e4f304ea91b8ecb46edc,SCR,2024-06-24_14h45.03.944,LearnStrategy,2023.2.3,Win32,59.52380952,2,2,3,,,,,,,,3,12,,,,,,,,,,,,,6,3.712,0,,,,,,-0.099074074,-0.397222222,1,0,0,3.7121,Pegmatite_rect,2,0,2,0,1,
6655e4f304ea91b8ecb46edc,SCR,2024-06-24_14h45.03.944,LearnStrategy,2023.2.3,Win32,59.52380952,2,2,4,,,,,,,,4,13,,,,,,,,,,,,,7,13.16,0,,,,,,0.159259259,-0.4,1,0,0,13.1599,Peridotite_rect,3,0,3,0,1,
6655e4f304ea91b8ecb46edc,SCR,2024-06-24_14h45.03.944,LearnStrategy,2023.2.3,Win32,59.52380952,2,2,5,,,,,,,,6,15,,,,,,,,,,,,,6,5.492,1,,,,,,-0.075,-0.408333333,1,0,0,5.4916,Pegmatite_rect,4,0,4,0,1,
6655e4f304ea91b8ecb46edc,SCR,2024-06-24_14h45.03.944,LearnStrategy,2023.2.3,Win32,59.52380952,2,2,6,,,,,,,,8,05,,,,,,,,,,,,,8,1.392,1,,,,,,0.426851852,-0.413888889,1,0,0,1.3922,Pumice_rect,5,0,5,0,1,
6655e4f304ea91b8ecb46edc,SCR,2024-06-24_14h45.03.944,LearnStrategy,2023.2.3,Win32,59.52380952,2,2,7,,,,,,,,7,06,,,,,,,,,,,,,6,2.792,0,,,,,,-0.139814815,-0.39537037,1,0,0,2.7919,Pegmatite_rect,6,0,6,0,1,
6655e4f304ea91b8ecb46edc,SCR,2024-06-24_14h45.03.944,LearnStrategy,2023.2.3,Win32,59.52380952,2,2,8,,,,,,,,4,08,,,,,,,,,,,,,3,4.362,0,,,,,,0.140740741,-0.250925926,1,0,0,4.3617,Diorite_rect,7,0,7,0,1,
6655e4f304ea91b8ecb46edc,SCR,2024-06-24_14h45.03.944,LearnStrategy,2023.2.3,Win32,59.52380952,2,2,9,,,,,,,,5,02,,,,,,,,,,,,,5,1.108,1,,,,,,-0.361111111,-0.40462963,1,0,0,1.1084,Obsidian_rect,8,0,8,0,1,
6655e4f304ea91b8ecb46edc,SCR,2024-06-24_14h45.03.944,LearnStrategy,2023.2.3,Win32,59.52380952,2,2,10,,,,,,,,1,10,,,,,,,,,,,,,3,11.96,0,,,,,,0.118518519,-0.246296296,1,0,0,11.9596,Diorite_rect,9,0,9,0,1,
6655e4f304ea91b8ecb46edc,SCR,2024-06-24_14h45.03.944,LearnStrategy,2023.2.3,Win32,59.52380952,2,2,11,,,,,,,,2,16,,,,,,,,,,,,,8,2.192,0,,,,,,0.341666667,-0.393518519,1,0,0,2.1916,Pumice_rect,10,0,10,0,1,
6655e4f304ea91b8ecb46edc,SCR,2024-06-24_14h45.03.944,LearnStrategy,2023.2.3,Win32,59.52380952,2,2,12,,,,,,,,1,07,,,,,,,,,,,,,6,8.66,0,,,,,,-0.086111111,-0.408333333,1,0,0,8.6599,Pegmatite_rect,11,0,11,0,1,
6655e4f304ea91b8ecb46edc,SCR,2024-06-24_14h45.03.944,LearnStrategy,2023.2.3,Win32,59.52380952,2,2,13,,,,,,,,8,03,,,,,,,,,,,,,8,1.792,1,,,,,,0.42962963,-0.406481481,1,0,0,1.7918,Pumice_rect,12,0,12,0,1,
6655e4f304ea91b8ecb46edc,SCR,2024-06-24_14h45.03.944,LearnStrategy,2023.2.3,Win32,59.52380952,2,2,14,,,,,,,,2,04,,,,,,,,,,,,,2,1.91,1,,,,,,-0.059259259,-0.236111111,1,0,0,1.91,Basalt_rect,13,0,13,0,1,
6655e4f304ea91b8ecb46edc,SCR,2024-06-24_14h45.03.944,LearnStrategy,2023.2.3,Win32,59.52380952,2,2,15,,,,,,,,5,11,,,,,,,,,,,,,5,1.076,1,,,,,,-0.363888889,-0.385185185,1,0,0,1.0759,Obsidian_rect,14,0,14,0,1,
6655e4f304ea91b8ecb46edc,SCR,2024-06-24_14h45.03.944,LearnStrategy,2023.2.3,Win32,59.52380952,2,2,16,,,,,,,,6,11,,,,,,,,,,,,,6,1.691,1,,,,,,-0.147222222,-0.391666667,1,0,0,1.6914,Pegmatite_rect,15,0,15,0,1,
6655e4f304ea91b8ecb46edc,SCR,2024-06-24_14h45.03.944,LearnStrategy,2023.2.3,Win32,59.52380952,3,1,1,0.553703704,-0.227777778,1,0,0,11.4811,Pumice_09,8,09,2,8,11.481,1,05,0.392592593,-0.414814815,1,0,0,0.99,Pumice_rect,8,0.99,1,0,0,0,0,1,,,,,,,,,,,,,
6655e4f304ea91b8ecb46edc,SCR,2024-06-24_14h45.03.944,LearnStrategy,2023.2.3,Win32,59.52380952,3,1,2,-0.361111111,-0.110185185,1,0,0,1.447,Peridotite_07,7,07,3,2,1.447,7,05,-0.101851852,-0.393518519,1,0,0,1.7115,Pegmatite_rect,6,1.712,0,1,0,1,0,1,,,,,,,,,,,,,
6655e4f304ea91b8ecb46edc,SCR,2024-06-24_14h45.03.944,LearnStrategy,2023.2.3,Win32,59.52380952,3,1,3,-0.534259259,-0.114814815,1,0,0,1.1983,Gabbro_05,4,05,3,1,1.198,4,01,0.155555556,-0.402777778,1,0,0,1.8103,Peridotite_rect,7,1.81,0,2,0,2,0,1,,,,,,,,,,,,,
6655e4f304ea91b8ecb46edc,SCR,2024-06-24_14h45.03.944,LearnStrategy,2023.2.3,Win32,59.52380952,3,1,4,-0.541666667,0.256481481,1,0,0,2.3818,Gabbro_03,4,03,5,1,2.382,7,05,-0.364814815,-0.247222222,1,0,0,2.5749,Andesite_rect,1,2.575,0,3,0,3,0,1,,,,,,,,,,,,,
6655e4f304ea91b8ecb46edc,SCR,2024-06-24_14h45.03.944,LearnStrategy,2023.2.3,Win32,59.52380952,3,1,5,0.573148148,-0.071296296,1,0,0,92.7141,Gabbro_15,4,15,3,8,92.714,3,08,0.375925926,-0.252777778,1,0,0,4.8708,Gabbro_rect,4,4.871,1,4,0,4,0,1,,,,,,,,,,,,,
6655e4f304ea91b8ecb46edc,SCR,2024-06-24_14h45.03.944,LearnStrategy,2023.2.3,Win32,59.52380952,3,1,6,0.406481481,-0.261111111,1,0,0,3.2808,Basalt_06,2,06,2,7,3.281,3,10,-0.183333333,-0.267592593,1,0,0,1.8073,Basalt_rect,2,1.807,1,5,0,5,0,1,,,,,,,,,,,,,
6655e4f304ea91b8ecb46edc,SCR,2024-06-24_14h45.03.944,LearnStrategy,2023.2.3,Win32,59.52380952,3,1,7,-0.4,-0.273148148,1,0,0,2.5326,Diorite_10,3,10,2,2,2.533,8,10,0.15,-0.391666667,1,0,0,5.2721,Peridotite_rect,7,5.272,0,6,0,6,0,1,,,,,,,,,,,,,
6655e4f304ea91b8ecb46edc,SCR,2024-06-24_14h45.03.944,LearnStrategy,2023.2.3,Win32,59.52380952,3,1,8,-0.253703704,0.260185185,1,0,0,8.1978,Gabbro_01,4,01,5,3,8.198,4,01,-0.103703704,-0.401851852,1,0,0,22.8895,Pegmatite_rect,6,22.889,0,7,0,7,0,1,,,,,,,,,,,,,
6655e4f304ea91b8ecb46edc,SCR,2024-06-24_14h45.03.944,LearnStrategy,2023.2.3,Win32,59.52380952,3,1,9,-0.587037037,-0.241666667,1,0,0,1.1314,Andesite_01,1,01,2,1,1.131,1,01,0.134259259,-0.25,1,0,0,8.2118,Diorite_rect,3,8.212,0,8,0,8,0,1,,,,,,,,,,,,,
6655e4f304ea91b8ecb46edc,SCR,2024-06-24_14h45.03.944,LearnStrategy,2023.2.3,Win32,59.52380952,3,1,10,-0.066666667,-0.106481481,1,0,0,0.7983,Diorite_14,3,14,3,4,0.798,3,14,-0.112037037,-0.388888889,1,0,0,4.3261,Pegmatite_rect,6,4.326,0,9,0,9,0,1,,,,,,,,,,,,,
6655e4f304ea91b8ecb46edc,SCR,2024-06-24_14h45.03.944,LearnStrategy,2023.2.3,Win32,59.52380952,3,1,11,-0.381481481,0.398148148,1,0,0,1.231,Peridotite_15,7,15,6,2,1.231,7,15,-0.087037037,-0.389814815,1,0,0,2.9266,Pegmatite_rect,6,2.927,0,10,0,10,0,1,,,,,,,,,,,,,
6655e4f304ea91b8ecb46edc,SCR,2024-06-24_14h45.03.944,LearnStrategy,2023.2.3,Win32,59.52380952,3,1,12,0.416666667,0.091666667,1,0,0,0.965,Pegmatite_08,6,08,4,7,0.965,6,08,0.148148148,-0.391666667,1,0,0,1.0778,Peridotite_rect,7,1.078,0,11,0,11,0,1,,,,,,,,,,,,,
6655e4f304ea91b8ecb46edc,SCR,2024-06-24_14h45.03.944,LearnStrategy,2023.2.3,Win32,59.52380952,3,1,13,-0.557407407,-0.106481481,1,0,0,1.2146,Gabbro_05,4,05,3,1,1.215,4,05,0.363888889,-0.240740741,1,0,0,2.0606,Gabbro_rect,4,2.061,1,12,0,12,0,1,,,,,,,,,,,,,
6655e4f304ea91b8ecb46edc,SCR,2024-06-24_14h45.03.944,LearnStrategy,2023.2.3,Win32,59.52380952,3,1,14,0.098148148,-0.108333333,1,0,0,0.9409,Pegmatite_13,6,13,3,5,0.941,6,13,0.088888889,-0.246296296,1,0,0,5.094,Diorite_rect,3,5.094,0,13,0,13,0,1,,,,,,,,,,,,,
6655e4f304ea91b8ecb46edc,SCR,2024-06-24_14h45.03.944,LearnStrategy,2023.2.3,Win32,59.52380952,3,1,15,0.414814815,-0.275,1,0,0,1.4813,Basalt_06,2,06,2,7,1.481,2,06,-0.131481481,-0.236111111,1,0,0,1.1276,Basalt_rect,2,1.128,1,14,0,14,0,1,,,,,,,,,,,,,
6655e4f304ea91b8ecb46edc,SCR,2024-06-24_14h45.03.944,LearnStrategy,2023.2.3,Win32,59.52380952,3,1,16,-0.563888889,-0.256481481,1,0,0,1.482,Andesite_01,1,01,2,1,1.482,1,01,0.123148148,-0.39537037,1,0,0,4.1603,Peridotite_rect,7,4.16,0,15,0,15,0,1,,,,,,,,,,,,,
6655e4f304ea91b8ecb46edc,SCR,2024-06-24_14h45.03.944,LearnStrategy,2023.2.3,Win32,59.52380952,3,2,1,,,,,,,,3,02,,,,,,,,,,,,,3,5.195,1,,,,,,0.162962963,-0.24537037,1,0,0,5.1946,Diorite_rect,0,0,0,0,1,
6655e4f304ea91b8ecb46edc,SCR,2024-06-24_14h45.03.944,LearnStrategy,2023.2.3,Win32,59.52380952,3,2,2,,,,,,,,7,16,,,,,,,,,,,,,3,5.195,0,,,,,,0.100925926,-0.25,1,0,0,5.195,Diorite_rect,1,0,1,0,1,
6655e4f304ea91b8ecb46edc,SCR,2024-06-24_14h45.03.944,LearnStrategy,2023.2.3,Win32,59.52380952,3,2,3,,,,,,,,4,09,,,,,,,,,,,,,1,8.62,0,,,,,,-0.421296296,-0.260185185,1,0,0,8.6201,Andesite_rect,2,0,2,0,1,
6655e4f304ea91b8ecb46edc,SCR,2024-06-24_14h45.03.944,LearnStrategy,2023.2.3,Win32,59.52380952,3,2,4,,,,,,,,8,02,,,,,,,,,,,,,8,1.341,1,,,,,,0.350925926,-0.401851852,1,0,0,1.3409,Pumice_rect,3,0,3,0,1,
6655e4f304ea91b8ecb46edc,SCR,2024-06-24_14h45.03.944,LearnStrategy,2023.2.3,Win32,59.52380952,3,2,5,,,,,,,,2,08,,,,,,,,,,,,,2,2.476,1,,,,,,-0.136111111,-0.250925926,1,0,0,2.4763,Basalt_rect,4,0,4,0,1,
6655e4f304ea91b8ecb46edc,SCR,2024-06-24_14h45.03.944,LearnStrategy,2023.2.3,Win32,59.52380952,3,2,6,,,,,,,,3,11,,,,,,,,,,,,,3,5.926,1,,,,,,0.149074074,-0.242592593,1,0,0,5.9262,Diorite_rect,5,0,5,0,1,
6655e4f304ea91b8ecb46edc,SCR,2024-06-24_14h45.03.944,LearnStrategy,2023.2.3,Win32,59.52380952,3,2,7,,,,,,,,1,16,,,,,,,,,,,,,6,2.243,0,,,,,,-0.097222222,-0.403703704,1,0,0,2.2426,Pegmatite_rect,6,0,6,0,1,
6655e4f304ea91b8ecb46edc,SCR,2024-06-24_14h45.03.944,LearnStrategy,2023.2.3,Win32,59.52380952,3,2,8,,,,,,,,8,15,,,,,,,,,,,,,8,2.238,1,,,,,,0.394444444,-0.4,1,0,0,2.2384,Pumice_rect,7,0,7,0,1,
6655e4f304ea91b8ecb46edc,SCR,2024-06-24_14h45.03.944,LearnStrategy,2023.2.3,Win32,59.52380952,3,2,9,,,,,,,,1,04,,,,,,,,,,,,,3,4.26,0,,,,,,0.152777778,-0.262037037,1,0,0,4.2597,Diorite_rect,8,0,8,0,1,
6655e4f304ea91b8ecb46edc,SCR,2024-06-24_14h45.03.944,LearnStrategy,2023.2.3,Win32,59.52380952,3,2,10,,,,,,,,5,08,,,,,,,,,,,,,5,1.125,1,,,,,,-0.364814815,-0.402777778,1,0,0,1.125,Obsidian_rect,9,0,9,0,1,
6655e4f304ea91b8ecb46edc,SCR,2024-06-24_14h45.03.944,LearnStrategy,2023.2.3,Win32,59.52380952,3,2,11,,,,,,,,7,12,,,,,,,,,,,,,3,2.941,0,,,,,,0.09537037,-0.255555556,1,0,0,2.9414,Diorite_rect,10,0,10,0,1,
6655e4f304ea91b8ecb46edc,SCR,2024-06-24_14h45.03.944,LearnStrategy,2023.2.3,Win32,59.52380952,3,2,12,,,,,,,,5,04,,,,,,,,,,,,,5,0.97,1,,,,,,-0.458333333,-0.398148148,1,0,0,0.9699,Obsidian_rect,11,0,11,0,1,
6655e4f304ea91b8ecb46edc,SCR,2024-06-24_14h45.03.944,LearnStrategy,2023.2.3,Win32,59.52380952,3,2,13,,,,,,,,6,07,,,,,,,,,,,,,7,2.459,0,,,,,,0.09537037,-0.401851852,1,0,0,2.4591,Peridotite_rect,12,0,12,0,1,
6655e4f304ea91b8ecb46edc,SCR,2024-06-24_14h45.03.944,LearnStrategy,2023.2.3,Win32,59.52380952,3,2,14,,,,,,,,2,11,,,,,,,,,,,,,8,2.495,0,,,,,,0.422222222,-0.406481481,1,0,0,2.4954,Pumice_rect,13,0,13,0,1,
6655e4f304ea91b8ecb46edc,SCR,2024-06-24_14h45.03.944,LearnStrategy,2023.2.3,Win32,59.52380952,3,2,15,,,,,,,,6,09,,,,,,,,,,,,,7,1.591,0,,,,,,0.110185185,-0.383333333,1,0,0,1.5915,Peridotite_rect,14,0,14,0,1,
6655e4f304ea91b8ecb46edc,SCR,2024-06-24_14h45.03.944,LearnStrategy,2023.2.3,Win32,59.52380952,3,2,16,,,,,,,,4,12,,,,,,,,,,,,,1,3.478,0,,,,,,-0.412037037,-0.266666667,1,0,0,3.4783,Andesite_rect,15,0,15,0,1,
6655e4f304ea91b8ecb46edc,SCR,2024-06-24_14h45.03.944,LearnStrategy,2023.2.3,Win32,59.52380952,4,1,1,0.24537037,0.098148148,1,0,0,1.1145,Peridotite_05,7,05,4,6,1.115,7,05,0.109259259,-0.382407407,1,0,0,2.2609,Peridotite_rect,7,2.261,1,0,0,0,0,1,,,,,,,,,,,,,
6655e4f304ea91b8ecb46edc,SCR,2024-06-24_14h45.03.944,LearnStrategy,2023.2.3,Win32,59.52380952,4,1,2,0.27962963,-0.102777778,1,0,0,1.0313,Diorite_06,3,06,3,6,1.031,3,06,-0.132407407,-0.400925926,1,0,0,2.3949,Pegmatite_rect,6,2.395,0,1,0,1,0,1,,,,,,,,,,,,,
6655e4f304ea91b8ecb46edc,SCR,2024-06-24_14h45.03.944,LearnStrategy,2023.2.3,Win32,59.52380952,4,1,3,-0.224074074,0.232407407,1,0,0,1.0307,Gabbro_01,4,01,5,3,1.031,4,01,0.049074074,-0.24537037,1,0,0,0.878,Diorite_rect,3,0.878,0,2,0,2,0,1,,,,,,,,,,,,,
6655e4f304ea91b8ecb46edc,SCR,2024-06-24_14h45.03.944,LearnStrategy,2023.2.3,Win32,59.52380952,4,1,4,-0.369444444,0.412962963,1,0,0,1.015,Peridotite_15,7,15,6,2,1.015,7,15,0.168518519,-0.244444444,1,0,0,1.3101,Diorite_rect,3,1.31,0,3,0,3,0,1,,,,,,,,,,,,,
6655e4f304ea91b8ecb46edc,SCR,2024-06-24_14h45.03.944,LearnStrategy,2023.2.3,Win32,59.52380952,4,1,5,0.422222222,0.087037037,1,0,0,1.2655,Pegmatite_08,6,08,4,7,1.265,6,08,0.101851852,-0.393518519,1,0,0,2.0935,Peridotite_rect,7,2.093,0,4,0,4,0,1,,,,,,,,,,,,,
6655e4f304ea91b8ecb46edc,SCR,2024-06-24_14h45.03.944,LearnStrategy,2023.2.3,Win32,59.52380952,4,1,6,-0.526851852,-0.091666667,1,0,0,1.1488,Gabbro_05,4,05,3,1,1.149,4,05,0.377777778,-0.240740741,1,0,0,1.6764,Gabbro_rect,4,1.676,1,5,0,5,0,1,,,,,,,,,,,,,
6655e4f304ea91b8ecb46edc,SCR,2024-06-24_14h45.03.944,LearnStrategy,2023.2.3,Win32,59.52380952,4,1,7,-0.534259259,0.380555556,1,0,0,1.5147,Andesite_14,1,14,6,1,1.515,1,14,0.141666667,-0.262037037,1,0,0,4.0274,Diorite_rect,3,4.027,0,6,0,6,0,1,,,,,,,,,,,,,
6655e4f304ea91b8ecb46edc,SCR,2024-06-24_14h45.03.944,LearnStrategy,2023.2.3,Win32,59.52380952,4,1,8,0.388888889,-0.086111111,1,0,0,1.0646,Peridotite_10,7,10,3,7,1.065,7,10,0.176851852,-0.250925926,1,0,0,3.5607,Diorite_rect,3,3.561,0,7,0,7,0,1,,,,,,,,,,,,,
6655e4f304ea91b8ecb46edc,SCR,2024-06-24_14h45.03.944,LearnStrategy,2023.2.3,Win32,59.52380952,4,1,9,0.207407407,-0.396296296,1,0,0,1.1981,Pegmatite_10,6,10,1,6,1.198,6,10,0.15,-0.387037037,1,0,0,0.5944,Peridotite_rect,7,0.594,0,8,0,8,0,1,,,,,,,,,,,,,
6655e4f304ea91b8ecb46edc,SCR,2024-06-24_14h45.03.944,LearnStrategy,2023.2.3,Win32,59.52380952,4,1,10,-0.071296296,0.411111111,1,0,0,1.7982,Basalt_10,2,10,6,4,1.798,2,10,-0.126851852,-0.253703704,1,0,0,2.9946,Basalt_rect,2,2.995,1,9,0,9,0,1,,,,,,,,,,,,,
6655e4f304ea91b8ecb46edc,SCR,2024-06-24_14h45.03.944,LearnStrategy,2023.2.3,Win32,59.52380952,4,1,11,0.591666667,0.409259259,1,0,0,0.9651,Diorite_16,3,16,6,8,0.965,3,16,0.192592593,-0.248148148,1,0,0,2.2272,Diorite_rect,3,2.227,1,10,0,10,0,1,,,,,,,,,,,,,
6655e4f304ea91b8ecb46edc,SCR,2024-06-24_14h45.03.944,LearnStrategy,2023.2.3,Win32,59.52380952,4,1,12,0.20462963,0.277777778,1,0,0,0.9756,Basalt_14,2,14,5,6,0.976,2,14,-0.37037037,-0.252777778,1,0,0,3.9278,Andesite_rect,1,3.928,0,11,0,11,0,1,,,,,,,,,,,,,
6655e4f304ea91b8ecb46edc,SCR,2024-06-24_14h45.03.944,LearnStrategy,2023.2.3,Win32,59.52380952,4,1,13,-0.587962963,-0.414814815,1,0,0,1.5648,Andesite_02,1,02,1,1,1.565,1,02,-0.369444444,-0.241666667,1,0,0,1.0108,Andesite_rect,1,1.011,1,12,0,12,0,1,,,,,,,,,,,,,
6655e4f304ea91b8ecb46edc,SCR,2024-06-24_14h45.03.944,LearnStrategy,2023.2.3,Win32,59.52380952,4,1,14,0.234259259,0.416666667,1,0,0,1.9647,Andesite_03,1,03,6,6,1.965,1,03,-0.376851852,-0.253703704,1,0,0,3.579,Andesite_rect,1,3.579,1,13,0,13,0,1,,,,,,,,,,,,,
6655e4f304ea91b8ecb46edc,SCR,2024-06-24_14h45.03.944,LearnStrategy,2023.2.3,Win32,59.52380952,4,1,15,0.567592593,-0.275925926,1,0,0,1.1474,Pumice_09,8,09,2,8,1.147,8,09,0.393518519,-0.386111111,1,0,0,0.7614,Pumice_rect,8,0.761,1,14,0,14,0,1,,,,,,,,,,,,,
6655e4f304ea91b8ecb46edc,SCR,2024-06-24_14h45.03.944,LearnStrategy,2023.2.3,Win32,59.52380952,4,1,16,0.126851852,-0.265740741,1,0,0,1.0486,Gabbro_10,4,10,2,5,1.049,4,10,0.436111111,-0.232407407,1,0,0,2.5586,Gabbro_rect,4,2.559,1,15,0,15,0,1,,,,,,,,,,,,,
6655e4f304ea91b8ecb46edc,SCR,2024-06-24_14h45.03.944,LearnStrategy,2023.2.3,Win32,59.52380952,4,2,1,,,,,,,,7,12,,,,,,,,,,,,,3,4.279,0,,,,,,0.122222222,-0.257407407,1,0,0,4.2787,Diorite_rect,0,0,0,0,1,
6655e4f304ea91b8ecb46edc,SCR,2024-06-24_14h45.03.944,LearnStrategy,2023.2.3,Win32,59.52380952,4,2,2,,,,,,,,3,12,,,,,,,,,,,,,3,2.871,1,,,,,,0.126851852,-0.237962963,1,0,0,2.8709,Diorite_rect,1,0,1,0,1,
6655e4f304ea91b8ecb46edc,SCR,2024-06-24_14h45.03.944,LearnStrategy,2023.2.3,Win32,59.52380952,4,2,3,,,,,,,,4,12,,,,,,,,,,,,,1,1.738,0,,,,,,-0.342592593,-0.248148148,1,0,0,1.738,Andesite_rect,2,0,2,0,1,
6655e4f304ea91b8ecb46edc,SCR,2024-06-24_14h45.03.944,LearnStrategy,2023.2.3,Win32,59.52380952,4,2,4,,,,,,,,5,09,,,,,,,,,,,,,5,2.377,1,,,,,,-0.384259259,-0.402777778,1,0,0,2.3774,Obsidian_rect,3,0,3,0,1,
6655e4f304ea91b8ecb46edc,SCR,2024-06-24_14h45.03.944,LearnStrategy,2023.2.3,Win32,59.52380952,4,2,5,,,,,,,,8,03,,,,,,,,,,,,,8,1.206,1,,,,,,0.332407407,-0.4,1,0,0,1.2058,Pumice_rect,4,0,4,0,1,
6655e4f304ea91b8ecb46edc,SCR,2024-06-24_14h45.03.944,LearnStrategy,2023.2.3,Win32,59.52380952,4,2,6,,,,,,,,2,02,,,,,,,,,,,,,2,0.962,1,,,,,,-0.176851852,-0.243518519,1,0,0,0.9621,Basalt_rect,5,0,5,0,1,
6655e4f304ea91b8ecb46edc,SCR,2024-06-24_14h45.03.944,LearnStrategy,2023.2.3,Win32,59.52380952,4,2,7,,,,,,,,3,07,,,,,,,,,,,,,7,3.111,0,,,,,,0.087037037,-0.399074074,1,0,0,3.1105,Peridotite_rect,6,0,6,0,1,
6655e4f304ea91b8ecb46edc,SCR,2024-06-24_14h45.03.944,LearnStrategy,2023.2.3,Win32,59.52380952,4,2,8,,,,,,,,4,09,,,,,,,,,,,,,4,3.49,1,,,,,,0.411111111,-0.240740741,1,0,0,3.4904,Gabbro_rect,7,0,7,0,1,
6655e4f304ea91b8ecb46edc,SCR,2024-06-24_14h45.03.944,LearnStrategy,2023.2.3,Win32,59.52380952,4,2,9,,,,,,,,2,11,,,,,,,,,,,,,1,6.555,0,,,,,,-0.375925926,-0.25462963,1,0,0,6.5547,Andesite_rect,8,0,8,0,1,
6655e4f304ea91b8ecb46edc,SCR,2024-06-24_14h45.03.944,LearnStrategy,2023.2.3,Win32,59.52380952,4,2,10,,,,,,,,5,06,,,,,,,,,,,,,5,1.578,1,,,,,,-0.42037037,-0.403703704,1,0,0,1.5782,Obsidian_rect,9,0,9,0,1,
6655e4f304ea91b8ecb46edc,SCR,2024-06-24_14h45.03.944,LearnStrategy,2023.2.3,Win32,59.52380952,4,2,11,,,,,,,,1,10,,,,,,,,,,,,,1,2.007,1,,,,,,-0.359259259,-0.250925926,1,0,0,2.0072,Andesite_rect,10,0,10,0,1,
6655e4f304ea91b8ecb46edc,SCR,2024-06-24_14h45.03.944,LearnStrategy,2023.2.3,Win32,59.52380952,4,2,12,,,,,,,,8,02,,,,,,,,,,,,,8,2.176,1,,,,,,0.392592593,-0.407407407,1,0,0,2.1762,Pumice_rect,11,0,11,0,1,
6655e4f304ea91b8ecb46edc,SCR,2024-06-24_14h45.03.944,LearnStrategy,2023.2.3,Win32,59.52380952,4,2,13,,,,,,,,6,07,,,,,,,,,,,,,6,2.379,1,,,,,,-0.112962963,-0.403703704,1,0,0,2.3793,Pegmatite_rect,12,0,12,0,1,
6655e4f304ea91b8ecb46edc,SCR,2024-06-24_14h45.03.944,LearnStrategy,2023.2.3,Win32,59.52380952,4,2,14,,,,,,,,6,05,,,,,,,,,,,,,6,0.919,1,,,,,,-0.125925926,-0.407407407,1,0,0,0.9194,Pegmatite_rect,13,0,13,0,1,
6655e4f304ea91b8ecb46edc,SCR,2024-06-24_14h45.03.944,LearnStrategy,2023.2.3,Win32,59.52380952,4,2,15,,,,,,,,1,16,,,,,,,,,,,,,4,4.546,0,,,,,,0.381481481,-0.237962963,1,0,0,4.546,Gabbro_rect,14,0,14,0,1,
6655e4f304ea91b8ecb46edc,SCR,2024-06-24_14h45.03.944,LearnStrategy,2023.2.3,Win32,59.52380952,4,2,16,,,,,,,,7,04,,,,,,,,,,,,,3,3.456,0,,,,,,0.126851852,-0.253703704,1,0,0,3.4557,Diorite_rect,15,0,15,0,1,
6655e4f304ea91b8ecb46edc,SCR,2024-06-24_14h45.03.944,LearnStrategy,2023.2.3,Win32,59.52380952,5,1,1,0.040740741,0.405555556,1,0,0,1.4311,Pegmatite_12,6,12,6,5,1.431,6,12,0.113888889,-0.252777778,1,0,0,2.2442,Diorite_rect,3,2.244,0,0,0,0,0,1,,,,,,,,,,,,,
6655e4f304ea91b8ecb46edc,SCR,2024-06-24_14h45.03.944,LearnStrategy,2023.2.3,Win32,59.52380952,5,1,2,0.050925926,0.125,1,0,0,1.5806,Andesite_09,1,09,4,5,1.581,1,09,-0.136111111,-0.238888889,1,0,0,2.4612,Basalt_rect,2,2.461,0,1,0,1,0,1,,,,,,,,,,,,,
6655e4f304ea91b8ecb46edc,SCR,2024-06-24_14h45.03.944,LearnStrategy,2023.2.3,Win32,59.52380952,5,1,3,-0.065740741,-0.10462963,1,0,0,1.1813,Diorite_14,3,14,3,4,1.181,3,14,0.164814815,-0.261111111,1,0,0,1.193,Diorite_rect,3,1.193,1,2,0,2,0,1,,,,,,,,,,,,,
6655e4f304ea91b8ecb46edc,SCR,2024-06-24_14h45.03.944,LearnStrategy,2023.2.3,Win32,59.52380952,5,1,4,0.389814815,-0.387962963,1,0,0,1.0484,Andesite_05,1,05,1,7,1.048,1,05,-0.096296296,-0.419444444,1,0,0,1.8284,Pegmatite_rect,6,1.828,0,3,0,3,0,1,,,,,,,,,,,,,
6655e4f304ea91b8ecb46edc,SCR,2024-06-24_14h45.03.944,LearnStrategy,2023.2.3,Win32,59.52380952,5,1,5,-0.069444444,-0.114814815,1,0,0,0.8486,Diorite_14,3,14,3,4,0.849,3,14,0.084259259,-0.233333333,1,0,0,1.2949,Diorite_rect,3,1.295,1,4,0,4,0,1,,,,,,,,,,,,,
6655e4f304ea91b8ecb46edc,SCR,2024-06-24_14h45.03.944,LearnStrategy,2023.2.3,Win32,59.52380952,5,1,6,-0.219444444,0.238888889,1,0,0,0.7976,Gabbro_01,4,01,5,3,0.798,4,01,-0.086111111,-0.406481481,1,0,0,1.7774,Pegmatite_rect,6,1.777,0,5,0,5,0,1,,,,,,,,,,,,,
6655e4f304ea91b8ecb46edc,SCR,2024-06-24_14h45.03.944,LearnStrategy,2023.2.3,Win32,59.52380952,5,1,7,-0.523148148,0.40462963,1,0,0,1.4315,Andesite_14,1,14,6,1,1.431,1,14,0.366666667,-0.234259259,1,0,0,1.0778,Gabbro_rect,4,1.078,0,6,0,6,0,1,,,,,,,,,,,,,
6655e4f304ea91b8ecb46edc,SCR,2024-06-24_14h45.03.944,LearnStrategy,2023.2.3,Win32,59.52380952,5,1,8,-0.075925926,-0.394444444,1,0,0,1.216,Peridotite_13,7,13,1,4,1.216,7,13,0.138888889,-0.398148148,1,0,0,1.8113,Peridotite_rect,7,1.811,1,7,0,7,0,1,,,,,,,,,,,,,
6655e4f304ea91b8ecb46edc,SCR,2024-06-24_14h45.03.944,LearnStrategy,2023.2.3,Win32,59.52380952,5,1,9,0.440740741,0.078703704,1,0,0,1.0643,Pegmatite_08,6,08,4,7,1.064,6,08,-0.061111111,-0.419444444,1,0,0,2.4951,Pegmatite_rect,6,2.495,1,8,0,8,0,1,,,,,,,,,,,,,
6655e4f304ea91b8ecb46edc,SCR,2024-06-24_14h45.03.944,LearnStrategy,2023.2.3,Win32,59.52380952,5,1,10,-0.189814815,-0.234259259,1,0,0,1.0152,Peridotite_08,7,08,2,3,1.015,7,08,0.12962963,-0.397222222,1,0,0,1.7428,Peridotite_rect,7,1.743,1,9,0,9,0,1,,,,,,,,,,,,,
6655e4f304ea91b8ecb46edc,SCR,2024-06-24_14h45.03.944,LearnStrategy,2023.2.3,Win32,59.52380952,5,1,11,0.537037037,-0.082407407,1,0,0,1.1652,Gabbro_15,4,15,3,8,1.165,4,15,0.34537037,-0.258333333,1,0,0,1.878,Gabbro_rect,4,1.878,1,10,0,10,0,1,,,,,,,,,,,,,
6655e4f304ea91b8ecb46edc,SCR,2024-06-24_14h45.03.944,LearnStrategy,2023.2.3,Win32,59.52380952,5,1,12,-0.253703704,-0.264814815,1,0,0,0.9823,Peridotite_08,7,08,2,3,0.982,7,08,-0.099074074,-0.405555556,1,0,0,3.3604,Pegmatite_rect,6,3.36,0,11,0,11,0,1,,,,,,,,,,,,,
6655e4f304ea91b8ecb46edc,SCR,2024-06-24_14h45.03.944,LearnStrategy,2023.2.3,Win32,59.52380952,5,1,13,0.373148148,-0.250925926,1,0,0,1.4145,Basalt_06,2,06,2,7,1.414,2,06,-0.102777778,-0.255555556,1,0,0,1.0614,Basalt_rect,2,1.061,1,12,0,12,0,1,,,,,,,,,,,,,
6655e4f304ea91b8ecb46edc,SCR,2024-06-24_14h45.03.944,LearnStrategy,2023.2.3,Win32,59.52380952,5,1,14,-0.560185185,-0.107407407,1,0,0,146.5159,Gabbro_05,4,05,3,1,146.516,4,05,0.374074074,-0.247222222,1,0,0,1.5889,Gabbro_rect,4,1.589,1,13,0,13,0,1,,,,,,,,,,,,,
6655e4f304ea91b8ecb46edc,SCR,2024-06-24_14h45.03.944,LearnStrategy,2023.2.3,Win32,59.52380952,5,1,15,0.251851852,0.246296296,1,0,0,1.0983,Basalt_14,2,14,5,6,1.098,2,14,0.373148148,-0.262962963,1,0,0,7.7098,Gabbro_rect,4,7.71,0,14,0,14,0,1,,,,,,,,,,,,,
6655e4f304ea91b8ecb46edc,SCR,2024-06-24_14h45.03.944,LearnStrategy,2023.2.3,Win32,59.52380952,5,1,16,-0.397222222,-0.07037037,1,0,0,0.8968,Peridotite_07,7,07,3,2,0.897,7,07,-0.089814815,-0.402777778,1,0,0,4.2935,Pegmatite_rect,6,4.293,0,15,0,15,0,1,,,,,,,,,,,,,
6655e4f304ea91b8ecb46edc,SCR,2024-06-24_14h45.03.944,LearnStrategy,2023.2.3,Win32,59.52380952,5,2,1,,,,,,,,8,05,,,,,,,,,,,,,8,2.296,1,,,,,,0.411111111,-0.418518519,1,0,0,2.2959,Pumice_rect,0,0,0,0,1,
6655e4f304ea91b8ecb46edc,SCR,2024-06-24_14h45.03.944,LearnStrategy,2023.2.3,Win32,59.52380952,5,2,2,,,,,,,,6,15,,,,,,,,,,,,,6,8.657,1,,,,,,-0.083333333,-0.403703704,1,0,0,8.6567,Pegmatite_rect,1,0,1,0,1,
6655e4f304ea91b8ecb46edc,SCR,2024-06-24_14h45.03.944,LearnStrategy,2023.2.3,Win32,59.52380952,5,2,3,,,,,,,,5,11,,,,,,,,,,,,,5,1.312,1,,,,,,-0.436111111,-0.399074074,1,0,0,1.3124,Obsidian_rect,2,0,2,0,1,
6655e4f304ea91b8ecb46edc,SCR,2024-06-24_14h45.03.944,LearnStrategy,2023.2.3,Win32,59.52380952,5,2,4,,,,,,,,8,15,,,,,,,,,,,,,8,6.06,1,,,,,,0.389814815,-0.408333333,1,0,0,6.0602,Pumice_rect,3,0,3,0,1,
6655e4f304ea91b8ecb46edc,SCR,2024-06-24_14h45.03.944,LearnStrategy,2023.2.3,Win32,59.52380952,5,2,5,,,,,,,,6,09,,,,,,,,,,,,,6,3.802,1,,,,,,-0.088888889,-0.394444444,1,0,0,3.8019,Pegmatite_rect,4,0,4,0,1,
6655e4f304ea91b8ecb46edc,SCR,2024-06-24_14h45.03.944,LearnStrategy,2023.2.3,Win32,59.52380952,5,2,6,,,,,,,,3,15,,,,,,,,,,,,,3,8.474,1,,,,,,0.158333333,-0.257407407,1,0,0,8.4741,Diorite_rect,5,0,5,0,1,
6655e4f304ea91b8ecb46edc,SCR,2024-06-24_14h45.03.944,LearnStrategy,2023.2.3,Win32,59.52380952,5,2,7,,,,,,,,4,14,,,,,,,,,,,,,4,10.518,1,,,,,,0.381481481,-0.252777778,1,0,0,10.5183,Gabbro_rect,6,0,6,0,1,
6655e4f304ea91b8ecb46edc,SCR,2024-06-24_14h45.03.944,LearnStrategy,2023.2.3,Win32,59.52380952,5,2,8,,,,,,,,2,16,,,,,,,,,,,,,4,13.607,0,,,,,,0.376851852,-0.251851852,1,0,0,13.6066,Gabbro_rect,7,0,7,0,1,
6655e4f304ea91b8ecb46edc,SCR,2024-06-24_14h45.03.944,LearnStrategy,2023.2.3,Win32,59.52380952,5,2,9,,,,,,,,5,08,,,,,,,,,,,,,5,2.645,1,,,,,,-0.385185185,-0.399074074,1,0,0,2.6452,Obsidian_rect,8,0,8,0,1,
6655e4f304ea91b8ecb46edc,SCR,2024-06-24_14h45.03.944,LearnStrategy,2023.2.3,Win32,59.52380952,5,2,10,,,,,,,,7,16,,,,,,,,,,,,,7,9.929,1,,,,,,0.110185185,-0.402777778,1,0,0,9.9289,Peridotite_rect,9,0,9,0,1,
6655e4f304ea91b8ecb46edc,SCR,2024-06-24_14h45.03.944,LearnStrategy,2023.2.3,Win32,59.52380952,5,2,11,,,,,,,,4,11,,,,,,,,,,,,,7,7.191,0,,,,,,0.117592593,-0.406481481,1,0,0,7.1915,Peridotite_rect,10,0,10,0,1,
6655e4f304ea91b8ecb46edc,SCR,2024-06-24_14h45.03.944,LearnStrategy,2023.2.3,Win32,59.52380952,5,2,12,,,,,,,,3,13,,,,,,,,,,,,,3,2.204,1,,,,,,0.130555556,-0.240740741,1,0,0,2.2044,Diorite_rect,11,0,11,0,1,
6655e4f304ea91b8ecb46edc,SCR,2024-06-24_14h45.03.944,LearnStrategy,2023.2.3,Win32,59.52380952,5,2,13,,,,,,,,7,02,,,,,,,,,,,,,3,2.293,0,,,,,,0.130555556,-0.240740741,1,0,0,2.2927,Diorite_rect,12,0,12,0,1,
6655e4f304ea91b8ecb46edc,SCR,2024-06-24_14h45.03.944,LearnStrategy,2023.2.3,Win32,59.52380952,5,2,14,,,,,,,,2,01,,,,,,,,,,,,,2,1.076,1,,,,,,-0.121296296,-0.261111111,1,0,0,1.0757,Basalt_rect,13,0,13,0,1,
6655e4f304ea91b8ecb46edc,SCR,2024-06-24_14h45.03.944,LearnStrategy,2023.2.3,Win32,59.52380952,5,2,15,,,,,,,,1,06,,,,,,,,,,,,,1,1.276,1,,,,,,-0.342592593,-0.251851852,1,0,0,1.2761,Andesite_rect,14,0,14,0,1,
6655e4f304ea91b8ecb46edc,SCR,2024-06-24_14h45.03.944,LearnStrategy,2023.2.3,Win32,59.52380952,5,2,16,,,,,,,,1,04,,,,,,,,,,,,,1,1.009,1,,,,,,-0.344444444,-0.244444444,1,0,0,1.009,Andesite_rect,15,0,15,0,1,
6655e4f304ea91b8ecb46edc,SCR,2024-06-24_14h45.03.944,LearnStrategy,2023.2.3,Win32,59.52380952,6,1,1,0.407407407,-0.242592593,1,0,0,1.0483,Basalt_06,2,06,2,7,1.048,2,06,-0.09537037,-0.237962963,1,0,0,1.7277,Basalt_rect,2,1.728,1,0,0,0,0,1,,,,,,,,,,,,,
6655e4f304ea91b8ecb46edc,SCR,2024-06-24_14h45.03.944,LearnStrategy,2023.2.3,Win32,59.52380952,6,1,2,-0.376851852,-0.422222222,1,0,0,1.2985,Obsidian_10,5,10,1,2,1.299,5,10,-0.381481481,-0.399074074,1,0,0,0.6778,Obsidian_rect,5,0.678,1,1,0,1,0,1,,,,,,,,,,,,,
6655e4f304ea91b8ecb46edc,SCR,2024-06-24_14h45.03.944,LearnStrategy,2023.2.3,Win32,59.52380952,6,1,3,0.202777778,0.090740741,1,0,0,0.8818,Peridotite_05,7,05,4,6,0.882,7,05,0.105555556,-0.405555556,1,0,0,4.7614,Peridotite_rect,7,4.761,1,2,0,2,0,1,,,,,,,,,,,,,
6655e4f304ea91b8ecb46edc,SCR,2024-06-24_14h45.03.944,LearnStrategy,2023.2.3,Win32,59.52380952,6,1,4,0.541666667,0.113888889,1,0,0,1.0478,Diorite_09,3,09,4,8,1.048,3,09,0.131481481,-0.25,1,0,0,1.2115,Diorite_rect,3,1.211,1,3,0,3,0,1,,,,,,,,,,,,,
6655e4f304ea91b8ecb46edc,SCR,2024-06-24_14h45.03.944,LearnStrategy,2023.2.3,Win32,59.52380952,6,1,5,-0.358333333,0.236111111,1,0,0,1.8653,Basalt_09,2,09,5,2,1.865,2,09,-0.137962963,-0.246296296,1,0,0,1.477,Basalt_rect,2,1.477,1,4,0,4,0,1,,,,,,,,,,,,,
6655e4f304ea91b8ecb46edc,SCR,2024-06-24_14h45.03.944,LearnStrategy,2023.2.3,Win32,59.52380952,6,1,6,-0.266666667,0.248148148,1,0,0,1.2484,Gabbro_01,4,01,5,3,1.248,4,01,0.138888889,-0.247222222,1,0,0,1.428,Diorite_rect,3,1.428,0,5,0,5,0,1,,,,,,,,,,,,,
6655e4f304ea91b8ecb46edc,SCR,2024-06-24_14h45.03.944,LearnStrategy,2023.2.3,Win32,59.52380952,6,1,7,0.516666667,-0.136111111,1,0,0,1.2651,Gabbro_15,4,15,3,8,1.265,4,15,0.121296296,-0.406481481,1,0,0,3.2617,Peridotite_rect,7,3.262,0,6,0,6,0,1,,,,,,,,,,,,,
6655e4f304ea91b8ecb46edc,SCR,2024-06-24_14h45.03.944,LearnStrategy,2023.2.3,Win32,59.52380952,6,1,8,0.253703704,0.373148148,1,0,0,1.1148,Andesite_03,1,03,6,6,1.115,1,03,-0.360185185,-0.237962963,1,0,0,1.2263,Andesite_rect,1,1.226,1,7,0,7,0,1,,,,,,,,,,,,,
6655e4f304ea91b8ecb46edc,SCR,2024-06-24_14h45.03.944,LearnStrategy,2023.2.3,Win32,59.52380952,6,1,9,0.24537037,-0.269444444,1,0,0,1.1991,Diorite_08,3,08,2,6,1.199,3,08,0.130555556,-0.246296296,1,0,0,1.8209,Diorite_rect,3,1.821,1,8,0,8,0,1,,,,,,,,,,,,,
6655e4f304ea91b8ecb46edc,SCR,2024-06-24_14h45.03.944,LearnStrategy,2023.2.3,Win32,59.52380952,6,1,10,-0.388888889,-0.091666667,1,0,0,1.0653,Peridotite_07,7,07,3,2,1.065,7,07,0.118518519,-0.399074074,1,0,0,3.2111,Peridotite_rect,7,3.211,1,9,0,9,0,1,,,,,,,,,,,,,
6655e4f304ea91b8ecb46edc,SCR,2024-06-24_14h45.03.944,LearnStrategy,2023.2.3,Win32,59.52380952,6,1,11,0.515740741,0.235185185,1,0,0,1.0474,Pegmatite_16,6,16,5,8,1.047,6,16,-0.091666667,-0.416666667,1,0,0,1.1119,Pegmatite_rect,6,1.112,1,10,0,10,0,1,,,,,,,,,,,,,
6655e4f304ea91b8ecb46edc,SCR,2024-06-24_14h45.03.944,LearnStrategy,2023.2.3,Win32,59.52380952,6,1,12,-0.514814815,-0.402777778,1,0,0,1.3822,Andesite_02,1,02,1,1,1.382,1,02,-0.350925926,-0.253703704,1,0,0,1.4608,Andesite_rect,1,1.461,1,11,0,11,0,1,,,,,,,,,,,,,
6655e4f304ea91b8ecb46edc,SCR,2024-06-24_14h45.03.944,LearnStrategy,2023.2.3,Win32,59.52380952,6,1,13,0.184259259,0.088888889,1,0,0,1.0153,Peridotite_05,7,05,4,6,1.015,7,05,0.15,-0.393518519,1,0,0,1.7279,Peridotite_rect,7,1.728,1,12,0,12,0,1,,,,,,,,,,,,,
6655e4f304ea91b8ecb46edc,SCR,2024-06-24_14h45.03.944,LearnStrategy,2023.2.3,Win32,59.52380952,6,1,14,-0.278703704,0.261111111,1,0,0,1.0157,Gabbro_01,4,01,5,3,1.016,4,01,0.380555556,-0.236111111,1,0,0,2.0938,Gabbro_rect,4,2.094,1,13,0,13,0,1,,,,,,,,,,,,,
6655e4f304ea91b8ecb46edc,SCR,2024-06-24_14h45.03.944,LearnStrategy,2023.2.3,Win32,59.52380952,6,1,15,-0.035185185,-0.407407407,1,0,0,1.4312,Peridotite_13,7,13,1,4,1.431,7,13,-0.118518519,-0.399074074,1,0,0,4.7617,Pegmatite_rect,6,4.762,0,14,0,14,0,1,,,,,,,,,,,,,
6655e4f304ea91b8ecb46edc,SCR,2024-06-24_14h45.03.944,LearnStrategy,2023.2.3,Win32,59.52380952,6,1,16,0.566666667,-0.422222222,1,0,0,1.3977,Pumice_06,8,06,1,8,1.398,8,06,0.39537037,-0.405555556,1,0,0,1.7767,Pumice_rect,8,1.777,1,15,0,15,0,1,,,,,,,,,,,,,
6655e4f304ea91b8ecb46edc,SCR,2024-06-24_14h45.03.944,LearnStrategy,2023.2.3,Win32,59.52380952,6,2,1,,,,,,,,1,11,,,,,,,,,,,,,1,1.493,1,,,,,,-0.376851852,-0.240740741,1,0,0,1.4928,Andesite_rect,0,0,0,0,1,
6655e4f304ea91b8ecb46edc,SCR,2024-06-24_14h45.03.944,LearnStrategy,2023.2.3,Win32,59.52380952,6,2,2,,,,,,,,7,14,,,,,,,,,,,,,7,7.879,1,,,,,,0.125925926,-0.4,1,0,0,7.8786,Peridotite_rect,1,0,1,0,1,
6655e4f304ea91b8ecb46edc,SCR,2024-06-24_14h45.03.944,LearnStrategy,2023.2.3,Win32,59.52380952,6,2,3,,,,,,,,2,04,,,,,,,,,,,,,2,2.709,1,,,,,,-0.125,-0.24537037,1,0,0,2.7095,Basalt_rect,2,0,2,0,1,
6655e4f304ea91b8ecb46edc,SCR,2024-06-24_14h45.03.944,LearnStrategy,2023.2.3,Win32,59.52380952,6,2,4,,,,,,,,1,07,,,,,,,,,,,,,3,5.188,0,,,,,,0.100925926,-0.25,1,0,0,5.1879,Diorite_rect,3,0,3,0,1,
6655e4f304ea91b8ecb46edc,SCR,2024-06-24_14h45.03.944,LearnStrategy,2023.2.3,Win32,59.52380952,6,2,5,,,,,,,,2,08,,,,,,,,,,,,,2,3.076,1,,,,,,-0.107407407,-0.244444444,1,0,0,3.0761,Basalt_rect,4,0,4,0,1,
6655e4f304ea91b8ecb46edc,SCR,2024-06-24_14h45.03.944,LearnStrategy,2023.2.3,Win32,59.52380952,6,2,6,,,,,,,,6,03,,,,,,,,,,,,,6,2.019,1,,,,,,-0.126851852,-0.401851852,1,0,0,2.0186,Pegmatite_rect,5,0,5,0,1,
6655e4f304ea91b8ecb46edc,SCR,2024-06-24_14h45.03.944,LearnStrategy,2023.2.3,Win32,59.52380952,6,2,7,,,,,,,,5,02,,,,,,,,,,,,,5,1.192,1,,,,,,-0.37037037,-0.385185185,1,0,0,1.1922,Obsidian_rect,6,0,6,0,1,
6655e4f304ea91b8ecb46edc,SCR,2024-06-24_14h45.03.944,LearnStrategy,2023.2.3,Win32,59.52380952,6,2,8,,,,,,,,7,06,,,,,,,,,,,,,6,3.243,0,,,,,,-0.111111111,-0.402777778,1,0,0,3.2426,Pegmatite_rect,7,0,7,0,1,
6655e4f304ea91b8ecb46edc,SCR,2024-06-24_14h45.03.944,LearnStrategy,2023.2.3,Win32,59.52380952,6,2,9,,,,,,,,3,02,,,,,,,,,,,,,3,1.587,1,,,,,,0.099074074,-0.249074074,1,0,0,1.587,Diorite_rect,8,0,8,0,1,
6655e4f304ea91b8ecb46edc,SCR,2024-06-24_14h45.03.944,LearnStrategy,2023.2.3,Win32,59.52380952,6,2,10,,,,,,,,6,11,,,,,,,,,,,,,6,4.961,1,,,,,,-0.086111111,-0.4,1,0,0,4.9613,Pegmatite_rect,9,0,9,0,1,
6655e4f304ea91b8ecb46edc,SCR,2024-06-24_14h45.03.944,LearnStrategy,2023.2.3,Win32,59.52380952,6,2,11,,,,,,,,8,04,,,,,,,,,,,,,8,1.07,1,,,,,,0.414814815,-0.383333333,1,0,0,1.0697,Pumice_rect,10,0,10,0,1,
6655e4f304ea91b8ecb46edc,SCR,2024-06-24_14h45.03.944,LearnStrategy,2023.2.3,Win32,59.52380952,6,2,12,,,,,,,,4,13,,,,,,,,,,,,,4,2.645,1,,,,,,0.366666667,-0.237962963,1,0,0,2.6451,Gabbro_rect,11,0,11,0,1,
6655e4f304ea91b8ecb46edc,SCR,2024-06-24_14h45.03.944,LearnStrategy,2023.2.3,Win32,59.52380952,6,2,13,,,,,,,,8,14,,,,,,,,,,,,,8,1.253,1,,,,,,0.396296296,-0.398148148,1,0,0,1.2532,Pumice_rect,12,0,12,0,1,
6655e4f304ea91b8ecb46edc,SCR,2024-06-24_14h45.03.944,LearnStrategy,2023.2.3,Win32,59.52380952,6,2,14,,,,,,,,5,04,,,,,,,,,,,,,5,1.193,1,,,,,,-0.44537037,-0.4,1,0,0,1.1934,Obsidian_rect,13,0,13,0,1,
6655e4f304ea91b8ecb46edc,SCR,2024-06-24_14h45.03.944,LearnStrategy,2023.2.3,Win32,59.52380952,6,2,15,,,,,,,,4,08,,,,,,,,,,,,,4,4.528,1,,,,,,0.373148148,-0.250925926,1,0,0,4.5276,Gabbro_rect,14,0,14,0,1,
6655e4f304ea91b8ecb46edc,SCR,2024-06-24_14h45.03.944,LearnStrategy,2023.2.3,Win32,59.52380952,6,2,16,,,,,,,,3,11,,,,,,,,,,,,,3,5.054,1,,,,,,0.144444444,-0.253703704,1,0,0,5.0538,Diorite_rect,15,0,15,0,1,
6655e4f304ea91b8ecb46edc,SCR,2024-06-24_14h45.03.944,LearnStrategy,2023.2.3,Win32,59.52380952,7,1,1,-0.092592593,-0.096296296,1,0,0,0.9823,Diorite_14,3,14,3,4,0.982,3,14,0.112037037,-0.246296296,1,0,0,1.56,Diorite_rect,3,1.56,1,0,0,0,0,1,,,,,,,,,,,,,
6655e4f304ea91b8ecb46edc,SCR,2024-06-24_14h45.03.944,LearnStrategy,2023.2.3,Win32,59.52380952,7,1,2,0.588888889,-0.10462963,1,0,0,0.8652,Gabbro_15,4,15,3,8,0.865,4,15,0.375,-0.243518519,1,0,0,3.3456,Gabbro_rect,4,3.346,1,1,0,1,0,1,,,,,,,,,,,,,
6655e4f304ea91b8ecb46edc,SCR,2024-06-24_14h45.03.944,LearnStrategy,2023.2.3,Win32,59.52380952,7,1,3,-0.425,-0.275,1,0,0,1.0478,Diorite_10,3,10,2,2,1.048,3,10,-0.362962963,-0.255555556,1,0,0,2.3106,Andesite_rect,1,2.311,0,2,0,2,0,1,,,,,,,,,,,,,
6655e4f304ea91b8ecb46edc,SCR,2024-06-24_14h45.03.944,LearnStrategy,2023.2.3,Win32,59.52380952,7,1,4,-0.401851852,0.436111111,1,0,0,1.6485,Peridotite_15,7,15,6,2,1.649,7,15,-0.09537037,-0.397222222,1,0,0,1.71,Pegmatite_rect,6,1.71,0,3,0,3,0,1,,,,,,,,,,,,,
6655e4f304ea91b8ecb46edc,SCR,2024-06-24_14h45.03.944,LearnStrategy,2023.2.3,Win32,59.52380952,7,1,5,0.385185185,-0.091666667,1,0,0,1.0491,Peridotite_10,7,10,3,7,1.049,7,10,0.111111111,-0.398148148,1,0,0,2.0111,Peridotite_rect,7,2.011,1,4,0,4,0,1,,,,,,,,,,,,,
6655e4f304ea91b8ecb46edc,SCR,2024-06-24_14h45.03.944,LearnStrategy,2023.2.3,Win32,59.52380952,7,1,6,-0.224074074,-0.128703704,1,0,0,0.9317,Obsidian_05,5,05,3,3,0.932,5,05,-0.349074074,-0.398148148,1,0,0,2.1094,Obsidian_rect,5,2.109,1,5,0,5,0,1,,,,,,,,,,,,,
6655e4f304ea91b8ecb46edc,SCR,2024-06-24_14h45.03.944,LearnStrategy,2023.2.3,Win32,59.52380952,7,1,7,0.582407407,-0.119444444,1,0,0,1.1148,Gabbro_15,4,15,3,8,1.115,4,15,0.412037037,-0.251851852,1,0,0,1.3638,Gabbro_rect,4,1.364,1,6,0,6,0,1,,,,,,,,,,,,,
6655e4f304ea91b8ecb46edc,SCR,2024-06-24_14h45.03.944,LearnStrategy,2023.2.3,Win32,59.52380952,7,1,8,0.100925926,0.087037037,1,0,0,0.7818,Andesite_09,1,09,4,5,0.782,1,09,-0.338888889,-0.258333333,1,0,0,1.9112,Andesite_rect,1,1.911,1,7,0,7,0,1,,,,,,,,,,,,,
6655e4f304ea91b8ecb46edc,SCR,2024-06-24_14h45.03.944,LearnStrategy,2023.2.3,Win32,59.52380952,7,1,9,0.244444444,0.263888889,1,0,0,15.8157,Basalt_14,2,14,5,6,15.816,2,14,-0.101851852,-0.248148148,1,0,0,14.3216,Basalt_rect,2,14.322,1,8,0,8,0,1,,,,,,,,,,,,,
6655e4f304ea91b8ecb46edc,SCR,2024-06-24_14h45.03.944,LearnStrategy,2023.2.3,Win32,59.52380952,7,1,10,-0.371296296,-0.126851852,1,0,0,1.1479,Peridotite_07,7,07,3,2,1.148,7,07,0.131481481,-0.384259259,1,0,0,6.8043,Peridotite_rect,7,6.804,1,9,0,9,0,1,,,,,,,,,,,,,
6655e4f304ea91b8ecb46edc,SCR,2024-06-24_14h45.03.944,LearnStrategy,2023.2.3,Win32,59.52380952,7,1,11,-0.184259259,0.084259259,1,0,0,0.9309,Pumice_13,8,13,4,3,0.931,8,13,0.424074074,-0.414814815,1,0,0,1.0072,Pumice_rect,8,1.007,1,10,0,10,0,1,,,,,,,,,,,,,
6655e4f304ea91b8ecb46edc,SCR,2024-06-24_14h45.03.944,LearnStrategy,2023.2.3,Win32,59.52380952,7,1,12,0.040740741,0.097222222,1,0,0,0.8155,Andesite_09,1,09,4,5,0.815,1,09,-0.458333333,-0.234259259,1,0,0,1.2942,Andesite_rect,1,1.294,1,11,0,11,0,1,,,,,,,,,,,,,
6655e4f304ea91b8ecb46edc,SCR,2024-06-24_14h45.03.944,LearnStrategy,2023.2.3,Win32,59.52380952,7,1,13,0.421296296,-0.425925926,1,0,0,21.5823,Andesite_05,1,05,1,7,21.582,1,05,0.39537037,-0.242592593,1,0,0,2.4897,Gabbro_rect,4,2.49,0,12,0,12,0,1,,,,,,,,,,,,,
6655e4f304ea91b8ecb46edc,SCR,2024-06-24_14h45.03.944,LearnStrategy,2023.2.3,Win32,59.52380952,7,1,14,0.115740741,-0.434259259,1,0,0,1.0309,Basalt_12,2,12,1,5,1.031,2,12,0.413888889,-0.388888889,1,0,0,2.2447,Pumice_rect,8,2.245,0,13,0,13,0,1,,,,,,,,,,,,,
6655e4f304ea91b8ecb46edc,SCR,2024-06-24_14h45.03.944,LearnStrategy,2023.2.3,Win32,59.52380952,7,1,15,0.565740741,0.222222222,1,0,0,1.7318,Pegmatite_16,6,16,5,8,1.732,6,16,-0.117592593,-0.406481481,1,0,0,1.8104,Pegmatite_rect,6,1.81,1,14,0,14,0,1,,,,,,,,,,,,,
6655e4f304ea91b8ecb46edc,SCR,2024-06-24_14h45.03.944,LearnStrategy,2023.2.3,Win32,59.52380952,7,1,16,-0.112037037,-0.434259259,1,0,0,1.4485,Peridotite_13,7,13,1,4,1.448,7,13,0.097222222,-0.40462963,1,0,0,0.7941,Peridotite_rect,7,0.794,1,15,0,15,0,1,,,,,,,,,,,,,
6655e4f304ea91b8ecb46edc,SCR,2024-06-24_14h45.03.944,LearnStrategy,2023.2.3,Win32,59.52380952,7,2,1,,,,,,,,8,03,,,,,,,,,,,,,8,2.377,1,,,,,,0.407407407,-0.384259259,1,0,0,2.3773,Pumice_rect,0,0,0,0,1,
6655e4f304ea91b8ecb46edc,SCR,2024-06-24_14h45.03.944,LearnStrategy,2023.2.3,Win32,59.52380952,7,2,2,,,,,,,,5,11,,,,,,,,,,,,,5,1.677,1,,,,,,-0.412037037,-0.402777778,1,0,0,1.6774,Obsidian_rect,1,0,1,0,1,
6655e4f304ea91b8ecb46edc,SCR,2024-06-24_14h45.03.944,LearnStrategy,2023.2.3,Win32,59.52380952,7,2,3,,,,,,,,1,04,,,,,,,,,,,,,1,1.626,1,,,,,,-0.37962963,-0.250925926,1,0,0,1.6261,Andesite_rect,2,0,2,0,1,
6655e4f304ea91b8ecb46edc,SCR,2024-06-24_14h45.03.944,LearnStrategy,2023.2.3,Win32,59.52380952,7,2,4,,,,,,,,2,01,,,,,,,,,,,,,2,1.926,1,,,,,,-0.175925926,-0.248148148,1,0,0,1.9256,Basalt_rect,3,0,3,0,1,
6655e4f304ea91b8ecb46edc,SCR,2024-06-24_14h45.03.944,LearnStrategy,2023.2.3,Win32,59.52380952,7,2,5,,,,,,,,6,03,,,,,,,,,,,,,6,3.459,1,,,,,,-0.14537037,-0.40462963,1,0,0,3.4589,Pegmatite_rect,4,0,4,0,1,
6655e4f304ea91b8ecb46edc,SCR,2024-06-24_14h45.03.944,LearnStrategy,2023.2.3,Win32,59.52380952,7,2,6,,,,,,,,7,06,,,,,,,,,,,,,6,1.388,0,,,,,,-0.144444444,-0.405555556,1,0,0,1.3876,Pegmatite_rect,5,0,5,0,1,
6655e4f304ea91b8ecb46edc,SCR,2024-06-24_14h45.03.944,LearnStrategy,2023.2.3,Win32,59.52380952,7,2,7,,,,,,,,4,09,,,,,,,,,,,,,4,4.424,1,,,,,,0.389814815,-0.240740741,1,0,0,4.4244,Gabbro_rect,6,0,6,0,1,
6655e4f304ea91b8ecb46edc,SCR,2024-06-24_14h45.03.944,LearnStrategy,2023.2.3,Win32,59.52380952,7,2,8,,,,,,,,2,11,,,,,,,,,,,,,1,3.196,0,,,,,,-0.388888889,-0.25,1,0,0,3.1957,Andesite_rect,7,0,7,0,1,
6655e4f304ea91b8ecb46edc,SCR,2024-06-24_14h45.03.944,LearnStrategy,2023.2.3,Win32,59.52380952,7,2,9,,,,,,,,6,07,,,,,,,,,,,,,6,2.042,1,,,,,,-0.152777778,-0.394444444,1,0,0,2.0424,Pegmatite_rect,8,0,8,0,1,
6655e4f304ea91b8ecb46edc,SCR,2024-06-24_14h45.03.944,LearnStrategy,2023.2.3,Win32,59.52380952,7,2,10,,,,,,,,4,12,,,,,,,,,,,,,7,8.086,0,,,,,,0.146296296,-0.389814815,1,0,0,8.0862,Peridotite_rect,9,0,9,0,1,
6655e4f304ea91b8ecb46edc,SCR,2024-06-24_14h45.03.944,LearnStrategy,2023.2.3,Win32,59.52380952,7,2,11,,,,,,,,1,10,,,,,,,,,,,,,4,2.64,0,,,,,,0.401851852,-0.25,1,0,0,2.6403,Gabbro_rect,10,0,10,0,1,
6655e4f304ea91b8ecb46edc,SCR,2024-06-24_14h45.03.944,LearnStrategy,2023.2.3,Win32,59.52380952,7,2,12,,,,,,,,8,02,,,,,,,,,,,,,8,1.337,1,,,,,,0.383333333,-0.389814815,1,0,0,1.3372,Pumice_rect,11,0,11,0,1,
6655e4f304ea91b8ecb46edc,SCR,2024-06-24_14h45.03.944,LearnStrategy,2023.2.3,Win32,59.52380952,7,2,13,,,,,,,,3,02,,,,,,,,,,,,,3,1.143,1,,,,,,0.125925926,-0.24537037,1,0,0,1.143,Diorite_rect,12,0,12,0,1,
6655e4f304ea91b8ecb46edc,SCR,2024-06-24_14h45.03.944,LearnStrategy,2023.2.3,Win32,59.52380952,7,2,14,,,,,,,,3,15,,,,,,,,,,,,,3,1.527,1,,,,,,0.125925926,-0.24537037,1,0,0,1.5271,Diorite_rect,13,0,13,0,1,
6655e4f304ea91b8ecb46edc,SCR,2024-06-24_14h45.03.944,LearnStrategy,2023.2.3,Win32,59.52380952,7,2,15,,,,,,,,7,04,,,,,,,,,,,,,3,5.794,0,,,,,,0.125925926,-0.24537037,1,0,0,5.7944,Diorite_rect,14,0,14,0,1,
6655e4f304ea91b8ecb46edc,SCR,2024-06-24_14h45.03.944,LearnStrategy,2023.2.3,Win32,59.52380952,7,2,16,,,,,,,,5,02,,,,,,,,,,,,,5,1.121,1,,,,,,-0.393518519,-0.405555556,1,0,0,1.1212,Obsidian_rect,15,0,15,0,1,
6655e4f304ea91b8ecb46edc,SCR,2024-06-24_14h45.03.944,LearnStrategy,2023.2.3,Win32,59.52380952,8,1,1,-0.562962963,0.277777778,1,0,0,1.2727,Gabbro_03,4,03,5,1,1.273,4,03,0.15462963,-0.250925926,1,0,0,1.0761,Diorite_rect,3,1.076,0,0,0,0,0,1,,,,,,,,,,,,,
6655e4f304ea91b8ecb46edc,SCR,2024-06-24_14h45.03.944,LearnStrategy,2023.2.3,Win32,59.52380952,8,1,2,-0.386111111,0.375,1,0,0,1.0822,Peridotite_15,7,15,6,2,1.082,7,15,0.117592593,-0.406481481,1,0,0,1.3096,Peridotite_rect,7,1.31,1,1,0,1,0,1,,,,,,,,,,,,,
6655e4f304ea91b8ecb46edc,SCR,2024-06-24_14h45.03.944,LearnStrategy,2023.2.3,Win32,59.52380952,8,1,3,-0.586111111,-0.255555556,1,0,0,1.2321,Andesite_01,1,01,2,1,1.232,1,01,0.425,-0.25,1,0,0,5.2267,Gabbro_rect,4,5.227,0,2,0,2,0,1,,,,,,,,,,,,,
6655e4f304ea91b8ecb46edc,SCR,2024-06-24_14h45.03.944,LearnStrategy,2023.2.3,Win32,59.52380952,8,1,4,-0.555555556,-0.240740741,1,0,0,1.1313,Andesite_01,1,01,2,1,1.131,1,01,-0.386111111,-0.237962963,1,0,0,1.1948,Andesite_rect,1,1.195,1,3,0,3,0,1,,,,,,,,,,,,,
6655e4f304ea91b8ecb46edc,SCR,2024-06-24_14h45.03.944,LearnStrategy,2023.2.3,Win32,59.52380952,8,1,5,-0.561111111,-0.421296296,1,0,0,1.1816,Andesite_02,1,02,1,1,1.182,1,02,-0.378703704,-0.244444444,1,0,0,1.6448,Andesite_rect,1,1.645,1,4,0,4,0,1,,,,,,,,,,,,,
6655e4f304ea91b8ecb46edc,SCR,2024-06-24_14h45.03.944,LearnStrategy,2023.2.3,Win32,59.52380952,8,1,6,0.365740741,-0.240740741,1,0,0,1.0318,Basalt_06,2,06,2,7,1.032,2,06,-0.112962963,-0.25462963,1,0,0,1.3432,Basalt_rect,2,1.343,1,5,0,5,0,1,,,,,,,,,,,,,
6655e4f304ea91b8ecb46edc,SCR,2024-06-24_14h45.03.944,LearnStrategy,2023.2.3,Win32,59.52380952,8,1,7,0.27037037,-0.437962963,1,0,0,1.049,Pegmatite_10,6,10,1,6,1.049,6,10,-0.144444444,-0.39537037,1,0,0,1.2116,Pegmatite_rect,6,1.212,1,6,0,6,0,1,,,,,,,,,,,,,
6655e4f304ea91b8ecb46edc,SCR,2024-06-24_14h45.03.944,LearnStrategy,2023.2.3,Win32,59.52380952,8,1,8,-0.363888889,-0.232407407,1,0,0,0.9994,Diorite_10,3,10,2,2,0.999,3,10,0.125925926,-0.244444444,1,0,0,1.6268,Diorite_rect,3,1.627,1,7,0,7,0,1,,,,,,,,,,,,,
6655e4f304ea91b8ecb46edc,SCR,2024-06-24_14h45.03.944,LearnStrategy,2023.2.3,Win32,59.52380952,8,1,9,0.062962963,-0.24537037,1,0,0,0.7643,Gabbro_10,4,10,2,5,0.764,4,10,0.377777778,-0.237962963,1,0,0,1.4483,Gabbro_rect,4,1.448,1,8,0,8,0,1,,,,,,,,,,,,,
6655e4f304ea91b8ecb46edc,SCR,2024-06-24_14h45.03.944,LearnStrategy,2023.2.3,Win32,59.52380952,8,1,10,0.084259259,-0.396296296,1,0,0,0.9148,Basalt_12,2,12,1,5,0.915,2,12,-0.140740741,-0.25,1,0,0,1.9945,Basalt_rect,2,1.995,1,9,0,9,0,1,,,,,,,,,,,,,
6655e4f304ea91b8ecb46edc,SCR,2024-06-24_14h45.03.944,LearnStrategy,2023.2.3,Win32,59.52380952,8,1,11,-0.223148148,0.384259259,1,0,0,1.1318,Obsidian_16,5,16,6,3,1.132,5,16,-0.372222222,-0.405555556,1,0,0,0.9443,Obsidian_rect,5,0.944,1,10,0,10,0,1,,,,,,,,,,,,,
6655e4f304ea91b8ecb46edc,SCR,2024-06-24_14h45.03.944,LearnStrategy,2023.2.3,Win32,59.52380952,8,1,12,0.201851852,0.103703704,1,0,0,0.932,Peridotite_05,7,05,4,6,0.932,7,05,0.1,-0.413888889,1,0,0,1.2608,Peridotite_rect,7,1.261,1,11,0,11,0,1,,,,,,,,,,,,,
6655e4f304ea91b8ecb46edc,SCR,2024-06-24_14h45.03.944,LearnStrategy,2023.2.3,Win32,59.52380952,8,1,13,0.387962963,0.410185185,1,0,0,0.8319,Pumice_10,8,10,6,7,0.832,8,10,0.369444444,-0.387962963,1,0,0,1.394,Pumice_rect,8,1.394,1,12,0,12,0,1,,,,,,,,,,,,,
6655e4f304ea91b8ecb46edc,SCR,2024-06-24_14h45.03.944,LearnStrategy,2023.2.3,Win32,59.52380952,8,1,14,0.563888889,-0.086111111,1,0,0,0.7988,Gabbro_15,4,15,3,8,0.799,4,15,0.169444444,-0.25,1,0,0,1.1449,Diorite_rect,3,1.145,0,13,0,13,0,1,,,,,,,,,,,,,
6655e4f304ea91b8ecb46edc,SCR,2024-06-24_14h45.03.944,LearnStrategy,2023.2.3,Win32,59.52380952,8,1,15,-0.241666667,-0.237037037,1,0,0,0.9319,Peridotite_08,7,08,2,3,0.932,7,08,0.132407407,-0.407407407,1,0,0,1.4113,Peridotite_rect,7,1.411,1,14,0,14,0,1,,,,,,,,,,,,,
6655e4f304ea91b8ecb46edc,SCR,2024-06-24_14h45.03.944,LearnStrategy,2023.2.3,Win32,59.52380952,8,1,16,-0.396296296,-0.098148148,1,0,0,0.8991,Peridotite_07,7,07,3,2,0.899,7,07,0.121296296,-0.413888889,1,0,0,0.8441,Peridotite_rect,7,0.844,1,15,0,15,0,1,,,,,,,,,,,,,
6655e4f304ea91b8ecb46edc,SCR,2024-06-24_14h45.03.944,LearnStrategy,2023.2.3,Win32,59.52380952,8,2,1,,,,,,,,5,08,,,,,,,,,,,,,5,1.246,1,,,,,,-0.417592593,-0.39537037,1,0,0,1.2456,Obsidian_rect,0,0,0,0,1,
6655e4f304ea91b8ecb46edc,SCR,2024-06-24_14h45.03.944,LearnStrategy,2023.2.3,Win32,59.52380952,8,2,2,,,,,,,,1,06,,,,,,,,,,,,,1,1.263,1,,,,,,-0.351851852,-0.235185185,1,0,0,1.2626,Andesite_rect,1,0,1,0,1,
6655e4f304ea91b8ecb46edc,SCR,2024-06-24_14h45.03.944,LearnStrategy,2023.2.3,Win32,59.52380952,8,2,3,,,,,,,,6,11,,,,,,,,,,,,,6,2.446,1,,,,,,-0.125925926,-0.398148148,1,0,0,2.4457,Pegmatite_rect,2,0,2,0,1,
6655e4f304ea91b8ecb46edc,SCR,2024-06-24_14h45.03.944,LearnStrategy,2023.2.3,Win32,59.52380952,8,2,4,,,,,,,,3,12,,,,,,,,,,,,,3,1.373,1,,,,,,0.098148148,-0.25462963,1,0,0,1.3735,Diorite_rect,3,0,3,0,1,
6655e4f304ea91b8ecb46edc,SCR,2024-06-24_14h45.03.944,LearnStrategy,2023.2.3,Win32,59.52380952,8,2,5,,,,,,,,3,13,,,,,,,,,,,,,3,1.042,1,,,,,,0.105555556,-0.248148148,1,0,0,1.0421,Diorite_rect,4,0,4,0,1,
6655e4f304ea91b8ecb46edc,SCR,2024-06-24_14h45.03.944,LearnStrategy,2023.2.3,Win32,59.52380952,8,2,6,,,,,,,,1,07,,,,,,,,,,,,,3,5.293,0,,,,,,0.106481481,-0.24537037,1,0,0,5.2934,Diorite_rect,5,0,5,0,1,
6655e4f304ea91b8ecb46edc,SCR,2024-06-24_14h45.03.944,LearnStrategy,2023.2.3,Win32,59.52380952,8,2,7,,,,,,,,2,08,,,,,,,,,,,,,2,1.387,1,,,,,,-0.157407407,-0.244444444,1,0,0,1.3867,Basalt_rect,6,0,6,0,1,
6655e4f304ea91b8ecb46edc,SCR,2024-06-24_14h45.03.944,LearnStrategy,2023.2.3,Win32,59.52380952,8,2,8,,,,,,,,4,13,,,,,,,,,,,,,4,2.125,1,,,,,,0.388888889,-0.258333333,1,0,0,2.1254,Gabbro_rect,7,0,7,0,1,
6655e4f304ea91b8ecb46edc,SCR,2024-06-24_14h45.03.944,LearnStrategy,2023.2.3,Win32,59.52380952,8,2,9,,,,,,,,8,14,,,,,,,,,,,,,8,1.053,1,,,,,,0.387037037,-0.408333333,1,0,0,1.0529,Pumice_rect,8,0,8,0,1,
6655e4f304ea91b8ecb46edc,SCR,2024-06-24_14h45.03.944,LearnStrategy,2023.2.3,Win32,59.52380952,8,2,10,,,,,,,,2,16,,,,,,,,,,,,,2,7.692,1,,,,,,-0.117592593,-0.247222222,1,0,0,7.6923,Basalt_rect,9,0,9,0,1,
6655e4f304ea91b8ecb46edc,SCR,2024-06-24_14h45.03.944,LearnStrategy,2023.2.3,Win32,59.52380952,8,2,11,,,,,,,,8,04,,,,,,,,,,,,,2,6.046,0,,,,,,-0.113888889,-0.262037037,1,0,0,6.0457,Basalt_rect,10,0,10,0,1,
6655e4f304ea91b8ecb46edc,SCR,2024-06-24_14h45.03.944,LearnStrategy,2023.2.3,Win32,59.52380952,8,2,12,,,,,,,,5,09,,,,,,,,,,,,,5,1.07,1,,,,,,-0.342592593,-0.384259259,1,0,0,1.0702,Obsidian_rect,11,0,11,0,1,
6655e4f304ea91b8ecb46edc,SCR,2024-06-24_14h45.03.944,LearnStrategy,2023.2.3,Win32,59.52380952,8,2,13,,,,,,,,6,05,,,,,,,,,,,,,6,4.129,1,,,,,,-0.149074074,-0.398148148,1,0,0,4.1288,Pegmatite_rect,12,0,12,0,1,
6655e4f304ea91b8ecb46edc,SCR,2024-06-24_14h45.03.944,LearnStrategy,2023.2.3,Win32,59.52380952,8,2,14,,,,,,,,7,02,,,,,,,,,,,,,7,1.323,1,,,,,,0.162037037,-0.4,1,0,0,1.323,Peridotite_rect,13,0,13,0,1,
6655e4f304ea91b8ecb46edc,SCR,2024-06-24_14h45.03.944,LearnStrategy,2023.2.3,Win32,59.52380952,8,2,15,,,,,,,,4,08,,,,,,,,,,,,,4,1.861,1,,,,,,0.392592593,-0.242592593,1,0,0,1.8612,Gabbro_rect,14,0,14,0,1,
6655e4f304ea91b8ecb46edc,SCR,2024-06-24_14h45.03.944,LearnStrategy,2023.2.3,Win32,59.52380952,8,2,16,,,,,,,,7,16,,,,,,,,,,,,,6,2.541,0,,,,,,-0.118518519,-0.394444444,1,0,0,2.5412,Pegmatite_rect,15,0,15,0,1,
6655e4f304ea91b8ecb46edc,SCR,2024-06-24_14h45.03.944,LearnStrategy,2023.2.3,Win32,59.52380952,9,1,1,0.071296296,0.257407407,1,0,0,0.7478,Gabbro_16,4,16,5,5,0.748,4,16,-0.177777778,-0.250925926,1,0,0,1.7111,Basalt_rect,2,1.711,0,0,0,0,0,1,,,,,,,,,,,,,
6655e4f304ea91b8ecb46edc,SCR,2024-06-24_14h45.03.944,LearnStrategy,2023.2.3,Win32,59.52380952,9,1,2,0.498148148,-0.392592593,1,0,0,1.5492,Pumice_06,8,06,1,8,1.549,8,06,0.437037037,-0.397222222,1,0,0,0.7767,Pumice_rect,8,0.777,1,1,0,1,0,1,,,,,,,,,,,,,
6655e4f304ea91b8ecb46edc,SCR,2024-06-24_14h45.03.944,LearnStrategy,2023.2.3,Win32,59.52380952,9,1,3,0.258333333,-0.392592593,1,0,0,1.3817,Pegmatite_10,6,10,1,6,1.382,6,10,-0.148148148,-0.397222222,1,0,0,0.712,Pegmatite_rect,6,0.712,1,2,0,2,0,1,,,,,,,,,,,,,
6655e4f304ea91b8ecb46edc,SCR,2024-06-24_14h45.03.944,LearnStrategy,2023.2.3,Win32,59.52380952,9,1,4,-0.409259259,0.382407407,1,0,0,1.2482,Peridotite_15,7,15,6,2,1.248,7,15,0.124074074,-0.398148148,1,0,0,1.6436,Peridotite_rect,7,1.644,1,3,0,3,0,1,,,,,,,,,,,,,
6655e4f304ea91b8ecb46edc,SCR,2024-06-24_14h45.03.944,LearnStrategy,2023.2.3,Win32,59.52380952,9,1,5,-0.353703704,0.242592593,1,0,0,1.1657,Basalt_09,2,09,5,2,1.166,2,09,-0.365740741,-0.244444444,1,0,0,1.6426,Andesite_rect,1,1.643,0,4,0,4,0,1,,,,,,,,,,,,,
6655e4f304ea91b8ecb46edc,SCR,2024-06-24_14h45.03.944,LearnStrategy,2023.2.3,Win32,59.52380952,9,1,6,-0.101851852,-0.256481481,1,0,0,1.482,Obsidian_07,5,07,2,4,1.482,5,07,-0.137962963,-0.394444444,1,0,0,1.5273,Pegmatite_rect,6,1.527,0,5,0,5,0,1,,,,,,,,,,,,,
6655e4f304ea91b8ecb46edc,SCR,2024-06-24_14h45.03.944,LearnStrategy,2023.2.3,Win32,59.52380952,9,1,7,0.232407407,0.12962963,1,0,0,1.0159,Peridotite_05,7,05,4,6,1.016,7,05,0.14537037,-0.408333333,1,0,0,1.1602,Peridotite_rect,7,1.16,1,6,0,6,0,1,,,,,,,,,,,,,
6655e4f304ea91b8ecb46edc,SCR,2024-06-24_14h45.03.944,LearnStrategy,2023.2.3,Win32,59.52380952,9,1,8,0.063888889,0.09537037,1,0,0,0.6147,Andesite_09,1,09,4,5,0.615,1,09,-0.361111111,-0.239814815,1,0,0,1.2438,Andesite_rect,1,1.244,1,7,0,7,0,1,,,,,,,,,,,,,
6655e4f304ea91b8ecb46edc,SCR,2024-06-24_14h45.03.944,LearnStrategy,2023.2.3,Win32,59.52380952,9,1,9,0.09537037,0.22037037,1,0,0,1.1656,Gabbro_16,4,16,5,5,1.166,4,16,0.37037037,-0.262037037,1,0,0,3.9435,Gabbro_rect,4,3.943,1,8,0,8,0,1,,,,,,,,,,,,,
6655e4f304ea91b8ecb46edc,SCR,2024-06-24_14h45.03.944,LearnStrategy,2023.2.3,Win32,59.52380952,9,1,10,-0.372222222,-0.119444444,1,0,0,1.0489,Peridotite_07,7,07,3,2,1.049,7,07,0.131481481,-0.399074074,1,0,0,1.0946,Peridotite_rect,7,1.095,1,9,0,9,0,1,,,,,,,,,,,,,
6655e4f304ea91b8ecb46edc,SCR,2024-06-24_14h45.03.944,LearnStrategy,2023.2.3,Win32,59.52380952,9,1,11,0.40462963,-0.4,1,0,0,1.1484,Andesite_05,1,05,1,7,1.148,1,05,0.185185185,-0.25,1,0,0,1.1949,Diorite_rect,3,1.195,0,10,0,10,0,1,,,,,,,,,,,,,
6655e4f304ea91b8ecb46edc,SCR,2024-06-24_14h45.03.944,LearnStrategy,2023.2.3,Win32,59.52380952,9,1,12,0.418518519,-0.424074074,1,0,0,1.1651,Andesite_05,1,05,1,7,1.165,7,07,-0.353703704,-0.231481481,1,0,0,2.0487,Andesite_rect,1,2.049,1,11,0,11,0,1,,,,,,,,,,,,,
6655e4f304ea91b8ecb46edc,SCR,2024-06-24_14h45.03.944,LearnStrategy,2023.2.3,Win32,59.52380952,9,1,13,0.551851852,-0.231481481,1,0,0,1.0817,Pumice_09,8,09,2,8,1.082,8,09,0.425,-0.4,1,0,0,0.7945,Pumice_rect,8,0.794,1,12,0,12,0,1,,,,,,,,,,,,,
6655e4f304ea91b8ecb46edc,SCR,2024-06-24_14h45.03.944,LearnStrategy,2023.2.3,Win32,59.52380952,9,1,14,0.382407407,0.249074074,1,0,0,9.732,Pumice_08,8,08,5,7,9.732,3,06,-0.163888889,-0.252777778,1,0,0,1.5906,Basalt_rect,2,1.591,0,13,0,13,0,1,,,,,,,,,,,,,
6655e4f304ea91b8ecb46edc,SCR,2024-06-24_14h45.03.944,LearnStrategy,2023.2.3,Win32,59.52380952,9,1,15,0.118518519,-0.411111111,1,0,0,5.3488,Basalt_12,2,12,1,5,5.349,1,03,-0.126851852,-0.253703704,1,0,0,1.1555,Basalt_rect,2,1.156,1,14,0,14,0,1,,,,,,,,,,,,,
6655e4f304ea91b8ecb46edc,SCR,2024-06-24_14h45.03.944,LearnStrategy,2023.2.3,Win32,59.52380952,9,1,16,0.409259259,-0.280555556,1,0,0,1.1152,Basalt_06,2,06,2,7,1.115,2,06,-0.163888889,-0.248148148,1,0,0,1.6617,Basalt_rect,2,1.662,1,15,0,15,0,1,,,,,,,,,,,,,
6655e4f304ea91b8ecb46edc,SCR,2024-06-24_14h45.03.944,LearnStrategy,2023.2.3,Win32,59.52380952,9,2,1,,,,,,,,6,15,,,,,,,,,,,,,6,2.762,1,,,,,,-0.141666667,-0.394444444,1,0,0,2.7622,Pegmatite_rect,0,0,0,0,1,
6655e4f304ea91b8ecb46edc,SCR,2024-06-24_14h45.03.944,LearnStrategy,2023.2.3,Win32,59.52380952,9,2,2,,,,,,,,3,11,,,,,,,,,,,,,3,1.556,1,,,,,,0.1,-0.244444444,1,0,0,1.5563,Diorite_rect,1,0,1,0,1,
6655e4f304ea91b8ecb46edc,SCR,2024-06-24_14h45.03.944,LearnStrategy,2023.2.3,Win32,59.52380952,9,2,3,,,,,,,,4,14,,,,,,,,,,,,,4,4.208,1,,,,,,0.389814815,-0.243518519,1,0,0,4.2082,Gabbro_rect,2,0,2,0,1,
6655e4f304ea91b8ecb46edc,SCR,2024-06-24_14h45.03.944,LearnStrategy,2023.2.3,Win32,59.52380952,9,2,4,,,,,,,,2,04,,,,,,,,,,,,,2,1.505,1,,,,,,-0.121296296,-0.250925926,1,0,0,1.5049,Basalt_rect,3,0,3,0,1,
6655e4f304ea91b8ecb46edc,SCR,2024-06-24_14h45.03.944,LearnStrategy,2023.2.3,Win32,59.52380952,9,2,5,,,,,,,,7,12,,,,,,,,,,,,,7,1.842,1,,,,,,0.165740741,-0.413888889,1,0,0,1.8416,Peridotite_rect,4,0,4,0,1,
6655e4f304ea91b8ecb46edc,SCR,2024-06-24_14h45.03.944,LearnStrategy,2023.2.3,Win32,59.52380952,9,2,6,,,,,,,,8,15,,,,,,,,,,,,,8,1.678,1,,,,,,0.347222222,-0.39537037,1,0,0,1.6785,Pumice_rect,5,0,5,0,1,
6655e4f304ea91b8ecb46edc,SCR,2024-06-24_14h45.03.944,LearnStrategy,2023.2.3,Win32,59.52380952,9,2,7,,,,,,,,1,11,,,,,,,,,,,,,1,1.359,1,,,,,,-0.430555556,-0.255555556,1,0,0,1.3591,Andesite_rect,6,0,6,0,1,
6655e4f304ea91b8ecb46edc,SCR,2024-06-24_14h45.03.944,LearnStrategy,2023.2.3,Win32,59.52380952,9,2,8,,,,,,,,6,09,,,,,,,,,,,,,6,1.395,1,,,,,,-0.172222222,-0.400925926,1,0,0,1.3951,Pegmatite_rect,7,0,7,0,1,
6655e4f304ea91b8ecb46edc,SCR,2024-06-24_14h45.03.944,LearnStrategy,2023.2.3,Win32,59.52380952,9,2,9,,,,,,,,5,06,,,,,,,,,,,,,5,0.942,1,,,,,,-0.413888889,-0.400925926,1,0,0,0.942,Obsidian_rect,8,0,8,0,1,
6655e4f304ea91b8ecb46edc,SCR,2024-06-24_14h45.03.944,LearnStrategy,2023.2.3,Win32,59.52380952,9,2,10,,,,,,,,3,07,,,,,,,,,,,,,6,6.078,0,,,,,,-0.1,-0.397222222,1,0,0,6.0776,Pegmatite_rect,9,0,9,0,1,
6655e4f304ea91b8ecb46edc,SCR,2024-06-24_14h45.03.944,LearnStrategy,2023.2.3,Win32,59.52380952,9,2,11,,,,,,,,8,05,,,,,,,,,,,,,2,6.156,0,,,,,,-0.131481481,-0.233333333,1,0,0,6.1562,Basalt_rect,10,0,10,0,1,
6655e4f304ea91b8ecb46edc,SCR,2024-06-24_14h45.03.944,LearnStrategy,2023.2.3,Win32,59.52380952,9,2,12,,,,,,,,7,14,,,,,,,,,,,,,6,2.775,0,,,,,,-0.125925926,-0.392592593,1,0,0,2.7751,Pegmatite_rect,11,0,11,0,1,
6655e4f304ea91b8ecb46edc,SCR,2024-06-24_14h45.03.944,LearnStrategy,2023.2.3,Win32,59.52380952,9,2,13,,,,,,,,5,04,,,,,,,,,,,,,5,1.009,1,,,,,,-0.388888889,-0.407407407,1,0,0,1.0087,Obsidian_rect,12,0,12,0,1,
6655e4f304ea91b8ecb46edc,SCR,2024-06-24_14h45.03.944,LearnStrategy,2023.2.3,Win32,59.52380952,9,2,14,,,,,,,,2,02,,,,,,,,,,,,,2,1.562,1,,,,,,-0.156481481,-0.267592593,1,0,0,1.5623,Basalt_rect,13,0,13,0,1,
6655e4f304ea91b8ecb46edc,SCR,2024-06-24_14h45.03.944,LearnStrategy,2023.2.3,Win32,59.52380952,9,2,15,,,,,,,,1,16,,,,,,,,,,,,,1,1.313,1,,,,,,-0.358333333,-0.260185185,1,0,0,1.3126,Andesite_rect,14,0,14,0,1,
6655e4f304ea91b8ecb46edc,SCR,2024-06-24_14h45.03.944,LearnStrategy,2023.2.3,Win32,59.52380952,9,2,16,,,,,,,,4,11,,,,,,,,,,,,,4,7.691,1,,,,,,0.37962963,-0.249074074,1,0,0,7.6909,Gabbro_rect,15,0,15,0,1,
6655e4f304ea91b8ecb46edc,SCR,2024-06-24_14h45.03.944,LearnStrategy,2023.2.3,Win32,59.52380952,,,,,,,,,,,,,,,,,,,,,,,,,,,,,,,,,,,,,,,,,,,,,1
6655e4f304ea91b8ecb46edc,SCR,2024-06-24_14h45.03.944,LearnStrategy,2023.2.3,Win32,59.52380952,,,,,,,,,,,,,,,,,,,,,,,,,,,,,,,,,,,,,,,,,,,,,
6655e4f304ea91b8ecb46edc,SCR,2024-06-24_14h45.03.944,LearnStrategy,2023.2.3,Win32,59.52380952,,,,,,,,,,,1,02,1,1,,,,,,,,,,,,,,,,,,,,,,,,,,,,,,,
6655e4f304ea91b8ecb46edc,SCR,2024-06-24_14h45.03.944,LearnStrategy,2023.2.3,Win32,59.52380952,,,,,,,,,,,5,10,1,2,,,,,,,,,,,,,,,,,,,,,,,,,,,,,,,
6655e4f304ea91b8ecb46edc,SCR,2024-06-24_14h45.03.944,LearnStrategy,2023.2.3,Win32,59.52380952,,,,,,,,,,,5,12,1,3,,,,,,,,,,,,,,,,,,,,,,,,,,,,,,,
6655e4f304ea91b8ecb46edc,SCR,2024-06-24_14h45.03.944,LearnStrategy,2023.2.3,Win32,59.52380952,,,,,,,,,,,7,13,1,4,,,,,,,,,,,,,,,,,,,,,,,,,,,,,,,
6655e4f304ea91b8ecb46edc,SCR,2024-06-24_14h45.03.944,LearnStrategy,2023.2.3,Win32,59.52380952,,,,,,,,,,,2,12,1,5,,,,,,,,,,,,,,,,,,,,,,,,,,,,,,,
6655e4f304ea91b8ecb46edc,SCR,2024-06-24_14h45.03.944,LearnStrategy,2023.2.3,Win32,59.52380952,,,,,,,,,,,6,10,1,6,,,,,,,,,,,,,,,,,,,,,,,,,,,,,,,
6655e4f304ea91b8ecb46edc,SCR,2024-06-24_14h45.03.944,LearnStrategy,2023.2.3,Win32,59.52380952,,,,,,,,,,,1,05,1,7,,,,,,,,,,,,,,,,,,,,,,,,,,,,,,,
6655e4f304ea91b8ecb46edc,SCR,2024-06-24_14h45.03.944,LearnStrategy,2023.2.3,Win32,59.52380952,,,,,,,,,,,8,06,1,8,,,,,,,,,,,,,,,,,,,,,,,,,,,,,,,
6655e4f304ea91b8ecb46edc,SCR,2024-06-24_14h45.03.944,LearnStrategy,2023.2.3,Win32,59.52380952,,,,,,,,,,,1,01,2,1,,,,,,,,,,,,,,,,,,,,,,,,,,,,,,,
6655e4f304ea91b8ecb46edc,SCR,2024-06-24_14h45.03.944,LearnStrategy,2023.2.3,Win32,59.52380952,,,,,,,,,,,3,10,2,2,,,,,,,,,,,,,,,,,,,,,,,,,,,,,,,
6655e4f304ea91b8ecb46edc,SCR,2024-06-24_14h45.03.944,LearnStrategy,2023.2.3,Win32,59.52380952,,,,,,,,,,,7,08,2,3,,,,,,,,,,,,,,,,,,,,,,,,,,,,,,,
6655e4f304ea91b8ecb46edc,SCR,2024-06-24_14h45.03.944,LearnStrategy,2023.2.3,Win32,59.52380952,,,,,,,,,,,5,07,2,4,,,,,,,,,,,,,,,,,,,,,,,,,,,,,,,
6655e4f304ea91b8ecb46edc,SCR,2024-06-24_14h45.03.944,LearnStrategy,2023.2.3,Win32,59.52380952,,,,,,,,,,,4,10,2,5,,,,,,,,,,,,,,,,,,,,,,,,,,,,,,,
6655e4f304ea91b8ecb46edc,SCR,2024-06-24_14h45.03.944,LearnStrategy,2023.2.3,Win32,59.52380952,,,,,,,,,,,3,08,2,6,,,,,,,,,,,,,,,,,,,,,,,,,,,,,,,
6655e4f304ea91b8ecb46edc,SCR,2024-06-24_14h45.03.944,LearnStrategy,2023.2.3,Win32,59.52380952,,,,,,,,,,,2,06,2,7,,,,,,,,,,,,,,,,,,,,,,,,,,,,,,,
6655e4f304ea91b8ecb46edc,SCR,2024-06-24_14h45.03.944,LearnStrategy,2023.2.3,Win32,59.52380952,,,,,,,,,,,8,09,2,8,,,,,,,,,,,,,,,,,,,,,,,,,,,,,,,
6655e4f304ea91b8ecb46edc,SCR,2024-06-24_14h45.03.944,LearnStrategy,2023.2.3,Win32,59.52380952,,,,,,,,,,,4,05,3,1,,,,,,,,,,,,,,,,,,,,,,,,,,,,,,,
6655e4f304ea91b8ecb46edc,SCR,2024-06-24_14h45.03.944,LearnStrategy,2023.2.3,Win32,59.52380952,,,,,,,,,,,7,07,3,2,,,,,,,,,,,,,,,,,,,,,,,,,,,,,,,
6655e4f304ea91b8ecb46edc,SCR,2024-06-24_14h45.03.944,LearnStrategy,2023.2.3,Win32,59.52380952,,,,,,,,,,,5,05,3,3,,,,,,,,,,,,,,,,,,,,,,,,,,,,,,,
6655e4f304ea91b8ecb46edc,SCR,2024-06-24_14h45.03.944,LearnStrategy,2023.2.3,Win32,59.52380952,,,,,,,,,,,3,14,3,4,,,,,,,,,,,,,,,,,,,,,,,,,,,,,,,
6655e4f304ea91b8ecb46edc,SCR,2024-06-24_14h45.03.944,LearnStrategy,2023.2.3,Win32,59.52380952,,,,,,,,,,,6,13,3,5,,,,,,,,,,,,,,,,,,,,,,,,,,,,,,,
6655e4f304ea91b8ecb46edc,SCR,2024-06-24_14h45.03.944,LearnStrategy,2023.2.3,Win32,59.52380952,,,,,,,,,,,3,06,3,6,,,,,,,,,,,,,,,,,,,,,,,,,,,,,,,
6655e4f304ea91b8ecb46edc,SCR,2024-06-24_14h45.03.944,LearnStrategy,2023.2.3,Win32,59.52380952,,,,,,,,,,,7,10,3,7,,,,,,,,,,,,,,,,,,,,,,,,,,,,,,,
6655e4f304ea91b8ecb46edc,SCR,2024-06-24_14h45.03.944,LearnStrategy,2023.2.3,Win32,59.52380952,,,,,,,,,,,4,15,3,8,,,,,,,,,,,,,,,,,,,,,,,,,,,,,,,
6655e4f304ea91b8ecb46edc,SCR,2024-06-24_14h45.03.944,LearnStrategy,2023.2.3,Win32,59.52380952,,,,,,,,,,,8,16,4,1,,,,,,,,,,,,,,,,,,,,,,,,,,,,,,,
6655e4f304ea91b8ecb46edc,SCR,2024-06-24_14h45.03.944,LearnStrategy,2023.2.3,Win32,59.52380952,,,,,,,,,,,5,14,4,2,,,,,,,,,,,,,,,,,,,,,,,,,,,,,,,
6655e4f304ea91b8ecb46edc,SCR,2024-06-24_14h45.03.944,LearnStrategy,2023.2.3,Win32,59.52380952,,,,,,,,,,,8,13,4,3,,,,,,,,,,,,,,,,,,,,,,,,,,,,,,,
6655e4f304ea91b8ecb46edc,SCR,2024-06-24_14h45.03.944,LearnStrategy,2023.2.3,Win32,59.52380952,,,,,,,,,,,6,06,4,4,,,,,,,,,,,,,,,,,,,,,,,,,,,,,,,
6655e4f304ea91b8ecb46edc,SCR,2024-06-24_14h45.03.944,LearnStrategy,2023.2.3,Win32,59.52380952,,,,,,,,,,,1,09,4,5,,,,,,,,,,,,,,,,,,,,,,,,,,,,,,,
6655e4f304ea91b8ecb46edc,SCR,2024-06-24_14h45.03.944,LearnStrategy,2023.2.3,Win32,59.52380952,,,,,,,,,,,7,05,4,6,,,,,,,,,,,,,,,,,,,,,,,,,,,,,,,
6655e4f304ea91b8ecb46edc,SCR,2024-06-24_14h45.03.944,LearnStrategy,2023.2.3,Win32,59.52380952,,,,,,,,,,,6,08,4,7,,,,,,,,,,,,,,,,,,,,,,,,,,,,,,,
6655e4f304ea91b8ecb46edc,SCR,2024-06-24_14h45.03.944,LearnStrategy,2023.2.3,Win32,59.52380952,,,,,,,,,,,3,09,4,8,,,,,,,,,,,,,,,,,,,,,,,,,,,,,,,
6655e4f304ea91b8ecb46edc,SCR,2024-06-24_14h45.03.944,LearnStrategy,2023.2.3,Win32,59.52380952,,,,,,,,,,,4,03,5,1,,,,,,,,,,,,,,,,,,,,,,,,,,,,,,,
6655e4f304ea91b8ecb46edc,SCR,2024-06-24_14h45.03.944,LearnStrategy,2023.2.3,Win32,59.52380952,,,,,,,,,,,2,09,5,2,,,,,,,,,,,,,,,,,,,,,,,,,,,,,,,
6655e4f304ea91b8ecb46edc,SCR,2024-06-24_14h45.03.944,LearnStrategy,2023.2.3,Win32,59.52380952,,,,,,,,,,,4,01,5,3,,,,,,,,,,,,,,,,,,,,,,,,,,,,,,,
6655e4f304ea91b8ecb46edc,SCR,2024-06-24_14h45.03.944,LearnStrategy,2023.2.3,Win32,59.52380952,,,,,,,,,,,2,05,5,4,,,,,,,,,,,,,,,,,,,,,,,,,,,,,,,
6655e4f304ea91b8ecb46edc,SCR,2024-06-24_14h45.03.944,LearnStrategy,2023.2.3,Win32,59.52380952,,,,,,,,,,,4,16,5,5,,,,,,,,,,,,,,,,,,,,,,,,,,,,,,,
6655e4f304ea91b8ecb46edc,SCR,2024-06-24_14h45.03.944,LearnStrategy,2023.2.3,Win32,59.52380952,,,,,,,,,,,2,14,5,6,,,,,,,,,,,,,,,,,,,,,,,,,,,,,,,
6655e4f304ea91b8ecb46edc,SCR,2024-06-24_14h45.03.944,LearnStrategy,2023.2.3,Win32,59.52380952,,,,,,,,,,,8,08,5,7,,,,,,,,,,,,,,,,,,,,,,,,,,,,,,,
6655e4f304ea91b8ecb46edc,SCR,2024-06-24_14h45.03.944,LearnStrategy,2023.2.3,Win32,59.52380952,,,,,,,,,,,6,16,5,8,,,,,,,,,,,,,,,,,,,,,,,,,,,,,,,
6655e4f304ea91b8ecb46edc,SCR,2024-06-24_14h45.03.944,LearnStrategy,2023.2.3,Win32,59.52380952,,,,,,,,,,,1,14,6,1,,,,,,,,,,,,,,,,,,,,,,,,,,,,,,,
6655e4f304ea91b8ecb46edc,SCR,2024-06-24_14h45.03.944,LearnStrategy,2023.2.3,Win32,59.52380952,,,,,,,,,,,7,15,6,2,,,,,,,,,,,,,,,,,,,,,,,,,,,,,,,
6655e4f304ea91b8ecb46edc,SCR,2024-06-24_14h45.03.944,LearnStrategy,2023.2.3,Win32,59.52380952,,,,,,,,,,,5,16,6,3,,,,,,,,,,,,,,,,,,,,,,,,,,,,,,,
6655e4f304ea91b8ecb46edc,SCR,2024-06-24_14h45.03.944,LearnStrategy,2023.2.3,Win32,59.52380952,,,,,,,,,,,2,10,6,4,,,,,,,,,,,,,,,,,,,,,,,,,,,,,,,
6655e4f304ea91b8ecb46edc,SCR,2024-06-24_14h45.03.944,LearnStrategy,2023.2.3,Win32,59.52380952,,,,,,,,,,,6,12,6,5,,,,,,,,,,,,,,,,,,,,,,,,,,,,,,,
6655e4f304ea91b8ecb46edc,SCR,2024-06-24_14h45.03.944,LearnStrategy,2023.2.3,Win32,59.52380952,,,,,,,,,,,1,03,6,6,,,,,,,,,,,,,,,,,,,,,,,,,,,,,,,
6655e4f304ea91b8ecb46edc,SCR,2024-06-24_14h45.03.944,LearnStrategy,2023.2.3,Win32,59.52380952,,,,,,,,,,,8,10,6,7,,,,,,,,,,,,,,,,,,,,,,,,,,,,,,,
6655e4f304ea91b8ecb46edc,SCR,2024-06-24_14h45.03.944,LearnStrategy,2023.2.3,Win32,59.52380952,,,,,,,,,,,3,16,6,8,,,,,,,,,,,,,,,,,,,,,,,,,,,,,,,