participant,condition,date,expName,psychopyVersion,OS,frameRate,block,phase,trial,learn_mouse_2.x,learn_mouse_2.y,learn_mouse_2.leftButton,learn_mouse_2.midButton,learn_mouse_2.rightButton,learn_mouse_2.time,learn_mouse_2.clicked_name,cat,token,row,col,t_select,cat_mouse_l.x,cat_mouse_l.y,cat_mouse_l.leftButton,cat_mouse_l.midButton,cat_mouse_l.rightButton,cat_mouse_l.time,cat_mouse_l.clicked_name,resp,t_resp,corr,train_trials.thisRepN,train_trials.thisTrialN,train_trials.thisN,train_trials.thisIndex,train_trials.ran,cat_mouse_t.x,cat_mouse_t.y,cat_mouse_t.leftButton,cat_mouse_t.midButton,cat_mouse_t.rightButton,cat_mouse_t.time,cat_mouse_t.clicked_name,test_trials.thisRepN,test_trials.thisTrialN,test_trials.thisN,test_trials.thisIndex,test_trials.ran,Bonus
66550501336446c73dbbb0cf,TCR,2024-06-21_13h49.37.428,LearnStrategy,2023.2.3,Win32,58.47953216,,,,,,,,,,,,,,,,,,,,,,,,,,,,,,,,,,,,,,,,,,,
66550501336446c73dbbb0cf,TCR,2024-06-21_13h49.37.428,LearnStrategy,2023.2.3,Win32,58.47953216,1,1,1,-0.035185143,-0.003703718,1,0,0,4.6907,rock_grid_rect_2,7,16,-1,-1,4.691,0.352777834,-0.25462963,1,0,0,8.6703,Gabbro_rect,4,8.67,0,0,0,0,0,1,,,,,,,,,,,,,
66550501336446c73dbbb0cf,TCR,2024-06-21_13h49.37.428,LearnStrategy,2023.2.3,Win32,58.47953216,1,1,2,0.05277782,-0.000925947,1,0,0,1.2789,rock_grid_rect_2,2,05,-1,-1,1.279,-0.076851809,-0.250925912,1,0,0,5.23,Basalt_rect,2,5.23,1,1,0,1,0,1,,,,,,,,,,,,,
66550501336446c73dbbb0cf,TCR,2024-06-21_13h49.37.428,LearnStrategy,2023.2.3,Win32,58.47953216,1,1,3,0.041666667,-0.009259259,1,0,0,1.2127,rock_grid_rect_2,4,16,-1,-1,1.213,-0.440740727,-0.244444459,1,0,0,8.1036,Andesite_rect,1,8.104,0,2,0,2,0,1,,,,,,,,,,,,,
66550501336446c73dbbb0cf,TCR,2024-06-21_13h49.37.428,LearnStrategy,2023.2.3,Win32,58.47953216,1,1,4,0.039814843,-0.017592607,1,0,0,1.7289,rock_grid_rect_2,2,16,-1,-1,1.729,-0.092592593,-0.387037065,1,0,0,7.8041,Pegmatite_rect,6,7.804,0,3,0,3,0,1,,,,,,,,,,,,,
66550501336446c73dbbb0cf,TCR,2024-06-21_13h49.37.428,LearnStrategy,2023.2.3,Win32,58.47953216,1,1,5,0.043518561,0.011111118,1,0,0,1.1802,rock_grid_rect_2,4,03,-1,-1,1.18,0.116666653,-0.262037065,1,0,0,7.3275,Diorite_rect,3,7.328,0,4,0,4,0,1,,,,,,,,,,,,,
66550501336446c73dbbb0cf,TCR,2024-06-21_13h49.37.428,LearnStrategy,2023.2.3,Win32,58.47953216,1,1,6,0.05277782,-0.013888889,1,0,0,1.1182,rock_grid_rect_2,6,06,-1,-1,1.118,-0.364814794,-0.244444459,1,0,0,12.3436,Andesite_rect,1,12.344,0,5,0,5,0,1,,,,,,,,,,,,,
66550501336446c73dbbb0cf,TCR,2024-06-21_13h49.37.428,LearnStrategy,2023.2.3,Win32,58.47953216,1,1,7,0,-0.010185206,1,0,0,1.0968,rock_grid_rect_2,3,09,-1,-1,1.097,0.125925912,-0.259259259,1,0,0,5.6557,Diorite_rect,3,5.656,1,6,0,6,0,1,,,,,,,,,,,,,
66550501336446c73dbbb0cf,TCR,2024-06-21_13h49.37.428,LearnStrategy,2023.2.3,Win32,58.47953216,1,1,8,-0.008333347,0.000925912,1,0,0,0.8795,rock_grid_rect_2,3,08,-1,-1,0.88,0.113888917,-0.239814829,1,0,0,1.4591,Diorite_rect,3,1.459,1,7,0,7,0,1,,,,,,,,,,,,,
66550501336446c73dbbb0cf,TCR,2024-06-21_13h49.37.428,LearnStrategy,2023.2.3,Win32,58.47953216,1,1,9,-0.016666624,-0.008333347,1,0,0,1.047,rock_grid_rect_2,7,08,-1,-1,1.047,0.099074116,-0.40370369,1,0,0,4.8397,Peridotite_rect,7,4.84,1,8,0,8,0,1,,,,,,,,,,,,,
66550501336446c73dbbb0cf,TCR,2024-06-21_13h49.37.428,LearnStrategy,2023.2.3,Win32,58.47953216,1,1,10,-0.026851866,0.020370377,1,0,0,0.9632,rock_grid_rect_2,8,14,-1,-1,0.963,0.40370376,-0.40370369,1,0,0,3.5813,Pumice_rect,8,3.581,1,9,0,9,0,1,,,,,,,,,,,,,
66550501336446c73dbbb0cf,TCR,2024-06-21_13h49.37.428,LearnStrategy,2023.2.3,Win32,58.47953216,1,1,11,-0.030555513,0,1,0,0,0.9138,rock_grid_rect_2,6,09,-1,-1,0.914,0.090740769,-0.393518519,1,0,0,3.8424,Peridotite_rect,7,3.842,0,10,0,10,0,1,,,,,,,,,,,,,
66550501336446c73dbbb0cf,TCR,2024-06-21_13h49.37.428,LearnStrategy,2023.2.3,Win32,58.47953216,1,1,12,0.015740783,-0.006481489,1,0,0,0.9301,rock_grid_rect_2,5,02,-1,-1,0.93,-0.41111109,-0.40370369,1,0,0,2.1584,Obsidian_rect,5,2.158,1,11,0,11,0,1,,,,,,,,,,,,,
66550501336446c73dbbb0cf,TCR,2024-06-21_13h49.37.428,LearnStrategy,2023.2.3,Win32,58.47953216,1,1,13,-0.033333319,0.006481489,1,0,0,2.3624,rock_grid_rect_2,1,09,-1,-1,2.362,-0.398148148,-0.234259288,1,0,0,4.7741,Andesite_rect,1,4.774,1,12,0,12,0,1,,,,,,,,,,,,,
66550501336446c73dbbb0cf,TCR,2024-06-21_13h49.37.428,LearnStrategy,2023.2.3,Win32,58.47953216,1,1,14,0,0.008333312,1,0,0,0.8471,rock_grid_rect_2,8,08,-1,-1,0.847,0.401851937,-0.411111125,1,0,0,3.3062,Pumice_rect,8,3.306,1,13,0,13,0,1,,,,,,,,,,,,,
66550501336446c73dbbb0cf,TCR,2024-06-21_13h49.37.428,LearnStrategy,2023.2.3,Win32,58.47953216,1,1,15,0.007407436,0.003703683,1,0,0,0.98,rock_grid_rect_2,5,07,-1,-1,0.98,-0.363888882,-0.393518519,1,0,0,2.7413,Obsidian_rect,5,2.741,1,14,0,14,0,1,,,,,,,,,,,,,
66550501336446c73dbbb0cf,TCR,2024-06-21_13h49.37.428,LearnStrategy,2023.2.3,Win32,58.47953216,1,1,16,-0.012036995,0.006481489,1,0,0,0.8467,rock_grid_rect_2,1,10,-1,-1,0.847,-0.359259252,-0.26944443,1,0,0,11.435,Andesite_rect,1,11.435,1,15,0,15,0,1,,,,,,,,,,,,,
66550501336446c73dbbb0cf,TCR,2024-06-21_13h49.37.428,LearnStrategy,2023.2.3,Win32,58.47953216,1,2,1,,,,,,,,4,14,,,,,,,,,,,4,13.43,1,,,,,,0.3648149,-0.259259259,1,0,0,13.4302,Gabbro_rect,0,0,0,0,1,
66550501336446c73dbbb0cf,TCR,2024-06-21_13h49.37.428,LearnStrategy,2023.2.3,Win32,58.47953216,1,2,2,,,,,,,,5,05,,,,,,,,,,,5,2.608,1,,,,,,-0.375,-0.386111153,1,0,0,2.6075,Obsidian_rect,1,0,1,0,1,
66550501336446c73dbbb0cf,TCR,2024-06-21_13h49.37.428,LearnStrategy,2023.2.3,Win32,58.47953216,1,2,3,,,,,,,,1,01,,,,,,,,,,,3,8.319,0,,,,,,0.137037065,-0.256481524,1,0,0,8.3187,Diorite_rect,2,0,2,0,1,
66550501336446c73dbbb0cf,TCR,2024-06-21_13h49.37.428,LearnStrategy,2023.2.3,Win32,58.47953216,1,2,4,,,,,,,,3,13,,,,,,,,,,,3,1.725,1,,,,,,0.150925954,-0.248148176,1,0,0,1.7251,Diorite_rect,3,0,3,0,1,
66550501336446c73dbbb0cf,TCR,2024-06-21_13h49.37.428,LearnStrategy,2023.2.3,Win32,58.47953216,1,2,5,,,,,,,,6,10,,,,,,,,,,,6,4.74,1,,,,,,-0.098148134,-0.400925954,1,0,0,4.7399,Pegmatite_rect,4,0,4,0,1,
66550501336446c73dbbb0cf,TCR,2024-06-21_13h49.37.428,LearnStrategy,2023.2.3,Win32,58.47953216,1,2,6,,,,,,,,7,12,,,,,,,,,,,7,7.07,1,,,,,,0.116666653,-0.395370413,1,0,0,7.07,Peridotite_rect,5,0,5,0,1,
66550501336446c73dbbb0cf,TCR,2024-06-21_13h49.37.428,LearnStrategy,2023.2.3,Win32,58.47953216,1,2,7,,,,,,,,7,02,,,,,,,,,,,4,8.702,0,,,,,,0.395370342,-0.249074088,1,0,0,8.7022,Gabbro_rect,6,0,6,0,1,
66550501336446c73dbbb0cf,TCR,2024-06-21_13h49.37.428,LearnStrategy,2023.2.3,Win32,58.47953216,1,2,8,,,,,,,,8,02,,,,,,,,,,,8,2.075,1,,,,,,0.382407436,-0.412037037,1,0,0,2.0746,Pumice_rect,7,0,7,0,1,
66550501336446c73dbbb0cf,TCR,2024-06-21_13h49.37.428,LearnStrategy,2023.2.3,Win32,58.47953216,1,2,9,,,,,,,,2,14,,,,,,,,,,,2,4.249,1,,,,,,-0.17314812,-0.238888917,1,0,0,4.2488,Basalt_rect,8,0,8,0,1,
66550501336446c73dbbb0cf,TCR,2024-06-21_13h49.37.428,LearnStrategy,2023.2.3,Win32,58.47953216,1,2,10,,,,,,,,6,13,,,,,,,,,,,4,11.933,0,,,,,,0.41851849,-0.244444459,1,0,0,11.9335,Gabbro_rect,9,0,9,0,1,
66550501336446c73dbbb0cf,TCR,2024-06-21_13h49.37.428,LearnStrategy,2023.2.3,Win32,58.47953216,1,2,11,,,,,,,,1,16,,,,,,,,,,,1,3.623,1,,,,,,-0.398148148,-0.244444459,1,0,0,3.6228,Andesite_rect,10,0,10,0,1,
66550501336446c73dbbb0cf,TCR,2024-06-21_13h49.37.428,LearnStrategy,2023.2.3,Win32,58.47953216,1,2,12,,,,,,,,8,03,,,,,,,,,,,8,2.092,1,,,,,,0.404629601,-0.409259302,1,0,0,2.0917,Pumice_rect,11,0,11,0,1,
66550501336446c73dbbb0cf,TCR,2024-06-21_13h49.37.428,LearnStrategy,2023.2.3,Win32,58.47953216,1,2,13,,,,,,,,4,12,,,,,,,,,,,2,2.017,0,,,,,,-0.176851838,-0.25,1,0,0,2.0173,Basalt_rect,12,0,12,0,1,
66550501336446c73dbbb0cf,TCR,2024-06-21_13h49.37.428,LearnStrategy,2023.2.3,Win32,58.47953216,1,2,14,,,,,,,,5,12,,,,,,,,,,,5,1.325,1,,,,,,-0.412962949,-0.407407407,1,0,0,1.3247,Obsidian_rect,13,0,13,0,1,
66550501336446c73dbbb0cf,TCR,2024-06-21_13h49.37.428,LearnStrategy,2023.2.3,Win32,58.47953216,1,2,15,,,,,,,,3,15,,,,,,,,,,,3,2.024,1,,,,,,0.167592578,-0.247222265,1,0,0,2.0237,Diorite_rect,14,0,14,0,1,
66550501336446c73dbbb0cf,TCR,2024-06-21_13h49.37.428,LearnStrategy,2023.2.3,Win32,58.47953216,1,2,16,,,,,,,,2,10,,,,,,,,,,,2,2.707,1,,,,,,-0.102777764,-0.244444459,1,0,0,2.7073,Basalt_rect,15,0,15,0,1,
66550501336446c73dbbb0cf,TCR,2024-06-21_13h49.37.428,LearnStrategy,2023.2.3,Win32,58.47953216,2,1,1,0.082407422,0.001851859,1,0,0,1.796,rock_grid_rect_2,1,09,-1,-1,1.796,-0.352777764,-0.242592635,1,0,0,6.2691,Andesite_rect,1,6.269,1,0,0,0,0,1,,,,,,,,,,,,,
66550501336446c73dbbb0cf,TCR,2024-06-21_13h49.37.428,LearnStrategy,2023.2.3,Win32,58.47953216,2,1,2,0.066666709,-0.001851859,1,0,0,1.0304,rock_grid_rect_2,1,07,-1,-1,1.03,0.128703718,-0.258333347,1,0,0,2.8156,Diorite_rect,3,2.816,0,1,0,1,0,1,,,,,,,,,,,,,
66550501336446c73dbbb0cf,TCR,2024-06-21_13h49.37.428,LearnStrategy,2023.2.3,Win32,58.47953216,2,1,3,0.059259273,-0.005555577,1,0,0,1.2465,rock_grid_rect_2,6,12,-1,-1,1.246,0.138888889,-0.24537037,1,0,0,1.6202,Diorite_rect,3,1.62,0,2,0,2,0,1,,,,,,,,,,,,,
66550501336446c73dbbb0cf,TCR,2024-06-21_13h49.37.428,LearnStrategy,2023.2.3,Win32,58.47953216,2,1,4,0.013888889,0.01203703,1,0,0,0.9204,rock_grid_rect_2,4,05,-1,-1,0.92,0.391666695,-0.260185171,1,0,0,4.673,Gabbro_rect,4,4.673,1,3,0,3,0,1,,,,,,,,,,,,,
66550501336446c73dbbb0cf,TCR,2024-06-21_13h49.37.428,LearnStrategy,2023.2.3,Win32,58.47953216,2,1,5,0.029629672,0.003703683,1,0,0,0.8134,rock_grid_rect_2,6,03,-1,-1,0.813,0.112037023,-0.416666667,1,0,0,5.9708,Peridotite_rect,7,5.971,0,4,0,4,0,1,,,,,,,,,,,,,
66550501336446c73dbbb0cf,TCR,2024-06-21_13h49.37.428,LearnStrategy,2023.2.3,Win32,58.47953216,2,1,6,0.08148151,0.013888889,1,0,0,1.0225,rock_grid_rect_2,7,14,-1,-1,1.023,0.050000014,-0.263888889,1,0,0,10.6353,Diorite_rect,3,10.635,0,5,0,5,0,1,,,,,,,,,,,,,
66550501336446c73dbbb0cf,TCR,2024-06-21_13h49.37.428,LearnStrategy,2023.2.3,Win32,58.47953216,2,1,7,0.049074102,0.006481489,1,0,0,0.9058,rock_grid_rect_2,3,11,-1,-1,0.906,0.121296282,-0.235185199,1,0,0,1.7485,Diorite_rect,3,1.748,1,6,0,6,0,1,,,,,,,,,,,,,
66550501336446c73dbbb0cf,TCR,2024-06-21_13h49.37.428,LearnStrategy,2023.2.3,Win32,58.47953216,2,1,8,0.063888903,0.00462963,1,0,0,0.803,rock_grid_rect_2,7,16,-1,-1,0.803,0.373148176,-0.24537037,1,0,0,9.2551,Gabbro_rect,4,9.255,0,7,0,7,0,1,,,,,,,,,,,,,
66550501336446c73dbbb0cf,TCR,2024-06-21_13h49.37.428,LearnStrategy,2023.2.3,Win32,58.47953216,2,1,9,0.002777806,0.006481489,1,0,0,1.4793,rock_grid_rect_2,4,03,-1,-1,1.479,-0.335185192,-0.253703718,1,0,0,4.5735,Andesite_rect,1,4.573,0,8,0,8,0,1,,,,,,,,,,,,,
66550501336446c73dbbb0cf,TCR,2024-06-21_13h49.37.428,LearnStrategy,2023.2.3,Win32,58.47953216,2,1,10,0.031481496,0.01666666,1,0,0,1.0392,rock_grid_rect_2,6,03,-1,-1,1.039,-0.081481439,-0.402777778,1,0,0,5.8703,Pegmatite_rect,6,5.87,1,9,0,9,0,1,,,,,,,,,,,,,
66550501336446c73dbbb0cf,TCR,2024-06-21_13h49.37.428,LearnStrategy,2023.2.3,Win32,58.47953216,2,1,11,0.021296325,0.015740748,1,0,0,0.8302,rock_grid_rect_2,2,16,-1,-1,0.83,-0.134259259,-0.257407436,1,0,0,4.0735,Basalt_rect,2,4.074,1,10,0,10,0,1,,,,,,,,,,,,,
66550501336446c73dbbb0cf,TCR,2024-06-21_13h49.37.428,LearnStrategy,2023.2.3,Win32,58.47953216,2,1,12,0.038888931,0.0074074,1,0,0,0.8303,rock_grid_rect_2,4,05,-1,-1,0.83,0.437037009,-0.231481481,1,0,0,14.7974,Gabbro_rect,4,14.797,1,11,0,11,0,1,,,,,,,,,,,,,
66550501336446c73dbbb0cf,TCR,2024-06-21_13h49.37.428,LearnStrategy,2023.2.3,Win32,58.47953216,2,1,13,0.002777806,0.005555541,1,0,0,0.847,rock_grid_rect_2,1,04,-1,-1,0.847,0.127777806,-0.410185213,1,0,0,9.7851,Peridotite_rect,7,9.785,0,12,0,12,0,1,,,,,,,,,,,,,
66550501336446c73dbbb0cf,TCR,2024-06-21_13h49.37.428,LearnStrategy,2023.2.3,Win32,58.47953216,2,1,14,-0.002777735,-0.00462963,1,0,0,0.9628,rock_grid_rect_2,5,07,-1,-1,0.963,-0.404629637,-0.410185213,1,0,0,2.1089,Obsidian_rect,5,2.109,1,13,0,13,0,1,,,,,,,,,,,,,
66550501336446c73dbbb0cf,TCR,2024-06-21_13h49.37.428,LearnStrategy,2023.2.3,Win32,58.47953216,2,1,15,-0.022222236,0.017592571,1,0,0,0.9138,rock_grid_rect_2,7,14,-1,-1,0.914,0.115740741,-0.40370369,1,0,0,2.8924,Peridotite_rect,7,2.892,1,14,0,14,0,1,,,,,,,,,,,,,
66550501336446c73dbbb0cf,TCR,2024-06-21_13h49.37.428,LearnStrategy,2023.2.3,Win32,58.47953216,2,1,16,-0.026851866,-0.012962977,1,0,0,0.8801,rock_grid_rect_2,4,15,-1,-1,0.88,-0.10092594,-0.39907406,1,0,0,20.0758,Pegmatite_rect,6,20.076,0,15,0,15,0,1,,,,,,,,,,,,,
66550501336446c73dbbb0cf,TCR,2024-06-21_13h49.37.428,LearnStrategy,2023.2.3,Win32,58.47953216,2,2,1,,,,,,,,5,04,,,,,,,,,,,5,3.373,1,,,,,,-0.372222229,-0.384259259,1,0,0,3.3731,Obsidian_rect,0,0,0,0,1,
66550501336446c73dbbb0cf,TCR,2024-06-21_13h49.37.428,LearnStrategy,2023.2.3,Win32,58.47953216,2,2,2,,,,,,,,7,15,,,,,,,,,,,7,2.258,1,,,,,,0.112963005,-0.396296325,1,0,0,2.2579,Peridotite_rect,1,0,1,0,1,
66550501336446c73dbbb0cf,TCR,2024-06-21_13h49.37.428,LearnStrategy,2023.2.3,Win32,58.47953216,2,2,3,,,,,,,,8,05,,,,,,,,,,,8,2.808,1,,,,,,0.344444416,-0.398148148,1,0,0,2.8077,Pumice_rect,2,0,2,0,1,
66550501336446c73dbbb0cf,TCR,2024-06-21_13h49.37.428,LearnStrategy,2023.2.3,Win32,58.47953216,2,2,4,,,,,,,,6,15,,,,,,,,,,,6,5.071,1,,,,,,-0.102777764,-0.406481496,1,0,0,5.0711,Pegmatite_rect,3,0,3,0,1,
66550501336446c73dbbb0cf,TCR,2024-06-21_13h49.37.428,LearnStrategy,2023.2.3,Win32,58.47953216,2,2,5,,,,,,,,2,12,,,,,,,,,,,1,5.971,0,,,,,,-0.36296297,-0.249074088,1,0,0,5.9707,Andesite_rect,4,0,4,0,1,
66550501336446c73dbbb0cf,TCR,2024-06-21_13h49.37.428,LearnStrategy,2023.2.3,Win32,58.47953216,2,2,6,,,,,,,,4,13,,,,,,,,,,,4,2.983,1,,,,,,0.389814871,-0.24537037,1,0,0,2.9829,Gabbro_rect,5,0,5,0,1,
66550501336446c73dbbb0cf,TCR,2024-06-21_13h49.37.428,LearnStrategy,2023.2.3,Win32,58.47953216,2,2,7,,,,,,,,3,10,,,,,,,,,,,3,5.836,1,,,,,,0.111111111,-0.25,1,0,0,5.8364,Diorite_rect,6,0,6,0,1,
66550501336446c73dbbb0cf,TCR,2024-06-21_13h49.37.428,LearnStrategy,2023.2.3,Win32,58.47953216,2,2,8,,,,,,,,4,08,,,,,,,,,,,2,7.086,0,,,,,,-0.146296254,-0.259259259,1,0,0,7.0859,Basalt_rect,7,0,7,0,1,
66550501336446c73dbbb0cf,TCR,2024-06-21_13h49.37.428,LearnStrategy,2023.2.3,Win32,58.47953216,2,2,9,,,,,,,,5,08,,,,,,,,,,,5,2.641,1,,,,,,-0.413888896,-0.401851866,1,0,0,2.6406,Obsidian_rect,8,0,8,0,1,
66550501336446c73dbbb0cf,TCR,2024-06-21_13h49.37.428,LearnStrategy,2023.2.3,Win32,58.47953216,2,2,10,,,,,,,,6,11,,,,,,,,,,,5,6.004,0,,,,,,-0.36296297,-0.400000042,1,0,0,6.0042,Obsidian_rect,9,0,9,0,1,
66550501336446c73dbbb0cf,TCR,2024-06-21_13h49.37.428,LearnStrategy,2023.2.3,Win32,58.47953216,2,2,11,,,,,,,,8,06,,,,,,,,,,,8,3.806,1,,,,,,0.414814843,-0.400000042,1,0,0,3.8062,Pumice_rect,10,0,10,0,1,
66550501336446c73dbbb0cf,TCR,2024-06-21_13h49.37.428,LearnStrategy,2023.2.3,Win32,58.47953216,2,2,12,,,,,,,,1,05,,,,,,,,,,,4,13.681,0,,,,,,0.388888889,-0.246296282,1,0,0,13.6807,Gabbro_rect,11,0,11,0,1,
66550501336446c73dbbb0cf,TCR,2024-06-21_13h49.37.428,LearnStrategy,2023.2.3,Win32,58.47953216,2,2,13,,,,,,,,1,02,,,,,,,,,,,6,12.914,0,,,,,,-0.111111111,-0.387037065,1,0,0,12.9137,Pegmatite_rect,12,0,12,0,1,
66550501336446c73dbbb0cf,TCR,2024-06-21_13h49.37.428,LearnStrategy,2023.2.3,Win32,58.47953216,2,2,14,,,,,,,,3,14,,,,,,,,,,,3,2.258,1,,,,,,0.162037037,-0.263888889,1,0,0,2.258,Diorite_rect,13,0,13,0,1,
66550501336446c73dbbb0cf,TCR,2024-06-21_13h49.37.428,LearnStrategy,2023.2.3,Win32,58.47953216,2,2,15,,,,,,,,2,01,,,,,,,,,,,2,2.641,1,,,,,,-0.133333347,-0.257407436,1,0,0,2.6413,Basalt_rect,14,0,14,0,1,
66550501336446c73dbbb0cf,TCR,2024-06-21_13h49.37.428,LearnStrategy,2023.2.3,Win32,58.47953216,2,2,16,,,,,,,,7,06,,,,,,,,,,,7,2.69,1,,,,,,0.098148134,-0.407407407,1,0,0,2.6902,Peridotite_rect,15,0,15,0,1,
66550501336446c73dbbb0cf,TCR,2024-06-21_13h49.37.428,LearnStrategy,2023.2.3,Win32,58.47953216,3,1,1,0.077777792,-0.01203703,1,0,0,1.547,rock_grid_rect_2,6,03,-1,-1,1.547,0.107407393,-0.411111125,1,0,0,2.2577,Peridotite_rect,7,2.258,0,0,0,0,0,1,,,,,,,,,,,,,
66550501336446c73dbbb0cf,TCR,2024-06-21_13h49.37.428,LearnStrategy,2023.2.3,Win32,58.47953216,3,1,2,0.063888903,-0.012962977,1,0,0,1.1136,rock_grid_rect_2,4,15,-1,-1,1.114,0.373148176,-0.240740741,1,0,0,3.5395,Gabbro_rect,4,3.54,1,1,0,1,0,1,,,,,,,,,,,,,
66550501336446c73dbbb0cf,TCR,2024-06-21_13h49.37.428,LearnStrategy,2023.2.3,Win32,58.47953216,3,1,3,0.002777806,0.021296289,1,0,0,0.9969,rock_grid_rect_2,2,08,-1,-1,0.997,-0.126851824,-0.236111111,1,0,0,1.1432,Basalt_rect,2,1.143,1,2,0,2,0,1,,,,,,,,,,,,,
66550501336446c73dbbb0cf,TCR,2024-06-21_13h49.37.428,LearnStrategy,2023.2.3,Win32,58.47953216,3,1,4,-0.011111083,-0.021296289,1,0,0,1.0308,rock_grid_rect_2,1,07,-1,-1,1.031,0.084259245,-0.241666653,1,0,0,2.6253,Diorite_rect,3,2.625,0,3,0,3,0,1,,,,,,,,,,,,,
66550501336446c73dbbb0cf,TCR,2024-06-21_13h49.37.428,LearnStrategy,2023.2.3,Win32,58.47953216,3,1,5,-0.005555541,0.011111118,1,0,0,0.9223,rock_grid_rect_2,1,06,-1,-1,0.922,0.115740741,-0.257407436,1,0,0,4.3734,Diorite_rect,3,4.373,0,4,0,4,0,1,,,,,,,,,,,,,
66550501336446c73dbbb0cf,TCR,2024-06-21_13h49.37.428,LearnStrategy,2023.2.3,Win32,58.47953216,3,1,6,0.039814843,-0.01666666,1,0,0,0.9633,rock_grid_rect_2,4,05,-1,-1,0.963,0.385185242,-0.262037065,1,0,0,4.9565,Gabbro_rect,4,4.957,1,5,0,5,0,1,,,,,,,,,,,,,
66550501336446c73dbbb0cf,TCR,2024-06-21_13h49.37.428,LearnStrategy,2023.2.3,Win32,58.47953216,3,1,7,0.012962977,-0.0074074,1,0,0,0.8636,rock_grid_rect_2,7,13,-1,-1,0.864,0.139814801,-0.380555541,1,0,0,3.0435,Peridotite_rect,7,3.043,1,6,0,6,0,1,,,,,,,,,,,,,
66550501336446c73dbbb0cf,TCR,2024-06-21_13h49.37.428,LearnStrategy,2023.2.3,Win32,58.47953216,3,1,8,0.021296325,-0.001851859,1,0,0,0.7968,rock_grid_rect_2,2,11,-1,-1,0.797,-0.37037037,-0.237037023,1,0,0,4.5407,Andesite_rect,1,4.541,0,7,0,7,0,1,,,,,,,,,,,,,
66550501336446c73dbbb0cf,TCR,2024-06-21_13h49.37.428,LearnStrategy,2023.2.3,Win32,58.47953216,3,1,9,-0.017592607,-0.020370377,1,0,0,1.4299,rock_grid_rect_2,8,04,-1,-1,1.43,0.37037037,-0.380555541,1,0,0,3.9404,Pumice_rect,8,3.94,1,8,0,8,0,1,,,,,,,,,,,,,
66550501336446c73dbbb0cf,TCR,2024-06-21_13h49.37.428,LearnStrategy,2023.2.3,Win32,58.47953216,3,1,10,-0.037962949,0.011111118,1,0,0,0.697,rock_grid_rect_2,6,05,-1,-1,0.697,-0.421296296,-0.388888889,1,0,0,5.3053,Obsidian_rect,5,5.305,0,9,0,9,0,1,,,,,,,,,,,,,
66550501336446c73dbbb0cf,TCR,2024-06-21_13h49.37.428,LearnStrategy,2023.2.3,Win32,58.47953216,3,1,11,-0.015740712,-0.023148148,1,0,0,1.1302,rock_grid_rect_2,6,09,-1,-1,1.13,-0.07222218,-0.398148148,1,0,0,5.5391,Pegmatite_rect,6,5.539,1,10,0,10,0,1,,,,,,,,,,,,,
66550501336446c73dbbb0cf,TCR,2024-06-21_13h49.37.428,LearnStrategy,2023.2.3,Win32,58.47953216,3,1,12,0.090740769,-0.000925947,1,0,0,0.7805,rock_grid_rect_2,1,09,-1,-1,0.781,-0.37037037,-0.259259259,1,0,0,4.357,Andesite_rect,1,4.357,1,11,0,11,0,1,,,,,,,,,,,,,
66550501336446c73dbbb0cf,TCR,2024-06-21_13h49.37.428,LearnStrategy,2023.2.3,Win32,58.47953216,3,1,13,-0.009259259,-0.008333347,1,0,0,0.8799,rock_grid_rect_2,3,08,-1,-1,0.88,0.155555584,-0.257407436,1,0,0,1.5096,Diorite_rect,3,1.51,1,12,0,12,0,1,,,,,,,,,,,,,
66550501336446c73dbbb0cf,TCR,2024-06-21_13h49.37.428,LearnStrategy,2023.2.3,Win32,58.47953216,3,1,14,0.027777778,-0.010185206,1,0,0,0.7308,rock_grid_rect_2,4,16,-1,-1,0.731,-0.101851852,-0.265740783,1,0,0,4.1654,Basalt_rect,2,4.165,0,13,0,13,0,1,,,,,,,,,,,,,
66550501336446c73dbbb0cf,TCR,2024-06-21_13h49.37.428,LearnStrategy,2023.2.3,Win32,58.47953216,3,1,15,0.00462963,0,1,0,0,0.9113,rock_grid_rect_2,1,07,-1,-1,0.911,-0.437962956,-0.23055557,1,0,0,2.4275,Andesite_rect,1,2.428,1,14,0,14,0,1,,,,,,,,,,,,,
66550501336446c73dbbb0cf,TCR,2024-06-21_13h49.37.428,LearnStrategy,2023.2.3,Win32,58.47953216,3,1,16,-0.040740755,-0.019444466,1,0,0,0.8159,rock_grid_rect_2,5,02,-1,-1,0.816,-0.342592593,-0.413888931,1,0,0,1.1979,Obsidian_rect,5,1.198,1,15,0,15,0,1,,,,,,,,,,,,,
66550501336446c73dbbb0cf,TCR,2024-06-21_13h49.37.428,LearnStrategy,2023.2.3,Win32,58.47953216,3,2,1,,,,,,,,5,14,,,,,,,,,,,5,1.418,1,,,,,,-0.354629623,-0.417592578,1,0,0,1.4176,Obsidian_rect,0,0,0,0,1,
66550501336446c73dbbb0cf,TCR,2024-06-21_13h49.37.428,LearnStrategy,2023.2.3,Win32,58.47953216,3,2,2,,,,,,,,6,08,,,,,,,,,,,6,3.507,1,,,,,,-0.097222222,-0.401851866,1,0,0,3.5072,Pegmatite_rect,1,0,1,0,1,
66550501336446c73dbbb0cf,TCR,2024-06-21_13h49.37.428,LearnStrategy,2023.2.3,Win32,58.47953216,3,2,3,,,,,,,,7,05,,,,,,,,,,,7,1.675,1,,,,,,0.112963005,-0.404629672,1,0,0,1.6747,Peridotite_rect,2,0,2,0,1,
66550501336446c73dbbb0cf,TCR,2024-06-21_13h49.37.428,LearnStrategy,2023.2.3,Win32,58.47953216,3,2,4,,,,,,,,3,02,,,,,,,,,,,3,1.108,1,,,,,,0.148148148,-0.239814829,1,0,0,1.1083,Diorite_rect,3,0,3,0,1,
66550501336446c73dbbb0cf,TCR,2024-06-21_13h49.37.428,LearnStrategy,2023.2.3,Win32,58.47953216,3,2,5,,,,,,,,4,11,,,,,,,,,,,2,1.907,0,,,,,,-0.131481453,-0.235185199,1,0,0,1.9075,Basalt_rect,4,0,4,0,1,
66550501336446c73dbbb0cf,TCR,2024-06-21_13h49.37.428,LearnStrategy,2023.2.3,Win32,58.47953216,3,2,6,,,,,,,,2,04,,,,,,,,,,,2,1.352,1,,,,,,-0.131481453,-0.235185199,1,0,0,1.352,Basalt_rect,5,0,5,0,1,
66550501336446c73dbbb0cf,TCR,2024-06-21_13h49.37.428,LearnStrategy,2023.2.3,Win32,58.47953216,3,2,7,,,,,,,,3,16,,,,,,,,,,,3,10.217,1,,,,,,0.087037051,-0.241666653,1,0,0,10.2172,Diorite_rect,6,0,6,0,1,
66550501336446c73dbbb0cf,TCR,2024-06-21_13h49.37.428,LearnStrategy,2023.2.3,Win32,58.47953216,3,2,8,,,,,,,,2,02,,,,,,,,,,,2,14.247,1,,,,,,-0.166666667,-0.236111111,1,0,0,14.2467,Basalt_rect,7,0,7,0,1,
66550501336446c73dbbb0cf,TCR,2024-06-21_13h49.37.428,LearnStrategy,2023.2.3,Win32,58.47953216,3,2,9,,,,,,,,8,15,,,,,,,,,,,8,5.473,1,,,,,,0.414814843,-0.386111153,1,0,0,5.473,Pumice_rect,8,0,8,0,1,
66550501336446c73dbbb0cf,TCR,2024-06-21_13h49.37.428,LearnStrategy,2023.2.3,Win32,58.47953216,3,2,10,,,,,,,,6,07,,,,,,,,,,,6,2.246,1,,,,,,-0.166666667,-0.409259302,1,0,0,2.2464,Pegmatite_rect,9,0,9,0,1,
66550501336446c73dbbb0cf,TCR,2024-06-21_13h49.37.428,LearnStrategy,2023.2.3,Win32,58.47953216,3,2,11,,,,,,,,7,04,,,,,,,,,,,7,10.085,1,,,,,,0.163888931,-0.401851866,1,0,0,10.0855,Peridotite_rect,10,0,10,0,1,
66550501336446c73dbbb0cf,TCR,2024-06-21_13h49.37.428,LearnStrategy,2023.2.3,Win32,58.47953216,3,2,12,,,,,,,,4,01,,,,,,,,,,,1,6.803,0,,,,,,-0.349074081,-0.241666653,1,0,0,6.803,Andesite_rect,11,0,11,0,1,
66550501336446c73dbbb0cf,TCR,2024-06-21_13h49.37.428,LearnStrategy,2023.2.3,Win32,58.47953216,3,2,13,,,,,,,,8,16,,,,,,,,,,,8,2.192,1,,,,,,0.404629601,-0.387037065,1,0,0,2.1917,Pumice_rect,12,0,12,0,1,
66550501336446c73dbbb0cf,TCR,2024-06-21_13h49.37.428,LearnStrategy,2023.2.3,Win32,58.47953216,3,2,14,,,,,,,,1,14,,,,,,,,,,,6,20.259,0,,,,,,-0.172222208,-0.400925954,1,0,0,20.2585,Pegmatite_rect,13,0,13,0,1,
66550501336446c73dbbb0cf,TCR,2024-06-21_13h49.37.428,LearnStrategy,2023.2.3,Win32,58.47953216,3,2,15,,,,,,,,1,11,,,,,,,,,,,1,3.008,1,,,,,,-0.412037037,-0.249074088,1,0,0,3.0078,Andesite_rect,14,0,14,0,1,
66550501336446c73dbbb0cf,TCR,2024-06-21_13h49.37.428,LearnStrategy,2023.2.3,Win32,58.47953216,3,2,16,,,,,,,,5,06,,,,,,,,,,,5,1.676,1,,,,,,-0.387962942,-0.414814843,1,0,0,1.6759,Obsidian_rect,15,0,15,0,1,
66550501336446c73dbbb0cf,TCR,2024-06-21_13h49.37.428,LearnStrategy,2023.2.3,Win32,58.47953216,4,1,1,0.070370356,0.006481489,1,0,0,1.3467,rock_grid_rect_2,4,15,-1,-1,1.347,0.374074159,-0.262962977,1,0,0,3.3255,Gabbro_rect,4,3.325,1,0,0,0,0,1,,,,,,,,,,,,,
66550501336446c73dbbb0cf,TCR,2024-06-21_13h49.37.428,LearnStrategy,2023.2.3,Win32,58.47953216,4,1,2,0.016666695,0.012962942,1,0,0,0.8468,rock_grid_rect_2,6,16,-1,-1,0.847,-0.069444444,-0.396296325,1,0,0,2.4415,Pegmatite_rect,6,2.442,1,1,0,1,0,1,,,,,,,,,,,,,
66550501336446c73dbbb0cf,TCR,2024-06-21_13h49.37.428,LearnStrategy,2023.2.3,Win32,58.47953216,4,1,3,-0.017592607,-0.023148148,1,0,0,1.3463,rock_grid_rect_2,1,09,-1,-1,1.346,-0.366666653,-0.242592635,1,0,0,2.1754,Andesite_rect,1,2.175,1,2,0,2,0,1,,,,,,,,,,,,,
66550501336446c73dbbb0cf,TCR,2024-06-21_13h49.37.428,LearnStrategy,2023.2.3,Win32,58.47953216,4,1,4,0.058333362,0.003703683,1,0,0,0.7308,rock_grid_rect_2,7,16,-1,-1,0.731,0.15370369,-0.419444473,1,0,0,1.4259,Peridotite_rect,7,1.426,1,3,0,3,0,1,,,,,,,,,,,,,
66550501336446c73dbbb0cf,TCR,2024-06-21_13h49.37.428,LearnStrategy,2023.2.3,Win32,58.47953216,4,1,5,0.031481496,-0.012962977,1,0,0,0.7306,rock_grid_rect_2,2,06,-1,-1,0.731,-0.130555541,-0.24537037,1,0,0,2.6751,Basalt_rect,2,2.675,1,4,0,4,0,1,,,,,,,,,,,,,
66550501336446c73dbbb0cf,TCR,2024-06-21_13h49.37.428,LearnStrategy,2023.2.3,Win32,58.47953216,4,1,6,0.001851894,0.001851859,1,0,0,1.0132,rock_grid_rect_2,2,11,-1,-1,1.013,-0.162037037,-0.25,1,0,0,4.44,Basalt_rect,2,4.44,1,5,0,5,0,1,,,,,,,,,,,,,
66550501336446c73dbbb0cf,TCR,2024-06-21_13h49.37.428,LearnStrategy,2023.2.3,Win32,58.47953216,4,1,7,0.031481496,0.003703683,1,0,0,0.7639,rock_grid_rect_2,4,10,-1,-1,0.764,0.387963048,-0.23055557,1,0,0,7.8368,Gabbro_rect,4,7.837,1,6,0,6,0,1,,,,,,,,,,,,,
66550501336446c73dbbb0cf,TCR,2024-06-21_13h49.37.428,LearnStrategy,2023.2.3,Win32,58.47953216,4,1,8,-0.012962977,-0.008333347,1,0,0,0.8964,rock_grid_rect_2,4,05,-1,-1,0.896,0.382407436,-0.239814829,1,0,0,2.2604,Gabbro_rect,4,2.26,1,7,0,7,0,1,,,,,,,,,,,,,
66550501336446c73dbbb0cf,TCR,2024-06-21_13h49.37.428,LearnStrategy,2023.2.3,Win32,58.47953216,4,1,9,0.048148191,0.013888889,1,0,0,0.7471,rock_grid_rect_2,1,10,-1,-1,0.747,-0.12037037,-0.255555541,1,0,0,7.7377,Basalt_rect,2,7.738,0,8,0,8,0,1,,,,,,,,,,,,,
66550501336446c73dbbb0cf,TCR,2024-06-21_13h49.37.428,LearnStrategy,2023.2.3,Win32,58.47953216,4,1,10,0.040740755,-0.008333347,1,0,0,1.2134,rock_grid_rect_2,3,08,-1,-1,1.213,0.146296325,-0.251851894,1,0,0,1.3596,Diorite_rect,3,1.36,1,9,0,9,0,1,,,,,,,,,,,,,
66550501336446c73dbbb0cf,TCR,2024-06-21_13h49.37.428,LearnStrategy,2023.2.3,Win32,58.47953216,4,1,11,0.010185171,0.021296289,1,0,0,0.8469,rock_grid_rect_2,5,11,-1,-1,0.847,-0.362037023,-0.391666695,1,0,0,1.2264,Obsidian_rect,5,1.226,1,10,0,10,0,1,,,,,,,,,,,,,
66550501336446c73dbbb0cf,TCR,2024-06-21_13h49.37.428,LearnStrategy,2023.2.3,Win32,58.47953216,4,1,12,-0.02407406,0.002777771,1,0,0,1.3298,rock_grid_rect_2,4,10,-1,-1,1.33,0.419444473,-0.262962977,1,0,0,1.9258,Gabbro_rect,4,1.926,1,11,0,11,0,1,,,,,,,,,,,,,
66550501336446c73dbbb0cf,TCR,2024-06-21_13h49.37.428,LearnStrategy,2023.2.3,Win32,58.47953216,4,1,13,0.02870369,-0.001851859,1,0,0,0.7477,rock_grid_rect_2,1,10,-1,-1,0.748,-0.397222201,-0.26944443,1,0,0,2.8906,Andesite_rect,1,2.891,1,12,0,12,0,1,,,,,,,,,,,,,
66550501336446c73dbbb0cf,TCR,2024-06-21_13h49.37.428,LearnStrategy,2023.2.3,Win32,58.47953216,4,1,14,-0.035185143,-0.011111118,1,0,0,0.8136,rock_grid_rect_2,6,05,-1,-1,0.814,-0.116666653,-0.395370413,1,0,0,1.9257,Pegmatite_rect,6,1.926,1,13,0,13,0,1,,,,,,,,,,,,,
66550501336446c73dbbb0cf,TCR,2024-06-21_13h49.37.428,LearnStrategy,2023.2.3,Win32,58.47953216,4,1,15,0.022222236,0.006481489,1,0,0,0.78,rock_grid_rect_2,1,04,-1,-1,0.78,-0.366666653,-0.255555541,1,0,0,17.3458,Andesite_rect,1,17.346,1,14,0,14,0,1,,,,,,,,,,,,,
66550501336446c73dbbb0cf,TCR,2024-06-21_13h49.37.428,LearnStrategy,2023.2.3,Win32,58.47953216,4,1,16,0.021296325,-0.01666666,1,0,0,0.8975,rock_grid_rect_2,4,09,-1,-1,0.898,0.389814871,-0.240740741,1,0,0,1.7894,Gabbro_rect,4,1.789,1,15,0,15,0,1,,,,,,,,,,,,,
66550501336446c73dbbb0cf,TCR,2024-06-21_13h49.37.428,LearnStrategy,2023.2.3,Win32,58.47953216,4,2,1,,,,,,,,3,10,,,,,,,,,,,3,14.38,1,,,,,,0.109259288,-0.239814829,1,0,0,14.3803,Diorite_rect,0,0,0,0,1,
66550501336446c73dbbb0cf,TCR,2024-06-21_13h49.37.428,LearnStrategy,2023.2.3,Win32,58.47953216,4,2,2,,,,,,,,4,08,,,,,,,,,,,4,4.684,1,,,,,,0.395370342,-0.248148176,1,0,0,4.6835,Gabbro_rect,1,0,1,0,1,
66550501336446c73dbbb0cf,TCR,2024-06-21_13h49.37.428,LearnStrategy,2023.2.3,Win32,58.47953216,4,2,3,,,,,,,,4,13,,,,,,,,,,,4,1.858,1,,,,,,0.371296353,-0.240740741,1,0,0,1.8578,Gabbro_rect,2,0,2,0,1,
66550501336446c73dbbb0cf,TCR,2024-06-21_13h49.37.428,LearnStrategy,2023.2.3,Win32,58.47953216,4,2,4,,,,,,,,1,14,,,,,,,,,,,1,8.819,1,,,,,,-0.312037044,-0.25462963,1,0,0,8.8187,Andesite_rect,3,0,3,0,1,
66550501336446c73dbbb0cf,TCR,2024-06-21_13h49.37.428,LearnStrategy,2023.2.3,Win32,58.47953216,4,2,5,,,,,,,,6,08,,,,,,,,,,,6,1.358,1,,,,,,-0.114814829,-0.389814801,1,0,0,1.3582,Pegmatite_rect,4,0,4,0,1,
66550501336446c73dbbb0cf,TCR,2024-06-21_13h49.37.428,LearnStrategy,2023.2.3,Win32,58.47953216,4,2,6,,,,,,,,3,16,,,,,,,,,,,3,1.375,1,,,,,,0.164814843,-0.246296282,1,0,0,1.3755,Diorite_rect,5,0,5,0,1,
66550501336446c73dbbb0cf,TCR,2024-06-21_13h49.37.428,LearnStrategy,2023.2.3,Win32,58.47953216,4,2,7,,,,,,,,5,04,,,,,,,,,,,5,2.191,1,,,,,,-0.417592578,-0.410185213,1,0,0,2.1905,Obsidian_rect,6,0,6,0,1,
66550501336446c73dbbb0cf,TCR,2024-06-21_13h49.37.428,LearnStrategy,2023.2.3,Win32,58.47953216,4,2,8,,,,,,,,6,10,,,,,,,,,,,6,7.653,1,,,,,,-0.09629631,-0.40370369,1,0,0,7.6534,Pegmatite_rect,7,0,7,0,1,
66550501336446c73dbbb0cf,TCR,2024-06-21_13h49.37.428,LearnStrategy,2023.2.3,Win32,58.47953216,4,2,9,,,,,,,,7,02,,,,,,,,,,,7,1.682,1,,,,,,0.112037023,-0.409259302,1,0,0,1.6816,Peridotite_rect,8,0,8,0,1,
66550501336446c73dbbb0cf,TCR,2024-06-21_13h49.37.428,LearnStrategy,2023.2.3,Win32,58.47953216,4,2,10,,,,,,,,2,01,,,,,,,,,,,2,1.266,1,,,,,,-0.075925898,-0.264814801,1,0,0,1.2664,Basalt_rect,9,0,9,0,1,
66550501336446c73dbbb0cf,TCR,2024-06-21_13h49.37.428,LearnStrategy,2023.2.3,Win32,58.47953216,4,2,11,,,,,,,,5,06,,,,,,,,,,,5,1.206,1,,,,,,-0.329629616,-0.401851866,1,0,0,1.2061,Obsidian_rect,10,0,10,0,1,
66550501336446c73dbbb0cf,TCR,2024-06-21_13h49.37.428,LearnStrategy,2023.2.3,Win32,58.47953216,4,2,12,,,,,,,,8,05,,,,,,,,,,,8,1.392,1,,,,,,0.335185157,-0.412962949,1,0,0,1.3918,Pumice_rect,11,0,11,0,1,
66550501336446c73dbbb0cf,TCR,2024-06-21_13h49.37.428,LearnStrategy,2023.2.3,Win32,58.47953216,4,2,13,,,,,,,,8,16,,,,,,,,,,,8,1.483,1,,,,,,0.426851908,-0.401851866,1,0,0,1.4828,Pumice_rect,12,0,12,0,1,
66550501336446c73dbbb0cf,TCR,2024-06-21_13h49.37.428,LearnStrategy,2023.2.3,Win32,58.47953216,4,2,14,,,,,,,,1,11,,,,,,,,,,,1,17.111,1,,,,,,-0.39444443,-0.229629658,1,0,0,17.1105,Andesite_rect,13,0,13,0,1,
66550501336446c73dbbb0cf,TCR,2024-06-21_13h49.37.428,LearnStrategy,2023.2.3,Win32,58.47953216,4,2,15,,,,,,,,7,05,,,,,,,,,,,7,3.89,1,,,,,,0.159259302,-0.383333347,1,0,0,3.8899,Peridotite_rect,14,0,14,0,1,
66550501336446c73dbbb0cf,TCR,2024-06-21_13h49.37.428,LearnStrategy,2023.2.3,Win32,58.47953216,4,2,16,,,,,,,,2,12,,,,,,,,,,,1,4.489,0,,,,,,-0.319444444,-0.267592607,1,0,0,4.4893,Andesite_rect,15,0,15,0,1,
66550501336446c73dbbb0cf,TCR,2024-06-21_13h49.37.428,LearnStrategy,2023.2.3,Win32,58.47953216,5,1,1,-0.021296254,-0.009259259,1,0,0,1.6624,rock_grid_rect_2,1,09,-1,-1,1.662,-0.341666645,-0.261111153,1,0,0,3.8406,Andesite_rect,1,3.841,1,0,0,0,0,1,,,,,,,,,,,,,
66550501336446c73dbbb0cf,TCR,2024-06-21_13h49.37.428,LearnStrategy,2023.2.3,Win32,58.47953216,5,1,2,-0.080555527,0.010185171,1,0,0,1.0306,rock_grid_rect_2,6,12,-1,-1,1.031,0.119444459,-0.262037065,1,0,0,3.1079,Diorite_rect,3,3.108,0,1,0,1,0,1,,,,,,,,,,,,,
66550501336446c73dbbb0cf,TCR,2024-06-21_13h49.37.428,LearnStrategy,2023.2.3,Win32,58.47953216,5,1,3,-0.005555541,0.00462963,1,0,0,1.0303,rock_grid_rect_2,4,16,-1,-1,1.03,0.354629658,-0.247222265,1,0,0,1.5387,Gabbro_rect,4,1.539,1,2,0,2,0,1,,,,,,,,,,,,,
66550501336446c73dbbb0cf,TCR,2024-06-21_13h49.37.428,LearnStrategy,2023.2.3,Win32,58.47953216,5,1,4,0.029629672,0,1,0,0,0.8306,rock_grid_rect_2,7,16,-1,-1,0.831,0.125,-0.392592607,1,0,0,1.4983,Peridotite_rect,7,1.498,1,3,0,3,0,1,,,,,,,,,,,,,
66550501336446c73dbbb0cf,TCR,2024-06-21_13h49.37.428,LearnStrategy,2023.2.3,Win32,58.47953216,5,1,5,-0.017592607,-0.020370377,1,0,0,0.7637,rock_grid_rect_2,8,08,-1,-1,0.764,0.361111111,-0.39907406,0,0,1,2.0257,Pumice_rect,8,2.026,1,4,0,4,0,1,,,,,,,,,,,,,
66550501336446c73dbbb0cf,TCR,2024-06-21_13h49.37.428,LearnStrategy,2023.2.3,Win32,58.47953216,5,1,6,-0.037962949,-0.011111118,1,0,0,0.8161,rock_grid_rect_2,2,08,-1,-1,0.816,-0.14444443,-0.25,1,0,0,1.2278,Basalt_rect,2,1.228,1,5,0,5,0,1,,,,,,,,,,,,,
66550501336446c73dbbb0cf,TCR,2024-06-21_13h49.37.428,LearnStrategy,2023.2.3,Win32,58.47953216,5,1,7,-0.024999972,-0.010185206,1,0,0,0.7332,rock_grid_rect_2,3,12,-1,-1,0.733,0.130555541,-0.250925912,1,0,0,15.1091,Diorite_rect,3,15.109,1,6,0,6,0,1,,,,,,,,,,,,,
66550501336446c73dbbb0cf,TCR,2024-06-21_13h49.37.428,LearnStrategy,2023.2.3,Win32,58.47953216,5,1,8,-0.025925884,-0.008333347,1,0,0,1.2965,rock_grid_rect_2,4,03,-1,-1,1.297,-0.446296303,-0.265740783,1,0,0,3.1084,Andesite_rect,1,3.108,0,7,0,7,0,1,,,,,,,,,,,,,
66550501336446c73dbbb0cf,TCR,2024-06-21_13h49.37.428,LearnStrategy,2023.2.3,Win32,58.47953216,5,1,9,0.000925912,-0.011111118,1,0,0,0.8727,rock_grid_rect_2,4,10,-1,-1,0.873,0.385185242,-0.237963005,0,0,1,1.5592,Gabbro_rect,4,1.559,1,8,0,8,0,1,,,,,,,,,,,,,
66550501336446c73dbbb0cf,TCR,2024-06-21_13h49.37.428,LearnStrategy,2023.2.3,Win32,58.47953216,5,1,10,-0.090740698,0.001851859,1,0,0,1.2964,rock_grid_rect_2,6,09,-1,-1,1.296,-0.108333305,-0.396296325,1,0,0,7.6366,Pegmatite_rect,6,7.637,1,9,0,9,0,1,,,,,,,,,,,,,
66550501336446c73dbbb0cf,TCR,2024-06-21_13h49.37.428,LearnStrategy,2023.2.3,Win32,58.47953216,5,1,11,0.011111153,0.014814801,1,0,0,0.6468,rock_grid_rect_2,5,16,-1,-1,0.647,-0.360185164,-0.389814801,1,0,0,1.1686,Obsidian_rect,5,1.169,1,10,0,10,0,1,,,,,,,,,,,,,
66550501336446c73dbbb0cf,TCR,2024-06-21_13h49.37.428,LearnStrategy,2023.2.3,Win32,58.47953216,5,1,12,-0.074074074,-0.017592607,1,0,0,0.7484,rock_grid_rect_2,2,16,-1,-1,0.748,-0.102777764,-0.231481481,1,0,0,2.8046,Basalt_rect,2,2.805,1,11,0,11,0,1,,,,,,,,,,,,,
66550501336446c73dbbb0cf,TCR,2024-06-21_13h49.37.428,LearnStrategy,2023.2.3,Win32,58.47953216,5,1,13,-0.000925912,0.011111118,1,0,0,0.6101,rock_grid_rect_2,1,03,-1,-1,0.61,-0.414814808,-0.243518547,1,0,0,3.0247,Andesite_rect,1,3.025,1,12,0,12,0,1,,,,,,,,,,,,,
66550501336446c73dbbb0cf,TCR,2024-06-21_13h49.37.428,LearnStrategy,2023.2.3,Win32,58.47953216,5,1,14,-0.091666681,0.01203703,1,0,0,0.7299,rock_grid_rect_2,1,09,-1,-1,0.73,-0.420370349,-0.247222265,1,0,0,3.974,Andesite_rect,1,3.974,1,13,0,13,0,1,,,,,,,,,,,,,
66550501336446c73dbbb0cf,TCR,2024-06-21_13h49.37.428,LearnStrategy,2023.2.3,Win32,58.47953216,5,1,15,-0.044444402,-0.020370377,1,0,0,0.9808,rock_grid_rect_2,4,15,-1,-1,0.981,0.389814871,-0.248148176,1,0,0,4.8724,Gabbro_rect,4,4.872,1,14,0,14,0,1,,,,,,,,,,,,,
66550501336446c73dbbb0cf,TCR,2024-06-21_13h49.37.428,LearnStrategy,2023.2.3,Win32,58.47953216,5,1,16,-0.027777778,0.013888889,1,0,0,0.5802,rock_grid_rect_2,2,11,-1,-1,0.58,-0.143518519,-0.238888917,1,0,0,4.1743,Basalt_rect,2,4.174,1,15,0,15,0,1,,,,,,,,,,,,,
66550501336446c73dbbb0cf,TCR,2024-06-21_13h49.37.428,LearnStrategy,2023.2.3,Win32,58.47953216,5,2,1,,,,,,,,7,12,,,,,,,,,,,7,4.239,1,,,,,,0.099074116,-0.400000042,1,0,0,4.2395,Peridotite_rect,0,0,0,0,1,
66550501336446c73dbbb0cf,TCR,2024-06-21_13h49.37.428,LearnStrategy,2023.2.3,Win32,58.47953216,5,2,2,,,,,,,,4,11,,,,,,,,,,,2,14.114,0,,,,,,-0.07222218,-0.234259288,1,0,0,14.1138,Basalt_rect,1,0,1,0,1,
66550501336446c73dbbb0cf,TCR,2024-06-21_13h49.37.428,LearnStrategy,2023.2.3,Win32,58.47953216,5,2,3,,,,,,,,5,14,,,,,,,,,,,5,1.117,1,,,,,,-0.413888896,-0.411111125,1,0,0,1.1175,Obsidian_rect,2,0,2,0,1,
66550501336446c73dbbb0cf,TCR,2024-06-21_13h49.37.428,LearnStrategy,2023.2.3,Win32,58.47953216,5,2,4,,,,,,,,7,06,,,,,,,,,,,7,3.821,1,,,,,,0.094444487,-0.419444473,1,0,0,3.8207,Peridotite_rect,3,0,3,0,1,
66550501336446c73dbbb0cf,TCR,2024-06-21_13h49.37.428,LearnStrategy,2023.2.3,Win32,58.47953216,5,2,5,,,,,,,,4,01,,,,,,,,,,,4,16.96,1,,,,,,0.382407436,-0.234259288,1,0,0,16.9598,Gabbro_rect,4,0,4,0,1,
66550501336446c73dbbb0cf,TCR,2024-06-21_13h49.37.428,LearnStrategy,2023.2.3,Win32,58.47953216,5,2,6,,,,,,,,5,12,,,,,,,,,,,5,1.192,1,,,,,,-0.347222222,-0.39444443,1,0,0,1.1921,Obsidian_rect,5,0,5,0,1,
66550501336446c73dbbb0cf,TCR,2024-06-21_13h49.37.428,LearnStrategy,2023.2.3,Win32,58.47953216,5,2,7,,,,,,,,8,03,,,,,,,,,,,8,1.143,1,,,,,,0.337962963,-0.390740783,1,0,0,1.1431,Pumice_rect,6,0,6,0,1,
66550501336446c73dbbb0cf,TCR,2024-06-21_13h49.37.428,LearnStrategy,2023.2.3,Win32,58.47953216,5,2,8,,,,,,,,1,16,,,,,,,,,,,1,13.497,1,,,,,,-0.41111109,-0.252777806,1,0,0,13.497,Andesite_rect,7,0,7,0,1,
66550501336446c73dbbb0cf,TCR,2024-06-21_13h49.37.428,LearnStrategy,2023.2.3,Win32,58.47953216,5,2,9,,,,,,,,3,02,,,,,,,,,,,3,2.813,1,,,,,,0.125925912,-0.250925912,1,0,0,2.8128,Diorite_rect,8,0,8,0,1,
66550501336446c73dbbb0cf,TCR,2024-06-21_13h49.37.428,LearnStrategy,2023.2.3,Win32,58.47953216,5,2,10,,,,,,,,6,13,,,,,,,,,,,6,6.439,1,,,,,,-0.062962921,-0.400925954,1,0,0,6.4395,Pegmatite_rect,9,0,9,0,1,
66550501336446c73dbbb0cf,TCR,2024-06-21_13h49.37.428,LearnStrategy,2023.2.3,Win32,58.47953216,5,2,11,,,,,,,,8,06,,,,,,,,,,,8,1.349,1,,,,,,0.442592621,-0.400000042,1,0,0,1.3488,Pumice_rect,10,0,10,0,1,
66550501336446c73dbbb0cf,TCR,2024-06-21_13h49.37.428,LearnStrategy,2023.2.3,Win32,58.47953216,5,2,12,,,,,,,,1,01,,,,,,,,,,,4,24.47,0,,,,,,0.402777778,-0.246296282,1,0,0,24.4704,Gabbro_rect,11,0,11,0,1,
66550501336446c73dbbb0cf,TCR,2024-06-21_13h49.37.428,LearnStrategy,2023.2.3,Win32,58.47953216,5,2,13,,,,,,,,3,15,,,,,,,,,,,4,16.261,0,,,,,,0.425000085,-0.26944443,1,0,0,16.2612,Gabbro_rect,12,0,12,0,1,
66550501336446c73dbbb0cf,TCR,2024-06-21_13h49.37.428,LearnStrategy,2023.2.3,Win32,58.47953216,5,2,14,,,,,,,,6,07,,,,,,,,,,,6,6.32,1,,,,,,-0.083333333,-0.421296296,1,0,0,6.3201,Pegmatite_rect,13,0,13,0,1,
66550501336446c73dbbb0cf,TCR,2024-06-21_13h49.37.428,LearnStrategy,2023.2.3,Win32,58.47953216,5,2,15,,,,,,,,2,14,,,,,,,,,,,2,21.973,1,,,,,,-0.090740698,-0.249074088,1,0,0,21.9725,Basalt_rect,14,0,14,0,1,
66550501336446c73dbbb0cf,TCR,2024-06-21_13h49.37.428,LearnStrategy,2023.2.3,Win32,58.47953216,5,2,16,,,,,,,,2,04,,,,,,,,,,,2,1.179,1,,,,,,-0.090740698,-0.249074088,1,0,0,1.1794,Basalt_rect,15,0,15,0,1,
66550501336446c73dbbb0cf,TCR,2024-06-21_13h49.37.428,LearnStrategy,2023.2.3,Win32,58.47953216,6,1,1,0.026851866,0.002777771,1,0,0,2.3294,rock_grid_rect_2,2,06,-1,-1,2.329,-0.131481453,-0.270370413,1,0,0,1.2756,Basalt_rect,2,1.276,1,0,0,0,0,1,,,,,,,,,,,,,
66550501336446c73dbbb0cf,TCR,2024-06-21_13h49.37.428,LearnStrategy,2023.2.3,Win32,58.47953216,6,1,2,-0.010185171,0.001851859,1,0,0,0.7973,rock_grid_rect_2,1,03,-1,-1,0.797,-0.409259266,-0.25462963,1,0,0,1.7593,Andesite_rect,1,1.759,1,1,0,1,0,1,,,,,,,,,,,,,
66550501336446c73dbbb0cf,TCR,2024-06-21_13h49.37.428,LearnStrategy,2023.2.3,Win32,58.47953216,6,1,3,-0.103703675,-0.012962977,1,0,0,0.698,rock_grid_rect_2,1,10,-1,-1,0.698,-0.097222222,-0.235185199,1,0,0,9.1691,Basalt_rect,2,9.169,0,2,0,2,0,1,,,,,,,,,,,,,
66550501336446c73dbbb0cf,TCR,2024-06-21_13h49.37.428,LearnStrategy,2023.2.3,Win32,58.47953216,6,1,4,-0.059259273,0.003703683,1,0,0,1.3468,rock_grid_rect_2,3,08,-1,-1,1.347,0.098148134,-0.25,1,0,0,1.2338,Diorite_rect,3,1.234,1,3,0,3,0,1,,,,,,,,,,,,,
66550501336446c73dbbb0cf,TCR,2024-06-21_13h49.37.428,LearnStrategy,2023.2.3,Win32,58.47953216,6,1,5,-0.031481496,0.013888889,1,0,0,0.6668,rock_grid_rect_2,4,10,-1,-1,0.667,0.362962935,-0.261111153,1,0,0,4.5842,Gabbro_rect,4,4.584,1,4,0,4,0,1,,,,,,,,,,,,,
66550501336446c73dbbb0cf,TCR,2024-06-21_13h49.37.428,LearnStrategy,2023.2.3,Win32,58.47953216,6,1,6,0.003703718,-0.00462963,1,0,0,1.1462,rock_grid_rect_2,1,07,-1,-1,1.146,-0.361111111,-0.251851894,1,0,0,3.0243,Andesite_rect,1,3.024,1,5,0,5,0,1,,,,,,,,,,,,,
66550501336446c73dbbb0cf,TCR,2024-06-21_13h49.37.428,LearnStrategy,2023.2.3,Win32,58.47953216,6,1,7,-0.057407379,0.001851859,1,0,0,0.6302,rock_grid_rect_2,7,13,-1,-1,0.63,0.134259259,-0.404629672,1,0,0,1.4596,Peridotite_rect,7,1.46,1,6,0,6,0,1,,,,,,,,,,,,,
66550501336446c73dbbb0cf,TCR,2024-06-21_13h49.37.428,LearnStrategy,2023.2.3,Win32,58.47953216,6,1,8,0.006481524,0.001851859,1,0,0,0.6804,rock_grid_rect_2,4,03,-1,-1,0.68,0.348148205,-0.237963005,0,0,1,2.6748,Gabbro_rect,4,2.675,1,7,0,7,0,1,,,,,,,,,,,,,
66550501336446c73dbbb0cf,TCR,2024-06-21_13h49.37.428,LearnStrategy,2023.2.3,Win32,58.47953216,6,1,9,-0.014814801,0.010185171,1,0,0,0.8331,rock_grid_rect_2,2,11,-1,-1,0.833,-0.328703704,-0.260185171,1,0,0,2.9525,Andesite_rect,1,2.952,0,8,0,8,0,1,,,,,,,,,,,,,
66550501336446c73dbbb0cf,TCR,2024-06-21_13h49.37.428,LearnStrategy,2023.2.3,Win32,58.47953216,6,1,10,-0.006481453,-0.011111118,1,0,0,5.2764,rock_grid_rect_2,1,07,-1,-1,5.276,-0.340740734,-0.244444459,1,0,0,10.2694,Andesite_rect,1,10.269,1,9,0,9,0,1,,,,,,,,,,,,,
66550501336446c73dbbb0cf,TCR,2024-06-21_13h49.37.428,LearnStrategy,2023.2.3,Win32,58.47953216,6,1,11,-0.062962921,-0.021296289,1,0,0,0.7466,rock_grid_rect_2,4,03,-1,-1,0.747,0.333333333,-0.236111111,1,0,0,1.3428,Gabbro_rect,4,1.343,1,10,0,10,0,1,,,,,,,,,,,,,
66550501336446c73dbbb0cf,TCR,2024-06-21_13h49.37.428,LearnStrategy,2023.2.3,Win32,58.47953216,6,1,12,-0.062962921,-0.001851859,1,0,0,0.7808,rock_grid_rect_2,6,09,-1,-1,0.781,-0.107407393,-0.404629672,1,0,0,1.0918,Pegmatite_rect,6,1.092,1,11,0,11,0,1,,,,,,,,,,,,,
66550501336446c73dbbb0cf,TCR,2024-06-21_13h49.37.428,LearnStrategy,2023.2.3,Win32,58.47953216,6,1,13,-0.064814815,-0.011111118,1,0,0,0.6311,rock_grid_rect_2,3,12,-1,-1,0.631,0.103703746,-0.244444459,1,0,0,16.196,Diorite_rect,3,16.196,1,12,0,12,0,1,,,,,,,,,,,,,
66550501336446c73dbbb0cf,TCR,2024-06-21_13h49.37.428,LearnStrategy,2023.2.3,Win32,58.47953216,6,1,14,0.074074074,0.006481489,1,0,0,0.7028,rock_grid_rect_2,8,08,-1,-1,0.703,0.361111111,-0.383333347,0,0,1,1.6121,Pumice_rect,8,1.612,1,13,0,13,0,1,,,,,,,,,,,,,
66550501336446c73dbbb0cf,TCR,2024-06-21_13h49.37.428,LearnStrategy,2023.2.3,Win32,58.47953216,6,1,15,0.012962977,-0.014814836,1,0,0,0.777,rock_grid_rect_2,5,11,-1,-1,0.777,-0.363888882,-0.37962963,1,0,0,1.0665,Obsidian_rect,5,1.067,1,14,0,14,0,1,,,,,,,,,,,,,
66550501336446c73dbbb0cf,TCR,2024-06-21_13h49.37.428,LearnStrategy,2023.2.3,Win32,58.47953216,6,1,16,-0.12037037,-0.013888889,1,0,0,1.9472,rock_grid_rect_2,4,16,-1,-1,1.947,-0.10555557,-0.261111153,1,0,0,1.0976,Basalt_rect,2,1.098,0,15,0,15,0,1,,,,,,,,,,,,,
66550501336446c73dbbb0cf,TCR,2024-06-21_13h49.37.428,LearnStrategy,2023.2.3,Win32,58.47953216,6,2,1,,,,,,,,8,15,,,,,,,,,,,8,1.957,1,,,,,,0.365740741,-0.413888931,1,0,0,1.9572,Pumice_rect,0,0,0,0,1,
66550501336446c73dbbb0cf,TCR,2024-06-21_13h49.37.428,LearnStrategy,2023.2.3,Win32,58.47953216,6,2,2,,,,,,,,5,08,,,,,,,,,,,5,1.117,1,,,,,,-0.410185178,-0.400925954,1,0,0,1.1173,Obsidian_rect,1,0,1,0,1,
66550501336446c73dbbb0cf,TCR,2024-06-21_13h49.37.428,LearnStrategy,2023.2.3,Win32,58.47953216,6,2,3,,,,,,,,5,05,,,,,,,,,,,5,1.441,1,,,,,,-0.401851831,-0.401851866,1,0,0,1.4413,Obsidian_rect,2,0,2,0,1,
66550501336446c73dbbb0cf,TCR,2024-06-21_13h49.37.428,LearnStrategy,2023.2.3,Win32,58.47953216,6,2,4,,,,,,,,2,02,,,,,,,,,,,2,0.985,1,,,,,,-0.130555541,-0.234259288,1,0,0,0.9849,Basalt_rect,3,0,3,0,1,
66550501336446c73dbbb0cf,TCR,2024-06-21_13h49.37.428,LearnStrategy,2023.2.3,Win32,58.47953216,6,2,5,,,,,,,,4,14,,,,,,,,,,,4,2.539,1,,,,,,0.371296353,-0.260185171,1,0,0,2.5386,Gabbro_rect,4,0,4,0,1,
66550501336446c73dbbb0cf,TCR,2024-06-21_13h49.37.428,LearnStrategy,2023.2.3,Win32,58.47953216,6,2,6,,,,,,,,7,04,,,,,,,,,,,7,6.187,1,,,,,,0.128703718,-0.389814801,1,0,0,6.1871,Peridotite_rect,5,0,5,0,1,
66550501336446c73dbbb0cf,TCR,2024-06-21_13h49.37.428,LearnStrategy,2023.2.3,Win32,58.47953216,6,2,7,,,,,,,,1,05,,,,,,,,,,,1,3.482,1,,,,,,-0.386111118,-0.264814801,1,0,0,3.482,Andesite_rect,6,0,6,0,1,
66550501336446c73dbbb0cf,TCR,2024-06-21_13h49.37.428,LearnStrategy,2023.2.3,Win32,58.47953216,6,2,8,,,,,,,,3,13,,,,,,,,,,,3,1.197,1,,,,,,0.112037023,-0.250925912,1,0,0,1.1974,Diorite_rect,7,0,7,0,1,
66550501336446c73dbbb0cf,TCR,2024-06-21_13h49.37.428,LearnStrategy,2023.2.3,Win32,58.47953216,6,2,9,,,,,,,,3,14,,,,,,,,,,,3,1.385,1,,,,,,0.10555557,-0.249074088,1,0,0,1.3852,Diorite_rect,8,0,8,0,1,
66550501336446c73dbbb0cf,TCR,2024-06-21_13h49.37.428,LearnStrategy,2023.2.3,Win32,58.47953216,6,2,10,,,,,,,,6,11,,,,,,,,,,,6,10.315,1,,,,,,-0.149999972,-0.396296325,1,0,0,10.3152,Pegmatite_rect,9,0,9,0,1,
66550501336446c73dbbb0cf,TCR,2024-06-21_13h49.37.428,LearnStrategy,2023.2.3,Win32,58.47953216,6,2,11,,,,,,,,1,02,,,,,,,,,,,6,4.773,0,,,,,,-0.149999972,-0.39444443,1,0,0,4.7731,Pegmatite_rect,10,0,10,0,1,
66550501336446c73dbbb0cf,TCR,2024-06-21_13h49.37.428,LearnStrategy,2023.2.3,Win32,58.47953216,6,2,12,,,,,,,,8,02,,,,,,,,,,,8,2.724,1,,,,,,0.345370399,-0.383333347,1,0,0,2.7239,Pumice_rect,11,0,11,0,1,
66550501336446c73dbbb0cf,TCR,2024-06-21_13h49.37.428,LearnStrategy,2023.2.3,Win32,58.47953216,6,2,13,,,,,,,,4,12,,,,,,,,,,,4,5.072,1,,,,,,0.366666723,-0.237963005,1,0,0,5.0722,Gabbro_rect,12,0,12,0,1,
66550501336446c73dbbb0cf,TCR,2024-06-21_13h49.37.428,LearnStrategy,2023.2.3,Win32,58.47953216,6,2,14,,,,,,,,7,15,,,,,,,,,,,7,1.691,1,,,,,,0.130555541,-0.416666667,1,0,0,1.6913,Peridotite_rect,13,0,13,0,1,
66550501336446c73dbbb0cf,TCR,2024-06-21_13h49.37.428,LearnStrategy,2023.2.3,Win32,58.47953216,6,2,15,,,,,,,,6,15,,,,,,,,,,,6,1.425,1,,,,,,-0.146296254,-0.388888889,1,0,0,1.4249,Pegmatite_rect,14,0,14,0,1,
66550501336446c73dbbb0cf,TCR,2024-06-21_13h49.37.428,LearnStrategy,2023.2.3,Win32,58.47953216,6,2,16,,,,,,,,2,10,,,,,,,,,,,2,1.36,1,,,,,,-0.127777735,-0.26944443,1,0,0,1.3595,Basalt_rect,15,0,15,0,1,
66550501336446c73dbbb0cf,TCR,2024-06-21_13h49.37.428,LearnStrategy,2023.2.3,Win32,58.47953216,7,1,1,0.030555584,0,1,0,0,2.0794,rock_grid_rect_2,7,10,-1,-1,2.079,0.098148134,-0.392592607,1,0,0,1.9917,Peridotite_rect,7,1.992,1,0,0,0,0,1,,,,,,,,,,,,,
66550501336446c73dbbb0cf,TCR,2024-06-21_13h49.37.428,LearnStrategy,2023.2.3,Win32,58.47953216,7,1,2,0.020370413,-0.011111118,1,0,0,0.681,rock_grid_rect_2,2,06,-1,-1,0.681,-0.152777778,-0.231481481,1,0,0,1.6087,Basalt_rect,2,1.609,1,1,0,1,0,1,,,,,,,,,,,,,
66550501336446c73dbbb0cf,TCR,2024-06-21_13h49.37.428,LearnStrategy,2023.2.3,Win32,58.47953216,7,1,3,-0.061111097,-0.017592607,1,0,0,0.8477,rock_grid_rect_2,1,07,-1,-1,0.848,-0.344444452,-0.25,1,0,0,4.9396,Andesite_rect,1,4.94,1,2,0,2,0,1,,,,,,,,,,,,,
66550501336446c73dbbb0cf,TCR,2024-06-21_13h49.37.428,LearnStrategy,2023.2.3,Win32,58.47953216,7,1,4,-0.062037009,-0.024074095,1,0,0,0.7637,rock_grid_rect_2,4,09,-1,-1,0.764,0.440740797,-0.270370413,1,0,0,2.6587,Gabbro_rect,4,2.659,1,3,0,3,0,1,,,,,,,,,,,,,
66550501336446c73dbbb0cf,TCR,2024-06-21_13h49.37.428,LearnStrategy,2023.2.3,Win32,58.47953216,7,1,5,-0.000925912,-0.000925947,1,0,0,1.0966,rock_grid_rect_2,8,14,-1,-1,1.097,0.339814787,-0.37962963,1,0,0,1.2427,Pumice_rect,8,1.243,1,4,0,4,0,1,,,,,,,,,,,,,
66550501336446c73dbbb0cf,TCR,2024-06-21_13h49.37.428,LearnStrategy,2023.2.3,Win32,58.47953216,7,1,6,-0.016666624,-0.010185206,1,0,0,0.5979,rock_grid_rect_2,5,07,-1,-1,0.598,-0.350925905,-0.39444443,1,0,0,1.157,Obsidian_rect,5,1.157,1,5,0,5,0,1,,,,,,,,,,,,,
66550501336446c73dbbb0cf,TCR,2024-06-21_13h49.37.428,LearnStrategy,2023.2.3,Win32,58.47953216,7,1,7,-0.090740698,-0.006481489,1,0,0,0.6648,rock_grid_rect_2,1,04,-1,-1,0.665,-0.348148134,-0.247222265,1,0,0,6.6047,Andesite_rect,1,6.605,1,6,0,6,0,1,,,,,,,,,,,,,
66550501336446c73dbbb0cf,TCR,2024-06-21_13h49.37.428,LearnStrategy,2023.2.3,Win32,58.47953216,7,1,8,-0.084259245,-0.009259259,1,0,0,0.7973,rock_grid_rect_2,6,09,-1,-1,0.797,-0.099074046,-0.406481496,1,0,0,1.4744,Pegmatite_rect,6,1.474,1,7,0,7,0,1,,,,,,,,,,,,,
66550501336446c73dbbb0cf,TCR,2024-06-21_13h49.37.428,LearnStrategy,2023.2.3,Win32,58.47953216,7,1,9,-0.032407407,-0.015740748,1,0,0,1.147,rock_grid_rect_2,1,03,-1,-1,1.147,-0.38703703,-0.253703718,1,0,0,4.6319,Andesite_rect,1,4.632,1,8,0,8,0,1,,,,,,,,,,,,,
66550501336446c73dbbb0cf,TCR,2024-06-21_13h49.37.428,LearnStrategy,2023.2.3,Win32,58.47953216,7,1,10,-0.108333305,-0.003703718,1,0,0,0.6691,rock_grid_rect_2,2,09,-1,-1,0.669,-0.142592607,-0.259259259,1,0,0,5.1179,Basalt_rect,2,5.118,1,9,0,9,0,1,,,,,,,,,,,,,
66550501336446c73dbbb0cf,TCR,2024-06-21_13h49.37.428,LearnStrategy,2023.2.3,Win32,58.47953216,7,1,11,-0.050925926,0.008333312,1,0,0,0.6307,rock_grid_rect_2,4,05,-1,-1,0.631,0.394444501,-0.261111153,1,0,0,6.0386,Gabbro_rect,4,6.039,1,10,0,10,0,1,,,,,,,,,,,,,
66550501336446c73dbbb0cf,TCR,2024-06-21_13h49.37.428,LearnStrategy,2023.2.3,Win32,58.47953216,7,1,12,0.036111125,-0.002777771,1,0,0,1.014,rock_grid_rect_2,3,08,-1,-1,1.014,0.176851838,-0.235185199,1,0,0,1.0429,Diorite_rect,3,1.043,1,11,0,11,0,1,,,,,,,,,,,,,
66550501336446c73dbbb0cf,TCR,2024-06-21_13h49.37.428,LearnStrategy,2023.2.3,Win32,58.47953216,7,1,13,0.009259259,-0.022222236,1,0,0,0.6474,rock_grid_rect_2,3,09,-1,-1,0.647,0.093518504,-0.240740741,1,0,0,1.1473,Diorite_rect,3,1.147,1,12,0,12,0,1,,,,,,,,,,,,,
66550501336446c73dbbb0cf,TCR,2024-06-21_13h49.37.428,LearnStrategy,2023.2.3,Win32,58.47953216,7,1,14,0.033333319,0.021296289,1,0,0,0.5977,rock_grid_rect_2,6,16,-1,-1,0.598,-0.148148148,-0.389814801,1,0,0,10.4184,Pegmatite_rect,6,10.418,1,13,0,13,0,1,,,,,,,,,,,,,
66550501336446c73dbbb0cf,TCR,2024-06-21_13h49.37.428,LearnStrategy,2023.2.3,Win32,58.47953216,7,1,15,-0.034259231,0.0074074,1,0,0,0.5805,rock_grid_rect_2,1,06,-1,-1,0.581,-0.375,-0.264814801,1,0,0,2.1421,Andesite_rect,1,2.142,1,14,0,14,0,1,,,,,,,,,,,,,
66550501336446c73dbbb0cf,TCR,2024-06-21_13h49.37.428,LearnStrategy,2023.2.3,Win32,58.47953216,7,1,16,-0.071296268,-0.015740748,1,0,0,0.6472,rock_grid_rect_2,4,09,-1,-1,0.647,0.369444529,-0.266666695,1,0,0,1.6751,Gabbro_rect,4,1.675,1,15,0,15,0,1,,,,,,,,,,,,,
66550501336446c73dbbb0cf,TCR,2024-06-21_13h49.37.428,LearnStrategy,2023.2.3,Win32,58.47953216,7,2,1,,,,,,,,1,05,,,,,,,,,,,1,2.824,1,,,,,,-0.425925926,-0.235185199,1,0,0,2.8239,Andesite_rect,0,0,0,0,1,
66550501336446c73dbbb0cf,TCR,2024-06-21_13h49.37.428,LearnStrategy,2023.2.3,Win32,58.47953216,7,2,2,,,,,,,,7,15,,,,,,,,,,,7,1.176,1,,,,,,0.147222236,-0.412037037,1,0,0,1.1757,Peridotite_rect,1,0,1,0,1,
66550501336446c73dbbb0cf,TCR,2024-06-21_13h49.37.428,LearnStrategy,2023.2.3,Win32,58.47953216,7,2,3,,,,,,,,2,01,,,,,,,,,,,2,1.109,1,,,,,,-0.117592564,-0.24537037,1,0,0,1.1091,Basalt_rect,2,0,2,0,1,
66550501336446c73dbbb0cf,TCR,2024-06-21_13h49.37.428,LearnStrategy,2023.2.3,Win32,58.47953216,7,2,4,,,,,,,,3,13,,,,,,,,,,,3,1.045,1,,,,,,0.07685188,-0.237963005,1,0,0,1.0454,Diorite_rect,3,0,3,0,1,
66550501336446c73dbbb0cf,TCR,2024-06-21_13h49.37.428,LearnStrategy,2023.2.3,Win32,58.47953216,7,2,5,,,,,,,,1,16,,,,,,,,,,,1,2.858,1,,,,,,-0.37037037,-0.267592607,1,0,0,2.8578,Andesite_rect,4,0,4,0,1,
66550501336446c73dbbb0cf,TCR,2024-06-21_13h49.37.428,LearnStrategy,2023.2.3,Win32,58.47953216,7,2,6,,,,,,,,7,02,,,,,,,,,,,7,1.808,1,,,,,,0.178703732,-0.383333347,1,0,0,1.8082,Peridotite_rect,5,0,5,0,1,
66550501336446c73dbbb0cf,TCR,2024-06-21_13h49.37.428,LearnStrategy,2023.2.3,Win32,58.47953216,7,2,7,,,,,,,,8,02,,,,,,,,,,,8,1.242,1,,,,,,0.356481481,-0.396296325,1,0,0,1.2419,Pumice_rect,6,0,6,0,1,
66550501336446c73dbbb0cf,TCR,2024-06-21_13h49.37.428,LearnStrategy,2023.2.3,Win32,58.47953216,7,2,8,,,,,,,,5,12,,,,,,,,,,,5,0.99,1,,,,,,-0.413888896,-0.410185213,1,0,0,0.9899,Obsidian_rect,7,0,7,0,1,
66550501336446c73dbbb0cf,TCR,2024-06-21_13h49.37.428,LearnStrategy,2023.2.3,Win32,58.47953216,7,2,9,,,,,,,,4,01,,,,,,,,,,,1,7.649,0,,,,,,-0.374074053,-0.231481481,1,0,0,7.6495,Andesite_rect,8,0,8,0,1,
66550501336446c73dbbb0cf,TCR,2024-06-21_13h49.37.428,LearnStrategy,2023.2.3,Win32,58.47953216,7,2,10,,,,,,,,5,06,,,,,,,,,,,5,1.424,1,,,,,,-0.437962956,-0.396296325,1,0,0,1.4235,Obsidian_rect,9,0,9,0,1,
66550501336446c73dbbb0cf,TCR,2024-06-21_13h49.37.428,LearnStrategy,2023.2.3,Win32,58.47953216,7,2,11,,,,,,,,6,13,,,,,,,,,,,6,3.141,1,,,,,,-0.148148148,-0.391666695,1,0,0,3.1411,Pegmatite_rect,10,0,10,0,1,
66550501336446c73dbbb0cf,TCR,2024-06-21_13h49.37.428,LearnStrategy,2023.2.3,Win32,58.47953216,7,2,12,,,,,,,,8,05,,,,,,,,,,,8,1.742,1,,,,,,0.401851937,-0.40370369,1,0,0,1.7421,Pumice_rect,11,0,11,0,1,
66550501336446c73dbbb0cf,TCR,2024-06-21_13h49.37.428,LearnStrategy,2023.2.3,Win32,58.47953216,7,2,13,,,,,,,,3,15,,,,,,,,,,,3,9.268,1,,,,,,0.137962977,-0.238888917,1,0,0,9.2679,Diorite_rect,12,0,12,0,1,
66550501336446c73dbbb0cf,TCR,2024-06-21_13h49.37.428,LearnStrategy,2023.2.3,Win32,58.47953216,7,2,14,,,,,,,,2,14,,,,,,,,,,,2,19.598,1,,,,,,-0.156481496,-0.248148176,1,0,0,19.5977,Basalt_rect,13,0,13,0,1,
66550501336446c73dbbb0cf,TCR,2024-06-21_13h49.37.428,LearnStrategy,2023.2.3,Win32,58.47953216,7,2,15,,,,,,,,6,15,,,,,,,,,,,6,1.742,1,,,,,,-0.145370342,-0.412962949,1,0,0,1.7419,Pegmatite_rect,14,0,14,0,1,
66550501336446c73dbbb0cf,TCR,2024-06-21_13h49.37.428,LearnStrategy,2023.2.3,Win32,58.47953216,7,2,16,,,,,,,,4,11,,,,,,,,,,,2,3.924,0,,,,,,-0.113888847,-0.247222265,1,0,0,3.9237,Basalt_rect,15,0,15,0,1,
66550501336446c73dbbb0cf,TCR,2024-06-21_13h49.37.428,LearnStrategy,2023.2.3,Win32,58.47953216,8,1,1,0.062962991,0.008333312,1,0,0,1.6639,rock_grid_rect_2,3,12,-1,-1,1.664,0.151851866,-0.238888917,1,0,0,3.941,Diorite_rect,3,3.941,1,0,0,0,0,1,,,,,,,,,,,,,
66550501336446c73dbbb0cf,TCR,2024-06-21_13h49.37.428,LearnStrategy,2023.2.3,Win32,58.47953216,8,1,2,-0.057407379,0.020370377,1,0,0,0.6665,rock_grid_rect_2,3,11,-1,-1,0.667,0.090740769,-0.251851894,1,0,0,1.6533,Diorite_rect,3,1.653,1,1,0,1,0,1,,,,,,,,,,,,,
66550501336446c73dbbb0cf,TCR,2024-06-21_13h49.37.428,LearnStrategy,2023.2.3,Win32,58.47953216,8,1,3,0.026851866,-0.020370377,1,0,0,0.7305,rock_grid_rect_2,6,03,-1,-1,0.731,-0.112962935,-0.410185213,1,0,0,2.2241,Pegmatite_rect,6,2.224,1,2,0,2,0,1,,,,,,,,,,,,,
66550501336446c73dbbb0cf,TCR,2024-06-21_13h49.37.428,LearnStrategy,2023.2.3,Win32,58.47953216,8,1,4,-0.01944443,-0.002777771,1,0,0,0.6803,rock_grid_rect_2,1,06,-1,-1,0.68,-0.360185164,-0.23055557,1,0,0,1.3923,Andesite_rect,1,1.392,1,3,0,3,0,1,,,,,,,,,,,,,
66550501336446c73dbbb0cf,TCR,2024-06-21_13h49.37.428,LearnStrategy,2023.2.3,Win32,58.47953216,8,1,5,0.013888889,-0.001851859,1,0,0,0.6306,rock_grid_rect_2,1,07,-1,-1,0.631,-0.428703697,-0.241666653,1,0,0,1.9087,Andesite_rect,1,1.909,1,4,0,4,0,1,,,,,,,,,,,,,
66550501336446c73dbbb0cf,TCR,2024-06-21_13h49.37.428,LearnStrategy,2023.2.3,Win32,58.47953216,8,1,6,-0.021296254,0.000925912,1,0,0,0.4807,rock_grid_rect_2,2,11,-1,-1,0.481,-0.130555541,-0.249074088,1,0,0,2.9257,Basalt_rect,2,2.926,1,5,0,5,0,1,,,,,,,,,,,,,
66550501336446c73dbbb0cf,TCR,2024-06-21_13h49.37.428,LearnStrategy,2023.2.3,Win32,58.47953216,8,1,7,-0.01944443,0.013888889,1,0,0,0.6809,rock_grid_rect_2,4,09,-1,-1,0.681,0.41851849,-0.259259259,1,0,0,1.4255,Gabbro_rect,4,1.426,1,6,0,6,0,1,,,,,,,,,,,,,
66550501336446c73dbbb0cf,TCR,2024-06-21_13h49.37.428,LearnStrategy,2023.2.3,Win32,58.47953216,8,1,8,-0.022222236,0.015740748,1,0,0,1.2637,rock_grid_rect_2,8,04,-1,-1,1.264,0.321296268,-0.392592607,1,0,0,1.2923,Pumice_rect,8,1.292,1,7,0,7,0,1,,,,,,,,,,,,,
66550501336446c73dbbb0cf,TCR,2024-06-21_13h49.37.428,LearnStrategy,2023.2.3,Win32,58.47953216,8,1,9,0.009259259,-0.00462963,1,0,0,0.6145,rock_grid_rect_2,4,10,-1,-1,0.615,0.386111083,-0.234259288,1,0,0,12.5327,Gabbro_rect,4,12.533,1,8,0,8,0,1,,,,,,,,,,,,,
66550501336446c73dbbb0cf,TCR,2024-06-21_13h49.37.428,LearnStrategy,2023.2.3,Win32,58.47953216,8,1,10,0.030555584,0.023148148,1,0,0,0.581,rock_grid_rect_2,5,09,-1,-1,0.581,-0.336111104,-0.391666695,1,0,0,1.0268,Obsidian_rect,5,1.027,1,9,0,9,0,1,,,,,,,,,,,,,
66550501336446c73dbbb0cf,TCR,2024-06-21_13h49.37.428,LearnStrategy,2023.2.3,Win32,58.47953216,8,1,11,0.035185213,0.012962942,1,0,0,0.8971,rock_grid_rect_2,4,09,-1,-1,0.897,0.337962963,-0.241666653,1,0,0,1.2591,Gabbro_rect,4,1.259,1,10,0,10,0,1,,,,,,,,,,,,,
66550501336446c73dbbb0cf,TCR,2024-06-21_13h49.37.428,LearnStrategy,2023.2.3,Win32,58.47953216,8,1,12,0.053703732,0.014814801,1,0,0,0.9639,rock_grid_rect_2,2,06,-1,-1,0.964,-0.134259259,-0.231481481,1,0,0,1.0796,Basalt_rect,2,1.08,1,11,0,11,0,1,,,,,,,,,,,,,
66550501336446c73dbbb0cf,TCR,2024-06-21_13h49.37.428,LearnStrategy,2023.2.3,Win32,58.47953216,8,1,13,-0.047222208,0.012962942,1,0,0,0.7808,rock_grid_rect_2,4,16,-1,-1,0.781,0.366666723,-0.233333376,1,0,0,2.7085,Gabbro_rect,4,2.708,1,12,0,12,0,1,,,,,,,,,,,,,
66550501336446c73dbbb0cf,TCR,2024-06-21_13h49.37.428,LearnStrategy,2023.2.3,Win32,58.47953216,8,1,14,-0.032407407,-0.0074074,1,0,0,0.6804,rock_grid_rect_2,1,09,-1,-1,0.68,-0.375,-0.236111111,1,0,0,4.1239,Andesite_rect,1,4.124,1,13,0,13,0,1,,,,,,,,,,,,,
66550501336446c73dbbb0cf,TCR,2024-06-21_13h49.37.428,LearnStrategy,2023.2.3,Win32,58.47953216,8,1,15,-0.037962949,0.0074074,1,0,0,0.5475,rock_grid_rect_2,4,10,-1,-1,0.547,0.36018527,-0.244444459,1,0,0,3.3565,Gabbro_rect,4,3.356,1,14,0,14,0,1,,,,,,,,,,,,,
66550501336446c73dbbb0cf,TCR,2024-06-21_13h49.37.428,LearnStrategy,2023.2.3,Win32,58.47953216,8,1,16,0.02870369,-0.006481489,1,0,0,0.7803,rock_grid_rect_2,7,14,-1,-1,0.78,0.117592635,-0.387037065,1,0,0,1.8421,Peridotite_rect,7,1.842,1,15,0,15,0,1,,,,,,,,,,,,,
66550501336446c73dbbb0cf,TCR,2024-06-21_13h49.37.428,LearnStrategy,2023.2.3,Win32,58.47953216,8,2,1,,,,,,,,5,14,,,,,,,,,,,5,1.202,1,,,,,,-0.333333333,-0.382407436,1,0,0,1.2015,Obsidian_rect,0,0,0,0,1,
66550501336446c73dbbb0cf,TCR,2024-06-21_13h49.37.428,LearnStrategy,2023.2.3,Win32,58.47953216,8,2,2,,,,,,,,2,04,,,,,,,,,,,2,1.071,1,,,,,,-0.104629587,-0.262037065,1,0,0,1.0708,Basalt_rect,1,0,1,0,1,
66550501336446c73dbbb0cf,TCR,2024-06-21_13h49.37.428,LearnStrategy,2023.2.3,Win32,58.47953216,8,2,3,,,,,,,,5,04,,,,,,,,,,,5,1.076,1,,,,,,-0.359259252,-0.39907406,1,0,0,1.0762,Obsidian_rect,2,0,2,0,1,
66550501336446c73dbbb0cf,TCR,2024-06-21_13h49.37.428,LearnStrategy,2023.2.3,Win32,58.47953216,8,2,4,,,,,,,,3,14,,,,,,,,,,,3,1.009,1,,,,,,0.121296282,-0.237963005,1,0,0,1.0094,Diorite_rect,3,0,3,0,1,
66550501336446c73dbbb0cf,TCR,2024-06-21_13h49.37.428,LearnStrategy,2023.2.3,Win32,58.47953216,8,2,5,,,,,,,,8,06,,,,,,,,,,,8,1.193,1,,,,,,0.369444529,-0.389814801,1,0,0,1.1927,Pumice_rect,4,0,4,0,1,
66550501336446c73dbbb0cf,TCR,2024-06-21_13h49.37.428,LearnStrategy,2023.2.3,Win32,58.47953216,8,2,6,,,,,,,,1,01,,,,,,,,,,,1,17.841,1,,,,,,-0.449074074,-0.23055557,1,0,0,17.8412,Andesite_rect,5,0,5,0,1,
66550501336446c73dbbb0cf,TCR,2024-06-21_13h49.37.428,LearnStrategy,2023.2.3,Win32,58.47953216,8,2,7,,,,,,,,8,16,,,,,,,,,,,8,1.16,1,,,,,,0.350000028,-0.412037037,1,0,0,1.1596,Pumice_rect,6,0,6,0,1,
66550501336446c73dbbb0cf,TCR,2024-06-21_13h49.37.428,LearnStrategy,2023.2.3,Win32,58.47953216,8,2,8,,,,,,,,4,13,,,,,,,,,,,4,1.783,1,,,,,,0.417592649,-0.244444459,1,0,0,1.7831,Gabbro_rect,7,0,7,0,1,
66550501336446c73dbbb0cf,TCR,2024-06-21_13h49.37.428,LearnStrategy,2023.2.3,Win32,58.47953216,8,2,9,,,,,,,,3,16,,,,,,,,,,,3,1.159,1,,,,,,0.113888917,-0.258333347,1,0,0,1.1593,Diorite_rect,8,0,8,0,1,
66550501336446c73dbbb0cf,TCR,2024-06-21_13h49.37.428,LearnStrategy,2023.2.3,Win32,58.47953216,8,2,10,,,,,,,,6,10,,,,,,,,,,,6,6.022,1,,,,,,-0.174074032,-0.418518561,1,0,0,6.0219,Pegmatite_rect,9,0,9,0,1,
66550501336446c73dbbb0cf,TCR,2024-06-21_13h49.37.428,LearnStrategy,2023.2.3,Win32,58.47953216,8,2,11,,,,,,,,7,04,,,,,,,,,,,7,6.788,1,,,,,,0.091666681,-0.400925954,1,0,0,6.7876,Peridotite_rect,10,0,10,0,1,
66550501336446c73dbbb0cf,TCR,2024-06-21_13h49.37.428,LearnStrategy,2023.2.3,Win32,58.47953216,8,2,12,,,,,,,,2,12,,,,,,,,,,,2,9.402,1,,,,,,-0.121296282,-0.240740741,1,0,0,9.4018,Basalt_rect,11,0,11,0,1,
66550501336446c73dbbb0cf,TCR,2024-06-21_13h49.37.428,LearnStrategy,2023.2.3,Win32,58.47953216,8,2,13,,,,,,,,4,08,,,,,,,,,,,4,2.591,1,,,,,,0.387963048,-0.235185199,1,0,0,2.591,Gabbro_rect,12,0,12,0,1,
66550501336446c73dbbb0cf,TCR,2024-06-21_13h49.37.428,LearnStrategy,2023.2.3,Win32,58.47953216,8,2,14,,,,,,,,1,11,,,,,,,,,,,1,18.575,1,,,,,,-0.41574072,-0.264814801,1,0,0,18.5755,Andesite_rect,13,0,13,0,1,
66550501336446c73dbbb0cf,TCR,2024-06-21_13h49.37.428,LearnStrategy,2023.2.3,Win32,58.47953216,8,2,15,,,,,,,,7,06,,,,,,,,,,,7,1.109,1,,,,,,0.094444487,-0.383333347,1,0,0,1.1093,Peridotite_rect,14,0,14,0,1,
66550501336446c73dbbb0cf,TCR,2024-06-21_13h49.37.428,LearnStrategy,2023.2.3,Win32,58.47953216,8,2,16,,,,,,,,6,08,,,,,,,,,,,6,1.492,1,,,,,,-0.12037037,-0.383333347,1,0,0,1.4924,Pegmatite_rect,15,0,15,0,1,
66550501336446c73dbbb0cf,TCR,2024-06-21_13h49.37.428,LearnStrategy,2023.2.3,Win32,58.47953216,9,1,1,0.104629658,-0.014814836,1,0,0,1.1966,rock_grid_rect_2,1,07,-1,-1,1.197,-0.405555548,-0.248148176,1,0,0,4.4219,Andesite_rect,1,4.422,1,0,0,0,0,1,,,,,,,,,,,,,
66550501336446c73dbbb0cf,TCR,2024-06-21_13h49.37.428,LearnStrategy,2023.2.3,Win32,58.47953216,9,1,2,-0.141666624,0.00462963,1,0,0,0.6312,rock_grid_rect_2,4,09,-1,-1,0.631,0.362037094,-0.259259259,1,0,0,1.1412,Gabbro_rect,4,1.141,1,1,0,1,0,1,,,,,,,,,,,,,
66550501336446c73dbbb0cf,TCR,2024-06-21_13h49.37.428,LearnStrategy,2023.2.3,Win32,58.47953216,9,1,3,-0.037962949,-0.00462963,1,0,0,0.764,rock_grid_rect_2,8,10,-1,-1,0.764,0.42777775,-0.400000042,1,0,0,5.3313,Pumice_rect,8,5.331,1,2,0,2,0,1,,,,,,,,,,,,,
66550501336446c73dbbb0cf,TCR,2024-06-21_13h49.37.428,LearnStrategy,2023.2.3,Win32,58.47953216,9,1,4,-0.009259259,-0.024074095,1,0,0,0.7661,rock_grid_rect_2,3,06,-1,-1,0.766,0.137962977,-0.240740741,1,0,0,6.2095,Diorite_rect,3,6.21,1,3,0,3,0,1,,,,,,,,,,,,,
66550501336446c73dbbb0cf,TCR,2024-06-21_13h49.37.428,LearnStrategy,2023.2.3,Win32,58.47953216,9,1,5,0.014814801,-0.000925947,1,0,0,0.5525,rock_grid_rect_2,7,13,-1,-1,0.553,-0.104629587,-0.417592578,1,0,0,1.5479,Pegmatite_rect,6,1.548,0,4,0,4,0,1,,,,,,,,,,,,,
66550501336446c73dbbb0cf,TCR,2024-06-21_13h49.37.428,LearnStrategy,2023.2.3,Win32,58.47953216,9,1,6,-0.049074032,-0.021296289,1,0,0,0.6528,rock_grid_rect_2,4,09,-1,-1,0.653,0.37962963,-0.259259259,1,0,0,2.678,Gabbro_rect,4,2.678,1,5,0,5,0,1,,,,,,,,,,,,,
66550501336446c73dbbb0cf,TCR,2024-06-21_13h49.37.428,LearnStrategy,2023.2.3,Win32,58.47953216,9,1,7,0.008333347,0.002777771,1,0,0,0.5442,rock_grid_rect_2,4,15,-1,-1,0.544,0.358333305,-0.234259288,1,0,0,1.1675,Gabbro_rect,4,1.168,1,6,0,6,0,1,,,,,,,,,,,,,
66550501336446c73dbbb0cf,TCR,2024-06-21_13h49.37.428,LearnStrategy,2023.2.3,Win32,58.47953216,9,1,8,0.01944443,0.013888889,1,0,0,0.52,rock_grid_rect_2,1,04,-1,-1,0.52,-0.402777778,-0.262037065,1,0,0,1.4953,Andesite_rect,1,1.495,1,7,0,7,0,1,,,,,,,,,,,,,
66550501336446c73dbbb0cf,TCR,2024-06-21_13h49.37.428,LearnStrategy,2023.2.3,Win32,58.47953216,9,1,9,-0.14444443,0.00462963,1,0,0,1.8668,rock_grid_rect_2,1,06,-1,-1,1.867,-0.393518519,-0.256481524,1,0,0,4.0638,Andesite_rect,1,4.064,1,8,0,8,0,1,,,,,,,,,,,,,
66550501336446c73dbbb0cf,TCR,2024-06-21_13h49.37.428,LearnStrategy,2023.2.3,Win32,58.47953216,9,1,10,-0.036111125,0.014814801,1,0,0,0.9993,rock_grid_rect_2,2,16,-1,-1,0.999,-0.062037009,-0.228703746,1,0,0,1.021,Basalt_rect,2,1.021,1,9,0,9,0,1,,,,,,,,,,,,,
66550501336446c73dbbb0cf,TCR,2024-06-21_13h49.37.428,LearnStrategy,2023.2.3,Win32,58.47953216,9,1,11,-0.053703661,-0.010185206,1,0,0,1.2641,rock_grid_rect_2,4,05,-1,-1,1.264,0.398148148,-0.237037023,1,0,0,1.092,Gabbro_rect,4,1.092,1,10,0,10,0,1,,,,,,,,,,,,,
66550501336446c73dbbb0cf,TCR,2024-06-21_13h49.37.428,LearnStrategy,2023.2.3,Win32,58.47953216,9,1,12,0.049074102,-0.008333347,1,0,0,0.6977,rock_grid_rect_2,6,16,-1,-1,0.698,-0.116666653,-0.396296325,1,0,0,3.2401,Pegmatite_rect,6,3.24,1,11,0,11,0,1,,,,,,,,,,,,,
66550501336446c73dbbb0cf,TCR,2024-06-21_13h49.37.428,LearnStrategy,2023.2.3,Win32,58.47953216,9,1,13,-0.02870369,0.009259259,1,0,0,0.7969,rock_grid_rect_2,2,06,-1,-1,0.797,-0.097222222,-0.228703746,1,0,0,0.9256,Basalt_rect,2,0.926,1,12,0,12,0,1,,,,,,,,,,,,,
66550501336446c73dbbb0cf,TCR,2024-06-21_13h49.37.428,LearnStrategy,2023.2.3,Win32,58.47953216,9,1,14,-0.018518519,-0.000925947,1,0,0,0.5813,rock_grid_rect_2,3,08,-1,-1,0.581,0.17777782,-0.240740741,1,0,0,0.86,Diorite_rect,3,0.86,1,13,0,13,0,1,,,,,,,,,,,,,
66550501336446c73dbbb0cf,TCR,2024-06-21_13h49.37.428,LearnStrategy,2023.2.3,Win32,58.47953216,9,1,15,0.080555598,0.003703683,1,0,0,0.8307,rock_grid_rect_2,4,16,-1,-1,0.831,0.374074159,-0.243518547,1,0,0,1.241,Gabbro_rect,4,1.241,1,14,0,14,0,1,,,,,,,,,,,,,
66550501336446c73dbbb0cf,TCR,2024-06-21_13h49.37.428,LearnStrategy,2023.2.3,Win32,58.47953216,9,1,16,0.082407422,0.018518519,1,0,0,0.6977,rock_grid_rect_2,5,02,-1,-1,0.698,-0.397222201,-0.413888931,1,0,0,1.1246,Obsidian_rect,5,1.125,1,15,0,15,0,1,,,,,,,,,,,,,
66550501336446c73dbbb0cf,TCR,2024-06-21_13h49.37.428,LearnStrategy,2023.2.3,Win32,58.47953216,9,2,1,,,,,,,,5,05,,,,,,,,,,,5,2.026,1,,,,,,-0.430555556,-0.40370369,1,0,0,2.0258,Obsidian_rect,0,0,0,0,1,
66550501336446c73dbbb0cf,TCR,2024-06-21_13h49.37.428,LearnStrategy,2023.2.3,Win32,58.47953216,9,2,2,,,,,,,,2,10,,,,,,,,,,,2,1.116,1,,,,,,-0.156481496,-0.260185171,1,0,0,1.1164,Basalt_rect,1,0,1,0,1,
66550501336446c73dbbb0cf,TCR,2024-06-21_13h49.37.428,LearnStrategy,2023.2.3,Win32,58.47953216,9,2,3,,,,,,,,4,12,,,,,,,,,,,4,3.491,1,,,,,,0.406481566,-0.242592635,1,0,0,3.4911,Gabbro_rect,2,0,2,0,1,
66550501336446c73dbbb0cf,TCR,2024-06-21_13h49.37.428,LearnStrategy,2023.2.3,Win32,58.47953216,9,2,4,,,,,,,,8,03,,,,,,,,,,,8,1.859,1,,,,,,0.413888861,-0.413888931,1,0,0,1.8589,Pumice_rect,3,0,3,0,1,
66550501336446c73dbbb0cf,TCR,2024-06-21_13h49.37.428,LearnStrategy,2023.2.3,Win32,58.47953216,9,2,5,,,,,,,,1,14,,,,,,,,,,,1,13.257,1,,,,,,-0.420370349,-0.246296282,1,0,0,13.257,Andesite_rect,4,0,4,0,1,
66550501336446c73dbbb0cf,TCR,2024-06-21_13h49.37.428,LearnStrategy,2023.2.3,Win32,58.47953216,9,2,6,,,,,,,,4,14,,,,,,,,,,,4,3.341,1,,,,,,0.3648149,-0.253703718,1,0,0,3.3405,Gabbro_rect,5,0,5,0,1,
66550501336446c73dbbb0cf,TCR,2024-06-21_13h49.37.428,LearnStrategy,2023.2.3,Win32,58.47953216,9,2,7,,,,,,,,8,15,,,,,,,,,,,8,2.049,1,,,,,,0.343518575,-0.393518519,1,0,0,2.0486,Pumice_rect,6,0,6,0,1,
66550501336446c73dbbb0cf,TCR,2024-06-21_13h49.37.428,LearnStrategy,2023.2.3,Win32,58.47953216,9,2,8,,,,,,,,7,12,,,,,,,,,,,7,1.345,1,,,,,,0.107407393,-0.392592607,1,0,0,1.3451,Peridotite_rect,7,0,7,0,1,
66550501336446c73dbbb0cf,TCR,2024-06-21_13h49.37.428,LearnStrategy,2023.2.3,Win32,58.47953216,9,2,9,,,,,,,,2,02,,,,,,,,,,,2,2.858,1,,,,,,-0.132407365,-0.24537037,1,0,0,2.8577,Basalt_rect,8,0,8,0,1,
66550501336446c73dbbb0cf,TCR,2024-06-21_13h49.37.428,LearnStrategy,2023.2.3,Win32,58.47953216,9,2,10,,,,,,,,7,05,,,,,,,,,,,7,1.525,1,,,,,,0.146296325,-0.407407407,1,0,0,1.5249,Peridotite_rect,9,0,9,0,1,
66550501336446c73dbbb0cf,TCR,2024-06-21_13h49.37.428,LearnStrategy,2023.2.3,Win32,58.47953216,9,2,11,,,,,,,,6,11,,,,,,,,,,,6,16.444,1,,,,,,-0.097222222,-0.405555584,1,0,0,16.4439,Pegmatite_rect,10,0,10,0,1,
66550501336446c73dbbb0cf,TCR,2024-06-21_13h49.37.428,LearnStrategy,2023.2.3,Win32,58.47953216,9,2,12,,,,,,,,6,07,,,,,,,,,,,6,1.792,1,,,,,,-0.099999958,-0.393518519,1,0,0,1.7923,Pegmatite_rect,11,0,11,0,1,
66550501336446c73dbbb0cf,TCR,2024-06-21_13h49.37.428,LearnStrategy,2023.2.3,Win32,58.47953216,9,2,13,,,,,,,,1,02,,,,,,,,,,,1,34.545,1,,,,,,-0.416666667,-0.247222265,1,0,0,34.5446,Andesite_rect,12,0,12,0,1,
66550501336446c73dbbb0cf,TCR,2024-06-21_13h49.37.428,LearnStrategy,2023.2.3,Win32,58.47953216,9,2,14,,,,,,,,3,10,,,,,,,,,,,3,4.888,1,,,,,,0.14444443,-0.248148176,1,0,0,4.8884,Diorite_rect,13,0,13,0,1,
66550501336446c73dbbb0cf,TCR,2024-06-21_13h49.37.428,LearnStrategy,2023.2.3,Win32,58.47953216,9,2,15,,,,,,,,3,02,,,,,,,,,,,3,1.07,1,,,,,,0.102777764,-0.238888917,1,0,0,1.0701,Diorite_rect,14,0,14,0,1,
66550501336446c73dbbb0cf,TCR,2024-06-21_13h49.37.428,LearnStrategy,2023.2.3,Win32,58.47953216,9,2,16,,,,,,,,5,08,,,,,,,,,,,5,1.1,1,,,,,,-0.425925926,-0.415740755,1,0,0,1.1,Obsidian_rect,15,0,15,0,1,
66550501336446c73dbbb0cf,TCR,2024-06-21_13h49.37.428,LearnStrategy,2023.2.3,Win32,58.47953216,,,,,,,,,,,,,,,,,,,,,,,,,,,,,,,,,,,,,,,,,,,1
66550501336446c73dbbb0cf,TCR,2024-06-21_13h49.37.428,LearnStrategy,2023.2.3,Win32,58.47953216,,,,,,,,,,,,,,,,,,,,,,,,,,,,,,,,,,,,,,,,,,,
66550501336446c73dbbb0cf,TCR,2024-06-21_13h49.37.428,LearnStrategy,2023.2.3,Win32,58.47953216,,,,,,,,,,,8,04,1,1,,,,,,,,,,,,,,,,,,,,,,,,,,,,,
66550501336446c73dbbb0cf,TCR,2024-06-21_13h49.37.428,LearnStrategy,2023.2.3,Win32,58.47953216,,,,,,,,,,,1,03,1,2,,,,,,,,,,,,,,,,,,,,,,,,,,,,,
66550501336446c73dbbb0cf,TCR,2024-06-21_13h49.37.428,LearnStrategy,2023.2.3,Win32,58.47953216,,,,,,,,,,,4,15,1,3,,,,,,,,,,,,,,,,,,,,,,,,,,,,,
66550501336446c73dbbb0cf,TCR,2024-06-21_13h49.37.428,LearnStrategy,2023.2.3,Win32,58.47953216,,,,,,,,,,,1,09,1,4,,,,,,,,,,,,,,,,,,,,,,,,,,,,,
66550501336446c73dbbb0cf,TCR,2024-06-21_13h49.37.428,LearnStrategy,2023.2.3,Win32,58.47953216,,,,,,,,,,,5,02,1,5,,,,,,,,,,,,,,,,,,,,,,,,,,,,,
66550501336446c73dbbb0cf,TCR,2024-06-21_13h49.37.428,LearnStrategy,2023.2.3,Win32,58.47953216,,,,,,,,,,,5,11,1,6,,,,,,,,,,,,,,,,,,,,,,,,,,,,,
66550501336446c73dbbb0cf,TCR,2024-06-21_13h49.37.428,LearnStrategy,2023.2.3,Win32,58.47953216,,,,,,,,,,,4,09,1,7,,,,,,,,,,,,,,,,,,,,,,,,,,,,,
66550501336446c73dbbb0cf,TCR,2024-06-21_13h49.37.428,LearnStrategy,2023.2.3,Win32,58.47953216,,,,,,,,,,,7,13,1,8,,,,,,,,,,,,,,,,,,,,,,,,,,,,,
66550501336446c73dbbb0cf,TCR,2024-06-21_13h49.37.428,LearnStrategy,2023.2.3,Win32,58.47953216,,,,,,,,,,,6,05,2,1,,,,,,,,,,,,,,,,,,,,,,,,,,,,,
66550501336446c73dbbb0cf,TCR,2024-06-21_13h49.37.428,LearnStrategy,2023.2.3,Win32,58.47953216,,,,,,,,,,,2,11,2,2,,,,,,,,,,,,,,,,,,,,,,,,,,,,,
66550501336446c73dbbb0cf,TCR,2024-06-21_13h49.37.428,LearnStrategy,2023.2.3,Win32,58.47953216,,,,,,,,,,,3,09,2,3,,,,,,,,,,,,,,,,,,,,,,,,,,,,,
66550501336446c73dbbb0cf,TCR,2024-06-21_13h49.37.428,LearnStrategy,2023.2.3,Win32,58.47953216,,,,,,,,,,,6,09,2,4,,,,,,,,,,,,,,,,,,,,,,,,,,,,,
66550501336446c73dbbb0cf,TCR,2024-06-21_13h49.37.428,LearnStrategy,2023.2.3,Win32,58.47953216,,,,,,,,,,,8,08,2,5,,,,,,,,,,,,,,,,,,,,,,,,,,,,,
66550501336446c73dbbb0cf,TCR,2024-06-21_13h49.37.428,LearnStrategy,2023.2.3,Win32,58.47953216,,,,,,,,,,,3,07,2,6,,,,,,,,,,,,,,,,,,,,,,,,,,,,,
66550501336446c73dbbb0cf,TCR,2024-06-21_13h49.37.428,LearnStrategy,2023.2.3,Win32,58.47953216,,,,,,,,,,,5,09,2,7,,,,,,,,,,,,,,,,,,,,,,,,,,,,,
66550501336446c73dbbb0cf,TCR,2024-06-21_13h49.37.428,LearnStrategy,2023.2.3,Win32,58.47953216,,,,,,,,,,,8,09,2,8,,,,,,,,,,,,,,,,,,,,,,,,,,,,,
66550501336446c73dbbb0cf,TCR,2024-06-21_13h49.37.428,LearnStrategy,2023.2.3,Win32,58.47953216,,,,,,,,,,,2,08,3,1,,,,,,,,,,,,,,,,,,,,,,,,,,,,,
66550501336446c73dbbb0cf,TCR,2024-06-21_13h49.37.428,LearnStrategy,2023.2.3,Win32,58.47953216,,,,,,,,,,,7,16,3,2,,,,,,,,,,,,,,,,,,,,,,,,,,,,,
66550501336446c73dbbb0cf,TCR,2024-06-21_13h49.37.428,LearnStrategy,2023.2.3,Win32,58.47953216,,,,,,,,,,,8,13,3,3,,,,,,,,,,,,,,,,,,,,,,,,,,,,,
66550501336446c73dbbb0cf,TCR,2024-06-21_13h49.37.428,LearnStrategy,2023.2.3,Win32,58.47953216,,,,,,,,,,,1,07,3,4,,,,,,,,,,,,,,,,,,,,,,,,,,,,,
66550501336446c73dbbb0cf,TCR,2024-06-21_13h49.37.428,LearnStrategy,2023.2.3,Win32,58.47953216,,,,,,,,,,,3,12,3,5,,,,,,,,,,,,,,,,,,,,,,,,,,,,,
66550501336446c73dbbb0cf,TCR,2024-06-21_13h49.37.428,LearnStrategy,2023.2.3,Win32,58.47953216,,,,,,,,,,,7,07,3,6,,,,,,,,,,,,,,,,,,,,,,,,,,,,,
66550501336446c73dbbb0cf,TCR,2024-06-21_13h49.37.428,LearnStrategy,2023.2.3,Win32,58.47953216,,,,,,,,,,,2,16,3,7,,,,,,,,,,,,,,,,,,,,,,,,,,,,,
66550501336446c73dbbb0cf,TCR,2024-06-21_13h49.37.428,LearnStrategy,2023.2.3,Win32,58.47953216,,,,,,,,,,,6,12,3,8,,,,,,,,,,,,,,,,,,,,,,,,,,,,,
66550501336446c73dbbb0cf,TCR,2024-06-21_13h49.37.428,LearnStrategy,2023.2.3,Win32,58.47953216,,,,,,,,,,,3,11,4,1,,,,,,,,,,,,,,,,,,,,,,,,,,,,,
66550501336446c73dbbb0cf,TCR,2024-06-21_13h49.37.428,LearnStrategy,2023.2.3,Win32,58.47953216,,,,,,,,,,,8,14,4,2,,,,,,,,,,,,,,,,,,,,,,,,,,,,,
66550501336446c73dbbb0cf,TCR,2024-06-21_13h49.37.428,LearnStrategy,2023.2.3,Win32,58.47953216,,,,,,,,,,,4,16,4,3,,,,,,,,,,,,,,,,,,,,,,,,,,,,,
66550501336446c73dbbb0cf,TCR,2024-06-21_13h49.37.428,LearnStrategy,2023.2.3,Win32,58.47953216,,,,,,,,,,,1,10,4,4,,,,,,,,,,,,,,,,,,,,,,,,,,,,,
66550501336446c73dbbb0cf,TCR,2024-06-21_13h49.37.428,LearnStrategy,2023.2.3,Win32,58.47953216,,,,,,,,,,,2,06,4,5,,,,,,,,,,,,,,,,,,,,,,,,,,,,,
66550501336446c73dbbb0cf,TCR,2024-06-21_13h49.37.428,LearnStrategy,2023.2.3,Win32,58.47953216,,,,,,,,,,,4,05,4,6,,,,,,,,,,,,,,,,,,,,,,,,,,,,,
66550501336446c73dbbb0cf,TCR,2024-06-21_13h49.37.428,LearnStrategy,2023.2.3,Win32,58.47953216,,,,,,,,,,,2,09,4,7,,,,,,,,,,,,,,,,,,,,,,,,,,,,,
66550501336446c73dbbb0cf,TCR,2024-06-21_13h49.37.428,LearnStrategy,2023.2.3,Win32,58.47953216,,,,,,,,,,,6,16,4,8,,,,,,,,,,,,,,,,,,,,,,,,,,,,,
66550501336446c73dbbb0cf,TCR,2024-06-21_13h49.37.428,LearnStrategy,2023.2.3,Win32,58.47953216,,,,,,,,,,,3,06,5,1,,,,,,,,,,,,,,,,,,,,,,,,,,,,,
66550501336446c73dbbb0cf,TCR,2024-06-21_13h49.37.428,LearnStrategy,2023.2.3,Win32,58.47953216,,,,,,,,,,,7,10,5,2,,,,,,,,,,,,,,,,,,,,,,,,,,,,,
66550501336446c73dbbb0cf,TCR,2024-06-21_13h49.37.428,LearnStrategy,2023.2.3,Win32,58.47953216,,,,,,,,,,,6,06,5,3,,,,,,,,,,,,,,,,,,,,,,,,,,,,,
66550501336446c73dbbb0cf,TCR,2024-06-21_13h49.37.428,LearnStrategy,2023.2.3,Win32,58.47953216,,,,,,,,,,,5,16,5,4,,,,,,,,,,,,,,,,,,,,,,,,,,,,,
66550501336446c73dbbb0cf,TCR,2024-06-21_13h49.37.428,LearnStrategy,2023.2.3,Win32,58.47953216,,,,,,,,,,,5,10,5,5,,,,,,,,,,,,,,,,,,,,,,,,,,,,,
66550501336446c73dbbb0cf,TCR,2024-06-21_13h49.37.428,LearnStrategy,2023.2.3,Win32,58.47953216,,,,,,,,,,,6,03,5,6,,,,,,,,,,,,,,,,,,,,,,,,,,,,,
66550501336446c73dbbb0cf,TCR,2024-06-21_13h49.37.428,LearnStrategy,2023.2.3,Win32,58.47953216,,,,,,,,,,,1,06,5,7,,,,,,,,,,,,,,,,,,,,,,,,,,,,,
66550501336446c73dbbb0cf,TCR,2024-06-21_13h49.37.428,LearnStrategy,2023.2.3,Win32,58.47953216,,,,,,,,,,,2,05,5,8,,,,,,,,,,,,,,,,,,,,,,,,,,,,,
66550501336446c73dbbb0cf,TCR,2024-06-21_13h49.37.428,LearnStrategy,2023.2.3,Win32,58.47953216,,,,,,,,,,,7,08,6,1,,,,,,,,,,,,,,,,,,,,,,,,,,,,,
66550501336446c73dbbb0cf,TCR,2024-06-21_13h49.37.428,LearnStrategy,2023.2.3,Win32,58.47953216,,,,,,,,,,,7,14,6,2,,,,,,,,,,,,,,,,,,,,,,,,,,,,,
66550501336446c73dbbb0cf,TCR,2024-06-21_13h49.37.428,LearnStrategy,2023.2.3,Win32,58.47953216,,,,,,,,,,,1,04,6,3,,,,,,,,,,,,,,,,,,,,,,,,,,,,,
66550501336446c73dbbb0cf,TCR,2024-06-21_13h49.37.428,LearnStrategy,2023.2.3,Win32,58.47953216,,,,,,,,,,,5,07,6,4,,,,,,,,,,,,,,,,,,,,,,,,,,,,,
66550501336446c73dbbb0cf,TCR,2024-06-21_13h49.37.428,LearnStrategy,2023.2.3,Win32,58.47953216,,,,,,,,,,,3,08,6,5,,,,,,,,,,,,,,,,,,,,,,,,,,,,,
66550501336446c73dbbb0cf,TCR,2024-06-21_13h49.37.428,LearnStrategy,2023.2.3,Win32,58.47953216,,,,,,,,,,,4,10,6,6,,,,,,,,,,,,,,,,,,,,,,,,,,,,,
66550501336446c73dbbb0cf,TCR,2024-06-21_13h49.37.428,LearnStrategy,2023.2.3,Win32,58.47953216,,,,,,,,,,,8,10,6,7,,,,,,,,,,,,,,,,,,,,,,,,,,,,,
66550501336446c73dbbb0cf,TCR,2024-06-21_13h49.37.428,LearnStrategy,2023.2.3,Win32,58.47953216,,,,,,,,,,,4,03,6,8,,,,,,,,,,,,,,,,,,,,,,,,,,,,,