participant,condition,date,expName,psychopyVersion,OS,frameRate,block,phase,trial,learn_mouse.x,learn_mouse.y,learn_mouse.leftButton,learn_mouse.midButton,learn_mouse.rightButton,learn_mouse.time,learn_mouse.clicked_name,cat,token,row,col,t_select,cat_mouse_l.x,cat_mouse_l.y,cat_mouse_l.leftButton,cat_mouse_l.midButton,cat_mouse_l.rightButton,cat_mouse_l.time,cat_mouse_l.clicked_name,resp,t_resp,corr,train_trials.thisRepN,train_trials.thisTrialN,train_trials.thisN,train_trials.thisIndex,train_trials.ran,cat_mouse_t.x,cat_mouse_t.y,cat_mouse_t.leftButton,cat_mouse_t.midButton,cat_mouse_t.rightButton,cat_mouse_t.time,cat_mouse_t.clicked_name,test_trials.thisRepN,test_trials.thisTrialN,test_trials.thisN,test_trials.thisIndex,test_trials.ran
66566a8fe3e2a46451a178b2,SCN,2024-06-10_14h03.34.195,LearnStrategy,2023.2.3,MacIntel,59.88023952,,,,,,,,,,,,,,,,,,,,,,,,,,,,,,,,,,,,,,,,,,
66566a8fe3e2a46451a178b2,SCN,2024-06-10_14h03.34.195,LearnStrategy,2023.2.3,MacIntel,59.88023952,1,1,1,-0.55233941,-0.088841146,1,0,0,6.5282,Obsidian_02,5,02,3,1,6.528,-0.384149306,-0.40546441,1,0,0,6.8078,Obsidian_rect,5,6.808,1,0,0,0,0,1,,,,,,,,,,,,
66566a8fe3e2a46451a178b2,SCN,2024-06-10_14h03.34.195,LearnStrategy,2023.2.3,MacIntel,59.88023952,1,1,2,0.219262153,-0.389201389,1,0,0,10.364,Obsidian_08,5,08,1,6,10.364,-0.075664063,-0.243038194,1,0,0,3.6991,Basalt_rect,2,3.699,0,1,0,1,0,1,,,,,,,,,,,,
66566a8fe3e2a46451a178b2,SCN,2024-06-10_14h03.34.195,LearnStrategy,2023.2.3,MacIntel,59.88023952,1,1,3,0.234118924,0.238576389,1,0,0,5.4486,Obsidian_11,5,11,5,6,5.449,-0.406124132,-0.382686632,1,0,0,1.8987,Obsidian_rect,5,1.899,1,2,0,2,0,1,,,,,,,,,,,,
66566a8fe3e2a46451a178b2,SCN,2024-06-10_14h03.34.195,LearnStrategy,2023.2.3,MacIntel,59.88023952,1,1,4,-0.204939236,-0.093554687,1,0,0,3.1824,Diorite_12,3,12,3,3,3.182,0.182747396,-0.269270833,1,0,0,4.466,Diorite_rect,3,4.466,1,3,0,3,0,1,,,,,,,,,,,,
66566a8fe3e2a46451a178b2,SCN,2024-06-10_14h03.34.195,LearnStrategy,2023.2.3,MacIntel,59.88023952,1,1,5,0.408133681,-0.247625868,1,0,0,2.5814,Diorite_08,3,08,2,7,2.581,0.147274306,-0.414852431,1,0,0,3.8916,Peridotite_rect,7,3.892,0,4,0,4,0,1,,,,,,,,,,,,
66566a8fe3e2a46451a178b2,SCN,2024-06-10_14h03.34.195,LearnStrategy,2023.2.3,MacIntel,59.88023952,1,1,6,0.040169271,0.068736979,1,0,0,1.4831,Pumice_08,8,08,4,5,1.483,-0.158328993,-0.390143229,1,0,0,2.5056,Pegmatite_rect,6,2.506,0,5,0,5,0,1,,,,,,,,,,,,
66566a8fe3e2a46451a178b2,SCN,2024-06-10_14h03.34.195,LearnStrategy,2023.2.3,MacIntel,59.88023952,1,1,7,-0.592100694,-0.238467882,1,0,0,3.9836,Diorite_07,3,07,2,1,3.984,-0.167604167,-0.391393229,1,0,0,2.8833,Pegmatite_rect,6,2.883,0,6,0,6,0,1,,,,,,,,,,,,
66566a8fe3e2a46451a178b2,SCN,2024-06-10_14h03.34.195,LearnStrategy,2023.2.3,MacIntel,59.88023952,1,1,8,0.078450521,0.045091146,1,0,0,1.4982,Pumice_08,8,08,4,5,1.498,0.329704861,-0.234652778,1,0,0,2.0399,Gabbro_rect,4,2.04,0,7,0,7,0,1,,,,,,,,,,,,
66566a8fe3e2a46451a178b2,SCN,2024-06-10_14h03.34.195,LearnStrategy,2023.2.3,MacIntel,59.88023952,1,1,9,0.379787326,-0.119396701,1,0,0,1.6642,Andesite_11,1,11,3,7,1.664,0.074648437,-0.262048611,1,0,0,1.6397,Diorite_rect,3,1.64,0,8,0,8,0,1,,,,,,,,,,,,
66566a8fe3e2a46451a178b2,SCN,2024-06-10_14h03.34.195,LearnStrategy,2023.2.3,MacIntel,59.88023952,1,1,10,-0.212387153,-0.378485243,1,0,0,2.4832,Pegmatite_13,6,13,1,3,2.483,0.06155816,-0.407986111,1,0,0,3.1592,Peridotite_rect,7,3.159,0,9,0,9,0,1,,,,,,,,,,,,
66566a8fe3e2a46451a178b2,SCN,2024-06-10_14h03.34.195,LearnStrategy,2023.2.3,MacIntel,59.88023952,1,1,11,-0.536731771,-0.133828125,1,0,0,1.6142,Obsidian_02,5,02,3,1,1.614,-0.340112847,-0.416527778,1,0,0,2.4407,Obsidian_rect,5,2.441,1,10,0,10,0,1,,,,,,,,,,,,
66566a8fe3e2a46451a178b2,SCN,2024-06-10_14h03.34.195,LearnStrategy,2023.2.3,MacIntel,59.88023952,1,1,12,0.063133681,-0.093029514,1,0,0,1.0671,Gabbro_11,4,11,3,5,1.067,0.114401042,-0.241484375,1,0,0,1.0089,Diorite_rect,3,1.009,0,11,0,11,0,1,,,,,,,,,,,,
66566a8fe3e2a46451a178b2,SCN,2024-06-10_14h03.34.195,LearnStrategy,2023.2.3,MacIntel,59.88023952,1,1,13,-0.074292535,-0.130225694,1,0,0,1.0983,Pumice_10,8,10,3,4,1.098,-0.117907986,-0.392695313,1,0,0,1.9586,Pegmatite_rect,6,1.959,0,12,0,12,0,1,,,,,,,,,,,,
66566a8fe3e2a46451a178b2,SCN,2024-06-10_14h03.34.195,LearnStrategy,2023.2.3,MacIntel,59.88023952,1,1,14,-0.223819444,0.073294271,1,0,0,1.981,Pumice_13,8,13,4,3,1.981,0.061041667,-0.245221354,1,0,0,2.0086,Diorite_rect,3,2.009,0,13,0,13,0,1,,,,,,,,,,,,
66566a8fe3e2a46451a178b2,SCN,2024-06-10_14h03.34.195,LearnStrategy,2023.2.3,MacIntel,59.88023952,1,1,15,-0.067617187,0.228936632,1,0,0,1.5158,Pumice_06,8,06,5,4,1.516,0.366002604,-0.421328125,1,0,0,3.2261,Pumice_rect,8,3.226,1,14,0,14,0,1,,,,,,,,,,,,
66566a8fe3e2a46451a178b2,SCN,2024-06-10_14h03.34.195,LearnStrategy,2023.2.3,MacIntel,59.88023952,1,1,16,0.229184028,0.413103299,1,0,0,1.9482,Pumice_03,8,03,6,6,1.948,0.376692708,-0.421796875,1,0,0,1.6564,Pumice_rect,8,1.656,1,15,0,15,0,1,,,,,,,,,,,,
66566a8fe3e2a46451a178b2,SCN,2024-06-10_14h03.34.195,LearnStrategy,2023.2.3,MacIntel,59.88023952,1,2,1,,,,,,,,8,04,,,,,,,,,,,2,6.158,0,,,,,,-0.103207465,-0.260334201,1,0,0,6.1581,Basalt_rect,0,0,0,0,1
66566a8fe3e2a46451a178b2,SCN,2024-06-10_14h03.34.195,LearnStrategy,2023.2.3,MacIntel,59.88023952,1,2,2,,,,,,,,7,07,,,,,,,,,,,3,3.807,0,,,,,,0.211575521,-0.259405382,1,0,0,3.807,Diorite_rect,1,0,1,0,1
66566a8fe3e2a46451a178b2,SCN,2024-06-10_14h03.34.195,LearnStrategy,2023.2.3,MacIntel,59.88023952,1,2,3,,,,,,,,8,15,,,,,,,,,,,8,2.26,1,,,,,,0.340585937,-0.389578993,1,0,0,2.2602,Pumice_rect,2,0,2,0,1
66566a8fe3e2a46451a178b2,SCN,2024-06-10_14h03.34.195,LearnStrategy,2023.2.3,MacIntel,59.88023952,1,2,4,,,,,,,,6,16,,,,,,,,,,,4,2.611,0,,,,,,0.316801215,-0.265186632,1,0,0,2.6113,Gabbro_rect,3,0,3,0,1
66566a8fe3e2a46451a178b2,SCN,2024-06-10_14h03.34.195,LearnStrategy,2023.2.3,MacIntel,59.88023952,1,2,5,,,,,,,,6,07,,,,,,,,,,,6,2.743,1,,,,,,-0.146601563,-0.407990451,1,0,0,2.7434,Pegmatite_rect,4,0,4,0,1
66566a8fe3e2a46451a178b2,SCN,2024-06-10_14h03.34.195,LearnStrategy,2023.2.3,MacIntel,59.88023952,1,2,6,,,,,,,,5,14,,,,,,,,,,,5,1.375,1,,,,,,-0.360868056,-0.398897569,1,0,0,1.3752,Obsidian_rect,5,0,5,0,1
66566a8fe3e2a46451a178b2,SCN,2024-06-10_14h03.34.195,LearnStrategy,2023.2.3,MacIntel,59.88023952,1,2,7,,,,,,,,3,10,,,,,,,,,,,4,6.724,0,,,,,,0.332118056,-0.258997396,1,0,0,6.7242,Gabbro_rect,6,0,6,0,1
66566a8fe3e2a46451a178b2,SCN,2024-06-10_14h03.34.195,LearnStrategy,2023.2.3,MacIntel,59.88023952,1,2,8,,,,,,,,1,16,,,,,,,,,,,3,3.544,0,,,,,,0.171692708,-0.269891493,1,0,0,3.5443,Diorite_rect,7,0,7,0,1
66566a8fe3e2a46451a178b2,SCN,2024-06-10_14h03.34.195,LearnStrategy,2023.2.3,MacIntel,59.88023952,1,2,9,,,,,,,,3,14,,,,,,,,,,,6,2.025,0,,,,,,-0.071063368,-0.379822049,1,0,0,2.0248,Pegmatite_rect,8,0,8,0,1
66566a8fe3e2a46451a178b2,SCN,2024-06-10_14h03.34.195,LearnStrategy,2023.2.3,MacIntel,59.88023952,1,2,10,,,,,,,,2,04,,,,,,,,,,,5,3.123,0,,,,,,-0.374231771,-0.399752604,1,0,0,3.1225,Obsidian_rect,9,0,9,0,1
66566a8fe3e2a46451a178b2,SCN,2024-06-10_14h03.34.195,LearnStrategy,2023.2.3,MacIntel,59.88023952,1,2,11,,,,,,,,4,09,,,,,,,,,,,5,0.624,0,,,,,,-0.3721875,-0.396519097,1,0,0,0.6236,Obsidian_rect,10,0,10,0,1
66566a8fe3e2a46451a178b2,SCN,2024-06-10_14h03.34.195,LearnStrategy,2023.2.3,MacIntel,59.88023952,1,2,12,,,,,,,,2,09,,,,,,,,,,,1,4.659,0,,,,,,-0.458914931,-0.231866319,1,0,0,4.6587,Andesite_rect,11,0,11,0,1
66566a8fe3e2a46451a178b2,SCN,2024-06-10_14h03.34.195,LearnStrategy,2023.2.3,MacIntel,59.88023952,1,2,13,,,,,,,,5,12,,,,,,,,,,,5,1.758,1,,,,,,-0.394179687,-0.398689236,1,0,0,1.7578,Obsidian_rect,12,0,12,0,1
66566a8fe3e2a46451a178b2,SCN,2024-06-10_14h03.34.195,LearnStrategy,2023.2.3,MacIntel,59.88023952,1,2,14,,,,,,,,4,16,,,,,,,,,,,7,2.925,0,,,,,,0.087899306,-0.412248264,1,0,0,2.9249,Peridotite_rect,13,0,13,0,1
66566a8fe3e2a46451a178b2,SCN,2024-06-10_14h03.34.195,LearnStrategy,2023.2.3,MacIntel,59.88023952,1,2,15,,,,,,,,7,13,,,,,,,,,,,4,2.476,0,,,,,,0.32062066,-0.260381944,1,0,0,2.4764,Gabbro_rect,14,0,14,0,1
66566a8fe3e2a46451a178b2,SCN,2024-06-10_14h03.34.195,LearnStrategy,2023.2.3,MacIntel,59.88023952,1,2,16,,,,,,,,1,02,,,,,,,,,,,6,4.426,0,,,,,,-0.092282986,-0.419461806,1,0,0,4.4262,Pegmatite_rect,15,0,15,0,1
66566a8fe3e2a46451a178b2,SCN,2024-06-10_14h03.34.195,LearnStrategy,2023.2.3,MacIntel,59.88023952,2,1,1,-0.520086806,0.396892361,1,0,0,4.0283,Andesite_05,1,05,6,1,4.028,-0.363020833,-0.230820313,1,0,0,1.5125,Andesite_rect,1,1.512,1,0,0,0,0,1,,,,,,,,,,,,
66566a8fe3e2a46451a178b2,SCN,2024-06-10_14h03.34.195,LearnStrategy,2023.2.3,MacIntel,59.88023952,2,1,2,-0.375881076,0.391710069,1,0,0,1.1977,Pegmatite_09,6,09,6,2,1.198,-0.067560764,-0.27046441,1,0,0,1.6406,Basalt_rect,2,1.641,0,1,0,1,0,1,,,,,,,,,,,,
66566a8fe3e2a46451a178b2,SCN,2024-06-10_14h03.34.195,LearnStrategy,2023.2.3,MacIntel,59.88023952,2,1,3,-0.516167535,0.435698785,1,0,0,1.2674,Andesite_05,1,05,6,1,1.267,-0.123467882,-0.259878472,1,0,0,0.9418,Basalt_rect,2,0.942,0,2,0,2,0,1,,,,,,,,,,,,
66566a8fe3e2a46451a178b2,SCN,2024-06-10_14h03.34.195,LearnStrategy,2023.2.3,MacIntel,59.88023952,2,1,4,-0.215368924,0.227638889,1,0,0,1.4324,Basalt_02,2,02,5,3,1.432,-0.06765191,-0.384852431,1,0,0,1.6902,Pegmatite_rect,6,1.69,0,3,0,3,0,1,,,,,,,,,,,,
66566a8fe3e2a46451a178b2,SCN,2024-06-10_14h03.34.195,LearnStrategy,2023.2.3,MacIntel,59.88023952,2,1,5,0.079244792,0.064782986,1,0,0,1.383,Pumice_08,8,08,4,5,1.383,-0.309609375,-0.246332465,1,0,0,1.9925,Andesite_rect,1,1.993,0,4,0,4,0,1,,,,,,,,,,,,
66566a8fe3e2a46451a178b2,SCN,2024-06-10_14h03.34.195,LearnStrategy,2023.2.3,MacIntel,59.88023952,2,1,6,0.386831597,-0.259969618,1,0,0,1.7699,Diorite_08,3,08,2,7,1.77,0.183802083,-0.233993056,1,0,0,1.4413,Diorite_rect,3,1.441,1,5,0,5,0,1,,,,,,,,,,,,
66566a8fe3e2a46451a178b2,SCN,2024-06-10_14h03.34.195,LearnStrategy,2023.2.3,MacIntel,59.88023952,2,1,7,-0.081588542,-0.096375868,1,0,0,11.4825,Pumice_10,8,10,3,4,11.483,-0.064956597,-0.231488715,1,0,0,1.0619,Basalt_rect,2,1.062,0,6,0,6,0,1,,,,,,,,,,,,
66566a8fe3e2a46451a178b2,SCN,2024-06-10_14h03.34.195,LearnStrategy,2023.2.3,MacIntel,59.88023952,2,1,8,0.084561632,-0.413289931,1,0,0,1.3492,Basalt_10,2,10,1,5,1.349,0.121974826,-0.250243056,1,0,0,0.9439,Diorite_rect,3,0.944,0,7,0,7,0,1,,,,,,,,,,,,
66566a8fe3e2a46451a178b2,SCN,2024-06-10_14h03.34.195,LearnStrategy,2023.2.3,MacIntel,59.88023952,2,1,9,0.236354167,-0.434019097,1,0,0,1.515,Obsidian_08,5,08,1,6,1.515,-0.464973958,-0.419249132,1,0,0,0.7958,Obsidian_rect,5,0.796,1,8,0,8,0,1,,,,,,,,,,,,
66566a8fe3e2a46451a178b2,SCN,2024-06-10_14h03.34.195,LearnStrategy,2023.2.3,MacIntel,59.88023952,2,1,10,0.562178819,-0.122400174,1,0,0,7.9298,Basalt_08,2,08,3,8,7.93,-0.089357639,-0.382209201,1,0,0,14.2673,Pegmatite_rect,6,14.267,0,9,0,9,0,1,,,,,,,,,,,,
66566a8fe3e2a46451a178b2,SCN,2024-06-10_14h03.34.195,LearnStrategy,2023.2.3,MacIntel,59.88023952,2,1,11,0.065360243,-0.097547743,1,0,0,0.7635,Gabbro_11,4,11,3,5,0.763,0.131818576,-0.24297309,1,0,0,1.1409,Diorite_rect,3,1.141,0,10,0,10,0,1,,,,,,,,,,,,
66566a8fe3e2a46451a178b2,SCN,2024-06-10_14h03.34.195,LearnStrategy,2023.2.3,MacIntel,59.88023952,2,1,12,-0.20437934,-0.090121528,1,0,0,13.5362,Diorite_12,3,12,3,3,13.536,-0.154388021,-0.25062066,1,0,0,3.9364,Basalt_rect,2,3.936,0,11,0,11,0,1,,,,,,,,,,,,
66566a8fe3e2a46451a178b2,SCN,2024-06-10_14h03.34.195,LearnStrategy,2023.2.3,MacIntel,59.88023952,2,1,13,0.268537326,0.230959201,1,0,0,15.0547,Obsidian_11,5,11,5,6,15.055,-0.387335069,-0.407573785,1,0,0,1.4129,Obsidian_rect,5,1.413,1,12,0,12,0,1,,,,,,,,,,,,
66566a8fe3e2a46451a178b2,SCN,2024-06-10_14h03.34.195,LearnStrategy,2023.2.3,MacIntel,59.88023952,2,1,14,0.05952691,-0.111679687,1,0,0,0.8469,Gabbro_11,4,11,3,5,0.847,-0.133324653,-0.250759549,1,0,0,1.1944,Basalt_rect,2,1.194,0,13,0,13,0,1,,,,,,,,,,,,
66566a8fe3e2a46451a178b2,SCN,2024-06-10_14h03.34.195,LearnStrategy,2023.2.3,MacIntel,59.88023952,2,1,15,0.10702691,-0.261584201,1,0,0,0.815,Gabbro_01,4,01,2,5,0.815,0.10702691,-0.261584201,1,0,0,0.4403,Diorite_rect,3,0.44,0,14,0,14,0,1,,,,,,,,,,,,
66566a8fe3e2a46451a178b2,SCN,2024-06-10_14h03.34.195,LearnStrategy,2023.2.3,MacIntel,59.88023952,2,1,16,0.229327257,-0.428025174,1,0,0,0.7473,Obsidian_08,5,08,1,6,0.747,0.171888021,-0.236436632,1,0,0,1.527,Diorite_rect,3,1.527,0,15,0,15,0,1,,,,,,,,,,,,
66566a8fe3e2a46451a178b2,SCN,2024-06-10_14h03.34.195,LearnStrategy,2023.2.3,MacIntel,59.88023952,2,2,1,,,,,,,,2,16,,,,,,,,,,,8,3.258,0,,,,,,0.379414062,-0.405238715,1,0,0,3.258,Pumice_rect,0,0,0,0,1
66566a8fe3e2a46451a178b2,SCN,2024-06-10_14h03.34.195,LearnStrategy,2023.2.3,MacIntel,59.88023952,2,2,2,,,,,,,,6,10,,,,,,,,,,,3,0.875,0,,,,,,0.126875,-0.262929688,1,0,0,0.8751,Diorite_rect,1,0,1,0,1
66566a8fe3e2a46451a178b2,SCN,2024-06-10_14h03.34.195,LearnStrategy,2023.2.3,MacIntel,59.88023952,2,2,3,,,,,,,,7,02,,,,,,,,,,,4,14.009,0,,,,,,0.358272569,-0.236684028,1,0,0,14.0088,Gabbro_rect,2,0,2,0,1
66566a8fe3e2a46451a178b2,SCN,2024-06-10_14h03.34.195,LearnStrategy,2023.2.3,MacIntel,59.88023952,2,2,4,,,,,,,,8,14,,,,,,,,,,,6,4.094,0,,,,,,-0.183485243,-0.398107639,1,0,0,4.094,Pegmatite_rect,3,0,3,0,1
66566a8fe3e2a46451a178b2,SCN,2024-06-10_14h03.34.195,LearnStrategy,2023.2.3,MacIntel,59.88023952,2,2,5,,,,,,,,4,13,,,,,,,,,,,5,1.324,0,,,,,,-0.345325521,-0.400403646,1,0,0,1.3241,Obsidian_rect,4,0,4,0,1
66566a8fe3e2a46451a178b2,SCN,2024-06-10_14h03.34.195,LearnStrategy,2023.2.3,MacIntel,59.88023952,2,2,6,,,,,,,,3,06,,,,,,,,,,,1,4.159,0,,,,,,-0.365881076,-0.245828993,1,0,0,4.1588,Andesite_rect,5,0,5,0,1
66566a8fe3e2a46451a178b2,SCN,2024-06-10_14h03.34.195,LearnStrategy,2023.2.3,MacIntel,59.88023952,2,2,7,,,,,,,,5,04,,,,,,,,,,,5,2.192,1,,,,,,-0.371549479,-0.409014757,1,0,0,2.1915,Obsidian_rect,6,0,6,0,1
66566a8fe3e2a46451a178b2,SCN,2024-06-10_14h03.34.195,LearnStrategy,2023.2.3,MacIntel,59.88023952,2,2,8,,,,,,,,1,07,,,,,,,,,,,3,3.388,0,,,,,,0.142078993,-0.265551215,1,0,0,3.3885,Diorite_rect,7,0,7,0,1
66566a8fe3e2a46451a178b2,SCN,2024-06-10_14h03.34.195,LearnStrategy,2023.2.3,MacIntel,59.88023952,2,2,9,,,,,,,,5,16,,,,,,,,,,,5,1.525,1,,,,,,-0.336636285,-0.384713542,1,0,0,1.5248,Obsidian_rect,8,0,8,0,1
66566a8fe3e2a46451a178b2,SCN,2024-06-10_14h03.34.195,LearnStrategy,2023.2.3,MacIntel,59.88023952,2,2,10,,,,,,,,6,06,,,,,,,,,,,8,2.557,0,,,,,,0.406150174,-0.389431424,1,0,0,2.5575,Pumice_rect,9,0,9,0,1
66566a8fe3e2a46451a178b2,SCN,2024-06-10_14h03.34.195,LearnStrategy,2023.2.3,MacIntel,59.88023952,2,2,11,,,,,,,,8,05,,,,,,,,,,,7,1.792,0,,,,,,0.184826389,-0.421519097,1,0,0,1.7916,Peridotite_rect,10,0,10,0,1
66566a8fe3e2a46451a178b2,SCN,2024-06-10_14h03.34.195,LearnStrategy,2023.2.3,MacIntel,59.88023952,2,2,12,,,,,,,,4,03,,,,,,,,,,,2,8.236,0,,,,,,-0.147248264,-0.25937066,1,0,0,8.2355,Basalt_rect,11,0,11,0,1
66566a8fe3e2a46451a178b2,SCN,2024-06-10_14h03.34.195,LearnStrategy,2023.2.3,MacIntel,59.88023952,2,2,13,,,,,,,,1,06,,,,,,,,,,,1,3.177,1,,,,,,-0.347521701,-0.234878472,1,0,0,3.1773,Andesite_rect,12,0,12,0,1
66566a8fe3e2a46451a178b2,SCN,2024-06-10_14h03.34.195,LearnStrategy,2023.2.3,MacIntel,59.88023952,2,2,14,,,,,,,,2,12,,,,,,,,,,,2,2.289,1,,,,,,-0.068051215,-0.249904514,1,0,0,2.2893,Basalt_rect,13,0,13,0,1
66566a8fe3e2a46451a178b2,SCN,2024-06-10_14h03.34.195,LearnStrategy,2023.2.3,MacIntel,59.88023952,2,2,15,,,,,,,,7,08,,,,,,,,,,,7,3.507,1,,,,,,0.209157986,-0.413272569,1,0,0,3.5071,Peridotite_rect,14,0,14,0,1
66566a8fe3e2a46451a178b2,SCN,2024-06-10_14h03.34.195,LearnStrategy,2023.2.3,MacIntel,59.88023952,2,2,16,,,,,,,,3,02,,,,,,,,,,,4,3.092,0,,,,,,0.294448785,-0.262773437,1,0,0,3.0925,Gabbro_rect,15,0,15,0,1
66566a8fe3e2a46451a178b2,SCN,2024-06-10_14h03.34.195,LearnStrategy,2023.2.3,MacIntel,59.88023952,3,1,1,0.057725694,-0.092747396,1,0,0,1.289,Gabbro_11,4,11,3,5,1.289,-0.343667535,-0.229105903,1,0,0,0.9743,Andesite_rect,1,0.974,0,0,0,0,0,1,,,,,,,,,,,,
66566a8fe3e2a46451a178b2,SCN,2024-06-10_14h03.34.195,LearnStrategy,2023.2.3,MacIntel,59.88023952,3,1,2,0.373641493,0.082361111,1,0,0,4.1467,Obsidian_05,5,05,4,7,4.147,-0.089578993,-0.254474826,1,0,0,1.7333,Basalt_rect,2,1.733,0,1,0,1,0,1,,,,,,,,,,,,
66566a8fe3e2a46451a178b2,SCN,2024-06-10_14h03.34.195,LearnStrategy,2023.2.3,MacIntel,59.88023952,3,1,3,0.569856771,-0.417469618,1,0,0,84.9012,Basalt_14,2,14,1,8,84.901,0.057065972,-0.262413194,1,0,0,0.9124,Diorite_rect,3,0.912,0,2,0,2,0,1,,,,,,,,,,,,
66566a8fe3e2a46451a178b2,SCN,2024-06-10_14h03.34.195,LearnStrategy,2023.2.3,MacIntel,59.88023952,3,1,4,0.401610243,-0.381189236,1,0,0,1.2811,Pegmatite_15,6,15,1,7,1.281,0.318541667,-0.268953993,1,0,0,1.2407,Gabbro_rect,4,1.241,0,3,0,3,0,1,,,,,,,,,,,,
66566a8fe3e2a46451a178b2,SCN,2024-06-10_14h03.34.195,LearnStrategy,2023.2.3,MacIntel,59.88023952,3,1,5,0.205794271,-0.426675347,1,0,0,2.0149,Obsidian_08,5,08,1,6,2.015,-0.360993924,-0.395347222,1,0,0,1.4097,Obsidian_rect,5,1.41,1,4,0,4,0,1,,,,,,,,,,,,
66566a8fe3e2a46451a178b2,SCN,2024-06-10_14h03.34.195,LearnStrategy,2023.2.3,MacIntel,59.88023952,3,1,6,0.025520833,-0.427751736,1,0,0,0.7966,Basalt_10,2,10,1,5,0.797,0.138046875,-0.254804688,1,0,0,0.7914,Diorite_rect,3,0.791,0,5,0,5,0,1,,,,,,,,,,,,
66566a8fe3e2a46451a178b2,SCN,2024-06-10_14h03.34.195,LearnStrategy,2023.2.3,MacIntel,59.88023952,3,1,7,-0.091510417,-0.437469618,1,0,0,1.1162,Diorite_09,3,09,1,4,1.116,-0.145230035,-0.247152778,1,0,0,0.859,Basalt_rect,2,0.859,0,6,0,6,0,1,,,,,,,,,,,,
66566a8fe3e2a46451a178b2,SCN,2024-06-10_14h03.34.195,LearnStrategy,2023.2.3,MacIntel,59.88023952,3,1,8,-0.287578125,-0.442387153,1,0,0,0.7642,Pegmatite_13,6,13,1,3,0.764,-0.097178819,-0.411289063,1,0,0,1.8123,Pegmatite_rect,6,1.812,1,7,0,7,0,1,,,,,,,,,,,,
66566a8fe3e2a46451a178b2,SCN,2024-06-10_14h03.34.195,LearnStrategy,2023.2.3,MacIntel,59.88023952,3,1,9,-0.424466146,-0.42969184,1,0,0,1.3975,Basalt_06,2,06,1,2,1.398,-0.384748264,-0.406423611,1,0,0,1.577,Obsidian_rect,5,1.577,0,8,0,8,0,1,,,,,,,,,,,,
66566a8fe3e2a46451a178b2,SCN,2024-06-10_14h03.34.195,LearnStrategy,2023.2.3,MacIntel,59.88023952,3,1,10,0.502842882,-0.236536458,1,0,0,8.5317,Gabbro_12,4,12,2,8,8.532,0.105143229,-0.251822917,1,0,0,1.4652,Diorite_rect,3,1.465,0,9,0,9,0,1,,,,,,,,,,,,
66566a8fe3e2a46451a178b2,SCN,2024-06-10_14h03.34.195,LearnStrategy,2023.2.3,MacIntel,59.88023952,3,1,11,0.109565972,-0.275034722,1,0,0,0.9149,Gabbro_01,4,01,2,5,0.915,-0.168945313,-0.391853299,1,0,0,0.9767,Pegmatite_rect,6,0.977,0,10,0,10,0,1,,,,,,,,,,,,
66566a8fe3e2a46451a178b2,SCN,2024-06-10_14h03.34.195,LearnStrategy,2023.2.3,MacIntel,59.88023952,3,1,12,-0.355282118,-0.142326389,1,0,0,1.0497,Pegmatite_03,6,03,3,2,1.05,-0.448641493,-0.391436632,1,0,0,1.045,Obsidian_rect,5,1.045,0,11,0,11,0,1,,,,,,,,,,,,
66566a8fe3e2a46451a178b2,SCN,2024-06-10_14h03.34.195,LearnStrategy,2023.2.3,MacIntel,59.88023952,3,1,13,0.125177951,-0.138072917,1,0,0,2.0368,Gabbro_11,4,11,3,5,2.037,0.121328125,-0.2546875,1,0,0,2.4105,Diorite_rect,3,2.41,0,12,0,12,0,1,,,,,,,,,,,,
66566a8fe3e2a46451a178b2,SCN,2024-06-10_14h03.34.195,LearnStrategy,2023.2.3,MacIntel,59.88023952,3,1,14,-0.087443576,-0.103463542,1,0,0,1.1163,Pumice_10,8,10,3,4,1.116,-0.326835938,-0.254144965,1,0,0,3.2594,Andesite_rect,1,3.259,0,13,0,13,0,1,,,,,,,,,,,,
66566a8fe3e2a46451a178b2,SCN,2024-06-10_14h03.34.195,LearnStrategy,2023.2.3,MacIntel,59.88023952,3,1,15,-0.055607639,-0.233025174,1,0,0,1.9968,Obsidian_07,5,07,2,4,1.997,-0.310134549,-0.259474826,1,0,0,1.0127,Andesite_rect,1,1.013,0,14,0,14,0,1,,,,,,,,,,,,
66566a8fe3e2a46451a178b2,SCN,2024-06-10_14h03.34.195,LearnStrategy,2023.2.3,MacIntel,59.88023952,3,1,16,-0.527330729,-0.258541667,1,0,0,1.2652,Diorite_07,3,07,2,1,1.265,-0.135538194,-0.265490451,1,0,0,0.7399,Basalt_rect,2,0.74,0,15,0,15,0,1,,,,,,,,,,,,
66566a8fe3e2a46451a178b2,SCN,2024-06-10_14h03.34.195,LearnStrategy,2023.2.3,MacIntel,59.88023952,3,2,1,,,,,,,,2,11,,,,,,,,,,,1,86.278,0,,,,,,-0.406961806,-0.254032118,1,0,0,86.2775,Andesite_rect,0,0,0,0,1
66566a8fe3e2a46451a178b2,SCN,2024-06-10_14h03.34.195,LearnStrategy,2023.2.3,MacIntel,59.88023952,3,2,2,,,,,,,,5,06,,,,,,,,,,,5,18.28,1,,,,,,-0.412999132,-0.394609375,1,0,0,18.2801,Obsidian_rect,1,0,1,0,1
66566a8fe3e2a46451a178b2,SCN,2024-06-10_14h03.34.195,LearnStrategy,2023.2.3,MacIntel,59.88023952,3,2,3,,,,,,,,3,16,,,,,,,,,,,6,66.337,0,,,,,,-0.129136285,-0.406080729,1,0,0,66.3368,Pegmatite_rect,2,0,2,0,1
66566a8fe3e2a46451a178b2,SCN,2024-06-10_14h03.34.195,LearnStrategy,2023.2.3,MacIntel,59.88023952,3,2,4,,,,,,,,7,15,,,,,,,,,,,3,1.384,0,,,,,,0.172682292,-0.255034722,1,0,0,1.3838,Diorite_rect,3,0,3,0,1
66566a8fe3e2a46451a178b2,SCN,2024-06-10_14h03.34.195,LearnStrategy,2023.2.3,MacIntel,59.88023952,3,2,5,,,,,,,,8,02,,,,,,,,,,,2,1.742,0,,,,,,-0.112235243,-0.260815972,1,0,0,1.742,Basalt_rect,4,0,4,0,1
66566a8fe3e2a46451a178b2,SCN,2024-06-10_14h03.34.195,LearnStrategy,2023.2.3,MacIntel,59.88023952,3,2,6,,,,,,,,1,09,,,,,,,,,,,5,2.875,0,,,,,,-0.383654514,-0.407760417,1,0,0,2.8745,Obsidian_rect,5,0,5,0,1
66566a8fe3e2a46451a178b2,SCN,2024-06-10_14h03.34.195,LearnStrategy,2023.2.3,MacIntel,59.88023952,3,2,7,,,,,,,,3,11,,,,,,,,,,,4,1.185,0,,,,,,0.310225694,-0.260538194,1,0,0,1.1849,Gabbro_rect,6,0,6,0,1
66566a8fe3e2a46451a178b2,SCN,2024-06-10_14h03.34.195,LearnStrategy,2023.2.3,MacIntel,59.88023952,3,2,8,,,,,,,,2,05,,,,,,,,,,,5,1.524,0,,,,,,-0.408003472,-0.419544271,1,0,0,1.5243,Obsidian_rect,7,0,7,0,1
66566a8fe3e2a46451a178b2,SCN,2024-06-10_14h03.34.195,LearnStrategy,2023.2.3,MacIntel,59.88023952,3,2,9,,,,,,,,4,15,,,,,,,,,,,3,1.143,0,,,,,,0.19046441,-0.263038194,1,0,0,1.1425,Diorite_rect,8,0,8,0,1
66566a8fe3e2a46451a178b2,SCN,2024-06-10_14h03.34.195,LearnStrategy,2023.2.3,MacIntel,59.88023952,3,2,10,,,,,,,,7,16,,,,,,,,,,,8,0.673,0,,,,,,0.357595486,-0.416384549,1,0,0,0.6728,Pumice_rect,9,0,9,0,1
66566a8fe3e2a46451a178b2,SCN,2024-06-10_14h03.34.195,LearnStrategy,2023.2.3,MacIntel,59.88023952,3,2,11,,,,,,,,6,12,,,,,,,,,,,1,2.524,0,,,,,,-0.365820313,-0.250828993,1,0,0,2.5238,Andesite_rect,10,0,10,0,1
66566a8fe3e2a46451a178b2,SCN,2024-06-10_14h03.34.195,LearnStrategy,2023.2.3,MacIntel,59.88023952,3,2,12,,,,,,,,5,10,,,,,,,,,,,5,1.274,1,,,,,,-0.353272569,-0.415256076,1,0,0,1.2745,Obsidian_rect,11,0,11,0,1
66566a8fe3e2a46451a178b2,SCN,2024-06-10_14h03.34.195,LearnStrategy,2023.2.3,MacIntel,59.88023952,3,2,13,,,,,,,,6,11,,,,,,,,,,,5,1.291,0,,,,,,-0.364014757,-0.394470486,1,0,0,1.2905,Obsidian_rect,12,0,12,0,1
66566a8fe3e2a46451a178b2,SCN,2024-06-10_14h03.34.195,LearnStrategy,2023.2.3,MacIntel,59.88023952,3,2,14,,,,,,,,1,01,,,,,,,,,,,2,1.257,0,,,,,,-0.14358941,-0.254592014,1,0,0,1.2565,Basalt_rect,13,0,13,0,1
66566a8fe3e2a46451a178b2,SCN,2024-06-10_14h03.34.195,LearnStrategy,2023.2.3,MacIntel,59.88023952,3,2,15,,,,,,,,4,08,,,,,,,,,,,3,1.44,0,,,,,,0.140993924,-0.253650174,1,0,0,1.4404,Diorite_rect,14,0,14,0,1
66566a8fe3e2a46451a178b2,SCN,2024-06-10_14h03.34.195,LearnStrategy,2023.2.3,MacIntel,59.88023952,3,2,16,,,,,,,,8,16,,,,,,,,,,,6,1.574,0,,,,,,-0.119006076,-0.42172309,1,0,0,1.574,Pegmatite_rect,15,0,15,0,1
66566a8fe3e2a46451a178b2,SCN,2024-06-10_14h03.34.195,LearnStrategy,2023.2.3,MacIntel,59.88023952,4,1,1,-0.080742188,-0.075065104,1,0,0,1.8002,Pumice_10,8,10,3,4,1.8,-0.136510417,-0.242282986,1,0,0,1.1566,Basalt_rect,2,1.157,0,0,0,0,0,1,,,,,,,,,,,,
66566a8fe3e2a46451a178b2,SCN,2024-06-10_14h03.34.195,LearnStrategy,2023.2.3,MacIntel,59.88023952,4,1,2,0.066193576,-0.110173611,1,0,0,0.6802,Gabbro_11,4,11,3,5,0.68,0.089049479,-0.232560764,1,0,0,0.7084,Diorite_rect,3,0.708,0,1,0,1,0,1,,,,,,,,,,,,
66566a8fe3e2a46451a178b2,SCN,2024-06-10_14h03.34.195,LearnStrategy,2023.2.3,MacIntel,59.88023952,4,1,3,0.062803819,-0.073411458,1,0,0,0.7862,Gabbro_11,4,11,3,5,0.786,0.122065972,-0.243446181,1,0,0,1.6765,Diorite_rect,3,1.677,0,2,0,2,0,1,,,,,,,,,,,,
66566a8fe3e2a46451a178b2,SCN,2024-06-10_14h03.34.195,LearnStrategy,2023.2.3,MacIntel,59.88023952,4,1,4,-0.548072917,-0.099045139,1,0,0,50.5173,Obsidian_02,5,02,3,1,50.517,-0.461119792,-0.403997396,1,0,0,1.1797,Obsidian_rect,5,1.18,1,3,0,3,0,1,,,,,,,,,,,,
66566a8fe3e2a46451a178b2,SCN,2024-06-10_14h03.34.195,LearnStrategy,2023.2.3,MacIntel,59.88023952,4,1,5,0.078098958,0.094713542,1,0,0,0.9989,Pumice_08,8,08,4,5,0.999,-0.120351562,-0.232669271,1,0,0,0.6938,Basalt_rect,2,0.694,0,4,0,4,0,1,,,,,,,,,,,,
66566a8fe3e2a46451a178b2,SCN,2024-06-10_14h03.34.195,LearnStrategy,2023.2.3,MacIntel,59.88023952,4,1,6,0.057382812,0.055334201,1,0,0,0.513,Pumice_08,8,08,4,5,0.513,0.314557292,-0.3809375,1,0,0,1.977,Pumice_rect,8,1.977,1,5,0,5,0,1,,,,,,,,,,,,
66566a8fe3e2a46451a178b2,SCN,2024-06-10_14h03.34.195,LearnStrategy,2023.2.3,MacIntel,59.88023952,4,1,7,0.571901042,0.408841146,1,0,0,1.5482,Pumice_09,8,09,6,8,1.548,0.361818576,-0.405598958,1,0,0,1.7765,Pumice_rect,8,1.777,1,6,0,6,0,1,,,,,,,,,,,,
66566a8fe3e2a46451a178b2,SCN,2024-06-10_14h03.34.195,LearnStrategy,2023.2.3,MacIntel,59.88023952,4,1,8,-0.410034722,0.089136285,1,0,0,1.9826,Andesite_10,1,10,4,2,1.983,0.310195312,-0.408203125,1,0,0,0.9279,Pumice_rect,8,0.928,0,7,0,7,0,1,,,,,,,,,,,,
66566a8fe3e2a46451a178b2,SCN,2024-06-10_14h03.34.195,LearnStrategy,2023.2.3,MacIntel,59.88023952,4,1,9,-0.346002604,0.084904514,1,0,0,0.9659,Andesite_10,1,10,4,2,0.966,-0.371753472,-0.229626736,1,0,0,0.6572,Andesite_rect,1,0.657,1,8,0,8,0,1,,,,,,,,,,,,
66566a8fe3e2a46451a178b2,SCN,2024-06-10_14h03.34.195,LearnStrategy,2023.2.3,MacIntel,59.88023952,4,1,10,-0.062491319,-0.096970486,1,0,0,0.6842,Pumice_10,8,10,3,4,0.684,-0.124457465,-0.259570313,1,0,0,1.2415,Basalt_rect,2,1.242,0,9,0,9,0,1,,,,,,,,,,,,
66566a8fe3e2a46451a178b2,SCN,2024-06-10_14h03.34.195,LearnStrategy,2023.2.3,MacIntel,59.88023952,4,1,11,-0.372647569,-0.382404514,1,0,0,3.9486,Basalt_06,2,06,1,2,3.949,-0.124344618,-0.389618056,1,0,0,1.2307,Pegmatite_rect,6,1.231,0,10,0,10,0,1,,,,,,,,,,,,
66566a8fe3e2a46451a178b2,SCN,2024-06-10_14h03.34.195,LearnStrategy,2023.2.3,MacIntel,59.88023952,4,1,12,0.118328993,-0.298697917,1,0,0,0.8334,Gabbro_01,4,01,2,5,0.833,0.097248264,-0.245108507,1,0,0,0.4932,Diorite_rect,3,0.493,0,11,0,11,0,1,,,,,,,,,,,,
66566a8fe3e2a46451a178b2,SCN,2024-06-10_14h03.34.195,LearnStrategy,2023.2.3,MacIntel,59.88023952,4,1,13,0.374474826,-0.293515625,1,0,0,0.9134,Diorite_08,3,08,2,7,0.913,0.346154514,-0.271644965,1,0,0,1.0773,Gabbro_rect,4,1.077,0,12,0,12,0,1,,,,,,,,,,,,
66566a8fe3e2a46451a178b2,SCN,2024-06-10_14h03.34.195,LearnStrategy,2023.2.3,MacIntel,59.88023952,4,1,14,0.097065972,-0.412981771,1,0,0,1.1629,Basalt_10,2,10,1,5,1.163,0.097452257,-0.413368056,1,0,0,0.4762,Peridotite_rect,7,0.476,0,13,0,13,0,1,,,,,,,,,,,,
66566a8fe3e2a46451a178b2,SCN,2024-06-10_14h03.34.195,LearnStrategy,2023.2.3,MacIntel,59.88023952,4,1,15,-0.068506944,-0.133888889,1,0,0,0.7156,Pumice_10,8,10,3,4,0.716,-0.082934028,-0.232456597,1,0,0,0.6236,Basalt_rect,2,0.624,0,14,0,14,0,1,,,,,,,,,,,,
66566a8fe3e2a46451a178b2,SCN,2024-06-10_14h03.34.195,LearnStrategy,2023.2.3,MacIntel,59.88023952,4,1,16,-0.526193576,-0.086375868,1,0,0,1.6002,Obsidian_02,5,02,3,1,1.6,-0.118385417,-0.270876736,1,0,0,0.7598,Basalt_rect,2,0.76,0,15,0,15,0,1,,,,,,,,,,,,
66566a8fe3e2a46451a178b2,SCN,2024-06-10_14h03.34.195,LearnStrategy,2023.2.3,MacIntel,59.88023952,4,2,1,,,,,,,,2,04,,,,,,,,,,,8,1.776,0,,,,,,0.337734375,-0.413151042,1,0,0,1.7756,Pumice_rect,0,0,0,0,1
66566a8fe3e2a46451a178b2,SCN,2024-06-10_14h03.34.195,LearnStrategy,2023.2.3,MacIntel,59.88023952,4,2,2,,,,,,,,7,07,,,,,,,,,,,1,2.458,0,,,,,,-0.386328125,-0.268849826,1,0,0,2.4579,Andesite_rect,1,0,1,0,1
66566a8fe3e2a46451a178b2,SCN,2024-06-10_14h03.34.195,LearnStrategy,2023.2.3,MacIntel,59.88023952,4,2,3,,,,,,,,8,05,,,,,,,,,,,2,2.73,0,,,,,,-0.107960069,-0.234934896,1,0,0,2.7302,Basalt_rect,2,0,2,0,1
66566a8fe3e2a46451a178b2,SCN,2024-06-10_14h03.34.195,LearnStrategy,2023.2.3,MacIntel,59.88023952,4,2,4,,,,,,,,6,12,,,,,,,,,,,4,3.666,0,,,,,,0.431579861,-0.25203125,1,0,0,3.6659,Gabbro_rect,3,0,3,0,1
66566a8fe3e2a46451a178b2,SCN,2024-06-10_14h03.34.195,LearnStrategy,2023.2.3,MacIntel,59.88023952,4,2,5,,,,,,,,7,13,,,,,,,,,,,4,1.301,0,,,,,,0.361766493,-0.252243924,1,0,0,1.3009,Gabbro_rect,4,0,4,0,1
66566a8fe3e2a46451a178b2,SCN,2024-06-10_14h03.34.195,LearnStrategy,2023.2.3,MacIntel,59.88023952,4,2,6,,,,,,,,3,10,,,,,,,,,,,6,1.359,0,,,,,,-0.096909722,-0.400238715,1,0,0,1.3587,Pegmatite_rect,5,0,5,0,1
66566a8fe3e2a46451a178b2,SCN,2024-06-10_14h03.34.195,LearnStrategy,2023.2.3,MacIntel,59.88023952,4,2,7,,,,,,,,6,11,,,,,,,,,,,5,1.225,0,,,,,,-0.410208333,-0.418146701,1,0,0,1.2249,Obsidian_rect,6,0,6,0,1
66566a8fe3e2a46451a178b2,SCN,2024-06-10_14h03.34.195,LearnStrategy,2023.2.3,MacIntel,59.88023952,4,2,8,,,,,,,,1,01,,,,,,,,,,,2,2.593,0,,,,,,-0.082413194,-0.236662326,1,0,0,2.5928,Basalt_rect,7,0,7,0,1
66566a8fe3e2a46451a178b2,SCN,2024-06-10_14h03.34.195,LearnStrategy,2023.2.3,MacIntel,59.88023952,4,2,9,,,,,,,,2,12,,,,,,,,,,,1,2.442,0,,,,,,-0.353502604,-0.255186632,1,0,0,2.4424,Andesite_rect,8,0,8,0,1
66566a8fe3e2a46451a178b2,SCN,2024-06-10_14h03.34.195,LearnStrategy,2023.2.3,MacIntel,59.88023952,4,2,10,,,,,,,,1,02,,,,,,,,,,,5,0.9,0,,,,,,-0.371749132,-0.412269965,1,0,0,0.8996,Obsidian_rect,9,0,9,0,1
66566a8fe3e2a46451a178b2,SCN,2024-06-10_14h03.34.195,LearnStrategy,2023.2.3,MacIntel,59.88023952,4,2,11,,,,,,,,5,06,,,,,,,,,,,5,1.076,1,,,,,,-0.414140625,-0.410763889,1,0,0,1.0761,Obsidian_rect,10,0,10,0,1
66566a8fe3e2a46451a178b2,SCN,2024-06-10_14h03.34.195,LearnStrategy,2023.2.3,MacIntel,59.88023952,4,2,12,,,,,,,,4,16,,,,,,,,,,,2,3.325,0,,,,,,-0.119296875,-0.267122396,1,0,0,3.3247,Basalt_rect,11,0,11,0,1
66566a8fe3e2a46451a178b2,SCN,2024-06-10_14h03.34.195,LearnStrategy,2023.2.3,MacIntel,59.88023952,4,2,13,,,,,,,,8,15,,,,,,,,,,,1,3.118,0,,,,,,-0.320568576,-0.254856771,1,0,0,3.1184,Andesite_rect,12,0,12,0,1
66566a8fe3e2a46451a178b2,SCN,2024-06-10_14h03.34.195,LearnStrategy,2023.2.3,MacIntel,59.88023952,4,2,14,,,,,,,,3,06,,,,,,,,,,,4,2.768,0,,,,,,0.395234375,-0.264231771,1,0,0,2.7677,Gabbro_rect,13,0,13,0,1
66566a8fe3e2a46451a178b2,SCN,2024-06-10_14h03.34.195,LearnStrategy,2023.2.3,MacIntel,59.88023952,4,2,15,,,,,,,,5,04,,,,,,,,,,,5,1.568,1,,,,,,-0.422048611,-0.398055556,1,0,0,1.5683,Obsidian_rect,14,0,14,0,1
66566a8fe3e2a46451a178b2,SCN,2024-06-10_14h03.34.195,LearnStrategy,2023.2.3,MacIntel,59.88023952,4,2,16,,,,,,,,4,08,,,,,,,,,,,2,2.026,0,,,,,,-0.058368056,-0.245295139,1,0,0,2.0264,Basalt_rect,15,0,15,0,1
66566a8fe3e2a46451a178b2,SCN,2024-06-10_14h03.34.195,LearnStrategy,2023.2.3,MacIntel,59.88023952,5,1,1,0.234231771,-0.235946181,1,0,0,64.5016,Andesite_14,1,14,2,6,64.502,0.223159722,-0.235946181,1,0,0,0.4816,Diorite_rect,3,0.482,0,0,0,0,0,1,,,,,,,,,,,,
66566a8fe3e2a46451a178b2,SCN,2024-06-10_14h03.34.195,LearnStrategy,2023.2.3,MacIntel,59.88023952,5,1,2,0.055277778,-0.078164063,1,0,0,0.7986,Gabbro_11,4,11,3,5,0.799,-0.082565104,-0.256228299,1,0,0,3.4443,Basalt_rect,2,3.444,0,1,0,1,0,1,,,,,,,,,,,,
66566a8fe3e2a46451a178b2,SCN,2024-06-10_14h03.34.195,LearnStrategy,2023.2.3,MacIntel,59.88023952,5,1,3,0.086306424,-0.150768229,1,0,0,0.7313,Gabbro_11,4,11,3,5,0.731,0.339049479,-0.241037326,1,0,0,1.843,Gabbro_rect,4,1.843,1,2,0,2,0,1,,,,,,,,,,,,
66566a8fe3e2a46451a178b2,SCN,2024-06-10_14h03.34.195,LearnStrategy,2023.2.3,MacIntel,59.88023952,5,1,4,0.41421441,0.104431424,1,0,0,1.449,Obsidian_05,5,05,4,7,1.449,-0.435065104,-0.382934028,1,0,0,1.0445,Obsidian_rect,5,1.045,1,3,0,3,0,1,,,,,,,,,,,,
66566a8fe3e2a46451a178b2,SCN,2024-06-10_14h03.34.195,LearnStrategy,2023.2.3,MacIntel,59.88023952,5,1,5,0.077491319,0.110798611,1,0,0,1.4954,Pumice_08,8,08,4,5,1.495,-0.137612847,-0.231653646,1,0,0,0.9623,Basalt_rect,2,0.962,0,4,0,4,0,1,,,,,,,,,,,,
66566a8fe3e2a46451a178b2,SCN,2024-06-10_14h03.34.195,LearnStrategy,2023.2.3,MacIntel,59.88023952,5,1,6,-0.573572049,0.090664063,1,0,0,3.1325,Diorite_15,3,15,4,1,3.132,-0.098020833,-0.264635417,1,0,0,0.9984,Basalt_rect,2,0.998,0,5,0,5,0,1,,,,,,,,,,,,
66566a8fe3e2a46451a178b2,SCN,2024-06-10_14h03.34.195,LearnStrategy,2023.2.3,MacIntel,59.88023952,5,1,7,-0.036822917,-0.124943576,1,0,0,1.1832,Pumice_10,8,10,3,4,1.183,-0.09344184,-0.23405816,1,0,0,0.8259,Basalt_rect,2,0.826,0,6,0,6,0,1,,,,,,,,,,,,
66566a8fe3e2a46451a178b2,SCN,2024-06-10_14h03.34.195,LearnStrategy,2023.2.3,MacIntel,59.88023952,5,1,8,0.50062934,0.081445313,1,0,0,1.1818,Pegmatite_08,6,08,4,8,1.182,0.352296007,-0.250451389,1,0,0,0.9723,Gabbro_rect,4,0.972,0,7,0,7,0,1,,,,,,,,,,,,
66566a8fe3e2a46451a178b2,SCN,2024-06-10_14h03.34.195,LearnStrategy,2023.2.3,MacIntel,59.88023952,5,1,9,0.090429687,-0.106397569,1,0,0,0.7652,Gabbro_11,4,11,3,5,0.765,0.081319444,-0.27156684,1,0,0,0.4892,Diorite_rect,3,0.489,0,8,0,8,0,1,,,,,,,,,,,,
66566a8fe3e2a46451a178b2,SCN,2024-06-10_14h03.34.195,LearnStrategy,2023.2.3,MacIntel,59.88023952,5,1,10,-0.062018229,-0.060303819,1,0,0,0.5808,Pumice_10,8,10,3,4,0.581,-0.10703559,-0.269830729,1,0,0,1.3768,Basalt_rect,2,1.377,0,9,0,9,0,1,,,,,,,,,,,,
66566a8fe3e2a46451a178b2,SCN,2024-06-10_14h03.34.195,LearnStrategy,2023.2.3,MacIntel,59.88023952,5,1,11,0.074240451,-0.093845486,1,0,0,1.0303,Gabbro_11,4,11,3,5,1.03,0.297526042,-0.390164931,1,0,0,2.0767,Pumice_rect,8,2.077,0,10,0,10,0,1,,,,,,,,,,,,
66566a8fe3e2a46451a178b2,SCN,2024-06-10_14h03.34.195,LearnStrategy,2023.2.3,MacIntel,59.88023952,5,1,12,-0.064956597,-0.091540799,1,0,0,0.7328,Pumice_10,8,10,3,4,0.733,-0.098003472,-0.243068576,1,0,0,2.3245,Basalt_rect,2,2.325,0,11,0,11,0,1,,,,,,,,,,,,
66566a8fe3e2a46451a178b2,SCN,2024-06-10_14h03.34.195,LearnStrategy,2023.2.3,MacIntel,59.88023952,5,1,13,-0.199952257,0.063003472,1,0,0,0.9486,Pumice_13,8,13,4,3,0.949,0.33125,-0.244874132,1,0,0,0.9602,Gabbro_rect,4,0.96,0,12,0,12,0,1,,,,,,,,,,,,
66566a8fe3e2a46451a178b2,SCN,2024-06-10_14h03.34.195,LearnStrategy,2023.2.3,MacIntel,59.88023952,5,1,14,-0.421119792,-0.275221354,1,0,0,0.8462,Gabbro_14,4,14,2,2,0.846,-0.337330729,-0.379257813,1,0,0,0.6773,Obsidian_rect,5,0.677,0,13,0,13,0,1,,,,,,,,,,,,
66566a8fe3e2a46451a178b2,SCN,2024-06-10_14h03.34.195,LearnStrategy,2023.2.3,MacIntel,59.88023952,5,1,15,-0.344592014,-0.078463542,1,0,0,0.8333,Pegmatite_03,6,03,3,2,0.833,-0.126236979,-0.2615625,1,0,0,0.9934,Basalt_rect,2,0.993,0,14,0,14,0,1,,,,,,,,,,,,
66566a8fe3e2a46451a178b2,SCN,2024-06-10_14h03.34.195,LearnStrategy,2023.2.3,MacIntel,59.88023952,5,1,16,-0.561289062,-0.259709201,1,0,0,1.1159,Diorite_07,3,07,2,1,1.116,-0.076015625,-0.249344618,1,0,0,0.7753,Basalt_rect,2,0.775,0,15,0,15,0,1,,,,,,,,,,,,
66566a8fe3e2a46451a178b2,SCN,2024-06-10_14h03.34.195,LearnStrategy,2023.2.3,MacIntel,59.88023952,5,2,1,,,,,,,,4,03,,,,,,,,,,,4,2.223,1,,,,,,0.419635417,-0.243689236,1,0,0,2.223,Gabbro_rect,0,0,0,0,1
66566a8fe3e2a46451a178b2,SCN,2024-06-10_14h03.34.195,LearnStrategy,2023.2.3,MacIntel,59.88023952,5,2,2,,,,,,,,6,06,,,,,,,,,,,8,9.411,0,,,,,,0.363459201,-0.416297743,1,0,0,9.4113,Pumice_rect,1,0,1,0,1
66566a8fe3e2a46451a178b2,SCN,2024-06-10_14h03.34.195,LearnStrategy,2023.2.3,MacIntel,59.88023952,5,2,3,,,,,,,,7,16,,,,,,,,,,,6,2.05,0,,,,,,-0.098519965,-0.410815972,1,0,0,2.0499,Pegmatite_rect,2,0,2,0,1
66566a8fe3e2a46451a178b2,SCN,2024-06-10_14h03.34.195,LearnStrategy,2023.2.3,MacIntel,59.88023952,5,2,4,,,,,,,,7,08,,,,,,,,,,,3,2.225,0,,,,,,0.141354167,-0.253046875,1,0,0,2.225,Diorite_rect,3,0,3,0,1
66566a8fe3e2a46451a178b2,SCN,2024-06-10_14h03.34.195,LearnStrategy,2023.2.3,MacIntel,59.88023952,5,2,5,,,,,,,,5,10,,,,,,,,,,,5,1.176,1,,,,,,-0.412387153,-0.410711806,1,0,0,1.176,Obsidian_rect,4,0,4,0,1
66566a8fe3e2a46451a178b2,SCN,2024-06-10_14h03.34.195,LearnStrategy,2023.2.3,MacIntel,59.88023952,5,2,6,,,,,,,,8,14,,,,,,,,,,,8,3.092,1,,,,,,0.32484809,-0.40437066,1,0,0,3.0924,Pumice_rect,5,0,5,0,1
66566a8fe3e2a46451a178b2,SCN,2024-06-10_14h03.34.195,LearnStrategy,2023.2.3,MacIntel,59.88023952,5,2,7,,,,,,,,4,15,,,,,,,,,,,3,2.137,0,,,,,,0.134782986,-0.234444444,1,0,0,2.1366,Diorite_rect,6,0,6,0,1
66566a8fe3e2a46451a178b2,SCN,2024-06-10_14h03.34.195,LearnStrategy,2023.2.3,MacIntel,59.88023952,5,2,8,,,,,,,,2,16,,,,,,,,,,,2,1.376,1,,,,,,-0.079344618,-0.254279514,1,0,0,1.3759,Basalt_rect,7,0,7,0,1
66566a8fe3e2a46451a178b2,SCN,2024-06-10_14h03.34.195,LearnStrategy,2023.2.3,MacIntel,59.88023952,5,2,9,,,,,,,,5,12,,,,,,,,,,,5,3.009,1,,,,,,-0.394500868,-0.388259549,1,0,0,3.0091,Obsidian_rect,8,0,8,0,1
66566a8fe3e2a46451a178b2,SCN,2024-06-10_14h03.34.195,LearnStrategy,2023.2.3,MacIntel,59.88023952,5,2,10,,,,,,,,8,02,,,,,,,,,,,1,0.9,0,,,,,,-0.347934028,-0.263229167,1,0,0,0.8998,Andesite_rect,9,0,9,0,1
66566a8fe3e2a46451a178b2,SCN,2024-06-10_14h03.34.195,LearnStrategy,2023.2.3,MacIntel,59.88023952,5,2,11,,,,,,,,3,02,,,,,,,,,,,6,1.741,0,,,,,,-0.072708333,-0.414748264,1,0,0,1.7412,Pegmatite_rect,10,0,10,0,1
66566a8fe3e2a46451a178b2,SCN,2024-06-10_14h03.34.195,LearnStrategy,2023.2.3,MacIntel,59.88023952,5,2,12,,,,,,,,3,14,,,,,,,,,,,1,1.258,0,,,,,,-0.319427083,-0.265056424,1,0,0,1.2581,Andesite_rect,11,0,11,0,1
66566a8fe3e2a46451a178b2,SCN,2024-06-10_14h03.34.195,LearnStrategy,2023.2.3,MacIntel,59.88023952,5,2,13,,,,,,,,6,07,,,,,,,,,,,3,0.908,0,,,,,,0.17608941,-0.247144097,1,0,0,0.908,Diorite_rect,12,0,12,0,1
66566a8fe3e2a46451a178b2,SCN,2024-06-10_14h03.34.195,LearnStrategy,2023.2.3,MacIntel,59.88023952,5,2,14,,,,,,,,1,06,,,,,,,,,,,8,1.492,0,,,,,,0.387730035,-0.411462674,1,0,0,1.4925,Pumice_rect,13,0,13,0,1
66566a8fe3e2a46451a178b2,SCN,2024-06-10_14h03.34.195,LearnStrategy,2023.2.3,MacIntel,59.88023952,5,2,15,,,,,,,,1,09,,,,,,,,,,,4,0.843,0,,,,,,0.371866319,-0.23125,1,0,0,0.843,Gabbro_rect,14,0,14,0,1
66566a8fe3e2a46451a178b2,SCN,2024-06-10_14h03.34.195,LearnStrategy,2023.2.3,MacIntel,59.88023952,5,2,16,,,,,,,,2,09,,,,,,,,,,,2,2.609,1,,,,,,-0.146653646,-0.260299479,1,0,0,2.6093,Basalt_rect,15,0,15,0,1
66566a8fe3e2a46451a178b2,SCN,2024-06-10_14h03.34.195,LearnStrategy,2023.2.3,MacIntel,59.88023952,6,1,1,-0.096219618,-0.128029514,1,0,0,51.0401,Pumice_10,8,10,3,4,51.04,0.454544271,-0.378493924,1,0,0,1.311,Pumice_rect,8,1.311,1,0,0,0,0,1,,,,,,,,,,,,
66566a8fe3e2a46451a178b2,SCN,2024-06-10_14h03.34.195,LearnStrategy,2023.2.3,MacIntel,59.88023952,6,1,2,0.045416667,0.066076389,1,0,0,0.8885,Pumice_08,8,08,4,5,0.888,-0.099644097,-0.233411458,1,0,0,1.061,Basalt_rect,2,1.061,0,1,0,1,0,1,,,,,,,,,,,,
66566a8fe3e2a46451a178b2,SCN,2024-06-10_14h03.34.195,LearnStrategy,2023.2.3,MacIntel,59.88023952,6,1,3,0.261493056,0.078207465,1,0,0,1.0323,Gabbro_10,4,10,4,6,1.032,0.117981771,-0.256024306,1,0,0,1.0417,Diorite_rect,3,1.042,0,2,0,2,0,1,,,,,,,,,,,,
66566a8fe3e2a46451a178b2,SCN,2024-06-10_14h03.34.195,LearnStrategy,2023.2.3,MacIntel,59.88023952,6,1,4,0.380269097,0.094036458,1,0,0,1.0142,Obsidian_05,5,05,4,7,1.014,0.364830729,-0.243559028,1,0,0,1.5096,Gabbro_rect,4,1.51,0,3,0,3,0,1,,,,,,,,,,,,
66566a8fe3e2a46451a178b2,SCN,2024-06-10_14h03.34.195,LearnStrategy,2023.2.3,MacIntel,59.88023952,6,1,5,0.227213542,0.250225694,1,0,0,1.0636,Obsidian_11,5,11,5,6,1.064,-0.37156684,-0.381883681,1,0,0,0.9444,Obsidian_rect,5,0.944,1,4,0,4,0,1,,,,,,,,,,,,
66566a8fe3e2a46451a178b2,SCN,2024-06-10_14h03.34.195,LearnStrategy,2023.2.3,MacIntel,59.88023952,6,1,6,-0.070894097,-0.081440972,1,0,0,0.8319,Pumice_10,8,10,3,4,0.832,-0.105989583,-0.24109809,1,0,0,1.71,Basalt_rect,2,1.71,0,5,0,5,0,1,,,,,,,,,,,,
66566a8fe3e2a46451a178b2,SCN,2024-06-10_14h03.34.195,LearnStrategy,2023.2.3,MacIntel,59.88023952,6,1,7,-0.069071181,-0.382092014,1,0,0,0.8644,Diorite_09,3,09,1,4,0.864,-0.069071181,-0.384418403,1,0,0,0.6098,Pegmatite_rect,6,0.61,0,6,0,6,0,1,,,,,,,,,,,,
66566a8fe3e2a46451a178b2,SCN,2024-06-10_14h03.34.195,LearnStrategy,2023.2.3,MacIntel,59.88023952,6,1,8,-0.536102431,-0.209088542,1,0,0,1.8312,Diorite_07,3,07,2,1,1.831,-0.361067708,-0.230707465,1,0,0,0.6246,Andesite_rect,1,0.625,0,7,0,7,0,1,,,,,,,,,,,,
66566a8fe3e2a46451a178b2,SCN,2024-06-10_14h03.34.195,LearnStrategy,2023.2.3,MacIntel,59.88023952,6,1,9,0.085243056,-0.093697917,1,0,0,0.7152,Gabbro_11,4,11,3,5,0.715,0.124917535,-0.235685764,1,0,0,1.0459,Diorite_rect,3,1.046,0,8,0,8,0,1,,,,,,,,,,,,
66566a8fe3e2a46451a178b2,SCN,2024-06-10_14h03.34.195,LearnStrategy,2023.2.3,MacIntel,59.88023952,6,1,10,-0.074392361,-0.425798611,1,0,0,1.0143,Diorite_09,3,09,1,4,1.014,-0.071970486,-0.413684896,1,0,0,0.5256,Pegmatite_rect,6,0.526,0,9,0,9,0,1,,,,,,,,,,,,
66566a8fe3e2a46451a178b2,SCN,2024-06-10_14h03.34.195,LearnStrategy,2023.2.3,MacIntel,59.88023952,6,1,11,-0.562113715,0.108515625,1,0,0,5.005,Diorite_15,3,15,4,1,5.005,-0.342664931,-0.245811632,1,0,0,2.3979,Andesite_rect,1,2.398,0,10,0,10,0,1,,,,,,,,,,,,
66566a8fe3e2a46451a178b2,SCN,2024-06-10_14h03.34.195,LearnStrategy,2023.2.3,MacIntel,59.88023952,6,1,12,0.057951389,-0.071362847,1,0,0,0.7878,Gabbro_11,4,11,3,5,0.788,0.063806424,-0.264622396,1,0,0,1.1765,Diorite_rect,3,1.177,0,11,0,11,0,1,,,,,,,,,,,,
66566a8fe3e2a46451a178b2,SCN,2024-06-10_14h03.34.195,LearnStrategy,2023.2.3,MacIntel,59.88023952,6,1,13,-0.063320313,-0.13015625,1,0,0,47.1525,Pumice_10,8,10,3,4,47.153,0.412873264,-0.388854167,1,0,0,0.8622,Pumice_rect,8,0.862,1,12,0,12,0,1,,,,,,,,,,,,
66566a8fe3e2a46451a178b2,SCN,2024-06-10_14h03.34.195,LearnStrategy,2023.2.3,MacIntel,59.88023952,6,1,14,-0.251263021,-0.089262153,1,0,0,1.0019,Diorite_12,3,12,3,3,1.002,-0.124765625,-0.246467014,1,0,0,0.6906,Basalt_rect,2,0.691,0,13,0,13,0,1,,,,,,,,,,,,
66566a8fe3e2a46451a178b2,SCN,2024-06-10_14h03.34.195,LearnStrategy,2023.2.3,MacIntel,59.88023952,6,1,15,0.08468316,0.069405382,1,0,0,0.6134,Pumice_08,8,08,4,5,0.613,0.196197917,-0.262986111,1,0,0,1.8612,Diorite_rect,3,1.861,0,14,0,14,0,1,,,,,,,,,,,,
66566a8fe3e2a46451a178b2,SCN,2024-06-10_14h03.34.195,LearnStrategy,2023.2.3,MacIntel,59.88023952,6,1,16,0.077300347,-0.097608507,1,0,0,0.8833,Gabbro_11,4,11,3,5,0.883,-0.055980903,-0.253511285,1,0,0,4.1733,Basalt_rect,2,4.173,0,15,0,15,0,1,,,,,,,,,,,,
66566a8fe3e2a46451a178b2,SCN,2024-06-10_14h03.34.195,LearnStrategy,2023.2.3,MacIntel,59.88023952,6,2,1,,,,,,,,7,15,,,,,,,,,,,7,2.408,1,,,,,,0.098081597,-0.406228299,1,0,0,2.4081,Peridotite_rect,0,0,0,0,1
66566a8fe3e2a46451a178b2,SCN,2024-06-10_14h03.34.195,LearnStrategy,2023.2.3,MacIntel,59.88023952,6,2,2,,,,,,,,2,11,,,,,,,,,,,2,1.704,1,,,,,,-0.133094618,-0.259965278,1,0,0,1.7037,Basalt_rect,1,0,1,0,1
66566a8fe3e2a46451a178b2,SCN,2024-06-10_14h03.34.195,LearnStrategy,2023.2.3,MacIntel,59.88023952,6,2,3,,,,,,,,6,16,,,,,,,,,,,3,2.674,0,,,,,,0.159565972,-0.249596354,1,0,0,2.6735,Diorite_rect,2,0,2,0,1
66566a8fe3e2a46451a178b2,SCN,2024-06-10_14h03.34.195,LearnStrategy,2023.2.3,MacIntel,59.88023952,6,2,4,,,,,,,,4,09,,,,,,,,,,,4,4.61,1,,,,,,0.490950521,-0.266809896,1,0,0,4.61,Gabbro_rect,3,0,3,0,1
66566a8fe3e2a46451a178b2,SCN,2024-06-10_14h03.34.195,LearnStrategy,2023.2.3,MacIntel,59.88023952,6,2,5,,,,,,,,8,04,,,,,,,,,,,2,1.117,0,,,,,,-0.032408854,-0.247838542,1,0,0,1.1172,Basalt_rect,4,0,4,0,1
66566a8fe3e2a46451a178b2,SCN,2024-06-10_14h03.34.195,LearnStrategy,2023.2.3,MacIntel,59.88023952,6,2,6,,,,,,,,3,16,,,,,,,,,,,7,1.861,0,,,,,,0.066671007,-0.411336806,1,0,0,1.8607,Peridotite_rect,5,0,5,0,1
66566a8fe3e2a46451a178b2,SCN,2024-06-10_14h03.34.195,LearnStrategy,2023.2.3,MacIntel,59.88023952,6,2,7,,,,,,,,8,16,,,,,,,,,,,6,1.46,0,,,,,,-0.111901042,-0.403502604,1,0,0,1.4598,Pegmatite_rect,6,0,6,0,1
66566a8fe3e2a46451a178b2,SCN,2024-06-10_14h03.34.195,LearnStrategy,2023.2.3,MacIntel,59.88023952,6,2,8,,,,,,,,1,07,,,,,,,,,,,1,0.856,1,,,,,,-0.382608507,-0.239175347,1,0,0,0.8563,Andesite_rect,7,0,7,0,1
66566a8fe3e2a46451a178b2,SCN,2024-06-10_14h03.34.195,LearnStrategy,2023.2.3,MacIntel,59.88023952,6,2,9,,,,,,,,6,10,,,,,,,,,,,7,5.094,0,,,,,,0.114053819,-0.398532986,1,0,0,5.094,Peridotite_rect,8,0,8,0,1
66566a8fe3e2a46451a178b2,SCN,2024-06-10_14h03.34.195,LearnStrategy,2023.2.3,MacIntel,59.88023952,6,2,10,,,,,,,,4,13,,,,,,,,,,,6,1.919,0,,,,,,-0.095677083,-0.407743056,1,0,0,1.9189,Pegmatite_rect,9,0,9,0,1
66566a8fe3e2a46451a178b2,SCN,2024-06-10_14h03.34.195,LearnStrategy,2023.2.3,MacIntel,59.88023952,6,2,11,,,,,,,,5,16,,,,,,,,,,,5,0.916,1,,,,,,-0.380985243,-0.384813368,1,0,0,0.9163,Obsidian_rect,10,0,10,0,1
66566a8fe3e2a46451a178b2,SCN,2024-06-10_14h03.34.195,LearnStrategy,2023.2.3,MacIntel,59.88023952,6,2,12,,,,,,,,1,16,,,,,,,,,,,2,1.81,0,,,,,,-0.064752604,-0.236783854,1,0,0,1.8096,Basalt_rect,11,0,11,0,1
66566a8fe3e2a46451a178b2,SCN,2024-06-10_14h03.34.195,LearnStrategy,2023.2.3,MacIntel,59.88023952,6,2,13,,,,,,,,3,11,,,,,,,,,,,3,1.74,1,,,,,,0.180052083,-0.254171007,1,0,0,1.7405,Diorite_rect,12,0,12,0,1
66566a8fe3e2a46451a178b2,SCN,2024-06-10_14h03.34.195,LearnStrategy,2023.2.3,MacIntel,59.88023952,6,2,14,,,,,,,,2,05,,,,,,,,,,,4,1.32,0,,,,,,0.347222222,-0.237486979,1,0,0,1.3196,Gabbro_rect,13,0,13,0,1
66566a8fe3e2a46451a178b2,SCN,2024-06-10_14h03.34.195,LearnStrategy,2023.2.3,MacIntel,59.88023952,6,2,15,,,,,,,,7,02,,,,,,,,,,,7,2.875,1,,,,,,0.11828125,-0.404639757,1,0,0,2.8751,Peridotite_rect,14,0,14,0,1
66566a8fe3e2a46451a178b2,SCN,2024-06-10_14h03.34.195,LearnStrategy,2023.2.3,MacIntel,59.88023952,6,2,16,,,,,,,,5,14,,,,,,,,,,,5,0.867,1,,,,,,-0.445325521,-0.405269097,1,0,0,0.8671,Obsidian_rect,15,0,15,0,1
66566a8fe3e2a46451a178b2,SCN,2024-06-10_14h03.34.195,LearnStrategy,2023.2.3,MacIntel,59.88023952,7,1,1,-0.091666667,-0.256601562,1,0,0,92.3165,Obsidian_07,5,07,2,4,92.317,-0.388033854,-0.261584201,1,0,0,1.0987,Andesite_rect,1,1.099,0,0,0,0,0,1,,,,,,,,,,,,
66566a8fe3e2a46451a178b2,SCN,2024-06-10_14h03.34.195,LearnStrategy,2023.2.3,MacIntel,59.88023952,7,1,2,-0.088255208,0.098415799,1,0,0,37.0854,Basalt_01,2,01,4,4,37.085,-0.12171875,-0.23422309,1,0,0,0.8794,Basalt_rect,2,0.879,1,1,0,1,0,1,,,,,,,,,,,,
66566a8fe3e2a46451a178b2,SCN,2024-06-10_14h03.34.195,LearnStrategy,2023.2.3,MacIntel,59.88023952,7,1,3,0.063485243,-0.075104167,1,0,0,0.6472,Gabbro_11,4,11,3,5,0.647,0.384427083,-0.252647569,1,0,0,3.3426,Gabbro_rect,4,3.343,1,2,0,2,0,1,,,,,,,,,,,,
66566a8fe3e2a46451a178b2,SCN,2024-06-10_14h03.34.195,LearnStrategy,2023.2.3,MacIntel,59.88023952,7,1,4,-0.066861979,-0.376888021,1,0,0,2.3301,Diorite_09,3,09,1,4,2.33,-0.109635417,-0.383146701,1,0,0,0.6985,Pegmatite_rect,6,0.698,0,3,0,3,0,1,,,,,,,,,,,,
66566a8fe3e2a46451a178b2,SCN,2024-06-10_14h03.34.195,LearnStrategy,2023.2.3,MacIntel,59.88023952,7,1,5,0.548502604,0.40655816,1,0,0,2.3989,Pumice_09,8,09,6,8,2.399,-0.397647569,-0.261697049,1,0,0,1.2594,Andesite_rect,1,1.259,0,4,0,4,0,1,,,,,,,,,,,,
66566a8fe3e2a46451a178b2,SCN,2024-06-10_14h03.34.195,LearnStrategy,2023.2.3,MacIntel,59.88023952,7,1,6,0.102999132,-0.097135417,1,0,0,0.6665,Gabbro_11,4,11,3,5,0.667,0.11718316,-0.252018229,1,0,0,1.0771,Diorite_rect,3,1.077,0,5,0,5,0,1,,,,,,,,,,,,
66566a8fe3e2a46451a178b2,SCN,2024-06-10_14h03.34.195,LearnStrategy,2023.2.3,MacIntel,59.88023952,7,1,7,0.534474826,-0.112838542,1,0,0,0.833,Basalt_08,2,08,3,8,0.833,0.39734809,-0.252326389,1,0,0,0.5588,Gabbro_rect,4,0.559,0,6,0,6,0,1,,,,,,,,,,,,
66566a8fe3e2a46451a178b2,SCN,2024-06-10_14h03.34.195,LearnStrategy,2023.2.3,MacIntel,59.88023952,7,1,8,-0.521892361,-0.114674479,1,0,0,1.5957,Obsidian_02,5,02,3,1,1.596,-0.105368924,-0.230911458,1,0,0,0.7446,Basalt_rect,2,0.745,0,7,0,7,0,1,,,,,,,,,,,,
66566a8fe3e2a46451a178b2,SCN,2024-06-10_14h03.34.195,LearnStrategy,2023.2.3,MacIntel,59.88023952,7,1,9,-0.522547743,0.376501736,1,0,0,2.0858,Andesite_05,1,05,6,1,2.086,-0.093315972,-0.245217014,1,0,0,0.9554,Basalt_rect,2,0.955,0,8,0,8,0,1,,,,,,,,,,,,
66566a8fe3e2a46451a178b2,SCN,2024-06-10_14h03.34.195,LearnStrategy,2023.2.3,MacIntel,59.88023952,7,1,10,0.39483941,0.23484375,1,0,0,3.3947,Peridotite_06,7,06,5,7,3.395,0.446297743,-0.233450521,1,0,0,0.8828,Gabbro_rect,4,0.883,0,9,0,9,0,1,,,,,,,,,,,,
66566a8fe3e2a46451a178b2,SCN,2024-06-10_14h03.34.195,LearnStrategy,2023.2.3,MacIntel,59.88023952,7,1,11,-0.376588542,0.264335938,1,0,0,10.7811,Obsidian_09,5,09,5,2,10.781,-0.297469618,-0.402803819,1,0,0,1.8343,Obsidian_rect,5,1.834,1,10,0,10,0,1,,,,,,,,,,,,
66566a8fe3e2a46451a178b2,SCN,2024-06-10_14h03.34.195,LearnStrategy,2023.2.3,MacIntel,59.88023952,7,1,12,-0.556679687,0.44469184,1,0,0,1.1823,Andesite_05,1,05,6,1,1.182,-0.352682292,-0.244865451,1,0,0,2.1072,Andesite_rect,1,2.107,1,11,0,11,0,1,,,,,,,,,,,,
66566a8fe3e2a46451a178b2,SCN,2024-06-10_14h03.34.195,LearnStrategy,2023.2.3,MacIntel,59.88023952,7,1,13,-0.526657986,-0.272309028,1,0,0,1.4141,Diorite_07,3,07,2,1,1.414,-0.317178819,-0.268394097,1,0,0,0.6602,Andesite_rect,1,0.66,0,12,0,12,0,1,,,,,,,,,,,,
66566a8fe3e2a46451a178b2,SCN,2024-06-10_14h03.34.195,LearnStrategy,2023.2.3,MacIntel,59.88023952,7,1,14,-0.285954861,0.44828559,1,0,0,4.0651,Diorite_13,3,13,6,3,4.065,-0.098268229,-0.250594618,1,0,0,2.2843,Basalt_rect,2,2.284,0,13,0,13,0,1,,,,,,,,,,,,
66566a8fe3e2a46451a178b2,SCN,2024-06-10_14h03.34.195,LearnStrategy,2023.2.3,MacIntel,59.88023952,7,1,15,-0.086345486,-0.133146701,1,0,0,61.5007,Pumice_10,8,10,3,4,61.501,-0.112261285,-0.263923611,1,0,0,0.8159,Basalt_rect,2,0.816,0,14,0,14,0,1,,,,,,,,,,,,
66566a8fe3e2a46451a178b2,SCN,2024-06-10_14h03.34.195,LearnStrategy,2023.2.3,MacIntel,59.88023952,7,1,16,0.532473958,0.40030816,1,0,0,1.0834,Pumice_09,8,09,6,8,1.083,0.339578993,-0.235394965,1,0,0,1.1736,Gabbro_rect,4,1.174,0,15,0,15,0,1,,,,,,,,,,,,
66566a8fe3e2a46451a178b2,SCN,2024-06-10_14h03.34.195,LearnStrategy,2023.2.3,MacIntel,59.88023952,7,2,1,,,,,,,,8,15,,,,,,,,,,,3,4.158,0,,,,,,0.160928819,-0.255724826,1,0,0,4.1584,Diorite_rect,0,0,0,0,1
66566a8fe3e2a46451a178b2,SCN,2024-06-10_14h03.34.195,LearnStrategy,2023.2.3,MacIntel,59.88023952,7,2,2,,,,,,,,8,16,,,,,,,,,,,4,5.084,0,,,,,,0.451432292,-0.261675347,1,0,0,5.0835,Gabbro_rect,1,0,1,0,1
66566a8fe3e2a46451a178b2,SCN,2024-06-10_14h03.34.195,LearnStrategy,2023.2.3,MacIntel,59.88023952,7,2,3,,,,,,,,1,02,,,,,,,,,,,6,1.269,0,,,,,,-0.143185764,-0.400169271,1,0,0,1.2687,Pegmatite_rect,2,0,2,0,1
66566a8fe3e2a46451a178b2,SCN,2024-06-10_14h03.34.195,LearnStrategy,2023.2.3,MacIntel,59.88023952,7,2,4,,,,,,,,3,16,,,,,,,,,,,2,1.107,0,,,,,,-0.031953125,-0.258003472,1,0,0,1.1073,Basalt_rect,3,0,3,0,1
66566a8fe3e2a46451a178b2,SCN,2024-06-10_14h03.34.195,LearnStrategy,2023.2.3,MacIntel,59.88023952,7,2,5,,,,,,,,1,06,,,,,,,,,,,7,0.909,0,,,,,,0.179791667,-0.399800347,1,0,0,0.9088,Peridotite_rect,4,0,4,0,1
66566a8fe3e2a46451a178b2,SCN,2024-06-10_14h03.34.195,LearnStrategy,2023.2.3,MacIntel,59.88023952,7,2,6,,,,,,,,3,14,,,,,,,,,,,3,0.36,1,,,,,,0.127773438,-0.234648438,1,0,0,0.3602,Diorite_rect,5,0,5,0,1
66566a8fe3e2a46451a178b2,SCN,2024-06-10_14h03.34.195,LearnStrategy,2023.2.3,MacIntel,59.88023952,7,2,7,,,,,,,,6,07,,,,,,,,,,,5,1.544,0,,,,,,-0.446024306,-0.387690972,1,0,0,1.5437,Obsidian_rect,6,0,6,0,1
66566a8fe3e2a46451a178b2,SCN,2024-06-10_14h03.34.195,LearnStrategy,2023.2.3,MacIntel,59.88023952,7,2,8,,,,,,,,5,16,,,,,,,,,,,5,1.059,1,,,,,,-0.387894965,-0.409609375,1,0,0,1.0593,Obsidian_rect,7,0,7,0,1
66566a8fe3e2a46451a178b2,SCN,2024-06-10_14h03.34.195,LearnStrategy,2023.2.3,MacIntel,59.88023952,7,2,9,,,,,,,,6,11,,,,,,,,,,,5,0.909,0,,,,,,-0.346197917,-0.400863715,1,0,0,0.9087,Obsidian_rect,8,0,8,0,1
66566a8fe3e2a46451a178b2,SCN,2024-06-10_14h03.34.195,LearnStrategy,2023.2.3,MacIntel,59.88023952,7,2,10,,,,,,,,5,10,,,,,,,,,,,5,0.641,1,,,,,,-0.346197917,-0.400863715,1,0,0,0.6411,Obsidian_rect,9,0,9,0,1
66566a8fe3e2a46451a178b2,SCN,2024-06-10_14h03.34.195,LearnStrategy,2023.2.3,MacIntel,59.88023952,7,2,11,,,,,,,,2,09,,,,,,,,,,,2,1.175,1,,,,,,-0.097699653,-0.25046441,1,0,0,1.1751,Basalt_rect,10,0,10,0,1
66566a8fe3e2a46451a178b2,SCN,2024-06-10_14h03.34.195,LearnStrategy,2023.2.3,MacIntel,59.88023952,7,2,12,,,,,,,,4,15,,,,,,,,,,,6,0.727,0,,,,,,-0.075603299,-0.392152778,1,0,0,0.7267,Pegmatite_rect,11,0,11,0,1
66566a8fe3e2a46451a178b2,SCN,2024-06-10_14h03.34.195,LearnStrategy,2023.2.3,MacIntel,59.88023952,7,2,13,,,,,,,,7,08,,,,,,,,,,,7,0.36,1,,,,,,0.131779514,-0.392686632,1,0,0,0.3598,Peridotite_rect,12,0,12,0,1
66566a8fe3e2a46451a178b2,SCN,2024-06-10_14h03.34.195,LearnStrategy,2023.2.3,MacIntel,59.88023952,7,2,14,,,,,,,,2,11,,,,,,,,,,,3,0.345,0,,,,,,0.12687066,-0.264019097,1,0,0,0.3445,Diorite_rect,13,0,13,0,1
66566a8fe3e2a46451a178b2,SCN,2024-06-10_14h03.34.195,LearnStrategy,2023.2.3,MacIntel,59.88023952,7,2,15,,,,,,,,4,09,,,,,,,,,,,4,0.341,1,,,,,,0.33781684,-0.268953993,1,0,0,0.3412,Gabbro_rect,14,0,14,0,1
66566a8fe3e2a46451a178b2,SCN,2024-06-10_14h03.34.195,LearnStrategy,2023.2.3,MacIntel,59.88023952,7,2,16,,,,,,,,7,16,,,,,,,,,,,8,0.276,0,,,,,,0.337960069,-0.389674479,1,0,0,0.2765,Pumice_rect,15,0,15,0,1
66566a8fe3e2a46451a178b2,SCN,2024-06-10_14h03.34.195,LearnStrategy,2023.2.3,MacIntel,59.88023952,8,1,1,0.094626736,-0.093168403,1,0,0,18.6505,Gabbro_11,4,11,3,5,18.651,0.148580729,-0.388997396,1,0,0,1.4453,Peridotite_rect,7,1.445,0,0,0,0,0,1,,,,,,,,,,,,
66566a8fe3e2a46451a178b2,SCN,2024-06-10_14h03.34.195,LearnStrategy,2023.2.3,MacIntel,59.88023952,8,1,2,-0.10859375,-0.126397569,1,0,0,0.8504,Pumice_10,8,10,3,4,0.85,0.371953125,-0.270394965,1,0,0,2.8079,Gabbro_rect,4,2.808,0,1,0,1,0,1,,,,,,,,,,,,
66566a8fe3e2a46451a178b2,SCN,2024-06-10_14h03.34.195,LearnStrategy,2023.2.3,MacIntel,59.88023952,8,1,3,-0.382196181,-0.238424479,1,0,0,0.9473,Gabbro_14,4,14,2,2,0.947,-0.136258681,-0.246987847,1,0,0,0.7119,Basalt_rect,2,0.712,0,2,0,2,0,1,,,,,,,,,,,,
66566a8fe3e2a46451a178b2,SCN,2024-06-10_14h03.34.195,LearnStrategy,2023.2.3,MacIntel,59.88023952,8,1,4,-0.06078559,0.218142361,1,0,0,1.283,Pumice_06,8,06,5,4,1.283,0.153758681,-0.251223958,1,0,0,1.741,Diorite_rect,3,1.741,0,3,0,3,0,1,,,,,,,,,,,,
66566a8fe3e2a46451a178b2,SCN,2024-06-10_14h03.34.195,LearnStrategy,2023.2.3,MacIntel,59.88023952,8,1,5,-0.56327691,-0.127677951,1,0,0,70.4406,Obsidian_02,5,02,3,1,70.441,-0.34937934,-0.416258681,1,0,0,1.3479,Obsidian_rect,5,1.348,1,4,0,4,0,1,,,,,,,,,,,,
66566a8fe3e2a46451a178b2,SCN,2024-06-10_14h03.34.195,LearnStrategy,2023.2.3,MacIntel,59.88023952,8,1,6,0.063940972,0.077174479,1,0,0,0.8813,Pumice_08,8,08,4,5,0.881,-0.187929687,-0.247274306,1,0,0,1.4118,Basalt_rect,2,1.412,0,5,0,5,0,1,,,,,,,,,,,,
66566a8fe3e2a46451a178b2,SCN,2024-06-10_14h03.34.195,LearnStrategy,2023.2.3,MacIntel,59.88023952,8,1,7,0.547078993,0.357178819,1,0,0,2.4338,Pumice_09,8,09,6,8,2.434,0.412278646,-0.246037326,1,0,0,0.7308,Gabbro_rect,4,0.731,0,6,0,6,0,1,,,,,,,,,,,,
66566a8fe3e2a46451a178b2,SCN,2024-06-10_14h03.34.195,LearnStrategy,2023.2.3,MacIntel,59.88023952,8,1,8,0.075690104,-0.109197049,1,0,0,0.6784,Gabbro_11,4,11,3,5,0.678,0.111210937,-0.245950521,1,0,0,0.5451,Diorite_rect,3,0.545,0,7,0,7,0,1,,,,,,,,,,,,
66566a8fe3e2a46451a178b2,SCN,2024-06-10_14h03.34.195,LearnStrategy,2023.2.3,MacIntel,59.88023952,8,1,9,-0.205486111,-0.081510417,1,0,0,0.9805,Diorite_12,3,12,3,3,0.981,-0.060850694,-0.241519097,1,0,0,1.4282,Basalt_rect,2,1.428,0,8,0,8,0,1,,,,,,,,,,,,
66566a8fe3e2a46451a178b2,SCN,2024-06-10_14h03.34.195,LearnStrategy,2023.2.3,MacIntel,59.88023952,8,1,10,0.078294271,-0.434249132,1,0,0,0.879,Basalt_10,2,10,1,5,0.879,0.139088542,-0.250434028,1,0,0,0.8955,Diorite_rect,3,0.896,0,9,0,9,0,1,,,,,,,,,,,,
66566a8fe3e2a46451a178b2,SCN,2024-06-10_14h03.34.195,LearnStrategy,2023.2.3,MacIntel,59.88023952,8,1,11,-0.409479167,-0.410329861,1,0,0,0.9516,Basalt_06,2,06,1,2,0.952,0.135546875,-0.245659722,1,0,0,1.2743,Diorite_rect,3,1.274,0,10,0,10,0,1,,,,,,,,,,,,
66566a8fe3e2a46451a178b2,SCN,2024-06-10_14h03.34.195,LearnStrategy,2023.2.3,MacIntel,59.88023952,8,1,12,0.543849826,-0.413272569,1,0,0,0.8309,Basalt_14,2,14,1,8,0.831,0.149826389,-0.254670139,1,0,0,2.0755,Diorite_rect,3,2.075,0,11,0,11,0,1,,,,,,,,,,,,
66566a8fe3e2a46451a178b2,SCN,2024-06-10_14h03.34.195,LearnStrategy,2023.2.3,MacIntel,59.88023952,8,1,13,-0.121935764,-0.076987847,1,0,0,1.3132,Pumice_10,8,10,3,4,1.313,0.373919271,-0.271623264,1,0,0,1.3943,Gabbro_rect,4,1.394,0,12,0,12,0,1,,,,,,,,,,,,
66566a8fe3e2a46451a178b2,SCN,2024-06-10_14h03.34.195,LearnStrategy,2023.2.3,MacIntel,59.88023952,8,1,14,-0.056315104,-0.25718316,1,0,0,2.9892,Obsidian_07,5,07,2,4,2.989,-0.345078125,-0.392877604,1,0,0,1.0264,Obsidian_rect,5,1.026,1,13,0,13,0,1,,,,,,,,,,,,
66566a8fe3e2a46451a178b2,SCN,2024-06-10_14h03.34.195,LearnStrategy,2023.2.3,MacIntel,59.88023952,8,1,15,0.071970486,-0.128216146,1,0,0,0.6971,Gabbro_11,4,11,3,5,0.697,0.104149306,-0.257925347,1,0,0,0.5257,Diorite_rect,3,0.526,0,14,0,14,0,1,,,,,,,,,,,,
66566a8fe3e2a46451a178b2,SCN,2024-06-10_14h03.34.195,LearnStrategy,2023.2.3,MacIntel,59.88023952,8,1,16,0.068728299,-0.072482639,1,0,0,0.6007,Gabbro_11,4,11,3,5,0.601,0.149861111,-0.25374566,1,0,0,0.7281,Diorite_rect,3,0.728,0,15,0,15,0,1,,,,,,,,,,,,
66566a8fe3e2a46451a178b2,SCN,2024-06-10_14h03.34.195,LearnStrategy,2023.2.3,MacIntel,59.88023952,8,2,1,,,,,,,,2,16,,,,,,,,,,,6,5.239,0,,,,,,-0.094904514,-0.404626736,1,0,0,5.239,Pegmatite_rect,0,0,0,0,1
66566a8fe3e2a46451a178b2,SCN,2024-06-10_14h03.34.195,LearnStrategy,2023.2.3,MacIntel,59.88023952,8,2,2,,,,,,,,4,13,,,,,,,,,,,3,2.902,0,,,,,,0.212139757,-0.238372396,1,0,0,2.9021,Diorite_rect,1,0,1,0,1
66566a8fe3e2a46451a178b2,SCN,2024-06-10_14h03.34.195,LearnStrategy,2023.2.3,MacIntel,59.88023952,8,2,3,,,,,,,,6,06,,,,,,,,,,,7,1.817,0,,,,,,0.203628472,-0.412986111,1,0,0,1.8167,Peridotite_rect,2,0,2,0,1
66566a8fe3e2a46451a178b2,SCN,2024-06-10_14h03.34.195,LearnStrategy,2023.2.3,MacIntel,59.88023952,8,2,4,,,,,,,,4,16,,,,,,,,,,,8,1.609,0,,,,,,0.376028646,-0.415520833,1,0,0,1.6089,Pumice_rect,3,0,3,0,1
66566a8fe3e2a46451a178b2,SCN,2024-06-10_14h03.34.195,LearnStrategy,2023.2.3,MacIntel,59.88023952,8,2,5,,,,,,,,8,14,,,,,,,,,,,8,2.492,1,,,,,,0.446467014,-0.420894097,1,0,0,2.4924,Pumice_rect,4,0,4,0,1
66566a8fe3e2a46451a178b2,SCN,2024-06-10_14h03.34.195,LearnStrategy,2023.2.3,MacIntel,59.88023952,8,2,6,,,,,,,,8,04,,,,,,,,,,,2,0.923,0,,,,,,-0.112022569,-0.250907118,1,0,0,0.9233,Basalt_rect,5,0,5,0,1
66566a8fe3e2a46451a178b2,SCN,2024-06-10_14h03.34.195,LearnStrategy,2023.2.3,MacIntel,59.88023952,8,2,7,,,,,,,,6,16,,,,,,,,,,,6,1.213,1,,,,,,-0.116875,-0.398710937,1,0,0,1.2134,Pegmatite_rect,6,0,6,0,1
66566a8fe3e2a46451a178b2,SCN,2024-06-10_14h03.34.195,LearnStrategy,2023.2.3,MacIntel,59.88023952,8,2,8,,,,,,,,3,10,,,,,,,,,,,3,1.075,1,,,,,,0.104631076,-0.258871528,1,0,0,1.0755,Diorite_rect,7,0,7,0,1
66566a8fe3e2a46451a178b2,SCN,2024-06-10_14h03.34.195,LearnStrategy,2023.2.3,MacIntel,59.88023952,8,2,9,,,,,,,,5,04,,,,,,,,,,,5,1.642,1,,,,,,-0.369817708,-0.415390625,1,0,0,1.6424,Obsidian_rect,8,0,8,0,1
66566a8fe3e2a46451a178b2,SCN,2024-06-10_14h03.34.195,LearnStrategy,2023.2.3,MacIntel,59.88023952,8,2,10,,,,,,,,2,04,,,,,,,,,,,2,1.241,1,,,,,,-0.153511285,-0.271801215,1,0,0,1.2413,Basalt_rect,9,0,9,0,1
66566a8fe3e2a46451a178b2,SCN,2024-06-10_14h03.34.195,LearnStrategy,2023.2.3,MacIntel,59.88023952,8,2,11,,,,,,,,5,14,,,,,,,,,,,5,1.056,1,,,,,,-0.362100694,-0.404101563,1,0,0,1.0557,Obsidian_rect,10,0,10,0,1
66566a8fe3e2a46451a178b2,SCN,2024-06-10_14h03.34.195,LearnStrategy,2023.2.3,MacIntel,59.88023952,8,2,12,,,,,,,,3,11,,,,,,,,,,,3,2.225,1,,,,,,0.173554687,-0.265329861,1,0,0,2.2247,Diorite_rect,11,0,11,0,1
66566a8fe3e2a46451a178b2,SCN,2024-06-10_14h03.34.195,LearnStrategy,2023.2.3,MacIntel,59.88023952,8,2,13,,,,,,,,1,16,,,,,,,,,,,1,1.051,1,,,,,,-0.346453993,-0.233667535,1,0,0,1.0511,Andesite_rect,12,0,12,0,1
66566a8fe3e2a46451a178b2,SCN,2024-06-10_14h03.34.195,LearnStrategy,2023.2.3,MacIntel,59.88023952,8,2,14,,,,,,,,1,01,,,,,,,,,,,6,0.941,0,,,,,,-0.112061632,-0.407387153,1,0,0,0.9407,Pegmatite_rect,13,0,13,0,1
66566a8fe3e2a46451a178b2,SCN,2024-06-10_14h03.34.195,LearnStrategy,2023.2.3,MacIntel,59.88023952,8,2,15,,,,,,,,7,02,,,,,,,,,,,7,0.794,1,,,,,,0.099670139,-0.384357639,1,0,0,0.7936,Peridotite_rect,14,0,14,0,1
66566a8fe3e2a46451a178b2,SCN,2024-06-10_14h03.34.195,LearnStrategy,2023.2.3,MacIntel,59.88023952,8,2,16,,,,,,,,7,13,,,,,,,,,,,3,0.639,0,,,,,,0.138311632,-0.247695312,1,0,0,0.6387,Diorite_rect,15,0,15,0,1
66566a8fe3e2a46451a178b2,SCN,2024-06-10_14h03.34.195,LearnStrategy,2023.2.3,MacIntel,59.88023952,9,1,1,-0.355325521,-0.393758681,1,0,0,45.1498,Basalt_06,2,06,1,2,45.15,-0.203302951,-0.234934896,1,0,0,0.6494,Basalt_rect,2,0.649,1,0,0,0,0,1,,,,,,,,,,,,
66566a8fe3e2a46451a178b2,SCN,2024-06-10_14h03.34.195,LearnStrategy,2023.2.3,MacIntel,59.88023952,9,1,2,-0.560703125,-0.089340278,1,0,0,0.8844,Obsidian_02,5,02,3,1,0.884,-0.395086806,-0.383528646,1,0,0,1.1269,Obsidian_rect,5,1.127,1,1,0,1,0,1,,,,,,,,,,,,
66566a8fe3e2a46451a178b2,SCN,2024-06-10_14h03.34.195,LearnStrategy,2023.2.3,MacIntel,59.88023952,9,1,3,0.242725694,0.27140191,1,0,0,1.3005,Obsidian_11,5,11,5,6,1.301,-0.46452691,-0.414418403,1,0,0,1.1242,Obsidian_rect,5,1.124,1,2,0,2,0,1,,,,,,,,,,,,
66566a8fe3e2a46451a178b2,SCN,2024-06-10_14h03.34.195,LearnStrategy,2023.2.3,MacIntel,59.88023952,9,1,4,-0.369605035,0.242730035,1,0,0,0.9461,Obsidian_09,5,09,5,2,0.946,-0.414539931,-0.393962674,1,0,0,0.8283,Obsidian_rect,5,0.828,1,3,0,3,0,1,,,,,,,,,,,,
66566a8fe3e2a46451a178b2,SCN,2024-06-10_14h03.34.195,LearnStrategy,2023.2.3,MacIntel,59.88023952,9,1,5,0.094544271,-0.109162326,1,0,0,0.5674,Gabbro_11,4,11,3,5,0.567,0.06719184,-0.264279514,1,0,0,0.5404,Diorite_rect,3,0.54,0,4,0,4,0,1,,,,,,,,,,,,
66566a8fe3e2a46451a178b2,SCN,2024-06-10_14h03.34.195,LearnStrategy,2023.2.3,MacIntel,59.88023952,9,1,6,0.523628472,0.137647569,1,0,0,1.167,Pegmatite_08,6,08,4,8,1.167,0.100603299,-0.263138021,1,0,0,1.46,Diorite_rect,3,1.46,0,5,0,5,0,1,,,,,,,,,,,,
66566a8fe3e2a46451a178b2,SCN,2024-06-10_14h03.34.195,LearnStrategy,2023.2.3,MacIntel,59.88023952,9,1,7,-0.344926215,0.254913194,1,0,0,1.3669,Obsidian_09,5,09,5,2,1.367,-0.386497396,-0.387712674,1,0,0,1.5895,Obsidian_rect,5,1.59,1,6,0,6,0,1,,,,,,,,,,,,
66566a8fe3e2a46451a178b2,SCN,2024-06-10_14h03.34.195,LearnStrategy,2023.2.3,MacIntel,59.88023952,9,1,8,0.531553819,0.407717014,1,0,0,1.3637,Pumice_09,8,09,6,8,1.364,0.310911458,-0.400407986,1,0,0,2.8261,Pumice_rect,8,2.826,1,7,0,7,0,1,,,,,,,,,,,,
66566a8fe3e2a46451a178b2,SCN,2024-06-10_14h03.34.195,LearnStrategy,2023.2.3,MacIntel,59.88023952,9,1,9,0.248988715,0.235217014,1,0,0,1.0629,Obsidian_11,5,11,5,6,1.063,-0.342196181,-0.241657986,1,0,0,1.7437,Andesite_rect,1,1.744,0,8,0,8,0,1,,,,,,,,,,,,
66566a8fe3e2a46451a178b2,SCN,2024-06-10_14h03.34.195,LearnStrategy,2023.2.3,MacIntel,59.88023952,9,1,10,-0.510694444,0.404674479,1,0,0,3.8549,Andesite_05,1,05,6,1,3.855,-0.152365451,-0.2415625,1,0,0,1.2401,Basalt_rect,2,1.24,0,9,0,9,0,1,,,,,,,,,,,,
66566a8fe3e2a46451a178b2,SCN,2024-06-10_14h03.34.195,LearnStrategy,2023.2.3,MacIntel,59.88023952,9,1,11,-0.551128472,-0.077252604,1,0,0,1.1847,Obsidian_02,5,02,3,1,1.185,-0.371471354,-0.385833333,1,0,0,1.2563,Obsidian_rect,5,1.256,1,10,0,10,0,1,,,,,,,,,,,,
66566a8fe3e2a46451a178b2,SCN,2024-06-10_14h03.34.195,LearnStrategy,2023.2.3,MacIntel,59.88023952,9,1,12,0.387235243,0.086905382,1,0,0,1.0309,Obsidian_05,5,05,4,7,1.031,-0.424279514,-0.413519965,1,0,0,1.0272,Obsidian_rect,5,1.027,1,11,0,11,0,1,,,,,,,,,,,,
66566a8fe3e2a46451a178b2,SCN,2024-06-10_14h03.34.195,LearnStrategy,2023.2.3,MacIntel,59.88023952,9,1,13,0.113832465,-0.133107639,1,0,0,0.5822,Gabbro_11,4,11,3,5,0.582,0.150321181,-0.262539062,1,0,0,0.8244,Diorite_rect,3,0.824,0,12,0,12,0,1,,,,,,,,,,,,
66566a8fe3e2a46451a178b2,SCN,2024-06-10_14h03.34.195,LearnStrategy,2023.2.3,MacIntel,59.88023952,9,1,14,0.547877604,-0.12421441,1,0,0,1.0491,Basalt_08,2,08,3,8,1.049,-0.344071181,-0.238020833,1,0,0,1.56,Andesite_rect,1,1.56,0,13,0,13,0,1,,,,,,,,,,,,
66566a8fe3e2a46451a178b2,SCN,2024-06-10_14h03.34.195,LearnStrategy,2023.2.3,MacIntel,59.88023952,9,1,15,0.081983507,-0.081493056,1,0,0,0.6669,Gabbro_11,4,11,3,5,0.667,0.321935764,-0.407634549,1,0,0,1.1595,Pumice_rect,8,1.16,0,14,0,14,0,1,,,,,,,,,,,,
66566a8fe3e2a46451a178b2,SCN,2024-06-10_14h03.34.195,LearnStrategy,2023.2.3,MacIntel,59.88023952,9,1,16,-0.094500868,-0.081818576,1,0,0,1.1669,Pumice_10,8,10,3,4,1.167,0.36734809,-0.255664063,1,0,0,1.2915,Gabbro_rect,4,1.291,0,15,0,15,0,1,,,,,,,,,,,,
66566a8fe3e2a46451a178b2,SCN,2024-06-10_14h03.34.195,LearnStrategy,2023.2.3,MacIntel,59.88023952,9,2,1,,,,,,,,1,09,,,,,,,,,,,3,4.508,0,,,,,,0.151822917,-0.263211806,1,0,0,4.5075,Diorite_rect,0,0,0,0,1
66566a8fe3e2a46451a178b2,SCN,2024-06-10_14h03.34.195,LearnStrategy,2023.2.3,MacIntel,59.88023952,9,2,2,,,,,,,,1,07,,,,,,,,,,,5,8.401,0,,,,,,-0.417222222,-0.395147569,1,0,0,8.4013,Obsidian_rect,1,0,1,0,1
66566a8fe3e2a46451a178b2,SCN,2024-06-10_14h03.34.195,LearnStrategy,2023.2.3,MacIntel,59.88023952,9,2,3,,,,,,,,8,02,,,,,,,,,,,7,0.863,0,,,,,,0.097513021,-0.40312066,1,0,0,0.8625,Peridotite_rect,2,0,2,0,1
66566a8fe3e2a46451a178b2,SCN,2024-06-10_14h03.34.195,LearnStrategy,2023.2.3,MacIntel,59.88023952,9,2,4,,,,,,,,3,06,,,,,,,,,,,2,0.395,0,,,,,,-0.170099826,-0.253255208,1,0,0,0.3948,Basalt_rect,3,0,3,0,1
66566a8fe3e2a46451a178b2,SCN,2024-06-10_14h03.34.195,LearnStrategy,2023.2.3,MacIntel,59.88023952,9,2,5,,,,,,,,2,05,,,,,,,,,,,4,0.622,0,,,,,,0.370329861,-0.247517361,1,0,0,0.6224,Gabbro_rect,4,0,4,0,1
66566a8fe3e2a46451a178b2,SCN,2024-06-10_14h03.34.195,LearnStrategy,2023.2.3,MacIntel,59.88023952,9,2,6,,,,,,,,2,12,,,,,,,,,,,5,0.459,0,,,,,,-0.422491319,-0.392951389,1,0,0,0.4593,Obsidian_rect,5,0,5,0,1
66566a8fe3e2a46451a178b2,SCN,2024-06-10_14h03.34.195,LearnStrategy,2023.2.3,MacIntel,59.88023952,9,2,7,,,,,,,,7,15,,,,,,,,,,,2,0.36,0,,,,,,-0.077330729,-0.254631076,1,0,0,0.3601,Basalt_rect,6,0,6,0,1
66566a8fe3e2a46451a178b2,SCN,2024-06-10_14h03.34.195,LearnStrategy,2023.2.3,MacIntel,59.88023952,9,2,8,,,,,,,,4,08,,,,,,,,,,,7,0.493,0,,,,,,0.113107639,-0.382421875,1,0,0,0.4926,Peridotite_rect,7,0,7,0,1
66566a8fe3e2a46451a178b2,SCN,2024-06-10_14h03.34.195,LearnStrategy,2023.2.3,MacIntel,59.88023952,9,2,9,,,,,,,,3,02,,,,,,,,,,,1,0.375,0,,,,,,-0.463081597,-0.242213542,1,0,0,0.3751,Andesite_rect,8,0,8,0,1
66566a8fe3e2a46451a178b2,SCN,2024-06-10_14h03.34.195,LearnStrategy,2023.2.3,MacIntel,59.88023952,9,2,10,,,,,,,,5,12,,,,,,,,,,,3,0.576,0,,,,,,0.068159722,-0.237643229,1,0,0,0.5762,Diorite_rect,9,0,9,0,1
66566a8fe3e2a46451a178b2,SCN,2024-06-10_14h03.34.195,LearnStrategy,2023.2.3,MacIntel,59.88023952,9,2,11,,,,,,,,6,12,,,,,,,,,,,2,1.591,0,,,,,,-0.08219184,-0.256909722,1,0,0,1.591,Basalt_rect,10,0,10,0,1
66566a8fe3e2a46451a178b2,SCN,2024-06-10_14h03.34.195,LearnStrategy,2023.2.3,MacIntel,59.88023952,9,2,12,,,,,,,,7,07,,,,,,,,,,,7,1.208,1,,,,,,0.1540625,-0.402903646,1,0,0,1.2083,Peridotite_rect,11,0,11,0,1
66566a8fe3e2a46451a178b2,SCN,2024-06-10_14h03.34.195,LearnStrategy,2023.2.3,MacIntel,59.88023952,9,2,13,,,,,,,,8,05,,,,,,,,,,,1,1.677,0,,,,,,-0.405963542,-0.235707465,1,0,0,1.6769,Andesite_rect,12,0,12,0,1
66566a8fe3e2a46451a178b2,SCN,2024-06-10_14h03.34.195,LearnStrategy,2023.2.3,MacIntel,59.88023952,9,2,14,,,,,,,,6,10,,,,,,,,,,,2,1.674,0,,,,,,-0.107565104,-0.245954861,1,0,0,1.6742,Basalt_rect,13,0,13,0,1
66566a8fe3e2a46451a178b2,SCN,2024-06-10_14h03.34.195,LearnStrategy,2023.2.3,MacIntel,59.88023952,9,2,15,,,,,,,,4,03,,,,,,,,,,,6,0.991,0,,,,,,-0.095594618,-0.414388021,1,0,0,0.9907,Pegmatite_rect,14,0,14,0,1
66566a8fe3e2a46451a178b2,SCN,2024-06-10_14h03.34.195,LearnStrategy,2023.2.3,MacIntel,59.88023952,9,2,16,,,,,,,,5,06,,,,,,,,,,,5,1.557,1,,,,,,-0.440881076,-0.404253472,1,0,0,1.5572,Obsidian_rect,15,0,15,0,1
66566a8fe3e2a46451a178b2,SCN,2024-06-10_14h03.34.195,LearnStrategy,2023.2.3,MacIntel,59.88023952,,,,,,,,,,,,,,,,,,,,,,,,,,,,,,,,,,,,,,,,,,
66566a8fe3e2a46451a178b2,SCN,2024-06-10_14h03.34.195,LearnStrategy,2023.2.3,MacIntel,59.88023952,,,,,,,,,,,,,,,,,,,,,,,,,,,,,,,,,,,,,,,,,,
66566a8fe3e2a46451a178b2,SCN,2024-06-10_14h03.34.195,LearnStrategy,2023.2.3,MacIntel,59.88023952,,,,,,,,,,,1,03,1,1,,,,,,,,,,,,,,,,,,,,,,,,,,,,
66566a8fe3e2a46451a178b2,SCN,2024-06-10_14h03.34.195,LearnStrategy,2023.2.3,MacIntel,59.88023952,,,,,,,,,,,2,06,1,2,,,,,,,,,,,,,,,,,,,,,,,,,,,,
66566a8fe3e2a46451a178b2,SCN,2024-06-10_14h03.34.195,LearnStrategy,2023.2.3,MacIntel,59.88023952,,,,,,,,,,,6,13,1,3,,,,,,,,,,,,,,,,,,,,,,,,,,,,
66566a8fe3e2a46451a178b2,SCN,2024-06-10_14h03.34.195,LearnStrategy,2023.2.3,MacIntel,59.88023952,,,,,,,,,,,3,09,1,4,,,,,,,,,,,,,,,,,,,,,,,,,,,,
66566a8fe3e2a46451a178b2,SCN,2024-06-10_14h03.34.195,LearnStrategy,2023.2.3,MacIntel,59.88023952,,,,,,,,,,,2,10,1,5,,,,,,,,,,,,,,,,,,,,,,,,,,,,
66566a8fe3e2a46451a178b2,SCN,2024-06-10_14h03.34.195,LearnStrategy,2023.2.3,MacIntel,59.88023952,,,,,,,,,,,5,08,1,6,,,,,,,,,,,,,,,,,,,,,,,,,,,,
66566a8fe3e2a46451a178b2,SCN,2024-06-10_14h03.34.195,LearnStrategy,2023.2.3,MacIntel,59.88023952,,,,,,,,,,,6,15,1,7,,,,,,,,,,,,,,,,,,,,,,,,,,,,
66566a8fe3e2a46451a178b2,SCN,2024-06-10_14h03.34.195,LearnStrategy,2023.2.3,MacIntel,59.88023952,,,,,,,,,,,2,14,1,8,,,,,,,,,,,,,,,,,,,,,,,,,,,,
66566a8fe3e2a46451a178b2,SCN,2024-06-10_14h03.34.195,LearnStrategy,2023.2.3,MacIntel,59.88023952,,,,,,,,,,,3,07,2,1,,,,,,,,,,,,,,,,,,,,,,,,,,,,
66566a8fe3e2a46451a178b2,SCN,2024-06-10_14h03.34.195,LearnStrategy,2023.2.3,MacIntel,59.88023952,,,,,,,,,,,4,14,2,2,,,,,,,,,,,,,,,,,,,,,,,,,,,,
66566a8fe3e2a46451a178b2,SCN,2024-06-10_14h03.34.195,LearnStrategy,2023.2.3,MacIntel,59.88023952,,,,,,,,,,,6,05,2,3,,,,,,,,,,,,,,,,,,,,,,,,,,,,
66566a8fe3e2a46451a178b2,SCN,2024-06-10_14h03.34.195,LearnStrategy,2023.2.3,MacIntel,59.88023952,,,,,,,,,,,5,07,2,4,,,,,,,,,,,,,,,,,,,,,,,,,,,,
66566a8fe3e2a46451a178b2,SCN,2024-06-10_14h03.34.195,LearnStrategy,2023.2.3,MacIntel,59.88023952,,,,,,,,,,,4,01,2,5,,,,,,,,,,,,,,,,,,,,,,,,,,,,
66566a8fe3e2a46451a178b2,SCN,2024-06-10_14h03.34.195,LearnStrategy,2023.2.3,MacIntel,59.88023952,,,,,,,,,,,1,14,2,6,,,,,,,,,,,,,,,,,,,,,,,,,,,,
66566a8fe3e2a46451a178b2,SCN,2024-06-10_14h03.34.195,LearnStrategy,2023.2.3,MacIntel,59.88023952,,,,,,,,,,,3,08,2,7,,,,,,,,,,,,,,,,,,,,,,,,,,,,
66566a8fe3e2a46451a178b2,SCN,2024-06-10_14h03.34.195,LearnStrategy,2023.2.3,MacIntel,59.88023952,,,,,,,,,,,4,12,2,8,,,,,,,,,,,,,,,,,,,,,,,,,,,,
66566a8fe3e2a46451a178b2,SCN,2024-06-10_14h03.34.195,LearnStrategy,2023.2.3,MacIntel,59.88023952,,,,,,,,,,,5,02,3,1,,,,,,,,,,,,,,,,,,,,,,,,,,,,
66566a8fe3e2a46451a178b2,SCN,2024-06-10_14h03.34.195,LearnStrategy,2023.2.3,MacIntel,59.88023952,,,,,,,,,,,6,03,3,2,,,,,,,,,,,,,,,,,,,,,,,,,,,,
66566a8fe3e2a46451a178b2,SCN,2024-06-10_14h03.34.195,LearnStrategy,2023.2.3,MacIntel,59.88023952,,,,,,,,,,,3,12,3,3,,,,,,,,,,,,,,,,,,,,,,,,,,,,
66566a8fe3e2a46451a178b2,SCN,2024-06-10_14h03.34.195,LearnStrategy,2023.2.3,MacIntel,59.88023952,,,,,,,,,,,8,10,3,4,,,,,,,,,,,,,,,,,,,,,,,,,,,,
66566a8fe3e2a46451a178b2,SCN,2024-06-10_14h03.34.195,LearnStrategy,2023.2.3,MacIntel,59.88023952,,,,,,,,,,,4,11,3,5,,,,,,,,,,,,,,,,,,,,,,,,,,,,
66566a8fe3e2a46451a178b2,SCN,2024-06-10_14h03.34.195,LearnStrategy,2023.2.3,MacIntel,59.88023952,,,,,,,,,,,7,12,3,6,,,,,,,,,,,,,,,,,,,,,,,,,,,,
66566a8fe3e2a46451a178b2,SCN,2024-06-10_14h03.34.195,LearnStrategy,2023.2.3,MacIntel,59.88023952,,,,,,,,,,,1,11,3,7,,,,,,,,,,,,,,,,,,,,,,,,,,,,
66566a8fe3e2a46451a178b2,SCN,2024-06-10_14h03.34.195,LearnStrategy,2023.2.3,MacIntel,59.88023952,,,,,,,,,,,2,08,3,8,,,,,,,,,,,,,,,,,,,,,,,,,,,,
66566a8fe3e2a46451a178b2,SCN,2024-06-10_14h03.34.195,LearnStrategy,2023.2.3,MacIntel,59.88023952,,,,,,,,,,,3,15,4,1,,,,,,,,,,,,,,,,,,,,,,,,,,,,
66566a8fe3e2a46451a178b2,SCN,2024-06-10_14h03.34.195,LearnStrategy,2023.2.3,MacIntel,59.88023952,,,,,,,,,,,1,10,4,2,,,,,,,,,,,,,,,,,,,,,,,,,,,,
66566a8fe3e2a46451a178b2,SCN,2024-06-10_14h03.34.195,LearnStrategy,2023.2.3,MacIntel,59.88023952,,,,,,,,,,,8,13,4,3,,,,,,,,,,,,,,,,,,,,,,,,,,,,
66566a8fe3e2a46451a178b2,SCN,2024-06-10_14h03.34.195,LearnStrategy,2023.2.3,MacIntel,59.88023952,,,,,,,,,,,2,01,4,4,,,,,,,,,,,,,,,,,,,,,,,,,,,,
66566a8fe3e2a46451a178b2,SCN,2024-06-10_14h03.34.195,LearnStrategy,2023.2.3,MacIntel,59.88023952,,,,,,,,,,,8,08,4,5,,,,,,,,,,,,,,,,,,,,,,,,,,,,
66566a8fe3e2a46451a178b2,SCN,2024-06-10_14h03.34.195,LearnStrategy,2023.2.3,MacIntel,59.88023952,,,,,,,,,,,4,10,4,6,,,,,,,,,,,,,,,,,,,,,,,,,,,,
66566a8fe3e2a46451a178b2,SCN,2024-06-10_14h03.34.195,LearnStrategy,2023.2.3,MacIntel,59.88023952,,,,,,,,,,,5,05,4,7,,,,,,,,,,,,,,,,,,,,,,,,,,,,
66566a8fe3e2a46451a178b2,SCN,2024-06-10_14h03.34.195,LearnStrategy,2023.2.3,MacIntel,59.88023952,,,,,,,,,,,6,08,4,8,,,,,,,,,,,,,,,,,,,,,,,,,,,,
66566a8fe3e2a46451a178b2,SCN,2024-06-10_14h03.34.195,LearnStrategy,2023.2.3,MacIntel,59.88023952,,,,,,,,,,,7,14,5,1,,,,,,,,,,,,,,,,,,,,,,,,,,,,
66566a8fe3e2a46451a178b2,SCN,2024-06-10_14h03.34.195,LearnStrategy,2023.2.3,MacIntel,59.88023952,,,,,,,,,,,5,09,5,2,,,,,,,,,,,,,,,,,,,,,,,,,,,,
66566a8fe3e2a46451a178b2,SCN,2024-06-10_14h03.34.195,LearnStrategy,2023.2.3,MacIntel,59.88023952,,,,,,,,,,,2,02,5,3,,,,,,,,,,,,,,,,,,,,,,,,,,,,
66566a8fe3e2a46451a178b2,SCN,2024-06-10_14h03.34.195,LearnStrategy,2023.2.3,MacIntel,59.88023952,,,,,,,,,,,8,06,5,4,,,,,,,,,,,,,,,,,,,,,,,,,,,,
66566a8fe3e2a46451a178b2,SCN,2024-06-10_14h03.34.195,LearnStrategy,2023.2.3,MacIntel,59.88023952,,,,,,,,,,,1,04,5,5,,,,,,,,,,,,,,,,,,,,,,,,,,,,
66566a8fe3e2a46451a178b2,SCN,2024-06-10_14h03.34.195,LearnStrategy,2023.2.3,MacIntel,59.88023952,,,,,,,,,,,5,11,5,6,,,,,,,,,,,,,,,,,,,,,,,,,,,,
66566a8fe3e2a46451a178b2,SCN,2024-06-10_14h03.34.195,LearnStrategy,2023.2.3,MacIntel,59.88023952,,,,,,,,,,,7,06,5,7,,,,,,,,,,,,,,,,,,,,,,,,,,,,
66566a8fe3e2a46451a178b2,SCN,2024-06-10_14h03.34.195,LearnStrategy,2023.2.3,MacIntel,59.88023952,,,,,,,,,,,4,05,5,8,,,,,,,,,,,,,,,,,,,,,,,,,,,,
66566a8fe3e2a46451a178b2,SCN,2024-06-10_14h03.34.195,LearnStrategy,2023.2.3,MacIntel,59.88023952,,,,,,,,,,,1,05,6,1,,,,,,,,,,,,,,,,,,,,,,,,,,,,
66566a8fe3e2a46451a178b2,SCN,2024-06-10_14h03.34.195,LearnStrategy,2023.2.3,MacIntel,59.88023952,,,,,,,,,,,6,09,6,2,,,,,,,,,,,,,,,,,,,,,,,,,,,,
66566a8fe3e2a46451a178b2,SCN,2024-06-10_14h03.34.195,LearnStrategy,2023.2.3,MacIntel,59.88023952,,,,,,,,,,,3,13,6,3,,,,,,,,,,,,,,,,,,,,,,,,,,,,
66566a8fe3e2a46451a178b2,SCN,2024-06-10_14h03.34.195,LearnStrategy,2023.2.3,MacIntel,59.88023952,,,,,,,,,,,7,04,6,4,,,,,,,,,,,,,,,,,,,,,,,,,,,,
66566a8fe3e2a46451a178b2,SCN,2024-06-10_14h03.34.195,LearnStrategy,2023.2.3,MacIntel,59.88023952,,,,,,,,,,,7,05,6,5,,,,,,,,,,,,,,,,,,,,,,,,,,,,
66566a8fe3e2a46451a178b2,SCN,2024-06-10_14h03.34.195,LearnStrategy,2023.2.3,MacIntel,59.88023952,,,,,,,,,,,8,03,6,6,,,,,,,,,,,,,,,,,,,,,,,,,,,,
66566a8fe3e2a46451a178b2,SCN,2024-06-10_14h03.34.195,LearnStrategy,2023.2.3,MacIntel,59.88023952,,,,,,,,,,,7,10,6,7,,,,,,,,,,,,,,,,,,,,,,,,,,,,
66566a8fe3e2a46451a178b2,SCN,2024-06-10_14h03.34.195,LearnStrategy,2023.2.3,MacIntel,59.88023952,,,,,,,,,,,8,09,6,8,,,,,,,,,,,,,,,,,,,,,,,,,,,,