participant,condition,date,expName,psychopyVersion,OS,frameRate,block,phase,trial,learn_mouse.x,learn_mouse.y,learn_mouse.leftButton,learn_mouse.midButton,learn_mouse.rightButton,learn_mouse.time,learn_mouse.clicked_name,cat,token,row,col,t_select,cat_rec,token_rec,cat_mouse_l.x,cat_mouse_l.y,cat_mouse_l.leftButton,cat_mouse_l.midButton,cat_mouse_l.rightButton,cat_mouse_l.time,cat_mouse_l.clicked_name,resp,t_resp,corr,train_trials.thisRepN,train_trials.thisTrialN,train_trials.thisN,train_trials.thisIndex,train_trials.ran,cat_mouse_t.x,cat_mouse_t.y,cat_mouse_t.leftButton,cat_mouse_t.midButton,cat_mouse_t.rightButton,cat_mouse_t.time,cat_mouse_t.clicked_name,test_trials.thisRepN,test_trials.thisTrialN,test_trials.thisN,test_trials.thisIndex,test_trials.ran,Bonus
665747ab06294778387cd708,SCR,2024-06-20_16h27.33.738,LearnStrategy,2023.2.3,Win32,59.17159763,,,,,,,,,,,,,,,,,,,,,,,,,,,,,,,,,,,,,,,,,,,,,
665747ab06294778387cd708,SCR,2024-06-20_16h27.33.738,LearnStrategy,2023.2.3,Win32,59.17159763,1,1,1,-0.537962963,-0.250925926,1,0,0,2.2212,Pegmatite_07,6,07,2,1,2.221,6,07,0.321296296,-0.392592593,1,0,0,4.3828,Pumice_rect,8,4.383,0,0,0,0,0,1,,,,,,,,,,,,,
665747ab06294778387cd708,SCR,2024-06-20_16h27.33.738,LearnStrategy,2023.2.3,Win32,59.17159763,1,1,2,0.387962963,-0.099074074,1,0,0,4.7982,Andesite_14,1,14,3,7,4.798,1,14,0.056481481,-0.239814815,1,0,0,1.4658,Diorite_rect,3,1.466,0,1,0,1,0,1,,,,,,,,,,,,,
665747ab06294778387cd708,SCR,2024-06-20_16h27.33.738,LearnStrategy,2023.2.3,Win32,59.17159763,1,1,3,0.560185185,0.406481481,1,0,0,2.7319,Gabbro_01,4,01,6,8,2.732,4,01,-0.138888889,-0.253703704,1,0,0,3.4353,Basalt_rect,2,3.435,0,2,0,2,0,1,,,,,,,,,,,,,
665747ab06294778387cd708,SCR,2024-06-20_16h27.33.738,LearnStrategy,2023.2.3,Win32,59.17159763,1,1,4,0.102777778,-0.407407407,1,0,0,1.3317,Obsidian_12,5,12,1,5,1.332,5,12,-0.348148148,-0.403703704,1,0,0,1.6766,Obsidian_rect,5,1.677,1,3,0,3,0,1,,,,,,,,,,,,,
665747ab06294778387cd708,SCR,2024-06-20_16h27.33.738,LearnStrategy,2023.2.3,Win32,59.17159763,1,1,5,-0.528703704,0.082407407,1,0,0,2.5982,Basalt_11,2,11,4,1,2.598,2,11,-0.122222222,-0.259259259,1,0,0,3.5767,Basalt_rect,2,3.577,1,4,0,4,0,1,,,,,,,,,,,,,
665747ab06294778387cd708,SCR,2024-06-20_16h27.33.738,LearnStrategy,2023.2.3,Win32,59.17159763,1,1,6,-0.049074074,-0.286111111,1,0,0,1.8968,Obsidian_06,5,06,2,4,1.897,5,06,0.094444444,-0.416666667,1,0,0,3.0932,Peridotite_rect,7,3.093,0,5,0,5,0,1,,,,,,,,,,,,,
665747ab06294778387cd708,SCR,2024-06-20_16h27.33.738,LearnStrategy,2023.2.3,Win32,59.17159763,1,1,7,-0.410185185,0.275,1,0,0,0.8978,Basalt_12,2,12,5,2,0.898,2,12,0.09537037,-0.246296296,1,0,0,3.1765,Diorite_rect,3,3.177,0,6,0,6,0,1,,,,,,,,,,,,,
665747ab06294778387cd708,SCR,2024-06-20_16h27.33.738,LearnStrategy,2023.2.3,Win32,59.17159763,1,1,8,-0.050925926,0.088888889,1,0,0,0.7108,Peridotite_06,7,06,4,4,0.711,7,06,0.423148148,-0.402777778,1,0,0,1.7745,Pumice_rect,8,1.774,0,7,0,7,0,1,,,,,,,,,,,,,
665747ab06294778387cd708,SCR,2024-06-20_16h27.33.738,LearnStrategy,2023.2.3,Win32,59.17159763,1,1,9,0.199074074,-0.075925926,1,0,0,0.6986,Diorite_15,3,15,3,6,0.699,3,15,-0.348148148,-0.239814815,1,0,0,1.9592,Andesite_rect,1,1.959,0,8,0,8,0,1,,,,,,,,,,,,,
665747ab06294778387cd708,SCR,2024-06-20_16h27.33.738,LearnStrategy,2023.2.3,Win32,59.17159763,1,1,10,0.539814815,0.096296296,1,0,0,0.7656,Diorite_12,3,12,4,8,0.766,3,12,0.128703704,-0.238888889,1,0,0,1.0422,Diorite_rect,3,1.042,1,9,0,9,0,1,,,,,,,,,,,,,
665747ab06294778387cd708,SCR,2024-06-20_16h27.33.738,LearnStrategy,2023.2.3,Win32,59.17159763,1,1,11,-0.525,-0.098148148,1,0,0,0.7646,Gabbro_11,4,11,3,1,0.765,4,11,-0.106481481,-0.249074074,1,0,0,1.9437,Basalt_rect,2,1.944,0,10,0,10,0,1,,,,,,,,,,,,,
665747ab06294778387cd708,SCR,2024-06-20_16h27.33.738,LearnStrategy,2023.2.3,Win32,59.17159763,1,1,12,0.052777778,-0.277777778,1,0,0,0.6475,Peridotite_15,7,15,2,5,0.647,7,15,0.101851852,-0.242592593,1,0,0,1.2417,Diorite_rect,3,1.242,0,11,0,11,0,1,,,,,,,,,,,,,
665747ab06294778387cd708,SCR,2024-06-20_16h27.33.738,LearnStrategy,2023.2.3,Win32,59.17159763,1,1,13,0.589814815,0.265740741,1,0,0,1.0118,Pumice_16,8,16,5,8,1.012,8,16,0.377777778,-0.407407407,1,0,0,1.7936,Pumice_rect,8,1.794,1,12,0,12,0,1,,,,,,,,,,,,,
665747ab06294778387cd708,SCR,2024-06-20_16h27.33.738,LearnStrategy,2023.2.3,Win32,59.17159763,1,1,14,0.267592593,-0.388888889,1,0,0,0.8651,Pumice_10,8,10,1,6,0.865,8,10,-0.086111111,-0.259259259,1,0,0,1.3098,Basalt_rect,2,1.31,0,13,0,13,0,1,,,,,,,,,,,,,
665747ab06294778387cd708,SCR,2024-06-20_16h27.33.738,LearnStrategy,2023.2.3,Win32,59.17159763,1,1,15,0.105555556,0.247222222,1,0,0,0.7487,Andesite_04,1,04,5,5,0.749,1,04,-0.086111111,-0.244444444,1,0,0,1.3584,Basalt_rect,2,1.358,0,14,0,14,0,1,,,,,,,,,,,,,
665747ab06294778387cd708,SCR,2024-06-20_16h27.33.738,LearnStrategy,2023.2.3,Win32,59.17159763,1,1,16,-0.194444444,-0.399074074,1,0,0,0.9322,Pegmatite_12,6,12,1,3,0.932,6,12,0.122222222,-0.398148148,1,0,0,2.0934,Peridotite_rect,7,2.093,0,15,0,15,0,1,,,,,,,,,,,,,
665747ab06294778387cd708,SCR,2024-06-20_16h27.33.738,LearnStrategy,2023.2.3,Win32,59.17159763,1,2,1,,,,,,,,6,15,,,,,,,,,,,,,6,2.81,1,,,,,,-0.110185185,-0.40462963,1,0,0,2.8101,Pegmatite_rect,0,0,0,0,1,
665747ab06294778387cd708,SCR,2024-06-20_16h27.33.738,LearnStrategy,2023.2.3,Win32,59.17159763,1,2,2,,,,,,,,1,11,,,,,,,,,,,,,2,2.343,0,,,,,,-0.102777778,-0.244444444,1,0,0,2.3427,Basalt_rect,1,0,1,0,1,
665747ab06294778387cd708,SCR,2024-06-20_16h27.33.738,LearnStrategy,2023.2.3,Win32,59.17159763,1,2,3,,,,,,,,7,02,,,,,,,,,,,,,7,2.16,1,,,,,,0.12037037,-0.398148148,1,0,0,2.1598,Peridotite_rect,2,0,2,0,1,
665747ab06294778387cd708,SCR,2024-06-20_16h27.33.738,LearnStrategy,2023.2.3,Win32,59.17159763,1,2,4,,,,,,,,5,14,,,,,,,,,,,,,5,0.943,1,,,,,,-0.363888889,-0.39537037,1,0,0,0.9428,Obsidian_rect,3,0,3,0,1,
665747ab06294778387cd708,SCR,2024-06-20_16h27.33.738,LearnStrategy,2023.2.3,Win32,59.17159763,1,2,5,,,,,,,,7,10,,,,,,,,,,,,,4,3.31,0,,,,,,0.383333333,-0.251851852,1,0,0,3.3104,Gabbro_rect,4,0,4,0,1,
665747ab06294778387cd708,SCR,2024-06-20_16h27.33.738,LearnStrategy,2023.2.3,Win32,59.17159763,1,2,6,,,,,,,,2,04,,,,,,,,,,,,,6,4.71,0,,,,,,-0.098148148,-0.392592593,1,0,0,4.7101,Pegmatite_rect,5,0,5,0,1,
665747ab06294778387cd708,SCR,2024-06-20_16h27.33.738,LearnStrategy,2023.2.3,Win32,59.17159763,1,2,7,,,,,,,,8,04,,,,,,,,,,,,,4,3.21,0,,,,,,0.366666667,-0.231481481,1,0,0,3.2104,Gabbro_rect,6,0,6,0,1,
665747ab06294778387cd708,SCR,2024-06-20_16h27.33.738,LearnStrategy,2023.2.3,Win32,59.17159763,1,2,8,,,,,,,,1,09,,,,,,,,,,,,,2,1.158,0,,,,,,-0.090740741,-0.25,1,0,0,1.1582,Basalt_rect,7,0,7,0,1,
665747ab06294778387cd708,SCR,2024-06-20_16h27.33.738,LearnStrategy,2023.2.3,Win32,59.17159763,1,2,9,,,,,,,,4,09,,,,,,,,,,,,,3,1.327,0,,,,,,0.067592593,-0.24537037,1,0,0,1.3271,Diorite_rect,8,0,8,0,1,
665747ab06294778387cd708,SCR,2024-06-20_16h27.33.738,LearnStrategy,2023.2.3,Win32,59.17159763,1,2,10,,,,,,,,3,14,,,,,,,,,,,,,1,1.522,0,,,,,,-0.375,-0.243518519,1,0,0,1.522,Andesite_rect,9,0,9,0,1,
665747ab06294778387cd708,SCR,2024-06-20_16h27.33.738,LearnStrategy,2023.2.3,Win32,59.17159763,1,2,11,,,,,,,,4,16,,,,,,,,,,,,,4,3.027,1,,,,,,0.302777778,-0.230555556,1,0,0,3.0274,Gabbro_rect,10,0,10,0,1,
665747ab06294778387cd708,SCR,2024-06-20_16h27.33.738,LearnStrategy,2023.2.3,Win32,59.17159763,1,2,12,,,,,,,,6,06,,,,,,,,,,,,,8,3.804,0,,,,,,0.363888889,-0.384259259,1,0,0,3.8036,Pumice_rect,11,0,11,0,1,
665747ab06294778387cd708,SCR,2024-06-20_16h27.33.738,LearnStrategy,2023.2.3,Win32,59.17159763,1,2,13,,,,,,,,3,16,,,,,,,,,,,,,2,0.839,0,,,,,,-0.088888889,-0.25,1,0,0,0.8389,Basalt_rect,12,0,12,0,1,
665747ab06294778387cd708,SCR,2024-06-20_16h27.33.738,LearnStrategy,2023.2.3,Win32,59.17159763,1,2,14,,,,,,,,5,02,,,,,,,,,,,,,5,0.876,1,,,,,,-0.360185185,-0.37962963,1,0,0,0.8763,Obsidian_rect,13,0,13,0,1,
665747ab06294778387cd708,SCR,2024-06-20_16h27.33.738,LearnStrategy,2023.2.3,Win32,59.17159763,1,2,15,,,,,,,,2,09,,,,,,,,,,,,,3,1.059,0,,,,,,0.119444444,-0.244444444,1,0,0,1.0593,Diorite_rect,14,0,14,0,1,
665747ab06294778387cd708,SCR,2024-06-20_16h27.33.738,LearnStrategy,2023.2.3,Win32,59.17159763,1,2,16,,,,,,,,8,13,,,,,,,,,,,,,7,1.72,0,,,,,,0.108333333,-0.390740741,1,0,0,1.72,Peridotite_rect,15,0,15,0,1,
665747ab06294778387cd708,SCR,2024-06-20_16h27.33.738,LearnStrategy,2023.2.3,Win32,59.17159763,2,1,1,-0.061111111,-0.39537037,1,0,0,0.9097,Andesite_16,1,16,1,4,0.91,1,16,-0.05462963,-0.238888889,1,0,0,2.7763,Basalt_rect,2,2.776,0,0,0,0,0,1,,,,,,,,,,,,,
665747ab06294778387cd708,SCR,2024-06-20_16h27.33.738,LearnStrategy,2023.2.3,Win32,59.17159763,2,1,2,0.241666667,0.089814815,1,0,0,0.8111,Basalt_08,2,08,4,6,0.811,2,08,0.380555556,-0.400925926,1,0,0,2.4768,Pumice_rect,8,2.477,0,1,0,1,0,1,,,,,,,,,,,,,
665747ab06294778387cd708,SCR,2024-06-20_16h27.33.738,LearnStrategy,2023.2.3,Win32,59.17159763,2,1,3,0.215740741,-0.389814815,1,0,0,0.8317,Pumice_10,8,10,1,6,0.832,8,10,0.375,-0.240740741,1,0,0,2.2267,Gabbro_rect,4,2.227,0,2,0,2,0,1,,,,,,,,,,,,,
665747ab06294778387cd708,SCR,2024-06-20_16h27.33.738,LearnStrategy,2023.2.3,Win32,59.17159763,2,1,4,0.238888889,-0.107407407,1,0,0,0.8647,Diorite_15,3,15,3,6,0.865,3,15,0.112962963,-0.264814815,1,0,0,1.0603,Diorite_rect,3,1.06,1,3,0,3,0,1,,,,,,,,,,,,,
665747ab06294778387cd708,SCR,2024-06-20_16h27.33.738,LearnStrategy,2023.2.3,Win32,59.17159763,2,1,5,-0.216666667,-0.369444444,1,0,0,0.7971,Pegmatite_12,6,12,1,3,0.797,6,12,-0.35,-0.247222222,1,0,0,1.5601,Andesite_rect,1,1.56,0,4,0,4,0,1,,,,,,,,,,,,,
665747ab06294778387cd708,SCR,2024-06-20_16h27.33.738,LearnStrategy,2023.2.3,Win32,59.17159763,2,1,6,-0.212962963,-0.260185185,1,0,0,0.6306,Gabbro_03,4,03,2,3,0.631,4,03,-0.163888889,-0.242592593,1,0,0,0.7432,Basalt_rect,2,0.743,0,5,0,5,0,1,,,,,,,,,,,,,
665747ab06294778387cd708,SCR,2024-06-20_16h27.33.738,LearnStrategy,2023.2.3,Win32,59.17159763,2,1,7,0.261111111,0.400925926,1,0,0,0.9778,Pumice_09,8,09,6,6,0.978,8,09,0.365740741,-0.400925926,1,0,0,2.5091,Pumice_rect,8,2.509,1,6,0,6,0,1,,,,,,,,,,,,,
665747ab06294778387cd708,SCR,2024-06-20_16h27.33.738,LearnStrategy,2023.2.3,Win32,59.17159763,2,1,8,0.088888889,-0.089814815,1,0,0,0.6978,Diorite_09,3,09,3,5,0.698,3,09,-0.393518519,-0.252777778,1,0,0,1.2762,Andesite_rect,1,1.276,0,7,0,7,0,1,,,,,,,,,,,,,
665747ab06294778387cd708,SCR,2024-06-20_16h27.33.738,LearnStrategy,2023.2.3,Win32,59.17159763,2,1,9,0.247222222,-0.428703704,1,0,0,0.7655,Pumice_10,8,10,1,6,0.766,8,10,0.412037037,-0.414814815,1,0,0,0.8438,Pumice_rect,8,0.844,1,8,0,8,0,1,,,,,,,,,,,,,
665747ab06294778387cd708,SCR,2024-06-20_16h27.33.738,LearnStrategy,2023.2.3,Win32,59.17159763,2,1,10,0.133333333,-0.264814815,1,0,0,0.566,Peridotite_15,7,15,2,5,0.566,7,15,0.12037037,-0.412962963,1,0,0,1.593,Peridotite_rect,7,1.593,1,9,0,9,0,1,,,,,,,,,,,,,
665747ab06294778387cd708,SCR,2024-06-20_16h27.33.738,LearnStrategy,2023.2.3,Win32,59.17159763,2,1,11,0.575,-0.062037037,1,0,0,0.7321,Diorite_02,3,02,3,8,0.732,3,02,0.12037037,-0.405555556,1,0,0,0.7598,Peridotite_rect,7,0.76,0,10,0,10,0,1,,,,,,,,,,,,,
665747ab06294778387cd708,SCR,2024-06-20_16h27.33.738,LearnStrategy,2023.2.3,Win32,59.17159763,2,1,12,-0.028703704,0.235185185,1,0,0,0.912,Gabbro_05,4,05,5,4,0.912,4,05,0.04537037,-0.239814815,1,0,0,1.6099,Diorite_rect,3,1.61,0,11,0,11,0,1,,,,,,,,,,,,,
665747ab06294778387cd708,SCR,2024-06-20_16h27.33.738,LearnStrategy,2023.2.3,Win32,59.17159763,2,1,13,0.202777778,-0.237037037,1,0,0,0.7312,Andesite_03,1,03,2,6,0.731,1,03,-0.146296296,-0.255555556,1,0,0,1.3438,Basalt_rect,2,1.344,0,12,0,12,0,1,,,,,,,,,,,,,
665747ab06294778387cd708,SCR,2024-06-20_16h27.33.738,LearnStrategy,2023.2.3,Win32,59.17159763,2,1,14,0.562037037,-0.262037037,1,0,0,0.6988,Basalt_10,2,10,2,8,0.699,2,10,-0.119444444,-0.409259259,1,0,0,1.9596,Pegmatite_rect,6,1.96,0,13,0,13,0,1,,,,,,,,,,,,,
665747ab06294778387cd708,SCR,2024-06-20_16h27.33.738,LearnStrategy,2023.2.3,Win32,59.17159763,2,1,15,0.564814815,-0.238888889,1,0,0,0.6488,Basalt_10,2,10,2,8,0.649,2,10,-0.130555556,-0.235185185,1,0,0,1.1931,Basalt_rect,2,1.193,1,14,0,14,0,1,,,,,,,,,,,,,
665747ab06294778387cd708,SCR,2024-06-20_16h27.33.738,LearnStrategy,2023.2.3,Win32,59.17159763,2,1,16,0.261111111,-0.271296296,1,0,0,0.6984,Andesite_03,1,03,2,6,0.698,1,03,-0.10462963,-0.231481481,1,0,0,1.0094,Basalt_rect,2,1.009,0,15,0,15,0,1,,,,,,,,,,,,,
665747ab06294778387cd708,SCR,2024-06-20_16h27.33.738,LearnStrategy,2023.2.3,Win32,59.17159763,2,2,1,,,,,,,,6,03,,,,,,,,,,,,,8,2.969,0,,,,,,0.333333333,-0.388888889,1,0,0,2.9689,Pumice_rect,0,0,0,0,1,
665747ab06294778387cd708,SCR,2024-06-20_16h27.33.738,LearnStrategy,2023.2.3,Win32,59.17159763,2,2,2,,,,,,,,2,01,,,,,,,,,,,,,2,3.026,1,,,,,,-0.161111111,-0.243518519,1,0,0,3.0264,Basalt_rect,1,0,1,0,1,
665747ab06294778387cd708,SCR,2024-06-20_16h27.33.738,LearnStrategy,2023.2.3,Win32,59.17159763,2,2,3,,,,,,,,6,16,,,,,,,,,,,,,6,2.786,1,,,,,,-0.136111111,-0.419444444,1,0,0,2.7857,Pegmatite_rect,2,0,2,0,1,
665747ab06294778387cd708,SCR,2024-06-20_16h27.33.738,LearnStrategy,2023.2.3,Win32,59.17159763,2,2,4,,,,,,,,2,06,,,,,,,,,,,,,2,0.947,1,,,,,,-0.144444444,-0.249074074,1,0,0,0.9473,Basalt_rect,3,0,3,0,1,
665747ab06294778387cd708,SCR,2024-06-20_16h27.33.738,LearnStrategy,2023.2.3,Win32,59.17159763,2,2,5,,,,,,,,8,14,,,,,,,,,,,,,8,1.242,1,,,,,,0.441666667,-0.405555556,1,0,0,1.2424,Pumice_rect,4,0,4,0,1,
665747ab06294778387cd708,SCR,2024-06-20_16h27.33.738,LearnStrategy,2023.2.3,Win32,59.17159763,2,2,6,,,,,,,,4,14,,,,,,,,,,,,,3,1.207,0,,,,,,0.181481481,-0.267592593,1,0,0,1.2072,Diorite_rect,5,0,5,0,1,
665747ab06294778387cd708,SCR,2024-06-20_16h27.33.738,LearnStrategy,2023.2.3,Win32,59.17159763,2,2,7,,,,,,,,1,01,,,,,,,,,,,,,4,2.411,0,,,,,,0.332407407,-0.258333333,1,0,0,2.4106,Gabbro_rect,6,0,6,0,1,
665747ab06294778387cd708,SCR,2024-06-20_16h27.33.738,LearnStrategy,2023.2.3,Win32,59.17159763,2,2,8,,,,,,,,8,08,,,,,,,,,,,,,3,2.886,0,,,,,,0.127777778,-0.231481481,1,0,0,2.8862,Diorite_rect,7,0,7,0,1,
665747ab06294778387cd708,SCR,2024-06-20_16h27.33.738,LearnStrategy,2023.2.3,Win32,59.17159763,2,2,9,,,,,,,,5,04,,,,,,,,,,,,,5,0.867,1,,,,,,-0.413888889,-0.393518519,1,0,0,0.8671,Obsidian_rect,8,0,8,0,1,
665747ab06294778387cd708,SCR,2024-06-20_16h27.33.738,LearnStrategy,2023.2.3,Win32,59.17159763,2,2,10,,,,,,,,4,08,,,,,,,,,,,,,1,1.794,0,,,,,,-0.319444444,-0.261111111,1,0,0,1.7943,Andesite_rect,9,0,9,0,1,
665747ab06294778387cd708,SCR,2024-06-20_16h27.33.738,LearnStrategy,2023.2.3,Win32,59.17159763,2,2,11,,,,,,,,7,04,,,,,,,,,,,,,6,1.66,0,,,,,,-0.062962963,-0.407407407,1,0,0,1.6599,Pegmatite_rect,10,0,10,0,1,
665747ab06294778387cd708,SCR,2024-06-20_16h27.33.738,LearnStrategy,2023.2.3,Win32,59.17159763,2,2,12,,,,,,,,3,10,,,,,,,,,,,,,4,2.16,0,,,,,,0.325,-0.242592593,1,0,0,2.1602,Gabbro_rect,11,0,11,0,1,
665747ab06294778387cd708,SCR,2024-06-20_16h27.33.738,LearnStrategy,2023.2.3,Win32,59.17159763,2,2,13,,,,,,,,5,09,,,,,,,,,,,,,5,0.923,1,,,,,,-0.337037037,-0.398148148,1,0,0,0.9228,Obsidian_rect,12,0,12,0,1,
665747ab06294778387cd708,SCR,2024-06-20_16h27.33.738,LearnStrategy,2023.2.3,Win32,59.17159763,2,2,14,,,,,,,,1,06,,,,,,,,,,,,,3,0.96,0,,,,,,0.112037037,-0.260185185,1,0,0,0.9599,Diorite_rect,13,0,13,0,1,
665747ab06294778387cd708,SCR,2024-06-20_16h27.33.738,LearnStrategy,2023.2.3,Win32,59.17159763,2,2,15,,,,,,,,7,16,,,,,,,,,,,,,7,1.293,1,,,,,,0.092592593,-0.390740741,1,0,0,1.2934,Peridotite_rect,14,0,14,0,1,
665747ab06294778387cd708,SCR,2024-06-20_16h27.33.738,LearnStrategy,2023.2.3,Win32,59.17159763,2,2,16,,,,,,,,3,07,,,,,,,,,,,,,6,1.293,0,,,,,,-0.097222222,-0.389814815,1,0,0,1.2935,Pegmatite_rect,15,0,15,0,1,
665747ab06294778387cd708,SCR,2024-06-20_16h27.33.738,LearnStrategy,2023.2.3,Win32,59.17159763,3,1,1,0.09537037,0.435185185,1,0,0,0.8806,Pegmatite_09,6,09,6,5,0.881,6,09,-0.1,-0.389814815,1,0,0,1.5761,Pegmatite_rect,6,1.576,1,0,0,0,0,1,,,,,,,,,,,,,
665747ab06294778387cd708,SCR,2024-06-20_16h27.33.738,LearnStrategy,2023.2.3,Win32,59.17159763,3,1,2,-0.376851852,-0.24537037,1,0,0,0.9462,Andesite_02,1,02,2,2,0.946,1,02,-0.159259259,-0.27037037,1,0,0,0.8943,Basalt_rect,2,0.894,0,1,0,1,0,1,,,,,,,,,,,,,
665747ab06294778387cd708,SCR,2024-06-20_16h27.33.738,LearnStrategy,2023.2.3,Win32,59.17159763,3,1,3,0.524074074,0.402777778,1,0,0,0.8324,Gabbro_01,4,01,6,8,0.832,4,01,0.082407407,-0.24537037,1,0,0,1.0932,Diorite_rect,3,1.093,0,2,0,2,0,1,,,,,,,,,,,,,
665747ab06294778387cd708,SCR,2024-06-20_16h27.33.738,LearnStrategy,2023.2.3,Win32,59.17159763,3,1,4,-0.237037037,-0.250925926,1,0,0,0.5988,Gabbro_03,4,03,2,3,0.599,4,03,-0.175,-0.257407407,1,0,0,0.6278,Basalt_rect,2,0.628,0,3,0,3,0,1,,,,,,,,,,,,,
665747ab06294778387cd708,SCR,2024-06-20_16h27.33.738,LearnStrategy,2023.2.3,Win32,59.17159763,3,1,5,-0.547222222,-0.412037037,1,0,0,0.7777,Andesite_10,1,10,1,1,0.778,1,10,0.342592593,-0.242592593,1,0,0,1.0107,Gabbro_rect,4,1.011,0,4,0,4,0,1,,,,,,,,,,,,,
665747ab06294778387cd708,SCR,2024-06-20_16h27.33.738,LearnStrategy,2023.2.3,Win32,59.17159763,3,1,6,0.566666667,-0.103703704,1,0,0,1.1606,Diorite_02,3,02,3,8,1.161,3,02,0.118518519,-0.398148148,1,0,0,3.526,Peridotite_rect,7,3.526,0,5,0,5,0,1,,,,,,,,,,,,,
665747ab06294778387cd708,SCR,2024-06-20_16h27.33.738,LearnStrategy,2023.2.3,Win32,59.17159763,3,1,7,0.525925926,-0.264814815,1,0,0,0.7147,Basalt_10,2,10,2,8,0.715,2,10,-0.156481481,-0.250925926,1,0,0,1.1928,Basalt_rect,2,1.193,1,6,0,6,0,1,,,,,,,,,,,,,
665747ab06294778387cd708,SCR,2024-06-20_16h27.33.738,LearnStrategy,2023.2.3,Win32,59.17159763,3,1,8,0.375,-0.119444444,1,0,0,0.7494,Andesite_14,1,14,3,7,0.749,1,14,0.072222222,-0.407407407,1,0,0,1.4208,Peridotite_rect,7,1.421,0,7,0,7,0,1,,,,,,,,,,,,,
665747ab06294778387cd708,SCR,2024-06-20_16h27.33.738,LearnStrategy,2023.2.3,Win32,59.17159763,3,1,9,0.556481481,0.214814815,1,0,0,0.7325,Pumice_16,8,16,5,8,0.733,8,16,0.312962963,-0.400925926,1,0,0,0.9582,Pumice_rect,8,0.958,1,8,0,8,0,1,,,,,,,,,,,,,
665747ab06294778387cd708,SCR,2024-06-20_16h27.33.738,LearnStrategy,2023.2.3,Win32,59.17159763,3,1,10,-0.050925926,0.107407407,1,0,0,0.5825,Peridotite_06,7,06,4,4,0.583,7,06,0.069444444,-0.390740741,1,0,0,1.0241,Peridotite_rect,7,1.024,1,9,0,9,0,1,,,,,,,,,,,,,
665747ab06294778387cd708,SCR,2024-06-20_16h27.33.738,LearnStrategy,2023.2.3,Win32,59.17159763,3,1,11,0.373148148,-0.256481481,1,0,0,0.7386,Diorite_06,3,06,2,7,0.739,3,06,0.111111111,-0.24537037,1,0,0,2.2433,Diorite_rect,3,2.243,1,10,0,10,0,1,,,,,,,,,,,,,
665747ab06294778387cd708,SCR,2024-06-20_16h27.33.738,LearnStrategy,2023.2.3,Win32,59.17159763,3,1,12,0.538888889,0.075,1,0,0,0.6165,Diorite_12,3,12,4,8,0.617,3,12,0.372222222,-0.262962963,1,0,0,1.1527,Gabbro_rect,4,1.153,0,11,0,11,0,1,,,,,,,,,,,,,
665747ab06294778387cd708,SCR,2024-06-20_16h27.33.738,LearnStrategy,2023.2.3,Win32,59.17159763,3,1,13,0.087037037,-0.225925926,1,0,0,0.6152,Peridotite_15,7,15,2,5,0.615,7,15,0.092592593,-0.417592593,1,0,0,0.9435,Peridotite_rect,7,0.943,1,12,0,12,0,1,,,,,,,,,,,,,
665747ab06294778387cd708,SCR,2024-06-20_16h27.33.738,LearnStrategy,2023.2.3,Win32,59.17159763,3,1,14,0.256481481,0.264814815,1,0,0,0.5477,Gabbro_13,4,13,5,6,0.548,4,13,-0.064814815,-0.406481481,1,0,0,1.4252,Pegmatite_rect,6,1.425,0,13,0,13,0,1,,,,,,,,,,,,,
665747ab06294778387cd708,SCR,2024-06-20_16h27.33.738,LearnStrategy,2023.2.3,Win32,59.17159763,3,1,15,-0.042592593,-0.091666667,1,0,0,0.6817,Pegmatite_05,6,05,3,4,0.682,6,05,-0.324074074,-0.259259259,1,0,0,2.6096,Andesite_rect,1,2.61,0,14,0,14,0,1,,,,,,,,,,,,,
665747ab06294778387cd708,SCR,2024-06-20_16h27.33.738,LearnStrategy,2023.2.3,Win32,59.17159763,3,1,16,0.222222222,-0.381481481,1,0,0,0.7655,Pumice_10,8,10,1,6,0.765,8,10,0.402777778,-0.4,1,0,0,1.4452,Pumice_rect,8,1.445,1,15,0,15,0,1,,,,,,,,,,,,,
665747ab06294778387cd708,SCR,2024-06-20_16h27.33.738,LearnStrategy,2023.2.3,Win32,59.17159763,3,2,1,,,,,,,,1,05,,,,,,,,,,,,,6,1.711,0,,,,,,-0.071296296,-0.399074074,1,0,0,1.7107,Pegmatite_rect,0,0,0,0,1,
665747ab06294778387cd708,SCR,2024-06-20_16h27.33.738,LearnStrategy,2023.2.3,Win32,59.17159763,3,2,2,,,,,,,,1,07,,,,,,,,,,,,,4,1.844,0,,,,,,0.311111111,-0.250925926,1,0,0,1.8437,Gabbro_rect,1,0,1,0,1,
665747ab06294778387cd708,SCR,2024-06-20_16h27.33.738,LearnStrategy,2023.2.3,Win32,59.17159763,3,2,3,,,,,,,,7,12,,,,,,,,,,,,,7,1.437,1,,,,,,0.107407407,-0.390740741,1,0,0,1.4368,Peridotite_rect,2,0,2,0,1,
665747ab06294778387cd708,SCR,2024-06-20_16h27.33.738,LearnStrategy,2023.2.3,Win32,59.17159763,3,2,4,,,,,,,,3,13,,,,,,,,,,,,,6,2.66,0,,,,,,-0.094444444,-0.400925926,1,0,0,2.6601,Pegmatite_rect,3,0,3,0,1,
665747ab06294778387cd708,SCR,2024-06-20_16h27.33.738,LearnStrategy,2023.2.3,Win32,59.17159763,3,2,5,,,,,,,,5,07,,,,,,,,,,,,,5,1.043,1,,,,,,-0.335185185,-0.413888889,1,0,0,1.0425,Obsidian_rect,4,0,4,0,1,
665747ab06294778387cd708,SCR,2024-06-20_16h27.33.738,LearnStrategy,2023.2.3,Win32,59.17159763,3,2,6,,,,,,,,7,07,,,,,,,,,,,,,7,1.242,1,,,,,,0.086111111,-0.405555556,1,0,0,1.2422,Peridotite_rect,5,0,5,0,1,
665747ab06294778387cd708,SCR,2024-06-20_16h27.33.738,LearnStrategy,2023.2.3,Win32,59.17159763,3,2,7,,,,,,,,4,10,,,,,,,,,,,,,3,3.076,0,,,,,,0.193518519,-0.264814815,1,0,0,3.0758,Diorite_rect,6,0,6,0,1,
665747ab06294778387cd708,SCR,2024-06-20_16h27.33.738,LearnStrategy,2023.2.3,Win32,59.17159763,3,2,8,,,,,,,,3,11,,,,,,,,,,,,,4,2.037,0,,,,,,0.349074074,-0.243518519,1,0,0,2.0375,Gabbro_rect,7,0,7,0,1,
665747ab06294778387cd708,SCR,2024-06-20_16h27.33.738,LearnStrategy,2023.2.3,Win32,59.17159763,3,2,9,,,,,,,,6,11,,,,,,,,,,,,,5,1.467,0,,,,,,-0.325925926,-0.405555556,1,0,0,1.467,Obsidian_rect,8,0,8,0,1,
665747ab06294778387cd708,SCR,2024-06-20_16h27.33.738,LearnStrategy,2023.2.3,Win32,59.17159763,3,2,10,,,,,,,,8,15,,,,,,,,,,,,,8,1.492,1,,,,,,0.37037037,-0.390740741,1,0,0,1.4922,Pumice_rect,9,0,9,0,1,
665747ab06294778387cd708,SCR,2024-06-20_16h27.33.738,LearnStrategy,2023.2.3,Win32,59.17159763,3,2,11,,,,,,,,2,16,,,,,,,,,,,,,2,1.076,1,,,,,,-0.213888889,-0.253703704,1,0,0,1.0761,Basalt_rect,10,0,10,0,1,
665747ab06294778387cd708,SCR,2024-06-20_16h27.33.738,LearnStrategy,2023.2.3,Win32,59.17159763,3,2,12,,,,,,,,4,12,,,,,,,,,,,,,2,0.778,0,,,,,,-0.2,-0.25,1,0,0,0.7783,Basalt_rect,11,0,11,0,1,
665747ab06294778387cd708,SCR,2024-06-20_16h27.33.738,LearnStrategy,2023.2.3,Win32,59.17159763,3,2,13,,,,,,,,6,10,,,,,,,,,,,,,1,3.026,0,,,,,,-0.364814815,-0.255555556,1,0,0,3.0258,Andesite_rect,12,0,12,0,1,
665747ab06294778387cd708,SCR,2024-06-20_16h27.33.738,LearnStrategy,2023.2.3,Win32,59.17159763,3,2,14,,,,,,,,5,11,,,,,,,,,,,,,5,0.854,1,,,,,,-0.361111111,-0.400925926,1,0,0,0.8536,Obsidian_rect,13,0,13,0,1,
665747ab06294778387cd708,SCR,2024-06-20_16h27.33.738,LearnStrategy,2023.2.3,Win32,59.17159763,3,2,15,,,,,,,,2,02,,,,,,,,,,,,,4,1.694,0,,,,,,0.364814815,-0.250925926,1,0,0,1.6941,Gabbro_rect,14,0,14,0,1,
665747ab06294778387cd708,SCR,2024-06-20_16h27.33.738,LearnStrategy,2023.2.3,Win32,59.17159763,3,2,16,,,,,,,,8,05,,,,,,,,,,,,,8,0.776,1,,,,,,0.363888889,-0.403703704,1,0,0,0.7764,Pumice_rect,15,0,15,0,1,
665747ab06294778387cd708,SCR,2024-06-20_16h27.33.738,LearnStrategy,2023.2.3,Win32,59.17159763,4,1,1,-0.205555556,0.077777778,1,0,0,0.6142,Pumice_06,8,06,4,3,0.614,8,06,0.396296296,-0.412037037,1,0,0,1.2578,Pumice_rect,8,1.258,1,0,0,0,0,1,,,,,,,,,,,,,
665747ab06294778387cd708,SCR,2024-06-20_16h27.33.738,LearnStrategy,2023.2.3,Win32,59.17159763,4,1,2,0.531481481,-0.248148148,1,0,0,0.6324,Basalt_10,2,10,2,8,0.632,2,10,-0.04537037,-0.25,1,0,0,1.3265,Basalt_rect,2,1.327,1,1,0,1,0,1,,,,,,,,,,,,,
665747ab06294778387cd708,SCR,2024-06-20_16h27.33.738,LearnStrategy,2023.2.3,Win32,59.17159763,4,1,3,-0.5,-0.122222222,1,0,0,0.9816,Gabbro_11,4,11,3,1,0.982,4,11,0.111111111,-0.253703704,1,0,0,1.9434,Diorite_rect,3,1.943,0,2,0,2,0,1,,,,,,,,,,,,,
665747ab06294778387cd708,SCR,2024-06-20_16h27.33.738,LearnStrategy,2023.2.3,Win32,59.17159763,4,1,4,0.209259259,0.100925926,1,0,0,0.4983,Basalt_08,2,08,4,6,0.498,2,08,-0.090740741,-0.248148148,1,0,0,1.4428,Basalt_rect,2,1.443,1,3,0,3,0,1,,,,,,,,,,,,,
665747ab06294778387cd708,SCR,2024-06-20_16h27.33.738,LearnStrategy,2023.2.3,Win32,59.17159763,4,1,5,0.572222222,0.382407407,1,0,0,0.7324,Gabbro_01,4,01,6,8,0.732,4,01,0.322222222,-0.249074074,1,0,0,0.8087,Gabbro_rect,4,0.809,1,4,0,4,0,1,,,,,,,,,,,,,
665747ab06294778387cd708,SCR,2024-06-20_16h27.33.738,LearnStrategy,2023.2.3,Win32,59.17159763,4,1,6,0.208333333,-0.214814815,1,0,0,0.7333,Andesite_03,1,03,2,6,0.733,1,03,0.134259259,-0.261111111,1,0,0,1.3022,Diorite_rect,3,1.302,0,5,0,5,0,1,,,,,,,,,,,,,
665747ab06294778387cd708,SCR,2024-06-20_16h27.33.738,LearnStrategy,2023.2.3,Win32,59.17159763,4,1,7,0.075,-0.089814815,1,0,0,0.9627,Diorite_09,3,09,3,5,0.963,3,09,-0.332407407,-0.244444444,1,0,0,1.3436,Andesite_rect,1,1.344,0,6,0,6,0,1,,,,,,,,,,,,,
665747ab06294778387cd708,SCR,2024-06-20_16h27.33.738,LearnStrategy,2023.2.3,Win32,59.17159763,4,1,8,-0.080555556,0.265740741,1,0,0,0.5156,Gabbro_05,4,05,5,4,0.516,4,05,-0.075925926,-0.412037037,1,0,0,1.5267,Pegmatite_rect,6,1.527,0,7,0,7,0,1,,,,,,,,,,,,,
665747ab06294778387cd708,SCR,2024-06-20_16h27.33.738,LearnStrategy,2023.2.3,Win32,59.17159763,4,1,9,0.212037037,-0.224074074,1,0,0,0.5982,Andesite_03,1,03,2,6,0.598,1,03,-0.308333333,-0.250925926,1,0,0,1.4097,Andesite_rect,1,1.41,1,8,0,8,0,1,,,,,,,,,,,,,
665747ab06294778387cd708,SCR,2024-06-20_16h27.33.738,LearnStrategy,2023.2.3,Win32,59.17159763,4,1,10,0.063888889,0.09537037,1,0,0,0.5153,Diorite_08,3,08,4,5,0.515,3,08,0.325,-0.242592593,1,0,0,1.4434,Gabbro_rect,4,1.443,0,9,0,9,0,1,,,,,,,,,,,,,
665747ab06294778387cd708,SCR,2024-06-20_16h27.33.738,LearnStrategy,2023.2.3,Win32,59.17159763,4,1,11,0.07962963,-0.201851852,1,0,0,0.6489,Peridotite_15,7,15,2,5,0.649,7,15,0.111111111,-0.236111111,1,0,0,0.5768,Diorite_rect,3,0.577,0,10,0,10,0,1,,,,,,,,,,,,,
665747ab06294778387cd708,SCR,2024-06-20_16h27.33.738,LearnStrategy,2023.2.3,Win32,59.17159763,4,1,12,-0.072222222,-0.439814815,1,0,0,0.7646,Andesite_16,1,16,1,4,0.765,1,16,0.097222222,-0.264814815,1,0,0,1.5436,Diorite_rect,3,1.544,0,11,0,11,0,1,,,,,,,,,,,,,
665747ab06294778387cd708,SCR,2024-06-20_16h27.33.738,LearnStrategy,2023.2.3,Win32,59.17159763,4,1,13,-0.07962963,-0.148148148,1,0,0,0.5157,Pegmatite_05,6,05,3,4,0.516,6,05,-0.322222222,-0.391666667,1,0,0,1.3596,Obsidian_rect,5,1.36,0,12,0,12,0,1,,,,,,,,,,,,,
665747ab06294778387cd708,SCR,2024-06-20_16h27.33.738,LearnStrategy,2023.2.3,Win32,59.17159763,4,1,14,0.517592593,-0.069444444,1,0,0,0.5991,Diorite_02,3,02,3,8,0.599,3,02,0.055555556,-0.389814815,1,0,0,1.4938,Peridotite_rect,7,1.494,0,13,0,13,0,1,,,,,,,,,,,,,
665747ab06294778387cd708,SCR,2024-06-20_16h27.33.738,LearnStrategy,2023.2.3,Win32,59.17159763,4,1,15,0.051851852,0.375925926,1,0,0,0.6657,Pegmatite_09,6,09,6,5,0.666,6,09,0.119444444,-0.389814815,1,0,0,1.2771,Peridotite_rect,7,1.277,0,14,0,14,0,1,,,,,,,,,,,,,
665747ab06294778387cd708,SCR,2024-06-20_16h27.33.738,LearnStrategy,2023.2.3,Win32,59.17159763,4,1,16,-0.497222222,-0.250925926,1,0,0,0.8992,Pegmatite_07,6,07,2,1,0.899,6,07,-0.373148148,-0.378703704,1,0,0,1.3102,Obsidian_rect,5,1.31,0,15,0,15,0,1,,,,,,,,,,,,,
665747ab06294778387cd708,SCR,2024-06-20_16h27.33.738,LearnStrategy,2023.2.3,Win32,59.17159763,4,2,1,,,,,,,,6,15,,,,,,,,,,,,,6,1.218,1,,,,,,-0.087037037,-0.396296296,1,0,0,1.2178,Pegmatite_rect,0,0,0,0,1,
665747ab06294778387cd708,SCR,2024-06-20_16h27.33.738,LearnStrategy,2023.2.3,Win32,59.17159763,4,2,2,,,,,,,,7,16,,,,,,,,,,,,,6,1.542,0,,,,,,-0.118518519,-0.389814815,1,0,0,1.542,Pegmatite_rect,1,0,1,0,1,
665747ab06294778387cd708,SCR,2024-06-20_16h27.33.738,LearnStrategy,2023.2.3,Win32,59.17159763,4,2,3,,,,,,,,3,11,,,,,,,,,,,,,3,3.978,1,,,,,,0.125,-0.252777778,1,0,0,3.9776,Diorite_rect,2,0,2,0,1,
665747ab06294778387cd708,SCR,2024-06-20_16h27.33.738,LearnStrategy,2023.2.3,Win32,59.17159763,4,2,4,,,,,,,,8,05,,,,,,,,,,,,,8,1.12,1,,,,,,0.338888889,-0.400925926,1,0,0,1.1201,Pumice_rect,3,0,3,0,1,
665747ab06294778387cd708,SCR,2024-06-20_16h27.33.738,LearnStrategy,2023.2.3,Win32,59.17159763,4,2,5,,,,,,,,2,04,,,,,,,,,,,,,2,1.009,1,,,,,,-0.075,-0.262962963,1,0,0,1.0093,Basalt_rect,4,0,4,0,1,
665747ab06294778387cd708,SCR,2024-06-20_16h27.33.738,LearnStrategy,2023.2.3,Win32,59.17159763,4,2,6,,,,,,,,1,05,,,,,,,,,,,,,1,1.377,1,,,,,,-0.336111111,-0.246296296,1,0,0,1.3772,Andesite_rect,5,0,5,0,1,
665747ab06294778387cd708,SCR,2024-06-20_16h27.33.738,LearnStrategy,2023.2.3,Win32,59.17159763,4,2,7,,,,,,,,8,15,,,,,,,,,,,,,8,1.311,1,,,,,,0.430555556,-0.406481481,1,0,0,1.3109,Pumice_rect,6,0,6,0,1,
665747ab06294778387cd708,SCR,2024-06-20_16h27.33.738,LearnStrategy,2023.2.3,Win32,59.17159763,4,2,8,,,,,,,,3,13,,,,,,,,,,,,,7,2.476,0,,,,,,0.108333333,-0.397222222,1,0,0,2.4763,Peridotite_rect,7,0,7,0,1,
665747ab06294778387cd708,SCR,2024-06-20_16h27.33.738,LearnStrategy,2023.2.3,Win32,59.17159763,4,2,9,,,,,,,,4,10,,,,,,,,,,,,,3,2.91,0,,,,,,0.177777778,-0.249074074,1,0,0,2.9103,Diorite_rect,8,0,8,0,1,
665747ab06294778387cd708,SCR,2024-06-20_16h27.33.738,LearnStrategy,2023.2.3,Win32,59.17159763,4,2,10,,,,,,,,7,10,,,,,,,,,,,,,7,1.853,1,,,,,,0.061111111,-0.393518519,1,0,0,1.8526,Peridotite_rect,9,0,9,0,1,
665747ab06294778387cd708,SCR,2024-06-20_16h27.33.738,LearnStrategy,2023.2.3,Win32,59.17159763,4,2,11,,,,,,,,6,16,,,,,,,,,,,,,4,1.693,0,,,,,,0.366666667,-0.259259259,1,0,0,1.6934,Gabbro_rect,10,0,10,0,1,
665747ab06294778387cd708,SCR,2024-06-20_16h27.33.738,LearnStrategy,2023.2.3,Win32,59.17159763,4,2,12,,,,,,,,1,07,,,,,,,,,,,,,1,1.477,1,,,,,,-0.383333333,-0.27037037,1,0,0,1.4773,Andesite_rect,11,0,11,0,1,
665747ab06294778387cd708,SCR,2024-06-20_16h27.33.738,LearnStrategy,2023.2.3,Win32,59.17159763,4,2,13,,,,,,,,5,04,,,,,,,,,,,,,5,0.853,1,,,,,,-0.346296296,-0.415740741,1,0,0,0.8535,Obsidian_rect,12,0,12,0,1,
665747ab06294778387cd708,SCR,2024-06-20_16h27.33.738,LearnStrategy,2023.2.3,Win32,59.17159763,4,2,14,,,,,,,,5,02,,,,,,,,,,,,,5,0.755,1,,,,,,-0.351851852,-0.4,1,0,0,0.7548,Obsidian_rect,13,0,13,0,1,
665747ab06294778387cd708,SCR,2024-06-20_16h27.33.738,LearnStrategy,2023.2.3,Win32,59.17159763,4,2,15,,,,,,,,2,16,,,,,,,,,,,,,6,2.727,0,,,,,,-0.107407407,-0.416666667,1,0,0,2.7274,Pegmatite_rect,14,0,14,0,1,
665747ab06294778387cd708,SCR,2024-06-20_16h27.33.738,LearnStrategy,2023.2.3,Win32,59.17159763,4,2,16,,,,,,,,4,14,,,,,,,,,,,,,4,1.224,1,,,,,,0.386111111,-0.269444444,1,0,0,1.2239,Gabbro_rect,15,0,15,0,1,
665747ab06294778387cd708,SCR,2024-06-20_16h27.33.738,LearnStrategy,2023.2.3,Win32,59.17159763,5,1,1,0.530555556,-0.076851852,1,0,0,0.748,Diorite_02,3,02,3,8,0.748,3,02,0.109259259,-0.256481481,1,0,0,1.323,Diorite_rect,3,1.323,1,0,0,0,0,1,,,,,,,,,,,,,
665747ab06294778387cd708,SCR,2024-06-20_16h27.33.738,LearnStrategy,2023.2.3,Win32,59.17159763,5,1,2,-0.52037037,-0.405555556,1,0,0,1.2637,Andesite_10,1,10,1,1,1.264,1,10,0.348148148,-0.266666667,1,0,0,2.5598,Gabbro_rect,4,2.56,0,1,0,1,0,1,,,,,,,,,,,,,
665747ab06294778387cd708,SCR,2024-06-20_16h27.33.738,LearnStrategy,2023.2.3,Win32,59.17159763,5,1,3,0.411111111,-0.267592593,1,0,0,0.6475,Diorite_06,3,06,2,7,0.648,3,06,-0.169444444,-0.398148148,1,0,0,1.2097,Pegmatite_rect,6,1.21,0,2,0,2,0,1,,,,,,,,,,,,,
665747ab06294778387cd708,SCR,2024-06-20_16h27.33.738,LearnStrategy,2023.2.3,Win32,59.17159763,5,1,4,-0.111111111,-0.377777778,1,0,0,0.7489,Andesite_16,1,16,1,4,0.749,1,16,-0.389814815,-0.267592593,1,0,0,0.8096,Andesite_rect,1,0.81,1,3,0,3,0,1,,,,,,,,,,,,,
665747ab06294778387cd708,SCR,2024-06-20_16h27.33.738,LearnStrategy,2023.2.3,Win32,59.17159763,5,1,5,-0.366666667,0.22962963,1,0,0,0.7485,Basalt_12,2,12,5,2,0.749,2,12,0.211111111,-0.253703704,1,0,0,1.8093,Diorite_rect,3,1.809,0,4,0,4,0,1,,,,,,,,,,,,,
665747ab06294778387cd708,SCR,2024-06-20_16h27.33.738,LearnStrategy,2023.2.3,Win32,59.17159763,5,1,6,-0.076851852,-0.112037037,1,0,0,0.732,Pegmatite_05,6,05,3,4,0.732,6,05,0.335185185,-0.262962963,1,0,0,1.2269,Gabbro_rect,4,1.227,0,5,0,5,0,1,,,,,,,,,,,,,
665747ab06294778387cd708,SCR,2024-06-20_16h27.33.738,LearnStrategy,2023.2.3,Win32,59.17159763,5,1,7,0.556481481,0.399074074,1,0,0,0.8988,Gabbro_01,4,01,6,8,0.899,4,01,-0.319444444,-0.25,1,0,0,1.9242,Andesite_rect,1,1.924,0,6,0,6,0,1,,,,,,,,,,,,,
665747ab06294778387cd708,SCR,2024-06-20_16h27.33.738,LearnStrategy,2023.2.3,Win32,59.17159763,5,1,8,-0.237037037,0.365740741,1,0,0,0.6977,Peridotite_05,7,05,6,3,0.698,7,05,0.162962963,-0.263888889,1,0,0,1.4431,Diorite_rect,3,1.443,0,7,0,7,0,1,,,,,,,,,,,,,
665747ab06294778387cd708,SCR,2024-06-20_16h27.33.738,LearnStrategy,2023.2.3,Win32,59.17159763,5,1,9,-0.122222222,0.090740741,1,0,0,0.5971,Peridotite_06,7,06,4,4,0.597,7,06,0.076851852,-0.387962963,1,0,0,1.627,Peridotite_rect,7,1.627,1,8,0,8,0,1,,,,,,,,,,,,,
665747ab06294778387cd708,SCR,2024-06-20_16h27.33.738,LearnStrategy,2023.2.3,Win32,59.17159763,5,1,10,-0.402777778,-0.4,1,0,0,0.6976,Pumice_03,8,03,1,2,0.698,8,03,0.388888889,-0.412962963,1,0,0,1.0439,Pumice_rect,8,1.044,1,9,0,9,0,1,,,,,,,,,,,,,
665747ab06294778387cd708,SCR,2024-06-20_16h27.33.738,LearnStrategy,2023.2.3,Win32,59.17159763,5,1,11,-0.199074074,0.257407407,1,0,0,0.5152,Gabbro_15,4,15,5,3,0.515,4,15,0.383333333,-0.240740741,1,0,0,1.2266,Gabbro_rect,4,1.227,1,10,0,10,0,1,,,,,,,,,,,,,
665747ab06294778387cd708,SCR,2024-06-20_16h27.33.738,LearnStrategy,2023.2.3,Win32,59.17159763,5,1,12,-0.394444444,-0.073148148,1,0,0,0.6315,Pegmatite_13,6,13,3,2,0.631,6,13,-0.097222222,-0.409259259,1,0,0,2.4255,Pegmatite_rect,6,2.426,1,11,0,11,0,1,,,,,,,,,,,,,
665747ab06294778387cd708,SCR,2024-06-20_16h27.33.738,LearnStrategy,2023.2.3,Win32,59.17159763,5,1,13,-0.522222222,-0.090740741,1,0,0,0.7319,Gabbro_11,4,11,3,1,0.732,4,11,-0.172222222,-0.252777778,1,0,0,2.0435,Basalt_rect,2,2.043,0,12,0,12,0,1,,,,,,,,,,,,,
665747ab06294778387cd708,SCR,2024-06-20_16h27.33.738,LearnStrategy,2023.2.3,Win32,59.17159763,5,1,14,0.5,-0.247222222,1,0,0,0.716,Basalt_10,2,10,2,8,0.716,2,10,-0.138888889,-0.259259259,1,0,0,0.9096,Basalt_rect,2,0.91,1,13,0,13,0,1,,,,,,,,,,,,,
665747ab06294778387cd708,SCR,2024-06-20_16h27.33.738,LearnStrategy,2023.2.3,Win32,59.17159763,5,1,15,0.067592593,0.087037037,1,0,0,0.4654,Diorite_08,3,08,4,5,0.465,3,08,0.344444444,-0.250925926,1,0,0,1.1605,Gabbro_rect,4,1.161,0,14,0,14,0,1,,,,,,,,,,,,,
665747ab06294778387cd708,SCR,2024-06-20_16h27.33.738,LearnStrategy,2023.2.3,Win32,59.17159763,5,1,16,-0.37037037,-0.096296296,1,0,0,0.5799,Pegmatite_13,6,13,3,2,0.58,6,13,-0.097222222,-0.398148148,1,0,0,1.3235,Pegmatite_rect,6,1.323,1,15,0,15,0,1,,,,,,,,,,,,,
665747ab06294778387cd708,SCR,2024-06-20_16h27.33.738,LearnStrategy,2023.2.3,Win32,59.17159763,5,2,1,,,,,,,,1,09,,,,,,,,,,,,,2,1.56,0,,,,,,-0.127777778,-0.250925926,1,0,0,1.5604,Basalt_rect,0,0,0,0,1,
665747ab06294778387cd708,SCR,2024-06-20_16h27.33.738,LearnStrategy,2023.2.3,Win32,59.17159763,5,2,2,,,,,,,,3,14,,,,,,,,,,,,,1,1.509,0,,,,,,-0.342592593,-0.247222222,1,0,0,1.5092,Andesite_rect,1,0,1,0,1,
665747ab06294778387cd708,SCR,2024-06-20_16h27.33.738,LearnStrategy,2023.2.3,Win32,59.17159763,5,2,3,,,,,,,,5,11,,,,,,,,,,,,,5,0.811,1,,,,,,-0.355555556,-0.388888889,1,0,0,0.8106,Obsidian_rect,2,0,2,0,1,
665747ab06294778387cd708,SCR,2024-06-20_16h27.33.738,LearnStrategy,2023.2.3,Win32,59.17159763,5,2,4,,,,,,,,4,16,,,,,,,,,,,,,3,4.36,0,,,,,,0.115740741,-0.25462963,1,0,0,4.3602,Diorite_rect,3,0,3,0,1,
665747ab06294778387cd708,SCR,2024-06-20_16h27.33.738,LearnStrategy,2023.2.3,Win32,59.17159763,5,2,5,,,,,,,,7,12,,,,,,,,,,,,,6,3.587,0,,,,,,-0.115740741,-0.412037037,1,0,0,3.5873,Pegmatite_rect,4,0,4,0,1,
665747ab06294778387cd708,SCR,2024-06-20_16h27.33.738,LearnStrategy,2023.2.3,Win32,59.17159763,5,2,6,,,,,,,,6,10,,,,,,,,,,,,,7,2.33,0,,,,,,0.108333333,-0.403703704,1,0,0,2.3302,Peridotite_rect,5,0,5,0,1,
665747ab06294778387cd708,SCR,2024-06-20_16h27.33.738,LearnStrategy,2023.2.3,Win32,59.17159763,5,2,7,,,,,,,,2,01,,,,,,,,,,,,,2,1.137,1,,,,,,-0.093518519,-0.25,1,0,0,1.137,Basalt_rect,6,0,6,0,1,
665747ab06294778387cd708,SCR,2024-06-20_16h27.33.738,LearnStrategy,2023.2.3,Win32,59.17159763,5,2,8,,,,,,,,5,07,,,,,,,,,,,,,5,1.311,1,,,,,,-0.37037037,-0.406481481,1,0,0,1.3105,Obsidian_rect,7,0,7,0,1,
665747ab06294778387cd708,SCR,2024-06-20_16h27.33.738,LearnStrategy,2023.2.3,Win32,59.17159763,5,2,9,,,,,,,,7,02,,,,,,,,,,,,,4,1.344,0,,,,,,0.378703704,-0.256481481,1,0,0,1.3438,Gabbro_rect,8,0,8,0,1,
665747ab06294778387cd708,SCR,2024-06-20_16h27.33.738,LearnStrategy,2023.2.3,Win32,59.17159763,5,2,10,,,,,,,,6,06,,,,,,,,,,,,,1,2.403,0,,,,,,-0.427777778,-0.262962963,1,0,0,2.4034,Andesite_rect,9,0,9,0,1,
665747ab06294778387cd708,SCR,2024-06-20_16h27.33.738,LearnStrategy,2023.2.3,Win32,59.17159763,5,2,11,,,,,,,,1,01,,,,,,,,,,,,,3,1.57,0,,,,,,0.15462963,-0.25462963,1,0,0,1.5696,Diorite_rect,10,0,10,0,1,
665747ab06294778387cd708,SCR,2024-06-20_16h27.33.738,LearnStrategy,2023.2.3,Win32,59.17159763,5,2,12,,,,,,,,3,10,,,,,,,,,,,,,4,1.394,0,,,,,,0.355555556,-0.263888889,1,0,0,1.3936,Gabbro_rect,11,0,11,0,1,
665747ab06294778387cd708,SCR,2024-06-20_16h27.33.738,LearnStrategy,2023.2.3,Win32,59.17159763,5,2,13,,,,,,,,8,13,,,,,,,,,,,,,8,0.821,1,,,,,,0.368518519,-0.389814815,1,0,0,0.821,Pumice_rect,12,0,12,0,1,
665747ab06294778387cd708,SCR,2024-06-20_16h27.33.738,LearnStrategy,2023.2.3,Win32,59.17159763,5,2,14,,,,,,,,8,04,,,,,,,,,,,,,8,0.571,1,,,,,,0.363888889,-0.39537037,1,0,0,0.5714,Pumice_rect,13,0,13,0,1,
665747ab06294778387cd708,SCR,2024-06-20_16h27.33.738,LearnStrategy,2023.2.3,Win32,59.17159763,5,2,15,,,,,,,,4,09,,,,,,,,,,,,,2,2.694,0,,,,,,-0.117592593,-0.243518519,1,0,0,2.6936,Basalt_rect,14,0,14,0,1,
665747ab06294778387cd708,SCR,2024-06-20_16h27.33.738,LearnStrategy,2023.2.3,Win32,59.17159763,5,2,16,,,,,,,,2,02,,,,,,,,,,,,,2,1.299,1,,,,,,-0.162962963,-0.234259259,1,0,0,1.2987,Basalt_rect,15,0,15,0,1,
665747ab06294778387cd708,SCR,2024-06-20_16h27.33.738,LearnStrategy,2023.2.3,Win32,59.17159763,6,1,1,0.252777778,0.405555556,1,0,0,0.7973,Pumice_09,8,09,6,6,0.797,8,09,0.408333333,-0.406481481,1,0,0,0.9101,Pumice_rect,8,0.91,1,0,0,0,0,1,,,,,,,,,,,,,
665747ab06294778387cd708,SCR,2024-06-20_16h27.33.738,LearnStrategy,2023.2.3,Win32,59.17159763,6,1,2,0.052777778,0.22962963,1,0,0,0.6809,Andesite_04,1,04,5,5,0.681,1,04,-0.325,-0.251851852,1,0,0,3.8076,Andesite_rect,1,3.808,1,1,0,1,0,1,,,,,,,,,,,,,
665747ab06294778387cd708,SCR,2024-06-20_16h27.33.738,LearnStrategy,2023.2.3,Win32,59.17159763,6,1,3,-0.244444444,0.242592593,1,0,0,0.615,Gabbro_15,4,15,5,3,0.615,4,15,0.197222222,-0.248148148,1,0,0,1.7769,Diorite_rect,3,1.777,0,2,0,2,0,1,,,,,,,,,,,,,
665747ab06294778387cd708,SCR,2024-06-20_16h27.33.738,LearnStrategy,2023.2.3,Win32,59.17159763,6,1,4,0.183333333,-0.084259259,1,0,0,0.6661,Diorite_15,3,15,3,6,0.666,3,15,0.151851852,-0.248148148,1,0,0,1.7932,Diorite_rect,3,1.793,1,3,0,3,0,1,,,,,,,,,,,,,
665747ab06294778387cd708,SCR,2024-06-20_16h27.33.738,LearnStrategy,2023.2.3,Win32,59.17159763,6,1,5,0.037037037,-0.239814815,1,0,0,0.5823,Peridotite_15,7,15,2,5,0.582,7,15,-0.066666667,-0.400925926,1,0,0,2.0269,Pegmatite_rect,6,2.027,0,4,0,4,0,1,,,,,,,,,,,,,
665747ab06294778387cd708,SCR,2024-06-20_16h27.33.738,LearnStrategy,2023.2.3,Win32,59.17159763,6,1,6,-0.075925926,0.224074074,1,0,0,0.4824,Gabbro_05,4,05,5,4,0.482,4,05,-0.111111111,-0.407407407,1,0,0,2.793,Pegmatite_rect,6,2.793,0,5,0,5,0,1,,,,,,,,,,,,,
665747ab06294778387cd708,SCR,2024-06-20_16h27.33.738,LearnStrategy,2023.2.3,Win32,59.17159763,6,1,7,0.361111111,0.235185185,1,0,0,0.7649,Peridotite_08,7,08,5,7,0.765,7,08,0.349074074,-0.25,1,0,0,1.0427,Gabbro_rect,4,1.043,0,6,0,6,0,1,,,,,,,,,,,,,
665747ab06294778387cd708,SCR,2024-06-20_16h27.33.738,LearnStrategy,2023.2.3,Win32,59.17159763,6,1,8,0.521296296,0.094444444,1,0,0,0.5656,Diorite_12,3,12,4,8,0.566,3,12,0.073148148,-0.248148148,1,0,0,1.1763,Diorite_rect,3,1.176,1,7,0,7,0,1,,,,,,,,,,,,,
665747ab06294778387cd708,SCR,2024-06-20_16h27.33.738,LearnStrategy,2023.2.3,Win32,59.17159763,6,1,9,0.037037037,0.409259259,1,0,0,0.8156,Pegmatite_09,6,09,6,5,0.816,6,09,-0.067592593,-0.409259259,1,0,0,1.8265,Pegmatite_rect,6,1.827,1,8,0,8,0,1,,,,,,,,,,,,,
665747ab06294778387cd708,SCR,2024-06-20_16h27.33.738,LearnStrategy,2023.2.3,Win32,59.17159763,6,1,10,-0.365740741,-0.244444444,1,0,0,0.8821,Andesite_02,1,02,2,2,0.882,1,02,-0.380555556,-0.247222222,1,0,0,1.7755,Andesite_rect,1,1.775,1,9,0,9,0,1,,,,,,,,,,,,,
665747ab06294778387cd708,SCR,2024-06-20_16h27.33.738,LearnStrategy,2023.2.3,Win32,59.17159763,6,1,11,-0.530555556,-0.253703704,1,0,0,0.699,Pegmatite_07,6,07,2,1,0.699,6,07,-0.089814815,-0.412037037,1,0,0,2.0599,Pegmatite_rect,6,2.06,1,10,0,10,0,1,,,,,,,,,,,,,
665747ab06294778387cd708,SCR,2024-06-20_16h27.33.738,LearnStrategy,2023.2.3,Win32,59.17159763,6,1,12,-0.044444444,-0.388888889,1,0,0,0.7148,Andesite_16,1,16,1,4,0.715,1,16,-0.087962963,-0.249074074,1,0,0,0.8102,Basalt_rect,2,0.81,0,11,0,11,0,1,,,,,,,,,,,,,
665747ab06294778387cd708,SCR,2024-06-20_16h27.33.738,LearnStrategy,2023.2.3,Win32,59.17159763,6,1,13,-0.212962963,-0.259259259,1,0,0,0.5152,Gabbro_03,4,03,2,3,0.515,4,03,-0.138888889,-0.263888889,1,0,0,0.56,Basalt_rect,2,0.56,0,12,0,12,0,1,,,,,,,,,,,,,
665747ab06294778387cd708,SCR,2024-06-20_16h27.33.738,LearnStrategy,2023.2.3,Win32,59.17159763,6,1,14,-0.202777778,-0.396296296,1,0,0,0.5493,Pegmatite_12,6,12,1,3,0.549,6,12,0.308333333,-0.243518519,1,0,0,1.2434,Gabbro_rect,4,1.243,0,13,0,13,0,1,,,,,,,,,,,,,
665747ab06294778387cd708,SCR,2024-06-20_16h27.33.738,LearnStrategy,2023.2.3,Win32,59.17159763,6,1,15,0.086111111,-0.089814815,1,0,0,0.5653,Diorite_09,3,09,3,5,0.565,3,09,0.084259259,-0.243518519,1,0,0,1.3099,Diorite_rect,3,1.31,1,14,0,14,0,1,,,,,,,,,,,,,
665747ab06294778387cd708,SCR,2024-06-20_16h27.33.738,LearnStrategy,2023.2.3,Win32,59.17159763,6,1,16,0.362962963,-0.421296296,1,0,0,0.764,Basalt_14,2,14,1,7,0.764,2,14,-0.334259259,-0.25,1,0,0,2.9438,Andesite_rect,1,2.944,0,15,0,15,0,1,,,,,,,,,,,,,
665747ab06294778387cd708,SCR,2024-06-20_16h27.33.738,LearnStrategy,2023.2.3,Win32,59.17159763,6,2,1,,,,,,,,8,14,,,,,,,,,,,,,8,0.916,1,,,,,,0.415740741,-0.392592593,1,0,0,0.9163,Pumice_rect,0,0,0,0,1,
665747ab06294778387cd708,SCR,2024-06-20_16h27.33.738,LearnStrategy,2023.2.3,Win32,59.17159763,6,2,2,,,,,,,,5,09,,,,,,,,,,,,,5,0.737,1,,,,,,-0.366666667,-0.406481481,1,0,0,0.7367,Obsidian_rect,1,0,1,0,1,
665747ab06294778387cd708,SCR,2024-06-20_16h27.33.738,LearnStrategy,2023.2.3,Win32,59.17159763,6,2,3,,,,,,,,1,06,,,,,,,,,,,,,2,2.277,0,,,,,,-0.139814815,-0.256481481,1,0,0,2.277,Basalt_rect,2,0,2,0,1,
665747ab06294778387cd708,SCR,2024-06-20_16h27.33.738,LearnStrategy,2023.2.3,Win32,59.17159763,6,2,4,,,,,,,,6,11,,,,,,,,,,,,,6,2.977,1,,,,,,-0.087962963,-0.401851852,1,0,0,2.9767,Pegmatite_rect,3,0,3,0,1,
665747ab06294778387cd708,SCR,2024-06-20_16h27.33.738,LearnStrategy,2023.2.3,Win32,59.17159763,6,2,5,,,,,,,,7,04,,,,,,,,,,,,,4,2.281,0,,,,,,0.358333333,-0.249074074,1,0,0,2.2805,Gabbro_rect,4,0,4,0,1,
665747ab06294778387cd708,SCR,2024-06-20_16h27.33.738,LearnStrategy,2023.2.3,Win32,59.17159763,6,2,6,,,,,,,,1,11,,,,,,,,,,,,,1,1.109,1,,,,,,-0.361111111,-0.237962963,1,0,0,1.1088,Andesite_rect,5,0,5,0,1,
665747ab06294778387cd708,SCR,2024-06-20_16h27.33.738,LearnStrategy,2023.2.3,Win32,59.17159763,6,2,7,,,,,,,,5,14,,,,,,,,,,,,,5,0.844,1,,,,,,-0.322222222,-0.402777778,1,0,0,0.8441,Obsidian_rect,6,0,6,0,1,
665747ab06294778387cd708,SCR,2024-06-20_16h27.33.738,LearnStrategy,2023.2.3,Win32,59.17159763,6,2,8,,,,,,,,2,09,,,,,,,,,,,,,2,0.844,1,,,,,,-0.152777778,-0.230555556,1,0,0,0.8439,Basalt_rect,7,0,7,0,1,
665747ab06294778387cd708,SCR,2024-06-20_16h27.33.738,LearnStrategy,2023.2.3,Win32,59.17159763,6,2,9,,,,,,,,6,03,,,,,,,,,,,,,7,1.776,0,,,,,,0.050925926,-0.399074074,1,0,0,1.7763,Peridotite_rect,8,0,8,0,1,
665747ab06294778387cd708,SCR,2024-06-20_16h27.33.738,LearnStrategy,2023.2.3,Win32,59.17159763,6,2,10,,,,,,,,4,12,,,,,,,,,,,,,3,1.536,0,,,,,,0.092592593,-0.242592593,1,0,0,1.5363,Diorite_rect,9,0,9,0,1,
665747ab06294778387cd708,SCR,2024-06-20_16h27.33.738,LearnStrategy,2023.2.3,Win32,59.17159763,6,2,11,,,,,,,,3,16,,,,,,,,,,,,,3,1.626,1,,,,,,0.146296296,-0.250925926,1,0,0,1.6259,Diorite_rect,10,0,10,0,1,
665747ab06294778387cd708,SCR,2024-06-20_16h27.33.738,LearnStrategy,2023.2.3,Win32,59.17159763,6,2,12,,,,,,,,8,08,,,,,,,,,,,,,8,0.877,1,,,,,,0.376851852,-0.394444444,1,0,0,0.877,Pumice_rect,11,0,11,0,1,
665747ab06294778387cd708,SCR,2024-06-20_16h27.33.738,LearnStrategy,2023.2.3,Win32,59.17159763,6,2,13,,,,,,,,4,08,,,,,,,,,,,,,4,2.326,1,,,,,,0.436111111,-0.259259259,1,0,0,2.3263,Gabbro_rect,12,0,12,0,1,
665747ab06294778387cd708,SCR,2024-06-20_16h27.33.738,LearnStrategy,2023.2.3,Win32,59.17159763,6,2,14,,,,,,,,2,06,,,,,,,,,,,,,2,0.919,1,,,,,,-0.149074074,-0.257407407,1,0,0,0.9193,Basalt_rect,13,0,13,0,1,
665747ab06294778387cd708,SCR,2024-06-20_16h27.33.738,LearnStrategy,2023.2.3,Win32,59.17159763,6,2,15,,,,,,,,3,07,,,,,,,,,,,,,4,1.91,0,,,,,,0.381481481,-0.260185185,1,0,0,1.9099,Gabbro_rect,14,0,14,0,1,
665747ab06294778387cd708,SCR,2024-06-20_16h27.33.738,LearnStrategy,2023.2.3,Win32,59.17159763,6,2,16,,,,,,,,7,07,,,,,,,,,,,,,6,1.341,0,,,,,,-0.127777778,-0.401851852,1,0,0,1.341,Pegmatite_rect,15,0,15,0,1,
665747ab06294778387cd708,SCR,2024-06-20_16h27.33.738,LearnStrategy,2023.2.3,Win32,59.17159763,7,1,1,0.442592593,0.084259259,1,0,0,0.6984,Peridotite_13,7,13,4,7,0.698,7,13,-0.115740741,-0.410185185,1,0,0,2.5057,Pegmatite_rect,6,2.506,0,0,0,0,0,1,,,,,,,,,,,,,
665747ab06294778387cd708,SCR,2024-06-20_16h27.33.738,LearnStrategy,2023.2.3,Win32,59.17159763,7,1,2,0.216666667,-0.1,1,0,0,0.6821,Diorite_15,3,15,3,6,0.682,3,15,0.208333333,-0.259259259,1,0,0,3.1269,Diorite_rect,3,3.127,1,1,0,1,0,1,,,,,,,,,,,,,
665747ab06294778387cd708,SCR,2024-06-20_16h27.33.738,LearnStrategy,2023.2.3,Win32,59.17159763,7,1,3,-0.066666667,-0.092592593,1,0,0,0.6153,Pegmatite_05,6,05,3,4,0.615,6,05,-0.084259259,-0.401851852,1,0,0,1.2431,Pegmatite_rect,6,1.243,1,2,0,2,0,1,,,,,,,,,,,,,
665747ab06294778387cd708,SCR,2024-06-20_16h27.33.738,LearnStrategy,2023.2.3,Win32,59.17159763,7,1,4,-0.564814815,-0.09537037,1,0,0,0.7148,Gabbro_11,4,11,3,1,0.715,4,11,-0.069444444,-0.262962963,1,0,0,0.9931,Basalt_rect,2,0.993,0,3,0,3,0,1,,,,,,,,,,,,,
665747ab06294778387cd708,SCR,2024-06-20_16h27.33.738,LearnStrategy,2023.2.3,Win32,59.17159763,7,1,5,-0.511111111,-0.394444444,1,0,0,0.8488,Andesite_10,1,10,1,1,0.849,1,10,-0.119444444,-0.230555556,1,0,0,0.5938,Basalt_rect,2,0.594,0,4,0,4,0,1,,,,,,,,,,,,,
665747ab06294778387cd708,SCR,2024-06-20_16h27.33.738,LearnStrategy,2023.2.3,Win32,59.17159763,7,1,6,0.263888889,-0.275925926,1,0,0,0.7663,Andesite_03,1,03,2,6,0.766,1,03,-0.111111111,-0.24537037,1,0,0,1.0521,Basalt_rect,2,1.052,0,5,0,5,0,1,,,,,,,,,,,,,
665747ab06294778387cd708,SCR,2024-06-20_16h27.33.738,LearnStrategy,2023.2.3,Win32,59.17159763,7,1,7,-0.425,-0.102777778,1,0,0,0.666,Pegmatite_13,6,13,3,2,0.666,6,13,-0.091666667,-0.383333333,1,0,0,1.2266,Pegmatite_rect,6,1.227,1,6,0,6,0,1,,,,,,,,,,,,,
665747ab06294778387cd708,SCR,2024-06-20_16h27.33.738,LearnStrategy,2023.2.3,Win32,59.17159763,7,1,8,-0.230555556,-0.259259259,1,0,0,0.6651,Gabbro_03,4,03,2,3,0.665,4,03,-0.087962963,-0.265740741,1,0,0,0.9588,Basalt_rect,2,0.959,0,7,0,7,0,1,,,,,,,,,,,,,
665747ab06294778387cd708,SCR,2024-06-20_16h27.33.738,LearnStrategy,2023.2.3,Win32,59.17159763,7,1,9,-0.197222222,-0.275925926,1,0,0,0.5823,Gabbro_03,4,03,2,3,0.582,6,13,0.414814815,-0.24537037,1,0,0,1.4433,Gabbro_rect,4,1.443,1,8,0,8,0,1,,,,,,,,,,,,,
665747ab06294778387cd708,SCR,2024-06-20_16h27.33.738,LearnStrategy,2023.2.3,Win32,59.17159763,7,1,10,0.566666667,-0.081481481,1,0,0,1.0821,Diorite_02,3,02,3,8,1.082,3,02,0.332407407,-0.248148148,1,0,0,0.7272,Gabbro_rect,4,0.727,0,9,0,9,0,1,,,,,,,,,,,,,
665747ab06294778387cd708,SCR,2024-06-20_16h27.33.738,LearnStrategy,2023.2.3,Win32,59.17159763,7,1,11,0.064814815,-0.249074074,1,0,0,0.581,Peridotite_15,7,15,2,5,0.581,7,15,0.112037037,-0.242592593,1,0,0,0.5776,Diorite_rect,3,0.578,0,10,0,10,0,1,,,,,,,,,,,,,
665747ab06294778387cd708,SCR,2024-06-20_16h27.33.738,LearnStrategy,2023.2.3,Win32,59.17159763,7,1,12,0.234259259,-0.109259259,1,0,0,0.5486,Diorite_15,3,15,3,6,0.549,3,15,0.119444444,-0.234259259,1,0,0,2.3098,Diorite_rect,3,2.31,1,11,0,11,0,1,,,,,,,,,,,,,
665747ab06294778387cd708,SCR,2024-06-20_16h27.33.738,LearnStrategy,2023.2.3,Win32,59.17159763,7,1,13,0.447222222,0.271296296,1,0,0,0.6965,Peridotite_08,7,08,5,7,0.697,7,08,0.322222222,-0.237962963,1,0,0,1.7434,Gabbro_rect,4,1.743,0,12,0,12,0,1,,,,,,,,,,,,,
665747ab06294778387cd708,SCR,2024-06-20_16h27.33.738,LearnStrategy,2023.2.3,Win32,59.17159763,7,1,14,0.339814815,-0.37962963,1,0,0,0.8995,Basalt_14,2,14,1,7,0.899,2,14,-0.343518519,-0.249074074,1,0,0,2.9261,Andesite_rect,1,2.926,0,13,0,13,0,1,,,,,,,,,,,,,
665747ab06294778387cd708,SCR,2024-06-20_16h27.33.738,LearnStrategy,2023.2.3,Win32,59.17159763,7,1,15,0.186111111,0.22962963,1,0,0,0.5661,Gabbro_13,4,13,5,6,0.566,4,13,0.107407407,-0.259259259,1,0,0,2.5247,Diorite_rect,3,2.525,0,14,0,14,0,1,,,,,,,,,,,,,
665747ab06294778387cd708,SCR,2024-06-20_16h27.33.738,LearnStrategy,2023.2.3,Win32,59.17159763,7,1,16,0.234259259,0.384259259,1,0,0,0.7312,Pumice_09,8,09,6,6,0.731,8,09,0.339814815,-0.39537037,1,0,0,0.7586,Pumice_rect,8,0.759,1,15,0,15,0,1,,,,,,,,,,,,,
665747ab06294778387cd708,SCR,2024-06-20_16h27.33.738,LearnStrategy,2023.2.3,Win32,59.17159763,7,2,1,,,,,,,,6,15,,,,,,,,,,,,,7,2.793,0,,,,,,0.105555556,-0.406481481,1,0,0,2.7931,Peridotite_rect,0,0,0,0,1,
665747ab06294778387cd708,SCR,2024-06-20_16h27.33.738,LearnStrategy,2023.2.3,Win32,59.17159763,7,2,2,,,,,,,,1,07,,,,,,,,,,,,,1,3.769,1,,,,,,-0.411111111,-0.248148148,1,0,0,3.7689,Andesite_rect,1,0,1,0,1,
665747ab06294778387cd708,SCR,2024-06-20_16h27.33.738,LearnStrategy,2023.2.3,Win32,59.17159763,7,2,3,,,,,,,,2,06,,,,,,,,,,,,,2,1.037,1,,,,,,-0.084259259,-0.243518519,1,0,0,1.0365,Basalt_rect,2,0,2,0,1,
665747ab06294778387cd708,SCR,2024-06-20_16h27.33.738,LearnStrategy,2023.2.3,Win32,59.17159763,7,2,4,,,,,,,,6,16,,,,,,,,,,,,,6,2.26,1,,,,,,-0.090740741,-0.398148148,1,0,0,2.2598,Pegmatite_rect,3,0,3,0,1,
665747ab06294778387cd708,SCR,2024-06-20_16h27.33.738,LearnStrategy,2023.2.3,Win32,59.17159763,7,2,5,,,,,,,,1,05,,,,,,,,,,,,,3,2.81,0,,,,,,0.175,-0.259259259,1,0,0,2.8095,Diorite_rect,4,0,4,0,1,
665747ab06294778387cd708,SCR,2024-06-20_16h27.33.738,LearnStrategy,2023.2.3,Win32,59.17159763,7,2,6,,,,,,,,8,05,,,,,,,,,,,,,8,0.737,1,,,,,,0.293518519,-0.4,1,0,0,0.7374,Pumice_rect,5,0,5,0,1,
665747ab06294778387cd708,SCR,2024-06-20_16h27.33.738,LearnStrategy,2023.2.3,Win32,59.17159763,7,2,7,,,,,,,,3,10,,,,,,,,,,,,,3,2.476,1,,,,,,0.143518519,-0.244444444,1,0,0,2.4763,Diorite_rect,6,0,6,0,1,
665747ab06294778387cd708,SCR,2024-06-20_16h27.33.738,LearnStrategy,2023.2.3,Win32,59.17159763,7,2,8,,,,,,,,3,14,,,,,,,,,,,,,4,1.337,0,,,,,,0.335185185,-0.251851852,1,0,0,1.3369,Gabbro_rect,7,0,7,0,1,
665747ab06294778387cd708,SCR,2024-06-20_16h27.33.738,LearnStrategy,2023.2.3,Win32,59.17159763,7,2,9,,,,,,,,4,09,,,,,,,,,,,,,2,4.241,0,,,,,,-0.125,-0.248148148,1,0,0,4.2409,Basalt_rect,8,0,8,0,1,
665747ab06294778387cd708,SCR,2024-06-20_16h27.33.738,LearnStrategy,2023.2.3,Win32,59.17159763,7,2,10,,,,,,,,2,04,,,,,,,,,,,,,2,0.754,1,,,,,,-0.082407407,-0.251851852,1,0,0,0.7538,Basalt_rect,9,0,9,0,1,
665747ab06294778387cd708,SCR,2024-06-20_16h27.33.738,LearnStrategy,2023.2.3,Win32,59.17159763,7,2,11,,,,,,,,5,04,,,,,,,,,,,,,5,0.87,1,,,,,,-0.359259259,-0.419444444,1,0,0,0.8695,Obsidian_rect,10,0,10,0,1,
665747ab06294778387cd708,SCR,2024-06-20_16h27.33.738,LearnStrategy,2023.2.3,Win32,59.17159763,7,2,12,,,,,,,,4,12,,,,,,,,,,,,,1,1.676,0,,,,,,-0.337037037,-0.24537037,1,0,0,1.6763,Andesite_rect,11,0,11,0,1,
665747ab06294778387cd708,SCR,2024-06-20_16h27.33.738,LearnStrategy,2023.2.3,Win32,59.17159763,7,2,13,,,,,,,,7,02,,,,,,,,,,,,,6,1.037,0,,,,,,-0.094444444,-0.398148148,1,0,0,1.0368,Pegmatite_rect,12,0,12,0,1,
665747ab06294778387cd708,SCR,2024-06-20_16h27.33.738,LearnStrategy,2023.2.3,Win32,59.17159763,7,2,14,,,,,,,,7,16,,,,,,,,,,,,,6,0.869,0,,,,,,-0.147222222,-0.398148148,1,0,0,0.8693,Pegmatite_rect,13,0,13,0,1,
665747ab06294778387cd708,SCR,2024-06-20_16h27.33.738,LearnStrategy,2023.2.3,Win32,59.17159763,7,2,15,,,,,,,,8,08,,,,,,,,,,,,,8,0.885,1,,,,,,0.389814815,-0.393518519,1,0,0,0.8852,Pumice_rect,14,0,14,0,1,
665747ab06294778387cd708,SCR,2024-06-20_16h27.33.738,LearnStrategy,2023.2.3,Win32,59.17159763,7,2,16,,,,,,,,5,09,,,,,,,,,,,,,5,1.011,1,,,,,,-0.389814815,-0.409259259,1,0,0,1.0106,Obsidian_rect,15,0,15,0,1,
665747ab06294778387cd708,SCR,2024-06-20_16h27.33.738,LearnStrategy,2023.2.3,Win32,59.17159763,8,1,1,0.271296296,0.213888889,1,0,0,0.6806,Gabbro_13,4,13,5,6,0.681,4,13,0.225925926,-0.251851852,1,0,0,1.2261,Diorite_rect,3,1.226,0,0,0,0,0,1,,,,,,,,,,,,,
665747ab06294778387cd708,SCR,2024-06-20_16h27.33.738,LearnStrategy,2023.2.3,Win32,59.17159763,8,1,2,-0.193518519,-0.073148148,1,0,0,0.7477,Pegmatite_08,6,08,3,3,0.748,6,08,-0.091666667,-0.414814815,1,0,0,0.8273,Pegmatite_rect,6,0.827,1,1,0,1,0,1,,,,,,,,,,,,,
665747ab06294778387cd708,SCR,2024-06-20_16h27.33.738,LearnStrategy,2023.2.3,Win32,59.17159763,8,1,3,-0.526851852,-0.288888889,1,0,0,0.6822,Pegmatite_07,6,07,2,1,0.682,6,07,-0.118518519,-0.405555556,1,0,0,0.7598,Pegmatite_rect,6,0.76,1,2,0,2,0,1,,,,,,,,,,,,,
665747ab06294778387cd708,SCR,2024-06-20_16h27.33.738,LearnStrategy,2023.2.3,Win32,59.17159763,8,1,4,0.25,0.39537037,1,0,0,0.6981,Pumice_09,8,09,6,6,0.698,8,09,0.387037037,-0.392592593,1,0,0,0.693,Pumice_rect,8,0.693,1,3,0,3,0,1,,,,,,,,,,,,,
665747ab06294778387cd708,SCR,2024-06-20_16h27.33.738,LearnStrategy,2023.2.3,Win32,59.17159763,8,1,5,-0.27037037,-0.224074074,1,0,0,0.4988,Gabbro_03,4,03,2,3,0.499,4,03,0.105555556,-0.250925926,1,0,0,1.4767,Diorite_rect,3,1.477,0,4,0,4,0,1,,,,,,,,,,,,,
665747ab06294778387cd708,SCR,2024-06-20_16h27.33.738,LearnStrategy,2023.2.3,Win32,59.17159763,8,1,6,-0.351851852,-0.243518519,1,0,0,0.6824,Andesite_02,1,02,2,2,0.682,1,02,-0.426851852,-0.250925926,1,0,0,1.2432,Andesite_rect,1,1.243,1,5,0,5,0,1,,,,,,,,,,,,,
665747ab06294778387cd708,SCR,2024-06-20_16h27.33.738,LearnStrategy,2023.2.3,Win32,59.17159763,8,1,7,-0.071296296,0.406481481,1,0,0,0.6625,Basalt_05,2,05,6,4,0.663,2,05,-0.115740741,-0.269444444,1,0,0,0.6587,Basalt_rect,2,0.659,1,6,0,6,0,1,,,,,,,,,,,,,
665747ab06294778387cd708,SCR,2024-06-20_16h27.33.738,LearnStrategy,2023.2.3,Win32,59.17159763,8,1,8,-0.097222222,-0.415740741,1,0,0,0.7822,Andesite_16,1,16,1,4,0.782,1,16,0.17962963,-0.265740741,1,0,0,1.0108,Diorite_rect,3,1.011,0,7,0,7,0,1,,,,,,,,,,,,,
665747ab06294778387cd708,SCR,2024-06-20_16h27.33.738,LearnStrategy,2023.2.3,Win32,59.17159763,8,1,9,0.081481481,-0.287962963,1,0,0,0.7149,Peridotite_15,7,15,2,5,0.715,7,15,0.116666667,-0.39537037,1,0,0,1.8771,Peridotite_rect,7,1.877,1,8,0,8,0,1,,,,,,,,,,,,,
665747ab06294778387cd708,SCR,2024-06-20_16h27.33.738,LearnStrategy,2023.2.3,Win32,59.17159763,8,1,10,-0.358333333,-0.075,1,0,0,0.6821,Pegmatite_13,6,13,3,2,0.682,6,13,-0.125,-0.403703704,1,0,0,0.86,Pegmatite_rect,6,0.86,1,9,0,9,0,1,,,,,,,,,,,,,
665747ab06294778387cd708,SCR,2024-06-20_16h27.33.738,LearnStrategy,2023.2.3,Win32,59.17159763,8,1,11,0.586111111,-0.103703704,1,0,0,0.7659,Diorite_02,3,02,3,8,0.766,3,02,0.35,-0.242592593,1,0,0,0.8265,Gabbro_rect,4,0.827,0,10,0,10,0,1,,,,,,,,,,,,,
665747ab06294778387cd708,SCR,2024-06-20_16h27.33.738,LearnStrategy,2023.2.3,Win32,59.17159763,8,1,12,0.373148148,0.10462963,1,0,0,0.5984,Peridotite_13,7,13,4,7,0.598,7,13,0.125,-0.401851852,1,0,0,1.2429,Peridotite_rect,7,1.243,1,11,0,11,0,1,,,,,,,,,,,,,
665747ab06294778387cd708,SCR,2024-06-20_16h27.33.738,LearnStrategy,2023.2.3,Win32,59.17159763,8,1,13,-0.056481481,0.082407407,1,0,0,0.7485,Peridotite_06,7,06,4,4,0.749,7,06,0.133333333,-0.413888889,1,0,0,1.8271,Peridotite_rect,7,1.827,1,12,0,12,0,1,,,,,,,,,,,,,
665747ab06294778387cd708,SCR,2024-06-20_16h27.33.738,LearnStrategy,2023.2.3,Win32,59.17159763,8,1,14,0.386111111,-0.244444444,1,0,0,0.5986,Diorite_06,3,06,2,7,0.599,3,06,0.123148148,-0.240740741,1,0,0,1.7436,Diorite_rect,3,1.744,1,13,0,13,0,1,,,,,,,,,,,,,
665747ab06294778387cd708,SCR,2024-06-20_16h27.33.738,LearnStrategy,2023.2.3,Win32,59.17159763,8,1,15,-0.202777778,-0.231481481,1,0,0,0.548,Gabbro_03,4,03,2,3,0.548,4,03,0.096296296,-0.250925926,1,0,0,1.2105,Diorite_rect,3,1.211,0,14,0,14,0,1,,,,,,,,,,,,,
665747ab06294778387cd708,SCR,2024-06-20_16h27.33.738,LearnStrategy,2023.2.3,Win32,59.17159763,8,1,16,0.066666667,0.094444444,1,0,0,0.5482,Diorite_08,3,08,4,5,0.548,3,08,0.333333333,-0.255555556,1,0,0,1.227,Gabbro_rect,4,1.227,0,15,0,15,0,1,,,,,,,,,,,,,
665747ab06294778387cd708,SCR,2024-06-20_16h27.33.738,LearnStrategy,2023.2.3,Win32,59.17159763,8,2,1,,,,,,,,1,01,,,,,,,,,,,,,3,5.342,0,,,,,,0.137037037,-0.253703704,1,0,0,5.3417,Diorite_rect,0,0,0,0,1,
665747ab06294778387cd708,SCR,2024-06-20_16h27.33.738,LearnStrategy,2023.2.3,Win32,59.17159763,8,2,2,,,,,,,,2,02,,,,,,,,,,,,,2,0.789,1,,,,,,-0.105555556,-0.24537037,1,0,0,0.7887,Basalt_rect,1,0,1,0,1,
665747ab06294778387cd708,SCR,2024-06-20_16h27.33.738,LearnStrategy,2023.2.3,Win32,59.17159763,8,2,3,,,,,,,,7,12,,,,,,,,,,,,,7,1.693,1,,,,,,0.088888889,-0.400925926,1,0,0,1.6932,Peridotite_rect,2,0,2,0,1,
665747ab06294778387cd708,SCR,2024-06-20_16h27.33.738,LearnStrategy,2023.2.3,Win32,59.17159763,8,2,4,,,,,,,,4,08,,,,,,,,,,,,,1,4.31,0,,,,,,-0.4,-0.250925926,1,0,0,4.3104,Andesite_rect,3,0,3,0,1,
665747ab06294778387cd708,SCR,2024-06-20_16h27.33.738,LearnStrategy,2023.2.3,Win32,59.17159763,8,2,5,,,,,,,,5,11,,,,,,,,,,,,,5,0.87,1,,,,,,-0.35,-0.406481481,1,0,0,0.8703,Obsidian_rect,4,0,4,0,1,
665747ab06294778387cd708,SCR,2024-06-20_16h27.33.738,LearnStrategy,2023.2.3,Win32,59.17159763,8,2,6,,,,,,,,5,07,,,,,,,,,,,,,5,0.926,1,,,,,,-0.372222222,-0.412037037,1,0,0,0.9264,Obsidian_rect,5,0,5,0,1,
665747ab06294778387cd708,SCR,2024-06-20_16h27.33.738,LearnStrategy,2023.2.3,Win32,59.17159763,8,2,7,,,,,,,,6,11,,,,,,,,,,,,,6,1.261,1,,,,,,-0.07962963,-0.398148148,1,0,0,1.2608,Pegmatite_rect,6,0,6,0,1,
665747ab06294778387cd708,SCR,2024-06-20_16h27.33.738,LearnStrategy,2023.2.3,Win32,59.17159763,8,2,8,,,,,,,,4,10,,,,,,,,,,,,,4,2.277,1,,,,,,0.368518519,-0.251851852,1,0,0,2.2768,Gabbro_rect,7,0,7,0,1,
665747ab06294778387cd708,SCR,2024-06-20_16h27.33.738,LearnStrategy,2023.2.3,Win32,59.17159763,8,2,9,,,,,,,,8,13,,,,,,,,,,,,,8,0.76,1,,,,,,0.389814815,-0.403703704,1,0,0,0.76,Pumice_rect,8,0,8,0,1,
665747ab06294778387cd708,SCR,2024-06-20_16h27.33.738,LearnStrategy,2023.2.3,Win32,59.17159763,8,2,10,,,,,,,,3,11,,,,,,,,,,,,,3,1.311,1,,,,,,0.160185185,-0.244444444,1,0,0,1.3107,Diorite_rect,9,0,9,0,1,
665747ab06294778387cd708,SCR,2024-06-20_16h27.33.738,LearnStrategy,2023.2.3,Win32,59.17159763,8,2,11,,,,,,,,1,09,,,,,,,,,,,,,1,2.575,1,,,,,,-0.348148148,-0.253703704,1,0,0,2.5754,Andesite_rect,10,0,10,0,1,
665747ab06294778387cd708,SCR,2024-06-20_16h27.33.738,LearnStrategy,2023.2.3,Win32,59.17159763,8,2,12,,,,,,,,2,01,,,,,,,,,,,,,2,1.221,1,,,,,,-0.098148148,-0.242592593,1,0,0,1.2206,Basalt_rect,11,0,11,0,1,
665747ab06294778387cd708,SCR,2024-06-20_16h27.33.738,LearnStrategy,2023.2.3,Win32,59.17159763,8,2,13,,,,,,,,7,04,,,,,,,,,,,,,6,1.077,0,,,,,,-0.097222222,-0.396296296,1,0,0,1.0773,Pegmatite_rect,12,0,12,0,1,
665747ab06294778387cd708,SCR,2024-06-20_16h27.33.738,LearnStrategy,2023.2.3,Win32,59.17159763,8,2,14,,,,,,,,3,16,,,,,,,,,,,,,4,1.811,0,,,,,,0.343518519,-0.243518519,1,0,0,1.8107,Gabbro_rect,13,0,13,0,1,
665747ab06294778387cd708,SCR,2024-06-20_16h27.33.738,LearnStrategy,2023.2.3,Win32,59.17159763,8,2,15,,,,,,,,8,04,,,,,,,,,,,,,8,0.711,1,,,,,,0.365740741,-0.399074074,1,0,0,0.7109,Pumice_rect,14,0,14,0,1,
665747ab06294778387cd708,SCR,2024-06-20_16h27.33.738,LearnStrategy,2023.2.3,Win32,59.17159763,8,2,16,,,,,,,,6,06,,,,,,,,,,,,,6,1.356,1,,,,,,-0.126851852,-0.390740741,1,0,0,1.3561,Pegmatite_rect,15,0,15,0,1,
665747ab06294778387cd708,SCR,2024-06-20_16h27.33.738,LearnStrategy,2023.2.3,Win32,59.17159763,9,1,1,0.053703704,0.256481481,1,0,0,0.7314,Andesite_04,1,04,5,5,0.731,1,04,0.362037037,-0.25,1,0,0,2.2593,Gabbro_rect,4,2.259,0,0,0,0,0,1,,,,,,,,,,,,,
665747ab06294778387cd708,SCR,2024-06-20_16h27.33.738,LearnStrategy,2023.2.3,Win32,59.17159763,9,1,2,0.038888889,0.268518519,1,0,0,0.4822,Andesite_04,1,04,5,5,0.482,1,04,-0.342592593,-0.241666667,1,0,0,0.9099,Andesite_rect,1,0.91,1,1,0,1,0,1,,,,,,,,,,,,,
665747ab06294778387cd708,SCR,2024-06-20_16h27.33.738,LearnStrategy,2023.2.3,Win32,59.17159763,9,1,3,-0.366666667,-0.386111111,1,0,0,0.7321,Pumice_03,8,03,1,2,0.732,8,03,0.335185185,-0.400925926,1,0,0,1.0603,Pumice_rect,8,1.06,1,2,0,2,0,1,,,,,,,,,,,,,
665747ab06294778387cd708,SCR,2024-06-20_16h27.33.738,LearnStrategy,2023.2.3,Win32,59.17159763,9,1,4,0.080555556,0.401851852,1,0,0,0.6487,Pegmatite_09,6,09,6,5,0.649,6,09,0.099074074,-0.398148148,1,0,0,1.9258,Peridotite_rect,7,1.926,0,3,0,3,0,1,,,,,,,,,,,,,
665747ab06294778387cd708,SCR,2024-06-20_16h27.33.738,LearnStrategy,2023.2.3,Win32,59.17159763,9,1,5,-0.367592593,-0.091666667,1,0,0,0.5659,Pegmatite_13,6,13,3,2,0.566,6,13,-0.125,-0.409259259,1,0,0,0.9436,Pegmatite_rect,6,0.944,1,4,0,4,0,1,,,,,,,,,,,,,
665747ab06294778387cd708,SCR,2024-06-20_16h27.33.738,LearnStrategy,2023.2.3,Win32,59.17159763,9,1,6,-0.037962963,0.240740741,1,0,0,0.5995,Gabbro_05,4,05,5,4,0.6,4,05,0.296296296,-0.247222222,1,0,0,1.4085,Gabbro_rect,4,1.409,1,5,0,5,0,1,,,,,,,,,,,,,
665747ab06294778387cd708,SCR,2024-06-20_16h27.33.738,LearnStrategy,2023.2.3,Win32,59.17159763,9,1,7,-0.398148148,-0.262962963,1,0,0,0.7131,Andesite_02,1,02,2,2,0.713,1,02,0.148148148,-0.246296296,1,0,0,1.0769,Diorite_rect,3,1.077,0,6,0,6,0,1,,,,,,,,,,,,,
665747ab06294778387cd708,SCR,2024-06-20_16h27.33.738,LearnStrategy,2023.2.3,Win32,59.17159763,9,1,8,-0.225925926,-0.246296296,1,0,0,0.5667,Gabbro_03,4,03,2,3,0.567,4,03,0.077777778,-0.253703704,1,0,0,0.7335,Diorite_rect,3,0.733,0,7,0,7,0,1,,,,,,,,,,,,,
665747ab06294778387cd708,SCR,2024-06-20_16h27.33.738,LearnStrategy,2023.2.3,Win32,59.17159763,9,1,9,0.364814815,0.093518519,1,0,0,0.4804,Peridotite_13,7,13,4,7,0.48,7,13,0.111111111,-0.398148148,1,0,0,0.7104,Peridotite_rect,7,0.71,1,8,0,8,0,1,,,,,,,,,,,,,
665747ab06294778387cd708,SCR,2024-06-20_16h27.33.738,LearnStrategy,2023.2.3,Win32,59.17159763,9,1,10,0.394444444,-0.27037037,1,0,0,0.8152,Diorite_06,3,06,2,7,0.815,3,06,0.094444444,-0.243518519,1,0,0,0.9757,Diorite_rect,3,0.976,1,9,0,9,0,1,,,,,,,,,,,,,
665747ab06294778387cd708,SCR,2024-06-20_16h27.33.738,LearnStrategy,2023.2.3,Win32,59.17159763,9,1,11,0.057407407,0.084259259,1,0,0,0.4493,Diorite_08,3,08,4,5,0.449,3,08,0.092592593,-0.253703704,1,0,0,0.4739,Diorite_rect,3,0.474,1,10,0,10,0,1,,,,,,,,,,,,,
665747ab06294778387cd708,SCR,2024-06-20_16h27.33.738,LearnStrategy,2023.2.3,Win32,59.17159763,9,1,12,0.043518519,-0.259259259,1,0,0,0.5657,Peridotite_15,7,15,2,5,0.566,7,15,0.125925926,-0.399074074,1,0,0,0.6597,Peridotite_rect,7,0.66,1,11,0,11,0,1,,,,,,,,,,,,,
665747ab06294778387cd708,SCR,2024-06-20_16h27.33.738,LearnStrategy,2023.2.3,Win32,59.17159763,9,1,13,-0.205555556,-0.242592593,1,0,0,0.5134,Gabbro_03,4,03,2,3,0.513,4,03,0.072222222,-0.241666667,1,0,0,0.827,Diorite_rect,3,0.827,0,12,0,12,0,1,,,,,,,,,,,,,
665747ab06294778387cd708,SCR,2024-06-20_16h27.33.738,LearnStrategy,2023.2.3,Win32,59.17159763,9,1,14,0.558333333,-0.092592593,1,0,0,0.8987,Diorite_02,3,02,3,8,0.899,3,02,0.097222222,-0.246296296,1,0,0,0.5932,Diorite_rect,3,0.593,1,13,0,13,0,1,,,,,,,,,,,,,
665747ab06294778387cd708,SCR,2024-06-20_16h27.33.738,LearnStrategy,2023.2.3,Win32,59.17159763,9,1,15,0.562962963,-0.24537037,1,0,0,0.6323,Basalt_10,2,10,2,8,0.632,2,10,-0.125925926,-0.234259259,1,0,0,0.6934,Basalt_rect,2,0.693,1,14,0,14,0,1,,,,,,,,,,,,,
665747ab06294778387cd708,SCR,2024-06-20_16h27.33.738,LearnStrategy,2023.2.3,Win32,59.17159763,9,1,16,0.108333333,-0.252777778,1,0,0,0.5324,Peridotite_15,7,15,2,5,0.532,7,15,0.122222222,-0.40462963,1,0,0,0.6772,Peridotite_rect,7,0.677,1,15,0,15,0,1,,,,,,,,,,,,,
665747ab06294778387cd708,SCR,2024-06-20_16h27.33.738,LearnStrategy,2023.2.3,Win32,59.17159763,9,2,1,,,,,,,,2,16,,,,,,,,,,,,,4,5.977,0,,,,,,0.296296296,-0.25,1,0,0,5.977,Gabbro_rect,0,0,0,0,1,
665747ab06294778387cd708,SCR,2024-06-20_16h27.33.738,LearnStrategy,2023.2.3,Win32,59.17159763,9,2,2,,,,,,,,8,15,,,,,,,,,,,,,8,1.336,1,,,,,,0.403703704,-0.408333333,1,0,0,1.3362,Pumice_rect,1,0,1,0,1,
665747ab06294778387cd708,SCR,2024-06-20_16h27.33.738,LearnStrategy,2023.2.3,Win32,59.17159763,9,2,3,,,,,,,,5,02,,,,,,,,,,,,,5,0.877,1,,,,,,-0.32037037,-0.40462963,1,0,0,0.8767,Obsidian_rect,2,0,2,0,1,
665747ab06294778387cd708,SCR,2024-06-20_16h27.33.738,LearnStrategy,2023.2.3,Win32,59.17159763,9,2,4,,,,,,,,2,09,,,,,,,,,,,,,2,0.654,1,,,,,,-0.115740741,-0.263888889,1,0,0,0.6536,Basalt_rect,3,0,3,0,1,
665747ab06294778387cd708,SCR,2024-06-20_16h27.33.738,LearnStrategy,2023.2.3,Win32,59.17159763,9,2,5,,,,,,,,8,14,,,,,,,,,,,,,8,0.901,1,,,,,,0.419444444,-0.393518519,1,0,0,0.9006,Pumice_rect,4,0,4,0,1,
665747ab06294778387cd708,SCR,2024-06-20_16h27.33.738,LearnStrategy,2023.2.3,Win32,59.17159763,9,2,6,,,,,,,,3,13,,,,,,,,,,,,,6,6.548,0,,,,,,-0.077777778,-0.400925926,1,0,0,6.5475,Pegmatite_rect,5,0,5,0,1,
665747ab06294778387cd708,SCR,2024-06-20_16h27.33.738,LearnStrategy,2023.2.3,Win32,59.17159763,9,2,7,,,,,,,,4,14,,,,,,,,,,,,,4,2.353,1,,,,,,0.338888889,-0.250925926,1,0,0,2.3531,Gabbro_rect,6,0,6,0,1,
665747ab06294778387cd708,SCR,2024-06-20_16h27.33.738,LearnStrategy,2023.2.3,Win32,59.17159763,9,2,8,,,,,,,,1,06,,,,,,,,,,,,,3,1.293,0,,,,,,0.09537037,-0.236111111,1,0,0,1.2933,Diorite_rect,7,0,7,0,1,
665747ab06294778387cd708,SCR,2024-06-20_16h27.33.738,LearnStrategy,2023.2.3,Win32,59.17159763,9,2,9,,,,,,,,1,11,,,,,,,,,,,,,3,1.11,0,,,,,,0.101851852,-0.244444444,1,0,0,1.11,Diorite_rect,8,0,8,0,1,
665747ab06294778387cd708,SCR,2024-06-20_16h27.33.738,LearnStrategy,2023.2.3,Win32,59.17159763,9,2,10,,,,,,,,7,07,,,,,,,,,,,,,7,1.177,1,,,,,,0.068518519,-0.397222222,1,0,0,1.1765,Peridotite_rect,9,0,9,0,1,
665747ab06294778387cd708,SCR,2024-06-20_16h27.33.738,LearnStrategy,2023.2.3,Win32,59.17159763,9,2,11,,,,,,,,6,10,,,,,,,,,,,,,6,2.653,1,,,,,,-0.127777778,-0.389814815,1,0,0,2.6534,Pegmatite_rect,10,0,10,0,1,
665747ab06294778387cd708,SCR,2024-06-20_16h27.33.738,LearnStrategy,2023.2.3,Win32,59.17159763,9,2,12,,,,,,,,3,07,,,,,,,,,,,,,1,1.103,0,,,,,,-0.383333333,-0.246296296,1,0,0,1.1027,Andesite_rect,11,0,11,0,1,
665747ab06294778387cd708,SCR,2024-06-20_16h27.33.738,LearnStrategy,2023.2.3,Win32,59.17159763,9,2,13,,,,,,,,6,03,,,,,,,,,,,,,7,1.244,0,,,,,,0.081481481,-0.387037037,1,0,0,1.2443,Peridotite_rect,12,0,12,0,1,
665747ab06294778387cd708,SCR,2024-06-20_16h27.33.738,LearnStrategy,2023.2.3,Win32,59.17159763,9,2,14,,,,,,,,7,10,,,,,,,,,,,,,7,1.694,1,,,,,,0.141666667,-0.409259259,1,0,0,1.6939,Peridotite_rect,13,0,13,0,1,
665747ab06294778387cd708,SCR,2024-06-20_16h27.33.738,LearnStrategy,2023.2.3,Win32,59.17159763,9,2,15,,,,,,,,5,14,,,,,,,,,,,,,5,0.887,1,,,,,,-0.364814815,-0.390740741,1,0,0,0.8869,Obsidian_rect,14,0,14,0,1,
665747ab06294778387cd708,SCR,2024-06-20_16h27.33.738,LearnStrategy,2023.2.3,Win32,59.17159763,9,2,16,,,,,,,,4,16,,,,,,,,,,,,,2,1.974,0,,,,,,-0.152777778,-0.240740741,1,0,0,1.9736,Basalt_rect,15,0,15,0,1,
665747ab06294778387cd708,SCR,2024-06-20_16h27.33.738,LearnStrategy,2023.2.3,Win32,59.17159763,,,,,,,,,,,,,,,,,,,,,,,,,,,,,,,,,,,,,,,,,,,,,0
665747ab06294778387cd708,SCR,2024-06-20_16h27.33.738,LearnStrategy,2023.2.3,Win32,59.17159763,,,,,,,,,,,,,,,,,,,,,,,,,,,,,,,,,,,,,,,,,,,,,
665747ab06294778387cd708,SCR,2024-06-20_16h27.33.738,LearnStrategy,2023.2.3,Win32,59.17159763,,,,,,,,,,,1,10,1,1,,,,,,,,,,,,,,,,,,,,,,,,,,,,,,,
665747ab06294778387cd708,SCR,2024-06-20_16h27.33.738,LearnStrategy,2023.2.3,Win32,59.17159763,,,,,,,,,,,8,03,1,2,,,,,,,,,,,,,,,,,,,,,,,,,,,,,,,
665747ab06294778387cd708,SCR,2024-06-20_16h27.33.738,LearnStrategy,2023.2.3,Win32,59.17159763,,,,,,,,,,,6,12,1,3,,,,,,,,,,,,,,,,,,,,,,,,,,,,,,,
665747ab06294778387cd708,SCR,2024-06-20_16h27.33.738,LearnStrategy,2023.2.3,Win32,59.17159763,,,,,,,,,,,1,16,1,4,,,,,,,,,,,,,,,,,,,,,,,,,,,,,,,
665747ab06294778387cd708,SCR,2024-06-20_16h27.33.738,LearnStrategy,2023.2.3,Win32,59.17159763,,,,,,,,,,,5,12,1,5,,,,,,,,,,,,,,,,,,,,,,,,,,,,,,,
665747ab06294778387cd708,SCR,2024-06-20_16h27.33.738,LearnStrategy,2023.2.3,Win32,59.17159763,,,,,,,,,,,8,10,1,6,,,,,,,,,,,,,,,,,,,,,,,,,,,,,,,
665747ab06294778387cd708,SCR,2024-06-20_16h27.33.738,LearnStrategy,2023.2.3,Win32,59.17159763,,,,,,,,,,,2,14,1,7,,,,,,,,,,,,,,,,,,,,,,,,,,,,,,,
665747ab06294778387cd708,SCR,2024-06-20_16h27.33.738,LearnStrategy,2023.2.3,Win32,59.17159763,,,,,,,,,,,8,02,1,8,,,,,,,,,,,,,,,,,,,,,,,,,,,,,,,
665747ab06294778387cd708,SCR,2024-06-20_16h27.33.738,LearnStrategy,2023.2.3,Win32,59.17159763,,,,,,,,,,,6,07,2,1,,,,,,,,,,,,,,,,,,,,,,,,,,,,,,,
665747ab06294778387cd708,SCR,2024-06-20_16h27.33.738,LearnStrategy,2023.2.3,Win32,59.17159763,,,,,,,,,,,1,02,2,2,,,,,,,,,,,,,,,,,,,,,,,,,,,,,,,
665747ab06294778387cd708,SCR,2024-06-20_16h27.33.738,LearnStrategy,2023.2.3,Win32,59.17159763,,,,,,,,,,,4,03,2,3,,,,,,,,,,,,,,,,,,,,,,,,,,,,,,,
665747ab06294778387cd708,SCR,2024-06-20_16h27.33.738,LearnStrategy,2023.2.3,Win32,59.17159763,,,,,,,,,,,5,06,2,4,,,,,,,,,,,,,,,,,,,,,,,,,,,,,,,
665747ab06294778387cd708,SCR,2024-06-20_16h27.33.738,LearnStrategy,2023.2.3,Win32,59.17159763,,,,,,,,,,,7,15,2,5,,,,,,,,,,,,,,,,,,,,,,,,,,,,,,,
665747ab06294778387cd708,SCR,2024-06-20_16h27.33.738,LearnStrategy,2023.2.3,Win32,59.17159763,,,,,,,,,,,1,03,2,6,,,,,,,,,,,,,,,,,,,,,,,,,,,,,,,
665747ab06294778387cd708,SCR,2024-06-20_16h27.33.738,LearnStrategy,2023.2.3,Win32,59.17159763,,,,,,,,,,,3,06,2,7,,,,,,,,,,,,,,,,,,,,,,,,,,,,,,,
665747ab06294778387cd708,SCR,2024-06-20_16h27.33.738,LearnStrategy,2023.2.3,Win32,59.17159763,,,,,,,,,,,2,10,2,8,,,,,,,,,,,,,,,,,,,,,,,,,,,,,,,
665747ab06294778387cd708,SCR,2024-06-20_16h27.33.738,LearnStrategy,2023.2.3,Win32,59.17159763,,,,,,,,,,,4,11,3,1,,,,,,,,,,,,,,,,,,,,,,,,,,,,,,,
665747ab06294778387cd708,SCR,2024-06-20_16h27.33.738,LearnStrategy,2023.2.3,Win32,59.17159763,,,,,,,,,,,6,13,3,2,,,,,,,,,,,,,,,,,,,,,,,,,,,,,,,
665747ab06294778387cd708,SCR,2024-06-20_16h27.33.738,LearnStrategy,2023.2.3,Win32,59.17159763,,,,,,,,,,,6,08,3,3,,,,,,,,,,,,,,,,,,,,,,,,,,,,,,,
665747ab06294778387cd708,SCR,2024-06-20_16h27.33.738,LearnStrategy,2023.2.3,Win32,59.17159763,,,,,,,,,,,6,05,3,4,,,,,,,,,,,,,,,,,,,,,,,,,,,,,,,
665747ab06294778387cd708,SCR,2024-06-20_16h27.33.738,LearnStrategy,2023.2.3,Win32,59.17159763,,,,,,,,,,,3,09,3,5,,,,,,,,,,,,,,,,,,,,,,,,,,,,,,,
665747ab06294778387cd708,SCR,2024-06-20_16h27.33.738,LearnStrategy,2023.2.3,Win32,59.17159763,,,,,,,,,,,3,15,3,6,,,,,,,,,,,,,,,,,,,,,,,,,,,,,,,
665747ab06294778387cd708,SCR,2024-06-20_16h27.33.738,LearnStrategy,2023.2.3,Win32,59.17159763,,,,,,,,,,,1,14,3,7,,,,,,,,,,,,,,,,,,,,,,,,,,,,,,,
665747ab06294778387cd708,SCR,2024-06-20_16h27.33.738,LearnStrategy,2023.2.3,Win32,59.17159763,,,,,,,,,,,3,02,3,8,,,,,,,,,,,,,,,,,,,,,,,,,,,,,,,
665747ab06294778387cd708,SCR,2024-06-20_16h27.33.738,LearnStrategy,2023.2.3,Win32,59.17159763,,,,,,,,,,,2,11,4,1,,,,,,,,,,,,,,,,,,,,,,,,,,,,,,,
665747ab06294778387cd708,SCR,2024-06-20_16h27.33.738,LearnStrategy,2023.2.3,Win32,59.17159763,,,,,,,,,,,5,16,4,2,,,,,,,,,,,,,,,,,,,,,,,,,,,,,,,
665747ab06294778387cd708,SCR,2024-06-20_16h27.33.738,LearnStrategy,2023.2.3,Win32,59.17159763,,,,,,,,,,,8,06,4,3,,,,,,,,,,,,,,,,,,,,,,,,,,,,,,,
665747ab06294778387cd708,SCR,2024-06-20_16h27.33.738,LearnStrategy,2023.2.3,Win32,59.17159763,,,,,,,,,,,7,06,4,4,,,,,,,,,,,,,,,,,,,,,,,,,,,,,,,
665747ab06294778387cd708,SCR,2024-06-20_16h27.33.738,LearnStrategy,2023.2.3,Win32,59.17159763,,,,,,,,,,,3,08,4,5,,,,,,,,,,,,,,,,,,,,,,,,,,,,,,,
665747ab06294778387cd708,SCR,2024-06-20_16h27.33.738,LearnStrategy,2023.2.3,Win32,59.17159763,,,,,,,,,,,2,08,4,6,,,,,,,,,,,,,,,,,,,,,,,,,,,,,,,
665747ab06294778387cd708,SCR,2024-06-20_16h27.33.738,LearnStrategy,2023.2.3,Win32,59.17159763,,,,,,,,,,,7,13,4,7,,,,,,,,,,,,,,,,,,,,,,,,,,,,,,,
665747ab06294778387cd708,SCR,2024-06-20_16h27.33.738,LearnStrategy,2023.2.3,Win32,59.17159763,,,,,,,,,,,3,12,4,8,,,,,,,,,,,,,,,,,,,,,,,,,,,,,,,
665747ab06294778387cd708,SCR,2024-06-20_16h27.33.738,LearnStrategy,2023.2.3,Win32,59.17159763,,,,,,,,,,,5,10,5,1,,,,,,,,,,,,,,,,,,,,,,,,,,,,,,,
665747ab06294778387cd708,SCR,2024-06-20_16h27.33.738,LearnStrategy,2023.2.3,Win32,59.17159763,,,,,,,,,,,2,12,5,2,,,,,,,,,,,,,,,,,,,,,,,,,,,,,,,
665747ab06294778387cd708,SCR,2024-06-20_16h27.33.738,LearnStrategy,2023.2.3,Win32,59.17159763,,,,,,,,,,,4,15,5,3,,,,,,,,,,,,,,,,,,,,,,,,,,,,,,,
665747ab06294778387cd708,SCR,2024-06-20_16h27.33.738,LearnStrategy,2023.2.3,Win32,59.17159763,,,,,,,,,,,4,05,5,4,,,,,,,,,,,,,,,,,,,,,,,,,,,,,,,
665747ab06294778387cd708,SCR,2024-06-20_16h27.33.738,LearnStrategy,2023.2.3,Win32,59.17159763,,,,,,,,,,,1,04,5,5,,,,,,,,,,,,,,,,,,,,,,,,,,,,,,,
665747ab06294778387cd708,SCR,2024-06-20_16h27.33.738,LearnStrategy,2023.2.3,Win32,59.17159763,,,,,,,,,,,4,13,5,6,,,,,,,,,,,,,,,,,,,,,,,,,,,,,,,
665747ab06294778387cd708,SCR,2024-06-20_16h27.33.738,LearnStrategy,2023.2.3,Win32,59.17159763,,,,,,,,,,,7,08,5,7,,,,,,,,,,,,,,,,,,,,,,,,,,,,,,,
665747ab06294778387cd708,SCR,2024-06-20_16h27.33.738,LearnStrategy,2023.2.3,Win32,59.17159763,,,,,,,,,,,8,16,5,8,,,,,,,,,,,,,,,,,,,,,,,,,,,,,,,
665747ab06294778387cd708,SCR,2024-06-20_16h27.33.738,LearnStrategy,2023.2.3,Win32,59.17159763,,,,,,,,,,,7,14,6,1,,,,,,,,,,,,,,,,,,,,,,,,,,,,,,,
665747ab06294778387cd708,SCR,2024-06-20_16h27.33.738,LearnStrategy,2023.2.3,Win32,59.17159763,,,,,,,,,,,5,08,6,2,,,,,,,,,,,,,,,,,,,,,,,,,,,,,,,
665747ab06294778387cd708,SCR,2024-06-20_16h27.33.738,LearnStrategy,2023.2.3,Win32,59.17159763,,,,,,,,,,,7,05,6,3,,,,,,,,,,,,,,,,,,,,,,,,,,,,,,,
665747ab06294778387cd708,SCR,2024-06-20_16h27.33.738,LearnStrategy,2023.2.3,Win32,59.17159763,,,,,,,,,,,2,05,6,4,,,,,,,,,,,,,,,,,,,,,,,,,,,,,,,
665747ab06294778387cd708,SCR,2024-06-20_16h27.33.738,LearnStrategy,2023.2.3,Win32,59.17159763,,,,,,,,,,,6,09,6,5,,,,,,,,,,,,,,,,,,,,,,,,,,,,,,,
665747ab06294778387cd708,SCR,2024-06-20_16h27.33.738,LearnStrategy,2023.2.3,Win32,59.17159763,,,,,,,,,,,8,09,6,6,,,,,,,,,,,,,,,,,,,,,,,,,,,,,,,
665747ab06294778387cd708,SCR,2024-06-20_16h27.33.738,LearnStrategy,2023.2.3,Win32,59.17159763,,,,,,,,,,,5,05,6,7,,,,,,,,,,,,,,,,,,,,,,,,,,,,,,,
665747ab06294778387cd708,SCR,2024-06-20_16h27.33.738,LearnStrategy,2023.2.3,Win32,59.17159763,,,,,,,,,,,4,01,6,8,,,,,,,,,,,,,,,,,,,,,,,,,,,,,,,