participant,condition,date,expName,psychopyVersion,OS,frameRate,block,phase,trial,learn_mouse_2.x,learn_mouse_2.y,learn_mouse_2.leftButton,learn_mouse_2.midButton,learn_mouse_2.rightButton,learn_mouse_2.time,learn_mouse_2.clicked_name,cat,token,row,col,t_select,cat_mouse_l.x,cat_mouse_l.y,cat_mouse_l.leftButton,cat_mouse_l.midButton,cat_mouse_l.rightButton,cat_mouse_l.time,cat_mouse_l.clicked_name,resp,t_resp,corr,train_trials.thisRepN,train_trials.thisTrialN,train_trials.thisN,train_trials.thisIndex,train_trials.ran,cat_mouse_t.x,cat_mouse_t.y,cat_mouse_t.leftButton,cat_mouse_t.midButton,cat_mouse_t.rightButton,cat_mouse_t.time,cat_mouse_t.clicked_name,test_trials.thisRepN,test_trials.thisTrialN,test_trials.thisN,test_trials.thisIndex,test_trials.ran,Bonus
6658ee766e2632a6de409027,TCN,2024-06-25_09h40.27.219,LearnStrategy,2023.2.3,Win32,60.97560976,,,,,,,,,,,,,,,,,,,,,,,,,,,,,,,,,,,,,,,,,,,
6658ee766e2632a6de409027,TCN,2024-06-25_09h40.27.219,LearnStrategy,2023.2.3,Win32,60.97560976,1,1,1,0.094444444,-0.008333333,1,0,0,2.3107,rock_grid_rect_2,3,10,-1,-1,2.311,-0.110185185,-0.248148148,1,0,0,5.4045,Basalt_rect,2,5.404,0,0,0,0,0,1,,,,,,,,,,,,,
6658ee766e2632a6de409027,TCN,2024-06-25_09h40.27.219,LearnStrategy,2023.2.3,Win32,60.97560976,1,1,2,0.069444444,-0.015740741,1,0,0,1.7195,rock_grid_rect_2,2,08,-1,-1,1.72,-0.335185185,-0.383333333,1,0,0,3.3681,Obsidian_rect,5,3.368,0,1,0,1,0,1,,,,,,,,,,,,,
6658ee766e2632a6de409027,TCN,2024-06-25_09h40.27.219,LearnStrategy,2023.2.3,Win32,60.97560976,1,1,3,0.010185185,-0.012037037,1,0,0,1.1216,rock_grid_rect_2,1,09,-1,-1,1.122,0.40462963,-0.383333333,1,0,0,5.8144,Pumice_rect,8,5.814,0,2,0,2,0,1,,,,,,,,,,,,,
6658ee766e2632a6de409027,TCN,2024-06-25_09h40.27.219,LearnStrategy,2023.2.3,Win32,60.97560976,1,1,4,0.151851852,0.007407407,1,0,0,1.7686,rock_grid_rect_2,2,14,-1,-1,1.769,-0.092592593,-0.387962963,1,0,0,4.6454,Pegmatite_rect,6,4.645,0,3,0,3,0,1,,,,,,,,,,,,,
6658ee766e2632a6de409027,TCN,2024-06-25_09h40.27.219,LearnStrategy,2023.2.3,Win32,60.97560976,1,1,5,0.02037037,-0.003703704,1,0,0,1.079,rock_grid_rect_2,8,16,-1,-1,1.079,0.42037037,-0.384259259,1,0,0,1.6356,Pumice_rect,8,1.636,1,4,0,4,0,1,,,,,,,,,,,,,
6658ee766e2632a6de409027,TCN,2024-06-25_09h40.27.219,LearnStrategy,2023.2.3,Win32,60.97560976,1,1,6,0.016666667,0.022222222,1,0,0,1.6899,rock_grid_rect_2,6,08,-1,-1,1.69,0.165740741,-0.231481481,1,0,0,8.5226,Diorite_rect,3,8.523,0,5,0,5,0,1,,,,,,,,,,,,,
6658ee766e2632a6de409027,TCN,2024-06-25_09h40.27.219,LearnStrategy,2023.2.3,Win32,60.97560976,1,1,7,0.011111111,-0.003703704,1,0,0,2.3128,rock_grid_rect_2,3,14,-1,-1,2.313,0.106481481,-0.232407407,1,0,0,5.9521,Diorite_rect,3,5.952,1,6,0,6,0,1,,,,,,,,,,,,,
6658ee766e2632a6de409027,TCN,2024-06-25_09h40.27.219,LearnStrategy,2023.2.3,Win32,60.97560976,1,1,8,0.059259259,-0.008333333,1,0,0,0.898,rock_grid_rect_2,5,07,-1,-1,0.898,-0.342592593,-0.388888889,1,0,0,3.9341,Obsidian_rect,5,3.934,1,7,0,7,0,1,,,,,,,,,,,,,
6658ee766e2632a6de409027,TCN,2024-06-25_09h40.27.219,LearnStrategy,2023.2.3,Win32,60.97560976,1,1,9,0.083333333,0.011111111,1,0,0,0.9718,rock_grid_rect_2,8,09,-1,-1,0.972,0.381481481,-0.400925926,1,0,0,3.5256,Pumice_rect,8,3.526,1,8,0,8,0,1,,,,,,,,,,,,,
6658ee766e2632a6de409027,TCN,2024-06-25_09h40.27.219,LearnStrategy,2023.2.3,Win32,60.97560976,1,1,10,0.038888889,-0.00462963,1,0,0,1.0468,rock_grid_rect_2,4,03,-1,-1,1.047,0.161111111,-0.237962963,1,0,0,1.8321,Diorite_rect,3,1.832,0,9,0,9,0,1,,,,,,,,,,,,,
6658ee766e2632a6de409027,TCN,2024-06-25_09h40.27.219,LearnStrategy,2023.2.3,Win32,60.97560976,1,1,11,0.036111111,0.00462963,1,0,0,1.1668,rock_grid_rect_2,7,12,-1,-1,1.167,0.105555556,-0.246296296,1,0,0,2.9339,Diorite_rect,3,2.934,0,10,0,10,0,1,,,,,,,,,,,,,
6658ee766e2632a6de409027,TCN,2024-06-25_09h40.27.219,LearnStrategy,2023.2.3,Win32,60.97560976,1,1,12,0.025925926,0.005555556,1,0,0,0.8645,rock_grid_rect_2,4,11,-1,-1,0.864,-0.371296296,-0.24537037,1,0,0,4.2378,Andesite_rect,1,4.238,0,11,0,11,0,1,,,,,,,,,,,,,
6658ee766e2632a6de409027,TCN,2024-06-25_09h40.27.219,LearnStrategy,2023.2.3,Win32,60.97560976,1,1,13,-0.02037037,-0.010185185,1,0,0,1.2214,rock_grid_rect_2,5,16,-1,-1,1.221,-0.375,-0.391666667,1,0,0,2.2748,Obsidian_rect,5,2.275,1,12,0,12,0,1,,,,,,,,,,,,,
6658ee766e2632a6de409027,TCN,2024-06-25_09h40.27.219,LearnStrategy,2023.2.3,Win32,60.97560976,1,1,14,-0.010185185,-0.005555556,1,0,0,1.2264,rock_grid_rect_2,6,10,-1,-1,1.226,-0.087962963,-0.405555556,1,0,0,4.7884,Pegmatite_rect,6,4.788,1,13,0,13,0,1,,,,,,,,,,,,,
6658ee766e2632a6de409027,TCN,2024-06-25_09h40.27.219,LearnStrategy,2023.2.3,Win32,60.97560976,1,1,15,-0.008333333,0.002777778,1,0,0,0.9812,rock_grid_rect_2,1,07,-1,-1,0.981,0.387962963,-0.247222222,1,0,0,4.5133,Gabbro_rect,4,4.513,0,14,0,14,0,1,,,,,,,,,,,,,
6658ee766e2632a6de409027,TCN,2024-06-25_09h40.27.219,LearnStrategy,2023.2.3,Win32,60.97560976,1,1,16,0.074074074,-0.001851852,1,0,0,0.8914,rock_grid_rect_2,7,08,-1,-1,0.891,-0.101851852,-0.244444444,1,0,0,3.6837,Basalt_rect,2,3.684,0,15,0,15,0,1,,,,,,,,,,,,,
6658ee766e2632a6de409027,TCN,2024-06-25_09h40.27.219,LearnStrategy,2023.2.3,Win32,60.97560976,1,2,1,,,,,,,,7,16,,,,,,,,,,,7,4.132,1,,,,,,0.14537037,-0.39537037,1,0,0,4.1316,Peridotite_rect,0,0,0,0,1,
6658ee766e2632a6de409027,TCN,2024-06-25_09h40.27.219,LearnStrategy,2023.2.3,Win32,60.97560976,1,2,2,,,,,,,,3,15,,,,,,,,,,,3,4.037,1,,,,,,0.125925926,-0.24537037,1,0,0,4.0367,Diorite_rect,1,0,1,0,1,
6658ee766e2632a6de409027,TCN,2024-06-25_09h40.27.219,LearnStrategy,2023.2.3,Win32,60.97560976,1,2,3,,,,,,,,4,08,,,,,,,,,,,6,4.881,0,,,,,,-0.07037037,-0.396296296,1,0,0,4.8809,Pegmatite_rect,2,0,2,0,1,
6658ee766e2632a6de409027,TCN,2024-06-25_09h40.27.219,LearnStrategy,2023.2.3,Win32,60.97560976,1,2,4,,,,,,,,7,10,,,,,,,,,,,7,1.511,1,,,,,,0.119444444,-0.39537037,1,0,0,1.5106,Peridotite_rect,3,0,3,0,1,
6658ee766e2632a6de409027,TCN,2024-06-25_09h40.27.219,LearnStrategy,2023.2.3,Win32,60.97560976,1,2,5,,,,,,,,8,04,,,,,,,,,,,8,1.579,1,,,,,,0.396296296,-0.403703704,1,0,0,1.5789,Pumice_rect,4,0,4,0,1,
6658ee766e2632a6de409027,TCN,2024-06-25_09h40.27.219,LearnStrategy,2023.2.3,Win32,60.97560976,1,2,6,,,,,,,,1,05,,,,,,,,,,,4,6.972,0,,,,,,0.412037037,-0.238888889,1,0,0,6.9722,Gabbro_rect,5,0,5,0,1,
6658ee766e2632a6de409027,TCN,2024-06-25_09h40.27.219,LearnStrategy,2023.2.3,Win32,60.97560976,1,2,7,,,,,,,,6,07,,,,,,,,,,,6,4.963,1,,,,,,-0.09537037,-0.401851852,1,0,0,4.963,Pegmatite_rect,6,0,6,0,1,
6658ee766e2632a6de409027,TCN,2024-06-25_09h40.27.219,LearnStrategy,2023.2.3,Win32,60.97560976,1,2,8,,,,,,,,5,04,,,,,,,,,,,5,1.202,1,,,,,,-0.369444444,-0.396296296,1,0,0,1.2021,Obsidian_rect,7,0,7,0,1,
6658ee766e2632a6de409027,TCN,2024-06-25_09h40.27.219,LearnStrategy,2023.2.3,Win32,60.97560976,1,2,9,,,,,,,,2,10,,,,,,,,,,,2,2.756,1,,,,,,-0.12962963,-0.256481481,1,0,0,2.7561,Basalt_rect,8,0,8,0,1,
6658ee766e2632a6de409027,TCN,2024-06-25_09h40.27.219,LearnStrategy,2023.2.3,Win32,60.97560976,1,2,10,,,,,,,,1,11,,,,,,,,,,,1,2.393,1,,,,,,-0.343518519,-0.237037037,1,0,0,2.3925,Andesite_rect,9,0,9,0,1,
6658ee766e2632a6de409027,TCN,2024-06-25_09h40.27.219,LearnStrategy,2023.2.3,Win32,60.97560976,1,2,11,,,,,,,,3,02,,,,,,,,,,,4,2.412,0,,,,,,0.367592593,-0.25462963,1,0,0,2.412,Gabbro_rect,10,0,10,0,1,
6658ee766e2632a6de409027,TCN,2024-06-25_09h40.27.219,LearnStrategy,2023.2.3,Win32,60.97560976,1,2,12,,,,,,,,6,15,,,,,,,,,,,6,3.382,1,,,,,,-0.139814815,-0.394444444,1,0,0,3.3815,Pegmatite_rect,11,0,11,0,1,
6658ee766e2632a6de409027,TCN,2024-06-25_09h40.27.219,LearnStrategy,2023.2.3,Win32,60.97560976,1,2,13,,,,,,,,8,10,,,,,,,,,,,8,1.445,1,,,,,,0.413888889,-0.408333333,1,0,0,1.4451,Pumice_rect,12,0,12,0,1,
6658ee766e2632a6de409027,TCN,2024-06-25_09h40.27.219,LearnStrategy,2023.2.3,Win32,60.97560976,1,2,14,,,,,,,,5,08,,,,,,,,,,,5,1.108,1,,,,,,-0.410185185,-0.399074074,1,0,0,1.1077,Obsidian_rect,13,0,13,0,1,
6658ee766e2632a6de409027,TCN,2024-06-25_09h40.27.219,LearnStrategy,2023.2.3,Win32,60.97560976,1,2,15,,,,,,,,2,12,,,,,,,,,,,2,3.894,1,,,,,,-0.142592593,-0.238888889,1,0,0,3.8945,Basalt_rect,14,0,14,0,1,
6658ee766e2632a6de409027,TCN,2024-06-25_09h40.27.219,LearnStrategy,2023.2.3,Win32,60.97560976,1,2,16,,,,,,,,4,12,,,,,,,,,,,1,2.439,0,,,,,,-0.394444444,-0.244444444,1,0,0,2.4386,Andesite_rect,15,0,15,0,1,
6658ee766e2632a6de409027,TCN,2024-06-25_09h40.27.219,LearnStrategy,2023.2.3,Win32,60.97560976,2,1,1,0.025,-0.000925926,1,0,0,1.6442,rock_grid_rect_2,1,10,-1,-1,1.644,0.341666667,-0.396296296,1,0,0,3.6823,Pumice_rect,8,3.682,0,0,0,0,0,1,,,,,,,,,,,,,
6658ee766e2632a6de409027,TCN,2024-06-25_09h40.27.219,LearnStrategy,2023.2.3,Win32,60.97560976,2,1,2,0.001851852,0.001851852,1,0,0,1.0868,rock_grid_rect_2,8,15,-1,-1,1.087,0.389814815,-0.393518519,1,0,0,1.7397,Pumice_rect,8,1.74,1,1,0,1,0,1,,,,,,,,,,,,,
6658ee766e2632a6de409027,TCN,2024-06-25_09h40.27.219,LearnStrategy,2023.2.3,Win32,60.97560976,2,1,3,-0.025925926,0.009259259,1,0,0,1.0818,rock_grid_rect_2,8,02,-1,-1,1.082,0.388888889,-0.415740741,1,0,0,1.314,Pumice_rect,8,1.314,1,2,0,2,0,1,,,,,,,,,,,,,
6658ee766e2632a6de409027,TCN,2024-06-25_09h40.27.219,LearnStrategy,2023.2.3,Win32,60.97560976,2,1,4,-0.028703704,-0.008333333,1,0,0,0.9215,rock_grid_rect_2,6,13,-1,-1,0.921,-0.355555556,-0.234259259,1,0,0,3.5428,Andesite_rect,1,3.543,0,3,0,3,0,1,,,,,,,,,,,,,
6658ee766e2632a6de409027,TCN,2024-06-25_09h40.27.219,LearnStrategy,2023.2.3,Win32,60.97560976,2,1,5,-0.005555556,-0.000925926,1,0,0,3.5453,rock_grid_rect_2,3,09,-1,-1,3.545,0.126851852,-0.236111111,1,0,0,1.4849,Diorite_rect,3,1.485,1,4,0,4,0,1,,,,,,,,,,,,,
6658ee766e2632a6de409027,TCN,2024-06-25_09h40.27.219,LearnStrategy,2023.2.3,Win32,60.97560976,2,1,6,0.034259259,0.002777778,1,0,0,0.8814,rock_grid_rect_2,5,11,-1,-1,0.881,-0.375925926,-0.37962963,1,0,0,1.386,Obsidian_rect,5,1.386,1,5,0,5,0,1,,,,,,,,,,,,,
6658ee766e2632a6de409027,TCN,2024-06-25_09h40.27.219,LearnStrategy,2023.2.3,Win32,60.97560976,2,1,7,0.022222222,-0.012962963,1,0,0,1.0235,rock_grid_rect_2,6,03,-1,-1,1.024,0.134259259,-0.398148148,1,0,0,1.901,Peridotite_rect,7,1.901,0,6,0,6,0,1,,,,,,,,,,,,,
6658ee766e2632a6de409027,TCN,2024-06-25_09h40.27.219,LearnStrategy,2023.2.3,Win32,60.97560976,2,1,8,0.021296296,-0.006481481,1,0,0,1.3278,rock_grid_rect_2,7,04,-1,-1,1.328,0.394444444,-0.252777778,1,0,0,2.2851,Gabbro_rect,4,2.285,0,7,0,7,0,1,,,,,,,,,,,,,
6658ee766e2632a6de409027,TCN,2024-06-25_09h40.27.219,LearnStrategy,2023.2.3,Win32,60.97560976,2,1,9,0.057407407,0.001851852,1,0,0,0.9982,rock_grid_rect_2,2,04,-1,-1,0.998,-0.128703704,-0.255555556,1,0,0,1.4837,Basalt_rect,2,1.484,1,8,0,8,0,1,,,,,,,,,,,,,
6658ee766e2632a6de409027,TCN,2024-06-25_09h40.27.219,LearnStrategy,2023.2.3,Win32,60.97560976,2,1,10,0.026851852,0.00462963,1,0,0,1.0927,rock_grid_rect_2,1,04,-1,-1,1.093,0.408333333,-0.244444444,1,0,0,4.089,Gabbro_rect,4,4.089,0,9,0,9,0,1,,,,,,,,,,,,,
6658ee766e2632a6de409027,TCN,2024-06-25_09h40.27.219,LearnStrategy,2023.2.3,Win32,60.97560976,2,1,11,-0.005555556,0.013888889,1,0,0,0.9596,rock_grid_rect_2,4,09,-1,-1,0.96,0.140740741,-0.253703704,1,0,0,2.4634,Diorite_rect,3,2.463,0,10,0,10,0,1,,,,,,,,,,,,,
6658ee766e2632a6de409027,TCN,2024-06-25_09h40.27.219,LearnStrategy,2023.2.3,Win32,60.97560976,2,1,12,0.012962963,0.010185185,1,0,0,0.9764,rock_grid_rect_2,2,05,-1,-1,0.976,-0.148148148,-0.250925926,1,0,0,1.6035,Basalt_rect,2,1.603,1,11,0,11,0,1,,,,,,,,,,,,,
6658ee766e2632a6de409027,TCN,2024-06-25_09h40.27.219,LearnStrategy,2023.2.3,Win32,60.97560976,2,1,13,0.028703704,-0.007407407,1,0,0,0.96,rock_grid_rect_2,7,13,-1,-1,0.96,0.14537037,-0.392592593,1,0,0,1.5003,Peridotite_rect,7,1.5,1,12,0,12,0,1,,,,,,,,,,,,,
6658ee766e2632a6de409027,TCN,2024-06-25_09h40.27.219,LearnStrategy,2023.2.3,Win32,60.97560976,2,1,14,0.009259259,0.002777778,1,0,0,1.4239,rock_grid_rect_2,5,12,-1,-1,1.424,-0.37037037,-0.386111111,1,0,0,1.3018,Obsidian_rect,5,1.302,1,13,0,13,0,1,,,,,,,,,,,,,
6658ee766e2632a6de409027,TCN,2024-06-25_09h40.27.219,LearnStrategy,2023.2.3,Win32,60.97560976,2,1,15,0.015740741,0.013888889,1,0,0,0.9309,rock_grid_rect_2,4,16,-1,-1,0.931,-0.117592593,-0.269444444,1,0,0,3.4663,Basalt_rect,2,3.466,0,14,0,14,0,1,,,,,,,,,,,,,
6658ee766e2632a6de409027,TCN,2024-06-25_09h40.27.219,LearnStrategy,2023.2.3,Win32,60.97560976,2,1,16,-0.027777778,0.007407407,1,0,0,0.9034,rock_grid_rect_2,3,16,-1,-1,0.903,0.140740741,-0.266666667,1,0,0,1.269,Diorite_rect,3,1.269,1,15,0,15,0,1,,,,,,,,,,,,,
6658ee766e2632a6de409027,TCN,2024-06-25_09h40.27.219,LearnStrategy,2023.2.3,Win32,60.97560976,2,2,1,,,,,,,,1,16,,,,,,,,,,,4,13.15,0,,,,,,0.390740741,-0.244444444,1,0,0,13.1501,Gabbro_rect,0,0,0,0,1,
6658ee766e2632a6de409027,TCN,2024-06-25_09h40.27.219,LearnStrategy,2023.2.3,Win32,60.97560976,2,2,2,,,,,,,,1,03,,,,,,,,,,,1,2.996,1,,,,,,-0.371296296,-0.243518519,1,0,0,2.9958,Andesite_rect,1,0,1,0,1,
6658ee766e2632a6de409027,TCN,2024-06-25_09h40.27.219,LearnStrategy,2023.2.3,Win32,60.97560976,2,2,3,,,,,,,,6,11,,,,,,,,,,,7,3.134,0,,,,,,0.131481481,-0.398148148,1,0,0,3.1338,Peridotite_rect,2,0,2,0,1,
6658ee766e2632a6de409027,TCN,2024-06-25_09h40.27.219,LearnStrategy,2023.2.3,Win32,60.97560976,2,2,4,,,,,,,,4,13,,,,,,,,,,,3,3.026,0,,,,,,0.124074074,-0.233333333,1,0,0,3.0258,Diorite_rect,3,0,3,0,1,
6658ee766e2632a6de409027,TCN,2024-06-25_09h40.27.219,LearnStrategy,2023.2.3,Win32,60.97560976,2,2,5,,,,,,,,5,02,,,,,,,,,,,5,1.334,1,,,,,,-0.40462963,-0.389814815,1,0,0,1.3335,Obsidian_rect,4,0,4,0,1,
6658ee766e2632a6de409027,TCN,2024-06-25_09h40.27.219,LearnStrategy,2023.2.3,Win32,60.97560976,2,2,6,,,,,,,,4,15,,,,,,,,,,,6,2.015,0,,,,,,-0.10462963,-0.40462963,1,0,0,2.0154,Pegmatite_rect,5,0,5,0,1,
6658ee766e2632a6de409027,TCN,2024-06-25_09h40.27.219,LearnStrategy,2023.2.3,Win32,60.97560976,2,2,7,,,,,,,,6,05,,,,,,,,,,,3,1.648,0,,,,,,0.133333333,-0.25,1,0,0,1.6478,Diorite_rect,6,0,6,0,1,
6658ee766e2632a6de409027,TCN,2024-06-25_09h40.27.219,LearnStrategy,2023.2.3,Win32,60.97560976,2,2,8,,,,,,,,3,07,,,,,,,,,,,3,1.064,1,,,,,,0.126851852,-0.249074074,1,0,0,1.0636,Diorite_rect,7,0,7,0,1,
6658ee766e2632a6de409027,TCN,2024-06-25_09h40.27.219,LearnStrategy,2023.2.3,Win32,60.97560976,2,2,9,,,,,,,,2,11,,,,,,,,,,,1,2.205,0,,,,,,-0.414814815,-0.259259259,1,0,0,2.2046,Andesite_rect,8,0,8,0,1,
6658ee766e2632a6de409027,TCN,2024-06-25_09h40.27.219,LearnStrategy,2023.2.3,Win32,60.97560976,2,2,10,,,,,,,,3,13,,,,,,,,,,,3,4.566,1,,,,,,0.128703704,-0.261111111,1,0,0,4.5658,Diorite_rect,9,0,9,0,1,
6658ee766e2632a6de409027,TCN,2024-06-25_09h40.27.219,LearnStrategy,2023.2.3,Win32,60.97560976,2,2,11,,,,,,,,8,14,,,,,,,,,,,8,1.315,1,,,,,,0.421296296,-0.394444444,1,0,0,1.3145,Pumice_rect,10,0,10,0,1,
6658ee766e2632a6de409027,TCN,2024-06-25_09h40.27.219,LearnStrategy,2023.2.3,Win32,60.97560976,2,2,12,,,,,,,,7,06,,,,,,,,,,,7,1.683,1,,,,,,0.130555556,-0.399074074,1,0,0,1.6833,Peridotite_rect,11,0,11,0,1,
6658ee766e2632a6de409027,TCN,2024-06-25_09h40.27.219,LearnStrategy,2023.2.3,Win32,60.97560976,2,2,13,,,,,,,,2,16,,,,,,,,,,,2,3.069,1,,,,,,-0.133333333,-0.243518519,1,0,0,3.0685,Basalt_rect,12,0,12,0,1,
6658ee766e2632a6de409027,TCN,2024-06-25_09h40.27.219,LearnStrategy,2023.2.3,Win32,60.97560976,2,2,14,,,,,,,,5,06,,,,,,,,,,,1,4.837,0,,,,,,-0.375925926,-0.24537037,1,0,0,4.8373,Andesite_rect,13,0,13,0,1,
6658ee766e2632a6de409027,TCN,2024-06-25_09h40.27.219,LearnStrategy,2023.2.3,Win32,60.97560976,2,2,15,,,,,,,,7,07,,,,,,,,,,,7,1.309,1,,,,,,0.119444444,-0.416666667,1,0,0,1.3087,Peridotite_rect,14,0,14,0,1,
6658ee766e2632a6de409027,TCN,2024-06-25_09h40.27.219,LearnStrategy,2023.2.3,Win32,60.97560976,2,2,16,,,,,,,,8,13,,,,,,,,,,,8,1.993,1,,,,,,0.458333333,-0.415740741,1,0,0,1.9926,Pumice_rect,15,0,15,0,1,
6658ee766e2632a6de409027,TCN,2024-06-25_09h40.27.219,LearnStrategy,2023.2.3,Win32,60.97560976,3,1,1,0.025925926,-0.007407407,1,0,0,0.9955,rock_grid_rect_2,4,14,-1,-1,0.995,0.138888889,-0.242592593,1,0,0,1.6595,Diorite_rect,3,1.659,0,0,0,0,0,1,,,,,,,,,,,,,
6658ee766e2632a6de409027,TCN,2024-06-25_09h40.27.219,LearnStrategy,2023.2.3,Win32,60.97560976,3,1,2,0.015740741,0.003703704,1,0,0,1.0065,rock_grid_rect_2,6,16,-1,-1,1.007,0.121296296,-0.27037037,1,0,0,2.8805,Diorite_rect,3,2.88,0,1,0,1,0,1,,,,,,,,,,,,,
6658ee766e2632a6de409027,TCN,2024-06-25_09h40.27.219,LearnStrategy,2023.2.3,Win32,60.97560976,3,1,3,0.003703704,0.006481481,1,0,0,1.0778,rock_grid_rect_2,2,09,-1,-1,1.078,-0.398148148,-0.257407407,1,0,0,2.5867,Andesite_rect,1,2.587,0,2,0,2,0,1,,,,,,,,,,,,,
6658ee766e2632a6de409027,TCN,2024-06-25_09h40.27.219,LearnStrategy,2023.2.3,Win32,60.97560976,3,1,4,-0.001851852,0.000925926,1,0,0,1.0789,rock_grid_rect_2,7,05,-1,-1,1.079,0.147222222,-0.408333333,1,0,0,1.3216,Peridotite_rect,7,1.322,1,3,0,3,0,1,,,,,,,,,,,,,
6658ee766e2632a6de409027,TCN,2024-06-25_09h40.27.219,LearnStrategy,2023.2.3,Win32,60.97560976,3,1,5,0.011111111,-0.001851852,1,0,0,1.0712,rock_grid_rect_2,2,01,-1,-1,1.071,-0.112962963,-0.246296296,1,0,0,2.8951,Basalt_rect,2,2.895,1,4,0,4,0,1,,,,,,,,,,,,,
6658ee766e2632a6de409027,TCN,2024-06-25_09h40.27.219,LearnStrategy,2023.2.3,Win32,60.97560976,3,1,6,0.011111111,-0.008333333,1,0,0,1.0113,rock_grid_rect_2,7,14,-1,-1,1.011,0.137037037,-0.387962963,1,0,0,3.24,Peridotite_rect,7,3.24,1,5,0,5,0,1,,,,,,,,,,,,,
6658ee766e2632a6de409027,TCN,2024-06-25_09h40.27.219,LearnStrategy,2023.2.3,Win32,60.97560976,3,1,7,0.025925926,0.002777778,1,0,0,0.7623,rock_grid_rect_2,1,02,-1,-1,0.762,0.399074074,-0.244444444,1,0,0,3.1759,Gabbro_rect,4,3.176,0,6,0,6,0,1,,,,,,,,,,,,,
6658ee766e2632a6de409027,TCN,2024-06-25_09h40.27.219,LearnStrategy,2023.2.3,Win32,60.97560976,3,1,8,-0.005555556,0.006481481,1,0,0,1.2522,rock_grid_rect_2,4,01,-1,-1,1.252,0.132407407,-0.400925926,1,0,0,2.8013,Peridotite_rect,7,2.801,0,7,0,7,0,1,,,,,,,,,,,,,
6658ee766e2632a6de409027,TCN,2024-06-25_09h40.27.219,LearnStrategy,2023.2.3,Win32,60.97560976,3,1,9,0.072222222,-0.002777778,1,0,0,1.0411,rock_grid_rect_2,5,14,-1,-1,1.041,-0.361111111,-0.388888889,1,0,0,1.1413,Obsidian_rect,5,1.141,1,8,0,8,0,1,,,,,,,,,,,,,
6658ee766e2632a6de409027,TCN,2024-06-25_09h40.27.219,LearnStrategy,2023.2.3,Win32,60.97560976,3,1,10,0.049074074,0.00462963,1,0,0,0.9402,rock_grid_rect_2,3,11,-1,-1,0.94,0.137037037,-0.242592593,1,0,0,1.4003,Diorite_rect,3,1.4,1,9,0,9,0,1,,,,,,,,,,,,,
6658ee766e2632a6de409027,TCN,2024-06-25_09h40.27.219,LearnStrategy,2023.2.3,Win32,60.97560976,3,1,11,0.005555556,-0.002777778,1,0,0,0.9973,rock_grid_rect_2,3,08,-1,-1,0.997,0.136111111,-0.242592593,1,0,0,2.1458,Diorite_rect,3,2.146,1,10,0,10,0,1,,,,,,,,,,,,,
6658ee766e2632a6de409027,TCN,2024-06-25_09h40.27.219,LearnStrategy,2023.2.3,Win32,60.97560976,3,1,12,0.010185185,0.00462963,1,0,0,0.9742,rock_grid_rect_2,8,05,-1,-1,0.974,0.381481481,-0.392592593,1,0,0,1.3094,Pumice_rect,8,1.309,1,11,0,11,0,1,,,,,,,,,,,,,
6658ee766e2632a6de409027,TCN,2024-06-25_09h40.27.219,LearnStrategy,2023.2.3,Win32,60.97560976,3,1,13,0.052777778,-0.006481481,1,0,0,1.0486,rock_grid_rect_2,1,14,-1,-1,1.049,-0.392592593,-0.243518519,1,0,0,3.236,Andesite_rect,1,3.236,1,12,0,12,0,1,,,,,,,,,,,,,
6658ee766e2632a6de409027,TCN,2024-06-25_09h40.27.219,LearnStrategy,2023.2.3,Win32,60.97560976,3,1,14,-0.008333333,0.002777778,1,0,0,1.0649,rock_grid_rect_2,6,06,-1,-1,1.065,-0.101851852,-0.387962963,1,0,0,2.3709,Pegmatite_rect,6,2.371,1,13,0,13,0,1,,,,,,,,,,,,,
6658ee766e2632a6de409027,TCN,2024-06-25_09h40.27.219,LearnStrategy,2023.2.3,Win32,60.97560976,3,1,15,-0.00462963,0.009259259,1,0,0,1.0096,rock_grid_rect_2,5,10,-1,-1,1.01,-0.374074074,-0.383333333,1,0,0,1.1914,Obsidian_rect,5,1.191,1,14,0,14,0,1,,,,,,,,,,,,,
6658ee766e2632a6de409027,TCN,2024-06-25_09h40.27.219,LearnStrategy,2023.2.3,Win32,60.97560976,3,1,16,-0.041666667,0.011111111,1,0,0,0.7692,rock_grid_rect_2,8,06,-1,-1,0.769,0.39537037,-0.394444444,1,0,0,1.1109,Pumice_rect,8,1.111,1,15,0,15,0,1,,,,,,,,,,,,,
6658ee766e2632a6de409027,TCN,2024-06-25_09h40.27.219,LearnStrategy,2023.2.3,Win32,60.97560976,3,2,1,,,,,,,,7,02,,,,,,,,,,,7,1.336,1,,,,,,0.161111111,-0.389814815,1,0,0,1.3358,Peridotite_rect,0,0,0,0,1,
6658ee766e2632a6de409027,TCN,2024-06-25_09h40.27.219,LearnStrategy,2023.2.3,Win32,60.97560976,3,2,2,,,,,,,,8,03,,,,,,,,,,,8,1.117,1,,,,,,0.385185185,-0.393518519,1,0,0,1.117,Pumice_rect,1,0,1,0,1,
6658ee766e2632a6de409027,TCN,2024-06-25_09h40.27.219,LearnStrategy,2023.2.3,Win32,60.97560976,3,2,3,,,,,,,,3,06,,,,,,,,,,,3,1.407,1,,,,,,0.143518519,-0.237962963,1,0,0,1.4074,Diorite_rect,2,0,2,0,1,
6658ee766e2632a6de409027,TCN,2024-06-25_09h40.27.219,LearnStrategy,2023.2.3,Win32,60.97560976,3,2,4,,,,,,,,1,06,,,,,,,,,,,1,1.132,1,,,,,,-0.365740741,-0.232407407,1,0,0,1.1315,Andesite_rect,3,0,3,0,1,
6658ee766e2632a6de409027,TCN,2024-06-25_09h40.27.219,LearnStrategy,2023.2.3,Win32,60.97560976,3,2,5,,,,,,,,2,06,,,,,,,,,,,2,1.258,1,,,,,,-0.140740741,-0.24537037,1,0,0,1.2579,Basalt_rect,4,0,4,0,1,
6658ee766e2632a6de409027,TCN,2024-06-25_09h40.27.219,LearnStrategy,2023.2.3,Win32,60.97560976,3,2,6,,,,,,,,5,09,,,,,,,,,,,5,1.047,1,,,,,,-0.356481481,-0.386111111,1,0,0,1.047,Obsidian_rect,5,0,5,0,1,
6658ee766e2632a6de409027,TCN,2024-06-25_09h40.27.219,LearnStrategy,2023.2.3,Win32,60.97560976,3,2,7,,,,,,,,4,05,,,,,,,,,,,4,5.839,1,,,,,,0.389814815,-0.251851852,1,0,0,5.8389,Gabbro_rect,6,0,6,0,1,
6658ee766e2632a6de409027,TCN,2024-06-25_09h40.27.219,LearnStrategy,2023.2.3,Win32,60.97560976,3,2,8,,,,,,,,3,12,,,,,,,,,,,3,1.948,1,,,,,,0.127777778,-0.235185185,1,0,0,1.9484,Diorite_rect,7,0,7,0,1,
6658ee766e2632a6de409027,TCN,2024-06-25_09h40.27.219,LearnStrategy,2023.2.3,Win32,60.97560976,3,2,9,,,,,,,,7,15,,,,,,,,,,,7,1.117,1,,,,,,0.132407407,-0.403703704,1,0,0,1.117,Peridotite_rect,8,0,8,0,1,
6658ee766e2632a6de409027,TCN,2024-06-25_09h40.27.219,LearnStrategy,2023.2.3,Win32,60.97560976,3,2,10,,,,,,,,1,01,,,,,,,,,,,1,2.786,1,,,,,,-0.390740741,-0.241666667,1,0,0,2.7864,Andesite_rect,9,0,9,0,1,
6658ee766e2632a6de409027,TCN,2024-06-25_09h40.27.219,LearnStrategy,2023.2.3,Win32,60.97560976,3,2,11,,,,,,,,5,05,,,,,,,,,,,5,1.569,1,,,,,,-0.366666667,-0.39537037,1,0,0,1.5689,Obsidian_rect,10,0,10,0,1,
6658ee766e2632a6de409027,TCN,2024-06-25_09h40.27.219,LearnStrategy,2023.2.3,Win32,60.97560976,3,2,12,,,,,,,,6,09,,,,,,,,,,,6,1.46,1,,,,,,-0.111111111,-0.394444444,1,0,0,1.46,Pegmatite_rect,11,0,11,0,1,
6658ee766e2632a6de409027,TCN,2024-06-25_09h40.27.219,LearnStrategy,2023.2.3,Win32,60.97560976,3,2,13,,,,,,,,8,08,,,,,,,,,,,8,3.344,1,,,,,,0.412962963,-0.398148148,1,0,0,3.3439,Pumice_rect,12,0,12,0,1,
6658ee766e2632a6de409027,TCN,2024-06-25_09h40.27.219,LearnStrategy,2023.2.3,Win32,60.97560976,3,2,14,,,,,,,,4,10,,,,,,,,,,,1,4.689,0,,,,,,-0.407407407,-0.253703704,1,0,0,4.6887,Andesite_rect,13,0,13,0,1,
6658ee766e2632a6de409027,TCN,2024-06-25_09h40.27.219,LearnStrategy,2023.2.3,Win32,60.97560976,3,2,15,,,,,,,,6,12,,,,,,,,,,,6,2.294,1,,,,,,-0.138888889,-0.397222222,1,0,0,2.2941,Pegmatite_rect,14,0,14,0,1,
6658ee766e2632a6de409027,TCN,2024-06-25_09h40.27.219,LearnStrategy,2023.2.3,Win32,60.97560976,3,2,16,,,,,,,,2,02,,,,,,,,,,,2,1.181,1,,,,,,-0.125,-0.246296296,1,0,0,1.1808,Basalt_rect,15,0,15,0,1,
6658ee766e2632a6de409027,TCN,2024-06-25_09h40.27.219,LearnStrategy,2023.2.3,Win32,60.97560976,4,1,1,0.136111111,-0.006481481,1,0,0,0.7126,rock_grid_rect_2,2,01,-1,-1,0.713,-0.110185185,-0.249074074,1,0,0,1.1829,Basalt_rect,2,1.183,1,0,0,0,0,1,,,,,,,,,,,,,
6658ee766e2632a6de409027,TCN,2024-06-25_09h40.27.219,LearnStrategy,2023.2.3,Win32,60.97560976,4,1,2,-0.007407407,-0.00462963,1,0,0,0.8129,rock_grid_rect_2,5,14,-1,-1,0.813,-0.387962963,-0.392592593,1,0,0,1.1741,Obsidian_rect,5,1.174,1,1,0,1,0,1,,,,,,,,,,,,,
6658ee766e2632a6de409027,TCN,2024-06-25_09h40.27.219,LearnStrategy,2023.2.3,Win32,60.97560976,4,1,3,-0.001851852,-0.006481481,1,0,0,0.9692,rock_grid_rect_2,2,09,-1,-1,0.969,-0.115740741,-0.237037037,1,0,0,0.9348,Basalt_rect,2,0.935,1,2,0,2,0,1,,,,,,,,,,,,,
6658ee766e2632a6de409027,TCN,2024-06-25_09h40.27.219,LearnStrategy,2023.2.3,Win32,60.97560976,4,1,4,-0.038888889,-0.003703704,1,0,0,0.7103,rock_grid_rect_2,1,02,-1,-1,0.71,-0.351851852,-0.22962963,1,0,0,1.3114,Andesite_rect,1,1.311,1,3,0,3,0,1,,,,,,,,,,,,,
6658ee766e2632a6de409027,TCN,2024-06-25_09h40.27.219,LearnStrategy,2023.2.3,Win32,60.97560976,4,1,5,-0.02962963,0.014814815,1,0,0,0.7561,rock_grid_rect_2,5,11,-1,-1,0.756,-0.371296296,-0.388888889,1,0,0,1.0383,Obsidian_rect,5,1.038,1,4,0,4,0,1,,,,,,,,,,,,,
6658ee766e2632a6de409027,TCN,2024-06-25_09h40.27.219,LearnStrategy,2023.2.3,Win32,60.97560976,4,1,6,0.005555556,-0.003703704,1,0,0,0.7976,rock_grid_rect_2,4,11,-1,-1,0.798,-0.124074074,-0.260185185,1,0,0,1.6777,Basalt_rect,2,1.678,0,5,0,5,0,1,,,,,,,,,,,,,
6658ee766e2632a6de409027,TCN,2024-06-25_09h40.27.219,LearnStrategy,2023.2.3,Win32,60.97560976,4,1,7,0.016666667,-0.000925926,1,0,0,0.9535,rock_grid_rect_2,6,10,-1,-1,0.953,0.109259259,-0.392592593,1,0,0,2.8662,Peridotite_rect,7,2.866,0,6,0,6,0,1,,,,,,,,,,,,,
6658ee766e2632a6de409027,TCN,2024-06-25_09h40.27.219,LearnStrategy,2023.2.3,Win32,60.97560976,4,1,8,0.011111111,0.001851852,1,0,0,0.7742,rock_grid_rect_2,1,04,-1,-1,0.774,0.394444444,-0.257407407,1,0,0,2.8315,Gabbro_rect,4,2.832,0,7,0,7,0,1,,,,,,,,,,,,,
6658ee766e2632a6de409027,TCN,2024-06-25_09h40.27.219,LearnStrategy,2023.2.3,Win32,60.97560976,4,1,9,0.00462963,-0.001851852,1,0,0,0.884,rock_grid_rect_2,4,16,-1,-1,0.884,-0.128703704,-0.247222222,1,0,0,1.685,Basalt_rect,2,1.685,0,8,0,8,0,1,,,,,,,,,,,,,
6658ee766e2632a6de409027,TCN,2024-06-25_09h40.27.219,LearnStrategy,2023.2.3,Win32,60.97560976,4,1,10,0.013888889,-0.003703704,1,0,0,0.9914,rock_grid_rect_2,7,13,-1,-1,0.991,0.118518519,-0.413888889,1,0,0,1.0016,Peridotite_rect,7,1.002,1,9,0,9,0,1,,,,,,,,,,,,,
6658ee766e2632a6de409027,TCN,2024-06-25_09h40.27.219,LearnStrategy,2023.2.3,Win32,60.97560976,4,1,11,-0.012037037,-0.001851852,1,0,0,0.8274,rock_grid_rect_2,6,03,-1,-1,0.827,-0.115740741,-0.388888889,1,0,0,1.3132,Pegmatite_rect,6,1.313,1,10,0,10,0,1,,,,,,,,,,,,,
6658ee766e2632a6de409027,TCN,2024-06-25_09h40.27.219,LearnStrategy,2023.2.3,Win32,60.97560976,4,1,12,-0.012037037,-0.005555556,1,0,0,0.8206,rock_grid_rect_2,7,08,-1,-1,0.821,0.137962963,-0.398148148,1,0,0,1.3322,Peridotite_rect,7,1.332,1,11,0,11,0,1,,,,,,,,,,,,,
6658ee766e2632a6de409027,TCN,2024-06-25_09h40.27.219,LearnStrategy,2023.2.3,Win32,60.97560976,4,1,13,-0.006481481,0.006481481,1,0,0,1.0355,rock_grid_rect_2,8,02,-1,-1,1.035,0.375925926,-0.391666667,1,0,0,1.5108,Pumice_rect,8,1.511,1,12,0,12,0,1,,,,,,,,,,,,,
6658ee766e2632a6de409027,TCN,2024-06-25_09h40.27.219,LearnStrategy,2023.2.3,Win32,60.97560976,4,1,14,0.00462963,0.005555556,1,0,0,1.0227,rock_grid_rect_2,8,15,-1,-1,1.023,0.384259259,-0.391666667,1,0,0,1.0049,Pumice_rect,8,1.005,1,13,0,13,0,1,,,,,,,,,,,,,
6658ee766e2632a6de409027,TCN,2024-06-25_09h40.27.219,LearnStrategy,2023.2.3,Win32,60.97560976,4,1,15,-0.011111111,-0.000925926,1,0,0,0.8604,rock_grid_rect_2,3,09,-1,-1,0.86,0.122222222,-0.241666667,1,0,0,1.1262,Diorite_rect,3,1.126,1,14,0,14,0,1,,,,,,,,,,,,,
6658ee766e2632a6de409027,TCN,2024-06-25_09h40.27.219,LearnStrategy,2023.2.3,Win32,60.97560976,4,1,16,0.009259259,-0.002777778,1,0,0,0.8036,rock_grid_rect_2,3,11,-1,-1,0.804,0.396296296,-0.25,1,0,0,3.3597,Gabbro_rect,4,3.36,0,15,0,15,0,1,,,,,,,,,,,,,
6658ee766e2632a6de409027,TCN,2024-06-25_09h40.27.219,LearnStrategy,2023.2.3,Win32,60.97560976,4,2,1,,,,,,,,4,15,,,,,,,,,,,1,1.996,0,,,,,,-0.328703704,-0.269444444,1,0,0,1.9959,Andesite_rect,0,0,0,0,1,
6658ee766e2632a6de409027,TCN,2024-06-25_09h40.27.219,LearnStrategy,2023.2.3,Win32,60.97560976,4,2,2,,,,,,,,7,16,,,,,,,,,,,4,6.626,0,,,,,,0.396296296,-0.244444444,1,0,0,6.6261,Gabbro_rect,1,0,1,0,1,
6658ee766e2632a6de409027,TCN,2024-06-25_09h40.27.219,LearnStrategy,2023.2.3,Win32,60.97560976,4,2,3,,,,,,,,7,06,,,,,,,,,,,7,4.655,1,,,,,,0.134259259,-0.402777778,1,0,0,4.6553,Peridotite_rect,2,0,2,0,1,
6658ee766e2632a6de409027,TCN,2024-06-25_09h40.27.219,LearnStrategy,2023.2.3,Win32,60.97560976,4,2,4,,,,,,,,1,16,,,,,,,,,,,1,4.74,1,,,,,,-0.358333333,-0.246296296,1,0,0,4.7402,Andesite_rect,3,0,3,0,1,
6658ee766e2632a6de409027,TCN,2024-06-25_09h40.27.219,LearnStrategy,2023.2.3,Win32,60.97560976,4,2,5,,,,,,,,2,02,,,,,,,,,,,2,1.266,1,,,,,,-0.17037037,-0.241666667,1,0,0,1.266,Basalt_rect,4,0,4,0,1,
6658ee766e2632a6de409027,TCN,2024-06-25_09h40.27.219,LearnStrategy,2023.2.3,Win32,60.97560976,4,2,6,,,,,,,,5,08,,,,,,,,,,,5,1.131,1,,,,,,-0.388888889,-0.402777778,1,0,0,1.1313,Obsidian_rect,5,0,5,0,1,
6658ee766e2632a6de409027,TCN,2024-06-25_09h40.27.219,LearnStrategy,2023.2.3,Win32,60.97560976,4,2,7,,,,,,,,3,12,,,,,,,,,,,3,1.391,1,,,,,,0.136111111,-0.252777778,1,0,0,1.3908,Diorite_rect,6,0,6,0,1,
6658ee766e2632a6de409027,TCN,2024-06-25_09h40.27.219,LearnStrategy,2023.2.3,Win32,60.97560976,4,2,8,,,,,,,,2,06,,,,,,,,,,,2,0.907,1,,,,,,-0.125,-0.230555556,1,0,0,0.9066,Basalt_rect,7,0,7,0,1,
6658ee766e2632a6de409027,TCN,2024-06-25_09h40.27.219,LearnStrategy,2023.2.3,Win32,60.97560976,4,2,9,,,,,,,,1,06,,,,,,,,,,,4,1.742,0,,,,,,0.391666667,-0.244444444,1,0,0,1.7421,Gabbro_rect,8,0,8,0,1,
6658ee766e2632a6de409027,TCN,2024-06-25_09h40.27.219,LearnStrategy,2023.2.3,Win32,60.97560976,4,2,10,,,,,,,,3,15,,,,,,,,,,,3,2.589,1,,,,,,0.133333333,-0.246296296,1,0,0,2.5891,Diorite_rect,9,0,9,0,1,
6658ee766e2632a6de409027,TCN,2024-06-25_09h40.27.219,LearnStrategy,2023.2.3,Win32,60.97560976,4,2,11,,,,,,,,8,08,,,,,,,,,,,8,1.396,1,,,,,,0.383333333,-0.398148148,1,0,0,1.3957,Pumice_rect,10,0,10,0,1,
6658ee766e2632a6de409027,TCN,2024-06-25_09h40.27.219,LearnStrategy,2023.2.3,Win32,60.97560976,4,2,12,,,,,,,,4,10,,,,,,,,,,,5,5.41,0,,,,,,-0.380555556,-0.388888889,1,0,0,5.4102,Obsidian_rect,11,0,11,0,1,
6658ee766e2632a6de409027,TCN,2024-06-25_09h40.27.219,LearnStrategy,2023.2.3,Win32,60.97560976,4,2,13,,,,,,,,8,13,,,,,,,,,,,8,1.9,1,,,,,,0.387962963,-0.388888889,1,0,0,1.8995,Pumice_rect,12,0,12,0,1,
6658ee766e2632a6de409027,TCN,2024-06-25_09h40.27.219,LearnStrategy,2023.2.3,Win32,60.97560976,4,2,14,,,,,,,,6,09,,,,,,,,,,,6,1.419,1,,,,,,-0.138888889,-0.401851852,1,0,0,1.4191,Pegmatite_rect,13,0,13,0,1,
6658ee766e2632a6de409027,TCN,2024-06-25_09h40.27.219,LearnStrategy,2023.2.3,Win32,60.97560976,4,2,15,,,,,,,,5,06,,,,,,,,,,,5,2.059,1,,,,,,-0.406481481,-0.400925926,1,0,0,2.0589,Obsidian_rect,14,0,14,0,1,
6658ee766e2632a6de409027,TCN,2024-06-25_09h40.27.219,LearnStrategy,2023.2.3,Win32,60.97560976,4,2,16,,,,,,,,6,07,,,,,,,,,,,6,1.929,1,,,,,,-0.126851852,-0.403703704,1,0,0,1.9292,Pegmatite_rect,15,0,15,0,1,
6658ee766e2632a6de409027,TCN,2024-06-25_09h40.27.219,LearnStrategy,2023.2.3,Win32,60.97560976,5,1,1,0.048148148,0.001851852,1,0,0,0.9107,rock_grid_rect_2,1,07,-1,-1,0.911,0.373148148,-0.241666667,1,0,0,2.3265,Gabbro_rect,4,2.327,0,0,0,0,0,1,,,,,,,,,,,,,
6658ee766e2632a6de409027,TCN,2024-06-25_09h40.27.219,LearnStrategy,2023.2.3,Win32,60.97560976,5,1,2,0.015740741,-0.010185185,1,0,0,0.89,rock_grid_rect_2,2,05,-1,-1,0.89,-0.114814815,-0.259259259,1,0,0,1.4222,Basalt_rect,2,1.422,1,1,0,1,0,1,,,,,,,,,,,,,
6658ee766e2632a6de409027,TCN,2024-06-25_09h40.27.219,LearnStrategy,2023.2.3,Win32,60.97560976,5,1,3,-0.011111111,0.000925926,1,0,0,0.9628,rock_grid_rect_2,8,09,-1,-1,0.963,0.399074074,-0.402777778,1,0,0,1.3108,Pumice_rect,8,1.311,1,2,0,2,0,1,,,,,,,,,,,,,
6658ee766e2632a6de409027,TCN,2024-06-25_09h40.27.219,LearnStrategy,2023.2.3,Win32,60.97560976,5,1,4,-0.034259259,-0.007407407,1,0,0,0.8306,rock_grid_rect_2,1,10,-1,-1,0.831,-0.380555556,-0.241666667,1,0,0,2.3783,Andesite_rect,1,2.378,1,3,0,3,0,1,,,,,,,,,,,,,
6658ee766e2632a6de409027,TCN,2024-06-25_09h40.27.219,LearnStrategy,2023.2.3,Win32,60.97560976,5,1,5,0.012037037,0.001851852,1,0,0,0.9767,rock_grid_rect_2,4,03,-1,-1,0.977,0.149074074,-0.263888889,1,0,0,2.2087,Diorite_rect,3,2.209,0,4,0,4,0,1,,,,,,,,,,,,,
6658ee766e2632a6de409027,TCN,2024-06-25_09h40.27.219,LearnStrategy,2023.2.3,Win32,60.97560976,5,1,6,-0.008333333,-0.003703704,1,0,0,0.7339,rock_grid_rect_2,6,08,-1,-1,0.734,-0.121296296,-0.417592593,1,0,0,1.298,Pegmatite_rect,6,1.298,1,5,0,5,0,1,,,,,,,,,,,,,
6658ee766e2632a6de409027,TCN,2024-06-25_09h40.27.219,LearnStrategy,2023.2.3,Win32,60.97560976,5,1,7,-0.019444444,0.008333333,1,0,0,0.7911,rock_grid_rect_2,5,16,-1,-1,0.791,-0.356481481,-0.383333333,1,0,0,1.0297,Obsidian_rect,5,1.03,1,6,0,6,0,1,,,,,,,,,,,,,
6658ee766e2632a6de409027,TCN,2024-06-25_09h40.27.219,LearnStrategy,2023.2.3,Win32,60.97560976,5,1,8,0.006481481,0.010185185,1,0,0,0.8819,rock_grid_rect_2,4,01,-1,-1,0.882,0.393518519,-0.242592593,1,0,0,1.9726,Gabbro_rect,4,1.973,1,7,0,7,0,1,,,,,,,,,,,,,
6658ee766e2632a6de409027,TCN,2024-06-25_09h40.27.219,LearnStrategy,2023.2.3,Win32,60.97560976,5,1,9,-0.021296296,-0.003703704,1,0,0,0.8037,rock_grid_rect_2,8,06,-1,-1,0.804,0.371296296,-0.397222222,1,0,0,0.9897,Pumice_rect,8,0.99,1,8,0,8,0,1,,,,,,,,,,,,,
6658ee766e2632a6de409027,TCN,2024-06-25_09h40.27.219,LearnStrategy,2023.2.3,Win32,60.97560976,5,1,10,-0.00462963,-0.013888889,1,0,0,0.8708,rock_grid_rect_2,3,10,-1,-1,0.871,0.159259259,-0.247222222,1,0,0,1.1297,Diorite_rect,3,1.13,1,9,0,9,0,1,,,,,,,,,,,,,
6658ee766e2632a6de409027,TCN,2024-06-25_09h40.27.219,LearnStrategy,2023.2.3,Win32,60.97560976,5,1,11,-0.024074074,0.006481481,1,0,0,0.7477,rock_grid_rect_2,6,13,-1,-1,0.748,-0.1,-0.414814815,1,0,0,1.514,Pegmatite_rect,6,1.514,1,10,0,10,0,1,,,,,,,,,,,,,
6658ee766e2632a6de409027,TCN,2024-06-25_09h40.27.219,LearnStrategy,2023.2.3,Win32,60.97560976,5,1,12,-0.014814815,-0.006481481,1,0,0,0.7734,rock_grid_rect_2,5,07,-1,-1,0.773,-0.362037037,-0.387037037,1,0,0,1.7552,Obsidian_rect,5,1.755,1,11,0,11,0,1,,,,,,,,,,,,,
6658ee766e2632a6de409027,TCN,2024-06-25_09h40.27.219,LearnStrategy,2023.2.3,Win32,60.97560976,5,1,13,0.002777778,-0.002777778,1,0,0,0.9846,rock_grid_rect_2,7,05,-1,-1,0.985,0.12037037,-0.412962963,1,0,0,2.1066,Peridotite_rect,7,2.107,1,12,0,12,0,1,,,,,,,,,,,,,
6658ee766e2632a6de409027,TCN,2024-06-25_09h40.27.219,LearnStrategy,2023.2.3,Win32,60.97560976,5,1,14,0.002777778,-0.00462963,1,0,0,0.7468,rock_grid_rect_2,2,08,-1,-1,0.747,-0.122222222,-0.239814815,1,0,0,1.2777,Basalt_rect,2,1.278,1,13,0,13,0,1,,,,,,,,,,,,,
6658ee766e2632a6de409027,TCN,2024-06-25_09h40.27.219,LearnStrategy,2023.2.3,Win32,60.97560976,5,1,15,0.012037037,0.008333333,1,0,0,0.8617,rock_grid_rect_2,7,04,-1,-1,0.862,-0.115740741,-0.392592593,1,0,0,2.6296,Pegmatite_rect,6,2.63,0,14,0,14,0,1,,,,,,,,,,,,,
6658ee766e2632a6de409027,TCN,2024-06-25_09h40.27.219,LearnStrategy,2023.2.3,Win32,60.97560976,5,1,16,-0.014814815,-0.008333333,1,0,0,0.9669,rock_grid_rect_2,3,16,-1,-1,0.967,0.152777778,-0.259259259,1,0,0,4.2459,Diorite_rect,3,4.246,1,15,0,15,0,1,,,,,,,,,,,,,
6658ee766e2632a6de409027,TCN,2024-06-25_09h40.27.219,LearnStrategy,2023.2.3,Win32,60.97560976,5,2,1,,,,,,,,4,05,,,,,,,,,,,1,2.483,0,,,,,,-0.376851852,-0.246296296,1,0,0,2.4831,Andesite_rect,0,0,0,0,1,
6658ee766e2632a6de409027,TCN,2024-06-25_09h40.27.219,LearnStrategy,2023.2.3,Win32,60.97560976,5,2,2,,,,,,,,1,03,,,,,,,,,,,1,2.37,1,,,,,,-0.364814815,-0.25,1,0,0,2.3701,Andesite_rect,1,0,1,0,1,
6658ee766e2632a6de409027,TCN,2024-06-25_09h40.27.219,LearnStrategy,2023.2.3,Win32,60.97560976,5,2,3,,,,,,,,2,16,,,,,,,,,,,2,3.158,1,,,,,,-0.117592593,-0.253703704,1,0,0,3.1577,Basalt_rect,2,0,2,0,1,
6658ee766e2632a6de409027,TCN,2024-06-25_09h40.27.219,LearnStrategy,2023.2.3,Win32,60.97560976,5,2,4,,,,,,,,1,01,,,,,,,,,,,4,2.641,0,,,,,,0.380555556,-0.252777778,1,0,0,2.6412,Gabbro_rect,3,0,3,0,1,
6658ee766e2632a6de409027,TCN,2024-06-25_09h40.27.219,LearnStrategy,2023.2.3,Win32,60.97560976,5,2,5,,,,,,,,5,04,,,,,,,,,,,5,1.13,1,,,,,,-0.430555556,-0.398148148,1,0,0,1.1303,Obsidian_rect,4,0,4,0,1,
6658ee766e2632a6de409027,TCN,2024-06-25_09h40.27.219,LearnStrategy,2023.2.3,Win32,60.97560976,5,2,6,,,,,,,,3,13,,,,,,,,,,,3,3.148,1,,,,,,0.15462963,-0.259259259,1,0,0,3.148,Diorite_rect,5,0,5,0,1,
6658ee766e2632a6de409027,TCN,2024-06-25_09h40.27.219,LearnStrategy,2023.2.3,Win32,60.97560976,5,2,7,,,,,,,,7,15,,,,,,,,,,,7,1.075,1,,,,,,0.141666667,-0.405555556,1,0,0,1.0747,Peridotite_rect,6,0,6,0,1,
6658ee766e2632a6de409027,TCN,2024-06-25_09h40.27.219,LearnStrategy,2023.2.3,Win32,60.97560976,5,2,8,,,,,,,,4,12,,,,,,,,,,,1,2.476,0,,,,,,-0.367592593,-0.242592593,1,0,0,2.4762,Andesite_rect,7,0,7,0,1,
6658ee766e2632a6de409027,TCN,2024-06-25_09h40.27.219,LearnStrategy,2023.2.3,Win32,60.97560976,5,2,9,,,,,,,,8,03,,,,,,,,,,,8,0.964,1,,,,,,0.426851852,-0.398148148,1,0,0,0.9643,Pumice_rect,8,0,8,0,1,
6658ee766e2632a6de409027,TCN,2024-06-25_09h40.27.219,LearnStrategy,2023.2.3,Win32,60.97560976,5,2,10,,,,,,,,2,10,,,,,,,,,,,2,2.715,1,,,,,,-0.151851852,-0.25,1,0,0,2.7153,Basalt_rect,9,0,9,0,1,
6658ee766e2632a6de409027,TCN,2024-06-25_09h40.27.219,LearnStrategy,2023.2.3,Win32,60.97560976,5,2,11,,,,,,,,6,11,,,,,,,,,,,6,1.241,1,,,,,,-0.113888889,-0.406481481,1,0,0,1.2412,Pegmatite_rect,10,0,10,0,1,
6658ee766e2632a6de409027,TCN,2024-06-25_09h40.27.219,LearnStrategy,2023.2.3,Win32,60.97560976,5,2,12,,,,,,,,5,09,,,,,,,,,,,5,1.285,1,,,,,,-0.352777778,-0.394444444,1,0,0,1.2848,Obsidian_rect,11,0,11,0,1,
6658ee766e2632a6de409027,TCN,2024-06-25_09h40.27.219,LearnStrategy,2023.2.3,Win32,60.97560976,5,2,13,,,,,,,,6,05,,,,,,,,,,,3,3.872,0,,,,,,0.123148148,-0.239814815,1,0,0,3.8723,Diorite_rect,12,0,12,0,1,
6658ee766e2632a6de409027,TCN,2024-06-25_09h40.27.219,LearnStrategy,2023.2.3,Win32,60.97560976,5,2,14,,,,,,,,8,10,,,,,,,,,,,8,1.776,1,,,,,,0.387037037,-0.387962963,1,0,0,1.7759,Pumice_rect,13,0,13,0,1,
6658ee766e2632a6de409027,TCN,2024-06-25_09h40.27.219,LearnStrategy,2023.2.3,Win32,60.97560976,5,2,15,,,,,,,,7,02,,,,,,,,,,,7,1.235,1,,,,,,0.134259259,-0.389814815,1,0,0,1.2346,Peridotite_rect,14,0,14,0,1,
6658ee766e2632a6de409027,TCN,2024-06-25_09h40.27.219,LearnStrategy,2023.2.3,Win32,60.97560976,5,2,16,,,,,,,,3,07,,,,,,,,,,,3,1.389,1,,,,,,0.133333333,-0.24537037,1,0,0,1.3892,Diorite_rect,15,0,15,0,1,
6658ee766e2632a6de409027,TCN,2024-06-25_09h40.27.219,LearnStrategy,2023.2.3,Win32,60.97560976,6,1,1,0.038888889,0.002777778,1,0,0,0.7349,rock_grid_rect_2,7,14,-1,-1,0.735,0.410185185,-0.246296296,1,0,0,2.4473,Gabbro_rect,4,2.447,0,0,0,0,0,1,,,,,,,,,,,,,
6658ee766e2632a6de409027,TCN,2024-06-25_09h40.27.219,LearnStrategy,2023.2.3,Win32,60.97560976,6,1,2,0.024074074,-0.009259259,1,0,0,0.8484,rock_grid_rect_2,5,12,-1,-1,0.848,-0.384259259,-0.398148148,1,0,0,1.1752,Obsidian_rect,5,1.175,1,1,0,1,0,1,,,,,,,,,,,,,
6658ee766e2632a6de409027,TCN,2024-06-25_09h40.27.219,LearnStrategy,2023.2.3,Win32,60.97560976,6,1,3,-0.015740741,-0.003703704,1,0,0,0.8453,rock_grid_rect_2,8,05,-1,-1,0.845,0.375,-0.403703704,1,0,0,1.2188,Pumice_rect,8,1.219,1,2,0,2,0,1,,,,,,,,,,,,,
6658ee766e2632a6de409027,TCN,2024-06-25_09h40.27.219,LearnStrategy,2023.2.3,Win32,60.97560976,6,1,4,-0.011111111,-0.003703704,1,0,0,0.7769,rock_grid_rect_2,3,14,-1,-1,0.777,0.172222222,-0.257407407,1,0,0,0.8922,Diorite_rect,3,0.892,1,3,0,3,0,1,,,,,,,,,,,,,
6658ee766e2632a6de409027,TCN,2024-06-25_09h40.27.219,LearnStrategy,2023.2.3,Win32,60.97560976,6,1,5,0.025925926,-0.009259259,1,0,0,0.7831,rock_grid_rect_2,8,16,-1,-1,0.783,0.388888889,-0.386111111,1,0,0,1.1581,Pumice_rect,8,1.158,1,4,0,4,0,1,,,,,,,,,,,,,
6658ee766e2632a6de409027,TCN,2024-06-25_09h40.27.219,LearnStrategy,2023.2.3,Win32,60.97560976,6,1,6,0.009259259,0.021296296,1,0,0,0.6384,rock_grid_rect_2,4,09,-1,-1,0.638,-0.146296296,-0.24537037,1,0,0,3.9149,Basalt_rect,2,3.915,0,5,0,5,0,1,,,,,,,,,,,,,
6658ee766e2632a6de409027,TCN,2024-06-25_09h40.27.219,LearnStrategy,2023.2.3,Win32,60.97560976,6,1,7,0.055555556,0.002777778,1,0,0,0.999,rock_grid_rect_2,1,09,-1,-1,0.999,0.407407407,-0.236111111,1,0,0,1.7837,Gabbro_rect,4,1.784,0,6,0,6,0,1,,,,,,,,,,,,,
6658ee766e2632a6de409027,TCN,2024-06-25_09h40.27.219,LearnStrategy,2023.2.3,Win32,60.97560976,6,1,8,0.019444444,0.00462963,1,0,0,0.9594,rock_grid_rect_2,1,14,-1,-1,0.959,-0.128703704,-0.408333333,1,0,0,5.0438,Pegmatite_rect,6,5.044,0,7,0,7,0,1,,,,,,,,,,,,,
6658ee766e2632a6de409027,TCN,2024-06-25_09h40.27.219,LearnStrategy,2023.2.3,Win32,60.97560976,6,1,9,0.00462963,-0.00462963,1,0,0,0.8121,rock_grid_rect_2,2,04,-1,-1,0.812,-0.112962963,-0.25,1,0,0,1.4056,Basalt_rect,2,1.406,1,8,0,8,0,1,,,,,,,,,,,,,
6658ee766e2632a6de409027,TCN,2024-06-25_09h40.27.219,LearnStrategy,2023.2.3,Win32,60.97560976,6,1,10,-0.008333333,-0.012962963,1,0,0,0.7876,rock_grid_rect_2,7,12,-1,-1,0.788,0.143518519,-0.398148148,1,0,0,1.1573,Peridotite_rect,7,1.157,1,9,0,9,0,1,,,,,,,,,,,,,
6658ee766e2632a6de409027,TCN,2024-06-25_09h40.27.219,LearnStrategy,2023.2.3,Win32,60.97560976,6,1,11,-0.005555556,-0.001851852,1,0,0,0.979,rock_grid_rect_2,5,10,-1,-1,0.979,-0.358333333,-0.388888889,1,0,0,1.199,Obsidian_rect,5,1.199,1,10,0,10,0,1,,,,,,,,,,,,,
6658ee766e2632a6de409027,TCN,2024-06-25_09h40.27.219,LearnStrategy,2023.2.3,Win32,60.97560976,6,1,12,-0.037962963,0.009259259,1,0,0,0.7024,rock_grid_rect_2,4,14,-1,-1,0.702,-0.356481481,-0.250925926,1,0,0,1.639,Andesite_rect,1,1.639,0,11,0,11,0,1,,,,,,,,,,,,,
6658ee766e2632a6de409027,TCN,2024-06-25_09h40.27.219,LearnStrategy,2023.2.3,Win32,60.97560976,6,1,13,0.041666667,0.000925926,1,0,0,0.7645,rock_grid_rect_2,6,06,-1,-1,0.764,-0.134259259,-0.388888889,1,0,0,2.7412,Pegmatite_rect,6,2.741,1,12,0,12,0,1,,,,,,,,,,,,,
6658ee766e2632a6de409027,TCN,2024-06-25_09h40.27.219,LearnStrategy,2023.2.3,Win32,60.97560976,6,1,14,0.008333333,-0.009259259,1,0,0,0.9521,rock_grid_rect_2,2,14,-1,-1,0.952,-0.358333333,-0.247222222,1,0,0,5.2201,Andesite_rect,1,5.22,0,13,0,13,0,1,,,,,,,,,,,,,
6658ee766e2632a6de409027,TCN,2024-06-25_09h40.27.219,LearnStrategy,2023.2.3,Win32,60.97560976,6,1,15,0.017592593,0.001851852,1,0,0,0.9271,rock_grid_rect_2,6,16,-1,-1,0.927,0.125,-0.262037037,1,0,0,1.899,Diorite_rect,3,1.899,0,14,0,14,0,1,,,,,,,,,,,,,
6658ee766e2632a6de409027,TCN,2024-06-25_09h40.27.219,LearnStrategy,2023.2.3,Win32,60.97560976,6,1,16,-0.025,0.003703704,1,0,0,1.0236,rock_grid_rect_2,3,08,-1,-1,1.024,0.156481481,-0.263888889,1,0,0,1.033,Diorite_rect,3,1.033,1,15,0,15,0,1,,,,,,,,,,,,,
6658ee766e2632a6de409027,TCN,2024-06-25_09h40.27.219,LearnStrategy,2023.2.3,Win32,60.97560976,6,2,1,,,,,,,,5,05,,,,,,,,,,,5,1.235,1,,,,,,-0.35,-0.398148148,1,0,0,1.2354,Obsidian_rect,0,0,0,0,1,
6658ee766e2632a6de409027,TCN,2024-06-25_09h40.27.219,LearnStrategy,2023.2.3,Win32,60.97560976,6,2,2,,,,,,,,8,14,,,,,,,,,,,8,1.16,1,,,,,,0.377777778,-0.396296296,1,0,0,1.1605,Pumice_rect,1,0,1,0,1,
6658ee766e2632a6de409027,TCN,2024-06-25_09h40.27.219,LearnStrategy,2023.2.3,Win32,60.97560976,6,2,3,,,,,,,,2,11,,,,,,,,,,,1,3.831,0,,,,,,-0.400925926,-0.241666667,1,0,0,3.8306,Andesite_rect,2,0,2,0,1,
6658ee766e2632a6de409027,TCN,2024-06-25_09h40.27.219,LearnStrategy,2023.2.3,Win32,60.97560976,6,2,4,,,,,,,,7,10,,,,,,,,,,,7,1.34,1,,,,,,0.122222222,-0.396296296,1,0,0,1.34,Peridotite_rect,3,0,3,0,1,
6658ee766e2632a6de409027,TCN,2024-06-25_09h40.27.219,LearnStrategy,2023.2.3,Win32,60.97560976,6,2,5,,,,,,,,3,06,,,,,,,,,,,3,1.854,1,,,,,,0.137962963,-0.25462963,1,0,0,1.8544,Diorite_rect,4,0,4,0,1,
6658ee766e2632a6de409027,TCN,2024-06-25_09h40.27.219,LearnStrategy,2023.2.3,Win32,60.97560976,6,2,6,,,,,,,,5,02,,,,,,,,,,,5,1.222,1,,,,,,-0.377777778,-0.405555556,1,0,0,1.222,Obsidian_rect,5,0,5,0,1,
6658ee766e2632a6de409027,TCN,2024-06-25_09h40.27.219,LearnStrategy,2023.2.3,Win32,60.97560976,6,2,7,,,,,,,,1,11,,,,,,,,,,,6,1.927,0,,,,,,-0.146296296,-0.413888889,1,0,0,1.927,Pegmatite_rect,6,0,6,0,1,
6658ee766e2632a6de409027,TCN,2024-06-25_09h40.27.219,LearnStrategy,2023.2.3,Win32,60.97560976,6,2,8,,,,,,,,4,08,,,,,,,,,,,1,4.034,0,,,,,,-0.358333333,-0.236111111,1,0,0,4.0343,Andesite_rect,7,0,7,0,1,
6658ee766e2632a6de409027,TCN,2024-06-25_09h40.27.219,LearnStrategy,2023.2.3,Win32,60.97560976,6,2,9,,,,,,,,7,07,,,,,,,,,,,7,1.168,1,,,,,,0.137962963,-0.387037037,1,0,0,1.1681,Peridotite_rect,8,0,8,0,1,
6658ee766e2632a6de409027,TCN,2024-06-25_09h40.27.219,LearnStrategy,2023.2.3,Win32,60.97560976,6,2,10,,,,,,,,3,02,,,,,,,,,,,3,1.463,1,,,,,,0.122222222,-0.244444444,1,0,0,1.4629,Diorite_rect,9,0,9,0,1,
6658ee766e2632a6de409027,TCN,2024-06-25_09h40.27.219,LearnStrategy,2023.2.3,Win32,60.97560976,6,2,11,,,,,,,,2,12,,,,,,,,,,,2,1.921,1,,,,,,-0.147222222,-0.248148148,1,0,0,1.9212,Basalt_rect,10,0,10,0,1,
6658ee766e2632a6de409027,TCN,2024-06-25_09h40.27.219,LearnStrategy,2023.2.3,Win32,60.97560976,6,2,12,,,,,,,,8,04,,,,,,,,,,,8,1.099,1,,,,,,0.403703704,-0.384259259,1,0,0,1.0989,Pumice_rect,11,0,11,0,1,
6658ee766e2632a6de409027,TCN,2024-06-25_09h40.27.219,LearnStrategy,2023.2.3,Win32,60.97560976,6,2,13,,,,,,,,1,05,,,,,,,,,,,6,4.887,0,,,,,,-0.142592593,-0.408333333,1,0,0,4.8873,Pegmatite_rect,12,0,12,0,1,
6658ee766e2632a6de409027,TCN,2024-06-25_09h40.27.219,LearnStrategy,2023.2.3,Win32,60.97560976,6,2,14,,,,,,,,6,12,,,,,,,,,,,6,2.989,1,,,,,,-0.163888889,-0.40462963,1,0,0,2.9888,Pegmatite_rect,13,0,13,0,1,
6658ee766e2632a6de409027,TCN,2024-06-25_09h40.27.219,LearnStrategy,2023.2.3,Win32,60.97560976,6,2,15,,,,,,,,6,15,,,,,,,,,,,6,1.359,1,,,,,,-0.115740741,-0.406481481,1,0,0,1.3586,Pegmatite_rect,14,0,14,0,1,
6658ee766e2632a6de409027,TCN,2024-06-25_09h40.27.219,LearnStrategy,2023.2.3,Win32,60.97560976,6,2,16,,,,,,,,4,13,,,,,,,,,,,1,2.924,0,,,,,,-0.336111111,-0.247222222,1,0,0,2.9241,Andesite_rect,15,0,15,0,1,
6658ee766e2632a6de409027,TCN,2024-06-25_09h40.27.219,LearnStrategy,2023.2.3,Win32,60.97560976,7,1,1,0.071296296,0.003703704,1,0,0,0.7086,rock_grid_rect_2,4,09,-1,-1,0.709,-0.361111111,-0.394444444,1,0,0,2.1204,Obsidian_rect,5,2.12,0,0,0,0,0,1,,,,,,,,,,,,,
6658ee766e2632a6de409027,TCN,2024-06-25_09h40.27.219,LearnStrategy,2023.2.3,Win32,60.97560976,7,1,2,0.059259259,0.008333333,1,0,0,0.9907,rock_grid_rect_2,1,02,-1,-1,0.991,-0.114814815,-0.393518519,1,0,0,1.9508,Pegmatite_rect,6,1.951,0,1,0,1,0,1,,,,,,,,,,,,,
6658ee766e2632a6de409027,TCN,2024-06-25_09h40.27.219,LearnStrategy,2023.2.3,Win32,60.97560976,7,1,3,0.015740741,-0.005555556,1,0,0,0.8024,rock_grid_rect_2,7,12,-1,-1,0.802,0.112037037,-0.387037037,1,0,0,1.5079,Peridotite_rect,7,1.508,1,2,0,2,0,1,,,,,,,,,,,,,
6658ee766e2632a6de409027,TCN,2024-06-25_09h40.27.219,LearnStrategy,2023.2.3,Win32,60.97560976,7,1,4,0.057407407,0.002777778,1,0,0,0.9056,rock_grid_rect_2,8,02,-1,-1,0.906,0.409259259,-0.398148148,1,0,0,1.0817,Pumice_rect,8,1.082,1,3,0,3,0,1,,,,,,,,,,,,,
6658ee766e2632a6de409027,TCN,2024-06-25_09h40.27.219,LearnStrategy,2023.2.3,Win32,60.97560976,7,1,5,0.013888889,-0.002777778,1,0,0,0.9279,rock_grid_rect_2,6,13,-1,-1,0.928,-0.066666667,-0.417592593,1,0,0,1.3706,Pegmatite_rect,6,1.371,1,4,0,4,0,1,,,,,,,,,,,,,
6658ee766e2632a6de409027,TCN,2024-06-25_09h40.27.219,LearnStrategy,2023.2.3,Win32,60.97560976,7,1,6,-0.010185185,-0.000925926,1,0,0,0.7303,rock_grid_rect_2,3,10,-1,-1,0.73,0.125,-0.250925926,1,0,0,1.467,Diorite_rect,3,1.467,1,5,0,5,0,1,,,,,,,,,,,,,
6658ee766e2632a6de409027,TCN,2024-06-25_09h40.27.219,LearnStrategy,2023.2.3,Win32,60.97560976,7,1,7,0.00462963,0.000925926,1,0,0,0.7031,rock_grid_rect_2,6,06,-1,-1,0.703,-0.102777778,-0.384259259,1,0,0,1.1627,Pegmatite_rect,6,1.163,1,6,0,6,0,1,,,,,,,,,,,,,
6658ee766e2632a6de409027,TCN,2024-06-25_09h40.27.219,LearnStrategy,2023.2.3,Win32,60.97560976,7,1,8,0.059259259,-0.013888889,1,0,0,0.7328,rock_grid_rect_2,5,10,-1,-1,0.733,-0.417592593,-0.406481481,1,0,0,1.1063,Obsidian_rect,5,1.106,1,7,0,7,0,1,,,,,,,,,,,,,
6658ee766e2632a6de409027,TCN,2024-06-25_09h40.27.219,LearnStrategy,2023.2.3,Win32,60.97560976,7,1,9,-0.003703704,-0.00462963,1,0,0,0.7512,rock_grid_rect_2,5,12,-1,-1,0.751,-0.362037037,-0.39537037,1,0,0,1.2214,Obsidian_rect,5,1.221,1,8,0,8,0,1,,,,,,,,,,,,,
6658ee766e2632a6de409027,TCN,2024-06-25_09h40.27.219,LearnStrategy,2023.2.3,Win32,60.97560976,7,1,10,0.008333333,0.012037037,1,0,0,0.6038,rock_grid_rect_2,4,01,-1,-1,0.604,-0.433333333,-0.263888889,1,0,0,1.7254,Andesite_rect,1,1.725,0,9,0,9,0,1,,,,,,,,,,,,,
6658ee766e2632a6de409027,TCN,2024-06-25_09h40.27.219,LearnStrategy,2023.2.3,Win32,60.97560976,7,1,11,0.026851852,-0.000925926,1,0,0,1.0733,rock_grid_rect_2,1,10,-1,-1,1.073,-0.416666667,-0.260185185,1,0,0,1.6624,Andesite_rect,1,1.662,1,10,0,10,0,1,,,,,,,,,,,,,
6658ee766e2632a6de409027,TCN,2024-06-25_09h40.27.219,LearnStrategy,2023.2.3,Win32,60.97560976,7,1,12,0.028703704,-0.000925926,1,0,0,0.8234,rock_grid_rect_2,3,14,-1,-1,0.823,0.163888889,-0.266666667,1,0,0,0.962,Diorite_rect,3,0.962,1,11,0,11,0,1,,,,,,,,,,,,,
6658ee766e2632a6de409027,TCN,2024-06-25_09h40.27.219,LearnStrategy,2023.2.3,Win32,60.97560976,7,1,13,0.007407407,-0.001851852,1,0,0,0.7044,rock_grid_rect_2,8,16,-1,-1,0.704,0.431481481,-0.413888889,1,0,0,1.0493,Pumice_rect,8,1.049,1,12,0,12,0,1,,,,,,,,,,,,,
6658ee766e2632a6de409027,TCN,2024-06-25_09h40.27.219,LearnStrategy,2023.2.3,Win32,60.97560976,7,1,14,-0.000925926,0.009259259,1,0,0,0.727,rock_grid_rect_2,2,01,-1,-1,0.727,-0.112037037,-0.236111111,1,0,0,1.1573,Basalt_rect,2,1.157,1,13,0,13,0,1,,,,,,,,,,,,,
6658ee766e2632a6de409027,TCN,2024-06-25_09h40.27.219,LearnStrategy,2023.2.3,Win32,60.97560976,7,1,15,-0.012962963,0.003703704,1,0,0,0.6957,rock_grid_rect_2,2,08,-1,-1,0.696,-0.099074074,-0.248148148,1,0,0,1.1173,Basalt_rect,2,1.117,1,14,0,14,0,1,,,,,,,,,,,,,
6658ee766e2632a6de409027,TCN,2024-06-25_09h40.27.219,LearnStrategy,2023.2.3,Win32,60.97560976,7,1,16,-0.009259259,-0.014814815,1,0,0,0.7339,rock_grid_rect_2,7,04,-1,-1,0.734,-0.100925926,-0.392592593,1,0,0,1.5645,Pegmatite_rect,6,1.564,0,15,0,15,0,1,,,,,,,,,,,,,
6658ee766e2632a6de409027,TCN,2024-06-25_09h40.27.219,LearnStrategy,2023.2.3,Win32,60.97560976,7,2,1,,,,,,,,4,12,,,,,,,,,,,2,1.727,0,,,,,,-0.1,-0.243518519,1,0,0,1.7269,Basalt_rect,0,0,0,0,1,
6658ee766e2632a6de409027,TCN,2024-06-25_09h40.27.219,LearnStrategy,2023.2.3,Win32,60.97560976,7,2,2,,,,,,,,8,13,,,,,,,,,,,8,1.11,1,,,,,,0.374074074,-0.421296296,1,0,0,1.1104,Pumice_rect,1,0,1,0,1,
6658ee766e2632a6de409027,TCN,2024-06-25_09h40.27.219,LearnStrategy,2023.2.3,Win32,60.97560976,7,2,3,,,,,,,,6,11,,,,,,,,,,,6,1.861,1,,,,,,-0.087962963,-0.396296296,1,0,0,1.861,Pegmatite_rect,2,0,2,0,1,
6658ee766e2632a6de409027,TCN,2024-06-25_09h40.27.219,LearnStrategy,2023.2.3,Win32,60.97560976,7,2,4,,,,,,,,6,15,,,,,,,,,,,6,1.57,1,,,,,,-0.102777778,-0.392592593,1,0,0,1.5705,Pegmatite_rect,3,0,3,0,1,
6658ee766e2632a6de409027,TCN,2024-06-25_09h40.27.219,LearnStrategy,2023.2.3,Win32,60.97560976,7,2,5,,,,,,,,3,07,,,,,,,,,,,3,1.06,1,,,,,,0.187037037,-0.232407407,1,0,0,1.0601,Diorite_rect,4,0,4,0,1,
6658ee766e2632a6de409027,TCN,2024-06-25_09h40.27.219,LearnStrategy,2023.2.3,Win32,60.97560976,7,2,6,,,,,,,,1,06,,,,,,,,,,,1,1.558,1,,,,,,-0.339814815,-0.246296296,1,0,0,1.5576,Andesite_rect,5,0,5,0,1,
6658ee766e2632a6de409027,TCN,2024-06-25_09h40.27.219,LearnStrategy,2023.2.3,Win32,60.97560976,7,2,7,,,,,,,,2,12,,,,,,,,,,,4,1.914,0,,,,,,0.371296296,-0.238888889,1,0,0,1.9138,Gabbro_rect,6,0,6,0,1,
6658ee766e2632a6de409027,TCN,2024-06-25_09h40.27.219,LearnStrategy,2023.2.3,Win32,60.97560976,7,2,8,,,,,,,,8,04,,,,,,,,,,,8,1.081,1,,,,,,0.381481481,-0.39537037,1,0,0,1.0809,Pumice_rect,7,0,7,0,1,
6658ee766e2632a6de409027,TCN,2024-06-25_09h40.27.219,LearnStrategy,2023.2.3,Win32,60.97560976,7,2,9,,,,,,,,5,04,,,,,,,,,,,5,1.332,1,,,,,,-0.401851852,-0.387962963,1,0,0,1.3324,Obsidian_rect,8,0,8,0,1,
6658ee766e2632a6de409027,TCN,2024-06-25_09h40.27.219,LearnStrategy,2023.2.3,Win32,60.97560976,7,2,10,,,,,,,,1,11,,,,,,,,,,,6,1.514,0,,,,,,-0.111111111,-0.407407407,1,0,0,1.5141,Pegmatite_rect,9,0,9,0,1,
6658ee766e2632a6de409027,TCN,2024-06-25_09h40.27.219,LearnStrategy,2023.2.3,Win32,60.97560976,7,2,11,,,,,,,,5,02,,,,,,,,,,,5,0.972,1,,,,,,-0.353703704,-0.409259259,1,0,0,0.9717,Obsidian_rect,10,0,10,0,1,
6658ee766e2632a6de409027,TCN,2024-06-25_09h40.27.219,LearnStrategy,2023.2.3,Win32,60.97560976,7,2,12,,,,,,,,3,06,,,,,,,,,,,3,0.869,1,,,,,,0.100925926,-0.236111111,1,0,0,0.8691,Diorite_rect,11,0,11,0,1,
6658ee766e2632a6de409027,TCN,2024-06-25_09h40.27.219,LearnStrategy,2023.2.3,Win32,60.97560976,7,2,13,,,,,,,,2,02,,,,,,,,,,,2,1.254,1,,,,,,-0.191666667,-0.246296296,1,0,0,1.2537,Basalt_rect,12,0,12,0,1,
6658ee766e2632a6de409027,TCN,2024-06-25_09h40.27.219,LearnStrategy,2023.2.3,Win32,60.97560976,7,2,14,,,,,,,,7,15,,,,,,,,,,,7,1.019,1,,,,,,0.135185185,-0.39537037,1,0,0,1.019,Peridotite_rect,13,0,13,0,1,
6658ee766e2632a6de409027,TCN,2024-06-25_09h40.27.219,LearnStrategy,2023.2.3,Win32,60.97560976,7,2,15,,,,,,,,7,07,,,,,,,,,,,7,1.026,1,,,,,,0.135185185,-0.385185185,1,0,0,1.026,Peridotite_rect,14,0,14,0,1,
6658ee766e2632a6de409027,TCN,2024-06-25_09h40.27.219,LearnStrategy,2023.2.3,Win32,60.97560976,7,2,16,,,,,,,,4,15,,,,,,,,,,,1,2.869,0,,,,,,-0.373148148,-0.22962963,1,0,0,2.8693,Andesite_rect,15,0,15,0,1,
6658ee766e2632a6de409027,TCN,2024-06-25_09h40.27.219,LearnStrategy,2023.2.3,Win32,60.97560976,8,1,1,0.101851852,0.00462963,1,0,0,2.8341,rock_grid_rect_2,8,15,-1,-1,2.834,0.368518519,-0.400925926,1,0,0,1.1638,Pumice_rect,8,1.164,1,0,0,0,0,1,,,,,,,,,,,,,
6658ee766e2632a6de409027,TCN,2024-06-25_09h40.27.219,LearnStrategy,2023.2.3,Win32,60.97560976,8,1,2,-0.044444444,0,1,0,0,1.1402,rock_grid_rect_2,2,04,-1,-1,1.14,-0.112962963,-0.22962963,1,0,0,1.4621,Basalt_rect,2,1.462,1,1,0,1,0,1,,,,,,,,,,,,,
6658ee766e2632a6de409027,TCN,2024-06-25_09h40.27.219,LearnStrategy,2023.2.3,Win32,60.97560976,8,1,3,0,0.000925926,1,0,0,1.0541,rock_grid_rect_2,2,09,-1,-1,1.054,-0.112037037,-0.237962963,1,0,0,0.9207,Basalt_rect,2,0.921,1,2,0,2,0,1,,,,,,,,,,,,,
6658ee766e2632a6de409027,TCN,2024-06-25_09h40.27.219,LearnStrategy,2023.2.3,Win32,60.97560976,8,1,4,0.007407407,-0.003703704,1,0,0,0.7662,rock_grid_rect_2,6,03,-1,-1,0.766,-0.128703704,-0.409259259,1,0,0,1.3597,Pegmatite_rect,6,1.36,1,3,0,3,0,1,,,,,,,,,,,,,
6658ee766e2632a6de409027,TCN,2024-06-25_09h40.27.219,LearnStrategy,2023.2.3,Win32,60.97560976,8,1,5,-0.034259259,0.024074074,1,0,0,0.7083,rock_grid_rect_2,5,14,-1,-1,0.708,-0.425,-0.405555556,1,0,0,0.9714,Obsidian_rect,5,0.971,1,4,0,4,0,1,,,,,,,,,,,,,
6658ee766e2632a6de409027,TCN,2024-06-25_09h40.27.219,LearnStrategy,2023.2.3,Win32,60.97560976,8,1,6,-0.047222222,-0.001851852,1,0,0,0.704,rock_grid_rect_2,8,09,-1,-1,0.704,0.407407407,-0.393518519,1,0,0,1.047,Pumice_rect,8,1.047,1,5,0,5,0,1,,,,,,,,,,,,,
6658ee766e2632a6de409027,TCN,2024-06-25_09h40.27.219,LearnStrategy,2023.2.3,Win32,60.97560976,8,1,7,-0.038888889,0.009259259,1,0,0,0.6331,rock_grid_rect_2,3,11,-1,-1,0.633,0.126851852,-0.253703704,1,0,0,1.0534,Diorite_rect,3,1.053,1,6,0,6,0,1,,,,,,,,,,,,,
6658ee766e2632a6de409027,TCN,2024-06-25_09h40.27.219,LearnStrategy,2023.2.3,Win32,60.97560976,8,1,8,-0.018518519,-0.003703704,1,0,0,0.7055,rock_grid_rect_2,6,10,-1,-1,0.706,-0.14537037,-0.396296296,1,0,0,1.9598,Pegmatite_rect,6,1.96,1,7,0,7,0,1,,,,,,,,,,,,,
6658ee766e2632a6de409027,TCN,2024-06-25_09h40.27.219,LearnStrategy,2023.2.3,Win32,60.97560976,8,1,9,0.00462963,-0.00462963,1,0,0,0.7843,rock_grid_rect_2,3,09,-1,-1,0.784,0.146296296,-0.234259259,1,0,0,0.9545,Diorite_rect,3,0.955,1,8,0,8,0,1,,,,,,,,,,,,,
6658ee766e2632a6de409027,TCN,2024-06-25_09h40.27.219,LearnStrategy,2023.2.3,Win32,60.97560976,8,1,10,0.003703704,-0.011111111,1,0,0,0.641,rock_grid_rect_2,1,04,-1,-1,0.641,-0.375925926,-0.243518519,1,0,0,2.4041,Andesite_rect,1,2.404,1,9,0,9,0,1,,,,,,,,,,,,,
6658ee766e2632a6de409027,TCN,2024-06-25_09h40.27.219,LearnStrategy,2023.2.3,Win32,60.97560976,8,1,11,0.025925926,-0.007407407,1,0,0,0.6941,rock_grid_rect_2,5,11,-1,-1,0.694,-0.425925926,-0.409259259,1,0,0,0.9711,Obsidian_rect,5,0.971,1,10,0,10,0,1,,,,,,,,,,,,,
6658ee766e2632a6de409027,TCN,2024-06-25_09h40.27.219,LearnStrategy,2023.2.3,Win32,60.97560976,8,1,12,-0.015740741,-0.00462963,1,0,0,0.5774,rock_grid_rect_2,7,08,-1,-1,0.577,0.102777778,-0.390740741,1,0,0,1.1815,Peridotite_rect,7,1.181,1,11,0,11,0,1,,,,,,,,,,,,,
6658ee766e2632a6de409027,TCN,2024-06-25_09h40.27.219,LearnStrategy,2023.2.3,Win32,60.97560976,8,1,13,-0.017592593,-0.007407407,1,0,0,0.6619,rock_grid_rect_2,4,14,-1,-1,0.662,0.365740741,-0.230555556,1,0,0,1.8174,Gabbro_rect,4,1.817,1,12,0,12,0,1,,,,,,,,,,,,,
6658ee766e2632a6de409027,TCN,2024-06-25_09h40.27.219,LearnStrategy,2023.2.3,Win32,60.97560976,8,1,14,0.003703704,-0.003703704,1,0,0,0.7752,rock_grid_rect_2,1,07,-1,-1,0.775,-0.347222222,-0.241666667,1,0,0,1.5899,Andesite_rect,1,1.59,1,13,0,13,0,1,,,,,,,,,,,,,
6658ee766e2632a6de409027,TCN,2024-06-25_09h40.27.219,LearnStrategy,2023.2.3,Win32,60.97560976,8,1,15,0.011111111,-0.000925926,1,0,0,0.698,rock_grid_rect_2,4,03,-1,-1,0.698,-0.384259259,-0.243518519,1,0,0,1.5464,Andesite_rect,1,1.546,0,14,0,14,0,1,,,,,,,,,,,,,
6658ee766e2632a6de409027,TCN,2024-06-25_09h40.27.219,LearnStrategy,2023.2.3,Win32,60.97560976,8,1,16,0.007407407,0.009259259,1,0,0,0.8614,rock_grid_rect_2,7,14,-1,-1,0.861,0.40462963,-0.233333333,1,0,0,2.9117,Gabbro_rect,4,2.912,0,15,0,15,0,1,,,,,,,,,,,,,
6658ee766e2632a6de409027,TCN,2024-06-25_09h40.27.219,LearnStrategy,2023.2.3,Win32,60.97560976,8,2,1,,,,,,,,6,09,,,,,,,,,,,6,1.392,1,,,,,,-0.118518519,-0.37962963,1,0,0,1.392,Pegmatite_rect,0,0,0,0,1,
6658ee766e2632a6de409027,TCN,2024-06-25_09h40.27.219,LearnStrategy,2023.2.3,Win32,60.97560976,8,2,2,,,,,,,,2,16,,,,,,,,,,,2,2.979,1,,,,,,-0.136111111,-0.235185185,1,0,0,2.9791,Basalt_rect,1,0,1,0,1,
6658ee766e2632a6de409027,TCN,2024-06-25_09h40.27.219,LearnStrategy,2023.2.3,Win32,60.97560976,8,2,3,,,,,,,,6,12,,,,,,,,,,,6,1.864,1,,,,,,-0.092592593,-0.378703704,1,0,0,1.8641,Pegmatite_rect,2,0,2,0,1,
6658ee766e2632a6de409027,TCN,2024-06-25_09h40.27.219,LearnStrategy,2023.2.3,Win32,60.97560976,8,2,4,,,,,,,,3,02,,,,,,,,,,,3,1.005,1,,,,,,0.131481481,-0.261111111,1,0,0,1.0051,Diorite_rect,3,0,3,0,1,
6658ee766e2632a6de409027,TCN,2024-06-25_09h40.27.219,LearnStrategy,2023.2.3,Win32,60.97560976,8,2,5,,,,,,,,8,08,,,,,,,,,,,8,0.958,1,,,,,,0.424074074,-0.402777778,1,0,0,0.9581,Pumice_rect,4,0,4,0,1,
6658ee766e2632a6de409027,TCN,2024-06-25_09h40.27.219,LearnStrategy,2023.2.3,Win32,60.97560976,8,2,6,,,,,,,,5,08,,,,,,,,,,,5,0.998,1,,,,,,-0.37962963,-0.397222222,1,0,0,0.9976,Obsidian_rect,5,0,5,0,1,
6658ee766e2632a6de409027,TCN,2024-06-25_09h40.27.219,LearnStrategy,2023.2.3,Win32,60.97560976,8,2,7,,,,,,,,4,13,,,,,,,,,,,4,1.987,1,,,,,,0.383333333,-0.243518519,1,0,0,1.9867,Gabbro_rect,6,0,6,0,1,
6658ee766e2632a6de409027,TCN,2024-06-25_09h40.27.219,LearnStrategy,2023.2.3,Win32,60.97560976,8,2,8,,,,,,,,1,03,,,,,,,,,,,1,1.893,1,,,,,,-0.362037037,-0.243518519,1,0,0,1.8925,Andesite_rect,7,0,7,0,1,
6658ee766e2632a6de409027,TCN,2024-06-25_09h40.27.219,LearnStrategy,2023.2.3,Win32,60.97560976,8,2,9,,,,,,,,8,10,,,,,,,,,,,8,1.186,1,,,,,,0.383333333,-0.402777778,1,0,0,1.1856,Pumice_rect,8,0,8,0,1,
6658ee766e2632a6de409027,TCN,2024-06-25_09h40.27.219,LearnStrategy,2023.2.3,Win32,60.97560976,8,2,10,,,,,,,,3,13,,,,,,,,,,,3,1.499,1,,,,,,0.138888889,-0.244444444,1,0,0,1.4992,Diorite_rect,9,0,9,0,1,
6658ee766e2632a6de409027,TCN,2024-06-25_09h40.27.219,LearnStrategy,2023.2.3,Win32,60.97560976,8,2,11,,,,,,,,4,08,,,,,,,,,,,4,2.549,1,,,,,,0.382407407,-0.257407407,1,0,0,2.5493,Gabbro_rect,10,0,10,0,1,
6658ee766e2632a6de409027,TCN,2024-06-25_09h40.27.219,LearnStrategy,2023.2.3,Win32,60.97560976,8,2,12,,,,,,,,1,16,,,,,,,,,,,1,2.943,1,,,,,,-0.431481481,-0.264814815,1,0,0,2.9432,Andesite_rect,11,0,11,0,1,
6658ee766e2632a6de409027,TCN,2024-06-25_09h40.27.219,LearnStrategy,2023.2.3,Win32,60.97560976,8,2,13,,,,,,,,7,02,,,,,,,,,,,7,1.11,1,,,,,,0.112962963,-0.407407407,1,0,0,1.1102,Peridotite_rect,12,0,12,0,1,
6658ee766e2632a6de409027,TCN,2024-06-25_09h40.27.219,LearnStrategy,2023.2.3,Win32,60.97560976,8,2,14,,,,,,,,5,05,,,,,,,,,,,5,1.48,1,,,,,,-0.376851852,-0.386111111,1,0,0,1.4798,Obsidian_rect,13,0,13,0,1,
6658ee766e2632a6de409027,TCN,2024-06-25_09h40.27.219,LearnStrategy,2023.2.3,Win32,60.97560976,8,2,15,,,,,,,,2,10,,,,,,,,,,,2,2.358,1,,,,,,-0.135185185,-0.263888889,1,0,0,2.3585,Basalt_rect,14,0,14,0,1,
6658ee766e2632a6de409027,TCN,2024-06-25_09h40.27.219,LearnStrategy,2023.2.3,Win32,60.97560976,8,2,16,,,,,,,,7,06,,,,,,,,,,,7,1.649,1,,,,,,0.122222222,-0.417592593,1,0,0,1.6486,Peridotite_rect,15,0,15,0,1,
6658ee766e2632a6de409027,TCN,2024-06-25_09h40.27.219,LearnStrategy,2023.2.3,Win32,60.97560976,9,1,1,0.033333333,-0.009259259,1,0,0,0.9659,rock_grid_rect_2,6,08,-1,-1,0.966,-0.114814815,-0.387962963,1,0,0,1.4021,Pegmatite_rect,6,1.402,1,0,0,0,0,1,,,,,,,,,,,,,
6658ee766e2632a6de409027,TCN,2024-06-25_09h40.27.219,LearnStrategy,2023.2.3,Win32,60.97560976,9,1,2,-0.008333333,-0.011111111,1,0,0,0.7804,rock_grid_rect_2,6,16,-1,-1,0.78,-0.130555556,-0.382407407,1,0,0,1.7291,Pegmatite_rect,6,1.729,1,1,0,1,0,1,,,,,,,,,,,,,
6658ee766e2632a6de409027,TCN,2024-06-25_09h40.27.219,LearnStrategy,2023.2.3,Win32,60.97560976,9,1,3,-0.058333333,-0.003703704,1,0,0,0.7439,rock_grid_rect_2,2,14,-1,-1,0.744,-0.335185185,-0.235185185,1,0,0,6.2373,Andesite_rect,1,6.237,0,2,0,2,0,1,,,,,,,,,,,,,
6658ee766e2632a6de409027,TCN,2024-06-25_09h40.27.219,LearnStrategy,2023.2.3,Win32,60.97560976,9,1,4,0.002777778,-0.011111111,1,0,0,1.1195,rock_grid_rect_2,5,07,-1,-1,1.12,-0.373148148,-0.406481481,1,0,0,2.0558,Obsidian_rect,5,2.056,1,3,0,3,0,1,,,,,,,,,,,,,
6658ee766e2632a6de409027,TCN,2024-06-25_09h40.27.219,LearnStrategy,2023.2.3,Win32,60.97560976,9,1,5,0.009259259,0.005555556,1,0,0,0.7168,rock_grid_rect_2,8,05,-1,-1,0.717,0.4,-0.406481481,1,0,0,1.0999,Pumice_rect,8,1.1,1,4,0,4,0,1,,,,,,,,,,,,,
6658ee766e2632a6de409027,TCN,2024-06-25_09h40.27.219,LearnStrategy,2023.2.3,Win32,60.97560976,9,1,6,-0.044444444,0.003703704,1,0,0,1.0497,rock_grid_rect_2,7,13,-1,-1,1.05,0.164814815,-0.406481481,1,0,0,1.1039,Peridotite_rect,7,1.104,1,5,0,5,0,1,,,,,,,,,,,,,
6658ee766e2632a6de409027,TCN,2024-06-25_09h40.27.219,LearnStrategy,2023.2.3,Win32,60.97560976,9,1,7,0.013888889,0.005555556,1,0,0,0.7138,rock_grid_rect_2,5,16,-1,-1,0.714,-0.359259259,-0.401851852,1,0,0,0.9941,Obsidian_rect,5,0.994,1,6,0,6,0,1,,,,,,,,,,,,,
6658ee766e2632a6de409027,TCN,2024-06-25_09h40.27.219,LearnStrategy,2023.2.3,Win32,60.97560976,9,1,8,0.028703704,-0.007407407,1,0,0,0.7319,rock_grid_rect_2,1,09,-1,-1,0.732,-0.340740741,-0.244444444,1,0,0,1.6984,Andesite_rect,1,1.698,1,7,0,7,0,1,,,,,,,,,,,,,
6658ee766e2632a6de409027,TCN,2024-06-25_09h40.27.219,LearnStrategy,2023.2.3,Win32,60.97560976,9,1,9,-0.031481481,0.000925926,1,0,0,0.7176,rock_grid_rect_2,4,11,-1,-1,0.718,-0.35,-0.247222222,1,0,0,1.0292,Andesite_rect,1,1.029,0,8,0,8,0,1,,,,,,,,,,,,,
6658ee766e2632a6de409027,TCN,2024-06-25_09h40.27.219,LearnStrategy,2023.2.3,Win32,60.97560976,9,1,10,0.007407407,-0.006481481,1,0,0,0.7334,rock_grid_rect_2,1,14,-1,-1,0.733,0.137962963,-0.25,1,0,0,2.3181,Diorite_rect,3,2.318,0,9,0,9,0,1,,,,,,,,,,,,,
6658ee766e2632a6de409027,TCN,2024-06-25_09h40.27.219,LearnStrategy,2023.2.3,Win32,60.97560976,9,1,11,0.014814815,0.001851852,1,0,0,0.675,rock_grid_rect_2,2,05,-1,-1,0.675,-0.113888889,-0.244444444,1,0,0,2.6049,Basalt_rect,2,2.605,1,10,0,10,0,1,,,,,,,,,,,,,
6658ee766e2632a6de409027,TCN,2024-06-25_09h40.27.219,LearnStrategy,2023.2.3,Win32,60.97560976,9,1,12,0.025925926,0.002777778,1,0,0,0.7353,rock_grid_rect_2,4,16,-1,-1,0.735,0.369444444,-0.248148148,1,0,0,2.3391,Gabbro_rect,4,2.339,1,11,0,11,0,1,,,,,,,,,,,,,
6658ee766e2632a6de409027,TCN,2024-06-25_09h40.27.219,LearnStrategy,2023.2.3,Win32,60.97560976,9,1,13,0.009259259,0.005555556,1,0,0,1.2555,rock_grid_rect_2,3,16,-1,-1,1.255,0.116666667,-0.238888889,1,0,0,1.4662,Diorite_rect,3,1.466,1,12,0,12,0,1,,,,,,,,,,,,,
6658ee766e2632a6de409027,TCN,2024-06-25_09h40.27.219,LearnStrategy,2023.2.3,Win32,60.97560976,9,1,14,0.00462963,-0.003703704,1,0,0,0.7181,rock_grid_rect_2,3,08,-1,-1,0.718,0.140740741,-0.259259259,1,0,0,0.8533,Diorite_rect,3,0.853,1,13,0,13,0,1,,,,,,,,,,,,,
6658ee766e2632a6de409027,TCN,2024-06-25_09h40.27.219,LearnStrategy,2023.2.3,Win32,60.97560976,9,1,15,0.02962963,-0.019444444,1,0,0,0.729,rock_grid_rect_2,8,06,-1,-1,0.729,0.376851852,-0.387037037,1,0,0,0.9426,Pumice_rect,8,0.943,1,14,0,14,0,1,,,,,,,,,,,,,
6658ee766e2632a6de409027,TCN,2024-06-25_09h40.27.219,LearnStrategy,2023.2.3,Win32,60.97560976,9,1,16,0.048148148,0.000925926,1,0,0,0.8813,rock_grid_rect_2,7,05,-1,-1,0.881,0.147222222,-0.4,1,0,0,1.9417,Peridotite_rect,7,1.942,1,15,0,15,0,1,,,,,,,,,,,,,
6658ee766e2632a6de409027,TCN,2024-06-25_09h40.27.219,LearnStrategy,2023.2.3,Win32,60.97560976,9,2,1,,,,,,,,6,07,,,,,,,,,,,6,1.939,1,,,,,,-0.112037037,-0.394444444,1,0,0,1.9394,Pegmatite_rect,0,0,0,0,1,
6658ee766e2632a6de409027,TCN,2024-06-25_09h40.27.219,LearnStrategy,2023.2.3,Win32,60.97560976,9,2,2,,,,,,,,1,05,,,,,,,,,,,1,3.97,1,,,,,,-0.332407407,-0.261111111,1,0,0,3.9697,Andesite_rect,1,0,1,0,1,
6658ee766e2632a6de409027,TCN,2024-06-25_09h40.27.219,LearnStrategy,2023.2.3,Win32,60.97560976,9,2,3,,,,,,,,5,06,,,,,,,,,,,5,1.144,1,,,,,,-0.360185185,-0.387962963,1,0,0,1.1441,Obsidian_rect,2,0,2,0,1,
6658ee766e2632a6de409027,TCN,2024-06-25_09h40.27.219,LearnStrategy,2023.2.3,Win32,60.97560976,9,2,4,,,,,,,,4,10,,,,,,,,,,,4,4.93,1,,,,,,0.482407407,-0.251851852,1,0,0,4.9302,Gabbro_rect,3,0,3,0,1,
6658ee766e2632a6de409027,TCN,2024-06-25_09h40.27.219,LearnStrategy,2023.2.3,Win32,60.97560976,9,2,5,,,,,,,,2,11,,,,,,,,,,,1,1.603,0,,,,,,-0.366666667,-0.239814815,1,0,0,1.6031,Andesite_rect,4,0,4,0,1,
6658ee766e2632a6de409027,TCN,2024-06-25_09h40.27.219,LearnStrategy,2023.2.3,Win32,60.97560976,9,2,6,,,,,,,,3,15,,,,,,,,,,,7,2.804,0,,,,,,0.119444444,-0.406481481,1,0,0,2.8036,Peridotite_rect,5,0,5,0,1,
6658ee766e2632a6de409027,TCN,2024-06-25_09h40.27.219,LearnStrategy,2023.2.3,Win32,60.97560976,9,2,7,,,,,,,,4,05,,,,,,,,,,,4,5.355,1,,,,,,0.35,-0.252777778,1,0,0,5.3553,Gabbro_rect,6,0,6,0,1,
6658ee766e2632a6de409027,TCN,2024-06-25_09h40.27.219,LearnStrategy,2023.2.3,Win32,60.97560976,9,2,8,,,,,,,,1,01,,,,,,,,,,,4,2.415,0,,,,,,0.371296296,-0.250925926,1,0,0,2.4149,Gabbro_rect,7,0,7,0,1,
6658ee766e2632a6de409027,TCN,2024-06-25_09h40.27.219,LearnStrategy,2023.2.3,Win32,60.97560976,9,2,9,,,,,,,,7,16,,,,,,,,,,,4,4.281,0,,,,,,0.378703704,-0.255555556,1,0,0,4.2806,Gabbro_rect,8,0,8,0,1,
6658ee766e2632a6de409027,TCN,2024-06-25_09h40.27.219,LearnStrategy,2023.2.3,Win32,60.97560976,9,2,10,,,,,,,,3,12,,,,,,,,,,,3,1.381,1,,,,,,0.142592593,-0.244444444,1,0,0,1.3811,Diorite_rect,9,0,9,0,1,
6658ee766e2632a6de409027,TCN,2024-06-25_09h40.27.219,LearnStrategy,2023.2.3,Win32,60.97560976,9,2,11,,,,,,,,6,05,,,,,,,,,,,6,1.568,1,,,,,,-0.107407407,-0.392592593,1,0,0,1.5681,Pegmatite_rect,10,0,10,0,1,
6658ee766e2632a6de409027,TCN,2024-06-25_09h40.27.219,LearnStrategy,2023.2.3,Win32,60.97560976,9,2,12,,,,,,,,8,14,,,,,,,,,,,8,1.008,1,,,,,,0.362962963,-0.394444444,1,0,0,1.0085,Pumice_rect,11,0,11,0,1,
6658ee766e2632a6de409027,TCN,2024-06-25_09h40.27.219,LearnStrategy,2023.2.3,Win32,60.97560976,9,2,13,,,,,,,,7,10,,,,,,,,,,,7,1.48,1,,,,,,0.149074074,-0.409259259,1,0,0,1.4797,Peridotite_rect,12,0,12,0,1,
6658ee766e2632a6de409027,TCN,2024-06-25_09h40.27.219,LearnStrategy,2023.2.3,Win32,60.97560976,9,2,14,,,,,,,,2,06,,,,,,,,,,,2,1.327,1,,,,,,-0.094444444,-0.234259259,1,0,0,1.3266,Basalt_rect,13,0,13,0,1,
6658ee766e2632a6de409027,TCN,2024-06-25_09h40.27.219,LearnStrategy,2023.2.3,Win32,60.97560976,9,2,15,,,,,,,,5,09,,,,,,,,,,,5,1.088,1,,,,,,-0.360185185,-0.4,1,0,0,1.088,Obsidian_rect,14,0,14,0,1,
6658ee766e2632a6de409027,TCN,2024-06-25_09h40.27.219,LearnStrategy,2023.2.3,Win32,60.97560976,9,2,16,,,,,,,,8,03,,,,,,,,,,,8,1.246,1,,,,,,0.4,-0.401851852,1,0,0,1.2462,Pumice_rect,15,0,15,0,1,
6658ee766e2632a6de409027,TCN,2024-06-25_09h40.27.219,LearnStrategy,2023.2.3,Win32,60.97560976,,,,,,,,,,,,,,,,,,,,,,,,,,,,,,,,,,,,,,,,,,,1
6658ee766e2632a6de409027,TCN,2024-06-25_09h40.27.219,LearnStrategy,2023.2.3,Win32,60.97560976,,,,,,,,,,,,,,,,,,,,,,,,,,,,,,,,,,,,,,,,,,,
6658ee766e2632a6de409027,TCN,2024-06-25_09h40.27.219,LearnStrategy,2023.2.3,Win32,60.97560976,,,,,,,,,,,3,11,1,1,,,,,,,,,,,,,,,,,,,,,,,,,,,,,
6658ee766e2632a6de409027,TCN,2024-06-25_09h40.27.219,LearnStrategy,2023.2.3,Win32,60.97560976,,,,,,,,,,,3,08,1,2,,,,,,,,,,,,,,,,,,,,,,,,,,,,,
6658ee766e2632a6de409027,TCN,2024-06-25_09h40.27.219,LearnStrategy,2023.2.3,Win32,60.97560976,,,,,,,,,,,8,02,1,3,,,,,,,,,,,,,,,,,,,,,,,,,,,,,
6658ee766e2632a6de409027,TCN,2024-06-25_09h40.27.219,LearnStrategy,2023.2.3,Win32,60.97560976,,,,,,,,,,,8,09,1,4,,,,,,,,,,,,,,,,,,,,,,,,,,,,,
6658ee766e2632a6de409027,TCN,2024-06-25_09h40.27.219,LearnStrategy,2023.2.3,Win32,60.97560976,,,,,,,,,,,6,03,1,5,,,,,,,,,,,,,,,,,,,,,,,,,,,,,
6658ee766e2632a6de409027,TCN,2024-06-25_09h40.27.219,LearnStrategy,2023.2.3,Win32,60.97560976,,,,,,,,,,,4,14,1,6,,,,,,,,,,,,,,,,,,,,,,,,,,,,,
6658ee766e2632a6de409027,TCN,2024-06-25_09h40.27.219,LearnStrategy,2023.2.3,Win32,60.97560976,,,,,,,,,,,4,03,1,7,,,,,,,,,,,,,,,,,,,,,,,,,,,,,
6658ee766e2632a6de409027,TCN,2024-06-25_09h40.27.219,LearnStrategy,2023.2.3,Win32,60.97560976,,,,,,,,,,,5,12,1,8,,,,,,,,,,,,,,,,,,,,,,,,,,,,,
6658ee766e2632a6de409027,TCN,2024-06-25_09h40.27.219,LearnStrategy,2023.2.3,Win32,60.97560976,,,,,,,,,,,3,14,2,1,,,,,,,,,,,,,,,,,,,,,,,,,,,,,
6658ee766e2632a6de409027,TCN,2024-06-25_09h40.27.219,LearnStrategy,2023.2.3,Win32,60.97560976,,,,,,,,,,,2,01,2,2,,,,,,,,,,,,,,,,,,,,,,,,,,,,,
6658ee766e2632a6de409027,TCN,2024-06-25_09h40.27.219,LearnStrategy,2023.2.3,Win32,60.97560976,,,,,,,,,,,1,02,2,3,,,,,,,,,,,,,,,,,,,,,,,,,,,,,
6658ee766e2632a6de409027,TCN,2024-06-25_09h40.27.219,LearnStrategy,2023.2.3,Win32,60.97560976,,,,,,,,,,,6,16,2,4,,,,,,,,,,,,,,,,,,,,,,,,,,,,,
6658ee766e2632a6de409027,TCN,2024-06-25_09h40.27.219,LearnStrategy,2023.2.3,Win32,60.97560976,,,,,,,,,,,5,07,2,5,,,,,,,,,,,,,,,,,,,,,,,,,,,,,
6658ee766e2632a6de409027,TCN,2024-06-25_09h40.27.219,LearnStrategy,2023.2.3,Win32,60.97560976,,,,,,,,,,,6,13,2,6,,,,,,,,,,,,,,,,,,,,,,,,,,,,,
6658ee766e2632a6de409027,TCN,2024-06-25_09h40.27.219,LearnStrategy,2023.2.3,Win32,60.97560976,,,,,,,,,,,8,05,2,7,,,,,,,,,,,,,,,,,,,,,,,,,,,,,
6658ee766e2632a6de409027,TCN,2024-06-25_09h40.27.219,LearnStrategy,2023.2.3,Win32,60.97560976,,,,,,,,,,,8,15,2,8,,,,,,,,,,,,,,,,,,,,,,,,,,,,,
6658ee766e2632a6de409027,TCN,2024-06-25_09h40.27.219,LearnStrategy,2023.2.3,Win32,60.97560976,,,,,,,,,,,4,01,3,1,,,,,,,,,,,,,,,,,,,,,,,,,,,,,
6658ee766e2632a6de409027,TCN,2024-06-25_09h40.27.219,LearnStrategy,2023.2.3,Win32,60.97560976,,,,,,,,,,,8,16,3,2,,,,,,,,,,,,,,,,,,,,,,,,,,,,,
6658ee766e2632a6de409027,TCN,2024-06-25_09h40.27.219,LearnStrategy,2023.2.3,Win32,60.97560976,,,,,,,,,,,7,13,3,3,,,,,,,,,,,,,,,,,,,,,,,,,,,,,
6658ee766e2632a6de409027,TCN,2024-06-25_09h40.27.219,LearnStrategy,2023.2.3,Win32,60.97560976,,,,,,,,,,,3,16,3,4,,,,,,,,,,,,,,,,,,,,,,,,,,,,,
6658ee766e2632a6de409027,TCN,2024-06-25_09h40.27.219,LearnStrategy,2023.2.3,Win32,60.97560976,,,,,,,,,,,1,09,3,5,,,,,,,,,,,,,,,,,,,,,,,,,,,,,
6658ee766e2632a6de409027,TCN,2024-06-25_09h40.27.219,LearnStrategy,2023.2.3,Win32,60.97560976,,,,,,,,,,,2,09,3,6,,,,,,,,,,,,,,,,,,,,,,,,,,,,,
6658ee766e2632a6de409027,TCN,2024-06-25_09h40.27.219,LearnStrategy,2023.2.3,Win32,60.97560976,,,,,,,,,,,7,05,3,7,,,,,,,,,,,,,,,,,,,,,,,,,,,,,
6658ee766e2632a6de409027,TCN,2024-06-25_09h40.27.219,LearnStrategy,2023.2.3,Win32,60.97560976,,,,,,,,,,,2,04,3,8,,,,,,,,,,,,,,,,,,,,,,,,,,,,,
6658ee766e2632a6de409027,TCN,2024-06-25_09h40.27.219,LearnStrategy,2023.2.3,Win32,60.97560976,,,,,,,,,,,5,11,4,1,,,,,,,,,,,,,,,,,,,,,,,,,,,,,
6658ee766e2632a6de409027,TCN,2024-06-25_09h40.27.219,LearnStrategy,2023.2.3,Win32,60.97560976,,,,,,,,,,,3,10,4,2,,,,,,,,,,,,,,,,,,,,,,,,,,,,,
6658ee766e2632a6de409027,TCN,2024-06-25_09h40.27.219,LearnStrategy,2023.2.3,Win32,60.97560976,,,,,,,,,,,6,06,4,3,,,,,,,,,,,,,,,,,,,,,,,,,,,,,
6658ee766e2632a6de409027,TCN,2024-06-25_09h40.27.219,LearnStrategy,2023.2.3,Win32,60.97560976,,,,,,,,,,,2,08,4,4,,,,,,,,,,,,,,,,,,,,,,,,,,,,,
6658ee766e2632a6de409027,TCN,2024-06-25_09h40.27.219,LearnStrategy,2023.2.3,Win32,60.97560976,,,,,,,,,,,7,12,4,5,,,,,,,,,,,,,,,,,,,,,,,,,,,,,
6658ee766e2632a6de409027,TCN,2024-06-25_09h40.27.219,LearnStrategy,2023.2.3,Win32,60.97560976,,,,,,,,,,,7,04,4,6,,,,,,,,,,,,,,,,,,,,,,,,,,,,,
6658ee766e2632a6de409027,TCN,2024-06-25_09h40.27.219,LearnStrategy,2023.2.3,Win32,60.97560976,,,,,,,,,,,1,07,4,7,,,,,,,,,,,,,,,,,,,,,,,,,,,,,
6658ee766e2632a6de409027,TCN,2024-06-25_09h40.27.219,LearnStrategy,2023.2.3,Win32,60.97560976,,,,,,,,,,,4,11,4,8,,,,,,,,,,,,,,,,,,,,,,,,,,,,,
6658ee766e2632a6de409027,TCN,2024-06-25_09h40.27.219,LearnStrategy,2023.2.3,Win32,60.97560976,,,,,,,,,,,6,08,5,1,,,,,,,,,,,,,,,,,,,,,,,,,,,,,
6658ee766e2632a6de409027,TCN,2024-06-25_09h40.27.219,LearnStrategy,2023.2.3,Win32,60.97560976,,,,,,,,,,,5,14,5,2,,,,,,,,,,,,,,,,,,,,,,,,,,,,,
6658ee766e2632a6de409027,TCN,2024-06-25_09h40.27.219,LearnStrategy,2023.2.3,Win32,60.97560976,,,,,,,,,,,5,16,5,3,,,,,,,,,,,,,,,,,,,,,,,,,,,,,
6658ee766e2632a6de409027,TCN,2024-06-25_09h40.27.219,LearnStrategy,2023.2.3,Win32,60.97560976,,,,,,,,,,,7,08,5,4,,,,,,,,,,,,,,,,,,,,,,,,,,,,,
6658ee766e2632a6de409027,TCN,2024-06-25_09h40.27.219,LearnStrategy,2023.2.3,Win32,60.97560976,,,,,,,,,,,1,10,5,5,,,,,,,,,,,,,,,,,,,,,,,,,,,,,
6658ee766e2632a6de409027,TCN,2024-06-25_09h40.27.219,LearnStrategy,2023.2.3,Win32,60.97560976,,,,,,,,,,,1,14,5,6,,,,,,,,,,,,,,,,,,,,,,,,,,,,,
6658ee766e2632a6de409027,TCN,2024-06-25_09h40.27.219,LearnStrategy,2023.2.3,Win32,60.97560976,,,,,,,,,,,3,09,5,7,,,,,,,,,,,,,,,,,,,,,,,,,,,,,
6658ee766e2632a6de409027,TCN,2024-06-25_09h40.27.219,LearnStrategy,2023.2.3,Win32,60.97560976,,,,,,,,,,,6,10,5,8,,,,,,,,,,,,,,,,,,,,,,,,,,,,,
6658ee766e2632a6de409027,TCN,2024-06-25_09h40.27.219,LearnStrategy,2023.2.3,Win32,60.97560976,,,,,,,,,,,2,14,6,1,,,,,,,,,,,,,,,,,,,,,,,,,,,,,
6658ee766e2632a6de409027,TCN,2024-06-25_09h40.27.219,LearnStrategy,2023.2.3,Win32,60.97560976,,,,,,,,,,,1,04,6,2,,,,,,,,,,,,,,,,,,,,,,,,,,,,,
6658ee766e2632a6de409027,TCN,2024-06-25_09h40.27.219,LearnStrategy,2023.2.3,Win32,60.97560976,,,,,,,,,,,8,06,6,3,,,,,,,,,,,,,,,,,,,,,,,,,,,,,
6658ee766e2632a6de409027,TCN,2024-06-25_09h40.27.219,LearnStrategy,2023.2.3,Win32,60.97560976,,,,,,,,,,,7,14,6,4,,,,,,,,,,,,,,,,,,,,,,,,,,,,,
6658ee766e2632a6de409027,TCN,2024-06-25_09h40.27.219,LearnStrategy,2023.2.3,Win32,60.97560976,,,,,,,,,,,5,10,6,5,,,,,,,,,,,,,,,,,,,,,,,,,,,,,
6658ee766e2632a6de409027,TCN,2024-06-25_09h40.27.219,LearnStrategy,2023.2.3,Win32,60.97560976,,,,,,,,,,,4,16,6,6,,,,,,,,,,,,,,,,,,,,,,,,,,,,,
6658ee766e2632a6de409027,TCN,2024-06-25_09h40.27.219,LearnStrategy,2023.2.3,Win32,60.97560976,,,,,,,,,,,4,09,6,7,,,,,,,,,,,,,,,,,,,,,,,,,,,,,
6658ee766e2632a6de409027,TCN,2024-06-25_09h40.27.219,LearnStrategy,2023.2.3,Win32,60.97560976,,,,,,,,,,,2,05,6,8,,,,,,,,,,,,,,,,,,,,,,,,,,,,,