participant,condition,date,expName,psychopyVersion,OS,frameRate,block,phase,trial,learn_mouse.x,learn_mouse.y,learn_mouse.leftButton,learn_mouse.midButton,learn_mouse.rightButton,learn_mouse.time,learn_mouse.clicked_name,cat,token,row,col,t_select,cat_mouse_l.x,cat_mouse_l.y,cat_mouse_l.leftButton,cat_mouse_l.midButton,cat_mouse_l.rightButton,cat_mouse_l.time,cat_mouse_l.clicked_name,resp,t_resp,corr,train_trials.thisRepN,train_trials.thisTrialN,train_trials.thisN,train_trials.thisIndex,train_trials.ran,cat_mouse_t.x,cat_mouse_t.y,cat_mouse_t.leftButton,cat_mouse_t.midButton,cat_mouse_t.rightButton,cat_mouse_t.time,cat_mouse_t.clicked_name,test_trials.thisRepN,test_trials.thisTrialN,test_trials.thisN,test_trials.thisIndex,test_trials.ran,Bonus
665877fac83409588bdc6bfb,SCN,2024-06-25_12h41.14.467,LearnStrategy,2023.2.3,MacIntel,62.5,,,,,,,,,,,,,,,,,,,,,,,,,,,,,,,,,,,,,,,,,,,
665877fac83409588bdc6bfb,SCN,2024-06-25_12h41.14.467,LearnStrategy,2023.2.3,MacIntel,62.5,1,1,1,-0.373958333,0.08125,1,0,0,7.456,Pegmatite_10,6,10,4,2,7.456,0.095833333,-0.270833333,1,0,0,8.721,Diorite_rect,3,8.721,0,0,0,0,0,1,,,,,,,,,,,,,
665877fac83409588bdc6bfb,SCN,2024-06-25_12h41.14.467,LearnStrategy,2023.2.3,MacIntel,62.5,1,1,2,-0.069791667,0.402083333,1,0,0,4.532,Obsidian_04,5,04,6,4,4.532,-0.35,-0.397916667,1,0,0,2.838,Obsidian_rect,5,2.838,1,1,0,1,0,1,,,,,,,,,,,,,
665877fac83409588bdc6bfb,SCN,2024-06-25_12h41.14.467,LearnStrategy,2023.2.3,MacIntel,62.5,1,1,3,-0.396875,0.388541667,1,0,0,6.332,Peridotite_16,7,16,6,2,6.332,0.139583333,-0.2375,1,0,0,1.777,Diorite_rect,3,1.777,0,2,0,2,0,1,,,,,,,,,,,,,
665877fac83409588bdc6bfb,SCN,2024-06-25_12h41.14.467,LearnStrategy,2023.2.3,MacIntel,62.5,1,1,4,0.073958333,0.39375,1,0,0,2.915,Diorite_08,3,08,6,5,2.915,0.419791667,-0.26875,1,0,0,6.203,Gabbro_rect,4,6.203,0,3,0,3,0,1,,,,,,,,,,,,,
665877fac83409588bdc6bfb,SCN,2024-06-25_12h41.14.467,LearnStrategy,2023.2.3,MacIntel,62.5,1,1,5,0.5125,0.389583333,1,0,0,3.832,Obsidian_07,5,07,6,8,3.832,-0.13125,-0.265625,1,0,0,5.643,Basalt_rect,2,5.643,0,4,0,4,0,1,,,,,,,,,,,,,
665877fac83409588bdc6bfb,SCN,2024-06-25_12h41.14.467,LearnStrategy,2023.2.3,MacIntel,62.5,1,1,6,-0.538541667,0.241666667,1,0,0,3.749,Diorite_11,3,11,5,1,3.749,0.117708333,-0.244791667,1,0,0,2.624,Diorite_rect,3,2.624,1,5,0,5,0,1,,,,,,,,,,,,,
665877fac83409588bdc6bfb,SCN,2024-06-25_12h41.14.467,LearnStrategy,2023.2.3,MacIntel,62.5,1,1,7,-0.378125,0.241666667,1,0,0,1.582,Pegmatite_03,6,03,5,2,1.582,-0.183333333,-0.395833333,1,0,0,6.571,Pegmatite_rect,6,6.571,1,6,0,6,0,1,,,,,,,,,,,,,
665877fac83409588bdc6bfb,SCN,2024-06-25_12h41.14.467,LearnStrategy,2023.2.3,MacIntel,62.5,1,1,8,-0.215625,0.226041667,1,0,0,1.566,Diorite_06,3,06,5,3,1.566,0.13125,-0.254166667,1,0,0,4.015,Diorite_rect,3,4.015,1,7,0,7,0,1,,,,,,,,,,,,,
665877fac83409588bdc6bfb,SCN,2024-06-25_12h41.14.467,LearnStrategy,2023.2.3,MacIntel,62.5,1,1,9,0.535416667,0.242708333,1,0,0,7.1,Andesite_11,1,11,5,8,7.1,0.140625,-0.401041667,1,0,0,5.709,Peridotite_rect,7,5.709,0,8,0,8,0,1,,,,,,,,,,,,,
665877fac83409588bdc6bfb,SCN,2024-06-25_12h41.14.467,LearnStrategy,2023.2.3,MacIntel,62.5,1,1,10,0.066666667,0.073958333,1,0,0,3.017,Pegmatite_16,6,16,4,5,3.017,-0.367708333,-0.232291667,1,0,0,1.17,Andesite_rect,1,1.17,0,9,0,9,0,1,,,,,,,,,,,,,
665877fac83409588bdc6bfb,SCN,2024-06-25_12h41.14.467,LearnStrategy,2023.2.3,MacIntel,62.5,1,1,11,0.55625,0.06875,1,0,0,8.859,Peridotite_13,7,13,4,8,8.859,-0.0375,-0.404166667,1,0,0,6.885,Pegmatite_rect,6,6.885,0,10,0,10,0,1,,,,,,,,,,,,,
665877fac83409588bdc6bfb,SCN,2024-06-25_12h41.14.467,LearnStrategy,2023.2.3,MacIntel,62.5,1,1,12,0.23125,0.071875,1,0,0,12.016,Diorite_02,3,02,4,6,12.016,0.136458333,-0.255208333,1,0,0,1.869,Diorite_rect,3,1.869,1,11,0,11,0,1,,,,,,,,,,,,,
665877fac83409588bdc6bfb,SCN,2024-06-25_12h41.14.467,LearnStrategy,2023.2.3,MacIntel,62.5,1,1,13,0.211458333,-0.422916667,1,0,0,1.399,Pegmatite_15,6,15,1,6,1.399,-0.416666667,-0.271875,1,0,0,3.77,Andesite_rect,1,3.77,0,12,0,12,0,1,,,,,,,,,,,,,
665877fac83409588bdc6bfb,SCN,2024-06-25_12h41.14.467,LearnStrategy,2023.2.3,MacIntel,62.5,1,1,14,-0.525,-0.092708333,1,0,0,5.549,Peridotite_06,7,06,3,1,5.549,-0.4125,-0.239583333,1,0,0,2.745,Andesite_rect,1,2.745,0,13,0,13,0,1,,,,,,,,,,,,,
665877fac83409588bdc6bfb,SCN,2024-06-25_12h41.14.467,LearnStrategy,2023.2.3,MacIntel,62.5,1,1,15,0.105208333,-0.09375,1,0,0,6.065,Basalt_02,2,02,3,5,6.065,0.404166667,-0.254166667,1,0,0,2.862,Gabbro_rect,4,2.862,0,14,0,14,0,1,,,,,,,,,,,,,
665877fac83409588bdc6bfb,SCN,2024-06-25_12h41.14.467,LearnStrategy,2023.2.3,MacIntel,62.5,1,1,16,-0.0875,-0.115625,1,0,0,1.012,Andesite_03,1,03,3,4,1.012,-0.183333333,-0.267708333,1,0,0,1.139,Basalt_rect,2,1.139,0,15,0,15,0,1,,,,,,,,,,,,,
665877fac83409588bdc6bfb,SCN,2024-06-25_12h41.14.467,LearnStrategy,2023.2.3,MacIntel,62.5,1,2,1,,,,,,,,7,04,,,,,,,,,,,6,5.47,0,,,,,,-0.05625,-0.38125,1,0,0,5.47,Pegmatite_rect,0,0,0,0,1,
665877fac83409588bdc6bfb,SCN,2024-06-25_12h41.14.467,LearnStrategy,2023.2.3,MacIntel,62.5,1,2,2,,,,,,,,4,12,,,,,,,,,,,2,6.605,0,,,,,,-0.075,-0.266666667,1,0,0,6.605,Basalt_rect,1,0,1,0,1,
665877fac83409588bdc6bfb,SCN,2024-06-25_12h41.14.467,LearnStrategy,2023.2.3,MacIntel,62.5,1,2,3,,,,,,,,5,06,,,,,,,,,,,5,1.737,1,,,,,,-0.346875,-0.402083333,1,0,0,1.737,Obsidian_rect,2,0,2,0,1,
665877fac83409588bdc6bfb,SCN,2024-06-25_12h41.14.467,LearnStrategy,2023.2.3,MacIntel,62.5,1,2,4,,,,,,,,3,07,,,,,,,,,,,3,3.224,1,,,,,,0.116666667,-0.2625,1,0,0,3.224,Diorite_rect,3,0,3,0,1,
665877fac83409588bdc6bfb,SCN,2024-06-25_12h41.14.467,LearnStrategy,2023.2.3,MacIntel,62.5,1,2,5,,,,,,,,2,11,,,,,,,,,,,8,2.343,0,,,,,,0.354166667,-0.391666667,1,0,0,2.343,Pumice_rect,4,0,4,0,1,
665877fac83409588bdc6bfb,SCN,2024-06-25_12h41.14.467,LearnStrategy,2023.2.3,MacIntel,62.5,1,2,6,,,,,,,,2,10,,,,,,,,,,,2,2.775,1,,,,,,-0.157291667,-0.245833333,1,0,0,2.775,Basalt_rect,5,0,5,0,1,
665877fac83409588bdc6bfb,SCN,2024-06-25_12h41.14.467,LearnStrategy,2023.2.3,MacIntel,62.5,1,2,7,,,,,,,,1,02,,,,,,,,,,,7,2.546,0,,,,,,0.086458333,-0.4,1,0,0,2.546,Peridotite_rect,6,0,6,0,1,
665877fac83409588bdc6bfb,SCN,2024-06-25_12h41.14.467,LearnStrategy,2023.2.3,MacIntel,62.5,1,2,8,,,,,,,,6,05,,,,,,,,,,,6,1.813,1,,,,,,-0.10625,-0.40625,1,0,0,1.813,Pegmatite_rect,7,0,7,0,1,
665877fac83409588bdc6bfb,SCN,2024-06-25_12h41.14.467,LearnStrategy,2023.2.3,MacIntel,62.5,1,2,9,,,,,,,,1,04,,,,,,,,,,,3,7.488,0,,,,,,0.103125,-0.264583333,1,0,0,7.488,Diorite_rect,8,0,8,0,1,
665877fac83409588bdc6bfb,SCN,2024-06-25_12h41.14.467,LearnStrategy,2023.2.3,MacIntel,62.5,1,2,10,,,,,,,,7,08,,,,,,,,,,,1,5.036,0,,,,,,-0.316666667,-0.267708333,1,0,0,5.036,Andesite_rect,9,0,9,0,1,
665877fac83409588bdc6bfb,SCN,2024-06-25_12h41.14.467,LearnStrategy,2023.2.3,MacIntel,62.5,1,2,11,,,,,,,,8,15,,,,,,,,,,,8,1.786,1,,,,,,0.354166667,-0.389583333,1,0,0,1.786,Pumice_rect,10,0,10,0,1,
665877fac83409588bdc6bfb,SCN,2024-06-25_12h41.14.467,LearnStrategy,2023.2.3,MacIntel,62.5,1,2,12,,,,,,,,4,15,,,,,,,,,,,6,6.143,0,,,,,,-0.126041667,-0.405208333,1,0,0,6.143,Pegmatite_rect,11,0,11,0,1,
665877fac83409588bdc6bfb,SCN,2024-06-25_12h41.14.467,LearnStrategy,2023.2.3,MacIntel,62.5,1,2,13,,,,,,,,6,06,,,,,,,,,,,6,7.811,1,,,,,,-0.126041667,-0.405208333,1,0,0,7.811,Pegmatite_rect,12,0,12,0,1,
665877fac83409588bdc6bfb,SCN,2024-06-25_12h41.14.467,LearnStrategy,2023.2.3,MacIntel,62.5,1,2,14,,,,,,,,8,02,,,,,,,,,,,8,1.345,1,,,,,,0.370833333,-0.391666667,1,0,0,1.345,Pumice_rect,13,0,13,0,1,
665877fac83409588bdc6bfb,SCN,2024-06-25_12h41.14.467,LearnStrategy,2023.2.3,MacIntel,62.5,1,2,15,,,,,,,,5,08,,,,,,,,,,,5,1.682,1,,,,,,-0.345833333,-0.405208333,1,0,0,1.682,Obsidian_rect,14,0,14,0,1,
665877fac83409588bdc6bfb,SCN,2024-06-25_12h41.14.467,LearnStrategy,2023.2.3,MacIntel,62.5,1,2,16,,,,,,,,3,09,,,,,,,,,,,3,2.287,1,,,,,,0.141666667,-0.264583333,1,0,0,2.287,Diorite_rect,15,0,15,0,1,
665877fac83409588bdc6bfb,SCN,2024-06-25_12h41.14.467,LearnStrategy,2023.2.3,MacIntel,62.5,2,1,1,-0.541666667,-0.405208333,1,0,0,7.874,Andesite_06,1,06,1,1,7.874,0.121875,-0.259375,1,0,0,1.902,Diorite_rect,3,1.902,0,0,0,0,0,1,,,,,,,,,,,,,
665877fac83409588bdc6bfb,SCN,2024-06-25_12h41.14.467,LearnStrategy,2023.2.3,MacIntel,62.5,2,1,2,-0.379166667,-0.416666667,1,0,0,2.423,Basalt_09,2,09,1,2,2.423,-0.128125,-0.253125,1,0,0,2.522,Basalt_rect,2,2.522,1,1,0,1,0,1,,,,,,,,,,,,,
665877fac83409588bdc6bfb,SCN,2024-06-25_12h41.14.467,LearnStrategy,2023.2.3,MacIntel,62.5,2,1,3,0.045833333,-0.411458333,1,0,0,2.132,Gabbro_11,4,11,1,5,2.132,-0.428125,-0.235416667,1,0,0,5.171,Andesite_rect,1,5.171,0,2,0,2,0,1,,,,,,,,,,,,,
665877fac83409588bdc6bfb,SCN,2024-06-25_12h41.14.467,LearnStrategy,2023.2.3,MacIntel,62.5,2,1,4,0.367708333,-0.392708333,1,0,0,1.781,Gabbro_08,4,08,1,7,1.781,0.36875,-0.2625,1,0,0,1.743,Gabbro_rect,4,1.743,1,3,0,3,0,1,,,,,,,,,,,,,
665877fac83409588bdc6bfb,SCN,2024-06-25_12h41.14.467,LearnStrategy,2023.2.3,MacIntel,62.5,2,1,5,0.242708333,-0.269791667,1,0,0,3.898,Andesite_10,1,10,2,6,3.898,-0.422916667,-0.246875,1,0,0,3.059,Andesite_rect,1,3.059,1,4,0,4,0,1,,,,,,,,,,,,,
665877fac83409588bdc6bfb,SCN,2024-06-25_12h41.14.467,LearnStrategy,2023.2.3,MacIntel,62.5,2,1,6,-0.223958333,-0.244791667,1,0,0,1.849,Peridotite_10,7,10,2,3,1.849,0.116666667,-0.388541667,1,0,0,3.487,Peridotite_rect,7,3.487,1,5,0,5,0,1,,,,,,,,,,,,,
665877fac83409588bdc6bfb,SCN,2024-06-25_12h41.14.467,LearnStrategy,2023.2.3,MacIntel,62.5,2,1,7,-0.401041667,-0.241666667,1,0,0,1.716,Gabbro_01,4,01,2,2,1.716,0.379166667,-0.251041667,1,0,0,4.945,Gabbro_rect,4,4.945,1,6,0,6,0,1,,,,,,,,,,,,,
665877fac83409588bdc6bfb,SCN,2024-06-25_12h41.14.467,LearnStrategy,2023.2.3,MacIntel,62.5,2,1,8,-0.394791667,-0.101041667,1,0,0,1.644,Andesite_14,1,14,3,2,1.644,0.083333333,-0.3875,1,0,0,5.105,Peridotite_rect,7,5.105,0,7,0,7,0,1,,,,,,,,,,,,,
665877fac83409588bdc6bfb,SCN,2024-06-25_12h41.14.467,LearnStrategy,2023.2.3,MacIntel,62.5,2,1,9,-0.088541667,0.108333333,1,0,0,1.498,Gabbro_03,4,03,4,4,1.498,0.129166667,-0.238541667,1,0,0,2.279,Diorite_rect,3,2.279,0,8,0,8,0,1,,,,,,,,,,,,,
665877fac83409588bdc6bfb,SCN,2024-06-25_12h41.14.467,LearnStrategy,2023.2.3,MacIntel,62.5,2,1,10,-0.539583333,0.072916667,1,0,0,2.78,Diorite_16,3,16,4,1,2.78,0.10625,-0.24375,1,0,0,2.236,Diorite_rect,3,2.236,1,9,0,9,0,1,,,,,,,,,,,,,
665877fac83409588bdc6bfb,SCN,2024-06-25_12h41.14.467,LearnStrategy,2023.2.3,MacIntel,62.5,2,1,11,0.196875,0.075,1,0,0,4.98,Diorite_02,3,02,4,6,4.98,0.153125,-0.248958333,1,0,0,3.26,Diorite_rect,3,3.26,1,10,0,10,0,1,,,,,,,,,,,,,
665877fac83409588bdc6bfb,SCN,2024-06-25_12h41.14.467,LearnStrategy,2023.2.3,MacIntel,62.5,2,1,12,0.546875,0.089583333,1,0,0,1.585,Peridotite_13,7,13,4,8,1.585,-0.347916667,-0.247916667,1,0,0,2.923,Andesite_rect,1,2.923,0,11,0,11,0,1,,,,,,,,,,,,,
665877fac83409588bdc6bfb,SCN,2024-06-25_12h41.14.467,LearnStrategy,2023.2.3,MacIntel,62.5,2,1,13,0.51875,0.253125,1,0,0,5.833,Andesite_11,1,11,5,8,5.833,-0.353125,-0.25,1,0,0,2.691,Andesite_rect,1,2.691,1,12,0,12,0,1,,,,,,,,,,,,,
665877fac83409588bdc6bfb,SCN,2024-06-25_12h41.14.467,LearnStrategy,2023.2.3,MacIntel,62.5,2,1,14,-0.408333333,-0.271875,1,0,0,1.878,Gabbro_01,4,01,2,2,1.878,0.369791667,-0.247916667,1,0,0,7.187,Gabbro_rect,4,7.187,1,13,0,13,0,1,,,,,,,,,,,,,
665877fac83409588bdc6bfb,SCN,2024-06-25_12h41.14.467,LearnStrategy,2023.2.3,MacIntel,62.5,2,1,15,-0.240625,-0.296875,1,0,0,2.543,Peridotite_10,7,10,2,3,2.543,0.135416667,-0.408333333,1,0,0,4.078,Peridotite_rect,7,4.078,1,14,0,14,0,1,,,,,,,,,,,,,
665877fac83409588bdc6bfb,SCN,2024-06-25_12h41.14.467,LearnStrategy,2023.2.3,MacIntel,62.5,2,1,16,-0.559375,-0.260416667,1,0,0,1.566,Andesite_09,1,09,2,1,1.566,0.428125,-0.258333333,1,0,0,3.072,Gabbro_rect,4,3.072,0,15,0,15,0,1,,,,,,,,,,,,,
665877fac83409588bdc6bfb,SCN,2024-06-25_12h41.14.467,LearnStrategy,2023.2.3,MacIntel,62.5,2,2,1,,,,,,,,8,05,,,,,,,,,,,8,3.399,1,,,,,,0.334375,-0.378125,1,0,0,3.399,Pumice_rect,0,0,0,0,1,
665877fac83409588bdc6bfb,SCN,2024-06-25_12h41.14.467,LearnStrategy,2023.2.3,MacIntel,62.5,2,2,2,,,,,,,,1,16,,,,,,,,,,,1,3.705,1,,,,,,-0.361458333,-0.271875,1,0,0,3.705,Andesite_rect,1,0,1,0,1,
665877fac83409588bdc6bfb,SCN,2024-06-25_12h41.14.467,LearnStrategy,2023.2.3,MacIntel,62.5,2,2,3,,,,,,,,2,05,,,,,,,,,,,2,2.94,1,,,,,,-0.123958333,-0.266666667,1,0,0,2.94,Basalt_rect,2,0,2,0,1,
665877fac83409588bdc6bfb,SCN,2024-06-25_12h41.14.467,LearnStrategy,2023.2.3,MacIntel,62.5,2,2,4,,,,,,,,7,05,,,,,,,,,,,4,3.286,0,,,,,,0.403125,-0.259375,1,0,0,3.286,Gabbro_rect,3,0,3,0,1,
665877fac83409588bdc6bfb,SCN,2024-06-25_12h41.14.467,LearnStrategy,2023.2.3,MacIntel,62.5,2,2,5,,,,,,,,4,13,,,,,,,,,,,6,2.761,0,,,,,,-0.108333333,-0.414583333,1,0,0,2.761,Pegmatite_rect,4,0,4,0,1,
665877fac83409588bdc6bfb,SCN,2024-06-25_12h41.14.467,LearnStrategy,2023.2.3,MacIntel,62.5,2,2,6,,,,,,,,4,09,,,,,,,,,,,5,1.523,0,,,,,,-0.339583333,-0.407291667,1,0,0,1.523,Obsidian_rect,5,0,5,0,1,
665877fac83409588bdc6bfb,SCN,2024-06-25_12h41.14.467,LearnStrategy,2023.2.3,MacIntel,62.5,2,2,7,,,,,,,,6,09,,,,,,,,,,,6,5.759,1,,,,,,-0.165625,-0.398958333,1,0,0,5.759,Pegmatite_rect,6,0,6,0,1,
665877fac83409588bdc6bfb,SCN,2024-06-25_12h41.14.467,LearnStrategy,2023.2.3,MacIntel,62.5,2,2,8,,,,,,,,3,13,,,,,,,,,,,3,1.804,1,,,,,,0.098958333,-0.265625,1,0,0,1.804,Diorite_rect,7,0,7,0,1,
665877fac83409588bdc6bfb,SCN,2024-06-25_12h41.14.467,LearnStrategy,2023.2.3,MacIntel,62.5,2,2,9,,,,,,,,2,12,,,,,,,,,,,8,1.368,0,,,,,,0.348958333,-0.385416667,1,0,0,1.368,Pumice_rect,8,0,8,0,1,
665877fac83409588bdc6bfb,SCN,2024-06-25_12h41.14.467,LearnStrategy,2023.2.3,MacIntel,62.5,2,2,10,,,,,,,,7,14,,,,,,,,,,,7,7.935,1,,,,,,0.171875,-0.407291667,1,0,0,7.935,Peridotite_rect,9,0,9,0,1,
665877fac83409588bdc6bfb,SCN,2024-06-25_12h41.14.467,LearnStrategy,2023.2.3,MacIntel,62.5,2,2,11,,,,,,,,8,14,,,,,,,,,,,8,1.105,1,,,,,,0.344791667,-0.409375,1,0,0,1.105,Pumice_rect,10,0,10,0,1,
665877fac83409588bdc6bfb,SCN,2024-06-25_12h41.14.467,LearnStrategy,2023.2.3,MacIntel,62.5,2,2,12,,,,,,,,3,10,,,,,,,,,,,3,2.245,1,,,,,,0.2125,-0.270833333,1,0,0,2.245,Diorite_rect,11,0,11,0,1,
665877fac83409588bdc6bfb,SCN,2024-06-25_12h41.14.467,LearnStrategy,2023.2.3,MacIntel,62.5,2,2,13,,,,,,,,6,12,,,,,,,,,,,6,1.624,1,,,,,,-0.082291667,-0.39375,1,0,0,1.624,Pegmatite_rect,12,0,12,0,1,
665877fac83409588bdc6bfb,SCN,2024-06-25_12h41.14.467,LearnStrategy,2023.2.3,MacIntel,62.5,2,2,14,,,,,,,,5,02,,,,,,,,,,,5,1.255,1,,,,,,-0.329166667,-0.39375,1,0,0,1.255,Obsidian_rect,13,0,13,0,1,
665877fac83409588bdc6bfb,SCN,2024-06-25_12h41.14.467,LearnStrategy,2023.2.3,MacIntel,62.5,2,2,15,,,,,,,,5,10,,,,,,,,,,,5,0.847,1,,,,,,-0.329166667,-0.39375,1,0,0,0.847,Obsidian_rect,14,0,14,0,1,
665877fac83409588bdc6bfb,SCN,2024-06-25_12h41.14.467,LearnStrategy,2023.2.3,MacIntel,62.5,2,2,16,,,,,,,,1,07,,,,,,,,,,,1,2.625,1,,,,,,-0.33125,-0.263541667,1,0,0,2.625,Andesite_rect,15,0,15,0,1,
665877fac83409588bdc6bfb,SCN,2024-06-25_12h41.14.467,LearnStrategy,2023.2.3,MacIntel,62.5,3,1,1,0.540625,-0.101041667,1,0,0,7.883,Pumice_16,8,16,3,8,7.883,0.407291667,-0.396875,1,0,0,1.298,Pumice_rect,8,1.298,1,0,0,0,0,1,,,,,,,,,,,,,
665877fac83409588bdc6bfb,SCN,2024-06-25_12h41.14.467,LearnStrategy,2023.2.3,MacIntel,62.5,3,1,2,0.558333333,0.09375,1,0,0,1.216,Peridotite_13,7,13,4,8,1.216,0.163541667,-0.405208333,1,0,0,3.268,Peridotite_rect,7,3.268,1,1,0,1,0,1,,,,,,,,,,,,,
665877fac83409588bdc6bfb,SCN,2024-06-25_12h41.14.467,LearnStrategy,2023.2.3,MacIntel,62.5,3,1,3,0.394791667,0.085416667,1,0,0,1.366,Gabbro_14,4,14,4,7,1.366,-0.113541667,-0.239583333,1,0,0,4.42,Basalt_rect,2,4.42,0,2,0,2,0,1,,,,,,,,,,,,,
665877fac83409588bdc6bfb,SCN,2024-06-25_12h41.14.467,LearnStrategy,2023.2.3,MacIntel,62.5,3,1,4,0.229166667,0.05625,1,0,0,1.849,Diorite_02,3,02,4,6,1.849,0.153125,-0.25,1,0,0,1.324,Diorite_rect,3,1.324,1,3,0,3,0,1,,,,,,,,,,,,,
665877fac83409588bdc6bfb,SCN,2024-06-25_12h41.14.467,LearnStrategy,2023.2.3,MacIntel,62.5,3,1,5,-0.102083333,0.053125,1,0,0,5.227,Gabbro_03,4,03,4,4,5.227,0.129166667,-0.25625,1,0,0,2.806,Diorite_rect,3,2.806,0,4,0,4,0,1,,,,,,,,,,,,,
665877fac83409588bdc6bfb,SCN,2024-06-25_12h41.14.467,LearnStrategy,2023.2.3,MacIntel,62.5,3,1,6,-0.0625,-0.136458333,1,0,0,1.533,Andesite_03,1,03,3,4,1.533,-0.389583333,-0.254166667,1,0,0,2.028,Andesite_rect,1,2.028,1,5,0,5,0,1,,,,,,,,,,,,,
665877fac83409588bdc6bfb,SCN,2024-06-25_12h41.14.467,LearnStrategy,2023.2.3,MacIntel,62.5,3,1,7,-0.578125,-0.251041667,1,0,0,3.134,Andesite_09,1,09,2,1,3.134,0.09375,-0.253125,1,0,0,3.819,Diorite_rect,3,3.819,0,6,0,6,0,1,,,,,,,,,,,,,
665877fac83409588bdc6bfb,SCN,2024-06-25_12h41.14.467,LearnStrategy,2023.2.3,MacIntel,62.5,3,1,8,-0.560416667,-0.373958333,1,0,0,2.38,Andesite_06,1,06,1,1,2.38,0.127083333,-0.236458333,1,0,0,1.373,Diorite_rect,3,1.373,0,7,0,7,0,1,,,,,,,,,,,,,
665877fac83409588bdc6bfb,SCN,2024-06-25_12h41.14.467,LearnStrategy,2023.2.3,MacIntel,62.5,3,1,9,0.23125,-0.136458333,1,0,0,2.668,Basalt_08,2,08,3,6,2.668,-0.107291667,-0.263541667,1,0,0,1.408,Basalt_rect,2,1.408,1,8,0,8,0,1,,,,,,,,,,,,,
665877fac83409588bdc6bfb,SCN,2024-06-25_12h41.14.467,LearnStrategy,2023.2.3,MacIntel,62.5,3,1,10,0.070833333,-0.101041667,1,0,0,1.383,Basalt_02,2,02,3,5,1.383,-0.127083333,-0.24375,1,0,0,1.604,Basalt_rect,2,1.604,1,9,0,9,0,1,,,,,,,,,,,,,
665877fac83409588bdc6bfb,SCN,2024-06-25_12h41.14.467,LearnStrategy,2023.2.3,MacIntel,62.5,3,1,11,-0.076041667,-0.127083333,1,0,0,1.332,Andesite_03,1,03,3,4,1.332,-0.3375,-0.230208333,1,0,0,5.01,Andesite_rect,1,5.01,1,10,0,10,0,1,,,,,,,,,,,,,
665877fac83409588bdc6bfb,SCN,2024-06-25_12h41.14.467,LearnStrategy,2023.2.3,MacIntel,62.5,3,1,12,-0.248958333,-0.1125,1,0,0,4.983,Basalt_14,2,14,3,3,4.983,0.403125,-0.419791667,1,0,0,1.42,Pumice_rect,8,1.42,0,11,0,11,0,1,,,,,,,,,,,,,
665877fac83409588bdc6bfb,SCN,2024-06-25_12h41.14.467,LearnStrategy,2023.2.3,MacIntel,62.5,3,1,13,0.397916667,0.401041667,1,0,0,11.533,Pegmatite_13,6,13,6,7,11.533,-0.383333333,-0.242708333,1,0,0,1.851,Andesite_rect,1,1.851,0,12,0,12,0,1,,,,,,,,,,,,,
665877fac83409588bdc6bfb,SCN,2024-06-25_12h41.14.467,LearnStrategy,2023.2.3,MacIntel,62.5,3,1,14,-0.375,0.234375,1,0,0,2.799,Pegmatite_03,6,03,5,2,2.799,-0.058333333,-0.396875,1,0,0,3.322,Pegmatite_rect,6,3.322,1,13,0,13,0,1,,,,,,,,,,,,,
665877fac83409588bdc6bfb,SCN,2024-06-25_12h41.14.467,LearnStrategy,2023.2.3,MacIntel,62.5,3,1,15,-0.552083333,-0.123958333,1,0,0,1.599,Peridotite_06,7,06,3,1,1.599,0.095833333,-0.247916667,1,0,0,2.144,Diorite_rect,3,2.144,0,14,0,14,0,1,,,,,,,,,,,,,
665877fac83409588bdc6bfb,SCN,2024-06-25_12h41.14.467,LearnStrategy,2023.2.3,MacIntel,62.5,3,1,16,-0.576041667,-0.258333333,1,0,0,2.198,Andesite_09,1,09,2,1,2.198,0.120833333,-0.258333333,1,0,0,2.577,Diorite_rect,3,2.577,0,15,0,15,0,1,,,,,,,,,,,,,
665877fac83409588bdc6bfb,SCN,2024-06-25_12h41.14.467,LearnStrategy,2023.2.3,MacIntel,62.5,3,2,1,,,,,,,,3,12,,,,,,,,,,,3,5.042,1,,,,,,0.134375,-0.258333333,1,0,0,5.042,Diorite_rect,0,0,0,0,1,
665877fac83409588bdc6bfb,SCN,2024-06-25_12h41.14.467,LearnStrategy,2023.2.3,MacIntel,62.5,3,2,2,,,,,,,,1,05,,,,,,,,,,,1,5.878,1,,,,,,-0.328125,-0.24375,1,0,0,5.878,Andesite_rect,1,0,1,0,1,
665877fac83409588bdc6bfb,SCN,2024-06-25_12h41.14.467,LearnStrategy,2023.2.3,MacIntel,62.5,3,2,3,,,,,,,,6,08,,,,,,,,,,,6,1.881,1,,,,,,-0.1625,-0.39375,1,0,0,1.881,Pegmatite_rect,2,0,2,0,1,
665877fac83409588bdc6bfb,SCN,2024-06-25_12h41.14.467,LearnStrategy,2023.2.3,MacIntel,62.5,3,2,4,,,,,,,,6,11,,,,,,,,,,,6,9.623,1,,,,,,-0.1625,-0.39375,1,0,0,9.623,Pegmatite_rect,3,0,3,0,1,
665877fac83409588bdc6bfb,SCN,2024-06-25_12h41.14.467,LearnStrategy,2023.2.3,MacIntel,62.5,3,2,5,,,,,,,,5,05,,,,,,,,,,,5,1.838,1,,,,,,-0.328125,-0.392708333,1,0,0,1.838,Obsidian_rect,4,0,4,0,1,
665877fac83409588bdc6bfb,SCN,2024-06-25_12h41.14.467,LearnStrategy,2023.2.3,MacIntel,62.5,3,2,6,,,,,,,,3,15,,,,,,,,,,,3,2.618,1,,,,,,0.1625,-0.251041667,1,0,0,2.618,Diorite_rect,5,0,5,0,1,
665877fac83409588bdc6bfb,SCN,2024-06-25_12h41.14.467,LearnStrategy,2023.2.3,MacIntel,62.5,3,2,7,,,,,,,,8,06,,,,,,,,,,,8,1.273,1,,,,,,0.363541667,-0.379166667,1,0,0,1.273,Pumice_rect,6,0,6,0,1,
665877fac83409588bdc6bfb,SCN,2024-06-25_12h41.14.467,LearnStrategy,2023.2.3,MacIntel,62.5,3,2,8,,,,,,,,4,10,,,,,,,,,,,5,1.708,0,,,,,,-0.344791667,-0.405208333,1,0,0,1.708,Obsidian_rect,7,0,7,0,1,
665877fac83409588bdc6bfb,SCN,2024-06-25_12h41.14.467,LearnStrategy,2023.2.3,MacIntel,62.5,3,2,9,,,,,,,,1,01,,,,,,,,,,,7,1.901,0,,,,,,0.128125,-0.413541667,1,0,0,1.901,Peridotite_rect,8,0,8,0,1,
665877fac83409588bdc6bfb,SCN,2024-06-25_12h41.14.467,LearnStrategy,2023.2.3,MacIntel,62.5,3,2,10,,,,,,,,7,02,,,,,,,,,,,3,2.118,0,,,,,,0.105208333,-0.247916667,1,0,0,2.118,Diorite_rect,9,0,9,0,1,
665877fac83409588bdc6bfb,SCN,2024-06-25_12h41.14.467,LearnStrategy,2023.2.3,MacIntel,62.5,3,2,11,,,,,,,,4,16,,,,,,,,,,,2,4.195,0,,,,,,-0.086458333,-0.263541667,1,0,0,4.195,Basalt_rect,10,0,10,0,1,
665877fac83409588bdc6bfb,SCN,2024-06-25_12h41.14.467,LearnStrategy,2023.2.3,MacIntel,62.5,3,2,12,,,,,,,,8,13,,,,,,,,,,,8,1.22,1,,,,,,0.369791667,-0.408333333,1,0,0,1.22,Pumice_rect,11,0,11,0,1,
665877fac83409588bdc6bfb,SCN,2024-06-25_12h41.14.467,LearnStrategy,2023.2.3,MacIntel,62.5,3,2,13,,,,,,,,5,14,,,,,,,,,,,5,1.276,1,,,,,,-0.353125,-0.413541667,1,0,0,1.276,Obsidian_rect,12,0,12,0,1,
665877fac83409588bdc6bfb,SCN,2024-06-25_12h41.14.467,LearnStrategy,2023.2.3,MacIntel,62.5,3,2,14,,,,,,,,2,01,,,,,,,,,,,2,1.331,1,,,,,,-0.154166667,-0.258333333,1,0,0,1.331,Basalt_rect,13,0,13,0,1,
665877fac83409588bdc6bfb,SCN,2024-06-25_12h41.14.467,LearnStrategy,2023.2.3,MacIntel,62.5,3,2,15,,,,,,,,2,16,,,,,,,,,,,2,1.792,1,,,,,,-0.154166667,-0.258333333,1,0,0,1.792,Basalt_rect,14,0,14,0,1,
665877fac83409588bdc6bfb,SCN,2024-06-25_12h41.14.467,LearnStrategy,2023.2.3,MacIntel,62.5,3,2,16,,,,,,,,7,15,,,,,,,,,,,3,2.278,0,,,,,,0.086458333,-0.266666667,1,0,0,2.278,Diorite_rect,15,0,15,0,1,
665877fac83409588bdc6bfb,SCN,2024-06-25_12h41.14.467,LearnStrategy,2023.2.3,MacIntel,62.5,4,1,1,0.401041667,0.109375,1,0,0,12.049,Gabbro_14,4,14,4,7,12.049,0.371875,-0.239583333,1,0,0,3.483,Gabbro_rect,4,3.483,1,0,0,0,0,1,,,,,,,,,,,,,
665877fac83409588bdc6bfb,SCN,2024-06-25_12h41.14.467,LearnStrategy,2023.2.3,MacIntel,62.5,4,1,2,0.228125,0.379166667,1,0,0,9.685,Obsidian_12,5,12,6,6,9.685,-0.4,-0.405208333,1,0,0,1.689,Obsidian_rect,5,1.689,1,1,0,1,0,1,,,,,,,,,,,,,
665877fac83409588bdc6bfb,SCN,2024-06-25_12h41.14.467,LearnStrategy,2023.2.3,MacIntel,62.5,4,1,3,0.540625,0.377083333,1,0,0,1.168,Obsidian_07,5,07,6,8,1.168,-0.347916667,-0.395833333,1,0,0,2.529,Obsidian_rect,5,2.529,1,2,0,2,0,1,,,,,,,,,,,,,
665877fac83409588bdc6bfb,SCN,2024-06-25_12h41.14.467,LearnStrategy,2023.2.3,MacIntel,62.5,4,1,4,0.38125,-0.413541667,1,0,0,4.51,Gabbro_08,4,08,1,7,4.51,0.380208333,-0.229166667,1,0,0,1.393,Gabbro_rect,4,1.393,1,3,0,3,0,1,,,,,,,,,,,,,
665877fac83409588bdc6bfb,SCN,2024-06-25_12h41.14.467,LearnStrategy,2023.2.3,MacIntel,62.5,4,1,5,0.080208333,-0.373958333,1,0,0,2.375,Gabbro_11,4,11,1,5,2.375,0.410416667,-0.251041667,1,0,0,3.804,Gabbro_rect,4,3.804,1,4,0,4,0,1,,,,,,,,,,,,,
665877fac83409588bdc6bfb,SCN,2024-06-25_12h41.14.467,LearnStrategy,2023.2.3,MacIntel,62.5,4,1,6,-0.238541667,-0.261458333,1,0,0,4.365,Peridotite_10,7,10,2,3,4.365,0.148958333,-0.255208333,1,0,0,1.876,Diorite_rect,3,1.876,0,5,0,5,0,1,,,,,,,,,,,,,
665877fac83409588bdc6bfb,SCN,2024-06-25_12h41.14.467,LearnStrategy,2023.2.3,MacIntel,62.5,4,1,7,-0.563541667,-0.116666667,1,0,0,2.642,Peridotite_06,7,06,3,1,2.642,0.092708333,-0.390625,1,0,0,1.484,Peridotite_rect,7,1.484,1,6,0,6,0,1,,,,,,,,,,,,,
665877fac83409588bdc6bfb,SCN,2024-06-25_12h41.14.467,LearnStrategy,2023.2.3,MacIntel,62.5,4,1,8,-0.075,0.071875,1,0,0,1.956,Gabbro_03,4,03,4,4,1.956,0.114583333,-0.233333333,1,0,0,1.954,Diorite_rect,3,1.954,0,7,0,7,0,1,,,,,,,,,,,,,
665877fac83409588bdc6bfb,SCN,2024-06-25_12h41.14.467,LearnStrategy,2023.2.3,MacIntel,62.5,4,1,9,-0.215625,0.084375,1,0,0,1.313,Pegmatite_07,6,07,4,3,1.313,-0.396875,-0.230208333,1,0,0,3.596,Andesite_rect,1,3.596,0,8,0,8,0,1,,,,,,,,,,,,,
665877fac83409588bdc6bfb,SCN,2024-06-25_12h41.14.467,LearnStrategy,2023.2.3,MacIntel,62.5,4,1,10,-0.38125,0.238541667,1,0,0,2.249,Pegmatite_03,6,03,5,2,2.249,-0.141666667,-0.392708333,1,0,0,1.377,Pegmatite_rect,6,1.377,1,9,0,9,0,1,,,,,,,,,,,,,
665877fac83409588bdc6bfb,SCN,2024-06-25_12h41.14.467,LearnStrategy,2023.2.3,MacIntel,62.5,4,1,11,-0.053125,-0.092708333,1,0,0,2.031,Andesite_03,1,03,3,4,2.031,0.110416667,-0.24375,1,0,0,1.668,Diorite_rect,3,1.668,0,10,0,10,0,1,,,,,,,,,,,,,
665877fac83409588bdc6bfb,SCN,2024-06-25_12h41.14.467,LearnStrategy,2023.2.3,MacIntel,62.5,4,1,12,-0.366666667,-0.09375,1,0,0,3.933,Andesite_14,1,14,3,2,3.933,-0.371875,-0.236458333,1,0,0,1.905,Andesite_rect,1,1.905,1,11,0,11,0,1,,,,,,,,,,,,,
665877fac83409588bdc6bfb,SCN,2024-06-25_12h41.14.467,LearnStrategy,2023.2.3,MacIntel,62.5,4,1,13,-0.530208333,-0.255208333,1,0,0,5.015,Andesite_09,1,09,2,1,5.015,0.107291667,-0.407291667,1,0,0,3.309,Peridotite_rect,7,3.309,0,12,0,12,0,1,,,,,,,,,,,,,
665877fac83409588bdc6bfb,SCN,2024-06-25_12h41.14.467,LearnStrategy,2023.2.3,MacIntel,62.5,4,1,14,-0.245833333,0.073958333,1,0,0,6.474,Pegmatite_07,6,07,4,3,6.474,-0.391666667,-0.23125,1,0,0,1.302,Andesite_rect,1,1.302,0,13,0,13,0,1,,,,,,,,,,,,,
665877fac83409588bdc6bfb,SCN,2024-06-25_12h41.14.467,LearnStrategy,2023.2.3,MacIntel,62.5,4,1,15,0.077083333,0.057291667,1,0,0,1.364,Pegmatite_16,6,16,4,5,1.364,-0.152083333,-0.405208333,1,0,0,1.508,Pegmatite_rect,6,1.508,1,14,0,14,0,1,,,,,,,,,,,,,
665877fac83409588bdc6bfb,SCN,2024-06-25_12h41.14.467,LearnStrategy,2023.2.3,MacIntel,62.5,4,1,16,0.266666667,0.059375,1,0,0,1.237,Diorite_02,3,02,4,6,1.237,0.155208333,-0.251041667,1,0,0,0.931,Diorite_rect,3,0.931,1,15,0,15,0,1,,,,,,,,,,,,,
665877fac83409588bdc6bfb,SCN,2024-06-25_12h41.14.467,LearnStrategy,2023.2.3,MacIntel,62.5,4,2,1,,,,,,,,5,14,,,,,,,,,,,5,1.492,1,,,,,,-0.359375,-0.385416667,1,0,0,1.492,Obsidian_rect,0,0,0,0,1,
665877fac83409588bdc6bfb,SCN,2024-06-25_12h41.14.467,LearnStrategy,2023.2.3,MacIntel,62.5,4,2,2,,,,,,,,4,15,,,,,,,,,,,1,7.008,0,,,,,,-0.340625,-0.254166667,1,0,0,7.008,Andesite_rect,1,0,1,0,1,
665877fac83409588bdc6bfb,SCN,2024-06-25_12h41.14.467,LearnStrategy,2023.2.3,MacIntel,62.5,4,2,3,,,,,,,,5,08,,,,,,,,,,,5,1.155,1,,,,,,-0.361458333,-0.392708333,1,0,0,1.155,Obsidian_rect,2,0,2,0,1,
665877fac83409588bdc6bfb,SCN,2024-06-25_12h41.14.467,LearnStrategy,2023.2.3,MacIntel,62.5,4,2,4,,,,,,,,2,01,,,,,,,,,,,2,1.896,1,,,,,,-0.136458333,-0.263541667,1,0,0,1.896,Basalt_rect,3,0,3,0,1,
665877fac83409588bdc6bfb,SCN,2024-06-25_12h41.14.467,LearnStrategy,2023.2.3,MacIntel,62.5,4,2,5,,,,,,,,1,16,,,,,,,,,,,3,5.69,0,,,,,,0.1625,-0.259375,1,0,0,5.69,Diorite_rect,4,0,4,0,1,
665877fac83409588bdc6bfb,SCN,2024-06-25_12h41.14.467,LearnStrategy,2023.2.3,MacIntel,62.5,4,2,6,,,,,,,,7,02,,,,,,,,,,,7,4.754,1,,,,,,0.125,-0.389583333,1,0,0,4.754,Peridotite_rect,5,0,5,0,1,
665877fac83409588bdc6bfb,SCN,2024-06-25_12h41.14.467,LearnStrategy,2023.2.3,MacIntel,62.5,4,2,7,,,,,,,,8,02,,,,,,,,,,,8,1.138,1,,,,,,0.320833333,-0.408333333,1,0,0,1.138,Pumice_rect,6,0,6,0,1,
665877fac83409588bdc6bfb,SCN,2024-06-25_12h41.14.467,LearnStrategy,2023.2.3,MacIntel,62.5,4,2,8,,,,,,,,6,06,,,,,,,,,,,1,6.418,0,,,,,,-0.376041667,-0.25625,1,0,0,6.418,Andesite_rect,7,0,7,0,1,
665877fac83409588bdc6bfb,SCN,2024-06-25_12h41.14.467,LearnStrategy,2023.2.3,MacIntel,62.5,4,2,9,,,,,,,,8,05,,,,,,,,,,,8,1.527,1,,,,,,0.384375,-0.407291667,1,0,0,1.527,Pumice_rect,8,0,8,0,1,
665877fac83409588bdc6bfb,SCN,2024-06-25_12h41.14.467,LearnStrategy,2023.2.3,MacIntel,62.5,4,2,10,,,,,,,,1,05,,,,,,,,,,,1,4.857,1,,,,,,-0.334375,-0.258333333,1,0,0,4.857,Andesite_rect,9,0,9,0,1,
665877fac83409588bdc6bfb,SCN,2024-06-25_12h41.14.467,LearnStrategy,2023.2.3,MacIntel,62.5,4,2,11,,,,,,,,7,04,,,,,,,,,,,6,4.485,0,,,,,,-0.128125,-0.415625,1,0,0,4.485,Pegmatite_rect,10,0,10,0,1,
665877fac83409588bdc6bfb,SCN,2024-06-25_12h41.14.467,LearnStrategy,2023.2.3,MacIntel,62.5,4,2,12,,,,,,,,4,12,,,,,,,,,,,4,1.741,1,,,,,,0.394791667,-0.254166667,1,0,0,1.741,Gabbro_rect,11,0,11,0,1,
665877fac83409588bdc6bfb,SCN,2024-06-25_12h41.14.467,LearnStrategy,2023.2.3,MacIntel,62.5,4,2,13,,,,,,,,6,05,,,,,,,,,,,1,12.73,0,,,,,,-0.351041667,-0.261458333,1,0,0,12.73,Andesite_rect,12,0,12,0,1,
665877fac83409588bdc6bfb,SCN,2024-06-25_12h41.14.467,LearnStrategy,2023.2.3,MacIntel,62.5,4,2,14,,,,,,,,3,12,,,,,,,,,,,3,2.82,1,,,,,,0.1125,-0.26875,1,0,0,2.82,Diorite_rect,13,0,13,0,1,
665877fac83409588bdc6bfb,SCN,2024-06-25_12h41.14.467,LearnStrategy,2023.2.3,MacIntel,62.5,4,2,15,,,,,,,,3,10,,,,,,,,,,,3,1.773,1,,,,,,0.1125,-0.26875,1,0,0,1.773,Diorite_rect,14,0,14,0,1,
665877fac83409588bdc6bfb,SCN,2024-06-25_12h41.14.467,LearnStrategy,2023.2.3,MacIntel,62.5,4,2,16,,,,,,,,2,05,,,,,,,,,,,2,1.414,1,,,,,,-0.097916667,-0.263541667,1,0,0,1.414,Basalt_rect,15,0,15,0,1,
665877fac83409588bdc6bfb,SCN,2024-06-25_12h41.14.467,LearnStrategy,2023.2.3,MacIntel,62.5,5,1,1,-0.370833333,-0.4125,1,0,0,3.265,Basalt_09,2,09,1,2,3.265,0.394791667,-0.257291667,1,0,0,2.598,Gabbro_rect,4,2.598,0,0,0,0,0,1,,,,,,,,,,,,,
665877fac83409588bdc6bfb,SCN,2024-06-25_12h41.14.467,LearnStrategy,2023.2.3,MacIntel,62.5,5,1,2,-0.526041667,-0.2625,1,0,0,2.88,Andesite_09,1,09,2,1,2.88,0.419791667,-0.248958333,1,0,0,1.188,Gabbro_rect,4,1.188,0,1,0,1,0,1,,,,,,,,,,,,,
665877fac83409588bdc6bfb,SCN,2024-06-25_12h41.14.467,LearnStrategy,2023.2.3,MacIntel,62.5,5,1,3,0.073958333,-0.129166667,1,0,0,0.983,Basalt_02,2,02,3,5,0.983,0.377083333,-0.235416667,1,0,0,1.126,Gabbro_rect,4,1.126,0,2,0,2,0,1,,,,,,,,,,,,,
665877fac83409588bdc6bfb,SCN,2024-06-25_12h41.14.467,LearnStrategy,2023.2.3,MacIntel,62.5,5,1,4,0.395833333,-0.260416667,1,0,0,1.115,Gabbro_05,4,05,2,7,1.115,-0.123958333,-0.395833333,1,0,0,4.285,Pegmatite_rect,6,4.285,0,3,0,3,0,1,,,,,,,,,,,,,
665877fac83409588bdc6bfb,SCN,2024-06-25_12h41.14.467,LearnStrategy,2023.2.3,MacIntel,62.5,5,1,5,0.545833333,0.057291667,1,0,0,4.604,Peridotite_13,7,13,4,8,4.604,0.103125,-0.40625,1,0,0,5.494,Peridotite_rect,7,5.494,1,4,0,4,0,1,,,,,,,,,,,,,
665877fac83409588bdc6bfb,SCN,2024-06-25_12h41.14.467,LearnStrategy,2023.2.3,MacIntel,62.5,5,1,6,-0.384375,0.08125,1,0,0,1.127,Pegmatite_10,6,10,4,2,1.127,-0.177083333,-0.395833333,1,0,0,1.137,Pegmatite_rect,6,1.137,1,5,0,5,0,1,,,,,,,,,,,,,
665877fac83409588bdc6bfb,SCN,2024-06-25_12h41.14.467,LearnStrategy,2023.2.3,MacIntel,62.5,5,1,7,-0.540625,-0.091666667,1,0,0,1.623,Peridotite_06,7,06,3,1,1.623,0.110416667,-0.407291667,1,0,0,1.927,Peridotite_rect,7,1.927,1,6,0,6,0,1,,,,,,,,,,,,,
665877fac83409588bdc6bfb,SCN,2024-06-25_12h41.14.467,LearnStrategy,2023.2.3,MacIntel,62.5,5,1,8,-0.055208333,0.075,1,0,0,1.215,Gabbro_03,4,03,4,4,1.215,0.354166667,-0.254166667,1,0,0,1.979,Gabbro_rect,4,1.979,1,7,0,7,0,1,,,,,,,,,,,,,
665877fac83409588bdc6bfb,SCN,2024-06-25_12h41.14.467,LearnStrategy,2023.2.3,MacIntel,62.5,5,1,9,-0.036458333,-0.1,1,0,0,5.458,Andesite_03,1,03,3,4,5.458,-0.347916667,-0.25625,1,0,0,2.262,Andesite_rect,1,2.262,1,8,0,8,0,1,,,,,,,,,,,,,
665877fac83409588bdc6bfb,SCN,2024-06-25_12h41.14.467,LearnStrategy,2023.2.3,MacIntel,62.5,5,1,10,-0.402083333,-0.097916667,1,0,0,3.641,Andesite_14,1,14,3,2,3.641,-0.404166667,-0.245833333,1,0,0,2.004,Andesite_rect,1,2.004,1,9,0,9,0,1,,,,,,,,,,,,,
665877fac83409588bdc6bfb,SCN,2024-06-25_12h41.14.467,LearnStrategy,2023.2.3,MacIntel,62.5,5,1,11,-0.539583333,-0.108333333,1,0,0,1.422,Peridotite_06,7,06,3,1,1.422,-0.115625,-0.3875,1,0,0,2.785,Pegmatite_rect,6,2.785,0,10,0,10,0,1,,,,,,,,,,,,,
665877fac83409588bdc6bfb,SCN,2024-06-25_12h41.14.467,LearnStrategy,2023.2.3,MacIntel,62.5,5,1,12,-0.570833333,-0.241666667,1,0,0,2.65,Andesite_09,1,09,2,1,2.65,0.407291667,-0.241666667,1,0,0,2.869,Gabbro_rect,4,2.869,0,11,0,11,0,1,,,,,,,,,,,,,
665877fac83409588bdc6bfb,SCN,2024-06-25_12h41.14.467,LearnStrategy,2023.2.3,MacIntel,62.5,5,1,13,0.042708333,0.096875,1,0,0,1.475,Pegmatite_16,6,16,4,5,1.475,-0.328125,-0.251041667,1,0,0,1.452,Andesite_rect,1,1.452,0,12,0,12,0,1,,,,,,,,,,,,,
665877fac83409588bdc6bfb,SCN,2024-06-25_12h41.14.467,LearnStrategy,2023.2.3,MacIntel,62.5,5,1,14,-0.078125,0.094791667,1,0,0,1.066,Gabbro_03,4,03,4,4,1.066,0.109375,-0.270833333,1,0,0,2.186,Diorite_rect,3,2.186,0,13,0,13,0,1,,,,,,,,,,,,,
665877fac83409588bdc6bfb,SCN,2024-06-25_12h41.14.467,LearnStrategy,2023.2.3,MacIntel,62.5,5,1,15,-0.357291667,0.378125,1,0,0,4.346,Peridotite_16,7,16,6,2,4.346,0.080208333,-0.40625,1,0,0,7.007,Peridotite_rect,7,7.007,1,14,0,14,0,1,,,,,,,,,,,,,
665877fac83409588bdc6bfb,SCN,2024-06-25_12h41.14.467,LearnStrategy,2023.2.3,MacIntel,62.5,5,1,16,0.413541667,-0.244791667,1,0,0,3.249,Gabbro_05,4,05,2,7,3.249,0.138541667,-0.4125,1,0,0,4.141,Peridotite_rect,7,4.141,0,15,0,15,0,1,,,,,,,,,,,,,
665877fac83409588bdc6bfb,SCN,2024-06-25_12h41.14.467,LearnStrategy,2023.2.3,MacIntel,62.5,5,2,1,,,,,,,,6,09,,,,,,,,,,,7,4.029,0,,,,,,0.070833333,-0.411458333,1,0,0,4.029,Peridotite_rect,0,0,0,0,1,
665877fac83409588bdc6bfb,SCN,2024-06-25_12h41.14.467,LearnStrategy,2023.2.3,MacIntel,62.5,5,2,2,,,,,,,,8,14,,,,,,,,,,,8,1.477,1,,,,,,0.316666667,-0.404166667,1,0,0,1.477,Pumice_rect,1,0,1,0,1,
665877fac83409588bdc6bfb,SCN,2024-06-25_12h41.14.467,LearnStrategy,2023.2.3,MacIntel,62.5,5,2,3,,,,,,,,5,05,,,,,,,,,,,5,1.371,1,,,,,,-0.332291667,-0.394791667,1,0,0,1.371,Obsidian_rect,2,0,2,0,1,
665877fac83409588bdc6bfb,SCN,2024-06-25_12h41.14.467,LearnStrategy,2023.2.3,MacIntel,62.5,5,2,4,,,,,,,,7,05,,,,,,,,,,,7,3.196,1,,,,,,0.1625,-0.409375,1,0,0,3.196,Peridotite_rect,3,0,3,0,1,
665877fac83409588bdc6bfb,SCN,2024-06-25_12h41.14.467,LearnStrategy,2023.2.3,MacIntel,62.5,5,2,5,,,,,,,,1,01,,,,,,,,,,,1,4.414,1,,,,,,-0.39375,-0.260416667,1,0,0,4.414,Andesite_rect,4,0,4,0,1,
665877fac83409588bdc6bfb,SCN,2024-06-25_12h41.14.467,LearnStrategy,2023.2.3,MacIntel,62.5,5,2,6,,,,,,,,5,06,,,,,,,,,,,5,1.328,1,,,,,,-0.403125,-0.382291667,1,0,0,1.328,Obsidian_rect,5,0,5,0,1,
665877fac83409588bdc6bfb,SCN,2024-06-25_12h41.14.467,LearnStrategy,2023.2.3,MacIntel,62.5,5,2,7,,,,,,,,1,02,,,,,,,,,,,1,3.457,1,,,,,,-0.348958333,-0.258333333,1,0,0,3.457,Andesite_rect,6,0,6,0,1,
665877fac83409588bdc6bfb,SCN,2024-06-25_12h41.14.467,LearnStrategy,2023.2.3,MacIntel,62.5,5,2,8,,,,,,,,8,15,,,,,,,,,,,8,1.545,1,,,,,,0.379166667,-0.41875,1,0,0,1.545,Pumice_rect,7,0,7,0,1,
665877fac83409588bdc6bfb,SCN,2024-06-25_12h41.14.467,LearnStrategy,2023.2.3,MacIntel,62.5,5,2,9,,,,,,,,3,09,,,,,,,,,,,3,4.504,1,,,,,,0.170833333,-0.255208333,1,0,0,4.504,Diorite_rect,8,0,8,0,1,
665877fac83409588bdc6bfb,SCN,2024-06-25_12h41.14.467,LearnStrategy,2023.2.3,MacIntel,62.5,5,2,10,,,,,,,,6,12,,,,,,,,,,,6,1.374,1,,,,,,-0.097916667,-0.4125,1,0,0,1.374,Pegmatite_rect,9,0,9,0,1,
665877fac83409588bdc6bfb,SCN,2024-06-25_12h41.14.467,LearnStrategy,2023.2.3,MacIntel,62.5,5,2,11,,,,,,,,4,16,,,,,,,,,,,4,2.038,1,,,,,,0.429166667,-0.265625,1,0,0,2.038,Gabbro_rect,10,0,10,0,1,
665877fac83409588bdc6bfb,SCN,2024-06-25_12h41.14.467,LearnStrategy,2023.2.3,MacIntel,62.5,5,2,12,,,,,,,,4,09,,,,,,,,,,,4,3.34,1,,,,,,0.429166667,-0.265625,1,0,0,3.34,Gabbro_rect,11,0,11,0,1,
665877fac83409588bdc6bfb,SCN,2024-06-25_12h41.14.467,LearnStrategy,2023.2.3,MacIntel,62.5,5,2,13,,,,,,,,2,11,,,,,,,,,,,8,1.38,0,,,,,,0.401041667,-0.397916667,1,0,0,1.38,Pumice_rect,12,0,12,0,1,
665877fac83409588bdc6bfb,SCN,2024-06-25_12h41.14.467,LearnStrategy,2023.2.3,MacIntel,62.5,5,2,14,,,,,,,,3,15,,,,,,,,,,,3,1.577,1,,,,,,0.177083333,-0.261458333,1,0,0,1.577,Diorite_rect,13,0,13,0,1,
665877fac83409588bdc6bfb,SCN,2024-06-25_12h41.14.467,LearnStrategy,2023.2.3,MacIntel,62.5,5,2,15,,,,,,,,2,16,,,,,,,,,,,4,2.817,0,,,,,,0.39375,-0.269791667,1,0,0,2.817,Gabbro_rect,14,0,14,0,1,
665877fac83409588bdc6bfb,SCN,2024-06-25_12h41.14.467,LearnStrategy,2023.2.3,MacIntel,62.5,5,2,16,,,,,,,,7,14,,,,,,,,,,,1,7.631,0,,,,,,-0.391666667,-0.270833333,1,0,0,7.631,Andesite_rect,15,0,15,0,1,
665877fac83409588bdc6bfb,SCN,2024-06-25_12h41.14.467,LearnStrategy,2023.2.3,MacIntel,62.5,6,1,1,0.414583333,-0.095833333,1,0,0,7.667,Peridotite_12,7,12,3,7,7.667,0.116666667,-0.396875,1,0,0,4.422,Peridotite_rect,7,4.422,1,0,0,0,0,1,,,,,,,,,,,,,
665877fac83409588bdc6bfb,SCN,2024-06-25_12h41.14.467,LearnStrategy,2023.2.3,MacIntel,62.5,6,1,2,-0.230208333,-0.132291667,1,0,0,4.232,Basalt_14,2,14,3,3,4.232,-0.073958333,-0.25625,1,0,0,4.042,Basalt_rect,2,4.042,1,1,0,1,0,1,,,,,,,,,,,,,
665877fac83409588bdc6bfb,SCN,2024-06-25_12h41.14.467,LearnStrategy,2023.2.3,MacIntel,62.5,6,1,3,-0.254166667,-0.26875,1,0,0,4.595,Peridotite_10,7,10,2,3,4.595,0.085416667,-0.39375,1,0,0,2.005,Peridotite_rect,7,2.005,1,2,0,2,0,1,,,,,,,,,,,,,
665877fac83409588bdc6bfb,SCN,2024-06-25_12h41.14.467,LearnStrategy,2023.2.3,MacIntel,62.5,6,1,4,-0.397916667,-0.282291667,1,0,0,1.133,Gabbro_01,4,01,2,2,1.133,0.379166667,-0.244791667,1,0,0,2.313,Gabbro_rect,4,2.313,1,3,0,3,0,1,,,,,,,,,,,,,
665877fac83409588bdc6bfb,SCN,2024-06-25_12h41.14.467,LearnStrategy,2023.2.3,MacIntel,62.5,6,1,5,-0.560416667,-0.382291667,1,0,0,4.43,Andesite_06,1,06,1,1,4.43,-0.439583333,-0.267708333,1,0,0,1.565,Andesite_rect,1,1.565,1,4,0,4,0,1,,,,,,,,,,,,,
665877fac83409588bdc6bfb,SCN,2024-06-25_12h41.14.467,LearnStrategy,2023.2.3,MacIntel,62.5,6,1,6,-0.422916667,-0.427083333,1,0,0,1.193,Basalt_09,2,09,1,2,1.193,-0.179166667,-0.236458333,1,0,0,1.067,Basalt_rect,2,1.067,1,5,0,5,0,1,,,,,,,,,,,,,
665877fac83409588bdc6bfb,SCN,2024-06-25_12h41.14.467,LearnStrategy,2023.2.3,MacIntel,62.5,6,1,7,0.238541667,0.079166667,1,0,0,4.221,Diorite_02,3,02,4,6,4.221,0.144791667,-0.251041667,1,0,0,3.316,Diorite_rect,3,3.316,1,6,0,6,0,1,,,,,,,,,,,,,
665877fac83409588bdc6bfb,SCN,2024-06-25_12h41.14.467,LearnStrategy,2023.2.3,MacIntel,62.5,6,1,8,-0.067708333,0.229166667,1,0,0,2.582,Basalt_04,2,04,5,4,2.582,-0.119791667,-0.242708333,1,0,0,1.839,Basalt_rect,2,1.839,1,7,0,7,0,1,,,,,,,,,,,,,
665877fac83409588bdc6bfb,SCN,2024-06-25_12h41.14.467,LearnStrategy,2023.2.3,MacIntel,62.5,6,1,9,0.558333333,0.244791667,1,0,0,3.477,Andesite_11,1,11,5,8,3.477,-0.408333333,-0.251041667,1,0,0,1.39,Andesite_rect,1,1.39,1,8,0,8,0,1,,,,,,,,,,,,,
665877fac83409588bdc6bfb,SCN,2024-06-25_12h41.14.467,LearnStrategy,2023.2.3,MacIntel,62.5,6,1,10,-0.528125,0.094791667,1,0,0,1.988,Diorite_16,3,16,4,1,1.988,0.096875,-0.2375,1,0,0,1.689,Diorite_rect,3,1.689,1,9,0,9,0,1,,,,,,,,,,,,,
665877fac83409588bdc6bfb,SCN,2024-06-25_12h41.14.467,LearnStrategy,2023.2.3,MacIntel,62.5,6,1,11,0.41875,-0.441666667,1,0,0,4.869,Gabbro_08,4,08,1,7,4.869,0.367708333,-0.254166667,1,0,0,1.332,Gabbro_rect,4,1.332,1,10,0,10,0,1,,,,,,,,,,,,,
665877fac83409588bdc6bfb,SCN,2024-06-25_12h41.14.467,LearnStrategy,2023.2.3,MacIntel,62.5,6,1,12,0.25,-0.280208333,1,0,0,1.213,Andesite_10,1,10,2,6,1.213,-0.434375,-0.246875,1,0,0,1.975,Andesite_rect,1,1.975,1,11,0,11,0,1,,,,,,,,,,,,,
665877fac83409588bdc6bfb,SCN,2024-06-25_12h41.14.467,LearnStrategy,2023.2.3,MacIntel,62.5,6,1,13,0.3875,-0.26875,1,0,0,3.178,Gabbro_05,4,05,2,7,3.178,-0.347916667,-0.258333333,1,0,0,2.531,Andesite_rect,1,2.531,0,12,0,12,0,1,,,,,,,,,,,,,
665877fac83409588bdc6bfb,SCN,2024-06-25_12h41.14.467,LearnStrategy,2023.2.3,MacIntel,62.5,6,1,14,0.428125,0.085416667,1,0,0,2.266,Gabbro_14,4,14,4,7,2.266,0.414583333,-0.259375,1,0,0,1.709,Gabbro_rect,4,1.709,1,13,0,13,0,1,,,,,,,,,,,,,
665877fac83409588bdc6bfb,SCN,2024-06-25_12h41.14.467,LearnStrategy,2023.2.3,MacIntel,62.5,6,1,15,0.36875,0.38125,1,0,0,3.679,Pegmatite_13,6,13,6,7,3.679,-0.139583333,-0.4125,1,0,0,1.87,Pegmatite_rect,6,1.87,1,14,0,14,0,1,,,,,,,,,,,,,
665877fac83409588bdc6bfb,SCN,2024-06-25_12h41.14.467,LearnStrategy,2023.2.3,MacIntel,62.5,6,1,16,-0.244791667,0.115625,1,0,0,2.29,Pegmatite_07,6,07,4,3,2.29,-0.420833333,-0.245833333,1,0,0,2.705,Andesite_rect,1,2.705,0,15,0,15,0,1,,,,,,,,,,,,,
665877fac83409588bdc6bfb,SCN,2024-06-25_12h41.14.467,LearnStrategy,2023.2.3,MacIntel,62.5,6,2,1,,,,,,,,7,15,,,,,,,,,,,3,2.149,0,,,,,,0.113541667,-0.26875,1,0,0,2.149,Diorite_rect,0,0,0,0,1,
665877fac83409588bdc6bfb,SCN,2024-06-25_12h41.14.467,LearnStrategy,2023.2.3,MacIntel,62.5,6,2,2,,,,,,,,6,08,,,,,,,,,,,5,2.332,0,,,,,,-0.394791667,-0.390625,1,0,0,2.332,Obsidian_rect,1,0,1,0,1,
665877fac83409588bdc6bfb,SCN,2024-06-25_12h41.14.467,LearnStrategy,2023.2.3,MacIntel,62.5,6,2,3,,,,,,,,6,11,,,,,,,,,,,6,2.543,1,,,,,,-0.182291667,-0.398958333,1,0,0,2.543,Pegmatite_rect,2,0,2,0,1,
665877fac83409588bdc6bfb,SCN,2024-06-25_12h41.14.467,LearnStrategy,2023.2.3,MacIntel,62.5,6,2,4,,,,,,,,2,10,,,,,,,,,,,2,4.081,1,,,,,,-0.147916667,-0.263541667,1,0,0,4.081,Basalt_rect,3,0,3,0,1,
665877fac83409588bdc6bfb,SCN,2024-06-25_12h41.14.467,LearnStrategy,2023.2.3,MacIntel,62.5,6,2,5,,,,,,,,5,10,,,,,,,,,,,5,1.353,1,,,,,,-0.365625,-0.38125,1,0,0,1.353,Obsidian_rect,4,0,4,0,1,
665877fac83409588bdc6bfb,SCN,2024-06-25_12h41.14.467,LearnStrategy,2023.2.3,MacIntel,62.5,6,2,6,,,,,,,,2,12,,,,,,,,,,,8,2.495,0,,,,,,0.410416667,-0.395833333,1,0,0,2.495,Pumice_rect,5,0,5,0,1,
665877fac83409588bdc6bfb,SCN,2024-06-25_12h41.14.467,LearnStrategy,2023.2.3,MacIntel,62.5,6,2,7,,,,,,,,3,13,,,,,,,,,,,3,1.926,1,,,,,,0.194791667,-0.266666667,1,0,0,1.926,Diorite_rect,6,0,6,0,1,
665877fac83409588bdc6bfb,SCN,2024-06-25_12h41.14.467,LearnStrategy,2023.2.3,MacIntel,62.5,6,2,8,,,,,,,,1,07,,,,,,,,,,,1,3.275,1,,,,,,-0.334375,-0.251041667,1,0,0,3.275,Andesite_rect,7,0,7,0,1,
665877fac83409588bdc6bfb,SCN,2024-06-25_12h41.14.467,LearnStrategy,2023.2.3,MacIntel,62.5,6,2,9,,,,,,,,8,13,,,,,,,,,,,4,10.021,0,,,,,,0.4,-0.26875,1,0,0,10.021,Gabbro_rect,8,0,8,0,1,
665877fac83409588bdc6bfb,SCN,2024-06-25_12h41.14.467,LearnStrategy,2023.2.3,MacIntel,62.5,6,2,10,,,,,,,,4,10,,,,,,,,,,,4,2.287,1,,,,,,0.4,-0.26875,1,0,0,2.287,Gabbro_rect,9,0,9,0,1,
665877fac83409588bdc6bfb,SCN,2024-06-25_12h41.14.467,LearnStrategy,2023.2.3,MacIntel,62.5,6,2,11,,,,,,,,4,13,,,,,,,,,,,4,1.787,1,,,,,,0.4,-0.26875,1,0,0,1.787,Gabbro_rect,10,0,10,0,1,
665877fac83409588bdc6bfb,SCN,2024-06-25_12h41.14.467,LearnStrategy,2023.2.3,MacIntel,62.5,6,2,12,,,,,,,,7,08,,,,,,,,,,,7,1.539,1,,,,,,0.170833333,-0.416666667,1,0,0,1.539,Peridotite_rect,11,0,11,0,1,
665877fac83409588bdc6bfb,SCN,2024-06-25_12h41.14.467,LearnStrategy,2023.2.3,MacIntel,62.5,6,2,13,,,,,,,,5,02,,,,,,,,,,,5,1.406,1,,,,,,-0.33125,-0.392708333,1,0,0,1.406,Obsidian_rect,12,0,12,0,1,
665877fac83409588bdc6bfb,SCN,2024-06-25_12h41.14.467,LearnStrategy,2023.2.3,MacIntel,62.5,6,2,14,,,,,,,,3,07,,,,,,,,,,,1,2.802,0,,,,,,-0.347916667,-0.235416667,1,0,0,2.802,Andesite_rect,13,0,13,0,1,
665877fac83409588bdc6bfb,SCN,2024-06-25_12h41.14.467,LearnStrategy,2023.2.3,MacIntel,62.5,6,2,15,,,,,,,,8,06,,,,,,,,,,,8,1.185,1,,,,,,0.40625,-0.39375,1,0,0,1.185,Pumice_rect,14,0,14,0,1,
665877fac83409588bdc6bfb,SCN,2024-06-25_12h41.14.467,LearnStrategy,2023.2.3,MacIntel,62.5,6,2,16,,,,,,,,1,04,,,,,,,,,,,3,3.657,0,,,,,,0.178125,-0.257291667,1,0,0,3.657,Diorite_rect,15,0,15,0,1,
665877fac83409588bdc6bfb,SCN,2024-06-25_12h41.14.467,LearnStrategy,2023.2.3,MacIntel,62.5,7,1,1,-0.376041667,0.364583333,1,0,0,2.072,Peridotite_16,7,16,6,2,2.072,0.103125,-0.395833333,1,0,0,3.943,Peridotite_rect,7,3.943,1,0,0,0,0,1,,,,,,,,,,,,,
665877fac83409588bdc6bfb,SCN,2024-06-25_12h41.14.467,LearnStrategy,2023.2.3,MacIntel,62.5,7,1,2,-0.235416667,0.396875,1,0,0,1.33,Diorite_14,3,14,6,3,1.33,0.104166667,-0.242708333,1,0,0,1.149,Diorite_rect,3,1.149,1,1,0,1,0,1,,,,,,,,,,,,,
665877fac83409588bdc6bfb,SCN,2024-06-25_12h41.14.467,LearnStrategy,2023.2.3,MacIntel,62.5,7,1,3,0.111458333,0.375,1,0,0,1.549,Diorite_08,3,08,6,5,1.549,0.103125,-0.246875,1,0,0,1.379,Diorite_rect,3,1.379,1,2,0,2,0,1,,,,,,,,,,,,,
665877fac83409588bdc6bfb,SCN,2024-06-25_12h41.14.467,LearnStrategy,2023.2.3,MacIntel,62.5,7,1,4,0.423958333,0.426041667,1,0,0,1.197,Pegmatite_13,6,13,6,7,1.197,-0.089583333,-0.385416667,1,0,0,1.622,Pegmatite_rect,6,1.622,1,3,0,3,0,1,,,,,,,,,,,,,
665877fac83409588bdc6bfb,SCN,2024-06-25_12h41.14.467,LearnStrategy,2023.2.3,MacIntel,62.5,7,1,5,-0.542708333,0.261458333,1,0,0,1.68,Diorite_11,3,11,5,1,1.68,0.1,-0.261458333,1,0,0,1.163,Diorite_rect,3,1.163,1,4,0,4,0,1,,,,,,,,,,,,,
665877fac83409588bdc6bfb,SCN,2024-06-25_12h41.14.467,LearnStrategy,2023.2.3,MacIntel,62.5,7,1,6,-0.380208333,0.239583333,1,0,0,1.115,Pegmatite_03,6,03,5,2,1.115,-0.15,-0.38125,1,0,0,1.968,Pegmatite_rect,6,1.968,1,5,0,5,0,1,,,,,,,,,,,,,
665877fac83409588bdc6bfb,SCN,2024-06-25_12h41.14.467,LearnStrategy,2023.2.3,MacIntel,62.5,7,1,7,-0.25,0.232291667,1,0,0,1.101,Diorite_06,3,06,5,3,1.101,0.166666667,-0.254166667,1,0,0,1.228,Diorite_rect,3,1.228,1,6,0,6,0,1,,,,,,,,,,,,,
665877fac83409588bdc6bfb,SCN,2024-06-25_12h41.14.467,LearnStrategy,2023.2.3,MacIntel,62.5,7,1,8,-0.064583333,0.239583333,1,0,0,1.699,Basalt_04,2,04,5,4,1.699,-0.115625,-0.253125,1,0,0,1.062,Basalt_rect,2,1.062,1,7,0,7,0,1,,,,,,,,,,,,,
665877fac83409588bdc6bfb,SCN,2024-06-25_12h41.14.467,LearnStrategy,2023.2.3,MacIntel,62.5,7,1,9,0.244791667,0.238541667,1,0,0,2.083,Pumice_03,8,03,5,6,2.083,-0.1125,-0.2625,1,0,0,2.849,Basalt_rect,2,2.849,0,8,0,8,0,1,,,,,,,,,,,,,
665877fac83409588bdc6bfb,SCN,2024-06-25_12h41.14.467,LearnStrategy,2023.2.3,MacIntel,62.5,7,1,10,0.541666667,0.230208333,1,0,0,1.556,Andesite_11,1,11,5,8,1.556,-0.335416667,-0.271875,1,0,0,1.3,Andesite_rect,1,1.3,1,9,0,9,0,1,,,,,,,,,,,,,
665877fac83409588bdc6bfb,SCN,2024-06-25_12h41.14.467,LearnStrategy,2023.2.3,MacIntel,62.5,7,1,11,-0.51875,0.086458333,1,0,0,1.873,Diorite_16,3,16,4,1,1.873,0.141666667,-0.241666667,1,0,0,1.162,Diorite_rect,3,1.162,1,10,0,10,0,1,,,,,,,,,,,,,
665877fac83409588bdc6bfb,SCN,2024-06-25_12h41.14.467,LearnStrategy,2023.2.3,MacIntel,62.5,7,1,12,-0.384375,0.06875,1,0,0,1.205,Pegmatite_10,6,10,4,2,1.205,-0.197916667,-0.390625,1,0,0,1.631,Pegmatite_rect,6,1.631,1,11,0,11,0,1,,,,,,,,,,,,,
665877fac83409588bdc6bfb,SCN,2024-06-25_12h41.14.467,LearnStrategy,2023.2.3,MacIntel,62.5,7,1,13,-0.239583333,0.086458333,1,0,0,1.85,Pegmatite_07,6,07,4,3,1.85,-0.188541667,-0.39375,1,0,0,1.651,Pegmatite_rect,6,1.651,1,12,0,12,0,1,,,,,,,,,,,,,
665877fac83409588bdc6bfb,SCN,2024-06-25_12h41.14.467,LearnStrategy,2023.2.3,MacIntel,62.5,7,1,14,-0.070833333,0.084375,1,0,0,0.918,Gabbro_03,4,03,4,4,0.918,0.361458333,-0.235416667,1,0,0,3.041,Gabbro_rect,4,3.041,1,13,0,13,0,1,,,,,,,,,,,,,
665877fac83409588bdc6bfb,SCN,2024-06-25_12h41.14.467,LearnStrategy,2023.2.3,MacIntel,62.5,7,1,15,0.08125,0.070833333,1,0,0,2.239,Pegmatite_16,6,16,4,5,2.239,-0.154166667,-0.401041667,1,0,0,1.447,Pegmatite_rect,6,1.447,1,14,0,14,0,1,,,,,,,,,,,,,
665877fac83409588bdc6bfb,SCN,2024-06-25_12h41.14.467,LearnStrategy,2023.2.3,MacIntel,62.5,7,1,16,0.234375,0.072916667,1,0,0,0.912,Diorite_02,3,02,4,6,0.912,0.159375,-0.261458333,1,0,0,1.147,Diorite_rect,3,1.147,1,15,0,15,0,1,,,,,,,,,,,,,
665877fac83409588bdc6bfb,SCN,2024-06-25_12h41.14.467,LearnStrategy,2023.2.3,MacIntel,62.5,7,2,1,,,,,,,,8,05,,,,,,,,,,,8,2.225,1,,,,,,0.388541667,-0.398958333,1,0,0,2.225,Pumice_rect,0,0,0,0,1,
665877fac83409588bdc6bfb,SCN,2024-06-25_12h41.14.467,LearnStrategy,2023.2.3,MacIntel,62.5,7,2,2,,,,,,,,7,04,,,,,,,,,,,1,5.181,0,,,,,,-0.327083333,-0.254166667,1,0,0,5.181,Andesite_rect,1,0,1,0,1,
665877fac83409588bdc6bfb,SCN,2024-06-25_12h41.14.467,LearnStrategy,2023.2.3,MacIntel,62.5,7,2,3,,,,,,,,6,06,,,,,,,,,,,1,5.409,0,,,,,,-0.327083333,-0.254166667,1,0,0,5.409,Andesite_rect,2,0,2,0,1,
665877fac83409588bdc6bfb,SCN,2024-06-25_12h41.14.467,LearnStrategy,2023.2.3,MacIntel,62.5,7,2,4,,,,,,,,4,16,,,,,,,,,,,4,2.48,1,,,,,,0.423958333,-0.251041667,1,0,0,2.48,Gabbro_rect,3,0,3,0,1,
665877fac83409588bdc6bfb,SCN,2024-06-25_12h41.14.467,LearnStrategy,2023.2.3,MacIntel,62.5,7,2,5,,,,,,,,2,16,,,,,,,,,,,4,3.646,0,,,,,,0.423958333,-0.251041667,1,0,0,3.646,Gabbro_rect,4,0,4,0,1,
665877fac83409588bdc6bfb,SCN,2024-06-25_12h41.14.467,LearnStrategy,2023.2.3,MacIntel,62.5,7,2,6,,,,,,,,5,10,,,,,,,,,,,5,1.273,1,,,,,,-0.453125,-0.4,1,0,0,1.273,Obsidian_rect,5,0,5,0,1,
665877fac83409588bdc6bfb,SCN,2024-06-25_12h41.14.467,LearnStrategy,2023.2.3,MacIntel,62.5,7,2,7,,,,,,,,1,04,,,,,,,,,,,1,8.637,1,,,,,,-0.335416667,-0.265625,1,0,0,8.637,Andesite_rect,6,0,6,0,1,
665877fac83409588bdc6bfb,SCN,2024-06-25_12h41.14.467,LearnStrategy,2023.2.3,MacIntel,62.5,7,2,8,,,,,,,,5,14,,,,,,,,,,,5,0.991,1,,,,,,-0.3625,-0.395833333,1,0,0,0.991,Obsidian_rect,7,0,7,0,1,
665877fac83409588bdc6bfb,SCN,2024-06-25_12h41.14.467,LearnStrategy,2023.2.3,MacIntel,62.5,7,2,9,,,,,,,,3,12,,,,,,,,,,,3,1.686,1,,,,,,0.172916667,-0.265625,1,0,0,1.686,Diorite_rect,8,0,8,0,1,
665877fac83409588bdc6bfb,SCN,2024-06-25_12h41.14.467,LearnStrategy,2023.2.3,MacIntel,62.5,7,2,10,,,,,,,,4,12,,,,,,,,,,,4,1.789,1,,,,,,0.386458333,-0.253125,1,0,0,1.789,Gabbro_rect,9,0,9,0,1,
665877fac83409588bdc6bfb,SCN,2024-06-25_12h41.14.467,LearnStrategy,2023.2.3,MacIntel,62.5,7,2,11,,,,,,,,6,12,,,,,,,,,,,6,2.24,1,,,,,,-0.1,-0.396875,1,0,0,2.24,Pegmatite_rect,10,0,10,0,1,
665877fac83409588bdc6bfb,SCN,2024-06-25_12h41.14.467,LearnStrategy,2023.2.3,MacIntel,62.5,7,2,12,,,,,,,,7,05,,,,,,,,,,,7,1.688,1,,,,,,0.122916667,-0.401041667,1,0,0,1.688,Peridotite_rect,11,0,11,0,1,
665877fac83409588bdc6bfb,SCN,2024-06-25_12h41.14.467,LearnStrategy,2023.2.3,MacIntel,62.5,7,2,13,,,,,,,,8,06,,,,,,,,,,,8,1.126,1,,,,,,0.330208333,-0.389583333,1,0,0,1.126,Pumice_rect,12,0,12,0,1,
665877fac83409588bdc6bfb,SCN,2024-06-25_12h41.14.467,LearnStrategy,2023.2.3,MacIntel,62.5,7,2,14,,,,,,,,3,10,,,,,,,,,,,3,1.35,1,,,,,,0.155208333,-0.245833333,1,0,0,1.35,Diorite_rect,13,0,13,0,1,
665877fac83409588bdc6bfb,SCN,2024-06-25_12h41.14.467,LearnStrategy,2023.2.3,MacIntel,62.5,7,2,15,,,,,,,,1,05,,,,,,,,,,,1,4.246,1,,,,,,-0.333333333,-0.264583333,1,0,0,4.246,Andesite_rect,14,0,14,0,1,
665877fac83409588bdc6bfb,SCN,2024-06-25_12h41.14.467,LearnStrategy,2023.2.3,MacIntel,62.5,7,2,16,,,,,,,,2,10,,,,,,,,,,,2,1.379,1,,,,,,-0.151041667,-0.269791667,1,0,0,1.379,Basalt_rect,15,0,15,0,1,
665877fac83409588bdc6bfb,SCN,2024-06-25_12h41.14.467,LearnStrategy,2023.2.3,MacIntel,62.5,8,1,1,0.557291667,0.259375,1,0,0,5.05,Andesite_11,1,11,5,8,5.05,-0.397916667,-0.240625,1,0,0,1.111,Andesite_rect,1,1.111,1,0,0,0,0,1,,,,,,,,,,,,,
665877fac83409588bdc6bfb,SCN,2024-06-25_12h41.14.467,LearnStrategy,2023.2.3,MacIntel,62.5,8,1,2,-0.534375,0.064583333,1,0,0,1.081,Diorite_16,3,16,4,1,1.081,0.13125,-0.266666667,1,0,0,1.61,Diorite_rect,3,1.61,1,1,0,1,0,1,,,,,,,,,,,,,
665877fac83409588bdc6bfb,SCN,2024-06-25_12h41.14.467,LearnStrategy,2023.2.3,MacIntel,62.5,8,1,3,-0.428125,0.080208333,1,0,0,0.93,Pegmatite_10,6,10,4,2,0.93,-0.167708333,-0.388541667,1,0,0,1.125,Pegmatite_rect,6,1.125,1,2,0,2,0,1,,,,,,,,,,,,,
665877fac83409588bdc6bfb,SCN,2024-06-25_12h41.14.467,LearnStrategy,2023.2.3,MacIntel,62.5,8,1,4,-0.25625,0.060416667,1,0,0,1.128,Pegmatite_07,6,07,4,3,1.128,-0.122916667,-0.411458333,1,0,0,2.865,Pegmatite_rect,6,2.865,1,3,0,3,0,1,,,,,,,,,,,,,
665877fac83409588bdc6bfb,SCN,2024-06-25_12h41.14.467,LearnStrategy,2023.2.3,MacIntel,62.5,8,1,5,-0.114583333,0.1,1,0,0,1.021,Gabbro_03,4,03,4,4,1.021,0.35,-0.264583333,1,0,0,1.616,Gabbro_rect,4,1.616,1,4,0,4,0,1,,,,,,,,,,,,,
665877fac83409588bdc6bfb,SCN,2024-06-25_12h41.14.467,LearnStrategy,2023.2.3,MacIntel,62.5,8,1,6,0.073958333,0.08125,1,0,0,1.491,Pegmatite_16,6,16,4,5,1.491,-0.116666667,-0.408333333,1,0,0,1.226,Pegmatite_rect,6,1.226,1,5,0,5,0,1,,,,,,,,,,,,,
665877fac83409588bdc6bfb,SCN,2024-06-25_12h41.14.467,LearnStrategy,2023.2.3,MacIntel,62.5,8,1,7,0.420833333,0.077083333,1,0,0,1.794,Gabbro_14,4,14,4,7,1.794,0.38125,-0.263541667,1,0,0,0.913,Gabbro_rect,4,0.913,1,6,0,6,0,1,,,,,,,,,,,,,
665877fac83409588bdc6bfb,SCN,2024-06-25_12h41.14.467,LearnStrategy,2023.2.3,MacIntel,62.5,8,1,8,-0.40625,-0.1125,1,0,0,2.799,Andesite_14,1,14,3,2,2.799,-0.351041667,-0.25625,1,0,0,3.074,Andesite_rect,1,3.074,1,7,0,7,0,1,,,,,,,,,,,,,
665877fac83409588bdc6bfb,SCN,2024-06-25_12h41.14.467,LearnStrategy,2023.2.3,MacIntel,62.5,8,1,9,-0.222916667,-0.108333333,1,0,0,2.454,Basalt_14,2,14,3,3,2.454,0.39375,-0.235416667,1,0,0,1.456,Gabbro_rect,4,1.456,0,8,0,8,0,1,,,,,,,,,,,,,
665877fac83409588bdc6bfb,SCN,2024-06-25_12h41.14.467,LearnStrategy,2023.2.3,MacIntel,62.5,8,1,10,-0.1,-0.111458333,1,0,0,1.193,Andesite_03,1,03,3,4,1.193,-0.38125,-0.25625,1,0,0,5.237,Andesite_rect,1,5.237,1,9,0,9,0,1,,,,,,,,,,,,,
665877fac83409588bdc6bfb,SCN,2024-06-25_12h41.14.467,LearnStrategy,2023.2.3,MacIntel,62.5,8,1,11,0.104166667,-0.142708333,1,0,0,0.852,Basalt_02,2,02,3,5,0.852,-0.119791667,-0.228125,1,0,0,1.019,Basalt_rect,2,1.019,1,10,0,10,0,1,,,,,,,,,,,,,
665877fac83409588bdc6bfb,SCN,2024-06-25_12h41.14.467,LearnStrategy,2023.2.3,MacIntel,62.5,8,1,12,0.255208333,-0.116666667,1,0,0,1.698,Basalt_08,2,08,3,6,1.698,-0.094791667,-0.2375,1,0,0,0.97,Basalt_rect,2,0.97,1,11,0,11,0,1,,,,,,,,,,,,,
665877fac83409588bdc6bfb,SCN,2024-06-25_12h41.14.467,LearnStrategy,2023.2.3,MacIntel,62.5,8,1,13,0.430208333,-0.134375,1,0,0,1.149,Peridotite_12,7,12,3,7,1.149,0.147916667,-0.388541667,1,0,0,1.738,Peridotite_rect,7,1.738,1,12,0,12,0,1,,,,,,,,,,,,,
665877fac83409588bdc6bfb,SCN,2024-06-25_12h41.14.467,LearnStrategy,2023.2.3,MacIntel,62.5,8,1,14,-0.552083333,-0.285416667,1,0,0,3.037,Andesite_09,1,09,2,1,3.037,0.317708333,-0.248958333,1,0,0,2.476,Gabbro_rect,4,2.476,0,13,0,13,0,1,,,,,,,,,,,,,
665877fac83409588bdc6bfb,SCN,2024-06-25_12h41.14.467,LearnStrategy,2023.2.3,MacIntel,62.5,8,1,15,-0.40625,-0.251041667,1,0,0,1.183,Gabbro_01,4,01,2,2,1.183,-0.40625,-0.251041667,1,0,0,1.971,Andesite_rect,1,1.971,0,14,0,14,0,1,,,,,,,,,,,,,
665877fac83409588bdc6bfb,SCN,2024-06-25_12h41.14.467,LearnStrategy,2023.2.3,MacIntel,62.5,8,1,16,-0.378125,-0.271875,1,0,0,5.644,Gabbro_01,4,01,2,2,5.644,0.40625,-0.265625,1,0,0,1.754,Gabbro_rect,4,1.754,1,15,0,15,0,1,,,,,,,,,,,,,
665877fac83409588bdc6bfb,SCN,2024-06-25_12h41.14.467,LearnStrategy,2023.2.3,MacIntel,62.5,8,2,1,,,,,,,,8,13,,,,,,,,,,,8,2.454,1,,,,,,0.389583333,-0.411458333,1,0,0,2.454,Pumice_rect,0,0,0,0,1,
665877fac83409588bdc6bfb,SCN,2024-06-25_12h41.14.467,LearnStrategy,2023.2.3,MacIntel,62.5,8,2,2,,,,,,,,2,05,,,,,,,,,,,2,1.677,1,,,,,,-0.094791667,-0.267708333,1,0,0,1.677,Basalt_rect,1,0,1,0,1,
665877fac83409588bdc6bfb,SCN,2024-06-25_12h41.14.467,LearnStrategy,2023.2.3,MacIntel,62.5,8,2,3,,,,,,,,6,05,,,,,,,,,,,1,6.508,0,,,,,,-0.359375,-0.253125,1,0,0,6.508,Andesite_rect,2,0,2,0,1,
665877fac83409588bdc6bfb,SCN,2024-06-25_12h41.14.467,LearnStrategy,2023.2.3,MacIntel,62.5,8,2,4,,,,,,,,2,12,,,,,,,,,,,8,2.305,0,,,,,,0.36875,-0.3875,1,0,0,2.305,Pumice_rect,3,0,3,0,1,
665877fac83409588bdc6bfb,SCN,2024-06-25_12h41.14.467,LearnStrategy,2023.2.3,MacIntel,62.5,8,2,5,,,,,,,,3,15,,,,,,,,,,,3,1.711,1,,,,,,0.166666667,-0.25,1,0,0,1.711,Diorite_rect,4,0,4,0,1,
665877fac83409588bdc6bfb,SCN,2024-06-25_12h41.14.467,LearnStrategy,2023.2.3,MacIntel,62.5,8,2,6,,,,,,,,7,15,,,,,,,,,,,7,1.387,1,,,,,,0.133333333,-0.4,1,0,0,1.387,Peridotite_rect,5,0,5,0,1,
665877fac83409588bdc6bfb,SCN,2024-06-25_12h41.14.467,LearnStrategy,2023.2.3,MacIntel,62.5,8,2,7,,,,,,,,1,07,,,,,,,,,,,1,4.658,1,,,,,,-0.355208333,-0.258333333,1,0,0,4.658,Andesite_rect,6,0,6,0,1,
665877fac83409588bdc6bfb,SCN,2024-06-25_12h41.14.467,LearnStrategy,2023.2.3,MacIntel,62.5,8,2,8,,,,,,,,1,02,,,,,,,,,,,1,3.392,1,,,,,,-0.355208333,-0.257291667,1,0,0,3.392,Andesite_rect,7,0,7,0,1,
665877fac83409588bdc6bfb,SCN,2024-06-25_12h41.14.467,LearnStrategy,2023.2.3,MacIntel,62.5,8,2,9,,,,,,,,4,09,,,,,,,,,,,4,3.861,1,,,,,,0.401041667,-0.258333333,1,0,0,3.861,Gabbro_rect,8,0,8,0,1,
665877fac83409588bdc6bfb,SCN,2024-06-25_12h41.14.467,LearnStrategy,2023.2.3,MacIntel,62.5,8,2,10,,,,,,,,7,02,,,,,,,,,,,7,1.138,1,,,,,,0.189583333,-0.384375,1,0,0,1.138,Peridotite_rect,9,0,9,0,1,
665877fac83409588bdc6bfb,SCN,2024-06-25_12h41.14.467,LearnStrategy,2023.2.3,MacIntel,62.5,8,2,11,,,,,,,,3,09,,,,,,,,,,,3,1.738,1,,,,,,0.14375,-0.254166667,1,0,0,1.738,Diorite_rect,10,0,10,0,1,
665877fac83409588bdc6bfb,SCN,2024-06-25_12h41.14.467,LearnStrategy,2023.2.3,MacIntel,62.5,8,2,12,,,,,,,,5,08,,,,,,,,,,,5,1.132,1,,,,,,-0.346875,-0.394791667,1,0,0,1.132,Obsidian_rect,11,0,11,0,1,
665877fac83409588bdc6bfb,SCN,2024-06-25_12h41.14.467,LearnStrategy,2023.2.3,MacIntel,62.5,8,2,13,,,,,,,,8,15,,,,,,,,,,,2,5.391,0,,,,,,-0.104166667,-0.242708333,1,0,0,5.391,Basalt_rect,12,0,12,0,1,
665877fac83409588bdc6bfb,SCN,2024-06-25_12h41.14.467,LearnStrategy,2023.2.3,MacIntel,62.5,8,2,14,,,,,,,,4,10,,,,,,,,,,,4,1.689,1,,,,,,0.340625,-0.240625,1,0,0,1.689,Gabbro_rect,13,0,13,0,1,
665877fac83409588bdc6bfb,SCN,2024-06-25_12h41.14.467,LearnStrategy,2023.2.3,MacIntel,62.5,8,2,15,,,,,,,,6,08,,,,,,,,,,,6,1.462,1,,,,,,-0.067708333,-0.41875,1,0,0,1.462,Pegmatite_rect,14,0,14,0,1,
665877fac83409588bdc6bfb,SCN,2024-06-25_12h41.14.467,LearnStrategy,2023.2.3,MacIntel,62.5,8,2,16,,,,,,,,5,02,,,,,,,,,,,5,1.122,1,,,,,,-0.307291667,-0.379166667,1,0,0,1.122,Obsidian_rect,15,0,15,0,1,
665877fac83409588bdc6bfb,SCN,2024-06-25_12h41.14.467,LearnStrategy,2023.2.3,MacIntel,62.5,9,1,1,-0.571875,-0.259375,1,0,0,1.949,Andesite_09,1,09,2,1,1.949,-0.422916667,-0.244791667,1,0,0,2.224,Andesite_rect,1,2.224,1,0,0,0,0,1,,,,,,,,,,,,,
665877fac83409588bdc6bfb,SCN,2024-06-25_12h41.14.467,LearnStrategy,2023.2.3,MacIntel,62.5,9,1,2,-0.208333333,-0.25,1,0,0,1.682,Peridotite_10,7,10,2,3,1.682,0.132291667,-0.384375,1,0,0,1.52,Peridotite_rect,7,1.52,1,1,0,1,0,1,,,,,,,,,,,,,
665877fac83409588bdc6bfb,SCN,2024-06-25_12h41.14.467,LearnStrategy,2023.2.3,MacIntel,62.5,9,1,3,0.103125,-0.271875,1,0,0,1.611,Peridotite_07,7,07,2,5,1.611,0.1,-0.411458333,1,0,0,1.305,Peridotite_rect,7,1.305,1,2,0,2,0,1,,,,,,,,,,,,,
665877fac83409588bdc6bfb,SCN,2024-06-25_12h41.14.467,LearnStrategy,2023.2.3,MacIntel,62.5,9,1,4,0.257291667,-0.278125,1,0,0,1.212,Andesite_10,1,10,2,6,1.212,-0.334375,-0.255208333,1,0,0,3.522,Andesite_rect,1,3.522,1,3,0,3,0,1,,,,,,,,,,,,,
665877fac83409588bdc6bfb,SCN,2024-06-25_12h41.14.467,LearnStrategy,2023.2.3,MacIntel,62.5,9,1,5,0.430208333,-0.25625,1,0,0,1.218,Gabbro_05,4,05,2,7,1.218,0.430208333,-0.25625,1,0,0,2.568,Gabbro_rect,4,2.568,1,4,0,4,0,1,,,,,,,,,,,,,
665877fac83409588bdc6bfb,SCN,2024-06-25_12h41.14.467,LearnStrategy,2023.2.3,MacIntel,62.5,9,1,6,0.586458333,-0.282291667,1,0,0,1.834,Pumice_04,8,04,2,8,1.834,0.427083333,-0.39375,1,0,0,0.764,Pumice_rect,8,0.764,1,5,0,5,0,1,,,,,,,,,,,,,
665877fac83409588bdc6bfb,SCN,2024-06-25_12h41.14.467,LearnStrategy,2023.2.3,MacIntel,62.5,9,1,7,-0.591666667,-0.413541667,1,0,0,1.179,Andesite_06,1,06,1,1,1.179,0.083333333,-0.254166667,1,0,0,1.389,Diorite_rect,3,1.389,0,6,0,6,0,1,,,,,,,,,,,,,
665877fac83409588bdc6bfb,SCN,2024-06-25_12h41.14.467,LearnStrategy,2023.2.3,MacIntel,62.5,9,1,8,-0.415625,-0.44375,1,0,0,1.099,Basalt_09,2,09,1,2,1.099,-0.189583333,-0.25625,1,0,0,1.417,Basalt_rect,2,1.417,1,7,0,7,0,1,,,,,,,,,,,,,
665877fac83409588bdc6bfb,SCN,2024-06-25_12h41.14.467,LearnStrategy,2023.2.3,MacIntel,62.5,9,1,9,0.051041667,-0.409375,1,0,0,2.821,Gabbro_11,4,11,1,5,2.821,0.390625,-0.263541667,1,0,0,2.235,Gabbro_rect,4,2.235,1,8,0,8,0,1,,,,,,,,,,,,,
665877fac83409588bdc6bfb,SCN,2024-06-25_12h41.14.467,LearnStrategy,2023.2.3,MacIntel,62.5,9,1,10,0.25,-0.411458333,1,0,0,1.122,Pegmatite_15,6,15,1,6,1.122,-0.113541667,-0.402083333,1,0,0,0.968,Pegmatite_rect,6,0.968,1,9,0,9,0,1,,,,,,,,,,,,,
665877fac83409588bdc6bfb,SCN,2024-06-25_12h41.14.467,LearnStrategy,2023.2.3,MacIntel,62.5,9,1,11,0.398958333,-0.404166667,1,0,0,1.129,Gabbro_08,4,08,1,7,1.129,0.421875,-0.251041667,1,0,0,2.02,Gabbro_rect,4,2.02,1,10,0,10,0,1,,,,,,,,,,,,,
665877fac83409588bdc6bfb,SCN,2024-06-25_12h41.14.467,LearnStrategy,2023.2.3,MacIntel,62.5,9,1,12,0.547916667,-0.407291667,1,0,0,1.964,Pumice_08,8,08,1,8,1.964,0.403125,-0.378125,1,0,0,0.937,Pumice_rect,8,0.937,1,11,0,11,0,1,,,,,,,,,,,,,
665877fac83409588bdc6bfb,SCN,2024-06-25_12h41.14.467,LearnStrategy,2023.2.3,MacIntel,62.5,9,1,13,0.375,0.072916667,1,0,0,1.915,Gabbro_14,4,14,4,7,1.915,0.389583333,-0.24375,1,0,0,1.209,Gabbro_rect,4,1.209,1,12,0,12,0,1,,,,,,,,,,,,,
665877fac83409588bdc6bfb,SCN,2024-06-25_12h41.14.467,LearnStrategy,2023.2.3,MacIntel,62.5,9,1,14,-0.236458333,-0.101041667,1,0,0,1.124,Basalt_14,2,14,3,3,1.124,-0.159375,-0.238541667,1,0,0,1.129,Basalt_rect,2,1.129,1,13,0,13,0,1,,,,,,,,,,,,,
665877fac83409588bdc6bfb,SCN,2024-06-25_12h41.14.467,LearnStrategy,2023.2.3,MacIntel,62.5,9,1,15,-0.527083333,-0.271875,1,0,0,1.968,Andesite_09,1,09,2,1,1.968,-0.373958333,-0.245833333,1,0,0,1.389,Andesite_rect,1,1.389,1,14,0,14,0,1,,,,,,,,,,,,,
665877fac83409588bdc6bfb,SCN,2024-06-25_12h41.14.467,LearnStrategy,2023.2.3,MacIntel,62.5,9,1,16,-0.3875,-0.276041667,1,0,0,1.265,Gabbro_01,4,01,2,2,1.265,0.41875,-0.253125,1,0,0,1.723,Gabbro_rect,4,1.723,1,15,0,15,0,1,,,,,,,,,,,,,
665877fac83409588bdc6bfb,SCN,2024-06-25_12h41.14.467,LearnStrategy,2023.2.3,MacIntel,62.5,9,2,1,,,,,,,,3,07,,,,,,,,,,,1,3.865,0,,,,,,-0.398958333,-0.255208333,1,0,0,3.865,Andesite_rect,0,0,0,0,1,
665877fac83409588bdc6bfb,SCN,2024-06-25_12h41.14.467,LearnStrategy,2023.2.3,MacIntel,62.5,9,2,2,,,,,,,,2,11,,,,,,,,,,,8,1.651,0,,,,,,0.363541667,-0.391666667,1,0,0,1.651,Pumice_rect,1,0,1,0,1,
665877fac83409588bdc6bfb,SCN,2024-06-25_12h41.14.467,LearnStrategy,2023.2.3,MacIntel,62.5,9,2,3,,,,,,,,5,06,,,,,,,,,,,5,2.063,1,,,,,,-0.326041667,-0.395833333,1,0,0,2.063,Obsidian_rect,2,0,2,0,1,
665877fac83409588bdc6bfb,SCN,2024-06-25_12h41.14.467,LearnStrategy,2023.2.3,MacIntel,62.5,9,2,4,,,,,,,,3,13,,,,,,,,,,,3,3.432,1,,,,,,0.126041667,-0.255208333,1,0,0,3.432,Diorite_rect,3,0,3,0,1,
665877fac83409588bdc6bfb,SCN,2024-06-25_12h41.14.467,LearnStrategy,2023.2.3,MacIntel,62.5,9,2,5,,,,,,,,2,01,,,,,,,,,,,2,1.668,1,,,,,,-0.097916667,-0.264583333,1,0,0,1.668,Basalt_rect,4,0,4,0,1,
665877fac83409588bdc6bfb,SCN,2024-06-25_12h41.14.467,LearnStrategy,2023.2.3,MacIntel,62.5,9,2,6,,,,,,,,4,15,,,,,,,,,,,6,3.337,0,,,,,,-0.105208333,-0.39375,1,0,0,3.337,Pegmatite_rect,5,0,5,0,1,
665877fac83409588bdc6bfb,SCN,2024-06-25_12h41.14.467,LearnStrategy,2023.2.3,MacIntel,62.5,9,2,7,,,,,,,,4,13,,,,,,,,,,,4,2.004,1,,,,,,0.392708333,-0.255208333,1,0,0,2.004,Gabbro_rect,6,0,6,0,1,
665877fac83409588bdc6bfb,SCN,2024-06-25_12h41.14.467,LearnStrategy,2023.2.3,MacIntel,62.5,9,2,8,,,,,,,,1,16,,,,,,,,,,,1,6.423,1,,,,,,-0.344791667,-0.253125,1,0,0,6.423,Andesite_rect,7,0,7,0,1,
665877fac83409588bdc6bfb,SCN,2024-06-25_12h41.14.467,LearnStrategy,2023.2.3,MacIntel,62.5,9,2,9,,,,,,,,6,09,,,,,,,,,,,7,1.862,0,,,,,,0.113541667,-0.402083333,1,0,0,1.862,Peridotite_rect,8,0,8,0,1,
665877fac83409588bdc6bfb,SCN,2024-06-25_12h41.14.467,LearnStrategy,2023.2.3,MacIntel,62.5,9,2,10,,,,,,,,1,01,,,,,,,,,,,1,9.457,1,,,,,,-0.372916667,-0.254166667,1,0,0,9.457,Andesite_rect,9,0,9,0,1,
665877fac83409588bdc6bfb,SCN,2024-06-25_12h41.14.467,LearnStrategy,2023.2.3,MacIntel,62.5,9,2,11,,,,,,,,6,11,,,,,,,,,,,6,1.475,1,,,,,,-0.198958333,-0.4,1,0,0,1.475,Pegmatite_rect,10,0,10,0,1,
665877fac83409588bdc6bfb,SCN,2024-06-25_12h41.14.467,LearnStrategy,2023.2.3,MacIntel,62.5,9,2,12,,,,,,,,7,14,,,,,,,,,,,3,3.805,0,,,,,,0.0875,-0.260416667,1,0,0,3.805,Diorite_rect,11,0,11,0,1,
665877fac83409588bdc6bfb,SCN,2024-06-25_12h41.14.467,LearnStrategy,2023.2.3,MacIntel,62.5,9,2,13,,,,,,,,8,14,,,,,,,,,,,8,1.487,1,,,,,,0.351041667,-0.4,1,0,0,1.487,Pumice_rect,12,0,12,0,1,
665877fac83409588bdc6bfb,SCN,2024-06-25_12h41.14.467,LearnStrategy,2023.2.3,MacIntel,62.5,9,2,14,,,,,,,,7,08,,,,,,,,,,,7,1.992,1,,,,,,0.134375,-0.386458333,1,0,0,1.992,Peridotite_rect,13,0,13,0,1,
665877fac83409588bdc6bfb,SCN,2024-06-25_12h41.14.467,LearnStrategy,2023.2.3,MacIntel,62.5,9,2,15,,,,,,,,8,02,,,,,,,,,,,8,1.228,1,,,,,,0.373958333,-0.391666667,1,0,0,1.228,Pumice_rect,14,0,14,0,1,
665877fac83409588bdc6bfb,SCN,2024-06-25_12h41.14.467,LearnStrategy,2023.2.3,MacIntel,62.5,9,2,16,,,,,,,,5,05,,,,,,,,,,,5,3.175,1,,,,,,-0.358333333,-0.402083333,1,0,0,3.175,Obsidian_rect,15,0,15,0,1,
665877fac83409588bdc6bfb,SCN,2024-06-25_12h41.14.467,LearnStrategy,2023.2.3,MacIntel,62.5,,,,,,,,,,,,,,,,,,,,,,,,,,,,,,,,,,,,,,,,,,,1
665877fac83409588bdc6bfb,SCN,2024-06-25_12h41.14.467,LearnStrategy,2023.2.3,MacIntel,62.5,,,,,,,,,,,,,,,,,,,,,,,,,,,,,,,,,,,,,,,,,,,
665877fac83409588bdc6bfb,SCN,2024-06-25_12h41.14.467,LearnStrategy,2023.2.3,MacIntel,62.5,,,,,,,,,,,1,06,1,1,,,,,,,,,,,,,,,,,,,,,,,,,,,,,
665877fac83409588bdc6bfb,SCN,2024-06-25_12h41.14.467,LearnStrategy,2023.2.3,MacIntel,62.5,,,,,,,,,,,2,09,1,2,,,,,,,,,,,,,,,,,,,,,,,,,,,,,
665877fac83409588bdc6bfb,SCN,2024-06-25_12h41.14.467,LearnStrategy,2023.2.3,MacIntel,62.5,,,,,,,,,,,8,09,1,3,,,,,,,,,,,,,,,,,,,,,,,,,,,,,
665877fac83409588bdc6bfb,SCN,2024-06-25_12h41.14.467,LearnStrategy,2023.2.3,MacIntel,62.5,,,,,,,,,,,5,11,1,4,,,,,,,,,,,,,,,,,,,,,,,,,,,,,
665877fac83409588bdc6bfb,SCN,2024-06-25_12h41.14.467,LearnStrategy,2023.2.3,MacIntel,62.5,,,,,,,,,,,4,11,1,5,,,,,,,,,,,,,,,,,,,,,,,,,,,,,
665877fac83409588bdc6bfb,SCN,2024-06-25_12h41.14.467,LearnStrategy,2023.2.3,MacIntel,62.5,,,,,,,,,,,6,15,1,6,,,,,,,,,,,,,,,,,,,,,,,,,,,,,
665877fac83409588bdc6bfb,SCN,2024-06-25_12h41.14.467,LearnStrategy,2023.2.3,MacIntel,62.5,,,,,,,,,,,4,08,1,7,,,,,,,,,,,,,,,,,,,,,,,,,,,,,
665877fac83409588bdc6bfb,SCN,2024-06-25_12h41.14.467,LearnStrategy,2023.2.3,MacIntel,62.5,,,,,,,,,,,8,08,1,8,,,,,,,,,,,,,,,,,,,,,,,,,,,,,
665877fac83409588bdc6bfb,SCN,2024-06-25_12h41.14.467,LearnStrategy,2023.2.3,MacIntel,62.5,,,,,,,,,,,1,09,2,1,,,,,,,,,,,,,,,,,,,,,,,,,,,,,
665877fac83409588bdc6bfb,SCN,2024-06-25_12h41.14.467,LearnStrategy,2023.2.3,MacIntel,62.5,,,,,,,,,,,4,01,2,2,,,,,,,,,,,,,,,,,,,,,,,,,,,,,
665877fac83409588bdc6bfb,SCN,2024-06-25_12h41.14.467,LearnStrategy,2023.2.3,MacIntel,62.5,,,,,,,,,,,7,10,2,3,,,,,,,,,,,,,,,,,,,,,,,,,,,,,
665877fac83409588bdc6bfb,SCN,2024-06-25_12h41.14.467,LearnStrategy,2023.2.3,MacIntel,62.5,,,,,,,,,,,5,16,2,4,,,,,,,,,,,,,,,,,,,,,,,,,,,,,
665877fac83409588bdc6bfb,SCN,2024-06-25_12h41.14.467,LearnStrategy,2023.2.3,MacIntel,62.5,,,,,,,,,,,7,07,2,5,,,,,,,,,,,,,,,,,,,,,,,,,,,,,
665877fac83409588bdc6bfb,SCN,2024-06-25_12h41.14.467,LearnStrategy,2023.2.3,MacIntel,62.5,,,,,,,,,,,1,10,2,6,,,,,,,,,,,,,,,,,,,,,,,,,,,,,
665877fac83409588bdc6bfb,SCN,2024-06-25_12h41.14.467,LearnStrategy,2023.2.3,MacIntel,62.5,,,,,,,,,,,4,05,2,7,,,,,,,,,,,,,,,,,,,,,,,,,,,,,
665877fac83409588bdc6bfb,SCN,2024-06-25_12h41.14.467,LearnStrategy,2023.2.3,MacIntel,62.5,,,,,,,,,,,8,04,2,8,,,,,,,,,,,,,,,,,,,,,,,,,,,,,
665877fac83409588bdc6bfb,SCN,2024-06-25_12h41.14.467,LearnStrategy,2023.2.3,MacIntel,62.5,,,,,,,,,,,7,06,3,1,,,,,,,,,,,,,,,,,,,,,,,,,,,,,
665877fac83409588bdc6bfb,SCN,2024-06-25_12h41.14.467,LearnStrategy,2023.2.3,MacIntel,62.5,,,,,,,,,,,1,14,3,2,,,,,,,,,,,,,,,,,,,,,,,,,,,,,
665877fac83409588bdc6bfb,SCN,2024-06-25_12h41.14.467,LearnStrategy,2023.2.3,MacIntel,62.5,,,,,,,,,,,2,14,3,3,,,,,,,,,,,,,,,,,,,,,,,,,,,,,
665877fac83409588bdc6bfb,SCN,2024-06-25_12h41.14.467,LearnStrategy,2023.2.3,MacIntel,62.5,,,,,,,,,,,1,03,3,4,,,,,,,,,,,,,,,,,,,,,,,,,,,,,
665877fac83409588bdc6bfb,SCN,2024-06-25_12h41.14.467,LearnStrategy,2023.2.3,MacIntel,62.5,,,,,,,,,,,2,02,3,5,,,,,,,,,,,,,,,,,,,,,,,,,,,,,
665877fac83409588bdc6bfb,SCN,2024-06-25_12h41.14.467,LearnStrategy,2023.2.3,MacIntel,62.5,,,,,,,,,,,2,08,3,6,,,,,,,,,,,,,,,,,,,,,,,,,,,,,
665877fac83409588bdc6bfb,SCN,2024-06-25_12h41.14.467,LearnStrategy,2023.2.3,MacIntel,62.5,,,,,,,,,,,7,12,3,7,,,,,,,,,,,,,,,,,,,,,,,,,,,,,
665877fac83409588bdc6bfb,SCN,2024-06-25_12h41.14.467,LearnStrategy,2023.2.3,MacIntel,62.5,,,,,,,,,,,8,16,3,8,,,,,,,,,,,,,,,,,,,,,,,,,,,,,
665877fac83409588bdc6bfb,SCN,2024-06-25_12h41.14.467,LearnStrategy,2023.2.3,MacIntel,62.5,,,,,,,,,,,3,16,4,1,,,,,,,,,,,,,,,,,,,,,,,,,,,,,
665877fac83409588bdc6bfb,SCN,2024-06-25_12h41.14.467,LearnStrategy,2023.2.3,MacIntel,62.5,,,,,,,,,,,6,10,4,2,,,,,,,,,,,,,,,,,,,,,,,,,,,,,
665877fac83409588bdc6bfb,SCN,2024-06-25_12h41.14.467,LearnStrategy,2023.2.3,MacIntel,62.5,,,,,,,,,,,6,07,4,3,,,,,,,,,,,,,,,,,,,,,,,,,,,,,
665877fac83409588bdc6bfb,SCN,2024-06-25_12h41.14.467,LearnStrategy,2023.2.3,MacIntel,62.5,,,,,,,,,,,4,03,4,4,,,,,,,,,,,,,,,,,,,,,,,,,,,,,
665877fac83409588bdc6bfb,SCN,2024-06-25_12h41.14.467,LearnStrategy,2023.2.3,MacIntel,62.5,,,,,,,,,,,6,16,4,5,,,,,,,,,,,,,,,,,,,,,,,,,,,,,
665877fac83409588bdc6bfb,SCN,2024-06-25_12h41.14.467,LearnStrategy,2023.2.3,MacIntel,62.5,,,,,,,,,,,3,02,4,6,,,,,,,,,,,,,,,,,,,,,,,,,,,,,
665877fac83409588bdc6bfb,SCN,2024-06-25_12h41.14.467,LearnStrategy,2023.2.3,MacIntel,62.5,,,,,,,,,,,4,14,4,7,,,,,,,,,,,,,,,,,,,,,,,,,,,,,
665877fac83409588bdc6bfb,SCN,2024-06-25_12h41.14.467,LearnStrategy,2023.2.3,MacIntel,62.5,,,,,,,,,,,7,13,4,8,,,,,,,,,,,,,,,,,,,,,,,,,,,,,
665877fac83409588bdc6bfb,SCN,2024-06-25_12h41.14.467,LearnStrategy,2023.2.3,MacIntel,62.5,,,,,,,,,,,3,11,5,1,,,,,,,,,,,,,,,,,,,,,,,,,,,,,
665877fac83409588bdc6bfb,SCN,2024-06-25_12h41.14.467,LearnStrategy,2023.2.3,MacIntel,62.5,,,,,,,,,,,6,03,5,2,,,,,,,,,,,,,,,,,,,,,,,,,,,,,
665877fac83409588bdc6bfb,SCN,2024-06-25_12h41.14.467,LearnStrategy,2023.2.3,MacIntel,62.5,,,,,,,,,,,3,06,5,3,,,,,,,,,,,,,,,,,,,,,,,,,,,,,
665877fac83409588bdc6bfb,SCN,2024-06-25_12h41.14.467,LearnStrategy,2023.2.3,MacIntel,62.5,,,,,,,,,,,2,04,5,4,,,,,,,,,,,,,,,,,,,,,,,,,,,,,
665877fac83409588bdc6bfb,SCN,2024-06-25_12h41.14.467,LearnStrategy,2023.2.3,MacIntel,62.5,,,,,,,,,,,8,10,5,5,,,,,,,,,,,,,,,,,,,,,,,,,,,,,
665877fac83409588bdc6bfb,SCN,2024-06-25_12h41.14.467,LearnStrategy,2023.2.3,MacIntel,62.5,,,,,,,,,,,8,03,5,6,,,,,,,,,,,,,,,,,,,,,,,,,,,,,
665877fac83409588bdc6bfb,SCN,2024-06-25_12h41.14.467,LearnStrategy,2023.2.3,MacIntel,62.5,,,,,,,,,,,5,09,5,7,,,,,,,,,,,,,,,,,,,,,,,,,,,,,
665877fac83409588bdc6bfb,SCN,2024-06-25_12h41.14.467,LearnStrategy,2023.2.3,MacIntel,62.5,,,,,,,,,,,1,11,5,8,,,,,,,,,,,,,,,,,,,,,,,,,,,,,
665877fac83409588bdc6bfb,SCN,2024-06-25_12h41.14.467,LearnStrategy,2023.2.3,MacIntel,62.5,,,,,,,,,,,2,06,6,1,,,,,,,,,,,,,,,,,,,,,,,,,,,,,
665877fac83409588bdc6bfb,SCN,2024-06-25_12h41.14.467,LearnStrategy,2023.2.3,MacIntel,62.5,,,,,,,,,,,7,16,6,2,,,,,,,,,,,,,,,,,,,,,,,,,,,,,
665877fac83409588bdc6bfb,SCN,2024-06-25_12h41.14.467,LearnStrategy,2023.2.3,MacIntel,62.5,,,,,,,,,,,3,14,6,3,,,,,,,,,,,,,,,,,,,,,,,,,,,,,
665877fac83409588bdc6bfb,SCN,2024-06-25_12h41.14.467,LearnStrategy,2023.2.3,MacIntel,62.5,,,,,,,,,,,5,04,6,4,,,,,,,,,,,,,,,,,,,,,,,,,,,,,
665877fac83409588bdc6bfb,SCN,2024-06-25_12h41.14.467,LearnStrategy,2023.2.3,MacIntel,62.5,,,,,,,,,,,3,08,6,5,,,,,,,,,,,,,,,,,,,,,,,,,,,,,
665877fac83409588bdc6bfb,SCN,2024-06-25_12h41.14.467,LearnStrategy,2023.2.3,MacIntel,62.5,,,,,,,,,,,5,12,6,6,,,,,,,,,,,,,,,,,,,,,,,,,,,,,
665877fac83409588bdc6bfb,SCN,2024-06-25_12h41.14.467,LearnStrategy,2023.2.3,MacIntel,62.5,,,,,,,,,,,6,13,6,7,,,,,,,,,,,,,,,,,,,,,,,,,,,,,
665877fac83409588bdc6bfb,SCN,2024-06-25_12h41.14.467,LearnStrategy,2023.2.3,MacIntel,62.5,,,,,,,,,,,5,07,6,8,,,,,,,,,,,,,,,,,,,,,,,,,,,,,