participant,condition,date,expName,psychopyVersion,OS,frameRate,block,phase,trial,learn_mouse_2.x,learn_mouse_2.y,learn_mouse_2.leftButton,learn_mouse_2.midButton,learn_mouse_2.rightButton,learn_mouse_2.time,learn_mouse_2.clicked_name,cat,token,row,col,t_select,cat_mouse_l.x,cat_mouse_l.y,cat_mouse_l.leftButton,cat_mouse_l.midButton,cat_mouse_l.rightButton,cat_mouse_l.time,cat_mouse_l.clicked_name,resp,t_resp,corr,train_trials.thisRepN,train_trials.thisTrialN,train_trials.thisN,train_trials.thisIndex,train_trials.ran,cat_mouse_t.x,cat_mouse_t.y,cat_mouse_t.leftButton,cat_mouse_t.midButton,cat_mouse_t.rightButton,cat_mouse_t.time,cat_mouse_t.clicked_name,test_trials.thisRepN,test_trials.thisTrialN,test_trials.thisN,test_trials.thisIndex,test_trials.ran,Bonus
665a3e3f103e514a43e3da52,TCN,2024-06-25_11h40.01.388,LearnStrategy,2023.2.3,Win32,60.60606061,,,,,,,,,,,,,,,,,,,,,,,,,,,,,,,,,,,,,,,,,,,
665a3e3f103e514a43e3da52,TCN,2024-06-25_11h40.01.388,LearnStrategy,2023.2.3,Win32,60.60606061,1,1,1,0.003703718,0.003703683,1,0,0,2.1697,rock_grid_rect_2,6,11,-1,-1,2.17,0.172222208,-0.411111125,1,0,0,7.4618,Peridotite_rect,7,7.462,0,0,0,0,0,1,,,,,,,,,,,,,
665a3e3f103e514a43e3da52,TCN,2024-06-25_11h40.01.388,LearnStrategy,2023.2.3,Win32,60.60606061,1,1,2,0.147222236,0.001851859,1,0,0,1.6408,rock_grid_rect_2,4,10,-1,-1,1.641,-0.380555541,-0.395370413,1,0,0,2.7394,Obsidian_rect,5,2.739,0,1,0,1,0,1,,,,,,,,,,,,,
665a3e3f103e514a43e3da52,TCN,2024-06-25_11h40.01.388,LearnStrategy,2023.2.3,Win32,60.60606061,1,1,3,0.098148134,-0.006481489,1,0,0,1.3625,rock_grid_rect_2,7,02,-1,-1,1.363,-0.091666681,-0.253703718,1,0,0,6.1969,Basalt_rect,2,6.197,0,2,0,2,0,1,,,,,,,,,,,,,
665a3e3f103e514a43e3da52,TCN,2024-06-25_11h40.01.388,LearnStrategy,2023.2.3,Win32,60.60606061,1,1,4,0.142592607,0.010185171,1,0,0,1.207,rock_grid_rect_2,5,09,-1,-1,1.207,-0.347222222,-0.40370369,1,0,0,1.9403,Obsidian_rect,5,1.94,1,3,0,3,0,1,,,,,,,,,,,,,
665a3e3f103e514a43e3da52,TCN,2024-06-25_11h40.01.388,LearnStrategy,2023.2.3,Win32,60.60606061,1,1,5,0.137962977,0.000925912,1,0,0,1.1112,rock_grid_rect_2,5,02,-1,-1,1.111,-0.355555534,-0.250925912,1,0,0,4.1668,Andesite_rect,1,4.167,0,4,0,4,0,1,,,,,,,,,,,,,
665a3e3f103e514a43e3da52,TCN,2024-06-25_11h40.01.388,LearnStrategy,2023.2.3,Win32,60.60606061,1,1,6,0.145370413,0.000925912,1,0,0,1.1408,rock_grid_rect_2,2,08,-1,-1,1.141,-0.113888847,-0.268518519,1,0,0,2.4388,Basalt_rect,2,2.439,1,5,0,5,0,1,,,,,,,,,,,,,
665a3e3f103e514a43e3da52,TCN,2024-06-25_11h40.01.388,LearnStrategy,2023.2.3,Win32,60.60606061,1,1,7,0.14444443,0.010185171,1,0,0,1.0282,rock_grid_rect_2,8,13,-1,-1,1.028,0.175925926,-0.237037023,1,0,0,1.8403,Diorite_rect,3,1.84,0,6,0,6,0,1,,,,,,,,,,,,,
665a3e3f103e514a43e3da52,TCN,2024-06-25_11h40.01.388,LearnStrategy,2023.2.3,Win32,60.60606061,1,1,8,0.110185199,0.000925912,1,0,0,1.2239,rock_grid_rect_2,1,04,-1,-1,1.224,0.434259344,-0.262037065,1,0,0,2.8705,Gabbro_rect,4,2.871,0,7,0,7,0,1,,,,,,,,,,,,,
665a3e3f103e514a43e3da52,TCN,2024-06-25_11h40.01.388,LearnStrategy,2023.2.3,Win32,60.60606061,1,1,9,0.136111153,-0.002777771,1,0,0,1.0243,rock_grid_rect_2,2,12,-1,-1,1.024,0.412963019,-0.388888889,1,0,0,2.1553,Pumice_rect,8,2.155,0,8,0,8,0,1,,,,,,,,,,,,,
665a3e3f103e514a43e3da52,TCN,2024-06-25_11h40.01.388,LearnStrategy,2023.2.3,Win32,60.60606061,1,1,10,0.143518519,0.001851859,1,0,0,1.0074,rock_grid_rect_2,8,10,-1,-1,1.007,0.426851908,-0.397222236,1,0,0,1.2918,Pumice_rect,8,1.292,1,9,0,9,0,1,,,,,,,,,,,,,
665a3e3f103e514a43e3da52,TCN,2024-06-25_11h40.01.388,LearnStrategy,2023.2.3,Win32,60.60606061,1,1,11,0.139814801,-0.006481489,1,0,0,0.9585,rock_grid_rect_2,1,01,-1,-1,0.959,-0.112037023,-0.255555541,1,0,0,3.619,Basalt_rect,2,3.619,0,10,0,10,0,1,,,,,,,,,,,,,
665a3e3f103e514a43e3da52,TCN,2024-06-25_11h40.01.388,LearnStrategy,2023.2.3,Win32,60.60606061,1,1,12,0.10555557,0.002777771,1,0,0,0.8621,rock_grid_rect_2,3,15,-1,-1,0.862,-0.094444416,-0.247222265,1,0,0,1.4742,Basalt_rect,2,1.474,0,11,0,11,0,1,,,,,,,,,,,,,
665a3e3f103e514a43e3da52,TCN,2024-06-25_11h40.01.388,LearnStrategy,2023.2.3,Win32,60.60606061,1,1,13,0.150000042,0.002777771,1,0,0,0.7915,rock_grid_rect_2,6,08,-1,-1,0.791,0.390740712,-0.235185199,1,0,0,2.2065,Gabbro_rect,4,2.207,0,12,0,12,0,1,,,,,,,,,,,,,
665a3e3f103e514a43e3da52,TCN,2024-06-25_11h40.01.388,LearnStrategy,2023.2.3,Win32,60.60606061,1,1,14,0.169444473,-0.001851859,1,0,0,0.7956,rock_grid_rect_2,7,07,-1,-1,0.796,0.416666667,-0.248148176,1,0,0,3.353,Gabbro_rect,4,3.353,0,13,0,13,0,1,,,,,,,,,,,,,
665a3e3f103e514a43e3da52,TCN,2024-06-25_11h40.01.388,LearnStrategy,2023.2.3,Win32,60.60606061,1,1,15,0.138888889,-0.00462963,1,0,0,0.8417,rock_grid_rect_2,3,09,-1,-1,0.842,0.40370376,-0.250925912,1,0,0,1.5246,Gabbro_rect,4,1.525,0,14,0,14,0,1,,,,,,,,,,,,,
665a3e3f103e514a43e3da52,TCN,2024-06-25_11h40.01.388,LearnStrategy,2023.2.3,Win32,60.60606061,1,1,16,0.163888931,-0.017592607,1,0,0,0.9912,rock_grid_rect_2,4,16,-1,-1,0.991,0.406481566,-0.248148176,1,0,0,1.8905,Gabbro_rect,4,1.891,1,15,0,15,0,1,,,,,,,,,,,,,
665a3e3f103e514a43e3da52,TCN,2024-06-25_11h40.01.388,LearnStrategy,2023.2.3,Win32,60.60606061,1,2,1,,,,,,,,8,15,,,,,,,,,,,8,11.659,1,,,,,,0.42777775,-0.39907406,1,0,0,11.6587,Pumice_rect,0,0,0,0,1,
665a3e3f103e514a43e3da52,TCN,2024-06-25_11h40.01.388,LearnStrategy,2023.2.3,Win32,60.60606061,1,2,2,,,,,,,,6,12,,,,,,,,,,,4,10.943,0,,,,,,0.42314812,-0.236111111,1,0,0,10.9429,Gabbro_rect,1,0,1,0,1,
665a3e3f103e514a43e3da52,TCN,2024-06-25_11h40.01.388,LearnStrategy,2023.2.3,Win32,60.60606061,1,2,3,,,,,,,,4,09,,,,,,,,,,,4,10.744,1,,,,,,0.425000085,-0.244444459,1,0,0,10.7444,Gabbro_rect,2,0,2,0,1,
665a3e3f103e514a43e3da52,TCN,2024-06-25_11h40.01.388,LearnStrategy,2023.2.3,Win32,60.60606061,1,2,4,,,,,,,,3,12,,,,,,,,,,,3,12.827,1,,,,,,0.145370413,-0.252777806,1,0,0,12.827,Diorite_rect,3,0,3,0,1,
665a3e3f103e514a43e3da52,TCN,2024-06-25_11h40.01.388,LearnStrategy,2023.2.3,Win32,60.60606061,1,2,5,,,,,,,,1,16,,,,,,,,,,,2,20.451,0,,,,,,-0.139814801,-0.249074088,1,0,0,20.4514,Basalt_rect,4,0,4,0,1,
665a3e3f103e514a43e3da52,TCN,2024-06-25_11h40.01.388,LearnStrategy,2023.2.3,Win32,60.60606061,1,2,6,,,,,,,,1,07,,,,,,,,,,,1,2.952,1,,,,,,-0.3824074,-0.251851894,1,0,0,2.9524,Andesite_rect,5,0,5,0,1,
665a3e3f103e514a43e3da52,TCN,2024-06-25_11h40.01.388,LearnStrategy,2023.2.3,Win32,60.60606061,1,2,7,,,,,,,,5,12,,,,,,,,,,,5,1.484,1,,,,,,-0.368518511,-0.417592578,1,0,0,1.4842,Obsidian_rect,6,0,6,0,1,
665a3e3f103e514a43e3da52,TCN,2024-06-25_11h40.01.388,LearnStrategy,2023.2.3,Win32,60.60606061,1,2,8,,,,,,,,7,14,,,,,,,,,,,7,2.018,1,,,,,,0.150925954,-0.401851866,1,0,0,2.0178,Peridotite_rect,7,0,7,0,1,
665a3e3f103e514a43e3da52,TCN,2024-06-25_11h40.01.388,LearnStrategy,2023.2.3,Win32,60.60606061,1,2,9,,,,,,,,2,04,,,,,,,,,,,4,8.984,0,,,,,,0.448148233,-0.253703718,1,0,0,8.9839,Gabbro_rect,8,0,8,0,1,
665a3e3f103e514a43e3da52,TCN,2024-06-25_11h40.01.388,LearnStrategy,2023.2.3,Win32,60.60606061,1,2,10,,,,,,,,6,13,,,,,,,,,,,3,8.652,0,,,,,,0.133333347,-0.246296282,1,0,0,8.6524,Diorite_rect,9,0,9,0,1,
665a3e3f103e514a43e3da52,TCN,2024-06-25_11h40.01.388,LearnStrategy,2023.2.3,Win32,60.60606061,1,2,11,,,,,,,,8,05,,,,,,,,,,,8,24.839,1,,,,,,0.431481538,-0.398148148,1,0,0,24.8386,Pumice_rect,10,0,10,0,1,
665a3e3f103e514a43e3da52,TCN,2024-06-25_11h40.01.388,LearnStrategy,2023.2.3,Win32,60.60606061,1,2,12,,,,,,,,5,10,,,,,,,,,,,5,1.52,1,,,,,,-0.375,-0.387962977,1,0,0,1.5198,Obsidian_rect,11,0,11,0,1,
665a3e3f103e514a43e3da52,TCN,2024-06-25_11h40.01.388,LearnStrategy,2023.2.3,Win32,60.60606061,1,2,13,,,,,,,,7,06,,,,,,,,,,,7,12.771,1,,,,,,0.158333319,-0.409259302,1,0,0,12.7709,Peridotite_rect,12,0,12,0,1,
665a3e3f103e514a43e3da52,TCN,2024-06-25_11h40.01.388,LearnStrategy,2023.2.3,Win32,60.60606061,1,2,14,,,,,,,,4,12,,,,,,,,,,,1,5.475,0,,,,,,-0.373148141,-0.237963005,1,0,0,5.4747,Andesite_rect,13,0,13,0,1,
665a3e3f103e514a43e3da52,TCN,2024-06-25_11h40.01.388,LearnStrategy,2023.2.3,Win32,60.60606061,1,2,15,,,,,,,,2,16,,,,,,,,,,,2,4.426,1,,,,,,-0.12962963,-0.255555541,1,0,0,4.4263,Basalt_rect,14,0,14,0,1,
665a3e3f103e514a43e3da52,TCN,2024-06-25_11h40.01.388,LearnStrategy,2023.2.3,Win32,60.60606061,1,2,16,,,,,,,,3,14,,,,,,,,,,,3,9.812,1,,,,,,0.141666695,-0.258333347,1,0,0,9.8124,Diorite_rect,15,0,15,0,1,
665a3e3f103e514a43e3da52,TCN,2024-06-25_11h40.01.388,LearnStrategy,2023.2.3,Win32,60.60606061,2,1,1,0.115740741,-0.011111118,1,0,0,1.7139,rock_grid_rect_2,6,09,-1,-1,1.714,-0.112037023,-0.414814843,1,0,0,7.8923,Pegmatite_rect,6,7.892,1,0,0,0,0,1,,,,,,,,,,,,,
665a3e3f103e514a43e3da52,TCN,2024-06-25_11h40.01.388,LearnStrategy,2023.2.3,Win32,60.60606061,2,1,2,0.136111153,0.001851859,1,0,0,1.5153,rock_grid_rect_2,5,08,-1,-1,1.515,-0.365740741,-0.40370369,1,0,0,1.4779,Obsidian_rect,5,1.478,1,1,0,1,0,1,,,,,,,,,,,,,
665a3e3f103e514a43e3da52,TCN,2024-06-25_11h40.01.388,LearnStrategy,2023.2.3,Win32,60.60606061,2,1,3,0.071296339,-0.003703718,1,0,0,1.3282,rock_grid_rect_2,1,11,-1,-1,1.328,0.425000085,-0.242592635,1,0,0,12.7438,Gabbro_rect,4,12.744,0,2,0,2,0,1,,,,,,,,,,,,,
665a3e3f103e514a43e3da52,TCN,2024-06-25_11h40.01.388,LearnStrategy,2023.2.3,Win32,60.60606061,2,1,4,0.10555557,0.003703683,1,0,0,0.9786,rock_grid_rect_2,4,08,-1,-1,0.979,0.407407407,-0.244444459,1,0,0,1.4415,Gabbro_rect,4,1.442,1,3,0,3,0,1,,,,,,,,,,,,,
665a3e3f103e514a43e3da52,TCN,2024-06-25_11h40.01.388,LearnStrategy,2023.2.3,Win32,60.60606061,2,1,5,0.134259259,0.009259259,1,0,0,1.0457,rock_grid_rect_2,1,02,-1,-1,1.046,-0.36296297,-0.235185199,1,0,0,2.3726,Andesite_rect,1,2.373,1,4,0,4,0,1,,,,,,,,,,,,,
665a3e3f103e514a43e3da52,TCN,2024-06-25_11h40.01.388,LearnStrategy,2023.2.3,Win32,60.60606061,2,1,6,0.134259259,-0.003703718,1,0,0,0.9621,rock_grid_rect_2,7,08,-1,-1,0.962,0.15370369,-0.407407407,1,0,0,2.3058,Peridotite_rect,7,2.306,1,5,0,5,0,1,,,,,,,,,,,,,
665a3e3f103e514a43e3da52,TCN,2024-06-25_11h40.01.388,LearnStrategy,2023.2.3,Win32,60.60606061,2,1,7,0.127777806,-0.003703718,1,0,0,0.9785,rock_grid_rect_2,7,15,-1,-1,0.978,0.176851838,-0.409259302,1,0,0,1.2424,Peridotite_rect,7,1.242,1,6,0,6,0,1,,,,,,,,,,,,,
665a3e3f103e514a43e3da52,TCN,2024-06-25_11h40.01.388,LearnStrategy,2023.2.3,Win32,60.60606061,2,1,8,0.15370369,-0.00462963,1,0,0,0.6961,rock_grid_rect_2,8,04,-1,-1,0.696,0.414814843,-0.401851866,1,0,0,1.2592,Pumice_rect,8,1.259,1,7,0,7,0,1,,,,,,,,,,,,,
665a3e3f103e514a43e3da52,TCN,2024-06-25_11h40.01.388,LearnStrategy,2023.2.3,Win32,60.60606061,2,1,9,0.154629672,-0.006481489,1,0,0,0.6635,rock_grid_rect_2,5,07,-1,-1,0.663,-0.356481481,-0.389814801,1,0,0,1.5081,Obsidian_rect,5,1.508,1,8,0,8,0,1,,,,,,,,,,,,,
665a3e3f103e514a43e3da52,TCN,2024-06-25_11h40.01.388,LearnStrategy,2023.2.3,Win32,60.60606061,2,1,10,0.141666695,0.003703683,1,0,0,0.6794,rock_grid_rect_2,3,08,-1,-1,0.679,-0.099999958,-0.402777778,1,0,0,4.0344,Pegmatite_rect,6,4.034,0,9,0,9,0,1,,,,,,,,,,,,,
665a3e3f103e514a43e3da52,TCN,2024-06-25_11h40.01.388,LearnStrategy,2023.2.3,Win32,60.60606061,2,1,11,0.145370413,0.008333312,1,0,0,0.7456,rock_grid_rect_2,6,05,-1,-1,0.746,0.142592607,-0.252777806,1,0,0,2.2399,Diorite_rect,3,2.24,0,10,0,10,0,1,,,,,,,,,,,,,
665a3e3f103e514a43e3da52,TCN,2024-06-25_11h40.01.388,LearnStrategy,2023.2.3,Win32,60.60606061,2,1,12,0.10555557,0,1,0,0,0.7954,rock_grid_rect_2,4,03,-1,-1,0.795,0.414814843,-0.242592635,1,0,0,2.9043,Gabbro_rect,4,2.904,1,11,0,11,0,1,,,,,,,,,,,,,
665a3e3f103e514a43e3da52,TCN,2024-06-25_11h40.01.388,LearnStrategy,2023.2.3,Win32,60.60606061,2,1,13,0.152777778,0.00462963,1,0,0,0.7454,rock_grid_rect_2,8,03,-1,-1,0.745,0.435185185,-0.400000042,1,0,0,1.3919,Pumice_rect,8,1.392,1,12,0,12,0,1,,,,,,,,,,,,,
665a3e3f103e514a43e3da52,TCN,2024-06-25_11h40.01.388,LearnStrategy,2023.2.3,Win32,60.60606061,2,1,14,0.152777778,-0.006481489,1,0,0,0.7624,rock_grid_rect_2,2,05,-1,-1,0.762,0.395370342,-0.255555541,1,0,0,2.1067,Gabbro_rect,4,2.107,0,13,0,13,0,1,,,,,,,,,,,,,
665a3e3f103e514a43e3da52,TCN,2024-06-25_11h40.01.388,LearnStrategy,2023.2.3,Win32,60.60606061,2,1,15,0.074999986,-0.010185206,1,0,0,0.862,rock_grid_rect_2,2,09,-1,-1,0.862,-0.094444416,-0.244444459,1,0,0,0.9931,Basalt_rect,2,0.993,1,14,0,14,0,1,,,,,,,,,,,,,
665a3e3f103e514a43e3da52,TCN,2024-06-25_11h40.01.388,LearnStrategy,2023.2.3,Win32,60.60606061,2,1,16,0.079629616,-0.010185206,1,0,0,0.6795,rock_grid_rect_2,3,06,-1,-1,0.679,-0.089814787,-0.401851866,1,0,0,4.2013,Pegmatite_rect,6,4.201,0,15,0,15,0,1,,,,,,,,,,,,,
665a3e3f103e514a43e3da52,TCN,2024-06-25_11h40.01.388,LearnStrategy,2023.2.3,Win32,60.60606061,2,2,1,,,,,,,,2,10,,,,,,,,,,,4,5.747,0,,,,,,0.409259231,-0.238888917,1,0,0,5.7466,Gabbro_rect,0,0,0,0,1,
665a3e3f103e514a43e3da52,TCN,2024-06-25_11h40.01.388,LearnStrategy,2023.2.3,Win32,60.60606061,2,2,2,,,,,,,,5,06,,,,,,,,,,,5,2.117,1,,,,,,-0.412962949,-0.405555584,1,0,0,2.1169,Obsidian_rect,1,0,1,0,1,
665a3e3f103e514a43e3da52,TCN,2024-06-25_11h40.01.388,LearnStrategy,2023.2.3,Win32,60.60606061,2,2,3,,,,,,,,8,14,,,,,,,,,,,8,1.639,1,,,,,,0.429629714,-0.392592607,1,0,0,1.6389,Pumice_rect,2,0,2,0,1,
665a3e3f103e514a43e3da52,TCN,2024-06-25_11h40.01.388,LearnStrategy,2023.2.3,Win32,60.60606061,2,2,4,,,,,,,,4,11,,,,,,,,,,,4,4.278,1,,,,,,0.464814787,-0.25,1,0,0,4.2784,Gabbro_rect,3,0,3,0,1,
665a3e3f103e514a43e3da52,TCN,2024-06-25_11h40.01.388,LearnStrategy,2023.2.3,Win32,60.60606061,2,2,5,,,,,,,,2,02,,,,,,,,,,,1,2.455,0,,,,,,-0.383333312,-0.23055557,1,0,0,2.4554,Andesite_rect,4,0,4,0,1,
665a3e3f103e514a43e3da52,TCN,2024-06-25_11h40.01.388,LearnStrategy,2023.2.3,Win32,60.60606061,2,2,6,,,,,,,,6,15,,,,,,,,,,,6,2.168,1,,,,,,-0.087037051,-0.413888931,1,0,0,2.1683,Pegmatite_rect,5,0,5,0,1,
665a3e3f103e514a43e3da52,TCN,2024-06-25_11h40.01.388,LearnStrategy,2023.2.3,Win32,60.60606061,2,2,7,,,,,,,,4,01,,,,,,,,,,,7,1.785,0,,,,,,0.187962991,-0.381481524,1,0,0,1.7848,Peridotite_rect,6,0,6,0,1,
665a3e3f103e514a43e3da52,TCN,2024-06-25_11h40.01.388,LearnStrategy,2023.2.3,Win32,60.60606061,2,2,8,,,,,,,,1,10,,,,,,,,,,,1,3.282,1,,,,,,-0.374074053,-0.241666653,1,0,0,3.2821,Andesite_rect,7,0,7,0,1,
665a3e3f103e514a43e3da52,TCN,2024-06-25_11h40.01.388,LearnStrategy,2023.2.3,Win32,60.60606061,2,2,9,,,,,,,,7,13,,,,,,,,,,,7,1.354,1,,,,,,0.163888931,-0.396296325,1,0,0,1.3541,Peridotite_rect,8,0,8,0,1,
665a3e3f103e514a43e3da52,TCN,2024-06-25_11h40.01.388,LearnStrategy,2023.2.3,Win32,60.60606061,2,2,10,,,,,,,,3,07,,,,,,,,,,,3,2.067,1,,,,,,0.173148191,-0.242592635,1,0,0,2.0668,Diorite_rect,9,0,9,0,1,
665a3e3f103e514a43e3da52,TCN,2024-06-25_11h40.01.388,LearnStrategy,2023.2.3,Win32,60.60606061,2,2,11,,,,,,,,7,05,,,,,,,,,,,7,3.218,1,,,,,,0.162962949,-0.404629672,1,0,0,3.2179,Peridotite_rect,10,0,10,0,1,
665a3e3f103e514a43e3da52,TCN,2024-06-25_11h40.01.388,LearnStrategy,2023.2.3,Win32,60.60606061,2,2,12,,,,,,,,5,16,,,,,,,,,,,5,1.103,1,,,,,,-0.371296282,-0.39907406,1,0,0,1.1027,Obsidian_rect,11,0,11,0,1,
665a3e3f103e514a43e3da52,TCN,2024-06-25_11h40.01.388,LearnStrategy,2023.2.3,Win32,60.60606061,2,2,13,,,,,,,,6,10,,,,,,,,,,,6,2.169,1,,,,,,-0.109259217,-0.406481496,1,0,0,2.1694,Pegmatite_rect,12,0,12,0,1,
665a3e3f103e514a43e3da52,TCN,2024-06-25_11h40.01.388,LearnStrategy,2023.2.3,Win32,60.60606061,2,2,14,,,,,,,,3,13,,,,,,,,,,,3,2.337,1,,,,,,0.161111125,-0.241666653,1,0,0,2.337,Diorite_rect,13,0,13,0,1,
665a3e3f103e514a43e3da52,TCN,2024-06-25_11h40.01.388,LearnStrategy,2023.2.3,Win32,60.60606061,2,2,15,,,,,,,,1,03,,,,,,,,,,,1,3.347,1,,,,,,-0.373148141,-0.243518547,1,0,0,3.3474,Andesite_rect,14,0,14,0,1,
665a3e3f103e514a43e3da52,TCN,2024-06-25_11h40.01.388,LearnStrategy,2023.2.3,Win32,60.60606061,2,2,16,,,,,,,,8,06,,,,,,,,,,,8,2.135,1,,,,,,0.359259288,-0.412037037,1,0,0,2.1346,Pumice_rect,15,0,15,0,1,
665a3e3f103e514a43e3da52,TCN,2024-06-25_11h40.01.388,LearnStrategy,2023.2.3,Win32,60.60606061,3,1,1,0.114814829,-0.001851859,1,0,0,1.4472,rock_grid_rect_2,5,14,-1,-1,1.447,-0.332407386,-0.404629672,1,0,0,1.2292,Obsidian_rect,5,1.229,1,0,0,0,0,1,,,,,,,,,,,,,
665a3e3f103e514a43e3da52,TCN,2024-06-25_11h40.01.388,LearnStrategy,2023.2.3,Win32,60.60606061,3,1,2,0.142592607,0.017592571,1,0,0,1.0176,rock_grid_rect_2,4,05,-1,-1,1.018,-0.337037016,-0.249074088,1,0,0,3.558,Andesite_rect,1,3.558,0,1,0,1,0,1,,,,,,,,,,,,,
665a3e3f103e514a43e3da52,TCN,2024-06-25_11h40.01.388,LearnStrategy,2023.2.3,Win32,60.60606061,3,1,3,0.175000014,0.011111118,1,0,0,0.8512,rock_grid_rect_2,6,16,-1,-1,0.851,-0.071296268,-0.39444443,1,0,0,1.3284,Pegmatite_rect,6,1.328,1,2,0,2,0,1,,,,,,,,,,,,,
665a3e3f103e514a43e3da52,TCN,2024-06-25_11h40.01.388,LearnStrategy,2023.2.3,Win32,60.60606061,3,1,4,0.161111125,-0.01203703,1,0,0,0.6687,rock_grid_rect_2,2,06,-1,-1,0.669,-0.148148148,-0.24537037,1,0,0,2.1092,Basalt_rect,2,2.109,1,3,0,3,0,1,,,,,,,,,,,,,
665a3e3f103e514a43e3da52,TCN,2024-06-25_11h40.01.388,LearnStrategy,2023.2.3,Win32,60.60606061,3,1,5,0.187962991,-0.000925947,1,0,0,0.8189,rock_grid_rect_2,4,14,-1,-1,0.819,-0.350925905,-0.244444459,1,0,0,1.9745,Andesite_rect,1,1.974,0,4,0,4,0,1,,,,,,,,,,,,,
665a3e3f103e514a43e3da52,TCN,2024-06-25_11h40.01.388,LearnStrategy,2023.2.3,Win32,60.60606061,3,1,6,0.113888917,0,1,0,0,0.8156,rock_grid_rect_2,3,16,-1,-1,0.816,-0.356481481,-0.244444459,1,0,0,2.5074,Andesite_rect,1,2.507,0,5,0,5,0,1,,,,,,,,,,,,,
665a3e3f103e514a43e3da52,TCN,2024-06-25_11h40.01.388,LearnStrategy,2023.2.3,Win32,60.60606061,3,1,7,0.108333376,-0.002777771,1,0,0,0.815,rock_grid_rect_2,1,14,-1,-1,0.815,-0.087962963,-0.37962963,1,0,0,1.4105,Pegmatite_rect,6,1.41,0,6,0,6,0,1,,,,,,,,,,,,,
665a3e3f103e514a43e3da52,TCN,2024-06-25_11h40.01.388,LearnStrategy,2023.2.3,Win32,60.60606061,3,1,8,0.078703704,-0.010185206,1,0,0,0.752,rock_grid_rect_2,2,14,-1,-1,0.752,-0.103703675,-0.265740783,1,0,0,2.6739,Basalt_rect,2,2.674,1,7,0,7,0,1,,,,,,,,,,,,,
665a3e3f103e514a43e3da52,TCN,2024-06-25_11h40.01.388,LearnStrategy,2023.2.3,Win32,60.60606061,3,1,9,0.159259302,0.01203703,1,0,0,0.669,rock_grid_rect_2,8,16,-1,-1,0.669,0.430555556,-0.404629672,1,0,0,1.0601,Pumice_rect,8,1.06,1,8,0,8,0,1,,,,,,,,,,,,,
665a3e3f103e514a43e3da52,TCN,2024-06-25_11h40.01.388,LearnStrategy,2023.2.3,Win32,60.60606061,3,1,10,0.133333347,0,1,0,0,0.7508,rock_grid_rect_2,7,12,-1,-1,0.751,-0.085185157,-0.392592607,1,0,0,1.2784,Pegmatite_rect,6,1.278,0,9,0,9,0,1,,,,,,,,,,,,,
665a3e3f103e514a43e3da52,TCN,2024-06-25_11h40.01.388,LearnStrategy,2023.2.3,Win32,60.60606061,3,1,11,0.07222225,0.00462963,1,0,0,0.8138,rock_grid_rect_2,8,09,-1,-1,0.814,0.393518519,-0.395370413,1,0,0,1.0451,Pumice_rect,8,1.045,1,10,0,10,0,1,,,,,,,,,,,,,
665a3e3f103e514a43e3da52,TCN,2024-06-25_11h40.01.388,LearnStrategy,2023.2.3,Win32,60.60606061,3,1,12,0.074999986,0.012962942,1,0,0,0.8488,rock_grid_rect_2,6,03,-1,-1,0.849,-0.098148134,-0.40370369,1,0,0,1.0613,Pegmatite_rect,6,1.061,1,11,0,11,0,1,,,,,,,,,,,,,
665a3e3f103e514a43e3da52,TCN,2024-06-25_11h40.01.388,LearnStrategy,2023.2.3,Win32,60.60606061,3,1,13,0.074999986,0.000925912,1,0,0,0.7519,rock_grid_rect_2,7,04,-1,-1,0.752,-0.086111069,-0.386111153,1,0,0,2.1755,Pegmatite_rect,6,2.176,0,12,0,12,0,1,,,,,,,,,,,,,
665a3e3f103e514a43e3da52,TCN,2024-06-25_11h40.01.388,LearnStrategy,2023.2.3,Win32,60.60606061,3,1,14,0.098148134,0,1,0,0,0.7256,rock_grid_rect_2,5,11,-1,-1,0.726,-0.351851852,-0.400000042,1,0,0,0.9652,Obsidian_rect,5,0.965,1,13,0,13,0,1,,,,,,,,,,,,,
665a3e3f103e514a43e3da52,TCN,2024-06-25_11h40.01.388,LearnStrategy,2023.2.3,Win32,60.60606061,3,1,15,0.087037051,0.009259259,1,0,0,0.7988,rock_grid_rect_2,3,10,-1,-1,0.799,-0.375,-0.244444459,1,0,0,2.391,Andesite_rect,1,2.391,0,14,0,14,0,1,,,,,,,,,,,,,
665a3e3f103e514a43e3da52,TCN,2024-06-25_11h40.01.388,LearnStrategy,2023.2.3,Win32,60.60606061,3,1,16,0.059259273,0.000925912,1,0,0,0.7189,rock_grid_rect_2,1,09,-1,-1,0.719,-0.14444443,-0.246296282,1,0,0,1.5258,Basalt_rect,2,1.526,0,15,0,15,0,1,,,,,,,,,,,,,
665a3e3f103e514a43e3da52,TCN,2024-06-25_11h40.01.388,LearnStrategy,2023.2.3,Win32,60.60606061,3,2,1,,,,,,,,3,02,,,,,,,,,,,3,4.202,1,,,,,,0.142592607,-0.234259288,1,0,0,4.2015,Diorite_rect,0,0,0,0,1,
665a3e3f103e514a43e3da52,TCN,2024-06-25_11h40.01.388,LearnStrategy,2023.2.3,Win32,60.60606061,3,2,2,,,,,,,,4,15,,,,,,,,,,,1,2.526,0,,,,,,-0.369444423,-0.231481481,1,0,0,2.5259,Andesite_rect,1,0,1,0,1,
665a3e3f103e514a43e3da52,TCN,2024-06-25_11h40.01.388,LearnStrategy,2023.2.3,Win32,60.60606061,3,2,3,,,,,,,,7,10,,,,,,,,,,,7,1.961,1,,,,,,0.168518561,-0.414814843,1,0,0,1.9613,Peridotite_rect,2,0,2,0,1,
665a3e3f103e514a43e3da52,TCN,2024-06-25_11h40.01.388,LearnStrategy,2023.2.3,Win32,60.60606061,3,2,4,,,,,,,,6,06,,,,,,,,,,,6,0.971,1,,,,,,-0.118518476,-0.398148148,1,0,0,0.9715,Pegmatite_rect,3,0,3,0,1,
665a3e3f103e514a43e3da52,TCN,2024-06-25_11h40.01.388,LearnStrategy,2023.2.3,Win32,60.60606061,3,2,5,,,,,,,,7,16,,,,,,,,,,,7,4.995,1,,,,,,0.178703732,-0.417592578,1,0,0,4.9955,Peridotite_rect,4,0,4,0,1,
665a3e3f103e514a43e3da52,TCN,2024-06-25_11h40.01.388,LearnStrategy,2023.2.3,Win32,60.60606061,3,2,6,,,,,,,,4,13,,,,,,,,,,,3,3.172,0,,,,,,0.164814843,-0.239814829,1,0,0,3.1716,Diorite_rect,5,0,5,0,1,
665a3e3f103e514a43e3da52,TCN,2024-06-25_11h40.01.388,LearnStrategy,2023.2.3,Win32,60.60606061,3,2,7,,,,,,,,1,05,,,,,,,,,,,1,3.377,1,,,,,,-0.380555541,-0.253703718,1,0,0,3.3767,Andesite_rect,6,0,6,0,1,
665a3e3f103e514a43e3da52,TCN,2024-06-25_11h40.01.388,LearnStrategy,2023.2.3,Win32,60.60606061,3,2,8,,,,,,,,2,01,,,,,,,,,,,2,1.376,1,,,,,,-0.088888875,-0.246296282,1,0,0,1.3764,Basalt_rect,7,0,7,0,1,
665a3e3f103e514a43e3da52,TCN,2024-06-25_11h40.01.388,LearnStrategy,2023.2.3,Win32,60.60606061,3,2,9,,,,,,,,3,11,,,,,,,,,,,7,4.099,0,,,,,,0.187037079,-0.40370369,1,0,0,4.0994,Peridotite_rect,8,0,8,0,1,
665a3e3f103e514a43e3da52,TCN,2024-06-25_11h40.01.388,LearnStrategy,2023.2.3,Win32,60.60606061,3,2,10,,,,,,,,8,08,,,,,,,,,,,8,1.13,1,,,,,,0.387037065,-0.404629672,1,0,0,1.1302,Pumice_rect,9,0,9,0,1,
665a3e3f103e514a43e3da52,TCN,2024-06-25_11h40.01.388,LearnStrategy,2023.2.3,Win32,60.60606061,3,2,11,,,,,,,,5,04,,,,,,,,,,,5,0.947,1,,,,,,-0.356481481,-0.407407407,1,0,0,0.9468,Obsidian_rect,10,0,10,0,1,
665a3e3f103e514a43e3da52,TCN,2024-06-25_11h40.01.388,LearnStrategy,2023.2.3,Win32,60.60606061,3,2,12,,,,,,,,1,06,,,,,,,,,,,1,3.104,1,,,,,,-0.375,-0.261111153,1,0,0,3.1041,Andesite_rect,11,0,11,0,1,
665a3e3f103e514a43e3da52,TCN,2024-06-25_11h40.01.388,LearnStrategy,2023.2.3,Win32,60.60606061,3,2,13,,,,,,,,5,05,,,,,,,,,,,5,1.335,1,,,,,,-0.384259259,-0.39907406,1,0,0,1.3347,Obsidian_rect,12,0,12,0,1,
665a3e3f103e514a43e3da52,TCN,2024-06-25_11h40.01.388,LearnStrategy,2023.2.3,Win32,60.60606061,3,2,14,,,,,,,,8,02,,,,,,,,,,,8,0.977,1,,,,,,0.388888889,-0.410185213,1,0,0,0.9775,Pumice_rect,13,0,13,0,1,
665a3e3f103e514a43e3da52,TCN,2024-06-25_11h40.01.388,LearnStrategy,2023.2.3,Win32,60.60606061,3,2,15,,,,,,,,2,11,,,,,,,,,,,2,1.712,1,,,,,,-0.12037037,-0.246296282,1,0,0,1.7115,Basalt_rect,14,0,14,0,1,
665a3e3f103e514a43e3da52,TCN,2024-06-25_11h40.01.388,LearnStrategy,2023.2.3,Win32,60.60606061,3,2,16,,,,,,,,6,07,,,,,,,,,,,6,1.075,1,,,,,,-0.103703675,-0.380555541,1,0,0,1.0745,Pegmatite_rect,15,0,15,0,1,
665a3e3f103e514a43e3da52,TCN,2024-06-25_11h40.01.388,LearnStrategy,2023.2.3,Win32,60.60606061,4,1,1,0.165740755,0.000925912,1,0,0,0.9834,rock_grid_rect_2,5,02,-1,-1,0.983,-0.366666653,-0.407407407,1,0,0,1.0944,Obsidian_rect,5,1.094,1,0,0,0,0,1,,,,,,,,,,,,,
665a3e3f103e514a43e3da52,TCN,2024-06-25_11h40.01.388,LearnStrategy,2023.2.3,Win32,60.60606061,4,1,2,0.124074088,0.01666666,1,0,0,1.6155,rock_grid_rect_2,4,08,-1,-1,1.615,-0.372222229,-0.239814829,1,0,0,4.3865,Andesite_rect,1,4.387,0,1,0,1,0,1,,,,,,,,,,,,,
665a3e3f103e514a43e3da52,TCN,2024-06-25_11h40.01.388,LearnStrategy,2023.2.3,Win32,60.60606061,4,1,3,0.156481496,0.00462963,1,0,0,0.7134,rock_grid_rect_2,8,16,-1,-1,0.713,0.399074131,-0.412962949,1,0,0,0.9588,Pumice_rect,8,0.959,1,2,0,2,0,1,,,,,,,,,,,,,
665a3e3f103e514a43e3da52,TCN,2024-06-25_11h40.01.388,LearnStrategy,2023.2.3,Win32,60.60606061,4,1,4,0.192592621,0.005555541,1,0,0,0.7626,rock_grid_rect_2,1,09,-1,-1,0.763,-0.372222229,-0.246296282,1,0,0,1.4582,Andesite_rect,1,1.458,1,3,0,3,0,1,,,,,,,,,,,,,
665a3e3f103e514a43e3da52,TCN,2024-06-25_11h40.01.388,LearnStrategy,2023.2.3,Win32,60.60606061,4,1,5,0.139814801,-0.00462963,1,0,0,0.5966,rock_grid_rect_2,2,08,-1,-1,0.597,-0.136111083,-0.268518519,1,0,0,1.242,Basalt_rect,2,1.242,1,4,0,4,0,1,,,,,,,,,,,,,
665a3e3f103e514a43e3da52,TCN,2024-06-25_11h40.01.388,LearnStrategy,2023.2.3,Win32,60.60606061,4,1,6,0.067592621,-0.001851859,1,0,0,0.6462,rock_grid_rect_2,6,05,-1,-1,0.646,-0.112962935,-0.390740783,1,0,0,1.0431,Pegmatite_rect,6,1.043,1,5,0,5,0,1,,,,,,,,,,,,,
665a3e3f103e514a43e3da52,TCN,2024-06-25_11h40.01.388,LearnStrategy,2023.2.3,Win32,60.60606061,4,1,7,0.112963005,-0.01203703,1,0,0,0.5136,rock_grid_rect_2,3,10,-1,-1,0.514,0.170370384,-0.409259302,1,0,0,1.5913,Peridotite_rect,7,1.591,0,6,0,6,0,1,,,,,,,,,,,,,
665a3e3f103e514a43e3da52,TCN,2024-06-25_11h40.01.388,LearnStrategy,2023.2.3,Win32,60.60606061,4,1,8,0.141666695,0.008333312,1,0,0,0.6303,rock_grid_rect_2,1,14,-1,-1,0.63,-0.102777764,-0.405555584,1,0,0,1.7909,Pegmatite_rect,6,1.791,0,7,0,7,0,1,,,,,,,,,,,,,
665a3e3f103e514a43e3da52,TCN,2024-06-25_11h40.01.388,LearnStrategy,2023.2.3,Win32,60.60606061,4,1,9,0.12962963,0.01203703,1,0,0,0.6637,rock_grid_rect_2,7,04,-1,-1,0.664,0.183333362,-0.416666667,1,0,0,2.1234,Peridotite_rect,7,2.123,1,8,0,8,0,1,,,,,,,,,,,,,
665a3e3f103e514a43e3da52,TCN,2024-06-25_11h40.01.388,LearnStrategy,2023.2.3,Win32,60.60606061,4,1,10,0.128703718,0.003703683,1,0,0,0.6129,rock_grid_rect_2,7,08,-1,-1,0.613,0.147222236,-0.412962949,1,0,0,1.1912,Peridotite_rect,7,1.191,1,9,0,9,0,1,,,,,,,,,,,,,
665a3e3f103e514a43e3da52,TCN,2024-06-25_11h40.01.388,LearnStrategy,2023.2.3,Win32,60.60606061,4,1,11,0.080555598,0.017592571,1,0,0,0.6624,rock_grid_rect_2,6,03,-1,-1,0.662,-0.106481481,-0.404629672,1,0,0,0.9438,Pegmatite_rect,6,0.944,1,10,0,10,0,1,,,,,,,,,,,,,
665a3e3f103e514a43e3da52,TCN,2024-06-25_11h40.01.388,LearnStrategy,2023.2.3,Win32,60.60606061,4,1,12,0.187037079,0.021296289,1,0,0,0.6132,rock_grid_rect_2,4,05,-1,-1,0.613,-0.400000007,-0.249074088,1,0,0,2.7218,Andesite_rect,1,2.722,0,11,0,11,0,1,,,,,,,,,,,,,
665a3e3f103e514a43e3da52,TCN,2024-06-25_11h40.01.388,LearnStrategy,2023.2.3,Win32,60.60606061,4,1,13,0.113888917,0.01203703,1,0,0,0.5961,rock_grid_rect_2,5,09,-1,-1,0.596,-0.347222222,-0.386111153,1,0,0,0.9093,Obsidian_rect,5,0.909,1,12,0,12,0,1,,,,,,,,,,,,,
665a3e3f103e514a43e3da52,TCN,2024-06-25_11h40.01.388,LearnStrategy,2023.2.3,Win32,60.60606061,4,1,14,0.156481496,0.00462963,1,0,0,0.6799,rock_grid_rect_2,8,04,-1,-1,0.68,0.380555612,-0.406481496,1,0,0,0.8931,Pumice_rect,8,0.893,1,13,0,13,0,1,,,,,,,,,,,,,
665a3e3f103e514a43e3da52,TCN,2024-06-25_11h40.01.388,LearnStrategy,2023.2.3,Win32,60.60606061,4,1,15,0.118518547,0.00462963,1,0,0,0.6131,rock_grid_rect_2,2,05,-1,-1,0.613,-0.113888847,-0.247222265,1,0,0,1.1928,Basalt_rect,2,1.193,1,14,0,14,0,1,,,,,,,,,,,,,
665a3e3f103e514a43e3da52,TCN,2024-06-25_11h40.01.388,LearnStrategy,2023.2.3,Win32,60.60606061,4,1,16,0.119444459,-0.001851859,1,0,0,0.597,rock_grid_rect_2,3,06,-1,-1,0.597,0.155555584,-0.241666653,1,0,0,2.788,Diorite_rect,3,2.788,1,15,0,15,0,1,,,,,,,,,,,,,
665a3e3f103e514a43e3da52,TCN,2024-06-25_11h40.01.388,LearnStrategy,2023.2.3,Win32,60.60606061,4,2,1,,,,,,,,8,15,,,,,,,,,,,8,0.955,1,,,,,,0.385185242,-0.391666695,1,0,0,0.9546,Pumice_rect,0,0,0,0,1,
665a3e3f103e514a43e3da52,TCN,2024-06-25_11h40.01.388,LearnStrategy,2023.2.3,Win32,60.60606061,4,2,2,,,,,,,,1,05,,,,,,,,,,,3,3.882,0,,,,,,0.161111125,-0.237037023,1,0,0,3.8824,Diorite_rect,1,0,1,0,1,
665a3e3f103e514a43e3da52,TCN,2024-06-25_11h40.01.388,LearnStrategy,2023.2.3,Win32,60.60606061,4,2,3,,,,,,,,7,16,,,,,,,,,,,7,3.685,1,,,,,,0.168518561,-0.414814843,1,0,0,3.6846,Peridotite_rect,2,0,2,0,1,
665a3e3f103e514a43e3da52,TCN,2024-06-25_11h40.01.388,LearnStrategy,2023.2.3,Win32,60.60606061,4,2,4,,,,,,,,5,06,,,,,,,,,,,5,1.153,1,,,,,,-0.380555541,-0.386111153,1,0,0,1.1526,Obsidian_rect,3,0,3,0,1,
665a3e3f103e514a43e3da52,TCN,2024-06-25_11h40.01.388,LearnStrategy,2023.2.3,Win32,60.60606061,4,2,5,,,,,,,,4,09,,,,,,,,,,,2,2.489,0,,,,,,-0.123148106,-0.247222265,1,0,0,2.489,Basalt_rect,4,0,4,0,1,
665a3e3f103e514a43e3da52,TCN,2024-06-25_11h40.01.388,LearnStrategy,2023.2.3,Win32,60.60606061,4,2,6,,,,,,,,4,13,,,,,,,,,,,1,3.099,0,,,,,,-0.361111111,-0.259259259,1,0,0,3.0991,Andesite_rect,5,0,5,0,1,
665a3e3f103e514a43e3da52,TCN,2024-06-25_11h40.01.388,LearnStrategy,2023.2.3,Win32,60.60606061,4,2,7,,,,,,,,7,10,,,,,,,,,,,7,1.104,1,,,,,,0.165740755,-0.395370413,1,0,0,1.1039,Peridotite_rect,6,0,6,0,1,
665a3e3f103e514a43e3da52,TCN,2024-06-25_11h40.01.388,LearnStrategy,2023.2.3,Win32,60.60606061,4,2,8,,,,,,,,5,16,,,,,,,,,,,5,0.971,1,,,,,,-0.3675926,-0.401851866,1,0,0,0.971,Obsidian_rect,7,0,7,0,1,
665a3e3f103e514a43e3da52,TCN,2024-06-25_11h40.01.388,LearnStrategy,2023.2.3,Win32,60.60606061,4,2,9,,,,,,,,2,16,,,,,,,,,,,2,2.035,1,,,,,,-0.091666681,-0.25462963,1,0,0,2.0355,Basalt_rect,8,0,8,0,1,
665a3e3f103e514a43e3da52,TCN,2024-06-25_11h40.01.388,LearnStrategy,2023.2.3,Win32,60.60606061,4,2,10,,,,,,,,8,06,,,,,,,,,,,8,0.827,1,,,,,,0.37962963,-0.410185213,1,0,0,0.8267,Pumice_rect,9,0,9,0,1,
665a3e3f103e514a43e3da52,TCN,2024-06-25_11h40.01.388,LearnStrategy,2023.2.3,Win32,60.60606061,4,2,11,,,,,,,,2,11,,,,,,,,,,,4,1.692,0,,,,,,0.424074102,-0.25,1,0,0,1.6925,Gabbro_rect,10,0,10,0,1,
665a3e3f103e514a43e3da52,TCN,2024-06-25_11h40.01.388,LearnStrategy,2023.2.3,Win32,60.60606061,4,2,12,,,,,,,,3,13,,,,,,,,,,,3,3.173,1,,,,,,0.131481524,-0.250925912,1,0,0,3.173,Diorite_rect,11,0,11,0,1,
665a3e3f103e514a43e3da52,TCN,2024-06-25_11h40.01.388,LearnStrategy,2023.2.3,Win32,60.60606061,4,2,13,,,,,,,,1,10,,,,,,,,,,,4,5.526,0,,,,,,0.428703732,-0.262037065,1,0,0,5.5257,Gabbro_rect,12,0,12,0,1,
665a3e3f103e514a43e3da52,TCN,2024-06-25_11h40.01.388,LearnStrategy,2023.2.3,Win32,60.60606061,4,2,14,,,,,,,,6,10,,,,,,,,,,,6,1.13,1,,,,,,-0.099999958,-0.408333319,1,0,0,1.13,Pegmatite_rect,13,0,13,0,1,
665a3e3f103e514a43e3da52,TCN,2024-06-25_11h40.01.388,LearnStrategy,2023.2.3,Win32,60.60606061,4,2,15,,,,,,,,6,12,,,,,,,,,,,6,2.369,1,,,,,,-0.139814801,-0.412962949,1,0,0,2.369,Pegmatite_rect,14,0,14,0,1,
665a3e3f103e514a43e3da52,TCN,2024-06-25_11h40.01.388,LearnStrategy,2023.2.3,Win32,60.60606061,4,2,16,,,,,,,,3,12,,,,,,,,,,,7,1.554,0,,,,,,0.15370369,-0.410185213,1,0,0,1.5539,Peridotite_rect,15,0,15,0,1,
665a3e3f103e514a43e3da52,TCN,2024-06-25_11h40.01.388,LearnStrategy,2023.2.3,Win32,60.60606061,5,1,1,0.100000028,-0.012962977,1,0,0,0.9504,rock_grid_rect_2,2,06,-1,-1,0.95,-0.088888875,-0.255555541,1,0,0,1.5603,Basalt_rect,2,1.56,1,0,0,0,0,1,,,,,,,,,,,,,
665a3e3f103e514a43e3da52,TCN,2024-06-25_11h40.01.388,LearnStrategy,2023.2.3,Win32,60.60606061,5,1,2,0.184259273,0.01666666,1,0,0,0.7953,rock_grid_rect_2,4,03,-1,-1,0.795,-0.414814808,-0.233333376,1,0,0,3.2593,Andesite_rect,1,3.259,0,1,0,1,0,1,,,,,,,,,,,,,
665a3e3f103e514a43e3da52,TCN,2024-06-25_11h40.01.388,LearnStrategy,2023.2.3,Win32,60.60606061,5,1,3,0.079629616,0.01203703,1,0,0,0.7659,rock_grid_rect_2,8,13,-1,-1,0.766,0.385185242,-0.400000042,1,0,0,1.2933,Pumice_rect,8,1.293,1,2,0,2,0,1,,,,,,,,,,,,,
665a3e3f103e514a43e3da52,TCN,2024-06-25_11h40.01.388,LearnStrategy,2023.2.3,Win32,60.60606061,5,1,4,0.134259259,0.008333312,1,0,0,0.6816,rock_grid_rect_2,5,14,-1,-1,0.682,-0.337037016,-0.400000042,1,0,0,0.897,Obsidian_rect,5,0.897,1,3,0,3,0,1,,,,,,,,,,,,,
665a3e3f103e514a43e3da52,TCN,2024-06-25_11h40.01.388,LearnStrategy,2023.2.3,Win32,60.60606061,5,1,5,0.135185171,0.010185171,1,0,0,0.6659,rock_grid_rect_2,1,04,-1,-1,0.666,-0.383333312,-0.248148176,1,0,0,2.1908,Andesite_rect,1,2.191,1,4,0,4,0,1,,,,,,,,,,,,,
665a3e3f103e514a43e3da52,TCN,2024-06-25_11h40.01.388,LearnStrategy,2023.2.3,Win32,60.60606061,5,1,6,0.117592635,0.013888889,1,0,0,0.6092,rock_grid_rect_2,8,03,-1,-1,0.609,0.432407379,-0.407407407,1,0,0,0.999,Pumice_rect,8,0.999,1,5,0,5,0,1,,,,,,,,,,,,,
665a3e3f103e514a43e3da52,TCN,2024-06-25_11h40.01.388,LearnStrategy,2023.2.3,Win32,60.60606061,5,1,7,0.10555557,0.009259259,1,0,0,0.6279,rock_grid_rect_2,4,14,-1,-1,0.628,0.417592649,-0.255555541,1,0,0,2.8613,Gabbro_rect,4,2.861,1,6,0,6,0,1,,,,,,,,,,,,,
665a3e3f103e514a43e3da52,TCN,2024-06-25_11h40.01.388,LearnStrategy,2023.2.3,Win32,60.60606061,5,1,8,0.125,-0.005555577,1,0,0,0.5328,rock_grid_rect_2,2,14,-1,-1,0.533,-0.074999986,-0.256481524,1,0,0,1.6764,Basalt_rect,2,1.676,1,7,0,7,0,1,,,,,,,,,,,,,
665a3e3f103e514a43e3da52,TCN,2024-06-25_11h40.01.388,LearnStrategy,2023.2.3,Win32,60.60606061,5,1,9,0.141666695,-0.013888889,1,0,0,0.5987,rock_grid_rect_2,1,01,-1,-1,0.599,-0.366666653,-0.233333376,1,0,0,3.7382,Andesite_rect,1,3.738,1,8,0,8,0,1,,,,,,,,,,,,,
665a3e3f103e514a43e3da52,TCN,2024-06-25_11h40.01.388,LearnStrategy,2023.2.3,Win32,60.60606061,5,1,10,0.147222236,0.005555541,1,0,0,0.7125,rock_grid_rect_2,5,11,-1,-1,0.712,-0.380555541,-0.385185171,1,0,0,1.0163,Obsidian_rect,5,1.016,1,9,0,9,0,1,,,,,,,,,,,,,
665a3e3f103e514a43e3da52,TCN,2024-06-25_11h40.01.388,LearnStrategy,2023.2.3,Win32,60.60606061,5,1,11,0.130555541,0.020370377,1,0,0,0.7157,rock_grid_rect_2,3,09,-1,-1,0.716,0.429629714,-0.262962977,1,0,0,1.7602,Gabbro_rect,4,1.76,0,10,0,10,0,1,,,,,,,,,,,,,
665a3e3f103e514a43e3da52,TCN,2024-06-25_11h40.01.388,LearnStrategy,2023.2.3,Win32,60.60606061,5,1,12,0.14444443,-0.00462963,1,0,0,0.6511,rock_grid_rect_2,6,09,-1,-1,0.651,-0.102777764,-0.408333319,1,0,0,1.0278,Pegmatite_rect,6,1.028,1,11,0,11,0,1,,,,,,,,,,,,,
665a3e3f103e514a43e3da52,TCN,2024-06-25_11h40.01.388,LearnStrategy,2023.2.3,Win32,60.60606061,5,1,13,0.158333319,-0.006481489,1,0,0,0.6649,rock_grid_rect_2,6,11,-1,-1,0.665,-0.093518504,-0.414814843,1,0,0,0.9123,Pegmatite_rect,6,0.912,1,12,0,12,0,1,,,,,,,,,,,,,
665a3e3f103e514a43e3da52,TCN,2024-06-25_11h40.01.388,LearnStrategy,2023.2.3,Win32,60.60606061,5,1,14,0.164814843,-0.008333347,1,0,0,0.6827,rock_grid_rect_2,7,12,-1,-1,0.683,0.200925968,-0.393518519,1,0,0,1.0959,Peridotite_rect,7,1.096,1,13,0,13,0,1,,,,,,,,,,,,,
665a3e3f103e514a43e3da52,TCN,2024-06-25_11h40.01.388,LearnStrategy,2023.2.3,Win32,60.60606061,5,1,15,0.114814829,-0.00462963,1,0,0,0.7526,rock_grid_rect_2,7,15,-1,-1,0.753,0.188888903,-0.410185213,1,0,0,0.8785,Peridotite_rect,7,0.878,1,14,0,14,0,1,,,,,,,,,,,,,
665a3e3f103e514a43e3da52,TCN,2024-06-25_11h40.01.388,LearnStrategy,2023.2.3,Win32,60.60606061,5,1,16,0.147222236,0.009259259,1,0,0,0.6527,rock_grid_rect_2,3,08,-1,-1,0.653,-0.364814794,-0.256481524,1,0,0,1.9086,Andesite_rect,1,1.909,0,15,0,15,0,1,,,,,,,,,,,,,
665a3e3f103e514a43e3da52,TCN,2024-06-25_11h40.01.388,LearnStrategy,2023.2.3,Win32,60.60606061,5,2,1,,,,,,,,3,14,,,,,,,,,,,3,2.094,1,,,,,,0.161111125,-0.244444459,1,0,0,2.0937,Diorite_rect,0,0,0,0,1,
665a3e3f103e514a43e3da52,TCN,2024-06-25_11h40.01.388,LearnStrategy,2023.2.3,Win32,60.60606061,5,2,2,,,,,,,,5,04,,,,,,,,,,,5,1.027,1,,,,,,-0.37037037,-0.395370413,1,0,0,1.0267,Obsidian_rect,1,0,1,0,1,
665a3e3f103e514a43e3da52,TCN,2024-06-25_11h40.01.388,LearnStrategy,2023.2.3,Win32,60.60606061,5,2,3,,,,,,,,1,03,,,,,,,,,,,1,6.993,1,,,,,,-0.385185171,-0.242592635,1,0,0,6.9926,Andesite_rect,2,0,2,0,1,
665a3e3f103e514a43e3da52,TCN,2024-06-25_11h40.01.388,LearnStrategy,2023.2.3,Win32,60.60606061,5,2,4,,,,,,,,7,06,,,,,,,,,,,6,1.112,0,,,,,,-0.099999958,-0.405555584,1,0,0,1.1118,Pegmatite_rect,3,0,3,0,1,
665a3e3f103e514a43e3da52,TCN,2024-06-25_11h40.01.388,LearnStrategy,2023.2.3,Win32,60.60606061,5,2,5,,,,,,,,8,14,,,,,,,,,,,8,0.949,1,,,,,,0.40833339,-0.408333319,1,0,0,0.9493,Pumice_rect,4,0,4,0,1,
665a3e3f103e514a43e3da52,TCN,2024-06-25_11h40.01.388,LearnStrategy,2023.2.3,Win32,60.60606061,5,2,6,,,,,,,,3,07,,,,,,,,,,,3,2.725,1,,,,,,0.146296325,-0.253703718,1,0,0,2.725,Diorite_rect,5,0,5,0,1,
665a3e3f103e514a43e3da52,TCN,2024-06-25_11h40.01.388,LearnStrategy,2023.2.3,Win32,60.60606061,5,2,7,,,,,,,,6,06,,,,,,,,,,,6,1.185,1,,,,,,-0.087962963,-0.393518519,1,0,0,1.1847,Pegmatite_rect,6,0,6,0,1,
665a3e3f103e514a43e3da52,TCN,2024-06-25_11h40.01.388,LearnStrategy,2023.2.3,Win32,60.60606061,5,2,8,,,,,,,,1,16,,,,,,,,,,,3,2.817,0,,,,,,0.167592578,-0.247222265,1,0,0,2.8173,Diorite_rect,7,0,7,0,1,
665a3e3f103e514a43e3da52,TCN,2024-06-25_11h40.01.388,LearnStrategy,2023.2.3,Win32,60.60606061,5,2,9,,,,,,,,4,15,,,,,,,,,,,1,1.987,0,,,,,,-0.39907406,-0.246296282,1,0,0,1.9875,Andesite_rect,8,0,8,0,1,
665a3e3f103e514a43e3da52,TCN,2024-06-25_11h40.01.388,LearnStrategy,2023.2.3,Win32,60.60606061,5,2,10,,,,,,,,5,12,,,,,,,,,,,5,1.009,1,,,,,,-0.39444443,-0.404629672,1,0,0,1.0092,Obsidian_rect,9,0,9,0,1,
665a3e3f103e514a43e3da52,TCN,2024-06-25_11h40.01.388,LearnStrategy,2023.2.3,Win32,60.60606061,5,2,11,,,,,,,,2,02,,,,,,,,,,,2,2.059,1,,,,,,-0.133333347,-0.248148176,1,0,0,2.0586,Basalt_rect,10,0,10,0,1,
665a3e3f103e514a43e3da52,TCN,2024-06-25_11h40.01.388,LearnStrategy,2023.2.3,Win32,60.60606061,5,2,12,,,,,,,,7,13,,,,,,,,,,,7,1.985,1,,,,,,0.175925926,-0.418518561,1,0,0,1.9848,Peridotite_rect,11,0,11,0,1,
665a3e3f103e514a43e3da52,TCN,2024-06-25_11h40.01.388,LearnStrategy,2023.2.3,Win32,60.60606061,5,2,13,,,,,,,,4,11,,,,,,,,,,,2,1.364,0,,,,,,-0.118518476,-0.26944443,1,0,0,1.364,Basalt_rect,12,0,12,0,1,
665a3e3f103e514a43e3da52,TCN,2024-06-25_11h40.01.388,LearnStrategy,2023.2.3,Win32,60.60606061,5,2,14,,,,,,,,6,13,,,,,,,,,,,6,2.086,1,,,,,,-0.115740741,-0.407407407,1,0,0,2.0863,Pegmatite_rect,13,0,13,0,1,
665a3e3f103e514a43e3da52,TCN,2024-06-25_11h40.01.388,LearnStrategy,2023.2.3,Win32,60.60606061,5,2,15,,,,,,,,8,02,,,,,,,,,,,8,1.134,1,,,,,,0.399074131,-0.404629672,1,0,0,1.1344,Pumice_rect,14,0,14,0,1,
665a3e3f103e514a43e3da52,TCN,2024-06-25_11h40.01.388,LearnStrategy,2023.2.3,Win32,60.60606061,5,2,16,,,,,,,,2,10,,,,,,,,,,,2,2.267,1,,,,,,-0.115740741,-0.252777806,1,0,0,2.267,Basalt_rect,15,0,15,0,1,
665a3e3f103e514a43e3da52,TCN,2024-06-25_11h40.01.388,LearnStrategy,2023.2.3,Win32,60.60606061,6,1,1,0.179629644,0.01203703,1,0,0,1.0777,rock_grid_rect_2,4,16,-1,-1,1.078,-0.047222208,-0.25,1,0,0,1.2086,Basalt_rect,2,1.209,0,0,0,0,0,1,,,,,,,,,,,,,
665a3e3f103e514a43e3da52,TCN,2024-06-25_11h40.01.388,LearnStrategy,2023.2.3,Win32,60.60606061,6,1,2,0.098148134,0.011111118,1,0,0,0.7128,rock_grid_rect_2,4,10,-1,-1,0.713,-0.10092594,-0.236111111,1,0,0,1.0097,Basalt_rect,2,1.01,0,1,0,1,0,1,,,,,,,,,,,,,
665a3e3f103e514a43e3da52,TCN,2024-06-25_11h40.01.388,LearnStrategy,2023.2.3,Win32,60.60606061,6,1,3,0.071296339,0.01944443,1,0,0,0.6296,rock_grid_rect_2,3,16,-1,-1,0.63,-0.442592586,-0.251851894,1,0,0,1.7908,Andesite_rect,1,1.791,0,2,0,2,0,1,,,,,,,,,,,,,
665a3e3f103e514a43e3da52,TCN,2024-06-25_11h40.01.388,LearnStrategy,2023.2.3,Win32,60.60606061,6,1,4,0.117592635,0.018518519,1,0,0,0.6641,rock_grid_rect_2,8,09,-1,-1,0.664,0.37037037,-0.392592607,1,0,0,1.0266,Pumice_rect,8,1.027,1,3,0,3,0,1,,,,,,,,,,,,,
665a3e3f103e514a43e3da52,TCN,2024-06-25_11h40.01.388,LearnStrategy,2023.2.3,Win32,60.60606061,6,1,5,0.150000042,0.018518519,1,0,0,0.6796,rock_grid_rect_2,1,02,-1,-1,0.68,0.151851866,-0.239814829,1,0,0,1.9409,Diorite_rect,3,1.941,0,4,0,4,0,1,,,,,,,,,,,,,
665a3e3f103e514a43e3da52,TCN,2024-06-25_11h40.01.388,LearnStrategy,2023.2.3,Win32,60.60606061,6,1,6,0.139814801,0.010185171,1,0,0,0.6637,rock_grid_rect_2,2,12,-1,-1,0.664,0.385185242,-0.407407407,1,0,0,1.7246,Pumice_rect,8,1.725,0,5,0,5,0,1,,,,,,,,,,,,,
665a3e3f103e514a43e3da52,TCN,2024-06-25_11h40.01.388,LearnStrategy,2023.2.3,Win32,60.60606061,6,1,7,0.165740755,0.002777771,1,0,0,0.697,rock_grid_rect_2,1,11,-1,-1,0.697,0.139814801,-0.232407393,1,0,0,3.3035,Diorite_rect,3,3.303,0,6,0,6,0,1,,,,,,,,,,,,,
665a3e3f103e514a43e3da52,TCN,2024-06-25_11h40.01.388,LearnStrategy,2023.2.3,Win32,60.60606061,6,1,8,0.125925912,0.01203703,1,0,0,0.7132,rock_grid_rect_2,5,07,-1,-1,0.713,-0.448148127,-0.413888931,1,0,0,0.976,Obsidian_rect,5,0.976,1,7,0,7,0,1,,,,,,,,,,,,,
665a3e3f103e514a43e3da52,TCN,2024-06-25_11h40.01.388,LearnStrategy,2023.2.3,Win32,60.60606061,6,1,9,0.165740755,0.020370377,1,0,0,0.6799,rock_grid_rect_2,3,15,-1,-1,0.68,0.150000042,-0.247222265,1,0,0,1.2757,Diorite_rect,3,1.276,1,8,0,8,0,1,,,,,,,,,,,,,
665a3e3f103e514a43e3da52,TCN,2024-06-25_11h40.01.388,LearnStrategy,2023.2.3,Win32,60.60606061,6,1,10,0.124074088,0.014814801,1,0,0,0.7796,rock_grid_rect_2,6,08,-1,-1,0.78,-0.064814815,-0.39907406,1,0,0,1.0762,Pegmatite_rect,6,1.076,1,9,0,9,0,1,,,,,,,,,,,,,
665a3e3f103e514a43e3da52,TCN,2024-06-25_11h40.01.388,LearnStrategy,2023.2.3,Win32,60.60606061,6,1,11,0.152777778,0.0074074,1,0,0,0.8295,rock_grid_rect_2,5,08,-1,-1,0.83,-0.446296303,-0.400925954,1,0,0,0.9929,Obsidian_rect,5,0.993,1,10,0,10,0,1,,,,,,,,,,,,,
665a3e3f103e514a43e3da52,TCN,2024-06-25_11h40.01.388,LearnStrategy,2023.2.3,Win32,60.60606061,6,1,12,0.152777778,0.02407406,1,0,0,0.5634,rock_grid_rect_2,8,10,-1,-1,0.563,0.373148176,-0.400000042,1,0,0,1.1761,Pumice_rect,8,1.176,1,11,0,11,0,1,,,,,,,,,,,,,
665a3e3f103e514a43e3da52,TCN,2024-06-25_11h40.01.388,LearnStrategy,2023.2.3,Win32,60.60606061,6,1,13,0.141666695,0.012962942,1,0,0,0.6297,rock_grid_rect_2,7,07,-1,-1,0.63,0.157407407,-0.407407407,1,0,0,1.4418,Peridotite_rect,7,1.442,1,12,0,12,0,1,,,,,,,,,,,,,
665a3e3f103e514a43e3da52,TCN,2024-06-25_11h40.01.388,LearnStrategy,2023.2.3,Win32,60.60606061,6,1,14,0.175000014,0.003703683,1,0,0,0.5966,rock_grid_rect_2,2,09,-1,-1,0.597,-0.061111097,-0.237037023,1,0,0,1.2591,Basalt_rect,2,1.259,1,13,0,13,0,1,,,,,,,,,,,,,
665a3e3f103e514a43e3da52,TCN,2024-06-25_11h40.01.388,LearnStrategy,2023.2.3,Win32,60.60606061,6,1,15,0.14444443,0.001851859,1,0,0,0.5966,rock_grid_rect_2,7,02,-1,-1,0.597,0.172222208,-0.407407407,1,0,0,0.9762,Peridotite_rect,7,0.976,1,14,0,14,0,1,,,,,,,,,,,,,
665a3e3f103e514a43e3da52,TCN,2024-06-25_11h40.01.388,LearnStrategy,2023.2.3,Win32,60.60606061,6,1,16,0.15370369,0.009259259,1,0,0,0.5466,rock_grid_rect_2,6,16,-1,-1,0.547,-0.068518533,-0.400925954,1,0,0,1.01,Pegmatite_rect,6,1.01,1,15,0,15,0,1,,,,,,,,,,,,,
665a3e3f103e514a43e3da52,TCN,2024-06-25_11h40.01.388,LearnStrategy,2023.2.3,Win32,60.60606061,6,2,1,,,,,,,,1,07,,,,,,,,,,,3,1.718,0,,,,,,0.151851866,-0.237037023,1,0,0,1.7184,Diorite_rect,0,0,0,0,1,
665a3e3f103e514a43e3da52,TCN,2024-06-25_11h40.01.388,LearnStrategy,2023.2.3,Win32,60.60606061,6,2,2,,,,,,,,7,14,,,,,,,,,,,7,2.486,1,,,,,,0.162962949,-0.412037037,1,0,0,2.4855,Peridotite_rect,1,0,1,0,1,
665a3e3f103e514a43e3da52,TCN,2024-06-25_11h40.01.388,LearnStrategy,2023.2.3,Win32,60.60606061,6,2,3,,,,,,,,4,01,,,,,,,,,,,1,3.791,0,,,,,,-0.414814808,-0.257407436,1,0,0,3.7906,Andesite_rect,2,0,2,0,1,
665a3e3f103e514a43e3da52,TCN,2024-06-25_11h40.01.388,LearnStrategy,2023.2.3,Win32,60.60606061,6,2,4,,,,,,,,6,15,,,,,,,,,,,6,1.015,1,,,,,,-0.087962963,-0.409259302,1,0,0,1.0152,Pegmatite_rect,3,0,3,0,1,
665a3e3f103e514a43e3da52,TCN,2024-06-25_11h40.01.388,LearnStrategy,2023.2.3,Win32,60.60606061,6,2,5,,,,,,,,3,02,,,,,,,,,,,3,2.852,1,,,,,,0.159259302,-0.236111111,1,0,0,2.8521,Diorite_rect,4,0,4,0,1,
665a3e3f103e514a43e3da52,TCN,2024-06-25_11h40.01.388,LearnStrategy,2023.2.3,Win32,60.60606061,6,2,6,,,,,,,,3,11,,,,,,,,,,,3,0.822,1,,,,,,0.163888931,-0.235185199,1,0,0,0.8218,Diorite_rect,5,0,5,0,1,
665a3e3f103e514a43e3da52,TCN,2024-06-25_11h40.01.388,LearnStrategy,2023.2.3,Win32,60.60606061,6,2,7,,,,,,,,4,12,,,,,,,,,,,2,1.386,0,,,,,,-0.071296268,-0.247222265,1,0,0,1.386,Basalt_rect,6,0,6,0,1,
665a3e3f103e514a43e3da52,TCN,2024-06-25_11h40.01.388,LearnStrategy,2023.2.3,Win32,60.60606061,6,2,8,,,,,,,,6,07,,,,,,,,,,,6,1.036,1,,,,,,-0.083333333,-0.385185171,1,0,0,1.0361,Pegmatite_rect,7,0,7,0,1,
665a3e3f103e514a43e3da52,TCN,2024-06-25_11h40.01.388,LearnStrategy,2023.2.3,Win32,60.60606061,6,2,9,,,,,,,,7,05,,,,,,,,,,,7,1.219,1,,,,,,0.175000014,-0.411111125,1,0,0,1.2193,Peridotite_rect,8,0,8,0,1,
665a3e3f103e514a43e3da52,TCN,2024-06-25_11h40.01.388,LearnStrategy,2023.2.3,Win32,60.60606061,6,2,10,,,,,,,,1,06,,,,,,,,,,,1,1.735,1,,,,,,-0.443518497,-0.262037065,1,0,0,1.7345,Andesite_rect,9,0,9,0,1,
665a3e3f103e514a43e3da52,TCN,2024-06-25_11h40.01.388,LearnStrategy,2023.2.3,Win32,60.60606061,6,2,11,,,,,,,,5,05,,,,,,,,,,,5,1.017,1,,,,,,-0.452777757,-0.40370369,1,0,0,1.0171,Obsidian_rect,10,0,10,0,1,
665a3e3f103e514a43e3da52,TCN,2024-06-25_11h40.01.388,LearnStrategy,2023.2.3,Win32,60.60606061,6,2,12,,,,,,,,8,08,,,,,,,,,,,8,1.019,1,,,,,,0.389814871,-0.417592578,1,0,0,1.0194,Pumice_rect,11,0,11,0,1,
665a3e3f103e514a43e3da52,TCN,2024-06-25_11h40.01.388,LearnStrategy,2023.2.3,Win32,60.60606061,6,2,13,,,,,,,,2,01,,,,,,,,,,,2,1.969,1,,,,,,-0.058333291,-0.242592635,1,0,0,1.9694,Basalt_rect,12,0,12,0,1,
665a3e3f103e514a43e3da52,TCN,2024-06-25_11h40.01.388,LearnStrategy,2023.2.3,Win32,60.60606061,6,2,14,,,,,,,,5,10,,,,,,,,,,,5,1.004,1,,,,,,-0.479629623,-0.396296325,1,0,0,1.0042,Obsidian_rect,13,0,13,0,1,
665a3e3f103e514a43e3da52,TCN,2024-06-25_11h40.01.388,LearnStrategy,2023.2.3,Win32,60.60606061,6,2,15,,,,,,,,8,05,,,,,,,,,,,8,1.086,1,,,,,,0.387037065,-0.40370369,1,0,0,1.0857,Pumice_rect,14,0,14,0,1,
665a3e3f103e514a43e3da52,TCN,2024-06-25_11h40.01.388,LearnStrategy,2023.2.3,Win32,60.60606061,6,2,16,,,,,,,,2,04,,,,,,,,,,,2,1.286,1,,,,,,-0.077777792,-0.253703718,1,0,0,1.2856,Basalt_rect,15,0,15,0,1,
665a3e3f103e514a43e3da52,TCN,2024-06-25_11h40.01.388,LearnStrategy,2023.2.3,Win32,60.60606061,7,1,1,0.145370413,-0.000925947,1,0,0,0.7292,rock_grid_rect_2,7,12,-1,-1,0.729,0.164814843,-0.235185199,1,0,0,3.9847,Diorite_rect,3,3.985,0,0,0,0,0,1,,,,,,,,,,,,,
665a3e3f103e514a43e3da52,TCN,2024-06-25_11h40.01.388,LearnStrategy,2023.2.3,Win32,60.60606061,7,1,2,0.166666667,0.022222201,1,0,0,0.6294,rock_grid_rect_2,4,16,-1,-1,0.629,-0.061111097,-0.239814829,1,0,0,1.1253,Basalt_rect,2,1.125,0,1,0,1,0,1,,,,,,,,,,,,,
665a3e3f103e514a43e3da52,TCN,2024-06-25_11h40.01.388,LearnStrategy,2023.2.3,Win32,60.60606061,7,1,3,0.175000014,0.020370377,1,0,0,0.6465,rock_grid_rect_2,3,09,-1,-1,0.646,0.165740755,-0.247222265,1,0,0,1.8741,Diorite_rect,3,1.874,1,2,0,2,0,1,,,,,,,,,,,,,
665a3e3f103e514a43e3da52,TCN,2024-06-25_11h40.01.388,LearnStrategy,2023.2.3,Win32,60.60606061,7,1,4,0.165740755,-0.001851859,1,0,0,1.2453,rock_grid_rect_2,3,15,-1,-1,1.245,0.168518561,-0.241666653,1,0,0,0.8607,Diorite_rect,3,0.861,1,3,0,3,0,1,,,,,,,,,,,,,
665a3e3f103e514a43e3da52,TCN,2024-06-25_11h40.01.388,LearnStrategy,2023.2.3,Win32,60.60606061,7,1,5,0.155555584,0.003703683,1,0,0,0.4969,rock_grid_rect_2,8,10,-1,-1,0.497,0.385185242,-0.410185213,1,0,0,0.9435,Pumice_rect,8,0.943,1,4,0,4,0,1,,,,,,,,,,,,,
665a3e3f103e514a43e3da52,TCN,2024-06-25_11h40.01.388,LearnStrategy,2023.2.3,Win32,60.60606061,7,1,6,0.154629672,0.015740748,1,0,0,0.6138,rock_grid_rect_2,2,08,-1,-1,0.614,-0.070370356,-0.228703746,1,0,0,1.1429,Basalt_rect,2,1.143,1,5,0,5,0,1,,,,,,,,,,,,,
665a3e3f103e514a43e3da52,TCN,2024-06-25_11h40.01.388,LearnStrategy,2023.2.3,Win32,60.60606061,7,1,7,0.110185199,0.010185171,1,0,0,0.4629,rock_grid_rect_2,8,13,-1,-1,0.463,0.40370376,-0.408333319,1,0,0,1.9905,Pumice_rect,8,1.99,1,6,0,6,0,1,,,,,,,,,,,,,
665a3e3f103e514a43e3da52,TCN,2024-06-25_11h40.01.388,LearnStrategy,2023.2.3,Win32,60.60606061,7,1,8,0.112037023,0.0074074,1,0,0,0.4812,rock_grid_rect_2,5,14,-1,-1,0.481,-0.336111104,-0.386111153,1,0,0,1.0592,Obsidian_rect,5,1.059,1,7,0,7,0,1,,,,,,,,,,,,,
665a3e3f103e514a43e3da52,TCN,2024-06-25_11h40.01.388,LearnStrategy,2023.2.3,Win32,60.60606061,7,1,9,0.140740783,0.018518519,1,0,0,0.5309,rock_grid_rect_2,7,15,-1,-1,0.531,0.173148191,-0.39444443,1,0,0,0.9765,Peridotite_rect,7,0.977,1,8,0,8,0,1,,,,,,,,,,,,,
665a3e3f103e514a43e3da52,TCN,2024-06-25_11h40.01.388,LearnStrategy,2023.2.3,Win32,60.60606061,7,1,10,0.143518519,0.01666666,1,0,0,0.5136,rock_grid_rect_2,1,14,-1,-1,0.514,-0.427777785,-0.253703718,1,0,0,2.5557,Andesite_rect,1,2.556,1,9,0,9,0,1,,,,,,,,,,,,,
665a3e3f103e514a43e3da52,TCN,2024-06-25_11h40.01.388,LearnStrategy,2023.2.3,Win32,60.60606061,7,1,11,0.140740783,0.018518519,1,0,0,0.6302,rock_grid_rect_2,6,16,-1,-1,0.63,-0.089814787,-0.409259302,1,0,0,0.9431,Pegmatite_rect,6,0.943,1,10,0,10,0,1,,,,,,,,,,,,,
665a3e3f103e514a43e3da52,TCN,2024-06-25_11h40.01.388,LearnStrategy,2023.2.3,Win32,60.60606061,7,1,12,0.137962977,0.005555541,1,0,0,0.5481,rock_grid_rect_2,6,11,-1,-1,0.548,-0.069444444,-0.407407407,1,0,0,0.9763,Pegmatite_rect,6,0.976,1,11,0,11,0,1,,,,,,,,,,,,,
665a3e3f103e514a43e3da52,TCN,2024-06-25_11h40.01.388,LearnStrategy,2023.2.3,Win32,60.60606061,7,1,13,0.151851866,0.008333312,1,0,0,0.4972,rock_grid_rect_2,2,05,-1,-1,0.497,-0.066666638,-0.239814829,1,0,0,1.2423,Basalt_rect,2,1.242,1,12,0,12,0,1,,,,,,,,,,,,,
665a3e3f103e514a43e3da52,TCN,2024-06-25_11h40.01.388,LearnStrategy,2023.2.3,Win32,60.60606061,7,1,14,0.10555557,0.0074074,1,0,0,0.4139,rock_grid_rect_2,1,11,-1,-1,0.414,0.165740755,-0.242592635,1,0,0,2.1901,Diorite_rect,3,2.19,0,13,0,13,0,1,,,,,,,,,,,,,
665a3e3f103e514a43e3da52,TCN,2024-06-25_11h40.01.388,LearnStrategy,2023.2.3,Win32,60.60606061,7,1,15,0.150000042,-0.003703718,1,0,0,0.5642,rock_grid_rect_2,5,08,-1,-1,0.564,-0.462962963,-0.400000042,1,0,0,0.9432,Obsidian_rect,5,0.943,1,14,0,14,0,1,,,,,,,,,,,,,
665a3e3f103e514a43e3da52,TCN,2024-06-25_11h40.01.388,LearnStrategy,2023.2.3,Win32,60.60606061,7,1,16,0.151851866,0.00462963,1,0,0,0.4971,rock_grid_rect_2,4,10,-1,-1,0.497,0.394444501,-0.266666695,1,0,0,1.9078,Gabbro_rect,4,1.908,1,15,0,15,0,1,,,,,,,,,,,,,
665a3e3f103e514a43e3da52,TCN,2024-06-25_11h40.01.388,LearnStrategy,2023.2.3,Win32,60.60606061,7,2,1,,,,,,,,6,07,,,,,,,,,,,6,1.487,1,,,,,,-0.081481439,-0.401851866,1,0,0,1.4871,Pegmatite_rect,0,0,0,0,1,
665a3e3f103e514a43e3da52,TCN,2024-06-25_11h40.01.388,LearnStrategy,2023.2.3,Win32,60.60606061,7,2,2,,,,,,,,6,13,,,,,,,,,,,1,4.267,0,,,,,,-0.417592578,-0.233333376,1,0,0,4.2672,Andesite_rect,1,0,1,0,1,
665a3e3f103e514a43e3da52,TCN,2024-06-25_11h40.01.388,LearnStrategy,2023.2.3,Win32,60.60606061,7,2,3,,,,,,,,4,09,,,,,,,,,,,4,2.184,1,,,,,,0.411111196,-0.244444459,1,0,0,2.1836,Gabbro_rect,2,0,2,0,1,
665a3e3f103e514a43e3da52,TCN,2024-06-25_11h40.01.388,LearnStrategy,2023.2.3,Win32,60.60606061,7,2,4,,,,,,,,5,04,,,,,,,,,,,5,0.889,1,,,,,,-0.453703704,-0.393518519,1,0,0,0.8893,Obsidian_rect,3,0,3,0,1,
665a3e3f103e514a43e3da52,TCN,2024-06-25_11h40.01.388,LearnStrategy,2023.2.3,Win32,60.60606061,7,2,5,,,,,,,,8,08,,,,,,,,,,,8,1.106,1,,,,,,0.416666667,-0.39907406,1,0,0,1.1059,Pumice_rect,4,0,4,0,1,
665a3e3f103e514a43e3da52,TCN,2024-06-25_11h40.01.388,LearnStrategy,2023.2.3,Win32,60.60606061,7,2,6,,,,,,,,8,05,,,,,,,,,,,8,1.02,1,,,,,,0.40833339,-0.395370413,1,0,0,1.0196,Pumice_rect,5,0,5,0,1,
665a3e3f103e514a43e3da52,TCN,2024-06-25_11h40.01.388,LearnStrategy,2023.2.3,Win32,60.60606061,7,2,7,,,,,,,,5,05,,,,,,,,,,,5,0.913,1,,,,,,-0.455555563,-0.397222236,1,0,0,0.9132,Obsidian_rect,6,0,6,0,1,
665a3e3f103e514a43e3da52,TCN,2024-06-25_11h40.01.388,LearnStrategy,2023.2.3,Win32,60.60606061,7,2,8,,,,,,,,2,16,,,,,,,,,,,2,1.258,1,,,,,,-0.087037051,-0.246296282,1,0,0,1.2585,Basalt_rect,7,0,7,0,1,
665a3e3f103e514a43e3da52,TCN,2024-06-25_11h40.01.388,LearnStrategy,2023.2.3,Win32,60.60606061,7,2,9,,,,,,,,7,14,,,,,,,,,,,7,1.54,1,,,,,,0.181481467,-0.402777778,1,0,0,1.54,Peridotite_rect,8,0,8,0,1,
665a3e3f103e514a43e3da52,TCN,2024-06-25_11h40.01.388,LearnStrategy,2023.2.3,Win32,60.60606061,7,2,10,,,,,,,,7,05,,,,,,,,,,,7,1.788,1,,,,,,0.181481467,-0.415740755,1,0,0,1.7881,Peridotite_rect,9,0,9,0,1,
665a3e3f103e514a43e3da52,TCN,2024-06-25_11h40.01.388,LearnStrategy,2023.2.3,Win32,60.60606061,7,2,11,,,,,,,,3,07,,,,,,,,,,,3,1.87,1,,,,,,0.169444473,-0.248148176,1,0,0,1.8703,Diorite_rect,10,0,10,0,1,
665a3e3f103e514a43e3da52,TCN,2024-06-25_11h40.01.388,LearnStrategy,2023.2.3,Win32,60.60606061,7,2,12,,,,,,,,4,12,,,,,,,,,,,4,1.531,1,,,,,,0.40370376,-0.253703718,1,0,0,1.5312,Gabbro_rect,11,0,11,0,1,
665a3e3f103e514a43e3da52,TCN,2024-06-25_11h40.01.388,LearnStrategy,2023.2.3,Win32,60.60606061,7,2,13,,,,,,,,1,03,,,,,,,,,,,1,1.225,1,,,,,,-0.431481467,-0.252777806,1,0,0,1.2246,Andesite_rect,12,0,12,0,1,
665a3e3f103e514a43e3da52,TCN,2024-06-25_11h40.01.388,LearnStrategy,2023.2.3,Win32,60.60606061,7,2,14,,,,,,,,2,02,,,,,,,,,,,2,1.206,1,,,,,,-0.070370356,-0.241666653,1,0,0,1.2056,Basalt_rect,13,0,13,0,1,
665a3e3f103e514a43e3da52,TCN,2024-06-25_11h40.01.388,LearnStrategy,2023.2.3,Win32,60.60606061,7,2,15,,,,,,,,1,10,,,,,,,,,,,1,2.169,1,,,,,,-0.452777757,-0.257407436,1,0,0,2.1694,Andesite_rect,14,0,14,0,1,
665a3e3f103e514a43e3da52,TCN,2024-06-25_11h40.01.388,LearnStrategy,2023.2.3,Win32,60.60606061,7,2,16,,,,,,,,3,13,,,,,,,,,,,3,1.569,1,,,,,,0.157407407,-0.257407436,1,0,0,1.5689,Diorite_rect,15,0,15,0,1,
665a3e3f103e514a43e3da52,TCN,2024-06-25_11h40.01.388,LearnStrategy,2023.2.3,Win32,60.60606061,8,1,1,0.17777782,0.00462963,1,0,0,0.7474,rock_grid_rect_2,1,09,-1,-1,0.747,0.164814843,-0.251851894,1,0,0,4.1342,Diorite_rect,3,4.134,0,0,0,0,0,1,,,,,,,,,,,,,
665a3e3f103e514a43e3da52,TCN,2024-06-25_11h40.01.388,LearnStrategy,2023.2.3,Win32,60.60606061,8,1,2,0.14444443,0.00462963,1,0,0,0.6637,rock_grid_rect_2,8,03,-1,-1,0.664,0.387037065,-0.39907406,1,0,0,0.9263,Pumice_rect,8,0.926,1,1,0,1,0,1,,,,,,,,,,,,,
665a3e3f103e514a43e3da52,TCN,2024-06-25_11h40.01.388,LearnStrategy,2023.2.3,Win32,60.60606061,8,1,3,0.159259302,0.010185171,1,0,0,0.5634,rock_grid_rect_2,2,09,-1,-1,0.563,0.377777806,-0.246296282,1,0,0,1.5913,Gabbro_rect,4,1.591,0,2,0,2,0,1,,,,,,,,,,,,,
665a3e3f103e514a43e3da52,TCN,2024-06-25_11h40.01.388,LearnStrategy,2023.2.3,Win32,60.60606061,8,1,4,0.137037065,0.015740748,1,0,0,0.4969,rock_grid_rect_2,3,06,-1,-1,0.497,0.172222208,-0.242592635,1,0,0,1.1932,Diorite_rect,3,1.193,1,3,0,3,0,1,,,,,,,,,,,,,
665a3e3f103e514a43e3da52,TCN,2024-06-25_11h40.01.388,LearnStrategy,2023.2.3,Win32,60.60606061,8,1,5,0.162962949,0.015740748,1,0,0,0.6141,rock_grid_rect_2,6,05,-1,-1,0.614,-0.066666638,-0.393518519,1,0,0,1.2261,Pegmatite_rect,6,1.226,1,4,0,4,0,1,,,,,,,,,,,,,
665a3e3f103e514a43e3da52,TCN,2024-06-25_11h40.01.388,LearnStrategy,2023.2.3,Win32,60.60606061,8,1,6,0.14907406,0.018518519,1,0,0,0.5307,rock_grid_rect_2,1,01,-1,-1,0.531,-0.457407386,-0.253703718,1,0,0,2.7218,Andesite_rect,1,2.722,1,5,0,5,0,1,,,,,,,,,,,,,
665a3e3f103e514a43e3da52,TCN,2024-06-25_11h40.01.388,LearnStrategy,2023.2.3,Win32,60.60606061,8,1,7,0.159259302,0.002777771,1,0,0,0.4804,rock_grid_rect_2,5,02,-1,-1,0.48,-0.337037016,-0.397222236,1,0,0,1.0426,Obsidian_rect,5,1.043,1,6,0,6,0,1,,,,,,,,,,,,,
665a3e3f103e514a43e3da52,TCN,2024-06-25_11h40.01.388,LearnStrategy,2023.2.3,Win32,60.60606061,8,1,8,0.135185171,0.018518519,1,0,0,0.6468,rock_grid_rect_2,3,08,-1,-1,0.647,0.164814843,-0.248148176,1,0,0,1.6082,Diorite_rect,3,1.608,1,7,0,7,0,1,,,,,,,,,,,,,
665a3e3f103e514a43e3da52,TCN,2024-06-25_11h40.01.388,LearnStrategy,2023.2.3,Win32,60.60606061,8,1,9,0.111111111,0.005555541,1,0,0,0.5132,rock_grid_rect_2,2,12,-1,-1,0.513,0.393518519,-0.406481496,1,0,0,2.3394,Pumice_rect,8,2.339,0,8,0,8,0,1,,,,,,,,,,,,,
665a3e3f103e514a43e3da52,TCN,2024-06-25_11h40.01.388,LearnStrategy,2023.2.3,Win32,60.60606061,8,1,10,0.058333362,0.014814801,1,0,0,0.6631,rock_grid_rect_2,4,05,-1,-1,0.663,0.393518519,-0.237037023,1,0,0,1.6742,Gabbro_rect,4,1.674,1,9,0,9,0,1,,,,,,,,,,,,,
665a3e3f103e514a43e3da52,TCN,2024-06-25_11h40.01.388,LearnStrategy,2023.2.3,Win32,60.60606061,8,1,11,0.110185199,0.000925912,1,0,0,0.5131,rock_grid_rect_2,7,08,-1,-1,0.513,0.150925954,-0.416666667,1,0,0,1.1928,Peridotite_rect,7,1.193,1,10,0,10,0,1,,,,,,,,,,,,,
665a3e3f103e514a43e3da52,TCN,2024-06-25_11h40.01.388,LearnStrategy,2023.2.3,Win32,60.60606061,8,1,12,0.131481524,0.01666666,1,0,0,0.4473,rock_grid_rect_2,8,16,-1,-1,0.447,0.411111196,-0.410185213,1,0,0,1.0599,Pumice_rect,8,1.06,1,11,0,11,0,1,,,,,,,,,,,,,
665a3e3f103e514a43e3da52,TCN,2024-06-25_11h40.01.388,LearnStrategy,2023.2.3,Win32,60.60606061,8,1,13,0.147222236,0.005555541,1,0,0,0.5799,rock_grid_rect_2,6,03,-1,-1,0.58,-0.081481439,-0.40370369,1,0,0,0.9761,Pegmatite_rect,6,0.976,1,12,0,12,0,1,,,,,,,,,,,,,
665a3e3f103e514a43e3da52,TCN,2024-06-25_11h40.01.388,LearnStrategy,2023.2.3,Win32,60.60606061,8,1,14,0.15370369,0.003703683,1,0,0,0.5795,rock_grid_rect_2,7,02,-1,-1,0.579,0.150000042,-0.397222236,1,0,0,0.8439,Peridotite_rect,7,0.844,1,13,0,13,0,1,,,,,,,,,,,,,
665a3e3f103e514a43e3da52,TCN,2024-06-25_11h40.01.388,LearnStrategy,2023.2.3,Win32,60.60606061,8,1,15,0.160185213,-0.008333347,1,0,0,0.4975,rock_grid_rect_2,4,03,-1,-1,0.497,0.145370413,-0.25,1,0,0,3.4859,Diorite_rect,3,3.486,0,14,0,14,0,1,,,,,,,,,,,,,
665a3e3f103e514a43e3da52,TCN,2024-06-25_11h40.01.388,LearnStrategy,2023.2.3,Win32,60.60606061,8,1,16,0.122222265,0.01203703,1,0,0,0.464,rock_grid_rect_2,5,09,-1,-1,0.464,-0.346296275,-0.409259302,1,0,0,0.9095,Obsidian_rect,5,0.909,1,15,0,15,0,1,,,,,,,,,,,,,
665a3e3f103e514a43e3da52,TCN,2024-06-25_11h40.01.388,LearnStrategy,2023.2.3,Win32,60.60606061,8,2,1,,,,,,,,7,13,,,,,,,,,,,7,1.337,1,,,,,,0.15370369,-0.413888931,1,0,0,1.3373,Peridotite_rect,0,0,0,0,1,
665a3e3f103e514a43e3da52,TCN,2024-06-25_11h40.01.388,LearnStrategy,2023.2.3,Win32,60.60606061,8,2,2,,,,,,,,3,12,,,,,,,,,,,3,1.371,1,,,,,,0.161111125,-0.244444459,1,0,0,1.3713,Diorite_rect,1,0,1,0,1,
665a3e3f103e514a43e3da52,TCN,2024-06-25_11h40.01.388,LearnStrategy,2023.2.3,Win32,60.60606061,8,2,3,,,,,,,,4,13,,,,,,,,,,,1,5.408,0,,,,,,-0.363888882,-0.228703746,1,0,0,5.4079,Andesite_rect,2,0,2,0,1,
665a3e3f103e514a43e3da52,TCN,2024-06-25_11h40.01.388,LearnStrategy,2023.2.3,Win32,60.60606061,8,2,4,,,,,,,,5,10,,,,,,,,,,,5,1.221,1,,,,,,-0.361111111,-0.39907406,1,0,0,1.2213,Obsidian_rect,3,0,3,0,1,
665a3e3f103e514a43e3da52,TCN,2024-06-25_11h40.01.388,LearnStrategy,2023.2.3,Win32,60.60606061,8,2,5,,,,,,,,1,06,,,,,,,,,,,1,5.992,1,,,,,,-0.385185171,-0.24537037,1,0,0,5.9917,Andesite_rect,4,0,4,0,1,
665a3e3f103e514a43e3da52,TCN,2024-06-25_11h40.01.388,LearnStrategy,2023.2.3,Win32,60.60606061,8,2,6,,,,,,,,8,02,,,,,,,,,,,8,1.048,1,,,,,,0.377777806,-0.39907406,1,0,0,1.0484,Pumice_rect,5,0,5,0,1,
665a3e3f103e514a43e3da52,TCN,2024-06-25_11h40.01.388,LearnStrategy,2023.2.3,Win32,60.60606061,8,2,7,,,,,,,,1,16,,,,,,,,,,,1,3.286,1,,,,,,-0.385185171,-0.255555541,1,0,0,3.2864,Andesite_rect,6,0,6,0,1,
665a3e3f103e514a43e3da52,TCN,2024-06-25_11h40.01.388,LearnStrategy,2023.2.3,Win32,60.60606061,8,2,8,,,,,,,,6,12,,,,,,,,,,,6,0.984,1,,,,,,-0.083333333,-0.393518519,1,0,0,0.9837,Pegmatite_rect,7,0,7,0,1,
665a3e3f103e514a43e3da52,TCN,2024-06-25_11h40.01.388,LearnStrategy,2023.2.3,Win32,60.60606061,8,2,9,,,,,,,,6,15,,,,,,,,,,,6,0.902,1,,,,,,-0.081481439,-0.397222236,1,0,0,0.9021,Pegmatite_rect,8,0,8,0,1,
665a3e3f103e514a43e3da52,TCN,2024-06-25_11h40.01.388,LearnStrategy,2023.2.3,Win32,60.60606061,8,2,10,,,,,,,,5,16,,,,,,,,,,,5,2.551,1,,,,,,-0.338888875,-0.383333347,1,0,0,2.5509,Obsidian_rect,9,0,9,0,1,
665a3e3f103e514a43e3da52,TCN,2024-06-25_11h40.01.388,LearnStrategy,2023.2.3,Win32,60.60606061,8,2,11,,,,,,,,3,14,,,,,,,,,,,3,1.652,1,,,,,,0.150925954,-0.24537037,1,0,0,1.6525,Diorite_rect,10,0,10,0,1,
665a3e3f103e514a43e3da52,TCN,2024-06-25_11h40.01.388,LearnStrategy,2023.2.3,Win32,60.60606061,8,2,12,,,,,,,,4,15,,,,,,,,,,,3,0.992,0,,,,,,0.160185213,-0.250925912,1,0,0,0.9921,Diorite_rect,11,0,11,0,1,
665a3e3f103e514a43e3da52,TCN,2024-06-25_11h40.01.388,LearnStrategy,2023.2.3,Win32,60.60606061,8,2,13,,,,,,,,2,10,,,,,,,,,,,2,4.816,1,,,,,,-0.103703675,-0.243518547,1,0,0,4.8163,Basalt_rect,12,0,12,0,1,
665a3e3f103e514a43e3da52,TCN,2024-06-25_11h40.01.388,LearnStrategy,2023.2.3,Win32,60.60606061,8,2,14,,,,,,,,7,06,,,,,,,,,,,7,1.845,1,,,,,,0.183333362,-0.40370369,1,0,0,1.8453,Peridotite_rect,13,0,13,0,1,
665a3e3f103e514a43e3da52,TCN,2024-06-25_11h40.01.388,LearnStrategy,2023.2.3,Win32,60.60606061,8,2,15,,,,,,,,2,04,,,,,,,,,,,2,1.324,1,,,,,,-0.082407422,-0.235185199,1,0,0,1.3241,Basalt_rect,14,0,14,0,1,
665a3e3f103e514a43e3da52,TCN,2024-06-25_11h40.01.388,LearnStrategy,2023.2.3,Win32,60.60606061,8,2,16,,,,,,,,8,14,,,,,,,,,,,8,0.955,1,,,,,,0.430555556,-0.395370413,1,0,0,0.9549,Pumice_rect,15,0,15,0,1,
665a3e3f103e514a43e3da52,TCN,2024-06-25_11h40.01.388,LearnStrategy,2023.2.3,Win32,60.60606061,9,1,1,0.15370369,0.01666666,1,0,0,0.7454,rock_grid_rect_2,5,11,-1,-1,0.745,-0.353703711,-0.416666667,1,0,0,1.0928,Obsidian_rect,5,1.093,1,0,0,0,0,1,,,,,,,,,,,,,
665a3e3f103e514a43e3da52,TCN,2024-06-25_11h40.01.388,LearnStrategy,2023.2.3,Win32,60.60606061,9,1,2,0.128703718,0.008333312,1,0,0,0.9957,rock_grid_rect_2,4,08,-1,-1,0.996,-0.356481481,-0.252777806,1,0,0,3.8021,Andesite_rect,1,3.802,0,1,0,1,0,1,,,,,,,,,,,,,
665a3e3f103e514a43e3da52,TCN,2024-06-25_11h40.01.388,LearnStrategy,2023.2.3,Win32,60.60606061,9,1,3,0.147222236,0.010185171,1,0,0,0.6127,rock_grid_rect_2,4,14,-1,-1,0.613,0.399999972,-0.265740783,1,0,0,2.3227,Gabbro_rect,4,2.323,1,2,0,2,0,1,,,,,,,,,,,,,
665a3e3f103e514a43e3da52,TCN,2024-06-25_11h40.01.388,LearnStrategy,2023.2.3,Win32,60.60606061,9,1,4,0.094444487,-0.005555577,1,0,0,0.5138,rock_grid_rect_2,8,04,-1,-1,0.514,0.402777778,-0.405555584,1,0,0,0.9265,Pumice_rect,8,0.927,1,3,0,3,0,1,,,,,,,,,,,,,
665a3e3f103e514a43e3da52,TCN,2024-06-25_11h40.01.388,LearnStrategy,2023.2.3,Win32,60.60606061,9,1,5,0.154629672,0.000925912,1,0,0,0.713,rock_grid_rect_2,3,16,-1,-1,0.713,-0.359259252,-0.256481524,1,0,0,1.6575,Andesite_rect,1,1.658,0,4,0,4,0,1,,,,,,,,,,,,,
665a3e3f103e514a43e3da52,TCN,2024-06-25_11h40.01.388,LearnStrategy,2023.2.3,Win32,60.60606061,9,1,6,0.124074088,0.006481489,1,0,0,0.5469,rock_grid_rect_2,1,02,-1,-1,0.547,-0.339814822,-0.241666653,1,0,0,1.3673,Andesite_rect,1,1.367,1,5,0,5,0,1,,,,,,,,,,,,,
665a3e3f103e514a43e3da52,TCN,2024-06-25_11h40.01.388,LearnStrategy,2023.2.3,Win32,60.60606061,9,1,7,0.147222236,0.015740748,1,0,0,0.6302,rock_grid_rect_2,6,08,-1,-1,0.63,-0.108333305,-0.392592607,1,0,0,0.8602,Pegmatite_rect,6,0.86,1,6,0,6,0,1,,,,,,,,,,,,,
665a3e3f103e514a43e3da52,TCN,2024-06-25_11h40.01.388,LearnStrategy,2023.2.3,Win32,60.60606061,9,1,8,0.161111125,0.001851859,1,0,0,0.581,rock_grid_rect_2,3,10,-1,-1,0.581,0.167592578,-0.250925912,1,0,0,1.2918,Diorite_rect,3,1.292,1,7,0,7,0,1,,,,,,,,,,,,,
665a3e3f103e514a43e3da52,TCN,2024-06-25_11h40.01.388,LearnStrategy,2023.2.3,Win32,60.60606061,9,1,9,0.122222265,-0.003703718,1,0,0,0.7128,rock_grid_rect_2,5,07,-1,-1,0.713,-0.330555563,-0.407407407,1,0,0,1.1424,Obsidian_rect,5,1.142,1,8,0,8,0,1,,,,,,,,,,,,,
665a3e3f103e514a43e3da52,TCN,2024-06-25_11h40.01.388,LearnStrategy,2023.2.3,Win32,60.60606061,9,1,10,0.173148191,0,1,0,0,0.6137,rock_grid_rect_2,7,07,-1,-1,0.614,0.162037037,-0.406481496,1,0,0,1.4422,Peridotite_rect,7,1.442,1,9,0,9,0,1,,,,,,,,,,,,,
665a3e3f103e514a43e3da52,TCN,2024-06-25_11h40.01.388,LearnStrategy,2023.2.3,Win32,60.60606061,9,1,11,0.154629672,-0.000925947,1,0,0,0.6134,rock_grid_rect_2,8,09,-1,-1,0.613,0.40833339,-0.405555584,1,0,0,0.9602,Pumice_rect,8,0.96,1,10,0,10,0,1,,,,,,,,,,,,,
665a3e3f103e514a43e3da52,TCN,2024-06-25_11h40.01.388,LearnStrategy,2023.2.3,Win32,60.60606061,9,1,12,0.14907406,0,1,0,0,0.63,rock_grid_rect_2,2,06,-1,-1,0.63,-0.079629616,-0.256481524,1,0,0,1.1925,Basalt_rect,2,1.192,1,11,0,11,0,1,,,,,,,,,,,,,
665a3e3f103e514a43e3da52,TCN,2024-06-25_11h40.01.388,LearnStrategy,2023.2.3,Win32,60.60606061,9,1,13,0.15370369,-0.000925947,1,0,0,0.5634,rock_grid_rect_2,6,09,-1,-1,0.563,-0.094444416,-0.413888931,1,0,0,1.0758,Pegmatite_rect,6,1.076,1,12,0,12,0,1,,,,,,,,,,,,,
665a3e3f103e514a43e3da52,TCN,2024-06-25_11h40.01.388,LearnStrategy,2023.2.3,Win32,60.60606061,9,1,14,0.175925926,0.006481489,1,0,0,0.5961,rock_grid_rect_2,7,04,-1,-1,0.596,0.175000014,-0.401851866,1,0,0,1.0972,Peridotite_rect,7,1.097,1,13,0,13,0,1,,,,,,,,,,,,,
665a3e3f103e514a43e3da52,TCN,2024-06-25_11h40.01.388,LearnStrategy,2023.2.3,Win32,60.60606061,9,1,15,0.163888931,0.005555541,1,0,0,0.9792,rock_grid_rect_2,1,04,-1,-1,0.979,0.163888931,-0.255555541,1,0,0,1.2922,Diorite_rect,3,1.292,0,14,0,14,0,1,,,,,,,,,,,,,
665a3e3f103e514a43e3da52,TCN,2024-06-25_11h40.01.388,LearnStrategy,2023.2.3,Win32,60.60606061,9,1,16,0.159259302,-0.002777771,1,0,0,0.564,rock_grid_rect_2,2,14,-1,-1,0.564,0.394444501,-0.261111153,1,0,0,1.6081,Gabbro_rect,4,1.608,0,15,0,15,0,1,,,,,,,,,,,,,
665a3e3f103e514a43e3da52,TCN,2024-06-25_11h40.01.388,LearnStrategy,2023.2.3,Win32,60.60606061,9,2,1,,,,,,,,2,01,,,,,,,,,,,2,1.986,1,,,,,,-0.089814787,-0.238888917,1,0,0,1.9865,Basalt_rect,0,0,0,0,1,
665a3e3f103e514a43e3da52,TCN,2024-06-25_11h40.01.388,LearnStrategy,2023.2.3,Win32,60.60606061,9,2,2,,,,,,,,4,11,,,,,,,,,,,4,2.179,1,,,,,,0.422222279,-0.237963005,1,0,0,2.1788,Gabbro_rect,1,0,1,0,1,
665a3e3f103e514a43e3da52,TCN,2024-06-25_11h40.01.388,LearnStrategy,2023.2.3,Win32,60.60606061,9,2,3,,,,,,,,3,02,,,,,,,,,,,1,4.677,0,,,,,,-0.369444423,-0.235185199,1,0,0,4.6766,Andesite_rect,2,0,2,0,1,
665a3e3f103e514a43e3da52,TCN,2024-06-25_11h40.01.388,LearnStrategy,2023.2.3,Win32,60.60606061,9,2,4,,,,,,,,1,05,,,,,,,,,,,1,2.428,1,,,,,,-0.350925905,-0.234259288,1,0,0,2.428,Andesite_rect,3,0,3,0,1,
665a3e3f103e514a43e3da52,TCN,2024-06-25_11h40.01.388,LearnStrategy,2023.2.3,Win32,60.60606061,9,2,5,,,,,,,,6,06,,,,,,,,,,,6,1.007,1,,,,,,-0.080555527,-0.421296296,1,0,0,1.0072,Pegmatite_rect,4,0,4,0,1,
665a3e3f103e514a43e3da52,TCN,2024-06-25_11h40.01.388,LearnStrategy,2023.2.3,Win32,60.60606061,9,2,6,,,,,,,,4,01,,,,,,,,,,,1,3.449,0,,,,,,-0.36296297,-0.256481524,1,0,0,3.4487,Andesite_rect,5,0,5,0,1,
665a3e3f103e514a43e3da52,TCN,2024-06-25_11h40.01.388,LearnStrategy,2023.2.3,Win32,60.60606061,9,2,7,,,,,,,,3,11,,,,,,,,,,,3,1.77,1,,,,,,0.202777792,-0.25462963,1,0,0,1.7695,Diorite_rect,6,0,6,0,1,
665a3e3f103e514a43e3da52,TCN,2024-06-25_11h40.01.388,LearnStrategy,2023.2.3,Win32,60.60606061,9,2,8,,,,,,,,8,06,,,,,,,,,,,8,0.903,1,,,,,,0.400925954,-0.408333319,1,0,0,0.9035,Pumice_rect,7,0,7,0,1,
665a3e3f103e514a43e3da52,TCN,2024-06-25_11h40.01.388,LearnStrategy,2023.2.3,Win32,60.60606061,9,2,9,,,,,,,,8,15,,,,,,,,,,,8,0.855,1,,,,,,0.40370376,-0.406481496,1,0,0,0.8548,Pumice_rect,8,0,8,0,1,
665a3e3f103e514a43e3da52,TCN,2024-06-25_11h40.01.388,LearnStrategy,2023.2.3,Win32,60.60606061,9,2,10,,,,,,,,1,07,,,,,,,,,,,3,3.217,0,,,,,,0.190740727,-0.252777806,1,0,0,3.2168,Diorite_rect,9,0,9,0,1,
665a3e3f103e514a43e3da52,TCN,2024-06-25_11h40.01.388,LearnStrategy,2023.2.3,Win32,60.60606061,9,2,11,,,,,,,,5,12,,,,,,,,,,,5,1.087,1,,,,,,-0.373148141,-0.415740755,1,0,0,1.0866,Obsidian_rect,10,0,10,0,1,
665a3e3f103e514a43e3da52,TCN,2024-06-25_11h40.01.388,LearnStrategy,2023.2.3,Win32,60.60606061,9,2,12,,,,,,,,6,10,,,,,,,,,,,6,1.055,1,,,,,,-0.074999986,-0.400000042,1,0,0,1.0555,Pegmatite_rect,11,0,11,0,1,
665a3e3f103e514a43e3da52,TCN,2024-06-25_11h40.01.388,LearnStrategy,2023.2.3,Win32,60.60606061,9,2,13,,,,,,,,5,06,,,,,,,,,,,5,1.106,1,,,,,,-0.346296275,-0.397222236,1,0,0,1.1056,Obsidian_rect,12,0,12,0,1,
665a3e3f103e514a43e3da52,TCN,2024-06-25_11h40.01.388,LearnStrategy,2023.2.3,Win32,60.60606061,9,2,14,,,,,,,,7,10,,,,,,,,,,,7,1.233,1,,,,,,0.189814815,-0.396296325,1,0,0,1.2326,Peridotite_rect,13,0,13,0,1,
665a3e3f103e514a43e3da52,TCN,2024-06-25_11h40.01.388,LearnStrategy,2023.2.3,Win32,60.60606061,9,2,15,,,,,,,,7,16,,,,,,,,,,,4,4.291,0,,,,,,0.416666667,-0.262962977,1,0,0,4.2907,Gabbro_rect,14,0,14,0,1,
665a3e3f103e514a43e3da52,TCN,2024-06-25_11h40.01.388,LearnStrategy,2023.2.3,Win32,60.60606061,9,2,16,,,,,,,,2,11,,,,,,,,,,,2,2.671,1,,,,,,-0.097222222,-0.270370413,1,0,0,2.6705,Basalt_rect,15,0,15,0,1,
665a3e3f103e514a43e3da52,TCN,2024-06-25_11h40.01.388,LearnStrategy,2023.2.3,Win32,60.60606061,,,,,,,,,,,,,,,,,,,,,,,,,,,,,,,,,,,,,,,,,,,1
665a3e3f103e514a43e3da52,TCN,2024-06-25_11h40.01.388,LearnStrategy,2023.2.3,Win32,60.60606061,,,,,,,,,,,,,,,,,,,,,,,,,,,,,,,,,,,,,,,,,,,
665a3e3f103e514a43e3da52,TCN,2024-06-25_11h40.01.388,LearnStrategy,2023.2.3,Win32,60.60606061,,,,,,,,,,,6,16,1,1,,,,,,,,,,,,,,,,,,,,,,,,,,,,,
665a3e3f103e514a43e3da52,TCN,2024-06-25_11h40.01.388,LearnStrategy,2023.2.3,Win32,60.60606061,,,,,,,,,,,8,03,1,2,,,,,,,,,,,,,,,,,,,,,,,,,,,,,
665a3e3f103e514a43e3da52,TCN,2024-06-25_11h40.01.388,LearnStrategy,2023.2.3,Win32,60.60606061,,,,,,,,,,,8,10,1,3,,,,,,,,,,,,,,,,,,,,,,,,,,,,,
665a3e3f103e514a43e3da52,TCN,2024-06-25_11h40.01.388,LearnStrategy,2023.2.3,Win32,60.60606061,,,,,,,,,,,1,02,1,4,,,,,,,,,,,,,,,,,,,,,,,,,,,,,
665a3e3f103e514a43e3da52,TCN,2024-06-25_11h40.01.388,LearnStrategy,2023.2.3,Win32,60.60606061,,,,,,,,,,,6,03,1,5,,,,,,,,,,,,,,,,,,,,,,,,,,,,,
665a3e3f103e514a43e3da52,TCN,2024-06-25_11h40.01.388,LearnStrategy,2023.2.3,Win32,60.60606061,,,,,,,,,,,3,09,1,6,,,,,,,,,,,,,,,,,,,,,,,,,,,,,
665a3e3f103e514a43e3da52,TCN,2024-06-25_11h40.01.388,LearnStrategy,2023.2.3,Win32,60.60606061,,,,,,,,,,,4,14,1,7,,,,,,,,,,,,,,,,,,,,,,,,,,,,,
665a3e3f103e514a43e3da52,TCN,2024-06-25_11h40.01.388,LearnStrategy,2023.2.3,Win32,60.60606061,,,,,,,,,,,8,13,1,8,,,,,,,,,,,,,,,,,,,,,,,,,,,,,
665a3e3f103e514a43e3da52,TCN,2024-06-25_11h40.01.388,LearnStrategy,2023.2.3,Win32,60.60606061,,,,,,,,,,,8,09,2,1,,,,,,,,,,,,,,,,,,,,,,,,,,,,,
665a3e3f103e514a43e3da52,TCN,2024-06-25_11h40.01.388,LearnStrategy,2023.2.3,Win32,60.60606061,,,,,,,,,,,3,06,2,2,,,,,,,,,,,,,,,,,,,,,,,,,,,,,
665a3e3f103e514a43e3da52,TCN,2024-06-25_11h40.01.388,LearnStrategy,2023.2.3,Win32,60.60606061,,,,,,,,,,,8,04,2,3,,,,,,,,,,,,,,,,,,,,,,,,,,,,,
665a3e3f103e514a43e3da52,TCN,2024-06-25_11h40.01.388,LearnStrategy,2023.2.3,Win32,60.60606061,,,,,,,,,,,4,10,2,4,,,,,,,,,,,,,,,,,,,,,,,,,,,,,
665a3e3f103e514a43e3da52,TCN,2024-06-25_11h40.01.388,LearnStrategy,2023.2.3,Win32,60.60606061,,,,,,,,,,,1,01,2,5,,,,,,,,,,,,,,,,,,,,,,,,,,,,,
665a3e3f103e514a43e3da52,TCN,2024-06-25_11h40.01.388,LearnStrategy,2023.2.3,Win32,60.60606061,,,,,,,,,,,1,09,2,6,,,,,,,,,,,,,,,,,,,,,,,,,,,,,
665a3e3f103e514a43e3da52,TCN,2024-06-25_11h40.01.388,LearnStrategy,2023.2.3,Win32,60.60606061,,,,,,,,,,,2,09,2,7,,,,,,,,,,,,,,,,,,,,,,,,,,,,,
665a3e3f103e514a43e3da52,TCN,2024-06-25_11h40.01.388,LearnStrategy,2023.2.3,Win32,60.60606061,,,,,,,,,,,5,07,2,8,,,,,,,,,,,,,,,,,,,,,,,,,,,,,
665a3e3f103e514a43e3da52,TCN,2024-06-25_11h40.01.388,LearnStrategy,2023.2.3,Win32,60.60606061,,,,,,,,,,,6,09,3,1,,,,,,,,,,,,,,,,,,,,,,,,,,,,,
665a3e3f103e514a43e3da52,TCN,2024-06-25_11h40.01.388,LearnStrategy,2023.2.3,Win32,60.60606061,,,,,,,,,,,4,05,3,2,,,,,,,,,,,,,,,,,,,,,,,,,,,,,
665a3e3f103e514a43e3da52,TCN,2024-06-25_11h40.01.388,LearnStrategy,2023.2.3,Win32,60.60606061,,,,,,,,,,,7,07,3,3,,,,,,,,,,,,,,,,,,,,,,,,,,,,,
665a3e3f103e514a43e3da52,TCN,2024-06-25_11h40.01.388,LearnStrategy,2023.2.3,Win32,60.60606061,,,,,,,,,,,4,03,3,4,,,,,,,,,,,,,,,,,,,,,,,,,,,,,
665a3e3f103e514a43e3da52,TCN,2024-06-25_11h40.01.388,LearnStrategy,2023.2.3,Win32,60.60606061,,,,,,,,,,,7,08,3,5,,,,,,,,,,,,,,,,,,,,,,,,,,,,,
665a3e3f103e514a43e3da52,TCN,2024-06-25_11h40.01.388,LearnStrategy,2023.2.3,Win32,60.60606061,,,,,,,,,,,5,02,3,6,,,,,,,,,,,,,,,,,,,,,,,,,,,,,
665a3e3f103e514a43e3da52,TCN,2024-06-25_11h40.01.388,LearnStrategy,2023.2.3,Win32,60.60606061,,,,,,,,,,,1,11,3,7,,,,,,,,,,,,,,,,,,,,,,,,,,,,,
665a3e3f103e514a43e3da52,TCN,2024-06-25_11h40.01.388,LearnStrategy,2023.2.3,Win32,60.60606061,,,,,,,,,,,5,11,3,8,,,,,,,,,,,,,,,,,,,,,,,,,,,,,
665a3e3f103e514a43e3da52,TCN,2024-06-25_11h40.01.388,LearnStrategy,2023.2.3,Win32,60.60606061,,,,,,,,,,,7,15,4,1,,,,,,,,,,,,,,,,,,,,,,,,,,,,,
665a3e3f103e514a43e3da52,TCN,2024-06-25_11h40.01.388,LearnStrategy,2023.2.3,Win32,60.60606061,,,,,,,,,,,7,12,4,2,,,,,,,,,,,,,,,,,,,,,,,,,,,,,
665a3e3f103e514a43e3da52,TCN,2024-06-25_11h40.01.388,LearnStrategy,2023.2.3,Win32,60.60606061,,,,,,,,,,,1,14,4,3,,,,,,,,,,,,,,,,,,,,,,,,,,,,,
665a3e3f103e514a43e3da52,TCN,2024-06-25_11h40.01.388,LearnStrategy,2023.2.3,Win32,60.60606061,,,,,,,,,,,7,02,4,4,,,,,,,,,,,,,,,,,,,,,,,,,,,,,
665a3e3f103e514a43e3da52,TCN,2024-06-25_11h40.01.388,LearnStrategy,2023.2.3,Win32,60.60606061,,,,,,,,,,,3,15,4,5,,,,,,,,,,,,,,,,,,,,,,,,,,,,,
665a3e3f103e514a43e3da52,TCN,2024-06-25_11h40.01.388,LearnStrategy,2023.2.3,Win32,60.60606061,,,,,,,,,,,4,16,4,6,,,,,,,,,,,,,,,,,,,,,,,,,,,,,
665a3e3f103e514a43e3da52,TCN,2024-06-25_11h40.01.388,LearnStrategy,2023.2.3,Win32,60.60606061,,,,,,,,,,,5,09,4,7,,,,,,,,,,,,,,,,,,,,,,,,,,,,,
665a3e3f103e514a43e3da52,TCN,2024-06-25_11h40.01.388,LearnStrategy,2023.2.3,Win32,60.60606061,,,,,,,,,,,3,16,4,8,,,,,,,,,,,,,,,,,,,,,,,,,,,,,
665a3e3f103e514a43e3da52,TCN,2024-06-25_11h40.01.388,LearnStrategy,2023.2.3,Win32,60.60606061,,,,,,,,,,,6,11,5,1,,,,,,,,,,,,,,,,,,,,,,,,,,,,,
665a3e3f103e514a43e3da52,TCN,2024-06-25_11h40.01.388,LearnStrategy,2023.2.3,Win32,60.60606061,,,,,,,,,,,2,14,5,2,,,,,,,,,,,,,,,,,,,,,,,,,,,,,
665a3e3f103e514a43e3da52,TCN,2024-06-25_11h40.01.388,LearnStrategy,2023.2.3,Win32,60.60606061,,,,,,,,,,,5,14,5,3,,,,,,,,,,,,,,,,,,,,,,,,,,,,,
665a3e3f103e514a43e3da52,TCN,2024-06-25_11h40.01.388,LearnStrategy,2023.2.3,Win32,60.60606061,,,,,,,,,,,7,04,5,4,,,,,,,,,,,,,,,,,,,,,,,,,,,,,
665a3e3f103e514a43e3da52,TCN,2024-06-25_11h40.01.388,LearnStrategy,2023.2.3,Win32,60.60606061,,,,,,,,,,,2,08,5,5,,,,,,,,,,,,,,,,,,,,,,,,,,,,,
665a3e3f103e514a43e3da52,TCN,2024-06-25_11h40.01.388,LearnStrategy,2023.2.3,Win32,60.60606061,,,,,,,,,,,3,10,5,6,,,,,,,,,,,,,,,,,,,,,,,,,,,,,
665a3e3f103e514a43e3da52,TCN,2024-06-25_11h40.01.388,LearnStrategy,2023.2.3,Win32,60.60606061,,,,,,,,,,,2,12,5,7,,,,,,,,,,,,,,,,,,,,,,,,,,,,,
665a3e3f103e514a43e3da52,TCN,2024-06-25_11h40.01.388,LearnStrategy,2023.2.3,Win32,60.60606061,,,,,,,,,,,1,04,5,8,,,,,,,,,,,,,,,,,,,,,,,,,,,,,
665a3e3f103e514a43e3da52,TCN,2024-06-25_11h40.01.388,LearnStrategy,2023.2.3,Win32,60.60606061,,,,,,,,,,,2,05,6,1,,,,,,,,,,,,,,,,,,,,,,,,,,,,,
665a3e3f103e514a43e3da52,TCN,2024-06-25_11h40.01.388,LearnStrategy,2023.2.3,Win32,60.60606061,,,,,,,,,,,5,08,6,2,,,,,,,,,,,,,,,,,,,,,,,,,,,,,
665a3e3f103e514a43e3da52,TCN,2024-06-25_11h40.01.388,LearnStrategy,2023.2.3,Win32,60.60606061,,,,,,,,,,,8,16,6,3,,,,,,,,,,,,,,,,,,,,,,,,,,,,,
665a3e3f103e514a43e3da52,TCN,2024-06-25_11h40.01.388,LearnStrategy,2023.2.3,Win32,60.60606061,,,,,,,,,,,4,08,6,4,,,,,,,,,,,,,,,,,,,,,,,,,,,,,
665a3e3f103e514a43e3da52,TCN,2024-06-25_11h40.01.388,LearnStrategy,2023.2.3,Win32,60.60606061,,,,,,,,,,,3,08,6,5,,,,,,,,,,,,,,,,,,,,,,,,,,,,,
665a3e3f103e514a43e3da52,TCN,2024-06-25_11h40.01.388,LearnStrategy,2023.2.3,Win32,60.60606061,,,,,,,,,,,2,06,6,6,,,,,,,,,,,,,,,,,,,,,,,,,,,,,
665a3e3f103e514a43e3da52,TCN,2024-06-25_11h40.01.388,LearnStrategy,2023.2.3,Win32,60.60606061,,,,,,,,,,,6,08,6,7,,,,,,,,,,,,,,,,,,,,,,,,,,,,,
665a3e3f103e514a43e3da52,TCN,2024-06-25_11h40.01.388,LearnStrategy,2023.2.3,Win32,60.60606061,,,,,,,,,,,6,05,6,8,,,,,,,,,,,,,,,,,,,,,,,,,,,,,