participant,condition,date,expName,psychopyVersion,OS,frameRate,block,phase,trial,learn_mouse.x,learn_mouse.y,learn_mouse.leftButton,learn_mouse.midButton,learn_mouse.rightButton,learn_mouse.time,learn_mouse.clicked_name,cat,token,row,col,t_select,cat_mouse_l.x,cat_mouse_l.y,cat_mouse_l.leftButton,cat_mouse_l.midButton,cat_mouse_l.rightButton,cat_mouse_l.time,cat_mouse_l.clicked_name,resp,t_resp,corr,train_trials.thisRepN,train_trials.thisTrialN,train_trials.thisN,train_trials.thisIndex,train_trials.ran,cat_mouse_t.x,cat_mouse_t.y,cat_mouse_t.leftButton,cat_mouse_t.midButton,cat_mouse_t.rightButton,cat_mouse_t.time,cat_mouse_t.clicked_name,test_trials.thisRepN,test_trials.thisTrialN,test_trials.thisN,test_trials.thisIndex,test_trials.ran,Bonus
665b3f30f783306ae5987e27,SCN,2024-06-25_12h40.10.975,LearnStrategy,2023.2.3,Win32,60.24096386,,,,,,,,,,,,,,,,,,,,,,,,,,,,,,,,,,,,,,,,,,,
665b3f30f783306ae5987e27,SCN,2024-06-25_12h40.10.975,LearnStrategy,2023.2.3,Win32,60.24096386,1,1,1,-0.545370356,0.437037034,1,0,0,3.4451,Andesite_03,1,03,6,1,3.445,0.170370399,-0.250925954,1,0,0,3.4805,Diorite_rect,3,3.48,0,0,0,0,0,1,,,,,,,,,,,,,
665b3f30f783306ae5987e27,SCN,2024-06-25_12h40.10.975,LearnStrategy,2023.2.3,Win32,60.24096386,1,1,2,-0.384259245,0.425925922,1,0,0,3.5323,Diorite_06,3,06,6,2,3.532,-0.103703647,-0.247222222,1,0,0,7.8944,Basalt_rect,2,7.894,0,1,0,1,0,1,,,,,,,,,,,,,
665b3f30f783306ae5987e27,SCN,2024-06-25_12h40.10.975,LearnStrategy,2023.2.3,Win32,60.24096386,1,1,3,-0.225925912,0.387962956,1,0,0,1.8822,Pegmatite_12,6,12,6,3,1.882,0.083333333,-0.232407464,1,0,0,1.8586,Diorite_rect,3,1.859,0,2,0,2,0,1,,,,,,,,,,,,,
665b3f30f783306ae5987e27,SCN,2024-06-25_12h40.10.975,LearnStrategy,2023.2.3,Win32,60.24096386,1,1,4,-0.544444444,0.260185178,1,0,0,3.1319,Diorite_14,3,14,5,1,3.132,0.114814843,-0.263888889,1,0,0,3.5094,Diorite_rect,3,3.509,1,3,0,3,0,1,,,,,,,,,,,,,
665b3f30f783306ae5987e27,SCN,2024-06-25_12h40.10.975,LearnStrategy,2023.2.3,Win32,60.24096386,1,1,5,-0.071296268,0.396296289,1,0,0,4.2994,Peridotite_13,7,13,6,4,4.299,0.388888889,-0.257407464,1,0,0,4.3188,Gabbro_rect,4,4.319,0,4,0,4,0,1,,,,,,,,,,,,,
665b3f30f783306ae5987e27,SCN,2024-06-25_12h40.10.975,LearnStrategy,2023.2.3,Win32,60.24096386,1,1,6,0.107407464,0.392592589,1,0,0,1.4649,Diorite_09,3,09,6,5,1.465,0.144444444,-0.240740797,1,0,0,1.4084,Diorite_rect,3,1.408,1,5,0,5,0,1,,,,,,,,,,,,,
665b3f30f783306ae5987e27,SCN,2024-06-25_12h40.10.975,LearnStrategy,2023.2.3,Win32,60.24096386,1,1,7,0.263888889,0.422222222,1,0,0,1.7657,Obsidian_04,5,04,6,6,1.766,-0.345370356,-0.389814843,1,0,0,2.0259,Obsidian_rect,5,2.026,1,6,0,6,0,1,,,,,,,,,,,,,
665b3f30f783306ae5987e27,SCN,2024-06-25_12h40.10.975,LearnStrategy,2023.2.3,Win32,60.24096386,1,1,8,0.437963019,0.281481467,1,0,0,2.546,Obsidian_06,5,06,5,7,2.546,0.307407464,-0.400925954,1,0,0,2.895,Pumice_rect,8,2.895,0,7,0,7,0,1,,,,,,,,,,,,,
665b3f30f783306ae5987e27,SCN,2024-06-25_12h40.10.975,LearnStrategy,2023.2.3,Win32,60.24096386,1,1,9,-0.374074046,0.081481467,1,0,0,1.6478,Peridotite_02,7,02,4,2,1.648,0.157407464,-0.4,1,0,0,2.2093,Peridotite_rect,7,2.209,1,8,0,8,0,1,,,,,,,,,,,,,
665b3f30f783306ae5987e27,SCN,2024-06-25_12h40.10.975,LearnStrategy,2023.2.3,Win32,60.24096386,1,1,10,-0.399074046,-0.25648151,1,0,0,2.7327,Andesite_09,1,09,2,2,2.733,-0.365740712,-0.239814843,1,0,0,1.0754,Andesite_rect,1,1.075,1,9,0,9,0,1,,,,,,,,,,,,,
665b3f30f783306ae5987e27,SCN,2024-06-25_12h40.10.975,LearnStrategy,2023.2.3,Win32,60.24096386,1,1,11,-0.069444444,-0.117592621,1,0,0,1.0498,Pegmatite_16,6,16,3,4,1.05,-0.089814758,-0.271296353,1,0,0,1.7759,Basalt_rect,2,1.776,0,10,0,10,0,1,,,,,,,,,,,,,
665b3f30f783306ae5987e27,SCN,2024-06-25_12h40.10.975,LearnStrategy,2023.2.3,Win32,60.24096386,1,1,12,0.117592621,0.215740734,1,0,0,3.5496,Obsidian_05,5,05,5,5,3.55,-0.424074046,-0.405555556,1,0,0,1.5361,Obsidian_rect,5,1.536,1,11,0,11,0,1,,,,,,,,,,,,,
665b3f30f783306ae5987e27,SCN,2024-06-25_12h40.10.975,LearnStrategy,2023.2.3,Win32,60.24096386,1,1,13,0.426851908,-0.266666667,1,0,0,1.0824,Pumice_09,8,09,2,7,1.082,0.337963019,-0.379629686,1,0,0,1.1422,Pumice_rect,8,1.142,1,12,0,12,0,1,,,,,,,,,,,,,
665b3f30f783306ae5987e27,SCN,2024-06-25_12h40.10.975,LearnStrategy,2023.2.3,Win32,60.24096386,1,1,14,-0.227777778,-0.40648151,1,0,0,1.0328,Peridotite_16,7,16,1,3,1.033,0.116666667,-0.410185242,1,0,0,2.9751,Peridotite_rect,7,2.975,1,13,0,13,0,1,,,,,,,,,,,,,
665b3f30f783306ae5987e27,SCN,2024-06-25_12h40.10.975,LearnStrategy,2023.2.3,Win32,60.24096386,1,1,15,0.414814843,-0.103703732,1,0,0,1.7151,Andesite_10,1,10,3,7,1.715,0.135185242,-0.240740797,1,0,0,2.6261,Diorite_rect,3,2.626,0,14,0,14,0,1,,,,,,,,,,,,,
665b3f30f783306ae5987e27,SCN,2024-06-25_12h40.10.975,LearnStrategy,2023.2.3,Win32,60.24096386,1,1,16,-0.111111111,0.098148134,1,0,0,3.3979,Gabbro_12,4,12,4,4,3.398,-0.356481467,-0.243518575,1,0,0,3.2528,Andesite_rect,1,3.253,0,15,0,15,0,1,,,,,,,,,,,,,
665b3f30f783306ae5987e27,SCN,2024-06-25_12h40.10.975,LearnStrategy,2023.2.3,Win32,60.24096386,1,2,1,,,,,,,,6,13,,,,,,,,,,,6,5.359,1,,,,,,-0.074074046,-0.397222222,1,0,0,5.3587,Pegmatite_rect,0,0,0,0,1,
665b3f30f783306ae5987e27,SCN,2024-06-25_12h40.10.975,LearnStrategy,2023.2.3,Win32,60.24096386,1,2,2,,,,,,,,7,15,,,,,,,,,,,7,2.493,1,,,,,,0.085185242,-0.391666667,1,0,0,2.4933,Peridotite_rect,1,0,1,0,1,
665b3f30f783306ae5987e27,SCN,2024-06-25_12h40.10.975,LearnStrategy,2023.2.3,Win32,60.24096386,1,2,3,,,,,,,,5,10,,,,,,,,,,,5,1.909,1,,,,,,-0.420370356,-0.388888889,1,0,0,1.9092,Obsidian_rect,2,0,2,0,1,
665b3f30f783306ae5987e27,SCN,2024-06-25_12h40.10.975,LearnStrategy,2023.2.3,Win32,60.24096386,1,2,4,,,,,,,,3,02,,,,,,,,,,,3,3.426,1,,,,,,0.128703732,-0.238888889,1,0,0,3.4264,Diorite_rect,3,0,3,0,1,
665b3f30f783306ae5987e27,SCN,2024-06-25_12h40.10.975,LearnStrategy,2023.2.3,Win32,60.24096386,1,2,5,,,,,,,,8,16,,,,,,,,,,,8,1.843,1,,,,,,0.45648151,-0.418518575,1,0,0,1.8428,Pumice_rect,4,0,4,0,1,
665b3f30f783306ae5987e27,SCN,2024-06-25_12h40.10.975,LearnStrategy,2023.2.3,Win32,60.24096386,1,2,6,,,,,,,,3,07,,,,,,,,,,,6,4.444,0,,,,,,-0.130555556,-0.391666667,1,0,0,4.4435,Pegmatite_rect,5,0,5,0,1,
665b3f30f783306ae5987e27,SCN,2024-06-25_12h40.10.975,LearnStrategy,2023.2.3,Win32,60.24096386,1,2,7,,,,,,,,2,05,,,,,,,,,,,4,6.561,0,,,,,,0.372222222,-0.250925954,1,0,0,6.5608,Gabbro_rect,6,0,6,0,1,
665b3f30f783306ae5987e27,SCN,2024-06-25_12h40.10.975,LearnStrategy,2023.2.3,Win32,60.24096386,1,2,8,,,,,,,,7,06,,,,,,,,,,,3,4.11,0,,,,,,0.094444444,-0.252777778,1,0,0,4.11,Diorite_rect,7,0,7,0,1,
665b3f30f783306ae5987e27,SCN,2024-06-25_12h40.10.975,LearnStrategy,2023.2.3,Win32,60.24096386,1,2,9,,,,,,,,4,13,,,,,,,,,,,4,3.042,1,,,,,,0.377777778,-0.243518575,1,0,0,3.042,Gabbro_rect,8,0,8,0,1,
665b3f30f783306ae5987e27,SCN,2024-06-25_12h40.10.975,LearnStrategy,2023.2.3,Win32,60.24096386,1,2,10,,,,,,,,4,05,,,,,,,,,,,6,7.727,0,,,,,,-0.076851824,-0.414814843,1,0,0,7.7269,Pegmatite_rect,9,0,9,0,1,
665b3f30f783306ae5987e27,SCN,2024-06-25_12h40.10.975,LearnStrategy,2023.2.3,Win32,60.24096386,1,2,11,,,,,,,,1,01,,,,,,,,,,,3,3.694,0,,,,,,0.108333333,-0.237963019,1,0,0,3.6936,Diorite_rect,10,0,10,0,1,
665b3f30f783306ae5987e27,SCN,2024-06-25_12h40.10.975,LearnStrategy,2023.2.3,Win32,60.24096386,1,2,12,,,,,,,,5,14,,,,,,,,,,,5,1.338,1,,,,,,-0.389814801,-0.415740797,1,0,0,1.3383,Obsidian_rect,11,0,11,0,1,
665b3f30f783306ae5987e27,SCN,2024-06-25_12h40.10.975,LearnStrategy,2023.2.3,Win32,60.24096386,1,2,13,,,,,,,,1,16,,,,,,,,,,,6,2.727,0,,,,,,-0.097222222,-0.415740797,1,0,0,2.7267,Pegmatite_rect,12,0,12,0,1,
665b3f30f783306ae5987e27,SCN,2024-06-25_12h40.10.975,LearnStrategy,2023.2.3,Win32,60.24096386,1,2,14,,,,,,,,6,05,,,,,,,,,,,6,1.66,1,,,,,,-0.099074046,-0.398148176,1,0,0,1.6596,Pegmatite_rect,13,0,13,0,1,
665b3f30f783306ae5987e27,SCN,2024-06-25_12h40.10.975,LearnStrategy,2023.2.3,Win32,60.24096386,1,2,15,,,,,,,,8,06,,,,,,,,,,,8,1.359,1,,,,,,0.415740797,-0.379629686,1,0,0,1.3592,Pumice_rect,14,0,14,0,1,
665b3f30f783306ae5987e27,SCN,2024-06-25_12h40.10.975,LearnStrategy,2023.2.3,Win32,60.24096386,1,2,16,,,,,,,,2,14,,,,,,,,,,,4,1.925,0,,,,,,0.385185242,-0.25,1,0,0,1.9255,Gabbro_rect,15,0,15,0,1,
665b3f30f783306ae5987e27,SCN,2024-06-25_12h40.10.975,LearnStrategy,2023.2.3,Win32,60.24096386,2,1,1,-0.207407379,-0.118518533,1,0,0,4.0732,Pumice_13,8,13,3,3,4.073,0.373148176,-0.399074131,1,0,0,1.2935,Pumice_rect,8,1.293,1,0,0,0,0,1,,,,,,,,,,,,,
665b3f30f783306ae5987e27,SCN,2024-06-25_12h40.10.975,LearnStrategy,2023.2.3,Win32,60.24096386,2,1,2,-0.067592536,-0.273148176,1,0,0,2.683,Gabbro_15,4,15,2,4,2.683,-0.106481425,-0.413888889,1,0,0,2.3087,Pegmatite_rect,6,2.309,0,1,0,1,0,1,,,,,,,,,,,,,
665b3f30f783306ae5987e27,SCN,2024-06-25_12h40.10.975,LearnStrategy,2023.2.3,Win32,60.24096386,2,1,3,0.565740797,0.090740712,1,0,0,1.2151,Basalt_12,2,12,4,8,1.215,-0.086111111,-0.238888889,1,0,0,2.7935,Basalt_rect,2,2.793,1,2,0,2,0,1,,,,,,,,,,,,,
665b3f30f783306ae5987e27,SCN,2024-06-25_12h40.10.975,LearnStrategy,2023.2.3,Win32,60.24096386,2,1,4,-0.377777778,-0.093518533,1,0,0,1.7658,Peridotite_05,7,05,3,2,1.766,0.063888889,-0.264814843,1,0,0,2.1254,Diorite_rect,3,2.125,0,3,0,3,0,1,,,,,,,,,,,,,
665b3f30f783306ae5987e27,SCN,2024-06-25_12h40.10.975,LearnStrategy,2023.2.3,Win32,60.24096386,2,1,5,-0.394444444,0.377777778,1,0,0,2.4993,Diorite_06,3,06,6,2,2.499,0.117592621,-0.25648151,1,0,0,1.2261,Diorite_rect,3,1.226,1,4,0,4,0,1,,,,,,,,,,,,,
665b3f30f783306ae5987e27,SCN,2024-06-25_12h40.10.975,LearnStrategy,2023.2.3,Win32,60.24096386,2,1,6,0.275,-0.424074131,1,0,0,3.5649,Diorite_16,3,16,1,6,3.565,0.134259288,-0.252777778,1,0,0,1.5428,Diorite_rect,3,1.543,1,5,0,5,0,1,,,,,,,,,,,,,
665b3f30f783306ae5987e27,SCN,2024-06-25_12h40.10.975,LearnStrategy,2023.2.3,Win32,60.24096386,2,1,7,0.526851908,0.086111111,1,0,0,2.9822,Basalt_12,2,12,4,8,2.982,0.135185242,-0.401851908,1,0,0,9.553,Peridotite_rect,7,9.553,0,6,0,6,0,1,,,,,,,,,,,,,
665b3f30f783306ae5987e27,SCN,2024-06-25_12h40.10.975,LearnStrategy,2023.2.3,Win32,60.24096386,2,1,8,-0.207407379,-0.088888889,1,0,0,0.9978,Pumice_13,8,13,3,3,0.998,0.414814843,-0.383333333,1,0,0,1.8958,Pumice_rect,8,1.896,1,7,0,7,0,1,,,,,,,,,,,,,
665b3f30f783306ae5987e27,SCN,2024-06-25_12h40.10.975,LearnStrategy,2023.2.3,Win32,60.24096386,2,1,9,-0.548148134,-0.390740797,1,0,0,0.8987,Andesite_14,1,14,1,1,0.899,-0.096296268,-0.416666667,1,0,0,4.0094,Pegmatite_rect,6,4.009,0,8,0,8,0,1,,,,,,,,,,,,,
665b3f30f783306ae5987e27,SCN,2024-06-25_12h40.10.975,LearnStrategy,2023.2.3,Win32,60.24096386,2,1,10,-0.389814801,-0.438888889,1,0,0,1.0156,Basalt_11,2,11,1,2,1.016,-0.11851849,-0.234259288,1,0,0,2.3423,Basalt_rect,2,2.342,1,9,0,9,0,1,,,,,,,,,,,,,
665b3f30f783306ae5987e27,SCN,2024-06-25_12h40.10.975,LearnStrategy,2023.2.3,Win32,60.24096386,2,1,11,-0.238888889,-0.415740797,1,0,0,0.865,Peridotite_16,7,16,1,3,0.865,0.074074131,-0.389814843,1,0,0,1.8302,Peridotite_rect,7,1.83,1,10,0,10,0,1,,,,,,,,,,,,,
665b3f30f783306ae5987e27,SCN,2024-06-25_12h40.10.975,LearnStrategy,2023.2.3,Win32,60.24096386,2,1,12,-0.069444444,-0.394444444,1,0,0,0.799,Pumice_15,8,15,1,4,0.799,0.40648151,-0.400925954,1,0,0,1.3094,Pumice_rect,8,1.309,1,11,0,11,0,1,,,,,,,,,,,,,
665b3f30f783306ae5987e27,SCN,2024-06-25_12h40.10.975,LearnStrategy,2023.2.3,Win32,60.24096386,2,1,13,0.047222222,-0.434259288,1,0,0,0.8142,Andesite_04,1,04,1,5,0.814,-0.104629601,-0.401851908,1,0,0,2.6761,Pegmatite_rect,6,2.676,0,12,0,12,0,1,,,,,,,,,,,,,
665b3f30f783306ae5987e27,SCN,2024-06-25_12h40.10.975,LearnStrategy,2023.2.3,Win32,60.24096386,2,1,14,-0.55,0.437962961,1,0,0,0.9654,Andesite_03,1,03,6,1,0.965,-0.387962935,-0.261111111,1,0,0,1.7793,Andesite_rect,1,1.779,1,13,0,13,0,1,,,,,,,,,,,,,
665b3f30f783306ae5987e27,SCN,2024-06-25_12h40.10.975,LearnStrategy,2023.2.3,Win32,60.24096386,2,1,15,0.105555556,-0.245370399,1,0,0,1.8824,Basalt_01,2,01,2,5,1.882,0.38148151,-0.255555556,1,0,0,2.1925,Gabbro_rect,4,2.192,0,14,0,14,0,1,,,,,,,,,,,,,
665b3f30f783306ae5987e27,SCN,2024-06-25_12h40.10.975,LearnStrategy,2023.2.3,Win32,60.24096386,2,1,16,0.255555556,-0.294444444,1,0,0,1.0658,Gabbro_01,4,01,2,6,1.066,-0.360185157,-0.235185242,1,0,0,1.5425,Andesite_rect,1,1.543,0,15,0,15,0,1,,,,,,,,,,,,,
665b3f30f783306ae5987e27,SCN,2024-06-25_12h40.10.975,LearnStrategy,2023.2.3,Win32,60.24096386,2,2,1,,,,,,,,1,07,,,,,,,,,,,6,9.543,0,,,,,,-0.142592536,-0.407407464,1,0,0,9.5434,Pegmatite_rect,0,0,0,0,1,
665b3f30f783306ae5987e27,SCN,2024-06-25_12h40.10.975,LearnStrategy,2023.2.3,Win32,60.24096386,2,2,2,,,,,,,,5,11,,,,,,,,,,,5,1.108,1,,,,,,-0.357407379,-0.392592621,1,0,0,1.1084,Obsidian_rect,1,0,1,0,1,
665b3f30f783306ae5987e27,SCN,2024-06-25_12h40.10.975,LearnStrategy,2023.2.3,Win32,60.24096386,2,2,3,,,,,,,,2,10,,,,,,,,,,,4,1.81,0,,,,,,0.443518575,-0.237037065,1,0,0,1.8095,Gabbro_rect,2,0,2,0,1,
665b3f30f783306ae5987e27,SCN,2024-06-25_12h40.10.975,LearnStrategy,2023.2.3,Win32,60.24096386,2,2,4,,,,,,,,2,04,,,,,,,,,,,2,3.009,1,,,,,,-0.117592536,-0.239814843,1,0,0,3.0093,Basalt_rect,3,0,3,0,1,
665b3f30f783306ae5987e27,SCN,2024-06-25_12h40.10.975,LearnStrategy,2023.2.3,Win32,60.24096386,2,2,5,,,,,,,,3,10,,,,,,,,,,,3,13.357,1,,,,,,0.141666667,-0.241666667,1,0,0,13.3574,Diorite_rect,4,0,4,0,1,
665b3f30f783306ae5987e27,SCN,2024-06-25_12h40.10.975,LearnStrategy,2023.2.3,Win32,60.24096386,2,2,6,,,,,,,,5,02,,,,,,,,,,,5,3.026,1,,,,,,-0.355555556,-0.393518575,1,0,0,3.0255,Obsidian_rect,5,0,5,0,1,
665b3f30f783306ae5987e27,SCN,2024-06-25_12h40.10.975,LearnStrategy,2023.2.3,Win32,60.24096386,2,2,7,,,,,,,,8,10,,,,,,,,,,,8,2.843,1,,,,,,0.424074131,-0.410185242,1,0,0,2.8429,Pumice_rect,6,0,6,0,1,
665b3f30f783306ae5987e27,SCN,2024-06-25_12h40.10.975,LearnStrategy,2023.2.3,Win32,60.24096386,2,2,8,,,,,,,,4,14,,,,,,,,,,,4,1.792,1,,,,,,0.380555556,-0.239814843,1,0,0,1.7924,Gabbro_rect,7,0,7,0,1,
665b3f30f783306ae5987e27,SCN,2024-06-25_12h40.10.975,LearnStrategy,2023.2.3,Win32,60.24096386,2,2,9,,,,,,,,4,03,,,,,,,,,,,1,17.061,0,,,,,,-0.444444444,-0.25,1,0,0,17.0607,Andesite_rect,8,0,8,0,1,
665b3f30f783306ae5987e27,SCN,2024-06-25_12h40.10.975,LearnStrategy,2023.2.3,Win32,60.24096386,2,2,10,,,,,,,,6,09,,,,,,,,,,,6,11.378,1,,,,,,-0.113888889,-0.391666667,1,0,0,11.3779,Pegmatite_rect,9,0,9,0,1,
665b3f30f783306ae5987e27,SCN,2024-06-25_12h40.10.975,LearnStrategy,2023.2.3,Win32,60.24096386,2,2,11,,,,,,,,8,04,,,,,,,,,,,8,1.425,1,,,,,,0.333333333,-0.412037065,1,0,0,1.4255,Pumice_rect,10,0,10,0,1,
665b3f30f783306ae5987e27,SCN,2024-06-25_12h40.10.975,LearnStrategy,2023.2.3,Win32,60.24096386,2,2,12,,,,,,,,3,13,,,,,,,,,,,6,3.395,0,,,,,,-0.147222222,-0.407407464,1,0,0,3.3955,Pegmatite_rect,11,0,11,0,1,
665b3f30f783306ae5987e27,SCN,2024-06-25_12h40.10.975,LearnStrategy,2023.2.3,Win32,60.24096386,2,2,13,,,,,,,,6,15,,,,,,,,,,,6,0.742,1,,,,,,-0.147222222,-0.407407464,1,0,0,0.7425,Pegmatite_rect,12,0,12,0,1,
665b3f30f783306ae5987e27,SCN,2024-06-25_12h40.10.975,LearnStrategy,2023.2.3,Win32,60.24096386,2,2,14,,,,,,,,1,06,,,,,,,,,,,3,9.127,0,,,,,,0.092592621,-0.255555556,1,0,0,9.1271,Diorite_rect,13,0,13,0,1,
665b3f30f783306ae5987e27,SCN,2024-06-25_12h40.10.975,LearnStrategy,2023.2.3,Win32,60.24096386,2,2,15,,,,,,,,7,07,,,,,,,,,,,7,7.578,1,,,,,,0.103703732,-0.401851908,1,0,0,7.5778,Peridotite_rect,14,0,14,0,1,
665b3f30f783306ae5987e27,SCN,2024-06-25_12h40.10.975,LearnStrategy,2023.2.3,Win32,60.24096386,2,2,16,,,,,,,,7,12,,,,,,,,,,,7,1.437,1,,,,,,0.103703732,-0.401851908,1,0,0,1.4373,Peridotite_rect,15,0,15,0,1,
665b3f30f783306ae5987e27,SCN,2024-06-25_12h40.10.975,LearnStrategy,2023.2.3,Win32,60.24096386,3,1,1,-0.555555556,0.417592589,1,0,0,3.9232,Andesite_03,1,03,6,1,3.923,-0.377777778,-0.238888889,1,0,0,1.0691,Andesite_rect,1,1.069,1,0,0,0,0,1,,,,,,,,,,,,,
665b3f30f783306ae5987e27,SCN,2024-06-25_12h40.10.975,LearnStrategy,2023.2.3,Win32,60.24096386,3,1,2,0.571296353,-0.237037065,1,0,0,1.1328,Peridotite_08,7,08,2,8,1.133,0.087037065,-0.392592621,1,0,0,1.1254,Peridotite_rect,7,1.125,1,1,0,1,0,1,,,,,,,,,,,,,
665b3f30f783306ae5987e27,SCN,2024-06-25_12h40.10.975,LearnStrategy,2023.2.3,Win32,60.24096386,3,1,3,0.386111111,-0.252777778,1,0,0,0.8484,Pumice_09,8,09,2,7,0.848,0.379629686,-0.386111111,1,0,0,0.8264,Pumice_rect,8,0.826,1,2,0,2,0,1,,,,,,,,,,,,,
665b3f30f783306ae5987e27,SCN,2024-06-25_12h40.10.975,LearnStrategy,2023.2.3,Win32,60.24096386,3,1,4,0.284259288,-0.259259288,1,0,0,0.949,Gabbro_01,4,01,2,6,0.949,0.104629686,-0.247222222,1,0,0,3.7248,Diorite_rect,3,3.725,0,3,0,3,0,1,,,,,,,,,,,,,
665b3f30f783306ae5987e27,SCN,2024-06-25_12h40.10.975,LearnStrategy,2023.2.3,Win32,60.24096386,3,1,5,0.098148176,-0.257407464,1,0,0,1.1316,Basalt_01,2,01,2,5,1.132,-0.157407379,-0.259259288,1,0,0,2.3429,Basalt_rect,2,2.343,1,4,0,4,0,1,,,,,,,,,,,,,
665b3f30f783306ae5987e27,SCN,2024-06-25_12h40.10.975,LearnStrategy,2023.2.3,Win32,60.24096386,3,1,6,-0.073148092,-0.270370399,1,0,0,1.2818,Gabbro_15,4,15,2,4,1.282,-0.069444444,-0.386111111,1,0,0,1.8976,Pegmatite_rect,6,1.898,0,5,0,5,0,1,,,,,,,,,,,,,
665b3f30f783306ae5987e27,SCN,2024-06-25_12h40.10.975,LearnStrategy,2023.2.3,Win32,60.24096386,3,1,7,-0.233333333,-0.246296353,1,0,0,0.9494,Gabbro_10,4,10,2,3,0.949,-0.175925869,-0.248148176,1,0,0,2.3588,Basalt_rect,2,2.359,0,6,0,6,0,1,,,,,,,,,,,,,
665b3f30f783306ae5987e27,SCN,2024-06-25_12h40.10.975,LearnStrategy,2023.2.3,Win32,60.24096386,3,1,8,0.547222222,-0.090740755,1,0,0,1.2483,Pegmatite_10,6,10,3,8,1.248,0.048148176,-0.389814843,1,0,0,1.2086,Peridotite_rect,7,1.209,0,7,0,7,0,1,,,,,,,,,,,,,
665b3f30f783306ae5987e27,SCN,2024-06-25_12h40.10.975,LearnStrategy,2023.2.3,Win32,60.24096386,3,1,9,0.362037065,-0.090740755,1,0,0,0.8484,Andesite_10,1,10,3,7,0.848,-0.110185157,-0.268518575,1,0,0,7.4092,Basalt_rect,2,7.409,0,8,0,8,0,1,,,,,,,,,,,,,
665b3f30f783306ae5987e27,SCN,2024-06-25_12h40.10.975,LearnStrategy,2023.2.3,Win32,60.24096386,3,1,10,0.229629686,-0.078703732,1,0,0,0.7989,Pumice_05,8,05,3,6,0.799,0.335185242,-0.401851908,1,0,0,1.0596,Pumice_rect,8,1.06,1,9,0,9,0,1,,,,,,,,,,,,,
665b3f30f783306ae5987e27,SCN,2024-06-25_12h40.10.975,LearnStrategy,2023.2.3,Win32,60.24096386,3,1,11,0.061111111,-0.080555556,1,0,0,0.7991,Pumice_08,8,08,3,5,0.799,0.357407464,-0.384259288,1,0,0,1.6594,Pumice_rect,8,1.659,1,10,0,10,0,1,,,,,,,,,,,,,
665b3f30f783306ae5987e27,SCN,2024-06-25_12h40.10.975,LearnStrategy,2023.2.3,Win32,60.24096386,3,1,12,-0.062036981,-0.076851866,1,0,0,1.2992,Pegmatite_16,6,16,3,4,1.299,-0.099074046,-0.391666667,1,0,0,1.0929,Pegmatite_rect,6,1.093,1,11,0,11,0,1,,,,,,,,,,,,,
665b3f30f783306ae5987e27,SCN,2024-06-25_12h40.10.975,LearnStrategy,2023.2.3,Win32,60.24096386,3,1,13,0.230555556,0.079629601,1,0,0,3.7664,Pegmatite_07,6,07,4,6,3.766,-0.064814758,-0.391666667,1,0,0,1.2358,Pegmatite_rect,6,1.236,1,12,0,12,0,1,,,,,,,,,,,,,
665b3f30f783306ae5987e27,SCN,2024-06-25_12h40.10.975,LearnStrategy,2023.2.3,Win32,60.24096386,3,1,14,0.099074131,0.10370369,1,0,0,0.6324,Andesite_05,1,05,4,5,0.632,-0.145370314,-0.415740797,1,0,0,2.4588,Pegmatite_rect,6,2.459,0,13,0,13,0,1,,,,,,,,,,,,,
665b3f30f783306ae5987e27,SCN,2024-06-25_12h40.10.975,LearnStrategy,2023.2.3,Win32,60.24096386,3,1,15,-0.061111111,0.107407379,1,0,0,0.8486,Gabbro_12,4,12,4,4,0.849,0.389814843,-0.245370399,1,0,0,6.7585,Gabbro_rect,4,6.758,1,14,0,14,0,1,,,,,,,,,,,,,
665b3f30f783306ae5987e27,SCN,2024-06-25_12h40.10.975,LearnStrategy,2023.2.3,Win32,60.24096386,3,1,16,-0.212037023,0.074074046,1,0,0,0.7655,Basalt_06,2,06,4,3,0.765,-0.177777778,-0.263888889,1,0,0,0.9926,Basalt_rect,2,0.993,1,15,0,15,0,1,,,,,,,,,,,,,
665b3f30f783306ae5987e27,SCN,2024-06-25_12h40.10.975,LearnStrategy,2023.2.3,Win32,60.24096386,3,2,1,,,,,,,,2,02,,,,,,,,,,,2,2.26,1,,,,,,-0.149074046,-0.25648151,1,0,0,2.26,Basalt_rect,0,0,0,0,1,
665b3f30f783306ae5987e27,SCN,2024-06-25_12h40.10.975,LearnStrategy,2023.2.3,Win32,60.24096386,3,2,2,,,,,,,,5,12,,,,,,,,,,,5,1.326,1,,,,,,-0.352777778,-0.421296353,1,0,0,1.3264,Obsidian_rect,1,0,1,0,1,
665b3f30f783306ae5987e27,SCN,2024-06-25_12h40.10.975,LearnStrategy,2023.2.3,Win32,60.24096386,3,2,3,,,,,,,,1,11,,,,,,,,,,,3,7.894,0,,,,,,0.098148176,-0.23148151,1,0,0,7.8944,Diorite_rect,2,0,2,0,1,
665b3f30f783306ae5987e27,SCN,2024-06-25_12h40.10.975,LearnStrategy,2023.2.3,Win32,60.24096386,3,2,4,,,,,,,,3,11,,,,,,,,,,,3,3.576,1,,,,,,0.083333333,-0.242592621,1,0,0,3.5762,Diorite_rect,3,0,3,0,1,
665b3f30f783306ae5987e27,SCN,2024-06-25_12h40.10.975,LearnStrategy,2023.2.3,Win32,60.24096386,3,2,5,,,,,,,,8,02,,,,,,,,,,,8,1.493,1,,,,,,0.407407464,-0.415740797,1,0,0,1.493,Pumice_rect,4,0,4,0,1,
665b3f30f783306ae5987e27,SCN,2024-06-25_12h40.10.975,LearnStrategy,2023.2.3,Win32,60.24096386,3,2,6,,,,,,,,4,09,,,,,,,,,,,6,3.794,0,,,,,,-0.149074046,-0.396296353,1,0,0,3.794,Pegmatite_rect,5,0,5,0,1,
665b3f30f783306ae5987e27,SCN,2024-06-25_12h40.10.975,LearnStrategy,2023.2.3,Win32,60.24096386,3,2,7,,,,,,,,1,02,,,,,,,,,,,3,4.443,0,,,,,,0.15648151,-0.237963019,1,0,0,4.4432,Diorite_rect,6,0,6,0,1,
665b3f30f783306ae5987e27,SCN,2024-06-25_12h40.10.975,LearnStrategy,2023.2.3,Win32,60.24096386,3,2,8,,,,,,,,6,03,,,,,,,,,,,6,1.309,1,,,,,,-0.074074046,-0.410185242,1,0,0,1.3086,Pegmatite_rect,7,0,7,0,1,
665b3f30f783306ae5987e27,SCN,2024-06-25_12h40.10.975,LearnStrategy,2023.2.3,Win32,60.24096386,3,2,9,,,,,,,,2,09,,,,,,,,,,,2,1.817,1,,,,,,-0.139814758,-0.248148176,1,0,0,1.8165,Basalt_rect,8,0,8,0,1,
665b3f30f783306ae5987e27,SCN,2024-06-25_12h40.10.975,LearnStrategy,2023.2.3,Win32,60.24096386,3,2,10,,,,,,,,6,08,,,,,,,,,,,6,2.256,1,,,,,,-0.09351849,-0.390740797,1,0,0,2.2562,Pegmatite_rect,9,0,9,0,1,
665b3f30f783306ae5987e27,SCN,2024-06-25_12h40.10.975,LearnStrategy,2023.2.3,Win32,60.24096386,3,2,11,,,,,,,,7,10,,,,,,,,,,,7,1.31,1,,,,,,0.159259288,-0.408333333,1,0,0,1.3105,Peridotite_rect,10,0,10,0,1,
665b3f30f783306ae5987e27,SCN,2024-06-25_12h40.10.975,LearnStrategy,2023.2.3,Win32,60.24096386,3,2,12,,,,,,,,5,16,,,,,,,,,,,5,1.693,1,,,,,,-0.370370356,-0.402777778,1,0,0,1.6928,Obsidian_rect,11,0,11,0,1,
665b3f30f783306ae5987e27,SCN,2024-06-25_12h40.10.975,LearnStrategy,2023.2.3,Win32,60.24096386,3,2,13,,,,,,,,4,11,,,,,,,,,,,1,2.443,0,,,,,,-0.367592578,-0.241666667,1,0,0,2.4434,Andesite_rect,12,0,12,0,1,
665b3f30f783306ae5987e27,SCN,2024-06-25_12h40.10.975,LearnStrategy,2023.2.3,Win32,60.24096386,3,2,14,,,,,,,,7,14,,,,,,,,,,,7,1.592,1,,,,,,0.135185242,-0.413888889,1,0,0,1.5924,Peridotite_rect,13,0,13,0,1,
665b3f30f783306ae5987e27,SCN,2024-06-25_12h40.10.975,LearnStrategy,2023.2.3,Win32,60.24096386,3,2,15,,,,,,,,8,14,,,,,,,,,,,8,1.145,1,,,,,,0.333333333,-0.410185242,1,0,0,1.1451,Pumice_rect,14,0,14,0,1,
665b3f30f783306ae5987e27,SCN,2024-06-25_12h40.10.975,LearnStrategy,2023.2.3,Win32,60.24096386,3,2,16,,,,,,,,3,12,,,,,,,,,,,3,3.243,1,,,,,,0.1,-0.258333333,1,0,0,3.2429,Diorite_rect,15,0,15,0,1,
665b3f30f783306ae5987e27,SCN,2024-06-25_12h40.10.975,LearnStrategy,2023.2.3,Win32,60.24096386,4,1,1,0.066666667,-0.297222222,1,0,0,2.7925,Basalt_01,2,01,2,5,2.793,0.339814843,-0.245370399,1,0,0,1.6416,Gabbro_rect,4,1.642,0,0,0,0,0,1,,,,,,,,,,,,,
665b3f30f783306ae5987e27,SCN,2024-06-25_12h40.10.975,LearnStrategy,2023.2.3,Win32,60.24096386,4,1,2,-0.543518511,0.261111111,1,0,0,3.1829,Diorite_14,3,14,5,1,3.183,0.119444444,-0.245370399,1,0,0,1.0857,Diorite_rect,3,1.086,1,1,0,1,0,1,,,,,,,,,,,,,
665b3f30f783306ae5987e27,SCN,2024-06-25_12h40.10.975,LearnStrategy,2023.2.3,Win32,60.24096386,4,1,3,-0.577777778,0.087037023,1,0,0,0.849,Gabbro_16,4,16,4,1,0.849,0.403703732,-0.243518575,1,0,0,2.5649,Gabbro_rect,4,2.565,1,2,0,2,0,1,,,,,,,,,,,,,
665b3f30f783306ae5987e27,SCN,2024-06-25_12h40.10.975,LearnStrategy,2023.2.3,Win32,60.24096386,4,1,4,-0.551851845,-0.110185199,1,0,0,0.7814,Diorite_15,3,15,3,1,0.781,-0.334259245,-0.229629686,1,0,0,1.3094,Andesite_rect,1,1.309,0,3,0,3,0,1,,,,,,,,,,,,,
665b3f30f783306ae5987e27,SCN,2024-06-25_12h40.10.975,LearnStrategy,2023.2.3,Win32,60.24096386,4,1,5,-0.401851824,-0.25648151,1,0,0,2.4993,Andesite_09,1,09,2,2,2.499,-0.359259245,-0.238888889,1,0,0,1.0361,Andesite_rect,1,1.036,1,4,0,4,0,1,,,,,,,,,,,,,
665b3f30f783306ae5987e27,SCN,2024-06-25_12h40.10.975,LearnStrategy,2023.2.3,Win32,60.24096386,4,1,6,0.091666667,-0.142592621,1,0,0,0.715,Pumice_08,8,08,3,5,0.715,0.393518575,-0.408333333,1,0,0,0.8428,Pumice_rect,8,0.843,1,5,0,5,0,1,,,,,,,,,,,,,
665b3f30f783306ae5987e27,SCN,2024-06-25_12h40.10.975,LearnStrategy,2023.2.3,Win32,60.24096386,4,1,7,0.575926039,0.083333333,1,0,0,0.615,Basalt_12,2,12,4,8,0.615,-0.112036981,-0.238888889,1,0,0,2.0796,Basalt_rect,2,2.08,1,6,0,6,0,1,,,,,,,,,,,,,
665b3f30f783306ae5987e27,SCN,2024-06-25_12h40.10.975,LearnStrategy,2023.2.3,Win32,60.24096386,4,1,8,-0.064814758,0.263888889,1,0,0,0.9158,Gabbro_08,4,08,5,4,0.916,-0.359259245,-0.23148151,1,0,0,1.3935,Andesite_rect,1,1.393,0,7,0,7,0,1,,,,,,,,,,,,,
665b3f30f783306ae5987e27,SCN,2024-06-25_12h40.10.975,LearnStrategy,2023.2.3,Win32,60.24096386,4,1,9,-0.069444444,0.237962956,1,0,0,1.4326,Gabbro_08,4,08,5,4,1.433,0.372222222,-0.267592621,1,0,0,1.4193,Gabbro_rect,4,1.419,1,8,0,8,0,1,,,,,,,,,,,,,
665b3f30f783306ae5987e27,SCN,2024-06-25_12h40.10.975,LearnStrategy,2023.2.3,Win32,60.24096386,4,1,10,0.087963019,0.412962961,1,0,0,1.4486,Diorite_09,3,09,6,5,1.449,0.093518575,-0.270370399,1,0,0,1.1922,Diorite_rect,3,1.192,1,9,0,9,0,1,,,,,,,,,,,,,
665b3f30f783306ae5987e27,SCN,2024-06-25_12h40.10.975,LearnStrategy,2023.2.3,Win32,60.24096386,4,1,11,0.232407464,-0.405555556,1,0,0,1.7485,Diorite_16,3,16,1,6,1.748,0.088888889,-0.237963019,1,0,0,0.7092,Diorite_rect,3,0.709,1,10,0,10,0,1,,,,,,,,,,,,,
665b3f30f783306ae5987e27,SCN,2024-06-25_12h40.10.975,LearnStrategy,2023.2.3,Win32,60.24096386,4,1,12,-0.395370356,-0.087962977,1,0,0,1.5992,Peridotite_05,7,05,3,2,1.599,0.136111111,-0.413888889,1,0,0,1.1928,Peridotite_rect,7,1.193,1,11,0,11,0,1,,,,,,,,,,,,,
665b3f30f783306ae5987e27,SCN,2024-06-25_12h40.10.975,LearnStrategy,2023.2.3,Win32,60.24096386,4,1,13,-0.237037023,0.397222222,1,0,0,4.807,Pegmatite_12,6,12,6,3,4.807,-0.125,-0.413888889,1,0,0,1.5677,Pegmatite_rect,6,1.568,1,12,0,12,0,1,,,,,,,,,,,,,
665b3f30f783306ae5987e27,SCN,2024-06-25_12h40.10.975,LearnStrategy,2023.2.3,Win32,60.24096386,4,1,14,0.068518575,-0.411111111,1,0,0,2.0485,Andesite_04,1,04,1,5,2.048,0.124074131,-0.260185242,1,0,0,2.1929,Diorite_rect,3,2.193,0,13,0,13,0,1,,,,,,,,,,,,,
665b3f30f783306ae5987e27,SCN,2024-06-25_12h40.10.975,LearnStrategy,2023.2.3,Win32,60.24096386,4,1,15,0.087963019,-0.252777778,1,0,0,1.1477,Basalt_01,2,01,2,5,1.148,-0.095370314,-0.254629686,1,0,0,1.1258,Basalt_rect,2,1.126,1,14,0,14,0,1,,,,,,,,,,,,,
665b3f30f783306ae5987e27,SCN,2024-06-25_12h40.10.975,LearnStrategy,2023.2.3,Win32,60.24096386,4,1,16,0.409259288,-0.411111111,1,0,0,1.982,Pegmatite_06,6,06,1,7,1.982,-0.102777778,-0.396296353,1,0,0,0.8759,Pegmatite_rect,6,0.876,1,15,0,15,0,1,,,,,,,,,,,,,
665b3f30f783306ae5987e27,SCN,2024-06-25_12h40.10.975,LearnStrategy,2023.2.3,Win32,60.24096386,4,2,1,,,,,,,,1,06,,,,,,,,,,,1,2.693,1,,,,,,-0.373148134,-0.237037065,1,0,0,2.6933,Andesite_rect,0,0,0,0,1,
665b3f30f783306ae5987e27,SCN,2024-06-25_12h40.10.975,LearnStrategy,2023.2.3,Win32,60.24096386,4,2,2,,,,,,,,5,16,,,,,,,,,,,5,1.259,1,,,,,,-0.390740712,-0.407407464,1,0,0,1.2593,Obsidian_rect,1,0,1,0,1,
665b3f30f783306ae5987e27,SCN,2024-06-25_12h40.10.975,LearnStrategy,2023.2.3,Win32,60.24096386,4,2,3,,,,,,,,4,09,,,,,,,,,,,6,3.81,0,,,,,,-0.153703647,-0.392592621,1,0,0,3.8103,Pegmatite_rect,2,0,2,0,1,
665b3f30f783306ae5987e27,SCN,2024-06-25_12h40.10.975,LearnStrategy,2023.2.3,Win32,60.24096386,4,2,4,,,,,,,,7,14,,,,,,,,,,,7,1.759,1,,,,,,0.146296353,-0.391666667,1,0,0,1.759,Peridotite_rect,3,0,3,0,1,
665b3f30f783306ae5987e27,SCN,2024-06-25_12h40.10.975,LearnStrategy,2023.2.3,Win32,60.24096386,4,2,5,,,,,,,,5,12,,,,,,,,,,,5,1.12,1,,,,,,-0.373148134,-0.405555556,1,0,0,1.1202,Obsidian_rect,4,0,4,0,1,
665b3f30f783306ae5987e27,SCN,2024-06-25_12h40.10.975,LearnStrategy,2023.2.3,Win32,60.24096386,4,2,6,,,,,,,,3,10,,,,,,,,,,,3,1.393,1,,,,,,0.087037065,-0.244444444,1,0,0,1.3934,Diorite_rect,5,0,5,0,1,
665b3f30f783306ae5987e27,SCN,2024-06-25_12h40.10.975,LearnStrategy,2023.2.3,Win32,60.24096386,4,2,7,,,,,,,,1,07,,,,,,,,,,,3,3.092,0,,,,,,0.087037065,-0.244444444,1,0,0,3.0919,Diorite_rect,6,0,6,0,1,
665b3f30f783306ae5987e27,SCN,2024-06-25_12h40.10.975,LearnStrategy,2023.2.3,Win32,60.24096386,4,2,8,,,,,,,,3,13,,,,,,,,,,,3,2.477,1,,,,,,0.095370399,-0.253703732,1,0,0,2.4767,Diorite_rect,7,0,7,0,1,
665b3f30f783306ae5987e27,SCN,2024-06-25_12h40.10.975,LearnStrategy,2023.2.3,Win32,60.24096386,4,2,9,,,,,,,,2,02,,,,,,,,,,,2,2.526,1,,,,,,-0.106481425,-0.258333333,1,0,0,2.5259,Basalt_rect,8,0,8,0,1,
665b3f30f783306ae5987e27,SCN,2024-06-25_12h40.10.975,LearnStrategy,2023.2.3,Win32,60.24096386,4,2,10,,,,,,,,6,15,,,,,,,,,,,6,1.109,1,,,,,,-0.114814758,-0.417592621,1,0,0,1.1094,Pegmatite_rect,9,0,9,0,1,
665b3f30f783306ae5987e27,SCN,2024-06-25_12h40.10.975,LearnStrategy,2023.2.3,Win32,60.24096386,4,2,11,,,,,,,,8,04,,,,,,,,,,,8,1.827,1,,,,,,0.393518575,-0.413888889,1,0,0,1.8265,Pumice_rect,10,0,10,0,1,
665b3f30f783306ae5987e27,SCN,2024-06-25_12h40.10.975,LearnStrategy,2023.2.3,Win32,60.24096386,4,2,12,,,,,,,,2,14,,,,,,,,,,,8,2.166,0,,,,,,0.371296353,-0.387963019,1,0,0,2.1656,Pumice_rect,11,0,11,0,1,
665b3f30f783306ae5987e27,SCN,2024-06-25_12h40.10.975,LearnStrategy,2023.2.3,Win32,60.24096386,4,2,13,,,,,,,,7,06,,,,,,,,,,,6,1.943,0,,,,,,-0.128703647,-0.387963019,1,0,0,1.943,Pegmatite_rect,12,0,12,0,1,
665b3f30f783306ae5987e27,SCN,2024-06-25_12h40.10.975,LearnStrategy,2023.2.3,Win32,60.24096386,4,2,14,,,,,,,,8,10,,,,,,,,,,,8,1.296,1,,,,,,0.403703732,-0.395370399,1,0,0,1.2964,Pumice_rect,13,0,13,0,1,
665b3f30f783306ae5987e27,SCN,2024-06-25_12h40.10.975,LearnStrategy,2023.2.3,Win32,60.24096386,4,2,15,,,,,,,,4,13,,,,,,,,,,,4,1.793,1,,,,,,0.409259288,-0.257407464,1,0,0,1.793,Gabbro_rect,14,0,14,0,1,
665b3f30f783306ae5987e27,SCN,2024-06-25_12h40.10.975,LearnStrategy,2023.2.3,Win32,60.24096386,4,2,16,,,,,,,,6,05,,,,,,,,,,,6,1.314,1,,,,,,-0.087036981,-0.394444444,1,0,0,1.3136,Pegmatite_rect,15,0,15,0,1,
665b3f30f783306ae5987e27,SCN,2024-06-25_12h40.10.975,LearnStrategy,2023.2.3,Win32,60.24096386,5,1,1,0.116666667,0.073148134,1,0,0,6.2651,Andesite_05,1,05,4,5,6.265,-0.358333333,-0.265740797,1,0,0,1.519,Andesite_rect,1,1.519,1,0,0,0,0,1,,,,,,,,,,,,,
665b3f30f783306ae5987e27,SCN,2024-06-25_12h40.10.975,LearnStrategy,2023.2.3,Win32,60.24096386,5,1,2,-0.051851824,0.090740712,1,0,0,0.9819,Gabbro_12,4,12,4,4,0.982,0.342592621,-0.239814843,1,0,0,1.932,Gabbro_rect,4,1.932,1,1,0,1,0,1,,,,,,,,,,,,,
665b3f30f783306ae5987e27,SCN,2024-06-25_12h40.10.975,LearnStrategy,2023.2.3,Win32,60.24096386,5,1,3,0.093518575,-0.221296353,1,0,0,4.2988,Basalt_01,2,01,2,5,4.299,-0.109259203,-0.246296353,1,0,0,0.7195,Basalt_rect,2,0.72,1,2,0,2,0,1,,,,,,,,,,,,,
665b3f30f783306ae5987e27,SCN,2024-06-25_12h40.10.975,LearnStrategy,2023.2.3,Win32,60.24096386,5,1,4,-0.089814758,0.15,1,0,0,0.8324,Gabbro_12,4,12,4,4,0.832,0.384259288,-0.25,1,0,0,0.9922,Gabbro_rect,4,0.992,1,3,0,3,0,1,,,,,,,,,,,,,
665b3f30f783306ae5987e27,SCN,2024-06-25_12h40.10.975,LearnStrategy,2023.2.3,Win32,60.24096386,5,1,5,-0.422222222,0.092592578,1,0,0,0.9163,Peridotite_02,7,02,4,2,0.916,0.119444444,-0.399074131,1,0,0,1.5262,Peridotite_rect,7,1.526,1,4,0,4,0,1,,,,,,,,,,,,,
665b3f30f783306ae5987e27,SCN,2024-06-25_12h40.10.975,LearnStrategy,2023.2.3,Win32,60.24096386,5,1,6,-0.215740712,-0.253703732,1,0,0,3.4497,Gabbro_10,4,10,2,3,3.45,-0.137036981,-0.418518575,1,0,0,1.6916,Pegmatite_rect,6,1.692,0,5,0,5,0,1,,,,,,,,,,,,,
665b3f30f783306ae5987e27,SCN,2024-06-25_12h40.10.975,LearnStrategy,2023.2.3,Win32,60.24096386,5,1,7,0.560185242,0.390740734,1,0,0,2.8484,Pumice_03,8,03,6,8,2.848,0.358333333,-0.400925954,1,0,0,0.9692,Pumice_rect,8,0.969,1,6,0,6,0,1,,,,,,,,,,,,,
665b3f30f783306ae5987e27,SCN,2024-06-25_12h40.10.975,LearnStrategy,2023.2.3,Win32,60.24096386,5,1,8,-0.391666667,0.398148145,1,0,0,3.2654,Diorite_06,3,06,6,2,3.265,0.062963019,-0.240740797,1,0,0,1.3932,Diorite_rect,3,1.393,1,7,0,7,0,1,,,,,,,,,,,,,
665b3f30f783306ae5987e27,SCN,2024-06-25_12h40.10.975,LearnStrategy,2023.2.3,Win32,60.24096386,5,1,9,-0.214814801,0.413888889,1,0,0,1.1824,Pegmatite_12,6,12,6,3,1.182,-0.125925869,-0.40648151,1,0,0,1.1759,Pegmatite_rect,6,1.176,1,8,0,8,0,1,,,,,,,,,,,,,
665b3f30f783306ae5987e27,SCN,2024-06-25_12h40.10.975,LearnStrategy,2023.2.3,Win32,60.24096386,5,1,10,0.075,0.402777778,1,0,0,1.3824,Diorite_09,3,09,6,5,1.382,0.125925954,-0.269444444,1,0,0,1.3425,Diorite_rect,3,1.342,1,9,0,9,0,1,,,,,,,,,,,,,
665b3f30f783306ae5987e27,SCN,2024-06-25_12h40.10.975,LearnStrategy,2023.2.3,Win32,60.24096386,5,1,11,0.399074131,0.406481478,1,0,0,1.6655,Pegmatite_11,6,11,6,7,1.666,-0.355555556,-0.404629686,1,0,0,1.1929,Obsidian_rect,5,1.193,0,10,0,10,0,1,,,,,,,,,,,,,
665b3f30f783306ae5987e27,SCN,2024-06-25_12h40.10.975,LearnStrategy,2023.2.3,Win32,60.24096386,5,1,12,-0.562037023,0.224074067,1,0,0,1.7993,Diorite_14,3,14,5,1,1.799,0.122222222,-0.236111111,1,0,0,2.176,Diorite_rect,3,2.176,1,11,0,11,0,1,,,,,,,,,,,,,
665b3f30f783306ae5987e27,SCN,2024-06-25_12h40.10.975,LearnStrategy,2023.2.3,Win32,60.24096386,5,1,13,-0.082407379,0.256481467,1,0,0,1.8316,Gabbro_08,4,08,5,4,1.832,0.290740797,-0.269444444,1,0,0,1.5761,Gabbro_rect,4,1.576,1,12,0,12,0,1,,,,,,,,,,,,,
665b3f30f783306ae5987e27,SCN,2024-06-25_12h40.10.975,LearnStrategy,2023.2.3,Win32,60.24096386,5,1,14,0.099074131,0.240740734,1,0,0,1.2153,Obsidian_05,5,05,5,5,1.215,-0.388888889,-0.382407464,1,0,0,1.2754,Obsidian_rect,5,1.275,1,13,0,13,0,1,,,,,,,,,,,,,
665b3f30f783306ae5987e27,SCN,2024-06-25_12h40.10.975,LearnStrategy,2023.2.3,Win32,60.24096386,5,1,15,0.258333333,0.242592578,1,0,0,0.916,Diorite_08,3,08,5,6,0.916,0.074074131,-0.261111111,1,0,0,0.7759,Diorite_rect,3,0.776,1,14,0,14,0,1,,,,,,,,,,,,,
665b3f30f783306ae5987e27,SCN,2024-06-25_12h40.10.975,LearnStrategy,2023.2.3,Win32,60.24096386,5,1,16,-0.555555556,0.075925912,1,0,0,2.3157,Gabbro_16,4,16,4,1,2.316,0.394444444,-0.255555556,1,0,0,1.7764,Gabbro_rect,4,1.776,1,15,0,15,0,1,,,,,,,,,,,,,
665b3f30f783306ae5987e27,SCN,2024-06-25_12h40.10.975,LearnStrategy,2023.2.3,Win32,60.24096386,5,2,1,,,,,,,,2,09,,,,,,,,,,,2,2.509,1,,,,,,-0.087962935,-0.238888889,1,0,0,2.5089,Basalt_rect,0,0,0,0,1,
665b3f30f783306ae5987e27,SCN,2024-06-25_12h40.10.975,LearnStrategy,2023.2.3,Win32,60.24096386,5,2,2,,,,,,,,4,03,,,,,,,,,,,3,1.243,0,,,,,,0.087963019,-0.254629686,1,0,0,1.2431,Diorite_rect,1,0,1,0,1,
665b3f30f783306ae5987e27,SCN,2024-06-25_12h40.10.975,LearnStrategy,2023.2.3,Win32,60.24096386,5,2,3,,,,,,,,7,12,,,,,,,,,,,7,1.56,1,,,,,,0.114814843,-0.415740797,1,0,0,1.5595,Peridotite_rect,2,0,2,0,1,
665b3f30f783306ae5987e27,SCN,2024-06-25_12h40.10.975,LearnStrategy,2023.2.3,Win32,60.24096386,5,2,4,,,,,,,,7,10,,,,,,,,,,,7,0.826,1,,,,,,0.114814843,-0.415740797,1,0,0,0.8256,Peridotite_rect,3,0,3,0,1,
665b3f30f783306ae5987e27,SCN,2024-06-25_12h40.10.975,LearnStrategy,2023.2.3,Win32,60.24096386,5,2,5,,,,,,,,4,05,,,,,,,,,,,4,2.692,1,,,,,,0.413888889,-0.232407464,1,0,0,2.6925,Gabbro_rect,4,0,4,0,1,
665b3f30f783306ae5987e27,SCN,2024-06-25_12h40.10.975,LearnStrategy,2023.2.3,Win32,60.24096386,5,2,6,,,,,,,,1,02,,,,,,,,,,,3,2.908,0,,,,,,0.10648151,-0.234259288,1,0,0,2.9081,Diorite_rect,5,0,5,0,1,
665b3f30f783306ae5987e27,SCN,2024-06-25_12h40.10.975,LearnStrategy,2023.2.3,Win32,60.24096386,5,2,7,,,,,,,,6,08,,,,,,,,,,,6,2.826,1,,,,,,-0.126851824,-0.400925954,1,0,0,2.8258,Pegmatite_rect,6,0,6,0,1,
665b3f30f783306ae5987e27,SCN,2024-06-25_12h40.10.975,LearnStrategy,2023.2.3,Win32,60.24096386,5,2,8,,,,,,,,5,14,,,,,,,,,,,5,1.187,1,,,,,,-0.366666667,-0.392592621,1,0,0,1.1867,Obsidian_rect,7,0,7,0,1,
665b3f30f783306ae5987e27,SCN,2024-06-25_12h40.10.975,LearnStrategy,2023.2.3,Win32,60.24096386,5,2,9,,,,,,,,5,02,,,,,,,,,,,5,0.765,1,,,,,,-0.366666667,-0.392592621,1,0,0,0.7654,Obsidian_rect,8,0,8,0,1,
665b3f30f783306ae5987e27,SCN,2024-06-25_12h40.10.975,LearnStrategy,2023.2.3,Win32,60.24096386,5,2,10,,,,,,,,8,14,,,,,,,,,,,8,1.144,1,,,,,,0.366666667,-0.407407464,1,0,0,1.1436,Pumice_rect,9,0,9,0,1,
665b3f30f783306ae5987e27,SCN,2024-06-25_12h40.10.975,LearnStrategy,2023.2.3,Win32,60.24096386,5,2,11,,,,,,,,8,06,,,,,,,,,,,8,0.708,1,,,,,,0.366666667,-0.407407464,1,0,0,0.7084,Pumice_rect,10,0,10,0,1,
665b3f30f783306ae5987e27,SCN,2024-06-25_12h40.10.975,LearnStrategy,2023.2.3,Win32,60.24096386,5,2,12,,,,,,,,2,04,,,,,,,,,,,2,1.642,1,,,,,,-0.167592536,-0.254629686,1,0,0,1.6416,Basalt_rect,11,0,11,0,1,
665b3f30f783306ae5987e27,SCN,2024-06-25_12h40.10.975,LearnStrategy,2023.2.3,Win32,60.24096386,5,2,13,,,,,,,,6,13,,,,,,,,,,,6,2.625,1,,,,,,-0.121296268,-0.396296353,1,0,0,2.6254,Pegmatite_rect,12,0,12,0,1,
665b3f30f783306ae5987e27,SCN,2024-06-25_12h40.10.975,LearnStrategy,2023.2.3,Win32,60.24096386,5,2,14,,,,,,,,1,01,,,,,,,,,,,3,3.176,0,,,,,,0.169444444,-0.238888889,1,0,0,3.1759,Diorite_rect,13,0,13,0,1,
665b3f30f783306ae5987e27,SCN,2024-06-25_12h40.10.975,LearnStrategy,2023.2.3,Win32,60.24096386,5,2,15,,,,,,,,3,12,,,,,,,,,,,3,1.436,1,,,,,,0.130555556,-0.234259288,1,0,0,1.4365,Diorite_rect,14,0,14,0,1,
665b3f30f783306ae5987e27,SCN,2024-06-25_12h40.10.975,LearnStrategy,2023.2.3,Win32,60.24096386,5,2,16,,,,,,,,3,11,,,,,,,,,,,3,1.561,1,,,,,,0.122222222,-0.259259288,1,0,0,1.5608,Diorite_rect,15,0,15,0,1,
665b3f30f783306ae5987e27,SCN,2024-06-25_12h40.10.975,LearnStrategy,2023.2.3,Win32,60.24096386,6,1,1,-0.084259203,-0.263888889,1,0,0,2.3161,Gabbro_15,4,15,2,4,2.316,0.326851908,-0.245370399,1,0,0,2.3666,Gabbro_rect,4,2.367,1,0,0,0,0,1,,,,,,,,,,,,,
665b3f30f783306ae5987e27,SCN,2024-06-25_12h40.10.975,LearnStrategy,2023.2.3,Win32,60.24096386,6,1,2,0.058333333,0.133333333,1,0,0,6.9982,Andesite_05,1,05,4,5,6.998,-0.371296268,-0.268518575,1,0,0,1.7521,Andesite_rect,1,1.752,1,1,0,1,0,1,,,,,,,,,,,,,
665b3f30f783306ae5987e27,SCN,2024-06-25_12h40.10.975,LearnStrategy,2023.2.3,Win32,60.24096386,6,1,3,0.568518575,-0.262037065,1,0,0,2.9318,Peridotite_08,7,08,2,8,2.932,0.119444444,-0.391666667,1,0,0,1.8023,Peridotite_rect,7,1.802,1,2,0,2,0,1,,,,,,,,,,,,,
665b3f30f783306ae5987e27,SCN,2024-06-25_12h40.10.975,LearnStrategy,2023.2.3,Win32,60.24096386,6,1,4,0.35,-0.441666667,1,0,0,1.7487,Pegmatite_06,6,06,1,7,1.749,-0.057407379,-0.394444444,1,0,0,1.0265,Pegmatite_rect,6,1.027,1,3,0,3,0,1,,,,,,,,,,,,,
665b3f30f783306ae5987e27,SCN,2024-06-25_12h40.10.975,LearnStrategy,2023.2.3,Win32,60.24096386,6,1,5,0.104629686,-0.454629686,1,0,0,0.7996,Andesite_04,1,04,1,5,0.8,-0.374074046,-0.232407464,1,0,0,1.3239,Andesite_rect,1,1.324,1,4,0,4,0,1,,,,,,,,,,,,,
665b3f30f783306ae5987e27,SCN,2024-06-25_12h40.10.975,LearnStrategy,2023.2.3,Win32,60.24096386,6,1,6,-0.083333333,-0.422222222,1,0,0,0.7985,Pumice_15,8,15,1,4,0.799,0.353703732,-0.387037065,1,0,0,0.8465,Pumice_rect,8,0.846,1,5,0,5,0,1,,,,,,,,,,,,,
665b3f30f783306ae5987e27,SCN,2024-06-25_12h40.10.975,LearnStrategy,2023.2.3,Win32,60.24096386,6,1,7,-0.387037023,-0.101851866,1,0,0,2.95,Peridotite_05,7,05,3,2,2.95,0.042592621,-0.417592621,1,0,0,1.7509,Peridotite_rect,7,1.751,1,6,0,6,0,1,,,,,,,,,,,,,
665b3f30f783306ae5987e27,SCN,2024-06-25_12h40.10.975,LearnStrategy,2023.2.3,Win32,60.24096386,6,1,8,-0.520370356,-0.400925954,1,0,0,1.7986,Andesite_14,1,14,1,1,1.799,-0.333333333,-0.266666667,1,0,0,1.2152,Andesite_rect,1,1.215,1,7,0,7,0,1,,,,,,,,,,,,,
665b3f30f783306ae5987e27,SCN,2024-06-25_12h40.10.975,LearnStrategy,2023.2.3,Win32,60.24096386,6,1,9,0.357407464,-0.414814843,1,0,0,4.0159,Pegmatite_06,6,06,1,7,4.016,-0.123148092,-0.414814843,1,0,0,1.3526,Pegmatite_rect,6,1.353,1,8,0,8,0,1,,,,,,,,,,,,,
665b3f30f783306ae5987e27,SCN,2024-06-25_12h40.10.975,LearnStrategy,2023.2.3,Win32,60.24096386,6,1,10,-0.049074046,0.25,1,0,0,2.2832,Gabbro_08,4,08,5,4,2.283,0.373148176,-0.262963019,1,0,0,1.6418,Gabbro_rect,4,1.642,1,9,0,9,0,1,,,,,,,,,,,,,
665b3f30f783306ae5987e27,SCN,2024-06-25_12h40.10.975,LearnStrategy,2023.2.3,Win32,60.24096386,6,1,11,0.552777778,0.091666667,1,0,0,2.333,Basalt_12,2,12,4,8,2.333,-0.075,-0.255555556,1,0,0,1.3093,Basalt_rect,2,1.309,1,10,0,10,0,1,,,,,,,,,,,,,
665b3f30f783306ae5987e27,SCN,2024-06-25_12h40.10.975,LearnStrategy,2023.2.3,Win32,60.24096386,6,1,12,-0.524074046,-0.098148176,1,0,0,4.3492,Diorite_15,3,15,3,1,4.349,0.080555556,-0.257407464,1,0,0,2.3032,Diorite_rect,3,2.303,1,11,0,11,0,1,,,,,,,,,,,,,
665b3f30f783306ae5987e27,SCN,2024-06-25_12h40.10.975,LearnStrategy,2023.2.3,Win32,60.24096386,6,1,13,-0.4,-0.240740797,1,0,0,1.7983,Andesite_09,1,09,2,2,1.798,-0.363888889,-0.258333333,1,0,0,0.8427,Andesite_rect,1,0.843,1,12,0,12,0,1,,,,,,,,,,,,,
665b3f30f783306ae5987e27,SCN,2024-06-25_12h40.10.975,LearnStrategy,2023.2.3,Win32,60.24096386,6,1,14,0.225925954,-0.267592621,1,0,0,1.7327,Gabbro_01,4,01,2,6,1.733,0.122222222,-0.246296353,1,0,0,1.0255,Diorite_rect,3,1.025,0,13,0,13,0,1,,,,,,,,,,,,,
665b3f30f783306ae5987e27,SCN,2024-06-25_12h40.10.975,LearnStrategy,2023.2.3,Win32,60.24096386,6,1,15,0.096296353,0.109259245,1,0,0,1.7165,Andesite_05,1,05,4,5,1.717,-0.340740712,-0.262037065,1,0,0,2.3927,Andesite_rect,1,2.393,1,14,0,14,0,1,,,,,,,,,,,,,
665b3f30f783306ae5987e27,SCN,2024-06-25_12h40.10.975,LearnStrategy,2023.2.3,Win32,60.24096386,6,1,16,-0.089814758,0.240740734,1,0,0,1.8494,Gabbro_08,4,08,5,4,1.849,0.377777778,-0.262037065,1,0,0,2.842,Gabbro_rect,4,2.842,1,15,0,15,0,1,,,,,,,,,,,,,
665b3f30f783306ae5987e27,SCN,2024-06-25_12h40.10.975,LearnStrategy,2023.2.3,Win32,60.24096386,6,2,1,,,,,,,,5,11,,,,,,,,,,,5,1.093,1,,,,,,-0.408333333,-0.40648151,1,0,0,1.0934,Obsidian_rect,0,0,0,0,1,
665b3f30f783306ae5987e27,SCN,2024-06-25_12h40.10.975,LearnStrategy,2023.2.3,Win32,60.24096386,6,2,2,,,,,,,,6,09,,,,,,,,,,,6,1.209,1,,,,,,-0.125925869,-0.408333333,1,0,0,1.209,Pegmatite_rect,1,0,1,0,1,
665b3f30f783306ae5987e27,SCN,2024-06-25_12h40.10.975,LearnStrategy,2023.2.3,Win32,60.24096386,6,2,3,,,,,,,,3,02,,,,,,,,,,,3,1.413,1,,,,,,0.154629686,-0.246296353,1,0,0,1.4127,Diorite_rect,2,0,2,0,1,
665b3f30f783306ae5987e27,SCN,2024-06-25_12h40.10.975,LearnStrategy,2023.2.3,Win32,60.24096386,6,2,4,,,,,,,,2,05,,,,,,,,,,,2,1.43,1,,,,,,-0.091666667,-0.257407464,1,0,0,1.4299,Basalt_rect,3,0,3,0,1,
665b3f30f783306ae5987e27,SCN,2024-06-25_12h40.10.975,LearnStrategy,2023.2.3,Win32,60.24096386,6,2,5,,,,,,,,5,10,,,,,,,,,,,5,1.442,1,,,,,,-0.336111111,-0.384259288,1,0,0,1.4424,Obsidian_rect,4,0,4,0,1,
665b3f30f783306ae5987e27,SCN,2024-06-25_12h40.10.975,LearnStrategy,2023.2.3,Win32,60.24096386,6,2,6,,,,,,,,4,11,,,,,,,,,,,4,7.057,1,,,,,,0.379629686,-0.262963019,1,0,0,7.0571,Gabbro_rect,5,0,5,0,1,
665b3f30f783306ae5987e27,SCN,2024-06-25_12h40.10.975,LearnStrategy,2023.2.3,Win32,60.24096386,6,2,7,,,,,,,,3,07,,,,,,,,,,,3,1.823,1,,,,,,0.118518575,-0.247222222,1,0,0,1.8226,Diorite_rect,6,0,6,0,1,
665b3f30f783306ae5987e27,SCN,2024-06-25_12h40.10.975,LearnStrategy,2023.2.3,Win32,60.24096386,6,2,8,,,,,,,,1,11,,,,,,,,,,,1,1.16,1,,,,,,-0.401851824,-0.268518575,1,0,0,1.1598,Andesite_rect,7,0,7,0,1,
665b3f30f783306ae5987e27,SCN,2024-06-25_12h40.10.975,LearnStrategy,2023.2.3,Win32,60.24096386,6,2,9,,,,,,,,8,02,,,,,,,,,,,8,1.576,1,,,,,,0.364814843,-0.398148176,1,0,0,1.5765,Pumice_rect,8,0,8,0,1,
665b3f30f783306ae5987e27,SCN,2024-06-25_12h40.10.975,LearnStrategy,2023.2.3,Win32,60.24096386,6,2,10,,,,,,,,7,15,,,,,,,,,,,7,1.026,1,,,,,,0.107407464,-0.397222222,1,0,0,1.0264,Peridotite_rect,9,0,9,0,1,
665b3f30f783306ae5987e27,SCN,2024-06-25_12h40.10.975,LearnStrategy,2023.2.3,Win32,60.24096386,6,2,11,,,,,,,,4,14,,,,,,,,,,,4,2.181,1,,,,,,0.396296353,-0.259259288,1,0,0,2.1811,Gabbro_rect,10,0,10,0,1,
665b3f30f783306ae5987e27,SCN,2024-06-25_12h40.10.975,LearnStrategy,2023.2.3,Win32,60.24096386,6,2,12,,,,,,,,6,03,,,,,,,,,,,6,1.327,1,,,,,,-0.121296268,-0.387963019,1,0,0,1.3269,Pegmatite_rect,11,0,11,0,1,
665b3f30f783306ae5987e27,SCN,2024-06-25_12h40.10.975,LearnStrategy,2023.2.3,Win32,60.24096386,6,2,13,,,,,,,,1,16,,,,,,,,,,,3,4.143,0,,,,,,0.132407464,-0.237963019,1,0,0,4.1427,Diorite_rect,12,0,12,0,1,
665b3f30f783306ae5987e27,SCN,2024-06-25_12h40.10.975,LearnStrategy,2023.2.3,Win32,60.24096386,6,2,14,,,,,,,,2,10,,,,,,,,,,,4,2.104,0,,,,,,0.366666667,-0.25648151,1,0,0,2.1037,Gabbro_rect,13,0,13,0,1,
665b3f30f783306ae5987e27,SCN,2024-06-25_12h40.10.975,LearnStrategy,2023.2.3,Win32,60.24096386,6,2,15,,,,,,,,8,16,,,,,,,,,,,8,1.158,1,,,,,,0.364814843,-0.387037065,1,0,0,1.1576,Pumice_rect,14,0,14,0,1,
665b3f30f783306ae5987e27,SCN,2024-06-25_12h40.10.975,LearnStrategy,2023.2.3,Win32,60.24096386,6,2,16,,,,,,,,7,07,,,,,,,,,,,7,1.876,1,,,,,,0.15648151,-0.388888889,1,0,0,1.8761,Peridotite_rect,15,0,15,0,1,
665b3f30f783306ae5987e27,SCN,2024-06-25_12h40.10.975,LearnStrategy,2023.2.3,Win32,60.24096386,7,1,1,-0.066666667,0.262962956,1,0,0,4.0654,Gabbro_08,4,08,5,4,4.065,0.357407464,-0.247222222,1,0,0,2.3356,Gabbro_rect,4,2.336,1,0,0,0,0,1,,,,,,,,,,,,,
665b3f30f783306ae5987e27,SCN,2024-06-25_12h40.10.975,LearnStrategy,2023.2.3,Win32,60.24096386,7,1,2,-0.55370369,0.082407379,1,0,0,1.2486,Gabbro_16,4,16,4,1,1.249,0.411111111,-0.265740797,1,0,0,1.4957,Gabbro_rect,4,1.496,1,1,0,1,0,1,,,,,,,,,,,,,
665b3f30f783306ae5987e27,SCN,2024-06-25_12h40.10.975,LearnStrategy,2023.2.3,Win32,60.24096386,7,1,3,-0.389814801,0.120370356,1,0,0,0.6486,Peridotite_02,7,02,4,2,0.649,0.103703732,-0.419444444,1,0,0,1.1906,Peridotite_rect,7,1.191,1,2,0,2,0,1,,,,,,,,,,,,,
665b3f30f783306ae5987e27,SCN,2024-06-25_12h40.10.975,LearnStrategy,2023.2.3,Win32,60.24096386,7,1,4,-0.223148134,0.106481467,1,0,0,0.6683,Basalt_06,2,06,4,3,0.668,-0.097222222,-0.235185242,1,0,0,0.885,Basalt_rect,2,0.885,1,3,0,3,0,1,,,,,,,,,,,,,
665b3f30f783306ae5987e27,SCN,2024-06-25_12h40.10.975,LearnStrategy,2023.2.3,Win32,60.24096386,7,1,5,-0.04351849,0.141666667,1,0,0,0.6329,Gabbro_12,4,12,4,4,0.633,0.344444444,-0.259259288,1,0,0,2.3248,Gabbro_rect,4,2.325,1,4,0,4,0,1,,,,,,,,,,,,,
665b3f30f783306ae5987e27,SCN,2024-06-25_12h40.10.975,LearnStrategy,2023.2.3,Win32,60.24096386,7,1,6,0.059259288,0.060185157,1,0,0,0.8653,Andesite_05,1,05,4,5,0.865,-0.364814801,-0.248148176,1,0,0,1.7278,Andesite_rect,1,1.728,1,5,0,5,0,1,,,,,,,,,,,,,
665b3f30f783306ae5987e27,SCN,2024-06-25_12h40.10.975,LearnStrategy,2023.2.3,Win32,60.24096386,7,1,7,0.204629686,0.101851824,1,0,0,0.7163,Pegmatite_07,6,07,4,6,0.716,-0.164814758,-0.38148151,1,0,0,0.9444,Pegmatite_rect,6,0.944,1,6,0,6,0,1,,,,,,,,,,,,,
665b3f30f783306ae5987e27,SCN,2024-06-25_12h40.10.975,LearnStrategy,2023.2.3,Win32,60.24096386,7,1,8,0.360185242,0.062962935,1,0,0,0.8162,Obsidian_07,5,07,4,7,0.816,-0.455555556,-0.410185242,1,0,0,0.8752,Obsidian_rect,5,0.875,1,7,0,7,0,1,,,,,,,,,,,,,
665b3f30f783306ae5987e27,SCN,2024-06-25_12h40.10.975,LearnStrategy,2023.2.3,Win32,60.24096386,7,1,9,0.564814928,0.088888889,1,0,0,1.0316,Basalt_12,2,12,4,8,1.032,-0.079629601,-0.261111111,1,0,0,1.9922,Basalt_rect,2,1.992,1,8,0,8,0,1,,,,,,,,,,,,,
665b3f30f783306ae5987e27,SCN,2024-06-25_12h40.10.975,LearnStrategy,2023.2.3,Win32,60.24096386,7,1,10,-0.527777778,-0.099074088,1,0,0,1.3488,Diorite_15,3,15,3,1,1.349,0.186111111,-0.253703732,1,0,0,0.771,Diorite_rect,3,0.771,1,9,0,9,0,1,,,,,,,,,,,,,
665b3f30f783306ae5987e27,SCN,2024-06-25_12h40.10.975,LearnStrategy,2023.2.3,Win32,60.24096386,7,1,11,-0.344444444,-0.122222222,1,0,0,0.7684,Peridotite_05,7,05,3,2,0.768,0.044444444,-0.387037065,1,0,0,1.2683,Peridotite_rect,7,1.268,1,10,0,10,0,1,,,,,,,,,,,,,
665b3f30f783306ae5987e27,SCN,2024-06-25_12h40.10.975,LearnStrategy,2023.2.3,Win32,60.24096386,7,1,12,-0.196296268,-0.099074088,1,0,0,0.6825,Pumice_13,8,13,3,3,0.682,0.415740797,-0.416666667,1,0,0,1.3594,Pumice_rect,8,1.359,1,11,0,11,0,1,,,,,,,,,,,,,
665b3f30f783306ae5987e27,SCN,2024-06-25_12h40.10.975,LearnStrategy,2023.2.3,Win32,60.24096386,7,1,13,-0.075925869,-0.062962977,1,0,0,0.6315,Pegmatite_16,6,16,3,4,0.631,-0.145370314,-0.384259288,1,0,0,1.1259,Pegmatite_rect,6,1.126,1,12,0,12,0,1,,,,,,,,,,,,,
665b3f30f783306ae5987e27,SCN,2024-06-25_12h40.10.975,LearnStrategy,2023.2.3,Win32,60.24096386,7,1,14,0.038888889,-0.098148176,1,0,0,0.7486,Pumice_08,8,08,3,5,0.749,0.380555556,-0.414814843,1,0,0,1.2928,Pumice_rect,8,1.293,1,13,0,13,0,1,,,,,,,,,,,,,
665b3f30f783306ae5987e27,SCN,2024-06-25_12h40.10.975,LearnStrategy,2023.2.3,Win32,60.24096386,7,1,15,0.208333333,-0.13148151,1,0,0,0.7496,Pumice_05,8,05,3,6,0.75,0.392592621,-0.400925954,1,0,0,0.7755,Pumice_rect,8,0.775,1,14,0,14,0,1,,,,,,,,,,,,,
665b3f30f783306ae5987e27,SCN,2024-06-25_12h40.10.975,LearnStrategy,2023.2.3,Win32,60.24096386,7,1,16,0.397222222,-0.12129631,1,0,0,0.8825,Andesite_10,1,10,3,7,0.883,-0.349074046,-0.25,1,0,0,1.8475,Andesite_rect,1,1.848,1,15,0,15,0,1,,,,,,,,,,,,,
665b3f30f783306ae5987e27,SCN,2024-06-25_12h40.10.975,LearnStrategy,2023.2.3,Win32,60.24096386,7,2,1,,,,,,,,7,10,,,,,,,,,,,7,1.21,1,,,,,,0.121296353,-0.387963019,1,0,0,1.2098,Peridotite_rect,0,0,0,0,1,
665b3f30f783306ae5987e27,SCN,2024-06-25_12h40.10.975,LearnStrategy,2023.2.3,Win32,60.24096386,7,2,2,,,,,,,,4,11,,,,,,,,,,,1,4.793,0,,,,,,-0.412962935,-0.237963019,1,0,0,4.7931,Andesite_rect,1,0,1,0,1,
665b3f30f783306ae5987e27,SCN,2024-06-25_12h40.10.975,LearnStrategy,2023.2.3,Win32,60.24096386,7,2,3,,,,,,,,1,16,,,,,,,,,,,1,3.353,1,,,,,,-0.429629601,-0.258333333,1,0,0,3.3533,Andesite_rect,2,0,2,0,1,
665b3f30f783306ae5987e27,SCN,2024-06-25_12h40.10.975,LearnStrategy,2023.2.3,Win32,60.24096386,7,2,4,,,,,,,,8,16,,,,,,,,,,,8,1.403,1,,,,,,0.378703732,-0.389814843,1,0,0,1.4032,Pumice_rect,3,0,3,0,1,
665b3f30f783306ae5987e27,SCN,2024-06-25_12h40.10.975,LearnStrategy,2023.2.3,Win32,60.24096386,7,2,5,,,,,,,,5,14,,,,,,,,,,,5,1.276,1,,,,,,-0.321296268,-0.414814843,1,0,0,1.2761,Obsidian_rect,4,0,4,0,1,
665b3f30f783306ae5987e27,SCN,2024-06-25_12h40.10.975,LearnStrategy,2023.2.3,Win32,60.24096386,7,2,6,,,,,,,,7,15,,,,,,,,,,,7,1.676,1,,,,,,0.090740797,-0.380555556,1,0,0,1.6761,Peridotite_rect,5,0,5,0,1,
665b3f30f783306ae5987e27,SCN,2024-06-25_12h40.10.975,LearnStrategy,2023.2.3,Win32,60.24096386,7,2,7,,,,,,,,2,09,,,,,,,,,,,2,2.814,1,,,,,,-0.113888889,-0.260185242,1,0,0,2.814,Basalt_rect,6,0,6,0,1,
665b3f30f783306ae5987e27,SCN,2024-06-25_12h40.10.975,LearnStrategy,2023.2.3,Win32,60.24096386,7,2,8,,,,,,,,1,01,,,,,,,,,,,3,1.368,0,,,,,,0.075,-0.254629686,1,0,0,1.3684,Diorite_rect,7,0,7,0,1,
665b3f30f783306ae5987e27,SCN,2024-06-25_12h40.10.975,LearnStrategy,2023.2.3,Win32,60.24096386,7,2,9,,,,,,,,4,03,,,,,,,,,,,3,2.159,0,,,,,,0.070370399,-0.250925954,1,0,0,2.1592,Diorite_rect,8,0,8,0,1,
665b3f30f783306ae5987e27,SCN,2024-06-25_12h40.10.975,LearnStrategy,2023.2.3,Win32,60.24096386,7,2,10,,,,,,,,6,05,,,,,,,,,,,6,1.876,1,,,,,,-0.111111111,-0.416666667,1,0,0,1.8759,Pegmatite_rect,9,0,9,0,1,
665b3f30f783306ae5987e27,SCN,2024-06-25_12h40.10.975,LearnStrategy,2023.2.3,Win32,60.24096386,7,2,11,,,,,,,,8,14,,,,,,,,,,,8,1.626,1,,,,,,0.394444444,-0.419444444,1,0,0,1.6258,Pumice_rect,10,0,10,0,1,
665b3f30f783306ae5987e27,SCN,2024-06-25_12h40.10.975,LearnStrategy,2023.2.3,Win32,60.24096386,7,2,12,,,,,,,,3,11,,,,,,,,,,,3,0.969,1,,,,,,0.084259288,-0.245370399,1,0,0,0.9691,Diorite_rect,11,0,11,0,1,
665b3f30f783306ae5987e27,SCN,2024-06-25_12h40.10.975,LearnStrategy,2023.2.3,Win32,60.24096386,7,2,13,,,,,,,,3,10,,,,,,,,,,,3,1.326,1,,,,,,0.074074131,-0.268518575,1,0,0,1.3262,Diorite_rect,12,0,12,0,1,
665b3f30f783306ae5987e27,SCN,2024-06-25_12h40.10.975,LearnStrategy,2023.2.3,Win32,60.24096386,7,2,14,,,,,,,,6,15,,,,,,,,,,,6,2.282,1,,,,,,-0.14351849,-0.403703732,1,0,0,2.2824,Pegmatite_rect,13,0,13,0,1,
665b3f30f783306ae5987e27,SCN,2024-06-25_12h40.10.975,LearnStrategy,2023.2.3,Win32,60.24096386,7,2,15,,,,,,,,2,05,,,,,,,,,,,2,1.759,1,,,,,,-0.105555556,-0.246296353,1,0,0,1.7586,Basalt_rect,14,0,14,0,1,
665b3f30f783306ae5987e27,SCN,2024-06-25_12h40.10.975,LearnStrategy,2023.2.3,Win32,60.24096386,7,2,16,,,,,,,,5,16,,,,,,,,,,,5,1.189,1,,,,,,-0.352777778,-0.396296353,1,0,0,1.1889,Obsidian_rect,15,0,15,0,1,
665b3f30f783306ae5987e27,SCN,2024-06-25_12h40.10.975,LearnStrategy,2023.2.3,Win32,60.24096386,8,1,1,-0.075925869,0.099074046,1,0,0,2.2852,Gabbro_12,4,12,4,4,2.285,-0.372222222,-0.250925954,1,0,0,1.5844,Andesite_rect,1,1.584,0,0,0,0,0,1,,,,,,,,,,,,,
665b3f30f783306ae5987e27,SCN,2024-06-25_12h40.10.975,LearnStrategy,2023.2.3,Win32,60.24096386,8,1,2,-0.087962935,0.083333333,1,0,0,1.3329,Gabbro_12,4,12,4,4,1.333,0.436111111,-0.258333333,1,0,0,0.7754,Gabbro_rect,4,0.775,1,1,0,1,0,1,,,,,,,,,,,,,
665b3f30f783306ae5987e27,SCN,2024-06-25_12h40.10.975,LearnStrategy,2023.2.3,Win32,60.24096386,8,1,3,-0.37870369,-0.274074131,1,0,0,1.5995,Andesite_09,1,09,2,2,1.6,-0.375,-0.242592621,1,0,0,1.4923,Andesite_rect,1,1.492,1,2,0,2,0,1,,,,,,,,,,,,,
665b3f30f783306ae5987e27,SCN,2024-06-25_12h40.10.975,LearnStrategy,2023.2.3,Win32,60.24096386,8,1,4,0.571296353,0.124074046,1,0,0,1.4328,Basalt_12,2,12,4,8,1.433,-0.109259203,-0.235185242,1,0,0,0.9419,Basalt_rect,2,0.942,1,3,0,3,0,1,,,,,,,,,,,,,
665b3f30f783306ae5987e27,SCN,2024-06-25_12h40.10.975,LearnStrategy,2023.2.3,Win32,60.24096386,8,1,5,-0.099074046,0.106481467,1,0,0,0.5658,Gabbro_12,4,12,4,4,0.566,0.433333333,-0.259259288,1,0,0,0.826,Gabbro_rect,4,0.826,1,4,0,4,0,1,,,,,,,,,,,,,
665b3f30f783306ae5987e27,SCN,2024-06-25_12h40.10.975,LearnStrategy,2023.2.3,Win32,60.24096386,8,1,6,-0.205555556,0.237962956,1,0,0,0.9655,Basalt_08,2,08,5,3,0.966,-0.096296268,-0.23148151,1,0,0,2.0758,Basalt_rect,2,2.076,1,5,0,5,0,1,,,,,,,,,,,,,
665b3f30f783306ae5987e27,SCN,2024-06-25_12h40.10.975,LearnStrategy,2023.2.3,Win32,60.24096386,8,1,7,-0.396296268,0.398148145,1,0,0,1.2317,Diorite_06,3,06,6,2,1.232,0.176851908,-0.265740797,1,0,0,1.0591,Diorite_rect,3,1.059,1,6,0,6,0,1,,,,,,,,,,,,,
665b3f30f783306ae5987e27,SCN,2024-06-25_12h40.10.975,LearnStrategy,2023.2.3,Win32,60.24096386,8,1,8,-0.102777778,0.225,1,0,0,3.0491,Gabbro_08,4,08,5,4,3.049,0.430555556,-0.251851908,1,0,0,1.9698,Gabbro_rect,4,1.97,1,7,0,7,0,1,,,,,,,,,,,,,
665b3f30f783306ae5987e27,SCN,2024-06-25_12h40.10.975,LearnStrategy,2023.2.3,Win32,60.24096386,8,1,9,0.415740797,-0.124074088,1,0,0,4.9822,Andesite_10,1,10,3,7,4.982,-0.374074046,-0.252777778,1,0,0,1.5361,Andesite_rect,1,1.536,1,8,0,8,0,1,,,,,,,,,,,,,
665b3f30f783306ae5987e27,SCN,2024-06-25_12h40.10.975,LearnStrategy,2023.2.3,Win32,60.24096386,8,1,10,0.534259372,0.10370369,1,0,0,1.7316,Basalt_12,2,12,4,8,1.732,-0.087962935,-0.245370399,1,0,0,0.928,Basalt_rect,2,0.928,1,9,0,9,0,1,,,,,,,,,,,,,
665b3f30f783306ae5987e27,SCN,2024-06-25_12h40.10.975,LearnStrategy,2023.2.3,Win32,60.24096386,8,1,11,0.380555556,-0.082407422,1,0,0,0.9326,Andesite_10,1,10,3,7,0.933,-0.402777778,-0.250925954,1,0,0,0.6432,Andesite_rect,1,0.643,1,10,0,10,0,1,,,,,,,,,,,,,
665b3f30f783306ae5987e27,SCN,2024-06-25_12h40.10.975,LearnStrategy,2023.2.3,Win32,60.24096386,8,1,12,-0.387037023,-0.259259288,1,0,0,0.9001,Andesite_09,1,09,2,2,0.9,-0.382407379,-0.25648151,1,0,0,0.6255,Andesite_rect,1,0.625,1,11,0,11,0,1,,,,,,,,,,,,,
665b3f30f783306ae5987e27,SCN,2024-06-25_12h40.10.975,LearnStrategy,2023.2.3,Win32,60.24096386,8,1,13,-0.420370356,-0.416666667,1,0,0,4.032,Basalt_11,2,11,1,2,4.032,-0.086111111,-0.243518575,1,0,0,0.9535,Basalt_rect,2,0.953,1,12,0,12,0,1,,,,,,,,,,,,,
665b3f30f783306ae5987e27,SCN,2024-06-25_12h40.10.975,LearnStrategy,2023.2.3,Win32,60.24096386,8,1,14,-0.047222222,0.091666667,1,0,0,1.4159,Gabbro_12,4,12,4,4,1.416,0.374074131,-0.269444444,1,0,0,1.5279,Gabbro_rect,4,1.528,1,13,0,13,0,1,,,,,,,,,,,,,
665b3f30f783306ae5987e27,SCN,2024-06-25_12h40.10.975,LearnStrategy,2023.2.3,Win32,60.24096386,8,1,15,-0.230555556,0.261111111,1,0,0,1.2489,Basalt_08,2,08,5,3,1.249,-0.126851824,-0.263888889,1,0,0,1.2093,Basalt_rect,2,1.209,1,14,0,14,0,1,,,,,,,,,,,,,
665b3f30f783306ae5987e27,SCN,2024-06-25_12h40.10.975,LearnStrategy,2023.2.3,Win32,60.24096386,8,1,16,-0.510185157,-0.118518533,1,0,0,1.0164,Diorite_15,3,15,3,1,1.016,0.118518575,-0.237963019,1,0,0,1.0596,Diorite_rect,3,1.06,1,15,0,15,0,1,,,,,,,,,,,,,
665b3f30f783306ae5987e27,SCN,2024-06-25_12h40.10.975,LearnStrategy,2023.2.3,Win32,60.24096386,8,2,1,,,,,,,,4,14,,,,,,,,,,,4,1.626,1,,,,,,0.425,-0.240740797,1,0,0,1.6256,Gabbro_rect,0,0,0,0,1,
665b3f30f783306ae5987e27,SCN,2024-06-25_12h40.10.975,LearnStrategy,2023.2.3,Win32,60.24096386,8,2,2,,,,,,,,1,07,,,,,,,,,,,3,1.609,0,,,,,,0.179629686,-0.253703732,1,0,0,1.609,Diorite_rect,1,0,1,0,1,
665b3f30f783306ae5987e27,SCN,2024-06-25_12h40.10.975,LearnStrategy,2023.2.3,Win32,60.24096386,8,2,3,,,,,,,,8,02,,,,,,,,,,,8,1.16,1,,,,,,0.347222222,-0.383333333,1,0,0,1.1596,Pumice_rect,2,0,2,0,1,
665b3f30f783306ae5987e27,SCN,2024-06-25_12h40.10.975,LearnStrategy,2023.2.3,Win32,60.24096386,8,2,4,,,,,,,,6,13,,,,,,,,,,,6,1.26,1,,,,,,-0.111111111,-0.385185242,1,0,0,1.2597,Pegmatite_rect,3,0,3,0,1,
665b3f30f783306ae5987e27,SCN,2024-06-25_12h40.10.975,LearnStrategy,2023.2.3,Win32,60.24096386,8,2,5,,,,,,,,3,07,,,,,,,,,,,3,1.426,1,,,,,,0.117592621,-0.260185242,1,0,0,1.4259,Diorite_rect,4,0,4,0,1,
665b3f30f783306ae5987e27,SCN,2024-06-25_12h40.10.975,LearnStrategy,2023.2.3,Win32,60.24096386,8,2,6,,,,,,,,2,10,,,,,,,,,,,4,3.243,0,,,,,,0.38148151,-0.254629686,1,0,0,3.2427,Gabbro_rect,5,0,5,0,1,
665b3f30f783306ae5987e27,SCN,2024-06-25_12h40.10.975,LearnStrategy,2023.2.3,Win32,60.24096386,8,2,7,,,,,,,,3,02,,,,,,,,,,,3,1.62,1,,,,,,0.151851908,-0.259259288,1,0,0,1.6196,Diorite_rect,6,0,6,0,1,
665b3f30f783306ae5987e27,SCN,2024-06-25_12h40.10.975,LearnStrategy,2023.2.3,Win32,60.24096386,8,2,8,,,,,,,,1,02,,,,,,,,,,,1,2.51,1,,,,,,-0.386111111,-0.246296353,1,0,0,2.5095,Andesite_rect,7,0,7,0,1,
665b3f30f783306ae5987e27,SCN,2024-06-25_12h40.10.975,LearnStrategy,2023.2.3,Win32,60.24096386,8,2,9,,,,,,,,2,04,,,,,,,,,,,2,2.976,1,,,,,,-0.100925869,-0.233333333,1,0,0,2.9755,Basalt_rect,8,0,8,0,1,
665b3f30f783306ae5987e27,SCN,2024-06-25_12h40.10.975,LearnStrategy,2023.2.3,Win32,60.24096386,8,2,10,,,,,,,,8,06,,,,,,,,,,,8,1.004,1,,,,,,0.398148176,-0.391666667,1,0,0,1.004,Pumice_rect,9,0,9,0,1,
665b3f30f783306ae5987e27,SCN,2024-06-25_12h40.10.975,LearnStrategy,2023.2.3,Win32,60.24096386,8,2,11,,,,,,,,5,10,,,,,,,,,,,5,1.559,1,,,,,,-0.375,-0.411111111,1,0,0,1.5585,Obsidian_rect,10,0,10,0,1,
665b3f30f783306ae5987e27,SCN,2024-06-25_12h40.10.975,LearnStrategy,2023.2.3,Win32,60.24096386,8,2,12,,,,,,,,4,09,,,,,,,,,,,4,4.943,1,,,,,,0.348148176,-0.262037065,1,0,0,4.9433,Gabbro_rect,11,0,11,0,1,
665b3f30f783306ae5987e27,SCN,2024-06-25_12h40.10.975,LearnStrategy,2023.2.3,Win32,60.24096386,8,2,13,,,,,,,,6,03,,,,,,,,,,,6,1.153,1,,,,,,-0.125,-0.385185242,1,0,0,1.153,Pegmatite_rect,12,0,12,0,1,
665b3f30f783306ae5987e27,SCN,2024-06-25_12h40.10.975,LearnStrategy,2023.2.3,Win32,60.24096386,8,2,14,,,,,,,,7,14,,,,,,,,,,,7,1.209,1,,,,,,0.136111111,-0.386111111,1,0,0,1.2093,Peridotite_rect,13,0,13,0,1,
665b3f30f783306ae5987e27,SCN,2024-06-25_12h40.10.975,LearnStrategy,2023.2.3,Win32,60.24096386,8,2,15,,,,,,,,5,11,,,,,,,,,,,5,1.059,1,,,,,,-0.39351849,-0.402777778,1,0,0,1.0593,Obsidian_rect,14,0,14,0,1,
665b3f30f783306ae5987e27,SCN,2024-06-25_12h40.10.975,LearnStrategy,2023.2.3,Win32,60.24096386,8,2,16,,,,,,,,7,06,,,,,,,,,,,7,2.026,1,,,,,,0.136111111,-0.391666667,1,0,0,2.0265,Peridotite_rect,15,0,15,0,1,
665b3f30f783306ae5987e27,SCN,2024-06-25_12h40.10.975,LearnStrategy,2023.2.3,Win32,60.24096386,9,1,1,0.087037065,-0.422222222,1,0,0,3.2658,Andesite_04,1,04,1,5,3.266,-0.417592578,-0.254629686,1,0,0,1.4932,Andesite_rect,1,1.493,1,0,0,0,0,1,,,,,,,,,,,,,
665b3f30f783306ae5987e27,SCN,2024-06-25_12h40.10.975,LearnStrategy,2023.2.3,Win32,60.24096386,9,1,2,0.546296353,-0.392592621,1,0,0,11.883,Basalt_16,2,16,1,8,11.883,0.358333333,-0.252777778,1,0,0,3.5682,Gabbro_rect,4,3.568,0,1,0,1,0,1,,,,,,,,,,,,,
665b3f30f783306ae5987e27,SCN,2024-06-25_12h40.10.975,LearnStrategy,2023.2.3,Win32,60.24096386,9,1,3,-0.554629623,0.057407379,1,0,0,3.2163,Gabbro_16,4,16,4,1,3.216,0.410185242,-0.262037065,1,0,0,1.8357,Gabbro_rect,4,1.836,1,2,0,2,0,1,,,,,,,,,,,,,
665b3f30f783306ae5987e27,SCN,2024-06-25_12h40.10.975,LearnStrategy,2023.2.3,Win32,60.24096386,9,1,4,0.045370399,-0.412963019,1,0,0,2.1327,Andesite_04,1,04,1,5,2.133,-0.375925912,-0.267592621,1,0,0,1.609,Andesite_rect,1,1.609,1,3,0,3,0,1,,,,,,,,,,,,,
665b3f30f783306ae5987e27,SCN,2024-06-25_12h40.10.975,LearnStrategy,2023.2.3,Win32,60.24096386,9,1,5,-0.112962935,0.240740734,1,0,0,1.8158,Gabbro_08,4,08,5,4,1.816,0.386111111,-0.232407464,1,0,0,2.2762,Gabbro_rect,4,2.276,1,4,0,4,0,1,,,,,,,,,,,,,
665b3f30f783306ae5987e27,SCN,2024-06-25_12h40.10.975,LearnStrategy,2023.2.3,Win32,60.24096386,9,1,6,-0.082407379,0.088888889,1,0,0,0.8988,Gabbro_12,4,12,4,4,0.899,-0.094444444,-0.260185242,1,0,0,1.8121,Basalt_rect,2,1.812,0,5,0,5,0,1,,,,,,,,,,,,,
665b3f30f783306ae5987e27,SCN,2024-06-25_12h40.10.975,LearnStrategy,2023.2.3,Win32,60.24096386,9,1,7,-0.252777778,0.092592578,1,0,0,5.6487,Basalt_06,2,06,4,3,5.649,-0.14351849,-0.249074131,1,0,0,0.8692,Basalt_rect,2,0.869,1,6,0,6,0,1,,,,,,,,,,,,,
665b3f30f783306ae5987e27,SCN,2024-06-25_12h40.10.975,LearnStrategy,2023.2.3,Win32,60.24096386,9,1,8,-0.385185157,0.072222222,1,0,0,1.4658,Peridotite_02,7,02,4,2,1.466,0.10648151,-0.404629686,1,0,0,1.467,Peridotite_rect,7,1.467,1,7,0,7,0,1,,,,,,,,,,,,,
665b3f30f783306ae5987e27,SCN,2024-06-25_12h40.10.975,LearnStrategy,2023.2.3,Win32,60.24096386,9,1,9,-0.375925912,-0.252777778,1,0,0,3.2491,Andesite_09,1,09,2,2,3.249,-0.373148134,-0.242592621,1,0,0,1.1413,Andesite_rect,1,1.141,1,8,0,8,0,1,,,,,,,,,,,,,
665b3f30f783306ae5987e27,SCN,2024-06-25_12h40.10.975,LearnStrategy,2023.2.3,Win32,60.24096386,9,1,10,-0.207407379,0.385185178,1,0,0,2.8663,Pegmatite_12,6,12,6,3,2.866,-0.125,-0.416666667,1,0,0,1.1925,Pegmatite_rect,6,1.192,1,9,0,9,0,1,,,,,,,,,,,,,
665b3f30f783306ae5987e27,SCN,2024-06-25_12h40.10.975,LearnStrategy,2023.2.3,Win32,60.24096386,9,1,11,0.556481595,0.071296268,1,0,0,3.3996,Basalt_12,2,12,4,8,3.4,-0.113888889,-0.240740797,1,0,0,1.1686,Basalt_rect,2,1.169,1,10,0,10,0,1,,,,,,,,,,,,,
665b3f30f783306ae5987e27,SCN,2024-06-25_12h40.10.975,LearnStrategy,2023.2.3,Win32,60.24096386,9,1,12,-0.097222222,0.081481467,1,0,0,1.0155,Gabbro_12,4,12,4,4,1.015,0.365740797,-0.261111111,1,0,0,2.2927,Gabbro_rect,4,2.293,1,11,0,11,0,1,,,,,,,,,,,,,
665b3f30f783306ae5987e27,SCN,2024-06-25_12h40.10.975,LearnStrategy,2023.2.3,Win32,60.24096386,9,1,13,-0.237037023,0.230555556,1,0,0,1.0658,Basalt_08,2,08,5,3,1.066,-0.107407379,-0.269444444,1,0,0,1.7144,Basalt_rect,2,1.714,1,12,0,12,0,1,,,,,,,,,,,,,
665b3f30f783306ae5987e27,SCN,2024-06-25_12h40.10.975,LearnStrategy,2023.2.3,Win32,60.24096386,9,1,14,-0.227777778,0.096296268,1,0,0,0.7816,Basalt_06,2,06,4,3,0.782,-0.114814758,-0.261111111,1,0,0,2.0763,Basalt_rect,2,2.076,1,13,0,13,0,1,,,,,,,,,,,,,
665b3f30f783306ae5987e27,SCN,2024-06-25_12h40.10.975,LearnStrategy,2023.2.3,Win32,60.24096386,9,1,15,0.534259372,-0.413888889,1,0,0,1.3664,Basalt_16,2,16,1,8,1.366,0.385185242,-0.25,1,0,0,1.3591,Gabbro_rect,4,1.359,0,14,0,14,0,1,,,,,,,,,,,,,
665b3f30f783306ae5987e27,SCN,2024-06-25_12h40.10.975,LearnStrategy,2023.2.3,Win32,60.24096386,9,1,16,0.553703817,-0.455555556,1,0,0,0.8811,Basalt_16,2,16,1,8,0.881,-0.058333333,-0.237037065,1,0,0,1.9431,Basalt_rect,2,1.943,1,15,0,15,0,1,,,,,,,,,,,,,
665b3f30f783306ae5987e27,SCN,2024-06-25_12h40.10.975,LearnStrategy,2023.2.3,Win32,60.24096386,9,2,1,,,,,,,,7,12,,,,,,,,,,,7,2.876,1,,,,,,0.172222222,-0.405555556,1,0,0,2.8758,Peridotite_rect,0,0,0,0,1,
665b3f30f783306ae5987e27,SCN,2024-06-25_12h40.10.975,LearnStrategy,2023.2.3,Win32,60.24096386,9,2,2,,,,,,,,3,12,,,,,,,,,,,3,1.703,1,,,,,,0.143518575,-0.232407464,1,0,0,1.7033,Diorite_rect,1,0,1,0,1,
665b3f30f783306ae5987e27,SCN,2024-06-25_12h40.10.975,LearnStrategy,2023.2.3,Win32,60.24096386,9,2,3,,,,,,,,8,10,,,,,,,,,,,8,1.226,1,,,,,,0.342592621,-0.384259288,1,0,0,1.2265,Pumice_rect,2,0,2,0,1,
665b3f30f783306ae5987e27,SCN,2024-06-25_12h40.10.975,LearnStrategy,2023.2.3,Win32,60.24096386,9,2,4,,,,,,,,4,13,,,,,,,,,,,4,7.09,1,,,,,,0.404629686,-0.238888889,1,0,0,7.0903,Gabbro_rect,3,0,3,0,1,
665b3f30f783306ae5987e27,SCN,2024-06-25_12h40.10.975,LearnStrategy,2023.2.3,Win32,60.24096386,9,2,5,,,,,,,,2,02,,,,,,,,,,,2,1.718,1,,,,,,-0.104629601,-0.254629686,1,0,0,1.7179,Basalt_rect,4,0,4,0,1,
665b3f30f783306ae5987e27,SCN,2024-06-25_12h40.10.975,LearnStrategy,2023.2.3,Win32,60.24096386,9,2,6,,,,,,,,6,09,,,,,,,,,,,6,1.627,1,,,,,,-0.116666667,-0.386111111,1,0,0,1.6266,Pegmatite_rect,5,0,5,0,1,
665b3f30f783306ae5987e27,SCN,2024-06-25_12h40.10.975,LearnStrategy,2023.2.3,Win32,60.24096386,9,2,7,,,,,,,,1,11,,,,,,,,,,,1,1.56,1,,,,,,-0.358333333,-0.242592621,1,0,0,1.5597,Andesite_rect,6,0,6,0,1,
665b3f30f783306ae5987e27,SCN,2024-06-25_12h40.10.975,LearnStrategy,2023.2.3,Win32,60.24096386,9,2,8,,,,,,,,7,07,,,,,,,,,,,7,1.726,1,,,,,,0.126851908,-0.413888889,1,0,0,1.7258,Peridotite_rect,7,0,7,0,1,
665b3f30f783306ae5987e27,SCN,2024-06-25_12h40.10.975,LearnStrategy,2023.2.3,Win32,60.24096386,9,2,9,,,,,,,,6,08,,,,,,,,,,,6,1.789,1,,,,,,-0.148148092,-0.408333333,1,0,0,1.7888,Pegmatite_rect,8,0,8,0,1,
665b3f30f783306ae5987e27,SCN,2024-06-25_12h40.10.975,LearnStrategy,2023.2.3,Win32,60.24096386,9,2,10,,,,,,,,8,04,,,,,,,,,,,8,1.994,1,,,,,,0.353703732,-0.400925954,1,0,0,1.9935,Pumice_rect,9,0,9,0,1,
665b3f30f783306ae5987e27,SCN,2024-06-25_12h40.10.975,LearnStrategy,2023.2.3,Win32,60.24096386,9,2,11,,,,,,,,5,02,,,,,,,,,,,5,1.015,1,,,,,,-0.413888889,-0.416666667,1,0,0,1.0146,Obsidian_rect,10,0,10,0,1,
665b3f30f783306ae5987e27,SCN,2024-06-25_12h40.10.975,LearnStrategy,2023.2.3,Win32,60.24096386,9,2,12,,,,,,,,1,06,,,,,,,,,,,1,1.494,1,,,,,,-0.416666667,-0.247222222,1,0,0,1.4936,Andesite_rect,11,0,11,0,1,
665b3f30f783306ae5987e27,SCN,2024-06-25_12h40.10.975,LearnStrategy,2023.2.3,Win32,60.24096386,9,2,13,,,,,,,,5,12,,,,,,,,,,,5,1.159,1,,,,,,-0.37870369,-0.416666667,1,0,0,1.159,Obsidian_rect,12,0,12,0,1,
665b3f30f783306ae5987e27,SCN,2024-06-25_12h40.10.975,LearnStrategy,2023.2.3,Win32,60.24096386,9,2,14,,,,,,,,4,05,,,,,,,,,,,4,3.644,1,,,,,,0.402777778,-0.259259288,1,0,0,3.6435,Gabbro_rect,13,0,13,0,1,
665b3f30f783306ae5987e27,SCN,2024-06-25_12h40.10.975,LearnStrategy,2023.2.3,Win32,60.24096386,9,2,15,,,,,,,,3,13,,,,,,,,,,,3,1.287,1,,,,,,0.139814843,-0.268518575,1,0,0,1.2867,Diorite_rect,14,0,14,0,1,
665b3f30f783306ae5987e27,SCN,2024-06-25_12h40.10.975,LearnStrategy,2023.2.3,Win32,60.24096386,9,2,16,,,,,,,,2,14,,,,,,,,,,,2,3.146,1,,,,,,-0.065740712,-0.266666667,1,0,0,3.1459,Basalt_rect,15,0,15,0,1,
665b3f30f783306ae5987e27,SCN,2024-06-25_12h40.10.975,LearnStrategy,2023.2.3,Win32,60.24096386,,,,,,,,,,,,,,,,,,,,,,,,,,,,,,,,,,,,,,,,,,,1
665b3f30f783306ae5987e27,SCN,2024-06-25_12h40.10.975,LearnStrategy,2023.2.3,Win32,60.24096386,,,,,,,,,,,,,,,,,,,,,,,,,,,,,,,,,,,,,,,,,,,
665b3f30f783306ae5987e27,SCN,2024-06-25_12h40.10.975,LearnStrategy,2023.2.3,Win32,60.24096386,,,,,,,,,,,1,14,1,1,,,,,,,,,,,,,,,,,,,,,,,,,,,,,
665b3f30f783306ae5987e27,SCN,2024-06-25_12h40.10.975,LearnStrategy,2023.2.3,Win32,60.24096386,,,,,,,,,,,2,11,1,2,,,,,,,,,,,,,,,,,,,,,,,,,,,,,
665b3f30f783306ae5987e27,SCN,2024-06-25_12h40.10.975,LearnStrategy,2023.2.3,Win32,60.24096386,,,,,,,,,,,7,16,1,3,,,,,,,,,,,,,,,,,,,,,,,,,,,,,
665b3f30f783306ae5987e27,SCN,2024-06-25_12h40.10.975,LearnStrategy,2023.2.3,Win32,60.24096386,,,,,,,,,,,8,15,1,4,,,,,,,,,,,,,,,,,,,,,,,,,,,,,
665b3f30f783306ae5987e27,SCN,2024-06-25_12h40.10.975,LearnStrategy,2023.2.3,Win32,60.24096386,,,,,,,,,,,1,04,1,5,,,,,,,,,,,,,,,,,,,,,,,,,,,,,
665b3f30f783306ae5987e27,SCN,2024-06-25_12h40.10.975,LearnStrategy,2023.2.3,Win32,60.24096386,,,,,,,,,,,3,16,1,6,,,,,,,,,,,,,,,,,,,,,,,,,,,,,
665b3f30f783306ae5987e27,SCN,2024-06-25_12h40.10.975,LearnStrategy,2023.2.3,Win32,60.24096386,,,,,,,,,,,6,06,1,7,,,,,,,,,,,,,,,,,,,,,,,,,,,,,
665b3f30f783306ae5987e27,SCN,2024-06-25_12h40.10.975,LearnStrategy,2023.2.3,Win32,60.24096386,,,,,,,,,,,2,16,1,8,,,,,,,,,,,,,,,,,,,,,,,,,,,,,
665b3f30f783306ae5987e27,SCN,2024-06-25_12h40.10.975,LearnStrategy,2023.2.3,Win32,60.24096386,,,,,,,,,,,7,04,2,1,,,,,,,,,,,,,,,,,,,,,,,,,,,,,
665b3f30f783306ae5987e27,SCN,2024-06-25_12h40.10.975,LearnStrategy,2023.2.3,Win32,60.24096386,,,,,,,,,,,1,09,2,2,,,,,,,,,,,,,,,,,,,,,,,,,,,,,
665b3f30f783306ae5987e27,SCN,2024-06-25_12h40.10.975,LearnStrategy,2023.2.3,Win32,60.24096386,,,,,,,,,,,4,10,2,3,,,,,,,,,,,,,,,,,,,,,,,,,,,,,
665b3f30f783306ae5987e27,SCN,2024-06-25_12h40.10.975,LearnStrategy,2023.2.3,Win32,60.24096386,,,,,,,,,,,4,15,2,4,,,,,,,,,,,,,,,,,,,,,,,,,,,,,
665b3f30f783306ae5987e27,SCN,2024-06-25_12h40.10.975,LearnStrategy,2023.2.3,Win32,60.24096386,,,,,,,,,,,2,01,2,5,,,,,,,,,,,,,,,,,,,,,,,,,,,,,
665b3f30f783306ae5987e27,SCN,2024-06-25_12h40.10.975,LearnStrategy,2023.2.3,Win32,60.24096386,,,,,,,,,,,4,01,2,6,,,,,,,,,,,,,,,,,,,,,,,,,,,,,
665b3f30f783306ae5987e27,SCN,2024-06-25_12h40.10.975,LearnStrategy,2023.2.3,Win32,60.24096386,,,,,,,,,,,8,09,2,7,,,,,,,,,,,,,,,,,,,,,,,,,,,,,
665b3f30f783306ae5987e27,SCN,2024-06-25_12h40.10.975,LearnStrategy,2023.2.3,Win32,60.24096386,,,,,,,,,,,7,08,2,8,,,,,,,,,,,,,,,,,,,,,,,,,,,,,
665b3f30f783306ae5987e27,SCN,2024-06-25_12h40.10.975,LearnStrategy,2023.2.3,Win32,60.24096386,,,,,,,,,,,3,15,3,1,,,,,,,,,,,,,,,,,,,,,,,,,,,,,
665b3f30f783306ae5987e27,SCN,2024-06-25_12h40.10.975,LearnStrategy,2023.2.3,Win32,60.24096386,,,,,,,,,,,7,05,3,2,,,,,,,,,,,,,,,,,,,,,,,,,,,,,
665b3f30f783306ae5987e27,SCN,2024-06-25_12h40.10.975,LearnStrategy,2023.2.3,Win32,60.24096386,,,,,,,,,,,8,13,3,3,,,,,,,,,,,,,,,,,,,,,,,,,,,,,
665b3f30f783306ae5987e27,SCN,2024-06-25_12h40.10.975,LearnStrategy,2023.2.3,Win32,60.24096386,,,,,,,,,,,6,16,3,4,,,,,,,,,,,,,,,,,,,,,,,,,,,,,
665b3f30f783306ae5987e27,SCN,2024-06-25_12h40.10.975,LearnStrategy,2023.2.3,Win32,60.24096386,,,,,,,,,,,8,08,3,5,,,,,,,,,,,,,,,,,,,,,,,,,,,,,
665b3f30f783306ae5987e27,SCN,2024-06-25_12h40.10.975,LearnStrategy,2023.2.3,Win32,60.24096386,,,,,,,,,,,8,05,3,6,,,,,,,,,,,,,,,,,,,,,,,,,,,,,
665b3f30f783306ae5987e27,SCN,2024-06-25_12h40.10.975,LearnStrategy,2023.2.3,Win32,60.24096386,,,,,,,,,,,1,10,3,7,,,,,,,,,,,,,,,,,,,,,,,,,,,,,
665b3f30f783306ae5987e27,SCN,2024-06-25_12h40.10.975,LearnStrategy,2023.2.3,Win32,60.24096386,,,,,,,,,,,6,10,3,8,,,,,,,,,,,,,,,,,,,,,,,,,,,,,
665b3f30f783306ae5987e27,SCN,2024-06-25_12h40.10.975,LearnStrategy,2023.2.3,Win32,60.24096386,,,,,,,,,,,4,16,4,1,,,,,,,,,,,,,,,,,,,,,,,,,,,,,
665b3f30f783306ae5987e27,SCN,2024-06-25_12h40.10.975,LearnStrategy,2023.2.3,Win32,60.24096386,,,,,,,,,,,7,02,4,2,,,,,,,,,,,,,,,,,,,,,,,,,,,,,
665b3f30f783306ae5987e27,SCN,2024-06-25_12h40.10.975,LearnStrategy,2023.2.3,Win32,60.24096386,,,,,,,,,,,2,06,4,3,,,,,,,,,,,,,,,,,,,,,,,,,,,,,
665b3f30f783306ae5987e27,SCN,2024-06-25_12h40.10.975,LearnStrategy,2023.2.3,Win32,60.24096386,,,,,,,,,,,4,12,4,4,,,,,,,,,,,,,,,,,,,,,,,,,,,,,
665b3f30f783306ae5987e27,SCN,2024-06-25_12h40.10.975,LearnStrategy,2023.2.3,Win32,60.24096386,,,,,,,,,,,1,05,4,5,,,,,,,,,,,,,,,,,,,,,,,,,,,,,
665b3f30f783306ae5987e27,SCN,2024-06-25_12h40.10.975,LearnStrategy,2023.2.3,Win32,60.24096386,,,,,,,,,,,6,07,4,6,,,,,,,,,,,,,,,,,,,,,,,,,,,,,
665b3f30f783306ae5987e27,SCN,2024-06-25_12h40.10.975,LearnStrategy,2023.2.3,Win32,60.24096386,,,,,,,,,,,5,07,4,7,,,,,,,,,,,,,,,,,,,,,,,,,,,,,
665b3f30f783306ae5987e27,SCN,2024-06-25_12h40.10.975,LearnStrategy,2023.2.3,Win32,60.24096386,,,,,,,,,,,2,12,4,8,,,,,,,,,,,,,,,,,,,,,,,,,,,,,
665b3f30f783306ae5987e27,SCN,2024-06-25_12h40.10.975,LearnStrategy,2023.2.3,Win32,60.24096386,,,,,,,,,,,3,14,5,1,,,,,,,,,,,,,,,,,,,,,,,,,,,,,
665b3f30f783306ae5987e27,SCN,2024-06-25_12h40.10.975,LearnStrategy,2023.2.3,Win32,60.24096386,,,,,,,,,,,5,09,5,2,,,,,,,,,,,,,,,,,,,,,,,,,,,,,
665b3f30f783306ae5987e27,SCN,2024-06-25_12h40.10.975,LearnStrategy,2023.2.3,Win32,60.24096386,,,,,,,,,,,2,08,5,3,,,,,,,,,,,,,,,,,,,,,,,,,,,,,
665b3f30f783306ae5987e27,SCN,2024-06-25_12h40.10.975,LearnStrategy,2023.2.3,Win32,60.24096386,,,,,,,,,,,4,08,5,4,,,,,,,,,,,,,,,,,,,,,,,,,,,,,
665b3f30f783306ae5987e27,SCN,2024-06-25_12h40.10.975,LearnStrategy,2023.2.3,Win32,60.24096386,,,,,,,,,,,5,05,5,5,,,,,,,,,,,,,,,,,,,,,,,,,,,,,
665b3f30f783306ae5987e27,SCN,2024-06-25_12h40.10.975,LearnStrategy,2023.2.3,Win32,60.24096386,,,,,,,,,,,3,08,5,6,,,,,,,,,,,,,,,,,,,,,,,,,,,,,
665b3f30f783306ae5987e27,SCN,2024-06-25_12h40.10.975,LearnStrategy,2023.2.3,Win32,60.24096386,,,,,,,,,,,5,06,5,7,,,,,,,,,,,,,,,,,,,,,,,,,,,,,
665b3f30f783306ae5987e27,SCN,2024-06-25_12h40.10.975,LearnStrategy,2023.2.3,Win32,60.24096386,,,,,,,,,,,5,08,5,8,,,,,,,,,,,,,,,,,,,,,,,,,,,,,
665b3f30f783306ae5987e27,SCN,2024-06-25_12h40.10.975,LearnStrategy,2023.2.3,Win32,60.24096386,,,,,,,,,,,1,03,6,1,,,,,,,,,,,,,,,,,,,,,,,,,,,,,
665b3f30f783306ae5987e27,SCN,2024-06-25_12h40.10.975,LearnStrategy,2023.2.3,Win32,60.24096386,,,,,,,,,,,3,06,6,2,,,,,,,,,,,,,,,,,,,,,,,,,,,,,
665b3f30f783306ae5987e27,SCN,2024-06-25_12h40.10.975,LearnStrategy,2023.2.3,Win32,60.24096386,,,,,,,,,,,6,12,6,3,,,,,,,,,,,,,,,,,,,,,,,,,,,,,
665b3f30f783306ae5987e27,SCN,2024-06-25_12h40.10.975,LearnStrategy,2023.2.3,Win32,60.24096386,,,,,,,,,,,7,13,6,4,,,,,,,,,,,,,,,,,,,,,,,,,,,,,
665b3f30f783306ae5987e27,SCN,2024-06-25_12h40.10.975,LearnStrategy,2023.2.3,Win32,60.24096386,,,,,,,,,,,3,09,6,5,,,,,,,,,,,,,,,,,,,,,,,,,,,,,
665b3f30f783306ae5987e27,SCN,2024-06-25_12h40.10.975,LearnStrategy,2023.2.3,Win32,60.24096386,,,,,,,,,,,5,04,6,6,,,,,,,,,,,,,,,,,,,,,,,,,,,,,
665b3f30f783306ae5987e27,SCN,2024-06-25_12h40.10.975,LearnStrategy,2023.2.3,Win32,60.24096386,,,,,,,,,,,6,11,6,7,,,,,,,,,,,,,,,,,,,,,,,,,,,,,
665b3f30f783306ae5987e27,SCN,2024-06-25_12h40.10.975,LearnStrategy,2023.2.3,Win32,60.24096386,,,,,,,,,,,8,03,6,8,,,,,,,,,,,,,,,,,,,,,,,,,,,,,