participant,condition,date,expName,psychopyVersion,OS,frameRate,block,phase,trial,learn_mouse.x,learn_mouse.y,learn_mouse.leftButton,learn_mouse.midButton,learn_mouse.rightButton,learn_mouse.time,learn_mouse.clicked_name,cat,token,row,col,t_select,cat_mouse_l.x,cat_mouse_l.y,cat_mouse_l.leftButton,cat_mouse_l.midButton,cat_mouse_l.rightButton,cat_mouse_l.time,cat_mouse_l.clicked_name,resp,t_resp,corr,train_trials.thisRepN,train_trials.thisTrialN,train_trials.thisN,train_trials.thisIndex,train_trials.ran,cat_mouse_t.x,cat_mouse_t.y,cat_mouse_t.leftButton,cat_mouse_t.midButton,cat_mouse_t.rightButton,cat_mouse_t.time,cat_mouse_t.clicked_name,test_trials.thisRepN,test_trials.thisTrialN,test_trials.thisN,test_trials.thisIndex,test_trials.ran,Bonus
665d3b8935ef56ce74c4761f,SCN,2024-06-24_15h34.36.689,LearnStrategy,2023.2.3,Win32,60.24096386,,,,,,,,,,,,,,,,,,,,,,,,,,,,,,,,,,,,,,,,,,,
665d3b8935ef56ce74c4761f,SCN,2024-06-24_15h34.36.689,LearnStrategy,2023.2.3,Win32,60.24096386,1,1,1,0.3828125,-0.257291667,1,0,0,4.3166,Diorite_08,3,08,2,7,4.317,-0.133854167,-0.258333333,1,0,0,8.0995,Basalt_rect,2,8.099,0,0,0,0,0,1,,,,,,,,,,,,,
665d3b8935ef56ce74c4761f,SCN,2024-06-24_15h34.36.689,LearnStrategy,2023.2.3,Win32,60.24096386,1,1,2,-0.377604167,-0.261979167,1,0,0,3.4989,Diorite_14,3,14,2,2,3.499,0.083333333,-0.25,1,0,0,2.3043,Diorite_rect,3,2.304,1,1,0,1,0,1,,,,,,,,,,,,,
665d3b8935ef56ce74c4761f,SCN,2024-06-24_15h34.36.689,LearnStrategy,2023.2.3,Win32,60.24096386,1,1,3,-0.522916667,-0.4125,1,0,0,4.265,Andesite_16,1,16,1,1,4.265,0.103125,-0.246354167,1,0,0,2.2555,Diorite_rect,3,2.256,0,2,0,2,0,1,,,,,,,,,,,,,
665d3b8935ef56ce74c4761f,SCN,2024-06-24_15h34.36.689,LearnStrategy,2023.2.3,Win32,60.24096386,1,1,4,-0.0796875,-0.399479167,1,0,0,5.9624,Pumice_10,8,10,1,4,5.962,0.378125,-0.392708333,1,0,0,2.1211,Pumice_rect,8,2.121,1,3,0,3,0,1,,,,,,,,,,,,,
665d3b8935ef56ce74c4761f,SCN,2024-06-24_15h34.36.689,LearnStrategy,2023.2.3,Win32,60.24096386,1,1,5,0.400520833,0.2640625,1,0,0,3.6654,Andesite_03,1,03,5,7,3.665,-0.210416667,-0.251041667,1,0,0,4.9901,Basalt_rect,2,4.99,0,4,0,4,0,1,,,,,,,,,,,,,
665d3b8935ef56ce74c4761f,SCN,2024-06-24_15h34.36.689,LearnStrategy,2023.2.3,Win32,60.24096386,1,1,6,-0.411458333,-0.411458333,1,0,0,8.5794,Basalt_02,2,02,1,2,8.579,-0.3765625,-0.253125,1,0,0,2.3207,Andesite_rect,1,2.321,0,5,0,5,0,1,,,,,,,,,,,,,
665d3b8935ef56ce74c4761f,SCN,2024-06-24_15h34.36.689,LearnStrategy,2023.2.3,Win32,60.24096386,1,1,7,0.240625,-0.269791667,1,0,0,1.9446,Pegmatite_10,6,10,2,6,1.945,-0.154166667,-0.3953125,1,0,0,5.5901,Pegmatite_rect,6,5.59,1,6,0,6,0,1,,,,,,,,,,,,,
665d3b8935ef56ce74c4761f,SCN,2024-06-24_15h34.36.689,LearnStrategy,2023.2.3,Win32,60.24096386,1,1,8,-0.401041667,0.079166667,1,0,0,3.7579,Pegmatite_07,6,07,4,2,3.758,0.109895833,-0.246875,1,0,0,1.9819,Diorite_rect,3,1.982,0,7,0,7,0,1,,,,,,,,,,,,,
665d3b8935ef56ce74c4761f,SCN,2024-06-24_15h34.36.689,LearnStrategy,2023.2.3,Win32,60.24096386,1,1,9,0.409895833,0.3796875,1,0,0,3.8321,Peridotite_04,7,04,6,7,3.832,0.14375,-0.253125,1,0,0,2.075,Diorite_rect,3,2.075,0,8,0,8,0,1,,,,,,,,,,,,,
665d3b8935ef56ce74c4761f,SCN,2024-06-24_15h34.36.689,LearnStrategy,2023.2.3,Win32,60.24096386,1,1,10,-0.5359375,0.1015625,1,0,0,4.8978,Basalt_08,2,08,4,1,4.898,-0.3703125,-0.405208333,1,0,0,2.4887,Obsidian_rect,5,2.489,0,9,0,9,0,1,,,,,,,,,,,,,
665d3b8935ef56ce74c4761f,SCN,2024-06-24_15h34.36.689,LearnStrategy,2023.2.3,Win32,60.24096386,1,1,11,0.09375,-0.433854167,1,0,0,4.1351,Obsidian_11,5,11,1,5,4.135,-0.378125,-0.411458333,1,0,0,1.9184,Obsidian_rect,5,1.918,1,10,0,10,0,1,,,,,,,,,,,,,
665d3b8935ef56ce74c4761f,SCN,2024-06-24_15h34.36.689,LearnStrategy,2023.2.3,Win32,60.24096386,1,1,12,0.522916667,-0.433333333,1,0,0,5.0325,Pegmatite_06,6,06,1,8,5.032,0.371354167,-0.257291667,1,0,0,7.0112,Gabbro_rect,4,7.011,0,11,0,11,0,1,,,,,,,,,,,,,
665d3b8935ef56ce74c4761f,SCN,2024-06-24_15h34.36.689,LearnStrategy,2023.2.3,Win32,60.24096386,1,1,13,0.255208333,-0.416145833,1,0,0,5.7056,Pumice_02,8,02,1,6,5.706,0.1015625,-0.245833333,1,0,0,4.8304,Diorite_rect,3,4.83,0,12,0,12,0,1,,,,,,,,,,,,,
665d3b8935ef56ce74c4761f,SCN,2024-06-24_15h34.36.689,LearnStrategy,2023.2.3,Win32,60.24096386,1,1,14,-0.052083333,-0.422916667,1,0,0,3.3479,Pumice_10,8,10,1,4,3.348,0.346875,-0.389583333,1,0,0,2.697,Pumice_rect,8,2.697,1,13,0,13,0,1,,,,,,,,,,,,,
665d3b8935ef56ce74c4761f,SCN,2024-06-24_15h34.36.689,LearnStrategy,2023.2.3,Win32,60.24096386,1,1,15,-0.230729167,-0.434895833,1,0,0,3.2974,Gabbro_15,4,15,1,3,3.297,-0.144791667,-0.405729167,1,0,0,4.1891,Pegmatite_rect,6,4.189,0,14,0,14,0,1,,,,,,,,,,,,,
665d3b8935ef56ce74c4761f,SCN,2024-06-24_15h34.36.689,LearnStrategy,2023.2.3,Win32,60.24096386,1,1,16,-0.383333333,-0.421875,1,0,0,2.4653,Basalt_02,2,02,1,2,2.465,-0.4078125,-0.259375,1,0,0,4.3784,Andesite_rect,1,4.378,0,15,0,15,0,1,,,,,,,,,,,,,
665d3b8935ef56ce74c4761f,SCN,2024-06-24_15h34.36.689,LearnStrategy,2023.2.3,Win32,60.24096386,1,2,1,,,,,,,,1,11,,,,,,,,,,,1,5.764,1,,,,,,-0.386979167,-0.241666667,1,0,0,5.7638,Andesite_rect,0,0,0,0,1,
665d3b8935ef56ce74c4761f,SCN,2024-06-24_15h34.36.689,LearnStrategy,2023.2.3,Win32,60.24096386,1,2,2,,,,,,,,1,02,,,,,,,,,,,4,8.394,0,,,,,,0.35,-0.2546875,1,0,0,8.3945,Gabbro_rect,1,0,1,0,1,
665d3b8935ef56ce74c4761f,SCN,2024-06-24_15h34.36.689,LearnStrategy,2023.2.3,Win32,60.24096386,1,2,3,,,,,,,,2,12,,,,,,,,,,,1,4.477,0,,,,,,-0.365625,-0.263541667,1,0,0,4.4774,Andesite_rect,2,0,2,0,1,
665d3b8935ef56ce74c4761f,SCN,2024-06-24_15h34.36.689,LearnStrategy,2023.2.3,Win32,60.24096386,1,2,4,,,,,,,,7,02,,,,,,,,,,,3,6.774,0,,,,,,0.15,-0.2375,1,0,0,6.7742,Diorite_rect,3,0,3,0,1,
665d3b8935ef56ce74c4761f,SCN,2024-06-24_15h34.36.689,LearnStrategy,2023.2.3,Win32,60.24096386,1,2,5,,,,,,,,7,12,,,,,,,,,,,3,2.657,0,,,,,,0.123958333,-0.25625,1,0,0,2.6568,Diorite_rect,4,0,4,0,1,
665d3b8935ef56ce74c4761f,SCN,2024-06-24_15h34.36.689,LearnStrategy,2023.2.3,Win32,60.24096386,1,2,6,,,,,,,,2,04,,,,,,,,,,,2,5.58,1,,,,,,-0.1125,-0.239583333,1,0,0,5.5803,Basalt_rect,5,0,5,0,1,
665d3b8935ef56ce74c4761f,SCN,2024-06-24_15h34.36.689,LearnStrategy,2023.2.3,Win32,60.24096386,1,2,7,,,,,,,,5,10,,,,,,,,,,,5,2.29,1,,,,,,-0.352604167,-0.3953125,1,0,0,2.2904,Obsidian_rect,6,0,6,0,1,
665d3b8935ef56ce74c4761f,SCN,2024-06-24_15h34.36.689,LearnStrategy,2023.2.3,Win32,60.24096386,1,2,8,,,,,,,,6,09,,,,,,,,,,,6,4.402,1,,,,,,-0.1296875,-0.397916667,1,0,0,4.4024,Pegmatite_rect,7,0,7,0,1,
665d3b8935ef56ce74c4761f,SCN,2024-06-24_15h34.36.689,LearnStrategy,2023.2.3,Win32,60.24096386,1,2,9,,,,,,,,3,12,,,,,,,,,,,3,3.039,1,,,,,,0.125520833,-0.258333333,1,0,0,3.0386,Diorite_rect,8,0,8,0,1,
665d3b8935ef56ce74c4761f,SCN,2024-06-24_15h34.36.689,LearnStrategy,2023.2.3,Win32,60.24096386,1,2,10,,,,,,,,8,06,,,,,,,,,,,8,3.322,1,,,,,,0.363020833,-0.402083333,1,0,0,3.3223,Pumice_rect,9,0,9,0,1,
665d3b8935ef56ce74c4761f,SCN,2024-06-24_15h34.36.689,LearnStrategy,2023.2.3,Win32,60.24096386,1,2,11,,,,,,,,6,12,,,,,,,,,,,6,4.437,1,,,,,,-0.075520833,-0.39375,1,0,0,4.4371,Pegmatite_rect,10,0,10,0,1,
665d3b8935ef56ce74c4761f,SCN,2024-06-24_15h34.36.689,LearnStrategy,2023.2.3,Win32,60.24096386,1,2,12,,,,,,,,3,07,,,,,,,,,,,3,4.558,1,,,,,,0.108854167,-0.2703125,1,0,0,4.5576,Diorite_rect,11,0,11,0,1,
665d3b8935ef56ce74c4761f,SCN,2024-06-24_15h34.36.689,LearnStrategy,2023.2.3,Win32,60.24096386,1,2,13,,,,,,,,4,03,,,,,,,,,,,2,4.74,0,,,,,,-0.128125,-0.257291667,1,0,0,4.7405,Basalt_rect,12,0,12,0,1,
665d3b8935ef56ce74c4761f,SCN,2024-06-24_15h34.36.689,LearnStrategy,2023.2.3,Win32,60.24096386,1,2,14,,,,,,,,4,11,,,,,,,,,,,1,5.357,0,,,,,,-0.386979167,-0.265625,1,0,0,5.3572,Andesite_rect,13,0,13,0,1,
665d3b8935ef56ce74c4761f,SCN,2024-06-24_15h34.36.689,LearnStrategy,2023.2.3,Win32,60.24096386,1,2,15,,,,,,,,5,06,,,,,,,,,,,5,2.214,1,,,,,,-0.425520833,-0.416145833,1,0,0,2.2135,Obsidian_rect,14,0,14,0,1,
665d3b8935ef56ce74c4761f,SCN,2024-06-24_15h34.36.689,LearnStrategy,2023.2.3,Win32,60.24096386,1,2,16,,,,,,,,8,16,,,,,,,,,,,8,3.362,1,,,,,,0.3453125,-0.392708333,1,0,0,3.3624,Pumice_rect,15,0,15,0,1,
665d3b8935ef56ce74c4761f,SCN,2024-06-24_15h34.36.689,LearnStrategy,2023.2.3,Win32,60.24096386,2,1,1,-0.530729167,0.407291667,1,0,0,5.2917,Pegmatite_05,6,05,6,1,5.292,0.118229167,-0.3921875,1,0,0,4.4424,Peridotite_rect,7,4.442,0,0,0,0,0,1,,,,,,,,,,,,,
665d3b8935ef56ce74c4761f,SCN,2024-06-24_15h34.36.689,LearnStrategy,2023.2.3,Win32,60.24096386,2,1,2,-0.560416667,0.394270833,1,0,0,2.8634,Pegmatite_05,6,05,6,1,2.863,-0.096354167,-0.397916667,1,0,0,6.1169,Pegmatite_rect,6,6.117,1,1,0,1,0,1,,,,,,,,,,,,,
665d3b8935ef56ce74c4761f,SCN,2024-06-24_15h34.36.689,LearnStrategy,2023.2.3,Win32,60.24096386,2,1,3,-0.2515625,0.379166667,1,0,0,2.0576,Peridotite_05,7,05,6,3,2.058,-0.18125,-0.258854167,1,0,0,2.5134,Basalt_rect,2,2.513,0,2,0,2,0,1,,,,,,,,,,,,,
665d3b8935ef56ce74c4761f,SCN,2024-06-24_15h34.36.689,LearnStrategy,2023.2.3,Win32,60.24096386,2,1,4,-0.111979167,0.3765625,1,0,0,2.3647,Pumice_15,8,15,6,4,2.365,0.402604167,-0.396354167,1,0,0,3.1733,Pumice_rect,8,3.173,1,3,0,3,0,1,,,,,,,,,,,,,
665d3b8935ef56ce74c4761f,SCN,2024-06-24_15h34.36.689,LearnStrategy,2023.2.3,Win32,60.24096386,2,1,5,0.224479167,0.409375,1,0,0,2.4499,Basalt_06,2,06,6,6,2.45,-0.144791667,-0.25625,1,0,0,2.5018,Basalt_rect,2,2.502,1,4,0,4,0,1,,,,,,,,,,,,,
665d3b8935ef56ce74c4761f,SCN,2024-06-24_15h34.36.689,LearnStrategy,2023.2.3,Win32,60.24096386,2,1,6,0.403125,0.3796875,1,0,0,1.9646,Peridotite_04,7,04,6,7,1.965,0.133333333,-0.2421875,1,0,0,1.9267,Diorite_rect,3,1.927,0,5,0,5,0,1,,,,,,,,,,,,,
665d3b8935ef56ce74c4761f,SCN,2024-06-24_15h34.36.689,LearnStrategy,2023.2.3,Win32,60.24096386,2,1,7,0.552083333,0.397916667,1,0,0,3.1249,Peridotite_14,7,14,6,8,3.125,0.14375,-0.386458333,1,0,0,2.7483,Peridotite_rect,7,2.748,1,6,0,6,0,1,,,,,,,,,,,,,
665d3b8935ef56ce74c4761f,SCN,2024-06-24_15h34.36.689,LearnStrategy,2023.2.3,Win32,60.24096386,2,1,8,-0.5609375,0.234895833,1,0,0,3.0813,Peridotite_10,7,10,5,1,3.081,0.096354167,-0.4109375,1,0,0,2.5732,Peridotite_rect,7,2.573,1,7,0,7,0,1,,,,,,,,,,,,,
665d3b8935ef56ce74c4761f,SCN,2024-06-24_15h34.36.689,LearnStrategy,2023.2.3,Win32,60.24096386,2,1,9,-0.527083333,0.234895833,1,0,0,4.8241,Peridotite_10,7,10,5,1,4.824,0.105208333,-0.4015625,1,0,0,2.1268,Peridotite_rect,7,2.127,1,8,0,8,0,1,,,,,,,,,,,,,
665d3b8935ef56ce74c4761f,SCN,2024-06-24_15h34.36.689,LearnStrategy,2023.2.3,Win32,60.24096386,2,1,10,-0.3875,0.227604167,1,0,0,1.6322,Peridotite_15,7,15,5,2,1.632,0.077604167,-0.4046875,1,0,0,1.8954,Peridotite_rect,7,1.895,1,9,0,9,0,1,,,,,,,,,,,,,
665d3b8935ef56ce74c4761f,SCN,2024-06-24_15h34.36.689,LearnStrategy,2023.2.3,Win32,60.24096386,2,1,11,-0.072395833,0.2578125,1,0,0,2.0809,Diorite_06,3,06,5,4,2.081,0.105208333,-0.260416667,1,0,0,1.6732,Diorite_rect,3,1.673,1,10,0,10,0,1,,,,,,,,,,,,,
665d3b8935ef56ce74c4761f,SCN,2024-06-24_15h34.36.689,LearnStrategy,2023.2.3,Win32,60.24096386,2,1,12,0.094270833,0.254166667,1,0,0,2.0154,Andesite_01,1,01,5,5,2.015,0.372916667,-0.261458333,1,0,0,2.7845,Gabbro_rect,4,2.785,0,11,0,11,0,1,,,,,,,,,,,,,
665d3b8935ef56ce74c4761f,SCN,2024-06-24_15h34.36.689,LearnStrategy,2023.2.3,Win32,60.24096386,2,1,13,0.2234375,0.226041667,1,0,0,2.2233,Gabbro_10,4,10,5,6,2.223,-0.3921875,-0.259375,1,0,0,3.5183,Andesite_rect,1,3.518,0,12,0,12,0,1,,,,,,,,,,,,,
665d3b8935ef56ce74c4761f,SCN,2024-06-24_15h34.36.689,LearnStrategy,2023.2.3,Win32,60.24096386,2,1,14,0.391666667,0.253645833,1,0,0,2.6329,Andesite_03,1,03,5,7,2.633,-0.419270833,-0.256770833,1,0,0,8.5943,Andesite_rect,1,8.594,1,13,0,13,0,1,,,,,,,,,,,,,
665d3b8935ef56ce74c4761f,SCN,2024-06-24_15h34.36.689,LearnStrategy,2023.2.3,Win32,60.24096386,2,1,15,0.5421875,0.226041667,1,0,0,2.4313,Basalt_14,2,14,5,8,2.431,0.39375,-0.419270833,1,0,0,2.0342,Pumice_rect,8,2.034,0,14,0,14,0,1,,,,,,,,,,,,,
665d3b8935ef56ce74c4761f,SCN,2024-06-24_15h34.36.689,LearnStrategy,2023.2.3,Win32,60.24096386,2,1,16,-0.544791667,0.061979167,1,0,0,2.8499,Basalt_08,2,08,4,1,2.85,-0.1609375,-0.2578125,1,0,0,1.9585,Basalt_rect,2,1.958,1,15,0,15,0,1,,,,,,,,,,,,,
665d3b8935ef56ce74c4761f,SCN,2024-06-24_15h34.36.689,LearnStrategy,2023.2.3,Win32,60.24096386,2,2,1,,,,,,,,3,02,,,,,,,,,,,3,7.852,1,,,,,,0.115104167,-0.263020833,1,0,0,7.8523,Diorite_rect,0,0,0,0,1,
665d3b8935ef56ce74c4761f,SCN,2024-06-24_15h34.36.689,LearnStrategy,2023.2.3,Win32,60.24096386,2,2,2,,,,,,,,2,01,,,,,,,,,,,2,3.645,1,,,,,,-0.132291667,-0.259375,1,0,0,3.6446,Basalt_rect,1,0,1,0,1,
665d3b8935ef56ce74c4761f,SCN,2024-06-24_15h34.36.689,LearnStrategy,2023.2.3,Win32,60.24096386,2,2,3,,,,,,,,4,14,,,,,,,,,,,4,2.482,1,,,,,,0.373958333,-0.25625,1,0,0,2.4824,Gabbro_rect,2,0,2,0,1,
665d3b8935ef56ce74c4761f,SCN,2024-06-24_15h34.36.689,LearnStrategy,2023.2.3,Win32,60.24096386,2,2,4,,,,,,,,8,14,,,,,,,,,,,8,1.957,1,,,,,,0.351041667,-0.409375,1,0,0,1.9571,Pumice_rect,3,0,3,0,1,
665d3b8935ef56ce74c4761f,SCN,2024-06-24_15h34.36.689,LearnStrategy,2023.2.3,Win32,60.24096386,2,2,5,,,,,,,,6,08,,,,,,,,,,,6,3.078,1,,,,,,-0.1421875,-0.409375,1,0,0,3.0779,Pegmatite_rect,4,0,4,0,1,
665d3b8935ef56ce74c4761f,SCN,2024-06-24_15h34.36.689,LearnStrategy,2023.2.3,Win32,60.24096386,2,2,6,,,,,,,,3,10,,,,,,,,,,,3,3.641,1,,,,,,0.109375,-0.252083333,1,0,0,3.6409,Diorite_rect,5,0,5,0,1,
665d3b8935ef56ce74c4761f,SCN,2024-06-24_15h34.36.689,LearnStrategy,2023.2.3,Win32,60.24096386,2,2,7,,,,,,,,7,13,,,,,,,,,,,6,4.128,0,,,,,,-0.141145833,-0.416666667,1,0,0,4.1275,Pegmatite_rect,6,0,6,0,1,
665d3b8935ef56ce74c4761f,SCN,2024-06-24_15h34.36.689,LearnStrategy,2023.2.3,Win32,60.24096386,2,2,8,,,,,,,,7,07,,,,,,,,,,,7,7.497,1,,,,,,0.105729167,-0.398958333,1,0,0,7.4974,Peridotite_rect,7,0,7,0,1,
665d3b8935ef56ce74c4761f,SCN,2024-06-24_15h34.36.689,LearnStrategy,2023.2.3,Win32,60.24096386,2,2,9,,,,,,,,6,03,,,,,,,,,,,6,1.797,1,,,,,,-0.144270833,-0.415104167,1,0,0,1.797,Pegmatite_rect,8,0,8,0,1,
665d3b8935ef56ce74c4761f,SCN,2024-06-24_15h34.36.689,LearnStrategy,2023.2.3,Win32,60.24096386,2,2,10,,,,,,,,1,09,,,,,,,,,,,1,3.429,1,,,,,,-0.376041667,-0.240625,1,0,0,3.429,Andesite_rect,9,0,9,0,1,
665d3b8935ef56ce74c4761f,SCN,2024-06-24_15h34.36.689,LearnStrategy,2023.2.3,Win32,60.24096386,2,2,11,,,,,,,,4,01,,,,,,,,,,,3,3.303,0,,,,,,0.127604167,-0.2328125,1,0,0,3.3033,Diorite_rect,10,0,10,0,1,
665d3b8935ef56ce74c4761f,SCN,2024-06-24_15h34.36.689,LearnStrategy,2023.2.3,Win32,60.24096386,2,2,12,,,,,,,,5,14,,,,,,,,,,,5,1.854,1,,,,,,-0.394270833,-0.405729167,1,0,0,1.8541,Obsidian_rect,11,0,11,0,1,
665d3b8935ef56ce74c4761f,SCN,2024-06-24_15h34.36.689,LearnStrategy,2023.2.3,Win32,60.24096386,2,2,13,,,,,,,,2,16,,,,,,,,,,,8,4.823,0,,,,,,0.366145833,-0.408854167,1,0,0,4.8232,Pumice_rect,12,0,12,0,1,
665d3b8935ef56ce74c4761f,SCN,2024-06-24_15h34.36.689,LearnStrategy,2023.2.3,Win32,60.24096386,2,2,14,,,,,,,,1,06,,,,,,,,,,,1,4.907,1,,,,,,-0.395833333,-0.253645833,1,0,0,4.9072,Andesite_rect,13,0,13,0,1,
665d3b8935ef56ce74c4761f,SCN,2024-06-24_15h34.36.689,LearnStrategy,2023.2.3,Win32,60.24096386,2,2,15,,,,,,,,5,08,,,,,,,,,,,5,1.442,1,,,,,,-0.398958333,-0.414583333,1,0,0,1.4421,Obsidian_rect,14,0,14,0,1,
665d3b8935ef56ce74c4761f,SCN,2024-06-24_15h34.36.689,LearnStrategy,2023.2.3,Win32,60.24096386,2,2,16,,,,,,,,8,04,,,,,,,,,,,8,1.957,1,,,,,,0.360416667,-0.394791667,1,0,0,1.9572,Pumice_rect,15,0,15,0,1,
665d3b8935ef56ce74c4761f,SCN,2024-06-24_15h34.36.689,LearnStrategy,2023.2.3,Win32,60.24096386,3,1,1,-0.5484375,-0.2625,1,0,0,5.2005,Pegmatite_13,6,13,2,1,5.2,-0.128645833,-0.397395833,1,0,0,4.3331,Pegmatite_rect,6,4.333,1,0,0,0,0,1,,,,,,,,,,,,,
665d3b8935ef56ce74c4761f,SCN,2024-06-24_15h34.36.689,LearnStrategy,2023.2.3,Win32,60.24096386,3,1,2,-0.396354167,-0.279166667,1,0,0,1.681,Diorite_14,3,14,2,2,1.681,0.1,-0.2390625,1,0,0,1.6253,Diorite_rect,3,1.625,1,1,0,1,0,1,,,,,,,,,,,,,
665d3b8935ef56ce74c4761f,SCN,2024-06-24_15h34.36.689,LearnStrategy,2023.2.3,Win32,60.24096386,3,1,3,-0.2359375,-0.273958333,1,0,0,1.4825,Gabbro_13,4,13,2,3,1.482,0.38125,-0.260416667,1,0,0,2.3583,Gabbro_rect,4,2.358,1,2,0,2,0,1,,,,,,,,,,,,,
665d3b8935ef56ce74c4761f,SCN,2024-06-24_15h34.36.689,LearnStrategy,2023.2.3,Win32,60.24096386,3,1,4,-0.067708333,-0.253645833,1,0,0,2.1969,Basalt_05,2,05,2,4,2.197,-0.15,-0.2421875,1,0,0,2.4878,Basalt_rect,2,2.488,1,3,0,3,0,1,,,,,,,,,,,,,
665d3b8935ef56ce74c4761f,SCN,2024-06-24_15h34.36.689,LearnStrategy,2023.2.3,Win32,60.24096386,3,1,5,0.409375,-0.234375,1,0,0,3.4825,Diorite_08,3,08,2,7,3.482,0.1296875,-0.271875,1,0,0,1.5953,Diorite_rect,3,1.595,1,4,0,4,0,1,,,,,,,,,,,,,
665d3b8935ef56ce74c4761f,SCN,2024-06-24_15h34.36.689,LearnStrategy,2023.2.3,Win32,60.24096386,3,1,6,0.556770833,-0.261979167,1,0,0,2.0347,Gabbro_12,4,12,2,8,2.035,-0.08125,-0.257291667,1,0,0,4.0425,Basalt_rect,2,4.042,0,5,0,5,0,1,,,,,,,,,,,,,
665d3b8935ef56ce74c4761f,SCN,2024-06-24_15h34.36.689,LearnStrategy,2023.2.3,Win32,60.24096386,3,1,7,0.5375,-0.105208333,1,0,0,2.3171,Andesite_05,1,05,3,8,2.317,-0.358854167,-0.246354167,1,0,0,2.263,Andesite_rect,1,2.263,1,6,0,6,0,1,,,,,,,,,,,,,
665d3b8935ef56ce74c4761f,SCN,2024-06-24_15h34.36.689,LearnStrategy,2023.2.3,Win32,60.24096386,3,1,8,0.381770833,-0.115104167,1,0,0,1.6464,Andesite_04,1,04,3,7,1.646,-0.432291667,-0.261979167,1,0,0,1.9112,Andesite_rect,1,1.911,1,7,0,7,0,1,,,,,,,,,,,,,
665d3b8935ef56ce74c4761f,SCN,2024-06-24_15h34.36.689,LearnStrategy,2023.2.3,Win32,60.24096386,3,1,9,0.239583333,-0.110416667,1,0,0,1.4643,Diorite_11,3,11,3,6,1.464,0.183333333,-0.253125,1,0,0,1.1197,Diorite_rect,3,1.12,1,8,0,8,0,1,,,,,,,,,,,,,
665d3b8935ef56ce74c4761f,SCN,2024-06-24_15h34.36.689,LearnStrategy,2023.2.3,Win32,60.24096386,3,1,10,0.084375,-0.113020833,1,0,0,1.4317,Basalt_11,2,11,3,5,1.432,0.355729167,-0.396875,1,0,0,2.1002,Pumice_rect,8,2.1,0,9,0,9,0,1,,,,,,,,,,,,,
665d3b8935ef56ce74c4761f,SCN,2024-06-24_15h34.36.689,LearnStrategy,2023.2.3,Win32,60.24096386,3,1,11,-0.060416667,-0.103645833,1,0,0,1.5499,Pumice_03,8,03,3,4,1.55,0.341666667,-0.403125,1,0,0,1.4474,Pumice_rect,8,1.447,1,10,0,10,0,1,,,,,,,,,,,,,
665d3b8935ef56ce74c4761f,SCN,2024-06-24_15h34.36.689,LearnStrategy,2023.2.3,Win32,60.24096386,3,1,12,0.085416667,-0.093229167,1,0,0,1.1255,Basalt_11,2,11,3,5,1.125,0.386979167,-0.266145833,1,0,0,1.5947,Gabbro_rect,4,1.595,0,11,0,11,0,1,,,,,,,,,,,,,
665d3b8935ef56ce74c4761f,SCN,2024-06-24_15h34.36.689,LearnStrategy,2023.2.3,Win32,60.24096386,3,1,13,0.204166667,-0.093229167,1,0,0,4.4329,Diorite_11,3,11,3,6,4.433,0.119791667,-0.25625,1,0,0,2.1043,Diorite_rect,3,2.104,1,12,0,12,0,1,,,,,,,,,,,,,
665d3b8935ef56ce74c4761f,SCN,2024-06-24_15h34.36.689,LearnStrategy,2023.2.3,Win32,60.24096386,3,1,14,-0.091145833,-0.106770833,1,0,0,2.6659,Pumice_03,8,03,3,4,2.666,0.361979167,-0.404166667,1,0,0,2.1958,Pumice_rect,8,2.196,1,13,0,13,0,1,,,,,,,,,,,,,
665d3b8935ef56ce74c4761f,SCN,2024-06-24_15h34.36.689,LearnStrategy,2023.2.3,Win32,60.24096386,3,1,15,0.093229167,-0.094791667,1,0,0,1.0485,Basalt_11,2,11,3,5,1.048,-0.131770833,-0.2515625,1,0,0,3.3931,Basalt_rect,2,3.393,1,14,0,14,0,1,,,,,,,,,,,,,
665d3b8935ef56ce74c4761f,SCN,2024-06-24_15h34.36.689,LearnStrategy,2023.2.3,Win32,60.24096386,3,1,16,-0.402604167,-0.120833333,1,0,0,2.2172,Obsidian_07,5,07,3,2,2.217,-0.346875,-0.405729167,1,0,0,1.8959,Obsidian_rect,5,1.896,1,15,0,15,0,1,,,,,,,,,,,,,
665d3b8935ef56ce74c4761f,SCN,2024-06-24_15h34.36.689,LearnStrategy,2023.2.3,Win32,60.24096386,3,2,1,,,,,,,,7,16,,,,,,,,,,,6,8.86,0,,,,,,-0.144270833,-0.409375,1,0,0,8.8599,Pegmatite_rect,0,0,0,0,1,
665d3b8935ef56ce74c4761f,SCN,2024-06-24_15h34.36.689,LearnStrategy,2023.2.3,Win32,60.24096386,3,2,2,,,,,,,,7,08,,,,,,,,,,,6,10.114,0,,,,,,-0.146354167,-0.405208333,1,0,0,10.114,Pegmatite_rect,1,0,1,0,1,
665d3b8935ef56ce74c4761f,SCN,2024-06-24_15h34.36.689,LearnStrategy,2023.2.3,Win32,60.24096386,3,2,3,,,,,,,,6,15,,,,,,,,,,,6,2.423,1,,,,,,-0.128125,-0.4046875,1,0,0,2.4226,Pegmatite_rect,2,0,2,0,1,
665d3b8935ef56ce74c4761f,SCN,2024-06-24_15h34.36.689,LearnStrategy,2023.2.3,Win32,60.24096386,3,2,4,,,,,,,,4,08,,,,,,,,,,,1,10.207,0,,,,,,-0.358333333,-0.265104167,1,0,0,10.2068,Andesite_rect,3,0,3,0,1,
665d3b8935ef56ce74c4761f,SCN,2024-06-24_15h34.36.689,LearnStrategy,2023.2.3,Win32,60.24096386,3,2,5,,,,,,,,8,09,,,,,,,,,,,8,1.892,1,,,,,,0.371354167,-0.407291667,1,0,0,1.8916,Pumice_rect,4,0,4,0,1,
665d3b8935ef56ce74c4761f,SCN,2024-06-24_15h34.36.689,LearnStrategy,2023.2.3,Win32,60.24096386,3,2,6,,,,,,,,5,02,,,,,,,,,,,5,1.679,1,,,,,,-0.389583333,-0.409375,1,0,0,1.6793,Obsidian_rect,5,0,5,0,1,
665d3b8935ef56ce74c4761f,SCN,2024-06-24_15h34.36.689,LearnStrategy,2023.2.3,Win32,60.24096386,3,2,7,,,,,,,,1,14,,,,,,,,,,,1,6.641,1,,,,,,-0.4203125,-0.263541667,1,0,0,6.6414,Andesite_rect,6,0,6,0,1,
665d3b8935ef56ce74c4761f,SCN,2024-06-24_15h34.36.689,LearnStrategy,2023.2.3,Win32,60.24096386,3,2,8,,,,,,,,6,11,,,,,,,,,,,5,3.025,0,,,,,,-0.422916667,-0.420833333,1,0,0,3.0251,Obsidian_rect,7,0,7,0,1,
665d3b8935ef56ce74c4761f,SCN,2024-06-24_15h34.36.689,LearnStrategy,2023.2.3,Win32,60.24096386,3,2,9,,,,,,,,3,15,,,,,,,,,,,3,2.253,1,,,,,,0.124479167,-0.2515625,1,0,0,2.2529,Diorite_rect,8,0,8,0,1,
665d3b8935ef56ce74c4761f,SCN,2024-06-24_15h34.36.689,LearnStrategy,2023.2.3,Win32,60.24096386,3,2,10,,,,,,,,8,13,,,,,,,,,,,8,4.788,1,,,,,,0.371875,-0.402604167,1,0,0,4.7876,Pumice_rect,9,0,9,0,1,
665d3b8935ef56ce74c4761f,SCN,2024-06-24_15h34.36.689,LearnStrategy,2023.2.3,Win32,60.24096386,3,2,11,,,,,,,,3,16,,,,,,,,,,,3,2.091,1,,,,,,0.146875,-0.257291667,1,0,0,2.0912,Diorite_rect,10,0,10,0,1,
665d3b8935ef56ce74c4761f,SCN,2024-06-24_15h34.36.689,LearnStrategy,2023.2.3,Win32,60.24096386,3,2,12,,,,,,,,2,09,,,,,,,,,,,2,3.384,1,,,,,,-0.1359375,-0.25625,1,0,0,3.3842,Basalt_rect,11,0,11,0,1,
665d3b8935ef56ce74c4761f,SCN,2024-06-24_15h34.36.689,LearnStrategy,2023.2.3,Win32,60.24096386,3,2,13,,,,,,,,5,09,,,,,,,,,,,5,1.326,1,,,,,,-0.35,-0.401041667,1,0,0,1.3261,Obsidian_rect,12,0,12,0,1,
665d3b8935ef56ce74c4761f,SCN,2024-06-24_15h34.36.689,LearnStrategy,2023.2.3,Win32,60.24096386,3,2,14,,,,,,,,2,10,,,,,,,,,,,2,3.989,1,,,,,,-0.090625,-0.266666667,1,0,0,3.9894,Basalt_rect,13,0,13,0,1,
665d3b8935ef56ce74c4761f,SCN,2024-06-24_15h34.36.689,LearnStrategy,2023.2.3,Win32,60.24096386,3,2,15,,,,,,,,4,16,,,,,,,,,,,4,4.822,1,,,,,,0.3640625,-0.2515625,1,0,0,4.8221,Gabbro_rect,14,0,14,0,1,
665d3b8935ef56ce74c4761f,SCN,2024-06-24_15h34.36.689,LearnStrategy,2023.2.3,Win32,60.24096386,3,2,16,,,,,,,,1,10,,,,,,,,,,,1,3.269,1,,,,,,-0.3890625,-0.256770833,1,0,0,3.2687,Andesite_rect,15,0,15,0,1,
665d3b8935ef56ce74c4761f,SCN,2024-06-24_15h34.36.689,LearnStrategy,2023.2.3,Win32,60.24096386,4,1,1,-0.549479167,0.091666667,1,0,0,3.0908,Basalt_08,2,08,4,1,3.091,-0.1578125,-0.257291667,1,0,0,1.2621,Basalt_rect,2,1.262,1,0,0,0,0,1,,,,,,,,,,,,,
665d3b8935ef56ce74c4761f,SCN,2024-06-24_15h34.36.689,LearnStrategy,2023.2.3,Win32,60.24096386,4,1,2,-0.372916667,0.0765625,1,0,0,1.6145,Pegmatite_07,6,07,4,2,1.615,-0.3921875,-0.409895833,1,0,0,3.7245,Obsidian_rect,5,3.725,0,1,0,1,0,1,,,,,,,,,,,,,
665d3b8935ef56ce74c4761f,SCN,2024-06-24_15h34.36.689,LearnStrategy,2023.2.3,Win32,60.24096386,4,1,3,-0.242708333,0.084895833,1,0,0,1.8335,Peridotite_06,7,06,4,3,1.834,0.0875,-0.405729167,1,0,0,4.9794,Peridotite_rect,7,4.979,1,2,0,2,0,1,,,,,,,,,,,,,
665d3b8935ef56ce74c4761f,SCN,2024-06-24_15h34.36.689,LearnStrategy,2023.2.3,Win32,60.24096386,4,1,4,0.234375,0.0921875,1,0,0,4.3315,Gabbro_05,4,05,4,6,4.332,-0.377083333,-0.249479167,1,0,0,3.5084,Andesite_rect,1,3.508,0,3,0,3,0,1,,,,,,,,,,,,,
665d3b8935ef56ce74c4761f,SCN,2024-06-24_15h34.36.689,LearnStrategy,2023.2.3,Win32,60.24096386,4,1,5,0.377083333,0.081770833,1,0,0,1.8313,Obsidian_05,5,05,4,7,1.831,-0.372395833,-0.408333333,1,0,0,3.5246,Obsidian_rect,5,3.525,1,4,0,4,0,1,,,,,,,,,,,,,
665d3b8935ef56ce74c4761f,SCN,2024-06-24_15h34.36.689,LearnStrategy,2023.2.3,Win32,60.24096386,4,1,6,0.398958333,0.059895833,1,0,0,2.2473,Obsidian_05,5,05,4,7,2.247,-0.384895833,-0.411458333,1,0,0,3.4229,Obsidian_rect,5,3.423,1,5,0,5,0,1,,,,,,,,,,,,,
665d3b8935ef56ce74c4761f,SCN,2024-06-24_15h34.36.689,LearnStrategy,2023.2.3,Win32,60.24096386,4,1,7,0.542708333,0.077604167,1,0,0,1.8323,Diorite_13,3,13,4,8,1.832,0.092708333,-0.2578125,1,0,0,3.7021,Diorite_rect,3,3.702,1,6,0,6,0,1,,,,,,,,,,,,,
665d3b8935ef56ce74c4761f,SCN,2024-06-24_15h34.36.689,LearnStrategy,2023.2.3,Win32,60.24096386,4,1,8,0.527604167,0.246354167,1,0,0,1.9902,Basalt_14,2,14,5,8,1.99,-0.155729167,-0.249479167,1,0,0,4.9967,Basalt_rect,2,4.997,1,7,0,7,0,1,,,,,,,,,,,,,
665d3b8935ef56ce74c4761f,SCN,2024-06-24_15h34.36.689,LearnStrategy,2023.2.3,Win32,60.24096386,4,1,9,0.376041667,0.242708333,1,0,0,1.7316,Andesite_03,1,03,5,7,1.732,-0.361979167,-0.258333333,1,0,0,1.4255,Andesite_rect,1,1.426,1,8,0,8,0,1,,,,,,,,,,,,,
665d3b8935ef56ce74c4761f,SCN,2024-06-24_15h34.36.689,LearnStrategy,2023.2.3,Win32,60.24096386,4,1,10,0.243229167,0.25,1,0,0,2.057,Gabbro_10,4,10,5,6,2.057,0.366145833,-0.247395833,1,0,0,3.2072,Gabbro_rect,4,3.207,1,9,0,9,0,1,,,,,,,,,,,,,
665d3b8935ef56ce74c4761f,SCN,2024-06-24_15h34.36.689,LearnStrategy,2023.2.3,Win32,60.24096386,4,1,11,0.216145833,0.234895833,1,0,0,1.8232,Gabbro_10,4,10,5,6,1.823,0.346354167,-0.246354167,1,0,0,2.8963,Gabbro_rect,4,2.896,1,10,0,10,0,1,,,,,,,,,,,,,
665d3b8935ef56ce74c4761f,SCN,2024-06-24_15h34.36.689,LearnStrategy,2023.2.3,Win32,60.24096386,4,1,12,-0.056770833,0.230208333,1,0,0,2.5983,Diorite_06,3,06,5,4,2.598,0.116666667,-0.3859375,1,0,0,2.4431,Peridotite_rect,7,2.443,0,11,0,11,0,1,,,,,,,,,,,,,
665d3b8935ef56ce74c4761f,SCN,2024-06-24_15h34.36.689,LearnStrategy,2023.2.3,Win32,60.24096386,4,1,13,-0.4046875,0.231770833,1,0,0,4.5487,Peridotite_15,7,15,5,2,4.549,0.0859375,-0.406770833,1,0,0,3.584,Peridotite_rect,7,3.584,1,12,0,12,0,1,,,,,,,,,,,,,
665d3b8935ef56ce74c4761f,SCN,2024-06-24_15h34.36.689,LearnStrategy,2023.2.3,Win32,60.24096386,4,1,14,-0.402604167,0.3859375,1,0,0,3.5303,Pegmatite_16,6,16,6,2,3.53,-0.188020833,-0.403125,1,0,0,3.4399,Pegmatite_rect,6,3.44,1,13,0,13,0,1,,,,,,,,,,,,,
665d3b8935ef56ce74c4761f,SCN,2024-06-24_15h34.36.689,LearnStrategy,2023.2.3,Win32,60.24096386,4,1,15,-0.239583333,-0.407291667,1,0,0,2.9247,Gabbro_15,4,15,1,3,2.925,0.370833333,-0.244791667,1,0,0,1.9973,Gabbro_rect,4,1.997,1,14,0,14,0,1,,,,,,,,,,,,,
665d3b8935ef56ce74c4761f,SCN,2024-06-24_15h34.36.689,LearnStrategy,2023.2.3,Win32,60.24096386,4,1,16,-0.375520833,-0.411979167,1,0,0,1.6315,Basalt_02,2,02,1,2,1.631,-0.157291667,-0.242708333,1,0,0,1.5286,Basalt_rect,2,1.529,1,15,0,15,0,1,,,,,,,,,,,,,
665d3b8935ef56ce74c4761f,SCN,2024-06-24_15h34.36.689,LearnStrategy,2023.2.3,Win32,60.24096386,4,2,1,,,,,,,,1,10,,,,,,,,,,,1,4.812,1,,,,,,-0.384375,-0.256770833,1,0,0,4.8117,Andesite_rect,0,0,0,0,1,
665d3b8935ef56ce74c4761f,SCN,2024-06-24_15h34.36.689,LearnStrategy,2023.2.3,Win32,60.24096386,4,2,2,,,,,,,,5,09,,,,,,,,,,,5,1.41,1,,,,,,-0.386979167,-0.398958333,1,0,0,1.4101,Obsidian_rect,1,0,1,0,1,
665d3b8935ef56ce74c4761f,SCN,2024-06-24_15h34.36.689,LearnStrategy,2023.2.3,Win32,60.24096386,4,2,3,,,,,,,,3,15,,,,,,,,,,,3,1.633,1,,,,,,0.119791667,-0.252083333,1,0,0,1.6331,Diorite_rect,2,0,2,0,1,
665d3b8935ef56ce74c4761f,SCN,2024-06-24_15h34.36.689,LearnStrategy,2023.2.3,Win32,60.24096386,4,2,4,,,,,,,,8,04,,,,,,,,,,,8,1.776,1,,,,,,0.382291667,-0.41875,1,0,0,1.7761,Pumice_rect,3,0,3,0,1,
665d3b8935ef56ce74c4761f,SCN,2024-06-24_15h34.36.689,LearnStrategy,2023.2.3,Win32,60.24096386,4,2,5,,,,,,,,6,11,,,,,,,,,,,5,2.621,0,,,,,,-0.371354167,-0.413020833,1,0,0,2.6206,Obsidian_rect,4,0,4,0,1,
665d3b8935ef56ce74c4761f,SCN,2024-06-24_15h34.36.689,LearnStrategy,2023.2.3,Win32,60.24096386,4,2,6,,,,,,,,6,09,,,,,,,,,,,6,4.061,1,,,,,,-0.156770833,-0.397395833,1,0,0,4.0611,Pegmatite_rect,5,0,5,0,1,
665d3b8935ef56ce74c4761f,SCN,2024-06-24_15h34.36.689,LearnStrategy,2023.2.3,Win32,60.24096386,4,2,7,,,,,,,,5,10,,,,,,,,,,,5,1.3,1,,,,,,-0.3453125,-0.409895833,1,0,0,1.3003,Obsidian_rect,6,0,6,0,1,
665d3b8935ef56ce74c4761f,SCN,2024-06-24_15h34.36.689,LearnStrategy,2023.2.3,Win32,60.24096386,4,2,8,,,,,,,,3,12,,,,,,,,,,,3,1.64,1,,,,,,0.092708333,-0.25,1,0,0,1.6402,Diorite_rect,7,0,7,0,1,
665d3b8935ef56ce74c4761f,SCN,2024-06-24_15h34.36.689,LearnStrategy,2023.2.3,Win32,60.24096386,4,2,9,,,,,,,,2,01,,,,,,,,,,,2,6.96,1,,,,,,-0.121354167,-0.259375,1,0,0,6.9605,Basalt_rect,8,0,8,0,1,
665d3b8935ef56ce74c4761f,SCN,2024-06-24_15h34.36.689,LearnStrategy,2023.2.3,Win32,60.24096386,4,2,10,,,,,,,,2,12,,,,,,,,,,,1,1.962,0,,,,,,-0.358854167,-0.2640625,1,0,0,1.9617,Andesite_rect,9,0,9,0,1,
665d3b8935ef56ce74c4761f,SCN,2024-06-24_15h34.36.689,LearnStrategy,2023.2.3,Win32,60.24096386,4,2,11,,,,,,,,7,13,,,,,,,,,,,7,3.525,1,,,,,,0.134895833,-0.391666667,1,0,0,3.5248,Peridotite_rect,10,0,10,0,1,
665d3b8935ef56ce74c4761f,SCN,2024-06-24_15h34.36.689,LearnStrategy,2023.2.3,Win32,60.24096386,4,2,12,,,,,,,,4,01,,,,,,,,,,,3,4.829,0,,,,,,0.095833333,-0.255729167,1,0,0,4.8286,Diorite_rect,11,0,11,0,1,
665d3b8935ef56ce74c4761f,SCN,2024-06-24_15h34.36.689,LearnStrategy,2023.2.3,Win32,60.24096386,4,2,13,,,,,,,,8,14,,,,,,,,,,,8,1.411,1,,,,,,0.402083333,-0.406770833,1,0,0,1.4113,Pumice_rect,12,0,12,0,1,
665d3b8935ef56ce74c4761f,SCN,2024-06-24_15h34.36.689,LearnStrategy,2023.2.3,Win32,60.24096386,4,2,14,,,,,,,,1,02,,,,,,,,,,,1,5.045,1,,,,,,-0.351041667,-0.247916667,1,0,0,5.0452,Andesite_rect,13,0,13,0,1,
665d3b8935ef56ce74c4761f,SCN,2024-06-24_15h34.36.689,LearnStrategy,2023.2.3,Win32,60.24096386,4,2,15,,,,,,,,4,03,,,,,,,,,,,3,1.724,0,,,,,,0.128125,-0.2375,1,0,0,1.7239,Diorite_rect,14,0,14,0,1,
665d3b8935ef56ce74c4761f,SCN,2024-06-24_15h34.36.689,LearnStrategy,2023.2.3,Win32,60.24096386,4,2,16,,,,,,,,7,12,,,,,,,,,,,7,7.474,1,,,,,,0.105208333,-0.399479167,1,0,0,7.4742,Peridotite_rect,15,0,15,0,1,
665d3b8935ef56ce74c4761f,SCN,2024-06-24_15h34.36.689,LearnStrategy,2023.2.3,Win32,60.24096386,5,1,1,-0.555208333,0.376041667,1,0,0,2.5418,Pegmatite_05,6,05,6,1,2.542,0.371875,-0.256770833,1,0,0,3.3303,Gabbro_rect,4,3.33,0,0,0,0,0,1,,,,,,,,,,,,,
665d3b8935ef56ce74c4761f,SCN,2024-06-24_15h34.36.689,LearnStrategy,2023.2.3,Win32,60.24096386,5,1,2,-0.552083333,0.383854167,1,0,0,2.2969,Pegmatite_05,6,05,6,1,2.297,-0.126041667,-0.392708333,1,0,0,6.3857,Pegmatite_rect,6,6.386,1,1,0,1,0,1,,,,,,,,,,,,,
665d3b8935ef56ce74c4761f,SCN,2024-06-24_15h34.36.689,LearnStrategy,2023.2.3,Win32,60.24096386,5,1,3,-0.384895833,0.3828125,1,0,0,1.7812,Pegmatite_16,6,16,6,2,1.781,-0.105208333,-0.405729167,1,0,0,2.8922,Pegmatite_rect,6,2.892,1,2,0,2,0,1,,,,,,,,,,,,,
665d3b8935ef56ce74c4761f,SCN,2024-06-24_15h34.36.689,LearnStrategy,2023.2.3,Win32,60.24096386,5,1,4,-0.2375,0.4125,1,0,0,3.7296,Peridotite_05,7,05,6,3,3.73,-0.1015625,-0.411458333,1,0,0,9.6114,Pegmatite_rect,6,9.611,0,3,0,3,0,1,,,,,,,,,,,,,
665d3b8935ef56ce74c4761f,SCN,2024-06-24_15h34.36.689,LearnStrategy,2023.2.3,Win32,60.24096386,5,1,5,-0.252604167,0.393229167,1,0,0,3.384,Peridotite_05,7,05,6,3,3.384,0.090625,-0.4046875,1,0,0,5.863,Peridotite_rect,7,5.863,1,4,0,4,0,1,,,,,,,,,,,,,
665d3b8935ef56ce74c4761f,SCN,2024-06-24_15h34.36.689,LearnStrategy,2023.2.3,Win32,60.24096386,5,1,6,-0.395833333,0.401041667,1,0,0,1.7641,Pegmatite_16,6,16,6,2,1.764,-0.157291667,-0.409375,1,0,0,2.4235,Pegmatite_rect,6,2.424,1,5,0,5,0,1,,,,,,,,,,,,,
665d3b8935ef56ce74c4761f,SCN,2024-06-24_15h34.36.689,LearnStrategy,2023.2.3,Win32,60.24096386,5,1,7,-0.5796875,0.374479167,1,0,0,1.8152,Pegmatite_05,6,05,6,1,1.815,-0.186979167,-0.400520833,1,0,0,2.0228,Pegmatite_rect,6,2.023,1,6,0,6,0,1,,,,,,,,,,,,,
665d3b8935ef56ce74c4761f,SCN,2024-06-24_15h34.36.689,LearnStrategy,2023.2.3,Win32,60.24096386,5,1,8,-0.0734375,0.413020833,1,0,0,1.8495,Pumice_15,8,15,6,4,1.85,0.364583333,-0.3984375,1,0,0,1.4074,Pumice_rect,8,1.407,1,7,0,7,0,1,,,,,,,,,,,,,
665d3b8935ef56ce74c4761f,SCN,2024-06-24_15h34.36.689,LearnStrategy,2023.2.3,Win32,60.24096386,5,1,9,0.2140625,0.394270833,1,0,0,2.2648,Basalt_06,2,06,6,6,2.265,-0.146875,-0.24375,1,0,0,2.3562,Basalt_rect,2,2.356,1,8,0,8,0,1,,,,,,,,,,,,,
665d3b8935ef56ce74c4761f,SCN,2024-06-24_15h34.36.689,LearnStrategy,2023.2.3,Win32,60.24096386,5,1,10,0.400520833,0.416666667,1,0,0,2.1245,Peridotite_04,7,04,6,7,2.124,0.3703125,-0.2421875,1,0,0,2.5279,Gabbro_rect,4,2.528,0,9,0,9,0,1,,,,,,,,,,,,,
665d3b8935ef56ce74c4761f,SCN,2024-06-24_15h34.36.689,LearnStrategy,2023.2.3,Win32,60.24096386,5,1,11,0.5578125,0.389583333,1,0,0,1.9388,Peridotite_14,7,14,6,8,1.939,0.160416667,-0.411979167,1,0,0,3.3246,Peridotite_rect,7,3.325,1,10,0,10,0,1,,,,,,,,,,,,,
665d3b8935ef56ce74c4761f,SCN,2024-06-24_15h34.36.689,LearnStrategy,2023.2.3,Win32,60.24096386,5,1,12,-0.554166667,0.252604167,1,0,0,4.9013,Peridotite_10,7,10,5,1,4.901,0.08125,-0.409375,1,0,0,3.0024,Peridotite_rect,7,3.002,1,11,0,11,0,1,,,,,,,,,,,,,
665d3b8935ef56ce74c4761f,SCN,2024-06-24_15h34.36.689,LearnStrategy,2023.2.3,Win32,60.24096386,5,1,13,-0.069270833,0.244270833,1,0,0,1.7902,Diorite_06,3,06,5,4,1.79,0.109895833,-0.242708333,1,0,0,1.9816,Diorite_rect,3,1.982,1,12,0,12,0,1,,,,,,,,,,,,,
665d3b8935ef56ce74c4761f,SCN,2024-06-24_15h34.36.689,LearnStrategy,2023.2.3,Win32,60.24096386,5,1,14,0.074479167,0.258854167,1,0,0,1.7819,Andesite_01,1,01,5,5,1.782,-0.357291667,-0.241666667,1,0,0,2.097,Andesite_rect,1,2.097,1,13,0,13,0,1,,,,,,,,,,,,,
665d3b8935ef56ce74c4761f,SCN,2024-06-24_15h34.36.689,LearnStrategy,2023.2.3,Win32,60.24096386,5,1,15,0.222395833,0.245833333,1,0,0,2.0082,Gabbro_10,4,10,5,6,2.008,-0.415625,-0.2640625,1,0,0,2.1951,Andesite_rect,1,2.195,0,14,0,14,0,1,,,,,,,,,,,,,
665d3b8935ef56ce74c4761f,SCN,2024-06-24_15h34.36.689,LearnStrategy,2023.2.3,Win32,60.24096386,5,1,16,0.375,0.2578125,1,0,0,2.0308,Andesite_03,1,03,5,7,2.031,-0.377604167,-0.236979167,1,0,0,1.6419,Andesite_rect,1,1.642,1,15,0,15,0,1,,,,,,,,,,,,,
665d3b8935ef56ce74c4761f,SCN,2024-06-24_15h34.36.689,LearnStrategy,2023.2.3,Win32,60.24096386,5,2,1,,,,,,,,3,07,,,,,,,,,,,3,3.547,1,,,,,,0.119270833,-0.248958333,1,0,0,3.547,Diorite_rect,0,0,0,0,1,
665d3b8935ef56ce74c4761f,SCN,2024-06-24_15h34.36.689,LearnStrategy,2023.2.3,Win32,60.24096386,5,2,2,,,,,,,,2,10,,,,,,,,,,,2,2.892,1,,,,,,-0.108333333,-0.266666667,1,0,0,2.8923,Basalt_rect,1,0,1,0,1,
665d3b8935ef56ce74c4761f,SCN,2024-06-24_15h34.36.689,LearnStrategy,2023.2.3,Win32,60.24096386,5,2,3,,,,,,,,8,16,,,,,,,,,,,8,1.908,1,,,,,,0.372916667,-0.3875,1,0,0,1.9075,Pumice_rect,2,0,2,0,1,
665d3b8935ef56ce74c4761f,SCN,2024-06-24_15h34.36.689,LearnStrategy,2023.2.3,Win32,60.24096386,5,2,4,,,,,,,,5,08,,,,,,,,,,,5,1.575,1,,,,,,-0.3734375,-0.391145833,1,0,0,1.575,Obsidian_rect,3,0,3,0,1,
665d3b8935ef56ce74c4761f,SCN,2024-06-24_15h34.36.689,LearnStrategy,2023.2.3,Win32,60.24096386,5,2,5,,,,,,,,6,08,,,,,,,,,,,6,4.908,1,,,,,,-0.163541667,-0.3921875,1,0,0,4.908,Pegmatite_rect,4,0,4,0,1,
665d3b8935ef56ce74c4761f,SCN,2024-06-24_15h34.36.689,LearnStrategy,2023.2.3,Win32,60.24096386,5,2,6,,,,,,,,1,11,,,,,,,,,,,1,1.577,1,,,,,,-0.374479167,-0.253645833,1,0,0,1.5767,Andesite_rect,5,0,5,0,1,
665d3b8935ef56ce74c4761f,SCN,2024-06-24_15h34.36.689,LearnStrategy,2023.2.3,Win32,60.24096386,5,2,7,,,,,,,,6,15,,,,,,,,,,,6,2.797,1,,,,,,-0.141145833,-0.413020833,1,0,0,2.7969,Pegmatite_rect,6,0,6,0,1,
665d3b8935ef56ce74c4761f,SCN,2024-06-24_15h34.36.689,LearnStrategy,2023.2.3,Win32,60.24096386,5,2,8,,,,,,,,2,16,,,,,,,,,,,2,2.658,1,,,,,,-0.1359375,-0.2546875,1,0,0,2.6582,Basalt_rect,7,0,7,0,1,
665d3b8935ef56ce74c4761f,SCN,2024-06-24_15h34.36.689,LearnStrategy,2023.2.3,Win32,60.24096386,5,2,9,,,,,,,,5,02,,,,,,,,,,,5,1.376,1,,,,,,-0.398958333,-0.4203125,1,0,0,1.3758,Obsidian_rect,8,0,8,0,1,
665d3b8935ef56ce74c4761f,SCN,2024-06-24_15h34.36.689,LearnStrategy,2023.2.3,Win32,60.24096386,5,2,10,,,,,,,,4,14,,,,,,,,,,,4,4.241,1,,,,,,0.436979167,-0.2375,1,0,0,4.2407,Gabbro_rect,9,0,9,0,1,
665d3b8935ef56ce74c4761f,SCN,2024-06-24_15h34.36.689,LearnStrategy,2023.2.3,Win32,60.24096386,5,2,11,,,,,,,,7,07,,,,,,,,,,,7,3.591,1,,,,,,0.1171875,-0.394270833,1,0,0,3.5911,Peridotite_rect,10,0,10,0,1,
665d3b8935ef56ce74c4761f,SCN,2024-06-24_15h34.36.689,LearnStrategy,2023.2.3,Win32,60.24096386,5,2,12,,,,,,,,3,02,,,,,,,,,,,3,2.243,1,,,,,,0.110416667,-0.254166667,1,0,0,2.2432,Diorite_rect,11,0,11,0,1,
665d3b8935ef56ce74c4761f,SCN,2024-06-24_15h34.36.689,LearnStrategy,2023.2.3,Win32,60.24096386,5,2,13,,,,,,,,1,14,,,,,,,,,,,4,8.724,0,,,,,,0.339583333,-0.245833333,1,0,0,8.724,Gabbro_rect,12,0,12,0,1,
665d3b8935ef56ce74c4761f,SCN,2024-06-24_15h34.36.689,LearnStrategy,2023.2.3,Win32,60.24096386,5,2,14,,,,,,,,8,09,,,,,,,,,,,8,1.423,1,,,,,,0.355729167,-0.398958333,1,0,0,1.4231,Pumice_rect,13,0,13,0,1,
665d3b8935ef56ce74c4761f,SCN,2024-06-24_15h34.36.689,LearnStrategy,2023.2.3,Win32,60.24096386,5,2,15,,,,,,,,7,02,,,,,,,,,,,7,3.096,1,,,,,,0.104166667,-0.4125,1,0,0,3.0965,Peridotite_rect,14,0,14,0,1,
665d3b8935ef56ce74c4761f,SCN,2024-06-24_15h34.36.689,LearnStrategy,2023.2.3,Win32,60.24096386,5,2,16,,,,,,,,4,08,,,,,,,,,,,4,4.507,1,,,,,,0.366145833,-0.247395833,1,0,0,4.5071,Gabbro_rect,15,0,15,0,1,
665d3b8935ef56ce74c4761f,SCN,2024-06-24_15h34.36.689,LearnStrategy,2023.2.3,Win32,60.24096386,6,1,1,-0.5390625,-0.1171875,1,0,0,2.2649,Gabbro_09,4,09,3,1,2.265,0.341666667,-0.241145833,1,0,0,3.5382,Gabbro_rect,4,3.538,1,0,0,0,0,1,,,,,,,,,,,,,
665d3b8935ef56ce74c4761f,SCN,2024-06-24_15h34.36.689,LearnStrategy,2023.2.3,Win32,60.24096386,6,1,2,-0.415104167,-0.129166667,1,0,0,1.3976,Obsidian_07,5,07,3,2,1.398,-0.410416667,-0.407291667,1,0,0,1.8743,Obsidian_rect,5,1.874,1,1,0,1,0,1,,,,,,,,,,,,,
665d3b8935ef56ce74c4761f,SCN,2024-06-24_15h34.36.689,LearnStrategy,2023.2.3,Win32,60.24096386,6,1,3,-0.215104167,-0.1125,1,0,0,1.2497,Andesite_07,1,07,3,3,1.25,-0.344791667,-0.245833333,1,0,0,1.6887,Andesite_rect,1,1.689,1,2,0,2,0,1,,,,,,,,,,,,,
665d3b8935ef56ce74c4761f,SCN,2024-06-24_15h34.36.689,LearnStrategy,2023.2.3,Win32,60.24096386,6,1,4,-0.078645833,-0.113541667,1,0,0,1.4641,Pumice_03,8,03,3,4,1.464,0.405729167,-0.409375,1,0,0,1.4408,Pumice_rect,8,1.441,1,3,0,3,0,1,,,,,,,,,,,,,
665d3b8935ef56ce74c4761f,SCN,2024-06-24_15h34.36.689,LearnStrategy,2023.2.3,Win32,60.24096386,6,1,5,0.088020833,-0.1078125,1,0,0,1.5835,Basalt_11,2,11,3,5,1.583,-0.140104167,-0.2625,1,0,0,2.1822,Basalt_rect,2,2.182,1,4,0,4,0,1,,,,,,,,,,,,,
665d3b8935ef56ce74c4761f,SCN,2024-06-24_15h34.36.689,LearnStrategy,2023.2.3,Win32,60.24096386,6,1,6,0.242708333,-0.1140625,1,0,0,1.1989,Diorite_11,3,11,3,6,1.199,0.188020833,-0.2578125,1,0,0,1.0201,Diorite_rect,3,1.02,1,5,0,5,0,1,,,,,,,,,,,,,
665d3b8935ef56ce74c4761f,SCN,2024-06-24_15h34.36.689,LearnStrategy,2023.2.3,Win32,60.24096386,6,1,7,0.39375,-0.109895833,1,0,0,1.1517,Andesite_04,1,04,3,7,1.152,-0.313541667,-0.2453125,1,0,0,1.5269,Andesite_rect,1,1.527,1,6,0,6,0,1,,,,,,,,,,,,,
665d3b8935ef56ce74c4761f,SCN,2024-06-24_15h34.36.689,LearnStrategy,2023.2.3,Win32,60.24096386,6,1,8,0.571354167,-0.1015625,1,0,0,4.6176,Andesite_05,1,05,3,8,4.618,-0.358333333,-0.234895833,1,0,0,2.0397,Andesite_rect,1,2.04,1,7,0,7,0,1,,,,,,,,,,,,,
665d3b8935ef56ce74c4761f,SCN,2024-06-24_15h34.36.689,LearnStrategy,2023.2.3,Win32,60.24096386,6,1,9,0.405729167,-0.100520833,1,0,0,1.014,Andesite_04,1,04,3,7,1.014,0.360416667,-0.255208333,1,0,0,2.306,Gabbro_rect,4,2.306,0,8,0,8,0,1,,,,,,,,,,,,,
665d3b8935ef56ce74c4761f,SCN,2024-06-24_15h34.36.689,LearnStrategy,2023.2.3,Win32,60.24096386,6,1,10,-0.551041667,-0.1125,1,0,0,2.6519,Gabbro_09,4,09,3,1,2.652,0.3609375,-0.236458333,1,0,0,1.8722,Gabbro_rect,4,1.872,1,9,0,9,0,1,,,,,,,,,,,,,
665d3b8935ef56ce74c4761f,SCN,2024-06-24_15h34.36.689,LearnStrategy,2023.2.3,Win32,60.24096386,6,1,11,0.209895833,-0.1203125,1,0,0,3.3073,Diorite_11,3,11,3,6,3.307,0.093229167,-0.259375,1,0,0,1.3084,Diorite_rect,3,1.308,1,10,0,10,0,1,,,,,,,,,,,,,
665d3b8935ef56ce74c4761f,SCN,2024-06-24_15h34.36.689,LearnStrategy,2023.2.3,Win32,60.24096386,6,1,12,-0.533854167,-0.258854167,1,0,0,2.3835,Pegmatite_13,6,13,2,1,2.383,0.061458333,-0.3890625,1,0,0,2.6863,Peridotite_rect,7,2.686,0,11,0,11,0,1,,,,,,,,,,,,,
665d3b8935ef56ce74c4761f,SCN,2024-06-24_15h34.36.689,LearnStrategy,2023.2.3,Win32,60.24096386,6,1,13,-0.361979167,-0.261979167,1,0,0,2.8486,Diorite_14,3,14,2,2,2.849,0.077083333,-0.246354167,1,0,0,1.2187,Diorite_rect,3,1.219,1,12,0,12,0,1,,,,,,,,,,,,,
665d3b8935ef56ce74c4761f,SCN,2024-06-24_15h34.36.689,LearnStrategy,2023.2.3,Win32,60.24096386,6,1,14,-0.202083333,-0.278645833,1,0,0,1.6177,Gabbro_13,4,13,2,3,1.618,0.38125,-0.255729167,1,0,0,3.5307,Gabbro_rect,4,3.531,1,13,0,13,0,1,,,,,,,,,,,,,
665d3b8935ef56ce74c4761f,SCN,2024-06-24_15h34.36.689,LearnStrategy,2023.2.3,Win32,60.24096386,6,1,15,-0.077083333,-0.252083333,1,0,0,5.6399,Basalt_05,2,05,2,4,5.64,-0.1546875,-0.26875,1,0,0,0.9151,Basalt_rect,2,0.915,1,14,0,14,0,1,,,,,,,,,,,,,
665d3b8935ef56ce74c4761f,SCN,2024-06-24_15h34.36.689,LearnStrategy,2023.2.3,Win32,60.24096386,6,1,16,0.261979167,-0.272916667,1,0,0,1.5984,Pegmatite_10,6,10,2,6,1.598,-0.1109375,-0.416666667,1,0,0,1.2925,Pegmatite_rect,6,1.293,1,15,0,15,0,1,,,,,,,,,,,,,
665d3b8935ef56ce74c4761f,SCN,2024-06-24_15h34.36.689,LearnStrategy,2023.2.3,Win32,60.24096386,6,2,1,,,,,,,,3,10,,,,,,,,,,,3,1.756,1,,,,,,0.089583333,-0.25625,1,0,0,1.7558,Diorite_rect,0,0,0,0,1,
665d3b8935ef56ce74c4761f,SCN,2024-06-24_15h34.36.689,LearnStrategy,2023.2.3,Win32,60.24096386,6,2,2,,,,,,,,6,03,,,,,,,,,,,6,4.135,1,,,,,,-0.152604167,-0.392708333,1,0,0,4.135,Pegmatite_rect,1,0,1,0,1,
665d3b8935ef56ce74c4761f,SCN,2024-06-24_15h34.36.689,LearnStrategy,2023.2.3,Win32,60.24096386,6,2,3,,,,,,,,5,14,,,,,,,,,,,5,1.393,1,,,,,,-0.35625,-0.398958333,1,0,0,1.393,Obsidian_rect,2,0,2,0,1,
665d3b8935ef56ce74c4761f,SCN,2024-06-24_15h34.36.689,LearnStrategy,2023.2.3,Win32,60.24096386,6,2,4,,,,,,,,7,16,,,,,,,,,,,4,2.841,0,,,,,,0.358854167,-0.2515625,1,0,0,2.841,Gabbro_rect,3,0,3,0,1,
665d3b8935ef56ce74c4761f,SCN,2024-06-24_15h34.36.689,LearnStrategy,2023.2.3,Win32,60.24096386,6,2,5,,,,,,,,8,13,,,,,,,,,,,8,1.574,1,,,,,,0.331770833,-0.409375,1,0,0,1.5745,Pumice_rect,4,0,4,0,1,
665d3b8935ef56ce74c4761f,SCN,2024-06-24_15h34.36.689,LearnStrategy,2023.2.3,Win32,60.24096386,6,2,6,,,,,,,,5,06,,,,,,,,,,,5,1.525,1,,,,,,-0.430208333,-0.397916667,1,0,0,1.5247,Obsidian_rect,5,0,5,0,1,
665d3b8935ef56ce74c4761f,SCN,2024-06-24_15h34.36.689,LearnStrategy,2023.2.3,Win32,60.24096386,6,2,7,,,,,,,,2,04,,,,,,,,,,,2,2.41,1,,,,,,-0.133854167,-0.247916667,1,0,0,2.4098,Basalt_rect,6,0,6,0,1,
665d3b8935ef56ce74c4761f,SCN,2024-06-24_15h34.36.689,LearnStrategy,2023.2.3,Win32,60.24096386,6,2,8,,,,,,,,4,16,,,,,,,,,,,4,2.127,1,,,,,,0.399479167,-0.245833333,1,0,0,2.1269,Gabbro_rect,7,0,7,0,1,
665d3b8935ef56ce74c4761f,SCN,2024-06-24_15h34.36.689,LearnStrategy,2023.2.3,Win32,60.24096386,6,2,9,,,,,,,,2,09,,,,,,,,,,,1,2.974,0,,,,,,-0.333333333,-0.253125,1,0,0,2.9742,Andesite_rect,8,0,8,0,1,
665d3b8935ef56ce74c4761f,SCN,2024-06-24_15h34.36.689,LearnStrategy,2023.2.3,Win32,60.24096386,6,2,10,,,,,,,,7,08,,,,,,,,,,,7,3.124,1,,,,,,0.178125,-0.399479167,1,0,0,3.1242,Peridotite_rect,9,0,9,0,1,
665d3b8935ef56ce74c4761f,SCN,2024-06-24_15h34.36.689,LearnStrategy,2023.2.3,Win32,60.24096386,6,2,11,,,,,,,,8,06,,,,,,,,,,,8,1.341,1,,,,,,0.3890625,-0.408333333,1,0,0,1.3415,Pumice_rect,10,0,10,0,1,
665d3b8935ef56ce74c4761f,SCN,2024-06-24_15h34.36.689,LearnStrategy,2023.2.3,Win32,60.24096386,6,2,12,,,,,,,,1,09,,,,,,,,,,,1,2.14,1,,,,,,-0.3828125,-0.265104167,1,0,0,2.1405,Andesite_rect,11,0,11,0,1,
665d3b8935ef56ce74c4761f,SCN,2024-06-24_15h34.36.689,LearnStrategy,2023.2.3,Win32,60.24096386,6,2,13,,,,,,,,3,16,,,,,,,,,,,3,1.585,1,,,,,,0.094791667,-0.269791667,1,0,0,1.5854,Diorite_rect,12,0,12,0,1,
665d3b8935ef56ce74c4761f,SCN,2024-06-24_15h34.36.689,LearnStrategy,2023.2.3,Win32,60.24096386,6,2,14,,,,,,,,1,06,,,,,,,,,,,1,2.008,1,,,,,,-0.376041667,-0.254166667,1,0,0,2.0079,Andesite_rect,13,0,13,0,1,
665d3b8935ef56ce74c4761f,SCN,2024-06-24_15h34.36.689,LearnStrategy,2023.2.3,Win32,60.24096386,6,2,15,,,,,,,,6,12,,,,,,,,,,,6,2.975,1,,,,,,-0.184375,-0.4,1,0,0,2.9746,Pegmatite_rect,14,0,14,0,1,
665d3b8935ef56ce74c4761f,SCN,2024-06-24_15h34.36.689,LearnStrategy,2023.2.3,Win32,60.24096386,6,2,16,,,,,,,,4,11,,,,,,,,,,,1,3.736,0,,,,,,-0.35,-0.245833333,1,0,0,3.7357,Andesite_rect,15,0,15,0,1,
665d3b8935ef56ce74c4761f,SCN,2024-06-24_15h34.36.689,LearnStrategy,2023.2.3,Win32,60.24096386,7,1,1,-0.552604167,0.396354167,1,0,0,4.2815,Pegmatite_05,6,05,6,1,4.282,-0.178645833,-0.4,1,0,0,5.1248,Pegmatite_rect,6,5.125,1,0,0,0,0,1,,,,,,,,,,,,,
665d3b8935ef56ce74c4761f,SCN,2024-06-24_15h34.36.689,LearnStrategy,2023.2.3,Win32,60.24096386,7,1,2,-0.3953125,0.3984375,1,0,0,2.0164,Pegmatite_16,6,16,6,2,2.016,-0.102604167,-0.408854167,1,0,0,2.7276,Pegmatite_rect,6,2.728,1,1,0,1,0,1,,,,,,,,,,,,,
665d3b8935ef56ce74c4761f,SCN,2024-06-24_15h34.36.689,LearnStrategy,2023.2.3,Win32,60.24096386,7,1,3,-0.226041667,0.4125,1,0,0,1.9309,Peridotite_05,7,05,6,3,1.931,0.094791667,-0.3859375,1,0,0,2.5779,Peridotite_rect,7,2.578,1,2,0,2,0,1,,,,,,,,,,,,,
665d3b8935ef56ce74c4761f,SCN,2024-06-24_15h34.36.689,LearnStrategy,2023.2.3,Win32,60.24096386,7,1,4,-0.089583333,0.390625,1,0,0,1.8648,Pumice_15,8,15,6,4,1.865,0.3875,-0.393229167,1,0,0,1.9449,Pumice_rect,8,1.945,1,3,0,3,0,1,,,,,,,,,,,,,
665d3b8935ef56ce74c4761f,SCN,2024-06-24_15h34.36.689,LearnStrategy,2023.2.3,Win32,60.24096386,7,1,5,0.228125,0.374479167,1,0,0,1.8983,Basalt_06,2,06,6,6,1.898,-0.158854167,-0.24375,1,0,0,1.1588,Basalt_rect,2,1.159,1,4,0,4,0,1,,,,,,,,,,,,,
665d3b8935ef56ce74c4761f,SCN,2024-06-24_15h34.36.689,LearnStrategy,2023.2.3,Win32,60.24096386,7,1,6,0.376041667,0.400520833,1,0,0,1.8655,Peridotite_04,7,04,6,7,1.866,0.122916667,-0.409895833,1,0,0,2.578,Peridotite_rect,7,2.578,1,5,0,5,0,1,,,,,,,,,,,,,
665d3b8935ef56ce74c4761f,SCN,2024-06-24_15h34.36.689,LearnStrategy,2023.2.3,Win32,60.24096386,7,1,7,0.553645833,0.369791667,1,0,0,1.8073,Peridotite_14,7,14,6,8,1.807,0.1359375,-0.4140625,1,0,0,2.1897,Peridotite_rect,7,2.19,1,6,0,6,0,1,,,,,,,,,,,,,
665d3b8935ef56ce74c4761f,SCN,2024-06-24_15h34.36.689,LearnStrategy,2023.2.3,Win32,60.24096386,7,1,8,0.566666667,0.244791667,1,0,0,1.4315,Basalt_14,2,14,5,8,1.431,0.35625,-0.255208333,1,0,0,3.5044,Gabbro_rect,4,3.504,0,7,0,7,0,1,,,,,,,,,,,,,
665d3b8935ef56ce74c4761f,SCN,2024-06-24_15h34.36.689,LearnStrategy,2023.2.3,Win32,60.24096386,7,1,9,0.388541667,0.226041667,1,0,0,1.7485,Andesite_03,1,03,5,7,1.748,-0.396875,-0.246875,1,0,0,1.2887,Andesite_rect,1,1.289,1,8,0,8,0,1,,,,,,,,,,,,,
665d3b8935ef56ce74c4761f,SCN,2024-06-24_15h34.36.689,LearnStrategy,2023.2.3,Win32,60.24096386,7,1,10,0.240625,0.2515625,1,0,0,1.933,Gabbro_10,4,10,5,6,1.933,0.401041667,-0.259375,1,0,0,4.6421,Gabbro_rect,4,4.642,1,9,0,9,0,1,,,,,,,,,,,,,
665d3b8935ef56ce74c4761f,SCN,2024-06-24_15h34.36.689,LearnStrategy,2023.2.3,Win32,60.24096386,7,1,11,0.527083333,0.2234375,1,0,0,2.6803,Basalt_14,2,14,5,8,2.68,-0.396354167,-0.245833333,1,0,0,2.0432,Andesite_rect,1,2.043,0,10,0,10,0,1,,,,,,,,,,,,,
665d3b8935ef56ce74c4761f,SCN,2024-06-24_15h34.36.689,LearnStrategy,2023.2.3,Win32,60.24096386,7,1,12,0.5328125,0.234375,1,0,0,2.1489,Basalt_14,2,14,5,8,2.149,-0.102083333,-0.253645833,1,0,0,1.8373,Basalt_rect,2,1.837,1,11,0,11,0,1,,,,,,,,,,,,,
665d3b8935ef56ce74c4761f,SCN,2024-06-24_15h34.36.689,LearnStrategy,2023.2.3,Win32,60.24096386,7,1,13,0.213541667,0.238541667,1,0,0,2.031,Gabbro_10,4,10,5,6,2.031,-0.35625,-0.246354167,1,0,0,1.8948,Andesite_rect,1,1.895,0,12,0,12,0,1,,,,,,,,,,,,,
665d3b8935ef56ce74c4761f,SCN,2024-06-24_15h34.36.689,LearnStrategy,2023.2.3,Win32,60.24096386,7,1,14,0.065625,0.255208333,1,0,0,1.7826,Andesite_01,1,01,5,5,1.783,0.108333333,-0.246354167,1,0,0,1.7907,Diorite_rect,3,1.791,0,13,0,13,0,1,,,,,,,,,,,,,
665d3b8935ef56ce74c4761f,SCN,2024-06-24_15h34.36.689,LearnStrategy,2023.2.3,Win32,60.24096386,7,1,15,-0.075,0.256770833,1,0,0,1.4821,Diorite_06,3,06,5,4,1.482,0.098958333,-0.241145833,1,0,0,1.7128,Diorite_rect,3,1.713,1,14,0,14,0,1,,,,,,,,,,,,,
665d3b8935ef56ce74c4761f,SCN,2024-06-24_15h34.36.689,LearnStrategy,2023.2.3,Win32,60.24096386,7,1,16,-0.246875,0.0875,1,0,0,2.3342,Peridotite_06,7,06,4,3,2.334,0.0828125,-0.410416667,1,0,0,1.8628,Peridotite_rect,7,1.863,1,15,0,15,0,1,,,,,,,,,,,,,
665d3b8935ef56ce74c4761f,SCN,2024-06-24_15h34.36.689,LearnStrategy,2023.2.3,Win32,60.24096386,7,2,1,,,,,,,,7,02,,,,,,,,,,,7,3.868,1,,,,,,0.089583333,-0.409895833,1,0,0,3.8678,Peridotite_rect,0,0,0,0,1,
665d3b8935ef56ce74c4761f,SCN,2024-06-24_15h34.36.689,LearnStrategy,2023.2.3,Win32,60.24096386,7,2,2,,,,,,,,8,09,,,,,,,,,,,8,1.422,1,,,,,,0.351041667,-0.403645833,1,0,0,1.4219,Pumice_rect,1,0,1,0,1,
665d3b8935ef56ce74c4761f,SCN,2024-06-24_15h34.36.689,LearnStrategy,2023.2.3,Win32,60.24096386,7,2,3,,,,,,,,1,14,,,,,,,,,,,6,8.74,0,,,,,,-0.127604167,-0.405729167,1,0,0,8.7403,Pegmatite_rect,2,0,2,0,1,
665d3b8935ef56ce74c4761f,SCN,2024-06-24_15h34.36.689,LearnStrategy,2023.2.3,Win32,60.24096386,7,2,4,,,,,,,,8,13,,,,,,,,,,,8,1.62,1,,,,,,0.3734375,-0.4015625,1,0,0,1.6196,Pumice_rect,3,0,3,0,1,
665d3b8935ef56ce74c4761f,SCN,2024-06-24_15h34.36.689,LearnStrategy,2023.2.3,Win32,60.24096386,7,2,5,,,,,,,,2,16,,,,,,,,,,,2,1.679,1,,,,,,-0.1328125,-0.252083333,1,0,0,1.6793,Basalt_rect,4,0,4,0,1,
665d3b8935ef56ce74c4761f,SCN,2024-06-24_15h34.36.689,LearnStrategy,2023.2.3,Win32,60.24096386,7,2,6,,,,,,,,2,04,,,,,,,,,,,2,2.557,1,,,,,,-0.155729167,-0.258333333,1,0,0,2.5565,Basalt_rect,5,0,5,0,1,
665d3b8935ef56ce74c4761f,SCN,2024-06-24_15h34.36.689,LearnStrategy,2023.2.3,Win32,60.24096386,7,2,7,,,,,,,,1,06,,,,,,,,,,,1,1.614,1,,,,,,-0.377083333,-0.253645833,1,0,0,1.6141,Andesite_rect,6,0,6,0,1,
665d3b8935ef56ce74c4761f,SCN,2024-06-24_15h34.36.689,LearnStrategy,2023.2.3,Win32,60.24096386,7,2,8,,,,,,,,7,07,,,,,,,,,,,7,2.858,1,,,,,,0.118229167,-0.416145833,1,0,0,2.8583,Peridotite_rect,7,0,7,0,1,
665d3b8935ef56ce74c4761f,SCN,2024-06-24_15h34.36.689,LearnStrategy,2023.2.3,Win32,60.24096386,7,2,9,,,,,,,,6,11,,,,,,,,,,,5,6.457,0,,,,,,-0.40625,-0.3953125,1,0,0,6.4575,Obsidian_rect,8,0,8,0,1,
665d3b8935ef56ce74c4761f,SCN,2024-06-24_15h34.36.689,LearnStrategy,2023.2.3,Win32,60.24096386,7,2,10,,,,,,,,3,12,,,,,,,,,,,3,2.911,1,,,,,,0.128125,-0.239583333,1,0,0,2.9113,Diorite_rect,9,0,9,0,1,
665d3b8935ef56ce74c4761f,SCN,2024-06-24_15h34.36.689,LearnStrategy,2023.2.3,Win32,60.24096386,7,2,11,,,,,,,,5,09,,,,,,,,,,,5,1.39,1,,,,,,-0.388020833,-0.400520833,1,0,0,1.3897,Obsidian_rect,10,0,10,0,1,
665d3b8935ef56ce74c4761f,SCN,2024-06-24_15h34.36.689,LearnStrategy,2023.2.3,Win32,60.24096386,7,2,12,,,,,,,,6,15,,,,,,,,,,,6,2.124,1,,,,,,-0.146875,-0.386458333,1,0,0,2.1244,Pegmatite_rect,11,0,11,0,1,
665d3b8935ef56ce74c4761f,SCN,2024-06-24_15h34.36.689,LearnStrategy,2023.2.3,Win32,60.24096386,7,2,13,,,,,,,,4,08,,,,,,,,,,,4,5.141,1,,,,,,0.3546875,-0.236979167,1,0,0,5.1413,Gabbro_rect,12,0,12,0,1,
665d3b8935ef56ce74c4761f,SCN,2024-06-24_15h34.36.689,LearnStrategy,2023.2.3,Win32,60.24096386,7,2,14,,,,,,,,5,02,,,,,,,,,,,5,1.991,1,,,,,,-0.3203125,-0.3828125,1,0,0,1.9912,Obsidian_rect,13,0,13,0,1,
665d3b8935ef56ce74c4761f,SCN,2024-06-24_15h34.36.689,LearnStrategy,2023.2.3,Win32,60.24096386,7,2,15,,,,,,,,3,16,,,,,,,,,,,3,2.007,1,,,,,,0.138541667,-0.2546875,1,0,0,2.0067,Diorite_rect,14,0,14,0,1,
665d3b8935ef56ce74c4761f,SCN,2024-06-24_15h34.36.689,LearnStrategy,2023.2.3,Win32,60.24096386,7,2,16,,,,,,,,4,14,,,,,,,,,,,4,2.71,1,,,,,,0.411979167,-0.243229167,1,0,0,2.7099,Gabbro_rect,15,0,15,0,1,
665d3b8935ef56ce74c4761f,SCN,2024-06-24_15h34.36.689,LearnStrategy,2023.2.3,Win32,60.24096386,8,1,1,-0.540104167,-0.113541667,1,0,0,7.9082,Gabbro_09,4,09,3,1,7.908,0.358854167,-0.244791667,1,0,0,2.6931,Gabbro_rect,4,2.693,1,0,0,0,0,1,,,,,,,,,,,,,
665d3b8935ef56ce74c4761f,SCN,2024-06-24_15h34.36.689,LearnStrategy,2023.2.3,Win32,60.24096386,8,1,2,-0.385416667,-0.119270833,1,0,0,1.2479,Obsidian_07,5,07,3,2,1.248,-0.421354167,-0.414583333,1,0,0,1.3552,Obsidian_rect,5,1.355,1,1,0,1,0,1,,,,,,,,,,,,,
665d3b8935ef56ce74c4761f,SCN,2024-06-24_15h34.36.689,LearnStrategy,2023.2.3,Win32,60.24096386,8,1,3,-0.222916667,-0.108854167,1,0,0,4.3152,Andesite_07,1,07,3,3,4.315,-0.369270833,-0.2421875,1,0,0,3.9087,Andesite_rect,1,3.909,1,2,0,2,0,1,,,,,,,,,,,,,
665d3b8935ef56ce74c4761f,SCN,2024-06-24_15h34.36.689,LearnStrategy,2023.2.3,Win32,60.24096386,8,1,4,0.072916667,-0.091666667,1,0,0,1.464,Basalt_11,2,11,3,5,1.464,-0.153125,-0.246875,1,0,0,3.5365,Basalt_rect,2,3.537,1,3,0,3,0,1,,,,,,,,,,,,,
665d3b8935ef56ce74c4761f,SCN,2024-06-24_15h34.36.689,LearnStrategy,2023.2.3,Win32,60.24096386,8,1,5,0.363020833,-0.129166667,1,0,0,1.95,Andesite_04,1,04,3,7,1.95,-0.371875,-0.241666667,1,0,0,1.609,Andesite_rect,1,1.609,1,4,0,4,0,1,,,,,,,,,,,,,
665d3b8935ef56ce74c4761f,SCN,2024-06-24_15h34.36.689,LearnStrategy,2023.2.3,Win32,60.24096386,8,1,6,0.545833333,-0.117708333,1,0,0,1.4158,Andesite_05,1,05,3,8,1.416,0.075520833,-0.400520833,1,0,0,4.4847,Peridotite_rect,7,4.485,0,5,0,5,0,1,,,,,,,,,,,,,
665d3b8935ef56ce74c4761f,SCN,2024-06-24_15h34.36.689,LearnStrategy,2023.2.3,Win32,60.24096386,8,1,7,0.253645833,-0.2828125,1,0,0,1.6633,Pegmatite_10,6,10,2,6,1.663,-0.100520833,-0.411458333,1,0,0,1.7246,Pegmatite_rect,6,1.725,1,6,0,6,0,1,,,,,,,,,,,,,
665d3b8935ef56ce74c4761f,SCN,2024-06-24_15h34.36.689,LearnStrategy,2023.2.3,Win32,60.24096386,8,1,8,0.244791667,-0.4078125,1,0,0,1.6658,Pumice_02,8,02,1,6,1.666,0.3578125,-0.392708333,1,0,0,1.1571,Pumice_rect,8,1.157,1,7,0,7,0,1,,,,,,,,,,,,,
665d3b8935ef56ce74c4761f,SCN,2024-06-24_15h34.36.689,LearnStrategy,2023.2.3,Win32,60.24096386,8,1,9,0.586979167,-0.4296875,1,0,0,1.5824,Pegmatite_06,6,06,1,8,1.582,-0.372916667,-0.403645833,1,0,0,5.3268,Obsidian_rect,5,5.327,0,8,0,8,0,1,,,,,,,,,,,,,
665d3b8935ef56ce74c4761f,SCN,2024-06-24_15h34.36.689,LearnStrategy,2023.2.3,Win32,60.24096386,8,1,10,-0.409895833,-0.419791667,1,0,0,3.1307,Basalt_02,2,02,1,2,3.131,-0.197916667,-0.249479167,1,0,0,1.5723,Basalt_rect,2,1.572,1,9,0,9,0,1,,,,,,,,,,,,,
665d3b8935ef56ce74c4761f,SCN,2024-06-24_15h34.36.689,LearnStrategy,2023.2.3,Win32,60.24096386,8,1,11,-0.555208333,-0.405208333,1,0,0,1.6822,Andesite_16,1,16,1,1,1.682,-0.413020833,-0.243229167,1,0,0,1.3964,Andesite_rect,1,1.396,1,10,0,10,0,1,,,,,,,,,,,,,
665d3b8935ef56ce74c4761f,SCN,2024-06-24_15h34.36.689,LearnStrategy,2023.2.3,Win32,60.24096386,8,1,12,-0.219791667,-0.4125,1,0,0,1.6924,Gabbro_15,4,15,1,3,1.692,0.3828125,-0.248958333,1,0,0,1.3384,Gabbro_rect,4,1.338,1,11,0,11,0,1,,,,,,,,,,,,,
665d3b8935ef56ce74c4761f,SCN,2024-06-24_15h34.36.689,LearnStrategy,2023.2.3,Win32,60.24096386,8,1,13,0.216666667,-0.4140625,0,0,1,3.7741,Pumice_02,8,02,1,6,3.774,0.363541667,-0.400520833,1,0,0,2.465,Pumice_rect,8,2.465,1,12,0,12,0,1,,,,,,,,,,,,,
665d3b8935ef56ce74c4761f,SCN,2024-06-24_15h34.36.689,LearnStrategy,2023.2.3,Win32,60.24096386,8,1,14,0.4015625,-0.431770833,1,0,0,1.3641,Pumice_08,8,08,1,7,1.364,0.3734375,-0.411458333,1,0,0,1.6029,Pumice_rect,8,1.603,1,13,0,13,0,1,,,,,,,,,,,,,
665d3b8935ef56ce74c4761f,SCN,2024-06-24_15h34.36.689,LearnStrategy,2023.2.3,Win32,60.24096386,8,1,15,0.535416667,-0.425,1,0,0,2.6325,Pegmatite_06,6,06,1,8,2.632,-0.086979167,-0.389583333,1,0,0,3.2295,Pegmatite_rect,6,3.229,1,14,0,14,0,1,,,,,,,,,,,,,
665d3b8935ef56ce74c4761f,SCN,2024-06-24_15h34.36.689,LearnStrategy,2023.2.3,Win32,60.24096386,8,1,16,0.514583333,-0.271875,1,0,0,1.5473,Gabbro_12,4,12,2,8,1.547,-0.096875,-0.252083333,1,0,0,2.8601,Basalt_rect,2,2.86,0,15,0,15,0,1,,,,,,,,,,,,,
665d3b8935ef56ce74c4761f,SCN,2024-06-24_15h34.36.689,LearnStrategy,2023.2.3,Win32,60.24096386,8,2,1,,,,,,,,3,07,,,,,,,,,,,3,1.864,1,,,,,,0.127083333,-0.247916667,1,0,0,1.8635,Diorite_rect,0,0,0,0,1,
665d3b8935ef56ce74c4761f,SCN,2024-06-24_15h34.36.689,LearnStrategy,2023.2.3,Win32,60.24096386,8,2,2,,,,,,,,7,08,,,,,,,,,,,7,3.097,1,,,,,,0.0828125,-0.40625,1,0,0,3.097,Peridotite_rect,1,0,1,0,1,
665d3b8935ef56ce74c4761f,SCN,2024-06-24_15h34.36.689,LearnStrategy,2023.2.3,Win32,60.24096386,8,2,3,,,,,,,,2,09,,,,,,,,,,,1,7.243,0,,,,,,-0.394791667,-0.255208333,1,0,0,7.2428,Andesite_rect,2,0,2,0,1,
665d3b8935ef56ce74c4761f,SCN,2024-06-24_15h34.36.689,LearnStrategy,2023.2.3,Win32,60.24096386,8,2,4,,,,,,,,6,08,,,,,,,,,,,6,5.341,1,,,,,,-0.146354167,-0.411458333,1,0,0,5.3414,Pegmatite_rect,3,0,3,0,1,
665d3b8935ef56ce74c4761f,SCN,2024-06-24_15h34.36.689,LearnStrategy,2023.2.3,Win32,60.24096386,8,2,5,,,,,,,,7,13,,,,,,,,,,,7,2.141,1,,,,,,0.096354167,-0.4046875,1,0,0,2.1409,Peridotite_rect,4,0,4,0,1,
665d3b8935ef56ce74c4761f,SCN,2024-06-24_15h34.36.689,LearnStrategy,2023.2.3,Win32,60.24096386,8,2,6,,,,,,,,6,09,,,,,,,,,,,6,4.008,1,,,,,,-0.153125,-0.403645833,1,0,0,4.008,Pegmatite_rect,5,0,5,0,1,
665d3b8935ef56ce74c4761f,SCN,2024-06-24_15h34.36.689,LearnStrategy,2023.2.3,Win32,60.24096386,8,2,7,,,,,,,,5,06,,,,,,,,,,,5,1.44,1,,,,,,-0.3703125,-0.410416667,1,0,0,1.4398,Obsidian_rect,6,0,6,0,1,
665d3b8935ef56ce74c4761f,SCN,2024-06-24_15h34.36.689,LearnStrategy,2023.2.3,Win32,60.24096386,8,2,8,,,,,,,,8,16,,,,,,,,,,,8,2.959,1,,,,,,0.355729167,-0.404166667,1,0,0,2.9595,Pumice_rect,7,0,7,0,1,
665d3b8935ef56ce74c4761f,SCN,2024-06-24_15h34.36.689,LearnStrategy,2023.2.3,Win32,60.24096386,8,2,9,,,,,,,,5,08,,,,,,,,,,,5,1.604,1,,,,,,-0.398958333,-0.388020833,1,0,0,1.6036,Obsidian_rect,8,0,8,0,1,
665d3b8935ef56ce74c4761f,SCN,2024-06-24_15h34.36.689,LearnStrategy,2023.2.3,Win32,60.24096386,8,2,10,,,,,,,,8,14,,,,,,,,,,,8,1.647,1,,,,,,0.365104167,-0.395833333,1,0,0,1.647,Pumice_rect,9,0,9,0,1,
665d3b8935ef56ce74c4761f,SCN,2024-06-24_15h34.36.689,LearnStrategy,2023.2.3,Win32,60.24096386,8,2,11,,,,,,,,1,10,,,,,,,,,,,1,2.16,1,,,,,,-0.366666667,-0.24375,1,0,0,2.1602,Andesite_rect,10,0,10,0,1,
665d3b8935ef56ce74c4761f,SCN,2024-06-24_15h34.36.689,LearnStrategy,2023.2.3,Win32,60.24096386,8,2,12,,,,,,,,4,01,,,,,,,,,,,7,3.293,0,,,,,,0.088541667,-0.419270833,1,0,0,3.2934,Peridotite_rect,11,0,11,0,1,
665d3b8935ef56ce74c4761f,SCN,2024-06-24_15h34.36.689,LearnStrategy,2023.2.3,Win32,60.24096386,8,2,13,,,,,,,,3,10,,,,,,,,,,,3,1.649,1,,,,,,0.119270833,-0.261458333,1,0,0,1.6485,Diorite_rect,12,0,12,0,1,
665d3b8935ef56ce74c4761f,SCN,2024-06-24_15h34.36.689,LearnStrategy,2023.2.3,Win32,60.24096386,8,2,14,,,,,,,,2,12,,,,,,,,,,,1,2.19,0,,,,,,-0.3984375,-0.261979167,1,0,0,2.1903,Andesite_rect,13,0,13,0,1,
665d3b8935ef56ce74c4761f,SCN,2024-06-24_15h34.36.689,LearnStrategy,2023.2.3,Win32,60.24096386,8,2,15,,,,,,,,1,02,,,,,,,,,,,1,5.078,1,,,,,,-0.386979167,-0.253125,1,0,0,5.0783,Andesite_rect,14,0,14,0,1,
665d3b8935ef56ce74c4761f,SCN,2024-06-24_15h34.36.689,LearnStrategy,2023.2.3,Win32,60.24096386,8,2,16,,,,,,,,4,03,,,,,,,,,,,4,4.279,1,,,,,,0.3703125,-0.252604167,1,0,0,4.2794,Gabbro_rect,15,0,15,0,1,
665d3b8935ef56ce74c4761f,SCN,2024-06-24_15h34.36.689,LearnStrategy,2023.2.3,Win32,60.24096386,9,1,1,-0.394791667,0.103645833,1,0,0,2.3685,Pegmatite_07,6,07,4,2,2.368,-0.196354167,-0.419791667,1,0,0,2.7363,Pegmatite_rect,6,2.736,1,0,0,0,0,1,,,,,,,,,,,,,
665d3b8935ef56ce74c4761f,SCN,2024-06-24_15h34.36.689,LearnStrategy,2023.2.3,Win32,60.24096386,9,1,2,-0.251041667,0.061979167,1,0,0,2.746,Peridotite_06,7,06,4,3,2.746,0.0828125,-0.400520833,1,0,0,2.1811,Peridotite_rect,7,2.181,1,1,0,1,0,1,,,,,,,,,,,,,
665d3b8935ef56ce74c4761f,SCN,2024-06-24_15h34.36.689,LearnStrategy,2023.2.3,Win32,60.24096386,9,1,3,0.2171875,0.0765625,1,0,0,3.0402,Gabbro_05,4,05,4,6,3.04,-0.374479167,-0.24375,1,0,0,2.1393,Andesite_rect,1,2.139,0,2,0,2,0,1,,,,,,,,,,,,,
665d3b8935ef56ce74c4761f,SCN,2024-06-24_15h34.36.689,LearnStrategy,2023.2.3,Win32,60.24096386,9,1,4,0.2453125,0.105208333,1,0,0,2.3825,Gabbro_05,4,05,4,6,2.382,0.395833333,-0.258854167,1,0,0,2.9459,Gabbro_rect,4,2.946,1,3,0,3,0,1,,,,,,,,,,,,,
665d3b8935ef56ce74c4761f,SCN,2024-06-24_15h34.36.689,LearnStrategy,2023.2.3,Win32,60.24096386,9,1,5,0.3953125,0.0921875,1,0,0,1.7141,Obsidian_05,5,05,4,7,1.714,-0.427604167,-0.403125,1,0,0,1.3729,Obsidian_rect,5,1.373,1,4,0,4,0,1,,,,,,,,,,,,,
665d3b8935ef56ce74c4761f,SCN,2024-06-24_15h34.36.689,LearnStrategy,2023.2.3,Win32,60.24096386,9,1,6,0.561458333,0.079166667,1,0,0,1.2824,Diorite_13,3,13,4,8,1.282,0.108333333,-0.256770833,1,0,0,1.971,Diorite_rect,3,1.971,1,5,0,5,0,1,,,,,,,,,,,,,
665d3b8935ef56ce74c4761f,SCN,2024-06-24_15h34.36.689,LearnStrategy,2023.2.3,Win32,60.24096386,9,1,7,0.096875,0.223958333,1,0,0,3.3487,Andesite_01,1,01,5,5,3.349,-0.369791667,-0.248958333,1,0,0,1.6605,Andesite_rect,1,1.66,1,6,0,6,0,1,,,,,,,,,,,,,
665d3b8935ef56ce74c4761f,SCN,2024-06-24_15h34.36.689,LearnStrategy,2023.2.3,Win32,60.24096386,9,1,8,-0.2359375,0.066145833,1,0,0,1.6477,Peridotite_06,7,06,4,3,1.648,0.094791667,-0.413020833,1,0,0,1.3398,Peridotite_rect,7,1.34,1,7,0,7,0,1,,,,,,,,,,,,,
665d3b8935ef56ce74c4761f,SCN,2024-06-24_15h34.36.689,LearnStrategy,2023.2.3,Win32,60.24096386,9,1,9,-0.39375,0.071354167,1,0,0,1.4485,Pegmatite_07,6,07,4,2,1.448,-0.194270833,-0.4171875,1,0,0,2.2234,Pegmatite_rect,6,2.223,1,8,0,8,0,1,,,,,,,,,,,,,
665d3b8935ef56ce74c4761f,SCN,2024-06-24_15h34.36.689,LearnStrategy,2023.2.3,Win32,60.24096386,9,1,10,0.551041667,0.233854167,1,0,0,2.9325,Basalt_14,2,14,5,8,2.933,0.409895833,-0.232291667,1,0,0,1.5719,Gabbro_rect,4,1.572,0,9,0,9,0,1,,,,,,,,,,,,,
665d3b8935ef56ce74c4761f,SCN,2024-06-24_15h34.36.689,LearnStrategy,2023.2.3,Win32,60.24096386,9,1,11,0.572916667,0.272916667,1,0,0,1.7251,Basalt_14,2,14,5,8,1.725,-0.122395833,-0.244270833,1,0,0,2.3064,Basalt_rect,2,2.306,1,10,0,10,0,1,,,,,,,,,,,,,
665d3b8935ef56ce74c4761f,SCN,2024-06-24_15h34.36.689,LearnStrategy,2023.2.3,Win32,60.24096386,9,1,12,-0.2265625,-0.378645833,1,0,0,7.0414,Gabbro_15,4,15,1,3,7.041,0.366145833,-0.255208333,1,0,0,2.0343,Gabbro_rect,4,2.034,1,11,0,11,0,1,,,,,,,,,,,,,
665d3b8935ef56ce74c4761f,SCN,2024-06-24_15h34.36.689,LearnStrategy,2023.2.3,Win32,60.24096386,9,1,13,0.383333333,-0.123958333,1,0,0,2.9823,Andesite_04,1,04,3,7,2.982,-0.374479167,-0.252604167,1,0,0,1.6056,Andesite_rect,1,1.606,1,12,0,12,0,1,,,,,,,,,,,,,
665d3b8935ef56ce74c4761f,SCN,2024-06-24_15h34.36.689,LearnStrategy,2023.2.3,Win32,60.24096386,9,1,14,-0.530208333,-0.249479167,1,0,0,5.6022,Pegmatite_13,6,13,2,1,5.602,-0.194791667,-0.391145833,1,0,0,1.8241,Pegmatite_rect,6,1.824,1,13,0,13,0,1,,,,,,,,,,,,,
665d3b8935ef56ce74c4761f,SCN,2024-06-24_15h34.36.689,LearnStrategy,2023.2.3,Win32,60.24096386,9,1,15,0.2265625,0.388020833,1,0,0,2.8492,Basalt_06,2,06,6,6,2.849,-0.1640625,-0.256770833,1,0,0,1.8911,Basalt_rect,2,1.891,1,14,0,14,0,1,,,,,,,,,,,,,
665d3b8935ef56ce74c4761f,SCN,2024-06-24_15h34.36.689,LearnStrategy,2023.2.3,Win32,60.24096386,9,1,16,-0.540104167,0.08125,1,0,0,2.0928,Basalt_08,2,08,4,1,2.093,-0.177604167,-0.26875,1,0,0,2.2158,Basalt_rect,2,2.216,1,15,0,15,0,1,,,,,,,,,,,,,
665d3b8935ef56ce74c4761f,SCN,2024-06-24_15h34.36.689,LearnStrategy,2023.2.3,Win32,60.24096386,9,2,1,,,,,,,,7,16,,,,,,,,,,,4,3.575,0,,,,,,0.318229167,-0.2484375,1,0,0,3.5749,Gabbro_rect,0,0,0,0,1,
665d3b8935ef56ce74c4761f,SCN,2024-06-24_15h34.36.689,LearnStrategy,2023.2.3,Win32,60.24096386,9,2,2,,,,,,,,1,09,,,,,,,,,,,1,2.811,1,,,,,,-0.349479167,-0.257291667,1,0,0,2.8114,Andesite_rect,1,0,1,0,1,
665d3b8935ef56ce74c4761f,SCN,2024-06-24_15h34.36.689,LearnStrategy,2023.2.3,Win32,60.24096386,9,2,3,,,,,,,,4,16,,,,,,,,,,,4,1.892,1,,,,,,0.353125,-0.240104167,1,0,0,1.8924,Gabbro_rect,2,0,2,0,1,
665d3b8935ef56ce74c4761f,SCN,2024-06-24_15h34.36.689,LearnStrategy,2023.2.3,Win32,60.24096386,9,2,4,,,,,,,,3,15,,,,,,,,,,,3,2.161,1,,,,,,0.122395833,-0.244270833,1,0,0,2.1614,Diorite_rect,3,0,3,0,1,
665d3b8935ef56ce74c4761f,SCN,2024-06-24_15h34.36.689,LearnStrategy,2023.2.3,Win32,60.24096386,9,2,5,,,,,,,,7,12,,,,,,,,,,,7,3.08,1,,,,,,0.084895833,-0.397395833,0,0,1,3.0803,Peridotite_rect,4,0,4,0,1,
665d3b8935ef56ce74c4761f,SCN,2024-06-24_15h34.36.689,LearnStrategy,2023.2.3,Win32,60.24096386,9,2,6,,,,,,,,3,02,,,,,,,,,,,3,1.327,1,,,,,,0.126041667,-0.230729167,1,0,0,1.3266,Diorite_rect,5,0,5,0,1,
665d3b8935ef56ce74c4761f,SCN,2024-06-24_15h34.36.689,LearnStrategy,2023.2.3,Win32,60.24096386,9,2,7,,,,,,,,2,10,,,,,,,,,,,2,3.826,1,,,,,,-0.108854167,-0.25,1,0,0,3.8258,Basalt_rect,6,0,6,0,1,
665d3b8935ef56ce74c4761f,SCN,2024-06-24_15h34.36.689,LearnStrategy,2023.2.3,Win32,60.24096386,9,2,8,,,,,,,,6,03,,,,,,,,,,,6,1.753,1,,,,,,-0.160416667,-0.4015625,1,0,0,1.7528,Pegmatite_rect,7,0,7,0,1,
665d3b8935ef56ce74c4761f,SCN,2024-06-24_15h34.36.689,LearnStrategy,2023.2.3,Win32,60.24096386,9,2,9,,,,,,,,5,14,,,,,,,,,,,5,1.402,1,,,,,,-0.3375,-0.397916667,1,0,0,1.4021,Obsidian_rect,8,0,8,0,1,
665d3b8935ef56ce74c4761f,SCN,2024-06-24_15h34.36.689,LearnStrategy,2023.2.3,Win32,60.24096386,9,2,10,,,,,,,,1,11,,,,,,,,,,,1,1.5,1,,,,,,-0.373958333,-0.248958333,1,0,0,1.4997,Andesite_rect,9,0,9,0,1,
665d3b8935ef56ce74c4761f,SCN,2024-06-24_15h34.36.689,LearnStrategy,2023.2.3,Win32,60.24096386,9,2,11,,,,,,,,8,04,,,,,,,,,,,8,1.707,1,,,,,,0.328125,-0.390104167,1,0,0,1.7068,Pumice_rect,10,0,10,0,1,
665d3b8935ef56ce74c4761f,SCN,2024-06-24_15h34.36.689,LearnStrategy,2023.2.3,Win32,60.24096386,9,2,12,,,,,,,,4,11,,,,,,,,,,,1,6.04,0,,,,,,-0.384375,-0.241145833,1,0,0,6.0401,Andesite_rect,11,0,11,0,1,
665d3b8935ef56ce74c4761f,SCN,2024-06-24_15h34.36.689,LearnStrategy,2023.2.3,Win32,60.24096386,9,2,13,,,,,,,,2,01,,,,,,,,,,,2,2.593,1,,,,,,-0.186458333,-0.2546875,1,0,0,2.5933,Basalt_rect,12,0,12,0,1,
665d3b8935ef56ce74c4761f,SCN,2024-06-24_15h34.36.689,LearnStrategy,2023.2.3,Win32,60.24096386,9,2,14,,,,,,,,6,12,,,,,,,,,,,6,2.205,1,,,,,,-0.166145833,-0.388020833,1,0,0,2.2053,Pegmatite_rect,13,0,13,0,1,
665d3b8935ef56ce74c4761f,SCN,2024-06-24_15h34.36.689,LearnStrategy,2023.2.3,Win32,60.24096386,9,2,15,,,,,,,,5,10,,,,,,,,,,,5,1.293,1,,,,,,-0.363020833,-0.40625,1,0,0,1.293,Obsidian_rect,14,0,14,0,1,
665d3b8935ef56ce74c4761f,SCN,2024-06-24_15h34.36.689,LearnStrategy,2023.2.3,Win32,60.24096386,9,2,16,,,,,,,,8,06,,,,,,,,,,,8,1.507,1,,,,,,0.349479167,-0.4,1,0,0,1.5066,Pumice_rect,15,0,15,0,1,
665d3b8935ef56ce74c4761f,SCN,2024-06-24_15h34.36.689,LearnStrategy,2023.2.3,Win32,60.24096386,,,,,,,,,,,,,,,,,,,,,,,,,,,,,,,,,,,,,,,,,,,1
665d3b8935ef56ce74c4761f,SCN,2024-06-24_15h34.36.689,LearnStrategy,2023.2.3,Win32,60.24096386,,,,,,,,,,,,,,,,,,,,,,,,,,,,,,,,,,,,,,,,,,,
665d3b8935ef56ce74c4761f,SCN,2024-06-24_15h34.36.689,LearnStrategy,2023.2.3,Win32,60.24096386,,,,,,,,,,,1,16,1,1,,,,,,,,,,,,,,,,,,,,,,,,,,,,,
665d3b8935ef56ce74c4761f,SCN,2024-06-24_15h34.36.689,LearnStrategy,2023.2.3,Win32,60.24096386,,,,,,,,,,,2,02,1,2,,,,,,,,,,,,,,,,,,,,,,,,,,,,,
665d3b8935ef56ce74c4761f,SCN,2024-06-24_15h34.36.689,LearnStrategy,2023.2.3,Win32,60.24096386,,,,,,,,,,,4,15,1,3,,,,,,,,,,,,,,,,,,,,,,,,,,,,,
665d3b8935ef56ce74c4761f,SCN,2024-06-24_15h34.36.689,LearnStrategy,2023.2.3,Win32,60.24096386,,,,,,,,,,,8,10,1,4,,,,,,,,,,,,,,,,,,,,,,,,,,,,,
665d3b8935ef56ce74c4761f,SCN,2024-06-24_15h34.36.689,LearnStrategy,2023.2.3,Win32,60.24096386,,,,,,,,,,,5,11,1,5,,,,,,,,,,,,,,,,,,,,,,,,,,,,,
665d3b8935ef56ce74c4761f,SCN,2024-06-24_15h34.36.689,LearnStrategy,2023.2.3,Win32,60.24096386,,,,,,,,,,,8,02,1,6,,,,,,,,,,,,,,,,,,,,,,,,,,,,,
665d3b8935ef56ce74c4761f,SCN,2024-06-24_15h34.36.689,LearnStrategy,2023.2.3,Win32,60.24096386,,,,,,,,,,,8,08,1,7,,,,,,,,,,,,,,,,,,,,,,,,,,,,,
665d3b8935ef56ce74c4761f,SCN,2024-06-24_15h34.36.689,LearnStrategy,2023.2.3,Win32,60.24096386,,,,,,,,,,,6,06,1,8,,,,,,,,,,,,,,,,,,,,,,,,,,,,,
665d3b8935ef56ce74c4761f,SCN,2024-06-24_15h34.36.689,LearnStrategy,2023.2.3,Win32,60.24096386,,,,,,,,,,,6,13,2,1,,,,,,,,,,,,,,,,,,,,,,,,,,,,,
665d3b8935ef56ce74c4761f,SCN,2024-06-24_15h34.36.689,LearnStrategy,2023.2.3,Win32,60.24096386,,,,,,,,,,,3,14,2,2,,,,,,,,,,,,,,,,,,,,,,,,,,,,,
665d3b8935ef56ce74c4761f,SCN,2024-06-24_15h34.36.689,LearnStrategy,2023.2.3,Win32,60.24096386,,,,,,,,,,,4,13,2,3,,,,,,,,,,,,,,,,,,,,,,,,,,,,,
665d3b8935ef56ce74c4761f,SCN,2024-06-24_15h34.36.689,LearnStrategy,2023.2.3,Win32,60.24096386,,,,,,,,,,,2,05,2,4,,,,,,,,,,,,,,,,,,,,,,,,,,,,,
665d3b8935ef56ce74c4761f,SCN,2024-06-24_15h34.36.689,LearnStrategy,2023.2.3,Win32,60.24096386,,,,,,,,,,,8,05,2,5,,,,,,,,,,,,,,,,,,,,,,,,,,,,,
665d3b8935ef56ce74c4761f,SCN,2024-06-24_15h34.36.689,LearnStrategy,2023.2.3,Win32,60.24096386,,,,,,,,,,,6,10,2,6,,,,,,,,,,,,,,,,,,,,,,,,,,,,,
665d3b8935ef56ce74c4761f,SCN,2024-06-24_15h34.36.689,LearnStrategy,2023.2.3,Win32,60.24096386,,,,,,,,,,,3,08,2,7,,,,,,,,,,,,,,,,,,,,,,,,,,,,,
665d3b8935ef56ce74c4761f,SCN,2024-06-24_15h34.36.689,LearnStrategy,2023.2.3,Win32,60.24096386,,,,,,,,,,,4,12,2,8,,,,,,,,,,,,,,,,,,,,,,,,,,,,,
665d3b8935ef56ce74c4761f,SCN,2024-06-24_15h34.36.689,LearnStrategy,2023.2.3,Win32,60.24096386,,,,,,,,,,,4,09,3,1,,,,,,,,,,,,,,,,,,,,,,,,,,,,,
665d3b8935ef56ce74c4761f,SCN,2024-06-24_15h34.36.689,LearnStrategy,2023.2.3,Win32,60.24096386,,,,,,,,,,,5,07,3,2,,,,,,,,,,,,,,,,,,,,,,,,,,,,,
665d3b8935ef56ce74c4761f,SCN,2024-06-24_15h34.36.689,LearnStrategy,2023.2.3,Win32,60.24096386,,,,,,,,,,,1,07,3,3,,,,,,,,,,,,,,,,,,,,,,,,,,,,,
665d3b8935ef56ce74c4761f,SCN,2024-06-24_15h34.36.689,LearnStrategy,2023.2.3,Win32,60.24096386,,,,,,,,,,,8,03,3,4,,,,,,,,,,,,,,,,,,,,,,,,,,,,,
665d3b8935ef56ce74c4761f,SCN,2024-06-24_15h34.36.689,LearnStrategy,2023.2.3,Win32,60.24096386,,,,,,,,,,,2,11,3,5,,,,,,,,,,,,,,,,,,,,,,,,,,,,,
665d3b8935ef56ce74c4761f,SCN,2024-06-24_15h34.36.689,LearnStrategy,2023.2.3,Win32,60.24096386,,,,,,,,,,,3,11,3,6,,,,,,,,,,,,,,,,,,,,,,,,,,,,,
665d3b8935ef56ce74c4761f,SCN,2024-06-24_15h34.36.689,LearnStrategy,2023.2.3,Win32,60.24096386,,,,,,,,,,,1,04,3,7,,,,,,,,,,,,,,,,,,,,,,,,,,,,,
665d3b8935ef56ce74c4761f,SCN,2024-06-24_15h34.36.689,LearnStrategy,2023.2.3,Win32,60.24096386,,,,,,,,,,,1,05,3,8,,,,,,,,,,,,,,,,,,,,,,,,,,,,,
665d3b8935ef56ce74c4761f,SCN,2024-06-24_15h34.36.689,LearnStrategy,2023.2.3,Win32,60.24096386,,,,,,,,,,,2,08,4,1,,,,,,,,,,,,,,,,,,,,,,,,,,,,,
665d3b8935ef56ce74c4761f,SCN,2024-06-24_15h34.36.689,LearnStrategy,2023.2.3,Win32,60.24096386,,,,,,,,,,,6,07,4,2,,,,,,,,,,,,,,,,,,,,,,,,,,,,,
665d3b8935ef56ce74c4761f,SCN,2024-06-24_15h34.36.689,LearnStrategy,2023.2.3,Win32,60.24096386,,,,,,,,,,,7,06,4,3,,,,,,,,,,,,,,,,,,,,,,,,,,,,,
665d3b8935ef56ce74c4761f,SCN,2024-06-24_15h34.36.689,LearnStrategy,2023.2.3,Win32,60.24096386,,,,,,,,,,,5,16,4,4,,,,,,,,,,,,,,,,,,,,,,,,,,,,,
665d3b8935ef56ce74c4761f,SCN,2024-06-24_15h34.36.689,LearnStrategy,2023.2.3,Win32,60.24096386,,,,,,,,,,,3,09,4,5,,,,,,,,,,,,,,,,,,,,,,,,,,,,,
665d3b8935ef56ce74c4761f,SCN,2024-06-24_15h34.36.689,LearnStrategy,2023.2.3,Win32,60.24096386,,,,,,,,,,,4,05,4,6,,,,,,,,,,,,,,,,,,,,,,,,,,,,,
665d3b8935ef56ce74c4761f,SCN,2024-06-24_15h34.36.689,LearnStrategy,2023.2.3,Win32,60.24096386,,,,,,,,,,,5,05,4,7,,,,,,,,,,,,,,,,,,,,,,,,,,,,,
665d3b8935ef56ce74c4761f,SCN,2024-06-24_15h34.36.689,LearnStrategy,2023.2.3,Win32,60.24096386,,,,,,,,,,,3,13,4,8,,,,,,,,,,,,,,,,,,,,,,,,,,,,,
665d3b8935ef56ce74c4761f,SCN,2024-06-24_15h34.36.689,LearnStrategy,2023.2.3,Win32,60.24096386,,,,,,,,,,,7,10,5,1,,,,,,,,,,,,,,,,,,,,,,,,,,,,,
665d3b8935ef56ce74c4761f,SCN,2024-06-24_15h34.36.689,LearnStrategy,2023.2.3,Win32,60.24096386,,,,,,,,,,,7,15,5,2,,,,,,,,,,,,,,,,,,,,,,,,,,,,,
665d3b8935ef56ce74c4761f,SCN,2024-06-24_15h34.36.689,LearnStrategy,2023.2.3,Win32,60.24096386,,,,,,,,,,,5,04,5,3,,,,,,,,,,,,,,,,,,,,,,,,,,,,,
665d3b8935ef56ce74c4761f,SCN,2024-06-24_15h34.36.689,LearnStrategy,2023.2.3,Win32,60.24096386,,,,,,,,,,,3,06,5,4,,,,,,,,,,,,,,,,,,,,,,,,,,,,,
665d3b8935ef56ce74c4761f,SCN,2024-06-24_15h34.36.689,LearnStrategy,2023.2.3,Win32,60.24096386,,,,,,,,,,,1,01,5,5,,,,,,,,,,,,,,,,,,,,,,,,,,,,,
665d3b8935ef56ce74c4761f,SCN,2024-06-24_15h34.36.689,LearnStrategy,2023.2.3,Win32,60.24096386,,,,,,,,,,,4,10,5,6,,,,,,,,,,,,,,,,,,,,,,,,,,,,,
665d3b8935ef56ce74c4761f,SCN,2024-06-24_15h34.36.689,LearnStrategy,2023.2.3,Win32,60.24096386,,,,,,,,,,,1,03,5,7,,,,,,,,,,,,,,,,,,,,,,,,,,,,,
665d3b8935ef56ce74c4761f,SCN,2024-06-24_15h34.36.689,LearnStrategy,2023.2.3,Win32,60.24096386,,,,,,,,,,,2,14,5,8,,,,,,,,,,,,,,,,,,,,,,,,,,,,,
665d3b8935ef56ce74c4761f,SCN,2024-06-24_15h34.36.689,LearnStrategy,2023.2.3,Win32,60.24096386,,,,,,,,,,,6,05,6,1,,,,,,,,,,,,,,,,,,,,,,,,,,,,,
665d3b8935ef56ce74c4761f,SCN,2024-06-24_15h34.36.689,LearnStrategy,2023.2.3,Win32,60.24096386,,,,,,,,,,,6,16,6,2,,,,,,,,,,,,,,,,,,,,,,,,,,,,,
665d3b8935ef56ce74c4761f,SCN,2024-06-24_15h34.36.689,LearnStrategy,2023.2.3,Win32,60.24096386,,,,,,,,,,,7,05,6,3,,,,,,,,,,,,,,,,,,,,,,,,,,,,,
665d3b8935ef56ce74c4761f,SCN,2024-06-24_15h34.36.689,LearnStrategy,2023.2.3,Win32,60.24096386,,,,,,,,,,,8,15,6,4,,,,,,,,,,,,,,,,,,,,,,,,,,,,,
665d3b8935ef56ce74c4761f,SCN,2024-06-24_15h34.36.689,LearnStrategy,2023.2.3,Win32,60.24096386,,,,,,,,,,,5,12,6,5,,,,,,,,,,,,,,,,,,,,,,,,,,,,,
665d3b8935ef56ce74c4761f,SCN,2024-06-24_15h34.36.689,LearnStrategy,2023.2.3,Win32,60.24096386,,,,,,,,,,,2,06,6,6,,,,,,,,,,,,,,,,,,,,,,,,,,,,,
665d3b8935ef56ce74c4761f,SCN,2024-06-24_15h34.36.689,LearnStrategy,2023.2.3,Win32,60.24096386,,,,,,,,,,,7,04,6,7,,,,,,,,,,,,,,,,,,,,,,,,,,,,,
665d3b8935ef56ce74c4761f,SCN,2024-06-24_15h34.36.689,LearnStrategy,2023.2.3,Win32,60.24096386,,,,,,,,,,,7,14,6,8,,,,,,,,,,,,,,,,,,,,,,,,,,,,,