participant,condition,date,expName,psychopyVersion,OS,frameRate,block,phase,trial,learn_mouse.x,learn_mouse.y,learn_mouse.leftButton,learn_mouse.midButton,learn_mouse.rightButton,learn_mouse.time,learn_mouse.clicked_name,cat,token,row,col,t_select,cat_rec,token_rec,cat_mouse_l.x,cat_mouse_l.y,cat_mouse_l.leftButton,cat_mouse_l.midButton,cat_mouse_l.rightButton,cat_mouse_l.time,cat_mouse_l.clicked_name,resp,t_resp,corr,train_trials.thisRepN,train_trials.thisTrialN,train_trials.thisN,train_trials.thisIndex,train_trials.ran,cat_mouse_t.x,cat_mouse_t.y,cat_mouse_t.leftButton,cat_mouse_t.midButton,cat_mouse_t.rightButton,cat_mouse_t.time,cat_mouse_t.clicked_name,test_trials.thisRepN,test_trials.thisTrialN,test_trials.thisN,test_trials.thisIndex,test_trials.ran,Bonus
6660cbdd71ffefe5cabe1e91,SCR,2024-06-26_13h35.16.688,LearnStrategy,2023.2.3,Win32,59.88023952,,,,,,,,,,,,,,,,,,,,,,,,,,,,,,,,,,,,,,,,,,,,,
6660cbdd71ffefe5cabe1e91,SCR,2024-06-26_13h35.16.688,LearnStrategy,2023.2.3,Win32,59.88023952,1,1,1,0.095555556,0.081111111,1,0,0,2.2835,Peridotite_07,7,07,4,5,2.284,2,09,-0.104444444,-0.254444444,1,0,0,3.4615,Basalt_rect,2,3.462,0,0,0,0,0,1,,,,,,,,,,,,,
6660cbdd71ffefe5cabe1e91,SCR,2024-06-26_13h35.16.688,LearnStrategy,2023.2.3,Win32,59.88023952,1,1,2,0.107777778,-0.082222222,1,0,0,2.4137,Peridotite_02,7,02,3,5,2.414,3,08,0.082222222,-0.401111111,1,0,0,1.9564,Peridotite_rect,7,1.956,1,1,0,1,0,1,,,,,,,,,,,,,
6660cbdd71ffefe5cabe1e91,SCR,2024-06-26_13h35.16.688,LearnStrategy,2023.2.3,Win32,59.88023952,1,1,3,0.531111111,0.135555556,1,0,0,1.2467,Gabbro_12,4,12,4,8,1.247,1,05,-0.387777778,-0.262222222,1,0,0,3.3569,Andesite_rect,1,3.357,0,2,0,2,0,1,,,,,,,,,,,,,
6660cbdd71ffefe5cabe1e91,SCR,2024-06-26_13h35.16.688,LearnStrategy,2023.2.3,Win32,59.88023952,1,1,4,0.503333333,-0.392222222,1,0,0,1.6256,Pegmatite_10,6,10,1,8,1.626,1,14,0.152222222,-0.235555556,1,0,0,3.574,Diorite_rect,3,3.574,0,3,0,3,0,1,,,,,,,,,,,,,
6660cbdd71ffefe5cabe1e91,SCR,2024-06-26_13h35.16.688,LearnStrategy,2023.2.3,Win32,59.88023952,1,1,5,0.201111111,0.378888889,1,0,0,1.7636,Pumice_06,8,06,6,6,1.764,4,15,0.367777778,-0.416666667,1,0,0,2.1735,Pumice_rect,8,2.174,1,4,0,4,0,1,,,,,,,,,,,,,
6660cbdd71ffefe5cabe1e91,SCR,2024-06-26_13h35.16.688,LearnStrategy,2023.2.3,Win32,59.88023952,1,1,6,-0.375555556,0.093333333,1,0,0,1.5299,Pumice_03,8,03,4,2,1.53,2,10,0.378888889,-0.421111111,1,0,0,1.5081,Pumice_rect,8,1.508,1,5,0,5,0,1,,,,,,,,,,,,,
6660cbdd71ffefe5cabe1e91,SCR,2024-06-26_13h35.16.688,LearnStrategy,2023.2.3,Win32,59.88023952,1,1,7,-0.226666667,0.374444444,1,0,0,1.3546,Peridotite_08,7,08,6,3,1.355,3,10,-0.07,-0.255555556,1,0,0,7.8631,Basalt_rect,2,7.863,0,6,0,6,0,1,,,,,,,,,,,,,
6660cbdd71ffefe5cabe1e91,SCR,2024-06-26_13h35.16.688,LearnStrategy,2023.2.3,Win32,59.88023952,1,1,8,-0.357777778,-0.047777778,1,0,0,1.1219,Obsidian_09,5,09,3,2,1.122,5,06,-0.388888889,-0.231111111,1,0,0,1.2505,Andesite_rect,1,1.25,0,7,0,7,0,1,,,,,,,,,,,,,
6660cbdd71ffefe5cabe1e91,SCR,2024-06-26_13h35.16.688,LearnStrategy,2023.2.3,Win32,59.88023952,1,1,9,-0.101111111,-0.082222222,1,0,0,1.4512,Obsidian_12,5,12,3,4,1.451,7,02,-0.378888889,-0.4,1,0,0,4.0036,Obsidian_rect,5,4.004,1,8,0,8,0,1,,,,,,,,,,,,,
6660cbdd71ffefe5cabe1e91,SCR,2024-06-26_13h35.16.688,LearnStrategy,2023.2.3,Win32,59.88023952,1,1,10,0.238888889,0.11,1,0,0,1.5509,Pumice_02,8,02,4,6,1.551,4,10,0.43,-0.396666667,1,0,0,2.1827,Pumice_rect,8,2.183,1,9,0,9,0,1,,,,,,,,,,,,,
6660cbdd71ffefe5cabe1e91,SCR,2024-06-26_13h35.16.688,LearnStrategy,2023.2.3,Win32,59.88023952,1,1,11,0.573333333,0.077777778,1,0,0,1.4302,Gabbro_12,4,12,4,8,1.43,8,06,0.126666667,-0.257777778,1,0,0,1.6245,Diorite_rect,3,1.624,0,10,0,10,0,1,,,,,,,,,,,,,
6660cbdd71ffefe5cabe1e91,SCR,2024-06-26_13h35.16.688,LearnStrategy,2023.2.3,Win32,59.88023952,1,1,12,-0.23,0.234444444,1,0,0,1.6053,Andesite_14,1,14,5,3,1.605,7,13,0.408888889,-0.257777778,1,0,0,1.7494,Gabbro_rect,4,1.749,0,11,0,11,0,1,,,,,,,,,,,,,
6660cbdd71ffefe5cabe1e91,SCR,2024-06-26_13h35.16.688,LearnStrategy,2023.2.3,Win32,59.88023952,1,1,13,-0.413333333,0.261111111,1,0,0,1.8842,Diorite_13,3,13,5,2,1.884,6,05,0.101111111,-0.245555556,1,0,0,2.5347,Diorite_rect,3,2.535,1,12,0,12,0,1,,,,,,,,,,,,,
6660cbdd71ffefe5cabe1e91,SCR,2024-06-26_13h35.16.688,LearnStrategy,2023.2.3,Win32,59.88023952,1,1,14,0.398888889,0.102222222,1,0,0,1.7718,Pegmatite_12,6,12,4,7,1.772,6,03,-0.112222222,-0.405555556,1,0,0,2.3333,Pegmatite_rect,6,2.333,1,13,0,13,0,1,,,,,,,,,,,,,
6660cbdd71ffefe5cabe1e91,SCR,2024-06-26_13h35.16.688,LearnStrategy,2023.2.3,Win32,59.88023952,1,1,15,0.102222222,0.066666667,1,0,0,1.7158,Peridotite_07,7,07,4,5,1.716,5,12,0.126666667,-0.255555556,1,0,0,2.0699,Diorite_rect,3,2.07,0,14,0,14,0,1,,,,,,,,,,,,,
6660cbdd71ffefe5cabe1e91,SCR,2024-06-26_13h35.16.688,LearnStrategy,2023.2.3,Win32,59.88023952,1,1,16,0.547777778,-0.132222222,1,0,0,1.8136,Obsidian_11,5,11,3,8,1.814,8,03,-0.298888889,-0.41,1,0,0,3.6295,Obsidian_rect,5,3.63,1,15,0,15,0,1,,,,,,,,,,,,,
6660cbdd71ffefe5cabe1e91,SCR,2024-06-26_13h35.16.688,LearnStrategy,2023.2.3,Win32,59.88023952,1,2,1,,,,,,,,3,16,,,,,,,,,,,,,6,3.603,0,,,,,,-0.085555556,-0.417777778,1,0,0,3.6032,Pegmatite_rect,0,0,0,0,1,
6660cbdd71ffefe5cabe1e91,SCR,2024-06-26_13h35.16.688,LearnStrategy,2023.2.3,Win32,59.88023952,1,2,2,,,,,,,,6,09,,,,,,,,,,,,,7,2.27,0,,,,,,0.061111111,-0.397777778,1,0,0,2.2696,Peridotite_rect,1,0,1,0,1,
6660cbdd71ffefe5cabe1e91,SCR,2024-06-26_13h35.16.688,LearnStrategy,2023.2.3,Win32,59.88023952,1,2,3,,,,,,,,4,11,,,,,,,,,,,,,6,4.097,0,,,,,,-0.148888889,-0.408888889,1,0,0,4.0971,Pegmatite_rect,2,0,2,0,1,
6660cbdd71ffefe5cabe1e91,SCR,2024-06-26_13h35.16.688,LearnStrategy,2023.2.3,Win32,59.88023952,1,2,4,,,,,,,,4,05,,,,,,,,,,,,,1,2.005,0,,,,,,-0.353333333,-0.246666667,1,0,0,2.0051,Andesite_rect,3,0,3,0,1,
6660cbdd71ffefe5cabe1e91,SCR,2024-06-26_13h35.16.688,LearnStrategy,2023.2.3,Win32,59.88023952,1,2,5,,,,,,,,3,14,,,,,,,,,,,,,2,1.609,0,,,,,,-0.123333333,-0.267777778,1,0,0,1.6094,Basalt_rect,4,0,4,0,1,
6660cbdd71ffefe5cabe1e91,SCR,2024-06-26_13h35.16.688,LearnStrategy,2023.2.3,Win32,59.88023952,1,2,6,,,,,,,,5,14,,,,,,,,,,,,,5,2.642,1,,,,,,-0.358888889,-0.408888889,1,0,0,2.6423,Obsidian_rect,5,0,5,0,1,
6660cbdd71ffefe5cabe1e91,SCR,2024-06-26_13h35.16.688,LearnStrategy,2023.2.3,Win32,59.88023952,1,2,7,,,,,,,,1,16,,,,,,,,,,,,,4,2.91,0,,,,,,0.305555556,-0.238888889,1,0,0,2.9095,Gabbro_rect,6,0,6,0,1,
6660cbdd71ffefe5cabe1e91,SCR,2024-06-26_13h35.16.688,LearnStrategy,2023.2.3,Win32,59.88023952,1,2,8,,,,,,,,7,06,,,,,,,,,,,,,4,1.025,0,,,,,,0.305555556,-0.238888889,1,0,0,1.025,Gabbro_rect,7,0,7,0,1,
6660cbdd71ffefe5cabe1e91,SCR,2024-06-26_13h35.16.688,LearnStrategy,2023.2.3,Win32,59.88023952,1,2,9,,,,,,,,2,02,,,,,,,,,,,,,6,6.358,0,,,,,,-0.115555556,-0.418888889,1,0,0,6.3578,Pegmatite_rect,8,0,8,0,1,
6660cbdd71ffefe5cabe1e91,SCR,2024-06-26_13h35.16.688,LearnStrategy,2023.2.3,Win32,59.88023952,1,2,10,,,,,,,,6,07,,,,,,,,,,,,,3,1.981,0,,,,,,0.07,-0.231111111,1,0,0,1.9812,Diorite_rect,9,0,9,0,1,
6660cbdd71ffefe5cabe1e91,SCR,2024-06-26_13h35.16.688,LearnStrategy,2023.2.3,Win32,59.88023952,1,2,11,,,,,,,,7,04,,,,,,,,,,,,,7,3.876,1,,,,,,0.141111111,-0.387777778,1,0,0,3.8757,Peridotite_rect,10,0,10,0,1,
6660cbdd71ffefe5cabe1e91,SCR,2024-06-26_13h35.16.688,LearnStrategy,2023.2.3,Win32,59.88023952,1,2,12,,,,,,,,8,04,,,,,,,,,,,,,8,2.825,1,,,,,,0.36,-0.405555556,1,0,0,2.8252,Pumice_rect,11,0,11,0,1,
6660cbdd71ffefe5cabe1e91,SCR,2024-06-26_13h35.16.688,LearnStrategy,2023.2.3,Win32,59.88023952,1,2,13,,,,,,,,8,09,,,,,,,,,,,,,8,0.859,1,,,,,,0.36,-0.405555556,1,0,0,0.859,Pumice_rect,12,0,12,0,1,
6660cbdd71ffefe5cabe1e91,SCR,2024-06-26_13h35.16.688,LearnStrategy,2023.2.3,Win32,59.88023952,1,2,14,,,,,,,,1,01,,,,,,,,,,,,,6,3.24,0,,,,,,-0.193333333,-0.405555556,1,0,0,3.2399,Pegmatite_rect,13,0,13,0,1,
6660cbdd71ffefe5cabe1e91,SCR,2024-06-26_13h35.16.688,LearnStrategy,2023.2.3,Win32,59.88023952,1,2,15,,,,,,,,5,07,,,,,,,,,,,,,5,1.458,1,,,,,,-0.357777778,-0.38,1,0,0,1.4583,Obsidian_rect,14,0,14,0,1,
6660cbdd71ffefe5cabe1e91,SCR,2024-06-26_13h35.16.688,LearnStrategy,2023.2.3,Win32,59.88023952,1,2,16,,,,,,,,2,12,,,,,,,,,,,,,8,2.276,0,,,,,,0.372222222,-0.396666667,1,0,0,2.276,Pumice_rect,15,0,15,0,1,
6660cbdd71ffefe5cabe1e91,SCR,2024-06-26_13h35.16.688,LearnStrategy,2023.2.3,Win32,59.88023952,2,1,1,-0.218888889,-0.094444444,1,0,0,1.6062,Pumice_10,8,10,3,3,1.606,4,10,0.324444444,-0.391111111,1,0,0,1.5236,Pumice_rect,8,1.524,1,0,0,0,0,1,,,,,,,,,,,,,
6660cbdd71ffefe5cabe1e91,SCR,2024-06-26_13h35.16.688,LearnStrategy,2023.2.3,Win32,59.88023952,2,1,2,0.393333333,0.386666667,1,0,0,1.906,Diorite_11,3,11,6,7,1.906,6,03,0.164444444,-0.24,1,0,0,2.0004,Diorite_rect,3,2,1,1,0,1,0,1,,,,,,,,,,,,,
6660cbdd71ffefe5cabe1e91,SCR,2024-06-26_13h35.16.688,LearnStrategy,2023.2.3,Win32,59.88023952,2,1,3,-0.066666667,0.265555556,1,0,0,1.6316,Pegmatite_05,6,05,5,4,1.632,7,02,0.128888889,-0.251111111,1,0,0,1.3583,Diorite_rect,3,1.358,0,2,0,2,0,1,,,,,,,,,,,,,
6660cbdd71ffefe5cabe1e91,SCR,2024-06-26_13h35.16.688,LearnStrategy,2023.2.3,Win32,59.88023952,2,1,4,-0.072222222,0.233333333,1,0,0,0.8888,Pegmatite_05,6,05,5,4,0.889,4,13,-0.12,-0.414444444,1,0,0,1.8504,Pegmatite_rect,6,1.85,1,3,0,3,0,1,,,,,,,,,,,,,
6660cbdd71ffefe5cabe1e91,SCR,2024-06-26_13h35.16.688,LearnStrategy,2023.2.3,Win32,59.88023952,2,1,5,0.19,-0.258888889,1,0,0,1.2476,Diorite_08,3,08,2,6,1.248,2,05,0.19,-0.258888889,1,0,0,1.1305,Diorite_rect,3,1.13,1,4,0,4,0,1,,,,,,,,,,,,,
6660cbdd71ffefe5cabe1e91,SCR,2024-06-26_13h35.16.688,LearnStrategy,2023.2.3,Win32,59.88023952,2,1,6,-0.214444444,-0.422222222,1,0,0,1.0971,Gabbro_10,4,10,1,3,1.097,3,11,0.055555556,-0.41,1,0,0,1.1904,Peridotite_rect,7,1.19,0,5,0,5,0,1,,,,,,,,,,,,,
6660cbdd71ffefe5cabe1e91,SCR,2024-06-26_13h35.16.688,LearnStrategy,2023.2.3,Win32,59.88023952,2,1,7,-0.363333333,-0.401111111,1,0,0,1.4599,Peridotite_15,7,15,1,2,1.46,3,11,0.091111111,-0.262222222,1,0,0,1.4583,Diorite_rect,3,1.458,0,6,0,6,0,1,,,,,,,,,,,,,
6660cbdd71ffefe5cabe1e91,SCR,2024-06-26_13h35.16.688,LearnStrategy,2023.2.3,Win32,59.88023952,2,1,8,-0.513333333,-0.405555556,1,0,0,1.4964,Peridotite_13,7,13,1,1,1.496,6,12,0.102222222,-0.413333333,1,0,0,1.5577,Peridotite_rect,7,1.558,1,7,0,7,0,1,,,,,,,,,,,,,
6660cbdd71ffefe5cabe1e91,SCR,2024-06-26_13h35.16.688,LearnStrategy,2023.2.3,Win32,59.88023952,2,1,9,0.561111111,-0.396666667,1,0,0,1.5138,Pegmatite_10,6,10,1,8,1.514,1,10,0.176666667,-0.398888889,1,0,0,1.7576,Peridotite_rect,7,1.758,0,8,0,8,0,1,,,,,,,,,,,,,
6660cbdd71ffefe5cabe1e91,SCR,2024-06-26_13h35.16.688,LearnStrategy,2023.2.3,Win32,59.88023952,2,1,10,0.557777778,-0.41,1,0,0,1.3059,Pegmatite_10,6,10,1,8,1.306,3,13,-0.108888889,-0.401111111,1,0,0,1.6579,Pegmatite_rect,6,1.658,1,9,0,9,0,1,,,,,,,,,,,,,
6660cbdd71ffefe5cabe1e91,SCR,2024-06-26_13h35.16.688,LearnStrategy,2023.2.3,Win32,59.88023952,2,1,11,0.064444444,-0.091111111,1,0,0,1.501,Peridotite_02,7,02,3,5,1.501,1,14,-0.083333333,-0.404444444,1,0,0,2.7328,Pegmatite_rect,6,2.733,0,10,0,10,0,1,,,,,,,,,,,,,
6660cbdd71ffefe5cabe1e91,SCR,2024-06-26_13h35.16.688,LearnStrategy,2023.2.3,Win32,59.88023952,2,1,12,-0.073333333,0.206666667,1,0,0,0.9593,Pegmatite_05,6,05,5,4,0.959,1,04,0.114444444,-0.257777778,1,0,0,1.5075,Diorite_rect,3,1.507,0,11,0,11,0,1,,,,,,,,,,,,,
6660cbdd71ffefe5cabe1e91,SCR,2024-06-26_13h35.16.688,LearnStrategy,2023.2.3,Win32,59.88023952,2,1,13,-0.505555556,0.121111111,1,0,0,2.2311,Basalt_08,2,08,4,1,2.231,6,03,-0.341111111,-0.42,1,0,0,3.8325,Obsidian_rect,5,3.832,0,12,0,12,0,1,,,,,,,,,,,,,
6660cbdd71ffefe5cabe1e91,SCR,2024-06-26_13h35.16.688,LearnStrategy,2023.2.3,Win32,59.88023952,2,1,14,-0.538888889,-0.072222222,1,0,0,2.5818,Basalt_05,2,05,3,1,2.582,2,04,-0.148888889,-0.258888889,1,0,0,1.983,Basalt_rect,2,1.983,1,13,0,13,0,1,,,,,,,,,,,,,
6660cbdd71ffefe5cabe1e91,SCR,2024-06-26_13h35.16.688,LearnStrategy,2023.2.3,Win32,59.88023952,2,1,15,0.528888889,0.091111111,1,0,0,1.0224,Gabbro_12,4,12,4,8,1.022,4,15,-0.145555556,-0.252222222,1,0,0,1.9208,Basalt_rect,2,1.921,0,14,0,14,0,1,,,,,,,,,,,,,
6660cbdd71ffefe5cabe1e91,SCR,2024-06-26_13h35.16.688,LearnStrategy,2023.2.3,Win32,59.88023952,2,1,16,0.377777778,-0.301111111,1,0,0,1.5592,Diorite_09,3,09,2,7,1.559,2,16,0.106666667,-0.387777778,1,0,0,1.8465,Peridotite_rect,7,1.846,0,15,0,15,0,1,,,,,,,,,,,,,
6660cbdd71ffefe5cabe1e91,SCR,2024-06-26_13h35.16.688,LearnStrategy,2023.2.3,Win32,59.88023952,2,2,1,,,,,,,,5,16,,,,,,,,,,,,,5,1.915,1,,,,,,-0.334444444,-0.401111111,1,0,0,1.9154,Obsidian_rect,0,0,0,0,1,
6660cbdd71ffefe5cabe1e91,SCR,2024-06-26_13h35.16.688,LearnStrategy,2023.2.3,Win32,59.88023952,2,2,2,,,,,,,,2,11,,,,,,,,,,,,,5,0.268,0,,,,,,-0.334444444,-0.401111111,1,0,0,0.268,Obsidian_rect,1,0,1,0,1,
6660cbdd71ffefe5cabe1e91,SCR,2024-06-26_13h35.16.688,LearnStrategy,2023.2.3,Win32,59.88023952,2,2,3,,,,,,,,8,13,,,,,,,,,,,,,8,2.447,1,,,,,,0.418888889,-0.396666667,1,0,0,2.4474,Pumice_rect,2,0,2,0,1,
6660cbdd71ffefe5cabe1e91,SCR,2024-06-26_13h35.16.688,LearnStrategy,2023.2.3,Win32,59.88023952,2,2,4,,,,,,,,1,07,,,,,,,,,,,,,3,1.432,0,,,,,,0.184444444,-0.247777778,1,0,0,1.4319,Diorite_rect,3,0,3,0,1,
6660cbdd71ffefe5cabe1e91,SCR,2024-06-26_13h35.16.688,LearnStrategy,2023.2.3,Win32,59.88023952,2,2,5,,,,,,,,7,05,,,,,,,,,,,,,2,2.276,0,,,,,,-0.091111111,-0.255555556,1,0,0,2.2759,Basalt_rect,4,0,4,0,1,
6660cbdd71ffefe5cabe1e91,SCR,2024-06-26_13h35.16.688,LearnStrategy,2023.2.3,Win32,59.88023952,2,2,6,,,,,,,,6,06,,,,,,,,,,,,,6,1.644,1,,,,,,-0.088888889,-0.416666667,1,0,0,1.6444,Pegmatite_rect,5,0,5,0,1,
6660cbdd71ffefe5cabe1e91,SCR,2024-06-26_13h35.16.688,LearnStrategy,2023.2.3,Win32,59.88023952,2,2,7,,,,,,,,3,12,,,,,,,,,,,,,7,1.187,0,,,,,,0.076666667,-0.403333333,1,0,0,1.187,Peridotite_rect,6,0,6,0,1,
6660cbdd71ffefe5cabe1e91,SCR,2024-06-26_13h35.16.688,LearnStrategy,2023.2.3,Win32,59.88023952,2,2,8,,,,,,,,4,14,,,,,,,,,,,,,2,2.042,0,,,,,,-0.133333333,-0.243333333,1,0,0,2.0418,Basalt_rect,7,0,7,0,1,
6660cbdd71ffefe5cabe1e91,SCR,2024-06-26_13h35.16.688,LearnStrategy,2023.2.3,Win32,59.88023952,2,2,9,,,,,,,,6,16,,,,,,,,,,,,,4,2.259,0,,,,,,0.363333333,-0.258888889,1,0,0,2.2589,Gabbro_rect,8,0,8,0,1,
6660cbdd71ffefe5cabe1e91,SCR,2024-06-26_13h35.16.688,LearnStrategy,2023.2.3,Win32,59.88023952,2,2,10,,,,,,,,8,16,,,,,,,,,,,,,8,1.409,1,,,,,,0.367777778,-0.394444444,1,0,0,1.4094,Pumice_rect,9,0,9,0,1,
6660cbdd71ffefe5cabe1e91,SCR,2024-06-26_13h35.16.688,LearnStrategy,2023.2.3,Win32,59.88023952,2,2,11,,,,,,,,7,14,,,,,,,,,,,,,4,2.393,0,,,,,,0.333333333,-0.255555556,1,0,0,2.3927,Gabbro_rect,10,0,10,0,1,
6660cbdd71ffefe5cabe1e91,SCR,2024-06-26_13h35.16.688,LearnStrategy,2023.2.3,Win32,59.88023952,2,2,12,,,,,,,,5,04,,,,,,,,,,,,,5,2.502,1,,,,,,-0.346666667,-0.403333333,1,0,0,2.5022,Obsidian_rect,11,0,11,0,1,
6660cbdd71ffefe5cabe1e91,SCR,2024-06-26_13h35.16.688,LearnStrategy,2023.2.3,Win32,59.88023952,2,2,13,,,,,,,,2,14,,,,,,,,,,,,,2,2.809,1,,,,,,-0.113333333,-0.262222222,1,0,0,2.809,Basalt_rect,12,0,12,0,1,
6660cbdd71ffefe5cabe1e91,SCR,2024-06-26_13h35.16.688,LearnStrategy,2023.2.3,Win32,59.88023952,2,2,14,,,,,,,,3,15,,,,,,,,,,,,,3,1.348,1,,,,,,0.04,-0.253333333,1,0,0,1.3475,Diorite_rect,13,0,13,0,1,
6660cbdd71ffefe5cabe1e91,SCR,2024-06-26_13h35.16.688,LearnStrategy,2023.2.3,Win32,59.88023952,2,2,15,,,,,,,,4,09,,,,,,,,,,,,,5,1.91,0,,,,,,-0.337777778,-0.407777778,1,0,0,1.91,Obsidian_rect,14,0,14,0,1,
6660cbdd71ffefe5cabe1e91,SCR,2024-06-26_13h35.16.688,LearnStrategy,2023.2.3,Win32,59.88023952,2,2,16,,,,,,,,1,06,,,,,,,,,,,,,6,3.429,0,,,,,,-0.08,-0.397777778,1,0,0,3.4286,Pegmatite_rect,15,0,15,0,1,
6660cbdd71ffefe5cabe1e91,SCR,2024-06-26_13h35.16.688,LearnStrategy,2023.2.3,Win32,59.88023952,3,1,1,-0.222222222,-0.09,1,0,0,2.6974,Pumice_10,8,10,3,3,2.697,1,04,0.418888889,-0.401111111,1,0,0,1.4183,Pumice_rect,8,1.418,1,0,0,0,0,1,,,,,,,,,,,,,
6660cbdd71ffefe5cabe1e91,SCR,2024-06-26_13h35.16.688,LearnStrategy,2023.2.3,Win32,59.88023952,3,1,2,-0.383333333,0.253333333,1,0,0,1.5832,Diorite_13,3,13,5,2,1.583,6,10,0.088888889,-0.403333333,1,0,0,2.2829,Peridotite_rect,7,2.283,0,1,0,1,0,1,,,,,,,,,,,,,
6660cbdd71ffefe5cabe1e91,SCR,2024-06-26_13h35.16.688,LearnStrategy,2023.2.3,Win32,59.88023952,3,1,3,0.237777778,0.085555556,1,0,0,1.3133,Pumice_02,8,02,4,6,1.313,4,12,0.435555556,-0.405555556,1,0,0,1.0533,Pumice_rect,8,1.053,1,2,0,2,0,1,,,,,,,,,,,,,
6660cbdd71ffefe5cabe1e91,SCR,2024-06-26_13h35.16.688,LearnStrategy,2023.2.3,Win32,59.88023952,3,1,4,0.375555556,0.102222222,1,0,0,1.0016,Pegmatite_12,6,12,4,7,1.002,3,06,0.14,-0.233333333,1,0,0,3.1326,Diorite_rect,3,3.133,0,3,0,3,0,1,,,,,,,,,,,,,
6660cbdd71ffefe5cabe1e91,SCR,2024-06-26_13h35.16.688,LearnStrategy,2023.2.3,Win32,59.88023952,3,1,5,0.422222222,0.101111111,1,0,0,1.9056,Pegmatite_12,6,12,4,7,1.906,2,08,-0.124444444,-0.415555556,1,0,0,0.9995,Pegmatite_rect,6,0.999,1,4,0,4,0,1,,,,,,,,,,,,,
6660cbdd71ffefe5cabe1e91,SCR,2024-06-26_13h35.16.688,LearnStrategy,2023.2.3,Win32,59.88023952,3,1,6,-0.521111111,0.243333333,1,0,0,2.4843,Andesite_05,1,05,5,1,2.484,1,03,-0.116666667,-0.387777778,1,0,0,1.766,Pegmatite_rect,6,1.766,0,5,0,5,0,1,,,,,,,,,,,,,
6660cbdd71ffefe5cabe1e91,SCR,2024-06-26_13h35.16.688,LearnStrategy,2023.2.3,Win32,59.88023952,3,1,7,-0.532222222,0.382222222,1,0,0,1.9471,Gabbro_01,4,01,6,1,1.947,5,09,-0.347777778,-0.228888889,1,0,0,2.8149,Andesite_rect,1,2.815,0,6,0,6,0,1,,,,,,,,,,,,,
6660cbdd71ffefe5cabe1e91,SCR,2024-06-26_13h35.16.688,LearnStrategy,2023.2.3,Win32,59.88023952,3,1,8,-0.586666667,0.248888889,1,0,0,1.139,Andesite_05,1,05,5,1,1.139,7,12,-0.417777778,-0.25,1,0,0,0.9406,Andesite_rect,1,0.941,1,7,0,7,0,1,,,,,,,,,,,,,
6660cbdd71ffefe5cabe1e91,SCR,2024-06-26_13h35.16.688,LearnStrategy,2023.2.3,Win32,59.88023952,3,1,9,-0.52,-0.071111111,1,0,0,1.2972,Basalt_05,2,05,3,1,1.297,4,15,-0.133333333,-0.255555556,1,0,0,1.2754,Basalt_rect,2,1.275,1,8,0,8,0,1,,,,,,,,,,,,,
6660cbdd71ffefe5cabe1e91,SCR,2024-06-26_13h35.16.688,LearnStrategy,2023.2.3,Win32,59.88023952,3,1,10,0.223333333,-0.23,1,0,0,1.1802,Diorite_08,3,08,2,6,1.18,7,08,0.178888889,-0.248888889,1,0,0,2.3628,Diorite_rect,3,2.363,1,9,0,9,0,1,,,,,,,,,,,,,
6660cbdd71ffefe5cabe1e91,SCR,2024-06-26_13h35.16.688,LearnStrategy,2023.2.3,Win32,59.88023952,3,1,11,0.066666667,-0.397777778,1,0,0,1.5719,Andesite_03,1,03,1,5,1.572,7,07,-0.201111111,-0.255555556,1,0,0,1.0495,Basalt_rect,2,1.049,0,10,0,10,0,1,,,,,,,,,,,,,
6660cbdd71ffefe5cabe1e91,SCR,2024-06-26_13h35.16.688,LearnStrategy,2023.2.3,Win32,59.88023952,3,1,12,0.046666667,-0.404444444,1,0,0,1.1648,Andesite_03,1,03,1,5,1.165,2,09,-0.337777778,-0.248888889,1,0,0,1.5917,Andesite_rect,1,1.592,1,11,0,11,0,1,,,,,,,,,,,,,
6660cbdd71ffefe5cabe1e91,SCR,2024-06-26_13h35.16.688,LearnStrategy,2023.2.3,Win32,59.88023952,3,1,13,-0.2,-0.045555556,1,0,0,0.9312,Pumice_10,8,10,3,3,0.931,3,09,0.365555556,-0.4,1,0,0,1.7191,Pumice_rect,8,1.719,1,12,0,12,0,1,,,,,,,,,,,,,
6660cbdd71ffefe5cabe1e91,SCR,2024-06-26_13h35.16.688,LearnStrategy,2023.2.3,Win32,59.88023952,3,1,14,0.571111111,-0.42,1,0,0,1.3264,Pegmatite_10,6,10,1,8,1.326,6,08,-0.365555556,-0.244444444,1,0,0,1.995,Andesite_rect,1,1.995,0,13,0,13,0,1,,,,,,,,,,,,,
6660cbdd71ffefe5cabe1e91,SCR,2024-06-26_13h35.16.688,LearnStrategy,2023.2.3,Win32,59.88023952,3,1,15,0.382222222,0.093333333,1,0,0,1.6851,Pegmatite_12,6,12,4,7,1.685,1,05,0.326666667,-0.238888889,1,0,0,2.632,Gabbro_rect,4,2.632,0,14,0,14,0,1,,,,,,,,,,,,,
6660cbdd71ffefe5cabe1e91,SCR,2024-06-26_13h35.16.688,LearnStrategy,2023.2.3,Win32,59.88023952,3,1,16,-0.254444444,-0.213333333,1,0,0,2.7398,Diorite_06,3,06,2,3,2.74,4,10,-0.382222222,-0.238888889,1,0,0,1.1989,Andesite_rect,1,1.199,0,15,0,15,0,1,,,,,,,,,,,,,
6660cbdd71ffefe5cabe1e91,SCR,2024-06-26_13h35.16.688,LearnStrategy,2023.2.3,Win32,59.88023952,3,2,1,,,,,,,,8,15,,,,,,,,,,,,,8,1.644,1,,,,,,0.393333333,-0.402222222,1,0,0,1.6445,Pumice_rect,0,0,0,0,1,
6660cbdd71ffefe5cabe1e91,SCR,2024-06-26_13h35.16.688,LearnStrategy,2023.2.3,Win32,59.88023952,3,2,2,,,,,,,,6,15,,,,,,,,,,,,,4,3.121,0,,,,,,0.294444444,-0.265555556,1,0,0,3.1206,Gabbro_rect,1,0,1,0,1,
6660cbdd71ffefe5cabe1e91,SCR,2024-06-26_13h35.16.688,LearnStrategy,2023.2.3,Win32,59.88023952,3,2,3,,,,,,,,3,07,,,,,,,,,,,,,3,1.553,1,,,,,,0.137777778,-0.256666667,1,0,0,1.5527,Diorite_rect,2,0,2,0,1,
6660cbdd71ffefe5cabe1e91,SCR,2024-06-26_13h35.16.688,LearnStrategy,2023.2.3,Win32,59.88023952,3,2,4,,,,,,,,5,10,,,,,,,,,,,,,5,2.11,1,,,,,,-0.357777778,-0.384444444,1,0,0,2.1095,Obsidian_rect,3,0,3,0,1,
6660cbdd71ffefe5cabe1e91,SCR,2024-06-26_13h35.16.688,LearnStrategy,2023.2.3,Win32,59.88023952,3,2,5,,,,,,,,1,11,,,,,,,,,,,,,1,2.908,1,,,,,,-0.383333333,-0.263333333,1,0,0,2.9082,Andesite_rect,4,0,4,0,1,
6660cbdd71ffefe5cabe1e91,SCR,2024-06-26_13h35.16.688,LearnStrategy,2023.2.3,Win32,59.88023952,3,2,6,,,,,,,,1,09,,,,,,,,,,,,,1,2.751,1,,,,,,-0.377777778,-0.253333333,1,0,0,2.7514,Andesite_rect,5,0,5,0,1,
6660cbdd71ffefe5cabe1e91,SCR,2024-06-26_13h35.16.688,LearnStrategy,2023.2.3,Win32,59.88023952,3,2,7,,,,,,,,4,16,,,,,,,,,,,,,2,0.959,0,,,,,,-0.155555556,-0.268888889,1,0,0,0.9594,Basalt_rect,6,0,6,0,1,
6660cbdd71ffefe5cabe1e91,SCR,2024-06-26_13h35.16.688,LearnStrategy,2023.2.3,Win32,59.88023952,3,2,8,,,,,,,,4,03,,,,,,,,,,,,,2,0.991,0,,,,,,-0.155555556,-0.268888889,1,0,0,0.9908,Basalt_rect,7,0,7,0,1,
6660cbdd71ffefe5cabe1e91,SCR,2024-06-26_13h35.16.688,LearnStrategy,2023.2.3,Win32,59.88023952,3,2,9,,,,,,,,2,06,,,,,,,,,,,,,5,1.302,0,,,,,,-0.406666667,-0.392222222,1,0,0,1.3023,Obsidian_rect,8,0,8,0,1,
6660cbdd71ffefe5cabe1e91,SCR,2024-06-26_13h35.16.688,LearnStrategy,2023.2.3,Win32,59.88023952,3,2,10,,,,,,,,7,16,,,,,,,,,,,,,7,1.925,1,,,,,,0.192222222,-0.39,1,0,0,1.9252,Peridotite_rect,9,0,9,0,1,
6660cbdd71ffefe5cabe1e91,SCR,2024-06-26_13h35.16.688,LearnStrategy,2023.2.3,Win32,59.88023952,3,2,11,,,,,,,,8,14,,,,,,,,,,,,,8,1.442,1,,,,,,0.366666667,-0.388888889,1,0,0,1.442,Pumice_rect,10,0,10,0,1,
6660cbdd71ffefe5cabe1e91,SCR,2024-06-26_13h35.16.688,LearnStrategy,2023.2.3,Win32,59.88023952,3,2,12,,,,,,,,2,01,,,,,,,,,,,,,4,1.751,0,,,,,,0.35,-0.244444444,1,0,0,1.7515,Gabbro_rect,11,0,11,0,1,
6660cbdd71ffefe5cabe1e91,SCR,2024-06-26_13h35.16.688,LearnStrategy,2023.2.3,Win32,59.88023952,3,2,13,,,,,,,,6,13,,,,,,,,,,,,,7,2.142,0,,,,,,0.066666667,-0.403333333,1,0,0,2.1419,Peridotite_rect,12,0,12,0,1,
6660cbdd71ffefe5cabe1e91,SCR,2024-06-26_13h35.16.688,LearnStrategy,2023.2.3,Win32,59.88023952,3,2,14,,,,,,,,5,05,,,,,,,,,,,,,5,2.18,1,,,,,,-0.368888889,-0.378888889,1,0,0,2.1804,Obsidian_rect,13,0,13,0,1,
6660cbdd71ffefe5cabe1e91,SCR,2024-06-26_13h35.16.688,LearnStrategy,2023.2.3,Win32,59.88023952,3,2,15,,,,,,,,3,02,,,,,,,,,,,,,3,1.669,1,,,,,,0.137777778,-0.264444444,1,0,0,1.6693,Diorite_rect,14,0,14,0,1,
6660cbdd71ffefe5cabe1e91,SCR,2024-06-26_13h35.16.688,LearnStrategy,2023.2.3,Win32,59.88023952,3,2,16,,,,,,,,7,10,,,,,,,,,,,,,4,1.187,0,,,,,,0.348888889,-0.265555556,1,0,0,1.1873,Gabbro_rect,15,0,15,0,1,
6660cbdd71ffefe5cabe1e91,SCR,2024-06-26_13h35.16.688,LearnStrategy,2023.2.3,Win32,59.88023952,4,1,1,0.356666667,-0.107777778,1,0,0,1.7676,Obsidian_02,5,02,3,7,1.768,4,01,-0.35,-0.383333333,1,0,0,1.1496,Obsidian_rect,5,1.15,1,0,0,0,0,1,,,,,,,,,,,,,
6660cbdd71ffefe5cabe1e91,SCR,2024-06-26_13h35.16.688,LearnStrategy,2023.2.3,Win32,59.88023952,4,1,2,0.197777778,-0.252222222,1,0,0,1.0814,Diorite_08,3,08,2,6,1.081,6,12,0.183333333,-0.256666667,1,0,0,0.6152,Diorite_rect,3,0.615,1,1,0,1,0,1,,,,,,,,,,,,,
6660cbdd71ffefe5cabe1e91,SCR,2024-06-26_13h35.16.688,LearnStrategy,2023.2.3,Win32,59.88023952,4,1,3,-0.037777778,-0.076666667,1,0,0,0.5637,Obsidian_12,5,12,3,4,0.564,5,08,-0.433333333,-0.406666667,1,0,0,1.3527,Obsidian_rect,5,1.353,1,2,0,2,0,1,,,,,,,,,,,,,
6660cbdd71ffefe5cabe1e91,SCR,2024-06-26_13h35.16.688,LearnStrategy,2023.2.3,Win32,59.88023952,4,1,4,-0.247777778,-0.225555556,1,0,0,0.691,Diorite_06,3,06,2,3,0.691,6,03,0.132222222,-0.247777778,1,0,0,1.865,Diorite_rect,3,1.865,1,3,0,3,0,1,,,,,,,,,,,,,
6660cbdd71ffefe5cabe1e91,SCR,2024-06-26_13h35.16.688,LearnStrategy,2023.2.3,Win32,59.88023952,4,1,5,0.36,0.133333333,1,0,0,1.4482,Pegmatite_12,6,12,4,7,1.448,4,10,0.205555556,-0.241111111,1,0,0,1.0579,Diorite_rect,3,1.058,0,4,0,4,0,1,,,,,,,,,,,,,
6660cbdd71ffefe5cabe1e91,SCR,2024-06-26_13h35.16.688,LearnStrategy,2023.2.3,Win32,59.88023952,4,1,6,0.196666667,-0.274444444,1,0,0,1.6521,Diorite_08,3,08,2,6,1.652,1,05,0.21,-0.271111111,1,0,0,0.8991,Diorite_rect,3,0.899,1,5,0,5,0,1,,,,,,,,,,,,,
6660cbdd71ffefe5cabe1e91,SCR,2024-06-26_13h35.16.688,LearnStrategy,2023.2.3,Win32,59.88023952,4,1,7,0.341111111,0.092222222,1,0,0,1.0148,Pegmatite_12,6,12,4,7,1.015,4,13,-0.137777778,-0.418888889,1,0,0,1.4531,Pegmatite_rect,6,1.453,1,6,0,6,0,1,,,,,,,,,,,,,
6660cbdd71ffefe5cabe1e91,SCR,2024-06-26_13h35.16.688,LearnStrategy,2023.2.3,Win32,59.88023952,4,1,8,0.412222222,0.41,1,0,0,1.0681,Diorite_11,3,11,6,7,1.068,1,14,0.096666667,-0.402222222,1,0,0,2.349,Peridotite_rect,7,2.349,0,7,0,7,0,1,,,,,,,,,,,,,
6660cbdd71ffefe5cabe1e91,SCR,2024-06-26_13h35.16.688,LearnStrategy,2023.2.3,Win32,59.88023952,4,1,9,0.087777778,0.4,1,0,0,1.0017,Gabbro_13,4,13,6,5,1.002,2,10,0.134444444,-0.236666667,1,0,0,3.1036,Diorite_rect,3,3.104,0,8,0,8,0,1,,,,,,,,,,,,,
6660cbdd71ffefe5cabe1e91,SCR,2024-06-26_13h35.16.688,LearnStrategy,2023.2.3,Win32,59.88023952,4,1,10,-0.055555556,0.412222222,1,0,0,1.1186,Basalt_09,2,09,6,4,1.119,2,08,-0.09,-0.252222222,1,0,0,1.2322,Basalt_rect,2,1.232,1,9,0,9,0,1,,,,,,,,,,,,,
6660cbdd71ffefe5cabe1e91,SCR,2024-06-26_13h35.16.688,LearnStrategy,2023.2.3,Win32,59.88023952,4,1,11,-0.191111111,0.228888889,1,0,0,1.4318,Andesite_14,1,14,5,3,1.432,6,03,0.078888889,-0.235555556,1,0,0,1.1587,Diorite_rect,3,1.159,0,10,0,10,0,1,,,,,,,,,,,,,
6660cbdd71ffefe5cabe1e91,SCR,2024-06-26_13h35.16.688,LearnStrategy,2023.2.3,Win32,59.88023952,4,1,12,-0.194444444,0.221111111,1,0,0,1.0893,Andesite_14,1,14,5,3,1.089,7,07,-0.333333333,-0.242222222,1,0,0,1.43,Andesite_rect,1,1.43,1,11,0,11,0,1,,,,,,,,,,,,,
6660cbdd71ffefe5cabe1e91,SCR,2024-06-26_13h35.16.688,LearnStrategy,2023.2.3,Win32,59.88023952,4,1,13,0.548888889,0.052222222,1,0,0,1.2183,Gabbro_12,4,12,4,8,1.218,7,13,-0.15,-0.256666667,1,0,0,1.9762,Basalt_rect,2,1.976,0,12,0,12,0,1,,,,,,,,,,,,,
6660cbdd71ffefe5cabe1e91,SCR,2024-06-26_13h35.16.688,LearnStrategy,2023.2.3,Win32,59.88023952,4,1,14,-0.503333333,0.247777778,1,0,0,1.7026,Andesite_05,1,05,5,1,1.703,2,04,0.105555556,-0.255555556,1,0,0,1.9655,Diorite_rect,3,1.966,0,13,0,13,0,1,,,,,,,,,,,,,
6660cbdd71ffefe5cabe1e91,SCR,2024-06-26_13h35.16.688,LearnStrategy,2023.2.3,Win32,59.88023952,4,1,15,0.234444444,-0.215555556,1,0,0,1.5485,Diorite_08,3,08,2,6,1.548,4,13,0.142222222,-0.271111111,1,0,0,1.6907,Diorite_rect,3,1.691,1,14,0,14,0,1,,,,,,,,,,,,,
6660cbdd71ffefe5cabe1e91,SCR,2024-06-26_13h35.16.688,LearnStrategy,2023.2.3,Win32,59.88023952,4,1,16,0.533333333,-0.271111111,1,0,0,0.965,Basalt_16,2,16,2,8,0.965,3,09,0.294444444,-0.26,1,0,0,1.0533,Gabbro_rect,4,1.053,0,15,0,15,0,1,,,,,,,,,,,,,
6660cbdd71ffefe5cabe1e91,SCR,2024-06-26_13h35.16.688,LearnStrategy,2023.2.3,Win32,59.88023952,4,2,1,,,,,,,,6,13,,,,,,,,,,,,,1,2.175,0,,,,,,-0.313333333,-0.267777778,1,0,0,2.1754,Andesite_rect,0,0,0,0,1,
6660cbdd71ffefe5cabe1e91,SCR,2024-06-26_13h35.16.688,LearnStrategy,2023.2.3,Win32,59.88023952,4,2,2,,,,,,,,2,11,,,,,,,,,,,,,2,1.363,1,,,,,,-0.144444444,-0.26,1,0,0,1.363,Basalt_rect,1,0,1,0,1,
6660cbdd71ffefe5cabe1e91,SCR,2024-06-26_13h35.16.688,LearnStrategy,2023.2.3,Win32,59.88023952,4,2,3,,,,,,,,2,02,,,,,,,,,,,,,2,0.926,1,,,,,,-0.144444444,-0.26,1,0,0,0.9256,Basalt_rect,2,0,2,0,1,
6660cbdd71ffefe5cabe1e91,SCR,2024-06-26_13h35.16.688,LearnStrategy,2023.2.3,Win32,59.88023952,4,2,4,,,,,,,,1,16,,,,,,,,,,,,,3,1.781,0,,,,,,0.105555556,-0.262222222,1,0,0,1.7807,Diorite_rect,3,0,3,0,1,
6660cbdd71ffefe5cabe1e91,SCR,2024-06-26_13h35.16.688,LearnStrategy,2023.2.3,Win32,59.88023952,4,2,5,,,,,,,,1,01,,,,,,,,,,,,,2,1.193,0,,,,,,-0.104444444,-0.242222222,1,0,0,1.1926,Basalt_rect,4,0,4,0,1,
6660cbdd71ffefe5cabe1e91,SCR,2024-06-26_13h35.16.688,LearnStrategy,2023.2.3,Win32,59.88023952,4,2,6,,,,,,,,3,15,,,,,,,,,,,,,6,1.856,0,,,,,,-0.08,-0.406666667,1,0,0,1.8556,Pegmatite_rect,5,0,5,0,1,
6660cbdd71ffefe5cabe1e91,SCR,2024-06-26_13h35.16.688,LearnStrategy,2023.2.3,Win32,59.88023952,4,2,7,,,,,,,,6,16,,,,,,,,,,,,,4,2.76,0,,,,,,0.351111111,-0.246666667,1,0,0,2.7599,Gabbro_rect,6,0,6,0,1,
6660cbdd71ffefe5cabe1e91,SCR,2024-06-26_13h35.16.688,LearnStrategy,2023.2.3,Win32,59.88023952,4,2,8,,,,,,,,8,16,,,,,,,,,,,,,8,1.363,1,,,,,,0.361111111,-0.396666667,1,0,0,1.3634,Pumice_rect,7,0,7,0,1,
6660cbdd71ffefe5cabe1e91,SCR,2024-06-26_13h35.16.688,LearnStrategy,2023.2.3,Win32,59.88023952,4,2,9,,,,,,,,8,15,,,,,,,,,,,,,8,0.708,1,,,,,,0.361111111,-0.396666667,1,0,0,0.7085,Pumice_rect,8,0,8,0,1,
6660cbdd71ffefe5cabe1e91,SCR,2024-06-26_13h35.16.688,LearnStrategy,2023.2.3,Win32,59.88023952,4,2,10,,,,,,,,7,14,,,,,,,,,,,,,3,1.559,0,,,,,,0.148888889,-0.255555556,1,0,0,1.5589,Diorite_rect,9,0,9,0,1,
6660cbdd71ffefe5cabe1e91,SCR,2024-06-26_13h35.16.688,LearnStrategy,2023.2.3,Win32,59.88023952,4,2,11,,,,,,,,7,06,,,,,,,,,,,,,3,0.707,0,,,,,,0.148888889,-0.255555556,1,0,0,0.7069,Diorite_rect,10,0,10,0,1,
6660cbdd71ffefe5cabe1e91,SCR,2024-06-26_13h35.16.688,LearnStrategy,2023.2.3,Win32,59.88023952,4,2,12,,,,,,,,4,16,,,,,,,,,,,,,5,1.67,0,,,,,,-0.391111111,-0.397777778,1,0,0,1.6699,Obsidian_rect,11,0,11,0,1,
6660cbdd71ffefe5cabe1e91,SCR,2024-06-26_13h35.16.688,LearnStrategy,2023.2.3,Win32,59.88023952,4,2,13,,,,,,,,5,16,,,,,,,,,,,,,5,0.976,1,,,,,,-0.394444444,-0.393333333,1,0,0,0.976,Obsidian_rect,12,0,12,0,1,
6660cbdd71ffefe5cabe1e91,SCR,2024-06-26_13h35.16.688,LearnStrategy,2023.2.3,Win32,59.88023952,4,2,14,,,,,,,,3,12,,,,,,,,,,,,,1,3.642,0,,,,,,-0.338888889,-0.25,1,0,0,3.6421,Andesite_rect,13,0,13,0,1,
6660cbdd71ffefe5cabe1e91,SCR,2024-06-26_13h35.16.688,LearnStrategy,2023.2.3,Win32,59.88023952,4,2,15,,,,,,,,5,10,,,,,,,,,,,,,5,1.399,1,,,,,,-0.425555556,-0.392222222,1,0,0,1.3992,Obsidian_rect,14,0,14,0,1,
6660cbdd71ffefe5cabe1e91,SCR,2024-06-26_13h35.16.688,LearnStrategy,2023.2.3,Win32,59.88023952,4,2,16,,,,,,,,4,05,,,,,,,,,,,,,1,2.003,0,,,,,,-0.303333333,-0.237777778,1,0,0,2.0029,Andesite_rect,15,0,15,0,1,
6660cbdd71ffefe5cabe1e91,SCR,2024-06-26_13h35.16.688,LearnStrategy,2023.2.3,Win32,59.88023952,5,1,1,-0.223333333,-0.072222222,1,0,0,1.2058,Pumice_10,8,10,3,3,1.206,6,11,0.328888889,-0.386666667,1,0,0,2.4987,Pumice_rect,8,2.499,1,0,0,0,0,1,,,,,,,,,,,,,
6660cbdd71ffefe5cabe1e91,SCR,2024-06-26_13h35.16.688,LearnStrategy,2023.2.3,Win32,59.88023952,5,1,2,0.396666667,-0.12,1,0,0,1.0907,Obsidian_02,5,02,3,7,1.091,2,09,-0.346666667,-0.405555556,1,0,0,1.674,Obsidian_rect,5,1.674,1,1,0,1,0,1,,,,,,,,,,,,,
6660cbdd71ffefe5cabe1e91,SCR,2024-06-26_13h35.16.688,LearnStrategy,2023.2.3,Win32,59.88023952,5,1,3,0.558888889,-0.393333333,1,0,0,0.9319,Pegmatite_10,6,10,1,8,0.932,7,12,-0.33,-0.243333333,1,0,0,1.3981,Andesite_rect,1,1.398,0,2,0,2,0,1,,,,,,,,,,,,,
6660cbdd71ffefe5cabe1e91,SCR,2024-06-26_13h35.16.688,LearnStrategy,2023.2.3,Win32,59.88023952,5,1,4,0.506666667,0.107777778,1,0,0,1.3307,Gabbro_12,4,12,4,8,1.331,4,08,0.375555556,-0.257777778,1,0,0,1.275,Gabbro_rect,4,1.275,1,3,0,3,0,1,,,,,,,,,,,,,
6660cbdd71ffefe5cabe1e91,SCR,2024-06-26_13h35.16.688,LearnStrategy,2023.2.3,Win32,59.88023952,5,1,5,-0.028888889,0.238888889,1,0,0,1.1483,Pegmatite_05,6,05,5,4,1.148,3,06,0.171111111,-0.242222222,1,0,0,1.1754,Diorite_rect,3,1.175,0,4,0,4,0,1,,,,,,,,,,,,,
6660cbdd71ffefe5cabe1e91,SCR,2024-06-26_13h35.16.688,LearnStrategy,2023.2.3,Win32,59.88023952,5,1,6,-0.072222222,0.204444444,1,0,0,0.6357,Pegmatite_05,6,05,5,4,0.636,7,08,-0.117777778,-0.383333333,1,0,0,1.1779,Pegmatite_rect,6,1.178,1,5,0,5,0,1,,,,,,,,,,,,,
6660cbdd71ffefe5cabe1e91,SCR,2024-06-26_13h35.16.688,LearnStrategy,2023.2.3,Win32,59.88023952,5,1,7,-0.243333333,0.252222222,1,0,0,1.4841,Andesite_14,1,14,5,3,1.484,4,15,0.128888889,-0.253333333,1,0,0,2.3743,Diorite_rect,3,2.374,0,6,0,6,0,1,,,,,,,,,,,,,
6660cbdd71ffefe5cabe1e91,SCR,2024-06-26_13h35.16.688,LearnStrategy,2023.2.3,Win32,59.88023952,5,1,8,-0.243333333,0.242222222,1,0,0,1.2233,Andesite_14,1,14,5,3,1.223,2,05,-0.068888889,-0.387777778,1,0,0,2.5481,Pegmatite_rect,6,2.548,0,7,0,7,0,1,,,,,,,,,,,,,
6660cbdd71ffefe5cabe1e91,SCR,2024-06-26_13h35.16.688,LearnStrategy,2023.2.3,Win32,59.88023952,5,1,9,-0.374444444,0.106666667,1,0,0,0.9125,Pumice_03,8,03,4,2,0.913,4,12,0.438888889,-0.418888889,1,0,0,1.0776,Pumice_rect,8,1.078,1,8,0,8,0,1,,,,,,,,,,,,,
6660cbdd71ffefe5cabe1e91,SCR,2024-06-26_13h35.16.688,LearnStrategy,2023.2.3,Win32,59.88023952,5,1,10,-0.506666667,-0.085555556,1,0,0,1.1273,Basalt_05,2,05,3,1,1.127,1,03,-0.086666667,-0.264444444,1,0,0,1.9571,Basalt_rect,2,1.957,1,9,0,9,0,1,,,,,,,,,,,,,
6660cbdd71ffefe5cabe1e91,SCR,2024-06-26_13h35.16.688,LearnStrategy,2023.2.3,Win32,59.88023952,5,1,11,-0.205555556,0.403333333,1,0,0,0.969,Peridotite_08,7,08,6,3,0.969,5,08,0.108888889,-0.245555556,1,0,0,2.2823,Diorite_rect,3,2.282,0,10,0,10,0,1,,,,,,,,,,,,,
6660cbdd71ffefe5cabe1e91,SCR,2024-06-26_13h35.16.688,LearnStrategy,2023.2.3,Win32,59.88023952,5,1,12,-0.403333333,0.077777778,1,0,0,1.1398,Pumice_03,8,03,4,2,1.14,3,06,0.394444444,-0.41,1,0,0,1.108,Pumice_rect,8,1.108,1,11,0,11,0,1,,,,,,,,,,,,,
6660cbdd71ffefe5cabe1e91,SCR,2024-06-26_13h35.16.688,LearnStrategy,2023.2.3,Win32,59.88023952,5,1,13,0.048888889,-0.098888889,1,0,0,2.1639,Peridotite_02,7,02,3,5,2.164,7,02,0.088888889,-0.39,1,0,0,1.3287,Peridotite_rect,7,1.329,1,12,0,12,0,1,,,,,,,,,,,,,
6660cbdd71ffefe5cabe1e91,SCR,2024-06-26_13h35.16.688,LearnStrategy,2023.2.3,Win32,59.88023952,5,1,14,-0.23,-0.213333333,1,0,0,3.0352,Diorite_06,3,06,2,3,3.035,6,12,0.371111111,-0.255555556,1,0,0,1.9297,Gabbro_rect,4,1.93,0,13,0,13,0,1,,,,,,,,,,,,,
6660cbdd71ffefe5cabe1e91,SCR,2024-06-26_13h35.16.688,LearnStrategy,2023.2.3,Win32,59.88023952,5,1,15,-0.221111111,-0.286666667,1,0,0,0.8895,Diorite_06,3,06,2,3,0.889,6,11,0.12,-0.254444444,1,0,0,2.4495,Diorite_rect,3,2.449,1,14,0,14,0,1,,,,,,,,,,,,,
6660cbdd71ffefe5cabe1e91,SCR,2024-06-26_13h35.16.688,LearnStrategy,2023.2.3,Win32,59.88023952,5,1,16,-0.233333333,0.125555556,1,0,0,0.8151,Basalt_04,2,04,4,3,0.815,1,05,-0.156666667,-0.255555556,1,0,0,1.0238,Basalt_rect,2,1.024,1,15,0,15,0,1,,,,,,,,,,,,,
6660cbdd71ffefe5cabe1e91,SCR,2024-06-26_13h35.16.688,LearnStrategy,2023.2.3,Win32,59.88023952,5,2,1,,,,,,,,5,14,,,,,,,,,,,,,2,4.192,0,,,,,,-0.163333333,-0.25,1,0,0,4.1915,Basalt_rect,0,0,0,0,1,
6660cbdd71ffefe5cabe1e91,SCR,2024-06-26_13h35.16.688,LearnStrategy,2023.2.3,Win32,59.88023952,5,2,2,,,,,,,,8,09,,,,,,,,,,,,,8,1.443,1,,,,,,0.346666667,-0.407777778,1,0,0,1.4428,Pumice_rect,1,0,1,0,1,
6660cbdd71ffefe5cabe1e91,SCR,2024-06-26_13h35.16.688,LearnStrategy,2023.2.3,Win32,59.88023952,5,2,3,,,,,,,,4,03,,,,,,,,,,,,,3,1.307,0,,,,,,0.163333333,-0.245555556,1,0,0,1.3073,Diorite_rect,2,0,2,0,1,
6660cbdd71ffefe5cabe1e91,SCR,2024-06-26_13h35.16.688,LearnStrategy,2023.2.3,Win32,59.88023952,5,2,4,,,,,,,,1,07,,,,,,,,,,,,,3,0.709,0,,,,,,0.163333333,-0.235555556,1,0,0,0.7087,Diorite_rect,3,0,3,0,1,
6660cbdd71ffefe5cabe1e91,SCR,2024-06-26_13h35.16.688,LearnStrategy,2023.2.3,Win32,59.88023952,5,2,5,,,,,,,,8,04,,,,,,,,,,,,,8,1.836,1,,,,,,0.345555556,-0.378888889,1,0,0,1.8358,Pumice_rect,4,0,4,0,1,
6660cbdd71ffefe5cabe1e91,SCR,2024-06-26_13h35.16.688,LearnStrategy,2023.2.3,Win32,59.88023952,5,2,6,,,,,,,,3,16,,,,,,,,,,,,,3,1.39,1,,,,,,0.144444444,-0.241111111,1,0,0,1.3901,Diorite_rect,5,0,5,0,1,
6660cbdd71ffefe5cabe1e91,SCR,2024-06-26_13h35.16.688,LearnStrategy,2023.2.3,Win32,59.88023952,5,2,7,,,,,,,,7,05,,,,,,,,,,,,,4,2.081,0,,,,,,0.367777778,-0.258888889,1,0,0,2.0813,Gabbro_rect,6,0,6,0,1,
6660cbdd71ffefe5cabe1e91,SCR,2024-06-26_13h35.16.688,LearnStrategy,2023.2.3,Win32,59.88023952,5,2,8,,,,,,,,1,11,,,,,,,,,,,,,7,1.613,0,,,,,,0.105555556,-0.401111111,1,0,0,1.6127,Peridotite_rect,7,0,7,0,1,
6660cbdd71ffefe5cabe1e91,SCR,2024-06-26_13h35.16.688,LearnStrategy,2023.2.3,Win32,59.88023952,5,2,9,,,,,,,,7,10,,,,,,,,,,,,,7,0.829,1,,,,,,0.1,-0.405555556,1,0,0,0.8291,Peridotite_rect,8,0,8,0,1,
6660cbdd71ffefe5cabe1e91,SCR,2024-06-26_13h35.16.688,LearnStrategy,2023.2.3,Win32,59.88023952,5,2,10,,,,,,,,2,14,,,,,,,,,,,,,1,2.011,0,,,,,,-0.361111111,-0.257777778,1,0,0,2.0106,Andesite_rect,9,0,9,0,1,
6660cbdd71ffefe5cabe1e91,SCR,2024-06-26_13h35.16.688,LearnStrategy,2023.2.3,Win32,59.88023952,5,2,11,,,,,,,,2,06,,,,,,,,,,,,,2,1.726,1,,,,,,-0.172222222,-0.262222222,1,0,0,1.7261,Basalt_rect,10,0,10,0,1,
6660cbdd71ffefe5cabe1e91,SCR,2024-06-26_13h35.16.688,LearnStrategy,2023.2.3,Win32,59.88023952,5,2,12,,,,,,,,5,04,,,,,,,,,,,,,5,1.151,1,,,,,,-0.394444444,-0.393333333,1,0,0,1.1515,Obsidian_rect,11,0,11,0,1,
6660cbdd71ffefe5cabe1e91,SCR,2024-06-26_13h35.16.688,LearnStrategy,2023.2.3,Win32,59.88023952,5,2,13,,,,,,,,4,14,,,,,,,,,,,,,6,1.176,0,,,,,,-0.122222222,-0.398888889,1,0,0,1.1761,Pegmatite_rect,12,0,12,0,1,
6660cbdd71ffefe5cabe1e91,SCR,2024-06-26_13h35.16.688,LearnStrategy,2023.2.3,Win32,59.88023952,5,2,14,,,,,,,,6,15,,,,,,,,,,,,,3,1.497,0,,,,,,0.112222222,-0.263333333,1,0,0,1.4974,Diorite_rect,13,0,13,0,1,
6660cbdd71ffefe5cabe1e91,SCR,2024-06-26_13h35.16.688,LearnStrategy,2023.2.3,Win32,59.88023952,5,2,15,,,,,,,,6,07,,,,,,,,,,,,,3,0.727,0,,,,,,0.112222222,-0.263333333,1,0,0,0.7271,Diorite_rect,14,0,14,0,1,
6660cbdd71ffefe5cabe1e91,SCR,2024-06-26_13h35.16.688,LearnStrategy,2023.2.3,Win32,59.88023952,5,2,16,,,,,,,,3,07,,,,,,,,,,,,,3,0.776,1,,,,,,0.112222222,-0.263333333,1,0,0,0.7761,Diorite_rect,15,0,15,0,1,
6660cbdd71ffefe5cabe1e91,SCR,2024-06-26_13h35.16.688,LearnStrategy,2023.2.3,Win32,59.88023952,6,1,1,-0.498888889,-0.084444444,1,0,0,2.1241,Basalt_05,2,05,3,1,2.124,1,04,-0.144444444,-0.235555556,1,0,0,1.1608,Basalt_rect,2,1.161,1,0,0,0,0,1,,,,,,,,,,,,,
6660cbdd71ffefe5cabe1e91,SCR,2024-06-26_13h35.16.688,LearnStrategy,2023.2.3,Win32,59.88023952,6,1,2,-0.514444444,0.082222222,1,0,0,1.5059,Basalt_08,2,08,4,1,1.506,3,11,-0.162222222,-0.266666667,1,0,0,1.1782,Basalt_rect,2,1.178,1,1,0,1,0,1,,,,,,,,,,,,,
6660cbdd71ffefe5cabe1e91,SCR,2024-06-26_13h35.16.688,LearnStrategy,2023.2.3,Win32,59.88023952,6,1,3,0.123333333,0.108888889,1,0,0,1.3021,Peridotite_07,7,07,4,5,1.302,2,05,0.132222222,-0.258888889,1,0,0,1.1568,Diorite_rect,3,1.157,0,2,0,2,0,1,,,,,,,,,,,,,
6660cbdd71ffefe5cabe1e91,SCR,2024-06-26_13h35.16.688,LearnStrategy,2023.2.3,Win32,59.88023952,6,1,4,0.08,0.066666667,1,0,0,0.7237,Peridotite_07,7,07,4,5,0.724,6,08,0.104444444,-0.387777778,1,0,0,1.483,Peridotite_rect,7,1.483,1,3,0,3,0,1,,,,,,,,,,,,,
6660cbdd71ffefe5cabe1e91,SCR,2024-06-26_13h35.16.688,LearnStrategy,2023.2.3,Win32,59.88023952,6,1,5,-0.063333333,0.256666667,1,0,0,1.0317,Pegmatite_05,6,05,5,4,1.032,6,10,0.121111111,-0.244444444,1,0,0,1.2799,Diorite_rect,3,1.28,0,4,0,4,0,1,,,,,,,,,,,,,
6660cbdd71ffefe5cabe1e91,SCR,2024-06-26_13h35.16.688,LearnStrategy,2023.2.3,Win32,59.88023952,6,1,6,0.422222222,0.095555556,1,0,0,2.2883,Pegmatite_12,6,12,4,7,2.288,5,11,-0.07,-0.39,1,0,0,1.2668,Pegmatite_rect,6,1.267,1,5,0,5,0,1,,,,,,,,,,,,,
6660cbdd71ffefe5cabe1e91,SCR,2024-06-26_13h35.16.688,LearnStrategy,2023.2.3,Win32,59.88023952,6,1,7,-0.548888889,0.397777778,1,0,0,1.773,Gabbro_01,4,01,6,1,1.773,2,08,-0.118888889,-0.401111111,1,0,0,1.3934,Pegmatite_rect,6,1.393,0,6,0,6,0,1,,,,,,,,,,,,,
6660cbdd71ffefe5cabe1e91,SCR,2024-06-26_13h35.16.688,LearnStrategy,2023.2.3,Win32,59.88023952,6,1,8,-0.414444444,0.416666667,1,0,0,1.302,Gabbro_15,4,15,6,2,1.302,4,01,0.087777778,-0.398888889,1,0,0,2.9154,Peridotite_rect,7,2.915,0,7,0,7,0,1,,,,,,,,,,,,,
6660cbdd71ffefe5cabe1e91,SCR,2024-06-26_13h35.16.688,LearnStrategy,2023.2.3,Win32,59.88023952,6,1,9,0.366666667,0.073333333,1,0,0,2.5397,Pegmatite_12,6,12,4,7,2.54,4,01,0.097777778,-0.261111111,1,0,0,1.5485,Diorite_rect,3,1.548,0,8,0,8,0,1,,,,,,,,,,,,,
6660cbdd71ffefe5cabe1e91,SCR,2024-06-26_13h35.16.688,LearnStrategy,2023.2.3,Win32,59.88023952,6,1,10,0.392222222,-0.293333333,1,0,0,1.1521,Diorite_09,3,09,2,7,1.152,1,10,0.156666667,-0.265555556,1,0,0,0.9665,Diorite_rect,3,0.966,1,9,0,9,0,1,,,,,,,,,,,,,
6660cbdd71ffefe5cabe1e91,SCR,2024-06-26_13h35.16.688,LearnStrategy,2023.2.3,Win32,59.88023952,6,1,11,0.552222222,-0.11,1,0,0,1.1654,Obsidian_11,5,11,3,8,1.165,4,13,-0.337777778,-0.391111111,1,0,0,1.2907,Obsidian_rect,5,1.291,1,10,0,10,0,1,,,,,,,,,,,,,
6660cbdd71ffefe5cabe1e91,SCR,2024-06-26_13h35.16.688,LearnStrategy,2023.2.3,Win32,59.88023952,6,1,12,0.571111111,-0.291111111,1,0,0,0.9431,Basalt_16,2,16,2,8,0.943,6,12,0.08,-0.26,1,0,0,1.5692,Diorite_rect,3,1.569,0,11,0,11,0,1,,,,,,,,,,,,,
6660cbdd71ffefe5cabe1e91,SCR,2024-06-26_13h35.16.688,LearnStrategy,2023.2.3,Win32,59.88023952,6,1,13,0.533333333,-0.425555556,1,0,0,0.9933,Pegmatite_10,6,10,1,8,0.993,7,02,-0.062222222,-0.414444444,1,0,0,1.2203,Pegmatite_rect,6,1.22,1,12,0,12,0,1,,,,,,,,,,,,,
6660cbdd71ffefe5cabe1e91,SCR,2024-06-26_13h35.16.688,LearnStrategy,2023.2.3,Win32,59.88023952,6,1,14,0.242222222,-0.406666667,1,0,0,1.0681,Pegmatite_03,6,03,1,6,1.068,1,14,0.178888889,-0.398888889,1,0,0,0.7168,Peridotite_rect,7,0.717,0,13,0,13,0,1,,,,,,,,,,,,,
6660cbdd71ffefe5cabe1e91,SCR,2024-06-26_13h35.16.688,LearnStrategy,2023.2.3,Win32,59.88023952,6,1,15,-0.044444444,-0.415555556,1,0,0,1.7558,Obsidian_06,5,06,1,4,1.756,7,12,-0.352222222,-0.4,1,0,0,0.9995,Obsidian_rect,5,1,1,14,0,14,0,1,,,,,,,,,,,,,
6660cbdd71ffefe5cabe1e91,SCR,2024-06-26_13h35.16.688,LearnStrategy,2023.2.3,Win32,59.88023952,6,1,16,-0.037777778,0.067777778,1,0,0,0.6485,Andesite_10,1,10,4,4,0.649,3,11,0.108888889,-0.24,1,0,0,1.9915,Diorite_rect,3,1.991,0,15,0,15,0,1,,,,,,,,,,,,,
6660cbdd71ffefe5cabe1e91,SCR,2024-06-26_13h35.16.688,LearnStrategy,2023.2.3,Win32,59.88023952,6,2,1,,,,,,,,3,02,,,,,,,,,,,,,6,3.316,0,,,,,,-0.122222222,-0.401111111,1,0,0,3.3157,Pegmatite_rect,0,0,0,0,1,
6660cbdd71ffefe5cabe1e91,SCR,2024-06-26_13h35.16.688,LearnStrategy,2023.2.3,Win32,59.88023952,6,2,2,,,,,,,,4,09,,,,,,,,,,,,,5,2.907,0,,,,,,-0.403333333,-0.397777778,1,0,0,2.9066,Obsidian_rect,1,0,1,0,1,
6660cbdd71ffefe5cabe1e91,SCR,2024-06-26_13h35.16.688,LearnStrategy,2023.2.3,Win32,59.88023952,6,2,3,,,,,,,,1,09,,,,,,,,,,,,,1,2.152,1,,,,,,-0.337777778,-0.252222222,1,0,0,2.1518,Andesite_rect,2,0,2,0,1,
6660cbdd71ffefe5cabe1e91,SCR,2024-06-26_13h35.16.688,LearnStrategy,2023.2.3,Win32,59.88023952,6,2,4,,,,,,,,5,05,,,,,,,,,,,,,5,1.407,1,,,,,,-0.38,-0.384444444,1,0,0,1.4069,Obsidian_rect,3,0,3,0,1,
6660cbdd71ffefe5cabe1e91,SCR,2024-06-26_13h35.16.688,LearnStrategy,2023.2.3,Win32,59.88023952,6,2,5,,,,,,,,1,06,,,,,,,,,,,,,1,1.693,1,,,,,,-0.383333333,-0.262222222,1,0,0,1.6929,Andesite_rect,4,0,4,0,1,
6660cbdd71ffefe5cabe1e91,SCR,2024-06-26_13h35.16.688,LearnStrategy,2023.2.3,Win32,59.88023952,6,2,6,,,,,,,,2,12,,,,,,,,,,,,,1,2.736,0,,,,,,-0.35,-0.261111111,1,0,0,2.7358,Andesite_rect,5,0,5,0,1,
6660cbdd71ffefe5cabe1e91,SCR,2024-06-26_13h35.16.688,LearnStrategy,2023.2.3,Win32,59.88023952,6,2,7,,,,,,,,2,01,,,,,,,,,,,,,2,1.586,1,,,,,,-0.162222222,-0.248888889,1,0,0,1.5855,Basalt_rect,6,0,6,0,1,
6660cbdd71ffefe5cabe1e91,SCR,2024-06-26_13h35.16.688,LearnStrategy,2023.2.3,Win32,59.88023952,6,2,8,,,,,,,,8,13,,,,,,,,,,,,,8,1.459,1,,,,,,0.393333333,-0.401111111,1,0,0,1.4587,Pumice_rect,7,0,7,0,1,
6660cbdd71ffefe5cabe1e91,SCR,2024-06-26_13h35.16.688,LearnStrategy,2023.2.3,Win32,59.88023952,6,2,9,,,,,,,,8,14,,,,,,,,,,,,,8,0.608,1,,,,,,0.393333333,-0.401111111,1,0,0,0.6085,Pumice_rect,8,0,8,0,1,
6660cbdd71ffefe5cabe1e91,SCR,2024-06-26_13h35.16.688,LearnStrategy,2023.2.3,Win32,59.88023952,6,2,10,,,,,,,,7,16,,,,,,,,,,,,,6,2.756,0,,,,,,-0.095555556,-0.401111111,1,0,0,2.7557,Pegmatite_rect,9,0,9,0,1,
6660cbdd71ffefe5cabe1e91,SCR,2024-06-26_13h35.16.688,LearnStrategy,2023.2.3,Win32,59.88023952,6,2,11,,,,,,,,4,11,,,,,,,,,,,,,3,1.525,0,,,,,,0.068888889,-0.26,1,0,0,1.5251,Diorite_rect,10,0,10,0,1,
6660cbdd71ffefe5cabe1e91,SCR,2024-06-26_13h35.16.688,LearnStrategy,2023.2.3,Win32,59.88023952,6,2,12,,,,,,,,6,06,,,,,,,,,,,,,3,0.893,0,,,,,,0.073333333,-0.236666667,1,0,0,0.8926,Diorite_rect,11,0,11,0,1,
6660cbdd71ffefe5cabe1e91,SCR,2024-06-26_13h35.16.688,LearnStrategy,2023.2.3,Win32,59.88023952,6,2,13,,,,,,,,6,09,,,,,,,,,,,,,6,1.404,1,,,,,,-0.143333333,-0.412222222,1,0,0,1.4036,Pegmatite_rect,12,0,12,0,1,
6660cbdd71ffefe5cabe1e91,SCR,2024-06-26_13h35.16.688,LearnStrategy,2023.2.3,Win32,59.88023952,6,2,14,,,,,,,,5,07,,,,,,,,,,,,,5,1.825,1,,,,,,-0.392222222,-0.405555556,1,0,0,1.8248,Obsidian_rect,13,0,13,0,1,
6660cbdd71ffefe5cabe1e91,SCR,2024-06-26_13h35.16.688,LearnStrategy,2023.2.3,Win32,59.88023952,6,2,15,,,,,,,,3,14,,,,,,,,,,,,,3,1.688,1,,,,,,0.08,-0.263333333,1,0,0,1.6885,Diorite_rect,14,0,14,0,1,
6660cbdd71ffefe5cabe1e91,SCR,2024-06-26_13h35.16.688,LearnStrategy,2023.2.3,Win32,59.88023952,6,2,16,,,,,,,,7,04,,,,,,,,,,,,,3,0.902,0,,,,,,0.08,-0.263333333,1,0,0,0.9018,Diorite_rect,15,0,15,0,1,
6660cbdd71ffefe5cabe1e91,SCR,2024-06-26_13h35.16.688,LearnStrategy,2023.2.3,Win32,59.88023952,7,1,1,-0.057777778,0.066666667,1,0,0,1.9855,Andesite_10,1,10,4,4,1.986,2,05,0.185555556,-0.418888889,1,0,0,2.6598,Peridotite_rect,7,2.66,0,0,0,0,0,1,,,,,,,,,,,,,
6660cbdd71ffefe5cabe1e91,SCR,2024-06-26_13h35.16.688,LearnStrategy,2023.2.3,Win32,59.88023952,7,1,2,-0.065555556,0.061111111,1,0,0,1.0852,Andesite_10,1,10,4,4,1.085,5,06,-0.323333333,-0.256666667,1,0,0,1.7495,Andesite_rect,1,1.75,1,1,0,1,0,1,,,,,,,,,,,,,
6660cbdd71ffefe5cabe1e91,SCR,2024-06-26_13h35.16.688,LearnStrategy,2023.2.3,Win32,59.88023952,7,1,3,-0.234444444,0.222222222,1,0,0,1.9479,Andesite_14,1,14,5,3,1.948,6,05,-0.356666667,-0.268888889,1,0,0,3.9913,Andesite_rect,1,3.991,1,2,0,2,0,1,,,,,,,,,,,,,
6660cbdd71ffefe5cabe1e91,SCR,2024-06-26_13h35.16.688,LearnStrategy,2023.2.3,Win32,59.88023952,7,1,4,0.202222222,0.235555556,1,0,0,1.1981,Pegmatite_11,6,11,5,6,1.198,3,10,0.073333333,-0.233333333,1,0,0,2.6025,Diorite_rect,3,2.602,0,3,0,3,0,1,,,,,,,,,,,,,
6660cbdd71ffefe5cabe1e91,SCR,2024-06-26_13h35.16.688,LearnStrategy,2023.2.3,Win32,59.88023952,7,1,5,0.237777778,0.07,1,0,0,0.8777,Pumice_02,8,02,4,6,0.878,6,10,0.388888889,-0.396666667,1,0,0,2.0406,Pumice_rect,8,2.041,1,4,0,4,0,1,,,,,,,,,,,,,
6660cbdd71ffefe5cabe1e91,SCR,2024-06-26_13h35.16.688,LearnStrategy,2023.2.3,Win32,59.88023952,7,1,6,0.426666667,-0.222222222,1,0,0,1.3141,Diorite_09,3,09,2,7,1.314,4,08,0.171111111,-0.24,1,0,0,1.2087,Diorite_rect,3,1.209,1,5,0,5,0,1,,,,,,,,,,,,,
6660cbdd71ffefe5cabe1e91,SCR,2024-06-26_13h35.16.688,LearnStrategy,2023.2.3,Win32,59.88023952,7,1,7,0.223333333,-0.233333333,1,0,0,1.3649,Diorite_08,3,08,2,6,1.365,7,15,0.162222222,-0.253333333,1,0,0,0.8911,Diorite_rect,3,0.891,1,6,0,6,0,1,,,,,,,,,,,,,
6660cbdd71ffefe5cabe1e91,SCR,2024-06-26_13h35.16.688,LearnStrategy,2023.2.3,Win32,59.88023952,7,1,8,-0.061111111,-0.1,1,0,0,0.9314,Obsidian_12,5,12,3,4,0.931,2,09,-0.38,-0.411111111,1,0,0,1.2923,Obsidian_rect,5,1.292,1,7,0,7,0,1,,,,,,,,,,,,,
6660cbdd71ffefe5cabe1e91,SCR,2024-06-26_13h35.16.688,LearnStrategy,2023.2.3,Win32,59.88023952,7,1,9,-0.273333333,0.251111111,1,0,0,1.052,Andesite_14,1,14,5,3,1.052,6,10,-0.392222222,-0.231111111,1,0,0,1.3566,Andesite_rect,1,1.357,1,8,0,8,0,1,,,,,,,,,,,,,
6660cbdd71ffefe5cabe1e91,SCR,2024-06-26_13h35.16.688,LearnStrategy,2023.2.3,Win32,59.88023952,7,1,10,0.048888889,0.098888889,1,0,0,0.9567,Peridotite_07,7,07,4,5,0.957,7,13,-0.05,-0.391111111,1,0,0,2.7098,Pegmatite_rect,6,2.71,0,9,0,9,0,1,,,,,,,,,,,,,
6660cbdd71ffefe5cabe1e91,SCR,2024-06-26_13h35.16.688,LearnStrategy,2023.2.3,Win32,59.88023952,7,1,11,0.056666667,0.081111111,1,0,0,0.8351,Peridotite_07,7,07,4,5,0.835,4,12,0.147777778,-0.404444444,1,0,0,1.233,Peridotite_rect,7,1.233,1,10,0,10,0,1,,,,,,,,,,,,,
6660cbdd71ffefe5cabe1e91,SCR,2024-06-26_13h35.16.688,LearnStrategy,2023.2.3,Win32,59.88023952,7,1,12,0.058888889,-0.101111111,1,0,0,0.9548,Peridotite_02,7,02,3,5,0.955,1,04,0.108888889,-0.396666667,1,0,0,1.6528,Peridotite_rect,7,1.653,1,11,0,11,0,1,,,,,,,,,,,,,
6660cbdd71ffefe5cabe1e91,SCR,2024-06-26_13h35.16.688,LearnStrategy,2023.2.3,Win32,59.88023952,7,1,13,0.095555556,-0.077777778,1,0,0,0.8484,Peridotite_02,7,02,3,5,0.848,4,13,0.116666667,-0.391111111,1,0,0,1.1253,Peridotite_rect,7,1.125,1,12,0,12,0,1,,,,,,,,,,,,,
6660cbdd71ffefe5cabe1e91,SCR,2024-06-26_13h35.16.688,LearnStrategy,2023.2.3,Win32,59.88023952,7,1,14,0.265555556,-0.393333333,1,0,0,1.2516,Pegmatite_03,6,03,1,6,1.252,7,08,-0.113333333,-0.391111111,1,0,0,2.039,Pegmatite_rect,6,2.039,1,13,0,13,0,1,,,,,,,,,,,,,
6660cbdd71ffefe5cabe1e91,SCR,2024-06-26_13h35.16.688,LearnStrategy,2023.2.3,Win32,59.88023952,7,1,15,0.063333333,-0.394444444,1,0,0,1.0644,Andesite_03,1,03,1,5,1.064,1,10,-0.343333333,-0.255555556,1,0,0,1.1749,Andesite_rect,1,1.175,1,14,0,14,0,1,,,,,,,,,,,,,
6660cbdd71ffefe5cabe1e91,SCR,2024-06-26_13h35.16.688,LearnStrategy,2023.2.3,Win32,59.88023952,7,1,16,-0.056666667,-0.381111111,1,0,0,1.5311,Obsidian_06,5,06,1,4,1.531,3,10,-0.31,-0.382222222,1,0,0,1.5688,Obsidian_rect,5,1.569,1,15,0,15,0,1,,,,,,,,,,,,,
6660cbdd71ffefe5cabe1e91,SCR,2024-06-26_13h35.16.688,LearnStrategy,2023.2.3,Win32,59.88023952,7,2,1,,,,,,,,7,05,,,,,,,,,,,,,3,2.191,0,,,,,,0.058888889,-0.228888889,1,0,0,2.1911,Diorite_rect,0,0,0,0,1,
6660cbdd71ffefe5cabe1e91,SCR,2024-06-26_13h35.16.688,LearnStrategy,2023.2.3,Win32,59.88023952,7,2,2,,,,,,,,5,14,,,,,,,,,,,,,5,1.775,1,,,,,,-0.353333333,-0.405555556,1,0,0,1.7745,Obsidian_rect,1,0,1,0,1,
6660cbdd71ffefe5cabe1e91,SCR,2024-06-26_13h35.16.688,LearnStrategy,2023.2.3,Win32,59.88023952,7,2,3,,,,,,,,4,14,,,,,,,,,,,,,6,2.075,0,,,,,,-0.117777778,-0.402222222,1,0,0,2.0749,Pegmatite_rect,2,0,2,0,1,
6660cbdd71ffefe5cabe1e91,SCR,2024-06-26_13h35.16.688,LearnStrategy,2023.2.3,Win32,59.88023952,7,2,4,,,,,,,,3,02,,,,,,,,,,,,,3,2.078,1,,,,,,0.141111111,-0.266666667,1,0,0,2.0785,Diorite_rect,3,0,3,0,1,
6660cbdd71ffefe5cabe1e91,SCR,2024-06-26_13h35.16.688,LearnStrategy,2023.2.3,Win32,59.88023952,7,2,5,,,,,,,,2,02,,,,,,,,,,,,,1,2.506,0,,,,,,-0.336666667,-0.255555556,1,0,0,2.5063,Andesite_rect,4,0,4,0,1,
6660cbdd71ffefe5cabe1e91,SCR,2024-06-26_13h35.16.688,LearnStrategy,2023.2.3,Win32,59.88023952,7,2,6,,,,,,,,5,05,,,,,,,,,,,,,5,1.287,1,,,,,,-0.34,-0.414444444,1,0,0,1.2867,Obsidian_rect,5,0,5,0,1,
6660cbdd71ffefe5cabe1e91,SCR,2024-06-26_13h35.16.688,LearnStrategy,2023.2.3,Win32,59.88023952,7,2,7,,,,,,,,8,16,,,,,,,,,,,,,8,1.459,1,,,,,,0.381111111,-0.413333333,1,0,0,1.4589,Pumice_rect,6,0,6,0,1,
6660cbdd71ffefe5cabe1e91,SCR,2024-06-26_13h35.16.688,LearnStrategy,2023.2.3,Win32,59.88023952,7,2,8,,,,,,,,3,12,,,,,,,,,,,,,6,1.642,0,,,,,,-0.094444444,-0.388888889,1,0,0,1.642,Pegmatite_rect,7,0,7,0,1,
6660cbdd71ffefe5cabe1e91,SCR,2024-06-26_13h35.16.688,LearnStrategy,2023.2.3,Win32,59.88023952,7,2,9,,,,,,,,1,06,,,,,,,,,,,,,1,3.273,1,,,,,,-0.371111111,-0.262222222,1,0,0,3.2733,Andesite_rect,8,0,8,0,1,
6660cbdd71ffefe5cabe1e91,SCR,2024-06-26_13h35.16.688,LearnStrategy,2023.2.3,Win32,59.88023952,7,2,10,,,,,,,,4,09,,,,,,,,,,,,,5,3.196,0,,,,,,-0.367777778,-0.411111111,1,0,0,3.1955,Obsidian_rect,9,0,9,0,1,
6660cbdd71ffefe5cabe1e91,SCR,2024-06-26_13h35.16.688,LearnStrategy,2023.2.3,Win32,59.88023952,7,2,11,,,,,,,,6,09,,,,,,,,,,,,,6,1.468,1,,,,,,-0.164444444,-0.405555556,1,0,0,1.468,Pegmatite_rect,10,0,10,0,1,
6660cbdd71ffefe5cabe1e91,SCR,2024-06-26_13h35.16.688,LearnStrategy,2023.2.3,Win32,59.88023952,7,2,12,,,,,,,,8,15,,,,,,,,,,,,,8,1.496,1,,,,,,0.42,-0.393333333,1,0,0,1.4961,Pumice_rect,11,0,11,0,1,
6660cbdd71ffefe5cabe1e91,SCR,2024-06-26_13h35.16.688,LearnStrategy,2023.2.3,Win32,59.88023952,7,2,13,,,,,,,,1,01,,,,,,,,,,,,,4,1.87,0,,,,,,0.35,-0.243333333,1,0,0,1.8702,Gabbro_rect,12,0,12,0,1,
6660cbdd71ffefe5cabe1e91,SCR,2024-06-26_13h35.16.688,LearnStrategy,2023.2.3,Win32,59.88023952,7,2,14,,,,,,,,7,10,,,,,,,,,,,,,4,0.654,0,,,,,,0.35,-0.243333333,1,0,0,0.6542,Gabbro_rect,13,0,13,0,1,
6660cbdd71ffefe5cabe1e91,SCR,2024-06-26_13h35.16.688,LearnStrategy,2023.2.3,Win32,59.88023952,7,2,15,,,,,,,,2,11,,,,,,,,,,,,,1,1.836,0,,,,,,-0.371111111,-0.265555556,1,0,0,1.8364,Andesite_rect,14,0,14,0,1,
6660cbdd71ffefe5cabe1e91,SCR,2024-06-26_13h35.16.688,LearnStrategy,2023.2.3,Win32,59.88023952,7,2,16,,,,,,,,6,06,,,,,,,,,,,,,3,2.04,0,,,,,,0.145555556,-0.243333333,1,0,0,2.04,Diorite_rect,15,0,15,0,1,
6660cbdd71ffefe5cabe1e91,SCR,2024-06-26_13h35.16.688,LearnStrategy,2023.2.3,Win32,59.88023952,8,1,1,-0.053333333,0.106666667,1,0,0,0.89,Andesite_10,1,10,4,4,0.89,6,11,-0.378888889,-0.238888889,1,0,0,1.3493,Andesite_rect,1,1.349,1,0,0,0,0,1,,,,,,,,,,,,,
6660cbdd71ffefe5cabe1e91,SCR,2024-06-26_13h35.16.688,LearnStrategy,2023.2.3,Win32,59.88023952,8,1,2,0.224444444,0.092222222,1,0,0,1.0518,Pumice_02,8,02,4,6,1.052,4,13,0.355555556,-0.391111111,1,0,0,1.2996,Pumice_rect,8,1.3,1,1,0,1,0,1,,,,,,,,,,,,,
6660cbdd71ffefe5cabe1e91,SCR,2024-06-26_13h35.16.688,LearnStrategy,2023.2.3,Win32,59.88023952,8,1,3,-0.208888889,0.078888889,1,0,0,1.5303,Basalt_04,2,04,4,3,1.53,7,02,-0.396666667,-0.262222222,1,0,0,1.675,Andesite_rect,1,1.675,0,2,0,2,0,1,,,,,,,,,,,,,
6660cbdd71ffefe5cabe1e91,SCR,2024-06-26_13h35.16.688,LearnStrategy,2023.2.3,Win32,59.88023952,8,1,4,-0.376666667,0.077777778,1,0,0,1.1237,Pumice_03,8,03,4,2,1.124,3,08,0.398888889,-0.388888889,1,0,0,1.3838,Pumice_rect,8,1.384,1,3,0,3,0,1,,,,,,,,,,,,,
6660cbdd71ffefe5cabe1e91,SCR,2024-06-26_13h35.16.688,LearnStrategy,2023.2.3,Win32,59.88023952,8,1,5,0.221111111,0.41,1,0,0,1.1147,Pumice_06,8,06,6,6,1.115,1,04,0.363333333,-0.413333333,1,0,0,1.5419,Pumice_rect,8,1.542,1,4,0,4,0,1,,,,,,,,,,,,,
6660cbdd71ffefe5cabe1e91,SCR,2024-06-26_13h35.16.688,LearnStrategy,2023.2.3,Win32,59.88023952,8,1,6,0.41,0.076666667,1,0,0,1.1642,Pegmatite_12,6,12,4,7,1.164,3,11,0.183333333,-0.231111111,1,0,0,0.7757,Diorite_rect,3,0.776,0,5,0,5,0,1,,,,,,,,,,,,,
6660cbdd71ffefe5cabe1e91,SCR,2024-06-26_13h35.16.688,LearnStrategy,2023.2.3,Win32,59.88023952,8,1,7,0.377777778,0.105555556,1,0,0,0.9902,Pegmatite_12,6,12,4,7,0.99,5,09,-0.131111111,-0.413333333,1,0,0,1.2931,Pegmatite_rect,6,1.293,1,6,0,6,0,1,,,,,,,,,,,,,
6660cbdd71ffefe5cabe1e91,SCR,2024-06-26_13h35.16.688,LearnStrategy,2023.2.3,Win32,59.88023952,8,1,8,-0.208888889,0.09,1,0,0,0.8853,Basalt_04,2,04,4,3,0.885,6,08,-0.218888889,-0.25,1,0,0,1.6504,Basalt_rect,2,1.65,1,7,0,7,0,1,,,,,,,,,,,,,
6660cbdd71ffefe5cabe1e91,SCR,2024-06-26_13h35.16.688,LearnStrategy,2023.2.3,Win32,59.88023952,8,1,9,-0.21,0.222222222,1,0,0,0.8015,Andesite_14,1,14,5,3,0.802,4,01,0.038888889,-0.401111111,1,0,0,3.1835,Peridotite_rect,7,3.183,0,8,0,8,0,1,,,,,,,,,,,,,
6660cbdd71ffefe5cabe1e91,SCR,2024-06-26_13h35.16.688,LearnStrategy,2023.2.3,Win32,59.88023952,8,1,10,-0.223333333,0.221111111,1,0,0,1.2152,Andesite_14,1,14,5,3,1.215,4,13,-0.351111111,-0.251111111,1,0,0,3.0045,Andesite_rect,1,3.005,1,9,0,9,0,1,,,,,,,,,,,,,
6660cbdd71ffefe5cabe1e91,SCR,2024-06-26_13h35.16.688,LearnStrategy,2023.2.3,Win32,59.88023952,8,1,11,-0.238888889,0.395555556,1,0,0,0.7681,Peridotite_08,7,08,6,3,0.768,1,02,0.126666667,-0.257777778,1,0,0,1.9493,Diorite_rect,3,1.949,0,10,0,10,0,1,,,,,,,,,,,,,
6660cbdd71ffefe5cabe1e91,SCR,2024-06-26_13h35.16.688,LearnStrategy,2023.2.3,Win32,59.88023952,8,1,12,0.073333333,0.361111111,1,0,0,1.3318,Gabbro_13,4,13,6,5,1.332,7,15,0.122222222,-0.41,1,0,0,2.6035,Peridotite_rect,7,2.604,0,11,0,11,0,1,,,,,,,,,,,,,
6660cbdd71ffefe5cabe1e91,SCR,2024-06-26_13h35.16.688,LearnStrategy,2023.2.3,Win32,59.88023952,8,1,13,0.221111111,0.291111111,1,0,0,1.6814,Pegmatite_11,6,11,5,6,1.681,6,05,0.15,-0.228888889,1,0,0,1.9575,Diorite_rect,3,1.957,0,12,0,12,0,1,,,,,,,,,,,,,
6660cbdd71ffefe5cabe1e91,SCR,2024-06-26_13h35.16.688,LearnStrategy,2023.2.3,Win32,59.88023952,8,1,14,0.366666667,-0.135555556,1,0,0,1.3561,Obsidian_02,5,02,3,7,1.356,2,04,-0.37,-0.392222222,1,0,0,1.1183,Obsidian_rect,5,1.118,1,13,0,13,0,1,,,,,,,,,,,,,
6660cbdd71ffefe5cabe1e91,SCR,2024-06-26_13h35.16.688,LearnStrategy,2023.2.3,Win32,59.88023952,8,1,15,-0.191111111,-0.246666667,1,0,0,1.3817,Diorite_06,3,06,2,3,1.382,2,09,-0.13,-0.408888889,1,0,0,2.425,Pegmatite_rect,6,2.425,0,14,0,14,0,1,,,,,,,,,,,,,
6660cbdd71ffefe5cabe1e91,SCR,2024-06-26_13h35.16.688,LearnStrategy,2023.2.3,Win32,59.88023952,8,1,16,-0.237777778,-0.278888889,1,0,0,1.29,Diorite_06,3,06,2,3,1.29,7,12,0.082222222,-0.246666667,1,0,0,0.8298,Diorite_rect,3,0.83,1,15,0,15,0,1,,,,,,,,,,,,,
6660cbdd71ffefe5cabe1e91,SCR,2024-06-26_13h35.16.688,LearnStrategy,2023.2.3,Win32,59.88023952,8,2,1,,,,,,,,3,15,,,,,,,,,,,,,3,1.72,1,,,,,,0.116666667,-0.258888889,1,0,0,1.72,Diorite_rect,0,0,0,0,1,
6660cbdd71ffefe5cabe1e91,SCR,2024-06-26_13h35.16.688,LearnStrategy,2023.2.3,Win32,59.88023952,8,2,2,,,,,,,,2,01,,,,,,,,,,,,,2,1.734,1,,,,,,-0.195555556,-0.246666667,1,0,0,1.7344,Basalt_rect,1,0,1,0,1,
6660cbdd71ffefe5cabe1e91,SCR,2024-06-26_13h35.16.688,LearnStrategy,2023.2.3,Win32,59.88023952,8,2,3,,,,,,,,3,16,,,,,,,,,,,,,3,1.975,1,,,,,,0.066666667,-0.248888889,1,0,0,1.9754,Diorite_rect,2,0,2,0,1,
6660cbdd71ffefe5cabe1e91,SCR,2024-06-26_13h35.16.688,LearnStrategy,2023.2.3,Win32,59.88023952,8,2,4,,,,,,,,2,12,,,,,,,,,,,,,1,1.326,0,,,,,,-0.352222222,-0.241111111,1,0,0,1.3263,Andesite_rect,3,0,3,0,1,
6660cbdd71ffefe5cabe1e91,SCR,2024-06-26_13h35.16.688,LearnStrategy,2023.2.3,Win32,59.88023952,8,2,5,,,,,,,,7,04,,,,,,,,,,,,,3,1.287,0,,,,,,0.094444444,-0.265555556,1,0,0,1.2873,Diorite_rect,4,0,4,0,1,
6660cbdd71ffefe5cabe1e91,SCR,2024-06-26_13h35.16.688,LearnStrategy,2023.2.3,Win32,59.88023952,8,2,6,,,,,,,,8,04,,,,,,,,,,,,,8,1.253,1,,,,,,0.367777778,-0.392222222,1,0,0,1.2534,Pumice_rect,5,0,5,0,1,
6660cbdd71ffefe5cabe1e91,SCR,2024-06-26_13h35.16.688,LearnStrategy,2023.2.3,Win32,59.88023952,8,2,7,,,,,,,,4,16,,,,,,,,,,,,,2,2.69,0,,,,,,-0.158888889,-0.234444444,1,0,0,2.69,Basalt_rect,6,0,6,0,1,
6660cbdd71ffefe5cabe1e91,SCR,2024-06-26_13h35.16.688,LearnStrategy,2023.2.3,Win32,59.88023952,8,2,8,,,,,,,,5,04,,,,,,,,,,,,,5,1.643,1,,,,,,-0.364444444,-0.385555556,1,0,0,1.6427,Obsidian_rect,7,0,7,0,1,
6660cbdd71ffefe5cabe1e91,SCR,2024-06-26_13h35.16.688,LearnStrategy,2023.2.3,Win32,59.88023952,8,2,9,,,,,,,,7,06,,,,,,,,,,,,,6,1.576,0,,,,,,-0.145555556,-0.393333333,1,0,0,1.5757,Pegmatite_rect,8,0,8,0,1,
6660cbdd71ffefe5cabe1e91,SCR,2024-06-26_13h35.16.688,LearnStrategy,2023.2.3,Win32,59.88023952,8,2,10,,,,,,,,8,09,,,,,,,,,,,,,8,1.176,1,,,,,,0.353333333,-0.381111111,1,0,0,1.1757,Pumice_rect,9,0,9,0,1,
6660cbdd71ffefe5cabe1e91,SCR,2024-06-26_13h35.16.688,LearnStrategy,2023.2.3,Win32,59.88023952,8,2,11,,,,,,,,6,16,,,,,,,,,,,,,6,2.126,1,,,,,,-0.081111111,-0.395555556,1,0,0,2.1262,Pegmatite_rect,10,0,10,0,1,
6660cbdd71ffefe5cabe1e91,SCR,2024-06-26_13h35.16.688,LearnStrategy,2023.2.3,Win32,59.88023952,8,2,12,,,,,,,,5,07,,,,,,,,,,,,,5,1.485,1,,,,,,-0.341111111,-0.395555556,1,0,0,1.4848,Obsidian_rect,11,0,11,0,1,
6660cbdd71ffefe5cabe1e91,SCR,2024-06-26_13h35.16.688,LearnStrategy,2023.2.3,Win32,59.88023952,8,2,13,,,,,,,,1,11,,,,,,,,,,,,,1,1.303,1,,,,,,-0.316666667,-0.24,1,0,0,1.3025,Andesite_rect,12,0,12,0,1,
6660cbdd71ffefe5cabe1e91,SCR,2024-06-26_13h35.16.688,LearnStrategy,2023.2.3,Win32,59.88023952,8,2,14,,,,,,,,6,13,,,,,,,,,,,,,6,1.325,1,,,,,,-0.153333333,-0.395555556,1,0,0,1.3254,Pegmatite_rect,13,0,13,0,1,
6660cbdd71ffefe5cabe1e91,SCR,2024-06-26_13h35.16.688,LearnStrategy,2023.2.3,Win32,59.88023952,8,2,15,,,,,,,,4,03,,,,,,,,,,,,,3,1.403,0,,,,,,0.122222222,-0.264444444,1,0,0,1.4025,Diorite_rect,14,0,14,0,1,
6660cbdd71ffefe5cabe1e91,SCR,2024-06-26_13h35.16.688,LearnStrategy,2023.2.3,Win32,59.88023952,8,2,16,,,,,,,,1,07,,,,,,,,,,,,,3,1.48,0,,,,,,0.116666667,-0.266666667,1,0,0,1.48,Diorite_rect,15,0,15,0,1,
6660cbdd71ffefe5cabe1e91,SCR,2024-06-26_13h35.16.688,LearnStrategy,2023.2.3,Win32,59.88023952,9,1,1,0.066666667,0.102222222,1,0,0,0.9736,Peridotite_07,7,07,4,5,0.974,3,11,0.105555556,-0.248888889,1,0,0,1.2617,Diorite_rect,3,1.262,0,0,0,0,0,1,,,,,,,,,,,,,
6660cbdd71ffefe5cabe1e91,SCR,2024-06-26_13h35.16.688,LearnStrategy,2023.2.3,Win32,59.88023952,9,1,2,-0.074444444,0.252222222,1,0,0,1.1524,Pegmatite_05,6,05,5,4,1.152,3,09,0.104444444,-0.238888889,1,0,0,1.2296,Diorite_rect,3,1.23,0,1,0,1,0,1,,,,,,,,,,,,,
6660cbdd71ffefe5cabe1e91,SCR,2024-06-26_13h35.16.688,LearnStrategy,2023.2.3,Win32,59.88023952,9,1,3,-0.067777778,0.24,1,0,0,1.6242,Pegmatite_05,6,05,5,4,1.624,7,02,-0.11,-0.398888889,1,0,0,2.0522,Pegmatite_rect,6,2.052,1,2,0,2,0,1,,,,,,,,,,,,,
6660cbdd71ffefe5cabe1e91,SCR,2024-06-26_13h35.16.688,LearnStrategy,2023.2.3,Win32,59.88023952,9,1,4,-0.253333333,-0.105555556,1,0,0,1.306,Pumice_10,8,10,3,3,1.306,4,15,0.3,-0.407777778,1,0,0,1.2439,Pumice_rect,8,1.244,1,3,0,3,0,1,,,,,,,,,,,,,
6660cbdd71ffefe5cabe1e91,SCR,2024-06-26_13h35.16.688,LearnStrategy,2023.2.3,Win32,59.88023952,9,1,5,0.241111111,0.241111111,1,0,0,1.4847,Pegmatite_11,6,11,5,6,1.485,1,03,-0.062222222,-0.413333333,1,0,0,1.2166,Pegmatite_rect,6,1.217,1,4,0,4,0,1,,,,,,,,,,,,,
6660cbdd71ffefe5cabe1e91,SCR,2024-06-26_13h35.16.688,LearnStrategy,2023.2.3,Win32,59.88023952,9,1,6,0.504444444,0.261111111,1,0,0,1.1153,Pegmatite_08,6,08,5,8,1.115,2,05,-0.083333333,-0.398888889,1,0,0,1.4416,Pegmatite_rect,6,1.442,1,5,0,5,0,1,,,,,,,,,,,,,
6660cbdd71ffefe5cabe1e91,SCR,2024-06-26_13h35.16.688,LearnStrategy,2023.2.3,Win32,59.88023952,9,1,7,0.377777778,0.082222222,1,0,0,1.1299,Pegmatite_12,6,12,4,7,1.13,6,05,-0.105555556,-0.407777778,1,0,0,1.1924,Pegmatite_rect,6,1.192,1,6,0,6,0,1,,,,,,,,,,,,,
6660cbdd71ffefe5cabe1e91,SCR,2024-06-26_13h35.16.688,LearnStrategy,2023.2.3,Win32,59.88023952,9,1,8,0.218888889,0.072222222,1,0,0,1.552,Pumice_02,8,02,4,6,1.552,7,02,0.355555556,-0.401111111,1,0,0,1.2667,Pumice_rect,8,1.267,1,7,0,7,0,1,,,,,,,,,,,,,
6660cbdd71ffefe5cabe1e91,SCR,2024-06-26_13h35.16.688,LearnStrategy,2023.2.3,Win32,59.88023952,9,1,9,-0.198888889,0.092222222,1,0,0,0.7568,Basalt_04,2,04,4,3,0.757,1,10,-0.392222222,-0.232222222,1,0,0,1.3675,Andesite_rect,1,1.368,0,8,0,8,0,1,,,,,,,,,,,,,
6660cbdd71ffefe5cabe1e91,SCR,2024-06-26_13h35.16.688,LearnStrategy,2023.2.3,Win32,59.88023952,9,1,10,-0.245555556,0.253333333,1,0,0,1.0237,Andesite_14,1,14,5,3,1.024,2,05,-0.44,-0.27,1,0,0,1.2171,Andesite_rect,1,1.217,1,9,0,9,0,1,,,,,,,,,,,,,
6660cbdd71ffefe5cabe1e91,SCR,2024-06-26_13h35.16.688,LearnStrategy,2023.2.3,Win32,59.88023952,9,1,11,-0.068888889,0.252222222,1,0,0,1.0819,Pegmatite_05,6,05,5,4,1.082,4,01,0.163333333,-0.27,1,0,0,1.2186,Diorite_rect,3,1.219,0,10,0,10,0,1,,,,,,,,,,,,,
6660cbdd71ffefe5cabe1e91,SCR,2024-06-26_13h35.16.688,LearnStrategy,2023.2.3,Win32,59.88023952,9,1,12,-0.044444444,0.104444444,1,0,0,0.8193,Andesite_10,1,10,4,4,0.819,5,12,-0.302222222,-0.261111111,1,0,0,1.5472,Andesite_rect,1,1.547,1,11,0,11,0,1,,,,,,,,,,,,,
6660cbdd71ffefe5cabe1e91,SCR,2024-06-26_13h35.16.688,LearnStrategy,2023.2.3,Win32,59.88023952,9,1,13,0.075555556,-0.073333333,1,0,0,0.7738,Peridotite_02,7,02,3,5,0.774,4,08,-0.11,-0.384444444,1,0,0,1.9665,Pegmatite_rect,6,1.966,0,12,0,12,0,1,,,,,,,,,,,,,
6660cbdd71ffefe5cabe1e91,SCR,2024-06-26_13h35.16.688,LearnStrategy,2023.2.3,Win32,59.88023952,9,1,14,0.214444444,-0.266666667,1,0,0,1.1982,Diorite_08,3,08,2,6,1.198,6,11,0.175555556,-0.397777778,1,0,0,0.9095,Peridotite_rect,7,0.909,0,13,0,13,0,1,,,,,,,,,,,,,
6660cbdd71ffefe5cabe1e91,SCR,2024-06-26_13h35.16.688,LearnStrategy,2023.2.3,Win32,59.88023952,9,1,15,0.244444444,-0.264444444,1,0,0,1.0178,Diorite_08,3,08,2,6,1.018,4,13,0.163333333,-0.232222222,1,0,0,0.8676,Diorite_rect,3,0.868,1,14,0,14,0,1,,,,,,,,,,,,,
6660cbdd71ffefe5cabe1e91,SCR,2024-06-26_13h35.16.688,LearnStrategy,2023.2.3,Win32,59.88023952,9,1,16,0.236666667,-0.074444444,1,0,0,1.2984,Andesite_04,1,04,3,6,1.298,7,15,-0.367777778,-0.248888889,1,0,0,1.2417,Andesite_rect,1,1.242,1,15,0,15,0,1,,,,,,,,,,,,,
6660cbdd71ffefe5cabe1e91,SCR,2024-06-26_13h35.16.688,LearnStrategy,2023.2.3,Win32,59.88023952,9,2,1,,,,,,,,2,14,,,,,,,,,,,,,3,6.2,0,,,,,,0.133333333,-0.257777778,1,0,0,6.2003,Diorite_rect,0,0,0,0,1,
6660cbdd71ffefe5cabe1e91,SCR,2024-06-26_13h35.16.688,LearnStrategy,2023.2.3,Win32,59.88023952,9,2,2,,,,,,,,7,14,,,,,,,,,,,,,3,2.084,0,,,,,,0.133333333,-0.257777778,1,0,0,2.0843,Diorite_rect,1,0,1,0,1,
6660cbdd71ffefe5cabe1e91,SCR,2024-06-26_13h35.16.688,LearnStrategy,2023.2.3,Win32,59.88023952,9,2,3,,,,,,,,1,09,,,,,,,,,,,,,1,1.926,1,,,,,,-0.373333333,-0.243333333,1,0,0,1.9261,Andesite_rect,2,0,2,0,1,
6660cbdd71ffefe5cabe1e91,SCR,2024-06-26_13h35.16.688,LearnStrategy,2023.2.3,Win32,59.88023952,9,2,4,,,,,,,,6,07,,,,,,,,,,,,,6,1.441,1,,,,,,-0.117777778,-0.4,1,0,0,1.441,Pegmatite_rect,3,0,3,0,1,
6660cbdd71ffefe5cabe1e91,SCR,2024-06-26_13h35.16.688,LearnStrategy,2023.2.3,Win32,59.88023952,9,2,5,,,,,,,,8,14,,,,,,,,,,,,,8,1.509,1,,,,,,0.373333333,-0.378888889,1,0,0,1.5091,Pumice_rect,4,0,4,0,1,
6660cbdd71ffefe5cabe1e91,SCR,2024-06-26_13h35.16.688,LearnStrategy,2023.2.3,Win32,59.88023952,9,2,6,,,,,,,,2,06,,,,,,,,,,,,,1,1.534,0,,,,,,-0.316666667,-0.246666667,1,0,0,1.5345,Andesite_rect,5,0,5,0,1,
6660cbdd71ffefe5cabe1e91,SCR,2024-06-26_13h35.16.688,LearnStrategy,2023.2.3,Win32,59.88023952,9,2,7,,,,,,,,7,16,,,,,,,,,,,,,3,1.21,0,,,,,,0.076666667,-0.27,1,0,0,1.21,Diorite_rect,6,0,6,0,1,
6660cbdd71ffefe5cabe1e91,SCR,2024-06-26_13h35.16.688,LearnStrategy,2023.2.3,Win32,59.88023952,9,2,8,,,,,,,,8,13,,,,,,,,,,,,,8,1.787,1,,,,,,0.376666667,-0.392222222,1,0,0,1.7871,Pumice_rect,7,0,7,0,1,
6660cbdd71ffefe5cabe1e91,SCR,2024-06-26_13h35.16.688,LearnStrategy,2023.2.3,Win32,59.88023952,9,2,9,,,,,,,,6,15,,,,,,,,,,,,,6,2.292,1,,,,,,-0.104444444,-0.405555556,1,0,0,2.2917,Pegmatite_rect,8,0,8,0,1,
6660cbdd71ffefe5cabe1e91,SCR,2024-06-26_13h35.16.688,LearnStrategy,2023.2.3,Win32,59.88023952,9,2,10,,,,,,,,4,05,,,,,,,,,,,,,3,1.852,0,,,,,,0.136666667,-0.231111111,1,0,0,1.8522,Diorite_rect,9,0,9,0,1,
6660cbdd71ffefe5cabe1e91,SCR,2024-06-26_13h35.16.688,LearnStrategy,2023.2.3,Win32,59.88023952,9,2,11,,,,,,,,5,10,,,,,,,,,,,,,5,1.569,1,,,,,,-0.397777778,-0.393333333,1,0,0,1.5692,Obsidian_rect,10,0,10,0,1,
6660cbdd71ffefe5cabe1e91,SCR,2024-06-26_13h35.16.688,LearnStrategy,2023.2.3,Win32,59.88023952,9,2,12,,,,,,,,5,16,,,,,,,,,,,,,5,0.631,1,,,,,,-0.397777778,-0.393333333,1,0,0,0.6311,Obsidian_rect,11,0,11,0,1,
6660cbdd71ffefe5cabe1e91,SCR,2024-06-26_13h35.16.688,LearnStrategy,2023.2.3,Win32,59.88023952,9,2,13,,,,,,,,3,14,,,,,,,,,,,,,3,1.426,1,,,,,,0.096666667,-0.235555556,1,0,0,1.4259,Diorite_rect,12,0,12,0,1,
6660cbdd71ffefe5cabe1e91,SCR,2024-06-26_13h35.16.688,LearnStrategy,2023.2.3,Win32,59.88023952,9,2,14,,,,,,,,4,11,,,,,,,,,,,,,1,1.668,0,,,,,,-0.384444444,-0.228888889,1,0,0,1.668,Andesite_rect,13,0,13,0,1,
6660cbdd71ffefe5cabe1e91,SCR,2024-06-26_13h35.16.688,LearnStrategy,2023.2.3,Win32,59.88023952,9,2,15,,,,,,,,1,16,,,,,,,,,,,,,6,1.504,0,,,,,,-0.08,-0.405555556,1,0,0,1.5044,Pegmatite_rect,14,0,14,0,1,
6660cbdd71ffefe5cabe1e91,SCR,2024-06-26_13h35.16.688,LearnStrategy,2023.2.3,Win32,59.88023952,9,2,16,,,,,,,,3,07,,,,,,,,,,,,,3,1.709,1,,,,,,0.136666667,-0.245555556,1,0,0,1.7093,Diorite_rect,15,0,15,0,1,
6660cbdd71ffefe5cabe1e91,SCR,2024-06-26_13h35.16.688,LearnStrategy,2023.2.3,Win32,59.88023952,,,,,,,,,,,,,,,,,,,,,,,,,,,,,,,,,,,,,,,,,,,,,0
6660cbdd71ffefe5cabe1e91,SCR,2024-06-26_13h35.16.688,LearnStrategy,2023.2.3,Win32,59.88023952,,,,,,,,,,,,,,,,,,,,,,,,,,,,,,,,,,,,,,,,,,,,,
6660cbdd71ffefe5cabe1e91,SCR,2024-06-26_13h35.16.688,LearnStrategy,2023.2.3,Win32,59.88023952,,,,,,,,,,,7,13,1,1,,,,,,,,,,,,,,,,,,,,,,,,,,,,,,,
6660cbdd71ffefe5cabe1e91,SCR,2024-06-26_13h35.16.688,LearnStrategy,2023.2.3,Win32,59.88023952,,,,,,,,,,,7,15,1,2,,,,,,,,,,,,,,,,,,,,,,,,,,,,,,,
6660cbdd71ffefe5cabe1e91,SCR,2024-06-26_13h35.16.688,LearnStrategy,2023.2.3,Win32,59.88023952,,,,,,,,,,,4,10,1,3,,,,,,,,,,,,,,,,,,,,,,,,,,,,,,,
6660cbdd71ffefe5cabe1e91,SCR,2024-06-26_13h35.16.688,LearnStrategy,2023.2.3,Win32,59.88023952,,,,,,,,,,,5,06,1,4,,,,,,,,,,,,,,,,,,,,,,,,,,,,,,,
6660cbdd71ffefe5cabe1e91,SCR,2024-06-26_13h35.16.688,LearnStrategy,2023.2.3,Win32,59.88023952,,,,,,,,,,,1,03,1,5,,,,,,,,,,,,,,,,,,,,,,,,,,,,,,,
6660cbdd71ffefe5cabe1e91,SCR,2024-06-26_13h35.16.688,LearnStrategy,2023.2.3,Win32,59.88023952,,,,,,,,,,,6,03,1,6,,,,,,,,,,,,,,,,,,,,,,,,,,,,,,,
6660cbdd71ffefe5cabe1e91,SCR,2024-06-26_13h35.16.688,LearnStrategy,2023.2.3,Win32,59.88023952,,,,,,,,,,,7,12,1,7,,,,,,,,,,,,,,,,,,,,,,,,,,,,,,,
6660cbdd71ffefe5cabe1e91,SCR,2024-06-26_13h35.16.688,LearnStrategy,2023.2.3,Win32,59.88023952,,,,,,,,,,,6,10,1,8,,,,,,,,,,,,,,,,,,,,,,,,,,,,,,,
6660cbdd71ffefe5cabe1e91,SCR,2024-06-26_13h35.16.688,LearnStrategy,2023.2.3,Win32,59.88023952,,,,,,,,,,,2,10,2,1,,,,,,,,,,,,,,,,,,,,,,,,,,,,,,,
6660cbdd71ffefe5cabe1e91,SCR,2024-06-26_13h35.16.688,LearnStrategy,2023.2.3,Win32,59.88023952,,,,,,,,,,,4,08,2,2,,,,,,,,,,,,,,,,,,,,,,,,,,,,,,,
6660cbdd71ffefe5cabe1e91,SCR,2024-06-26_13h35.16.688,LearnStrategy,2023.2.3,Win32,59.88023952,,,,,,,,,,,3,06,2,3,,,,,,,,,,,,,,,,,,,,,,,,,,,,,,,
6660cbdd71ffefe5cabe1e91,SCR,2024-06-26_13h35.16.688,LearnStrategy,2023.2.3,Win32,59.88023952,,,,,,,,,,,5,08,2,4,,,,,,,,,,,,,,,,,,,,,,,,,,,,,,,
6660cbdd71ffefe5cabe1e91,SCR,2024-06-26_13h35.16.688,LearnStrategy,2023.2.3,Win32,59.88023952,,,,,,,,,,,1,02,2,5,,,,,,,,,,,,,,,,,,,,,,,,,,,,,,,
6660cbdd71ffefe5cabe1e91,SCR,2024-06-26_13h35.16.688,LearnStrategy,2023.2.3,Win32,59.88023952,,,,,,,,,,,3,08,2,6,,,,,,,,,,,,,,,,,,,,,,,,,,,,,,,
6660cbdd71ffefe5cabe1e91,SCR,2024-06-26_13h35.16.688,LearnStrategy,2023.2.3,Win32,59.88023952,,,,,,,,,,,3,09,2,7,,,,,,,,,,,,,,,,,,,,,,,,,,,,,,,
6660cbdd71ffefe5cabe1e91,SCR,2024-06-26_13h35.16.688,LearnStrategy,2023.2.3,Win32,59.88023952,,,,,,,,,,,2,16,2,8,,,,,,,,,,,,,,,,,,,,,,,,,,,,,,,
6660cbdd71ffefe5cabe1e91,SCR,2024-06-26_13h35.16.688,LearnStrategy,2023.2.3,Win32,59.88023952,,,,,,,,,,,2,05,3,1,,,,,,,,,,,,,,,,,,,,,,,,,,,,,,,
6660cbdd71ffefe5cabe1e91,SCR,2024-06-26_13h35.16.688,LearnStrategy,2023.2.3,Win32,59.88023952,,,,,,,,,,,5,09,3,2,,,,,,,,,,,,,,,,,,,,,,,,,,,,,,,
6660cbdd71ffefe5cabe1e91,SCR,2024-06-26_13h35.16.688,LearnStrategy,2023.2.3,Win32,59.88023952,,,,,,,,,,,8,10,3,3,,,,,,,,,,,,,,,,,,,,,,,,,,,,,,,
6660cbdd71ffefe5cabe1e91,SCR,2024-06-26_13h35.16.688,LearnStrategy,2023.2.3,Win32,59.88023952,,,,,,,,,,,5,12,3,4,,,,,,,,,,,,,,,,,,,,,,,,,,,,,,,
6660cbdd71ffefe5cabe1e91,SCR,2024-06-26_13h35.16.688,LearnStrategy,2023.2.3,Win32,59.88023952,,,,,,,,,,,7,02,3,5,,,,,,,,,,,,,,,,,,,,,,,,,,,,,,,
6660cbdd71ffefe5cabe1e91,SCR,2024-06-26_13h35.16.688,LearnStrategy,2023.2.3,Win32,59.88023952,,,,,,,,,,,1,04,3,6,,,,,,,,,,,,,,,,,,,,,,,,,,,,,,,
6660cbdd71ffefe5cabe1e91,SCR,2024-06-26_13h35.16.688,LearnStrategy,2023.2.3,Win32,59.88023952,,,,,,,,,,,5,02,3,7,,,,,,,,,,,,,,,,,,,,,,,,,,,,,,,
6660cbdd71ffefe5cabe1e91,SCR,2024-06-26_13h35.16.688,LearnStrategy,2023.2.3,Win32,59.88023952,,,,,,,,,,,5,11,3,8,,,,,,,,,,,,,,,,,,,,,,,,,,,,,,,
6660cbdd71ffefe5cabe1e91,SCR,2024-06-26_13h35.16.688,LearnStrategy,2023.2.3,Win32,59.88023952,,,,,,,,,,,2,08,4,1,,,,,,,,,,,,,,,,,,,,,,,,,,,,,,,
6660cbdd71ffefe5cabe1e91,SCR,2024-06-26_13h35.16.688,LearnStrategy,2023.2.3,Win32,59.88023952,,,,,,,,,,,8,03,4,2,,,,,,,,,,,,,,,,,,,,,,,,,,,,,,,
6660cbdd71ffefe5cabe1e91,SCR,2024-06-26_13h35.16.688,LearnStrategy,2023.2.3,Win32,59.88023952,,,,,,,,,,,2,04,4,3,,,,,,,,,,,,,,,,,,,,,,,,,,,,,,,
6660cbdd71ffefe5cabe1e91,SCR,2024-06-26_13h35.16.688,LearnStrategy,2023.2.3,Win32,59.88023952,,,,,,,,,,,1,10,4,4,,,,,,,,,,,,,,,,,,,,,,,,,,,,,,,
6660cbdd71ffefe5cabe1e91,SCR,2024-06-26_13h35.16.688,LearnStrategy,2023.2.3,Win32,59.88023952,,,,,,,,,,,7,07,4,5,,,,,,,,,,,,,,,,,,,,,,,,,,,,,,,
6660cbdd71ffefe5cabe1e91,SCR,2024-06-26_13h35.16.688,LearnStrategy,2023.2.3,Win32,59.88023952,,,,,,,,,,,8,02,4,6,,,,,,,,,,,,,,,,,,,,,,,,,,,,,,,
6660cbdd71ffefe5cabe1e91,SCR,2024-06-26_13h35.16.688,LearnStrategy,2023.2.3,Win32,59.88023952,,,,,,,,,,,6,12,4,7,,,,,,,,,,,,,,,,,,,,,,,,,,,,,,,
6660cbdd71ffefe5cabe1e91,SCR,2024-06-26_13h35.16.688,LearnStrategy,2023.2.3,Win32,59.88023952,,,,,,,,,,,4,12,4,8,,,,,,,,,,,,,,,,,,,,,,,,,,,,,,,
6660cbdd71ffefe5cabe1e91,SCR,2024-06-26_13h35.16.688,LearnStrategy,2023.2.3,Win32,59.88023952,,,,,,,,,,,1,05,5,1,,,,,,,,,,,,,,,,,,,,,,,,,,,,,,,
6660cbdd71ffefe5cabe1e91,SCR,2024-06-26_13h35.16.688,LearnStrategy,2023.2.3,Win32,59.88023952,,,,,,,,,,,3,13,5,2,,,,,,,,,,,,,,,,,,,,,,,,,,,,,,,
6660cbdd71ffefe5cabe1e91,SCR,2024-06-26_13h35.16.688,LearnStrategy,2023.2.3,Win32,59.88023952,,,,,,,,,,,1,14,5,3,,,,,,,,,,,,,,,,,,,,,,,,,,,,,,,
6660cbdd71ffefe5cabe1e91,SCR,2024-06-26_13h35.16.688,LearnStrategy,2023.2.3,Win32,59.88023952,,,,,,,,,,,6,05,5,4,,,,,,,,,,,,,,,,,,,,,,,,,,,,,,,
6660cbdd71ffefe5cabe1e91,SCR,2024-06-26_13h35.16.688,LearnStrategy,2023.2.3,Win32,59.88023952,,,,,,,,,,,8,05,5,5,,,,,,,,,,,,,,,,,,,,,,,,,,,,,,,
6660cbdd71ffefe5cabe1e91,SCR,2024-06-26_13h35.16.688,LearnStrategy,2023.2.3,Win32,59.88023952,,,,,,,,,,,6,11,5,6,,,,,,,,,,,,,,,,,,,,,,,,,,,,,,,
6660cbdd71ffefe5cabe1e91,SCR,2024-06-26_13h35.16.688,LearnStrategy,2023.2.3,Win32,59.88023952,,,,,,,,,,,8,08,5,7,,,,,,,,,,,,,,,,,,,,,,,,,,,,,,,
6660cbdd71ffefe5cabe1e91,SCR,2024-06-26_13h35.16.688,LearnStrategy,2023.2.3,Win32,59.88023952,,,,,,,,,,,6,08,5,8,,,,,,,,,,,,,,,,,,,,,,,,,,,,,,,
6660cbdd71ffefe5cabe1e91,SCR,2024-06-26_13h35.16.688,LearnStrategy,2023.2.3,Win32,59.88023952,,,,,,,,,,,4,01,6,1,,,,,,,,,,,,,,,,,,,,,,,,,,,,,,,
6660cbdd71ffefe5cabe1e91,SCR,2024-06-26_13h35.16.688,LearnStrategy,2023.2.3,Win32,59.88023952,,,,,,,,,,,4,15,6,2,,,,,,,,,,,,,,,,,,,,,,,,,,,,,,,
6660cbdd71ffefe5cabe1e91,SCR,2024-06-26_13h35.16.688,LearnStrategy,2023.2.3,Win32,59.88023952,,,,,,,,,,,7,08,6,3,,,,,,,,,,,,,,,,,,,,,,,,,,,,,,,
6660cbdd71ffefe5cabe1e91,SCR,2024-06-26_13h35.16.688,LearnStrategy,2023.2.3,Win32,59.88023952,,,,,,,,,,,2,09,6,4,,,,,,,,,,,,,,,,,,,,,,,,,,,,,,,
6660cbdd71ffefe5cabe1e91,SCR,2024-06-26_13h35.16.688,LearnStrategy,2023.2.3,Win32,59.88023952,,,,,,,,,,,4,13,6,5,,,,,,,,,,,,,,,,,,,,,,,,,,,,,,,
6660cbdd71ffefe5cabe1e91,SCR,2024-06-26_13h35.16.688,LearnStrategy,2023.2.3,Win32,59.88023952,,,,,,,,,,,8,06,6,6,,,,,,,,,,,,,,,,,,,,,,,,,,,,,,,
6660cbdd71ffefe5cabe1e91,SCR,2024-06-26_13h35.16.688,LearnStrategy,2023.2.3,Win32,59.88023952,,,,,,,,,,,3,11,6,7,,,,,,,,,,,,,,,,,,,,,,,,,,,,,,,
6660cbdd71ffefe5cabe1e91,SCR,2024-06-26_13h35.16.688,LearnStrategy,2023.2.3,Win32,59.88023952,,,,,,,,,,,3,10,6,8,,,,,,,,,,,,,,,,,,,,,,,,,,,,,,,