participant,condition,date,expName,psychopyVersion,OS,frameRate,block,phase,trial,learn_mouse_2.x,learn_mouse_2.y,learn_mouse_2.leftButton,learn_mouse_2.midButton,learn_mouse_2.rightButton,learn_mouse_2.time,learn_mouse_2.clicked_name,cat,token,row,col,t_select,cat_mouse_l.x,cat_mouse_l.y,cat_mouse_l.leftButton,cat_mouse_l.midButton,cat_mouse_l.rightButton,cat_mouse_l.time,cat_mouse_l.clicked_name,resp,t_resp,corr,train_trials.thisRepN,train_trials.thisTrialN,train_trials.thisN,train_trials.thisIndex,train_trials.ran,cat_mouse_t.x,cat_mouse_t.y,cat_mouse_t.leftButton,cat_mouse_t.midButton,cat_mouse_t.rightButton,cat_mouse_t.time,cat_mouse_t.clicked_name,test_trials.thisRepN,test_trials.thisTrialN,test_trials.thisN,test_trials.thisIndex,test_trials.ran,Bonus
6660d6f7933410d8b82aca2c,TCR,2024-06-25_14h22.44.457,LearnStrategy,2023.2.3,Win32,59.17159763,,,,,,,,,,,,,,,,,,,,,,,,,,,,,,,,,,,,,,,,,,,
6660d6f7933410d8b82aca2c,TCR,2024-06-25_14h22.44.457,LearnStrategy,2023.2.3,Win32,59.17159763,1,1,1,0.013888889,0,1,0,0,3.6088,rock_grid_rect_2,6,8,-1,-1,3.609,-0.052083333,-0.254166667,1,0,0,14.7808,Basalt_rect,2,14.781,0,0,0,0,0,1,,,,,,,,,,,,,
6660d6f7933410d8b82aca2c,TCR,2024-06-25_14h22.44.457,LearnStrategy,2023.2.3,Win32,59.17159763,1,1,2,0.022222222,-0.010416667,1,0,0,1.9642,rock_grid_rect_2,7,5,-1,-1,1.964,0.177083333,-0.384722222,1,0,0,13.1538,Peridotite_rect,7,13.154,1,1,0,1,0,1,,,,,,,,,,,,,
6660d6f7933410d8b82aca2c,TCR,2024-06-25_14h22.44.457,LearnStrategy,2023.2.3,Win32,59.17159763,1,1,3,0.051388889,-0.004861111,1,0,0,2.4679,rock_grid_rect_2,5,8,-1,-1,2.468,-0.110416667,-0.270138889,1,0,0,7.2173,Basalt_rect,2,7.217,0,2,0,2,0,1,,,,,,,,,,,,,
6660d6f7933410d8b82aca2c,TCR,2024-06-25_14h22.44.457,LearnStrategy,2023.2.3,Win32,59.17159763,1,1,4,0.026388889,-0.01875,1,0,0,1.9789,rock_grid_rect_2,1,2,-1,-1,1.979,0.381944444,-0.234027778,1,0,0,8.5576,Gabbro_rect,4,8.558,0,3,0,3,0,1,,,,,,,,,,,,,
6660d6f7933410d8b82aca2c,TCR,2024-06-25_14h22.44.457,LearnStrategy,2023.2.3,Win32,59.17159763,1,1,5,0.152777778,-0.004166667,1,0,0,2.4708,rock_grid_rect_2,4,11,-1,-1,2.471,0.108333333,-0.240277778,1,0,0,3.5951,Diorite_rect,3,3.595,0,4,0,4,0,1,,,,,,,,,,,,,
6660d6f7933410d8b82aca2c,TCR,2024-06-25_14h22.44.457,LearnStrategy,2023.2.3,Win32,59.17159763,1,1,6,0.077777778,-0.01875,1,0,0,1.8453,rock_grid_rect_2,2,9,-1,-1,1.845,-0.111805556,-0.241666667,1,0,0,10.1052,Basalt_rect,2,10.105,1,5,0,5,0,1,,,,,,,,,,,,,
6660d6f7933410d8b82aca2c,TCR,2024-06-25_14h22.44.457,LearnStrategy,2023.2.3,Win32,59.17159763,1,1,7,0.0375,-0.010416667,1,0,0,1.446,rock_grid_rect_2,7,7,-1,-1,1.446,0.100694444,-0.229166667,1,0,0,7.6674,Diorite_rect,3,7.667,0,6,0,6,0,1,,,,,,,,,,,,,
6660d6f7933410d8b82aca2c,TCR,2024-06-25_14h22.44.457,LearnStrategy,2023.2.3,Win32,59.17159763,1,1,8,0.13125,-0.00625,1,0,0,1.4354,rock_grid_rect_2,3,8,-1,-1,1.435,-0.086805556,-0.385416667,1,0,0,3.6025,Pegmatite_rect,6,3.603,0,7,0,7,0,1,,,,,,,,,,,,,
6660d6f7933410d8b82aca2c,TCR,2024-06-25_14h22.44.457,LearnStrategy,2023.2.3,Win32,59.17159763,1,1,9,0.070138889,-0.004861111,1,0,0,1.488,rock_grid_rect_2,5,11,-1,-1,1.488,-0.370833333,-0.409722222,1,0,0,2.9582,Obsidian_rect,5,2.958,1,8,0,8,0,1,,,,,,,,,,,,,
6660d6f7933410d8b82aca2c,TCR,2024-06-25_14h22.44.457,LearnStrategy,2023.2.3,Win32,59.17159763,1,1,10,0.095833333,-0.009722222,1,0,0,1.2747,rock_grid_rect_2,8,13,-1,-1,1.275,0.425694444,-0.402083333,1,0,0,2.4474,Pumice_rect,8,2.447,1,9,0,9,0,1,,,,,,,,,,,,,
6660d6f7933410d8b82aca2c,TCR,2024-06-25_14h22.44.457,LearnStrategy,2023.2.3,Win32,59.17159763,1,1,11,0.081944444,0.009722222,1,0,0,1.1771,rock_grid_rect_2,4,14,-1,-1,1.177,0.159027778,-0.388888889,1,0,0,8.2808,Peridotite_rect,7,8.281,0,10,0,10,0,1,,,,,,,,,,,,,
6660d6f7933410d8b82aca2c,TCR,2024-06-25_14h22.44.457,LearnStrategy,2023.2.3,Win32,59.17159763,1,1,12,0.046527778,-0.009027778,1,0,0,1.8196,rock_grid_rect_2,2,11,-1,-1,1.82,0.396527778,-0.417361111,1,0,0,1.8262,Pumice_rect,8,1.826,0,11,0,11,0,1,,,,,,,,,,,,,
6660d6f7933410d8b82aca2c,TCR,2024-06-25_14h22.44.457,LearnStrategy,2023.2.3,Win32,59.17159763,1,1,13,0.067361111,-0.007638889,1,0,0,1.8539,rock_grid_rect_2,6,9,-1,-1,1.854,-0.072916667,-0.4125,1,0,0,2.3131,Pegmatite_rect,6,2.313,1,12,0,12,0,1,,,,,,,,,,,,,
6660d6f7933410d8b82aca2c,TCR,2024-06-25_14h22.44.457,LearnStrategy,2023.2.3,Win32,59.17159763,1,1,14,0.075694444,-0.010416667,1,0,0,1.1946,rock_grid_rect_2,3,12,-1,-1,1.195,0.104861111,-0.2375,1,0,0,6.5686,Diorite_rect,3,6.569,1,13,0,13,0,1,,,,,,,,,,,,,
6660d6f7933410d8b82aca2c,TCR,2024-06-25_14h22.44.457,LearnStrategy,2023.2.3,Win32,59.17159763,1,1,15,0.072916667,0.005555556,1,0,0,1.8123,rock_grid_rect_2,1,16,-1,-1,1.812,-0.086805556,-0.389583333,1,0,0,7.322,Pegmatite_rect,6,7.322,0,14,0,14,0,1,,,,,,,,,,,,,
6660d6f7933410d8b82aca2c,TCR,2024-06-25_14h22.44.457,LearnStrategy,2023.2.3,Win32,59.17159763,1,1,16,0.079861111,0.017361111,1,0,0,1.4649,rock_grid_rect_2,8,2,-1,-1,1.465,0.431944444,-0.40625,1,0,0,3.0346,Pumice_rect,8,3.035,1,15,0,15,0,1,,,,,,,,,,,,,
6660d6f7933410d8b82aca2c,TCR,2024-06-25_14h22.44.457,LearnStrategy,2023.2.3,Win32,59.17159763,1,2,1,,,,,,,,2,2,,,,,,,,,,,2,8.606,1,,,,,,-0.081944444,-0.238194444,1,0,0,8.6065,Basalt_rect,0,0,0,0,1,
6660d6f7933410d8b82aca2c,TCR,2024-06-25_14h22.44.457,LearnStrategy,2023.2.3,Win32,59.17159763,1,2,2,,,,,,,,1,10,,,,,,,,,,,7,14.238,0,,,,,,0.181944444,-0.411111111,1,0,0,14.2383,Peridotite_rect,1,0,1,0,1,
6660d6f7933410d8b82aca2c,TCR,2024-06-25_14h22.44.457,LearnStrategy,2023.2.3,Win32,59.17159763,1,2,3,,,,,,,,8,8,,,,,,,,,,,8,3.132,1,,,,,,0.397222222,-0.38125,1,0,0,3.1318,Pumice_rect,2,0,2,0,1,
6660d6f7933410d8b82aca2c,TCR,2024-06-25_14h22.44.457,LearnStrategy,2023.2.3,Win32,59.17159763,1,2,4,,,,,,,,3,6,,,,,,,,,,,3,4.592,1,,,,,,0.160416667,-0.265277778,1,0,0,4.592,Diorite_rect,3,0,3,0,1,
6660d6f7933410d8b82aca2c,TCR,2024-06-25_14h22.44.457,LearnStrategy,2023.2.3,Win32,59.17159763,1,2,5,,,,,,,,5,14,,,,,,,,,,,5,2.014,1,,,,,,-0.350694444,-0.404166667,1,0,0,2.0139,Obsidian_rect,4,0,4,0,1,
6660d6f7933410d8b82aca2c,TCR,2024-06-25_14h22.44.457,LearnStrategy,2023.2.3,Win32,59.17159763,1,2,6,,,,,,,,2,5,,,,,,,,,,,2,4.911,1,,,,,,-0.160416667,-0.261111111,1,0,0,4.9108,Basalt_rect,5,0,5,0,1,
6660d6f7933410d8b82aca2c,TCR,2024-06-25_14h22.44.457,LearnStrategy,2023.2.3,Win32,59.17159763,1,2,7,,,,,,,,6,7,,,,,,,,,,,6,2.48,1,,,,,,-0.114583333,-0.404166667,1,0,0,2.4799,Pegmatite_rect,6,0,6,0,1,
6660d6f7933410d8b82aca2c,TCR,2024-06-25_14h22.44.457,LearnStrategy,2023.2.3,Win32,59.17159763,1,2,8,,,,,,,,6,15,,,,,,,,,,,6,3.37,1,,,,,,-0.114583333,-0.404166667,1,0,0,3.3702,Pegmatite_rect,7,0,7,0,1,
6660d6f7933410d8b82aca2c,TCR,2024-06-25_14h22.44.457,LearnStrategy,2023.2.3,Win32,59.17159763,1,2,9,,,,,,,,1,7,,,,,,,,,,,1,12.541,1,,,,,,-0.333333333,-0.267361111,1,0,0,12.541,Andesite_rect,8,0,8,0,1,
6660d6f7933410d8b82aca2c,TCR,2024-06-25_14h22.44.457,LearnStrategy,2023.2.3,Win32,59.17159763,1,2,10,,,,,,,,4,12,,,,,,,,,,,4,6.217,1,,,,,,0.419444444,-0.259027778,1,0,0,6.2167,Gabbro_rect,9,0,9,0,1,
6660d6f7933410d8b82aca2c,TCR,2024-06-25_14h22.44.457,LearnStrategy,2023.2.3,Win32,59.17159763,1,2,11,,,,,,,,8,5,,,,,,,,,,,8,1.465,1,,,,,,0.393055556,-0.397916667,1,0,0,1.465,Pumice_rect,10,0,10,0,1,
6660d6f7933410d8b82aca2c,TCR,2024-06-25_14h22.44.457,LearnStrategy,2023.2.3,Win32,59.17159763,1,2,12,,,,,,,,7,12,,,,,,,,,,,1,8.703,0,,,,,,-0.384027778,-0.25625,1,0,0,8.7028,Andesite_rect,11,0,11,0,1,
6660d6f7933410d8b82aca2c,TCR,2024-06-25_14h22.44.457,LearnStrategy,2023.2.3,Win32,59.17159763,1,2,13,,,,,,,,3,13,,,,,,,,,,,3,1.689,1,,,,,,0.199305556,-0.236805556,1,0,0,1.6892,Diorite_rect,12,0,12,0,1,
6660d6f7933410d8b82aca2c,TCR,2024-06-25_14h22.44.457,LearnStrategy,2023.2.3,Win32,59.17159763,1,2,14,,,,,,,,4,5,,,,,,,,,,,4,5.545,1,,,,,,0.375694444,-0.254861111,1,0,0,5.545,Gabbro_rect,13,0,13,0,1,
6660d6f7933410d8b82aca2c,TCR,2024-06-25_14h22.44.457,LearnStrategy,2023.2.3,Win32,59.17159763,1,2,15,,,,,,,,7,14,,,,,,,,,,,7,9.116,1,,,,,,0.228472222,-0.418055556,1,0,0,9.1158,Peridotite_rect,14,0,14,0,1,
6660d6f7933410d8b82aca2c,TCR,2024-06-25_14h22.44.457,LearnStrategy,2023.2.3,Win32,59.17159763,1,2,16,,,,,,,,5,4,,,,,,,,,,,5,1.953,1,,,,,,-0.359027778,-0.408333333,1,0,0,1.9526,Obsidian_rect,15,0,15,0,1,
6660d6f7933410d8b82aca2c,TCR,2024-06-25_14h22.44.457,LearnStrategy,2023.2.3,Win32,59.17159763,2,1,1,0.081944444,-0.016666667,1,0,0,1.6416,rock_grid_rect_2,7,13,-1,-1,1.642,0.159722222,-0.386111111,1,0,0,22.2165,Peridotite_rect,7,22.216,1,0,0,0,0,1,,,,,,,,,,,,,
6660d6f7933410d8b82aca2c,TCR,2024-06-25_14h22.44.457,LearnStrategy,2023.2.3,Win32,59.17159763,2,1,2,0.144444444,-0.005555556,1,0,0,3.2635,rock_grid_rect_2,5,12,-1,-1,3.264,-0.368055556,-0.403472222,1,0,0,1.5471,Obsidian_rect,5,1.547,1,1,0,1,0,1,,,,,,,,,,,,,
6660d6f7933410d8b82aca2c,TCR,2024-06-25_14h22.44.457,LearnStrategy,2023.2.3,Win32,59.17159763,2,1,3,0.040972222,-0.007638889,1,0,0,1.9505,rock_grid_rect_2,6,6,-1,-1,1.951,0.194444444,-0.392361111,1,0,0,8.1386,Peridotite_rect,7,8.139,0,2,0,2,0,1,,,,,,,,,,,,,
6660d6f7933410d8b82aca2c,TCR,2024-06-25_14h22.44.457,LearnStrategy,2023.2.3,Win32,59.17159763,2,1,4,0.065972222,-0.0125,1,0,0,1.2671,rock_grid_rect_2,7,6,-1,-1,1.267,-0.09375,-0.395138889,1,0,0,4.858,Pegmatite_rect,6,4.858,0,3,0,3,0,1,,,,,,,,,,,,,
6660d6f7933410d8b82aca2c,TCR,2024-06-25_14h22.44.457,LearnStrategy,2023.2.3,Win32,59.17159763,2,1,5,0.061805556,-0.014583333,1,0,0,1.4032,rock_grid_rect_2,6,12,-1,-1,1.403,-0.111111111,-0.391666667,1,0,0,7.074,Pegmatite_rect,6,7.074,1,4,0,4,0,1,,,,,,,,,,,,,
6660d6f7933410d8b82aca2c,TCR,2024-06-25_14h22.44.457,LearnStrategy,2023.2.3,Win32,59.17159763,2,1,6,0.016666667,-0.016666667,1,0,0,1.5812,rock_grid_rect_2,1,9,-1,-1,1.581,-0.356944444,-0.241666667,1,0,0,8.4035,Andesite_rect,1,8.404,1,5,0,5,0,1,,,,,,,,,,,,,
6660d6f7933410d8b82aca2c,TCR,2024-06-25_14h22.44.457,LearnStrategy,2023.2.3,Win32,59.17159763,2,1,7,-0.010416667,-0.020138889,1,0,0,1.2209,rock_grid_rect_2,2,8,-1,-1,1.221,-0.095833333,-0.230555556,1,0,0,1.962,Basalt_rect,2,1.962,1,6,0,6,0,1,,,,,,,,,,,,,
6660d6f7933410d8b82aca2c,TCR,2024-06-25_14h22.44.457,LearnStrategy,2023.2.3,Win32,59.17159763,2,1,8,0.020138889,-0.015972222,1,0,0,1.1135,rock_grid_rect_2,3,9,-1,-1,1.114,0.113194444,-0.245833333,1,0,0,2.19,Diorite_rect,3,2.19,1,7,0,7,0,1,,,,,,,,,,,,,
6660d6f7933410d8b82aca2c,TCR,2024-06-25_14h22.44.457,LearnStrategy,2023.2.3,Win32,59.17159763,2,1,9,0.063194444,-0.007638889,1,0,0,1.0744,rock_grid_rect_2,4,13,-1,-1,1.074,0.382638889,-0.238194444,1,0,0,4.4583,Gabbro_rect,4,4.458,1,8,0,8,0,1,,,,,,,,,,,,,
6660d6f7933410d8b82aca2c,TCR,2024-06-25_14h22.44.457,LearnStrategy,2023.2.3,Win32,59.17159763,2,1,10,0.040972222,-0.015972222,1,0,0,1.1321,rock_grid_rect_2,4,8,-1,-1,1.132,0.417361111,-0.261805556,1,0,0,9.2697,Gabbro_rect,4,9.27,1,9,0,9,0,1,,,,,,,,,,,,,
6660d6f7933410d8b82aca2c,TCR,2024-06-25_14h22.44.457,LearnStrategy,2023.2.3,Win32,59.17159763,2,1,11,0.029861111,-0.011805556,1,0,0,1.1296,rock_grid_rect_2,3,14,-1,-1,1.13,0.14375,-0.229166667,1,0,0,1.2625,Diorite_rect,3,1.263,1,10,0,10,0,1,,,,,,,,,,,,,
6660d6f7933410d8b82aca2c,TCR,2024-06-25_14h22.44.457,LearnStrategy,2023.2.3,Win32,59.17159763,2,1,12,0.071527778,0.00625,1,0,0,1.0598,rock_grid_rect_2,8,16,-1,-1,1.06,0.370138889,-0.402083333,1,0,0,2.2275,Pumice_rect,8,2.227,1,11,0,11,0,1,,,,,,,,,,,,,
6660d6f7933410d8b82aca2c,TCR,2024-06-25_14h22.44.457,LearnStrategy,2023.2.3,Win32,59.17159763,2,1,13,0.057638889,-0.013194444,1,0,0,0.9428,rock_grid_rect_2,5,10,-1,-1,0.943,-0.409722222,-0.382638889,1,0,0,1.5764,Obsidian_rect,5,1.576,1,12,0,12,0,1,,,,,,,,,,,,,
6660d6f7933410d8b82aca2c,TCR,2024-06-25_14h22.44.457,LearnStrategy,2023.2.3,Win32,59.17159763,2,1,14,0.004166667,-0.013194444,1,0,0,0.934,rock_grid_rect_2,1,4,-1,-1,0.934,-0.411805556,-0.247916667,1,0,0,7.6633,Andesite_rect,1,7.663,1,13,0,13,0,1,,,,,,,,,,,,,
6660d6f7933410d8b82aca2c,TCR,2024-06-25_14h22.44.457,LearnStrategy,2023.2.3,Win32,59.17159763,2,1,15,0.078472222,0.016666667,1,0,0,0.9235,rock_grid_rect_2,2,4,-1,-1,0.923,-0.121527778,-0.267361111,1,0,0,1.8907,Basalt_rect,2,1.891,1,14,0,14,0,1,,,,,,,,,,,,,
6660d6f7933410d8b82aca2c,TCR,2024-06-25_14h22.44.457,LearnStrategy,2023.2.3,Win32,59.17159763,2,1,16,0.025694444,0.013194444,1,0,0,1.0867,rock_grid_rect_2,8,6,-1,-1,1.087,0.372222222,-0.384027778,1,0,0,1.6031,Pumice_rect,8,1.603,1,15,0,15,0,1,,,,,,,,,,,,,
6660d6f7933410d8b82aca2c,TCR,2024-06-25_14h22.44.457,LearnStrategy,2023.2.3,Win32,59.17159763,2,2,1,,,,,,,,6,10,,,,,,,,,,,6,3.769,1,,,,,,-0.10625,-0.402083333,1,0,0,3.7692,Pegmatite_rect,0,0,0,0,1,
6660d6f7933410d8b82aca2c,TCR,2024-06-25_14h22.44.457,LearnStrategy,2023.2.3,Win32,59.17159763,2,2,2,,,,,,,,1,1,,,,,,,,,,,4,5.414,0,,,,,,0.350694444,-0.240972222,1,0,0,5.4142,Gabbro_rect,1,0,1,0,1,
6660d6f7933410d8b82aca2c,TCR,2024-06-25_14h22.44.457,LearnStrategy,2023.2.3,Win32,59.17159763,2,2,3,,,,,,,,2,6,,,,,,,,,,,2,1.36,1,,,,,,-0.075,-0.243055556,1,0,0,1.3595,Basalt_rect,2,0,2,0,1,
6660d6f7933410d8b82aca2c,TCR,2024-06-25_14h22.44.457,LearnStrategy,2023.2.3,Win32,59.17159763,2,2,4,,,,,,,,2,16,,,,,,,,,,,4,5.14,0,,,,,,0.372916667,-0.252083333,1,0,0,5.1399,Gabbro_rect,3,0,3,0,1,
6660d6f7933410d8b82aca2c,TCR,2024-06-25_14h22.44.457,LearnStrategy,2023.2.3,Win32,59.17159763,2,2,5,,,,,,,,1,6,,,,,,,,,,,1,3.947,1,,,,,,-0.371527778,-0.247916667,1,0,0,3.9474,Andesite_rect,4,0,4,0,1,
6660d6f7933410d8b82aca2c,TCR,2024-06-25_14h22.44.457,LearnStrategy,2023.2.3,Win32,59.17159763,2,2,6,,,,,,,,8,10,,,,,,,,,,,8,1.15,1,,,,,,0.45625,-0.420833333,1,0,0,1.1504,Pumice_rect,5,0,5,0,1,
6660d6f7933410d8b82aca2c,TCR,2024-06-25_14h22.44.457,LearnStrategy,2023.2.3,Win32,59.17159763,2,2,7,,,,,,,,8,15,,,,,,,,,,,8,0.999,1,,,,,,0.45,-0.414583333,1,0,0,0.9985,Pumice_rect,6,0,6,0,1,
6660d6f7933410d8b82aca2c,TCR,2024-06-25_14h22.44.457,LearnStrategy,2023.2.3,Win32,59.17159763,2,2,8,,,,,,,,7,10,,,,,,,,,,,7,5.164,1,,,,,,0.098611111,-0.410416667,1,0,0,5.1645,Peridotite_rect,7,0,7,0,1,
6660d6f7933410d8b82aca2c,TCR,2024-06-25_14h22.44.457,LearnStrategy,2023.2.3,Win32,59.17159763,2,2,9,,,,,,,,6,13,,,,,,,,,,,6,1.281,1,,,,,,-0.120138889,-0.399305556,1,0,0,1.2811,Pegmatite_rect,8,0,8,0,1,
6660d6f7933410d8b82aca2c,TCR,2024-06-25_14h22.44.457,LearnStrategy,2023.2.3,Win32,59.17159763,2,2,10,,,,,,,,5,6,,,,,,,,,,,5,2.691,1,,,,,,-0.345833333,-0.394444444,1,0,0,2.6907,Obsidian_rect,9,0,9,0,1,
6660d6f7933410d8b82aca2c,TCR,2024-06-25_14h22.44.457,LearnStrategy,2023.2.3,Win32,59.17159763,2,2,11,,,,,,,,4,10,,,,,,,,,,,4,6.524,1,,,,,,0.455555556,-0.271527778,1,0,0,6.524,Gabbro_rect,10,0,10,0,1,
6660d6f7933410d8b82aca2c,TCR,2024-06-25_14h22.44.457,LearnStrategy,2023.2.3,Win32,59.17159763,2,2,12,,,,,,,,5,9,,,,,,,,,,,5,1.23,1,,,,,,-0.333333333,-0.390972222,1,0,0,1.2303,Obsidian_rect,11,0,11,0,1,
6660d6f7933410d8b82aca2c,TCR,2024-06-25_14h22.44.457,LearnStrategy,2023.2.3,Win32,59.17159763,2,2,13,,,,,,,,3,7,,,,,,,,,,,3,1.853,1,,,,,,0.108333333,-0.244444444,1,0,0,1.8535,Diorite_rect,12,0,12,0,1,
6660d6f7933410d8b82aca2c,TCR,2024-06-25_14h22.44.457,LearnStrategy,2023.2.3,Win32,59.17159763,2,2,14,,,,,,,,7,15,,,,,,,,,,,7,4.067,1,,,,,,0.123611111,-0.405555556,1,0,0,4.0666,Peridotite_rect,13,0,13,0,1,
6660d6f7933410d8b82aca2c,TCR,2024-06-25_14h22.44.457,LearnStrategy,2023.2.3,Win32,59.17159763,2,2,15,,,,,,,,4,16,,,,,,,,,,,4,5.792,1,,,,,,0.372222222,-0.243055556,1,0,0,5.7924,Gabbro_rect,14,0,14,0,1,
6660d6f7933410d8b82aca2c,TCR,2024-06-25_14h22.44.457,LearnStrategy,2023.2.3,Win32,59.17159763,2,2,16,,,,,,,,3,11,,,,,,,,,,,3,2.984,1,,,,,,0.136805556,-0.256944444,1,0,0,2.9837,Diorite_rect,15,0,15,0,1,
6660d6f7933410d8b82aca2c,TCR,2024-06-25_14h22.44.457,LearnStrategy,2023.2.3,Win32,59.17159763,3,1,1,0.054166667,-0.013888889,1,0,0,1.7395,rock_grid_rect_2,2,14,-1,-1,1.74,0.394444444,-0.415972222,1,0,0,1.8375,Pumice_rect,8,1.837,0,0,0,0,0,1,,,,,,,,,,,,,
6660d6f7933410d8b82aca2c,TCR,2024-06-25_14h22.44.457,LearnStrategy,2023.2.3,Win32,59.17159763,3,1,2,0.077777778,0.007638889,1,0,0,1.0145,rock_grid_rect_2,4,1,-1,-1,1.014,0.135416667,-0.240277778,1,0,0,3.9875,Diorite_rect,3,3.988,0,1,0,1,0,1,,,,,,,,,,,,,
6660d6f7933410d8b82aca2c,TCR,2024-06-25_14h22.44.457,LearnStrategy,2023.2.3,Win32,59.17159763,3,1,3,0.125,-0.000694444,1,0,0,1.14,rock_grid_rect_2,3,16,-1,-1,1.14,0.136111111,-0.266666667,1,0,0,5.7032,Diorite_rect,3,5.703,1,2,0,2,0,1,,,,,,,,,,,,,
6660d6f7933410d8b82aca2c,TCR,2024-06-25_14h22.44.457,LearnStrategy,2023.2.3,Win32,59.17159763,3,1,4,0.095138889,0.011111111,1,0,0,0.8882,rock_grid_rect_2,6,5,-1,-1,0.888,-0.09375,-0.390972222,1,0,0,2.612,Pegmatite_rect,6,2.612,1,3,0,3,0,1,,,,,,,,,,,,,
6660d6f7933410d8b82aca2c,TCR,2024-06-25_14h22.44.457,LearnStrategy,2023.2.3,Win32,59.17159763,3,1,5,0.094444444,0.002777778,1,0,0,1.0707,rock_grid_rect_2,2,10,-1,-1,1.071,-0.105555556,-0.232638889,1,0,0,1.7893,Basalt_rect,2,1.789,1,4,0,4,0,1,,,,,,,,,,,,,
6660d6f7933410d8b82aca2c,TCR,2024-06-25_14h22.44.457,LearnStrategy,2023.2.3,Win32,59.17159763,3,1,6,0.029861111,0,1,0,0,1.1052,rock_grid_rect_2,5,5,-1,-1,1.105,-0.396527778,-0.403472222,1,0,0,1.7197,Obsidian_rect,5,1.72,1,5,0,5,0,1,,,,,,,,,,,,,
6660d6f7933410d8b82aca2c,TCR,2024-06-25_14h22.44.457,LearnStrategy,2023.2.3,Win32,59.17159763,3,1,7,0.048611111,0.002777778,1,0,0,1.2057,rock_grid_rect_2,1,14,-1,-1,1.206,-0.11875,-0.413194444,1,0,0,5.4024,Pegmatite_rect,6,5.402,0,6,0,6,0,1,,,,,,,,,,,,,
6660d6f7933410d8b82aca2c,TCR,2024-06-25_14h22.44.457,LearnStrategy,2023.2.3,Win32,59.17159763,3,1,8,0.089583333,0.018055556,1,0,0,1.1876,rock_grid_rect_2,1,5,-1,-1,1.188,-0.117361111,-0.400694444,1,0,0,4.5254,Pegmatite_rect,6,4.525,0,7,0,7,0,1,,,,,,,,,,,,,
6660d6f7933410d8b82aca2c,TCR,2024-06-25_14h22.44.457,LearnStrategy,2023.2.3,Win32,59.17159763,3,1,9,0.097222222,-0.000694444,1,0,0,0.9613,rock_grid_rect_2,4,3,-1,-1,0.961,0.317361111,-0.256944444,1,0,0,6.7772,Gabbro_rect,4,6.777,1,8,0,8,0,1,,,,,,,,,,,,,
6660d6f7933410d8b82aca2c,TCR,2024-06-25_14h22.44.457,LearnStrategy,2023.2.3,Win32,59.17159763,3,1,10,0.061111111,-0.004166667,1,0,0,4.8909,rock_grid_rect_2,6,3,-1,-1,4.891,-0.099305556,-0.4125,1,0,0,2.8705,Pegmatite_rect,6,2.87,1,9,0,9,0,1,,,,,,,,,,,,,
6660d6f7933410d8b82aca2c,TCR,2024-06-25_14h22.44.457,LearnStrategy,2023.2.3,Win32,59.17159763,3,1,11,0.104166667,-0.001388889,1,0,0,1.3786,rock_grid_rect_2,7,4,-1,-1,1.379,0.173611111,-0.407638889,1,0,0,3.8784,Peridotite_rect,7,3.878,1,10,0,10,0,1,,,,,,,,,,,,,
6660d6f7933410d8b82aca2c,TCR,2024-06-25_14h22.44.457,LearnStrategy,2023.2.3,Win32,59.17159763,3,1,12,0.08125,-0.013194444,1,0,0,2.0562,rock_grid_rect_2,8,14,-1,-1,2.056,0.372916667,-0.389583333,1,0,0,1.3236,Pumice_rect,8,1.324,1,11,0,11,0,1,,,,,,,,,,,,,
6660d6f7933410d8b82aca2c,TCR,2024-06-25_14h22.44.457,LearnStrategy,2023.2.3,Win32,59.17159763,3,1,13,0.078472222,-0.004861111,1,0,0,1.6288,rock_grid_rect_2,5,2,-1,-1,1.629,-0.313888889,-0.396527778,1,0,0,1.5153,Obsidian_rect,5,1.515,1,12,0,12,0,1,,,,,,,,,,,,,
6660d6f7933410d8b82aca2c,TCR,2024-06-25_14h22.44.457,LearnStrategy,2023.2.3,Win32,59.17159763,3,1,14,-0.0125,-0.004166667,1,0,0,1.3473,rock_grid_rect_2,8,3,-1,-1,1.347,0.4375,-0.420833333,1,0,0,3.0351,Pumice_rect,8,3.035,1,13,0,13,0,1,,,,,,,,,,,,,
6660d6f7933410d8b82aca2c,TCR,2024-06-25_14h22.44.457,LearnStrategy,2023.2.3,Win32,59.17159763,3,1,15,0.060416667,-0.014583333,1,0,0,1.9181,rock_grid_rect_2,7,8,-1,-1,1.918,-0.109722222,-0.398611111,1,0,0,3.1387,Pegmatite_rect,6,3.139,0,14,0,14,0,1,,,,,,,,,,,,,
6660d6f7933410d8b82aca2c,TCR,2024-06-25_14h22.44.457,LearnStrategy,2023.2.3,Win32,59.17159763,3,1,16,0.130555556,-0.011805556,1,0,0,7.2514,rock_grid_rect_2,3,15,-1,-1,7.251,-0.379861111,-0.252083333,1,0,0,4.1594,Andesite_rect,1,4.159,0,15,0,15,0,1,,,,,,,,,,,,,
6660d6f7933410d8b82aca2c,TCR,2024-06-25_14h22.44.457,LearnStrategy,2023.2.3,Win32,59.17159763,3,2,1,,,,,,,,5,16,,,,,,,,,,,5,2.291,1,,,,,,-0.347222222,-0.404166667,1,0,0,2.2906,Obsidian_rect,0,0,0,0,1,
6660d6f7933410d8b82aca2c,TCR,2024-06-25_14h22.44.457,LearnStrategy,2023.2.3,Win32,59.17159763,3,2,2,,,,,,,,7,2,,,,,,,,,,,7,4.554,1,,,,,,0.141666667,-0.404166667,1,0,0,4.5543,Peridotite_rect,1,0,1,0,1,
6660d6f7933410d8b82aca2c,TCR,2024-06-25_14h22.44.457,LearnStrategy,2023.2.3,Win32,59.17159763,3,2,3,,,,,,,,6,11,,,,,,,,,,,6,1.946,1,,,,,,-0.109722222,-0.400694444,1,0,0,1.946,Pegmatite_rect,2,0,2,0,1,
6660d6f7933410d8b82aca2c,TCR,2024-06-25_14h22.44.457,LearnStrategy,2023.2.3,Win32,59.17159763,3,2,4,,,,,,,,7,16,,,,,,,,,,,4,12.428,0,,,,,,0.425694444,-0.261111111,1,0,0,12.4284,Gabbro_rect,3,0,3,0,1,
6660d6f7933410d8b82aca2c,TCR,2024-06-25_14h22.44.457,LearnStrategy,2023.2.3,Win32,59.17159763,3,2,5,,,,,,,,2,12,,,,,,,,,,,2,7.613,1,,,,,,-0.128472222,-0.263888889,1,0,0,7.613,Basalt_rect,4,0,4,0,1,
6660d6f7933410d8b82aca2c,TCR,2024-06-25_14h22.44.457,LearnStrategy,2023.2.3,Win32,59.17159763,3,2,6,,,,,,,,1,3,,,,,,,,,,,4,5.208,0,,,,,,0.325694444,-0.25625,1,0,0,5.2081,Gabbro_rect,5,0,5,0,1,
6660d6f7933410d8b82aca2c,TCR,2024-06-25_14h22.44.457,LearnStrategy,2023.2.3,Win32,59.17159763,3,2,7,,,,,,,,4,15,,,,,,,,,,,4,4.283,1,,,,,,0.326388889,-0.25625,1,0,0,4.283,Gabbro_rect,6,0,6,0,1,
6660d6f7933410d8b82aca2c,TCR,2024-06-25_14h22.44.457,LearnStrategy,2023.2.3,Win32,59.17159763,3,2,8,,,,,,,,5,7,,,,,,,,,,,5,1.46,1,,,,,,-0.384027778,-0.396527778,1,0,0,1.4596,Obsidian_rect,7,0,7,0,1,
6660d6f7933410d8b82aca2c,TCR,2024-06-25_14h22.44.457,LearnStrategy,2023.2.3,Win32,59.17159763,3,2,9,,,,,,,,3,2,,,,,,,,,,,3,2.696,1,,,,,,0.098611111,-0.261805556,1,0,0,2.696,Diorite_rect,8,0,8,0,1,
6660d6f7933410d8b82aca2c,TCR,2024-06-25_14h22.44.457,LearnStrategy,2023.2.3,Win32,59.17159763,3,2,10,,,,,,,,6,16,,,,,,,,,,,6,2.137,1,,,,,,-0.1375,-0.413888889,1,0,0,2.1367,Pegmatite_rect,9,0,9,0,1,
6660d6f7933410d8b82aca2c,TCR,2024-06-25_14h22.44.457,LearnStrategy,2023.2.3,Win32,59.17159763,3,2,11,,,,,,,,2,1,,,,,,,,,,,2,2.902,1,,,,,,-0.0875,-0.240972222,1,0,0,2.9024,Basalt_rect,10,0,10,0,1,
6660d6f7933410d8b82aca2c,TCR,2024-06-25_14h22.44.457,LearnStrategy,2023.2.3,Win32,59.17159763,3,2,12,,,,,,,,8,4,,,,,,,,,,,8,1.189,1,,,,,,0.368055556,-0.389583333,1,0,0,1.1894,Pumice_rect,11,0,11,0,1,
6660d6f7933410d8b82aca2c,TCR,2024-06-25_14h22.44.457,LearnStrategy,2023.2.3,Win32,59.17159763,3,2,13,,,,,,,,3,10,,,,,,,,,,,1,2.79,0,,,,,,-0.3125,-0.230555556,1,0,0,2.7901,Andesite_rect,12,0,12,0,1,
6660d6f7933410d8b82aca2c,TCR,2024-06-25_14h22.44.457,LearnStrategy,2023.2.3,Win32,59.17159763,3,2,14,,,,,,,,1,11,,,,,,,,,,,6,2.91,0,,,,,,-0.130555556,-0.394444444,1,0,0,2.9098,Pegmatite_rect,13,0,13,0,1,
6660d6f7933410d8b82aca2c,TCR,2024-06-25_14h22.44.457,LearnStrategy,2023.2.3,Win32,59.17159763,3,2,15,,,,,,,,8,9,,,,,,,,,,,8,1.464,1,,,,,,0.376388889,-0.416666667,1,0,0,1.4642,Pumice_rect,14,0,14,0,1,
6660d6f7933410d8b82aca2c,TCR,2024-06-25_14h22.44.457,LearnStrategy,2023.2.3,Win32,59.17159763,3,2,16,,,,,,,,4,9,,,,,,,,,,,4,8.04,1,,,,,,0.353472222,-0.270138889,1,0,0,8.0398,Gabbro_rect,15,0,15,0,1,
6660d6f7933410d8b82aca2c,TCR,2024-06-25_14h22.44.457,LearnStrategy,2023.2.3,Win32,59.17159763,4,1,1,0.074305556,0,1,0,0,2.1451,rock_grid_rect_2,2,8,-1,-1,2.145,-0.120138889,-0.25,1,0,0,2.294,Basalt_rect,2,2.294,1,0,0,0,0,1,,,,,,,,,,,,,
6660d6f7933410d8b82aca2c,TCR,2024-06-25_14h22.44.457,LearnStrategy,2023.2.3,Win32,59.17159763,4,1,2,0.009722222,-0.017361111,1,0,0,1.0499,rock_grid_rect_2,2,4,-1,-1,1.05,-0.106944444,-0.235416667,1,0,0,2.4485,Basalt_rect,2,2.449,1,1,0,1,0,1,,,,,,,,,,,,,
6660d6f7933410d8b82aca2c,TCR,2024-06-25_14h22.44.457,LearnStrategy,2023.2.3,Win32,59.17159763,4,1,3,0.0625,-0.000694444,1,0,0,0.9963,rock_grid_rect_2,3,9,-1,-1,0.996,0.136805556,-0.245138889,1,0,0,4.2946,Diorite_rect,3,4.295,1,2,0,2,0,1,,,,,,,,,,,,,
6660d6f7933410d8b82aca2c,TCR,2024-06-25_14h22.44.457,LearnStrategy,2023.2.3,Win32,59.17159763,4,1,4,0.092361111,0.001388889,1,0,0,0.8889,rock_grid_rect_2,5,10,-1,-1,0.889,-0.395138889,-0.393055556,1,0,0,1.7624,Obsidian_rect,5,1.762,1,3,0,3,0,1,,,,,,,,,,,,,
6660d6f7933410d8b82aca2c,TCR,2024-06-25_14h22.44.457,LearnStrategy,2023.2.3,Win32,59.17159763,4,1,5,0.045833333,-0.022916667,1,0,0,0.951,rock_grid_rect_2,3,15,-1,-1,0.951,-0.348611111,-0.268055556,1,0,0,4.6811,Andesite_rect,1,4.681,0,4,0,4,0,1,,,,,,,,,,,,,
6660d6f7933410d8b82aca2c,TCR,2024-06-25_14h22.44.457,LearnStrategy,2023.2.3,Win32,59.17159763,4,1,6,0.093055556,-0.023611111,1,0,0,1.3522,rock_grid_rect_2,4,8,-1,-1,1.352,0.359722222,-0.230555556,1,0,0,4.9135,Gabbro_rect,4,4.913,1,5,0,5,0,1,,,,,,,,,,,,,
6660d6f7933410d8b82aca2c,TCR,2024-06-25_14h22.44.457,LearnStrategy,2023.2.3,Win32,59.17159763,4,1,7,0.016666667,-0.019444444,1,0,0,1.3537,rock_grid_rect_2,6,9,-1,-1,1.354,-0.132638889,-0.410416667,1,0,0,2.0962,Pegmatite_rect,6,2.096,1,6,0,6,0,1,,,,,,,,,,,,,
6660d6f7933410d8b82aca2c,TCR,2024-06-25_14h22.44.457,LearnStrategy,2023.2.3,Win32,59.17159763,4,1,8,0.058333333,-0.009722222,1,0,0,1.0479,rock_grid_rect_2,8,14,-1,-1,1.048,0.420833333,-0.395138889,1,0,0,1.3332,Pumice_rect,8,1.333,1,7,0,7,0,1,,,,,,,,,,,,,
6660d6f7933410d8b82aca2c,TCR,2024-06-25_14h22.44.457,LearnStrategy,2023.2.3,Win32,59.17159763,4,1,9,0.011805556,-0.002083333,1,0,0,0.832,rock_grid_rect_2,8,13,-1,-1,0.832,0.400694444,-0.411111111,1,0,0,2.5357,Pumice_rect,8,2.536,1,8,0,8,0,1,,,,,,,,,,,,,
6660d6f7933410d8b82aca2c,TCR,2024-06-25_14h22.44.457,LearnStrategy,2023.2.3,Win32,59.17159763,4,1,10,0.071527778,0.013888889,1,0,0,0.9021,rock_grid_rect_2,1,9,-1,-1,0.902,-0.384722222,-0.244444444,1,0,0,3.3515,Andesite_rect,1,3.351,1,9,0,9,0,1,,,,,,,,,,,,,
6660d6f7933410d8b82aca2c,TCR,2024-06-25_14h22.44.457,LearnStrategy,2023.2.3,Win32,59.17159763,4,1,11,-0.013888889,0.015972222,1,0,0,1.1013,rock_grid_rect_2,5,12,-1,-1,1.101,-0.384722222,-0.395138889,1,0,0,1.2418,Obsidian_rect,5,1.242,1,10,0,10,0,1,,,,,,,,,,,,,
6660d6f7933410d8b82aca2c,TCR,2024-06-25_14h22.44.457,LearnStrategy,2023.2.3,Win32,59.17159763,4,1,12,0.061805556,-0.008333333,1,0,0,0.9252,rock_grid_rect_2,7,5,-1,-1,0.925,0.114583333,-0.410416667,1,0,0,2.7166,Peridotite_rect,7,2.717,1,11,0,11,0,1,,,,,,,,,,,,,
6660d6f7933410d8b82aca2c,TCR,2024-06-25_14h22.44.457,LearnStrategy,2023.2.3,Win32,59.17159763,4,1,13,0.045138889,-0.008333333,1,0,0,0.8967,rock_grid_rect_2,6,5,-1,-1,0.897,-0.125694444,-0.420138889,1,0,0,1.8157,Pegmatite_rect,6,1.816,1,12,0,12,0,1,,,,,,,,,,,,,
6660d6f7933410d8b82aca2c,TCR,2024-06-25_14h22.44.457,LearnStrategy,2023.2.3,Win32,59.17159763,4,1,14,0.070833333,0.008333333,1,0,0,0.959,rock_grid_rect_2,4,11,-1,-1,0.959,0.373611111,-0.254861111,1,0,0,2.7494,Gabbro_rect,4,2.749,1,13,0,13,0,1,,,,,,,,,,,,,
6660d6f7933410d8b82aca2c,TCR,2024-06-25_14h22.44.457,LearnStrategy,2023.2.3,Win32,59.17159763,4,1,15,0.072916667,-0.001388889,1,0,0,0.9029,rock_grid_rect_2,1,14,-1,-1,0.903,0.179861111,-0.263888889,1,0,0,5.1495,Diorite_rect,3,5.149,0,14,0,14,0,1,,,,,,,,,,,,,
6660d6f7933410d8b82aca2c,TCR,2024-06-25_14h22.44.457,LearnStrategy,2023.2.3,Win32,59.17159763,4,1,16,0.054861111,0,1,0,0,2.1992,rock_grid_rect_2,7,13,-1,-1,2.199,0.088194444,-0.378472222,1,0,0,2.4488,Peridotite_rect,7,2.449,1,15,0,15,0,1,,,,,,,,,,,,,
6660d6f7933410d8b82aca2c,TCR,2024-06-25_14h22.44.457,LearnStrategy,2023.2.3,Win32,59.17159763,4,2,1,,,,,,,,8,8,,,,,,,,,,,8,2.264,1,,,,,,0.379861111,-0.4,1,0,0,2.2642,Pumice_rect,0,0,0,0,1,
6660d6f7933410d8b82aca2c,TCR,2024-06-25_14h22.44.457,LearnStrategy,2023.2.3,Win32,59.17159763,4,2,2,,,,,,,,7,15,,,,,,,,,,,7,1.681,1,,,,,,0.168055556,-0.399305556,1,0,0,1.6807,Peridotite_rect,1,0,1,0,1,
6660d6f7933410d8b82aca2c,TCR,2024-06-25_14h22.44.457,LearnStrategy,2023.2.3,Win32,59.17159763,4,2,3,,,,,,,,5,4,,,,,,,,,,,5,1.941,1,,,,,,-0.388194444,-0.407638889,1,0,0,1.941,Obsidian_rect,2,0,2,0,1,
6660d6f7933410d8b82aca2c,TCR,2024-06-25_14h22.44.457,LearnStrategy,2023.2.3,Win32,59.17159763,4,2,4,,,,,,,,3,13,,,,,,,,,,,3,6.301,1,,,,,,0.118055556,-0.241666667,1,0,0,6.3013,Diorite_rect,3,0,3,0,1,
6660d6f7933410d8b82aca2c,TCR,2024-06-25_14h22.44.457,LearnStrategy,2023.2.3,Win32,59.17159763,4,2,5,,,,,,,,2,1,,,,,,,,,,,2,1.208,1,,,,,,-0.111111111,-0.245833333,1,0,0,1.2085,Basalt_rect,4,0,4,0,1,
6660d6f7933410d8b82aca2c,TCR,2024-06-25_14h22.44.457,LearnStrategy,2023.2.3,Win32,59.17159763,4,2,6,,,,,,,,8,5,,,,,,,,,,,8,1.687,1,,,,,,0.375694444,-0.418055556,1,0,0,1.687,Pumice_rect,5,0,5,0,1,
6660d6f7933410d8b82aca2c,TCR,2024-06-25_14h22.44.457,LearnStrategy,2023.2.3,Win32,59.17159763,4,2,7,,,,,,,,3,6,,,,,,,,,,,1,4.979,0,,,,,,-0.399305556,-0.235416667,1,0,0,4.9785,Andesite_rect,6,0,6,0,1,
6660d6f7933410d8b82aca2c,TCR,2024-06-25_14h22.44.457,LearnStrategy,2023.2.3,Win32,59.17159763,4,2,8,,,,,,,,4,10,,,,,,,,,,,4,3.508,1,,,,,,0.408333333,-0.252777778,1,0,0,3.5076,Gabbro_rect,7,0,7,0,1,
6660d6f7933410d8b82aca2c,TCR,2024-06-25_14h22.44.457,LearnStrategy,2023.2.3,Win32,59.17159763,4,2,9,,,,,,,,6,7,,,,,,,,,,,6,1.666,1,,,,,,-0.126388889,-0.4125,1,0,0,1.6657,Pegmatite_rect,8,0,8,0,1,
6660d6f7933410d8b82aca2c,TCR,2024-06-25_14h22.44.457,LearnStrategy,2023.2.3,Win32,59.17159763,4,2,10,,,,,,,,7,10,,,,,,,,,,,7,1.376,1,,,,,,0.129861111,-0.409027778,1,0,0,1.3757,Peridotite_rect,9,0,9,0,1,
6660d6f7933410d8b82aca2c,TCR,2024-06-25_14h22.44.457,LearnStrategy,2023.2.3,Win32,59.17159763,4,2,11,,,,,,,,4,5,,,,,,,,,,,4,7.379,1,,,,,,0.426388889,-0.247222222,1,0,0,7.3791,Gabbro_rect,10,0,10,0,1,
6660d6f7933410d8b82aca2c,TCR,2024-06-25_14h22.44.457,LearnStrategy,2023.2.3,Win32,59.17159763,4,2,12,,,,,,,,6,15,,,,,,,,,,,6,1.719,1,,,,,,-0.155555556,-0.417361111,1,0,0,1.7192,Pegmatite_rect,11,0,11,0,1,
6660d6f7933410d8b82aca2c,TCR,2024-06-25_14h22.44.457,LearnStrategy,2023.2.3,Win32,59.17159763,4,2,13,,,,,,,,1,7,,,,,,,,,,,6,5.273,0,,,,,,-0.155555556,-0.417361111,1,0,0,5.2727,Pegmatite_rect,12,0,12,0,1,
6660d6f7933410d8b82aca2c,TCR,2024-06-25_14h22.44.457,LearnStrategy,2023.2.3,Win32,59.17159763,4,2,14,,,,,,,,1,6,,,,,,,,,,,1,10.108,1,,,,,,-0.334027778,-0.261805556,1,0,0,10.1084,Andesite_rect,13,0,13,0,1,
6660d6f7933410d8b82aca2c,TCR,2024-06-25_14h22.44.457,LearnStrategy,2023.2.3,Win32,59.17159763,4,2,15,,,,,,,,2,5,,,,,,,,,,,2,2.069,1,,,,,,-0.136805556,-0.263888889,1,0,0,2.0691,Basalt_rect,14,0,14,0,1,
6660d6f7933410d8b82aca2c,TCR,2024-06-25_14h22.44.457,LearnStrategy,2023.2.3,Win32,59.17159763,4,2,16,,,,,,,,5,14,,,,,,,,,,,5,1.305,1,,,,,,-0.386111111,-0.393055556,1,0,0,1.3052,Obsidian_rect,15,0,15,0,1,
6660d6f7933410d8b82aca2c,TCR,2024-06-25_14h22.44.457,LearnStrategy,2023.2.3,Win32,59.17159763,5,1,1,0.017361111,-0.018055556,1,0,0,3.6422,rock_grid_rect_2,2,14,-1,-1,3.642,-0.050694444,-0.252083333,1,0,0,5.5247,Basalt_rect,2,5.525,1,0,0,0,0,1,,,,,,,,,,,,,
6660d6f7933410d8b82aca2c,TCR,2024-06-25_14h22.44.457,LearnStrategy,2023.2.3,Win32,59.17159763,5,1,2,0.061805556,-0.00625,1,0,0,1.2076,rock_grid_rect_2,8,6,-1,-1,1.208,0.426388889,-0.395833333,1,0,0,1.7048,Pumice_rect,8,1.705,1,1,0,1,0,1,,,,,,,,,,,,,
6660d6f7933410d8b82aca2c,TCR,2024-06-25_14h22.44.457,LearnStrategy,2023.2.3,Win32,59.17159763,5,1,3,0.029166667,0.005555556,1,0,0,1.0983,rock_grid_rect_2,8,3,-1,-1,1.098,0.388194444,-0.389583333,1,0,0,1.3863,Pumice_rect,8,1.386,1,2,0,2,0,1,,,,,,,,,,,,,
6660d6f7933410d8b82aca2c,TCR,2024-06-25_14h22.44.457,LearnStrategy,2023.2.3,Win32,59.17159763,5,1,4,0.017361111,-0.010416667,1,0,0,0.9936,rock_grid_rect_2,5,8,-1,-1,0.994,-0.388888889,-0.398611111,1,0,0,1.4718,Obsidian_rect,5,1.472,1,3,0,3,0,1,,,,,,,,,,,,,
6660d6f7933410d8b82aca2c,TCR,2024-06-25_14h22.44.457,LearnStrategy,2023.2.3,Win32,59.17159763,5,1,5,-0.011111111,0.002083333,1,0,0,0.9551,rock_grid_rect_2,5,5,-1,-1,0.955,-0.382638889,-0.3875,1,0,0,1.2444,Obsidian_rect,5,1.244,1,4,0,4,0,1,,,,,,,,,,,,,
6660d6f7933410d8b82aca2c,TCR,2024-06-25_14h22.44.457,LearnStrategy,2023.2.3,Win32,59.17159763,5,1,6,0.077083333,0.023611111,1,0,0,0.9143,rock_grid_rect_2,4,14,-1,-1,0.914,0.365972222,-0.259027778,1,0,0,2.3408,Gabbro_rect,4,2.341,1,5,0,5,0,1,,,,,,,,,,,,,
6660d6f7933410d8b82aca2c,TCR,2024-06-25_14h22.44.457,LearnStrategy,2023.2.3,Win32,59.17159763,5,1,7,0.068055556,0.016666667,1,0,0,0.9755,rock_grid_rect_2,1,4,-1,-1,0.976,-0.397222222,-0.229166667,1,0,0,6.2301,Andesite_rect,1,6.23,1,6,0,6,0,1,,,,,,,,,,,,,
6660d6f7933410d8b82aca2c,TCR,2024-06-25_14h22.44.457,LearnStrategy,2023.2.3,Win32,59.17159763,5,1,8,-0.005555556,-0.002777778,1,0,0,1.0745,rock_grid_rect_2,6,8,-1,-1,1.074,-0.108333333,-0.388888889,1,0,0,1.4808,Pegmatite_rect,6,1.481,1,7,0,7,0,1,,,,,,,,,,,,,
6660d6f7933410d8b82aca2c,TCR,2024-06-25_14h22.44.457,LearnStrategy,2023.2.3,Win32,59.17159763,5,1,9,0.004166667,0.015972222,1,0,0,1.192,rock_grid_rect_2,7,7,-1,-1,1.192,0.109722222,-0.385416667,1,0,0,1.3629,Peridotite_rect,7,1.363,1,8,0,8,0,1,,,,,,,,,,,,,
6660d6f7933410d8b82aca2c,TCR,2024-06-25_14h22.44.457,LearnStrategy,2023.2.3,Win32,59.17159763,5,1,10,0.066666667,-0.009027778,1,0,0,0.8791,rock_grid_rect_2,6,12,-1,-1,0.879,-0.111111111,-0.395138889,1,0,0,1.4494,Pegmatite_rect,6,1.449,1,9,0,9,0,1,,,,,,,,,,,,,
6660d6f7933410d8b82aca2c,TCR,2024-06-25_14h22.44.457,LearnStrategy,2023.2.3,Win32,59.17159763,5,1,11,0.075,-0.000694444,1,0,0,0.8841,rock_grid_rect_2,4,3,-1,-1,0.884,0.159027778,-0.251388889,1,0,0,4.6549,Diorite_rect,3,4.655,0,10,0,10,0,1,,,,,,,,,,,,,
6660d6f7933410d8b82aca2c,TCR,2024-06-25_14h22.44.457,LearnStrategy,2023.2.3,Win32,59.17159763,5,1,12,0.074305556,-0.006944444,1,0,0,0.9725,rock_grid_rect_2,3,8,-1,-1,0.973,0.103472222,-0.254166667,1,0,0,1.303,Diorite_rect,3,1.303,1,11,0,11,0,1,,,,,,,,,,,,,
6660d6f7933410d8b82aca2c,TCR,2024-06-25_14h22.44.457,LearnStrategy,2023.2.3,Win32,59.17159763,5,1,13,0.061111111,-0.017361111,1,0,0,0.7966,rock_grid_rect_2,1,16,-1,-1,0.797,0.352777778,-0.229861111,1,0,0,5.9581,Gabbro_rect,4,5.958,0,12,0,12,0,1,,,,,,,,,,,,,
6660d6f7933410d8b82aca2c,TCR,2024-06-25_14h22.44.457,LearnStrategy,2023.2.3,Win32,59.17159763,5,1,14,0.079166667,-0.022916667,1,0,0,1.0713,rock_grid_rect_2,3,16,-1,-1,1.071,0.395138889,-0.259722222,1,0,0,3.2379,Gabbro_rect,4,3.238,0,13,0,13,0,1,,,,,,,,,,,,,
6660d6f7933410d8b82aca2c,TCR,2024-06-25_14h22.44.457,LearnStrategy,2023.2.3,Win32,59.17159763,5,1,15,0.0625,-0.008333333,1,0,0,0.9823,rock_grid_rect_2,7,6,-1,-1,0.982,0.084722222,-0.397222222,1,0,0,3.0929,Peridotite_rect,7,3.093,1,14,0,14,0,1,,,,,,,,,,,,,
6660d6f7933410d8b82aca2c,TCR,2024-06-25_14h22.44.457,LearnStrategy,2023.2.3,Win32,59.17159763,5,1,16,0.044444444,-0.002777778,1,0,0,0.9249,rock_grid_rect_2,2,11,-1,-1,0.925,-0.069444444,-0.259027778,1,0,0,2.9503,Basalt_rect,2,2.95,1,15,0,15,0,1,,,,,,,,,,,,,
6660d6f7933410d8b82aca2c,TCR,2024-06-25_14h22.44.457,LearnStrategy,2023.2.3,Win32,59.17159763,5,2,1,,,,,,,,3,7,,,,,,,,,,,3,7.101,1,,,,,,0.113888889,-0.244444444,1,0,0,7.101,Diorite_rect,0,0,0,0,1,
6660d6f7933410d8b82aca2c,TCR,2024-06-25_14h22.44.457,LearnStrategy,2023.2.3,Win32,59.17159763,5,2,2,,,,,,,,6,10,,,,,,,,,,,6,2.351,1,,,,,,-0.065277778,-0.400694444,1,0,0,2.3511,Pegmatite_rect,1,0,1,0,1,
6660d6f7933410d8b82aca2c,TCR,2024-06-25_14h22.44.457,LearnStrategy,2023.2.3,Win32,59.17159763,5,2,3,,,,,,,,8,10,,,,,,,,,,,8,1.882,1,,,,,,0.440972222,-0.415972222,1,0,0,1.8816,Pumice_rect,2,0,2,0,1,
6660d6f7933410d8b82aca2c,TCR,2024-06-25_14h22.44.457,LearnStrategy,2023.2.3,Win32,59.17159763,5,2,4,,,,,,,,6,13,,,,,,,,,,,4,24.506,0,,,,,,0.401388889,-0.25,1,0,0,24.5056,Gabbro_rect,3,0,3,0,1,
6660d6f7933410d8b82aca2c,TCR,2024-06-25_14h22.44.457,LearnStrategy,2023.2.3,Win32,59.17159763,5,2,5,,,,,,,,2,12,,,,,,,,,,,2,3.5,1,,,,,,-0.128472222,-0.24375,1,0,0,3.4999,Basalt_rect,4,0,4,0,1,
6660d6f7933410d8b82aca2c,TCR,2024-06-25_14h22.44.457,LearnStrategy,2023.2.3,Win32,59.17159763,5,2,6,,,,,,,,7,14,,,,,,,,,,,4,2.394,0,,,,,,0.392361111,-0.251388889,1,0,0,2.3937,Gabbro_rect,5,0,5,0,1,
6660d6f7933410d8b82aca2c,TCR,2024-06-25_14h22.44.457,LearnStrategy,2023.2.3,Win32,59.17159763,5,2,7,,,,,,,,4,12,,,,,,,,,,,4,3.456,1,,,,,,0.393055556,-0.251388889,1,0,0,3.4557,Gabbro_rect,6,0,6,0,1,
6660d6f7933410d8b82aca2c,TCR,2024-06-25_14h22.44.457,LearnStrategy,2023.2.3,Win32,59.17159763,5,2,8,,,,,,,,4,16,,,,,,,,,,,4,3.153,1,,,,,,0.393055556,-0.251388889,1,0,0,3.1533,Gabbro_rect,7,0,7,0,1,
6660d6f7933410d8b82aca2c,TCR,2024-06-25_14h22.44.457,LearnStrategy,2023.2.3,Win32,59.17159763,5,2,9,,,,,,,,8,4,,,,,,,,,,,8,1.189,1,,,,,,0.379166667,-0.380555556,1,0,0,1.1893,Pumice_rect,8,0,8,0,1,
6660d6f7933410d8b82aca2c,TCR,2024-06-25_14h22.44.457,LearnStrategy,2023.2.3,Win32,59.17159763,5,2,10,,,,,,,,5,7,,,,,,,,,,,5,1.249,1,,,,,,-0.347222222,-0.409027778,1,0,0,1.2491,Obsidian_rect,9,0,9,0,1,
6660d6f7933410d8b82aca2c,TCR,2024-06-25_14h22.44.457,LearnStrategy,2023.2.3,Win32,59.17159763,5,2,11,,,,,,,,2,16,,,,,,,,,,,2,2.656,1,,,,,,-0.132638889,-0.245138889,1,0,0,2.6556,Basalt_rect,10,0,10,0,1,
6660d6f7933410d8b82aca2c,TCR,2024-06-25_14h22.44.457,LearnStrategy,2023.2.3,Win32,59.17159763,5,2,12,,,,,,,,3,11,,,,,,,,,,,3,1.932,1,,,,,,0.081944444,-0.254166667,1,0,0,1.9321,Diorite_rect,11,0,11,0,1,
6660d6f7933410d8b82aca2c,TCR,2024-06-25_14h22.44.457,LearnStrategy,2023.2.3,Win32,59.17159763,5,2,13,,,,,,,,1,1,,,,,,,,,,,3,5.303,0,,,,,,0.083333333,-0.254166667,1,0,0,5.3029,Diorite_rect,12,0,12,0,1,
6660d6f7933410d8b82aca2c,TCR,2024-06-25_14h22.44.457,LearnStrategy,2023.2.3,Win32,59.17159763,5,2,14,,,,,,,,5,6,,,,,,,,,,,5,1.237,1,,,,,,-0.332638889,-0.385416667,1,0,0,1.2368,Obsidian_rect,13,0,13,0,1,
6660d6f7933410d8b82aca2c,TCR,2024-06-25_14h22.44.457,LearnStrategy,2023.2.3,Win32,59.17159763,5,2,15,,,,,,,,7,12,,,,,,,,,,,7,2.898,1,,,,,,0.140277778,-0.419444444,1,0,0,2.8984,Peridotite_rect,14,0,14,0,1,
6660d6f7933410d8b82aca2c,TCR,2024-06-25_14h22.44.457,LearnStrategy,2023.2.3,Win32,59.17159763,5,2,16,,,,,,,,1,11,,,,,,,,,,,6,1.795,0,,,,,,-0.086111111,-0.411111111,1,0,0,1.7954,Pegmatite_rect,15,0,15,0,1,
6660d6f7933410d8b82aca2c,TCR,2024-06-25_14h22.44.457,LearnStrategy,2023.2.3,Win32,59.17159763,6,1,1,0.034027778,0.002083333,1,0,0,1.4161,rock_grid_rect_2,7,4,-1,-1,1.416,0.404861111,-0.251388889,1,0,0,6.9646,Gabbro_rect,4,6.965,0,0,0,0,0,1,,,,,,,,,,,,,
6660d6f7933410d8b82aca2c,TCR,2024-06-25_14h22.44.457,LearnStrategy,2023.2.3,Win32,59.17159763,6,1,2,0.09375,-0.014583333,1,0,0,1.1124,rock_grid_rect_2,4,1,-1,-1,1.112,0.413194444,-0.258333333,1,0,0,4.3054,Gabbro_rect,4,4.305,1,1,0,1,0,1,,,,,,,,,,,,,
6660d6f7933410d8b82aca2c,TCR,2024-06-25_14h22.44.457,LearnStrategy,2023.2.3,Win32,59.17159763,6,1,3,0.033333333,0.002083333,1,0,0,1.0078,rock_grid_rect_2,1,5,-1,-1,1.008,-0.130555556,-0.388888889,1,0,0,2.6626,Pegmatite_rect,6,2.663,0,2,0,2,0,1,,,,,,,,,,,,,
6660d6f7933410d8b82aca2c,TCR,2024-06-25_14h22.44.457,LearnStrategy,2023.2.3,Win32,59.17159763,6,1,4,0.021527778,-0.002083333,1,0,0,1.2065,rock_grid_rect_2,2,9,-1,-1,1.207,-0.072222222,-0.2375,1,0,0,1.707,Basalt_rect,2,1.707,1,3,0,3,0,1,,,,,,,,,,,,,
6660d6f7933410d8b82aca2c,TCR,2024-06-25_14h22.44.457,LearnStrategy,2023.2.3,Win32,59.17159763,6,1,5,0.009027778,0.006944444,1,0,0,1.1304,rock_grid_rect_2,8,16,-1,-1,1.13,0.3875,-0.398611111,1,0,0,1.8034,Pumice_rect,8,1.803,1,4,0,4,0,1,,,,,,,,,,,,,
6660d6f7933410d8b82aca2c,TCR,2024-06-25_14h22.44.457,LearnStrategy,2023.2.3,Win32,59.17159763,6,1,6,0.050694444,0.020833333,1,0,0,1.037,rock_grid_rect_2,8,2,-1,-1,1.037,0.431944444,-0.38125,1,0,0,1.7482,Pumice_rect,8,1.748,1,5,0,5,0,1,,,,,,,,,,,,,
6660d6f7933410d8b82aca2c,TCR,2024-06-25_14h22.44.457,LearnStrategy,2023.2.3,Win32,59.17159763,6,1,7,0.086805556,-0.018055556,1,0,0,0.7186,rock_grid_rect_2,2,10,-1,-1,0.719,-0.097916667,-0.23125,1,0,0,1.6613,Basalt_rect,2,1.661,1,6,0,6,0,1,,,,,,,,,,,,,
6660d6f7933410d8b82aca2c,TCR,2024-06-25_14h22.44.457,LearnStrategy,2023.2.3,Win32,59.17159763,6,1,8,0.052083333,-0.024305556,1,0,0,0.8548,rock_grid_rect_2,5,11,-1,-1,0.855,-0.341666667,-0.402083333,1,0,0,1.1542,Obsidian_rect,5,1.154,1,7,0,7,0,1,,,,,,,,,,,,,
6660d6f7933410d8b82aca2c,TCR,2024-06-25_14h22.44.457,LearnStrategy,2023.2.3,Win32,59.17159763,6,1,9,0.034722222,0.015972222,1,0,0,1.0031,rock_grid_rect_2,6,6,-1,-1,1.003,0.141666667,-0.395833333,1,0,0,5.2313,Peridotite_rect,7,5.231,0,8,0,8,0,1,,,,,,,,,,,,,
6660d6f7933410d8b82aca2c,TCR,2024-06-25_14h22.44.457,LearnStrategy,2023.2.3,Win32,59.17159763,6,1,10,0.044444444,-0.009027778,1,0,0,1.2583,rock_grid_rect_2,3,12,-1,-1,1.258,0.134722222,-0.24375,1,0,0,2.524,Diorite_rect,3,2.524,1,9,0,9,0,1,,,,,,,,,,,,,
6660d6f7933410d8b82aca2c,TCR,2024-06-25_14h22.44.457,LearnStrategy,2023.2.3,Win32,59.17159763,6,1,11,0.055555556,0.002777778,1,0,0,0.916,rock_grid_rect_2,1,2,-1,-1,0.916,0.415972222,-0.249305556,1,0,0,3.8057,Gabbro_rect,4,3.806,0,10,0,10,0,1,,,,,,,,,,,,,
6660d6f7933410d8b82aca2c,TCR,2024-06-25_14h22.44.457,LearnStrategy,2023.2.3,Win32,59.17159763,6,1,12,0.040972222,0.002777778,1,0,0,1.3073,rock_grid_rect_2,4,13,-1,-1,1.307,0.3625,-0.234027778,1,0,0,2.5997,Gabbro_rect,4,2.6,1,11,0,11,0,1,,,,,,,,,,,,,
6660d6f7933410d8b82aca2c,TCR,2024-06-25_14h22.44.457,LearnStrategy,2023.2.3,Win32,59.17159763,6,1,13,0.079166667,-0.013888889,1,0,0,1.4068,rock_grid_rect_2,5,2,-1,-1,1.407,-0.375,-0.386805556,1,0,0,1.586,Obsidian_rect,5,1.586,1,12,0,12,0,1,,,,,,,,,,,,,
6660d6f7933410d8b82aca2c,TCR,2024-06-25_14h22.44.457,LearnStrategy,2023.2.3,Win32,59.17159763,6,1,14,0.056944444,0.00625,1,0,0,0.8999,rock_grid_rect_2,6,3,-1,-1,0.9,-0.117361111,-0.390972222,1,0,0,1.5576,Pegmatite_rect,6,1.558,1,13,0,13,0,1,,,,,,,,,,,,,
6660d6f7933410d8b82aca2c,TCR,2024-06-25_14h22.44.457,LearnStrategy,2023.2.3,Win32,59.17159763,6,1,15,0.064583333,0.001388889,1,0,0,0.8724,rock_grid_rect_2,7,8,-1,-1,0.872,0.113194444,-0.403472222,1,0,0,1.8548,Peridotite_rect,7,1.855,1,14,0,14,0,1,,,,,,,,,,,,,
6660d6f7933410d8b82aca2c,TCR,2024-06-25_14h22.44.457,LearnStrategy,2023.2.3,Win32,59.17159763,6,1,16,0.032638889,-0.002083333,1,0,0,0.9806,rock_grid_rect_2,3,14,-1,-1,0.981,0.104861111,-0.25,1,0,0,2.0038,Diorite_rect,3,2.004,1,15,0,15,0,1,,,,,,,,,,,,,
6660d6f7933410d8b82aca2c,TCR,2024-06-25_14h22.44.457,LearnStrategy,2023.2.3,Win32,59.17159763,6,2,1,,,,,,,,6,16,,,,,,,,,,,6,6.75,1,,,,,,-0.110416667,-0.415277778,1,0,0,6.75,Pegmatite_rect,0,0,0,0,1,
6660d6f7933410d8b82aca2c,TCR,2024-06-25_14h22.44.457,LearnStrategy,2023.2.3,Win32,59.17159763,6,2,2,,,,,,,,1,3,,,,,,,,,,,1,17.239,1,,,,,,-0.352083333,-0.252083333,1,0,0,17.2391,Andesite_rect,1,0,1,0,1,
6660d6f7933410d8b82aca2c,TCR,2024-06-25_14h22.44.457,LearnStrategy,2023.2.3,Win32,59.17159763,6,2,3,,,,,,,,8,15,,,,,,,,,,,8,1.488,1,,,,,,0.384722222,-0.395833333,1,0,0,1.488,Pumice_rect,2,0,2,0,1,
6660d6f7933410d8b82aca2c,TCR,2024-06-25_14h22.44.457,LearnStrategy,2023.2.3,Win32,59.17159763,6,2,4,,,,,,,,6,11,,,,,,,,,,,6,1.88,1,,,,,,-0.075,-0.396527778,1,0,0,1.8798,Pegmatite_rect,3,0,3,0,1,
6660d6f7933410d8b82aca2c,TCR,2024-06-25_14h22.44.457,LearnStrategy,2023.2.3,Win32,59.17159763,6,2,5,,,,,,,,7,2,,,,,,,,,,,7,1.354,1,,,,,,0.142361111,-0.39375,1,0,0,1.3544,Peridotite_rect,4,0,4,0,1,
6660d6f7933410d8b82aca2c,TCR,2024-06-25_14h22.44.457,LearnStrategy,2023.2.3,Win32,59.17159763,6,2,6,,,,,,,,1,10,,,,,,,,,,,4,7.126,0,,,,,,0.373611111,-0.250694444,1,0,0,7.1258,Gabbro_rect,5,0,5,0,1,
6660d6f7933410d8b82aca2c,TCR,2024-06-25_14h22.44.457,LearnStrategy,2023.2.3,Win32,59.17159763,6,2,7,,,,,,,,5,16,,,,,,,,,,,5,1.728,1,,,,,,-0.34375,-0.407638889,1,0,0,1.7281,Obsidian_rect,6,0,6,0,1,
6660d6f7933410d8b82aca2c,TCR,2024-06-25_14h22.44.457,LearnStrategy,2023.2.3,Win32,59.17159763,6,2,8,,,,,,,,3,10,,,,,,,,,,,3,2.152,1,,,,,,0.141666667,-0.231944444,1,0,0,2.1517,Diorite_rect,7,0,7,0,1,
6660d6f7933410d8b82aca2c,TCR,2024-06-25_14h22.44.457,LearnStrategy,2023.2.3,Win32,59.17159763,6,2,9,,,,,,,,4,9,,,,,,,,,,,2,6.577,0,,,,,,-0.076388889,-0.242361111,1,0,0,6.5774,Basalt_rect,8,0,8,0,1,
6660d6f7933410d8b82aca2c,TCR,2024-06-25_14h22.44.457,LearnStrategy,2023.2.3,Win32,59.17159763,6,2,10,,,,,,,,3,2,,,,,,,,,,,3,10.926,1,,,,,,0.131944444,-0.267361111,1,0,0,10.926,Diorite_rect,9,0,9,0,1,
6660d6f7933410d8b82aca2c,TCR,2024-06-25_14h22.44.457,LearnStrategy,2023.2.3,Win32,59.17159763,6,2,11,,,,,,,,8,9,,,,,,,,,,,8,1.318,1,,,,,,0.380555556,-0.3875,1,0,0,1.318,Pumice_rect,10,0,10,0,1,
6660d6f7933410d8b82aca2c,TCR,2024-06-25_14h22.44.457,LearnStrategy,2023.2.3,Win32,59.17159763,6,2,12,,,,,,,,2,2,,,,,,,,,,,2,1.299,1,,,,,,-0.054166667,-0.255555556,1,0,0,1.299,Basalt_rect,11,0,11,0,1,
6660d6f7933410d8b82aca2c,TCR,2024-06-25_14h22.44.457,LearnStrategy,2023.2.3,Win32,59.17159763,6,2,13,,,,,,,,5,9,,,,,,,,,,,5,1.427,1,,,,,,-0.364583333,-0.4,1,0,0,1.4269,Obsidian_rect,12,0,12,0,1,
6660d6f7933410d8b82aca2c,TCR,2024-06-25_14h22.44.457,LearnStrategy,2023.2.3,Win32,59.17159763,6,2,14,,,,,,,,7,16,,,,,,,,,,,4,2.748,0,,,,,,0.384722222,-0.235416667,1,0,0,2.7485,Gabbro_rect,13,0,13,0,1,
6660d6f7933410d8b82aca2c,TCR,2024-06-25_14h22.44.457,LearnStrategy,2023.2.3,Win32,59.17159763,6,2,15,,,,,,,,4,15,,,,,,,,,,,4,5.057,1,,,,,,0.384722222,-0.235416667,1,0,0,5.0573,Gabbro_rect,14,0,14,0,1,
6660d6f7933410d8b82aca2c,TCR,2024-06-25_14h22.44.457,LearnStrategy,2023.2.3,Win32,59.17159763,6,2,16,,,,,,,,2,6,,,,,,,,,,,2,2.3,1,,,,,,-0.100694444,-0.246527778,1,0,0,2.2997,Basalt_rect,15,0,15,0,1,
6660d6f7933410d8b82aca2c,TCR,2024-06-25_14h22.44.457,LearnStrategy,2023.2.3,Win32,59.17159763,7,1,1,0.030555556,-0.008333333,1,0,0,1.3714,rock_grid_rect_2,1,16,-1,-1,1.371,-0.402777778,-0.247222222,1,0,0,3.1686,Andesite_rect,1,3.169,1,0,0,0,0,1,,,,,,,,,,,,,
6660d6f7933410d8b82aca2c,TCR,2024-06-25_14h22.44.457,LearnStrategy,2023.2.3,Win32,59.17159763,7,1,2,0.041666667,-0.008333333,1,0,0,1.1524,rock_grid_rect_2,6,12,-1,-1,1.152,-0.138888889,-0.398611111,1,0,0,2.0663,Pegmatite_rect,6,2.066,1,1,0,1,0,1,,,,,,,,,,,,,
6660d6f7933410d8b82aca2c,TCR,2024-06-25_14h22.44.457,LearnStrategy,2023.2.3,Win32,59.17159763,7,1,3,0.069444444,-0.001388889,1,0,0,1.1316,rock_grid_rect_2,2,10,-1,-1,1.132,-0.109027778,-0.259722222,1,0,0,1.579,Basalt_rect,2,1.579,1,2,0,2,0,1,,,,,,,,,,,,,
6660d6f7933410d8b82aca2c,TCR,2024-06-25_14h22.44.457,LearnStrategy,2023.2.3,Win32,59.17159763,7,1,4,-0.008333333,-0.017361111,1,0,0,1.2084,rock_grid_rect_2,5,5,-1,-1,1.208,-0.393055556,-0.393055556,1,0,0,1.4089,Obsidian_rect,5,1.409,1,3,0,3,0,1,,,,,,,,,,,,,
6660d6f7933410d8b82aca2c,TCR,2024-06-25_14h22.44.457,LearnStrategy,2023.2.3,Win32,59.17159763,7,1,5,0.0375,-0.022916667,1,0,0,0.8242,rock_grid_rect_2,6,6,-1,-1,0.824,-0.1125,-0.401388889,1,0,0,2.4466,Pegmatite_rect,6,2.447,1,4,0,4,0,1,,,,,,,,,,,,,
6660d6f7933410d8b82aca2c,TCR,2024-06-25_14h22.44.457,LearnStrategy,2023.2.3,Win32,59.17159763,7,1,6,0.021527778,-0.011805556,1,0,0,0.9069,rock_grid_rect_2,8,13,-1,-1,0.907,0.369444444,-0.394444444,1,0,0,1.6877,Pumice_rect,8,1.688,1,5,0,5,0,1,,,,,,,,,,,,,
6660d6f7933410d8b82aca2c,TCR,2024-06-25_14h22.44.457,LearnStrategy,2023.2.3,Win32,59.17159763,7,1,7,0.018055556,-0.002083333,1,0,0,0.835,rock_grid_rect_2,7,13,-1,-1,0.835,0.146527778,-0.404861111,1,0,0,2.1862,Peridotite_rect,7,2.186,1,6,0,6,0,1,,,,,,,,,,,,,
6660d6f7933410d8b82aca2c,TCR,2024-06-25_14h22.44.457,LearnStrategy,2023.2.3,Win32,59.17159763,7,1,8,0.042361111,-0.015277778,1,0,0,0.862,rock_grid_rect_2,4,1,-1,-1,0.862,0.395138889,-0.259722222,1,0,0,2.7151,Gabbro_rect,4,2.715,1,7,0,7,0,1,,,,,,,,,,,,,
6660d6f7933410d8b82aca2c,TCR,2024-06-25_14h22.44.457,LearnStrategy,2023.2.3,Win32,59.17159763,7,1,9,0.068055556,-0.007638889,1,0,0,1.1624,rock_grid_rect_2,4,8,-1,-1,1.162,0.366666667,-0.243055556,1,0,0,3.3953,Gabbro_rect,4,3.395,1,8,0,8,0,1,,,,,,,,,,,,,
6660d6f7933410d8b82aca2c,TCR,2024-06-25_14h22.44.457,LearnStrategy,2023.2.3,Win32,59.17159763,7,1,10,0.011111111,-0.003472222,1,0,0,0.9851,rock_grid_rect_2,3,14,-1,-1,0.985,0.109722222,-0.243055556,1,0,0,2.0823,Diorite_rect,3,2.082,1,9,0,9,0,1,,,,,,,,,,,,,
6660d6f7933410d8b82aca2c,TCR,2024-06-25_14h22.44.457,LearnStrategy,2023.2.3,Win32,59.17159763,7,1,11,0.020833333,0.016666667,1,0,0,0.9861,rock_grid_rect_2,1,5,-1,-1,0.986,-0.153472222,-0.397222222,1,0,0,6.5136,Pegmatite_rect,6,6.514,0,10,0,10,0,1,,,,,,,,,,,,,
6660d6f7933410d8b82aca2c,TCR,2024-06-25_14h22.44.457,LearnStrategy,2023.2.3,Win32,59.17159763,7,1,12,0.013888889,0.011805556,1,0,0,1.6651,rock_grid_rect_2,2,11,-1,-1,1.665,-0.10625,-0.247222222,1,0,0,3.5125,Basalt_rect,2,3.513,1,11,0,11,0,1,,,,,,,,,,,,,
6660d6f7933410d8b82aca2c,TCR,2024-06-25_14h22.44.457,LearnStrategy,2023.2.3,Win32,59.17159763,7,1,13,0.038194444,-0.006944444,1,0,0,1.0444,rock_grid_rect_2,8,14,-1,-1,1.044,0.388194444,-0.384722222,1,0,0,1.2411,Pumice_rect,8,1.241,1,12,0,12,0,1,,,,,,,,,,,,,
6660d6f7933410d8b82aca2c,TCR,2024-06-25_14h22.44.457,LearnStrategy,2023.2.3,Win32,59.17159763,7,1,14,-0.002777778,-0.001388889,1,0,0,1.0236,rock_grid_rect_2,5,10,-1,-1,1.024,-0.377083333,-0.403472222,1,0,0,1.1471,Obsidian_rect,5,1.147,1,13,0,13,0,1,,,,,,,,,,,,,
6660d6f7933410d8b82aca2c,TCR,2024-06-25_14h22.44.457,LearnStrategy,2023.2.3,Win32,59.17159763,7,1,15,0.032638889,-0.014583333,1,0,0,0.9924,rock_grid_rect_2,3,16,-1,-1,0.992,0.119444444,-0.258333333,1,0,0,1.7249,Diorite_rect,3,1.725,1,14,0,14,0,1,,,,,,,,,,,,,
6660d6f7933410d8b82aca2c,TCR,2024-06-25_14h22.44.457,LearnStrategy,2023.2.3,Win32,59.17159763,7,1,16,0.032638889,-0.009722222,1,0,0,0.8981,rock_grid_rect_2,7,5,-1,-1,0.898,0.1125,-0.399305556,1,0,0,1.5184,Peridotite_rect,7,1.518,1,15,0,15,0,1,,,,,,,,,,,,,
6660d6f7933410d8b82aca2c,TCR,2024-06-25_14h22.44.457,LearnStrategy,2023.2.3,Win32,59.17159763,7,2,1,,,,,,,,6,13,,,,,,,,,,,6,2.231,1,,,,,,-0.075,-0.409722222,1,0,0,2.2308,Pegmatite_rect,0,0,0,0,1,
6660d6f7933410d8b82aca2c,TCR,2024-06-25_14h22.44.457,LearnStrategy,2023.2.3,Win32,59.17159763,7,2,2,,,,,,,,5,6,,,,,,,,,,,5,1.164,1,,,,,,-0.328472222,-0.402083333,1,0,0,1.1642,Obsidian_rect,1,0,1,0,1,
6660d6f7933410d8b82aca2c,TCR,2024-06-25_14h22.44.457,LearnStrategy,2023.2.3,Win32,59.17159763,7,2,3,,,,,,,,4,16,,,,,,,,,,,4,3.117,1,,,,,,0.381944444,-0.236805556,1,0,0,3.1171,Gabbro_rect,2,0,2,0,1,
6660d6f7933410d8b82aca2c,TCR,2024-06-25_14h22.44.457,LearnStrategy,2023.2.3,Win32,59.17159763,7,2,4,,,,,,,,5,7,,,,,,,,,,,5,1.253,1,,,,,,-0.342361111,-0.4125,1,0,0,1.2531,Obsidian_rect,3,0,3,0,1,
6660d6f7933410d8b82aca2c,TCR,2024-06-25_14h22.44.457,LearnStrategy,2023.2.3,Win32,59.17159763,7,2,5,,,,,,,,8,15,,,,,,,,,,,8,1.363,1,,,,,,0.397916667,-0.417361111,1,0,0,1.3628,Pumice_rect,4,0,4,0,1,
6660d6f7933410d8b82aca2c,TCR,2024-06-25_14h22.44.457,LearnStrategy,2023.2.3,Win32,59.17159763,7,2,6,,,,,,,,1,3,,,,,,,,,,,1,4.952,1,,,,,,-0.375694444,-0.241666667,1,0,0,4.9519,Andesite_rect,5,0,5,0,1,
6660d6f7933410d8b82aca2c,TCR,2024-06-25_14h22.44.457,LearnStrategy,2023.2.3,Win32,59.17159763,7,2,7,,,,,,,,3,7,,,,,,,,,,,3,2.871,1,,,,,,0.14375,-0.258333333,1,0,0,2.8706,Diorite_rect,6,0,6,0,1,
6660d6f7933410d8b82aca2c,TCR,2024-06-25_14h22.44.457,LearnStrategy,2023.2.3,Win32,59.17159763,7,2,8,,,,,,,,2,1,,,,,,,,,,,2,1.477,1,,,,,,-0.071527778,-0.255555556,1,0,0,1.4774,Basalt_rect,7,0,7,0,1,
6660d6f7933410d8b82aca2c,TCR,2024-06-25_14h22.44.457,LearnStrategy,2023.2.3,Win32,59.17159763,7,2,9,,,,,,,,7,2,,,,,,,,,,,7,1.41,1,,,,,,0.133333333,-0.389583333,1,0,0,1.4102,Peridotite_rect,8,0,8,0,1,
6660d6f7933410d8b82aca2c,TCR,2024-06-25_14h22.44.457,LearnStrategy,2023.2.3,Win32,59.17159763,7,2,10,,,,,,,,4,12,,,,,,,,,,,4,1.648,1,,,,,,0.395138889,-0.271527778,1,0,0,1.6484,Gabbro_rect,9,0,9,0,1,
6660d6f7933410d8b82aca2c,TCR,2024-06-25_14h22.44.457,LearnStrategy,2023.2.3,Win32,59.17159763,7,2,11,,,,,,,,6,7,,,,,,,,,,,6,1.407,1,,,,,,-0.11875,-0.405555556,1,0,0,1.4072,Pegmatite_rect,10,0,10,0,1,
6660d6f7933410d8b82aca2c,TCR,2024-06-25_14h22.44.457,LearnStrategy,2023.2.3,Win32,59.17159763,7,2,12,,,,,,,,8,10,,,,,,,,,,,8,1.706,1,,,,,,0.388888889,-0.404861111,1,0,0,1.7058,Pumice_rect,11,0,11,0,1,
6660d6f7933410d8b82aca2c,TCR,2024-06-25_14h22.44.457,LearnStrategy,2023.2.3,Win32,59.17159763,7,2,13,,,,,,,,7,16,,,,,,,,,,,4,2.349,0,,,,,,0.381944444,-0.230555556,1,0,0,2.349,Gabbro_rect,12,0,12,0,1,
6660d6f7933410d8b82aca2c,TCR,2024-06-25_14h22.44.457,LearnStrategy,2023.2.3,Win32,59.17159763,7,2,14,,,,,,,,3,13,,,,,,,,,,,3,2.804,1,,,,,,0.151388889,-0.26875,1,0,0,2.8045,Diorite_rect,13,0,13,0,1,
6660d6f7933410d8b82aca2c,TCR,2024-06-25_14h22.44.457,LearnStrategy,2023.2.3,Win32,59.17159763,7,2,15,,,,,,,,1,1,,,,,,,,,,,4,19.88,0,,,,,,0.395833333,-0.244444444,1,0,0,19.8795,Gabbro_rect,14,0,14,0,1,
6660d6f7933410d8b82aca2c,TCR,2024-06-25_14h22.44.457,LearnStrategy,2023.2.3,Win32,59.17159763,7,2,16,,,,,,,,2,6,,,,,,,,,,,2,1.223,1,,,,,,-0.108333333,-0.270833333,1,0,0,1.223,Basalt_rect,15,0,15,0,1,
6660d6f7933410d8b82aca2c,TCR,2024-06-25_14h22.44.457,LearnStrategy,2023.2.3,Win32,59.17159763,8,1,1,0.027777778,0.010416667,1,0,0,1.0138,rock_grid_rect_2,6,3,-1,-1,1.014,-0.125,-0.390972222,1,0,0,1.7351,Pegmatite_rect,6,1.735,1,0,0,0,0,1,,,,,,,,,,,,,
6660d6f7933410d8b82aca2c,TCR,2024-06-25_14h22.44.457,LearnStrategy,2023.2.3,Win32,59.17159763,8,1,2,0.090972222,-0.001388889,1,0,0,1.4819,rock_grid_rect_2,7,8,-1,-1,1.482,0.122222222,-0.397222222,1,0,0,1.4245,Peridotite_rect,7,1.425,1,1,0,1,0,1,,,,,,,,,,,,,
6660d6f7933410d8b82aca2c,TCR,2024-06-25_14h22.44.457,LearnStrategy,2023.2.3,Win32,59.17159763,8,1,3,0.048611111,0.002777778,1,0,0,0.9774,rock_grid_rect_2,2,8,-1,-1,0.977,-0.09375,-0.261805556,1,0,0,1.2409,Basalt_rect,2,1.241,1,2,0,2,0,1,,,,,,,,,,,,,
6660d6f7933410d8b82aca2c,TCR,2024-06-25_14h22.44.457,LearnStrategy,2023.2.3,Win32,59.17159763,8,1,4,0.047916667,-0.003472222,1,0,0,0.9306,rock_grid_rect_2,5,11,-1,-1,0.931,-0.381944444,-0.388194444,1,0,0,1.1223,Obsidian_rect,5,1.122,1,3,0,3,0,1,,,,,,,,,,,,,
6660d6f7933410d8b82aca2c,TCR,2024-06-25_14h22.44.457,LearnStrategy,2023.2.3,Win32,59.17159763,8,1,5,-0.015972222,0.001388889,1,0,0,0.8435,rock_grid_rect_2,7,7,-1,-1,0.843,0.369444444,-0.263888889,1,0,0,6.2184,Gabbro_rect,4,6.218,0,4,0,4,0,1,,,,,,,,,,,,,
6660d6f7933410d8b82aca2c,TCR,2024-06-25_14h22.44.457,LearnStrategy,2023.2.3,Win32,59.17159763,8,1,6,0.088888889,-0.011805556,1,0,0,0.8951,rock_grid_rect_2,4,13,-1,-1,0.895,0.392361111,-0.234027778,1,0,0,1.262,Gabbro_rect,4,1.262,1,5,0,5,0,1,,,,,,,,,,,,,
6660d6f7933410d8b82aca2c,TCR,2024-06-25_14h22.44.457,LearnStrategy,2023.2.3,Win32,59.17159763,8,1,7,0.022222222,-0.007638889,1,0,0,0.8839,rock_grid_rect_2,8,16,-1,-1,0.884,0.302083333,-0.382638889,1,0,0,2.04,Pumice_rect,8,2.04,1,6,0,6,0,1,,,,,,,,,,,,,
6660d6f7933410d8b82aca2c,TCR,2024-06-25_14h22.44.457,LearnStrategy,2023.2.3,Win32,59.17159763,8,1,8,0.002777778,-0.013194444,1,0,0,2.0919,rock_grid_rect_2,2,4,-1,-1,2.092,-0.109027778,-0.249305556,1,0,0,1.7659,Basalt_rect,2,1.766,1,7,0,7,0,1,,,,,,,,,,,,,
6660d6f7933410d8b82aca2c,TCR,2024-06-25_14h22.44.457,LearnStrategy,2023.2.3,Win32,59.17159763,8,1,9,0.088194444,-0.000694444,1,0,0,3.8973,rock_grid_rect_2,4,11,-1,-1,3.897,0.411111111,-0.254861111,1,0,0,2.9606,Gabbro_rect,4,2.961,1,8,0,8,0,1,,,,,,,,,,,,,
6660d6f7933410d8b82aca2c,TCR,2024-06-25_14h22.44.457,LearnStrategy,2023.2.3,Win32,59.17159763,8,1,10,0.036805556,-0.011805556,1,0,0,0.8348,rock_grid_rect_2,3,12,-1,-1,0.835,0.127777778,-0.260416667,1,0,0,2.8387,Diorite_rect,3,2.839,1,9,0,9,0,1,,,,,,,,,,,,,
6660d6f7933410d8b82aca2c,TCR,2024-06-25_14h22.44.457,LearnStrategy,2023.2.3,Win32,59.17159763,8,1,11,0.038888889,-0.01875,1,0,0,0.9027,rock_grid_rect_2,3,9,-1,-1,0.903,0.107638889,-0.2625,1,0,0,2.1678,Diorite_rect,3,2.168,1,10,0,10,0,1,,,,,,,,,,,,,
6660d6f7933410d8b82aca2c,TCR,2024-06-25_14h22.44.457,LearnStrategy,2023.2.3,Win32,59.17159763,8,1,12,0.027777778,-0.004166667,1,0,0,1.0072,rock_grid_rect_2,8,2,-1,-1,1.007,0.372916667,-0.402777778,1,0,0,1.3041,Pumice_rect,8,1.304,1,11,0,11,0,1,,,,,,,,,,,,,
6660d6f7933410d8b82aca2c,TCR,2024-06-25_14h22.44.457,LearnStrategy,2023.2.3,Win32,59.17159763,8,1,13,0.043055556,-0.009722222,1,0,0,0.8433,rock_grid_rect_2,6,5,-1,-1,0.843,-0.132638889,-0.390277778,1,0,0,1.3061,Pegmatite_rect,6,1.306,1,12,0,12,0,1,,,,,,,,,,,,,
6660d6f7933410d8b82aca2c,TCR,2024-06-25_14h22.44.457,LearnStrategy,2023.2.3,Win32,59.17159763,8,1,14,0.054861111,0.000694444,1,0,0,0.7417,rock_grid_rect_2,1,9,-1,-1,0.742,-0.366666667,-0.259027778,1,0,0,1.4047,Andesite_rect,1,1.405,1,13,0,13,0,1,,,,,,,,,,,,,
6660d6f7933410d8b82aca2c,TCR,2024-06-25_14h22.44.457,LearnStrategy,2023.2.3,Win32,59.17159763,8,1,15,0.021527778,0.003472222,1,0,0,0.8536,rock_grid_rect_2,5,12,-1,-1,0.854,-0.363194444,-0.38125,1,0,0,1.3216,Obsidian_rect,5,1.322,1,14,0,14,0,1,,,,,,,,,,,,,
6660d6f7933410d8b82aca2c,TCR,2024-06-25_14h22.44.457,LearnStrategy,2023.2.3,Win32,59.17159763,8,1,16,0.004861111,0.009027778,1,0,0,1.1691,rock_grid_rect_2,1,14,-1,-1,1.169,-0.081944444,-0.406944444,1,0,0,9.6343,Pegmatite_rect,6,9.634,0,15,0,15,0,1,,,,,,,,,,,,,
6660d6f7933410d8b82aca2c,TCR,2024-06-25_14h22.44.457,LearnStrategy,2023.2.3,Win32,59.17159763,8,2,1,,,,,,,,3,2,,,,,,,,,,,3,16.275,1,,,,,,0.097916667,-0.245833333,1,0,0,16.2749,Diorite_rect,0,0,0,0,1,
6660d6f7933410d8b82aca2c,TCR,2024-06-25_14h22.44.457,LearnStrategy,2023.2.3,Win32,59.17159763,8,2,2,,,,,,,,3,10,,,,,,,,,,,1,3.986,0,,,,,,-0.352777778,-0.261111111,1,0,0,3.9858,Andesite_rect,1,0,1,0,1,
6660d6f7933410d8b82aca2c,TCR,2024-06-25_14h22.44.457,LearnStrategy,2023.2.3,Win32,59.17159763,8,2,3,,,,,,,,4,10,,,,,,,,,,,4,3.01,1,,,,,,0.351388889,-0.261111111,1,0,0,3.0096,Gabbro_rect,2,0,2,0,1,
6660d6f7933410d8b82aca2c,TCR,2024-06-25_14h22.44.457,LearnStrategy,2023.2.3,Win32,59.17159763,8,2,4,,,,,,,,7,10,,,,,,,,,,,7,1.358,1,,,,,,0.140972222,-0.392361111,1,0,0,1.3583,Peridotite_rect,3,0,3,0,1,
6660d6f7933410d8b82aca2c,TCR,2024-06-25_14h22.44.457,LearnStrategy,2023.2.3,Win32,59.17159763,8,2,5,,,,,,,,6,15,,,,,,,,,,,6,1.132,1,,,,,,-0.084722222,-0.3875,1,0,0,1.1319,Pegmatite_rect,4,0,4,0,1,
6660d6f7933410d8b82aca2c,TCR,2024-06-25_14h22.44.457,LearnStrategy,2023.2.3,Win32,59.17159763,8,2,6,,,,,,,,8,4,,,,,,,,,,,8,1.174,1,,,,,,0.367361111,-0.395833333,1,0,0,1.1741,Pumice_rect,5,0,5,0,1,
6660d6f7933410d8b82aca2c,TCR,2024-06-25_14h22.44.457,LearnStrategy,2023.2.3,Win32,59.17159763,8,2,7,,,,,,,,1,11,,,,,,,,,,,6,2.027,0,,,,,,-0.082638889,-0.399305556,1,0,0,2.0268,Pegmatite_rect,6,0,6,0,1,
6660d6f7933410d8b82aca2c,TCR,2024-06-25_14h22.44.457,LearnStrategy,2023.2.3,Win32,59.17159763,8,2,8,,,,,,,,5,14,,,,,,,,,,,5,1.137,1,,,,,,-0.355555556,-0.3875,1,0,0,1.1373,Obsidian_rect,7,0,7,0,1,
6660d6f7933410d8b82aca2c,TCR,2024-06-25_14h22.44.457,LearnStrategy,2023.2.3,Win32,59.17159763,8,2,9,,,,,,,,2,2,,,,,,,,,,,2,1.214,1,,,,,,-0.158333333,-0.26875,1,0,0,1.2136,Basalt_rect,8,0,8,0,1,
6660d6f7933410d8b82aca2c,TCR,2024-06-25_14h22.44.457,LearnStrategy,2023.2.3,Win32,59.17159763,8,2,10,,,,,,,,2,16,,,,,,,,,,,4,1.741,0,,,,,,0.3875,-0.252083333,1,0,0,1.7406,Gabbro_rect,9,0,9,0,1,
6660d6f7933410d8b82aca2c,TCR,2024-06-25_14h22.44.457,LearnStrategy,2023.2.3,Win32,59.17159763,8,2,11,,,,,,,,7,12,,,,,,,,,,,7,2.016,1,,,,,,0.148611111,-0.409027778,1,0,0,2.016,Peridotite_rect,10,0,10,0,1,
6660d6f7933410d8b82aca2c,TCR,2024-06-25_14h22.44.457,LearnStrategy,2023.2.3,Win32,59.17159763,8,2,12,,,,,,,,6,10,,,,,,,,,,,6,1.12,1,,,,,,-0.116666667,-0.398611111,1,0,0,1.1199,Pegmatite_rect,11,0,11,0,1,
6660d6f7933410d8b82aca2c,TCR,2024-06-25_14h22.44.457,LearnStrategy,2023.2.3,Win32,59.17159763,8,2,13,,,,,,,,5,4,,,,,,,,,,,5,1.028,1,,,,,,-0.341666667,-0.402777778,1,0,0,1.028,Obsidian_rect,12,0,12,0,1,
6660d6f7933410d8b82aca2c,TCR,2024-06-25_14h22.44.457,LearnStrategy,2023.2.3,Win32,59.17159763,8,2,14,,,,,,,,8,8,,,,,,,,,,,8,1.193,1,,,,,,0.370138889,-0.405555556,1,0,0,1.1927,Pumice_rect,13,0,13,0,1,
6660d6f7933410d8b82aca2c,TCR,2024-06-25_14h22.44.457,LearnStrategy,2023.2.3,Win32,59.17159763,8,2,15,,,,,,,,1,7,,,,,,,,,,,1,7.49,1,,,,,,-0.382638889,-0.259722222,1,0,0,7.4896,Andesite_rect,14,0,14,0,1,
6660d6f7933410d8b82aca2c,TCR,2024-06-25_14h22.44.457,LearnStrategy,2023.2.3,Win32,59.17159763,8,2,16,,,,,,,,4,5,,,,,,,,,,,4,1.666,1,,,,,,0.425694444,-0.259027778,1,0,0,1.6663,Gabbro_rect,15,0,15,0,1,
6660d6f7933410d8b82aca2c,TCR,2024-06-25_14h22.44.457,LearnStrategy,2023.2.3,Win32,59.17159763,9,1,1,0.092361111,-0.015972222,1,0,0,1.4327,rock_grid_rect_2,5,2,-1,-1,1.433,-0.357638889,-0.404166667,1,0,0,1.4549,Obsidian_rect,5,1.455,1,0,0,0,0,1,,,,,,,,,,,,,
6660d6f7933410d8b82aca2c,TCR,2024-06-25_14h22.44.457,LearnStrategy,2023.2.3,Win32,59.17159763,9,1,2,0.093055556,-0.008333333,1,0,0,1.1545,rock_grid_rect_2,2,9,-1,-1,1.154,-0.089583333,-0.249305556,1,0,0,1.2236,Basalt_rect,2,1.224,1,1,0,1,0,1,,,,,,,,,,,,,
6660d6f7933410d8b82aca2c,TCR,2024-06-25_14h22.44.457,LearnStrategy,2023.2.3,Win32,59.17159763,9,1,3,0.058333333,-0.013888889,1,0,0,0.9749,rock_grid_rect_2,1,4,-1,-1,0.975,0.368055556,-0.25625,1,0,0,7.903,Gabbro_rect,4,7.903,0,2,0,2,0,1,,,,,,,,,,,,,
6660d6f7933410d8b82aca2c,TCR,2024-06-25_14h22.44.457,LearnStrategy,2023.2.3,Win32,59.17159763,9,1,4,0.1125,0.000694444,1,0,0,1.2388,rock_grid_rect_2,3,15,-1,-1,1.239,0.115277778,-0.25,1,0,0,2.3401,Diorite_rect,3,2.34,1,3,0,3,0,1,,,,,,,,,,,,,
6660d6f7933410d8b82aca2c,TCR,2024-06-25_14h22.44.457,LearnStrategy,2023.2.3,Win32,59.17159763,9,1,5,0.018055556,-0.014583333,1,0,0,0.7144,rock_grid_rect_2,5,8,-1,-1,0.714,-0.335416667,-0.405555556,1,0,0,1.5636,Obsidian_rect,5,1.564,1,4,0,4,0,1,,,,,,,,,,,,,
6660d6f7933410d8b82aca2c,TCR,2024-06-25_14h22.44.457,LearnStrategy,2023.2.3,Win32,59.17159763,9,1,6,0.0875,-0.018055556,1,0,0,1.0048,rock_grid_rect_2,8,6,-1,-1,1.005,0.434027778,-0.39375,1,0,0,1.1399,Pumice_rect,8,1.14,1,5,0,5,0,1,,,,,,,,,,,,,
6660d6f7933410d8b82aca2c,TCR,2024-06-25_14h22.44.457,LearnStrategy,2023.2.3,Win32,59.17159763,9,1,7,0.03125,-0.007638889,1,0,0,0.8066,rock_grid_rect_2,2,14,-1,-1,0.807,-0.073611111,-0.253472222,1,0,0,1.8882,Basalt_rect,2,1.888,1,6,0,6,0,1,,,,,,,,,,,,,
6660d6f7933410d8b82aca2c,TCR,2024-06-25_14h22.44.457,LearnStrategy,2023.2.3,Win32,59.17159763,9,1,8,0.082638889,0.005555556,1,0,0,0.9089,rock_grid_rect_2,7,4,-1,-1,0.909,-0.107638889,-0.411111111,1,0,0,4.6083,Pegmatite_rect,6,4.608,0,7,0,7,0,1,,,,,,,,,,,,,
6660d6f7933410d8b82aca2c,TCR,2024-06-25_14h22.44.457,LearnStrategy,2023.2.3,Win32,59.17159763,9,1,9,0.13125,0.013888889,1,0,0,1.5846,rock_grid_rect_2,6,8,-1,-1,1.585,-0.123611111,-0.389583333,1,0,0,1.2621,Pegmatite_rect,6,1.262,1,8,0,8,0,1,,,,,,,,,,,,,
6660d6f7933410d8b82aca2c,TCR,2024-06-25_14h22.44.457,LearnStrategy,2023.2.3,Win32,59.17159763,9,1,10,0.079166667,-0.011111111,1,0,0,1.1647,rock_grid_rect_2,7,6,-1,-1,1.165,0.097916667,-0.388888889,1,0,0,1.2123,Peridotite_rect,7,1.212,1,9,0,9,0,1,,,,,,,,,,,,,
6660d6f7933410d8b82aca2c,TCR,2024-06-25_14h22.44.457,LearnStrategy,2023.2.3,Win32,59.17159763,9,1,11,0.061111111,-0.017361111,1,0,0,1.3321,rock_grid_rect_2,1,2,-1,-1,1.332,-0.340972222,-0.244444444,1,0,0,2.7244,Andesite_rect,1,2.724,1,10,0,10,0,1,,,,,,,,,,,,,
6660d6f7933410d8b82aca2c,TCR,2024-06-25_14h22.44.457,LearnStrategy,2023.2.3,Win32,59.17159763,9,1,12,0.049305556,-0.006944444,1,0,0,1.119,rock_grid_rect_2,8,3,-1,-1,1.119,0.420833333,-0.396527778,1,0,0,1.2249,Pumice_rect,8,1.225,1,11,0,11,0,1,,,,,,,,,,,,,
6660d6f7933410d8b82aca2c,TCR,2024-06-25_14h22.44.457,LearnStrategy,2023.2.3,Win32,59.17159763,9,1,13,0.031944444,-0.021527778,1,0,0,0.7663,rock_grid_rect_2,6,9,-1,-1,0.766,-0.122222222,-0.4,1,0,0,1.2435,Pegmatite_rect,6,1.244,1,12,0,12,0,1,,,,,,,,,,,,,
6660d6f7933410d8b82aca2c,TCR,2024-06-25_14h22.44.457,LearnStrategy,2023.2.3,Win32,59.17159763,9,1,14,0.136805556,-0.01875,1,0,0,0.8331,rock_grid_rect_2,4,14,-1,-1,0.833,0.409722222,-0.2375,1,0,0,1.565,Gabbro_rect,4,1.565,1,13,0,13,0,1,,,,,,,,,,,,,
6660d6f7933410d8b82aca2c,TCR,2024-06-25_14h22.44.457,LearnStrategy,2023.2.3,Win32,59.17159763,9,1,15,0.013194444,0.005555556,1,0,0,0.9293,rock_grid_rect_2,4,3,-1,-1,0.929,0.180555556,-0.244444444,1,0,0,3.1541,Diorite_rect,3,3.154,0,14,0,14,0,1,,,,,,,,,,,,,
6660d6f7933410d8b82aca2c,TCR,2024-06-25_14h22.44.457,LearnStrategy,2023.2.3,Win32,59.17159763,9,1,16,0.110416667,-0.01875,1,0,0,0.8554,rock_grid_rect_2,3,8,-1,-1,0.855,0.123611111,-0.243055556,1,0,0,1.0978,Diorite_rect,3,1.098,1,15,0,15,0,1,,,,,,,,,,,,,
6660d6f7933410d8b82aca2c,TCR,2024-06-25_14h22.44.457,LearnStrategy,2023.2.3,Win32,59.17159763,9,2,1,,,,,,,,5,16,,,,,,,,,,,5,1.271,1,,,,,,-0.354861111,-0.409027778,1,0,0,1.2705,Obsidian_rect,0,0,0,0,1,
6660d6f7933410d8b82aca2c,TCR,2024-06-25_14h22.44.457,LearnStrategy,2023.2.3,Win32,59.17159763,9,2,2,,,,,,,,5,9,,,,,,,,,,,5,1.245,1,,,,,,-0.363194444,-0.409027778,1,0,0,1.2449,Obsidian_rect,1,0,1,0,1,
6660d6f7933410d8b82aca2c,TCR,2024-06-25_14h22.44.457,LearnStrategy,2023.2.3,Win32,59.17159763,9,2,3,,,,,,,,8,9,,,,,,,,,,,8,1.182,1,,,,,,0.375694444,-0.395138889,1,0,0,1.1816,Pumice_rect,2,0,2,0,1,
6660d6f7933410d8b82aca2c,TCR,2024-06-25_14h22.44.457,LearnStrategy,2023.2.3,Win32,59.17159763,9,2,4,,,,,,,,8,5,,,,,,,,,,,8,0.924,1,,,,,,0.375694444,-0.395833333,1,0,0,0.9238,Pumice_rect,3,0,3,0,1,
6660d6f7933410d8b82aca2c,TCR,2024-06-25_14h22.44.457,LearnStrategy,2023.2.3,Win32,59.17159763,9,2,5,,,,,,,,2,5,,,,,,,,,,,2,1.589,1,,,,,,-0.058333333,-0.265277778,1,0,0,1.5894,Basalt_rect,4,0,4,0,1,
6660d6f7933410d8b82aca2c,TCR,2024-06-25_14h22.44.457,LearnStrategy,2023.2.3,Win32,59.17159763,9,2,6,,,,,,,,6,16,,,,,,,,,,,6,1.341,1,,,,,,-0.077777778,-0.402777778,1,0,0,1.3413,Pegmatite_rect,5,0,5,0,1,
6660d6f7933410d8b82aca2c,TCR,2024-06-25_14h22.44.457,LearnStrategy,2023.2.3,Win32,59.17159763,9,2,7,,,,,,,,3,6,,,,,,,,,,,1,14.23,0,,,,,,-0.342361111,-0.253472222,1,0,0,14.2295,Andesite_rect,6,0,6,0,1,
6660d6f7933410d8b82aca2c,TCR,2024-06-25_14h22.44.457,LearnStrategy,2023.2.3,Win32,59.17159763,9,2,8,,,,,,,,4,9,,,,,,,,,,,4,2.81,1,,,,,,0.3875,-0.259722222,1,0,0,2.8097,Gabbro_rect,7,0,7,0,1,
6660d6f7933410d8b82aca2c,TCR,2024-06-25_14h22.44.457,LearnStrategy,2023.2.3,Win32,59.17159763,9,2,9,,,,,,,,6,11,,,,,,,,,,,6,1.349,1,,,,,,-0.125,-0.395833333,1,0,0,1.3488,Pegmatite_rect,8,0,8,0,1,
6660d6f7933410d8b82aca2c,TCR,2024-06-25_14h22.44.457,LearnStrategy,2023.2.3,Win32,59.17159763,9,2,10,,,,,,,,2,12,,,,,,,,,,,2,2.089,1,,,,,,-0.097916667,-0.266666667,1,0,0,2.0886,Basalt_rect,9,0,9,0,1,
6660d6f7933410d8b82aca2c,TCR,2024-06-25_14h22.44.457,LearnStrategy,2023.2.3,Win32,59.17159763,9,2,11,,,,,,,,7,15,,,,,,,,,,,7,1.463,1,,,,,,0.129166667,-0.400694444,1,0,0,1.4627,Peridotite_rect,10,0,10,0,1,
6660d6f7933410d8b82aca2c,TCR,2024-06-25_14h22.44.457,LearnStrategy,2023.2.3,Win32,59.17159763,9,2,12,,,,,,,,4,15,,,,,,,,,,,4,2.662,1,,,,,,0.378472222,-0.251388889,1,0,0,2.6622,Gabbro_rect,11,0,11,0,1,
6660d6f7933410d8b82aca2c,TCR,2024-06-25_14h22.44.457,LearnStrategy,2023.2.3,Win32,59.17159763,9,2,13,,,,,,,,1,6,,,,,,,,,,,1,3.101,1,,,,,,-0.35625,-0.25625,1,0,0,3.101,Andesite_rect,12,0,12,0,1,
6660d6f7933410d8b82aca2c,TCR,2024-06-25_14h22.44.457,LearnStrategy,2023.2.3,Win32,59.17159763,9,2,14,,,,,,,,7,14,,,,,,,,,,,4,4.11,0,,,,,,0.419444444,-0.25625,1,0,0,4.11,Gabbro_rect,13,0,13,0,1,
6660d6f7933410d8b82aca2c,TCR,2024-06-25_14h22.44.457,LearnStrategy,2023.2.3,Win32,59.17159763,9,2,15,,,,,,,,1,10,,,,,,,,,,,1,9.157,1,,,,,,-0.336805556,-0.263194444,1,0,0,9.1575,Andesite_rect,14,0,14,0,1,
6660d6f7933410d8b82aca2c,TCR,2024-06-25_14h22.44.457,LearnStrategy,2023.2.3,Win32,59.17159763,9,2,16,,,,,,,,3,11,,,,,,,,,,,3,1.269,1,,,,,,0.147916667,-0.240972222,1,0,0,1.2692,Diorite_rect,15,0,15,0,1,
6660d6f7933410d8b82aca2c,TCR,2024-06-25_14h22.44.457,LearnStrategy,2023.2.3,Win32,59.17159763,,,,,,,,,,,,,,,,,,,,,,,,,,,,,,,,,,,,,,,,,,,1
6660d6f7933410d8b82aca2c,TCR,2024-06-25_14h22.44.457,LearnStrategy,2023.2.3,Win32,59.17159763,,,,,,,,,,,,,,,,,,,,,,,,,,,,,,,,,,,,,,,,,,,
6660d6f7933410d8b82aca2c,TCR,2024-06-25_14h22.44.457,LearnStrategy,2023.2.3,Win32,59.17159763,,,,,,,,,,,1,2,1,1,,,,,,,,,,,,,,,,,,,,,,,,,,,,,
6660d6f7933410d8b82aca2c,TCR,2024-06-25_14h22.44.457,LearnStrategy,2023.2.3,Win32,59.17159763,,,,,,,,,,,7,13,1,2,,,,,,,,,,,,,,,,,,,,,,,,,,,,,
6660d6f7933410d8b82aca2c,TCR,2024-06-25_14h22.44.457,LearnStrategy,2023.2.3,Win32,59.17159763,,,,,,,,,,,4,14,1,3,,,,,,,,,,,,,,,,,,,,,,,,,,,,,
6660d6f7933410d8b82aca2c,TCR,2024-06-25_14h22.44.457,LearnStrategy,2023.2.3,Win32,59.17159763,,,,,,,,,,,4,11,1,4,,,,,,,,,,,,,,,,,,,,,,,,,,,,,
6660d6f7933410d8b82aca2c,TCR,2024-06-25_14h22.44.457,LearnStrategy,2023.2.3,Win32,59.17159763,,,,,,,,,,,2,9,1,5,,,,,,,,,,,,,,,,,,,,,,,,,,,,,
6660d6f7933410d8b82aca2c,TCR,2024-06-25_14h22.44.457,LearnStrategy,2023.2.3,Win32,59.17159763,,,,,,,,,,,2,8,1,6,,,,,,,,,,,,,,,,,,,,,,,,,,,,,
6660d6f7933410d8b82aca2c,TCR,2024-06-25_14h22.44.457,LearnStrategy,2023.2.3,Win32,59.17159763,,,,,,,,,,,7,6,1,7,,,,,,,,,,,,,,,,,,,,,,,,,,,,,
6660d6f7933410d8b82aca2c,TCR,2024-06-25_14h22.44.457,LearnStrategy,2023.2.3,Win32,59.17159763,,,,,,,,,,,8,13,1,8,,,,,,,,,,,,,,,,,,,,,,,,,,,,,
6660d6f7933410d8b82aca2c,TCR,2024-06-25_14h22.44.457,LearnStrategy,2023.2.3,Win32,59.17159763,,,,,,,,,,,6,5,2,1,,,,,,,,,,,,,,,,,,,,,,,,,,,,,
6660d6f7933410d8b82aca2c,TCR,2024-06-25_14h22.44.457,LearnStrategy,2023.2.3,Win32,59.17159763,,,,,,,,,,,7,5,2,2,,,,,,,,,,,,,,,,,,,,,,,,,,,,,
6660d6f7933410d8b82aca2c,TCR,2024-06-25_14h22.44.457,LearnStrategy,2023.2.3,Win32,59.17159763,,,,,,,,,,,6,12,2,3,,,,,,,,,,,,,,,,,,,,,,,,,,,,,
6660d6f7933410d8b82aca2c,TCR,2024-06-25_14h22.44.457,LearnStrategy,2023.2.3,Win32,59.17159763,,,,,,,,,,,5,10,2,4,,,,,,,,,,,,,,,,,,,,,,,,,,,,,
6660d6f7933410d8b82aca2c,TCR,2024-06-25_14h22.44.457,LearnStrategy,2023.2.3,Win32,59.17159763,,,,,,,,,,,8,2,2,5,,,,,,,,,,,,,,,,,,,,,,,,,,,,,
6660d6f7933410d8b82aca2c,TCR,2024-06-25_14h22.44.457,LearnStrategy,2023.2.3,Win32,59.17159763,,,,,,,,,,,2,10,2,6,,,,,,,,,,,,,,,,,,,,,,,,,,,,,
6660d6f7933410d8b82aca2c,TCR,2024-06-25_14h22.44.457,LearnStrategy,2023.2.3,Win32,59.17159763,,,,,,,,,,,5,5,2,7,,,,,,,,,,,,,,,,,,,,,,,,,,,,,
6660d6f7933410d8b82aca2c,TCR,2024-06-25_14h22.44.457,LearnStrategy,2023.2.3,Win32,59.17159763,,,,,,,,,,,3,15,2,8,,,,,,,,,,,,,,,,,,,,,,,,,,,,,
6660d6f7933410d8b82aca2c,TCR,2024-06-25_14h22.44.457,LearnStrategy,2023.2.3,Win32,59.17159763,,,,,,,,,,,5,2,3,1,,,,,,,,,,,,,,,,,,,,,,,,,,,,,
6660d6f7933410d8b82aca2c,TCR,2024-06-25_14h22.44.457,LearnStrategy,2023.2.3,Win32,59.17159763,,,,,,,,,,,7,7,3,2,,,,,,,,,,,,,,,,,,,,,,,,,,,,,
6660d6f7933410d8b82aca2c,TCR,2024-06-25_14h22.44.457,LearnStrategy,2023.2.3,Win32,59.17159763,,,,,,,,,,,6,8,3,3,,,,,,,,,,,,,,,,,,,,,,,,,,,,,
6660d6f7933410d8b82aca2c,TCR,2024-06-25_14h22.44.457,LearnStrategy,2023.2.3,Win32,59.17159763,,,,,,,,,,,4,3,3,4,,,,,,,,,,,,,,,,,,,,,,,,,,,,,
6660d6f7933410d8b82aca2c,TCR,2024-06-25_14h22.44.457,LearnStrategy,2023.2.3,Win32,59.17159763,,,,,,,,,,,2,11,3,5,,,,,,,,,,,,,,,,,,,,,,,,,,,,,
6660d6f7933410d8b82aca2c,TCR,2024-06-25_14h22.44.457,LearnStrategy,2023.2.3,Win32,59.17159763,,,,,,,,,,,3,16,3,6,,,,,,,,,,,,,,,,,,,,,,,,,,,,,
6660d6f7933410d8b82aca2c,TCR,2024-06-25_14h22.44.457,LearnStrategy,2023.2.3,Win32,59.17159763,,,,,,,,,,,2,14,3,7,,,,,,,,,,,,,,,,,,,,,,,,,,,,,
6660d6f7933410d8b82aca2c,TCR,2024-06-25_14h22.44.457,LearnStrategy,2023.2.3,Win32,59.17159763,,,,,,,,,,,6,6,3,8,,,,,,,,,,,,,,,,,,,,,,,,,,,,,
6660d6f7933410d8b82aca2c,TCR,2024-06-25_14h22.44.457,LearnStrategy,2023.2.3,Win32,59.17159763,,,,,,,,,,,2,4,4,1,,,,,,,,,,,,,,,,,,,,,,,,,,,,,
6660d6f7933410d8b82aca2c,TCR,2024-06-25_14h22.44.457,LearnStrategy,2023.2.3,Win32,59.17159763,,,,,,,,,,,8,6,4,2,,,,,,,,,,,,,,,,,,,,,,,,,,,,,
6660d6f7933410d8b82aca2c,TCR,2024-06-25_14h22.44.457,LearnStrategy,2023.2.3,Win32,59.17159763,,,,,,,,,,,1,4,4,3,,,,,,,,,,,,,,,,,,,,,,,,,,,,,
6660d6f7933410d8b82aca2c,TCR,2024-06-25_14h22.44.457,LearnStrategy,2023.2.3,Win32,59.17159763,,,,,,,,,,,3,14,4,4,,,,,,,,,,,,,,,,,,,,,,,,,,,,,
6660d6f7933410d8b82aca2c,TCR,2024-06-25_14h22.44.457,LearnStrategy,2023.2.3,Win32,59.17159763,,,,,,,,,,,8,3,4,5,,,,,,,,,,,,,,,,,,,,,,,,,,,,,
6660d6f7933410d8b82aca2c,TCR,2024-06-25_14h22.44.457,LearnStrategy,2023.2.3,Win32,59.17159763,,,,,,,,,,,6,3,4,6,,,,,,,,,,,,,,,,,,,,,,,,,,,,,
6660d6f7933410d8b82aca2c,TCR,2024-06-25_14h22.44.457,LearnStrategy,2023.2.3,Win32,59.17159763,,,,,,,,,,,3,8,4,7,,,,,,,,,,,,,,,,,,,,,,,,,,,,,
6660d6f7933410d8b82aca2c,TCR,2024-06-25_14h22.44.457,LearnStrategy,2023.2.3,Win32,59.17159763,,,,,,,,,,,4,13,4,8,,,,,,,,,,,,,,,,,,,,,,,,,,,,,
6660d6f7933410d8b82aca2c,TCR,2024-06-25_14h22.44.457,LearnStrategy,2023.2.3,Win32,59.17159763,,,,,,,,,,,4,1,5,1,,,,,,,,,,,,,,,,,,,,,,,,,,,,,
6660d6f7933410d8b82aca2c,TCR,2024-06-25_14h22.44.457,LearnStrategy,2023.2.3,Win32,59.17159763,,,,,,,,,,,8,16,5,2,,,,,,,,,,,,,,,,,,,,,,,,,,,,,
6660d6f7933410d8b82aca2c,TCR,2024-06-25_14h22.44.457,LearnStrategy,2023.2.3,Win32,59.17159763,,,,,,,,,,,3,12,5,3,,,,,,,,,,,,,,,,,,,,,,,,,,,,,
6660d6f7933410d8b82aca2c,TCR,2024-06-25_14h22.44.457,LearnStrategy,2023.2.3,Win32,59.17159763,,,,,,,,,,,4,8,5,4,,,,,,,,,,,,,,,,,,,,,,,,,,,,,
6660d6f7933410d8b82aca2c,TCR,2024-06-25_14h22.44.457,LearnStrategy,2023.2.3,Win32,59.17159763,,,,,,,,,,,7,8,5,5,,,,,,,,,,,,,,,,,,,,,,,,,,,,,
6660d6f7933410d8b82aca2c,TCR,2024-06-25_14h22.44.457,LearnStrategy,2023.2.3,Win32,59.17159763,,,,,,,,,,,1,14,5,6,,,,,,,,,,,,,,,,,,,,,,,,,,,,,
6660d6f7933410d8b82aca2c,TCR,2024-06-25_14h22.44.457,LearnStrategy,2023.2.3,Win32,59.17159763,,,,,,,,,,,1,9,5,7,,,,,,,,,,,,,,,,,,,,,,,,,,,,,
6660d6f7933410d8b82aca2c,TCR,2024-06-25_14h22.44.457,LearnStrategy,2023.2.3,Win32,59.17159763,,,,,,,,,,,5,12,5,8,,,,,,,,,,,,,,,,,,,,,,,,,,,,,
6660d6f7933410d8b82aca2c,TCR,2024-06-25_14h22.44.457,LearnStrategy,2023.2.3,Win32,59.17159763,,,,,,,,,,,5,11,6,1,,,,,,,,,,,,,,,,,,,,,,,,,,,,,
6660d6f7933410d8b82aca2c,TCR,2024-06-25_14h22.44.457,LearnStrategy,2023.2.3,Win32,59.17159763,,,,,,,,,,,6,9,6,2,,,,,,,,,,,,,,,,,,,,,,,,,,,,,
6660d6f7933410d8b82aca2c,TCR,2024-06-25_14h22.44.457,LearnStrategy,2023.2.3,Win32,59.17159763,,,,,,,,,,,1,16,6,3,,,,,,,,,,,,,,,,,,,,,,,,,,,,,
6660d6f7933410d8b82aca2c,TCR,2024-06-25_14h22.44.457,LearnStrategy,2023.2.3,Win32,59.17159763,,,,,,,,,,,7,4,6,4,,,,,,,,,,,,,,,,,,,,,,,,,,,,,
6660d6f7933410d8b82aca2c,TCR,2024-06-25_14h22.44.457,LearnStrategy,2023.2.3,Win32,59.17159763,,,,,,,,,,,5,8,6,5,,,,,,,,,,,,,,,,,,,,,,,,,,,,,
6660d6f7933410d8b82aca2c,TCR,2024-06-25_14h22.44.457,LearnStrategy,2023.2.3,Win32,59.17159763,,,,,,,,,,,3,9,6,6,,,,,,,,,,,,,,,,,,,,,,,,,,,,,
6660d6f7933410d8b82aca2c,TCR,2024-06-25_14h22.44.457,LearnStrategy,2023.2.3,Win32,59.17159763,,,,,,,,,,,8,14,6,7,,,,,,,,,,,,,,,,,,,,,,,,,,,,,
6660d6f7933410d8b82aca2c,TCR,2024-06-25_14h22.44.457,LearnStrategy,2023.2.3,Win32,59.17159763,,,,,,,,,,,1,5,6,8,,,,,,,,,,,,,,,,,,,,,,,,,,,,,
