participant,condition,date,expName,psychopyVersion,OS,frameRate,block,phase,trial,learn_mouse.x,learn_mouse.y,learn_mouse.leftButton,learn_mouse.midButton,learn_mouse.rightButton,learn_mouse.time,learn_mouse.clicked_name,cat,token,row,col,t_select,cat_rec,token_rec,cat_mouse_l.x,cat_mouse_l.y,cat_mouse_l.leftButton,cat_mouse_l.midButton,cat_mouse_l.rightButton,cat_mouse_l.time,cat_mouse_l.clicked_name,resp,t_resp,corr,train_trials.thisRepN,train_trials.thisTrialN,train_trials.thisN,train_trials.thisIndex,train_trials.ran,cat_mouse_t.x,cat_mouse_t.y,cat_mouse_t.leftButton,cat_mouse_t.midButton,cat_mouse_t.rightButton,cat_mouse_t.time,cat_mouse_t.clicked_name,test_trials.thisRepN,test_trials.thisTrialN,test_trials.thisN,test_trials.thisIndex,test_trials.ran,Bonus
66601438206fb7fc6c48a81f,SCR,2024-06-11_12h12.04.349,LearnStrategy,2023.2.3,Win32,60.06006006,,,,,,,,,,,,,,,,,,,,,,,,,,,,,,,,,,,,,,,,,,,,,
66601438206fb7fc6c48a81f,SCR,2024-06-11_12h12.04.349,LearnStrategy,2023.2.3,Win32,60.06006006,1,1,1,0.576666667,0.096666667,1,0,0,5.9134,Andesite_09,1,09,4,8,5.913,1,09,-0.101111111,-0.25,1,0,0,10.8868,Basalt_rect,2,10.887,0,0,0,0,0,1,,,,,,,,,,,,,
66601438206fb7fc6c48a81f,SCR,2024-06-11_12h12.04.349,LearnStrategy,2023.2.3,Win32,60.06006006,1,1,2,0.202222222,-0.215555556,1,0,0,7.3198,Pegmatite_15,6,15,2,6,7.32,6,15,-0.07,-0.265555556,1,0,0,8.3816,Basalt_rect,2,8.382,0,1,0,1,0,1,,,,,,,,,,,,,
66601438206fb7fc6c48a81f,SCR,2024-06-11_12h12.04.349,LearnStrategy,2023.2.3,Win32,60.06006006,1,1,3,-0.523333333,0.231111111,1,0,0,2.2413,Gabbro_08,4,08,5,1,2.241,4,08,0.134444444,-0.237777778,1,0,0,3.2509,Diorite_rect,3,3.251,0,2,0,2,0,1,,,,,,,,,,,,,
66601438206fb7fc6c48a81f,SCR,2024-06-11_12h12.04.349,LearnStrategy,2023.2.3,Win32,60.06006006,1,1,4,0.364444444,-0.392222222,1,0,0,2.4627,Pegmatite_07,6,07,1,7,2.463,6,07,-0.334444444,-0.401111111,1,0,0,6.5913,Obsidian_rect,5,6.591,0,3,0,3,0,1,,,,,,,,,,,,,
66601438206fb7fc6c48a81f,SCR,2024-06-11_12h12.04.349,LearnStrategy,2023.2.3,Win32,60.06006006,1,1,5,0.068888889,-0.244444444,1,0,0,1.4847,Obsidian_09,5,09,2,5,1.485,5,09,0.385555556,-0.397777778,1,0,0,4.7822,Pumice_rect,8,4.782,0,4,0,4,0,1,,,,,,,,,,,,,
66601438206fb7fc6c48a81f,SCR,2024-06-11_12h12.04.349,LearnStrategy,2023.2.3,Win32,60.06006006,1,1,6,0.394444444,0.238888889,1,0,0,12.2348,Obsidian_06,5,06,5,7,12.235,5,06,-0.376666667,-0.396666667,1,0,0,2.5133,Obsidian_rect,5,2.513,1,5,0,5,0,1,,,,,,,,,,,,,
66601438206fb7fc6c48a81f,SCR,2024-06-11_12h12.04.349,LearnStrategy,2023.2.3,Win32,60.06006006,1,1,7,0.422222222,0.091111111,1,0,0,1.4246,Basalt_14,2,14,4,7,1.425,2,14,-0.358888889,-0.248888889,1,0,0,4.7181,Andesite_rect,1,4.718,0,6,0,6,0,1,,,,,,,,,,,,,
66601438206fb7fc6c48a81f,SCR,2024-06-11_12h12.04.349,LearnStrategy,2023.2.3,Win32,60.06006006,1,1,8,-0.375555556,0.085555556,1,0,0,1.9772,Andesite_01,1,01,4,2,1.977,1,01,-0.342222222,-0.257777778,1,0,0,13.4566,Andesite_rect,1,13.457,1,7,0,7,0,1,,,,,,,,,,,,,
66601438206fb7fc6c48a81f,SCR,2024-06-11_12h12.04.349,LearnStrategy,2023.2.3,Win32,60.06006006,1,1,9,0.221111111,0.096666667,1,0,0,1.3495,Peridotite_05,7,05,4,6,1.35,7,05,-0.088888889,-0.236666667,1,0,0,3.6614,Basalt_rect,2,3.661,0,8,0,8,0,1,,,,,,,,,,,,,
66601438206fb7fc6c48a81f,SCR,2024-06-11_12h12.04.349,LearnStrategy,2023.2.3,Win32,60.06006006,1,1,10,-0.402222222,0.245555556,1,0,0,1.246,Pumice_05,8,05,5,2,1.246,8,05,-0.351111111,-0.256666667,1,0,0,5.7275,Andesite_rect,1,5.727,0,9,0,9,0,1,,,,,,,,,,,,,
66601438206fb7fc6c48a81f,SCR,2024-06-11_12h12.04.349,LearnStrategy,2023.2.3,Win32,60.06006006,1,1,11,-0.106666667,0.068888889,1,0,0,1.095,Basalt_05,2,05,4,4,1.095,2,05,0.152222222,-0.252222222,1,0,0,2.8721,Diorite_rect,3,2.872,0,10,0,10,0,1,,,,,,,,,,,,,
66601438206fb7fc6c48a81f,SCR,2024-06-11_12h12.04.349,LearnStrategy,2023.2.3,Win32,60.06006006,1,1,12,-0.231111111,0.221111111,1,0,0,1.5027,Gabbro_14,4,14,5,3,1.503,4,14,0.11,-0.387777778,1,0,0,9.7125,Peridotite_rect,7,9.712,0,11,0,11,0,1,,,,,,,,,,,,,
66601438206fb7fc6c48a81f,SCR,2024-06-11_12h12.04.349,LearnStrategy,2023.2.3,Win32,60.06006006,1,1,13,-0.562222222,-0.116666667,1,0,0,1.3182,Diorite_14,3,14,3,1,1.318,3,14,-0.112222222,-0.403333333,1,0,0,2.3285,Pegmatite_rect,6,2.329,0,12,0,12,0,1,,,,,,,,,,,,,
66601438206fb7fc6c48a81f,SCR,2024-06-11_12h12.04.349,LearnStrategy,2023.2.3,Win32,60.06006006,1,1,14,0.042222222,-0.096666667,1,0,0,0.9872,Diorite_13,3,13,3,5,0.987,3,13,-0.158888889,-0.248888889,1,0,0,3.1149,Basalt_rect,2,3.115,0,13,0,13,0,1,,,,,,,,,,,,,
66601438206fb7fc6c48a81f,SCR,2024-06-11_12h12.04.349,LearnStrategy,2023.2.3,Win32,60.06006006,1,1,15,-0.094444444,0.395555556,1,0,0,1.3674,Peridotite_13,7,13,6,4,1.367,7,13,0.373333333,-0.263333333,1,0,0,9.9686,Gabbro_rect,4,9.969,0,14,0,14,0,1,,,,,,,,,,,,,
66601438206fb7fc6c48a81f,SCR,2024-06-11_12h12.04.349,LearnStrategy,2023.2.3,Win32,60.06006006,1,1,16,0.395555556,0.272222222,1,0,0,3.9604,Obsidian_06,5,06,5,7,3.96,8,06,0.104444444,-0.408888889,1,0,0,9.2674,Peridotite_rect,7,9.267,0,15,0,15,0,1,,,,,,,,,,,,,
66601438206fb7fc6c48a81f,SCR,2024-06-11_12h12.04.349,LearnStrategy,2023.2.3,Win32,60.06006006,1,2,1,,,,,,,,8,16,,,,,,,,,,,,,2,7.899,0,,,,,,-0.103333333,-0.257777778,1,0,0,7.8991,Basalt_rect,0,0,0,0,1,
66601438206fb7fc6c48a81f,SCR,2024-06-11_12h12.04.349,LearnStrategy,2023.2.3,Win32,60.06006006,1,2,2,,,,,,,,1,07,,,,,,,,,,,,,7,3.743,0,,,,,,0.143333333,-0.384444444,1,0,0,3.7425,Peridotite_rect,1,0,1,0,1,
66601438206fb7fc6c48a81f,SCR,2024-06-11_12h12.04.349,LearnStrategy,2023.2.3,Win32,60.06006006,1,2,3,,,,,,,,5,07,,,,,,,,,,,,,5,1.801,1,,,,,,-0.386666667,-0.411111111,1,0,0,1.8007,Obsidian_rect,2,0,2,0,1,
66601438206fb7fc6c48a81f,SCR,2024-06-11_12h12.04.349,LearnStrategy,2023.2.3,Win32,60.06006006,1,2,4,,,,,,,,1,14,,,,,,,,,,,,,6,2.851,0,,,,,,-0.105555556,-0.385555556,1,0,0,2.8506,Pegmatite_rect,3,0,3,0,1,
66601438206fb7fc6c48a81f,SCR,2024-06-11_12h12.04.349,LearnStrategy,2023.2.3,Win32,60.06006006,1,2,5,,,,,,,,5,12,,,,,,,,,,,,,5,1.224,1,,,,,,-0.346666667,-0.406666667,1,0,0,1.224,Obsidian_rect,4,0,4,0,1,
66601438206fb7fc6c48a81f,SCR,2024-06-11_12h12.04.349,LearnStrategy,2023.2.3,Win32,60.06006006,1,2,6,,,,,,,,6,06,,,,,,,,,,,,,1,4.975,0,,,,,,-0.324444444,-0.246666667,1,0,0,4.9754,Andesite_rect,5,0,5,0,1,
66601438206fb7fc6c48a81f,SCR,2024-06-11_12h12.04.349,LearnStrategy,2023.2.3,Win32,60.06006006,1,2,7,,,,,,,,3,12,,,,,,,,,,,,,1,1.287,0,,,,,,-0.344444444,-0.245555556,1,0,0,1.2868,Andesite_rect,6,0,6,0,1,
66601438206fb7fc6c48a81f,SCR,2024-06-11_12h12.04.349,LearnStrategy,2023.2.3,Win32,60.06006006,1,2,8,,,,,,,,4,10,,,,,,,,,,,,,4,3.704,1,,,,,,0.408888889,-0.242222222,1,0,0,3.7044,Gabbro_rect,7,0,7,0,1,
66601438206fb7fc6c48a81f,SCR,2024-06-11_12h12.04.349,LearnStrategy,2023.2.3,Win32,60.06006006,1,2,9,,,,,,,,2,11,,,,,,,,,,,,,4,1.176,0,,,,,,0.363333333,-0.258888889,1,0,0,1.1759,Gabbro_rect,8,0,8,0,1,
66601438206fb7fc6c48a81f,SCR,2024-06-11_12h12.04.349,LearnStrategy,2023.2.3,Win32,60.06006006,1,2,10,,,,,,,,7,10,,,,,,,,,,,,,4,1.047,0,,,,,,0.363333333,-0.258888889,1,0,0,1.0469,Gabbro_rect,9,0,9,0,1,
66601438206fb7fc6c48a81f,SCR,2024-06-11_12h12.04.349,LearnStrategy,2023.2.3,Win32,60.06006006,1,2,11,,,,,,,,4,09,,,,,,,,,,,,,4,1.371,1,,,,,,0.363333333,-0.258888889,1,0,0,1.3711,Gabbro_rect,10,0,10,0,1,
66601438206fb7fc6c48a81f,SCR,2024-06-11_12h12.04.349,LearnStrategy,2023.2.3,Win32,60.06006006,1,2,12,,,,,,,,8,02,,,,,,,,,,,,,4,0.961,0,,,,,,0.362222222,-0.257777778,1,0,0,0.9615,Gabbro_rect,11,0,11,0,1,
66601438206fb7fc6c48a81f,SCR,2024-06-11_12h12.04.349,LearnStrategy,2023.2.3,Win32,60.06006006,1,2,13,,,,,,,,6,08,,,,,,,,,,,,,6,3.359,1,,,,,,-0.057777778,-0.39,1,0,0,3.3592,Pegmatite_rect,12,0,12,0,1,
66601438206fb7fc6c48a81f,SCR,2024-06-11_12h12.04.349,LearnStrategy,2023.2.3,Win32,60.06006006,1,2,14,,,,,,,,2,06,,,,,,,,,,,,,2,3.863,1,,,,,,-0.12,-0.251111111,1,0,0,3.8635,Basalt_rect,13,0,13,0,1,
66601438206fb7fc6c48a81f,SCR,2024-06-11_12h12.04.349,LearnStrategy,2023.2.3,Win32,60.06006006,1,2,15,,,,,,,,7,06,,,,,,,,,,,,,7,3.254,1,,,,,,0.145555556,-0.394444444,1,0,0,3.2544,Peridotite_rect,14,0,14,0,1,
66601438206fb7fc6c48a81f,SCR,2024-06-11_12h12.04.349,LearnStrategy,2023.2.3,Win32,60.06006006,1,2,16,,,,,,,,3,15,,,,,,,,,,,,,4,3.253,0,,,,,,0.345555556,-0.23,1,0,0,3.2532,Gabbro_rect,15,0,15,0,1,
66601438206fb7fc6c48a81f,SCR,2024-06-11_12h12.04.349,LearnStrategy,2023.2.3,Win32,60.06006006,2,1,1,-0.405555556,0.24,1,0,0,13.3855,Pumice_05,8,05,5,2,13.386,8,05,0.365555556,-0.237777778,1,0,0,4.4511,Gabbro_rect,4,4.451,0,0,0,0,0,1,,,,,,,,,,,,,
66601438206fb7fc6c48a81f,SCR,2024-06-11_12h12.04.349,LearnStrategy,2023.2.3,Win32,60.06006006,2,1,2,0.078888889,0.246666667,1,0,0,1.7819,Gabbro_12,4,12,5,5,1.782,4,12,-0.12,-0.233333333,1,0,0,3.4102,Basalt_rect,2,3.41,0,1,0,1,0,1,,,,,,,,,,,,,
66601438206fb7fc6c48a81f,SCR,2024-06-11_12h12.04.349,LearnStrategy,2023.2.3,Win32,60.06006006,2,1,3,-0.255555556,0.403333333,1,0,0,2.4475,Andesite_02,1,02,6,3,2.447,1,02,-0.387777778,-0.266666667,1,0,0,4.5342,Andesite_rect,1,4.534,1,2,0,2,0,1,,,,,,,,,,,,,
66601438206fb7fc6c48a81f,SCR,2024-06-11_12h12.04.349,LearnStrategy,2023.2.3,Win32,60.06006006,2,1,4,-0.568888889,0.078888889,1,0,0,1.4772,Basalt_01,2,01,4,1,1.477,2,01,-0.173333333,-0.26,1,0,0,3.1665,Basalt_rect,2,3.167,1,3,0,3,0,1,,,,,,,,,,,,,
66601438206fb7fc6c48a81f,SCR,2024-06-11_12h12.04.349,LearnStrategy,2023.2.3,Win32,60.06006006,2,1,5,-0.538888889,-0.244444444,1,0,0,1.437,Diorite_08,3,08,2,1,1.437,3,08,0.344444444,-0.266666667,1,0,0,3.7989,Gabbro_rect,4,3.799,0,4,0,4,0,1,,,,,,,,,,,,,
66601438206fb7fc6c48a81f,SCR,2024-06-11_12h12.04.349,LearnStrategy,2023.2.3,Win32,60.06006006,2,1,6,0.107777778,-0.4,1,0,0,1.4411,Pumice_14,8,14,1,5,1.441,8,14,-0.346666667,-0.255555556,1,0,0,8.5527,Andesite_rect,1,8.553,0,5,0,5,0,1,,,,,,,,,,,,,
66601438206fb7fc6c48a81f,SCR,2024-06-11_12h12.04.349,LearnStrategy,2023.2.3,Win32,60.06006006,2,1,7,-0.218888889,0.394444444,1,0,0,2.8437,Andesite_02,1,02,6,3,2.844,1,02,-0.414444444,-0.25,1,0,0,5.5692,Andesite_rect,1,5.569,1,6,0,6,0,1,,,,,,,,,,,,,
66601438206fb7fc6c48a81f,SCR,2024-06-11_12h12.04.349,LearnStrategy,2023.2.3,Win32,60.06006006,2,1,8,0.061111111,-0.091111111,1,0,0,0.75,Diorite_13,3,13,3,5,0.75,3,13,-0.38,-0.256666667,1,0,0,1.7677,Andesite_rect,1,1.768,0,7,0,7,0,1,,,,,,,,,,,,,
66601438206fb7fc6c48a81f,SCR,2024-06-11_12h12.04.349,LearnStrategy,2023.2.3,Win32,60.06006006,2,1,9,0.215555556,-0.243333333,1,0,0,0.9815,Pegmatite_15,6,15,2,6,0.981,6,15,-0.067777778,-0.393333333,1,0,0,2.2046,Pegmatite_rect,6,2.205,1,8,0,8,0,1,,,,,,,,,,,,,
66601438206fb7fc6c48a81f,SCR,2024-06-11_12h12.04.349,LearnStrategy,2023.2.3,Win32,60.06006006,2,1,10,0.56,0.355555556,1,0,0,2.1525,Pumice_13,8,13,6,8,2.152,8,13,0.391111111,-0.4,1,0,0,1.8029,Pumice_rect,8,1.803,1,9,0,9,0,1,,,,,,,,,,,,,
66601438206fb7fc6c48a81f,SCR,2024-06-11_12h12.04.349,LearnStrategy,2023.2.3,Win32,60.06006006,2,1,11,-0.565555556,-0.255555556,1,0,0,1.1118,Diorite_08,3,08,2,1,1.112,3,08,-0.441111111,-0.246666667,1,0,0,1.8101,Andesite_rect,1,1.81,0,10,0,10,0,1,,,,,,,,,,,,,
66601438206fb7fc6c48a81f,SCR,2024-06-11_12h12.04.349,LearnStrategy,2023.2.3,Win32,60.06006006,2,1,12,0.188888889,0.094444444,1,0,0,0.8869,Peridotite_05,7,05,4,6,0.887,7,05,-0.085555556,-0.261111111,1,0,0,1.4949,Basalt_rect,2,1.495,0,11,0,11,0,1,,,,,,,,,,,,,
66601438206fb7fc6c48a81f,SCR,2024-06-11_12h12.04.349,LearnStrategy,2023.2.3,Win32,60.06006006,2,1,13,0.224444444,0.39,1,0,0,1.2088,Peridotite_12,7,12,6,6,1.209,7,12,0.082222222,-0.261111111,1,0,0,3.8513,Diorite_rect,3,3.851,0,12,0,12,0,1,,,,,,,,,,,,,
66601438206fb7fc6c48a81f,SCR,2024-06-11_12h12.04.349,LearnStrategy,2023.2.3,Win32,60.06006006,2,1,14,0.185555556,-0.254444444,1,0,0,1.0787,Pegmatite_15,6,15,2,6,1.079,6,15,0.088888889,-0.393333333,1,0,0,2.2797,Peridotite_rect,7,2.28,0,13,0,13,0,1,,,,,,,,,,,,,
66601438206fb7fc6c48a81f,SCR,2024-06-11_12h12.04.349,LearnStrategy,2023.2.3,Win32,60.06006006,2,1,15,0.432222222,-0.277777778,1,0,0,2.5513,Basalt_02,2,02,2,7,2.551,2,02,-0.08,-0.257777778,1,0,0,7.062,Basalt_rect,2,7.062,1,14,0,14,0,1,,,,,,,,,,,,,
66601438206fb7fc6c48a81f,SCR,2024-06-11_12h12.04.349,LearnStrategy,2023.2.3,Win32,60.06006006,2,1,16,-0.38,0.098888889,1,0,0,0.9816,Andesite_01,1,01,4,2,0.982,1,01,-0.405555556,-0.238888889,1,0,0,1.5458,Andesite_rect,1,1.546,1,15,0,15,0,1,,,,,,,,,,,,,
66601438206fb7fc6c48a81f,SCR,2024-06-11_12h12.04.349,LearnStrategy,2023.2.3,Win32,60.06006006,2,2,1,,,,,,,,3,11,,,,,,,,,,,,,1,14.464,0,,,,,,-0.353333333,-0.25,1,0,0,14.464,Andesite_rect,0,0,0,0,1,
66601438206fb7fc6c48a81f,SCR,2024-06-11_12h12.04.349,LearnStrategy,2023.2.3,Win32,60.06006006,2,2,2,,,,,,,,2,16,,,,,,,,,,,,,8,2.57,0,,,,,,0.375555556,-0.402222222,1,0,0,2.5695,Pumice_rect,1,0,1,0,1,
66601438206fb7fc6c48a81f,SCR,2024-06-11_12h12.04.349,LearnStrategy,2023.2.3,Win32,60.06006006,2,2,3,,,,,,,,7,04,,,,,,,,,,,,,1,2.295,0,,,,,,-0.332222222,-0.251111111,1,0,0,2.2953,Andesite_rect,2,0,2,0,1,
66601438206fb7fc6c48a81f,SCR,2024-06-11_12h12.04.349,LearnStrategy,2023.2.3,Win32,60.06006006,2,2,4,,,,,,,,5,02,,,,,,,,,,,,,5,1.92,1,,,,,,-0.448888889,-0.401111111,1,0,0,1.9204,Obsidian_rect,3,0,3,0,1,
66601438206fb7fc6c48a81f,SCR,2024-06-11_12h12.04.349,LearnStrategy,2023.2.3,Win32,60.06006006,2,2,5,,,,,,,,1,03,,,,,,,,,,,,,1,1.921,1,,,,,,-0.354444444,-0.252222222,1,0,0,1.9213,Andesite_rect,4,0,4,0,1,
66601438206fb7fc6c48a81f,SCR,2024-06-11_12h12.04.349,LearnStrategy,2023.2.3,Win32,60.06006006,2,2,6,,,,,,,,4,11,,,,,,,,,,,,,3,7.172,0,,,,,,0.118888889,-0.265555556,1,0,0,7.1725,Diorite_rect,5,0,5,0,1,
66601438206fb7fc6c48a81f,SCR,2024-06-11_12h12.04.349,LearnStrategy,2023.2.3,Win32,60.06006006,2,2,7,,,,,,,,8,09,,,,,,,,,,,,,8,2.472,1,,,,,,0.343333333,-0.391111111,1,0,0,2.4724,Pumice_rect,6,0,6,0,1,
66601438206fb7fc6c48a81f,SCR,2024-06-11_12h12.04.349,LearnStrategy,2023.2.3,Win32,60.06006006,2,2,8,,,,,,,,3,16,,,,,,,,,,,,,1,1.762,0,,,,,,-0.348888889,-0.242222222,1,0,0,1.762,Andesite_rect,7,0,7,0,1,
66601438206fb7fc6c48a81f,SCR,2024-06-11_12h12.04.349,LearnStrategy,2023.2.3,Win32,60.06006006,2,2,9,,,,,,,,2,12,,,,,,,,,,,,,6,4.538,0,,,,,,-0.07,-0.393333333,1,0,0,4.5381,Pegmatite_rect,8,0,8,0,1,
66601438206fb7fc6c48a81f,SCR,2024-06-11_12h12.04.349,LearnStrategy,2023.2.3,Win32,60.06006006,2,2,10,,,,,,,,6,03,,,,,,,,,,,,,6,4.294,1,,,,,,-0.063333333,-0.393333333,1,0,0,4.2941,Pegmatite_rect,9,0,9,0,1,
66601438206fb7fc6c48a81f,SCR,2024-06-11_12h12.04.349,LearnStrategy,2023.2.3,Win32,60.06006006,2,2,11,,,,,,,,1,16,,,,,,,,,,,,,3,4.259,0,,,,,,0.152222222,-0.238888889,1,0,0,4.2589,Diorite_rect,10,0,10,0,1,
66601438206fb7fc6c48a81f,SCR,2024-06-11_12h12.04.349,LearnStrategy,2023.2.3,Win32,60.06006006,2,2,12,,,,,,,,7,08,,,,,,,,,,,,,4,4.396,0,,,,,,0.355555556,-0.247777778,1,0,0,4.396,Gabbro_rect,11,0,11,0,1,
66601438206fb7fc6c48a81f,SCR,2024-06-11_12h12.04.349,LearnStrategy,2023.2.3,Win32,60.06006006,2,2,13,,,,,,,,5,10,,,,,,,,,,,,,5,1.604,1,,,,,,-0.401111111,-0.394444444,1,0,0,1.6039,Obsidian_rect,12,0,12,0,1,
66601438206fb7fc6c48a81f,SCR,2024-06-11_12h12.04.349,LearnStrategy,2023.2.3,Win32,60.06006006,2,2,14,,,,,,,,8,10,,,,,,,,,,,,,8,3.869,1,,,,,,0.378888889,-0.396666667,1,0,0,3.8691,Pumice_rect,13,0,13,0,1,
66601438206fb7fc6c48a81f,SCR,2024-06-11_12h12.04.349,LearnStrategy,2023.2.3,Win32,60.06006006,2,2,15,,,,,,,,6,10,,,,,,,,,,,,,6,4.24,1,,,,,,-0.078888889,-0.406666667,1,0,0,4.2396,Pegmatite_rect,14,0,14,0,1,
66601438206fb7fc6c48a81f,SCR,2024-06-11_12h12.04.349,LearnStrategy,2023.2.3,Win32,60.06006006,2,2,16,,,,,,,,4,01,,,,,,,,,,,,,3,2.421,0,,,,,,0.141111111,-0.241111111,1,0,0,2.4206,Diorite_rect,15,0,15,0,1,
66601438206fb7fc6c48a81f,SCR,2024-06-11_12h12.04.349,LearnStrategy,2023.2.3,Win32,60.06006006,3,1,1,0.082222222,0.257777778,1,0,0,1.1049,Gabbro_12,4,12,5,5,1.105,4,12,-0.098888889,-0.255555556,1,0,0,1.3916,Basalt_rect,2,1.392,0,0,0,0,0,1,,,,,,,,,,,,,
66601438206fb7fc6c48a81f,SCR,2024-06-11_12h12.04.349,LearnStrategy,2023.2.3,Win32,60.06006006,3,1,2,-0.551111111,-0.271111111,1,0,0,1.8387,Diorite_08,3,08,2,1,1.839,3,08,0.305555556,-0.418888889,1,0,0,5.049,Pumice_rect,8,5.049,0,1,0,1,0,1,,,,,,,,,,,,,
66601438206fb7fc6c48a81f,SCR,2024-06-11_12h12.04.349,LearnStrategy,2023.2.3,Win32,60.06006006,3,1,3,-0.424444444,0.398888889,1,0,0,1.2076,Andesite_05,1,05,6,2,1.208,1,05,0.107777778,-0.247777778,1,0,0,4.8355,Diorite_rect,3,4.835,0,2,0,2,0,1,,,,,,,,,,,,,
66601438206fb7fc6c48a81f,SCR,2024-06-11_12h12.04.349,LearnStrategy,2023.2.3,Win32,60.06006006,3,1,4,-0.225555556,-0.235555556,1,0,0,1.0227,Peridotite_16,7,16,2,3,1.023,7,16,-0.361111111,-0.253333333,1,0,0,3.2938,Andesite_rect,1,3.294,0,3,0,3,0,1,,,,,,,,,,,,,
66601438206fb7fc6c48a81f,SCR,2024-06-11_12h12.04.349,LearnStrategy,2023.2.3,Win32,60.06006006,3,1,5,0.075555556,-0.081111111,1,0,0,0.8786,Diorite_13,3,13,3,5,0.879,3,13,-0.417777778,-0.248888889,1,0,0,1.9503,Andesite_rect,1,1.95,0,4,0,4,0,1,,,,,,,,,,,,,
66601438206fb7fc6c48a81f,SCR,2024-06-11_12h12.04.349,LearnStrategy,2023.2.3,Win32,60.06006006,3,1,6,0.215555556,0.088888889,1,0,0,1.7588,Peridotite_05,7,05,4,6,1.759,7,05,0.376666667,-0.241111111,1,0,0,3.4097,Gabbro_rect,4,3.41,0,5,0,5,0,1,,,,,,,,,,,,,
66601438206fb7fc6c48a81f,SCR,2024-06-11_12h12.04.349,LearnStrategy,2023.2.3,Win32,60.06006006,3,1,7,0.504444444,-0.394444444,1,0,0,1.3978,Basalt_09,2,09,1,8,1.398,2,09,-0.077777778,-0.244444444,1,0,0,2.195,Basalt_rect,2,2.195,1,6,0,6,0,1,,,,,,,,,,,,,
66601438206fb7fc6c48a81f,SCR,2024-06-11_12h12.04.349,LearnStrategy,2023.2.3,Win32,60.06006006,3,1,8,-0.246666667,0.373333333,1,0,0,1.6915,Andesite_02,1,02,6,3,1.691,1,02,-0.372222222,-0.228888889,1,0,0,2.03,Andesite_rect,1,2.03,1,7,0,7,0,1,,,,,,,,,,,,,
66601438206fb7fc6c48a81f,SCR,2024-06-11_12h12.04.349,LearnStrategy,2023.2.3,Win32,60.06006006,3,1,9,0.084444444,0.092222222,1,0,0,0.903,Diorite_02,3,02,4,5,0.903,3,02,0.107777778,-0.245555556,1,0,0,2.3039,Diorite_rect,3,2.304,1,8,0,8,0,1,,,,,,,,,,,,,
66601438206fb7fc6c48a81f,SCR,2024-06-11_12h12.04.349,LearnStrategy,2023.2.3,Win32,60.06006006,3,1,10,-0.064444444,-0.374444444,1,0,0,1.2521,Pegmatite_11,6,11,1,4,1.252,6,11,-0.108888889,-0.397777778,1,0,0,1.8568,Pegmatite_rect,6,1.857,1,9,0,9,0,1,,,,,,,,,,,,,
66601438206fb7fc6c48a81f,SCR,2024-06-11_12h12.04.349,LearnStrategy,2023.2.3,Win32,60.06006006,3,1,11,0.44,-0.097777778,1,0,0,0.9866,Gabbro_05,4,05,3,7,0.987,4,05,0.114444444,-0.231111111,1,0,0,2.1043,Diorite_rect,3,2.104,0,10,0,10,0,1,,,,,,,,,,,,,
66601438206fb7fc6c48a81f,SCR,2024-06-11_12h12.04.349,LearnStrategy,2023.2.3,Win32,60.06006006,3,1,12,0.102222222,-0.412222222,1,0,0,1.173,Pumice_14,8,14,1,5,1.173,8,14,0.385555556,-0.395555556,1,0,0,1.2482,Pumice_rect,8,1.248,1,11,0,11,0,1,,,,,,,,,,,,,
66601438206fb7fc6c48a81f,SCR,2024-06-11_12h12.04.349,LearnStrategy,2023.2.3,Win32,60.06006006,3,1,13,0.385555556,-0.211111111,1,0,0,1.0561,Basalt_02,2,02,2,7,1.056,2,02,-0.104444444,-0.23,1,0,0,1.2831,Basalt_rect,2,1.283,1,12,0,12,0,1,,,,,,,,,,,,,
66601438206fb7fc6c48a81f,SCR,2024-06-11_12h12.04.349,LearnStrategy,2023.2.3,Win32,60.06006006,3,1,14,-0.077777778,0.094444444,1,0,0,0.8347,Basalt_05,2,05,4,4,0.835,2,05,-0.12,-0.235555556,1,0,0,1.2877,Basalt_rect,2,1.288,1,13,0,13,0,1,,,,,,,,,,,,,
66601438206fb7fc6c48a81f,SCR,2024-06-11_12h12.04.349,LearnStrategy,2023.2.3,Win32,60.06006006,3,1,15,0.528888889,-0.122222222,1,0,0,1.5686,Andesite_04,1,04,3,8,1.569,1,04,0.128888889,-0.257777778,1,0,0,1.7118,Diorite_rect,3,1.712,0,14,0,14,0,1,,,,,,,,,,,,,
66601438206fb7fc6c48a81f,SCR,2024-06-11_12h12.04.349,LearnStrategy,2023.2.3,Win32,60.06006006,3,1,16,-0.076666667,0.355555556,1,0,0,1.9604,Peridotite_13,7,13,6,4,1.96,7,13,0.374444444,-0.245555556,1,0,0,3.3826,Gabbro_rect,4,3.383,0,15,0,15,0,1,,,,,,,,,,,,,
66601438206fb7fc6c48a81f,SCR,2024-06-11_12h12.04.349,LearnStrategy,2023.2.3,Win32,60.06006006,3,2,1,,,,,,,,2,04,,,,,,,,,,,,,2,2.23,1,,,,,,-0.104444444,-0.246666667,1,0,0,2.2303,Basalt_rect,0,0,0,0,1,
66601438206fb7fc6c48a81f,SCR,2024-06-11_12h12.04.349,LearnStrategy,2023.2.3,Win32,60.06006006,3,2,2,,,,,,,,4,03,,,,,,,,,,,,,7,26.584,0,,,,,,0.158888889,-0.386666667,1,0,0,26.5842,Peridotite_rect,1,0,1,0,1,
66601438206fb7fc6c48a81f,SCR,2024-06-11_12h12.04.349,LearnStrategy,2023.2.3,Win32,60.06006006,3,2,3,,,,,,,,6,16,,,,,,,,,,,,,6,2.64,1,,,,,,-0.13,-0.385555556,1,0,0,2.6396,Pegmatite_rect,2,0,2,0,1,
66601438206fb7fc6c48a81f,SCR,2024-06-11_12h12.04.349,LearnStrategy,2023.2.3,Win32,60.06006006,3,2,4,,,,,,,,7,14,,,,,,,,,,,,,7,39.74,1,,,,,,0.104444444,-0.411111111,1,0,0,39.7397,Peridotite_rect,3,0,3,0,1,
66601438206fb7fc6c48a81f,SCR,2024-06-11_12h12.04.349,LearnStrategy,2023.2.3,Win32,60.06006006,3,2,5,,,,,,,,1,11,,,,,,,,,,,,,1,2.555,1,,,,,,-0.361111111,-0.236666667,1,0,0,2.5552,Andesite_rect,4,0,4,0,1,
66601438206fb7fc6c48a81f,SCR,2024-06-11_12h12.04.349,LearnStrategy,2023.2.3,Win32,60.06006006,3,2,6,,,,,,,,2,08,,,,,,,,,,,,,2,2.187,1,,,,,,-0.098888889,-0.256666667,1,0,0,2.1865,Basalt_rect,5,0,5,0,1,
66601438206fb7fc6c48a81f,SCR,2024-06-11_12h12.04.349,LearnStrategy,2023.2.3,Win32,60.06006006,3,2,7,,,,,,,,8,08,,,,,,,,,,,,,8,1.916,1,,,,,,0.423333333,-0.4,1,0,0,1.9155,Pumice_rect,6,0,6,0,1,
66601438206fb7fc6c48a81f,SCR,2024-06-11_12h12.04.349,LearnStrategy,2023.2.3,Win32,60.06006006,3,2,8,,,,,,,,6,13,,,,,,,,,,,,,6,53.38,1,,,,,,-0.115555556,-0.391111111,1,0,0,53.38,Pegmatite_rect,7,0,7,0,1,
66601438206fb7fc6c48a81f,SCR,2024-06-11_12h12.04.349,LearnStrategy,2023.2.3,Win32,60.06006006,3,2,9,,,,,,,,3,10,,,,,,,,,,,,,3,39.467,1,,,,,,0.078888889,-0.258888889,1,0,0,39.4672,Diorite_rect,8,0,8,0,1,
66601438206fb7fc6c48a81f,SCR,2024-06-11_12h12.04.349,LearnStrategy,2023.2.3,Win32,60.06006006,3,2,10,,,,,,,,3,09,,,,,,,,,,,,,3,1.664,1,,,,,,0.071111111,-0.235555556,1,0,0,1.6637,Diorite_rect,9,0,9,0,1,
66601438206fb7fc6c48a81f,SCR,2024-06-11_12h12.04.349,LearnStrategy,2023.2.3,Win32,60.06006006,3,2,11,,,,,,,,4,15,,,,,,,,,,,,,7,20.338,0,,,,,,0.108888889,-0.408888889,1,0,0,20.3384,Peridotite_rect,10,0,10,0,1,
66601438206fb7fc6c48a81f,SCR,2024-06-11_12h12.04.349,LearnStrategy,2023.2.3,Win32,60.06006006,3,2,12,,,,,,,,5,04,,,,,,,,,,,,,5,2.273,1,,,,,,-0.347777778,-0.387777778,1,0,0,2.2725,Obsidian_rect,11,0,11,0,1,
66601438206fb7fc6c48a81f,SCR,2024-06-11_12h12.04.349,LearnStrategy,2023.2.3,Win32,60.06006006,3,2,13,,,,,,,,7,07,,,,,,,,,,,,,7,4.426,1,,,,,,0.083333333,-0.38,1,0,0,4.4258,Peridotite_rect,12,0,12,0,1,
66601438206fb7fc6c48a81f,SCR,2024-06-11_12h12.04.349,LearnStrategy,2023.2.3,Win32,60.06006006,3,2,14,,,,,,,,5,08,,,,,,,,,,,,,5,1.258,1,,,,,,-0.375555556,-0.403333333,1,0,0,1.2584,Obsidian_rect,13,0,13,0,1,
66601438206fb7fc6c48a81f,SCR,2024-06-11_12h12.04.349,LearnStrategy,2023.2.3,Win32,60.06006006,3,2,15,,,,,,,,8,15,,,,,,,,,,,,,8,1.361,1,,,,,,0.355555556,-0.378888889,1,0,0,1.3606,Pumice_rect,14,0,14,0,1,
66601438206fb7fc6c48a81f,SCR,2024-06-11_12h12.04.349,LearnStrategy,2023.2.3,Win32,60.06006006,3,2,16,,,,,,,,1,06,,,,,,,,,,,,,1,4.42,1,,,,,,-0.352222222,-0.258888889,1,0,0,4.42,Andesite_rect,15,0,15,0,1,
66601438206fb7fc6c48a81f,SCR,2024-06-11_12h12.04.349,LearnStrategy,2023.2.3,Win32,60.06006006,4,1,1,-0.561111111,-0.084444444,1,0,0,2.0687,Diorite_14,3,14,3,1,2.069,3,14,0.102222222,-0.242222222,1,0,0,2.3257,Diorite_rect,3,2.326,1,0,0,0,0,1,,,,,,,,,,,,,
66601438206fb7fc6c48a81f,SCR,2024-06-11_12h12.04.349,LearnStrategy,2023.2.3,Win32,60.06006006,4,1,2,0.193333333,0.088888889,1,0,0,1.0997,Peridotite_05,7,05,4,6,1.1,7,05,0.374444444,-0.236666667,1,0,0,3.5046,Gabbro_rect,4,3.505,0,1,0,1,0,1,,,,,,,,,,,,,
66601438206fb7fc6c48a81f,SCR,2024-06-11_12h12.04.349,LearnStrategy,2023.2.3,Win32,60.06006006,4,1,3,0.218888889,-0.11,1,0,0,1.2445,Pumice_04,8,04,3,6,1.245,8,04,0.393333333,-0.408888889,1,0,0,1.1792,Pumice_rect,8,1.179,1,2,0,2,0,1,,,,,,,,,,,,,
66601438206fb7fc6c48a81f,SCR,2024-06-11_12h12.04.349,LearnStrategy,2023.2.3,Win32,60.06006006,4,1,4,-0.207777778,-0.11,1,0,0,4.4981,Obsidian_05,5,05,3,3,4.498,1,04,-0.341111111,-0.416666667,1,0,0,2.0398,Obsidian_rect,5,2.04,1,3,0,3,0,1,,,,,,,,,,,,,
66601438206fb7fc6c48a81f,SCR,2024-06-11_12h12.04.349,LearnStrategy,2023.2.3,Win32,60.06006006,4,1,5,0.054444444,-0.101111111,1,0,0,5.036,Diorite_13,3,13,3,5,5.036,3,06,-0.386666667,-0.258888889,1,0,0,2.5381,Andesite_rect,1,2.538,0,4,0,4,0,1,,,,,,,,,,,,,
66601438206fb7fc6c48a81f,SCR,2024-06-11_12h12.04.349,LearnStrategy,2023.2.3,Win32,60.06006006,4,1,6,-0.388888889,-0.39,1,0,0,3.89,Peridotite_15,7,15,1,2,3.89,4,13,0.122222222,-0.255555556,1,0,0,1.8524,Diorite_rect,3,1.852,0,5,0,5,0,1,,,,,,,,,,,,,
66601438206fb7fc6c48a81f,SCR,2024-06-11_12h12.04.349,LearnStrategy,2023.2.3,Win32,60.06006006,4,1,7,-0.391111111,0.115555556,1,0,0,4.4321,Andesite_01,1,01,4,2,4.432,4,12,-0.343333333,-0.235555556,1,0,0,2.5005,Andesite_rect,1,2.501,1,6,0,6,0,1,,,,,,,,,,,,,
66601438206fb7fc6c48a81f,SCR,2024-06-11_12h12.04.349,LearnStrategy,2023.2.3,Win32,60.06006006,4,1,8,0.546666667,0.121111111,1,0,0,1.8928,Andesite_09,1,09,4,8,1.893,1,04,0.402222222,-0.258888889,1,0,0,3.1083,Gabbro_rect,4,3.108,0,7,0,7,0,1,,,,,,,,,,,,,
66601438206fb7fc6c48a81f,SCR,2024-06-11_12h12.04.349,LearnStrategy,2023.2.3,Win32,60.06006006,4,1,9,0.075555556,0.368888889,1,0,0,7.0605,Peridotite_02,7,02,6,5,7.061,4,05,0.117777778,-0.413333333,1,0,0,3.4348,Peridotite_rect,7,3.435,1,8,0,8,0,1,,,,,,,,,,,,,
66601438206fb7fc6c48a81f,SCR,2024-06-11_12h12.04.349,LearnStrategy,2023.2.3,Win32,60.06006006,4,1,10,0.388888889,-0.08,1,0,0,1.3341,Gabbro_05,4,05,3,7,1.334,3,13,0.352222222,-0.258888889,1,0,0,5.3283,Gabbro_rect,4,5.328,1,9,0,9,0,1,,,,,,,,,,,,,
66601438206fb7fc6c48a81f,SCR,2024-06-11_12h12.04.349,LearnStrategy,2023.2.3,Win32,60.06006006,4,1,11,-0.534444444,-0.277777778,1,0,0,2.7583,Diorite_08,3,08,2,1,2.758,4,08,0.14,-0.246666667,1,0,0,1.2869,Diorite_rect,3,1.287,1,10,0,10,0,1,,,,,,,,,,,,,
66601438206fb7fc6c48a81f,SCR,2024-06-11_12h12.04.349,LearnStrategy,2023.2.3,Win32,60.06006006,4,1,12,-0.231111111,-0.251111111,1,0,0,17.4727,Peridotite_16,7,16,2,3,17.473,7,05,0.103333333,-0.24,1,0,0,8.9993,Diorite_rect,3,8.999,0,11,0,11,0,1,,,,,,,,,,,,,
66601438206fb7fc6c48a81f,SCR,2024-06-11_12h12.04.349,LearnStrategy,2023.2.3,Win32,60.06006006,4,1,13,0.241111111,0.238888889,1,0,0,3.4059,Pegmatite_05,6,05,5,6,3.406,1,01,-0.108888889,-0.391111111,1,0,0,1.7095,Pegmatite_rect,6,1.709,1,12,0,12,0,1,,,,,,,,,,,,,
66601438206fb7fc6c48a81f,SCR,2024-06-11_12h12.04.349,LearnStrategy,2023.2.3,Win32,60.06006006,4,1,14,0.364444444,0.391111111,1,0,0,3.6854,Basalt_10,2,10,6,7,3.685,6,09,-0.11,-0.248888889,1,0,0,2.4858,Basalt_rect,2,2.486,1,13,0,13,0,1,,,,,,,,,,,,,
66601438206fb7fc6c48a81f,SCR,2024-06-11_12h12.04.349,LearnStrategy,2023.2.3,Win32,60.06006006,4,1,15,-0.345555556,0.401111111,1,0,0,2.2266,Andesite_05,1,05,6,2,2.227,2,10,-0.385555556,-0.248888889,1,0,0,1.3318,Andesite_rect,1,1.332,1,14,0,14,0,1,,,,,,,,,,,,,
66601438206fb7fc6c48a81f,SCR,2024-06-11_12h12.04.349,LearnStrategy,2023.2.3,Win32,60.06006006,4,1,16,0.401111111,-0.292222222,1,0,0,1.6673,Basalt_02,2,02,2,7,1.667,2,14,-0.104444444,-0.258888889,1,0,0,1.2536,Basalt_rect,2,1.254,1,15,0,15,0,1,,,,,,,,,,,,,
66601438206fb7fc6c48a81f,SCR,2024-06-11_12h12.04.349,LearnStrategy,2023.2.3,Win32,60.06006006,4,2,1,,,,,,,,3,09,,,,,,,,,,,,,3,3.709,1,,,,,,0.184444444,-0.265555556,1,0,0,3.7087,Diorite_rect,0,0,0,0,1,
66601438206fb7fc6c48a81f,SCR,2024-06-11_12h12.04.349,LearnStrategy,2023.2.3,Win32,60.06006006,4,2,2,,,,,,,,6,10,,,,,,,,,,,,,6,1.942,1,,,,,,-0.1,-0.405555556,1,0,0,1.9424,Pegmatite_rect,1,0,1,0,1,
66601438206fb7fc6c48a81f,SCR,2024-06-11_12h12.04.349,LearnStrategy,2023.2.3,Win32,60.06006006,4,2,3,,,,,,,,1,03,,,,,,,,,,,,,1,5.264,1,,,,,,-0.362222222,-0.24,1,0,0,5.2644,Andesite_rect,2,0,2,0,1,
66601438206fb7fc6c48a81f,SCR,2024-06-11_12h12.04.349,LearnStrategy,2023.2.3,Win32,60.06006006,4,2,4,,,,,,,,5,02,,,,,,,,,,,,,5,1.464,1,,,,,,-0.392222222,-0.391111111,1,0,0,1.4636,Obsidian_rect,3,0,3,0,1,
66601438206fb7fc6c48a81f,SCR,2024-06-11_12h12.04.349,LearnStrategy,2023.2.3,Win32,60.06006006,4,2,5,,,,,,,,2,16,,,,,,,,,,,,,8,2.58,0,,,,,,0.361111111,-0.418888889,1,0,0,2.5804,Pumice_rect,4,0,4,0,1,
66601438206fb7fc6c48a81f,SCR,2024-06-11_12h12.04.349,LearnStrategy,2023.2.3,Win32,60.06006006,4,2,6,,,,,,,,7,14,,,,,,,,,,,,,7,16.277,1,,,,,,0.086666667,-0.41,1,0,0,16.2773,Peridotite_rect,5,0,5,0,1,
66601438206fb7fc6c48a81f,SCR,2024-06-11_12h12.04.349,LearnStrategy,2023.2.3,Win32,60.06006006,4,2,7,,,,,,,,1,16,,,,,,,,,,,,,1,3.396,1,,,,,,-0.351111111,-0.244444444,1,0,0,3.3961,Andesite_rect,6,0,6,0,1,
66601438206fb7fc6c48a81f,SCR,2024-06-11_12h12.04.349,LearnStrategy,2023.2.3,Win32,60.06006006,4,2,8,,,,,,,,4,11,,,,,,,,,,,,,7,14.968,0,,,,,,0.154444444,-0.411111111,1,0,0,14.968,Peridotite_rect,7,0,7,0,1,
66601438206fb7fc6c48a81f,SCR,2024-06-11_12h12.04.349,LearnStrategy,2023.2.3,Win32,60.06006006,4,2,9,,,,,,,,5,07,,,,,,,,,,,,,5,2.029,1,,,,,,-0.393333333,-0.407777778,1,0,0,2.0295,Obsidian_rect,8,0,8,0,1,
66601438206fb7fc6c48a81f,SCR,2024-06-11_12h12.04.349,LearnStrategy,2023.2.3,Win32,60.06006006,4,2,10,,,,,,,,3,10,,,,,,,,,,,,,3,15.029,1,,,,,,0.084444444,-0.246666667,1,0,0,15.029,Diorite_rect,9,0,9,0,1,
66601438206fb7fc6c48a81f,SCR,2024-06-11_12h12.04.349,LearnStrategy,2023.2.3,Win32,60.06006006,4,2,11,,,,,,,,7,04,,,,,,,,,,,,,1,2.543,0,,,,,,-0.34,-0.24,1,0,0,2.5428,Andesite_rect,10,0,10,0,1,
66601438206fb7fc6c48a81f,SCR,2024-06-11_12h12.04.349,LearnStrategy,2023.2.3,Win32,60.06006006,4,2,12,,,,,,,,2,04,,,,,,,,,,,,,2,1.098,1,,,,,,-0.171111111,-0.246666667,1,0,0,1.0978,Basalt_rect,11,0,11,0,1,
66601438206fb7fc6c48a81f,SCR,2024-06-11_12h12.04.349,LearnStrategy,2023.2.3,Win32,60.06006006,4,2,13,,,,,,,,6,06,,,,,,,,,,,,,6,1.632,1,,,,,,-0.136666667,-0.402222222,1,0,0,1.6325,Pegmatite_rect,12,0,12,0,1,
66601438206fb7fc6c48a81f,SCR,2024-06-11_12h12.04.349,LearnStrategy,2023.2.3,Win32,60.06006006,4,2,14,,,,,,,,8,08,,,,,,,,,,,,,8,1.383,1,,,,,,0.417777778,-0.395555556,1,0,0,1.383,Pumice_rect,13,0,13,0,1,
66601438206fb7fc6c48a81f,SCR,2024-06-11_12h12.04.349,LearnStrategy,2023.2.3,Win32,60.06006006,4,2,15,,,,,,,,4,15,,,,,,,,,,,,,4,6.842,1,,,,,,0.324444444,-0.254444444,1,0,0,6.8417,Gabbro_rect,14,0,14,0,1,
66601438206fb7fc6c48a81f,SCR,2024-06-11_12h12.04.349,LearnStrategy,2023.2.3,Win32,60.06006006,4,2,16,,,,,,,,8,02,,,,,,,,,,,,,8,6.189,1,,,,,,0.33,-0.392222222,1,0,0,6.1888,Pumice_rect,15,0,15,0,1,
66601438206fb7fc6c48a81f,SCR,2024-06-11_12h12.04.349,LearnStrategy,2023.2.3,Win32,60.06006006,5,1,1,0.237777778,0.218888889,1,0,0,3.6203,Pegmatite_05,6,05,5,6,3.62,2,10,-0.128888889,-0.382222222,1,0,0,1.6775,Pegmatite_rect,6,1.678,1,0,0,0,0,1,,,,,,,,,,,,,
66601438206fb7fc6c48a81f,SCR,2024-06-11_12h12.04.349,LearnStrategy,2023.2.3,Win32,60.06006006,5,1,2,0.38,-0.256666667,1,0,0,2.4747,Basalt_02,2,02,2,7,2.475,4,13,-0.116666667,-0.234444444,1,0,0,1.5841,Basalt_rect,2,1.584,1,1,0,1,0,1,,,,,,,,,,,,,
66601438206fb7fc6c48a81f,SCR,2024-06-11_12h12.04.349,LearnStrategy,2023.2.3,Win32,60.06006006,5,1,3,-0.074444444,0.237777778,1,0,0,5.8004,Diorite_07,3,07,5,4,5.8,1,09,0.135555556,-0.265555556,1,0,0,1.9533,Diorite_rect,3,1.953,1,2,0,2,0,1,,,,,,,,,,,,,
66601438206fb7fc6c48a81f,SCR,2024-06-11_12h12.04.349,LearnStrategy,2023.2.3,Win32,60.06006006,5,1,4,0.235555556,0.238888889,1,0,0,35.0894,Pegmatite_05,6,05,5,6,35.089,6,11,-0.14,-0.397777778,1,0,0,1.4479,Pegmatite_rect,6,1.448,1,3,0,3,0,1,,,,,,,,,,,,,
66601438206fb7fc6c48a81f,SCR,2024-06-11_12h12.04.349,LearnStrategy,2023.2.3,Win32,60.06006006,5,1,5,-0.11,0.413333333,1,0,0,1.7527,Peridotite_13,7,13,6,4,1.753,8,13,0.075555556,-0.41,1,0,0,3.2383,Peridotite_rect,7,3.238,1,4,0,4,0,1,,,,,,,,,,,,,
66601438206fb7fc6c48a81f,SCR,2024-06-11_12h12.04.349,LearnStrategy,2023.2.3,Win32,60.06006006,5,1,6,-0.377777778,0.384444444,1,0,0,2.0466,Andesite_05,1,05,6,2,2.047,5,06,-0.375555556,-0.253333333,1,0,0,1.2174,Andesite_rect,1,1.217,1,5,0,5,0,1,,,,,,,,,,,,,
66601438206fb7fc6c48a81f,SCR,2024-06-11_12h12.04.349,LearnStrategy,2023.2.3,Win32,60.06006006,5,1,7,0.534444444,-0.1,1,0,0,3.2176,Andesite_04,1,04,3,8,3.218,2,02,-0.39,-0.236666667,1,0,0,2.257,Andesite_rect,1,2.257,1,6,0,6,0,1,,,,,,,,,,,,,
66601438206fb7fc6c48a81f,SCR,2024-06-11_12h12.04.349,LearnStrategy,2023.2.3,Win32,60.06006006,5,1,8,-0.39,0.085555556,1,0,0,10.1425,Andesite_01,1,01,4,2,10.142,3,06,-0.381111111,-0.256666667,1,0,0,1.5286,Andesite_rect,1,1.529,1,7,0,7,0,1,,,,,,,,,,,,,
66601438206fb7fc6c48a81f,SCR,2024-06-11_12h12.04.349,LearnStrategy,2023.2.3,Win32,60.06006006,5,1,9,0.095555556,-0.104444444,1,0,0,2.9174,Diorite_13,3,13,3,5,2.917,4,12,0.098888889,-0.25,1,0,0,1.109,Diorite_rect,3,1.109,1,8,0,8,0,1,,,,,,,,,,,,,
66601438206fb7fc6c48a81f,SCR,2024-06-11_12h12.04.349,LearnStrategy,2023.2.3,Win32,60.06006006,5,1,10,0.421111111,0.113333333,1,0,0,13.5142,Basalt_14,2,14,4,7,13.514,3,14,0.42,-0.405555556,1,0,0,1.3298,Pumice_rect,8,1.33,0,9,0,9,0,1,,,,,,,,,,,,,
66601438206fb7fc6c48a81f,SCR,2024-06-11_12h12.04.349,LearnStrategy,2023.2.3,Win32,60.06006006,5,1,11,-0.082222222,0.231111111,1,0,0,4.5253,Diorite_07,3,07,5,4,4.525,7,15,0.156666667,-0.247777778,1,0,0,1.1434,Diorite_rect,3,1.143,1,10,0,10,0,1,,,,,,,,,,,,,
66601438206fb7fc6c48a81f,SCR,2024-06-11_12h12.04.349,LearnStrategy,2023.2.3,Win32,60.06006006,5,1,12,0.536666667,-0.396666667,1,0,0,9.8796,Basalt_09,2,09,1,8,9.88,7,12,-0.097777778,-0.254444444,1,0,0,4.6484,Basalt_rect,2,4.648,1,11,0,11,0,1,,,,,,,,,,,,,
66601438206fb7fc6c48a81f,SCR,2024-06-11_12h12.04.349,LearnStrategy,2023.2.3,Win32,60.06006006,5,1,13,0.102222222,0.398888889,1,0,0,5.9506,Peridotite_02,7,02,6,5,5.951,2,02,0.128888889,-0.406666667,1,0,0,2.1911,Peridotite_rect,7,2.191,1,12,0,12,0,1,,,,,,,,,,,,,
66601438206fb7fc6c48a81f,SCR,2024-06-11_12h12.04.349,LearnStrategy,2023.2.3,Win32,60.06006006,5,1,14,-0.554444444,0.234444444,1,0,0,4.0096,Gabbro_08,4,08,5,1,4.01,4,16,0.117777778,-0.242222222,1,0,0,2.2874,Diorite_rect,3,2.287,0,13,0,13,0,1,,,,,,,,,,,,,
66601438206fb7fc6c48a81f,SCR,2024-06-11_12h12.04.349,LearnStrategy,2023.2.3,Win32,60.06006006,5,1,15,0.09,0.447777778,1,0,0,8.2735,Peridotite_02,7,02,6,5,8.274,4,14,0.068888889,-0.391111111,1,0,0,2.5551,Peridotite_rect,7,2.555,1,14,0,14,0,1,,,,,,,,,,,,,
66601438206fb7fc6c48a81f,SCR,2024-06-11_12h12.04.349,LearnStrategy,2023.2.3,Win32,60.06006006,5,1,16,-0.067777778,0.38,1,0,0,5.4298,Peridotite_13,7,13,6,4,5.43,7,05,0.072222222,-0.4,1,0,0,2.2357,Peridotite_rect,7,2.236,1,15,0,15,0,1,,,,,,,,,,,,,
66601438206fb7fc6c48a81f,SCR,2024-06-11_12h12.04.349,LearnStrategy,2023.2.3,Win32,60.06006006,5,2,1,,,,,,,,6,13,,,,,,,,,,,,,6,1.502,1,,,,,,-0.103333333,-0.405555556,1,0,0,1.5018,Pegmatite_rect,0,0,0,0,1,
66601438206fb7fc6c48a81f,SCR,2024-06-11_12h12.04.349,LearnStrategy,2023.2.3,Win32,60.06006006,5,2,2,,,,,,,,2,06,,,,,,,,,,,,,2,1.279,1,,,,,,-0.155555556,-0.242222222,1,0,0,1.2795,Basalt_rect,1,0,1,0,1,
66601438206fb7fc6c48a81f,SCR,2024-06-11_12h12.04.349,LearnStrategy,2023.2.3,Win32,60.06006006,5,2,3,,,,,,,,4,10,,,,,,,,,,,,,4,3.187,1,,,,,,0.366666667,-0.258888889,1,0,0,3.1873,Gabbro_rect,2,0,2,0,1,
66601438206fb7fc6c48a81f,SCR,2024-06-11_12h12.04.349,LearnStrategy,2023.2.3,Win32,60.06006006,5,2,4,,,,,,,,8,10,,,,,,,,,,,,,8,1.651,1,,,,,,0.382222222,-0.398888889,1,0,0,1.6506,Pumice_rect,3,0,3,0,1,
66601438206fb7fc6c48a81f,SCR,2024-06-11_12h12.04.349,LearnStrategy,2023.2.3,Win32,60.06006006,5,2,5,,,,,,,,3,16,,,,,,,,,,,,,3,1.371,1,,,,,,0.13,-0.245555556,1,0,0,1.3712,Diorite_rect,4,0,4,0,1,
66601438206fb7fc6c48a81f,SCR,2024-06-11_12h12.04.349,LearnStrategy,2023.2.3,Win32,60.06006006,5,2,6,,,,,,,,6,03,,,,,,,,,,,,,6,1.347,1,,,,,,-0.065555556,-0.403333333,1,0,0,1.3474,Pegmatite_rect,5,0,5,0,1,
66601438206fb7fc6c48a81f,SCR,2024-06-11_12h12.04.349,LearnStrategy,2023.2.3,Win32,60.06006006,5,2,7,,,,,,,,8,16,,,,,,,,,,,,,4,1.76,0,,,,,,0.324444444,-0.248888889,1,0,0,1.7599,Gabbro_rect,6,0,6,0,1,
66601438206fb7fc6c48a81f,SCR,2024-06-11_12h12.04.349,LearnStrategy,2023.2.3,Win32,60.06006006,5,2,8,,,,,,,,1,14,,,,,,,,,,,,,1,21.363,1,,,,,,-0.42,-0.25,1,0,0,21.363,Andesite_rect,7,0,7,0,1,
66601438206fb7fc6c48a81f,SCR,2024-06-11_12h12.04.349,LearnStrategy,2023.2.3,Win32,60.06006006,5,2,9,,,,,,,,5,08,,,,,,,,,,,,,5,1.219,1,,,,,,-0.384444444,-0.397777778,1,0,0,1.219,Obsidian_rect,8,0,8,0,1,
66601438206fb7fc6c48a81f,SCR,2024-06-11_12h12.04.349,LearnStrategy,2023.2.3,Win32,60.06006006,5,2,10,,,,,,,,3,11,,,,,,,,,,,,,3,2.528,1,,,,,,0.124444444,-0.254444444,1,0,0,2.5276,Diorite_rect,9,0,9,0,1,
66601438206fb7fc6c48a81f,SCR,2024-06-11_12h12.04.349,LearnStrategy,2023.2.3,Win32,60.06006006,5,2,11,,,,,,,,4,09,,,,,,,,,,,,,7,16.71,0,,,,,,0.121111111,-0.417777778,1,0,0,16.7097,Peridotite_rect,10,0,10,0,1,
66601438206fb7fc6c48a81f,SCR,2024-06-11_12h12.04.349,LearnStrategy,2023.2.3,Win32,60.06006006,5,2,12,,,,,,,,7,06,,,,,,,,,,,,,6,1.43,0,,,,,,-0.094444444,-0.391111111,1,0,0,1.4303,Pegmatite_rect,11,0,11,0,1,
66601438206fb7fc6c48a81f,SCR,2024-06-11_12h12.04.349,LearnStrategy,2023.2.3,Win32,60.06006006,5,2,13,,,,,,,,2,11,,,,,,,,,,,,,4,4.506,0,,,,,,0.37,-0.258888889,1,0,0,4.5058,Gabbro_rect,12,0,12,0,1,
66601438206fb7fc6c48a81f,SCR,2024-06-11_12h12.04.349,LearnStrategy,2023.2.3,Win32,60.06006006,5,2,14,,,,,,,,1,06,,,,,,,,,,,,,1,2.163,1,,,,,,-0.38,-0.263333333,1,0,0,2.1633,Andesite_rect,13,0,13,0,1,
66601438206fb7fc6c48a81f,SCR,2024-06-11_12h12.04.349,LearnStrategy,2023.2.3,Win32,60.06006006,5,2,15,,,,,,,,5,10,,,,,,,,,,,,,5,1.207,1,,,,,,-0.373333333,-0.392222222,1,0,0,1.2071,Obsidian_rect,14,0,14,0,1,
66601438206fb7fc6c48a81f,SCR,2024-06-11_12h12.04.349,LearnStrategy,2023.2.3,Win32,60.06006006,5,2,16,,,,,,,,7,07,,,,,,,,,,,,,7,5.466,1,,,,,,0.072222222,-0.4,1,0,0,5.4663,Peridotite_rect,15,0,15,0,1,
66601438206fb7fc6c48a81f,SCR,2024-06-11_12h12.04.349,LearnStrategy,2023.2.3,Win32,60.06006006,6,1,1,-0.371111111,-0.255555556,1,0,0,2.9359,Pumice_06,8,06,2,2,2.936,2,05,0.385555556,-0.397777778,1,0,0,1.7314,Pumice_rect,8,1.731,1,0,0,0,0,1,,,,,,,,,,,,,
66601438206fb7fc6c48a81f,SCR,2024-06-11_12h12.04.349,LearnStrategy,2023.2.3,Win32,60.06006006,6,1,2,-0.552222222,0.265555556,1,0,0,6.035,Gabbro_08,4,08,5,1,6.035,8,05,0.095555556,-0.405555556,1,0,0,3.9573,Peridotite_rect,7,3.957,0,1,0,1,0,1,,,,,,,,,,,,,
66601438206fb7fc6c48a81f,SCR,2024-06-11_12h12.04.349,LearnStrategy,2023.2.3,Win32,60.06006006,6,1,3,-0.376666667,0.426666667,1,0,0,4.737,Andesite_05,1,05,6,2,4.737,7,13,-0.326666667,-0.252222222,1,0,0,1.3291,Andesite_rect,1,1.329,1,2,0,2,0,1,,,,,,,,,,,,,
66601438206fb7fc6c48a81f,SCR,2024-06-11_12h12.04.349,LearnStrategy,2023.2.3,Win32,60.06006006,6,1,4,-0.1,-0.114444444,1,0,0,1.6439,Gabbro_13,4,13,3,4,1.644,7,15,0.41,-0.248888889,1,0,0,1.7577,Gabbro_rect,4,1.758,1,3,0,3,0,1,,,,,,,,,,,,,
66601438206fb7fc6c48a81f,SCR,2024-06-11_12h12.04.349,LearnStrategy,2023.2.3,Win32,60.06006006,6,1,5,-0.082222222,-0.261111111,1,0,0,1.2675,Andesite_10,1,10,2,4,1.268,8,14,0.394444444,-0.261111111,1,0,0,2.924,Gabbro_rect,4,2.924,0,4,0,4,0,1,,,,,,,,,,,,,
66601438206fb7fc6c48a81f,SCR,2024-06-11_12h12.04.349,LearnStrategy,2023.2.3,Win32,60.06006006,6,1,6,-0.22,-0.261111111,1,0,0,1.5323,Peridotite_16,7,16,2,3,1.532,4,13,0.112222222,-0.408888889,1,0,0,1.6544,Peridotite_rect,7,1.654,1,5,0,5,0,1,,,,,,,,,,,,,
66601438206fb7fc6c48a81f,SCR,2024-06-11_12h12.04.349,LearnStrategy,2023.2.3,Win32,60.06006006,6,1,7,0.207777778,-0.411111111,1,0,0,2.7766,Gabbro_16,4,16,1,6,2.777,5,06,0.301111111,-0.264444444,1,0,0,4.4185,Gabbro_rect,4,4.418,1,6,0,6,0,1,,,,,,,,,,,,,
66601438206fb7fc6c48a81f,SCR,2024-06-11_12h12.04.349,LearnStrategy,2023.2.3,Win32,60.06006006,6,1,8,-0.387777778,-0.113333333,1,0,0,2.5658,Obsidian_14,5,14,3,2,2.566,1,10,-0.412222222,-0.4,1,0,0,2.3787,Obsidian_rect,5,2.379,1,7,0,7,0,1,,,,,,,,,,,,,
66601438206fb7fc6c48a81f,SCR,2024-06-11_12h12.04.349,LearnStrategy,2023.2.3,Win32,60.06006006,6,1,9,-0.372222222,0.114444444,1,0,0,2.1938,Andesite_01,1,01,4,2,2.194,4,12,-0.393333333,-0.24,1,0,0,2.4673,Andesite_rect,1,2.467,1,8,0,8,0,1,,,,,,,,,,,,,
66601438206fb7fc6c48a81f,SCR,2024-06-11_12h12.04.349,LearnStrategy,2023.2.3,Win32,60.06006006,6,1,10,0.083333333,0.454444444,1,0,0,2.0339,Peridotite_02,7,02,6,5,2.034,2,09,0.08,-0.383333333,1,0,0,2.9814,Peridotite_rect,7,2.981,1,9,0,9,0,1,,,,,,,,,,,,,
66601438206fb7fc6c48a81f,SCR,2024-06-11_12h12.04.349,LearnStrategy,2023.2.3,Win32,60.06006006,6,1,11,0.223333333,0.401111111,1,0,0,1.6938,Peridotite_12,7,12,6,6,1.694,4,08,0.126666667,-0.396666667,1,0,0,4.4558,Peridotite_rect,7,4.456,1,10,0,10,0,1,,,,,,,,,,,,,
66601438206fb7fc6c48a81f,SCR,2024-06-11_12h12.04.349,LearnStrategy,2023.2.3,Win32,60.06006006,6,1,12,-0.25,0.406666667,1,0,0,5.4369,Andesite_02,1,02,6,3,5.437,3,08,-0.41,-0.245555556,1,0,0,2.1675,Andesite_rect,1,2.168,1,11,0,11,0,1,,,,,,,,,,,,,
66601438206fb7fc6c48a81f,SCR,2024-06-11_12h12.04.349,LearnStrategy,2023.2.3,Win32,60.06006006,6,1,13,0.417777778,0.097777778,1,0,0,1.9438,Basalt_14,2,14,4,7,1.944,7,15,0.395555556,-0.265555556,1,0,0,1.5089,Gabbro_rect,4,1.509,0,12,0,12,0,1,,,,,,,,,,,,,
66601438206fb7fc6c48a81f,SCR,2024-06-11_12h12.04.349,LearnStrategy,2023.2.3,Win32,60.06006006,6,1,14,0.388888889,0.084444444,1,0,0,1.6384,Basalt_14,2,14,4,7,1.638,2,09,-0.106666667,-0.244444444,1,0,0,0.8958,Basalt_rect,2,0.896,1,13,0,13,0,1,,,,,,,,,,,,,
66601438206fb7fc6c48a81f,SCR,2024-06-11_12h12.04.349,LearnStrategy,2023.2.3,Win32,60.06006006,6,1,15,-0.027777778,-0.102222222,1,0,0,1.7324,Gabbro_13,4,13,3,4,1.732,4,13,0.356666667,-0.254444444,1,0,0,1.1907,Gabbro_rect,4,1.191,1,14,0,14,0,1,,,,,,,,,,,,,
66601438206fb7fc6c48a81f,SCR,2024-06-11_12h12.04.349,LearnStrategy,2023.2.3,Win32,60.06006006,6,1,16,0.238888889,0.255555556,1,0,0,2.1416,Pegmatite_05,6,05,5,6,2.142,6,07,-0.066666667,-0.396666667,1,0,0,1.4047,Pegmatite_rect,6,1.405,1,15,0,15,0,1,,,,,,,,,,,,,
66601438206fb7fc6c48a81f,SCR,2024-06-11_12h12.04.349,LearnStrategy,2023.2.3,Win32,60.06006006,6,2,1,,,,,,,,5,04,,,,,,,,,,,,,5,1.431,1,,,,,,-0.384444444,-0.391111111,1,0,0,1.4314,Obsidian_rect,0,0,0,0,1,
66601438206fb7fc6c48a81f,SCR,2024-06-11_12h12.04.349,LearnStrategy,2023.2.3,Win32,60.06006006,6,2,2,,,,,,,,4,03,,,,,,,,,,,,,2,51.844,0,,,,,,-0.093333333,-0.264444444,1,0,0,51.8436,Basalt_rect,1,0,1,0,1,
66601438206fb7fc6c48a81f,SCR,2024-06-11_12h12.04.349,LearnStrategy,2023.2.3,Win32,60.06006006,6,2,3,,,,,,,,7,10,,,,,,,,,,,,,7,2.219,1,,,,,,0.11,-0.417777778,1,0,0,2.2194,Peridotite_rect,2,0,2,0,1,
66601438206fb7fc6c48a81f,SCR,2024-06-11_12h12.04.349,LearnStrategy,2023.2.3,Win32,60.06006006,6,2,4,,,,,,,,2,08,,,,,,,,,,,,,2,1.153,1,,,,,,-0.116666667,-0.265555556,1,0,0,1.1527,Basalt_rect,3,0,3,0,1,
66601438206fb7fc6c48a81f,SCR,2024-06-11_12h12.04.349,LearnStrategy,2023.2.3,Win32,60.06006006,6,2,5,,,,,,,,2,12,,,,,,,,,,,,,4,2.167,0,,,,,,0.323333333,-0.235555556,1,0,0,2.1667,Gabbro_rect,4,0,4,0,1,
66601438206fb7fc6c48a81f,SCR,2024-06-11_12h12.04.349,LearnStrategy,2023.2.3,Win32,60.06006006,6,2,6,,,,,,,,6,16,,,,,,,,,,,,,6,1.175,1,,,,,,-0.094444444,-0.388888889,1,0,0,1.1755,Pegmatite_rect,5,0,5,0,1,
66601438206fb7fc6c48a81f,SCR,2024-06-11_12h12.04.349,LearnStrategy,2023.2.3,Win32,60.06006006,6,2,7,,,,,,,,8,15,,,,,,,,,,,,,4,3.843,0,,,,,,0.334444444,-0.24,1,0,0,3.8432,Gabbro_rect,6,0,6,0,1,
66601438206fb7fc6c48a81f,SCR,2024-06-11_12h12.04.349,LearnStrategy,2023.2.3,Win32,60.06006006,6,2,8,,,,,,,,7,08,,,,,,,,,,,,,7,1.309,1,,,,,,0.132222222,-0.388888889,1,0,0,1.3095,Peridotite_rect,7,0,7,0,1,
66601438206fb7fc6c48a81f,SCR,2024-06-11_12h12.04.349,LearnStrategy,2023.2.3,Win32,60.06006006,6,2,9,,,,,,,,8,09,,,,,,,,,,,,,8,2.62,1,,,,,,0.338888889,-0.408888889,1,0,0,2.6196,Pumice_rect,8,0,8,0,1,
66601438206fb7fc6c48a81f,SCR,2024-06-11_12h12.04.349,LearnStrategy,2023.2.3,Win32,60.06006006,6,2,10,,,,,,,,6,08,,,,,,,,,,,,,6,1.292,1,,,,,,-0.137777778,-0.384444444,1,0,0,1.2924,Pegmatite_rect,9,0,9,0,1,
66601438206fb7fc6c48a81f,SCR,2024-06-11_12h12.04.349,LearnStrategy,2023.2.3,Win32,60.06006006,6,2,11,,,,,,,,3,15,,,,,,,,,,,,,8,6.965,0,,,,,,0.34,-0.417777778,1,0,0,6.9645,Pumice_rect,10,0,10,0,1,
66601438206fb7fc6c48a81f,SCR,2024-06-11_12h12.04.349,LearnStrategy,2023.2.3,Win32,60.06006006,6,2,12,,,,,,,,1,07,,,,,,,,,,,,,1,1.55,1,,,,,,-0.377777778,-0.235555556,1,0,0,1.5497,Andesite_rect,11,0,11,0,1,
66601438206fb7fc6c48a81f,SCR,2024-06-11_12h12.04.349,LearnStrategy,2023.2.3,Win32,60.06006006,6,2,13,,,,,,,,5,12,,,,,,,,,,,,,5,1.82,1,,,,,,-0.395555556,-0.393333333,1,0,0,1.8203,Obsidian_rect,12,0,12,0,1,
66601438206fb7fc6c48a81f,SCR,2024-06-11_12h12.04.349,LearnStrategy,2023.2.3,Win32,60.06006006,6,2,14,,,,,,,,1,11,,,,,,,,,,,,,1,1.358,1,,,,,,-0.341111111,-0.265555556,1,0,0,1.3583,Andesite_rect,13,0,13,0,1,
66601438206fb7fc6c48a81f,SCR,2024-06-11_12h12.04.349,LearnStrategy,2023.2.3,Win32,60.06006006,6,2,15,,,,,,,,3,12,,,,,,,,,,,,,3,1.894,1,,,,,,0.102222222,-0.26,1,0,0,1.894,Diorite_rect,14,0,14,0,1,
66601438206fb7fc6c48a81f,SCR,2024-06-11_12h12.04.349,LearnStrategy,2023.2.3,Win32,60.06006006,6,2,16,,,,,,,,4,01,,,,,,,,,,,,,4,26.757,1,,,,,,0.328888889,-0.24,1,0,0,26.7567,Gabbro_rect,15,0,15,0,1,
66601438206fb7fc6c48a81f,SCR,2024-06-11_12h12.04.349,LearnStrategy,2023.2.3,Win32,60.06006006,7,1,1,0.391111111,-0.121111111,1,0,0,2.2929,Gabbro_05,4,05,3,7,2.293,4,05,0.334444444,-0.25,1,0,0,1.7448,Gabbro_rect,4,1.745,1,0,0,0,0,1,,,,,,,,,,,,,
66601438206fb7fc6c48a81f,SCR,2024-06-11_12h12.04.349,LearnStrategy,2023.2.3,Win32,60.06006006,7,1,2,-0.581111111,0.103333333,1,0,0,4.6069,Basalt_01,2,01,4,1,4.607,2,01,-0.153333333,-0.237777778,1,0,0,1.3331,Basalt_rect,2,1.333,1,1,0,1,0,1,,,,,,,,,,,,,
66601438206fb7fc6c48a81f,SCR,2024-06-11_12h12.04.349,LearnStrategy,2023.2.3,Win32,60.06006006,7,1,3,-0.414444444,-0.121111111,1,0,0,1.1913,Obsidian_14,5,14,3,2,1.191,5,14,-0.36,-0.398888889,1,0,0,1.4599,Obsidian_rect,5,1.46,1,2,0,2,0,1,,,,,,,,,,,,,
66601438206fb7fc6c48a81f,SCR,2024-06-11_12h12.04.349,LearnStrategy,2023.2.3,Win32,60.06006006,7,1,4,0.583333333,-0.418888889,1,0,0,1.3633,Basalt_09,2,09,1,8,1.363,2,09,-0.121111111,-0.235555556,1,0,0,1.4325,Basalt_rect,2,1.433,1,3,0,3,0,1,,,,,,,,,,,,,
66601438206fb7fc6c48a81f,SCR,2024-06-11_12h12.04.349,LearnStrategy,2023.2.3,Win32,60.06006006,7,1,5,0.085555556,-0.42,1,0,0,1.0569,Pumice_14,8,14,1,5,1.057,8,14,0.386666667,-0.407777778,1,0,0,1.2407,Pumice_rect,8,1.241,1,4,0,4,0,1,,,,,,,,,,,,,
66601438206fb7fc6c48a81f,SCR,2024-06-11_12h12.04.349,LearnStrategy,2023.2.3,Win32,60.06006006,7,1,6,-0.087777778,0.224444444,1,0,0,0.9152,Diorite_07,3,07,5,4,0.915,3,07,0.17,-0.241111111,1,0,0,1.1499,Diorite_rect,3,1.15,1,5,0,5,0,1,,,,,,,,,,,,,
66601438206fb7fc6c48a81f,SCR,2024-06-11_12h12.04.349,LearnStrategy,2023.2.3,Win32,60.06006006,7,1,7,-0.061111111,-0.104444444,1,0,0,1.6173,Gabbro_13,4,13,3,4,1.617,4,13,0.367777778,-0.242222222,1,0,0,1.3513,Gabbro_rect,4,1.351,1,6,0,6,0,1,,,,,,,,,,,,,
66601438206fb7fc6c48a81f,SCR,2024-06-11_12h12.04.349,LearnStrategy,2023.2.3,Win32,60.06006006,7,1,8,0.385555556,-0.09,1,0,0,1.0485,Gabbro_05,4,05,3,7,1.049,4,05,0.388888889,-0.228888889,1,0,0,2.5444,Gabbro_rect,4,2.544,1,7,0,7,0,1,,,,,,,,,,,,,
66601438206fb7fc6c48a81f,SCR,2024-06-11_12h12.04.349,LearnStrategy,2023.2.3,Win32,60.06006006,7,1,9,0.354444444,0.384444444,1,0,0,1.4508,Basalt_10,2,10,6,7,1.451,2,10,-0.11,-0.248888889,1,0,0,1.1728,Basalt_rect,2,1.173,1,8,0,8,0,1,,,,,,,,,,,,,
66601438206fb7fc6c48a81f,SCR,2024-06-11_12h12.04.349,LearnStrategy,2023.2.3,Win32,60.06006006,7,1,10,0.225555556,0.37,1,0,0,1.1932,Peridotite_12,7,12,6,6,1.193,7,12,0.128888889,-0.412222222,1,0,0,1.432,Peridotite_rect,7,1.432,1,9,0,9,0,1,,,,,,,,,,,,,
66601438206fb7fc6c48a81f,SCR,2024-06-11_12h12.04.349,LearnStrategy,2023.2.3,Win32,60.06006006,7,1,11,0.194444444,0.086666667,1,0,0,1.5407,Peridotite_05,7,05,4,6,1.541,7,05,0.12,-0.402222222,1,0,0,1.8957,Peridotite_rect,7,1.896,1,10,0,10,0,1,,,,,,,,,,,,,
66601438206fb7fc6c48a81f,SCR,2024-06-11_12h12.04.349,LearnStrategy,2023.2.3,Win32,60.06006006,7,1,12,-0.067777778,-0.388888889,1,0,0,1.6081,Pegmatite_11,6,11,1,4,1.608,6,11,-0.146666667,-0.421111111,1,0,0,0.7783,Pegmatite_rect,6,0.778,1,11,0,11,0,1,,,,,,,,,,,,,
66601438206fb7fc6c48a81f,SCR,2024-06-11_12h12.04.349,LearnStrategy,2023.2.3,Win32,60.06006006,7,1,13,-0.183333333,0.242222222,1,0,0,1.1148,Gabbro_14,4,14,5,3,1.115,4,14,0.413333333,-0.237777778,1,0,0,1.5465,Gabbro_rect,4,1.546,1,12,0,12,0,1,,,,,,,,,,,,,
66601438206fb7fc6c48a81f,SCR,2024-06-11_12h12.04.349,LearnStrategy,2023.2.3,Win32,60.06006006,7,1,14,-0.355555556,-0.278888889,1,0,0,1.1418,Pumice_06,8,06,2,2,1.142,8,06,0.35,-0.401111111,1,0,0,2.0712,Pumice_rect,8,2.071,1,13,0,13,0,1,,,,,,,,,,,,,
66601438206fb7fc6c48a81f,SCR,2024-06-11_12h12.04.349,LearnStrategy,2023.2.3,Win32,60.06006006,7,1,15,0.077777778,-0.407777778,1,0,0,0.9715,Pumice_14,8,14,1,5,0.971,8,14,0.37,-0.402222222,1,0,0,0.9865,Pumice_rect,8,0.986,1,14,0,14,0,1,,,,,,,,,,,,,
66601438206fb7fc6c48a81f,SCR,2024-06-11_12h12.04.349,LearnStrategy,2023.2.3,Win32,60.06006006,7,1,16,-0.528888889,-0.232222222,1,0,0,1.2641,Diorite_08,3,08,2,1,1.264,3,08,0.123333333,-0.233333333,1,0,0,0.8488,Diorite_rect,3,0.849,1,15,0,15,0,1,,,,,,,,,,,,,
66601438206fb7fc6c48a81f,SCR,2024-06-11_12h12.04.349,LearnStrategy,2023.2.3,Win32,60.06006006,7,2,1,,,,,,,,6,03,,,,,,,,,,,,,6,1.343,1,,,,,,-0.104444444,-0.401111111,1,0,0,1.3427,Pegmatite_rect,0,0,0,0,1,
66601438206fb7fc6c48a81f,SCR,2024-06-11_12h12.04.349,LearnStrategy,2023.2.3,Win32,60.06006006,7,2,2,,,,,,,,1,07,,,,,,,,,,,,,1,2.089,1,,,,,,-0.328888889,-0.256666667,1,0,0,2.0893,Andesite_rect,1,0,1,0,1,
66601438206fb7fc6c48a81f,SCR,2024-06-11_12h12.04.349,LearnStrategy,2023.2.3,Win32,60.06006006,7,2,3,,,,,,,,6,10,,,,,,,,,,,,,6,1.243,1,,,,,,-0.145555556,-0.412222222,1,0,0,1.2431,Pegmatite_rect,2,0,2,0,1,
66601438206fb7fc6c48a81f,SCR,2024-06-11_12h12.04.349,LearnStrategy,2023.2.3,Win32,60.06006006,7,2,4,,,,,,,,5,08,,,,,,,,,,,,,5,1.198,1,,,,,,-0.35,-0.395555556,1,0,0,1.198,Obsidian_rect,3,0,3,0,1,
66601438206fb7fc6c48a81f,SCR,2024-06-11_12h12.04.349,LearnStrategy,2023.2.3,Win32,60.06006006,7,2,5,,,,,,,,2,11,,,,,,,,,,,,,4,2.328,0,,,,,,0.368888889,-0.245555556,1,0,0,2.3277,Gabbro_rect,4,0,4,0,1,
66601438206fb7fc6c48a81f,SCR,2024-06-11_12h12.04.349,LearnStrategy,2023.2.3,Win32,60.06006006,7,2,6,,,,,,,,3,09,,,,,,,,,,,,,3,1.72,1,,,,,,0.098888889,-0.243333333,1,0,0,1.7201,Diorite_rect,5,0,5,0,1,
66601438206fb7fc6c48a81f,SCR,2024-06-11_12h12.04.349,LearnStrategy,2023.2.3,Win32,60.06006006,7,2,7,,,,,,,,7,14,,,,,,,,,,,,,7,1.345,1,,,,,,0.1,-0.404444444,1,0,0,1.3447,Peridotite_rect,6,0,6,0,1,
66601438206fb7fc6c48a81f,SCR,2024-06-11_12h12.04.349,LearnStrategy,2023.2.3,Win32,60.06006006,7,2,8,,,,,,,,7,06,,,,,,,,,,,,,7,6.512,1,,,,,,0.067777778,-0.387777778,1,0,0,6.5118,Peridotite_rect,7,0,7,0,1,
66601438206fb7fc6c48a81f,SCR,2024-06-11_12h12.04.349,LearnStrategy,2023.2.3,Win32,60.06006006,7,2,9,,,,,,,,2,08,,,,,,,,,,,,,2,0.99,1,,,,,,-0.093333333,-0.251111111,1,0,0,0.9899,Basalt_rect,8,0,8,0,1,
66601438206fb7fc6c48a81f,SCR,2024-06-11_12h12.04.349,LearnStrategy,2023.2.3,Win32,60.06006006,7,2,10,,,,,,,,4,01,,,,,,,,,,,,,4,2.397,1,,,,,,0.363333333,-0.258888889,1,0,0,2.3971,Gabbro_rect,9,0,9,0,1,
66601438206fb7fc6c48a81f,SCR,2024-06-11_12h12.04.349,LearnStrategy,2023.2.3,Win32,60.06006006,7,2,11,,,,,,,,3,16,,,,,,,,,,,,,3,0.896,1,,,,,,0.092222222,-0.232222222,1,0,0,0.8956,Diorite_rect,10,0,10,0,1,
66601438206fb7fc6c48a81f,SCR,2024-06-11_12h12.04.349,LearnStrategy,2023.2.3,Win32,60.06006006,7,2,12,,,,,,,,8,08,,,,,,,,,,,,,8,1.447,1,,,,,,0.358888889,-0.387777778,1,0,0,1.4468,Pumice_rect,11,0,11,0,1,
66601438206fb7fc6c48a81f,SCR,2024-06-11_12h12.04.349,LearnStrategy,2023.2.3,Win32,60.06006006,7,2,13,,,,,,,,5,02,,,,,,,,,,,,,5,1.162,1,,,,,,-0.361111111,-0.386666667,1,0,0,1.1622,Obsidian_rect,12,0,12,0,1,
66601438206fb7fc6c48a81f,SCR,2024-06-11_12h12.04.349,LearnStrategy,2023.2.3,Win32,60.06006006,7,2,14,,,,,,,,1,16,,,,,,,,,,,,,1,2.71,1,,,,,,-0.344444444,-0.244444444,1,0,0,2.7101,Andesite_rect,13,0,13,0,1,
66601438206fb7fc6c48a81f,SCR,2024-06-11_12h12.04.349,LearnStrategy,2023.2.3,Win32,60.06006006,7,2,15,,,,,,,,4,11,,,,,,,,,,,,,4,2.452,1,,,,,,0.34,-0.25,1,0,0,2.4518,Gabbro_rect,14,0,14,0,1,
66601438206fb7fc6c48a81f,SCR,2024-06-11_12h12.04.349,LearnStrategy,2023.2.3,Win32,60.06006006,7,2,16,,,,,,,,8,02,,,,,,,,,,,,,8,1.756,1,,,,,,0.386666667,-0.397777778,1,0,0,1.7558,Pumice_rect,15,0,15,0,1,
66601438206fb7fc6c48a81f,SCR,2024-06-11_12h12.04.349,LearnStrategy,2023.2.3,Win32,60.06006006,8,1,1,-0.071111111,0.083333333,1,0,0,1.1989,Basalt_05,2,05,4,4,1.199,2,05,-0.097777778,-0.237777778,1,0,0,1.0972,Basalt_rect,2,1.097,1,0,0,0,0,1,,,,,,,,,,,,,
66601438206fb7fc6c48a81f,SCR,2024-06-11_12h12.04.349,LearnStrategy,2023.2.3,Win32,60.06006006,8,1,2,0.204444444,-0.271111111,1,0,0,2.1123,Pegmatite_15,6,15,2,6,2.112,6,15,-0.116666667,-0.407777778,1,0,0,0.9381,Pegmatite_rect,6,0.938,1,1,0,1,0,1,,,,,,,,,,,,,
66601438206fb7fc6c48a81f,SCR,2024-06-11_12h12.04.349,LearnStrategy,2023.2.3,Win32,60.06006006,8,1,3,-0.423333333,-0.267777778,1,0,0,1.324,Pumice_06,8,06,2,2,1.324,8,06,0.357777778,-0.388888889,1,0,0,0.985,Pumice_rect,8,0.985,1,2,0,2,0,1,,,,,,,,,,,,,
66601438206fb7fc6c48a81f,SCR,2024-06-11_12h12.04.349,LearnStrategy,2023.2.3,Win32,60.06006006,8,1,4,-0.25,0.372222222,1,0,0,3.6287,Andesite_02,1,02,6,3,3.629,2,09,-0.394444444,-0.268888889,1,0,0,2.015,Andesite_rect,1,2.015,1,3,0,3,0,1,,,,,,,,,,,,,
66601438206fb7fc6c48a81f,SCR,2024-06-11_12h12.04.349,LearnStrategy,2023.2.3,Win32,60.06006006,8,1,5,0.566666667,0.401111111,1,0,0,2.7092,Pumice_13,8,13,6,8,2.709,3,02,0.398888889,-0.398888889,1,0,0,1.5074,Pumice_rect,8,1.507,1,4,0,4,0,1,,,,,,,,,,,,,
66601438206fb7fc6c48a81f,SCR,2024-06-11_12h12.04.349,LearnStrategy,2023.2.3,Win32,60.06006006,8,1,6,0.397777778,0.096666667,1,0,0,1.776,Basalt_14,2,14,4,7,1.776,2,14,-0.101111111,-0.248888889,1,0,0,2.6683,Basalt_rect,2,2.668,1,5,0,5,0,1,,,,,,,,,,,,,
66601438206fb7fc6c48a81f,SCR,2024-06-11_12h12.04.349,LearnStrategy,2023.2.3,Win32,60.06006006,8,1,7,-0.091111111,-0.128888889,1,0,0,2.1444,Gabbro_13,4,13,3,4,2.144,4,13,0.437777778,-0.25,1,0,0,1.1337,Gabbro_rect,4,1.134,1,6,0,6,0,1,,,,,,,,,,,,,
66601438206fb7fc6c48a81f,SCR,2024-06-11_12h12.04.349,LearnStrategy,2023.2.3,Win32,60.06006006,8,1,8,-0.092222222,-0.244444444,1,0,0,1.0144,Andesite_10,1,10,2,4,1.014,1,10,0.397777778,-0.246666667,1,0,0,2.9844,Gabbro_rect,4,2.984,0,7,0,7,0,1,,,,,,,,,,,,,
66601438206fb7fc6c48a81f,SCR,2024-06-11_12h12.04.349,LearnStrategy,2023.2.3,Win32,60.06006006,8,1,9,0.281111111,-0.408888889,1,0,0,1.0209,Gabbro_16,4,16,1,6,1.021,4,16,0.378888889,-0.23,1,0,0,1.3763,Gabbro_rect,4,1.376,1,8,0,8,0,1,,,,,,,,,,,,,
66601438206fb7fc6c48a81f,SCR,2024-06-11_12h12.04.349,LearnStrategy,2023.2.3,Win32,60.06006006,8,1,10,0.228888889,0.108888889,1,0,0,0.9662,Peridotite_05,7,05,4,6,0.966,7,05,0.14,-0.396666667,1,0,0,1.3656,Peridotite_rect,7,1.366,1,9,0,9,0,1,,,,,,,,,,,,,
66601438206fb7fc6c48a81f,SCR,2024-06-11_12h12.04.349,LearnStrategy,2023.2.3,Win32,60.06006006,8,1,11,0.552222222,0.413333333,1,0,0,1.2922,Pumice_13,8,13,6,8,1.292,8,13,0.43,-0.385555556,1,0,0,1.1425,Pumice_rect,8,1.142,1,10,0,10,0,1,,,,,,,,,,,,,
66601438206fb7fc6c48a81f,SCR,2024-06-11_12h12.04.349,LearnStrategy,2023.2.3,Win32,60.06006006,8,1,12,-0.561111111,-0.276666667,1,0,0,1.0013,Diorite_08,3,08,2,1,1.001,3,08,0.118888889,-0.23,1,0,0,0.8367,Diorite_rect,3,0.837,1,11,0,11,0,1,,,,,,,,,,,,,
66601438206fb7fc6c48a81f,SCR,2024-06-11_12h12.04.349,LearnStrategy,2023.2.3,Win32,60.06006006,8,1,13,-0.12,0.08,1,0,0,0.8771,Basalt_05,2,05,4,4,0.877,2,05,-0.114444444,-0.252222222,1,0,0,1.0666,Basalt_rect,2,1.067,1,12,0,12,0,1,,,,,,,,,,,,,
66601438206fb7fc6c48a81f,SCR,2024-06-11_12h12.04.349,LearnStrategy,2023.2.3,Win32,60.06006006,8,1,14,0.084444444,-0.274444444,1,0,0,1.0013,Obsidian_09,5,09,2,5,1.001,5,09,-0.372222222,-0.418888889,1,0,0,1.1837,Obsidian_rect,5,1.184,1,13,0,13,0,1,,,,,,,,,,,,,
66601438206fb7fc6c48a81f,SCR,2024-06-11_12h12.04.349,LearnStrategy,2023.2.3,Win32,60.06006006,8,1,15,-0.053333333,0.362222222,1,0,0,1.3136,Peridotite_13,7,13,6,4,1.314,7,13,0.16,-0.402222222,1,0,0,1.1772,Peridotite_rect,7,1.177,1,14,0,14,0,1,,,,,,,,,,,,,
66601438206fb7fc6c48a81f,SCR,2024-06-11_12h12.04.349,LearnStrategy,2023.2.3,Win32,60.06006006,8,1,16,0.384444444,-0.11,1,0,0,1.081,Gabbro_05,4,05,3,7,1.081,4,05,0.434444444,-0.27,1,0,0,1.488,Gabbro_rect,4,1.488,1,15,0,15,0,1,,,,,,,,,,,,,
66601438206fb7fc6c48a81f,SCR,2024-06-11_12h12.04.349,LearnStrategy,2023.2.3,Win32,60.06006006,8,2,1,,,,,,,,4,10,,,,,,,,,,,,,4,4.187,1,,,,,,0.362222222,-0.251111111,1,0,0,4.1872,Gabbro_rect,0,0,0,0,1,
66601438206fb7fc6c48a81f,SCR,2024-06-11_12h12.04.349,LearnStrategy,2023.2.3,Win32,60.06006006,8,2,2,,,,,,,,5,04,,,,,,,,,,,,,5,1.395,1,,,,,,-0.353333333,-0.413333333,1,0,0,1.3949,Obsidian_rect,1,0,1,0,1,
66601438206fb7fc6c48a81f,SCR,2024-06-11_12h12.04.349,LearnStrategy,2023.2.3,Win32,60.06006006,8,2,3,,,,,,,,3,15,,,,,,,,,,,,,4,3.659,0,,,,,,0.35,-0.248888889,1,0,0,3.6587,Gabbro_rect,2,0,2,0,1,
66601438206fb7fc6c48a81f,SCR,2024-06-11_12h12.04.349,LearnStrategy,2023.2.3,Win32,60.06006006,8,2,4,,,,,,,,5,10,,,,,,,,,,,,,5,1.431,1,,,,,,-0.378888889,-0.405555556,1,0,0,1.431,Obsidian_rect,3,0,3,0,1,
66601438206fb7fc6c48a81f,SCR,2024-06-11_12h12.04.349,LearnStrategy,2023.2.3,Win32,60.06006006,8,2,5,,,,,,,,2,16,,,,,,,,,,,,,8,3.189,0,,,,,,0.367777778,-0.395555556,1,0,0,3.1886,Pumice_rect,4,0,4,0,1,
66601438206fb7fc6c48a81f,SCR,2024-06-11_12h12.04.349,LearnStrategy,2023.2.3,Win32,60.06006006,8,2,6,,,,,,,,6,06,,,,,,,,,,,,,6,1.328,1,,,,,,-0.111111111,-0.39,1,0,0,1.328,Pegmatite_rect,5,0,5,0,1,
66601438206fb7fc6c48a81f,SCR,2024-06-11_12h12.04.349,LearnStrategy,2023.2.3,Win32,60.06006006,8,2,7,,,,,,,,2,04,,,,,,,,,,,,,2,1.039,1,,,,,,-0.114444444,-0.23,1,0,0,1.0388,Basalt_rect,6,0,6,0,1,
66601438206fb7fc6c48a81f,SCR,2024-06-11_12h12.04.349,LearnStrategy,2023.2.3,Win32,60.06006006,8,2,8,,,,,,,,4,15,,,,,,,,,,,,,4,1.553,1,,,,,,0.386666667,-0.235555556,1,0,0,1.5528,Gabbro_rect,7,0,7,0,1,
66601438206fb7fc6c48a81f,SCR,2024-06-11_12h12.04.349,LearnStrategy,2023.2.3,Win32,60.06006006,8,2,9,,,,,,,,1,06,,,,,,,,,,,,,1,1.86,1,,,,,,-0.371111111,-0.263333333,1,0,0,1.8595,Andesite_rect,8,0,8,0,1,
66601438206fb7fc6c48a81f,SCR,2024-06-11_12h12.04.349,LearnStrategy,2023.2.3,Win32,60.06006006,8,2,10,,,,,,,,3,10,,,,,,,,,,,,,3,1.96,1,,,,,,0.111111111,-0.254444444,1,0,0,1.9595,Diorite_rect,9,0,9,0,1,
66601438206fb7fc6c48a81f,SCR,2024-06-11_12h12.04.349,LearnStrategy,2023.2.3,Win32,60.06006006,8,2,11,,,,,,,,8,10,,,,,,,,,,,,,8,1.252,1,,,,,,0.38,-0.416666667,1,0,0,1.2517,Pumice_rect,10,0,10,0,1,
66601438206fb7fc6c48a81f,SCR,2024-06-11_12h12.04.349,LearnStrategy,2023.2.3,Win32,60.06006006,8,2,12,,,,,,,,8,09,,,,,,,,,,,,,8,1.48,1,,,,,,0.405555556,-0.404444444,1,0,0,1.4802,Pumice_rect,11,0,11,0,1,
66601438206fb7fc6c48a81f,SCR,2024-06-11_12h12.04.349,LearnStrategy,2023.2.3,Win32,60.06006006,8,2,13,,,,,,,,7,04,,,,,,,,,,,,,1,3.544,0,,,,,,-0.375555556,-0.252222222,1,0,0,3.5445,Andesite_rect,12,0,12,0,1,
66601438206fb7fc6c48a81f,SCR,2024-06-11_12h12.04.349,LearnStrategy,2023.2.3,Win32,60.06006006,8,2,14,,,,,,,,6,16,,,,,,,,,,,,,6,1.02,1,,,,,,-0.081111111,-0.405555556,1,0,0,1.02,Pegmatite_rect,13,0,13,0,1,
66601438206fb7fc6c48a81f,SCR,2024-06-11_12h12.04.349,LearnStrategy,2023.2.3,Win32,60.06006006,8,2,15,,,,,,,,1,11,,,,,,,,,,,,,1,1.655,1,,,,,,-0.385555556,-0.256666667,1,0,0,1.6547,Andesite_rect,14,0,14,0,1,
66601438206fb7fc6c48a81f,SCR,2024-06-11_12h12.04.349,LearnStrategy,2023.2.3,Win32,60.06006006,8,2,16,,,,,,,,7,07,,,,,,,,,,,,,7,4.522,1,,,,,,0.091111111,-0.397777778,1,0,0,4.522,Peridotite_rect,15,0,15,0,1,
66601438206fb7fc6c48a81f,SCR,2024-06-11_12h12.04.349,LearnStrategy,2023.2.3,Win32,60.06006006,9,1,1,-0.505555556,0.288888889,1,0,0,3.6519,Gabbro_08,4,08,5,1,3.652,4,08,0.426666667,-0.232222222,1,0,0,1.7897,Gabbro_rect,4,1.79,1,0,0,0,0,1,,,,,,,,,,,,,
66601438206fb7fc6c48a81f,SCR,2024-06-11_12h12.04.349,LearnStrategy,2023.2.3,Win32,60.06006006,9,1,2,-0.077777778,0.242222222,1,0,0,1.196,Diorite_07,3,07,5,4,1.196,3,07,0.144444444,-0.253333333,1,0,0,1.5368,Diorite_rect,3,1.537,1,1,0,1,0,1,,,,,,,,,,,,,
66601438206fb7fc6c48a81f,SCR,2024-06-11_12h12.04.349,LearnStrategy,2023.2.3,Win32,60.06006006,9,1,3,-0.241111111,-0.423333333,1,0,0,0.9892,Diorite_06,3,06,1,3,0.989,3,06,0.137777778,-0.247777778,1,0,0,1.4536,Diorite_rect,3,1.454,1,2,0,2,0,1,,,,,,,,,,,,,
66601438206fb7fc6c48a81f,SCR,2024-06-11_12h12.04.349,LearnStrategy,2023.2.3,Win32,60.06006006,9,1,4,0.414444444,0.075555556,1,0,0,1.7213,Basalt_14,2,14,4,7,1.721,2,14,-0.168888889,-0.243333333,1,0,0,0.8844,Basalt_rect,2,0.884,1,3,0,3,0,1,,,,,,,,,,,,,
66601438206fb7fc6c48a81f,SCR,2024-06-11_12h12.04.349,LearnStrategy,2023.2.3,Win32,60.06006006,9,1,5,-0.397777778,-0.144444444,1,0,0,0.9058,Obsidian_14,5,14,3,2,0.906,5,14,-0.372222222,-0.403333333,1,0,0,1.2691,Obsidian_rect,5,1.269,1,4,0,4,0,1,,,,,,,,,,,,,
66601438206fb7fc6c48a81f,SCR,2024-06-11_12h12.04.349,LearnStrategy,2023.2.3,Win32,60.06006006,9,1,6,0.386666667,-0.387777778,1,0,0,1.1041,Pegmatite_07,6,07,1,7,1.104,6,07,-0.068888889,-0.416666667,1,0,0,1.1002,Pegmatite_rect,6,1.1,1,5,0,5,0,1,,,,,,,,,,,,,
66601438206fb7fc6c48a81f,SCR,2024-06-11_12h12.04.349,LearnStrategy,2023.2.3,Win32,60.06006006,9,1,7,0.238888889,-0.405555556,1,0,0,0.949,Gabbro_16,4,16,1,6,0.949,4,16,0.338888889,-0.241111111,1,0,0,1.6073,Gabbro_rect,4,1.607,1,6,0,6,0,1,,,,,,,,,,,,,
66601438206fb7fc6c48a81f,SCR,2024-06-11_12h12.04.349,LearnStrategy,2023.2.3,Win32,60.06006006,9,1,8,0.063333333,-0.136666667,1,0,0,0.6961,Diorite_13,3,13,3,5,0.696,3,13,-0.371111111,-0.242222222,1,0,0,2.523,Andesite_rect,1,2.523,0,7,0,7,0,1,,,,,,,,,,,,,
66601438206fb7fc6c48a81f,SCR,2024-06-11_12h12.04.349,LearnStrategy,2023.2.3,Win32,60.06006006,9,1,9,0.544444444,0.253333333,1,0,0,1.8635,Pumice_03,8,03,5,8,1.863,8,03,0.397777778,-0.393333333,1,0,0,1.8657,Pumice_rect,8,1.866,1,8,0,8,0,1,,,,,,,,,,,,,
66601438206fb7fc6c48a81f,SCR,2024-06-11_12h12.04.349,LearnStrategy,2023.2.3,Win32,60.06006006,9,1,10,0.541111111,-0.406666667,1,0,0,1.4229,Basalt_09,2,09,1,8,1.423,2,09,-0.092222222,-0.271111111,1,0,0,0.8062,Basalt_rect,2,0.806,1,9,0,9,0,1,,,,,,,,,,,,,
66601438206fb7fc6c48a81f,SCR,2024-06-11_12h12.04.349,LearnStrategy,2023.2.3,Win32,60.06006006,9,1,11,0.421111111,0.078888889,1,0,0,1.2261,Basalt_14,2,14,4,7,1.226,2,14,-0.063333333,-0.24,1,0,0,1.1567,Basalt_rect,2,1.157,1,10,0,10,0,1,,,,,,,,,,,,,
66601438206fb7fc6c48a81f,SCR,2024-06-11_12h12.04.349,LearnStrategy,2023.2.3,Win32,60.06006006,9,1,12,0.068888889,0.403333333,1,0,0,1.2998,Peridotite_02,7,02,6,5,1.3,7,02,0.11,-0.405555556,1,0,0,1.0499,Peridotite_rect,7,1.05,1,11,0,11,0,1,,,,,,,,,,,,,
66601438206fb7fc6c48a81f,SCR,2024-06-11_12h12.04.349,LearnStrategy,2023.2.3,Win32,60.06006006,9,1,13,0.361111111,0.403333333,1,0,0,1.1781,Basalt_10,2,10,6,7,1.178,2,10,-0.14,-0.261111111,1,0,0,1.105,Basalt_rect,2,1.105,1,12,0,12,0,1,,,,,,,,,,,,,
66601438206fb7fc6c48a81f,SCR,2024-06-11_12h12.04.349,LearnStrategy,2023.2.3,Win32,60.06006006,9,1,14,0.111111111,0.426666667,1,0,0,1.1997,Peridotite_02,7,02,6,5,1.2,7,02,0.118888889,-0.402222222,1,0,0,2.2003,Peridotite_rect,7,2.2,1,13,0,13,0,1,,,,,,,,,,,,,
66601438206fb7fc6c48a81f,SCR,2024-06-11_12h12.04.349,LearnStrategy,2023.2.3,Win32,60.06006006,9,1,15,0.072222222,-0.396666667,1,0,0,1.2217,Pumice_14,8,14,1,5,1.222,8,14,0.373333333,-0.396666667,1,0,0,0.9856,Pumice_rect,8,0.986,1,14,0,14,0,1,,,,,,,,,,,,,
66601438206fb7fc6c48a81f,SCR,2024-06-11_12h12.04.349,LearnStrategy,2023.2.3,Win32,60.06006006,9,1,16,0.216666667,0.078888889,1,0,0,1.0485,Peridotite_05,7,05,4,6,1.048,7,05,0.115555556,-0.39,1,0,0,2.8409,Peridotite_rect,7,2.841,1,15,0,15,0,1,,,,,,,,,,,,,
66601438206fb7fc6c48a81f,SCR,2024-06-11_12h12.04.349,LearnStrategy,2023.2.3,Win32,60.06006006,9,2,1,,,,,,,,1,14,,,,,,,,,,,,,3,8.481,0,,,,,,0.166666667,-0.265555556,1,0,0,8.4811,Diorite_rect,0,0,0,0,1,
66601438206fb7fc6c48a81f,SCR,2024-06-11_12h12.04.349,LearnStrategy,2023.2.3,Win32,60.06006006,9,2,2,,,,,,,,3,11,,,,,,,,,,,,,3,1.391,1,,,,,,0.092222222,-0.244444444,1,0,0,1.3911,Diorite_rect,1,0,1,0,1,
66601438206fb7fc6c48a81f,SCR,2024-06-11_12h12.04.349,LearnStrategy,2023.2.3,Win32,60.06006006,9,2,3,,,,,,,,4,03,,,,,,,,,,,,,4,55.184,1,,,,,,0.362222222,-0.233333333,1,0,0,55.1845,Gabbro_rect,2,0,2,0,1,
66601438206fb7fc6c48a81f,SCR,2024-06-11_12h12.04.349,LearnStrategy,2023.2.3,Win32,60.06006006,9,2,4,,,,,,,,3,12,,,,,,,,,,,,,3,1.188,1,,,,,,0.137777778,-0.248888889,1,0,0,1.1881,Diorite_rect,3,0,3,0,1,
66601438206fb7fc6c48a81f,SCR,2024-06-11_12h12.04.349,LearnStrategy,2023.2.3,Win32,60.06006006,9,2,5,,,,,,,,7,08,,,,,,,,,,,,,7,1.418,1,,,,,,0.105555556,-0.405555556,1,0,0,1.418,Peridotite_rect,4,0,4,0,1,
66601438206fb7fc6c48a81f,SCR,2024-06-11_12h12.04.349,LearnStrategy,2023.2.3,Win32,60.06006006,9,2,6,,,,,,,,2,12,,,,,,,,,,,,,8,2.412,0,,,,,,0.405555556,-0.415555556,1,0,0,2.4121,Pumice_rect,5,0,5,0,1,
66601438206fb7fc6c48a81f,SCR,2024-06-11_12h12.04.349,LearnStrategy,2023.2.3,Win32,60.06006006,9,2,7,,,,,,,,8,15,,,,,,,,,,,,,8,1.49,1,,,,,,0.343333333,-0.382222222,1,0,0,1.4895,Pumice_rect,6,0,6,0,1,
66601438206fb7fc6c48a81f,SCR,2024-06-11_12h12.04.349,LearnStrategy,2023.2.3,Win32,60.06006006,9,2,8,,,,,,,,5,12,,,,,,,,,,,,,5,1.216,1,,,,,,-0.328888889,-0.393333333,1,0,0,1.2155,Obsidian_rect,7,0,7,0,1,
66601438206fb7fc6c48a81f,SCR,2024-06-11_12h12.04.349,LearnStrategy,2023.2.3,Win32,60.06006006,9,2,9,,,,,,,,5,07,,,,,,,,,,,,,5,1.066,1,,,,,,-0.336666667,-0.403333333,1,0,0,1.066,Obsidian_rect,8,0,8,0,1,
66601438206fb7fc6c48a81f,SCR,2024-06-11_12h12.04.349,LearnStrategy,2023.2.3,Win32,60.06006006,9,2,10,,,,,,,,4,09,,,,,,,,,,,,,4,4.175,1,,,,,,0.351111111,-0.252222222,1,0,0,4.1753,Gabbro_rect,9,0,9,0,1,
66601438206fb7fc6c48a81f,SCR,2024-06-11_12h12.04.349,LearnStrategy,2023.2.3,Win32,60.06006006,9,2,11,,,,,,,,7,10,,,,,,,,,,,,,7,1.041,1,,,,,,0.155555556,-0.396666667,1,0,0,1.0413,Peridotite_rect,10,0,10,0,1,
66601438206fb7fc6c48a81f,SCR,2024-06-11_12h12.04.349,LearnStrategy,2023.2.3,Win32,60.06006006,9,2,12,,,,,,,,1,03,,,,,,,,,,,,,1,1.533,1,,,,,,-0.381111111,-0.237777778,1,0,0,1.5332,Andesite_rect,11,0,11,0,1,
66601438206fb7fc6c48a81f,SCR,2024-06-11_12h12.04.349,LearnStrategy,2023.2.3,Win32,60.06006006,9,2,13,,,,,,,,8,16,,,,,,,,,,,,,8,1.546,1,,,,,,0.344444444,-0.391111111,1,0,0,1.546,Pumice_rect,12,0,12,0,1,
66601438206fb7fc6c48a81f,SCR,2024-06-11_12h12.04.349,LearnStrategy,2023.2.3,Win32,60.06006006,9,2,14,,,,,,,,6,08,,,,,,,,,,,,,6,1.219,1,,,,,,-0.063333333,-0.4,1,0,0,1.2186,Pegmatite_rect,13,0,13,0,1,
66601438206fb7fc6c48a81f,SCR,2024-06-11_12h12.04.349,LearnStrategy,2023.2.3,Win32,60.06006006,9,2,15,,,,,,,,2,06,,,,,,,,,,,,,2,1.268,1,,,,,,-0.13,-0.232222222,1,0,0,1.2683,Basalt_rect,14,0,14,0,1,
66601438206fb7fc6c48a81f,SCR,2024-06-11_12h12.04.349,LearnStrategy,2023.2.3,Win32,60.06006006,9,2,16,,,,,,,,6,13,,,,,,,,,,,,,6,1.213,1,,,,,,-0.128888889,-0.397777778,1,0,0,1.2127,Pegmatite_rect,15,0,15,0,1,
66601438206fb7fc6c48a81f,SCR,2024-06-11_12h12.04.349,LearnStrategy,2023.2.3,Win32,60.06006006,,,,,,,,,,,,,,,,,,,,,,,,,,,,,,,,,,,,,,,,,,,,,1
66601438206fb7fc6c48a81f,SCR,2024-06-11_12h12.04.349,LearnStrategy,2023.2.3,Win32,60.06006006,,,,,,,,,,,,,,,,,,,,,,,,,,,,,,,,,,,,,,,,,,,,,
66601438206fb7fc6c48a81f,SCR,2024-06-11_12h12.04.349,LearnStrategy,2023.2.3,Win32,60.06006006,,,,,,,,,,,6,12,1,1,,,,,,,,,,,,,,,,,,,,,,,,,,,,,,,
66601438206fb7fc6c48a81f,SCR,2024-06-11_12h12.04.349,LearnStrategy,2023.2.3,Win32,60.06006006,,,,,,,,,,,7,15,1,2,,,,,,,,,,,,,,,,,,,,,,,,,,,,,,,
66601438206fb7fc6c48a81f,SCR,2024-06-11_12h12.04.349,LearnStrategy,2023.2.3,Win32,60.06006006,,,,,,,,,,,3,06,1,3,,,,,,,,,,,,,,,,,,,,,,,,,,,,,,,
66601438206fb7fc6c48a81f,SCR,2024-06-11_12h12.04.349,LearnStrategy,2023.2.3,Win32,60.06006006,,,,,,,,,,,6,11,1,4,,,,,,,,,,,,,,,,,,,,,,,,,,,,,,,
66601438206fb7fc6c48a81f,SCR,2024-06-11_12h12.04.349,LearnStrategy,2023.2.3,Win32,60.06006006,,,,,,,,,,,8,14,1,5,,,,,,,,,,,,,,,,,,,,,,,,,,,,,,,
66601438206fb7fc6c48a81f,SCR,2024-06-11_12h12.04.349,LearnStrategy,2023.2.3,Win32,60.06006006,,,,,,,,,,,4,16,1,6,,,,,,,,,,,,,,,,,,,,,,,,,,,,,,,
66601438206fb7fc6c48a81f,SCR,2024-06-11_12h12.04.349,LearnStrategy,2023.2.3,Win32,60.06006006,,,,,,,,,,,6,07,1,7,,,,,,,,,,,,,,,,,,,,,,,,,,,,,,,
66601438206fb7fc6c48a81f,SCR,2024-06-11_12h12.04.349,LearnStrategy,2023.2.3,Win32,60.06006006,,,,,,,,,,,2,09,1,8,,,,,,,,,,,,,,,,,,,,,,,,,,,,,,,
66601438206fb7fc6c48a81f,SCR,2024-06-11_12h12.04.349,LearnStrategy,2023.2.3,Win32,60.06006006,,,,,,,,,,,3,08,2,1,,,,,,,,,,,,,,,,,,,,,,,,,,,,,,,
66601438206fb7fc6c48a81f,SCR,2024-06-11_12h12.04.349,LearnStrategy,2023.2.3,Win32,60.06006006,,,,,,,,,,,8,06,2,2,,,,,,,,,,,,,,,,,,,,,,,,,,,,,,,
66601438206fb7fc6c48a81f,SCR,2024-06-11_12h12.04.349,LearnStrategy,2023.2.3,Win32,60.06006006,,,,,,,,,,,7,16,2,3,,,,,,,,,,,,,,,,,,,,,,,,,,,,,,,
66601438206fb7fc6c48a81f,SCR,2024-06-11_12h12.04.349,LearnStrategy,2023.2.3,Win32,60.06006006,,,,,,,,,,,1,10,2,4,,,,,,,,,,,,,,,,,,,,,,,,,,,,,,,
66601438206fb7fc6c48a81f,SCR,2024-06-11_12h12.04.349,LearnStrategy,2023.2.3,Win32,60.06006006,,,,,,,,,,,5,09,2,5,,,,,,,,,,,,,,,,,,,,,,,,,,,,,,,
66601438206fb7fc6c48a81f,SCR,2024-06-11_12h12.04.349,LearnStrategy,2023.2.3,Win32,60.06006006,,,,,,,,,,,6,15,2,6,,,,,,,,,,,,,,,,,,,,,,,,,,,,,,,
66601438206fb7fc6c48a81f,SCR,2024-06-11_12h12.04.349,LearnStrategy,2023.2.3,Win32,60.06006006,,,,,,,,,,,2,02,2,7,,,,,,,,,,,,,,,,,,,,,,,,,,,,,,,
66601438206fb7fc6c48a81f,SCR,2024-06-11_12h12.04.349,LearnStrategy,2023.2.3,Win32,60.06006006,,,,,,,,,,,5,16,2,8,,,,,,,,,,,,,,,,,,,,,,,,,,,,,,,
66601438206fb7fc6c48a81f,SCR,2024-06-11_12h12.04.349,LearnStrategy,2023.2.3,Win32,60.06006006,,,,,,,,,,,3,14,3,1,,,,,,,,,,,,,,,,,,,,,,,,,,,,,,,
66601438206fb7fc6c48a81f,SCR,2024-06-11_12h12.04.349,LearnStrategy,2023.2.3,Win32,60.06006006,,,,,,,,,,,5,14,3,2,,,,,,,,,,,,,,,,,,,,,,,,,,,,,,,
66601438206fb7fc6c48a81f,SCR,2024-06-11_12h12.04.349,LearnStrategy,2023.2.3,Win32,60.06006006,,,,,,,,,,,5,05,3,3,,,,,,,,,,,,,,,,,,,,,,,,,,,,,,,
66601438206fb7fc6c48a81f,SCR,2024-06-11_12h12.04.349,LearnStrategy,2023.2.3,Win32,60.06006006,,,,,,,,,,,4,13,3,4,,,,,,,,,,,,,,,,,,,,,,,,,,,,,,,
66601438206fb7fc6c48a81f,SCR,2024-06-11_12h12.04.349,LearnStrategy,2023.2.3,Win32,60.06006006,,,,,,,,,,,3,13,3,5,,,,,,,,,,,,,,,,,,,,,,,,,,,,,,,
66601438206fb7fc6c48a81f,SCR,2024-06-11_12h12.04.349,LearnStrategy,2023.2.3,Win32,60.06006006,,,,,,,,,,,8,04,3,6,,,,,,,,,,,,,,,,,,,,,,,,,,,,,,,
66601438206fb7fc6c48a81f,SCR,2024-06-11_12h12.04.349,LearnStrategy,2023.2.3,Win32,60.06006006,,,,,,,,,,,4,05,3,7,,,,,,,,,,,,,,,,,,,,,,,,,,,,,,,
66601438206fb7fc6c48a81f,SCR,2024-06-11_12h12.04.349,LearnStrategy,2023.2.3,Win32,60.06006006,,,,,,,,,,,1,04,3,8,,,,,,,,,,,,,,,,,,,,,,,,,,,,,,,
66601438206fb7fc6c48a81f,SCR,2024-06-11_12h12.04.349,LearnStrategy,2023.2.3,Win32,60.06006006,,,,,,,,,,,2,01,4,1,,,,,,,,,,,,,,,,,,,,,,,,,,,,,,,
66601438206fb7fc6c48a81f,SCR,2024-06-11_12h12.04.349,LearnStrategy,2023.2.3,Win32,60.06006006,,,,,,,,,,,1,01,4,2,,,,,,,,,,,,,,,,,,,,,,,,,,,,,,,
66601438206fb7fc6c48a81f,SCR,2024-06-11_12h12.04.349,LearnStrategy,2023.2.3,Win32,60.06006006,,,,,,,,,,,5,11,4,3,,,,,,,,,,,,,,,,,,,,,,,,,,,,,,,
66601438206fb7fc6c48a81f,SCR,2024-06-11_12h12.04.349,LearnStrategy,2023.2.3,Win32,60.06006006,,,,,,,,,,,2,05,4,4,,,,,,,,,,,,,,,,,,,,,,,,,,,,,,,
66601438206fb7fc6c48a81f,SCR,2024-06-11_12h12.04.349,LearnStrategy,2023.2.3,Win32,60.06006006,,,,,,,,,,,3,02,4,5,,,,,,,,,,,,,,,,,,,,,,,,,,,,,,,
66601438206fb7fc6c48a81f,SCR,2024-06-11_12h12.04.349,LearnStrategy,2023.2.3,Win32,60.06006006,,,,,,,,,,,7,05,4,6,,,,,,,,,,,,,,,,,,,,,,,,,,,,,,,
66601438206fb7fc6c48a81f,SCR,2024-06-11_12h12.04.349,LearnStrategy,2023.2.3,Win32,60.06006006,,,,,,,,,,,2,14,4,7,,,,,,,,,,,,,,,,,,,,,,,,,,,,,,,
66601438206fb7fc6c48a81f,SCR,2024-06-11_12h12.04.349,LearnStrategy,2023.2.3,Win32,60.06006006,,,,,,,,,,,1,09,4,8,,,,,,,,,,,,,,,,,,,,,,,,,,,,,,,
66601438206fb7fc6c48a81f,SCR,2024-06-11_12h12.04.349,LearnStrategy,2023.2.3,Win32,60.06006006,,,,,,,,,,,4,08,5,1,,,,,,,,,,,,,,,,,,,,,,,,,,,,,,,
66601438206fb7fc6c48a81f,SCR,2024-06-11_12h12.04.349,LearnStrategy,2023.2.3,Win32,60.06006006,,,,,,,,,,,8,05,5,2,,,,,,,,,,,,,,,,,,,,,,,,,,,,,,,
66601438206fb7fc6c48a81f,SCR,2024-06-11_12h12.04.349,LearnStrategy,2023.2.3,Win32,60.06006006,,,,,,,,,,,4,14,5,3,,,,,,,,,,,,,,,,,,,,,,,,,,,,,,,
66601438206fb7fc6c48a81f,SCR,2024-06-11_12h12.04.349,LearnStrategy,2023.2.3,Win32,60.06006006,,,,,,,,,,,3,07,5,4,,,,,,,,,,,,,,,,,,,,,,,,,,,,,,,
66601438206fb7fc6c48a81f,SCR,2024-06-11_12h12.04.349,LearnStrategy,2023.2.3,Win32,60.06006006,,,,,,,,,,,4,12,5,5,,,,,,,,,,,,,,,,,,,,,,,,,,,,,,,
66601438206fb7fc6c48a81f,SCR,2024-06-11_12h12.04.349,LearnStrategy,2023.2.3,Win32,60.06006006,,,,,,,,,,,6,05,5,6,,,,,,,,,,,,,,,,,,,,,,,,,,,,,,,
66601438206fb7fc6c48a81f,SCR,2024-06-11_12h12.04.349,LearnStrategy,2023.2.3,Win32,60.06006006,,,,,,,,,,,5,06,5,7,,,,,,,,,,,,,,,,,,,,,,,,,,,,,,,
66601438206fb7fc6c48a81f,SCR,2024-06-11_12h12.04.349,LearnStrategy,2023.2.3,Win32,60.06006006,,,,,,,,,,,8,03,5,8,,,,,,,,,,,,,,,,,,,,,,,,,,,,,,,
66601438206fb7fc6c48a81f,SCR,2024-06-11_12h12.04.349,LearnStrategy,2023.2.3,Win32,60.06006006,,,,,,,,,,,6,09,6,1,,,,,,,,,,,,,,,,,,,,,,,,,,,,,,,
66601438206fb7fc6c48a81f,SCR,2024-06-11_12h12.04.349,LearnStrategy,2023.2.3,Win32,60.06006006,,,,,,,,,,,1,05,6,2,,,,,,,,,,,,,,,,,,,,,,,,,,,,,,,
66601438206fb7fc6c48a81f,SCR,2024-06-11_12h12.04.349,LearnStrategy,2023.2.3,Win32,60.06006006,,,,,,,,,,,1,02,6,3,,,,,,,,,,,,,,,,,,,,,,,,,,,,,,,
66601438206fb7fc6c48a81f,SCR,2024-06-11_12h12.04.349,LearnStrategy,2023.2.3,Win32,60.06006006,,,,,,,,,,,7,13,6,4,,,,,,,,,,,,,,,,,,,,,,,,,,,,,,,
66601438206fb7fc6c48a81f,SCR,2024-06-11_12h12.04.349,LearnStrategy,2023.2.3,Win32,60.06006006,,,,,,,,,,,7,02,6,5,,,,,,,,,,,,,,,,,,,,,,,,,,,,,,,
66601438206fb7fc6c48a81f,SCR,2024-06-11_12h12.04.349,LearnStrategy,2023.2.3,Win32,60.06006006,,,,,,,,,,,7,12,6,6,,,,,,,,,,,,,,,,,,,,,,,,,,,,,,,
66601438206fb7fc6c48a81f,SCR,2024-06-11_12h12.04.349,LearnStrategy,2023.2.3,Win32,60.06006006,,,,,,,,,,,2,10,6,7,,,,,,,,,,,,,,,,,,,,,,,,,,,,,,,
66601438206fb7fc6c48a81f,SCR,2024-06-11_12h12.04.349,LearnStrategy,2023.2.3,Win32,60.06006006,,,,,,,,,,,8,13,6,8,,,,,,,,,,,,,,,,,,,,,,,,,,,,,,,