participant,condition,date,expName,psychopyVersion,OS,frameRate,block,phase,trial,learn_mouse.x,learn_mouse.y,learn_mouse.leftButton,learn_mouse.midButton,learn_mouse.rightButton,learn_mouse.time,learn_mouse.clicked_name,cat,token,row,col,t_select,cat_rec,token_rec,cat_mouse_l.x,cat_mouse_l.y,cat_mouse_l.leftButton,cat_mouse_l.midButton,cat_mouse_l.rightButton,cat_mouse_l.time,cat_mouse_l.clicked_name,resp,t_resp,corr,train_trials.thisRepN,train_trials.thisTrialN,train_trials.thisN,train_trials.thisIndex,train_trials.ran,cat_mouse_t.x,cat_mouse_t.y,cat_mouse_t.leftButton,cat_mouse_t.midButton,cat_mouse_t.rightButton,cat_mouse_t.time,cat_mouse_t.clicked_name,test_trials.thisRepN,test_trials.thisTrialN,test_trials.thisN,test_trials.thisIndex,test_trials.ran,Bonus
6661cdb231a34b5cec5669aa,SCR,2024-06-24_15h36.28.773,LearnStrategy,2023.2.3,Win32,60.60606061,,,,,,,,,,,,,,,,,,,,,,,,,,,,,,,,,,,,,,,,,,,,,
6661cdb231a34b5cec5669aa,SCR,2024-06-24_15h36.28.773,LearnStrategy,2023.2.3,Win32,60.60606061,1,1,1,0.392592677,0.239814811,1,0,0,8.7463,Gabbro_01,4,01,5,7,8.746,4,01,-0.133333347,-0.268518519,1,0,0,5.0387,Basalt_rect,2,5.039,0,0,0,0,0,1,,,,,,,,,,,,,
6661cdb231a34b5cec5669aa,SCR,2024-06-24_15h36.28.773,LearnStrategy,2023.2.3,Win32,60.60606061,1,1,2,-0.567592586,-0.40370369,1,0,0,6.0916,Andesite_06,1,06,1,1,6.092,1,06,0.395370342,-0.406481496,1,0,0,5.8029,Pumice_rect,8,5.803,0,1,0,1,0,1,,,,,,,,,,,,,
6661cdb231a34b5cec5669aa,SCR,2024-06-24_15h36.28.773,LearnStrategy,2023.2.3,Win32,60.60606061,1,1,3,-0.402777778,0.420370367,1,0,0,2.6208,Obsidian_14,5,14,6,2,2.621,5,14,-0.464814822,-0.402777778,1,0,0,11.6599,Obsidian_rect,5,11.66,1,2,0,2,0,1,,,,,,,,,,,,,
6661cdb231a34b5cec5669aa,SCR,2024-06-24_15h36.28.773,LearnStrategy,2023.2.3,Win32,60.60606061,1,1,4,-0.39907406,-0.267592607,1,0,0,5.1068,Pegmatite_06,6,06,2,2,5.107,6,06,-0.14444443,-0.409259302,1,0,0,6.7015,Pegmatite_rect,6,6.702,1,3,0,3,0,1,,,,,,,,,,,,,
6661cdb231a34b5cec5669aa,SCR,2024-06-24_15h36.28.773,LearnStrategy,2023.2.3,Win32,60.60606061,1,1,5,-0.083333333,-0.263888889,1,0,0,8.37,Pegmatite_05,6,05,2,4,8.37,3,07,-0.082407422,-0.412037037,1,0,0,4.2781,Pegmatite_rect,6,4.278,1,4,0,4,0,1,,,,,,,,,,,,,
6661cdb231a34b5cec5669aa,SCR,2024-06-24_15h36.28.773,LearnStrategy,2023.2.3,Win32,60.60606061,1,1,6,-0.554629608,0.2462963,1,0,0,9.2354,Diorite_08,3,08,5,1,9.235,6,08,-0.095370328,-0.411111125,1,0,0,3.3433,Pegmatite_rect,6,3.343,0,5,0,5,0,1,,,,,,,,,,,,,
6661cdb231a34b5cec5669aa,SCR,2024-06-24_15h36.28.773,LearnStrategy,2023.2.3,Win32,60.60606061,1,1,7,-0.564814815,-0.117592635,1,0,0,2.4113,Basalt_06,2,06,3,1,2.411,2,06,-0.165740755,-0.239814829,1,0,0,6.0142,Basalt_rect,2,6.014,1,6,0,6,0,1,,,,,,,,,,,,,
6661cdb231a34b5cec5669aa,SCR,2024-06-24_15h36.28.773,LearnStrategy,2023.2.3,Win32,60.60606061,1,1,8,-0.39166666,-0.114814829,1,0,0,3.0995,Peridotite_13,7,13,3,2,3.099,7,08,0.143518519,-0.412962949,1,0,0,2.1651,Peridotite_rect,7,2.165,1,7,0,7,0,1,,,,,,,,,,,,,
6661cdb231a34b5cec5669aa,SCR,2024-06-24_15h36.28.773,LearnStrategy,2023.2.3,Win32,60.60606061,1,1,9,0.394444501,-0.271296325,1,0,0,3.5471,Pegmatite_10,6,10,2,7,3.547,8,14,0.123148176,-0.413888931,1,0,0,2.9168,Peridotite_rect,7,2.917,0,8,0,8,0,1,,,,,,,,,,,,,
6661cdb231a34b5cec5669aa,SCR,2024-06-24_15h36.28.773,LearnStrategy,2023.2.3,Win32,60.60606061,1,1,10,-0.551851838,0.085185192,1,0,0,5.3347,Peridotite_06,7,06,4,1,5.335,1,14,0.143518519,-0.405555584,1,0,0,2.8408,Peridotite_rect,7,2.841,1,9,0,9,0,1,,,,,,,,,,,,,
6661cdb231a34b5cec5669aa,SCR,2024-06-24_15h36.28.773,LearnStrategy,2023.2.3,Win32,60.60606061,1,1,11,-0.410185178,0.233333323,1,0,0,5.0239,Peridotite_14,7,14,5,2,5.024,8,10,-0.140740712,-0.400000042,1,0,0,4.7642,Pegmatite_rect,6,4.764,0,10,0,10,0,1,,,,,,,,,,,,,
6661cdb231a34b5cec5669aa,SCR,2024-06-24_15h36.28.773,LearnStrategy,2023.2.3,Win32,60.60606061,1,1,12,-0.444444444,0.086111104,1,0,0,8.6034,Gabbro_13,4,13,4,2,8.603,4,13,0.412963019,-0.247222265,1,0,0,6.8113,Gabbro_rect,4,6.811,1,11,0,11,0,1,,,,,,,,,,,,,
6661cdb231a34b5cec5669aa,SCR,2024-06-24_15h36.28.773,LearnStrategy,2023.2.3,Win32,60.60606061,1,1,13,0.062037079,-0.094444487,1,0,0,2.6572,Peridotite_07,7,07,3,5,2.657,7,07,0.114814829,-0.407407407,1,0,0,4.2047,Peridotite_rect,7,4.205,1,12,0,12,0,1,,,,,,,,,,,,,
6661cdb231a34b5cec5669aa,SCR,2024-06-24_15h36.28.773,LearnStrategy,2023.2.3,Win32,60.60606061,1,1,14,0.563888974,0.416666667,1,0,0,3.4193,Obsidian_04,5,04,6,8,3.419,5,04,-0.424074067,-0.400925954,1,0,0,2.2419,Obsidian_rect,5,2.242,1,13,0,13,0,1,,,,,,,,,,,,,
6661cdb231a34b5cec5669aa,SCR,2024-06-24_15h36.28.773,LearnStrategy,2023.2.3,Win32,60.60606061,1,1,15,0.210185228,0.235185182,1,0,0,2.4318,Basalt_02,2,02,5,6,2.432,2,02,-0.131481453,-0.24537037,1,0,0,5.9344,Basalt_rect,2,5.934,1,14,0,14,0,1,,,,,,,,,,,,,
6661cdb231a34b5cec5669aa,SCR,2024-06-24_15h36.28.773,LearnStrategy,2023.2.3,Win32,60.60606061,1,1,16,-0.075925898,-0.085185192,1,0,0,2.1005,Diorite_15,3,15,3,4,2.101,3,15,0.358333305,-0.241666653,1,0,0,9.0305,Gabbro_rect,4,9.031,0,15,0,15,0,1,,,,,,,,,,,,,
6661cdb231a34b5cec5669aa,SCR,2024-06-24_15h36.28.773,LearnStrategy,2023.2.3,Win32,60.60606061,1,2,1,,,,,,,,8,09,,,,,,,,,,,,,8,8.637,1,,,,,,0.425925926,-0.39907406,1,0,0,8.6367,Pumice_rect,0,0,0,0,1,
6661cdb231a34b5cec5669aa,SCR,2024-06-24_15h36.28.773,LearnStrategy,2023.2.3,Win32,60.60606061,1,2,2,,,,,,,,6,11,,,,,,,,,,,,,5,4.189,0,,,,,,-0.404629637,-0.408333319,1,0,0,4.1886,Obsidian_rect,1,0,1,0,1,
6661cdb231a34b5cec5669aa,SCR,2024-06-24_15h36.28.773,LearnStrategy,2023.2.3,Win32,60.60606061,1,2,3,,,,,,,,5,16,,,,,,,,,,,,,5,1.389,1,,,,,,-0.404629637,-0.408333319,1,0,0,1.3886,Obsidian_rect,2,0,2,0,1,
6661cdb231a34b5cec5669aa,SCR,2024-06-24_15h36.28.773,LearnStrategy,2023.2.3,Win32,60.60606061,1,2,4,,,,,,,,5,05,,,,,,,,,,,,,5,2.065,1,,,,,,-0.404629637,-0.408333319,1,0,0,2.0651,Obsidian_rect,3,0,3,0,1,
6661cdb231a34b5cec5669aa,SCR,2024-06-24_15h36.28.773,LearnStrategy,2023.2.3,Win32,60.60606061,1,2,5,,,,,,,,7,12,,,,,,,,,,,,,7,2.548,1,,,,,,0.111111111,-0.410185213,1,0,0,2.548,Peridotite_rect,4,0,4,0,1,
6661cdb231a34b5cec5669aa,SCR,2024-06-24_15h36.28.773,LearnStrategy,2023.2.3,Win32,60.60606061,1,2,6,,,,,,,,7,04,,,,,,,,,,,,,6,5.999,0,,,,,,-0.091666681,-0.39907406,1,0,0,5.9993,Pegmatite_rect,5,0,5,0,1,
6661cdb231a34b5cec5669aa,SCR,2024-06-24_15h36.28.773,LearnStrategy,2023.2.3,Win32,60.60606061,1,2,7,,,,,,,,3,16,,,,,,,,,,,,,1,15.859,0,,,,,,-0.327777757,-0.258333347,1,0,0,15.8591,Andesite_rect,6,0,6,0,1,
6661cdb231a34b5cec5669aa,SCR,2024-06-24_15h36.28.773,LearnStrategy,2023.2.3,Win32,60.60606061,1,2,8,,,,,,,,8,08,,,,,,,,,,,,,8,3.2,1,,,,,,0.426851908,-0.401851866,1,0,0,3.1998,Pumice_rect,7,0,7,0,1,
6661cdb231a34b5cec5669aa,SCR,2024-06-24_15h36.28.773,LearnStrategy,2023.2.3,Win32,60.60606061,1,2,9,,,,,,,,4,09,,,,,,,,,,,,,2,3.884,0,,,,,,-0.138888889,-0.252777806,1,0,0,3.8836,Basalt_rect,8,0,8,0,1,
6661cdb231a34b5cec5669aa,SCR,2024-06-24_15h36.28.773,LearnStrategy,2023.2.3,Win32,60.60606061,1,2,10,,,,,,,,2,05,,,,,,,,,,,,,2,2.658,1,,,,,,-0.138888889,-0.252777806,1,0,0,2.6576,Basalt_rect,9,0,9,0,1,
6661cdb231a34b5cec5669aa,SCR,2024-06-24_15h36.28.773,LearnStrategy,2023.2.3,Win32,60.60606061,1,2,11,,,,,,,,4,16,,,,,,,,,,,,,4,14.47,1,,,,,,0.389814871,-0.25462963,1,0,0,14.4703,Gabbro_rect,10,0,10,0,1,
6661cdb231a34b5cec5669aa,SCR,2024-06-24_15h36.28.773,LearnStrategy,2023.2.3,Win32,60.60606061,1,2,12,,,,,,,,3,13,,,,,,,,,,,,,3,10.686,1,,,,,,0.141666695,-0.236111111,1,0,0,10.6855,Diorite_rect,11,0,11,0,1,
6661cdb231a34b5cec5669aa,SCR,2024-06-24_15h36.28.773,LearnStrategy,2023.2.3,Win32,60.60606061,1,2,13,,,,,,,,6,15,,,,,,,,,,,,,6,9.05,1,,,,,,-0.145370342,-0.401851866,1,0,0,9.0501,Pegmatite_rect,12,0,12,0,1,
6661cdb231a34b5cec5669aa,SCR,2024-06-24_15h36.28.773,LearnStrategy,2023.2.3,Win32,60.60606061,1,2,14,,,,,,,,1,02,,,,,,,,,,,,,8,10.101,0,,,,,,0.361111111,-0.412037037,1,0,0,10.1006,Pumice_rect,13,0,13,0,1,
6661cdb231a34b5cec5669aa,SCR,2024-06-24_15h36.28.773,LearnStrategy,2023.2.3,Win32,60.60606061,1,2,15,,,,,,,,1,05,,,,,,,,,,,,,1,8.131,1,,,,,,-0.352777764,-0.234259288,1,0,0,8.1314,Andesite_rect,14,0,14,0,1,
6661cdb231a34b5cec5669aa,SCR,2024-06-24_15h36.28.773,LearnStrategy,2023.2.3,Win32,60.60606061,1,2,16,,,,,,,,2,16,,,,,,,,,,,,,8,31.642,0,,,,,,0.382407436,-0.387037065,1,0,0,31.6419,Pumice_rect,15,0,15,0,1,
6661cdb231a34b5cec5669aa,SCR,2024-06-24_15h36.28.773,LearnStrategy,2023.2.3,Win32,60.60606061,2,1,1,0.557407379,0.235185182,1,0,0,6.5984,Pumice_15,8,15,5,8,6.598,1,14,0.375,-0.407407407,1,0,0,1.7745,Pumice_rect,8,1.774,1,0,0,0,0,1,,,,,,,,,,,,,
6661cdb231a34b5cec5669aa,SCR,2024-06-24_15h36.28.773,LearnStrategy,2023.2.3,Win32,60.60606061,2,1,2,-0.090740698,0.398148148,1,0,0,3.5756,Pumice_10,8,10,6,4,3.576,3,11,0.412037037,-0.387962977,1,0,0,2.3736,Pumice_rect,8,2.374,1,1,0,1,0,1,,,,,,,,,,,,,
6661cdb231a34b5cec5669aa,SCR,2024-06-24_15h36.28.773,LearnStrategy,2023.2.3,Win32,60.60606061,2,1,3,-0.260185171,0.242592582,1,0,0,2.2121,Pumice_16,8,16,5,3,2.212,6,06,-0.151851866,-0.228703746,1,0,0,1.9157,Basalt_rect,2,1.916,0,2,0,2,0,1,,,,,,,,,,,,,
6661cdb231a34b5cec5669aa,SCR,2024-06-24_15h36.28.773,LearnStrategy,2023.2.3,Win32,60.60606061,2,1,4,0.227777764,-0.424074102,1,0,0,5.8738,Pegmatite_08,6,08,1,6,5.874,4,10,-0.383333312,-0.392592607,1,0,0,1.8818,Obsidian_rect,5,1.882,0,3,0,3,0,1,,,,,,,,,,,,,
6661cdb231a34b5cec5669aa,SCR,2024-06-24_15h36.28.773,LearnStrategy,2023.2.3,Win32,60.60606061,2,1,5,-0.071296268,-0.294444473,1,0,0,3.0065,Pegmatite_05,6,05,2,4,3.007,4,03,-0.112962935,-0.39444443,1,0,0,2.1142,Pegmatite_rect,6,2.114,1,4,0,4,0,1,,,,,,,,,,,,,
6661cdb231a34b5cec5669aa,SCR,2024-06-24_15h36.28.773,LearnStrategy,2023.2.3,Win32,60.60606061,2,1,6,0.377777806,-0.270370413,1,0,0,1.73,Pegmatite_10,6,10,2,7,1.73,2,01,-0.111111111,-0.408333319,1,0,0,3.6586,Pegmatite_rect,6,3.659,1,5,0,5,0,1,,,,,,,,,,,,,
6661cdb231a34b5cec5669aa,SCR,2024-06-24_15h36.28.773,LearnStrategy,2023.2.3,Win32,60.60606061,2,1,7,-0.102777764,0.074074074,1,0,0,2.5798,Andesite_01,1,01,4,4,2.58,2,12,-0.146296254,-0.266666695,1,0,0,2.1788,Basalt_rect,2,2.179,0,6,0,6,0,1,,,,,,,,,,,,,
6661cdb231a34b5cec5669aa,SCR,2024-06-24_15h36.28.773,LearnStrategy,2023.2.3,Win32,60.60606061,2,1,8,0.569444444,-0.117592635,1,0,0,2.3159,Obsidian_07,5,07,3,8,2.316,6,07,-0.40648146,-0.391666695,1,0,0,1.8551,Obsidian_rect,5,1.855,1,7,0,7,0,1,,,,,,,,,,,,,
6661cdb231a34b5cec5669aa,SCR,2024-06-24_15h36.28.773,LearnStrategy,2023.2.3,Win32,60.60606061,2,1,9,0.374074159,-0.126851894,1,0,0,6.8096,Pumice_02,8,02,3,7,6.81,3,14,0.452777863,-0.39444443,1,0,0,1.4907,Pumice_rect,8,1.491,1,8,0,8,0,1,,,,,,,,,,,,,
6661cdb231a34b5cec5669aa,SCR,2024-06-24_15h36.28.773,LearnStrategy,2023.2.3,Win32,60.60606061,2,1,10,-0.242592564,-0.260185171,1,0,0,4.584,Pumice_14,8,14,2,3,4.584,1,01,0.344444416,-0.384259259,1,0,0,2.2634,Pumice_rect,8,2.263,1,9,0,9,0,1,,,,,,,,,,,,,
6661cdb231a34b5cec5669aa,SCR,2024-06-24_15h36.28.773,LearnStrategy,2023.2.3,Win32,60.60606061,2,1,11,-0.385185171,0.216666663,1,0,0,2.7974,Peridotite_14,7,14,5,2,2.797,7,06,0.137962977,-0.397222236,1,0,0,2.609,Peridotite_rect,7,2.609,1,10,0,10,0,1,,,,,,,,,,,,,
6661cdb231a34b5cec5669aa,SCR,2024-06-24_15h36.28.773,LearnStrategy,2023.2.3,Win32,60.60606061,2,1,12,-0.083333333,0.250925929,1,0,0,5.1726,Obsidian_02,5,02,5,4,5.173,5,10,-0.418518526,-0.391666695,1,0,0,1.6652,Obsidian_rect,5,1.665,1,11,0,11,0,1,,,,,,,,,,,,,
6661cdb231a34b5cec5669aa,SCR,2024-06-24_15h36.28.773,LearnStrategy,2023.2.3,Win32,60.60606061,2,1,13,0.074074074,0.393518519,1,0,0,3.5795,Gabbro_03,4,03,6,5,3.58,7,02,-0.114814829,-0.244444459,1,0,0,3.476,Basalt_rect,2,3.476,0,12,0,12,0,1,,,,,,,,,,,,,
6661cdb231a34b5cec5669aa,SCR,2024-06-24_15h36.28.773,LearnStrategy,2023.2.3,Win32,60.60606061,2,1,14,0.547222279,-0.263888889,1,0,0,6.905,Diorite_14,3,14,2,8,6.905,2,12,0.378703788,-0.251851894,1,0,0,1.2614,Gabbro_rect,4,1.261,0,13,0,13,0,1,,,,,,,,,,,,,
6661cdb231a34b5cec5669aa,SCR,2024-06-24_15h36.28.773,LearnStrategy,2023.2.3,Win32,60.60606061,2,1,15,0.22592594,0.403703698,1,0,0,4.6989,Diorite_07,3,07,6,6,4.699,8,02,0.389814871,-0.25462963,1,0,0,2.4882,Gabbro_rect,4,2.488,0,14,0,14,0,1,,,,,,,,,,,,,
6661cdb231a34b5cec5669aa,SCR,2024-06-24_15h36.28.773,LearnStrategy,2023.2.3,Win32,60.60606061,2,1,16,0.220370399,-0.116666653,1,0,0,5.7782,Andesite_14,1,14,3,6,5.778,1,16,0.37037037,-0.238888917,1,0,0,4.2509,Gabbro_rect,4,4.251,0,15,0,15,0,1,,,,,,,,,,,,,
6661cdb231a34b5cec5669aa,SCR,2024-06-24_15h36.28.773,LearnStrategy,2023.2.3,Win32,60.60606061,2,2,1,,,,,,,,2,08,,,,,,,,,,,,,2,3.408,1,,,,,,-0.175925926,-0.239814829,1,0,0,3.408,Basalt_rect,0,0,0,0,1,
6661cdb231a34b5cec5669aa,SCR,2024-06-24_15h36.28.773,LearnStrategy,2023.2.3,Win32,60.60606061,2,2,2,,,,,,,,8,05,,,,,,,,,,,,,8,2.418,1,,,,,,0.430555556,-0.405555584,1,0,0,2.4183,Pumice_rect,1,0,1,0,1,
6661cdb231a34b5cec5669aa,SCR,2024-06-24_15h36.28.773,LearnStrategy,2023.2.3,Win32,60.60606061,2,2,3,,,,,,,,3,02,,,,,,,,,,,,,3,8.316,1,,,,,,0.174074102,-0.250925912,1,0,0,8.3161,Diorite_rect,2,0,2,0,1,
6661cdb231a34b5cec5669aa,SCR,2024-06-24_15h36.28.773,LearnStrategy,2023.2.3,Win32,60.60606061,2,2,4,,,,,,,,1,11,,,,,,,,,,,,,2,23.787,0,,,,,,-0.115740741,-0.232407393,1,0,0,23.7869,Basalt_rect,3,0,3,0,1,
6661cdb231a34b5cec5669aa,SCR,2024-06-24_15h36.28.773,LearnStrategy,2023.2.3,Win32,60.60606061,2,2,5,,,,,,,,1,09,,,,,,,,,,,,,1,12.395,1,,,,,,-0.364814794,-0.237963005,1,0,0,12.3955,Andesite_rect,4,0,4,0,1,
6661cdb231a34b5cec5669aa,SCR,2024-06-24_15h36.28.773,LearnStrategy,2023.2.3,Win32,60.60606061,2,2,6,,,,,,,,3,06,,,,,,,,,,,,,3,11.222,1,,,,,,0.162962949,-0.238888917,1,0,0,11.2222,Diorite_rect,5,0,5,0,1,
6661cdb231a34b5cec5669aa,SCR,2024-06-24_15h36.28.773,LearnStrategy,2023.2.3,Win32,60.60606061,2,2,7,,,,,,,,6,03,,,,,,,,,,,,,6,5.046,1,,,,,,-0.104629587,-0.396296325,1,0,0,5.0462,Pegmatite_rect,6,0,6,0,1,
6661cdb231a34b5cec5669aa,SCR,2024-06-24_15h36.28.773,LearnStrategy,2023.2.3,Win32,60.60606061,2,2,8,,,,,,,,8,06,,,,,,,,,,,,,8,1.494,1,,,,,,0.414814843,-0.411111125,1,0,0,1.4938,Pumice_rect,7,0,7,0,1,
6661cdb231a34b5cec5669aa,SCR,2024-06-24_15h36.28.773,LearnStrategy,2023.2.3,Win32,60.60606061,2,2,9,,,,,,,,5,09,,,,,,,,,,,,,5,1.289,1,,,,,,-0.39907406,-0.413888931,1,0,0,1.2894,Obsidian_rect,8,0,8,0,1,
6661cdb231a34b5cec5669aa,SCR,2024-06-24_15h36.28.773,LearnStrategy,2023.2.3,Win32,60.60606061,2,2,10,,,,,,,,5,11,,,,,,,,,,,,,5,1.405,1,,,,,,-0.390740748,-0.400925954,1,0,0,1.4047,Obsidian_rect,9,0,9,0,1,
6661cdb231a34b5cec5669aa,SCR,2024-06-24_15h36.28.773,LearnStrategy,2023.2.3,Win32,60.60606061,2,2,11,,,,,,,,7,15,,,,,,,,,,,,,7,2.561,1,,,,,,0.143518519,-0.380555541,1,0,0,2.5607,Peridotite_rect,10,0,10,0,1,
6661cdb231a34b5cec5669aa,SCR,2024-06-24_15h36.28.773,LearnStrategy,2023.2.3,Win32,60.60606061,2,2,12,,,,,,,,6,16,,,,,,,,,,,,,6,23.863,1,,,,,,-0.099999958,-0.386111153,1,0,0,23.8633,Pegmatite_rect,11,0,11,0,1,
6661cdb231a34b5cec5669aa,SCR,2024-06-24_15h36.28.773,LearnStrategy,2023.2.3,Win32,60.60606061,2,2,13,,,,,,,,7,05,,,,,,,,,,,,,7,2.799,1,,,,,,0.15370369,-0.383333347,1,0,0,2.7992,Peridotite_rect,12,0,12,0,1,
6661cdb231a34b5cec5669aa,SCR,2024-06-24_15h36.28.773,LearnStrategy,2023.2.3,Win32,60.60606061,2,2,14,,,,,,,,2,09,,,,,,,,,,,,,2,2.072,1,,,,,,-0.088888875,-0.231481481,1,0,0,2.0724,Basalt_rect,13,0,13,0,1,
6661cdb231a34b5cec5669aa,SCR,2024-06-24_15h36.28.773,LearnStrategy,2023.2.3,Win32,60.60606061,2,2,15,,,,,,,,4,12,,,,,,,,,,,,,1,9.713,0,,,,,,-0.395370377,-0.23055557,1,0,0,9.7129,Andesite_rect,14,0,14,0,1,
6661cdb231a34b5cec5669aa,SCR,2024-06-24_15h36.28.773,LearnStrategy,2023.2.3,Win32,60.60606061,2,2,16,,,,,,,,4,11,,,,,,,,,,,,,1,13.097,0,,,,,,-0.408333319,-0.233333376,1,0,0,13.0972,Andesite_rect,15,0,15,0,1,
6661cdb231a34b5cec5669aa,SCR,2024-06-24_15h36.28.773,LearnStrategy,2023.2.3,Win32,60.60606061,3,1,1,-0.577777757,-0.407407407,1,0,0,5.2276,Andesite_06,1,06,1,1,5.228,6,10,-0.434259238,-0.256481524,1,0,0,2.3325,Andesite_rect,1,2.332,1,0,0,0,0,1,,,,,,,,,,,,,
6661cdb231a34b5cec5669aa,SCR,2024-06-24_15h36.28.773,LearnStrategy,2023.2.3,Win32,60.60606061,3,1,2,-0.244444459,-0.429629644,1,0,0,2.9295,Diorite_11,3,11,1,3,2.929,3,11,0.409259231,-0.24537037,1,0,0,3.1342,Gabbro_rect,4,3.134,0,1,0,1,0,1,,,,,,,,,,,,,
6661cdb231a34b5cec5669aa,SCR,2024-06-24_15h36.28.773,LearnStrategy,2023.2.3,Win32,60.60606061,3,1,3,0.400925954,0.395370369,1,0,0,8.2749,Basalt_11,2,11,6,7,8.275,2,11,-0.104629587,-0.240740741,1,0,0,2.2277,Basalt_rect,2,2.228,1,2,0,2,0,1,,,,,,,,,,,,,
6661cdb231a34b5cec5669aa,SCR,2024-06-24_15h36.28.773,LearnStrategy,2023.2.3,Win32,60.60606061,3,1,4,0.244444459,0.098148134,1,0,0,6.0949,Diorite_09,3,09,4,6,6.095,1,16,-0.351851852,-0.249074088,1,0,0,2.1865,Andesite_rect,1,2.187,0,3,0,3,0,1,,,,,,,,,,,,,
6661cdb231a34b5cec5669aa,SCR,2024-06-24_15h36.28.773,LearnStrategy,2023.2.3,Win32,60.60606061,3,1,5,-0.560185185,-0.412037037,1,0,0,4.1014,Andesite_06,1,06,1,1,4.101,1,04,-0.424999979,-0.259259259,1,0,0,2.601,Andesite_rect,1,2.601,1,4,0,4,0,1,,,,,,,,,,,,,
6661cdb231a34b5cec5669aa,SCR,2024-06-24_15h36.28.773,LearnStrategy,2023.2.3,Win32,60.60606061,3,1,6,0.565740797,-0.266666695,1,0,0,4.0282,Diorite_14,3,14,2,8,4.028,4,08,0.14907406,-0.257407436,1,0,0,2.5311,Diorite_rect,3,2.531,1,5,0,5,0,1,,,,,,,,,,,,,
6661cdb231a34b5cec5669aa,SCR,2024-06-24_15h36.28.773,LearnStrategy,2023.2.3,Win32,60.60606061,3,1,7,0.399999972,0.085185192,1,0,0,3.9079,Pegmatite_07,6,07,4,7,3.908,2,06,-0.10555557,-0.412037037,1,0,0,2.0737,Pegmatite_rect,6,2.074,1,6,0,6,0,1,,,,,,,,,,,,,
6661cdb231a34b5cec5669aa,SCR,2024-06-24_15h36.28.773,LearnStrategy,2023.2.3,Win32,60.60606061,3,1,8,-0.220370328,0.387037039,1,0,0,3.9373,Andesite_16,1,16,6,3,3.937,1,10,-0.371296282,-0.237963005,1,0,0,3.143,Andesite_rect,1,3.143,1,7,0,7,0,1,,,,,,,,,,,,,
6661cdb231a34b5cec5669aa,SCR,2024-06-24_15h36.28.773,LearnStrategy,2023.2.3,Win32,60.60606061,3,1,9,-0.081481439,-0.115740741,1,0,0,5.5289,Diorite_15,3,15,3,4,5.529,4,01,0.429629714,-0.257407436,1,0,0,1.805,Gabbro_rect,4,1.805,0,8,0,8,0,1,,,,,,,,,,,,,
6661cdb231a34b5cec5669aa,SCR,2024-06-24_15h36.28.773,LearnStrategy,2023.2.3,Win32,60.60606061,3,1,10,0.05740745,-0.104629658,1,0,0,2.4889,Peridotite_07,7,07,3,5,2.489,4,14,0.112963005,-0.404629672,1,0,0,1.4139,Peridotite_rect,7,1.414,1,9,0,9,0,1,,,,,,,,,,,,,
6661cdb231a34b5cec5669aa,SCR,2024-06-24_15h36.28.773,LearnStrategy,2023.2.3,Win32,60.60606061,3,1,11,-0.087962963,0.087962963,1,0,0,3.4451,Andesite_01,1,01,4,4,3.445,5,08,-0.126851824,-0.266666695,1,0,0,2.0914,Basalt_rect,2,2.091,0,10,0,10,0,1,,,,,,,,,,,,,
6661cdb231a34b5cec5669aa,SCR,2024-06-24_15h36.28.773,LearnStrategy,2023.2.3,Win32,60.60606061,3,1,12,0.087037051,0.2462963,1,0,0,4.7102,Basalt_14,2,14,5,5,4.71,1,04,0.367592564,-0.407407407,1,0,0,1.9819,Pumice_rect,8,1.982,0,11,0,11,0,1,,,,,,,,,,,,,
6661cdb231a34b5cec5669aa,SCR,2024-06-24_15h36.28.773,LearnStrategy,2023.2.3,Win32,60.60606061,3,1,13,0.069444444,-0.25462963,1,0,0,7.91,Basalt_12,2,12,2,5,7.91,8,15,0.345370399,-0.392592607,1,0,0,5.0269,Pumice_rect,8,5.027,0,12,0,12,0,1,,,,,,,,,,,,,
6661cdb231a34b5cec5669aa,SCR,2024-06-24_15h36.28.773,LearnStrategy,2023.2.3,Win32,60.60606061,3,1,14,-0.274999972,-0.280555584,1,0,0,4.5059,Pumice_14,8,14,2,3,4.506,6,12,0.446296268,-0.397222236,1,0,0,1.7867,Pumice_rect,8,1.787,1,13,0,13,0,1,,,,,,,,,,,,,
6661cdb231a34b5cec5669aa,SCR,2024-06-24_15h36.28.773,LearnStrategy,2023.2.3,Win32,60.60606061,3,1,15,0.252777806,-0.256481524,1,0,0,9.0231,Peridotite_02,7,02,2,6,9.023,7,02,0.166666667,-0.407407407,1,0,0,1.8276,Peridotite_rect,7,1.828,1,14,0,14,0,1,,,,,,,,,,,,,
6661cdb231a34b5cec5669aa,SCR,2024-06-24_15h36.28.773,LearnStrategy,2023.2.3,Win32,60.60606061,3,1,16,0.567592621,0.089814822,1,0,0,1.9201,Gabbro_08,4,08,4,8,1.92,4,08,0.441666638,-0.249074088,1,0,0,4.3924,Gabbro_rect,4,4.392,1,15,0,15,0,1,,,,,,,,,,,,,
6661cdb231a34b5cec5669aa,SCR,2024-06-24_15h36.28.773,LearnStrategy,2023.2.3,Win32,60.60606061,3,2,1,,,,,,,,6,09,,,,,,,,,,,,,6,3.27,1,,,,,,-0.098148134,-0.392592607,1,0,0,3.27,Pegmatite_rect,0,0,0,0,1,
6661cdb231a34b5cec5669aa,SCR,2024-06-24_15h36.28.773,LearnStrategy,2023.2.3,Win32,60.60606061,3,2,2,,,,,,,,5,06,,,,,,,,,,,,,5,1.777,1,,,,,,-0.355555534,-0.400925954,1,0,0,1.7772,Obsidian_rect,1,0,1,0,1,
6661cdb231a34b5cec5669aa,SCR,2024-06-24_15h36.28.773,LearnStrategy,2023.2.3,Win32,60.60606061,3,2,3,,,,,,,,4,15,,,,,,,,,,,,,3,15.954,0,,,,,,0.085185228,-0.258333347,1,0,0,15.9542,Diorite_rect,2,0,2,0,1,
6661cdb231a34b5cec5669aa,SCR,2024-06-24_15h36.28.773,LearnStrategy,2023.2.3,Win32,60.60606061,3,2,4,,,,,,,,8,13,,,,,,,,,,,,,4,9.326,0,,,,,,0.375,-0.25,1,0,0,9.3261,Gabbro_rect,3,0,3,0,1,
6661cdb231a34b5cec5669aa,SCR,2024-06-24_15h36.28.773,LearnStrategy,2023.2.3,Win32,60.60606061,3,2,5,,,,,,,,1,07,,,,,,,,,,,,,1,5.961,1,,,,,,-0.414814808,-0.25,1,0,0,5.9608,Andesite_rect,4,0,4,0,1,
6661cdb231a34b5cec5669aa,SCR,2024-06-24_15h36.28.773,LearnStrategy,2023.2.3,Win32,60.60606061,3,2,6,,,,,,,,5,12,,,,,,,,,,,,,5,1.642,1,,,,,,-0.412962949,-0.397222236,1,0,0,1.6421,Obsidian_rect,5,0,5,0,1,
6661cdb231a34b5cec5669aa,SCR,2024-06-24_15h36.28.773,LearnStrategy,2023.2.3,Win32,60.60606061,3,2,7,,,,,,,,7,16,,,,,,,,,,,,,7,2.562,1,,,,,,0.068518533,-0.411111125,1,0,0,2.5623,Peridotite_rect,6,0,6,0,1,
6661cdb231a34b5cec5669aa,SCR,2024-06-24_15h36.28.773,LearnStrategy,2023.2.3,Win32,60.60606061,3,2,8,,,,,,,,2,04,,,,,,,,,,,,,2,2.119,1,,,,,,-0.130555541,-0.242592635,1,0,0,2.1194,Basalt_rect,7,0,7,0,1,
6661cdb231a34b5cec5669aa,SCR,2024-06-24_15h36.28.773,LearnStrategy,2023.2.3,Win32,60.60606061,3,2,9,,,,,,,,2,10,,,,,,,,,,,,,2,3.5,1,,,,,,-0.130555541,-0.241666653,1,0,0,3.5004,Basalt_rect,8,0,8,0,1,
6661cdb231a34b5cec5669aa,SCR,2024-06-24_15h36.28.773,LearnStrategy,2023.2.3,Win32,60.60606061,3,2,10,,,,,,,,6,13,,,,,,,,,,,,,3,16.85,0,,,,,,0.157407407,-0.237037023,1,0,0,16.8499,Diorite_rect,9,0,9,0,1,
6661cdb231a34b5cec5669aa,SCR,2024-06-24_15h36.28.773,LearnStrategy,2023.2.3,Win32,60.60606061,3,2,11,,,,,,,,3,10,,,,,,,,,,,,,3,3.055,1,,,,,,0.104629658,-0.246296282,1,0,0,3.055,Diorite_rect,10,0,10,0,1,
6661cdb231a34b5cec5669aa,SCR,2024-06-24_15h36.28.773,LearnStrategy,2023.2.3,Win32,60.60606061,3,2,12,,,,,,,,3,12,,,,,,,,,,,,,3,3.03,1,,,,,,0.104629658,-0.246296282,1,0,0,3.0302,Diorite_rect,11,0,11,0,1,
6661cdb231a34b5cec5669aa,SCR,2024-06-24_15h36.28.773,LearnStrategy,2023.2.3,Win32,60.60606061,3,2,13,,,,,,,,4,05,,,,,,,,,,,,,4,5.373,1,,,,,,0.395370342,-0.247222265,1,0,0,5.3731,Gabbro_rect,12,0,12,0,1,
6661cdb231a34b5cec5669aa,SCR,2024-06-24_15h36.28.773,LearnStrategy,2023.2.3,Win32,60.60606061,3,2,14,,,,,,,,1,03,,,,,,,,,,,,,1,5.274,1,,,,,,-0.359259252,-0.24537037,1,0,0,5.274,Andesite_rect,13,0,13,0,1,
6661cdb231a34b5cec5669aa,SCR,2024-06-24_15h36.28.773,LearnStrategy,2023.2.3,Win32,60.60606061,3,2,15,,,,,,,,8,03,,,,,,,,,,,,,8,2.032,1,,,,,,0.396296325,-0.402777778,1,0,0,2.032,Pumice_rect,14,0,14,0,1,
6661cdb231a34b5cec5669aa,SCR,2024-06-24_15h36.28.773,LearnStrategy,2023.2.3,Win32,60.60606061,3,2,16,,,,,,,,7,10,,,,,,,,,,,,,7,1.951,1,,,,,,0.159259302,-0.409259302,1,0,0,1.9509,Peridotite_rect,15,0,15,0,1,
6661cdb231a34b5cec5669aa,SCR,2024-06-24_15h36.28.773,LearnStrategy,2023.2.3,Win32,60.60606061,4,1,1,0.377777806,-0.115740741,1,0,0,4.7103,Pumice_02,8,02,3,7,4.71,4,13,0.3648149,-0.398148148,1,0,0,1.9045,Pumice_rect,8,1.905,1,0,0,0,0,1,,,,,,,,,,,,,
6661cdb231a34b5cec5669aa,SCR,2024-06-24_15h36.28.773,LearnStrategy,2023.2.3,Win32,60.60606061,4,1,2,0.045370384,-0.085185192,1,0,0,2.2793,Peridotite_07,7,07,3,5,2.279,7,07,0.087962963,-0.409259302,1,0,0,2.0327,Peridotite_rect,7,2.033,1,1,0,1,0,1,,,,,,,,,,,,,
6661cdb231a34b5cec5669aa,SCR,2024-06-24_15h36.28.773,LearnStrategy,2023.2.3,Win32,60.60606061,4,1,3,-0.424074067,-0.293518561,1,0,0,2.1388,Pegmatite_06,6,06,2,2,2.139,6,06,0.37962963,-0.250925912,1,0,0,3.3055,Gabbro_rect,4,3.305,0,2,0,2,0,1,,,,,,,,,,,,,
6661cdb231a34b5cec5669aa,SCR,2024-06-24_15h36.28.773,LearnStrategy,2023.2.3,Win32,60.60606061,4,1,4,-0.569444444,0.25833333,1,0,0,3.592,Diorite_08,3,08,5,1,3.592,3,08,0.128703718,-0.259259259,1,0,0,2.7423,Diorite_rect,3,2.742,1,3,0,3,0,1,,,,,,,,,,,,,
6661cdb231a34b5cec5669aa,SCR,2024-06-24_15h36.28.773,LearnStrategy,2023.2.3,Win32,60.60606061,4,1,5,0.551851908,-0.406481496,1,0,0,3.1645,Obsidian_10,5,10,1,8,3.165,5,10,-0.429629608,-0.391666695,1,0,0,1.3808,Obsidian_rect,5,1.381,1,4,0,4,0,1,,,,,,,,,,,,,
6661cdb231a34b5cec5669aa,SCR,2024-06-24_15h36.28.773,LearnStrategy,2023.2.3,Win32,60.60606061,4,1,6,-0.056481467,0.074999986,1,0,0,2.0622,Andesite_01,1,01,4,4,2.062,1,01,-0.443518497,-0.251851894,1,0,0,5.424,Andesite_rect,1,5.424,1,5,0,5,0,1,,,,,,,,,,,,,
6661cdb231a34b5cec5669aa,SCR,2024-06-24_15h36.28.773,LearnStrategy,2023.2.3,Win32,60.60606061,4,1,7,-0.203703704,0.070370356,1,0,0,1.9285,Gabbro_10,4,10,4,3,1.928,4,10,-0.395370377,-0.246296282,1,0,0,5.8346,Andesite_rect,1,5.835,0,6,0,6,0,1,,,,,,,,,,,,,
6661cdb231a34b5cec5669aa,SCR,2024-06-24_15h36.28.773,LearnStrategy,2023.2.3,Win32,60.60606061,4,1,8,0.37962963,0.264814818,1,0,0,3.3457,Gabbro_01,4,01,5,7,3.346,4,01,-0.39166666,-0.243518547,1,0,0,4.5247,Andesite_rect,1,4.525,0,7,0,7,0,1,,,,,,,,,,,,,
6661cdb231a34b5cec5669aa,SCR,2024-06-24_15h36.28.773,LearnStrategy,2023.2.3,Win32,60.60606061,4,1,9,0.590740769,0.26203703,1,0,0,3.7385,Pumice_15,8,15,5,8,3.739,8,15,0.382407436,-0.404629672,1,0,0,1.8889,Pumice_rect,8,1.889,1,8,0,8,0,1,,,,,,,,,,,,,
6661cdb231a34b5cec5669aa,SCR,2024-06-24_15h36.28.773,LearnStrategy,2023.2.3,Win32,60.60606061,4,1,10,0.213888875,0.062037044,1,0,0,1.9757,Diorite_09,3,09,4,6,1.976,3,09,0.150000042,-0.23055557,1,0,0,3.3601,Diorite_rect,3,3.36,1,9,0,9,0,1,,,,,,,,,,,,,
6661cdb231a34b5cec5669aa,SCR,2024-06-24_15h36.28.773,LearnStrategy,2023.2.3,Win32,60.60606061,4,1,11,-0.218518504,0.2574074,1,0,0,1.5809,Pumice_16,8,16,5,3,1.581,8,16,0.399999972,-0.410185213,1,0,0,1.7468,Pumice_rect,8,1.747,1,10,0,10,0,1,,,,,,,,,,,,,
6661cdb231a34b5cec5669aa,SCR,2024-06-24_15h36.28.773,LearnStrategy,2023.2.3,Win32,60.60606061,4,1,12,0.387037065,0.065740727,1,0,0,1.876,Pegmatite_07,6,07,4,7,1.876,6,07,-0.16851849,-0.405555584,1,0,0,2.7921,Pegmatite_rect,6,2.792,1,11,0,11,0,1,,,,,,,,,,,,,
6661cdb231a34b5cec5669aa,SCR,2024-06-24_15h36.28.773,LearnStrategy,2023.2.3,Win32,60.60606061,4,1,13,-0.287962949,-0.125925912,1,0,0,3.9062,Basalt_01,2,01,3,3,3.906,2,01,-0.138888889,-0.249074088,1,0,0,1.1794,Basalt_rect,2,1.179,1,12,0,12,0,1,,,,,,,,,,,,,
6661cdb231a34b5cec5669aa,SCR,2024-06-24_15h36.28.773,LearnStrategy,2023.2.3,Win32,60.60606061,4,1,14,-0.416666667,-0.253703718,1,0,0,1.6217,Pegmatite_06,6,06,2,2,1.622,6,06,-0.112962935,-0.400925954,1,0,0,4.1497,Pegmatite_rect,6,4.15,1,13,0,13,0,1,,,,,,,,,,,,,
6661cdb231a34b5cec5669aa,SCR,2024-06-24_15h36.28.773,LearnStrategy,2023.2.3,Win32,60.60606061,4,1,15,-0.390740748,0.098148134,1,0,0,2.0732,Gabbro_13,4,13,4,2,2.073,4,13,0.345370399,-0.239814829,1,0,0,3.9225,Gabbro_rect,4,3.922,1,14,0,14,0,1,,,,,,,,,,,,,
6661cdb231a34b5cec5669aa,SCR,2024-06-24_15h36.28.773,LearnStrategy,2023.2.3,Win32,60.60606061,4,1,16,-0.53148146,0.400925928,1,0,0,10.6343,Andesite_10,1,10,6,1,10.634,1,10,-0.36296297,-0.249074088,1,0,0,4.6005,Andesite_rect,1,4.601,1,15,0,15,0,1,,,,,,,,,,,,,
6661cdb231a34b5cec5669aa,SCR,2024-06-24_15h36.28.773,LearnStrategy,2023.2.3,Win32,60.60606061,4,2,1,,,,,,,,2,10,,,,,,,,,,,,,2,3.528,1,,,,,,-0.117592564,-0.241666653,1,0,0,3.5283,Basalt_rect,0,0,0,0,1,
6661cdb231a34b5cec5669aa,SCR,2024-06-24_15h36.28.773,LearnStrategy,2023.2.3,Win32,60.60606061,4,2,2,,,,,,,,7,12,,,,,,,,,,,,,7,2.419,1,,,,,,0.158333319,-0.400925954,1,0,0,2.4187,Peridotite_rect,1,0,1,0,1,
6661cdb231a34b5cec5669aa,SCR,2024-06-24_15h36.28.773,LearnStrategy,2023.2.3,Win32,60.60606061,4,2,3,,,,,,,,8,03,,,,,,,,,,,,,8,2.507,1,,,,,,0.324074074,-0.406481496,1,0,0,2.5069,Pumice_rect,2,0,2,0,1,
6661cdb231a34b5cec5669aa,SCR,2024-06-24_15h36.28.773,LearnStrategy,2023.2.3,Win32,60.60606061,4,2,4,,,,,,,,4,11,,,,,,,,,,,,,1,4.387,0,,,,,,-0.371296282,-0.235185199,1,0,0,4.3868,Andesite_rect,3,0,3,0,1,
6661cdb231a34b5cec5669aa,SCR,2024-06-24_15h36.28.773,LearnStrategy,2023.2.3,Win32,60.60606061,4,2,5,,,,,,,,1,03,,,,,,,,,,,,,1,1.971,1,,,,,,-0.371296282,-0.235185199,1,0,0,1.9709,Andesite_rect,4,0,4,0,1,
6661cdb231a34b5cec5669aa,SCR,2024-06-24_15h36.28.773,LearnStrategy,2023.2.3,Win32,60.60606061,4,2,6,,,,,,,,5,05,,,,,,,,,,,,,5,2.53,1,,,,,,-0.402777778,-0.408333319,1,0,0,2.53,Obsidian_rect,5,0,5,0,1,
6661cdb231a34b5cec5669aa,SCR,2024-06-24_15h36.28.773,LearnStrategy,2023.2.3,Win32,60.60606061,4,2,7,,,,,,,,2,08,,,,,,,,,,,,,2,2.243,1,,,,,,-0.176851838,-0.25,1,0,0,2.2426,Basalt_rect,6,0,6,0,1,
6661cdb231a34b5cec5669aa,SCR,2024-06-24_15h36.28.773,LearnStrategy,2023.2.3,Win32,60.60606061,4,2,8,,,,,,,,4,15,,,,,,,,,,,,,1,8.003,0,,,,,,-0.345370363,-0.244444459,1,0,0,8.0033,Andesite_rect,7,0,7,0,1,
6661cdb231a34b5cec5669aa,SCR,2024-06-24_15h36.28.773,LearnStrategy,2023.2.3,Win32,60.60606061,4,2,9,,,,,,,,6,15,,,,,,,,,,,,,6,2.599,1,,,,,,-0.123148106,-0.398148148,1,0,0,2.5993,Pegmatite_rect,8,0,8,0,1,
6661cdb231a34b5cec5669aa,SCR,2024-06-24_15h36.28.773,LearnStrategy,2023.2.3,Win32,60.60606061,4,2,10,,,,,,,,1,02,,,,,,,,,,,,,1,13.478,1,,,,,,-0.344444452,-0.234259288,1,0,0,13.4779,Andesite_rect,9,0,9,0,1,
6661cdb231a34b5cec5669aa,SCR,2024-06-24_15h36.28.773,LearnStrategy,2023.2.3,Win32,60.60606061,4,2,11,,,,,,,,7,05,,,,,,,,,,,,,7,9.457,1,,,,,,0.110185199,-0.407407407,1,0,0,9.4571,Peridotite_rect,10,0,10,0,1,
6661cdb231a34b5cec5669aa,SCR,2024-06-24_15h36.28.773,LearnStrategy,2023.2.3,Win32,60.60606061,4,2,12,,,,,,,,6,13,,,,,,,,,,,,,6,2.679,1,,,,,,-0.125,-0.385185171,1,0,0,2.6791,Pegmatite_rect,11,0,11,0,1,
6661cdb231a34b5cec5669aa,SCR,2024-06-24_15h36.28.773,LearnStrategy,2023.2.3,Win32,60.60606061,4,2,13,,,,,,,,8,09,,,,,,,,,,,,,8,1.902,1,,,,,,0.350000028,-0.410185213,1,0,0,1.9025,Pumice_rect,12,0,12,0,1,
6661cdb231a34b5cec5669aa,SCR,2024-06-24_15h36.28.773,LearnStrategy,2023.2.3,Win32,60.60606061,4,2,14,,,,,,,,5,12,,,,,,,,,,,,,5,1.52,1,,,,,,-0.431481467,-0.390740783,1,0,0,1.5203,Obsidian_rect,13,0,13,0,1,
6661cdb231a34b5cec5669aa,SCR,2024-06-24_15h36.28.773,LearnStrategy,2023.2.3,Win32,60.60606061,4,2,15,,,,,,,,3,02,,,,,,,,,,,,,3,7.311,1,,,,,,0.087962963,-0.25,1,0,0,7.3113,Diorite_rect,14,0,14,0,1,
6661cdb231a34b5cec5669aa,SCR,2024-06-24_15h36.28.773,LearnStrategy,2023.2.3,Win32,60.60606061,4,2,16,,,,,,,,3,10,,,,,,,,,,,,,4,18.434,0,,,,,,0.345370399,-0.260185171,1,0,0,18.4338,Gabbro_rect,15,0,15,0,1,
6661cdb231a34b5cec5669aa,SCR,2024-06-24_15h36.28.773,LearnStrategy,2023.2.3,Win32,60.60606061,5,1,1,0.228703746,-0.085185192,1,0,0,3.8618,Andesite_14,1,14,3,6,3.862,1,14,-0.381481489,-0.259259259,1,0,0,4.1695,Andesite_rect,1,4.169,1,0,0,0,0,1,,,,,,,,,,,,,
6661cdb231a34b5cec5669aa,SCR,2024-06-24_15h36.28.773,LearnStrategy,2023.2.3,Win32,60.60606061,5,1,2,0.397222307,-0.452777792,1,0,0,1.5668,Gabbro_14,4,14,1,7,1.567,4,14,0.404629601,-0.25,1,0,0,3.0579,Gabbro_rect,4,3.058,1,1,0,1,0,1,,,,,,,,,,,,,
6661cdb231a34b5cec5669aa,SCR,2024-06-24_15h36.28.773,LearnStrategy,2023.2.3,Win32,60.60606061,5,1,3,-0.53611109,-0.258333347,1,0,0,1.685,Andesite_04,1,04,2,1,1.685,1,04,-0.452777757,-0.262962977,1,0,0,2.3994,Andesite_rect,1,2.399,1,2,0,2,0,1,,,,,,,,,,,,,
6661cdb231a34b5cec5669aa,SCR,2024-06-24_15h36.28.773,LearnStrategy,2023.2.3,Win32,60.60606061,5,1,4,-0.217592593,0.268518519,1,0,0,1.6112,Pumice_16,8,16,5,3,1.611,8,16,0.462962963,-0.405555584,1,0,0,2.0467,Pumice_rect,8,2.047,1,3,0,3,0,1,,,,,,,,,,,,,
6661cdb231a34b5cec5669aa,SCR,2024-06-24_15h36.28.773,LearnStrategy,2023.2.3,Win32,60.60606061,5,1,5,0.367592564,-0.275000042,1,0,0,1.4487,Pegmatite_10,6,10,2,7,1.449,6,10,-0.166666667,-0.386111153,1,0,0,1.3779,Pegmatite_rect,6,1.378,1,4,0,4,0,1,,,,,,,,,,,,,
6661cdb231a34b5cec5669aa,SCR,2024-06-24_15h36.28.773,LearnStrategy,2023.2.3,Win32,60.60606061,5,1,6,0.570370427,-0.256481524,1,0,0,1.7034,Diorite_14,3,14,2,8,1.703,3,14,0.167592578,-0.257407436,1,0,0,1.8941,Diorite_rect,3,1.894,1,5,0,5,0,1,,,,,,,,,,,,,
6661cdb231a34b5cec5669aa,SCR,2024-06-24_15h36.28.773,LearnStrategy,2023.2.3,Win32,60.60606061,5,1,7,0.212962963,-0.428703732,1,0,0,1.3716,Pegmatite_08,6,08,1,6,1.372,6,08,-0.14907406,-0.410185213,1,0,0,1.7836,Pegmatite_rect,6,1.784,1,6,0,6,0,1,,,,,,,,,,,,,
6661cdb231a34b5cec5669aa,SCR,2024-06-24_15h36.28.773,LearnStrategy,2023.2.3,Win32,60.60606061,5,1,8,0.382407436,-0.417592578,1,0,0,1.2792,Gabbro_14,4,14,1,7,1.279,4,14,0.37962963,-0.25462963,1,0,0,1.9796,Gabbro_rect,4,1.98,1,7,0,7,0,1,,,,,,,,,,,,,
6661cdb231a34b5cec5669aa,SCR,2024-06-24_15h36.28.773,LearnStrategy,2023.2.3,Win32,60.60606061,5,1,9,0.570370427,-0.100000028,1,0,0,1.6179,Obsidian_07,5,07,3,8,1.618,5,07,-0.465740734,-0.40370369,1,0,0,1.3387,Obsidian_rect,5,1.339,1,8,0,8,0,1,,,,,,,,,,,,,
6661cdb231a34b5cec5669aa,SCR,2024-06-24_15h36.28.773,LearnStrategy,2023.2.3,Win32,60.60606061,5,1,10,0.564814815,0.096296275,1,0,0,1.623,Gabbro_08,4,08,4,8,1.623,4,08,0.412037037,-0.242592635,1,0,0,8.1529,Gabbro_rect,4,8.153,1,9,0,9,0,1,,,,,,,,,,,,,
6661cdb231a34b5cec5669aa,SCR,2024-06-24_15h36.28.773,LearnStrategy,2023.2.3,Win32,60.60606061,5,1,11,-0.240740741,0.080555563,1,0,0,1.3431,Gabbro_10,4,10,4,3,1.343,4,10,0.440740797,-0.271296325,1,0,0,2.2235,Gabbro_rect,4,2.224,1,10,0,10,0,1,,,,,,,,,,,,,
6661cdb231a34b5cec5669aa,SCR,2024-06-24_15h36.28.773,LearnStrategy,2023.2.3,Win32,60.60606061,5,1,12,-0.562037044,0.26203703,1,0,0,1.663,Diorite_08,3,08,5,1,1.663,3,08,0.131481524,-0.252777806,1,0,0,1.3743,Diorite_rect,3,1.374,1,11,0,11,0,1,,,,,,,,,,,,,
6661cdb231a34b5cec5669aa,SCR,2024-06-24_15h36.28.773,LearnStrategy,2023.2.3,Win32,60.60606061,5,1,13,0.534259231,0.065740727,1,0,0,1.935,Gabbro_08,4,08,4,8,1.935,4,08,0.353703675,-0.238888917,1,0,0,4.4779,Gabbro_rect,4,4.478,1,12,0,12,0,1,,,,,,,,,,,,,
6661cdb231a34b5cec5669aa,SCR,2024-06-24_15h36.28.773,LearnStrategy,2023.2.3,Win32,60.60606061,5,1,14,0.054629644,-0.258333347,1,0,0,1.138,Basalt_12,2,12,2,5,1.138,2,12,0.464814787,-0.409259302,1,0,0,6.0379,Pumice_rect,8,6.038,0,13,0,13,0,1,,,,,,,,,,,,,
6661cdb231a34b5cec5669aa,SCR,2024-06-24_15h36.28.773,LearnStrategy,2023.2.3,Win32,60.60606061,5,1,15,-0.237962935,0.26203703,1,0,0,1.5452,Pumice_16,8,16,5,3,1.545,8,16,0.401851937,-0.406481496,1,0,0,1.1612,Pumice_rect,8,1.161,1,14,0,14,0,1,,,,,,,,,,,,,
6661cdb231a34b5cec5669aa,SCR,2024-06-24_15h36.28.773,LearnStrategy,2023.2.3,Win32,60.60606061,5,1,16,0.225000028,-0.242592635,1,0,0,1.336,Peridotite_02,7,02,2,6,1.336,7,02,0.132407436,-0.386111153,1,0,0,1.3515,Peridotite_rect,7,1.351,1,15,0,15,0,1,,,,,,,,,,,,,
6661cdb231a34b5cec5669aa,SCR,2024-06-24_15h36.28.773,LearnStrategy,2023.2.3,Win32,60.60606061,5,2,1,,,,,,,,4,12,,,,,,,,,,,,,1,4.743,0,,,,,,-0.359259252,-0.24537037,1,0,0,4.7428,Andesite_rect,0,0,0,0,1,
6661cdb231a34b5cec5669aa,SCR,2024-06-24_15h36.28.773,LearnStrategy,2023.2.3,Win32,60.60606061,5,2,2,,,,,,,,3,12,,,,,,,,,,,,,3,2.111,1,,,,,,0.078703704,-0.270370413,1,0,0,2.1112,Diorite_rect,1,0,1,0,1,
6661cdb231a34b5cec5669aa,SCR,2024-06-24_15h36.28.773,LearnStrategy,2023.2.3,Win32,60.60606061,5,2,3,,,,,,,,8,08,,,,,,,,,,,,,8,1.748,1,,,,,,0.367592564,-0.417592578,1,0,0,1.7483,Pumice_rect,2,0,2,0,1,
6661cdb231a34b5cec5669aa,SCR,2024-06-24_15h36.28.773,LearnStrategy,2023.2.3,Win32,60.60606061,5,2,4,,,,,,,,5,06,,,,,,,,,,,,,5,1.455,1,,,,,,-0.437037044,-0.393518519,1,0,0,1.4548,Obsidian_rect,3,0,3,0,1,
6661cdb231a34b5cec5669aa,SCR,2024-06-24_15h36.28.773,LearnStrategy,2023.2.3,Win32,60.60606061,5,2,5,,,,,,,,4,16,,,,,,,,,,,,,4,4.377,1,,,,,,0.377777806,-0.250925912,1,0,0,4.3766,Gabbro_rect,4,0,4,0,1,
6661cdb231a34b5cec5669aa,SCR,2024-06-24_15h36.28.773,LearnStrategy,2023.2.3,Win32,60.60606061,5,2,6,,,,,,,,1,05,,,,,,,,,,,,,1,3.042,1,,,,,,-0.40370369,-0.261111153,1,0,0,3.0422,Andesite_rect,5,0,5,0,1,
6661cdb231a34b5cec5669aa,SCR,2024-06-24_15h36.28.773,LearnStrategy,2023.2.3,Win32,60.60606061,5,2,7,,,,,,,,3,06,,,,,,,,,,,,,3,2.826,1,,,,,,0.07222225,-0.267592607,1,0,0,2.826,Diorite_rect,6,0,6,0,1,
6661cdb231a34b5cec5669aa,SCR,2024-06-24_15h36.28.773,LearnStrategy,2023.2.3,Win32,60.60606061,5,2,8,,,,,,,,7,10,,,,,,,,,,,,,7,1.379,1,,,,,,0.064814815,-0.400000042,1,0,0,1.3787,Peridotite_rect,7,0,7,0,1,
6661cdb231a34b5cec5669aa,SCR,2024-06-24_15h36.28.773,LearnStrategy,2023.2.3,Win32,60.60606061,5,2,9,,,,,,,,2,05,,,,,,,,,,,,,2,2.301,1,,,,,,-0.137962977,-0.238888917,1,0,0,2.3007,Basalt_rect,8,0,8,0,1,
6661cdb231a34b5cec5669aa,SCR,2024-06-24_15h36.28.773,LearnStrategy,2023.2.3,Win32,60.60606061,5,2,10,,,,,,,,8,05,,,,,,,,,,,,,8,1.932,1,,,,,,0.429629714,-0.392592607,1,0,0,1.9323,Pumice_rect,9,0,9,0,1,
6661cdb231a34b5cec5669aa,SCR,2024-06-24_15h36.28.773,LearnStrategy,2023.2.3,Win32,60.60606061,5,2,11,,,,,,,,5,09,,,,,,,,,,,,,5,1.677,1,,,,,,-0.377777771,-0.416666667,1,0,0,1.6767,Obsidian_rect,10,0,10,0,1,
6661cdb231a34b5cec5669aa,SCR,2024-06-24_15h36.28.773,LearnStrategy,2023.2.3,Win32,60.60606061,5,2,12,,,,,,,,6,11,,,,,,,,,,,,,6,1.726,1,,,,,,-0.167592578,-0.400925954,1,0,0,1.7256,Pegmatite_rect,11,0,11,0,1,
6661cdb231a34b5cec5669aa,SCR,2024-06-24_15h36.28.773,LearnStrategy,2023.2.3,Win32,60.60606061,5,2,13,,,,,,,,1,11,,,,,,,,,,,,,1,4.052,1,,,,,,-0.348148134,-0.25,1,0,0,4.0515,Andesite_rect,12,0,12,0,1,
6661cdb231a34b5cec5669aa,SCR,2024-06-24_15h36.28.773,LearnStrategy,2023.2.3,Win32,60.60606061,5,2,14,,,,,,,,2,16,,,,,,,,,,,,,2,2.953,1,,,,,,-0.155555513,-0.262037065,1,0,0,2.9535,Basalt_rect,13,0,13,0,1,
6661cdb231a34b5cec5669aa,SCR,2024-06-24_15h36.28.773,LearnStrategy,2023.2.3,Win32,60.60606061,5,2,15,,,,,,,,7,15,,,,,,,,,,,,,7,1.551,1,,,,,,0.085185228,-0.385185171,1,0,0,1.551,Peridotite_rect,14,0,14,0,1,
6661cdb231a34b5cec5669aa,SCR,2024-06-24_15h36.28.773,LearnStrategy,2023.2.3,Win32,60.60606061,5,2,16,,,,,,,,6,16,,,,,,,,,,,,,6,1.516,1,,,,,,-0.133333347,-0.396296325,1,0,0,1.5163,Pegmatite_rect,15,0,15,0,1,
6661cdb231a34b5cec5669aa,SCR,2024-06-24_15h36.28.773,LearnStrategy,2023.2.3,Win32,60.60606061,6,1,1,0.061111097,0.400925928,1,0,0,1.8799,Gabbro_03,4,03,6,5,1.88,4,03,-0.36296297,-0.232407393,1,0,0,2.0608,Andesite_rect,1,2.061,0,0,0,0,0,1,,,,,,,,,,,,,
6661cdb231a34b5cec5669aa,SCR,2024-06-24_15h36.28.773,LearnStrategy,2023.2.3,Win32,60.60606061,6,1,2,-0.253703718,0.406481478,1,0,0,1.7423,Andesite_16,1,16,6,3,1.742,1,16,-0.397222201,-0.259259259,1,0,0,1.8461,Andesite_rect,1,1.846,1,1,0,1,0,1,,,,,,,,,,,,,
6661cdb231a34b5cec5669aa,SCR,2024-06-24_15h36.28.773,LearnStrategy,2023.2.3,Win32,60.60606061,6,1,3,0.066666709,0.287962966,1,0,0,1.4729,Basalt_14,2,14,5,5,1.473,2,14,-0.095370328,-0.242592635,1,0,0,3.4833,Basalt_rect,2,3.483,1,2,0,2,0,1,,,,,,,,,,,,,
6661cdb231a34b5cec5669aa,SCR,2024-06-24_15h36.28.773,LearnStrategy,2023.2.3,Win32,60.60606061,6,1,4,0.05277782,-0.10092594,1,0,0,1.2193,Peridotite_07,7,07,3,5,1.219,7,07,0.119444459,-0.412962949,1,0,0,3.1317,Peridotite_rect,7,3.132,1,3,0,3,0,1,,,,,,,,,,,,,
6661cdb231a34b5cec5669aa,SCR,2024-06-24_15h36.28.773,LearnStrategy,2023.2.3,Win32,60.60606061,6,1,5,-0.237962935,0.089814822,1,0,0,1.2069,Gabbro_10,4,10,4,3,1.207,4,10,0.384259259,-0.262962977,1,0,0,2.0029,Gabbro_rect,4,2.003,1,4,0,4,0,1,,,,,,,,,,,,,
6661cdb231a34b5cec5669aa,SCR,2024-06-24_15h36.28.773,LearnStrategy,2023.2.3,Win32,60.60606061,6,1,6,-0.075925898,0.255555559,1,0,0,1.3414,Obsidian_02,5,02,5,4,1.341,5,02,-0.416666667,-0.413888931,1,0,0,1.1568,Obsidian_rect,5,1.157,1,5,0,5,0,1,,,,,,,,,,,,,
6661cdb231a34b5cec5669aa,SCR,2024-06-24_15h36.28.773,LearnStrategy,2023.2.3,Win32,60.60606061,6,1,7,0.396296325,-0.44722225,1,0,0,1.8137,Gabbro_14,4,14,1,7,1.814,4,14,0.371296353,-0.237037023,1,0,0,1.9633,Gabbro_rect,4,1.963,1,6,0,6,0,1,,,,,,,,,,,,,
6661cdb231a34b5cec5669aa,SCR,2024-06-24_15h36.28.773,LearnStrategy,2023.2.3,Win32,60.60606061,6,1,8,-0.22129631,-0.407407407,1,0,0,1.4951,Diorite_11,3,11,1,3,1.495,3,11,0.108333376,-0.243518547,1,0,0,1.7656,Diorite_rect,3,1.766,1,7,0,7,0,1,,,,,,,,,,,,,
6661cdb231a34b5cec5669aa,SCR,2024-06-24_15h36.28.773,LearnStrategy,2023.2.3,Win32,60.60606061,6,1,9,-0.372222229,-0.233333376,1,0,0,1.4132,Pegmatite_06,6,06,2,2,1.413,6,06,-0.170370384,-0.390740783,1,0,0,1.4016,Pegmatite_rect,6,1.402,1,8,0,8,0,1,,,,,,,,,,,,,
6661cdb231a34b5cec5669aa,SCR,2024-06-24_15h36.28.773,LearnStrategy,2023.2.3,Win32,60.60606061,6,1,10,-0.570370356,0.272222219,1,0,0,1.649,Diorite_08,3,08,5,1,1.649,3,08,0.113888917,-0.251851894,1,0,0,1.6747,Diorite_rect,3,1.675,1,9,0,9,0,1,,,,,,,,,,,,,
6661cdb231a34b5cec5669aa,SCR,2024-06-24_15h36.28.773,LearnStrategy,2023.2.3,Win32,60.60606061,6,1,11,0.384259259,-0.414814843,1,0,0,1.7717,Gabbro_14,4,14,1,7,1.772,4,14,0.369444529,-0.25462963,1,0,0,4.3724,Gabbro_rect,4,4.372,1,10,0,10,0,1,,,,,,,,,,,,,
6661cdb231a34b5cec5669aa,SCR,2024-06-24_15h36.28.773,LearnStrategy,2023.2.3,Win32,60.60606061,6,1,12,-0.250925912,0.099999993,1,0,0,1.4046,Gabbro_10,4,10,4,3,1.405,4,10,0.45648151,-0.244444459,1,0,0,1.3997,Gabbro_rect,4,1.4,1,11,0,11,0,1,,,,,,,,,,,,,
6661cdb231a34b5cec5669aa,SCR,2024-06-24_15h36.28.773,LearnStrategy,2023.2.3,Win32,60.60606061,6,1,13,0.430555556,-0.299074102,1,0,0,1.3813,Pegmatite_10,6,10,2,7,1.381,6,10,-0.103703675,-0.392592607,1,0,0,1.2141,Pegmatite_rect,6,1.214,1,12,0,12,0,1,,,,,,,,,,,,,
6661cdb231a34b5cec5669aa,SCR,2024-06-24_15h36.28.773,LearnStrategy,2023.2.3,Win32,60.60606061,6,1,14,-0.069444444,0.419444446,1,0,0,1.4792,Pumice_10,8,10,6,4,1.479,8,10,0.395370342,-0.390740783,1,0,0,4.048,Pumice_rect,8,4.048,1,13,0,13,0,1,,,,,,,,,,,,,
6661cdb231a34b5cec5669aa,SCR,2024-06-24_15h36.28.773,LearnStrategy,2023.2.3,Win32,60.60606061,6,1,15,0.234259288,-0.098148134,1,0,0,1.3939,Andesite_14,1,14,3,6,1.394,1,14,-0.400000007,-0.244444459,1,0,0,1.9938,Andesite_rect,1,1.994,1,14,0,14,0,1,,,,,,,,,,,,,
6661cdb231a34b5cec5669aa,SCR,2024-06-24_15h36.28.773,LearnStrategy,2023.2.3,Win32,60.60606061,6,1,16,-0.206481439,0.095370363,1,0,0,1.4717,Gabbro_10,4,10,4,3,1.472,4,10,0.439814815,-0.246296282,1,0,0,1.3558,Gabbro_rect,4,1.356,1,15,0,15,0,1,,,,,,,,,,,,,
6661cdb231a34b5cec5669aa,SCR,2024-06-24_15h36.28.773,LearnStrategy,2023.2.3,Win32,60.60606061,6,2,1,,,,,,,,1,07,,,,,,,,,,,,,1,8.631,1,,,,,,-0.349999993,-0.234259288,1,0,0,8.6315,Andesite_rect,0,0,0,0,1,
6661cdb231a34b5cec5669aa,SCR,2024-06-24_15h36.28.773,LearnStrategy,2023.2.3,Win32,60.60606061,6,2,2,,,,,,,,7,04,,,,,,,,,,,,,7,4.889,1,,,,,,0.067592621,-0.409259302,1,0,0,4.8895,Peridotite_rect,1,0,1,0,1,
6661cdb231a34b5cec5669aa,SCR,2024-06-24_15h36.28.773,LearnStrategy,2023.2.3,Win32,60.60606061,6,2,3,,,,,,,,3,13,,,,,,,,,,,,,3,1.541,1,,,,,,0.147222236,-0.243518547,1,0,0,1.541,Diorite_rect,2,0,2,0,1,
6661cdb231a34b5cec5669aa,SCR,2024-06-24_15h36.28.773,LearnStrategy,2023.2.3,Win32,60.60606061,6,2,4,,,,,,,,1,09,,,,,,,,,,,,,1,3.043,1,,,,,,-0.337962963,-0.243518547,1,0,0,3.0431,Andesite_rect,3,0,3,0,1,
6661cdb231a34b5cec5669aa,SCR,2024-06-24_15h36.28.773,LearnStrategy,2023.2.3,Win32,60.60606061,6,2,5,,,,,,,,2,09,,,,,,,,,,,,,2,1.66,1,,,,,,-0.181481467,-0.255555541,1,0,0,1.6601,Basalt_rect,4,0,4,0,1,
6661cdb231a34b5cec5669aa,SCR,2024-06-24_15h36.28.773,LearnStrategy,2023.2.3,Win32,60.60606061,6,2,6,,,,,,,,5,11,,,,,,,,,,,,,5,1.466,1,,,,,,-0.413888896,-0.421296296,1,0,0,1.4665,Obsidian_rect,5,0,5,0,1,
6661cdb231a34b5cec5669aa,SCR,2024-06-24_15h36.28.773,LearnStrategy,2023.2.3,Win32,60.60606061,6,2,7,,,,,,,,6,03,,,,,,,,,,,,,6,1.949,1,,,,,,-0.151851866,-0.412037037,1,0,0,1.9495,Pegmatite_rect,6,0,6,0,1,
6661cdb231a34b5cec5669aa,SCR,2024-06-24_15h36.28.773,LearnStrategy,2023.2.3,Win32,60.60606061,6,2,8,,,,,,,,6,09,,,,,,,,,,,,,6,6.307,1,,,,,,-0.151851866,-0.412037037,1,0,0,6.3075,Pegmatite_rect,7,0,7,0,1,
6661cdb231a34b5cec5669aa,SCR,2024-06-24_15h36.28.773,LearnStrategy,2023.2.3,Win32,60.60606061,6,2,9,,,,,,,,4,05,,,,,,,,,,,,,6,5.332,0,,,,,,-0.151851866,-0.412037037,1,0,0,5.3324,Pegmatite_rect,8,0,8,0,1,
6661cdb231a34b5cec5669aa,SCR,2024-06-24_15h36.28.773,LearnStrategy,2023.2.3,Win32,60.60606061,6,2,10,,,,,,,,2,04,,,,,,,,,,,,,2,1.51,1,,,,,,-0.146296254,-0.244444459,1,0,0,1.5103,Basalt_rect,9,0,9,0,1,
6661cdb231a34b5cec5669aa,SCR,2024-06-24_15h36.28.773,LearnStrategy,2023.2.3,Win32,60.60606061,6,2,11,,,,,,,,3,16,,,,,,,,,,,,,3,1.681,1,,,,,,0.090740769,-0.265740783,1,0,0,1.6813,Diorite_rect,10,0,10,0,1,
6661cdb231a34b5cec5669aa,SCR,2024-06-24_15h36.28.773,LearnStrategy,2023.2.3,Win32,60.60606061,6,2,12,,,,,,,,8,13,,,,,,,,,,,,,8,3.084,1,,,,,,0.349074046,-0.406481496,1,0,0,3.0839,Pumice_rect,11,0,11,0,1,
6661cdb231a34b5cec5669aa,SCR,2024-06-24_15h36.28.773,LearnStrategy,2023.2.3,Win32,60.60606061,6,2,13,,,,,,,,8,06,,,,,,,,,,,,,8,0.84,1,,,,,,0.349074046,-0.406481496,1,0,0,0.8399,Pumice_rect,12,0,12,0,1,
6661cdb231a34b5cec5669aa,SCR,2024-06-24_15h36.28.773,LearnStrategy,2023.2.3,Win32,60.60606061,6,2,14,,,,,,,,4,09,,,,,,,,,,,,,2,2.664,0,,,,,,-0.12962963,-0.234259288,1,0,0,2.664,Basalt_rect,13,0,13,0,1,
6661cdb231a34b5cec5669aa,SCR,2024-06-24_15h36.28.773,LearnStrategy,2023.2.3,Win32,60.60606061,6,2,15,,,,,,,,5,16,,,,,,,,,,,,,5,1.661,1,,,,,,-0.390740748,-0.390740783,1,0,0,1.6608,Obsidian_rect,14,0,14,0,1,
6661cdb231a34b5cec5669aa,SCR,2024-06-24_15h36.28.773,LearnStrategy,2023.2.3,Win32,60.60606061,6,2,16,,,,,,,,7,16,,,,,,,,,,,,,7,2.079,1,,,,,,0.084259245,-0.401851866,1,0,0,2.0789,Peridotite_rect,15,0,15,0,1,
6661cdb231a34b5cec5669aa,SCR,2024-06-24_15h36.28.773,LearnStrategy,2023.2.3,Win32,60.60606061,7,1,1,0.37962963,-0.417592578,1,0,0,1.6521,Gabbro_14,4,14,1,7,1.652,4,14,0.374074159,-0.24537037,1,0,0,1.5377,Gabbro_rect,4,1.538,1,0,0,0,0,1,,,,,,,,,,,,,
6661cdb231a34b5cec5669aa,SCR,2024-06-24_15h36.28.773,LearnStrategy,2023.2.3,Win32,60.60606061,7,1,2,0.375,0.24166667,1,0,0,3.8035,Gabbro_01,4,01,5,7,3.803,4,01,0.341666751,-0.25462963,1,0,0,3.0799,Gabbro_rect,4,3.08,1,1,0,1,0,1,,,,,,,,,,,,,
6661cdb231a34b5cec5669aa,SCR,2024-06-24_15h36.28.773,LearnStrategy,2023.2.3,Win32,60.60606061,7,1,3,-0.41111109,0.086111104,1,0,0,2.5798,Gabbro_13,4,13,4,2,2.58,4,13,0.353703675,-0.242592635,1,0,0,5.134,Gabbro_rect,4,5.134,1,2,0,2,0,1,,,,,,,,,,,,,
6661cdb231a34b5cec5669aa,SCR,2024-06-24_15h36.28.773,LearnStrategy,2023.2.3,Win32,60.60606061,7,1,4,0.587962963,-0.426851838,1,0,0,1.5057,Obsidian_10,5,10,1,8,1.506,5,10,-0.452777757,-0.381481524,1,0,0,1.2042,Obsidian_rect,5,1.204,1,3,0,3,0,1,,,,,,,,,,,,,
6661cdb231a34b5cec5669aa,SCR,2024-06-24_15h36.28.773,LearnStrategy,2023.2.3,Win32,60.60606061,7,1,5,-0.575925933,0.255555559,1,0,0,1.3057,Diorite_08,3,08,5,1,1.306,3,08,0.085185228,-0.248148176,1,0,0,2.1955,Diorite_rect,3,2.195,1,4,0,4,0,1,,,,,,,,,,,,,
6661cdb231a34b5cec5669aa,SCR,2024-06-24_15h36.28.773,LearnStrategy,2023.2.3,Win32,60.60606061,7,1,6,0.563888974,0.069444444,1,0,0,1.9148,Gabbro_08,4,08,4,8,1.915,4,08,0.462962963,-0.246296282,1,0,0,2.0889,Gabbro_rect,4,2.089,1,5,0,5,0,1,,,,,,,,,,,,,
6661cdb231a34b5cec5669aa,SCR,2024-06-24_15h36.28.773,LearnStrategy,2023.2.3,Win32,60.60606061,7,1,7,0.237963005,-0.462037051,1,0,0,1.5614,Pegmatite_08,6,08,1,6,1.561,6,08,-0.167592578,-0.409259302,1,0,0,1.2231,Pegmatite_rect,6,1.223,1,6,0,6,0,1,,,,,,,,,,,,,
6661cdb231a34b5cec5669aa,SCR,2024-06-24_15h36.28.773,LearnStrategy,2023.2.3,Win32,60.60606061,7,1,8,0.070370356,0.428703701,1,0,0,1.4465,Gabbro_03,4,03,6,5,1.447,4,03,-0.361111111,-0.241666653,1,0,0,1.8868,Andesite_rect,1,1.887,0,7,0,7,0,1,,,,,,,,,,,,,
6661cdb231a34b5cec5669aa,SCR,2024-06-24_15h36.28.773,LearnStrategy,2023.2.3,Win32,60.60606061,7,1,9,-0.554629608,-0.087037051,1,0,0,2.2191,Basalt_06,2,06,3,1,2.219,2,06,-0.158333319,-0.258333347,1,0,0,1.4841,Basalt_rect,2,1.484,1,8,0,8,0,1,,,,,,,,,,,,,
6661cdb231a34b5cec5669aa,SCR,2024-06-24_15h36.28.773,LearnStrategy,2023.2.3,Win32,60.60606061,7,1,10,0.394444501,0.221296293,1,0,0,1.2792,Gabbro_01,4,01,5,7,1.279,4,01,0.443518603,-0.239814829,1,0,0,1.7432,Gabbro_rect,4,1.743,1,9,0,9,0,1,,,,,,,,,,,,,
6661cdb231a34b5cec5669aa,SCR,2024-06-24_15h36.28.773,LearnStrategy,2023.2.3,Win32,60.60606061,7,1,11,-0.211111069,0.073148127,1,0,0,1.4224,Gabbro_10,4,10,4,3,1.422,4,10,0.458333333,-0.257407436,1,0,0,1.355,Gabbro_rect,4,1.355,1,10,0,10,0,1,,,,,,,,,,,,,
6661cdb231a34b5cec5669aa,SCR,2024-06-24_15h36.28.773,LearnStrategy,2023.2.3,Win32,60.60606061,7,1,12,-0.227777764,0.405555557,1,0,0,1.516,Andesite_16,1,16,6,3,1.516,1,16,-0.360185164,-0.235185199,1,0,0,3.7987,Andesite_rect,1,3.799,1,11,0,11,0,1,,,,,,,,,,,,,
6661cdb231a34b5cec5669aa,SCR,2024-06-24_15h36.28.773,LearnStrategy,2023.2.3,Win32,60.60606061,7,1,13,-0.41111109,0.298148138,1,0,0,1.4905,Peridotite_14,7,14,5,2,1.491,7,14,0.107407393,-0.391666695,1,0,0,2.1344,Peridotite_rect,7,2.134,1,12,0,12,0,1,,,,,,,,,,,,,
6661cdb231a34b5cec5669aa,SCR,2024-06-24_15h36.28.773,LearnStrategy,2023.2.3,Win32,60.60606061,7,1,14,-0.087037051,-0.08425928,1,0,0,0.9626,Diorite_15,3,15,3,4,0.963,3,15,0.107407393,-0.244444459,1,0,0,4.0801,Diorite_rect,3,4.08,1,13,0,13,0,1,,,,,,,,,,,,,
6661cdb231a34b5cec5669aa,SCR,2024-06-24_15h36.28.773,LearnStrategy,2023.2.3,Win32,60.60606061,7,1,15,-0.079629616,-0.418518561,1,0,0,1.7861,Pegmatite_12,6,12,1,4,1.786,6,12,0.142592607,-0.248148176,1,0,0,4.9065,Diorite_rect,3,4.907,0,14,0,14,0,1,,,,,,,,,,,,,
6661cdb231a34b5cec5669aa,SCR,2024-06-24_15h36.28.773,LearnStrategy,2023.2.3,Win32,60.60606061,7,1,16,-0.22592594,-0.244444459,1,0,0,1.5659,Pumice_14,8,14,2,3,1.566,8,14,0.421296296,-0.406481496,1,0,0,1.7602,Pumice_rect,8,1.76,1,15,0,15,0,1,,,,,,,,,,,,,
6661cdb231a34b5cec5669aa,SCR,2024-06-24_15h36.28.773,LearnStrategy,2023.2.3,Win32,60.60606061,7,2,1,,,,,,,,5,16,,,,,,,,,,,,,5,2.187,1,,,,,,-0.393518519,-0.417592578,1,0,0,2.1873,Obsidian_rect,0,0,0,0,1,
6661cdb231a34b5cec5669aa,SCR,2024-06-24_15h36.28.773,LearnStrategy,2023.2.3,Win32,60.60606061,7,2,2,,,,,,,,2,08,,,,,,,,,,,,,2,1.632,1,,,,,,-0.103703675,-0.239814829,1,0,0,1.632,Basalt_rect,1,0,1,0,1,
6661cdb231a34b5cec5669aa,SCR,2024-06-24_15h36.28.773,LearnStrategy,2023.2.3,Win32,60.60606061,7,2,3,,,,,,,,3,02,,,,,,,,,,,,,3,1.366,1,,,,,,0.14444443,-0.25,1,0,0,1.3659,Diorite_rect,2,0,2,0,1,
6661cdb231a34b5cec5669aa,SCR,2024-06-24_15h36.28.773,LearnStrategy,2023.2.3,Win32,60.60606061,7,2,4,,,,,,,,1,09,,,,,,,,,,,,,1,12.08,1,,,,,,-0.3675926,-0.241666653,1,0,0,12.0801,Andesite_rect,3,0,3,0,1,
6661cdb231a34b5cec5669aa,SCR,2024-06-24_15h36.28.773,LearnStrategy,2023.2.3,Win32,60.60606061,7,2,5,,,,,,,,8,03,,,,,,,,,,,,,8,1.679,1,,,,,,0.425000085,-0.402777778,1,0,0,1.6791,Pumice_rect,4,0,4,0,1,
6661cdb231a34b5cec5669aa,SCR,2024-06-24_15h36.28.773,LearnStrategy,2023.2.3,Win32,60.60606061,7,2,6,,,,,,,,4,15,,,,,,,,,,,,,1,4.806,0,,,,,,-0.39444443,-0.244444459,1,0,0,4.8059,Andesite_rect,5,0,5,0,1,
6661cdb231a34b5cec5669aa,SCR,2024-06-24_15h36.28.773,LearnStrategy,2023.2.3,Win32,60.60606061,7,2,7,,,,,,,,6,13,,,,,,,,,,,,,6,7.328,1,,,,,,-0.087037051,-0.40370369,1,0,0,7.3275,Pegmatite_rect,6,0,6,0,1,
6661cdb231a34b5cec5669aa,SCR,2024-06-24_15h36.28.773,LearnStrategy,2023.2.3,Win32,60.60606061,7,2,8,,,,,,,,6,09,,,,,,,,,,,,,6,3.689,1,,,,,,-0.078703704,-0.405555584,1,0,0,3.6886,Pegmatite_rect,7,0,7,0,1,
6661cdb231a34b5cec5669aa,SCR,2024-06-24_15h36.28.773,LearnStrategy,2023.2.3,Win32,60.60606061,7,2,9,,,,,,,,8,06,,,,,,,,,,,,,8,2.316,1,,,,,,0.412037037,-0.411111125,1,0,0,2.3157,Pumice_rect,8,0,8,0,1,
6661cdb231a34b5cec5669aa,SCR,2024-06-24_15h36.28.773,LearnStrategy,2023.2.3,Win32,60.60606061,7,2,10,,,,,,,,7,12,,,,,,,,,,,,,7,7.627,1,,,,,,0.162037037,-0.39444443,1,0,0,7.6271,Peridotite_rect,9,0,9,0,1,
6661cdb231a34b5cec5669aa,SCR,2024-06-24_15h36.28.773,LearnStrategy,2023.2.3,Win32,60.60606061,7,2,11,,,,,,,,4,09,,,,,,,,,,,,,2,4.993,0,,,,,,-0.112037023,-0.263888889,1,0,0,4.9931,Basalt_rect,10,0,10,0,1,
6661cdb231a34b5cec5669aa,SCR,2024-06-24_15h36.28.773,LearnStrategy,2023.2.3,Win32,60.60606061,7,2,12,,,,,,,,5,06,,,,,,,,,,,,,5,3.716,1,,,,,,-0.371296282,-0.39444443,1,0,0,3.7164,Obsidian_rect,11,0,11,0,1,
6661cdb231a34b5cec5669aa,SCR,2024-06-24_15h36.28.773,LearnStrategy,2023.2.3,Win32,60.60606061,7,2,13,,,,,,,,1,03,,,,,,,,,,,,,1,13.222,1,,,,,,-0.437962956,-0.237963005,1,0,0,13.2215,Andesite_rect,12,0,12,0,1,
6661cdb231a34b5cec5669aa,SCR,2024-06-24_15h36.28.773,LearnStrategy,2023.2.3,Win32,60.60606061,7,2,14,,,,,,,,2,16,,,,,,,,,,,,,2,1.996,1,,,,,,-0.178703661,-0.257407436,1,0,0,1.9961,Basalt_rect,13,0,13,0,1,
6661cdb231a34b5cec5669aa,SCR,2024-06-24_15h36.28.773,LearnStrategy,2023.2.3,Win32,60.60606061,7,2,15,,,,,,,,3,13,,,,,,,,,,,,,3,1.619,1,,,,,,0.106481481,-0.264814801,1,0,0,1.6192,Diorite_rect,14,0,14,0,1,
6661cdb231a34b5cec5669aa,SCR,2024-06-24_15h36.28.773,LearnStrategy,2023.2.3,Win32,60.60606061,7,2,16,,,,,,,,7,10,,,,,,,,,,,,,7,1.717,1,,,,,,0.108333376,-0.396296325,1,0,0,1.7174,Peridotite_rect,15,0,15,0,1,
6661cdb231a34b5cec5669aa,SCR,2024-06-24_15h36.28.773,LearnStrategy,2023.2.3,Win32,60.60606061,8,1,1,0.069444444,-0.429629644,1,0,0,1.6135,Peridotite_08,7,08,1,5,1.613,7,08,0.092592593,-0.402777778,1,0,0,2.4208,Peridotite_rect,7,2.421,1,0,0,0,0,1,,,,,,,,,,,,,
6661cdb231a34b5cec5669aa,SCR,2024-06-24_15h36.28.773,LearnStrategy,2023.2.3,Win32,60.60606061,8,1,2,0.073148162,0.074999986,1,0,0,2.0362,Obsidian_08,5,08,4,5,2.036,5,08,-0.381481489,-0.396296325,1,0,0,1.0041,Obsidian_rect,5,1.004,1,1,0,1,0,1,,,,,,,,,,,,,
6661cdb231a34b5cec5669aa,SCR,2024-06-24_15h36.28.773,LearnStrategy,2023.2.3,Win32,60.60606061,8,1,3,-0.056481467,0.075925933,1,0,0,1.1749,Andesite_01,1,01,4,4,1.175,1,01,-0.337037016,-0.241666653,1,0,0,4.8148,Andesite_rect,1,4.815,1,2,0,2,0,1,,,,,,,,,,,,,
6661cdb231a34b5cec5669aa,SCR,2024-06-24_15h36.28.773,LearnStrategy,2023.2.3,Win32,60.60606061,8,1,4,0.40370376,-0.40370369,1,0,0,1.4619,Gabbro_14,4,14,1,7,1.462,4,14,0.387037065,-0.251851894,1,0,0,1.1589,Gabbro_rect,4,1.159,1,3,0,3,0,1,,,,,,,,,,,,,
6661cdb231a34b5cec5669aa,SCR,2024-06-24_15h36.28.773,LearnStrategy,2023.2.3,Win32,60.60606061,8,1,5,0.562962991,0.115740741,1,0,0,1.7126,Gabbro_08,4,08,4,8,1.713,4,08,0.356481481,-0.259259259,1,0,0,1.3591,Gabbro_rect,4,1.359,1,4,0,4,0,1,,,,,,,,,,,,,
6661cdb231a34b5cec5669aa,SCR,2024-06-24_15h36.28.773,LearnStrategy,2023.2.3,Win32,60.60606061,8,1,6,0.392592677,-0.440740727,1,0,0,2.1897,Gabbro_14,4,14,1,7,2.19,4,14,0.357407464,-0.243518547,1,0,0,8.1042,Gabbro_rect,4,8.104,1,5,0,5,0,1,,,,,,,,,,,,,
6661cdb231a34b5cec5669aa,SCR,2024-06-24_15h36.28.773,LearnStrategy,2023.2.3,Win32,60.60606061,8,1,7,0.57685188,0.057407414,1,0,0,1.132,Gabbro_08,4,08,4,8,1.132,4,08,0.375,-0.241666653,1,0,0,6.8229,Gabbro_rect,4,6.823,1,6,0,6,0,1,,,,,,,,,,,,,
6661cdb231a34b5cec5669aa,SCR,2024-06-24_15h36.28.773,LearnStrategy,2023.2.3,Win32,60.60606061,8,1,8,0.384259259,0.233333323,1,0,0,1.7179,Gabbro_01,4,01,5,7,1.718,4,01,0.179629644,-0.391666695,1,0,0,2.6718,Peridotite_rect,7,2.672,0,7,0,7,0,1,,,,,,,,,,,,,
6661cdb231a34b5cec5669aa,SCR,2024-06-24_15h36.28.773,LearnStrategy,2023.2.3,Win32,60.60606061,8,1,9,-0.547222208,0.218518522,1,0,0,1.4924,Diorite_08,3,08,5,1,1.492,3,08,0.17777782,-0.24537037,1,0,0,1.569,Diorite_rect,3,1.569,1,8,0,8,0,1,,,,,,,,,,,,,
6661cdb231a34b5cec5669aa,SCR,2024-06-24_15h36.28.773,LearnStrategy,2023.2.3,Win32,60.60606061,8,1,10,0.406481566,-0.128703718,1,0,0,1.1571,Pumice_02,8,02,3,7,1.157,8,02,0.372222194,-0.405555584,1,0,0,1.3995,Pumice_rect,8,1.399,1,9,0,9,0,1,,,,,,,,,,,,,
6661cdb231a34b5cec5669aa,SCR,2024-06-24_15h36.28.773,LearnStrategy,2023.2.3,Win32,60.60606061,8,1,11,-0.576851845,0.413888887,1,0,0,1.8072,Andesite_10,1,10,6,1,1.807,1,10,-0.347222222,-0.256481524,1,0,0,3.3304,Andesite_rect,1,3.33,1,10,0,10,0,1,,,,,,,,,,,,,
6661cdb231a34b5cec5669aa,SCR,2024-06-24_15h36.28.773,LearnStrategy,2023.2.3,Win32,60.60606061,8,1,12,-0.077777792,-0.436111097,1,0,0,1.2617,Pegmatite_12,6,12,1,4,1.262,6,12,-0.114814829,-0.408333319,1,0,0,1.4532,Pegmatite_rect,6,1.453,1,11,0,11,0,1,,,,,,,,,,,,,
6661cdb231a34b5cec5669aa,SCR,2024-06-24_15h36.28.773,LearnStrategy,2023.2.3,Win32,60.60606061,8,1,13,0.402777778,-0.417592578,1,0,0,1.3816,Gabbro_14,4,14,1,7,1.382,4,14,0.382407436,-0.237037023,1,0,0,1.453,Gabbro_rect,4,1.453,1,12,0,12,0,1,,,,,,,,,,,,,
6661cdb231a34b5cec5669aa,SCR,2024-06-24_15h36.28.773,LearnStrategy,2023.2.3,Win32,60.60606061,8,1,14,0.24537037,0.222222222,1,0,0,1.4143,Basalt_02,2,02,5,6,1.414,2,02,-0.162037037,-0.246296282,1,0,0,1.2395,Basalt_rect,2,1.24,1,13,0,13,0,1,,,,,,,,,,,,,
6661cdb231a34b5cec5669aa,SCR,2024-06-24_15h36.28.773,LearnStrategy,2023.2.3,Win32,60.60606061,8,1,15,0.086111139,0.388888889,1,0,0,1.3804,Gabbro_03,4,03,6,5,1.38,4,03,0.388888889,-0.251851894,1,0,0,3.0601,Gabbro_rect,4,3.06,1,14,0,14,0,1,,,,,,,,,,,,,
6661cdb231a34b5cec5669aa,SCR,2024-06-24_15h36.28.773,LearnStrategy,2023.2.3,Win32,60.60606061,8,1,16,-0.397222201,0.063888868,1,0,0,1.4866,Gabbro_13,4,13,4,2,1.487,4,13,0.452777863,-0.229629658,1,0,0,1.4309,Gabbro_rect,4,1.431,1,15,0,15,0,1,,,,,,,,,,,,,
6661cdb231a34b5cec5669aa,SCR,2024-06-24_15h36.28.773,LearnStrategy,2023.2.3,Win32,60.60606061,8,2,1,,,,,,,,2,05,,,,,,,,,,,,,2,1.782,1,,,,,,-0.128703718,-0.238888917,1,0,0,1.7815,Basalt_rect,0,0,0,0,1,
6661cdb231a34b5cec5669aa,SCR,2024-06-24_15h36.28.773,LearnStrategy,2023.2.3,Win32,60.60606061,8,2,2,,,,,,,,8,08,,,,,,,,,,,,,8,1.294,1,,,,,,0.425000085,-0.391666695,1,0,0,1.2941,Pumice_rect,1,0,1,0,1,
6661cdb231a34b5cec5669aa,SCR,2024-06-24_15h36.28.773,LearnStrategy,2023.2.3,Win32,60.60606061,8,2,3,,,,,,,,5,12,,,,,,,,,,,,,5,1.55,1,,,,,,-0.393518519,-0.390740783,1,0,0,1.5496,Obsidian_rect,2,0,2,0,1,
6661cdb231a34b5cec5669aa,SCR,2024-06-24_15h36.28.773,LearnStrategy,2023.2.3,Win32,60.60606061,8,2,4,,,,,,,,8,13,,,,,,,,,,,,,8,2.614,1,,,,,,0.430555556,-0.400000042,1,0,0,2.614,Pumice_rect,3,0,3,0,1,
6661cdb231a34b5cec5669aa,SCR,2024-06-24_15h36.28.773,LearnStrategy,2023.2.3,Win32,60.60606061,8,2,5,,,,,,,,7,05,,,,,,,,,,,,,7,1.547,1,,,,,,0.179629644,-0.388888889,1,0,0,1.5466,Peridotite_rect,4,0,4,0,1,
6661cdb231a34b5cec5669aa,SCR,2024-06-24_15h36.28.773,LearnStrategy,2023.2.3,Win32,60.60606061,8,2,6,,,,,,,,7,04,,,,,,,,,,,,,7,3.778,1,,,,,,0.169444473,-0.387962977,1,0,0,3.778,Peridotite_rect,5,0,5,0,1,
6661cdb231a34b5cec5669aa,SCR,2024-06-24_15h36.28.773,LearnStrategy,2023.2.3,Win32,60.60606061,8,2,7,,,,,,,,3,12,,,,,,,,,,,,,3,1.892,1,,,,,,0.170370384,-0.237037023,1,0,0,1.8918,Diorite_rect,6,0,6,0,1,
6661cdb231a34b5cec5669aa,SCR,2024-06-24_15h36.28.773,LearnStrategy,2023.2.3,Win32,60.60606061,8,2,8,,,,,,,,4,12,,,,,,,,,,,,,4,2.153,1,,,,,,0.420370455,-0.234259288,1,0,0,2.1531,Gabbro_rect,7,0,7,0,1,
6661cdb231a34b5cec5669aa,SCR,2024-06-24_15h36.28.773,LearnStrategy,2023.2.3,Win32,60.60606061,8,2,9,,,,,,,,1,11,,,,,,,,,,,,,1,1.41,1,,,,,,-0.362037023,-0.240740741,1,0,0,1.4098,Andesite_rect,8,0,8,0,1,
6661cdb231a34b5cec5669aa,SCR,2024-06-24_15h36.28.773,LearnStrategy,2023.2.3,Win32,60.60606061,8,2,10,,,,,,,,6,11,,,,,,,,,,,,,6,1.45,1,,,,,,-0.101851852,-0.400925954,1,0,0,1.4497,Pegmatite_rect,9,0,9,0,1,
6661cdb231a34b5cec5669aa,SCR,2024-06-24_15h36.28.773,LearnStrategy,2023.2.3,Win32,60.60606061,8,2,11,,,,,,,,3,10,,,,,,,,,,,,,3,3.678,1,,,,,,0.159259302,-0.238888917,1,0,0,3.6783,Diorite_rect,10,0,10,0,1,
6661cdb231a34b5cec5669aa,SCR,2024-06-24_15h36.28.773,LearnStrategy,2023.2.3,Win32,60.60606061,8,2,12,,,,,,,,2,04,,,,,,,,,,,,,2,1.402,1,,,,,,-0.099074046,-0.243518547,1,0,0,1.4016,Basalt_rect,11,0,11,0,1,
6661cdb231a34b5cec5669aa,SCR,2024-06-24_15h36.28.773,LearnStrategy,2023.2.3,Win32,60.60606061,8,2,13,,,,,,,,6,15,,,,,,,,,,,,,6,1.431,1,,,,,,-0.099074046,-0.396296325,1,0,0,1.4312,Pegmatite_rect,12,0,12,0,1,
6661cdb231a34b5cec5669aa,SCR,2024-06-24_15h36.28.773,LearnStrategy,2023.2.3,Win32,60.60606061,8,2,14,,,,,,,,4,05,,,,,,,,,,,,,7,5.189,0,,,,,,0.157407407,-0.400000042,1,0,0,5.1888,Peridotite_rect,13,0,13,0,1,
6661cdb231a34b5cec5669aa,SCR,2024-06-24_15h36.28.773,LearnStrategy,2023.2.3,Win32,60.60606061,8,2,15,,,,,,,,1,05,,,,,,,,,,,,,4,4.548,0,,,,,,0.414814843,-0.228703746,1,0,0,4.5476,Gabbro_rect,14,0,14,0,1,
6661cdb231a34b5cec5669aa,SCR,2024-06-24_15h36.28.773,LearnStrategy,2023.2.3,Win32,60.60606061,8,2,16,,,,,,,,5,11,,,,,,,,,,,,,5,1.298,1,,,,,,-0.37037037,-0.393518519,1,0,0,1.2983,Obsidian_rect,15,0,15,0,1,
6661cdb231a34b5cec5669aa,SCR,2024-06-24_15h36.28.773,LearnStrategy,2023.2.3,Win32,60.60606061,9,1,1,0.383333418,-0.380555541,1,0,0,3.5135,Gabbro_14,4,14,1,7,3.514,4,14,0.376851824,-0.255555541,1,0,0,1.3763,Gabbro_rect,4,1.376,1,0,0,0,0,1,,,,,,,,,,,,,
6661cdb231a34b5cec5669aa,SCR,2024-06-24_15h36.28.773,LearnStrategy,2023.2.3,Win32,60.60606061,9,1,2,0.55277775,0.088888875,1,0,0,1.3504,Gabbro_08,4,08,4,8,1.35,4,08,0.358333305,-0.247222265,1,0,0,0.8453,Gabbro_rect,4,0.845,1,1,0,1,0,1,,,,,,,,,,,,,
6661cdb231a34b5cec5669aa,SCR,2024-06-24_15h36.28.773,LearnStrategy,2023.2.3,Win32,60.60606061,9,1,3,0.374074159,0.249074071,1,0,0,1.4061,Gabbro_01,4,01,5,7,1.406,4,01,0.366666723,-0.252777806,1,0,0,1.3915,Gabbro_rect,4,1.392,1,2,0,2,0,1,,,,,,,,,,,,,
6661cdb231a34b5cec5669aa,SCR,2024-06-24_15h36.28.773,LearnStrategy,2023.2.3,Win32,60.60606061,9,1,4,-0.071296268,-0.386111153,1,0,0,1.8801,Pegmatite_12,6,12,1,4,1.88,6,12,-0.071296268,-0.385185171,1,0,0,1.1066,Pegmatite_rect,6,1.107,1,3,0,3,0,1,,,,,,,,,,,,,
6661cdb231a34b5cec5669aa,SCR,2024-06-24_15h36.28.773,LearnStrategy,2023.2.3,Win32,60.60606061,9,1,5,0.358333305,0.411111108,1,0,0,1.7154,Basalt_11,2,11,6,7,1.715,2,11,-0.121296282,-0.266666695,1,0,0,2.1261,Basalt_rect,2,2.126,1,4,0,4,0,1,,,,,,,,,,,,,
6661cdb231a34b5cec5669aa,SCR,2024-06-24_15h36.28.773,LearnStrategy,2023.2.3,Win32,60.60606061,9,1,6,-0.242592564,-0.417592578,1,0,0,1.5196,Diorite_11,3,11,1,3,1.52,3,11,0.082407422,-0.258333347,1,0,0,1.8737,Diorite_rect,3,1.874,1,5,0,5,0,1,,,,,,,,,,,,,
6661cdb231a34b5cec5669aa,SCR,2024-06-24_15h36.28.773,LearnStrategy,2023.2.3,Win32,60.60606061,9,1,7,-0.523148148,-0.418518561,1,0,0,1.2289,Andesite_06,1,06,1,1,1.229,1,06,-0.444444444,-0.249074088,1,0,0,1.9104,Andesite_rect,1,1.91,1,6,0,6,0,1,,,,,,,,,,,,,
6661cdb231a34b5cec5669aa,SCR,2024-06-24_15h36.28.773,LearnStrategy,2023.2.3,Win32,60.60606061,9,1,8,-0.259259259,0.396296298,1,0,0,1.386,Andesite_16,1,16,6,3,1.386,1,16,-0.390740748,-0.262037065,1,0,0,2.1462,Andesite_rect,1,2.146,1,7,0,7,0,1,,,,,,,,,,,,,
6661cdb231a34b5cec5669aa,SCR,2024-06-24_15h36.28.773,LearnStrategy,2023.2.3,Win32,60.60606061,9,1,9,-0.402777778,-0.434259273,1,0,0,1.2865,Pumice_04,8,04,1,2,1.286,8,04,0.471296381,-0.386111153,1,0,0,1.3651,Pumice_rect,8,1.365,1,8,0,8,0,1,,,,,,,,,,,,,
6661cdb231a34b5cec5669aa,SCR,2024-06-24_15h36.28.773,LearnStrategy,2023.2.3,Win32,60.60606061,9,1,10,-0.375925912,0.114814794,1,0,0,1.1593,Gabbro_13,4,13,4,2,1.159,4,13,0.440740797,-0.232407393,1,0,0,2.0626,Gabbro_rect,4,2.063,1,9,0,9,0,1,,,,,,,,,,,,,
6661cdb231a34b5cec5669aa,SCR,2024-06-24_15h36.28.773,LearnStrategy,2023.2.3,Win32,60.60606061,9,1,11,0.074999986,0.412962958,1,0,0,1.3139,Gabbro_03,4,03,6,5,1.314,4,03,0.411111196,-0.250925912,1,0,0,6.1548,Gabbro_rect,4,6.155,1,10,0,10,0,1,,,,,,,,,,,,,
6661cdb231a34b5cec5669aa,SCR,2024-06-24_15h36.28.773,LearnStrategy,2023.2.3,Win32,60.60606061,9,1,12,-0.368518511,-0.091666681,1,0,0,1.4833,Peridotite_13,7,13,3,2,1.483,7,13,0.12037037,-0.39907406,1,0,0,2.2213,Peridotite_rect,7,2.221,1,11,0,11,0,1,,,,,,,,,,,,,
6661cdb231a34b5cec5669aa,SCR,2024-06-24_15h36.28.773,LearnStrategy,2023.2.3,Win32,60.60606061,9,1,13,-0.053703661,0.102777764,1,0,0,1.0965,Andesite_01,1,01,4,4,1.096,1,01,-0.378703683,-0.247222265,1,0,0,2.4409,Andesite_rect,1,2.441,1,12,0,12,0,1,,,,,,,,,,,,,
6661cdb231a34b5cec5669aa,SCR,2024-06-24_15h36.28.773,LearnStrategy,2023.2.3,Win32,60.60606061,9,1,14,0.395370342,-0.416666667,1,0,0,1.3876,Gabbro_14,4,14,1,7,1.388,4,14,0.407407407,-0.231481481,1,0,0,1.0065,Gabbro_rect,4,1.006,1,13,0,13,0,1,,,,,,,,,,,,,
6661cdb231a34b5cec5669aa,SCR,2024-06-24_15h36.28.773,LearnStrategy,2023.2.3,Win32,60.60606061,9,1,15,0.382407436,-0.404629672,1,0,0,1.447,Gabbro_14,4,14,1,7,1.447,4,14,0.373148176,-0.246296282,1,0,0,0.9156,Gabbro_rect,4,0.916,1,14,0,14,0,1,,,,,,,,,,,,,
6661cdb231a34b5cec5669aa,SCR,2024-06-24_15h36.28.773,LearnStrategy,2023.2.3,Win32,60.60606061,9,1,16,0.579629686,-0.078703704,1,0,0,1.2103,Obsidian_07,5,07,3,8,1.21,5,07,-0.428703697,-0.406481496,1,0,0,1.3909,Obsidian_rect,5,1.391,1,15,0,15,0,1,,,,,,,,,,,,,
6661cdb231a34b5cec5669aa,SCR,2024-06-24_15h36.28.773,LearnStrategy,2023.2.3,Win32,60.60606061,9,2,1,,,,,,,,4,16,,,,,,,,,,,,,4,5.482,1,,,,,,0.40833339,-0.242592635,1,0,0,5.4817,Gabbro_rect,0,0,0,0,1,
6661cdb231a34b5cec5669aa,SCR,2024-06-24_15h36.28.773,LearnStrategy,2023.2.3,Win32,60.60606061,9,2,2,,,,,,,,1,02,,,,,,,,,,,,,1,2.358,1,,,,,,-0.359259252,-0.228703746,1,0,0,2.3576,Andesite_rect,1,0,1,0,1,
6661cdb231a34b5cec5669aa,SCR,2024-06-24_15h36.28.773,LearnStrategy,2023.2.3,Win32,60.60606061,9,2,3,,,,,,,,2,10,,,,,,,,,,,,,2,1.307,1,,,,,,-0.125925912,-0.253703718,1,0,0,1.3068,Basalt_rect,2,0,2,0,1,
6661cdb231a34b5cec5669aa,SCR,2024-06-24_15h36.28.773,LearnStrategy,2023.2.3,Win32,60.60606061,9,2,4,,,,,,,,3,16,,,,,,,,,,,,,3,1.918,1,,,,,,0.106481481,-0.241666653,1,0,0,1.9182,Diorite_rect,3,0,3,0,1,
6661cdb231a34b5cec5669aa,SCR,2024-06-24_15h36.28.773,LearnStrategy,2023.2.3,Win32,60.60606061,9,2,5,,,,,,,,7,16,,,,,,,,,,,,,7,1.739,1,,,,,,0.125,-0.406481496,1,0,0,1.7389,Peridotite_rect,4,0,4,0,1,
6661cdb231a34b5cec5669aa,SCR,2024-06-24_15h36.28.773,LearnStrategy,2023.2.3,Win32,60.60606061,9,2,6,,,,,,,,2,09,,,,,,,,,,,,,2,1.593,1,,,,,,-0.123148106,-0.262037065,1,0,0,1.5932,Basalt_rect,5,0,5,0,1,
6661cdb231a34b5cec5669aa,SCR,2024-06-24_15h36.28.773,LearnStrategy,2023.2.3,Win32,60.60606061,9,2,7,,,,,,,,6,16,,,,,,,,,,,,,6,2.119,1,,,,,,-0.127777735,-0.418518561,1,0,0,2.1187,Pegmatite_rect,6,0,6,0,1,
6661cdb231a34b5cec5669aa,SCR,2024-06-24_15h36.28.773,LearnStrategy,2023.2.3,Win32,60.60606061,9,2,8,,,,,,,,3,06,,,,,,,,,,,,,3,1.8,1,,,,,,0.160185213,-0.246296282,1,0,0,1.7999,Diorite_rect,7,0,7,0,1,
6661cdb231a34b5cec5669aa,SCR,2024-06-24_15h36.28.773,LearnStrategy,2023.2.3,Win32,60.60606061,9,2,9,,,,,,,,5,05,,,,,,,,,,,,,5,1.702,1,,,,,,-0.385185171,-0.37962963,1,0,0,1.7025,Obsidian_rect,8,0,8,0,1,
6661cdb231a34b5cec5669aa,SCR,2024-06-24_15h36.28.773,LearnStrategy,2023.2.3,Win32,60.60606061,9,2,10,,,,,,,,7,15,,,,,,,,,,,,,7,1.921,1,,,,,,0.10555557,-0.402777778,1,0,0,1.9206,Peridotite_rect,9,0,9,0,1,
6661cdb231a34b5cec5669aa,SCR,2024-06-24_15h36.28.773,LearnStrategy,2023.2.3,Win32,60.60606061,9,2,11,,,,,,,,4,11,,,,,,,,,,,,,4,5.763,1,,,,,,0.386111083,-0.241666653,1,0,0,5.7631,Gabbro_rect,10,0,10,0,1,
6661cdb231a34b5cec5669aa,SCR,2024-06-24_15h36.28.773,LearnStrategy,2023.2.3,Win32,60.60606061,9,2,12,,,,,,,,6,03,,,,,,,,,,,,,6,1.806,1,,,,,,-0.17314812,-0.391666695,1,0,0,1.8062,Pegmatite_rect,11,0,11,0,1,
6661cdb231a34b5cec5669aa,SCR,2024-06-24_15h36.28.773,LearnStrategy,2023.2.3,Win32,60.60606061,9,2,13,,,,,,,,8,09,,,,,,,,,,,,,8,1.591,1,,,,,,0.429629714,-0.404629672,1,0,0,1.5913,Pumice_rect,12,0,12,0,1,
6661cdb231a34b5cec5669aa,SCR,2024-06-24_15h36.28.773,LearnStrategy,2023.2.3,Win32,60.60606061,9,2,14,,,,,,,,8,05,,,,,,,,,,,,,8,1.527,1,,,,,,0.429629714,-0.404629672,1,0,0,1.5272,Pumice_rect,13,0,13,0,1,
6661cdb231a34b5cec5669aa,SCR,2024-06-24_15h36.28.773,LearnStrategy,2023.2.3,Win32,60.60606061,9,2,15,,,,,,,,5,09,,,,,,,,,,,,,5,1.68,1,,,,,,-0.443518497,-0.388888889,1,0,0,1.68,Obsidian_rect,14,0,14,0,1,
6661cdb231a34b5cec5669aa,SCR,2024-06-24_15h36.28.773,LearnStrategy,2023.2.3,Win32,60.60606061,9,2,16,,,,,,,,1,07,,,,,,,,,,,,,1,2.595,1,,,,,,-0.423148155,-0.244444459,1,0,0,2.5952,Andesite_rect,15,0,15,0,1,
6661cdb231a34b5cec5669aa,SCR,2024-06-24_15h36.28.773,LearnStrategy,2023.2.3,Win32,60.60606061,,,,,,,,,,,,,,,,,,,,,,,,,,,,,,,,,,,,,,,,,,,,,1
6661cdb231a34b5cec5669aa,SCR,2024-06-24_15h36.28.773,LearnStrategy,2023.2.3,Win32,60.60606061,,,,,,,,,,,,,,,,,,,,,,,,,,,,,,,,,,,,,,,,,,,,,
6661cdb231a34b5cec5669aa,SCR,2024-06-24_15h36.28.773,LearnStrategy,2023.2.3,Win32,60.60606061,,,,,,,,,,,1,06,1,1,,,,,,,,,,,,,,,,,,,,,,,,,,,,,,,
6661cdb231a34b5cec5669aa,SCR,2024-06-24_15h36.28.773,LearnStrategy,2023.2.3,Win32,60.60606061,,,,,,,,,,,8,04,1,2,,,,,,,,,,,,,,,,,,,,,,,,,,,,,,,
6661cdb231a34b5cec5669aa,SCR,2024-06-24_15h36.28.773,LearnStrategy,2023.2.3,Win32,60.60606061,,,,,,,,,,,3,11,1,3,,,,,,,,,,,,,,,,,,,,,,,,,,,,,,,
6661cdb231a34b5cec5669aa,SCR,2024-06-24_15h36.28.773,LearnStrategy,2023.2.3,Win32,60.60606061,,,,,,,,,,,6,12,1,4,,,,,,,,,,,,,,,,,,,,,,,,,,,,,,,
6661cdb231a34b5cec5669aa,SCR,2024-06-24_15h36.28.773,LearnStrategy,2023.2.3,Win32,60.60606061,,,,,,,,,,,7,08,1,5,,,,,,,,,,,,,,,,,,,,,,,,,,,,,,,
6661cdb231a34b5cec5669aa,SCR,2024-06-24_15h36.28.773,LearnStrategy,2023.2.3,Win32,60.60606061,,,,,,,,,,,6,08,1,6,,,,,,,,,,,,,,,,,,,,,,,,,,,,,,,
6661cdb231a34b5cec5669aa,SCR,2024-06-24_15h36.28.773,LearnStrategy,2023.2.3,Win32,60.60606061,,,,,,,,,,,4,14,1,7,,,,,,,,,,,,,,,,,,,,,,,,,,,,,,,
6661cdb231a34b5cec5669aa,SCR,2024-06-24_15h36.28.773,LearnStrategy,2023.2.3,Win32,60.60606061,,,,,,,,,,,5,10,1,8,,,,,,,,,,,,,,,,,,,,,,,,,,,,,,,
6661cdb231a34b5cec5669aa,SCR,2024-06-24_15h36.28.773,LearnStrategy,2023.2.3,Win32,60.60606061,,,,,,,,,,,1,04,2,1,,,,,,,,,,,,,,,,,,,,,,,,,,,,,,,
6661cdb231a34b5cec5669aa,SCR,2024-06-24_15h36.28.773,LearnStrategy,2023.2.3,Win32,60.60606061,,,,,,,,,,,6,06,2,2,,,,,,,,,,,,,,,,,,,,,,,,,,,,,,,
6661cdb231a34b5cec5669aa,SCR,2024-06-24_15h36.28.773,LearnStrategy,2023.2.3,Win32,60.60606061,,,,,,,,,,,8,14,2,3,,,,,,,,,,,,,,,,,,,,,,,,,,,,,,,
6661cdb231a34b5cec5669aa,SCR,2024-06-24_15h36.28.773,LearnStrategy,2023.2.3,Win32,60.60606061,,,,,,,,,,,6,05,2,4,,,,,,,,,,,,,,,,,,,,,,,,,,,,,,,
6661cdb231a34b5cec5669aa,SCR,2024-06-24_15h36.28.773,LearnStrategy,2023.2.3,Win32,60.60606061,,,,,,,,,,,2,12,2,5,,,,,,,,,,,,,,,,,,,,,,,,,,,,,,,
6661cdb231a34b5cec5669aa,SCR,2024-06-24_15h36.28.773,LearnStrategy,2023.2.3,Win32,60.60606061,,,,,,,,,,,7,02,2,6,,,,,,,,,,,,,,,,,,,,,,,,,,,,,,,
6661cdb231a34b5cec5669aa,SCR,2024-06-24_15h36.28.773,LearnStrategy,2023.2.3,Win32,60.60606061,,,,,,,,,,,6,10,2,7,,,,,,,,,,,,,,,,,,,,,,,,,,,,,,,
6661cdb231a34b5cec5669aa,SCR,2024-06-24_15h36.28.773,LearnStrategy,2023.2.3,Win32,60.60606061,,,,,,,,,,,3,14,2,8,,,,,,,,,,,,,,,,,,,,,,,,,,,,,,,
6661cdb231a34b5cec5669aa,SCR,2024-06-24_15h36.28.773,LearnStrategy,2023.2.3,Win32,60.60606061,,,,,,,,,,,2,06,3,1,,,,,,,,,,,,,,,,,,,,,,,,,,,,,,,
6661cdb231a34b5cec5669aa,SCR,2024-06-24_15h36.28.773,LearnStrategy,2023.2.3,Win32,60.60606061,,,,,,,,,,,7,13,3,2,,,,,,,,,,,,,,,,,,,,,,,,,,,,,,,
6661cdb231a34b5cec5669aa,SCR,2024-06-24_15h36.28.773,LearnStrategy,2023.2.3,Win32,60.60606061,,,,,,,,,,,2,01,3,3,,,,,,,,,,,,,,,,,,,,,,,,,,,,,,,
6661cdb231a34b5cec5669aa,SCR,2024-06-24_15h36.28.773,LearnStrategy,2023.2.3,Win32,60.60606061,,,,,,,,,,,3,15,3,4,,,,,,,,,,,,,,,,,,,,,,,,,,,,,,,
6661cdb231a34b5cec5669aa,SCR,2024-06-24_15h36.28.773,LearnStrategy,2023.2.3,Win32,60.60606061,,,,,,,,,,,7,07,3,5,,,,,,,,,,,,,,,,,,,,,,,,,,,,,,,
6661cdb231a34b5cec5669aa,SCR,2024-06-24_15h36.28.773,LearnStrategy,2023.2.3,Win32,60.60606061,,,,,,,,,,,1,14,3,6,,,,,,,,,,,,,,,,,,,,,,,,,,,,,,,
6661cdb231a34b5cec5669aa,SCR,2024-06-24_15h36.28.773,LearnStrategy,2023.2.3,Win32,60.60606061,,,,,,,,,,,8,02,3,7,,,,,,,,,,,,,,,,,,,,,,,,,,,,,,,
6661cdb231a34b5cec5669aa,SCR,2024-06-24_15h36.28.773,LearnStrategy,2023.2.3,Win32,60.60606061,,,,,,,,,,,5,07,3,8,,,,,,,,,,,,,,,,,,,,,,,,,,,,,,,
6661cdb231a34b5cec5669aa,SCR,2024-06-24_15h36.28.773,LearnStrategy,2023.2.3,Win32,60.60606061,,,,,,,,,,,7,06,4,1,,,,,,,,,,,,,,,,,,,,,,,,,,,,,,,
6661cdb231a34b5cec5669aa,SCR,2024-06-24_15h36.28.773,LearnStrategy,2023.2.3,Win32,60.60606061,,,,,,,,,,,4,13,4,2,,,,,,,,,,,,,,,,,,,,,,,,,,,,,,,
6661cdb231a34b5cec5669aa,SCR,2024-06-24_15h36.28.773,LearnStrategy,2023.2.3,Win32,60.60606061,,,,,,,,,,,4,10,4,3,,,,,,,,,,,,,,,,,,,,,,,,,,,,,,,
6661cdb231a34b5cec5669aa,SCR,2024-06-24_15h36.28.773,LearnStrategy,2023.2.3,Win32,60.60606061,,,,,,,,,,,1,01,4,4,,,,,,,,,,,,,,,,,,,,,,,,,,,,,,,
6661cdb231a34b5cec5669aa,SCR,2024-06-24_15h36.28.773,LearnStrategy,2023.2.3,Win32,60.60606061,,,,,,,,,,,5,08,4,5,,,,,,,,,,,,,,,,,,,,,,,,,,,,,,,
6661cdb231a34b5cec5669aa,SCR,2024-06-24_15h36.28.773,LearnStrategy,2023.2.3,Win32,60.60606061,,,,,,,,,,,3,09,4,6,,,,,,,,,,,,,,,,,,,,,,,,,,,,,,,
6661cdb231a34b5cec5669aa,SCR,2024-06-24_15h36.28.773,LearnStrategy,2023.2.3,Win32,60.60606061,,,,,,,,,,,6,07,4,7,,,,,,,,,,,,,,,,,,,,,,,,,,,,,,,
6661cdb231a34b5cec5669aa,SCR,2024-06-24_15h36.28.773,LearnStrategy,2023.2.3,Win32,60.60606061,,,,,,,,,,,4,08,4,8,,,,,,,,,,,,,,,,,,,,,,,,,,,,,,,
6661cdb231a34b5cec5669aa,SCR,2024-06-24_15h36.28.773,LearnStrategy,2023.2.3,Win32,60.60606061,,,,,,,,,,,3,08,5,1,,,,,,,,,,,,,,,,,,,,,,,,,,,,,,,
6661cdb231a34b5cec5669aa,SCR,2024-06-24_15h36.28.773,LearnStrategy,2023.2.3,Win32,60.60606061,,,,,,,,,,,7,14,5,2,,,,,,,,,,,,,,,,,,,,,,,,,,,,,,,
6661cdb231a34b5cec5669aa,SCR,2024-06-24_15h36.28.773,LearnStrategy,2023.2.3,Win32,60.60606061,,,,,,,,,,,8,16,5,3,,,,,,,,,,,,,,,,,,,,,,,,,,,,,,,
6661cdb231a34b5cec5669aa,SCR,2024-06-24_15h36.28.773,LearnStrategy,2023.2.3,Win32,60.60606061,,,,,,,,,,,5,02,5,4,,,,,,,,,,,,,,,,,,,,,,,,,,,,,,,
6661cdb231a34b5cec5669aa,SCR,2024-06-24_15h36.28.773,LearnStrategy,2023.2.3,Win32,60.60606061,,,,,,,,,,,2,14,5,5,,,,,,,,,,,,,,,,,,,,,,,,,,,,,,,
6661cdb231a34b5cec5669aa,SCR,2024-06-24_15h36.28.773,LearnStrategy,2023.2.3,Win32,60.60606061,,,,,,,,,,,2,02,5,6,,,,,,,,,,,,,,,,,,,,,,,,,,,,,,,
6661cdb231a34b5cec5669aa,SCR,2024-06-24_15h36.28.773,LearnStrategy,2023.2.3,Win32,60.60606061,,,,,,,,,,,4,01,5,7,,,,,,,,,,,,,,,,,,,,,,,,,,,,,,,
6661cdb231a34b5cec5669aa,SCR,2024-06-24_15h36.28.773,LearnStrategy,2023.2.3,Win32,60.60606061,,,,,,,,,,,8,15,5,8,,,,,,,,,,,,,,,,,,,,,,,,,,,,,,,
6661cdb231a34b5cec5669aa,SCR,2024-06-24_15h36.28.773,LearnStrategy,2023.2.3,Win32,60.60606061,,,,,,,,,,,1,10,6,1,,,,,,,,,,,,,,,,,,,,,,,,,,,,,,,
6661cdb231a34b5cec5669aa,SCR,2024-06-24_15h36.28.773,LearnStrategy,2023.2.3,Win32,60.60606061,,,,,,,,,,,5,14,6,2,,,,,,,,,,,,,,,,,,,,,,,,,,,,,,,
6661cdb231a34b5cec5669aa,SCR,2024-06-24_15h36.28.773,LearnStrategy,2023.2.3,Win32,60.60606061,,,,,,,,,,,1,16,6,3,,,,,,,,,,,,,,,,,,,,,,,,,,,,,,,
6661cdb231a34b5cec5669aa,SCR,2024-06-24_15h36.28.773,LearnStrategy,2023.2.3,Win32,60.60606061,,,,,,,,,,,8,10,6,4,,,,,,,,,,,,,,,,,,,,,,,,,,,,,,,
6661cdb231a34b5cec5669aa,SCR,2024-06-24_15h36.28.773,LearnStrategy,2023.2.3,Win32,60.60606061,,,,,,,,,,,4,03,6,5,,,,,,,,,,,,,,,,,,,,,,,,,,,,,,,
6661cdb231a34b5cec5669aa,SCR,2024-06-24_15h36.28.773,LearnStrategy,2023.2.3,Win32,60.60606061,,,,,,,,,,,3,07,6,6,,,,,,,,,,,,,,,,,,,,,,,,,,,,,,,
6661cdb231a34b5cec5669aa,SCR,2024-06-24_15h36.28.773,LearnStrategy,2023.2.3,Win32,60.60606061,,,,,,,,,,,2,11,6,7,,,,,,,,,,,,,,,,,,,,,,,,,,,,,,,
6661cdb231a34b5cec5669aa,SCR,2024-06-24_15h36.28.773,LearnStrategy,2023.2.3,Win32,60.60606061,,,,,,,,,,,5,04,6,8,,,,,,,,,,,,,,,,,,,,,,,,,,,,,,,