participant,condition,date,expName,psychopyVersion,OS,frameRate,block,phase,trial,learn_mouse_2.x,learn_mouse_2.y,learn_mouse_2.leftButton,learn_mouse_2.midButton,learn_mouse_2.rightButton,learn_mouse_2.time,learn_mouse_2.clicked_name,cat,token,row,col,t_select,cat_mouse_l.x,cat_mouse_l.y,cat_mouse_l.leftButton,cat_mouse_l.midButton,cat_mouse_l.rightButton,cat_mouse_l.time,cat_mouse_l.clicked_name,resp,t_resp,corr,train_trials.thisRepN,train_trials.thisTrialN,train_trials.thisN,train_trials.thisIndex,train_trials.ran,cat_mouse_t.x,cat_mouse_t.y,cat_mouse_t.leftButton,cat_mouse_t.midButton,cat_mouse_t.rightButton,cat_mouse_t.time,cat_mouse_t.clicked_name,test_trials.thisRepN,test_trials.thisTrialN,test_trials.thisN,test_trials.thisIndex,test_trials.ran,Bonus
6664215e9a4fc14231f523c6,TCN,2024-06-25_19h23.08.335,LearnStrategy,2023.2.3,MacIntel,126.5822785,,,,,,,,,,,,,,,,,,,,,,,,,,,,,,,,,,,,,,,,,,,
6664215e9a4fc14231f523c6,TCN,2024-06-25_19h23.08.335,LearnStrategy,2023.2.3,MacIntel,126.5822785,1,1,1,0.11899013,0.006116539,1,0,0,63.4071,rock_grid_rect_2,1,02,-1,-1,63.407,0.386912243,-0.23544004,1,0,0,4.8021,Gabbro_rect,4,4.802,0,0,0,0,0,1,,,,,,,,,,,,,
6664215e9a4fc14231f523c6,TCN,2024-06-25_19h23.08.335,LearnStrategy,2023.2.3,MacIntel,126.5822785,1,1,2,-0.046723678,-0.016321245,1,0,0,1.293,rock_grid_rect_2,4,05,-1,-1,1.293,0.398298582,-0.231950545,1,0,0,1.9001,Gabbro_rect,4,1.9,1,1,0,1,0,1,,,,,,,,,,,,,
6664215e9a4fc14231f523c6,TCN,2024-06-25_19h23.08.335,LearnStrategy,2023.2.3,MacIntel,126.5822785,1,1,3,0.089792483,-0.012310807,1,0,0,1.0809,rock_grid_rect_2,8,05,-1,-1,1.081,0.10738053,-0.40487074,1,0,0,2.4936,Peridotite_rect,7,2.494,0,2,0,2,0,1,,,,,,,,,,,,,
6664215e9a4fc14231f523c6,TCN,2024-06-25_19h23.08.335,LearnStrategy,2023.2.3,MacIntel,126.5822785,1,1,4,0.009819373,0.007112947,1,0,0,0.9125,rock_grid_rect_2,7,14,-1,-1,0.913,0.11671617,-0.389899813,1,0,0,1.1962,Peridotite_rect,7,1.196,1,3,0,3,0,1,,,,,,,,,,,,,
6664215e9a4fc14231f523c6,TCN,2024-06-25_19h23.08.335,LearnStrategy,2023.2.3,MacIntel,126.5822785,1,1,5,-0.028159895,-0.000932737,1,0,0,1.1325,rock_grid_rect_2,3,12,-1,-1,1.132,-0.412856061,-0.2566995,1,0,0,1.0102,Andesite_rect,1,1.01,0,4,0,4,0,1,,,,,,,,,,,,,
6664215e9a4fc14231f523c6,TCN,2024-06-25_19h23.08.335,LearnStrategy,2023.2.3,MacIntel,126.5822785,1,1,6,-0.013730585,0.007931573,1,0,0,0.816,rock_grid_rect_2,4,14,-1,-1,0.816,0.081589688,-0.398416828,1,0,0,0.653,Peridotite_rect,7,0.653,0,5,0,5,0,1,,,,,,,,,,,,,
6664215e9a4fc14231f523c6,TCN,2024-06-25_19h23.08.335,LearnStrategy,2023.2.3,MacIntel,126.5822785,1,1,7,-0.061541629,0.019590786,1,0,0,0.9566,rock_grid_rect_2,7,05,-1,-1,0.957,-0.122128195,-0.236903644,1,0,0,1.0433,Basalt_rect,2,1.043,0,6,0,6,0,1,,,,,,,,,,,,,
6664215e9a4fc14231f523c6,TCN,2024-06-25_19h23.08.335,LearnStrategy,2023.2.3,MacIntel,126.5822785,1,1,8,0.081552478,-0.000767358,1,0,0,1.3273,rock_grid_rect_2,5,16,-1,-1,1.327,-0.207997063,-0.406073871,1,0,0,1.161,Pegmatite_rect,6,1.161,0,7,0,7,0,1,,,,,,,,,,,,,
6664215e9a4fc14231f523c6,TCN,2024-06-25_19h23.08.335,LearnStrategy,2023.2.3,MacIntel,126.5822785,1,1,9,-0.05361171,-0.005459985,1,0,0,1.1754,rock_grid_rect_2,6,07,-1,-1,1.175,0.112370839,-0.396837459,1,0,0,1.602,Peridotite_rect,7,1.602,0,8,0,8,0,1,,,,,,,,,,,,,
6664215e9a4fc14231f523c6,TCN,2024-06-25_19h23.08.335,LearnStrategy,2023.2.3,MacIntel,126.5822785,1,1,10,0.093592063,-0.001337915,1,0,0,0.9053,rock_grid_rect_2,3,07,-1,-1,0.905,0.073531601,-0.24454415,1,0,0,1.1126,Diorite_rect,3,1.113,1,9,0,9,0,1,,,,,,,,,,,,,
6664215e9a4fc14231f523c6,TCN,2024-06-25_19h23.08.335,LearnStrategy,2023.2.3,MacIntel,126.5822785,1,1,11,0.0374914,-0.011111809,1,0,0,0.7292,rock_grid_rect_2,6,12,-1,-1,0.729,0.081283737,-0.379948137,1,0,0,3.1605,Peridotite_rect,7,3.16,0,10,0,10,0,1,,,,,,,,,,,,,
6664215e9a4fc14231f523c6,TCN,2024-06-25_19h23.08.335,LearnStrategy,2023.2.3,MacIntel,126.5822785,1,1,12,0.058932777,0.012677948,1,0,0,0.9672,rock_grid_rect_2,5,10,-1,-1,0.967,-0.331634341,-0.393641511,1,0,0,0.9501,Obsidian_rect,5,0.95,1,11,0,11,0,1,,,,,,,,,,,,,
6664215e9a4fc14231f523c6,TCN,2024-06-25_19h23.08.335,LearnStrategy,2023.2.3,MacIntel,126.5822785,1,1,13,-0.005168091,-0.017007568,1,0,0,0.9867,rock_grid_rect_2,8,14,-1,-1,0.987,0.408366023,-0.387307499,1,0,0,0.8917,Pumice_rect,8,0.892,1,12,0,12,0,1,,,,,,,,,,,,,
6664215e9a4fc14231f523c6,TCN,2024-06-25_19h23.08.335,LearnStrategy,2023.2.3,MacIntel,126.5822785,1,1,14,0.056605069,0.008708854,1,0,0,0.7979,rock_grid_rect_2,2,12,-1,-1,0.798,-0.339258309,-0.237503142,1,0,0,1.1013,Andesite_rect,1,1.101,0,13,0,13,0,1,,,,,,,,,,,,,
6664215e9a4fc14231f523c6,TCN,2024-06-25_19h23.08.335,LearnStrategy,2023.2.3,MacIntel,126.5822785,1,1,15,0.04345331,-0.017040644,1,0,0,0.8297,rock_grid_rect_2,2,14,-1,-1,0.83,0.418611247,-0.244085223,1,0,0,0.9198,Gabbro_rect,4,0.92,0,14,0,14,0,1,,,,,,,,,,,,,
6664215e9a4fc14231f523c6,TCN,2024-06-25_19h23.08.335,LearnStrategy,2023.2.3,MacIntel,126.5822785,1,1,16,0.089780079,-0.020418508,1,0,0,1.3889,rock_grid_rect_2,1,06,-1,-1,1.389,0.18821361,-0.231764494,1,0,0,0.9285,Diorite_rect,3,0.929,0,15,0,15,0,1,,,,,,,,,,,,,
6664215e9a4fc14231f523c6,TCN,2024-06-25_19h23.08.335,LearnStrategy,2023.2.3,MacIntel,126.5822785,1,2,1,,,,,,,,7,16,,,,,,,,,,,7,1.833,1,,,,,,0.207120555,-0.393364502,1,0,0,1.8329,Peridotite_rect,0,0,0,0,1,
6664215e9a4fc14231f523c6,TCN,2024-06-25_19h23.08.335,LearnStrategy,2023.2.3,MacIntel,126.5822785,1,2,2,,,,,,,,2,09,,,,,,,,,,,2,0.925,1,,,,,,-0.164266743,-0.232711288,1,0,0,0.9255,Basalt_rect,1,0,1,0,1,
6664215e9a4fc14231f523c6,TCN,2024-06-25_19h23.08.335,LearnStrategy,2023.2.3,MacIntel,126.5822785,1,2,3,,,,,,,,4,13,,,,,,,,,,,4,0.983,1,,,,,,0.413744972,-0.229569089,1,0,0,0.9832,Gabbro_rect,2,0,2,0,1,
6664215e9a4fc14231f523c6,TCN,2024-06-25_19h23.08.335,LearnStrategy,2023.2.3,MacIntel,126.5822785,1,2,4,,,,,,,,7,10,,,,,,,,,,,7,2.676,1,,,,,,0.116972507,-0.396328919,1,0,0,2.676,Peridotite_rect,3,0,3,0,1,
6664215e9a4fc14231f523c6,TCN,2024-06-25_19h23.08.335,LearnStrategy,2023.2.3,MacIntel,126.5822785,1,2,5,,,,,,,,5,11,,,,,,,,,,,5,1.301,1,,,,,,-0.348751058,-0.407649106,1,0,0,1.3007,Obsidian_rect,4,0,4,0,1,
6664215e9a4fc14231f523c6,TCN,2024-06-25_19h23.08.335,LearnStrategy,2023.2.3,MacIntel,126.5822785,1,2,6,,,,,,,,2,01,,,,,,,,,,,2,0.844,1,,,,,,-0.148845159,-0.261454144,1,0,0,0.8444,Basalt_rect,5,0,5,0,1,
6664215e9a4fc14231f523c6,TCN,2024-06-25_19h23.08.335,LearnStrategy,2023.2.3,MacIntel,126.5822785,1,2,7,,,,,,,,6,10,,,,,,,,,,,7,2.419,0,,,,,,0.069095311,-0.421623624,1,0,0,2.4192,Peridotite_rect,6,0,6,0,1,
6664215e9a4fc14231f523c6,TCN,2024-06-25_19h23.08.335,LearnStrategy,2023.2.3,MacIntel,126.5822785,1,2,8,,,,,,,,3,09,,,,,,,,,,,3,1.328,1,,,,,,0.093372936,-0.238156389,1,0,0,1.3282,Diorite_rect,7,0,7,0,1,
6664215e9a4fc14231f523c6,TCN,2024-06-25_19h23.08.335,LearnStrategy,2023.2.3,MacIntel,126.5822785,1,2,9,,,,,,,,5,05,,,,,,,,,,,5,1.642,1,,,,,,-0.39230773,-0.41882872,1,0,0,1.6417,Obsidian_rect,8,0,8,0,1,
6664215e9a4fc14231f523c6,TCN,2024-06-25_19h23.08.335,LearnStrategy,2023.2.3,MacIntel,126.5822785,1,2,10,,,,,,,,1,03,,,,,,,,,,,2,1.226,0,,,,,,-0.189214152,-0.268838312,1,0,0,1.2262,Basalt_rect,9,0,9,0,1,
6664215e9a4fc14231f523c6,TCN,2024-06-25_19h23.08.335,LearnStrategy,2023.2.3,MacIntel,126.5822785,1,2,11,,,,,,,,8,16,,,,,,,,,,,4,1.252,0,,,,,,0.456077841,-0.257174964,1,0,0,1.2518,Gabbro_rect,10,0,10,0,1,
6664215e9a4fc14231f523c6,TCN,2024-06-25_19h23.08.335,LearnStrategy,2023.2.3,MacIntel,126.5822785,1,2,12,,,,,,,,1,07,,,,,,,,,,,3,0.974,0,,,,,,0.120834105,-0.246909068,1,0,0,0.9741,Diorite_rect,11,0,11,0,1,
6664215e9a4fc14231f523c6,TCN,2024-06-25_19h23.08.335,LearnStrategy,2023.2.3,MacIntel,126.5822785,1,2,13,,,,,,,,4,09,,,,,,,,,,,1,1.541,0,,,,,,-0.382517299,-0.2553682,1,0,0,1.5414,Andesite_rect,12,0,12,0,1,
6664215e9a4fc14231f523c6,TCN,2024-06-25_19h23.08.335,LearnStrategy,2023.2.3,MacIntel,126.5822785,1,2,14,,,,,,,,3,14,,,,,,,,,,,3,0.902,1,,,,,,0.078112597,-0.255897412,1,0,0,0.9017,Diorite_rect,13,0,13,0,1,
6664215e9a4fc14231f523c6,TCN,2024-06-25_19h23.08.335,LearnStrategy,2023.2.3,MacIntel,126.5822785,1,2,15,,,,,,,,6,05,,,,,,,,,,,6,1.32,1,,,,,,-0.17640969,-0.415599697,1,0,0,1.32,Pegmatite_rect,14,0,14,0,1,
6664215e9a4fc14231f523c6,TCN,2024-06-25_19h23.08.335,LearnStrategy,2023.2.3,MacIntel,126.5822785,1,2,16,,,,,,,,8,13,,,,,,,,,,,8,1.185,1,,,,,,0.358524952,-0.421119218,1,0,0,1.1851,Pumice_rect,15,0,15,0,1,
6664215e9a4fc14231f523c6,TCN,2024-06-25_19h23.08.335,LearnStrategy,2023.2.3,MacIntel,126.5822785,2,1,1,0.066978461,0.024378506,1,0,0,0.9157,rock_grid_rect_2,7,04,-1,-1,0.916,0.12075555,-0.399818414,1,0,0,1.0358,Peridotite_rect,7,1.036,1,0,0,0,0,1,,,,,,,,,,,,,
6664215e9a4fc14231f523c6,TCN,2024-06-25_19h23.08.335,LearnStrategy,2023.2.3,MacIntel,126.5822785,2,1,2,0.054901666,-0.001354453,1,0,0,0.6403,rock_grid_rect_2,1,16,-1,-1,0.64,-0.330360923,-0.261751826,1,0,0,1.3123,Andesite_rect,1,1.312,1,1,0,1,0,1,,,,,,,,,,,,,
6664215e9a4fc14231f523c6,TCN,2024-06-25_19h23.08.335,LearnStrategy,2023.2.3,MacIntel,126.5822785,2,1,3,0.014859296,-0.003243907,1,0,0,0.8655,rock_grid_rect_2,1,14,-1,-1,0.865,-0.393858158,-0.248761312,1,0,0,1.0244,Andesite_rect,1,1.024,1,2,0,2,0,1,,,,,,,,,,,,,
6664215e9a4fc14231f523c6,TCN,2024-06-25_19h23.08.335,LearnStrategy,2023.2.3,MacIntel,126.5822785,2,1,4,0.025046637,-0.014101033,1,0,0,0.6003,rock_grid_rect_2,6,09,-1,-1,0.6,-0.127238404,-0.402700142,1,0,0,0.8276,Pegmatite_rect,6,0.828,1,3,0,3,0,1,,,,,,,,,,,,,
6664215e9a4fc14231f523c6,TCN,2024-06-25_19h23.08.335,LearnStrategy,2023.2.3,MacIntel,126.5822785,2,1,5,0.093687156,0.007683504,1,0,0,0.7061,rock_grid_rect_2,4,11,-1,-1,0.706,-0.174929549,-0.234398153,1,0,0,0.7643,Basalt_rect,2,0.764,0,4,0,4,0,1,,,,,,,,,,,,,
6664215e9a4fc14231f523c6,TCN,2024-06-25_19h23.08.335,LearnStrategy,2023.2.3,MacIntel,126.5822785,2,1,6,0.062074976,0.014906429,1,0,0,0.6408,rock_grid_rect_2,2,04,-1,-1,0.641,-0.120218069,-0.235369754,1,0,0,1.3233,Basalt_rect,2,1.323,1,5,0,5,0,1,,,,,,,,,,,,,
6664215e9a4fc14231f523c6,TCN,2024-06-25_19h23.08.335,LearnStrategy,2023.2.3,MacIntel,126.5822785,2,1,7,0.06757796,-0.007642987,1,0,0,0.7874,rock_grid_rect_2,5,07,-1,-1,0.787,-0.344525627,-0.388580917,1,0,0,1.001,Obsidian_rect,5,1.001,1,6,0,6,0,1,,,,,,,,,,,,,
6664215e9a4fc14231f523c6,TCN,2024-06-25_19h23.08.335,LearnStrategy,2023.2.3,MacIntel,126.5822785,2,1,8,0.065977919,-0.012298403,1,0,0,0.9693,rock_grid_rect_2,3,06,-1,-1,0.969,0.088928378,-0.252011008,1,0,0,1.4586,Diorite_rect,3,1.459,1,7,0,7,0,1,,,,,,,,,,,,,
6664215e9a4fc14231f523c6,TCN,2024-06-25_19h23.08.335,LearnStrategy,2023.2.3,MacIntel,126.5822785,2,1,9,0.122620197,0.004793508,1,0,0,0.7306,rock_grid_rect_2,7,07,-1,-1,0.731,-0.398145606,-0.236552213,1,0,0,1.5043,Andesite_rect,1,1.504,0,8,0,8,0,1,,,,,,,,,,,,,
6664215e9a4fc14231f523c6,TCN,2024-06-25_19h23.08.335,LearnStrategy,2023.2.3,MacIntel,126.5822785,2,1,10,-0.107707154,-0.017598797,1,0,0,0.6833,rock_grid_rect_2,8,04,-1,-1,0.683,0.410912859,-0.383772525,1,0,0,1.0268,Pumice_rect,8,1.027,1,9,0,9,0,1,,,,,,,,,,,,,
6664215e9a4fc14231f523c6,TCN,2024-06-25_19h23.08.335,LearnStrategy,2023.2.3,MacIntel,126.5822785,2,1,11,-0.018584456,-0.005269799,1,0,0,0.6732,rock_grid_rect_2,5,12,-1,-1,0.673,-0.412314445,-0.402166795,1,0,0,0.9757,Obsidian_rect,5,0.976,1,10,0,10,0,1,,,,,,,,,,,,,
6664215e9a4fc14231f523c6,TCN,2024-06-25_19h23.08.335,LearnStrategy,2023.2.3,MacIntel,126.5822785,2,1,12,-0.017236618,0.02442812,1,0,0,0.5554,rock_grid_rect_2,4,01,-1,-1,0.555,-0.397637066,-0.262318249,1,0,0,1.0164,Andesite_rect,1,1.016,0,11,0,11,0,1,,,,,,,,,,,,,
6664215e9a4fc14231f523c6,TCN,2024-06-25_19h23.08.335,LearnStrategy,2023.2.3,MacIntel,126.5822785,2,1,13,0.131939299,0.017023279,1,0,0,0.7393,rock_grid_rect_2,2,10,-1,-1,0.739,0.39976632,-0.246094577,1,0,0,0.7904,Gabbro_rect,4,0.79,0,12,0,12,0,1,,,,,,,,,,,,,
6664215e9a4fc14231f523c6,TCN,2024-06-25_19h23.08.335,LearnStrategy,2023.2.3,MacIntel,126.5822785,2,1,14,0.008459132,-0.004393291,1,0,0,0.9064,rock_grid_rect_2,6,13,-1,-1,0.906,-0.112499008,-0.41898583,1,0,0,1.186,Pegmatite_rect,6,1.186,1,13,0,13,0,1,,,,,,,,,,,,,
6664215e9a4fc14231f523c6,TCN,2024-06-25_19h23.08.335,LearnStrategy,2023.2.3,MacIntel,126.5822785,2,1,15,0.027870482,0.001184113,1,0,0,0.6887,rock_grid_rect_2,3,15,-1,-1,0.689,0.181999497,-0.269264163,1,0,0,0.9129,Diorite_rect,3,0.913,1,14,0,14,0,1,,,,,,,,,,,,,
6664215e9a4fc14231f523c6,TCN,2024-06-25_19h23.08.335,LearnStrategy,2023.2.3,MacIntel,126.5822785,2,1,16,0.092827186,0.021947436,1,0,0,1.1057,rock_grid_rect_2,8,10,-1,-1,1.106,0.120867181,-0.38894475,1,0,0,1.137,Peridotite_rect,7,1.137,0,15,0,15,0,1,,,,,,,,,,,,,
6664215e9a4fc14231f523c6,TCN,2024-06-25_19h23.08.335,LearnStrategy,2023.2.3,MacIntel,126.5822785,2,2,1,,,,,,,,4,15,,,,,,,,,,,4,1.332,1,,,,,,0.33069995,-0.255765109,1,0,0,1.3317,Gabbro_rect,0,0,0,0,1,
6664215e9a4fc14231f523c6,TCN,2024-06-25_19h23.08.335,LearnStrategy,2023.2.3,MacIntel,126.5822785,2,2,2,,,,,,,,7,02,,,,,,,,,,,7,1.153,1,,,,,,0.091214741,-0.416037951,1,0,0,1.1534,Peridotite_rect,1,0,1,0,1,
6664215e9a4fc14231f523c6,TCN,2024-06-25_19h23.08.335,LearnStrategy,2023.2.3,MacIntel,126.5822785,2,2,3,,,,,,,,8,15,,,,,,,,,,,8,1.091,1,,,,,,0.339179754,-0.391830612,1,0,0,1.091,Pumice_rect,2,0,2,0,1,
6664215e9a4fc14231f523c6,TCN,2024-06-25_19h23.08.335,LearnStrategy,2023.2.3,MacIntel,126.5822785,2,2,4,,,,,,,,2,16,,,,,,,,,,,2,1.495,1,,,,,,-0.130851933,-0.244097626,1,0,0,1.4947,Basalt_rect,3,0,3,0,1,
6664215e9a4fc14231f523c6,TCN,2024-06-25_19h23.08.335,LearnStrategy,2023.2.3,MacIntel,126.5822785,2,2,5,,,,,,,,5,09,,,,,,,,,,,5,2.495,1,,,,,,-0.345046571,-0.411771175,1,0,0,2.4955,Obsidian_rect,4,0,4,0,1,
6664215e9a4fc14231f523c6,TCN,2024-06-25_19h23.08.335,LearnStrategy,2023.2.3,MacIntel,126.5822785,2,2,6,,,,,,,,2,06,,,,,,,,,,,2,0.961,1,,,,,,-0.139914698,-0.235985791,1,0,0,0.9614,Basalt_rect,5,0,5,0,1,
6664215e9a4fc14231f523c6,TCN,2024-06-25_19h23.08.335,LearnStrategy,2023.2.3,MacIntel,126.5822785,2,2,7,,,,,,,,6,08,,,,,,,,,,,6,1.312,1,,,,,,-0.079332266,-0.409877587,1,0,0,1.3117,Pegmatite_rect,6,0,6,0,1,
6664215e9a4fc14231f523c6,TCN,2024-06-25_19h23.08.335,LearnStrategy,2023.2.3,MacIntel,126.5822785,2,2,8,,,,,,,,3,16,,,,,,,,,,,3,0.979,1,,,,,,0.12778002,-0.246582445,1,0,0,0.9795,Diorite_rect,7,0,7,0,1,
6664215e9a4fc14231f523c6,TCN,2024-06-25_19h23.08.335,LearnStrategy,2023.2.3,MacIntel,126.5822785,2,2,9,,,,,,,,7,12,,,,,,,,,,,7,1.341,1,,,,,,0.081097686,-0.390875549,1,0,0,1.3414,Peridotite_rect,8,0,8,0,1,
6664215e9a4fc14231f523c6,TCN,2024-06-25_19h23.08.335,LearnStrategy,2023.2.3,MacIntel,126.5822785,2,2,10,,,,,,,,8,03,,,,,,,,,,,8,0.893,1,,,,,,0.363002587,-0.39859461,1,0,0,0.8932,Pumice_rect,9,0,9,0,1,
6664215e9a4fc14231f523c6,TCN,2024-06-25_19h23.08.335,LearnStrategy,2023.2.3,MacIntel,126.5822785,2,2,11,,,,,,,,3,13,,,,,,,,,,,7,2.693,0,,,,,,0.177406098,-0.393873042,1,0,0,2.6933,Peridotite_rect,10,0,10,0,1,
6664215e9a4fc14231f523c6,TCN,2024-06-25_19h23.08.335,LearnStrategy,2023.2.3,MacIntel,126.5822785,2,2,12,,,,,,,,6,16,,,,,,,,,,,6,1.081,1,,,,,,-0.091231279,-0.41973417,1,0,0,1.0807,Pegmatite_rect,11,0,11,0,1,
6664215e9a4fc14231f523c6,TCN,2024-06-25_19h23.08.335,LearnStrategy,2023.2.3,MacIntel,126.5822785,2,2,13,,,,,,,,5,14,,,,,,,,,,,5,0.806,1,,,,,,-0.374256622,-0.382759579,1,0,0,0.8057,Obsidian_rect,12,0,12,0,1,
6664215e9a4fc14231f523c6,TCN,2024-06-25_19h23.08.335,LearnStrategy,2023.2.3,MacIntel,126.5822785,2,2,14,,,,,,,,4,10,,,,,,,,,,,1,0.893,0,,,,,,-0.361456294,-0.231289029,1,0,0,0.8933,Andesite_rect,13,0,13,0,1,
6664215e9a4fc14231f523c6,TCN,2024-06-25_19h23.08.335,LearnStrategy,2023.2.3,MacIntel,126.5822785,2,2,15,,,,,,,,1,10,,,,,,,,,,,1,1.325,1,,,,,,-0.386515334,-0.256563062,1,0,0,1.3247,Andesite_rect,14,0,14,0,1,
6664215e9a4fc14231f523c6,TCN,2024-06-25_19h23.08.335,LearnStrategy,2023.2.3,MacIntel,126.5822785,2,2,16,,,,,,,,1,04,,,,,,,,,,,3,1.451,0,,,,,,0.070910345,-0.25975901,1,0,0,1.4511,Diorite_rect,15,0,15,0,1,
6664215e9a4fc14231f523c6,TCN,2024-06-25_19h23.08.335,LearnStrategy,2023.2.3,MacIntel,126.5822785,3,1,1,-0.135854645,0.013666087,1,0,0,1.0037,rock_grid_rect_2,8,02,-1,-1,1.004,0.435074718,-0.420040121,1,0,0,1.0437,Pumice_rect,8,1.044,1,0,0,0,0,1,,,,,,,,,,,,,
6664215e9a4fc14231f523c6,TCN,2024-06-25_19h23.08.335,LearnStrategy,2023.2.3,MacIntel,126.5822785,3,1,2,0.135507349,0.001767074,1,0,0,0.7221,rock_grid_rect_2,5,08,-1,-1,0.722,-0.32085577,-0.406049065,1,0,0,1.3014,Obsidian_rect,5,1.301,1,1,0,1,0,1,,,,,,,,,,,,,
6664215e9a4fc14231f523c6,TCN,2024-06-25_19h23.08.335,LearnStrategy,2023.2.3,MacIntel,126.5822785,3,1,3,-0.037830427,0.004855525,1,0,0,0.716,rock_grid_rect_2,2,02,-1,-1,0.716,-0.132646294,-0.26423251,1,0,0,0.8344,Basalt_rect,2,0.834,1,2,0,2,0,1,,,,,,,,,,,,,
6664215e9a4fc14231f523c6,TCN,2024-06-25_19h23.08.335,LearnStrategy,2023.2.3,MacIntel,126.5822785,3,1,4,-0.048369199,0.020707094,1,0,0,0.899,rock_grid_rect_2,3,02,-1,-1,0.899,0.185319479,-0.255359931,1,0,0,0.8335,Diorite_rect,3,0.833,1,3,0,3,0,1,,,,,,,,,,,,,
6664215e9a4fc14231f523c6,TCN,2024-06-25_19h23.08.335,LearnStrategy,2023.2.3,MacIntel,126.5822785,3,1,5,0.073911972,-0.003028915,1,0,0,0.6811,rock_grid_rect_2,6,06,-1,-1,0.681,-0.126068348,-0.392554145,1,0,0,4.4151,Pegmatite_rect,6,4.415,1,4,0,4,0,1,,,,,,,,,,,,,
6664215e9a4fc14231f523c6,TCN,2024-06-25_19h23.08.335,LearnStrategy,2023.2.3,MacIntel,126.5822785,3,1,6,0.003820253,0.010346105,1,0,0,0.5457,rock_grid_rect_2,6,03,-1,-1,0.546,-0.121958682,-0.387481147,1,0,0,1.1351,Pegmatite_rect,6,1.135,1,5,0,5,0,1,,,,,,,,,,,,,
6664215e9a4fc14231f523c6,TCN,2024-06-25_19h23.08.335,LearnStrategy,2023.2.3,MacIntel,126.5822785,3,1,7,0.011506238,-0.022415458,1,0,0,0.7309,rock_grid_rect_2,3,08,-1,-1,0.731,0.139497116,-0.254731491,1,0,0,1.4267,Diorite_rect,3,1.427,1,6,0,6,0,1,,,,,,,,,,,,,
6664215e9a4fc14231f523c6,TCN,2024-06-25_19h23.08.335,LearnStrategy,2023.2.3,MacIntel,126.5822785,3,1,8,0.053289221,0.004822449,1,0,0,0.8654,rock_grid_rect_2,7,13,-1,-1,0.865,0.087828608,-0.380981755,1,0,0,0.8451,Peridotite_rect,7,0.845,1,7,0,7,0,1,,,,,,,,,,,,,
6664215e9a4fc14231f523c6,TCN,2024-06-25_19h23.08.335,LearnStrategy,2023.2.3,MacIntel,126.5822785,3,1,9,0.078625271,-0.004579342,1,0,0,1.2603,rock_grid_rect_2,2,05,-1,-1,1.26,-0.160028908,-0.23967374,1,0,0,1.1246,Basalt_rect,2,1.125,1,8,0,8,0,1,,,,,,,,,,,,,
6664215e9a4fc14231f523c6,TCN,2024-06-25_19h23.08.335,LearnStrategy,2023.2.3,MacIntel,126.5822785,3,1,10,0.10907153,0.014488847,1,0,0,1.1626,rock_grid_rect_2,1,01,-1,-1,1.163,0.157060357,-0.263608204,1,0,0,1.4693,Diorite_rect,3,1.469,0,9,0,9,0,1,,,,,,,,,,,,,
6664215e9a4fc14231f523c6,TCN,2024-06-25_19h23.08.335,LearnStrategy,2023.2.3,MacIntel,126.5822785,3,1,11,0.011026639,-0.009445617,1,0,0,0.7062,rock_grid_rect_2,4,16,-1,-1,0.706,0.299844378,-0.239834985,1,0,0,0.8471,Gabbro_rect,4,0.847,1,10,0,10,0,1,,,,,,,,,,,,,
6664215e9a4fc14231f523c6,TCN,2024-06-25_19h23.08.335,LearnStrategy,2023.2.3,MacIntel,126.5822785,3,1,12,0.049080328,-0.000887258,1,0,0,0.8234,rock_grid_rect_2,4,12,-1,-1,0.823,-0.182040842,-0.241774053,1,0,0,6.0866,Basalt_rect,2,6.087,0,11,0,11,0,1,,,,,,,,,,,,,
6664215e9a4fc14231f523c6,TCN,2024-06-25_19h23.08.335,LearnStrategy,2023.2.3,MacIntel,126.5822785,3,1,13,-0.165829574,0.013951365,1,0,0,24.9235,rock_grid_rect_2,8,09,-1,-1,24.923,0.299997354,-0.39369526,1,0,0,1.1834,Pumice_rect,8,1.183,1,12,0,12,0,1,,,,,,,,,,,,,
6664215e9a4fc14231f523c6,TCN,2024-06-25_19h23.08.335,LearnStrategy,2023.2.3,MacIntel,126.5822785,3,1,14,0.027601741,0.004194009,1,0,0,0.7727,rock_grid_rect_2,1,11,-1,-1,0.773,-0.353906746,-0.264745184,1,0,0,1.2269,Andesite_rect,1,1.227,1,13,0,13,0,1,,,,,,,,,,,,,
6664215e9a4fc14231f523c6,TCN,2024-06-25_19h23.08.335,LearnStrategy,2023.2.3,MacIntel,126.5822785,3,1,15,0.028031726,0.004404867,1,0,0,0.6397,rock_grid_rect_2,5,06,-1,-1,0.64,-0.316212757,-0.410299303,1,0,0,1.1854,Obsidian_rect,5,1.185,1,14,0,14,0,1,,,,,,,,,,,,,
6664215e9a4fc14231f523c6,TCN,2024-06-25_19h23.08.335,LearnStrategy,2023.2.3,MacIntel,126.5822785,3,1,16,0.048939756,0.01795767,1,0,0,1.1745,rock_grid_rect_2,7,15,-1,-1,1.175,0.154182764,-0.410096714,1,0,0,0.9716,Peridotite_rect,7,0.972,1,15,0,15,0,1,,,,,,,,,,,,,
6664215e9a4fc14231f523c6,TCN,2024-06-25_19h23.08.335,LearnStrategy,2023.2.3,MacIntel,126.5822785,3,2,1,,,,,,,,3,11,,,,,,,,,,,3,1.827,1,,,,,,0.088895302,-0.267242406,1,0,0,1.8274,Diorite_rect,0,0,0,0,1,
6664215e9a4fc14231f523c6,TCN,2024-06-25_19h23.08.335,LearnStrategy,2023.2.3,MacIntel,126.5822785,3,2,2,,,,,,,,8,06,,,,,,,,,,,8,1.696,1,,,,,,0.409155708,-0.416079296,1,0,0,1.696,Pumice_rect,1,0,1,0,1,
6664215e9a4fc14231f523c6,TCN,2024-06-25_19h23.08.335,LearnStrategy,2023.2.3,MacIntel,126.5822785,3,2,3,,,,,,,,3,10,,,,,,,,,,,3,1.117,1,,,,,,0.149961467,-0.243882634,1,0,0,1.1173,Diorite_rect,2,0,2,0,1,
6664215e9a4fc14231f523c6,TCN,2024-06-25_19h23.08.335,LearnStrategy,2023.2.3,MacIntel,126.5822785,3,2,4,,,,,,,,7,08,,,,,,,,,,,7,1.243,1,,,,,,0.139298661,-0.42099105,1,0,0,1.2426,Peridotite_rect,3,0,3,0,1,
6664215e9a4fc14231f523c6,TCN,2024-06-25_19h23.08.335,LearnStrategy,2023.2.3,MacIntel,126.5822785,3,2,5,,,,,,,,5,02,,,,,,,,,,,5,1.154,1,,,,,,-0.474575472,-0.409563367,1,0,0,1.154,Obsidian_rect,4,0,4,0,1,
6664215e9a4fc14231f523c6,TCN,2024-06-25_19h23.08.335,LearnStrategy,2023.2.3,MacIntel,126.5822785,3,2,6,,,,,,,,8,08,,,,,,,,,,,1,2.161,0,,,,,,-0.407055395,-0.228208847,1,0,0,2.1612,Andesite_rect,5,0,5,0,1,
6664215e9a4fc14231f523c6,TCN,2024-06-25_19h23.08.335,LearnStrategy,2023.2.3,MacIntel,126.5822785,3,2,7,,,,,,,,6,11,,,,,,,,,,,6,0.976,1,,,,,,-0.206587208,-0.407326617,1,0,0,0.9763,Pegmatite_rect,6,0,6,0,1,
6664215e9a4fc14231f523c6,TCN,2024-06-25_19h23.08.335,LearnStrategy,2023.2.3,MacIntel,126.5822785,3,2,8,,,,,,,,1,09,,,,,,,,,,,1,1.342,1,,,,,,-0.417176585,-0.234398153,1,0,0,1.3425,Andesite_rect,7,0,7,0,1,
6664215e9a4fc14231f523c6,TCN,2024-06-25_19h23.08.335,LearnStrategy,2023.2.3,MacIntel,126.5822785,3,2,9,,,,,,,,4,03,,,,,,,,,,,4,0.885,1,,,,,,0.335892848,-0.253251349,1,0,0,0.885,Gabbro_rect,8,0,8,0,1,
6664215e9a4fc14231f523c6,TCN,2024-06-25_19h23.08.335,LearnStrategy,2023.2.3,MacIntel,126.5822785,3,2,10,,,,,,,,4,08,,,,,,,,,,,1,1.027,0,,,,,,-0.365859507,-0.238131582,1,0,0,1.027,Andesite_rect,9,0,9,0,1,
6664215e9a4fc14231f523c6,TCN,2024-06-25_19h23.08.335,LearnStrategy,2023.2.3,MacIntel,126.5822785,3,2,11,,,,,,,,1,05,,,,,,,,,,,7,2.05,0,,,,,,0.150912395,-0.387460474,1,0,0,2.0503,Peridotite_rect,10,0,10,0,1,
6664215e9a4fc14231f523c6,TCN,2024-06-25_19h23.08.335,LearnStrategy,2023.2.3,MacIntel,126.5822785,3,2,12,,,,,,,,2,08,,,,,,,,,,,2,1.457,1,,,,,,-0.123901884,-0.258291272,1,0,0,1.4575,Basalt_rect,11,0,11,0,1,
6664215e9a4fc14231f523c6,TCN,2024-06-25_19h23.08.335,LearnStrategy,2023.2.3,MacIntel,126.5822785,3,2,13,,,,,,,,2,11,,,,,,,,,,,1,0.985,0,,,,,,-0.360352389,-0.257786866,1,0,0,0.985,Andesite_rect,12,0,12,0,1,
6664215e9a4fc14231f523c6,TCN,2024-06-25_19h23.08.335,LearnStrategy,2023.2.3,MacIntel,126.5822785,3,2,14,,,,,,,,6,15,,,,,,,,,,,6,0.919,1,,,,,,-0.124422828,-0.40518496,1,0,0,0.9186,Pegmatite_rect,13,0,13,0,1,
6664215e9a4fc14231f523c6,TCN,2024-06-25_19h23.08.335,LearnStrategy,2023.2.3,MacIntel,126.5822785,3,2,15,,,,,,,,7,06,,,,,,,,,,,7,1.35,1,,,,,,0.198773054,-0.389180415,1,0,0,1.3502,Peridotite_rect,14,0,14,0,1,
6664215e9a4fc14231f523c6,TCN,2024-06-25_19h23.08.335,LearnStrategy,2023.2.3,MacIntel,126.5822785,3,2,16,,,,,,,,5,04,,,,,,,,,,,5,0.993,1,,,,,,-0.363387093,-0.402600914,1,0,0,0.993,Obsidian_rect,15,0,15,0,1,
6664215e9a4fc14231f523c6,TCN,2024-06-25_19h23.08.335,LearnStrategy,2023.2.3,MacIntel,126.5822785,4,1,1,-0.057560132,-0.003214966,1,0,0,0.9919,rock_grid_rect_2,7,07,-1,-1,0.992,0.215563148,-0.386964338,1,0,0,1.333,Peridotite_rect,7,1.333,1,0,0,0,0,1,,,,,,,,,,,,,
6664215e9a4fc14231f523c6,TCN,2024-06-25_19h23.08.335,LearnStrategy,2023.2.3,MacIntel,126.5822785,4,1,2,0.09561382,-0.016110387,1,0,0,0.7914,rock_grid_rect_2,5,12,-1,-1,0.791,-0.502259903,-0.410770633,1,0,0,0.8364,Obsidian_rect,5,0.836,1,1,0,1,0,1,,,,,,,,,,,,,
6664215e9a4fc14231f523c6,TCN,2024-06-25_19h23.08.335,LearnStrategy,2023.2.3,MacIntel,126.5822785,4,1,3,-0.003534974,-0.006034677,1,0,0,0.7158,rock_grid_rect_2,8,10,-1,-1,0.716,0.429212036,-0.412932962,1,0,0,2.3699,Pumice_rect,8,2.37,1,2,0,2,0,1,,,,,,,,,,,,,
6664215e9a4fc14231f523c6,TCN,2024-06-25_19h23.08.335,LearnStrategy,2023.2.3,MacIntel,126.5822785,4,1,4,0.069264825,0.013041781,1,0,0,0.6113,rock_grid_rect_2,2,02,-1,-1,0.611,-0.159603058,-0.235460713,1,0,0,0.8298,Basalt_rect,2,0.83,1,3,0,3,0,1,,,,,,,,,,,,,
6664215e9a4fc14231f523c6,TCN,2024-06-25_19h23.08.335,LearnStrategy,2023.2.3,MacIntel,126.5822785,4,1,5,0.06161605,0.003313367,1,0,0,0.7484,rock_grid_rect_2,1,11,-1,-1,0.748,-0.342375701,-0.239810178,1,0,0,0.8607,Andesite_rect,1,0.861,1,4,0,4,0,1,,,,,,,,,,,,,
6664215e9a4fc14231f523c6,TCN,2024-06-25_19h23.08.335,LearnStrategy,2023.2.3,MacIntel,126.5822785,4,1,6,0.055050507,0.000167033,1,0,0,0.822,rock_grid_rect_2,3,06,-1,-1,0.822,0.120387582,-0.269809913,1,0,0,1.1969,Diorite_rect,3,1.197,1,5,0,5,0,1,,,,,,,,,,,,,
6664215e9a4fc14231f523c6,TCN,2024-06-25_19h23.08.335,LearnStrategy,2023.2.3,MacIntel,126.5822785,4,1,7,0.051933114,-0.01824791,1,0,0,0.648,rock_grid_rect_2,7,14,-1,-1,0.648,0.102878089,-0.403245892,1,0,0,0.8081,Peridotite_rect,7,0.808,1,6,0,6,0,1,,,,,,,,,,,,,
6664215e9a4fc14231f523c6,TCN,2024-06-25_19h23.08.335,LearnStrategy,2023.2.3,MacIntel,126.5822785,4,1,8,0.089354228,0.006670559,1,0,0,0.9087,rock_grid_rect_2,4,14,-1,-1,0.909,0.420116195,-0.264526057,1,0,0,1.1929,Gabbro_rect,4,1.193,1,7,0,7,0,1,,,,,,,,,,,,,
6664215e9a4fc14231f523c6,TCN,2024-06-25_19h23.08.335,LearnStrategy,2023.2.3,MacIntel,126.5822785,4,1,9,0.128499418,-0.00295036,1,0,0,0.6561,rock_grid_rect_2,1,14,-1,-1,0.656,-0.335686124,-0.243159101,1,0,0,1.1592,Andesite_rect,1,1.159,1,8,0,8,0,1,,,,,,,,,,,,,
6664215e9a4fc14231f523c6,TCN,2024-06-25_19h23.08.335,LearnStrategy,2023.2.3,MacIntel,126.5822785,4,1,10,0.05051499,0.016568487,1,0,0,0.5488,rock_grid_rect_2,6,06,-1,-1,0.549,-0.146476106,-0.38981299,1,0,0,0.9103,Pegmatite_rect,6,0.91,1,9,0,9,0,1,,,,,,,,,,,,,
6664215e9a4fc14231f523c6,TCN,2024-06-25_19h23.08.335,LearnStrategy,2023.2.3,MacIntel,126.5822785,4,1,11,0.030690192,-0.022159121,1,0,0,0.7985,rock_grid_rect_2,2,05,-1,-1,0.798,-0.106123651,-0.230590304,1,0,0,0.7528,Basalt_rect,2,0.753,1,10,0,10,0,1,,,,,,,,,,,,,
6664215e9a4fc14231f523c6,TCN,2024-06-25_19h23.08.335,LearnStrategy,2023.2.3,MacIntel,126.5822785,4,1,12,0.097151844,0.003830176,1,0,0,0.672,rock_grid_rect_2,6,13,-1,-1,0.672,-0.096308412,-0.37851761,1,0,0,1.083,Pegmatite_rect,6,1.083,1,11,0,11,0,1,,,,,,,,,,,,,
6664215e9a4fc14231f523c6,TCN,2024-06-25_19h23.08.335,LearnStrategy,2023.2.3,MacIntel,126.5822785,4,1,13,0.080766928,0.024998677,1,0,0,0.8826,rock_grid_rect_2,4,11,-1,-1,0.883,-0.089598162,-0.266064081,1,0,0,1.2849,Basalt_rect,2,1.285,0,12,0,12,0,1,,,,,,,,,,,,,
6664215e9a4fc14231f523c6,TCN,2024-06-25_19h23.08.335,LearnStrategy,2023.2.3,MacIntel,126.5822785,4,1,14,0.137334786,0.022530397,1,0,0,0.7293,rock_grid_rect_2,5,07,-1,-1,0.729,-0.423758666,-0.399698514,1,0,0,0.7943,Obsidian_rect,5,0.794,1,13,0,13,0,1,,,,,,,,,,,,,
6664215e9a4fc14231f523c6,TCN,2024-06-25_19h23.08.335,LearnStrategy,2023.2.3,MacIntel,126.5822785,4,1,15,-0.009290161,-0.020674845,1,0,0,0.6581,rock_grid_rect_2,8,14,-1,-1,0.658,0.449396532,-0.403584919,1,0,0,1.7351,Pumice_rect,8,1.735,1,14,0,14,0,1,,,,,,,,,,,,,
6664215e9a4fc14231f523c6,TCN,2024-06-25_19h23.08.335,LearnStrategy,2023.2.3,MacIntel,126.5822785,4,1,16,0.108930958,-0.005311144,1,0,0,1.2149,rock_grid_rect_2,3,08,-1,-1,1.215,0.139579805,-0.24301026,1,0,0,1.1682,Diorite_rect,3,1.168,1,15,0,15,0,1,,,,,,,,,,,,,
6664215e9a4fc14231f523c6,TCN,2024-06-25_19h23.08.335,LearnStrategy,2023.2.3,MacIntel,126.5822785,4,2,1,,,,,,,,4,08,,,,,,,,,,,1,1.386,0,,,,,,-0.337637595,-0.23610569,1,0,0,1.3858,Andesite_rect,0,0,0,0,1,
6664215e9a4fc14231f523c6,TCN,2024-06-25_19h23.08.335,LearnStrategy,2023.2.3,MacIntel,126.5822785,4,2,2,,,,,,,,1,04,,,,,,,,,,,7,2.675,0,,,,,,0.13444479,-0.418047305,1,0,0,2.6746,Peridotite_rect,1,0,1,0,1,
6664215e9a4fc14231f523c6,TCN,2024-06-25_19h23.08.335,LearnStrategy,2023.2.3,MacIntel,126.5822785,4,2,3,,,,,,,,5,14,,,,,,,,,,,5,1.135,1,,,,,,-0.38995935,-0.410340647,1,0,0,1.1351,Obsidian_rect,2,0,2,0,1,
6664215e9a4fc14231f523c6,TCN,2024-06-25_19h23.08.335,LearnStrategy,2023.2.3,MacIntel,126.5822785,4,2,4,,,,,,,,8,06,,,,,,,,,,,8,1.177,1,,,,,,0.350752143,-0.39494387,1,0,0,1.177,Pumice_rect,3,0,3,0,1,
6664215e9a4fc14231f523c6,TCN,2024-06-25_19h23.08.335,LearnStrategy,2023.2.3,MacIntel,126.5822785,4,2,5,,,,,,,,5,05,,,,,,,,,,,5,1.037,1,,,,,,-0.339543587,-0.405011312,1,0,0,1.0366,Obsidian_rect,4,0,4,0,1,
6664215e9a4fc14231f523c6,TCN,2024-06-25_19h23.08.335,LearnStrategy,2023.2.3,MacIntel,126.5822785,4,2,6,,,,,,,,2,11,,,,,,,,,,,1,0.918,0,,,,,,-0.341118821,-0.260019482,1,0,0,0.9181,Andesite_rect,5,0,5,0,1,
6664215e9a4fc14231f523c6,TCN,2024-06-25_19h23.08.335,LearnStrategy,2023.2.3,MacIntel,126.5822785,4,2,7,,,,,,,,3,13,,,,,,,,,,,3,1.035,1,,,,,,0.121156594,-0.264249047,1,0,0,1.0352,Diorite_rect,6,0,6,0,1,
6664215e9a4fc14231f523c6,TCN,2024-06-25_19h23.08.335,LearnStrategy,2023.2.3,MacIntel,126.5822785,4,2,8,,,,,,,,2,06,,,,,,,,,,,2,1.042,1,,,,,,-0.088436375,-0.247409339,1,0,0,1.0422,Basalt_rect,7,0,7,0,1,
6664215e9a4fc14231f523c6,TCN,2024-06-25_19h23.08.335,LearnStrategy,2023.2.3,MacIntel,126.5822785,4,2,9,,,,,,,,1,07,,,,,,,,,,,3,1.821,0,,,,,,0.114202411,-0.238698005,1,0,0,1.8206,Diorite_rect,8,0,8,0,1,
6664215e9a4fc14231f523c6,TCN,2024-06-25_19h23.08.335,LearnStrategy,2023.2.3,MacIntel,126.5822785,4,2,10,,,,,,,,6,10,,,,,,,,,,,6,1.208,1,,,,,,-0.067726801,-0.404982371,1,0,0,1.2083,Pegmatite_rect,9,0,9,0,1,
6664215e9a4fc14231f523c6,TCN,2024-06-25_19h23.08.335,LearnStrategy,2023.2.3,MacIntel,126.5822785,4,2,11,,,,,,,,6,16,,,,,,,,,,,6,0.946,1,,,,,,-0.08169305,-0.389502904,1,0,0,0.9459,Pegmatite_rect,10,0,10,0,1,
6664215e9a4fc14231f523c6,TCN,2024-06-25_19h23.08.335,LearnStrategy,2023.2.3,MacIntel,126.5822785,4,2,12,,,,,,,,8,15,,,,,,,,,,,8,1.184,1,,,,,,0.342553484,-0.406487319,1,0,0,1.1837,Pumice_rect,11,0,11,0,1,
6664215e9a4fc14231f523c6,TCN,2024-06-25_19h23.08.335,LearnStrategy,2023.2.3,MacIntel,126.5822785,4,2,13,,,,,,,,7,02,,,,,,,,,,,7,1.034,1,,,,,,0.141245998,-0.386956069,1,0,0,1.0338,Peridotite_rect,12,0,12,0,1,
6664215e9a4fc14231f523c6,TCN,2024-06-25_19h23.08.335,LearnStrategy,2023.2.3,MacIntel,126.5822785,4,2,14,,,,,,,,4,03,,,,,,,,,,,4,0.817,1,,,,,,0.396735751,-0.245102303,1,0,0,0.817,Gabbro_rect,13,0,13,0,1,
6664215e9a4fc14231f523c6,TCN,2024-06-25_19h23.08.335,LearnStrategy,2023.2.3,MacIntel,126.5822785,4,2,15,,,,,,,,3,11,,,,,,,,,,,3,0.91,1,,,,,,0.160049581,-0.259746606,1,0,0,0.9096,Diorite_rect,14,0,14,0,1,
6664215e9a4fc14231f523c6,TCN,2024-06-25_19h23.08.335,LearnStrategy,2023.2.3,MacIntel,126.5822785,4,2,16,,,,,,,,7,06,,,,,,,,,,,7,1.406,1,,,,,,0.144594921,-0.385169976,1,0,0,1.406,Peridotite_rect,15,0,15,0,1,
6664215e9a4fc14231f523c6,TCN,2024-06-25_19h23.08.335,LearnStrategy,2023.2.3,MacIntel,126.5822785,5,1,1,0.022499802,-0.013976999,1,0,0,1.0895,rock_grid_rect_2,7,13,-1,-1,1.09,0.109662759,-0.395158863,1,0,0,1.4666,Peridotite_rect,7,1.467,1,0,0,0,0,1,,,,,,,,,,,,,
6664215e9a4fc14231f523c6,TCN,2024-06-25_19h23.08.335,LearnStrategy,2023.2.3,MacIntel,126.5822785,5,1,2,0.016099637,0.006939299,1,0,0,1.2465,rock_grid_rect_2,2,10,-1,-1,1.246,-0.169161959,-0.256864879,1,0,0,1.0793,Basalt_rect,2,1.079,1,1,0,1,0,1,,,,,,,,,,,,,
6664215e9a4fc14231f523c6,TCN,2024-06-25_19h23.08.335,LearnStrategy,2023.2.3,MacIntel,126.5822785,5,1,3,0.008562493,0.002957802,1,0,0,0.816,rock_grid_rect_2,3,02,-1,-1,0.816,0.106574308,-0.249133414,1,0,0,0.9435,Diorite_rect,3,0.943,1,2,0,2,0,1,,,,,,,,,,,,,
6664215e9a4fc14231f523c6,TCN,2024-06-25_19h23.08.335,LearnStrategy,2023.2.3,MacIntel,126.5822785,5,1,4,0.122731828,0.016200519,1,0,0,0.6873,rock_grid_rect_2,4,05,-1,-1,0.687,0.046450803,-0.405110539,1,0,0,1.2061,Peridotite_rect,7,1.206,0,3,0,3,0,1,,,,,,,,,,,,,
6664215e9a4fc14231f523c6,TCN,2024-06-25_19h23.08.335,LearnStrategy,2023.2.3,MacIntel,126.5822785,5,1,5,0.147373287,-0.024937487,1,0,0,1.0065,rock_grid_rect_2,4,16,-1,-1,1.006,-0.091789433,-0.266002064,1,0,0,1.4533,Basalt_rect,2,1.453,0,4,0,4,0,1,,,,,,,,,,,,,
6664215e9a4fc14231f523c6,TCN,2024-06-25_19h23.08.335,LearnStrategy,2023.2.3,MacIntel,126.5822785,5,1,6,0.033931619,0.006277784,1,0,0,0.7883,rock_grid_rect_2,1,16,-1,-1,0.788,0.083801631,-0.38820468,1,0,0,1.4201,Peridotite_rect,7,1.42,0,5,0,5,0,1,,,,,,,,,,,,,
6664215e9a4fc14231f523c6,TCN,2024-06-25_19h23.08.335,LearnStrategy,2023.2.3,MacIntel,126.5822785,5,1,7,0.1476627,0.020405278,1,0,0,0.7987,rock_grid_rect_2,1,01,-1,-1,0.799,-0.482133289,-0.258295406,1,0,0,1.5083,Andesite_rect,1,1.508,1,6,0,6,0,1,,,,,,,,,,,,,
6664215e9a4fc14231f523c6,TCN,2024-06-25_19h23.08.335,LearnStrategy,2023.2.3,MacIntel,126.5822785,5,1,8,-0.10236128,-0.017594663,1,0,0,0.9068,rock_grid_rect_2,5,16,-1,-1,0.907,-0.403793296,-0.385380835,1,0,0,0.9108,Obsidian_rect,5,0.911,1,7,0,7,0,1,,,,,,,,,,,,,
6664215e9a4fc14231f523c6,TCN,2024-06-25_19h23.08.335,LearnStrategy,2023.2.3,MacIntel,126.5822785,5,1,9,0.041584528,-0.016341918,1,0,0,1.14,rock_grid_rect_2,6,12,-1,-1,1.14,-0.108120601,-0.398979116,1,0,0,1.302,Pegmatite_rect,6,1.302,1,8,0,8,0,1,,,,,,,,,,,,,
6664215e9a4fc14231f523c6,TCN,2024-06-25_19h23.08.335,LearnStrategy,2023.2.3,MacIntel,126.5822785,5,1,10,0.023806295,-0.004215509,1,0,0,0.8512,rock_grid_rect_2,2,14,-1,-1,0.851,-0.116707901,-0.254677743,1,0,0,0.9418,Basalt_rect,2,0.942,1,9,0,9,0,1,,,,,,,,,,,,,
6664215e9a4fc14231f523c6,TCN,2024-06-25_19h23.08.335,LearnStrategy,2023.2.3,MacIntel,126.5822785,5,1,11,-0.049444161,0.003511821,1,0,0,0.715,rock_grid_rect_2,7,04,-1,-1,0.715,0.144462618,-0.406685773,1,0,0,1.0515,Peridotite_rect,7,1.052,1,10,0,10,0,1,,,,,,,,,,,,,
6664215e9a4fc14231f523c6,TCN,2024-06-25_19h23.08.335,LearnStrategy,2023.2.3,MacIntel,126.5822785,5,1,12,0.130579058,0.005686554,1,0,0,0.5834,rock_grid_rect_2,8,04,-1,-1,0.583,0.35905003,-0.41953985,1,0,0,0.9199,Pumice_rect,8,0.92,1,11,0,11,0,1,,,,,,,,,,,,,
6664215e9a4fc14231f523c6,TCN,2024-06-25_19h23.08.335,LearnStrategy,2023.2.3,MacIntel,126.5822785,5,1,13,-0.015301684,0.023828621,1,0,0,0.581,rock_grid_rect_2,6,03,-1,-1,0.581,-0.10616913,-0.40404798,1,0,0,0.7854,Pegmatite_rect,6,0.785,1,12,0,12,0,1,,,,,,,,,,,,,
6664215e9a4fc14231f523c6,TCN,2024-06-25_19h23.08.335,LearnStrategy,2023.2.3,MacIntel,126.5822785,5,1,14,0.050386821,0.005558385,1,0,0,0.5073,rock_grid_rect_2,5,06,-1,-1,0.507,-0.389194472,-0.392508666,1,0,0,1.4408,Obsidian_rect,5,1.441,1,13,0,13,0,1,,,,,,,,,,,,,
6664215e9a4fc14231f523c6,TCN,2024-06-25_19h23.08.335,LearnStrategy,2023.2.3,MacIntel,126.5822785,5,1,15,0.100194816,-0.013981134,1,0,0,1.1325,rock_grid_rect_2,8,02,-1,-1,1.133,0.455842176,-0.40106289,1,0,0,1.302,Pumice_rect,8,1.302,1,14,0,14,0,1,,,,,,,,,,,,,
6664215e9a4fc14231f523c6,TCN,2024-06-25_19h23.08.335,LearnStrategy,2023.2.3,MacIntel,126.5822785,5,1,16,0.097879512,-0.021629908,1,0,0,0.7743,rock_grid_rect_2,3,15,-1,-1,0.774,0.133605492,-0.2452098,1,0,0,0.9872,Diorite_rect,3,0.987,1,15,0,15,0,1,,,,,,,,,,,,,
6664215e9a4fc14231f523c6,TCN,2024-06-25_19h23.08.335,LearnStrategy,2023.2.3,MacIntel,126.5822785,5,2,1,,,,,,,,2,09,,,,,,,,,,,2,1.034,1,,,,,,-0.116782322,-0.253420863,1,0,0,1.0338,Basalt_rect,0,0,0,0,1,
6664215e9a4fc14231f523c6,TCN,2024-06-25_19h23.08.335,LearnStrategy,2023.2.3,MacIntel,126.5822785,5,2,2,,,,,,,,7,10,,,,,,,,,,,7,1.167,1,,,,,,0.08459545,-0.388564379,1,0,0,1.1673,Peridotite_rect,1,0,1,0,1,
6664215e9a4fc14231f523c6,TCN,2024-06-25_19h23.08.335,LearnStrategy,2023.2.3,MacIntel,126.5822785,5,2,3,,,,,,,,2,16,,,,,,,,,,,2,0.745,1,,,,,,-0.13836427,-0.268863119,1,0,0,0.745,Basalt_rect,2,0,2,0,1,
6664215e9a4fc14231f523c6,TCN,2024-06-25_19h23.08.335,LearnStrategy,2023.2.3,MacIntel,126.5822785,5,2,4,,,,,,,,4,15,,,,,,,,,,,4,1.285,1,,,,,,0.335293349,-0.257683504,1,0,0,1.2851,Gabbro_rect,3,0,3,0,1,
6664215e9a4fc14231f523c6,TCN,2024-06-25_19h23.08.335,LearnStrategy,2023.2.3,MacIntel,126.5822785,5,2,5,,,,,,,,4,10,,,,,,,,,,,1,0.91,0,,,,,,-0.395743477,-0.23900809,1,0,0,0.9103,Andesite_rect,4,0,4,0,1,
6664215e9a4fc14231f523c6,TCN,2024-06-25_19h23.08.335,LearnStrategy,2023.2.3,MacIntel,126.5822785,5,2,6,,,,,,,,6,11,,,,,,,,,,,6,0.783,1,,,,,,-0.113838577,-0.41330093,1,0,0,0.7831,Pegmatite_rect,5,0,5,0,1,
6664215e9a4fc14231f523c6,TCN,2024-06-25_19h23.08.335,LearnStrategy,2023.2.3,MacIntel,126.5822785,5,2,7,,,,,,,,3,10,,,,,,,,,,,3,1.233,1,,,,,,0.107884936,-0.269115322,1,0,0,1.2329,Diorite_rect,6,0,6,0,1,
6664215e9a4fc14231f523c6,TCN,2024-06-25_19h23.08.335,LearnStrategy,2023.2.3,MacIntel,126.5822785,5,2,8,,,,,,,,6,15,,,,,,,,,,,6,0.77,1,,,,,,-0.130049845,-0.411208887,1,0,0,0.7698,Pegmatite_rect,7,0,7,0,1,
6664215e9a4fc14231f523c6,TCN,2024-06-25_19h23.08.335,LearnStrategy,2023.2.3,MacIntel,126.5822785,5,2,9,,,,,,,,8,08,,,,,,,,,,,8,1.102,1,,,,,,0.376030311,-0.386488873,1,0,0,1.102,Pumice_rect,8,0,8,0,1,
6664215e9a4fc14231f523c6,TCN,2024-06-25_19h23.08.335,LearnStrategy,2023.2.3,MacIntel,126.5822785,5,2,10,,,,,,,,1,10,,,,,,,,,,,1,0.916,1,,,,,,-0.472487564,-0.241455698,1,0,0,0.9164,Andesite_rect,9,0,9,0,1,
6664215e9a4fc14231f523c6,TCN,2024-06-25_19h23.08.335,LearnStrategy,2023.2.3,MacIntel,126.5822785,5,2,11,,,,,,,,3,16,,,,,,,,,,,3,0.91,1,,,,,,0.168351602,-0.235258123,1,0,0,0.9097,Diorite_rect,10,0,10,0,1,
6664215e9a4fc14231f523c6,TCN,2024-06-25_19h23.08.335,LearnStrategy,2023.2.3,MacIntel,126.5822785,5,2,12,,,,,,,,8,16,,,,,,,,,,,4,0.862,0,,,,,,0.458637079,-0.245813433,1,0,0,0.8623,Gabbro_rect,11,0,11,0,1,
6664215e9a4fc14231f523c6,TCN,2024-06-25_19h23.08.335,LearnStrategy,2023.2.3,MacIntel,126.5822785,5,2,13,,,,,,,,1,09,,,,,,,,,,,1,1.092,1,,,,,,-0.358094967,-0.240000364,1,0,0,1.0923,Andesite_rect,12,0,12,0,1,
6664215e9a4fc14231f523c6,TCN,2024-06-25_19h23.08.335,LearnStrategy,2023.2.3,MacIntel,126.5822785,5,2,14,,,,,,,,5,11,,,,,,,,,,,5,0.829,1,,,,,,-0.383782447,-0.411878671,1,0,0,0.8293,Obsidian_rect,13,0,13,0,1,
6664215e9a4fc14231f523c6,TCN,2024-06-25_19h23.08.335,LearnStrategy,2023.2.3,MacIntel,126.5822785,5,2,15,,,,,,,,5,09,,,,,,,,,,,5,0.792,1,,,,,,-0.387346363,-0.386600504,1,0,0,0.7922,Obsidian_rect,14,0,14,0,1,
6664215e9a4fc14231f523c6,TCN,2024-06-25_19h23.08.335,LearnStrategy,2023.2.3,MacIntel,126.5822785,5,2,16,,,,,,,,7,08,,,,,,,,,,,7,1.073,1,,,,,,0.104378903,-0.381837591,1,0,0,1.0731,Peridotite_rect,15,0,15,0,1,
6664215e9a4fc14231f523c6,TCN,2024-06-25_19h23.08.335,LearnStrategy,2023.2.3,MacIntel,126.5822785,6,1,1,0.084665736,-0.017760042,1,0,0,1.0985,rock_grid_rect_2,1,06,-1,-1,1.099,-0.318515658,-0.2291267,1,0,0,1.2836,Andesite_rect,1,1.284,1,0,0,0,0,1,,,,,,,,,,,,,
6664215e9a4fc14231f523c6,TCN,2024-06-25_19h23.08.335,LearnStrategy,2023.2.3,MacIntel,126.5822785,6,1,2,0.119949328,0.012549779,1,0,0,26.3231,rock_grid_rect_2,4,12,-1,-1,26.323,-0.417610705,-0.241811263,1,0,0,1.4686,Andesite_rect,1,1.469,0,1,0,1,0,1,,,,,,,,,,,,,
6664215e9a4fc14231f523c6,TCN,2024-06-25_19h23.08.335,LearnStrategy,2023.2.3,MacIntel,126.5822785,6,1,3,-0.082594365,-0.002528644,1,0,0,0.6971,rock_grid_rect_2,2,04,-1,-1,0.697,-0.125100881,-0.23132624,1,0,0,0.9875,Basalt_rect,2,0.987,1,2,0,2,0,1,,,,,,,,,,,,,
6664215e9a4fc14231f523c6,TCN,2024-06-25_19h23.08.335,LearnStrategy,2023.2.3,MacIntel,126.5822785,6,1,4,-0.010191476,-0.007204732,1,0,0,1.1813,rock_grid_rect_2,8,05,-1,-1,1.181,0.483175176,-0.394919064,1,0,0,0.8957,Pumice_rect,8,0.896,1,3,0,3,0,1,,,,,,,,,,,,,
6664215e9a4fc14231f523c6,TCN,2024-06-25_19h23.08.335,LearnStrategy,2023.2.3,MacIntel,126.5822785,6,1,5,0.103399033,-0.001234554,1,0,0,0.7904,rock_grid_rect_2,7,15,-1,-1,0.79,0.195242214,-0.406851152,1,0,0,1.1499,Peridotite_rect,7,1.15,1,4,0,4,0,1,,,,,,,,,,,,,
6664215e9a4fc14231f523c6,TCN,2024-06-25_19h23.08.335,LearnStrategy,2023.2.3,MacIntel,126.5822785,6,1,6,0.128073567,-0.012720119,1,0,0,0.8236,rock_grid_rect_2,1,02,-1,-1,0.824,-0.377097005,-0.256087598,1,0,0,3.4462,Andesite_rect,1,3.446,1,5,0,5,0,1,,,,,,,,,,,,,
6664215e9a4fc14231f523c6,TCN,2024-06-25_19h23.08.335,LearnStrategy,2023.2.3,MacIntel,126.5822785,6,1,7,0.110357351,-0.012707716,1,0,0,0.7222,rock_grid_rect_2,7,05,-1,-1,0.722,0.212263839,-0.385752937,1,0,0,1.1457,Peridotite_rect,7,1.146,1,6,0,6,0,1,,,,,,,,,,,,,
6664215e9a4fc14231f523c6,TCN,2024-06-25_19h23.08.335,LearnStrategy,2023.2.3,MacIntel,126.5822785,6,1,8,0.089445187,0.015361221,1,0,0,0.5648,rock_grid_rect_2,8,09,-1,-1,0.565,0.395077827,-0.407554013,1,0,0,0.9885,Pumice_rect,8,0.989,1,7,0,7,0,1,,,,,,,,,,,,,
6664215e9a4fc14231f523c6,TCN,2024-06-25_19h23.08.335,LearnStrategy,2023.2.3,MacIntel,126.5822785,6,1,9,-0.136656733,0.005471561,1,0,0,0.6233,rock_grid_rect_2,6,07,-1,-1,0.623,-0.187262681,-0.389168012,1,0,0,1.3268,Pegmatite_rect,6,1.327,1,8,0,8,0,1,,,,,,,,,,,,,
6664215e9a4fc14231f523c6,TCN,2024-06-25_19h23.08.335,LearnStrategy,2023.2.3,MacIntel,126.5822785,6,1,10,0.025030099,0.016551949,1,0,0,0.6413,rock_grid_rect_2,2,12,-1,-1,0.641,-0.330443612,-0.267978342,1,0,0,0.8455,Andesite_rect,1,0.846,0,9,0,9,0,1,,,,,,,,,,,,,
6664215e9a4fc14231f523c6,TCN,2024-06-25_19h23.08.335,LearnStrategy,2023.2.3,MacIntel,126.5822785,6,1,11,0.071170817,-0.005687381,1,0,0,0.6732,rock_grid_rect_2,6,09,-1,-1,0.673,-0.094778657,-0.418311911,1,0,0,1.1267,Pegmatite_rect,6,1.127,1,10,0,10,0,1,,,,,,,,,,,,,
6664215e9a4fc14231f523c6,TCN,2024-06-25_19h23.08.335,LearnStrategy,2023.2.3,MacIntel,126.5822785,6,1,12,0.186907117,0.007059199,1,0,0,0.7907,rock_grid_rect_2,5,10,-1,-1,0.791,-0.359769429,-0.408447059,1,0,0,0.8692,Obsidian_rect,5,0.869,1,11,0,11,0,1,,,,,,,,,,,,,
6664215e9a4fc14231f523c6,TCN,2024-06-25_19h23.08.335,LearnStrategy,2023.2.3,MacIntel,126.5822785,6,1,13,0.046335038,0.002201193,1,0,0,0.6158,rock_grid_rect_2,5,08,-1,-1,0.616,-0.478540432,-0.399144495,1,0,0,0.7778,Obsidian_rect,5,0.778,1,12,0,12,0,1,,,,,,,,,,,,,
6664215e9a4fc14231f523c6,TCN,2024-06-25_19h23.08.335,LearnStrategy,2023.2.3,MacIntel,126.5822785,6,1,14,0.03019819,0.011602985,1,0,0,0.5644,rock_grid_rect_2,4,01,-1,-1,0.564,-0.407936038,-0.260007078,1,0,0,1.1781,Andesite_rect,1,1.178,0,13,0,13,0,1,,,,,,,,,,,,,
6664215e9a4fc14231f523c6,TCN,2024-06-25_19h23.08.335,LearnStrategy,2023.2.3,MacIntel,126.5822785,6,1,15,0.094733178,-0.013910848,1,0,0,0.7195,rock_grid_rect_2,3,07,-1,-1,0.72,0.118948785,-0.243791675,1,0,0,1.5792,Diorite_rect,3,1.579,1,14,0,14,0,1,,,,,,,,,,,,,
6664215e9a4fc14231f523c6,TCN,2024-06-25_19h23.08.335,LearnStrategy,2023.2.3,MacIntel,126.5822785,6,1,16,-0.023955136,-0.022704871,1,0,0,0.7118,rock_grid_rect_2,3,12,-1,-1,0.712,0.138062454,-0.380051499,1,0,0,1.3458,Peridotite_rect,7,1.346,0,15,0,15,0,1,,,,,,,,,,,,,
6664215e9a4fc14231f523c6,TCN,2024-06-25_19h23.08.335,LearnStrategy,2023.2.3,MacIntel,126.5822785,6,2,1,,,,,,,,3,14,,,,,,,,,,,3,1.1,1,,,,,,0.079373611,-0.235803874,1,0,0,1.1004,Diorite_rect,0,0,0,0,1,
6664215e9a4fc14231f523c6,TCN,2024-06-25_19h23.08.335,LearnStrategy,2023.2.3,MacIntel,126.5822785,6,2,2,,,,,,,,4,13,,,,,,,,,,,4,0.784,1,,,,,,0.335632376,-0.259647379,1,0,0,0.784,Gabbro_rect,1,0,1,0,1,
6664215e9a4fc14231f523c6,TCN,2024-06-25_19h23.08.335,LearnStrategy,2023.2.3,MacIntel,126.5822785,6,2,3,,,,,,,,2,01,,,,,,,,,,,2,0.775,1,,,,,,-0.088213114,-0.257389957,1,0,0,0.7754,Basalt_rect,2,0,2,0,1,
6664215e9a4fc14231f523c6,TCN,2024-06-25_19h23.08.335,LearnStrategy,2023.2.3,MacIntel,126.5822785,6,2,4,,,,,,,,1,05,,,,,,,,,,,7,1.667,0,,,,,,0.111101556,-0.397031779,1,0,0,1.667,Peridotite_rect,3,0,3,0,1,
6664215e9a4fc14231f523c6,TCN,2024-06-25_19h23.08.335,LearnStrategy,2023.2.3,MacIntel,126.5822785,6,2,5,,,,,,,,8,13,,,,,,,,,,,8,1.363,1,,,,,,0.398430885,-0.378017338,1,0,0,1.3629,Pumice_rect,4,0,4,0,1,
6664215e9a4fc14231f523c6,TCN,2024-06-25_19h23.08.335,LearnStrategy,2023.2.3,MacIntel,126.5822785,6,2,6,,,,,,,,2,08,,,,,,,,,,,2,1.251,1,,,,,,-0.087621884,-0.255843664,1,0,0,1.2506,Basalt_rect,5,0,5,0,1,
6664215e9a4fc14231f523c6,TCN,2024-06-25_19h23.08.335,LearnStrategy,2023.2.3,MacIntel,126.5822785,6,2,7,,,,,,,,3,09,,,,,,,,,,,3,0.819,1,,,,,,0.095460845,-0.267953535,1,0,0,0.819,Diorite_rect,6,0,6,0,1,
6664215e9a4fc14231f523c6,TCN,2024-06-25_19h23.08.335,LearnStrategy,2023.2.3,MacIntel,126.5822785,6,2,8,,,,,,,,4,09,,,,,,,,,,,1,1.175,0,,,,,,-0.344939074,-0.235572343,1,0,0,1.175,Andesite_rect,7,0,7,0,1,
6664215e9a4fc14231f523c6,TCN,2024-06-25_19h23.08.335,LearnStrategy,2023.2.3,MacIntel,126.5822785,6,2,9,,,,,,,,6,08,,,,,,,,,,,6,1.21,1,,,,,,-0.114024628,-0.417385789,1,0,0,1.2095,Pegmatite_rect,8,0,8,0,1,
6664215e9a4fc14231f523c6,TCN,2024-06-25_19h23.08.335,LearnStrategy,2023.2.3,MacIntel,126.5822785,6,2,10,,,,,,,,1,03,,,,,,,,,,,1,0.997,1,,,,,,-0.336918197,-0.249282256,1,0,0,0.997,Andesite_rect,9,0,9,0,1,
6664215e9a4fc14231f523c6,TCN,2024-06-25_19h23.08.335,LearnStrategy,2023.2.3,MacIntel,126.5822785,6,2,11,,,,,,,,5,02,,,,,,,,,,,5,0.818,1,,,,,,-0.336756953,-0.41027863,1,0,0,0.8181,Obsidian_rect,10,0,10,0,1,
6664215e9a4fc14231f523c6,TCN,2024-06-25_19h23.08.335,LearnStrategy,2023.2.3,MacIntel,126.5822785,6,2,12,,,,,,,,7,16,,,,,,,,,,,7,1.06,1,,,,,,0.109476708,-0.418816317,1,0,0,1.0599,Peridotite_rect,11,0,11,0,1,
6664215e9a4fc14231f523c6,TCN,2024-06-25_19h23.08.335,LearnStrategy,2023.2.3,MacIntel,126.5822785,6,2,13,,,,,,,,6,05,,,,,,,,,,,6,0.916,1,,,,,,-0.243090469,-0.416071027,1,0,0,0.9161,Pegmatite_rect,12,0,12,0,1,
6664215e9a4fc14231f523c6,TCN,2024-06-25_19h23.08.335,LearnStrategy,2023.2.3,MacIntel,126.5822785,6,2,14,,,,,,,,7,12,,,,,,,,,,,1,1.452,0,,,,,,-0.411867922,-0.265985526,1,0,0,1.4521,Andesite_rect,13,0,13,0,1,
6664215e9a4fc14231f523c6,TCN,2024-06-25_19h23.08.335,LearnStrategy,2023.2.3,MacIntel,126.5822785,6,2,15,,,,,,,,8,03,,,,,,,,,,,8,1.175,1,,,,,,0.34536906,-0.378348096,1,0,0,1.175,Pumice_rect,14,0,14,0,1,
6664215e9a4fc14231f523c6,TCN,2024-06-25_19h23.08.335,LearnStrategy,2023.2.3,MacIntel,126.5822785,6,2,16,,,,,,,,5,04,,,,,,,,,,,5,0.83,1,,,,,,-0.369382078,-0.409120978,1,0,0,0.8297,Obsidian_rect,15,0,15,0,1,
6664215e9a4fc14231f523c6,TCN,2024-06-25_19h23.08.335,LearnStrategy,2023.2.3,MacIntel,126.5822785,7,1,1,-0.096490329,0.016791748,1,0,0,1.4822,rock_grid_rect_2,2,05,-1,-1,1.482,-0.162621223,-0.258708854,1,0,0,1.0099,Basalt_rect,2,1.01,1,0,0,0,0,1,,,,,,,,,,,,,
6664215e9a4fc14231f523c6,TCN,2024-06-25_19h23.08.335,LearnStrategy,2023.2.3,MacIntel,126.5822785,7,1,2,-0.132406495,0.002792423,1,0,0,0.8666,rock_grid_rect_2,6,03,-1,-1,0.867,-0.096308412,-0.417232814,1,0,0,1.0351,Pegmatite_rect,6,1.035,1,1,0,1,0,1,,,,,,,,,,,,,
6664215e9a4fc14231f523c6,TCN,2024-06-25_19h23.08.335,LearnStrategy,2023.2.3,MacIntel,126.5822785,7,1,3,-0.129681877,-0.001325512,1,0,0,0.6892,rock_grid_rect_2,8,09,-1,-1,0.689,0.41816059,-0.392330884,1,0,0,1.2283,Pumice_rect,8,1.228,1,2,0,2,0,1,,,,,,,,,,,,,
6664215e9a4fc14231f523c6,TCN,2024-06-25_19h23.08.335,LearnStrategy,2023.2.3,MacIntel,126.5822785,7,1,4,0.02698157,0.002523682,1,0,0,0.9313,rock_grid_rect_2,2,12,-1,-1,0.931,-0.349730929,-0.247339053,1,0,0,0.8627,Andesite_rect,1,0.863,0,3,0,3,0,1,,,,,,,,,,,,,
6664215e9a4fc14231f523c6,TCN,2024-06-25_19h23.08.335,LearnStrategy,2023.2.3,MacIntel,126.5822785,7,1,5,0.044230591,0.007195637,1,0,0,0.8246,rock_grid_rect_2,8,04,-1,-1,0.825,0.402929191,-0.399562077,1,0,0,1.5257,Pumice_rect,8,1.526,1,4,0,4,0,1,,,,,,,,,,,,,
6664215e9a4fc14231f523c6,TCN,2024-06-25_19h23.08.335,LearnStrategy,2023.2.3,MacIntel,126.5822785,7,1,6,-0.032207544,0.02030605,1,0,0,1.0137,rock_grid_rect_2,7,15,-1,-1,1.014,0.18374011,-0.388481689,1,0,0,0.9085,Peridotite_rect,7,0.909,1,5,0,5,0,1,,,,,,,,,,,,,
6664215e9a4fc14231f523c6,TCN,2024-06-25_19h23.08.335,LearnStrategy,2023.2.3,MacIntel,126.5822785,7,1,7,0.047550573,0.005235896,1,0,0,0.6242,rock_grid_rect_2,3,02,-1,-1,0.624,0.103130292,-0.245131245,1,0,0,1.0537,Diorite_rect,3,1.054,1,6,0,6,0,1,,,,,,,,,,,,,
6664215e9a4fc14231f523c6,TCN,2024-06-25_19h23.08.335,LearnStrategy,2023.2.3,MacIntel,126.5822785,7,1,8,0.029644171,0.011578178,1,0,0,0.9737,rock_grid_rect_2,6,12,-1,-1,0.974,-0.17401583,-0.409058961,1,0,0,0.9595,Pegmatite_rect,6,0.959,1,7,0,7,0,1,,,,,,,,,,,,,
6664215e9a4fc14231f523c6,TCN,2024-06-25_19h23.08.335,LearnStrategy,2023.2.3,MacIntel,126.5822785,7,1,9,0.156192117,0.005070518,1,0,0,0.9732,rock_grid_rect_2,5,08,-1,-1,0.973,-0.328612041,-0.38780777,1,0,0,0.9936,Obsidian_rect,5,0.994,1,8,0,8,0,1,,,,,,,,,,,,,
6664215e9a4fc14231f523c6,TCN,2024-06-25_19h23.08.335,LearnStrategy,2023.2.3,MacIntel,126.5822785,7,1,10,0.079319863,-0.003888885,1,0,0,0.792,rock_grid_rect_2,3,15,-1,-1,0.792,0.147133487,-0.261218479,1,0,0,1.0423,Diorite_rect,3,1.042,1,9,0,9,0,1,,,,,,,,,,,,,
6664215e9a4fc14231f523c6,TCN,2024-06-25_19h23.08.335,LearnStrategy,2023.2.3,MacIntel,126.5822785,7,1,11,0.148394501,0.014005114,1,0,0,0.6913,rock_grid_rect_2,5,12,-1,-1,0.691,-0.345340118,-0.389077053,1,0,0,0.7359,Obsidian_rect,5,0.736,1,10,0,10,0,1,,,,,,,,,,,,,
6664215e9a4fc14231f523c6,TCN,2024-06-25_19h23.08.335,LearnStrategy,2023.2.3,MacIntel,126.5822785,7,1,12,-0.024008884,-0.020658307,1,0,0,0.6565,rock_grid_rect_2,7,04,-1,-1,0.657,0.057527056,-0.407665644,1,0,0,0.7686,Peridotite_rect,7,0.769,1,11,0,11,0,1,,,,,,,,,,,,,
6664215e9a4fc14231f523c6,TCN,2024-06-25_19h23.08.335,LearnStrategy,2023.2.3,MacIntel,126.5822785,7,1,13,0.126907646,-0.01267464,1,0,0,0.7819,rock_grid_rect_2,4,01,-1,-1,0.782,0.055430878,-0.26355859,1,0,0,0.928,Diorite_rect,3,0.928,0,12,0,12,0,1,,,,,,,,,,,,,
6664215e9a4fc14231f523c6,TCN,2024-06-25_19h23.08.335,LearnStrategy,2023.2.3,MacIntel,126.5822785,7,1,14,0.083007813,-0.022799964,1,0,0,0.7718,rock_grid_rect_2,1,14,-1,-1,0.772,-0.358533221,-0.263703297,1,0,0,1.783,Andesite_rect,1,1.783,1,13,0,13,0,1,,,,,,,,,,,,,
6664215e9a4fc14231f523c6,TCN,2024-06-25_19h23.08.335,LearnStrategy,2023.2.3,MacIntel,126.5822785,7,1,15,0.089172312,-0.022022683,1,0,0,0.6598,rock_grid_rect_2,1,01,-1,-1,0.66,-0.132158426,-0.254346985,1,0,0,0.8751,Basalt_rect,2,0.875,0,14,0,14,0,1,,,,,,,,,,,,,
6664215e9a4fc14231f523c6,TCN,2024-06-25_19h23.08.335,LearnStrategy,2023.2.3,MacIntel,126.5822785,7,1,16,-0.056332193,-0.010317991,1,0,0,0.6412,rock_grid_rect_2,4,14,-1,-1,0.641,0.290488066,-0.266862034,1,0,0,1.162,Gabbro_rect,4,1.162,1,15,0,15,0,1,,,,,,,,,,,,,
6664215e9a4fc14231f523c6,TCN,2024-06-25_19h23.08.335,LearnStrategy,2023.2.3,MacIntel,126.5822785,7,2,1,,,,,,,,7,12,,,,,,,,,,,7,1.21,1,,,,,,0.111283473,-0.389974234,1,0,0,1.21,Peridotite_rect,0,0,0,0,1,
6664215e9a4fc14231f523c6,TCN,2024-06-25_19h23.08.335,LearnStrategy,2023.2.3,MacIntel,126.5822785,7,2,2,,,,,,,,2,16,,,,,,,,,,,2,0.674,1,,,,,,-0.100839794,-0.24689253,1,0,0,0.674,Basalt_rect,1,0,1,0,1,
6664215e9a4fc14231f523c6,TCN,2024-06-25_19h23.08.335,LearnStrategy,2023.2.3,MacIntel,126.5822785,7,2,3,,,,,,,,6,16,,,,,,,,,,,6,1.208,1,,,,,,-0.204937553,-0.381279437,1,0,0,1.2079,Pegmatite_rect,2,0,2,0,1,
6664215e9a4fc14231f523c6,TCN,2024-06-25_19h23.08.335,LearnStrategy,2023.2.3,MacIntel,126.5822785,7,2,4,,,,,,,,5,05,,,,,,,,,,,5,0.901,1,,,,,,-0.381855783,-0.421937844,1,0,0,0.9014,Obsidian_rect,3,0,3,0,1,
6664215e9a4fc14231f523c6,TCN,2024-06-25_19h23.08.335,LearnStrategy,2023.2.3,MacIntel,126.5822785,7,2,5,,,,,,,,5,02,,,,,,,,,,,5,0.841,1,,,,,,-0.482464047,-0.411035239,1,0,0,0.8412,Obsidian_rect,4,0,4,0,1,
6664215e9a4fc14231f523c6,TCN,2024-06-25_19h23.08.335,LearnStrategy,2023.2.3,MacIntel,126.5822785,7,2,6,,,,,,,,1,03,,,,,,,,,,,1,0.893,1,,,,,,-0.417284081,-0.243196311,1,0,0,0.893,Andesite_rect,5,0,5,0,1,
6664215e9a4fc14231f523c6,TCN,2024-06-25_19h23.08.335,LearnStrategy,2023.2.3,MacIntel,126.5822785,7,2,7,,,,,,,,2,06,,,,,,,,,,,2,1.142,1,,,,,,-0.141754538,-0.234166623,1,0,0,1.1416,Basalt_rect,6,0,6,0,1,
6664215e9a4fc14231f523c6,TCN,2024-06-25_19h23.08.335,LearnStrategy,2023.2.3,MacIntel,126.5822785,7,2,8,,,,,,,,3,10,,,,,,,,,,,3,1.82,1,,,,,,0.141299746,-0.25619096,1,0,0,1.8203,Diorite_rect,7,0,7,0,1,
6664215e9a4fc14231f523c6,TCN,2024-06-25_19h23.08.335,LearnStrategy,2023.2.3,MacIntel,126.5822785,7,2,9,,,,,,,,4,10,,,,,,,,,,,1,1.157,0,,,,,,-0.333594081,-0.238334171,1,0,0,1.1567,Andesite_rect,8,0,8,0,1,
6664215e9a4fc14231f523c6,TCN,2024-06-25_19h23.08.335,LearnStrategy,2023.2.3,MacIntel,126.5822785,7,2,10,,,,,,,,8,13,,,,,,,,,,,8,1.525,1,,,,,,0.464284769,-0.421197773,1,0,0,1.5249,Pumice_rect,9,0,9,0,1,
6664215e9a4fc14231f523c6,TCN,2024-06-25_19h23.08.335,LearnStrategy,2023.2.3,MacIntel,126.5822785,7,2,11,,,,,,,,4,09,,,,,,,,,,,1,1.295,0,,,,,,-0.367339649,-0.268639858,1,0,0,1.2949,Andesite_rect,10,0,10,0,1,
6664215e9a4fc14231f523c6,TCN,2024-06-25_19h23.08.335,LearnStrategy,2023.2.3,MacIntel,126.5822785,7,2,12,,,,,,,,8,15,,,,,,,,,,,8,1.153,1,,,,,,0.325436766,-0.394695802,1,0,0,1.1527,Pumice_rect,11,0,11,0,1,
6664215e9a4fc14231f523c6,TCN,2024-06-25_19h23.08.335,LearnStrategy,2023.2.3,MacIntel,126.5822785,7,2,13,,,,,,,,7,02,,,,,,,,,,,7,0.97,1,,,,,,0.075652585,-0.394745416,1,0,0,0.9703,Peridotite_rect,12,0,12,0,1,
6664215e9a4fc14231f523c6,TCN,2024-06-25_19h23.08.335,LearnStrategy,2023.2.3,MacIntel,126.5822785,7,2,14,,,,,,,,6,08,,,,,,,,,,,6,1.25,1,,,,,,-0.095427769,-0.402667066,1,0,0,1.2498,Pegmatite_rect,13,0,13,0,1,
6664215e9a4fc14231f523c6,TCN,2024-06-25_19h23.08.335,LearnStrategy,2023.2.3,MacIntel,126.5822785,7,2,15,,,,,,,,1,09,,,,,,,,,,,1,1.691,1,,,,,,-0.366190265,-0.239603454,1,0,0,1.6905,Andesite_rect,14,0,14,0,1,
6664215e9a4fc14231f523c6,TCN,2024-06-25_19h23.08.335,LearnStrategy,2023.2.3,MacIntel,126.5822785,7,2,16,,,,,,,,3,11,,,,,,,,,,,3,1.187,1,,,,,,0.058246454,-0.26171875,1,0,0,1.1872,Diorite_rect,15,0,15,0,1,
6664215e9a4fc14231f523c6,TCN,2024-06-25_19h23.08.335,LearnStrategy,2023.2.3,MacIntel,126.5822785,8,1,1,0.019171551,0.00619096,1,0,0,0.9985,rock_grid_rect_2,7,07,-1,-1,0.998,0.080758659,-0.406499722,1,0,0,2.6329,Peridotite_rect,7,2.633,1,0,0,0,0,1,,,,,,,,,,,,,
6664215e9a4fc14231f523c6,TCN,2024-06-25_19h23.08.335,LearnStrategy,2023.2.3,MacIntel,126.5822785,8,1,2,0.080093009,-0.002276441,1,0,0,0.9241,rock_grid_rect_2,2,04,-1,-1,0.924,-0.224109104,-0.246946278,1,0,0,0.7525,Basalt_rect,2,0.752,1,1,0,1,0,1,,,,,,,,,,,,,
6664215e9a4fc14231f523c6,TCN,2024-06-25_19h23.08.335,LearnStrategy,2023.2.3,MacIntel,126.5822785,8,1,3,0.009860718,0.016828959,1,0,0,1.0573,rock_grid_rect_2,6,06,-1,-1,1.057,-0.08487246,-0.378137238,1,0,0,1.0279,Pegmatite_rect,6,1.028,1,2,0,2,0,1,,,,,,,,,,,,,
6664215e9a4fc14231f523c6,TCN,2024-06-25_19h23.08.335,LearnStrategy,2023.2.3,MacIntel,126.5822785,8,1,4,-0.047538169,0.000907103,1,0,0,0.6144,rock_grid_rect_2,3,06,-1,-1,0.614,0.150383183,-0.258109355,1,0,0,2.2448,Diorite_rect,3,2.245,1,3,0,3,0,1,,,,,,,,,,,,,
6664215e9a4fc14231f523c6,TCN,2024-06-25_19h23.08.335,LearnStrategy,2023.2.3,MacIntel,126.5822785,8,1,5,0.098094504,-0.000998889,1,0,0,0.6053,rock_grid_rect_2,1,06,-1,-1,0.605,-0.450144872,-0.23407153,1,0,0,1.4516,Andesite_rect,1,1.452,1,4,0,4,0,1,,,,,,,,,,,,,
6664215e9a4fc14231f523c6,TCN,2024-06-25_19h23.08.335,LearnStrategy,2023.2.3,MacIntel,126.5822785,8,1,6,-0.025828052,-0.008589781,1,0,0,0.7976,rock_grid_rect_2,1,02,-1,-1,0.798,0.081891505,-0.382896016,1,0,0,1.7515,Peridotite_rect,7,1.751,0,5,0,5,0,1,,,,,,,,,,,,,
6664215e9a4fc14231f523c6,TCN,2024-06-25_19h23.08.335,LearnStrategy,2023.2.3,MacIntel,126.5822785,8,1,7,0.044160305,-0.001255226,1,0,0,0.6976,rock_grid_rect_2,4,12,-1,-1,0.698,-0.177844352,-0.243378228,1,0,0,1.6128,Basalt_rect,2,1.613,0,6,0,6,0,1,,,,,,,,,,,,,
6664215e9a4fc14231f523c6,TCN,2024-06-25_19h23.08.335,LearnStrategy,2023.2.3,MacIntel,126.5822785,8,1,8,-0.032290233,-0.012935112,1,0,0,0.8066,rock_grid_rect_2,6,09,-1,-1,0.807,-0.10346105,-0.410807843,1,0,0,1.1354,Pegmatite_rect,6,1.135,1,7,0,7,0,1,,,,,,,,,,,,,
6664215e9a4fc14231f523c6,TCN,2024-06-25_19h23.08.335,LearnStrategy,2023.2.3,MacIntel,126.5822785,8,1,9,0.036333748,-0.007961341,1,0,0,0.6339,rock_grid_rect_2,8,02,-1,-1,0.634,0.414286588,-0.415876707,1,0,0,1.0248,Pumice_rect,8,1.025,1,8,0,8,0,1,,,,,,,,,,,,,
6664215e9a4fc14231f523c6,TCN,2024-06-25_19h23.08.335,LearnStrategy,2023.2.3,MacIntel,126.5822785,8,1,10,0.148121626,0.001676115,1,0,0,0.6561,rock_grid_rect_2,2,14,-1,-1,0.656,0.383501303,-0.238234944,1,0,0,1.2843,Gabbro_rect,4,1.284,0,9,0,9,0,1,,,,,,,,,,,,,
6664215e9a4fc14231f523c6,TCN,2024-06-25_19h23.08.335,LearnStrategy,2023.2.3,MacIntel,126.5822785,8,1,11,0.023938598,0.016365898,1,0,0,0.5073,rock_grid_rect_2,5,06,-1,-1,0.507,-0.370791933,-0.402724948,1,0,0,0.984,Obsidian_rect,5,0.984,1,10,0,10,0,1,,,,,,,,,,,,,
6664215e9a4fc14231f523c6,TCN,2024-06-25_19h23.08.335,LearnStrategy,2023.2.3,MacIntel,126.5822785,8,1,12,0.018051109,-0.018227237,1,0,0,1.0768,rock_grid_rect_2,5,16,-1,-1,1.077,-0.413802855,-0.381138865,1,0,0,1.2129,Obsidian_rect,5,1.213,1,11,0,11,0,1,,,,,,,,,,,,,
6664215e9a4fc14231f523c6,TCN,2024-06-25_19h23.08.335,LearnStrategy,2023.2.3,MacIntel,126.5822785,8,1,13,0.002724618,0.018532361,1,0,0,0.9195,rock_grid_rect_2,8,10,-1,-1,0.919,0.338394204,-0.402084105,1,0,0,4.1342,Pumice_rect,8,4.134,1,12,0,12,0,1,,,,,,,,,,,,,
6664215e9a4fc14231f523c6,TCN,2024-06-25_19h23.08.335,LearnStrategy,2023.2.3,MacIntel,126.5822785,8,1,14,0.118890903,0.009027208,1,0,0,0.7535,rock_grid_rect_2,7,14,-1,-1,0.754,0.153343466,-0.418572383,1,0,0,1.1717,Peridotite_rect,7,1.172,1,13,0,13,0,1,,,,,,,,,,,,,
6664215e9a4fc14231f523c6,TCN,2024-06-25_19h23.08.335,LearnStrategy,2023.2.3,MacIntel,126.5822785,8,1,15,0.1086002,-0.024424812,1,0,0,0.7909,rock_grid_rect_2,3,08,-1,-1,0.791,0.16660272,-0.252957802,1,0,0,1.3949,Diorite_rect,3,1.395,1,14,0,14,0,1,,,,,,,,,,,,,
6664215e9a4fc14231f523c6,TCN,2024-06-25_19h23.08.335,LearnStrategy,2023.2.3,MacIntel,126.5822785,8,1,16,0.057465039,-0.022709006,1,0,0,0.8216,rock_grid_rect_2,4,05,-1,-1,0.822,0.047902003,-0.416678794,1,0,0,1.4781,Peridotite_rect,7,1.478,0,15,0,15,0,1,,,,,,,,,,,,,
6664215e9a4fc14231f523c6,TCN,2024-06-25_19h23.08.335,LearnStrategy,2023.2.3,MacIntel,126.5822785,8,2,1,,,,,,,,6,05,,,,,,,,,,,6,0.999,1,,,,,,-0.108538183,-0.410596985,1,0,0,0.9988,Pegmatite_rect,0,0,0,0,1,
6664215e9a4fc14231f523c6,TCN,2024-06-25_19h23.08.335,LearnStrategy,2023.2.3,MacIntel,126.5822785,8,2,2,,,,,,,,6,11,,,,,,,,,,,6,1.253,1,,,,,,-0.152334654,-0.398875754,1,0,0,1.2528,Pegmatite_rect,1,0,1,0,1,
6664215e9a4fc14231f523c6,TCN,2024-06-25_19h23.08.335,LearnStrategy,2023.2.3,MacIntel,126.5822785,8,2,3,,,,,,,,5,14,,,,,,,,,,,5,0.957,1,,,,,,-0.338662945,-0.390304992,1,0,0,0.9572,Obsidian_rect,2,0,2,0,1,
6664215e9a4fc14231f523c6,TCN,2024-06-25_19h23.08.335,LearnStrategy,2023.2.3,MacIntel,126.5822785,8,2,4,,,,,,,,3,14,,,,,,,,,,,3,2.316,1,,,,,,0.126539678,-0.267796425,1,0,0,2.3161,Diorite_rect,3,0,3,0,1,
6664215e9a4fc14231f523c6,TCN,2024-06-25_19h23.08.335,LearnStrategy,2023.2.3,MacIntel,126.5822785,8,2,5,,,,,,,,2,09,,,,,,,,,,,2,1.758,1,,,,,,-0.217762688,-0.257456108,1,0,0,1.7584,Basalt_rect,4,0,4,0,1,
6664215e9a4fc14231f523c6,TCN,2024-06-25_19h23.08.335,LearnStrategy,2023.2.3,MacIntel,126.5822785,8,2,6,,,,,,,,3,13,,,,,,,,,,,3,0.717,1,,,,,,0.17460706,-0.268718413,1,0,0,0.7167,Diorite_rect,5,0,5,0,1,
6664215e9a4fc14231f523c6,TCN,2024-06-25_19h23.08.335,LearnStrategy,2023.2.3,MacIntel,126.5822785,8,2,7,,,,,,,,1,04,,,,,,,,,,,7,0.982,0,,,,,,0.129371792,-0.392934517,1,0,0,0.9825,Peridotite_rect,6,0,6,0,1,
6664215e9a4fc14231f523c6,TCN,2024-06-25_19h23.08.335,LearnStrategy,2023.2.3,MacIntel,126.5822785,8,2,8,,,,,,,,2,08,,,,,,,,,,,2,0.801,1,,,,,,-0.17793531,-0.25007194,1,0,0,0.8014,Basalt_rect,7,0,7,0,1,
6664215e9a4fc14231f523c6,TCN,2024-06-25_19h23.08.335,LearnStrategy,2023.2.3,MacIntel,126.5822785,8,2,9,,,,,,,,4,13,,,,,,,,,,,4,1.648,1,,,,,,0.399873816,-0.265993795,1,0,0,1.6478,Gabbro_rect,8,0,8,0,1,
6664215e9a4fc14231f523c6,TCN,2024-06-25_19h23.08.335,LearnStrategy,2023.2.3,MacIntel,126.5822785,8,2,10,,,,,,,,8,08,,,,,,,,,,,8,2.293,1,,,,,,0.362795863,-0.406342612,1,0,0,2.2926,Pumice_rect,9,0,9,0,1,
6664215e9a4fc14231f523c6,TCN,2024-06-25_19h23.08.335,LearnStrategy,2023.2.3,MacIntel,126.5822785,8,2,11,,,,,,,,7,16,,,,,,,,,,,7,0.958,1,,,,,,0.17688102,-0.419494371,1,0,0,0.9579,Peridotite_rect,10,0,10,0,1,
6664215e9a4fc14231f523c6,TCN,2024-06-25_19h23.08.335,LearnStrategy,2023.2.3,MacIntel,126.5822785,8,2,12,,,,,,,,1,05,,,,,,,,,,,7,1.8,0,,,,,,0.169500986,-0.382941496,1,0,0,1.8003,Peridotite_rect,11,0,11,0,1,
6664215e9a4fc14231f523c6,TCN,2024-06-25_19h23.08.335,LearnStrategy,2023.2.3,MacIntel,126.5822785,8,2,13,,,,,,,,4,15,,,,,,,,,,,4,1.377,1,,,,,,0.405612464,-0.240500635,1,0,0,1.3768,Gabbro_rect,12,0,12,0,1,
6664215e9a4fc14231f523c6,TCN,2024-06-25_19h23.08.335,LearnStrategy,2023.2.3,MacIntel,126.5822785,8,2,14,,,,,,,,8,16,,,,,,,,,,,4,1.142,0,,,,,,0.369940232,-0.234584204,1,0,0,1.1423,Gabbro_rect,13,0,13,0,1,
6664215e9a4fc14231f523c6,TCN,2024-06-25_19h23.08.335,LearnStrategy,2023.2.3,MacIntel,126.5822785,8,2,15,,,,,,,,5,09,,,,,,,,,,,5,0.885,1,,,,,,-0.316088722,-0.404449024,1,0,0,0.8855,Obsidian_rect,14,0,14,0,1,
6664215e9a4fc14231f523c6,TCN,2024-06-25_19h23.08.335,LearnStrategy,2023.2.3,MacIntel,126.5822785,8,2,16,,,,,,,,7,08,,,,,,,,,,,7,1.224,1,,,,,,0.124240911,-0.38941608,1,0,0,1.2241,Peridotite_rect,15,0,15,0,1,
6664215e9a4fc14231f523c6,TCN,2024-06-25_19h23.08.335,LearnStrategy,2023.2.3,MacIntel,126.5822785,9,1,1,0.015942528,-0.000188532,1,0,0,0.7958,rock_grid_rect_2,7,05,-1,-1,0.796,0.08714642,-0.380547636,1,0,0,1.8019,Peridotite_rect,7,1.802,1,0,0,0,0,1,,,,,,,,,,,,,
6664215e9a4fc14231f523c6,TCN,2024-06-25_19h23.08.335,LearnStrategy,2023.2.3,MacIntel,126.5822785,9,1,2,0.10408949,-0.020323415,1,0,0,0.7637,rock_grid_rect_2,3,12,-1,-1,0.764,0.182421213,-0.258158969,1,0,0,6.4941,Diorite_rect,3,6.494,1,1,0,1,0,1,,,,,,,,,,,,,
6664215e9a4fc14231f523c6,TCN,2024-06-25_19h23.08.335,LearnStrategy,2023.2.3,MacIntel,126.5822785,9,1,3,0.058792205,-0.005666709,1,0,0,0.8721,rock_grid_rect_2,4,16,-1,-1,0.872,0.182102859,-0.245267682,1,0,0,1.5435,Diorite_rect,3,1.543,0,2,0,2,0,1,,,,,,,,,,,,,
6664215e9a4fc14231f523c6,TCN,2024-06-25_19h23.08.335,LearnStrategy,2023.2.3,MacIntel,126.5822785,9,1,4,0.118646969,-0.001623194,1,0,0,1.5727,rock_grid_rect_2,8,14,-1,-1,1.573,0.341978792,-0.379600841,1,0,0,0.9444,Pumice_rect,8,0.944,1,3,0,3,0,1,,,,,,,,,,,,,
6664215e9a4fc14231f523c6,TCN,2024-06-25_19h23.08.335,LearnStrategy,2023.2.3,MacIntel,126.5822785,9,1,5,0.045429588,-0.020889838,1,0,0,0.8155,rock_grid_rect_2,3,07,-1,-1,0.816,0.136557506,-0.263699163,1,0,0,0.9453,Diorite_rect,3,0.945,1,4,0,4,0,1,,,,,,,,,,,,,
6664215e9a4fc14231f523c6,TCN,2024-06-25_19h23.08.335,LearnStrategy,2023.2.3,MacIntel,126.5822785,9,1,6,0.19742935,-0.005050672,1,0,0,0.8053,rock_grid_rect_2,1,11,-1,-1,0.805,-0.338873803,-0.23716825,1,0,0,0.8133,Andesite_rect,1,0.813,1,5,0,5,0,1,,,,,,,,,,,,,
6664215e9a4fc14231f523c6,TCN,2024-06-25_19h23.08.335,LearnStrategy,2023.2.3,MacIntel,126.5822785,9,1,7,0.03016098,0.001428047,1,0,0,0.7648,rock_grid_rect_2,7,13,-1,-1,0.765,0.117026256,-0.396589391,1,0,0,1.0281,Peridotite_rect,7,1.028,1,6,0,6,0,1,,,,,,,,,,,,,
6664215e9a4fc14231f523c6,TCN,2024-06-25_19h23.08.335,LearnStrategy,2023.2.3,MacIntel,126.5822785,9,1,8,0.041175216,-0.000577172,1,0,0,0.7904,rock_grid_rect_2,6,13,-1,-1,0.79,-0.099281098,-0.400678384,1,0,0,1.52,Pegmatite_rect,6,1.52,1,7,0,7,0,1,,,,,,,,,,,,,
6664215e9a4fc14231f523c6,TCN,2024-06-25_19h23.08.335,LearnStrategy,2023.2.3,MacIntel,126.5822785,9,1,9,0.101025845,0.003040491,1,0,0,0.6621,rock_grid_rect_2,5,10,-1,-1,0.662,-0.350098897,-0.396531508,1,0,0,0.9332,Obsidian_rect,5,0.933,1,8,0,8,0,1,,,,,,,,,,,,,
6664215e9a4fc14231f523c6,TCN,2024-06-25_19h23.08.335,LearnStrategy,2023.2.3,MacIntel,126.5822785,9,1,10,0.068545426,-0.009846661,1,0,0,0.7388,rock_grid_rect_2,8,05,-1,-1,0.739,0.370837413,-0.408992809,1,0,0,1.2032,Pumice_rect,8,1.203,1,9,0,9,0,1,,,,,,,,,,,,,
6664215e9a4fc14231f523c6,TCN,2024-06-25_19h23.08.335,LearnStrategy,2023.2.3,MacIntel,126.5822785,9,1,11,0.065324672,0.004764567,1,0,0,0.5632,rock_grid_rect_2,4,11,-1,-1,0.563,-0.313116036,-0.264823739,1,0,0,1.2138,Andesite_rect,1,1.214,0,10,0,10,0,1,,,,,,,,,,,,,
6664215e9a4fc14231f523c6,TCN,2024-06-25_19h23.08.335,LearnStrategy,2023.2.3,MacIntel,126.5822785,9,1,12,0.017228349,-0.01475428,1,0,0,1.1326,rock_grid_rect_2,2,10,-1,-1,1.133,-0.102787131,-0.248265175,1,0,0,0.6871,Basalt_rect,2,0.687,1,11,0,11,0,1,,,,,,,,,,,,,
6664215e9a4fc14231f523c6,TCN,2024-06-25_19h23.08.335,LearnStrategy,2023.2.3,MacIntel,126.5822785,9,1,13,-0.061988152,-0.006646579,1,0,0,0.6726,rock_grid_rect_2,1,16,-1,-1,0.673,-0.382161734,-0.24951792,1,0,0,1.3128,Andesite_rect,1,1.313,1,12,0,12,0,1,,,,,,,,,,,,,
6664215e9a4fc14231f523c6,TCN,2024-06-25_19h23.08.335,LearnStrategy,2023.2.3,MacIntel,126.5822785,9,1,14,0.048207954,0.014261451,1,0,0,1.1134,rock_grid_rect_2,2,02,-1,-1,1.113,-0.144218684,-0.238735215,1,0,0,0.7749,Basalt_rect,2,0.775,1,13,0,13,0,1,,,,,,,,,,,,,
6664215e9a4fc14231f523c6,TCN,2024-06-25_19h23.08.335,LearnStrategy,2023.2.3,MacIntel,126.5822785,9,1,15,-0.022222792,0.014993253,1,0,0,0.6559,rock_grid_rect_2,5,07,-1,-1,0.656,-0.389231683,-0.404684689,1,0,0,1.0553,Obsidian_rect,5,1.055,1,14,0,14,0,1,,,,,,,,,,,,,
6664215e9a4fc14231f523c6,TCN,2024-06-25_19h23.08.335,LearnStrategy,2023.2.3,MacIntel,126.5822785,9,1,16,-0.002997493,0.00152314,1,0,0,0.9586,rock_grid_rect_2,6,07,-1,-1,0.959,-0.182900812,-0.391834747,1,0,0,1.0773,Pegmatite_rect,6,1.077,1,15,0,15,0,1,,,,,,,,,,,,,
6664215e9a4fc14231f523c6,TCN,2024-06-25_19h23.08.335,LearnStrategy,2023.2.3,MacIntel,126.5822785,9,2,1,,,,,,,,8,03,,,,,,,,,,,8,0.909,1,,,,,,0.415791537,-0.409505484,1,0,0,0.909,Pumice_rect,0,0,0,0,1,
6664215e9a4fc14231f523c6,TCN,2024-06-25_19h23.08.335,LearnStrategy,2023.2.3,MacIntel,126.5822785,9,2,2,,,,,,,,1,07,,,,,,,,,,,3,0.846,0,,,,,,0.09800768,-0.241906356,1,0,0,0.8459,Diorite_rect,1,0,1,0,1,
6664215e9a4fc14231f523c6,TCN,2024-06-25_19h23.08.335,LearnStrategy,2023.2.3,MacIntel,126.5822785,9,2,3,,,,,,,,7,10,,,,,,,,,,,1,0.892,0,,,,,,-0.417399847,-0.255289645,1,0,0,0.8916,Andesite_rect,2,0,2,0,1,
6664215e9a4fc14231f523c6,TCN,2024-06-25_19h23.08.335,LearnStrategy,2023.2.3,MacIntel,126.5822785,9,2,4,,,,,,,,5,04,,,,,,,,,,,5,1.019,1,,,,,,-0.365127706,-0.415049812,1,0,0,1.0195,Obsidian_rect,3,0,3,0,1,
6664215e9a4fc14231f523c6,TCN,2024-06-25_19h23.08.335,LearnStrategy,2023.2.3,MacIntel,126.5822785,9,2,5,,,,,,,,2,11,,,,,,,,,,,1,0.976,0,,,,,,-0.388057492,-0.250572211,1,0,0,0.9763,Andesite_rect,4,0,4,0,1,
6664215e9a4fc14231f523c6,TCN,2024-06-25_19h23.08.335,LearnStrategy,2023.2.3,MacIntel,126.5822785,9,2,6,,,,,,,,6,10,,,,,,,,,,,6,0.925,1,,,,,,-0.09345976,-0.391611485,1,0,0,0.9254,Pegmatite_rect,5,0,5,0,1,
6664215e9a4fc14231f523c6,TCN,2024-06-25_19h23.08.335,LearnStrategy,2023.2.3,MacIntel,126.5822785,9,2,7,,,,,,,,3,16,,,,,,,,,,,3,0.726,1,,,,,,0.121127653,-0.244965866,1,0,0,0.7255,Diorite_rect,6,0,6,0,1,
6664215e9a4fc14231f523c6,TCN,2024-06-25_19h23.08.335,LearnStrategy,2023.2.3,MacIntel,126.5822785,9,2,8,,,,,,,,3,09,,,,,,,,,,,3,1.12,1,,,,,,0.120176724,-0.259151242,1,0,0,1.1197,Diorite_rect,7,0,7,0,1,
6664215e9a4fc14231f523c6,TCN,2024-06-25_19h23.08.335,LearnStrategy,2023.2.3,MacIntel,126.5822785,9,2,9,,,,,,,,2,01,,,,,,,,,,,2,1.308,1,,,,,,-0.115587459,-0.239863926,1,0,0,1.3083,Basalt_rect,8,0,8,0,1,
6664215e9a4fc14231f523c6,TCN,2024-06-25_19h23.08.335,LearnStrategy,2023.2.3,MacIntel,126.5822785,9,2,10,,,,,,,,5,11,,,,,,,,,,,5,0.792,1,,,,,,-0.380627845,-0.406445974,1,0,0,0.7919,Obsidian_rect,9,0,9,0,1,
6664215e9a4fc14231f523c6,TCN,2024-06-25_19h23.08.335,LearnStrategy,2023.2.3,MacIntel,126.5822785,9,2,11,,,,,,,,8,06,,,,,,,,,,,8,0.968,1,,,,,,0.364830024,-0.421545069,1,0,0,0.9675,Pumice_rect,10,0,10,0,1,
6664215e9a4fc14231f523c6,TCN,2024-06-25_19h23.08.335,LearnStrategy,2023.2.3,MacIntel,126.5822785,9,2,12,,,,,,,,4,03,,,,,,,,,,,1,2.109,0,,,,,,-0.3385017,-0.253267887,1,0,0,2.1091,Andesite_rect,11,0,11,0,1,
6664215e9a4fc14231f523c6,TCN,2024-06-25_19h23.08.335,LearnStrategy,2023.2.3,MacIntel,126.5822785,9,2,13,,,,,,,,4,08,,,,,,,,,,,1,1.042,0,,,,,,-0.366235744,-0.268635723,1,0,0,1.0422,Andesite_rect,12,0,12,0,1,
6664215e9a4fc14231f523c6,TCN,2024-06-25_19h23.08.335,LearnStrategy,2023.2.3,MacIntel,126.5822785,9,2,14,,,,,,,,1,10,,,,,,,,,,,1,0.988,1,,,,,,-0.35281938,-0.258353289,1,0,0,0.9884,Andesite_rect,13,0,13,0,1,
6664215e9a4fc14231f523c6,TCN,2024-06-25_19h23.08.335,LearnStrategy,2023.2.3,MacIntel,126.5822785,9,2,15,,,,,,,,7,06,,,,,,,,,,,7,0.876,1,,,,,,0.119519343,-0.41431801,1,0,0,0.8761,Peridotite_rect,14,0,14,0,1,
6664215e9a4fc14231f523c6,TCN,2024-06-25_19h23.08.335,LearnStrategy,2023.2.3,MacIntel,126.5822785,9,2,16,,,,,,,,6,15,,,,,,,,,,,6,0.82,1,,,,,,-0.146236307,-0.39659766,1,0,0,0.8202,Pegmatite_rect,15,0,15,0,1,
6664215e9a4fc14231f523c6,TCN,2024-06-25_19h23.08.335,LearnStrategy,2023.2.3,MacIntel,126.5822785,,,,,,,,,,,,,,,,,,,,,,,,,,,,,,,,,,,,,,,,,,,1
6664215e9a4fc14231f523c6,TCN,2024-06-25_19h23.08.335,LearnStrategy,2023.2.3,MacIntel,126.5822785,,,,,,,,,,,,,,,,,,,,,,,,,,,,,,,,,,,,,,,,,,,
6664215e9a4fc14231f523c6,TCN,2024-06-25_19h23.08.335,LearnStrategy,2023.2.3,MacIntel,126.5822785,,,,,,,,,,,8,04,1,1,,,,,,,,,,,,,,,,,,,,,,,,,,,,,
6664215e9a4fc14231f523c6,TCN,2024-06-25_19h23.08.335,LearnStrategy,2023.2.3,MacIntel,126.5822785,,,,,,,,,,,3,08,1,2,,,,,,,,,,,,,,,,,,,,,,,,,,,,,
6664215e9a4fc14231f523c6,TCN,2024-06-25_19h23.08.335,LearnStrategy,2023.2.3,MacIntel,126.5822785,,,,,,,,,,,3,06,1,3,,,,,,,,,,,,,,,,,,,,,,,,,,,,,
6664215e9a4fc14231f523c6,TCN,2024-06-25_19h23.08.335,LearnStrategy,2023.2.3,MacIntel,126.5822785,,,,,,,,,,,6,13,1,4,,,,,,,,,,,,,,,,,,,,,,,,,,,,,
6664215e9a4fc14231f523c6,TCN,2024-06-25_19h23.08.335,LearnStrategy,2023.2.3,MacIntel,126.5822785,,,,,,,,,,,2,12,1,5,,,,,,,,,,,,,,,,,,,,,,,,,,,,,
6664215e9a4fc14231f523c6,TCN,2024-06-25_19h23.08.335,LearnStrategy,2023.2.3,MacIntel,126.5822785,,,,,,,,,,,1,06,1,6,,,,,,,,,,,,,,,,,,,,,,,,,,,,,
6664215e9a4fc14231f523c6,TCN,2024-06-25_19h23.08.335,LearnStrategy,2023.2.3,MacIntel,126.5822785,,,,,,,,,,,3,02,1,7,,,,,,,,,,,,,,,,,,,,,,,,,,,,,
6664215e9a4fc14231f523c6,TCN,2024-06-25_19h23.08.335,LearnStrategy,2023.2.3,MacIntel,126.5822785,,,,,,,,,,,8,02,1,8,,,,,,,,,,,,,,,,,,,,,,,,,,,,,
6664215e9a4fc14231f523c6,TCN,2024-06-25_19h23.08.335,LearnStrategy,2023.2.3,MacIntel,126.5822785,,,,,,,,,,,8,09,2,1,,,,,,,,,,,,,,,,,,,,,,,,,,,,,
6664215e9a4fc14231f523c6,TCN,2024-06-25_19h23.08.335,LearnStrategy,2023.2.3,MacIntel,126.5822785,,,,,,,,,,,3,15,2,2,,,,,,,,,,,,,,,,,,,,,,,,,,,,,
6664215e9a4fc14231f523c6,TCN,2024-06-25_19h23.08.335,LearnStrategy,2023.2.3,MacIntel,126.5822785,,,,,,,,,,,6,07,2,3,,,,,,,,,,,,,,,,,,,,,,,,,,,,,
6664215e9a4fc14231f523c6,TCN,2024-06-25_19h23.08.335,LearnStrategy,2023.2.3,MacIntel,126.5822785,,,,,,,,,,,1,02,2,4,,,,,,,,,,,,,,,,,,,,,,,,,,,,,
6664215e9a4fc14231f523c6,TCN,2024-06-25_19h23.08.335,LearnStrategy,2023.2.3,MacIntel,126.5822785,,,,,,,,,,,4,16,2,5,,,,,,,,,,,,,,,,,,,,,,,,,,,,,
6664215e9a4fc14231f523c6,TCN,2024-06-25_19h23.08.335,LearnStrategy,2023.2.3,MacIntel,126.5822785,,,,,,,,,,,3,12,2,6,,,,,,,,,,,,,,,,,,,,,,,,,,,,,
6664215e9a4fc14231f523c6,TCN,2024-06-25_19h23.08.335,LearnStrategy,2023.2.3,MacIntel,126.5822785,,,,,,,,,,,4,14,2,7,,,,,,,,,,,,,,,,,,,,,,,,,,,,,
6664215e9a4fc14231f523c6,TCN,2024-06-25_19h23.08.335,LearnStrategy,2023.2.3,MacIntel,126.5822785,,,,,,,,,,,6,09,2,8,,,,,,,,,,,,,,,,,,,,,,,,,,,,,
6664215e9a4fc14231f523c6,TCN,2024-06-25_19h23.08.335,LearnStrategy,2023.2.3,MacIntel,126.5822785,,,,,,,,,,,4,12,3,1,,,,,,,,,,,,,,,,,,,,,,,,,,,,,
6664215e9a4fc14231f523c6,TCN,2024-06-25_19h23.08.335,LearnStrategy,2023.2.3,MacIntel,126.5822785,,,,,,,,,,,1,16,3,2,,,,,,,,,,,,,,,,,,,,,,,,,,,,,
6664215e9a4fc14231f523c6,TCN,2024-06-25_19h23.08.335,LearnStrategy,2023.2.3,MacIntel,126.5822785,,,,,,,,,,,5,10,3,3,,,,,,,,,,,,,,,,,,,,,,,,,,,,,
6664215e9a4fc14231f523c6,TCN,2024-06-25_19h23.08.335,LearnStrategy,2023.2.3,MacIntel,126.5822785,,,,,,,,,,,8,05,3,4,,,,,,,,,,,,,,,,,,,,,,,,,,,,,
6664215e9a4fc14231f523c6,TCN,2024-06-25_19h23.08.335,LearnStrategy,2023.2.3,MacIntel,126.5822785,,,,,,,,,,,7,07,3,5,,,,,,,,,,,,,,,,,,,,,,,,,,,,,
6664215e9a4fc14231f523c6,TCN,2024-06-25_19h23.08.335,LearnStrategy,2023.2.3,MacIntel,126.5822785,,,,,,,,,,,2,05,3,6,,,,,,,,,,,,,,,,,,,,,,,,,,,,,
6664215e9a4fc14231f523c6,TCN,2024-06-25_19h23.08.335,LearnStrategy,2023.2.3,MacIntel,126.5822785,,,,,,,,,,,4,05,3,7,,,,,,,,,,,,,,,,,,,,,,,,,,,,,
6664215e9a4fc14231f523c6,TCN,2024-06-25_19h23.08.335,LearnStrategy,2023.2.3,MacIntel,126.5822785,,,,,,,,,,,8,14,3,8,,,,,,,,,,,,,,,,,,,,,,,,,,,,,
6664215e9a4fc14231f523c6,TCN,2024-06-25_19h23.08.335,LearnStrategy,2023.2.3,MacIntel,126.5822785,,,,,,,,,,,7,04,4,1,,,,,,,,,,,,,,,,,,,,,,,,,,,,,
6664215e9a4fc14231f523c6,TCN,2024-06-25_19h23.08.335,LearnStrategy,2023.2.3,MacIntel,126.5822785,,,,,,,,,,,1,11,4,2,,,,,,,,,,,,,,,,,,,,,,,,,,,,,
6664215e9a4fc14231f523c6,TCN,2024-06-25_19h23.08.335,LearnStrategy,2023.2.3,MacIntel,126.5822785,,,,,,,,,,,1,14,4,3,,,,,,,,,,,,,,,,,,,,,,,,,,,,,
6664215e9a4fc14231f523c6,TCN,2024-06-25_19h23.08.335,LearnStrategy,2023.2.3,MacIntel,126.5822785,,,,,,,,,,,6,03,4,4,,,,,,,,,,,,,,,,,,,,,,,,,,,,,
6664215e9a4fc14231f523c6,TCN,2024-06-25_19h23.08.335,LearnStrategy,2023.2.3,MacIntel,126.5822785,,,,,,,,,,,2,10,4,5,,,,,,,,,,,,,,,,,,,,,,,,,,,,,
6664215e9a4fc14231f523c6,TCN,2024-06-25_19h23.08.335,LearnStrategy,2023.2.3,MacIntel,126.5822785,,,,,,,,,,,3,07,4,6,,,,,,,,,,,,,,,,,,,,,,,,,,,,,
6664215e9a4fc14231f523c6,TCN,2024-06-25_19h23.08.335,LearnStrategy,2023.2.3,MacIntel,126.5822785,,,,,,,,,,,2,02,4,7,,,,,,,,,,,,,,,,,,,,,,,,,,,,,
6664215e9a4fc14231f523c6,TCN,2024-06-25_19h23.08.335,LearnStrategy,2023.2.3,MacIntel,126.5822785,,,,,,,,,,,6,12,4,8,,,,,,,,,,,,,,,,,,,,,,,,,,,,,
6664215e9a4fc14231f523c6,TCN,2024-06-25_19h23.08.335,LearnStrategy,2023.2.3,MacIntel,126.5822785,,,,,,,,,,,2,14,5,1,,,,,,,,,,,,,,,,,,,,,,,,,,,,,
6664215e9a4fc14231f523c6,TCN,2024-06-25_19h23.08.335,LearnStrategy,2023.2.3,MacIntel,126.5822785,,,,,,,,,,,2,04,5,2,,,,,,,,,,,,,,,,,,,,,,,,,,,,,
6664215e9a4fc14231f523c6,TCN,2024-06-25_19h23.08.335,LearnStrategy,2023.2.3,MacIntel,126.5822785,,,,,,,,,,,5,16,5,3,,,,,,,,,,,,,,,,,,,,,,,,,,,,,
6664215e9a4fc14231f523c6,TCN,2024-06-25_19h23.08.335,LearnStrategy,2023.2.3,MacIntel,126.5822785,,,,,,,,,,,7,14,5,4,,,,,,,,,,,,,,,,,,,,,,,,,,,,,
6664215e9a4fc14231f523c6,TCN,2024-06-25_19h23.08.335,LearnStrategy,2023.2.3,MacIntel,126.5822785,,,,,,,,,,,5,07,5,5,,,,,,,,,,,,,,,,,,,,,,,,,,,,,
6664215e9a4fc14231f523c6,TCN,2024-06-25_19h23.08.335,LearnStrategy,2023.2.3,MacIntel,126.5822785,,,,,,,,,,,4,01,5,6,,,,,,,,,,,,,,,,,,,,,,,,,,,,,
6664215e9a4fc14231f523c6,TCN,2024-06-25_19h23.08.335,LearnStrategy,2023.2.3,MacIntel,126.5822785,,,,,,,,,,,8,10,5,7,,,,,,,,,,,,,,,,,,,,,,,,,,,,,
6664215e9a4fc14231f523c6,TCN,2024-06-25_19h23.08.335,LearnStrategy,2023.2.3,MacIntel,126.5822785,,,,,,,,,,,7,05,5,8,,,,,,,,,,,,,,,,,,,,,,,,,,,,,
6664215e9a4fc14231f523c6,TCN,2024-06-25_19h23.08.335,LearnStrategy,2023.2.3,MacIntel,126.5822785,,,,,,,,,,,5,12,6,1,,,,,,,,,,,,,,,,,,,,,,,,,,,,,
6664215e9a4fc14231f523c6,TCN,2024-06-25_19h23.08.335,LearnStrategy,2023.2.3,MacIntel,126.5822785,,,,,,,,,,,7,15,6,2,,,,,,,,,,,,,,,,,,,,,,,,,,,,,
6664215e9a4fc14231f523c6,TCN,2024-06-25_19h23.08.335,LearnStrategy,2023.2.3,MacIntel,126.5822785,,,,,,,,,,,5,06,6,3,,,,,,,,,,,,,,,,,,,,,,,,,,,,,
6664215e9a4fc14231f523c6,TCN,2024-06-25_19h23.08.335,LearnStrategy,2023.2.3,MacIntel,126.5822785,,,,,,,,,,,7,13,6,4,,,,,,,,,,,,,,,,,,,,,,,,,,,,,
6664215e9a4fc14231f523c6,TCN,2024-06-25_19h23.08.335,LearnStrategy,2023.2.3,MacIntel,126.5822785,,,,,,,,,,,1,01,6,5,,,,,,,,,,,,,,,,,,,,,,,,,,,,,
6664215e9a4fc14231f523c6,TCN,2024-06-25_19h23.08.335,LearnStrategy,2023.2.3,MacIntel,126.5822785,,,,,,,,,,,5,08,6,6,,,,,,,,,,,,,,,,,,,,,,,,,,,,,
6664215e9a4fc14231f523c6,TCN,2024-06-25_19h23.08.335,LearnStrategy,2023.2.3,MacIntel,126.5822785,,,,,,,,,,,6,06,6,7,,,,,,,,,,,,,,,,,,,,,,,,,,,,,
6664215e9a4fc14231f523c6,TCN,2024-06-25_19h23.08.335,LearnStrategy,2023.2.3,MacIntel,126.5822785,,,,,,,,,,,4,11,6,8,,,,,,,,,,,,,,,,,,,,,,,,,,,,,