participant,condition,date,expName,psychopyVersion,OS,frameRate,block,phase,trial,learn_mouse.x,learn_mouse.y,learn_mouse.leftButton,learn_mouse.midButton,learn_mouse.rightButton,learn_mouse.time,learn_mouse.clicked_name,cat,token,row,col,t_select,cat_mouse_l.x,cat_mouse_l.y,cat_mouse_l.leftButton,cat_mouse_l.midButton,cat_mouse_l.rightButton,cat_mouse_l.time,cat_mouse_l.clicked_name,resp,t_resp,corr,train_trials.thisRepN,train_trials.thisTrialN,train_trials.thisN,train_trials.thisIndex,train_trials.ran,cat_mouse_t.x,cat_mouse_t.y,cat_mouse_t.leftButton,cat_mouse_t.midButton,cat_mouse_t.rightButton,cat_mouse_t.time,cat_mouse_t.clicked_name,test_trials.thisRepN,test_trials.thisTrialN,test_trials.thisN,test_trials.thisIndex,test_trials.ran,Bonus
6664597b10bb2abd191df517,SCN,2024-06-20_16h28.32.811,LearnStrategy,2023.2.3,Win32,166.6666667,,,,,,,,,,,,,,,,,,,,,,,,,,,,,,,,,,,,,,,,,,,
6664597b10bb2abd191df517,SCN,2024-06-20_16h28.32.811,LearnStrategy,2023.2.3,Win32,166.6666667,1,1,1,-0.413194444,-0.0875,1,0,0,2.7563,Pumice_09,8,09,3,2,2.756,0.327777778,-0.379861111,1,0,0,4.6811,Pumice_rect,8,4.681,1,0,0,0,0,1,,,,,,,,,,,,,
6664597b10bb2abd191df517,SCN,2024-06-20_16h28.32.811,LearnStrategy,2023.2.3,Win32,166.6666667,1,1,2,-0.543055556,-0.086111111,1,0,0,1.1205,Pumice_03,8,03,3,1,1.12,-0.052777778,-0.411111111,1,0,0,5.2987,Pegmatite_rect,6,5.299,0,1,0,1,0,1,,,,,,,,,,,,,
6664597b10bb2abd191df517,SCN,2024-06-20_16h28.32.811,LearnStrategy,2023.2.3,Win32,166.6666667,1,1,3,-0.077083333,0.070138889,1,0,0,0.6839,Pumice_02,8,02,4,4,0.684,-0.168055556,-0.383333333,1,0,0,2.1893,Pegmatite_rect,6,2.189,0,2,0,2,0,1,,,,,,,,,,,,,
6664597b10bb2abd191df517,SCN,2024-06-20_16h28.32.811,LearnStrategy,2023.2.3,Win32,166.6666667,1,1,4,0.107638889,0.0625,1,0,0,0.7626,Gabbro_15,4,15,4,5,0.763,0.170138889,-0.240277778,1,0,0,2.6504,Diorite_rect,3,2.65,0,3,0,3,0,1,,,,,,,,,,,,,
6664597b10bb2abd191df517,SCN,2024-06-20_16h28.32.811,LearnStrategy,2023.2.3,Win32,166.6666667,1,1,5,0.405555556,0.088888889,1,0,0,1.5505,Basalt_14,2,14,4,7,1.55,-0.127083333,-0.259722222,1,0,0,1.9407,Basalt_rect,2,1.941,1,4,0,4,0,1,,,,,,,,,,,,,
6664597b10bb2abd191df517,SCN,2024-06-20_16h28.32.811,LearnStrategy,2023.2.3,Win32,166.6666667,1,1,6,-0.229166667,0.08125,1,0,0,0.8778,Peridotite_15,7,15,4,3,0.878,0.111805556,-0.409027778,1,0,0,3.7226,Peridotite_rect,7,3.723,1,5,0,5,0,1,,,,,,,,,,,,,
6664597b10bb2abd191df517,SCN,2024-06-20_16h28.32.811,LearnStrategy,2023.2.3,Win32,166.6666667,1,1,7,-0.405555556,0.073611111,1,0,0,0.7022,Pumice_13,8,13,4,2,0.702,-0.298611111,-0.271527778,1,0,0,4.954,Andesite_rect,1,4.954,0,6,0,6,0,1,,,,,,,,,,,,,
6664597b10bb2abd191df517,SCN,2024-06-20_16h28.32.811,LearnStrategy,2023.2.3,Win32,166.6666667,1,1,8,-0.569444444,-0.26875,1,0,0,1.0837,Andesite_04,1,04,2,1,1.084,-0.361805556,-0.251388889,1,0,0,4.6212,Andesite_rect,1,4.621,1,7,0,7,0,1,,,,,,,,,,,,,
6664597b10bb2abd191df517,SCN,2024-06-20_16h28.32.811,LearnStrategy,2023.2.3,Win32,166.6666667,1,1,9,-0.083333333,-0.413194444,1,0,0,0.8779,Pegmatite_10,6,10,1,4,0.878,0.091666667,-0.382638889,1,0,0,3.9524,Peridotite_rect,7,3.952,0,8,0,8,0,1,,,,,,,,,,,,,
6664597b10bb2abd191df517,SCN,2024-06-20_16h28.32.811,LearnStrategy,2023.2.3,Win32,166.6666667,1,1,10,0.575694444,-0.4125,1,0,0,0.9992,Obsidian_04,5,04,1,8,0.999,-0.325,-0.38125,1,0,0,0.8442,Obsidian_rect,5,0.844,1,9,0,9,0,1,,,,,,,,,,,,,
6664597b10bb2abd191df517,SCN,2024-06-20_16h28.32.811,LearnStrategy,2023.2.3,Win32,166.6666667,1,1,11,0.409722222,-0.234722222,1,0,0,0.7321,Gabbro_05,4,05,2,7,0.732,-0.077777778,-0.408333333,1,0,0,4.4318,Pegmatite_rect,6,4.432,0,10,0,10,0,1,,,,,,,,,,,,,
6664597b10bb2abd191df517,SCN,2024-06-20_16h28.32.811,LearnStrategy,2023.2.3,Win32,166.6666667,1,1,12,0.079166667,0.079861111,1,0,0,1.4719,Gabbro_15,4,15,4,5,1.472,0.3625,-0.244444444,1,0,0,0.7227,Gabbro_rect,4,0.723,1,11,0,11,0,1,,,,,,,,,,,,,
6664597b10bb2abd191df517,SCN,2024-06-20_16h28.32.811,LearnStrategy,2023.2.3,Win32,166.6666667,1,1,13,0.417361111,-0.278472222,1,0,0,0.587,Gabbro_05,4,05,2,7,0.587,0.404166667,-0.23125,1,0,0,0.7295,Gabbro_rect,4,0.73,1,12,0,12,0,1,,,,,,,,,,,,,
6664597b10bb2abd191df517,SCN,2024-06-20_16h28.32.811,LearnStrategy,2023.2.3,Win32,166.6666667,1,1,14,0.575694444,-0.235416667,1,0,0,0.745,Obsidian_06,5,06,2,8,0.745,-0.328472222,-0.403472222,1,0,0,0.9713,Obsidian_rect,5,0.971,1,13,0,13,0,1,,,,,,,,,,,,,
6664597b10bb2abd191df517,SCN,2024-06-20_16h28.32.811,LearnStrategy,2023.2.3,Win32,166.6666667,1,1,15,0.551388889,-0.082638889,1,0,0,0.49,Andesite_10,1,10,3,8,0.49,-0.380555556,-0.229166667,1,0,0,3.0565,Andesite_rect,1,3.057,1,14,0,14,0,1,,,,,,,,,,,,,
6664597b10bb2abd191df517,SCN,2024-06-20_16h28.32.811,LearnStrategy,2023.2.3,Win32,166.6666667,1,1,16,0.352083333,-0.099305556,1,0,0,0.7325,Andesite_11,1,11,3,7,0.733,-0.354861111,-0.239583333,1,0,0,6.917,Andesite_rect,1,6.917,1,15,0,15,0,1,,,,,,,,,,,,,
6664597b10bb2abd191df517,SCN,2024-06-20_16h28.32.811,LearnStrategy,2023.2.3,Win32,166.6666667,1,2,1,,,,,,,,5,16,,,,,,,,,,,5,1.644,1,,,,,,-0.347916667,-0.385416667,1,0,0,1.6439,Obsidian_rect,0,0,0,0,1,
6664597b10bb2abd191df517,SCN,2024-06-20_16h28.32.811,LearnStrategy,2023.2.3,Win32,166.6666667,1,2,2,,,,,,,,4,12,,,,,,,,,,,2,17.717,0,,,,,,-0.167361111,-0.25625,1,0,0,17.7169,Basalt_rect,1,0,1,0,1,
6664597b10bb2abd191df517,SCN,2024-06-20_16h28.32.811,LearnStrategy,2023.2.3,Win32,166.6666667,1,2,3,,,,,,,,7,14,,,,,,,,,,,1,52.945,0,,,,,,-0.369444444,-0.270833333,1,0,0,52.9452,Andesite_rect,2,0,2,0,1,
6664597b10bb2abd191df517,SCN,2024-06-20_16h28.32.811,LearnStrategy,2023.2.3,Win32,166.6666667,1,2,4,,,,,,,,8,16,,,,,,,,,,,8,3.257,1,,,,,,0.345833333,-0.4125,1,0,0,3.2573,Pumice_rect,3,0,3,0,1,
6664597b10bb2abd191df517,SCN,2024-06-20_16h28.32.811,LearnStrategy,2023.2.3,Win32,166.6666667,1,2,5,,,,,,,,6,15,,,,,,,,,,,6,47.415,1,,,,,,-0.184722222,-0.408333333,1,0,0,47.4148,Pegmatite_rect,4,0,4,0,1,
6664597b10bb2abd191df517,SCN,2024-06-20_16h28.32.811,LearnStrategy,2023.2.3,Win32,166.6666667,1,2,6,,,,,,,,2,01,,,,,,,,,,,2,8.808,1,,,,,,-0.201388889,-0.250694444,1,0,0,8.808,Basalt_rect,5,0,5,0,1,
6664597b10bb2abd191df517,SCN,2024-06-20_16h28.32.811,LearnStrategy,2023.2.3,Win32,166.6666667,1,2,7,,,,,,,,4,13,,,,,,,,,,,4,2.191,1,,,,,,0.364583333,-0.260416667,1,0,0,2.1907,Gabbro_rect,6,0,6,0,1,
6664597b10bb2abd191df517,SCN,2024-06-20_16h28.32.811,LearnStrategy,2023.2.3,Win32,166.6666667,1,2,8,,,,,,,,6,11,,,,,,,,,,,6,1.271,1,,,,,,-0.058333333,-0.392361111,1,0,0,1.2711,Pegmatite_rect,7,0,7,0,1,
6664597b10bb2abd191df517,SCN,2024-06-20_16h28.32.811,LearnStrategy,2023.2.3,Win32,166.6666667,1,2,9,,,,,,,,1,09,,,,,,,,,,,1,1.947,1,,,,,,-0.324305556,-0.241666667,1,0,0,1.9472,Andesite_rect,8,0,8,0,1,
6664597b10bb2abd191df517,SCN,2024-06-20_16h28.32.811,LearnStrategy,2023.2.3,Win32,166.6666667,1,2,10,,,,,,,,7,08,,,,,,,,,,,7,1.549,1,,,,,,0.093055556,-0.4,1,0,0,1.5494,Peridotite_rect,9,0,9,0,1,
6664597b10bb2abd191df517,SCN,2024-06-20_16h28.32.811,LearnStrategy,2023.2.3,Win32,166.6666667,1,2,11,,,,,,,,3,12,,,,,,,,,,,3,9.972,1,,,,,,0.063888889,-0.254861111,1,0,0,9.9719,Diorite_rect,10,0,10,0,1,
6664597b10bb2abd191df517,SCN,2024-06-20_16h28.32.811,LearnStrategy,2023.2.3,Win32,166.6666667,1,2,12,,,,,,,,3,11,,,,,,,,,,,3,1.014,1,,,,,,0.058333333,-0.260416667,1,0,0,1.0139,Diorite_rect,11,0,11,0,1,
6664597b10bb2abd191df517,SCN,2024-06-20_16h28.32.811,LearnStrategy,2023.2.3,Win32,166.6666667,1,2,13,,,,,,,,2,08,,,,,,,,,,,2,1.093,1,,,,,,-0.10625,-0.24375,1,0,0,1.0927,Basalt_rect,12,0,12,0,1,
6664597b10bb2abd191df517,SCN,2024-06-20_16h28.32.811,LearnStrategy,2023.2.3,Win32,166.6666667,1,2,14,,,,,,,,1,01,,,,,,,,,,,1,25.342,1,,,,,,-0.313888889,-0.252777778,1,0,0,25.3416,Andesite_rect,13,0,13,0,1,
6664597b10bb2abd191df517,SCN,2024-06-20_16h28.32.811,LearnStrategy,2023.2.3,Win32,166.6666667,1,2,15,,,,,,,,5,08,,,,,,,,,,,5,1.441,1,,,,,,-0.324305556,-0.411805556,1,0,0,1.4407,Obsidian_rect,14,0,14,0,1,
6664597b10bb2abd191df517,SCN,2024-06-20_16h28.32.811,LearnStrategy,2023.2.3,Win32,166.6666667,1,2,16,,,,,,,,8,06,,,,,,,,,,,8,2.032,1,,,,,,0.390277778,-0.404861111,1,0,0,2.0316,Pumice_rect,15,0,15,0,1,
6664597b10bb2abd191df517,SCN,2024-06-20_16h28.32.811,LearnStrategy,2023.2.3,Win32,166.6666667,2,1,1,-0.207638889,0.06875,1,0,0,2.5143,Peridotite_15,7,15,4,3,2.514,0.081944444,-0.403472222,1,0,0,2.1657,Peridotite_rect,7,2.166,1,0,0,0,0,1,,,,,,,,,,,,,
6664597b10bb2abd191df517,SCN,2024-06-20_16h28.32.811,LearnStrategy,2023.2.3,Win32,166.6666667,2,1,2,0.382638889,0.381944444,1,0,0,2.1326,Peridotite_07,7,07,6,7,2.133,0.157638889,-0.397222222,1,0,0,0.8872,Peridotite_rect,7,0.887,1,1,0,1,0,1,,,,,,,,,,,,,
6664597b10bb2abd191df517,SCN,2024-06-20_16h28.32.811,LearnStrategy,2023.2.3,Win32,166.6666667,2,1,3,-0.543055556,0.225,1,0,0,6.9085,Gabbro_03,4,03,5,1,6.909,-0.363194444,-0.228472222,1,0,0,4.2163,Andesite_rect,1,4.216,0,2,0,2,0,1,,,,,,,,,,,,,
6664597b10bb2abd191df517,SCN,2024-06-20_16h28.32.811,LearnStrategy,2023.2.3,Win32,166.6666667,2,1,4,-0.219444444,0.393055556,1,0,0,2.9569,Gabbro_11,4,11,6,3,2.957,0.457638889,-0.24375,1,0,0,4.5671,Gabbro_rect,4,4.567,1,3,0,3,0,1,,,,,,,,,,,,,
6664597b10bb2abd191df517,SCN,2024-06-20_16h28.32.811,LearnStrategy,2023.2.3,Win32,166.6666667,2,1,5,0.555555556,0.420833333,1,0,0,1.6842,Andesite_03,1,03,6,8,1.684,-0.372222222,-0.234027778,1,0,0,1.7374,Andesite_rect,1,1.737,1,4,0,4,0,1,,,,,,,,,,,,,
6664597b10bb2abd191df517,SCN,2024-06-20_16h28.32.811,LearnStrategy,2023.2.3,Win32,166.6666667,2,1,6,0.539583333,-0.110416667,1,0,0,1.6293,Andesite_10,1,10,3,8,1.629,-0.327083333,-0.271527778,1,0,0,1.5528,Andesite_rect,1,1.553,1,5,0,5,0,1,,,,,,,,,,,,,
6664597b10bb2abd191df517,SCN,2024-06-20_16h28.32.811,LearnStrategy,2023.2.3,Win32,166.6666667,2,1,7,-0.060416667,-0.279861111,1,0,0,1.3143,Pegmatite_03,6,03,2,4,1.314,-0.068055556,-0.386111111,1,0,0,1.6096,Pegmatite_rect,6,1.61,1,6,0,6,0,1,,,,,,,,,,,,,
6664597b10bb2abd191df517,SCN,2024-06-20_16h28.32.811,LearnStrategy,2023.2.3,Win32,166.6666667,2,1,8,-0.220833333,-0.252777778,1,0,0,5.8479,Peridotite_04,7,04,2,3,5.848,-0.125694444,-0.401388889,1,0,0,20.4323,Pegmatite_rect,6,20.432,0,7,0,7,0,1,,,,,,,,,,,,,
6664597b10bb2abd191df517,SCN,2024-06-20_16h28.32.811,LearnStrategy,2023.2.3,Win32,166.6666667,2,1,9,0.257638889,-0.282638889,1,0,0,4.1692,Peridotite_13,7,13,2,6,4.169,0.120138889,-0.385416667,1,0,0,1.2967,Peridotite_rect,7,1.297,1,8,0,8,0,1,,,,,,,,,,,,,
6664597b10bb2abd191df517,SCN,2024-06-20_16h28.32.811,LearnStrategy,2023.2.3,Win32,166.6666667,2,1,10,0.398611111,-0.372222222,1,0,0,1.708,Gabbro_16,4,16,1,7,1.708,-0.098611111,-0.259027778,1,0,0,1.8946,Basalt_rect,2,1.895,0,9,0,9,0,1,,,,,,,,,,,,,
6664597b10bb2abd191df517,SCN,2024-06-20_16h28.32.811,LearnStrategy,2023.2.3,Win32,166.6666667,2,1,11,0.360416667,-0.273611111,1,0,0,0.878,Gabbro_05,4,05,2,7,0.878,0.3375,-0.258333333,1,0,0,2.9411,Gabbro_rect,4,2.941,1,10,0,10,0,1,,,,,,,,,,,,,
6664597b10bb2abd191df517,SCN,2024-06-20_16h28.32.811,LearnStrategy,2023.2.3,Win32,166.6666667,2,1,12,0.370138889,0.097916667,1,0,0,2.9916,Basalt_14,2,14,4,7,2.992,0.395833333,-0.401388889,1,0,0,1.6146,Pumice_rect,8,1.615,0,11,0,11,0,1,,,,,,,,,,,,,
6664597b10bb2abd191df517,SCN,2024-06-20_16h28.32.811,LearnStrategy,2023.2.3,Win32,166.6666667,2,1,13,-0.095138889,-0.427083333,1,0,0,7.0116,Pegmatite_10,6,10,1,4,7.012,0.107638889,-0.414583333,1,0,0,6.6096,Peridotite_rect,7,6.61,0,12,0,12,0,1,,,,,,,,,,,,,
6664597b10bb2abd191df517,SCN,2024-06-20_16h28.32.811,LearnStrategy,2023.2.3,Win32,166.6666667,2,1,14,-0.536111111,0.106944444,1,0,0,2.4598,Obsidian_05,5,05,4,1,2.46,-0.324305556,-0.390277778,1,0,0,1.9055,Obsidian_rect,5,1.906,1,13,0,13,0,1,,,,,,,,,,,,,
6664597b10bb2abd191df517,SCN,2024-06-20_16h28.32.811,LearnStrategy,2023.2.3,Win32,166.6666667,2,1,15,0.280555556,0.400694444,1,0,0,2.931,Andesite_02,1,02,6,6,2.931,-0.338194444,-0.265277778,1,0,0,0.8089,Andesite_rect,1,0.809,1,14,0,14,0,1,,,,,,,,,,,,,
6664597b10bb2abd191df517,SCN,2024-06-20_16h28.32.811,LearnStrategy,2023.2.3,Win32,166.6666667,2,1,16,0.360416667,0.24375,1,0,0,3.3509,Diorite_16,3,16,5,7,3.351,0.086805556,-0.25625,1,0,0,0.8389,Diorite_rect,3,0.839,1,15,0,15,0,1,,,,,,,,,,,,,
6664597b10bb2abd191df517,SCN,2024-06-20_16h28.32.811,LearnStrategy,2023.2.3,Win32,166.6666667,2,2,1,,,,,,,,4,08,,,,,,,,,,,4,3.239,1,,,,,,0.344444444,-0.241666667,1,0,0,3.2394,Gabbro_rect,0,0,0,0,1,
6664597b10bb2abd191df517,SCN,2024-06-20_16h28.32.811,LearnStrategy,2023.2.3,Win32,166.6666667,2,2,2,,,,,,,,4,10,,,,,,,,,,,2,11.741,0,,,,,,-0.078472222,-0.24375,1,0,0,11.7415,Basalt_rect,1,0,1,0,1,
6664597b10bb2abd191df517,SCN,2024-06-20_16h28.32.811,LearnStrategy,2023.2.3,Win32,166.6666667,2,2,3,,,,,,,,5,10,,,,,,,,,,,5,1.452,1,,,,,,-0.381944444,-0.381944444,1,0,0,1.4521,Obsidian_rect,2,0,2,0,1,
6664597b10bb2abd191df517,SCN,2024-06-20_16h28.32.811,LearnStrategy,2023.2.3,Win32,166.6666667,2,2,4,,,,,,,,7,12,,,,,,,,,,,7,1.984,1,,,,,,0.172222222,-0.395833333,1,0,0,1.9837,Peridotite_rect,3,0,3,0,1,
6664597b10bb2abd191df517,SCN,2024-06-20_16h28.32.811,LearnStrategy,2023.2.3,Win32,166.6666667,2,2,5,,,,,,,,8,04,,,,,,,,,,,8,1.185,1,,,,,,0.334722222,-0.402777778,1,0,0,1.1846,Pumice_rect,4,0,4,0,1,
6664597b10bb2abd191df517,SCN,2024-06-20_16h28.32.811,LearnStrategy,2023.2.3,Win32,166.6666667,2,2,6,,,,,,,,2,12,,,,,,,,,,,2,9.5,1,,,,,,-0.193055556,-0.2375,1,0,0,9.4998,Basalt_rect,5,0,5,0,1,
6664597b10bb2abd191df517,SCN,2024-06-20_16h28.32.811,LearnStrategy,2023.2.3,Win32,166.6666667,2,2,7,,,,,,,,2,16,,,,,,,,,,,2,2.856,1,,,,,,-0.10625,-0.252083333,1,0,0,2.8564,Basalt_rect,6,0,6,0,1,
6664597b10bb2abd191df517,SCN,2024-06-20_16h28.32.811,LearnStrategy,2023.2.3,Win32,166.6666667,2,2,8,,,,,,,,5,14,,,,,,,,,,,5,1.519,1,,,,,,-0.358333333,-0.383333333,1,0,0,1.5186,Obsidian_rect,7,0,7,0,1,
6664597b10bb2abd191df517,SCN,2024-06-20_16h28.32.811,LearnStrategy,2023.2.3,Win32,166.6666667,2,2,9,,,,,,,,6,09,,,,,,,,,,,6,19.778,1,,,,,,-0.075,-0.384722222,1,0,0,19.7777,Pegmatite_rect,8,0,8,0,1,
6664597b10bb2abd191df517,SCN,2024-06-20_16h28.32.811,LearnStrategy,2023.2.3,Win32,166.6666667,2,2,10,,,,,,,,6,07,,,,,,,,,,,6,6.774,1,,,,,,-0.071527778,-0.383333333,1,0,0,6.7738,Pegmatite_rect,9,0,9,0,1,
6664597b10bb2abd191df517,SCN,2024-06-20_16h28.32.811,LearnStrategy,2023.2.3,Win32,166.6666667,2,2,11,,,,,,,,1,06,,,,,,,,,,,4,5.274,0,,,,,,0.354861111,-0.257638889,1,0,0,5.2745,Gabbro_rect,10,0,10,0,1,
6664597b10bb2abd191df517,SCN,2024-06-20_16h28.32.811,LearnStrategy,2023.2.3,Win32,166.6666667,2,2,12,,,,,,,,8,05,,,,,,,,,,,8,0.99,1,,,,,,0.418055556,-0.41875,1,0,0,0.9899,Pumice_rect,11,0,11,0,1,
6664597b10bb2abd191df517,SCN,2024-06-20_16h28.32.811,LearnStrategy,2023.2.3,Win32,166.6666667,2,2,13,,,,,,,,7,05,,,,,,,,,,,7,4.219,1,,,,,,0.1125,-0.3875,1,0,0,4.2191,Peridotite_rect,12,0,12,0,1,
6664597b10bb2abd191df517,SCN,2024-06-20_16h28.32.811,LearnStrategy,2023.2.3,Win32,166.6666667,2,2,14,,,,,,,,1,05,,,,,,,,,,,1,14.21,1,,,,,,-0.331944444,-0.25,1,0,0,14.2096,Andesite_rect,13,0,13,0,1,
6664597b10bb2abd191df517,SCN,2024-06-20_16h28.32.811,LearnStrategy,2023.2.3,Win32,166.6666667,2,2,15,,,,,,,,3,09,,,,,,,,,,,3,0.93,1,,,,,,0.115972222,-0.252777778,1,0,0,0.9302,Diorite_rect,14,0,14,0,1,
6664597b10bb2abd191df517,SCN,2024-06-20_16h28.32.811,LearnStrategy,2023.2.3,Win32,166.6666667,2,2,16,,,,,,,,3,10,,,,,,,,,,,3,1.238,1,,,,,,0.085416667,-0.261805556,1,0,0,1.2383,Diorite_rect,15,0,15,0,1,
6664597b10bb2abd191df517,SCN,2024-06-20_16h28.32.811,LearnStrategy,2023.2.3,Win32,166.6666667,3,1,1,-0.527083333,-0.408333333,1,0,0,2.2844,Gabbro_01,4,01,1,1,2.284,0.331944444,-0.230555556,1,0,0,3.3303,Gabbro_rect,4,3.33,1,0,0,0,0,1,,,,,,,,,,,,,
6664597b10bb2abd191df517,SCN,2024-06-20_16h28.32.811,LearnStrategy,2023.2.3,Win32,166.6666667,3,1,2,-0.548611111,0.395833333,1,0,0,0.9806,Basalt_11,2,11,6,1,0.981,-0.136111111,-0.247916667,1,0,0,1.4079,Basalt_rect,2,1.408,1,1,0,1,0,1,,,,,,,,,,,,,
6664597b10bb2abd191df517,SCN,2024-06-20_16h28.32.811,LearnStrategy,2023.2.3,Win32,166.6666667,3,1,3,-0.359027778,0.403472222,1,0,0,1.2413,Diorite_06,3,06,6,2,1.241,0.175694444,-0.236805556,1,0,0,1.1076,Diorite_rect,3,1.108,1,2,0,2,0,1,,,,,,,,,,,,,
6664597b10bb2abd191df517,SCN,2024-06-20_16h28.32.811,LearnStrategy,2023.2.3,Win32,166.6666667,3,1,4,0.5625,0.375694444,1,0,0,3.2538,Andesite_03,1,03,6,8,3.254,-0.347222222,-0.259027778,1,0,0,1.1357,Andesite_rect,1,1.136,1,3,0,3,0,1,,,,,,,,,,,,,
6664597b10bb2abd191df517,SCN,2024-06-20_16h28.32.811,LearnStrategy,2023.2.3,Win32,166.6666667,3,1,5,-0.377777778,0.25,1,0,0,15.0296,Diorite_15,3,15,5,2,15.03,0.40625,-0.238194444,1,0,0,2.0252,Gabbro_rect,4,2.025,0,4,0,4,0,1,,,,,,,,,,,,,
6664597b10bb2abd191df517,SCN,2024-06-20_16h28.32.811,LearnStrategy,2023.2.3,Win32,166.6666667,3,1,6,-0.538194444,0.240972222,1,0,0,1.1203,Gabbro_03,4,03,5,1,1.12,0.324305556,-0.24375,1,0,0,0.9353,Gabbro_rect,4,0.935,1,5,0,5,0,1,,,,,,,,,,,,,
6664597b10bb2abd191df517,SCN,2024-06-20_16h28.32.811,LearnStrategy,2023.2.3,Win32,166.6666667,3,1,7,0.525694444,0.241666667,1,0,0,1.7748,Diorite_13,3,13,5,8,1.775,0.136805556,-0.241666667,1,0,0,1.1914,Diorite_rect,3,1.191,1,6,0,6,0,1,,,,,,,,,,,,,
6664597b10bb2abd191df517,SCN,2024-06-20_16h28.32.811,LearnStrategy,2023.2.3,Win32,166.6666667,3,1,8,-0.192361111,0.264583333,1,0,0,2.5023,Pegmatite_05,6,05,5,3,2.502,-0.091666667,-0.384722222,1,0,0,5.0688,Pegmatite_rect,6,5.069,1,7,0,7,0,1,,,,,,,,,,,,,
6664597b10bb2abd191df517,SCN,2024-06-20_16h28.32.811,LearnStrategy,2023.2.3,Win32,166.6666667,3,1,9,0.230555556,0.389583333,1,0,0,2.9688,Andesite_02,1,02,6,6,2.969,-0.354166667,-0.251388889,1,0,0,1.4353,Andesite_rect,1,1.435,1,8,0,8,0,1,,,,,,,,,,,,,
6664597b10bb2abd191df517,SCN,2024-06-20_16h28.32.811,LearnStrategy,2023.2.3,Win32,166.6666667,3,1,10,-0.365277778,0.384027778,1,0,0,17.9994,Diorite_06,3,06,6,2,17.999,0.180555556,-0.269444444,1,0,0,0.8474,Diorite_rect,3,0.847,1,9,0,9,0,1,,,,,,,,,,,,,
6664597b10bb2abd191df517,SCN,2024-06-20_16h28.32.811,LearnStrategy,2023.2.3,Win32,166.6666667,3,1,11,0.084722222,-0.257638889,1,0,0,1.1023,Pegmatite_12,6,12,2,5,1.102,-0.119444444,-0.39375,1,0,0,0.7404,Pegmatite_rect,6,0.74,1,10,0,10,0,1,,,,,,,,,,,,,
6664597b10bb2abd191df517,SCN,2024-06-20_16h28.32.811,LearnStrategy,2023.2.3,Win32,166.6666667,3,1,12,0.257638889,-0.265277778,1,0,0,0.8599,Peridotite_13,7,13,2,6,0.86,0.132638889,-0.392361111,1,0,0,0.6328,Peridotite_rect,7,0.633,1,11,0,11,0,1,,,,,,,,,,,,,
6664597b10bb2abd191df517,SCN,2024-06-20_16h28.32.811,LearnStrategy,2023.2.3,Win32,166.6666667,3,1,13,0.409722222,-0.098611111,1,0,0,3.5022,Andesite_11,1,11,3,7,3.502,-0.379861111,-0.23125,1,0,0,2.1721,Andesite_rect,1,2.172,1,12,0,12,0,1,,,,,,,,,,,,,
6664597b10bb2abd191df517,SCN,2024-06-20_16h28.32.811,LearnStrategy,2023.2.3,Win32,166.6666667,3,1,14,-0.38125,-0.410416667,1,0,0,5.0052,Basalt_05,2,05,1,2,5.005,-0.159027778,-0.247916667,1,0,0,1.1599,Basalt_rect,2,1.16,1,13,0,13,0,1,,,,,,,,,,,,,
6664597b10bb2abd191df517,SCN,2024-06-20_16h28.32.811,LearnStrategy,2023.2.3,Win32,166.6666667,3,1,15,-0.204166667,-0.265277778,1,0,0,3.0721,Peridotite_04,7,04,2,3,3.072,0.155555556,-0.38125,1,0,0,1.3933,Peridotite_rect,7,1.393,1,14,0,14,0,1,,,,,,,,,,,,,
6664597b10bb2abd191df517,SCN,2024-06-20_16h28.32.811,LearnStrategy,2023.2.3,Win32,166.6666667,3,1,16,-0.353472222,-0.1,1,0,0,1.8538,Pumice_09,8,09,3,2,1.854,0.432638889,-0.379166667,1,0,0,1.0302,Pumice_rect,8,1.03,1,15,0,15,0,1,,,,,,,,,,,,,
6664597b10bb2abd191df517,SCN,2024-06-20_16h28.32.811,LearnStrategy,2023.2.3,Win32,166.6666667,3,2,1,,,,,,,,1,14,,,,,,,,,,,6,9.135,0,,,,,,-0.091666667,-0.40625,1,0,0,9.1354,Pegmatite_rect,0,0,0,0,1,
6664597b10bb2abd191df517,SCN,2024-06-20_16h28.32.811,LearnStrategy,2023.2.3,Win32,166.6666667,3,2,2,,,,,,,,6,16,,,,,,,,,,,6,1.95,1,,,,,,-0.090277778,-0.39375,1,0,0,1.95,Pegmatite_rect,1,0,1,0,1,
6664597b10bb2abd191df517,SCN,2024-06-20_16h28.32.811,LearnStrategy,2023.2.3,Win32,166.6666667,3,2,3,,,,,,,,2,10,,,,,,,,,,,2,1.802,1,,,,,,-0.0625,-0.249305556,1,0,0,1.8022,Basalt_rect,2,0,2,0,1,
6664597b10bb2abd191df517,SCN,2024-06-20_16h28.32.811,LearnStrategy,2023.2.3,Win32,166.6666667,3,2,4,,,,,,,,2,06,,,,,,,,,,,2,0.853,1,,,,,,-0.090277778,-0.259722222,1,0,0,0.8526,Basalt_rect,3,0,3,0,1,
6664597b10bb2abd191df517,SCN,2024-06-20_16h28.32.811,LearnStrategy,2023.2.3,Win32,166.6666667,3,2,5,,,,,,,,1,07,,,,,,,,,,,4,6.431,0,,,,,,0.328472222,-0.251388889,1,0,0,6.4306,Gabbro_rect,4,0,4,0,1,
6664597b10bb2abd191df517,SCN,2024-06-20_16h28.32.811,LearnStrategy,2023.2.3,Win32,166.6666667,3,2,6,,,,,,,,7,02,,,,,,,,,,,7,1.253,1,,,,,,0.203472222,-0.381944444,1,0,0,1.2525,Peridotite_rect,5,0,5,0,1,
6664597b10bb2abd191df517,SCN,2024-06-20_16h28.32.811,LearnStrategy,2023.2.3,Win32,166.6666667,3,2,7,,,,,,,,4,09,,,,,,,,,,,2,7.457,0,,,,,,-0.064583333,-0.247916667,1,0,0,7.4571,Basalt_rect,6,0,6,0,1,
6664597b10bb2abd191df517,SCN,2024-06-20_16h28.32.811,LearnStrategy,2023.2.3,Win32,166.6666667,3,2,8,,,,,,,,4,14,,,,,,,,,,,4,7.445,1,,,,,,0.349305556,-0.260416667,1,0,0,7.4446,Gabbro_rect,7,0,7,0,1,
6664597b10bb2abd191df517,SCN,2024-06-20_16h28.32.811,LearnStrategy,2023.2.3,Win32,166.6666667,3,2,9,,,,,,,,5,02,,,,,,,,,,,5,1.075,1,,,,,,-0.359027778,-0.383333333,1,0,0,1.0754,Obsidian_rect,8,0,8,0,1,
6664597b10bb2abd191df517,SCN,2024-06-20_16h28.32.811,LearnStrategy,2023.2.3,Win32,166.6666667,3,2,10,,,,,,,,7,10,,,,,,,,,,,7,0.95,1,,,,,,0.192361111,-0.398611111,1,0,0,0.9496,Peridotite_rect,9,0,9,0,1,
6664597b10bb2abd191df517,SCN,2024-06-20_16h28.32.811,LearnStrategy,2023.2.3,Win32,166.6666667,3,2,11,,,,,,,,6,08,,,,,,,,,,,6,0.887,1,,,,,,-0.101388889,-0.3875,1,0,0,0.8872,Pegmatite_rect,10,0,10,0,1,
6664597b10bb2abd191df517,SCN,2024-06-20_16h28.32.811,LearnStrategy,2023.2.3,Win32,166.6666667,3,2,12,,,,,,,,3,08,,,,,,,,,,,3,0.918,1,,,,,,0.122222222,-0.260416667,1,0,0,0.9177,Diorite_rect,11,0,11,0,1,
6664597b10bb2abd191df517,SCN,2024-06-20_16h28.32.811,LearnStrategy,2023.2.3,Win32,166.6666667,3,2,13,,,,,,,,5,07,,,,,,,,,,,5,1.366,1,,,,,,-0.338888889,-0.384722222,1,0,0,1.3662,Obsidian_rect,12,0,12,0,1,
6664597b10bb2abd191df517,SCN,2024-06-20_16h28.32.811,LearnStrategy,2023.2.3,Win32,166.6666667,3,2,14,,,,,,,,3,02,,,,,,,,,,,3,0.867,1,,,,,,0.113888889,-0.258333333,1,0,0,0.8672,Diorite_rect,13,0,13,0,1,
6664597b10bb2abd191df517,SCN,2024-06-20_16h28.32.811,LearnStrategy,2023.2.3,Win32,166.6666667,3,2,15,,,,,,,,8,10,,,,,,,,,,,8,1.294,1,,,,,,0.373611111,-0.381944444,1,0,0,1.2941,Pumice_rect,14,0,14,0,1,
6664597b10bb2abd191df517,SCN,2024-06-20_16h28.32.811,LearnStrategy,2023.2.3,Win32,166.6666667,3,2,16,,,,,,,,8,08,,,,,,,,,,,8,0.888,1,,,,,,0.343055556,-0.402083333,1,0,0,0.8879,Pumice_rect,15,0,15,0,1,
6664597b10bb2abd191df517,SCN,2024-06-20_16h28.32.811,LearnStrategy,2023.2.3,Win32,166.6666667,4,1,1,-0.575,0.256944444,1,0,0,4.642,Gabbro_03,4,03,5,1,4.642,0.347916667,-0.247916667,1,0,0,1.5728,Gabbro_rect,4,1.573,1,0,0,0,0,1,,,,,,,,,,,,,
6664597b10bb2abd191df517,SCN,2024-06-20_16h28.32.811,LearnStrategy,2023.2.3,Win32,166.6666667,4,1,2,0.55,0.382638889,1,0,0,1.1204,Andesite_03,1,03,6,8,1.12,-0.427777778,-0.244444444,1,0,0,0.817,Andesite_rect,1,0.817,1,1,0,1,0,1,,,,,,,,,,,,,
6664597b10bb2abd191df517,SCN,2024-06-20_16h28.32.811,LearnStrategy,2023.2.3,Win32,166.6666667,4,1,3,0.243055556,0.395138889,1,0,0,1.4475,Andesite_02,1,02,6,6,1.447,-0.369444444,-0.252777778,1,0,0,0.6318,Andesite_rect,1,0.632,1,2,0,2,0,1,,,,,,,,,,,,,
6664597b10bb2abd191df517,SCN,2024-06-20_16h28.32.811,LearnStrategy,2023.2.3,Win32,166.6666667,4,1,4,-0.240277778,0.394444444,1,0,0,0.7932,Gabbro_11,4,11,6,3,0.793,0.355555556,-0.270833333,1,0,0,2.3611,Gabbro_rect,4,2.361,1,3,0,3,0,1,,,,,,,,,,,,,
6664597b10bb2abd191df517,SCN,2024-06-20_16h28.32.811,LearnStrategy,2023.2.3,Win32,166.6666667,4,1,5,-0.392361111,0.395833333,1,0,0,0.7567,Diorite_06,3,06,6,2,0.757,0.132638889,-0.24375,1,0,0,1.0866,Diorite_rect,3,1.087,1,4,0,4,0,1,,,,,,,,,,,,,
6664597b10bb2abd191df517,SCN,2024-06-20_16h28.32.811,LearnStrategy,2023.2.3,Win32,166.6666667,4,1,6,0.220138889,0.216666667,1,0,0,1.0361,Pegmatite_13,6,13,5,6,1.036,-0.169444444,-0.411111111,1,0,0,0.6983,Pegmatite_rect,6,0.698,1,5,0,5,0,1,,,,,,,,,,,,,
6664597b10bb2abd191df517,SCN,2024-06-20_16h28.32.811,LearnStrategy,2023.2.3,Win32,166.6666667,4,1,7,-0.540972222,0.388194444,1,0,0,5.6176,Basalt_11,2,11,6,1,5.618,-0.347916667,-0.255555556,1,0,0,3.3087,Andesite_rect,1,3.309,0,6,0,6,0,1,,,,,,,,,,,,,
6664597b10bb2abd191df517,SCN,2024-06-20_16h28.32.811,LearnStrategy,2023.2.3,Win32,166.6666667,4,1,8,-0.394444444,0.372222222,1,0,0,2.4233,Diorite_06,3,06,6,2,2.423,0.135416667,-0.266666667,1,0,0,1.4198,Diorite_rect,3,1.42,1,7,0,7,0,1,,,,,,,,,,,,,
6664597b10bb2abd191df517,SCN,2024-06-20_16h28.32.811,LearnStrategy,2023.2.3,Win32,166.6666667,4,1,9,-0.520833333,-0.117361111,1,0,0,6.569,Pumice_03,8,03,3,1,6.569,0.3875,-0.408333333,1,0,0,0.8396,Pumice_rect,8,0.84,1,8,0,8,0,1,,,,,,,,,,,,,
6664597b10bb2abd191df517,SCN,2024-06-20_16h28.32.811,LearnStrategy,2023.2.3,Win32,166.6666667,4,1,10,-0.553472222,-0.405555556,1,0,0,0.7325,Gabbro_01,4,01,1,1,0.732,0.405555556,-0.270138889,1,0,0,5.4928,Gabbro_rect,4,5.493,1,9,0,9,0,1,,,,,,,,,,,,,
6664597b10bb2abd191df517,SCN,2024-06-20_16h28.32.811,LearnStrategy,2023.2.3,Win32,166.6666667,4,1,11,0.397222222,-0.104861111,1,0,0,2.9205,Andesite_11,1,11,3,7,2.92,-0.376388889,-0.261111111,1,0,0,4.5487,Andesite_rect,1,4.549,1,10,0,10,0,1,,,,,,,,,,,,,
6664597b10bb2abd191df517,SCN,2024-06-20_16h28.32.811,LearnStrategy,2023.2.3,Win32,166.6666667,4,1,12,0.069444444,-0.107638889,1,0,0,3.8478,Basalt_02,2,02,3,5,3.848,-0.06875,-0.259027778,1,0,0,0.73,Basalt_rect,2,0.73,1,11,0,11,0,1,,,,,,,,,,,,,
6664597b10bb2abd191df517,SCN,2024-06-20_16h28.32.811,LearnStrategy,2023.2.3,Win32,166.6666667,4,1,13,0.395833333,-0.4375,1,0,0,4.2357,Gabbro_16,4,16,1,7,4.236,-0.079861111,-0.239583333,1,0,0,1.5893,Basalt_rect,2,1.589,0,12,0,12,0,1,,,,,,,,,,,,,
6664597b10bb2abd191df517,SCN,2024-06-20_16h28.32.811,LearnStrategy,2023.2.3,Win32,166.6666667,4,1,14,0.388888889,-0.252083333,1,0,0,0.8234,Gabbro_05,4,05,2,7,0.823,0.381944444,-0.258333333,1,0,0,1.7289,Gabbro_rect,4,1.729,1,13,0,13,0,1,,,,,,,,,,,,,
6664597b10bb2abd191df517,SCN,2024-06-20_16h28.32.811,LearnStrategy,2023.2.3,Win32,166.6666667,4,1,15,0.417361111,0.120138889,1,0,0,1.9992,Basalt_14,2,14,4,7,1.999,-0.088194444,-0.263888889,1,0,0,2.4321,Basalt_rect,2,2.432,1,14,0,14,0,1,,,,,,,,,,,,,
6664597b10bb2abd191df517,SCN,2024-06-20_16h28.32.811,LearnStrategy,2023.2.3,Win32,166.6666667,4,1,16,0.099305556,0.095833333,1,0,0,9.4904,Gabbro_15,4,15,4,5,9.49,0.213888889,-0.244444444,1,0,0,2.8106,Diorite_rect,3,2.811,0,15,0,15,0,1,,,,,,,,,,,,,
6664597b10bb2abd191df517,SCN,2024-06-20_16h28.32.811,LearnStrategy,2023.2.3,Win32,166.6666667,4,2,1,,,,,,,,2,08,,,,,,,,,,,2,0.972,1,,,,,,-0.161111111,-0.254166667,1,0,0,0.9719,Basalt_rect,0,0,0,0,1,
6664597b10bb2abd191df517,SCN,2024-06-20_16h28.32.811,LearnStrategy,2023.2.3,Win32,166.6666667,4,2,2,,,,,,,,1,06,,,,,,,,,,,4,12.228,0,,,,,,0.427777778,-0.250694444,1,0,0,12.228,Gabbro_rect,1,0,1,0,1,
6664597b10bb2abd191df517,SCN,2024-06-20_16h28.32.811,LearnStrategy,2023.2.3,Win32,166.6666667,4,2,3,,,,,,,,3,08,,,,,,,,,,,3,0.868,1,,,,,,0.186111111,-0.24375,1,0,0,0.868,Diorite_rect,2,0,2,0,1,
6664597b10bb2abd191df517,SCN,2024-06-20_16h28.32.811,LearnStrategy,2023.2.3,Win32,166.6666667,4,2,4,,,,,,,,5,10,,,,,,,,,,,5,0.989,1,,,,,,-0.371527778,-0.388194444,1,0,0,0.9892,Obsidian_rect,3,0,3,0,1,
6664597b10bb2abd191df517,SCN,2024-06-20_16h28.32.811,LearnStrategy,2023.2.3,Win32,166.6666667,4,2,5,,,,,,,,7,10,,,,,,,,,,,7,0.976,1,,,,,,0.145138889,-0.390277778,1,0,0,0.9756,Peridotite_rect,4,0,4,0,1,
6664597b10bb2abd191df517,SCN,2024-06-20_16h28.32.811,LearnStrategy,2023.2.3,Win32,166.6666667,4,2,6,,,,,,,,8,10,,,,,,,,,,,8,0.871,1,,,,,,0.350694444,-0.403472222,1,0,0,0.8707,Pumice_rect,5,0,5,0,1,
6664597b10bb2abd191df517,SCN,2024-06-20_16h28.32.811,LearnStrategy,2023.2.3,Win32,166.6666667,4,2,7,,,,,,,,4,12,,,,,,,,,,,4,5.028,1,,,,,,0.361805556,-0.260416667,1,0,0,5.0278,Gabbro_rect,6,0,6,0,1,
6664597b10bb2abd191df517,SCN,2024-06-20_16h28.32.811,LearnStrategy,2023.2.3,Win32,166.6666667,4,2,8,,,,,,,,1,09,,,,,,,,,,,1,1.325,1,,,,,,-0.388194444,-0.228472222,1,0,0,1.3252,Andesite_rect,7,0,7,0,1,
6664597b10bb2abd191df517,SCN,2024-06-20_16h28.32.811,LearnStrategy,2023.2.3,Win32,166.6666667,4,2,9,,,,,,,,6,07,,,,,,,,,,,6,1.002,1,,,,,,-0.077777778,-0.413888889,1,0,0,1.0019,Pegmatite_rect,8,0,8,0,1,
6664597b10bb2abd191df517,SCN,2024-06-20_16h28.32.811,LearnStrategy,2023.2.3,Win32,166.6666667,4,2,10,,,,,,,,2,10,,,,,,,,,,,2,0.96,1,,,,,,-0.091666667,-0.264583333,1,0,0,0.9599,Basalt_rect,9,0,9,0,1,
6664597b10bb2abd191df517,SCN,2024-06-20_16h28.32.811,LearnStrategy,2023.2.3,Win32,166.6666667,4,2,11,,,,,,,,8,05,,,,,,,,,,,8,0.949,1,,,,,,0.352083333,-0.394444444,1,0,0,0.9486,Pumice_rect,10,0,10,0,1,
6664597b10bb2abd191df517,SCN,2024-06-20_16h28.32.811,LearnStrategy,2023.2.3,Win32,166.6666667,4,2,12,,,,,,,,6,11,,,,,,,,,,,6,0.808,1,,,,,,-0.102777778,-0.381944444,1,0,0,0.8083,Pegmatite_rect,11,0,11,0,1,
6664597b10bb2abd191df517,SCN,2024-06-20_16h28.32.811,LearnStrategy,2023.2.3,Win32,166.6666667,4,2,13,,,,,,,,7,05,,,,,,,,,,,7,1.384,1,,,,,,0.183333333,-0.402777778,1,0,0,1.3839,Peridotite_rect,12,0,12,0,1,
6664597b10bb2abd191df517,SCN,2024-06-20_16h28.32.811,LearnStrategy,2023.2.3,Win32,166.6666667,4,2,14,,,,,,,,5,14,,,,,,,,,,,5,0.863,1,,,,,,-0.415277778,-0.3875,1,0,0,0.8633,Obsidian_rect,13,0,13,0,1,
6664597b10bb2abd191df517,SCN,2024-06-20_16h28.32.811,LearnStrategy,2023.2.3,Win32,166.6666667,4,2,15,,,,,,,,4,10,,,,,,,,,,,2,1.126,0,,,,,,-0.103472222,-0.263888889,1,0,0,1.1261,Basalt_rect,14,0,14,0,1,
6664597b10bb2abd191df517,SCN,2024-06-20_16h28.32.811,LearnStrategy,2023.2.3,Win32,166.6666667,4,2,16,,,,,,,,3,12,,,,,,,,,,,3,0.794,1,,,,,,0.090972222,-0.25,1,0,0,0.7944,Diorite_rect,15,0,15,0,1,
6664597b10bb2abd191df517,SCN,2024-06-20_16h28.32.811,LearnStrategy,2023.2.3,Win32,166.6666667,5,1,1,-0.539583333,0.39375,1,0,0,0.8356,Basalt_11,2,11,6,1,0.836,-0.172916667,-0.239583333,1,0,0,6.3772,Basalt_rect,2,6.377,1,0,0,0,0,1,,,,,,,,,,,,,
6664597b10bb2abd191df517,SCN,2024-06-20_16h28.32.811,LearnStrategy,2023.2.3,Win32,166.6666667,5,1,2,0.409027778,0.413888889,1,0,0,1.8052,Peridotite_07,7,07,6,7,1.805,0.190972222,-0.391666667,1,0,0,0.7735,Peridotite_rect,7,0.774,1,1,0,1,0,1,,,,,,,,,,,,,
6664597b10bb2abd191df517,SCN,2024-06-20_16h28.32.811,LearnStrategy,2023.2.3,Win32,166.6666667,5,1,3,-0.063194444,0.3875,1,0,0,2.0231,Andesite_16,1,16,6,4,2.023,0.349305556,-0.241666667,1,0,0,1.1897,Gabbro_rect,4,1.19,0,2,0,2,0,1,,,,,,,,,,,,,
6664597b10bb2abd191df517,SCN,2024-06-20_16h28.32.811,LearnStrategy,2023.2.3,Win32,166.6666667,5,1,4,0.427083333,-0.403472222,1,0,0,6.4169,Gabbro_16,4,16,1,7,6.417,0.357638889,-0.253472222,1,0,0,2.0631,Gabbro_rect,4,2.063,1,3,0,3,0,1,,,,,,,,,,,,,
6664597b10bb2abd191df517,SCN,2024-06-20_16h28.32.811,LearnStrategy,2023.2.3,Win32,166.6666667,5,1,5,-0.565277778,-0.272916667,1,0,0,2.587,Andesite_04,1,04,2,1,2.587,-0.394444444,-0.244444444,1,0,0,1.8277,Andesite_rect,1,1.828,1,4,0,4,0,1,,,,,,,,,,,,,
6664597b10bb2abd191df517,SCN,2024-06-20_16h28.32.811,LearnStrategy,2023.2.3,Win32,166.6666667,5,1,6,-0.563194444,0.380555556,1,0,0,4.5145,Basalt_11,2,11,6,1,4.514,-0.13125,-0.229861111,1,0,0,3.7557,Basalt_rect,2,3.756,1,5,0,5,0,1,,,,,,,,,,,,,
6664597b10bb2abd191df517,SCN,2024-06-20_16h28.32.811,LearnStrategy,2023.2.3,Win32,166.6666667,5,1,7,-0.223611111,0.372916667,1,0,0,1.6538,Gabbro_11,4,11,6,3,1.654,0.415972222,-0.246527778,1,0,0,0.6563,Gabbro_rect,4,0.656,1,6,0,6,0,1,,,,,,,,,,,,,
6664597b10bb2abd191df517,SCN,2024-06-20_16h28.32.811,LearnStrategy,2023.2.3,Win32,166.6666667,5,1,8,-0.061111111,0.370138889,1,0,0,0.8052,Andesite_16,1,16,6,4,0.805,-0.334027778,-0.230555556,1,0,0,1.8575,Andesite_rect,1,1.858,1,7,0,7,0,1,,,,,,,,,,,,,
6664597b10bb2abd191df517,SCN,2024-06-20_16h28.32.811,LearnStrategy,2023.2.3,Win32,166.6666667,5,1,9,-0.376388889,0.225694444,1,0,0,16.7021,Diorite_15,3,15,5,2,16.702,0.152777778,-0.238888889,1,0,0,1.3783,Diorite_rect,3,1.378,1,8,0,8,0,1,,,,,,,,,,,,,
6664597b10bb2abd191df517,SCN,2024-06-20_16h28.32.811,LearnStrategy,2023.2.3,Win32,166.6666667,5,1,10,0.067361111,-0.278472222,1,0,0,9.4963,Pegmatite_12,6,12,2,5,9.496,0.097222222,-0.239583333,1,0,0,0.7207,Diorite_rect,3,0.721,0,9,0,9,0,1,,,,,,,,,,,,,
6664597b10bb2abd191df517,SCN,2024-06-20_16h28.32.811,LearnStrategy,2023.2.3,Win32,166.6666667,5,1,11,0.059722222,-0.419444444,1,0,0,6.3873,Pumice_15,8,15,1,5,6.387,0.359027778,-0.4125,1,0,0,0.546,Pumice_rect,8,0.546,1,10,0,10,0,1,,,,,,,,,,,,,
6664597b10bb2abd191df517,SCN,2024-06-20_16h28.32.811,LearnStrategy,2023.2.3,Win32,166.6666667,5,1,12,0.411805556,-0.429166667,1,0,0,0.6115,Gabbro_16,4,16,1,7,0.611,0.315972222,-0.234027778,1,0,0,2.2625,Gabbro_rect,4,2.262,1,11,0,11,0,1,,,,,,,,,,,,,
6664597b10bb2abd191df517,SCN,2024-06-20_16h28.32.811,LearnStrategy,2023.2.3,Win32,166.6666667,5,1,13,0.406944444,0.116666667,1,0,0,4.8597,Basalt_14,2,14,4,7,4.86,-0.156944444,-0.2625,1,0,0,4.7261,Basalt_rect,2,4.726,1,12,0,12,0,1,,,,,,,,,,,,,
6664597b10bb2abd191df517,SCN,2024-06-20_16h28.32.811,LearnStrategy,2023.2.3,Win32,166.6666667,5,1,14,0.344444444,-0.397222222,1,0,0,0.8599,Gabbro_16,4,16,1,7,0.86,0.385416667,-0.235416667,1,0,0,3.7546,Gabbro_rect,4,3.755,1,13,0,13,0,1,,,,,,,,,,,,,
6664597b10bb2abd191df517,SCN,2024-06-20_16h28.32.811,LearnStrategy,2023.2.3,Win32,166.6666667,5,1,15,0.111805556,-0.13125,1,0,0,2.4901,Basalt_02,2,02,3,5,2.49,-0.098611111,-0.239583333,1,0,0,2.2914,Basalt_rect,2,2.291,1,14,0,14,0,1,,,,,,,,,,,,,
6664597b10bb2abd191df517,SCN,2024-06-20_16h28.32.811,LearnStrategy,2023.2.3,Win32,166.6666667,5,1,16,-0.110416667,0.410416667,1,0,0,6.9631,Andesite_16,1,16,6,4,6.963,-0.333333333,-0.245138889,1,0,0,0.8796,Andesite_rect,1,0.88,1,15,0,15,0,1,,,,,,,,,,,,,
6664597b10bb2abd191df517,SCN,2024-06-20_16h28.32.811,LearnStrategy,2023.2.3,Win32,166.6666667,5,2,1,,,,,,,,2,12,,,,,,,,,,,1,10.297,0,,,,,,-0.365972222,-0.233333333,1,0,0,10.2966,Andesite_rect,0,0,0,0,1,
6664597b10bb2abd191df517,SCN,2024-06-20_16h28.32.811,LearnStrategy,2023.2.3,Win32,166.6666667,5,2,2,,,,,,,,8,06,,,,,,,,,,,8,1.208,1,,,,,,0.404861111,-0.399305556,1,0,0,1.208,Pumice_rect,1,0,1,0,1,
6664597b10bb2abd191df517,SCN,2024-06-20_16h28.32.811,LearnStrategy,2023.2.3,Win32,166.6666667,5,2,3,,,,,,,,3,09,,,,,,,,,,,3,0.82,1,,,,,,0.163888889,-0.242361111,1,0,0,0.8203,Diorite_rect,2,0,2,0,1,
6664597b10bb2abd191df517,SCN,2024-06-20_16h28.32.811,LearnStrategy,2023.2.3,Win32,166.6666667,5,2,4,,,,,,,,1,01,,,,,,,,,,,4,8.942,0,,,,,,0.340972222,-0.243055556,1,0,0,8.9418,Gabbro_rect,3,0,3,0,1,
6664597b10bb2abd191df517,SCN,2024-06-20_16h28.32.811,LearnStrategy,2023.2.3,Win32,166.6666667,5,2,5,,,,,,,,7,14,,,,,,,,,,,7,5.056,1,,,,,,0.077083333,-0.384722222,1,0,0,5.0564,Peridotite_rect,4,0,4,0,1,
6664597b10bb2abd191df517,SCN,2024-06-20_16h28.32.811,LearnStrategy,2023.2.3,Win32,166.6666667,5,2,6,,,,,,,,8,04,,,,,,,,,,,8,1.015,1,,,,,,0.365972222,-0.415972222,1,0,0,1.0149,Pumice_rect,5,0,5,0,1,
6664597b10bb2abd191df517,SCN,2024-06-20_16h28.32.811,LearnStrategy,2023.2.3,Win32,166.6666667,5,2,7,,,,,,,,6,09,,,,,,,,,,,6,1.348,1,,,,,,-0.109722222,-0.3875,1,0,0,1.3484,Pegmatite_rect,6,0,6,0,1,
6664597b10bb2abd191df517,SCN,2024-06-20_16h28.32.811,LearnStrategy,2023.2.3,Win32,166.6666667,5,2,8,,,,,,,,5,02,,,,,,,,,,,5,0.868,1,,,,,,-0.384722222,-0.383333333,1,0,0,0.8683,Obsidian_rect,7,0,7,0,1,
6664597b10bb2abd191df517,SCN,2024-06-20_16h28.32.811,LearnStrategy,2023.2.3,Win32,166.6666667,5,2,9,,,,,,,,7,02,,,,,,,,,,,7,1.433,1,,,,,,0.114583333,-0.397916667,1,0,0,1.4328,Peridotite_rect,8,0,8,0,1,
6664597b10bb2abd191df517,SCN,2024-06-20_16h28.32.811,LearnStrategy,2023.2.3,Win32,166.6666667,5,2,10,,,,,,,,2,01,,,,,,,,,,,2,1.972,1,,,,,,-0.161805556,-0.265972222,1,0,0,1.9718,Basalt_rect,9,0,9,0,1,
6664597b10bb2abd191df517,SCN,2024-06-20_16h28.32.811,LearnStrategy,2023.2.3,Win32,166.6666667,5,2,11,,,,,,,,6,15,,,,,,,,,,,6,0.795,1,,,,,,-0.1125,-0.395138889,1,0,0,0.7954,Pegmatite_rect,10,0,10,0,1,
6664597b10bb2abd191df517,SCN,2024-06-20_16h28.32.811,LearnStrategy,2023.2.3,Win32,166.6666667,5,2,12,,,,,,,,5,07,,,,,,,,,,,5,0.882,1,,,,,,-0.348611111,-0.397916667,1,0,0,0.8822,Obsidian_rect,11,0,11,0,1,
6664597b10bb2abd191df517,SCN,2024-06-20_16h28.32.811,LearnStrategy,2023.2.3,Win32,166.6666667,5,2,13,,,,,,,,1,07,,,,,,,,,,,6,6.422,0,,,,,,-0.123611111,-0.389583333,1,0,0,6.4224,Pegmatite_rect,12,0,12,0,1,
6664597b10bb2abd191df517,SCN,2024-06-20_16h28.32.811,LearnStrategy,2023.2.3,Win32,166.6666667,5,2,14,,,,,,,,3,11,,,,,,,,,,,3,2.936,1,,,,,,0.115277778,-0.233333333,1,0,0,2.9357,Diorite_rect,13,0,13,0,1,
6664597b10bb2abd191df517,SCN,2024-06-20_16h28.32.811,LearnStrategy,2023.2.3,Win32,166.6666667,5,2,15,,,,,,,,4,13,,,,,,,,,,,4,6.43,1,,,,,,0.376388889,-0.259722222,1,0,0,6.4299,Gabbro_rect,14,0,14,0,1,
6664597b10bb2abd191df517,SCN,2024-06-20_16h28.32.811,LearnStrategy,2023.2.3,Win32,166.6666667,5,2,16,,,,,,,,4,09,,,,,,,,,,,2,1.397,0,,,,,,-0.098611111,-0.257638889,1,0,0,1.3973,Basalt_rect,15,0,15,0,1,
6664597b10bb2abd191df517,SCN,2024-06-20_16h28.32.811,LearnStrategy,2023.2.3,Win32,166.6666667,6,1,1,-0.529166667,0.225,1,0,0,0.9568,Gabbro_03,4,03,5,1,0.957,0.344444444,-0.236805556,1,0,0,1.0136,Gabbro_rect,4,1.014,1,0,0,0,0,1,,,,,,,,,,,,,
6664597b10bb2abd191df517,SCN,2024-06-20_16h28.32.811,LearnStrategy,2023.2.3,Win32,166.6666667,6,1,2,-0.525694444,0.377083333,1,0,0,0.8416,Basalt_11,2,11,6,1,0.842,-0.090277778,-0.266666667,1,0,0,2.2867,Basalt_rect,2,2.287,1,1,0,1,0,1,,,,,,,,,,,,,
6664597b10bb2abd191df517,SCN,2024-06-20_16h28.32.811,LearnStrategy,2023.2.3,Win32,166.6666667,6,1,3,-0.225694444,0.41875,1,0,0,1.2353,Gabbro_11,4,11,6,3,1.235,-0.104861111,-0.26875,1,0,0,0.9955,Basalt_rect,2,0.996,0,2,0,2,0,1,,,,,,,,,,,,,
6664597b10bb2abd191df517,SCN,2024-06-20_16h28.32.811,LearnStrategy,2023.2.3,Win32,166.6666667,6,1,4,-0.204861111,0.388194444,1,0,0,0.3995,Gabbro_11,4,11,6,3,0.399,0.342361111,-0.261805556,1,0,0,0.536,Gabbro_rect,4,0.536,1,3,0,3,0,1,,,,,,,,,,,,,
6664597b10bb2abd191df517,SCN,2024-06-20_16h28.32.811,LearnStrategy,2023.2.3,Win32,166.6666667,6,1,5,0.549305556,0.391666667,1,0,0,1.1024,Andesite_03,1,03,6,8,1.102,-0.36875,-0.265972222,1,0,0,0.5723,Andesite_rect,1,0.572,1,4,0,4,0,1,,,,,,,,,,,,,
6664597b10bb2abd191df517,SCN,2024-06-20_16h28.32.811,LearnStrategy,2023.2.3,Win32,166.6666667,6,1,6,-0.228472222,0.363888889,1,0,0,0.5206,Gabbro_11,4,11,6,3,0.521,0.426388889,-0.254166667,1,0,0,0.5895,Gabbro_rect,4,0.59,1,5,0,5,0,1,,,,,,,,,,,,,
6664597b10bb2abd191df517,SCN,2024-06-20_16h28.32.811,LearnStrategy,2023.2.3,Win32,166.6666667,6,1,7,0.405555556,-0.458333333,1,0,0,0.6236,Gabbro_16,4,16,1,7,0.624,0.405555556,-0.2625,1,0,0,0.4513,Gabbro_rect,4,0.451,1,6,0,6,0,1,,,,,,,,,,,,,
6664597b10bb2abd191df517,SCN,2024-06-20_16h28.32.811,LearnStrategy,2023.2.3,Win32,166.6666667,6,1,8,0.092361111,0.1,1,0,0,9.0356,Gabbro_15,4,15,4,5,9.036,0.190972222,-0.254861111,1,0,0,1.7235,Diorite_rect,3,1.724,0,7,0,7,0,1,,,,,,,,,,,,,
6664597b10bb2abd191df517,SCN,2024-06-20_16h28.32.811,LearnStrategy,2023.2.3,Win32,166.6666667,6,1,9,0.104861111,0.086111111,1,0,0,0.5689,Gabbro_15,4,15,4,5,0.569,0.327083333,-0.24375,1,0,0,0.692,Gabbro_rect,4,0.692,1,8,0,8,0,1,,,,,,,,,,,,,
6664597b10bb2abd191df517,SCN,2024-06-20_16h28.32.811,LearnStrategy,2023.2.3,Win32,166.6666667,6,1,10,0.232638889,0.393055556,1,0,0,8.0054,Andesite_02,1,02,6,6,8.005,-0.388194444,-0.254166667,1,0,0,0.6028,Andesite_rect,1,0.603,1,9,0,9,0,1,,,,,,,,,,,,,
6664597b10bb2abd191df517,SCN,2024-06-20_16h28.32.811,LearnStrategy,2023.2.3,Win32,166.6666667,6,1,11,-0.102083333,0.378472222,1,0,0,1.1084,Andesite_16,1,16,6,4,1.108,-0.406944444,-0.25625,1,0,0,0.4247,Andesite_rect,1,0.425,1,10,0,10,0,1,,,,,,,,,,,,,
6664597b10bb2abd191df517,SCN,2024-06-20_16h28.32.811,LearnStrategy,2023.2.3,Win32,166.6666667,6,1,12,-0.25625,0.394444444,1,0,0,0.7449,Gabbro_11,4,11,6,3,0.745,0.324305556,-0.258333333,1,0,0,0.576,Gabbro_rect,4,0.576,1,11,0,11,0,1,,,,,,,,,,,,,
6664597b10bb2abd191df517,SCN,2024-06-20_16h28.32.811,LearnStrategy,2023.2.3,Win32,166.6666667,6,1,13,-0.505555556,0.372222222,1,0,0,0.4904,Basalt_11,2,11,6,1,0.49,-0.358333333,-0.25625,1,0,0,1.9533,Andesite_rect,1,1.953,0,12,0,12,0,1,,,,,,,,,,,,,
6664597b10bb2abd191df517,SCN,2024-06-20_16h28.32.811,LearnStrategy,2023.2.3,Win32,166.6666667,6,1,14,-0.531944444,0.232638889,1,0,0,1.4354,Gabbro_03,4,03,5,1,1.435,0.418055556,-0.2375,1,0,0,0.5069,Gabbro_rect,4,0.507,1,13,0,13,0,1,,,,,,,,,,,,,
6664597b10bb2abd191df517,SCN,2024-06-20_16h28.32.811,LearnStrategy,2023.2.3,Win32,166.6666667,6,1,15,-0.557638889,0.363888889,1,0,0,0.5207,Basalt_11,2,11,6,1,0.521,-0.134027778,-0.263194444,1,0,0,1.1315,Basalt_rect,2,1.131,1,14,0,14,0,1,,,,,,,,,,,,,
6664597b10bb2abd191df517,SCN,2024-06-20_16h28.32.811,LearnStrategy,2023.2.3,Win32,166.6666667,6,1,16,0.397916667,0.067361111,1,0,0,0.7993,Basalt_14,2,14,4,7,0.799,-0.108333333,-0.247916667,1,0,0,0.6518,Basalt_rect,2,0.652,1,15,0,15,0,1,,,,,,,,,,,,,
6664597b10bb2abd191df517,SCN,2024-06-20_16h28.32.811,LearnStrategy,2023.2.3,Win32,166.6666667,6,2,1,,,,,,,,5,16,,,,,,,,,,,5,0.881,1,,,,,,-0.384027778,-0.411111111,1,0,0,0.8812,Obsidian_rect,0,0,0,0,1,
6664597b10bb2abd191df517,SCN,2024-06-20_16h28.32.811,LearnStrategy,2023.2.3,Win32,166.6666667,6,2,2,,,,,,,,8,16,,,,,,,,,,,8,0.954,1,,,,,,0.384722222,-0.397916667,1,0,0,0.9543,Pumice_rect,1,0,1,0,1,
6664597b10bb2abd191df517,SCN,2024-06-20_16h28.32.811,LearnStrategy,2023.2.3,Win32,166.6666667,6,2,3,,,,,,,,6,08,,,,,,,,,,,6,1.178,1,,,,,,-0.105555556,-0.397222222,1,0,0,1.1778,Pegmatite_rect,2,0,2,0,1,
6664597b10bb2abd191df517,SCN,2024-06-20_16h28.32.811,LearnStrategy,2023.2.3,Win32,166.6666667,6,2,4,,,,,,,,2,06,,,,,,,,,,,2,0.845,1,,,,,,-0.097222222,-0.2375,1,0,0,0.8446,Basalt_rect,3,0,3,0,1,
6664597b10bb2abd191df517,SCN,2024-06-20_16h28.32.811,LearnStrategy,2023.2.3,Win32,166.6666667,6,2,5,,,,,,,,7,08,,,,,,,,,,,7,0.844,1,,,,,,0.166666667,-0.420833333,1,0,0,0.8442,Peridotite_rect,4,0,4,0,1,
6664597b10bb2abd191df517,SCN,2024-06-20_16h28.32.811,LearnStrategy,2023.2.3,Win32,166.6666667,6,2,6,,,,,,,,7,12,,,,,,,,,,,7,0.807,1,,,,,,0.070833333,-0.4,1,0,0,0.8066,Peridotite_rect,5,0,5,0,1,
6664597b10bb2abd191df517,SCN,2024-06-20_16h28.32.811,LearnStrategy,2023.2.3,Win32,166.6666667,6,2,7,,,,,,,,4,08,,,,,,,,,,,4,2.161,1,,,,,,0.341666667,-0.251388889,1,0,0,2.1609,Gabbro_rect,6,0,6,0,1,
6664597b10bb2abd191df517,SCN,2024-06-20_16h28.32.811,LearnStrategy,2023.2.3,Win32,166.6666667,6,2,8,,,,,,,,6,16,,,,,,,,,,,6,1.123,1,,,,,,-0.078472222,-0.39375,1,0,0,1.123,Pegmatite_rect,7,0,7,0,1,
6664597b10bb2abd191df517,SCN,2024-06-20_16h28.32.811,LearnStrategy,2023.2.3,Win32,166.6666667,6,2,9,,,,,,,,8,08,,,,,,,,,,,8,1.281,1,,,,,,0.381944444,-0.402777778,1,0,0,1.2813,Pumice_rect,8,0,8,0,1,
6664597b10bb2abd191df517,SCN,2024-06-20_16h28.32.811,LearnStrategy,2023.2.3,Win32,166.6666667,6,2,10,,,,,,,,4,14,,,,,,,,,,,4,3.361,1,,,,,,0.384722222,-0.260416667,1,0,0,3.3614,Gabbro_rect,9,0,9,0,1,
6664597b10bb2abd191df517,SCN,2024-06-20_16h28.32.811,LearnStrategy,2023.2.3,Win32,166.6666667,6,2,11,,,,,,,,3,10,,,,,,,,,,,3,1.132,1,,,,,,0.11875,-0.246527778,1,0,0,1.1317,Diorite_rect,10,0,10,0,1,
6664597b10bb2abd191df517,SCN,2024-06-20_16h28.32.811,LearnStrategy,2023.2.3,Win32,166.6666667,6,2,12,,,,,,,,3,02,,,,,,,,,,,3,1.051,1,,,,,,0.168055556,-0.236111111,1,0,0,1.0506,Diorite_rect,11,0,11,0,1,
6664597b10bb2abd191df517,SCN,2024-06-20_16h28.32.811,LearnStrategy,2023.2.3,Win32,166.6666667,6,2,13,,,,,,,,2,16,,,,,,,,,,,2,2.986,1,,,,,,-0.120138889,-0.253472222,1,0,0,2.9863,Basalt_rect,12,0,12,0,1,
6664597b10bb2abd191df517,SCN,2024-06-20_16h28.32.811,LearnStrategy,2023.2.3,Win32,166.6666667,6,2,14,,,,,,,,1,05,,,,,,,,,,,7,4.652,0,,,,,,0.143055556,-0.38125,1,0,0,4.6524,Peridotite_rect,13,0,13,0,1,
6664597b10bb2abd191df517,SCN,2024-06-20_16h28.32.811,LearnStrategy,2023.2.3,Win32,166.6666667,6,2,15,,,,,,,,1,14,,,,,,,,,,,6,1.852,0,,,,,,-0.134722222,-0.400694444,1,0,0,1.8522,Pegmatite_rect,14,0,14,0,1,
6664597b10bb2abd191df517,SCN,2024-06-20_16h28.32.811,LearnStrategy,2023.2.3,Win32,166.6666667,6,2,16,,,,,,,,5,08,,,,,,,,,,,5,0.765,1,,,,,,-0.377777778,-0.398611111,1,0,0,0.7655,Obsidian_rect,15,0,15,0,1,
6664597b10bb2abd191df517,SCN,2024-06-20_16h28.32.811,LearnStrategy,2023.2.3,Win32,166.6666667,7,1,1,-0.217361111,-0.129861111,1,0,0,0.8478,Obsidian_12,5,12,3,3,0.848,-0.3625,-0.378472222,1,0,0,1.2323,Obsidian_rect,5,1.232,1,0,0,0,0,1,,,,,,,,,,,,,
6664597b10bb2abd191df517,SCN,2024-06-20_16h28.32.811,LearnStrategy,2023.2.3,Win32,166.6666667,7,1,2,-0.194444444,-0.10625,1,0,0,0.4477,Obsidian_12,5,12,3,3,0.448,-0.388194444,-0.406944444,1,0,0,0.39,Obsidian_rect,5,0.39,1,1,0,1,0,1,,,,,,,,,,,,,
6664597b10bb2abd191df517,SCN,2024-06-20_16h28.32.811,LearnStrategy,2023.2.3,Win32,166.6666667,7,1,3,-0.206944444,-0.135416667,1,0,0,0.333,Obsidian_12,5,12,3,3,0.333,-0.365277778,-0.4,1,0,0,0.86,Obsidian_rect,5,0.86,1,2,0,2,0,1,,,,,,,,,,,,,
6664597b10bb2abd191df517,SCN,2024-06-20_16h28.32.811,LearnStrategy,2023.2.3,Win32,166.6666667,7,1,4,-0.244444444,-0.110416667,1,0,0,0.3931,Obsidian_12,5,12,3,3,0.393,-0.369444444,-0.406944444,1,0,0,0.3976,Obsidian_rect,5,0.398,1,3,0,3,0,1,,,,,,,,,,,,,
6664597b10bb2abd191df517,SCN,2024-06-20_16h28.32.811,LearnStrategy,2023.2.3,Win32,166.6666667,7,1,5,-0.250694444,-0.110416667,1,0,0,0.4605,Obsidian_12,5,12,3,3,0.46,-0.394444444,-0.396527778,1,0,0,0.4012,Obsidian_rect,5,0.401,1,4,0,4,0,1,,,,,,,,,,,,,
6664597b10bb2abd191df517,SCN,2024-06-20_16h28.32.811,LearnStrategy,2023.2.3,Win32,166.6666667,7,1,6,-0.263194444,-0.134027778,1,0,0,0.3629,Obsidian_12,5,12,3,3,0.363,-0.338888889,-0.404166667,1,0,0,0.7671,Obsidian_rect,5,0.767,1,5,0,5,0,1,,,,,,,,,,,,,
6664597b10bb2abd191df517,SCN,2024-06-20_16h28.32.811,LearnStrategy,2023.2.3,Win32,166.6666667,7,1,7,-0.221527778,-0.116666667,1,0,0,0.4056,Obsidian_12,5,12,3,3,0.406,-0.316666667,-0.404166667,1,0,0,0.9962,Obsidian_rect,5,0.996,1,6,0,6,0,1,,,,,,,,,,,,,
6664597b10bb2abd191df517,SCN,2024-06-20_16h28.32.811,LearnStrategy,2023.2.3,Win32,166.6666667,7,1,8,-0.210416667,-0.141666667,1,0,0,0.3142,Obsidian_12,5,12,3,3,0.314,-0.369444444,-0.385416667,1,0,0,0.3788,Obsidian_rect,5,0.379,1,7,0,7,0,1,,,,,,,,,,,,,
6664597b10bb2abd191df517,SCN,2024-06-20_16h28.32.811,LearnStrategy,2023.2.3,Win32,166.6666667,7,1,9,-0.198611111,-0.09375,1,0,0,0.4056,Obsidian_12,5,12,3,3,0.406,-0.404861111,-0.393055556,1,0,0,0.3913,Obsidian_rect,5,0.391,1,8,0,8,0,1,,,,,,,,,,,,,
6664597b10bb2abd191df517,SCN,2024-06-20_16h28.32.811,LearnStrategy,2023.2.3,Win32,166.6666667,7,1,10,-0.252777778,-0.139583333,1,0,0,0.5752,Obsidian_12,5,12,3,3,0.575,-0.369444444,-0.385416667,1,0,0,0.4988,Obsidian_rect,5,0.499,1,9,0,9,0,1,,,,,,,,,,,,,
6664597b10bb2abd191df517,SCN,2024-06-20_16h28.32.811,LearnStrategy,2023.2.3,Win32,166.6666667,7,1,11,-0.211111111,-0.115972222,1,0,0,0.3387,Obsidian_12,5,12,3,3,0.339,-0.334722222,-0.391666667,1,0,0,0.3887,Obsidian_rect,5,0.389,1,10,0,10,0,1,,,,,,,,,,,,,
6664597b10bb2abd191df517,SCN,2024-06-20_16h28.32.811,LearnStrategy,2023.2.3,Win32,166.6666667,7,1,12,-0.257638889,-0.101388889,1,0,0,0.3567,Obsidian_12,5,12,3,3,0.357,-0.359722222,-0.399305556,1,0,0,0.3946,Obsidian_rect,5,0.395,1,11,0,11,0,1,,,,,,,,,,,,,
6664597b10bb2abd191df517,SCN,2024-06-20_16h28.32.811,LearnStrategy,2023.2.3,Win32,166.6666667,7,1,13,-0.231944444,-0.13125,1,0,0,0.3387,Obsidian_12,5,12,3,3,0.339,-0.327083333,-0.409722222,1,0,0,0.3791,Obsidian_rect,5,0.379,1,12,0,12,0,1,,,,,,,,,,,,,
6664597b10bb2abd191df517,SCN,2024-06-20_16h28.32.811,LearnStrategy,2023.2.3,Win32,166.6666667,7,1,14,-0.263194444,-0.120833333,1,0,0,0.3206,Obsidian_12,5,12,3,3,0.321,-0.367361111,-0.3875,1,0,0,0.3335,Obsidian_rect,5,0.333,1,13,0,13,0,1,,,,,,,,,,,,,
6664597b10bb2abd191df517,SCN,2024-06-20_16h28.32.811,LearnStrategy,2023.2.3,Win32,166.6666667,7,1,15,-0.217361111,-0.083333333,1,0,0,0.4296,Obsidian_12,5,12,3,3,0.43,-0.343055556,-0.402083333,1,0,0,0.3981,Obsidian_rect,5,0.398,1,14,0,14,0,1,,,,,,,,,,,,,
6664597b10bb2abd191df517,SCN,2024-06-20_16h28.32.811,LearnStrategy,2023.2.3,Win32,166.6666667,7,1,16,-0.185416667,-0.094444444,1,0,0,0.3592,Obsidian_12,5,12,3,3,0.359,-0.327777778,-0.395138889,1,0,0,0.3877,Obsidian_rect,5,0.388,1,15,0,15,0,1,,,,,,,,,,,,,
6664597b10bb2abd191df517,SCN,2024-06-20_16h28.32.811,LearnStrategy,2023.2.3,Win32,166.6666667,7,2,1,,,,,,,,1,01,,,,,,,,,,,4,2.531,0,,,,,,0.338194444,-0.247222222,1,0,0,2.5306,Gabbro_rect,0,0,0,0,1,
6664597b10bb2abd191df517,SCN,2024-06-20_16h28.32.811,LearnStrategy,2023.2.3,Win32,166.6666667,7,2,2,,,,,,,,6,07,,,,,,,,,,,6,0.769,1,,,,,,-0.071527778,-0.404166667,1,0,0,0.7686,Pegmatite_rect,1,0,1,0,1,
6664597b10bb2abd191df517,SCN,2024-06-20_16h28.32.811,LearnStrategy,2023.2.3,Win32,166.6666667,7,2,3,,,,,,,,3,11,,,,,,,,,,,3,0.73,1,,,,,,0.145138889,-0.233333333,1,0,0,0.7296,Diorite_rect,2,0,2,0,1,
6664597b10bb2abd191df517,SCN,2024-06-20_16h28.32.811,LearnStrategy,2023.2.3,Win32,166.6666667,7,2,4,,,,,,,,5,02,,,,,,,,,,,5,0.742,1,,,,,,-0.376388889,-0.396527778,1,0,0,0.7425,Obsidian_rect,3,0,3,0,1,
6664597b10bb2abd191df517,SCN,2024-06-20_16h28.32.811,LearnStrategy,2023.2.3,Win32,166.6666667,7,2,5,,,,,,,,7,12,,,,,,,,,,,7,0.711,1,,,,,,0.125,-0.381944444,1,0,0,0.7115,Peridotite_rect,4,0,4,0,1,
6664597b10bb2abd191df517,SCN,2024-06-20_16h28.32.811,LearnStrategy,2023.2.3,Win32,166.6666667,7,2,6,,,,,,,,4,13,,,,,,,,,,,4,6.893,1,,,,,,0.369444444,-0.257638889,1,0,0,6.8934,Gabbro_rect,5,0,5,0,1,
6664597b10bb2abd191df517,SCN,2024-06-20_16h28.32.811,LearnStrategy,2023.2.3,Win32,166.6666667,7,2,7,,,,,,,,1,05,,,,,,,,,,,1,5.765,1,,,,,,-0.398611111,-0.268055556,1,0,0,5.7651,Andesite_rect,6,0,6,0,1,
6664597b10bb2abd191df517,SCN,2024-06-20_16h28.32.811,LearnStrategy,2023.2.3,Win32,166.6666667,7,2,8,,,,,,,,5,16,,,,,,,,,,,5,0.742,1,,,,,,-0.375,-0.389583333,1,0,0,0.7417,Obsidian_rect,7,0,7,0,1,
6664597b10bb2abd191df517,SCN,2024-06-20_16h28.32.811,LearnStrategy,2023.2.3,Win32,166.6666667,7,2,9,,,,,,,,8,05,,,,,,,,,,,8,0.815,1,,,,,,0.390277778,-0.381944444,1,0,0,0.8146,Pumice_rect,8,0,8,0,1,
6664597b10bb2abd191df517,SCN,2024-06-20_16h28.32.811,LearnStrategy,2023.2.3,Win32,166.6666667,7,2,10,,,,,,,,3,02,,,,,,,,,,,3,0.748,1,,,,,,0.077083333,-0.269444444,1,0,0,0.7477,Diorite_rect,9,0,9,0,1,
6664597b10bb2abd191df517,SCN,2024-06-20_16h28.32.811,LearnStrategy,2023.2.3,Win32,166.6666667,7,2,11,,,,,,,,2,01,,,,,,,,,,,2,0.739,1,,,,,,-0.115277778,-0.259722222,1,0,0,0.7392,Basalt_rect,10,0,10,0,1,
6664597b10bb2abd191df517,SCN,2024-06-20_16h28.32.811,LearnStrategy,2023.2.3,Win32,166.6666667,7,2,12,,,,,,,,6,16,,,,,,,,,,,6,0.742,1,,,,,,-0.106944444,-0.397916667,1,0,0,0.7422,Pegmatite_rect,11,0,11,0,1,
6664597b10bb2abd191df517,SCN,2024-06-20_16h28.32.811,LearnStrategy,2023.2.3,Win32,166.6666667,7,2,13,,,,,,,,4,12,,,,,,,,,,,4,3.035,1,,,,,,0.331944444,-0.265972222,1,0,0,3.0346,Gabbro_rect,12,0,12,0,1,
6664597b10bb2abd191df517,SCN,2024-06-20_16h28.32.811,LearnStrategy,2023.2.3,Win32,166.6666667,7,2,14,,,,,,,,8,10,,,,,,,,,,,8,0.775,1,,,,,,0.372916667,-0.396527778,1,0,0,0.7746,Pumice_rect,13,0,13,0,1,
6664597b10bb2abd191df517,SCN,2024-06-20_16h28.32.811,LearnStrategy,2023.2.3,Win32,166.6666667,7,2,15,,,,,,,,2,12,,,,,,,,,,,1,4.23,0,,,,,,-0.302777778,-0.256944444,1,0,0,4.23,Andesite_rect,14,0,14,0,1,
6664597b10bb2abd191df517,SCN,2024-06-20_16h28.32.811,LearnStrategy,2023.2.3,Win32,166.6666667,7,2,16,,,,,,,,7,08,,,,,,,,,,,7,0.79,1,,,,,,0.154166667,-0.402777778,1,0,0,0.7904,Peridotite_rect,15,0,15,0,1,
6664597b10bb2abd191df517,SCN,2024-06-20_16h28.32.811,LearnStrategy,2023.2.3,Win32,166.6666667,8,1,1,-0.526388889,0.386111111,1,0,0,4.266,Basalt_11,2,11,6,1,4.266,-0.163194444,-0.268055556,1,0,0,0.816,Basalt_rect,2,0.816,1,0,0,0,0,1,,,,,,,,,,,,,
6664597b10bb2abd191df517,SCN,2024-06-20_16h28.32.811,LearnStrategy,2023.2.3,Win32,166.6666667,8,1,2,-0.51875,0.291666667,1,0,0,0.4539,Gabbro_03,4,03,5,1,0.454,0.363888889,-0.267361111,1,0,0,0.8273,Gabbro_rect,4,0.827,1,1,0,1,0,1,,,,,,,,,,,,,
6664597b10bb2abd191df517,SCN,2024-06-20_16h28.32.811,LearnStrategy,2023.2.3,Win32,166.6666667,8,1,3,0.395833333,0.365277778,1,0,0,0.6298,Peridotite_07,7,07,6,7,0.63,0.190277778,-0.388194444,1,0,0,0.9003,Peridotite_rect,7,0.9,1,2,0,2,0,1,,,,,,,,,,,,,
6664597b10bb2abd191df517,SCN,2024-06-20_16h28.32.811,LearnStrategy,2023.2.3,Win32,166.6666667,8,1,4,-0.240972222,-0.245138889,1,0,0,0.6598,Peridotite_04,7,04,2,3,0.66,0.181944444,-0.393055556,1,0,0,0.7774,Peridotite_rect,7,0.777,1,3,0,3,0,1,,,,,,,,,,,,,
6664597b10bb2abd191df517,SCN,2024-06-20_16h28.32.811,LearnStrategy,2023.2.3,Win32,166.6666667,8,1,5,-0.215277778,0.119444444,1,0,0,0.8238,Peridotite_15,7,15,4,3,0.824,0.132638889,-0.395138889,1,0,0,0.5655,Peridotite_rect,7,0.566,1,4,0,4,0,1,,,,,,,,,,,,,
6664597b10bb2abd191df517,SCN,2024-06-20_16h28.32.811,LearnStrategy,2023.2.3,Win32,166.6666667,8,1,6,-0.420138889,-0.419444444,1,0,0,1.2175,Basalt_05,2,05,1,2,1.217,-0.209027778,-0.26875,1,0,0,0.8136,Basalt_rect,2,0.814,1,5,0,5,0,1,,,,,,,,,,,,,
6664597b10bb2abd191df517,SCN,2024-06-20_16h28.32.811,LearnStrategy,2023.2.3,Win32,166.6666667,8,1,7,0.354861111,-0.076388889,1,0,0,0.345,Andesite_11,1,11,3,7,0.345,-0.410416667,-0.241666667,1,0,0,1.4377,Andesite_rect,1,1.438,1,6,0,6,0,1,,,,,,,,,,,,,
6664597b10bb2abd191df517,SCN,2024-06-20_16h28.32.811,LearnStrategy,2023.2.3,Win32,166.6666667,8,1,8,0.267361111,0.094444444,1,0,0,0.6964,Pumice_14,8,14,4,6,0.696,0.361111111,-0.394444444,1,0,0,1.6337,Pumice_rect,8,1.634,1,7,0,7,0,1,,,,,,,,,,,,,
6664597b10bb2abd191df517,SCN,2024-06-20_16h28.32.811,LearnStrategy,2023.2.3,Win32,166.6666667,8,1,9,-0.052083333,0.084027778,1,0,0,0.351,Pumice_02,8,02,4,4,0.351,0.381944444,-0.382638889,1,0,0,0.7794,Pumice_rect,8,0.779,1,8,0,8,0,1,,,,,,,,,,,,,
6664597b10bb2abd191df517,SCN,2024-06-20_16h28.32.811,LearnStrategy,2023.2.3,Win32,166.6666667,8,1,10,0.248611111,0.221527778,1,0,0,0.3572,Pegmatite_13,6,13,5,6,0.357,-0.122222222,-0.397916667,1,0,0,0.7172,Pegmatite_rect,6,0.717,1,9,0,9,0,1,,,,,,,,,,,,,
6664597b10bb2abd191df517,SCN,2024-06-20_16h28.32.811,LearnStrategy,2023.2.3,Win32,166.6666667,8,1,11,0.413194444,0.202777778,1,0,0,0.5449,Diorite_16,3,16,5,7,0.545,0.122916667,-0.240972222,1,0,0,0.5844,Diorite_rect,3,0.584,1,10,0,10,0,1,,,,,,,,,,,,,
6664597b10bb2abd191df517,SCN,2024-06-20_16h28.32.811,LearnStrategy,2023.2.3,Win32,166.6666667,8,1,12,-0.559027778,-0.097222222,1,0,0,0.6601,Pumice_03,8,03,3,1,0.66,0.367361111,-0.39375,1,0,0,0.7216,Pumice_rect,8,0.722,1,11,0,11,0,1,,,,,,,,,,,,,
6664597b10bb2abd191df517,SCN,2024-06-20_16h28.32.811,LearnStrategy,2023.2.3,Win32,166.6666667,8,1,13,-0.504166667,-0.39375,1,0,0,0.5265,Gabbro_01,4,01,1,1,0.526,0.341666667,-0.247222222,1,0,0,1.8451,Gabbro_rect,4,1.845,1,12,0,12,0,1,,,,,,,,,,,,,
6664597b10bb2abd191df517,SCN,2024-06-20_16h28.32.811,LearnStrategy,2023.2.3,Win32,166.6666667,8,1,14,0.53125,0.061111111,1,0,0,0.5752,Obsidian_11,5,11,4,8,0.575,-0.354166667,-0.403472222,1,0,0,0.6383,Obsidian_rect,5,0.638,1,13,0,13,0,1,,,,,,,,,,,,,
6664597b10bb2abd191df517,SCN,2024-06-20_16h28.32.811,LearnStrategy,2023.2.3,Win32,166.6666667,8,1,15,0.105555556,0.221527778,1,0,0,0.4964,Peridotite_16,7,16,5,5,0.496,0.131944444,-0.407638889,1,0,0,0.6561,Peridotite_rect,7,0.656,1,14,0,14,0,1,,,,,,,,,,,,,
6664597b10bb2abd191df517,SCN,2024-06-20_16h28.32.811,LearnStrategy,2023.2.3,Win32,166.6666667,8,1,16,-0.216666667,0.230555556,1,0,0,0.4964,Pegmatite_05,6,05,5,3,0.496,-0.138888889,-0.420138889,1,0,0,1.0322,Pegmatite_rect,6,1.032,1,15,0,15,0,1,,,,,,,,,,,,,
6664597b10bb2abd191df517,SCN,2024-06-20_16h28.32.811,LearnStrategy,2023.2.3,Win32,166.6666667,8,2,1,,,,,,,,1,07,,,,,,,,,,,1,7.428,1,,,,,,-0.344444444,-0.240972222,1,0,0,7.4278,Andesite_rect,0,0,0,0,1,
6664597b10bb2abd191df517,SCN,2024-06-20_16h28.32.811,LearnStrategy,2023.2.3,Win32,166.6666667,8,2,2,,,,,,,,7,14,,,,,,,,,,,7,4.814,1,,,,,,0.195833333,-0.403472222,1,0,0,4.8143,Peridotite_rect,1,0,1,0,1,
6664597b10bb2abd191df517,SCN,2024-06-20_16h28.32.811,LearnStrategy,2023.2.3,Win32,166.6666667,8,2,3,,,,,,,,7,10,,,,,,,,,,,7,0.882,1,,,,,,0.160416667,-0.384027778,1,0,0,0.8818,Peridotite_rect,2,0,2,0,1,
6664597b10bb2abd191df517,SCN,2024-06-20_16h28.32.811,LearnStrategy,2023.2.3,Win32,166.6666667,8,2,4,,,,,,,,8,08,,,,,,,,,,,8,2.037,1,,,,,,0.342361111,-0.402777778,1,0,0,2.0367,Pumice_rect,3,0,3,0,1,
6664597b10bb2abd191df517,SCN,2024-06-20_16h28.32.811,LearnStrategy,2023.2.3,Win32,166.6666667,8,2,5,,,,,,,,4,09,,,,,,,,,,,4,36.701,1,,,,,,0.430555556,-0.247222222,1,0,0,36.7008,Gabbro_rect,4,0,4,0,1,
6664597b10bb2abd191df517,SCN,2024-06-20_16h28.32.811,LearnStrategy,2023.2.3,Win32,166.6666667,8,2,6,,,,,,,,8,16,,,,,,,,,,,8,1.085,1,,,,,,0.361805556,-0.403472222,1,0,0,1.085,Pumice_rect,5,0,5,0,1,
6664597b10bb2abd191df517,SCN,2024-06-20_16h28.32.811,LearnStrategy,2023.2.3,Win32,166.6666667,8,2,7,,,,,,,,5,10,,,,,,,,,,,5,0.888,1,,,,,,-0.336805556,-0.382638889,1,0,0,0.8875,Obsidian_rect,6,0,6,0,1,
6664597b10bb2abd191df517,SCN,2024-06-20_16h28.32.811,LearnStrategy,2023.2.3,Win32,166.6666667,8,2,8,,,,,,,,3,10,,,,,,,,,,,3,0.803,1,,,,,,0.138888889,-0.259722222,1,0,0,0.8033,Diorite_rect,7,0,7,0,1,
6664597b10bb2abd191df517,SCN,2024-06-20_16h28.32.811,LearnStrategy,2023.2.3,Win32,166.6666667,8,2,9,,,,,,,,6,08,,,,,,,,,,,6,0.748,1,,,,,,-0.110416667,-0.394444444,1,0,0,0.7479,Pegmatite_rect,8,0,8,0,1,
6664597b10bb2abd191df517,SCN,2024-06-20_16h28.32.811,LearnStrategy,2023.2.3,Win32,166.6666667,8,2,10,,,,,,,,6,09,,,,,,,,,,,6,1.077,1,,,,,,-0.080555556,-0.398611111,1,0,0,1.0768,Pegmatite_rect,9,0,9,0,1,
6664597b10bb2abd191df517,SCN,2024-06-20_16h28.32.811,LearnStrategy,2023.2.3,Win32,166.6666667,8,2,11,,,,,,,,5,14,,,,,,,,,,,5,0.877,1,,,,,,-0.352777778,-0.404166667,1,0,0,0.8772,Obsidian_rect,10,0,10,0,1,
6664597b10bb2abd191df517,SCN,2024-06-20_16h28.32.811,LearnStrategy,2023.2.3,Win32,166.6666667,8,2,12,,,,,,,,4,14,,,,,,,,,,,4,2.223,1,,,,,,0.351388889,-0.265972222,1,0,0,2.2226,Gabbro_rect,11,0,11,0,1,
6664597b10bb2abd191df517,SCN,2024-06-20_16h28.32.811,LearnStrategy,2023.2.3,Win32,166.6666667,8,2,13,,,,,,,,1,14,,,,,,,,,,,1,25.124,1,,,,,,-0.425,-0.245833333,1,0,0,25.1238,Andesite_rect,12,0,12,0,1,
6664597b10bb2abd191df517,SCN,2024-06-20_16h28.32.811,LearnStrategy,2023.2.3,Win32,166.6666667,8,2,14,,,,,,,,2,06,,,,,,,,,,,2,0.797,1,,,,,,-0.104166667,-0.235416667,1,0,0,0.7972,Basalt_rect,13,0,13,0,1,
6664597b10bb2abd191df517,SCN,2024-06-20_16h28.32.811,LearnStrategy,2023.2.3,Win32,166.6666667,8,2,15,,,,,,,,3,12,,,,,,,,,,,3,0.929,1,,,,,,0.122222222,-0.238194444,1,0,0,0.9295,Diorite_rect,14,0,14,0,1,
6664597b10bb2abd191df517,SCN,2024-06-20_16h28.32.811,LearnStrategy,2023.2.3,Win32,166.6666667,8,2,16,,,,,,,,2,16,,,,,,,,,,,2,1.53,1,,,,,,-0.109027778,-0.266666667,1,0,0,1.5295,Basalt_rect,15,0,15,0,1,
6664597b10bb2abd191df517,SCN,2024-06-20_16h28.32.811,LearnStrategy,2023.2.3,Win32,166.6666667,9,1,1,-0.040277778,-0.076388889,1,0,0,0.7268,Pegmatite_06,6,06,3,4,0.727,-0.09375,-0.228472222,1,0,0,0.4809,Basalt_rect,2,0.481,0,0,0,0,0,1,,,,,,,,,,,,,
6664597b10bb2abd191df517,SCN,2024-06-20_16h28.32.811,LearnStrategy,2023.2.3,Win32,166.6666667,9,1,2,-0.084722222,-0.102777778,1,0,0,0.5389,Pegmatite_06,6,06,3,4,0.539,-0.079861111,-0.228472222,1,0,0,0.2443,Basalt_rect,2,0.244,0,1,0,1,0,1,,,,,,,,,,,,,
6664597b10bb2abd191df517,SCN,2024-06-20_16h28.32.811,LearnStrategy,2023.2.3,Win32,166.6666667,9,1,3,-0.111111111,-0.129166667,1,0,0,0.3081,Pegmatite_06,6,06,3,4,0.308,-0.059027778,-0.257638889,1,0,0,0.2812,Basalt_rect,2,0.281,0,2,0,2,0,1,,,,,,,,,,,,,
6664597b10bb2abd191df517,SCN,2024-06-20_16h28.32.811,LearnStrategy,2023.2.3,Win32,166.6666667,9,1,4,-0.084027778,-0.115972222,1,0,0,0.4904,Pegmatite_06,6,06,3,4,0.49,-0.1125,-0.243055556,1,0,0,0.2503,Basalt_rect,2,0.25,0,3,0,3,0,1,,,,,,,,,,,,,
6664597b10bb2abd191df517,SCN,2024-06-20_16h28.32.811,LearnStrategy,2023.2.3,Win32,166.6666667,9,1,5,-0.083333333,-0.133333333,1,0,0,0.2662,Pegmatite_06,6,06,3,4,0.266,-0.053472222,-0.266666667,1,0,0,1.1309,Basalt_rect,2,1.131,0,4,0,4,0,1,,,,,,,,,,,,,
6664597b10bb2abd191df517,SCN,2024-06-20_16h28.32.811,LearnStrategy,2023.2.3,Win32,166.6666667,9,1,6,-0.072916667,-0.111805556,1,0,0,0.2964,Pegmatite_06,6,06,3,4,0.296,-0.047222222,-0.245138889,1,0,0,0.42,Basalt_rect,2,0.42,0,5,0,5,0,1,,,,,,,,,,,,,
6664597b10bb2abd191df517,SCN,2024-06-20_16h28.32.811,LearnStrategy,2023.2.3,Win32,166.6666667,9,1,7,-0.079861111,-0.108333333,1,0,0,0.5088,Pegmatite_06,6,06,3,4,0.509,-0.102777778,-0.233333333,1,0,0,0.281,Basalt_rect,2,0.281,0,6,0,6,0,1,,,,,,,,,,,,,
6664597b10bb2abd191df517,SCN,2024-06-20_16h28.32.811,LearnStrategy,2023.2.3,Win32,166.6666667,9,1,8,-0.06875,-0.152083333,1,0,0,0.2721,Pegmatite_06,6,06,3,4,0.272,-0.084027778,-0.245138889,1,0,0,0.3303,Basalt_rect,2,0.33,0,7,0,7,0,1,,,,,,,,,,,,,
6664597b10bb2abd191df517,SCN,2024-06-20_16h28.32.811,LearnStrategy,2023.2.3,Win32,166.6666667,9,1,9,-0.05625,-0.123611111,1,0,0,0.2474,Pegmatite_06,6,06,3,4,0.247,-0.059722222,-0.264583333,1,0,0,0.4832,Basalt_rect,2,0.483,0,8,0,8,0,1,,,,,,,,,,,,,
6664597b10bb2abd191df517,SCN,2024-06-20_16h28.32.811,LearnStrategy,2023.2.3,Win32,166.6666667,9,1,10,-0.116666667,-0.125694444,1,0,0,0.2904,Pegmatite_06,6,06,3,4,0.29,-0.102777778,-0.249305556,1,0,0,0.293,Basalt_rect,2,0.293,0,9,0,9,0,1,,,,,,,,,,,,,
6664597b10bb2abd191df517,SCN,2024-06-20_16h28.32.811,LearnStrategy,2023.2.3,Win32,166.6666667,9,1,11,-0.069444444,-0.079861111,1,0,0,0.3146,Pegmatite_06,6,06,3,4,0.315,-0.063888889,-0.261805556,1,0,0,0.6716,Basalt_rect,2,0.672,0,10,0,10,0,1,,,,,,,,,,,,,
6664597b10bb2abd191df517,SCN,2024-06-20_16h28.32.811,LearnStrategy,2023.2.3,Win32,166.6666667,9,1,12,-0.077083333,-0.117361111,1,0,0,0.2903,Pegmatite_06,6,06,3,4,0.29,-0.084027778,-0.230555556,1,0,0,0.311,Basalt_rect,2,0.311,0,11,0,11,0,1,,,,,,,,,,,,,
6664597b10bb2abd191df517,SCN,2024-06-20_16h28.32.811,LearnStrategy,2023.2.3,Win32,166.6666667,9,1,13,-0.115277778,-0.126388889,1,0,0,0.2781,Pegmatite_06,6,06,3,4,0.278,-0.113888889,-0.251388889,1,0,0,0.3401,Basalt_rect,2,0.34,0,12,0,12,0,1,,,,,,,,,,,,,
6664597b10bb2abd191df517,SCN,2024-06-20_16h28.32.811,LearnStrategy,2023.2.3,Win32,166.6666667,9,1,14,-0.086111111,-0.106944444,1,0,0,0.248,Pegmatite_06,6,06,3,4,0.248,-0.079861111,-0.259027778,1,0,0,0.5414,Basalt_rect,2,0.541,0,13,0,13,0,1,,,,,,,,,,,,,
6664597b10bb2abd191df517,SCN,2024-06-20_16h28.32.811,LearnStrategy,2023.2.3,Win32,166.6666667,9,1,15,-0.065277778,-0.136805556,1,0,0,0.2904,Pegmatite_06,6,06,3,4,0.29,-0.072916667,-0.236805556,1,0,0,0.3194,Basalt_rect,2,0.319,0,14,0,14,0,1,,,,,,,,,,,,,
6664597b10bb2abd191df517,SCN,2024-06-20_16h28.32.811,LearnStrategy,2023.2.3,Win32,166.6666667,9,1,16,-0.054166667,-0.088888889,1,0,0,0.2842,Pegmatite_06,6,06,3,4,0.284,-0.077083333,-0.255555556,1,0,0,0.3237,Basalt_rect,2,0.324,0,15,0,15,0,1,,,,,,,,,,,,,
6664597b10bb2abd191df517,SCN,2024-06-20_16h28.32.811,LearnStrategy,2023.2.3,Win32,166.6666667,9,2,1,,,,,,,,7,02,,,,,,,,,,,7,1.638,1,,,,,,0.147222222,-0.388888889,1,0,0,1.6383,Peridotite_rect,0,0,0,0,1,
6664597b10bb2abd191df517,SCN,2024-06-20_16h28.32.811,LearnStrategy,2023.2.3,Win32,166.6666667,9,2,2,,,,,,,,6,15,,,,,,,,,,,6,0.684,1,,,,,,-0.116666667,-0.415972222,1,0,0,0.6835,Pegmatite_rect,1,0,1,0,1,
6664597b10bb2abd191df517,SCN,2024-06-20_16h28.32.811,LearnStrategy,2023.2.3,Win32,166.6666667,9,2,3,,,,,,,,4,08,,,,,,,,,,,4,3.968,1,,,,,,0.376388889,-0.257638889,1,0,0,3.9681,Gabbro_rect,2,0,2,0,1,
6664597b10bb2abd191df517,SCN,2024-06-20_16h28.32.811,LearnStrategy,2023.2.3,Win32,166.6666667,9,2,4,,,,,,,,5,08,,,,,,,,,,,5,0.75,1,,,,,,-0.361111111,-0.40625,1,0,0,0.75,Obsidian_rect,3,0,3,0,1,
6664597b10bb2abd191df517,SCN,2024-06-20_16h28.32.811,LearnStrategy,2023.2.3,Win32,166.6666667,9,2,5,,,,,,,,4,10,,,,,,,,,,,4,2.695,1,,,,,,0.336805556,-0.261111111,1,0,0,2.6955,Gabbro_rect,4,0,4,0,1,
6664597b10bb2abd191df517,SCN,2024-06-20_16h28.32.811,LearnStrategy,2023.2.3,Win32,166.6666667,9,2,6,,,,,,,,5,07,,,,,,,,,,,5,0.888,1,,,,,,-0.406944444,-0.415972222,1,0,0,0.8883,Obsidian_rect,5,0,5,0,1,
6664597b10bb2abd191df517,SCN,2024-06-20_16h28.32.811,LearnStrategy,2023.2.3,Win32,166.6666667,9,2,7,,,,,,,,1,06,,,,,,,,,,,1,1.435,1,,,,,,-0.31875,-0.245138889,1,0,0,1.4351,Andesite_rect,6,0,6,0,1,
6664597b10bb2abd191df517,SCN,2024-06-20_16h28.32.811,LearnStrategy,2023.2.3,Win32,166.6666667,9,2,8,,,,,,,,1,09,,,,,,,,,,,1,0.614,1,,,,,,-0.313888889,-0.240972222,1,0,0,0.6141,Andesite_rect,7,0,7,0,1,
6664597b10bb2abd191df517,SCN,2024-06-20_16h28.32.811,LearnStrategy,2023.2.3,Win32,166.6666667,9,2,9,,,,,,,,6,11,,,,,,,,,,,6,0.714,1,,,,,,-0.151388889,-0.380555556,1,0,0,0.7142,Pegmatite_rect,8,0,8,0,1,
6664597b10bb2abd191df517,SCN,2024-06-20_16h28.32.811,LearnStrategy,2023.2.3,Win32,166.6666667,9,2,10,,,,,,,,2,08,,,,,,,,,,,2,0.827,1,,,,,,-0.131944444,-0.235416667,1,0,0,0.8274,Basalt_rect,9,0,9,0,1,
6664597b10bb2abd191df517,SCN,2024-06-20_16h28.32.811,LearnStrategy,2023.2.3,Win32,166.6666667,9,2,11,,,,,,,,3,08,,,,,,,,,,,3,0.772,1,,,,,,0.11875,-0.236111111,1,0,0,0.7716,Diorite_rect,10,0,10,0,1,
6664597b10bb2abd191df517,SCN,2024-06-20_16h28.32.811,LearnStrategy,2023.2.3,Win32,166.6666667,9,2,12,,,,,,,,8,06,,,,,,,,,,,8,0.736,1,,,,,,0.351388889,-0.397916667,1,0,0,0.7355,Pumice_rect,11,0,11,0,1,
6664597b10bb2abd191df517,SCN,2024-06-20_16h28.32.811,LearnStrategy,2023.2.3,Win32,166.6666667,9,2,13,,,,,,,,3,09,,,,,,,,,,,3,0.803,1,,,,,,0.152083333,-0.243055556,1,0,0,0.8033,Diorite_rect,12,0,12,0,1,
6664597b10bb2abd191df517,SCN,2024-06-20_16h28.32.811,LearnStrategy,2023.2.3,Win32,166.6666667,9,2,14,,,,,,,,2,10,,,,,,,,,,,2,0.687,1,,,,,,-0.102083333,-0.247222222,1,0,0,0.6867,Basalt_rect,13,0,13,0,1,
6664597b10bb2abd191df517,SCN,2024-06-20_16h28.32.811,LearnStrategy,2023.2.3,Win32,166.6666667,9,2,15,,,,,,,,7,05,,,,,,,,,,,7,0.73,1,,,,,,0.16875,-0.384722222,1,0,0,0.7297,Peridotite_rect,14,0,14,0,1,
6664597b10bb2abd191df517,SCN,2024-06-20_16h28.32.811,LearnStrategy,2023.2.3,Win32,166.6666667,9,2,16,,,,,,,,8,04,,,,,,,,,,,8,0.675,1,,,,,,0.372222222,-0.404166667,1,0,0,0.6752,Pumice_rect,15,0,15,0,1,
6664597b10bb2abd191df517,SCN,2024-06-20_16h28.32.811,LearnStrategy,2023.2.3,Win32,166.6666667,,,,,,,,,,,,,,,,,,,,,,,,,,,,,,,,,,,,,,,,,,,1
6664597b10bb2abd191df517,SCN,2024-06-20_16h28.32.811,LearnStrategy,2023.2.3,Win32,166.6666667,,,,,,,,,,,,,,,,,,,,,,,,,,,,,,,,,,,,,,,,,,,
6664597b10bb2abd191df517,SCN,2024-06-20_16h28.32.811,LearnStrategy,2023.2.3,Win32,166.6666667,,,,,,,,,,,4,01,1,1,,,,,,,,,,,,,,,,,,,,,,,,,,,,,
6664597b10bb2abd191df517,SCN,2024-06-20_16h28.32.811,LearnStrategy,2023.2.3,Win32,166.6666667,,,,,,,,,,,2,05,1,2,,,,,,,,,,,,,,,,,,,,,,,,,,,,,
6664597b10bb2abd191df517,SCN,2024-06-20_16h28.32.811,LearnStrategy,2023.2.3,Win32,166.6666667,,,,,,,,,,,7,06,1,3,,,,,,,,,,,,,,,,,,,,,,,,,,,,,
6664597b10bb2abd191df517,SCN,2024-06-20_16h28.32.811,LearnStrategy,2023.2.3,Win32,166.6666667,,,,,,,,,,,6,10,1,4,,,,,,,,,,,,,,,,,,,,,,,,,,,,,
6664597b10bb2abd191df517,SCN,2024-06-20_16h28.32.811,LearnStrategy,2023.2.3,Win32,166.6666667,,,,,,,,,,,8,15,1,5,,,,,,,,,,,,,,,,,,,,,,,,,,,,,
6664597b10bb2abd191df517,SCN,2024-06-20_16h28.32.811,LearnStrategy,2023.2.3,Win32,166.6666667,,,,,,,,,,,2,09,1,6,,,,,,,,,,,,,,,,,,,,,,,,,,,,,
6664597b10bb2abd191df517,SCN,2024-06-20_16h28.32.811,LearnStrategy,2023.2.3,Win32,166.6666667,,,,,,,,,,,4,16,1,7,,,,,,,,,,,,,,,,,,,,,,,,,,,,,
6664597b10bb2abd191df517,SCN,2024-06-20_16h28.32.811,LearnStrategy,2023.2.3,Win32,166.6666667,,,,,,,,,,,5,04,1,8,,,,,,,,,,,,,,,,,,,,,,,,,,,,,
6664597b10bb2abd191df517,SCN,2024-06-20_16h28.32.811,LearnStrategy,2023.2.3,Win32,166.6666667,,,,,,,,,,,1,04,2,1,,,,,,,,,,,,,,,,,,,,,,,,,,,,,
6664597b10bb2abd191df517,SCN,2024-06-20_16h28.32.811,LearnStrategy,2023.2.3,Win32,166.6666667,,,,,,,,,,,5,09,2,2,,,,,,,,,,,,,,,,,,,,,,,,,,,,,
6664597b10bb2abd191df517,SCN,2024-06-20_16h28.32.811,LearnStrategy,2023.2.3,Win32,166.6666667,,,,,,,,,,,7,04,2,3,,,,,,,,,,,,,,,,,,,,,,,,,,,,,
6664597b10bb2abd191df517,SCN,2024-06-20_16h28.32.811,LearnStrategy,2023.2.3,Win32,166.6666667,,,,,,,,,,,6,03,2,4,,,,,,,,,,,,,,,,,,,,,,,,,,,,,
6664597b10bb2abd191df517,SCN,2024-06-20_16h28.32.811,LearnStrategy,2023.2.3,Win32,166.6666667,,,,,,,,,,,6,12,2,5,,,,,,,,,,,,,,,,,,,,,,,,,,,,,
6664597b10bb2abd191df517,SCN,2024-06-20_16h28.32.811,LearnStrategy,2023.2.3,Win32,166.6666667,,,,,,,,,,,7,13,2,6,,,,,,,,,,,,,,,,,,,,,,,,,,,,,
6664597b10bb2abd191df517,SCN,2024-06-20_16h28.32.811,LearnStrategy,2023.2.3,Win32,166.6666667,,,,,,,,,,,4,05,2,7,,,,,,,,,,,,,,,,,,,,,,,,,,,,,
6664597b10bb2abd191df517,SCN,2024-06-20_16h28.32.811,LearnStrategy,2023.2.3,Win32,166.6666667,,,,,,,,,,,5,06,2,8,,,,,,,,,,,,,,,,,,,,,,,,,,,,,
6664597b10bb2abd191df517,SCN,2024-06-20_16h28.32.811,LearnStrategy,2023.2.3,Win32,166.6666667,,,,,,,,,,,8,03,3,1,,,,,,,,,,,,,,,,,,,,,,,,,,,,,
6664597b10bb2abd191df517,SCN,2024-06-20_16h28.32.811,LearnStrategy,2023.2.3,Win32,166.6666667,,,,,,,,,,,8,09,3,2,,,,,,,,,,,,,,,,,,,,,,,,,,,,,
6664597b10bb2abd191df517,SCN,2024-06-20_16h28.32.811,LearnStrategy,2023.2.3,Win32,166.6666667,,,,,,,,,,,5,12,3,3,,,,,,,,,,,,,,,,,,,,,,,,,,,,,
6664597b10bb2abd191df517,SCN,2024-06-20_16h28.32.811,LearnStrategy,2023.2.3,Win32,166.6666667,,,,,,,,,,,6,06,3,4,,,,,,,,,,,,,,,,,,,,,,,,,,,,,
6664597b10bb2abd191df517,SCN,2024-06-20_16h28.32.811,LearnStrategy,2023.2.3,Win32,166.6666667,,,,,,,,,,,2,02,3,5,,,,,,,,,,,,,,,,,,,,,,,,,,,,,
6664597b10bb2abd191df517,SCN,2024-06-20_16h28.32.811,LearnStrategy,2023.2.3,Win32,166.6666667,,,,,,,,,,,3,14,3,6,,,,,,,,,,,,,,,,,,,,,,,,,,,,,
6664597b10bb2abd191df517,SCN,2024-06-20_16h28.32.811,LearnStrategy,2023.2.3,Win32,166.6666667,,,,,,,,,,,1,11,3,7,,,,,,,,,,,,,,,,,,,,,,,,,,,,,
6664597b10bb2abd191df517,SCN,2024-06-20_16h28.32.811,LearnStrategy,2023.2.3,Win32,166.6666667,,,,,,,,,,,1,10,3,8,,,,,,,,,,,,,,,,,,,,,,,,,,,,,
6664597b10bb2abd191df517,SCN,2024-06-20_16h28.32.811,LearnStrategy,2023.2.3,Win32,166.6666667,,,,,,,,,,,5,05,4,1,,,,,,,,,,,,,,,,,,,,,,,,,,,,,
6664597b10bb2abd191df517,SCN,2024-06-20_16h28.32.811,LearnStrategy,2023.2.3,Win32,166.6666667,,,,,,,,,,,8,13,4,2,,,,,,,,,,,,,,,,,,,,,,,,,,,,,
6664597b10bb2abd191df517,SCN,2024-06-20_16h28.32.811,LearnStrategy,2023.2.3,Win32,166.6666667,,,,,,,,,,,7,15,4,3,,,,,,,,,,,,,,,,,,,,,,,,,,,,,
6664597b10bb2abd191df517,SCN,2024-06-20_16h28.32.811,LearnStrategy,2023.2.3,Win32,166.6666667,,,,,,,,,,,8,02,4,4,,,,,,,,,,,,,,,,,,,,,,,,,,,,,
6664597b10bb2abd191df517,SCN,2024-06-20_16h28.32.811,LearnStrategy,2023.2.3,Win32,166.6666667,,,,,,,,,,,4,15,4,5,,,,,,,,,,,,,,,,,,,,,,,,,,,,,
6664597b10bb2abd191df517,SCN,2024-06-20_16h28.32.811,LearnStrategy,2023.2.3,Win32,166.6666667,,,,,,,,,,,8,14,4,6,,,,,,,,,,,,,,,,,,,,,,,,,,,,,
6664597b10bb2abd191df517,SCN,2024-06-20_16h28.32.811,LearnStrategy,2023.2.3,Win32,166.6666667,,,,,,,,,,,2,14,4,7,,,,,,,,,,,,,,,,,,,,,,,,,,,,,
6664597b10bb2abd191df517,SCN,2024-06-20_16h28.32.811,LearnStrategy,2023.2.3,Win32,166.6666667,,,,,,,,,,,5,11,4,8,,,,,,,,,,,,,,,,,,,,,,,,,,,,,
6664597b10bb2abd191df517,SCN,2024-06-20_16h28.32.811,LearnStrategy,2023.2.3,Win32,166.6666667,,,,,,,,,,,4,03,5,1,,,,,,,,,,,,,,,,,,,,,,,,,,,,,
6664597b10bb2abd191df517,SCN,2024-06-20_16h28.32.811,LearnStrategy,2023.2.3,Win32,166.6666667,,,,,,,,,,,3,15,5,2,,,,,,,,,,,,,,,,,,,,,,,,,,,,,
6664597b10bb2abd191df517,SCN,2024-06-20_16h28.32.811,LearnStrategy,2023.2.3,Win32,166.6666667,,,,,,,,,,,6,05,5,3,,,,,,,,,,,,,,,,,,,,,,,,,,,,,
6664597b10bb2abd191df517,SCN,2024-06-20_16h28.32.811,LearnStrategy,2023.2.3,Win32,166.6666667,,,,,,,,,,,2,04,5,4,,,,,,,,,,,,,,,,,,,,,,,,,,,,,
6664597b10bb2abd191df517,SCN,2024-06-20_16h28.32.811,LearnStrategy,2023.2.3,Win32,166.6666667,,,,,,,,,,,7,16,5,5,,,,,,,,,,,,,,,,,,,,,,,,,,,,,
6664597b10bb2abd191df517,SCN,2024-06-20_16h28.32.811,LearnStrategy,2023.2.3,Win32,166.6666667,,,,,,,,,,,6,13,5,6,,,,,,,,,,,,,,,,,,,,,,,,,,,,,
6664597b10bb2abd191df517,SCN,2024-06-20_16h28.32.811,LearnStrategy,2023.2.3,Win32,166.6666667,,,,,,,,,,,3,16,5,7,,,,,,,,,,,,,,,,,,,,,,,,,,,,,
6664597b10bb2abd191df517,SCN,2024-06-20_16h28.32.811,LearnStrategy,2023.2.3,Win32,166.6666667,,,,,,,,,,,3,13,5,8,,,,,,,,,,,,,,,,,,,,,,,,,,,,,
6664597b10bb2abd191df517,SCN,2024-06-20_16h28.32.811,LearnStrategy,2023.2.3,Win32,166.6666667,,,,,,,,,,,2,11,6,1,,,,,,,,,,,,,,,,,,,,,,,,,,,,,
6664597b10bb2abd191df517,SCN,2024-06-20_16h28.32.811,LearnStrategy,2023.2.3,Win32,166.6666667,,,,,,,,,,,3,06,6,2,,,,,,,,,,,,,,,,,,,,,,,,,,,,,
6664597b10bb2abd191df517,SCN,2024-06-20_16h28.32.811,LearnStrategy,2023.2.3,Win32,166.6666667,,,,,,,,,,,4,11,6,3,,,,,,,,,,,,,,,,,,,,,,,,,,,,,
6664597b10bb2abd191df517,SCN,2024-06-20_16h28.32.811,LearnStrategy,2023.2.3,Win32,166.6666667,,,,,,,,,,,1,16,6,4,,,,,,,,,,,,,,,,,,,,,,,,,,,,,
6664597b10bb2abd191df517,SCN,2024-06-20_16h28.32.811,LearnStrategy,2023.2.3,Win32,166.6666667,,,,,,,,,,,3,07,6,5,,,,,,,,,,,,,,,,,,,,,,,,,,,,,
6664597b10bb2abd191df517,SCN,2024-06-20_16h28.32.811,LearnStrategy,2023.2.3,Win32,166.6666667,,,,,,,,,,,1,02,6,6,,,,,,,,,,,,,,,,,,,,,,,,,,,,,
6664597b10bb2abd191df517,SCN,2024-06-20_16h28.32.811,LearnStrategy,2023.2.3,Win32,166.6666667,,,,,,,,,,,7,07,6,7,,,,,,,,,,,,,,,,,,,,,,,,,,,,,
6664597b10bb2abd191df517,SCN,2024-06-20_16h28.32.811,LearnStrategy,2023.2.3,Win32,166.6666667,,,,,,,,,,,1,03,6,8,,,,,,,,,,,,,,,,,,,,,,,,,,,,,