participant,condition,date,expName,psychopyVersion,OS,frameRate,block,phase,trial,learn_mouse.x,learn_mouse.y,learn_mouse.leftButton,learn_mouse.midButton,learn_mouse.rightButton,learn_mouse.time,learn_mouse.clicked_name,cat,token,row,col,t_select,cat_mouse_l.x,cat_mouse_l.y,cat_mouse_l.leftButton,cat_mouse_l.midButton,cat_mouse_l.rightButton,cat_mouse_l.time,cat_mouse_l.clicked_name,resp,t_resp,corr,train_trials.thisRepN,train_trials.thisTrialN,train_trials.thisN,train_trials.thisIndex,train_trials.ran,cat_mouse_t.x,cat_mouse_t.y,cat_mouse_t.leftButton,cat_mouse_t.midButton,cat_mouse_t.rightButton,cat_mouse_t.time,cat_mouse_t.clicked_name,test_trials.thisRepN,test_trials.thisTrialN,test_trials.thisN,test_trials.thisIndex,test_trials.ran,Bonus
666470715d3629eacf102999,SCN,2024-06-21_12h46.50.995,LearnStrategy,2023.2.3,Win32,60.97560976,,,,,,,,,,,,,,,,,,,,,,,,,,,,,,,,,,,,,,,,,,,
666470715d3629eacf102999,SCN,2024-06-21_12h46.50.995,LearnStrategy,2023.2.3,Win32,60.97560976,1,1,1,-0.218095238,-0.106666667,1,0,0,8.0956,Diorite_08,3,08,3,3,8.096,0.088571429,-0.233333333,1,0,0,10.0588,Diorite_rect,3,10.059,1,0,0,0,0,1,,,,,,,,,,,,,
666470715d3629eacf102999,SCN,2024-06-21_12h46.50.995,LearnStrategy,2023.2.3,Win32,60.97560976,1,1,2,-0.227619048,0.227619048,1,0,0,5.1147,Obsidian_10,5,10,5,3,5.115,-0.343809524,-0.398095238,1,0,0,1.9908,Obsidian_rect,5,1.991,1,1,0,1,0,1,,,,,,,,,,,,,
666470715d3629eacf102999,SCN,2024-06-21_12h46.50.995,LearnStrategy,2023.2.3,Win32,60.97560976,1,1,3,-0.532380952,0.074285714,1,0,0,3.3316,Basalt_11,2,11,4,1,3.332,0.339047619,-0.395238095,1,0,0,5.119,Pumice_rect,8,5.119,0,2,0,2,0,1,,,,,,,,,,,,,
666470715d3629eacf102999,SCN,2024-06-21_12h46.50.995,LearnStrategy,2023.2.3,Win32,60.97560976,1,1,4,-0.54,0.398095238,1,0,0,5.6944,Peridotite_02,7,02,6,1,5.694,0.107619048,-0.416190476,1,0,0,11.6762,Peridotite_rect,7,11.676,1,3,0,3,0,1,,,,,,,,,,,,,
666470715d3629eacf102999,SCN,2024-06-21_12h46.50.995,LearnStrategy,2023.2.3,Win32,60.97560976,1,1,5,-0.057142857,0.22952381,1,0,0,4.2462,Pumice_13,8,13,5,4,4.246,0.363809524,-0.4,1,0,0,8.9784,Pumice_rect,8,8.978,1,4,0,4,0,1,,,,,,,,,,,,,
666470715d3629eacf102999,SCN,2024-06-21_12h46.50.995,LearnStrategy,2023.2.3,Win32,60.97560976,1,1,6,0.371428571,0.411428571,1,0,0,3.531,Diorite_06,3,06,6,7,3.531,-0.141904762,-0.257142857,1,0,0,10.5228,Basalt_rect,2,10.523,0,5,0,5,0,1,,,,,,,,,,,,,
666470715d3629eacf102999,SCN,2024-06-21_12h46.50.995,LearnStrategy,2023.2.3,Win32,60.97560976,1,1,7,0.236190476,0.385714286,1,0,0,2.8796,Andesite_06,1,06,6,6,2.88,0.140952381,-0.24952381,1,0,0,8.2357,Diorite_rect,3,8.236,0,6,0,6,0,1,,,,,,,,,,,,,
666470715d3629eacf102999,SCN,2024-06-21_12h46.50.995,LearnStrategy,2023.2.3,Win32,60.97560976,1,1,8,0.072380952,0.400952381,1,0,0,3.4964,Gabbro_10,4,10,6,5,3.496,0.376190476,-0.393333333,1,0,0,4.1254,Pumice_rect,8,4.125,0,7,0,7,0,1,,,,,,,,,,,,,
666470715d3629eacf102999,SCN,2024-06-21_12h46.50.995,LearnStrategy,2023.2.3,Win32,60.97560976,1,1,9,0.542857143,0.387619048,1,0,0,4.5814,Peridotite_16,7,16,6,8,4.581,-0.14952381,-0.262857143,1,0,0,9.2078,Basalt_rect,2,9.208,0,8,0,8,0,1,,,,,,,,,,,,,
666470715d3629eacf102999,SCN,2024-06-21_12h46.50.995,LearnStrategy,2023.2.3,Win32,60.97560976,1,1,10,-0.395238095,0.422857143,1,0,0,5.3101,Andesite_16,1,16,6,2,5.31,-0.126666667,-0.399047619,1,0,0,9.6091,Pegmatite_rect,6,9.609,0,9,0,9,0,1,,,,,,,,,,,,,
666470715d3629eacf102999,SCN,2024-06-21_12h46.50.995,LearnStrategy,2023.2.3,Win32,60.97560976,1,1,11,0.222857143,0.419047619,1,0,0,5.9637,Andesite_06,1,06,6,6,5.964,-0.347619048,-0.24952381,1,0,0,1.5576,Andesite_rect,1,1.558,1,10,0,10,0,1,,,,,,,,,,,,,
666470715d3629eacf102999,SCN,2024-06-21_12h46.50.995,LearnStrategy,2023.2.3,Win32,60.97560976,1,1,12,-0.245714286,-0.096190476,1,0,0,11.0126,Diorite_08,3,08,3,3,11.013,-0.365714286,-0.232380952,1,0,0,2.4264,Andesite_rect,1,2.426,0,11,0,11,0,1,,,,,,,,,,,,,
666470715d3629eacf102999,SCN,2024-06-21_12h46.50.995,LearnStrategy,2023.2.3,Win32,60.97560976,1,1,13,-0.355238095,-0.251428571,1,0,0,5.9454,Diorite_02,3,02,2,2,5.945,0.084761905,-0.260952381,1,0,0,1.8945,Diorite_rect,3,1.894,1,12,0,12,0,1,,,,,,,,,,,,,
666470715d3629eacf102999,SCN,2024-06-21_12h46.50.995,LearnStrategy,2023.2.3,Win32,60.97560976,1,1,14,0.548571429,-0.093333333,1,0,0,7.5261,Diorite_11,3,11,3,8,7.526,-0.34952381,-0.25047619,1,0,0,2.7751,Andesite_rect,1,2.775,0,13,0,13,0,1,,,,,,,,,,,,,
666470715d3629eacf102999,SCN,2024-06-21_12h46.50.995,LearnStrategy,2023.2.3,Win32,60.97560976,1,1,15,0.552380952,0.08,1,0,0,1.9311,Diorite_16,3,16,4,8,1.931,0.165714286,-0.24952381,1,0,0,2.8218,Diorite_rect,3,2.822,1,14,0,14,0,1,,,,,,,,,,,,,
666470715d3629eacf102999,SCN,2024-06-21_12h46.50.995,LearnStrategy,2023.2.3,Win32,60.97560976,1,1,16,0.224761905,0.394285714,1,0,0,13.2969,Andesite_06,1,06,6,6,13.297,0.058095238,-0.244761905,1,0,0,1.9919,Diorite_rect,3,1.992,0,15,0,15,0,1,,,,,,,,,,,,,
666470715d3629eacf102999,SCN,2024-06-21_12h46.50.995,LearnStrategy,2023.2.3,Win32,60.97560976,1,2,1,,,,,,,,8,14,,,,,,,,,,,8,12.297,1,,,,,,0.355238095,-0.396190476,1,0,0,12.2968,Pumice_rect,0,0,0,0,1,
666470715d3629eacf102999,SCN,2024-06-21_12h46.50.995,LearnStrategy,2023.2.3,Win32,60.97560976,1,2,2,,,,,,,,8,08,,,,,,,,,,,8,6.587,1,,,,,,0.352380952,-0.396190476,1,0,0,6.5871,Pumice_rect,1,0,1,0,1,
666470715d3629eacf102999,SCN,2024-06-21_12h46.50.995,LearnStrategy,2023.2.3,Win32,60.97560976,1,2,3,,,,,,,,5,16,,,,,,,,,,,5,1.905,1,,,,,,-0.438095238,-0.384761905,1,0,0,1.905,Obsidian_rect,2,0,2,0,1,
666470715d3629eacf102999,SCN,2024-06-21_12h46.50.995,LearnStrategy,2023.2.3,Win32,60.97560976,1,2,4,,,,,,,,5,08,,,,,,,,,,,5,1.255,1,,,,,,-0.406666667,-0.407619048,1,0,0,1.255,Obsidian_rect,3,0,3,0,1,
666470715d3629eacf102999,SCN,2024-06-21_12h46.50.995,LearnStrategy,2023.2.3,Win32,60.97560976,1,2,5,,,,,,,,3,09,,,,,,,,,,,3,6.317,1,,,,,,0.10952381,-0.253333333,1,0,0,6.3165,Diorite_rect,4,0,4,0,1,
666470715d3629eacf102999,SCN,2024-06-21_12h46.50.995,LearnStrategy,2023.2.3,Win32,60.97560976,1,2,6,,,,,,,,1,14,,,,,,,,,,,3,17.428,0,,,,,,0.103809524,-0.262857143,1,0,0,17.4285,Diorite_rect,5,0,5,0,1,
666470715d3629eacf102999,SCN,2024-06-21_12h46.50.995,LearnStrategy,2023.2.3,Win32,60.97560976,1,2,7,,,,,,,,7,14,,,,,,,,,,,6,7.595,0,,,,,,-0.093333333,-0.388571429,1,0,0,7.5954,Pegmatite_rect,6,0,6,0,1,
666470715d3629eacf102999,SCN,2024-06-21_12h46.50.995,LearnStrategy,2023.2.3,Win32,60.97560976,1,2,8,,,,,,,,3,14,,,,,,,,,,,1,9.619,0,,,,,,-0.339047619,-0.256190476,1,0,0,9.619,Andesite_rect,7,0,7,0,1,
666470715d3629eacf102999,SCN,2024-06-21_12h46.50.995,LearnStrategy,2023.2.3,Win32,60.97560976,1,2,9,,,,,,,,2,02,,,,,,,,,,,2,5.301,1,,,,,,-0.193333333,-0.266666667,1,0,0,5.3006,Basalt_rect,8,0,8,0,1,
666470715d3629eacf102999,SCN,2024-06-21_12h46.50.995,LearnStrategy,2023.2.3,Win32,60.97560976,1,2,10,,,,,,,,2,06,,,,,,,,,,,2,4.682,1,,,,,,-0.217142857,-0.259047619,1,0,0,4.6816,Basalt_rect,9,0,9,0,1,
666470715d3629eacf102999,SCN,2024-06-21_12h46.50.995,LearnStrategy,2023.2.3,Win32,60.97560976,1,2,11,,,,,,,,7,12,,,,,,,,,,,7,2.038,1,,,,,,0.116190476,-0.395238095,1,0,0,2.0377,Peridotite_rect,10,0,10,0,1,
666470715d3629eacf102999,SCN,2024-06-21_12h46.50.995,LearnStrategy,2023.2.3,Win32,60.97560976,1,2,12,,,,,,,,6,12,,,,,,,,,,,6,7.585,1,,,,,,-0.164761905,-0.411428571,1,0,0,7.585,Pegmatite_rect,11,0,11,0,1,
666470715d3629eacf102999,SCN,2024-06-21_12h46.50.995,LearnStrategy,2023.2.3,Win32,60.97560976,1,2,13,,,,,,,,4,11,,,,,,,,,,,6,6.829,0,,,,,,-0.082857143,-0.394285714,1,0,0,6.8291,Pegmatite_rect,12,0,12,0,1,
666470715d3629eacf102999,SCN,2024-06-21_12h46.50.995,LearnStrategy,2023.2.3,Win32,60.97560976,1,2,14,,,,,,,,1,03,,,,,,,,,,,1,2.063,1,,,,,,-0.376190476,-0.259047619,1,0,0,2.0625,Andesite_rect,13,0,13,0,1,
666470715d3629eacf102999,SCN,2024-06-21_12h46.50.995,LearnStrategy,2023.2.3,Win32,60.97560976,1,2,15,,,,,,,,6,13,,,,,,,,,,,6,5.451,1,,,,,,-0.132380952,-0.403809524,1,0,0,5.4509,Pegmatite_rect,14,0,14,0,1,
666470715d3629eacf102999,SCN,2024-06-21_12h46.50.995,LearnStrategy,2023.2.3,Win32,60.97560976,1,2,16,,,,,,,,4,14,,,,,,,,,,,1,5.745,0,,,,,,-0.39047619,-0.24,1,0,0,5.7453,Andesite_rect,15,0,15,0,1,
666470715d3629eacf102999,SCN,2024-06-21_12h46.50.995,LearnStrategy,2023.2.3,Win32,60.97560976,2,1,1,-0.56,-0.413333333,1,0,0,10.3605,Pegmatite_15,6,15,1,1,10.361,-0.179047619,-0.421904762,1,0,0,6.7447,Pegmatite_rect,6,6.745,1,0,0,0,0,1,,,,,,,,,,,,,
666470715d3629eacf102999,SCN,2024-06-21_12h46.50.995,LearnStrategy,2023.2.3,Win32,60.97560976,2,1,2,-0.545714286,-0.085714286,1,0,0,2.5101,Gabbro_15,4,15,3,1,2.51,-0.436190476,-0.244761905,1,0,0,8.6858,Andesite_rect,1,8.686,0,1,0,1,0,1,,,,,,,,,,,,,
666470715d3629eacf102999,SCN,2024-06-21_12h46.50.995,LearnStrategy,2023.2.3,Win32,60.97560976,2,1,3,-0.09047619,-0.273333333,1,0,0,5.3818,Diorite_15,3,15,2,4,5.382,0.381904762,-0.260952381,1,0,0,2.6468,Gabbro_rect,4,2.647,0,2,0,2,0,1,,,,,,,,,,,,,
666470715d3629eacf102999,SCN,2024-06-21_12h46.50.995,LearnStrategy,2023.2.3,Win32,60.97560976,2,1,4,0.539047619,-0.237142857,1,0,0,9.2744,Gabbro_13,4,13,2,8,9.274,0.44952381,-0.240952381,1,0,0,2.6711,Gabbro_rect,4,2.671,1,3,0,3,0,1,,,,,,,,,,,,,
666470715d3629eacf102999,SCN,2024-06-21_12h46.50.995,LearnStrategy,2023.2.3,Win32,60.97560976,2,1,5,0.546666667,0.1,1,0,0,7.9508,Diorite_16,3,16,4,8,7.951,0.397142857,-0.238095238,1,0,0,1.8117,Gabbro_rect,4,1.812,0,4,0,4,0,1,,,,,,,,,,,,,
666470715d3629eacf102999,SCN,2024-06-21_12h46.50.995,LearnStrategy,2023.2.3,Win32,60.97560976,2,1,6,0.56,-0.091428571,1,0,0,2.3633,Diorite_11,3,11,3,8,2.363,0.124761905,-0.264761905,1,0,0,1.497,Diorite_rect,3,1.497,1,5,0,5,0,1,,,,,,,,,,,,,
666470715d3629eacf102999,SCN,2024-06-21_12h46.50.995,LearnStrategy,2023.2.3,Win32,60.97560976,2,1,7,-0.24,-0.099047619,1,0,0,3.2332,Diorite_08,3,08,3,3,3.233,0.111428571,-0.256190476,1,0,0,3.7679,Diorite_rect,3,3.768,1,6,0,6,0,1,,,,,,,,,,,,,
666470715d3629eacf102999,SCN,2024-06-21_12h46.50.995,LearnStrategy,2023.2.3,Win32,60.97560976,2,1,8,-0.359047619,-0.256190476,1,0,0,4.8144,Diorite_02,3,02,2,2,4.814,0.077142857,-0.257142857,1,0,0,2.3296,Diorite_rect,3,2.33,1,7,0,7,0,1,,,,,,,,,,,,,
666470715d3629eacf102999,SCN,2024-06-21_12h46.50.995,LearnStrategy,2023.2.3,Win32,60.97560976,2,1,9,0.211428571,0.074285714,1,0,0,3.0455,Gabbro_03,4,03,4,6,3.046,0.374285714,-0.241904762,1,0,0,3.8453,Gabbro_rect,4,3.845,1,8,0,8,0,1,,,,,,,,,,,,,
666470715d3629eacf102999,SCN,2024-06-21_12h46.50.995,LearnStrategy,2023.2.3,Win32,60.97560976,2,1,10,0.256190476,0.387619048,1,0,0,8.592,Andesite_06,1,06,6,6,8.592,-0.381904762,-0.260952381,1,0,0,5.5401,Andesite_rect,1,5.54,1,9,0,9,0,1,,,,,,,,,,,,,
666470715d3629eacf102999,SCN,2024-06-21_12h46.50.995,LearnStrategy,2023.2.3,Win32,60.97560976,2,1,11,-0.384761905,0.415238095,1,0,0,8.8512,Andesite_16,1,16,6,2,8.851,-0.152380952,-0.398095238,1,0,0,7.6155,Pegmatite_rect,6,7.615,0,10,0,10,0,1,,,,,,,,,,,,,
666470715d3629eacf102999,SCN,2024-06-21_12h46.50.995,LearnStrategy,2023.2.3,Win32,60.97560976,2,1,12,0.572380952,-0.43047619,1,0,0,20.5264,Andesite_11,1,11,1,8,20.526,-0.363809524,-0.256190476,1,0,0,3.7207,Andesite_rect,1,3.721,1,11,0,11,0,1,,,,,,,,,,,,,
666470715d3629eacf102999,SCN,2024-06-21_12h46.50.995,LearnStrategy,2023.2.3,Win32,60.97560976,2,1,13,-0.079047619,-0.411428571,1,0,0,12.0757,Peridotite_08,7,08,1,4,12.076,0.104761905,-0.412380952,1,0,0,2.7379,Peridotite_rect,7,2.738,1,12,0,12,0,1,,,,,,,,,,,,,
666470715d3629eacf102999,SCN,2024-06-21_12h46.50.995,LearnStrategy,2023.2.3,Win32,60.97560976,2,1,14,0.087619048,0.08952381,1,0,0,6.961,Pegmatite_05,6,05,4,5,6.961,-0.073333333,-0.38952381,1,0,0,7.2014,Pegmatite_rect,6,7.201,1,13,0,13,0,1,,,,,,,,,,,,,
666470715d3629eacf102999,SCN,2024-06-21_12h46.50.995,LearnStrategy,2023.2.3,Win32,60.97560976,2,1,15,-0.202857143,0.075238095,1,0,0,2.5599,Basalt_12,2,12,4,3,2.56,-0.46,-0.256190476,1,0,0,5.4881,Andesite_rect,1,5.488,0,14,0,14,0,1,,,,,,,,,,,,,
666470715d3629eacf102999,SCN,2024-06-21_12h46.50.995,LearnStrategy,2023.2.3,Win32,60.97560976,2,1,16,-0.527619048,0.093333333,1,0,0,3.0093,Basalt_11,2,11,4,1,3.009,-0.178095238,-0.253333333,1,0,0,1.2716,Basalt_rect,2,1.272,1,15,0,15,0,1,,,,,,,,,,,,,
666470715d3629eacf102999,SCN,2024-06-21_12h46.50.995,LearnStrategy,2023.2.3,Win32,60.97560976,2,2,1,,,,,,,,6,07,,,,,,,,,,,6,6.097,1,,,,,,-0.097142857,-0.404761905,1,0,0,6.0967,Pegmatite_rect,0,0,0,0,1,
666470715d3629eacf102999,SCN,2024-06-21_12h46.50.995,LearnStrategy,2023.2.3,Win32,60.97560976,2,2,2,,,,,,,,8,04,,,,,,,,,,,8,3.541,1,,,,,,0.413333333,-0.42,1,0,0,3.5415,Pumice_rect,1,0,1,0,1,
666470715d3629eacf102999,SCN,2024-06-21_12h46.50.995,LearnStrategy,2023.2.3,Win32,60.97560976,2,2,3,,,,,,,,5,14,,,,,,,,,,,5,1.435,1,,,,,,-0.417142857,-0.397142857,1,0,0,1.435,Obsidian_rect,2,0,2,0,1,
666470715d3629eacf102999,SCN,2024-06-21_12h46.50.995,LearnStrategy,2023.2.3,Win32,60.97560976,2,2,4,,,,,,,,4,05,,,,,,,,,,,7,15.862,0,,,,,,0.068571429,-0.418095238,1,0,0,15.8625,Peridotite_rect,3,0,3,0,1,
666470715d3629eacf102999,SCN,2024-06-21_12h46.50.995,LearnStrategy,2023.2.3,Win32,60.97560976,2,2,5,,,,,,,,1,05,,,,,,,,,,,1,4.053,1,,,,,,-0.41047619,-0.254285714,1,0,0,4.0533,Andesite_rect,4,0,4,0,1,
666470715d3629eacf102999,SCN,2024-06-21_12h46.50.995,LearnStrategy,2023.2.3,Win32,60.97560976,2,2,6,,,,,,,,2,01,,,,,,,,,,,2,2.185,1,,,,,,-0.2,-0.267619048,1,0,0,2.1851,Basalt_rect,5,0,5,0,1,
666470715d3629eacf102999,SCN,2024-06-21_12h46.50.995,LearnStrategy,2023.2.3,Win32,60.97560976,2,2,7,,,,,,,,8,16,,,,,,,,,,,8,1.714,1,,,,,,0.388571429,-0.402857143,1,0,0,1.7136,Pumice_rect,6,0,6,0,1,
666470715d3629eacf102999,SCN,2024-06-21_12h46.50.995,LearnStrategy,2023.2.3,Win32,60.97560976,2,2,8,,,,,,,,5,05,,,,,,,,,,,5,3.368,1,,,,,,-0.344761905,-0.399047619,1,0,0,3.3679,Obsidian_rect,7,0,7,0,1,
666470715d3629eacf102999,SCN,2024-06-21_12h46.50.995,LearnStrategy,2023.2.3,Win32,60.97560976,2,2,9,,,,,,,,7,04,,,,,,,,,,,4,16.416,0,,,,,,0.372380952,-0.263809524,1,0,0,16.416,Gabbro_rect,8,0,8,0,1,
666470715d3629eacf102999,SCN,2024-06-21_12h46.50.995,LearnStrategy,2023.2.3,Win32,60.97560976,2,2,10,,,,,,,,4,12,,,,,,,,,,,1,15.946,0,,,,,,-0.371428571,-0.262857143,1,0,0,15.9462,Andesite_rect,9,0,9,0,1,
666470715d3629eacf102999,SCN,2024-06-21_12h46.50.995,LearnStrategy,2023.2.3,Win32,60.97560976,2,2,11,,,,,,,,2,09,,,,,,,,,,,2,6.936,1,,,,,,-0.16952381,-0.27047619,1,0,0,6.9357,Basalt_rect,10,0,10,0,1,
666470715d3629eacf102999,SCN,2024-06-21_12h46.50.995,LearnStrategy,2023.2.3,Win32,60.97560976,2,2,12,,,,,,,,6,06,,,,,,,,,,,4,20.043,0,,,,,,0.320952381,-0.267619048,1,0,0,20.0433,Gabbro_rect,11,0,11,0,1,
666470715d3629eacf102999,SCN,2024-06-21_12h46.50.995,LearnStrategy,2023.2.3,Win32,60.97560976,2,2,13,,,,,,,,7,13,,,,,,,,,,,7,3.05,1,,,,,,0.094285714,-0.396190476,1,0,0,3.0499,Peridotite_rect,12,0,12,0,1,
666470715d3629eacf102999,SCN,2024-06-21_12h46.50.995,LearnStrategy,2023.2.3,Win32,60.97560976,2,2,14,,,,,,,,3,07,,,,,,,,,,,3,5.634,1,,,,,,0.148571429,-0.258095238,1,0,0,5.6336,Diorite_rect,13,0,13,0,1,
666470715d3629eacf102999,SCN,2024-06-21_12h46.50.995,LearnStrategy,2023.2.3,Win32,60.97560976,2,2,15,,,,,,,,1,04,,,,,,,,,,,1,7.518,1,,,,,,-0.42,-0.245714286,1,0,0,7.5179,Andesite_rect,14,0,14,0,1,
666470715d3629eacf102999,SCN,2024-06-21_12h46.50.995,LearnStrategy,2023.2.3,Win32,60.97560976,2,2,16,,,,,,,,3,10,,,,,,,,,,,3,8.077,1,,,,,,0.104761905,-0.262857143,1,0,0,8.0767,Diorite_rect,15,0,15,0,1,
666470715d3629eacf102999,SCN,2024-06-21_12h46.50.995,LearnStrategy,2023.2.3,Win32,60.97560976,3,1,1,-0.540952381,-0.414285714,1,0,0,4.628,Pegmatite_15,6,15,1,1,4.628,-0.084761905,-0.419047619,1,0,0,6.9957,Pegmatite_rect,6,6.996,1,0,0,0,0,1,,,,,,,,,,,,,
666470715d3629eacf102999,SCN,2024-06-21_12h46.50.995,LearnStrategy,2023.2.3,Win32,60.97560976,3,1,2,0.391428571,-0.263809524,1,0,0,2.7428,Pegmatite_11,6,11,2,7,2.743,-0.132380952,-0.402857143,1,0,0,2.0826,Pegmatite_rect,6,2.083,1,1,0,1,0,1,,,,,,,,,,,,,
666470715d3629eacf102999,SCN,2024-06-21_12h46.50.995,LearnStrategy,2023.2.3,Win32,60.97560976,3,1,3,0.398095238,-0.44,1,0,0,0.9289,Pegmatite_16,6,16,1,7,0.929,-0.082857143,-0.4,1,0,0,1.2946,Pegmatite_rect,6,1.295,1,2,0,2,0,1,,,,,,,,,,,,,
666470715d3629eacf102999,SCN,2024-06-21_12h46.50.995,LearnStrategy,2023.2.3,Win32,60.97560976,3,1,4,-0.214285714,-0.402857143,1,0,0,1.8828,Pegmatite_09,6,09,1,3,1.883,-0.198095238,-0.399047619,1,0,0,2.4454,Pegmatite_rect,6,2.445,1,3,0,3,0,1,,,,,,,,,,,,,
666470715d3629eacf102999,SCN,2024-06-21_12h46.50.995,LearnStrategy,2023.2.3,Win32,60.97560976,3,1,5,-0.41047619,-0.43047619,1,0,0,1.2161,Obsidian_07,5,07,1,2,1.216,-0.421904762,-0.405714286,1,0,0,1.6374,Obsidian_rect,5,1.637,1,4,0,4,0,1,,,,,,,,,,,,,
666470715d3629eacf102999,SCN,2024-06-21_12h46.50.995,LearnStrategy,2023.2.3,Win32,60.97560976,3,1,6,0.406666667,0.259047619,1,0,0,10.8614,Pegmatite_08,6,08,5,7,10.861,-0.095238095,-0.408571429,1,0,0,3.7766,Pegmatite_rect,6,3.777,1,5,0,5,0,1,,,,,,,,,,,,,
666470715d3629eacf102999,SCN,2024-06-21_12h46.50.995,LearnStrategy,2023.2.3,Win32,60.97560976,3,1,7,-0.391428571,-0.240952381,1,0,0,10.6802,Diorite_02,3,02,2,2,10.68,0.14952381,-0.261904762,1,0,0,1.3734,Diorite_rect,3,1.373,1,6,0,6,0,1,,,,,,,,,,,,,
666470715d3629eacf102999,SCN,2024-06-21_12h46.50.995,LearnStrategy,2023.2.3,Win32,60.97560976,3,1,8,0.08,-0.247619048,1,0,0,3.963,Peridotite_15,7,15,2,5,3.963,0.063809524,-0.398095238,1,0,0,1.7192,Peridotite_rect,7,1.719,1,7,0,7,0,1,,,,,,,,,,,,,
666470715d3629eacf102999,SCN,2024-06-21_12h46.50.995,LearnStrategy,2023.2.3,Win32,60.97560976,3,1,9,0.560952381,-0.38952381,1,0,0,4.6986,Andesite_11,1,11,1,8,4.699,-0.424761905,-0.258095238,1,0,0,8.7706,Andesite_rect,1,8.771,1,8,0,8,0,1,,,,,,,,,,,,,
666470715d3629eacf102999,SCN,2024-06-21_12h46.50.995,LearnStrategy,2023.2.3,Win32,60.97560976,3,1,10,0.053333333,0.087619048,1,0,0,2.8438,Pegmatite_05,6,05,4,5,2.844,-0.094285714,-0.388571429,1,0,0,4.3675,Pegmatite_rect,6,4.368,1,9,0,9,0,1,,,,,,,,,,,,,
666470715d3629eacf102999,SCN,2024-06-21_12h46.50.995,LearnStrategy,2023.2.3,Win32,60.97560976,3,1,11,-0.228571429,0.072380952,1,0,0,2.3359,Basalt_12,2,12,4,3,2.336,0.38952381,-0.392380952,1,0,0,3.5777,Pumice_rect,8,3.578,0,10,0,10,0,1,,,,,,,,,,,,,
666470715d3629eacf102999,SCN,2024-06-21_12h46.50.995,LearnStrategy,2023.2.3,Win32,60.97560976,3,1,12,-0.087619048,0.247619048,1,0,0,4.1768,Pumice_13,8,13,5,4,4.177,0.362857143,-0.261904762,1,0,0,3.4244,Gabbro_rect,4,3.424,0,11,0,11,0,1,,,,,,,,,,,,,
666470715d3629eacf102999,SCN,2024-06-21_12h46.50.995,LearnStrategy,2023.2.3,Win32,60.97560976,3,1,13,0.22952381,0.256190476,1,0,0,1.962,Peridotite_07,7,07,5,6,1.962,0.132380952,-0.404761905,1,0,0,2.0192,Peridotite_rect,7,2.019,1,12,0,12,0,1,,,,,,,,,,,,,
666470715d3629eacf102999,SCN,2024-06-21_12h46.50.995,LearnStrategy,2023.2.3,Win32,60.97560976,3,1,14,0.553333333,0.24952381,1,0,0,1.6823,Gabbro_08,4,08,5,8,1.682,0.382857143,-0.239047619,1,0,0,9.0667,Gabbro_rect,4,9.067,1,13,0,13,0,1,,,,,,,,,,,,,
666470715d3629eacf102999,SCN,2024-06-21_12h46.50.995,LearnStrategy,2023.2.3,Win32,60.97560976,3,1,15,0.253333333,0.256190476,1,0,0,7.877,Peridotite_07,7,07,5,6,7.877,0.091428571,-0.407619048,1,0,0,1.9607,Peridotite_rect,7,1.961,1,14,0,14,0,1,,,,,,,,,,,,,
666470715d3629eacf102999,SCN,2024-06-21_12h46.50.995,LearnStrategy,2023.2.3,Win32,60.97560976,3,1,16,0.08952381,0.404761905,1,0,0,6.9771,Gabbro_10,4,10,6,5,6.977,0.476190476,-0.266666667,1,0,0,2.3446,Gabbro_rect,4,2.345,1,15,0,15,0,1,,,,,,,,,,,,,
666470715d3629eacf102999,SCN,2024-06-21_12h46.50.995,LearnStrategy,2023.2.3,Win32,60.97560976,3,2,1,,,,,,,,5,12,,,,,,,,,,,5,1.495,1,,,,,,-0.371428571,-0.420952381,1,0,0,1.4951,Obsidian_rect,0,0,0,0,1,
666470715d3629eacf102999,SCN,2024-06-21_12h46.50.995,LearnStrategy,2023.2.3,Win32,60.97560976,3,2,2,,,,,,,,3,13,,,,,,,,,,,3,9.554,1,,,,,,0.147619048,-0.241904762,1,0,0,9.5539,Diorite_rect,1,0,1,0,1,
666470715d3629eacf102999,SCN,2024-06-21_12h46.50.995,LearnStrategy,2023.2.3,Win32,60.97560976,3,2,3,,,,,,,,3,12,,,,,,,,,,,6,14.044,0,,,,,,-0.135238095,-0.413333333,1,0,0,14.0444,Pegmatite_rect,2,0,2,0,1,
666470715d3629eacf102999,SCN,2024-06-21_12h46.50.995,LearnStrategy,2023.2.3,Win32,60.97560976,3,2,4,,,,,,,,7,06,,,,,,,,,,,6,2.786,0,,,,,,-0.140952381,-0.400952381,1,0,0,2.7863,Pegmatite_rect,3,0,3,0,1,
666470715d3629eacf102999,SCN,2024-06-21_12h46.50.995,LearnStrategy,2023.2.3,Win32,60.97560976,3,2,5,,,,,,,,2,16,,,,,,,,,,,4,6.184,0,,,,,,0.359047619,-0.251428571,1,0,0,6.184,Gabbro_rect,4,0,4,0,1,
666470715d3629eacf102999,SCN,2024-06-21_12h46.50.995,LearnStrategy,2023.2.3,Win32,60.97560976,3,2,6,,,,,,,,4,01,,,,,,,,,,,1,12.571,0,,,,,,-0.435238095,-0.240952381,1,0,0,12.5706,Andesite_rect,5,0,5,0,1,
666470715d3629eacf102999,SCN,2024-06-21_12h46.50.995,LearnStrategy,2023.2.3,Win32,60.97560976,3,2,7,,,,,,,,1,07,,,,,,,,,,,1,1.052,1,,,,,,-0.439047619,-0.260952381,1,0,0,1.0521,Andesite_rect,6,0,6,0,1,
666470715d3629eacf102999,SCN,2024-06-21_12h46.50.995,LearnStrategy,2023.2.3,Win32,60.97560976,3,2,8,,,,,,,,8,09,,,,,,,,,,,8,1.639,1,,,,,,0.362857143,-0.416190476,1,0,0,1.6388,Pumice_rect,7,0,7,0,1,
666470715d3629eacf102999,SCN,2024-06-21_12h46.50.995,LearnStrategy,2023.2.3,Win32,60.97560976,3,2,9,,,,,,,,5,09,,,,,,,,,,,5,1.385,1,,,,,,-0.38,-0.407619048,1,0,0,1.3851,Obsidian_rect,8,0,8,0,1,
666470715d3629eacf102999,SCN,2024-06-21_12h46.50.995,LearnStrategy,2023.2.3,Win32,60.97560976,3,2,10,,,,,,,,8,15,,,,,,,,,,,2,2.257,0,,,,,,-0.141904762,-0.243809524,1,0,0,2.2566,Basalt_rect,9,0,9,0,1,
666470715d3629eacf102999,SCN,2024-06-21_12h46.50.995,LearnStrategy,2023.2.3,Win32,60.97560976,3,2,11,,,,,,,,4,16,,,,,,,,,,,1,16.383,0,,,,,,-0.431428571,-0.246666667,1,0,0,16.3831,Andesite_rect,10,0,10,0,1,
666470715d3629eacf102999,SCN,2024-06-21_12h46.50.995,LearnStrategy,2023.2.3,Win32,60.97560976,3,2,12,,,,,,,,7,10,,,,,,,,,,,7,1.813,1,,,,,,0.145714286,-0.403809524,1,0,0,1.8127,Peridotite_rect,11,0,11,0,1,
666470715d3629eacf102999,SCN,2024-06-21_12h46.50.995,LearnStrategy,2023.2.3,Win32,60.97560976,3,2,13,,,,,,,,6,03,,,,,,,,,,,6,6.37,1,,,,,,-0.118095238,-0.39047619,1,0,0,6.3696,Pegmatite_rect,12,0,12,0,1,
666470715d3629eacf102999,SCN,2024-06-21_12h46.50.995,LearnStrategy,2023.2.3,Win32,60.97560976,3,2,14,,,,,,,,6,10,,,,,,,,,,,6,2.344,1,,,,,,-0.115238095,-0.382857143,1,0,0,2.3443,Pegmatite_rect,13,0,13,0,1,
666470715d3629eacf102999,SCN,2024-06-21_12h46.50.995,LearnStrategy,2023.2.3,Win32,60.97560976,3,2,15,,,,,,,,2,10,,,,,,,,,,,2,4.923,1,,,,,,-0.121904762,-0.252380952,1,0,0,4.9228,Basalt_rect,14,0,14,0,1,
666470715d3629eacf102999,SCN,2024-06-21_12h46.50.995,LearnStrategy,2023.2.3,Win32,60.97560976,3,2,16,,,,,,,,1,10,,,,,,,,,,,1,10.988,1,,,,,,-0.352380952,-0.254285714,1,0,0,10.9878,Andesite_rect,15,0,15,0,1,
666470715d3629eacf102999,SCN,2024-06-21_12h46.50.995,LearnStrategy,2023.2.3,Win32,60.97560976,4,1,1,0.55047619,-0.265714286,1,0,0,6.095,Gabbro_13,4,13,2,8,6.095,0.415238095,-0.239047619,1,0,0,1.3065,Gabbro_rect,4,1.307,1,0,0,0,0,1,,,,,,,,,,,,,
666470715d3629eacf102999,SCN,2024-06-21_12h46.50.995,LearnStrategy,2023.2.3,Win32,60.97560976,4,1,2,-0.413333333,0.436190476,1,0,0,8.9448,Andesite_16,1,16,6,2,8.945,-0.363809524,-0.247619048,1,0,0,4.5198,Andesite_rect,1,4.52,1,1,0,1,0,1,,,,,,,,,,,,,
666470715d3629eacf102999,SCN,2024-06-21_12h46.50.995,LearnStrategy,2023.2.3,Win32,60.97560976,4,1,3,-0.573333333,0.4,1,0,0,0.9658,Peridotite_02,7,02,6,1,0.966,0.136190476,-0.419047619,1,0,0,2.1025,Peridotite_rect,7,2.102,1,2,0,2,0,1,,,,,,,,,,,,,
666470715d3629eacf102999,SCN,2024-06-21_12h46.50.995,LearnStrategy,2023.2.3,Win32,60.97560976,4,1,4,-0.228571429,0.385714286,1,0,0,1.4322,Andesite_01,1,01,6,3,1.432,-0.346666667,-0.266666667,1,0,0,6.519,Andesite_rect,1,6.519,1,3,0,3,0,1,,,,,,,,,,,,,
666470715d3629eacf102999,SCN,2024-06-21_12h46.50.995,LearnStrategy,2023.2.3,Win32,60.97560976,4,1,5,0.059047619,0.395238095,1,0,0,1.7298,Gabbro_10,4,10,6,5,1.73,0.42,-0.258095238,1,0,0,3.772,Gabbro_rect,4,3.772,1,4,0,4,0,1,,,,,,,,,,,,,
666470715d3629eacf102999,SCN,2024-06-21_12h46.50.995,LearnStrategy,2023.2.3,Win32,60.97560976,4,1,6,0.248571429,0.386666667,1,0,0,2.9093,Andesite_06,1,06,6,6,2.909,-0.378095238,-0.238095238,1,0,0,3.6313,Andesite_rect,1,3.631,1,5,0,5,0,1,,,,,,,,,,,,,
666470715d3629eacf102999,SCN,2024-06-21_12h46.50.995,LearnStrategy,2023.2.3,Win32,60.97560976,4,1,7,0.384761905,0.392380952,1,0,0,1.3307,Diorite_06,3,06,6,7,1.331,-0.093333333,-0.407619048,1,0,0,5.9865,Pegmatite_rect,6,5.986,0,6,0,6,0,1,,,,,,,,,,,,,
666470715d3629eacf102999,SCN,2024-06-21_12h46.50.995,LearnStrategy,2023.2.3,Win32,60.97560976,4,1,8,0.58,0.091428571,1,0,0,3.3718,Diorite_16,3,16,4,8,3.372,0.166666667,-0.239047619,1,0,0,3.0971,Diorite_rect,3,3.097,1,7,0,7,0,1,,,,,,,,,,,,,
666470715d3629eacf102999,SCN,2024-06-21_12h46.50.995,LearnStrategy,2023.2.3,Win32,60.97560976,4,1,9,0.197142857,0.078095238,1,0,0,2.9795,Gabbro_03,4,03,4,6,2.98,0.14,-0.254285714,1,0,0,2.9091,Diorite_rect,3,2.909,0,8,0,8,0,1,,,,,,,,,,,,,
666470715d3629eacf102999,SCN,2024-06-21_12h46.50.995,LearnStrategy,2023.2.3,Win32,60.97560976,4,1,10,0.255238095,0.382857143,1,0,0,3.3989,Andesite_06,1,06,6,6,3.399,-0.357142857,-0.239047619,1,0,0,1.9426,Andesite_rect,1,1.943,1,9,0,9,0,1,,,,,,,,,,,,,
666470715d3629eacf102999,SCN,2024-06-21_12h46.50.995,LearnStrategy,2023.2.3,Win32,60.97560976,4,1,11,-0.221904762,-0.093333333,1,0,0,12.9628,Diorite_08,3,08,3,3,12.963,0.075238095,-0.258095238,1,0,0,2.0896,Diorite_rect,3,2.09,1,10,0,10,0,1,,,,,,,,,,,,,
666470715d3629eacf102999,SCN,2024-06-21_12h46.50.995,LearnStrategy,2023.2.3,Win32,60.97560976,4,1,12,0.574285714,-0.100952381,1,0,0,3.5312,Diorite_11,3,11,3,8,3.531,0.448571429,-0.245714286,1,0,0,3.2274,Gabbro_rect,4,3.227,0,11,0,11,0,1,,,,,,,,,,,,,
666470715d3629eacf102999,SCN,2024-06-21_12h46.50.995,LearnStrategy,2023.2.3,Win32,60.97560976,4,1,13,0.56,-0.234285714,1,0,0,4.2951,Gabbro_13,4,13,2,8,4.295,0.453333333,-0.245714286,1,0,0,2.0203,Gabbro_rect,4,2.02,1,12,0,12,0,1,,,,,,,,,,,,,
666470715d3629eacf102999,SCN,2024-06-21_12h46.50.995,LearnStrategy,2023.2.3,Win32,60.97560976,4,1,14,-0.364761905,-0.26,1,0,0,2.5481,Diorite_02,3,02,2,2,2.548,0.075238095,-0.262857143,1,0,0,7.236,Diorite_rect,3,7.236,1,13,0,13,0,1,,,,,,,,,,,,,
666470715d3629eacf102999,SCN,2024-06-21_12h46.50.995,LearnStrategy,2023.2.3,Win32,60.97560976,4,1,15,-0.540952381,-0.104761905,1,0,0,1.8603,Gabbro_15,4,15,3,1,1.86,0.167619048,-0.266666667,1,0,0,1.837,Diorite_rect,3,1.837,0,14,0,14,0,1,,,,,,,,,,,,,
666470715d3629eacf102999,SCN,2024-06-21_12h46.50.995,LearnStrategy,2023.2.3,Win32,60.97560976,4,1,16,-0.565714286,0.436190476,1,0,0,3.0645,Peridotite_02,7,02,6,1,3.064,0.116190476,-0.400952381,1,0,0,1.7509,Peridotite_rect,7,1.751,1,15,0,15,0,1,,,,,,,,,,,,,
666470715d3629eacf102999,SCN,2024-06-21_12h46.50.995,LearnStrategy,2023.2.3,Win32,60.97560976,4,2,1,,,,,,,,5,09,,,,,,,,,,,5,4.298,1,,,,,,-0.386666667,-0.412380952,1,0,0,4.2985,Obsidian_rect,0,0,0,0,1,
666470715d3629eacf102999,SCN,2024-06-21_12h46.50.995,LearnStrategy,2023.2.3,Win32,60.97560976,4,2,2,,,,,,,,7,10,,,,,,,,,,,7,2.949,1,,,,,,0.120952381,-0.404761905,1,0,0,2.9488,Peridotite_rect,1,0,1,0,1,
666470715d3629eacf102999,SCN,2024-06-21_12h46.50.995,LearnStrategy,2023.2.3,Win32,60.97560976,4,2,3,,,,,,,,2,06,,,,,,,,,,,2,9.401,1,,,,,,-0.133333333,-0.260952381,1,0,0,9.4014,Basalt_rect,2,0,2,0,1,
666470715d3629eacf102999,SCN,2024-06-21_12h46.50.995,LearnStrategy,2023.2.3,Win32,60.97560976,4,2,4,,,,,,,,6,13,,,,,,,,,,,6,7.016,1,,,,,,-0.100952381,-0.417142857,1,0,0,7.0159,Pegmatite_rect,3,0,3,0,1,
666470715d3629eacf102999,SCN,2024-06-21_12h46.50.995,LearnStrategy,2023.2.3,Win32,60.97560976,4,2,5,,,,,,,,7,12,,,,,,,,,,,3,7.362,0,,,,,,0.096190476,-0.255238095,1,0,0,7.3619,Diorite_rect,4,0,4,0,1,
666470715d3629eacf102999,SCN,2024-06-21_12h46.50.995,LearnStrategy,2023.2.3,Win32,60.97560976,4,2,6,,,,,,,,1,10,,,,,,,,,,,1,7.583,1,,,,,,-0.374285714,-0.259047619,1,0,0,7.5833,Andesite_rect,5,0,5,0,1,
666470715d3629eacf102999,SCN,2024-06-21_12h46.50.995,LearnStrategy,2023.2.3,Win32,60.97560976,4,2,7,,,,,,,,4,16,,,,,,,,,,,4,9.707,1,,,,,,0.34952381,-0.251428571,1,0,0,9.7074,Gabbro_rect,6,0,6,0,1,
666470715d3629eacf102999,SCN,2024-06-21_12h46.50.995,LearnStrategy,2023.2.3,Win32,60.97560976,4,2,8,,,,,,,,3,14,,,,,,,,,,,3,6.868,1,,,,,,0.157142857,-0.247619048,1,0,0,6.8683,Diorite_rect,7,0,7,0,1,
666470715d3629eacf102999,SCN,2024-06-21_12h46.50.995,LearnStrategy,2023.2.3,Win32,60.97560976,4,2,9,,,,,,,,2,09,,,,,,,,,,,2,1.252,1,,,,,,-0.078095238,-0.241904762,1,0,0,1.2517,Basalt_rect,8,0,8,0,1,
666470715d3629eacf102999,SCN,2024-06-21_12h46.50.995,LearnStrategy,2023.2.3,Win32,60.97560976,4,2,10,,,,,,,,6,10,,,,,,,,,,,6,7.986,1,,,,,,-0.101904762,-0.397142857,1,0,0,7.9864,Pegmatite_rect,9,0,9,0,1,
666470715d3629eacf102999,SCN,2024-06-21_12h46.50.995,LearnStrategy,2023.2.3,Win32,60.97560976,4,2,11,,,,,,,,3,12,,,,,,,,,,,3,19.085,1,,,,,,0.067619048,-0.264761905,1,0,0,19.0852,Diorite_rect,10,0,10,0,1,
666470715d3629eacf102999,SCN,2024-06-21_12h46.50.995,LearnStrategy,2023.2.3,Win32,60.97560976,4,2,12,,,,,,,,1,14,,,,,,,,,,,1,3.618,1,,,,,,-0.342857143,-0.259047619,1,0,0,3.6176,Andesite_rect,11,0,11,0,1,
666470715d3629eacf102999,SCN,2024-06-21_12h46.50.995,LearnStrategy,2023.2.3,Win32,60.97560976,4,2,13,,,,,,,,4,12,,,,,,,,,,,2,10.384,0,,,,,,-0.18952381,-0.258095238,1,0,0,10.384,Basalt_rect,12,0,12,0,1,
666470715d3629eacf102999,SCN,2024-06-21_12h46.50.995,LearnStrategy,2023.2.3,Win32,60.97560976,4,2,14,,,,,,,,8,16,,,,,,,,,,,8,2.022,1,,,,,,0.358095238,-0.408571429,1,0,0,2.0222,Pumice_rect,13,0,13,0,1,
666470715d3629eacf102999,SCN,2024-06-21_12h46.50.995,LearnStrategy,2023.2.3,Win32,60.97560976,4,2,15,,,,,,,,8,15,,,,,,,,,,,8,1.003,1,,,,,,0.359047619,-0.407619048,1,0,0,1.0028,Pumice_rect,14,0,14,0,1,
666470715d3629eacf102999,SCN,2024-06-21_12h46.50.995,LearnStrategy,2023.2.3,Win32,60.97560976,4,2,16,,,,,,,,5,12,,,,,,,,,,,5,1.234,1,,,,,,-0.4,-0.408571429,1,0,0,1.2344,Obsidian_rect,15,0,15,0,1,
666470715d3629eacf102999,SCN,2024-06-21_12h46.50.995,LearnStrategy,2023.2.3,Win32,60.97560976,5,1,1,0.064761905,0.093333333,1,0,0,2.6325,Pegmatite_05,6,05,4,5,2.633,-0.114285714,-0.4,1,0,0,5.0474,Pegmatite_rect,6,5.047,1,0,0,0,0,1,,,,,,,,,,,,,
666470715d3629eacf102999,SCN,2024-06-21_12h46.50.995,LearnStrategy,2023.2.3,Win32,60.97560976,5,1,2,0.075238095,-0.275238095,1,0,0,2.9485,Peridotite_15,7,15,2,5,2.948,0.103809524,-0.41047619,1,0,0,1.4348,Peridotite_rect,7,1.435,1,1,0,1,0,1,,,,,,,,,,,,,
666470715d3629eacf102999,SCN,2024-06-21_12h46.50.995,LearnStrategy,2023.2.3,Win32,60.97560976,5,1,3,-0.544761905,-0.261904762,1,0,0,4.2969,Basalt_05,2,05,2,1,4.297,-0.160952381,-0.263809524,1,0,0,1.6289,Basalt_rect,2,1.629,1,2,0,2,0,1,,,,,,,,,,,,,
666470715d3629eacf102999,SCN,2024-06-21_12h46.50.995,LearnStrategy,2023.2.3,Win32,60.97560976,5,1,4,-0.056190476,-0.40952381,1,0,0,2.6824,Peridotite_08,7,08,1,4,2.682,0.097142857,-0.413333333,1,0,0,1.3954,Peridotite_rect,7,1.395,1,3,0,3,0,1,,,,,,,,,,,,,
666470715d3629eacf102999,SCN,2024-06-21_12h46.50.995,LearnStrategy,2023.2.3,Win32,60.97560976,5,1,5,0.24952381,-0.419047619,1,0,0,1.531,Basalt_14,2,14,1,6,1.531,0.334285714,-0.259047619,1,0,0,3.3531,Gabbro_rect,4,3.353,0,4,0,4,0,1,,,,,,,,,,,,,
666470715d3629eacf102999,SCN,2024-06-21_12h46.50.995,LearnStrategy,2023.2.3,Win32,60.97560976,5,1,6,0.526666667,-0.243809524,1,0,0,2.946,Gabbro_13,4,13,2,8,2.946,0.480952381,-0.234285714,1,0,0,2.3827,Gabbro_rect,4,2.383,1,5,0,5,0,1,,,,,,,,,,,,,
666470715d3629eacf102999,SCN,2024-06-21_12h46.50.995,LearnStrategy,2023.2.3,Win32,60.97560976,5,1,7,-0.095238095,-0.262857143,1,0,0,2.6449,Diorite_15,3,15,2,4,2.645,0.075238095,-0.265714286,1,0,0,9.3356,Diorite_rect,3,9.336,1,6,0,6,0,1,,,,,,,,,,,,,
666470715d3629eacf102999,SCN,2024-06-21_12h46.50.995,LearnStrategy,2023.2.3,Win32,60.97560976,5,1,8,-0.211428571,-0.244761905,1,0,0,3.3273,Andesite_02,1,02,2,3,3.327,-0.380952381,-0.238095238,1,0,0,2.734,Andesite_rect,1,2.734,1,7,0,7,0,1,,,,,,,,,,,,,
666470715d3629eacf102999,SCN,2024-06-21_12h46.50.995,LearnStrategy,2023.2.3,Win32,60.97560976,5,1,9,-0.55047619,-0.092380952,1,0,0,1.2806,Gabbro_15,4,15,3,1,1.281,0.108571429,-0.247619048,1,0,0,9.1057,Diorite_rect,3,9.106,0,8,0,8,0,1,,,,,,,,,,,,,
666470715d3629eacf102999,SCN,2024-06-21_12h46.50.995,LearnStrategy,2023.2.3,Win32,60.97560976,5,1,10,-0.388571429,0.073333333,1,0,0,4.9629,Basalt_04,2,04,4,2,4.963,0.414285714,-0.259047619,1,0,0,1.738,Gabbro_rect,4,1.738,0,9,0,9,0,1,,,,,,,,,,,,,
666470715d3629eacf102999,SCN,2024-06-21_12h46.50.995,LearnStrategy,2023.2.3,Win32,60.97560976,5,1,11,-0.538095238,0.100952381,1,0,0,1.4145,Basalt_11,2,11,4,1,1.414,-0.388571429,-0.244761905,1,0,0,2.3858,Andesite_rect,1,2.386,0,10,0,10,0,1,,,,,,,,,,,,,
666470715d3629eacf102999,SCN,2024-06-21_12h46.50.995,LearnStrategy,2023.2.3,Win32,60.97560976,5,1,12,-0.21047619,0.096190476,1,0,0,2.1773,Basalt_12,2,12,4,3,2.177,0.405714286,-0.38952381,1,0,0,1.2768,Pumice_rect,8,1.277,0,11,0,11,0,1,,,,,,,,,,,,,
666470715d3629eacf102999,SCN,2024-06-21_12h46.50.995,LearnStrategy,2023.2.3,Win32,60.97560976,5,1,13,0.216190476,0.08952381,1,0,0,2.9325,Gabbro_03,4,03,4,6,2.932,0.151428571,-0.242857143,1,0,0,6.8057,Diorite_rect,3,6.806,0,12,0,12,0,1,,,,,,,,,,,,,
666470715d3629eacf102999,SCN,2024-06-21_12h46.50.995,LearnStrategy,2023.2.3,Win32,60.97560976,5,1,14,0.362857143,0.108571429,1,0,0,1.7968,Peridotite_05,7,05,4,7,1.797,-0.079047619,-0.401904762,1,0,0,6.2354,Pegmatite_rect,6,6.235,0,13,0,13,0,1,,,,,,,,,,,,,
666470715d3629eacf102999,SCN,2024-06-21_12h46.50.995,LearnStrategy,2023.2.3,Win32,60.97560976,5,1,15,0.53047619,0.087619048,1,0,0,1.6125,Diorite_16,3,16,4,8,1.612,0.140952381,-0.263809524,1,0,0,1.9869,Diorite_rect,3,1.987,1,14,0,14,0,1,,,,,,,,,,,,,
666470715d3629eacf102999,SCN,2024-06-21_12h46.50.995,LearnStrategy,2023.2.3,Win32,60.97560976,5,1,16,0.246666667,0.09047619,1,0,0,2.4118,Gabbro_03,4,03,4,6,2.412,0.357142857,-0.236190476,1,0,0,1.2064,Gabbro_rect,4,1.206,1,15,0,15,0,1,,,,,,,,,,,,,
666470715d3629eacf102999,SCN,2024-06-21_12h46.50.995,LearnStrategy,2023.2.3,Win32,60.97560976,5,2,1,,,,,,,,1,05,,,,,,,,,,,1,3.535,1,,,,,,-0.393333333,-0.257142857,1,0,0,3.5353,Andesite_rect,0,0,0,0,1,
666470715d3629eacf102999,SCN,2024-06-21_12h46.50.995,LearnStrategy,2023.2.3,Win32,60.97560976,5,2,2,,,,,,,,4,05,,,,,,,,,,,4,7.656,1,,,,,,0.352380952,-0.25047619,1,0,0,7.6557,Gabbro_rect,1,0,1,0,1,
666470715d3629eacf102999,SCN,2024-06-21_12h46.50.995,LearnStrategy,2023.2.3,Win32,60.97560976,5,2,3,,,,,,,,8,04,,,,,,,,,,,8,1.338,1,,,,,,0.371428571,-0.407619048,1,0,0,1.3379,Pumice_rect,2,0,2,0,1,
666470715d3629eacf102999,SCN,2024-06-21_12h46.50.995,LearnStrategy,2023.2.3,Win32,60.97560976,5,2,4,,,,,,,,7,04,,,,,,,,,,,7,3.053,1,,,,,,0.214285714,-0.40952381,1,0,0,3.0532,Peridotite_rect,3,0,3,0,1,
666470715d3629eacf102999,SCN,2024-06-21_12h46.50.995,LearnStrategy,2023.2.3,Win32,60.97560976,5,2,5,,,,,,,,6,03,,,,,,,,,,,6,3.682,1,,,,,,-0.077142857,-0.414285714,1,0,0,3.6822,Pegmatite_rect,4,0,4,0,1,
666470715d3629eacf102999,SCN,2024-06-21_12h46.50.995,LearnStrategy,2023.2.3,Win32,60.97560976,5,2,6,,,,,,,,3,09,,,,,,,,,,,3,14.76,1,,,,,,0.134285714,-0.260952381,1,0,0,14.76,Diorite_rect,5,0,5,0,1,
666470715d3629eacf102999,SCN,2024-06-21_12h46.50.995,LearnStrategy,2023.2.3,Win32,60.97560976,5,2,7,,,,,,,,5,05,,,,,,,,,,,5,2.952,1,,,,,,-0.427619048,-0.408571429,1,0,0,2.9524,Obsidian_rect,6,0,6,0,1,
666470715d3629eacf102999,SCN,2024-06-21_12h46.50.995,LearnStrategy,2023.2.3,Win32,60.97560976,5,2,8,,,,,,,,5,08,,,,,,,,,,,5,0.722,1,,,,,,-0.436190476,-0.403809524,1,0,0,0.7221,Obsidian_rect,7,0,7,0,1,
666470715d3629eacf102999,SCN,2024-06-21_12h46.50.995,LearnStrategy,2023.2.3,Win32,60.97560976,5,2,9,,,,,,,,4,01,,,,,,,,,,,7,5.414,0,,,,,,0.068571429,-0.41047619,1,0,0,5.4141,Peridotite_rect,8,0,8,0,1,
666470715d3629eacf102999,SCN,2024-06-21_12h46.50.995,LearnStrategy,2023.2.3,Win32,60.97560976,5,2,10,,,,,,,,3,07,,,,,,,,,,,4,7.38,0,,,,,,0.355238095,-0.25047619,1,0,0,7.38,Gabbro_rect,9,0,9,0,1,
666470715d3629eacf102999,SCN,2024-06-21_12h46.50.995,LearnStrategy,2023.2.3,Win32,60.97560976,5,2,11,,,,,,,,2,16,,,,,,,,,,,2,1.927,1,,,,,,-0.14952381,-0.258095238,1,0,0,1.9272,Basalt_rect,10,0,10,0,1,
666470715d3629eacf102999,SCN,2024-06-21_12h46.50.995,LearnStrategy,2023.2.3,Win32,60.97560976,5,2,12,,,,,,,,1,07,,,,,,,,,,,1,6.13,1,,,,,,-0.337142857,-0.244761905,1,0,0,6.1298,Andesite_rect,11,0,11,0,1,
666470715d3629eacf102999,SCN,2024-06-21_12h46.50.995,LearnStrategy,2023.2.3,Win32,60.97560976,5,2,13,,,,,,,,7,14,,,,,,,,,,,4,12.233,0,,,,,,0.333333333,-0.246666667,1,0,0,12.2334,Gabbro_rect,12,0,12,0,1,
666470715d3629eacf102999,SCN,2024-06-21_12h46.50.995,LearnStrategy,2023.2.3,Win32,60.97560976,5,2,14,,,,,,,,8,08,,,,,,,,,,,8,1.164,1,,,,,,0.407619048,-0.411428571,1,0,0,1.1638,Pumice_rect,13,0,13,0,1,
666470715d3629eacf102999,SCN,2024-06-21_12h46.50.995,LearnStrategy,2023.2.3,Win32,60.97560976,5,2,15,,,,,,,,6,07,,,,,,,,,,,6,15.834,1,,,,,,-0.099047619,-0.383809524,1,0,0,15.8341,Pegmatite_rect,14,0,14,0,1,
666470715d3629eacf102999,SCN,2024-06-21_12h46.50.995,LearnStrategy,2023.2.3,Win32,60.97560976,5,2,16,,,,,,,,2,01,,,,,,,,,,,2,1.28,1,,,,,,-0.16952381,-0.245714286,1,0,0,1.2804,Basalt_rect,15,0,15,0,1,
666470715d3629eacf102999,SCN,2024-06-21_12h46.50.995,LearnStrategy,2023.2.3,Win32,60.97560976,6,1,1,0.538095238,0.103809524,1,0,0,4.7615,Diorite_16,3,16,4,8,4.761,0.400952381,-0.253333333,1,0,0,1.009,Gabbro_rect,4,1.009,0,0,0,0,0,1,,,,,,,,,,,,,
666470715d3629eacf102999,SCN,2024-06-21_12h46.50.995,LearnStrategy,2023.2.3,Win32,60.97560976,6,1,2,0.554285714,-0.085714286,1,0,0,1.3292,Diorite_11,3,11,3,8,1.329,0.164761905,-0.254285714,1,0,0,0.7246,Diorite_rect,3,0.725,1,1,0,1,0,1,,,,,,,,,,,,,
666470715d3629eacf102999,SCN,2024-06-21_12h46.50.995,LearnStrategy,2023.2.3,Win32,60.97560976,6,1,3,-0.201904762,-0.120952381,1,0,0,0.8332,Diorite_08,3,08,3,3,0.833,0.122857143,-0.265714286,1,0,0,0.8356,Diorite_rect,3,0.836,1,2,0,2,0,1,,,,,,,,,,,,,
666470715d3629eacf102999,SCN,2024-06-21_12h46.50.995,LearnStrategy,2023.2.3,Win32,60.97560976,6,1,4,-0.408571429,-0.263809524,1,0,0,1.1461,Diorite_02,3,02,2,2,1.146,0.045714286,-0.247619048,1,0,0,1.285,Diorite_rect,3,1.285,1,3,0,3,0,1,,,,,,,,,,,,,
666470715d3629eacf102999,SCN,2024-06-21_12h46.50.995,LearnStrategy,2023.2.3,Win32,60.97560976,6,1,5,0.215238095,-0.086666667,1,0,0,1.2972,Gabbro_09,4,09,3,6,1.297,-0.102857143,-0.251428571,1,0,0,4.0724,Basalt_rect,2,4.072,0,4,0,4,0,1,,,,,,,,,,,,,
666470715d3629eacf102999,SCN,2024-06-21_12h46.50.995,LearnStrategy,2023.2.3,Win32,60.97560976,6,1,6,0.21047619,-0.100952381,1,0,0,0.9481,Gabbro_09,4,09,3,6,0.948,0.384761905,-0.253333333,1,0,0,3.0173,Gabbro_rect,4,3.017,1,5,0,5,0,1,,,,,,,,,,,,,
666470715d3629eacf102999,SCN,2024-06-21_12h46.50.995,LearnStrategy,2023.2.3,Win32,60.97560976,6,1,7,0.234285714,0.085714286,1,0,0,2.295,Gabbro_03,4,03,4,6,2.295,0.342857143,-0.252380952,1,0,0,1.3055,Gabbro_rect,4,1.305,1,6,0,6,0,1,,,,,,,,,,,,,
666470715d3629eacf102999,SCN,2024-06-21_12h46.50.995,LearnStrategy,2023.2.3,Win32,60.97560976,6,1,8,0.404761905,0.095238095,1,0,0,1.2496,Peridotite_05,7,05,4,7,1.25,0.141904762,-0.402857143,1,0,0,4.1548,Peridotite_rect,7,4.155,1,7,0,7,0,1,,,,,,,,,,,,,
666470715d3629eacf102999,SCN,2024-06-21_12h46.50.995,LearnStrategy,2023.2.3,Win32,60.97560976,6,1,9,-0.404761905,0.418095238,1,0,0,3.0138,Andesite_16,1,16,6,2,3.014,-0.440952381,-0.235238095,1,0,0,1.9014,Andesite_rect,1,1.901,1,8,0,8,0,1,,,,,,,,,,,,,
666470715d3629eacf102999,SCN,2024-06-21_12h46.50.995,LearnStrategy,2023.2.3,Win32,60.97560976,6,1,10,-0.565714286,0.396190476,1,0,0,1.3971,Peridotite_02,7,02,6,1,1.397,0.138095238,-0.385714286,1,0,0,1.5729,Peridotite_rect,7,1.573,1,9,0,9,0,1,,,,,,,,,,,,,
666470715d3629eacf102999,SCN,2024-06-21_12h46.50.995,LearnStrategy,2023.2.3,Win32,60.97560976,6,1,11,0.100952381,0.394285714,1,0,0,2.3819,Gabbro_10,4,10,6,5,2.382,-0.125714286,-0.26,1,0,0,2.9033,Basalt_rect,2,2.903,0,10,0,10,0,1,,,,,,,,,,,,,
666470715d3629eacf102999,SCN,2024-06-21_12h46.50.995,LearnStrategy,2023.2.3,Win32,60.97560976,6,1,12,0.221904762,-0.114285714,1,0,0,2.6464,Gabbro_09,4,09,3,6,2.646,0.374285714,-0.233333333,1,0,0,1.5847,Gabbro_rect,4,1.585,1,11,0,11,0,1,,,,,,,,,,,,,
666470715d3629eacf102999,SCN,2024-06-21_12h46.50.995,LearnStrategy,2023.2.3,Win32,60.97560976,6,1,13,0.241904762,-0.237142857,1,0,0,1.8488,Basalt_08,2,08,2,6,1.849,-0.085714286,-0.248571429,1,0,0,1.2536,Basalt_rect,2,1.254,1,12,0,12,0,1,,,,,,,,,,,,,
666470715d3629eacf102999,SCN,2024-06-21_12h46.50.995,LearnStrategy,2023.2.3,Win32,60.97560976,6,1,14,-0.081904762,-0.434285714,1,0,0,1.8636,Peridotite_08,7,08,1,4,1.864,0.104761905,-0.393333333,1,0,0,1.553,Peridotite_rect,7,1.553,1,13,0,13,0,1,,,,,,,,,,,,,
666470715d3629eacf102999,SCN,2024-06-21_12h46.50.995,LearnStrategy,2023.2.3,Win32,60.97560976,6,1,15,-0.4,-0.26,1,0,0,4.1283,Diorite_02,3,02,2,2,4.128,0.12952381,-0.266666667,1,0,0,1.0132,Diorite_rect,3,1.013,1,14,0,14,0,1,,,,,,,,,,,,,
666470715d3629eacf102999,SCN,2024-06-21_12h46.50.995,LearnStrategy,2023.2.3,Win32,60.97560976,6,1,16,-0.562857143,-0.26952381,1,0,0,1.0779,Basalt_05,2,05,2,1,1.078,-0.202857143,-0.26952381,1,0,0,1.5228,Basalt_rect,2,1.523,1,15,0,15,0,1,,,,,,,,,,,,,
666470715d3629eacf102999,SCN,2024-06-21_12h46.50.995,LearnStrategy,2023.2.3,Win32,60.97560976,6,2,1,,,,,,,,1,03,,,,,,,,,,,4,21.293,0,,,,,,0.343809524,-0.242857143,1,0,0,21.2927,Gabbro_rect,0,0,0,0,1,
666470715d3629eacf102999,SCN,2024-06-21_12h46.50.995,LearnStrategy,2023.2.3,Win32,60.97560976,6,2,2,,,,,,,,8,14,,,,,,,,,,,8,1.05,1,,,,,,0.462857143,-0.414285714,1,0,0,1.0501,Pumice_rect,1,0,1,0,1,
666470715d3629eacf102999,SCN,2024-06-21_12h46.50.995,LearnStrategy,2023.2.3,Win32,60.97560976,6,2,3,,,,,,,,2,02,,,,,,,,,,,2,4.1,1,,,,,,-0.104761905,-0.247619048,1,0,0,4.1,Basalt_rect,2,0,2,0,1,
666470715d3629eacf102999,SCN,2024-06-21_12h46.50.995,LearnStrategy,2023.2.3,Win32,60.97560976,6,2,4,,,,,,,,2,10,,,,,,,,,,,2,1.233,1,,,,,,-0.119047619,-0.257142857,1,0,0,1.233,Basalt_rect,3,0,3,0,1,
666470715d3629eacf102999,SCN,2024-06-21_12h46.50.995,LearnStrategy,2023.2.3,Win32,60.97560976,6,2,5,,,,,,,,7,13,,,,,,,,,,,7,1.267,1,,,,,,0.146666667,-0.401904762,1,0,0,1.2673,Peridotite_rect,4,0,4,0,1,
666470715d3629eacf102999,SCN,2024-06-21_12h46.50.995,LearnStrategy,2023.2.3,Win32,60.97560976,6,2,6,,,,,,,,6,06,,,,,,,,,,,6,7.536,1,,,,,,-0.075238095,-0.378095238,1,0,0,7.5359,Pegmatite_rect,5,0,5,0,1,
666470715d3629eacf102999,SCN,2024-06-21_12h46.50.995,LearnStrategy,2023.2.3,Win32,60.97560976,6,2,7,,,,,,,,6,12,,,,,,,,,,,6,5.234,1,,,,,,-0.100952381,-0.393333333,1,0,0,5.234,Pegmatite_rect,6,0,6,0,1,
666470715d3629eacf102999,SCN,2024-06-21_12h46.50.995,LearnStrategy,2023.2.3,Win32,60.97560976,6,2,8,,,,,,,,8,09,,,,,,,,,,,8,1.649,1,,,,,,0.444761905,-0.4,1,0,0,1.6488,Pumice_rect,7,0,7,0,1,
666470715d3629eacf102999,SCN,2024-06-21_12h46.50.995,LearnStrategy,2023.2.3,Win32,60.97560976,6,2,9,,,,,,,,4,14,,,,,,,,,,,4,11.059,1,,,,,,0.366666667,-0.233333333,1,0,0,11.059,Gabbro_rect,8,0,8,0,1,
666470715d3629eacf102999,SCN,2024-06-21_12h46.50.995,LearnStrategy,2023.2.3,Win32,60.97560976,6,2,10,,,,,,,,7,06,,,,,,,,,,,6,3.504,0,,,,,,-0.194285714,-0.395238095,1,0,0,3.5039,Pegmatite_rect,9,0,9,0,1,
666470715d3629eacf102999,SCN,2024-06-21_12h46.50.995,LearnStrategy,2023.2.3,Win32,60.97560976,6,2,11,,,,,,,,3,10,,,,,,,,,,,3,7.541,1,,,,,,0.09047619,-0.240952381,1,0,0,7.541,Diorite_rect,10,0,10,0,1,
666470715d3629eacf102999,SCN,2024-06-21_12h46.50.995,LearnStrategy,2023.2.3,Win32,60.97560976,6,2,12,,,,,,,,1,04,,,,,,,,,,,1,1.457,1,,,,,,-0.314285714,-0.244761905,1,0,0,1.4567,Andesite_rect,11,0,11,0,1,
666470715d3629eacf102999,SCN,2024-06-21_12h46.50.995,LearnStrategy,2023.2.3,Win32,60.97560976,6,2,13,,,,,,,,3,13,,,,,,,,,,,6,42.241,0,,,,,,-0.133333333,-0.4,1,0,0,42.2408,Pegmatite_rect,12,0,12,0,1,
666470715d3629eacf102999,SCN,2024-06-21_12h46.50.995,LearnStrategy,2023.2.3,Win32,60.97560976,6,2,14,,,,,,,,4,11,,,,,,,,,,,2,9.084,0,,,,,,-0.147619048,-0.271428571,1,0,0,9.0838,Basalt_rect,13,0,13,0,1,
666470715d3629eacf102999,SCN,2024-06-21_12h46.50.995,LearnStrategy,2023.2.3,Win32,60.97560976,6,2,15,,,,,,,,5,14,,,,,,,,,,,5,1.168,1,,,,,,-0.382857143,-0.401904762,1,0,0,1.1678,Obsidian_rect,14,0,14,0,1,
666470715d3629eacf102999,SCN,2024-06-21_12h46.50.995,LearnStrategy,2023.2.3,Win32,60.97560976,6,2,16,,,,,,,,5,16,,,,,,,,,,,5,0.653,1,,,,,,-0.379047619,-0.401904762,1,0,0,0.6527,Obsidian_rect,15,0,15,0,1,
666470715d3629eacf102999,SCN,2024-06-21_12h46.50.995,LearnStrategy,2023.2.3,Win32,60.97560976,7,1,1,-0.532380952,-0.106666667,1,0,0,2.4283,Gabbro_15,4,15,3,1,2.428,0.164761905,-0.233333333,1,0,0,6.4018,Diorite_rect,3,6.402,0,0,0,0,0,1,,,,,,,,,,,,,
666470715d3629eacf102999,SCN,2024-06-21_12h46.50.995,LearnStrategy,2023.2.3,Win32,60.97560976,7,1,2,-0.545714286,0.081904762,1,0,0,4.7488,Basalt_11,2,11,4,1,4.749,-0.102857143,-0.262857143,1,0,0,2.1889,Basalt_rect,2,2.189,1,1,0,1,0,1,,,,,,,,,,,,,
666470715d3629eacf102999,SCN,2024-06-21_12h46.50.995,LearnStrategy,2023.2.3,Win32,60.97560976,7,1,3,0.221904762,0.244761905,1,0,0,2.5639,Peridotite_07,7,07,5,6,2.564,0.137142857,-0.406666667,1,0,0,2.2917,Peridotite_rect,7,2.292,1,2,0,2,0,1,,,,,,,,,,,,,
666470715d3629eacf102999,SCN,2024-06-21_12h46.50.995,LearnStrategy,2023.2.3,Win32,60.97560976,7,1,4,0.566666667,0.403809524,1,0,0,2.2933,Peridotite_16,7,16,6,8,2.293,0.18,-0.387619048,1,0,0,2.2324,Peridotite_rect,7,2.232,1,3,0,3,0,1,,,,,,,,,,,,,
666470715d3629eacf102999,SCN,2024-06-21_12h46.50.995,LearnStrategy,2023.2.3,Win32,60.97560976,7,1,5,-0.365714286,-0.26,1,0,0,6.8941,Diorite_02,3,02,2,2,6.894,0.097142857,-0.254285714,1,0,0,3.9308,Diorite_rect,3,3.931,1,4,0,4,0,1,,,,,,,,,,,,,
666470715d3629eacf102999,SCN,2024-06-21_12h46.50.995,LearnStrategy,2023.2.3,Win32,60.97560976,7,1,6,-0.545714286,-0.253333333,1,0,0,2.7299,Basalt_05,2,05,2,1,2.73,-0.115238095,-0.237142857,1,0,0,1.0078,Basalt_rect,2,1.008,1,5,0,5,0,1,,,,,,,,,,,,,
666470715d3629eacf102999,SCN,2024-06-21_12h46.50.995,LearnStrategy,2023.2.3,Win32,60.97560976,7,1,7,-0.52,0.402857143,1,0,0,1.9149,Peridotite_02,7,02,6,1,1.915,0.105714286,-0.385714286,1,0,0,1.6189,Peridotite_rect,7,1.619,1,6,0,6,0,1,,,,,,,,,,,,,
666470715d3629eacf102999,SCN,2024-06-21_12h46.50.995,LearnStrategy,2023.2.3,Win32,60.97560976,7,1,8,-0.056190476,0.248571429,1,0,0,2.9131,Pumice_13,8,13,5,4,2.913,-0.135238095,-0.243809524,1,0,0,2.3819,Basalt_rect,2,2.382,0,7,0,7,0,1,,,,,,,,,,,,,
666470715d3629eacf102999,SCN,2024-06-21_12h46.50.995,LearnStrategy,2023.2.3,Win32,60.97560976,7,1,9,0.368571429,0.407619048,1,0,0,2.5949,Diorite_06,3,06,6,7,2.595,0.152380952,-0.252380952,1,0,0,5.5571,Diorite_rect,3,5.557,1,8,0,8,0,1,,,,,,,,,,,,,
666470715d3629eacf102999,SCN,2024-06-21_12h46.50.995,LearnStrategy,2023.2.3,Win32,60.97560976,7,1,10,0.591428571,0.1,1,0,0,1.4975,Diorite_16,3,16,4,8,1.497,0.120952381,-0.241904762,1,0,0,7.9994,Diorite_rect,3,7.999,1,9,0,9,0,1,,,,,,,,,,,,,
666470715d3629eacf102999,SCN,2024-06-21_12h46.50.995,LearnStrategy,2023.2.3,Win32,60.97560976,7,1,11,0.228571429,0.087619048,1,0,0,1.163,Gabbro_03,4,03,4,6,1.163,0.406666667,-0.265714286,1,0,0,2.2068,Gabbro_rect,4,2.207,1,10,0,10,0,1,,,,,,,,,,,,,
666470715d3629eacf102999,SCN,2024-06-21_12h46.50.995,LearnStrategy,2023.2.3,Win32,60.97560976,7,1,12,0.541904762,0.252380952,1,0,0,4.048,Gabbro_08,4,08,5,8,4.048,0.38952381,-0.251428571,1,0,0,2.707,Gabbro_rect,4,2.707,1,11,0,11,0,1,,,,,,,,,,,,,
666470715d3629eacf102999,SCN,2024-06-21_12h46.50.995,LearnStrategy,2023.2.3,Win32,60.97560976,7,1,13,0.531428571,0.41047619,1,0,0,1.5809,Peridotite_16,7,16,6,8,1.581,0.111428571,-0.411428571,1,0,0,1.6249,Peridotite_rect,7,1.625,1,12,0,12,0,1,,,,,,,,,,,,,
666470715d3629eacf102999,SCN,2024-06-21_12h46.50.995,LearnStrategy,2023.2.3,Win32,60.97560976,7,1,14,0.088571429,-0.272380952,1,0,0,3.3804,Peridotite_15,7,15,2,5,3.38,0.12,-0.398095238,1,0,0,0.7243,Peridotite_rect,7,0.724,1,13,0,13,0,1,,,,,,,,,,,,,
666470715d3629eacf102999,SCN,2024-06-21_12h46.50.995,LearnStrategy,2023.2.3,Win32,60.97560976,7,1,15,-0.406666667,-0.419047619,1,0,0,2.0147,Obsidian_07,5,07,1,2,2.015,-0.405714286,-0.39047619,1,0,0,0.4844,Obsidian_rect,5,0.484,1,14,0,14,0,1,,,,,,,,,,,,,
666470715d3629eacf102999,SCN,2024-06-21_12h46.50.995,LearnStrategy,2023.2.3,Win32,60.97560976,7,1,16,-0.534285714,-0.101904762,1,0,0,6.8136,Gabbro_15,4,15,3,1,6.814,0.365714286,-0.247619048,1,0,0,6.1733,Gabbro_rect,4,6.173,1,15,0,15,0,1,,,,,,,,,,,,,
666470715d3629eacf102999,SCN,2024-06-21_12h46.50.995,LearnStrategy,2023.2.3,Win32,60.97560976,7,2,1,,,,,,,,8,14,,,,,,,,,,,8,1.351,1,,,,,,0.393333333,-0.395238095,1,0,0,1.3514,Pumice_rect,0,0,0,0,1,
666470715d3629eacf102999,SCN,2024-06-21_12h46.50.995,LearnStrategy,2023.2.3,Win32,60.97560976,7,2,2,,,,,,,,2,10,,,,,,,,,,,2,3.576,1,,,,,,-0.159047619,-0.263809524,1,0,0,3.5757,Basalt_rect,1,0,1,0,1,
666470715d3629eacf102999,SCN,2024-06-21_12h46.50.995,LearnStrategy,2023.2.3,Win32,60.97560976,7,2,3,,,,,,,,3,09,,,,,,,,,,,3,9.568,1,,,,,,0.08,-0.244761905,1,0,0,9.5679,Diorite_rect,2,0,2,0,1,
666470715d3629eacf102999,SCN,2024-06-21_12h46.50.995,LearnStrategy,2023.2.3,Win32,60.97560976,7,2,4,,,,,,,,5,08,,,,,,,,,,,5,1.588,1,,,,,,-0.396190476,-0.387619048,1,0,0,1.5881,Obsidian_rect,3,0,3,0,1,
666470715d3629eacf102999,SCN,2024-06-21_12h46.50.995,LearnStrategy,2023.2.3,Win32,60.97560976,7,2,5,,,,,,,,7,04,,,,,,,,,,,7,3.506,1,,,,,,0.118095238,-0.395238095,1,0,0,3.5058,Peridotite_rect,4,0,4,0,1,
666470715d3629eacf102999,SCN,2024-06-21_12h46.50.995,LearnStrategy,2023.2.3,Win32,60.97560976,7,2,6,,,,,,,,1,04,,,,,,,,,,,1,1.809,1,,,,,,-0.428571429,-0.251428571,1,0,0,1.8085,Andesite_rect,5,0,5,0,1,
666470715d3629eacf102999,SCN,2024-06-21_12h46.50.995,LearnStrategy,2023.2.3,Win32,60.97560976,7,2,7,,,,,,,,7,06,,,,,,,,,,,7,4.587,1,,,,,,0.074285714,-0.398095238,1,0,0,4.5869,Peridotite_rect,6,0,6,0,1,
666470715d3629eacf102999,SCN,2024-06-21_12h46.50.995,LearnStrategy,2023.2.3,Win32,60.97560976,7,2,8,,,,,,,,5,05,,,,,,,,,,,5,1.128,1,,,,,,-0.427619048,-0.411428571,1,0,0,1.1277,Obsidian_rect,7,0,7,0,1,
666470715d3629eacf102999,SCN,2024-06-21_12h46.50.995,LearnStrategy,2023.2.3,Win32,60.97560976,7,2,9,,,,,,,,2,02,,,,,,,,,,,2,5.804,1,,,,,,-0.20952381,-0.264761905,1,0,0,5.8038,Basalt_rect,8,0,8,0,1,
666470715d3629eacf102999,SCN,2024-06-21_12h46.50.995,LearnStrategy,2023.2.3,Win32,60.97560976,7,2,10,,,,,,,,8,16,,,,,,,,,,,8,1.754,1,,,,,,0.337142857,-0.394285714,1,0,0,1.7536,Pumice_rect,9,0,9,0,1,
666470715d3629eacf102999,SCN,2024-06-21_12h46.50.995,LearnStrategy,2023.2.3,Win32,60.97560976,7,2,11,,,,,,,,6,12,,,,,,,,,,,6,8.213,1,,,,,,-0.088571429,-0.39047619,1,0,0,8.2127,Pegmatite_rect,10,0,10,0,1,
666470715d3629eacf102999,SCN,2024-06-21_12h46.50.995,LearnStrategy,2023.2.3,Win32,60.97560976,7,2,12,,,,,,,,6,07,,,,,,,,,,,7,6.869,0,,,,,,0.111428571,-0.407619048,1,0,0,6.869,Peridotite_rect,11,0,11,0,1,
666470715d3629eacf102999,SCN,2024-06-21_12h46.50.995,LearnStrategy,2023.2.3,Win32,60.97560976,7,2,13,,,,,,,,4,11,,,,,,,,,,,4,5.27,1,,,,,,0.386666667,-0.248571429,1,0,0,5.2695,Gabbro_rect,12,0,12,0,1,
666470715d3629eacf102999,SCN,2024-06-21_12h46.50.995,LearnStrategy,2023.2.3,Win32,60.97560976,7,2,14,,,,,,,,1,14,,,,,,,,,,,4,38.343,0,,,,,,0.375238095,-0.257142857,1,0,0,38.3431,Gabbro_rect,13,0,13,0,1,
666470715d3629eacf102999,SCN,2024-06-21_12h46.50.995,LearnStrategy,2023.2.3,Win32,60.97560976,7,2,15,,,,,,,,4,14,,,,,,,,,,,2,2.515,0,,,,,,-0.14952381,-0.258095238,1,0,0,2.5154,Basalt_rect,14,0,14,0,1,
666470715d3629eacf102999,SCN,2024-06-21_12h46.50.995,LearnStrategy,2023.2.3,Win32,60.97560976,7,2,16,,,,,,,,3,13,,,,,,,,,,,3,7.284,1,,,,,,0.135238095,-0.251428571,1,0,0,7.2843,Diorite_rect,15,0,15,0,1,
666470715d3629eacf102999,SCN,2024-06-21_12h46.50.995,LearnStrategy,2023.2.3,Win32,60.97560976,8,1,1,0.225714286,0.085714286,1,0,0,3.1619,Gabbro_03,4,03,4,6,3.162,0.34,-0.232380952,1,0,0,2.2032,Gabbro_rect,4,2.203,1,0,0,0,0,1,,,,,,,,,,,,,
666470715d3629eacf102999,SCN,2024-06-21_12h46.50.995,LearnStrategy,2023.2.3,Win32,60.97560976,8,1,2,0.415238095,0.092380952,1,0,0,1.3645,Peridotite_05,7,05,4,7,1.365,0.151428571,-0.419047619,1,0,0,2.2217,Peridotite_rect,7,2.222,1,1,0,1,0,1,,,,,,,,,,,,,
666470715d3629eacf102999,SCN,2024-06-21_12h46.50.995,LearnStrategy,2023.2.3,Win32,60.97560976,8,1,3,0.546666667,0.083809524,1,0,0,1.1467,Diorite_16,3,16,4,8,1.147,0.121904762,-0.245714286,1,0,0,2.955,Diorite_rect,3,2.955,1,2,0,2,0,1,,,,,,,,,,,,,
666470715d3629eacf102999,SCN,2024-06-21_12h46.50.995,LearnStrategy,2023.2.3,Win32,60.97560976,8,1,4,-0.544761905,0.394285714,1,0,0,2.0642,Peridotite_02,7,02,6,1,2.064,0.127619048,-0.406666667,1,0,0,1.2687,Peridotite_rect,7,1.269,1,3,0,3,0,1,,,,,,,,,,,,,
666470715d3629eacf102999,SCN,2024-06-21_12h46.50.995,LearnStrategy,2023.2.3,Win32,60.97560976,8,1,5,-0.561904762,-0.43047619,1,0,0,1.1481,Pegmatite_15,6,15,1,1,1.148,-0.152380952,-0.380952381,1,0,0,7.0708,Pegmatite_rect,6,7.071,1,4,0,4,0,1,,,,,,,,,,,,,
666470715d3629eacf102999,SCN,2024-06-21_12h46.50.995,LearnStrategy,2023.2.3,Win32,60.97560976,8,1,6,-0.233333333,-0.412380952,1,0,0,1.464,Pegmatite_09,6,09,1,3,1.464,-0.082857143,-0.41047619,1,0,0,2.0702,Pegmatite_rect,6,2.07,1,5,0,5,0,1,,,,,,,,,,,,,
666470715d3629eacf102999,SCN,2024-06-21_12h46.50.995,LearnStrategy,2023.2.3,Win32,60.97560976,8,1,7,-0.088571429,-0.417142857,1,0,0,1.0456,Peridotite_08,7,08,1,4,1.046,0.133333333,-0.408571429,1,0,0,1.3861,Peridotite_rect,7,1.386,1,6,0,6,0,1,,,,,,,,,,,,,
666470715d3629eacf102999,SCN,2024-06-21_12h46.50.995,LearnStrategy,2023.2.3,Win32,60.97560976,8,1,8,0.24952381,-0.425714286,1,0,0,1.3459,Basalt_14,2,14,1,6,1.346,-0.078095238,-0.256190476,1,0,0,3.1712,Basalt_rect,2,3.171,1,7,0,7,0,1,,,,,,,,,,,,,
666470715d3629eacf102999,SCN,2024-06-21_12h46.50.995,LearnStrategy,2023.2.3,Win32,60.97560976,8,1,9,0.376190476,-0.4,1,0,0,1.2305,Pegmatite_16,6,16,1,7,1.231,-0.076190476,-0.399047619,1,0,0,6.1696,Pegmatite_rect,6,6.17,1,8,0,8,0,1,,,,,,,,,,,,,
666470715d3629eacf102999,SCN,2024-06-21_12h46.50.995,LearnStrategy,2023.2.3,Win32,60.97560976,8,1,10,0.557142857,-0.411428571,1,0,0,1.0962,Andesite_11,1,11,1,8,1.096,-0.368571429,-0.24952381,1,0,0,2.0872,Andesite_rect,1,2.087,1,9,0,9,0,1,,,,,,,,,,,,,
666470715d3629eacf102999,SCN,2024-06-21_12h46.50.995,LearnStrategy,2023.2.3,Win32,60.97560976,8,1,11,-0.539047619,-0.268571429,1,0,0,1.0614,Basalt_05,2,05,2,1,1.061,-0.212380952,-0.22952381,1,0,0,1.1265,Basalt_rect,2,1.126,1,10,0,10,0,1,,,,,,,,,,,,,
666470715d3629eacf102999,SCN,2024-06-21_12h46.50.995,LearnStrategy,2023.2.3,Win32,60.97560976,8,1,12,-0.399047619,-0.247619048,1,0,0,0.8984,Diorite_02,3,02,2,2,0.898,0.061904762,-0.239047619,1,0,0,1.3709,Diorite_rect,3,1.371,1,11,0,11,0,1,,,,,,,,,,,,,
666470715d3629eacf102999,SCN,2024-06-21_12h46.50.995,LearnStrategy,2023.2.3,Win32,60.97560976,8,1,13,-0.235238095,-0.267619048,1,0,0,0.9156,Andesite_02,1,02,2,3,0.916,-0.385714286,-0.258095238,1,0,0,1.8176,Andesite_rect,1,1.818,1,12,0,12,0,1,,,,,,,,,,,,,
666470715d3629eacf102999,SCN,2024-06-21_12h46.50.995,LearnStrategy,2023.2.3,Win32,60.97560976,8,1,14,-0.07047619,-0.259047619,1,0,0,1.0161,Diorite_15,3,15,2,4,1.016,0.120952381,-0.253333333,1,0,0,2.3675,Diorite_rect,3,2.367,1,13,0,13,0,1,,,,,,,,,,,,,
666470715d3629eacf102999,SCN,2024-06-21_12h46.50.995,LearnStrategy,2023.2.3,Win32,60.97560976,8,1,15,0.08952381,-0.255238095,1,0,0,0.8656,Peridotite_15,7,15,2,5,0.866,0.14,-0.398095238,1,0,0,1.1351,Peridotite_rect,7,1.135,1,14,0,14,0,1,,,,,,,,,,,,,
666470715d3629eacf102999,SCN,2024-06-21_12h46.50.995,LearnStrategy,2023.2.3,Win32,60.97560976,8,1,16,0.279047619,-0.244761905,1,0,0,0.7507,Basalt_08,2,08,2,6,0.751,-0.132380952,-0.241904762,1,0,0,2.1414,Basalt_rect,2,2.141,1,15,0,15,0,1,,,,,,,,,,,,,
666470715d3629eacf102999,SCN,2024-06-21_12h46.50.995,LearnStrategy,2023.2.3,Win32,60.97560976,8,2,1,,,,,,,,2,09,,,,,,,,,,,2,1.433,1,,,,,,-0.116190476,-0.24,1,0,0,1.4329,Basalt_rect,0,0,0,0,1,
666470715d3629eacf102999,SCN,2024-06-21_12h46.50.995,LearnStrategy,2023.2.3,Win32,60.97560976,8,2,2,,,,,,,,4,01,,,,,,,,,,,4,11.882,1,,,,,,0.371428571,-0.243809524,1,0,0,11.8818,Gabbro_rect,1,0,1,0,1,
666470715d3629eacf102999,SCN,2024-06-21_12h46.50.995,LearnStrategy,2023.2.3,Win32,60.97560976,8,2,3,,,,,,,,4,16,,,,,,,,,,,4,2.737,1,,,,,,0.359047619,-0.245714286,1,0,0,2.7373,Gabbro_rect,2,0,2,0,1,
666470715d3629eacf102999,SCN,2024-06-21_12h46.50.995,LearnStrategy,2023.2.3,Win32,60.97560976,8,2,4,,,,,,,,7,10,,,,,,,,,,,7,2.225,1,,,,,,0.120952381,-0.397142857,1,0,0,2.2254,Peridotite_rect,3,0,3,0,1,
666470715d3629eacf102999,SCN,2024-06-21_12h46.50.995,LearnStrategy,2023.2.3,Win32,60.97560976,8,2,5,,,,,,,,6,10,,,,,,,,,,,6,4.188,1,,,,,,-0.093333333,-0.398095238,1,0,0,4.1884,Pegmatite_rect,4,0,4,0,1,
666470715d3629eacf102999,SCN,2024-06-21_12h46.50.995,LearnStrategy,2023.2.3,Win32,60.97560976,8,2,6,,,,,,,,5,14,,,,,,,,,,,5,1.016,1,,,,,,-0.332380952,-0.392380952,1,0,0,1.0156,Obsidian_rect,5,0,5,0,1,
666470715d3629eacf102999,SCN,2024-06-21_12h46.50.995,LearnStrategy,2023.2.3,Win32,60.97560976,8,2,7,,,,,,,,1,03,,,,,,,,,,,1,1.485,1,,,,,,-0.376190476,-0.24952381,1,0,0,1.4847,Andesite_rect,6,0,6,0,1,
666470715d3629eacf102999,SCN,2024-06-21_12h46.50.995,LearnStrategy,2023.2.3,Win32,60.97560976,8,2,8,,,,,,,,2,16,,,,,,,,,,,2,3.018,1,,,,,,-0.166666667,-0.259047619,1,0,0,3.0183,Basalt_rect,7,0,7,0,1,
666470715d3629eacf102999,SCN,2024-06-21_12h46.50.995,LearnStrategy,2023.2.3,Win32,60.97560976,8,2,9,,,,,,,,6,03,,,,,,,,,,,6,5.347,1,,,,,,-0.14,-0.400952381,1,0,0,5.3468,Pegmatite_rect,8,0,8,0,1,
666470715d3629eacf102999,SCN,2024-06-21_12h46.50.995,LearnStrategy,2023.2.3,Win32,60.97560976,8,2,10,,,,,,,,3,14,,,,,,,,,,,3,3.997,1,,,,,,0.067619048,-0.247619048,1,0,0,3.9966,Diorite_rect,9,0,9,0,1,
666470715d3629eacf102999,SCN,2024-06-21_12h46.50.995,LearnStrategy,2023.2.3,Win32,60.97560976,8,2,11,,,,,,,,5,12,,,,,,,,,,,5,1.319,1,,,,,,-0.347619048,-0.38,1,0,0,1.319,Obsidian_rect,10,0,10,0,1,
666470715d3629eacf102999,SCN,2024-06-21_12h46.50.995,LearnStrategy,2023.2.3,Win32,60.97560976,8,2,12,,,,,,,,8,08,,,,,,,,,,,8,2.443,1,,,,,,0.442857143,-0.39047619,1,0,0,2.4433,Pumice_rect,11,0,11,0,1,
666470715d3629eacf102999,SCN,2024-06-21_12h46.50.995,LearnStrategy,2023.2.3,Win32,60.97560976,8,2,13,,,,,,,,7,14,,,,,,,,,,,7,12.319,1,,,,,,0.136190476,-0.383809524,1,0,0,12.3189,Peridotite_rect,12,0,12,0,1,
666470715d3629eacf102999,SCN,2024-06-21_12h46.50.995,LearnStrategy,2023.2.3,Win32,60.97560976,8,2,14,,,,,,,,8,04,,,,,,,,,,,8,1.504,1,,,,,,0.341904762,-0.397142857,1,0,0,1.5036,Pumice_rect,13,0,13,0,1,
666470715d3629eacf102999,SCN,2024-06-21_12h46.50.995,LearnStrategy,2023.2.3,Win32,60.97560976,8,2,15,,,,,,,,1,07,,,,,,,,,,,3,8.469,0,,,,,,0.10952381,-0.236190476,1,0,0,8.4691,Diorite_rect,14,0,14,0,1,
666470715d3629eacf102999,SCN,2024-06-21_12h46.50.995,LearnStrategy,2023.2.3,Win32,60.97560976,8,2,16,,,,,,,,3,12,,,,,,,,,,,3,1.022,1,,,,,,0.102857143,-0.242857143,1,0,0,1.0223,Diorite_rect,15,0,15,0,1,
666470715d3629eacf102999,SCN,2024-06-21_12h46.50.995,LearnStrategy,2023.2.3,Win32,60.97560976,9,1,1,-0.536190476,0.395238095,1,0,0,2.1735,Peridotite_02,7,02,6,1,2.174,0.139047619,-0.38952381,1,0,0,3.3663,Peridotite_rect,7,3.366,1,0,0,0,0,1,,,,,,,,,,,,,
666470715d3629eacf102999,SCN,2024-06-21_12h46.50.995,LearnStrategy,2023.2.3,Win32,60.97560976,9,1,2,-0.561904762,0.266666667,1,0,0,1.014,Pumice_06,8,06,5,1,1.014,0.395238095,-0.396190476,1,0,0,1.3704,Pumice_rect,8,1.37,1,1,0,1,0,1,,,,,,,,,,,,,
666470715d3629eacf102999,SCN,2024-06-21_12h46.50.995,LearnStrategy,2023.2.3,Win32,60.97560976,9,1,3,-0.54952381,0.100952381,1,0,0,0.7347,Basalt_11,2,11,4,1,0.735,0.364761905,-0.238095238,1,0,0,3.2485,Gabbro_rect,4,3.248,0,2,0,2,0,1,,,,,,,,,,,,,
666470715d3629eacf102999,SCN,2024-06-21_12h46.50.995,LearnStrategy,2023.2.3,Win32,60.97560976,9,1,4,-0.388571429,0.12,1,0,0,0.8788,Basalt_04,2,04,4,2,0.879,-0.134285714,-0.228571429,1,0,0,1.9892,Basalt_rect,2,1.989,1,3,0,3,0,1,,,,,,,,,,,,,
666470715d3629eacf102999,SCN,2024-06-21_12h46.50.995,LearnStrategy,2023.2.3,Win32,60.97560976,9,1,5,-0.399047619,0.239047619,1,0,0,0.7149,Obsidian_06,5,06,5,2,0.715,-0.379047619,-0.399047619,1,0,0,1.1533,Obsidian_rect,5,1.153,1,4,0,4,0,1,,,,,,,,,,,,,
666470715d3629eacf102999,SCN,2024-06-21_12h46.50.995,LearnStrategy,2023.2.3,Win32,60.97560976,9,1,6,-0.392380952,0.385714286,1,0,0,1.4452,Andesite_16,1,16,6,2,1.445,0.086666667,-0.235238095,1,0,0,1.7176,Diorite_rect,3,1.718,0,5,0,5,0,1,,,,,,,,,,,,,
666470715d3629eacf102999,SCN,2024-06-21_12h46.50.995,LearnStrategy,2023.2.3,Win32,60.97560976,9,1,7,-0.365714286,0.417142857,1,0,0,1.3453,Andesite_16,1,16,6,2,1.345,-0.405714286,-0.258095238,1,0,0,2.172,Andesite_rect,1,2.172,1,6,0,6,0,1,,,,,,,,,,,,,
666470715d3629eacf102999,SCN,2024-06-21_12h46.50.995,LearnStrategy,2023.2.3,Win32,60.97560976,9,1,8,-0.276190476,0.126666667,1,0,0,0.6627,Basalt_12,2,12,4,3,0.663,0.140952381,-0.4,1,0,0,4.0546,Peridotite_rect,7,4.055,0,7,0,7,0,1,,,,,,,,,,,,,
666470715d3629eacf102999,SCN,2024-06-21_12h46.50.995,LearnStrategy,2023.2.3,Win32,60.97560976,9,1,9,-0.098095238,0.104761905,1,0,0,0.9299,Obsidian_04,5,04,4,4,0.93,-0.440952381,-0.396190476,1,0,0,0.948,Obsidian_rect,5,0.948,1,8,0,8,0,1,,,,,,,,,,,,,
666470715d3629eacf102999,SCN,2024-06-21_12h46.50.995,LearnStrategy,2023.2.3,Win32,60.97560976,9,1,10,-0.233333333,0.393333333,1,0,0,2.3143,Andesite_01,1,01,6,3,2.314,-0.421904762,-0.256190476,1,0,0,10.0053,Andesite_rect,1,10.005,1,9,0,9,0,1,,,,,,,,,,,,,
666470715d3629eacf102999,SCN,2024-06-21_12h46.50.995,LearnStrategy,2023.2.3,Win32,60.97560976,9,1,11,-0.079047619,0.414285714,1,0,0,1.215,Pumice_05,8,05,6,4,1.215,0.368571429,-0.385714286,1,0,0,1.6853,Pumice_rect,8,1.685,1,10,0,10,0,1,,,,,,,,,,,,,
666470715d3629eacf102999,SCN,2024-06-21_12h46.50.995,LearnStrategy,2023.2.3,Win32,60.97560976,9,1,12,-0.057142857,0.278095238,1,0,0,0.732,Pumice_13,8,13,5,4,0.732,-0.105714286,-0.265714286,1,0,0,4.0025,Basalt_rect,2,4.003,0,11,0,11,0,1,,,,,,,,,,,,,
666470715d3629eacf102999,SCN,2024-06-21_12h46.50.995,LearnStrategy,2023.2.3,Win32,60.97560976,9,1,13,0.078095238,0.082857143,1,0,0,1.3471,Pegmatite_05,6,05,4,5,1.347,-0.088571429,-0.396190476,1,0,0,1.3037,Pegmatite_rect,6,1.304,1,12,0,12,0,1,,,,,,,,,,,,,
666470715d3629eacf102999,SCN,2024-06-21_12h46.50.995,LearnStrategy,2023.2.3,Win32,60.97560976,9,1,14,0.058095238,0.245714286,1,0,0,0.8123,Pumice_10,8,10,5,5,0.812,0.351428571,-0.396190476,1,0,0,1.2722,Pumice_rect,8,1.272,1,13,0,13,0,1,,,,,,,,,,,,,
666470715d3629eacf102999,SCN,2024-06-21_12h46.50.995,LearnStrategy,2023.2.3,Win32,60.97560976,9,1,15,0.098095238,0.428571429,1,0,0,1.1485,Gabbro_10,4,10,6,5,1.149,0.423809524,-0.251428571,1,0,0,5.3699,Gabbro_rect,4,5.37,1,14,0,14,0,1,,,,,,,,,,,,,
666470715d3629eacf102999,SCN,2024-06-21_12h46.50.995,LearnStrategy,2023.2.3,Win32,60.97560976,9,1,16,0.245714286,0.399047619,1,0,0,1.0296,Andesite_06,1,06,6,6,1.03,-0.353333333,-0.263809524,1,0,0,2.4486,Andesite_rect,1,2.449,1,15,0,15,0,1,,,,,,,,,,,,,
666470715d3629eacf102999,SCN,2024-06-21_12h46.50.995,LearnStrategy,2023.2.3,Win32,60.97560976,9,2,1,,,,,,,,4,12,,,,,,,,,,,4,14.221,1,,,,,,0.376190476,-0.262857143,1,0,0,14.2212,Gabbro_rect,0,0,0,0,1,
666470715d3629eacf102999,SCN,2024-06-21_12h46.50.995,LearnStrategy,2023.2.3,Win32,60.97560976,9,2,2,,,,,,,,6,13,,,,,,,,,,,6,12.988,1,,,,,,-0.14952381,-0.404761905,1,0,0,12.9879,Pegmatite_rect,1,0,1,0,1,
666470715d3629eacf102999,SCN,2024-06-21_12h46.50.995,LearnStrategy,2023.2.3,Win32,60.97560976,9,2,3,,,,,,,,3,10,,,,,,,,,,,3,15.182,1,,,,,,0.121904762,-0.253333333,1,0,0,15.1821,Diorite_rect,2,0,2,0,1,
666470715d3629eacf102999,SCN,2024-06-21_12h46.50.995,LearnStrategy,2023.2.3,Win32,60.97560976,9,2,4,,,,,,,,2,01,,,,,,,,,,,2,1.569,1,,,,,,-0.080952381,-0.25047619,1,0,0,1.5691,Basalt_rect,3,0,3,0,1,
666470715d3629eacf102999,SCN,2024-06-21_12h46.50.995,LearnStrategy,2023.2.3,Win32,60.97560976,9,2,5,,,,,,,,7,12,,,,,,,,,,,7,5.3,1,,,,,,0.091428571,-0.391428571,1,0,0,5.3002,Peridotite_rect,4,0,4,0,1,
666470715d3629eacf102999,SCN,2024-06-21_12h46.50.995,LearnStrategy,2023.2.3,Win32,60.97560976,9,2,6,,,,,,,,1,05,,,,,,,,,,,1,1.407,1,,,,,,-0.353333333,-0.258095238,1,0,0,1.4069,Andesite_rect,5,0,5,0,1,
666470715d3629eacf102999,SCN,2024-06-21_12h46.50.995,LearnStrategy,2023.2.3,Win32,60.97560976,9,2,7,,,,,,,,8,09,,,,,,,,,,,8,1.263,1,,,,,,0.43047619,-0.394285714,1,0,0,1.2631,Pumice_rect,6,0,6,0,1,
666470715d3629eacf102999,SCN,2024-06-21_12h46.50.995,LearnStrategy,2023.2.3,Win32,60.97560976,9,2,8,,,,,,,,1,10,,,,,,,,,,,4,8.966,0,,,,,,0.419047619,-0.25047619,1,0,0,8.966,Gabbro_rect,7,0,7,0,1,
666470715d3629eacf102999,SCN,2024-06-21_12h46.50.995,LearnStrategy,2023.2.3,Win32,60.97560976,9,2,9,,,,,,,,7,13,,,,,,,,,,,7,1.167,1,,,,,,0.12,-0.405714286,1,0,0,1.1674,Peridotite_rect,8,0,8,0,1,
666470715d3629eacf102999,SCN,2024-06-21_12h46.50.995,LearnStrategy,2023.2.3,Win32,60.97560976,9,2,10,,,,,,,,5,16,,,,,,,,,,,5,1.4,1,,,,,,-0.367619048,-0.388571429,1,0,0,1.3998,Obsidian_rect,9,0,9,0,1,
666470715d3629eacf102999,SCN,2024-06-21_12h46.50.995,LearnStrategy,2023.2.3,Win32,60.97560976,9,2,11,,,,,,,,5,09,,,,,,,,,,,5,0.774,1,,,,,,-0.368571429,-0.392380952,1,0,0,0.7736,Obsidian_rect,10,0,10,0,1,
666470715d3629eacf102999,SCN,2024-06-21_12h46.50.995,LearnStrategy,2023.2.3,Win32,60.97560976,9,2,12,,,,,,,,4,05,,,,,,,,,,,1,16.835,0,,,,,,-0.40952381,-0.256190476,1,0,0,16.8346,Andesite_rect,11,0,11,0,1,
666470715d3629eacf102999,SCN,2024-06-21_12h46.50.995,LearnStrategy,2023.2.3,Win32,60.97560976,9,2,13,,,,,,,,3,07,,,,,,,,,,,3,2.324,1,,,,,,0.14,-0.25047619,1,0,0,2.3243,Diorite_rect,12,0,12,0,1,
666470715d3629eacf102999,SCN,2024-06-21_12h46.50.995,LearnStrategy,2023.2.3,Win32,60.97560976,9,2,14,,,,,,,,6,06,,,,,,,,,,,6,1.165,1,,,,,,-0.178095238,-0.408571429,1,0,0,1.1654,Pegmatite_rect,13,0,13,0,1,
666470715d3629eacf102999,SCN,2024-06-21_12h46.50.995,LearnStrategy,2023.2.3,Win32,60.97560976,9,2,15,,,,,,,,2,06,,,,,,,,,,,2,2.668,1,,,,,,-0.211428571,-0.243809524,1,0,0,2.6677,Basalt_rect,14,0,14,0,1,
666470715d3629eacf102999,SCN,2024-06-21_12h46.50.995,LearnStrategy,2023.2.3,Win32,60.97560976,9,2,16,,,,,,,,8,15,,,,,,,,,,,8,1.305,1,,,,,,0.421904762,-0.405714286,1,0,0,1.3045,Pumice_rect,15,0,15,0,1,
666470715d3629eacf102999,SCN,2024-06-21_12h46.50.995,LearnStrategy,2023.2.3,Win32,60.97560976,,,,,,,,,,,,,,,,,,,,,,,,,,,,,,,,,,,,,,,,,,,1
666470715d3629eacf102999,SCN,2024-06-21_12h46.50.995,LearnStrategy,2023.2.3,Win32,60.97560976,,,,,,,,,,,,,,,,,,,,,,,,,,,,,,,,,,,,,,,,,,,
666470715d3629eacf102999,SCN,2024-06-21_12h46.50.995,LearnStrategy,2023.2.3,Win32,60.97560976,,,,,,,,,,,6,15,1,1,,,,,,,,,,,,,,,,,,,,,,,,,,,,,
666470715d3629eacf102999,SCN,2024-06-21_12h46.50.995,LearnStrategy,2023.2.3,Win32,60.97560976,,,,,,,,,,,5,07,1,2,,,,,,,,,,,,,,,,,,,,,,,,,,,,,
666470715d3629eacf102999,SCN,2024-06-21_12h46.50.995,LearnStrategy,2023.2.3,Win32,60.97560976,,,,,,,,,,,6,09,1,3,,,,,,,,,,,,,,,,,,,,,,,,,,,,,
666470715d3629eacf102999,SCN,2024-06-21_12h46.50.995,LearnStrategy,2023.2.3,Win32,60.97560976,,,,,,,,,,,7,08,1,4,,,,,,,,,,,,,,,,,,,,,,,,,,,,,
666470715d3629eacf102999,SCN,2024-06-21_12h46.50.995,LearnStrategy,2023.2.3,Win32,60.97560976,,,,,,,,,,,5,11,1,5,,,,,,,,,,,,,,,,,,,,,,,,,,,,,
666470715d3629eacf102999,SCN,2024-06-21_12h46.50.995,LearnStrategy,2023.2.3,Win32,60.97560976,,,,,,,,,,,2,14,1,6,,,,,,,,,,,,,,,,,,,,,,,,,,,,,
666470715d3629eacf102999,SCN,2024-06-21_12h46.50.995,LearnStrategy,2023.2.3,Win32,60.97560976,,,,,,,,,,,6,16,1,7,,,,,,,,,,,,,,,,,,,,,,,,,,,,,
666470715d3629eacf102999,SCN,2024-06-21_12h46.50.995,LearnStrategy,2023.2.3,Win32,60.97560976,,,,,,,,,,,1,11,1,8,,,,,,,,,,,,,,,,,,,,,,,,,,,,,
666470715d3629eacf102999,SCN,2024-06-21_12h46.50.995,LearnStrategy,2023.2.3,Win32,60.97560976,,,,,,,,,,,2,05,2,1,,,,,,,,,,,,,,,,,,,,,,,,,,,,,
666470715d3629eacf102999,SCN,2024-06-21_12h46.50.995,LearnStrategy,2023.2.3,Win32,60.97560976,,,,,,,,,,,3,02,2,2,,,,,,,,,,,,,,,,,,,,,,,,,,,,,
666470715d3629eacf102999,SCN,2024-06-21_12h46.50.995,LearnStrategy,2023.2.3,Win32,60.97560976,,,,,,,,,,,1,02,2,3,,,,,,,,,,,,,,,,,,,,,,,,,,,,,
666470715d3629eacf102999,SCN,2024-06-21_12h46.50.995,LearnStrategy,2023.2.3,Win32,60.97560976,,,,,,,,,,,3,15,2,4,,,,,,,,,,,,,,,,,,,,,,,,,,,,,
666470715d3629eacf102999,SCN,2024-06-21_12h46.50.995,LearnStrategy,2023.2.3,Win32,60.97560976,,,,,,,,,,,7,15,2,5,,,,,,,,,,,,,,,,,,,,,,,,,,,,,
666470715d3629eacf102999,SCN,2024-06-21_12h46.50.995,LearnStrategy,2023.2.3,Win32,60.97560976,,,,,,,,,,,2,08,2,6,,,,,,,,,,,,,,,,,,,,,,,,,,,,,
666470715d3629eacf102999,SCN,2024-06-21_12h46.50.995,LearnStrategy,2023.2.3,Win32,60.97560976,,,,,,,,,,,6,11,2,7,,,,,,,,,,,,,,,,,,,,,,,,,,,,,
666470715d3629eacf102999,SCN,2024-06-21_12h46.50.995,LearnStrategy,2023.2.3,Win32,60.97560976,,,,,,,,,,,4,13,2,8,,,,,,,,,,,,,,,,,,,,,,,,,,,,,
666470715d3629eacf102999,SCN,2024-06-21_12h46.50.995,LearnStrategy,2023.2.3,Win32,60.97560976,,,,,,,,,,,4,15,3,1,,,,,,,,,,,,,,,,,,,,,,,,,,,,,
666470715d3629eacf102999,SCN,2024-06-21_12h46.50.995,LearnStrategy,2023.2.3,Win32,60.97560976,,,,,,,,,,,8,03,3,2,,,,,,,,,,,,,,,,,,,,,,,,,,,,,
666470715d3629eacf102999,SCN,2024-06-21_12h46.50.995,LearnStrategy,2023.2.3,Win32,60.97560976,,,,,,,,,,,3,08,3,3,,,,,,,,,,,,,,,,,,,,,,,,,,,,,
666470715d3629eacf102999,SCN,2024-06-21_12h46.50.995,LearnStrategy,2023.2.3,Win32,60.97560976,,,,,,,,,,,5,02,3,4,,,,,,,,,,,,,,,,,,,,,,,,,,,,,
666470715d3629eacf102999,SCN,2024-06-21_12h46.50.995,LearnStrategy,2023.2.3,Win32,60.97560976,,,,,,,,,,,1,09,3,5,,,,,,,,,,,,,,,,,,,,,,,,,,,,,
666470715d3629eacf102999,SCN,2024-06-21_12h46.50.995,LearnStrategy,2023.2.3,Win32,60.97560976,,,,,,,,,,,4,09,3,6,,,,,,,,,,,,,,,,,,,,,,,,,,,,,
666470715d3629eacf102999,SCN,2024-06-21_12h46.50.995,LearnStrategy,2023.2.3,Win32,60.97560976,,,,,,,,,,,8,02,3,7,,,,,,,,,,,,,,,,,,,,,,,,,,,,,
666470715d3629eacf102999,SCN,2024-06-21_12h46.50.995,LearnStrategy,2023.2.3,Win32,60.97560976,,,,,,,,,,,3,11,3,8,,,,,,,,,,,,,,,,,,,,,,,,,,,,,
666470715d3629eacf102999,SCN,2024-06-21_12h46.50.995,LearnStrategy,2023.2.3,Win32,60.97560976,,,,,,,,,,,2,11,4,1,,,,,,,,,,,,,,,,,,,,,,,,,,,,,
666470715d3629eacf102999,SCN,2024-06-21_12h46.50.995,LearnStrategy,2023.2.3,Win32,60.97560976,,,,,,,,,,,2,04,4,2,,,,,,,,,,,,,,,,,,,,,,,,,,,,,
666470715d3629eacf102999,SCN,2024-06-21_12h46.50.995,LearnStrategy,2023.2.3,Win32,60.97560976,,,,,,,,,,,2,12,4,3,,,,,,,,,,,,,,,,,,,,,,,,,,,,,
666470715d3629eacf102999,SCN,2024-06-21_12h46.50.995,LearnStrategy,2023.2.3,Win32,60.97560976,,,,,,,,,,,5,04,4,4,,,,,,,,,,,,,,,,,,,,,,,,,,,,,
666470715d3629eacf102999,SCN,2024-06-21_12h46.50.995,LearnStrategy,2023.2.3,Win32,60.97560976,,,,,,,,,,,6,05,4,5,,,,,,,,,,,,,,,,,,,,,,,,,,,,,
666470715d3629eacf102999,SCN,2024-06-21_12h46.50.995,LearnStrategy,2023.2.3,Win32,60.97560976,,,,,,,,,,,4,03,4,6,,,,,,,,,,,,,,,,,,,,,,,,,,,,,
666470715d3629eacf102999,SCN,2024-06-21_12h46.50.995,LearnStrategy,2023.2.3,Win32,60.97560976,,,,,,,,,,,7,05,4,7,,,,,,,,,,,,,,,,,,,,,,,,,,,,,
666470715d3629eacf102999,SCN,2024-06-21_12h46.50.995,LearnStrategy,2023.2.3,Win32,60.97560976,,,,,,,,,,,3,16,4,8,,,,,,,,,,,,,,,,,,,,,,,,,,,,,
666470715d3629eacf102999,SCN,2024-06-21_12h46.50.995,LearnStrategy,2023.2.3,Win32,60.97560976,,,,,,,,,,,8,06,5,1,,,,,,,,,,,,,,,,,,,,,,,,,,,,,
666470715d3629eacf102999,SCN,2024-06-21_12h46.50.995,LearnStrategy,2023.2.3,Win32,60.97560976,,,,,,,,,,,5,06,5,2,,,,,,,,,,,,,,,,,,,,,,,,,,,,,
666470715d3629eacf102999,SCN,2024-06-21_12h46.50.995,LearnStrategy,2023.2.3,Win32,60.97560976,,,,,,,,,,,5,10,5,3,,,,,,,,,,,,,,,,,,,,,,,,,,,,,
666470715d3629eacf102999,SCN,2024-06-21_12h46.50.995,LearnStrategy,2023.2.3,Win32,60.97560976,,,,,,,,,,,8,13,5,4,,,,,,,,,,,,,,,,,,,,,,,,,,,,,
666470715d3629eacf102999,SCN,2024-06-21_12h46.50.995,LearnStrategy,2023.2.3,Win32,60.97560976,,,,,,,,,,,8,10,5,5,,,,,,,,,,,,,,,,,,,,,,,,,,,,,
666470715d3629eacf102999,SCN,2024-06-21_12h46.50.995,LearnStrategy,2023.2.3,Win32,60.97560976,,,,,,,,,,,7,07,5,6,,,,,,,,,,,,,,,,,,,,,,,,,,,,,
666470715d3629eacf102999,SCN,2024-06-21_12h46.50.995,LearnStrategy,2023.2.3,Win32,60.97560976,,,,,,,,,,,6,08,5,7,,,,,,,,,,,,,,,,,,,,,,,,,,,,,
666470715d3629eacf102999,SCN,2024-06-21_12h46.50.995,LearnStrategy,2023.2.3,Win32,60.97560976,,,,,,,,,,,4,08,5,8,,,,,,,,,,,,,,,,,,,,,,,,,,,,,
666470715d3629eacf102999,SCN,2024-06-21_12h46.50.995,LearnStrategy,2023.2.3,Win32,60.97560976,,,,,,,,,,,7,02,6,1,,,,,,,,,,,,,,,,,,,,,,,,,,,,,
666470715d3629eacf102999,SCN,2024-06-21_12h46.50.995,LearnStrategy,2023.2.3,Win32,60.97560976,,,,,,,,,,,1,16,6,2,,,,,,,,,,,,,,,,,,,,,,,,,,,,,
666470715d3629eacf102999,SCN,2024-06-21_12h46.50.995,LearnStrategy,2023.2.3,Win32,60.97560976,,,,,,,,,,,1,01,6,3,,,,,,,,,,,,,,,,,,,,,,,,,,,,,
666470715d3629eacf102999,SCN,2024-06-21_12h46.50.995,LearnStrategy,2023.2.3,Win32,60.97560976,,,,,,,,,,,8,05,6,4,,,,,,,,,,,,,,,,,,,,,,,,,,,,,
666470715d3629eacf102999,SCN,2024-06-21_12h46.50.995,LearnStrategy,2023.2.3,Win32,60.97560976,,,,,,,,,,,4,10,6,5,,,,,,,,,,,,,,,,,,,,,,,,,,,,,
666470715d3629eacf102999,SCN,2024-06-21_12h46.50.995,LearnStrategy,2023.2.3,Win32,60.97560976,,,,,,,,,,,1,06,6,6,,,,,,,,,,,,,,,,,,,,,,,,,,,,,
666470715d3629eacf102999,SCN,2024-06-21_12h46.50.995,LearnStrategy,2023.2.3,Win32,60.97560976,,,,,,,,,,,3,06,6,7,,,,,,,,,,,,,,,,,,,,,,,,,,,,,
666470715d3629eacf102999,SCN,2024-06-21_12h46.50.995,LearnStrategy,2023.2.3,Win32,60.97560976,,,,,,,,,,,7,16,6,8,,,,,,,,,,,,,,,,,,,,,,,,,,,,,