participant,condition,date,expName,psychopyVersion,OS,frameRate,block,phase,trial,learn_mouse.x,learn_mouse.y,learn_mouse.leftButton,learn_mouse.midButton,learn_mouse.rightButton,learn_mouse.time,learn_mouse.clicked_name,cat,token,row,col,t_select,cat_mouse_l.x,cat_mouse_l.y,cat_mouse_l.leftButton,cat_mouse_l.midButton,cat_mouse_l.rightButton,cat_mouse_l.time,cat_mouse_l.clicked_name,resp,t_resp,corr,train_trials.thisRepN,train_trials.thisTrialN,train_trials.thisN,train_trials.thisIndex,train_trials.ran,cat_mouse_t.x,cat_mouse_t.y,cat_mouse_t.leftButton,cat_mouse_t.midButton,cat_mouse_t.rightButton,cat_mouse_t.time,cat_mouse_t.clicked_name,test_trials.thisRepN,test_trials.thisTrialN,test_trials.thisN,test_trials.thisIndex,test_trials.ran,Bonus
6665fbef3202800c8227ce10,SCN,2024-06-21_13h47.28.826,LearnStrategy,2023.2.3,MacIntel,60.97560976,,,,,,,,,,,,,,,,,,,,,,,,,,,,,,,,,,,,,,,,,,,
6665fbef3202800c8227ce10,SCN,2024-06-21_13h47.28.826,LearnStrategy,2023.2.3,MacIntel,60.97560976,1,1,1,0.05936754,-0.22880995,1,0,0,2.9863,Pegmatite_10,6,10,2,5,2.986,0.137880927,-0.265400526,1,0,0,5.0561,Diorite_rect,3,5.056,0,0,0,0,0,1,,,,,,,,,,,,,
6665fbef3202800c8227ce10,SCN,2024-06-21_13h47.28.826,LearnStrategy,2023.2.3,MacIntel,60.97560976,1,1,2,-0.076557821,0.091752625,1,0,0,1.5472,Obsidian_10,5,10,4,4,1.547,-0.392491557,-0.404309896,1,0,0,2.2612,Obsidian_rect,5,2.261,1,1,0,1,0,1,,,,,,,,,,,,,
6665fbef3202800c8227ce10,SCN,2024-06-21_13h47.28.826,LearnStrategy,2023.2.3,MacIntel,60.97560976,1,1,3,-0.381054857,0.39363266,1,0,0,1.5303,Pegmatite_11,6,11,6,2,1.53,0.379817437,-0.251094767,1,0,0,6.331,Gabbro_rect,4,6.331,0,2,0,2,0,1,,,,,,,,,,,,,
6665fbef3202800c8227ce10,SCN,2024-06-21_13h47.28.826,LearnStrategy,2023.2.3,MacIntel,60.97560976,1,1,4,0.397788628,0.245750393,1,0,0,1.029,Peridotite_15,7,15,5,7,1.029,0.10525255,-0.39856547,1,0,0,4.1033,Peridotite_rect,7,4.103,1,3,0,3,0,1,,,,,,,,,,,,,
6665fbef3202800c8227ce10,SCN,2024-06-21_13h47.28.826,LearnStrategy,2023.2.3,MacIntel,60.97560976,1,1,5,-0.076618381,0.402874773,1,0,0,1.2959,Andesite_03,1,03,6,4,1.296,-0.348643053,-0.230031264,1,0,0,2.0466,Andesite_rect,1,2.047,1,4,0,4,0,1,,,,,,,,,,,,,
6665fbef3202800c8227ce10,SCN,2024-06-21_13h47.28.826,LearnStrategy,2023.2.3,MacIntel,60.97560976,1,1,6,-0.55535202,0.40234904,1,0,0,1.2294,Gabbro_16,4,16,6,1,1.229,-0.107133247,-0.242368707,1,0,0,4.1167,Basalt_rect,2,4.117,0,5,0,5,0,1,,,,,,,,,,,,,
6665fbef3202800c8227ce10,SCN,2024-06-21_13h47.28.826,LearnStrategy,2023.2.3,MacIntel,60.97560976,1,1,7,0.581036106,0.258372362,1,0,0,1.3451,Diorite_16,3,16,5,8,1.345,-0.218565131,-0.253325399,1,0,0,3.6183,Basalt_rect,2,3.618,0,6,0,6,0,1,,,,,,,,,,,,,
6665fbef3202800c8227ce10,SCN,2024-06-21_13h47.28.826,LearnStrategy,2023.2.3,MacIntel,60.97560976,1,1,8,-0.520645565,0.0850452,1,0,0,1.5162,Pegmatite_07,6,07,4,1,1.516,-0.183757053,-0.394308336,1,0,0,1.314,Pegmatite_rect,6,1.314,1,7,0,7,0,1,,,,,,,,,,,,,
6665fbef3202800c8227ce10,SCN,2024-06-21_13h47.28.826,LearnStrategy,2023.2.3,MacIntel,60.97560976,1,1,9,-0.403314277,0.231371867,1,0,0,1.08,Obsidian_05,5,05,5,2,1.08,-0.420480448,-0.391311103,1,0,0,1.1602,Obsidian_rect,5,1.16,1,8,0,8,0,1,,,,,,,,,,,,,
6665fbef3202800c8227ce10,SCN,2024-06-21_13h47.28.826,LearnStrategy,2023.2.3,MacIntel,60.97560976,1,1,10,-0.220250515,0.243564453,1,0,0,1.8318,Diorite_12,3,12,5,3,1.832,0.384638129,-0.397369113,1,0,0,4.5153,Pumice_rect,8,4.515,0,9,0,9,0,1,,,,,,,,,,,,,
6665fbef3202800c8227ce10,SCN,2024-06-21_13h47.28.826,LearnStrategy,2023.2.3,MacIntel,60.97560976,1,1,11,0.090747613,0.235710856,1,0,0,1.6643,Pumice_09,8,09,5,5,1.664,0.084138997,-0.267081502,1,0,0,3.7439,Diorite_rect,3,3.744,0,10,0,10,0,1,,,,,,,,,,,,,
6665fbef3202800c8227ce10,SCN,2024-06-21_13h47.28.826,LearnStrategy,2023.2.3,MacIntel,60.97560976,1,1,12,0.244400838,0.248030006,1,0,0,1.0639,Basalt_04,2,04,5,6,1.064,-0.200885891,-0.240309584,1,0,0,2.5781,Basalt_rect,2,2.578,1,11,0,11,0,1,,,,,,,,,,,,,
6665fbef3202800c8227ce10,SCN,2024-06-21_13h47.28.826,LearnStrategy,2023.2.3,MacIntel,60.97560976,1,1,13,0.416673448,0.052379354,1,0,0,1.729,Peridotite_14,7,14,4,7,1.729,-0.12249722,-0.404847819,1,0,0,1.3661,Pegmatite_rect,6,1.366,0,12,0,12,0,1,,,,,,,,,,,,,
6665fbef3202800c8227ce10,SCN,2024-06-21_13h47.28.826,LearnStrategy,2023.2.3,MacIntel,60.97560976,1,1,14,-0.523927748,-0.085271878,1,0,0,1.2825,Diorite_09,3,09,3,1,1.282,-0.153235609,-0.262500475,1,0,0,3.9916,Basalt_rect,2,3.992,0,13,0,13,0,1,,,,,,,,,,,,,
6665fbef3202800c8227ce10,SCN,2024-06-21_13h47.28.826,LearnStrategy,2023.2.3,MacIntel,60.97560976,1,1,15,0.236209378,-0.244532471,1,0,0,1.8306,Obsidian_06,5,06,2,6,1.831,-0.180013631,-0.399627686,1,0,0,2.8052,Pegmatite_rect,6,2.805,0,14,0,14,0,1,,,,,,,,,,,,,
6665fbef3202800c8227ce10,SCN,2024-06-21_13h47.28.826,LearnStrategy,2023.2.3,MacIntel,60.97560976,1,1,16,0.439007704,-0.259395006,1,0,0,1.527,Basalt_09,2,09,2,7,1.527,-0.34163642,-0.400862291,1,0,0,1.5973,Obsidian_rect,5,1.597,0,15,0,15,0,1,,,,,,,,,,,,,
6665fbef3202800c8227ce10,SCN,2024-06-21_13h47.28.826,LearnStrategy,2023.2.3,MacIntel,60.97560976,1,2,1,,,,,,,,8,04,,,,,,,,,,,8,2.107,1,,,,,,0.409155816,-0.411284993,1,0,0,2.1073,Pumice_rect,0,0,0,0,1,
6665fbef3202800c8227ce10,SCN,2024-06-21_13h47.28.826,LearnStrategy,2023.2.3,MacIntel,60.97560976,1,2,2,,,,,,,,2,11,,,,,,,,,,,2,2.895,1,,,,,,-0.154448649,-0.252882148,1,0,0,2.8949,Basalt_rect,1,0,1,0,1,
6665fbef3202800c8227ce10,SCN,2024-06-21_13h47.28.826,LearnStrategy,2023.2.3,MacIntel,60.97560976,1,2,3,,,,,,,,7,06,,,,,,,,,,,7,3.046,1,,,,,,0.082162476,-0.409654066,1,0,0,3.0458,Peridotite_rect,2,0,2,0,1,
6665fbef3202800c8227ce10,SCN,2024-06-21_13h47.28.826,LearnStrategy,2023.2.3,MacIntel,60.97560976,1,2,4,,,,,,,,6,16,,,,,,,,,,,3,5.788,0,,,,,,0.124540609,-0.24781033,1,0,0,5.7878,Diorite_rect,3,0,3,0,1,
6665fbef3202800c8227ce10,SCN,2024-06-21_13h47.28.826,LearnStrategy,2023.2.3,MacIntel,60.97560976,1,2,5,,,,,,,,4,14,,,,,,,,,,,2,2.346,0,,,,,,-0.186675483,-0.243485989,1,0,0,2.3456,Basalt_rect,4,0,4,0,1,
6665fbef3202800c8227ce10,SCN,2024-06-21_13h47.28.826,LearnStrategy,2023.2.3,MacIntel,60.97560976,1,2,6,,,,,,,,4,09,,,,,,,,,,,5,5.886,0,,,,,,-0.38610121,-0.401527439,1,0,0,5.8861,Obsidian_rect,5,0,5,0,1,
6665fbef3202800c8227ce10,SCN,2024-06-21_13h47.28.826,LearnStrategy,2023.2.3,MacIntel,60.97560976,1,2,7,,,,,,,,7,04,,,,,,,,,,,7,3.712,1,,,,,,0.118071221,-0.400884874,1,0,0,3.7119,Peridotite_rect,6,0,6,0,1,
6665fbef3202800c8227ce10,SCN,2024-06-21_13h47.28.826,LearnStrategy,2023.2.3,MacIntel,60.97560976,1,2,8,,,,,,,,5,14,,,,,,,,,,,5,1.103,1,,,,,,-0.346649136,-0.394487169,1,0,0,1.1028,Obsidian_rect,7,0,7,0,1,
6665fbef3202800c8227ce10,SCN,2024-06-21_13h47.28.826,LearnStrategy,2023.2.3,MacIntel,60.97560976,1,2,9,,,,,,,,2,01,,,,,,,,,,,2,1.362,1,,,,,,-0.149531453,-0.253512573,1,0,0,1.3617,Basalt_rect,8,0,8,0,1,
6665fbef3202800c8227ce10,SCN,2024-06-21_13h47.28.826,LearnStrategy,2023.2.3,MacIntel,60.97560976,1,2,10,,,,,,,,3,08,,,,,,,,,,,3,1.087,1,,,,,,0.093674927,-0.261922811,1,0,0,1.0867,Diorite_rect,9,0,9,0,1,
6665fbef3202800c8227ce10,SCN,2024-06-21_13h47.28.826,LearnStrategy,2023.2.3,MacIntel,60.97560976,1,2,11,,,,,,,,3,06,,,,,,,,,,,3,0.829,1,,,,,,0.091396145,-0.256902941,1,0,0,0.8289,Diorite_rect,10,0,10,0,1,
6665fbef3202800c8227ce10,SCN,2024-06-21_13h47.28.826,LearnStrategy,2023.2.3,MacIntel,60.97560976,1,2,12,,,,,,,,5,07,,,,,,,,,,,5,0.959,1,,,,,,-0.345889248,-0.393020155,1,0,0,0.9585,Obsidian_rect,11,0,11,0,1,
6665fbef3202800c8227ce10,SCN,2024-06-21_13h47.28.826,LearnStrategy,2023.2.3,MacIntel,60.97560976,1,2,13,,,,,,,,1,07,,,,,,,,,,,3,6.34,0,,,,,,0.070013631,-0.256521132,1,0,0,6.3402,Diorite_rect,12,0,12,0,1,
6665fbef3202800c8227ce10,SCN,2024-06-21_13h47.28.826,LearnStrategy,2023.2.3,MacIntel,60.97560976,1,2,14,,,,,,,,1,05,,,,,,,,,,,7,1.337,0,,,,,,0.076282484,-0.384682956,1,0,0,1.3365,Peridotite_rect,13,0,13,0,1,
6665fbef3202800c8227ce10,SCN,2024-06-21_13h47.28.826,LearnStrategy,2023.2.3,MacIntel,60.97560976,1,2,15,,,,,,,,6,09,,,,,,,,,,,7,0.982,0,,,,,,0.086199544,-0.39535909,1,0,0,0.9822,Peridotite_rect,14,0,14,0,1,
6665fbef3202800c8227ce10,SCN,2024-06-21_13h47.28.826,LearnStrategy,2023.2.3,MacIntel,60.97560976,1,2,16,,,,,,,,8,03,,,,,,,,,,,8,1.233,1,,,,,,0.364488661,-0.381424289,1,0,0,1.2329,Pumice_rect,15,0,15,0,1,
6665fbef3202800c8227ce10,SCN,2024-06-21_13h47.28.826,LearnStrategy,2023.2.3,MacIntel,60.97560976,2,1,1,0.234608968,0.098518134,1,0,0,2.4483,Peridotite_16,7,16,4,6,2.448,0.094955987,-0.403357273,1,0,0,3.079,Peridotite_rect,7,3.079,1,0,0,0,0,1,,,,,,,,,,,,,
6665fbef3202800c8227ce10,SCN,2024-06-21_13h47.28.826,LearnStrategy,2023.2.3,MacIntel,60.97560976,2,1,2,0.102696058,-0.087647163,1,0,0,1.5127,Pegmatite_03,6,03,3,5,1.513,0.133386841,-0.399290432,1,0,0,0.7695,Peridotite_rect,7,0.77,0,1,0,1,0,1,,,,,,,,,,,,,
6665fbef3202800c8227ce10,SCN,2024-06-21_13h47.28.826,LearnStrategy,2023.2.3,MacIntel,60.97560976,2,1,3,-0.085938856,-0.426339857,1,0,0,1.8315,Pumice_10,8,10,1,4,1.832,0.410831028,-0.394960531,1,0,0,0.7081,Pumice_rect,8,0.708,1,2,0,2,0,1,,,,,,,,,,,,,
6665fbef3202800c8227ce10,SCN,2024-06-21_13h47.28.826,LearnStrategy,2023.2.3,MacIntel,60.97560976,2,1,4,-0.379892646,-0.106957465,1,0,0,1.3306,Pegmatite_08,6,08,3,2,1.331,-0.39282664,-0.259009603,1,0,0,2.5021,Andesite_rect,1,2.502,0,3,0,3,0,1,,,,,,,,,,,,,
6665fbef3202800c8227ce10,SCN,2024-06-21_13h47.28.826,LearnStrategy,2023.2.3,MacIntel,60.97560976,2,1,5,0.550330811,-0.442215373,1,0,0,1.9642,Pumice_16,8,16,1,8,1.964,0.469320747,-0.419335395,1,0,0,0.7961,Pumice_rect,8,0.796,1,4,0,4,0,1,,,,,,,,,,,,,
6665fbef3202800c8227ce10,SCN,2024-06-21_13h47.28.826,LearnStrategy,2023.2.3,MacIntel,60.97560976,2,1,6,0.55718438,-0.118278537,1,0,0,5.0634,Peridotite_05,7,05,3,8,5.063,0.11804891,-0.390869548,1,0,0,2.6943,Peridotite_rect,7,2.694,1,5,0,5,0,1,,,,,,,,,,,,,
6665fbef3202800c8227ce10,SCN,2024-06-21_13h47.28.826,LearnStrategy,2023.2.3,MacIntel,60.97560976,2,1,7,0.406338433,0.242760247,1,0,0,1.3488,Peridotite_15,7,15,5,7,1.349,0.116906331,-0.392882419,1,0,0,0.9463,Peridotite_rect,7,0.946,1,6,0,6,0,1,,,,,,,,,,,,,
6665fbef3202800c8227ce10,SCN,2024-06-21_13h47.28.826,LearnStrategy,2023.2.3,MacIntel,60.97560976,2,1,8,0.531907552,0.384441172,1,0,0,2.8484,Obsidian_04,5,04,6,8,2.848,-0.404473063,-0.405539212,1,0,0,1.5578,Obsidian_rect,5,1.558,1,7,0,7,0,1,,,,,,,,,,,,,
6665fbef3202800c8227ce10,SCN,2024-06-21_13h47.28.826,LearnStrategy,2023.2.3,MacIntel,60.97560976,2,1,9,-0.086485257,0.373770972,1,0,0,1.9467,Andesite_03,1,03,6,4,1.947,-0.387412788,-0.267482435,1,0,0,1.4466,Andesite_rect,1,1.447,1,8,0,8,0,1,,,,,,,,,,,,,
6665fbef3202800c8227ce10,SCN,2024-06-21_13h47.28.826,LearnStrategy,2023.2.3,MacIntel,60.97560976,2,1,10,-0.211259901,-0.421043498,1,0,0,2.0308,Gabbro_12,4,12,1,3,2.031,-0.351447245,-0.259509616,1,0,0,0.6575,Andesite_rect,1,0.657,0,9,0,9,0,1,,,,,,,,,,,,,
6665fbef3202800c8227ce10,SCN,2024-06-21_13h47.28.826,LearnStrategy,2023.2.3,MacIntel,60.97560976,2,1,11,-0.526315918,0.2402152,1,0,0,2.5137,Basalt_12,2,12,5,1,2.514,0.376363797,-0.381475288,1,0,0,1.2197,Pumice_rect,8,1.22,0,10,0,10,0,1,,,,,,,,,,,,,
6665fbef3202800c8227ce10,SCN,2024-06-21_13h47.28.826,LearnStrategy,2023.2.3,MacIntel,60.97560976,2,1,12,-0.237100864,0.392773692,1,0,0,1.8127,Obsidian_11,5,11,6,3,1.813,-0.403793267,-0.387352702,1,0,0,1.1997,Obsidian_rect,5,1.2,1,11,0,11,0,1,,,,,,,,,,,,,
6665fbef3202800c8227ce10,SCN,2024-06-21_13h47.28.826,LearnStrategy,2023.2.3,MacIntel,60.97560976,2,1,13,0.091445448,0.227569817,1,0,0,1.0651,Pumice_09,8,09,5,5,1.065,0.372347955,-0.395245904,1,0,0,0.9204,Pumice_rect,8,0.92,1,12,0,12,0,1,,,,,,,,,,,,,
6665fbef3202800c8227ce10,SCN,2024-06-21_13h47.28.826,LearnStrategy,2023.2.3,MacIntel,60.97560976,2,1,14,0.22390686,0.231377903,1,0,0,0.9979,Basalt_04,2,04,5,6,0.998,-0.119361165,-0.270474921,1,0,0,1.5947,Basalt_rect,2,1.595,1,13,0,13,0,1,,,,,,,,,,,,,
6665fbef3202800c8227ce10,SCN,2024-06-21_13h47.28.826,LearnStrategy,2023.2.3,MacIntel,60.97560976,2,1,15,0.244638333,-0.445354004,1,0,0,1.5149,Gabbro_15,4,15,1,6,1.515,0.112477078,-0.262800225,1,0,0,2.2346,Diorite_rect,3,2.235,0,14,0,14,0,1,,,,,,,,,,,,,
6665fbef3202800c8227ce10,SCN,2024-06-21_13h47.28.826,LearnStrategy,2023.2.3,MacIntel,60.97560976,2,1,16,-0.398944024,0.380861901,1,0,0,3.8656,Pegmatite_11,6,11,6,2,3.866,-0.110814006,-0.405071547,1,0,0,1.713,Pegmatite_rect,6,1.713,1,15,0,15,0,1,,,,,,,,,,,,,
6665fbef3202800c8227ce10,SCN,2024-06-21_13h47.28.826,LearnStrategy,2023.2.3,MacIntel,60.97560976,2,2,1,,,,,,,,1,16,,,,,,,,,,,1,8.915,1,,,,,,-0.343725823,-0.266168077,1,0,0,8.9146,Andesite_rect,0,0,0,0,1,
6665fbef3202800c8227ce10,SCN,2024-06-21_13h47.28.826,LearnStrategy,2023.2.3,MacIntel,60.97560976,2,2,2,,,,,,,,3,13,,,,,,,,,,,3,1.204,1,,,,,,0.088599108,-0.241134508,1,0,0,1.2037,Diorite_rect,1,0,1,0,1,
6665fbef3202800c8227ce10,SCN,2024-06-21_13h47.28.826,LearnStrategy,2023.2.3,MacIntel,60.97560976,2,2,3,,,,,,,,4,01,,,,,,,,,,,1,3.11,0,,,,,,-0.388271823,-0.244922689,1,0,0,3.1095,Andesite_rect,2,0,2,0,1,
6665fbef3202800c8227ce10,SCN,2024-06-21_13h47.28.826,LearnStrategy,2023.2.3,MacIntel,60.97560976,2,2,4,,,,,,,,1,06,,,,,,,,,,,2,5.473,0,,,,,,-0.209177924,-0.232729357,1,0,0,5.4731,Basalt_rect,3,0,3,0,1,
6665fbef3202800c8227ce10,SCN,2024-06-21_13h47.28.826,LearnStrategy,2023.2.3,MacIntel,60.97560976,2,2,5,,,,,,,,8,08,,,,,,,,,,,8,1.225,1,,,,,,0.320201077,-0.392961968,1,0,0,1.2254,Pumice_rect,4,0,4,0,1,
6665fbef3202800c8227ce10,SCN,2024-06-21_13h47.28.826,LearnStrategy,2023.2.3,MacIntel,60.97560976,2,2,6,,,,,,,,8,05,,,,,,,,,,,8,1.348,1,,,,,,0.378700222,-0.39116272,1,0,0,1.3479,Pumice_rect,5,0,5,0,1,
6665fbef3202800c8227ce10,SCN,2024-06-21_13h47.28.826,LearnStrategy,2023.2.3,MacIntel,60.97560976,2,2,7,,,,,,,,5,08,,,,,,,,,,,5,1.036,1,,,,,,-0.37100101,-0.402122125,1,0,0,1.0363,Obsidian_rect,6,0,6,0,1,
6665fbef3202800c8227ce10,SCN,2024-06-21_13h47.28.826,LearnStrategy,2023.2.3,MacIntel,60.97560976,2,2,8,,,,,,,,2,16,,,,,,,,,,,4,2.269,0,,,,,,0.372094727,-0.248944973,1,0,0,2.2691,Gabbro_rect,7,0,7,0,1,
6665fbef3202800c8227ce10,SCN,2024-06-21_13h47.28.826,LearnStrategy,2023.2.3,MacIntel,60.97560976,2,2,9,,,,,,,,3,15,,,,,,,,,,,3,2.33,1,,,,,,0.059934557,-0.26437439,1,0,0,2.3296,Diorite_rect,8,0,8,0,1,
6665fbef3202800c8227ce10,SCN,2024-06-21_13h47.28.826,LearnStrategy,2023.2.3,MacIntel,60.97560976,2,2,10,,,,,,,,5,16,,,,,,,,,,,5,0.948,1,,,,,,-0.351976488,-0.399044935,1,0,0,0.9479,Obsidian_rect,9,0,9,0,1,
6665fbef3202800c8227ce10,SCN,2024-06-21_13h47.28.826,LearnStrategy,2023.2.3,MacIntel,60.97560976,2,2,11,,,,,,,,7,07,,,,,,,,,,,7,1.862,1,,,,,,0.079406738,-0.398174303,1,0,0,1.8624,Peridotite_rect,10,0,10,0,1,
6665fbef3202800c8227ce10,SCN,2024-06-21_13h47.28.826,LearnStrategy,2023.2.3,MacIntel,60.97560976,2,2,12,,,,,,,,2,05,,,,,,,,,,,2,1.265,1,,,,,,-0.152347616,-0.246738146,1,0,0,1.2648,Basalt_rect,11,0,11,0,1,
6665fbef3202800c8227ce10,SCN,2024-06-21_13h47.28.826,LearnStrategy,2023.2.3,MacIntel,60.97560976,2,2,13,,,,,,,,7,12,,,,,,,,,,,7,1.832,1,,,,,,0.092309638,-0.407544013,1,0,0,1.8316,Peridotite_rect,12,0,12,0,1,
6665fbef3202800c8227ce10,SCN,2024-06-21_13h47.28.826,LearnStrategy,2023.2.3,MacIntel,60.97560976,2,2,14,,,,,,,,4,13,,,,,,,,,,,6,1.159,0,,,,,,-0.165746935,-0.409654812,1,0,0,1.1588,Pegmatite_rect,13,0,13,0,1,
6665fbef3202800c8227ce10,SCN,2024-06-21_13h47.28.826,LearnStrategy,2023.2.3,MacIntel,60.97560976,2,2,15,,,,,,,,6,13,,,,,,,,,,,6,1.763,1,,,,,,-0.157907986,-0.401236776,1,0,0,1.7634,Pegmatite_rect,14,0,14,0,1,
6665fbef3202800c8227ce10,SCN,2024-06-21_13h47.28.826,LearnStrategy,2023.2.3,MacIntel,60.97560976,2,2,16,,,,,,,,6,12,,,,,,,,,,,3,1.835,0,,,,,,0.139620768,-0.253330553,1,0,0,1.8354,Diorite_rect,15,0,15,0,1,
6665fbef3202800c8227ce10,SCN,2024-06-21_13h47.28.826,LearnStrategy,2023.2.3,MacIntel,60.97560976,3,1,1,0.365014784,-0.130240343,1,0,0,1.182,Andesite_10,1,10,3,7,1.182,-0.188936428,-0.250225559,1,0,0,1.5051,Basalt_rect,2,1.505,0,0,0,0,0,1,,,,,,,,,,,,,
6665fbef3202800c8227ce10,SCN,2024-06-21_13h47.28.826,LearnStrategy,2023.2.3,MacIntel,60.97560976,3,1,2,0.056057604,-0.280963135,1,0,0,0.9962,Pegmatite_10,6,10,2,5,0.996,0.097464261,-0.414779799,1,0,0,0.6447,Peridotite_rect,7,0.645,0,1,0,1,0,1,,,,,,,,,,,,,
6665fbef3202800c8227ce10,SCN,2024-06-21_13h47.28.826,LearnStrategy,2023.2.3,MacIntel,60.97560976,3,1,3,-0.233748305,0.103723416,1,0,0,0.9833,Andesite_09,1,09,4,3,0.983,-0.150406019,-0.25983941,1,0,0,1.2245,Basalt_rect,2,1.224,0,2,0,2,0,1,,,,,,,,,,,,,
6665fbef3202800c8227ce10,SCN,2024-06-21_13h47.28.826,LearnStrategy,2023.2.3,MacIntel,60.97560976,3,1,4,0.212832709,0.240801748,1,0,0,1.1126,Basalt_04,2,04,5,6,1.113,-0.181762831,-0.246273193,1,0,0,0.9899,Basalt_rect,2,0.99,1,3,0,3,0,1,,,,,,,,,,,,,
6665fbef3202800c8227ce10,SCN,2024-06-21_13h47.28.826,LearnStrategy,2023.2.3,MacIntel,60.97560976,3,1,5,-0.402425876,-0.280974121,1,0,0,1.1137,Basalt_14,2,14,2,2,1.114,-0.167989163,-0.250637682,1,0,0,1.3142,Basalt_rect,2,1.314,1,4,0,4,0,1,,,,,,,,,,,,,
6665fbef3202800c8227ce10,SCN,2024-06-21_13h47.28.826,LearnStrategy,2023.2.3,MacIntel,60.97560976,3,1,6,0.525877686,0.234335887,1,0,0,1.5632,Diorite_16,3,16,5,8,1.563,0.087662421,-0.263529731,1,0,0,0.841,Diorite_rect,3,0.841,1,5,0,5,0,1,,,,,,,,,,,,,
6665fbef3202800c8227ce10,SCN,2024-06-21_13h47.28.826,LearnStrategy,2023.2.3,MacIntel,60.97560976,3,1,7,0.245639513,0.376807217,1,0,0,0.8804,Gabbro_08,4,08,6,6,0.88,-0.132451104,-0.263133002,1,0,0,2.0023,Basalt_rect,2,2.002,0,6,0,6,0,1,,,,,,,,,,,,,
6665fbef3202800c8227ce10,SCN,2024-06-21_13h47.28.826,LearnStrategy,2023.2.3,MacIntel,60.97560976,3,1,8,-0.206598782,0.122743056,1,0,0,1.0451,Andesite_09,1,09,4,3,1.045,0.352096897,-0.260512017,1,0,0,0.9255,Gabbro_rect,4,0.925,0,7,0,7,0,1,,,,,,,,,,,,,
6665fbef3202800c8227ce10,SCN,2024-06-21_13h47.28.826,LearnStrategy,2023.2.3,MacIntel,60.97560976,3,1,9,-0.065005018,-0.259540066,1,0,0,0.6966,Basalt_02,2,02,2,4,0.697,-0.374386258,-0.245114136,1,0,0,1.3912,Andesite_rect,1,1.391,0,8,0,8,0,1,,,,,,,,,,,,,
6665fbef3202800c8227ce10,SCN,2024-06-21_13h47.28.826,LearnStrategy,2023.2.3,MacIntel,60.97560976,3,1,10,0.08803243,-0.433488702,1,0,0,0.8967,Pegmatite_06,6,06,1,5,0.897,-0.096711765,-0.421275092,1,0,0,1.9409,Pegmatite_rect,6,1.941,1,9,0,9,0,1,,,,,,,,,,,,,
6665fbef3202800c8227ce10,SCN,2024-06-21_13h47.28.826,LearnStrategy,2023.2.3,MacIntel,60.97560976,3,1,11,0.224322306,-0.117618883,1,0,0,0.8332,Andesite_14,1,14,3,6,0.833,-0.068535767,-0.235771417,1,0,0,2.844,Basalt_rect,2,2.844,0,10,0,10,0,1,,,,,,,,,,,,,
6665fbef3202800c8227ce10,SCN,2024-06-21_13h47.28.826,LearnStrategy,2023.2.3,MacIntel,60.97560976,3,1,12,0.231946411,-0.416431613,1,0,0,0.946,Gabbro_15,4,15,1,6,0.946,-0.039900987,-0.38013482,1,0,0,2.8789,Pegmatite_rect,6,2.879,0,11,0,11,0,1,,,,,,,,,,,,,
6665fbef3202800c8227ce10,SCN,2024-06-21_13h47.28.826,LearnStrategy,2023.2.3,MacIntel,60.97560976,3,1,13,0.25111579,-0.236888156,1,0,0,1.2487,Obsidian_06,5,06,2,6,1.249,-0.391362406,-0.389012994,1,0,0,0.9347,Obsidian_rect,5,0.935,1,12,0,12,0,1,,,,,,,,,,,,,
6665fbef3202800c8227ce10,SCN,2024-06-21_13h47.28.826,LearnStrategy,2023.2.3,MacIntel,60.97560976,3,1,14,0.052420722,0.095692376,1,0,0,0.913,Pumice_06,8,06,4,5,0.913,0.350951335,-0.406949531,1,0,0,1.1688,Pumice_rect,8,1.169,1,13,0,13,0,1,,,,,,,,,,,,,
6665fbef3202800c8227ce10,SCN,2024-06-21_13h47.28.826,LearnStrategy,2023.2.3,MacIntel,60.97560976,3,1,15,0.242820095,0.060796882,1,0,0,0.7129,Peridotite_16,7,16,4,6,0.713,0.09470832,-0.388636136,1,0,0,0.8505,Peridotite_rect,7,0.851,1,14,0,14,0,1,,,,,,,,,,,,,
6665fbef3202800c8227ce10,SCN,2024-06-21_13h47.28.826,LearnStrategy,2023.2.3,MacIntel,60.97560976,3,1,16,-0.402603997,0.111353048,1,0,0,0.7822,Basalt_06,2,06,4,2,0.782,-0.172145589,-0.250954454,1,0,0,1.141,Basalt_rect,2,1.141,1,15,0,15,0,1,,,,,,,,,,,,,
6665fbef3202800c8227ce10,SCN,2024-06-21_13h47.28.826,LearnStrategy,2023.2.3,MacIntel,60.97560976,3,2,1,,,,,,,,4,03,,,,,,,,,,,1,5.628,0,,,,,,-0.336223823,-0.250624593,1,0,0,5.6284,Andesite_rect,0,0,0,0,1,
6665fbef3202800c8227ce10,SCN,2024-06-21_13h47.28.826,LearnStrategy,2023.2.3,MacIntel,60.97560976,3,2,2,,,,,,,,2,08,,,,,,,,,,,2,1.238,1,,,,,,-0.189115601,-0.268004422,1,0,0,1.2384,Basalt_rect,1,0,1,0,1,
6665fbef3202800c8227ce10,SCN,2024-06-21_13h47.28.826,LearnStrategy,2023.2.3,MacIntel,60.97560976,3,2,3,,,,,,,,7,02,,,,,,,,,,,7,2.378,1,,,,,,0.104731784,-0.408957384,1,0,0,2.3783,Peridotite_rect,2,0,2,0,1,
6665fbef3202800c8227ce10,SCN,2024-06-21_13h47.28.826,LearnStrategy,2023.2.3,MacIntel,60.97560976,3,2,4,,,,,,,,1,04,,,,,,,,,,,3,4.67,0,,,,,,0.106062622,-0.252685683,1,0,0,4.6699,Diorite_rect,3,0,3,0,1,
6665fbef3202800c8227ce10,SCN,2024-06-21_13h47.28.826,LearnStrategy,2023.2.3,MacIntel,60.97560976,3,2,5,,,,,,,,5,12,,,,,,,,,,,5,1.035,1,,,,,,-0.381407166,-0.416220093,1,0,0,1.0352,Obsidian_rect,4,0,4,0,1,
6665fbef3202800c8227ce10,SCN,2024-06-21_13h47.28.826,LearnStrategy,2023.2.3,MacIntel,60.97560976,3,2,6,,,,,,,,3,10,,,,,,,,,,,3,2.111,1,,,,,,0.069174601,-0.255072903,1,0,0,2.1114,Diorite_rect,5,0,5,0,1,
6665fbef3202800c8227ce10,SCN,2024-06-21_13h47.28.826,LearnStrategy,2023.2.3,MacIntel,60.97560976,3,2,7,,,,,,,,7,13,,,,,,,,,,,7,1.756,1,,,,,,0.135454102,-0.410099555,1,0,0,1.7559,Peridotite_rect,6,0,6,0,1,
6665fbef3202800c8227ce10,SCN,2024-06-21_13h47.28.826,LearnStrategy,2023.2.3,MacIntel,60.97560976,3,2,8,,,,,,,,4,11,,,,,,,,,,,1,3.437,0,,,,,,-0.378784926,-0.260374349,1,0,0,3.4371,Andesite_rect,7,0,7,0,1,
6665fbef3202800c8227ce10,SCN,2024-06-21_13h47.28.826,LearnStrategy,2023.2.3,MacIntel,60.97560976,3,2,9,,,,,,,,6,05,,,,,,,,,,,5,1.975,0,,,,,,-0.360110643,-0.390434774,1,0,0,1.9749,Obsidian_rect,8,0,8,0,1,
6665fbef3202800c8227ce10,SCN,2024-06-21_13h47.28.826,LearnStrategy,2023.2.3,MacIntel,60.97560976,3,2,10,,,,,,,,8,13,,,,,,,,,,,8,1.764,1,,,,,,0.390761583,-0.400807699,1,0,0,1.7639,Pumice_rect,9,0,9,0,1,
6665fbef3202800c8227ce10,SCN,2024-06-21_13h47.28.826,LearnStrategy,2023.2.3,MacIntel,60.97560976,3,2,11,,,,,,,,6,15,,,,,,,,,,,6,7.544,1,,,,,,-0.128376261,-0.409478556,1,0,0,7.5438,Pegmatite_rect,10,0,10,0,1,
6665fbef3202800c8227ce10,SCN,2024-06-21_13h47.28.826,LearnStrategy,2023.2.3,MacIntel,60.97560976,3,2,12,,,,,,,,8,02,,,,,,,,,,,8,1.016,1,,,,,,0.350137804,-0.395213826,1,0,0,1.0161,Pumice_rect,11,0,11,0,1,
6665fbef3202800c8227ce10,SCN,2024-06-21_13h47.28.826,LearnStrategy,2023.2.3,MacIntel,60.97560976,3,2,13,,,,,,,,3,14,,,,,,,,,,,3,1.794,1,,,,,,0.13638326,-0.248619859,1,0,0,1.7938,Diorite_rect,12,0,12,0,1,
6665fbef3202800c8227ce10,SCN,2024-06-21_13h47.28.826,LearnStrategy,2023.2.3,MacIntel,60.97560976,3,2,14,,,,,,,,2,10,,,,,,,,,,,2,0.949,1,,,,,,-0.167722778,-0.261464505,1,0,0,0.9491,Basalt_rect,13,0,13,0,1,
6665fbef3202800c8227ce10,SCN,2024-06-21_13h47.28.826,LearnStrategy,2023.2.3,MacIntel,60.97560976,3,2,15,,,,,,,,1,01,,,,,,,,,,,2,4.827,0,,,,,,-0.107345852,-0.258869019,1,0,0,4.8266,Basalt_rect,14,0,14,0,1,
6665fbef3202800c8227ce10,SCN,2024-06-21_13h47.28.826,LearnStrategy,2023.2.3,MacIntel,60.97560976,3,2,16,,,,,,,,5,02,,,,,,,,,,,5,0.945,1,,,,,,-0.350933024,-0.3963935,1,0,0,0.9451,Obsidian_rect,15,0,15,0,1,
6665fbef3202800c8227ce10,SCN,2024-06-21_13h47.28.826,LearnStrategy,2023.2.3,MacIntel,60.97560976,4,1,1,-0.064321696,0.066687147,1,0,0,0.8306,Obsidian_10,5,10,4,4,0.831,-0.425913391,-0.416619331,1,0,0,0.6832,Obsidian_rect,5,0.683,1,0,0,0,0,1,,,,,,,,,,,,,
6665fbef3202800c8227ce10,SCN,2024-06-21_13h47.28.826,LearnStrategy,2023.2.3,MacIntel,60.97560976,4,1,2,0.563073052,0.103230794,1,0,0,2.0993,Gabbro_05,4,05,4,8,2.099,-0.10379069,-0.404323459,1,0,0,1.4765,Pegmatite_rect,6,1.477,0,1,0,1,0,1,,,,,,,,,,,,,
6665fbef3202800c8227ce10,SCN,2024-06-21_13h47.28.826,LearnStrategy,2023.2.3,MacIntel,60.97560976,4,1,3,-0.555906609,0.073971761,1,0,0,1.3805,Pegmatite_07,6,07,4,1,1.38,-0.082083944,-0.411387668,1,0,0,1.2276,Pegmatite_rect,6,1.228,1,2,0,2,0,1,,,,,,,,,,,,,
6665fbef3202800c8227ce10,SCN,2024-06-21_13h47.28.826,LearnStrategy,2023.2.3,MacIntel,60.97560976,4,1,4,-0.205756226,0.240808428,1,0,0,2.5484,Diorite_12,3,12,5,3,2.548,0.146812473,-0.256581489,1,0,0,1.4055,Diorite_rect,3,1.406,1,3,0,3,0,1,,,,,,,,,,,,,
6665fbef3202800c8227ce10,SCN,2024-06-21_13h47.28.826,LearnStrategy,2023.2.3,MacIntel,60.97560976,4,1,5,0.378426921,-0.268529256,1,0,0,1.2131,Basalt_09,2,09,2,7,1.213,-0.333648241,-0.256565348,1,0,0,1.8334,Andesite_rect,1,1.833,0,4,0,4,0,1,,,,,,,,,,,,,
6665fbef3202800c8227ce10,SCN,2024-06-21_13h47.28.826,LearnStrategy,2023.2.3,MacIntel,60.97560976,4,1,6,0.526948513,-0.259482761,1,0,0,0.9779,Gabbro_10,4,10,2,8,0.978,-0.126247626,-0.250329454,1,0,0,1.1664,Basalt_rect,2,1.166,0,5,0,5,0,1,,,,,,,,,,,,,
6665fbef3202800c8227ce10,SCN,2024-06-21_13h47.28.826,LearnStrategy,2023.2.3,MacIntel,60.97560976,4,1,7,0.416834988,-0.395082058,1,0,0,1.331,Andesite_11,1,11,1,7,1.331,-0.366996053,-0.23708903,1,0,0,1.7719,Andesite_rect,1,1.772,1,6,0,6,0,1,,,,,,,,,,,,,
6665fbef3202800c8227ce10,SCN,2024-06-21_13h47.28.826,LearnStrategy,2023.2.3,MacIntel,60.97560976,4,1,8,-0.397874213,-0.423470934,1,0,0,0.9653,Pumice_14,8,14,1,2,0.965,0.417310248,-0.405305244,1,0,0,0.9565,Pumice_rect,8,0.957,1,7,0,7,0,1,,,,,,,,,,,,,
6665fbef3202800c8227ce10,SCN,2024-06-21_13h47.28.826,LearnStrategy,2023.2.3,MacIntel,60.97560976,4,1,9,0.225562948,0.112002258,1,0,0,1.5138,Peridotite_16,7,16,4,6,1.514,0.086918742,-0.419731445,1,0,0,1.6235,Peridotite_rect,7,1.624,1,8,0,8,0,1,,,,,,,,,,,,,
6665fbef3202800c8227ce10,SCN,2024-06-21_13h47.28.826,LearnStrategy,2023.2.3,MacIntel,60.97560976,4,1,10,-0.204530436,0.076499464,1,0,0,0.8153,Andesite_09,1,09,4,3,0.815,0.369344211,-0.243084852,1,0,0,3.2981,Gabbro_rect,4,3.298,0,9,0,9,0,1,,,,,,,,,,,,,
6665fbef3202800c8227ce10,SCN,2024-06-21_13h47.28.826,LearnStrategy,2023.2.3,MacIntel,60.97560976,4,1,11,-0.114226752,0.389169651,1,0,0,1.8318,Andesite_03,1,03,6,4,1.832,-0.180423381,-0.264314846,1,0,0,1.4204,Basalt_rect,2,1.42,0,10,0,10,0,1,,,,,,,,,,,,,
6665fbef3202800c8227ce10,SCN,2024-06-21_13h47.28.826,LearnStrategy,2023.2.3,MacIntel,60.97560976,4,1,12,0.243377957,0.389312422,1,0,0,1.2661,Gabbro_08,4,08,6,6,1.266,0.412445882,-0.238082954,1,0,0,1.4991,Gabbro_rect,4,1.499,1,11,0,11,0,1,,,,,,,,,,,,,
6665fbef3202800c8227ce10,SCN,2024-06-21_13h47.28.826,LearnStrategy,2023.2.3,MacIntel,60.97560976,4,1,13,0.506892768,-0.276050483,1,0,0,1.8645,Gabbro_10,4,10,2,8,1.865,0.411635607,-0.243098077,1,0,0,0.6818,Gabbro_rect,4,0.682,1,12,0,12,0,1,,,,,,,,,,,,,
6665fbef3202800c8227ce10,SCN,2024-06-21_13h47.28.826,LearnStrategy,2023.2.3,MacIntel,60.97560976,4,1,14,-0.411081272,0.087812703,1,0,0,0.9985,Basalt_06,2,06,4,2,0.998,-0.174828016,-0.270027195,1,0,0,0.8977,Basalt_rect,2,0.898,1,13,0,13,0,1,,,,,,,,,,,,,
6665fbef3202800c8227ce10,SCN,2024-06-21_13h47.28.826,LearnStrategy,2023.2.3,MacIntel,60.97560976,4,1,15,-0.412072991,-0.095788642,1,0,0,0.9485,Pegmatite_08,6,08,3,2,0.948,-0.086922947,-0.403081529,1,0,0,1.0178,Pegmatite_rect,6,1.018,1,14,0,14,0,1,,,,,,,,,,,,,
6665fbef3202800c8227ce10,SCN,2024-06-21_13h47.28.826,LearnStrategy,2023.2.3,MacIntel,60.97560976,4,1,16,-0.420283407,-0.287582804,1,0,0,0.8824,Basalt_14,2,14,2,2,0.882,0.369990777,-0.249145915,1,0,0,2.687,Gabbro_rect,4,2.687,0,15,0,15,0,1,,,,,,,,,,,,,
6665fbef3202800c8227ce10,SCN,2024-06-21_13h47.28.826,LearnStrategy,2023.2.3,MacIntel,60.97560976,4,2,1,,,,,,,,8,04,,,,,,,,,,,8,1.049,1,,,,,,0.369207899,-0.394464857,1,0,0,1.0493,Pumice_rect,0,0,0,0,1,
6665fbef3202800c8227ce10,SCN,2024-06-21_13h47.28.826,LearnStrategy,2023.2.3,MacIntel,60.97560976,4,2,2,,,,,,,,3,06,,,,,,,,,,,3,1.33,1,,,,,,0.108654989,-0.229473606,1,0,0,1.3295,Diorite_rect,1,0,1,0,1,
6665fbef3202800c8227ce10,SCN,2024-06-21_13h47.28.826,LearnStrategy,2023.2.3,MacIntel,60.97560976,4,2,3,,,,,,,,2,10,,,,,,,,,,,2,2.348,1,,,,,,-0.158255683,-0.253377346,1,0,0,2.3482,Basalt_rect,2,0,2,0,1,
6665fbef3202800c8227ce10,SCN,2024-06-21_13h47.28.826,LearnStrategy,2023.2.3,MacIntel,60.97560976,4,2,4,,,,,,,,7,06,,,,,,,,,,,7,1.887,1,,,,,,0.077145182,-0.395435859,1,0,0,1.8865,Peridotite_rect,3,0,3,0,1,
6665fbef3202800c8227ce10,SCN,2024-06-21_13h47.28.826,LearnStrategy,2023.2.3,MacIntel,60.97560976,4,2,5,,,,,,,,3,15,,,,,,,,,,,3,1.096,1,,,,,,0.101349148,-0.268611382,1,0,0,1.0956,Diorite_rect,4,0,4,0,1,
6665fbef3202800c8227ce10,SCN,2024-06-21_13h47.28.826,LearnStrategy,2023.2.3,MacIntel,60.97560976,4,2,6,,,,,,,,8,03,,,,,,,,,,,8,1.065,1,,,,,,0.327138875,-0.407161526,1,0,0,1.0647,Pumice_rect,5,0,5,0,1,
6665fbef3202800c8227ce10,SCN,2024-06-21_13h47.28.826,LearnStrategy,2023.2.3,MacIntel,60.97560976,4,2,7,,,,,,,,4,09,,,,,,,,,,,4,4.236,1,,,,,,0.361030138,-0.261068387,1,0,0,4.2358,Gabbro_rect,6,0,6,0,1,
6665fbef3202800c8227ce10,SCN,2024-06-21_13h47.28.826,LearnStrategy,2023.2.3,MacIntel,60.97560976,4,2,8,,,,,,,,7,12,,,,,,,,,,,6,1.71,0,,,,,,-0.103452759,-0.39566569,1,0,0,1.7102,Pegmatite_rect,7,0,7,0,1,
6665fbef3202800c8227ce10,SCN,2024-06-21_13h47.28.826,LearnStrategy,2023.2.3,MacIntel,60.97560976,4,2,9,,,,,,,,6,12,,,,,,,,,,,6,1.279,1,,,,,,-0.139197523,-0.414983249,1,0,0,1.2792,Pegmatite_rect,8,0,8,0,1,
6665fbef3202800c8227ce10,SCN,2024-06-21_13h47.28.826,LearnStrategy,2023.2.3,MacIntel,60.97560976,4,2,10,,,,,,,,5,16,,,,,,,,,,,5,0.898,1,,,,,,-0.422307061,-0.392863091,1,0,0,0.898,Obsidian_rect,9,0,9,0,1,
6665fbef3202800c8227ce10,SCN,2024-06-21_13h47.28.826,LearnStrategy,2023.2.3,MacIntel,60.97560976,4,2,11,,,,,,,,6,05,,,,,,,,,,,6,3.313,1,,,,,,-0.130530056,-0.393380398,1,0,0,3.3125,Pegmatite_rect,10,0,10,0,1,
6665fbef3202800c8227ce10,SCN,2024-06-21_13h47.28.826,LearnStrategy,2023.2.3,MacIntel,60.97560976,4,2,12,,,,,,,,4,14,,,,,,,,,,,4,1.899,1,,,,,,0.40078342,-0.243973524,1,0,0,1.8991,Gabbro_rect,11,0,11,0,1,
6665fbef3202800c8227ce10,SCN,2024-06-21_13h47.28.826,LearnStrategy,2023.2.3,MacIntel,60.97560976,4,2,13,,,,,,,,2,16,,,,,,,,,,,4,3.45,0,,,,,,0.362278103,-0.24105679,1,0,0,3.4495,Gabbro_rect,12,0,12,0,1,
6665fbef3202800c8227ce10,SCN,2024-06-21_13h47.28.826,LearnStrategy,2023.2.3,MacIntel,60.97560976,4,2,14,,,,,,,,1,16,,,,,,,,,,,1,1.719,1,,,,,,-0.334893629,-0.2448133,1,0,0,1.7186,Andesite_rect,13,0,13,0,1,
6665fbef3202800c8227ce10,SCN,2024-06-21_13h47.28.826,LearnStrategy,2023.2.3,MacIntel,60.97560976,4,2,15,,,,,,,,5,02,,,,,,,,,,,5,1.065,1,,,,,,-0.356435954,-0.406171807,1,0,0,1.065,Obsidian_rect,14,0,14,0,1,
6665fbef3202800c8227ce10,SCN,2024-06-21_13h47.28.826,LearnStrategy,2023.2.3,MacIntel,60.97560976,4,2,16,,,,,,,,1,01,,,,,,,,,,,2,1.515,0,,,,,,-0.125352783,-0.231765611,1,0,0,1.5148,Basalt_rect,15,0,15,0,1,
6665fbef3202800c8227ce10,SCN,2024-06-21_13h47.28.826,LearnStrategy,2023.2.3,MacIntel,60.97560976,5,1,1,0.11509101,-0.083702664,1,0,0,0.5152,Pegmatite_03,6,03,3,5,0.515,-0.196461317,-0.399969686,1,0,0,0.8479,Pegmatite_rect,6,0.848,1,0,0,0,0,1,,,,,,,,,,,,,
6665fbef3202800c8227ce10,SCN,2024-06-21_13h47.28.826,LearnStrategy,2023.2.3,MacIntel,60.97560976,5,1,2,0.561649984,0.082163866,1,0,0,0.714,Gabbro_05,4,05,4,8,0.714,-0.124105971,-0.410146349,1,0,0,1.6225,Pegmatite_rect,6,1.622,0,1,0,1,0,1,,,,,,,,,,,,,
6665fbef3202800c8227ce10,SCN,2024-06-21_13h47.28.826,LearnStrategy,2023.2.3,MacIntel,60.97560976,5,1,3,0.100728828,-0.407266642,1,0,0,2.3136,Pegmatite_06,6,06,1,5,2.314,-0.167987467,-0.391968113,1,0,0,1.6497,Pegmatite_rect,6,1.65,1,2,0,2,0,1,,,,,,,,,,,,,
6665fbef3202800c8227ce10,SCN,2024-06-21_13h47.28.826,LearnStrategy,2023.2.3,MacIntel,60.97560976,5,1,4,0.392727729,0.07501041,1,0,0,0.913,Peridotite_14,7,14,4,7,0.913,-0.153190782,-0.402100762,1,0,0,1.1297,Pegmatite_rect,6,1.13,0,3,0,3,0,1,,,,,,,,,,,,,
6665fbef3202800c8227ce10,SCN,2024-06-21_13h47.28.826,LearnStrategy,2023.2.3,MacIntel,60.97560976,5,1,5,0.232327677,-0.393627116,1,0,0,0.9318,Gabbro_15,4,15,1,6,0.932,0.374769287,-0.262407566,1,0,0,1.1188,Gabbro_rect,4,1.119,1,4,0,4,0,1,,,,,,,,,,,,,
6665fbef3202800c8227ce10,SCN,2024-06-21_13h47.28.826,LearnStrategy,2023.2.3,MacIntel,60.97560976,5,1,6,0.4096639,0.39026079,1,0,0,1.0979,Andesite_02,1,02,6,7,1.098,-0.349810927,-0.260123698,1,0,0,2.1348,Andesite_rect,1,2.135,1,5,0,5,0,1,,,,,,,,,,,,,
6665fbef3202800c8227ce10,SCN,2024-06-21_13h47.28.826,LearnStrategy,2023.2.3,MacIntel,60.97560976,5,1,7,-0.06422309,-0.265618693,1,0,0,0.8817,Basalt_02,2,02,2,4,0.882,-0.12367235,-0.255355157,1,0,0,2.4509,Basalt_rect,2,2.451,1,6,0,6,0,1,,,,,,,,,,,,,
6665fbef3202800c8227ce10,SCN,2024-06-21_13h47.28.826,LearnStrategy,2023.2.3,MacIntel,60.97560976,5,1,8,0.095180122,0.407815399,1,0,0,0.9655,Peridotite_08,7,08,6,5,0.966,-0.11974155,-0.395507406,1,0,0,1.3997,Pegmatite_rect,6,1.4,0,7,0,7,0,1,,,,,,,,,,,,,
6665fbef3202800c8227ce10,SCN,2024-06-21_13h47.28.826,LearnStrategy,2023.2.3,MacIntel,60.97560976,5,1,9,0.108212212,-0.289716322,1,0,0,0.7498,Pegmatite_10,6,10,2,5,0.75,-0.123525865,-0.413280233,1,0,0,0.6758,Pegmatite_rect,6,0.676,1,8,0,8,0,1,,,,,,,,,,,,,
6665fbef3202800c8227ce10,SCN,2024-06-21_13h47.28.826,LearnStrategy,2023.2.3,MacIntel,60.97560976,5,1,10,0.087173937,0.09417372,1,0,0,0.9317,Pumice_06,8,06,4,5,0.932,0.406842312,-0.392493422,1,0,0,0.7292,Pumice_rect,8,0.729,1,9,0,9,0,1,,,,,,,,,,,,,
6665fbef3202800c8227ce10,SCN,2024-06-21_13h47.28.826,LearnStrategy,2023.2.3,MacIntel,60.97560976,5,1,11,-0.413039449,0.224144999,1,0,0,0.9975,Obsidian_05,5,05,5,2,0.997,-0.343256361,-0.393340047,1,0,0,1.503,Obsidian_rect,5,1.503,1,10,0,10,0,1,,,,,,,,,,,,,
6665fbef3202800c8227ce10,SCN,2024-06-21_13h47.28.826,LearnStrategy,2023.2.3,MacIntel,60.97560976,5,1,12,0.42051256,-0.144605645,1,0,0,0.7669,Andesite_10,1,10,3,7,0.767,0.369210748,-0.413763699,1,0,0,1.2619,Pumice_rect,8,1.262,0,11,0,11,0,1,,,,,,,,,,,,,
6665fbef3202800c8227ce10,SCN,2024-06-21_13h47.28.826,LearnStrategy,2023.2.3,MacIntel,60.97560976,5,1,13,-0.208569811,-0.101837836,1,0,0,0.7663,Diorite_11,3,11,3,3,0.766,0.089929403,-0.234906006,1,0,0,0.9181,Diorite_rect,3,0.918,1,12,0,12,0,1,,,,,,,,,,,,,
6665fbef3202800c8227ce10,SCN,2024-06-21_13h47.28.826,LearnStrategy,2023.2.3,MacIntel,60.97560976,5,1,14,-0.123683404,-0.247299059,1,0,0,0.9989,Basalt_02,2,02,2,4,0.999,-0.371869778,-0.260646159,1,0,0,4.7792,Andesite_rect,1,4.779,0,13,0,13,0,1,,,,,,,,,,,,,
6665fbef3202800c8227ce10,SCN,2024-06-21_13h47.28.826,LearnStrategy,2023.2.3,MacIntel,60.97560976,5,1,15,0.262862888,-0.113857083,1,0,0,0.7638,Andesite_14,1,14,3,6,0.764,0.105665894,-0.269032728,1,0,0,2.8822,Diorite_rect,3,2.882,0,14,0,14,0,1,,,,,,,,,,,,,
6665fbef3202800c8227ce10,SCN,2024-06-21_13h47.28.826,LearnStrategy,2023.2.3,MacIntel,60.97560976,5,1,16,0.387080621,-0.244975179,1,0,0,0.8663,Basalt_09,2,09,2,7,0.866,-0.15893358,-0.259950426,1,0,0,2.2336,Basalt_rect,2,2.234,1,15,0,15,0,1,,,,,,,,,,,,,
6665fbef3202800c8227ce10,SCN,2024-06-21_13h47.28.826,LearnStrategy,2023.2.3,MacIntel,60.97560976,5,2,1,,,,,,,,7,07,,,,,,,,,,,7,1.63,1,,,,,,0.067178006,-0.402266235,1,0,0,1.6298,Peridotite_rect,0,0,0,0,1,
6665fbef3202800c8227ce10,SCN,2024-06-21_13h47.28.826,LearnStrategy,2023.2.3,MacIntel,60.97560976,5,2,2,,,,,,,,4,01,,,,,,,,,,,1,5.581,0,,,,,,-0.397930162,-0.252316488,1,0,0,5.5807,Andesite_rect,1,0,1,0,1,
6665fbef3202800c8227ce10,SCN,2024-06-21_13h47.28.826,LearnStrategy,2023.2.3,MacIntel,60.97560976,5,2,3,,,,,,,,6,16,,,,,,,,,,,6,2.251,1,,,,,,-0.128209568,-0.398002523,1,0,0,2.2506,Pegmatite_rect,2,0,2,0,1,
6665fbef3202800c8227ce10,SCN,2024-06-21_13h47.28.826,LearnStrategy,2023.2.3,MacIntel,60.97560976,5,2,4,,,,,,,,6,09,,,,,,,,,,,6,1.284,1,,,,,,-0.120842896,-0.391789347,1,0,0,1.2838,Pegmatite_rect,3,0,3,0,1,
6665fbef3202800c8227ce10,SCN,2024-06-21_13h47.28.826,LearnStrategy,2023.2.3,MacIntel,60.97560976,5,2,5,,,,,,,,8,13,,,,,,,,,,,8,2.218,1,,,,,,0.344886475,-0.393304715,1,0,0,2.2183,Pumice_rect,4,0,4,0,1,
6665fbef3202800c8227ce10,SCN,2024-06-21_13h47.28.826,LearnStrategy,2023.2.3,MacIntel,60.97560976,5,2,6,,,,,,,,1,04,,,,,,,,,,,1,1.144,1,,,,,,-0.362896559,-0.249883898,1,0,0,1.1445,Andesite_rect,5,0,5,0,1,
6665fbef3202800c8227ce10,SCN,2024-06-21_13h47.28.826,LearnStrategy,2023.2.3,MacIntel,60.97560976,5,2,7,,,,,,,,8,05,,,,,,,,,,,8,1.132,1,,,,,,0.39430325,-0.390243734,1,0,0,1.1321,Pumice_rect,6,0,6,0,1,
6665fbef3202800c8227ce10,SCN,2024-06-21_13h47.28.826,LearnStrategy,2023.2.3,MacIntel,60.97560976,5,2,8,,,,,,,,5,12,,,,,,,,,,,5,1.028,1,,,,,,-0.378471273,-0.410706245,1,0,0,1.0284,Obsidian_rect,7,0,7,0,1,
6665fbef3202800c8227ce10,SCN,2024-06-21_13h47.28.826,LearnStrategy,2023.2.3,MacIntel,60.97560976,5,2,9,,,,,,,,7,02,,,,,,,,,,,7,1.479,1,,,,,,0.137770521,-0.383884277,1,0,0,1.4789,Peridotite_rect,8,0,8,0,1,
6665fbef3202800c8227ce10,SCN,2024-06-21_13h47.28.826,LearnStrategy,2023.2.3,MacIntel,60.97560976,5,2,10,,,,,,,,2,05,,,,,,,,,,,2,1.098,1,,,,,,-0.09282959,-0.260109999,1,0,0,1.0977,Basalt_rect,9,0,9,0,1,
6665fbef3202800c8227ce10,SCN,2024-06-21_13h47.28.826,LearnStrategy,2023.2.3,MacIntel,60.97560976,5,2,11,,,,,,,,5,08,,,,,,,,,,,5,1.048,1,,,,,,-0.351239285,-0.397118259,1,0,0,1.0481,Obsidian_rect,10,0,10,0,1,
6665fbef3202800c8227ce10,SCN,2024-06-21_13h47.28.826,LearnStrategy,2023.2.3,MacIntel,60.97560976,5,2,12,,,,,,,,1,06,,,,,,,,,,,1,2.127,1,,,,,,-0.378324755,-0.252185126,1,0,0,2.1273,Andesite_rect,11,0,11,0,1,
6665fbef3202800c8227ce10,SCN,2024-06-21_13h47.28.826,LearnStrategy,2023.2.3,MacIntel,60.97560976,5,2,13,,,,,,,,4,03,,,,,,,,,,,3,4.821,0,,,,,,0.109845988,-0.248604058,1,0,0,4.8212,Diorite_rect,12,0,12,0,1,
6665fbef3202800c8227ce10,SCN,2024-06-21_13h47.28.826,LearnStrategy,2023.2.3,MacIntel,60.97560976,5,2,14,,,,,,,,2,11,,,,,,,,,,,4,4.818,0,,,,,,0.390045437,-0.266281535,1,0,0,4.8178,Gabbro_rect,13,0,13,0,1,
6665fbef3202800c8227ce10,SCN,2024-06-21_13h47.28.826,LearnStrategy,2023.2.3,MacIntel,60.97560976,5,2,15,,,,,,,,3,10,,,,,,,,,,,3,3.292,1,,,,,,0.106979302,-0.240694241,1,0,0,3.2922,Diorite_rect,14,0,14,0,1,
6665fbef3202800c8227ce10,SCN,2024-06-21_13h47.28.826,LearnStrategy,2023.2.3,MacIntel,60.97560976,5,2,16,,,,,,,,3,14,,,,,,,,,,,3,2.158,1,,,,,,0.124157579,-0.23433804,1,0,0,2.1578,Diorite_rect,15,0,15,0,1,
6665fbef3202800c8227ce10,SCN,2024-06-21_13h47.28.826,LearnStrategy,2023.2.3,MacIntel,60.97560976,6,1,1,-0.203922797,-0.101294827,1,0,0,0.9487,Diorite_11,3,11,3,3,0.949,0.110576647,-0.233674995,1,0,0,1.1196,Diorite_rect,3,1.12,1,0,0,0,0,1,,,,,,,,,,,,,
6665fbef3202800c8227ce10,SCN,2024-06-21_13h47.28.826,LearnStrategy,2023.2.3,MacIntel,60.97560976,6,1,2,0.238497789,-0.243107842,1,0,0,0.8523,Obsidian_06,5,06,2,6,0.852,-0.468624912,-0.409396905,1,0,0,0.7007,Obsidian_rect,5,0.701,1,1,0,1,0,1,,,,,,,,,,,,,
6665fbef3202800c8227ce10,SCN,2024-06-21_13h47.28.826,LearnStrategy,2023.2.3,MacIntel,60.97560976,6,1,3,0.41025038,-0.249073147,1,0,0,0.8496,Basalt_09,2,09,2,7,0.85,-0.18266059,-0.237903035,1,0,0,0.7222,Basalt_rect,2,0.722,1,2,0,2,0,1,,,,,,,,,,,,,
6665fbef3202800c8227ce10,SCN,2024-06-21_13h47.28.826,LearnStrategy,2023.2.3,MacIntel,60.97560976,6,1,4,-0.378266635,-0.100398627,1,0,0,0.9326,Pegmatite_08,6,08,3,2,0.933,-0.156119859,-0.421822578,1,0,0,1.4273,Pegmatite_rect,6,1.427,1,3,0,3,0,1,,,,,,,,,,,,,
6665fbef3202800c8227ce10,SCN,2024-06-21_13h47.28.826,LearnStrategy,2023.2.3,MacIntel,60.97560976,6,1,5,0.225497437,0.243629473,1,0,0,1.0151,Basalt_04,2,04,5,6,1.015,-0.15740092,-0.239593777,1,0,0,1.2486,Basalt_rect,2,1.249,1,4,0,4,0,1,,,,,,,,,,,,,
6665fbef3202800c8227ce10,SCN,2024-06-21_13h47.28.826,LearnStrategy,2023.2.3,MacIntel,60.97560976,6,1,6,0.405344238,0.257754635,1,0,0,0.9142,Peridotite_15,7,15,5,7,0.914,0.092945964,-0.419970161,1,0,0,1.1461,Peridotite_rect,7,1.146,1,5,0,5,0,1,,,,,,,,,,,,,
6665fbef3202800c8227ce10,SCN,2024-06-21_13h47.28.826,LearnStrategy,2023.2.3,MacIntel,60.97560976,6,1,7,-0.063026801,0.416075829,1,0,0,0.8322,Andesite_03,1,03,6,4,0.832,-0.361823018,-0.248380534,1,0,0,1.089,Andesite_rect,1,1.089,1,6,0,6,0,1,,,,,,,,,,,,,
6665fbef3202800c8227ce10,SCN,2024-06-21_13h47.28.826,LearnStrategy,2023.2.3,MacIntel,60.97560976,6,1,8,0.264624227,0.241361745,1,0,0,0.8993,Basalt_04,2,04,5,6,0.899,-0.128053114,-0.256427002,1,0,0,0.7325,Basalt_rect,2,0.732,1,7,0,7,0,1,,,,,,,,,,,,,
6665fbef3202800c8227ce10,SCN,2024-06-21_13h47.28.826,LearnStrategy,2023.2.3,MacIntel,60.97560976,6,1,9,0.402879367,0.062376879,1,0,0,0.6807,Peridotite_14,7,14,4,7,0.681,0.072536146,-0.418783976,1,0,0,1.9021,Peridotite_rect,7,1.902,1,8,0,8,0,1,,,,,,,,,,,,,
6665fbef3202800c8227ce10,SCN,2024-06-21_13h47.28.826,LearnStrategy,2023.2.3,MacIntel,60.97560976,6,1,10,-0.068349881,0.104274801,1,0,0,0.9967,Obsidian_10,5,10,4,4,0.997,-0.406450263,-0.400336778,1,0,0,0.8357,Obsidian_rect,5,0.836,1,9,0,9,0,1,,,,,,,,,,,,,
6665fbef3202800c8227ce10,SCN,2024-06-21_13h47.28.826,LearnStrategy,2023.2.3,MacIntel,60.97560976,6,1,11,-0.381327515,-0.393182983,1,0,0,0.8632,Pumice_14,8,14,1,2,0.863,0.316794366,-0.401105821,1,0,0,1.3491,Pumice_rect,8,1.349,1,10,0,10,0,1,,,,,,,,,,,,,
6665fbef3202800c8227ce10,SCN,2024-06-21_13h47.28.826,LearnStrategy,2023.2.3,MacIntel,60.97560976,6,1,12,0.24544142,0.100969103,1,0,0,0.9317,Peridotite_16,7,16,4,6,0.932,0.107133111,-0.412574327,1,0,0,2.4899,Peridotite_rect,7,2.49,1,11,0,11,0,1,,,,,,,,,,,,,
6665fbef3202800c8227ce10,SCN,2024-06-21_13h47.28.826,LearnStrategy,2023.2.3,MacIntel,60.97560976,6,1,13,0.576543783,0.101048652,1,0,0,1.2314,Gabbro_05,4,05,4,8,1.231,0.377048069,-0.251318224,1,0,0,0.9377,Gabbro_rect,4,0.938,1,12,0,12,0,1,,,,,,,,,,,,,
6665fbef3202800c8227ce10,SCN,2024-06-21_13h47.28.826,LearnStrategy,2023.2.3,MacIntel,60.97560976,6,1,14,-0.406874152,0.391019999,1,0,0,1.2656,Pegmatite_11,6,11,6,2,1.266,-0.156718479,-0.404512465,1,0,0,1.2515,Pegmatite_rect,6,1.251,1,13,0,13,0,1,,,,,,,,,,,,,
6665fbef3202800c8227ce10,SCN,2024-06-21_13h47.28.826,LearnStrategy,2023.2.3,MacIntel,60.97560976,6,1,15,-0.055745578,0.250450321,1,0,0,1.2159,Diorite_07,3,07,5,4,1.216,0.115452474,-0.236362169,1,0,0,0.7721,Diorite_rect,3,0.772,1,14,0,14,0,1,,,,,,,,,,,,,
6665fbef3202800c8227ce10,SCN,2024-06-21_13h47.28.826,LearnStrategy,2023.2.3,MacIntel,60.97560976,6,1,16,-0.397743395,0.245153503,1,0,0,1.2307,Obsidian_05,5,05,5,2,1.231,-0.39768809,-0.410914374,1,0,0,0.8727,Obsidian_rect,5,0.873,1,15,0,15,0,1,,,,,,,,,,,,,
6665fbef3202800c8227ce10,SCN,2024-06-21_13h47.28.826,LearnStrategy,2023.2.3,MacIntel,60.97560976,6,2,1,,,,,,,,2,01,,,,,,,,,,,2,1.929,1,,,,,,-0.19608039,-0.250254924,1,0,0,1.929,Basalt_rect,0,0,0,0,1,
6665fbef3202800c8227ce10,SCN,2024-06-21_13h47.28.826,LearnStrategy,2023.2.3,MacIntel,60.97560976,6,2,2,,,,,,,,1,07,,,,,,,,,,,1,4.311,1,,,,,,-0.376019864,-0.243198039,1,0,0,4.3108,Andesite_rect,1,0,1,0,1,
6665fbef3202800c8227ce10,SCN,2024-06-21_13h47.28.826,LearnStrategy,2023.2.3,MacIntel,60.97560976,6,2,3,,,,,,,,5,14,,,,,,,,,,,5,1.016,1,,,,,,-0.365378791,-0.401295573,1,0,0,1.0163,Obsidian_rect,2,0,2,0,1,
6665fbef3202800c8227ce10,SCN,2024-06-21_13h47.28.826,LearnStrategy,2023.2.3,MacIntel,60.97560976,6,2,4,,,,,,,,4,13,,,,,,,,,,,4,1.749,1,,,,,,0.344384223,-0.244523926,1,0,0,1.7494,Gabbro_rect,3,0,3,0,1,
6665fbef3202800c8227ce10,SCN,2024-06-21_13h47.28.826,LearnStrategy,2023.2.3,MacIntel,60.97560976,6,2,5,,,,,,,,8,08,,,,,,,,,,,8,1.811,1,,,,,,0.353462185,-0.390908135,1,0,0,1.8105,Pumice_rect,4,0,4,0,1,
6665fbef3202800c8227ce10,SCN,2024-06-21_13h47.28.826,LearnStrategy,2023.2.3,MacIntel,60.97560976,6,2,6,,,,,,,,7,04,,,,,,,,,,,6,1.105,0,,,,,,-0.092743056,-0.402834405,1,0,0,1.1049,Pegmatite_rect,5,0,5,0,1,
6665fbef3202800c8227ce10,SCN,2024-06-21_13h47.28.826,LearnStrategy,2023.2.3,MacIntel,60.97560976,6,2,7,,,,,,,,7,13,,,,,,,,,,,7,0.977,1,,,,,,0.143258124,-0.409026015,1,0,0,0.9769,Peridotite_rect,6,0,6,0,1,
6665fbef3202800c8227ce10,SCN,2024-06-21_13h47.28.826,LearnStrategy,2023.2.3,MacIntel,60.97560976,6,2,8,,,,,,,,3,08,,,,,,,,,,,3,1.653,1,,,,,,0.12200236,-0.269222141,1,0,0,1.6526,Diorite_rect,7,0,7,0,1,
6665fbef3202800c8227ce10,SCN,2024-06-21_13h47.28.826,LearnStrategy,2023.2.3,MacIntel,60.97560976,6,2,9,,,,,,,,1,05,,,,,,,,,,,1,3.281,1,,,,,,-0.317229411,-0.261269396,1,0,0,3.2813,Andesite_rect,8,0,8,0,1,
6665fbef3202800c8227ce10,SCN,2024-06-21_13h47.28.826,LearnStrategy,2023.2.3,MacIntel,60.97560976,6,2,10,,,,,,,,5,07,,,,,,,,,,,5,1.306,1,,,,,,-0.337194316,-0.380716417,1,0,0,1.3058,Obsidian_rect,9,0,9,0,1,
6665fbef3202800c8227ce10,SCN,2024-06-21_13h47.28.826,LearnStrategy,2023.2.3,MacIntel,60.97560976,6,2,11,,,,,,,,3,13,,,,,,,,,,,3,1.281,1,,,,,,0.110311347,-0.257380235,1,0,0,1.2812,Diorite_rect,10,0,10,0,1,
6665fbef3202800c8227ce10,SCN,2024-06-21_13h47.28.826,LearnStrategy,2023.2.3,MacIntel,60.97560976,6,2,12,,,,,,,,2,08,,,,,,,,,,,2,1.014,1,,,,,,-0.089656643,-0.256560126,1,0,0,1.0144,Basalt_rect,11,0,11,0,1,
6665fbef3202800c8227ce10,SCN,2024-06-21_13h47.28.826,LearnStrategy,2023.2.3,MacIntel,60.97560976,6,2,13,,,,,,,,8,02,,,,,,,,,,,8,1.809,1,,,,,,0.377084012,-0.411013658,1,0,0,1.8092,Pumice_rect,12,0,12,0,1,
6665fbef3202800c8227ce10,SCN,2024-06-21_13h47.28.826,LearnStrategy,2023.2.3,MacIntel,60.97560976,6,2,14,,,,,,,,6,13,,,,,,,,,,,6,1.503,1,,,,,,-0.16450297,-0.406955024,1,0,0,1.5035,Pegmatite_rect,13,0,13,0,1,
6665fbef3202800c8227ce10,SCN,2024-06-21_13h47.28.826,LearnStrategy,2023.2.3,MacIntel,60.97560976,6,2,15,,,,,,,,6,15,,,,,,,,,,,6,0.998,1,,,,,,-0.16450297,-0.406955024,1,0,0,0.9976,Pegmatite_rect,14,0,14,0,1,
6665fbef3202800c8227ce10,SCN,2024-06-21_13h47.28.826,LearnStrategy,2023.2.3,MacIntel,60.97560976,6,2,16,,,,,,,,4,11,,,,,,,,,,,2,8.029,0,,,,,,-0.181772393,-0.241876628,1,0,0,8.0286,Basalt_rect,15,0,15,0,1,
6665fbef3202800c8227ce10,SCN,2024-06-21_13h47.28.826,LearnStrategy,2023.2.3,MacIntel,60.97560976,7,1,1,0.39151964,-0.269296129,1,0,0,0.7812,Basalt_09,2,09,2,7,0.781,-0.340840318,-0.260264418,1,0,0,1.3564,Andesite_rect,1,1.356,0,0,0,0,0,1,,,,,,,,,,,,,
6665fbef3202800c8227ce10,SCN,2024-06-21_13h47.28.826,LearnStrategy,2023.2.3,MacIntel,60.97560976,7,1,2,-0.111190999,-0.121496107,1,0,0,0.6152,Peridotite_10,7,10,3,4,0.615,-0.138842163,-0.231059028,1,0,0,0.4824,Basalt_rect,2,0.482,0,1,0,1,0,1,,,,,,,,,,,,,
6665fbef3202800c8227ce10,SCN,2024-06-21_13h47.28.826,LearnStrategy,2023.2.3,MacIntel,60.97560976,7,1,3,0.066681383,0.0962736,1,0,0,0.8147,Pumice_06,8,06,4,5,0.815,0.373632677,-0.382090658,1,0,0,0.9038,Pumice_rect,8,0.904,1,2,0,2,0,1,,,,,,,,,,,,,
6665fbef3202800c8227ce10,SCN,2024-06-21_13h47.28.826,LearnStrategy,2023.2.3,MacIntel,60.97560976,7,1,4,-0.084298028,0.088715278,1,0,0,0.6792,Obsidian_10,5,10,4,4,0.679,-0.40429206,-0.402195638,1,0,0,0.6814,Obsidian_rect,5,0.681,1,3,0,3,0,1,,,,,,,,,,,,,
6665fbef3202800c8227ce10,SCN,2024-06-21_13h47.28.826,LearnStrategy,2023.2.3,MacIntel,60.97560976,7,1,5,0.062239176,-0.384408637,1,0,0,0.7467,Pegmatite_06,6,06,1,5,0.747,-0.191084527,-0.418037448,1,0,0,2.0272,Pegmatite_rect,6,2.027,1,4,0,4,0,1,,,,,,,,,,,,,
6665fbef3202800c8227ce10,SCN,2024-06-21_13h47.28.826,LearnStrategy,2023.2.3,MacIntel,60.97560976,7,1,6,0.22720025,0.376097904,1,0,0,1.9986,Gabbro_08,4,08,6,6,1.999,0.366306152,-0.256399875,1,0,0,1.2413,Gabbro_rect,4,1.241,1,5,0,5,0,1,,,,,,,,,,,,,
6665fbef3202800c8227ce10,SCN,2024-06-21_13h47.28.826,LearnStrategy,2023.2.3,MacIntel,60.97560976,7,1,7,0.247450901,-0.40403049,1,0,0,0.7656,Gabbro_15,4,15,1,6,0.766,0.386072727,-0.267651028,1,0,0,1.2542,Gabbro_rect,4,1.254,1,6,0,6,0,1,,,,,,,,,,,,,
6665fbef3202800c8227ce10,SCN,2024-06-21_13h47.28.826,LearnStrategy,2023.2.3,MacIntel,60.97560976,7,1,8,-0.221316461,-0.272721897,1,0,0,1.0971,Pumice_15,8,15,2,3,1.097,0.403305664,-0.396056112,1,0,0,0.7375,Pumice_rect,8,0.737,1,7,0,7,0,1,,,,,,,,,,,,,
6665fbef3202800c8227ce10,SCN,2024-06-21_13h47.28.826,LearnStrategy,2023.2.3,MacIntel,60.97560976,7,1,9,0.547326389,-0.094543932,1,0,0,0.9635,Peridotite_05,7,05,3,8,0.963,0.11809767,-0.406965264,1,0,0,2.4687,Peridotite_rect,7,2.469,1,8,0,8,0,1,,,,,,,,,,,,,
6665fbef3202800c8227ce10,SCN,2024-06-21_13h47.28.826,LearnStrategy,2023.2.3,MacIntel,60.97560976,7,1,10,-0.213205295,-0.072427233,1,0,0,0.7484,Diorite_11,3,11,3,3,0.748,0.167017212,-0.266096327,1,0,0,0.8686,Diorite_rect,3,0.869,1,9,0,9,0,1,,,,,,,,,,,,,
6665fbef3202800c8227ce10,SCN,2024-06-21_13h47.28.826,LearnStrategy,2023.2.3,MacIntel,60.97560976,7,1,11,0.216809625,-0.409886814,1,0,0,0.7634,Gabbro_15,4,15,1,6,0.763,0.400774468,-0.25478068,1,0,0,1.2469,Gabbro_rect,4,1.247,1,10,0,10,0,1,,,,,,,,,,,,,
6665fbef3202800c8227ce10,SCN,2024-06-21_13h47.28.826,LearnStrategy,2023.2.3,MacIntel,60.97560976,7,1,12,-0.242926907,0.078808187,1,0,0,0.7974,Andesite_09,1,09,4,3,0.797,-0.173197564,-0.229592217,1,0,0,0.7182,Basalt_rect,2,0.718,0,11,0,11,0,1,,,,,,,,,,,,,
6665fbef3202800c8227ce10,SCN,2024-06-21_13h47.28.826,LearnStrategy,2023.2.3,MacIntel,60.97560976,7,1,13,-0.562114292,-0.10271715,1,0,0,0.8303,Diorite_09,3,09,3,1,0.83,0.123159993,-0.26577223,1,0,0,0.9243,Diorite_rect,3,0.924,1,12,0,12,0,1,,,,,,,,,,,,,
6665fbef3202800c8227ce10,SCN,2024-06-21_13h47.28.826,LearnStrategy,2023.2.3,MacIntel,60.97560976,7,1,14,0.361752252,0.057589349,1,0,0,0.6818,Peridotite_14,7,14,4,7,0.682,0.094727173,-0.395782132,1,0,0,1.5075,Peridotite_rect,7,1.508,1,13,0,13,0,1,,,,,,,,,,,,,
6665fbef3202800c8227ce10,SCN,2024-06-21_13h47.28.826,LearnStrategy,2023.2.3,MacIntel,60.97560976,7,1,15,-0.384702488,0.27467141,1,0,0,1.6321,Obsidian_05,5,05,5,2,1.632,-0.349613308,-0.399092678,1,0,0,0.6349,Obsidian_rect,5,0.635,1,14,0,14,0,1,,,,,,,,,,,,,
6665fbef3202800c8227ce10,SCN,2024-06-21_13h47.28.826,LearnStrategy,2023.2.3,MacIntel,60.97560976,7,1,16,-0.115045573,-0.409647352,1,0,0,0.9476,Pumice_10,8,10,1,4,0.948,0.404872097,-0.415212741,1,0,0,0.8861,Pumice_rect,8,0.886,1,15,0,15,0,1,,,,,,,,,,,,,
6665fbef3202800c8227ce10,SCN,2024-06-21_13h47.28.826,LearnStrategy,2023.2.3,MacIntel,60.97560976,7,2,1,,,,,,,,6,09,,,,,,,,,,,6,1.418,1,,,,,,-0.18651062,-0.415777045,1,0,0,1.4176,Pegmatite_rect,0,0,0,0,1,
6665fbef3202800c8227ce10,SCN,2024-06-21_13h47.28.826,LearnStrategy,2023.2.3,MacIntel,60.97560976,7,2,2,,,,,,,,5,16,,,,,,,,,,,5,1.696,1,,,,,,-0.346208327,-0.414808553,1,0,0,1.6963,Obsidian_rect,1,0,1,0,1,
6665fbef3202800c8227ce10,SCN,2024-06-21_13h47.28.826,LearnStrategy,2023.2.3,MacIntel,60.97560976,7,2,3,,,,,,,,2,16,,,,,,,,,,,4,4.463,0,,,,,,0.344754096,-0.250674642,1,0,0,4.4628,Gabbro_rect,2,0,2,0,1,
6665fbef3202800c8227ce10,SCN,2024-06-21_13h47.28.826,LearnStrategy,2023.2.3,MacIntel,60.97560976,7,2,4,,,,,,,,4,09,,,,,,,,,,,2,6.1,0,,,,,,-0.151383938,-0.256658529,1,0,0,6.0995,Basalt_rect,3,0,3,0,1,
6665fbef3202800c8227ce10,SCN,2024-06-21_13h47.28.826,LearnStrategy,2023.2.3,MacIntel,60.97560976,7,2,5,,,,,,,,7,12,,,,,,,,,,,7,1.684,1,,,,,,0.101797892,-0.414816352,1,0,0,1.6843,Peridotite_rect,4,0,4,0,1,
6665fbef3202800c8227ce10,SCN,2024-06-21_13h47.28.826,LearnStrategy,2023.2.3,MacIntel,60.97560976,7,2,6,,,,,,,,3,14,,,,,,,,,,,3,0.953,1,,,,,,0.121314697,-0.261828139,1,0,0,0.9535,Diorite_rect,5,0,5,0,1,
6665fbef3202800c8227ce10,SCN,2024-06-21_13h47.28.826,LearnStrategy,2023.2.3,MacIntel,60.97560976,7,2,7,,,,,,,,4,14,,,,,,,,,,,4,1.058,1,,,,,,0.329686347,-0.2559316,1,0,0,1.0576,Gabbro_rect,6,0,6,0,1,
6665fbef3202800c8227ce10,SCN,2024-06-21_13h47.28.826,LearnStrategy,2023.2.3,MacIntel,60.97560976,7,2,8,,,,,,,,8,04,,,,,,,,,,,8,0.952,1,,,,,,0.370624051,-0.398630303,1,0,0,0.9523,Pumice_rect,7,0,7,0,1,
6665fbef3202800c8227ce10,SCN,2024-06-21_13h47.28.826,LearnStrategy,2023.2.3,MacIntel,60.97560976,7,2,9,,,,,,,,1,01,,,,,,,,,,,2,5.18,0,,,,,,-0.140293511,-0.251853841,1,0,0,5.1797,Basalt_rect,8,0,8,0,1,
6665fbef3202800c8227ce10,SCN,2024-06-21_13h47.28.826,LearnStrategy,2023.2.3,MacIntel,60.97560976,7,2,10,,,,,,,,3,10,,,,,,,,,,,1,3.812,0,,,,,,-0.438167487,-0.257149048,1,0,0,3.8121,Andesite_rect,9,0,9,0,1,
6665fbef3202800c8227ce10,SCN,2024-06-21_13h47.28.826,LearnStrategy,2023.2.3,MacIntel,60.97560976,7,2,11,,,,,,,,7,07,,,,,,,,,,,7,3.189,1,,,,,,0.122819146,-0.408362088,1,0,0,3.1889,Peridotite_rect,10,0,10,0,1,
6665fbef3202800c8227ce10,SCN,2024-06-21_13h47.28.826,LearnStrategy,2023.2.3,MacIntel,60.97560976,7,2,12,,,,,,,,2,05,,,,,,,,,,,2,2.057,1,,,,,,-0.140661892,-0.260774468,1,0,0,2.0572,Basalt_rect,11,0,11,0,1,
6665fbef3202800c8227ce10,SCN,2024-06-21_13h47.28.826,LearnStrategy,2023.2.3,MacIntel,60.97560976,7,2,13,,,,,,,,8,08,,,,,,,,,,,8,1.691,1,,,,,,0.354899495,-0.396483493,1,0,0,1.6907,Pumice_rect,12,0,12,0,1,
6665fbef3202800c8227ce10,SCN,2024-06-21_13h47.28.826,LearnStrategy,2023.2.3,MacIntel,60.97560976,7,2,14,,,,,,,,1,04,,,,,,,,,,,1,2.032,1,,,,,,-0.403615655,-0.246881443,1,0,0,2.0316,Andesite_rect,13,0,13,0,1,
6665fbef3202800c8227ce10,SCN,2024-06-21_13h47.28.826,LearnStrategy,2023.2.3,MacIntel,60.97560976,7,2,15,,,,,,,,5,08,,,,,,,,,,,5,0.897,1,,,,,,-0.364579773,-0.415045437,1,0,0,0.8965,Obsidian_rect,14,0,14,0,1,
6665fbef3202800c8227ce10,SCN,2024-06-21_13h47.28.826,LearnStrategy,2023.2.3,MacIntel,60.97560976,7,2,16,,,,,,,,6,05,,,,,,,,,,,6,1.656,1,,,,,,-0.155392795,-0.412740343,1,0,0,1.6561,Pegmatite_rect,15,0,15,0,1,
6665fbef3202800c8227ce10,SCN,2024-06-21_13h47.28.826,LearnStrategy,2023.2.3,MacIntel,60.97560976,8,1,1,0.393733588,-0.120796577,1,0,0,1.0162,Andesite_10,1,10,3,7,1.016,0.352475586,-0.386621297,1,0,0,3.4397,Pumice_rect,8,3.44,0,0,0,0,0,1,,,,,,,,,,,,,
6665fbef3202800c8227ce10,SCN,2024-06-21_13h47.28.826,LearnStrategy,2023.2.3,MacIntel,60.97560976,8,1,2,0.072983127,0.070597229,1,0,0,0.6325,Pumice_06,8,06,4,5,0.633,0.357559272,-0.397773098,1,0,0,0.6833,Pumice_rect,8,0.683,1,1,0,1,0,1,,,,,,,,,,,,,
6665fbef3202800c8227ce10,SCN,2024-06-21_13h47.28.826,LearnStrategy,2023.2.3,MacIntel,60.97560976,8,1,3,0.379445801,0.234772254,1,0,0,0.713,Peridotite_15,7,15,5,7,0.713,0.068192952,-0.396407539,1,0,0,0.8397,Peridotite_rect,7,0.84,1,2,0,2,0,1,,,,,,,,,,,,,
6665fbef3202800c8227ce10,SCN,2024-06-21_13h47.28.826,LearnStrategy,2023.2.3,MacIntel,60.97560976,8,1,4,0.58969496,0.095846151,1,0,0,0.8464,Gabbro_05,4,05,4,8,0.846,0.351489529,-0.243914252,1,0,0,3.679,Gabbro_rect,4,3.679,1,3,0,3,0,1,,,,,,,,,,,,,
6665fbef3202800c8227ce10,SCN,2024-06-21_13h47.28.826,LearnStrategy,2023.2.3,MacIntel,60.97560976,8,1,5,-0.27983568,0.261989475,1,0,0,0.9288,Diorite_12,3,12,5,3,0.929,0.08330363,-0.236113146,1,0,0,1.0217,Diorite_rect,3,1.022,1,4,0,4,0,1,,,,,,,,,,,,,
6665fbef3202800c8227ce10,SCN,2024-06-21_13h47.28.826,LearnStrategy,2023.2.3,MacIntel,60.97560976,8,1,6,0.09033705,-0.253219265,1,0,0,0.7125,Pegmatite_10,6,10,2,5,0.712,-0.126688572,-0.420549723,1,0,0,0.558,Pegmatite_rect,6,0.558,1,5,0,5,0,1,,,,,,,,,,,,,
6665fbef3202800c8227ce10,SCN,2024-06-21_13h47.28.826,LearnStrategy,2023.2.3,MacIntel,60.97560976,8,1,7,0.257527601,-0.410606079,1,0,0,0.7313,Gabbro_15,4,15,1,6,0.731,0.136535305,-0.25425415,1,0,0,1.1041,Diorite_rect,3,1.104,0,6,0,6,0,1,,,,,,,,,,,,,
6665fbef3202800c8227ce10,SCN,2024-06-21_13h47.28.826,LearnStrategy,2023.2.3,MacIntel,60.97560976,8,1,8,-0.285443624,0.103804321,1,0,0,0.7472,Andesite_09,1,09,4,3,0.747,-0.401693726,-0.247323676,1,0,0,0.9225,Andesite_rect,1,0.922,1,7,0,7,0,1,,,,,,,,,,,,,
6665fbef3202800c8227ce10,SCN,2024-06-21_13h47.28.826,LearnStrategy,2023.2.3,MacIntel,60.97560976,8,1,9,0.096843397,-0.436945869,1,0,0,0.8984,Pegmatite_06,6,06,1,5,0.898,-0.327710639,-0.41130995,1,0,0,1.4465,Obsidian_rect,5,1.447,0,8,0,8,0,1,,,,,,,,,,,,,
6665fbef3202800c8227ce10,SCN,2024-06-21_13h47.28.826,LearnStrategy,2023.2.3,MacIntel,60.97560976,8,1,10,0.249651625,-0.140342,1,0,0,0.7478,Andesite_14,1,14,3,6,0.748,-0.311097751,-0.247642754,1,0,0,1.486,Andesite_rect,1,1.486,1,9,0,9,0,1,,,,,,,,,,,,,
6665fbef3202800c8227ce10,SCN,2024-06-21_13h47.28.826,LearnStrategy,2023.2.3,MacIntel,60.97560976,8,1,11,0.229636298,0.067153117,1,0,0,0.6643,Peridotite_16,7,16,4,6,0.664,0.080735677,-0.405134752,1,0,0,1.552,Peridotite_rect,7,1.552,1,10,0,10,0,1,,,,,,,,,,,,,
6665fbef3202800c8227ce10,SCN,2024-06-21_13h47.28.826,LearnStrategy,2023.2.3,MacIntel,60.97560976,8,1,12,0.247443373,-0.392552694,1,0,0,0.882,Gabbro_15,4,15,1,6,0.882,0.366692708,-0.269985758,1,0,0,0.6072,Gabbro_rect,4,0.607,1,11,0,11,0,1,,,,,,,,,,,,,
6665fbef3202800c8227ce10,SCN,2024-06-21_13h47.28.826,LearnStrategy,2023.2.3,MacIntel,60.97560976,8,1,13,-0.130680881,-0.409690755,1,0,0,0.9497,Pumice_10,8,10,1,4,0.95,0.447736952,-0.40751336,1,0,0,0.6329,Pumice_rect,8,0.633,1,12,0,12,0,1,,,,,,,,,,,,,
6665fbef3202800c8227ce10,SCN,2024-06-21_13h47.28.826,LearnStrategy,2023.2.3,MacIntel,60.97560976,8,1,14,0.402274034,-0.427241414,1,0,0,0.9654,Andesite_11,1,11,1,7,0.965,-0.354973755,-0.228384535,1,0,0,0.7886,Andesite_rect,1,0.789,1,13,0,13,0,1,,,,,,,,,,,,,
6665fbef3202800c8227ce10,SCN,2024-06-21_13h47.28.826,LearnStrategy,2023.2.3,MacIntel,60.97560976,8,1,15,0.551753879,-0.295707397,1,0,0,1.0484,Gabbro_10,4,10,2,8,1.048,-0.124331055,-0.257289429,1,0,0,0.9295,Basalt_rect,2,0.929,0,14,0,14,0,1,,,,,,,,,,,,,
6665fbef3202800c8227ce10,SCN,2024-06-21_13h47.28.826,LearnStrategy,2023.2.3,MacIntel,60.97560976,8,1,16,-0.538866713,-0.277316488,1,0,0,0.8661,Obsidian_09,5,09,2,1,0.866,-0.33744534,-0.392114326,1,0,0,0.6721,Obsidian_rect,5,0.672,1,15,0,15,0,1,,,,,,,,,,,,,
6665fbef3202800c8227ce10,SCN,2024-06-21_13h47.28.826,LearnStrategy,2023.2.3,MacIntel,60.97560976,8,2,1,,,,,,,,2,01,,,,,,,,,,,2,4.749,1,,,,,,-0.121970486,-0.253599786,1,0,0,4.7494,Basalt_rect,0,0,0,0,1,
6665fbef3202800c8227ce10,SCN,2024-06-21_13h47.28.826,LearnStrategy,2023.2.3,MacIntel,60.97560976,8,2,2,,,,,,,,1,07,,,,,,,,,,,3,3.254,0,,,,,,0.137920397,-0.249783664,1,0,0,3.2543,Diorite_rect,1,0,1,0,1,
6665fbef3202800c8227ce10,SCN,2024-06-21_13h47.28.826,LearnStrategy,2023.2.3,MacIntel,60.97560976,8,2,3,,,,,,,,3,13,,,,,,,,,,,3,1.16,1,,,,,,0.137920397,-0.249783664,1,0,0,1.1603,Diorite_rect,2,0,2,0,1,
6665fbef3202800c8227ce10,SCN,2024-06-21_13h47.28.826,LearnStrategy,2023.2.3,MacIntel,60.97560976,8,2,4,,,,,,,,4,03,,,,,,,,,,,1,3.096,0,,,,,,-0.358933512,-0.262257351,1,0,0,3.0959,Andesite_rect,3,0,3,0,1,
6665fbef3202800c8227ce10,SCN,2024-06-21_13h47.28.826,LearnStrategy,2023.2.3,MacIntel,60.97560976,8,2,5,,,,,,,,2,08,,,,,,,,,,,5,1.373,0,,,,,,-0.411605259,-0.396746012,1,0,0,1.3728,Obsidian_rect,4,0,4,0,1,
6665fbef3202800c8227ce10,SCN,2024-06-21_13h47.28.826,LearnStrategy,2023.2.3,MacIntel,60.97560976,8,2,6,,,,,,,,1,16,,,,,,,,,,,1,3.546,1,,,,,,-0.346353251,-0.247255046,1,0,0,3.5461,Andesite_rect,5,0,5,0,1,
6665fbef3202800c8227ce10,SCN,2024-06-21_13h47.28.826,LearnStrategy,2023.2.3,MacIntel,60.97560976,8,2,7,,,,,,,,8,03,,,,,,,,,,,8,1.013,1,,,,,,0.404173313,-0.389782308,1,0,0,1.0129,Pumice_rect,6,0,6,0,1,
6665fbef3202800c8227ce10,SCN,2024-06-21_13h47.28.826,LearnStrategy,2023.2.3,MacIntel,60.97560976,8,2,8,,,,,,,,3,08,,,,,,,,,,,3,0.999,1,,,,,,0.117159966,-0.255699395,1,0,0,0.9986,Diorite_rect,7,0,7,0,1,
6665fbef3202800c8227ce10,SCN,2024-06-21_13h47.28.826,LearnStrategy,2023.2.3,MacIntel,60.97560976,8,2,9,,,,,,,,6,15,,,,,,,,,,,6,1.046,1,,,,,,-0.104700521,-0.419625176,1,0,0,1.0462,Pegmatite_rect,8,0,8,0,1,
6665fbef3202800c8227ce10,SCN,2024-06-21_13h47.28.826,LearnStrategy,2023.2.3,MacIntel,60.97560976,8,2,10,,,,,,,,7,04,,,,,,,,,,,7,1.096,1,,,,,,0.081196899,-0.406622043,1,0,0,1.0957,Peridotite_rect,9,0,9,0,1,
6665fbef3202800c8227ce10,SCN,2024-06-21_13h47.28.826,LearnStrategy,2023.2.3,MacIntel,60.97560976,8,2,11,,,,,,,,6,12,,,,,,,,,,,6,1.034,1,,,,,,-0.056330499,-0.41414917,1,0,0,1.0338,Pegmatite_rect,10,0,10,0,1,
6665fbef3202800c8227ce10,SCN,2024-06-21_13h47.28.826,LearnStrategy,2023.2.3,MacIntel,60.97560976,8,2,12,,,,,,,,5,14,,,,,,,,,,,5,1.074,1,,,,,,-0.324498969,-0.403070068,1,0,0,1.0742,Obsidian_rect,11,0,11,0,1,
6665fbef3202800c8227ce10,SCN,2024-06-21_13h47.28.826,LearnStrategy,2023.2.3,MacIntel,60.97560976,8,2,13,,,,,,,,7,02,,,,,,,,,,,7,1.721,1,,,,,,0.124090305,-0.40446974,1,0,0,1.7212,Peridotite_rect,12,0,12,0,1,
6665fbef3202800c8227ce10,SCN,2024-06-21_13h47.28.826,LearnStrategy,2023.2.3,MacIntel,60.97560976,8,2,14,,,,,,,,4,01,,,,,,,,,,,1,4.511,0,,,,,,-0.361879035,-0.250315959,1,0,0,4.5113,Andesite_rect,13,0,13,0,1,
6665fbef3202800c8227ce10,SCN,2024-06-21_13h47.28.826,LearnStrategy,2023.2.3,MacIntel,60.97560976,8,2,15,,,,,,,,8,05,,,,,,,,,,,8,1.139,1,,,,,,0.414530843,-0.413330282,1,0,0,1.1391,Pumice_rect,14,0,14,0,1,
6665fbef3202800c8227ce10,SCN,2024-06-21_13h47.28.826,LearnStrategy,2023.2.3,MacIntel,60.97560976,8,2,16,,,,,,,,5,02,,,,,,,,,,,5,1.063,1,,,,,,-0.39507938,-0.406687147,1,0,0,1.0633,Obsidian_rect,15,0,15,0,1,
6665fbef3202800c8227ce10,SCN,2024-06-21_13h47.28.826,LearnStrategy,2023.2.3,MacIntel,60.97560976,9,1,1,-0.085447116,0.130111627,1,0,0,0.6979,Obsidian_10,5,10,4,4,0.698,-0.363430006,-0.413347778,1,0,0,0.8025,Obsidian_rect,5,0.803,1,0,0,0,0,1,,,,,,,,,,,,,
6665fbef3202800c8227ce10,SCN,2024-06-21_13h47.28.826,LearnStrategy,2023.2.3,MacIntel,60.97560976,9,1,2,0.130189277,0.112662354,1,0,0,0.5141,Pumice_06,8,06,4,5,0.514,0.369523519,-0.39967258,1,0,0,0.7174,Pumice_rect,8,0.717,1,1,0,1,0,1,,,,,,,,,,,,,
6665fbef3202800c8227ce10,SCN,2024-06-21_13h47.28.826,LearnStrategy,2023.2.3,MacIntel,60.97560976,9,1,3,0.2476985,0.089473131,1,0,0,0.5996,Peridotite_16,7,16,4,6,0.6,0.13817159,-0.398035414,1,0,0,0.5693,Peridotite_rect,7,0.569,1,2,0,2,0,1,,,,,,,,,,,,,
6665fbef3202800c8227ce10,SCN,2024-06-21_13h47.28.826,LearnStrategy,2023.2.3,MacIntel,60.97560976,9,1,4,0.418849284,0.055323792,1,0,0,0.5988,Peridotite_14,7,14,4,7,0.599,0.102176107,-0.391339993,1,0,0,1.2837,Peridotite_rect,7,1.284,1,3,0,3,0,1,,,,,,,,,,,,,
6665fbef3202800c8227ce10,SCN,2024-06-21_13h47.28.826,LearnStrategy,2023.2.3,MacIntel,60.97560976,9,1,5,0.502791612,0.088716125,1,0,0,0.7813,Gabbro_05,4,05,4,8,0.781,0.343755832,-0.255084771,1,0,0,1.9486,Gabbro_rect,4,1.949,1,4,0,4,0,1,,,,,,,,,,,,,
6665fbef3202800c8227ce10,SCN,2024-06-21_13h47.28.826,LearnStrategy,2023.2.3,MacIntel,60.97560976,9,1,6,-0.556899923,-0.112117445,1,0,0,0.8802,Diorite_09,3,09,3,1,0.88,0.135482924,-0.268160875,1,0,0,2.0023,Diorite_rect,3,2.002,1,5,0,5,0,1,,,,,,,,,,,,,
6665fbef3202800c8227ce10,SCN,2024-06-21_13h47.28.826,LearnStrategy,2023.2.3,MacIntel,60.97560976,9,1,7,-0.372861328,-0.092029012,1,0,0,0.7128,Pegmatite_08,6,08,3,2,0.713,-0.161159329,-0.411716715,1,0,0,0.6229,Pegmatite_rect,6,0.623,1,6,0,6,0,1,,,,,,,,,,,,,
6665fbef3202800c8227ce10,SCN,2024-06-21_13h47.28.826,LearnStrategy,2023.2.3,MacIntel,60.97560976,9,1,8,-0.255741645,-0.128687269,1,0,0,0.5967,Diorite_11,3,11,3,3,0.597,-0.326715461,-0.261413167,1,0,0,0.8222,Andesite_rect,1,0.822,0,7,0,7,0,1,,,,,,,,,,,,,
6665fbef3202800c8227ce10,SCN,2024-06-21_13h47.28.826,LearnStrategy,2023.2.3,MacIntel,60.97560976,9,1,9,-0.059527927,-0.076543172,1,0,0,0.5809,Peridotite_10,7,10,3,4,0.581,-0.094543593,-0.407343886,1,0,0,1.3887,Pegmatite_rect,6,1.389,0,8,0,8,0,1,,,,,,,,,,,,,
6665fbef3202800c8227ce10,SCN,2024-06-21_13h47.28.826,LearnStrategy,2023.2.3,MacIntel,60.97560976,9,1,10,0.074733344,-0.086621094,1,0,0,0.5482,Pegmatite_03,6,03,3,5,0.548,-0.08631151,-0.387295736,1,0,0,0.8217,Pegmatite_rect,6,0.822,1,9,0,9,0,1,,,,,,,,,,,,,
6665fbef3202800c8227ce10,SCN,2024-06-21_13h47.28.826,LearnStrategy,2023.2.3,MacIntel,60.97560976,9,1,11,0.245226169,-0.095349799,1,0,0,0.6312,Andesite_14,1,14,3,6,0.631,-0.347512512,-0.254036051,1,0,0,0.8991,Andesite_rect,1,0.899,1,10,0,10,0,1,,,,,,,,,,,,,
6665fbef3202800c8227ce10,SCN,2024-06-21_13h47.28.826,LearnStrategy,2023.2.3,MacIntel,60.97560976,9,1,12,0.403712158,-0.116954278,1,0,0,0.8167,Andesite_10,1,10,3,7,0.817,-0.370409885,-0.253834635,1,0,0,0.7797,Andesite_rect,1,0.78,1,11,0,11,0,1,,,,,,,,,,,,,
6665fbef3202800c8227ce10,SCN,2024-06-21_13h47.28.826,LearnStrategy,2023.2.3,MacIntel,60.97560976,9,1,13,0.527270508,-0.128165215,1,0,0,0.8995,Peridotite_05,7,05,3,8,0.899,0.104353841,-0.419121636,1,0,0,1.4078,Peridotite_rect,7,1.408,1,12,0,12,0,1,,,,,,,,,,,,,
6665fbef3202800c8227ce10,SCN,2024-06-21_13h47.28.826,LearnStrategy,2023.2.3,MacIntel,60.97560976,9,1,14,-0.537200419,-0.238609551,1,0,0,0.8656,Obsidian_09,5,09,2,1,0.866,-0.405351868,-0.405361599,1,0,0,0.9867,Obsidian_rect,5,0.987,1,13,0,13,0,1,,,,,,,,,,,,,
6665fbef3202800c8227ce10,SCN,2024-06-21_13h47.28.826,LearnStrategy,2023.2.3,MacIntel,60.97560976,9,1,15,-0.374715339,-0.274121636,1,0,0,0.7001,Basalt_14,2,14,2,2,0.7,0.381357286,-0.252532349,1,0,0,0.7323,Gabbro_rect,4,0.732,0,14,0,14,0,1,,,,,,,,,,,,,
6665fbef3202800c8227ce10,SCN,2024-06-21_13h47.28.826,LearnStrategy,2023.2.3,MacIntel,60.97560976,9,1,16,-0.243935208,-0.282651299,1,0,0,0.8992,Pumice_15,8,15,2,3,0.899,0.395697428,-0.405496758,1,0,0,1.2044,Pumice_rect,8,1.204,1,15,0,15,0,1,,,,,,,,,,,,,
6665fbef3202800c8227ce10,SCN,2024-06-21_13h47.28.826,LearnStrategy,2023.2.3,MacIntel,60.97560976,9,2,1,,,,,,,,7,13,,,,,,,,,,,7,1.328,1,,,,,,0.119231025,-0.379929742,1,0,0,1.3279,Peridotite_rect,0,0,0,0,1,
6665fbef3202800c8227ce10,SCN,2024-06-21_13h47.28.826,LearnStrategy,2023.2.3,MacIntel,60.97560976,9,2,2,,,,,,,,1,06,,,,,,,,,,,1,1.322,1,,,,,,-0.334467027,-0.254704725,1,0,0,1.3215,Andesite_rect,1,0,1,0,1,
6665fbef3202800c8227ce10,SCN,2024-06-21_13h47.28.826,LearnStrategy,2023.2.3,MacIntel,60.97560976,9,2,3,,,,,,,,3,15,,,,,,,,,,,3,1.203,1,,,,,,0.08640408,-0.256960992,1,0,0,1.2029,Diorite_rect,2,0,2,0,1,
6665fbef3202800c8227ce10,SCN,2024-06-21_13h47.28.826,LearnStrategy,2023.2.3,MacIntel,60.97560976,9,2,4,,,,,,,,8,02,,,,,,,,,,,8,1.021,1,,,,,,0.367624105,-0.409821303,1,0,0,1.0206,Pumice_rect,3,0,3,0,1,
6665fbef3202800c8227ce10,SCN,2024-06-21_13h47.28.826,LearnStrategy,2023.2.3,MacIntel,60.97560976,9,2,5,,,,,,,,2,10,,,,,,,,,,,2,2.028,1,,,,,,-0.144049683,-0.241651001,1,0,0,2.0281,Basalt_rect,4,0,4,0,1,
6665fbef3202800c8227ce10,SCN,2024-06-21_13h47.28.826,LearnStrategy,2023.2.3,MacIntel,60.97560976,9,2,6,,,,,,,,6,16,,,,,,,,,,,6,1.322,1,,,,,,-0.143109877,-0.39376275,1,0,0,1.3224,Pegmatite_rect,5,0,5,0,1,
6665fbef3202800c8227ce10,SCN,2024-06-21_13h47.28.826,LearnStrategy,2023.2.3,MacIntel,60.97560976,9,2,7,,,,,,,,4,11,,,,,,,,,,,2,5.413,0,,,,,,-0.06297994,-0.232004123,1,0,0,5.4134,Basalt_rect,6,0,6,0,1,
6665fbef3202800c8227ce10,SCN,2024-06-21_13h47.28.826,LearnStrategy,2023.2.3,MacIntel,60.97560976,9,2,8,,,,,,,,3,06,,,,,,,,,,,3,1.153,1,,,,,,0.128882107,-0.243160807,1,0,0,1.1531,Diorite_rect,7,0,7,0,1,
6665fbef3202800c8227ce10,SCN,2024-06-21_13h47.28.826,LearnStrategy,2023.2.3,MacIntel,60.97560976,9,2,9,,,,,,,,5,12,,,,,,,,,,,5,1.02,1,,,,,,-0.35015018,-0.4036537,1,0,0,1.0195,Obsidian_rect,8,0,8,0,1,
6665fbef3202800c8227ce10,SCN,2024-06-21_13h47.28.826,LearnStrategy,2023.2.3,MacIntel,60.97560976,9,2,10,,,,,,,,2,11,,,,,,,,,,,1,1.07,0,,,,,,-0.366258002,-0.269226549,1,0,0,1.07,Andesite_rect,9,0,9,0,1,
6665fbef3202800c8227ce10,SCN,2024-06-21_13h47.28.826,LearnStrategy,2023.2.3,MacIntel,60.97560976,9,2,11,,,,,,,,7,06,,,,,,,,,,,7,1.845,1,,,,,,0.061998427,-0.384950901,1,0,0,1.8451,Peridotite_rect,10,0,10,0,1,
6665fbef3202800c8227ce10,SCN,2024-06-21_13h47.28.826,LearnStrategy,2023.2.3,MacIntel,60.97560976,9,2,12,,,,,,,,6,13,,,,,,,,,,,6,0.843,1,,,,,,-0.05816664,-0.407710775,1,0,0,0.8431,Pegmatite_rect,11,0,11,0,1,
6665fbef3202800c8227ce10,SCN,2024-06-21_13h47.28.826,LearnStrategy,2023.2.3,MacIntel,60.97560976,9,2,13,,,,,,,,4,13,,,,,,,,,,,4,2.504,1,,,,,,0.391099175,-0.26416531,1,0,0,2.504,Gabbro_rect,12,0,12,0,1,
6665fbef3202800c8227ce10,SCN,2024-06-21_13h47.28.826,LearnStrategy,2023.2.3,MacIntel,60.97560976,9,2,14,,,,,,,,5,07,,,,,,,,,,,5,1.587,1,,,,,,-0.414276666,-0.402439304,1,0,0,1.5875,Obsidian_rect,13,0,13,0,1,
6665fbef3202800c8227ce10,SCN,2024-06-21_13h47.28.826,LearnStrategy,2023.2.3,MacIntel,60.97560976,9,2,15,,,,,,,,8,13,,,,,,,,,,,8,1.042,1,,,,,,0.347255181,-0.391687758,1,0,0,1.0422,Pumice_rect,14,0,14,0,1,
6665fbef3202800c8227ce10,SCN,2024-06-21_13h47.28.826,LearnStrategy,2023.2.3,MacIntel,60.97560976,9,2,16,,,,,,,,1,05,,,,,,,,,,,1,5.008,1,,,,,,-0.333620199,-0.242304077,1,0,0,5.008,Andesite_rect,15,0,15,0,1,
6665fbef3202800c8227ce10,SCN,2024-06-21_13h47.28.826,LearnStrategy,2023.2.3,MacIntel,60.97560976,,,,,,,,,,,,,,,,,,,,,,,,,,,,,,,,,,,,,,,,,,,1
6665fbef3202800c8227ce10,SCN,2024-06-21_13h47.28.826,LearnStrategy,2023.2.3,MacIntel,60.97560976,,,,,,,,,,,,,,,,,,,,,,,,,,,,,,,,,,,,,,,,,,,
6665fbef3202800c8227ce10,SCN,2024-06-21_13h47.28.826,LearnStrategy,2023.2.3,MacIntel,60.97560976,,,,,,,,,,,3,02,1,1,,,,,,,,,,,,,,,,,,,,,,,,,,,,,
6665fbef3202800c8227ce10,SCN,2024-06-21_13h47.28.826,LearnStrategy,2023.2.3,MacIntel,60.97560976,,,,,,,,,,,8,14,1,2,,,,,,,,,,,,,,,,,,,,,,,,,,,,,
6665fbef3202800c8227ce10,SCN,2024-06-21_13h47.28.826,LearnStrategy,2023.2.3,MacIntel,60.97560976,,,,,,,,,,,4,12,1,3,,,,,,,,,,,,,,,,,,,,,,,,,,,,,
6665fbef3202800c8227ce10,SCN,2024-06-21_13h47.28.826,LearnStrategy,2023.2.3,MacIntel,60.97560976,,,,,,,,,,,8,10,1,4,,,,,,,,,,,,,,,,,,,,,,,,,,,,,
6665fbef3202800c8227ce10,SCN,2024-06-21_13h47.28.826,LearnStrategy,2023.2.3,MacIntel,60.97560976,,,,,,,,,,,6,06,1,5,,,,,,,,,,,,,,,,,,,,,,,,,,,,,
6665fbef3202800c8227ce10,SCN,2024-06-21_13h47.28.826,LearnStrategy,2023.2.3,MacIntel,60.97560976,,,,,,,,,,,4,15,1,6,,,,,,,,,,,,,,,,,,,,,,,,,,,,,
6665fbef3202800c8227ce10,SCN,2024-06-21_13h47.28.826,LearnStrategy,2023.2.3,MacIntel,60.97560976,,,,,,,,,,,1,11,1,7,,,,,,,,,,,,,,,,,,,,,,,,,,,,,
6665fbef3202800c8227ce10,SCN,2024-06-21_13h47.28.826,LearnStrategy,2023.2.3,MacIntel,60.97560976,,,,,,,,,,,8,16,1,8,,,,,,,,,,,,,,,,,,,,,,,,,,,,,
6665fbef3202800c8227ce10,SCN,2024-06-21_13h47.28.826,LearnStrategy,2023.2.3,MacIntel,60.97560976,,,,,,,,,,,5,09,2,1,,,,,,,,,,,,,,,,,,,,,,,,,,,,,
6665fbef3202800c8227ce10,SCN,2024-06-21_13h47.28.826,LearnStrategy,2023.2.3,MacIntel,60.97560976,,,,,,,,,,,2,14,2,2,,,,,,,,,,,,,,,,,,,,,,,,,,,,,
6665fbef3202800c8227ce10,SCN,2024-06-21_13h47.28.826,LearnStrategy,2023.2.3,MacIntel,60.97560976,,,,,,,,,,,8,15,2,3,,,,,,,,,,,,,,,,,,,,,,,,,,,,,
6665fbef3202800c8227ce10,SCN,2024-06-21_13h47.28.826,LearnStrategy,2023.2.3,MacIntel,60.97560976,,,,,,,,,,,2,02,2,4,,,,,,,,,,,,,,,,,,,,,,,,,,,,,
6665fbef3202800c8227ce10,SCN,2024-06-21_13h47.28.826,LearnStrategy,2023.2.3,MacIntel,60.97560976,,,,,,,,,,,6,10,2,5,,,,,,,,,,,,,,,,,,,,,,,,,,,,,
6665fbef3202800c8227ce10,SCN,2024-06-21_13h47.28.826,LearnStrategy,2023.2.3,MacIntel,60.97560976,,,,,,,,,,,5,06,2,6,,,,,,,,,,,,,,,,,,,,,,,,,,,,,
6665fbef3202800c8227ce10,SCN,2024-06-21_13h47.28.826,LearnStrategy,2023.2.3,MacIntel,60.97560976,,,,,,,,,,,2,09,2,7,,,,,,,,,,,,,,,,,,,,,,,,,,,,,
6665fbef3202800c8227ce10,SCN,2024-06-21_13h47.28.826,LearnStrategy,2023.2.3,MacIntel,60.97560976,,,,,,,,,,,4,10,2,8,,,,,,,,,,,,,,,,,,,,,,,,,,,,,
6665fbef3202800c8227ce10,SCN,2024-06-21_13h47.28.826,LearnStrategy,2023.2.3,MacIntel,60.97560976,,,,,,,,,,,3,09,3,1,,,,,,,,,,,,,,,,,,,,,,,,,,,,,
6665fbef3202800c8227ce10,SCN,2024-06-21_13h47.28.826,LearnStrategy,2023.2.3,MacIntel,60.97560976,,,,,,,,,,,6,08,3,2,,,,,,,,,,,,,,,,,,,,,,,,,,,,,
6665fbef3202800c8227ce10,SCN,2024-06-21_13h47.28.826,LearnStrategy,2023.2.3,MacIntel,60.97560976,,,,,,,,,,,3,11,3,3,,,,,,,,,,,,,,,,,,,,,,,,,,,,,
6665fbef3202800c8227ce10,SCN,2024-06-21_13h47.28.826,LearnStrategy,2023.2.3,MacIntel,60.97560976,,,,,,,,,,,7,10,3,4,,,,,,,,,,,,,,,,,,,,,,,,,,,,,
6665fbef3202800c8227ce10,SCN,2024-06-21_13h47.28.826,LearnStrategy,2023.2.3,MacIntel,60.97560976,,,,,,,,,,,6,03,3,5,,,,,,,,,,,,,,,,,,,,,,,,,,,,,
6665fbef3202800c8227ce10,SCN,2024-06-21_13h47.28.826,LearnStrategy,2023.2.3,MacIntel,60.97560976,,,,,,,,,,,1,14,3,6,,,,,,,,,,,,,,,,,,,,,,,,,,,,,
6665fbef3202800c8227ce10,SCN,2024-06-21_13h47.28.826,LearnStrategy,2023.2.3,MacIntel,60.97560976,,,,,,,,,,,1,10,3,7,,,,,,,,,,,,,,,,,,,,,,,,,,,,,
6665fbef3202800c8227ce10,SCN,2024-06-21_13h47.28.826,LearnStrategy,2023.2.3,MacIntel,60.97560976,,,,,,,,,,,7,05,3,8,,,,,,,,,,,,,,,,,,,,,,,,,,,,,
6665fbef3202800c8227ce10,SCN,2024-06-21_13h47.28.826,LearnStrategy,2023.2.3,MacIntel,60.97560976,,,,,,,,,,,6,07,4,1,,,,,,,,,,,,,,,,,,,,,,,,,,,,,
6665fbef3202800c8227ce10,SCN,2024-06-21_13h47.28.826,LearnStrategy,2023.2.3,MacIntel,60.97560976,,,,,,,,,,,2,06,4,2,,,,,,,,,,,,,,,,,,,,,,,,,,,,,
6665fbef3202800c8227ce10,SCN,2024-06-21_13h47.28.826,LearnStrategy,2023.2.3,MacIntel,60.97560976,,,,,,,,,,,1,09,4,3,,,,,,,,,,,,,,,,,,,,,,,,,,,,,
6665fbef3202800c8227ce10,SCN,2024-06-21_13h47.28.826,LearnStrategy,2023.2.3,MacIntel,60.97560976,,,,,,,,,,,5,10,4,4,,,,,,,,,,,,,,,,,,,,,,,,,,,,,
6665fbef3202800c8227ce10,SCN,2024-06-21_13h47.28.826,LearnStrategy,2023.2.3,MacIntel,60.97560976,,,,,,,,,,,8,06,4,5,,,,,,,,,,,,,,,,,,,,,,,,,,,,,
6665fbef3202800c8227ce10,SCN,2024-06-21_13h47.28.826,LearnStrategy,2023.2.3,MacIntel,60.97560976,,,,,,,,,,,7,16,4,6,,,,,,,,,,,,,,,,,,,,,,,,,,,,,
6665fbef3202800c8227ce10,SCN,2024-06-21_13h47.28.826,LearnStrategy,2023.2.3,MacIntel,60.97560976,,,,,,,,,,,7,14,4,7,,,,,,,,,,,,,,,,,,,,,,,,,,,,,
6665fbef3202800c8227ce10,SCN,2024-06-21_13h47.28.826,LearnStrategy,2023.2.3,MacIntel,60.97560976,,,,,,,,,,,4,05,4,8,,,,,,,,,,,,,,,,,,,,,,,,,,,,,
6665fbef3202800c8227ce10,SCN,2024-06-21_13h47.28.826,LearnStrategy,2023.2.3,MacIntel,60.97560976,,,,,,,,,,,2,12,5,1,,,,,,,,,,,,,,,,,,,,,,,,,,,,,
6665fbef3202800c8227ce10,SCN,2024-06-21_13h47.28.826,LearnStrategy,2023.2.3,MacIntel,60.97560976,,,,,,,,,,,5,05,5,2,,,,,,,,,,,,,,,,,,,,,,,,,,,,,
6665fbef3202800c8227ce10,SCN,2024-06-21_13h47.28.826,LearnStrategy,2023.2.3,MacIntel,60.97560976,,,,,,,,,,,3,12,5,3,,,,,,,,,,,,,,,,,,,,,,,,,,,,,
6665fbef3202800c8227ce10,SCN,2024-06-21_13h47.28.826,LearnStrategy,2023.2.3,MacIntel,60.97560976,,,,,,,,,,,3,07,5,4,,,,,,,,,,,,,,,,,,,,,,,,,,,,,
6665fbef3202800c8227ce10,SCN,2024-06-21_13h47.28.826,LearnStrategy,2023.2.3,MacIntel,60.97560976,,,,,,,,,,,8,09,5,5,,,,,,,,,,,,,,,,,,,,,,,,,,,,,
6665fbef3202800c8227ce10,SCN,2024-06-21_13h47.28.826,LearnStrategy,2023.2.3,MacIntel,60.97560976,,,,,,,,,,,2,04,5,6,,,,,,,,,,,,,,,,,,,,,,,,,,,,,
6665fbef3202800c8227ce10,SCN,2024-06-21_13h47.28.826,LearnStrategy,2023.2.3,MacIntel,60.97560976,,,,,,,,,,,7,15,5,7,,,,,,,,,,,,,,,,,,,,,,,,,,,,,
6665fbef3202800c8227ce10,SCN,2024-06-21_13h47.28.826,LearnStrategy,2023.2.3,MacIntel,60.97560976,,,,,,,,,,,3,16,5,8,,,,,,,,,,,,,,,,,,,,,,,,,,,,,
6665fbef3202800c8227ce10,SCN,2024-06-21_13h47.28.826,LearnStrategy,2023.2.3,MacIntel,60.97560976,,,,,,,,,,,4,16,6,1,,,,,,,,,,,,,,,,,,,,,,,,,,,,,
6665fbef3202800c8227ce10,SCN,2024-06-21_13h47.28.826,LearnStrategy,2023.2.3,MacIntel,60.97560976,,,,,,,,,,,6,11,6,2,,,,,,,,,,,,,,,,,,,,,,,,,,,,,
6665fbef3202800c8227ce10,SCN,2024-06-21_13h47.28.826,LearnStrategy,2023.2.3,MacIntel,60.97560976,,,,,,,,,,,5,11,6,3,,,,,,,,,,,,,,,,,,,,,,,,,,,,,
6665fbef3202800c8227ce10,SCN,2024-06-21_13h47.28.826,LearnStrategy,2023.2.3,MacIntel,60.97560976,,,,,,,,,,,1,03,6,4,,,,,,,,,,,,,,,,,,,,,,,,,,,,,
6665fbef3202800c8227ce10,SCN,2024-06-21_13h47.28.826,LearnStrategy,2023.2.3,MacIntel,60.97560976,,,,,,,,,,,7,08,6,5,,,,,,,,,,,,,,,,,,,,,,,,,,,,,
6665fbef3202800c8227ce10,SCN,2024-06-21_13h47.28.826,LearnStrategy,2023.2.3,MacIntel,60.97560976,,,,,,,,,,,4,08,6,6,,,,,,,,,,,,,,,,,,,,,,,,,,,,,
6665fbef3202800c8227ce10,SCN,2024-06-21_13h47.28.826,LearnStrategy,2023.2.3,MacIntel,60.97560976,,,,,,,,,,,1,02,6,7,,,,,,,,,,,,,,,,,,,,,,,,,,,,,
6665fbef3202800c8227ce10,SCN,2024-06-21_13h47.28.826,LearnStrategy,2023.2.3,MacIntel,60.97560976,,,,,,,,,,,5,04,6,8,,,,,,,,,,,,,,,,,,,,,,,,,,,,,