participant,condition,date,expName,psychopyVersion,OS,frameRate,block,phase,trial,learn_mouse_2.x,learn_mouse_2.y,learn_mouse_2.leftButton,learn_mouse_2.midButton,learn_mouse_2.rightButton,learn_mouse_2.time,learn_mouse_2.clicked_name,cat,token,row,col,t_select,cat_mouse_l.x,cat_mouse_l.y,cat_mouse_l.leftButton,cat_mouse_l.midButton,cat_mouse_l.rightButton,cat_mouse_l.time,cat_mouse_l.clicked_name,resp,t_resp,corr,train_trials.thisRepN,train_trials.thisTrialN,train_trials.thisN,train_trials.thisIndex,train_trials.ran,cat_mouse_t.x,cat_mouse_t.y,cat_mouse_t.leftButton,cat_mouse_t.midButton,cat_mouse_t.rightButton,cat_mouse_t.time,cat_mouse_t.clicked_name,test_trials.thisRepN,test_trials.thisTrialN,test_trials.thisN,test_trials.thisIndex,test_trials.ran,Bonus
66699cf8f21e06aaf88dda41,TCR,2024-06-24_14h46.54.620,LearnStrategy,2023.2.3,Win32,60.24096386,,,,,,,,,,,,,,,,,,,,,,,,,,,,,,,,,,,,,,,,,,,
66699cf8f21e06aaf88dda41,TCR,2024-06-24_14h46.54.620,LearnStrategy,2023.2.3,Win32,60.24096386,1,1,1,0.021296296,-0.002777778,1,0,0,1.9227,rock_grid_rect_2,8,02,-1,-1,1.923,0.40462963,-0.39537037,1,0,0,2.8615,Pumice_rect,8,2.861,1,0,0,0,0,1,,,,,,,,,,,,,
66699cf8f21e06aaf88dda41,TCR,2024-06-24_14h46.54.620,LearnStrategy,2023.2.3,Win32,60.24096386,1,1,2,0.023148148,-0.013888889,1,0,0,0.9673,rock_grid_rect_2,7,07,-1,-1,0.967,0.096296296,-0.25,1,0,0,4.6802,Diorite_rect,3,4.68,0,1,0,1,0,1,,,,,,,,,,,,,
66699cf8f21e06aaf88dda41,TCR,2024-06-24_14h46.54.620,LearnStrategy,2023.2.3,Win32,60.24096386,1,1,3,-0.092592593,0.005555556,1,0,0,0.9649,rock_grid_rect_2,3,14,-1,-1,0.965,-0.362962963,-0.231481481,1,0,0,1.07,Andesite_rect,1,1.07,0,2,0,2,0,1,,,,,,,,,,,,,
66699cf8f21e06aaf88dda41,TCR,2024-06-24_14h46.54.620,LearnStrategy,2023.2.3,Win32,60.24096386,1,1,4,-0.028703704,-0.014814815,1,0,0,1.1214,rock_grid_rect_2,4,08,-1,-1,1.121,-0.35,-0.228703704,1,0,0,4.9474,Andesite_rect,1,4.947,0,3,0,3,0,1,,,,,,,,,,,,,
66699cf8f21e06aaf88dda41,TCR,2024-06-24_14h46.54.620,LearnStrategy,2023.2.3,Win32,60.24096386,1,1,5,0.047222222,-0.017592593,1,0,0,1.0636,rock_grid_rect_2,1,06,-1,-1,1.064,-0.369444444,-0.231481481,1,0,0,1.7797,Andesite_rect,1,1.78,1,4,0,4,0,1,,,,,,,,,,,,,
66699cf8f21e06aaf88dda41,TCR,2024-06-24_14h46.54.620,LearnStrategy,2023.2.3,Win32,60.24096386,1,1,6,-0.097222222,-0.016666667,1,0,0,0.9214,rock_grid_rect_2,2,04,-1,-1,0.921,-0.091666667,-0.235185185,1,0,0,5.0974,Basalt_rect,2,5.097,1,5,0,5,0,1,,,,,,,,,,,,,
66699cf8f21e06aaf88dda41,TCR,2024-06-24_14h46.54.620,LearnStrategy,2023.2.3,Win32,60.24096386,1,1,7,-0.04537037,-0.007407407,1,0,0,0.9555,rock_grid_rect_2,5,12,-1,-1,0.956,-0.367592593,-0.391666667,1,0,0,1.2094,Obsidian_rect,5,1.209,1,6,0,6,0,1,,,,,,,,,,,,,
66699cf8f21e06aaf88dda41,TCR,2024-06-24_14h46.54.620,LearnStrategy,2023.2.3,Win32,60.24096386,1,1,8,-0.018518519,0.010185185,1,0,0,0.7787,rock_grid_rect_2,8,04,-1,-1,0.779,-0.050925926,-0.407407407,1,0,0,5.8889,Pegmatite_rect,6,5.889,0,7,0,7,0,1,,,,,,,,,,,,,
66699cf8f21e06aaf88dda41,TCR,2024-06-24_14h46.54.620,LearnStrategy,2023.2.3,Win32,60.24096386,1,1,9,-0.017592593,0.006481481,1,0,0,0.9041,rock_grid_rect_2,5,11,-1,-1,0.904,-0.44537037,-0.4,1,0,0,1.014,Obsidian_rect,5,1.014,1,8,0,8,0,1,,,,,,,,,,,,,
66699cf8f21e06aaf88dda41,TCR,2024-06-24_14h46.54.620,LearnStrategy,2023.2.3,Win32,60.24096386,1,1,10,-0.022222222,-0.003703704,1,0,0,0.8198,rock_grid_rect_2,1,02,-1,-1,0.82,0.091666667,-0.269444444,1,0,0,5.3642,Diorite_rect,3,5.364,0,9,0,9,0,1,,,,,,,,,,,,,
66699cf8f21e06aaf88dda41,TCR,2024-06-24_14h46.54.620,LearnStrategy,2023.2.3,Win32,60.24096386,1,1,11,0.002777778,-0.012962963,1,0,0,0.6673,rock_grid_rect_2,6,11,-1,-1,0.667,0.182407407,-0.416666667,1,0,0,3.8474,Peridotite_rect,7,3.847,0,10,0,10,0,1,,,,,,,,,,,,,
66699cf8f21e06aaf88dda41,TCR,2024-06-24_14h46.54.620,LearnStrategy,2023.2.3,Win32,60.24096386,1,1,12,-0.091666667,0.003703704,1,0,0,0.918,rock_grid_rect_2,7,16,-1,-1,0.918,0.17962963,-0.249074074,1,0,0,2.6312,Diorite_rect,3,2.631,0,11,0,11,0,1,,,,,,,,,,,,,
66699cf8f21e06aaf88dda41,TCR,2024-06-24_14h46.54.620,LearnStrategy,2023.2.3,Win32,60.24096386,1,1,13,0.000925926,-0.001851852,1,0,0,0.8303,rock_grid_rect_2,2,09,-1,-1,0.83,-0.064814815,-0.238888889,1,0,0,2.2678,Basalt_rect,2,2.268,1,12,0,12,0,1,,,,,,,,,,,,,
66699cf8f21e06aaf88dda41,TCR,2024-06-24_14h46.54.620,LearnStrategy,2023.2.3,Win32,60.24096386,1,1,14,0.017592593,0,1,0,0,0.8516,rock_grid_rect_2,6,05,-1,-1,0.852,0.442592593,-0.249074074,1,0,0,4.2647,Gabbro_rect,4,4.265,0,13,0,13,0,1,,,,,,,,,,,,,
66699cf8f21e06aaf88dda41,TCR,2024-06-24_14h46.54.620,LearnStrategy,2023.2.3,Win32,60.24096386,1,1,15,-0.006481481,-0.00462963,1,0,0,1.021,rock_grid_rect_2,3,08,-1,-1,1.021,-0.347222222,-0.242592593,1,0,0,2.4975,Andesite_rect,1,2.498,0,14,0,14,0,1,,,,,,,,,,,,,
66699cf8f21e06aaf88dda41,TCR,2024-06-24_14h46.54.620,LearnStrategy,2023.2.3,Win32,60.24096386,1,1,16,-0.050925926,0.010185185,1,0,0,1.1213,rock_grid_rect_2,4,03,-1,-1,1.121,-0.428703704,-0.237962963,1,0,0,1.5799,Andesite_rect,1,1.58,0,15,0,15,0,1,,,,,,,,,,,,,
66699cf8f21e06aaf88dda41,TCR,2024-06-24_14h46.54.620,LearnStrategy,2023.2.3,Win32,60.24096386,1,2,1,,,,,,,,1,03,,,,,,,,,,,1,3.382,1,,,,,,-0.35462963,-0.237962963,1,0,0,3.3818,Andesite_rect,0,0,0,0,1,
66699cf8f21e06aaf88dda41,TCR,2024-06-24_14h46.54.620,LearnStrategy,2023.2.3,Win32,60.24096386,1,2,2,,,,,,,,6,13,,,,,,,,,,,7,4.453,0,,,,,,0.167592593,-0.387962963,1,0,0,4.4534,Peridotite_rect,1,0,1,0,1,
66699cf8f21e06aaf88dda41,TCR,2024-06-24_14h46.54.620,LearnStrategy,2023.2.3,Win32,60.24096386,1,2,3,,,,,,,,7,06,,,,,,,,,,,3,5.788,0,,,,,,0.099074074,-0.255555556,1,0,0,5.7879,Diorite_rect,2,0,2,0,1,
66699cf8f21e06aaf88dda41,TCR,2024-06-24_14h46.54.620,LearnStrategy,2023.2.3,Win32,60.24096386,1,2,4,,,,,,,,3,10,,,,,,,,,,,1,5.721,0,,,,,,-0.39537037,-0.22962963,1,0,0,5.7211,Andesite_rect,3,0,3,0,1,
66699cf8f21e06aaf88dda41,TCR,2024-06-24_14h46.54.620,LearnStrategy,2023.2.3,Win32,60.24096386,1,2,5,,,,,,,,2,08,,,,,,,,,,,2,3.711,1,,,,,,-0.12037037,-0.256481481,1,0,0,3.7107,Basalt_rect,4,0,4,0,1,
66699cf8f21e06aaf88dda41,TCR,2024-06-24_14h46.54.620,LearnStrategy,2023.2.3,Win32,60.24096386,1,2,6,,,,,,,,7,12,,,,,,,,,,,4,5.653,0,,,,,,0.337037037,-0.257407407,1,0,0,5.6525,Gabbro_rect,5,0,5,0,1,
66699cf8f21e06aaf88dda41,TCR,2024-06-24_14h46.54.620,LearnStrategy,2023.2.3,Win32,60.24096386,1,2,7,,,,,,,,2,01,,,,,,,,,,,2,3.643,1,,,,,,-0.096296296,-0.253703704,1,0,0,3.6434,Basalt_rect,6,0,6,0,1,
66699cf8f21e06aaf88dda41,TCR,2024-06-24_14h46.54.620,LearnStrategy,2023.2.3,Win32,60.24096386,1,2,8,,,,,,,,8,10,,,,,,,,,,,8,0.884,1,,,,,,0.443518519,-0.42037037,1,0,0,0.8843,Pumice_rect,7,0,7,0,1,
66699cf8f21e06aaf88dda41,TCR,2024-06-24_14h46.54.620,LearnStrategy,2023.2.3,Win32,60.24096386,1,2,9,,,,,,,,1,10,,,,,,,,,,,6,6.378,0,,,,,,-0.076851852,-0.398148148,1,0,0,6.3784,Pegmatite_rect,8,0,8,0,1,
66699cf8f21e06aaf88dda41,TCR,2024-06-24_14h46.54.620,LearnStrategy,2023.2.3,Win32,60.24096386,1,2,10,,,,,,,,8,14,,,,,,,,,,,8,0.96,1,,,,,,0.368518519,-0.413888889,1,0,0,0.9602,Pumice_rect,9,0,9,0,1,
66699cf8f21e06aaf88dda41,TCR,2024-06-24_14h46.54.620,LearnStrategy,2023.2.3,Win32,60.24096386,1,2,11,,,,,,,,6,06,,,,,,,,,,,3,3.244,0,,,,,,0.131481481,-0.27037037,1,0,0,3.2438,Diorite_rect,10,0,10,0,1,
66699cf8f21e06aaf88dda41,TCR,2024-06-24_14h46.54.620,LearnStrategy,2023.2.3,Win32,60.24096386,1,2,12,,,,,,,,5,09,,,,,,,,,,,5,1.029,1,,,,,,-0.436111111,-0.42037037,1,0,0,1.0288,Obsidian_rect,11,0,11,0,1,
66699cf8f21e06aaf88dda41,TCR,2024-06-24_14h46.54.620,LearnStrategy,2023.2.3,Win32,60.24096386,1,2,13,,,,,,,,3,16,,,,,,,,,,,1,1.306,0,,,,,,-0.382407407,-0.260185185,1,0,0,1.3061,Andesite_rect,12,0,12,0,1,
66699cf8f21e06aaf88dda41,TCR,2024-06-24_14h46.54.620,LearnStrategy,2023.2.3,Win32,60.24096386,1,2,14,,,,,,,,4,01,,,,,,,,,,,3,1.498,0,,,,,,0.098148148,-0.244444444,1,0,0,1.4983,Diorite_rect,13,0,13,0,1,
66699cf8f21e06aaf88dda41,TCR,2024-06-24_14h46.54.620,LearnStrategy,2023.2.3,Win32,60.24096386,1,2,15,,,,,,,,5,05,,,,,,,,,,,5,1.659,1,,,,,,-0.4,-0.389814815,1,0,0,1.6587,Obsidian_rect,14,0,14,0,1,
66699cf8f21e06aaf88dda41,TCR,2024-06-24_14h46.54.620,LearnStrategy,2023.2.3,Win32,60.24096386,1,2,16,,,,,,,,4,13,,,,,,,,,,,4,2.505,1,,,,,,0.408333333,-0.256481481,1,0,0,2.5051,Gabbro_rect,15,0,15,0,1,
66699cf8f21e06aaf88dda41,TCR,2024-06-24_14h46.54.620,LearnStrategy,2023.2.3,Win32,60.24096386,2,1,1,0.083333333,-0.003703704,1,0,0,1.0992,rock_grid_rect_2,6,15,-1,-1,1.099,0.425,-0.253703704,1,0,0,3.1352,Gabbro_rect,4,3.135,0,0,0,0,0,1,,,,,,,,,,,,,
66699cf8f21e06aaf88dda41,TCR,2024-06-24_14h46.54.620,LearnStrategy,2023.2.3,Win32,60.24096386,2,1,2,0.012037037,0.011111111,1,0,0,0.8484,rock_grid_rect_2,3,14,-1,-1,0.848,0.075925926,-0.265740741,1,0,0,1.629,Diorite_rect,3,1.629,1,1,0,1,0,1,,,,,,,,,,,,,
66699cf8f21e06aaf88dda41,TCR,2024-06-24_14h46.54.620,LearnStrategy,2023.2.3,Win32,60.24096386,2,1,3,0.046296296,-0.021296296,1,0,0,0.782,rock_grid_rect_2,1,16,-1,-1,0.782,-0.343518519,-0.228703704,1,0,0,1.8619,Andesite_rect,1,1.862,1,2,0,2,0,1,,,,,,,,,,,,,
66699cf8f21e06aaf88dda41,TCR,2024-06-24_14h46.54.620,LearnStrategy,2023.2.3,Win32,60.24096386,2,1,4,0.05462963,-0.017592593,1,0,0,0.6806,rock_grid_rect_2,3,07,-1,-1,0.681,0.131481481,-0.228703704,1,0,0,1.3955,Diorite_rect,3,1.395,1,3,0,3,0,1,,,,,,,,,,,,,
66699cf8f21e06aaf88dda41,TCR,2024-06-24_14h46.54.620,LearnStrategy,2023.2.3,Win32,60.24096386,2,1,5,0.025925926,0.012962963,1,0,0,0.7319,rock_grid_rect_2,6,03,-1,-1,0.732,0.430555556,-0.249074074,1,0,0,2.7125,Gabbro_rect,4,2.712,0,4,0,4,0,1,,,,,,,,,,,,,
66699cf8f21e06aaf88dda41,TCR,2024-06-24_14h46.54.620,LearnStrategy,2023.2.3,Win32,60.24096386,2,1,6,0.022222222,-0.000925926,1,0,0,0.8115,rock_grid_rect_2,3,09,-1,-1,0.811,0.127777778,-0.253703704,1,0,0,2.5725,Diorite_rect,3,2.572,1,5,0,5,0,1,,,,,,,,,,,,,
66699cf8f21e06aaf88dda41,TCR,2024-06-24_14h46.54.620,LearnStrategy,2023.2.3,Win32,60.24096386,2,1,7,0.037962963,-0.011111111,1,0,0,0.844,rock_grid_rect_2,4,03,-1,-1,0.844,-0.396296296,-0.249074074,1,0,0,1.5622,Andesite_rect,1,1.562,0,6,0,6,0,1,,,,,,,,,,,,,
66699cf8f21e06aaf88dda41,TCR,2024-06-24_14h46.54.620,LearnStrategy,2023.2.3,Win32,60.24096386,2,1,8,0.008333333,-0.011111111,1,0,0,0.9462,rock_grid_rect_2,7,16,-1,-1,0.946,-0.168518519,-0.255555556,1,0,0,1.4121,Basalt_rect,2,1.412,0,7,0,7,0,1,,,,,,,,,,,,,
66699cf8f21e06aaf88dda41,TCR,2024-06-24_14h46.54.620,LearnStrategy,2023.2.3,Win32,60.24096386,2,1,9,0.036111111,-0.003703704,1,0,0,0.9489,rock_grid_rect_2,7,02,-1,-1,0.949,0.430555556,-0.238888889,1,0,0,1.8626,Gabbro_rect,4,1.863,0,8,0,8,0,1,,,,,,,,,,,,,
66699cf8f21e06aaf88dda41,TCR,2024-06-24_14h46.54.620,LearnStrategy,2023.2.3,Win32,60.24096386,2,1,10,0.058333333,0.00462963,1,0,0,0.6629,rock_grid_rect_2,7,15,-1,-1,0.663,-0.112962963,-0.410185185,1,0,0,1.7537,Pegmatite_rect,6,1.754,0,9,0,9,0,1,,,,,,,,,,,,,
66699cf8f21e06aaf88dda41,TCR,2024-06-24_14h46.54.620,LearnStrategy,2023.2.3,Win32,60.24096386,2,1,11,0.05462963,-0.005555556,1,0,0,0.7655,rock_grid_rect_2,6,03,-1,-1,0.765,0.112962963,-0.378703704,1,0,0,1.4625,Peridotite_rect,7,1.463,0,10,0,10,0,1,,,,,,,,,,,,,
66699cf8f21e06aaf88dda41,TCR,2024-06-24_14h46.54.620,LearnStrategy,2023.2.3,Win32,60.24096386,2,1,12,-0.012962963,0.013888889,1,0,0,0.6474,rock_grid_rect_2,4,10,-1,-1,0.647,-0.144444444,-0.248148148,1,0,0,2.6461,Basalt_rect,2,2.646,0,11,0,11,0,1,,,,,,,,,,,,,
66699cf8f21e06aaf88dda41,TCR,2024-06-24_14h46.54.620,LearnStrategy,2023.2.3,Win32,60.24096386,2,1,13,0.028703704,-0.012037037,1,0,0,0.8316,rock_grid_rect_2,1,06,-1,-1,0.832,0.076851852,-0.264814815,1,0,0,3.379,Diorite_rect,3,3.379,0,12,0,12,0,1,,,,,,,,,,,,,
66699cf8f21e06aaf88dda41,TCR,2024-06-24_14h46.54.620,LearnStrategy,2023.2.3,Win32,60.24096386,2,1,14,-0.018518519,-0.011111111,1,0,0,0.8448,rock_grid_rect_2,3,13,-1,-1,0.845,0.131481481,-0.253703704,1,0,0,1.7791,Diorite_rect,3,1.779,1,13,0,13,0,1,,,,,,,,,,,,,
66699cf8f21e06aaf88dda41,TCR,2024-06-24_14h46.54.620,LearnStrategy,2023.2.3,Win32,60.24096386,2,1,15,0.083333333,-0.017592593,1,0,0,0.7484,rock_grid_rect_2,6,05,-1,-1,0.748,-0.348148148,-0.259259259,1,0,0,2.979,Andesite_rect,1,2.979,0,14,0,14,0,1,,,,,,,,,,,,,
66699cf8f21e06aaf88dda41,TCR,2024-06-24_14h46.54.620,LearnStrategy,2023.2.3,Win32,60.24096386,2,1,16,0.052777778,-0.012037037,1,0,0,0.8438,rock_grid_rect_2,7,04,-1,-1,0.844,0.111111111,-0.410185185,1,0,0,1.7456,Peridotite_rect,7,1.746,1,15,0,15,0,1,,,,,,,,,,,,,
66699cf8f21e06aaf88dda41,TCR,2024-06-24_14h46.54.620,LearnStrategy,2023.2.3,Win32,60.24096386,2,2,1,,,,,,,,7,08,,,,,,,,,,,6,4.432,0,,,,,,-0.124074074,-0.405555556,1,0,0,4.4323,Pegmatite_rect,0,0,0,0,1,
66699cf8f21e06aaf88dda41,TCR,2024-06-24_14h46.54.620,LearnStrategy,2023.2.3,Win32,60.24096386,2,2,2,,,,,,,,8,15,,,,,,,,,,,8,2.745,1,,,,,,0.365740741,-0.387037037,1,0,0,2.7446,Pumice_rect,1,0,1,0,1,
66699cf8f21e06aaf88dda41,TCR,2024-06-24_14h46.54.620,LearnStrategy,2023.2.3,Win32,60.24096386,2,2,3,,,,,,,,6,08,,,,,,,,,,,7,2.22,0,,,,,,0.17962963,-0.382407407,1,0,0,2.2198,Peridotite_rect,2,0,2,0,1,
66699cf8f21e06aaf88dda41,TCR,2024-06-24_14h46.54.620,LearnStrategy,2023.2.3,Win32,60.24096386,2,2,4,,,,,,,,2,12,,,,,,,,,,,4,2.931,0,,,,,,0.363888889,-0.246296296,1,0,0,2.9314,Gabbro_rect,3,0,3,0,1,
66699cf8f21e06aaf88dda41,TCR,2024-06-24_14h46.54.620,LearnStrategy,2023.2.3,Win32,60.24096386,2,2,5,,,,,,,,7,14,,,,,,,,,,,6,2.842,0,,,,,,-0.068518519,-0.4,1,0,0,2.8422,Pegmatite_rect,4,0,4,0,1,
66699cf8f21e06aaf88dda41,TCR,2024-06-24_14h46.54.620,LearnStrategy,2023.2.3,Win32,60.24096386,2,2,6,,,,,,,,1,07,,,,,,,,,,,3,2.07,0,,,,,,0.077777778,-0.253703704,1,0,0,2.0705,Diorite_rect,5,0,5,0,1,
66699cf8f21e06aaf88dda41,TCR,2024-06-24_14h46.54.620,LearnStrategy,2023.2.3,Win32,60.24096386,2,2,7,,,,,,,,1,01,,,,,,,,,,,1,1.488,1,,,,,,-0.411111111,-0.239814815,1,0,0,1.4877,Andesite_rect,6,0,6,0,1,
66699cf8f21e06aaf88dda41,TCR,2024-06-24_14h46.54.620,LearnStrategy,2023.2.3,Win32,60.24096386,2,2,8,,,,,,,,6,16,,,,,,,,,,,4,1.986,0,,,,,,0.361111111,-0.265740741,1,0,0,1.986,Gabbro_rect,7,0,7,0,1,
66699cf8f21e06aaf88dda41,TCR,2024-06-24_14h46.54.620,LearnStrategy,2023.2.3,Win32,60.24096386,2,2,9,,,,,,,,5,06,,,,,,,,,,,5,1.419,1,,,,,,-0.35462963,-0.402777778,1,0,0,1.4191,Obsidian_rect,8,0,8,0,1,
66699cf8f21e06aaf88dda41,TCR,2024-06-24_14h46.54.620,LearnStrategy,2023.2.3,Win32,60.24096386,2,2,10,,,,,,,,3,12,,,,,,,,,,,3,1.365,1,,,,,,0.094444444,-0.260185185,1,0,0,1.3655,Diorite_rect,9,0,9,0,1,
66699cf8f21e06aaf88dda41,TCR,2024-06-24_14h46.54.620,LearnStrategy,2023.2.3,Win32,60.24096386,2,2,11,,,,,,,,4,16,,,,,,,,,,,2,1.693,0,,,,,,-0.075,-0.261111111,1,0,0,1.6933,Basalt_rect,10,0,10,0,1,
66699cf8f21e06aaf88dda41,TCR,2024-06-24_14h46.54.620,LearnStrategy,2023.2.3,Win32,60.24096386,2,2,12,,,,,,,,2,02,,,,,,,,,,,2,4.501,1,,,,,,-0.083333333,-0.25462963,1,0,0,4.501,Basalt_rect,11,0,11,0,1,
66699cf8f21e06aaf88dda41,TCR,2024-06-24_14h46.54.620,LearnStrategy,2023.2.3,Win32,60.24096386,2,2,13,,,,,,,,5,04,,,,,,,,,,,5,1.47,1,,,,,,-0.340740741,-0.407407407,1,0,0,1.4698,Obsidian_rect,12,0,12,0,1,
66699cf8f21e06aaf88dda41,TCR,2024-06-24_14h46.54.620,LearnStrategy,2023.2.3,Win32,60.24096386,2,2,14,,,,,,,,4,11,,,,,,,,,,,4,2.336,1,,,,,,0.363888889,-0.27037037,1,0,0,2.3357,Gabbro_rect,13,0,13,0,1,
66699cf8f21e06aaf88dda41,TCR,2024-06-24_14h46.54.620,LearnStrategy,2023.2.3,Win32,60.24096386,2,2,15,,,,,,,,3,06,,,,,,,,,,,3,1.354,1,,,,,,0.112962963,-0.258333333,1,0,0,1.3539,Diorite_rect,14,0,14,0,1,
66699cf8f21e06aaf88dda41,TCR,2024-06-24_14h46.54.620,LearnStrategy,2023.2.3,Win32,60.24096386,2,2,16,,,,,,,,8,16,,,,,,,,,,,8,1.169,1,,,,,,0.367592593,-0.409259259,1,0,0,1.1694,Pumice_rect,15,0,15,0,1,
66699cf8f21e06aaf88dda41,TCR,2024-06-24_14h46.54.620,LearnStrategy,2023.2.3,Win32,60.24096386,3,1,1,0.008333333,0.00462963,1,0,0,1.0628,rock_grid_rect_2,2,09,-1,-1,1.063,-0.10462963,-0.259259259,1,0,0,1.1641,Basalt_rect,2,1.164,1,0,0,0,0,1,,,,,,,,,,,,,
66699cf8f21e06aaf88dda41,TCR,2024-06-24_14h46.54.620,LearnStrategy,2023.2.3,Win32,60.24096386,3,1,2,0.039814815,-0.005555556,1,0,0,0.7466,rock_grid_rect_2,6,11,-1,-1,0.747,0.122222222,-0.398148148,1,0,0,1.8118,Peridotite_rect,7,1.812,0,1,0,1,0,1,,,,,,,,,,,,,
66699cf8f21e06aaf88dda41,TCR,2024-06-24_14h46.54.620,LearnStrategy,2023.2.3,Win32,60.24096386,3,1,3,0.028703704,-0.007407407,1,0,0,0.8298,rock_grid_rect_2,7,15,-1,-1,0.83,0.363888889,-0.231481481,1,0,0,1.9952,Gabbro_rect,4,1.995,0,2,0,2,0,1,,,,,,,,,,,,,
66699cf8f21e06aaf88dda41,TCR,2024-06-24_14h46.54.620,LearnStrategy,2023.2.3,Win32,60.24096386,3,1,4,0.101851852,-0.007407407,1,0,0,0.6127,rock_grid_rect_2,7,13,-1,-1,0.613,-0.073148148,-0.4,1,0,0,2.6623,Pegmatite_rect,6,2.662,0,3,0,3,0,1,,,,,,,,,,,,,
66699cf8f21e06aaf88dda41,TCR,2024-06-24_14h46.54.620,LearnStrategy,2023.2.3,Win32,60.24096386,3,1,5,0.07037037,-0.008333333,1,0,0,0.5795,rock_grid_rect_2,6,03,-1,-1,0.579,-0.037962963,-0.39537037,1,0,0,1.2625,Pegmatite_rect,6,1.262,1,4,0,4,0,1,,,,,,,,,,,,,
66699cf8f21e06aaf88dda41,TCR,2024-06-24_14h46.54.620,LearnStrategy,2023.2.3,Win32,60.24096386,3,1,6,0.056481481,-0.008333333,1,0,0,0.5322,rock_grid_rect_2,1,06,-1,-1,0.532,0.059259259,-0.231481481,1,0,0,1.1938,Diorite_rect,3,1.194,0,5,0,5,0,1,,,,,,,,,,,,,
66699cf8f21e06aaf88dda41,TCR,2024-06-24_14h46.54.620,LearnStrategy,2023.2.3,Win32,60.24096386,3,1,7,0.037037037,-0.014814815,1,0,0,0.7126,rock_grid_rect_2,4,05,-1,-1,0.713,0.394444444,-0.242592593,1,0,0,3.728,Gabbro_rect,4,3.728,1,6,0,6,0,1,,,,,,,,,,,,,
66699cf8f21e06aaf88dda41,TCR,2024-06-24_14h46.54.620,LearnStrategy,2023.2.3,Win32,60.24096386,3,1,8,0.015740741,0.001851852,1,0,0,0.7648,rock_grid_rect_2,3,08,-1,-1,0.765,0.1,-0.252777778,1,0,0,1.4453,Diorite_rect,3,1.445,1,7,0,7,0,1,,,,,,,,,,,,,
66699cf8f21e06aaf88dda41,TCR,2024-06-24_14h46.54.620,LearnStrategy,2023.2.3,Win32,60.24096386,3,1,9,0.062962963,0.011111111,1,0,0,0.7491,rock_grid_rect_2,7,02,-1,-1,0.749,0.355555556,-0.240740741,1,0,0,1.5627,Gabbro_rect,4,1.563,0,8,0,8,0,1,,,,,,,,,,,,,
66699cf8f21e06aaf88dda41,TCR,2024-06-24_14h46.54.620,LearnStrategy,2023.2.3,Win32,60.24096386,3,1,10,0.026851852,0.006481481,1,0,0,0.6488,rock_grid_rect_2,7,16,-1,-1,0.649,0.335185185,-0.264814815,1,0,0,4.9791,Gabbro_rect,4,4.979,0,9,0,9,0,1,,,,,,,,,,,,,
66699cf8f21e06aaf88dda41,TCR,2024-06-24_14h46.54.620,LearnStrategy,2023.2.3,Win32,60.24096386,3,1,11,0.073148148,-0.009259259,1,0,0,20.9998,rock_grid_rect_2,2,04,-1,-1,21,-0.09537037,-0.232407407,1,0,0,1.4283,Basalt_rect,2,1.428,1,10,0,10,0,1,,,,,,,,,,,,,
66699cf8f21e06aaf88dda41,TCR,2024-06-24_14h46.54.620,LearnStrategy,2023.2.3,Win32,60.24096386,3,1,12,0.019444444,-0.008333333,1,0,0,0.6633,rock_grid_rect_2,3,09,-1,-1,0.663,0.103703704,-0.263888889,1,0,0,2.7289,Diorite_rect,3,2.729,1,11,0,11,0,1,,,,,,,,,,,,,
66699cf8f21e06aaf88dda41,TCR,2024-06-24_14h46.54.620,LearnStrategy,2023.2.3,Win32,60.24096386,3,1,13,-0.017592593,0.006481481,1,0,0,0.7314,rock_grid_rect_2,6,11,-1,-1,0.731,0.169444444,-0.412037037,1,0,0,1.5455,Peridotite_rect,7,1.546,0,12,0,12,0,1,,,,,,,,,,,,,
66699cf8f21e06aaf88dda41,TCR,2024-06-24_14h46.54.620,LearnStrategy,2023.2.3,Win32,60.24096386,3,1,14,-0.006481481,-0.002777778,1,0,0,0.699,rock_grid_rect_2,4,14,-1,-1,0.699,-0.074074074,-0.25462963,1,0,0,1.4456,Basalt_rect,2,1.446,0,13,0,13,0,1,,,,,,,,,,,,,
66699cf8f21e06aaf88dda41,TCR,2024-06-24_14h46.54.620,LearnStrategy,2023.2.3,Win32,60.24096386,3,1,15,0.073148148,-0.005555556,1,0,0,0.849,rock_grid_rect_2,1,02,-1,-1,0.849,-0.402777778,-0.263888889,1,0,0,1.4956,Andesite_rect,1,1.496,1,14,0,14,0,1,,,,,,,,,,,,,
66699cf8f21e06aaf88dda41,TCR,2024-06-24_14h46.54.620,LearnStrategy,2023.2.3,Win32,60.24096386,3,1,16,0.026851852,-0.009259259,1,0,0,0.8291,rock_grid_rect_2,6,03,-1,-1,0.829,0.116666667,-0.393518519,1,0,0,2.3459,Peridotite_rect,7,2.346,0,15,0,15,0,1,,,,,,,,,,,,,
66699cf8f21e06aaf88dda41,TCR,2024-06-24_14h46.54.620,LearnStrategy,2023.2.3,Win32,60.24096386,3,2,1,,,,,,,,5,02,,,,,,,,,,,5,1.015,1,,,,,,-0.35462963,-0.40462963,1,0,0,1.0151,Obsidian_rect,0,0,0,0,1,
66699cf8f21e06aaf88dda41,TCR,2024-06-24_14h46.54.620,LearnStrategy,2023.2.3,Win32,60.24096386,3,2,2,,,,,,,,7,10,,,,,,,,,,,4,2.528,0,,,,,,0.4,-0.257407407,1,0,0,2.5281,Gabbro_rect,1,0,1,0,1,
66699cf8f21e06aaf88dda41,TCR,2024-06-24_14h46.54.620,LearnStrategy,2023.2.3,Win32,60.24096386,3,2,3,,,,,,,,4,15,,,,,,,,,,,1,1.483,0,,,,,,-0.377777778,-0.234259259,1,0,0,1.4833,Andesite_rect,2,0,2,0,1,
66699cf8f21e06aaf88dda41,TCR,2024-06-24_14h46.54.620,LearnStrategy,2023.2.3,Win32,60.24096386,3,2,4,,,,,,,,7,05,,,,,,,,,,,7,2.021,1,,,,,,0.12037037,-0.400925926,1,0,0,2.0208,Peridotite_rect,3,0,3,0,1,
66699cf8f21e06aaf88dda41,TCR,2024-06-24_14h46.54.620,LearnStrategy,2023.2.3,Win32,60.24096386,3,2,5,,,,,,,,6,10,,,,,,,,,,,6,1.228,1,,,,,,-0.081481481,-0.412962963,1,0,0,1.2281,Pegmatite_rect,4,0,4,0,1,
66699cf8f21e06aaf88dda41,TCR,2024-06-24_14h46.54.620,LearnStrategy,2023.2.3,Win32,60.24096386,3,2,6,,,,,,,,3,15,,,,,,,,,,,3,1.219,1,,,,,,0.103703704,-0.255555556,1,0,0,1.2195,Diorite_rect,5,0,5,0,1,
66699cf8f21e06aaf88dda41,TCR,2024-06-24_14h46.54.620,LearnStrategy,2023.2.3,Win32,60.24096386,3,2,7,,,,,,,,8,13,,,,,,,,,,,8,0.801,1,,,,,,0.362962963,-0.415740741,1,0,0,0.8007,Pumice_rect,6,0,6,0,1,
66699cf8f21e06aaf88dda41,TCR,2024-06-24_14h46.54.620,LearnStrategy,2023.2.3,Win32,60.24096386,3,2,8,,,,,,,,4,12,,,,,,,,,,,2,1.483,0,,,,,,-0.180555556,-0.232407407,1,0,0,1.4828,Basalt_rect,7,0,7,0,1,
66699cf8f21e06aaf88dda41,TCR,2024-06-24_14h46.54.620,LearnStrategy,2023.2.3,Win32,60.24096386,3,2,9,,,,,,,,1,05,,,,,,,,,,,1,1.386,1,,,,,,-0.367592593,-0.240740741,1,0,0,1.3855,Andesite_rect,8,0,8,0,1,
66699cf8f21e06aaf88dda41,TCR,2024-06-24_14h46.54.620,LearnStrategy,2023.2.3,Win32,60.24096386,3,2,10,,,,,,,,8,09,,,,,,,,,,,8,1.028,1,,,,,,0.375925926,-0.405555556,1,0,0,1.0282,Pumice_rect,9,0,9,0,1,
66699cf8f21e06aaf88dda41,TCR,2024-06-24_14h46.54.620,LearnStrategy,2023.2.3,Win32,60.24096386,3,2,11,,,,,,,,5,10,,,,,,,,,,,5,0.825,1,,,,,,-0.365740741,-0.39537037,1,0,0,0.8254,Obsidian_rect,10,0,10,0,1,
66699cf8f21e06aaf88dda41,TCR,2024-06-24_14h46.54.620,LearnStrategy,2023.2.3,Win32,60.24096386,3,2,12,,,,,,,,2,14,,,,,,,,,,,8,0.862,0,,,,,,0.433333333,-0.402777778,1,0,0,0.8615,Pumice_rect,11,0,11,0,1,
66699cf8f21e06aaf88dda41,TCR,2024-06-24_14h46.54.620,LearnStrategy,2023.2.3,Win32,60.24096386,3,2,13,,,,,,,,2,11,,,,,,,,,,,4,1.911,0,,,,,,0.381481481,-0.257407407,1,0,0,1.9108,Gabbro_rect,12,0,12,0,1,
66699cf8f21e06aaf88dda41,TCR,2024-06-24_14h46.54.620,LearnStrategy,2023.2.3,Win32,60.24096386,3,2,14,,,,,,,,3,11,,,,,,,,,,,3,1.188,1,,,,,,0.048148148,-0.244444444,1,0,0,1.1883,Diorite_rect,13,0,13,0,1,
66699cf8f21e06aaf88dda41,TCR,2024-06-24_14h46.54.620,LearnStrategy,2023.2.3,Win32,60.24096386,3,2,15,,,,,,,,1,14,,,,,,,,,,,6,5.649,0,,,,,,-0.137962963,-0.400925926,1,0,0,5.6489,Pegmatite_rect,14,0,14,0,1,
66699cf8f21e06aaf88dda41,TCR,2024-06-24_14h46.54.620,LearnStrategy,2023.2.3,Win32,60.24096386,3,2,16,,,,,,,,6,07,,,,,,,,,,,7,1.531,0,,,,,,0.137962963,-0.409259259,1,0,0,1.5312,Peridotite_rect,15,0,15,0,1,
66699cf8f21e06aaf88dda41,TCR,2024-06-24_14h46.54.620,LearnStrategy,2023.2.3,Win32,60.24096386,4,1,1,0.043518519,-0.017592593,1,0,0,1.0822,rock_grid_rect_2,4,10,-1,-1,1.082,-0.084259259,-0.239814815,1,0,0,1.2952,Basalt_rect,2,1.295,0,0,0,0,0,1,,,,,,,,,,,,,
66699cf8f21e06aaf88dda41,TCR,2024-06-24_14h46.54.620,LearnStrategy,2023.2.3,Win32,60.24096386,4,1,2,-0.015740741,0.021296296,1,0,0,0.8293,rock_grid_rect_2,2,05,-1,-1,0.829,-0.085185185,-0.237037037,1,0,0,1.6457,Basalt_rect,2,1.646,1,1,0,1,0,1,,,,,,,,,,,,,
66699cf8f21e06aaf88dda41,TCR,2024-06-24_14h46.54.620,LearnStrategy,2023.2.3,Win32,60.24096386,4,1,3,0.069444444,-0.017592593,1,0,0,0.8658,rock_grid_rect_2,7,15,-1,-1,0.866,0.387962963,-0.259259259,1,0,0,1.7553,Gabbro_rect,4,1.755,0,2,0,2,0,1,,,,,,,,,,,,,
66699cf8f21e06aaf88dda41,TCR,2024-06-24_14h46.54.620,LearnStrategy,2023.2.3,Win32,60.24096386,4,1,4,-0.003703704,-0.014814815,1,0,0,0.6799,rock_grid_rect_2,8,06,-1,-1,0.68,0.365740741,-0.392592593,1,0,0,1.0122,Pumice_rect,8,1.012,1,3,0,3,0,1,,,,,,,,,,,,,
66699cf8f21e06aaf88dda41,TCR,2024-06-24_14h46.54.620,LearnStrategy,2023.2.3,Win32,60.24096386,4,1,5,-0.023148148,0.02037037,1,0,0,0.63,rock_grid_rect_2,6,05,-1,-1,0.63,-0.125925926,-0.413888889,1,0,0,2.0627,Pegmatite_rect,6,2.063,1,4,0,4,0,1,,,,,,,,,,,,,
66699cf8f21e06aaf88dda41,TCR,2024-06-24_14h46.54.620,LearnStrategy,2023.2.3,Win32,60.24096386,4,1,6,-0.022222222,-0.006481481,1,0,0,0.796,rock_grid_rect_2,6,05,-1,-1,0.796,0.094444444,-0.412962963,1,0,0,1.163,Peridotite_rect,7,1.163,0,5,0,5,0,1,,,,,,,,,,,,,
66699cf8f21e06aaf88dda41,TCR,2024-06-24_14h46.54.620,LearnStrategy,2023.2.3,Win32,60.24096386,4,1,7,-0.022222222,-0.001851852,1,0,0,0.6149,rock_grid_rect_2,3,09,-1,-1,0.615,0.112037037,-0.252777778,1,0,0,0.8453,Diorite_rect,3,0.845,1,6,0,6,0,1,,,,,,,,,,,,,
66699cf8f21e06aaf88dda41,TCR,2024-06-24_14h46.54.620,LearnStrategy,2023.2.3,Win32,60.24096386,4,1,8,0.00462963,0,1,0,0,1.0959,rock_grid_rect_2,2,06,-1,-1,1.096,-0.059259259,-0.234259259,1,0,0,1.3932,Basalt_rect,2,1.393,1,7,0,7,0,1,,,,,,,,,,,,,
66699cf8f21e06aaf88dda41,TCR,2024-06-24_14h46.54.620,LearnStrategy,2023.2.3,Win32,60.24096386,4,1,9,0.058333333,-0.013888889,1,0,0,0.7819,rock_grid_rect_2,7,07,-1,-1,0.782,0.436111111,-0.252777778,1,0,0,2.3127,Gabbro_rect,4,2.313,0,8,0,8,0,1,,,,,,,,,,,,,
66699cf8f21e06aaf88dda41,TCR,2024-06-24_14h46.54.620,LearnStrategy,2023.2.3,Win32,60.24096386,4,1,10,0.049074074,-0.010185185,1,0,0,0.829,rock_grid_rect_2,6,12,-1,-1,0.829,0.118518519,-0.250925926,1,0,0,1.412,Diorite_rect,3,1.412,0,9,0,9,0,1,,,,,,,,,,,,,
66699cf8f21e06aaf88dda41,TCR,2024-06-24_14h46.54.620,LearnStrategy,2023.2.3,Win32,60.24096386,4,1,11,0.039814815,0.003703704,1,0,0,0.6636,rock_grid_rect_2,1,06,-1,-1,0.664,-0.372222222,-0.262037037,1,0,0,1.3622,Andesite_rect,1,1.362,1,10,0,10,0,1,,,,,,,,,,,,,
66699cf8f21e06aaf88dda41,TCR,2024-06-24_14h46.54.620,LearnStrategy,2023.2.3,Win32,60.24096386,4,1,12,0.097222222,-0.007407407,1,0,0,0.63,rock_grid_rect_2,1,09,-1,-1,0.63,-0.047222222,-0.259259259,1,0,0,1.4291,Basalt_rect,2,1.429,0,11,0,11,0,1,,,,,,,,,,,,,
66699cf8f21e06aaf88dda41,TCR,2024-06-24_14h46.54.620,LearnStrategy,2023.2.3,Win32,60.24096386,4,1,13,0.069444444,-0.012037037,1,0,0,0.6986,rock_grid_rect_2,4,10,-1,-1,0.699,-0.35,-0.394444444,1,0,0,3.229,Obsidian_rect,5,3.229,0,12,0,12,0,1,,,,,,,,,,,,,
66699cf8f21e06aaf88dda41,TCR,2024-06-24_14h46.54.620,LearnStrategy,2023.2.3,Win32,60.24096386,4,1,14,0.116666667,-0.006481481,1,0,0,0.6452,rock_grid_rect_2,2,16,-1,-1,0.645,0.414814815,-0.412037037,1,0,0,1.3649,Pumice_rect,8,1.365,0,13,0,13,0,1,,,,,,,,,,,,,
66699cf8f21e06aaf88dda41,TCR,2024-06-24_14h46.54.620,LearnStrategy,2023.2.3,Win32,60.24096386,4,1,15,-0.00462963,0.009259259,1,0,0,0.8495,rock_grid_rect_2,7,04,-1,-1,0.85,-0.147222222,-0.4,1,0,0,1.4618,Pegmatite_rect,6,1.462,0,14,0,14,0,1,,,,,,,,,,,,,
66699cf8f21e06aaf88dda41,TCR,2024-06-24_14h46.54.620,LearnStrategy,2023.2.3,Win32,60.24096386,4,1,16,0.075925926,0.006481481,1,0,0,0.6467,rock_grid_rect_2,4,03,-1,-1,0.647,0.110185185,-0.236111111,1,0,0,1.1791,Diorite_rect,3,1.179,0,15,0,15,0,1,,,,,,,,,,,,,
66699cf8f21e06aaf88dda41,TCR,2024-06-24_14h46.54.620,LearnStrategy,2023.2.3,Win32,60.24096386,4,2,1,,,,,,,,7,14,,,,,,,,,,,8,1.499,0,,,,,,0.352777778,-0.383333333,1,0,0,1.4991,Pumice_rect,0,0,0,0,1,
66699cf8f21e06aaf88dda41,TCR,2024-06-24_14h46.54.620,LearnStrategy,2023.2.3,Win32,60.24096386,4,2,2,,,,,,,,2,11,,,,,,,,,,,2,1.928,1,,,,,,-0.097222222,-0.257407407,1,0,0,1.9277,Basalt_rect,1,0,1,0,1,
66699cf8f21e06aaf88dda41,TCR,2024-06-24_14h46.54.620,LearnStrategy,2023.2.3,Win32,60.24096386,4,2,3,,,,,,,,8,14,,,,,,,,,,,8,1.448,1,,,,,,0.393518519,-0.406481481,1,0,0,1.4477,Pumice_rect,2,0,2,0,1,
66699cf8f21e06aaf88dda41,TCR,2024-06-24_14h46.54.620,LearnStrategy,2023.2.3,Win32,60.24096386,4,2,4,,,,,,,,7,08,,,,,,,,,,,4,1.621,0,,,,,,0.425,-0.264814815,1,0,0,1.6212,Gabbro_rect,3,0,3,0,1,
66699cf8f21e06aaf88dda41,TCR,2024-06-24_14h46.54.620,LearnStrategy,2023.2.3,Win32,60.24096386,4,2,5,,,,,,,,6,13,,,,,,,,,,,6,1.532,1,,,,,,-0.096296296,-0.394444444,1,0,0,1.5318,Pegmatite_rect,4,0,4,0,1,
66699cf8f21e06aaf88dda41,TCR,2024-06-24_14h46.54.620,LearnStrategy,2023.2.3,Win32,60.24096386,4,2,6,,,,,,,,2,12,,,,,,,,,,,4,3.551,0,,,,,,0.45462963,-0.267592593,1,0,0,3.551,Gabbro_rect,5,0,5,0,1,
66699cf8f21e06aaf88dda41,TCR,2024-06-24_14h46.54.620,LearnStrategy,2023.2.3,Win32,60.24096386,4,2,7,,,,,,,,8,13,,,,,,,,,,,8,0.782,1,,,,,,0.338888889,-0.403703704,1,0,0,0.7822,Pumice_rect,6,0,6,0,1,
66699cf8f21e06aaf88dda41,TCR,2024-06-24_14h46.54.620,LearnStrategy,2023.2.3,Win32,60.24096386,4,2,8,,,,,,,,5,02,,,,,,,,,,,5,1.152,1,,,,,,-0.391666667,-0.388888889,1,0,0,1.1518,Obsidian_rect,7,0,7,0,1,
66699cf8f21e06aaf88dda41,TCR,2024-06-24_14h46.54.620,LearnStrategy,2023.2.3,Win32,60.24096386,4,2,9,,,,,,,,4,13,,,,,,,,,,,4,2.868,1,,,,,,0.380555556,-0.249074074,1,0,0,2.8675,Gabbro_rect,8,0,8,0,1,
66699cf8f21e06aaf88dda41,TCR,2024-06-24_14h46.54.620,LearnStrategy,2023.2.3,Win32,60.24096386,4,2,10,,,,,,,,6,10,,,,,,,,,,,6,1.287,1,,,,,,-0.106481481,-0.396296296,1,0,0,1.2865,Pegmatite_rect,9,0,9,0,1,
66699cf8f21e06aaf88dda41,TCR,2024-06-24_14h46.54.620,LearnStrategy,2023.2.3,Win32,60.24096386,4,2,11,,,,,,,,1,07,,,,,,,,,,,3,2.156,0,,,,,,0.12037037,-0.268518519,1,0,0,2.1564,Diorite_rect,10,0,10,0,1,
66699cf8f21e06aaf88dda41,TCR,2024-06-24_14h46.54.620,LearnStrategy,2023.2.3,Win32,60.24096386,4,2,12,,,,,,,,1,14,,,,,,,,,,,4,2.852,0,,,,,,0.424074074,-0.243518519,1,0,0,2.8525,Gabbro_rect,11,0,11,0,1,
66699cf8f21e06aaf88dda41,TCR,2024-06-24_14h46.54.620,LearnStrategy,2023.2.3,Win32,60.24096386,4,2,13,,,,,,,,5,10,,,,,,,,,,,5,0.876,1,,,,,,-0.410185185,-0.402777778,1,0,0,0.8757,Obsidian_rect,12,0,12,0,1,
66699cf8f21e06aaf88dda41,TCR,2024-06-24_14h46.54.620,LearnStrategy,2023.2.3,Win32,60.24096386,4,2,14,,,,,,,,4,15,,,,,,,,,,,1,1.115,0,,,,,,-0.378703704,-0.241666667,1,0,0,1.1154,Andesite_rect,13,0,13,0,1,
66699cf8f21e06aaf88dda41,TCR,2024-06-24_14h46.54.620,LearnStrategy,2023.2.3,Win32,60.24096386,4,2,15,,,,,,,,3,10,,,,,,,,,,,3,1.25,1,,,,,,0.122222222,-0.252777778,1,0,0,1.2495,Diorite_rect,14,0,14,0,1,
66699cf8f21e06aaf88dda41,TCR,2024-06-24_14h46.54.620,LearnStrategy,2023.2.3,Win32,60.24096386,4,2,16,,,,,,,,3,15,,,,,,,,,,,3,1.619,1,,,,,,0.122222222,-0.253703704,1,0,0,1.6189,Diorite_rect,15,0,15,0,1,
66699cf8f21e06aaf88dda41,TCR,2024-06-24_14h46.54.620,LearnStrategy,2023.2.3,Win32,60.24096386,5,1,1,0.099074074,0.001851852,1,0,0,2.1194,rock_grid_rect_2,2,09,-1,-1,2.119,-0.118518519,-0.269444444,1,0,0,1.0139,Basalt_rect,2,1.014,1,0,0,0,0,1,,,,,,,,,,,,,
66699cf8f21e06aaf88dda41,TCR,2024-06-24_14h46.54.620,LearnStrategy,2023.2.3,Win32,60.24096386,5,1,2,0.075,0.000925926,1,0,0,0.8546,rock_grid_rect_2,6,12,-1,-1,0.855,0.216666667,-0.259259259,1,0,0,1.5801,Diorite_rect,3,1.58,0,1,0,1,0,1,,,,,,,,,,,,,
66699cf8f21e06aaf88dda41,TCR,2024-06-24_14h46.54.620,LearnStrategy,2023.2.3,Win32,60.24096386,5,1,3,0.068518519,0.016666667,1,0,0,0.6191,rock_grid_rect_2,4,09,-1,-1,0.619,-0.143518519,-0.244444444,1,0,0,2.7632,Basalt_rect,2,2.763,0,2,0,2,0,1,,,,,,,,,,,,,
66699cf8f21e06aaf88dda41,TCR,2024-06-24_14h46.54.620,LearnStrategy,2023.2.3,Win32,60.24096386,5,1,4,0.012962963,-0.02037037,1,0,0,0.9708,rock_grid_rect_2,2,10,-1,-1,0.971,-0.10462963,-0.264814815,1,0,0,2.1144,Basalt_rect,2,2.114,1,3,0,3,0,1,,,,,,,,,,,,,
66699cf8f21e06aaf88dda41,TCR,2024-06-24_14h46.54.620,LearnStrategy,2023.2.3,Win32,60.24096386,5,1,5,0.067592593,-0.012962963,1,0,0,0.8012,rock_grid_rect_2,3,14,-1,-1,0.801,0.083333333,-0.251851852,1,0,0,1.1137,Diorite_rect,3,1.114,1,4,0,4,0,1,,,,,,,,,,,,,
66699cf8f21e06aaf88dda41,TCR,2024-06-24_14h46.54.620,LearnStrategy,2023.2.3,Win32,60.24096386,5,1,6,0.002777778,-0.019444444,1,0,0,0.8011,rock_grid_rect_2,1,09,-1,-1,0.801,-0.318518519,-0.259259259,1,0,0,1.4969,Andesite_rect,1,1.497,1,5,0,5,0,1,,,,,,,,,,,,,
66699cf8f21e06aaf88dda41,TCR,2024-06-24_14h46.54.620,LearnStrategy,2023.2.3,Win32,60.24096386,5,1,7,0.025925926,-0.005555556,1,0,0,0.6703,rock_grid_rect_2,4,03,-1,-1,0.67,-0.398148148,-0.244444444,1,0,0,1.3145,Andesite_rect,1,1.314,0,6,0,6,0,1,,,,,,,,,,,,,
66699cf8f21e06aaf88dda41,TCR,2024-06-24_14h46.54.620,LearnStrategy,2023.2.3,Win32,60.24096386,5,1,8,0.017592593,0.001851852,1,0,0,0.8183,rock_grid_rect_2,4,14,-1,-1,0.818,-0.072222222,-0.40462963,1,0,0,4.3305,Pegmatite_rect,6,4.33,0,7,0,7,0,1,,,,,,,,,,,,,
66699cf8f21e06aaf88dda41,TCR,2024-06-24_14h46.54.620,LearnStrategy,2023.2.3,Win32,60.24096386,5,1,9,0.013888889,0.007407407,1,0,0,0.5376,rock_grid_rect_2,1,02,-1,-1,0.538,0.04537037,-0.391666667,1,0,0,2.3656,Peridotite_rect,7,2.366,0,8,0,8,0,1,,,,,,,,,,,,,
66699cf8f21e06aaf88dda41,TCR,2024-06-24_14h46.54.620,LearnStrategy,2023.2.3,Win32,60.24096386,5,1,10,-0.012037037,0.012037037,1,0,0,0.9182,rock_grid_rect_2,7,02,-1,-1,0.918,0.3,-0.268518519,1,0,0,1.5635,Gabbro_rect,4,1.563,0,9,0,9,0,1,,,,,,,,,,,,,
66699cf8f21e06aaf88dda41,TCR,2024-06-24_14h46.54.620,LearnStrategy,2023.2.3,Win32,60.24096386,5,1,11,-0.007407407,-0.014814815,1,0,0,0.8199,rock_grid_rect_2,8,06,-1,-1,0.82,0.356481481,-0.391666667,1,0,0,0.8306,Pumice_rect,8,0.831,1,10,0,10,0,1,,,,,,,,,,,,,
66699cf8f21e06aaf88dda41,TCR,2024-06-24_14h46.54.620,LearnStrategy,2023.2.3,Win32,60.24096386,5,1,12,0.087037037,0.012037037,1,0,0,0.7714,rock_grid_rect_2,6,09,-1,-1,0.771,-0.067592593,-0.396296296,1,0,0,1.7967,Pegmatite_rect,6,1.797,1,11,0,11,0,1,,,,,,,,,,,,,
66699cf8f21e06aaf88dda41,TCR,2024-06-24_14h46.54.620,LearnStrategy,2023.2.3,Win32,60.24096386,5,1,13,0.012037037,-0.006481481,1,0,0,0.9102,rock_grid_rect_2,1,11,-1,-1,0.91,0.089814815,-0.37962963,1,0,0,1.5198,Peridotite_rect,7,1.52,0,12,0,12,0,1,,,,,,,,,,,,,
66699cf8f21e06aaf88dda41,TCR,2024-06-24_14h46.54.620,LearnStrategy,2023.2.3,Win32,60.24096386,5,1,14,0.028703704,0.010185185,1,0,0,0.5698,rock_grid_rect_2,7,13,-1,-1,0.57,0.391666667,-0.24537037,1,0,0,1.1639,Gabbro_rect,4,1.164,0,13,0,13,0,1,,,,,,,,,,,,,
66699cf8f21e06aaf88dda41,TCR,2024-06-24_14h46.54.620,LearnStrategy,2023.2.3,Win32,60.24096386,5,1,15,0.065740741,0.013888889,1,0,0,0.655,rock_grid_rect_2,2,06,-1,-1,0.655,-0.162037037,-0.234259259,1,0,0,1.9803,Basalt_rect,2,1.98,1,14,0,14,0,1,,,,,,,,,,,,,
66699cf8f21e06aaf88dda41,TCR,2024-06-24_14h46.54.620,LearnStrategy,2023.2.3,Win32,60.24096386,5,1,16,0.05,0.005555556,1,0,0,0.9214,rock_grid_rect_2,7,07,-1,-1,0.921,0.387037037,-0.257407407,1,0,0,1.347,Gabbro_rect,4,1.347,0,15,0,15,0,1,,,,,,,,,,,,,
66699cf8f21e06aaf88dda41,TCR,2024-06-24_14h46.54.620,LearnStrategy,2023.2.3,Win32,60.24096386,5,2,1,,,,,,,,3,11,,,,,,,,,,,3,2.205,1,,,,,,0.175,-0.259259259,1,0,0,2.205,Diorite_rect,0,0,0,0,1,
66699cf8f21e06aaf88dda41,TCR,2024-06-24_14h46.54.620,LearnStrategy,2023.2.3,Win32,60.24096386,5,2,2,,,,,,,,6,16,,,,,,,,,,,6,1.22,1,,,,,,-0.118518519,-0.406481481,1,0,0,1.2198,Pegmatite_rect,1,0,1,0,1,
66699cf8f21e06aaf88dda41,TCR,2024-06-24_14h46.54.620,LearnStrategy,2023.2.3,Win32,60.24096386,5,2,3,,,,,,,,5,04,,,,,,,,,,,5,1.1,1,,,,,,-0.328703704,-0.390740741,1,0,0,1.1004,Obsidian_rect,2,0,2,0,1,
66699cf8f21e06aaf88dda41,TCR,2024-06-24_14h46.54.620,LearnStrategy,2023.2.3,Win32,60.24096386,5,2,4,,,,,,,,5,05,,,,,,,,,,,5,1.105,1,,,,,,-0.332407407,-0.390740741,1,0,0,1.1052,Obsidian_rect,3,0,3,0,1,
66699cf8f21e06aaf88dda41,TCR,2024-06-24_14h46.54.620,LearnStrategy,2023.2.3,Win32,60.24096386,5,2,5,,,,,,,,2,01,,,,,,,,,,,2,1.032,1,,,,,,-0.10462963,-0.269444444,1,0,0,1.032,Basalt_rect,4,0,4,0,1,
66699cf8f21e06aaf88dda41,TCR,2024-06-24_14h46.54.620,LearnStrategy,2023.2.3,Win32,60.24096386,5,2,6,,,,,,,,7,06,,,,,,,,,,,4,1.117,0,,,,,,0.469444444,-0.24537037,1,0,0,1.1166,Gabbro_rect,5,0,5,0,1,
66699cf8f21e06aaf88dda41,TCR,2024-06-24_14h46.54.620,LearnStrategy,2023.2.3,Win32,60.24096386,5,2,7,,,,,,,,7,12,,,,,,,,,,,3,2.387,0,,,,,,0.135185185,-0.262037037,1,0,0,2.3866,Diorite_rect,6,0,6,0,1,
66699cf8f21e06aaf88dda41,TCR,2024-06-24_14h46.54.620,LearnStrategy,2023.2.3,Win32,60.24096386,5,2,8,,,,,,,,2,02,,,,,,,,,,,2,1.089,1,,,,,,-0.175925926,-0.248148148,1,0,0,1.0889,Basalt_rect,7,0,7,0,1,
66699cf8f21e06aaf88dda41,TCR,2024-06-24_14h46.54.620,LearnStrategy,2023.2.3,Win32,60.24096386,5,2,9,,,,,,,,4,16,,,,,,,,,,,5,3.903,0,,,,,,-0.359259259,-0.393518519,1,0,0,3.9025,Obsidian_rect,8,0,8,0,1,
66699cf8f21e06aaf88dda41,TCR,2024-06-24_14h46.54.620,LearnStrategy,2023.2.3,Win32,60.24096386,5,2,10,,,,,,,,1,03,,,,,,,,,,,1,1.754,1,,,,,,-0.324074074,-0.257407407,1,0,0,1.7542,Andesite_rect,9,0,9,0,1,
66699cf8f21e06aaf88dda41,TCR,2024-06-24_14h46.54.620,LearnStrategy,2023.2.3,Win32,60.24096386,5,2,11,,,,,,,,8,10,,,,,,,,,,,8,1.595,1,,,,,,0.394444444,-0.386111111,1,0,0,1.595,Pumice_rect,10,0,10,0,1,
66699cf8f21e06aaf88dda41,TCR,2024-06-24_14h46.54.620,LearnStrategy,2023.2.3,Win32,60.24096386,5,2,12,,,,,,,,8,09,,,,,,,,,,,8,1.382,1,,,,,,0.401851852,-0.405555556,1,0,0,1.3825,Pumice_rect,11,0,11,0,1,
66699cf8f21e06aaf88dda41,TCR,2024-06-24_14h46.54.620,LearnStrategy,2023.2.3,Win32,60.24096386,5,2,13,,,,,,,,6,06,,,,,,,,,,,7,1.717,0,,,,,,0.107407407,-0.409259259,1,0,0,1.7172,Peridotite_rect,12,0,12,0,1,
66699cf8f21e06aaf88dda41,TCR,2024-06-24_14h46.54.620,LearnStrategy,2023.2.3,Win32,60.24096386,5,2,14,,,,,,,,4,01,,,,,,,,,,,1,1.704,0,,,,,,-0.352777778,-0.236111111,1,0,0,1.7043,Andesite_rect,13,0,13,0,1,
66699cf8f21e06aaf88dda41,TCR,2024-06-24_14h46.54.620,LearnStrategy,2023.2.3,Win32,60.24096386,5,2,15,,,,,,,,3,16,,,,,,,,,,,3,1.033,1,,,,,,0.078703704,-0.231481481,1,0,0,1.0329,Diorite_rect,14,0,14,0,1,
66699cf8f21e06aaf88dda41,TCR,2024-06-24_14h46.54.620,LearnStrategy,2023.2.3,Win32,60.24096386,5,2,16,,,,,,,,1,05,,,,,,,,,,,4,2.076,0,,,,,,0.412037037,-0.247222222,1,0,0,2.0764,Gabbro_rect,15,0,15,0,1,
66699cf8f21e06aaf88dda41,TCR,2024-06-24_14h46.54.620,LearnStrategy,2023.2.3,Win32,60.24096386,6,1,1,-0.034259259,0.001851852,1,0,0,1.3799,rock_grid_rect_2,4,05,-1,-1,1.38,0.452777778,-0.257407407,1,0,0,1.4954,Gabbro_rect,4,1.495,1,0,0,0,0,1,,,,,,,,,,,,,
66699cf8f21e06aaf88dda41,TCR,2024-06-24_14h46.54.620,LearnStrategy,2023.2.3,Win32,60.24096386,6,1,2,0.05,0.005555556,1,0,0,1.2465,rock_grid_rect_2,4,10,-1,-1,1.246,-0.1,-0.252777778,1,0,0,2.003,Basalt_rect,2,2.003,0,1,0,1,0,1,,,,,,,,,,,,,
66699cf8f21e06aaf88dda41,TCR,2024-06-24_14h46.54.620,LearnStrategy,2023.2.3,Win32,60.24096386,6,1,3,0.060185185,-0.000925926,1,0,0,0.5608,rock_grid_rect_2,7,16,-1,-1,0.561,0.382407407,-0.22962963,1,0,0,1.1959,Gabbro_rect,4,1.196,0,2,0,2,0,1,,,,,,,,,,,,,
66699cf8f21e06aaf88dda41,TCR,2024-06-24_14h46.54.620,LearnStrategy,2023.2.3,Win32,60.24096386,6,1,4,-0.011111111,-0.019444444,1,0,0,0.7325,rock_grid_rect_2,2,06,-1,-1,0.733,-0.144444444,-0.252777778,1,0,0,1.0125,Basalt_rect,2,1.013,1,3,0,3,0,1,,,,,,,,,,,,,
66699cf8f21e06aaf88dda41,TCR,2024-06-24_14h46.54.620,LearnStrategy,2023.2.3,Win32,60.24096386,6,1,5,0.051851852,-0.017592593,1,0,0,0.8658,rock_grid_rect_2,1,11,-1,-1,0.866,-0.32037037,-0.237962963,1,0,0,4.0787,Andesite_rect,1,4.079,1,4,0,4,0,1,,,,,,,,,,,,,
66699cf8f21e06aaf88dda41,TCR,2024-06-24_14h46.54.620,LearnStrategy,2023.2.3,Win32,60.24096386,6,1,6,0.025925926,-0.000925926,1,0,0,0.8319,rock_grid_rect_2,7,13,-1,-1,0.832,0.359259259,-0.258333333,1,0,0,1.1957,Gabbro_rect,4,1.196,0,5,0,5,0,1,,,,,,,,,,,,,
66699cf8f21e06aaf88dda41,TCR,2024-06-24_14h46.54.620,LearnStrategy,2023.2.3,Win32,60.24096386,6,1,7,0.039814815,-0.013888889,1,0,0,3.2155,rock_grid_rect_2,2,09,-1,-1,3.215,-0.137962963,-0.253703704,1,0,0,1.0457,Basalt_rect,2,1.046,1,6,0,6,0,1,,,,,,,,,,,,,
66699cf8f21e06aaf88dda41,TCR,2024-06-24_14h46.54.620,LearnStrategy,2023.2.3,Win32,60.24096386,6,1,8,0.062962963,0.000925926,1,0,0,0.8653,rock_grid_rect_2,1,11,-1,-1,0.865,-0.403703704,-0.259259259,1,0,0,1.462,Andesite_rect,1,1.462,1,7,0,7,0,1,,,,,,,,,,,,,
66699cf8f21e06aaf88dda41,TCR,2024-06-24_14h46.54.620,LearnStrategy,2023.2.3,Win32,60.24096386,6,1,9,0.103703704,-0.021296296,1,0,0,0.88,rock_grid_rect_2,3,14,-1,-1,0.88,0.12037037,-0.247222222,1,0,0,0.9787,Diorite_rect,3,0.979,1,8,0,8,0,1,,,,,,,,,,,,,
66699cf8f21e06aaf88dda41,TCR,2024-06-24_14h46.54.620,LearnStrategy,2023.2.3,Win32,60.24096386,6,1,10,-0.014814815,-0.012037037,1,0,0,1.0324,rock_grid_rect_2,1,09,-1,-1,1.032,-0.382407407,-0.246296296,1,0,0,1.2954,Andesite_rect,1,1.295,1,9,0,9,0,1,,,,,,,,,,,,,
66699cf8f21e06aaf88dda41,TCR,2024-06-24_14h46.54.620,LearnStrategy,2023.2.3,Win32,60.24096386,6,1,11,0.087962963,-0.014814815,1,0,0,0.7989,rock_grid_rect_2,6,05,-1,-1,0.799,0.144444444,-0.259259259,1,0,0,2.0624,Diorite_rect,3,2.062,0,10,0,10,0,1,,,,,,,,,,,,,
66699cf8f21e06aaf88dda41,TCR,2024-06-24_14h46.54.620,LearnStrategy,2023.2.3,Win32,60.24096386,6,1,12,0.044444444,-0.014814815,1,0,0,0.5654,rock_grid_rect_2,4,08,-1,-1,0.565,0.346296296,-0.238888889,1,0,0,1.6919,Gabbro_rect,4,1.692,1,11,0,11,0,1,,,,,,,,,,,,,
66699cf8f21e06aaf88dda41,TCR,2024-06-24_14h46.54.620,LearnStrategy,2023.2.3,Win32,60.24096386,6,1,13,-0.013888889,0.022222222,1,0,0,0.5655,rock_grid_rect_2,4,14,-1,-1,0.566,-0.362962963,-0.244444444,1,0,0,1.5624,Andesite_rect,1,1.562,0,12,0,12,0,1,,,,,,,,,,,,,
66699cf8f21e06aaf88dda41,TCR,2024-06-24_14h46.54.620,LearnStrategy,2023.2.3,Win32,60.24096386,6,1,14,0.040740741,-0.009259259,1,0,0,0.7973,rock_grid_rect_2,6,15,-1,-1,0.797,-0.07037037,-0.398148148,1,0,0,2.6956,Pegmatite_rect,6,2.696,1,13,0,13,0,1,,,,,,,,,,,,,
66699cf8f21e06aaf88dda41,TCR,2024-06-24_14h46.54.620,LearnStrategy,2023.2.3,Win32,60.24096386,6,1,15,0.023148148,0.018518519,1,0,0,0.7781,rock_grid_rect_2,7,04,-1,-1,0.778,0.166666667,-0.387962963,1,0,0,3.3455,Peridotite_rect,7,3.346,1,14,0,14,0,1,,,,,,,,,,,,,
66699cf8f21e06aaf88dda41,TCR,2024-06-24_14h46.54.620,LearnStrategy,2023.2.3,Win32,60.24096386,6,1,16,0.094444444,-0.012962963,1,0,0,0.6123,rock_grid_rect_2,7,04,-1,-1,0.612,0.12962963,-0.394444444,1,0,0,1.3124,Peridotite_rect,7,1.312,1,15,0,15,0,1,,,,,,,,,,,,,
66699cf8f21e06aaf88dda41,TCR,2024-06-24_14h46.54.620,LearnStrategy,2023.2.3,Win32,60.24096386,6,2,1,,,,,,,,4,11,,,,,,,,,,,1,4.502,0,,,,,,-0.39537037,-0.269444444,1,0,0,4.5024,Andesite_rect,0,0,0,0,1,
66699cf8f21e06aaf88dda41,TCR,2024-06-24_14h46.54.620,LearnStrategy,2023.2.3,Win32,60.24096386,6,2,2,,,,,,,,3,06,,,,,,,,,,,3,2.628,1,,,,,,0.136111111,-0.252777778,1,0,0,2.6278,Diorite_rect,1,0,1,0,1,
66699cf8f21e06aaf88dda41,TCR,2024-06-24_14h46.54.620,LearnStrategy,2023.2.3,Win32,60.24096386,6,2,3,,,,,,,,5,09,,,,,,,,,,,5,1.025,1,,,,,,-0.388888889,-0.409259259,1,0,0,1.0251,Obsidian_rect,2,0,2,0,1,
66699cf8f21e06aaf88dda41,TCR,2024-06-24_14h46.54.620,LearnStrategy,2023.2.3,Win32,60.24096386,6,2,4,,,,,,,,3,12,,,,,,,,,,,3,1.249,1,,,,,,0.127777778,-0.263888889,1,0,0,1.2492,Diorite_rect,3,0,3,0,1,
66699cf8f21e06aaf88dda41,TCR,2024-06-24_14h46.54.620,LearnStrategy,2023.2.3,Win32,60.24096386,6,2,5,,,,,,,,8,16,,,,,,,,,,,8,0.977,1,,,,,,0.361111111,-0.414814815,1,0,0,0.9771,Pumice_rect,4,0,4,0,1,
66699cf8f21e06aaf88dda41,TCR,2024-06-24_14h46.54.620,LearnStrategy,2023.2.3,Win32,60.24096386,6,2,6,,,,,,,,6,08,,,,,,,,,,,6,2.551,1,,,,,,-0.111111111,-0.393518519,1,0,0,2.551,Pegmatite_rect,5,0,5,0,1,
66699cf8f21e06aaf88dda41,TCR,2024-06-24_14h46.54.620,LearnStrategy,2023.2.3,Win32,60.24096386,6,2,7,,,,,,,,8,15,,,,,,,,,,,8,0.956,1,,,,,,0.328703704,-0.400925926,1,0,0,0.9555,Pumice_rect,6,0,6,0,1,
66699cf8f21e06aaf88dda41,TCR,2024-06-24_14h46.54.620,LearnStrategy,2023.2.3,Win32,60.24096386,6,2,8,,,,,,,,6,07,,,,,,,,,,,7,2.004,0,,,,,,0.175,-0.402777778,1,0,0,2.0035,Peridotite_rect,7,0,7,0,1,
66699cf8f21e06aaf88dda41,TCR,2024-06-24_14h46.54.620,LearnStrategy,2023.2.3,Win32,60.24096386,6,2,9,,,,,,,,2,14,,,,,,,,,,,8,1.886,0,,,,,,0.333333333,-0.414814815,1,0,0,1.8859,Pumice_rect,8,0,8,0,1,
66699cf8f21e06aaf88dda41,TCR,2024-06-24_14h46.54.620,LearnStrategy,2023.2.3,Win32,60.24096386,6,2,10,,,,,,,,7,05,,,,,,,,,,,4,0.921,0,,,,,,0.342592593,-0.237962963,1,0,0,0.921,Gabbro_rect,9,0,9,0,1,
66699cf8f21e06aaf88dda41,TCR,2024-06-24_14h46.54.620,LearnStrategy,2023.2.3,Win32,60.24096386,6,2,11,,,,,,,,1,10,,,,,,,,,,,6,3.045,0,,,,,,-0.042592593,-0.382407407,1,0,0,3.045,Pegmatite_rect,10,0,10,0,1,
66699cf8f21e06aaf88dda41,TCR,2024-06-24_14h46.54.620,LearnStrategy,2023.2.3,Win32,60.24096386,6,2,12,,,,,,,,5,06,,,,,,,,,,,5,1.382,1,,,,,,-0.359259259,-0.4,1,0,0,1.3822,Obsidian_rect,11,0,11,0,1,
66699cf8f21e06aaf88dda41,TCR,2024-06-24_14h46.54.620,LearnStrategy,2023.2.3,Win32,60.24096386,6,2,13,,,,,,,,2,08,,,,,,,,,,,2,0.901,1,,,,,,-0.07962963,-0.253703704,1,0,0,0.9007,Basalt_rect,12,0,12,0,1,
66699cf8f21e06aaf88dda41,TCR,2024-06-24_14h46.54.620,LearnStrategy,2023.2.3,Win32,60.24096386,6,2,14,,,,,,,,4,12,,,,,,,,,,,1,1.866,0,,,,,,-0.356481481,-0.236111111,1,0,0,1.8662,Andesite_rect,13,0,13,0,1,
66699cf8f21e06aaf88dda41,TCR,2024-06-24_14h46.54.620,LearnStrategy,2023.2.3,Win32,60.24096386,6,2,15,,,,,,,,1,01,,,,,,,,,,,1,1.259,1,,,,,,-0.356481481,-0.237037037,1,0,0,1.2585,Andesite_rect,14,0,14,0,1,
66699cf8f21e06aaf88dda41,TCR,2024-06-24_14h46.54.620,LearnStrategy,2023.2.3,Win32,60.24096386,6,2,16,,,,,,,,7,10,,,,,,,,,,,4,1.606,0,,,,,,0.432407407,-0.265740741,1,0,0,1.6056,Gabbro_rect,15,0,15,0,1,
66699cf8f21e06aaf88dda41,TCR,2024-06-24_14h46.54.620,LearnStrategy,2023.2.3,Win32,60.24096386,7,1,1,0.055555556,-0.00462963,1,0,0,0.7468,rock_grid_rect_2,2,16,-1,-1,0.747,0.378703704,-0.402777778,1,0,0,2.4291,Pumice_rect,8,2.429,0,0,0,0,0,1,,,,,,,,,,,,,
66699cf8f21e06aaf88dda41,TCR,2024-06-24_14h46.54.620,LearnStrategy,2023.2.3,Win32,60.24096386,7,1,2,0.018518519,0,1,0,0,0.647,rock_grid_rect_2,7,07,-1,-1,0.647,0.434259259,-0.241666667,1,0,0,1.0287,Gabbro_rect,4,1.029,0,1,0,1,0,1,,,,,,,,,,,,,
66699cf8f21e06aaf88dda41,TCR,2024-06-24_14h46.54.620,LearnStrategy,2023.2.3,Win32,60.24096386,7,1,3,0.071296296,0.010185185,1,0,0,0.8135,rock_grid_rect_2,1,11,-1,-1,0.813,-0.387037037,-0.230555556,1,0,0,2.3123,Andesite_rect,1,2.312,1,2,0,2,0,1,,,,,,,,,,,,,
66699cf8f21e06aaf88dda41,TCR,2024-06-24_14h46.54.620,LearnStrategy,2023.2.3,Win32,60.24096386,7,1,4,-0.034259259,0.014814815,1,0,0,0.8627,rock_grid_rect_2,7,07,-1,-1,0.863,0.175,-0.385185185,1,0,0,2.3196,Peridotite_rect,7,2.32,1,3,0,3,0,1,,,,,,,,,,,,,
66699cf8f21e06aaf88dda41,TCR,2024-06-24_14h46.54.620,LearnStrategy,2023.2.3,Win32,60.24096386,7,1,5,0.038888889,0,1,0,0,0.669,rock_grid_rect_2,4,09,-1,-1,0.669,-0.086111111,-0.248148148,1,0,0,1.2301,Basalt_rect,2,1.23,0,4,0,4,0,1,,,,,,,,,,,,,
66699cf8f21e06aaf88dda41,TCR,2024-06-24_14h46.54.620,LearnStrategy,2023.2.3,Win32,60.24096386,7,1,6,0.006481481,-0.001851852,1,0,0,0.9517,rock_grid_rect_2,4,10,-1,-1,0.952,0.392592593,-0.240740741,1,0,0,1.0796,Gabbro_rect,4,1.08,1,5,0,5,0,1,,,,,,,,,,,,,
66699cf8f21e06aaf88dda41,TCR,2024-06-24_14h46.54.620,LearnStrategy,2023.2.3,Win32,60.24096386,7,1,7,0.062037037,0.008333333,1,0,0,0.9156,rock_grid_rect_2,6,15,-1,-1,0.916,-0.086111111,-0.384259259,1,0,0,1.2994,Pegmatite_rect,6,1.299,1,6,0,6,0,1,,,,,,,,,,,,,
66699cf8f21e06aaf88dda41,TCR,2024-06-24_14h46.54.620,LearnStrategy,2023.2.3,Win32,60.24096386,7,1,8,0.002777778,0.012962963,1,0,0,0.8053,rock_grid_rect_2,1,04,-1,-1,0.805,-0.325,-0.239814815,1,0,0,3.1758,Andesite_rect,1,3.176,1,7,0,7,0,1,,,,,,,,,,,,,
66699cf8f21e06aaf88dda41,TCR,2024-06-24_14h46.54.620,LearnStrategy,2023.2.3,Win32,60.24096386,7,1,9,0.040740741,-0.00462963,1,0,0,0.7646,rock_grid_rect_2,1,04,-1,-1,0.765,-0.322222222,-0.228703704,1,0,0,1.0121,Andesite_rect,1,1.012,1,8,0,8,0,1,,,,,,,,,,,,,
66699cf8f21e06aaf88dda41,TCR,2024-06-24_14h46.54.620,LearnStrategy,2023.2.3,Win32,60.24096386,7,1,10,0.027777778,-0.021296296,1,0,0,0.7319,rock_grid_rect_2,6,12,-1,-1,0.732,-0.12037037,-0.399074074,1,0,0,2.4179,Pegmatite_rect,6,2.418,1,9,0,9,0,1,,,,,,,,,,,,,
66699cf8f21e06aaf88dda41,TCR,2024-06-24_14h46.54.620,LearnStrategy,2023.2.3,Win32,60.24096386,7,1,11,0.001851852,-0.014814815,1,0,0,0.7332,rock_grid_rect_2,2,06,-1,-1,0.733,-0.144444444,-0.250925926,1,0,0,1.0136,Basalt_rect,2,1.014,1,10,0,10,0,1,,,,,,,,,,,,,
66699cf8f21e06aaf88dda41,TCR,2024-06-24_14h46.54.620,LearnStrategy,2023.2.3,Win32,60.24096386,7,1,12,0.040740741,-0.006481481,1,0,0,0.8882,rock_grid_rect_2,4,03,-1,-1,0.888,-0.340740741,-0.25,1,0,0,1.1137,Andesite_rect,1,1.114,0,11,0,11,0,1,,,,,,,,,,,,,
66699cf8f21e06aaf88dda41,TCR,2024-06-24_14h46.54.620,LearnStrategy,2023.2.3,Win32,60.24096386,7,1,13,0.016666667,-0.014814815,1,0,0,0.7217,rock_grid_rect_2,7,04,-1,-1,0.722,0.037037037,-0.413888889,1,0,0,1.4471,Peridotite_rect,7,1.447,1,12,0,12,0,1,,,,,,,,,,,,,
66699cf8f21e06aaf88dda41,TCR,2024-06-24_14h46.54.620,LearnStrategy,2023.2.3,Win32,60.24096386,7,1,14,-0.016666667,0.012037037,1,0,0,0.6624,rock_grid_rect_2,7,13,-1,-1,0.662,0.477777778,-0.243518519,1,0,0,0.9697,Gabbro_rect,4,0.97,0,13,0,13,0,1,,,,,,,,,,,,,
66699cf8f21e06aaf88dda41,TCR,2024-06-24_14h46.54.620,LearnStrategy,2023.2.3,Win32,60.24096386,7,1,15,0.062962963,-0.013888889,1,0,0,0.6548,rock_grid_rect_2,4,14,-1,-1,0.655,-0.101851852,-0.236111111,1,0,0,2.8973,Basalt_rect,2,2.897,0,14,0,14,0,1,,,,,,,,,,,,,
66699cf8f21e06aaf88dda41,TCR,2024-06-24_14h46.54.620,LearnStrategy,2023.2.3,Win32,60.24096386,7,1,16,0.040740741,-0.012037037,1,0,0,0.5491,rock_grid_rect_2,3,13,-1,-1,0.549,0.069444444,-0.257407407,1,0,0,0.9803,Diorite_rect,3,0.98,1,15,0,15,0,1,,,,,,,,,,,,,
66699cf8f21e06aaf88dda41,TCR,2024-06-24_14h46.54.620,LearnStrategy,2023.2.3,Win32,60.24096386,7,2,1,,,,,,,,3,15,,,,,,,,,,,3,1.265,1,,,,,,0.123148148,-0.250925926,1,0,0,1.2652,Diorite_rect,0,0,0,0,1,
66699cf8f21e06aaf88dda41,TCR,2024-06-24_14h46.54.620,LearnStrategy,2023.2.3,Win32,60.24096386,7,2,2,,,,,,,,7,08,,,,,,,,,,,7,1.616,1,,,,,,0.151851852,-0.394444444,1,0,0,1.6157,Peridotite_rect,1,0,1,0,1,
66699cf8f21e06aaf88dda41,TCR,2024-06-24_14h46.54.620,LearnStrategy,2023.2.3,Win32,60.24096386,7,2,3,,,,,,,,2,14,,,,,,,,,,,8,1.515,0,,,,,,0.37037037,-0.407407407,1,0,0,1.515,Pumice_rect,2,0,2,0,1,
66699cf8f21e06aaf88dda41,TCR,2024-06-24_14h46.54.620,LearnStrategy,2023.2.3,Win32,60.24096386,7,2,4,,,,,,,,8,14,,,,,,,,,,,8,1.302,1,,,,,,0.386111111,-0.403703704,1,0,0,1.3019,Pumice_rect,3,0,3,0,1,
66699cf8f21e06aaf88dda41,TCR,2024-06-24_14h46.54.620,LearnStrategy,2023.2.3,Win32,60.24096386,7,2,5,,,,,,,,5,05,,,,,,,,,,,5,1.099,1,,,,,,-0.343518519,-0.387037037,1,0,0,1.0993,Obsidian_rect,4,0,4,0,1,
66699cf8f21e06aaf88dda41,TCR,2024-06-24_14h46.54.620,LearnStrategy,2023.2.3,Win32,60.24096386,7,2,6,,,,,,,,6,16,,,,,,,,,,,7,2.737,0,,,,,,0.055555556,-0.387962963,1,0,0,2.737,Peridotite_rect,5,0,5,0,1,
66699cf8f21e06aaf88dda41,TCR,2024-06-24_14h46.54.620,LearnStrategy,2023.2.3,Win32,60.24096386,7,2,7,,,,,,,,2,11,,,,,,,,,,,2,1.812,1,,,,,,-0.202777778,-0.236111111,1,0,0,1.8121,Basalt_rect,6,0,6,0,1,
66699cf8f21e06aaf88dda41,TCR,2024-06-24_14h46.54.620,LearnStrategy,2023.2.3,Win32,60.24096386,7,2,8,,,,,,,,6,08,,,,,,,,,,,6,2.045,1,,,,,,-0.143518519,-0.4,1,0,0,2.0448,Pegmatite_rect,7,0,7,0,1,
66699cf8f21e06aaf88dda41,TCR,2024-06-24_14h46.54.620,LearnStrategy,2023.2.3,Win32,60.24096386,7,2,9,,,,,,,,4,12,,,,,,,,,,,4,2.732,1,,,,,,0.383333333,-0.251851852,1,0,0,2.7325,Gabbro_rect,8,0,8,0,1,
66699cf8f21e06aaf88dda41,TCR,2024-06-24_14h46.54.620,LearnStrategy,2023.2.3,Win32,60.24096386,7,2,10,,,,,,,,8,15,,,,,,,,,,,8,1.21,1,,,,,,0.343518519,-0.42037037,1,0,0,1.2104,Pumice_rect,9,0,9,0,1,
66699cf8f21e06aaf88dda41,TCR,2024-06-24_14h46.54.620,LearnStrategy,2023.2.3,Win32,60.24096386,7,2,11,,,,,,,,3,06,,,,,,,,,,,3,0.847,1,,,,,,0.137037037,-0.235185185,1,0,0,0.847,Diorite_rect,10,0,10,0,1,
66699cf8f21e06aaf88dda41,TCR,2024-06-24_14h46.54.620,LearnStrategy,2023.2.3,Win32,60.24096386,7,2,12,,,,,,,,7,12,,,,,,,,,,,7,2.068,1,,,,,,0.203703704,-0.405555556,1,0,0,2.0681,Peridotite_rect,11,0,11,0,1,
66699cf8f21e06aaf88dda41,TCR,2024-06-24_14h46.54.620,LearnStrategy,2023.2.3,Win32,60.24096386,7,2,13,,,,,,,,1,05,,,,,,,,,,,4,1.798,0,,,,,,0.371296296,-0.24537037,1,0,0,1.798,Gabbro_rect,12,0,12,0,1,
66699cf8f21e06aaf88dda41,TCR,2024-06-24_14h46.54.620,LearnStrategy,2023.2.3,Win32,60.24096386,7,2,14,,,,,,,,5,10,,,,,,,,,,,5,1.101,1,,,,,,-0.399074074,-0.40462963,1,0,0,1.1012,Obsidian_rect,13,0,13,0,1,
66699cf8f21e06aaf88dda41,TCR,2024-06-24_14h46.54.620,LearnStrategy,2023.2.3,Win32,60.24096386,7,2,15,,,,,,,,4,15,,,,,,,,,,,1,1.616,0,,,,,,-0.377777778,-0.268518519,1,0,0,1.6156,Andesite_rect,14,0,14,0,1,
66699cf8f21e06aaf88dda41,TCR,2024-06-24_14h46.54.620,LearnStrategy,2023.2.3,Win32,60.24096386,7,2,16,,,,,,,,1,07,,,,,,,,,,,1,1.027,1,,,,,,-0.375,-0.256481481,1,0,0,1.0267,Andesite_rect,15,0,15,0,1,
66699cf8f21e06aaf88dda41,TCR,2024-06-24_14h46.54.620,LearnStrategy,2023.2.3,Win32,60.24096386,8,1,1,0.050925926,0.014814815,1,0,0,0.9634,rock_grid_rect_2,7,13,-1,-1,0.963,0.190740741,-0.394444444,1,0,0,1.2955,Peridotite_rect,7,1.296,1,0,0,0,0,1,,,,,,,,,,,,,
66699cf8f21e06aaf88dda41,TCR,2024-06-24_14h46.54.620,LearnStrategy,2023.2.3,Win32,60.24096386,8,1,2,0.085185185,0,1,0,0,0.8321,rock_grid_rect_2,4,03,-1,-1,0.832,-0.34537037,-0.256481481,1,0,0,1.2624,Andesite_rect,1,1.262,0,1,0,1,0,1,,,,,,,,,,,,,
66699cf8f21e06aaf88dda41,TCR,2024-06-24_14h46.54.620,LearnStrategy,2023.2.3,Win32,60.24096386,8,1,3,0.024074074,0.006481481,1,0,0,0.8151,rock_grid_rect_2,1,02,-1,-1,0.815,-0.399074074,-0.256481481,1,0,0,3.8793,Andesite_rect,1,3.879,1,2,0,2,0,1,,,,,,,,,,,,,
66699cf8f21e06aaf88dda41,TCR,2024-06-24_14h46.54.620,LearnStrategy,2023.2.3,Win32,60.24096386,8,1,4,0.007407407,-0.018518519,1,0,0,0.6972,rock_grid_rect_2,8,03,-1,-1,0.697,0.42037037,-0.389814815,1,0,0,1.2287,Pumice_rect,8,1.229,1,3,0,3,0,1,,,,,,,,,,,,,
66699cf8f21e06aaf88dda41,TCR,2024-06-24_14h46.54.620,LearnStrategy,2023.2.3,Win32,60.24096386,8,1,5,0.006481481,-0.006481481,1,0,0,1.2631,rock_grid_rect_2,7,15,-1,-1,1.263,0.099074074,-0.406481481,1,0,0,2.0626,Peridotite_rect,7,2.063,1,4,0,4,0,1,,,,,,,,,,,,,
66699cf8f21e06aaf88dda41,TCR,2024-06-24_14h46.54.620,LearnStrategy,2023.2.3,Win32,60.24096386,8,1,6,0.025925926,-0.012037037,1,0,0,0.6483,rock_grid_rect_2,4,09,-1,-1,0.648,-0.405555556,-0.417592593,1,0,0,2.4124,Obsidian_rect,5,2.412,0,5,0,5,0,1,,,,,,,,,,,,,
66699cf8f21e06aaf88dda41,TCR,2024-06-24_14h46.54.620,LearnStrategy,2023.2.3,Win32,60.24096386,8,1,7,-0.003703704,-0.02037037,1,0,0,0.7611,rock_grid_rect_2,4,10,-1,-1,0.761,-0.094444444,-0.256481481,1,0,0,1.2821,Basalt_rect,2,1.282,0,6,0,6,0,1,,,,,,,,,,,,,
66699cf8f21e06aaf88dda41,TCR,2024-06-24_14h46.54.620,LearnStrategy,2023.2.3,Win32,60.24096386,8,1,8,0.039814815,-0.010185185,1,0,0,0.5487,rock_grid_rect_2,6,11,-1,-1,0.549,-0.102777778,-0.408333333,1,0,0,0.9957,Pegmatite_rect,6,0.996,1,7,0,7,0,1,,,,,,,,,,,,,
66699cf8f21e06aaf88dda41,TCR,2024-06-24_14h46.54.620,LearnStrategy,2023.2.3,Win32,60.24096386,8,1,9,0.027777778,-0.003703704,1,0,0,0.6626,rock_grid_rect_2,2,09,-1,-1,0.663,-0.114814815,-0.268518519,1,0,0,0.9786,Basalt_rect,2,0.979,1,8,0,8,0,1,,,,,,,,,,,,,
66699cf8f21e06aaf88dda41,TCR,2024-06-24_14h46.54.620,LearnStrategy,2023.2.3,Win32,60.24096386,8,1,10,-0.002777778,0.003703704,1,0,0,0.8297,rock_grid_rect_2,7,07,-1,-1,0.83,0.1,-0.396296296,1,0,0,1.6622,Peridotite_rect,7,1.662,1,9,0,9,0,1,,,,,,,,,,,,,
66699cf8f21e06aaf88dda41,TCR,2024-06-24_14h46.54.620,LearnStrategy,2023.2.3,Win32,60.24096386,8,1,11,0.072222222,-0.02037037,1,0,0,0.5467,rock_grid_rect_2,6,05,-1,-1,0.547,-0.064814815,-0.387962963,1,0,0,2.3292,Pegmatite_rect,6,2.329,1,10,0,10,0,1,,,,,,,,,,,,,
66699cf8f21e06aaf88dda41,TCR,2024-06-24_14h46.54.620,LearnStrategy,2023.2.3,Win32,60.24096386,8,1,12,0.05,-0.012962963,1,0,0,0.6127,rock_grid_rect_2,1,04,-1,-1,0.613,-0.433333333,-0.230555556,1,0,0,3.5124,Andesite_rect,1,3.512,1,11,0,11,0,1,,,,,,,,,,,,,
66699cf8f21e06aaf88dda41,TCR,2024-06-24_14h46.54.620,LearnStrategy,2023.2.3,Win32,60.24096386,8,1,13,-0.016666667,-0.012962963,1,0,0,0.6285,rock_grid_rect_2,4,08,-1,-1,0.628,0.362037037,-0.249074074,1,0,0,4.5629,Gabbro_rect,4,4.563,1,12,0,12,0,1,,,,,,,,,,,,,
66699cf8f21e06aaf88dda41,TCR,2024-06-24_14h46.54.620,LearnStrategy,2023.2.3,Win32,60.24096386,8,1,14,-0.006481481,0,1,0,0,0.9604,rock_grid_rect_2,1,09,-1,-1,0.96,-0.323148148,-0.246296296,1,0,0,1.1618,Andesite_rect,1,1.162,1,13,0,13,0,1,,,,,,,,,,,,,
66699cf8f21e06aaf88dda41,TCR,2024-06-24_14h46.54.620,LearnStrategy,2023.2.3,Win32,60.24096386,8,1,15,0.031481481,-0.001851852,1,0,0,0.5323,rock_grid_rect_2,3,02,-1,-1,0.532,0.091666667,-0.269444444,1,0,0,1.1287,Diorite_rect,3,1.129,1,14,0,14,0,1,,,,,,,,,,,,,
66699cf8f21e06aaf88dda41,TCR,2024-06-24_14h46.54.620,LearnStrategy,2023.2.3,Win32,60.24096386,8,1,16,0.053703704,0.009259259,1,0,0,0.7299,rock_grid_rect_2,2,06,-1,-1,0.73,-0.102777778,-0.234259259,1,0,0,0.979,Basalt_rect,2,0.979,1,15,0,15,0,1,,,,,,,,,,,,,
66699cf8f21e06aaf88dda41,TCR,2024-06-24_14h46.54.620,LearnStrategy,2023.2.3,Win32,60.24096386,8,2,1,,,,,,,,7,14,,,,,,,,,,,7,3.168,1,,,,,,0.103703704,-0.39537037,1,0,0,3.168,Peridotite_rect,0,0,0,0,1,
66699cf8f21e06aaf88dda41,TCR,2024-06-24_14h46.54.620,LearnStrategy,2023.2.3,Win32,60.24096386,8,2,2,,,,,,,,1,03,,,,,,,,,,,1,1.594,1,,,,,,-0.355555556,-0.262962963,1,0,0,1.594,Andesite_rect,1,0,1,0,1,
66699cf8f21e06aaf88dda41,TCR,2024-06-24_14h46.54.620,LearnStrategy,2023.2.3,Win32,60.24096386,8,2,3,,,,,,,,6,06,,,,,,,,,,,6,1.135,1,,,,,,-0.150925926,-0.39537037,1,0,0,1.1353,Pegmatite_rect,2,0,2,0,1,
66699cf8f21e06aaf88dda41,TCR,2024-06-24_14h46.54.620,LearnStrategy,2023.2.3,Win32,60.24096386,8,2,4,,,,,,,,4,11,,,,,,,,,,,1,2.185,0,,,,,,-0.358333333,-0.261111111,1,0,0,2.1848,Andesite_rect,3,0,3,0,1,
66699cf8f21e06aaf88dda41,TCR,2024-06-24_14h46.54.620,LearnStrategy,2023.2.3,Win32,60.24096386,8,2,5,,,,,,,,3,12,,,,,,,,,,,3,1.573,1,,,,,,0.056481481,-0.231481481,1,0,0,1.5726,Diorite_rect,4,0,4,0,1,
66699cf8f21e06aaf88dda41,TCR,2024-06-24_14h46.54.620,LearnStrategy,2023.2.3,Win32,60.24096386,8,2,6,,,,,,,,1,01,,,,,,,,,,,1,2.094,1,,,,,,-0.383333333,-0.237962963,1,0,0,2.0943,Andesite_rect,5,0,5,0,1,
66699cf8f21e06aaf88dda41,TCR,2024-06-24_14h46.54.620,LearnStrategy,2023.2.3,Win32,60.24096386,8,2,7,,,,,,,,4,13,,,,,,,,,,,4,1.411,1,,,,,,0.396296296,-0.242592593,1,0,0,1.411,Gabbro_rect,6,0,6,0,1,
66699cf8f21e06aaf88dda41,TCR,2024-06-24_14h46.54.620,LearnStrategy,2023.2.3,Win32,60.24096386,8,2,8,,,,,,,,7,06,,,,,,,,,,,6,1.271,0,,,,,,-0.147222222,-0.37962963,1,0,0,1.2715,Pegmatite_rect,7,0,7,0,1,
66699cf8f21e06aaf88dda41,TCR,2024-06-24_14h46.54.620,LearnStrategy,2023.2.3,Win32,60.24096386,8,2,9,,,,,,,,2,12,,,,,,,,,,,2,1.961,1,,,,,,-0.047222222,-0.251851852,1,0,0,1.9613,Basalt_rect,8,0,8,0,1,
66699cf8f21e06aaf88dda41,TCR,2024-06-24_14h46.54.620,LearnStrategy,2023.2.3,Win32,60.24096386,8,2,10,,,,,,,,5,09,,,,,,,,,,,5,1.301,1,,,,,,-0.359259259,-0.383333333,1,0,0,1.3015,Obsidian_rect,9,0,9,0,1,
66699cf8f21e06aaf88dda41,TCR,2024-06-24_14h46.54.620,LearnStrategy,2023.2.3,Win32,60.24096386,8,2,11,,,,,,,,5,02,,,,,,,,,,,5,0.979,1,,,,,,-0.342592593,-0.382407407,1,0,0,0.9787,Obsidian_rect,10,0,10,0,1,
66699cf8f21e06aaf88dda41,TCR,2024-06-24_14h46.54.620,LearnStrategy,2023.2.3,Win32,60.24096386,8,2,12,,,,,,,,3,10,,,,,,,,,,,3,1.362,1,,,,,,0.1,-0.251851852,1,0,0,1.3617,Diorite_rect,11,0,11,0,1,
66699cf8f21e06aaf88dda41,TCR,2024-06-24_14h46.54.620,LearnStrategy,2023.2.3,Win32,60.24096386,8,2,13,,,,,,,,2,01,,,,,,,,,,,2,0.935,1,,,,,,-0.093518519,-0.249074074,1,0,0,0.9348,Basalt_rect,12,0,12,0,1,
66699cf8f21e06aaf88dda41,TCR,2024-06-24_14h46.54.620,LearnStrategy,2023.2.3,Win32,60.24096386,8,2,14,,,,,,,,8,10,,,,,,,,,,,8,1.032,1,,,,,,0.35462963,-0.398148148,1,0,0,1.0324,Pumice_rect,13,0,13,0,1,
66699cf8f21e06aaf88dda41,TCR,2024-06-24_14h46.54.620,LearnStrategy,2023.2.3,Win32,60.24096386,8,2,15,,,,,,,,6,10,,,,,,,,,,,6,0.995,1,,,,,,-0.115740741,-0.405555556,1,0,0,0.9954,Pegmatite_rect,14,0,14,0,1,
66699cf8f21e06aaf88dda41,TCR,2024-06-24_14h46.54.620,LearnStrategy,2023.2.3,Win32,60.24096386,8,2,16,,,,,,,,8,09,,,,,,,,,,,8,0.963,1,,,,,,0.440740741,-0.412037037,1,0,0,0.9626,Pumice_rect,15,0,15,0,1,
66699cf8f21e06aaf88dda41,TCR,2024-06-24_14h46.54.620,LearnStrategy,2023.2.3,Win32,60.24096386,9,1,1,0.021296296,0.009259259,1,0,0,0.6645,rock_grid_rect_2,7,13,-1,-1,0.664,0.153703704,-0.414814815,1,0,0,1.3953,Peridotite_rect,7,1.395,1,0,0,0,0,1,,,,,,,,,,,,,
66699cf8f21e06aaf88dda41,TCR,2024-06-24_14h46.54.620,LearnStrategy,2023.2.3,Win32,60.24096386,9,1,2,-0.009259259,-0.018518519,1,0,0,0.7976,rock_grid_rect_2,6,12,-1,-1,0.798,0.209259259,-0.261111111,1,0,0,3.4785,Diorite_rect,3,3.479,0,1,0,1,0,1,,,,,,,,,,,,,
66699cf8f21e06aaf88dda41,TCR,2024-06-24_14h46.54.620,LearnStrategy,2023.2.3,Win32,60.24096386,9,1,3,0.017592593,-0.006481481,1,0,0,1.0655,rock_grid_rect_2,2,05,-1,-1,1.066,-0.112962963,-0.266666667,1,0,0,0.9618,Basalt_rect,2,0.962,1,2,0,2,0,1,,,,,,,,,,,,,
66699cf8f21e06aaf88dda41,TCR,2024-06-24_14h46.54.620,LearnStrategy,2023.2.3,Win32,60.24096386,9,1,4,0.023148148,0.000925926,1,0,0,0.8823,rock_grid_rect_2,4,14,-1,-1,0.882,-0.361111111,-0.253703704,1,0,0,1.1792,Andesite_rect,1,1.179,0,3,0,3,0,1,,,,,,,,,,,,,
66699cf8f21e06aaf88dda41,TCR,2024-06-24_14h46.54.620,LearnStrategy,2023.2.3,Win32,60.24096386,9,1,5,0.031481481,-0.016666667,1,0,0,0.5128,rock_grid_rect_2,4,03,-1,-1,0.513,-0.350925926,-0.237962963,1,0,0,1.3954,Andesite_rect,1,1.395,0,4,0,4,0,1,,,,,,,,,,,,,
66699cf8f21e06aaf88dda41,TCR,2024-06-24_14h46.54.620,LearnStrategy,2023.2.3,Win32,60.24096386,9,1,6,-0.010185185,0.002777778,1,0,0,0.6804,rock_grid_rect_2,1,04,-1,-1,0.68,-0.084259259,-0.387962963,1,0,0,1.698,Pegmatite_rect,6,1.698,0,5,0,5,0,1,,,,,,,,,,,,,
66699cf8f21e06aaf88dda41,TCR,2024-06-24_14h46.54.620,LearnStrategy,2023.2.3,Win32,60.24096386,9,1,7,-0.060185185,0.003703704,1,0,0,0.697,rock_grid_rect_2,5,11,-1,-1,0.697,-0.346296296,-0.383333333,1,0,0,1.9784,Obsidian_rect,5,1.978,1,6,0,6,0,1,,,,,,,,,,,,,
66699cf8f21e06aaf88dda41,TCR,2024-06-24_14h46.54.620,LearnStrategy,2023.2.3,Win32,60.24096386,9,1,8,0.008333333,0.002777778,1,0,0,1.1128,rock_grid_rect_2,1,04,-1,-1,1.113,-0.390740741,-0.248148148,1,0,0,1.4626,Andesite_rect,1,1.463,1,7,0,7,0,1,,,,,,,,,,,,,
66699cf8f21e06aaf88dda41,TCR,2024-06-24_14h46.54.620,LearnStrategy,2023.2.3,Win32,60.24096386,9,1,9,0.059259259,-0.012962963,1,0,0,0.8324,rock_grid_rect_2,3,14,-1,-1,0.832,0.083333333,-0.250925926,1,0,0,0.7788,Diorite_rect,3,0.779,1,8,0,8,0,1,,,,,,,,,,,,,
66699cf8f21e06aaf88dda41,TCR,2024-06-24_14h46.54.620,LearnStrategy,2023.2.3,Win32,60.24096386,9,1,10,0.117592593,-0.021296296,1,0,0,0.7316,rock_grid_rect_2,4,09,-1,-1,0.732,-0.114814815,-0.247222222,1,0,0,1.4787,Basalt_rect,2,1.479,0,9,0,9,0,1,,,,,,,,,,,,,
66699cf8f21e06aaf88dda41,TCR,2024-06-24_14h46.54.620,LearnStrategy,2023.2.3,Win32,60.24096386,9,1,11,0.040740741,0.003703704,1,0,0,0.7151,rock_grid_rect_2,2,04,-1,-1,0.715,-0.151851852,-0.247222222,1,0,0,1.1626,Basalt_rect,2,1.163,1,10,0,10,0,1,,,,,,,,,,,,,
66699cf8f21e06aaf88dda41,TCR,2024-06-24_14h46.54.620,LearnStrategy,2023.2.3,Win32,60.24096386,9,1,12,0.014814815,-0.018518519,1,0,0,0.7489,rock_grid_rect_2,8,08,-1,-1,0.749,0.333333333,-0.385185185,1,0,0,1.3957,Pumice_rect,8,1.396,1,11,0,11,0,1,,,,,,,,,,,,,
66699cf8f21e06aaf88dda41,TCR,2024-06-24_14h46.54.620,LearnStrategy,2023.2.3,Win32,60.24096386,9,1,13,0.049074074,-0.024074074,1,0,0,0.5487,rock_grid_rect_2,7,07,-1,-1,0.549,0.10462963,-0.39537037,1,0,0,1.5286,Peridotite_rect,7,1.529,1,12,0,12,0,1,,,,,,,,,,,,,
66699cf8f21e06aaf88dda41,TCR,2024-06-24_14h46.54.620,LearnStrategy,2023.2.3,Win32,60.24096386,9,1,14,0.080555556,-0.010185185,1,0,0,0.4962,rock_grid_rect_2,7,04,-1,-1,0.496,0.098148148,-0.382407407,1,0,0,1.2116,Peridotite_rect,7,1.212,1,13,0,13,0,1,,,,,,,,,,,,,
66699cf8f21e06aaf88dda41,TCR,2024-06-24_14h46.54.620,LearnStrategy,2023.2.3,Win32,60.24096386,9,1,15,0.063888889,-0.010185185,1,0,0,0.6985,rock_grid_rect_2,4,14,-1,-1,0.699,-0.336111111,-0.244444444,1,0,0,1.6955,Andesite_rect,1,1.695,0,14,0,14,0,1,,,,,,,,,,,,,
66699cf8f21e06aaf88dda41,TCR,2024-06-24_14h46.54.620,LearnStrategy,2023.2.3,Win32,60.24096386,9,1,16,0.102777778,0.009259259,1,0,0,0.6157,rock_grid_rect_2,6,12,-1,-1,0.616,-0.112037037,-0.413888889,1,0,0,3.279,Pegmatite_rect,6,3.279,1,15,0,15,0,1,,,,,,,,,,,,,
66699cf8f21e06aaf88dda41,TCR,2024-06-24_14h46.54.620,LearnStrategy,2023.2.3,Win32,60.24096386,9,2,1,,,,,,,,2,08,,,,,,,,,,,2,1.793,1,,,,,,-0.116666667,-0.260185185,1,0,0,1.7928,Basalt_rect,0,0,0,0,1,
66699cf8f21e06aaf88dda41,TCR,2024-06-24_14h46.54.620,LearnStrategy,2023.2.3,Win32,60.24096386,9,2,2,,,,,,,,3,11,,,,,,,,,,,3,1.087,1,,,,,,0.099074074,-0.235185185,1,0,0,1.0868,Diorite_rect,1,0,1,0,1,
66699cf8f21e06aaf88dda41,TCR,2024-06-24_14h46.54.620,LearnStrategy,2023.2.3,Win32,60.24096386,9,2,3,,,,,,,,1,14,,,,,,,,,,,1,3.086,1,,,,,,-0.350925926,-0.248148148,1,0,0,3.0859,Andesite_rect,2,0,2,0,1,
66699cf8f21e06aaf88dda41,TCR,2024-06-24_14h46.54.620,LearnStrategy,2023.2.3,Win32,60.24096386,9,2,4,,,,,,,,7,10,,,,,,,,,,,7,1.356,1,,,,,,0.137962963,-0.398148148,1,0,0,1.3556,Peridotite_rect,3,0,3,0,1,
66699cf8f21e06aaf88dda41,TCR,2024-06-24_14h46.54.620,LearnStrategy,2023.2.3,Win32,60.24096386,9,2,5,,,,,,,,8,16,,,,,,,,,,,8,1.153,1,,,,,,0.349074074,-0.4,1,0,0,1.1529,Pumice_rect,4,0,4,0,1,
66699cf8f21e06aaf88dda41,TCR,2024-06-24_14h46.54.620,LearnStrategy,2023.2.3,Win32,60.24096386,9,2,6,,,,,,,,6,13,,,,,,,,,,,6,1.098,1,,,,,,-0.072222222,-0.409259259,1,0,0,1.0975,Pegmatite_rect,5,0,5,0,1,
66699cf8f21e06aaf88dda41,TCR,2024-06-24_14h46.54.620,LearnStrategy,2023.2.3,Win32,60.24096386,9,2,7,,,,,,,,8,13,,,,,,,,,,,8,1.237,1,,,,,,0.447222222,-0.394444444,1,0,0,1.2369,Pumice_rect,6,0,6,0,1,
66699cf8f21e06aaf88dda41,TCR,2024-06-24_14h46.54.620,LearnStrategy,2023.2.3,Win32,60.24096386,9,2,8,,,,,,,,2,02,,,,,,,,,,,2,4.936,1,,,,,,-0.191666667,-0.268518519,1,0,0,4.9355,Basalt_rect,7,0,7,0,1,
66699cf8f21e06aaf88dda41,TCR,2024-06-24_14h46.54.620,LearnStrategy,2023.2.3,Win32,60.24096386,9,2,9,,,,,,,,4,16,,,,,,,,,,,2,8.184,0,,,,,,-0.192592593,-0.264814815,1,0,0,8.1838,Basalt_rect,8,0,8,0,1,
66699cf8f21e06aaf88dda41,TCR,2024-06-24_14h46.54.620,LearnStrategy,2023.2.3,Win32,60.24096386,9,2,10,,,,,,,,1,10,,,,,,,,,,,1,2.954,1,,,,,,-0.319444444,-0.259259259,1,0,0,2.9538,Andesite_rect,9,0,9,0,1,
66699cf8f21e06aaf88dda41,TCR,2024-06-24_14h46.54.620,LearnStrategy,2023.2.3,Win32,60.24096386,9,2,11,,,,,,,,7,05,,,,,,,,,,,7,1.318,1,,,,,,0.176851852,-0.416666667,1,0,0,1.3176,Peridotite_rect,10,0,10,0,1,
66699cf8f21e06aaf88dda41,TCR,2024-06-24_14h46.54.620,LearnStrategy,2023.2.3,Win32,60.24096386,9,2,12,,,,,,,,5,06,,,,,,,,,,,5,1.277,1,,,,,,-0.353703704,-0.384259259,1,0,0,1.2771,Obsidian_rect,11,0,11,0,1,
66699cf8f21e06aaf88dda41,TCR,2024-06-24_14h46.54.620,LearnStrategy,2023.2.3,Win32,60.24096386,9,2,13,,,,,,,,5,04,,,,,,,,,,,5,0.72,1,,,,,,-0.353703704,-0.384259259,1,0,0,0.7204,Obsidian_rect,12,0,12,0,1,
66699cf8f21e06aaf88dda41,TCR,2024-06-24_14h46.54.620,LearnStrategy,2023.2.3,Win32,60.24096386,9,2,14,,,,,,,,4,01,,,,,,,,,,,1,1.549,0,,,,,,-0.342592593,-0.267592593,1,0,0,1.5485,Andesite_rect,13,0,13,0,1,
66699cf8f21e06aaf88dda41,TCR,2024-06-24_14h46.54.620,LearnStrategy,2023.2.3,Win32,60.24096386,9,2,15,,,,,,,,3,16,,,,,,,,,,,3,1.969,1,,,,,,0.068518519,-0.266666667,1,0,0,1.9687,Diorite_rect,14,0,14,0,1,
66699cf8f21e06aaf88dda41,TCR,2024-06-24_14h46.54.620,LearnStrategy,2023.2.3,Win32,60.24096386,9,2,16,,,,,,,,6,07,,,,,,,,,,,6,1.015,1,,,,,,-0.12037037,-0.413888889,1,0,0,1.0154,Pegmatite_rect,15,0,15,0,1,
66699cf8f21e06aaf88dda41,TCR,2024-06-24_14h46.54.620,LearnStrategy,2023.2.3,Win32,60.24096386,,,,,,,,,,,,,,,,,,,,,,,,,,,,,,,,,,,,,,,,,,,1
66699cf8f21e06aaf88dda41,TCR,2024-06-24_14h46.54.620,LearnStrategy,2023.2.3,Win32,60.24096386,,,,,,,,,,,,,,,,,,,,,,,,,,,,,,,,,,,,,,,,,,,
66699cf8f21e06aaf88dda41,TCR,2024-06-24_14h46.54.620,LearnStrategy,2023.2.3,Win32,60.24096386,,,,,,,,,,,2,04,1,1,,,,,,,,,,,,,,,,,,,,,,,,,,,,,
66699cf8f21e06aaf88dda41,TCR,2024-06-24_14h46.54.620,LearnStrategy,2023.2.3,Win32,60.24096386,,,,,,,,,,,3,13,1,2,,,,,,,,,,,,,,,,,,,,,,,,,,,,,
66699cf8f21e06aaf88dda41,TCR,2024-06-24_14h46.54.620,LearnStrategy,2023.2.3,Win32,60.24096386,,,,,,,,,,,7,07,1,3,,,,,,,,,,,,,,,,,,,,,,,,,,,,,
66699cf8f21e06aaf88dda41,TCR,2024-06-24_14h46.54.620,LearnStrategy,2023.2.3,Win32,60.24096386,,,,,,,,,,,8,08,1,4,,,,,,,,,,,,,,,,,,,,,,,,,,,,,
66699cf8f21e06aaf88dda41,TCR,2024-06-24_14h46.54.620,LearnStrategy,2023.2.3,Win32,60.24096386,,,,,,,,,,,1,02,1,5,,,,,,,,,,,,,,,,,,,,,,,,,,,,,
66699cf8f21e06aaf88dda41,TCR,2024-06-24_14h46.54.620,LearnStrategy,2023.2.3,Win32,60.24096386,,,,,,,,,,,3,09,1,6,,,,,,,,,,,,,,,,,,,,,,,,,,,,,
66699cf8f21e06aaf88dda41,TCR,2024-06-24_14h46.54.620,LearnStrategy,2023.2.3,Win32,60.24096386,,,,,,,,,,,5,11,1,7,,,,,,,,,,,,,,,,,,,,,,,,,,,,,
66699cf8f21e06aaf88dda41,TCR,2024-06-24_14h46.54.620,LearnStrategy,2023.2.3,Win32,60.24096386,,,,,,,,,,,2,09,1,8,,,,,,,,,,,,,,,,,,,,,,,,,,,,,
66699cf8f21e06aaf88dda41,TCR,2024-06-24_14h46.54.620,LearnStrategy,2023.2.3,Win32,60.24096386,,,,,,,,,,,6,12,2,1,,,,,,,,,,,,,,,,,,,,,,,,,,,,,
66699cf8f21e06aaf88dda41,TCR,2024-06-24_14h46.54.620,LearnStrategy,2023.2.3,Win32,60.24096386,,,,,,,,,,,8,06,2,2,,,,,,,,,,,,,,,,,,,,,,,,,,,,,
66699cf8f21e06aaf88dda41,TCR,2024-06-24_14h46.54.620,LearnStrategy,2023.2.3,Win32,60.24096386,,,,,,,,,,,8,05,2,3,,,,,,,,,,,,,,,,,,,,,,,,,,,,,
66699cf8f21e06aaf88dda41,TCR,2024-06-24_14h46.54.620,LearnStrategy,2023.2.3,Win32,60.24096386,,,,,,,,,,,1,06,2,4,,,,,,,,,,,,,,,,,,,,,,,,,,,,,
66699cf8f21e06aaf88dda41,TCR,2024-06-24_14h46.54.620,LearnStrategy,2023.2.3,Win32,60.24096386,,,,,,,,,,,5,08,2,5,,,,,,,,,,,,,,,,,,,,,,,,,,,,,
66699cf8f21e06aaf88dda41,TCR,2024-06-24_14h46.54.620,LearnStrategy,2023.2.3,Win32,60.24096386,,,,,,,,,,,2,10,2,6,,,,,,,,,,,,,,,,,,,,,,,,,,,,,
66699cf8f21e06aaf88dda41,TCR,2024-06-24_14h46.54.620,LearnStrategy,2023.2.3,Win32,60.24096386,,,,,,,,,,,6,09,2,7,,,,,,,,,,,,,,,,,,,,,,,,,,,,,
66699cf8f21e06aaf88dda41,TCR,2024-06-24_14h46.54.620,LearnStrategy,2023.2.3,Win32,60.24096386,,,,,,,,,,,1,09,2,8,,,,,,,,,,,,,,,,,,,,,,,,,,,,,
66699cf8f21e06aaf88dda41,TCR,2024-06-24_14h46.54.620,LearnStrategy,2023.2.3,Win32,60.24096386,,,,,,,,,,,8,03,3,1,,,,,,,,,,,,,,,,,,,,,,,,,,,,,
66699cf8f21e06aaf88dda41,TCR,2024-06-24_14h46.54.620,LearnStrategy,2023.2.3,Win32,60.24096386,,,,,,,,,,,4,03,3,2,,,,,,,,,,,,,,,,,,,,,,,,,,,,,
66699cf8f21e06aaf88dda41,TCR,2024-06-24_14h46.54.620,LearnStrategy,2023.2.3,Win32,60.24096386,,,,,,,,,,,3,14,3,3,,,,,,,,,,,,,,,,,,,,,,,,,,,,,
66699cf8f21e06aaf88dda41,TCR,2024-06-24_14h46.54.620,LearnStrategy,2023.2.3,Win32,60.24096386,,,,,,,,,,,5,07,3,4,,,,,,,,,,,,,,,,,,,,,,,,,,,,,
66699cf8f21e06aaf88dda41,TCR,2024-06-24_14h46.54.620,LearnStrategy,2023.2.3,Win32,60.24096386,,,,,,,,,,,1,11,3,5,,,,,,,,,,,,,,,,,,,,,,,,,,,,,
66699cf8f21e06aaf88dda41,TCR,2024-06-24_14h46.54.620,LearnStrategy,2023.2.3,Win32,60.24096386,,,,,,,,,,,4,09,3,6,,,,,,,,,,,,,,,,,,,,,,,,,,,,,
66699cf8f21e06aaf88dda41,TCR,2024-06-24_14h46.54.620,LearnStrategy,2023.2.3,Win32,60.24096386,,,,,,,,,,,2,06,3,7,,,,,,,,,,,,,,,,,,,,,,,,,,,,,
66699cf8f21e06aaf88dda41,TCR,2024-06-24_14h46.54.620,LearnStrategy,2023.2.3,Win32,60.24096386,,,,,,,,,,,3,02,3,8,,,,,,,,,,,,,,,,,,,,,,,,,,,,,
66699cf8f21e06aaf88dda41,TCR,2024-06-24_14h46.54.620,LearnStrategy,2023.2.3,Win32,60.24096386,,,,,,,,,,,4,08,4,1,,,,,,,,,,,,,,,,,,,,,,,,,,,,,
66699cf8f21e06aaf88dda41,TCR,2024-06-24_14h46.54.620,LearnStrategy,2023.2.3,Win32,60.24096386,,,,,,,,,,,2,05,4,2,,,,,,,,,,,,,,,,,,,,,,,,,,,,,
66699cf8f21e06aaf88dda41,TCR,2024-06-24_14h46.54.620,LearnStrategy,2023.2.3,Win32,60.24096386,,,,,,,,,,,4,10,4,3,,,,,,,,,,,,,,,,,,,,,,,,,,,,,
66699cf8f21e06aaf88dda41,TCR,2024-06-24_14h46.54.620,LearnStrategy,2023.2.3,Win32,60.24096386,,,,,,,,,,,4,14,4,4,,,,,,,,,,,,,,,,,,,,,,,,,,,,,
66699cf8f21e06aaf88dda41,TCR,2024-06-24_14h46.54.620,LearnStrategy,2023.2.3,Win32,60.24096386,,,,,,,,,,,7,16,4,5,,,,,,,,,,,,,,,,,,,,,,,,,,,,,
66699cf8f21e06aaf88dda41,TCR,2024-06-24_14h46.54.620,LearnStrategy,2023.2.3,Win32,60.24096386,,,,,,,,,,,7,15,4,6,,,,,,,,,,,,,,,,,,,,,,,,,,,,,
66699cf8f21e06aaf88dda41,TCR,2024-06-24_14h46.54.620,LearnStrategy,2023.2.3,Win32,60.24096386,,,,,,,,,,,5,16,4,7,,,,,,,,,,,,,,,,,,,,,,,,,,,,,
66699cf8f21e06aaf88dda41,TCR,2024-06-24_14h46.54.620,LearnStrategy,2023.2.3,Win32,60.24096386,,,,,,,,,,,1,04,4,8,,,,,,,,,,,,,,,,,,,,,,,,,,,,,
66699cf8f21e06aaf88dda41,TCR,2024-06-24_14h46.54.620,LearnStrategy,2023.2.3,Win32,60.24096386,,,,,,,,,,,3,08,5,1,,,,,,,,,,,,,,,,,,,,,,,,,,,,,
66699cf8f21e06aaf88dda41,TCR,2024-06-24_14h46.54.620,LearnStrategy,2023.2.3,Win32,60.24096386,,,,,,,,,,,3,07,5,2,,,,,,,,,,,,,,,,,,,,,,,,,,,,,
66699cf8f21e06aaf88dda41,TCR,2024-06-24_14h46.54.620,LearnStrategy,2023.2.3,Win32,60.24096386,,,,,,,,,,,2,16,5,3,,,,,,,,,,,,,,,,,,,,,,,,,,,,,
66699cf8f21e06aaf88dda41,TCR,2024-06-24_14h46.54.620,LearnStrategy,2023.2.3,Win32,60.24096386,,,,,,,,,,,8,04,5,4,,,,,,,,,,,,,,,,,,,,,,,,,,,,,
66699cf8f21e06aaf88dda41,TCR,2024-06-24_14h46.54.620,LearnStrategy,2023.2.3,Win32,60.24096386,,,,,,,,,,,1,16,5,5,,,,,,,,,,,,,,,,,,,,,,,,,,,,,
66699cf8f21e06aaf88dda41,TCR,2024-06-24_14h46.54.620,LearnStrategy,2023.2.3,Win32,60.24096386,,,,,,,,,,,7,02,5,6,,,,,,,,,,,,,,,,,,,,,,,,,,,,,
66699cf8f21e06aaf88dda41,TCR,2024-06-24_14h46.54.620,LearnStrategy,2023.2.3,Win32,60.24096386,,,,,,,,,,,4,05,5,7,,,,,,,,,,,,,,,,,,,,,,,,,,,,,
66699cf8f21e06aaf88dda41,TCR,2024-06-24_14h46.54.620,LearnStrategy,2023.2.3,Win32,60.24096386,,,,,,,,,,,5,12,5,8,,,,,,,,,,,,,,,,,,,,,,,,,,,,,
66699cf8f21e06aaf88dda41,TCR,2024-06-24_14h46.54.620,LearnStrategy,2023.2.3,Win32,60.24096386,,,,,,,,,,,5,14,6,1,,,,,,,,,,,,,,,,,,,,,,,,,,,,,
66699cf8f21e06aaf88dda41,TCR,2024-06-24_14h46.54.620,LearnStrategy,2023.2.3,Win32,60.24096386,,,,,,,,,,,6,11,6,2,,,,,,,,,,,,,,,,,,,,,,,,,,,,,
66699cf8f21e06aaf88dda41,TCR,2024-06-24_14h46.54.620,LearnStrategy,2023.2.3,Win32,60.24096386,,,,,,,,,,,6,03,6,3,,,,,,,,,,,,,,,,,,,,,,,,,,,,,
66699cf8f21e06aaf88dda41,TCR,2024-06-24_14h46.54.620,LearnStrategy,2023.2.3,Win32,60.24096386,,,,,,,,,,,8,02,6,4,,,,,,,,,,,,,,,,,,,,,,,,,,,,,
66699cf8f21e06aaf88dda41,TCR,2024-06-24_14h46.54.620,LearnStrategy,2023.2.3,Win32,60.24096386,,,,,,,,,,,7,13,6,5,,,,,,,,,,,,,,,,,,,,,,,,,,,,,
66699cf8f21e06aaf88dda41,TCR,2024-06-24_14h46.54.620,LearnStrategy,2023.2.3,Win32,60.24096386,,,,,,,,,,,6,05,6,6,,,,,,,,,,,,,,,,,,,,,,,,,,,,,
66699cf8f21e06aaf88dda41,TCR,2024-06-24_14h46.54.620,LearnStrategy,2023.2.3,Win32,60.24096386,,,,,,,,,,,7,04,6,7,,,,,,,,,,,,,,,,,,,,,,,,,,,,,
66699cf8f21e06aaf88dda41,TCR,2024-06-24_14h46.54.620,LearnStrategy,2023.2.3,Win32,60.24096386,,,,,,,,,,,6,15,6,8,,,,,,,,,,,,,,,,,,,,,,,,,,,,,