participant,condition,date,expName,psychopyVersion,OS,frameRate,block,phase,trial,learn_mouse_2.x,learn_mouse_2.y,learn_mouse_2.leftButton,learn_mouse_2.midButton,learn_mouse_2.rightButton,learn_mouse_2.time,learn_mouse_2.clicked_name,cat,token,row,col,t_select,cat_mouse_l.x,cat_mouse_l.y,cat_mouse_l.leftButton,cat_mouse_l.midButton,cat_mouse_l.rightButton,cat_mouse_l.time,cat_mouse_l.clicked_name,resp,t_resp,corr,train_trials.thisRepN,train_trials.thisTrialN,train_trials.thisN,train_trials.thisIndex,train_trials.ran,cat_mouse_t.x,cat_mouse_t.y,cat_mouse_t.leftButton,cat_mouse_t.midButton,cat_mouse_t.rightButton,cat_mouse_t.time,cat_mouse_t.clicked_name,test_trials.thisRepN,test_trials.thisTrialN,test_trials.thisN,test_trials.thisIndex,test_trials.ran,Bonus
666c453b833e8ad9c85526fd,TCN,2024-06-21_12h46.20.488,LearnStrategy,2023.2.3,Win32,100,,,,,,,,,,,,,,,,,,,,,,,,,,,,,,,,,,,,,,,,,,,
666c453b833e8ad9c85526fd,TCN,2024-06-21_12h46.20.488,LearnStrategy,2023.2.3,Win32,100,1,1,1,0.01875,-0.001388889,1,0,0,1.7665,rock_grid_rect_2,6,12,-1,-1,1.767,0.101388889,-0.390972222,1,0,0,6.3639,Peridotite_rect,7,6.364,0,0,0,0,0,1,,,,,,,,,,,,,
666c453b833e8ad9c85526fd,TCN,2024-06-21_12h46.20.488,LearnStrategy,2023.2.3,Win32,100,1,1,2,-0.064583333,-0.0125,1,0,0,1.7303,rock_grid_rect_2,3,11,-1,-1,1.73,-0.4,-0.236805556,1,0,0,1.8828,Andesite_rect,1,1.883,0,1,0,1,0,1,,,,,,,,,,,,,
666c453b833e8ad9c85526fd,TCN,2024-06-21_12h46.20.488,LearnStrategy,2023.2.3,Win32,100,1,1,3,-0.013888889,-0.013888889,1,0,0,1.2647,rock_grid_rect_2,1,09,-1,-1,1.265,0.347222222,-0.388888889,1,0,0,3.0668,Pumice_rect,8,3.067,0,2,0,2,0,1,,,,,,,,,,,,,
666c453b833e8ad9c85526fd,TCN,2024-06-21_12h46.20.488,LearnStrategy,2023.2.3,Win32,100,1,1,4,-0.019444444,-0.010416667,1,0,0,1.2643,rock_grid_rect_2,5,06,-1,-1,1.264,-0.35625,-0.384027778,1,0,0,2.7002,Obsidian_rect,5,2.7,1,3,0,3,0,1,,,,,,,,,,,,,
666c453b833e8ad9c85526fd,TCN,2024-06-21_12h46.20.488,LearnStrategy,2023.2.3,Win32,100,1,1,5,-0.005555556,-0.011805556,1,0,0,1.1893,rock_grid_rect_2,8,10,-1,-1,1.189,0.356944444,-0.390972222,1,0,0,3.98,Pumice_rect,8,3.98,1,4,0,4,0,1,,,,,,,,,,,,,
666c453b833e8ad9c85526fd,TCN,2024-06-21_12h46.20.488,LearnStrategy,2023.2.3,Win32,100,1,1,6,-0.00625,0.00625,1,0,0,1.0344,rock_grid_rect_2,7,15,-1,-1,1.034,-0.125694444,-0.252083333,1,0,0,4.2846,Basalt_rect,2,4.285,0,5,0,5,0,1,,,,,,,,,,,,,
666c453b833e8ad9c85526fd,TCN,2024-06-21_12h46.20.488,LearnStrategy,2023.2.3,Win32,100,1,1,7,-0.023611111,-0.007638889,1,0,0,1.1585,rock_grid_rect_2,7,05,-1,-1,1.159,0.340277778,-0.246527778,1,0,0,1.5386,Gabbro_rect,4,1.539,0,6,0,6,0,1,,,,,,,,,,,,,
666c453b833e8ad9c85526fd,TCN,2024-06-21_12h46.20.488,LearnStrategy,2023.2.3,Win32,100,1,1,8,-0.004166667,-0.007638889,1,0,0,0.9515,rock_grid_rect_2,5,08,-1,-1,0.952,-0.339583333,-0.408333333,1,0,0,1.7496,Obsidian_rect,5,1.75,1,7,0,7,0,1,,,,,,,,,,,,,
666c453b833e8ad9c85526fd,TCN,2024-06-21_12h46.20.488,LearnStrategy,2023.2.3,Win32,100,1,1,9,-0.018055556,-0.001388889,1,0,0,1.0273,rock_grid_rect_2,8,15,-1,-1,1.027,-0.1375,-0.250694444,1,0,0,3.9013,Basalt_rect,2,3.901,0,8,0,8,0,1,,,,,,,,,,,,,
666c453b833e8ad9c85526fd,TCN,2024-06-21_12h46.20.488,LearnStrategy,2023.2.3,Win32,100,1,1,10,-0.008333333,0.002777778,1,0,0,0.9301,rock_grid_rect_2,4,14,-1,-1,0.93,-0.373611111,-0.238888889,1,0,0,1.8157,Andesite_rect,1,1.816,0,9,0,9,0,1,,,,,,,,,,,,,
666c453b833e8ad9c85526fd,TCN,2024-06-21_12h46.20.488,LearnStrategy,2023.2.3,Win32,100,1,1,11,-0.03125,0.003472222,1,0,0,1.135,rock_grid_rect_2,2,08,-1,-1,1.135,-0.130555556,-0.398611111,1,0,0,3.1506,Pegmatite_rect,6,3.151,0,10,0,10,0,1,,,,,,,,,,,,,
666c453b833e8ad9c85526fd,TCN,2024-06-21_12h46.20.488,LearnStrategy,2023.2.3,Win32,100,1,1,12,0.002083333,-0.011805556,1,0,0,0.9172,rock_grid_rect_2,6,10,-1,-1,0.917,0.147222222,-0.258333333,1,0,0,8.5388,Diorite_rect,3,8.539,0,11,0,11,0,1,,,,,,,,,,,,,
666c453b833e8ad9c85526fd,TCN,2024-06-21_12h46.20.488,LearnStrategy,2023.2.3,Win32,100,1,1,13,-0.019444444,-0.018055556,1,0,0,0.918,rock_grid_rect_2,3,16,-1,-1,0.918,-0.090972222,-0.391666667,1,0,0,3.9346,Pegmatite_rect,6,3.935,0,12,0,12,0,1,,,,,,,,,,,,,
666c453b833e8ad9c85526fd,TCN,2024-06-21_12h46.20.488,LearnStrategy,2023.2.3,Win32,100,1,1,14,-0.022916667,-0.018055556,1,0,0,1.1492,rock_grid_rect_2,2,05,-1,-1,1.149,-0.374305556,-0.234722222,1,0,0,5.1218,Andesite_rect,1,5.122,0,13,0,13,0,1,,,,,,,,,,,,,
666c453b833e8ad9c85526fd,TCN,2024-06-21_12h46.20.488,LearnStrategy,2023.2.3,Win32,100,1,1,15,-0.00625,-0.008333333,1,0,0,1.0321,rock_grid_rect_2,1,04,-1,-1,1.032,0.183333333,-0.408333333,1,0,0,10.4751,Peridotite_rect,7,10.475,0,14,0,14,0,1,,,,,,,,,,,,,
666c453b833e8ad9c85526fd,TCN,2024-06-21_12h46.20.488,LearnStrategy,2023.2.3,Win32,100,1,1,16,-0.015277778,-0.001388889,1,0,0,0.9346,rock_grid_rect_2,4,10,-1,-1,0.935,-0.340972222,-0.396527778,1,0,0,3.0833,Obsidian_rect,5,3.083,0,15,0,15,0,1,,,,,,,,,,,,,
666c453b833e8ad9c85526fd,TCN,2024-06-21_12h46.20.488,LearnStrategy,2023.2.3,Win32,100,1,2,1,,,,,,,,2,01,,,,,,,,,,,5,5.153,0,,,,,,-0.366666667,-0.395833333,1,0,0,5.1529,Obsidian_rect,0,0,0,0,1,
666c453b833e8ad9c85526fd,TCN,2024-06-21_12h46.20.488,LearnStrategy,2023.2.3,Win32,100,1,2,2,,,,,,,,7,08,,,,,,,,,,,3,3.535,0,,,,,,0.074305556,-0.252083333,1,0,0,3.5351,Diorite_rect,1,0,1,0,1,
666c453b833e8ad9c85526fd,TCN,2024-06-21_12h46.20.488,LearnStrategy,2023.2.3,Win32,100,1,2,3,,,,,,,,5,09,,,,,,,,,,,5,1.767,1,,,,,,-0.370138889,-0.388888889,1,0,0,1.7672,Obsidian_rect,2,0,2,0,1,
666c453b833e8ad9c85526fd,TCN,2024-06-21_12h46.20.488,LearnStrategy,2023.2.3,Win32,100,1,2,4,,,,,,,,8,13,,,,,,,,,,,8,1.801,1,,,,,,0.386111111,-0.414583333,1,0,0,1.8008,Pumice_rect,3,0,3,0,1,
666c453b833e8ad9c85526fd,TCN,2024-06-21_12h46.20.488,LearnStrategy,2023.2.3,Win32,100,1,2,5,,,,,,,,1,05,,,,,,,,,,,7,4.185,0,,,,,,0.091666667,-0.393055556,1,0,0,4.1854,Peridotite_rect,4,0,4,0,1,
666c453b833e8ad9c85526fd,TCN,2024-06-21_12h46.20.488,LearnStrategy,2023.2.3,Win32,100,1,2,6,,,,,,,,6,11,,,,,,,,,,,6,3.352,1,,,,,,-0.136111111,-0.398611111,1,0,0,3.3517,Pegmatite_rect,5,0,5,0,1,
666c453b833e8ad9c85526fd,TCN,2024-06-21_12h46.20.488,LearnStrategy,2023.2.3,Win32,100,1,2,7,,,,,,,,7,10,,,,,,,,,,,3,1.468,0,,,,,,0.095833333,-0.252777778,1,0,0,1.4676,Diorite_rect,6,0,6,0,1,
666c453b833e8ad9c85526fd,TCN,2024-06-21_12h46.20.488,LearnStrategy,2023.2.3,Win32,100,1,2,8,,,,,,,,5,12,,,,,,,,,,,5,1.184,1,,,,,,-0.384027778,-0.388888889,1,0,0,1.1839,Obsidian_rect,7,0,7,0,1,
666c453b833e8ad9c85526fd,TCN,2024-06-21_12h46.20.488,LearnStrategy,2023.2.3,Win32,100,1,2,9,,,,,,,,3,12,,,,,,,,,,,4,5.187,0,,,,,,0.336111111,-0.234722222,1,0,0,5.1868,Gabbro_rect,8,0,8,0,1,
666c453b833e8ad9c85526fd,TCN,2024-06-21_12h46.20.488,LearnStrategy,2023.2.3,Win32,100,1,2,10,,,,,,,,8,16,,,,,,,,,,,8,1.648,1,,,,,,0.360416667,-0.397916667,1,0,0,1.648,Pumice_rect,9,0,9,0,1,
666c453b833e8ad9c85526fd,TCN,2024-06-21_12h46.20.488,LearnStrategy,2023.2.3,Win32,100,1,2,11,,,,,,,,2,12,,,,,,,,,,,2,3.988,1,,,,,,-0.165972222,-0.25,1,0,0,3.988,Basalt_rect,10,0,10,0,1,
666c453b833e8ad9c85526fd,TCN,2024-06-21_12h46.20.488,LearnStrategy,2023.2.3,Win32,100,1,2,12,,,,,,,,4,11,,,,,,,,,,,2,1,0,,,,,,-0.151388889,-0.259027778,1,0,0,0.9995,Basalt_rect,11,0,11,0,1,
666c453b833e8ad9c85526fd,TCN,2024-06-21_12h46.20.488,LearnStrategy,2023.2.3,Win32,100,1,2,13,,,,,,,,3,13,,,,,,,,,,,7,4.069,0,,,,,,0.103472222,-0.403472222,1,0,0,4.0693,Peridotite_rect,12,0,12,0,1,
666c453b833e8ad9c85526fd,TCN,2024-06-21_12h46.20.488,LearnStrategy,2023.2.3,Win32,100,1,2,14,,,,,,,,4,01,,,,,,,,,,,6,5.204,0,,,,,,-0.126388889,-0.395138889,1,0,0,5.2038,Pegmatite_rect,13,0,13,0,1,
666c453b833e8ad9c85526fd,TCN,2024-06-21_12h46.20.488,LearnStrategy,2023.2.3,Win32,100,1,2,15,,,,,,,,6,16,,,,,,,,,,,4,5.538,0,,,,,,0.334722222,-0.239583333,1,0,0,5.5382,Gabbro_rect,14,0,14,0,1,
666c453b833e8ad9c85526fd,TCN,2024-06-21_12h46.20.488,LearnStrategy,2023.2.3,Win32,100,1,2,16,,,,,,,,1,11,,,,,,,,,,,1,7.487,1,,,,,,-0.403472222,-0.234722222,1,0,0,7.4868,Andesite_rect,15,0,15,0,1,
666c453b833e8ad9c85526fd,TCN,2024-06-21_12h46.20.488,LearnStrategy,2023.2.3,Win32,100,2,1,1,-0.055555556,-0.011805556,1,0,0,1.4993,rock_grid_rect_2,7,12,-1,-1,1.499,0.081944444,-0.248611111,1,0,0,8.6241,Diorite_rect,3,8.624,0,0,0,0,0,1,,,,,,,,,,,,,
666c453b833e8ad9c85526fd,TCN,2024-06-21_12h46.20.488,LearnStrategy,2023.2.3,Win32,100,2,1,2,-0.047916667,-0.011111111,1,0,0,1.1385,rock_grid_rect_2,4,03,-1,-1,1.138,-0.336111111,-0.245833333,1,0,0,5.6949,Andesite_rect,1,5.695,0,1,0,1,0,1,,,,,,,,,,,,,
666c453b833e8ad9c85526fd,TCN,2024-06-21_12h46.20.488,LearnStrategy,2023.2.3,Win32,100,2,1,3,-0.00625,-0.006944444,1,0,0,0.8011,rock_grid_rect_2,3,06,-1,-1,0.801,0.095138889,-0.406944444,1,0,0,3.9521,Peridotite_rect,7,3.952,0,2,0,2,0,1,,,,,,,,,,,,,
666c453b833e8ad9c85526fd,TCN,2024-06-21_12h46.20.488,LearnStrategy,2023.2.3,Win32,100,2,1,4,0.002083333,-0.014583333,1,0,0,1.1662,rock_grid_rect_2,2,14,-1,-1,1.166,0.347916667,-0.409027778,1,0,0,5.17,Pumice_rect,8,5.17,0,3,0,3,0,1,,,,,,,,,,,,,
666c453b833e8ad9c85526fd,TCN,2024-06-21_12h46.20.488,LearnStrategy,2023.2.3,Win32,100,2,1,5,-0.009722222,-0.001388889,1,0,0,0.8187,rock_grid_rect_2,8,02,-1,-1,0.819,0.356944444,-0.386111111,1,0,0,3.0176,Pumice_rect,8,3.018,1,4,0,4,0,1,,,,,,,,,,,,,
666c453b833e8ad9c85526fd,TCN,2024-06-21_12h46.20.488,LearnStrategy,2023.2.3,Win32,100,2,1,6,-0.01875,-0.011111111,1,0,0,0.7004,rock_grid_rect_2,6,15,-1,-1,0.7,-0.123611111,-0.252083333,1,0,0,2.5837,Basalt_rect,2,2.584,0,5,0,5,0,1,,,,,,,,,,,,,
666c453b833e8ad9c85526fd,TCN,2024-06-21_12h46.20.488,LearnStrategy,2023.2.3,Win32,100,2,1,7,-0.035416667,0.00625,1,0,0,0.8318,rock_grid_rect_2,5,07,-1,-1,0.832,-0.386111111,-0.392361111,1,0,0,1.3019,Obsidian_rect,5,1.302,1,6,0,6,0,1,,,,,,,,,,,,,
666c453b833e8ad9c85526fd,TCN,2024-06-21_12h46.20.488,LearnStrategy,2023.2.3,Win32,100,2,1,8,0.005555556,0.001388889,1,0,0,0.7854,rock_grid_rect_2,6,07,-1,-1,0.785,-0.139583333,-0.410416667,1,0,0,4.7007,Pegmatite_rect,6,4.701,1,7,0,7,0,1,,,,,,,,,,,,,
666c453b833e8ad9c85526fd,TCN,2024-06-21_12h46.20.488,LearnStrategy,2023.2.3,Win32,100,2,1,9,-0.009027778,-0.014583333,1,0,0,0.8603,rock_grid_rect_2,5,04,-1,-1,0.86,-0.391666667,-0.4,1,0,0,1.2383,Obsidian_rect,5,1.238,1,8,0,8,0,1,,,,,,,,,,,,,
666c453b833e8ad9c85526fd,TCN,2024-06-21_12h46.20.488,LearnStrategy,2023.2.3,Win32,100,2,1,10,0.013194444,-0.003472222,1,0,0,0.9234,rock_grid_rect_2,4,16,-1,-1,0.923,-0.359722222,-0.25625,1,0,0,7.9497,Andesite_rect,1,7.95,0,9,0,9,0,1,,,,,,,,,,,,,
666c453b833e8ad9c85526fd,TCN,2024-06-21_12h46.20.488,LearnStrategy,2023.2.3,Win32,100,2,1,11,-0.002777778,-0.002083333,1,0,0,0.8097,rock_grid_rect_2,3,10,-1,-1,0.81,-0.104861111,-0.402777778,1,0,0,2.4416,Pegmatite_rect,6,2.442,0,10,0,10,0,1,,,,,,,,,,,,,
666c453b833e8ad9c85526fd,TCN,2024-06-21_12h46.20.488,LearnStrategy,2023.2.3,Win32,100,2,1,12,0.000694444,-0.004861111,1,0,0,1.0181,rock_grid_rect_2,1,02,-1,-1,1.018,0.134722222,-0.409722222,1,0,0,2.7174,Peridotite_rect,7,2.717,0,11,0,11,0,1,,,,,,,,,,,,,
666c453b833e8ad9c85526fd,TCN,2024-06-21_12h46.20.488,LearnStrategy,2023.2.3,Win32,100,2,1,13,-0.002083333,0.002083333,1,0,0,0.7441,rock_grid_rect_2,2,11,-1,-1,0.744,-0.13125,-0.241666667,1,0,0,1.9436,Basalt_rect,2,1.944,1,12,0,12,0,1,,,,,,,,,,,,,
666c453b833e8ad9c85526fd,TCN,2024-06-21_12h46.20.488,LearnStrategy,2023.2.3,Win32,100,2,1,14,-0.028472222,-0.001388889,1,0,0,0.852,rock_grid_rect_2,7,16,-1,-1,0.852,-0.117361111,-0.385416667,1,0,0,2.033,Pegmatite_rect,6,2.033,0,13,0,13,0,1,,,,,,,,,,,,,
666c453b833e8ad9c85526fd,TCN,2024-06-21_12h46.20.488,LearnStrategy,2023.2.3,Win32,100,2,1,15,-0.03125,-0.006944444,1,0,0,0.7685,rock_grid_rect_2,8,04,-1,-1,0.769,0.347916667,-0.404861111,1,0,0,2.1159,Pumice_rect,8,2.116,1,14,0,14,0,1,,,,,,,,,,,,,
666c453b833e8ad9c85526fd,TCN,2024-06-21_12h46.20.488,LearnStrategy,2023.2.3,Win32,100,2,1,16,-0.005555556,-0.004166667,1,0,0,0.8184,rock_grid_rect_2,1,07,-1,-1,0.818,0.102083333,-0.240972222,1,0,0,2.8184,Diorite_rect,3,2.818,0,15,0,15,0,1,,,,,,,,,,,,,
666c453b833e8ad9c85526fd,TCN,2024-06-21_12h46.20.488,LearnStrategy,2023.2.3,Win32,100,2,2,1,,,,,,,,1,06,,,,,,,,,,,3,4.803,0,,,,,,0.072916667,-0.233333333,1,0,0,4.8033,Diorite_rect,0,0,0,0,1,
666c453b833e8ad9c85526fd,TCN,2024-06-21_12h46.20.488,LearnStrategy,2023.2.3,Win32,100,2,2,2,,,,,,,,2,06,,,,,,,,,,,2,1.35,1,,,,,,-0.129166667,-0.25,1,0,0,1.35,Basalt_rect,1,0,1,0,1,
666c453b833e8ad9c85526fd,TCN,2024-06-21_12h46.20.488,LearnStrategy,2023.2.3,Win32,100,2,2,3,,,,,,,,5,11,,,,,,,,,,,5,1.165,1,,,,,,-0.380555556,-0.392361111,1,0,0,1.1651,Obsidian_rect,2,0,2,0,1,
666c453b833e8ad9c85526fd,TCN,2024-06-21_12h46.20.488,LearnStrategy,2023.2.3,Win32,100,2,2,4,,,,,,,,7,13,,,,,,,,,,,6,1.618,0,,,,,,-0.116666667,-0.389583333,1,0,0,1.6181,Pegmatite_rect,3,0,3,0,1,
666c453b833e8ad9c85526fd,TCN,2024-06-21_12h46.20.488,LearnStrategy,2023.2.3,Win32,100,2,2,5,,,,,,,,2,04,,,,,,,,,,,8,5.036,0,,,,,,0.359027778,-0.409722222,1,0,0,5.0363,Pumice_rect,4,0,4,0,1,
666c453b833e8ad9c85526fd,TCN,2024-06-21_12h46.20.488,LearnStrategy,2023.2.3,Win32,100,2,2,6,,,,,,,,4,12,,,,,,,,,,,4,2.267,1,,,,,,0.357638889,-0.269444444,1,0,0,2.2672,Gabbro_rect,5,0,5,0,1,
666c453b833e8ad9c85526fd,TCN,2024-06-21_12h46.20.488,LearnStrategy,2023.2.3,Win32,100,2,2,7,,,,,,,,6,09,,,,,,,,,,,4,1.01,0,,,,,,0.354166667,-0.264583333,1,0,0,1.0105,Gabbro_rect,6,0,6,0,1,
666c453b833e8ad9c85526fd,TCN,2024-06-21_12h46.20.488,LearnStrategy,2023.2.3,Win32,100,2,2,8,,,,,,,,6,13,,,,,,,,,,,5,4.068,0,,,,,,-0.403472222,-0.381944444,1,0,0,4.0681,Obsidian_rect,7,0,7,0,1,
666c453b833e8ad9c85526fd,TCN,2024-06-21_12h46.20.488,LearnStrategy,2023.2.3,Win32,100,2,2,9,,,,,,,,5,16,,,,,,,,,,,5,1.051,1,,,,,,-0.370138889,-0.385416667,1,0,0,1.0506,Obsidian_rect,8,0,8,0,1,
666c453b833e8ad9c85526fd,TCN,2024-06-21_12h46.20.488,LearnStrategy,2023.2.3,Win32,100,2,2,10,,,,,,,,4,09,,,,,,,,,,,2,2.352,0,,,,,,-0.077777778,-0.236805556,1,0,0,2.3518,Basalt_rect,9,0,9,0,1,
666c453b833e8ad9c85526fd,TCN,2024-06-21_12h46.20.488,LearnStrategy,2023.2.3,Win32,100,2,2,11,,,,,,,,8,14,,,,,,,,,,,8,1.2,1,,,,,,0.351388889,-0.415277778,1,0,0,1.2004,Pumice_rect,10,0,10,0,1,
666c453b833e8ad9c85526fd,TCN,2024-06-21_12h46.20.488,LearnStrategy,2023.2.3,Win32,100,2,2,12,,,,,,,,1,16,,,,,,,,,,,7,2.135,0,,,,,,0.079861111,-0.398611111,1,0,0,2.1345,Peridotite_rect,11,0,11,0,1,
666c453b833e8ad9c85526fd,TCN,2024-06-21_12h46.20.488,LearnStrategy,2023.2.3,Win32,100,2,2,13,,,,,,,,3,15,,,,,,,,,,,1,1.351,0,,,,,,-0.352777778,-0.247222222,1,0,0,1.3505,Andesite_rect,12,0,12,0,1,
666c453b833e8ad9c85526fd,TCN,2024-06-21_12h46.20.488,LearnStrategy,2023.2.3,Win32,100,2,2,14,,,,,,,,8,09,,,,,,,,,,,8,3.319,1,,,,,,0.358333333,-0.395138889,1,0,0,3.3186,Pumice_rect,13,0,13,0,1,
666c453b833e8ad9c85526fd,TCN,2024-06-21_12h46.20.488,LearnStrategy,2023.2.3,Win32,100,2,2,15,,,,,,,,3,09,,,,,,,,,,,4,12.211,0,,,,,,0.36875,-0.253472222,1,0,0,12.2105,Gabbro_rect,14,0,14,0,1,
666c453b833e8ad9c85526fd,TCN,2024-06-21_12h46.20.488,LearnStrategy,2023.2.3,Win32,100,2,2,16,,,,,,,,7,14,,,,,,,,,,,6,2.196,0,,,,,,-0.098611111,-0.398611111,1,0,0,2.1962,Pegmatite_rect,15,0,15,0,1,
666c453b833e8ad9c85526fd,TCN,2024-06-21_12h46.20.488,LearnStrategy,2023.2.3,Win32,100,3,1,1,-0.029166667,0.005555556,1,0,0,1.6316,rock_grid_rect_2,3,08,-1,-1,1.632,0.097916667,-0.394444444,1,0,0,3.8874,Peridotite_rect,7,3.887,0,0,0,0,0,1,,,,,,,,,,,,,
666c453b833e8ad9c85526fd,TCN,2024-06-21_12h46.20.488,LearnStrategy,2023.2.3,Win32,100,3,1,2,0.063194444,-0.008333333,1,0,0,0.8672,rock_grid_rect_2,4,13,-1,-1,0.867,-0.096527778,-0.394444444,1,0,0,1.3663,Pegmatite_rect,6,1.366,0,1,0,1,0,1,,,,,,,,,,,,,
666c453b833e8ad9c85526fd,TCN,2024-06-21_12h46.20.488,LearnStrategy,2023.2.3,Win32,100,3,1,3,0.016666667,-0.007638889,1,0,0,0.8495,rock_grid_rect_2,2,10,-1,-1,0.849,-0.109027778,-0.252777778,1,0,0,2.402,Basalt_rect,2,2.402,1,2,0,2,0,1,,,,,,,,,,,,,
666c453b833e8ad9c85526fd,TCN,2024-06-21_12h46.20.488,LearnStrategy,2023.2.3,Win32,100,3,1,4,-0.001388889,0.002777778,1,0,0,0.7941,rock_grid_rect_2,6,03,-1,-1,0.794,-0.096527778,-0.399305556,1,0,0,2.2854,Pegmatite_rect,6,2.285,1,3,0,3,0,1,,,,,,,,,,,,,
666c453b833e8ad9c85526fd,TCN,2024-06-21_12h46.20.488,LearnStrategy,2023.2.3,Win32,100,3,1,5,-0.0125,-0.001388889,1,0,0,0.7016,rock_grid_rect_2,8,05,-1,-1,0.702,0.376388889,-0.390972222,1,0,0,1.9979,Pumice_rect,8,1.998,1,4,0,4,0,1,,,,,,,,,,,,,
666c453b833e8ad9c85526fd,TCN,2024-06-21_12h46.20.488,LearnStrategy,2023.2.3,Win32,100,3,1,6,-0.005555556,-0.003472222,1,0,0,0.7432,rock_grid_rect_2,8,03,-1,-1,0.743,0.354166667,-0.393055556,1,0,0,1.2674,Pumice_rect,8,1.267,1,5,0,5,0,1,,,,,,,,,,,,,
666c453b833e8ad9c85526fd,TCN,2024-06-21_12h46.20.488,LearnStrategy,2023.2.3,Win32,100,3,1,7,-0.011805556,-0.007638889,1,0,0,0.7186,rock_grid_rect_2,5,10,-1,-1,0.719,-0.356944444,-0.390972222,1,0,0,1.1818,Obsidian_rect,5,1.182,1,6,0,6,0,1,,,,,,,,,,,,,
666c453b833e8ad9c85526fd,TCN,2024-06-21_12h46.20.488,LearnStrategy,2023.2.3,Win32,100,3,1,8,0.001388889,0.004861111,1,0,0,0.7179,rock_grid_rect_2,6,06,-1,-1,0.718,-0.375694444,-0.255555556,1,0,0,1.8825,Andesite_rect,1,1.883,0,7,0,7,0,1,,,,,,,,,,,,,
666c453b833e8ad9c85526fd,TCN,2024-06-21_12h46.20.488,LearnStrategy,2023.2.3,Win32,100,3,1,9,-0.036805556,0,1,0,0,1.0181,rock_grid_rect_2,1,03,-1,-1,1.018,-0.099305556,-0.264583333,1,0,0,2.7337,Basalt_rect,2,2.734,0,8,0,8,0,1,,,,,,,,,,,,,
666c453b833e8ad9c85526fd,TCN,2024-06-21_12h46.20.488,LearnStrategy,2023.2.3,Win32,100,3,1,10,-0.014583333,-0.002083333,1,0,0,1.0354,rock_grid_rect_2,7,07,-1,-1,1.035,-0.113888889,-0.395138889,1,0,0,1.4323,Pegmatite_rect,6,1.432,0,9,0,9,0,1,,,,,,,,,,,,,
666c453b833e8ad9c85526fd,TCN,2024-06-21_12h46.20.488,LearnStrategy,2023.2.3,Win32,100,3,1,11,-0.029166667,0.009722222,1,0,0,0.7849,rock_grid_rect_2,3,07,-1,-1,0.785,0.390277778,-0.255555556,1,0,0,2.8004,Gabbro_rect,4,2.8,0,10,0,10,0,1,,,,,,,,,,,,,
666c453b833e8ad9c85526fd,TCN,2024-06-21_12h46.20.488,LearnStrategy,2023.2.3,Win32,100,3,1,12,0.009027778,-0.007638889,1,0,0,0.8681,rock_grid_rect_2,7,04,-1,-1,0.868,0.116666667,-0.253472222,1,0,0,1.3992,Diorite_rect,3,1.399,0,11,0,11,0,1,,,,,,,,,,,,,
666c453b833e8ad9c85526fd,TCN,2024-06-21_12h46.20.488,LearnStrategy,2023.2.3,Win32,100,3,1,13,-0.002083333,-0.006944444,1,0,0,0.7875,rock_grid_rect_2,2,09,-1,-1,0.788,-0.138194444,-0.238888889,1,0,0,2.1689,Basalt_rect,2,2.169,1,12,0,12,0,1,,,,,,,,,,,,,
666c453b833e8ad9c85526fd,TCN,2024-06-21_12h46.20.488,LearnStrategy,2023.2.3,Win32,100,3,1,14,-0.015972222,-0.007638889,1,0,0,0.7018,rock_grid_rect_2,5,02,-1,-1,0.702,-0.36875,-0.395833333,1,0,0,1.1152,Obsidian_rect,5,1.115,1,13,0,13,0,1,,,,,,,,,,,,,
666c453b833e8ad9c85526fd,TCN,2024-06-21_12h46.20.488,LearnStrategy,2023.2.3,Win32,100,3,1,15,-0.009027778,-0.006944444,1,0,0,0.7861,rock_grid_rect_2,1,01,-1,-1,0.786,0.115277778,-0.242361111,1,0,0,6.0516,Diorite_rect,3,6.052,0,14,0,14,0,1,,,,,,,,,,,,,
666c453b833e8ad9c85526fd,TCN,2024-06-21_12h46.20.488,LearnStrategy,2023.2.3,Win32,100,3,1,16,-0.051388889,-0.006944444,1,0,0,0.7512,rock_grid_rect_2,4,05,-1,-1,0.751,0.101388889,-0.391666667,1,0,0,1.6163,Peridotite_rect,7,1.616,0,15,0,15,0,1,,,,,,,,,,,,,
666c453b833e8ad9c85526fd,TCN,2024-06-21_12h46.20.488,LearnStrategy,2023.2.3,Win32,100,3,2,1,,,,,,,,6,05,,,,,,,,,,,4,1.629,0,,,,,,0.340972222,-0.235416667,1,0,0,1.6294,Gabbro_rect,0,0,0,0,1,
666c453b833e8ad9c85526fd,TCN,2024-06-21_12h46.20.488,LearnStrategy,2023.2.3,Win32,100,3,2,2,,,,,,,,5,05,,,,,,,,,,,5,1.235,1,,,,,,-0.372222222,-0.389583333,1,0,0,1.2348,Obsidian_rect,1,0,1,0,1,
666c453b833e8ad9c85526fd,TCN,2024-06-21_12h46.20.488,LearnStrategy,2023.2.3,Win32,100,3,2,3,,,,,,,,3,14,,,,,,,,,,,1,1.535,0,,,,,,-0.377777778,-0.245138889,1,0,0,1.5346,Andesite_rect,2,0,2,0,1,
666c453b833e8ad9c85526fd,TCN,2024-06-21_12h46.20.488,LearnStrategy,2023.2.3,Win32,100,3,2,4,,,,,,,,8,08,,,,,,,,,,,8,1.2,1,,,,,,0.38125,-0.399305556,1,0,0,1.2004,Pumice_rect,3,0,3,0,1,
666c453b833e8ad9c85526fd,TCN,2024-06-21_12h46.20.488,LearnStrategy,2023.2.3,Win32,100,3,2,5,,,,,,,,3,02,,,,,,,,,,,3,2.802,1,,,,,,0.092361111,-0.231944444,1,0,0,2.8021,Diorite_rect,4,0,4,0,1,
666c453b833e8ad9c85526fd,TCN,2024-06-21_12h46.20.488,LearnStrategy,2023.2.3,Win32,100,3,2,6,,,,,,,,4,15,,,,,,,,,,,6,1.135,0,,,,,,-0.122222222,-0.393055556,1,0,0,1.1345,Pegmatite_rect,5,0,5,0,1,
666c453b833e8ad9c85526fd,TCN,2024-06-21_12h46.20.488,LearnStrategy,2023.2.3,Win32,100,3,2,7,,,,,,,,2,02,,,,,,,,,,,2,4.478,1,,,,,,-0.123611111,-0.228472222,1,0,0,4.4777,Basalt_rect,6,0,6,0,1,
666c453b833e8ad9c85526fd,TCN,2024-06-21_12h46.20.488,LearnStrategy,2023.2.3,Win32,100,3,2,8,,,,,,,,8,06,,,,,,,,,,,8,1.112,1,,,,,,0.371527778,-0.401388889,1,0,0,1.112,Pumice_rect,7,0,7,0,1,
666c453b833e8ad9c85526fd,TCN,2024-06-21_12h46.20.488,LearnStrategy,2023.2.3,Win32,100,3,2,9,,,,,,,,7,06,,,,,,,,,,,6,2.054,0,,,,,,-0.116666667,-0.395833333,1,0,0,2.0542,Pegmatite_rect,8,0,8,0,1,
666c453b833e8ad9c85526fd,TCN,2024-06-21_12h46.20.488,LearnStrategy,2023.2.3,Win32,100,3,2,10,,,,,,,,1,14,,,,,,,,,,,7,2.318,0,,,,,,0.107638889,-0.395833333,1,0,0,2.3185,Peridotite_rect,9,0,9,0,1,
666c453b833e8ad9c85526fd,TCN,2024-06-21_12h46.20.488,LearnStrategy,2023.2.3,Win32,100,3,2,11,,,,,,,,4,08,,,,,,,,,,,5,5.053,0,,,,,,-0.422916667,-0.402083333,1,0,0,5.0531,Obsidian_rect,10,0,10,0,1,
666c453b833e8ad9c85526fd,TCN,2024-06-21_12h46.20.488,LearnStrategy,2023.2.3,Win32,100,3,2,12,,,,,,,,2,16,,,,,,,,,,,1,4.57,0,,,,,,-0.4125,-0.25,1,0,0,4.5699,Andesite_rect,11,0,11,0,1,
666c453b833e8ad9c85526fd,TCN,2024-06-21_12h46.20.488,LearnStrategy,2023.2.3,Win32,100,3,2,13,,,,,,,,6,08,,,,,,,,,,,3,1.916,0,,,,,,0.083333333,-0.248611111,1,0,0,1.9156,Diorite_rect,12,0,12,0,1,
666c453b833e8ad9c85526fd,TCN,2024-06-21_12h46.20.488,LearnStrategy,2023.2.3,Win32,100,3,2,14,,,,,,,,5,14,,,,,,,,,,,5,1.085,1,,,,,,-0.382638889,-0.389583333,1,0,0,1.0845,Obsidian_rect,13,0,13,0,1,
666c453b833e8ad9c85526fd,TCN,2024-06-21_12h46.20.488,LearnStrategy,2023.2.3,Win32,100,3,2,15,,,,,,,,1,10,,,,,,,,,,,8,1.418,0,,,,,,0.367361111,-0.396527778,1,0,0,1.4181,Pumice_rect,14,0,14,0,1,
666c453b833e8ad9c85526fd,TCN,2024-06-21_12h46.20.488,LearnStrategy,2023.2.3,Win32,100,3,2,16,,,,,,,,7,02,,,,,,,,,,,6,1.551,0,,,,,,-0.117361111,-0.393055556,1,0,0,1.5511,Pegmatite_rect,15,0,15,0,1,
666c453b833e8ad9c85526fd,TCN,2024-06-21_12h46.20.488,LearnStrategy,2023.2.3,Win32,100,4,1,1,-0.044444444,0.001388889,1,0,0,1.0519,rock_grid_rect_2,4,14,-1,-1,1.052,-0.398611111,-0.252777778,1,0,0,24.0007,Andesite_rect,1,24.001,0,0,0,0,0,1,,,,,,,,,,,,,
666c453b833e8ad9c85526fd,TCN,2024-06-21_12h46.20.488,LearnStrategy,2023.2.3,Win32,100,4,1,2,-0.052083333,0,1,0,0,0.9179,rock_grid_rect_2,7,04,-1,-1,0.918,0.111805556,-0.246527778,1,0,0,1.7495,Diorite_rect,3,1.75,0,1,0,1,0,1,,,,,,,,,,,,,
666c453b833e8ad9c85526fd,TCN,2024-06-21_12h46.20.488,LearnStrategy,2023.2.3,Win32,100,4,1,3,-0.040972222,0.003472222,1,0,0,0.7016,rock_grid_rect_2,2,09,-1,-1,0.702,-0.138194444,-0.263194444,1,0,0,1.1818,Basalt_rect,2,1.182,1,2,0,2,0,1,,,,,,,,,,,,,
666c453b833e8ad9c85526fd,TCN,2024-06-21_12h46.20.488,LearnStrategy,2023.2.3,Win32,100,4,1,4,-0.029166667,0.006944444,1,0,0,0.6687,rock_grid_rect_2,8,04,-1,-1,0.669,0.381944444,-0.403472222,1,0,0,1.6818,Pumice_rect,8,1.682,1,3,0,3,0,1,,,,,,,,,,,,,
666c453b833e8ad9c85526fd,TCN,2024-06-21_12h46.20.488,LearnStrategy,2023.2.3,Win32,100,4,1,5,-0.040277778,0.004861111,1,0,0,0.668,rock_grid_rect_2,7,12,-1,-1,0.668,0.122916667,-0.399305556,1,0,0,2.5003,Peridotite_rect,7,2.5,1,4,0,4,0,1,,,,,,,,,,,,,
666c453b833e8ad9c85526fd,TCN,2024-06-21_12h46.20.488,LearnStrategy,2023.2.3,Win32,100,4,1,6,-0.001388889,-0.005555556,1,0,0,0.8682,rock_grid_rect_2,6,15,-1,-1,0.868,-0.395138889,-0.248611111,1,0,0,3.3336,Andesite_rect,1,3.334,0,5,0,5,0,1,,,,,,,,,,,,,
666c453b833e8ad9c85526fd,TCN,2024-06-21_12h46.20.488,LearnStrategy,2023.2.3,Win32,100,4,1,7,0.054166667,-0.004861111,1,0,0,0.85,rock_grid_rect_2,4,13,-1,-1,0.85,0.386111111,-0.269444444,1,0,0,1.7672,Gabbro_rect,4,1.767,1,6,0,6,0,1,,,,,,,,,,,,,
666c453b833e8ad9c85526fd,TCN,2024-06-21_12h46.20.488,LearnStrategy,2023.2.3,Win32,100,4,1,8,-0.009027778,-0.0125,1,0,0,0.7326,rock_grid_rect_2,5,04,-1,-1,0.733,-0.384722222,-0.409722222,1,0,0,1.1016,Obsidian_rect,5,1.102,1,7,0,7,0,1,,,,,,,,,,,,,
666c453b833e8ad9c85526fd,TCN,2024-06-21_12h46.20.488,LearnStrategy,2023.2.3,Win32,100,4,1,9,-0.053472222,-0.005555556,1,0,0,0.7173,rock_grid_rect_2,3,06,-1,-1,0.717,0.364583333,-0.248611111,1,0,0,4.0683,Gabbro_rect,4,4.068,0,8,0,8,0,1,,,,,,,,,,,,,
666c453b833e8ad9c85526fd,TCN,2024-06-21_12h46.20.488,LearnStrategy,2023.2.3,Win32,100,4,1,10,-0.038194444,-0.015972222,1,0,0,0.8344,rock_grid_rect_2,6,06,-1,-1,0.834,0.109027778,-0.396527778,1,0,0,2.5504,Peridotite_rect,7,2.55,0,9,0,9,0,1,,,,,,,,,,,,,
666c453b833e8ad9c85526fd,TCN,2024-06-21_12h46.20.488,LearnStrategy,2023.2.3,Win32,100,4,1,11,-0.027777778,-0.005555556,1,0,0,0.7681,rock_grid_rect_2,3,08,-1,-1,0.768,0.40625,-0.268055556,1,0,0,1.2158,Gabbro_rect,4,1.216,0,10,0,10,0,1,,,,,,,,,,,,,
666c453b833e8ad9c85526fd,TCN,2024-06-21_12h46.20.488,LearnStrategy,2023.2.3,Win32,100,4,1,12,-0.029861111,-0.000694444,1,0,0,0.6993,rock_grid_rect_2,5,02,-1,-1,0.699,-0.380555556,-0.384027778,1,0,0,1.1508,Obsidian_rect,5,1.151,1,11,0,11,0,1,,,,,,,,,,,,,
666c453b833e8ad9c85526fd,TCN,2024-06-21_12h46.20.488,LearnStrategy,2023.2.3,Win32,100,4,1,13,-0.025,0.002083333,1,0,0,0.7342,rock_grid_rect_2,8,05,-1,-1,0.734,0.338194444,-0.388888889,1,0,0,1.1991,Pumice_rect,8,1.199,1,12,0,12,0,1,,,,,,,,,,,,,
666c453b833e8ad9c85526fd,TCN,2024-06-21_12h46.20.488,LearnStrategy,2023.2.3,Win32,100,4,1,14,-0.033333333,0.002083333,1,0,0,0.7519,rock_grid_rect_2,1,07,-1,-1,0.752,0.356944444,-0.255555556,1,0,0,6.8374,Gabbro_rect,4,6.837,0,13,0,13,0,1,,,,,,,,,,,,,
666c453b833e8ad9c85526fd,TCN,2024-06-21_12h46.20.488,LearnStrategy,2023.2.3,Win32,100,4,1,15,-0.050694444,-0.010416667,1,0,0,1.0854,rock_grid_rect_2,2,10,-1,-1,1.085,-0.115277778,-0.254861111,1,0,0,10.106,Basalt_rect,2,10.106,1,14,0,14,0,1,,,,,,,,,,,,,
666c453b833e8ad9c85526fd,TCN,2024-06-21_12h46.20.488,LearnStrategy,2023.2.3,Win32,100,4,1,16,-0.054861111,-0.015277778,1,0,0,0.8688,rock_grid_rect_2,1,04,-1,-1,0.869,-0.372916667,-0.238194444,1,0,0,1.9825,Andesite_rect,1,1.982,1,15,0,15,0,1,,,,,,,,,,,,,
666c453b833e8ad9c85526fd,TCN,2024-06-21_12h46.20.488,LearnStrategy,2023.2.3,Win32,100,4,2,1,,,,,,,,5,12,,,,,,,,,,,5,1.117,1,,,,,,-0.388194444,-0.393055556,1,0,0,1.1169,Obsidian_rect,0,0,0,0,1,
666c453b833e8ad9c85526fd,TCN,2024-06-21_12h46.20.488,LearnStrategy,2023.2.3,Win32,100,4,2,2,,,,,,,,5,14,,,,,,,,,,,5,1.191,1,,,,,,-0.379166667,-0.4125,1,0,0,1.1911,Obsidian_rect,1,0,1,0,1,
666c453b833e8ad9c85526fd,TCN,2024-06-21_12h46.20.488,LearnStrategy,2023.2.3,Win32,100,4,2,3,,,,,,,,7,06,,,,,,,,,,,7,1.551,1,,,,,,0.109722222,-0.395833333,1,0,0,1.5507,Peridotite_rect,2,0,2,0,1,
666c453b833e8ad9c85526fd,TCN,2024-06-21_12h46.20.488,LearnStrategy,2023.2.3,Win32,100,4,2,4,,,,,,,,1,14,,,,,,,,,,,4,3.353,0,,,,,,0.361111111,-0.240277778,1,0,0,3.3531,Gabbro_rect,3,0,3,0,1,
666c453b833e8ad9c85526fd,TCN,2024-06-21_12h46.20.488,LearnStrategy,2023.2.3,Win32,100,4,2,5,,,,,,,,7,13,,,,,,,,,,,6,2.351,0,,,,,,-0.105555556,-0.402777778,1,0,0,2.3511,Pegmatite_rect,4,0,4,0,1,
666c453b833e8ad9c85526fd,TCN,2024-06-21_12h46.20.488,LearnStrategy,2023.2.3,Win32,100,4,2,6,,,,,,,,2,06,,,,,,,,,,,2,2,1,,,,,,-0.124305556,-0.246527778,1,0,0,2.0003,Basalt_rect,5,0,5,0,1,
666c453b833e8ad9c85526fd,TCN,2024-06-21_12h46.20.488,LearnStrategy,2023.2.3,Win32,100,4,2,7,,,,,,,,3,13,,,,,,,,,,,1,2.514,0,,,,,,-0.354861111,-0.234722222,1,0,0,2.5141,Andesite_rect,6,0,6,0,1,
666c453b833e8ad9c85526fd,TCN,2024-06-21_12h46.20.488,LearnStrategy,2023.2.3,Win32,100,4,2,8,,,,,,,,4,01,,,,,,,,,,,4,1.934,1,,,,,,0.353472222,-0.248611111,1,0,0,1.9341,Gabbro_rect,7,0,7,0,1,
666c453b833e8ad9c85526fd,TCN,2024-06-21_12h46.20.488,LearnStrategy,2023.2.3,Win32,100,4,2,9,,,,,,,,3,12,,,,,,,,,,,7,1.784,0,,,,,,0.094444444,-0.389583333,1,0,0,1.7839,Peridotite_rect,8,0,8,0,1,
666c453b833e8ad9c85526fd,TCN,2024-06-21_12h46.20.488,LearnStrategy,2023.2.3,Win32,100,4,2,10,,,,,,,,8,13,,,,,,,,,,,8,0.984,1,,,,,,0.39375,-0.392361111,1,0,0,0.9838,Pumice_rect,9,0,9,0,1,
666c453b833e8ad9c85526fd,TCN,2024-06-21_12h46.20.488,LearnStrategy,2023.2.3,Win32,100,4,2,11,,,,,,,,6,11,,,,,,,,,,,5,1.317,0,,,,,,-0.396527778,-0.396527778,1,0,0,1.3173,Obsidian_rect,10,0,10,0,1,
666c453b833e8ad9c85526fd,TCN,2024-06-21_12h46.20.488,LearnStrategy,2023.2.3,Win32,100,4,2,12,,,,,,,,8,16,,,,,,,,,,,8,1.134,1,,,,,,0.372916667,-0.393055556,1,0,0,1.1336,Pumice_rect,11,0,11,0,1,
666c453b833e8ad9c85526fd,TCN,2024-06-21_12h46.20.488,LearnStrategy,2023.2.3,Win32,100,4,2,13,,,,,,,,2,12,,,,,,,,,,,2,2.25,1,,,,,,-0.099305556,-0.243055556,1,0,0,2.2502,Basalt_rect,12,0,12,0,1,
666c453b833e8ad9c85526fd,TCN,2024-06-21_12h46.20.488,LearnStrategy,2023.2.3,Win32,100,4,2,14,,,,,,,,1,11,,,,,,,,,,,6,2.085,0,,,,,,-0.111805556,-0.399305556,1,0,0,2.0851,Pegmatite_rect,13,0,13,0,1,
666c453b833e8ad9c85526fd,TCN,2024-06-21_12h46.20.488,LearnStrategy,2023.2.3,Win32,100,4,2,15,,,,,,,,6,13,,,,,,,,,,,1,2.466,0,,,,,,-0.348611111,-0.236805556,1,0,0,2.4659,Andesite_rect,14,0,14,0,1,
666c453b833e8ad9c85526fd,TCN,2024-06-21_12h46.20.488,LearnStrategy,2023.2.3,Win32,100,4,2,16,,,,,,,,4,12,,,,,,,,,,,2,3.432,0,,,,,,-0.1375,-0.255555556,1,0,0,3.432,Basalt_rect,15,0,15,0,1,
666c453b833e8ad9c85526fd,TCN,2024-06-21_12h46.20.488,LearnStrategy,2023.2.3,Win32,100,5,1,1,-0.075694444,0.009722222,1,0,0,0.537,rock_grid_rect_2,8,15,-1,-1,0.537,0.3625,-0.388194444,1,0,0,2.0633,Pumice_rect,8,2.063,1,0,0,0,0,1,,,,,,,,,,,,,
666c453b833e8ad9c85526fd,TCN,2024-06-21_12h46.20.488,LearnStrategy,2023.2.3,Win32,100,5,1,2,-0.045833333,0.011805556,1,0,0,0.7184,rock_grid_rect_2,8,02,-1,-1,0.718,0.370833333,-0.402083333,1,0,0,1.4323,Pumice_rect,8,1.432,1,1,0,1,0,1,,,,,,,,,,,,,
666c453b833e8ad9c85526fd,TCN,2024-06-21_12h46.20.488,LearnStrategy,2023.2.3,Win32,100,5,1,3,-0.035416667,0.011805556,1,0,0,0.6018,rock_grid_rect_2,7,05,-1,-1,0.602,0.097916667,-0.3875,1,0,0,1.3654,Peridotite_rect,7,1.365,1,2,0,2,0,1,,,,,,,,,,,,,
666c453b833e8ad9c85526fd,TCN,2024-06-21_12h46.20.488,LearnStrategy,2023.2.3,Win32,100,5,1,4,0.011805556,0.006944444,1,0,0,0.6253,rock_grid_rect_2,1,01,-1,-1,0.625,-0.379861111,-0.251388889,1,0,0,3.2512,Andesite_rect,1,3.251,1,3,0,3,0,1,,,,,,,,,,,,,
666c453b833e8ad9c85526fd,TCN,2024-06-21_12h46.20.488,LearnStrategy,2023.2.3,Win32,100,5,1,5,0.030555556,-0.004166667,1,0,0,0.8341,rock_grid_rect_2,4,03,-1,-1,0.834,-0.109722222,-0.397916667,1,0,0,1.8826,Pegmatite_rect,6,1.883,0,4,0,4,0,1,,,,,,,,,,,,,
666c453b833e8ad9c85526fd,TCN,2024-06-21_12h46.20.488,LearnStrategy,2023.2.3,Win32,100,5,1,6,0.032638889,-0.009027778,1,0,0,0.7187,rock_grid_rect_2,2,14,-1,-1,0.719,-0.111805556,-0.247916667,1,0,0,9.5723,Basalt_rect,2,9.572,1,5,0,5,0,1,,,,,,,,,,,,,
666c453b833e8ad9c85526fd,TCN,2024-06-21_12h46.20.488,LearnStrategy,2023.2.3,Win32,100,5,1,7,-0.011805556,-0.015972222,1,0,0,0.8851,rock_grid_rect_2,4,05,-1,-1,0.885,-0.089583333,-0.403472222,1,0,0,3.6014,Pegmatite_rect,6,3.601,0,6,0,6,0,1,,,,,,,,,,,,,
666c453b833e8ad9c85526fd,TCN,2024-06-21_12h46.20.488,LearnStrategy,2023.2.3,Win32,100,5,1,8,0.004861111,-0.003472222,1,0,0,0.7341,rock_grid_rect_2,3,10,-1,-1,0.734,0.361805556,-0.259722222,1,0,0,1.0989,Gabbro_rect,4,1.099,0,7,0,7,0,1,,,,,,,,,,,,,
666c453b833e8ad9c85526fd,TCN,2024-06-21_12h46.20.488,LearnStrategy,2023.2.3,Win32,100,5,1,9,0.016666667,-0.000694444,1,0,0,0.6585,rock_grid_rect_2,1,02,-1,-1,0.659,0.382638889,-0.252083333,1,0,0,1.2658,Gabbro_rect,4,1.266,0,8,0,8,0,1,,,,,,,,,,,,,
666c453b833e8ad9c85526fd,TCN,2024-06-21_12h46.20.488,LearnStrategy,2023.2.3,Win32,100,5,1,10,0.00625,-0.005555556,1,0,0,0.5974,rock_grid_rect_2,3,11,-1,-1,0.597,0.356944444,-0.246527778,1,0,0,0.8484,Gabbro_rect,4,0.848,0,9,0,9,0,1,,,,,,,,,,,,,
666c453b833e8ad9c85526fd,TCN,2024-06-21_12h46.20.488,LearnStrategy,2023.2.3,Win32,100,5,1,11,0.002777778,-0.003472222,1,0,0,0.6551,rock_grid_rect_2,6,12,-1,-1,0.655,0.120833333,-0.250694444,1,0,0,1.7787,Diorite_rect,3,1.779,0,10,0,10,0,1,,,,,,,,,,,,,
666c453b833e8ad9c85526fd,TCN,2024-06-21_12h46.20.488,LearnStrategy,2023.2.3,Win32,100,5,1,12,0.011805556,-0.004861111,1,0,0,0.8674,rock_grid_rect_2,6,03,-1,-1,0.867,-0.367361111,-0.402083333,1,0,0,1.7325,Obsidian_rect,5,1.732,0,11,0,11,0,1,,,,,,,,,,,,,
666c453b833e8ad9c85526fd,TCN,2024-06-21_12h46.20.488,LearnStrategy,2023.2.3,Win32,100,5,1,13,-0.00625,-0.002083333,1,0,0,0.6021,rock_grid_rect_2,5,08,-1,-1,0.602,-0.39375,-0.40625,1,0,0,1.0991,Obsidian_rect,5,1.099,1,12,0,12,0,1,,,,,,,,,,,,,
666c453b833e8ad9c85526fd,TCN,2024-06-21_12h46.20.488,LearnStrategy,2023.2.3,Win32,100,5,1,14,0.001388889,-0.002083333,1,0,0,0.6489,rock_grid_rect_2,5,06,-1,-1,0.649,-0.388194444,-0.405555556,1,0,0,1.0007,Obsidian_rect,5,1.001,1,13,0,13,0,1,,,,,,,,,,,,,
666c453b833e8ad9c85526fd,TCN,2024-06-21_12h46.20.488,LearnStrategy,2023.2.3,Win32,100,5,1,15,-0.019444444,-0.000694444,1,0,0,0.7678,rock_grid_rect_2,7,15,-1,-1,0.768,0.106944444,-0.40625,1,0,0,1.4665,Peridotite_rect,7,1.466,1,14,0,14,0,1,,,,,,,,,,,,,
666c453b833e8ad9c85526fd,TCN,2024-06-21_12h46.20.488,LearnStrategy,2023.2.3,Win32,100,5,1,16,-0.007638889,0.002777778,1,0,0,0.6348,rock_grid_rect_2,2,05,-1,-1,0.635,-0.132638889,-0.241666667,1,0,0,2.0499,Basalt_rect,2,2.05,1,15,0,15,0,1,,,,,,,,,,,,,
666c453b833e8ad9c85526fd,TCN,2024-06-21_12h46.20.488,LearnStrategy,2023.2.3,Win32,100,5,2,1,,,,,,,,8,06,,,,,,,,,,,8,1.098,1,,,,,,0.415972222,-0.405555556,1,0,0,1.098,Pumice_rect,0,0,0,0,1,
666c453b833e8ad9c85526fd,TCN,2024-06-21_12h46.20.488,LearnStrategy,2023.2.3,Win32,100,5,2,2,,,,,,,,4,08,,,,,,,,,,,4,2.636,1,,,,,,0.377777778,-0.24375,1,0,0,2.6358,Gabbro_rect,1,0,1,0,1,
666c453b833e8ad9c85526fd,TCN,2024-06-21_12h46.20.488,LearnStrategy,2023.2.3,Win32,100,5,2,3,,,,,,,,6,08,,,,,,,,,,,6,3.636,1,,,,,,-0.138194444,-0.405555556,1,0,0,3.6363,Pegmatite_rect,2,0,2,0,1,
666c453b833e8ad9c85526fd,TCN,2024-06-21_12h46.20.488,LearnStrategy,2023.2.3,Win32,100,5,2,4,,,,,,,,2,04,,,,,,,,,,,2,1.084,1,,,,,,-0.125694444,-0.248611111,1,0,0,1.084,Basalt_rect,3,0,3,0,1,
666c453b833e8ad9c85526fd,TCN,2024-06-21_12h46.20.488,LearnStrategy,2023.2.3,Win32,100,5,2,5,,,,,,,,6,05,,,,,,,,,,,5,1.451,0,,,,,,-0.374305556,-0.384027778,1,0,0,1.4508,Obsidian_rect,4,0,4,0,1,
666c453b833e8ad9c85526fd,TCN,2024-06-21_12h46.20.488,LearnStrategy,2023.2.3,Win32,100,5,2,6,,,,,,,,7,02,,,,,,,,,,,7,1.216,1,,,,,,0.104166667,-0.398611111,1,0,0,1.216,Peridotite_rect,5,0,5,0,1,
666c453b833e8ad9c85526fd,TCN,2024-06-21_12h46.20.488,LearnStrategy,2023.2.3,Win32,100,5,2,7,,,,,,,,8,09,,,,,,,,,,,8,1.559,1,,,,,,0.363888889,-0.395833333,1,0,0,1.5591,Pumice_rect,6,0,6,0,1,
666c453b833e8ad9c85526fd,TCN,2024-06-21_12h46.20.488,LearnStrategy,2023.2.3,Win32,100,5,2,8,,,,,,,,1,10,,,,,,,,,,,8,2.234,0,,,,,,0.35,-0.406944444,1,0,0,2.2344,Pumice_rect,7,0,7,0,1,
666c453b833e8ad9c85526fd,TCN,2024-06-21_12h46.20.488,LearnStrategy,2023.2.3,Win32,100,5,2,9,,,,,,,,5,16,,,,,,,,,,,5,1.101,1,,,,,,-0.384722222,-0.3875,1,0,0,1.1005,Obsidian_rect,8,0,8,0,1,
666c453b833e8ad9c85526fd,TCN,2024-06-21_12h46.20.488,LearnStrategy,2023.2.3,Win32,100,5,2,10,,,,,,,,1,06,,,,,,,,,,,1,1.45,1,,,,,,-0.383333333,-0.239583333,1,0,0,1.4503,Andesite_rect,9,0,9,0,1,
666c453b833e8ad9c85526fd,TCN,2024-06-21_12h46.20.488,LearnStrategy,2023.2.3,Win32,100,5,2,11,,,,,,,,2,16,,,,,,,,,,,1,2.251,0,,,,,,-0.429166667,-0.25625,1,0,0,2.251,Andesite_rect,10,0,10,0,1,
666c453b833e8ad9c85526fd,TCN,2024-06-21_12h46.20.488,LearnStrategy,2023.2.3,Win32,100,5,2,12,,,,,,,,3,15,,,,,,,,,,,4,1.734,0,,,,,,0.389583333,-0.259027778,1,0,0,1.7343,Gabbro_rect,11,0,11,0,1,
666c453b833e8ad9c85526fd,TCN,2024-06-21_12h46.20.488,LearnStrategy,2023.2.3,Win32,100,5,2,13,,,,,,,,7,08,,,,,,,,,,,7,1.083,1,,,,,,0.113888889,-0.396527778,1,0,0,1.0833,Peridotite_rect,12,0,12,0,1,
666c453b833e8ad9c85526fd,TCN,2024-06-21_12h46.20.488,LearnStrategy,2023.2.3,Win32,100,5,2,14,,,,,,,,3,09,,,,,,,,,,,4,3.502,0,,,,,,0.386805556,-0.240277778,1,0,0,3.5025,Gabbro_rect,13,0,13,0,1,
666c453b833e8ad9c85526fd,TCN,2024-06-21_12h46.20.488,LearnStrategy,2023.2.3,Win32,100,5,2,15,,,,,,,,4,11,,,,,,,,,,,3,3.319,0,,,,,,0.163888889,-0.25,1,0,0,3.3192,Diorite_rect,14,0,14,0,1,
666c453b833e8ad9c85526fd,TCN,2024-06-21_12h46.20.488,LearnStrategy,2023.2.3,Win32,100,5,2,16,,,,,,,,5,09,,,,,,,,,,,5,1.117,1,,,,,,-0.397222222,-0.380555556,1,0,0,1.1169,Obsidian_rect,15,0,15,0,1,
666c453b833e8ad9c85526fd,TCN,2024-06-21_12h46.20.488,LearnStrategy,2023.2.3,Win32,100,6,1,1,-0.045138889,-0.004166667,1,0,0,0.5999,rock_grid_rect_2,1,09,-1,-1,0.6,0.136805556,-0.257638889,1,0,0,2.385,Diorite_rect,3,2.385,0,0,0,0,0,1,,,,,,,,,,,,,
666c453b833e8ad9c85526fd,TCN,2024-06-21_12h46.20.488,LearnStrategy,2023.2.3,Win32,100,6,1,2,-0.065972222,-0.009027778,1,0,0,0.6176,rock_grid_rect_2,5,10,-1,-1,0.618,-0.384027778,-0.411805556,1,0,0,1.0655,Obsidian_rect,5,1.065,1,1,0,1,0,1,,,,,,,,,,,,,
666c453b833e8ad9c85526fd,TCN,2024-06-21_12h46.20.488,LearnStrategy,2023.2.3,Win32,100,6,1,3,-0.016666667,-0.004166667,1,0,0,0.6847,rock_grid_rect_2,4,10,-1,-1,0.685,-0.344444444,-0.254166667,1,0,0,2.3171,Andesite_rect,1,2.317,0,2,0,2,0,1,,,,,,,,,,,,,
666c453b833e8ad9c85526fd,TCN,2024-06-21_12h46.20.488,LearnStrategy,2023.2.3,Win32,100,6,1,4,-0.042361111,-0.009027778,1,0,0,0.7112,rock_grid_rect_2,2,08,-1,-1,0.711,-0.103472222,-0.253472222,1,0,0,1.2802,Basalt_rect,2,1.28,1,3,0,3,0,1,,,,,,,,,,,,,
666c453b833e8ad9c85526fd,TCN,2024-06-21_12h46.20.488,LearnStrategy,2023.2.3,Win32,100,6,1,5,0.00625,0.002777778,1,0,0,0.6344,rock_grid_rect_2,3,16,-1,-1,0.634,0.411111111,-0.253472222,1,0,0,2.5821,Gabbro_rect,4,2.582,0,4,0,4,0,1,,,,,,,,,,,,,
666c453b833e8ad9c85526fd,TCN,2024-06-21_12h46.20.488,LearnStrategy,2023.2.3,Win32,100,6,1,6,-0.04375,-0.004861111,1,0,0,0.6015,rock_grid_rect_2,7,16,-1,-1,0.601,0.082638889,-0.40625,1,0,0,1.2649,Peridotite_rect,7,1.265,1,5,0,5,0,1,,,,,,,,,,,,,
666c453b833e8ad9c85526fd,TCN,2024-06-21_12h46.20.488,LearnStrategy,2023.2.3,Win32,100,6,1,7,-0.040277778,0.008333333,1,0,0,0.6512,rock_grid_rect_2,5,07,-1,-1,0.651,-0.38125,-0.399305556,1,0,0,1.2152,Obsidian_rect,5,1.215,1,6,0,6,0,1,,,,,,,,,,,,,
666c453b833e8ad9c85526fd,TCN,2024-06-21_12h46.20.488,LearnStrategy,2023.2.3,Win32,100,6,1,8,-0.026388889,-0.008333333,1,0,0,0.6513,rock_grid_rect_2,3,07,-1,-1,0.651,0.1125,-0.255555556,1,0,0,1.1988,Diorite_rect,3,1.199,1,7,0,7,0,1,,,,,,,,,,,,,
666c453b833e8ad9c85526fd,TCN,2024-06-21_12h46.20.488,LearnStrategy,2023.2.3,Win32,100,6,1,9,-0.018055556,0.005555556,1,0,0,0.6558,rock_grid_rect_2,8,03,-1,-1,0.656,0.391666667,-0.417361111,1,0,0,1.0113,Pumice_rect,8,1.011,1,8,0,8,0,1,,,,,,,,,,,,,
666c453b833e8ad9c85526fd,TCN,2024-06-21_12h46.20.488,LearnStrategy,2023.2.3,Win32,100,6,1,10,-0.036805556,-0.009027778,1,0,0,0.6519,rock_grid_rect_2,6,10,-1,-1,0.652,0.147222222,-0.406944444,1,0,0,2.8169,Peridotite_rect,7,2.817,0,9,0,9,0,1,,,,,,,,,,,,,
666c453b833e8ad9c85526fd,TCN,2024-06-21_12h46.20.488,LearnStrategy,2023.2.3,Win32,100,6,1,11,-0.038888889,-0.009027778,1,0,0,0.8853,rock_grid_rect_2,7,07,-1,-1,0.885,-0.080555556,-0.398611111,1,0,0,2.1651,Pegmatite_rect,6,2.165,0,10,0,10,0,1,,,,,,,,,,,,,
666c453b833e8ad9c85526fd,TCN,2024-06-21_12h46.20.488,LearnStrategy,2023.2.3,Win32,100,6,1,12,0.036805556,-0.007638889,1,0,0,0.6,rock_grid_rect_2,1,03,-1,-1,0.6,0.391666667,-0.236805556,1,0,0,1.3175,Gabbro_rect,4,1.317,0,11,0,11,0,1,,,,,,,,,,,,,
666c453b833e8ad9c85526fd,TCN,2024-06-21_12h46.20.488,LearnStrategy,2023.2.3,Win32,100,6,1,13,-0.005555556,-0.004166667,1,0,0,0.6179,rock_grid_rect_2,6,07,-1,-1,0.618,-0.397916667,-0.253472222,1,0,0,1.1319,Andesite_rect,1,1.132,0,12,0,12,0,1,,,,,,,,,,,,,
666c453b833e8ad9c85526fd,TCN,2024-06-21_12h46.20.488,LearnStrategy,2023.2.3,Win32,100,6,1,14,0.004166667,-0.006944444,1,0,0,0.6516,rock_grid_rect_2,4,16,-1,-1,0.652,-0.352083333,-0.40625,1,0,0,1.6161,Obsidian_rect,5,1.616,0,13,0,13,0,1,,,,,,,,,,,,,
666c453b833e8ad9c85526fd,TCN,2024-06-21_12h46.20.488,LearnStrategy,2023.2.3,Win32,100,6,1,15,0.015972222,-0.017361111,1,0,0,0.6849,rock_grid_rect_2,2,11,-1,-1,0.685,0.3625,-0.399305556,1,0,0,1.0321,Pumice_rect,8,1.032,0,14,0,14,0,1,,,,,,,,,,,,,
666c453b833e8ad9c85526fd,TCN,2024-06-21_12h46.20.488,LearnStrategy,2023.2.3,Win32,100,6,1,16,-0.007638889,-0.003472222,1,0,0,0.6519,rock_grid_rect_2,8,10,-1,-1,0.652,0.354861111,-0.403472222,1,0,0,2.7996,Pumice_rect,8,2.8,1,15,0,15,0,1,,,,,,,,,,,,,
666c453b833e8ad9c85526fd,TCN,2024-06-21_12h46.20.488,LearnStrategy,2023.2.3,Win32,100,6,2,1,,,,,,,,8,08,,,,,,,,,,,8,1.902,1,,,,,,0.336805556,-0.396527778,1,0,0,1.9022,Pumice_rect,0,0,0,0,1,
666c453b833e8ad9c85526fd,TCN,2024-06-21_12h46.20.488,LearnStrategy,2023.2.3,Win32,100,6,2,2,,,,,,,,2,01,,,,,,,,,,,2,1.211,1,,,,,,-0.105555556,-0.239583333,1,0,0,1.2113,Basalt_rect,1,0,1,0,1,
666c453b833e8ad9c85526fd,TCN,2024-06-21_12h46.20.488,LearnStrategy,2023.2.3,Win32,100,6,2,3,,,,,,,,1,05,,,,,,,,,,,3,2.619,0,,,,,,0.113888889,-0.252777778,1,0,0,2.6191,Diorite_rect,2,0,2,0,1,
666c453b833e8ad9c85526fd,TCN,2024-06-21_12h46.20.488,LearnStrategy,2023.2.3,Win32,100,6,2,4,,,,,,,,5,11,,,,,,,,,,,5,1.101,1,,,,,,-0.397222222,-0.388194444,1,0,0,1.1008,Obsidian_rect,3,0,3,0,1,
666c453b833e8ad9c85526fd,TCN,2024-06-21_12h46.20.488,LearnStrategy,2023.2.3,Win32,100,6,2,5,,,,,,,,6,09,,,,,,,,,,,7,4.519,0,,,,,,0.079861111,-0.411111111,1,0,0,4.5195,Peridotite_rect,4,0,4,0,1,
666c453b833e8ad9c85526fd,TCN,2024-06-21_12h46.20.488,LearnStrategy,2023.2.3,Win32,100,6,2,6,,,,,,,,7,10,,,,,,,,,,,6,1.067,0,,,,,,-0.14375,-0.402777778,1,0,0,1.067,Pegmatite_rect,5,0,5,0,1,
666c453b833e8ad9c85526fd,TCN,2024-06-21_12h46.20.488,LearnStrategy,2023.2.3,Win32,100,6,2,7,,,,,,,,4,15,,,,,,,,,,,1,2.035,0,,,,,,-0.39375,-0.24375,1,0,0,2.0346,Andesite_rect,6,0,6,0,1,
666c453b833e8ad9c85526fd,TCN,2024-06-21_12h46.20.488,LearnStrategy,2023.2.3,Win32,100,6,2,8,,,,,,,,6,16,,,,,,,,,,,3,3.936,0,,,,,,0.161111111,-0.246527778,1,0,0,3.9358,Diorite_rect,7,0,7,0,1,
666c453b833e8ad9c85526fd,TCN,2024-06-21_12h46.20.488,LearnStrategy,2023.2.3,Win32,100,6,2,9,,,,,,,,2,02,,,,,,,,,,,2,1.017,1,,,,,,-0.123611111,-0.257638889,1,0,0,1.0174,Basalt_rect,8,0,8,0,1,
666c453b833e8ad9c85526fd,TCN,2024-06-21_12h46.20.488,LearnStrategy,2023.2.3,Win32,100,6,2,10,,,,,,,,3,14,,,,,,,,,,,3,4.119,1,,,,,,0.1125,-0.253472222,1,0,0,4.1194,Diorite_rect,9,0,9,0,1,
666c453b833e8ad9c85526fd,TCN,2024-06-21_12h46.20.488,LearnStrategy,2023.2.3,Win32,100,6,2,11,,,,,,,,1,16,,,,,,,,,,,4,1.934,0,,,,,,0.368055556,-0.260416667,1,0,0,1.9342,Gabbro_rect,10,0,10,0,1,
666c453b833e8ad9c85526fd,TCN,2024-06-21_12h46.20.488,LearnStrategy,2023.2.3,Win32,100,6,2,12,,,,,,,,7,14,,,,,,,,,,,1,1.384,0,,,,,,-0.35625,-0.25,1,0,0,1.3843,Andesite_rect,11,0,11,0,1,
666c453b833e8ad9c85526fd,TCN,2024-06-21_12h46.20.488,LearnStrategy,2023.2.3,Win32,100,6,2,13,,,,,,,,8,14,,,,,,,,,,,8,1.116,1,,,,,,0.386805556,-0.408333333,1,0,0,1.1164,Pumice_rect,12,0,12,0,1,
666c453b833e8ad9c85526fd,TCN,2024-06-21_12h46.20.488,LearnStrategy,2023.2.3,Win32,100,6,2,14,,,,,,,,4,09,,,,,,,,,,,2,1.768,0,,,,,,-0.175694444,-0.252083333,1,0,0,1.7683,Basalt_rect,13,0,13,0,1,
666c453b833e8ad9c85526fd,TCN,2024-06-21_12h46.20.488,LearnStrategy,2023.2.3,Win32,100,6,2,15,,,,,,,,3,02,,,,,,,,,,,4,2.814,0,,,,,,0.389583333,-0.257638889,1,0,0,2.8139,Gabbro_rect,14,0,14,0,1,
666c453b833e8ad9c85526fd,TCN,2024-06-21_12h46.20.488,LearnStrategy,2023.2.3,Win32,100,6,2,16,,,,,,,,5,05,,,,,,,,,,,5,1.084,1,,,,,,-0.390277778,-0.390277778,1,0,0,1.0836,Obsidian_rect,15,0,15,0,1,
666c453b833e8ad9c85526fd,TCN,2024-06-21_12h46.20.488,LearnStrategy,2023.2.3,Win32,100,7,1,1,-0.060416667,-0.014583333,1,0,0,1.6362,rock_grid_rect_2,3,08,-1,-1,1.636,0.154166667,-0.248611111,1,0,0,3.8175,Diorite_rect,3,3.817,1,0,0,0,0,1,,,,,,,,,,,,,
666c453b833e8ad9c85526fd,TCN,2024-06-21_12h46.20.488,LearnStrategy,2023.2.3,Win32,100,7,1,2,-0.051388889,0.004861111,1,0,0,0.6651,rock_grid_rect_2,5,06,-1,-1,0.665,-0.39375,-0.384722222,1,0,0,0.9983,Obsidian_rect,5,0.998,1,1,0,1,0,1,,,,,,,,,,,,,
666c453b833e8ad9c85526fd,TCN,2024-06-21_12h46.20.488,LearnStrategy,2023.2.3,Win32,100,7,1,3,-0.022222222,0.001388889,1,0,0,0.6741,rock_grid_rect_2,4,16,-1,-1,0.674,-0.15,-0.249305556,1,0,0,1.3095,Basalt_rect,2,1.309,0,2,0,2,0,1,,,,,,,,,,,,,
666c453b833e8ad9c85526fd,TCN,2024-06-21_12h46.20.488,LearnStrategy,2023.2.3,Win32,100,7,1,4,-0.011111111,-0.001388889,1,0,0,0.6458,rock_grid_rect_2,6,06,-1,-1,0.646,0.136111111,-0.25,1,0,0,2.164,Diorite_rect,3,2.164,0,3,0,3,0,1,,,,,,,,,,,,,
666c453b833e8ad9c85526fd,TCN,2024-06-21_12h46.20.488,LearnStrategy,2023.2.3,Win32,100,7,1,5,0.0375,-0.007638889,1,0,0,0.601,rock_grid_rect_2,8,05,-1,-1,0.601,0.375,-0.4,1,0,0,1.1491,Pumice_rect,8,1.149,1,4,0,4,0,1,,,,,,,,,,,,,
666c453b833e8ad9c85526fd,TCN,2024-06-21_12h46.20.488,LearnStrategy,2023.2.3,Win32,100,7,1,6,-0.03125,-0.010416667,1,0,0,0.6517,rock_grid_rect_2,6,07,-1,-1,0.652,0.351388889,-0.265972222,1,0,0,8.1983,Gabbro_rect,4,8.198,0,5,0,5,0,1,,,,,,,,,,,,,
666c453b833e8ad9c85526fd,TCN,2024-06-21_12h46.20.488,LearnStrategy,2023.2.3,Win32,100,7,1,7,-0.028472222,0.002083333,1,0,0,0.7014,rock_grid_rect_2,5,08,-1,-1,0.701,-0.356944444,-0.391666667,1,0,0,1.0322,Obsidian_rect,5,1.032,1,6,0,6,0,1,,,,,,,,,,,,,
666c453b833e8ad9c85526fd,TCN,2024-06-21_12h46.20.488,LearnStrategy,2023.2.3,Win32,100,7,1,8,-0.0125,-0.003472222,1,0,0,0.7016,rock_grid_rect_2,7,04,-1,-1,0.702,0.097222222,-0.394444444,1,0,0,1.8492,Peridotite_rect,7,1.849,1,7,0,7,0,1,,,,,,,,,,,,,
666c453b833e8ad9c85526fd,TCN,2024-06-21_12h46.20.488,LearnStrategy,2023.2.3,Win32,100,7,1,9,-0.030555556,0.008333333,1,0,0,0.6517,rock_grid_rect_2,1,07,-1,-1,0.652,0.361111111,-0.251388889,1,0,0,1.483,Gabbro_rect,4,1.483,0,8,0,8,0,1,,,,,,,,,,,,,
666c453b833e8ad9c85526fd,TCN,2024-06-21_12h46.20.488,LearnStrategy,2023.2.3,Win32,100,7,1,10,-0.011111111,-0.001388889,1,0,0,0.635,rock_grid_rect_2,2,10,-1,-1,0.635,-0.122916667,-0.253472222,1,0,0,1.5637,Basalt_rect,2,1.564,1,9,0,9,0,1,,,,,,,,,,,,,
666c453b833e8ad9c85526fd,TCN,2024-06-21_12h46.20.488,LearnStrategy,2023.2.3,Win32,100,7,1,11,-0.027777778,-0.005555556,1,0,0,0.8182,rock_grid_rect_2,8,04,-1,-1,0.818,0.354166667,-0.381944444,1,0,0,1.1318,Pumice_rect,8,1.132,1,10,0,10,0,1,,,,,,,,,,,,,
666c453b833e8ad9c85526fd,TCN,2024-06-21_12h46.20.488,LearnStrategy,2023.2.3,Win32,100,7,1,12,-0.033333333,-0.002083333,1,0,0,0.6681,rock_grid_rect_2,2,05,-1,-1,0.668,-0.115277778,-0.256944444,1,0,0,1.0658,Basalt_rect,2,1.066,1,11,0,11,0,1,,,,,,,,,,,,,
666c453b833e8ad9c85526fd,TCN,2024-06-21_12h46.20.488,LearnStrategy,2023.2.3,Win32,100,7,1,13,-0.002083333,-0.008333333,1,0,0,0.8009,rock_grid_rect_2,3,06,-1,-1,0.801,0.109722222,-0.24375,1,0,0,2.868,Diorite_rect,3,2.868,1,12,0,12,0,1,,,,,,,,,,,,,
666c453b833e8ad9c85526fd,TCN,2024-06-21_12h46.20.488,LearnStrategy,2023.2.3,Win32,100,7,1,14,-0.013888889,-0.000694444,1,0,0,0.6599,rock_grid_rect_2,7,05,-1,-1,0.66,0.091666667,-0.411805556,1,0,0,1.8328,Peridotite_rect,7,1.833,1,13,0,13,0,1,,,,,,,,,,,,,
666c453b833e8ad9c85526fd,TCN,2024-06-21_12h46.20.488,LearnStrategy,2023.2.3,Win32,100,7,1,15,-0.014583333,0.00625,1,0,0,0.6489,rock_grid_rect_2,4,03,-1,-1,0.649,0.39375,-0.256944444,1,0,0,3.2838,Gabbro_rect,4,3.284,1,14,0,14,0,1,,,,,,,,,,,,,
666c453b833e8ad9c85526fd,TCN,2024-06-21_12h46.20.488,LearnStrategy,2023.2.3,Win32,100,7,1,16,-0.002777778,-0.009027778,1,0,0,0.7337,rock_grid_rect_2,1,01,-1,-1,0.734,-0.127083333,-0.245833333,1,0,0,2.3664,Basalt_rect,2,2.366,0,15,0,15,0,1,,,,,,,,,,,,,
666c453b833e8ad9c85526fd,TCN,2024-06-21_12h46.20.488,LearnStrategy,2023.2.3,Win32,100,7,2,1,,,,,,,,3,14,,,,,,,,,,,4,3.17,0,,,,,,0.370138889,-0.238888889,1,0,0,3.1696,Gabbro_rect,0,0,0,0,1,
666c453b833e8ad9c85526fd,TCN,2024-06-21_12h46.20.488,LearnStrategy,2023.2.3,Win32,100,7,2,2,,,,,,,,7,14,,,,,,,,,,,3,2.502,0,,,,,,0.120833333,-0.266666667,1,0,0,2.5017,Diorite_rect,1,0,1,0,1,
666c453b833e8ad9c85526fd,TCN,2024-06-21_12h46.20.488,LearnStrategy,2023.2.3,Win32,100,7,2,3,,,,,,,,4,09,,,,,,,,,,,1,1.584,0,,,,,,-0.340972222,-0.2625,1,0,0,1.5845,Andesite_rect,2,0,2,0,1,
666c453b833e8ad9c85526fd,TCN,2024-06-21_12h46.20.488,LearnStrategy,2023.2.3,Win32,100,7,2,4,,,,,,,,2,04,,,,,,,,,,,2,0.916,1,,,,,,-0.15,-0.252083333,1,0,0,0.9158,Basalt_rect,3,0,3,0,1,
666c453b833e8ad9c85526fd,TCN,2024-06-21_12h46.20.488,LearnStrategy,2023.2.3,Win32,100,7,2,5,,,,,,,,8,13,,,,,,,,,,,8,1.534,1,,,,,,0.345138889,-0.413194444,1,0,0,1.5339,Pumice_rect,4,0,4,0,1,
666c453b833e8ad9c85526fd,TCN,2024-06-21_12h46.20.488,LearnStrategy,2023.2.3,Win32,100,7,2,6,,,,,,,,7,06,,,,,,,,,,,7,1.334,1,,,,,,0.097222222,-0.392361111,1,0,0,1.3342,Peridotite_rect,5,0,5,0,1,
666c453b833e8ad9c85526fd,TCN,2024-06-21_12h46.20.488,LearnStrategy,2023.2.3,Win32,100,7,2,7,,,,,,,,5,14,,,,,,,,,,,5,1.101,1,,,,,,-0.372222222,-0.397222222,1,0,0,1.1006,Obsidian_rect,6,0,6,0,1,
666c453b833e8ad9c85526fd,TCN,2024-06-21_12h46.20.488,LearnStrategy,2023.2.3,Win32,100,7,2,8,,,,,,,,5,16,,,,,,,,,,,5,0.844,1,,,,,,-0.374305556,-0.397916667,1,0,0,0.8436,Obsidian_rect,7,0,7,0,1,
666c453b833e8ad9c85526fd,TCN,2024-06-21_12h46.20.488,LearnStrategy,2023.2.3,Win32,100,7,2,9,,,,,,,,6,16,,,,,,,,,,,3,2.052,0,,,,,,0.13125,-0.252083333,1,0,0,2.0516,Diorite_rect,8,0,8,0,1,
666c453b833e8ad9c85526fd,TCN,2024-06-21_12h46.20.488,LearnStrategy,2023.2.3,Win32,100,7,2,10,,,,,,,,1,10,,,,,,,,,,,7,3.619,0,,,,,,0.077777778,-0.399305556,1,0,0,3.6194,Peridotite_rect,9,0,9,0,1,
666c453b833e8ad9c85526fd,TCN,2024-06-21_12h46.20.488,LearnStrategy,2023.2.3,Win32,100,7,2,11,,,,,,,,8,08,,,,,,,,,,,8,1.029,1,,,,,,0.370833333,-0.390972222,1,0,0,1.0291,Pumice_rect,10,0,10,0,1,
666c453b833e8ad9c85526fd,TCN,2024-06-21_12h46.20.488,LearnStrategy,2023.2.3,Win32,100,7,2,12,,,,,,,,6,11,,,,,,,,,,,5,1.567,0,,,,,,-0.35,-0.404861111,1,0,0,1.5672,Obsidian_rect,11,0,11,0,1,
666c453b833e8ad9c85526fd,TCN,2024-06-21_12h46.20.488,LearnStrategy,2023.2.3,Win32,100,7,2,13,,,,,,,,3,02,,,,,,,,,,,4,2.236,0,,,,,,0.330555556,-0.261111111,1,0,0,2.2355,Gabbro_rect,12,0,12,0,1,
666c453b833e8ad9c85526fd,TCN,2024-06-21_12h46.20.488,LearnStrategy,2023.2.3,Win32,100,7,2,14,,,,,,,,1,16,,,,,,,,,,,1,1.385,1,,,,,,-0.336111111,-0.236805556,1,0,0,1.3845,Andesite_rect,13,0,13,0,1,
666c453b833e8ad9c85526fd,TCN,2024-06-21_12h46.20.488,LearnStrategy,2023.2.3,Win32,100,7,2,15,,,,,,,,2,12,,,,,,,,,,,7,3.369,0,,,,,,0.05625,-0.379166667,1,0,0,3.3686,Peridotite_rect,14,0,14,0,1,
666c453b833e8ad9c85526fd,TCN,2024-06-21_12h46.20.488,LearnStrategy,2023.2.3,Win32,100,7,2,16,,,,,,,,4,11,,,,,,,,,,,1,3.271,0,,,,,,-0.380555556,-0.241666667,1,0,0,3.2707,Andesite_rect,15,0,15,0,1,
666c453b833e8ad9c85526fd,TCN,2024-06-21_12h46.20.488,LearnStrategy,2023.2.3,Win32,100,8,1,1,-0.063888889,-0.000694444,1,0,0,0.7854,rock_grid_rect_2,5,07,-1,-1,0.785,-0.410416667,-0.3875,1,0,0,1.3328,Obsidian_rect,5,1.333,1,0,0,0,0,1,,,,,,,,,,,,,
666c453b833e8ad9c85526fd,TCN,2024-06-21_12h46.20.488,LearnStrategy,2023.2.3,Win32,100,8,1,2,-0.070138889,-0.011805556,1,0,0,0.8184,rock_grid_rect_2,6,10,-1,-1,0.818,0.105555556,-0.399305556,1,0,0,2.2997,Peridotite_rect,7,2.3,0,1,0,1,0,1,,,,,,,,,,,,,
666c453b833e8ad9c85526fd,TCN,2024-06-21_12h46.20.488,LearnStrategy,2023.2.3,Win32,100,8,1,3,-0.061111111,-0.005555556,1,0,0,0.7511,rock_grid_rect_2,4,05,-1,-1,0.751,-0.377083333,-0.239583333,1,0,0,2.0658,Andesite_rect,1,2.066,0,2,0,2,0,1,,,,,,,,,,,,,
666c453b833e8ad9c85526fd,TCN,2024-06-21_12h46.20.488,LearnStrategy,2023.2.3,Win32,100,8,1,4,0.001388889,-0.001388889,1,0,0,0.6179,rock_grid_rect_2,1,04,-1,-1,0.618,0.355555556,-0.254166667,1,0,0,0.7815,Gabbro_rect,4,0.782,0,3,0,3,0,1,,,,,,,,,,,,,
666c453b833e8ad9c85526fd,TCN,2024-06-21_12h46.20.488,LearnStrategy,2023.2.3,Win32,100,8,1,5,-0.027083333,0.002083333,1,0,0,0.6513,rock_grid_rect_2,7,07,-1,-1,0.651,0.108333333,-0.405555556,1,0,0,1.8662,Peridotite_rect,7,1.866,1,4,0,4,0,1,,,,,,,,,,,,,
666c453b833e8ad9c85526fd,TCN,2024-06-21_12h46.20.488,LearnStrategy,2023.2.3,Win32,100,8,1,6,-0.052777778,0.01875,1,0,0,0.6675,rock_grid_rect_2,1,02,-1,-1,0.668,-0.143055556,-0.40625,1,0,0,1.2327,Pegmatite_rect,6,1.233,0,5,0,5,0,1,,,,,,,,,,,,,
666c453b833e8ad9c85526fd,TCN,2024-06-21_12h46.20.488,LearnStrategy,2023.2.3,Win32,100,8,1,7,-0.058333333,0.010416667,1,0,0,0.6189,rock_grid_rect_2,3,11,-1,-1,0.619,0.386805556,-0.24375,1,0,0,1.4831,Gabbro_rect,4,1.483,0,6,0,6,0,1,,,,,,,,,,,,,
666c453b833e8ad9c85526fd,TCN,2024-06-21_12h46.20.488,LearnStrategy,2023.2.3,Win32,100,8,1,8,-0.024305556,0.015972222,1,0,0,0.5272,rock_grid_rect_2,6,03,-1,-1,0.527,0.094444444,-0.25,1,0,0,0.939,Diorite_rect,3,0.939,0,7,0,7,0,1,,,,,,,,,,,,,
666c453b833e8ad9c85526fd,TCN,2024-06-21_12h46.20.488,LearnStrategy,2023.2.3,Win32,100,8,1,9,-0.004861111,-0.003472222,1,0,0,0.7012,rock_grid_rect_2,3,07,-1,-1,0.701,0.371527778,-0.247222222,1,0,0,13.4924,Gabbro_rect,4,13.492,0,8,0,8,0,1,,,,,,,,,,,,,
666c453b833e8ad9c85526fd,TCN,2024-06-21_12h46.20.488,LearnStrategy,2023.2.3,Win32,100,8,1,10,-0.002083333,-0.014583333,1,0,0,0.6348,rock_grid_rect_2,4,10,-1,-1,0.635,-0.125694444,-0.258333333,1,0,0,2.3003,Basalt_rect,2,2.3,0,9,0,9,0,1,,,,,,,,,,,,,
666c453b833e8ad9c85526fd,TCN,2024-06-21_12h46.20.488,LearnStrategy,2023.2.3,Win32,100,8,1,11,-0.009722222,-0.015972222,1,0,0,0.601,rock_grid_rect_2,8,02,-1,-1,0.601,0.3375,-0.40625,1,0,0,0.9489,Pumice_rect,8,0.949,1,10,0,10,0,1,,,,,,,,,,,,,
666c453b833e8ad9c85526fd,TCN,2024-06-21_12h46.20.488,LearnStrategy,2023.2.3,Win32,100,8,1,12,-0.023611111,-0.004166667,1,0,0,0.6586,rock_grid_rect_2,7,15,-1,-1,0.659,0.088194444,-0.410416667,1,0,0,1.0497,Peridotite_rect,7,1.05,1,11,0,11,0,1,,,,,,,,,,,,,
666c453b833e8ad9c85526fd,TCN,2024-06-21_12h46.20.488,LearnStrategy,2023.2.3,Win32,100,8,1,13,-0.052083333,-0.002083333,1,0,0,0.5852,rock_grid_rect_2,8,10,-1,-1,0.585,0.176388889,-0.263888889,1,0,0,2.7817,Diorite_rect,3,2.782,0,12,0,12,0,1,,,,,,,,,,,,,
666c453b833e8ad9c85526fd,TCN,2024-06-21_12h46.20.488,LearnStrategy,2023.2.3,Win32,100,8,1,14,0.009722222,-0.0125,1,0,0,0.6995,rock_grid_rect_2,2,09,-1,-1,0.699,-0.129166667,-0.256944444,1,0,0,0.9665,Basalt_rect,2,0.966,1,13,0,13,0,1,,,,,,,,,,,,,
666c453b833e8ad9c85526fd,TCN,2024-06-21_12h46.20.488,LearnStrategy,2023.2.3,Win32,100,8,1,15,0.039583333,-0.001388889,1,0,0,0.8336,rock_grid_rect_2,2,14,-1,-1,0.834,0.414583333,-0.409722222,1,0,0,2.5184,Pumice_rect,8,2.518,0,14,0,14,0,1,,,,,,,,,,,,,
666c453b833e8ad9c85526fd,TCN,2024-06-21_12h46.20.488,LearnStrategy,2023.2.3,Win32,100,8,1,16,0.022916667,-0.020833333,1,0,0,0.6178,rock_grid_rect_2,5,02,-1,-1,0.618,-0.424305556,-0.3875,1,0,0,1.2319,Obsidian_rect,5,1.232,1,15,0,15,0,1,,,,,,,,,,,,,
666c453b833e8ad9c85526fd,TCN,2024-06-21_12h46.20.488,LearnStrategy,2023.2.3,Win32,100,8,2,1,,,,,,,,8,09,,,,,,,,,,,8,2.853,1,,,,,,0.356944444,-0.388194444,1,0,0,2.8534,Pumice_rect,0,0,0,0,1,
666c453b833e8ad9c85526fd,TCN,2024-06-21_12h46.20.488,LearnStrategy,2023.2.3,Win32,100,8,2,2,,,,,,,,3,09,,,,,,,,,,,4,1.768,0,,,,,,0.350694444,-0.251388889,1,0,0,1.7679,Gabbro_rect,1,0,1,0,1,
666c453b833e8ad9c85526fd,TCN,2024-06-21_12h46.20.488,LearnStrategy,2023.2.3,Win32,100,8,2,3,,,,,,,,3,13,,,,,,,,,,,3,2.504,1,,,,,,0.115277778,-0.234722222,1,0,0,2.5036,Diorite_rect,2,0,2,0,1,
666c453b833e8ad9c85526fd,TCN,2024-06-21_12h46.20.488,LearnStrategy,2023.2.3,Win32,100,8,2,4,,,,,,,,2,16,,,,,,,,,,,2,1.749,1,,,,,,-0.095833333,-0.239583333,1,0,0,1.7494,Basalt_rect,3,0,3,0,1,
666c453b833e8ad9c85526fd,TCN,2024-06-21_12h46.20.488,LearnStrategy,2023.2.3,Win32,100,8,2,5,,,,,,,,6,05,,,,,,,,,,,7,4.802,0,,,,,,0.111111111,-0.394444444,1,0,0,4.8023,Peridotite_rect,4,0,4,0,1,
666c453b833e8ad9c85526fd,TCN,2024-06-21_12h46.20.488,LearnStrategy,2023.2.3,Win32,100,8,2,6,,,,,,,,4,08,,,,,,,,,,,6,1.501,0,,,,,,-0.079166667,-0.398611111,1,0,0,1.5006,Pegmatite_rect,5,0,5,0,1,
666c453b833e8ad9c85526fd,TCN,2024-06-21_12h46.20.488,LearnStrategy,2023.2.3,Win32,100,8,2,7,,,,,,,,2,06,,,,,,,,,,,2,1.168,1,,,,,,-0.117361111,-0.263888889,1,0,0,1.1675,Basalt_rect,6,0,6,0,1,
666c453b833e8ad9c85526fd,TCN,2024-06-21_12h46.20.488,LearnStrategy,2023.2.3,Win32,100,8,2,8,,,,,,,,4,12,,,,,,,,,,,1,2.267,0,,,,,,-0.390972222,-0.2375,1,0,0,2.2674,Andesite_rect,7,0,7,0,1,
666c453b833e8ad9c85526fd,TCN,2024-06-21_12h46.20.488,LearnStrategy,2023.2.3,Win32,100,8,2,9,,,,,,,,8,14,,,,,,,,,,,8,1.35,1,,,,,,0.375694444,-0.413194444,1,0,0,1.3501,Pumice_rect,8,0,8,0,1,
666c453b833e8ad9c85526fd,TCN,2024-06-21_12h46.20.488,LearnStrategy,2023.2.3,Win32,100,8,2,10,,,,,,,,1,06,,,,,,,,,,,4,1.401,0,,,,,,0.367361111,-0.248611111,1,0,0,1.4011,Gabbro_rect,9,0,9,0,1,
666c453b833e8ad9c85526fd,TCN,2024-06-21_12h46.20.488,LearnStrategy,2023.2.3,Win32,100,8,2,11,,,,,,,,7,02,,,,,,,,,,,7,1.384,1,,,,,,0.084027778,-0.4,1,0,0,1.3838,Peridotite_rect,10,0,10,0,1,
666c453b833e8ad9c85526fd,TCN,2024-06-21_12h46.20.488,LearnStrategy,2023.2.3,Win32,100,8,2,12,,,,,,,,5,12,,,,,,,,,,,5,1.083,1,,,,,,-0.402083333,-0.405555556,1,0,0,1.0835,Obsidian_rect,11,0,11,0,1,
666c453b833e8ad9c85526fd,TCN,2024-06-21_12h46.20.488,LearnStrategy,2023.2.3,Win32,100,8,2,13,,,,,,,,5,09,,,,,,,,,,,5,0.6,1,,,,,,-0.402083333,-0.405555556,1,0,0,0.6002,Obsidian_rect,12,0,12,0,1,
666c453b833e8ad9c85526fd,TCN,2024-06-21_12h46.20.488,LearnStrategy,2023.2.3,Win32,100,8,2,14,,,,,,,,1,14,,,,,,,,,,,1,1.301,1,,,,,,-0.346527778,-0.2625,1,0,0,1.3009,Andesite_rect,13,0,13,0,1,
666c453b833e8ad9c85526fd,TCN,2024-06-21_12h46.20.488,LearnStrategy,2023.2.3,Win32,100,8,2,15,,,,,,,,6,13,,,,,,,,,,,3,2.774,0,,,,,,0.160416667,-0.268055556,1,0,0,2.7736,Diorite_rect,14,0,14,0,1,
666c453b833e8ad9c85526fd,TCN,2024-06-21_12h46.20.488,LearnStrategy,2023.2.3,Win32,100,8,2,16,,,,,,,,7,13,,,,,,,,,,,7,1.2,1,,,,,,0.120138889,-0.403472222,1,0,0,1.2005,Peridotite_rect,15,0,15,0,1,
666c453b833e8ad9c85526fd,TCN,2024-06-21_12h46.20.488,LearnStrategy,2023.2.3,Win32,100,9,1,1,-0.065972222,-0.004166667,1,0,0,1.0183,rock_grid_rect_2,2,08,-1,-1,1.018,-0.1625,-0.253472222,1,0,0,1.1988,Basalt_rect,2,1.199,1,0,0,0,0,1,,,,,,,,,,,,,
666c453b833e8ad9c85526fd,TCN,2024-06-21_12h46.20.488,LearnStrategy,2023.2.3,Win32,100,9,1,2,-0.010416667,-0.003472222,1,0,0,0.7855,rock_grid_rect_2,1,03,-1,-1,0.786,-0.376388889,-0.236111111,1,0,0,1.3827,Andesite_rect,1,1.383,1,1,0,1,0,1,,,,,,,,,,,,,
666c453b833e8ad9c85526fd,TCN,2024-06-21_12h46.20.488,LearnStrategy,2023.2.3,Win32,100,9,1,3,-0.011805556,-0.004861111,1,0,0,0.6682,rock_grid_rect_2,7,16,-1,-1,0.668,0.120833333,-0.405555556,1,0,0,1.0659,Peridotite_rect,7,1.066,1,2,0,2,0,1,,,,,,,,,,,,,
666c453b833e8ad9c85526fd,TCN,2024-06-21_12h46.20.488,LearnStrategy,2023.2.3,Win32,100,9,1,4,0.004861111,-0.003472222,1,0,0,0.6011,rock_grid_rect_2,7,12,-1,-1,0.601,-0.113194444,-0.395833333,1,0,0,1.1325,Pegmatite_rect,6,1.133,0,3,0,3,0,1,,,,,,,,,,,,,
666c453b833e8ad9c85526fd,TCN,2024-06-21_12h46.20.488,LearnStrategy,2023.2.3,Win32,100,9,1,5,0.013194444,-0.005555556,1,0,0,0.7276,rock_grid_rect_2,3,10,-1,-1,0.728,0.399305556,-0.242361111,1,0,0,1.1563,Gabbro_rect,4,1.156,0,4,0,4,0,1,,,,,,,,,,,,,
666c453b833e8ad9c85526fd,TCN,2024-06-21_12h46.20.488,LearnStrategy,2023.2.3,Win32,100,9,1,6,0.014583333,-0.004861111,1,0,0,0.5686,rock_grid_rect_2,6,15,-1,-1,0.569,0.090972222,-0.390277778,1,0,0,2.566,Peridotite_rect,7,2.566,0,5,0,5,0,1,,,,,,,,,,,,,
666c453b833e8ad9c85526fd,TCN,2024-06-21_12h46.20.488,LearnStrategy,2023.2.3,Win32,100,9,1,7,-0.040972222,0.005555556,1,0,0,0.6181,rock_grid_rect_2,5,04,-1,-1,0.618,-0.386111111,-0.395833333,1,0,0,1.1322,Obsidian_rect,5,1.132,1,6,0,6,0,1,,,,,,,,,,,,,
666c453b833e8ad9c85526fd,TCN,2024-06-21_12h46.20.488,LearnStrategy,2023.2.3,Win32,100,9,1,8,-0.002083333,0,1,0,0,0.7325,rock_grid_rect_2,5,10,-1,-1,0.733,-0.377083333,-0.385416667,1,0,0,1.1683,Obsidian_rect,5,1.168,1,7,0,7,0,1,,,,,,,,,,,,,
666c453b833e8ad9c85526fd,TCN,2024-06-21_12h46.20.488,LearnStrategy,2023.2.3,Win32,100,9,1,9,-0.005555556,-0.006944444,1,0,0,0.7,rock_grid_rect_2,2,11,-1,-1,0.7,-0.157638889,-0.249305556,1,0,0,1.0829,Basalt_rect,2,1.083,1,8,0,8,0,1,,,,,,,,,,,,,
666c453b833e8ad9c85526fd,TCN,2024-06-21_12h46.20.488,LearnStrategy,2023.2.3,Win32,100,9,1,10,-0.006944444,-0.010416667,1,0,0,0.668,rock_grid_rect_2,4,13,-1,-1,0.668,-0.386111111,-0.24375,1,0,0,1.4993,Andesite_rect,1,1.499,0,9,0,9,0,1,,,,,,,,,,,,,
666c453b833e8ad9c85526fd,TCN,2024-06-21_12h46.20.488,LearnStrategy,2023.2.3,Win32,100,9,1,11,0.000694444,0.002083333,1,0,0,0.6513,rock_grid_rect_2,4,14,-1,-1,0.651,0.136111111,-0.260416667,1,0,0,1.048,Diorite_rect,3,1.048,0,10,0,10,0,1,,,,,,,,,,,,,
666c453b833e8ad9c85526fd,TCN,2024-06-21_12h46.20.488,LearnStrategy,2023.2.3,Win32,100,9,1,12,-0.0125,-0.013888889,1,0,0,0.5683,rock_grid_rect_2,1,09,-1,-1,0.568,-0.147916667,-0.236805556,1,0,0,1.8831,Basalt_rect,2,1.883,0,11,0,11,0,1,,,,,,,,,,,,,
666c453b833e8ad9c85526fd,TCN,2024-06-21_12h46.20.488,LearnStrategy,2023.2.3,Win32,100,9,1,13,-0.063888889,0.017361111,1,0,0,0.7509,rock_grid_rect_2,8,15,-1,-1,0.751,0.347916667,-0.4,1,0,0,1.5834,Pumice_rect,8,1.583,1,12,0,12,0,1,,,,,,,,,,,,,
666c453b833e8ad9c85526fd,TCN,2024-06-21_12h46.20.488,LearnStrategy,2023.2.3,Win32,100,9,1,14,-0.011805556,-0.015972222,1,0,0,0.7087,rock_grid_rect_2,6,12,-1,-1,0.709,0.401388889,-0.236111111,1,0,0,3.1341,Gabbro_rect,4,3.134,0,13,0,13,0,1,,,,,,,,,,,,,
666c453b833e8ad9c85526fd,TCN,2024-06-21_12h46.20.488,LearnStrategy,2023.2.3,Win32,100,9,1,15,-0.013194444,-0.004166667,1,0,0,0.6687,rock_grid_rect_2,3,16,-1,-1,0.669,0.079861111,-0.257638889,1,0,0,1.1697,Diorite_rect,3,1.17,1,14,0,14,0,1,,,,,,,,,,,,,
666c453b833e8ad9c85526fd,TCN,2024-06-21_12h46.20.488,LearnStrategy,2023.2.3,Win32,100,9,1,16,-0.004166667,-0.003472222,1,0,0,0.6496,rock_grid_rect_2,8,03,-1,-1,0.65,0.36875,-0.402777778,1,0,0,1.134,Pumice_rect,8,1.134,1,15,0,15,0,1,,,,,,,,,,,,,
666c453b833e8ad9c85526fd,TCN,2024-06-21_12h46.20.488,LearnStrategy,2023.2.3,Win32,100,9,2,1,,,,,,,,4,15,,,,,,,,,,,3,11.11,0,,,,,,0.101388889,-0.239583333,1,0,0,11.1097,Diorite_rect,0,0,0,0,1,
666c453b833e8ad9c85526fd,TCN,2024-06-21_12h46.20.488,LearnStrategy,2023.2.3,Win32,100,9,2,2,,,,,,,,4,01,,,,,,,,,,,7,1.763,0,,,,,,0.089583333,-0.40625,1,0,0,1.7635,Peridotite_rect,1,0,1,0,1,
666c453b833e8ad9c85526fd,TCN,2024-06-21_12h46.20.488,LearnStrategy,2023.2.3,Win32,100,9,2,3,,,,,,,,6,08,,,,,,,,,,,6,3.983,1,,,,,,-0.111805556,-0.397916667,1,0,0,3.9834,Pegmatite_rect,2,0,2,0,1,
666c453b833e8ad9c85526fd,TCN,2024-06-21_12h46.20.488,LearnStrategy,2023.2.3,Win32,100,9,2,4,,,,,,,,3,15,,,,,,,,,,,1,1.997,0,,,,,,-0.365972222,-0.233333333,1,0,0,1.9968,Andesite_rect,3,0,3,0,1,
666c453b833e8ad9c85526fd,TCN,2024-06-21_12h46.20.488,LearnStrategy,2023.2.3,Win32,100,9,2,5,,,,,,,,2,01,,,,,,,,,,,2,1,1,,,,,,-0.173611111,-0.269444444,1,0,0,1.0002,Basalt_rect,4,0,4,0,1,
666c453b833e8ad9c85526fd,TCN,2024-06-21_12h46.20.488,LearnStrategy,2023.2.3,Win32,100,9,2,6,,,,,,,,5,05,,,,,,,,,,,5,1.05,1,,,,,,-0.4125,-0.402777778,1,0,0,1.0501,Obsidian_rect,5,0,5,0,1,
666c453b833e8ad9c85526fd,TCN,2024-06-21_12h46.20.488,LearnStrategy,2023.2.3,Win32,100,9,2,7,,,,,,,,6,09,,,,,,,,,,,7,2.168,0,,,,,,0.117361111,-0.408333333,1,0,0,2.1683,Peridotite_rect,6,0,6,0,1,
666c453b833e8ad9c85526fd,TCN,2024-06-21_12h46.20.488,LearnStrategy,2023.2.3,Win32,100,9,2,8,,,,,,,,1,11,,,,,,,,,,,2,2.168,0,,,,,,-0.104861111,-0.241666667,1,0,0,2.1677,Basalt_rect,7,0,7,0,1,
666c453b833e8ad9c85526fd,TCN,2024-06-21_12h46.20.488,LearnStrategy,2023.2.3,Win32,100,9,2,9,,,,,,,,7,08,,,,,,,,,,,7,1.134,1,,,,,,0.132638889,-0.408333333,1,0,0,1.1344,Peridotite_rect,8,0,8,0,1,
666c453b833e8ad9c85526fd,TCN,2024-06-21_12h46.20.488,LearnStrategy,2023.2.3,Win32,100,9,2,10,,,,,,,,8,06,,,,,,,,,,,8,0.984,1,,,,,,0.379166667,-0.409722222,1,0,0,0.9837,Pumice_rect,9,0,9,0,1,
666c453b833e8ad9c85526fd,TCN,2024-06-21_12h46.20.488,LearnStrategy,2023.2.3,Win32,100,9,2,11,,,,,,,,1,05,,,,,,,,,,,3,2.703,0,,,,,,0.150694444,-0.2375,1,0,0,2.7034,Diorite_rect,10,0,10,0,1,
666c453b833e8ad9c85526fd,TCN,2024-06-21_12h46.20.488,LearnStrategy,2023.2.3,Win32,100,9,2,12,,,,,,,,2,02,,,,,,,,,,,2,1.033,1,,,,,,-0.141666667,-0.239583333,1,0,0,1.033,Basalt_rect,11,0,11,0,1,
666c453b833e8ad9c85526fd,TCN,2024-06-21_12h46.20.488,LearnStrategy,2023.2.3,Win32,100,9,2,13,,,,,,,,7,10,,,,,,,,,,,7,1.301,1,,,,,,0.1,-0.393055556,1,0,0,1.3011,Peridotite_rect,12,0,12,0,1,
666c453b833e8ad9c85526fd,TCN,2024-06-21_12h46.20.488,LearnStrategy,2023.2.3,Win32,100,9,2,14,,,,,,,,5,11,,,,,,,,,,,5,1.14,1,,,,,,-0.395138889,-0.390277778,1,0,0,1.1396,Obsidian_rect,13,0,13,0,1,
666c453b833e8ad9c85526fd,TCN,2024-06-21_12h46.20.488,LearnStrategy,2023.2.3,Win32,100,9,2,15,,,,,,,,3,12,,,,,,,,,,,4,3.803,0,,,,,,0.354166667,-0.252083333,1,0,0,3.8031,Gabbro_rect,14,0,14,0,1,
666c453b833e8ad9c85526fd,TCN,2024-06-21_12h46.20.488,LearnStrategy,2023.2.3,Win32,100,9,2,16,,,,,,,,8,16,,,,,,,,,,,8,1.13,1,,,,,,0.363888889,-0.392361111,1,0,0,1.1298,Pumice_rect,15,0,15,0,1,
666c453b833e8ad9c85526fd,TCN,2024-06-21_12h46.20.488,LearnStrategy,2023.2.3,Win32,100,,,,,,,,,,,,,,,,,,,,,,,,,,,,,,,,,,,,,,,,,,,0
666c453b833e8ad9c85526fd,TCN,2024-06-21_12h46.20.488,LearnStrategy,2023.2.3,Win32,100,,,,,,,,,,,,,,,,,,,,,,,,,,,,,,,,,,,,,,,,,,,
666c453b833e8ad9c85526fd,TCN,2024-06-21_12h46.20.488,LearnStrategy,2023.2.3,Win32,100,,,,,,,,,,,4,14,1,1,,,,,,,,,,,,,,,,,,,,,,,,,,,,,
666c453b833e8ad9c85526fd,TCN,2024-06-21_12h46.20.488,LearnStrategy,2023.2.3,Win32,100,,,,,,,,,,,6,07,1,2,,,,,,,,,,,,,,,,,,,,,,,,,,,,,
666c453b833e8ad9c85526fd,TCN,2024-06-21_12h46.20.488,LearnStrategy,2023.2.3,Win32,100,,,,,,,,,,,4,10,1,3,,,,,,,,,,,,,,,,,,,,,,,,,,,,,
666c453b833e8ad9c85526fd,TCN,2024-06-21_12h46.20.488,LearnStrategy,2023.2.3,Win32,100,,,,,,,,,,,7,04,1,4,,,,,,,,,,,,,,,,,,,,,,,,,,,,,
666c453b833e8ad9c85526fd,TCN,2024-06-21_12h46.20.488,LearnStrategy,2023.2.3,Win32,100,,,,,,,,,,,1,02,1,5,,,,,,,,,,,,,,,,,,,,,,,,,,,,,
666c453b833e8ad9c85526fd,TCN,2024-06-21_12h46.20.488,LearnStrategy,2023.2.3,Win32,100,,,,,,,,,,,3,10,1,6,,,,,,,,,,,,,,,,,,,,,,,,,,,,,
666c453b833e8ad9c85526fd,TCN,2024-06-21_12h46.20.488,LearnStrategy,2023.2.3,Win32,100,,,,,,,,,,,4,16,1,7,,,,,,,,,,,,,,,,,,,,,,,,,,,,,
666c453b833e8ad9c85526fd,TCN,2024-06-21_12h46.20.488,LearnStrategy,2023.2.3,Win32,100,,,,,,,,,,,8,15,1,8,,,,,,,,,,,,,,,,,,,,,,,,,,,,,
666c453b833e8ad9c85526fd,TCN,2024-06-21_12h46.20.488,LearnStrategy,2023.2.3,Win32,100,,,,,,,,,,,5,10,2,1,,,,,,,,,,,,,,,,,,,,,,,,,,,,,
666c453b833e8ad9c85526fd,TCN,2024-06-21_12h46.20.488,LearnStrategy,2023.2.3,Win32,100,,,,,,,,,,,1,01,2,2,,,,,,,,,,,,,,,,,,,,,,,,,,,,,
666c453b833e8ad9c85526fd,TCN,2024-06-21_12h46.20.488,LearnStrategy,2023.2.3,Win32,100,,,,,,,,,,,8,02,2,3,,,,,,,,,,,,,,,,,,,,,,,,,,,,,
666c453b833e8ad9c85526fd,TCN,2024-06-21_12h46.20.488,LearnStrategy,2023.2.3,Win32,100,,,,,,,,,,,4,03,2,4,,,,,,,,,,,,,,,,,,,,,,,,,,,,,
666c453b833e8ad9c85526fd,TCN,2024-06-21_12h46.20.488,LearnStrategy,2023.2.3,Win32,100,,,,,,,,,,,7,16,2,5,,,,,,,,,,,,,,,,,,,,,,,,,,,,,
666c453b833e8ad9c85526fd,TCN,2024-06-21_12h46.20.488,LearnStrategy,2023.2.3,Win32,100,,,,,,,,,,,5,07,2,6,,,,,,,,,,,,,,,,,,,,,,,,,,,,,
666c453b833e8ad9c85526fd,TCN,2024-06-21_12h46.20.488,LearnStrategy,2023.2.3,Win32,100,,,,,,,,,,,1,07,2,7,,,,,,,,,,,,,,,,,,,,,,,,,,,,,
666c453b833e8ad9c85526fd,TCN,2024-06-21_12h46.20.488,LearnStrategy,2023.2.3,Win32,100,,,,,,,,,,,4,05,2,8,,,,,,,,,,,,,,,,,,,,,,,,,,,,,
666c453b833e8ad9c85526fd,TCN,2024-06-21_12h46.20.488,LearnStrategy,2023.2.3,Win32,100,,,,,,,,,,,7,07,3,1,,,,,,,,,,,,,,,,,,,,,,,,,,,,,
666c453b833e8ad9c85526fd,TCN,2024-06-21_12h46.20.488,LearnStrategy,2023.2.3,Win32,100,,,,,,,,,,,1,09,3,2,,,,,,,,,,,,,,,,,,,,,,,,,,,,,
666c453b833e8ad9c85526fd,TCN,2024-06-21_12h46.20.488,LearnStrategy,2023.2.3,Win32,100,,,,,,,,,,,6,15,3,3,,,,,,,,,,,,,,,,,,,,,,,,,,,,,
666c453b833e8ad9c85526fd,TCN,2024-06-21_12h46.20.488,LearnStrategy,2023.2.3,Win32,100,,,,,,,,,,,2,05,3,4,,,,,,,,,,,,,,,,,,,,,,,,,,,,,
666c453b833e8ad9c85526fd,TCN,2024-06-21_12h46.20.488,LearnStrategy,2023.2.3,Win32,100,,,,,,,,,,,2,14,3,5,,,,,,,,,,,,,,,,,,,,,,,,,,,,,
666c453b833e8ad9c85526fd,TCN,2024-06-21_12h46.20.488,LearnStrategy,2023.2.3,Win32,100,,,,,,,,,,,6,03,3,6,,,,,,,,,,,,,,,,,,,,,,,,,,,,,
666c453b833e8ad9c85526fd,TCN,2024-06-21_12h46.20.488,LearnStrategy,2023.2.3,Win32,100,,,,,,,,,,,3,16,3,7,,,,,,,,,,,,,,,,,,,,,,,,,,,,,
666c453b833e8ad9c85526fd,TCN,2024-06-21_12h46.20.488,LearnStrategy,2023.2.3,Win32,100,,,,,,,,,,,2,11,3,8,,,,,,,,,,,,,,,,,,,,,,,,,,,,,
666c453b833e8ad9c85526fd,TCN,2024-06-21_12h46.20.488,LearnStrategy,2023.2.3,Win32,100,,,,,,,,,,,3,08,4,1,,,,,,,,,,,,,,,,,,,,,,,,,,,,,
666c453b833e8ad9c85526fd,TCN,2024-06-21_12h46.20.488,LearnStrategy,2023.2.3,Win32,100,,,,,,,,,,,6,06,4,2,,,,,,,,,,,,,,,,,,,,,,,,,,,,,
666c453b833e8ad9c85526fd,TCN,2024-06-21_12h46.20.488,LearnStrategy,2023.2.3,Win32,100,,,,,,,,,,,4,13,4,3,,,,,,,,,,,,,,,,,,,,,,,,,,,,,
666c453b833e8ad9c85526fd,TCN,2024-06-21_12h46.20.488,LearnStrategy,2023.2.3,Win32,100,,,,,,,,,,,3,06,4,4,,,,,,,,,,,,,,,,,,,,,,,,,,,,,
666c453b833e8ad9c85526fd,TCN,2024-06-21_12h46.20.488,LearnStrategy,2023.2.3,Win32,100,,,,,,,,,,,2,08,4,5,,,,,,,,,,,,,,,,,,,,,,,,,,,,,
666c453b833e8ad9c85526fd,TCN,2024-06-21_12h46.20.488,LearnStrategy,2023.2.3,Win32,100,,,,,,,,,,,8,03,4,6,,,,,,,,,,,,,,,,,,,,,,,,,,,,,
666c453b833e8ad9c85526fd,TCN,2024-06-21_12h46.20.488,LearnStrategy,2023.2.3,Win32,100,,,,,,,,,,,5,08,4,7,,,,,,,,,,,,,,,,,,,,,,,,,,,,,
666c453b833e8ad9c85526fd,TCN,2024-06-21_12h46.20.488,LearnStrategy,2023.2.3,Win32,100,,,,,,,,,,,5,06,4,8,,,,,,,,,,,,,,,,,,,,,,,,,,,,,
666c453b833e8ad9c85526fd,TCN,2024-06-21_12h46.20.488,LearnStrategy,2023.2.3,Win32,100,,,,,,,,,,,6,10,5,1,,,,,,,,,,,,,,,,,,,,,,,,,,,,,
666c453b833e8ad9c85526fd,TCN,2024-06-21_12h46.20.488,LearnStrategy,2023.2.3,Win32,100,,,,,,,,,,,3,11,5,2,,,,,,,,,,,,,,,,,,,,,,,,,,,,,
666c453b833e8ad9c85526fd,TCN,2024-06-21_12h46.20.488,LearnStrategy,2023.2.3,Win32,100,,,,,,,,,,,1,03,5,3,,,,,,,,,,,,,,,,,,,,,,,,,,,,,
666c453b833e8ad9c85526fd,TCN,2024-06-21_12h46.20.488,LearnStrategy,2023.2.3,Win32,100,,,,,,,,,,,8,05,5,4,,,,,,,,,,,,,,,,,,,,,,,,,,,,,
666c453b833e8ad9c85526fd,TCN,2024-06-21_12h46.20.488,LearnStrategy,2023.2.3,Win32,100,,,,,,,,,,,8,10,5,5,,,,,,,,,,,,,,,,,,,,,,,,,,,,,
666c453b833e8ad9c85526fd,TCN,2024-06-21_12h46.20.488,LearnStrategy,2023.2.3,Win32,100,,,,,,,,,,,7,12,5,6,,,,,,,,,,,,,,,,,,,,,,,,,,,,,
666c453b833e8ad9c85526fd,TCN,2024-06-21_12h46.20.488,LearnStrategy,2023.2.3,Win32,100,,,,,,,,,,,2,09,5,7,,,,,,,,,,,,,,,,,,,,,,,,,,,,,
666c453b833e8ad9c85526fd,TCN,2024-06-21_12h46.20.488,LearnStrategy,2023.2.3,Win32,100,,,,,,,,,,,2,10,5,8,,,,,,,,,,,,,,,,,,,,,,,,,,,,,
666c453b833e8ad9c85526fd,TCN,2024-06-21_12h46.20.488,LearnStrategy,2023.2.3,Win32,100,,,,,,,,,,,5,04,6,1,,,,,,,,,,,,,,,,,,,,,,,,,,,,,
666c453b833e8ad9c85526fd,TCN,2024-06-21_12h46.20.488,LearnStrategy,2023.2.3,Win32,100,,,,,,,,,,,3,07,6,2,,,,,,,,,,,,,,,,,,,,,,,,,,,,,
666c453b833e8ad9c85526fd,TCN,2024-06-21_12h46.20.488,LearnStrategy,2023.2.3,Win32,100,,,,,,,,,,,5,02,6,3,,,,,,,,,,,,,,,,,,,,,,,,,,,,,
666c453b833e8ad9c85526fd,TCN,2024-06-21_12h46.20.488,LearnStrategy,2023.2.3,Win32,100,,,,,,,,,,,8,04,6,4,,,,,,,,,,,,,,,,,,,,,,,,,,,,,
666c453b833e8ad9c85526fd,TCN,2024-06-21_12h46.20.488,LearnStrategy,2023.2.3,Win32,100,,,,,,,,,,,7,05,6,5,,,,,,,,,,,,,,,,,,,,,,,,,,,,,
666c453b833e8ad9c85526fd,TCN,2024-06-21_12h46.20.488,LearnStrategy,2023.2.3,Win32,100,,,,,,,,,,,1,04,6,6,,,,,,,,,,,,,,,,,,,,,,,,,,,,,
666c453b833e8ad9c85526fd,TCN,2024-06-21_12h46.20.488,LearnStrategy,2023.2.3,Win32,100,,,,,,,,,,,7,15,6,7,,,,,,,,,,,,,,,,,,,,,,,,,,,,,
666c453b833e8ad9c85526fd,TCN,2024-06-21_12h46.20.488,LearnStrategy,2023.2.3,Win32,100,,,,,,,,,,,6,12,6,8,,,,,,,,,,,,,,,,,,,,,,,,,,,,,