participant,condition,date,expName,psychopyVersion,OS,frameRate,block,phase,trial,learn_mouse_2.x,learn_mouse_2.y,learn_mouse_2.leftButton,learn_mouse_2.midButton,learn_mouse_2.rightButton,learn_mouse_2.time,learn_mouse_2.clicked_name,cat,token,row,col,t_select,cat_mouse_l.x,cat_mouse_l.y,cat_mouse_l.leftButton,cat_mouse_l.midButton,cat_mouse_l.rightButton,cat_mouse_l.time,cat_mouse_l.clicked_name,resp,t_resp,corr,train_trials.thisRepN,train_trials.thisTrialN,train_trials.thisN,train_trials.thisIndex,train_trials.ran,cat_mouse_t.x,cat_mouse_t.y,cat_mouse_t.leftButton,cat_mouse_t.midButton,cat_mouse_t.rightButton,cat_mouse_t.time,cat_mouse_t.clicked_name,test_trials.thisRepN,test_trials.thisTrialN,test_trials.thisN,test_trials.thisIndex,test_trials.ran,Bonus
666dd3dac790ac5fb9c88d96,TCR,2024-06-21_10h47.39.932,LearnStrategy,2023.2.3,Win32,165.0165017,,,,,,,,,,,,,,,,,,,,,,,,,,,,,,,,,,,,,,,,,,,
666dd3dac790ac5fb9c88d96,TCR,2024-06-21_10h47.39.932,LearnStrategy,2023.2.3,Win32,165.0165017,1,1,1,0.061111111,-0.002777778,1,0,0,2.506,rock_grid_rect_2,3,14,-1,-1,2.506,0.147222222,-0.239583333,1,0,0,5.165,Diorite_rect,3,5.165,1,0,0,0,0,1,,,,,,,,,,,,,
666dd3dac790ac5fb9c88d96,TCR,2024-06-21_10h47.39.932,LearnStrategy,2023.2.3,Win32,165.0165017,1,1,2,0.065972222,-0.0125,1,0,0,1.164,rock_grid_rect_2,2,04,-1,-1,1.164,-0.359722222,-0.244444444,1,0,0,2.59,Andesite_rect,1,2.59,0,1,0,1,0,1,,,,,,,,,,,,,
666dd3dac790ac5fb9c88d96,TCR,2024-06-21_10h47.39.932,LearnStrategy,2023.2.3,Win32,165.0165017,1,1,3,0.08125,0.002777778,1,0,0,1.412,rock_grid_rect_2,7,02,-1,-1,1.412,0.111805556,-0.402083333,1,0,0,2.89,Peridotite_rect,7,2.89,1,2,0,2,0,1,,,,,,,,,,,,,
666dd3dac790ac5fb9c88d96,TCR,2024-06-21_10h47.39.932,LearnStrategy,2023.2.3,Win32,165.0165017,1,1,4,0.072916667,-0.015277778,1,0,0,0.828,rock_grid_rect_2,3,06,-1,-1,0.828,-0.361805556,-0.244444444,1,0,0,6.185,Andesite_rect,1,6.185,0,3,0,3,0,1,,,,,,,,,,,,,
666dd3dac790ac5fb9c88d96,TCR,2024-06-21_10h47.39.932,LearnStrategy,2023.2.3,Win32,165.0165017,1,1,5,-0.024305556,-0.002083333,1,0,0,1.721,rock_grid_rect_2,5,05,-1,-1,1.721,-0.405555556,-0.406944444,1,0,0,5.044,Obsidian_rect,5,5.044,1,4,0,4,0,1,,,,,,,,,,,,,
666dd3dac790ac5fb9c88d96,TCR,2024-06-21_10h47.39.932,LearnStrategy,2023.2.3,Win32,165.0165017,1,1,6,-0.014583333,0.00625,1,0,0,1.047,rock_grid_rect_2,4,12,-1,-1,1.047,-0.375694444,-0.231944444,1,0,0,3.854,Andesite_rect,1,3.854,0,5,0,5,0,1,,,,,,,,,,,,,
666dd3dac790ac5fb9c88d96,TCR,2024-06-21_10h47.39.932,LearnStrategy,2023.2.3,Win32,165.0165017,1,1,7,0.006944444,-0.000694444,1,0,0,0.603,rock_grid_rect_2,4,01,-1,-1,0.603,-0.364583333,-0.235416667,1,0,0,5.001,Andesite_rect,1,5.001,0,6,0,6,0,1,,,,,,,,,,,,,
666dd3dac790ac5fb9c88d96,TCR,2024-06-21_10h47.39.932,LearnStrategy,2023.2.3,Win32,165.0165017,1,1,8,-0.01875,0.007638889,1,0,0,0.666,rock_grid_rect_2,7,13,-1,-1,0.666,-0.065972222,-0.390277778,1,0,0,3.475,Pegmatite_rect,6,3.475,0,7,0,7,0,1,,,,,,,,,,,,,
666dd3dac790ac5fb9c88d96,TCR,2024-06-21_10h47.39.932,LearnStrategy,2023.2.3,Win32,165.0165017,1,1,9,-0.004861111,-0.009027778,1,0,0,0.66,rock_grid_rect_2,6,03,-1,-1,0.66,-0.113194444,-0.409027778,1,0,0,10.382,Pegmatite_rect,6,10.382,1,8,0,8,0,1,,,,,,,,,,,,,
666dd3dac790ac5fb9c88d96,TCR,2024-06-21_10h47.39.932,LearnStrategy,2023.2.3,Win32,165.0165017,1,1,10,0.002777778,0.019444444,1,0,0,0.615,rock_grid_rect_2,8,14,-1,-1,0.615,0.36875,-0.409722222,1,0,0,2.442,Pumice_rect,8,2.442,1,9,0,9,0,1,,,,,,,,,,,,,
666dd3dac790ac5fb9c88d96,TCR,2024-06-21_10h47.39.932,LearnStrategy,2023.2.3,Win32,165.0165017,1,1,11,0.092361111,0.009027778,1,0,0,0.708,rock_grid_rect_2,1,10,-1,-1,0.708,-0.395138889,-0.236805556,1,0,0,4.923,Andesite_rect,1,4.923,1,10,0,10,0,1,,,,,,,,,,,,,
666dd3dac790ac5fb9c88d96,TCR,2024-06-21_10h47.39.932,LearnStrategy,2023.2.3,Win32,165.0165017,1,1,12,0.014583333,0.017361111,1,0,0,0.909,rock_grid_rect_2,5,07,-1,-1,0.909,-0.411805556,-0.405555556,1,0,0,1.536,Obsidian_rect,5,1.536,1,11,0,11,0,1,,,,,,,,,,,,,
666dd3dac790ac5fb9c88d96,TCR,2024-06-21_10h47.39.932,LearnStrategy,2023.2.3,Win32,165.0165017,1,1,13,-0.008333333,0.007638889,1,0,0,0.794,rock_grid_rect_2,6,05,-1,-1,0.794,0.051388889,-0.411111111,1,0,0,8.49,Peridotite_rect,7,8.49,0,12,0,12,0,1,,,,,,,,,,,,,
666dd3dac790ac5fb9c88d96,TCR,2024-06-21_10h47.39.932,LearnStrategy,2023.2.3,Win32,165.0165017,1,1,14,0.052777778,-0.005555556,1,0,0,0.889,rock_grid_rect_2,1,02,-1,-1,0.889,0.077777778,-0.256944444,1,0,0,3.688,Diorite_rect,3,3.688,0,13,0,13,0,1,,,,,,,,,,,,,
666dd3dac790ac5fb9c88d96,TCR,2024-06-21_10h47.39.932,LearnStrategy,2023.2.3,Win32,165.0165017,1,1,15,-0.021527778,-0.011805556,1,0,0,0.77,rock_grid_rect_2,2,06,-1,-1,0.77,-0.352777778,-0.4,1,0,0,1.136,Obsidian_rect,5,1.136,0,14,0,14,0,1,,,,,,,,,,,,,
666dd3dac790ac5fb9c88d96,TCR,2024-06-21_10h47.39.932,LearnStrategy,2023.2.3,Win32,165.0165017,1,1,16,0.004861111,0.002777778,1,0,0,0.776,rock_grid_rect_2,8,03,-1,-1,0.776,0.350694444,-0.3875,1,0,0,1.196,Pumice_rect,8,1.196,1,15,0,15,0,1,,,,,,,,,,,,,
666dd3dac790ac5fb9c88d96,TCR,2024-06-21_10h47.39.932,LearnStrategy,2023.2.3,Win32,165.0165017,1,2,1,,,,,,,,8,15,,,,,,,,,,,8,1.969,1,,,,,,0.360416667,-0.398611111,1,0,0,1.969,Pumice_rect,0,0,0,0,1,
666dd3dac790ac5fb9c88d96,TCR,2024-06-21_10h47.39.932,LearnStrategy,2023.2.3,Win32,165.0165017,1,2,2,,,,,,,,4,15,,,,,,,,,,,4,19.224,1,,,,,,0.331944444,-0.259027778,1,0,0,19.224,Gabbro_rect,1,0,1,0,1,
666dd3dac790ac5fb9c88d96,TCR,2024-06-21_10h47.39.932,LearnStrategy,2023.2.3,Win32,165.0165017,1,2,3,,,,,,,,7,15,,,,,,,,,,,6,3.077,0,,,,,,-0.104861111,-0.395833333,1,0,0,3.077,Pegmatite_rect,2,0,2,0,1,
666dd3dac790ac5fb9c88d96,TCR,2024-06-21_10h47.39.932,LearnStrategy,2023.2.3,Win32,165.0165017,1,2,4,,,,,,,,5,14,,,,,,,,,,,5,0.901,1,,,,,,-0.361805556,-0.396527778,1,0,0,0.901,Obsidian_rect,3,0,3,0,1,
666dd3dac790ac5fb9c88d96,TCR,2024-06-21_10h47.39.932,LearnStrategy,2023.2.3,Win32,165.0165017,1,2,5,,,,,,,,6,12,,,,,,,,,,,3,7.613,0,,,,,,0.140972222,-0.231944444,1,0,0,7.613,Diorite_rect,4,0,4,0,1,
666dd3dac790ac5fb9c88d96,TCR,2024-06-21_10h47.39.932,LearnStrategy,2023.2.3,Win32,165.0165017,1,2,6,,,,,,,,3,12,,,,,,,,,,,3,4.47,1,,,,,,0.1,-0.252083333,1,0,0,4.47,Diorite_rect,5,0,5,0,1,
666dd3dac790ac5fb9c88d96,TCR,2024-06-21_10h47.39.932,LearnStrategy,2023.2.3,Win32,165.0165017,1,2,7,,,,,,,,3,16,,,,,,,,,,,3,3.018,1,,,,,,0.095138889,-0.257638889,1,0,0,3.018,Diorite_rect,6,0,6,0,1,
666dd3dac790ac5fb9c88d96,TCR,2024-06-21_10h47.39.932,LearnStrategy,2023.2.3,Win32,165.0165017,1,2,8,,,,,,,,6,13,,,,,,,,,,,6,3.004,1,,,,,,-0.103472222,-0.390972222,1,0,0,3.004,Pegmatite_rect,7,0,7,0,1,
666dd3dac790ac5fb9c88d96,TCR,2024-06-21_10h47.39.932,LearnStrategy,2023.2.3,Win32,165.0165017,1,2,9,,,,,,,,8,04,,,,,,,,,,,8,1.637,1,,,,,,0.377083333,-0.408333333,1,0,0,1.637,Pumice_rect,8,0,8,0,1,
666dd3dac790ac5fb9c88d96,TCR,2024-06-21_10h47.39.932,LearnStrategy,2023.2.3,Win32,165.0165017,1,2,10,,,,,,,,2,11,,,,,,,,,,,8,4.652,0,,,,,,0.372916667,-0.4,1,0,0,4.652,Pumice_rect,9,0,9,0,1,
666dd3dac790ac5fb9c88d96,TCR,2024-06-21_10h47.39.932,LearnStrategy,2023.2.3,Win32,165.0165017,1,2,11,,,,,,,,5,06,,,,,,,,,,,5,1.129,1,,,,,,-0.460416667,-0.395138889,1,0,0,1.129,Obsidian_rect,10,0,10,0,1,
666dd3dac790ac5fb9c88d96,TCR,2024-06-21_10h47.39.932,LearnStrategy,2023.2.3,Win32,165.0165017,1,2,12,,,,,,,,1,06,,,,,,,,,,,4,10.92,0,,,,,,0.359027778,-0.260416667,1,0,0,10.92,Gabbro_rect,11,0,11,0,1,
666dd3dac790ac5fb9c88d96,TCR,2024-06-21_10h47.39.932,LearnStrategy,2023.2.3,Win32,165.0165017,1,2,13,,,,,,,,1,05,,,,,,,,,,,1,11.832,1,,,,,,-0.371527778,-0.247222222,1,0,0,11.832,Andesite_rect,12,0,12,0,1,
666dd3dac790ac5fb9c88d96,TCR,2024-06-21_10h47.39.932,LearnStrategy,2023.2.3,Win32,165.0165017,1,2,14,,,,,,,,4,16,,,,,,,,,,,2,1.434,0,,,,,,-0.131944444,-0.246527778,1,0,0,1.434,Basalt_rect,13,0,13,0,1,
666dd3dac790ac5fb9c88d96,TCR,2024-06-21_10h47.39.932,LearnStrategy,2023.2.3,Win32,165.0165017,1,2,15,,,,,,,,2,09,,,,,,,,,,,2,0.907,1,,,,,,-0.140972222,-0.261805556,1,0,0,0.907,Basalt_rect,14,0,14,0,1,
666dd3dac790ac5fb9c88d96,TCR,2024-06-21_10h47.39.932,LearnStrategy,2023.2.3,Win32,165.0165017,1,2,16,,,,,,,,7,14,,,,,,,,,,,7,1.865,1,,,,,,0.106944444,-0.404861111,1,0,0,1.865,Peridotite_rect,15,0,15,0,1,
666dd3dac790ac5fb9c88d96,TCR,2024-06-21_10h47.39.932,LearnStrategy,2023.2.3,Win32,165.0165017,2,1,1,0.099305556,0,1,0,0,2.202,rock_grid_rect_2,4,09,-1,-1,2.202,-0.154166667,-0.24375,1,0,0,10.376,Basalt_rect,2,10.376,0,0,0,0,0,1,,,,,,,,,,,,,
666dd3dac790ac5fb9c88d96,TCR,2024-06-21_10h47.39.932,LearnStrategy,2023.2.3,Win32,165.0165017,2,1,2,0.039583333,-0.004861111,1,0,0,1.06,rock_grid_rect_2,4,01,-1,-1,1.06,0.081944444,-0.396527778,1,0,0,3.718,Peridotite_rect,7,3.718,0,1,0,1,0,1,,,,,,,,,,,,,
666dd3dac790ac5fb9c88d96,TCR,2024-06-21_10h47.39.932,LearnStrategy,2023.2.3,Win32,165.0165017,2,1,3,0.095138889,-0.020833333,1,0,0,0.691,rock_grid_rect_2,1,11,-1,-1,0.691,-0.388194444,-0.267361111,1,0,0,2.727,Andesite_rect,1,2.727,1,2,0,2,0,1,,,,,,,,,,,,,
666dd3dac790ac5fb9c88d96,TCR,2024-06-21_10h47.39.932,LearnStrategy,2023.2.3,Win32,165.0165017,2,1,4,0.070833333,-0.004861111,1,0,0,0.632,rock_grid_rect_2,6,07,-1,-1,0.632,0.086805556,-0.396527778,1,0,0,2.759,Peridotite_rect,7,2.759,0,3,0,3,0,1,,,,,,,,,,,,,
666dd3dac790ac5fb9c88d96,TCR,2024-06-21_10h47.39.932,LearnStrategy,2023.2.3,Win32,165.0165017,2,1,5,0.006944444,0.002083333,1,0,0,0.592,rock_grid_rect_2,2,06,-1,-1,0.592,-0.11875,-0.259722222,1,0,0,1.01,Basalt_rect,2,1.01,1,4,0,4,0,1,,,,,,,,,,,,,
666dd3dac790ac5fb9c88d96,TCR,2024-06-21_10h47.39.932,LearnStrategy,2023.2.3,Win32,165.0165017,2,1,6,0.006944444,0.003472222,1,0,0,0.563,rock_grid_rect_2,2,16,-1,-1,0.563,-0.1,-0.396527778,1,0,0,5.088,Pegmatite_rect,6,5.088,0,5,0,5,0,1,,,,,,,,,,,,,
666dd3dac790ac5fb9c88d96,TCR,2024-06-21_10h47.39.932,LearnStrategy,2023.2.3,Win32,165.0165017,2,1,7,0.070833333,0.006944444,1,0,0,0.581,rock_grid_rect_2,4,14,-1,-1,0.581,-0.066666667,-0.269444444,1,0,0,2.76,Basalt_rect,2,2.76,0,6,0,6,0,1,,,,,,,,,,,,,
666dd3dac790ac5fb9c88d96,TCR,2024-06-21_10h47.39.932,LearnStrategy,2023.2.3,Win32,165.0165017,2,1,8,0.049305556,0.008333333,1,0,0,0.775,rock_grid_rect_2,1,03,-1,-1,0.775,-0.347222222,-0.255555556,1,0,0,5.327,Andesite_rect,1,5.327,1,7,0,7,0,1,,,,,,,,,,,,,
666dd3dac790ac5fb9c88d96,TCR,2024-06-21_10h47.39.932,LearnStrategy,2023.2.3,Win32,165.0165017,2,1,9,0.034722222,-0.015972222,1,0,0,0.491,rock_grid_rect_2,1,01,-1,-1,0.491,-0.070138889,-0.25,1,0,0,6.196,Basalt_rect,2,6.196,0,8,0,8,0,1,,,,,,,,,,,,,
666dd3dac790ac5fb9c88d96,TCR,2024-06-21_10h47.39.932,LearnStrategy,2023.2.3,Win32,165.0165017,2,1,10,0.040277778,-0.000694444,1,0,0,0.771,rock_grid_rect_2,7,05,-1,-1,0.771,0.068055556,-0.397916667,1,0,0,6.388,Peridotite_rect,7,6.388,1,9,0,9,0,1,,,,,,,,,,,,,
666dd3dac790ac5fb9c88d96,TCR,2024-06-21_10h47.39.932,LearnStrategy,2023.2.3,Win32,165.0165017,2,1,11,0.148611111,-0.021527778,1,0,0,0.624,rock_grid_rect_2,2,02,-1,-1,0.624,-0.104166667,-0.239583333,1,0,0,1.077,Basalt_rect,2,1.077,1,10,0,10,0,1,,,,,,,,,,,,,
666dd3dac790ac5fb9c88d96,TCR,2024-06-21_10h47.39.932,LearnStrategy,2023.2.3,Win32,165.0165017,2,1,12,0.011111111,-0.010416667,1,0,0,0.484,rock_grid_rect_2,7,16,-1,-1,0.484,0.108333333,-0.40625,1,0,0,1.96,Peridotite_rect,7,1.96,1,11,0,11,0,1,,,,,,,,,,,,,
666dd3dac790ac5fb9c88d96,TCR,2024-06-21_10h47.39.932,LearnStrategy,2023.2.3,Win32,165.0165017,2,1,13,0.023611111,-0.010416667,1,0,0,0.46,rock_grid_rect_2,3,15,-1,-1,0.46,0.16875,-0.254166667,1,0,0,2.615,Diorite_rect,3,2.615,1,12,0,12,0,1,,,,,,,,,,,,,
666dd3dac790ac5fb9c88d96,TCR,2024-06-21_10h47.39.932,LearnStrategy,2023.2.3,Win32,165.0165017,2,1,14,0.051388889,-0.001388889,1,0,0,0.721,rock_grid_rect_2,8,03,-1,-1,0.721,0.345833333,-0.392361111,1,0,0,1.378,Pumice_rect,8,1.378,1,13,0,13,0,1,,,,,,,,,,,,,
666dd3dac790ac5fb9c88d96,TCR,2024-06-21_10h47.39.932,LearnStrategy,2023.2.3,Win32,165.0165017,2,1,15,0.143055556,-0.00625,1,0,0,0.514,rock_grid_rect_2,6,10,-1,-1,0.514,0.09375,-0.404861111,1,0,0,1.477,Peridotite_rect,7,1.477,0,14,0,14,0,1,,,,,,,,,,,,,
666dd3dac790ac5fb9c88d96,TCR,2024-06-21_10h47.39.932,LearnStrategy,2023.2.3,Win32,165.0165017,2,1,16,0.070833333,-0.005555556,1,0,0,1.127,rock_grid_rect_2,6,08,-1,-1,1.127,0.154861111,-0.26875,1,0,0,3.397,Diorite_rect,3,3.397,0,15,0,15,0,1,,,,,,,,,,,,,
666dd3dac790ac5fb9c88d96,TCR,2024-06-21_10h47.39.932,LearnStrategy,2023.2.3,Win32,165.0165017,2,2,1,,,,,,,,7,12,,,,,,,,,,,6,5.871,0,,,,,,-0.059722222,-0.40625,1,0,0,5.871,Pegmatite_rect,0,0,0,0,1,
666dd3dac790ac5fb9c88d96,TCR,2024-06-21_10h47.39.932,LearnStrategy,2023.2.3,Win32,165.0165017,2,2,2,,,,,,,,4,03,,,,,,,,,,,4,16.632,1,,,,,,0.338888889,-0.250694444,1,0,0,16.632,Gabbro_rect,1,0,1,0,1,
666dd3dac790ac5fb9c88d96,TCR,2024-06-21_10h47.39.932,LearnStrategy,2023.2.3,Win32,165.0165017,2,2,3,,,,,,,,1,07,,,,,,,,,,,2,5.174,0,,,,,,-0.096527778,-0.247916667,1,0,0,5.174,Basalt_rect,2,0,2,0,1,
666dd3dac790ac5fb9c88d96,TCR,2024-06-21_10h47.39.932,LearnStrategy,2023.2.3,Win32,165.0165017,2,2,4,,,,,,,,7,10,,,,,,,,,,,7,1.534,1,,,,,,0.086805556,-0.396527778,1,0,0,1.534,Peridotite_rect,3,0,3,0,1,
666dd3dac790ac5fb9c88d96,TCR,2024-06-21_10h47.39.932,LearnStrategy,2023.2.3,Win32,165.0165017,2,2,5,,,,,,,,3,13,,,,,,,,,,,7,0.864,0,,,,,,0.034722222,-0.384722222,1,0,0,0.864,Peridotite_rect,4,0,4,0,1,
666dd3dac790ac5fb9c88d96,TCR,2024-06-21_10h47.39.932,LearnStrategy,2023.2.3,Win32,165.0165017,2,2,6,,,,,,,,2,14,,,,,,,,,,,8,2.5,0,,,,,,0.388888889,-0.409722222,1,0,0,2.5,Pumice_rect,5,0,5,0,1,
666dd3dac790ac5fb9c88d96,TCR,2024-06-21_10h47.39.932,LearnStrategy,2023.2.3,Win32,165.0165017,2,2,7,,,,,,,,5,16,,,,,,,,,,,5,0.874,1,,,,,,-0.454861111,-0.390972222,1,0,0,0.874,Obsidian_rect,6,0,6,0,1,
666dd3dac790ac5fb9c88d96,TCR,2024-06-21_10h47.39.932,LearnStrategy,2023.2.3,Win32,165.0165017,2,2,8,,,,,,,,5,02,,,,,,,,,,,5,0.893,1,,,,,,-0.359027778,-0.386805556,1,0,0,0.893,Obsidian_rect,7,0,7,0,1,
666dd3dac790ac5fb9c88d96,TCR,2024-06-21_10h47.39.932,LearnStrategy,2023.2.3,Win32,165.0165017,2,2,9,,,,,,,,1,16,,,,,,,,,,,1,5.088,1,,,,,,-0.355555556,-0.24375,1,0,0,5.088,Andesite_rect,8,0,8,0,1,
666dd3dac790ac5fb9c88d96,TCR,2024-06-21_10h47.39.932,LearnStrategy,2023.2.3,Win32,165.0165017,2,2,10,,,,,,,,8,13,,,,,,,,,,,8,1.453,1,,,,,,0.447222222,-0.4,1,0,0,1.453,Pumice_rect,9,0,9,0,1,
666dd3dac790ac5fb9c88d96,TCR,2024-06-21_10h47.39.932,LearnStrategy,2023.2.3,Win32,165.0165017,2,2,11,,,,,,,,6,11,,,,,,,,,,,5,4.5,0,,,,,,-0.354861111,-0.396527778,1,0,0,4.5,Obsidian_rect,10,0,10,0,1,
666dd3dac790ac5fb9c88d96,TCR,2024-06-21_10h47.39.932,LearnStrategy,2023.2.3,Win32,165.0165017,2,2,12,,,,,,,,4,05,,,,,,,,,,,4,3.08,1,,,,,,0.363194444,-0.259722222,1,0,0,3.08,Gabbro_rect,11,0,11,0,1,
666dd3dac790ac5fb9c88d96,TCR,2024-06-21_10h47.39.932,LearnStrategy,2023.2.3,Win32,165.0165017,2,2,13,,,,,,,,3,09,,,,,,,,,,,3,2.743,1,,,,,,0.115277778,-0.259027778,1,0,0,2.743,Diorite_rect,12,0,12,0,1,
666dd3dac790ac5fb9c88d96,TCR,2024-06-21_10h47.39.932,LearnStrategy,2023.2.3,Win32,165.0165017,2,2,14,,,,,,,,8,16,,,,,,,,,,,8,0.858,1,,,,,,0.444444444,-0.399305556,1,0,0,0.858,Pumice_rect,13,0,13,0,1,
666dd3dac790ac5fb9c88d96,TCR,2024-06-21_10h47.39.932,LearnStrategy,2023.2.3,Win32,165.0165017,2,2,15,,,,,,,,6,06,,,,,,,,,,,6,19.859,1,,,,,,-0.054166667,-0.396527778,1,0,0,19.859,Pegmatite_rect,14,0,14,0,1,
666dd3dac790ac5fb9c88d96,TCR,2024-06-21_10h47.39.932,LearnStrategy,2023.2.3,Win32,165.0165017,2,2,16,,,,,,,,2,12,,,,,,,,,,,2,4.215,1,,,,,,-0.100694444,-0.270833333,1,0,0,4.215,Basalt_rect,15,0,15,0,1,
666dd3dac790ac5fb9c88d96,TCR,2024-06-21_10h47.39.932,LearnStrategy,2023.2.3,Win32,165.0165017,3,1,1,0.031944444,-0.020833333,1,0,0,1.164,rock_grid_rect_2,5,07,-1,-1,1.164,-0.397222222,-0.4125,1,0,0,1.281,Obsidian_rect,5,1.281,1,0,0,0,0,1,,,,,,,,,,,,,
666dd3dac790ac5fb9c88d96,TCR,2024-06-21_10h47.39.932,LearnStrategy,2023.2.3,Win32,165.0165017,3,1,2,0.026388889,-0.011111111,1,0,0,1.243,rock_grid_rect_2,3,02,-1,-1,1.243,0.125694444,-0.236805556,1,0,0,3.336,Diorite_rect,3,3.336,1,1,0,1,0,1,,,,,,,,,,,,,
666dd3dac790ac5fb9c88d96,TCR,2024-06-21_10h47.39.932,LearnStrategy,2023.2.3,Win32,165.0165017,3,1,3,0.072222222,0.016666667,1,0,0,0.509,rock_grid_rect_2,8,05,-1,-1,0.509,0.411805556,-0.401388889,1,0,0,1.001,Pumice_rect,8,1.001,1,2,0,2,0,1,,,,,,,,,,,,,
666dd3dac790ac5fb9c88d96,TCR,2024-06-21_10h47.39.932,LearnStrategy,2023.2.3,Win32,165.0165017,3,1,4,0.067361111,-0.019444444,1,0,0,0.466,rock_grid_rect_2,6,15,-1,-1,0.466,-0.086805556,-0.400694444,1,0,0,6.983,Pegmatite_rect,6,6.983,1,3,0,3,0,1,,,,,,,,,,,,,
666dd3dac790ac5fb9c88d96,TCR,2024-06-21_10h47.39.932,LearnStrategy,2023.2.3,Win32,165.0165017,3,1,5,0.145833333,0.007638889,1,0,0,0.508,rock_grid_rect_2,7,07,-1,-1,0.508,0.113194444,-0.403472222,1,0,0,3.166,Peridotite_rect,7,3.166,1,4,0,4,0,1,,,,,,,,,,,,,
666dd3dac790ac5fb9c88d96,TCR,2024-06-21_10h47.39.932,LearnStrategy,2023.2.3,Win32,165.0165017,3,1,6,0.095138889,0.017361111,1,0,0,0.546,rock_grid_rect_2,1,14,-1,-1,0.546,0.079166667,-0.25625,1,0,0,2.291,Diorite_rect,3,2.291,0,5,0,5,0,1,,,,,,,,,,,,,
666dd3dac790ac5fb9c88d96,TCR,2024-06-21_10h47.39.932,LearnStrategy,2023.2.3,Win32,165.0165017,3,1,7,0.056944444,-0.004166667,1,0,0,0.798,rock_grid_rect_2,7,07,-1,-1,0.798,0.079861111,-0.411805556,1,0,0,2.281,Peridotite_rect,7,2.281,1,6,0,6,0,1,,,,,,,,,,,,,
666dd3dac790ac5fb9c88d96,TCR,2024-06-21_10h47.39.932,LearnStrategy,2023.2.3,Win32,165.0165017,3,1,8,0.002083333,0.013888889,1,0,0,0.484,rock_grid_rect_2,4,14,-1,-1,0.484,0.070138889,-0.252777778,1,0,0,7.817,Diorite_rect,3,7.817,0,7,0,7,0,1,,,,,,,,,,,,,
666dd3dac790ac5fb9c88d96,TCR,2024-06-21_10h47.39.932,LearnStrategy,2023.2.3,Win32,165.0165017,3,1,9,0.002777778,0.009722222,1,0,0,0.441,rock_grid_rect_2,6,07,-1,-1,0.441,-0.370833333,-0.386111111,1,0,0,1.494,Obsidian_rect,5,1.494,0,8,0,8,0,1,,,,,,,,,,,,,
666dd3dac790ac5fb9c88d96,TCR,2024-06-21_10h47.39.932,LearnStrategy,2023.2.3,Win32,165.0165017,3,1,10,0.109027778,-0.002777778,1,0,0,0.484,rock_grid_rect_2,2,04,-1,-1,0.484,-0.1125,-0.234027778,1,0,0,1.019,Basalt_rect,2,1.019,1,9,0,9,0,1,,,,,,,,,,,,,
666dd3dac790ac5fb9c88d96,TCR,2024-06-21_10h47.39.932,LearnStrategy,2023.2.3,Win32,165.0165017,3,1,11,0.057638889,-0.004166667,1,0,0,0.672,rock_grid_rect_2,2,10,-1,-1,0.672,-0.345833333,-0.399305556,1,0,0,0.912,Obsidian_rect,5,0.912,0,10,0,10,0,1,,,,,,,,,,,,,
666dd3dac790ac5fb9c88d96,TCR,2024-06-21_10h47.39.932,LearnStrategy,2023.2.3,Win32,165.0165017,3,1,12,0.048611111,-0.003472222,1,0,0,0.673,rock_grid_rect_2,3,11,-1,-1,0.673,0.134027778,-0.25,1,0,0,2.494,Diorite_rect,3,2.494,1,11,0,11,0,1,,,,,,,,,,,,,
666dd3dac790ac5fb9c88d96,TCR,2024-06-21_10h47.39.932,LearnStrategy,2023.2.3,Win32,165.0165017,3,1,13,0.006944444,-0.025,1,0,0,0.382,rock_grid_rect_2,7,16,-1,-1,0.382,-0.085416667,-0.411805556,1,0,0,2.156,Pegmatite_rect,6,2.156,0,12,0,12,0,1,,,,,,,,,,,,,
666dd3dac790ac5fb9c88d96,TCR,2024-06-21_10h47.39.932,LearnStrategy,2023.2.3,Win32,165.0165017,3,1,14,0.031944444,-0.015277778,1,0,0,0.479,rock_grid_rect_2,1,10,-1,-1,0.479,0.371527778,-0.258333333,1,0,0,3.046,Gabbro_rect,4,3.046,0,13,0,13,0,1,,,,,,,,,,,,,
666dd3dac790ac5fb9c88d96,TCR,2024-06-21_10h47.39.932,LearnStrategy,2023.2.3,Win32,165.0165017,3,1,15,0.009722222,0.013888889,1,0,0,0.417,rock_grid_rect_2,6,10,-1,-1,0.417,-0.103472222,-0.400694444,1,0,0,1.691,Pegmatite_rect,6,1.691,1,14,0,14,0,1,,,,,,,,,,,,,
666dd3dac790ac5fb9c88d96,TCR,2024-06-21_10h47.39.932,LearnStrategy,2023.2.3,Win32,165.0165017,3,1,16,0.000694444,0.004861111,1,0,0,0.455,rock_grid_rect_2,2,16,-1,-1,0.455,0.388194444,-0.421527778,1,0,0,2.571,Pumice_rect,8,2.571,0,15,0,15,0,1,,,,,,,,,,,,,
666dd3dac790ac5fb9c88d96,TCR,2024-06-21_10h47.39.932,LearnStrategy,2023.2.3,Win32,165.0165017,3,2,1,,,,,,,,2,01,,,,,,,,,,,2,3.07,1,,,,,,-0.165972222,-0.25,1,0,0,3.07,Basalt_rect,0,0,0,0,1,
666dd3dac790ac5fb9c88d96,TCR,2024-06-21_10h47.39.932,LearnStrategy,2023.2.3,Win32,165.0165017,3,2,2,,,,,,,,1,09,,,,,,,,,,,1,2.895,1,,,,,,-0.414583333,-0.259722222,1,0,0,2.895,Andesite_rect,1,0,1,0,1,
666dd3dac790ac5fb9c88d96,TCR,2024-06-21_10h47.39.932,LearnStrategy,2023.2.3,Win32,165.0165017,3,2,3,,,,,,,,6,16,,,,,,,,,,,3,4.396,0,,,,,,0.138888889,-0.250694444,1,0,0,4.396,Diorite_rect,2,0,2,0,1,
666dd3dac790ac5fb9c88d96,TCR,2024-06-21_10h47.39.932,LearnStrategy,2023.2.3,Win32,165.0165017,3,2,4,,,,,,,,7,04,,,,,,,,,,,6,4.481,0,,,,,,-0.119444444,-0.397916667,1,0,0,4.481,Pegmatite_rect,3,0,3,0,1,
666dd3dac790ac5fb9c88d96,TCR,2024-06-21_10h47.39.932,LearnStrategy,2023.2.3,Win32,165.0165017,3,2,5,,,,,,,,6,09,,,,,,,,,,,6,1.013,1,,,,,,-0.11875,-0.401388889,1,0,0,1.013,Pegmatite_rect,4,0,4,0,1,
666dd3dac790ac5fb9c88d96,TCR,2024-06-21_10h47.39.932,LearnStrategy,2023.2.3,Win32,165.0165017,3,2,6,,,,,,,,8,02,,,,,,,,,,,8,0.956,1,,,,,,0.336111111,-0.404861111,1,0,0,0.956,Pumice_rect,5,0,5,0,1,
666dd3dac790ac5fb9c88d96,TCR,2024-06-21_10h47.39.932,LearnStrategy,2023.2.3,Win32,165.0165017,3,2,7,,,,,,,,1,04,,,,,,,,,,,1,1.579,1,,,,,,-0.355555556,-0.260416667,1,0,0,1.579,Andesite_rect,6,0,6,0,1,
666dd3dac790ac5fb9c88d96,TCR,2024-06-21_10h47.39.932,LearnStrategy,2023.2.3,Win32,165.0165017,3,2,8,,,,,,,,4,08,,,,,,,,,,,4,1.953,1,,,,,,0.352777778,-0.253472222,1,0,0,1.953,Gabbro_rect,7,0,7,0,1,
666dd3dac790ac5fb9c88d96,TCR,2024-06-21_10h47.39.932,LearnStrategy,2023.2.3,Win32,165.0165017,3,2,9,,,,,,,,7,08,,,,,,,,,,,7,2.452,1,,,,,,0.072916667,-0.398611111,1,0,0,2.452,Peridotite_rect,8,0,8,0,1,
666dd3dac790ac5fb9c88d96,TCR,2024-06-21_10h47.39.932,LearnStrategy,2023.2.3,Win32,165.0165017,3,2,10,,,,,,,,8,06,,,,,,,,,,,8,0.774,1,,,,,,0.403472222,-0.393055556,1,0,0,0.774,Pumice_rect,9,0,9,0,1,
666dd3dac790ac5fb9c88d96,TCR,2024-06-21_10h47.39.932,LearnStrategy,2023.2.3,Win32,165.0165017,3,2,11,,,,,,,,5,04,,,,,,,,,,,5,1.287,1,,,,,,-0.351388889,-0.40625,1,0,0,1.287,Obsidian_rect,10,0,10,0,1,
666dd3dac790ac5fb9c88d96,TCR,2024-06-21_10h47.39.932,LearnStrategy,2023.2.3,Win32,165.0165017,3,2,12,,,,,,,,2,05,,,,,,,,,,,2,2.505,1,,,,,,-0.093055556,-0.253472222,1,0,0,2.505,Basalt_rect,11,0,11,0,1,
666dd3dac790ac5fb9c88d96,TCR,2024-06-21_10h47.39.932,LearnStrategy,2023.2.3,Win32,165.0165017,3,2,13,,,,,,,,5,11,,,,,,,,,,,5,0.897,1,,,,,,-0.425694444,-0.4,1,0,0,0.897,Obsidian_rect,12,0,12,0,1,
666dd3dac790ac5fb9c88d96,TCR,2024-06-21_10h47.39.932,LearnStrategy,2023.2.3,Win32,165.0165017,3,2,14,,,,,,,,4,11,,,,,,,,,,,4,2.859,1,,,,,,0.372916667,-0.25,1,0,0,2.859,Gabbro_rect,13,0,13,0,1,
666dd3dac790ac5fb9c88d96,TCR,2024-06-21_10h47.39.932,LearnStrategy,2023.2.3,Win32,165.0165017,3,2,15,,,,,,,,3,10,,,,,,,,,,,3,1.644,1,,,,,,0.119444444,-0.256944444,1,0,0,1.644,Diorite_rect,14,0,14,0,1,
666dd3dac790ac5fb9c88d96,TCR,2024-06-21_10h47.39.932,LearnStrategy,2023.2.3,Win32,165.0165017,3,2,16,,,,,,,,3,07,,,,,,,,,,,3,2.017,1,,,,,,0.111111111,-0.240277778,1,0,0,2.017,Diorite_rect,15,0,15,0,1,
666dd3dac790ac5fb9c88d96,TCR,2024-06-21_10h47.39.932,LearnStrategy,2023.2.3,Win32,165.0165017,4,1,1,0.06875,0.011111111,1,0,0,0.805,rock_grid_rect_2,7,16,-1,-1,0.805,0.0625,-0.409027778,1,0,0,2.225,Peridotite_rect,7,2.225,1,0,0,0,0,1,,,,,,,,,,,,,
666dd3dac790ac5fb9c88d96,TCR,2024-06-21_10h47.39.932,LearnStrategy,2023.2.3,Win32,165.0165017,4,1,2,0.05625,0.019444444,1,0,0,0.503,rock_grid_rect_2,6,15,-1,-1,0.503,-0.157638889,-0.407638889,1,0,0,1.237,Pegmatite_rect,6,1.237,1,1,0,1,0,1,,,,,,,,,,,,,
666dd3dac790ac5fb9c88d96,TCR,2024-06-21_10h47.39.932,LearnStrategy,2023.2.3,Win32,165.0165017,4,1,3,0.013888889,-0.015972222,1,0,0,0.751,rock_grid_rect_2,3,14,-1,-1,0.751,0.128472222,-0.240972222,1,0,0,1.761,Diorite_rect,3,1.761,1,2,0,2,0,1,,,,,,,,,,,,,
666dd3dac790ac5fb9c88d96,TCR,2024-06-21_10h47.39.932,LearnStrategy,2023.2.3,Win32,165.0165017,4,1,4,0.057638889,-0.00625,1,0,0,0.43,rock_grid_rect_2,8,14,-1,-1,0.43,0.4,-0.404861111,1,0,0,0.93,Pumice_rect,8,0.93,1,3,0,3,0,1,,,,,,,,,,,,,
666dd3dac790ac5fb9c88d96,TCR,2024-06-21_10h47.39.932,LearnStrategy,2023.2.3,Win32,165.0165017,4,1,5,0.009027778,-0.009722222,1,0,0,0.412,rock_grid_rect_2,7,02,-1,-1,0.412,0.088194444,-0.39375,1,0,0,1.649,Peridotite_rect,7,1.649,1,4,0,4,0,1,,,,,,,,,,,,,
666dd3dac790ac5fb9c88d96,TCR,2024-06-21_10h47.39.932,LearnStrategy,2023.2.3,Win32,165.0165017,4,1,6,0.044444444,0.000694444,1,0,0,0.365,rock_grid_rect_2,1,03,-1,-1,0.365,-0.376388889,-0.252083333,1,0,0,2.044,Andesite_rect,1,2.044,1,5,0,5,0,1,,,,,,,,,,,,,
666dd3dac790ac5fb9c88d96,TCR,2024-06-21_10h47.39.932,LearnStrategy,2023.2.3,Win32,165.0165017,4,1,7,0.007638889,-0.011111111,1,0,0,0.41,rock_grid_rect_2,3,11,-1,-1,0.41,0.0875,-0.258333333,1,0,0,2.137,Diorite_rect,3,2.137,1,6,0,6,0,1,,,,,,,,,,,,,
666dd3dac790ac5fb9c88d96,TCR,2024-06-21_10h47.39.932,LearnStrategy,2023.2.3,Win32,165.0165017,4,1,8,0.030555556,-0.013194444,1,0,0,0.768,rock_grid_rect_2,5,09,-1,-1,0.768,-0.378472222,-0.384027778,1,0,0,0.896,Obsidian_rect,5,0.896,1,7,0,7,0,1,,,,,,,,,,,,,
666dd3dac790ac5fb9c88d96,TCR,2024-06-21_10h47.39.932,LearnStrategy,2023.2.3,Win32,165.0165017,4,1,9,0.05625,-0.004861111,1,0,0,0.721,rock_grid_rect_2,4,01,-1,-1,0.721,0.104861111,-0.384722222,1,0,0,4.249,Peridotite_rect,7,4.249,0,8,0,8,0,1,,,,,,,,,,,,,
666dd3dac790ac5fb9c88d96,TCR,2024-06-21_10h47.39.932,LearnStrategy,2023.2.3,Win32,165.0165017,4,1,10,0.060416667,-0.017361111,1,0,0,0.648,rock_grid_rect_2,6,05,-1,-1,0.648,-0.358333333,-0.421527778,1,0,0,2.271,Obsidian_rect,5,2.271,0,9,0,9,0,1,,,,,,,,,,,,,
666dd3dac790ac5fb9c88d96,TCR,2024-06-21_10h47.39.932,LearnStrategy,2023.2.3,Win32,165.0165017,4,1,11,-0.00625,-0.019444444,1,0,0,0.436,rock_grid_rect_2,7,07,-1,-1,0.436,0.128472222,-0.419444444,1,0,0,2.072,Peridotite_rect,7,2.072,1,10,0,10,0,1,,,,,,,,,,,,,
666dd3dac790ac5fb9c88d96,TCR,2024-06-21_10h47.39.932,LearnStrategy,2023.2.3,Win32,165.0165017,4,1,12,0.025,0.009722222,1,0,0,0.375,rock_grid_rect_2,2,08,-1,-1,0.375,-0.127777778,-0.25,1,0,0,0.944,Basalt_rect,2,0.944,1,11,0,11,0,1,,,,,,,,,,,,,
666dd3dac790ac5fb9c88d96,TCR,2024-06-21_10h47.39.932,LearnStrategy,2023.2.3,Win32,165.0165017,4,1,13,0.007638889,-0.015277778,1,0,0,0.399,rock_grid_rect_2,2,16,-1,-1,0.399,0.438194444,-0.243055556,1,0,0,5.328,Gabbro_rect,4,5.328,0,12,0,12,0,1,,,,,,,,,,,,,
666dd3dac790ac5fb9c88d96,TCR,2024-06-21_10h47.39.932,LearnStrategy,2023.2.3,Win32,165.0165017,4,1,14,-0.036111111,-0.025,1,0,0,0.459,rock_grid_rect_2,1,14,-1,-1,0.459,0.081944444,-0.247222222,1,0,0,2.858,Diorite_rect,3,2.858,0,13,0,13,0,1,,,,,,,,,,,,,
666dd3dac790ac5fb9c88d96,TCR,2024-06-21_10h47.39.932,LearnStrategy,2023.2.3,Win32,165.0165017,4,1,15,0.005555556,-0.019444444,1,0,0,0.694,rock_grid_rect_2,6,08,-1,-1,0.694,-0.119444444,-0.416666667,1,0,0,1.878,Pegmatite_rect,6,1.878,1,14,0,14,0,1,,,,,,,,,,,,,
666dd3dac790ac5fb9c88d96,TCR,2024-06-21_10h47.39.932,LearnStrategy,2023.2.3,Win32,165.0165017,4,1,16,-0.014583333,0.010416667,1,0,0,0.708,rock_grid_rect_2,6,03,-1,-1,0.708,-0.165972222,-0.390972222,1,0,0,1.189,Pegmatite_rect,6,1.189,1,15,0,15,0,1,,,,,,,,,,,,,
666dd3dac790ac5fb9c88d96,TCR,2024-06-21_10h47.39.932,LearnStrategy,2023.2.3,Win32,165.0165017,4,2,1,,,,,,,,3,07,,,,,,,,,,,3,1.452,1,,,,,,0.125,-0.245833333,1,0,0,1.452,Diorite_rect,0,0,0,0,1,
666dd3dac790ac5fb9c88d96,TCR,2024-06-21_10h47.39.932,LearnStrategy,2023.2.3,Win32,165.0165017,4,2,2,,,,,,,,4,05,,,,,,,,,,,4,4.911,1,,,,,,0.384027778,-0.247222222,1,0,0,4.911,Gabbro_rect,1,0,1,0,1,
666dd3dac790ac5fb9c88d96,TCR,2024-06-21_10h47.39.932,LearnStrategy,2023.2.3,Win32,165.0165017,4,2,3,,,,,,,,6,13,,,,,,,,,,,6,2.899,1,,,,,,-0.119444444,-0.394444444,1,0,0,2.899,Pegmatite_rect,2,0,2,0,1,
666dd3dac790ac5fb9c88d96,TCR,2024-06-21_10h47.39.932,LearnStrategy,2023.2.3,Win32,165.0165017,4,2,4,,,,,,,,2,09,,,,,,,,,,,2,0.916,1,,,,,,-0.1125,-0.250694444,1,0,0,0.916,Basalt_rect,3,0,3,0,1,
666dd3dac790ac5fb9c88d96,TCR,2024-06-21_10h47.39.932,LearnStrategy,2023.2.3,Win32,165.0165017,4,2,5,,,,,,,,7,10,,,,,,,,,,,7,1.402,1,,,,,,0.109027778,-0.389583333,1,0,0,1.402,Peridotite_rect,4,0,4,0,1,
666dd3dac790ac5fb9c88d96,TCR,2024-06-21_10h47.39.932,LearnStrategy,2023.2.3,Win32,165.0165017,4,2,6,,,,,,,,1,05,,,,,,,,,,,4,4.169,0,,,,,,0.421527778,-0.233333333,1,0,0,4.169,Gabbro_rect,5,0,5,0,1,
666dd3dac790ac5fb9c88d96,TCR,2024-06-21_10h47.39.932,LearnStrategy,2023.2.3,Win32,165.0165017,4,2,7,,,,,,,,8,06,,,,,,,,,,,8,0.841,1,,,,,,0.381944444,-0.415972222,1,0,0,0.841,Pumice_rect,6,0,6,0,1,
666dd3dac790ac5fb9c88d96,TCR,2024-06-21_10h47.39.932,LearnStrategy,2023.2.3,Win32,165.0165017,4,2,8,,,,,,,,6,16,,,,,,,,,,,6,4.371,1,,,,,,-0.218055556,-0.415277778,1,0,0,4.371,Pegmatite_rect,7,0,7,0,1,
666dd3dac790ac5fb9c88d96,TCR,2024-06-21_10h47.39.932,LearnStrategy,2023.2.3,Win32,165.0165017,4,2,9,,,,,,,,7,08,,,,,,,,,,,7,1.201,1,,,,,,0.082638889,-0.411805556,1,0,0,1.201,Peridotite_rect,8,0,8,0,1,
666dd3dac790ac5fb9c88d96,TCR,2024-06-21_10h47.39.932,LearnStrategy,2023.2.3,Win32,165.0165017,4,2,10,,,,,,,,2,12,,,,,,,,,,,2,3.676,1,,,,,,-0.096527778,-0.265277778,1,0,0,3.676,Basalt_rect,9,0,9,0,1,
666dd3dac790ac5fb9c88d96,TCR,2024-06-21_10h47.39.932,LearnStrategy,2023.2.3,Win32,165.0165017,4,2,11,,,,,,,,4,11,,,,,,,,,,,4,2.816,1,,,,,,0.411111111,-0.260416667,1,0,0,2.816,Gabbro_rect,10,0,10,0,1,
666dd3dac790ac5fb9c88d96,TCR,2024-06-21_10h47.39.932,LearnStrategy,2023.2.3,Win32,165.0165017,4,2,12,,,,,,,,5,04,,,,,,,,,,,5,0.937,1,,,,,,-0.379166667,-0.402083333,1,0,0,0.937,Obsidian_rect,11,0,11,0,1,
666dd3dac790ac5fb9c88d96,TCR,2024-06-21_10h47.39.932,LearnStrategy,2023.2.3,Win32,165.0165017,4,2,13,,,,,,,,5,02,,,,,,,,,,,5,1.152,1,,,,,,-0.406944444,-0.4125,1,0,0,1.152,Obsidian_rect,12,0,12,0,1,
666dd3dac790ac5fb9c88d96,TCR,2024-06-21_10h47.39.932,LearnStrategy,2023.2.3,Win32,165.0165017,4,2,14,,,,,,,,8,15,,,,,,,,,,,8,1.266,1,,,,,,0.408333333,-0.394444444,1,0,0,1.266,Pumice_rect,13,0,13,0,1,
666dd3dac790ac5fb9c88d96,TCR,2024-06-21_10h47.39.932,LearnStrategy,2023.2.3,Win32,165.0165017,4,2,15,,,,,,,,1,06,,,,,,,,,,,1,2.336,1,,,,,,-0.384722222,-0.267361111,1,0,0,2.336,Andesite_rect,14,0,14,0,1,
666dd3dac790ac5fb9c88d96,TCR,2024-06-21_10h47.39.932,LearnStrategy,2023.2.3,Win32,165.0165017,4,2,16,,,,,,,,3,09,,,,,,,,,,,3,7.522,1,,,,,,0.105555556,-0.248611111,1,0,0,7.522,Diorite_rect,15,0,15,0,1,
666dd3dac790ac5fb9c88d96,TCR,2024-06-21_10h47.39.932,LearnStrategy,2023.2.3,Win32,165.0165017,5,1,1,0.017361111,-0.005555556,1,0,0,1.103,rock_grid_rect_2,2,02,-1,-1,1.103,-0.083333333,-0.239583333,1,0,0,2.181,Basalt_rect,2,2.181,1,0,0,0,0,1,,,,,,,,,,,,,
666dd3dac790ac5fb9c88d96,TCR,2024-06-21_10h47.39.932,LearnStrategy,2023.2.3,Win32,165.0165017,5,1,2,0.075,0.015277778,1,0,0,0.466,rock_grid_rect_2,6,05,-1,-1,0.466,-0.157638889,-0.405555556,1,0,0,2.098,Pegmatite_rect,6,2.098,1,1,0,1,0,1,,,,,,,,,,,,,
666dd3dac790ac5fb9c88d96,TCR,2024-06-21_10h47.39.932,LearnStrategy,2023.2.3,Win32,165.0165017,5,1,3,0.036111111,0.00625,1,0,0,0.701,rock_grid_rect_2,2,16,-1,-1,0.701,-0.100694444,-0.252083333,1,0,0,1.622,Basalt_rect,2,1.622,1,2,0,2,0,1,,,,,,,,,,,,,
666dd3dac790ac5fb9c88d96,TCR,2024-06-21_10h47.39.932,LearnStrategy,2023.2.3,Win32,165.0165017,5,1,4,0.002083333,0.001388889,1,0,0,0.398,rock_grid_rect_2,1,03,-1,-1,0.398,-0.353472222,-0.252777778,1,0,0,4.431,Andesite_rect,1,4.431,1,3,0,3,0,1,,,,,,,,,,,,,
666dd3dac790ac5fb9c88d96,TCR,2024-06-21_10h47.39.932,LearnStrategy,2023.2.3,Win32,165.0165017,5,1,5,-0.006944444,-0.008333333,1,0,0,0.671,rock_grid_rect_2,7,05,-1,-1,0.671,0.060416667,-0.391666667,1,0,0,1.62,Peridotite_rect,7,1.62,1,4,0,4,0,1,,,,,,,,,,,,,
666dd3dac790ac5fb9c88d96,TCR,2024-06-21_10h47.39.932,LearnStrategy,2023.2.3,Win32,165.0165017,5,1,6,0.038194444,0.002777778,1,0,0,0.423,rock_grid_rect_2,4,09,-1,-1,0.423,0.370833333,-0.263888889,1,0,0,5.871,Gabbro_rect,4,5.871,1,5,0,5,0,1,,,,,,,,,,,,,
666dd3dac790ac5fb9c88d96,TCR,2024-06-21_10h47.39.932,LearnStrategy,2023.2.3,Win32,165.0165017,5,1,7,0.073611111,-0.004861111,1,0,0,0.418,rock_grid_rect_2,1,02,-1,-1,0.418,-0.125694444,-0.4125,1,0,0,2.935,Pegmatite_rect,6,2.935,0,6,0,6,0,1,,,,,,,,,,,,,
666dd3dac790ac5fb9c88d96,TCR,2024-06-21_10h47.39.932,LearnStrategy,2023.2.3,Win32,165.0165017,5,1,8,0.057638889,-0.01875,1,0,0,0.648,rock_grid_rect_2,5,10,-1,-1,0.648,-0.348611111,-0.386805556,1,0,0,1.044,Obsidian_rect,5,1.044,1,7,0,7,0,1,,,,,,,,,,,,,
666dd3dac790ac5fb9c88d96,TCR,2024-06-21_10h47.39.932,LearnStrategy,2023.2.3,Win32,165.0165017,5,1,9,0.0125,-0.021527778,1,0,0,0.43,rock_grid_rect_2,6,15,-1,-1,0.43,-0.165277778,-0.409027778,1,0,0,1.065,Pegmatite_rect,6,1.065,1,8,0,8,0,1,,,,,,,,,,,,,
666dd3dac790ac5fb9c88d96,TCR,2024-06-21_10h47.39.932,LearnStrategy,2023.2.3,Win32,165.0165017,5,1,10,0.016666667,-0.014583333,1,0,0,0.381,rock_grid_rect_2,3,14,-1,-1,0.381,0.059027778,-0.244444444,1,0,0,1.281,Diorite_rect,3,1.281,1,9,0,9,0,1,,,,,,,,,,,,,
666dd3dac790ac5fb9c88d96,TCR,2024-06-21_10h47.39.932,LearnStrategy,2023.2.3,Win32,165.0165017,5,1,11,0.013194444,0.002777778,1,0,0,0.354,rock_grid_rect_2,3,02,-1,-1,0.354,0.083333333,-0.24375,1,0,0,3.504,Diorite_rect,3,3.504,1,10,0,10,0,1,,,,,,,,,,,,,
666dd3dac790ac5fb9c88d96,TCR,2024-06-21_10h47.39.932,LearnStrategy,2023.2.3,Win32,165.0165017,5,1,12,0.023611111,-0.022222222,1,0,0,0.374,rock_grid_rect_2,8,09,-1,-1,0.374,0.370833333,-0.381944444,1,0,0,1.195,Pumice_rect,8,1.195,1,11,0,11,0,1,,,,,,,,,,,,,
666dd3dac790ac5fb9c88d96,TCR,2024-06-21_10h47.39.932,LearnStrategy,2023.2.3,Win32,165.0165017,5,1,13,0.018055556,0.002777778,1,0,0,0.654,rock_grid_rect_2,6,05,-1,-1,0.654,-0.159722222,-0.400694444,1,0,0,1.224,Pegmatite_rect,6,1.224,1,12,0,12,0,1,,,,,,,,,,,,,
666dd3dac790ac5fb9c88d96,TCR,2024-06-21_10h47.39.932,LearnStrategy,2023.2.3,Win32,165.0165017,5,1,14,0.011111111,-0.011111111,1,0,0,0.43,rock_grid_rect_2,1,14,-1,-1,0.43,-0.361805556,-0.256944444,1,0,0,3.25,Andesite_rect,1,3.25,1,13,0,13,0,1,,,,,,,,,,,,,
666dd3dac790ac5fb9c88d96,TCR,2024-06-21_10h47.39.932,LearnStrategy,2023.2.3,Win32,165.0165017,5,1,15,0.015277778,-0.022916667,1,0,0,0.357,rock_grid_rect_2,7,16,-1,-1,0.357,0.08125,-0.404166667,1,0,0,3.411,Peridotite_rect,7,3.411,1,14,0,14,0,1,,,,,,,,,,,,,
666dd3dac790ac5fb9c88d96,TCR,2024-06-21_10h47.39.932,LearnStrategy,2023.2.3,Win32,165.0165017,5,1,16,0.052777778,-0.015277778,1,0,0,0.678,rock_grid_rect_2,7,07,-1,-1,0.678,0.10625,-0.385416667,1,0,0,0.937,Peridotite_rect,7,0.937,1,15,0,15,0,1,,,,,,,,,,,,,
666dd3dac790ac5fb9c88d96,TCR,2024-06-21_10h47.39.932,LearnStrategy,2023.2.3,Win32,165.0165017,5,2,1,,,,,,,,7,12,,,,,,,,,,,7,1.036,1,,,,,,0.147916667,-0.400694444,1,0,0,1.036,Peridotite_rect,0,0,0,0,1,
666dd3dac790ac5fb9c88d96,TCR,2024-06-21_10h47.39.932,LearnStrategy,2023.2.3,Win32,165.0165017,5,2,2,,,,,,,,5,06,,,,,,,,,,,5,0.976,1,,,,,,-0.325,-0.405555556,1,0,0,0.976,Obsidian_rect,1,0,1,0,1,
666dd3dac790ac5fb9c88d96,TCR,2024-06-21_10h47.39.932,LearnStrategy,2023.2.3,Win32,165.0165017,5,2,3,,,,,,,,8,02,,,,,,,,,,,8,0.827,1,,,,,,0.43125,-0.386805556,1,0,0,0.827,Pumice_rect,2,0,2,0,1,
666dd3dac790ac5fb9c88d96,TCR,2024-06-21_10h47.39.932,LearnStrategy,2023.2.3,Win32,165.0165017,5,2,4,,,,,,,,8,16,,,,,,,,,,,8,1.771,1,,,,,,0.377083333,-0.393055556,1,0,0,1.771,Pumice_rect,3,0,3,0,1,
666dd3dac790ac5fb9c88d96,TCR,2024-06-21_10h47.39.932,LearnStrategy,2023.2.3,Win32,165.0165017,5,2,5,,,,,,,,2,11,,,,,,,,,,,4,6.415,0,,,,,,0.380555556,-0.229166667,1,0,0,6.415,Gabbro_rect,4,0,4,0,1,
666dd3dac790ac5fb9c88d96,TCR,2024-06-21_10h47.39.932,LearnStrategy,2023.2.3,Win32,165.0165017,5,2,6,,,,,,,,1,16,,,,,,,,,,,4,5.983,0,,,,,,0.363888889,-0.251388889,1,0,0,5.983,Gabbro_rect,5,0,5,0,1,
666dd3dac790ac5fb9c88d96,TCR,2024-06-21_10h47.39.932,LearnStrategy,2023.2.3,Win32,165.0165017,5,2,7,,,,,,,,7,04,,,,,,,,,,,6,1.883,0,,,,,,-0.120138889,-0.394444444,1,0,0,1.883,Pegmatite_rect,6,0,6,0,1,
666dd3dac790ac5fb9c88d96,TCR,2024-06-21_10h47.39.932,LearnStrategy,2023.2.3,Win32,165.0165017,5,2,8,,,,,,,,3,10,,,,,,,,,,,3,5.32,1,,,,,,0.106944444,-0.24375,1,0,0,5.32,Diorite_rect,7,0,7,0,1,
666dd3dac790ac5fb9c88d96,TCR,2024-06-21_10h47.39.932,LearnStrategy,2023.2.3,Win32,165.0165017,5,2,9,,,,,,,,6,09,,,,,,,,,,,6,1.485,1,,,,,,-0.105555556,-0.404861111,1,0,0,1.485,Pegmatite_rect,8,0,8,0,1,
666dd3dac790ac5fb9c88d96,TCR,2024-06-21_10h47.39.932,LearnStrategy,2023.2.3,Win32,165.0165017,5,2,10,,,,,,,,2,01,,,,,,,,,,,2,0.893,1,,,,,,-0.11875,-0.260416667,1,0,0,0.893,Basalt_rect,9,0,9,0,1,
666dd3dac790ac5fb9c88d96,TCR,2024-06-21_10h47.39.932,LearnStrategy,2023.2.3,Win32,165.0165017,5,2,11,,,,,,,,1,09,,,,,,,,,,,4,5.635,0,,,,,,0.360416667,-0.236111111,1,0,0,5.635,Gabbro_rect,10,0,10,0,1,
666dd3dac790ac5fb9c88d96,TCR,2024-06-21_10h47.39.932,LearnStrategy,2023.2.3,Win32,165.0165017,5,2,12,,,,,,,,3,16,,,,,,,,,,,3,5.486,1,,,,,,0.136111111,-0.254861111,1,0,0,5.486,Diorite_rect,11,0,11,0,1,
666dd3dac790ac5fb9c88d96,TCR,2024-06-21_10h47.39.932,LearnStrategy,2023.2.3,Win32,165.0165017,5,2,13,,,,,,,,6,06,,,,,,,,,,,3,3.401,0,,,,,,0.078472222,-0.253472222,1,0,0,3.401,Diorite_rect,12,0,12,0,1,
666dd3dac790ac5fb9c88d96,TCR,2024-06-21_10h47.39.932,LearnStrategy,2023.2.3,Win32,165.0165017,5,2,14,,,,,,,,4,03,,,,,,,,,,,1,4.024,0,,,,,,-0.348611111,-0.246527778,1,0,0,4.024,Andesite_rect,13,0,13,0,1,
666dd3dac790ac5fb9c88d96,TCR,2024-06-21_10h47.39.932,LearnStrategy,2023.2.3,Win32,165.0165017,5,2,15,,,,,,,,4,08,,,,,,,,,,,4,2.2,1,,,,,,0.338194444,-0.240277778,1,0,0,2.2,Gabbro_rect,14,0,14,0,1,
666dd3dac790ac5fb9c88d96,TCR,2024-06-21_10h47.39.932,LearnStrategy,2023.2.3,Win32,165.0165017,5,2,16,,,,,,,,5,16,,,,,,,,,,,5,0.968,1,,,,,,-0.402083333,-0.384722222,1,0,0,0.968,Obsidian_rect,15,0,15,0,1,
666dd3dac790ac5fb9c88d96,TCR,2024-06-21_10h47.39.932,LearnStrategy,2023.2.3,Win32,165.0165017,6,1,1,0.054861111,0.00625,1,0,0,0.564,rock_grid_rect_2,5,07,-1,-1,0.564,-0.408333333,-0.397222222,1,0,0,1.022,Obsidian_rect,5,1.022,1,0,0,0,0,1,,,,,,,,,,,,,
666dd3dac790ac5fb9c88d96,TCR,2024-06-21_10h47.39.932,LearnStrategy,2023.2.3,Win32,165.0165017,6,1,2,0.056944444,-0.002777778,1,0,0,0.733,rock_grid_rect_2,1,10,-1,-1,0.733,-0.388888889,-0.240972222,1,0,0,5.2,Andesite_rect,1,5.2,1,1,0,1,0,1,,,,,,,,,,,,,
666dd3dac790ac5fb9c88d96,TCR,2024-06-21_10h47.39.932,LearnStrategy,2023.2.3,Win32,165.0165017,6,1,3,0.049305556,-0.017361111,1,0,0,0.418,rock_grid_rect_2,4,10,-1,-1,0.418,0.421527778,-0.25625,1,0,0,1.828,Gabbro_rect,4,1.828,1,2,0,2,0,1,,,,,,,,,,,,,
666dd3dac790ac5fb9c88d96,TCR,2024-06-21_10h47.39.932,LearnStrategy,2023.2.3,Win32,165.0165017,6,1,4,0.074305556,-0.016666667,1,0,0,0.447,rock_grid_rect_2,1,14,-1,-1,0.447,-0.132638889,-0.4125,1,0,0,1.471,Pegmatite_rect,6,1.471,0,3,0,3,0,1,,,,,,,,,,,,,
666dd3dac790ac5fb9c88d96,TCR,2024-06-21_10h47.39.932,LearnStrategy,2023.2.3,Win32,165.0165017,6,1,5,0.036805556,-0.004166667,1,0,0,0.616,rock_grid_rect_2,2,02,-1,-1,0.616,-0.071527778,-0.229861111,1,0,0,1.227,Basalt_rect,2,1.227,1,4,0,4,0,1,,,,,,,,,,,,,
666dd3dac790ac5fb9c88d96,TCR,2024-06-21_10h47.39.932,LearnStrategy,2023.2.3,Win32,165.0165017,6,1,6,0.022916667,-0.010416667,1,0,0,0.44,rock_grid_rect_2,6,05,-1,-1,0.44,-0.108333333,-0.404166667,1,0,0,1.277,Pegmatite_rect,6,1.277,1,5,0,5,0,1,,,,,,,,,,,,,
666dd3dac790ac5fb9c88d96,TCR,2024-06-21_10h47.39.932,LearnStrategy,2023.2.3,Win32,165.0165017,6,1,7,0.033333333,0.004166667,1,0,0,0.739,rock_grid_rect_2,6,08,-1,-1,0.739,-0.140277778,-0.418055556,1,0,0,7.963,Pegmatite_rect,6,7.963,1,6,0,6,0,1,,,,,,,,,,,,,
666dd3dac790ac5fb9c88d96,TCR,2024-06-21_10h47.39.932,LearnStrategy,2023.2.3,Win32,165.0165017,6,1,8,-0.072222222,-0.015277778,1,0,0,1.218,rock_grid_rect_2,3,06,-1,-1,1.218,0.104166667,-0.249305556,1,0,0,2.048,Diorite_rect,3,2.048,1,7,0,7,0,1,,,,,,,,,,,,,
666dd3dac790ac5fb9c88d96,TCR,2024-06-21_10h47.39.932,LearnStrategy,2023.2.3,Win32,165.0165017,6,1,9,0.028472222,-0.00625,1,0,0,0.339,rock_grid_rect_2,1,01,-1,-1,0.339,0.420138889,-0.239583333,1,0,0,2.777,Gabbro_rect,4,2.777,0,8,0,8,0,1,,,,,,,,,,,,,
666dd3dac790ac5fb9c88d96,TCR,2024-06-21_10h47.39.932,LearnStrategy,2023.2.3,Win32,165.0165017,6,1,10,-0.00625,-0.019444444,1,0,0,0.393,rock_grid_rect_2,4,09,-1,-1,0.393,0.426388889,-0.260416667,1,0,0,1.164,Gabbro_rect,4,1.164,1,9,0,9,0,1,,,,,,,,,,,,,
666dd3dac790ac5fb9c88d96,TCR,2024-06-21_10h47.39.932,LearnStrategy,2023.2.3,Win32,165.0165017,6,1,11,0.00625,-0.022916667,1,0,0,0.295,rock_grid_rect_2,2,06,-1,-1,0.295,-0.115972222,-0.252777778,1,0,0,2.165,Basalt_rect,2,2.165,1,10,0,10,0,1,,,,,,,,,,,,,
666dd3dac790ac5fb9c88d96,TCR,2024-06-21_10h47.39.932,LearnStrategy,2023.2.3,Win32,165.0165017,6,1,12,0.002083333,-0.01875,1,0,0,0.339,rock_grid_rect_2,1,02,-1,-1,0.339,-0.375,-0.236805556,1,0,0,8.927,Andesite_rect,1,8.927,1,11,0,11,0,1,,,,,,,,,,,,,
666dd3dac790ac5fb9c88d96,TCR,2024-06-21_10h47.39.932,LearnStrategy,2023.2.3,Win32,165.0165017,6,1,13,0.063888889,-0.024305556,1,0,0,0.375,rock_grid_rect_2,8,08,-1,-1,0.375,0.443055556,-0.407638889,1,0,0,1.182,Pumice_rect,8,1.182,1,12,0,12,0,1,,,,,,,,,,,,,
666dd3dac790ac5fb9c88d96,TCR,2024-06-21_10h47.39.932,LearnStrategy,2023.2.3,Win32,165.0165017,6,1,14,0.059722222,0.008333333,1,0,0,0.441,rock_grid_rect_2,7,06,-1,-1,0.441,0.052083333,-0.419444444,1,0,0,5.304,Peridotite_rect,7,5.304,1,13,0,13,0,1,,,,,,,,,,,,,
666dd3dac790ac5fb9c88d96,TCR,2024-06-21_10h47.39.932,LearnStrategy,2023.2.3,Win32,165.0165017,6,1,15,0.071527778,-0.009722222,1,0,0,0.677,rock_grid_rect_2,7,07,-1,-1,0.677,0.109027778,-0.415972222,1,0,0,0.847,Peridotite_rect,7,0.847,1,14,0,14,0,1,,,,,,,,,,,,,
666dd3dac790ac5fb9c88d96,TCR,2024-06-21_10h47.39.932,LearnStrategy,2023.2.3,Win32,165.0165017,6,1,16,0.069444444,-0.013194444,1,0,0,0.43,rock_grid_rect_2,6,10,-1,-1,0.43,-0.059027778,-0.411111111,1,0,0,1.689,Pegmatite_rect,6,1.689,1,15,0,15,0,1,,,,,,,,,,,,,
666dd3dac790ac5fb9c88d96,TCR,2024-06-21_10h47.39.932,LearnStrategy,2023.2.3,Win32,165.0165017,6,2,1,,,,,,,,3,12,,,,,,,,,,,3,2.235,1,,,,,,0.054861111,-0.251388889,1,0,0,2.235,Diorite_rect,0,0,0,0,1,
666dd3dac790ac5fb9c88d96,TCR,2024-06-21_10h47.39.932,LearnStrategy,2023.2.3,Win32,165.0165017,6,2,2,,,,,,,,5,11,,,,,,,,,,,5,0.9,1,,,,,,-0.417361111,-0.388194444,1,0,0,0.9,Obsidian_rect,1,0,1,0,1,
666dd3dac790ac5fb9c88d96,TCR,2024-06-21_10h47.39.932,LearnStrategy,2023.2.3,Win32,165.0165017,6,2,3,,,,,,,,5,14,,,,,,,,,,,5,12.619,1,,,,,,-0.380555556,-0.40625,1,0,0,12.619,Obsidian_rect,2,0,2,0,1,
666dd3dac790ac5fb9c88d96,TCR,2024-06-21_10h47.39.932,LearnStrategy,2023.2.3,Win32,165.0165017,6,2,4,,,,,,,,2,05,,,,,,,,,,,2,1.016,1,,,,,,-0.1625,-0.25,1,0,0,1.016,Basalt_rect,3,0,3,0,1,
666dd3dac790ac5fb9c88d96,TCR,2024-06-21_10h47.39.932,LearnStrategy,2023.2.3,Win32,165.0165017,6,2,5,,,,,,,,1,04,,,,,,,,,,,1,2.042,1,,,,,,-0.364583333,-0.252777778,1,0,0,2.042,Andesite_rect,4,0,4,0,1,
666dd3dac790ac5fb9c88d96,TCR,2024-06-21_10h47.39.932,LearnStrategy,2023.2.3,Win32,165.0165017,6,2,6,,,,,,,,2,14,,,,,,,,,,,1,10.752,0,,,,,,-0.375694444,-0.235416667,1,0,0,10.752,Andesite_rect,5,0,5,0,1,
666dd3dac790ac5fb9c88d96,TCR,2024-06-21_10h47.39.932,LearnStrategy,2023.2.3,Win32,165.0165017,6,2,7,,,,,,,,4,16,,,,,,,,,,,1,2.292,0,,,,,,-0.350694444,-0.235416667,1,0,0,2.292,Andesite_rect,6,0,6,0,1,
666dd3dac790ac5fb9c88d96,TCR,2024-06-21_10h47.39.932,LearnStrategy,2023.2.3,Win32,165.0165017,6,2,8,,,,,,,,6,11,,,,,,,,,,,6,1.565,1,,,,,,-0.157638889,-0.416666667,1,0,0,1.565,Pegmatite_rect,7,0,7,0,1,
666dd3dac790ac5fb9c88d96,TCR,2024-06-21_10h47.39.932,LearnStrategy,2023.2.3,Win32,165.0165017,6,2,9,,,,,,,,7,14,,,,,,,,,,,7,1.041,1,,,,,,0.105555556,-0.401388889,1,0,0,1.041,Peridotite_rect,8,0,8,0,1,
666dd3dac790ac5fb9c88d96,TCR,2024-06-21_10h47.39.932,LearnStrategy,2023.2.3,Win32,165.0165017,6,2,10,,,,,,,,1,07,,,,,,,,,,,1,1.921,1,,,,,,-0.39375,-0.247916667,1,0,0,1.921,Andesite_rect,9,0,9,0,1,
666dd3dac790ac5fb9c88d96,TCR,2024-06-21_10h47.39.932,LearnStrategy,2023.2.3,Win32,165.0165017,6,2,11,,,,,,,,3,13,,,,,,,,,,,3,2.312,1,,,,,,0.067361111,-0.25,1,0,0,2.312,Diorite_rect,10,0,10,0,1,
666dd3dac790ac5fb9c88d96,TCR,2024-06-21_10h47.39.932,LearnStrategy,2023.2.3,Win32,165.0165017,6,2,12,,,,,,,,6,12,,,,,,,,,,,3,2.057,0,,,,,,0.059027778,-0.260416667,1,0,0,2.057,Diorite_rect,11,0,11,0,1,
666dd3dac790ac5fb9c88d96,TCR,2024-06-21_10h47.39.932,LearnStrategy,2023.2.3,Win32,165.0165017,6,2,13,,,,,,,,4,15,,,,,,,,,,,1,2.751,0,,,,,,-0.385416667,-0.249305556,1,0,0,2.751,Andesite_rect,12,0,12,0,1,
666dd3dac790ac5fb9c88d96,TCR,2024-06-21_10h47.39.932,LearnStrategy,2023.2.3,Win32,165.0165017,6,2,14,,,,,,,,8,13,,,,,,,,,,,8,0.983,1,,,,,,0.383333333,-0.396527778,1,0,0,0.983,Pumice_rect,13,0,13,0,1,
666dd3dac790ac5fb9c88d96,TCR,2024-06-21_10h47.39.932,LearnStrategy,2023.2.3,Win32,165.0165017,6,2,15,,,,,,,,8,04,,,,,,,,,,,8,0.749,1,,,,,,0.372222222,-0.399305556,1,0,0,0.749,Pumice_rect,14,0,14,0,1,
666dd3dac790ac5fb9c88d96,TCR,2024-06-21_10h47.39.932,LearnStrategy,2023.2.3,Win32,165.0165017,6,2,16,,,,,,,,7,15,,,,,,,,,,,7,2.909,1,,,,,,0.092361111,-0.39375,1,0,0,2.909,Peridotite_rect,15,0,15,0,1,
666dd3dac790ac5fb9c88d96,TCR,2024-06-21_10h47.39.932,LearnStrategy,2023.2.3,Win32,165.0165017,7,1,1,0.042361111,0.020833333,1,0,0,0.835,rock_grid_rect_2,3,08,-1,-1,0.835,0.119444444,-0.236111111,1,0,0,1.211,Diorite_rect,3,1.211,1,0,0,0,0,1,,,,,,,,,,,,,
666dd3dac790ac5fb9c88d96,TCR,2024-06-21_10h47.39.932,LearnStrategy,2023.2.3,Win32,165.0165017,7,1,2,0.111805556,-0.001388889,1,0,0,0.703,rock_grid_rect_2,2,16,-1,-1,0.703,-0.127083333,-0.247916667,1,0,0,1.056,Basalt_rect,2,1.056,1,1,0,1,0,1,,,,,,,,,,,,,
666dd3dac790ac5fb9c88d96,TCR,2024-06-21_10h47.39.932,LearnStrategy,2023.2.3,Win32,165.0165017,7,1,3,0.036805556,-0.00625,1,0,0,0.654,rock_grid_rect_2,6,15,-1,-1,0.654,-0.133333333,-0.394444444,1,0,0,1.221,Pegmatite_rect,6,1.221,1,2,0,2,0,1,,,,,,,,,,,,,
666dd3dac790ac5fb9c88d96,TCR,2024-06-21_10h47.39.932,LearnStrategy,2023.2.3,Win32,165.0165017,7,1,4,0.002777778,-0.002083333,1,0,0,0.447,rock_grid_rect_2,4,10,-1,-1,0.447,0.347222222,-0.2375,1,0,0,2.898,Gabbro_rect,4,2.898,1,3,0,3,0,1,,,,,,,,,,,,,
666dd3dac790ac5fb9c88d96,TCR,2024-06-21_10h47.39.932,LearnStrategy,2023.2.3,Win32,165.0165017,7,1,5,0.058333333,0.000694444,1,0,0,0.57,rock_grid_rect_2,6,05,-1,-1,0.57,-0.130555556,-0.402777778,1,0,0,2.292,Pegmatite_rect,6,2.292,1,4,0,4,0,1,,,,,,,,,,,,,
666dd3dac790ac5fb9c88d96,TCR,2024-06-21_10h47.39.932,LearnStrategy,2023.2.3,Win32,165.0165017,7,1,6,0.027083333,-0.023611111,1,0,0,0.514,rock_grid_rect_2,4,12,-1,-1,0.514,-0.339583333,-0.252083333,1,0,0,2.362,Andesite_rect,1,2.362,0,5,0,5,0,1,,,,,,,,,,,,,
666dd3dac790ac5fb9c88d96,TCR,2024-06-21_10h47.39.932,LearnStrategy,2023.2.3,Win32,165.0165017,7,1,7,0.038194444,-0.022222222,1,0,0,0.697,rock_grid_rect_2,8,14,-1,-1,0.697,0.357638889,-0.40625,1,0,0,1.397,Pumice_rect,8,1.397,1,6,0,6,0,1,,,,,,,,,,,,,
666dd3dac790ac5fb9c88d96,TCR,2024-06-21_10h47.39.932,LearnStrategy,2023.2.3,Win32,165.0165017,7,1,8,0.163888889,-0.013194444,1,0,0,0.467,rock_grid_rect_2,4,09,-1,-1,0.467,0.334722222,-0.240972222,1,0,0,1.396,Gabbro_rect,4,1.396,1,7,0,7,0,1,,,,,,,,,,,,,
666dd3dac790ac5fb9c88d96,TCR,2024-06-21_10h47.39.932,LearnStrategy,2023.2.3,Win32,165.0165017,7,1,9,0.035416667,-0.023611111,1,0,0,0.332,rock_grid_rect_2,1,02,-1,-1,0.332,-0.317361111,-0.252777778,1,0,0,1.522,Andesite_rect,1,1.522,1,8,0,8,0,1,,,,,,,,,,,,,
666dd3dac790ac5fb9c88d96,TCR,2024-06-21_10h47.39.932,LearnStrategy,2023.2.3,Win32,165.0165017,7,1,10,0.040972222,-0.020833333,1,0,0,0.399,rock_grid_rect_2,1,03,-1,-1,0.399,-0.140972222,-0.266666667,1,0,0,2.717,Basalt_rect,2,2.717,0,9,0,9,0,1,,,,,,,,,,,,,
666dd3dac790ac5fb9c88d96,TCR,2024-06-21_10h47.39.932,LearnStrategy,2023.2.3,Win32,165.0165017,7,1,11,0.0125,-0.008333333,1,0,0,0.405,rock_grid_rect_2,2,16,-1,-1,0.405,-0.129861111,-0.258333333,1,0,0,1.78,Basalt_rect,2,1.78,1,10,0,10,0,1,,,,,,,,,,,,,
666dd3dac790ac5fb9c88d96,TCR,2024-06-21_10h47.39.932,LearnStrategy,2023.2.3,Win32,165.0165017,7,1,12,-0.003472222,-0.011111111,1,0,0,0.685,rock_grid_rect_2,7,16,-1,-1,0.685,0.082638889,-0.392361111,1,0,0,2.582,Peridotite_rect,7,2.582,1,11,0,11,0,1,,,,,,,,,,,,,
666dd3dac790ac5fb9c88d96,TCR,2024-06-21_10h47.39.932,LearnStrategy,2023.2.3,Win32,165.0165017,7,1,13,0.068055556,-0.000694444,1,0,0,0.561,rock_grid_rect_2,7,05,-1,-1,0.561,0.0875,-0.406944444,1,0,0,0.978,Peridotite_rect,7,0.978,1,12,0,12,0,1,,,,,,,,,,,,,
666dd3dac790ac5fb9c88d96,TCR,2024-06-21_10h47.39.932,LearnStrategy,2023.2.3,Win32,165.0165017,7,1,14,0.072916667,-0.021527778,1,0,0,0.442,rock_grid_rect_2,1,14,-1,-1,0.442,0.080555556,-0.241666667,1,0,0,1.481,Diorite_rect,3,1.481,0,13,0,13,0,1,,,,,,,,,,,,,
666dd3dac790ac5fb9c88d96,TCR,2024-06-21_10h47.39.932,LearnStrategy,2023.2.3,Win32,165.0165017,7,1,15,0.015277778,-0.020833333,1,0,0,0.382,rock_grid_rect_2,4,01,-1,-1,0.382,0.294444444,-0.2375,1,0,0,1.772,Gabbro_rect,4,1.772,1,14,0,14,0,1,,,,,,,,,,,,,
666dd3dac790ac5fb9c88d96,TCR,2024-06-21_10h47.39.932,LearnStrategy,2023.2.3,Win32,165.0165017,7,1,16,0.029166667,-0.025,1,0,0,0.569,rock_grid_rect_2,6,08,-1,-1,0.569,-0.173611111,-0.415972222,1,0,0,0.933,Pegmatite_rect,6,0.933,1,15,0,15,0,1,,,,,,,,,,,,,
666dd3dac790ac5fb9c88d96,TCR,2024-06-21_10h47.39.932,LearnStrategy,2023.2.3,Win32,165.0165017,7,2,1,,,,,,,,7,15,,,,,,,,,,,7,1.011,1,,,,,,0.13125,-0.414583333,1,0,0,1.011,Peridotite_rect,0,0,0,0,1,
666dd3dac790ac5fb9c88d96,TCR,2024-06-21_10h47.39.932,LearnStrategy,2023.2.3,Win32,165.0165017,7,2,2,,,,,,,,4,03,,,,,,,,,,,4,5.825,1,,,,,,0.439583333,-0.260416667,1,0,0,5.825,Gabbro_rect,1,0,1,0,1,
666dd3dac790ac5fb9c88d96,TCR,2024-06-21_10h47.39.932,LearnStrategy,2023.2.3,Win32,165.0165017,7,2,3,,,,,,,,5,16,,,,,,,,,,,5,0.942,1,,,,,,-0.433333333,-0.415277778,1,0,0,0.942,Obsidian_rect,2,0,2,0,1,
666dd3dac790ac5fb9c88d96,TCR,2024-06-21_10h47.39.932,LearnStrategy,2023.2.3,Win32,165.0165017,7,2,4,,,,,,,,5,04,,,,,,,,,,,5,0.843,1,,,,,,-0.441666667,-0.410416667,1,0,0,0.843,Obsidian_rect,3,0,3,0,1,
666dd3dac790ac5fb9c88d96,TCR,2024-06-21_10h47.39.932,LearnStrategy,2023.2.3,Win32,165.0165017,7,2,5,,,,,,,,1,09,,,,,,,,,,,1,3.818,1,,,,,,-0.488888889,-0.241666667,1,0,0,3.818,Andesite_rect,4,0,4,0,1,
666dd3dac790ac5fb9c88d96,TCR,2024-06-21_10h47.39.932,LearnStrategy,2023.2.3,Win32,165.0165017,7,2,6,,,,,,,,4,08,,,,,,,,,,,4,1.152,1,,,,,,0.397222222,-0.251388889,1,0,0,1.152,Gabbro_rect,5,0,5,0,1,
666dd3dac790ac5fb9c88d96,TCR,2024-06-21_10h47.39.932,LearnStrategy,2023.2.3,Win32,165.0165017,7,2,7,,,,,,,,6,16,,,,,,,,,,,6,0.955,1,,,,,,-0.0875,-0.407638889,1,0,0,0.955,Pegmatite_rect,6,0,6,0,1,
666dd3dac790ac5fb9c88d96,TCR,2024-06-21_10h47.39.932,LearnStrategy,2023.2.3,Win32,165.0165017,7,2,8,,,,,,,,7,08,,,,,,,,,,,7,0.836,1,,,,,,0.124305556,-0.404861111,1,0,0,0.836,Peridotite_rect,7,0,7,0,1,
666dd3dac790ac5fb9c88d96,TCR,2024-06-21_10h47.39.932,LearnStrategy,2023.2.3,Win32,165.0165017,7,2,9,,,,,,,,8,02,,,,,,,,,,,8,1.149,1,,,,,,0.347916667,-0.39375,1,0,0,1.149,Pumice_rect,8,0,8,0,1,
666dd3dac790ac5fb9c88d96,TCR,2024-06-21_10h47.39.932,LearnStrategy,2023.2.3,Win32,165.0165017,7,2,10,,,,,,,,2,01,,,,,,,,,,,2,0.965,1,,,,,,-0.09375,-0.264583333,1,0,0,0.965,Basalt_rect,9,0,9,0,1,
666dd3dac790ac5fb9c88d96,TCR,2024-06-21_10h47.39.932,LearnStrategy,2023.2.3,Win32,165.0165017,7,2,11,,,,,,,,8,04,,,,,,,,,,,8,0.787,1,,,,,,0.383333333,-0.388888889,1,0,0,0.787,Pumice_rect,10,0,10,0,1,
666dd3dac790ac5fb9c88d96,TCR,2024-06-21_10h47.39.932,LearnStrategy,2023.2.3,Win32,165.0165017,7,2,12,,,,,,,,6,06,,,,,,,,,,,3,4.175,0,,,,,,0.104861111,-0.253472222,1,0,0,4.175,Diorite_rect,11,0,11,0,1,
666dd3dac790ac5fb9c88d96,TCR,2024-06-21_10h47.39.932,LearnStrategy,2023.2.3,Win32,165.0165017,7,2,13,,,,,,,,3,13,,,,,,,,,,,3,0.826,1,,,,,,0.086805556,-0.243055556,1,0,0,0.826,Diorite_rect,12,0,12,0,1,
666dd3dac790ac5fb9c88d96,TCR,2024-06-21_10h47.39.932,LearnStrategy,2023.2.3,Win32,165.0165017,7,2,14,,,,,,,,3,09,,,,,,,,,,,3,0.756,1,,,,,,0.086805556,-0.243055556,1,0,0,0.756,Diorite_rect,13,0,13,0,1,
666dd3dac790ac5fb9c88d96,TCR,2024-06-21_10h47.39.932,LearnStrategy,2023.2.3,Win32,165.0165017,7,2,15,,,,,,,,2,12,,,,,,,,,,,1,1.862,0,,,,,,-0.377083333,-0.25625,1,0,0,1.862,Andesite_rect,14,0,14,0,1,
666dd3dac790ac5fb9c88d96,TCR,2024-06-21_10h47.39.932,LearnStrategy,2023.2.3,Win32,165.0165017,7,2,16,,,,,,,,1,16,,,,,,,,,,,4,1.669,0,,,,,,0.336111111,-0.259027778,1,0,0,1.669,Gabbro_rect,15,0,15,0,1,
666dd3dac790ac5fb9c88d96,TCR,2024-06-21_10h47.39.932,LearnStrategy,2023.2.3,Win32,165.0165017,8,1,1,0.011805556,-0.020138889,1,0,0,0.551,rock_grid_rect_2,2,02,-1,-1,0.551,-0.091666667,-0.238194444,1,0,0,1.747,Basalt_rect,2,1.747,1,0,0,0,0,1,,,,,,,,,,,,,
666dd3dac790ac5fb9c88d96,TCR,2024-06-21_10h47.39.932,LearnStrategy,2023.2.3,Win32,165.0165017,8,1,2,-0.038194444,-0.019444444,1,0,0,0.466,rock_grid_rect_2,1,02,-1,-1,0.466,-0.384722222,-0.230555556,1,0,0,1.906,Andesite_rect,1,1.906,1,1,0,1,0,1,,,,,,,,,,,,,
666dd3dac790ac5fb9c88d96,TCR,2024-06-21_10h47.39.932,LearnStrategy,2023.2.3,Win32,165.0165017,8,1,3,-0.0125,-0.022222222,1,0,0,0.636,rock_grid_rect_2,6,10,-1,-1,0.636,-0.115972222,-0.385416667,1,0,0,0.908,Pegmatite_rect,6,0.908,1,2,0,2,0,1,,,,,,,,,,,,,
666dd3dac790ac5fb9c88d96,TCR,2024-06-21_10h47.39.932,LearnStrategy,2023.2.3,Win32,165.0165017,8,1,4,0.026388889,-0.000694444,1,0,0,0.393,rock_grid_rect_2,4,14,-1,-1,0.393,-0.380555556,-0.252777778,1,0,0,2.748,Andesite_rect,1,2.748,0,3,0,3,0,1,,,,,,,,,,,,,
666dd3dac790ac5fb9c88d96,TCR,2024-06-21_10h47.39.932,LearnStrategy,2023.2.3,Win32,165.0165017,8,1,5,0.045138889,0.002777778,1,0,0,0.604,rock_grid_rect_2,8,03,-1,-1,0.604,0.354166667,-0.379166667,1,0,0,1.043,Pumice_rect,8,1.043,1,4,0,4,0,1,,,,,,,,,,,,,
666dd3dac790ac5fb9c88d96,TCR,2024-06-21_10h47.39.932,LearnStrategy,2023.2.3,Win32,165.0165017,8,1,6,0.067361111,-0.011805556,1,0,0,0.647,rock_grid_rect_2,7,06,-1,-1,0.647,0.115972222,-0.409027778,1,0,0,0.964,Peridotite_rect,7,0.964,1,5,0,5,0,1,,,,,,,,,,,,,
666dd3dac790ac5fb9c88d96,TCR,2024-06-21_10h47.39.932,LearnStrategy,2023.2.3,Win32,165.0165017,8,1,7,0.048611111,0.014583333,1,0,0,0.424,rock_grid_rect_2,6,07,-1,-1,0.424,-0.088888889,-0.41875,1,0,0,0.956,Pegmatite_rect,6,0.956,1,6,0,6,0,1,,,,,,,,,,,,,
666dd3dac790ac5fb9c88d96,TCR,2024-06-21_10h47.39.932,LearnStrategy,2023.2.3,Win32,165.0165017,8,1,8,0.020833333,-0.022916667,1,0,0,0.429,rock_grid_rect_2,2,04,-1,-1,0.429,-0.106944444,-0.271527778,1,0,0,0.78,Basalt_rect,2,0.78,1,7,0,7,0,1,,,,,,,,,,,,,
666dd3dac790ac5fb9c88d96,TCR,2024-06-21_10h47.39.932,LearnStrategy,2023.2.3,Win32,165.0165017,8,1,9,-0.023611111,0.000694444,1,0,0,0.393,rock_grid_rect_2,6,05,-1,-1,0.393,-0.104861111,-0.413194444,1,0,0,1.13,Pegmatite_rect,6,1.13,1,8,0,8,0,1,,,,,,,,,,,,,
666dd3dac790ac5fb9c88d96,TCR,2024-06-21_10h47.39.932,LearnStrategy,2023.2.3,Win32,165.0165017,8,1,10,0.023611111,-0.0125,1,0,0,0.654,rock_grid_rect_2,5,10,-1,-1,0.654,-0.330555556,-0.384722222,1,0,0,0.842,Obsidian_rect,5,0.842,1,9,0,9,0,1,,,,,,,,,,,,,
666dd3dac790ac5fb9c88d96,TCR,2024-06-21_10h47.39.932,LearnStrategy,2023.2.3,Win32,165.0165017,8,1,11,-0.002777778,0.017361111,1,0,0,0.405,rock_grid_rect_2,3,15,-1,-1,0.405,0.116666667,-0.234027778,1,0,0,2.753,Diorite_rect,3,2.753,1,10,0,10,0,1,,,,,,,,,,,,,
666dd3dac790ac5fb9c88d96,TCR,2024-06-21_10h47.39.932,LearnStrategy,2023.2.3,Win32,165.0165017,8,1,12,0.014583333,-0.011111111,1,0,0,0.668,rock_grid_rect_2,4,10,-1,-1,0.668,0.363888889,-0.232638889,1,0,0,1.328,Gabbro_rect,4,1.328,1,11,0,11,0,1,,,,,,,,,,,,,
666dd3dac790ac5fb9c88d96,TCR,2024-06-21_10h47.39.932,LearnStrategy,2023.2.3,Win32,165.0165017,8,1,13,0.064583333,-0.004166667,1,0,0,0.455,rock_grid_rect_2,2,08,-1,-1,0.455,-0.161805556,-0.238194444,1,0,0,0.798,Basalt_rect,2,0.798,1,12,0,12,0,1,,,,,,,,,,,,,
666dd3dac790ac5fb9c88d96,TCR,2024-06-21_10h47.39.932,LearnStrategy,2023.2.3,Win32,165.0165017,8,1,14,0,-0.013194444,1,0,0,0.63,rock_grid_rect_2,4,10,-1,-1,0.63,0.35,-0.231944444,1,0,0,0.79,Gabbro_rect,4,0.79,1,13,0,13,0,1,,,,,,,,,,,,,
666dd3dac790ac5fb9c88d96,TCR,2024-06-21_10h47.39.932,LearnStrategy,2023.2.3,Win32,165.0165017,8,1,15,-0.004861111,-0.01875,1,0,0,0.394,rock_grid_rect_2,1,10,-1,-1,0.394,-0.4,-0.240972222,1,0,0,0.869,Andesite_rect,1,0.869,1,14,0,14,0,1,,,,,,,,,,,,,
666dd3dac790ac5fb9c88d96,TCR,2024-06-21_10h47.39.932,LearnStrategy,2023.2.3,Win32,165.0165017,8,1,16,0.020138889,0.005555556,1,0,0,0.381,rock_grid_rect_2,1,14,-1,-1,0.381,-0.3375,-0.240277778,1,0,0,1.158,Andesite_rect,1,1.158,1,15,0,15,0,1,,,,,,,,,,,,,
666dd3dac790ac5fb9c88d96,TCR,2024-06-21_10h47.39.932,LearnStrategy,2023.2.3,Win32,165.0165017,8,2,1,,,,,,,,8,15,,,,,,,,,,,8,3.551,1,,,,,,0.401388889,-0.391666667,1,0,0,3.551,Pumice_rect,0,0,0,0,1,
666dd3dac790ac5fb9c88d96,TCR,2024-06-21_10h47.39.932,LearnStrategy,2023.2.3,Win32,165.0165017,8,2,2,,,,,,,,2,09,,,,,,,,,,,2,1.053,1,,,,,,-0.117361111,-0.247916667,1,0,0,1.053,Basalt_rect,1,0,1,0,1,
666dd3dac790ac5fb9c88d96,TCR,2024-06-21_10h47.39.932,LearnStrategy,2023.2.3,Win32,165.0165017,8,2,3,,,,,,,,8,16,,,,,,,,,,,8,5.218,1,,,,,,0.365277778,-0.396527778,1,0,0,5.218,Pumice_rect,2,0,2,0,1,
666dd3dac790ac5fb9c88d96,TCR,2024-06-21_10h47.39.932,LearnStrategy,2023.2.3,Win32,165.0165017,8,2,4,,,,,,,,1,07,,,,,,,,,,,1,1.745,1,,,,,,-0.378472222,-0.249305556,1,0,0,1.745,Andesite_rect,3,0,3,0,1,
666dd3dac790ac5fb9c88d96,TCR,2024-06-21_10h47.39.932,LearnStrategy,2023.2.3,Win32,165.0165017,8,2,5,,,,,,,,6,09,,,,,,,,,,,6,1.217,1,,,,,,-0.082638889,-0.390277778,1,0,0,1.217,Pegmatite_rect,4,0,4,0,1,
666dd3dac790ac5fb9c88d96,TCR,2024-06-21_10h47.39.932,LearnStrategy,2023.2.3,Win32,165.0165017,8,2,6,,,,,,,,5,06,,,,,,,,,,,5,1.061,1,,,,,,-0.350694444,-0.418055556,1,0,0,1.061,Obsidian_rect,5,0,5,0,1,
666dd3dac790ac5fb9c88d96,TCR,2024-06-21_10h47.39.932,LearnStrategy,2023.2.3,Win32,165.0165017,8,2,7,,,,,,,,7,10,,,,,,,,,,,7,0.927,1,,,,,,0.045833333,-0.397916667,1,0,0,0.927,Peridotite_rect,6,0,6,0,1,
666dd3dac790ac5fb9c88d96,TCR,2024-06-21_10h47.39.932,LearnStrategy,2023.2.3,Win32,165.0165017,8,2,8,,,,,,,,6,13,,,,,,,,,,,6,1.265,1,,,,,,-0.135416667,-0.400694444,1,0,0,1.265,Pegmatite_rect,7,0,7,0,1,
666dd3dac790ac5fb9c88d96,TCR,2024-06-21_10h47.39.932,LearnStrategy,2023.2.3,Win32,165.0165017,8,2,9,,,,,,,,3,07,,,,,,,,,,,3,1.307,1,,,,,,0.085416667,-0.252083333,1,0,0,1.307,Diorite_rect,8,0,8,0,1,
666dd3dac790ac5fb9c88d96,TCR,2024-06-21_10h47.39.932,LearnStrategy,2023.2.3,Win32,165.0165017,8,2,10,,,,,,,,4,16,,,,,,,,,,,4,3.159,1,,,,,,0.404166667,-0.258333333,1,0,0,3.159,Gabbro_rect,9,0,9,0,1,
666dd3dac790ac5fb9c88d96,TCR,2024-06-21_10h47.39.932,LearnStrategy,2023.2.3,Win32,165.0165017,8,2,11,,,,,,,,7,12,,,,,,,,,,,7,1.013,1,,,,,,0.138194444,-0.411805556,1,0,0,1.013,Peridotite_rect,10,0,10,0,1,
666dd3dac790ac5fb9c88d96,TCR,2024-06-21_10h47.39.932,LearnStrategy,2023.2.3,Win32,165.0165017,8,2,12,,,,,,,,4,05,,,,,,,,,,,4,4.325,1,,,,,,0.354166667,-0.242361111,1,0,0,4.325,Gabbro_rect,11,0,11,0,1,
666dd3dac790ac5fb9c88d96,TCR,2024-06-21_10h47.39.932,LearnStrategy,2023.2.3,Win32,165.0165017,8,2,13,,,,,,,,2,14,,,,,,,,,,,8,3.61,0,,,,,,0.393055556,-0.385416667,1,0,0,3.61,Pumice_rect,12,0,12,0,1,
666dd3dac790ac5fb9c88d96,TCR,2024-06-21_10h47.39.932,LearnStrategy,2023.2.3,Win32,165.0165017,8,2,14,,,,,,,,5,14,,,,,,,,,,,5,0.994,1,,,,,,-0.394444444,-0.388888889,1,0,0,0.994,Obsidian_rect,13,0,13,0,1,
666dd3dac790ac5fb9c88d96,TCR,2024-06-21_10h47.39.932,LearnStrategy,2023.2.3,Win32,165.0165017,8,2,15,,,,,,,,3,12,,,,,,,,,,,3,4.902,1,,,,,,0.122916667,-0.263194444,1,0,0,4.902,Diorite_rect,14,0,14,0,1,
666dd3dac790ac5fb9c88d96,TCR,2024-06-21_10h47.39.932,LearnStrategy,2023.2.3,Win32,165.0165017,8,2,16,,,,,,,,1,06,,,,,,,,,,,1,2.031,1,,,,,,-0.377083333,-0.263888889,1,0,0,2.031,Andesite_rect,15,0,15,0,1,
666dd3dac790ac5fb9c88d96,TCR,2024-06-21_10h47.39.932,LearnStrategy,2023.2.3,Win32,165.0165017,9,1,1,0.000694444,0.0125,1,0,0,0.715,rock_grid_rect_2,1,14,-1,-1,0.715,-0.367361111,-0.249305556,1,0,0,2.024,Andesite_rect,1,2.024,1,0,0,0,0,1,,,,,,,,,,,,,
666dd3dac790ac5fb9c88d96,TCR,2024-06-21_10h47.39.932,LearnStrategy,2023.2.3,Win32,165.0165017,9,1,2,0.025,-0.007638889,1,0,0,0.429,rock_grid_rect_2,7,16,-1,-1,0.429,0.079861111,-0.399305556,1,0,0,1.299,Peridotite_rect,7,1.299,1,1,0,1,0,1,,,,,,,,,,,,,
666dd3dac790ac5fb9c88d96,TCR,2024-06-21_10h47.39.932,LearnStrategy,2023.2.3,Win32,165.0165017,9,1,3,0.053472222,-0.020138889,1,0,0,0.551,rock_grid_rect_2,4,12,-1,-1,0.551,-0.371527778,-0.25,1,0,0,2.675,Andesite_rect,1,2.675,0,2,0,2,0,1,,,,,,,,,,,,,
666dd3dac790ac5fb9c88d96,TCR,2024-06-21_10h47.39.932,LearnStrategy,2023.2.3,Win32,165.0165017,9,1,4,-0.014583333,-0.000694444,1,0,0,0.478,rock_grid_rect_2,1,11,-1,-1,0.478,-0.3875,-0.247916667,1,0,0,0.998,Andesite_rect,1,0.998,1,3,0,3,0,1,,,,,,,,,,,,,
666dd3dac790ac5fb9c88d96,TCR,2024-06-21_10h47.39.932,LearnStrategy,2023.2.3,Win32,165.0165017,9,1,5,-0.05,-0.016666667,1,0,0,0.382,rock_grid_rect_2,2,16,-1,-1,0.382,-0.140277778,-0.243055556,1,0,0,1.56,Basalt_rect,2,1.56,1,4,0,4,0,1,,,,,,,,,,,,,
666dd3dac790ac5fb9c88d96,TCR,2024-06-21_10h47.39.932,LearnStrategy,2023.2.3,Win32,165.0165017,9,1,6,-0.019444444,-0.002083333,1,0,0,0.411,rock_grid_rect_2,4,12,-1,-1,0.411,-0.397222222,-0.255555556,1,0,0,1.918,Andesite_rect,1,1.918,0,5,0,5,0,1,,,,,,,,,,,,,
666dd3dac790ac5fb9c88d96,TCR,2024-06-21_10h47.39.932,LearnStrategy,2023.2.3,Win32,165.0165017,9,1,7,-0.013888889,0.005555556,1,0,0,0.339,rock_grid_rect_2,8,09,-1,-1,0.339,0.363194444,-0.421527778,1,0,0,0.968,Pumice_rect,8,0.968,1,6,0,6,0,1,,,,,,,,,,,,,
666dd3dac790ac5fb9c88d96,TCR,2024-06-21_10h47.39.932,LearnStrategy,2023.2.3,Win32,165.0165017,9,1,8,0.018055556,-0.009027778,1,0,0,0.46,rock_grid_rect_2,1,10,-1,-1,0.46,-0.361111111,-0.239583333,1,0,0,1.475,Andesite_rect,1,1.475,1,7,0,7,0,1,,,,,,,,,,,,,
666dd3dac790ac5fb9c88d96,TCR,2024-06-21_10h47.39.932,LearnStrategy,2023.2.3,Win32,165.0165017,9,1,9,-0.022916667,-0.01875,1,0,0,0.375,rock_grid_rect_2,6,15,-1,-1,0.375,-0.11875,-0.392361111,1,0,0,0.877,Pegmatite_rect,6,0.877,1,8,0,8,0,1,,,,,,,,,,,,,
666dd3dac790ac5fb9c88d96,TCR,2024-06-21_10h47.39.932,LearnStrategy,2023.2.3,Win32,165.0165017,9,1,10,0.001388889,-0.00625,1,0,0,0.412,rock_grid_rect_2,2,10,-1,-1,0.412,-0.090972222,-0.256944444,1,0,0,1.896,Basalt_rect,2,1.896,1,9,0,9,0,1,,,,,,,,,,,,,
666dd3dac790ac5fb9c88d96,TCR,2024-06-21_10h47.39.932,LearnStrategy,2023.2.3,Win32,165.0165017,9,1,11,-0.01875,0.011111111,1,0,0,0.466,rock_grid_rect_2,3,15,-1,-1,0.466,0.109027778,-0.242361111,1,0,0,1.468,Diorite_rect,3,1.468,1,10,0,10,0,1,,,,,,,,,,,,,
666dd3dac790ac5fb9c88d96,TCR,2024-06-21_10h47.39.932,LearnStrategy,2023.2.3,Win32,165.0165017,9,1,12,0.007638889,-0.009722222,1,0,0,0.424,rock_grid_rect_2,6,05,-1,-1,0.424,-0.113194444,-0.386805556,1,0,0,0.832,Pegmatite_rect,6,0.832,1,11,0,11,0,1,,,,,,,,,,,,,
666dd3dac790ac5fb9c88d96,TCR,2024-06-21_10h47.39.932,LearnStrategy,2023.2.3,Win32,165.0165017,9,1,13,-0.038194444,-0.0125,1,0,0,0.386,rock_grid_rect_2,6,08,-1,-1,0.386,-0.109027778,-0.388888889,1,0,0,1.079,Pegmatite_rect,6,1.079,1,12,0,12,0,1,,,,,,,,,,,,,
666dd3dac790ac5fb9c88d96,TCR,2024-06-21_10h47.39.932,LearnStrategy,2023.2.3,Win32,165.0165017,9,1,14,-0.002083333,0.009027778,1,0,0,0.605,rock_grid_rect_2,2,16,-1,-1,0.605,-0.085416667,-0.239583333,1,0,0,1.608,Basalt_rect,2,1.608,1,13,0,13,0,1,,,,,,,,,,,,,
666dd3dac790ac5fb9c88d96,TCR,2024-06-21_10h47.39.932,LearnStrategy,2023.2.3,Win32,165.0165017,9,1,15,-0.040277778,0.021527778,1,0,0,0.411,rock_grid_rect_2,5,09,-1,-1,0.411,-0.3875,-0.405555556,1,0,0,1.124,Obsidian_rect,5,1.124,1,14,0,14,0,1,,,,,,,,,,,,,
666dd3dac790ac5fb9c88d96,TCR,2024-06-21_10h47.39.932,LearnStrategy,2023.2.3,Win32,165.0165017,9,1,16,-0.097916667,-0.002083333,1,0,0,0.412,rock_grid_rect_2,2,10,-1,-1,0.412,-0.11875,-0.241666667,1,0,0,0.906,Basalt_rect,2,0.906,1,15,0,15,0,1,,,,,,,,,,,,,
666dd3dac790ac5fb9c88d96,TCR,2024-06-21_10h47.39.932,LearnStrategy,2023.2.3,Win32,165.0165017,9,2,1,,,,,,,,6,12,,,,,,,,,,,6,1.585,1,,,,,,-0.132638889,-0.380555556,1,0,0,1.585,Pegmatite_rect,0,0,0,0,1,
666dd3dac790ac5fb9c88d96,TCR,2024-06-21_10h47.39.932,LearnStrategy,2023.2.3,Win32,165.0165017,9,2,2,,,,,,,,5,02,,,,,,,,,,,5,0.883,1,,,,,,-0.356944444,-0.404166667,1,0,0,0.883,Obsidian_rect,1,0,1,0,1,
666dd3dac790ac5fb9c88d96,TCR,2024-06-21_10h47.39.932,LearnStrategy,2023.2.3,Win32,165.0165017,9,2,3,,,,,,,,1,05,,,,,,,,,,,7,1.467,0,,,,,,0.120138889,-0.393055556,1,0,0,1.467,Peridotite_rect,2,0,2,0,1,
666dd3dac790ac5fb9c88d96,TCR,2024-06-21_10h47.39.932,LearnStrategy,2023.2.3,Win32,165.0165017,9,2,4,,,,,,,,4,11,,,,,,,,,,,4,3.651,1,,,,,,0.352777778,-0.265972222,1,0,0,3.651,Gabbro_rect,3,0,3,0,1,
666dd3dac790ac5fb9c88d96,TCR,2024-06-21_10h47.39.932,LearnStrategy,2023.2.3,Win32,165.0165017,9,2,5,,,,,,,,6,11,,,,,,,,,,,6,0.841,1,,,,,,-0.088194444,-0.408333333,1,0,0,0.841,Pegmatite_rect,4,0,4,0,1,
666dd3dac790ac5fb9c88d96,TCR,2024-06-21_10h47.39.932,LearnStrategy,2023.2.3,Win32,165.0165017,9,2,6,,,,,,,,3,16,,,,,,,,,,,3,1.152,1,,,,,,0.1,-0.240972222,1,0,0,1.152,Diorite_rect,5,0,5,0,1,
666dd3dac790ac5fb9c88d96,TCR,2024-06-21_10h47.39.932,LearnStrategy,2023.2.3,Win32,165.0165017,9,2,7,,,,,,,,4,15,,,,,,,,,,,3,1.835,0,,,,,,0.088888889,-0.242361111,1,0,0,1.835,Diorite_rect,6,0,6,0,1,
666dd3dac790ac5fb9c88d96,TCR,2024-06-21_10h47.39.932,LearnStrategy,2023.2.3,Win32,165.0165017,9,2,8,,,,,,,,5,11,,,,,,,,,,,5,0.847,1,,,,,,-0.402083333,-0.399305556,1,0,0,0.847,Obsidian_rect,7,0,7,0,1,
666dd3dac790ac5fb9c88d96,TCR,2024-06-21_10h47.39.932,LearnStrategy,2023.2.3,Win32,165.0165017,9,2,9,,,,,,,,7,14,,,,,,,,,,,7,1.15,1,,,,,,0.101388889,-0.398611111,1,0,0,1.15,Peridotite_rect,8,0,8,0,1,
666dd3dac790ac5fb9c88d96,TCR,2024-06-21_10h47.39.932,LearnStrategy,2023.2.3,Win32,165.0165017,9,2,10,,,,,,,,2,11,,,,,,,,,,,2,2.999,1,,,,,,-0.124305556,-0.261805556,1,0,0,2.999,Basalt_rect,9,0,9,0,1,
666dd3dac790ac5fb9c88d96,TCR,2024-06-21_10h47.39.932,LearnStrategy,2023.2.3,Win32,165.0165017,9,2,11,,,,,,,,3,10,,,,,,,,,,,3,2.637,1,,,,,,0.080555556,-0.245138889,1,0,0,2.637,Diorite_rect,10,0,10,0,1,
666dd3dac790ac5fb9c88d96,TCR,2024-06-21_10h47.39.932,LearnStrategy,2023.2.3,Win32,165.0165017,9,2,12,,,,,,,,1,04,,,,,,,,,,,1,3.277,1,,,,,,-0.44375,-0.249305556,1,0,0,3.277,Andesite_rect,11,0,11,0,1,
666dd3dac790ac5fb9c88d96,TCR,2024-06-21_10h47.39.932,LearnStrategy,2023.2.3,Win32,165.0165017,9,2,13,,,,,,,,2,05,,,,,,,,,,,2,0.985,1,,,,,,-0.118055556,-0.270138889,1,0,0,0.985,Basalt_rect,12,0,12,0,1,
666dd3dac790ac5fb9c88d96,TCR,2024-06-21_10h47.39.932,LearnStrategy,2023.2.3,Win32,165.0165017,9,2,14,,,,,,,,7,04,,,,,,,,,,,6,1.712,0,,,,,,-0.090277778,-0.390972222,1,0,0,1.712,Pegmatite_rect,13,0,13,0,1,
666dd3dac790ac5fb9c88d96,TCR,2024-06-21_10h47.39.932,LearnStrategy,2023.2.3,Win32,165.0165017,9,2,15,,,,,,,,8,06,,,,,,,,,,,8,0.835,1,,,,,,0.38125,-0.404861111,1,0,0,0.835,Pumice_rect,14,0,14,0,1,
666dd3dac790ac5fb9c88d96,TCR,2024-06-21_10h47.39.932,LearnStrategy,2023.2.3,Win32,165.0165017,9,2,16,,,,,,,,8,13,,,,,,,,,,,8,1.176,1,,,,,,0.396527778,-0.390972222,1,0,0,1.176,Pumice_rect,15,0,15,0,1,
666dd3dac790ac5fb9c88d96,TCR,2024-06-21_10h47.39.932,LearnStrategy,2023.2.3,Win32,165.0165017,,,,,,,,,,,,,,,,,,,,,,,,,,,,,,,,,,,,,,,,,,,1
666dd3dac790ac5fb9c88d96,TCR,2024-06-21_10h47.39.932,LearnStrategy,2023.2.3,Win32,165.0165017,,,,,,,,,,,,,,,,,,,,,,,,,,,,,,,,,,,,,,,,,,,
666dd3dac790ac5fb9c88d96,TCR,2024-06-21_10h47.39.932,LearnStrategy,2023.2.3,Win32,165.0165017,,,,,,,,,,,7,13,1,1,,,,,,,,,,,,,,,,,,,,,,,,,,,,,
666dd3dac790ac5fb9c88d96,TCR,2024-06-21_10h47.39.932,LearnStrategy,2023.2.3,Win32,165.0165017,,,,,,,,,,,5,12,1,2,,,,,,,,,,,,,,,,,,,,,,,,,,,,,
666dd3dac790ac5fb9c88d96,TCR,2024-06-21_10h47.39.932,LearnStrategy,2023.2.3,Win32,165.0165017,,,,,,,,,,,2,04,1,3,,,,,,,,,,,,,,,,,,,,,,,,,,,,,
666dd3dac790ac5fb9c88d96,TCR,2024-06-21_10h47.39.932,LearnStrategy,2023.2.3,Win32,165.0165017,,,,,,,,,,,5,10,1,4,,,,,,,,,,,,,,,,,,,,,,,,,,,,,
666dd3dac790ac5fb9c88d96,TCR,2024-06-21_10h47.39.932,LearnStrategy,2023.2.3,Win32,165.0165017,,,,,,,,,,,6,15,1,5,,,,,,,,,,,,,,,,,,,,,,,,,,,,,
666dd3dac790ac5fb9c88d96,TCR,2024-06-21_10h47.39.932,LearnStrategy,2023.2.3,Win32,165.0165017,,,,,,,,,,,3,14,1,6,,,,,,,,,,,,,,,,,,,,,,,,,,,,,
666dd3dac790ac5fb9c88d96,TCR,2024-06-21_10h47.39.932,LearnStrategy,2023.2.3,Win32,165.0165017,,,,,,,,,,,8,14,1,7,,,,,,,,,,,,,,,,,,,,,,,,,,,,,
666dd3dac790ac5fb9c88d96,TCR,2024-06-21_10h47.39.932,LearnStrategy,2023.2.3,Win32,165.0165017,,,,,,,,,,,7,02,1,8,,,,,,,,,,,,,,,,,,,,,,,,,,,,,
666dd3dac790ac5fb9c88d96,TCR,2024-06-21_10h47.39.932,LearnStrategy,2023.2.3,Win32,165.0165017,,,,,,,,,,,7,06,2,1,,,,,,,,,,,,,,,,,,,,,,,,,,,,,
666dd3dac790ac5fb9c88d96,TCR,2024-06-21_10h47.39.932,LearnStrategy,2023.2.3,Win32,165.0165017,,,,,,,,,,,5,07,2,2,,,,,,,,,,,,,,,,,,,,,,,,,,,,,
666dd3dac790ac5fb9c88d96,TCR,2024-06-21_10h47.39.932,LearnStrategy,2023.2.3,Win32,165.0165017,,,,,,,,,,,4,09,2,3,,,,,,,,,,,,,,,,,,,,,,,,,,,,,
666dd3dac790ac5fb9c88d96,TCR,2024-06-21_10h47.39.932,LearnStrategy,2023.2.3,Win32,165.0165017,,,,,,,,,,,5,05,2,4,,,,,,,,,,,,,,,,,,,,,,,,,,,,,
666dd3dac790ac5fb9c88d96,TCR,2024-06-21_10h47.39.932,LearnStrategy,2023.2.3,Win32,165.0165017,,,,,,,,,,,2,02,2,5,,,,,,,,,,,,,,,,,,,,,,,,,,,,,
666dd3dac790ac5fb9c88d96,TCR,2024-06-21_10h47.39.932,LearnStrategy,2023.2.3,Win32,165.0165017,,,,,,,,,,,3,11,2,6,,,,,,,,,,,,,,,,,,,,,,,,,,,,,
666dd3dac790ac5fb9c88d96,TCR,2024-06-21_10h47.39.932,LearnStrategy,2023.2.3,Win32,165.0165017,,,,,,,,,,,7,16,2,7,,,,,,,,,,,,,,,,,,,,,,,,,,,,,
666dd3dac790ac5fb9c88d96,TCR,2024-06-21_10h47.39.932,LearnStrategy,2023.2.3,Win32,165.0165017,,,,,,,,,,,1,01,2,8,,,,,,,,,,,,,,,,,,,,,,,,,,,,,
666dd3dac790ac5fb9c88d96,TCR,2024-06-21_10h47.39.932,LearnStrategy,2023.2.3,Win32,165.0165017,,,,,,,,,,,8,09,3,1,,,,,,,,,,,,,,,,,,,,,,,,,,,,,
666dd3dac790ac5fb9c88d96,TCR,2024-06-21_10h47.39.932,LearnStrategy,2023.2.3,Win32,165.0165017,,,,,,,,,,,4,10,3,2,,,,,,,,,,,,,,,,,,,,,,,,,,,,,
666dd3dac790ac5fb9c88d96,TCR,2024-06-21_10h47.39.932,LearnStrategy,2023.2.3,Win32,165.0165017,,,,,,,,,,,8,05,3,3,,,,,,,,,,,,,,,,,,,,,,,,,,,,,
666dd3dac790ac5fb9c88d96,TCR,2024-06-21_10h47.39.932,LearnStrategy,2023.2.3,Win32,165.0165017,,,,,,,,,,,1,02,3,4,,,,,,,,,,,,,,,,,,,,,,,,,,,,,
666dd3dac790ac5fb9c88d96,TCR,2024-06-21_10h47.39.932,LearnStrategy,2023.2.3,Win32,165.0165017,,,,,,,,,,,3,02,3,5,,,,,,,,,,,,,,,,,,,,,,,,,,,,,
666dd3dac790ac5fb9c88d96,TCR,2024-06-21_10h47.39.932,LearnStrategy,2023.2.3,Win32,165.0165017,,,,,,,,,,,3,08,3,6,,,,,,,,,,,,,,,,,,,,,,,,,,,,,
666dd3dac790ac5fb9c88d96,TCR,2024-06-21_10h47.39.932,LearnStrategy,2023.2.3,Win32,165.0165017,,,,,,,,,,,2,06,3,7,,,,,,,,,,,,,,,,,,,,,,,,,,,,,
666dd3dac790ac5fb9c88d96,TCR,2024-06-21_10h47.39.932,LearnStrategy,2023.2.3,Win32,165.0165017,,,,,,,,,,,3,15,3,8,,,,,,,,,,,,,,,,,,,,,,,,,,,,,
666dd3dac790ac5fb9c88d96,TCR,2024-06-21_10h47.39.932,LearnStrategy,2023.2.3,Win32,165.0165017,,,,,,,,,,,2,08,4,1,,,,,,,,,,,,,,,,,,,,,,,,,,,,,
666dd3dac790ac5fb9c88d96,TCR,2024-06-21_10h47.39.932,LearnStrategy,2023.2.3,Win32,165.0165017,,,,,,,,,,,6,05,4,2,,,,,,,,,,,,,,,,,,,,,,,,,,,,,
666dd3dac790ac5fb9c88d96,TCR,2024-06-21_10h47.39.932,LearnStrategy,2023.2.3,Win32,165.0165017,,,,,,,,,,,7,05,4,3,,,,,,,,,,,,,,,,,,,,,,,,,,,,,
666dd3dac790ac5fb9c88d96,TCR,2024-06-21_10h47.39.932,LearnStrategy,2023.2.3,Win32,165.0165017,,,,,,,,,,,8,08,4,4,,,,,,,,,,,,,,,,,,,,,,,,,,,,,
666dd3dac790ac5fb9c88d96,TCR,2024-06-21_10h47.39.932,LearnStrategy,2023.2.3,Win32,165.0165017,,,,,,,,,,,1,14,4,5,,,,,,,,,,,,,,,,,,,,,,,,,,,,,
666dd3dac790ac5fb9c88d96,TCR,2024-06-21_10h47.39.932,LearnStrategy,2023.2.3,Win32,165.0165017,,,,,,,,,,,2,16,4,6,,,,,,,,,,,,,,,,,,,,,,,,,,,,,
666dd3dac790ac5fb9c88d96,TCR,2024-06-21_10h47.39.932,LearnStrategy,2023.2.3,Win32,165.0165017,,,,,,,,,,,4,12,4,7,,,,,,,,,,,,,,,,,,,,,,,,,,,,,
666dd3dac790ac5fb9c88d96,TCR,2024-06-21_10h47.39.932,LearnStrategy,2023.2.3,Win32,165.0165017,,,,,,,,,,,5,09,4,8,,,,,,,,,,,,,,,,,,,,,,,,,,,,,
666dd3dac790ac5fb9c88d96,TCR,2024-06-21_10h47.39.932,LearnStrategy,2023.2.3,Win32,165.0165017,,,,,,,,,,,6,08,5,1,,,,,,,,,,,,,,,,,,,,,,,,,,,,,
666dd3dac790ac5fb9c88d96,TCR,2024-06-21_10h47.39.932,LearnStrategy,2023.2.3,Win32,165.0165017,,,,,,,,,,,6,07,5,2,,,,,,,,,,,,,,,,,,,,,,,,,,,,,
666dd3dac790ac5fb9c88d96,TCR,2024-06-21_10h47.39.932,LearnStrategy,2023.2.3,Win32,165.0165017,,,,,,,,,,,4,01,5,3,,,,,,,,,,,,,,,,,,,,,,,,,,,,,
666dd3dac790ac5fb9c88d96,TCR,2024-06-21_10h47.39.932,LearnStrategy,2023.2.3,Win32,165.0165017,,,,,,,,,,,4,13,5,4,,,,,,,,,,,,,,,,,,,,,,,,,,,,,
666dd3dac790ac5fb9c88d96,TCR,2024-06-21_10h47.39.932,LearnStrategy,2023.2.3,Win32,165.0165017,,,,,,,,,,,2,10,5,5,,,,,,,,,,,,,,,,,,,,,,,,,,,,,
666dd3dac790ac5fb9c88d96,TCR,2024-06-21_10h47.39.932,LearnStrategy,2023.2.3,Win32,165.0165017,,,,,,,,,,,1,11,5,6,,,,,,,,,,,,,,,,,,,,,,,,,,,,,
666dd3dac790ac5fb9c88d96,TCR,2024-06-21_10h47.39.932,LearnStrategy,2023.2.3,Win32,165.0165017,,,,,,,,,,,4,14,5,7,,,,,,,,,,,,,,,,,,,,,,,,,,,,,
666dd3dac790ac5fb9c88d96,TCR,2024-06-21_10h47.39.932,LearnStrategy,2023.2.3,Win32,165.0165017,,,,,,,,,,,1,10,5,8,,,,,,,,,,,,,,,,,,,,,,,,,,,,,
666dd3dac790ac5fb9c88d96,TCR,2024-06-21_10h47.39.932,LearnStrategy,2023.2.3,Win32,165.0165017,,,,,,,,,,,5,08,6,1,,,,,,,,,,,,,,,,,,,,,,,,,,,,,
666dd3dac790ac5fb9c88d96,TCR,2024-06-21_10h47.39.932,LearnStrategy,2023.2.3,Win32,165.0165017,,,,,,,,,,,6,10,6,2,,,,,,,,,,,,,,,,,,,,,,,,,,,,,
666dd3dac790ac5fb9c88d96,TCR,2024-06-21_10h47.39.932,LearnStrategy,2023.2.3,Win32,165.0165017,,,,,,,,,,,3,06,6,3,,,,,,,,,,,,,,,,,,,,,,,,,,,,,
666dd3dac790ac5fb9c88d96,TCR,2024-06-21_10h47.39.932,LearnStrategy,2023.2.3,Win32,165.0165017,,,,,,,,,,,8,03,6,4,,,,,,,,,,,,,,,,,,,,,,,,,,,,,
666dd3dac790ac5fb9c88d96,TCR,2024-06-21_10h47.39.932,LearnStrategy,2023.2.3,Win32,165.0165017,,,,,,,,,,,7,07,6,5,,,,,,,,,,,,,,,,,,,,,,,,,,,,,
666dd3dac790ac5fb9c88d96,TCR,2024-06-21_10h47.39.932,LearnStrategy,2023.2.3,Win32,165.0165017,,,,,,,,,,,1,03,6,6,,,,,,,,,,,,,,,,,,,,,,,,,,,,,
666dd3dac790ac5fb9c88d96,TCR,2024-06-21_10h47.39.932,LearnStrategy,2023.2.3,Win32,165.0165017,,,,,,,,,,,6,03,6,7,,,,,,,,,,,,,,,,,,,,,,,,,,,,,
666dd3dac790ac5fb9c88d96,TCR,2024-06-21_10h47.39.932,LearnStrategy,2023.2.3,Win32,165.0165017,,,,,,,,,,,8,10,6,8,,,,,,,,,,,,,,,,,,,,,,,,,,,,,