participant,condition,date,expName,psychopyVersion,OS,frameRate,block,phase,trial,learn_mouse_2.x,learn_mouse_2.y,learn_mouse_2.leftButton,learn_mouse_2.midButton,learn_mouse_2.rightButton,learn_mouse_2.time,learn_mouse_2.clicked_name,cat,token,row,col,t_select,cat_mouse_l.x,cat_mouse_l.y,cat_mouse_l.leftButton,cat_mouse_l.midButton,cat_mouse_l.rightButton,cat_mouse_l.time,cat_mouse_l.clicked_name,resp,t_resp,corr,train_trials.thisRepN,train_trials.thisTrialN,train_trials.thisN,train_trials.thisIndex,train_trials.ran,cat_mouse_t.x,cat_mouse_t.y,cat_mouse_t.leftButton,cat_mouse_t.midButton,cat_mouse_t.rightButton,cat_mouse_t.time,cat_mouse_t.clicked_name,test_trials.thisRepN,test_trials.thisTrialN,test_trials.thisN,test_trials.thisIndex,test_trials.ran,Bonus
666dcc6d47ca746d72d77e34,TCN,2024-06-21_13h49.06.195,LearnStrategy,2023.2.3,MacIntel,128.2051282,,,,,,,,,,,,,,,,,,,,,,,,,,,,,,,,,,,,,,,,,,,
666dcc6d47ca746d72d77e34,TCN,2024-06-21_13h49.06.195,LearnStrategy,2023.2.3,MacIntel,128.2051282,1,1,1,0.111469184,-0.000607639,1,0,0,8.6758,rock_grid_rect_2,6,10,-1,-1,8.676,0.151099537,-0.388331887,1,0,0,13.7394,Peridotite_rect,7,13.739,0,0,0,0,0,1,,,,,,,,,,,,,
666dcc6d47ca746d72d77e34,TCN,2024-06-21_13h49.06.195,LearnStrategy,2023.2.3,MacIntel,128.2051282,1,1,2,-0.04484592,-0.007411024,1,0,0,1.9221,rock_grid_rect_2,4,01,-1,-1,1.922,-0.072728588,-0.23765191,1,0,0,13.084,Basalt_rect,2,13.084,0,1,0,1,0,1,,,,,,,,,,,,,
666dcc6d47ca746d72d77e34,TCN,2024-06-21_13h49.06.195,LearnStrategy,2023.2.3,MacIntel,128.2051282,1,1,3,0.091388166,-0.001660156,1,0,0,4.1051,rock_grid_rect_2,3,08,-1,-1,4.105,0.203363715,-0.260282841,1,0,0,8.259,Diorite_rect,3,8.259,1,2,0,2,0,1,,,,,,,,,,,,,
666dcc6d47ca746d72d77e34,TCN,2024-06-21_13h49.06.195,LearnStrategy,2023.2.3,MacIntel,128.2051282,1,1,4,-0.005465133,-0.000264034,1,0,0,1.8302,rock_grid_rect_2,3,11,-1,-1,1.83,-0.102130353,-0.242194734,1,0,0,5.5452,Basalt_rect,2,5.545,0,3,0,3,0,1,,,,,,,,,,,,,
666dcc6d47ca746d72d77e34,TCN,2024-06-21_13h49.06.195,LearnStrategy,2023.2.3,MacIntel,128.2051282,1,1,5,0.041080729,-0.001754196,1,0,0,1.1964,rock_grid_rect_2,8,16,-1,-1,1.196,0.317730035,-0.403899016,1,0,0,6.93,Pumice_rect,8,6.93,1,4,0,4,0,1,,,,,,,,,,,,,
666dcc6d47ca746d72d77e34,TCN,2024-06-21_13h49.06.195,LearnStrategy,2023.2.3,MacIntel,128.2051282,1,1,6,-0.027065249,-0.010094763,1,0,0,1.03,rock_grid_rect_2,7,08,-1,-1,1.03,-0.073256655,-0.390071615,1,0,0,9.0795,Pegmatite_rect,6,9.079,0,5,0,5,0,1,,,,,,,,,,,,,
666dcc6d47ca746d72d77e34,TCN,2024-06-21_13h49.06.195,LearnStrategy,2023.2.3,MacIntel,128.2051282,1,1,7,-0.022117332,0.010998987,1,0,0,1.6459,rock_grid_rect_2,8,14,-1,-1,1.646,0.399334491,-0.413230613,1,0,0,2.818,Pumice_rect,8,2.818,1,6,0,6,0,1,,,,,,,,,,,,,
666dcc6d47ca746d72d77e34,TCN,2024-06-21_13h49.06.195,LearnStrategy,2023.2.3,MacIntel,128.2051282,1,1,8,-0.000622106,0.009230324,1,0,0,1.147,rock_grid_rect_2,7,02,-1,-1,1.147,0.165245226,-0.410684317,1,0,0,11.3968,Peridotite_rect,7,11.397,1,7,0,7,0,1,,,,,,,,,,,,,
666dcc6d47ca746d72d77e34,TCN,2024-06-21_13h49.06.195,LearnStrategy,2023.2.3,MacIntel,128.2051282,1,1,9,-0.026349103,0.00432581,1,0,0,1.0147,rock_grid_rect_2,1,10,-1,-1,1.015,-0.107566551,-0.253262442,1,0,0,3.3923,Basalt_rect,2,3.392,0,8,0,8,0,1,,,,,,,,,,,,,
666dcc6d47ca746d72d77e34,TCN,2024-06-21_13h49.06.195,LearnStrategy,2023.2.3,MacIntel,128.2051282,1,1,10,-0.074410446,0.015436921,1,0,0,1.3469,rock_grid_rect_2,2,01,-1,-1,1.347,-0.103457755,-0.248766638,1,0,0,5.8289,Basalt_rect,2,5.829,1,9,0,9,0,1,,,,,,,,,,,,,
666dcc6d47ca746d72d77e34,TCN,2024-06-21_13h49.06.195,LearnStrategy,2023.2.3,MacIntel,128.2051282,1,1,11,-0.021943721,-0.003794126,1,0,0,2.2139,rock_grid_rect_2,5,02,-1,-1,2.214,-0.357548466,-0.406239149,1,0,0,2.3807,Obsidian_rect,5,2.381,1,10,0,10,0,1,,,,,,,,,,,,,
666dcc6d47ca746d72d77e34,TCN,2024-06-21_13h49.06.195,LearnStrategy,2023.2.3,MacIntel,128.2051282,1,1,12,-0.044979745,-0.002994792,1,0,0,1.3228,rock_grid_rect_2,5,11,-1,-1,1.323,-0.361158131,-0.405989583,1,0,0,1.2603,Obsidian_rect,5,1.26,1,11,0,11,0,1,,,,,,,,,,,,,
666dcc6d47ca746d72d77e34,TCN,2024-06-21_13h49.06.195,LearnStrategy,2023.2.3,MacIntel,128.2051282,1,1,13,0.009114583,-0.011494502,1,0,0,3.2398,rock_grid_rect_2,1,06,-1,-1,3.24,0.076146557,-0.24765625,1,0,0,2.7134,Diorite_rect,3,2.713,0,12,0,12,0,1,,,,,,,,,,,,,
666dcc6d47ca746d72d77e34,TCN,2024-06-21_13h49.06.195,LearnStrategy,2023.2.3,MacIntel,128.2051282,1,1,14,-0.050115741,0.018634259,1,0,0,1.3223,rock_grid_rect_2,2,08,-1,-1,1.322,-0.391869213,-0.261740451,1,0,0,8.0649,Andesite_rect,1,8.065,0,13,0,13,0,1,,,,,,,,,,,,,
666dcc6d47ca746d72d77e34,TCN,2024-06-21_13h49.06.195,LearnStrategy,2023.2.3,MacIntel,128.2051282,1,1,15,-0.042371962,-0.009078414,1,0,0,1.0476,rock_grid_rect_2,4,12,-1,-1,1.048,0.345572917,-0.259447338,1,0,0,9.2334,Gabbro_rect,4,9.233,1,14,0,14,0,1,,,,,,,,,,,,,
666dcc6d47ca746d72d77e34,TCN,2024-06-21_13h49.06.195,LearnStrategy,2023.2.3,MacIntel,128.2051282,1,1,16,-0.020073785,-0.010210503,1,0,0,1.1264,rock_grid_rect_2,6,11,-1,-1,1.126,-0.086812789,-0.39776114,1,0,0,8.2759,Pegmatite_rect,6,8.276,1,15,0,15,0,1,,,,,,,,,,,,,
666dcc6d47ca746d72d77e34,TCN,2024-06-21_13h49.06.195,LearnStrategy,2023.2.3,MacIntel,128.2051282,1,2,1,,,,,,,,8,08,,,,,,,,,,,8,6.785,1,,,,,,0.376493779,-0.397030527,1,0,0,6.7845,Pumice_rect,0,0,0,0,1,
666dcc6d47ca746d72d77e34,TCN,2024-06-21_13h49.06.195,LearnStrategy,2023.2.3,MacIntel,128.2051282,1,2,2,,,,,,,,2,14,,,,,,,,,,,8,7.534,0,,,,,,0.360662616,-0.397337963,1,0,0,7.5344,Pumice_rect,1,0,1,0,1,
666dcc6d47ca746d72d77e34,TCN,2024-06-21_13h49.06.195,LearnStrategy,2023.2.3,MacIntel,128.2051282,1,2,3,,,,,,,,3,12,,,,,,,,,,,3,2.887,1,,,,,,0.161400463,-0.260948351,1,0,0,2.887,Diorite_rect,2,0,2,0,1,
666dcc6d47ca746d72d77e34,TCN,2024-06-21_13h49.06.195,LearnStrategy,2023.2.3,MacIntel,128.2051282,1,2,4,,,,,,,,6,09,,,,,,,,,,,6,8.154,1,,,,,,-0.078823061,-0.39603588,1,0,0,8.1542,Pegmatite_rect,3,0,3,0,1,
666dcc6d47ca746d72d77e34,TCN,2024-06-21_13h49.06.195,LearnStrategy,2023.2.3,MacIntel,128.2051282,1,2,5,,,,,,,,5,09,,,,,,,,,,,5,1.388,1,,,,,,-0.370764612,-0.407519531,1,0,0,1.3882,Obsidian_rect,4,0,4,0,1,
666dcc6d47ca746d72d77e34,TCN,2024-06-21_13h49.06.195,LearnStrategy,2023.2.3,MacIntel,128.2051282,1,2,6,,,,,,,,5,16,,,,,,,,,,,5,1.027,1,,,,,,-0.332816117,-0.396940104,1,0,0,1.0272,Obsidian_rect,5,0,5,0,1,
666dcc6d47ca746d72d77e34,TCN,2024-06-21_13h49.06.195,LearnStrategy,2023.2.3,MacIntel,128.2051282,1,2,7,,,,,,,,1,01,,,,,,,,,,,3,1.996,0,,,,,,0.141724537,-0.257566551,1,0,0,1.996,Diorite_rect,6,0,6,0,1,
666dcc6d47ca746d72d77e34,TCN,2024-06-21_13h49.06.195,LearnStrategy,2023.2.3,MacIntel,128.2051282,1,2,8,,,,,,,,4,11,,,,,,,,,,,4,7.159,1,,,,,,0.330674913,-0.263820168,1,0,0,7.1593,Gabbro_rect,7,0,7,0,1,
666dcc6d47ca746d72d77e34,TCN,2024-06-21_13h49.06.195,LearnStrategy,2023.2.3,MacIntel,128.2051282,1,2,9,,,,,,,,4,09,,,,,,,,,,,1,5.11,0,,,,,,-0.364963108,-0.254463252,1,0,0,5.1096,Andesite_rect,8,0,8,0,1,
666dcc6d47ca746d72d77e34,TCN,2024-06-21_13h49.06.195,LearnStrategy,2023.2.3,MacIntel,128.2051282,1,2,10,,,,,,,,2,09,,,,,,,,,,,4,5.034,0,,,,,,0.484921152,-0.269824219,1,0,0,5.0339,Gabbro_rect,9,0,9,0,1,
666dcc6d47ca746d72d77e34,TCN,2024-06-21_13h49.06.195,LearnStrategy,2023.2.3,MacIntel,128.2051282,1,2,11,,,,,,,,3,10,,,,,,,,,,,3,4.805,1,,,,,,0.171129919,-0.253403501,1,0,0,4.8048,Diorite_rect,10,0,10,0,1,
666dcc6d47ca746d72d77e34,TCN,2024-06-21_13h49.06.195,LearnStrategy,2023.2.3,MacIntel,128.2051282,1,2,12,,,,,,,,8,05,,,,,,,,,,,8,1.312,1,,,,,,0.41838831,-0.408333333,1,0,0,1.3121,Pumice_rect,11,0,11,0,1,
666dcc6d47ca746d72d77e34,TCN,2024-06-21_13h49.06.195,LearnStrategy,2023.2.3,MacIntel,128.2051282,1,2,13,,,,,,,,7,06,,,,,,,,,,,7,2.461,1,,,,,,0.162250434,-0.413436777,1,0,0,2.4611,Peridotite_rect,12,0,12,0,1,
666dcc6d47ca746d72d77e34,TCN,2024-06-21_13h49.06.195,LearnStrategy,2023.2.3,MacIntel,128.2051282,1,2,14,,,,,,,,1,11,,,,,,,,,,,2,6.752,0,,,,,,-0.237094907,-0.26260489,1,0,0,6.7521,Basalt_rect,13,0,13,0,1,
666dcc6d47ca746d72d77e34,TCN,2024-06-21_13h49.06.195,LearnStrategy,2023.2.3,MacIntel,128.2051282,1,2,15,,,,,,,,6,03,,,,,,,,,,,7,2.368,0,,,,,,0.058590133,-0.409809028,1,0,0,2.3682,Peridotite_rect,14,0,14,0,1,
666dcc6d47ca746d72d77e34,TCN,2024-06-21_13h49.06.195,LearnStrategy,2023.2.3,MacIntel,128.2051282,1,2,16,,,,,,,,7,14,,,,,,,,,,,3,3.168,0,,,,,,0.095091869,-0.243815104,1,0,0,3.1683,Diorite_rect,15,0,15,0,1,
666dcc6d47ca746d72d77e34,TCN,2024-06-21_13h49.06.195,LearnStrategy,2023.2.3,MacIntel,128.2051282,2,1,1,-0.031477865,-0.008405671,1,0,0,1.856,rock_grid_rect_2,7,05,-1,-1,1.856,-0.396079282,-0.260651765,1,0,0,5.8756,Andesite_rect,1,5.876,0,0,0,0,0,1,,,,,,,,,,,,,
666dcc6d47ca746d72d77e34,TCN,2024-06-21_13h49.06.195,LearnStrategy,2023.2.3,MacIntel,128.2051282,2,1,2,-0.040046296,0.008051215,1,0,0,1.264,rock_grid_rect_2,5,06,-1,-1,1.264,-0.326161024,-0.385633681,1,0,0,3.2348,Obsidian_rect,5,3.235,1,1,0,1,0,1,,,,,,,,,,,,,
666dcc6d47ca746d72d77e34,TCN,2024-06-21_13h49.06.195,LearnStrategy,2023.2.3,MacIntel,128.2051282,2,1,3,0.025,-0.000213397,1,0,0,1.1638,rock_grid_rect_2,1,05,-1,-1,1.164,-0.378606047,-0.239221644,1,0,0,7.7144,Andesite_rect,1,7.714,1,2,0,2,0,1,,,,,,,,,,,,,
666dcc6d47ca746d72d77e34,TCN,2024-06-21_13h49.06.195,LearnStrategy,2023.2.3,MacIntel,128.2051282,2,1,4,-0.04191985,0.008094618,1,0,0,1.1219,rock_grid_rect_2,4,13,-1,-1,1.122,0.362160012,-0.251703559,1,0,0,4.9955,Gabbro_rect,4,4.995,1,3,0,3,0,1,,,,,,,,,,,,,
666dcc6d47ca746d72d77e34,TCN,2024-06-21_13h49.06.195,LearnStrategy,2023.2.3,MacIntel,128.2051282,2,1,5,-0.041536458,0.008199508,1,0,0,1.3064,rock_grid_rect_2,2,16,-1,-1,1.306,-0.069581887,-0.246639902,1,0,0,2.9722,Basalt_rect,2,2.972,1,4,0,4,0,1,,,,,,,,,,,,,
666dcc6d47ca746d72d77e34,TCN,2024-06-21_13h49.06.195,LearnStrategy,2023.2.3,MacIntel,128.2051282,2,1,6,0.024421296,-0.020963542,1,0,0,1.0554,rock_grid_rect_2,1,04,-1,-1,1.055,-0.347724971,-0.261859809,1,0,0,1.8729,Andesite_rect,1,1.873,1,5,0,5,0,1,,,,,,,,,,,,,
666dcc6d47ca746d72d77e34,TCN,2024-06-21_13h49.06.195,LearnStrategy,2023.2.3,MacIntel,128.2051282,2,1,7,-0.054607928,0.005262587,1,0,0,1.1308,rock_grid_rect_2,6,15,-1,-1,1.131,0.062973814,-0.399609375,1,0,0,2.8861,Peridotite_rect,7,2.886,0,6,0,6,0,1,,,,,,,,,,,,,
666dcc6d47ca746d72d77e34,TCN,2024-06-21_13h49.06.195,LearnStrategy,2023.2.3,MacIntel,128.2051282,2,1,8,-0.016988571,0.011642795,1,0,0,0.8148,rock_grid_rect_2,3,16,-1,-1,0.815,0.13021195,-0.237872541,1,0,0,1.5387,Diorite_rect,3,1.539,1,7,0,7,0,1,,,,,,,,,,,,,
666dcc6d47ca746d72d77e34,TCN,2024-06-21_13h49.06.195,LearnStrategy,2023.2.3,MacIntel,128.2051282,2,1,9,-0.026464844,-0.001197193,1,0,0,1.0301,rock_grid_rect_2,7,04,-1,-1,1.03,-0.143207465,-0.410163484,1,0,0,8.2,Pegmatite_rect,6,8.2,0,8,0,8,0,1,,,,,,,,,,,,,
666dcc6d47ca746d72d77e34,TCN,2024-06-21_13h49.06.195,LearnStrategy,2023.2.3,MacIntel,128.2051282,2,1,10,0.048549624,0.012214265,1,0,0,0.9554,rock_grid_rect_2,8,02,-1,-1,0.955,0.363161892,-0.407291667,1,0,0,1.545,Pumice_rect,8,1.545,1,9,0,9,0,1,,,,,,,,,,,,,
666dcc6d47ca746d72d77e34,TCN,2024-06-21_13h49.06.195,LearnStrategy,2023.2.3,MacIntel,128.2051282,2,1,11,0.019791667,0.014236111,1,0,0,0.764,rock_grid_rect_2,5,07,-1,-1,0.764,-0.382816117,-0.40666956,1,0,0,1.2583,Obsidian_rect,5,1.258,1,10,0,10,0,1,,,,,,,,,,,,,
666dcc6d47ca746d72d77e34,TCN,2024-06-21_13h49.06.195,LearnStrategy,2023.2.3,MacIntel,128.2051282,2,1,12,0.032852286,-0.00406901,1,0,0,1.3722,rock_grid_rect_2,8,10,-1,-1,1.372,0.37197989,-0.403873698,1,0,0,1.3516,Pumice_rect,8,1.352,1,11,0,11,0,1,,,,,,,,,,,,,
666dcc6d47ca746d72d77e34,TCN,2024-06-21_13h49.06.195,LearnStrategy,2023.2.3,MacIntel,128.2051282,2,1,13,0.008959057,0.004148582,1,0,0,0.7382,rock_grid_rect_2,3,13,-1,-1,0.738,0.134877749,-0.234555845,1,0,0,1.2849,Diorite_rect,3,1.285,1,12,0,12,0,1,,,,,,,,,,,,,
666dcc6d47ca746d72d77e34,TCN,2024-06-21_13h49.06.195,LearnStrategy,2023.2.3,MacIntel,128.2051282,2,1,14,-0.019911024,-0.007624421,1,0,0,0.7805,rock_grid_rect_2,2,02,-1,-1,0.78,-0.148177083,-0.239369936,1,0,0,3.0134,Basalt_rect,2,3.013,1,13,0,13,0,1,,,,,,,,,,,,,
666dcc6d47ca746d72d77e34,TCN,2024-06-21_13h49.06.195,LearnStrategy,2023.2.3,MacIntel,128.2051282,2,1,15,-0.000325521,-0.009382234,1,0,0,1.4057,rock_grid_rect_2,6,08,-1,-1,1.406,0.052072483,-0.406058304,1,0,0,3.4798,Peridotite_rect,7,3.48,0,14,0,14,0,1,,,,,,,,,,,,,
666dcc6d47ca746d72d77e34,TCN,2024-06-21_13h49.06.195,LearnStrategy,2023.2.3,MacIntel,128.2051282,2,1,16,-0.051443142,0.003219039,1,0,0,1.022,rock_grid_rect_2,4,14,-1,-1,1.022,0.301052517,-0.269835069,1,0,0,10.668,Gabbro_rect,4,10.668,1,15,0,15,0,1,,,,,,,,,,,,,
666dcc6d47ca746d72d77e34,TCN,2024-06-21_13h49.06.195,LearnStrategy,2023.2.3,MacIntel,128.2051282,2,2,1,,,,,,,,5,08,,,,,,,,,,,5,1.542,1,,,,,,-0.414037182,-0.390371817,1,0,0,1.5416,Obsidian_rect,0,0,0,0,1,
666dcc6d47ca746d72d77e34,TCN,2024-06-21_13h49.06.195,LearnStrategy,2023.2.3,MacIntel,128.2051282,2,2,2,,,,,,,,1,07,,,,,,,,,,,1,1.734,1,,,,,,-0.316203704,-0.247377749,1,0,0,1.7341,Andesite_rect,1,0,1,0,1,
666dcc6d47ca746d72d77e34,TCN,2024-06-21_13h49.06.195,LearnStrategy,2023.2.3,MacIntel,128.2051282,2,2,3,,,,,,,,8,04,,,,,,,,,,,8,1.283,1,,,,,,0.343001302,-0.38521412,1,0,0,1.2834,Pumice_rect,2,0,2,0,1,
666dcc6d47ca746d72d77e34,TCN,2024-06-21_13h49.06.195,LearnStrategy,2023.2.3,MacIntel,128.2051282,2,2,4,,,,,,,,7,10,,,,,,,,,,,6,6.93,0,,,,,,-0.06433015,-0.406655093,1,0,0,6.9305,Pegmatite_rect,3,0,3,0,1,
666dcc6d47ca746d72d77e34,TCN,2024-06-21_13h49.06.195,LearnStrategy,2023.2.3,MacIntel,128.2051282,2,2,5,,,,,,,,8,03,,,,,,,,,,,8,2.113,1,,,,,,0.376642072,-0.401855469,1,0,0,2.1126,Pumice_rect,4,0,4,0,1,
666dcc6d47ca746d72d77e34,TCN,2024-06-21_13h49.06.195,LearnStrategy,2023.2.3,MacIntel,128.2051282,2,2,6,,,,,,,,5,14,,,,,,,,,,,5,1.283,1,,,,,,-0.329600694,-0.417979601,1,0,0,1.2834,Obsidian_rect,5,0,5,0,1,
666dcc6d47ca746d72d77e34,TCN,2024-06-21_13h49.06.195,LearnStrategy,2023.2.3,MacIntel,128.2051282,2,2,7,,,,,,,,4,05,,,,,,,,,,,6,13.617,0,,,,,,-0.050394242,-0.413823785,1,0,0,13.6165,Pegmatite_rect,6,0,6,0,1,
666dcc6d47ca746d72d77e34,TCN,2024-06-21_13h49.06.195,LearnStrategy,2023.2.3,MacIntel,128.2051282,2,2,8,,,,,,,,6,05,,,,,,,,,,,7,5.534,0,,,,,,0.113082321,-0.398766638,1,0,0,5.5337,Peridotite_rect,7,0,7,0,1,
666dcc6d47ca746d72d77e34,TCN,2024-06-21_13h49.06.195,LearnStrategy,2023.2.3,MacIntel,128.2051282,2,2,9,,,,,,,,3,14,,,,,,,,,,,3,4.367,1,,,,,,0.098882378,-0.258977141,1,0,0,4.3673,Diorite_rect,8,0,8,0,1,
666dcc6d47ca746d72d77e34,TCN,2024-06-21_13h49.06.195,LearnStrategy,2023.2.3,MacIntel,128.2051282,2,2,10,,,,,,,,6,16,,,,,,,,,,,7,8.05,0,,,,,,0.119603588,-0.384458189,1,0,0,8.0502,Peridotite_rect,9,0,9,0,1,
666dcc6d47ca746d72d77e34,TCN,2024-06-21_13h49.06.195,LearnStrategy,2023.2.3,MacIntel,128.2051282,2,2,11,,,,,,,,4,03,,,,,,,,,,,4,2.75,1,,,,,,0.391026476,-0.242881944,1,0,0,2.7495,Gabbro_rect,10,0,10,0,1,
666dcc6d47ca746d72d77e34,TCN,2024-06-21_13h49.06.195,LearnStrategy,2023.2.3,MacIntel,128.2051282,2,2,12,,,,,,,,1,14,,,,,,,,,,,1,2.625,1,,,,,,-0.331210214,-0.260246672,1,0,0,2.625,Andesite_rect,11,0,11,0,1,
666dcc6d47ca746d72d77e34,TCN,2024-06-21_13h49.06.195,LearnStrategy,2023.2.3,MacIntel,128.2051282,2,2,13,,,,,,,,7,07,,,,,,,,,,,1,7.95,0,,,,,,-0.384848814,-0.262948495,1,0,0,7.9501,Andesite_rect,12,0,12,0,1,
666dcc6d47ca746d72d77e34,TCN,2024-06-21_13h49.06.195,LearnStrategy,2023.2.3,MacIntel,128.2051282,2,2,14,,,,,,,,2,11,,,,,,,,,,,2,3.474,1,,,,,,-0.124312789,-0.251895255,1,0,0,3.4745,Basalt_rect,13,0,13,0,1,
666dcc6d47ca746d72d77e34,TCN,2024-06-21_13h49.06.195,LearnStrategy,2023.2.3,MacIntel,128.2051282,2,2,15,,,,,,,,3,09,,,,,,,,,,,3,1.349,1,,,,,,0.179810475,-0.25921224,1,0,0,1.3493,Diorite_rect,14,0,14,0,1,
666dcc6d47ca746d72d77e34,TCN,2024-06-21_13h49.06.195,LearnStrategy,2023.2.3,MacIntel,128.2051282,2,2,16,,,,,,,,2,04,,,,,,,,,,,2,1.059,1,,,,,,-0.16724537,-0.247858796,1,0,0,1.0587,Basalt_rect,15,0,15,0,1,
666dcc6d47ca746d72d77e34,TCN,2024-06-21_13h49.06.195,LearnStrategy,2023.2.3,MacIntel,128.2051282,3,1,1,-0.018561921,0.014536314,1,0,0,0.9764,rock_grid_rect_2,7,16,-1,-1,0.976,0.032837818,-0.390614149,1,0,0,6.2698,Peridotite_rect,7,6.27,1,0,0,0,0,1,,,,,,,,,,,,,
666dcc6d47ca746d72d77e34,TCN,2024-06-21_13h49.06.195,LearnStrategy,2023.2.3,MacIntel,128.2051282,3,1,2,0.023419416,0.013639323,1,0,0,1.7398,rock_grid_rect_2,3,06,-1,-1,1.74,0.108919271,-0.237887008,1,0,0,3.2472,Diorite_rect,3,3.247,1,1,0,1,0,1,,,,,,,,,,,,,
666dcc6d47ca746d72d77e34,TCN,2024-06-21_13h49.06.195,LearnStrategy,2023.2.3,MacIntel,128.2051282,3,1,3,0.045128038,0.010966435,1,0,0,1.1052,rock_grid_rect_2,2,12,-1,-1,1.105,0.454785156,-0.389850984,1,0,0,1.2381,Pumice_rect,8,1.238,0,2,0,2,0,1,,,,,,,,,,,,,
666dcc6d47ca746d72d77e34,TCN,2024-06-21_13h49.06.195,LearnStrategy,2023.2.3,MacIntel,128.2051282,3,1,4,0.105074508,-0.021133536,1,0,0,0.972,rock_grid_rect_2,5,05,-1,-1,0.972,-0.344238281,-0.388990162,1,0,0,2.761,Obsidian_rect,5,2.761,1,3,0,3,0,1,,,,,,,,,,,,,
666dcc6d47ca746d72d77e34,TCN,2024-06-21_13h49.06.195,LearnStrategy,2023.2.3,MacIntel,128.2051282,3,1,5,0.034762008,0.003030961,1,0,0,1.6561,rock_grid_rect_2,1,16,-1,-1,1.656,-0.33755787,-0.249674479,1,0,0,3.7842,Andesite_rect,1,3.784,1,4,0,4,0,1,,,,,,,,,,,,,
666dcc6d47ca746d72d77e34,TCN,2024-06-21_13h49.06.195,LearnStrategy,2023.2.3,MacIntel,128.2051282,3,1,6,0.082128906,0.011291956,1,0,0,1.4551,rock_grid_rect_2,4,10,-1,-1,1.455,-0.106268084,-0.398520689,1,0,0,2.7355,Pegmatite_rect,6,2.736,0,5,0,5,0,1,,,,,,,,,,,,,
666dcc6d47ca746d72d77e34,TCN,2024-06-21_13h49.06.195,LearnStrategy,2023.2.3,MacIntel,128.2051282,3,1,7,0.071603733,-0.004607928,1,0,0,0.8306,rock_grid_rect_2,3,02,-1,-1,0.831,0.131380208,-0.229904514,1,0,0,1.1516,Diorite_rect,3,1.152,1,6,0,6,0,1,,,,,,,,,,,,,
666dcc6d47ca746d72d77e34,TCN,2024-06-21_13h49.06.195,LearnStrategy,2023.2.3,MacIntel,128.2051282,3,1,8,0.083854167,0.009523293,1,0,0,0.6893,rock_grid_rect_2,8,15,-1,-1,0.689,0.363284867,-0.414803964,1,0,0,1.2191,Pumice_rect,8,1.219,1,7,0,7,0,1,,,,,,,,,,,,,
666dcc6d47ca746d72d77e34,TCN,2024-06-21_13h49.06.195,LearnStrategy,2023.2.3,MacIntel,128.2051282,3,1,9,0.04307364,0.013559751,1,0,0,1.0976,rock_grid_rect_2,6,07,-1,-1,1.098,-0.108778212,-0.419802517,1,0,0,2.2393,Pegmatite_rect,6,2.239,1,8,0,8,0,1,,,,,,,,,,,,,
666dcc6d47ca746d72d77e34,TCN,2024-06-21_13h49.06.195,LearnStrategy,2023.2.3,MacIntel,128.2051282,3,1,10,0.045504196,-0.019267216,1,0,0,0.855,rock_grid_rect_2,4,08,-1,-1,0.855,0.352416088,-0.2552011,1,0,0,2.801,Gabbro_rect,4,2.801,1,9,0,9,0,1,,,,,,,,,,,,,
666dcc6d47ca746d72d77e34,TCN,2024-06-21_13h49.06.195,LearnStrategy,2023.2.3,MacIntel,128.2051282,3,1,11,-0.019440828,-0.019270833,1,0,0,1.6464,rock_grid_rect_2,5,04,-1,-1,1.646,-0.399877025,-0.403114149,1,0,0,1.5053,Obsidian_rect,5,1.505,1,10,0,10,0,1,,,,,,,,,,,,,
666dcc6d47ca746d72d77e34,TCN,2024-06-21_13h49.06.195,LearnStrategy,2023.2.3,MacIntel,128.2051282,3,1,12,0.038993779,-0.00453559,1,0,0,1.1974,rock_grid_rect_2,1,03,-1,-1,1.197,-0.088863571,-0.238892506,1,0,0,1.8763,Basalt_rect,2,1.876,0,11,0,11,0,1,,,,,,,,,,,,,
666dcc6d47ca746d72d77e34,TCN,2024-06-21_13h49.06.195,LearnStrategy,2023.2.3,MacIntel,128.2051282,3,1,13,0.063921441,-0.00844184,1,0,0,1.3548,rock_grid_rect_2,2,05,-1,-1,1.355,-0.156734664,-0.256937211,1,0,0,6.9681,Basalt_rect,2,6.968,1,12,0,12,0,1,,,,,,,,,,,,,
666dcc6d47ca746d72d77e34,TCN,2024-06-21_13h49.06.195,LearnStrategy,2023.2.3,MacIntel,128.2051282,3,1,14,-0.000245949,0.020880353,1,0,0,0.6978,rock_grid_rect_2,8,06,-1,-1,0.698,0.368529369,-0.401649306,1,0,0,1.339,Pumice_rect,8,1.339,1,13,0,13,0,1,,,,,,,,,,,,,
666dcc6d47ca746d72d77e34,TCN,2024-06-21_13h49.06.195,LearnStrategy,2023.2.3,MacIntel,128.2051282,3,1,15,0.026034433,-0.007530382,1,0,0,0.864,rock_grid_rect_2,6,13,-1,-1,0.864,-0.156832321,-0.413346354,1,0,0,4.3759,Pegmatite_rect,6,4.376,1,14,0,14,0,1,,,,,,,,,,,,,
666dcc6d47ca746d72d77e34,TCN,2024-06-21_13h49.06.195,LearnStrategy,2023.2.3,MacIntel,128.2051282,3,1,16,-0.055407263,-0.000188079,1,0,0,0.8727,rock_grid_rect_2,7,12,-1,-1,0.873,0.100918692,-0.386454716,1,0,0,3.4759,Peridotite_rect,7,3.476,1,15,0,15,0,1,,,,,,,,,,,,,
666dcc6d47ca746d72d77e34,TCN,2024-06-21_13h49.06.195,LearnStrategy,2023.2.3,MacIntel,128.2051282,3,2,1,,,,,,,,1,09,,,,,,,,,,,1,7.55,1,,,,,,-0.303620515,-0.24827474,1,0,0,7.5503,Andesite_rect,0,0,0,0,1,
666dcc6d47ca746d72d77e34,TCN,2024-06-21_13h49.06.195,LearnStrategy,2023.2.3,MacIntel,128.2051282,3,2,2,,,,,,,,2,06,,,,,,,,,,,5,1.217,0,,,,,,-0.375712529,-0.413509115,1,0,0,1.2172,Obsidian_rect,1,0,1,0,1,
666dcc6d47ca746d72d77e34,TCN,2024-06-21_13h49.06.195,LearnStrategy,2023.2.3,MacIntel,128.2051282,3,2,3,,,,,,,,5,10,,,,,,,,,,,5,2.2,1,,,,,,-0.383796296,-0.410568576,1,0,0,2.2,Obsidian_rect,2,0,2,0,1,
666dcc6d47ca746d72d77e34,TCN,2024-06-21_13h49.06.195,LearnStrategy,2023.2.3,MacIntel,128.2051282,3,2,4,,,,,,,,5,12,,,,,,,,,,,5,1.051,1,,,,,,-0.402206308,-0.396676071,1,0,0,1.0511,Obsidian_rect,3,0,3,0,1,
666dcc6d47ca746d72d77e34,TCN,2024-06-21_13h49.06.195,LearnStrategy,2023.2.3,MacIntel,128.2051282,3,2,5,,,,,,,,3,15,,,,,,,,,,,7,5.459,0,,,,,,0.109776476,-0.394104456,1,0,0,5.4591,Peridotite_rect,4,0,4,0,1,
666dcc6d47ca746d72d77e34,TCN,2024-06-21_13h49.06.195,LearnStrategy,2023.2.3,MacIntel,128.2051282,3,2,6,,,,,,,,2,10,,,,,,,,,,,5,1.168,0,,,,,,-0.366630498,-0.400036169,1,0,0,1.1681,Obsidian_rect,5,0,5,0,1,
666dcc6d47ca746d72d77e34,TCN,2024-06-21_13h49.06.195,LearnStrategy,2023.2.3,MacIntel,128.2051282,3,2,7,,,,,,,,1,02,,,,,,,,,,,1,5.101,1,,,,,,-0.391760706,-0.258029514,1,0,0,5.1012,Andesite_rect,6,0,6,0,1,
666dcc6d47ca746d72d77e34,TCN,2024-06-21_13h49.06.195,LearnStrategy,2023.2.3,MacIntel,128.2051282,3,2,8,,,,,,,,4,15,,,,,,,,,,,1,1.341,0,,,,,,-0.34239728,-0.256137876,1,0,0,1.3414,Andesite_rect,7,0,7,0,1,
666dcc6d47ca746d72d77e34,TCN,2024-06-21_13h49.06.195,LearnStrategy,2023.2.3,MacIntel,128.2051282,3,2,9,,,,,,,,6,06,,,,,,,,,,,6,1.397,1,,,,,,-0.183467159,-0.416739005,1,0,0,1.397,Pegmatite_rect,8,0,8,0,1,
666dcc6d47ca746d72d77e34,TCN,2024-06-21_13h49.06.195,LearnStrategy,2023.2.3,MacIntel,128.2051282,3,2,10,,,,,,,,8,09,,,,,,,,,,,8,1.183,1,,,,,,0.401783131,-0.418272569,1,0,0,1.1833,Pumice_rect,9,0,9,0,1,
666dcc6d47ca746d72d77e34,TCN,2024-06-21_13h49.06.195,LearnStrategy,2023.2.3,MacIntel,128.2051282,3,2,11,,,,,,,,7,13,,,,,,,,,,,6,10.075,0,,,,,,-0.070855035,-0.417617911,1,0,0,10.0754,Pegmatite_rect,10,0,10,0,1,
666dcc6d47ca746d72d77e34,TCN,2024-06-21_13h49.06.195,LearnStrategy,2023.2.3,MacIntel,128.2051282,3,2,12,,,,,,,,7,15,,,,,,,,,,,7,3.005,1,,,,,,0.150969329,-0.419408275,1,0,0,3.0049,Peridotite_rect,11,0,11,0,1,
666dcc6d47ca746d72d77e34,TCN,2024-06-21_13h49.06.195,LearnStrategy,2023.2.3,MacIntel,128.2051282,3,2,13,,,,,,,,6,12,,,,,,,,,,,3,2.047,0,,,,,,0.15563151,-0.269155093,1,0,0,2.0473,Diorite_rect,12,0,12,0,1,
666dcc6d47ca746d72d77e34,TCN,2024-06-21_13h49.06.195,LearnStrategy,2023.2.3,MacIntel,128.2051282,3,2,14,,,,,,,,8,13,,,,,,,,,,,8,1.36,1,,,,,,0.374884259,-0.389898003,1,0,0,1.3596,Pumice_rect,13,0,13,0,1,
666dcc6d47ca746d72d77e34,TCN,2024-06-21_13h49.06.195,LearnStrategy,2023.2.3,MacIntel,128.2051282,3,2,15,,,,,,,,4,16,,,,,,,,,,,4,3.643,1,,,,,,0.410930266,-0.234045862,1,0,0,3.6432,Gabbro_rect,14,0,14,0,1,
666dcc6d47ca746d72d77e34,TCN,2024-06-21_13h49.06.195,LearnStrategy,2023.2.3,MacIntel,128.2051282,3,2,16,,,,,,,,3,07,,,,,,,,,,,3,1.435,1,,,,,,0.14854239,-0.248668981,1,0,0,1.4349,Diorite_rect,15,0,15,0,1,
666dcc6d47ca746d72d77e34,TCN,2024-06-21_13h49.06.195,LearnStrategy,2023.2.3,MacIntel,128.2051282,4,1,1,0.0145761,-0.014246962,1,0,0,0.9437,rock_grid_rect_2,6,07,-1,-1,0.944,-0.169835069,-0.401370804,1,0,0,1.5138,Pegmatite_rect,6,1.514,1,0,0,0,0,1,,,,,,,,,,,,,
666dcc6d47ca746d72d77e34,TCN,2024-06-21_13h49.06.195,LearnStrategy,2023.2.3,MacIntel,128.2051282,4,1,2,-0.009226707,-0.003837529,1,0,0,1.7388,rock_grid_rect_2,8,10,-1,-1,1.739,0.376197193,-0.398404948,1,0,0,1.3423,Pumice_rect,8,1.342,1,1,0,1,0,1,,,,,,,,,,,,,
666dcc6d47ca746d72d77e34,TCN,2024-06-21_13h49.06.195,LearnStrategy,2023.2.3,MacIntel,128.2051282,4,1,3,-0.040621383,-0.003027344,1,0,0,1.2397,rock_grid_rect_2,2,05,-1,-1,1.24,-0.088093171,-0.255052807,1,0,0,4.3524,Basalt_rect,2,4.352,1,2,0,2,0,1,,,,,,,,,,,,,
666dcc6d47ca746d72d77e34,TCN,2024-06-21_13h49.06.195,LearnStrategy,2023.2.3,MacIntel,128.2051282,4,1,4,-0.015086082,-0.001779514,1,0,0,0.8137,rock_grid_rect_2,3,06,-1,-1,0.814,0.156752749,-0.247334346,1,0,0,3.4762,Diorite_rect,3,3.476,1,3,0,3,0,1,,,,,,,,,,,,,
666dcc6d47ca746d72d77e34,TCN,2024-06-21_13h49.06.195,LearnStrategy,2023.2.3,MacIntel,128.2051282,4,1,5,0.051935041,0.003356481,1,0,0,1.2052,rock_grid_rect_2,7,05,-1,-1,1.205,0.082566551,-0.412923177,1,0,0,4.6606,Peridotite_rect,7,4.661,1,4,0,4,0,1,,,,,,,,,,,,,
666dcc6d47ca746d72d77e34,TCN,2024-06-21_13h49.06.195,LearnStrategy,2023.2.3,MacIntel,128.2051282,4,1,6,0.028967737,0.001092303,1,0,0,0.8466,rock_grid_rect_2,1,16,-1,-1,0.847,-0.367017506,-0.252712674,1,0,0,2.0509,Andesite_rect,1,2.051,1,5,0,5,0,1,,,,,,,,,,,,,
666dcc6d47ca746d72d77e34,TCN,2024-06-21_13h49.06.195,LearnStrategy,2023.2.3,MacIntel,128.2051282,4,1,7,-0.020518663,-0.010402199,1,0,0,0.8136,rock_grid_rect_2,4,13,-1,-1,0.814,0.336382378,-0.247851563,1,0,0,2.6612,Gabbro_rect,4,2.661,1,6,0,6,0,1,,,,,,,,,,,,,
666dcc6d47ca746d72d77e34,TCN,2024-06-21_13h49.06.195,LearnStrategy,2023.2.3,MacIntel,128.2051282,4,1,8,-0.005931713,0.00775463,1,0,0,1.1397,rock_grid_rect_2,3,16,-1,-1,1.14,0.149866175,-0.243055556,1,0,0,1.0925,Diorite_rect,3,1.093,1,7,0,7,0,1,,,,,,,,,,,,,
666dcc6d47ca746d72d77e34,TCN,2024-06-21_13h49.06.195,LearnStrategy,2023.2.3,MacIntel,128.2051282,4,1,9,0.036454716,-0.011096644,1,0,0,0.798,rock_grid_rect_2,8,15,-1,-1,0.798,0.360409433,-0.407172309,1,0,0,1.0104,Pumice_rect,8,1.01,1,8,0,8,0,1,,,,,,,,,,,,,
666dcc6d47ca746d72d77e34,TCN,2024-06-21_13h49.06.195,LearnStrategy,2023.2.3,MacIntel,128.2051282,4,1,10,-0.012622975,-0.00770761,1,0,0,0.6898,rock_grid_rect_2,5,07,-1,-1,0.69,-0.320486111,-0.402625868,1,0,0,1.0263,Obsidian_rect,5,1.026,1,9,0,9,0,1,,,,,,,,,,,,,
666dcc6d47ca746d72d77e34,TCN,2024-06-21_13h49.06.195,LearnStrategy,2023.2.3,MacIntel,128.2051282,4,1,11,-0.000690828,-0.011234086,1,0,0,0.5892,rock_grid_rect_2,5,11,-1,-1,0.589,-0.397486256,-0.393905527,1,0,0,1.018,Obsidian_rect,5,1.018,1,10,0,10,0,1,,,,,,,,,,,,,
666dcc6d47ca746d72d77e34,TCN,2024-06-21_13h49.06.195,LearnStrategy,2023.2.3,MacIntel,128.2051282,4,1,12,0.01108941,0.006329572,1,0,0,0.5727,rock_grid_rect_2,4,01,-1,-1,0.573,-0.357617187,-0.264388021,1,0,0,7.3626,Andesite_rect,1,7.363,0,11,0,11,0,1,,,,,,,,,,,,,
666dcc6d47ca746d72d77e34,TCN,2024-06-21_13h49.06.195,LearnStrategy,2023.2.3,MacIntel,128.2051282,4,1,13,-0.011537905,-0.005664062,1,0,0,1.072,rock_grid_rect_2,2,01,-1,-1,1.072,-0.067827691,-0.262127459,1,0,0,1.0427,Basalt_rect,2,1.043,1,12,0,12,0,1,,,,,,,,,,,,,
666dcc6d47ca746d72d77e34,TCN,2024-06-21_13h49.06.195,LearnStrategy,2023.2.3,MacIntel,128.2051282,4,1,14,0.038067853,0.009378617,1,0,0,0.5564,rock_grid_rect_2,1,10,-1,-1,0.556,0.364008247,-0.4046875,1,0,0,3.4503,Pumice_rect,8,3.45,0,13,0,13,0,1,,,,,,,,,,,,,
666dcc6d47ca746d72d77e34,TCN,2024-06-21_13h49.06.195,LearnStrategy,2023.2.3,MacIntel,128.2051282,4,1,15,0.021914786,0.003645833,1,0,0,0.8137,rock_grid_rect_2,6,10,-1,-1,0.814,-0.116901765,-0.39666522,1,0,0,1.328,Pegmatite_rect,6,1.328,1,14,0,14,0,1,,,,,,,,,,,,,
666dcc6d47ca746d72d77e34,TCN,2024-06-21_13h49.06.195,LearnStrategy,2023.2.3,MacIntel,128.2051282,4,1,16,0.007045718,0.004307726,1,0,0,0.6639,rock_grid_rect_2,7,04,-1,-1,0.664,-0.12255136,-0.415823929,1,0,0,2.8222,Pegmatite_rect,6,2.822,0,15,0,15,0,1,,,,,,,,,,,,,
666dcc6d47ca746d72d77e34,TCN,2024-06-21_13h49.06.195,LearnStrategy,2023.2.3,MacIntel,128.2051282,4,2,1,,,,,,,,8,08,,,,,,,,,,,8,1.618,1,,,,,,0.35787037,-0.404539207,1,0,0,1.6176,Pumice_rect,0,0,0,0,1,
666dcc6d47ca746d72d77e34,TCN,2024-06-21_13h49.06.195,LearnStrategy,2023.2.3,MacIntel,128.2051282,4,2,2,,,,,,,,2,06,,,,,,,,,,,5,5.709,0,,,,,,-0.332910156,-0.392755353,1,0,0,5.7092,Obsidian_rect,1,0,1,0,1,
666dcc6d47ca746d72d77e34,TCN,2024-06-21_13h49.06.195,LearnStrategy,2023.2.3,MacIntel,128.2051282,4,2,3,,,,,,,,7,06,,,,,,,,,,,6,5.816,0,,,,,,-0.026754196,-0.404709201,1,0,0,5.8164,Pegmatite_rect,2,0,2,0,1,
666dcc6d47ca746d72d77e34,TCN,2024-06-21_13h49.06.195,LearnStrategy,2023.2.3,MacIntel,128.2051282,4,2,4,,,,,,,,7,14,,,,,,,,,,,7,3.893,1,,,,,,0.152643953,-0.390494792,1,0,0,3.8925,Peridotite_rect,3,0,3,0,1,
666dcc6d47ca746d72d77e34,TCN,2024-06-21_13h49.06.195,LearnStrategy,2023.2.3,MacIntel,128.2051282,4,2,5,,,,,,,,3,09,,,,,,,,,,,3,1.192,1,,,,,,0.115165654,-0.256835938,1,0,0,1.1923,Diorite_rect,4,0,4,0,1,
666dcc6d47ca746d72d77e34,TCN,2024-06-21_13h49.06.195,LearnStrategy,2023.2.3,MacIntel,128.2051282,4,2,6,,,,,,,,4,16,,,,,,,,,,,2,4.639,0,,,,,,-0.131998698,-0.262416811,1,0,0,4.6393,Basalt_rect,5,0,5,0,1,
666dcc6d47ca746d72d77e34,TCN,2024-06-21_13h49.06.195,LearnStrategy,2023.2.3,MacIntel,128.2051282,4,2,7,,,,,,,,5,16,,,,,,,,,,,5,1.133,1,,,,,,-0.370554832,-0.390487558,1,0,0,1.1329,Obsidian_rect,6,0,6,0,1,
666dcc6d47ca746d72d77e34,TCN,2024-06-21_13h49.06.195,LearnStrategy,2023.2.3,MacIntel,128.2051282,4,2,8,,,,,,,,2,04,,,,,,,,,,,2,1.008,1,,,,,,-0.127756076,-0.265679253,1,0,0,1.0084,Basalt_rect,7,0,7,0,1,
666dcc6d47ca746d72d77e34,TCN,2024-06-21_13h49.06.195,LearnStrategy,2023.2.3,MacIntel,128.2051282,4,2,9,,,,,,,,6,03,,,,,,,,,,,6,1.883,1,,,,,,-0.057848669,-0.419476997,1,0,0,1.883,Pegmatite_rect,8,0,8,0,1,
666dcc6d47ca746d72d77e34,TCN,2024-06-21_13h49.06.195,LearnStrategy,2023.2.3,MacIntel,128.2051282,4,2,10,,,,,,,,1,02,,,,,,,,,,,1,4.548,1,,,,,,-0.332826968,-0.26260489,1,0,0,4.5477,Andesite_rect,9,0,9,0,1,
666dcc6d47ca746d72d77e34,TCN,2024-06-21_13h49.06.195,LearnStrategy,2023.2.3,MacIntel,128.2051282,4,2,11,,,,,,,,5,12,,,,,,,,,,,5,1.685,1,,,,,,-0.384487124,-0.408304398,1,0,0,1.6845,Obsidian_rect,10,0,10,0,1,
666dcc6d47ca746d72d77e34,TCN,2024-06-21_13h49.06.195,LearnStrategy,2023.2.3,MacIntel,128.2051282,4,2,12,,,,,,,,8,13,,,,,,,,,,,8,1.751,1,,,,,,0.387420428,-0.412431279,1,0,0,1.7513,Pumice_rect,11,0,11,0,1,
666dcc6d47ca746d72d77e34,TCN,2024-06-21_13h49.06.195,LearnStrategy,2023.2.3,MacIntel,128.2051282,4,2,13,,,,,,,,6,12,,,,,,,,,,,7,6.684,0,,,,,,0.11500651,-0.399254919,1,0,0,6.6841,Peridotite_rect,12,0,12,0,1,
666dcc6d47ca746d72d77e34,TCN,2024-06-21_13h49.06.195,LearnStrategy,2023.2.3,MacIntel,128.2051282,4,2,14,,,,,,,,1,01,,,,,,,,,,,1,4.08,1,,,,,,-0.343851273,-0.258449074,1,0,0,4.0801,Andesite_rect,13,0,13,0,1,
666dcc6d47ca746d72d77e34,TCN,2024-06-21_13h49.06.195,LearnStrategy,2023.2.3,MacIntel,128.2051282,4,2,15,,,,,,,,3,10,,,,,,,,,,,4,6.077,0,,,,,,0.444422743,-0.23708044,1,0,0,6.0772,Gabbro_rect,14,0,14,0,1,
666dcc6d47ca746d72d77e34,TCN,2024-06-21_13h49.06.195,LearnStrategy,2023.2.3,MacIntel,128.2051282,4,2,16,,,,,,,,4,09,,,,,,,,,,,1,7.8,0,,,,,,-0.473817274,-0.257338686,1,0,0,7.8004,Andesite_rect,15,0,15,0,1,
666dcc6d47ca746d72d77e34,TCN,2024-06-21_13h49.06.195,LearnStrategy,2023.2.3,MacIntel,128.2051282,5,1,1,0.015816696,0.014601418,1,0,0,1.9877,rock_grid_rect_2,4,14,-1,-1,1.988,0.338284867,-0.26125217,1,0,0,7.0931,Gabbro_rect,4,7.093,1,0,0,0,0,1,,,,,,,,,,,,,
666dcc6d47ca746d72d77e34,TCN,2024-06-21_13h49.06.195,LearnStrategy,2023.2.3,MacIntel,128.2051282,5,1,2,0.017679398,-0.007436343,1,0,0,1.4975,rock_grid_rect_2,6,08,-1,-1,1.498,-0.119259983,-0.385532407,1,0,0,1.3708,Pegmatite_rect,6,1.371,1,1,0,1,0,1,,,,,,,,,,,,,
666dcc6d47ca746d72d77e34,TCN,2024-06-21_13h49.06.195,LearnStrategy,2023.2.3,MacIntel,128.2051282,5,1,3,-0.02635272,-0.016167535,1,0,0,1.0302,rock_grid_rect_2,3,11,-1,-1,1.03,0.134400318,-0.246412037,1,0,0,2.3854,Diorite_rect,3,2.385,1,2,0,2,0,1,,,,,,,,,,,,,
666dcc6d47ca746d72d77e34,TCN,2024-06-21_13h49.06.195,LearnStrategy,2023.2.3,MacIntel,128.2051282,5,1,4,0.062915943,-0.020240162,1,0,0,0.8393,rock_grid_rect_2,3,02,-1,-1,0.839,0.150810185,-0.271158854,1,0,0,1.2843,Diorite_rect,3,1.284,1,3,0,3,0,1,,,,,,,,,,,,,
666dcc6d47ca746d72d77e34,TCN,2024-06-21_13h49.06.195,LearnStrategy,2023.2.3,MacIntel,128.2051282,5,1,5,0.050173611,-0.006582755,1,0,0,0.6888,rock_grid_rect_2,7,12,-1,-1,0.689,0.117418981,-0.412333623,1,0,0,1.6666,Peridotite_rect,7,1.667,1,4,0,4,0,1,,,,,,,,,,,,,
666dcc6d47ca746d72d77e34,TCN,2024-06-21_13h49.06.195,LearnStrategy,2023.2.3,MacIntel,128.2051282,5,1,6,0.088903356,-0.022793692,1,0,0,0.6058,rock_grid_rect_2,1,03,-1,-1,0.606,-0.338111256,-0.256134259,1,0,0,2.0935,Andesite_rect,1,2.093,1,5,0,5,0,1,,,,,,,,,,,,,
666dcc6d47ca746d72d77e34,TCN,2024-06-21_13h49.06.195,LearnStrategy,2023.2.3,MacIntel,128.2051282,5,1,7,0.10061849,-0.000846354,1,0,0,0.6313,rock_grid_rect_2,2,16,-1,-1,0.631,-0.113226997,-0.2432364,1,0,0,2.097,Basalt_rect,2,2.097,1,6,0,6,0,1,,,,,,,,,,,,,
666dcc6d47ca746d72d77e34,TCN,2024-06-21_13h49.06.195,LearnStrategy,2023.2.3,MacIntel,128.2051282,5,1,8,0.004510272,-0.017021123,1,0,0,0.7558,rock_grid_rect_2,5,05,-1,-1,0.756,-0.302097801,-0.41108941,1,0,0,1.3535,Obsidian_rect,5,1.353,1,7,0,7,0,1,,,,,,,,,,,,,
666dcc6d47ca746d72d77e34,TCN,2024-06-21_13h49.06.195,LearnStrategy,2023.2.3,MacIntel,128.2051282,5,1,9,0.042827691,0.022804543,1,0,0,0.7884,rock_grid_rect_2,4,12,-1,-1,0.788,0.371014178,-0.236899595,1,0,0,1.7927,Gabbro_rect,4,1.793,1,8,0,8,0,1,,,,,,,,,,,,,
666dcc6d47ca746d72d77e34,TCN,2024-06-21_13h49.06.195,LearnStrategy,2023.2.3,MacIntel,128.2051282,5,1,10,0.081655093,0.005085359,1,0,0,0.697,rock_grid_rect_2,7,08,-1,-1,0.697,0.107042101,-0.404853877,1,0,0,6.7864,Peridotite_rect,7,6.786,1,9,0,9,0,1,,,,,,,,,,,,,
666dcc6d47ca746d72d77e34,TCN,2024-06-21_13h49.06.195,LearnStrategy,2023.2.3,MacIntel,128.2051282,5,1,11,0.12916305,0.014348235,1,0,0,0.6382,rock_grid_rect_2,6,15,-1,-1,0.638,-0.15531684,-0.384266493,1,0,0,1.6102,Pegmatite_rect,6,1.61,1,10,0,10,0,1,,,,,,,,,,,,,
666dcc6d47ca746d72d77e34,TCN,2024-06-21_13h49.06.195,LearnStrategy,2023.2.3,MacIntel,128.2051282,5,1,12,0.071332465,0.01858724,1,0,0,1.2811,rock_grid_rect_2,8,06,-1,-1,1.281,0.360268374,-0.404065394,1,0,0,1.4385,Pumice_rect,8,1.438,1,11,0,11,0,1,,,,,,,,,,,,,
666dcc6d47ca746d72d77e34,TCN,2024-06-21_13h49.06.195,LearnStrategy,2023.2.3,MacIntel,128.2051282,5,1,13,0.066804109,0.005906395,1,0,0,0.93,rock_grid_rect_2,2,12,-1,-1,0.93,-0.065538194,-0.239442274,1,0,0,2.9345,Basalt_rect,2,2.935,1,12,0,12,0,1,,,,,,,,,,,,,
666dcc6d47ca746d72d77e34,TCN,2024-06-21_13h49.06.195,LearnStrategy,2023.2.3,MacIntel,128.2051282,5,1,14,0.02271412,-0.021538628,1,0,0,0.815,rock_grid_rect_2,1,06,-1,-1,0.815,-0.400875289,-0.248104745,1,0,0,1.7264,Andesite_rect,1,1.726,1,13,0,13,0,1,,,,,,,,,,,,,
666dcc6d47ca746d72d77e34,TCN,2024-06-21_13h49.06.195,LearnStrategy,2023.2.3,MacIntel,128.2051282,5,1,15,0.048300058,-0.016623264,1,0,0,1.3297,rock_grid_rect_2,8,02,-1,-1,1.33,0.360767506,-0.408789063,1,0,0,2.1513,Pumice_rect,8,2.151,1,14,0,14,0,1,,,,,,,,,,,,,
666dcc6d47ca746d72d77e34,TCN,2024-06-21_13h49.06.195,LearnStrategy,2023.2.3,MacIntel,128.2051282,5,1,16,0.002412471,0.017632378,1,0,0,0.8965,rock_grid_rect_2,5,04,-1,-1,0.896,-0.336798322,-0.389800347,1,0,0,1.8086,Obsidian_rect,5,1.809,1,15,0,15,0,1,,,,,,,,,,,,,
666dcc6d47ca746d72d77e34,TCN,2024-06-21_13h49.06.195,LearnStrategy,2023.2.3,MacIntel,128.2051282,5,2,1,,,,,,,,3,07,,,,,,,,,,,3,3.601,1,,,,,,0.120363137,-0.258550347,1,0,0,3.6009,Diorite_rect,0,0,0,0,1,
666dcc6d47ca746d72d77e34,TCN,2024-06-21_13h49.06.195,LearnStrategy,2023.2.3,MacIntel,128.2051282,5,2,2,,,,,,,,6,06,,,,,,,,,,,6,1.866,1,,,,,,-0.122826244,-0.383456308,1,0,0,1.8663,Pegmatite_rect,1,0,1,0,1,
666dcc6d47ca746d72d77e34,TCN,2024-06-21_13h49.06.195,LearnStrategy,2023.2.3,MacIntel,128.2051282,5,2,3,,,,,,,,2,09,,,,,,,,,,,2,3.892,1,,,,,,-0.112344473,-0.261501736,1,0,0,3.892,Basalt_rect,2,0,2,0,1,
666dcc6d47ca746d72d77e34,TCN,2024-06-21_13h49.06.195,LearnStrategy,2023.2.3,MacIntel,128.2051282,5,2,4,,,,,,,,5,08,,,,,,,,,,,5,1.059,1,,,,,,-0.338042535,-0.414977575,1,0,0,1.0592,Obsidian_rect,3,0,3,0,1,
666dcc6d47ca746d72d77e34,TCN,2024-06-21_13h49.06.195,LearnStrategy,2023.2.3,MacIntel,128.2051282,5,2,5,,,,,,,,5,09,,,,,,,,,,,5,1.167,1,,,,,,-0.395247396,-0.407982494,1,0,0,1.1674,Obsidian_rect,4,0,4,0,1,
666dcc6d47ca746d72d77e34,TCN,2024-06-21_13h49.06.195,LearnStrategy,2023.2.3,MacIntel,128.2051282,5,2,6,,,,,,,,8,03,,,,,,,,,,,8,1.122,1,,,,,,0.333246528,-0.390632234,1,0,0,1.1216,Pumice_rect,5,0,5,0,1,
666dcc6d47ca746d72d77e34,TCN,2024-06-21_13h49.06.195,LearnStrategy,2023.2.3,MacIntel,128.2051282,5,2,7,,,,,,,,7,13,,,,,,,,,,,7,5.897,1,,,,,,0.11129919,-0.391648582,1,0,0,5.8968,Peridotite_rect,6,0,6,0,1,
666dcc6d47ca746d72d77e34,TCN,2024-06-21_13h49.06.195,LearnStrategy,2023.2.3,MacIntel,128.2051282,5,2,8,,,,,,,,1,11,,,,,,,,,,,1,5.369,1,,,,,,-0.317447917,-0.266290509,1,0,0,5.3686,Andesite_rect,7,0,7,0,1,
666dcc6d47ca746d72d77e34,TCN,2024-06-21_13h49.06.195,LearnStrategy,2023.2.3,MacIntel,128.2051282,5,2,9,,,,,,,,6,09,,,,,,,,,,,6,1.322,1,,,,,,-0.134364149,-0.411946615,1,0,0,1.3218,Pegmatite_rect,8,0,8,0,1,
666dcc6d47ca746d72d77e34,TCN,2024-06-21_13h49.06.195,LearnStrategy,2023.2.3,MacIntel,128.2051282,5,2,10,,,,,,,,1,09,,,,,,,,,,,1,1.385,1,,,,,,-0.336610243,-0.270742911,1,0,0,1.3854,Andesite_rect,9,0,9,0,1,
666dcc6d47ca746d72d77e34,TCN,2024-06-21_13h49.06.195,LearnStrategy,2023.2.3,MacIntel,128.2051282,5,2,11,,,,,,,,3,12,,,,,,,,,,,3,2.81,1,,,,,,0.108669705,-0.260094763,1,0,0,2.8102,Diorite_rect,10,0,10,0,1,
666dcc6d47ca746d72d77e34,TCN,2024-06-21_13h49.06.195,LearnStrategy,2023.2.3,MacIntel,128.2051282,5,2,12,,,,,,,,8,04,,,,,,,,,,,8,1.034,1,,,,,,0.384534144,-0.392784288,1,0,0,1.0337,Pumice_rect,11,0,11,0,1,
666dcc6d47ca746d72d77e34,TCN,2024-06-21_13h49.06.195,LearnStrategy,2023.2.3,MacIntel,128.2051282,5,2,13,,,,,,,,4,15,,,,,,,,,,,4,4.343,1,,,,,,0.363472946,-0.262579572,1,0,0,4.3429,Gabbro_rect,12,0,12,0,1,
666dcc6d47ca746d72d77e34,TCN,2024-06-21_13h49.06.195,LearnStrategy,2023.2.3,MacIntel,128.2051282,5,2,14,,,,,,,,7,07,,,,,,,,,,,7,2.946,1,,,,,,0.14942853,-0.412774884,1,0,0,2.9458,Peridotite_rect,13,0,13,0,1,
666dcc6d47ca746d72d77e34,TCN,2024-06-21_13h49.06.195,LearnStrategy,2023.2.3,MacIntel,128.2051282,5,2,15,,,,,,,,2,10,,,,,,,,,,,2,2.255,1,,,,,,-0.140722656,-0.244784433,1,0,0,2.2546,Basalt_rect,14,0,14,0,1,
666dcc6d47ca746d72d77e34,TCN,2024-06-21_13h49.06.195,LearnStrategy,2023.2.3,MacIntel,128.2051282,5,2,16,,,,,,,,4,05,,,,,,,,,,,1,5.926,0,,,,,,-0.375860822,-0.237930411,1,0,0,5.9258,Andesite_rect,15,0,15,0,1,
666dcc6d47ca746d72d77e34,TCN,2024-06-21_13h49.06.195,LearnStrategy,2023.2.3,MacIntel,128.2051282,6,1,1,-0.02932581,-0.024898727,1,0,0,1.1265,rock_grid_rect_2,3,08,-1,-1,1.127,0.105273437,-0.251077836,1,0,0,1.2103,Diorite_rect,3,1.21,1,0,0,0,0,1,,,,,,,,,,,,,
666dcc6d47ca746d72d77e34,TCN,2024-06-21_13h49.06.195,LearnStrategy,2023.2.3,MacIntel,128.2051282,6,1,2,-0.006882957,0.0002568,1,0,0,0.6556,rock_grid_rect_2,4,10,-1,-1,0.656,-0.337109375,-0.257429109,1,0,0,2.371,Andesite_rect,1,2.371,0,1,0,1,0,1,,,,,,,,,,,,,
666dcc6d47ca746d72d77e34,TCN,2024-06-21_13h49.06.195,LearnStrategy,2023.2.3,MacIntel,128.2051282,6,1,3,0.014756944,0.008199508,1,0,0,1.0307,rock_grid_rect_2,6,11,-1,-1,1.031,-0.155483218,-0.415979456,1,0,0,1.1389,Pegmatite_rect,6,1.139,1,2,0,2,0,1,,,,,,,,,,,,,
666dcc6d47ca746d72d77e34,TCN,2024-06-21_13h49.06.195,LearnStrategy,2023.2.3,MacIntel,128.2051282,6,1,4,0.009136285,0.002264178,1,0,0,1.1066,rock_grid_rect_2,2,02,-1,-1,1.107,-0.130562789,-0.250962095,1,0,0,2.7558,Basalt_rect,2,2.756,1,3,0,3,0,1,,,,,,,,,,,,,
666dcc6d47ca746d72d77e34,TCN,2024-06-21_13h49.06.195,LearnStrategy,2023.2.3,MacIntel,128.2051282,6,1,5,-0.017086227,0.001681858,1,0,0,0.9634,rock_grid_rect_2,5,06,-1,-1,0.963,-0.334508825,-0.379383681,1,0,0,1.1206,Obsidian_rect,5,1.121,1,4,0,4,0,1,,,,,,,,,,,,,
666dcc6d47ca746d72d77e34,TCN,2024-06-21_13h49.06.195,LearnStrategy,2023.2.3,MacIntel,128.2051282,6,1,6,-0.024696181,-0.000459346,1,0,0,0.8143,rock_grid_rect_2,1,05,-1,-1,0.814,-0.388972078,-0.246976273,1,0,0,1.5595,Andesite_rect,1,1.559,1,5,0,5,0,1,,,,,,,,,,,,,
666dcc6d47ca746d72d77e34,TCN,2024-06-21_13h49.06.195,LearnStrategy,2023.2.3,MacIntel,128.2051282,6,1,7,0.023350694,-0.002969473,1,0,0,0.7816,rock_grid_rect_2,5,02,-1,-1,0.782,-0.324518953,-0.410478154,1,0,0,1.0177,Obsidian_rect,5,1.018,1,6,0,6,0,1,,,,,,,,,,,,,
666dcc6d47ca746d72d77e34,TCN,2024-06-21_13h49.06.195,LearnStrategy,2023.2.3,MacIntel,128.2051282,6,1,8,0.013194444,-0.002303964,1,0,0,0.7715,rock_grid_rect_2,8,16,-1,-1,0.772,0.353797743,-0.385991753,1,0,0,1.6689,Pumice_rect,8,1.669,1,7,0,7,0,1,,,,,,,,,,,,,
666dcc6d47ca746d72d77e34,TCN,2024-06-21_13h49.06.195,LearnStrategy,2023.2.3,MacIntel,128.2051282,6,1,9,-0.0013057,0.007139757,1,0,0,0.7478,rock_grid_rect_2,4,08,-1,-1,0.748,-0.34458912,-0.26567202,1,0,0,1.6342,Andesite_rect,1,1.634,0,8,0,8,0,1,,,,,,,,,,,,,
666dcc6d47ca746d72d77e34,TCN,2024-06-21_13h49.06.195,LearnStrategy,2023.2.3,MacIntel,128.2051282,6,1,10,-0.020453559,-0.001063368,1,0,0,1.048,rock_grid_rect_2,3,13,-1,-1,1.048,0.124584057,-0.419466146,1,0,0,8.437,Peridotite_rect,7,8.437,0,9,0,9,0,1,,,,,,,,,,,,,
666dcc6d47ca746d72d77e34,TCN,2024-06-21_13h49.06.195,LearnStrategy,2023.2.3,MacIntel,128.2051282,6,1,11,0.065136719,-0.010138166,1,0,0,0.7134,rock_grid_rect_2,8,14,-1,-1,0.713,0.347659867,-0.404611545,1,0,0,0.918,Pumice_rect,8,0.918,1,10,0,10,0,1,,,,,,,,,,,,,
666dcc6d47ca746d72d77e34,TCN,2024-06-21_13h49.06.195,LearnStrategy,2023.2.3,MacIntel,128.2051282,6,1,12,0.050115741,0.016890914,1,0,0,0.882,rock_grid_rect_2,7,16,-1,-1,0.882,-0.107013166,-0.419223814,1,0,0,4.2973,Pegmatite_rect,6,4.297,0,11,0,11,0,1,,,,,,,,,,,,,
666dcc6d47ca746d72d77e34,TCN,2024-06-21_13h49.06.195,LearnStrategy,2023.2.3,MacIntel,128.2051282,6,1,13,0.015002894,-0.011259404,1,0,0,1.5969,rock_grid_rect_2,6,13,-1,-1,1.597,-0.142900029,-0.402676505,1,0,0,1.419,Pegmatite_rect,6,1.419,1,12,0,12,0,1,,,,,,,,,,,,,
666dcc6d47ca746d72d77e34,TCN,2024-06-21_13h49.06.195,LearnStrategy,2023.2.3,MacIntel,128.2051282,6,1,14,0.040570747,-0.022623698,1,0,0,0.7059,rock_grid_rect_2,7,02,-1,-1,0.706,-0.095135272,-0.40139974,1,0,0,1.3636,Pegmatite_rect,6,1.364,0,13,0,13,0,1,,,,,,,,,,,,,
666dcc6d47ca746d72d77e34,TCN,2024-06-21_13h49.06.195,LearnStrategy,2023.2.3,MacIntel,128.2051282,6,1,15,0.020431858,0.012268519,1,0,0,0.8651,rock_grid_rect_2,2,08,-1,-1,0.865,-0.108959057,-0.241037326,1,0,0,1.2131,Basalt_rect,2,1.213,1,14,0,14,0,1,,,,,,,,,,,,,
666dcc6d47ca746d72d77e34,TCN,2024-06-21_13h49.06.195,LearnStrategy,2023.2.3,MacIntel,128.2051282,6,1,16,0.01110026,-0.001327402,1,0,0,0.8241,rock_grid_rect_2,1,04,-1,-1,0.824,-0.321498843,-0.264416956,1,0,0,2.0124,Andesite_rect,1,2.012,1,15,0,15,0,1,,,,,,,,,,,,,
666dcc6d47ca746d72d77e34,TCN,2024-06-21_13h49.06.195,LearnStrategy,2023.2.3,MacIntel,128.2051282,6,2,1,,,,,,,,7,15,,,,,,,,,,,7,3.329,1,,,,,,0.087282986,-0.400188079,1,0,0,3.3289,Peridotite_rect,0,0,0,0,1,
666dcc6d47ca746d72d77e34,TCN,2024-06-21_13h49.06.195,LearnStrategy,2023.2.3,MacIntel,128.2051282,6,2,2,,,,,,,,8,09,,,,,,,,,,,8,1.175,1,,,,,,0.359950087,-0.390646701,1,0,0,1.1749,Pumice_rect,1,0,1,0,1,
666dcc6d47ca746d72d77e34,TCN,2024-06-21_13h49.06.195,LearnStrategy,2023.2.3,MacIntel,128.2051282,6,2,3,,,,,,,,4,03,,,,,,,,,,,4,1.385,1,,,,,,0.37322772,-0.256571904,1,0,0,1.3854,Gabbro_rect,2,0,2,0,1,
666dcc6d47ca746d72d77e34,TCN,2024-06-21_13h49.06.195,LearnStrategy,2023.2.3,MacIntel,128.2051282,6,2,4,,,,,,,,5,14,,,,,,,,,,,5,1.234,1,,,,,,-0.32516276,-0.395167824,1,0,0,1.2342,Obsidian_rect,3,0,3,0,1,
666dcc6d47ca746d72d77e34,TCN,2024-06-21_13h49.06.195,LearnStrategy,2023.2.3,MacIntel,128.2051282,6,2,5,,,,,,,,3,15,,,,,,,,,,,3,9.776,1,,,,,,0.097229456,-0.254014757,1,0,0,9.7761,Diorite_rect,4,0,4,0,1,
666dcc6d47ca746d72d77e34,TCN,2024-06-21_13h49.06.195,LearnStrategy,2023.2.3,MacIntel,128.2051282,6,2,6,,,,,,,,8,05,,,,,,,,,,,8,1.363,1,,,,,,0.3127568,-0.390028212,1,0,0,1.3632,Pumice_rect,5,0,5,0,1,
666dcc6d47ca746d72d77e34,TCN,2024-06-21_13h49.06.195,LearnStrategy,2023.2.3,MacIntel,128.2051282,6,2,7,,,,,,,,1,07,,,,,,,,,,,1,1.208,1,,,,,,-0.36311849,-0.25317202,1,0,0,1.2081,Andesite_rect,6,0,6,0,1,
666dcc6d47ca746d72d77e34,TCN,2024-06-21_13h49.06.195,LearnStrategy,2023.2.3,MacIntel,128.2051282,6,2,8,,,,,,,,6,16,,,,,,,,,,,6,7.484,1,,,,,,-0.143457031,-0.388476563,1,0,0,7.4837,Pegmatite_rect,7,0,7,0,1,
666dcc6d47ca746d72d77e34,TCN,2024-06-21_13h49.06.195,LearnStrategy,2023.2.3,MacIntel,128.2051282,6,2,9,,,,,,,,3,14,,,,,,,,,,,3,1.228,1,,,,,,0.114764178,-0.261382378,1,0,0,1.2276,Diorite_rect,8,0,8,0,1,
666dcc6d47ca746d72d77e34,TCN,2024-06-21_13h49.06.195,LearnStrategy,2023.2.3,MacIntel,128.2051282,6,2,10,,,,,,,,6,05,,,,,,,,,,,6,4.126,1,,,,,,-0.176869936,-0.400719763,1,0,0,4.1261,Pegmatite_rect,9,0,9,0,1,
666dcc6d47ca746d72d77e34,TCN,2024-06-21_13h49.06.195,LearnStrategy,2023.2.3,MacIntel,128.2051282,6,2,11,,,,,,,,5,10,,,,,,,,,,,5,1.593,1,,,,,,-0.369505932,-0.421003328,1,0,0,1.5928,Obsidian_rect,10,0,10,0,1,
666dcc6d47ca746d72d77e34,TCN,2024-06-21_13h49.06.195,LearnStrategy,2023.2.3,MacIntel,128.2051282,6,2,12,,,,,,,,2,14,,,,,,,,,,,2,5.868,1,,,,,,-0.149453848,-0.267628762,1,0,0,5.8675,Basalt_rect,11,0,11,0,1,
666dcc6d47ca746d72d77e34,TCN,2024-06-21_13h49.06.195,LearnStrategy,2023.2.3,MacIntel,128.2051282,6,2,13,,,,,,,,1,14,,,,,,,,,,,1,4.418,1,,,,,,-0.309053096,-0.256155961,1,0,0,4.4179,Andesite_rect,12,0,12,0,1,
666dcc6d47ca746d72d77e34,TCN,2024-06-21_13h49.06.195,LearnStrategy,2023.2.3,MacIntel,128.2051282,6,2,14,,,,,,,,7,10,,,,,,,,,,,7,1.208,1,,,,,,0.156268084,-0.407635272,1,0,0,1.2078,Peridotite_rect,13,0,13,0,1,
666dcc6d47ca746d72d77e34,TCN,2024-06-21_13h49.06.195,LearnStrategy,2023.2.3,MacIntel,128.2051282,6,2,15,,,,,,,,2,11,,,,,,,,,,,2,5.08,1,,,,,,-0.099620226,-0.244874855,1,0,0,5.0799,Basalt_rect,14,0,14,0,1,
666dcc6d47ca746d72d77e34,TCN,2024-06-21_13h49.06.195,LearnStrategy,2023.2.3,MacIntel,128.2051282,6,2,16,,,,,,,,4,11,,,,,,,,,,,4,2.309,1,,,,,,0.337847222,-0.258600984,1,0,0,2.3093,Gabbro_rect,15,0,15,0,1,
666dcc6d47ca746d72d77e34,TCN,2024-06-21_13h49.06.195,LearnStrategy,2023.2.3,MacIntel,128.2051282,7,1,1,-0.021563947,0.005092593,1,0,0,1.0147,rock_grid_rect_2,8,14,-1,-1,1.015,0.420457176,-0.418113426,1,0,0,1.2343,Pumice_rect,8,1.234,1,0,0,0,0,1,,,,,,,,,,,,,
666dcc6d47ca746d72d77e34,TCN,2024-06-21_13h49.06.195,LearnStrategy,2023.2.3,MacIntel,128.2051282,7,1,2,0.075329138,0.002173756,1,0,0,0.9055,rock_grid_rect_2,1,04,-1,-1,0.906,-0.387008102,-0.245341435,1,0,0,1.5866,Andesite_rect,1,1.587,1,1,0,1,0,1,,,,,,,,,,,,,
666dcc6d47ca746d72d77e34,TCN,2024-06-21_13h49.06.195,LearnStrategy,2023.2.3,MacIntel,128.2051282,7,1,3,-0.020562066,-0.012087674,1,0,0,0.838,rock_grid_rect_2,5,02,-1,-1,0.838,-0.372464554,-0.411798322,1,0,0,1.2305,Obsidian_rect,5,1.231,1,2,0,2,0,1,,,,,,,,,,,,,
666dcc6d47ca746d72d77e34,TCN,2024-06-21_13h49.06.195,LearnStrategy,2023.2.3,MacIntel,128.2051282,7,1,4,-0.029282407,-0.018688513,1,0,0,0.5977,rock_grid_rect_2,3,16,-1,-1,0.598,0.146383102,-0.257414641,1,0,0,1.285,Diorite_rect,3,1.285,1,3,0,3,0,1,,,,,,,,,,,,,
666dcc6d47ca746d72d77e34,TCN,2024-06-21_13h49.06.195,LearnStrategy,2023.2.3,MacIntel,128.2051282,7,1,5,0.008358652,0.003349248,1,0,0,0.7479,rock_grid_rect_2,5,06,-1,-1,0.748,-0.351935041,-0.418938079,1,0,0,0.9419,Obsidian_rect,5,0.942,1,4,0,4,0,1,,,,,,,,,,,,,
666dcc6d47ca746d72d77e34,TCN,2024-06-21_13h49.06.195,LearnStrategy,2023.2.3,MacIntel,128.2051282,7,1,6,0.019292535,-0.015118634,1,0,0,0.8314,rock_grid_rect_2,6,08,-1,-1,0.831,-0.124131944,-0.392209201,1,0,0,0.9942,Pegmatite_rect,6,0.994,1,5,0,5,0,1,,,,,,,,,,,,,
666dcc6d47ca746d72d77e34,TCN,2024-06-21_13h49.06.195,LearnStrategy,2023.2.3,MacIntel,128.2051282,7,1,7,0.100560619,-0.001081453,1,0,0,0.9074,rock_grid_rect_2,7,12,-1,-1,0.907,0.200003617,-0.39104456,1,0,0,0.9836,Peridotite_rect,7,0.984,1,6,0,6,0,1,,,,,,,,,,,,,
666dcc6d47ca746d72d77e34,TCN,2024-06-21_13h49.06.195,LearnStrategy,2023.2.3,MacIntel,128.2051282,7,1,8,0.034049479,-0.009942853,1,0,0,0.8816,rock_grid_rect_2,3,02,-1,-1,0.882,0.105251736,-0.240375434,1,0,0,1.0351,Diorite_rect,3,1.035,1,7,0,7,0,1,,,,,,,,,,,,,
666dcc6d47ca746d72d77e34,TCN,2024-06-21_13h49.06.195,LearnStrategy,2023.2.3,MacIntel,128.2051282,7,1,9,0.029365596,-0.003776042,1,0,0,0.873,rock_grid_rect_2,4,10,-1,-1,0.873,-0.303012876,-0.243731916,1,0,0,8.9592,Andesite_rect,1,8.959,0,8,0,8,0,1,,,,,,,,,,,,,
666dcc6d47ca746d72d77e34,TCN,2024-06-21_13h49.06.195,LearnStrategy,2023.2.3,MacIntel,128.2051282,7,1,10,0.008138021,-0.018413628,1,0,0,0.6475,rock_grid_rect_2,1,06,-1,-1,0.647,-0.374186198,-0.229119647,1,0,0,1.1187,Andesite_rect,1,1.119,1,9,0,9,0,1,,,,,,,,,,,,,
666dcc6d47ca746d72d77e34,TCN,2024-06-21_13h49.06.195,LearnStrategy,2023.2.3,MacIntel,128.2051282,7,1,11,0.063114873,-0.020175058,1,0,0,0.6893,rock_grid_rect_2,6,13,-1,-1,0.689,-0.082834201,-0.37926794,1,0,0,1.1291,Pegmatite_rect,6,1.129,1,10,0,10,0,1,,,,,,,,,,,,,
666dcc6d47ca746d72d77e34,TCN,2024-06-21_13h49.06.195,LearnStrategy,2023.2.3,MacIntel,128.2051282,7,1,12,0.072233073,-0.005150463,1,0,0,1.4556,rock_grid_rect_2,7,02,-1,-1,1.456,0.153226273,-0.395015914,1,0,0,1.2272,Peridotite_rect,7,1.227,1,11,0,11,0,1,,,,,,,,,,,,,
666dcc6d47ca746d72d77e34,TCN,2024-06-21_13h49.06.195,LearnStrategy,2023.2.3,MacIntel,128.2051282,7,1,13,0.021487992,0.005906395,1,0,0,0.705,rock_grid_rect_2,2,16,-1,-1,0.705,-0.0630136,-0.256051071,1,0,0,1.5514,Basalt_rect,2,1.551,1,12,0,12,0,1,,,,,,,,,,,,,
666dcc6d47ca746d72d77e34,TCN,2024-06-21_13h49.06.195,LearnStrategy,2023.2.3,MacIntel,128.2051282,7,1,14,0.117484086,-0.007573785,1,0,0,0.8052,rock_grid_rect_2,8,16,-1,-1,0.805,0.364677373,-0.396860532,1,0,0,1.1854,Pumice_rect,8,1.185,1,13,0,13,0,1,,,,,,,,,,,,,
666dcc6d47ca746d72d77e34,TCN,2024-06-21_13h49.06.195,LearnStrategy,2023.2.3,MacIntel,128.2051282,7,1,15,-0.012246817,-0.001522714,1,0,0,1.0141,rock_grid_rect_2,4,08,-1,-1,1.014,0.393652344,-0.24031033,1,0,0,2.5278,Gabbro_rect,4,2.528,1,14,0,14,0,1,,,,,,,,,,,,,
666dcc6d47ca746d72d77e34,TCN,2024-06-21_13h49.06.195,LearnStrategy,2023.2.3,MacIntel,128.2051282,7,1,16,-0.018804253,-0.002871817,1,0,0,0.9144,rock_grid_rect_2,2,05,-1,-1,0.914,-0.145272714,-0.248271123,1,0,0,1.5645,Basalt_rect,2,1.564,1,15,0,15,0,1,,,,,,,,,,,,,
666dcc6d47ca746d72d77e34,TCN,2024-06-21_13h49.06.195,LearnStrategy,2023.2.3,MacIntel,128.2051282,7,2,1,,,,,,,,1,09,,,,,,,,,,,1,1.177,1,,,,,,-0.298983652,-0.241999421,1,0,0,1.1774,Andesite_rect,0,0,0,0,1,
666dcc6d47ca746d72d77e34,TCN,2024-06-21_13h49.06.195,LearnStrategy,2023.2.3,MacIntel,128.2051282,7,2,2,,,,,,,,7,10,,,,,,,,,,,7,1.093,1,,,,,,0.063755064,-0.400553385,1,0,0,1.093,Peridotite_rect,1,0,1,0,1,
666dcc6d47ca746d72d77e34,TCN,2024-06-21_13h49.06.195,LearnStrategy,2023.2.3,MacIntel,128.2051282,7,2,3,,,,,,,,5,16,,,,,,,,,,,5,1.084,1,,,,,,-0.35551577,-0.407675058,1,0,0,1.084,Obsidian_rect,2,0,2,0,1,
666dcc6d47ca746d72d77e34,TCN,2024-06-21_13h49.06.195,LearnStrategy,2023.2.3,MacIntel,128.2051282,7,2,4,,,,,,,,1,02,,,,,,,,,,,1,1.847,1,,,,,,-0.340816696,-0.257273582,1,0,0,1.8474,Andesite_rect,3,0,3,0,1,
666dcc6d47ca746d72d77e34,TCN,2024-06-21_13h49.06.195,LearnStrategy,2023.2.3,MacIntel,128.2051282,7,2,5,,,,,,,,2,09,,,,,,,,,,,2,5.47,1,,,,,,-0.092303241,-0.268833189,1,0,0,5.4701,Basalt_rect,4,0,4,0,1,
666dcc6d47ca746d72d77e34,TCN,2024-06-21_13h49.06.195,LearnStrategy,2023.2.3,MacIntel,128.2051282,7,2,6,,,,,,,,8,09,,,,,,,,,,,8,1.044,1,,,,,,0.361935764,-0.418637876,1,0,0,1.0437,Pumice_rect,5,0,5,0,1,
666dcc6d47ca746d72d77e34,TCN,2024-06-21_13h49.06.195,LearnStrategy,2023.2.3,MacIntel,128.2051282,7,2,7,,,,,,,,3,07,,,,,,,,,,,3,1.996,1,,,,,,0.181448929,-0.266474971,1,0,0,1.9957,Diorite_rect,6,0,6,0,1,
666dcc6d47ca746d72d77e34,TCN,2024-06-21_13h49.06.195,LearnStrategy,2023.2.3,MacIntel,128.2051282,7,2,8,,,,,,,,7,06,,,,,,,,,,,6,3.452,0,,,,,,-0.074471933,-0.397518808,1,0,0,3.4516,Pegmatite_rect,7,0,7,0,1,
666dcc6d47ca746d72d77e34,TCN,2024-06-21_13h49.06.195,LearnStrategy,2023.2.3,MacIntel,128.2051282,7,2,9,,,,,,,,6,12,,,,,,,,,,,6,3.405,1,,,,,,-0.074471933,-0.397518808,1,0,0,3.4055,Pegmatite_rect,8,0,8,0,1,
666dcc6d47ca746d72d77e34,TCN,2024-06-21_13h49.06.195,LearnStrategy,2023.2.3,MacIntel,128.2051282,7,2,10,,,,,,,,8,03,,,,,,,,,,,8,1.138,1,,,,,,0.349493634,-0.408329716,1,0,0,1.1379,Pumice_rect,9,0,9,0,1,
666dcc6d47ca746d72d77e34,TCN,2024-06-21_13h49.06.195,LearnStrategy,2023.2.3,MacIntel,128.2051282,7,2,11,,,,,,,,3,15,,,,,,,,,,,3,2.129,1,,,,,,0.158119936,-0.270482494,1,0,0,2.129,Diorite_rect,10,0,10,0,1,
666dcc6d47ca746d72d77e34,TCN,2024-06-21_13h49.06.195,LearnStrategy,2023.2.3,MacIntel,128.2051282,7,2,12,,,,,,,,5,08,,,,,,,,,,,5,1.112,1,,,,,,-0.33891059,-0.398820891,1,0,0,1.1119,Obsidian_rect,11,0,11,0,1,
666dcc6d47ca746d72d77e34,TCN,2024-06-21_13h49.06.195,LearnStrategy,2023.2.3,MacIntel,128.2051282,7,2,13,,,,,,,,2,06,,,,,,,,,,,5,3.969,0,,,,,,-0.353472222,-0.403049045,1,0,0,3.9689,Obsidian_rect,12,0,12,0,1,
666dcc6d47ca746d72d77e34,TCN,2024-06-21_13h49.06.195,LearnStrategy,2023.2.3,MacIntel,128.2051282,7,2,14,,,,,,,,4,03,,,,,,,,,,,4,1.975,1,,,,,,0.392632378,-0.266225405,1,0,0,1.9753,Gabbro_rect,13,0,13,0,1,
666dcc6d47ca746d72d77e34,TCN,2024-06-21_13h49.06.195,LearnStrategy,2023.2.3,MacIntel,128.2051282,7,2,15,,,,,,,,4,16,,,,,,,,,,,4,2.471,1,,,,,,0.412713397,-0.260015191,1,0,0,2.4709,Gabbro_rect,14,0,14,0,1,
666dcc6d47ca746d72d77e34,TCN,2024-06-21_13h49.06.195,LearnStrategy,2023.2.3,MacIntel,128.2051282,7,2,16,,,,,,,,6,03,,,,,,,,,,,6,1.943,1,,,,,,-0.08900463,-0.409581163,1,0,0,1.9428,Pegmatite_rect,15,0,15,0,1,
666dcc6d47ca746d72d77e34,TCN,2024-06-21_13h49.06.195,LearnStrategy,2023.2.3,MacIntel,128.2051282,8,1,1,0.027712674,-0.007107205,1,0,0,1.2219,rock_grid_rect_2,7,08,-1,-1,1.222,0.163552517,-0.390198206,1,0,0,2.0688,Peridotite_rect,7,2.069,1,0,0,0,0,1,,,,,,,,,,,,,
666dcc6d47ca746d72d77e34,TCN,2024-06-21_13h49.06.195,LearnStrategy,2023.2.3,MacIntel,128.2051282,8,1,2,0.064764178,-0.009407552,1,0,0,0.9483,rock_grid_rect_2,7,04,-1,-1,0.948,-0.111982784,-0.390165654,1,0,0,1.0601,Pegmatite_rect,6,1.06,0,1,0,1,0,1,,,,,,,,,,,,,
666dcc6d47ca746d72d77e34,TCN,2024-06-21_13h49.06.195,LearnStrategy,2023.2.3,MacIntel,128.2051282,8,1,3,0.033040365,0.008937355,1,0,0,0.9733,rock_grid_rect_2,4,12,-1,-1,0.973,0.359382234,-0.237366175,1,0,0,1.3296,Gabbro_rect,4,1.33,1,2,0,2,0,1,,,,,,,,,,,,,
666dcc6d47ca746d72d77e34,TCN,2024-06-21_13h49.06.195,LearnStrategy,2023.2.3,MacIntel,128.2051282,8,1,4,0.026403356,-0.015755208,1,0,0,0.7888,rock_grid_rect_2,5,07,-1,-1,0.789,-0.389840133,-0.408778212,1,0,0,1.0106,Obsidian_rect,5,1.011,1,3,0,3,0,1,,,,,,,,,,,,,
666dcc6d47ca746d72d77e34,TCN,2024-06-21_13h49.06.195,LearnStrategy,2023.2.3,MacIntel,128.2051282,8,1,5,-0.032515914,0.006524884,1,0,0,0.7315,rock_grid_rect_2,1,10,-1,-1,0.732,-0.340505642,-0.269462529,1,0,0,4.363,Andesite_rect,1,4.363,1,4,0,4,0,1,,,,,,,,,,,,,
666dcc6d47ca746d72d77e34,TCN,2024-06-21_13h49.06.195,LearnStrategy,2023.2.3,MacIntel,128.2051282,8,1,6,0.138346354,-0.015889034,1,0,0,1.2962,rock_grid_rect_2,1,16,-1,-1,1.296,-0.38042173,-0.246296296,1,0,0,2.185,Andesite_rect,1,2.185,1,5,0,5,0,1,,,,,,,,,,,,,
666dcc6d47ca746d72d77e34,TCN,2024-06-21_13h49.06.195,LearnStrategy,2023.2.3,MacIntel,128.2051282,8,1,7,-0.052965856,-0.004980469,1,0,0,0.6217,rock_grid_rect_2,4,13,-1,-1,0.622,0.440997541,-0.250083189,1,0,0,1.893,Gabbro_rect,4,1.893,1,6,0,6,0,1,,,,,,,,,,,,,
666dcc6d47ca746d72d77e34,TCN,2024-06-21_13h49.06.195,LearnStrategy,2023.2.3,MacIntel,128.2051282,8,1,8,-0.012778501,-0.006875723,1,0,0,0.7722,rock_grid_rect_2,3,11,-1,-1,0.772,0.096893084,-0.264019097,1,0,0,1.9111,Diorite_rect,3,1.911,1,7,0,7,0,1,,,,,,,,,,,,,
666dcc6d47ca746d72d77e34,TCN,2024-06-21_13h49.06.195,LearnStrategy,2023.2.3,MacIntel,128.2051282,8,1,9,-0.012087674,-0.016380932,1,0,0,1.1228,rock_grid_rect_2,8,15,-1,-1,1.123,0.321372251,-0.389500145,1,0,0,2.0184,Pumice_rect,8,2.018,1,8,0,8,0,1,,,,,,,,,,,,,
666dcc6d47ca746d72d77e34,TCN,2024-06-21_13h49.06.195,LearnStrategy,2023.2.3,MacIntel,128.2051282,8,1,10,0.00339265,-0.003197338,1,0,0,0.8547,rock_grid_rect_2,2,12,-1,-1,0.855,-0.123763021,-0.23562283,1,0,0,3.8101,Basalt_rect,2,3.81,1,9,0,9,0,1,,,,,,,,,,,,,
666dcc6d47ca746d72d77e34,TCN,2024-06-21_13h49.06.195,LearnStrategy,2023.2.3,MacIntel,128.2051282,8,1,11,0.082447193,0.009176071,1,0,0,0.7469,rock_grid_rect_2,2,08,-1,-1,0.747,0.35192419,-0.24635055,1,0,0,1.7557,Gabbro_rect,4,1.756,0,10,0,10,0,1,,,,,,,,,,,,,
666dcc6d47ca746d72d77e34,TCN,2024-06-21_13h49.06.195,LearnStrategy,2023.2.3,MacIntel,128.2051282,8,1,12,0.026461227,0.012398727,1,0,0,0.7803,rock_grid_rect_2,6,15,-1,-1,0.78,-0.067567274,-0.397413918,1,0,0,0.9788,Pegmatite_rect,6,0.979,1,11,0,11,0,1,,,,,,,,,,,,,
666dcc6d47ca746d72d77e34,TCN,2024-06-21_13h49.06.195,LearnStrategy,2023.2.3,MacIntel,128.2051282,8,1,13,0.053566262,-2.89352E-05,1,0,0,0.9404,rock_grid_rect_2,6,11,-1,-1,0.94,-0.107222946,-0.41188151,1,0,0,1.1621,Pegmatite_rect,6,1.162,1,12,0,12,0,1,,,,,,,,,,,,,
666dcc6d47ca746d72d77e34,TCN,2024-06-21_13h49.06.195,LearnStrategy,2023.2.3,MacIntel,128.2051282,8,1,14,-0.020269097,-0.004777922,1,0,0,0.9979,rock_grid_rect_2,8,06,-1,-1,0.998,0.345200376,-0.399949363,1,0,0,1.3958,Pumice_rect,8,1.396,1,13,0,13,0,1,,,,,,,,,,,,,
666dcc6d47ca746d72d77e34,TCN,2024-06-21_13h49.06.195,LearnStrategy,2023.2.3,MacIntel,128.2051282,8,1,15,-0.009657118,0.013038918,1,0,0,0.7469,rock_grid_rect_2,3,06,-1,-1,0.747,0.153967737,-0.256651476,1,0,0,1.1137,Diorite_rect,3,1.114,1,14,0,14,0,1,,,,,,,,,,,,,
666dcc6d47ca746d72d77e34,TCN,2024-06-21_13h49.06.195,LearnStrategy,2023.2.3,MacIntel,128.2051282,8,1,16,0.067871094,-0.014861834,1,0,0,0.6732,rock_grid_rect_2,5,05,-1,-1,0.673,-0.360543258,-0.419122541,1,0,0,1.1996,Obsidian_rect,5,1.2,1,15,0,15,0,1,,,,,,,,,,,,,
666dcc6d47ca746d72d77e34,TCN,2024-06-21_13h49.06.195,LearnStrategy,2023.2.3,MacIntel,128.2051282,8,2,1,,,,,,,,8,04,,,,,,,,,,,8,1.209,1,,,,,,0.370193142,-0.37947772,1,0,0,1.209,Pumice_rect,0,0,0,0,1,
666dcc6d47ca746d72d77e34,TCN,2024-06-21_13h49.06.195,LearnStrategy,2023.2.3,MacIntel,128.2051282,8,2,2,,,,,,,,7,07,,,,,,,,,,,3,4.634,0,,,,,,0.200470197,-0.250763166,1,0,0,4.6341,Diorite_rect,1,0,1,0,1,
666dcc6d47ca746d72d77e34,TCN,2024-06-21_13h49.06.195,LearnStrategy,2023.2.3,MacIntel,128.2051282,8,2,3,,,,,,,,5,10,,,,,,,,,,,5,2.943,1,,,,,,-0.348571325,-0.393337674,1,0,0,2.9427,Obsidian_rect,2,0,2,0,1,
666dcc6d47ca746d72d77e34,TCN,2024-06-21_13h49.06.195,LearnStrategy,2023.2.3,MacIntel,128.2051282,8,2,4,,,,,,,,4,09,,,,,,,,,,,6,10.839,0,,,,,,-0.138078704,-0.398314525,1,0,0,10.839,Pegmatite_rect,3,0,3,0,1,
666dcc6d47ca746d72d77e34,TCN,2024-06-21_13h49.06.195,LearnStrategy,2023.2.3,MacIntel,128.2051282,8,2,5,,,,,,,,2,14,,,,,,,,,,,2,1.819,1,,,,,,-0.150604022,-0.251034433,1,0,0,1.8193,Basalt_rect,4,0,4,0,1,
666dcc6d47ca746d72d77e34,TCN,2024-06-21_13h49.06.195,LearnStrategy,2023.2.3,MacIntel,128.2051282,8,2,6,,,,,,,,7,15,,,,,,,,,,,7,1.859,1,,,,,,0.110796441,-0.417722801,1,0,0,1.8593,Peridotite_rect,5,0,5,0,1,
666dcc6d47ca746d72d77e34,TCN,2024-06-21_13h49.06.195,LearnStrategy,2023.2.3,MacIntel,128.2051282,8,2,7,,,,,,,,3,09,,,,,,,,,,,3,1.473,1,,,,,,0.101551649,-0.253710938,1,0,0,1.4727,Diorite_rect,6,0,6,0,1,
666dcc6d47ca746d72d77e34,TCN,2024-06-21_13h49.06.195,LearnStrategy,2023.2.3,MacIntel,128.2051282,8,2,8,,,,,,,,2,11,,,,,,,,,,,2,1.909,1,,,,,,-0.126945891,-0.236118345,1,0,0,1.9086,Basalt_rect,7,0,7,0,1,
666dcc6d47ca746d72d77e34,TCN,2024-06-21_13h49.06.195,LearnStrategy,2023.2.3,MacIntel,128.2051282,8,2,9,,,,,,,,1,14,,,,,,,,,,,1,1.458,1,,,,,,-0.350336372,-0.259613715,1,0,0,1.4577,Andesite_rect,8,0,8,0,1,
666dcc6d47ca746d72d77e34,TCN,2024-06-21_13h49.06.195,LearnStrategy,2023.2.3,MacIntel,128.2051282,8,2,10,,,,,,,,5,12,,,,,,,,,,,5,0.809,1,,,,,,-0.377021846,-0.420746528,1,0,0,0.8091,Obsidian_rect,9,0,9,0,1,
666dcc6d47ca746d72d77e34,TCN,2024-06-21_13h49.06.195,LearnStrategy,2023.2.3,MacIntel,128.2051282,8,2,11,,,,,,,,3,14,,,,,,,,,,,3,1.209,1,,,,,,0.102842882,-0.266402633,1,0,0,1.2089,Diorite_rect,10,0,10,0,1,
666dcc6d47ca746d72d77e34,TCN,2024-06-21_13h49.06.195,LearnStrategy,2023.2.3,MacIntel,128.2051282,8,2,12,,,,,,,,4,15,,,,,,,,,,,4,0.985,1,,,,,,0.345037616,-0.261067708,1,0,0,0.9849,Gabbro_rect,11,0,11,0,1,
666dcc6d47ca746d72d77e34,TCN,2024-06-21_13h49.06.195,LearnStrategy,2023.2.3,MacIntel,128.2051282,8,2,13,,,,,,,,8,05,,,,,,,,,,,8,0.888,1,,,,,,0.394144242,-0.388031684,1,0,0,0.8876,Pumice_rect,12,0,12,0,1,
666dcc6d47ca746d72d77e34,TCN,2024-06-21_13h49.06.195,LearnStrategy,2023.2.3,MacIntel,128.2051282,8,2,14,,,,,,,,6,05,,,,,,,,,,,6,1.742,1,,,,,,-0.098086661,-0.418786169,1,0,0,1.7422,Pegmatite_rect,13,0,13,0,1,
666dcc6d47ca746d72d77e34,TCN,2024-06-21_13h49.06.195,LearnStrategy,2023.2.3,MacIntel,128.2051282,8,2,15,,,,,,,,1,11,,,,,,,,,,,1,3.051,1,,,,,,-0.38296441,-0.261179832,1,0,0,3.0505,Andesite_rect,14,0,14,0,1,
666dcc6d47ca746d72d77e34,TCN,2024-06-21_13h49.06.195,LearnStrategy,2023.2.3,MacIntel,128.2051282,8,2,16,,,,,,,,6,16,,,,,,,,,,,6,1.143,1,,,,,,-0.157411024,-0.396502459,1,0,0,1.1429,Pegmatite_rect,15,0,15,0,1,
666dcc6d47ca746d72d77e34,TCN,2024-06-21_13h49.06.195,LearnStrategy,2023.2.3,MacIntel,128.2051282,9,1,1,0.020540365,0.023900463,1,0,0,0.9069,rock_grid_rect_2,8,02,-1,-1,0.907,0.416590712,-0.386664497,1,0,0,1.1851,Pumice_rect,8,1.185,1,0,0,0,0,1,,,,,,,,,,,,,
666dcc6d47ca746d72d77e34,TCN,2024-06-21_13h49.06.195,LearnStrategy,2023.2.3,MacIntel,128.2051282,9,1,2,0.015711806,-0.008991609,1,0,0,0.7964,rock_grid_rect_2,4,14,-1,-1,0.796,0.377235243,-0.244097222,1,0,0,1.7735,Gabbro_rect,4,1.774,1,1,0,1,0,1,,,,,,,,,,,,,
666dcc6d47ca746d72d77e34,TCN,2024-06-21_13h49.06.195,LearnStrategy,2023.2.3,MacIntel,128.2051282,9,1,3,-0.025412326,-0.002014612,1,0,0,0.7889,rock_grid_rect_2,1,05,-1,-1,0.789,-0.407693142,-0.257411024,1,0,0,1.0388,Andesite_rect,1,1.039,1,2,0,2,0,1,,,,,,,,,,,,,
666dcc6d47ca746d72d77e34,TCN,2024-06-21_13h49.06.195,LearnStrategy,2023.2.3,MacIntel,128.2051282,9,1,4,-0.006568287,0.010807292,1,0,0,0.7893,rock_grid_rect_2,5,11,-1,-1,0.789,-0.427712674,-0.379474103,1,0,0,1.1003,Obsidian_rect,5,1.1,1,3,0,3,0,1,,,,,,,,,,,,,
666dcc6d47ca746d72d77e34,TCN,2024-06-21_13h49.06.195,LearnStrategy,2023.2.3,MacIntel,128.2051282,9,1,5,0.03703342,0.002347367,1,0,0,0.8066,rock_grid_rect_2,3,08,-1,-1,0.807,0.120638021,-0.236899595,1,0,0,1.4198,Diorite_rect,3,1.42,1,4,0,4,0,1,,,,,,,,,,,,,
666dcc6d47ca746d72d77e34,TCN,2024-06-21_13h49.06.195,LearnStrategy,2023.2.3,MacIntel,128.2051282,9,1,6,0.031213831,-0.005497685,1,0,0,1.1388,rock_grid_rect_2,5,04,-1,-1,1.139,-0.348451968,-0.41078559,1,0,0,1.6344,Obsidian_rect,5,1.634,1,5,0,5,0,1,,,,,,,,,,,,,
666dcc6d47ca746d72d77e34,TCN,2024-06-21_13h49.06.195,LearnStrategy,2023.2.3,MacIntel,128.2051282,9,1,7,0.015183738,0.008564815,1,0,0,0.7295,rock_grid_rect_2,8,10,-1,-1,0.73,0.452369068,-0.394401042,1,0,0,0.9602,Pumice_rect,8,0.96,1,6,0,6,0,1,,,,,,,,,,,,,
666dcc6d47ca746d72d77e34,TCN,2024-06-21_13h49.06.195,LearnStrategy,2023.2.3,MacIntel,128.2051282,9,1,8,-0.031054688,-0.00151548,1,0,0,0.8143,rock_grid_rect_2,6,10,-1,-1,0.814,-0.107913773,-0.409342448,1,0,0,1.2514,Pegmatite_rect,6,1.251,1,7,0,7,0,1,,,,,,,,,,,,,
666dcc6d47ca746d72d77e34,TCN,2024-06-21_13h49.06.195,LearnStrategy,2023.2.3,MacIntel,128.2051282,9,1,9,-0.004271557,0.002951389,1,0,0,0.9051,rock_grid_rect_2,3,13,-1,-1,0.905,0.070504196,-0.252300347,1,0,0,2.1025,Diorite_rect,3,2.103,1,8,0,8,0,1,,,,,,,,,,,,,
666dcc6d47ca746d72d77e34,TCN,2024-06-21_13h49.06.195,LearnStrategy,2023.2.3,MacIntel,128.2051282,9,1,10,0.004083478,0.006170428,1,0,0,1.0726,rock_grid_rect_2,2,01,-1,-1,1.073,-0.160572193,-0.250925926,1,0,0,2.1954,Basalt_rect,2,2.195,1,9,0,9,0,1,,,,,,,,,,,,,
666dcc6d47ca746d72d77e34,TCN,2024-06-21_13h49.06.195,LearnStrategy,2023.2.3,MacIntel,128.2051282,9,1,11,-0.004871962,0.00604022,1,0,0,0.706,rock_grid_rect_2,7,16,-1,-1,0.706,-0.101671007,-0.382573785,1,0,0,5.7131,Pegmatite_rect,6,5.713,0,10,0,10,0,1,,,,,,,,,,,,,
666dcc6d47ca746d72d77e34,TCN,2024-06-21_13h49.06.195,LearnStrategy,2023.2.3,MacIntel,128.2051282,9,1,12,-0.009121817,-0.002897135,1,0,0,0.9985,rock_grid_rect_2,7,05,-1,-1,0.998,0.088585069,-0.419878472,1,0,0,4.3764,Peridotite_rect,7,4.376,1,11,0,11,0,1,,,,,,,,,,,,,
666dcc6d47ca746d72d77e34,TCN,2024-06-21_13h49.06.195,LearnStrategy,2023.2.3,MacIntel,128.2051282,9,1,13,0.017089844,0.002303964,1,0,0,1.3641,rock_grid_rect_2,6,07,-1,-1,1.364,-0.133825231,-0.386624711,1,0,0,1.9955,Pegmatite_rect,6,1.995,1,12,0,12,0,1,,,,,,,,,,,,,
666dcc6d47ca746d72d77e34,TCN,2024-06-21_13h49.06.195,LearnStrategy,2023.2.3,MacIntel,128.2051282,9,1,14,0.006119792,0.012315538,1,0,0,0.6896,rock_grid_rect_2,1,03,-1,-1,0.69,-0.393728299,-0.244918258,1,0,0,1.3392,Andesite_rect,1,1.339,1,13,0,13,0,1,,,,,,,,,,,,,
666dcc6d47ca746d72d77e34,TCN,2024-06-21_13h49.06.195,LearnStrategy,2023.2.3,MacIntel,128.2051282,9,1,15,0.013017216,-0.009092882,1,0,0,0.8232,rock_grid_rect_2,2,02,-1,-1,0.823,-0.067853009,-0.243055556,1,0,0,1.4031,Basalt_rect,2,1.403,1,14,0,14,0,1,,,,,,,,,,,,,
666dcc6d47ca746d72d77e34,TCN,2024-06-21_13h49.06.195,LearnStrategy,2023.2.3,MacIntel,128.2051282,9,1,16,0.019390191,-0.001012731,1,0,0,0.8302,rock_grid_rect_2,4,01,-1,-1,0.83,0.116547309,-0.395482494,1,0,0,4.3022,Peridotite_rect,7,4.302,0,15,0,15,0,1,,,,,,,,,,,,,
666dcc6d47ca746d72d77e34,TCN,2024-06-21_13h49.06.195,LearnStrategy,2023.2.3,MacIntel,128.2051282,9,2,1,,,,,,,,4,05,,,,,,,,,,,4,13.576,1,,,,,,0.382638889,-0.233991609,1,0,0,13.5756,Gabbro_rect,0,0,0,0,1,
666dcc6d47ca746d72d77e34,TCN,2024-06-21_13h49.06.195,LearnStrategy,2023.2.3,MacIntel,128.2051282,9,2,2,,,,,,,,1,01,,,,,,,,,,,1,4.113,1,,,,,,-0.399761285,-0.257269965,1,0,0,4.1132,Andesite_rect,1,0,1,0,1,
666dcc6d47ca746d72d77e34,TCN,2024-06-21_13h49.06.195,LearnStrategy,2023.2.3,MacIntel,128.2051282,9,2,3,,,,,,,,6,09,,,,,,,,,,,6,1.117,1,,,,,,-0.114507378,-0.385590278,1,0,0,1.1168,Pegmatite_rect,2,0,2,0,1,
666dcc6d47ca746d72d77e34,TCN,2024-06-21_13h49.06.195,LearnStrategy,2023.2.3,MacIntel,128.2051282,9,2,4,,,,,,,,5,14,,,,,,,,,,,5,1.058,1,,,,,,-0.32453342,-0.417943432,1,0,0,1.0585,Obsidian_rect,3,0,3,0,1,
666dcc6d47ca746d72d77e34,TCN,2024-06-21_13h49.06.195,LearnStrategy,2023.2.3,MacIntel,128.2051282,9,2,5,,,,,,,,3,10,,,,,,,,,,,7,9.101,0,,,,,,0.144382957,-0.388480179,1,0,0,9.101,Peridotite_rect,4,0,4,0,1,
666dcc6d47ca746d72d77e34,TCN,2024-06-21_13h49.06.195,LearnStrategy,2023.2.3,MacIntel,128.2051282,9,2,6,,,,,,,,8,08,,,,,,,,,,,8,1.083,1,,,,,,0.455439815,-0.396495226,1,0,0,1.0826,Pumice_rect,5,0,5,0,1,
666dcc6d47ca746d72d77e34,TCN,2024-06-21_13h49.06.195,LearnStrategy,2023.2.3,MacIntel,128.2051282,9,2,7,,,,,,,,1,07,,,,,,,,,,,1,1.343,1,,,,,,-0.354003906,-0.260112847,1,0,0,1.3426,Andesite_rect,6,0,6,0,1,
666dcc6d47ca746d72d77e34,TCN,2024-06-21_13h49.06.195,LearnStrategy,2023.2.3,MacIntel,128.2051282,9,2,8,,,,,,,,5,09,,,,,,,,,,,5,0.992,1,,,,,,-0.376580584,-0.409335214,1,0,0,0.9921,Obsidian_rect,7,0,7,0,1,
666dcc6d47ca746d72d77e34,TCN,2024-06-21_13h49.06.195,LearnStrategy,2023.2.3,MacIntel,128.2051282,9,2,9,,,,,,,,8,13,,,,,,,,,,,8,1.726,1,,,,,,0.311700666,-0.390375434,1,0,0,1.726,Pumice_rect,8,0,8,0,1,
666dcc6d47ca746d72d77e34,TCN,2024-06-21_13h49.06.195,LearnStrategy,2023.2.3,MacIntel,128.2051282,9,2,10,,,,,,,,7,14,,,,,,,,,,,7,2.959,1,,,,,,0.186324508,-0.398470052,1,0,0,2.9589,Peridotite_rect,9,0,9,0,1,
666dcc6d47ca746d72d77e34,TCN,2024-06-21_13h49.06.195,LearnStrategy,2023.2.3,MacIntel,128.2051282,9,2,11,,,,,,,,2,04,,,,,,,,,,,2,1.234,1,,,,,,-0.05656467,-0.265350116,1,0,0,1.2335,Basalt_rect,10,0,10,0,1,
666dcc6d47ca746d72d77e34,TCN,2024-06-21_13h49.06.195,LearnStrategy,2023.2.3,MacIntel,128.2051282,9,2,12,,,,,,,,6,06,,,,,,,,,,,6,1.73,1,,,,,,-0.095511429,-0.404846644,1,0,0,1.7302,Pegmatite_rect,11,0,11,0,1,
666dcc6d47ca746d72d77e34,TCN,2024-06-21_13h49.06.195,LearnStrategy,2023.2.3,MacIntel,128.2051282,9,2,13,,,,,,,,4,11,,,,,,,,,,,4,2.783,1,,,,,,0.393576389,-0.266865596,1,0,0,2.7833,Gabbro_rect,12,0,12,0,1,
666dcc6d47ca746d72d77e34,TCN,2024-06-21_13h49.06.195,LearnStrategy,2023.2.3,MacIntel,128.2051282,9,2,14,,,,,,,,3,12,,,,,,,,,,,3,1.859,1,,,,,,0.190838397,-0.269675926,1,0,0,1.8593,Diorite_rect,13,0,13,0,1,
666dcc6d47ca746d72d77e34,TCN,2024-06-21_13h49.06.195,LearnStrategy,2023.2.3,MacIntel,128.2051282,9,2,15,,,,,,,,2,10,,,,,,,,,,,2,3.15,1,,,,,,-0.052940538,-0.267075376,1,0,0,3.1503,Basalt_rect,14,0,14,0,1,
666dcc6d47ca746d72d77e34,TCN,2024-06-21_13h49.06.195,LearnStrategy,2023.2.3,MacIntel,128.2051282,9,2,16,,,,,,,,7,13,,,,,,,,,,,7,1.943,1,,,,,,0.129144965,-0.412203414,1,0,0,1.9426,Peridotite_rect,15,0,15,0,1,
666dcc6d47ca746d72d77e34,TCN,2024-06-21_13h49.06.195,LearnStrategy,2023.2.3,MacIntel,128.2051282,,,,,,,,,,,,,,,,,,,,,,,,,,,,,,,,,,,,,,,,,,,1
666dcc6d47ca746d72d77e34,TCN,2024-06-21_13h49.06.195,LearnStrategy,2023.2.3,MacIntel,128.2051282,,,,,,,,,,,,,,,,,,,,,,,,,,,,,,,,,,,,,,,,,,,
666dcc6d47ca746d72d77e34,TCN,2024-06-21_13h49.06.195,LearnStrategy,2023.2.3,MacIntel,128.2051282,,,,,,,,,,,2,08,1,1,,,,,,,,,,,,,,,,,,,,,,,,,,,,,
666dcc6d47ca746d72d77e34,TCN,2024-06-21_13h49.06.195,LearnStrategy,2023.2.3,MacIntel,128.2051282,,,,,,,,,,,5,04,1,2,,,,,,,,,,,,,,,,,,,,,,,,,,,,,
666dcc6d47ca746d72d77e34,TCN,2024-06-21_13h49.06.195,LearnStrategy,2023.2.3,MacIntel,128.2051282,,,,,,,,,,,8,16,1,3,,,,,,,,,,,,,,,,,,,,,,,,,,,,,
666dcc6d47ca746d72d77e34,TCN,2024-06-21_13h49.06.195,LearnStrategy,2023.2.3,MacIntel,128.2051282,,,,,,,,,,,7,04,1,4,,,,,,,,,,,,,,,,,,,,,,,,,,,,,
666dcc6d47ca746d72d77e34,TCN,2024-06-21_13h49.06.195,LearnStrategy,2023.2.3,MacIntel,128.2051282,,,,,,,,,,,1,16,1,5,,,,,,,,,,,,,,,,,,,,,,,,,,,,,
666dcc6d47ca746d72d77e34,TCN,2024-06-21_13h49.06.195,LearnStrategy,2023.2.3,MacIntel,128.2051282,,,,,,,,,,,8,14,1,6,,,,,,,,,,,,,,,,,,,,,,,,,,,,,
666dcc6d47ca746d72d77e34,TCN,2024-06-21_13h49.06.195,LearnStrategy,2023.2.3,MacIntel,128.2051282,,,,,,,,,,,1,10,1,7,,,,,,,,,,,,,,,,,,,,,,,,,,,,,
666dcc6d47ca746d72d77e34,TCN,2024-06-21_13h49.06.195,LearnStrategy,2023.2.3,MacIntel,128.2051282,,,,,,,,,,,6,11,1,8,,,,,,,,,,,,,,,,,,,,,,,,,,,,,
666dcc6d47ca746d72d77e34,TCN,2024-06-21_13h49.06.195,LearnStrategy,2023.2.3,MacIntel,128.2051282,,,,,,,,,,,3,06,2,1,,,,,,,,,,,,,,,,,,,,,,,,,,,,,
666dcc6d47ca746d72d77e34,TCN,2024-06-21_13h49.06.195,LearnStrategy,2023.2.3,MacIntel,128.2051282,,,,,,,,,,,8,06,2,2,,,,,,,,,,,,,,,,,,,,,,,,,,,,,
666dcc6d47ca746d72d77e34,TCN,2024-06-21_13h49.06.195,LearnStrategy,2023.2.3,MacIntel,128.2051282,,,,,,,,,,,5,05,2,3,,,,,,,,,,,,,,,,,,,,,,,,,,,,,
666dcc6d47ca746d72d77e34,TCN,2024-06-21_13h49.06.195,LearnStrategy,2023.2.3,MacIntel,128.2051282,,,,,,,,,,,1,03,2,4,,,,,,,,,,,,,,,,,,,,,,,,,,,,,
666dcc6d47ca746d72d77e34,TCN,2024-06-21_13h49.06.195,LearnStrategy,2023.2.3,MacIntel,128.2051282,,,,,,,,,,,2,12,2,5,,,,,,,,,,,,,,,,,,,,,,,,,,,,,
666dcc6d47ca746d72d77e34,TCN,2024-06-21_13h49.06.195,LearnStrategy,2023.2.3,MacIntel,128.2051282,,,,,,,,,,,5,07,2,6,,,,,,,,,,,,,,,,,,,,,,,,,,,,,
666dcc6d47ca746d72d77e34,TCN,2024-06-21_13h49.06.195,LearnStrategy,2023.2.3,MacIntel,128.2051282,,,,,,,,,,,3,11,2,7,,,,,,,,,,,,,,,,,,,,,,,,,,,,,
666dcc6d47ca746d72d77e34,TCN,2024-06-21_13h49.06.195,LearnStrategy,2023.2.3,MacIntel,128.2051282,,,,,,,,,,,3,13,2,8,,,,,,,,,,,,,,,,,,,,,,,,,,,,,
666dcc6d47ca746d72d77e34,TCN,2024-06-21_13h49.06.195,LearnStrategy,2023.2.3,MacIntel,128.2051282,,,,,,,,,,,2,02,3,1,,,,,,,,,,,,,,,,,,,,,,,,,,,,,
666dcc6d47ca746d72d77e34,TCN,2024-06-21_13h49.06.195,LearnStrategy,2023.2.3,MacIntel,128.2051282,,,,,,,,,,,3,02,3,2,,,,,,,,,,,,,,,,,,,,,,,,,,,,,
666dcc6d47ca746d72d77e34,TCN,2024-06-21_13h49.06.195,LearnStrategy,2023.2.3,MacIntel,128.2051282,,,,,,,,,,,4,10,3,3,,,,,,,,,,,,,,,,,,,,,,,,,,,,,
666dcc6d47ca746d72d77e34,TCN,2024-06-21_13h49.06.195,LearnStrategy,2023.2.3,MacIntel,128.2051282,,,,,,,,,,,2,05,3,4,,,,,,,,,,,,,,,,,,,,,,,,,,,,,
666dcc6d47ca746d72d77e34,TCN,2024-06-21_13h49.06.195,LearnStrategy,2023.2.3,MacIntel,128.2051282,,,,,,,,,,,2,16,3,5,,,,,,,,,,,,,,,,,,,,,,,,,,,,,
666dcc6d47ca746d72d77e34,TCN,2024-06-21_13h49.06.195,LearnStrategy,2023.2.3,MacIntel,128.2051282,,,,,,,,,,,2,01,3,6,,,,,,,,,,,,,,,,,,,,,,,,,,,,,
666dcc6d47ca746d72d77e34,TCN,2024-06-21_13h49.06.195,LearnStrategy,2023.2.3,MacIntel,128.2051282,,,,,,,,,,,1,06,3,7,,,,,,,,,,,,,,,,,,,,,,,,,,,,,
666dcc6d47ca746d72d77e34,TCN,2024-06-21_13h49.06.195,LearnStrategy,2023.2.3,MacIntel,128.2051282,,,,,,,,,,,7,02,3,8,,,,,,,,,,,,,,,,,,,,,,,,,,,,,
666dcc6d47ca746d72d77e34,TCN,2024-06-21_13h49.06.195,LearnStrategy,2023.2.3,MacIntel,128.2051282,,,,,,,,,,,5,11,4,1,,,,,,,,,,,,,,,,,,,,,,,,,,,,,
666dcc6d47ca746d72d77e34,TCN,2024-06-21_13h49.06.195,LearnStrategy,2023.2.3,MacIntel,128.2051282,,,,,,,,,,,8,02,4,2,,,,,,,,,,,,,,,,,,,,,,,,,,,,,
666dcc6d47ca746d72d77e34,TCN,2024-06-21_13h49.06.195,LearnStrategy,2023.2.3,MacIntel,128.2051282,,,,,,,,,,,6,13,4,3,,,,,,,,,,,,,,,,,,,,,,,,,,,,,
666dcc6d47ca746d72d77e34,TCN,2024-06-21_13h49.06.195,LearnStrategy,2023.2.3,MacIntel,128.2051282,,,,,,,,,,,8,15,4,4,,,,,,,,,,,,,,,,,,,,,,,,,,,,,
666dcc6d47ca746d72d77e34,TCN,2024-06-21_13h49.06.195,LearnStrategy,2023.2.3,MacIntel,128.2051282,,,,,,,,,,,1,04,4,5,,,,,,,,,,,,,,,,,,,,,,,,,,,,,
666dcc6d47ca746d72d77e34,TCN,2024-06-21_13h49.06.195,LearnStrategy,2023.2.3,MacIntel,128.2051282,,,,,,,,,,,7,05,4,6,,,,,,,,,,,,,,,,,,,,,,,,,,,,,
666dcc6d47ca746d72d77e34,TCN,2024-06-21_13h49.06.195,LearnStrategy,2023.2.3,MacIntel,128.2051282,,,,,,,,,,,7,16,4,7,,,,,,,,,,,,,,,,,,,,,,,,,,,,,
666dcc6d47ca746d72d77e34,TCN,2024-06-21_13h49.06.195,LearnStrategy,2023.2.3,MacIntel,128.2051282,,,,,,,,,,,3,16,4,8,,,,,,,,,,,,,,,,,,,,,,,,,,,,,
666dcc6d47ca746d72d77e34,TCN,2024-06-21_13h49.06.195,LearnStrategy,2023.2.3,MacIntel,128.2051282,,,,,,,,,,,6,15,5,1,,,,,,,,,,,,,,,,,,,,,,,,,,,,,
666dcc6d47ca746d72d77e34,TCN,2024-06-21_13h49.06.195,LearnStrategy,2023.2.3,MacIntel,128.2051282,,,,,,,,,,,8,10,5,2,,,,,,,,,,,,,,,,,,,,,,,,,,,,,
666dcc6d47ca746d72d77e34,TCN,2024-06-21_13h49.06.195,LearnStrategy,2023.2.3,MacIntel,128.2051282,,,,,,,,,,,6,10,5,3,,,,,,,,,,,,,,,,,,,,,,,,,,,,,
666dcc6d47ca746d72d77e34,TCN,2024-06-21_13h49.06.195,LearnStrategy,2023.2.3,MacIntel,128.2051282,,,,,,,,,,,4,08,5,4,,,,,,,,,,,,,,,,,,,,,,,,,,,,,
666dcc6d47ca746d72d77e34,TCN,2024-06-21_13h49.06.195,LearnStrategy,2023.2.3,MacIntel,128.2051282,,,,,,,,,,,3,08,5,5,,,,,,,,,,,,,,,,,,,,,,,,,,,,,
666dcc6d47ca746d72d77e34,TCN,2024-06-21_13h49.06.195,LearnStrategy,2023.2.3,MacIntel,128.2051282,,,,,,,,,,,7,12,5,6,,,,,,,,,,,,,,,,,,,,,,,,,,,,,
666dcc6d47ca746d72d77e34,TCN,2024-06-21_13h49.06.195,LearnStrategy,2023.2.3,MacIntel,128.2051282,,,,,,,,,,,6,07,5,7,,,,,,,,,,,,,,,,,,,,,,,,,,,,,
666dcc6d47ca746d72d77e34,TCN,2024-06-21_13h49.06.195,LearnStrategy,2023.2.3,MacIntel,128.2051282,,,,,,,,,,,5,06,5,8,,,,,,,,,,,,,,,,,,,,,,,,,,,,,
666dcc6d47ca746d72d77e34,TCN,2024-06-21_13h49.06.195,LearnStrategy,2023.2.3,MacIntel,128.2051282,,,,,,,,,,,1,05,6,1,,,,,,,,,,,,,,,,,,,,,,,,,,,,,
666dcc6d47ca746d72d77e34,TCN,2024-06-21_13h49.06.195,LearnStrategy,2023.2.3,MacIntel,128.2051282,,,,,,,,,,,4,13,6,2,,,,,,,,,,,,,,,,,,,,,,,,,,,,,
666dcc6d47ca746d72d77e34,TCN,2024-06-21_13h49.06.195,LearnStrategy,2023.2.3,MacIntel,128.2051282,,,,,,,,,,,6,08,6,3,,,,,,,,,,,,,,,,,,,,,,,,,,,,,
666dcc6d47ca746d72d77e34,TCN,2024-06-21_13h49.06.195,LearnStrategy,2023.2.3,MacIntel,128.2051282,,,,,,,,,,,5,02,6,4,,,,,,,,,,,,,,,,,,,,,,,,,,,,,
666dcc6d47ca746d72d77e34,TCN,2024-06-21_13h49.06.195,LearnStrategy,2023.2.3,MacIntel,128.2051282,,,,,,,,,,,4,12,6,5,,,,,,,,,,,,,,,,,,,,,,,,,,,,,
666dcc6d47ca746d72d77e34,TCN,2024-06-21_13h49.06.195,LearnStrategy,2023.2.3,MacIntel,128.2051282,,,,,,,,,,,4,01,6,6,,,,,,,,,,,,,,,,,,,,,,,,,,,,,
666dcc6d47ca746d72d77e34,TCN,2024-06-21_13h49.06.195,LearnStrategy,2023.2.3,MacIntel,128.2051282,,,,,,,,,,,7,08,6,7,,,,,,,,,,,,,,,,,,,,,,,,,,,,,
666dcc6d47ca746d72d77e34,TCN,2024-06-21_13h49.06.195,LearnStrategy,2023.2.3,MacIntel,128.2051282,,,,,,,,,,,4,14,6,8,,,,,,,,,,,,,,,,,,,,,,,,,,,,,