participant,condition,date,expName,psychopyVersion,OS,frameRate,block,phase,trial,learn_mouse_2.x,learn_mouse_2.y,learn_mouse_2.leftButton,learn_mouse_2.midButton,learn_mouse_2.rightButton,learn_mouse_2.time,learn_mouse_2.clicked_name,cat,token,row,col,t_select,cat_mouse_l.x,cat_mouse_l.y,cat_mouse_l.leftButton,cat_mouse_l.midButton,cat_mouse_l.rightButton,cat_mouse_l.time,cat_mouse_l.clicked_name,resp,t_resp,corr,train_trials.thisRepN,train_trials.thisTrialN,train_trials.thisN,train_trials.thisIndex,train_trials.ran,cat_mouse_t.x,cat_mouse_t.y,cat_mouse_t.leftButton,cat_mouse_t.midButton,cat_mouse_t.rightButton,cat_mouse_t.time,cat_mouse_t.clicked_name,test_trials.thisRepN,test_trials.thisTrialN,test_trials.thisN,test_trials.thisIndex,test_trials.ran,Bonus
666e10f6dcf5bf60a08cb049,TCR,2024-06-25_11h40.13.911,LearnStrategy,2023.2.3,Win32,60.24096386,,,,,,,,,,,,,,,,,,,,,,,,,,,,,,,,,,,,,,,,,,,
666e10f6dcf5bf60a08cb049,TCR,2024-06-25_11h40.13.911,LearnStrategy,2023.2.3,Win32,60.24096386,1,1,1,-0.059166654,0.004999987,1,0,0,3.5245,rock_grid_rect_2,3,11,-1,-1,3.525,-0.154166667,-0.241666667,1,0,0,11.9348,Basalt_rect,2,11.935,0,0,0,0,0,1,,,,,,,,,,,,,
666e10f6dcf5bf60a08cb049,TCR,2024-06-25_11h40.13.911,LearnStrategy,2023.2.3,Win32,60.24096386,1,1,2,0.022500038,0.007499981,1,0,0,2.6254,rock_grid_rect_2,8,10,-1,-1,2.625,0.367500051,-0.381666692,1,0,0,2.195,Pumice_rect,8,2.195,1,1,0,1,0,1,,,,,,,,,,,,,
666e10f6dcf5bf60a08cb049,TCR,2024-06-25_11h40.13.911,LearnStrategy,2023.2.3,Win32,60.24096386,1,1,3,-0.024166679,0.008333333,1,0,0,1.2981,rock_grid_rect_2,6,15,-1,-1,1.298,0.110000038,-0.396666654,1,0,0,5.3168,Peridotite_rect,7,5.317,0,2,0,2,0,1,,,,,,,,,,,,,
666e10f6dcf5bf60a08cb049,TCR,2024-06-25_11h40.13.911,LearnStrategy,2023.2.3,Win32,60.24096386,1,1,4,0.025833321,-0.002499994,1,0,0,1.8552,rock_grid_rect_2,8,03,-1,-1,1.855,-0.107500013,-0.245000013,1,0,0,3.0858,Basalt_rect,2,3.086,0,3,0,3,0,1,,,,,,,,,,,,,
666e10f6dcf5bf60a08cb049,TCR,2024-06-25_11h40.13.911,LearnStrategy,2023.2.3,Win32,60.24096386,1,1,5,0.020000013,-0.011666679,1,0,0,2.1477,rock_grid_rect_2,4,11,-1,-1,2.148,-0.427499994,-0.385000038,1,0,0,8.4418,Obsidian_rect,5,8.442,0,4,0,4,0,1,,,,,,,,,,,,,
666e10f6dcf5bf60a08cb049,TCR,2024-06-25_11h40.13.911,LearnStrategy,2023.2.3,Win32,60.24096386,1,1,6,0.020833333,0,1,0,0,1.5239,rock_grid_rect_2,5,04,-1,-1,1.524,-0.327499994,-0.391666667,1,0,0,2.5778,Obsidian_rect,5,2.578,1,5,0,5,0,1,,,,,,,,,,,,,
666e10f6dcf5bf60a08cb049,TCR,2024-06-25_11h40.13.911,LearnStrategy,2023.2.3,Win32,60.24096386,1,1,7,0.040833346,-0.009166686,1,0,0,1.3148,rock_grid_rect_2,1,01,-1,-1,1.315,-0.141666667,-0.251666705,1,0,0,4.528,Basalt_rect,2,4.528,0,6,0,6,0,1,,,,,,,,,,,,,
666e10f6dcf5bf60a08cb049,TCR,2024-06-25_11h40.13.911,LearnStrategy,2023.2.3,Win32,60.24096386,1,1,8,-0.034166654,-0.004166667,1,0,0,1.2925,rock_grid_rect_2,1,03,-1,-1,1.293,-0.397500006,-0.254166667,1,0,0,4.1586,Andesite_rect,1,4.159,1,7,0,7,0,1,,,,,,,,,,,,,
666e10f6dcf5bf60a08cb049,TCR,2024-06-25_11h40.13.911,LearnStrategy,2023.2.3,Win32,60.24096386,1,1,9,0.028333346,-0.0125,1,0,0,1.3815,rock_grid_rect_2,7,08,-1,-1,1.381,0.080833371,-0.390833346,1,0,0,3.9604,Peridotite_rect,7,3.96,1,8,0,8,0,1,,,,,,,,,,,,,
666e10f6dcf5bf60a08cb049,TCR,2024-06-25_11h40.13.911,LearnStrategy,2023.2.3,Win32,60.24096386,1,1,10,0.024166679,0.003333314,1,0,0,1.5475,rock_grid_rect_2,5,12,-1,-1,1.547,-0.363333321,-0.396666654,1,0,0,1.5282,Obsidian_rect,5,1.528,1,9,0,9,0,1,,,,,,,,,,,,,
666e10f6dcf5bf60a08cb049,TCR,2024-06-25_11h40.13.911,LearnStrategy,2023.2.3,Win32,60.24096386,1,1,11,-0.014999962,0.021666654,1,0,0,1.0822,rock_grid_rect_2,6,06,-1,-1,1.082,0.108333333,-0.396666654,1,0,0,6.4591,Peridotite_rect,7,6.459,0,10,0,10,0,1,,,,,,,,,,,,,
666e10f6dcf5bf60a08cb049,TCR,2024-06-25_11h40.13.911,LearnStrategy,2023.2.3,Win32,60.24096386,1,1,12,0.051666705,0.007499981,1,0,0,1.2485,rock_grid_rect_2,2,01,-1,-1,1.249,-0.107500013,-0.250833321,1,0,0,6.2428,Basalt_rect,2,6.243,1,11,0,11,0,1,,,,,,,,,,,,,
666e10f6dcf5bf60a08cb049,TCR,2024-06-25_11h40.13.911,LearnStrategy,2023.2.3,Win32,60.24096386,1,1,13,-0.019166629,0,1,0,0,1.1653,rock_grid_rect_2,2,09,-1,-1,1.165,-0.335000006,-0.240833346,1,0,0,3.0618,Andesite_rect,1,3.062,0,12,0,12,0,1,,,,,,,,,,,,,
666e10f6dcf5bf60a08cb049,TCR,2024-06-25_11h40.13.911,LearnStrategy,2023.2.3,Win32,60.24096386,1,1,14,-0.021666654,-0.002499994,1,0,0,1.0646,rock_grid_rect_2,7,16,-1,-1,1.065,-0.086666679,-0.404999987,1,0,0,2.0119,Pegmatite_rect,6,2.012,0,13,0,13,0,1,,,,,,,,,,,,,
666e10f6dcf5bf60a08cb049,TCR,2024-06-25_11h40.13.911,LearnStrategy,2023.2.3,Win32,60.24096386,1,1,15,0.053333346,0.000833321,1,0,0,1.3654,rock_grid_rect_2,4,08,-1,-1,1.365,-0.089999962,-0.410833359,1,0,0,2.4108,Pegmatite_rect,6,2.411,0,14,0,14,0,1,,,,,,,,,,,,,
666e10f6dcf5bf60a08cb049,TCR,2024-06-25_11h40.13.911,LearnStrategy,2023.2.3,Win32,60.24096386,1,1,16,0.029999987,-0.008333333,1,0,0,1.2319,rock_grid_rect_2,3,08,-1,-1,1.232,-0.075833321,-0.398333359,1,0,0,3.811,Pegmatite_rect,6,3.811,0,15,0,15,0,1,,,,,,,,,,,,,
666e10f6dcf5bf60a08cb049,TCR,2024-06-25_11h40.13.911,LearnStrategy,2023.2.3,Win32,60.24096386,1,2,1,,,,,,,,6,07,,,,,,,,,,,7,6.243,0,,,,,,0.114166705,-0.409166654,1,0,0,6.2431,Peridotite_rect,0,0,0,0,1,
666e10f6dcf5bf60a08cb049,TCR,2024-06-25_11h40.13.911,LearnStrategy,2023.2.3,Win32,60.24096386,1,2,2,,,,,,,,7,02,,,,,,,,,,,7,2.739,1,,,,,,0.114166705,-0.409166654,1,0,0,2.7388,Peridotite_rect,1,0,1,0,1,
666e10f6dcf5bf60a08cb049,TCR,2024-06-25_11h40.13.911,LearnStrategy,2023.2.3,Win32,60.24096386,1,2,3,,,,,,,,2,10,,,,,,,,,,,3,6.708,0,,,,,,0.119166692,-0.2375,1,0,0,6.7078,Diorite_rect,2,0,2,0,1,
666e10f6dcf5bf60a08cb049,TCR,2024-06-25_11h40.13.911,LearnStrategy,2023.2.3,Win32,60.24096386,1,2,4,,,,,,,,2,02,,,,,,,,,,,2,1.872,1,,,,,,-0.116666667,-0.257500013,1,0,0,1.8717,Basalt_rect,3,0,3,0,1,
666e10f6dcf5bf60a08cb049,TCR,2024-06-25_11h40.13.911,LearnStrategy,2023.2.3,Win32,60.24096386,1,2,5,,,,,,,,8,15,,,,,,,,,,,8,1.612,1,,,,,,0.342500051,-0.395000013,1,0,0,1.6122,Pumice_rect,4,0,4,0,1,
666e10f6dcf5bf60a08cb049,TCR,2024-06-25_11h40.13.911,LearnStrategy,2023.2.3,Win32,60.24096386,1,2,6,,,,,,,,6,13,,,,,,,,,,,1,2.062,0,,,,,,-0.40666666,-0.247500038,1,0,0,2.062,Andesite_rect,5,0,5,0,1,
666e10f6dcf5bf60a08cb049,TCR,2024-06-25_11h40.13.911,LearnStrategy,2023.2.3,Win32,60.24096386,1,2,7,,,,,,,,5,02,,,,,,,,,,,5,1.412,1,,,,,,-0.432499981,-0.385833359,1,0,0,1.4118,Obsidian_rect,6,0,6,0,1,
666e10f6dcf5bf60a08cb049,TCR,2024-06-25_11h40.13.911,LearnStrategy,2023.2.3,Win32,60.24096386,1,2,8,,,,,,,,4,12,,,,,,,,,,,2,1.878,0,,,,,,-0.189999962,-0.233333333,1,0,0,1.8784,Basalt_rect,7,0,7,0,1,
666e10f6dcf5bf60a08cb049,TCR,2024-06-25_11h40.13.911,LearnStrategy,2023.2.3,Win32,60.24096386,1,2,9,,,,,,,,7,04,,,,,,,,,,,6,4.987,0,,,,,,-0.079166667,-0.401666705,1,0,0,4.987,Pegmatite_rect,8,0,8,0,1,
666e10f6dcf5bf60a08cb049,TCR,2024-06-25_11h40.13.911,LearnStrategy,2023.2.3,Win32,60.24096386,1,2,10,,,,,,,,4,01,,,,,,,,,,,6,2.24,0,,,,,,-0.106666629,-0.396666654,1,0,0,2.2403,Pegmatite_rect,9,0,9,0,1,
666e10f6dcf5bf60a08cb049,TCR,2024-06-25_11h40.13.911,LearnStrategy,2023.2.3,Win32,60.24096386,1,2,11,,,,,,,,3,02,,,,,,,,,,,7,2.571,0,,,,,,0.066666667,-0.395833333,1,0,0,2.571,Peridotite_rect,10,0,10,0,1,
666e10f6dcf5bf60a08cb049,TCR,2024-06-25_11h40.13.911,LearnStrategy,2023.2.3,Win32,60.24096386,1,2,12,,,,,,,,3,15,,,,,,,,,,,7,3.243,0,,,,,,0.066666667,-0.395833333,1,0,0,3.2427,Peridotite_rect,11,0,11,0,1,
666e10f6dcf5bf60a08cb049,TCR,2024-06-25_11h40.13.911,LearnStrategy,2023.2.3,Win32,60.24096386,1,2,13,,,,,,,,1,05,,,,,,,,,,,1,2.806,1,,,,,,-0.396666654,-0.2375,1,0,0,2.8057,Andesite_rect,12,0,12,0,1,
666e10f6dcf5bf60a08cb049,TCR,2024-06-25_11h40.13.911,LearnStrategy,2023.2.3,Win32,60.24096386,1,2,14,,,,,,,,5,06,,,,,,,,,,,5,1.704,1,,,,,,-0.433333333,-0.391666667,1,0,0,1.7045,Obsidian_rect,13,0,13,0,1,
666e10f6dcf5bf60a08cb049,TCR,2024-06-25_11h40.13.911,LearnStrategy,2023.2.3,Win32,60.24096386,1,2,15,,,,,,,,8,14,,,,,,,,,,,8,1.029,1,,,,,,0.395833333,-0.393333371,1,0,0,1.029,Pumice_rect,14,0,14,0,1,
666e10f6dcf5bf60a08cb049,TCR,2024-06-25_11h40.13.911,LearnStrategy,2023.2.3,Win32,60.24096386,1,2,16,,,,,,,,1,02,,,,,,,,,,,6,6.127,0,,,,,,-0.093333308,-0.399166679,1,0,0,6.1267,Pegmatite_rect,15,0,15,0,1,
666e10f6dcf5bf60a08cb049,TCR,2024-06-25_11h40.13.911,LearnStrategy,2023.2.3,Win32,60.24096386,2,1,1,0.044166692,0.011666648,1,0,0,1.5317,rock_grid_rect_2,6,06,-1,-1,1.532,-0.132500013,-0.398333359,1,0,0,6.2775,Pegmatite_rect,6,6.278,1,0,0,0,0,1,,,,,,,,,,,,,
666e10f6dcf5bf60a08cb049,TCR,2024-06-25_11h40.13.911,LearnStrategy,2023.2.3,Win32,60.24096386,2,1,2,0.055833371,0.00583334,1,0,0,1.3987,rock_grid_rect_2,4,05,-1,-1,1.399,0.120833333,-0.392499987,1,0,0,3.3947,Peridotite_rect,7,3.395,0,1,0,1,0,1,,,,,,,,,,,,,
666e10f6dcf5bf60a08cb049,TCR,2024-06-25_11h40.13.911,LearnStrategy,2023.2.3,Win32,60.24096386,2,1,3,-0.005833308,-0.010833327,1,0,0,1.3987,rock_grid_rect_2,1,09,-1,-1,1.399,0.36583341,-0.243333371,1,0,0,5.9597,Gabbro_rect,4,5.96,0,2,0,2,0,1,,,,,,,,,,,,,
666e10f6dcf5bf60a08cb049,TCR,2024-06-25_11h40.13.911,LearnStrategy,2023.2.3,Win32,60.24096386,2,1,4,0.014166705,0.016666667,1,0,0,1.4322,rock_grid_rect_2,7,05,-1,-1,1.432,0.109166654,-0.395000013,1,0,0,5.1268,Peridotite_rect,7,5.127,1,3,0,3,0,1,,,,,,,,,,,,,
666e10f6dcf5bf60a08cb049,TCR,2024-06-25_11h40.13.911,LearnStrategy,2023.2.3,Win32,60.24096386,2,1,5,0.019166692,0.0125,1,0,0,1.3483,rock_grid_rect_2,3,13,-1,-1,1.348,0.086666679,-0.4125,1,0,0,2.1279,Peridotite_rect,7,2.128,0,4,0,4,0,1,,,,,,,,,,,,,
666e10f6dcf5bf60a08cb049,TCR,2024-06-25_11h40.13.911,LearnStrategy,2023.2.3,Win32,60.24096386,2,1,6,0.004166667,-0.00666666,1,0,0,1.1418,rock_grid_rect_2,6,06,-1,-1,1.142,0.146666654,-0.398333359,1,0,0,4.0269,Peridotite_rect,7,4.027,0,5,0,5,0,1,,,,,,,,,,,,,
666e10f6dcf5bf60a08cb049,TCR,2024-06-25_11h40.13.911,LearnStrategy,2023.2.3,Win32,60.24096386,2,1,7,0.028333346,-0.004166667,1,0,0,1.648,rock_grid_rect_2,3,14,-1,-1,1.648,-0.130833308,-0.409166654,1,0,0,2.8954,Pegmatite_rect,6,2.895,0,6,0,6,0,1,,,,,,,,,,,,,
666e10f6dcf5bf60a08cb049,TCR,2024-06-25_11h40.13.911,LearnStrategy,2023.2.3,Win32,60.24096386,2,1,8,0.035000038,0.007499981,1,0,0,1.232,rock_grid_rect_2,4,15,-1,-1,1.232,-0.138333321,-0.406666692,1,0,0,4.7617,Pegmatite_rect,6,4.762,0,7,0,7,0,1,,,,,,,,,,,,,
666e10f6dcf5bf60a08cb049,TCR,2024-06-25_11h40.13.911,LearnStrategy,2023.2.3,Win32,60.24096386,2,1,9,0.035833359,-0.000833352,1,0,0,1.0815,rock_grid_rect_2,1,10,-1,-1,1.082,0.380833308,-0.234166654,1,0,0,5.7597,Gabbro_rect,4,5.76,0,8,0,8,0,1,,,,,,,,,,,,,
666e10f6dcf5bf60a08cb049,TCR,2024-06-25_11h40.13.911,LearnStrategy,2023.2.3,Win32,60.24096386,2,1,10,-0.021666654,-0.004166667,1,0,0,1.1151,rock_grid_rect_2,7,05,-1,-1,1.115,0.076666705,-0.415000025,1,0,0,2.9451,Peridotite_rect,7,2.945,1,9,0,9,0,1,,,,,,,,,,,,,
666e10f6dcf5bf60a08cb049,TCR,2024-06-25_11h40.13.911,LearnStrategy,2023.2.3,Win32,60.24096386,2,1,11,0.014166705,0.00583334,1,0,0,1.8813,rock_grid_rect_2,3,07,-1,-1,1.881,0.158333333,-0.253333346,1,0,0,3.262,Diorite_rect,3,3.262,1,10,0,10,0,1,,,,,,,,,,,,,
666e10f6dcf5bf60a08cb049,TCR,2024-06-25_11h40.13.911,LearnStrategy,2023.2.3,Win32,60.24096386,2,1,12,0.011666679,-0.0125,1,0,0,1.1319,rock_grid_rect_2,4,08,-1,-1,1.132,-0.360000006,-0.258333333,1,0,0,3.0452,Andesite_rect,1,3.045,0,11,0,11,0,1,,,,,,,,,,,,,
666e10f6dcf5bf60a08cb049,TCR,2024-06-25_11h40.13.911,LearnStrategy,2023.2.3,Win32,60.24096386,2,1,13,0.083333333,-0.000833352,1,0,0,1.1989,rock_grid_rect_2,6,16,-1,-1,1.199,0.151666705,-0.251666705,1,0,0,8.2083,Diorite_rect,3,8.208,0,12,0,12,0,1,,,,,,,,,,,,,
666e10f6dcf5bf60a08cb049,TCR,2024-06-25_11h40.13.911,LearnStrategy,2023.2.3,Win32,60.24096386,2,1,14,0.034166654,-0.025,1,0,0,1.2149,rock_grid_rect_2,6,09,-1,-1,1.215,0.075833321,-0.391666667,1,0,0,4.7279,Peridotite_rect,7,4.728,0,13,0,13,0,1,,,,,,,,,,,,,
666e10f6dcf5bf60a08cb049,TCR,2024-06-25_11h40.13.911,LearnStrategy,2023.2.3,Win32,60.24096386,2,1,15,-0.051666641,0.021666654,1,0,0,1.0653,rock_grid_rect_2,2,04,-1,-1,1.065,-0.150833321,-0.245000013,1,0,0,2.2948,Basalt_rect,2,2.295,1,14,0,14,0,1,,,,,,,,,,,,,
666e10f6dcf5bf60a08cb049,TCR,2024-06-25_11h40.13.911,LearnStrategy,2023.2.3,Win32,60.24096386,2,1,16,0.000833321,0.010000006,1,0,0,1.0648,rock_grid_rect_2,2,05,-1,-1,1.065,-0.141666667,-0.261666679,1,0,0,1.9609,Basalt_rect,2,1.961,1,15,0,15,0,1,,,,,,,,,,,,,
666e10f6dcf5bf60a08cb049,TCR,2024-06-25_11h40.13.911,LearnStrategy,2023.2.3,Win32,60.24096386,2,2,1,,,,,,,,8,04,,,,,,,,,,,8,1.528,1,,,,,,0.356666692,-0.394166692,1,0,0,1.5279,Pumice_rect,0,0,0,0,1,
666e10f6dcf5bf60a08cb049,TCR,2024-06-25_11h40.13.911,LearnStrategy,2023.2.3,Win32,60.24096386,2,2,2,,,,,,,,2,11,,,,,,,,,,,8,1.812,0,,,,,,0.356666692,-0.394166692,1,0,0,1.8121,Pumice_rect,1,0,1,0,1,
666e10f6dcf5bf60a08cb049,TCR,2024-06-25_11h40.13.911,LearnStrategy,2023.2.3,Win32,60.24096386,2,2,3,,,,,,,,6,05,,,,,,,,,,,3,4.677,0,,,,,,0.128333346,-0.245000013,1,0,0,4.6774,Diorite_rect,2,0,2,0,1,
666e10f6dcf5bf60a08cb049,TCR,2024-06-25_11h40.13.911,LearnStrategy,2023.2.3,Win32,60.24096386,2,2,4,,,,,,,,5,11,,,,,,,,,,,5,1.336,1,,,,,,-0.364999994,-0.391666667,1,0,0,1.3357,Obsidian_rect,3,0,3,0,1,
666e10f6dcf5bf60a08cb049,TCR,2024-06-25_11h40.13.911,LearnStrategy,2023.2.3,Win32,60.24096386,2,2,5,,,,,,,,4,16,,,,,,,,,,,1,4.011,0,,,,,,-0.392499987,-0.265833346,1,0,0,4.0106,Andesite_rect,4,0,4,0,1,
666e10f6dcf5bf60a08cb049,TCR,2024-06-25_11h40.13.911,LearnStrategy,2023.2.3,Win32,60.24096386,2,2,6,,,,,,,,6,12,,,,,,,,,,,3,4.852,0,,,,,,0.125833321,-0.260833359,1,0,0,4.8523,Diorite_rect,5,0,5,0,1,
666e10f6dcf5bf60a08cb049,TCR,2024-06-25_11h40.13.911,LearnStrategy,2023.2.3,Win32,60.24096386,2,2,7,,,,,,,,3,09,,,,,,,,,,,3,1.12,1,,,,,,0.115000025,-0.261666679,1,0,0,1.1204,Diorite_rect,6,0,6,0,1,
666e10f6dcf5bf60a08cb049,TCR,2024-06-25_11h40.13.911,LearnStrategy,2023.2.3,Win32,60.24096386,2,2,8,,,,,,,,7,13,,,,,,,,,,,7,2.944,1,,,,,,0.101666705,-0.381666692,1,0,0,2.9442,Peridotite_rect,7,0,7,0,1,
666e10f6dcf5bf60a08cb049,TCR,2024-06-25_11h40.13.911,LearnStrategy,2023.2.3,Win32,60.24096386,2,2,9,,,,,,,,2,16,,,,,,,,,,,8,2.274,0,,,,,,0.393333308,-0.405833371,1,0,0,2.2741,Pumice_rect,8,0,8,0,1,
666e10f6dcf5bf60a08cb049,TCR,2024-06-25_11h40.13.911,LearnStrategy,2023.2.3,Win32,60.24096386,2,2,10,,,,,,,,1,07,,,,,,,,,,,1,4.043,1,,,,,,-0.429166667,-0.254999987,1,0,0,4.0435,Andesite_rect,9,0,9,0,1,
666e10f6dcf5bf60a08cb049,TCR,2024-06-25_11h40.13.911,LearnStrategy,2023.2.3,Win32,60.24096386,2,2,11,,,,,,,,7,14,,,,,,,,,,,7,2.507,1,,,,,,0.107500013,-0.401666705,1,0,0,2.5073,Peridotite_rect,10,0,10,0,1,
666e10f6dcf5bf60a08cb049,TCR,2024-06-25_11h40.13.911,LearnStrategy,2023.2.3,Win32,60.24096386,2,2,12,,,,,,,,1,04,,,,,,,,,,,4,6.309,0,,,,,,0.381666692,-0.230833371,1,0,0,6.3095,Gabbro_rect,11,0,11,0,1,
666e10f6dcf5bf60a08cb049,TCR,2024-06-25_11h40.13.911,LearnStrategy,2023.2.3,Win32,60.24096386,2,2,13,,,,,,,,3,06,,,,,,,,,,,3,4.69,1,,,,,,0.131666692,-0.258333333,1,0,0,4.6897,Diorite_rect,12,0,12,0,1,
666e10f6dcf5bf60a08cb049,TCR,2024-06-25_11h40.13.911,LearnStrategy,2023.2.3,Win32,60.24096386,2,2,14,,,,,,,,8,02,,,,,,,,,,,8,1.607,1,,,,,,0.375,-0.386666679,1,0,0,1.6067,Pumice_rect,13,0,13,0,1,
666e10f6dcf5bf60a08cb049,TCR,2024-06-25_11h40.13.911,LearnStrategy,2023.2.3,Win32,60.24096386,2,2,15,,,,,,,,4,09,,,,,,,,,,,4,6.743,1,,,,,,0.461666743,-0.269166692,1,0,0,6.7432,Gabbro_rect,14,0,14,0,1,
666e10f6dcf5bf60a08cb049,TCR,2024-06-25_11h40.13.911,LearnStrategy,2023.2.3,Win32,60.24096386,2,2,16,,,,,,,,5,16,,,,,,,,,,,5,1.423,1,,,,,,-0.39416666,-0.385833359,1,0,0,1.4229,Obsidian_rect,15,0,15,0,1,
666e10f6dcf5bf60a08cb049,TCR,2024-06-25_11h40.13.911,LearnStrategy,2023.2.3,Win32,60.24096386,3,1,1,-0.039166641,-0.014999994,1,0,0,1.4062,rock_grid_rect_2,3,08,-1,-1,1.406,0.130833371,-0.245000013,1,0,0,2.1127,Diorite_rect,3,2.113,1,0,0,0,0,1,,,,,,,,,,,,,
666e10f6dcf5bf60a08cb049,TCR,2024-06-25_11h40.13.911,LearnStrategy,2023.2.3,Win32,60.24096386,3,1,2,-0.001666641,0,1,0,0,1.116,rock_grid_rect_2,7,08,-1,-1,1.116,0.074166679,-0.395833333,1,0,0,1.7139,Peridotite_rect,7,1.714,1,1,0,1,0,1,,,,,,,,,,,,,
666e10f6dcf5bf60a08cb049,TCR,2024-06-25_11h40.13.911,LearnStrategy,2023.2.3,Win32,60.24096386,3,1,3,-0.007500013,-0.007500013,1,0,0,1.1151,rock_grid_rect_2,6,03,-1,-1,1.115,-0.154166667,-0.391666667,1,0,0,2.82,Pegmatite_rect,6,2.82,1,2,0,2,0,1,,,,,,,,,,,,,
666e10f6dcf5bf60a08cb049,TCR,2024-06-25_11h40.13.911,LearnStrategy,2023.2.3,Win32,60.24096386,3,1,4,-0.007500013,-0.000833352,1,0,0,1.2932,rock_grid_rect_2,1,01,-1,-1,1.293,0.380833308,-0.231666692,1,0,0,2.2976,Gabbro_rect,4,2.298,0,3,0,3,0,1,,,,,,,,,,,,,
666e10f6dcf5bf60a08cb049,TCR,2024-06-25_11h40.13.911,LearnStrategy,2023.2.3,Win32,60.24096386,3,1,5,-0.064166641,-0.010833327,1,0,0,1.151,rock_grid_rect_2,1,14,-1,-1,1.151,-0.432499981,-0.248333359,1,0,0,1.7611,Andesite_rect,1,1.761,1,4,0,4,0,1,,,,,,,,,,,,,
666e10f6dcf5bf60a08cb049,TCR,2024-06-25_11h40.13.911,LearnStrategy,2023.2.3,Win32,60.24096386,3,1,6,0.022500038,0.008333333,1,0,0,1.0712,rock_grid_rect_2,3,07,-1,-1,1.071,0.128333346,-0.231666692,1,0,0,1.4271,Diorite_rect,3,1.427,1,5,0,5,0,1,,,,,,,,,,,,,
666e10f6dcf5bf60a08cb049,TCR,2024-06-25_11h40.13.911,LearnStrategy,2023.2.3,Win32,60.24096386,3,1,7,-0.054999987,0.007499981,1,0,0,1.0971,rock_grid_rect_2,2,01,-1,-1,1.097,-0.142499987,-0.242499987,1,0,0,2.1687,Basalt_rect,2,2.169,1,6,0,6,0,1,,,,,,,,,,,,,
666e10f6dcf5bf60a08cb049,TCR,2024-06-25_11h40.13.911,LearnStrategy,2023.2.3,Win32,60.24096386,3,1,8,-0.020833333,-0.00583334,1,0,0,1.0056,rock_grid_rect_2,2,04,-1,-1,1.006,-0.133333333,-0.235833359,1,0,0,1.1152,Basalt_rect,2,1.115,1,7,0,7,0,1,,,,,,,,,,,,,
666e10f6dcf5bf60a08cb049,TCR,2024-06-25_11h40.13.911,LearnStrategy,2023.2.3,Win32,60.24096386,3,1,9,-0.025,-0.009166686,1,0,0,1.0943,rock_grid_rect_2,4,11,-1,-1,1.094,0.380833308,-0.269166692,1,0,0,3.0778,Gabbro_rect,4,3.078,1,8,0,8,0,1,,,,,,,,,,,,,
666e10f6dcf5bf60a08cb049,TCR,2024-06-25_11h40.13.911,LearnStrategy,2023.2.3,Win32,60.24096386,3,1,10,-0.017499987,-0.003333346,1,0,0,0.882,rock_grid_rect_2,8,10,-1,-1,0.882,0.429166667,-0.404999987,1,0,0,1.4817,Pumice_rect,8,1.482,1,9,0,9,0,1,,,,,,,,,,,,,
666e10f6dcf5bf60a08cb049,TCR,2024-06-25_11h40.13.911,LearnStrategy,2023.2.3,Win32,60.24096386,3,1,11,-0.011666679,-0.014999994,1,0,0,1.1987,rock_grid_rect_2,6,15,-1,-1,1.199,-0.173333295,-0.404166667,1,0,0,2.162,Pegmatite_rect,6,2.162,1,10,0,10,0,1,,,,,,,,,,,,,
666e10f6dcf5bf60a08cb049,TCR,2024-06-25_11h40.13.911,LearnStrategy,2023.2.3,Win32,60.24096386,3,1,12,-0.013333321,0.000833321,1,0,0,0.9324,rock_grid_rect_2,6,09,-1,-1,0.932,-0.135833295,-0.393333371,1,0,0,1.36,Pegmatite_rect,6,1.36,1,11,0,11,0,1,,,,,,,,,,,,,
666e10f6dcf5bf60a08cb049,TCR,2024-06-25_11h40.13.911,LearnStrategy,2023.2.3,Win32,60.24096386,3,1,13,-0.036666679,-0.004166667,1,0,0,0.9814,rock_grid_rect_2,4,08,-1,-1,0.981,0.176666705,-0.251666705,1,0,0,3.8779,Diorite_rect,3,3.878,0,12,0,12,0,1,,,,,,,,,,,,,
666e10f6dcf5bf60a08cb049,TCR,2024-06-25_11h40.13.911,LearnStrategy,2023.2.3,Win32,60.24096386,3,1,14,0.025833321,0.000833321,1,0,0,1.0319,rock_grid_rect_2,4,03,-1,-1,1.032,0.199166679,-0.247500038,1,0,0,1.628,Diorite_rect,3,1.628,0,13,0,13,0,1,,,,,,,,,,,,,
666e10f6dcf5bf60a08cb049,TCR,2024-06-25_11h40.13.911,LearnStrategy,2023.2.3,Win32,60.24096386,3,1,15,0.021666654,0.008333333,1,0,0,0.9151,rock_grid_rect_2,2,08,-1,-1,0.915,-0.133333333,-0.245833333,1,0,0,1.912,Basalt_rect,2,1.912,1,14,0,14,0,1,,,,,,,,,,,,,
666e10f6dcf5bf60a08cb049,TCR,2024-06-25_11h40.13.911,LearnStrategy,2023.2.3,Win32,60.24096386,3,1,16,-0.006666629,-0.00583334,1,0,0,1.3984,rock_grid_rect_2,6,08,-1,-1,1.398,-0.115833346,-0.382500013,1,0,0,2.9617,Pegmatite_rect,6,2.962,1,15,0,15,0,1,,,,,,,,,,,,,
666e10f6dcf5bf60a08cb049,TCR,2024-06-25_11h40.13.911,LearnStrategy,2023.2.3,Win32,60.24096386,3,2,1,,,,,,,,2,12,,,,,,,,,,,8,1.912,0,,,,,,0.373333359,-0.384166654,1,0,0,1.9119,Pumice_rect,0,0,0,0,1,
666e10f6dcf5bf60a08cb049,TCR,2024-06-25_11h40.13.911,LearnStrategy,2023.2.3,Win32,60.24096386,3,2,2,,,,,,,,2,06,,,,,,,,,,,2,1.762,1,,,,,,-0.056666629,-0.239166705,1,0,0,1.7618,Basalt_rect,1,0,1,0,1,
666e10f6dcf5bf60a08cb049,TCR,2024-06-25_11h40.13.911,LearnStrategy,2023.2.3,Win32,60.24096386,3,2,3,,,,,,,,3,12,,,,,,,,,,,3,6.011,1,,,,,,0.120000013,-0.234166654,1,0,0,6.0105,Diorite_rect,2,0,2,0,1,
666e10f6dcf5bf60a08cb049,TCR,2024-06-25_11h40.13.911,LearnStrategy,2023.2.3,Win32,60.24096386,3,2,4,,,,,,,,5,05,,,,,,,,,,,5,1.588,1,,,,,,-0.397500006,-0.404166667,1,0,0,1.5884,Obsidian_rect,3,0,3,0,1,
666e10f6dcf5bf60a08cb049,TCR,2024-06-25_11h40.13.911,LearnStrategy,2023.2.3,Win32,60.24096386,3,2,5,,,,,,,,4,13,,,,,,,,,,,4,7.162,1,,,,,,0.3625,-0.240833346,1,0,0,7.1618,Gabbro_rect,4,0,4,0,1,
666e10f6dcf5bf60a08cb049,TCR,2024-06-25_11h40.13.911,LearnStrategy,2023.2.3,Win32,60.24096386,3,2,6,,,,,,,,8,05,,,,,,,,,,,8,1.639,1,,,,,,0.384999975,-0.394166692,1,0,0,1.6386,Pumice_rect,5,0,5,0,1,
666e10f6dcf5bf60a08cb049,TCR,2024-06-25_11h40.13.911,LearnStrategy,2023.2.3,Win32,60.24096386,3,2,7,,,,,,,,3,10,,,,,,,,,,,3,1.46,1,,,,,,0.167499987,-0.254999987,1,0,0,1.46,Diorite_rect,6,0,6,0,1,
666e10f6dcf5bf60a08cb049,TCR,2024-06-25_11h40.13.911,LearnStrategy,2023.2.3,Win32,60.24096386,3,2,8,,,,,,,,1,16,,,,,,,,,,,4,2.992,0,,,,,,0.420000076,-0.235833359,1,0,0,2.992,Gabbro_rect,7,0,7,0,1,
666e10f6dcf5bf60a08cb049,TCR,2024-06-25_11h40.13.911,LearnStrategy,2023.2.3,Win32,60.24096386,3,2,9,,,,,,,,7,06,,,,,,,,,,,6,1.888,0,,,,,,-0.158333333,-0.381666692,1,0,0,1.888,Pegmatite_rect,8,0,8,0,1,
666e10f6dcf5bf60a08cb049,TCR,2024-06-25_11h40.13.911,LearnStrategy,2023.2.3,Win32,60.24096386,3,2,10,,,,,,,,7,12,,,,,,,,,,,7,4.328,1,,,,,,0.120000013,-0.399166679,1,0,0,4.3278,Peridotite_rect,9,0,9,0,1,
666e10f6dcf5bf60a08cb049,TCR,2024-06-25_11h40.13.911,LearnStrategy,2023.2.3,Win32,60.24096386,3,2,11,,,,,,,,8,16,,,,,,,,,,,8,1.257,1,,,,,,0.371666718,-0.389166705,1,0,0,1.2566,Pumice_rect,10,0,10,0,1,
666e10f6dcf5bf60a08cb049,TCR,2024-06-25_11h40.13.911,LearnStrategy,2023.2.3,Win32,60.24096386,3,2,12,,,,,,,,1,06,,,,,,,,,,,4,3.211,0,,,,,,0.334166718,-0.258333333,1,0,0,3.2113,Gabbro_rect,11,0,11,0,1,
666e10f6dcf5bf60a08cb049,TCR,2024-06-25_11h40.13.911,LearnStrategy,2023.2.3,Win32,60.24096386,3,2,13,,,,,,,,6,11,,,,,,,,,,,6,1.372,1,,,,,,-0.108333333,-0.390000025,1,0,0,1.3718,Pegmatite_rect,12,0,12,0,1,
666e10f6dcf5bf60a08cb049,TCR,2024-06-25_11h40.13.911,LearnStrategy,2023.2.3,Win32,60.24096386,3,2,14,,,,,,,,4,14,,,,,,,,,,,1,2.744,0,,,,,,-0.417499987,-0.267499987,1,0,0,2.7441,Andesite_rect,13,0,13,0,1,
666e10f6dcf5bf60a08cb049,TCR,2024-06-25_11h40.13.911,LearnStrategy,2023.2.3,Win32,60.24096386,3,2,15,,,,,,,,6,10,,,,,,,,,,,6,1.839,1,,,,,,-0.175,-0.421666654,1,0,0,1.8388,Pegmatite_rect,14,0,14,0,1,
666e10f6dcf5bf60a08cb049,TCR,2024-06-25_11h40.13.911,LearnStrategy,2023.2.3,Win32,60.24096386,3,2,16,,,,,,,,5,14,,,,,,,,,,,5,1.595,1,,,,,,-0.310833327,-0.403333346,1,0,0,1.5953,Obsidian_rect,15,0,15,0,1,
666e10f6dcf5bf60a08cb049,TCR,2024-06-25_11h40.13.911,LearnStrategy,2023.2.3,Win32,60.24096386,4,1,1,-0.023333295,-0.020000013,1,0,0,44.2464,rock_grid_rect_2,6,16,-1,-1,44.246,-0.134999975,-0.418333371,1,0,0,1.8028,Pegmatite_rect,6,1.803,1,0,0,0,0,1,,,,,,,,,,,,,
666e10f6dcf5bf60a08cb049,TCR,2024-06-25_11h40.13.911,LearnStrategy,2023.2.3,Win32,60.24096386,4,1,2,-0.031666629,-0.015833346,1,0,0,1.8553,rock_grid_rect_2,4,15,-1,-1,1.855,-0.408333333,-0.253333346,1,0,0,2.6799,Andesite_rect,1,2.68,0,1,0,1,0,1,,,,,,,,,,,,,
666e10f6dcf5bf60a08cb049,TCR,2024-06-25_11h40.13.911,LearnStrategy,2023.2.3,Win32,60.24096386,4,1,3,0.015833346,-0.015833346,1,0,0,1.1502,rock_grid_rect_2,2,14,-1,-1,1.15,0.411666743,-0.409166654,1,0,0,1.8967,Pumice_rect,8,1.897,0,2,0,2,0,1,,,,,,,,,,,,,
666e10f6dcf5bf60a08cb049,TCR,2024-06-25_11h40.13.911,LearnStrategy,2023.2.3,Win32,60.24096386,4,1,4,0.030833371,-0.0125,1,0,0,1.2845,rock_grid_rect_2,6,16,-1,-1,1.284,-0.115833346,-0.406666692,1,0,0,1.2954,Pegmatite_rect,6,1.295,1,3,0,3,0,1,,,,,,,,,,,,,
666e10f6dcf5bf60a08cb049,TCR,2024-06-25_11h40.13.911,LearnStrategy,2023.2.3,Win32,60.24096386,4,1,5,-0.033333333,-0.010833327,1,0,0,0.9884,rock_grid_rect_2,1,11,-1,-1,0.988,0.377500025,-0.246666654,1,0,0,4.5972,Gabbro_rect,4,4.597,0,4,0,4,0,1,,,,,,,,,,,,,
666e10f6dcf5bf60a08cb049,TCR,2024-06-25_11h40.13.911,LearnStrategy,2023.2.3,Win32,60.24096386,4,1,6,0.030833371,0.003333314,1,0,0,1.1019,rock_grid_rect_2,2,14,-1,-1,1.102,-0.068333308,-0.251666705,1,0,0,3.0613,Basalt_rect,2,3.061,1,5,0,5,0,1,,,,,,,,,,,,,
666e10f6dcf5bf60a08cb049,TCR,2024-06-25_11h40.13.911,LearnStrategy,2023.2.3,Win32,60.24096386,4,1,7,-0.005833308,0.002499994,1,0,0,1.1055,rock_grid_rect_2,3,08,-1,-1,1.106,0.143333371,-0.240833346,1,0,0,1.43,Diorite_rect,3,1.43,1,6,0,6,0,1,,,,,,,,,,,,,
666e10f6dcf5bf60a08cb049,TCR,2024-06-25_11h40.13.911,LearnStrategy,2023.2.3,Win32,60.24096386,4,1,8,-0.013333321,0.01833334,1,0,0,0.9557,rock_grid_rect_2,1,01,-1,-1,0.956,-0.38083334,-0.240000025,1,0,0,2.7117,Andesite_rect,1,2.712,1,7,0,7,0,1,,,,,,,,,,,,,
666e10f6dcf5bf60a08cb049,TCR,2024-06-25_11h40.13.911,LearnStrategy,2023.2.3,Win32,60.24096386,4,1,9,0.028333346,-0.00666666,1,0,0,1.1177,rock_grid_rect_2,4,05,-1,-1,1.118,-0.116666667,-0.401666705,1,0,0,4.6301,Pegmatite_rect,6,4.63,0,8,0,8,0,1,,,,,,,,,,,,,
666e10f6dcf5bf60a08cb049,TCR,2024-06-25_11h40.13.911,LearnStrategy,2023.2.3,Win32,60.24096386,4,1,10,0.036666679,0.010000006,1,0,0,0.8505,rock_grid_rect_2,4,11,-1,-1,0.851,0.425,-0.250833321,1,0,0,2.6037,Gabbro_rect,4,2.604,1,9,0,9,0,1,,,,,,,,,,,,,
666e10f6dcf5bf60a08cb049,TCR,2024-06-25_11h40.13.911,LearnStrategy,2023.2.3,Win32,60.24096386,4,1,11,0.022500038,-0.021666686,1,0,0,1.0312,rock_grid_rect_2,1,01,-1,-1,1.031,-0.382499981,-0.244166692,1,0,0,1.6448,Andesite_rect,1,1.645,1,10,0,10,0,1,,,,,,,,,,,,,
666e10f6dcf5bf60a08cb049,TCR,2024-06-25_11h40.13.911,LearnStrategy,2023.2.3,Win32,60.24096386,4,1,12,-0.066666667,-0.005000019,1,0,0,0.999,rock_grid_rect_2,2,01,-1,-1,0.999,-0.129999987,-0.254166667,1,0,0,1.3125,Basalt_rect,2,1.313,1,11,0,11,0,1,,,,,,,,,,,,,
666e10f6dcf5bf60a08cb049,TCR,2024-06-25_11h40.13.911,LearnStrategy,2023.2.3,Win32,60.24096386,4,1,13,0.001666705,-0.011666679,1,0,0,1.8981,rock_grid_rect_2,7,10,-1,-1,1.898,0.135000038,-0.401666705,1,0,0,2.2605,Peridotite_rect,7,2.26,1,12,0,12,0,1,,,,,,,,,,,,,
666e10f6dcf5bf60a08cb049,TCR,2024-06-25_11h40.13.911,LearnStrategy,2023.2.3,Win32,60.24096386,4,1,14,-0.041666667,0.001666673,1,0,0,1.1486,rock_grid_rect_2,7,10,-1,-1,1.149,0.104166667,-0.404999987,1,0,0,1.278,Peridotite_rect,7,1.278,1,13,0,13,0,1,,,,,,,,,,,,,
666e10f6dcf5bf60a08cb049,TCR,2024-06-25_11h40.13.911,LearnStrategy,2023.2.3,Win32,60.24096386,4,1,15,-0.031666629,-0.009166686,1,0,0,1.3651,rock_grid_rect_2,6,15,-1,-1,1.365,-0.154166667,-0.402500025,1,0,0,1.379,Pegmatite_rect,6,1.379,1,14,0,14,0,1,,,,,,,,,,,,,
666e10f6dcf5bf60a08cb049,TCR,2024-06-25_11h40.13.911,LearnStrategy,2023.2.3,Win32,60.24096386,4,1,16,-0.038333321,-0.025,1,0,0,0.9651,rock_grid_rect_2,8,06,-1,-1,0.965,0.375,-0.384166654,1,0,0,1.5458,Pumice_rect,8,1.546,1,15,0,15,0,1,,,,,,,,,,,,,
666e10f6dcf5bf60a08cb049,TCR,2024-06-25_11h40.13.911,LearnStrategy,2023.2.3,Win32,60.24096386,4,2,1,,,,,,,,3,02,,,,,,,,,,,3,31.499,1,,,,,,0.120833333,-0.241666667,1,0,0,31.4991,Diorite_rect,0,0,0,0,1,
666e10f6dcf5bf60a08cb049,TCR,2024-06-25_11h40.13.911,LearnStrategy,2023.2.3,Win32,60.24096386,4,2,2,,,,,,,,7,06,,,,,,,,,,,7,1.688,1,,,,,,0.115000025,-0.403333346,1,0,0,1.6881,Peridotite_rect,1,0,1,0,1,
666e10f6dcf5bf60a08cb049,TCR,2024-06-25_11h40.13.911,LearnStrategy,2023.2.3,Win32,60.24096386,4,2,3,,,,,,,,6,05,,,,,,,,,,,6,2.911,1,,,,,,-0.139999962,-0.416666667,1,0,0,2.9111,Pegmatite_rect,2,0,2,0,1,
666e10f6dcf5bf60a08cb049,TCR,2024-06-25_11h40.13.911,LearnStrategy,2023.2.3,Win32,60.24096386,4,2,4,,,,,,,,1,02,,,,,,,,,,,1,2.927,1,,,,,,-0.407499981,-0.25,1,0,0,2.9274,Andesite_rect,3,0,3,0,1,
666e10f6dcf5bf60a08cb049,TCR,2024-06-25_11h40.13.911,LearnStrategy,2023.2.3,Win32,60.24096386,4,2,5,,,,,,,,8,02,,,,,,,,,,,8,2.654,1,,,,,,0.420000076,-0.415000025,1,0,0,2.6538,Pumice_rect,4,0,4,0,1,
666e10f6dcf5bf60a08cb049,TCR,2024-06-25_11h40.13.911,LearnStrategy,2023.2.3,Win32,60.24096386,4,2,6,,,,,,,,1,05,,,,,,,,,,,4,3.689,0,,,,,,0.431666692,-0.248333359,1,0,0,3.6889,Gabbro_rect,5,0,5,0,1,
666e10f6dcf5bf60a08cb049,TCR,2024-06-25_11h40.13.911,LearnStrategy,2023.2.3,Win32,60.24096386,4,2,7,,,,,,,,3,09,,,,,,,,,,,3,1.578,1,,,,,,0.152500025,-0.231666692,1,0,0,1.5776,Diorite_rect,6,0,6,0,1,
666e10f6dcf5bf60a08cb049,TCR,2024-06-25_11h40.13.911,LearnStrategy,2023.2.3,Win32,60.24096386,4,2,8,,,,,,,,4,14,,,,,,,,,,,2,1.966,0,,,,,,-0.096666654,-0.244166692,1,0,0,1.9656,Basalt_rect,7,0,7,0,1,
666e10f6dcf5bf60a08cb049,TCR,2024-06-25_11h40.13.911,LearnStrategy,2023.2.3,Win32,60.24096386,4,2,9,,,,,,,,8,04,,,,,,,,,,,8,1.254,1,,,,,,0.405833308,-0.409166654,1,0,0,1.254,Pumice_rect,8,0,8,0,1,
666e10f6dcf5bf60a08cb049,TCR,2024-06-25_11h40.13.911,LearnStrategy,2023.2.3,Win32,60.24096386,4,2,10,,,,,,,,7,04,,,,,,,,,,,7,5.757,1,,,,,,0.095833333,-0.392499987,1,0,0,5.7566,Peridotite_rect,9,0,9,0,1,
666e10f6dcf5bf60a08cb049,TCR,2024-06-25_11h40.13.911,LearnStrategy,2023.2.3,Win32,60.24096386,4,2,11,,,,,,,,6,13,,,,,,,,,,,6,1.457,1,,,,,,-0.069166629,-0.391666667,1,0,0,1.4567,Pegmatite_rect,10,0,10,0,1,
666e10f6dcf5bf60a08cb049,TCR,2024-06-25_11h40.13.911,LearnStrategy,2023.2.3,Win32,60.24096386,4,2,12,,,,,,,,5,16,,,,,,,,,,,5,1.43,1,,,,,,-0.327499994,-0.410000038,1,0,0,1.4298,Obsidian_rect,11,0,11,0,1,
666e10f6dcf5bf60a08cb049,TCR,2024-06-25_11h40.13.911,LearnStrategy,2023.2.3,Win32,60.24096386,4,2,13,,,,,,,,5,06,,,,,,,,,,,5,0.729,1,,,,,,-0.327499994,-0.410000038,1,0,0,0.729,Obsidian_rect,12,0,12,0,1,
666e10f6dcf5bf60a08cb049,TCR,2024-06-25_11h40.13.911,LearnStrategy,2023.2.3,Win32,60.24096386,4,2,14,,,,,,,,2,02,,,,,,,,,,,2,2.732,1,,,,,,-0.139999962,-0.246666654,1,0,0,2.7318,Basalt_rect,13,0,13,0,1,
666e10f6dcf5bf60a08cb049,TCR,2024-06-25_11h40.13.911,LearnStrategy,2023.2.3,Win32,60.24096386,4,2,15,,,,,,,,2,06,,,,,,,,,,,2,1.658,1,,,,,,-0.151666641,-0.246666654,1,0,0,1.6575,Basalt_rect,14,0,14,0,1,
666e10f6dcf5bf60a08cb049,TCR,2024-06-25_11h40.13.911,LearnStrategy,2023.2.3,Win32,60.24096386,4,2,16,,,,,,,,4,13,,,,,,,,,,,1,2.129,0,,,,,,-0.386666648,-0.249166679,1,0,0,2.1288,Andesite_rect,15,0,15,0,1,
666e10f6dcf5bf60a08cb049,TCR,2024-06-25_11h40.13.911,LearnStrategy,2023.2.3,Win32,60.24096386,5,1,1,-0.029166667,0,1,0,0,1.3318,rock_grid_rect_2,6,15,-1,-1,1.332,-0.131666629,-0.397500038,1,0,0,1.4124,Pegmatite_rect,6,1.412,1,0,0,0,0,1,,,,,,,,,,,,,
666e10f6dcf5bf60a08cb049,TCR,2024-06-25_11h40.13.911,LearnStrategy,2023.2.3,Win32,60.24096386,5,1,2,-0.013333321,-0.000833352,1,0,0,1.1648,rock_grid_rect_2,7,05,-1,-1,1.165,0.055833371,-0.380833371,1,0,0,1.6605,Peridotite_rect,7,1.66,1,1,0,1,0,1,,,,,,,,,,,,,
666e10f6dcf5bf60a08cb049,TCR,2024-06-25_11h40.13.911,LearnStrategy,2023.2.3,Win32,60.24096386,5,1,3,0.040000025,-0.009166686,1,0,0,1.0977,rock_grid_rect_2,4,11,-1,-1,1.098,0.334166718,-0.2625,1,0,0,4.3447,Gabbro_rect,4,4.345,1,2,0,2,0,1,,,,,,,,,,,,,
666e10f6dcf5bf60a08cb049,TCR,2024-06-25_11h40.13.911,LearnStrategy,2023.2.3,Win32,60.24096386,5,1,4,0.015833346,-0.020833333,1,0,0,0.9819,rock_grid_rect_2,1,14,-1,-1,0.982,-0.360833327,-0.238333321,1,0,0,2.5446,Andesite_rect,1,2.545,1,3,0,3,0,1,,,,,,,,,,,,,
666e10f6dcf5bf60a08cb049,TCR,2024-06-25_11h40.13.911,LearnStrategy,2023.2.3,Win32,60.24096386,5,1,5,0.007500013,0,1,0,0,1.1481,rock_grid_rect_2,4,05,-1,-1,1.148,0.450833384,-0.245833333,1,0,0,3.462,Gabbro_rect,4,3.462,1,4,0,4,0,1,,,,,,,,,,,,,
666e10f6dcf5bf60a08cb049,TCR,2024-06-25_11h40.13.911,LearnStrategy,2023.2.3,Win32,60.24096386,5,1,6,0.041666667,-0.024166679,1,0,0,1.4316,rock_grid_rect_2,4,08,-1,-1,1.432,0.369166692,-0.265833346,1,0,0,1.6285,Gabbro_rect,4,1.628,1,5,0,5,0,1,,,,,,,,,,,,,
666e10f6dcf5bf60a08cb049,TCR,2024-06-25_11h40.13.911,LearnStrategy,2023.2.3,Win32,60.24096386,5,1,7,0.020000013,-0.009166686,1,0,0,1.398,rock_grid_rect_2,8,03,-1,-1,1.398,0.358333333,-0.390000025,1,0,0,1.3619,Pumice_rect,8,1.362,1,6,0,6,0,1,,,,,,,,,,,,,
666e10f6dcf5bf60a08cb049,TCR,2024-06-25_11h40.13.911,LearnStrategy,2023.2.3,Win32,60.24096386,5,1,8,0.040833346,0.008333333,1,0,0,0.9316,rock_grid_rect_2,2,14,-1,-1,0.932,-0.118333308,-0.251666705,1,0,0,1.6105,Basalt_rect,2,1.611,1,7,0,7,0,1,,,,,,,,,,,,,
666e10f6dcf5bf60a08cb049,TCR,2024-06-25_11h40.13.911,LearnStrategy,2023.2.3,Win32,60.24096386,5,1,9,-0.046666654,0.016666667,1,0,0,0.9986,rock_grid_rect_2,1,03,-1,-1,0.999,-0.373333327,-0.252500025,1,0,0,2.5957,Andesite_rect,1,2.596,1,8,0,8,0,1,,,,,,,,,,,,,
666e10f6dcf5bf60a08cb049,TCR,2024-06-25_11h40.13.911,LearnStrategy,2023.2.3,Win32,60.24096386,5,1,10,-0.027499962,-0.021666686,1,0,0,1.5317,rock_grid_rect_2,5,09,-1,-1,1.532,-0.365833314,-0.401666705,1,0,0,1.3288,Obsidian_rect,5,1.329,1,9,0,9,0,1,,,,,,,,,,,,,
666e10f6dcf5bf60a08cb049,TCR,2024-06-25_11h40.13.911,LearnStrategy,2023.2.3,Win32,60.24096386,5,1,11,-0.031666629,-0.024166679,1,0,0,1.1321,rock_grid_rect_2,2,14,-1,-1,1.132,-0.155833308,-0.255833371,1,0,0,1.2452,Basalt_rect,2,1.245,1,10,0,10,0,1,,,,,,,,,,,,,
666e10f6dcf5bf60a08cb049,TCR,2024-06-25_11h40.13.911,LearnStrategy,2023.2.3,Win32,60.24096386,5,1,12,-0.043333308,-0.007500013,1,0,0,0.9151,rock_grid_rect_2,3,14,-1,-1,0.915,0.120000013,-0.257500013,1,0,0,1.329,Diorite_rect,3,1.329,1,11,0,11,0,1,,,,,,,,,,,,,
666e10f6dcf5bf60a08cb049,TCR,2024-06-25_11h40.13.911,LearnStrategy,2023.2.3,Win32,60.24096386,5,1,13,-0.039166641,-0.004166667,1,0,0,0.8319,rock_grid_rect_2,1,11,-1,-1,0.832,-0.417499987,-0.231666692,1,0,0,1.6283,Andesite_rect,1,1.628,1,12,0,12,0,1,,,,,,,,,,,,,
666e10f6dcf5bf60a08cb049,TCR,2024-06-25_11h40.13.911,LearnStrategy,2023.2.3,Win32,60.24096386,5,1,14,-0.081666629,0.00666666,1,0,0,1.0314,rock_grid_rect_2,6,03,-1,-1,1.031,-0.120000013,-0.420833333,1,0,0,1.6443,Pegmatite_rect,6,1.644,1,13,0,13,0,1,,,,,,,,,,,,,
666e10f6dcf5bf60a08cb049,TCR,2024-06-25_11h40.13.911,LearnStrategy,2023.2.3,Win32,60.24096386,5,1,15,0.002500025,-0.020000013,1,0,0,0.8654,rock_grid_rect_2,1,01,-1,-1,0.865,-0.372500006,-0.245000013,1,0,0,2.8626,Andesite_rect,1,2.863,1,14,0,14,0,1,,,,,,,,,,,,,
666e10f6dcf5bf60a08cb049,TCR,2024-06-25_11h40.13.911,LearnStrategy,2023.2.3,Win32,60.24096386,5,1,16,-0.011666679,-0.010833327,1,0,0,1.0148,rock_grid_rect_2,4,08,-1,-1,1.015,0.4,-0.248333359,1,0,0,1.8782,Gabbro_rect,4,1.878,1,15,0,15,0,1,,,,,,,,,,,,,
666e10f6dcf5bf60a08cb049,TCR,2024-06-25_11h40.13.911,LearnStrategy,2023.2.3,Win32,60.24096386,5,2,1,,,,,,,,7,14,,,,,,,,,,,7,4.045,1,,,,,,0.065833346,-0.417499987,1,0,0,4.0447,Peridotite_rect,0,0,0,0,1,
666e10f6dcf5bf60a08cb049,TCR,2024-06-25_11h40.13.911,LearnStrategy,2023.2.3,Win32,60.24096386,5,2,2,,,,,,,,1,04,,,,,,,,,,,1,2.921,1,,,,,,-0.415833314,-0.254999987,1,0,0,2.9212,Andesite_rect,1,0,1,0,1,
666e10f6dcf5bf60a08cb049,TCR,2024-06-25_11h40.13.911,LearnStrategy,2023.2.3,Win32,60.24096386,5,2,3,,,,,,,,6,10,,,,,,,,,,,6,1.388,1,,,,,,-0.208333333,-0.393333371,1,0,0,1.3882,Pegmatite_rect,2,0,2,0,1,
666e10f6dcf5bf60a08cb049,TCR,2024-06-25_11h40.13.911,LearnStrategy,2023.2.3,Win32,60.24096386,5,2,4,,,,,,,,2,16,,,,,,,,,,,2,4.212,1,,,,,,-0.167499987,-0.260833359,1,0,0,4.2117,Basalt_rect,3,0,3,0,1,
666e10f6dcf5bf60a08cb049,TCR,2024-06-25_11h40.13.911,LearnStrategy,2023.2.3,Win32,60.24096386,5,2,5,,,,,,,,2,11,,,,,,,,,,,2,1.305,1,,,,,,-0.167499987,-0.260833359,1,0,0,1.305,Basalt_rect,4,0,4,0,1,
666e10f6dcf5bf60a08cb049,TCR,2024-06-25_11h40.13.911,LearnStrategy,2023.2.3,Win32,60.24096386,5,2,6,,,,,,,,1,07,,,,,,,,,,,7,4.06,0,,,,,,0.1125,-0.398333359,1,0,0,4.0596,Peridotite_rect,5,0,5,0,1,
666e10f6dcf5bf60a08cb049,TCR,2024-06-25_11h40.13.911,LearnStrategy,2023.2.3,Win32,60.24096386,5,2,7,,,,,,,,8,16,,,,,,,,,,,8,2.228,1,,,,,,0.420000076,-0.407500013,1,0,0,2.2276,Pumice_rect,6,0,6,0,1,
666e10f6dcf5bf60a08cb049,TCR,2024-06-25_11h40.13.911,LearnStrategy,2023.2.3,Win32,60.24096386,5,2,8,,,,,,,,6,11,,,,,,,,,,,6,1.146,1,,,,,,-0.109166654,-0.393333371,1,0,0,1.1463,Pegmatite_rect,7,0,7,0,1,
666e10f6dcf5bf60a08cb049,TCR,2024-06-25_11h40.13.911,LearnStrategy,2023.2.3,Win32,60.24096386,5,2,9,,,,,,,,5,11,,,,,,,,,,,5,1.337,1,,,,,,-0.345833333,-0.393333371,1,0,0,1.3365,Obsidian_rect,8,0,8,0,1,
666e10f6dcf5bf60a08cb049,TCR,2024-06-25_11h40.13.911,LearnStrategy,2023.2.3,Win32,60.24096386,5,2,10,,,,,,,,4,16,,,,,,,,,,,2,1.581,0,,,,,,-0.143333308,-0.239166705,1,0,0,1.5814,Basalt_rect,9,0,9,0,1,
666e10f6dcf5bf60a08cb049,TCR,2024-06-25_11h40.13.911,LearnStrategy,2023.2.3,Win32,60.24096386,5,2,11,,,,,,,,8,05,,,,,,,,,,,8,1.47,1,,,,,,0.35333341,-0.385000038,1,0,0,1.47,Pumice_rect,10,0,10,0,1,
666e10f6dcf5bf60a08cb049,TCR,2024-06-25_11h40.13.911,LearnStrategy,2023.2.3,Win32,60.24096386,5,2,12,,,,,,,,5,14,,,,,,,,,,,5,1.233,1,,,,,,-0.335833327,-0.403333346,1,0,0,1.2328,Obsidian_rect,11,0,11,0,1,
666e10f6dcf5bf60a08cb049,TCR,2024-06-25_11h40.13.911,LearnStrategy,2023.2.3,Win32,60.24096386,5,2,13,,,,,,,,3,12,,,,,,,,,,,3,1.667,1,,,,,,0.104999987,-0.239166705,1,0,0,1.6672,Diorite_rect,12,0,12,0,1,
666e10f6dcf5bf60a08cb049,TCR,2024-06-25_11h40.13.911,LearnStrategy,2023.2.3,Win32,60.24096386,5,2,14,,,,,,,,4,01,,,,,,,,,,,4,1.571,1,,,,,,0.339166641,-0.245000013,1,0,0,1.5713,Gabbro_rect,13,0,13,0,1,
666e10f6dcf5bf60a08cb049,TCR,2024-06-25_11h40.13.911,LearnStrategy,2023.2.3,Win32,60.24096386,5,2,15,,,,,,,,3,10,,,,,,,,,,,3,5.548,1,,,,,,0.159166654,-0.244166692,1,0,0,5.5482,Diorite_rect,14,0,14,0,1,
666e10f6dcf5bf60a08cb049,TCR,2024-06-25_11h40.13.911,LearnStrategy,2023.2.3,Win32,60.24096386,5,2,16,,,,,,,,7,12,,,,,,,,,,,7,1.654,1,,,,,,0.114166705,-0.404999987,1,0,0,1.6537,Peridotite_rect,15,0,15,0,1,
666e10f6dcf5bf60a08cb049,TCR,2024-06-25_11h40.13.911,LearnStrategy,2023.2.3,Win32,60.24096386,6,1,1,0.026666705,-0.01916666,1,0,0,1.3659,rock_grid_rect_2,4,10,-1,-1,1.366,0.342500051,-0.242499987,1,0,0,1.2286,Gabbro_rect,4,1.229,1,0,0,0,0,1,,,,,,,,,,,,,
666e10f6dcf5bf60a08cb049,TCR,2024-06-25_11h40.13.911,LearnStrategy,2023.2.3,Win32,60.24096386,6,1,2,0.098333359,-0.01916666,1,0,0,1.3488,rock_grid_rect_2,5,08,-1,-1,1.349,-0.335000006,-0.4,1,0,0,1.3437,Obsidian_rect,5,1.344,1,1,0,1,0,1,,,,,,,,,,,,,
666e10f6dcf5bf60a08cb049,TCR,2024-06-25_11h40.13.911,LearnStrategy,2023.2.3,Win32,60.24096386,6,1,3,-0.051666641,-0.005000019,1,0,0,1.0147,rock_grid_rect_2,6,08,-1,-1,1.015,-0.2375,-0.405833371,1,0,0,1.1635,Pegmatite_rect,6,1.163,1,2,0,2,0,1,,,,,,,,,,,,,
666e10f6dcf5bf60a08cb049,TCR,2024-06-25_11h40.13.911,LearnStrategy,2023.2.3,Win32,60.24096386,6,1,4,-0.079166667,-0.025,1,0,0,1.1818,rock_grid_rect_2,1,11,-1,-1,1.182,-0.414166673,-0.253333346,1,0,0,1.5462,Andesite_rect,1,1.546,1,3,0,3,0,1,,,,,,,,,,,,,
666e10f6dcf5bf60a08cb049,TCR,2024-06-25_11h40.13.911,LearnStrategy,2023.2.3,Win32,60.24096386,6,1,5,-0.044166629,0.00583334,1,0,0,1.4157,rock_grid_rect_2,1,03,-1,-1,1.416,-0.316666667,-0.233333333,1,0,0,1.495,Andesite_rect,1,1.495,1,4,0,4,0,1,,,,,,,,,,,,,
666e10f6dcf5bf60a08cb049,TCR,2024-06-25_11h40.13.911,LearnStrategy,2023.2.3,Win32,60.24096386,6,1,6,-0.025833321,-0.014166673,1,0,0,0.8485,rock_grid_rect_2,2,14,-1,-1,0.848,-0.114999962,-0.232500013,1,0,0,1.6454,Basalt_rect,2,1.645,1,5,0,5,0,1,,,,,,,,,,,,,
666e10f6dcf5bf60a08cb049,TCR,2024-06-25_11h40.13.911,LearnStrategy,2023.2.3,Win32,60.24096386,6,1,7,-0.029999987,-0.005000019,1,0,0,0.899,rock_grid_rect_2,1,11,-1,-1,0.899,-0.407499981,-0.229999987,1,0,0,1.3459,Andesite_rect,1,1.346,1,6,0,6,0,1,,,,,,,,,,,,,
666e10f6dcf5bf60a08cb049,TCR,2024-06-25_11h40.13.911,LearnStrategy,2023.2.3,Win32,60.24096386,6,1,8,-0.071666654,-0.007500013,1,0,0,0.8481,rock_grid_rect_2,8,08,-1,-1,0.848,0.360833359,-0.385000038,1,0,0,1.4947,Pumice_rect,8,1.495,1,7,0,7,0,1,,,,,,,,,,,,,
666e10f6dcf5bf60a08cb049,TCR,2024-06-25_11h40.13.911,LearnStrategy,2023.2.3,Win32,60.24096386,6,1,9,0.050833321,-0.0125,1,0,0,1.1821,rock_grid_rect_2,6,03,-1,-1,1.182,-0.151666641,-0.402500025,1,0,0,1.7118,Pegmatite_rect,6,1.712,1,8,0,8,0,1,,,,,,,,,,,,,
666e10f6dcf5bf60a08cb049,TCR,2024-06-25_11h40.13.911,LearnStrategy,2023.2.3,Win32,60.24096386,6,1,10,-0.0375,0.01833334,1,0,0,0.8652,rock_grid_rect_2,4,15,-1,-1,0.865,0.372499975,-0.234166654,1,0,0,2.0778,Gabbro_rect,4,2.078,1,9,0,9,0,1,,,,,,,,,,,,,
666e10f6dcf5bf60a08cb049,TCR,2024-06-25_11h40.13.911,LearnStrategy,2023.2.3,Win32,60.24096386,6,1,11,0.015833346,0.000833321,1,0,0,0.9148,rock_grid_rect_2,2,08,-1,-1,0.915,-0.169166629,-0.240833346,1,0,0,1.3126,Basalt_rect,2,1.313,1,10,0,10,0,1,,,,,,,,,,,,,
666e10f6dcf5bf60a08cb049,TCR,2024-06-25_11h40.13.911,LearnStrategy,2023.2.3,Win32,60.24096386,6,1,12,-0.059999975,0.004166667,1,0,0,0.9487,rock_grid_rect_2,4,05,-1,-1,0.949,0.381666692,-0.243333371,1,0,0,2.2122,Gabbro_rect,4,2.212,1,11,0,11,0,1,,,,,,,,,,,,,
666e10f6dcf5bf60a08cb049,TCR,2024-06-25_11h40.13.911,LearnStrategy,2023.2.3,Win32,60.24096386,6,1,13,0.025,-0.010833327,1,0,0,1.2816,rock_grid_rect_2,3,13,-1,-1,1.282,0.092499987,-0.258333333,1,0,0,1.2292,Diorite_rect,3,1.229,1,12,0,12,0,1,,,,,,,,,,,,,
666e10f6dcf5bf60a08cb049,TCR,2024-06-25_11h40.13.911,LearnStrategy,2023.2.3,Win32,60.24096386,6,1,14,-0.027499962,-0.005000019,1,0,0,1.115,rock_grid_rect_2,7,10,-1,-1,1.115,0.108333333,-0.397500038,1,0,0,1.5446,Peridotite_rect,7,1.545,1,13,0,13,0,1,,,,,,,,,,,,,
666e10f6dcf5bf60a08cb049,TCR,2024-06-25_11h40.13.911,LearnStrategy,2023.2.3,Win32,60.24096386,6,1,15,0.009166654,0.010000006,1,0,0,1.0653,rock_grid_rect_2,1,14,-1,-1,1.065,-0.447500006,-0.231666692,1,0,0,2.2443,Andesite_rect,1,2.244,1,14,0,14,0,1,,,,,,,,,,,,,
666e10f6dcf5bf60a08cb049,TCR,2024-06-25_11h40.13.911,LearnStrategy,2023.2.3,Win32,60.24096386,6,1,16,0.005833371,-0.009166686,1,0,0,1.1322,rock_grid_rect_2,4,15,-1,-1,1.132,0.414166641,-0.268333371,1,0,0,5.2429,Gabbro_rect,4,5.243,1,15,0,15,0,1,,,,,,,,,,,,,
666e10f6dcf5bf60a08cb049,TCR,2024-06-25_11h40.13.911,LearnStrategy,2023.2.3,Win32,60.24096386,6,2,1,,,,,,,,2,12,,,,,,,,,,,8,2.86,0,,,,,,0.381666692,-0.403333346,1,0,0,2.8597,Pumice_rect,0,0,0,0,1,
666e10f6dcf5bf60a08cb049,TCR,2024-06-25_11h40.13.911,LearnStrategy,2023.2.3,Win32,60.24096386,6,2,2,,,,,,,,3,15,,,,,,,,,,,3,2.827,1,,,,,,0.134166654,-0.235000038,1,0,0,2.8268,Diorite_rect,1,0,1,0,1,
666e10f6dcf5bf60a08cb049,TCR,2024-06-25_11h40.13.911,LearnStrategy,2023.2.3,Win32,60.24096386,6,2,3,,,,,,,,1,16,,,,,,,,,,,1,2.687,1,,,,,,-0.408333333,-0.241666667,1,0,0,2.6872,Andesite_rect,2,0,2,0,1,
666e10f6dcf5bf60a08cb049,TCR,2024-06-25_11h40.13.911,LearnStrategy,2023.2.3,Win32,60.24096386,6,2,4,,,,,,,,6,07,,,,,,,,,,,6,1.345,1,,,,,,-0.180833308,-0.385000038,1,0,0,1.345,Pegmatite_rect,3,0,3,0,1,
666e10f6dcf5bf60a08cb049,TCR,2024-06-25_11h40.13.911,LearnStrategy,2023.2.3,Win32,60.24096386,6,2,5,,,,,,,,7,13,,,,,,,,,,,7,1.428,1,,,,,,0.079166667,-0.391666667,1,0,0,1.4281,Peridotite_rect,4,0,4,0,1,
666e10f6dcf5bf60a08cb049,TCR,2024-06-25_11h40.13.911,LearnStrategy,2023.2.3,Win32,60.24096386,6,2,6,,,,,,,,4,09,,,,,,,,,,,4,1.995,1,,,,,,0.45333341,-0.238333321,1,0,0,1.9951,Gabbro_rect,5,0,5,0,1,
666e10f6dcf5bf60a08cb049,TCR,2024-06-25_11h40.13.911,LearnStrategy,2023.2.3,Win32,60.24096386,6,2,7,,,,,,,,4,12,,,,,,,,,,,2,1.754,0,,,,,,-0.114166641,-0.253333346,1,0,0,1.7544,Basalt_rect,6,0,6,0,1,
666e10f6dcf5bf60a08cb049,TCR,2024-06-25_11h40.13.911,LearnStrategy,2023.2.3,Win32,60.24096386,6,2,8,,,,,,,,3,06,,,,,,,,,,,3,1.312,1,,,,,,0.139166705,-0.247500038,1,0,0,1.312,Diorite_rect,7,0,7,0,1,
666e10f6dcf5bf60a08cb049,TCR,2024-06-25_11h40.13.911,LearnStrategy,2023.2.3,Win32,60.24096386,6,2,9,,,,,,,,2,10,,,,,,,,,,,2,1.445,1,,,,,,-0.146666654,-0.259166654,1,0,0,1.4447,Basalt_rect,8,0,8,0,1,
666e10f6dcf5bf60a08cb049,TCR,2024-06-25_11h40.13.911,LearnStrategy,2023.2.3,Win32,60.24096386,6,2,10,,,,,,,,1,06,,,,,,,,,,,1,1.612,1,,,,,,-0.352499994,-0.236666679,1,0,0,1.6119,Andesite_rect,9,0,9,0,1,
666e10f6dcf5bf60a08cb049,TCR,2024-06-25_11h40.13.911,LearnStrategy,2023.2.3,Win32,60.24096386,6,2,11,,,,,,,,6,12,,,,,,,,,,,6,1.795,1,,,,,,-0.172499975,-0.410000038,1,0,0,1.7953,Pegmatite_rect,10,0,10,0,1,
666e10f6dcf5bf60a08cb049,TCR,2024-06-25_11h40.13.911,LearnStrategy,2023.2.3,Win32,60.24096386,6,2,12,,,,,,,,5,05,,,,,,,,,,,5,1.43,1,,,,,,-0.339999994,-0.408333333,1,0,0,1.4297,Obsidian_rect,11,0,11,0,1,
666e10f6dcf5bf60a08cb049,TCR,2024-06-25_11h40.13.911,LearnStrategy,2023.2.3,Win32,60.24096386,6,2,13,,,,,,,,8,15,,,,,,,,,,,8,1.379,1,,,,,,0.413333384,-0.389166705,1,0,0,1.379,Pumice_rect,12,0,12,0,1,
666e10f6dcf5bf60a08cb049,TCR,2024-06-25_11h40.13.911,LearnStrategy,2023.2.3,Win32,60.24096386,6,2,14,,,,,,,,7,02,,,,,,,,,,,7,1.146,1,,,,,,0.161666679,-0.385000038,1,0,0,1.1456,Peridotite_rect,13,0,13,0,1,
666e10f6dcf5bf60a08cb049,TCR,2024-06-25_11h40.13.911,LearnStrategy,2023.2.3,Win32,60.24096386,6,2,15,,,,,,,,8,14,,,,,,,,,,,8,2.228,1,,,,,,0.359166718,-0.385833359,1,0,0,2.2283,Pumice_rect,14,0,14,0,1,
666e10f6dcf5bf60a08cb049,TCR,2024-06-25_11h40.13.911,LearnStrategy,2023.2.3,Win32,60.24096386,6,2,16,,,,,,,,5,02,,,,,,,,,,,5,1.345,1,,,,,,-0.344999981,-0.390833346,1,0,0,1.3453,Obsidian_rect,15,0,15,0,1,
666e10f6dcf5bf60a08cb049,TCR,2024-06-25_11h40.13.911,LearnStrategy,2023.2.3,Win32,60.24096386,7,1,1,0.065000025,-0.003333346,1,0,0,1.0986,rock_grid_rect_2,1,10,-1,-1,1.099,-0.35666666,-0.238333321,1,0,0,1.7282,Andesite_rect,1,1.728,1,0,0,0,0,1,,,,,,,,,,,,,
666e10f6dcf5bf60a08cb049,TCR,2024-06-25_11h40.13.911,LearnStrategy,2023.2.3,Win32,60.24096386,7,1,2,0.003333346,-0.000833352,1,0,0,0.9152,rock_grid_rect_2,7,07,-1,-1,0.915,0.114166705,-0.400833321,1,0,0,1.4276,Peridotite_rect,7,1.428,1,1,0,1,0,1,,,,,,,,,,,,,
666e10f6dcf5bf60a08cb049,TCR,2024-06-25_11h40.13.911,LearnStrategy,2023.2.3,Win32,60.24096386,7,1,3,-0.002499962,-0.021666686,1,0,0,0.9988,rock_grid_rect_2,4,03,-1,-1,0.999,0.364166641,-0.240833346,1,0,0,5.4777,Gabbro_rect,4,5.478,1,2,0,2,0,1,,,,,,,,,,,,,
666e10f6dcf5bf60a08cb049,TCR,2024-06-25_11h40.13.911,LearnStrategy,2023.2.3,Win32,60.24096386,7,1,4,-0.015833346,-0.005000019,1,0,0,0.998,rock_grid_rect_2,6,08,-1,-1,0.998,-0.140833346,-0.398333359,1,0,0,1.2448,Pegmatite_rect,6,1.245,1,3,0,3,0,1,,,,,,,,,,,,,
666e10f6dcf5bf60a08cb049,TCR,2024-06-25_11h40.13.911,LearnStrategy,2023.2.3,Win32,60.24096386,7,1,5,0.029166667,-0.014166673,1,0,0,1.0984,rock_grid_rect_2,8,10,-1,-1,1.098,0.372499975,-0.385000038,1,0,0,1.8285,Pumice_rect,8,1.829,1,4,0,4,0,1,,,,,,,,,,,,,
666e10f6dcf5bf60a08cb049,TCR,2024-06-25_11h40.13.911,LearnStrategy,2023.2.3,Win32,60.24096386,7,1,6,-0.008333333,-0.001666673,1,0,0,0.9319,rock_grid_rect_2,4,08,-1,-1,0.932,0.405000051,-0.245000013,1,0,0,1.7777,Gabbro_rect,4,1.778,1,5,0,5,0,1,,,,,,,,,,,,,
666e10f6dcf5bf60a08cb049,TCR,2024-06-25_11h40.13.911,LearnStrategy,2023.2.3,Win32,60.24096386,7,1,7,0.008333333,-0.011666679,1,0,0,0.9318,rock_grid_rect_2,1,03,-1,-1,0.932,-0.371666654,-0.235000038,1,0,0,1.3128,Andesite_rect,1,1.313,1,6,0,6,0,1,,,,,,,,,,,,,
666e10f6dcf5bf60a08cb049,TCR,2024-06-25_11h40.13.911,LearnStrategy,2023.2.3,Win32,60.24096386,7,1,8,0.027500025,-0.022500006,1,0,0,1.0656,rock_grid_rect_2,2,01,-1,-1,1.066,-0.104166667,-0.260833359,1,0,0,1.8298,Basalt_rect,2,1.83,1,7,0,7,0,1,,,,,,,,,,,,,
666e10f6dcf5bf60a08cb049,TCR,2024-06-25_11h40.13.911,LearnStrategy,2023.2.3,Win32,60.24096386,7,1,9,-0.032500013,0.00666666,1,0,0,0.882,rock_grid_rect_2,5,12,-1,-1,0.882,-0.357499981,-0.4125,1,0,0,1.1469,Obsidian_rect,5,1.147,1,8,0,8,0,1,,,,,,,,,,,,,
666e10f6dcf5bf60a08cb049,TCR,2024-06-25_11h40.13.911,LearnStrategy,2023.2.3,Win32,60.24096386,7,1,10,-0.029166667,0.004166667,1,0,0,0.9318,rock_grid_rect_2,4,03,-1,-1,0.932,0.406666692,-0.248333359,1,0,0,2.7779,Gabbro_rect,4,2.778,1,9,0,9,0,1,,,,,,,,,,,,,
666e10f6dcf5bf60a08cb049,TCR,2024-06-25_11h40.13.911,LearnStrategy,2023.2.3,Win32,60.24096386,7,1,11,0.016666667,-0.016666667,1,0,0,0.9819,rock_grid_rect_2,1,01,-1,-1,0.982,-0.371666654,-0.236666679,1,0,0,5.1106,Andesite_rect,1,5.111,1,10,0,10,0,1,,,,,,,,,,,,,
666e10f6dcf5bf60a08cb049,TCR,2024-06-25_11h40.13.911,LearnStrategy,2023.2.3,Win32,60.24096386,7,1,12,-0.045000013,-0.009166686,1,0,0,0.9145,rock_grid_rect_2,4,10,-1,-1,0.914,0.359166718,-0.253333346,1,0,0,1.246,Gabbro_rect,4,1.246,1,11,0,11,0,1,,,,,,,,,,,,,
666e10f6dcf5bf60a08cb049,TCR,2024-06-25_11h40.13.911,LearnStrategy,2023.2.3,Win32,60.24096386,7,1,13,-0.005833308,-0.0125,1,0,0,1.1486,rock_grid_rect_2,2,08,-1,-1,1.149,-0.103333346,-0.236666679,1,0,0,1.2623,Basalt_rect,2,1.262,1,12,0,12,0,1,,,,,,,,,,,,,
666e10f6dcf5bf60a08cb049,TCR,2024-06-25_11h40.13.911,LearnStrategy,2023.2.3,Win32,60.24096386,7,1,14,-0.024166679,-0.010000006,1,0,0,0.9489,rock_grid_rect_2,2,04,-1,-1,0.949,-0.1125,-0.235833359,1,0,0,1.2291,Basalt_rect,2,1.229,1,13,0,13,0,1,,,,,,,,,,,,,
666e10f6dcf5bf60a08cb049,TCR,2024-06-25_11h40.13.911,LearnStrategy,2023.2.3,Win32,60.24096386,7,1,15,-0.034999975,-0.011666679,1,0,0,0.9981,rock_grid_rect_2,3,07,-1,-1,0.998,0.109166654,-0.391666667,1,0,0,4.1446,Peridotite_rect,7,4.145,0,14,0,14,0,1,,,,,,,,,,,,,
666e10f6dcf5bf60a08cb049,TCR,2024-06-25_11h40.13.911,LearnStrategy,2023.2.3,Win32,60.24096386,7,1,16,0.015833346,0.023333327,1,0,0,1.0315,rock_grid_rect_2,4,15,-1,-1,1.032,-0.354166667,-0.254166667,1,0,0,5.6463,Andesite_rect,1,5.646,0,15,0,15,0,1,,,,,,,,,,,,,
666e10f6dcf5bf60a08cb049,TCR,2024-06-25_11h40.13.911,LearnStrategy,2023.2.3,Win32,60.24096386,7,2,1,,,,,,,,7,14,,,,,,,,,,,7,1.446,1,,,,,,0.071666654,-0.388333321,1,0,0,1.4459,Peridotite_rect,0,0,0,0,1,
666e10f6dcf5bf60a08cb049,TCR,2024-06-25_11h40.13.911,LearnStrategy,2023.2.3,Win32,60.24096386,7,2,2,,,,,,,,6,07,,,,,,,,,,,6,1.112,1,,,,,,-0.084166654,-0.379166667,1,0,0,1.1121,Pegmatite_rect,1,0,1,0,1,
666e10f6dcf5bf60a08cb049,TCR,2024-06-25_11h40.13.911,LearnStrategy,2023.2.3,Win32,60.24096386,7,2,3,,,,,,,,3,06,,,,,,,,,,,3,1.595,1,,,,,,0.148333359,-0.259166654,1,0,0,1.595,Diorite_rect,2,0,2,0,1,
666e10f6dcf5bf60a08cb049,TCR,2024-06-25_11h40.13.911,LearnStrategy,2023.2.3,Win32,60.24096386,7,2,4,,,,,,,,2,11,,,,,,,,,,,8,3.626,0,,,,,,0.379166667,-0.400833321,1,0,0,3.6261,Pumice_rect,3,0,3,0,1,
666e10f6dcf5bf60a08cb049,TCR,2024-06-25_11h40.13.911,LearnStrategy,2023.2.3,Win32,60.24096386,7,2,5,,,,,,,,4,12,,,,,,,,,,,2,3.121,0,,,,,,-0.089166641,-0.260833359,1,0,0,3.1214,Basalt_rect,4,0,4,0,1,
666e10f6dcf5bf60a08cb049,TCR,2024-06-25_11h40.13.911,LearnStrategy,2023.2.3,Win32,60.24096386,7,2,6,,,,,,,,8,16,,,,,,,,,,,8,1.353,1,,,,,,0.335833359,-0.413333321,1,0,0,1.3535,Pumice_rect,5,0,5,0,1,
666e10f6dcf5bf60a08cb049,TCR,2024-06-25_11h40.13.911,LearnStrategy,2023.2.3,Win32,60.24096386,7,2,7,,,,,,,,8,15,,,,,,,,,,,8,1.144,1,,,,,,0.360833359,-0.418333371,1,0,0,1.1436,Pumice_rect,6,0,6,0,1,
666e10f6dcf5bf60a08cb049,TCR,2024-06-25_11h40.13.911,LearnStrategy,2023.2.3,Win32,60.24096386,7,2,8,,,,,,,,1,07,,,,,,,,,,,1,8.941,1,,,,,,-0.416666667,-0.253333346,1,0,0,8.9407,Andesite_rect,7,0,7,0,1,
666e10f6dcf5bf60a08cb049,TCR,2024-06-25_11h40.13.911,LearnStrategy,2023.2.3,Win32,60.24096386,7,2,9,,,,,,,,6,11,,,,,,,,,,,6,1.422,1,,,,,,-0.132500013,-0.381666692,1,0,0,1.4216,Pegmatite_rect,8,0,8,0,1,
666e10f6dcf5bf60a08cb049,TCR,2024-06-25_11h40.13.911,LearnStrategy,2023.2.3,Win32,60.24096386,7,2,10,,,,,,,,1,16,,,,,,,,,,,4,2.061,0,,,,,,0.415000025,-0.247500038,1,0,0,2.0613,Gabbro_rect,9,0,9,0,1,
666e10f6dcf5bf60a08cb049,TCR,2024-06-25_11h40.13.911,LearnStrategy,2023.2.3,Win32,60.24096386,7,2,11,,,,,,,,2,06,,,,,,,,,,,2,1.962,1,,,,,,-0.110833295,-0.261666679,1,0,0,1.9621,Basalt_rect,10,0,10,0,1,
666e10f6dcf5bf60a08cb049,TCR,2024-06-25_11h40.13.911,LearnStrategy,2023.2.3,Win32,60.24096386,7,2,12,,,,,,,,5,16,,,,,,,,,,,5,1.571,1,,,,,,-0.329166667,-0.398333359,1,0,0,1.5705,Obsidian_rect,11,0,11,0,1,
666e10f6dcf5bf60a08cb049,TCR,2024-06-25_11h40.13.911,LearnStrategy,2023.2.3,Win32,60.24096386,7,2,13,,,,,,,,5,05,,,,,,,,,,,5,0.962,1,,,,,,-0.354166667,-0.405833371,1,0,0,0.962,Obsidian_rect,12,0,12,0,1,
666e10f6dcf5bf60a08cb049,TCR,2024-06-25_11h40.13.911,LearnStrategy,2023.2.3,Win32,60.24096386,7,2,14,,,,,,,,3,02,,,,,,,,,,,3,2.699,1,,,,,,0.070000013,-0.2625,1,0,0,2.6992,Diorite_rect,13,0,13,0,1,
666e10f6dcf5bf60a08cb049,TCR,2024-06-25_11h40.13.911,LearnStrategy,2023.2.3,Win32,60.24096386,7,2,15,,,,,,,,7,06,,,,,,,,,,,7,2.104,1,,,,,,0.107500013,-0.409166654,1,0,0,2.1037,Peridotite_rect,14,0,14,0,1,
666e10f6dcf5bf60a08cb049,TCR,2024-06-25_11h40.13.911,LearnStrategy,2023.2.3,Win32,60.24096386,7,2,16,,,,,,,,4,13,,,,,,,,,,,1,4.844,0,,,,,,-0.426666673,-0.25,1,0,0,4.8436,Andesite_rect,15,0,15,0,1,
666e10f6dcf5bf60a08cb049,TCR,2024-06-25_11h40.13.911,LearnStrategy,2023.2.3,Win32,60.24096386,8,1,1,0.025,-0.00583334,1,0,0,0.965,rock_grid_rect_2,1,11,-1,-1,0.965,-0.440833314,-0.243333371,1,0,0,1.8283,Andesite_rect,1,1.828,1,0,0,0,0,1,,,,,,,,,,,,,
666e10f6dcf5bf60a08cb049,TCR,2024-06-25_11h40.13.911,LearnStrategy,2023.2.3,Win32,60.24096386,8,1,2,0.041666667,0.024166648,1,0,0,1.0483,rock_grid_rect_2,4,03,-1,-1,1.048,-0.114999962,-0.240833346,1,0,0,1.5621,Basalt_rect,2,1.562,0,1,0,1,0,1,,,,,,,,,,,,,
666e10f6dcf5bf60a08cb049,TCR,2024-06-25_11h40.13.911,LearnStrategy,2023.2.3,Win32,60.24096386,8,1,3,-0.029999987,-0.00583334,1,0,0,0.9323,rock_grid_rect_2,8,06,-1,-1,0.932,0.395833333,-0.383333333,1,0,0,0.9951,Pumice_rect,8,0.995,1,2,0,2,0,1,,,,,,,,,,,,,
666e10f6dcf5bf60a08cb049,TCR,2024-06-25_11h40.13.911,LearnStrategy,2023.2.3,Win32,60.24096386,8,1,4,0.076666705,-0.01916666,1,0,0,1.0985,rock_grid_rect_2,1,14,-1,-1,1.099,-0.432499981,-0.240833346,1,0,0,2.3117,Andesite_rect,1,2.312,1,3,0,3,0,1,,,,,,,,,,,,,
666e10f6dcf5bf60a08cb049,TCR,2024-06-25_11h40.13.911,LearnStrategy,2023.2.3,Win32,60.24096386,8,1,5,-0.023333295,-0.021666686,1,0,0,0.9318,rock_grid_rect_2,4,15,-1,-1,0.932,0.372499975,-0.245833333,1,0,0,2.6608,Gabbro_rect,4,2.661,1,4,0,4,0,1,,,,,,,,,,,,,
666e10f6dcf5bf60a08cb049,TCR,2024-06-25_11h40.13.911,LearnStrategy,2023.2.3,Win32,60.24096386,8,1,6,0.014166705,-0.01833334,1,0,0,1.2488,rock_grid_rect_2,7,16,-1,-1,1.249,0.071666654,-0.3875,1,0,0,1.1456,Peridotite_rect,7,1.146,1,5,0,5,0,1,,,,,,,,,,,,,
666e10f6dcf5bf60a08cb049,TCR,2024-06-25_11h40.13.911,LearnStrategy,2023.2.3,Win32,60.24096386,8,1,7,-0.013333321,0,1,0,0,0.8815,rock_grid_rect_2,2,14,-1,-1,0.881,-0.113333321,-0.252500025,1,0,0,2.0112,Basalt_rect,2,2.011,1,6,0,6,0,1,,,,,,,,,,,,,
666e10f6dcf5bf60a08cb049,TCR,2024-06-25_11h40.13.911,LearnStrategy,2023.2.3,Win32,60.24096386,8,1,8,-0.009166654,-0.0125,1,0,0,0.8986,rock_grid_rect_2,1,14,-1,-1,0.899,-0.357499981,-0.228333346,1,0,0,1.495,Andesite_rect,1,1.495,1,7,0,7,0,1,,,,,,,,,,,,,
666e10f6dcf5bf60a08cb049,TCR,2024-06-25_11h40.13.911,LearnStrategy,2023.2.3,Win32,60.24096386,8,1,9,-0.027499962,-0.009166686,1,0,0,0.982,rock_grid_rect_2,4,05,-1,-1,0.982,0.158333333,-0.408333333,1,0,0,1.6953,Peridotite_rect,7,1.695,0,8,0,8,0,1,,,,,,,,,,,,,
666e10f6dcf5bf60a08cb049,TCR,2024-06-25_11h40.13.911,LearnStrategy,2023.2.3,Win32,60.24096386,8,1,10,0.045833333,0.003333314,1,0,0,1.082,rock_grid_rect_2,4,10,-1,-1,1.082,0.364166641,-0.257500013,1,0,0,1.3619,Gabbro_rect,4,1.362,1,9,0,9,0,1,,,,,,,,,,,,,
666e10f6dcf5bf60a08cb049,TCR,2024-06-25_11h40.13.911,LearnStrategy,2023.2.3,Win32,60.24096386,8,1,11,-0.003333346,-0.013333352,1,0,0,0.8987,rock_grid_rect_2,3,11,-1,-1,0.899,0.049166679,-0.245833333,1,0,0,3.4775,Diorite_rect,3,3.477,1,10,0,10,0,1,,,,,,,,,,,,,
666e10f6dcf5bf60a08cb049,TCR,2024-06-25_11h40.13.911,LearnStrategy,2023.2.3,Win32,60.24096386,8,1,12,-0.020000013,0,1,0,0,0.8818,rock_grid_rect_2,2,08,-1,-1,0.882,-0.167499987,-0.244166692,1,0,0,1.0628,Basalt_rect,2,1.063,1,11,0,11,0,1,,,,,,,,,,,,,
666e10f6dcf5bf60a08cb049,TCR,2024-06-25_11h40.13.911,LearnStrategy,2023.2.3,Win32,60.24096386,8,1,13,-0.015833346,0.021666654,1,0,0,1.1151,rock_grid_rect_2,4,08,-1,-1,1.115,0.341666667,-0.2375,1,0,0,1.2952,Gabbro_rect,4,1.295,1,12,0,12,0,1,,,,,,,,,,,,,
666e10f6dcf5bf60a08cb049,TCR,2024-06-25_11h40.13.911,LearnStrategy,2023.2.3,Win32,60.24096386,8,1,14,0.009166654,0.001666673,1,0,0,0.9484,rock_grid_rect_2,2,09,-1,-1,0.948,-0.059166654,-0.231666692,1,0,0,3.2936,Basalt_rect,2,3.294,1,13,0,13,0,1,,,,,,,,,,,,,
666e10f6dcf5bf60a08cb049,TCR,2024-06-25_11h40.13.911,LearnStrategy,2023.2.3,Win32,60.24096386,8,1,15,0.014166705,-0.023333327,1,0,0,1.2151,rock_grid_rect_2,6,06,-1,-1,1.215,-0.131666629,-0.390000025,1,0,0,2.1276,Pegmatite_rect,6,2.128,1,14,0,14,0,1,,,,,,,,,,,,,
666e10f6dcf5bf60a08cb049,TCR,2024-06-25_11h40.13.911,LearnStrategy,2023.2.3,Win32,60.24096386,8,1,16,-0.017499987,-0.020833333,1,0,0,0.8817,rock_grid_rect_2,5,10,-1,-1,0.882,-0.350833321,-0.400833321,1,0,0,2.2785,Obsidian_rect,5,2.279,1,15,0,15,0,1,,,,,,,,,,,,,
666e10f6dcf5bf60a08cb049,TCR,2024-06-25_11h40.13.911,LearnStrategy,2023.2.3,Win32,60.24096386,8,2,1,,,,,,,,5,06,,,,,,,,,,,5,2.759,1,,,,,,-0.389166673,-0.403333346,1,0,0,2.7588,Obsidian_rect,0,0,0,0,1,
666e10f6dcf5bf60a08cb049,TCR,2024-06-25_11h40.13.911,LearnStrategy,2023.2.3,Win32,60.24096386,8,2,2,,,,,,,,7,12,,,,,,,,,,,7,1.462,1,,,,,,0.108333333,-0.395000013,1,0,0,1.4623,Peridotite_rect,1,0,1,0,1,
666e10f6dcf5bf60a08cb049,TCR,2024-06-25_11h40.13.911,LearnStrategy,2023.2.3,Win32,60.24096386,8,2,3,,,,,,,,8,05,,,,,,,,,,,8,1.279,1,,,,,,0.35333341,-0.410833359,1,0,0,1.279,Pumice_rect,2,0,2,0,1,
666e10f6dcf5bf60a08cb049,TCR,2024-06-25_11h40.13.911,LearnStrategy,2023.2.3,Win32,60.24096386,8,2,4,,,,,,,,3,12,,,,,,,,,,,3,1.928,1,,,,,,0.160833359,-0.270000013,1,0,0,1.9283,Diorite_rect,3,0,3,0,1,
666e10f6dcf5bf60a08cb049,TCR,2024-06-25_11h40.13.911,LearnStrategy,2023.2.3,Win32,60.24096386,8,2,5,,,,,,,,4,14,,,,,,,,,,,4,1.246,1,,,,,,0.35333341,-0.250833321,1,0,0,1.2457,Gabbro_rect,4,0,4,0,1,
666e10f6dcf5bf60a08cb049,TCR,2024-06-25_11h40.13.911,LearnStrategy,2023.2.3,Win32,60.24096386,8,2,6,,,,,,,,1,04,,,,,,,,,,,1,1.647,1,,,,,,-0.454166667,-0.259166654,1,0,0,1.6468,Andesite_rect,5,0,5,0,1,
666e10f6dcf5bf60a08cb049,TCR,2024-06-25_11h40.13.911,LearnStrategy,2023.2.3,Win32,60.24096386,8,2,7,,,,,,,,8,04,,,,,,,,,,,8,1.362,1,,,,,,0.382500076,-0.3875,1,0,0,1.362,Pumice_rect,6,0,6,0,1,
666e10f6dcf5bf60a08cb049,TCR,2024-06-25_11h40.13.911,LearnStrategy,2023.2.3,Win32,60.24096386,8,2,8,,,,,,,,2,02,,,,,,,,,,,2,2.529,1,,,,,,-0.102499962,-0.255833371,1,0,0,2.529,Basalt_rect,7,0,7,0,1,
666e10f6dcf5bf60a08cb049,TCR,2024-06-25_11h40.13.911,LearnStrategy,2023.2.3,Win32,60.24096386,8,2,9,,,,,,,,4,01,,,,,,,,,,,4,1.971,1,,,,,,0.360833359,-0.265000025,1,0,0,1.971,Gabbro_rect,8,0,8,0,1,
666e10f6dcf5bf60a08cb049,TCR,2024-06-25_11h40.13.911,LearnStrategy,2023.2.3,Win32,60.24096386,8,2,10,,,,,,,,2,10,,,,,,,,,,,2,1.295,1,,,,,,-0.061666679,-0.242499987,1,0,0,1.2953,Basalt_rect,9,0,9,0,1,
666e10f6dcf5bf60a08cb049,TCR,2024-06-25_11h40.13.911,LearnStrategy,2023.2.3,Win32,60.24096386,8,2,11,,,,,,,,6,13,,,,,,,,,,,6,1.459,1,,,,,,-0.082500013,-0.415833346,1,0,0,1.4595,Pegmatite_rect,10,0,10,0,1,
666e10f6dcf5bf60a08cb049,TCR,2024-06-25_11h40.13.911,LearnStrategy,2023.2.3,Win32,60.24096386,8,2,12,,,,,,,,5,11,,,,,,,,,,,5,1.061,1,,,,,,-0.304999987,-0.408333333,1,0,0,1.0608,Obsidian_rect,11,0,11,0,1,
666e10f6dcf5bf60a08cb049,TCR,2024-06-25_11h40.13.911,LearnStrategy,2023.2.3,Win32,60.24096386,8,2,13,,,,,,,,1,06,,,,,,,,,,,1,1.746,1,,,,,,-0.351666673,-0.258333333,1,0,0,1.7456,Andesite_rect,12,0,12,0,1,
666e10f6dcf5bf60a08cb049,TCR,2024-06-25_11h40.13.911,LearnStrategy,2023.2.3,Win32,60.24096386,8,2,14,,,,,,,,6,10,,,,,,,,,,,6,1.412,1,,,,,,-0.067499987,-0.418333371,1,0,0,1.4118,Pegmatite_rect,13,0,13,0,1,
666e10f6dcf5bf60a08cb049,TCR,2024-06-25_11h40.13.911,LearnStrategy,2023.2.3,Win32,60.24096386,8,2,15,,,,,,,,3,09,,,,,,,,,,,3,1.279,1,,,,,,0.159166654,-0.252500025,1,0,0,1.2786,Diorite_rect,14,0,14,0,1,
666e10f6dcf5bf60a08cb049,TCR,2024-06-25_11h40.13.911,LearnStrategy,2023.2.3,Win32,60.24096386,8,2,16,,,,,,,,7,13,,,,,,,,,,,7,2.162,1,,,,,,0.121666654,-0.4,1,0,0,2.1617,Peridotite_rect,15,0,15,0,1,
666e10f6dcf5bf60a08cb049,TCR,2024-06-25_11h40.13.911,LearnStrategy,2023.2.3,Win32,60.24096386,9,1,1,0.015833346,-0.013333352,1,0,0,1.248,rock_grid_rect_2,7,07,-1,-1,1.248,0.131666692,-0.396666654,1,0,0,1.4286,Peridotite_rect,7,1.429,1,0,0,0,0,1,,,,,,,,,,,,,
666e10f6dcf5bf60a08cb049,TCR,2024-06-25_11h40.13.911,LearnStrategy,2023.2.3,Win32,60.24096386,9,1,2,0.017499987,-0.021666686,1,0,0,1.1319,rock_grid_rect_2,4,05,-1,-1,1.132,0.430833308,-0.269166692,1,0,0,1.9446,Gabbro_rect,4,1.945,1,1,0,1,0,1,,,,,,,,,,,,,
666e10f6dcf5bf60a08cb049,TCR,2024-06-25_11h40.13.911,LearnStrategy,2023.2.3,Win32,60.24096386,9,1,3,0.035833359,-0.014999994,1,0,0,1.0321,rock_grid_rect_2,4,15,-1,-1,1.032,0.393333308,-0.230833371,1,0,0,2.0447,Gabbro_rect,4,2.045,1,2,0,2,0,1,,,,,,,,,,,,,
666e10f6dcf5bf60a08cb049,TCR,2024-06-25_11h40.13.911,LearnStrategy,2023.2.3,Win32,60.24096386,9,1,4,0.043333371,-0.0125,1,0,0,0.9485,rock_grid_rect_2,2,04,-1,-1,0.948,-0.150833321,-0.229166667,1,0,0,1.0636,Basalt_rect,2,1.064,1,3,0,3,0,1,,,,,,,,,,,,,
666e10f6dcf5bf60a08cb049,TCR,2024-06-25_11h40.13.911,LearnStrategy,2023.2.3,Win32,60.24096386,9,1,5,-0.018333308,-0.003333346,1,0,0,0.815,rock_grid_rect_2,1,01,-1,-1,0.815,-0.408333333,-0.265000025,1,0,0,3.1122,Andesite_rect,1,3.112,1,4,0,4,0,1,,,,,,,,,,,,,
666e10f6dcf5bf60a08cb049,TCR,2024-06-25_11h40.13.911,LearnStrategy,2023.2.3,Win32,60.24096386,9,1,6,0.031666692,-0.011666679,1,0,0,0.8976,rock_grid_rect_2,5,10,-1,-1,0.898,-0.361666648,-0.398333359,1,0,0,1.2287,Obsidian_rect,5,1.229,1,5,0,5,0,1,,,,,,,,,,,,,
666e10f6dcf5bf60a08cb049,TCR,2024-06-25_11h40.13.911,LearnStrategy,2023.2.3,Win32,60.24096386,9,1,7,-0.011666679,0.010833327,1,0,0,1.0151,rock_grid_rect_2,4,10,-1,-1,1.015,0.346666718,-0.242499987,1,0,0,1.7291,Gabbro_rect,4,1.729,1,6,0,6,0,1,,,,,,,,,,,,,
666e10f6dcf5bf60a08cb049,TCR,2024-06-25_11h40.13.911,LearnStrategy,2023.2.3,Win32,60.24096386,9,1,8,0.034166654,-0.01833334,1,0,0,1.0158,rock_grid_rect_2,2,14,-1,-1,1.016,-0.163333321,-0.263333321,1,0,0,1.7616,Basalt_rect,2,1.762,1,7,0,7,0,1,,,,,,,,,,,,,
666e10f6dcf5bf60a08cb049,TCR,2024-06-25_11h40.13.911,LearnStrategy,2023.2.3,Win32,60.24096386,9,1,9,-0.027499962,-0.021666686,1,0,0,0.9315,rock_grid_rect_2,3,14,-1,-1,0.931,0.099166679,-0.258333333,1,0,0,1.3133,Diorite_rect,3,1.313,1,8,0,8,0,1,,,,,,,,,,,,,
666e10f6dcf5bf60a08cb049,TCR,2024-06-25_11h40.13.911,LearnStrategy,2023.2.3,Win32,60.24096386,9,1,10,-0.029999987,0.002499994,1,0,0,0.815,rock_grid_rect_2,1,11,-1,-1,0.815,-0.390833314,-0.246666654,1,0,0,1.1133,Andesite_rect,1,1.113,1,9,0,9,0,1,,,,,,,,,,,,,
666e10f6dcf5bf60a08cb049,TCR,2024-06-25_11h40.13.911,LearnStrategy,2023.2.3,Win32,60.24096386,9,1,11,-0.029999987,-0.007500013,1,0,0,0.7482,rock_grid_rect_2,2,09,-1,-1,0.748,-0.131666629,-0.230833371,1,0,0,1.262,Basalt_rect,2,1.262,1,10,0,10,0,1,,,,,,,,,,,,,
666e10f6dcf5bf60a08cb049,TCR,2024-06-25_11h40.13.911,LearnStrategy,2023.2.3,Win32,60.24096386,9,1,12,-0.018333308,-0.01916666,1,0,0,1.0148,rock_grid_rect_2,4,08,-1,-1,1.015,0.363333384,-0.233333333,1,0,0,1.346,Gabbro_rect,4,1.346,1,11,0,11,0,1,,,,,,,,,,,,,
666e10f6dcf5bf60a08cb049,TCR,2024-06-25_11h40.13.911,LearnStrategy,2023.2.3,Win32,60.24096386,9,1,13,-0.010833295,-0.013333352,1,0,0,0.9485,rock_grid_rect_2,4,11,-1,-1,0.948,-0.170833333,-0.254999987,1,0,0,1.0791,Basalt_rect,2,1.079,0,12,0,12,0,1,,,,,,,,,,,,,
666e10f6dcf5bf60a08cb049,TCR,2024-06-25_11h40.13.911,LearnStrategy,2023.2.3,Win32,60.24096386,9,1,14,-0.000833321,-0.002499994,1,0,0,1.0145,rock_grid_rect_2,1,10,-1,-1,1.014,-0.399166648,-0.255833371,1,0,0,2.7623,Andesite_rect,1,2.762,1,13,0,13,0,1,,,,,,,,,,,,,
666e10f6dcf5bf60a08cb049,TCR,2024-06-25_11h40.13.911,LearnStrategy,2023.2.3,Win32,60.24096386,9,1,15,-0.014999962,-0.017500019,1,0,0,1.0151,rock_grid_rect_2,8,08,-1,-1,1.015,0.371666718,-0.394166692,1,0,0,1.6256,Pumice_rect,8,1.626,1,14,0,14,0,1,,,,,,,,,,,,,
666e10f6dcf5bf60a08cb049,TCR,2024-06-25_11h40.13.911,LearnStrategy,2023.2.3,Win32,60.24096386,9,1,16,-0.021666654,-0.017500019,1,0,0,0.8823,rock_grid_rect_2,6,16,-1,-1,0.882,-0.104999987,-0.408333333,1,0,0,2.212,Pegmatite_rect,6,2.212,1,15,0,15,0,1,,,,,,,,,,,,,
666e10f6dcf5bf60a08cb049,TCR,2024-06-25_11h40.13.911,LearnStrategy,2023.2.3,Win32,60.24096386,9,2,1,,,,,,,,3,15,,,,,,,,,,,3,9.574,1,,,,,,0.132500013,-0.242499987,1,0,0,9.574,Diorite_rect,0,0,0,0,1,
666e10f6dcf5bf60a08cb049,TCR,2024-06-25_11h40.13.911,LearnStrategy,2023.2.3,Win32,60.24096386,9,2,2,,,,,,,,6,05,,,,,,,,,,,6,1.42,1,,,,,,-0.158333333,-0.410833359,1,0,0,1.4205,Pegmatite_rect,1,0,1,0,1,
666e10f6dcf5bf60a08cb049,TCR,2024-06-25_11h40.13.911,LearnStrategy,2023.2.3,Win32,60.24096386,9,2,3,,,,,,,,7,04,,,,,,,,,,,7,1.296,1,,,,,,0.110000038,-0.380833371,1,0,0,1.2956,Peridotite_rect,2,0,2,0,1,
666e10f6dcf5bf60a08cb049,TCR,2024-06-25_11h40.13.911,LearnStrategy,2023.2.3,Win32,60.24096386,9,2,4,,,,,,,,3,10,,,,,,,,,,,3,2.195,1,,,,,,0.114166705,-0.240000025,1,0,0,2.1946,Diorite_rect,3,0,3,0,1,
666e10f6dcf5bf60a08cb049,TCR,2024-06-25_11h40.13.911,LearnStrategy,2023.2.3,Win32,60.24096386,9,2,5,,,,,,,,4,09,,,,,,,,,,,4,2.039,1,,,,,,0.37833341,-0.257500013,1,0,0,2.0393,Gabbro_rect,4,0,4,0,1,
666e10f6dcf5bf60a08cb049,TCR,2024-06-25_11h40.13.911,LearnStrategy,2023.2.3,Win32,60.24096386,9,2,6,,,,,,,,1,05,,,,,,,,,,,1,1.507,1,,,,,,-0.423333327,-0.2375,1,0,0,1.5074,Andesite_rect,5,0,5,0,1,
666e10f6dcf5bf60a08cb049,TCR,2024-06-25_11h40.13.911,LearnStrategy,2023.2.3,Win32,60.24096386,9,2,7,,,,,,,,2,16,,,,,,,,,,,2,1.142,1,,,,,,-0.110833295,-0.240000025,1,0,0,1.142,Basalt_rect,6,0,6,0,1,
666e10f6dcf5bf60a08cb049,TCR,2024-06-25_11h40.13.911,LearnStrategy,2023.2.3,Win32,60.24096386,9,2,8,,,,,,,,5,02,,,,,,,,,,,5,1.159,1,,,,,,-0.329166667,-0.390000025,1,0,0,1.1586,Obsidian_rect,7,0,7,0,1,
666e10f6dcf5bf60a08cb049,TCR,2024-06-25_11h40.13.911,LearnStrategy,2023.2.3,Win32,60.24096386,9,2,9,,,,,,,,8,02,,,,,,,,,,,8,1.244,1,,,,,,0.340000025,-0.396666654,1,0,0,1.2441,Pumice_rect,8,0,8,0,1,
666e10f6dcf5bf60a08cb049,TCR,2024-06-25_11h40.13.911,LearnStrategy,2023.2.3,Win32,60.24096386,9,2,10,,,,,,,,1,02,,,,,,,,,,,1,1.478,1,,,,,,-0.384166654,-0.250833321,1,0,0,1.4779,Andesite_rect,9,0,9,0,1,
666e10f6dcf5bf60a08cb049,TCR,2024-06-25_11h40.13.911,LearnStrategy,2023.2.3,Win32,60.24096386,9,2,11,,,,,,,,7,02,,,,,,,,,,,7,3.41,1,,,,,,0.114166705,-0.398333359,1,0,0,3.4102,Peridotite_rect,10,0,10,0,1,
666e10f6dcf5bf60a08cb049,TCR,2024-06-25_11h40.13.911,LearnStrategy,2023.2.3,Win32,60.24096386,9,2,12,,,,,,,,8,14,,,,,,,,,,,8,1.303,1,,,,,,0.409999975,-0.401666705,1,0,0,1.3028,Pumice_rect,11,0,11,0,1,
666e10f6dcf5bf60a08cb049,TCR,2024-06-25_11h40.13.911,LearnStrategy,2023.2.3,Win32,60.24096386,9,2,13,,,,,,,,5,14,,,,,,,,,,,5,1.178,1,,,,,,-0.310833327,-0.4125,1,0,0,1.1775,Obsidian_rect,12,0,12,0,1,
666e10f6dcf5bf60a08cb049,TCR,2024-06-25_11h40.13.911,LearnStrategy,2023.2.3,Win32,60.24096386,9,2,14,,,,,,,,4,16,,,,,,,,,,,4,4.076,1,,,,,,0.416666667,-0.240833346,1,0,0,4.0758,Gabbro_rect,13,0,13,0,1,
666e10f6dcf5bf60a08cb049,TCR,2024-06-25_11h40.13.911,LearnStrategy,2023.2.3,Win32,60.24096386,9,2,15,,,,,,,,2,12,,,,,,,,,,,1,3.59,0,,,,,,-0.425,-0.257500013,1,0,0,3.5897,Andesite_rect,14,0,14,0,1,
666e10f6dcf5bf60a08cb049,TCR,2024-06-25_11h40.13.911,LearnStrategy,2023.2.3,Win32,60.24096386,9,2,16,,,,,,,,6,12,,,,,,,,,,,6,1.188,1,,,,,,-0.173333295,-0.409166654,1,0,0,1.1878,Pegmatite_rect,15,0,15,0,1,
666e10f6dcf5bf60a08cb049,TCR,2024-06-25_11h40.13.911,LearnStrategy,2023.2.3,Win32,60.24096386,,,,,,,,,,,,,,,,,,,,,,,,,,,,,,,,,,,,,,,,,,,1
666e10f6dcf5bf60a08cb049,TCR,2024-06-25_11h40.13.911,LearnStrategy,2023.2.3,Win32,60.24096386,,,,,,,,,,,,,,,,,,,,,,,,,,,,,,,,,,,,,,,,,,,
666e10f6dcf5bf60a08cb049,TCR,2024-06-25_11h40.13.911,LearnStrategy,2023.2.3,Win32,60.24096386,,,,,,,,,,,3,08,1,1,,,,,,,,,,,,,,,,,,,,,,,,,,,,,
666e10f6dcf5bf60a08cb049,TCR,2024-06-25_11h40.13.911,LearnStrategy,2023.2.3,Win32,60.24096386,,,,,,,,,,,6,16,1,2,,,,,,,,,,,,,,,,,,,,,,,,,,,,,
666e10f6dcf5bf60a08cb049,TCR,2024-06-25_11h40.13.911,LearnStrategy,2023.2.3,Win32,60.24096386,,,,,,,,,,,6,03,1,3,,,,,,,,,,,,,,,,,,,,,,,,,,,,,
666e10f6dcf5bf60a08cb049,TCR,2024-06-25_11h40.13.911,LearnStrategy,2023.2.3,Win32,60.24096386,,,,,,,,,,,2,05,1,4,,,,,,,,,,,,,,,,,,,,,,,,,,,,,
666e10f6dcf5bf60a08cb049,TCR,2024-06-25_11h40.13.911,LearnStrategy,2023.2.3,Win32,60.24096386,,,,,,,,,,,1,14,1,5,,,,,,,,,,,,,,,,,,,,,,,,,,,,,
666e10f6dcf5bf60a08cb049,TCR,2024-06-25_11h40.13.911,LearnStrategy,2023.2.3,Win32,60.24096386,,,,,,,,,,,6,06,1,6,,,,,,,,,,,,,,,,,,,,,,,,,,,,,
666e10f6dcf5bf60a08cb049,TCR,2024-06-25_11h40.13.911,LearnStrategy,2023.2.3,Win32,60.24096386,,,,,,,,,,,8,10,1,7,,,,,,,,,,,,,,,,,,,,,,,,,,,,,
666e10f6dcf5bf60a08cb049,TCR,2024-06-25_11h40.13.911,LearnStrategy,2023.2.3,Win32,60.24096386,,,,,,,,,,,8,13,1,8,,,,,,,,,,,,,,,,,,,,,,,,,,,,,
666e10f6dcf5bf60a08cb049,TCR,2024-06-25_11h40.13.911,LearnStrategy,2023.2.3,Win32,60.24096386,,,,,,,,,,,1,11,2,1,,,,,,,,,,,,,,,,,,,,,,,,,,,,,
666e10f6dcf5bf60a08cb049,TCR,2024-06-25_11h40.13.911,LearnStrategy,2023.2.3,Win32,60.24096386,,,,,,,,,,,5,12,2,2,,,,,,,,,,,,,,,,,,,,,,,,,,,,,
666e10f6dcf5bf60a08cb049,TCR,2024-06-25_11h40.13.911,LearnStrategy,2023.2.3,Win32,60.24096386,,,,,,,,,,,3,11,2,3,,,,,,,,,,,,,,,,,,,,,,,,,,,,,
666e10f6dcf5bf60a08cb049,TCR,2024-06-25_11h40.13.911,LearnStrategy,2023.2.3,Win32,60.24096386,,,,,,,,,,,6,09,2,4,,,,,,,,,,,,,,,,,,,,,,,,,,,,,
666e10f6dcf5bf60a08cb049,TCR,2024-06-25_11h40.13.911,LearnStrategy,2023.2.3,Win32,60.24096386,,,,,,,,,,,7,07,2,5,,,,,,,,,,,,,,,,,,,,,,,,,,,,,
666e10f6dcf5bf60a08cb049,TCR,2024-06-25_11h40.13.911,LearnStrategy,2023.2.3,Win32,60.24096386,,,,,,,,,,,3,14,2,6,,,,,,,,,,,,,,,,,,,,,,,,,,,,,
666e10f6dcf5bf60a08cb049,TCR,2024-06-25_11h40.13.911,LearnStrategy,2023.2.3,Win32,60.24096386,,,,,,,,,,,4,08,2,7,,,,,,,,,,,,,,,,,,,,,,,,,,,,,
666e10f6dcf5bf60a08cb049,TCR,2024-06-25_11h40.13.911,LearnStrategy,2023.2.3,Win32,60.24096386,,,,,,,,,,,2,04,2,8,,,,,,,,,,,,,,,,,,,,,,,,,,,,,
666e10f6dcf5bf60a08cb049,TCR,2024-06-25_11h40.13.911,LearnStrategy,2023.2.3,Win32,60.24096386,,,,,,,,,,,1,09,3,1,,,,,,,,,,,,,,,,,,,,,,,,,,,,,
666e10f6dcf5bf60a08cb049,TCR,2024-06-25_11h40.13.911,LearnStrategy,2023.2.3,Win32,60.24096386,,,,,,,,,,,2,01,3,2,,,,,,,,,,,,,,,,,,,,,,,,,,,,,
666e10f6dcf5bf60a08cb049,TCR,2024-06-25_11h40.13.911,LearnStrategy,2023.2.3,Win32,60.24096386,,,,,,,,,,,8,09,3,3,,,,,,,,,,,,,,,,,,,,,,,,,,,,,
666e10f6dcf5bf60a08cb049,TCR,2024-06-25_11h40.13.911,LearnStrategy,2023.2.3,Win32,60.24096386,,,,,,,,,,,3,07,3,4,,,,,,,,,,,,,,,,,,,,,,,,,,,,,
666e10f6dcf5bf60a08cb049,TCR,2024-06-25_11h40.13.911,LearnStrategy,2023.2.3,Win32,60.24096386,,,,,,,,,,,5,04,3,5,,,,,,,,,,,,,,,,,,,,,,,,,,,,,
666e10f6dcf5bf60a08cb049,TCR,2024-06-25_11h40.13.911,LearnStrategy,2023.2.3,Win32,60.24096386,,,,,,,,,,,7,10,3,6,,,,,,,,,,,,,,,,,,,,,,,,,,,,,
666e10f6dcf5bf60a08cb049,TCR,2024-06-25_11h40.13.911,LearnStrategy,2023.2.3,Win32,60.24096386,,,,,,,,,,,1,01,3,7,,,,,,,,,,,,,,,,,,,,,,,,,,,,,
666e10f6dcf5bf60a08cb049,TCR,2024-06-25_11h40.13.911,LearnStrategy,2023.2.3,Win32,60.24096386,,,,,,,,,,,6,15,3,8,,,,,,,,,,,,,,,,,,,,,,,,,,,,,
666e10f6dcf5bf60a08cb049,TCR,2024-06-25_11h40.13.911,LearnStrategy,2023.2.3,Win32,60.24096386,,,,,,,,,,,1,10,4,1,,,,,,,,,,,,,,,,,,,,,,,,,,,,,
666e10f6dcf5bf60a08cb049,TCR,2024-06-25_11h40.13.911,LearnStrategy,2023.2.3,Win32,60.24096386,,,,,,,,,,,7,05,4,2,,,,,,,,,,,,,,,,,,,,,,,,,,,,,
666e10f6dcf5bf60a08cb049,TCR,2024-06-25_11h40.13.911,LearnStrategy,2023.2.3,Win32,60.24096386,,,,,,,,,,,4,10,4,3,,,,,,,,,,,,,,,,,,,,,,,,,,,,,
666e10f6dcf5bf60a08cb049,TCR,2024-06-25_11h40.13.911,LearnStrategy,2023.2.3,Win32,60.24096386,,,,,,,,,,,5,08,4,4,,,,,,,,,,,,,,,,,,,,,,,,,,,,,
666e10f6dcf5bf60a08cb049,TCR,2024-06-25_11h40.13.911,LearnStrategy,2023.2.3,Win32,60.24096386,,,,,,,,,,,3,16,4,5,,,,,,,,,,,,,,,,,,,,,,,,,,,,,
666e10f6dcf5bf60a08cb049,TCR,2024-06-25_11h40.13.911,LearnStrategy,2023.2.3,Win32,60.24096386,,,,,,,,,,,4,05,4,6,,,,,,,,,,,,,,,,,,,,,,,,,,,,,
666e10f6dcf5bf60a08cb049,TCR,2024-06-25_11h40.13.911,LearnStrategy,2023.2.3,Win32,60.24096386,,,,,,,,,,,4,11,4,7,,,,,,,,,,,,,,,,,,,,,,,,,,,,,
666e10f6dcf5bf60a08cb049,TCR,2024-06-25_11h40.13.911,LearnStrategy,2023.2.3,Win32,60.24096386,,,,,,,,,,,7,08,4,8,,,,,,,,,,,,,,,,,,,,,,,,,,,,,
666e10f6dcf5bf60a08cb049,TCR,2024-06-25_11h40.13.911,LearnStrategy,2023.2.3,Win32,60.24096386,,,,,,,,,,,5,09,5,1,,,,,,,,,,,,,,,,,,,,,,,,,,,,,
666e10f6dcf5bf60a08cb049,TCR,2024-06-25_11h40.13.911,LearnStrategy,2023.2.3,Win32,60.24096386,,,,,,,,,,,2,14,5,2,,,,,,,,,,,,,,,,,,,,,,,,,,,,,
666e10f6dcf5bf60a08cb049,TCR,2024-06-25_11h40.13.911,LearnStrategy,2023.2.3,Win32,60.24096386,,,,,,,,,,,5,07,5,3,,,,,,,,,,,,,,,,,,,,,,,,,,,,,
666e10f6dcf5bf60a08cb049,TCR,2024-06-25_11h40.13.911,LearnStrategy,2023.2.3,Win32,60.24096386,,,,,,,,,,,2,09,5,4,,,,,,,,,,,,,,,,,,,,,,,,,,,,,
666e10f6dcf5bf60a08cb049,TCR,2024-06-25_11h40.13.911,LearnStrategy,2023.2.3,Win32,60.24096386,,,,,,,,,,,3,13,5,5,,,,,,,,,,,,,,,,,,,,,,,,,,,,,
666e10f6dcf5bf60a08cb049,TCR,2024-06-25_11h40.13.911,LearnStrategy,2023.2.3,Win32,60.24096386,,,,,,,,,,,4,03,5,6,,,,,,,,,,,,,,,,,,,,,,,,,,,,,
666e10f6dcf5bf60a08cb049,TCR,2024-06-25_11h40.13.911,LearnStrategy,2023.2.3,Win32,60.24096386,,,,,,,,,,,8,06,5,7,,,,,,,,,,,,,,,,,,,,,,,,,,,,,
666e10f6dcf5bf60a08cb049,TCR,2024-06-25_11h40.13.911,LearnStrategy,2023.2.3,Win32,60.24096386,,,,,,,,,,,5,10,5,8,,,,,,,,,,,,,,,,,,,,,,,,,,,,,
666e10f6dcf5bf60a08cb049,TCR,2024-06-25_11h40.13.911,LearnStrategy,2023.2.3,Win32,60.24096386,,,,,,,,,,,8,03,6,1,,,,,,,,,,,,,,,,,,,,,,,,,,,,,
666e10f6dcf5bf60a08cb049,TCR,2024-06-25_11h40.13.911,LearnStrategy,2023.2.3,Win32,60.24096386,,,,,,,,,,,1,03,6,2,,,,,,,,,,,,,,,,,,,,,,,,,,,,,
666e10f6dcf5bf60a08cb049,TCR,2024-06-25_11h40.13.911,LearnStrategy,2023.2.3,Win32,60.24096386,,,,,,,,,,,6,08,6,3,,,,,,,,,,,,,,,,,,,,,,,,,,,,,
666e10f6dcf5bf60a08cb049,TCR,2024-06-25_11h40.13.911,LearnStrategy,2023.2.3,Win32,60.24096386,,,,,,,,,,,8,08,6,4,,,,,,,,,,,,,,,,,,,,,,,,,,,,,
666e10f6dcf5bf60a08cb049,TCR,2024-06-25_11h40.13.911,LearnStrategy,2023.2.3,Win32,60.24096386,,,,,,,,,,,2,08,6,5,,,,,,,,,,,,,,,,,,,,,,,,,,,,,
666e10f6dcf5bf60a08cb049,TCR,2024-06-25_11h40.13.911,LearnStrategy,2023.2.3,Win32,60.24096386,,,,,,,,,,,7,15,6,6,,,,,,,,,,,,,,,,,,,,,,,,,,,,,
666e10f6dcf5bf60a08cb049,TCR,2024-06-25_11h40.13.911,LearnStrategy,2023.2.3,Win32,60.24096386,,,,,,,,,,,7,16,6,7,,,,,,,,,,,,,,,,,,,,,,,,,,,,,
666e10f6dcf5bf60a08cb049,TCR,2024-06-25_11h40.13.911,LearnStrategy,2023.2.3,Win32,60.24096386,,,,,,,,,,,4,15,6,8,,,,,,,,,,,,,,,,,,,,,,,,,,,,,