participant,condition,date,expName,psychopyVersion,OS,frameRate,block,phase,trial,learn_mouse.x,learn_mouse.y,learn_mouse.leftButton,learn_mouse.midButton,learn_mouse.rightButton,learn_mouse.time,learn_mouse.clicked_name,cat,token,row,col,t_select,cat_mouse_l.x,cat_mouse_l.y,cat_mouse_l.leftButton,cat_mouse_l.midButton,cat_mouse_l.rightButton,cat_mouse_l.time,cat_mouse_l.clicked_name,resp,t_resp,corr,train_trials.thisRepN,train_trials.thisTrialN,train_trials.thisN,train_trials.thisIndex,train_trials.ran,cat_mouse_t.x,cat_mouse_t.y,cat_mouse_t.leftButton,cat_mouse_t.midButton,cat_mouse_t.rightButton,cat_mouse_t.time,cat_mouse_t.clicked_name,test_trials.thisRepN,test_trials.thisTrialN,test_trials.thisN,test_trials.thisIndex,test_trials.ran,Bonus
666e0c42ac414869ed22fbc5,SCN,2024-06-24_13h48.27.335,LearnStrategy,2023.2.3,Win32,3.36813742,,,,,,,,,,,,,,,,,,,,,,,,,,,,,,,,,,,,,,,,,,,
666e0c42ac414869ed22fbc5,SCN,2024-06-24_13h48.27.335,LearnStrategy,2023.2.3,Win32,3.36813742,1,1,1,-0.087239583,0.239583333,1,0,0,15.0872,Pegmatite_03,6,03,5,4,15.087,0.140625,-0.395833333,1,0,0,12.4332,Peridotite_rect,7,12.433,0,0,0,0,0,1,,,,,,,,,,,,,
666e0c42ac414869ed22fbc5,SCN,2024-06-24_13h48.27.335,LearnStrategy,2023.2.3,Win32,3.36813742,1,1,2,0.559895833,-0.109375,1,0,0,30.0171,Basalt_08,2,08,3,8,30.017,-0.1171875,-0.255208333,1,0,0,5.3026,Basalt_rect,2,5.303,1,1,0,1,0,1,,,,,,,,,,,,,
666e0c42ac414869ed22fbc5,SCN,2024-06-24_13h48.27.335,LearnStrategy,2023.2.3,Win32,3.36813742,1,1,3,-0.24609375,-0.104166667,1,0,0,4.4957,Pumice_02,8,02,3,3,4.496,0.33984375,-0.25390625,1,0,0,26.4443,Gabbro_rect,4,26.444,0,2,0,2,0,1,,,,,,,,,,,,,
666e0c42ac414869ed22fbc5,SCN,2024-06-24_13h48.27.335,LearnStrategy,2023.2.3,Win32,3.36813742,1,1,4,0.22265625,0.28125,1,0,0,11.3858,Pumice_08,8,08,5,6,11.386,0.140625,-0.23046875,1,0,0,4.0195,Diorite_rect,3,4.019,0,3,0,3,0,1,,,,,,,,,,,,,
666e0c42ac414869ed22fbc5,SCN,2024-06-24_13h48.27.335,LearnStrategy,2023.2.3,Win32,3.36813742,1,1,5,0.055989583,-0.092447917,1,0,0,8.1011,Obsidian_06,5,06,3,5,8.101,-0.459635417,-0.401041667,1,0,0,17.0071,Obsidian_rect,5,17.007,1,4,0,4,0,1,,,,,,,,,,,,,
666e0c42ac414869ed22fbc5,SCN,2024-06-24_13h48.27.335,LearnStrategy,2023.2.3,Win32,3.36813742,1,1,6,0.516927083,0.3984375,1,0,0,13.5001,Peridotite_16,7,16,6,8,13.5,0.108072917,-0.3984375,1,0,0,13.9554,Peridotite_rect,7,13.955,1,5,0,5,0,1,,,,,,,,,,,,,
666e0c42ac414869ed22fbc5,SCN,2024-06-24_13h48.27.335,LearnStrategy,2023.2.3,Win32,3.36813742,1,1,7,-0.248697917,-0.239583333,1,0,0,5.3243,Basalt_10,2,10,2,3,5.324,-0.147135417,-0.407552083,1,0,0,11.8214,Pegmatite_rect,6,11.821,0,6,0,6,0,1,,,,,,,,,,,,,
666e0c42ac414869ed22fbc5,SCN,2024-06-24_13h48.27.335,LearnStrategy,2023.2.3,Win32,3.36813742,1,1,8,0.217447917,-0.10546875,1,0,0,12.5377,Andesite_04,1,04,3,6,12.538,-0.372395833,-0.256510417,1,0,0,10.5313,Andesite_rect,1,10.531,1,7,0,7,0,1,,,,,,,,,,,,,
666e0c42ac414869ed22fbc5,SCN,2024-06-24_13h48.27.335,LearnStrategy,2023.2.3,Win32,3.36813742,1,1,9,0.37890625,-0.272135417,1,0,0,12.7316,Pegmatite_11,6,11,2,7,12.732,-0.41015625,-0.421875,1,0,0,3.5693,Obsidian_rect,5,3.569,0,8,0,8,0,1,,,,,,,,,,,,,
666e0c42ac414869ed22fbc5,SCN,2024-06-24_13h48.27.335,LearnStrategy,2023.2.3,Win32,3.36813742,1,1,10,-0.55078125,-0.268229167,1,0,0,8.6143,Pegmatite_06,6,06,2,1,8.614,-0.09375,-0.408854167,1,0,0,5.8201,Pegmatite_rect,6,5.82,1,9,0,9,0,1,,,,,,,,,,,,,
666e0c42ac414869ed22fbc5,SCN,2024-06-24_13h48.27.335,LearnStrategy,2023.2.3,Win32,3.36813742,1,1,11,0.380208333,-0.421875,1,0,0,15.7151,Diorite_16,3,16,1,7,15.715,0.134114583,-0.25390625,1,0,0,8.3528,Diorite_rect,3,8.353,1,10,0,10,0,1,,,,,,,,,,,,,
666e0c42ac414869ed22fbc5,SCN,2024-06-24_13h48.27.335,LearnStrategy,2023.2.3,Win32,3.36813742,1,1,12,-0.561197917,0.263020833,1,0,0,15.4797,Peridotite_06,7,06,5,1,15.48,0.110677083,-0.397135417,1,0,0,7.2338,Peridotite_rect,7,7.234,1,11,0,11,0,1,,,,,,,,,,,,,
666e0c42ac414869ed22fbc5,SCN,2024-06-24_13h48.27.335,LearnStrategy,2023.2.3,Win32,3.36813742,1,1,13,0.3671875,0.4140625,1,0,0,9.7746,Pegmatite_08,6,08,6,7,9.775,-0.404947917,-0.40625,1,0,0,2.6327,Obsidian_rect,5,2.633,0,12,0,12,0,1,,,,,,,,,,,,,
666e0c42ac414869ed22fbc5,SCN,2024-06-24_13h48.27.335,LearnStrategy,2023.2.3,Win32,3.36813742,1,1,14,0.221354167,-0.41015625,1,0,0,8.177,Basalt_09,2,09,1,6,8.177,0.341145833,-0.26953125,1,0,0,7.5173,Gabbro_rect,4,7.517,0,13,0,13,0,1,,,,,,,,,,,,,
666e0c42ac414869ed22fbc5,SCN,2024-06-24_13h48.27.335,LearnStrategy,2023.2.3,Win32,3.36813742,1,1,15,0.0625,-0.40625,1,0,0,6.8122,Gabbro_11,4,11,1,5,6.812,-0.171875,-0.240885417,1,0,0,9.8432,Basalt_rect,2,9.843,0,14,0,14,0,1,,,,,,,,,,,,,
666e0c42ac414869ed22fbc5,SCN,2024-06-24_13h48.27.335,LearnStrategy,2023.2.3,Win32,3.36813742,1,1,16,0.05859375,0.239583333,1,0,0,10.6268,Basalt_11,2,11,5,5,10.627,0.419270833,-0.40234375,1,0,0,5.7818,Pumice_rect,8,5.782,0,15,0,15,0,1,,,,,,,,,,,,,
666e0c42ac414869ed22fbc5,SCN,2024-06-24_13h48.27.335,LearnStrategy,2023.2.3,Win32,3.36813742,1,2,1,,,,,,,,7,12,,,,,,,,,,,7,23.219,1,,,,,,0.131510417,-0.390625,1,0,0,23.2188,Peridotite_rect,0,0,0,0,1,
666e0c42ac414869ed22fbc5,SCN,2024-06-24_13h48.27.335,LearnStrategy,2023.2.3,Win32,3.36813742,1,2,2,,,,,,,,2,06,,,,,,,,,,,2,124.269,1,,,,,,-0.177083333,-0.244791667,1,0,0,124.2686,Basalt_rect,1,0,1,0,1,
666e0c42ac414869ed22fbc5,SCN,2024-06-24_13h48.27.335,LearnStrategy,2023.2.3,Win32,3.36813742,1,2,3,,,,,,,,1,11,,,,,,,,,,,1,58.179,1,,,,,,-0.41796875,-0.26171875,1,0,0,58.1793,Andesite_rect,2,0,2,0,1,
666e0c42ac414869ed22fbc5,SCN,2024-06-24_13h48.27.335,LearnStrategy,2023.2.3,Win32,3.36813742,1,2,4,,,,,,,,7,10,,,,,,,,,,,7,24.117,1,,,,,,0.161458333,-0.39453125,1,0,0,24.117,Peridotite_rect,3,0,3,0,1,
666e0c42ac414869ed22fbc5,SCN,2024-06-24_13h48.27.335,LearnStrategy,2023.2.3,Win32,3.36813742,1,2,5,,,,,,,,3,14,,,,,,,,,,,3,2.8,1,,,,,,0.092447917,-0.248697917,1,0,0,2.8,Diorite_rect,4,0,4,0,1,
666e0c42ac414869ed22fbc5,SCN,2024-06-24_13h48.27.335,LearnStrategy,2023.2.3,Win32,3.36813742,1,2,6,,,,,,,,8,13,,,,,,,,,,,8,43.665,1,,,,,,0.391927083,-0.3984375,1,0,0,43.6647,Pumice_rect,5,0,5,0,1,
666e0c42ac414869ed22fbc5,SCN,2024-06-24_13h48.27.335,LearnStrategy,2023.2.3,Win32,3.36813742,1,2,7,,,,,,,,5,10,,,,,,,,,,,5,3.158,1,,,,,,-0.416666667,-0.39453125,1,0,0,3.1579,Obsidian_rect,6,0,6,0,1,
666e0c42ac414869ed22fbc5,SCN,2024-06-24_13h48.27.335,LearnStrategy,2023.2.3,Win32,3.36813742,1,2,8,,,,,,,,6,09,,,,,,,,,,,6,3.859,1,,,,,,-0.1953125,-0.40234375,1,0,0,3.8591,Pegmatite_rect,7,0,7,0,1,
666e0c42ac414869ed22fbc5,SCN,2024-06-24_13h48.27.335,LearnStrategy,2023.2.3,Win32,3.36813742,1,2,9,,,,,,,,8,05,,,,,,,,,,,8,6.485,1,,,,,,0.411458333,-0.395833333,1,0,0,6.4848,Pumice_rect,8,0,8,0,1,
666e0c42ac414869ed22fbc5,SCN,2024-06-24_13h48.27.335,LearnStrategy,2023.2.3,Win32,3.36813742,1,2,10,,,,,,,,5,16,,,,,,,,,,,5,2.22,1,,,,,,-0.356770833,-0.40625,1,0,0,2.2196,Obsidian_rect,9,0,9,0,1,
666e0c42ac414869ed22fbc5,SCN,2024-06-24_13h48.27.335,LearnStrategy,2023.2.3,Win32,3.36813742,1,2,11,,,,,,,,3,08,,,,,,,,,,,3,11.051,1,,,,,,0.09765625,-0.2578125,1,0,0,11.0506,Diorite_rect,10,0,10,0,1,
666e0c42ac414869ed22fbc5,SCN,2024-06-24_13h48.27.335,LearnStrategy,2023.2.3,Win32,3.36813742,1,2,12,,,,,,,,4,05,,,,,,,,,,,4,19.338,1,,,,,,0.337239583,-0.247395833,1,0,0,19.3377,Gabbro_rect,11,0,11,0,1,
666e0c42ac414869ed22fbc5,SCN,2024-06-24_13h48.27.335,LearnStrategy,2023.2.3,Win32,3.36813742,1,2,13,,,,,,,,6,13,,,,,,,,,,,6,4.121,1,,,,,,-0.141927083,-0.408854167,1,0,0,4.1208,Pegmatite_rect,12,0,12,0,1,
666e0c42ac414869ed22fbc5,SCN,2024-06-24_13h48.27.335,LearnStrategy,2023.2.3,Win32,3.36813742,1,2,14,,,,,,,,2,05,,,,,,,,,,,2,5.519,1,,,,,,-0.110677083,-0.240885417,1,0,0,5.5189,Basalt_rect,13,0,13,0,1,
666e0c42ac414869ed22fbc5,SCN,2024-06-24_13h48.27.335,LearnStrategy,2023.2.3,Win32,3.36813742,1,2,15,,,,,,,,1,10,,,,,,,,,,,2,15.912,0,,,,,,-0.1171875,-0.2421875,1,0,0,15.9124,Basalt_rect,14,0,14,0,1,
666e0c42ac414869ed22fbc5,SCN,2024-06-24_13h48.27.335,LearnStrategy,2023.2.3,Win32,3.36813742,1,2,16,,,,,,,,4,10,,,,,,,,,,,2,4.563,0,,,,,,-0.122395833,-0.229166667,1,0,0,4.5626,Basalt_rect,15,0,15,0,1,
666e0c42ac414869ed22fbc5,SCN,2024-06-24_13h48.27.335,LearnStrategy,2023.2.3,Win32,3.36813742,2,1,1,-0.100260417,-0.412760417,1,0,0,10.53,Pegmatite_10,6,10,1,4,10.53,-0.131510417,-0.404947917,1,0,0,5.7932,Pegmatite_rect,6,5.793,1,0,0,0,0,1,,,,,,,,,,,,,
666e0c42ac414869ed22fbc5,SCN,2024-06-24_13h48.27.335,LearnStrategy,2023.2.3,Win32,3.36813742,2,1,2,-0.555989583,0.100260417,1,0,0,9.0971,Peridotite_08,7,08,4,1,9.097,0.15234375,-0.37890625,1,0,0,3.8731,Peridotite_rect,7,3.873,1,1,0,1,0,1,,,,,,,,,,,,,
666e0c42ac414869ed22fbc5,SCN,2024-06-24_13h48.27.335,LearnStrategy,2023.2.3,Win32,3.36813742,2,1,3,0.231770833,-0.25390625,1,0,0,15.8842,Gabbro_08,4,08,2,6,15.884,0.395833333,-0.243489583,1,0,0,5.3642,Gabbro_rect,4,5.364,1,2,0,2,0,1,,,,,,,,,,,,,
666e0c42ac414869ed22fbc5,SCN,2024-06-24_13h48.27.335,LearnStrategy,2023.2.3,Win32,3.36813742,2,1,4,-0.24609375,0.091145833,1,0,0,2.0602,Gabbro_01,4,01,4,3,2.06,0.057291667,-0.248697917,1,0,0,2.7031,Diorite_rect,3,2.703,0,3,0,3,0,1,,,,,,,,,,,,,
666e0c42ac414869ed22fbc5,SCN,2024-06-24_13h48.27.335,LearnStrategy,2023.2.3,Win32,3.36813742,2,1,5,0.572916667,0.270833333,1,0,0,4.9056,Basalt_12,2,12,5,8,4.906,0.360677083,-0.39453125,1,0,0,5.293,Pumice_rect,8,5.293,0,4,0,4,0,1,,,,,,,,,,,,,
666e0c42ac414869ed22fbc5,SCN,2024-06-24_13h48.27.335,LearnStrategy,2023.2.3,Win32,3.36813742,2,1,6,-0.41015625,-0.25390625,1,0,0,9.7303,Diorite_15,3,15,2,2,9.73,-0.40234375,-0.23046875,1,0,0,5.8485,Andesite_rect,1,5.849,0,5,0,5,0,1,,,,,,,,,,,,,
666e0c42ac414869ed22fbc5,SCN,2024-06-24_13h48.27.335,LearnStrategy,2023.2.3,Win32,3.36813742,2,1,7,-0.540364583,-0.088541667,1,0,0,10.7534,Pegmatite_15,6,15,3,1,10.753,-0.192708333,-0.384114583,1,0,0,1.7726,Pegmatite_rect,6,1.773,1,6,0,6,0,1,,,,,,,,,,,,,
666e0c42ac414869ed22fbc5,SCN,2024-06-24_13h48.27.335,LearnStrategy,2023.2.3,Win32,3.36813742,2,1,8,0.384114583,0.251302083,1,0,0,7.8565,Peridotite_02,7,02,5,7,7.857,0.084635417,-0.4140625,1,0,0,1.8682,Peridotite_rect,7,1.868,1,7,0,7,0,1,,,,,,,,,,,,,
666e0c42ac414869ed22fbc5,SCN,2024-06-24_13h48.27.335,LearnStrategy,2023.2.3,Win32,3.36813742,2,1,9,-0.24609375,0.104166667,1,0,0,2.9188,Gabbro_01,4,01,4,3,2.919,0.361979167,-0.236979167,1,0,0,3.9951,Gabbro_rect,4,3.995,1,8,0,8,0,1,,,,,,,,,,,,,
666e0c42ac414869ed22fbc5,SCN,2024-06-24_13h48.27.335,LearnStrategy,2023.2.3,Win32,3.36813742,2,1,10,-0.091145833,0.102864583,1,0,0,1.6378,Gabbro_13,4,13,4,4,1.638,0.100260417,-0.25390625,1,0,0,4.4632,Diorite_rect,3,4.463,0,9,0,9,0,1,,,,,,,,,,,,,
666e0c42ac414869ed22fbc5,SCN,2024-06-24_13h48.27.335,LearnStrategy,2023.2.3,Win32,3.36813742,2,1,11,-0.2421875,-0.109375,1,0,0,4.19,Pumice_02,8,02,3,3,4.19,0.388020833,-0.380208333,1,0,0,4.3678,Pumice_rect,8,4.368,1,10,0,10,0,1,,,,,,,,,,,,,
666e0c42ac414869ed22fbc5,SCN,2024-06-24_13h48.27.335,LearnStrategy,2023.2.3,Win32,3.36813742,2,1,12,-0.248697917,-0.41015625,1,0,0,3.0783,Obsidian_14,5,14,1,3,3.078,-0.352864583,-0.40234375,1,0,0,1.7237,Obsidian_rect,5,1.724,1,11,0,11,0,1,,,,,,,,,,,,,
666e0c42ac414869ed22fbc5,SCN,2024-06-24_13h48.27.335,LearnStrategy,2023.2.3,Win32,3.36813742,2,1,13,0.071614583,0.24609375,1,0,0,2.9915,Basalt_11,2,11,5,5,2.992,-0.15625,-0.247395833,1,0,0,2.817,Basalt_rect,2,2.817,1,12,0,12,0,1,,,,,,,,,,,,,
666e0c42ac414869ed22fbc5,SCN,2024-06-24_13h48.27.335,LearnStrategy,2023.2.3,Win32,3.36813742,2,1,14,-0.52734375,0.40625,1,0,0,2.5961,Gabbro_15,4,15,6,1,2.596,0.087239583,-0.23828125,1,0,0,4.9681,Diorite_rect,3,4.968,0,13,0,13,0,1,,,,,,,,,,,,,
666e0c42ac414869ed22fbc5,SCN,2024-06-24_13h48.27.335,LearnStrategy,2023.2.3,Win32,3.36813742,2,1,15,-0.061197917,-0.256510417,1,0,0,4.8046,Gabbro_12,4,12,2,4,4.805,0.3984375,-0.240885417,1,0,0,2.1729,Gabbro_rect,4,2.173,1,14,0,14,0,1,,,,,,,,,,,,,
666e0c42ac414869ed22fbc5,SCN,2024-06-24_13h48.27.335,LearnStrategy,2023.2.3,Win32,3.36813742,2,1,16,-0.518229167,0.078125,1,0,0,7.508,Peridotite_08,7,08,4,1,7.508,0.072916667,-0.39453125,1,0,0,1.7637,Peridotite_rect,7,1.764,1,15,0,15,0,1,,,,,,,,,,,,,
666e0c42ac414869ed22fbc5,SCN,2024-06-24_13h48.27.335,LearnStrategy,2023.2.3,Win32,3.36813742,2,2,1,,,,,,,,3,11,,,,,,,,,,,3,9.973,1,,,,,,0.130208333,-0.252604167,1,0,0,9.9725,Diorite_rect,0,0,0,0,1,
666e0c42ac414869ed22fbc5,SCN,2024-06-24_13h48.27.335,LearnStrategy,2023.2.3,Win32,3.36813742,2,2,2,,,,,,,,3,09,,,,,,,,,,,3,5.458,1,,,,,,0.109375,-0.24609375,1,0,0,5.4585,Diorite_rect,1,0,1,0,1,
666e0c42ac414869ed22fbc5,SCN,2024-06-24_13h48.27.335,LearnStrategy,2023.2.3,Win32,3.36813742,2,2,3,,,,,,,,1,07,,,,,,,,,,,3,2.222,0,,,,,,0.088541667,-0.252604167,1,0,0,2.2216,Diorite_rect,2,0,2,0,1,
666e0c42ac414869ed22fbc5,SCN,2024-06-24_13h48.27.335,LearnStrategy,2023.2.3,Win32,3.36813742,2,2,4,,,,,,,,8,06,,,,,,,,,,,8,6.264,1,,,,,,0.325520833,-0.395833333,1,0,0,6.264,Pumice_rect,3,0,3,0,1,
666e0c42ac414869ed22fbc5,SCN,2024-06-24_13h48.27.335,LearnStrategy,2023.2.3,Win32,3.36813742,2,2,5,,,,,,,,5,02,,,,,,,,,,,5,9.188,1,,,,,,-0.407552083,-0.389322917,1,0,0,9.1885,Obsidian_rect,4,0,4,0,1,
666e0c42ac414869ed22fbc5,SCN,2024-06-24_13h48.27.335,LearnStrategy,2023.2.3,Win32,3.36813742,2,2,6,,,,,,,,2,01,,,,,,,,,,,2,7.329,1,,,,,,-0.203125,-0.266927083,1,0,0,7.329,Basalt_rect,5,0,5,0,1,
666e0c42ac414869ed22fbc5,SCN,2024-06-24_13h48.27.335,LearnStrategy,2023.2.3,Win32,3.36813742,2,2,7,,,,,,,,4,16,,,,,,,,,,,1,17.34,0,,,,,,-0.4453125,-0.266927083,1,0,0,17.3402,Andesite_rect,6,0,6,0,1,
666e0c42ac414869ed22fbc5,SCN,2024-06-24_13h48.27.335,LearnStrategy,2023.2.3,Win32,3.36813742,2,2,8,,,,,,,,1,03,,,,,,,,,,,3,2.822,0,,,,,,0.055989583,-0.252604167,1,0,0,2.8215,Diorite_rect,7,0,7,0,1,
666e0c42ac414869ed22fbc5,SCN,2024-06-24_13h48.27.335,LearnStrategy,2023.2.3,Win32,3.36813742,2,2,9,,,,,,,,8,15,,,,,,,,,,,8,5.974,1,,,,,,0.35546875,-0.390625,1,0,0,5.9739,Pumice_rect,8,0,8,0,1,
666e0c42ac414869ed22fbc5,SCN,2024-06-24_13h48.27.335,LearnStrategy,2023.2.3,Win32,3.36813742,2,2,10,,,,,,,,7,04,,,,,,,,,,,6,2.677,0,,,,,,-0.1484375,-0.40234375,1,0,0,2.6768,Pegmatite_rect,9,0,9,0,1,
666e0c42ac414869ed22fbc5,SCN,2024-06-24_13h48.27.335,LearnStrategy,2023.2.3,Win32,3.36813742,2,2,11,,,,,,,,6,05,,,,,,,,,,,6,2.601,1,,,,,,-0.147135417,-0.390625,1,0,0,2.6011,Pegmatite_rect,10,0,10,0,1,
666e0c42ac414869ed22fbc5,SCN,2024-06-24_13h48.27.335,LearnStrategy,2023.2.3,Win32,3.36813742,2,2,12,,,,,,,,5,11,,,,,,,,,,,5,2.295,1,,,,,,-0.376302083,-0.416666667,1,0,0,2.2948,Obsidian_rect,11,0,11,0,1,
666e0c42ac414869ed22fbc5,SCN,2024-06-24_13h48.27.335,LearnStrategy,2023.2.3,Win32,3.36813742,2,2,13,,,,,,,,7,15,,,,,,,,,,,7,2.262,1,,,,,,0.14453125,-0.411458333,1,0,0,2.2616,Peridotite_rect,12,0,12,0,1,
666e0c42ac414869ed22fbc5,SCN,2024-06-24_13h48.27.335,LearnStrategy,2023.2.3,Win32,3.36813742,2,2,14,,,,,,,,4,14,,,,,,,,,,,1,3.096,0,,,,,,-0.393229167,-0.243489583,1,0,0,3.0956,Andesite_rect,13,0,13,0,1,
666e0c42ac414869ed22fbc5,SCN,2024-06-24_13h48.27.335,LearnStrategy,2023.2.3,Win32,3.36813742,2,2,15,,,,,,,,6,12,,,,,,,,,,,3,2.254,0,,,,,,0.115885417,-0.24609375,1,0,0,2.2544,Diorite_rect,14,0,14,0,1,
666e0c42ac414869ed22fbc5,SCN,2024-06-24_13h48.27.335,LearnStrategy,2023.2.3,Win32,3.36813742,2,2,16,,,,,,,,2,02,,,,,,,,,,,2,1.778,1,,,,,,-0.131510417,-0.25,1,0,0,1.7776,Basalt_rect,15,0,15,0,1,
666e0c42ac414869ed22fbc5,SCN,2024-06-24_13h48.27.335,LearnStrategy,2023.2.3,Win32,3.36813742,3,1,1,0.38671875,-0.109375,1,0,0,11.0564,Peridotite_05,7,05,3,7,11.056,0.075520833,-0.419270833,1,0,0,3.0003,Peridotite_rect,7,3,1,0,0,0,0,1,,,,,,,,,,,,,
666e0c42ac414869ed22fbc5,SCN,2024-06-24_13h48.27.335,LearnStrategy,2023.2.3,Win32,3.36813742,3,1,2,0.395833333,-0.135416667,1,0,0,3.4343,Peridotite_05,7,05,3,7,3.434,0.130208333,-0.408854167,1,0,0,41.4369,Peridotite_rect,7,41.437,1,1,0,1,0,1,,,,,,,,,,,,,
666e0c42ac414869ed22fbc5,SCN,2024-06-24_13h48.27.335,LearnStrategy,2023.2.3,Win32,3.36813742,3,1,3,-0.361979167,0.393229167,1,0,0,9.2637,Andesite_16,1,16,6,2,9.264,-0.393229167,-0.234375,1,0,0,4.9192,Andesite_rect,1,4.919,1,2,0,2,0,1,,,,,,,,,,,,,
666e0c42ac414869ed22fbc5,SCN,2024-06-24_13h48.27.335,LearnStrategy,2023.2.3,Win32,3.36813742,3,1,4,-0.079427083,-0.0859375,1,0,0,23.2594,Andesite_14,1,14,3,4,23.259,-0.395833333,-0.244791667,1,0,0,43.2474,Andesite_rect,1,43.247,1,3,0,3,0,1,,,,,,,,,,,,,
666e0c42ac414869ed22fbc5,SCN,2024-06-24_13h48.27.335,LearnStrategy,2023.2.3,Win32,3.36813742,3,1,5,0.080729167,0.096354167,1,0,0,6.9901,Pumice_03,8,03,4,5,6.99,0.352864583,-0.395833333,1,0,0,4.4542,Pumice_rect,8,4.454,1,4,0,4,0,1,,,,,,,,,,,,,
666e0c42ac414869ed22fbc5,SCN,2024-06-24_13h48.27.335,LearnStrategy,2023.2.3,Win32,3.36813742,3,1,6,-0.240885417,0.229166667,1,0,0,6.1814,Basalt_16,2,16,5,3,6.181,-0.126302083,-0.252604167,1,0,0,5.6482,Basalt_rect,2,5.648,1,5,0,5,0,1,,,,,,,,,,,,,
666e0c42ac414869ed22fbc5,SCN,2024-06-24_13h48.27.335,LearnStrategy,2023.2.3,Win32,3.36813742,3,1,7,-0.41015625,-0.272135417,1,0,0,3.4459,Diorite_15,3,15,2,2,3.446,0.05078125,-0.259114583,1,0,0,3.5834,Diorite_rect,3,3.583,1,6,0,6,0,1,,,,,,,,,,,,,
666e0c42ac414869ed22fbc5,SCN,2024-06-24_13h48.27.335,LearnStrategy,2023.2.3,Win32,3.36813742,3,1,8,-0.544270833,-0.39453125,1,0,0,73.8353,Pumice_14,8,14,1,1,73.835,0.365885417,-0.384114583,1,0,0,24.8161,Pumice_rect,8,24.816,1,7,0,7,0,1,,,,,,,,,,,,,
666e0c42ac414869ed22fbc5,SCN,2024-06-24_13h48.27.335,LearnStrategy,2023.2.3,Win32,3.36813742,3,1,9,-0.208333333,0.08984375,1,0,0,1.6685,Gabbro_01,4,01,4,3,1.668,-0.123697917,-0.40625,1,0,0,45.8978,Pegmatite_rect,6,45.898,0,8,0,8,0,1,,,,,,,,,,,,,
666e0c42ac414869ed22fbc5,SCN,2024-06-24_13h48.27.335,LearnStrategy,2023.2.3,Win32,3.36813742,3,1,10,0.23046875,-0.415364583,1,0,0,11.899,Basalt_09,2,09,1,6,11.899,-0.138020833,-0.2421875,1,0,0,37.3771,Basalt_rect,2,37.377,1,9,0,9,0,1,,,,,,,,,,,,,
666e0c42ac414869ed22fbc5,SCN,2024-06-24_13h48.27.335,LearnStrategy,2023.2.3,Win32,3.36813742,3,1,11,0.216145833,0.08984375,1,0,0,3.7309,Andesite_09,1,09,4,6,3.731,-0.391927083,-0.266927083,1,0,0,2.7166,Andesite_rect,1,2.717,1,10,0,10,0,1,,,,,,,,,,,,,
666e0c42ac414869ed22fbc5,SCN,2024-06-24_13h48.27.335,LearnStrategy,2023.2.3,Win32,3.36813742,3,1,12,0.5703125,-0.264322917,1,0,0,2.1336,Obsidian_08,5,08,2,8,2.134,-0.432291667,-0.403645833,1,0,0,1.3286,Obsidian_rect,5,1.329,1,11,0,11,0,1,,,,,,,,,,,,,
666e0c42ac414869ed22fbc5,SCN,2024-06-24_13h48.27.335,LearnStrategy,2023.2.3,Win32,3.36813742,3,1,13,0.235677083,0.235677083,1,0,0,2.9543,Pumice_08,8,08,5,6,2.954,0.350260417,-0.38671875,1,0,0,1.786,Pumice_rect,8,1.786,1,12,0,12,0,1,,,,,,,,,,,,,
666e0c42ac414869ed22fbc5,SCN,2024-06-24_13h48.27.335,LearnStrategy,2023.2.3,Win32,3.36813742,3,1,14,-0.546875,0.247395833,1,0,0,1.7005,Peridotite_06,7,06,5,1,1.7,0.09765625,-0.388020833,1,0,0,1.7868,Peridotite_rect,7,1.787,1,13,0,13,0,1,,,,,,,,,,,,,
666e0c42ac414869ed22fbc5,SCN,2024-06-24_13h48.27.335,LearnStrategy,2023.2.3,Win32,3.36813742,3,1,15,-0.57421875,-0.421875,1,0,0,1.7457,Pumice_14,8,14,1,1,1.746,0.34765625,-0.381510417,1,0,0,2.2569,Pumice_rect,8,2.257,1,14,0,14,0,1,,,,,,,,,,,,,
666e0c42ac414869ed22fbc5,SCN,2024-06-24_13h48.27.335,LearnStrategy,2023.2.3,Win32,3.36813742,3,1,16,0.552083333,-0.08984375,1,0,0,1.6978,Basalt_08,2,08,3,8,1.698,-0.118489583,-0.252604167,1,0,0,4.236,Basalt_rect,2,4.236,1,15,0,15,0,1,,,,,,,,,,,,,
666e0c42ac414869ed22fbc5,SCN,2024-06-24_13h48.27.335,LearnStrategy,2023.2.3,Win32,3.36813742,3,2,1,,,,,,,,7,13,,,,,,,,,,,7,10.126,1,,,,,,0.118489583,-0.419270833,1,0,0,10.1262,Peridotite_rect,0,0,0,0,1,
666e0c42ac414869ed22fbc5,SCN,2024-06-24_13h48.27.335,LearnStrategy,2023.2.3,Win32,3.36813742,3,2,2,,,,,,,,1,01,,,,,,,,,,,3,3.163,0,,,,,,0.143229167,-0.247395833,1,0,0,3.1626,Diorite_rect,1,0,1,0,1,
666e0c42ac414869ed22fbc5,SCN,2024-06-24_13h48.27.335,LearnStrategy,2023.2.3,Win32,3.36813742,3,2,3,,,,,,,,2,14,,,,,,,,,,,8,3.16,0,,,,,,0.375,-0.399739583,1,0,0,3.1596,Pumice_rect,2,0,2,0,1,
666e0c42ac414869ed22fbc5,SCN,2024-06-24_13h48.27.335,LearnStrategy,2023.2.3,Win32,3.36813742,3,2,4,,,,,,,,6,16,,,,,,,,,,,6,10.35,1,,,,,,-0.173177083,-0.40234375,1,0,0,10.3502,Pegmatite_rect,3,0,3,0,1,
666e0c42ac414869ed22fbc5,SCN,2024-06-24_13h48.27.335,LearnStrategy,2023.2.3,Win32,3.36813742,3,2,5,,,,,,,,8,16,,,,,,,,,,,8,1.411,1,,,,,,0.37890625,-0.401041667,1,0,0,1.411,Pumice_rect,4,0,4,0,1,
666e0c42ac414869ed22fbc5,SCN,2024-06-24_13h48.27.335,LearnStrategy,2023.2.3,Win32,3.36813742,3,2,6,,,,,,,,6,07,,,,,,,,,,,6,2.296,1,,,,,,-0.119791667,-0.404947917,1,0,0,2.296,Pegmatite_rect,5,0,5,0,1,
666e0c42ac414869ed22fbc5,SCN,2024-06-24_13h48.27.335,LearnStrategy,2023.2.3,Win32,3.36813742,3,2,7,,,,,,,,4,03,,,,,,,,,,,3,5.907,0,,,,,,0.1484375,-0.264322917,1,0,0,5.9068,Diorite_rect,6,0,6,0,1,
666e0c42ac414869ed22fbc5,SCN,2024-06-24_13h48.27.335,LearnStrategy,2023.2.3,Win32,3.36813742,3,2,8,,,,,,,,5,12,,,,,,,,,,,5,3.137,1,,,,,,-0.424479167,-0.411458333,1,0,0,3.1365,Obsidian_rect,7,0,7,0,1,
666e0c42ac414869ed22fbc5,SCN,2024-06-24_13h48.27.335,LearnStrategy,2023.2.3,Win32,3.36813742,3,2,9,,,,,,,,1,06,,,,,,,,,,,1,4.829,1,,,,,,-0.416666667,-0.247395833,1,0,0,4.8288,Andesite_rect,8,0,8,0,1,
666e0c42ac414869ed22fbc5,SCN,2024-06-24_13h48.27.335,LearnStrategy,2023.2.3,Win32,3.36813742,3,2,10,,,,,,,,3,06,,,,,,,,,,,4,3.62,0,,,,,,0.352864583,-0.248697917,1,0,0,3.6197,Gabbro_rect,9,0,9,0,1,
666e0c42ac414869ed22fbc5,SCN,2024-06-24_13h48.27.335,LearnStrategy,2023.2.3,Win32,3.36813742,3,2,11,,,,,,,,2,04,,,,,,,,,,,2,2.709,1,,,,,,-0.174479167,-0.256510417,1,0,0,2.709,Basalt_rect,10,0,10,0,1,
666e0c42ac414869ed22fbc5,SCN,2024-06-24_13h48.27.335,LearnStrategy,2023.2.3,Win32,3.36813742,3,2,12,,,,,,,,7,14,,,,,,,,,,,7,3.576,1,,,,,,0.071614583,-0.390625,1,0,0,3.5761,Peridotite_rect,11,0,11,0,1,
666e0c42ac414869ed22fbc5,SCN,2024-06-24_13h48.27.335,LearnStrategy,2023.2.3,Win32,3.36813742,3,2,13,,,,,,,,5,05,,,,,,,,,,,5,4.911,1,,,,,,-0.385416667,-0.411458333,1,0,0,4.9113,Obsidian_rect,12,0,12,0,1,
666e0c42ac414869ed22fbc5,SCN,2024-06-24_13h48.27.335,LearnStrategy,2023.2.3,Win32,3.36813742,3,2,14,,,,,,,,3,02,,,,,,,,,,,3,4.943,1,,,,,,0.10546875,-0.247395833,1,0,0,4.9429,Diorite_rect,13,0,13,0,1,
666e0c42ac414869ed22fbc5,SCN,2024-06-24_13h48.27.335,LearnStrategy,2023.2.3,Win32,3.36813742,3,2,15,,,,,,,,8,09,,,,,,,,,,,8,3.1,1,,,,,,0.407552083,-0.391927083,1,0,0,3.0997,Pumice_rect,14,0,14,0,1,
666e0c42ac414869ed22fbc5,SCN,2024-06-24_13h48.27.335,LearnStrategy,2023.2.3,Win32,3.36813742,3,2,16,,,,,,,,4,09,,,,,,,,,,,4,7.863,1,,,,,,0.391927083,-0.2421875,1,0,0,7.8628,Gabbro_rect,15,0,15,0,1,
666e0c42ac414869ed22fbc5,SCN,2024-06-24_13h48.27.335,LearnStrategy,2023.2.3,Win32,3.36813742,4,1,1,-0.255208333,0.296875,1,0,0,2.1214,Basalt_16,2,16,5,3,2.121,-0.1015625,-0.239583333,1,0,0,2.261,Basalt_rect,2,2.261,1,0,0,0,0,1,,,,,,,,,,,,,
666e0c42ac414869ed22fbc5,SCN,2024-06-24_13h48.27.335,LearnStrategy,2023.2.3,Win32,3.36813742,4,1,2,-0.234375,-0.10546875,1,0,0,1.7071,Pumice_02,8,02,3,3,1.707,0.37890625,-0.416666667,1,0,0,2.181,Pumice_rect,8,2.181,1,1,0,1,0,1,,,,,,,,,,,,,
666e0c42ac414869ed22fbc5,SCN,2024-06-24_13h48.27.335,LearnStrategy,2023.2.3,Win32,3.36813742,4,1,3,0.399739583,0.26171875,1,0,0,4.6766,Peridotite_02,7,02,5,7,4.677,0.119791667,-0.391927083,1,0,0,2.6839,Peridotite_rect,7,2.684,1,2,0,2,0,1,,,,,,,,,,,,,
666e0c42ac414869ed22fbc5,SCN,2024-06-24_13h48.27.335,LearnStrategy,2023.2.3,Win32,3.36813742,4,1,4,-0.247395833,0.104166667,1,0,0,1.6821,Gabbro_01,4,01,4,3,1.682,0.473958333,-0.25390625,1,0,0,7.1625,Gabbro_rect,4,7.162,1,3,0,3,0,1,,,,,,,,,,,,,
666e0c42ac414869ed22fbc5,SCN,2024-06-24_13h48.27.335,LearnStrategy,2023.2.3,Win32,3.36813742,4,1,5,-0.368489583,-0.08984375,1,0,0,2.1135,Pumice_10,8,10,3,2,2.113,0.337239583,-0.390625,1,0,0,3.1707,Pumice_rect,8,3.171,1,4,0,4,0,1,,,,,,,,,,,,,
666e0c42ac414869ed22fbc5,SCN,2024-06-24_13h48.27.335,LearnStrategy,2023.2.3,Win32,3.36813742,4,1,6,-0.260416667,-0.104166667,1,0,0,2.1357,Pumice_02,8,02,3,3,2.136,0.376302083,-0.395833333,1,0,0,6.4341,Pumice_rect,8,6.434,1,5,0,5,0,1,,,,,,,,,,,,,
666e0c42ac414869ed22fbc5,SCN,2024-06-24_13h48.27.335,LearnStrategy,2023.2.3,Win32,3.36813742,4,1,7,-0.063802083,-0.0859375,1,0,0,2.0928,Andesite_14,1,14,3,4,2.093,-0.35546875,-0.2421875,1,0,0,3.6789,Andesite_rect,1,3.679,1,6,0,6,0,1,,,,,,,,,,,,,
666e0c42ac414869ed22fbc5,SCN,2024-06-24_13h48.27.335,LearnStrategy,2023.2.3,Win32,3.36813742,4,1,8,0.07421875,-0.106770833,1,0,0,2.0879,Obsidian_06,5,06,3,5,2.088,-0.40625,-0.41015625,1,0,0,6.086,Obsidian_rect,5,6.086,1,7,0,7,0,1,,,,,,,,,,,,,
666e0c42ac414869ed22fbc5,SCN,2024-06-24_13h48.27.335,LearnStrategy,2023.2.3,Win32,3.36813742,4,1,9,0.213541667,-0.122395833,1,0,0,1.2664,Andesite_04,1,04,3,6,1.266,-0.3984375,-0.265625,1,0,0,1.8061,Andesite_rect,1,1.806,1,8,0,8,0,1,,,,,,,,,,,,,
666e0c42ac414869ed22fbc5,SCN,2024-06-24_13h48.27.335,LearnStrategy,2023.2.3,Win32,3.36813742,4,1,10,0.390625,-0.109375,1,0,0,5.8413,Peridotite_05,7,05,3,7,5.841,0.151041667,-0.380208333,1,0,0,2.6345,Peridotite_rect,7,2.634,1,9,0,9,0,1,,,,,,,,,,,,,
666e0c42ac414869ed22fbc5,SCN,2024-06-24_13h48.27.335,LearnStrategy,2023.2.3,Win32,3.36813742,4,1,11,0.533854167,-0.100260417,1,0,0,2.1132,Basalt_08,2,08,3,8,2.113,-0.197916667,-0.266927083,1,0,0,1.7442,Basalt_rect,2,1.744,1,10,0,10,0,1,,,,,,,,,,,,,
666e0c42ac414869ed22fbc5,SCN,2024-06-24_13h48.27.335,LearnStrategy,2023.2.3,Win32,3.36813742,4,1,12,-0.528645833,-0.2578125,1,0,0,1.68,Pegmatite_06,6,06,2,1,1.68,-0.130208333,-0.408854167,1,0,0,3.1879,Pegmatite_rect,6,3.188,1,11,0,11,0,1,,,,,,,,,,,,,
666e0c42ac414869ed22fbc5,SCN,2024-06-24_13h48.27.335,LearnStrategy,2023.2.3,Win32,3.36813742,4,1,13,-0.3828125,-0.251302083,1,0,0,1.6864,Diorite_15,3,15,2,2,1.686,0.170572917,-0.252604167,1,0,0,1.824,Diorite_rect,3,1.824,1,12,0,12,0,1,,,,,,,,,,,,,
666e0c42ac414869ed22fbc5,SCN,2024-06-24_13h48.27.335,LearnStrategy,2023.2.3,Win32,3.36813742,4,1,14,-0.223958333,-0.272135417,1,0,0,2.188,Basalt_10,2,10,2,3,2.188,-0.135416667,-0.247395833,1,0,0,3.9466,Basalt_rect,2,3.947,1,13,0,13,0,1,,,,,,,,,,,,,
666e0c42ac414869ed22fbc5,SCN,2024-06-24_13h48.27.335,LearnStrategy,2023.2.3,Win32,3.36813742,4,1,15,-0.102864583,-0.25390625,1,0,0,1.3008,Gabbro_12,4,12,2,4,1.301,0.404947917,-0.260416667,1,0,0,2.2117,Gabbro_rect,4,2.212,1,14,0,14,0,1,,,,,,,,,,,,,
666e0c42ac414869ed22fbc5,SCN,2024-06-24_13h48.27.335,LearnStrategy,2023.2.3,Win32,3.36813742,4,1,16,0.080729167,-0.248697917,1,0,0,2.1485,Andesite_02,1,02,2,5,2.148,0.364583333,-0.388020833,1,0,0,3.4362,Pumice_rect,8,3.436,0,15,0,15,0,1,,,,,,,,,,,,,
666e0c42ac414869ed22fbc5,SCN,2024-06-24_13h48.27.335,LearnStrategy,2023.2.3,Win32,3.36813742,4,2,1,,,,,,,,3,14,,,,,,,,,,,3,2.332,1,,,,,,0.134114583,-0.260416667,1,0,0,2.3324,Diorite_rect,0,0,0,0,1,
666e0c42ac414869ed22fbc5,SCN,2024-06-24_13h48.27.335,LearnStrategy,2023.2.3,Win32,3.36813742,4,2,2,,,,,,,,8,16,,,,,,,,,,,8,2.718,1,,,,,,0.376302083,-0.391927083,1,0,0,2.7182,Pumice_rect,1,0,1,0,1,
666e0c42ac414869ed22fbc5,SCN,2024-06-24_13h48.27.335,LearnStrategy,2023.2.3,Win32,3.36813742,4,2,3,,,,,,,,3,08,,,,,,,,,,,3,2.214,1,,,,,,0.184895833,-0.263020833,1,0,0,2.2142,Diorite_rect,2,0,2,0,1,
666e0c42ac414869ed22fbc5,SCN,2024-06-24_13h48.27.335,LearnStrategy,2023.2.3,Win32,3.36813742,4,2,4,,,,,,,,6,12,,,,,,,,,,,1,18.239,0,,,,,,-0.3671875,-0.255208333,1,0,0,18.2387,Andesite_rect,3,0,3,0,1,
666e0c42ac414869ed22fbc5,SCN,2024-06-24_13h48.27.335,LearnStrategy,2023.2.3,Win32,3.36813742,4,2,5,,,,,,,,5,11,,,,,,,,,,,5,2.732,1,,,,,,-0.41015625,-0.416666667,1,0,0,2.7315,Obsidian_rect,4,0,4,0,1,
666e0c42ac414869ed22fbc5,SCN,2024-06-24_13h48.27.335,LearnStrategy,2023.2.3,Win32,3.36813742,4,2,6,,,,,,,,7,04,,,,,,,,,,,6,5.663,0,,,,,,-0.151041667,-0.415364583,1,0,0,5.6633,Pegmatite_rect,5,0,5,0,1,
666e0c42ac414869ed22fbc5,SCN,2024-06-24_13h48.27.335,LearnStrategy,2023.2.3,Win32,3.36813742,4,2,7,,,,,,,,7,15,,,,,,,,,,,7,3.186,1,,,,,,0.1484375,-0.384114583,1,0,0,3.1856,Peridotite_rect,6,0,6,0,1,
666e0c42ac414869ed22fbc5,SCN,2024-06-24_13h48.27.335,LearnStrategy,2023.2.3,Win32,3.36813742,4,2,8,,,,,,,,8,09,,,,,,,,,,,8,2.178,1,,,,,,0.375,-0.399739583,1,0,0,2.1778,Pumice_rect,7,0,7,0,1,
666e0c42ac414869ed22fbc5,SCN,2024-06-24_13h48.27.335,LearnStrategy,2023.2.3,Win32,3.36813742,4,2,9,,,,,,,,6,09,,,,,,,,,,,6,3.302,1,,,,,,-0.147135417,-0.397135417,1,0,0,3.3019,Pegmatite_rect,8,0,8,0,1,
666e0c42ac414869ed22fbc5,SCN,2024-06-24_13h48.27.335,LearnStrategy,2023.2.3,Win32,3.36813742,4,2,10,,,,,,,,1,06,,,,,,,,,,,1,3.974,1,,,,,,-0.34375,-0.234375,1,0,0,3.9739,Andesite_rect,9,0,9,0,1,
666e0c42ac414869ed22fbc5,SCN,2024-06-24_13h48.27.335,LearnStrategy,2023.2.3,Win32,3.36813742,4,2,11,,,,,,,,1,03,,,,,,,,,,,1,4.926,1,,,,,,-0.356770833,-0.268229167,1,0,0,4.9257,Andesite_rect,10,0,10,0,1,
666e0c42ac414869ed22fbc5,SCN,2024-06-24_13h48.27.335,LearnStrategy,2023.2.3,Win32,3.36813742,4,2,12,,,,,,,,4,03,,,,,,,,,,,4,4.699,1,,,,,,0.4140625,-0.25,1,0,0,4.6991,Gabbro_rect,11,0,11,0,1,
666e0c42ac414869ed22fbc5,SCN,2024-06-24_13h48.27.335,LearnStrategy,2023.2.3,Win32,3.36813742,4,2,13,,,,,,,,4,16,,,,,,,,,,,2,3.167,0,,,,,,-0.11328125,-0.25,1,0,0,3.1672,Basalt_rect,12,0,12,0,1,
666e0c42ac414869ed22fbc5,SCN,2024-06-24_13h48.27.335,LearnStrategy,2023.2.3,Win32,3.36813742,4,2,14,,,,,,,,2,02,,,,,,,,,,,2,1.852,1,,,,,,-0.10546875,-0.247395833,1,0,0,1.8519,Basalt_rect,13,0,13,0,1,
666e0c42ac414869ed22fbc5,SCN,2024-06-24_13h48.27.335,LearnStrategy,2023.2.3,Win32,3.36813742,4,2,15,,,,,,,,5,16,,,,,,,,,,,5,2.56,1,,,,,,-0.375,-0.401041667,1,0,0,2.5603,Obsidian_rect,14,0,14,0,1,
666e0c42ac414869ed22fbc5,SCN,2024-06-24_13h48.27.335,LearnStrategy,2023.2.3,Win32,3.36813742,4,2,16,,,,,,,,2,01,,,,,,,,,,,2,3.059,1,,,,,,-0.162760417,-0.236979167,1,0,0,3.0591,Basalt_rect,15,0,15,0,1,
666e0c42ac414869ed22fbc5,SCN,2024-06-24_13h48.27.335,LearnStrategy,2023.2.3,Win32,3.36813742,5,1,1,-0.545572917,0.428385417,1,0,0,1.7017,Gabbro_15,4,15,6,1,1.702,-0.403645833,-0.251302083,1,0,0,2.2532,Andesite_rect,1,2.253,0,0,0,0,0,1,,,,,,,,,,,,,
666e0c42ac414869ed22fbc5,SCN,2024-06-24_13h48.27.335,LearnStrategy,2023.2.3,Win32,3.36813742,5,1,2,-0.377604167,0.41015625,1,0,0,3.8239,Andesite_16,1,16,6,2,3.824,-0.420572917,-0.244791667,1,0,0,1.8586,Andesite_rect,1,1.859,1,1,0,1,0,1,,,,,,,,,,,,,
666e0c42ac414869ed22fbc5,SCN,2024-06-24_13h48.27.335,LearnStrategy,2023.2.3,Win32,3.36813742,5,1,3,-0.240885417,0.415364583,1,0,0,1.2537,Diorite_10,3,10,6,3,1.254,0.123697917,-0.248697917,1,0,0,5.2717,Diorite_rect,3,5.272,1,2,0,2,0,1,,,,,,,,,,,,,
666e0c42ac414869ed22fbc5,SCN,2024-06-24_13h48.27.335,LearnStrategy,2023.2.3,Win32,3.36813742,5,1,4,-0.088541667,0.39453125,1,0,0,1.313,Diorite_12,3,12,6,4,1.313,0.177083333,-0.259114583,1,0,0,1.8713,Diorite_rect,3,1.871,1,3,0,3,0,1,,,,,,,,,,,,,
666e0c42ac414869ed22fbc5,SCN,2024-06-24_13h48.27.335,LearnStrategy,2023.2.3,Win32,3.36813742,5,1,5,0.102864583,0.419270833,1,0,0,2.9893,Andesite_05,1,05,6,5,2.989,-0.170572917,-0.411458333,1,0,0,3.3415,Pegmatite_rect,6,3.341,0,4,0,4,0,1,,,,,,,,,,,,,
666e0c42ac414869ed22fbc5,SCN,2024-06-24_13h48.27.335,LearnStrategy,2023.2.3,Win32,3.36813742,5,1,6,0.23828125,0.40625,1,0,0,1.7197,Diorite_07,3,07,6,6,1.72,0.108072917,-0.234375,1,0,0,4.9865,Diorite_rect,3,4.986,1,5,0,5,0,1,,,,,,,,,,,,,
666e0c42ac414869ed22fbc5,SCN,2024-06-24_13h48.27.335,LearnStrategy,2023.2.3,Win32,3.36813742,5,1,7,0.359375,0.404947917,1,0,0,3.3311,Pegmatite_08,6,08,6,7,3.331,-0.162760417,-0.407552083,1,0,0,3.0935,Pegmatite_rect,6,3.093,1,6,0,6,0,1,,,,,,,,,,,,,
666e0c42ac414869ed22fbc5,SCN,2024-06-24_13h48.27.335,LearnStrategy,2023.2.3,Win32,3.36813742,5,1,8,0.563802083,0.395833333,1,0,0,1.7095,Peridotite_16,7,16,6,8,1.709,0.084635417,-0.40234375,1,0,0,1.7834,Peridotite_rect,7,1.783,1,7,0,7,0,1,,,,,,,,,,,,,
666e0c42ac414869ed22fbc5,SCN,2024-06-24_13h48.27.335,LearnStrategy,2023.2.3,Win32,3.36813742,5,1,9,-0.555989583,0.255208333,1,0,0,5.4465,Peridotite_06,7,06,5,1,5.447,0.127604167,-0.401041667,1,0,0,1.8003,Peridotite_rect,7,1.8,1,8,0,8,0,1,,,,,,,,,,,,,
666e0c42ac414869ed22fbc5,SCN,2024-06-24_13h48.27.335,LearnStrategy,2023.2.3,Win32,3.36813742,5,1,10,-0.377604167,0.236979167,1,0,0,4.6351,Obsidian_09,5,09,5,2,4.635,-0.3828125,-0.389322917,1,0,0,3.1985,Obsidian_rect,5,3.198,1,9,0,9,0,1,,,,,,,,,,,,,
666e0c42ac414869ed22fbc5,SCN,2024-06-24_13h48.27.335,LearnStrategy,2023.2.3,Win32,3.36813742,5,1,11,-0.243489583,0.263020833,1,0,0,2.0871,Basalt_16,2,16,5,3,2.087,-0.151041667,-0.252604167,1,0,0,1.7371,Basalt_rect,2,1.737,1,10,0,10,0,1,,,,,,,,,,,,,
666e0c42ac414869ed22fbc5,SCN,2024-06-24_13h48.27.335,LearnStrategy,2023.2.3,Win32,3.36813742,5,1,12,-0.108072917,0.243489583,1,0,0,4.1912,Pegmatite_03,6,03,5,4,4.191,-0.09375,-0.393229167,1,0,0,2.7642,Pegmatite_rect,6,2.764,1,11,0,11,0,1,,,,,,,,,,,,,
666e0c42ac414869ed22fbc5,SCN,2024-06-24_13h48.27.335,LearnStrategy,2023.2.3,Win32,3.36813742,5,1,13,0.06640625,0.239583333,1,0,0,1.6503,Basalt_11,2,11,5,5,1.65,0.380208333,-0.231770833,1,0,0,4.0121,Gabbro_rect,4,4.012,0,12,0,12,0,1,,,,,,,,,,,,,
666e0c42ac414869ed22fbc5,SCN,2024-06-24_13h48.27.335,LearnStrategy,2023.2.3,Win32,3.36813742,5,1,14,0.2265625,0.22265625,1,0,0,2.1319,Pumice_08,8,08,5,6,2.132,0.3671875,-0.421875,1,0,0,4.5014,Pumice_rect,8,4.501,1,13,0,13,0,1,,,,,,,,,,,,,
666e0c42ac414869ed22fbc5,SCN,2024-06-24_13h48.27.335,LearnStrategy,2023.2.3,Win32,3.36813742,5,1,15,0.3984375,0.220052083,1,0,0,4.1168,Peridotite_02,7,02,5,7,4.117,0.138020833,-0.3984375,1,0,0,1.8005,Peridotite_rect,7,1.8,1,14,0,14,0,1,,,,,,,,,,,,,
666e0c42ac414869ed22fbc5,SCN,2024-06-24_13h48.27.335,LearnStrategy,2023.2.3,Win32,3.36813742,5,1,16,0.5234375,0.220052083,1,0,0,2.5137,Basalt_12,2,12,5,8,2.514,0.361979167,-0.404947917,1,0,0,2.2221,Pumice_rect,8,2.222,0,15,0,15,0,1,,,,,,,,,,,,,
666e0c42ac414869ed22fbc5,SCN,2024-06-24_13h48.27.335,LearnStrategy,2023.2.3,Win32,3.36813742,5,2,1,,,,,,,,8,13,,,,,,,,,,,8,2.708,1,,,,,,0.40234375,-0.390625,1,0,0,2.7077,Pumice_rect,0,0,0,0,1,
666e0c42ac414869ed22fbc5,SCN,2024-06-24_13h48.27.335,LearnStrategy,2023.2.3,Win32,3.36813742,5,2,2,,,,,,,,7,12,,,,,,,,,,,7,3.807,1,,,,,,0.12890625,-0.404947917,1,0,0,3.8066,Peridotite_rect,1,0,1,0,1,
666e0c42ac414869ed22fbc5,SCN,2024-06-24_13h48.27.335,LearnStrategy,2023.2.3,Win32,3.36813742,5,2,3,,,,,,,,3,09,,,,,,,,,,,3,9.115,1,,,,,,0.12109375,-0.248697917,1,0,0,9.1153,Diorite_rect,2,0,2,0,1,
666e0c42ac414869ed22fbc5,SCN,2024-06-24_13h48.27.335,LearnStrategy,2023.2.3,Win32,3.36813742,5,2,4,,,,,,,,6,07,,,,,,,,,,,6,3.716,1,,,,,,-0.125,-0.39453125,1,0,0,3.7165,Pegmatite_rect,3,0,3,0,1,
666e0c42ac414869ed22fbc5,SCN,2024-06-24_13h48.27.335,LearnStrategy,2023.2.3,Win32,3.36813742,5,2,5,,,,,,,,2,05,,,,,,,,,,,2,3.06,1,,,,,,-0.118489583,-0.251302083,1,0,0,3.0601,Basalt_rect,4,0,4,0,1,
666e0c42ac414869ed22fbc5,SCN,2024-06-24_13h48.27.335,LearnStrategy,2023.2.3,Win32,3.36813742,5,2,6,,,,,,,,1,11,,,,,,,,,,,1,8.868,1,,,,,,-0.447916667,-0.23828125,1,0,0,8.8683,Andesite_rect,5,0,5,0,1,
666e0c42ac414869ed22fbc5,SCN,2024-06-24_13h48.27.335,LearnStrategy,2023.2.3,Win32,3.36813742,5,2,7,,,,,,,,5,12,,,,,,,,,,,5,4.886,1,,,,,,-0.40625,-0.399739583,1,0,0,4.8857,Obsidian_rect,6,0,6,0,1,
666e0c42ac414869ed22fbc5,SCN,2024-06-24_13h48.27.335,LearnStrategy,2023.2.3,Win32,3.36813742,5,2,8,,,,,,,,1,01,,,,,,,,,,,6,12.854,0,,,,,,-0.161458333,-0.40625,1,0,0,12.8544,Pegmatite_rect,7,0,7,0,1,
666e0c42ac414869ed22fbc5,SCN,2024-06-24_13h48.27.335,LearnStrategy,2023.2.3,Win32,3.36813742,5,2,9,,,,,,,,2,14,,,,,,,,,,,8,6.197,0,,,,,,0.348958333,-0.393229167,1,0,0,6.197,Pumice_rect,8,0,8,0,1,
666e0c42ac414869ed22fbc5,SCN,2024-06-24_13h48.27.335,LearnStrategy,2023.2.3,Win32,3.36813742,5,2,10,,,,,,,,7,13,,,,,,,,,,,7,1.797,1,,,,,,0.161458333,-0.384114583,1,0,0,1.797,Peridotite_rect,9,0,9,0,1,
666e0c42ac414869ed22fbc5,SCN,2024-06-24_13h48.27.335,LearnStrategy,2023.2.3,Win32,3.36813742,5,2,11,,,,,,,,8,06,,,,,,,,,,,8,2.195,1,,,,,,0.381510417,-0.411458333,1,0,0,2.1952,Pumice_rect,10,0,10,0,1,
666e0c42ac414869ed22fbc5,SCN,2024-06-24_13h48.27.335,LearnStrategy,2023.2.3,Win32,3.36813742,5,2,12,,,,,,,,3,11,,,,,,,,,,,3,2.631,1,,,,,,0.190104167,-0.240885417,1,0,0,2.6309,Diorite_rect,11,0,11,0,1,
666e0c42ac414869ed22fbc5,SCN,2024-06-24_13h48.27.335,LearnStrategy,2023.2.3,Win32,3.36813742,5,2,13,,,,,,,,4,09,,,,,,,,,,,4,2.61,1,,,,,,0.393229167,-0.23828125,1,0,0,2.6103,Gabbro_rect,12,0,12,0,1,
666e0c42ac414869ed22fbc5,SCN,2024-06-24_13h48.27.335,LearnStrategy,2023.2.3,Win32,3.36813742,5,2,14,,,,,,,,4,05,,,,,,,,,,,4,1.775,1,,,,,,0.34375,-0.24609375,1,0,0,1.7749,Gabbro_rect,13,0,13,0,1,
666e0c42ac414869ed22fbc5,SCN,2024-06-24_13h48.27.335,LearnStrategy,2023.2.3,Win32,3.36813742,5,2,15,,,,,,,,5,05,,,,,,,,,,,5,4.961,1,,,,,,-0.436197917,-0.39453125,1,0,0,4.9614,Obsidian_rect,14,0,14,0,1,
666e0c42ac414869ed22fbc5,SCN,2024-06-24_13h48.27.335,LearnStrategy,2023.2.3,Win32,3.36813742,5,2,16,,,,,,,,6,05,,,,,,,,,,,6,2.205,1,,,,,,-0.135416667,-0.404947917,1,0,0,2.2053,Pegmatite_rect,15,0,15,0,1,
666e0c42ac414869ed22fbc5,SCN,2024-06-24_13h48.27.335,LearnStrategy,2023.2.3,Win32,3.36813742,6,1,1,-0.565104167,-0.266927083,1,0,0,2.103,Pegmatite_06,6,06,2,1,2.103,-0.151041667,-0.412760417,1,0,0,2.3053,Pegmatite_rect,6,2.305,1,0,0,0,0,1,,,,,,,,,,,,,
666e0c42ac414869ed22fbc5,SCN,2024-06-24_13h48.27.335,LearnStrategy,2023.2.3,Win32,3.36813742,6,1,2,-0.3984375,-0.2734375,1,0,0,2.1248,Diorite_15,3,15,2,2,2.125,0.0703125,-0.251302083,1,0,0,6.2416,Diorite_rect,3,6.242,1,1,0,1,0,1,,,,,,,,,,,,,
666e0c42ac414869ed22fbc5,SCN,2024-06-24_13h48.27.335,LearnStrategy,2023.2.3,Win32,3.36813742,6,1,3,-0.2265625,-0.2734375,1,0,0,2.9144,Basalt_10,2,10,2,3,2.914,-0.16015625,-0.255208333,1,0,0,1.3253,Basalt_rect,2,1.325,1,2,0,2,0,1,,,,,,,,,,,,,
666e0c42ac414869ed22fbc5,SCN,2024-06-24_13h48.27.335,LearnStrategy,2023.2.3,Win32,3.36813742,6,1,4,-0.096354167,-0.25390625,1,0,0,2.9257,Gabbro_12,4,12,2,4,2.926,0.360677083,-0.23046875,1,0,0,2.2277,Gabbro_rect,4,2.228,1,3,0,3,0,1,,,,,,,,,,,,,
666e0c42ac414869ed22fbc5,SCN,2024-06-24_13h48.27.335,LearnStrategy,2023.2.3,Win32,3.36813742,6,1,5,0.0625,-0.255208333,1,0,0,1.2383,Andesite_02,1,02,2,5,1.238,-0.407552083,-0.234375,1,0,0,2.6245,Andesite_rect,1,2.625,1,4,0,4,0,1,,,,,,,,,,,,,
666e0c42ac414869ed22fbc5,SCN,2024-06-24_13h48.27.335,LearnStrategy,2023.2.3,Win32,3.36813742,6,1,6,0.28125,-0.259114583,1,0,0,2.534,Gabbro_08,4,08,2,6,2.534,0.399739583,-0.26953125,1,0,0,1.7861,Gabbro_rect,4,1.786,1,5,0,5,0,1,,,,,,,,,,,,,
666e0c42ac414869ed22fbc5,SCN,2024-06-24_13h48.27.335,LearnStrategy,2023.2.3,Win32,3.36813742,6,1,7,0.399739583,0.080729167,1,0,0,2.4828,Peridotite_07,7,07,4,7,2.483,0.135416667,-0.393229167,1,0,0,4.5504,Peridotite_rect,7,4.55,1,6,0,6,0,1,,,,,,,,,,,,,
666e0c42ac414869ed22fbc5,SCN,2024-06-24_13h48.27.335,LearnStrategy,2023.2.3,Win32,3.36813742,6,1,8,0.549479167,0.084635417,1,0,0,2.111,Obsidian_07,5,07,4,8,2.111,-0.376302083,-0.416666667,1,0,0,1.9595,Obsidian_rect,5,1.959,1,7,0,7,0,1,,,,,,,,,,,,,
666e0c42ac414869ed22fbc5,SCN,2024-06-24_13h48.27.335,LearnStrategy,2023.2.3,Win32,3.36813742,6,1,9,0.528645833,-0.41015625,1,0,0,3.3566,Diorite_13,3,13,1,8,3.357,0.139322917,-0.255208333,1,0,0,4.7917,Diorite_rect,3,4.792,1,8,0,8,0,1,,,,,,,,,,,,,
666e0c42ac414869ed22fbc5,SCN,2024-06-24_13h48.27.335,LearnStrategy,2023.2.3,Win32,3.36813742,6,1,10,0.58984375,-0.243489583,1,0,0,1.6934,Obsidian_08,5,08,2,8,1.693,-0.419270833,-0.4140625,1,0,0,2.3231,Obsidian_rect,5,2.323,1,9,0,9,0,1,,,,,,,,,,,,,
666e0c42ac414869ed22fbc5,SCN,2024-06-24_13h48.27.335,LearnStrategy,2023.2.3,Win32,3.36813742,6,1,11,-0.41796875,0.251302083,1,0,0,1.7116,Obsidian_09,5,09,5,2,1.712,-0.41015625,-0.408854167,1,0,0,2.2853,Obsidian_rect,5,2.285,1,10,0,10,0,1,,,,,,,,,,,,,
666e0c42ac414869ed22fbc5,SCN,2024-06-24_13h48.27.335,LearnStrategy,2023.2.3,Win32,3.36813742,6,1,12,-0.571614583,-0.067708333,1,0,0,3.3968,Pegmatite_15,6,15,3,1,3.397,-0.126302083,-0.37890625,1,0,0,1.3634,Pegmatite_rect,6,1.363,1,11,0,11,0,1,,,,,,,,,,,,,
666e0c42ac414869ed22fbc5,SCN,2024-06-24_13h48.27.335,LearnStrategy,2023.2.3,Win32,3.36813742,6,1,13,0.197916667,-0.127604167,1,0,0,2.0816,Andesite_04,1,04,3,6,2.082,-0.440104167,-0.266927083,1,0,0,3.0677,Andesite_rect,1,3.068,1,12,0,12,0,1,,,,,,,,,,,,,
666e0c42ac414869ed22fbc5,SCN,2024-06-24_13h48.27.335,LearnStrategy,2023.2.3,Win32,3.36813742,6,1,14,0.555989583,-0.095052083,1,0,0,2.9507,Basalt_08,2,08,3,8,2.951,-0.1015625,-0.255208333,1,0,0,4.2256,Basalt_rect,2,4.226,1,13,0,13,0,1,,,,,,,,,,,,,
666e0c42ac414869ed22fbc5,SCN,2024-06-24_13h48.27.335,LearnStrategy,2023.2.3,Win32,3.36813742,6,1,15,0.0703125,0.25390625,1,0,0,2.9232,Basalt_11,2,11,5,5,2.923,-0.182291667,-0.252604167,1,0,0,3.7107,Basalt_rect,2,3.711,1,14,0,14,0,1,,,,,,,,,,,,,
666e0c42ac414869ed22fbc5,SCN,2024-06-24_13h48.27.335,LearnStrategy,2023.2.3,Win32,3.36813742,6,1,16,0.376302083,0.23046875,1,0,0,2.9199,Peridotite_02,7,02,5,7,2.92,0.10546875,-0.393229167,1,0,0,3.5577,Peridotite_rect,7,3.558,1,15,0,15,0,1,,,,,,,,,,,,,
666e0c42ac414869ed22fbc5,SCN,2024-06-24_13h48.27.335,LearnStrategy,2023.2.3,Win32,3.36813742,6,2,1,,,,,,,,4,10,,,,,,,,,,,4,2.316,1,,,,,,0.346354167,-0.256510417,1,0,0,2.3159,Gabbro_rect,0,0,0,0,1,
666e0c42ac414869ed22fbc5,SCN,2024-06-24_13h48.27.335,LearnStrategy,2023.2.3,Win32,3.36813742,6,2,2,,,,,,,,2,04,,,,,,,,,,,2,5.426,1,,,,,,-0.102864583,-0.234375,1,0,0,5.426,Basalt_rect,1,0,1,0,1,
666e0c42ac414869ed22fbc5,SCN,2024-06-24_13h48.27.335,LearnStrategy,2023.2.3,Win32,3.36813742,6,2,3,,,,,,,,6,13,,,,,,,,,,,6,8.696,1,,,,,,-0.130208333,-0.385416667,1,0,0,8.6956,Pegmatite_rect,2,0,2,0,1,
666e0c42ac414869ed22fbc5,SCN,2024-06-24_13h48.27.335,LearnStrategy,2023.2.3,Win32,3.36813742,6,2,4,,,,,,,,7,10,,,,,,,,,,,7,1.92,1,,,,,,0.1015625,-0.407552083,1,0,0,1.9198,Peridotite_rect,3,0,3,0,1,
666e0c42ac414869ed22fbc5,SCN,2024-06-24_13h48.27.335,LearnStrategy,2023.2.3,Win32,3.36813742,6,2,5,,,,,,,,1,07,,,,,,,,,,,3,2.644,0,,,,,,0.12109375,-0.25,1,0,0,2.6444,Diorite_rect,4,0,4,0,1,
666e0c42ac414869ed22fbc5,SCN,2024-06-24_13h48.27.335,LearnStrategy,2023.2.3,Win32,3.36813742,6,2,6,,,,,,,,2,06,,,,,,,,,,,2,3.488,1,,,,,,-0.16796875,-0.252604167,1,0,0,3.4881,Basalt_rect,5,0,5,0,1,
666e0c42ac414869ed22fbc5,SCN,2024-06-24_13h48.27.335,LearnStrategy,2023.2.3,Win32,3.36813742,6,2,7,,,,,,,,3,02,,,,,,,,,,,3,1.76,1,,,,,,0.1171875,-0.247395833,1,0,0,1.76,Diorite_rect,6,0,6,0,1,
666e0c42ac414869ed22fbc5,SCN,2024-06-24_13h48.27.335,LearnStrategy,2023.2.3,Win32,3.36813742,6,2,8,,,,,,,,1,10,,,,,,,,,,,1,1.907,1,,,,,,-0.365885417,-0.255208333,1,0,0,1.9065,Andesite_rect,7,0,7,0,1,
666e0c42ac414869ed22fbc5,SCN,2024-06-24_13h48.27.335,LearnStrategy,2023.2.3,Win32,3.36813742,6,2,9,,,,,,,,3,06,,,,,,,,,,,4,4.979,0,,,,,,0.37890625,-0.2421875,1,0,0,4.9788,Gabbro_rect,8,0,8,0,1,
666e0c42ac414869ed22fbc5,SCN,2024-06-24_13h48.27.335,LearnStrategy,2023.2.3,Win32,3.36813742,6,2,10,,,,,,,,8,15,,,,,,,,,,,8,1.745,1,,,,,,0.34765625,-0.415364583,1,0,0,1.7451,Pumice_rect,9,0,9,0,1,
666e0c42ac414869ed22fbc5,SCN,2024-06-24_13h48.27.335,LearnStrategy,2023.2.3,Win32,3.36813742,6,2,11,,,,,,,,5,10,,,,,,,,,,,5,3.14,1,,,,,,-0.43359375,-0.391927083,1,0,0,3.1401,Obsidian_rect,10,0,10,0,1,
666e0c42ac414869ed22fbc5,SCN,2024-06-24_13h48.27.335,LearnStrategy,2023.2.3,Win32,3.36813742,6,2,12,,,,,,,,8,05,,,,,,,,,,,8,5.733,1,,,,,,0.44921875,-0.401041667,1,0,0,5.7332,Pumice_rect,11,0,11,0,1,
666e0c42ac414869ed22fbc5,SCN,2024-06-24_13h48.27.335,LearnStrategy,2023.2.3,Win32,3.36813742,6,2,13,,,,,,,,4,14,,,,,,,,,,,2,2.211,0,,,,,,-0.161458333,-0.265625,1,0,0,2.211,Basalt_rect,12,0,12,0,1,
666e0c42ac414869ed22fbc5,SCN,2024-06-24_13h48.27.335,LearnStrategy,2023.2.3,Win32,3.36813742,6,2,14,,,,,,,,5,02,,,,,,,,,,,5,2.317,1,,,,,,-0.419270833,-0.393229167,1,0,0,2.3166,Obsidian_rect,13,0,13,0,1,
666e0c42ac414869ed22fbc5,SCN,2024-06-24_13h48.27.335,LearnStrategy,2023.2.3,Win32,3.36813742,6,2,15,,,,,,,,6,16,,,,,,,,,,,6,1.86,1,,,,,,-0.197916667,-0.40234375,1,0,0,1.8596,Pegmatite_rect,14,0,14,0,1,
666e0c42ac414869ed22fbc5,SCN,2024-06-24_13h48.27.335,LearnStrategy,2023.2.3,Win32,3.36813742,6,2,16,,,,,,,,7,14,,,,,,,,,,,7,5.921,1,,,,,,0.139322917,-0.408854167,1,0,0,5.9213,Peridotite_rect,15,0,15,0,1,
666e0c42ac414869ed22fbc5,SCN,2024-06-24_13h48.27.335,LearnStrategy,2023.2.3,Win32,3.36813742,7,1,1,0.565104167,-0.067708333,1,0,0,2.5275,Basalt_08,2,08,3,8,2.528,-0.162760417,-0.255208333,1,0,0,1.7481,Basalt_rect,2,1.748,1,0,0,0,0,1,,,,,,,,,,,,,
666e0c42ac414869ed22fbc5,SCN,2024-06-24_13h48.27.335,LearnStrategy,2023.2.3,Win32,3.36813742,7,1,2,-0.08984375,0.1015625,1,0,0,7.0387,Gabbro_13,4,13,4,4,7.039,0.3125,-0.234375,1,0,0,4.904,Gabbro_rect,4,4.904,1,1,0,1,0,1,,,,,,,,,,,,,
666e0c42ac414869ed22fbc5,SCN,2024-06-24_13h48.27.335,LearnStrategy,2023.2.3,Win32,3.36813742,7,1,3,-0.22265625,-0.430989583,1,0,0,1.6835,Obsidian_14,5,14,1,3,1.684,-0.40234375,-0.403645833,1,0,0,2.1978,Obsidian_rect,5,2.198,1,2,0,2,0,1,,,,,,,,,,,,,
666e0c42ac414869ed22fbc5,SCN,2024-06-24_13h48.27.335,LearnStrategy,2023.2.3,Win32,3.36813742,7,1,4,-0.415364583,-0.412760417,1,0,0,3.0281,Obsidian_04,5,04,1,2,3.028,-0.390625,-0.40234375,1,0,0,3.9233,Obsidian_rect,5,3.923,1,3,0,3,0,1,,,,,,,,,,,,,
666e0c42ac414869ed22fbc5,SCN,2024-06-24_13h48.27.335,LearnStrategy,2023.2.3,Win32,3.36813742,7,1,5,0.032552083,-0.09765625,1,0,0,1.3099,Obsidian_06,5,06,3,5,1.31,-0.42578125,-0.395833333,1,0,0,4.4176,Obsidian_rect,5,4.418,1,4,0,4,0,1,,,,,,,,,,,,,
666e0c42ac414869ed22fbc5,SCN,2024-06-24_13h48.27.335,LearnStrategy,2023.2.3,Win32,3.36813742,7,1,6,0.546875,0.088541667,1,0,0,2.9053,Obsidian_07,5,07,4,8,2.905,-0.423177083,-0.3984375,1,0,0,3.1763,Obsidian_rect,5,3.176,1,5,0,5,0,1,,,,,,,,,,,,,
666e0c42ac414869ed22fbc5,SCN,2024-06-24_13h48.27.335,LearnStrategy,2023.2.3,Win32,3.36813742,7,1,7,0.520833333,-0.259114583,1,0,0,1.6696,Obsidian_08,5,08,2,8,1.67,-0.356770833,-0.403645833,1,0,0,2.6149,Obsidian_rect,5,2.615,1,6,0,6,0,1,,,,,,,,,,,,,
666e0c42ac414869ed22fbc5,SCN,2024-06-24_13h48.27.335,LearnStrategy,2023.2.3,Win32,3.36813742,7,1,8,-0.384114583,0.235677083,1,0,0,2.1346,Obsidian_09,5,09,5,2,2.135,-0.391927083,-0.407552083,1,0,0,1.3662,Obsidian_rect,5,1.366,1,7,0,7,0,1,,,,,,,,,,,,,
666e0c42ac414869ed22fbc5,SCN,2024-06-24_13h48.27.335,LearnStrategy,2023.2.3,Win32,3.36813742,7,1,9,0.21875,0.21875,1,0,0,3.7683,Pumice_08,8,08,5,6,3.768,0.388020833,-0.391927083,1,0,0,2.6356,Pumice_rect,8,2.636,1,8,0,8,0,1,,,,,,,,,,,,,
666e0c42ac414869ed22fbc5,SCN,2024-06-24_13h48.27.335,LearnStrategy,2023.2.3,Win32,3.36813742,7,1,10,0.368489583,-0.266927083,1,0,0,4.9689,Pegmatite_11,6,11,2,7,4.969,-0.126302083,-0.404947917,1,0,0,2.1856,Pegmatite_rect,6,2.186,1,9,0,9,0,1,,,,,,,,,,,,,
666e0c42ac414869ed22fbc5,SCN,2024-06-24_13h48.27.335,LearnStrategy,2023.2.3,Win32,3.36813742,7,1,11,-0.220052083,-0.265625,1,0,0,2.5921,Basalt_10,2,10,2,3,2.592,-0.1171875,-0.26953125,1,0,0,4.058,Basalt_rect,2,4.058,1,10,0,10,0,1,,,,,,,,,,,,,
666e0c42ac414869ed22fbc5,SCN,2024-06-24_13h48.27.335,LearnStrategy,2023.2.3,Win32,3.36813742,7,1,12,0.557291667,0.201822917,1,0,0,1.6938,Basalt_12,2,12,5,8,1.694,0.361979167,-0.3828125,1,0,0,2.6938,Pumice_rect,8,2.694,0,11,0,11,0,1,,,,,,,,,,,,,
666e0c42ac414869ed22fbc5,SCN,2024-06-24_13h48.27.335,LearnStrategy,2023.2.3,Win32,3.36813742,7,1,13,-0.407552083,0.06640625,1,0,0,2.9226,Pumice_04,8,04,4,2,2.923,0.395833333,-0.3984375,1,0,0,3.507,Pumice_rect,8,3.507,1,12,0,12,0,1,,,,,,,,,,,,,
666e0c42ac414869ed22fbc5,SCN,2024-06-24_13h48.27.335,LearnStrategy,2023.2.3,Win32,3.36813742,7,1,14,-0.110677083,-0.247395833,1,0,0,1.2544,Gabbro_12,4,12,2,4,1.254,0.40625,-0.248697917,1,0,0,2.9998,Gabbro_rect,4,3,1,13,0,13,0,1,,,,,,,,,,,,,
666e0c42ac414869ed22fbc5,SCN,2024-06-24_13h48.27.335,LearnStrategy,2023.2.3,Win32,3.36813742,7,1,15,-0.5625,-0.4296875,1,0,0,1.6941,Pumice_14,8,14,1,1,1.694,0.33984375,-0.408854167,1,0,0,5.3334,Pumice_rect,8,5.333,1,14,0,14,0,1,,,,,,,,,,,,,
666e0c42ac414869ed22fbc5,SCN,2024-06-24_13h48.27.335,LearnStrategy,2023.2.3,Win32,3.36813742,7,1,16,-0.529947917,0.225260417,1,0,0,3.8441,Peridotite_06,7,06,5,1,3.844,0.1171875,-0.381510417,1,0,0,1.8286,Peridotite_rect,7,1.829,1,15,0,15,0,1,,,,,,,,,,,,,
666e0c42ac414869ed22fbc5,SCN,2024-06-24_13h48.27.335,LearnStrategy,2023.2.3,Win32,3.36813742,7,2,1,,,,,,,,1,11,,,,,,,,,,,1,9.757,1,,,,,,-0.393229167,-0.251302083,1,0,0,9.7567,Andesite_rect,0,0,0,0,1,
666e0c42ac414869ed22fbc5,SCN,2024-06-24_13h48.27.335,LearnStrategy,2023.2.3,Win32,3.36813742,7,2,2,,,,,,,,4,05,,,,,,,,,,,4,1.848,1,,,,,,0.36328125,-0.236979167,1,0,0,1.8479,Gabbro_rect,1,0,1,0,1,
666e0c42ac414869ed22fbc5,SCN,2024-06-24_13h48.27.335,LearnStrategy,2023.2.3,Win32,3.36813742,7,2,3,,,,,,,,4,09,,,,,,,,,,,4,2.223,1,,,,,,0.334635417,-0.265625,1,0,0,2.2231,Gabbro_rect,2,0,2,0,1,
666e0c42ac414869ed22fbc5,SCN,2024-06-24_13h48.27.335,LearnStrategy,2023.2.3,Win32,3.36813742,7,2,4,,,,,,,,6,12,,,,,,,,,,,1,9.092,0,,,,,,-0.32421875,-0.251302083,1,0,0,9.0923,Andesite_rect,3,0,3,0,1,
666e0c42ac414869ed22fbc5,SCN,2024-06-24_13h48.27.335,LearnStrategy,2023.2.3,Win32,3.36813742,7,2,5,,,,,,,,5,16,,,,,,,,,,,5,1.862,1,,,,,,-0.424479167,-0.40234375,1,0,0,1.8624,Obsidian_rect,4,0,4,0,1,
666e0c42ac414869ed22fbc5,SCN,2024-06-24_13h48.27.335,LearnStrategy,2023.2.3,Win32,3.36813742,7,2,6,,,,,,,,5,12,,,,,,,,,,,5,1.809,1,,,,,,-0.454427083,-0.385416667,1,0,0,1.809,Obsidian_rect,5,0,5,0,1,
666e0c42ac414869ed22fbc5,SCN,2024-06-24_13h48.27.335,LearnStrategy,2023.2.3,Win32,3.36813742,7,2,7,,,,,,,,7,13,,,,,,,,,,,7,1.769,1,,,,,,0.11328125,-0.385416667,1,0,0,1.7685,Peridotite_rect,6,0,6,0,1,
666e0c42ac414869ed22fbc5,SCN,2024-06-24_13h48.27.335,LearnStrategy,2023.2.3,Win32,3.36813742,7,2,8,,,,,,,,6,09,,,,,,,,,,,6,1.905,1,,,,,,-0.216145833,-0.395833333,1,0,0,1.9054,Pegmatite_rect,7,0,7,0,1,
666e0c42ac414869ed22fbc5,SCN,2024-06-24_13h48.27.335,LearnStrategy,2023.2.3,Win32,3.36813742,7,2,9,,,,,,,,3,14,,,,,,,,,,,3,1.818,1,,,,,,0.180989583,-0.243489583,1,0,0,1.8178,Diorite_rect,8,0,8,0,1,
666e0c42ac414869ed22fbc5,SCN,2024-06-24_13h48.27.335,LearnStrategy,2023.2.3,Win32,3.36813742,7,2,10,,,,,,,,8,15,,,,,,,,,,,8,1.737,1,,,,,,0.348958333,-0.39453125,1,0,0,1.7374,Pumice_rect,9,0,9,0,1,
666e0c42ac414869ed22fbc5,SCN,2024-06-24_13h48.27.335,LearnStrategy,2023.2.3,Win32,3.36813742,7,2,11,,,,,,,,2,05,,,,,,,,,,,2,3.129,1,,,,,,-0.0703125,-0.268229167,1,0,0,3.1292,Basalt_rect,10,0,10,0,1,
666e0c42ac414869ed22fbc5,SCN,2024-06-24_13h48.27.335,LearnStrategy,2023.2.3,Win32,3.36813742,7,2,12,,,,,,,,8,09,,,,,,,,,,,8,6.666,1,,,,,,0.423177083,-0.39453125,1,0,0,6.6658,Pumice_rect,11,0,11,0,1,
666e0c42ac414869ed22fbc5,SCN,2024-06-24_13h48.27.335,LearnStrategy,2023.2.3,Win32,3.36813742,7,2,13,,,,,,,,2,04,,,,,,,,,,,2,2.253,1,,,,,,-0.174479167,-0.268229167,1,0,0,2.2526,Basalt_rect,12,0,12,0,1,
666e0c42ac414869ed22fbc5,SCN,2024-06-24_13h48.27.335,LearnStrategy,2023.2.3,Win32,3.36813742,7,2,14,,,,,,,,3,09,,,,,,,,,,,3,1.883,1,,,,,,0.141927083,-0.247395833,1,0,0,1.8835,Diorite_rect,13,0,13,0,1,
666e0c42ac414869ed22fbc5,SCN,2024-06-24_13h48.27.335,LearnStrategy,2023.2.3,Win32,3.36813742,7,2,15,,,,,,,,7,04,,,,,,,,,,,6,3.18,0,,,,,,-0.1328125,-0.404947917,1,0,0,3.1805,Pegmatite_rect,14,0,14,0,1,
666e0c42ac414869ed22fbc5,SCN,2024-06-24_13h48.27.335,LearnStrategy,2023.2.3,Win32,3.36813742,7,2,16,,,,,,,,1,07,,,,,,,,,,,3,3.276,0,,,,,,0.169270833,-0.26171875,1,0,0,3.2762,Diorite_rect,15,0,15,0,1,
666e0c42ac414869ed22fbc5,SCN,2024-06-24_13h48.27.335,LearnStrategy,2023.2.3,Win32,3.36813742,8,1,1,0.407552083,-0.095052083,1,0,0,2.5573,Peridotite_05,7,05,3,7,2.557,0.1484375,-0.391927083,1,0,0,3.0078,Peridotite_rect,7,3.008,1,0,0,0,0,1,,,,,,,,,,,,,
666e0c42ac414869ed22fbc5,SCN,2024-06-24_13h48.27.335,LearnStrategy,2023.2.3,Win32,3.36813742,8,1,2,-0.217447917,-0.09765625,1,0,0,1.3066,Pumice_02,8,02,3,3,1.307,0.356770833,-0.38671875,1,0,0,2.6199,Pumice_rect,8,2.62,1,1,0,1,0,1,,,,,,,,,,,,,
666e0c42ac414869ed22fbc5,SCN,2024-06-24_13h48.27.335,LearnStrategy,2023.2.3,Win32,3.36813742,8,1,3,-0.541666667,-0.403645833,1,0,0,4.6203,Pumice_14,8,14,1,1,4.62,0.34765625,-0.419270833,1,0,0,1.817,Pumice_rect,8,1.817,1,2,0,2,0,1,,,,,,,,,,,,,
666e0c42ac414869ed22fbc5,SCN,2024-06-24_13h48.27.335,LearnStrategy,2023.2.3,Win32,3.36813742,8,1,4,0.520833333,0.2265625,1,0,0,1.6864,Basalt_12,2,12,5,8,1.686,-0.083333333,-0.248697917,1,0,0,1.899,Basalt_rect,2,1.899,1,3,0,3,0,1,,,,,,,,,,,,,
666e0c42ac414869ed22fbc5,SCN,2024-06-24_13h48.27.335,LearnStrategy,2023.2.3,Win32,3.36813742,8,1,5,-0.091145833,0.0859375,1,0,0,2.0683,Gabbro_13,4,13,4,4,2.068,0.416666667,-0.264322917,1,0,0,3.2186,Gabbro_rect,4,3.219,1,4,0,4,0,1,,,,,,,,,,,,,
666e0c42ac414869ed22fbc5,SCN,2024-06-24_13h48.27.335,LearnStrategy,2023.2.3,Win32,3.36813742,8,1,6,-0.26953125,-0.2109375,1,0,0,1.2743,Basalt_10,2,10,2,3,1.274,-0.1328125,-0.25390625,1,0,0,4.4786,Basalt_rect,2,4.479,1,5,0,5,0,1,,,,,,,,,,,,,
666e0c42ac414869ed22fbc5,SCN,2024-06-24_13h48.27.335,LearnStrategy,2023.2.3,Win32,3.36813742,8,1,7,0.55859375,0.087239583,1,0,0,1.6869,Obsidian_07,5,07,4,8,1.687,-0.440104167,-0.40234375,1,0,0,1.8745,Obsidian_rect,5,1.874,1,6,0,6,0,1,,,,,,,,,,,,,
666e0c42ac414869ed22fbc5,SCN,2024-06-24_13h48.27.335,LearnStrategy,2023.2.3,Win32,3.36813742,8,1,8,-0.274739583,0.08203125,1,0,0,1.3719,Gabbro_01,4,01,4,3,1.372,0.395833333,-0.252604167,1,0,0,4.0297,Gabbro_rect,4,4.03,1,7,0,7,0,1,,,,,,,,,,,,,
666e0c42ac414869ed22fbc5,SCN,2024-06-24_13h48.27.335,LearnStrategy,2023.2.3,Win32,3.36813742,8,1,9,-0.40234375,0.41015625,1,0,0,5.1085,Andesite_16,1,16,6,2,5.108,-0.401041667,-0.244791667,1,0,0,3.1705,Andesite_rect,1,3.171,1,8,0,8,0,1,,,,,,,,,,,,,
666e0c42ac414869ed22fbc5,SCN,2024-06-24_13h48.27.335,LearnStrategy,2023.2.3,Win32,3.36813742,8,1,10,-0.233072917,0.264322917,1,0,0,1.6878,Basalt_16,2,16,5,3,1.688,-0.1640625,-0.265625,1,0,0,2.1759,Basalt_rect,2,2.176,1,9,0,9,0,1,,,,,,,,,,,,,
666e0c42ac414869ed22fbc5,SCN,2024-06-24_13h48.27.335,LearnStrategy,2023.2.3,Win32,3.36813742,8,1,11,0.1015625,0.244791667,1,0,0,1.7383,Basalt_11,2,11,5,5,1.738,-0.109375,-0.235677083,1,0,0,3.6836,Basalt_rect,2,3.684,1,10,0,10,0,1,,,,,,,,,,,,,
666e0c42ac414869ed22fbc5,SCN,2024-06-24_13h48.27.335,LearnStrategy,2023.2.3,Win32,3.36813742,8,1,12,0.53125,0.252604167,1,0,0,2.9308,Basalt_12,2,12,5,8,2.931,-0.18359375,-0.244791667,1,0,0,2.2602,Basalt_rect,2,2.26,1,11,0,11,0,1,,,,,,,,,,,,,
666e0c42ac414869ed22fbc5,SCN,2024-06-24_13h48.27.335,LearnStrategy,2023.2.3,Win32,3.36813742,8,1,13,0.236979167,-0.235677083,1,0,0,1.777,Gabbro_08,4,08,2,6,1.777,0.381510417,-0.233072917,1,0,0,3.2076,Gabbro_rect,4,3.208,1,12,0,12,0,1,,,,,,,,,,,,,
666e0c42ac414869ed22fbc5,SCN,2024-06-24_13h48.27.335,LearnStrategy,2023.2.3,Win32,3.36813742,8,1,14,-0.259114583,-0.234375,1,0,0,1.2812,Basalt_10,2,10,2,3,1.281,-0.075520833,-0.244791667,1,0,0,1.8181,Basalt_rect,2,1.818,1,13,0,13,0,1,,,,,,,,,,,,,
666e0c42ac414869ed22fbc5,SCN,2024-06-24_13h48.27.335,LearnStrategy,2023.2.3,Win32,3.36813742,8,1,15,-0.255208333,0.407552083,1,0,0,1.7741,Diorite_10,3,10,6,3,1.774,0.3984375,-0.2421875,1,0,0,5.5173,Gabbro_rect,4,5.517,0,14,0,14,0,1,,,,,,,,,,,,,
666e0c42ac414869ed22fbc5,SCN,2024-06-24_13h48.27.335,LearnStrategy,2023.2.3,Win32,3.36813742,8,1,16,0.532552083,0.244791667,1,0,0,1.7081,Basalt_12,2,12,5,8,1.708,-0.171875,-0.256510417,1,0,0,1.82,Basalt_rect,2,1.82,1,15,0,15,0,1,,,,,,,,,,,,,
666e0c42ac414869ed22fbc5,SCN,2024-06-24_13h48.27.335,LearnStrategy,2023.2.3,Win32,3.36813742,8,2,1,,,,,,,,8,13,,,,,,,,,,,8,5.455,1,,,,,,0.380208333,-0.385416667,1,0,0,5.4546,Pumice_rect,0,0,0,0,1,
666e0c42ac414869ed22fbc5,SCN,2024-06-24_13h48.27.335,LearnStrategy,2023.2.3,Win32,3.36813742,8,2,2,,,,,,,,5,02,,,,,,,,,,,5,1.871,1,,,,,,-0.444010417,-0.403645833,1,0,0,1.8708,Obsidian_rect,1,0,1,0,1,
666e0c42ac414869ed22fbc5,SCN,2024-06-24_13h48.27.335,LearnStrategy,2023.2.3,Win32,3.36813742,8,2,3,,,,,,,,7,10,,,,,,,,,,,7,5.076,1,,,,,,0.143229167,-0.408854167,1,0,0,5.0764,Peridotite_rect,2,0,2,0,1,
666e0c42ac414869ed22fbc5,SCN,2024-06-24_13h48.27.335,LearnStrategy,2023.2.3,Win32,3.36813742,8,2,4,,,,,,,,2,14,,,,,,,,,,,8,1.938,0,,,,,,0.346354167,-0.403645833,1,0,0,1.9381,Pumice_rect,3,0,3,0,1,
666e0c42ac414869ed22fbc5,SCN,2024-06-24_13h48.27.335,LearnStrategy,2023.2.3,Win32,3.36813742,8,2,5,,,,,,,,6,16,,,,,,,,,,,6,2.31,1,,,,,,-0.11328125,-0.401041667,1,0,0,2.3098,Pegmatite_rect,4,0,4,0,1,
666e0c42ac414869ed22fbc5,SCN,2024-06-24_13h48.27.335,LearnStrategy,2023.2.3,Win32,3.36813742,8,2,6,,,,,,,,2,01,,,,,,,,,,,2,2.641,1,,,,,,-0.12109375,-0.25390625,1,0,0,2.6411,Basalt_rect,5,0,5,0,1,
666e0c42ac414869ed22fbc5,SCN,2024-06-24_13h48.27.335,LearnStrategy,2023.2.3,Win32,3.36813742,8,2,7,,,,,,,,7,12,,,,,,,,,,,7,2.38,1,,,,,,0.080729167,-0.403645833,1,0,0,2.3797,Peridotite_rect,6,0,6,0,1,
666e0c42ac414869ed22fbc5,SCN,2024-06-24_13h48.27.335,LearnStrategy,2023.2.3,Win32,3.36813742,8,2,8,,,,,,,,1,10,,,,,,,,,,,1,1.995,1,,,,,,-0.442708333,-0.259114583,1,0,0,1.9945,Andesite_rect,7,0,7,0,1,
666e0c42ac414869ed22fbc5,SCN,2024-06-24_13h48.27.335,LearnStrategy,2023.2.3,Win32,3.36813742,8,2,9,,,,,,,,4,10,,,,,,,,,,,4,1.869,1,,,,,,0.41796875,-0.251302083,1,0,0,1.8688,Gabbro_rect,8,0,8,0,1,
666e0c42ac414869ed22fbc5,SCN,2024-06-24_13h48.27.335,LearnStrategy,2023.2.3,Win32,3.36813742,8,2,10,,,,,,,,3,02,,,,,,,,,,,3,1.825,1,,,,,,0.08203125,-0.23828125,1,0,0,1.8245,Diorite_rect,9,0,9,0,1,
666e0c42ac414869ed22fbc5,SCN,2024-06-24_13h48.27.335,LearnStrategy,2023.2.3,Win32,3.36813742,8,2,11,,,,,,,,5,11,,,,,,,,,,,5,1.847,1,,,,,,-0.39453125,-0.404947917,1,0,0,1.847,Obsidian_rect,10,0,10,0,1,
666e0c42ac414869ed22fbc5,SCN,2024-06-24_13h48.27.335,LearnStrategy,2023.2.3,Win32,3.36813742,8,2,12,,,,,,,,3,06,,,,,,,,,,,4,2.361,0,,,,,,0.38671875,-0.239583333,1,0,0,2.361,Gabbro_rect,11,0,11,0,1,
666e0c42ac414869ed22fbc5,SCN,2024-06-24_13h48.27.335,LearnStrategy,2023.2.3,Win32,3.36813742,8,2,13,,,,,,,,6,05,,,,,,,,,,,6,2.308,1,,,,,,-0.161458333,-0.395833333,1,0,0,2.3079,Pegmatite_rect,12,0,12,0,1,
666e0c42ac414869ed22fbc5,SCN,2024-06-24_13h48.27.335,LearnStrategy,2023.2.3,Win32,3.36813742,8,2,14,,,,,,,,8,05,,,,,,,,,,,8,3.666,1,,,,,,0.408854167,-0.401041667,1,0,0,3.6657,Pumice_rect,13,0,13,0,1,
666e0c42ac414869ed22fbc5,SCN,2024-06-24_13h48.27.335,LearnStrategy,2023.2.3,Win32,3.36813742,8,2,15,,,,,,,,4,14,,,,,,,,,,,4,5.033,1,,,,,,0.421875,-0.235677083,1,0,0,5.0334,Gabbro_rect,14,0,14,0,1,
666e0c42ac414869ed22fbc5,SCN,2024-06-24_13h48.27.335,LearnStrategy,2023.2.3,Win32,3.36813742,8,2,16,,,,,,,,1,01,,,,,,,,,,,3,4.714,0,,,,,,0.140625,-0.25,1,0,0,4.7143,Diorite_rect,15,0,15,0,1,
666e0c42ac414869ed22fbc5,SCN,2024-06-24_13h48.27.335,LearnStrategy,2023.2.3,Win32,3.36813742,9,1,1,0.390625,0.25,1,0,0,4.2903,Peridotite_02,7,02,5,7,4.29,0.111979167,-0.393229167,1,0,0,2.3099,Peridotite_rect,7,2.31,1,0,0,0,0,1,,,,,,,,,,,,,
666e0c42ac414869ed22fbc5,SCN,2024-06-24_13h48.27.335,LearnStrategy,2023.2.3,Win32,3.36813742,9,1,2,-0.412760417,-0.415364583,1,0,0,2.1849,Obsidian_04,5,04,1,2,2.185,-0.415364583,-0.3984375,1,0,0,1.3693,Obsidian_rect,5,1.369,1,1,0,1,0,1,,,,,,,,,,,,,
666e0c42ac414869ed22fbc5,SCN,2024-06-24_13h48.27.335,LearnStrategy,2023.2.3,Win32,3.36813742,9,1,3,-0.231770833,0.092447917,1,0,0,5.4992,Gabbro_01,4,01,4,3,5.499,0.436197917,-0.23828125,1,0,0,1.3916,Gabbro_rect,4,1.392,1,2,0,2,0,1,,,,,,,,,,,,,
666e0c42ac414869ed22fbc5,SCN,2024-06-24_13h48.27.335,LearnStrategy,2023.2.3,Win32,3.36813742,9,1,4,0.201822917,0.061197917,1,0,0,1.6902,Andesite_09,1,09,4,6,1.69,-0.3984375,-0.263020833,1,0,0,4.587,Andesite_rect,1,4.587,1,3,0,3,0,1,,,,,,,,,,,,,
666e0c42ac414869ed22fbc5,SCN,2024-06-24_13h48.27.335,LearnStrategy,2023.2.3,Win32,3.36813742,9,1,5,0.59375,-0.106770833,1,0,0,1.2831,Basalt_08,2,08,3,8,1.283,-0.114583333,-0.247395833,1,0,0,2.6299,Basalt_rect,2,2.63,1,4,0,4,0,1,,,,,,,,,,,,,
666e0c42ac414869ed22fbc5,SCN,2024-06-24_13h48.27.335,LearnStrategy,2023.2.3,Win32,3.36813742,9,1,6,-0.376302083,-0.407552083,1,0,0,1.7603,Obsidian_04,5,04,1,2,1.76,-0.364583333,-0.38671875,1,0,0,2.6997,Obsidian_rect,5,2.7,1,5,0,5,0,1,,,,,,,,,,,,,
666e0c42ac414869ed22fbc5,SCN,2024-06-24_13h48.27.335,LearnStrategy,2023.2.3,Win32,3.36813742,9,1,7,-0.071614583,-0.375,1,0,0,1.3825,Pegmatite_10,6,10,1,4,1.382,-0.139322917,-0.399739583,1,0,0,0.9556,Pegmatite_rect,6,0.956,1,6,0,6,0,1,,,,,,,,,,,,,
666e0c42ac414869ed22fbc5,SCN,2024-06-24_13h48.27.335,LearnStrategy,2023.2.3,Win32,3.36813742,9,1,8,0.205729167,-0.390625,1,0,0,1.2634,Basalt_09,2,09,1,6,1.263,-0.10546875,-0.25390625,1,0,0,1.3669,Basalt_rect,2,1.367,1,7,0,7,0,1,,,,,,,,,,,,,
666e0c42ac414869ed22fbc5,SCN,2024-06-24_13h48.27.335,LearnStrategy,2023.2.3,Win32,3.36813742,9,1,9,0.100260417,0.296875,1,0,0,1.2679,Basalt_11,2,11,5,5,1.268,-0.134114583,-0.264322917,1,0,0,6.3034,Basalt_rect,2,6.303,1,8,0,8,0,1,,,,,,,,,,,,,
666e0c42ac414869ed22fbc5,SCN,2024-06-24_13h48.27.335,LearnStrategy,2023.2.3,Win32,3.36813742,9,1,10,-0.375,0.079427083,1,0,0,3.8481,Pumice_04,8,04,4,2,3.848,0.377604167,-0.39453125,1,0,0,3.1051,Pumice_rect,8,3.105,1,9,0,9,0,1,,,,,,,,,,,,,
666e0c42ac414869ed22fbc5,SCN,2024-06-24_13h48.27.335,LearnStrategy,2023.2.3,Win32,3.36813742,9,1,11,0.51953125,0.115885417,1,0,0,1.257,Obsidian_07,5,07,4,8,1.257,-0.143229167,-0.3828125,1,0,0,3.219,Pegmatite_rect,6,3.219,0,10,0,10,0,1,,,,,,,,,,,,,
666e0c42ac414869ed22fbc5,SCN,2024-06-24_13h48.27.335,LearnStrategy,2023.2.3,Win32,3.36813742,9,1,12,0.205729167,-0.079427083,1,0,0,1.2912,Andesite_04,1,04,3,6,1.291,-0.393229167,-0.263020833,1,0,0,2.7065,Andesite_rect,1,2.707,1,11,0,11,0,1,,,,,,,,,,,,,
666e0c42ac414869ed22fbc5,SCN,2024-06-24_13h48.27.335,LearnStrategy,2023.2.3,Win32,3.36813742,9,1,13,0.5234375,-0.235677083,1,0,0,1.7112,Obsidian_08,5,08,2,8,1.711,-0.408854167,-0.390625,1,0,0,2.7283,Obsidian_rect,5,2.728,1,12,0,12,0,1,,,,,,,,,,,,,
666e0c42ac414869ed22fbc5,SCN,2024-06-24_13h48.27.335,LearnStrategy,2023.2.3,Win32,3.36813742,9,1,14,-0.434895833,-0.084635417,1,0,0,1.7088,Pumice_10,8,10,3,2,1.709,0.381510417,-0.412760417,1,0,0,2.2545,Pumice_rect,8,2.255,1,13,0,13,0,1,,,,,,,,,,,,,
666e0c42ac414869ed22fbc5,SCN,2024-06-24_13h48.27.335,LearnStrategy,2023.2.3,Win32,3.36813742,9,1,15,0.075520833,-0.091145833,1,0,0,2.0974,Obsidian_06,5,06,3,5,2.097,-0.127604167,-0.385416667,1,0,0,1.3455,Pegmatite_rect,6,1.345,0,14,0,14,0,1,,,,,,,,,,,,,
666e0c42ac414869ed22fbc5,SCN,2024-06-24_13h48.27.335,LearnStrategy,2023.2.3,Win32,3.36813742,9,1,16,-0.365885417,0.065104167,1,0,0,1.7141,Pumice_04,8,04,4,2,1.714,0.350260417,-0.38671875,1,0,0,3.0715,Pumice_rect,8,3.072,1,15,0,15,0,1,,,,,,,,,,,,,
666e0c42ac414869ed22fbc5,SCN,2024-06-24_13h48.27.335,LearnStrategy,2023.2.3,Win32,3.36813742,9,2,1,,,,,,,,5,10,,,,,,,,,,,5,7.544,1,,,,,,-0.41796875,-0.395833333,1,0,0,7.5436,Obsidian_rect,0,0,0,0,1,
666e0c42ac414869ed22fbc5,SCN,2024-06-24_13h48.27.335,LearnStrategy,2023.2.3,Win32,3.36813742,9,2,2,,,,,,,,6,07,,,,,,,,,,,6,1.911,1,,,,,,-0.131510417,-0.41015625,1,0,0,1.9108,Pegmatite_rect,1,0,1,0,1,
666e0c42ac414869ed22fbc5,SCN,2024-06-24_13h48.27.335,LearnStrategy,2023.2.3,Win32,3.36813742,9,2,3,,,,,,,,2,06,,,,,,,,,,,2,2.234,1,,,,,,-0.15234375,-0.244791667,1,0,0,2.2341,Basalt_rect,2,0,2,0,1,
666e0c42ac414869ed22fbc5,SCN,2024-06-24_13h48.27.335,LearnStrategy,2023.2.3,Win32,3.36813742,9,2,4,,,,,,,,7,14,,,,,,,,,,,7,4.059,1,,,,,,0.118489583,-0.391927083,1,0,0,4.059,Peridotite_rect,3,0,3,0,1,
666e0c42ac414869ed22fbc5,SCN,2024-06-24_13h48.27.335,LearnStrategy,2023.2.3,Win32,3.36813742,9,2,5,,,,,,,,7,15,,,,,,,,,,,7,1.372,1,,,,,,0.111979167,-0.403645833,1,0,0,1.3722,Peridotite_rect,4,0,4,0,1,
666e0c42ac414869ed22fbc5,SCN,2024-06-24_13h48.27.335,LearnStrategy,2023.2.3,Win32,3.36813742,9,2,6,,,,,,,,1,06,,,,,,,,,,,1,1.815,1,,,,,,-0.3828125,-0.255208333,1,0,0,1.8154,Andesite_rect,5,0,5,0,1,
666e0c42ac414869ed22fbc5,SCN,2024-06-24_13h48.27.335,LearnStrategy,2023.2.3,Win32,3.36813742,9,2,7,,,,,,,,6,13,,,,,,,,,,,6,1.492,1,,,,,,-0.091145833,-0.40234375,1,0,0,1.4921,Pegmatite_rect,6,0,6,0,1,
666e0c42ac414869ed22fbc5,SCN,2024-06-24_13h48.27.335,LearnStrategy,2023.2.3,Win32,3.36813742,9,2,8,,,,,,,,3,11,,,,,,,,,,,3,3.107,1,,,,,,0.092447917,-0.260416667,1,0,0,3.1074,Diorite_rect,7,0,7,0,1,
666e0c42ac414869ed22fbc5,SCN,2024-06-24_13h48.27.335,LearnStrategy,2023.2.3,Win32,3.36813742,9,2,9,,,,,,,,2,02,,,,,,,,,,,2,3.109,1,,,,,,-0.138020833,-0.248697917,1,0,0,3.1091,Basalt_rect,8,0,8,0,1,
666e0c42ac414869ed22fbc5,SCN,2024-06-24_13h48.27.335,LearnStrategy,2023.2.3,Win32,3.36813742,9,2,10,,,,,,,,8,16,,,,,,,,,,,8,3.547,1,,,,,,0.395833333,-0.408854167,1,0,0,3.5466,Pumice_rect,9,0,9,0,1,
666e0c42ac414869ed22fbc5,SCN,2024-06-24_13h48.27.335,LearnStrategy,2023.2.3,Win32,3.36813742,9,2,11,,,,,,,,8,06,,,,,,,,,,,8,1.452,1,,,,,,0.434895833,-0.40234375,1,0,0,1.4525,Pumice_rect,10,0,10,0,1,
666e0c42ac414869ed22fbc5,SCN,2024-06-24_13h48.27.335,LearnStrategy,2023.2.3,Win32,3.36813742,9,2,12,,,,,,,,1,03,,,,,,,,,,,1,2.328,1,,,,,,-0.393229167,-0.255208333,1,0,0,2.3276,Andesite_rect,11,0,11,0,1,
666e0c42ac414869ed22fbc5,SCN,2024-06-24_13h48.27.335,LearnStrategy,2023.2.3,Win32,3.36813742,9,2,13,,,,,,,,5,05,,,,,,,,,,,5,2.76,1,,,,,,-0.39453125,-0.403645833,1,0,0,2.7597,Obsidian_rect,12,0,12,0,1,
666e0c42ac414869ed22fbc5,SCN,2024-06-24_13h48.27.335,LearnStrategy,2023.2.3,Win32,3.36813742,9,2,14,,,,,,,,4,03,,,,,,,,,,,4,3.523,1,,,,,,0.325520833,-0.260416667,1,0,0,3.5229,Gabbro_rect,13,0,13,0,1,
666e0c42ac414869ed22fbc5,SCN,2024-06-24_13h48.27.335,LearnStrategy,2023.2.3,Win32,3.36813742,9,2,15,,,,,,,,4,16,,,,,,,,,,,4,6.429,1,,,,,,0.38671875,-0.25,1,0,0,6.4287,Gabbro_rect,14,0,14,0,1,
666e0c42ac414869ed22fbc5,SCN,2024-06-24_13h48.27.335,LearnStrategy,2023.2.3,Win32,3.36813742,9,2,16,,,,,,,,3,08,,,,,,,,,,,3,1.359,1,,,,,,0.126302083,-0.244791667,1,0,0,1.3594,Diorite_rect,15,0,15,0,1,
666e0c42ac414869ed22fbc5,SCN,2024-06-24_13h48.27.335,LearnStrategy,2023.2.3,Win32,3.36813742,,,,,,,,,,,,,,,,,,,,,,,,,,,,,,,,,,,,,,,,,,,1
666e0c42ac414869ed22fbc5,SCN,2024-06-24_13h48.27.335,LearnStrategy,2023.2.3,Win32,3.36813742,,,,,,,,,,,,,,,,,,,,,,,,,,,,,,,,,,,,,,,,,,,
666e0c42ac414869ed22fbc5,SCN,2024-06-24_13h48.27.335,LearnStrategy,2023.2.3,Win32,3.36813742,,,,,,,,,,,8,14,1,1,,,,,,,,,,,,,,,,,,,,,,,,,,,,,
666e0c42ac414869ed22fbc5,SCN,2024-06-24_13h48.27.335,LearnStrategy,2023.2.3,Win32,3.36813742,,,,,,,,,,,5,04,1,2,,,,,,,,,,,,,,,,,,,,,,,,,,,,,
666e0c42ac414869ed22fbc5,SCN,2024-06-24_13h48.27.335,LearnStrategy,2023.2.3,Win32,3.36813742,,,,,,,,,,,5,14,1,3,,,,,,,,,,,,,,,,,,,,,,,,,,,,,
666e0c42ac414869ed22fbc5,SCN,2024-06-24_13h48.27.335,LearnStrategy,2023.2.3,Win32,3.36813742,,,,,,,,,,,6,10,1,4,,,,,,,,,,,,,,,,,,,,,,,,,,,,,
666e0c42ac414869ed22fbc5,SCN,2024-06-24_13h48.27.335,LearnStrategy,2023.2.3,Win32,3.36813742,,,,,,,,,,,4,11,1,5,,,,,,,,,,,,,,,,,,,,,,,,,,,,,
666e0c42ac414869ed22fbc5,SCN,2024-06-24_13h48.27.335,LearnStrategy,2023.2.3,Win32,3.36813742,,,,,,,,,,,2,09,1,6,,,,,,,,,,,,,,,,,,,,,,,,,,,,,
666e0c42ac414869ed22fbc5,SCN,2024-06-24_13h48.27.335,LearnStrategy,2023.2.3,Win32,3.36813742,,,,,,,,,,,3,16,1,7,,,,,,,,,,,,,,,,,,,,,,,,,,,,,
666e0c42ac414869ed22fbc5,SCN,2024-06-24_13h48.27.335,LearnStrategy,2023.2.3,Win32,3.36813742,,,,,,,,,,,3,13,1,8,,,,,,,,,,,,,,,,,,,,,,,,,,,,,
666e0c42ac414869ed22fbc5,SCN,2024-06-24_13h48.27.335,LearnStrategy,2023.2.3,Win32,3.36813742,,,,,,,,,,,6,06,2,1,,,,,,,,,,,,,,,,,,,,,,,,,,,,,
666e0c42ac414869ed22fbc5,SCN,2024-06-24_13h48.27.335,LearnStrategy,2023.2.3,Win32,3.36813742,,,,,,,,,,,3,15,2,2,,,,,,,,,,,,,,,,,,,,,,,,,,,,,
666e0c42ac414869ed22fbc5,SCN,2024-06-24_13h48.27.335,LearnStrategy,2023.2.3,Win32,3.36813742,,,,,,,,,,,2,10,2,3,,,,,,,,,,,,,,,,,,,,,,,,,,,,,
666e0c42ac414869ed22fbc5,SCN,2024-06-24_13h48.27.335,LearnStrategy,2023.2.3,Win32,3.36813742,,,,,,,,,,,4,12,2,4,,,,,,,,,,,,,,,,,,,,,,,,,,,,,
666e0c42ac414869ed22fbc5,SCN,2024-06-24_13h48.27.335,LearnStrategy,2023.2.3,Win32,3.36813742,,,,,,,,,,,1,02,2,5,,,,,,,,,,,,,,,,,,,,,,,,,,,,,
666e0c42ac414869ed22fbc5,SCN,2024-06-24_13h48.27.335,LearnStrategy,2023.2.3,Win32,3.36813742,,,,,,,,,,,4,08,2,6,,,,,,,,,,,,,,,,,,,,,,,,,,,,,
666e0c42ac414869ed22fbc5,SCN,2024-06-24_13h48.27.335,LearnStrategy,2023.2.3,Win32,3.36813742,,,,,,,,,,,6,11,2,7,,,,,,,,,,,,,,,,,,,,,,,,,,,,,
666e0c42ac414869ed22fbc5,SCN,2024-06-24_13h48.27.335,LearnStrategy,2023.2.3,Win32,3.36813742,,,,,,,,,,,5,08,2,8,,,,,,,,,,,,,,,,,,,,,,,,,,,,,
666e0c42ac414869ed22fbc5,SCN,2024-06-24_13h48.27.335,LearnStrategy,2023.2.3,Win32,3.36813742,,,,,,,,,,,6,15,3,1,,,,,,,,,,,,,,,,,,,,,,,,,,,,,
666e0c42ac414869ed22fbc5,SCN,2024-06-24_13h48.27.335,LearnStrategy,2023.2.3,Win32,3.36813742,,,,,,,,,,,8,10,3,2,,,,,,,,,,,,,,,,,,,,,,,,,,,,,
666e0c42ac414869ed22fbc5,SCN,2024-06-24_13h48.27.335,LearnStrategy,2023.2.3,Win32,3.36813742,,,,,,,,,,,8,02,3,3,,,,,,,,,,,,,,,,,,,,,,,,,,,,,
666e0c42ac414869ed22fbc5,SCN,2024-06-24_13h48.27.335,LearnStrategy,2023.2.3,Win32,3.36813742,,,,,,,,,,,1,14,3,4,,,,,,,,,,,,,,,,,,,,,,,,,,,,,
666e0c42ac414869ed22fbc5,SCN,2024-06-24_13h48.27.335,LearnStrategy,2023.2.3,Win32,3.36813742,,,,,,,,,,,5,06,3,5,,,,,,,,,,,,,,,,,,,,,,,,,,,,,
666e0c42ac414869ed22fbc5,SCN,2024-06-24_13h48.27.335,LearnStrategy,2023.2.3,Win32,3.36813742,,,,,,,,,,,1,04,3,6,,,,,,,,,,,,,,,,,,,,,,,,,,,,,
666e0c42ac414869ed22fbc5,SCN,2024-06-24_13h48.27.335,LearnStrategy,2023.2.3,Win32,3.36813742,,,,,,,,,,,7,05,3,7,,,,,,,,,,,,,,,,,,,,,,,,,,,,,
666e0c42ac414869ed22fbc5,SCN,2024-06-24_13h48.27.335,LearnStrategy,2023.2.3,Win32,3.36813742,,,,,,,,,,,2,08,3,8,,,,,,,,,,,,,,,,,,,,,,,,,,,,,
666e0c42ac414869ed22fbc5,SCN,2024-06-24_13h48.27.335,LearnStrategy,2023.2.3,Win32,3.36813742,,,,,,,,,,,7,08,4,1,,,,,,,,,,,,,,,,,,,,,,,,,,,,,
666e0c42ac414869ed22fbc5,SCN,2024-06-24_13h48.27.335,LearnStrategy,2023.2.3,Win32,3.36813742,,,,,,,,,,,8,04,4,2,,,,,,,,,,,,,,,,,,,,,,,,,,,,,
666e0c42ac414869ed22fbc5,SCN,2024-06-24_13h48.27.335,LearnStrategy,2023.2.3,Win32,3.36813742,,,,,,,,,,,4,01,4,3,,,,,,,,,,,,,,,,,,,,,,,,,,,,,
666e0c42ac414869ed22fbc5,SCN,2024-06-24_13h48.27.335,LearnStrategy,2023.2.3,Win32,3.36813742,,,,,,,,,,,4,13,4,4,,,,,,,,,,,,,,,,,,,,,,,,,,,,,
666e0c42ac414869ed22fbc5,SCN,2024-06-24_13h48.27.335,LearnStrategy,2023.2.3,Win32,3.36813742,,,,,,,,,,,8,03,4,5,,,,,,,,,,,,,,,,,,,,,,,,,,,,,
666e0c42ac414869ed22fbc5,SCN,2024-06-24_13h48.27.335,LearnStrategy,2023.2.3,Win32,3.36813742,,,,,,,,,,,1,09,4,6,,,,,,,,,,,,,,,,,,,,,,,,,,,,,
666e0c42ac414869ed22fbc5,SCN,2024-06-24_13h48.27.335,LearnStrategy,2023.2.3,Win32,3.36813742,,,,,,,,,,,7,07,4,7,,,,,,,,,,,,,,,,,,,,,,,,,,,,,
666e0c42ac414869ed22fbc5,SCN,2024-06-24_13h48.27.335,LearnStrategy,2023.2.3,Win32,3.36813742,,,,,,,,,,,5,07,4,8,,,,,,,,,,,,,,,,,,,,,,,,,,,,,
666e0c42ac414869ed22fbc5,SCN,2024-06-24_13h48.27.335,LearnStrategy,2023.2.3,Win32,3.36813742,,,,,,,,,,,7,06,5,1,,,,,,,,,,,,,,,,,,,,,,,,,,,,,
666e0c42ac414869ed22fbc5,SCN,2024-06-24_13h48.27.335,LearnStrategy,2023.2.3,Win32,3.36813742,,,,,,,,,,,5,09,5,2,,,,,,,,,,,,,,,,,,,,,,,,,,,,,
666e0c42ac414869ed22fbc5,SCN,2024-06-24_13h48.27.335,LearnStrategy,2023.2.3,Win32,3.36813742,,,,,,,,,,,2,16,5,3,,,,,,,,,,,,,,,,,,,,,,,,,,,,,
666e0c42ac414869ed22fbc5,SCN,2024-06-24_13h48.27.335,LearnStrategy,2023.2.3,Win32,3.36813742,,,,,,,,,,,6,03,5,4,,,,,,,,,,,,,,,,,,,,,,,,,,,,,
666e0c42ac414869ed22fbc5,SCN,2024-06-24_13h48.27.335,LearnStrategy,2023.2.3,Win32,3.36813742,,,,,,,,,,,2,11,5,5,,,,,,,,,,,,,,,,,,,,,,,,,,,,,
666e0c42ac414869ed22fbc5,SCN,2024-06-24_13h48.27.335,LearnStrategy,2023.2.3,Win32,3.36813742,,,,,,,,,,,8,08,5,6,,,,,,,,,,,,,,,,,,,,,,,,,,,,,
666e0c42ac414869ed22fbc5,SCN,2024-06-24_13h48.27.335,LearnStrategy,2023.2.3,Win32,3.36813742,,,,,,,,,,,7,02,5,7,,,,,,,,,,,,,,,,,,,,,,,,,,,,,
666e0c42ac414869ed22fbc5,SCN,2024-06-24_13h48.27.335,LearnStrategy,2023.2.3,Win32,3.36813742,,,,,,,,,,,2,12,5,8,,,,,,,,,,,,,,,,,,,,,,,,,,,,,
666e0c42ac414869ed22fbc5,SCN,2024-06-24_13h48.27.335,LearnStrategy,2023.2.3,Win32,3.36813742,,,,,,,,,,,4,15,6,1,,,,,,,,,,,,,,,,,,,,,,,,,,,,,
666e0c42ac414869ed22fbc5,SCN,2024-06-24_13h48.27.335,LearnStrategy,2023.2.3,Win32,3.36813742,,,,,,,,,,,1,16,6,2,,,,,,,,,,,,,,,,,,,,,,,,,,,,,
666e0c42ac414869ed22fbc5,SCN,2024-06-24_13h48.27.335,LearnStrategy,2023.2.3,Win32,3.36813742,,,,,,,,,,,3,10,6,3,,,,,,,,,,,,,,,,,,,,,,,,,,,,,
666e0c42ac414869ed22fbc5,SCN,2024-06-24_13h48.27.335,LearnStrategy,2023.2.3,Win32,3.36813742,,,,,,,,,,,3,12,6,4,,,,,,,,,,,,,,,,,,,,,,,,,,,,,
666e0c42ac414869ed22fbc5,SCN,2024-06-24_13h48.27.335,LearnStrategy,2023.2.3,Win32,3.36813742,,,,,,,,,,,1,05,6,5,,,,,,,,,,,,,,,,,,,,,,,,,,,,,
666e0c42ac414869ed22fbc5,SCN,2024-06-24_13h48.27.335,LearnStrategy,2023.2.3,Win32,3.36813742,,,,,,,,,,,3,07,6,6,,,,,,,,,,,,,,,,,,,,,,,,,,,,,
666e0c42ac414869ed22fbc5,SCN,2024-06-24_13h48.27.335,LearnStrategy,2023.2.3,Win32,3.36813742,,,,,,,,,,,6,08,6,7,,,,,,,,,,,,,,,,,,,,,,,,,,,,,
666e0c42ac414869ed22fbc5,SCN,2024-06-24_13h48.27.335,LearnStrategy,2023.2.3,Win32,3.36813742,,,,,,,,,,,7,16,6,8,,,,,,,,,,,,,,,,,,,,,,,,,,,,,