participant,condition,date,expName,psychopyVersion,OS,frameRate,block,phase,trial,learn_mouse_2.x,learn_mouse_2.y,learn_mouse_2.leftButton,learn_mouse_2.midButton,learn_mouse_2.rightButton,learn_mouse_2.time,learn_mouse_2.clicked_name,cat,token,row,col,t_select,cat_mouse_l.x,cat_mouse_l.y,cat_mouse_l.leftButton,cat_mouse_l.midButton,cat_mouse_l.rightButton,cat_mouse_l.time,cat_mouse_l.clicked_name,resp,t_resp,corr,train_trials.thisRepN,train_trials.thisTrialN,train_trials.thisN,train_trials.thisIndex,train_trials.ran,cat_mouse_t.x,cat_mouse_t.y,cat_mouse_t.leftButton,cat_mouse_t.midButton,cat_mouse_t.rightButton,cat_mouse_t.time,cat_mouse_t.clicked_name,test_trials.thisRepN,test_trials.thisTrialN,test_trials.thisN,test_trials.thisIndex,test_trials.ran,Bonus
6672366d37b522399f42e13a,TCN,2024-06-25_14h18.11.262,LearnStrategy,2023.2.3,Win32,59.88023952,,,,,,,,,,,,,,,,,,,,,,,,,,,,,,,,,,,,,,,,,,,
6672366d37b522399f42e13a,TCN,2024-06-25_14h18.11.262,LearnStrategy,2023.2.3,Win32,59.88023952,1,1,1,0.103703746,0.000925912,1,0,0,5.637,rock_grid_rect_2,3,11,-1,-1,5.637,0.176851838,-0.231481481,1,0,0,154.7066,Diorite_rect,3,154.707,1,0,0,0,0,1,,,,,,,,,,,,,
6672366d37b522399f42e13a,TCN,2024-06-25_14h18.11.262,LearnStrategy,2023.2.3,Win32,59.88023952,1,1,2,0.10555557,0.001851859,1,0,0,3.2854,rock_grid_rect_2,8,6,-1,-1,3.285,-0.140740712,-0.380555541,1,0,0,56.9749,Pegmatite_rect,6,56.975,0,1,0,1,0,1,,,,,,,,,,,,,
6672366d37b522399f42e13a,TCN,2024-06-25_14h18.11.262,LearnStrategy,2023.2.3,Win32,59.88023952,1,1,3,0.126851894,-0.009259259,1,0,0,1.6728,rock_grid_rect_2,2,4,-1,-1,1.673,0.411111196,-0.233333376,1,0,0,2.827,Gabbro_rect,4,2.827,0,2,0,2,0,1,,,,,,,,,,,,,
6672366d37b522399f42e13a,TCN,2024-06-25_14h18.11.262,LearnStrategy,2023.2.3,Win32,59.88023952,1,1,4,0.134259259,0.011111118,1,0,0,1.2732,rock_grid_rect_2,7,13,-1,-1,1.273,-0.352777764,-0.24537037,1,0,0,1.5266,Andesite_rect,1,1.527,0,3,0,3,0,1,,,,,,,,,,,,,
6672366d37b522399f42e13a,TCN,2024-06-25_14h18.11.262,LearnStrategy,2023.2.3,Win32,59.88023952,1,1,5,0.106481481,0,1,0,0,2.1237,rock_grid_rect_2,1,4,-1,-1,2.124,-0.14907406,-0.252777806,1,0,0,2.4275,Basalt_rect,2,2.428,0,4,0,4,0,1,,,,,,,,,,,,,
6672366d37b522399f42e13a,TCN,2024-06-25_14h18.11.262,LearnStrategy,2023.2.3,Win32,59.88023952,1,1,6,0.161111125,-0.000925947,1,0,0,1.3899,rock_grid_rect_2,5,16,-1,-1,1.39,-0.357407393,-0.259259259,1,0,0,2.2388,Andesite_rect,1,2.239,0,5,0,5,0,1,,,,,,,,,,,,,
6672366d37b522399f42e13a,TCN,2024-06-25_14h18.11.262,LearnStrategy,2023.2.3,Win32,59.88023952,1,1,7,0.068518533,-0.00462963,1,0,0,1.2998,rock_grid_rect_2,3,9,-1,-1,1.3,0.393518519,-0.39907406,1,0,0,1.6305,Pumice_rect,8,1.63,0,6,0,6,0,1,,,,,,,,,,,,,
6672366d37b522399f42e13a,TCN,2024-06-25_14h18.11.262,LearnStrategy,2023.2.3,Win32,59.88023952,1,1,8,0.121296282,0.002777771,1,0,0,1.5721,rock_grid_rect_2,6,3,-1,-1,1.572,-0.078703704,-0.393518519,1,0,0,2.1599,Pegmatite_rect,6,2.16,1,7,0,7,0,1,,,,,,,,,,,,,
6672366d37b522399f42e13a,TCN,2024-06-25_14h18.11.262,LearnStrategy,2023.2.3,Win32,59.88023952,1,1,9,0.087037051,0.001851859,1,0,0,1.1731,rock_grid_rect_2,6,6,-1,-1,1.173,-0.109259217,-0.263888889,1,0,0,4.0893,Basalt_rect,2,4.089,0,8,0,8,0,1,,,,,,,,,,,,,
6672366d37b522399f42e13a,TCN,2024-06-25_14h18.11.262,LearnStrategy,2023.2.3,Win32,59.88023952,1,1,10,0.062037079,0,1,0,0,2.1705,rock_grid_rect_2,4,1,-1,-1,2.171,-0.387962942,-0.270370413,1,0,0,2.1091,Andesite_rect,1,2.109,0,9,0,9,0,1,,,,,,,,,,,,,
6672366d37b522399f42e13a,TCN,2024-06-25_14h18.11.262,LearnStrategy,2023.2.3,Win32,59.88023952,1,1,11,0.132407436,-0.001851859,1,0,0,1.2868,rock_grid_rect_2,5,14,-1,-1,1.287,0.110185199,-0.391666695,1,0,0,2.594,Peridotite_rect,7,2.594,0,10,0,10,0,1,,,,,,,,,,,,,
6672366d37b522399f42e13a,TCN,2024-06-25_14h18.11.262,LearnStrategy,2023.2.3,Win32,59.88023952,1,1,12,0.083333333,-0.003703718,1,0,0,1.22,rock_grid_rect_2,1,9,-1,-1,1.22,-0.130555541,-0.387962977,1,0,0,1.8418,Pegmatite_rect,6,1.842,0,11,0,11,0,1,,,,,,,,,,,,,
6672366d37b522399f42e13a,TCN,2024-06-25_14h18.11.262,LearnStrategy,2023.2.3,Win32,59.88023952,1,1,13,0.119444459,-0.002777771,1,0,0,1.0883,rock_grid_rect_2,8,13,-1,-1,1.088,-0.146296254,-0.391666695,1,0,0,3.9276,Pegmatite_rect,6,3.928,0,12,0,12,0,1,,,,,,,,,,,,,
6672366d37b522399f42e13a,TCN,2024-06-25_14h18.11.262,LearnStrategy,2023.2.3,Win32,59.88023952,1,1,14,0.135185171,-0.006481489,1,0,0,1.3219,rock_grid_rect_2,7,5,-1,-1,1.322,-0.3675926,-0.37962963,1,0,0,2.2103,Obsidian_rect,5,2.21,0,13,0,13,0,1,,,,,,,,,,,,,
6672366d37b522399f42e13a,TCN,2024-06-25_14h18.11.262,LearnStrategy,2023.2.3,Win32,59.88023952,1,1,15,0.12962963,-0.001851859,1,0,0,1.5188,rock_grid_rect_2,4,10,-1,-1,1.519,0.394444501,-0.37962963,1,0,0,1.9108,Pumice_rect,8,1.911,0,14,0,14,0,1,,,,,,,,,,,,,
6672366d37b522399f42e13a,TCN,2024-06-25_14h18.11.262,LearnStrategy,2023.2.3,Win32,59.88023952,1,1,16,0.163888931,-0.008333347,1,0,0,1.5903,rock_grid_rect_2,2,10,-1,-1,1.59,-0.142592607,-0.387962977,1,0,0,1.5947,Pegmatite_rect,6,1.595,0,15,0,15,0,1,,,,,,,,,,,,,
6672366d37b522399f42e13a,TCN,2024-06-25_14h18.11.262,LearnStrategy,2023.2.3,Win32,59.88023952,1,2,1,,,,,,,,7,4,,,,,,,,,,,1,63.674,0,,,,,,-0.343518504,-0.240740741,1,0,0,63.6736,Andesite_rect,0,0,0,0,1,
6672366d37b522399f42e13a,TCN,2024-06-25_14h18.11.262,LearnStrategy,2023.2.3,Win32,59.88023952,1,2,2,,,,,,,,8,2,,,,,,,,,,,8,44.947,1,,,,,,0.406481566,-0.39444443,1,0,0,44.9465,Pumice_rect,1,0,1,0,1,
6672366d37b522399f42e13a,TCN,2024-06-25_14h18.11.262,LearnStrategy,2023.2.3,Win32,59.88023952,1,2,3,,,,,,,,4,13,,,,,,,,,,,3,25.569,0,,,,,,0.187037079,-0.248148176,1,0,0,25.5691,Diorite_rect,2,0,2,0,1,
6672366d37b522399f42e13a,TCN,2024-06-25_14h18.11.262,LearnStrategy,2023.2.3,Win32,59.88023952,1,2,4,,,,,,,,2,14,,,,,,,,,,,1,21.47,0,,,,,,-0.377777771,-0.260185171,1,0,0,21.4696,Andesite_rect,3,0,3,0,1,
6672366d37b522399f42e13a,TCN,2024-06-25_14h18.11.262,LearnStrategy,2023.2.3,Win32,59.88023952,1,2,5,,,,,,,,8,3,,,,,,,,,,,8,22.734,1,,,,,,0.358333305,-0.37962963,1,0,0,22.7344,Pumice_rect,4,0,4,0,1,
6672366d37b522399f42e13a,TCN,2024-06-25_14h18.11.262,LearnStrategy,2023.2.3,Win32,59.88023952,1,2,6,,,,,,,,1,16,,,,,,,,,,,1,8.122,1,,,,,,-0.349074081,-0.250925912,1,0,0,8.1216,Andesite_rect,5,0,5,0,1,
6672366d37b522399f42e13a,TCN,2024-06-25_14h18.11.262,LearnStrategy,2023.2.3,Win32,59.88023952,1,2,7,,,,,,,,3,6,,,,,,,,,,,3,9.139,1,,,,,,0.087962963,-0.261111153,1,0,0,9.1385,Diorite_rect,6,0,6,0,1,
6672366d37b522399f42e13a,TCN,2024-06-25_14h18.11.262,LearnStrategy,2023.2.3,Win32,59.88023952,1,2,8,,,,,,,,7,14,,,,,,,,,,,4,20.681,0,,,,,,0.381481453,-0.258333347,1,0,0,20.6809,Gabbro_rect,7,0,7,0,1,
6672366d37b522399f42e13a,TCN,2024-06-25_14h18.11.262,LearnStrategy,2023.2.3,Win32,59.88023952,1,2,9,,,,,,,,4,16,,,,,,,,,,,6,5.772,0,,,,,,-0.175000014,-0.393518519,1,0,0,5.7721,Pegmatite_rect,8,0,8,0,1,
6672366d37b522399f42e13a,TCN,2024-06-25_14h18.11.262,LearnStrategy,2023.2.3,Win32,59.88023952,1,2,10,,,,,,,,2,9,,,,,,,,,,,5,3.309,0,,,,,,-0.364814794,-0.389814801,1,0,0,3.3089,Obsidian_rect,9,0,9,0,1,
6672366d37b522399f42e13a,TCN,2024-06-25_14h18.11.262,LearnStrategy,2023.2.3,Win32,59.88023952,1,2,11,,,,,,,,5,9,,,,,,,,,,,2,28.265,0,,,,,,-0.170370384,-0.247222265,1,0,0,28.2651,Basalt_rect,10,0,10,0,1,
6672366d37b522399f42e13a,TCN,2024-06-25_14h18.11.262,LearnStrategy,2023.2.3,Win32,59.88023952,1,2,12,,,,,,,,6,9,,,,,,,,,,,3,2.07,0,,,,,,0.112037023,-0.262037065,1,0,0,2.0699,Diorite_rect,11,0,11,0,1,
6672366d37b522399f42e13a,TCN,2024-06-25_14h18.11.262,LearnStrategy,2023.2.3,Win32,59.88023952,1,2,13,,,,,,,,3,8,,,,,,,,,,,2,2.507,0,,,,,,-0.09629631,-0.25,1,0,0,2.5068,Basalt_rect,12,0,12,0,1,
6672366d37b522399f42e13a,TCN,2024-06-25_14h18.11.262,LearnStrategy,2023.2.3,Win32,59.88023952,1,2,14,,,,,,,,6,8,,,,,,,,,,,3,3.505,0,,,,,,0.12037037,-0.241666653,1,0,0,3.5049,Diorite_rect,13,0,13,0,1,
6672366d37b522399f42e13a,TCN,2024-06-25_14h18.11.262,LearnStrategy,2023.2.3,Win32,59.88023952,1,2,15,,,,,,,,1,11,,,,,,,,,,,2,1.193,0,,,,,,-0.101851852,-0.234259288,1,0,0,1.1932,Basalt_rect,14,0,14,0,1,
6672366d37b522399f42e13a,TCN,2024-06-25_14h18.11.262,LearnStrategy,2023.2.3,Win32,59.88023952,1,2,16,,,,,,,,5,4,,,,,,,,,,,7,0.706,0,,,,,,0.065740727,-0.397222236,1,0,0,0.7059,Peridotite_rect,15,0,15,0,1,
6672366d37b522399f42e13a,TCN,2024-06-25_14h18.11.262,LearnStrategy,2023.2.3,Win32,59.88023952,2,1,1,0.109259288,0.001851859,1,0,0,2.2792,rock_grid_rect_2,6,12,-1,-1,2.279,0.176851838,-0.252777806,1,0,0,2.2939,Diorite_rect,3,2.294,0,0,0,0,0,1,,,,,,,,,,,,,
6672366d37b522399f42e13a,TCN,2024-06-25_14h18.11.262,LearnStrategy,2023.2.3,Win32,59.88023952,2,1,2,-0.069444444,-0.017592607,1,0,0,3.6606,rock_grid_rect_2,2,2,-1,-1,3.661,-0.359259252,-0.237037023,1,0,0,1.2748,Andesite_rect,1,1.275,0,1,0,1,0,1,,,,,,,,,,,,,
6672366d37b522399f42e13a,TCN,2024-06-25_14h18.11.262,LearnStrategy,2023.2.3,Win32,59.88023952,2,1,3,0.086111139,-0.010185206,1,0,0,1.3823,rock_grid_rect_2,3,10,-1,-1,1.382,0.107407393,-0.249074088,1,0,0,1.208,Diorite_rect,3,1.208,1,2,0,2,0,1,,,,,,,,,,,,,
6672366d37b522399f42e13a,TCN,2024-06-25_14h18.11.262,LearnStrategy,2023.2.3,Win32,59.88023952,2,1,4,0.130555541,-0.0074074,1,0,0,1.1708,rock_grid_rect_2,5,10,-1,-1,1.171,0.362962935,-0.247222265,1,0,0,1.9868,Gabbro_rect,4,1.987,0,3,0,3,0,1,,,,,,,,,,,,,
6672366d37b522399f42e13a,TCN,2024-06-25_14h18.11.262,LearnStrategy,2023.2.3,Win32,59.88023952,2,1,5,0.020370413,0,1,0,0,1.157,rock_grid_rect_2,4,15,-1,-1,1.157,-0.137962977,-0.25462963,1,0,0,1.0793,Basalt_rect,2,1.079,0,4,0,4,0,1,,,,,,,,,,,,,
6672366d37b522399f42e13a,TCN,2024-06-25_14h18.11.262,LearnStrategy,2023.2.3,Win32,59.88023952,2,1,6,-0.012036995,-0.01203703,1,0,0,1.1544,rock_grid_rect_2,6,10,-1,-1,1.154,-0.107407393,-0.400000042,1,0,0,3.0893,Pegmatite_rect,6,3.089,1,5,0,5,0,1,,,,,,,,,,,,,
6672366d37b522399f42e13a,TCN,2024-06-25_14h18.11.262,LearnStrategy,2023.2.3,Win32,59.88023952,2,1,7,0.05277782,0.000925912,1,0,0,1.3625,rock_grid_rect_2,3,7,-1,-1,1.362,-0.375925912,-0.404629672,1,0,0,1.3763,Obsidian_rect,5,1.376,0,6,0,6,0,1,,,,,,,,,,,,,
6672366d37b522399f42e13a,TCN,2024-06-25_14h18.11.262,LearnStrategy,2023.2.3,Win32,59.88023952,2,1,8,0.150925954,-0.017592607,1,0,0,1.9132,rock_grid_rect_2,5,10,-1,-1,1.913,0.421296296,-0.255555541,1,0,0,0.9423,Gabbro_rect,4,0.942,0,7,0,7,0,1,,,,,,,,,,,,,
6672366d37b522399f42e13a,TCN,2024-06-25_14h18.11.262,LearnStrategy,2023.2.3,Win32,59.88023952,2,1,9,0.070370356,0.013888889,1,0,0,1.3637,rock_grid_rect_2,7,8,-1,-1,1.364,0.41851849,-0.417592578,1,0,0,1.6137,Pumice_rect,8,1.614,0,8,0,8,0,1,,,,,,,,,,,,,
6672366d37b522399f42e13a,TCN,2024-06-25_14h18.11.262,LearnStrategy,2023.2.3,Win32,59.88023952,2,1,10,0.059259273,0.003703683,1,0,0,1.7481,rock_grid_rect_2,4,10,-1,-1,1.748,0.119444459,-0.237963005,1,0,0,1.8445,Diorite_rect,3,1.844,0,9,0,9,0,1,,,,,,,,,,,,,
6672366d37b522399f42e13a,TCN,2024-06-25_14h18.11.262,LearnStrategy,2023.2.3,Win32,59.88023952,2,1,11,0.003703718,0.005555541,1,0,0,0.932,rock_grid_rect_2,2,4,-1,-1,0.932,0.350926011,-0.383333347,1,0,0,2.059,Pumice_rect,8,2.059,0,10,0,10,0,1,,,,,,,,,,,,,
6672366d37b522399f42e13a,TCN,2024-06-25_14h18.11.262,LearnStrategy,2023.2.3,Win32,59.88023952,2,1,12,0.030555584,-0.000925947,1,0,0,5.6272,rock_grid_rect_2,1,3,-1,-1,5.627,0.449074074,-0.262037065,1,0,0,0.8191,Gabbro_rect,4,0.819,0,11,0,11,0,1,,,,,,,,,,,,,
6672366d37b522399f42e13a,TCN,2024-06-25_14h18.11.262,LearnStrategy,2023.2.3,Win32,59.88023952,2,1,13,0.025000042,0.014814801,1,0,0,1.1497,rock_grid_rect_2,7,5,-1,-1,1.15,-0.127777735,-0.26944443,1,0,0,1.0007,Basalt_rect,2,1.001,0,12,0,12,0,1,,,,,,,,,,,,,
6672366d37b522399f42e13a,TCN,2024-06-25_14h18.11.262,LearnStrategy,2023.2.3,Win32,59.88023952,2,1,14,0.011111153,-0.020370377,1,0,0,1.1482,rock_grid_rect_2,1,1,-1,-1,1.148,-0.184259273,-0.240740741,1,0,0,1.01,Basalt_rect,2,1.01,0,13,0,13,0,1,,,,,,,,,,,,,
6672366d37b522399f42e13a,TCN,2024-06-25_14h18.11.262,LearnStrategy,2023.2.3,Win32,59.88023952,2,1,15,-0.059259273,0.008333312,1,0,0,1.9631,rock_grid_rect_2,4,3,-1,-1,1.963,-0.356481481,-0.392592607,1,0,0,2.108,Obsidian_rect,5,2.108,0,14,0,14,0,1,,,,,,,,,,,,,
6672366d37b522399f42e13a,TCN,2024-06-25_14h18.11.262,LearnStrategy,2023.2.3,Win32,59.88023952,2,1,16,-0.021296254,0.005555541,1,0,0,1.4468,rock_grid_rect_2,2,2,-1,-1,1.447,-0.102777764,-0.242592635,1,0,0,1.3927,Basalt_rect,2,1.393,1,15,0,15,0,1,,,,,,,,,,,,,
6672366d37b522399f42e13a,TCN,2024-06-25_14h18.11.262,LearnStrategy,2023.2.3,Win32,59.88023952,2,2,1,,,,,,,,5,12,,,,,,,,,,,3,2.039,0,,,,,,0.131481524,-0.237037023,1,0,0,2.0392,Diorite_rect,0,0,0,0,1,
6672366d37b522399f42e13a,TCN,2024-06-25_14h18.11.262,LearnStrategy,2023.2.3,Win32,59.88023952,2,2,2,,,,,,,,6,11,,,,,,,,,,,2,0.991,0,,,,,,-0.12037037,-0.263888889,1,0,0,0.9914,Basalt_rect,1,0,1,0,1,
6672366d37b522399f42e13a,TCN,2024-06-25_14h18.11.262,LearnStrategy,2023.2.3,Win32,59.88023952,2,2,3,,,,,,,,3,2,,,,,,,,,,,1,1.173,0,,,,,,-0.351851852,-0.238888917,1,0,0,1.1732,Andesite_rect,2,0,2,0,1,
6672366d37b522399f42e13a,TCN,2024-06-25_14h18.11.262,LearnStrategy,2023.2.3,Win32,59.88023952,2,2,4,,,,,,,,3,15,,,,,,,,,,,3,0.79,1,,,,,,0.119444459,-0.268518519,1,0,0,0.7896,Diorite_rect,3,0,3,0,1,
6672366d37b522399f42e13a,TCN,2024-06-25_14h18.11.262,LearnStrategy,2023.2.3,Win32,59.88023952,2,2,5,,,,,,,,1,10,,,,,,,,,,,1,1.023,1,,,,,,-0.413888896,-0.266666695,1,0,0,1.0231,Andesite_rect,4,0,4,0,1,
6672366d37b522399f42e13a,TCN,2024-06-25_14h18.11.262,LearnStrategy,2023.2.3,Win32,59.88023952,2,2,6,,,,,,,,4,14,,,,,,,,,,,8,0.954,0,,,,,,0.346296381,-0.396296325,1,0,0,0.9544,Pumice_rect,5,0,5,0,1,
6672366d37b522399f42e13a,TCN,2024-06-25_14h18.11.262,LearnStrategy,2023.2.3,Win32,59.88023952,2,2,7,,,,,,,,4,9,,,,,,,,,,,4,0.733,1,,,,,,0.347222222,-0.24537037,1,0,0,0.7331,Gabbro_rect,6,0,6,0,1,
6672366d37b522399f42e13a,TCN,2024-06-25_14h18.11.262,LearnStrategy,2023.2.3,Win32,59.88023952,2,2,8,,,,,,,,1,5,,,,,,,,,,,3,0.817,0,,,,,,0.085185228,-0.242592635,1,0,0,0.8172,Diorite_rect,7,0,7,0,1,
6672366d37b522399f42e13a,TCN,2024-06-25_14h18.11.262,LearnStrategy,2023.2.3,Win32,59.88023952,2,2,9,,,,,,,,7,2,,,,,,,,,,,8,0.804,0,,,,,,0.439814815,-0.398148148,1,0,0,0.8041,Pumice_rect,8,0,8,0,1,
6672366d37b522399f42e13a,TCN,2024-06-25_14h18.11.262,LearnStrategy,2023.2.3,Win32,59.88023952,2,2,10,,,,,,,,8,15,,,,,,,,,,,3,1.788,0,,,,,,0.163888931,-0.264814801,1,0,0,1.7876,Diorite_rect,9,0,9,0,1,
6672366d37b522399f42e13a,TCN,2024-06-25_14h18.11.262,LearnStrategy,2023.2.3,Win32,59.88023952,2,2,11,,,,,,,,2,12,,,,,,,,,,,1,2.035,0,,,,,,-0.333333333,-0.234259288,1,0,0,2.0347,Andesite_rect,10,0,10,0,1,
6672366d37b522399f42e13a,TCN,2024-06-25_14h18.11.262,LearnStrategy,2023.2.3,Win32,59.88023952,2,2,12,,,,,,,,2,6,,,,,,,,,,,3,0.589,0,,,,,,0.086111139,-0.257407436,1,0,0,0.5886,Diorite_rect,11,0,11,0,1,
6672366d37b522399f42e13a,TCN,2024-06-25_14h18.11.262,LearnStrategy,2023.2.3,Win32,59.88023952,2,2,13,,,,,,,,5,2,,,,,,,,,,,8,0.94,0,,,,,,0.415740826,-0.400925954,1,0,0,0.94,Pumice_rect,12,0,12,0,1,
6672366d37b522399f42e13a,TCN,2024-06-25_14h18.11.262,LearnStrategy,2023.2.3,Win32,59.88023952,2,2,14,,,,,,,,8,5,,,,,,,,,,,2,1.473,0,,,,,,-0.132407365,-0.264814801,1,0,0,1.4727,Basalt_rect,13,0,13,0,1,
6672366d37b522399f42e13a,TCN,2024-06-25_14h18.11.262,LearnStrategy,2023.2.3,Win32,59.88023952,2,2,15,,,,,,,,7,16,,,,,,,,,,,3,2.224,0,,,,,,0.134259259,-0.239814829,1,0,0,2.2243,Diorite_rect,14,0,14,0,1,
6672366d37b522399f42e13a,TCN,2024-06-25_14h18.11.262,LearnStrategy,2023.2.3,Win32,59.88023952,2,2,16,,,,,,,,6,13,,,,,,,,,,,1,1.308,0,,,,,,-0.366666653,-0.24537037,1,0,0,1.308,Andesite_rect,15,0,15,0,1,
6672366d37b522399f42e13a,TCN,2024-06-25_14h18.11.262,LearnStrategy,2023.2.3,Win32,59.88023952,3,1,1,0.032407407,-0.00462963,1,0,0,1.0973,rock_grid_rect_2,4,1,-1,-1,1.097,0.025000042,-0.244444459,1,0,0,1.8902,Diorite_rect,3,1.89,0,0,0,0,0,1,,,,,,,,,,,,,
6672366d37b522399f42e13a,TCN,2024-06-25_14h18.11.262,LearnStrategy,2023.2.3,Win32,59.88023952,3,1,2,0.056481467,-0.017592607,1,0,0,1.614,rock_grid_rect_2,1,3,-1,-1,1.614,0.140740783,-0.252777806,1,0,0,0.8747,Diorite_rect,3,0.875,0,1,0,1,0,1,,,,,,,,,,,,,
6672366d37b522399f42e13a,TCN,2024-06-25_14h18.11.262,LearnStrategy,2023.2.3,Win32,59.88023952,3,1,3,0.054629644,-0.022222236,1,0,0,1.0984,rock_grid_rect_2,5,14,-1,-1,1.098,-0.337037016,-0.262037065,1,0,0,2.7249,Andesite_rect,1,2.725,0,2,0,2,0,1,,,,,,,,,,,,,
6672366d37b522399f42e13a,TCN,2024-06-25_14h18.11.262,LearnStrategy,2023.2.3,Win32,59.88023952,3,1,4,0.099074116,0.00462963,1,0,0,1.0645,rock_grid_rect_2,6,12,-1,-1,1.064,0.368518547,-0.396296325,1,0,0,2.6413,Pumice_rect,8,2.641,0,3,0,3,0,1,,,,,,,,,,,,,
6672366d37b522399f42e13a,TCN,2024-06-25_14h18.11.262,LearnStrategy,2023.2.3,Win32,59.88023952,3,1,5,0.106481481,0.015740748,1,0,0,1.3784,rock_grid_rect_2,4,15,-1,-1,1.378,-0.09629631,-0.397222236,1,0,0,2.6906,Pegmatite_rect,6,2.691,0,4,0,4,0,1,,,,,,,,,,,,,
6672366d37b522399f42e13a,TCN,2024-06-25_14h18.11.262,LearnStrategy,2023.2.3,Win32,59.88023952,3,1,6,0.074999986,0,1,0,0,1.1466,rock_grid_rect_2,5,8,-1,-1,1.147,-0.093518504,-0.261111153,1,0,0,0.9746,Basalt_rect,2,0.975,0,5,0,5,0,1,,,,,,,,,,,,,
6672366d37b522399f42e13a,TCN,2024-06-25_14h18.11.262,LearnStrategy,2023.2.3,Win32,59.88023952,3,1,7,0.02407406,0.0074074,1,0,0,1.3133,rock_grid_rect_2,3,7,-1,-1,1.313,-0.114814829,-0.257407436,1,0,0,1.2265,Basalt_rect,2,1.226,0,6,0,6,0,1,,,,,,,,,,,,,
6672366d37b522399f42e13a,TCN,2024-06-25_14h18.11.262,LearnStrategy,2023.2.3,Win32,59.88023952,3,1,8,0.125,0.000925912,1,0,0,0.9986,rock_grid_rect_2,7,12,-1,-1,0.999,0.170370384,-0.236111111,1,0,0,1.0369,Diorite_rect,3,1.037,0,7,0,7,0,1,,,,,,,,,,,,,
6672366d37b522399f42e13a,TCN,2024-06-25_14h18.11.262,LearnStrategy,2023.2.3,Win32,59.88023952,3,1,9,0.013888889,0,1,0,0,1.0658,rock_grid_rect_2,8,14,-1,-1,1.066,-0.375,-0.416666667,1,0,0,1.8085,Obsidian_rect,5,1.809,0,8,0,8,0,1,,,,,,,,,,,,,
6672366d37b522399f42e13a,TCN,2024-06-25_14h18.11.262,LearnStrategy,2023.2.3,Win32,59.88023952,3,1,10,0.054629644,-0.0074074,1,0,0,1.481,rock_grid_rect_2,1,9,-1,-1,1.481,0.367592564,-0.244444459,1,0,0,1.0407,Gabbro_rect,4,1.041,0,9,0,9,0,1,,,,,,,,,,,,,
6672366d37b522399f42e13a,TCN,2024-06-25_14h18.11.262,LearnStrategy,2023.2.3,Win32,59.88023952,3,1,11,0.046296296,-0.005555577,1,0,0,1.298,rock_grid_rect_2,6,3,-1,-1,1.298,-0.409259266,-0.400925954,1,0,0,1.0942,Obsidian_rect,5,1.094,0,10,0,10,0,1,,,,,,,,,,,,,
6672366d37b522399f42e13a,TCN,2024-06-25_14h18.11.262,LearnStrategy,2023.2.3,Win32,59.88023952,3,1,12,0.062962991,-0.003703718,1,0,0,1.1443,rock_grid_rect_2,2,2,-1,-1,1.144,0.132407436,-0.393518519,1,0,0,1.6449,Peridotite_rect,7,1.645,0,11,0,11,0,1,,,,,,,,,,,,,
6672366d37b522399f42e13a,TCN,2024-06-25_14h18.11.262,LearnStrategy,2023.2.3,Win32,59.88023952,3,1,13,0.070370356,0.009259259,1,0,0,0.8137,rock_grid_rect_2,3,9,-1,-1,0.814,0.432407379,-0.396296325,1,0,0,1.0983,Pumice_rect,8,1.098,0,12,0,12,0,1,,,,,,,,,,,,,
6672366d37b522399f42e13a,TCN,2024-06-25_14h18.11.262,LearnStrategy,2023.2.3,Win32,59.88023952,3,1,14,0.080555598,0.006481489,1,0,0,1.348,rock_grid_rect_2,2,1,-1,-1,1.348,-0.419444437,-0.256481524,1,0,0,1.0598,Andesite_rect,1,1.06,0,13,0,13,0,1,,,,,,,,,,,,,
6672366d37b522399f42e13a,TCN,2024-06-25_14h18.11.262,LearnStrategy,2023.2.3,Win32,59.88023952,3,1,15,0.049074102,0.012962942,1,0,0,1.1315,rock_grid_rect_2,7,8,-1,-1,1.131,0.18240745,-0.236111111,1,0,0,1.0776,Diorite_rect,3,1.078,0,14,0,14,0,1,,,,,,,,,,,,,
6672366d37b522399f42e13a,TCN,2024-06-25_14h18.11.262,LearnStrategy,2023.2.3,Win32,59.88023952,3,1,16,0.025000042,0.006481489,1,0,0,1.0471,rock_grid_rect_2,8,13,-1,-1,1.047,0.392592677,-0.378703718,1,0,0,1.1109,Pumice_rect,8,1.111,1,15,0,15,0,1,,,,,,,,,,,,,
6672366d37b522399f42e13a,TCN,2024-06-25_14h18.11.262,LearnStrategy,2023.2.3,Win32,59.88023952,3,2,1,,,,,,,,2,5,,,,,,,,,,,3,3.733,0,,,,,,0.125,-0.244444459,1,0,0,3.7332,Diorite_rect,0,0,0,0,1,
6672366d37b522399f42e13a,TCN,2024-06-25_14h18.11.262,LearnStrategy,2023.2.3,Win32,59.88023952,3,2,2,,,,,,,,7,10,,,,,,,,,,,1,1.664,0,,,,,,-0.388888889,-0.241666653,1,0,0,1.6642,Andesite_rect,1,0,1,0,1,
6672366d37b522399f42e13a,TCN,2024-06-25_14h18.11.262,LearnStrategy,2023.2.3,Win32,59.88023952,3,2,3,,,,,,,,8,4,,,,,,,,,,,3,0.866,0,,,,,,0.166666667,-0.257407436,1,0,0,0.8661,Diorite_rect,2,0,2,0,1,
6672366d37b522399f42e13a,TCN,2024-06-25_14h18.11.262,LearnStrategy,2023.2.3,Win32,59.88023952,3,2,4,,,,,,,,2,8,,,,,,,,,,,1,1.223,0,,,,,,-0.388888889,-0.25,1,0,0,1.2233,Andesite_rect,3,0,3,0,1,
6672366d37b522399f42e13a,TCN,2024-06-25_14h18.11.262,LearnStrategy,2023.2.3,Win32,59.88023952,3,2,5,,,,,,,,8,9,,,,,,,,,,,8,1.508,1,,,,,,0.414814843,-0.398148148,1,0,0,1.5085,Pumice_rect,4,0,4,0,1,
6672366d37b522399f42e13a,TCN,2024-06-25_14h18.11.262,LearnStrategy,2023.2.3,Win32,59.88023952,3,2,6,,,,,,,,1,6,,,,,,,,,,,3,0.876,0,,,,,,0.127777806,-0.229629658,1,0,0,0.876,Diorite_rect,5,0,5,0,1,
6672366d37b522399f42e13a,TCN,2024-06-25_14h18.11.262,LearnStrategy,2023.2.3,Win32,59.88023952,3,2,7,,,,,,,,6,15,,,,,,,,,,,1,2.075,0,,,,,,-0.364814794,-0.238888917,1,0,0,2.0747,Andesite_rect,6,0,6,0,1,
6672366d37b522399f42e13a,TCN,2024-06-25_14h18.11.262,LearnStrategy,2023.2.3,Win32,59.88023952,3,2,8,,,,,,,,7,6,,,,,,,,,,,2,0.974,0,,,,,,-0.066666638,-0.247222265,1,0,0,0.9745,Basalt_rect,7,0,7,0,1,
6672366d37b522399f42e13a,TCN,2024-06-25_14h18.11.262,LearnStrategy,2023.2.3,Win32,59.88023952,3,2,9,,,,,,,,5,11,,,,,,,,,,,3,1.317,0,,,,,,0.133333347,-0.257407436,1,0,0,1.3175,Diorite_rect,8,0,8,0,1,
6672366d37b522399f42e13a,TCN,2024-06-25_14h18.11.262,LearnStrategy,2023.2.3,Win32,59.88023952,3,2,10,,,,,,,,1,7,,,,,,,,,,,4,1.685,0,,,,,,0.384259259,-0.24537037,1,0,0,1.6845,Gabbro_rect,9,0,9,0,1,
6672366d37b522399f42e13a,TCN,2024-06-25_14h18.11.262,LearnStrategy,2023.2.3,Win32,59.88023952,3,2,11,,,,,,,,3,12,,,,,,,,,,,8,2.517,0,,,,,,0.42777775,-0.402777778,1,0,0,2.5175,Pumice_rect,10,0,10,0,1,
6672366d37b522399f42e13a,TCN,2024-06-25_14h18.11.262,LearnStrategy,2023.2.3,Win32,59.88023952,3,2,12,,,,,,,,4,5,,,,,,,,,,,3,0.551,0,,,,,,0.211111139,-0.247222265,1,0,0,0.5511,Diorite_rect,11,0,11,0,1,
6672366d37b522399f42e13a,TCN,2024-06-25_14h18.11.262,LearnStrategy,2023.2.3,Win32,59.88023952,3,2,13,,,,,,,,5,7,,,,,,,,,,,8,0.65,0,,,,,,0.405555584,-0.387962977,1,0,0,0.65,Pumice_rect,12,0,12,0,1,
6672366d37b522399f42e13a,TCN,2024-06-25_14h18.11.262,LearnStrategy,2023.2.3,Win32,59.88023952,3,2,14,,,,,,,,6,16,,,,,,,,,,,8,0.867,0,,,,,,0.405555584,-0.387962977,1,0,0,0.8666,Pumice_rect,13,0,13,0,1,
6672366d37b522399f42e13a,TCN,2024-06-25_14h18.11.262,LearnStrategy,2023.2.3,Win32,59.88023952,3,2,15,,,,,,,,4,12,,,,,,,,,,,3,0.602,0,,,,,,0.199999986,-0.258333347,1,0,0,0.6022,Diorite_rect,14,0,14,0,1,
6672366d37b522399f42e13a,TCN,2024-06-25_14h18.11.262,LearnStrategy,2023.2.3,Win32,59.88023952,3,2,16,,,,,,,,3,13,,,,,,,,,,,3,0.435,1,,,,,,0.14444443,-0.262037065,1,0,0,0.4348,Diorite_rect,15,0,15,0,1,
6672366d37b522399f42e13a,TCN,2024-06-25_14h18.11.262,LearnStrategy,2023.2.3,Win32,59.88023952,4,1,1,-0.016666624,-0.024074095,1,0,0,6.1784,rock_grid_rect_2,4,15,-1,-1,6.178,0.112037023,-0.238888917,1,0,0,1.0529,Diorite_rect,3,1.053,0,0,0,0,0,1,,,,,,,,,,,,,
6672366d37b522399f42e13a,TCN,2024-06-25_14h18.11.262,LearnStrategy,2023.2.3,Win32,59.88023952,4,1,2,-0.031481496,-0.001851859,1,0,0,1.4163,rock_grid_rect_2,5,10,-1,-1,1.416,-0.361111111,-0.251851894,1,0,0,1.9,Andesite_rect,1,1.9,0,1,0,1,0,1,,,,,,,,,,,,,
6672366d37b522399f42e13a,TCN,2024-06-25_14h18.11.262,LearnStrategy,2023.2.3,Win32,59.88023952,4,1,3,0.041666667,-0.005555577,1,0,0,1.0129,rock_grid_rect_2,2,4,-1,-1,1.013,0.41851849,-0.267592607,1,0,0,0.9422,Gabbro_rect,4,0.942,0,2,0,2,0,1,,,,,,,,,,,,,
6672366d37b522399f42e13a,TCN,2024-06-25_14h18.11.262,LearnStrategy,2023.2.3,Win32,59.88023952,4,1,4,0.053703732,0,1,0,0,0.9302,rock_grid_rect_2,7,12,-1,-1,0.93,-0.186111097,-0.398148148,1,0,0,4.177,Pegmatite_rect,6,4.177,0,3,0,3,0,1,,,,,,,,,,,,,
6672366d37b522399f42e13a,TCN,2024-06-25_14h18.11.262,LearnStrategy,2023.2.3,Win32,59.88023952,4,1,5,-0.047222208,-0.00462963,1,0,0,0.9642,rock_grid_rect_2,1,1,-1,-1,0.964,0.351851852,-0.233333376,1,0,0,1.1746,Gabbro_rect,4,1.175,0,4,0,4,0,1,,,,,,,,,,,,,
6672366d37b522399f42e13a,TCN,2024-06-25_14h18.11.262,LearnStrategy,2023.2.3,Win32,59.88023952,4,1,6,0.053703732,-0.002777771,1,0,0,0.9626,rock_grid_rect_2,3,9,-1,-1,0.963,-0.374074053,-0.400000042,1,0,0,1.3716,Obsidian_rect,5,1.372,0,5,0,5,0,1,,,,,,,,,,,,,
6672366d37b522399f42e13a,TCN,2024-06-25_14h18.11.262,LearnStrategy,2023.2.3,Win32,59.88023952,4,1,7,0.006481524,0.005555541,1,0,0,1.0389,rock_grid_rect_2,1,14,-1,-1,1.039,0.402777778,-0.390740783,1,0,0,1.8665,Pumice_rect,8,1.867,0,6,0,6,0,1,,,,,,,,,,,,,
6672366d37b522399f42e13a,TCN,2024-06-25_14h18.11.262,LearnStrategy,2023.2.3,Win32,59.88023952,4,1,8,0.08148151,-0.009259259,1,0,0,0.831,rock_grid_rect_2,4,3,-1,-1,0.831,-0.098148134,-0.250925912,1,0,0,1.9751,Basalt_rect,2,1.975,0,7,0,7,0,1,,,,,,,,,,,,,
6672366d37b522399f42e13a,TCN,2024-06-25_14h18.11.262,LearnStrategy,2023.2.3,Win32,59.88023952,4,1,9,0.061111097,-0.005555577,1,0,0,1.1156,rock_grid_rect_2,8,14,-1,-1,1.116,0.33148151,-0.400925954,1,0,0,1.7243,Pumice_rect,8,1.724,1,8,0,8,0,1,,,,,,,,,,,,,
6672366d37b522399f42e13a,TCN,2024-06-25_14h18.11.262,LearnStrategy,2023.2.3,Win32,59.88023952,4,1,10,-0.007407365,-0.013888889,1,0,0,1.321,rock_grid_rect_2,6,10,-1,-1,1.321,0.372222194,-0.412962949,1,0,0,1.5599,Pumice_rect,8,1.56,0,9,0,9,0,1,,,,,,,,,,,,,
6672366d37b522399f42e13a,TCN,2024-06-25_14h18.11.262,LearnStrategy,2023.2.3,Win32,59.88023952,4,1,11,0.141666695,0.01666666,1,0,0,1.298,rock_grid_rect_2,5,14,-1,-1,1.298,-0.089814787,-0.242592635,1,0,0,1.7765,Basalt_rect,2,1.777,0,10,0,10,0,1,,,,,,,,,,,,,
6672366d37b522399f42e13a,TCN,2024-06-25_14h18.11.262,LearnStrategy,2023.2.3,Win32,59.88023952,4,1,12,0.117592635,-0.013888889,1,0,0,1.0308,rock_grid_rect_2,6,12,-1,-1,1.031,-0.09629631,-0.387962977,1,0,0,1.5609,Pegmatite_rect,6,1.561,1,11,0,11,0,1,,,,,,,,,,,,,
6672366d37b522399f42e13a,TCN,2024-06-25_14h18.11.262,LearnStrategy,2023.2.3,Win32,59.88023952,4,1,13,0.137962977,-0.001851859,1,0,0,0.9648,rock_grid_rect_2,8,13,-1,-1,0.965,0.378703788,-0.409259302,1,0,0,1.775,Pumice_rect,8,1.775,1,12,0,12,0,1,,,,,,,,,,,,,
6672366d37b522399f42e13a,TCN,2024-06-25_14h18.11.262,LearnStrategy,2023.2.3,Win32,59.88023952,4,1,14,0.135185171,0.01203703,1,0,0,1.2465,rock_grid_rect_2,7,5,-1,-1,1.246,-0.099999958,-0.231481481,1,0,0,1.7104,Basalt_rect,2,1.71,0,13,0,13,0,1,,,,,,,,,,,,,
6672366d37b522399f42e13a,TCN,2024-06-25_14h18.11.262,LearnStrategy,2023.2.3,Win32,59.88023952,4,1,15,0.139814801,0.006481489,1,0,0,1.2642,rock_grid_rect_2,3,10,-1,-1,1.264,0.410185213,-0.237963005,1,0,0,1.3575,Gabbro_rect,4,1.357,0,14,0,14,0,1,,,,,,,,,,,,,
6672366d37b522399f42e13a,TCN,2024-06-25_14h18.11.262,LearnStrategy,2023.2.3,Win32,59.88023952,4,1,16,0.041666667,-0.017592607,1,0,0,1.1647,rock_grid_rect_2,2,11,-1,-1,1.165,0.079629616,-0.409259302,1,0,0,2.0254,Peridotite_rect,7,2.025,0,15,0,15,0,1,,,,,,,,,,,,,
6672366d37b522399f42e13a,TCN,2024-06-25_14h18.11.262,LearnStrategy,2023.2.3,Win32,59.88023952,4,2,1,,,,,,,,1,6,,,,,,,,,,,3,2.348,0,,,,,,0.107407393,-0.241666653,1,0,0,2.3479,Diorite_rect,0,0,0,0,1,
6672366d37b522399f42e13a,TCN,2024-06-25_14h18.11.262,LearnStrategy,2023.2.3,Win32,59.88023952,4,2,2,,,,,,,,6,16,,,,,,,,,,,2,1.47,0,,,,,,-0.094444416,-0.243518547,1,0,0,1.4695,Basalt_rect,1,0,1,0,1,
6672366d37b522399f42e13a,TCN,2024-06-25_14h18.11.262,LearnStrategy,2023.2.3,Win32,59.88023952,4,2,3,,,,,,,,3,13,,,,,,,,,,,8,1.406,0,,,,,,0.346296381,-0.401851866,1,0,0,1.4059,Pumice_rect,2,0,2,0,1,
6672366d37b522399f42e13a,TCN,2024-06-25_14h18.11.262,LearnStrategy,2023.2.3,Win32,59.88023952,4,2,4,,,,,,,,8,15,,,,,,,,,,,8,1.16,1,,,,,,0.348148205,-0.405555584,1,0,0,1.16,Pumice_rect,3,0,3,0,1,
6672366d37b522399f42e13a,TCN,2024-06-25_14h18.11.262,LearnStrategy,2023.2.3,Win32,59.88023952,4,2,5,,,,,,,,1,5,,,,,,,,,,,1,1.306,1,,,,,,-0.309259238,-0.243518547,1,0,0,1.3059,Andesite_rect,4,0,4,0,1,
6672366d37b522399f42e13a,TCN,2024-06-25_14h18.11.262,LearnStrategy,2023.2.3,Win32,59.88023952,4,2,6,,,,,,,,2,9,,,,,,,,,,,6,2.639,0,,,,,,-0.135185171,-0.39907406,1,0,0,2.6392,Pegmatite_rect,5,0,5,0,1,
6672366d37b522399f42e13a,TCN,2024-06-25_14h18.11.262,LearnStrategy,2023.2.3,Win32,59.88023952,4,2,7,,,,,,,,7,10,,,,,,,,,,,2,2.169,0,,,,,,-0.083333333,-0.238888917,1,0,0,2.1692,Basalt_rect,6,0,6,0,1,
6672366d37b522399f42e13a,TCN,2024-06-25_14h18.11.262,LearnStrategy,2023.2.3,Win32,59.88023952,4,2,8,,,,,,,,5,12,,,,,,,,,,,3,1.456,0,,,,,,0.212962963,-0.250925912,1,0,0,1.4562,Diorite_rect,7,0,7,0,1,
6672366d37b522399f42e13a,TCN,2024-06-25_14h18.11.262,LearnStrategy,2023.2.3,Win32,59.88023952,4,2,9,,,,,,,,6,9,,,,,,,,,,,4,1.358,0,,,,,,0.375925982,-0.270370413,1,0,0,1.3583,Gabbro_rect,8,0,8,0,1,
6672366d37b522399f42e13a,TCN,2024-06-25_14h18.11.262,LearnStrategy,2023.2.3,Win32,59.88023952,4,2,10,,,,,,,,7,14,,,,,,,,,,,8,0.93,0,,,,,,0.368518547,-0.413888931,1,0,0,0.93,Pumice_rect,9,0,9,0,1,
6672366d37b522399f42e13a,TCN,2024-06-25_14h18.11.262,LearnStrategy,2023.2.3,Win32,59.88023952,4,2,11,,,,,,,,4,9,,,,,,,,,,,6,1.575,0,,,,,,-0.076851809,-0.404629672,1,0,0,1.5754,Pegmatite_rect,10,0,10,0,1,
6672366d37b522399f42e13a,TCN,2024-06-25_14h18.11.262,LearnStrategy,2023.2.3,Win32,59.88023952,4,2,12,,,,,,,,8,4,,,,,,,,,,,8,3.208,1,,,,,,0.368518547,-0.398148148,1,0,0,3.2078,Pumice_rect,11,0,11,0,1,
6672366d37b522399f42e13a,TCN,2024-06-25_14h18.11.262,LearnStrategy,2023.2.3,Win32,59.88023952,4,2,13,,,,,,,,3,8,,,,,,,,,,,8,8.388,0,,,,,,0.335185157,-0.390740783,1,0,0,8.3875,Pumice_rect,12,0,12,0,1,
6672366d37b522399f42e13a,TCN,2024-06-25_14h18.11.262,LearnStrategy,2023.2.3,Win32,59.88023952,4,2,14,,,,,,,,5,11,,,,,,,,,,,3,0.918,0,,,,,,0.110185199,-0.247222265,1,0,0,0.9176,Diorite_rect,13,0,13,0,1,
6672366d37b522399f42e13a,TCN,2024-06-25_14h18.11.262,LearnStrategy,2023.2.3,Win32,59.88023952,4,2,15,,,,,,,,4,5,,,,,,,,,,,2,0.642,0,,,,,,-0.12037037,-0.252777806,1,0,0,0.6416,Basalt_rect,14,0,14,0,1,
6672366d37b522399f42e13a,TCN,2024-06-25_14h18.11.262,LearnStrategy,2023.2.3,Win32,59.88023952,4,2,16,,,,,,,,2,5,,,,,,,,,,,1,1.007,0,,,,,,-0.334259245,-0.242592635,1,0,0,1.0073,Andesite_rect,15,0,15,0,1,
6672366d37b522399f42e13a,TCN,2024-06-25_14h18.11.262,LearnStrategy,2023.2.3,Win32,59.88023952,5,1,1,0.161111125,-0.009259259,1,0,0,2.897,rock_grid_rect_2,2,2,-1,-1,2.897,-0.134259259,-0.24537037,1,0,0,2.1921,Basalt_rect,2,2.192,1,0,0,0,0,1,,,,,,,,,,,,,
6672366d37b522399f42e13a,TCN,2024-06-25_14h18.11.262,LearnStrategy,2023.2.3,Win32,59.88023952,5,1,2,0.036111125,-0.019444466,1,0,0,1.1147,rock_grid_rect_2,4,10,-1,-1,1.115,-0.125,-0.419444473,1,0,0,1.3939,Pegmatite_rect,6,1.394,0,1,0,1,0,1,,,,,,,,,,,,,
6672366d37b522399f42e13a,TCN,2024-06-25_14h18.11.262,LearnStrategy,2023.2.3,Win32,59.88023952,5,1,3,0.015740783,-0.009259259,1,0,0,1.0808,rock_grid_rect_2,2,1,-1,-1,1.081,-0.388888889,-0.392592607,1,0,0,0.9774,Obsidian_rect,5,0.977,0,2,0,2,0,1,,,,,,,,,,,,,
6672366d37b522399f42e13a,TCN,2024-06-25_14h18.11.262,LearnStrategy,2023.2.3,Win32,59.88023952,5,1,4,0.030555584,-0.009259259,1,0,0,0.947,rock_grid_rect_2,5,14,-1,-1,0.947,0.376851824,-0.249074088,1,0,0,0.9457,Gabbro_rect,4,0.946,0,3,0,3,0,1,,,,,,,,,,,,,
6672366d37b522399f42e13a,TCN,2024-06-25_14h18.11.262,LearnStrategy,2023.2.3,Win32,59.88023952,5,1,5,-0.06759255,-0.002777771,1,0,0,2.6809,rock_grid_rect_2,4,11,-1,-1,2.681,-0.180555556,-0.411111125,1,0,0,0.9586,Pegmatite_rect,6,0.959,0,4,0,4,0,1,,,,,,,,,,,,,
6672366d37b522399f42e13a,TCN,2024-06-25_14h18.11.262,LearnStrategy,2023.2.3,Win32,59.88023952,5,1,6,0.069444444,-0.009259259,1,0,0,1.0472,rock_grid_rect_2,7,12,-1,-1,1.047,-0.095370328,-0.247222265,1,0,0,1.0448,Basalt_rect,2,1.045,0,5,0,5,0,1,,,,,,,,,,,,,
6672366d37b522399f42e13a,TCN,2024-06-25_14h18.11.262,LearnStrategy,2023.2.3,Win32,59.88023952,5,1,7,0.094444487,0.00462963,1,0,0,0.9468,rock_grid_rect_2,2,10,-1,-1,0.947,0.187962991,-0.235185199,1,0,0,1.5612,Diorite_rect,3,1.561,0,6,0,6,0,1,,,,,,,,,,,,,
6672366d37b522399f42e13a,TCN,2024-06-25_14h18.11.262,LearnStrategy,2023.2.3,Win32,59.88023952,5,1,8,0.02407406,-0.0074074,1,0,0,1.081,rock_grid_rect_2,7,13,-1,-1,1.081,0.346296381,-0.238888917,1,0,0,1.3447,Gabbro_rect,4,1.345,0,7,0,7,0,1,,,,,,,,,,,,,
6672366d37b522399f42e13a,TCN,2024-06-25_14h18.11.262,LearnStrategy,2023.2.3,Win32,59.88023952,5,1,9,0.040740755,-0.0074074,1,0,0,0.9296,rock_grid_rect_2,8,14,-1,-1,0.93,0.348148205,-0.387962977,1,0,0,1.2097,Pumice_rect,8,1.21,1,8,0,8,0,1,,,,,,,,,,,,,
6672366d37b522399f42e13a,TCN,2024-06-25_14h18.11.262,LearnStrategy,2023.2.3,Win32,59.88023952,5,1,10,0.090740769,0.01203703,1,0,0,1.3137,rock_grid_rect_2,1,4,-1,-1,1.314,-0.344444452,-0.271296325,1,0,0,3.3767,Andesite_rect,1,3.377,1,9,0,9,0,1,,,,,,,,,,,,,
6672366d37b522399f42e13a,TCN,2024-06-25_14h18.11.262,LearnStrategy,2023.2.3,Win32,59.88023952,5,1,11,0.030555584,0.014814801,1,0,0,1.4802,rock_grid_rect_2,5,5,-1,-1,1.48,0.143518519,-0.231481481,1,0,0,1.4336,Diorite_rect,3,1.434,0,10,0,10,0,1,,,,,,,,,,,,,
6672366d37b522399f42e13a,TCN,2024-06-25_14h18.11.262,LearnStrategy,2023.2.3,Win32,59.88023952,5,1,12,-0.04351849,-0.002777771,1,0,0,1.3065,rock_grid_rect_2,6,12,-1,-1,1.306,-0.387962942,-0.251851894,1,0,0,1.2335,Andesite_rect,1,1.234,0,11,0,11,0,1,,,,,,,,,,,,,
6672366d37b522399f42e13a,TCN,2024-06-25_14h18.11.262,LearnStrategy,2023.2.3,Win32,59.88023952,5,1,13,0.032407407,-0.003703718,1,0,0,1.2569,rock_grid_rect_2,6,7,-1,-1,1.257,0.17777782,-0.235185199,1,0,0,1.5279,Diorite_rect,3,1.528,0,12,0,12,0,1,,,,,,,,,,,,,
6672366d37b522399f42e13a,TCN,2024-06-25_14h18.11.262,LearnStrategy,2023.2.3,Win32,59.88023952,5,1,14,0.043518561,-0.003703718,1,0,0,1.0467,rock_grid_rect_2,3,16,-1,-1,1.047,-0.126851824,-0.401851866,1,0,0,2.2925,Pegmatite_rect,6,2.293,0,13,0,13,0,1,,,,,,,,,,,,,
6672366d37b522399f42e13a,TCN,2024-06-25_14h18.11.262,LearnStrategy,2023.2.3,Win32,59.88023952,5,1,15,0.051851838,0.015740748,1,0,0,0.8119,rock_grid_rect_2,1,1,-1,-1,0.812,0.113888917,-0.262037065,1,0,0,1.0092,Diorite_rect,3,1.009,0,14,0,14,0,1,,,,,,,,,,,,,
6672366d37b522399f42e13a,TCN,2024-06-25_14h18.11.262,LearnStrategy,2023.2.3,Win32,59.88023952,5,1,16,0.014814801,0.015740748,1,0,0,1.0806,rock_grid_rect_2,3,10,-1,-1,1.081,-0.137036995,-0.25462963,1,0,0,1.5104,Basalt_rect,2,1.51,0,15,0,15,0,1,,,,,,,,,,,,,
6672366d37b522399f42e13a,TCN,2024-06-25_14h18.11.262,LearnStrategy,2023.2.3,Win32,59.88023952,5,2,1,,,,,,,,8,9,,,,,,,,,,,4,2.39,0,,,,,,0.412963019,-0.256481524,1,0,0,2.3897,Gabbro_rect,0,0,0,0,1,
6672366d37b522399f42e13a,TCN,2024-06-25_14h18.11.262,LearnStrategy,2023.2.3,Win32,59.88023952,5,2,2,,,,,,,,2,14,,,,,,,,,,,3,0.74,0,,,,,,0.145370413,-0.261111153,1,0,0,0.7402,Diorite_rect,1,0,1,0,1,
6672366d37b522399f42e13a,TCN,2024-06-25_14h18.11.262,LearnStrategy,2023.2.3,Win32,59.88023952,5,2,3,,,,,,,,1,7,,,,,,,,,,,2,0.766,0,,,,,,-0.184259273,-0.262962977,1,0,0,0.7663,Basalt_rect,2,0,2,0,1,
6672366d37b522399f42e13a,TCN,2024-06-25_14h18.11.262,LearnStrategy,2023.2.3,Win32,59.88023952,5,2,4,,,,,,,,6,15,,,,,,,,,,,1,0.84,0,,,,,,-0.339814822,-0.256481524,1,0,0,0.8395,Andesite_rect,3,0,3,0,1,
6672366d37b522399f42e13a,TCN,2024-06-25_14h18.11.262,LearnStrategy,2023.2.3,Win32,59.88023952,5,2,5,,,,,,,,4,13,,,,,,,,,,,7,1.715,0,,,,,,0.128703718,-0.39444443,1,0,0,1.7154,Peridotite_rect,4,0,4,0,1,
6672366d37b522399f42e13a,TCN,2024-06-25_14h18.11.262,LearnStrategy,2023.2.3,Win32,59.88023952,5,2,6,,,,,,,,7,6,,,,,,,,,,,3,1.036,0,,,,,,0.109259288,-0.266666695,1,0,0,1.0364,Diorite_rect,5,0,5,0,1,
6672366d37b522399f42e13a,TCN,2024-06-25_14h18.11.262,LearnStrategy,2023.2.3,Win32,59.88023952,5,2,7,,,,,,,,1,16,,,,,,,,,,,2,1.782,0,,,,,,-0.136111083,-0.261111153,1,0,0,1.7815,Basalt_rect,6,0,6,0,1,
6672366d37b522399f42e13a,TCN,2024-06-25_14h18.11.262,LearnStrategy,2023.2.3,Win32,59.88023952,5,2,8,,,,,,,,3,2,,,,,,,,,,,1,0.974,0,,,,,,-0.419444437,-0.247222265,1,0,0,0.974,Andesite_rect,7,0,7,0,1,
6672366d37b522399f42e13a,TCN,2024-06-25_14h18.11.262,LearnStrategy,2023.2.3,Win32,59.88023952,5,2,9,,,,,,,,6,8,,,,,,,,,,,3,0.899,0,,,,,,0.141666695,-0.241666653,1,0,0,0.8986,Diorite_rect,8,0,8,0,1,
6672366d37b522399f42e13a,TCN,2024-06-25_14h18.11.262,LearnStrategy,2023.2.3,Win32,59.88023952,5,2,10,,,,,,,,2,12,,,,,,,,,,,6,0.717,0,,,,,,-0.133333347,-0.378703718,1,0,0,0.7173,Pegmatite_rect,9,0,9,0,1,
6672366d37b522399f42e13a,TCN,2024-06-25_14h18.11.262,LearnStrategy,2023.2.3,Win32,59.88023952,5,2,11,,,,,,,,3,6,,,,,,,,,,,4,1.136,0,,,,,,0.3648149,-0.25,1,0,0,1.1362,Gabbro_rect,10,0,10,0,1,
6672366d37b522399f42e13a,TCN,2024-06-25_14h18.11.262,LearnStrategy,2023.2.3,Win32,59.88023952,5,2,12,,,,,,,,8,2,,,,,,,,,,,8,1.456,1,,,,,,0.344444416,-0.405555584,1,0,0,1.4562,Pumice_rect,11,0,11,0,1,
6672366d37b522399f42e13a,TCN,2024-06-25_14h18.11.262,LearnStrategy,2023.2.3,Win32,59.88023952,5,2,13,,,,,,,,5,2,,,,,,,,,,,2,1.989,0,,,,,,-0.10555557,-0.256481524,1,0,0,1.9895,Basalt_rect,12,0,12,0,1,
6672366d37b522399f42e13a,TCN,2024-06-25_14h18.11.262,LearnStrategy,2023.2.3,Win32,59.88023952,5,2,14,,,,,,,,5,9,,,,,,,,,,,7,2.007,0,,,,,,0.12037037,-0.389814801,1,0,0,2.0072,Peridotite_rect,13,0,13,0,1,
6672366d37b522399f42e13a,TCN,2024-06-25_14h18.11.262,LearnStrategy,2023.2.3,Win32,59.88023952,5,2,15,,,,,,,,4,16,,,,,,,,,,,1,1.909,0,,,,,,-0.340740734,-0.25462963,1,0,0,1.9087,Andesite_rect,14,0,14,0,1,
6672366d37b522399f42e13a,TCN,2024-06-25_14h18.11.262,LearnStrategy,2023.2.3,Win32,59.88023952,5,2,16,,,,,,,,7,2,,,,,,,,,,,7,1.317,1,,,,,,0.19722225,-0.415740755,1,0,0,1.3168,Peridotite_rect,15,0,15,0,1,
6672366d37b522399f42e13a,TCN,2024-06-25_14h18.11.262,LearnStrategy,2023.2.3,Win32,59.88023952,6,1,1,0.020370413,0.01944443,1,0,0,5.812,rock_grid_rect_2,5,6,-1,-1,5.812,-0.140740712,-0.248148176,1,0,0,15.9001,Basalt_rect,2,15.9,0,0,0,0,0,1,,,,,,,,,,,,,
6672366d37b522399f42e13a,TCN,2024-06-25_14h18.11.262,LearnStrategy,2023.2.3,Win32,59.88023952,6,1,2,0.097222222,-0.005555577,1,0,0,1.2535,rock_grid_rect_2,2,11,-1,-1,1.254,0.375925982,-0.258333347,1,0,0,0.9725,Gabbro_rect,4,0.972,0,1,0,1,0,1,,,,,,,,,,,,,
6672366d37b522399f42e13a,TCN,2024-06-25_14h18.11.262,LearnStrategy,2023.2.3,Win32,59.88023952,6,1,3,-0.127777735,0.012962942,1,0,0,1.2644,rock_grid_rect_2,4,1,-1,-1,1.264,0.109259288,-0.37962963,1,0,0,1.3428,Peridotite_rect,7,1.343,0,2,0,2,0,1,,,,,,,,,,,,,
6672366d37b522399f42e13a,TCN,2024-06-25_14h18.11.262,LearnStrategy,2023.2.3,Win32,59.88023952,6,1,4,0.049074102,-0.011111118,1,0,0,0.9135,rock_grid_rect_2,2,2,-1,-1,0.913,0.389814871,-0.39907406,1,0,0,1.1583,Pumice_rect,8,1.158,0,3,0,3,0,1,,,,,,,,,,,,,
6672366d37b522399f42e13a,TCN,2024-06-25_14h18.11.262,LearnStrategy,2023.2.3,Win32,59.88023952,6,1,5,-0.160185143,-0.009259259,1,0,0,2.3644,rock_grid_rect_2,7,15,-1,-1,2.364,-0.075925898,-0.386111153,1,0,0,1.0947,Pegmatite_rect,6,1.095,0,4,0,4,0,1,,,,,,,,,,,,,
6672366d37b522399f42e13a,TCN,2024-06-25_14h18.11.262,LearnStrategy,2023.2.3,Win32,59.88023952,6,1,6,0.011111153,-0.008333347,1,0,0,0.7474,rock_grid_rect_2,6,12,-1,-1,0.747,-0.092592593,-0.388888889,1,0,0,1.8402,Pegmatite_rect,6,1.84,1,5,0,5,0,1,,,,,,,,,,,,,
6672366d37b522399f42e13a,TCN,2024-06-25_14h18.11.262,LearnStrategy,2023.2.3,Win32,59.88023952,6,1,7,0.038888931,-0.013888889,1,0,0,1.1639,rock_grid_rect_2,7,12,-1,-1,1.164,-0.400925919,-0.411111125,1,0,0,1.0608,Obsidian_rect,5,1.061,0,6,0,6,0,1,,,,,,,,,,,,,
6672366d37b522399f42e13a,TCN,2024-06-25_14h18.11.262,LearnStrategy,2023.2.3,Win32,59.88023952,6,1,8,-0.011111083,0.01944443,1,0,0,1.2817,rock_grid_rect_2,5,10,-1,-1,1.282,0.404629601,-0.397222236,1,0,0,1.042,Pumice_rect,8,1.042,0,7,0,7,0,1,,,,,,,,,,,,,
6672366d37b522399f42e13a,TCN,2024-06-25_14h18.11.262,LearnStrategy,2023.2.3,Win32,59.88023952,6,1,9,0.116666653,-0.010185206,1,0,0,1.2819,rock_grid_rect_2,4,15,-1,-1,1.282,0.396296325,-0.405555584,1,0,0,0.9589,Pumice_rect,8,0.959,0,8,0,8,0,1,,,,,,,,,,,,,
6672366d37b522399f42e13a,TCN,2024-06-25_14h18.11.262,LearnStrategy,2023.2.3,Win32,59.88023952,6,1,10,-0.074074074,-0.01203703,1,0,0,1.6469,rock_grid_rect_2,8,16,-1,-1,1.647,-0.374074053,-0.389814801,1,0,0,0.7769,Obsidian_rect,5,0.777,0,9,0,9,0,1,,,,,,,,,,,,,
6672366d37b522399f42e13a,TCN,2024-06-25_14h18.11.262,LearnStrategy,2023.2.3,Win32,59.88023952,6,1,11,-0.040740755,-0.000925947,1,0,0,1.163,rock_grid_rect_2,3,10,-1,-1,1.163,0.374074159,-0.253703718,1,0,0,1.8922,Gabbro_rect,4,1.892,0,10,0,10,0,1,,,,,,,,,,,,,
6672366d37b522399f42e13a,TCN,2024-06-25_14h18.11.262,LearnStrategy,2023.2.3,Win32,59.88023952,6,1,12,-0.009259259,0.005555541,1,0,0,1.3805,rock_grid_rect_2,1,3,-1,-1,1.38,-0.114814829,-0.248148176,1,0,0,1.996,Basalt_rect,2,1.996,0,11,0,11,0,1,,,,,,,,,,,,,
6672366d37b522399f42e13a,TCN,2024-06-25_14h18.11.262,LearnStrategy,2023.2.3,Win32,59.88023952,6,1,13,0.089814857,-0.003703718,1,0,0,1.265,rock_grid_rect_2,1,9,-1,-1,1.265,0.382407436,-0.37962963,1,0,0,1.2927,Pumice_rect,8,1.293,0,12,0,12,0,1,,,,,,,,,,,,,
6672366d37b522399f42e13a,TCN,2024-06-25_14h18.11.262,LearnStrategy,2023.2.3,Win32,59.88023952,6,1,14,0.005555541,-0.013888889,1,0,0,1.0132,rock_grid_rect_2,3,9,-1,-1,1.013,-0.118518476,-0.257407436,1,0,0,3.2049,Basalt_rect,2,3.205,0,13,0,13,0,1,,,,,,,,,,,,,
6672366d37b522399f42e13a,TCN,2024-06-25_14h18.11.262,LearnStrategy,2023.2.3,Win32,59.88023952,6,1,15,0.090740769,0,1,0,0,1.4024,rock_grid_rect_2,2,10,-1,-1,1.402,0.187962991,-0.402777778,1,0,0,1.9698,Peridotite_rect,7,1.97,0,14,0,14,0,1,,,,,,,,,,,,,
6672366d37b522399f42e13a,TCN,2024-06-25_14h18.11.262,LearnStrategy,2023.2.3,Win32,59.88023952,6,1,16,0.074999986,-0.00462963,1,0,0,1.1132,rock_grid_rect_2,6,12,-1,-1,1.113,0.380555612,-0.380555541,1,0,0,1.4271,Pumice_rect,8,1.427,0,15,0,15,0,1,,,,,,,,,,,,,
6672366d37b522399f42e13a,TCN,2024-06-25_14h18.11.262,LearnStrategy,2023.2.3,Win32,59.88023952,6,2,1,,,,,,,,6,11,,,,,,,,,,,3,1.006,0,,,,,,0.23055557,-0.23055557,1,0,0,1.0057,Diorite_rect,0,0,0,0,1,
6672366d37b522399f42e13a,TCN,2024-06-25_14h18.11.262,LearnStrategy,2023.2.3,Win32,59.88023952,6,2,2,,,,,,,,2,6,,,,,,,,,,,8,1.806,0,,,,,,0.392592677,-0.393518519,1,0,0,1.8062,Pumice_rect,1,0,1,0,1,
6672366d37b522399f42e13a,TCN,2024-06-25_14h18.11.262,LearnStrategy,2023.2.3,Win32,59.88023952,6,2,3,,,,,,,,4,12,,,,,,,,,,,7,0.657,0,,,,,,0.137962977,-0.388888889,1,0,0,0.6572,Peridotite_rect,2,0,2,0,1,
6672366d37b522399f42e13a,TCN,2024-06-25_14h18.11.262,LearnStrategy,2023.2.3,Win32,59.88023952,6,2,4,,,,,,,,1,10,,,,,,,,,,,6,0.609,0,,,,,,-0.075925898,-0.387037065,1,0,0,0.6092,Pegmatite_rect,3,0,3,0,1,
6672366d37b522399f42e13a,TCN,2024-06-25_14h18.11.262,LearnStrategy,2023.2.3,Win32,59.88023952,6,2,5,,,,,,,,1,11,,,,,,,,,,,3,0.666,0,,,,,,0.07222225,-0.246296282,1,0,0,0.6658,Diorite_rect,4,0,4,0,1,
6672366d37b522399f42e13a,TCN,2024-06-25_14h18.11.262,LearnStrategy,2023.2.3,Win32,59.88023952,6,2,6,,,,,,,,3,15,,,,,,,,,,,4,0.523,0,,,,,,0.399074131,-0.243518547,1,0,0,0.5228,Gabbro_rect,5,0,5,0,1,
6672366d37b522399f42e13a,TCN,2024-06-25_14h18.11.262,LearnStrategy,2023.2.3,Win32,59.88023952,6,2,7,,,,,,,,8,3,,,,,,,,,,,8,1.257,1,,,,,,0.351851852,-0.411111125,1,0,0,1.2567,Pumice_rect,6,0,6,0,1,
6672366d37b522399f42e13a,TCN,2024-06-25_14h18.11.262,LearnStrategy,2023.2.3,Win32,59.88023952,6,2,8,,,,,,,,8,5,,,,,,,,,,,8,1.357,1,,,,,,0.300000085,-0.39444443,1,0,0,1.3566,Pumice_rect,7,0,7,0,1,
6672366d37b522399f42e13a,TCN,2024-06-25_14h18.11.262,LearnStrategy,2023.2.3,Win32,59.88023952,6,2,9,,,,,,,,5,7,,,,,,,,,,,1,1.759,0,,,,,,-0.39166666,-0.244444459,1,0,0,1.7588,Andesite_rect,8,0,8,0,1,
6672366d37b522399f42e13a,TCN,2024-06-25_14h18.11.262,LearnStrategy,2023.2.3,Win32,59.88023952,6,2,10,,,,,,,,6,13,,,,,,,,,,,2,1.14,0,,,,,,-0.077777792,-0.229629658,1,0,0,1.1396,Basalt_rect,9,0,9,0,1,
6672366d37b522399f42e13a,TCN,2024-06-25_14h18.11.262,LearnStrategy,2023.2.3,Win32,59.88023952,6,2,11,,,,,,,,5,4,,,,,,,,,,,3,1.739,0,,,,,,0.156481496,-0.242592635,1,0,0,1.7395,Diorite_rect,10,0,10,0,1,
6672366d37b522399f42e13a,TCN,2024-06-25_14h18.11.262,LearnStrategy,2023.2.3,Win32,59.88023952,6,2,12,,,,,,,,3,12,,,,,,,,,,,4,1.793,0,,,,,,0.368518547,-0.23055557,1,0,0,1.7935,Gabbro_rect,11,0,11,0,1,
6672366d37b522399f42e13a,TCN,2024-06-25_14h18.11.262,LearnStrategy,2023.2.3,Win32,59.88023952,6,2,13,,,,,,,,7,16,,,,,,,,,,,7,1.373,1,,,,,,0.10555557,-0.386111153,1,0,0,1.373,Peridotite_rect,12,0,12,0,1,
6672366d37b522399f42e13a,TCN,2024-06-25_14h18.11.262,LearnStrategy,2023.2.3,Win32,59.88023952,6,2,14,,,,,,,,4,14,,,,,,,,,,,3,0.924,0,,,,,,0.050000014,-0.262962977,1,0,0,0.924,Diorite_rect,13,0,13,0,1,
6672366d37b522399f42e13a,TCN,2024-06-25_14h18.11.262,LearnStrategy,2023.2.3,Win32,59.88023952,6,2,15,,,,,,,,7,4,,,,,,,,,,,6,0.984,0,,,,,,-0.082407422,-0.412037037,1,0,0,0.9835,Pegmatite_rect,14,0,14,0,1,
6672366d37b522399f42e13a,TCN,2024-06-25_14h18.11.262,LearnStrategy,2023.2.3,Win32,59.88023952,6,2,16,,,,,,,,2,8,,,,,,,,,,,2,2.64,1,,,,,,-0.114814829,-0.236111111,1,0,0,2.6401,Basalt_rect,15,0,15,0,1,
6672366d37b522399f42e13a,TCN,2024-06-25_14h18.11.262,LearnStrategy,2023.2.3,Win32,59.88023952,7,1,1,0.013888889,0.023148148,1,0,0,1.1628,rock_grid_rect_2,3,9,-1,-1,1.163,0.127777806,-0.233333376,1,0,0,1.0106,Diorite_rect,3,1.011,1,0,0,0,0,1,,,,,,,,,,,,,
6672366d37b522399f42e13a,TCN,2024-06-25_14h18.11.262,LearnStrategy,2023.2.3,Win32,59.88023952,7,1,2,0.074074074,-0.011111118,1,0,0,1.0474,rock_grid_rect_2,2,16,-1,-1,1.047,-0.12962963,-0.25462963,1,0,0,1.6734,Basalt_rect,2,1.673,1,1,0,1,0,1,,,,,,,,,,,,,
6672366d37b522399f42e13a,TCN,2024-06-25_14h18.11.262,LearnStrategy,2023.2.3,Win32,59.88023952,7,1,3,-0.074999986,-0.003703718,1,0,0,1.4454,rock_grid_rect_2,6,6,-1,-1,1.445,0.112963005,-0.413888931,1,0,0,1.726,Peridotite_rect,7,1.726,0,2,0,2,0,1,,,,,,,,,,,,,
6672366d37b522399f42e13a,TCN,2024-06-25_14h18.11.262,LearnStrategy,2023.2.3,Win32,59.88023952,7,1,4,0.071296339,-0.003703718,1,0,0,0.9806,rock_grid_rect_2,6,5,-1,-1,0.981,0.155555584,-0.239814829,1,0,0,0.8937,Diorite_rect,3,0.894,0,3,0,3,0,1,,,,,,,,,,,,,
6672366d37b522399f42e13a,TCN,2024-06-25_14h18.11.262,LearnStrategy,2023.2.3,Win32,59.88023952,7,1,5,-0.082407422,0.001851859,1,0,0,1.098,rock_grid_rect_2,8,6,-1,-1,1.098,-0.373148141,-0.264814801,1,0,0,0.8569,Andesite_rect,1,0.857,0,4,0,4,0,1,,,,,,,,,,,,,
6672366d37b522399f42e13a,TCN,2024-06-25_14h18.11.262,LearnStrategy,2023.2.3,Win32,59.88023952,7,1,6,0.036111125,0.0074074,1,0,0,1.3148,rock_grid_rect_2,3,10,-1,-1,1.315,0.437037009,-0.268518519,1,0,0,1.2277,Gabbro_rect,4,1.228,0,5,0,5,0,1,,,,,,,,,,,,,
6672366d37b522399f42e13a,TCN,2024-06-25_14h18.11.262,LearnStrategy,2023.2.3,Win32,59.88023952,7,1,7,0.065740727,0.003703683,1,0,0,0.9488,rock_grid_rect_2,7,15,-1,-1,0.949,-0.369444423,-0.257407436,1,0,0,1.5764,Andesite_rect,1,1.576,0,6,0,6,0,1,,,,,,,,,,,,,
6672366d37b522399f42e13a,TCN,2024-06-25_14h18.11.262,LearnStrategy,2023.2.3,Win32,59.88023952,7,1,8,0.053703732,-0.010185206,1,0,0,1.0469,rock_grid_rect_2,1,3,-1,-1,1.047,-0.117592564,-0.397222236,1,0,0,1.1429,Pegmatite_rect,6,1.143,0,7,0,7,0,1,,,,,,,,,,,,,
6672366d37b522399f42e13a,TCN,2024-06-25_14h18.11.262,LearnStrategy,2023.2.3,Win32,59.88023952,7,1,9,0.136111153,0.000925912,1,0,0,0.8804,rock_grid_rect_2,7,8,-1,-1,0.88,-0.109259217,-0.240740741,1,0,0,0.9602,Basalt_rect,2,0.96,0,8,0,8,0,1,,,,,,,,,,,,,
6672366d37b522399f42e13a,TCN,2024-06-25_14h18.11.262,LearnStrategy,2023.2.3,Win32,59.88023952,7,1,10,-0.00462963,0.000925912,1,0,0,1.0128,rock_grid_rect_2,1,2,-1,-1,1.013,-0.145370342,-0.40370369,1,0,0,1.5754,Pegmatite_rect,6,1.575,0,9,0,9,0,1,,,,,,,,,,,,,
6672366d37b522399f42e13a,TCN,2024-06-25_14h18.11.262,LearnStrategy,2023.2.3,Win32,59.88023952,7,1,11,0.027777778,0.012962942,1,0,0,2.7648,rock_grid_rect_2,5,8,-1,-1,2.765,0.404629601,-0.249074088,1,0,0,1.2253,Gabbro_rect,4,1.225,0,10,0,10,0,1,,,,,,,,,,,,,
6672366d37b522399f42e13a,TCN,2024-06-25_14h18.11.262,LearnStrategy,2023.2.3,Win32,59.88023952,7,1,12,0.017592607,0.00462963,1,0,0,1.2968,rock_grid_rect_2,2,10,-1,-1,1.297,-0.146296254,-0.406481496,1,0,0,1.1256,Pegmatite_rect,6,1.126,0,11,0,11,0,1,,,,,,,,,,,,,
6672366d37b522399f42e13a,TCN,2024-06-25_14h18.11.262,LearnStrategy,2023.2.3,Win32,59.88023952,7,1,13,-0.050000014,-0.010185206,1,0,0,1.0483,rock_grid_rect_2,5,10,-1,-1,1.048,0.054629644,-0.250925912,1,0,0,1.6796,Diorite_rect,3,1.68,0,12,0,12,0,1,,,,,,,,,,,,,
6672366d37b522399f42e13a,TCN,2024-06-25_14h18.11.262,LearnStrategy,2023.2.3,Win32,59.88023952,7,1,14,0.008333347,-0.01203703,1,0,0,0.9638,rock_grid_rect_2,4,10,-1,-1,0.964,-0.093518504,-0.244444459,1,0,0,2.8443,Basalt_rect,2,2.844,0,13,0,13,0,1,,,,,,,,,,,,,
6672366d37b522399f42e13a,TCN,2024-06-25_14h18.11.262,LearnStrategy,2023.2.3,Win32,59.88023952,7,1,15,0.008333347,-0.001851859,1,0,0,0.9795,rock_grid_rect_2,4,3,-1,-1,0.979,-0.342592593,-0.381481524,1,0,0,1.6077,Obsidian_rect,5,1.608,0,14,0,14,0,1,,,,,,,,,,,,,
6672366d37b522399f42e13a,TCN,2024-06-25_14h18.11.262,LearnStrategy,2023.2.3,Win32,59.88023952,7,1,16,-0.023148148,0.003703683,1,0,0,1.3298,rock_grid_rect_2,3,9,-1,-1,1.33,0.348148205,-0.25,1,0,0,2.494,Gabbro_rect,4,2.494,0,15,0,15,0,1,,,,,,,,,,,,,
6672366d37b522399f42e13a,TCN,2024-06-25_14h18.11.262,LearnStrategy,2023.2.3,Win32,59.88023952,7,2,1,,,,,,,,4,13,,,,,,,,,,,4,2.239,1,,,,,,0.333333333,-0.228703746,1,0,0,2.2394,Gabbro_rect,0,0,0,0,1,
6672366d37b522399f42e13a,TCN,2024-06-25_14h18.11.262,LearnStrategy,2023.2.3,Win32,59.88023952,7,2,2,,,,,,,,5,4,,,,,,,,,,,2,2.373,0,,,,,,-0.062037009,-0.25,1,0,0,2.3732,Basalt_rect,1,0,1,0,1,
6672366d37b522399f42e13a,TCN,2024-06-25_14h18.11.262,LearnStrategy,2023.2.3,Win32,59.88023952,7,2,3,,,,,,,,8,2,,,,,,,,,,,8,1.31,1,,,,,,0.366666723,-0.380555541,1,0,0,1.3104,Pumice_rect,2,0,2,0,1,
6672366d37b522399f42e13a,TCN,2024-06-25_14h18.11.262,LearnStrategy,2023.2.3,Win32,59.88023952,7,2,4,,,,,,,,1,16,,,,,,,,,,,1,1.458,1,,,,,,-0.420370349,-0.258333347,1,0,0,1.4582,Andesite_rect,3,0,3,0,1,
6672366d37b522399f42e13a,TCN,2024-06-25_14h18.11.262,LearnStrategy,2023.2.3,Win32,59.88023952,7,2,5,,,,,,,,5,2,,,,,,,,,,,2,1.373,0,,,,,,-0.099999958,-0.256481524,1,0,0,1.3727,Basalt_rect,4,0,4,0,1,
6672366d37b522399f42e13a,TCN,2024-06-25_14h18.11.262,LearnStrategy,2023.2.3,Win32,59.88023952,7,2,6,,,,,,,,7,6,,,,,,,,,,,3,0.739,0,,,,,,0.190740727,-0.257407436,1,0,0,0.7391,Diorite_rect,5,0,5,0,1,
6672366d37b522399f42e13a,TCN,2024-06-25_14h18.11.262,LearnStrategy,2023.2.3,Win32,59.88023952,7,2,7,,,,,,,,1,7,,,,,,,,,,,4,1.557,0,,,,,,0.385185242,-0.237037023,1,0,0,1.5573,Gabbro_rect,6,0,6,0,1,
6672366d37b522399f42e13a,TCN,2024-06-25_14h18.11.262,LearnStrategy,2023.2.3,Win32,59.88023952,7,2,8,,,,,,,,6,16,,,,,,,,,,,8,1.739,0,,,,,,0.375,-0.412037037,1,0,0,1.7392,Pumice_rect,7,0,7,0,1,
6672366d37b522399f42e13a,TCN,2024-06-25_14h18.11.262,LearnStrategy,2023.2.3,Win32,59.88023952,7,2,9,,,,,,,,6,13,,,,,,,,,,,3,1.056,0,,,,,,0.111111111,-0.260185171,1,0,0,1.0562,Diorite_rect,8,0,8,0,1,
6672366d37b522399f42e13a,TCN,2024-06-25_14h18.11.262,LearnStrategy,2023.2.3,Win32,59.88023952,7,2,10,,,,,,,,7,4,,,,,,,,,,,7,1.294,1,,,,,,0.091666681,-0.414814843,1,0,0,1.2939,Peridotite_rect,9,0,9,0,1,
6672366d37b522399f42e13a,TCN,2024-06-25_14h18.11.262,LearnStrategy,2023.2.3,Win32,59.88023952,7,2,11,,,,,,,,8,15,,,,,,,,,,,8,1.039,1,,,,,,0.373148176,-0.416666667,1,0,0,1.0393,Pumice_rect,10,0,10,0,1,
6672366d37b522399f42e13a,TCN,2024-06-25_14h18.11.262,LearnStrategy,2023.2.3,Win32,59.88023952,7,2,12,,,,,,,,2,14,,,,,,,,,,,6,2.023,0,,,,,,-0.115740741,-0.412037037,1,0,0,2.023,Pegmatite_rect,11,0,11,0,1,
6672366d37b522399f42e13a,TCN,2024-06-25_14h18.11.262,LearnStrategy,2023.2.3,Win32,59.88023952,7,2,13,,,,,,,,3,8,,,,,,,,,,,4,1.393,0,,,,,,0.319444444,-0.247222265,1,0,0,1.3927,Gabbro_rect,12,0,12,0,1,
6672366d37b522399f42e13a,TCN,2024-06-25_14h18.11.262,LearnStrategy,2023.2.3,Win32,59.88023952,7,2,14,,,,,,,,2,12,,,,,,,,,,,5,1.309,0,,,,,,-0.410185178,-0.39907406,1,0,0,1.3094,Obsidian_rect,13,0,13,0,1,
6672366d37b522399f42e13a,TCN,2024-06-25_14h18.11.262,LearnStrategy,2023.2.3,Win32,59.88023952,7,2,15,,,,,,,,4,14,,,,,,,,,,,8,1.123,0,,,,,,0.411111196,-0.417592578,1,0,0,1.1233,Pumice_rect,14,0,14,0,1,
6672366d37b522399f42e13a,TCN,2024-06-25_14h18.11.262,LearnStrategy,2023.2.3,Win32,59.88023952,7,2,16,,,,,,,,3,12,,,,,,,,,,,2,1.033,0,,,,,,-0.141666624,-0.238888917,1,0,0,1.0328,Basalt_rect,15,0,15,0,1,
6672366d37b522399f42e13a,TCN,2024-06-25_14h18.11.262,LearnStrategy,2023.2.3,Win32,59.88023952,8,1,1,0.112963005,-0.021296289,1,0,0,0.9135,rock_grid_rect_2,4,11,-1,-1,0.913,-0.074074074,-0.23055557,1,0,0,1.0188,Basalt_rect,2,1.019,0,0,0,0,0,1,,,,,,,,,,,,,
6672366d37b522399f42e13a,TCN,2024-06-25_14h18.11.262,LearnStrategy,2023.2.3,Win32,59.88023952,8,1,2,0.167592578,-0.0074074,1,0,0,1.084,rock_grid_rect_2,5,10,-1,-1,1.084,0.372222194,-0.238888917,1,0,0,1.0134,Gabbro_rect,4,1.013,0,1,0,1,0,1,,,,,,,,,,,,,
6672366d37b522399f42e13a,TCN,2024-06-25_14h18.11.262,LearnStrategy,2023.2.3,Win32,59.88023952,8,1,3,-0.102777764,-0.00462963,1,0,0,1.0671,rock_grid_rect_2,1,2,-1,-1,1.067,-0.36296297,-0.228703746,1,0,0,0.9835,Andesite_rect,1,0.984,1,2,0,2,0,1,,,,,,,,,,,,,
6672366d37b522399f42e13a,TCN,2024-06-25_14h18.11.262,LearnStrategy,2023.2.3,Win32,59.88023952,8,1,4,0.126851894,-0.00462963,1,0,0,1.9474,rock_grid_rect_2,2,11,-1,-1,1.947,0.158333319,-0.237037023,1,0,0,1.775,Diorite_rect,3,1.775,0,3,0,3,0,1,,,,,,,,,,,,,
6672366d37b522399f42e13a,TCN,2024-06-25_14h18.11.262,LearnStrategy,2023.2.3,Win32,59.88023952,8,1,5,0.012962977,-0.012962977,1,0,0,1.0475,rock_grid_rect_2,1,3,-1,-1,1.047,0.358333305,-0.234259288,1,0,0,1.0084,Gabbro_rect,4,1.008,0,4,0,4,0,1,,,,,,,,,,,,,
6672366d37b522399f42e13a,TCN,2024-06-25_14h18.11.262,LearnStrategy,2023.2.3,Win32,59.88023952,8,1,6,0.050925926,-0.009259259,1,0,0,1.031,rock_grid_rect_2,3,14,-1,-1,1.031,0.146296325,-0.387962977,1,0,0,1.0582,Peridotite_rect,7,1.058,0,5,0,5,0,1,,,,,,,,,,,,,
6672366d37b522399f42e13a,TCN,2024-06-25_14h18.11.262,LearnStrategy,2023.2.3,Win32,59.88023952,8,1,7,0.012962977,-0.015740748,1,0,0,1.1143,rock_grid_rect_2,7,7,-1,-1,1.114,-0.135185171,-0.262962977,1,0,0,0.7411,Basalt_rect,2,0.741,0,6,0,6,0,1,,,,,,,,,,,,,
6672366d37b522399f42e13a,TCN,2024-06-25_14h18.11.262,LearnStrategy,2023.2.3,Win32,59.88023952,8,1,8,0.058333362,0.022222201,1,0,0,0.8643,rock_grid_rect_2,3,16,-1,-1,0.864,0.170370384,-0.249074088,1,0,0,1.0603,Diorite_rect,3,1.06,1,7,0,7,0,1,,,,,,,,,,,,,
6672366d37b522399f42e13a,TCN,2024-06-25_14h18.11.262,LearnStrategy,2023.2.3,Win32,59.88023952,8,1,9,0.011111153,0.009259259,1,0,0,1.1315,rock_grid_rect_2,2,10,-1,-1,1.132,0.357407464,-0.234259288,1,0,0,1.1749,Gabbro_rect,4,1.175,0,8,0,8,0,1,,,,,,,,,,,,,
6672366d37b522399f42e13a,TCN,2024-06-25_14h18.11.262,LearnStrategy,2023.2.3,Win32,59.88023952,8,1,10,0.00462963,0.003703683,1,0,0,1.1302,rock_grid_rect_2,6,6,-1,-1,1.13,-0.377777771,-0.258333347,1,0,0,0.9601,Andesite_rect,1,0.96,0,9,0,9,0,1,,,,,,,,,,,,,
6672366d37b522399f42e13a,TCN,2024-06-25_14h18.11.262,LearnStrategy,2023.2.3,Win32,59.88023952,8,1,11,0.033333319,-0.010185206,1,0,0,1.4305,rock_grid_rect_2,6,10,-1,-1,1.43,-0.334259245,-0.400000042,1,0,0,1.2115,Obsidian_rect,5,1.211,0,10,0,10,0,1,,,,,,,,,,,,,
6672366d37b522399f42e13a,TCN,2024-06-25_14h18.11.262,LearnStrategy,2023.2.3,Win32,59.88023952,8,1,12,0.009259259,-0.001851859,1,0,0,1.0316,rock_grid_rect_2,5,16,-1,-1,1.032,0.10092594,-0.251851894,1,0,0,0.9031,Diorite_rect,3,0.903,0,11,0,11,0,1,,,,,,,,,,,,,
6672366d37b522399f42e13a,TCN,2024-06-25_14h18.11.262,LearnStrategy,2023.2.3,Win32,59.88023952,8,1,13,-0.027777778,0.012962942,1,0,0,1.0796,rock_grid_rect_2,4,1,-1,-1,1.08,0.412963019,-0.411111125,1,0,0,3.4729,Pumice_rect,8,3.473,0,12,0,12,0,1,,,,,,,,,,,,,
6672366d37b522399f42e13a,TCN,2024-06-25_14h18.11.262,LearnStrategy,2023.2.3,Win32,59.88023952,8,1,14,-0.038888861,-0.009259259,1,0,0,1.4212,rock_grid_rect_2,7,13,-1,-1,1.421,-0.417592578,-0.385185171,1,0,0,1.1342,Obsidian_rect,5,1.134,0,13,0,13,0,1,,,,,,,,,,,,,
6672366d37b522399f42e13a,TCN,2024-06-25_14h18.11.262,LearnStrategy,2023.2.3,Win32,59.88023952,8,1,15,-0.000925912,0.02407406,1,0,0,1.1133,rock_grid_rect_2,8,10,-1,-1,1.113,0.132407436,-0.249074088,1,0,0,1.1781,Diorite_rect,3,1.178,0,14,0,14,0,1,,,,,,,,,,,,,
6672366d37b522399f42e13a,TCN,2024-06-25_14h18.11.262,LearnStrategy,2023.2.3,Win32,59.88023952,8,1,16,-0.025925884,-0.011111118,1,0,0,1.065,rock_grid_rect_2,3,11,-1,-1,1.065,0.387963048,-0.398148148,1,0,0,0.9773,Pumice_rect,8,0.977,0,15,0,15,0,1,,,,,,,,,,,,,
6672366d37b522399f42e13a,TCN,2024-06-25_14h18.11.262,LearnStrategy,2023.2.3,Win32,59.88023952,8,2,1,,,,,,,,7,14,,,,,,,,,,,8,2.856,0,,,,,,0.390740712,-0.39444443,1,0,0,2.8561,Pumice_rect,0,0,0,0,1,
6672366d37b522399f42e13a,TCN,2024-06-25_14h18.11.262,LearnStrategy,2023.2.3,Win32,59.88023952,8,2,2,,,,,,,,7,10,,,,,,,,,,,3,0.912,0,,,,,,0.098148134,-0.246296282,1,0,0,0.9123,Diorite_rect,1,0,1,0,1,
6672366d37b522399f42e13a,TCN,2024-06-25_14h18.11.262,LearnStrategy,2023.2.3,Win32,59.88023952,8,2,3,,,,,,,,8,9,,,,,,,,,,,4,1.74,0,,,,,,0.343518575,-0.244444459,1,0,0,1.7405,Gabbro_rect,2,0,2,0,1,
6672366d37b522399f42e13a,TCN,2024-06-25_14h18.11.262,LearnStrategy,2023.2.3,Win32,59.88023952,8,2,4,,,,,,,,1,6,,,,,,,,,,,1,1.173,1,,,,,,-0.35833334,-0.266666695,1,0,0,1.1732,Andesite_rect,3,0,3,0,1,
6672366d37b522399f42e13a,TCN,2024-06-25_14h18.11.262,LearnStrategy,2023.2.3,Win32,59.88023952,8,2,5,,,,,,,,4,16,,,,,,,,,,,7,1.043,0,,,,,,0.085185228,-0.409259302,1,0,0,1.0429,Peridotite_rect,4,0,4,0,1,
6672366d37b522399f42e13a,TCN,2024-06-25_14h18.11.262,LearnStrategy,2023.2.3,Win32,59.88023952,8,2,6,,,,,,,,4,9,,,,,,,,,,,6,1.09,0,,,,,,-0.086111069,-0.385185171,1,0,0,1.0897,Pegmatite_rect,5,0,5,0,1,
6672366d37b522399f42e13a,TCN,2024-06-25_14h18.11.262,LearnStrategy,2023.2.3,Win32,59.88023952,8,2,7,,,,,,,,3,13,,,,,,,,,,,6,0.857,0,,,,,,-0.086111069,-0.385185171,1,0,0,0.8565,Pegmatite_rect,6,0,6,0,1,
6672366d37b522399f42e13a,TCN,2024-06-25_14h18.11.262,LearnStrategy,2023.2.3,Win32,59.88023952,8,2,8,,,,,,,,2,5,,,,,,,,,,,3,0.861,0,,,,,,0.198148162,-0.244444459,1,0,0,0.8608,Diorite_rect,7,0,7,0,1,
6672366d37b522399f42e13a,TCN,2024-06-25_14h18.11.262,LearnStrategy,2023.2.3,Win32,59.88023952,8,2,9,,,,,,,,3,6,,,,,,,,,,,4,0.711,0,,,,,,0.315740797,-0.249074088,1,0,0,0.711,Gabbro_rect,8,0,8,0,1,
6672366d37b522399f42e13a,TCN,2024-06-25_14h18.11.262,LearnStrategy,2023.2.3,Win32,59.88023952,8,2,10,,,,,,,,5,11,,,,,,,,,,,6,1.141,0,,,,,,-0.152777778,-0.391666695,1,0,0,1.1407,Pegmatite_rect,9,0,9,0,1,
6672366d37b522399f42e13a,TCN,2024-06-25_14h18.11.262,LearnStrategy,2023.2.3,Win32,59.88023952,8,2,11,,,,,,,,8,3,,,,,,,,,,,8,2.116,1,,,,,,0.369444529,-0.413888931,1,0,0,2.1158,Pumice_rect,10,0,10,0,1,
6672366d37b522399f42e13a,TCN,2024-06-25_14h18.11.262,LearnStrategy,2023.2.3,Win32,59.88023952,8,2,12,,,,,,,,6,9,,,,,,,,,,,2,1.965,0,,,,,,-0.109259217,-0.246296282,1,0,0,1.9648,Basalt_rect,11,0,11,0,1,
6672366d37b522399f42e13a,TCN,2024-06-25_14h18.11.262,LearnStrategy,2023.2.3,Win32,59.88023952,8,2,13,,,,,,,,6,8,,,,,,,,,,,3,0.834,0,,,,,,0.172222208,-0.258333347,1,0,0,0.8342,Diorite_rect,12,0,12,0,1,
6672366d37b522399f42e13a,TCN,2024-06-25_14h18.11.262,LearnStrategy,2023.2.3,Win32,59.88023952,8,2,14,,,,,,,,1,10,,,,,,,,,,,8,0.635,0,,,,,,0.341666751,-0.385185171,1,0,0,0.6348,Pumice_rect,13,0,13,0,1,
6672366d37b522399f42e13a,TCN,2024-06-25_14h18.11.262,LearnStrategy,2023.2.3,Win32,59.88023952,8,2,15,,,,,,,,5,9,,,,,,,,,,,6,0.989,0,,,,,,-0.155555513,-0.396296325,1,0,0,0.9888,Pegmatite_rect,14,0,14,0,1,
6672366d37b522399f42e13a,TCN,2024-06-25_14h18.11.262,LearnStrategy,2023.2.3,Win32,59.88023952,8,2,16,,,,,,,,2,9,,,,,,,,,,,8,0.85,0,,,,,,0.390740712,-0.378703718,1,0,0,0.8502,Pumice_rect,15,0,15,0,1,
6672366d37b522399f42e13a,TCN,2024-06-25_14h18.11.262,LearnStrategy,2023.2.3,Win32,59.88023952,9,1,1,0.009259259,0.000925912,1,0,0,1.3194,rock_grid_rect_2,5,14,-1,-1,1.319,0.100000028,-0.265740783,1,0,0,0.9006,Diorite_rect,3,0.901,0,0,0,0,0,1,,,,,,,,,,,,,
6672366d37b522399f42e13a,TCN,2024-06-25_14h18.11.262,LearnStrategy,2023.2.3,Win32,59.88023952,9,1,2,-0.135185171,-0.003703718,1,0,0,1.4308,rock_grid_rect_2,2,16,-1,-1,1.431,-0.180555556,-0.253703718,1,0,0,2.3408,Basalt_rect,2,2.341,1,1,0,1,0,1,,,,,,,,,,,,,
6672366d37b522399f42e13a,TCN,2024-06-25_14h18.11.262,LearnStrategy,2023.2.3,Win32,59.88023952,9,1,3,-0.040740755,-0.0074074,1,0,0,1.2151,rock_grid_rect_2,1,4,-1,-1,1.215,0.095370399,-0.249074088,1,0,0,1.3593,Diorite_rect,3,1.359,0,2,0,2,0,1,,,,,,,,,,,,,
6672366d37b522399f42e13a,TCN,2024-06-25_14h18.11.262,LearnStrategy,2023.2.3,Win32,59.88023952,9,1,4,0.062037079,0.015740748,1,0,0,1.4468,rock_grid_rect_2,3,11,-1,-1,1.447,0.363888917,-0.257407436,1,0,0,2.3351,Gabbro_rect,4,2.335,0,3,0,3,0,1,,,,,,,,,,,,,
6672366d37b522399f42e13a,TCN,2024-06-25_14h18.11.262,LearnStrategy,2023.2.3,Win32,59.88023952,9,1,5,-0.080555527,0.021296289,1,0,0,1.1315,rock_grid_rect_2,5,5,-1,-1,1.131,-0.412962949,-0.258333347,1,0,0,0.8608,Andesite_rect,1,0.861,0,4,0,4,0,1,,,,,,,,,,,,,
6672366d37b522399f42e13a,TCN,2024-06-25_14h18.11.262,LearnStrategy,2023.2.3,Win32,59.88023952,9,1,6,-0.088888875,0,1,0,0,1.0812,rock_grid_rect_2,7,15,-1,-1,1.081,-0.182407379,-0.389814801,1,0,0,1.7109,Pegmatite_rect,6,1.711,0,5,0,5,0,1,,,,,,,,,,,,,
6672366d37b522399f42e13a,TCN,2024-06-25_14h18.11.262,LearnStrategy,2023.2.3,Win32,59.88023952,9,1,7,-0.073148162,0.008333312,1,0,0,1.1976,rock_grid_rect_2,2,1,-1,-1,1.198,-0.377777771,-0.398148148,1,0,0,2.584,Obsidian_rect,5,2.584,0,6,0,6,0,1,,,,,,,,,,,,,
6672366d37b522399f42e13a,TCN,2024-06-25_14h18.11.262,LearnStrategy,2023.2.3,Win32,59.88023952,9,1,8,-0.06759255,-0.008333347,1,0,0,1.1891,rock_grid_rect_2,6,3,-1,-1,1.189,-0.361111111,-0.252777806,1,0,0,1.9161,Andesite_rect,1,1.916,0,7,0,7,0,1,,,,,,,,,,,,,
6672366d37b522399f42e13a,TCN,2024-06-25_14h18.11.262,LearnStrategy,2023.2.3,Win32,59.88023952,9,1,9,-0.146296254,0.003703683,1,0,0,2.6298,rock_grid_rect_2,4,10,-1,-1,2.63,-0.414814808,-0.393518519,1,0,0,1.9747,Obsidian_rect,5,1.975,0,8,0,8,0,1,,,,,,,,,,,,,
6672366d37b522399f42e13a,TCN,2024-06-25_14h18.11.262,LearnStrategy,2023.2.3,Win32,59.88023952,9,1,10,0.012962977,0.001851859,1,0,0,1.7414,rock_grid_rect_2,1,14,-1,-1,1.741,0.05740745,-0.262962977,1,0,0,1.0275,Diorite_rect,3,1.028,0,9,0,9,0,1,,,,,,,,,,,,,
6672366d37b522399f42e13a,TCN,2024-06-25_14h18.11.262,LearnStrategy,2023.2.3,Win32,59.88023952,9,1,11,-0.134259259,0,1,0,0,0.9813,rock_grid_rect_2,8,8,-1,-1,0.981,-0.366666653,-0.384259259,1,0,0,1.3442,Obsidian_rect,5,1.344,0,10,0,10,0,1,,,,,,,,,,,,,
6672366d37b522399f42e13a,TCN,2024-06-25_14h18.11.262,LearnStrategy,2023.2.3,Win32,59.88023952,9,1,12,-0.137036995,-0.011111118,1,0,0,0.9318,rock_grid_rect_2,4,1,-1,-1,0.932,-0.107407393,-0.400000042,1,0,0,1.3756,Pegmatite_rect,6,1.376,0,11,0,11,0,1,,,,,,,,,,,,,
6672366d37b522399f42e13a,TCN,2024-06-25_14h18.11.262,LearnStrategy,2023.2.3,Win32,59.88023952,9,1,13,-0.012036995,-0.002777771,1,0,0,1.2803,rock_grid_rect_2,6,12,-1,-1,1.28,-0.383333312,-0.24537037,1,0,0,1.2409,Andesite_rect,1,1.241,0,12,0,12,0,1,,,,,,,,,,,,,
6672366d37b522399f42e13a,TCN,2024-06-25_14h18.11.262,LearnStrategy,2023.2.3,Win32,59.88023952,9,1,14,0.137037065,-0.003703718,1,0,0,1.0305,rock_grid_rect_2,7,8,-1,-1,1.031,0.36018527,-0.232407393,1,0,0,0.975,Gabbro_rect,4,0.975,0,13,0,13,0,1,,,,,,,,,,,,,
6672366d37b522399f42e13a,TCN,2024-06-25_14h18.11.262,LearnStrategy,2023.2.3,Win32,59.88023952,9,1,15,0.015740783,0.00462963,1,0,0,1.1987,rock_grid_rect_2,3,9,-1,-1,1.199,-0.068518533,-0.259259259,1,0,0,1.9426,Basalt_rect,2,1.943,0,14,0,14,0,1,,,,,,,,,,,,,
6672366d37b522399f42e13a,TCN,2024-06-25_14h18.11.262,LearnStrategy,2023.2.3,Win32,59.88023952,9,1,16,0.045370384,0.000925912,1,0,0,1.0136,rock_grid_rect_2,3,10,-1,-1,1.014,0.104629658,-0.419444473,1,0,0,1.3102,Peridotite_rect,7,1.31,0,15,0,15,0,1,,,,,,,,,,,,,
6672366d37b522399f42e13a,TCN,2024-06-25_14h18.11.262,LearnStrategy,2023.2.3,Win32,59.88023952,9,2,1,,,,,,,,7,16,,,,,,,,,,,3,1.643,0,,,,,,0.104629658,-0.266666695,1,0,0,1.6426,Diorite_rect,0,0,0,0,1,
6672366d37b522399f42e13a,TCN,2024-06-25_14h18.11.262,LearnStrategy,2023.2.3,Win32,59.88023952,9,2,2,,,,,,,,2,8,,,,,,,,,,,1,0.865,0,,,,,,-0.351851852,-0.238888917,1,0,0,0.8652,Andesite_rect,1,0,1,0,1,
6672366d37b522399f42e13a,TCN,2024-06-25_14h18.11.262,LearnStrategy,2023.2.3,Win32,59.88023952,9,2,3,,,,,,,,1,5,,,,,,,,,,,7,0.657,0,,,,,,0.087962963,-0.401851866,1,0,0,0.6565,Peridotite_rect,2,0,2,0,1,
6672366d37b522399f42e13a,TCN,2024-06-25_14h18.11.262,LearnStrategy,2023.2.3,Win32,59.88023952,9,2,4,,,,,,,,2,6,,,,,,,,,,,6,0.858,0,,,,,,-0.166666667,-0.415740755,1,0,0,0.8582,Pegmatite_rect,3,0,3,0,1,
6672366d37b522399f42e13a,TCN,2024-06-25_14h18.11.262,LearnStrategy,2023.2.3,Win32,59.88023952,9,2,5,,,,,,,,4,12,,,,,,,,,,,4,1.066,1,,,,,,0.343518575,-0.241666653,1,0,0,1.0658,Gabbro_rect,4,0,4,0,1,
6672366d37b522399f42e13a,TCN,2024-06-25_14h18.11.262,LearnStrategy,2023.2.3,Win32,59.88023952,9,2,6,,,,,,,,4,5,,,,,,,,,,,6,0.73,0,,,,,,-0.141666624,-0.391666695,1,0,0,0.7295,Pegmatite_rect,5,0,5,0,1,
6672366d37b522399f42e13a,TCN,2024-06-25_14h18.11.262,LearnStrategy,2023.2.3,Win32,59.88023952,9,2,7,,,,,,,,8,4,,,,,,,,,,,2,0.742,0,,,,,,-0.090740698,-0.25,1,0,0,0.7417,Basalt_rect,6,0,6,0,1,
6672366d37b522399f42e13a,TCN,2024-06-25_14h18.11.262,LearnStrategy,2023.2.3,Win32,59.88023952,9,2,8,,,,,,,,7,2,,,,,,,,,,,8,0.94,0,,,,,,0.350000028,-0.400000042,1,0,0,0.9397,Pumice_rect,7,0,7,0,1,
6672366d37b522399f42e13a,TCN,2024-06-25_14h18.11.262,LearnStrategy,2023.2.3,Win32,59.88023952,9,2,9,,,,,,,,3,15,,,,,,,,,,,8,0.939,0,,,,,,0.32685188,-0.404629672,1,0,0,0.9394,Pumice_rect,8,0,8,0,1,
6672366d37b522399f42e13a,TCN,2024-06-25_14h18.11.262,LearnStrategy,2023.2.3,Win32,59.88023952,9,2,10,,,,,,,,6,15,,,,,,,,,,,7,0.764,0,,,,,,0.165740755,-0.414814843,1,0,0,0.7639,Peridotite_rect,9,0,9,0,1,
6672366d37b522399f42e13a,TCN,2024-06-25_14h18.11.262,LearnStrategy,2023.2.3,Win32,59.88023952,9,2,11,,,,,,,,3,2,,,,,,,,,,,3,1.159,1,,,,,,0.073148162,-0.256481524,1,0,0,1.1585,Diorite_rect,10,0,10,0,1,
6672366d37b522399f42e13a,TCN,2024-06-25_14h18.11.262,LearnStrategy,2023.2.3,Win32,59.88023952,9,2,12,,,,,,,,6,11,,,,,,,,,,,2,1.173,0,,,,,,-0.113888847,-0.247222265,1,0,0,1.1728,Basalt_rect,11,0,11,0,1,
6672366d37b522399f42e13a,TCN,2024-06-25_14h18.11.262,LearnStrategy,2023.2.3,Win32,59.88023952,9,2,13,,,,,,,,5,7,,,,,,,,,,,1,0.772,0,,,,,,-0.344444452,-0.24537037,1,0,0,0.7717,Andesite_rect,12,0,12,0,1,
6672366d37b522399f42e13a,TCN,2024-06-25_14h18.11.262,LearnStrategy,2023.2.3,Win32,59.88023952,9,2,14,,,,,,,,8,5,,,,,,,,,,,8,1.177,1,,,,,,0.361111111,-0.385185171,1,0,0,1.1765,Pumice_rect,13,0,13,0,1,
6672366d37b522399f42e13a,TCN,2024-06-25_14h18.11.262,LearnStrategy,2023.2.3,Win32,59.88023952,9,2,15,,,,,,,,1,11,,,,,,,,,,,4,0.99,0,,,,,,0.388888889,-0.262037065,1,0,0,0.9899,Gabbro_rect,14,0,14,0,1,
6672366d37b522399f42e13a,TCN,2024-06-25_14h18.11.262,LearnStrategy,2023.2.3,Win32,59.88023952,9,2,16,,,,,,,,5,12,,,,,,,,,,,2,1.175,0,,,,,,-0.101851852,-0.25462963,1,0,0,1.1753,Basalt_rect,15,0,15,0,1,
6672366d37b522399f42e13a,TCN,2024-06-25_14h18.11.262,LearnStrategy,2023.2.3,Win32,59.88023952,,,,,,,,,,,,,,,,,,,,,,,,,,,,,,,,,,,,,,,,,,,0
6672366d37b522399f42e13a,TCN,2024-06-25_14h18.11.262,LearnStrategy,2023.2.3,Win32,59.88023952,,,,,,,,,,,,,,,,,,,,,,,,,,,,,,,,,,,,,,,,,,,
6672366d37b522399f42e13a,TCN,2024-06-25_14h18.11.262,LearnStrategy,2023.2.3,Win32,59.88023952,,,,,,,,,,,3,16,1,1,,,,,,,,,,,,,,,,,,,,,,,,,,,,,
6672366d37b522399f42e13a,TCN,2024-06-25_14h18.11.262,LearnStrategy,2023.2.3,Win32,59.88023952,,,,,,,,,,,3,11,1,2,,,,,,,,,,,,,,,,,,,,,,,,,,,,,
6672366d37b522399f42e13a,TCN,2024-06-25_14h18.11.262,LearnStrategy,2023.2.3,Win32,59.88023952,,,,,,,,,,,7,8,1,3,,,,,,,,,,,,,,,,,,,,,,,,,,,,,
6672366d37b522399f42e13a,TCN,2024-06-25_14h18.11.262,LearnStrategy,2023.2.3,Win32,59.88023952,,,,,,,,,,,8,8,1,4,,,,,,,,,,,,,,,,,,,,,,,,,,,,,
6672366d37b522399f42e13a,TCN,2024-06-25_14h18.11.262,LearnStrategy,2023.2.3,Win32,59.88023952,,,,,,,,,,,3,10,1,5,,,,,,,,,,,,,,,,,,,,,,,,,,,,,
6672366d37b522399f42e13a,TCN,2024-06-25_14h18.11.262,LearnStrategy,2023.2.3,Win32,59.88023952,,,,,,,,,,,6,12,1,6,,,,,,,,,,,,,,,,,,,,,,,,,,,,,
6672366d37b522399f42e13a,TCN,2024-06-25_14h18.11.262,LearnStrategy,2023.2.3,Win32,59.88023952,,,,,,,,,,,4,1,1,7,,,,,,,,,,,,,,,,,,,,,,,,,,,,,
6672366d37b522399f42e13a,TCN,2024-06-25_14h18.11.262,LearnStrategy,2023.2.3,Win32,59.88023952,,,,,,,,,,,4,8,1,8,,,,,,,,,,,,,,,,,,,,,,,,,,,,,
6672366d37b522399f42e13a,TCN,2024-06-25_14h18.11.262,LearnStrategy,2023.2.3,Win32,59.88023952,,,,,,,,,,,2,11,2,1,,,,,,,,,,,,,,,,,,,,,,,,,,,,,
6672366d37b522399f42e13a,TCN,2024-06-25_14h18.11.262,LearnStrategy,2023.2.3,Win32,59.88023952,,,,,,,,,,,8,10,2,2,,,,,,,,,,,,,,,,,,,,,,,,,,,,,
6672366d37b522399f42e13a,TCN,2024-06-25_14h18.11.262,LearnStrategy,2023.2.3,Win32,59.88023952,,,,,,,,,,,7,12,2,3,,,,,,,,,,,,,,,,,,,,,,,,,,,,,
6672366d37b522399f42e13a,TCN,2024-06-25_14h18.11.262,LearnStrategy,2023.2.3,Win32,59.88023952,,,,,,,,,,,3,7,2,4,,,,,,,,,,,,,,,,,,,,,,,,,,,,,
6672366d37b522399f42e13a,TCN,2024-06-25_14h18.11.262,LearnStrategy,2023.2.3,Win32,59.88023952,,,,,,,,,,,5,16,2,5,,,,,,,,,,,,,,,,,,,,,,,,,,,,,
6672366d37b522399f42e13a,TCN,2024-06-25_14h18.11.262,LearnStrategy,2023.2.3,Win32,59.88023952,,,,,,,,,,,1,1,2,6,,,,,,,,,,,,,,,,,,,,,,,,,,,,,
6672366d37b522399f42e13a,TCN,2024-06-25_14h18.11.262,LearnStrategy,2023.2.3,Win32,59.88023952,,,,,,,,,,,1,9,2,7,,,,,,,,,,,,,,,,,,,,,,,,,,,,,
6672366d37b522399f42e13a,TCN,2024-06-25_14h18.11.262,LearnStrategy,2023.2.3,Win32,59.88023952,,,,,,,,,,,3,9,2,8,,,,,,,,,,,,,,,,,,,,,,,,,,,,,
6672366d37b522399f42e13a,TCN,2024-06-25_14h18.11.262,LearnStrategy,2023.2.3,Win32,59.88023952,,,,,,,,,,,2,16,3,1,,,,,,,,,,,,,,,,,,,,,,,,,,,,,
6672366d37b522399f42e13a,TCN,2024-06-25_14h18.11.262,LearnStrategy,2023.2.3,Win32,59.88023952,,,,,,,,,,,1,3,3,2,,,,,,,,,,,,,,,,,,,,,,,,,,,,,
6672366d37b522399f42e13a,TCN,2024-06-25_14h18.11.262,LearnStrategy,2023.2.3,Win32,59.88023952,,,,,,,,,,,5,5,3,3,,,,,,,,,,,,,,,,,,,,,,,,,,,,,
6672366d37b522399f42e13a,TCN,2024-06-25_14h18.11.262,LearnStrategy,2023.2.3,Win32,59.88023952,,,,,,,,,,,7,5,3,4,,,,,,,,,,,,,,,,,,,,,,,,,,,,,
6672366d37b522399f42e13a,TCN,2024-06-25_14h18.11.262,LearnStrategy,2023.2.3,Win32,59.88023952,,,,,,,,,,,4,11,3,5,,,,,,,,,,,,,,,,,,,,,,,,,,,,,
6672366d37b522399f42e13a,TCN,2024-06-25_14h18.11.262,LearnStrategy,2023.2.3,Win32,59.88023952,,,,,,,,,,,6,10,3,6,,,,,,,,,,,,,,,,,,,,,,,,,,,,,
6672366d37b522399f42e13a,TCN,2024-06-25_14h18.11.262,LearnStrategy,2023.2.3,Win32,59.88023952,,,,,,,,,,,8,13,3,7,,,,,,,,,,,,,,,,,,,,,,,,,,,,,
6672366d37b522399f42e13a,TCN,2024-06-25_14h18.11.262,LearnStrategy,2023.2.3,Win32,59.88023952,,,,,,,,,,,6,5,3,8,,,,,,,,,,,,,,,,,,,,,,,,,,,,,
6672366d37b522399f42e13a,TCN,2024-06-25_14h18.11.262,LearnStrategy,2023.2.3,Win32,59.88023952,,,,,,,,,,,2,10,4,1,,,,,,,,,,,,,,,,,,,,,,,,,,,,,
6672366d37b522399f42e13a,TCN,2024-06-25_14h18.11.262,LearnStrategy,2023.2.3,Win32,59.88023952,,,,,,,,,,,2,2,4,2,,,,,,,,,,,,,,,,,,,,,,,,,,,,,
6672366d37b522399f42e13a,TCN,2024-06-25_14h18.11.262,LearnStrategy,2023.2.3,Win32,59.88023952,,,,,,,,,,,5,10,4,3,,,,,,,,,,,,,,,,,,,,,,,,,,,,,
6672366d37b522399f42e13a,TCN,2024-06-25_14h18.11.262,LearnStrategy,2023.2.3,Win32,59.88023952,,,,,,,,,,,4,15,4,4,,,,,,,,,,,,,,,,,,,,,,,,,,,,,
6672366d37b522399f42e13a,TCN,2024-06-25_14h18.11.262,LearnStrategy,2023.2.3,Win32,59.88023952,,,,,,,,,,,8,16,4,5,,,,,,,,,,,,,,,,,,,,,,,,,,,,,
6672366d37b522399f42e13a,TCN,2024-06-25_14h18.11.262,LearnStrategy,2023.2.3,Win32,59.88023952,,,,,,,,,,,7,13,4,6,,,,,,,,,,,,,,,,,,,,,,,,,,,,,
6672366d37b522399f42e13a,TCN,2024-06-25_14h18.11.262,LearnStrategy,2023.2.3,Win32,59.88023952,,,,,,,,,,,8,14,4,7,,,,,,,,,,,,,,,,,,,,,,,,,,,,,
6672366d37b522399f42e13a,TCN,2024-06-25_14h18.11.262,LearnStrategy,2023.2.3,Win32,59.88023952,,,,,,,,,,,6,7,4,8,,,,,,,,,,,,,,,,,,,,,,,,,,,,,
6672366d37b522399f42e13a,TCN,2024-06-25_14h18.11.262,LearnStrategy,2023.2.3,Win32,59.88023952,,,,,,,,,,,1,4,5,1,,,,,,,,,,,,,,,,,,,,,,,,,,,,,
6672366d37b522399f42e13a,TCN,2024-06-25_14h18.11.262,LearnStrategy,2023.2.3,Win32,59.88023952,,,,,,,,,,,6,3,5,2,,,,,,,,,,,,,,,,,,,,,,,,,,,,,
6672366d37b522399f42e13a,TCN,2024-06-25_14h18.11.262,LearnStrategy,2023.2.3,Win32,59.88023952,,,,,,,,,,,5,8,5,3,,,,,,,,,,,,,,,,,,,,,,,,,,,,,
6672366d37b522399f42e13a,TCN,2024-06-25_14h18.11.262,LearnStrategy,2023.2.3,Win32,59.88023952,,,,,,,,,,,1,2,5,4,,,,,,,,,,,,,,,,,,,,,,,,,,,,,
6672366d37b522399f42e13a,TCN,2024-06-25_14h18.11.262,LearnStrategy,2023.2.3,Win32,59.88023952,,,,,,,,,,,7,7,5,5,,,,,,,,,,,,,,,,,,,,,,,,,,,,,
6672366d37b522399f42e13a,TCN,2024-06-25_14h18.11.262,LearnStrategy,2023.2.3,Win32,59.88023952,,,,,,,,,,,2,1,5,6,,,,,,,,,,,,,,,,,,,,,,,,,,,,,
6672366d37b522399f42e13a,TCN,2024-06-25_14h18.11.262,LearnStrategy,2023.2.3,Win32,59.88023952,,,,,,,,,,,5,6,5,7,,,,,,,,,,,,,,,,,,,,,,,,,,,,,
6672366d37b522399f42e13a,TCN,2024-06-25_14h18.11.262,LearnStrategy,2023.2.3,Win32,59.88023952,,,,,,,,,,,7,15,5,8,,,,,,,,,,,,,,,,,,,,,,,,,,,,,
6672366d37b522399f42e13a,TCN,2024-06-25_14h18.11.262,LearnStrategy,2023.2.3,Win32,59.88023952,,,,,,,,,,,8,6,6,1,,,,,,,,,,,,,,,,,,,,,,,,,,,,,
6672366d37b522399f42e13a,TCN,2024-06-25_14h18.11.262,LearnStrategy,2023.2.3,Win32,59.88023952,,,,,,,,,,,2,4,6,2,,,,,,,,,,,,,,,,,,,,,,,,,,,,,
6672366d37b522399f42e13a,TCN,2024-06-25_14h18.11.262,LearnStrategy,2023.2.3,Win32,59.88023952,,,,,,,,,,,3,14,6,3,,,,,,,,,,,,,,,,,,,,,,,,,,,,,
6672366d37b522399f42e13a,TCN,2024-06-25_14h18.11.262,LearnStrategy,2023.2.3,Win32,59.88023952,,,,,,,,,,,5,14,6,4,,,,,,,,,,,,,,,,,,,,,,,,,,,,,
6672366d37b522399f42e13a,TCN,2024-06-25_14h18.11.262,LearnStrategy,2023.2.3,Win32,59.88023952,,,,,,,,,,,4,3,6,5,,,,,,,,,,,,,,,,,,,,,,,,,,,,,
6672366d37b522399f42e13a,TCN,2024-06-25_14h18.11.262,LearnStrategy,2023.2.3,Win32,59.88023952,,,,,,,,,,,6,6,6,6,,,,,,,,,,,,,,,,,,,,,,,,,,,,,
6672366d37b522399f42e13a,TCN,2024-06-25_14h18.11.262,LearnStrategy,2023.2.3,Win32,59.88023952,,,,,,,,,,,4,10,6,7,,,,,,,,,,,,,,,,,,,,,,,,,,,,,
6672366d37b522399f42e13a,TCN,2024-06-25_14h18.11.262,LearnStrategy,2023.2.3,Win32,59.88023952,,,,,,,,,,,1,14,6,8,,,,,,,,,,,,,,,,,,,,,,,,,,,,,
