participant,condition,date,expName,psychopyVersion,OS,frameRate,block,phase,trial,learn_mouse.x,learn_mouse.y,learn_mouse.leftButton,learn_mouse.midButton,learn_mouse.rightButton,learn_mouse.time,learn_mouse.clicked_name,cat,token,row,col,t_select,cat_mouse_l.x,cat_mouse_l.y,cat_mouse_l.leftButton,cat_mouse_l.midButton,cat_mouse_l.rightButton,cat_mouse_l.time,cat_mouse_l.clicked_name,resp,t_resp,corr,train_trials.thisRepN,train_trials.thisTrialN,train_trials.thisN,train_trials.thisIndex,train_trials.ran,cat_mouse_t.x,cat_mouse_t.y,cat_mouse_t.leftButton,cat_mouse_t.midButton,cat_mouse_t.rightButton,cat_mouse_t.time,cat_mouse_t.clicked_name,test_trials.thisRepN,test_trials.thisTrialN,test_trials.thisN,test_trials.thisIndex,test_trials.ran,Bonus
6674b4a918f2509894b3294e,SCN,2024-06-25_11h39.35.910,LearnStrategy,2023.2.3,Win32,60.24096386,,,,,,,,,,,,,,,,,,,,,,,,,,,,,,,,,,,,,,,,,,,
6674b4a918f2509894b3294e,SCN,2024-06-25_11h39.35.910,LearnStrategy,2023.2.3,Win32,60.24096386,1,1,1,-0.539814815,0.405555556,0,0,1,4.8518,Gabbro_14,4,14,6,1,4.852,-0.151851852,-0.239814815,1,0,0,3.8543,Basalt_rect,2,3.854,0,0,0,0,0,1,,,,,,,,,,,,,
6674b4a918f2509894b3294e,SCN,2024-06-25_11h39.35.910,LearnStrategy,2023.2.3,Win32,60.24096386,1,1,2,-0.376851852,0.407407407,1,0,0,1.2499,Andesite_07,1,07,6,2,1.25,-0.392592593,-0.390740741,1,0,0,1.9796,Obsidian_rect,5,1.98,0,1,0,1,0,1,,,,,,,,,,,,,
6674b4a918f2509894b3294e,SCN,2024-06-25_11h39.35.910,LearnStrategy,2023.2.3,Win32,60.24096386,1,1,3,-0.248148148,0.397222222,1,0,0,0.6499,Andesite_05,1,05,6,3,0.65,0.106481481,-0.230555556,1,0,0,1.146,Diorite_rect,3,1.146,0,2,0,2,0,1,,,,,,,,,,,,,
6674b4a918f2509894b3294e,SCN,2024-06-25_11h39.35.910,LearnStrategy,2023.2.3,Win32,60.24096386,1,1,4,-0.1,0.424074074,1,0,0,0.9504,Gabbro_13,4,13,6,4,0.95,0.322222222,-0.243518519,1,0,0,1.7295,Gabbro_rect,4,1.73,1,3,0,3,0,1,,,,,,,,,,,,,
6674b4a918f2509894b3294e,SCN,2024-06-25_11h39.35.910,LearnStrategy,2023.2.3,Win32,60.24096386,1,1,5,0.116666667,0.391666667,1,0,0,1.1501,Peridotite_16,7,16,6,5,1.15,-0.342592593,-0.391666667,1,0,0,1.93,Obsidian_rect,5,1.93,0,4,0,4,0,1,,,,,,,,,,,,,
6674b4a918f2509894b3294e,SCN,2024-06-25_11h39.35.910,LearnStrategy,2023.2.3,Win32,60.24096386,1,1,6,0.239814815,0.37962963,1,0,0,0.8829,Obsidian_11,5,11,6,6,0.883,-0.424074074,-0.407407407,1,0,0,2.697,Obsidian_rect,5,2.697,1,5,0,5,0,1,,,,,,,,,,,,,
6674b4a918f2509894b3294e,SCN,2024-06-25_11h39.35.910,LearnStrategy,2023.2.3,Win32,60.24096386,1,1,7,0.411111111,0.425,1,0,0,0.9502,Gabbro_09,4,09,6,7,0.95,0.359259259,-0.417592593,1,0,0,2.6305,Pumice_rect,8,2.631,0,6,0,6,0,1,,,,,,,,,,,,,
6674b4a918f2509894b3294e,SCN,2024-06-25_11h39.35.910,LearnStrategy,2023.2.3,Win32,60.24096386,1,1,8,0.544444444,0.425,1,0,0,0.9998,Gabbro_16,4,16,6,8,1,0.099074074,-0.263888889,1,0,0,2.8476,Diorite_rect,3,2.848,0,7,0,7,0,1,,,,,,,,,,,,,
6674b4a918f2509894b3294e,SCN,2024-06-25_11h39.35.910,LearnStrategy,2023.2.3,Win32,60.24096386,1,1,9,-0.507407407,0.234259259,1,0,0,1.4334,Diorite_06,3,06,5,1,1.433,-0.117592593,-0.265740741,1,0,0,3.465,Basalt_rect,2,3.465,0,8,0,8,0,1,,,,,,,,,,,,,
6674b4a918f2509894b3294e,SCN,2024-06-25_11h39.35.910,LearnStrategy,2023.2.3,Win32,60.24096386,1,1,10,-0.376851852,0.249074074,1,0,0,0.6995,Andesite_14,1,14,5,2,0.7,-0.417592593,-0.378703704,1,0,0,1.0128,Obsidian_rect,5,1.013,0,9,0,9,0,1,,,,,,,,,,,,,
6674b4a918f2509894b3294e,SCN,2024-06-25_11h39.35.910,LearnStrategy,2023.2.3,Win32,60.24096386,1,1,11,-0.216666667,0.236111111,1,0,0,0.6658,Basalt_12,2,12,5,3,0.666,0.119444444,-0.246296296,1,0,0,0.9295,Diorite_rect,3,0.929,0,10,0,10,0,1,,,,,,,,,,,,,
6674b4a918f2509894b3294e,SCN,2024-06-25_11h39.35.910,LearnStrategy,2023.2.3,Win32,60.24096386,1,1,12,-0.066666667,0.269444444,1,0,0,0.6995,Pumice_10,8,10,5,4,0.7,0.37037037,-0.389814815,1,0,0,1.2962,Pumice_rect,8,1.296,1,11,0,11,0,1,,,,,,,,,,,,,
6674b4a918f2509894b3294e,SCN,2024-06-25_11h39.35.910,LearnStrategy,2023.2.3,Win32,60.24096386,1,1,13,0.05462963,0.227777778,1,0,0,1.0834,Diorite_11,3,11,5,5,1.083,-0.375,-0.381481481,1,0,0,1.296,Obsidian_rect,5,1.296,0,12,0,12,0,1,,,,,,,,,,,,,
6674b4a918f2509894b3294e,SCN,2024-06-25_11h39.35.910,LearnStrategy,2023.2.3,Win32,60.24096386,1,1,14,0.252777778,0.22037037,1,0,0,0.7829,Basalt_05,2,05,5,6,0.783,-0.173148148,-0.263888889,1,0,0,1.9966,Basalt_rect,2,1.997,1,13,0,13,0,1,,,,,,,,,,,,,
6674b4a918f2509894b3294e,SCN,2024-06-25_11h39.35.910,LearnStrategy,2023.2.3,Win32,60.24096386,1,1,15,0.399074074,0.208333333,1,0,0,0.8998,Pegmatite_11,6,11,5,7,0.9,-0.37962963,-0.264814815,1,0,0,1.7802,Andesite_rect,1,1.78,0,14,0,14,0,1,,,,,,,,,,,,,
6674b4a918f2509894b3294e,SCN,2024-06-25_11h39.35.910,LearnStrategy,2023.2.3,Win32,60.24096386,1,1,16,0.594444444,0.282407407,1,0,0,0.6332,Basalt_04,2,04,5,8,0.633,-0.102777778,-0.241666667,1,0,0,1.2628,Basalt_rect,2,1.263,1,15,0,15,0,1,,,,,,,,,,,,,
6674b4a918f2509894b3294e,SCN,2024-06-25_11h39.35.910,LearnStrategy,2023.2.3,Win32,60.24096386,1,2,1,,,,,,,,2,09,,,,,,,,,,,2,7.168,1,,,,,,-0.101851852,-0.238888889,1,0,0,7.1685,Basalt_rect,0,0,0,0,1,
6674b4a918f2509894b3294e,SCN,2024-06-25_11h39.35.910,LearnStrategy,2023.2.3,Win32,60.24096386,1,2,2,,,,,,,,6,07,,,,,,,,,,,4,0.816,0,,,,,,0.417592593,-0.258333333,1,0,0,0.8156,Gabbro_rect,1,0,1,0,1,
6674b4a918f2509894b3294e,SCN,2024-06-25_11h39.35.910,LearnStrategy,2023.2.3,Win32,60.24096386,1,2,3,,,,,,,,4,11,,,,,,,,,,,1,0.529,0,,,,,,-0.5,-0.261111111,1,0,0,0.5288,Andesite_rect,2,0,2,0,1,
6674b4a918f2509894b3294e,SCN,2024-06-25_11h39.35.910,LearnStrategy,2023.2.3,Win32,60.24096386,1,2,4,,,,,,,,6,08,,,,,,,,,,,7,0.646,0,,,,,,0.140740741,-0.380555556,1,0,0,0.646,Peridotite_rect,3,0,3,0,1,
6674b4a918f2509894b3294e,SCN,2024-06-25_11h39.35.910,LearnStrategy,2023.2.3,Win32,60.24096386,1,2,5,,,,,,,,5,06,,,,,,,,,,,5,0.712,1,,,,,,-0.406481481,-0.393518519,1,0,0,0.7123,Obsidian_rect,4,0,4,0,1,
6674b4a918f2509894b3294e,SCN,2024-06-25_11h39.35.910,LearnStrategy,2023.2.3,Win32,60.24096386,1,2,6,,,,,,,,1,09,,,,,,,,,,,2,1.046,0,,,,,,-0.099074074,-0.240740741,1,0,0,1.0462,Basalt_rect,5,0,5,0,1,
6674b4a918f2509894b3294e,SCN,2024-06-25_11h39.35.910,LearnStrategy,2023.2.3,Win32,60.24096386,1,2,7,,,,,,,,7,10,,,,,,,,,,,4,1.413,0,,,,,,0.337962963,-0.253703704,1,0,0,1.4133,Gabbro_rect,6,0,6,0,1,
6674b4a918f2509894b3294e,SCN,2024-06-25_11h39.35.910,LearnStrategy,2023.2.3,Win32,60.24096386,1,2,8,,,,,,,,3,14,,,,,,,,,,,7,1.964,0,,,,,,0.087962963,-0.396296296,1,0,0,1.9639,Peridotite_rect,7,0,7,0,1,
6674b4a918f2509894b3294e,SCN,2024-06-25_11h39.35.910,LearnStrategy,2023.2.3,Win32,60.24096386,1,2,9,,,,,,,,3,16,,,,,,,,,,,1,1.033,0,,,,,,-0.325,-0.264814815,1,0,0,1.0332,Andesite_rect,8,0,8,0,1,
6674b4a918f2509894b3294e,SCN,2024-06-25_11h39.35.910,LearnStrategy,2023.2.3,Win32,60.24096386,1,2,10,,,,,,,,7,05,,,,,,,,,,,3,1.041,0,,,,,,0.152777778,-0.269444444,1,0,0,1.0407,Diorite_rect,9,0,9,0,1,
6674b4a918f2509894b3294e,SCN,2024-06-25_11h39.35.910,LearnStrategy,2023.2.3,Win32,60.24096386,1,2,11,,,,,,,,2,16,,,,,,,,,,,6,0.324,0,,,,,,-0.175925926,-0.407407407,1,0,0,0.3243,Pegmatite_rect,10,0,10,0,1,
6674b4a918f2509894b3294e,SCN,2024-06-25_11h39.35.910,LearnStrategy,2023.2.3,Win32,60.24096386,1,2,12,,,,,,,,1,10,,,,,,,,,,,2,0.307,0,,,,,,-0.175,-0.253703704,1,0,0,0.3069,Basalt_rect,11,0,11,0,1,
6674b4a918f2509894b3294e,SCN,2024-06-25_11h39.35.910,LearnStrategy,2023.2.3,Win32,60.24096386,1,2,13,,,,,,,,4,10,,,,,,,,,,,5,0.707,0,,,,,,-0.37962963,-0.386111111,1,0,0,0.7073,Obsidian_rect,12,0,12,0,1,
6674b4a918f2509894b3294e,SCN,2024-06-25_11h39.35.910,LearnStrategy,2023.2.3,Win32,60.24096386,1,2,14,,,,,,,,8,02,,,,,,,,,,,3,0.607,0,,,,,,0.113888889,-0.242592593,1,0,0,0.6067,Diorite_rect,13,0,13,0,1,
6674b4a918f2509894b3294e,SCN,2024-06-25_11h39.35.910,LearnStrategy,2023.2.3,Win32,60.24096386,1,2,15,,,,,,,,5,04,,,,,,,,,,,5,2.159,1,,,,,,-0.375925926,-0.405555556,1,0,0,2.1589,Obsidian_rect,14,0,14,0,1,
6674b4a918f2509894b3294e,SCN,2024-06-25_11h39.35.910,LearnStrategy,2023.2.3,Win32,60.24096386,1,2,16,,,,,,,,8,08,,,,,,,,,,,2,1.241,0,,,,,,-0.122222222,-0.262037037,1,0,0,1.2409,Basalt_rect,15,0,15,0,1,
6674b4a918f2509894b3294e,SCN,2024-06-25_11h39.35.910,LearnStrategy,2023.2.3,Win32,60.24096386,2,1,1,-0.569444444,0.107407407,1,0,0,12.227,Gabbro_01,4,01,4,1,12.227,-0.398148148,-0.256481481,1,0,0,1.2321,Andesite_rect,1,1.232,0,0,0,0,0,1,,,,,,,,,,,,,
6674b4a918f2509894b3294e,SCN,2024-06-25_11h39.35.910,LearnStrategy,2023.2.3,Win32,60.24096386,2,1,2,-0.361111111,0.111111111,1,0,0,0.6781,Obsidian_14,5,14,4,2,0.678,0.110185185,-0.265740741,1,0,0,1.0172,Diorite_rect,3,1.017,0,1,0,1,0,1,,,,,,,,,,,,,
6674b4a918f2509894b3294e,SCN,2024-06-25_11h39.35.910,LearnStrategy,2023.2.3,Win32,60.24096386,2,1,3,-0.218518519,0.111111111,1,0,0,2.0182,Diorite_02,3,02,4,3,2.018,0.389814815,-0.394444444,1,0,0,1.5792,Pumice_rect,8,1.579,0,2,0,2,0,1,,,,,,,,,,,,,
6674b4a918f2509894b3294e,SCN,2024-06-25_11h39.35.910,LearnStrategy,2023.2.3,Win32,60.24096386,2,1,4,-0.076851852,0.087962963,1,0,0,0.7167,Andesite_03,1,03,4,4,0.717,0.336111111,-0.378703704,1,0,0,2.5803,Pumice_rect,8,2.58,0,3,0,3,0,1,,,,,,,,,,,,,
6674b4a918f2509894b3294e,SCN,2024-06-25_11h39.35.910,LearnStrategy,2023.2.3,Win32,60.24096386,2,1,5,0.102777778,0.102777778,1,0,0,0.6829,Peridotite_02,7,02,4,5,0.683,0.134259259,-0.233333333,1,0,0,0.8792,Diorite_rect,3,0.879,0,4,0,4,0,1,,,,,,,,,,,,,
6674b4a918f2509894b3294e,SCN,2024-06-25_11h39.35.910,LearnStrategy,2023.2.3,Win32,60.24096386,2,1,6,0.212037037,0.073148148,1,0,0,0.6663,Pumice_09,8,09,4,6,0.666,-0.188888889,-0.250925926,1,0,0,0.8457,Basalt_rect,2,0.846,0,5,0,5,0,1,,,,,,,,,,,,,
6674b4a918f2509894b3294e,SCN,2024-06-25_11h39.35.910,LearnStrategy,2023.2.3,Win32,60.24096386,2,1,7,0.361111111,0.089814815,1,0,0,0.6835,Gabbro_03,4,03,4,7,0.683,0.375925926,-0.271296296,1,0,0,1.3961,Gabbro_rect,4,1.396,1,6,0,6,0,1,,,,,,,,,,,,,
6674b4a918f2509894b3294e,SCN,2024-06-25_11h39.35.910,LearnStrategy,2023.2.3,Win32,60.24096386,2,1,8,0.507407407,0.065740741,1,0,0,0.8,Pegmatite_12,6,12,4,8,0.8,-0.361111111,-0.264814815,1,0,0,1.0626,Andesite_rect,1,1.063,0,7,0,7,0,1,,,,,,,,,,,,,
6674b4a918f2509894b3294e,SCN,2024-06-25_11h39.35.910,LearnStrategy,2023.2.3,Win32,60.24096386,2,1,9,-0.563888889,-0.089814815,1,0,0,1.0499,Diorite_12,3,12,3,1,1.05,-0.426851852,-0.265740741,1,0,0,1.2629,Andesite_rect,1,1.263,0,8,0,8,0,1,,,,,,,,,,,,,
6674b4a918f2509894b3294e,SCN,2024-06-25_11h39.35.910,LearnStrategy,2023.2.3,Win32,60.24096386,2,1,10,-0.37037037,-0.12962963,1,0,0,0.6999,Obsidian_10,5,10,3,2,0.7,0.360185185,-0.269444444,1,0,0,0.9625,Gabbro_rect,4,0.962,0,9,0,9,0,1,,,,,,,,,,,,,
6674b4a918f2509894b3294e,SCN,2024-06-25_11h39.35.910,LearnStrategy,2023.2.3,Win32,60.24096386,2,1,11,-0.217592593,-0.091666667,1,0,0,0.8498,Andesite_01,1,01,3,3,0.85,0.337962963,-0.256481481,1,0,0,1.1958,Gabbro_rect,4,1.196,0,10,0,10,0,1,,,,,,,,,,,,,
6674b4a918f2509894b3294e,SCN,2024-06-25_11h39.35.910,LearnStrategy,2023.2.3,Win32,60.24096386,2,1,12,-0.081481481,-0.103703704,1,0,0,0.6501,Obsidian_02,5,02,3,4,0.65,-0.390740741,-0.412037037,1,0,0,0.6791,Obsidian_rect,5,0.679,1,11,0,11,0,1,,,,,,,,,,,,,
6674b4a918f2509894b3294e,SCN,2024-06-25_11h39.35.910,LearnStrategy,2023.2.3,Win32,60.24096386,2,1,13,0.093518519,-0.082407407,1,0,0,0.5326,Pumice_04,8,04,3,5,0.533,0.159259259,-0.251851852,1,0,0,0.9457,Diorite_rect,3,0.946,0,12,0,12,0,1,,,,,,,,,,,,,
6674b4a918f2509894b3294e,SCN,2024-06-25_11h39.35.910,LearnStrategy,2023.2.3,Win32,60.24096386,2,1,14,0.225925926,-0.096296296,1,0,0,0.6329,Pegmatite_09,6,09,3,6,0.633,-0.119444444,-0.384259259,1,0,0,0.7623,Pegmatite_rect,6,0.762,1,13,0,13,0,1,,,,,,,,,,,,,
6674b4a918f2509894b3294e,SCN,2024-06-25_11h39.35.910,LearnStrategy,2023.2.3,Win32,60.24096386,2,1,15,0.386111111,-0.098148148,1,0,0,1.7672,Basalt_01,2,01,3,7,1.767,-0.097222222,-0.25,1,0,0,1.2127,Basalt_rect,2,1.213,1,14,0,14,0,1,,,,,,,,,,,,,
6674b4a918f2509894b3294e,SCN,2024-06-25_11h39.35.910,LearnStrategy,2023.2.3,Win32,60.24096386,2,1,16,0.592592593,-0.077777778,1,0,0,0.6165,Peridotite_07,7,07,3,8,0.616,0.380555556,-0.256481481,1,0,0,0.962,Gabbro_rect,4,0.962,0,15,0,15,0,1,,,,,,,,,,,,,
6674b4a918f2509894b3294e,SCN,2024-06-25_11h39.35.910,LearnStrategy,2023.2.3,Win32,60.24096386,2,2,1,,,,,,,,1,02,,,,,,,,,,,2,2.197,0,,,,,,-0.15,-0.237037037,1,0,0,2.1974,Basalt_rect,0,0,0,0,1,
6674b4a918f2509894b3294e,SCN,2024-06-25_11h39.35.910,LearnStrategy,2023.2.3,Win32,60.24096386,2,2,2,,,,,,,,2,10,,,,,,,,,,,3,0.529,0,,,,,,0.126851852,-0.259259259,1,0,0,0.529,Diorite_rect,1,0,1,0,1,
6674b4a918f2509894b3294e,SCN,2024-06-25_11h39.35.910,LearnStrategy,2023.2.3,Win32,60.24096386,2,2,3,,,,,,,,3,10,,,,,,,,,,,4,1.697,0,,,,,,0.364814815,-0.261111111,1,0,0,1.6968,Gabbro_rect,2,0,2,0,1,
6674b4a918f2509894b3294e,SCN,2024-06-25_11h39.35.910,LearnStrategy,2023.2.3,Win32,60.24096386,2,2,4,,,,,,,,8,06,,,,,,,,,,,7,1.964,0,,,,,,0.089814815,-0.393518519,1,0,0,1.9642,Peridotite_rect,3,0,3,0,1,
6674b4a918f2509894b3294e,SCN,2024-06-25_11h39.35.910,LearnStrategy,2023.2.3,Win32,60.24096386,2,2,5,,,,,,,,3,15,,,,,,,,,,,4,1.096,0,,,,,,0.425,-0.269444444,1,0,0,1.0963,Gabbro_rect,4,0,4,0,1,
6674b4a918f2509894b3294e,SCN,2024-06-25_11h39.35.910,LearnStrategy,2023.2.3,Win32,60.24096386,2,2,6,,,,,,,,4,12,,,,,,,,,,,4,1.063,1,,,,,,0.397222222,-0.243518519,1,0,0,1.0629,Gabbro_rect,5,0,5,0,1,
6674b4a918f2509894b3294e,SCN,2024-06-25_11h39.35.910,LearnStrategy,2023.2.3,Win32,60.24096386,2,2,7,,,,,,,,2,11,,,,,,,,,,,2,1.747,1,,,,,,-0.046296296,-0.253703704,1,0,0,1.7472,Basalt_rect,6,0,6,0,1,
6674b4a918f2509894b3294e,SCN,2024-06-25_11h39.35.910,LearnStrategy,2023.2.3,Win32,60.24096386,2,2,8,,,,,,,,6,10,,,,,,,,,,,7,0.98,0,,,,,,0.086111111,-0.399074074,1,0,0,0.9799,Peridotite_rect,7,0,7,0,1,
6674b4a918f2509894b3294e,SCN,2024-06-25_11h39.35.910,LearnStrategy,2023.2.3,Win32,60.24096386,2,2,9,,,,,,,,5,12,,,,,,,,,,,5,1.046,1,,,,,,-0.437037037,-0.412037037,1,0,0,1.0464,Obsidian_rect,8,0,8,0,1,
6674b4a918f2509894b3294e,SCN,2024-06-25_11h39.35.910,LearnStrategy,2023.2.3,Win32,60.24096386,2,2,10,,,,,,,,4,05,,,,,,,,,,,4,1.013,1,,,,,,0.499074074,-0.268518519,1,0,0,1.0133,Gabbro_rect,9,0,9,0,1,
6674b4a918f2509894b3294e,SCN,2024-06-25_11h39.35.910,LearnStrategy,2023.2.3,Win32,60.24096386,2,2,11,,,,,,,,7,08,,,,,,,,,,,4,0.713,0,,,,,,0.331481481,-0.264814815,1,0,0,0.7125,Gabbro_rect,10,0,10,0,1,
6674b4a918f2509894b3294e,SCN,2024-06-25_11h39.35.910,LearnStrategy,2023.2.3,Win32,60.24096386,2,2,12,,,,,,,,1,04,,,,,,,,,,,1,2.849,1,,,,,,-0.350925926,-0.237037037,1,0,0,2.8485,Andesite_rect,11,0,11,0,1,
6674b4a918f2509894b3294e,SCN,2024-06-25_11h39.35.910,LearnStrategy,2023.2.3,Win32,60.24096386,2,2,13,,,,,,,,6,16,,,,,,,,,,,7,1.146,0,,,,,,0.1,-0.414814815,1,0,0,1.1462,Peridotite_rect,12,0,12,0,1,
6674b4a918f2509894b3294e,SCN,2024-06-25_11h39.35.910,LearnStrategy,2023.2.3,Win32,60.24096386,2,2,14,,,,,,,,5,07,,,,,,,,,,,5,1.163,1,,,,,,-0.37962963,-0.400925926,1,0,0,1.1629,Obsidian_rect,13,0,13,0,1,
6674b4a918f2509894b3294e,SCN,2024-06-25_11h39.35.910,LearnStrategy,2023.2.3,Win32,60.24096386,2,2,15,,,,,,,,8,13,,,,,,,,,,,8,2.114,1,,,,,,0.322222222,-0.416666667,1,0,0,2.1142,Pumice_rect,14,0,14,0,1,
6674b4a918f2509894b3294e,SCN,2024-06-25_11h39.35.910,LearnStrategy,2023.2.3,Win32,60.24096386,2,2,16,,,,,,,,7,15,,,,,,,,,,,4,1.33,0,,,,,,0.408333333,-0.25462963,1,0,0,1.3299,Gabbro_rect,15,0,15,0,1,
6674b4a918f2509894b3294e,SCN,2024-06-25_11h39.35.910,LearnStrategy,2023.2.3,Win32,60.24096386,3,1,1,-0.048148148,-0.410185185,1,0,0,3.4525,Diorite_08,3,08,1,4,3.453,0.093518519,-0.412962963,1,0,0,2.7346,Peridotite_rect,7,2.735,0,0,0,0,0,1,,,,,,,,,,,,,
6674b4a918f2509894b3294e,SCN,2024-06-25_11h39.35.910,LearnStrategy,2023.2.3,Win32,60.24096386,3,1,2,0.384259259,-0.09537037,1,0,0,0.4406,Basalt_01,2,01,3,7,0.441,0.087962963,-0.263888889,1,0,0,0.6667,Diorite_rect,3,0.667,0,1,0,1,0,1,,,,,,,,,,,,,
6674b4a918f2509894b3294e,SCN,2024-06-25_11h39.35.910,LearnStrategy,2023.2.3,Win32,60.24096386,3,1,3,0.541666667,-0.408333333,1,0,0,0.7834,Andesite_11,1,11,1,8,0.783,0.090740741,-0.259259259,1,0,0,0.7455,Diorite_rect,3,0.745,0,2,0,2,0,1,,,,,,,,,,,,,
6674b4a918f2509894b3294e,SCN,2024-06-25_11h39.35.910,LearnStrategy,2023.2.3,Win32,60.24096386,3,1,4,-0.400925926,-0.406481481,1,0,0,0.683,Pumice_16,8,16,1,2,0.683,-0.184259259,-0.251851852,1,0,0,0.8624,Basalt_rect,2,0.862,0,3,0,3,0,1,,,,,,,,,,,,,
6674b4a918f2509894b3294e,SCN,2024-06-25_11h39.35.910,LearnStrategy,2023.2.3,Win32,60.24096386,3,1,5,-0.118518519,-0.408333333,1,0,0,1.2835,Diorite_08,3,08,1,4,1.284,0.067592593,-0.25462963,1,0,0,1.563,Diorite_rect,3,1.563,1,4,0,4,0,1,,,,,,,,,,,,,
6674b4a918f2509894b3294e,SCN,2024-06-25_11h39.35.910,LearnStrategy,2023.2.3,Win32,60.24096386,3,1,6,0.243518519,-0.261111111,1,0,0,0.9423,Basalt_14,2,14,2,6,0.942,0.162962963,-0.243518519,1,0,0,0.6454,Diorite_rect,3,0.645,0,5,0,5,0,1,,,,,,,,,,,,,
6674b4a918f2509894b3294e,SCN,2024-06-25_11h39.35.910,LearnStrategy,2023.2.3,Win32,60.24096386,3,1,7,0.400925926,-0.408333333,1,0,0,0.8832,Pegmatite_13,6,13,1,7,0.883,0.113888889,-0.380555556,1,0,0,0.7124,Peridotite_rect,7,0.712,0,6,0,6,0,1,,,,,,,,,,,,,
6674b4a918f2509894b3294e,SCN,2024-06-25_11h39.35.910,LearnStrategy,2023.2.3,Win32,60.24096386,3,1,8,0.539814815,-0.412037037,1,0,0,0.8665,Andesite_11,1,11,1,8,0.866,0.17037037,-0.240740741,1,0,0,0.6288,Diorite_rect,3,0.629,0,7,0,7,0,1,,,,,,,,,,,,,
6674b4a918f2509894b3294e,SCN,2024-06-25_11h39.35.910,LearnStrategy,2023.2.3,Win32,60.24096386,3,1,9,-0.25,-0.108333333,1,0,0,0.7667,Andesite_01,1,01,3,3,0.767,-0.112962963,-0.236111111,1,0,0,0.6287,Basalt_rect,2,0.629,0,8,0,8,0,1,,,,,,,,,,,,,
6674b4a918f2509894b3294e,SCN,2024-06-25_11h39.35.910,LearnStrategy,2023.2.3,Win32,60.24096386,3,1,10,0.221296296,0.081481481,1,0,0,0.8995,Pumice_09,8,09,4,6,0.899,0.085185185,-0.239814815,1,0,0,0.6455,Diorite_rect,3,0.645,0,9,0,9,0,1,,,,,,,,,,,,,
6674b4a918f2509894b3294e,SCN,2024-06-25_11h39.35.910,LearnStrategy,2023.2.3,Win32,60.24096386,3,1,11,-0.119444444,-0.105555556,1,0,0,0.9168,Obsidian_02,5,02,3,4,0.917,-0.339814815,-0.397222222,1,0,0,0.7957,Obsidian_rect,5,0.796,1,10,0,10,0,1,,,,,,,,,,,,,
6674b4a918f2509894b3294e,SCN,2024-06-25_11h39.35.910,LearnStrategy,2023.2.3,Win32,60.24096386,3,1,12,0.101851852,-0.092592593,1,0,0,0.6665,Pumice_04,8,04,3,5,0.666,0.092592593,-0.241666667,1,0,0,0.4954,Diorite_rect,3,0.495,0,11,0,11,0,1,,,,,,,,,,,,,
6674b4a918f2509894b3294e,SCN,2024-06-25_11h39.35.910,LearnStrategy,2023.2.3,Win32,60.24096386,3,1,13,-0.185185185,-0.075925926,1,0,0,0.5496,Andesite_01,1,01,3,3,0.55,-0.059259259,-0.243518519,1,0,0,1.5129,Basalt_rect,2,1.513,0,12,0,12,0,1,,,,,,,,,,,,,
6674b4a918f2509894b3294e,SCN,2024-06-25_11h39.35.910,LearnStrategy,2023.2.3,Win32,60.24096386,3,1,14,0.091666667,-0.089814815,1,0,0,0.7334,Pumice_04,8,04,3,5,0.733,0.051851852,-0.238888889,1,0,0,0.9287,Diorite_rect,3,0.929,0,13,0,13,0,1,,,,,,,,,,,,,
6674b4a918f2509894b3294e,SCN,2024-06-25_11h39.35.910,LearnStrategy,2023.2.3,Win32,60.24096386,3,1,15,-0.22962963,-0.228703704,1,0,0,0.7665,Pegmatite_03,6,03,2,3,0.767,-0.033333333,-0.257407407,1,0,0,0.5623,Basalt_rect,2,0.562,0,14,0,14,0,1,,,,,,,,,,,,,
6674b4a918f2509894b3294e,SCN,2024-06-25_11h39.35.910,LearnStrategy,2023.2.3,Win32,60.24096386,3,1,16,0.087037037,-0.267592593,1,0,0,0.8832,Peridotite_13,7,13,2,5,0.883,0.164814815,-0.387962963,1,0,0,0.9459,Peridotite_rect,7,0.946,1,15,0,15,0,1,,,,,,,,,,,,,
6674b4a918f2509894b3294e,SCN,2024-06-25_11h39.35.910,LearnStrategy,2023.2.3,Win32,60.24096386,3,2,1,,,,,,,,2,02,,,,,,,,,,,3,4.266,0,,,,,,0.143518519,-0.243518519,1,0,0,4.2664,Diorite_rect,0,0,0,0,1,
6674b4a918f2509894b3294e,SCN,2024-06-25_11h39.35.910,LearnStrategy,2023.2.3,Win32,60.24096386,3,2,2,,,,,,,,5,09,,,,,,,,,,,5,1.25,1,,,,,,-0.391666667,-0.415740741,1,0,0,1.2503,Obsidian_rect,1,0,1,0,1,
6674b4a918f2509894b3294e,SCN,2024-06-25_11h39.35.910,LearnStrategy,2023.2.3,Win32,60.24096386,3,2,3,,,,,,,,7,06,,,,,,,,,,,4,0.841,0,,,,,,0.388888889,-0.234259259,1,0,0,0.8406,Gabbro_rect,2,0,2,0,1,
6674b4a918f2509894b3294e,SCN,2024-06-25_11h39.35.910,LearnStrategy,2023.2.3,Win32,60.24096386,3,2,4,,,,,,,,1,16,,,,,,,,,,,4,0.926,0,,,,,,0.387962963,-0.257407407,1,0,0,0.9259,Gabbro_rect,3,0,3,0,1,
6674b4a918f2509894b3294e,SCN,2024-06-25_11h39.35.910,LearnStrategy,2023.2.3,Win32,60.24096386,3,2,5,,,,,,,,3,13,,,,,,,,,,,4,1.074,0,,,,,,0.415740741,-0.235185185,1,0,0,1.0739,Gabbro_rect,4,0,4,0,1,
6674b4a918f2509894b3294e,SCN,2024-06-25_11h39.35.910,LearnStrategy,2023.2.3,Win32,60.24096386,3,2,6,,,,,,,,1,06,,,,,,,,,,,1,0.941,1,,,,,,-0.363888889,-0.242592593,1,0,0,0.9406,Andesite_rect,5,0,5,0,1,
6674b4a918f2509894b3294e,SCN,2024-06-25_11h39.35.910,LearnStrategy,2023.2.3,Win32,60.24096386,3,2,7,,,,,,,,7,04,,,,,,,,,,,7,0.924,1,,,,,,0.099074074,-0.401851852,1,0,0,0.9239,Peridotite_rect,6,0,6,0,1,
6674b4a918f2509894b3294e,SCN,2024-06-25_11h39.35.910,LearnStrategy,2023.2.3,Win32,60.24096386,3,2,8,,,,,,,,5,16,,,,,,,,,,,5,1.551,1,,,,,,-0.396296296,-0.405555556,1,0,0,1.5512,Obsidian_rect,7,0,7,0,1,
6674b4a918f2509894b3294e,SCN,2024-06-25_11h39.35.910,LearnStrategy,2023.2.3,Win32,60.24096386,3,2,9,,,,,,,,3,09,,,,,,,,,,,4,1.192,0,,,,,,0.452777778,-0.252777778,1,0,0,1.1921,Gabbro_rect,8,0,8,0,1,
6674b4a918f2509894b3294e,SCN,2024-06-25_11h39.35.910,LearnStrategy,2023.2.3,Win32,60.24096386,3,2,10,,,,,,,,6,06,,,,,,,,,,,7,1.324,0,,,,,,0.109259259,-0.421296296,1,0,0,1.3239,Peridotite_rect,9,0,9,0,1,
6674b4a918f2509894b3294e,SCN,2024-06-25_11h39.35.910,LearnStrategy,2023.2.3,Win32,60.24096386,3,2,11,,,,,,,,2,08,,,,,,,,,,,2,1.391,1,,,,,,-0.1,-0.271296296,1,0,0,1.3909,Basalt_rect,10,0,10,0,1,
6674b4a918f2509894b3294e,SCN,2024-06-25_11h39.35.910,LearnStrategy,2023.2.3,Win32,60.24096386,3,2,12,,,,,,,,8,03,,,,,,,,,,,8,1.174,1,,,,,,0.367592593,-0.389814815,1,0,0,1.1742,Pumice_rect,11,0,11,0,1,
6674b4a918f2509894b3294e,SCN,2024-06-25_11h39.35.910,LearnStrategy,2023.2.3,Win32,60.24096386,3,2,13,,,,,,,,6,15,,,,,,,,,,,7,1.024,0,,,,,,0.102777778,-0.402777778,1,0,0,1.0238,Peridotite_rect,12,0,12,0,1,
6674b4a918f2509894b3294e,SCN,2024-06-25_11h39.35.910,LearnStrategy,2023.2.3,Win32,60.24096386,3,2,14,,,,,,,,8,15,,,,,,,,,,,8,1.257,1,,,,,,0.406481481,-0.409259259,1,0,0,1.2575,Pumice_rect,13,0,13,0,1,
6674b4a918f2509894b3294e,SCN,2024-06-25_11h39.35.910,LearnStrategy,2023.2.3,Win32,60.24096386,3,2,15,,,,,,,,4,08,,,,,,,,,,,2,1.458,0,,,,,,-0.086111111,-0.247222222,1,0,0,1.4579,Basalt_rect,14,0,14,0,1,
6674b4a918f2509894b3294e,SCN,2024-06-25_11h39.35.910,LearnStrategy,2023.2.3,Win32,60.24096386,3,2,16,,,,,,,,4,15,,,,,,,,,,,4,0.891,1,,,,,,0.331481481,-0.250925926,1,0,0,0.8907,Gabbro_rect,15,0,15,0,1,
6674b4a918f2509894b3294e,SCN,2024-06-25_11h39.35.910,LearnStrategy,2023.2.3,Win32,60.24096386,4,1,1,-0.256481481,-0.072222222,1,0,0,0.4614,Andesite_01,1,01,3,3,0.461,-0.10462963,-0.233333333,1,0,0,0.7834,Basalt_rect,2,0.783,0,0,0,0,0,1,,,,,,,,,,,,,
6674b4a918f2509894b3294e,SCN,2024-06-25_11h39.35.910,LearnStrategy,2023.2.3,Win32,60.24096386,4,1,2,-0.432407407,-0.069444444,1,0,0,0.5332,Obsidian_10,5,10,3,2,0.533,0.139814815,-0.402777778,1,0,0,1.1295,Peridotite_rect,7,1.13,0,1,0,1,0,1,,,,,,,,,,,,,
6674b4a918f2509894b3294e,SCN,2024-06-25_11h39.35.910,LearnStrategy,2023.2.3,Win32,60.24096386,4,1,3,0.090740741,0.105555556,1,0,0,0.5997,Peridotite_02,7,02,4,5,0.6,0.371296296,-0.252777778,1,0,0,0.7956,Gabbro_rect,4,0.796,0,2,0,2,0,1,,,,,,,,,,,,,
6674b4a918f2509894b3294e,SCN,2024-06-25_11h39.35.910,LearnStrategy,2023.2.3,Win32,60.24096386,4,1,4,0.215740741,-0.238888889,1,0,0,0.683,Basalt_14,2,14,2,6,0.683,0.228703704,-0.256481481,1,0,0,0.4621,Diorite_rect,3,0.462,0,3,0,3,0,1,,,,,,,,,,,,,
6674b4a918f2509894b3294e,SCN,2024-06-25_11h39.35.910,LearnStrategy,2023.2.3,Win32,60.24096386,4,1,5,0.27037037,0.089814815,1,0,0,0.6996,Pumice_09,8,09,4,6,0.7,-0.084259259,-0.262037037,1,0,0,1.046,Basalt_rect,2,1.046,0,4,0,4,0,1,,,,,,,,,,,,,
6674b4a918f2509894b3294e,SCN,2024-06-25_11h39.35.910,LearnStrategy,2023.2.3,Win32,60.24096386,4,1,6,-0.225925926,0.137962963,1,0,0,0.7162,Diorite_02,3,02,4,3,0.716,-0.136111111,-0.267592593,1,0,0,0.5954,Basalt_rect,2,0.595,0,5,0,5,0,1,,,,,,,,,,,,,
6674b4a918f2509894b3294e,SCN,2024-06-25_11h39.35.910,LearnStrategy,2023.2.3,Win32,60.24096386,4,1,7,-0.437037037,0.2,1,0,0,0.7832,Andesite_14,1,14,5,2,0.783,-0.142592593,-0.236111111,1,0,0,0.7288,Basalt_rect,2,0.729,0,6,0,6,0,1,,,,,,,,,,,,,
6674b4a918f2509894b3294e,SCN,2024-06-25_11h39.35.910,LearnStrategy,2023.2.3,Win32,60.24096386,4,1,8,0.09537037,0.102777778,1,0,0,0.4497,Peridotite_02,7,02,4,5,0.45,0.110185185,-0.258333333,1,0,0,0.6125,Diorite_rect,3,0.612,0,7,0,7,0,1,,,,,,,,,,,,,
6674b4a918f2509894b3294e,SCN,2024-06-25_11h39.35.910,LearnStrategy,2023.2.3,Win32,60.24096386,4,1,9,-0.359259259,-0.115740741,1,0,0,0.7167,Obsidian_10,5,10,3,2,0.717,-0.366666667,-0.389814815,1,0,0,0.5783,Obsidian_rect,5,0.578,1,8,0,8,0,1,,,,,,,,,,,,,
6674b4a918f2509894b3294e,SCN,2024-06-25_11h39.35.910,LearnStrategy,2023.2.3,Win32,60.24096386,4,1,10,-0.511111111,0.113888889,1,0,0,0.6831,Gabbro_01,4,01,4,1,0.683,0.312962963,-0.256481481,1,0,0,0.5957,Gabbro_rect,4,0.596,1,9,0,9,0,1,,,,,,,,,,,,,
6674b4a918f2509894b3294e,SCN,2024-06-25_11h39.35.910,LearnStrategy,2023.2.3,Win32,60.24096386,4,1,11,-0.05462963,-0.140740741,1,0,0,1.3834,Obsidian_02,5,02,3,4,1.383,-0.316666667,-0.402777778,1,0,0,1.4633,Obsidian_rect,5,1.463,1,10,0,10,0,1,,,,,,,,,,,,,
6674b4a918f2509894b3294e,SCN,2024-06-25_11h39.35.910,LearnStrategy,2023.2.3,Win32,60.24096386,4,1,12,0.239814815,0.081481481,1,0,0,0.7662,Pumice_09,8,09,4,6,0.766,0.387037037,-0.390740741,1,0,0,0.8123,Pumice_rect,8,0.812,1,11,0,11,0,1,,,,,,,,,,,,,
6674b4a918f2509894b3294e,SCN,2024-06-25_11h39.35.910,LearnStrategy,2023.2.3,Win32,60.24096386,4,1,13,0.538888889,-0.39537037,1,0,0,1.2669,Andesite_11,1,11,1,8,1.267,-0.380555556,-0.242592593,1,0,0,0.8794,Andesite_rect,1,0.879,1,12,0,12,0,1,,,,,,,,,,,,,
6674b4a918f2509894b3294e,SCN,2024-06-25_11h39.35.910,LearnStrategy,2023.2.3,Win32,60.24096386,4,1,14,0.377777778,-0.087037037,1,0,0,1.6006,Basalt_01,2,01,3,7,1.601,-0.368518519,-0.25462963,1,0,0,1.0125,Andesite_rect,1,1.013,0,13,0,13,0,1,,,,,,,,,,,,,
6674b4a918f2509894b3294e,SCN,2024-06-25_11h39.35.910,LearnStrategy,2023.2.3,Win32,60.24096386,4,1,15,-0.37037037,-0.256481481,1,0,0,0.9001,Basalt_06,2,06,2,2,0.9,-0.221296296,-0.242592593,1,0,0,0.5117,Basalt_rect,2,0.512,1,14,0,14,0,1,,,,,,,,,,,,,
6674b4a918f2509894b3294e,SCN,2024-06-25_11h39.35.910,LearnStrategy,2023.2.3,Win32,60.24096386,4,1,16,-0.228703704,0.1,1,0,0,0.6498,Diorite_02,3,02,4,3,0.65,0.366666667,-0.392592593,1,0,0,0.9794,Pumice_rect,8,0.979,0,15,0,15,0,1,,,,,,,,,,,,,
6674b4a918f2509894b3294e,SCN,2024-06-25_11h39.35.910,LearnStrategy,2023.2.3,Win32,60.24096386,4,2,1,,,,,,,,6,07,,,,,,,,,,,7,2.331,0,,,,,,0.153703704,-0.410185185,1,0,0,2.3311,Peridotite_rect,0,0,0,0,1,
6674b4a918f2509894b3294e,SCN,2024-06-25_11h39.35.910,LearnStrategy,2023.2.3,Win32,60.24096386,4,2,2,,,,,,,,6,16,,,,,,,,,,,3,2.168,0,,,,,,0.164814815,-0.255555556,1,0,0,2.1679,Diorite_rect,1,0,1,0,1,
6674b4a918f2509894b3294e,SCN,2024-06-25_11h39.35.910,LearnStrategy,2023.2.3,Win32,60.24096386,4,2,3,,,,,,,,3,13,,,,,,,,,,,4,1.241,0,,,,,,0.4,-0.232407407,1,0,0,1.2414,Gabbro_rect,2,0,2,0,1,
6674b4a918f2509894b3294e,SCN,2024-06-25_11h39.35.910,LearnStrategy,2023.2.3,Win32,60.24096386,4,2,4,,,,,,,,4,05,,,,,,,,,,,4,1.091,1,,,,,,0.399074074,-0.238888889,1,0,0,1.0911,Gabbro_rect,3,0,3,0,1,
6674b4a918f2509894b3294e,SCN,2024-06-25_11h39.35.910,LearnStrategy,2023.2.3,Win32,60.24096386,4,2,5,,,,,,,,8,15,,,,,,,,,,,8,0.891,1,,,,,,0.339814815,-0.396296296,1,0,0,0.8908,Pumice_rect,4,0,4,0,1,
6674b4a918f2509894b3294e,SCN,2024-06-25_11h39.35.910,LearnStrategy,2023.2.3,Win32,60.24096386,4,2,6,,,,,,,,7,04,,,,,,,,,,,7,1.124,1,,,,,,0.078703704,-0.416666667,1,0,0,1.1242,Peridotite_rect,5,0,5,0,1,
6674b4a918f2509894b3294e,SCN,2024-06-25_11h39.35.910,LearnStrategy,2023.2.3,Win32,60.24096386,4,2,7,,,,,,,,5,04,,,,,,,,,,,5,1.525,1,,,,,,-0.386111111,-0.39537037,1,0,0,1.5248,Obsidian_rect,6,0,6,0,1,
6674b4a918f2509894b3294e,SCN,2024-06-25_11h39.35.910,LearnStrategy,2023.2.3,Win32,60.24096386,4,2,8,,,,,,,,8,02,,,,,,,,,,,8,1.057,1,,,,,,0.334259259,-0.380555556,1,0,0,1.0569,Pumice_rect,7,0,7,0,1,
6674b4a918f2509894b3294e,SCN,2024-06-25_11h39.35.910,LearnStrategy,2023.2.3,Win32,60.24096386,4,2,9,,,,,,,,5,06,,,,,,,,,,,5,1.024,1,,,,,,-0.342592593,-0.410185185,1,0,0,1.0239,Obsidian_rect,8,0,8,0,1,
6674b4a918f2509894b3294e,SCN,2024-06-25_11h39.35.910,LearnStrategy,2023.2.3,Win32,60.24096386,4,2,10,,,,,,,,1,04,,,,,,,,,,,1,2.474,1,,,,,,-0.398148148,-0.261111111,1,0,0,2.4739,Andesite_rect,9,0,9,0,1,
6674b4a918f2509894b3294e,SCN,2024-06-25_11h39.35.910,LearnStrategy,2023.2.3,Win32,60.24096386,4,2,11,,,,,,,,2,09,,,,,,,,,,,1,1.174,0,,,,,,-0.385185185,-0.263888889,1,0,0,1.1739,Andesite_rect,10,0,10,0,1,
6674b4a918f2509894b3294e,SCN,2024-06-25_11h39.35.910,LearnStrategy,2023.2.3,Win32,60.24096386,4,2,12,,,,,,,,4,11,,,,,,,,,,,2,0.958,0,,,,,,-0.138888889,-0.238888889,1,0,0,0.9576,Basalt_rect,11,0,11,0,1,
6674b4a918f2509894b3294e,SCN,2024-06-25_11h39.35.910,LearnStrategy,2023.2.3,Win32,60.24096386,4,2,13,,,,,,,,1,02,,,,,,,,,,,7,0.99,0,,,,,,0.112962963,-0.405555556,1,0,0,0.9905,Peridotite_rect,12,0,12,0,1,
6674b4a918f2509894b3294e,SCN,2024-06-25_11h39.35.910,LearnStrategy,2023.2.3,Win32,60.24096386,4,2,14,,,,,,,,3,16,,,,,,,,,,,7,1.441,0,,,,,,0.20462963,-0.406481481,1,0,0,1.4412,Peridotite_rect,13,0,13,0,1,
6674b4a918f2509894b3294e,SCN,2024-06-25_11h39.35.910,LearnStrategy,2023.2.3,Win32,60.24096386,4,2,15,,,,,,,,2,02,,,,,,,,,,,2,1.041,1,,,,,,-0.144444444,-0.234259259,1,0,0,1.041,Basalt_rect,14,0,14,0,1,
6674b4a918f2509894b3294e,SCN,2024-06-25_11h39.35.910,LearnStrategy,2023.2.3,Win32,60.24096386,4,2,16,,,,,,,,7,06,,,,,,,,,,,7,1.191,1,,,,,,0.171296296,-0.405555556,1,0,0,1.1911,Peridotite_rect,15,0,15,0,1,
6674b4a918f2509894b3294e,SCN,2024-06-25_11h39.35.910,LearnStrategy,2023.2.3,Win32,60.24096386,5,1,1,-0.403703704,-0.110185185,1,0,0,0.4619,Obsidian_10,5,10,3,2,0.462,-0.119444444,-0.255555556,1,0,0,0.5987,Basalt_rect,2,0.599,0,0,0,0,0,1,,,,,,,,,,,,,
6674b4a918f2509894b3294e,SCN,2024-06-25_11h39.35.910,LearnStrategy,2023.2.3,Win32,60.24096386,5,1,2,0.088888889,0.087037037,1,0,0,0.5493,Peridotite_02,7,02,4,5,0.549,0.075925926,-0.24537037,1,0,0,0.5788,Diorite_rect,3,0.579,0,1,0,1,0,1,,,,,,,,,,,,,
6674b4a918f2509894b3294e,SCN,2024-06-25_11h39.35.910,LearnStrategy,2023.2.3,Win32,60.24096386,5,1,3,-0.249074074,0.276851852,1,0,0,0.7496,Basalt_12,2,12,5,3,0.75,-0.456481481,-0.240740741,1,0,0,1.0459,Andesite_rect,1,1.046,0,2,0,2,0,1,,,,,,,,,,,,,
6674b4a918f2509894b3294e,SCN,2024-06-25_11h39.35.910,LearnStrategy,2023.2.3,Win32,60.24096386,5,1,4,0.209259259,-0.075,1,0,0,0.6827,Pegmatite_09,6,09,3,6,0.683,0.077777778,-0.415740741,1,0,0,0.6455,Peridotite_rect,7,0.645,0,3,0,3,0,1,,,,,,,,,,,,,
6674b4a918f2509894b3294e,SCN,2024-06-25_11h39.35.910,LearnStrategy,2023.2.3,Win32,60.24096386,5,1,5,0.200925926,0.077777778,1,0,0,0.5997,Pumice_09,8,09,4,6,0.6,0.386111111,-0.409259259,1,0,0,1.363,Pumice_rect,8,1.363,1,4,0,4,0,1,,,,,,,,,,,,,
6674b4a918f2509894b3294e,SCN,2024-06-25_11h39.35.910,LearnStrategy,2023.2.3,Win32,60.24096386,5,1,6,-0.241666667,-0.112037037,1,0,0,0.917,Andesite_01,1,01,3,3,0.917,-0.096296296,-0.251851852,1,0,0,0.6454,Basalt_rect,2,0.645,0,5,0,5,0,1,,,,,,,,,,,,,
6674b4a918f2509894b3294e,SCN,2024-06-25_11h39.35.910,LearnStrategy,2023.2.3,Win32,60.24096386,5,1,7,0.083333333,-0.087962963,1,0,0,0.6662,Pumice_04,8,04,3,5,0.666,0.387962963,-0.390740741,1,0,0,0.7123,Pumice_rect,8,0.712,1,6,0,6,0,1,,,,,,,,,,,,,
6674b4a918f2509894b3294e,SCN,2024-06-25_11h39.35.910,LearnStrategy,2023.2.3,Win32,60.24096386,5,1,8,0.367592593,-0.247222222,1,0,0,0.7333,Pegmatite_05,6,05,2,7,0.733,0.144444444,-0.243518519,1,0,0,1.3128,Diorite_rect,3,1.313,0,7,0,7,0,1,,,,,,,,,,,,,
6674b4a918f2509894b3294e,SCN,2024-06-25_11h39.35.910,LearnStrategy,2023.2.3,Win32,60.24096386,5,1,9,-0.546296296,0.103703704,1,0,0,0.8164,Gabbro_01,4,01,4,1,0.816,0.292592593,-0.230555556,1,0,0,0.6957,Gabbro_rect,4,0.696,1,8,0,8,0,1,,,,,,,,,,,,,
6674b4a918f2509894b3294e,SCN,2024-06-25_11h39.35.910,LearnStrategy,2023.2.3,Win32,60.24096386,5,1,10,-0.194444444,0.249074074,1,0,0,0.9499,Basalt_12,2,12,5,3,0.95,0.307407407,-0.24537037,1,0,0,0.7122,Gabbro_rect,4,0.712,0,9,0,9,0,1,,,,,,,,,,,,,
6674b4a918f2509894b3294e,SCN,2024-06-25_11h39.35.910,LearnStrategy,2023.2.3,Win32,60.24096386,5,1,11,-0.077777778,0.213888889,1,0,0,0.6995,Pumice_10,8,10,5,4,0.7,0.432407407,-0.40462963,1,0,0,0.7289,Pumice_rect,8,0.729,1,10,0,10,0,1,,,,,,,,,,,,,
6674b4a918f2509894b3294e,SCN,2024-06-25_11h39.35.910,LearnStrategy,2023.2.3,Win32,60.24096386,5,1,12,-0.105555556,-0.109259259,1,0,0,1.3505,Obsidian_02,5,02,3,4,1.351,-0.10462963,-0.237037037,1,0,0,0.5625,Basalt_rect,2,0.563,0,11,0,11,0,1,,,,,,,,,,,,,
6674b4a918f2509894b3294e,SCN,2024-06-25_11h39.35.910,LearnStrategy,2023.2.3,Win32,60.24096386,5,1,13,0.22037037,-0.112037037,1,0,0,3.1015,Pegmatite_09,6,09,3,6,3.101,-0.140740741,-0.401851852,1,0,0,1.8185,Pegmatite_rect,6,1.819,1,12,0,12,0,1,,,,,,,,,,,,,
6674b4a918f2509894b3294e,SCN,2024-06-25_11h39.35.910,LearnStrategy,2023.2.3,Win32,60.24096386,5,1,14,-0.550925926,0.096296296,1,0,0,0.9621,Gabbro_01,4,01,4,1,0.962,0.077777778,-0.261111111,1,0,0,0.9669,Diorite_rect,3,0.967,0,13,0,13,0,1,,,,,,,,,,,,,
6674b4a918f2509894b3294e,SCN,2024-06-25_11h39.35.910,LearnStrategy,2023.2.3,Win32,60.24096386,5,1,15,0.418518519,-0.112962963,1,0,0,0.8165,Basalt_01,2,01,3,7,0.817,-0.34537037,-0.24537037,1,0,0,0.5959,Andesite_rect,1,0.596,0,14,0,14,0,1,,,,,,,,,,,,,
6674b4a918f2509894b3294e,SCN,2024-06-25_11h39.35.910,LearnStrategy,2023.2.3,Win32,60.24096386,5,1,16,-0.081481481,-0.243518519,1,0,0,0.5827,Obsidian_08,5,08,2,4,0.583,-0.378703704,-0.418518519,1,0,0,1.0129,Obsidian_rect,5,1.013,1,15,0,15,0,1,,,,,,,,,,,,,
6674b4a918f2509894b3294e,SCN,2024-06-25_11h39.35.910,LearnStrategy,2023.2.3,Win32,60.24096386,5,2,1,,,,,,,,8,08,,,,,,,,,,,1,2.514,0,,,,,,-0.333333333,-0.247222222,1,0,0,2.5145,Andesite_rect,0,0,0,0,1,
6674b4a918f2509894b3294e,SCN,2024-06-25_11h39.35.910,LearnStrategy,2023.2.3,Win32,60.24096386,5,2,2,,,,,,,,4,10,,,,,,,,,,,3,1.697,0,,,,,,0.105555556,-0.266666667,1,0,0,1.6969,Diorite_rect,1,0,1,0,1,
6674b4a918f2509894b3294e,SCN,2024-06-25_11h39.35.910,LearnStrategy,2023.2.3,Win32,60.24096386,5,2,3,,,,,,,,7,10,,,,,,,,,,,3,0.805,0,,,,,,0.080555556,-0.256481481,1,0,0,0.8049,Diorite_rect,2,0,2,0,1,
6674b4a918f2509894b3294e,SCN,2024-06-25_11h39.35.910,LearnStrategy,2023.2.3,Win32,60.24096386,5,2,4,,,,,,,,5,16,,,,,,,,,,,5,1.13,1,,,,,,-0.455555556,-0.411111111,1,0,0,1.1299,Obsidian_rect,3,0,3,0,1,
6674b4a918f2509894b3294e,SCN,2024-06-25_11h39.35.910,LearnStrategy,2023.2.3,Win32,60.24096386,5,2,5,,,,,,,,3,15,,,,,,,,,,,3,0.946,1,,,,,,0.176851852,-0.238888889,1,0,0,0.9463,Diorite_rect,4,0,4,0,1,
6674b4a918f2509894b3294e,SCN,2024-06-25_11h39.35.910,LearnStrategy,2023.2.3,Win32,60.24096386,5,2,6,,,,,,,,3,10,,,,,,,,,,,4,1.03,0,,,,,,0.357407407,-0.244444444,1,0,0,1.0298,Gabbro_rect,5,0,5,0,1,
6674b4a918f2509894b3294e,SCN,2024-06-25_11h39.35.910,LearnStrategy,2023.2.3,Win32,60.24096386,5,2,7,,,,,,,,8,03,,,,,,,,,,,8,1.43,1,,,,,,0.387037037,-0.387037037,1,0,0,1.4301,Pumice_rect,6,0,6,0,1,
6674b4a918f2509894b3294e,SCN,2024-06-25_11h39.35.910,LearnStrategy,2023.2.3,Win32,60.24096386,5,2,8,,,,,,,,2,11,,,,,,,,,,,1,1.196,0,,,,,,-0.338888889,-0.248148148,1,0,0,1.1963,Andesite_rect,7,0,7,0,1,
6674b4a918f2509894b3294e,SCN,2024-06-25_11h39.35.910,LearnStrategy,2023.2.3,Win32,60.24096386,5,2,9,,,,,,,,4,12,,,,,,,,,,,2,2.365,0,,,,,,-0.092592593,-0.242592593,1,0,0,2.3645,Basalt_rect,8,0,8,0,1,
6674b4a918f2509894b3294e,SCN,2024-06-25_11h39.35.910,LearnStrategy,2023.2.3,Win32,60.24096386,5,2,10,,,,,,,,1,16,,,,,,,,,,,4,0.856,0,,,,,,0.372222222,-0.252777778,1,0,0,0.8556,Gabbro_rect,9,0,9,0,1,
6674b4a918f2509894b3294e,SCN,2024-06-25_11h39.35.910,LearnStrategy,2023.2.3,Win32,60.24096386,5,2,11,,,,,,,,6,10,,,,,,,,,,,7,1.013,0,,,,,,0.171296296,-0.39537037,1,0,0,1.0129,Peridotite_rect,10,0,10,0,1,
6674b4a918f2509894b3294e,SCN,2024-06-25_11h39.35.910,LearnStrategy,2023.2.3,Win32,60.24096386,5,2,12,,,,,,,,7,08,,,,,,,,,,,4,1.13,0,,,,,,0.324074074,-0.256481481,1,0,0,1.1296,Gabbro_rect,11,0,11,0,1,
6674b4a918f2509894b3294e,SCN,2024-06-25_11h39.35.910,LearnStrategy,2023.2.3,Win32,60.24096386,5,2,13,,,,,,,,2,08,,,,,,,,,,,2,1.797,1,,,,,,-0.225925926,-0.266666667,1,0,0,1.7969,Basalt_rect,12,0,12,0,1,
6674b4a918f2509894b3294e,SCN,2024-06-25_11h39.35.910,LearnStrategy,2023.2.3,Win32,60.24096386,5,2,14,,,,,,,,6,08,,,,,,,,,,,7,0.913,0,,,,,,0.088888889,-0.398148148,1,0,0,0.913,Peridotite_rect,13,0,13,0,1,
6674b4a918f2509894b3294e,SCN,2024-06-25_11h39.35.910,LearnStrategy,2023.2.3,Win32,60.24096386,5,2,15,,,,,,,,1,06,,,,,,,,,,,4,1.313,0,,,,,,0.398148148,-0.262962963,1,0,0,1.3132,Gabbro_rect,14,0,14,0,1,
6674b4a918f2509894b3294e,SCN,2024-06-25_11h39.35.910,LearnStrategy,2023.2.3,Win32,60.24096386,5,2,16,,,,,,,,5,07,,,,,,,,,,,5,1.013,1,,,,,,-0.39537037,-0.414814815,1,0,0,1.0132,Obsidian_rect,15,0,15,0,1,
6674b4a918f2509894b3294e,SCN,2024-06-25_11h39.35.910,LearnStrategy,2023.2.3,Win32,60.24096386,6,1,1,-0.521296296,-0.078703704,1,0,0,0.6666,Diorite_12,3,12,3,1,0.667,-0.100925926,-0.242592593,1,0,0,0.9795,Basalt_rect,2,0.98,0,0,0,0,0,1,,,,,,,,,,,,,
6674b4a918f2509894b3294e,SCN,2024-06-25_11h39.35.910,LearnStrategy,2023.2.3,Win32,60.24096386,6,1,2,0.067592593,-0.05,1,0,0,0.6826,Pumice_04,8,04,3,5,0.683,0.068518519,-0.247222222,1,0,0,1.1964,Diorite_rect,3,1.196,0,1,0,1,0,1,,,,,,,,,,,,,
6674b4a918f2509894b3294e,SCN,2024-06-25_11h39.35.910,LearnStrategy,2023.2.3,Win32,60.24096386,6,1,3,-0.082407407,0.093518519,1,0,0,0.6332,Andesite_03,1,03,4,4,0.633,-0.059259259,-0.264814815,1,0,0,0.5453,Basalt_rect,2,0.545,0,2,0,2,0,1,,,,,,,,,,,,,
6674b4a918f2509894b3294e,SCN,2024-06-25_11h39.35.910,LearnStrategy,2023.2.3,Win32,60.24096386,6,1,4,0.062037037,-0.12037037,1,0,0,0.6168,Pumice_04,8,04,3,5,0.617,0.342592593,-0.391666667,1,0,0,0.8618,Pumice_rect,8,0.862,1,3,0,3,0,1,,,,,,,,,,,,,
6674b4a918f2509894b3294e,SCN,2024-06-25_11h39.35.910,LearnStrategy,2023.2.3,Win32,60.24096386,6,1,5,0.568518519,-0.393518519,1,0,0,0.8162,Andesite_11,1,11,1,8,0.816,-0.133333333,-0.37962963,1,0,0,1.0298,Pegmatite_rect,6,1.03,0,4,0,4,0,1,,,,,,,,,,,,,
6674b4a918f2509894b3294e,SCN,2024-06-25_11h39.35.910,LearnStrategy,2023.2.3,Win32,60.24096386,6,1,6,-0.59537037,-0.247222222,1,0,0,0.9339,Peridotite_14,7,14,2,1,0.934,0.101851852,-0.271296296,1,0,0,0.5955,Diorite_rect,3,0.596,0,5,0,5,0,1,,,,,,,,,,,,,
6674b4a918f2509894b3294e,SCN,2024-06-25_11h39.35.910,LearnStrategy,2023.2.3,Win32,60.24096386,6,1,7,-0.228703704,-0.078703704,1,0,0,0.5997,Andesite_01,1,01,3,3,0.6,-0.100925926,-0.231481481,1,0,0,0.6293,Basalt_rect,2,0.629,0,6,0,6,0,1,,,,,,,,,,,,,
6674b4a918f2509894b3294e,SCN,2024-06-25_11h39.35.910,LearnStrategy,2023.2.3,Win32,60.24096386,6,1,8,0.269444444,0.102777778,1,0,0,0.5335,Pumice_09,8,09,4,6,0.534,0.336111111,-0.390740741,1,0,0,0.8291,Pumice_rect,8,0.829,1,7,0,7,0,1,,,,,,,,,,,,,
6674b4a918f2509894b3294e,SCN,2024-06-25_11h39.35.910,LearnStrategy,2023.2.3,Win32,60.24096386,6,1,9,-0.099074074,-0.077777778,1,0,0,0.4831,Obsidian_02,5,02,3,4,0.483,-0.337037037,-0.391666667,1,0,0,0.5624,Obsidian_rect,5,0.562,1,8,0,8,0,1,,,,,,,,,,,,,
6674b4a918f2509894b3294e,SCN,2024-06-25_11h39.35.910,LearnStrategy,2023.2.3,Win32,60.24096386,6,1,10,0.059259259,-0.062037037,1,0,0,0.4832,Pumice_04,8,04,3,5,0.483,0.028703704,-0.259259259,1,0,0,0.8126,Diorite_rect,3,0.813,0,9,0,9,0,1,,,,,,,,,,,,,
6674b4a918f2509894b3294e,SCN,2024-06-25_11h39.35.910,LearnStrategy,2023.2.3,Win32,60.24096386,6,1,11,-0.083333333,0.139814815,1,0,0,0.9336,Andesite_03,1,03,4,4,0.934,0.137962963,-0.232407407,1,0,0,0.796,Diorite_rect,3,0.796,0,10,0,10,0,1,,,,,,,,,,,,,
6674b4a918f2509894b3294e,SCN,2024-06-25_11h39.35.910,LearnStrategy,2023.2.3,Win32,60.24096386,6,1,12,0.259259259,0.267592593,1,0,0,0.9835,Basalt_05,2,05,5,6,0.983,0.319444444,-0.243518519,1,0,0,1.4966,Gabbro_rect,4,1.497,0,11,0,11,0,1,,,,,,,,,,,,,
6674b4a918f2509894b3294e,SCN,2024-06-25_11h39.35.910,LearnStrategy,2023.2.3,Win32,60.24096386,6,1,13,-0.092592593,0.12037037,1,0,0,0.5662,Andesite_03,1,03,4,4,0.566,-0.071296296,-0.246296296,1,0,0,1.0296,Basalt_rect,2,1.03,0,12,0,12,0,1,,,,,,,,,,,,,
6674b4a918f2509894b3294e,SCN,2024-06-25_11h39.35.910,LearnStrategy,2023.2.3,Win32,60.24096386,6,1,14,0.278703704,-0.086111111,1,0,0,0.5162,Pegmatite_09,6,09,3,6,0.516,0.058333333,-0.240740741,1,0,0,1.0796,Diorite_rect,3,1.08,0,13,0,13,0,1,,,,,,,,,,,,,
6674b4a918f2509894b3294e,SCN,2024-06-25_11h39.35.910,LearnStrategy,2023.2.3,Win32,60.24096386,6,1,15,-0.061111111,-0.075,1,0,0,0.483,Obsidian_02,5,02,3,4,0.483,-0.334259259,-0.397222222,1,0,0,1.6136,Obsidian_rect,5,1.614,1,14,0,14,0,1,,,,,,,,,,,,,
6674b4a918f2509894b3294e,SCN,2024-06-25_11h39.35.910,LearnStrategy,2023.2.3,Win32,60.24096386,6,1,16,-0.340740741,-0.237037037,1,0,0,0.566,Basalt_06,2,06,2,2,0.566,-0.119444444,-0.269444444,1,0,0,0.579,Basalt_rect,2,0.579,1,15,0,15,0,1,,,,,,,,,,,,,
6674b4a918f2509894b3294e,SCN,2024-06-25_11h39.35.910,LearnStrategy,2023.2.3,Win32,60.24096386,6,2,1,,,,,,,,7,15,,,,,,,,,,,6,1.48,0,,,,,,-0.091666667,-0.405555556,1,0,0,1.4796,Pegmatite_rect,0,0,0,0,1,
6674b4a918f2509894b3294e,SCN,2024-06-25_11h39.35.910,LearnStrategy,2023.2.3,Win32,60.24096386,6,2,2,,,,,,,,3,09,,,,,,,,,,,3,1.497,1,,,,,,0.160185185,-0.249074074,1,0,0,1.4967,Diorite_rect,1,0,1,0,1,
6674b4a918f2509894b3294e,SCN,2024-06-25_11h39.35.910,LearnStrategy,2023.2.3,Win32,60.24096386,6,2,3,,,,,,,,3,14,,,,,,,,,,,3,0.73,1,,,,,,0.133333333,-0.269444444,1,0,0,0.7295,Diorite_rect,2,0,2,0,1,
6674b4a918f2509894b3294e,SCN,2024-06-25_11h39.35.910,LearnStrategy,2023.2.3,Win32,60.24096386,6,2,4,,,,,,,,2,16,,,,,,,,,,,2,1.447,1,,,,,,-0.162962963,-0.252777778,1,0,0,1.4469,Basalt_rect,3,0,3,0,1,
6674b4a918f2509894b3294e,SCN,2024-06-25_11h39.35.910,LearnStrategy,2023.2.3,Win32,60.24096386,6,2,5,,,,,,,,4,08,,,,,,,,,,,1,1.03,0,,,,,,-0.332407407,-0.234259259,1,0,0,1.0299,Andesite_rect,4,0,4,0,1,
6674b4a918f2509894b3294e,SCN,2024-06-25_11h39.35.910,LearnStrategy,2023.2.3,Win32,60.24096386,6,2,6,,,,,,,,6,15,,,,,,,,,,,7,1.247,0,,,,,,0.134259259,-0.412962963,1,0,0,1.2468,Peridotite_rect,5,0,5,0,1,
6674b4a918f2509894b3294e,SCN,2024-06-25_11h39.35.910,LearnStrategy,2023.2.3,Win32,60.24096386,6,2,7,,,,,,,,7,05,,,,,,,,,,,4,1.03,0,,,,,,0.381481481,-0.262037037,1,0,0,1.03,Gabbro_rect,6,0,6,0,1,
6674b4a918f2509894b3294e,SCN,2024-06-25_11h39.35.910,LearnStrategy,2023.2.3,Win32,60.24096386,6,2,8,,,,,,,,6,06,,,,,,,,,,,7,1.113,0,,,,,,0.237962963,-0.414814815,1,0,0,1.1131,Peridotite_rect,7,0,7,0,1,
6674b4a918f2509894b3294e,SCN,2024-06-25_11h39.35.910,LearnStrategy,2023.2.3,Win32,60.24096386,6,2,9,,,,,,,,8,06,,,,,,,,,,,8,0.964,1,,,,,,0.318518519,-0.402777778,1,0,0,0.9636,Pumice_rect,8,0,8,0,1,
6674b4a918f2509894b3294e,SCN,2024-06-25_11h39.35.910,LearnStrategy,2023.2.3,Win32,60.24096386,6,2,10,,,,,,,,5,09,,,,,,,,,,,5,1.013,1,,,,,,-0.321296296,-0.405555556,1,0,0,1.0132,Obsidian_rect,9,0,9,0,1,
6674b4a918f2509894b3294e,SCN,2024-06-25_11h39.35.910,LearnStrategy,2023.2.3,Win32,60.24096386,6,2,11,,,,,,,,1,09,,,,,,,,,,,4,1.329,0,,,,,,0.326851852,-0.248148148,1,0,0,1.3293,Gabbro_rect,10,0,10,0,1,
6674b4a918f2509894b3294e,SCN,2024-06-25_11h39.35.910,LearnStrategy,2023.2.3,Win32,60.24096386,6,2,12,,,,,,,,1,10,,,,,,,,,,,2,0.78,0,,,,,,-0.217592593,-0.262037037,1,0,0,0.7796,Basalt_rect,11,0,11,0,1,
6674b4a918f2509894b3294e,SCN,2024-06-25_11h39.35.910,LearnStrategy,2023.2.3,Win32,60.24096386,6,2,13,,,,,,,,4,15,,,,,,,,,,,4,0.846,1,,,,,,0.342592593,-0.237037037,1,0,0,0.8464,Gabbro_rect,12,0,12,0,1,
6674b4a918f2509894b3294e,SCN,2024-06-25_11h39.35.910,LearnStrategy,2023.2.3,Win32,60.24096386,6,2,14,,,,,,,,5,12,,,,,,,,,,,5,0.913,1,,,,,,-0.375,-0.412037037,1,0,0,0.9127,Obsidian_rect,13,0,13,0,1,
6674b4a918f2509894b3294e,SCN,2024-06-25_11h39.35.910,LearnStrategy,2023.2.3,Win32,60.24096386,6,2,15,,,,,,,,8,13,,,,,,,,,,,8,0.88,1,,,,,,0.330555556,-0.393518519,1,0,0,0.8799,Pumice_rect,14,0,14,0,1,
6674b4a918f2509894b3294e,SCN,2024-06-25_11h39.35.910,LearnStrategy,2023.2.3,Win32,60.24096386,6,2,16,,,,,,,,2,10,,,,,,,,,,,2,1.597,1,,,,,,-0.086111111,-0.257407407,1,0,0,1.5967,Basalt_rect,15,0,15,0,1,
6674b4a918f2509894b3294e,SCN,2024-06-25_11h39.35.910,LearnStrategy,2023.2.3,Win32,60.24096386,7,1,1,0.078703704,0.085185185,1,0,0,0.6423,Peridotite_02,7,02,4,5,0.642,0.143518519,-0.265740741,1,0,0,0.8638,Diorite_rect,3,0.864,0,0,0,0,0,1,,,,,,,,,,,,,
6674b4a918f2509894b3294e,SCN,2024-06-25_11h39.35.910,LearnStrategy,2023.2.3,Win32,60.24096386,7,1,2,-0.232407407,0.111111111,1,0,0,0.7161,Diorite_02,3,02,4,3,0.716,-0.125925926,-0.239814815,1,0,0,0.5958,Basalt_rect,2,0.596,0,1,0,1,0,1,,,,,,,,,,,,,
6674b4a918f2509894b3294e,SCN,2024-06-25_11h39.35.910,LearnStrategy,2023.2.3,Win32,60.24096386,7,1,3,0.20462963,-0.094444444,1,0,0,0.5996,Pegmatite_09,6,09,3,6,0.6,0.147222222,-0.241666667,1,0,0,0.8961,Diorite_rect,3,0.896,0,2,0,2,0,1,,,,,,,,,,,,,
6674b4a918f2509894b3294e,SCN,2024-06-25_11h39.35.910,LearnStrategy,2023.2.3,Win32,60.24096386,7,1,4,-0.109259259,-0.080555556,1,0,0,0.5495,Obsidian_02,5,02,3,4,0.549,-0.05462963,-0.237037037,1,0,0,0.5286,Basalt_rect,2,0.529,0,3,0,3,0,1,,,,,,,,,,,,,
6674b4a918f2509894b3294e,SCN,2024-06-25_11h39.35.910,LearnStrategy,2023.2.3,Win32,60.24096386,7,1,5,-0.247222222,-0.124074074,1,0,0,0.733,Andesite_01,1,01,3,3,0.733,-0.081481481,-0.268518519,1,0,0,0.4122,Basalt_rect,2,0.412,0,4,0,4,0,1,,,,,,,,,,,,,
6674b4a918f2509894b3294e,SCN,2024-06-25_11h39.35.910,LearnStrategy,2023.2.3,Win32,60.24096386,7,1,6,0.224074074,0.07962963,1,0,0,0.5661,Pumice_09,8,09,4,6,0.566,0.351851852,-0.388888889,1,0,0,0.6794,Pumice_rect,8,0.679,1,5,0,5,0,1,,,,,,,,,,,,,
6674b4a918f2509894b3294e,SCN,2024-06-25_11h39.35.910,LearnStrategy,2023.2.3,Win32,60.24096386,7,1,7,-0.259259259,-0.091666667,1,0,0,0.5829,Andesite_01,1,01,3,3,0.583,-0.123148148,-0.22962963,1,0,0,0.6126,Basalt_rect,2,0.613,0,6,0,6,0,1,,,,,,,,,,,,,
6674b4a918f2509894b3294e,SCN,2024-06-25_11h39.35.910,LearnStrategy,2023.2.3,Win32,60.24096386,7,1,8,0.369444444,-0.101851852,1,0,0,0.6164,Basalt_01,2,01,3,7,0.616,-0.202777778,-0.248148148,1,0,0,0.5957,Basalt_rect,2,0.596,1,7,0,7,0,1,,,,,,,,,,,,,
6674b4a918f2509894b3294e,SCN,2024-06-25_11h39.35.910,LearnStrategy,2023.2.3,Win32,60.24096386,7,1,9,0.527777778,-0.096296296,1,0,0,0.7333,Peridotite_07,7,07,3,8,0.733,0.341666667,-0.268518519,1,0,0,1.463,Gabbro_rect,4,1.463,0,8,0,8,0,1,,,,,,,,,,,,,
6674b4a918f2509894b3294e,SCN,2024-06-25_11h39.35.910,LearnStrategy,2023.2.3,Win32,60.24096386,7,1,10,0.056481481,0.09537037,1,0,0,1.3337,Peridotite_02,7,02,4,5,1.334,0.105555556,-0.418518519,1,0,0,1.3797,Peridotite_rect,7,1.38,1,9,0,9,0,1,,,,,,,,,,,,,
6674b4a918f2509894b3294e,SCN,2024-06-25_11h39.35.910,LearnStrategy,2023.2.3,Win32,60.24096386,7,1,11,-0.561111111,-0.106481481,1,0,0,1.3501,Diorite_12,3,12,3,1,1.35,0.29537037,-0.250925926,1,0,0,0.6792,Gabbro_rect,4,0.679,0,10,0,10,0,1,,,,,,,,,,,,,
6674b4a918f2509894b3294e,SCN,2024-06-25_11h39.35.910,LearnStrategy,2023.2.3,Win32,60.24096386,7,1,12,-0.525,-0.421296296,1,0,0,0.9167,Peridotite_12,7,12,1,1,0.917,-0.15462963,-0.4,1,0,0,0.879,Pegmatite_rect,6,0.879,0,11,0,11,0,1,,,,,,,,,,,,,
6674b4a918f2509894b3294e,SCN,2024-06-25_11h39.35.910,LearnStrategy,2023.2.3,Win32,60.24096386,7,1,13,-0.061111111,0.115740741,1,0,0,0.6665,Andesite_03,1,03,4,4,0.667,-0.148148148,-0.25,1,0,0,0.7958,Basalt_rect,2,0.796,0,12,0,12,0,1,,,,,,,,,,,,,
6674b4a918f2509894b3294e,SCN,2024-06-25_11h39.35.910,LearnStrategy,2023.2.3,Win32,60.24096386,7,1,14,0.210185185,-0.073148148,1,0,0,0.7498,Pegmatite_09,6,09,3,6,0.75,0.075,-0.406481481,1,0,0,0.8792,Peridotite_rect,7,0.879,0,13,0,13,0,1,,,,,,,,,,,,,
6674b4a918f2509894b3294e,SCN,2024-06-25_11h39.35.910,LearnStrategy,2023.2.3,Win32,60.24096386,7,1,15,-0.235185185,-0.097222222,1,0,0,0.5828,Andesite_01,1,01,3,3,0.583,-0.160185185,-0.255555556,1,0,0,0.829,Basalt_rect,2,0.829,0,14,0,14,0,1,,,,,,,,,,,,,
6674b4a918f2509894b3294e,SCN,2024-06-25_11h39.35.910,LearnStrategy,2023.2.3,Win32,60.24096386,7,1,16,0.351851852,0.384259259,1,0,0,1.0833,Gabbro_09,4,09,6,7,1.083,-0.375,-0.231481481,1,0,0,1.2964,Andesite_rect,1,1.296,0,15,0,15,0,1,,,,,,,,,,,,,
6674b4a918f2509894b3294e,SCN,2024-06-25_11h39.35.910,LearnStrategy,2023.2.3,Win32,60.24096386,7,2,1,,,,,,,,8,02,,,,,,,,,,,8,1.596,1,,,,,,0.418518519,-0.405555556,1,0,0,1.5964,Pumice_rect,0,0,0,0,1,
6674b4a918f2509894b3294e,SCN,2024-06-25_11h39.35.910,LearnStrategy,2023.2.3,Win32,60.24096386,7,2,2,,,,,,,,4,12,,,,,,,,,,,2,0.963,0,,,,,,-0.087962963,-0.262962963,1,0,0,0.9633,Basalt_rect,1,0,1,0,1,
6674b4a918f2509894b3294e,SCN,2024-06-25_11h39.35.910,LearnStrategy,2023.2.3,Win32,60.24096386,7,2,3,,,,,,,,5,09,,,,,,,,,,,5,0.947,1,,,,,,-0.444444444,-0.399074074,1,0,0,0.9465,Obsidian_rect,2,0,2,0,1,
6674b4a918f2509894b3294e,SCN,2024-06-25_11h39.35.910,LearnStrategy,2023.2.3,Win32,60.24096386,7,2,4,,,,,,,,7,05,,,,,,,,,,,7,1.447,1,,,,,,0.091666667,-0.400925926,1,0,0,1.4467,Peridotite_rect,3,0,3,0,1,
6674b4a918f2509894b3294e,SCN,2024-06-25_11h39.35.910,LearnStrategy,2023.2.3,Win32,60.24096386,7,2,5,,,,,,,,3,15,,,,,,,,,,,4,0.913,0,,,,,,0.355555556,-0.253703704,1,0,0,0.9128,Gabbro_rect,4,0,4,0,1,
6674b4a918f2509894b3294e,SCN,2024-06-25_11h39.35.910,LearnStrategy,2023.2.3,Win32,60.24096386,7,2,6,,,,,,,,2,10,,,,,,,,,,,1,0.679,0,,,,,,-0.387962963,-0.248148148,1,0,0,0.6795,Andesite_rect,5,0,5,0,1,
6674b4a918f2509894b3294e,SCN,2024-06-25_11h39.35.910,LearnStrategy,2023.2.3,Win32,60.24096386,7,2,7,,,,,,,,4,11,,,,,,,,,,,2,0.663,0,,,,,,-0.124074074,-0.24537037,1,0,0,0.6627,Basalt_rect,6,0,6,0,1,
6674b4a918f2509894b3294e,SCN,2024-06-25_11h39.35.910,LearnStrategy,2023.2.3,Win32,60.24096386,7,2,8,,,,,,,,3,09,,,,,,,,,,,3,0.746,1,,,,,,0.125,-0.25462963,1,0,0,0.7464,Diorite_rect,7,0,7,0,1,
6674b4a918f2509894b3294e,SCN,2024-06-25_11h39.35.910,LearnStrategy,2023.2.3,Win32,60.24096386,7,2,9,,,,,,,,1,16,,,,,,,,,,,7,0.279,0,,,,,,0.112037037,-0.387037037,1,0,0,0.2788,Peridotite_rect,8,0,8,0,1,
6674b4a918f2509894b3294e,SCN,2024-06-25_11h39.35.910,LearnStrategy,2023.2.3,Win32,60.24096386,7,2,10,,,,,,,,2,16,,,,,,,,,,,6,0.262,0,,,,,,-0.173148148,-0.39537037,1,0,0,0.2618,Pegmatite_rect,9,0,9,0,1,
6674b4a918f2509894b3294e,SCN,2024-06-25_11h39.35.910,LearnStrategy,2023.2.3,Win32,60.24096386,7,2,11,,,,,,,,6,15,,,,,,,,,,,5,0.246,0,,,,,,-0.366666667,-0.387037037,1,0,0,0.2457,Obsidian_rect,10,0,10,0,1,
6674b4a918f2509894b3294e,SCN,2024-06-25_11h39.35.910,LearnStrategy,2023.2.3,Win32,60.24096386,7,2,12,,,,,,,,1,02,,,,,,,,,,,2,0.212,0,,,,,,-0.17037037,-0.264814815,1,0,0,0.2121,Basalt_rect,11,0,11,0,1,
6674b4a918f2509894b3294e,SCN,2024-06-25_11h39.35.910,LearnStrategy,2023.2.3,Win32,60.24096386,7,2,13,,,,,,,,8,08,,,,,,,,,,,3,0.229,0,,,,,,0.100925926,-0.258333333,1,0,0,0.2291,Diorite_rect,12,0,12,0,1,
6674b4a918f2509894b3294e,SCN,2024-06-25_11h39.35.910,LearnStrategy,2023.2.3,Win32,60.24096386,7,2,14,,,,,,,,7,10,,,,,,,,,,,6,0.73,0,,,,,,-0.159259259,-0.40462963,1,0,0,0.7296,Pegmatite_rect,13,0,13,0,1,
6674b4a918f2509894b3294e,SCN,2024-06-25_11h39.35.910,LearnStrategy,2023.2.3,Win32,60.24096386,7,2,15,,,,,,,,6,16,,,,,,,,,,,2,0.596,0,,,,,,-0.135185185,-0.228703704,1,0,0,0.5961,Basalt_rect,14,0,14,0,1,
6674b4a918f2509894b3294e,SCN,2024-06-25_11h39.35.910,LearnStrategy,2023.2.3,Win32,60.24096386,7,2,16,,,,,,,,5,12,,,,,,,,,,,1,0.279,0,,,,,,-0.442592593,-0.231481481,1,0,0,0.2785,Andesite_rect,15,0,15,0,1,
6674b4a918f2509894b3294e,SCN,2024-06-25_11h39.35.910,LearnStrategy,2023.2.3,Win32,60.24096386,8,1,1,0.447222222,0.065740741,1,0,0,0.4166,Gabbro_03,4,03,4,7,0.417,0.103703704,-0.244444444,1,0,0,0.9627,Diorite_rect,3,0.963,0,0,0,0,0,1,,,,,,,,,,,,,
6674b4a918f2509894b3294e,SCN,2024-06-25_11h39.35.910,LearnStrategy,2023.2.3,Win32,60.24096386,8,1,2,-0.210185185,-0.082407407,1,0,0,0.6497,Andesite_01,1,01,3,3,0.65,-0.07037037,-0.240740741,1,0,0,0.6125,Basalt_rect,2,0.612,0,1,0,1,0,1,,,,,,,,,,,,,
6674b4a918f2509894b3294e,SCN,2024-06-25_11h39.35.910,LearnStrategy,2023.2.3,Win32,60.24096386,8,1,3,0.072222222,-0.080555556,1,0,0,0.5494,Pumice_04,8,04,3,5,0.549,0.119444444,-0.260185185,1,0,0,0.6125,Diorite_rect,3,0.612,0,2,0,2,0,1,,,,,,,,,,,,,
6674b4a918f2509894b3294e,SCN,2024-06-25_11h39.35.910,LearnStrategy,2023.2.3,Win32,60.24096386,8,1,4,-0.236111111,-0.124074074,1,0,0,0.6496,Andesite_01,1,01,3,3,0.65,-0.142592593,-0.390740741,1,0,0,0.5789,Pegmatite_rect,6,0.579,0,3,0,3,0,1,,,,,,,,,,,,,
6674b4a918f2509894b3294e,SCN,2024-06-25_11h39.35.910,LearnStrategy,2023.2.3,Win32,60.24096386,8,1,5,0.059259259,-0.050925926,1,0,0,0.5492,Pumice_04,8,04,3,5,0.549,0.041666667,-0.237962963,1,0,0,1.0463,Diorite_rect,3,1.046,0,4,0,4,0,1,,,,,,,,,,,,,
6674b4a918f2509894b3294e,SCN,2024-06-25_11h39.35.910,LearnStrategy,2023.2.3,Win32,60.24096386,8,1,6,-0.224074074,-0.072222222,1,0,0,0.5161,Andesite_01,1,01,3,3,0.516,0.094444444,-0.237037037,1,0,0,0.5792,Diorite_rect,3,0.579,0,5,0,5,0,1,,,,,,,,,,,,,
6674b4a918f2509894b3294e,SCN,2024-06-25_11h39.35.910,LearnStrategy,2023.2.3,Win32,60.24096386,8,1,7,0.373148148,-0.094444444,1,0,0,0.7162,Basalt_01,2,01,3,7,0.716,0.088888889,-0.253703704,1,0,0,0.6125,Diorite_rect,3,0.613,0,6,0,6,0,1,,,,,,,,,,,,,
6674b4a918f2509894b3294e,SCN,2024-06-25_11h39.35.910,LearnStrategy,2023.2.3,Win32,60.24096386,8,1,8,-0.278703704,-0.12037037,1,0,0,0.9831,Andesite_01,1,01,3,3,0.983,-0.4,-0.392592593,1,0,0,0.8791,Obsidian_rect,5,0.879,0,7,0,7,0,1,,,,,,,,,,,,,
6674b4a918f2509894b3294e,SCN,2024-06-25_11h39.35.910,LearnStrategy,2023.2.3,Win32,60.24096386,8,1,9,0.04537037,-0.055555556,1,0,0,0.4161,Pumice_04,8,04,3,5,0.416,0.072222222,-0.231481481,1,0,0,0.4955,Diorite_rect,3,0.495,0,8,0,8,0,1,,,,,,,,,,,,,
6674b4a918f2509894b3294e,SCN,2024-06-25_11h39.35.910,LearnStrategy,2023.2.3,Win32,60.24096386,8,1,10,-0.244444444,-0.105555556,1,0,0,0.8999,Andesite_01,1,01,3,3,0.9,-0.116666667,-0.389814815,1,0,0,0.5791,Pegmatite_rect,6,0.579,0,9,0,9,0,1,,,,,,,,,,,,,
6674b4a918f2509894b3294e,SCN,2024-06-25_11h39.35.910,LearnStrategy,2023.2.3,Win32,60.24096386,8,1,11,0.056481481,0.112037037,1,0,0,0.5994,Peridotite_02,7,02,4,5,0.599,0.074074074,-0.262962963,1,0,0,0.8124,Diorite_rect,3,0.812,0,10,0,10,0,1,,,,,,,,,,,,,
6674b4a918f2509894b3294e,SCN,2024-06-25_11h39.35.910,LearnStrategy,2023.2.3,Win32,60.24096386,8,1,12,-0.080555556,0.075,1,0,0,0.6329,Andesite_03,1,03,4,4,0.633,0.344444444,-0.261111111,1,0,0,0.896,Gabbro_rect,4,0.896,0,11,0,11,0,1,,,,,,,,,,,,,
6674b4a918f2509894b3294e,SCN,2024-06-25_11h39.35.910,LearnStrategy,2023.2.3,Win32,60.24096386,8,1,13,-0.264814815,-0.090740741,1,0,0,0.65,Andesite_01,1,01,3,3,0.65,0.096296296,-0.231481481,1,0,0,0.8289,Diorite_rect,3,0.829,0,12,0,12,0,1,,,,,,,,,,,,,
6674b4a918f2509894b3294e,SCN,2024-06-25_11h39.35.910,LearnStrategy,2023.2.3,Win32,60.24096386,8,1,14,0.581481481,0.093518519,1,0,0,0.6329,Pegmatite_12,6,12,4,8,0.633,0.089814815,-0.231481481,1,0,0,0.9627,Diorite_rect,3,0.963,0,13,0,13,0,1,,,,,,,,,,,,,
6674b4a918f2509894b3294e,SCN,2024-06-25_11h39.35.910,LearnStrategy,2023.2.3,Win32,60.24096386,8,1,15,-0.241666667,-0.081481481,1,0,0,0.5996,Andesite_01,1,01,3,3,0.6,0.035185185,-0.228703704,1,0,0,0.9289,Diorite_rect,3,0.929,0,14,0,14,0,1,,,,,,,,,,,,,
6674b4a918f2509894b3294e,SCN,2024-06-25_11h39.35.910,LearnStrategy,2023.2.3,Win32,60.24096386,8,1,16,-0.394444444,-0.094444444,1,0,0,0.8329,Obsidian_10,5,10,3,2,0.833,-0.360185185,-0.249074074,1,0,0,0.896,Andesite_rect,1,0.896,0,15,0,15,0,1,,,,,,,,,,,,,
6674b4a918f2509894b3294e,SCN,2024-06-25_11h39.35.910,LearnStrategy,2023.2.3,Win32,60.24096386,8,2,1,,,,,,,,8,06,,,,,,,,,,,8,1.146,1,,,,,,0.322222222,-0.417592593,1,0,0,1.1463,Pumice_rect,0,0,0,0,1,
6674b4a918f2509894b3294e,SCN,2024-06-25_11h39.35.910,LearnStrategy,2023.2.3,Win32,60.24096386,8,2,2,,,,,,,,3,10,,,,,,,,,,,5,1.364,0,,,,,,-0.343518519,-0.385185185,1,0,0,1.3637,Obsidian_rect,1,0,1,0,1,
6674b4a918f2509894b3294e,SCN,2024-06-25_11h39.35.910,LearnStrategy,2023.2.3,Win32,60.24096386,8,2,3,,,,,,,,7,15,,,,,,,,,,,4,1.03,0,,,,,,0.351851852,-0.255555556,1,0,0,1.0296,Gabbro_rect,2,0,2,0,1,
6674b4a918f2509894b3294e,SCN,2024-06-25_11h39.35.910,LearnStrategy,2023.2.3,Win32,60.24096386,8,2,4,,,,,,,,6,10,,,,,,,,,,,7,0.963,0,,,,,,0.080555556,-0.414814815,1,0,0,0.9629,Peridotite_rect,3,0,3,0,1,
6674b4a918f2509894b3294e,SCN,2024-06-25_11h39.35.910,LearnStrategy,2023.2.3,Win32,60.24096386,8,2,5,,,,,,,,4,15,,,,,,,,,,,1,3.115,0,,,,,,-0.405555556,-0.251851852,1,0,0,3.1152,Andesite_rect,4,0,4,0,1,
6674b4a918f2509894b3294e,SCN,2024-06-25_11h39.35.910,LearnStrategy,2023.2.3,Win32,60.24096386,8,2,6,,,,,,,,7,08,,,,,,,,,,,4,0.922,0,,,,,,0.381481481,-0.244444444,1,0,0,0.9216,Gabbro_rect,5,0,5,0,1,
6674b4a918f2509894b3294e,SCN,2024-06-25_11h39.35.910,LearnStrategy,2023.2.3,Win32,60.24096386,8,2,7,,,,,,,,1,09,,,,,,,,,,,2,0.863,0,,,,,,-0.134259259,-0.253703704,1,0,0,0.8626,Basalt_rect,6,0,6,0,1,
6674b4a918f2509894b3294e,SCN,2024-06-25_11h39.35.910,LearnStrategy,2023.2.3,Win32,60.24096386,8,2,8,,,,,,,,8,15,,,,,,,,,,,8,1.314,1,,,,,,0.410185185,-0.398148148,1,0,0,1.3139,Pumice_rect,7,0,7,0,1,
6674b4a918f2509894b3294e,SCN,2024-06-25_11h39.35.910,LearnStrategy,2023.2.3,Win32,60.24096386,8,2,9,,,,,,,,6,07,,,,,,,,,,,7,0.946,0,,,,,,0.138888889,-0.4,1,0,0,0.946,Peridotite_rect,8,0,8,0,1,
6674b4a918f2509894b3294e,SCN,2024-06-25_11h39.35.910,LearnStrategy,2023.2.3,Win32,60.24096386,8,2,10,,,,,,,,4,05,,,,,,,,,,,2,1.647,0,,,,,,-0.137962963,-0.251851852,1,0,0,1.6471,Basalt_rect,9,0,9,0,1,
6674b4a918f2509894b3294e,SCN,2024-06-25_11h39.35.910,LearnStrategy,2023.2.3,Win32,60.24096386,8,2,11,,,,,,,,2,08,,,,,,,,,,,2,0.896,1,,,,,,-0.118518519,-0.259259259,1,0,0,0.8961,Basalt_rect,10,0,10,0,1,
6674b4a918f2509894b3294e,SCN,2024-06-25_11h39.35.910,LearnStrategy,2023.2.3,Win32,60.24096386,8,2,12,,,,,,,,5,06,,,,,,,,,,,5,0.946,1,,,,,,-0.372222222,-0.416666667,1,0,0,0.9464,Obsidian_rect,11,0,11,0,1,
6674b4a918f2509894b3294e,SCN,2024-06-25_11h39.35.910,LearnStrategy,2023.2.3,Win32,60.24096386,8,2,13,,,,,,,,1,04,,,,,,,,,,,4,0.88,0,,,,,,0.350925926,-0.257407407,1,0,0,0.8796,Gabbro_rect,12,0,12,0,1,
6674b4a918f2509894b3294e,SCN,2024-06-25_11h39.35.910,LearnStrategy,2023.2.3,Win32,60.24096386,8,2,14,,,,,,,,3,16,,,,,,,,,,,6,2.298,0,,,,,,-0.139814815,-0.385185185,1,0,0,2.2978,Pegmatite_rect,13,0,13,0,1,
6674b4a918f2509894b3294e,SCN,2024-06-25_11h39.35.910,LearnStrategy,2023.2.3,Win32,60.24096386,8,2,15,,,,,,,,5,07,,,,,,,,,,,5,0.972,1,,,,,,-0.35462963,-0.403703704,1,0,0,0.9722,Obsidian_rect,14,0,14,0,1,
6674b4a918f2509894b3294e,SCN,2024-06-25_11h39.35.910,LearnStrategy,2023.2.3,Win32,60.24096386,8,2,16,,,,,,,,2,09,,,,,,,,,,,3,0.88,0,,,,,,0.148148148,-0.244444444,1,0,0,0.8797,Diorite_rect,15,0,15,0,1,
6674b4a918f2509894b3294e,SCN,2024-06-25_11h39.35.910,LearnStrategy,2023.2.3,Win32,60.24096386,9,1,1,0.125,0.082407407,1,0,0,0.5164,Peridotite_02,7,02,4,5,0.516,0.197222222,-0.235185185,1,0,0,0.6793,Diorite_rect,3,0.679,0,0,0,0,0,1,,,,,,,,,,,,,
6674b4a918f2509894b3294e,SCN,2024-06-25_11h39.35.910,LearnStrategy,2023.2.3,Win32,60.24096386,9,1,2,0.058333333,-0.072222222,1,0,0,0.5832,Pumice_04,8,04,3,5,0.583,0.072222222,-0.236111111,1,0,0,0.4783,Diorite_rect,3,0.478,0,1,0,1,0,1,,,,,,,,,,,,,
6674b4a918f2509894b3294e,SCN,2024-06-25_11h39.35.910,LearnStrategy,2023.2.3,Win32,60.24096386,9,1,3,-0.037037037,0.093518519,1,0,0,0.5495,Andesite_03,1,03,4,4,0.549,0.438888889,-0.234259259,1,0,0,0.7459,Gabbro_rect,4,0.746,0,2,0,2,0,1,,,,,,,,,,,,,
6674b4a918f2509894b3294e,SCN,2024-06-25_11h39.35.910,LearnStrategy,2023.2.3,Win32,60.24096386,9,1,4,-0.106481481,-0.089814815,1,0,0,0.9001,Obsidian_02,5,02,3,4,0.9,-0.386111111,-0.396296296,1,0,0,1.3468,Obsidian_rect,5,1.347,1,3,0,3,0,1,,,,,,,,,,,,,
6674b4a918f2509894b3294e,SCN,2024-06-25_11h39.35.910,LearnStrategy,2023.2.3,Win32,60.24096386,9,1,5,-0.386111111,0.080555556,1,0,0,1.1499,Obsidian_14,5,14,4,2,1.15,-0.387962963,-0.397222222,1,0,0,0.8626,Obsidian_rect,5,0.863,1,4,0,4,0,1,,,,,,,,,,,,,
6674b4a918f2509894b3294e,SCN,2024-06-25_11h39.35.910,LearnStrategy,2023.2.3,Win32,60.24096386,9,1,6,0.243518519,0.399074074,1,0,0,0.9167,Obsidian_11,5,11,6,6,0.917,-0.402777778,-0.4,1,0,0,1.0126,Obsidian_rect,5,1.013,1,5,0,5,0,1,,,,,,,,,,,,,
6674b4a918f2509894b3294e,SCN,2024-06-25_11h39.35.910,LearnStrategy,2023.2.3,Win32,60.24096386,9,1,7,0.049074074,0.056481481,1,0,0,0.833,Peridotite_02,7,02,4,5,0.833,0.383333333,-0.250925926,1,0,0,0.8125,Gabbro_rect,4,0.813,0,6,0,6,0,1,,,,,,,,,,,,,
6674b4a918f2509894b3294e,SCN,2024-06-25_11h39.35.910,LearnStrategy,2023.2.3,Win32,60.24096386,9,1,8,-0.556481481,-0.265740741,1,0,0,1.3503,Peridotite_14,7,14,2,1,1.35,0.088888889,-0.400925926,1,0,0,1.4632,Peridotite_rect,7,1.463,1,7,0,7,0,1,,,,,,,,,,,,,
6674b4a918f2509894b3294e,SCN,2024-06-25_11h39.35.910,LearnStrategy,2023.2.3,Win32,60.24096386,9,1,9,-0.553703704,-0.440740741,1,0,0,2.3851,Peridotite_12,7,12,1,1,2.385,0.086111111,-0.411111111,1,0,0,1.0793,Peridotite_rect,7,1.079,1,8,0,8,0,1,,,,,,,,,,,,,
6674b4a918f2509894b3294e,SCN,2024-06-25_11h39.35.910,LearnStrategy,2023.2.3,Win32,60.24096386,9,1,10,-0.237962963,0.398148148,1,0,0,1.267,Andesite_05,1,05,6,3,1.267,0.135185185,-0.39537037,1,0,0,1.0464,Peridotite_rect,7,1.046,0,9,0,9,0,1,,,,,,,,,,,,,
6674b4a918f2509894b3294e,SCN,2024-06-25_11h39.35.910,LearnStrategy,2023.2.3,Win32,60.24096386,9,1,11,0.207407407,0.098148148,1,0,0,0.6495,Pumice_09,8,09,4,6,0.649,0.416666667,-0.393518519,1,0,0,0.6956,Pumice_rect,8,0.696,1,10,0,10,0,1,,,,,,,,,,,,,
6674b4a918f2509894b3294e,SCN,2024-06-25_11h39.35.910,LearnStrategy,2023.2.3,Win32,60.24096386,9,1,12,-0.05,0.113888889,1,0,0,0.6829,Andesite_03,1,03,4,4,0.683,0.381481481,-0.246296296,1,0,0,0.8292,Gabbro_rect,4,0.829,0,11,0,11,0,1,,,,,,,,,,,,,
6674b4a918f2509894b3294e,SCN,2024-06-25_11h39.35.910,LearnStrategy,2023.2.3,Win32,60.24096386,9,1,13,0.377777778,0.10462963,1,0,0,0.5498,Gabbro_03,4,03,4,7,0.55,0.114814815,-0.399074074,1,0,0,0.7125,Peridotite_rect,7,0.713,0,12,0,12,0,1,,,,,,,,,,,,,
6674b4a918f2509894b3294e,SCN,2024-06-25_11h39.35.910,LearnStrategy,2023.2.3,Win32,60.24096386,9,1,14,-0.419444444,-0.102777778,1,0,0,0.6332,Obsidian_10,5,10,3,2,0.633,-0.058333333,-0.252777778,1,0,0,0.7791,Basalt_rect,2,0.779,0,13,0,13,0,1,,,,,,,,,,,,,
6674b4a918f2509894b3294e,SCN,2024-06-25_11h39.35.910,LearnStrategy,2023.2.3,Win32,60.24096386,9,1,15,0.230555556,-0.067592593,1,0,0,0.6163,Pegmatite_09,6,09,3,6,0.616,0.10462963,-0.266666667,1,0,0,0.996,Diorite_rect,3,0.996,0,14,0,14,0,1,,,,,,,,,,,,,
6674b4a918f2509894b3294e,SCN,2024-06-25_11h39.35.910,LearnStrategy,2023.2.3,Win32,60.24096386,9,1,16,-0.211111111,-0.093518519,1,0,0,0.5829,Andesite_01,1,01,3,3,0.583,0.044444444,-0.24537037,1,0,0,0.5955,Diorite_rect,3,0.596,0,15,0,15,0,1,,,,,,,,,,,,,
6674b4a918f2509894b3294e,SCN,2024-06-25_11h39.35.910,LearnStrategy,2023.2.3,Win32,60.24096386,9,2,1,,,,,,,,8,13,,,,,,,,,,,8,1.03,1,,,,,,0.332407407,-0.386111111,1,0,0,1.0299,Pumice_rect,0,0,0,0,1,
6674b4a918f2509894b3294e,SCN,2024-06-25_11h39.35.910,LearnStrategy,2023.2.3,Win32,60.24096386,9,2,2,,,,,,,,5,16,,,,,,,,,,,5,0.913,1,,,,,,-0.409259259,-0.396296296,1,0,0,0.9128,Obsidian_rect,1,0,1,0,1,
6674b4a918f2509894b3294e,SCN,2024-06-25_11h39.35.910,LearnStrategy,2023.2.3,Win32,60.24096386,9,2,3,,,,,,,,4,08,,,,,,,,,,,2,1.964,0,,,,,,-0.094444444,-0.259259259,1,0,0,1.9644,Basalt_rect,2,0,2,0,1,
6674b4a918f2509894b3294e,SCN,2024-06-25_11h39.35.910,LearnStrategy,2023.2.3,Win32,60.24096386,9,2,4,,,,,,,,5,04,,,,,,,,,,,5,0.98,1,,,,,,-0.398148148,-0.386111111,1,0,0,0.9802,Obsidian_rect,3,0,3,0,1,
6674b4a918f2509894b3294e,SCN,2024-06-25_11h39.35.910,LearnStrategy,2023.2.3,Win32,60.24096386,9,2,5,,,,,,,,3,14,,,,,,,,,,,6,1.48,0,,,,,,-0.124074074,-0.406481481,1,0,0,1.4803,Pegmatite_rect,4,0,4,0,1,
6674b4a918f2509894b3294e,SCN,2024-06-25_11h39.35.910,LearnStrategy,2023.2.3,Win32,60.24096386,9,2,6,,,,,,,,1,06,,,,,,,,,,,3,1.747,0,,,,,,0.167592593,-0.249074074,1,0,0,1.7467,Diorite_rect,5,0,5,0,1,
6674b4a918f2509894b3294e,SCN,2024-06-25_11h39.35.910,LearnStrategy,2023.2.3,Win32,60.24096386,9,2,7,,,,,,,,2,02,,,,,,,,,,,2,1.03,1,,,,,,-0.080555556,-0.262037037,1,0,0,1.03,Basalt_rect,6,0,6,0,1,
6674b4a918f2509894b3294e,SCN,2024-06-25_11h39.35.910,LearnStrategy,2023.2.3,Win32,60.24096386,9,2,8,,,,,,,,1,10,,,,,,,,,,,3,1.58,0,,,,,,0.188888889,-0.263888889,1,0,0,1.5798,Diorite_rect,7,0,7,0,1,
6674b4a918f2509894b3294e,SCN,2024-06-25_11h39.35.910,LearnStrategy,2023.2.3,Win32,60.24096386,9,2,9,,,,,,,,3,13,,,,,,,,,,,7,1.096,0,,,,,,0.090740741,-0.408333333,1,0,0,1.0964,Peridotite_rect,8,0,8,0,1,
6674b4a918f2509894b3294e,SCN,2024-06-25_11h39.35.910,LearnStrategy,2023.2.3,Win32,60.24096386,9,2,10,,,,,,,,8,03,,,,,,,,,,,8,1.18,1,,,,,,0.398148148,-0.397222222,1,0,0,1.1799,Pumice_rect,9,0,9,0,1,
6674b4a918f2509894b3294e,SCN,2024-06-25_11h39.35.910,LearnStrategy,2023.2.3,Win32,60.24096386,9,2,11,,,,,,,,7,04,,,,,,,,,,,7,0.913,1,,,,,,0.131481481,-0.403703704,1,0,0,0.913,Peridotite_rect,10,0,10,0,1,
6674b4a918f2509894b3294e,SCN,2024-06-25_11h39.35.910,LearnStrategy,2023.2.3,Win32,60.24096386,9,2,12,,,,,,,,6,08,,,,,,,,,,,7,1.247,0,,,,,,0.103703704,-0.412962963,1,0,0,1.2466,Peridotite_rect,11,0,11,0,1,
6674b4a918f2509894b3294e,SCN,2024-06-25_11h39.35.910,LearnStrategy,2023.2.3,Win32,60.24096386,9,2,13,,,,,,,,2,11,,,,,,,,,,,2,1.297,1,,,,,,-0.102777778,-0.266666667,1,0,0,1.2965,Basalt_rect,12,0,12,0,1,
6674b4a918f2509894b3294e,SCN,2024-06-25_11h39.35.910,LearnStrategy,2023.2.3,Win32,60.24096386,9,2,14,,,,,,,,4,10,,,,,,,,,,,2,0.88,0,,,,,,-0.083333333,-0.249074074,1,0,0,0.8797,Basalt_rect,13,0,13,0,1,
6674b4a918f2509894b3294e,SCN,2024-06-25_11h39.35.910,LearnStrategy,2023.2.3,Win32,60.24096386,9,2,15,,,,,,,,7,06,,,,,,,,,,,3,0.896,0,,,,,,0.112037037,-0.266666667,1,0,0,0.896,Diorite_rect,14,0,14,0,1,
6674b4a918f2509894b3294e,SCN,2024-06-25_11h39.35.910,LearnStrategy,2023.2.3,Win32,60.24096386,9,2,16,,,,,,,,6,06,,,,,,,,,,,6,1.614,1,,,,,,-0.127777778,-0.413888889,1,0,0,1.6138,Pegmatite_rect,15,0,15,0,1,
6674b4a918f2509894b3294e,SCN,2024-06-25_11h39.35.910,LearnStrategy,2023.2.3,Win32,60.24096386,,,,,,,,,,,,,,,,,,,,,,,,,,,,,,,,,,,,,,,,,,,0
6674b4a918f2509894b3294e,SCN,2024-06-25_11h39.35.910,LearnStrategy,2023.2.3,Win32,60.24096386,,,,,,,,,,,,,,,,,,,,,,,,,,,,,,,,,,,,,,,,,,,
6674b4a918f2509894b3294e,SCN,2024-06-25_11h39.35.910,LearnStrategy,2023.2.3,Win32,60.24096386,,,,,,,,,,,7,12,1,1,,,,,,,,,,,,,,,,,,,,,,,,,,,,,
6674b4a918f2509894b3294e,SCN,2024-06-25_11h39.35.910,LearnStrategy,2023.2.3,Win32,60.24096386,,,,,,,,,,,8,16,1,2,,,,,,,,,,,,,,,,,,,,,,,,,,,,,
6674b4a918f2509894b3294e,SCN,2024-06-25_11h39.35.910,LearnStrategy,2023.2.3,Win32,60.24096386,,,,,,,,,,,8,05,1,3,,,,,,,,,,,,,,,,,,,,,,,,,,,,,
6674b4a918f2509894b3294e,SCN,2024-06-25_11h39.35.910,LearnStrategy,2023.2.3,Win32,60.24096386,,,,,,,,,,,3,08,1,4,,,,,,,,,,,,,,,,,,,,,,,,,,,,,
6674b4a918f2509894b3294e,SCN,2024-06-25_11h39.35.910,LearnStrategy,2023.2.3,Win32,60.24096386,,,,,,,,,,,5,05,1,5,,,,,,,,,,,,,,,,,,,,,,,,,,,,,
6674b4a918f2509894b3294e,SCN,2024-06-25_11h39.35.910,LearnStrategy,2023.2.3,Win32,60.24096386,,,,,,,,,,,3,07,1,6,,,,,,,,,,,,,,,,,,,,,,,,,,,,,
6674b4a918f2509894b3294e,SCN,2024-06-25_11h39.35.910,LearnStrategy,2023.2.3,Win32,60.24096386,,,,,,,,,,,6,13,1,7,,,,,,,,,,,,,,,,,,,,,,,,,,,,,
6674b4a918f2509894b3294e,SCN,2024-06-25_11h39.35.910,LearnStrategy,2023.2.3,Win32,60.24096386,,,,,,,,,,,1,11,1,8,,,,,,,,,,,,,,,,,,,,,,,,,,,,,
6674b4a918f2509894b3294e,SCN,2024-06-25_11h39.35.910,LearnStrategy,2023.2.3,Win32,60.24096386,,,,,,,,,,,7,14,2,1,,,,,,,,,,,,,,,,,,,,,,,,,,,,,
6674b4a918f2509894b3294e,SCN,2024-06-25_11h39.35.910,LearnStrategy,2023.2.3,Win32,60.24096386,,,,,,,,,,,2,06,2,2,,,,,,,,,,,,,,,,,,,,,,,,,,,,,
6674b4a918f2509894b3294e,SCN,2024-06-25_11h39.35.910,LearnStrategy,2023.2.3,Win32,60.24096386,,,,,,,,,,,6,03,2,3,,,,,,,,,,,,,,,,,,,,,,,,,,,,,
6674b4a918f2509894b3294e,SCN,2024-06-25_11h39.35.910,LearnStrategy,2023.2.3,Win32,60.24096386,,,,,,,,,,,5,08,2,4,,,,,,,,,,,,,,,,,,,,,,,,,,,,,
6674b4a918f2509894b3294e,SCN,2024-06-25_11h39.35.910,LearnStrategy,2023.2.3,Win32,60.24096386,,,,,,,,,,,7,13,2,5,,,,,,,,,,,,,,,,,,,,,,,,,,,,,
6674b4a918f2509894b3294e,SCN,2024-06-25_11h39.35.910,LearnStrategy,2023.2.3,Win32,60.24096386,,,,,,,,,,,2,14,2,6,,,,,,,,,,,,,,,,,,,,,,,,,,,,,
6674b4a918f2509894b3294e,SCN,2024-06-25_11h39.35.910,LearnStrategy,2023.2.3,Win32,60.24096386,,,,,,,,,,,6,05,2,7,,,,,,,,,,,,,,,,,,,,,,,,,,,,,
6674b4a918f2509894b3294e,SCN,2024-06-25_11h39.35.910,LearnStrategy,2023.2.3,Win32,60.24096386,,,,,,,,,,,8,14,2,8,,,,,,,,,,,,,,,,,,,,,,,,,,,,,
6674b4a918f2509894b3294e,SCN,2024-06-25_11h39.35.910,LearnStrategy,2023.2.3,Win32,60.24096386,,,,,,,,,,,3,12,3,1,,,,,,,,,,,,,,,,,,,,,,,,,,,,,
6674b4a918f2509894b3294e,SCN,2024-06-25_11h39.35.910,LearnStrategy,2023.2.3,Win32,60.24096386,,,,,,,,,,,5,10,3,2,,,,,,,,,,,,,,,,,,,,,,,,,,,,,
6674b4a918f2509894b3294e,SCN,2024-06-25_11h39.35.910,LearnStrategy,2023.2.3,Win32,60.24096386,,,,,,,,,,,1,01,3,3,,,,,,,,,,,,,,,,,,,,,,,,,,,,,
6674b4a918f2509894b3294e,SCN,2024-06-25_11h39.35.910,LearnStrategy,2023.2.3,Win32,60.24096386,,,,,,,,,,,5,02,3,4,,,,,,,,,,,,,,,,,,,,,,,,,,,,,
6674b4a918f2509894b3294e,SCN,2024-06-25_11h39.35.910,LearnStrategy,2023.2.3,Win32,60.24096386,,,,,,,,,,,8,04,3,5,,,,,,,,,,,,,,,,,,,,,,,,,,,,,
6674b4a918f2509894b3294e,SCN,2024-06-25_11h39.35.910,LearnStrategy,2023.2.3,Win32,60.24096386,,,,,,,,,,,6,09,3,6,,,,,,,,,,,,,,,,,,,,,,,,,,,,,
6674b4a918f2509894b3294e,SCN,2024-06-25_11h39.35.910,LearnStrategy,2023.2.3,Win32,60.24096386,,,,,,,,,,,2,01,3,7,,,,,,,,,,,,,,,,,,,,,,,,,,,,,
6674b4a918f2509894b3294e,SCN,2024-06-25_11h39.35.910,LearnStrategy,2023.2.3,Win32,60.24096386,,,,,,,,,,,7,07,3,8,,,,,,,,,,,,,,,,,,,,,,,,,,,,,
6674b4a918f2509894b3294e,SCN,2024-06-25_11h39.35.910,LearnStrategy,2023.2.3,Win32,60.24096386,,,,,,,,,,,4,01,4,1,,,,,,,,,,,,,,,,,,,,,,,,,,,,,
6674b4a918f2509894b3294e,SCN,2024-06-25_11h39.35.910,LearnStrategy,2023.2.3,Win32,60.24096386,,,,,,,,,,,5,14,4,2,,,,,,,,,,,,,,,,,,,,,,,,,,,,,
6674b4a918f2509894b3294e,SCN,2024-06-25_11h39.35.910,LearnStrategy,2023.2.3,Win32,60.24096386,,,,,,,,,,,3,02,4,3,,,,,,,,,,,,,,,,,,,,,,,,,,,,,
6674b4a918f2509894b3294e,SCN,2024-06-25_11h39.35.910,LearnStrategy,2023.2.3,Win32,60.24096386,,,,,,,,,,,1,03,4,4,,,,,,,,,,,,,,,,,,,,,,,,,,,,,
6674b4a918f2509894b3294e,SCN,2024-06-25_11h39.35.910,LearnStrategy,2023.2.3,Win32,60.24096386,,,,,,,,,,,7,02,4,5,,,,,,,,,,,,,,,,,,,,,,,,,,,,,
6674b4a918f2509894b3294e,SCN,2024-06-25_11h39.35.910,LearnStrategy,2023.2.3,Win32,60.24096386,,,,,,,,,,,8,09,4,6,,,,,,,,,,,,,,,,,,,,,,,,,,,,,
6674b4a918f2509894b3294e,SCN,2024-06-25_11h39.35.910,LearnStrategy,2023.2.3,Win32,60.24096386,,,,,,,,,,,4,03,4,7,,,,,,,,,,,,,,,,,,,,,,,,,,,,,
6674b4a918f2509894b3294e,SCN,2024-06-25_11h39.35.910,LearnStrategy,2023.2.3,Win32,60.24096386,,,,,,,,,,,6,12,4,8,,,,,,,,,,,,,,,,,,,,,,,,,,,,,
6674b4a918f2509894b3294e,SCN,2024-06-25_11h39.35.910,LearnStrategy,2023.2.3,Win32,60.24096386,,,,,,,,,,,3,06,5,1,,,,,,,,,,,,,,,,,,,,,,,,,,,,,
6674b4a918f2509894b3294e,SCN,2024-06-25_11h39.35.910,LearnStrategy,2023.2.3,Win32,60.24096386,,,,,,,,,,,1,14,5,2,,,,,,,,,,,,,,,,,,,,,,,,,,,,,
6674b4a918f2509894b3294e,SCN,2024-06-25_11h39.35.910,LearnStrategy,2023.2.3,Win32,60.24096386,,,,,,,,,,,2,12,5,3,,,,,,,,,,,,,,,,,,,,,,,,,,,,,
6674b4a918f2509894b3294e,SCN,2024-06-25_11h39.35.910,LearnStrategy,2023.2.3,Win32,60.24096386,,,,,,,,,,,8,10,5,4,,,,,,,,,,,,,,,,,,,,,,,,,,,,,
6674b4a918f2509894b3294e,SCN,2024-06-25_11h39.35.910,LearnStrategy,2023.2.3,Win32,60.24096386,,,,,,,,,,,3,11,5,5,,,,,,,,,,,,,,,,,,,,,,,,,,,,,
6674b4a918f2509894b3294e,SCN,2024-06-25_11h39.35.910,LearnStrategy,2023.2.3,Win32,60.24096386,,,,,,,,,,,2,05,5,6,,,,,,,,,,,,,,,,,,,,,,,,,,,,,
6674b4a918f2509894b3294e,SCN,2024-06-25_11h39.35.910,LearnStrategy,2023.2.3,Win32,60.24096386,,,,,,,,,,,6,11,5,7,,,,,,,,,,,,,,,,,,,,,,,,,,,,,
6674b4a918f2509894b3294e,SCN,2024-06-25_11h39.35.910,LearnStrategy,2023.2.3,Win32,60.24096386,,,,,,,,,,,2,04,5,8,,,,,,,,,,,,,,,,,,,,,,,,,,,,,
6674b4a918f2509894b3294e,SCN,2024-06-25_11h39.35.910,LearnStrategy,2023.2.3,Win32,60.24096386,,,,,,,,,,,4,14,6,1,,,,,,,,,,,,,,,,,,,,,,,,,,,,,
6674b4a918f2509894b3294e,SCN,2024-06-25_11h39.35.910,LearnStrategy,2023.2.3,Win32,60.24096386,,,,,,,,,,,1,07,6,2,,,,,,,,,,,,,,,,,,,,,,,,,,,,,
6674b4a918f2509894b3294e,SCN,2024-06-25_11h39.35.910,LearnStrategy,2023.2.3,Win32,60.24096386,,,,,,,,,,,1,05,6,3,,,,,,,,,,,,,,,,,,,,,,,,,,,,,
6674b4a918f2509894b3294e,SCN,2024-06-25_11h39.35.910,LearnStrategy,2023.2.3,Win32,60.24096386,,,,,,,,,,,4,13,6,4,,,,,,,,,,,,,,,,,,,,,,,,,,,,,
6674b4a918f2509894b3294e,SCN,2024-06-25_11h39.35.910,LearnStrategy,2023.2.3,Win32,60.24096386,,,,,,,,,,,7,16,6,5,,,,,,,,,,,,,,,,,,,,,,,,,,,,,
6674b4a918f2509894b3294e,SCN,2024-06-25_11h39.35.910,LearnStrategy,2023.2.3,Win32,60.24096386,,,,,,,,,,,5,11,6,6,,,,,,,,,,,,,,,,,,,,,,,,,,,,,
6674b4a918f2509894b3294e,SCN,2024-06-25_11h39.35.910,LearnStrategy,2023.2.3,Win32,60.24096386,,,,,,,,,,,4,09,6,7,,,,,,,,,,,,,,,,,,,,,,,,,,,,,
6674b4a918f2509894b3294e,SCN,2024-06-25_11h39.35.910,LearnStrategy,2023.2.3,Win32,60.24096386,,,,,,,,,,,4,16,6,8,,,,,,,,,,,,,,,,,,,,,,,,,,,,,