participant,condition,date,expName,psychopyVersion,OS,frameRate,block,phase,trial,learn_mouse.x,learn_mouse.y,learn_mouse.leftButton,learn_mouse.midButton,learn_mouse.rightButton,learn_mouse.time,learn_mouse.clicked_name,cat,token,row,col,t_select,cat_rec,token_rec,cat_mouse_l.x,cat_mouse_l.y,cat_mouse_l.leftButton,cat_mouse_l.midButton,cat_mouse_l.rightButton,cat_mouse_l.time,cat_mouse_l.clicked_name,resp,t_resp,corr,train_trials.thisRepN,train_trials.thisTrialN,train_trials.thisN,train_trials.thisIndex,train_trials.ran,cat_mouse_t.x,cat_mouse_t.y,cat_mouse_t.leftButton,cat_mouse_t.midButton,cat_mouse_t.rightButton,cat_mouse_t.time,cat_mouse_t.clicked_name,test_trials.thisRepN,test_trials.thisTrialN,test_trials.thisN,test_trials.thisIndex,test_trials.ran,Bonus
66751182f21224f506c8d043,SCR,2024-06-24_16h32.48.834,LearnStrategy,2023.2.3,Win32,60.24096386,,,,,,,,,,,,,,,,,,,,,,,,,,,,,,,,,,,,,,,,,,,,,
66751182f21224f506c8d043,SCR,2024-06-24_16h32.48.834,LearnStrategy,2023.2.3,Win32,60.24096386,1,1,1,-0.071296268,-0.250925912,1,0,0,2.557,Pumice_03,8,03,2,4,2.557,8,03,0.386111083,-0.391666695,1,0,0,5.2997,Pumice_rect,8,5.3,1,0,0,0,0,1,,,,,,,,,,,,,
66751182f21224f506c8d043,SCR,2024-06-24_16h32.48.834,LearnStrategy,2023.2.3,Win32,60.24096386,1,1,2,0.551851908,-0.401851866,1,0,0,1.653,Obsidian_05,5,05,1,8,1.653,5,05,-0.324999986,-0.409259302,1,0,0,2.6706,Obsidian_rect,5,2.671,1,1,0,1,0,1,,,,,,,,,,,,,
66751182f21224f506c8d043,SCR,2024-06-24_16h32.48.834,LearnStrategy,2023.2.3,Win32,60.24096386,1,1,3,-0.23055557,0.273148148,1,0,0,1.399,Diorite_09,3,09,5,3,1.399,3,09,-0.099999958,-0.397222236,1,0,0,5.1284,Pegmatite_rect,6,5.128,0,2,0,2,0,1,,,,,,,,,,,,,
66751182f21224f506c8d043,SCR,2024-06-24_16h32.48.834,LearnStrategy,2023.2.3,Win32,60.24096386,1,1,4,-0.405555548,0.26203703,1,0,0,1.7615,Diorite_10,3,10,5,2,1.761,3,10,-0.115740741,-0.385185171,1,0,0,4.5392,Pegmatite_rect,6,4.539,0,3,0,3,0,1,,,,,,,,,,,,,
66751182f21224f506c8d043,SCR,2024-06-24_16h32.48.834,LearnStrategy,2023.2.3,Win32,60.24096386,1,1,5,0.080555598,-0.420370384,1,0,0,1.4447,Obsidian_06,5,06,1,5,1.445,5,06,0.381481453,-0.263888889,1,0,0,7.93,Gabbro_rect,4,7.93,0,4,0,4,0,1,,,,,,,,,,,,,
66751182f21224f506c8d043,SCR,2024-06-24_16h32.48.834,LearnStrategy,2023.2.3,Win32,60.24096386,1,1,6,0.229629658,-0.10092594,1,0,0,1.4628,Peridotite_05,7,05,3,6,1.463,7,05,-0.178703661,-0.249074088,1,0,0,2.7691,Basalt_rect,2,2.769,0,5,0,5,0,1,,,,,,,,,,,,,
66751182f21224f506c8d043,SCR,2024-06-24_16h32.48.834,LearnStrategy,2023.2.3,Win32,60.24096386,1,1,7,-0.076851809,-0.097222222,1,0,0,0.8956,Pumice_09,8,09,3,4,0.896,8,09,0.384259259,-0.387962977,1,0,0,1.502,Pumice_rect,8,1.502,1,6,0,6,0,1,,,,,,,,,,,,,
66751182f21224f506c8d043,SCR,2024-06-24_16h32.48.834,LearnStrategy,2023.2.3,Win32,60.24096386,1,1,8,-0.06759255,0.099074081,1,0,0,1.1452,Gabbro_10,4,10,4,4,1.145,4,10,-0.093518504,-0.39444443,1,0,0,5.0705,Pegmatite_rect,6,5.07,0,7,0,7,0,1,,,,,,,,,,,,,
66751182f21224f506c8d043,SCR,2024-06-24_16h32.48.834,LearnStrategy,2023.2.3,Win32,60.24096386,1,1,9,-0.081481439,0.262962959,1,0,0,1.3451,Andesite_02,1,02,5,4,1.345,1,02,0.089814857,-0.391666695,1,0,0,4.9228,Peridotite_rect,7,4.923,0,8,0,8,0,1,,,,,,,,,,,,,
66751182f21224f506c8d043,SCR,2024-06-24_16h32.48.834,LearnStrategy,2023.2.3,Win32,60.24096386,1,1,10,0.564814815,0.397222219,1,0,0,1.6262,Basalt_11,2,11,6,8,1.626,2,11,-0.091666681,-0.397222236,1,0,0,2.745,Pegmatite_rect,6,2.745,0,9,0,9,0,1,,,,,,,,,,,,,
66751182f21224f506c8d043,SCR,2024-06-24_16h32.48.834,LearnStrategy,2023.2.3,Win32,60.24096386,1,1,11,-0.591666645,0.094444452,1,0,0,1.423,Peridotite_13,7,13,4,1,1.423,7,13,-0.068518533,-0.390740783,1,0,0,4.275,Pegmatite_rect,6,4.275,0,10,0,10,0,1,,,,,,,,,,,,,
66751182f21224f506c8d043,SCR,2024-06-24_16h32.48.834,LearnStrategy,2023.2.3,Win32,60.24096386,1,1,12,0.407407407,0.284259249,1,0,0,1.4258,Pegmatite_08,6,08,5,7,1.426,6,08,-0.080555527,-0.37962963,1,0,0,1.9803,Pegmatite_rect,6,1.98,1,11,0,11,0,1,,,,,,,,,,,,,
66751182f21224f506c8d043,SCR,2024-06-24_16h32.48.834,LearnStrategy,2023.2.3,Win32,60.24096386,1,1,13,-0.218518504,0.082407386,1,0,0,1.0287,Andesite_03,1,03,4,3,1.029,1,03,-0.373148141,-0.242592635,1,0,0,5.2403,Andesite_rect,1,5.24,1,12,0,12,0,1,,,,,,,,,,,,,
66751182f21224f506c8d043,SCR,2024-06-24_16h32.48.834,LearnStrategy,2023.2.3,Win32,60.24096386,1,1,14,-0.594444434,0.268518519,1,0,0,1.3289,Gabbro_03,4,03,5,1,1.329,4,03,0.060185185,-0.261111153,1,0,0,2.391,Diorite_rect,3,2.391,0,13,0,13,0,1,,,,,,,,,,,,,
66751182f21224f506c8d043,SCR,2024-06-24_16h32.48.834,LearnStrategy,2023.2.3,Win32,60.24096386,1,1,15,0.05277782,0.37314815,1,0,0,1.3945,Basalt_08,2,08,6,5,1.394,2,08,-0.065740727,-0.252777806,1,0,0,8.1052,Basalt_rect,2,8.105,1,14,0,14,0,1,,,,,,,,,,,,,
66751182f21224f506c8d043,SCR,2024-06-24_16h32.48.834,LearnStrategy,2023.2.3,Win32,60.24096386,1,1,16,-0.06759255,-0.381481524,1,0,0,1.4791,Pegmatite_09,6,09,1,4,1.479,6,09,-0.07222218,-0.420370384,1,0,0,4.8843,Pegmatite_rect,6,4.884,1,15,0,15,0,1,,,,,,,,,,,,,
66751182f21224f506c8d043,SCR,2024-06-24_16h32.48.834,LearnStrategy,2023.2.3,Win32,60.24096386,1,2,1,,,,,,,,8,04,,,,,,,,,,,,,8,2.015,1,,,,,,0.353703675,-0.404629672,1,0,0,2.0148,Pumice_rect,0,0,0,0,1,
66751182f21224f506c8d043,SCR,2024-06-24_16h32.48.834,LearnStrategy,2023.2.3,Win32,60.24096386,1,2,2,,,,,,,,7,16,,,,,,,,,,,,,2,8.644,0,,,,,,-0.094444416,-0.235185199,1,0,0,8.6438,Basalt_rect,1,0,1,0,1,
66751182f21224f506c8d043,SCR,2024-06-24_16h32.48.834,LearnStrategy,2023.2.3,Win32,60.24096386,1,2,3,,,,,,,,4,01,,,,,,,,,,,,,7,4.599,0,,,,,,0.101851852,-0.40370369,1,0,0,4.5991,Peridotite_rect,2,0,2,0,1,
66751182f21224f506c8d043,SCR,2024-06-24_16h32.48.834,LearnStrategy,2023.2.3,Win32,60.24096386,1,2,4,,,,,,,,2,05,,,,,,,,,,,,,4,3.915,0,,,,,,0.363888917,-0.232407393,1,0,0,3.9154,Gabbro_rect,3,0,3,0,1,
66751182f21224f506c8d043,SCR,2024-06-24_16h32.48.834,LearnStrategy,2023.2.3,Win32,60.24096386,1,2,5,,,,,,,,2,10,,,,,,,,,,,,,3,7.404,0,,,,,,0.12037037,-0.24537037,1,0,0,7.4037,Diorite_rect,4,0,4,0,1,
66751182f21224f506c8d043,SCR,2024-06-24_16h32.48.834,LearnStrategy,2023.2.3,Win32,60.24096386,1,2,6,,,,,,,,5,08,,,,,,,,,,,,,5,1.559,1,,,,,,-0.380555541,-0.392592607,1,0,0,1.5591,Obsidian_rect,5,0,5,0,1,
66751182f21224f506c8d043,SCR,2024-06-24_16h32.48.834,LearnStrategy,2023.2.3,Win32,60.24096386,1,2,7,,,,,,,,6,05,,,,,,,,,,,,,6,2.608,1,,,,,,-0.104629587,-0.407407407,1,0,0,2.6083,Pegmatite_rect,6,0,6,0,1,
66751182f21224f506c8d043,SCR,2024-06-24_16h32.48.834,LearnStrategy,2023.2.3,Win32,60.24096386,1,2,8,,,,,,,,6,07,,,,,,,,,,,,,6,1.306,1,,,,,,-0.115740741,-0.381481524,1,0,0,1.3057,Pegmatite_rect,7,0,7,0,1,
66751182f21224f506c8d043,SCR,2024-06-24_16h32.48.834,LearnStrategy,2023.2.3,Win32,60.24096386,1,2,9,,,,,,,,4,14,,,,,,,,,,,,,2,2.786,0,,,,,,-0.123148106,-0.238888917,1,0,0,2.7861,Basalt_rect,8,0,8,0,1,
66751182f21224f506c8d043,SCR,2024-06-24_16h32.48.834,LearnStrategy,2023.2.3,Win32,60.24096386,1,2,10,,,,,,,,1,14,,,,,,,,,,,,,1,6.987,1,,,,,,-0.37037037,-0.249074088,1,0,0,6.9873,Andesite_rect,9,0,9,0,1,
66751182f21224f506c8d043,SCR,2024-06-24_16h32.48.834,LearnStrategy,2023.2.3,Win32,60.24096386,1,2,11,,,,,,,,5,11,,,,,,,,,,,,,5,1.362,1,,,,,,-0.374074053,-0.397222236,1,0,0,1.3623,Obsidian_rect,10,0,10,0,1,
66751182f21224f506c8d043,SCR,2024-06-24_16h32.48.834,LearnStrategy,2023.2.3,Win32,60.24096386,1,2,12,,,,,,,,1,10,,,,,,,,,,,,,7,7.831,0,,,,,,0.107407393,-0.402777778,1,0,0,7.8314,Peridotite_rect,11,0,11,0,1,
66751182f21224f506c8d043,SCR,2024-06-24_16h32.48.834,LearnStrategy,2023.2.3,Win32,60.24096386,1,2,13,,,,,,,,3,12,,,,,,,,,,,,,3,2.175,1,,,,,,0.099074116,-0.256481524,1,0,0,2.175,Diorite_rect,12,0,12,0,1,
66751182f21224f506c8d043,SCR,2024-06-24_16h32.48.834,LearnStrategy,2023.2.3,Win32,60.24096386,1,2,14,,,,,,,,3,15,,,,,,,,,,,,,3,3.257,1,,,,,,0.083333333,-0.238888917,1,0,0,3.2575,Diorite_rect,13,0,13,0,1,
66751182f21224f506c8d043,SCR,2024-06-24_16h32.48.834,LearnStrategy,2023.2.3,Win32,60.24096386,1,2,15,,,,,,,,7,08,,,,,,,,,,,,,7,6.506,1,,,,,,0.172222208,-0.406481496,1,0,0,6.5056,Peridotite_rect,14,0,14,0,1,
66751182f21224f506c8d043,SCR,2024-06-24_16h32.48.834,LearnStrategy,2023.2.3,Win32,60.24096386,1,2,16,,,,,,,,8,08,,,,,,,,,,,,,8,1.613,1,,,,,,0.384259259,-0.387962977,1,0,0,1.6131,Pumice_rect,15,0,15,0,1,
66751182f21224f506c8d043,SCR,2024-06-24_16h32.48.834,LearnStrategy,2023.2.3,Win32,60.24096386,2,1,1,0.087037051,0.252777771,1,0,0,1.8406,Pegmatite_16,6,16,5,5,1.841,6,16,-0.104629587,-0.411111125,1,0,0,3.8203,Pegmatite_rect,6,3.82,1,0,0,0,0,1,,,,,,,,,,,,,
66751182f21224f506c8d043,SCR,2024-06-24_16h32.48.834,LearnStrategy,2023.2.3,Win32,60.24096386,2,1,2,0.570370427,0.12037037,1,0,0,1.405,Basalt_01,2,01,4,8,1.405,2,01,0.350926011,-0.238888917,1,0,0,4.2317,Gabbro_rect,4,4.232,0,1,0,1,0,1,,,,,,,,,,,,,
66751182f21224f506c8d043,SCR,2024-06-24_16h32.48.834,LearnStrategy,2023.2.3,Win32,60.24096386,2,1,3,0.086111139,0.431481481,1,0,0,1.2223,Basalt_08,2,08,6,5,1.222,2,08,-0.068518533,-0.26944443,1,0,0,1.5704,Basalt_rect,2,1.57,1,2,0,2,0,1,,,,,,,,,,,,,
66751182f21224f506c8d043,SCR,2024-06-24_16h32.48.834,LearnStrategy,2023.2.3,Win32,60.24096386,2,1,4,-0.374074053,-0.265740783,1,0,0,1.3573,Gabbro_13,4,13,2,2,1.357,4,13,-0.373148141,-0.265740783,1,0,0,1.732,Andesite_rect,1,1.732,0,3,0,3,0,1,,,,,,,,,,,,,
66751182f21224f506c8d043,SCR,2024-06-24_16h32.48.834,LearnStrategy,2023.2.3,Win32,60.24096386,2,1,5,-0.580555563,-0.119444459,1,0,0,1.7246,Peridotite_04,7,04,3,1,1.725,7,04,0.10555557,-0.397222236,1,0,0,2.7799,Peridotite_rect,7,2.78,1,4,0,4,0,1,,,,,,,,,,,,,
66751182f21224f506c8d043,SCR,2024-06-24_16h32.48.834,LearnStrategy,2023.2.3,Win32,60.24096386,2,1,6,-0.231481481,0.24537037,1,0,0,1.1114,Diorite_09,3,09,5,3,1.111,3,09,-0.357407393,-0.237037023,1,0,0,2.6152,Andesite_rect,1,2.615,0,5,0,5,0,1,,,,,,,,,,,,,
66751182f21224f506c8d043,SCR,2024-06-24_16h32.48.834,LearnStrategy,2023.2.3,Win32,60.24096386,2,1,7,0.214814857,-0.106481481,1,0,0,1.2938,Peridotite_05,7,05,3,6,1.294,7,05,0.086111139,-0.387962977,1,0,0,2.4454,Peridotite_rect,7,2.445,1,6,0,6,0,1,,,,,,,,,,,,,
66751182f21224f506c8d043,SCR,2024-06-24_16h32.48.834,LearnStrategy,2023.2.3,Win32,60.24096386,2,1,8,-0.063888903,0.43425926,1,0,0,1.712,Basalt_14,2,14,6,4,1.712,2,14,-0.090740698,-0.271296325,1,0,0,1.7081,Basalt_rect,2,1.708,1,7,0,7,0,1,,,,,,,,,,,,,
66751182f21224f506c8d043,SCR,2024-06-24_16h32.48.834,LearnStrategy,2023.2.3,Win32,60.24096386,2,1,9,0.398148148,-0.110185199,1,0,0,1.2565,Andesite_09,1,09,3,7,1.257,1,09,-0.375,-0.24537037,1,0,0,2.3453,Andesite_rect,1,2.345,1,8,0,8,0,1,,,,,,,,,,,,,
66751182f21224f506c8d043,SCR,2024-06-24_16h32.48.834,LearnStrategy,2023.2.3,Win32,60.24096386,2,1,10,0.098148134,0.425925926,1,0,0,1.346,Basalt_08,2,08,6,5,1.346,2,08,-0.113888847,-0.247222265,1,0,0,2.5316,Basalt_rect,2,2.532,1,9,0,9,0,1,,,,,,,,,,,,,
66751182f21224f506c8d043,SCR,2024-06-24_16h32.48.834,LearnStrategy,2023.2.3,Win32,60.24096386,2,1,11,0.551851908,0.122222229,1,0,0,1.3287,Basalt_01,2,01,4,8,1.329,2,01,-0.124074088,-0.253703718,1,0,0,1.166,Basalt_rect,2,1.166,1,10,0,10,0,1,,,,,,,,,,,,,
66751182f21224f506c8d043,SCR,2024-06-24_16h32.48.834,LearnStrategy,2023.2.3,Win32,60.24096386,2,1,12,-0.566666674,-0.383333347,1,0,0,1.483,Gabbro_15,4,15,1,1,1.483,4,15,0.090740769,-0.244444459,1,0,0,1.4233,Diorite_rect,3,1.423,0,11,0,11,0,1,,,,,,,,,,,,,
66751182f21224f506c8d043,SCR,2024-06-24_16h32.48.834,LearnStrategy,2023.2.3,Win32,60.24096386,2,1,13,0.061111097,-0.263888889,1,0,0,1.1691,Andesite_04,1,04,2,5,1.169,1,04,-0.395370377,-0.237037023,1,0,0,2.7541,Andesite_rect,1,2.754,1,12,0,12,0,1,,,,,,,,,,,,,
66751182f21224f506c8d043,SCR,2024-06-24_16h32.48.834,LearnStrategy,2023.2.3,Win32,60.24096386,2,1,14,0.063888903,0.099074081,1,0,0,1.2115,Gabbro_16,4,16,4,5,1.212,4,16,-0.075925898,-0.250925912,1,0,0,3.1059,Basalt_rect,2,3.106,0,13,0,13,0,1,,,,,,,,,,,,,
66751182f21224f506c8d043,SCR,2024-06-24_16h32.48.834,LearnStrategy,2023.2.3,Win32,60.24096386,2,1,15,0.247222265,-0.112037023,1,0,0,0.9731,Peridotite_05,7,05,3,6,0.973,7,05,0.152777778,-0.390740783,1,0,0,1.2396,Peridotite_rect,7,1.24,1,14,0,14,0,1,,,,,,,,,,,,,
66751182f21224f506c8d043,SCR,2024-06-24_16h32.48.834,LearnStrategy,2023.2.3,Win32,60.24096386,2,1,16,-0.389814801,-0.237963005,1,0,0,1.1456,Gabbro_13,4,13,2,2,1.146,4,13,0.357407464,-0.248148176,1,0,0,3.5694,Gabbro_rect,4,3.569,1,15,0,15,0,1,,,,,,,,,,,,,
66751182f21224f506c8d043,SCR,2024-06-24_16h32.48.834,LearnStrategy,2023.2.3,Win32,60.24096386,2,2,1,,,,,,,,5,12,,,,,,,,,,,,,5,1.651,1,,,,,,-0.3824074,-0.384259259,1,0,0,1.651,Obsidian_rect,0,0,0,0,1,
66751182f21224f506c8d043,SCR,2024-06-24_16h32.48.834,LearnStrategy,2023.2.3,Win32,60.24096386,2,2,2,,,,,,,,1,01,,,,,,,,,,,,,2,3.862,0,,,,,,-0.093518504,-0.267592607,1,0,0,3.8622,Basalt_rect,1,0,1,0,1,
66751182f21224f506c8d043,SCR,2024-06-24_16h32.48.834,LearnStrategy,2023.2.3,Win32,60.24096386,2,2,3,,,,,,,,4,12,,,,,,,,,,,,,4,4.23,1,,,,,,0.376851824,-0.235185199,1,0,0,4.2297,Gabbro_rect,2,0,2,0,1,
66751182f21224f506c8d043,SCR,2024-06-24_16h32.48.834,LearnStrategy,2023.2.3,Win32,60.24096386,2,2,4,,,,,,,,8,15,,,,,,,,,,,,,8,1.389,1,,,,,,0.363888917,-0.416666667,1,0,0,1.3888,Pumice_rect,3,0,3,0,1,
66751182f21224f506c8d043,SCR,2024-06-24_16h32.48.834,LearnStrategy,2023.2.3,Win32,60.24096386,2,2,5,,,,,,,,1,16,,,,,,,,,,,,,3,6.524,0,,,,,,0.112037023,-0.261111153,1,0,0,6.524,Diorite_rect,4,0,4,0,1,
66751182f21224f506c8d043,SCR,2024-06-24_16h32.48.834,LearnStrategy,2023.2.3,Win32,60.24096386,2,2,6,,,,,,,,7,15,,,,,,,,,,,,,7,2.713,1,,,,,,0.099074116,-0.404629672,1,0,0,2.7128,Peridotite_rect,5,0,5,0,1,
66751182f21224f506c8d043,SCR,2024-06-24_16h32.48.834,LearnStrategy,2023.2.3,Win32,60.24096386,2,2,7,,,,,,,,8,05,,,,,,,,,,,,,8,1.754,1,,,,,,0.354629658,-0.382407436,1,0,0,1.7537,Pumice_rect,6,0,6,0,1,
66751182f21224f506c8d043,SCR,2024-06-24_16h32.48.834,LearnStrategy,2023.2.3,Win32,60.24096386,2,2,8,,,,,,,,2,09,,,,,,,,,,,,,2,2.754,1,,,,,,-0.037037037,-0.261111153,1,0,0,2.7535,Basalt_rect,7,0,7,0,1,
66751182f21224f506c8d043,SCR,2024-06-24_16h32.48.834,LearnStrategy,2023.2.3,Win32,60.24096386,2,2,9,,,,,,,,2,04,,,,,,,,,,,,,2,1.223,1,,,,,,-0.077777792,-0.262037065,1,0,0,1.2227,Basalt_rect,8,0,8,0,1,
66751182f21224f506c8d043,SCR,2024-06-24_16h32.48.834,LearnStrategy,2023.2.3,Win32,60.24096386,2,2,10,,,,,,,,7,14,,,,,,,,,,,,,3,4.102,0,,,,,,0.092592593,-0.244444459,1,0,0,4.1017,Diorite_rect,9,0,9,0,1,
66751182f21224f506c8d043,SCR,2024-06-24_16h32.48.834,LearnStrategy,2023.2.3,Win32,60.24096386,2,2,11,,,,,,,,4,09,,,,,,,,,,,,,2,4.28,0,,,,,,-0.076851809,-0.241666653,1,0,0,4.2799,Basalt_rect,10,0,10,0,1,
66751182f21224f506c8d043,SCR,2024-06-24_16h32.48.834,LearnStrategy,2023.2.3,Win32,60.24096386,2,2,12,,,,,,,,6,13,,,,,,,,,,,,,6,4.033,1,,,,,,-0.068518533,-0.400000042,1,0,0,4.033,Pegmatite_rect,11,0,11,0,1,
66751182f21224f506c8d043,SCR,2024-06-24_16h32.48.834,LearnStrategy,2023.2.3,Win32,60.24096386,2,2,13,,,,,,,,3,08,,,,,,,,,,,,,3,4.5,1,,,,,,0.14907406,-0.255555541,1,0,0,4.5005,Diorite_rect,12,0,12,0,1,
66751182f21224f506c8d043,SCR,2024-06-24_16h32.48.834,LearnStrategy,2023.2.3,Win32,60.24096386,2,2,14,,,,,,,,3,06,,,,,,,,,,,,,1,2.077,0,,,,,,-0.347222222,-0.235185199,1,0,0,2.077,Andesite_rect,13,0,13,0,1,
66751182f21224f506c8d043,SCR,2024-06-24_16h32.48.834,LearnStrategy,2023.2.3,Win32,60.24096386,2,2,15,,,,,,,,5,14,,,,,,,,,,,,,5,1.489,1,,,,,,-0.312037044,-0.401851866,1,0,0,1.489,Obsidian_rect,14,0,14,0,1,
66751182f21224f506c8d043,SCR,2024-06-24_16h32.48.834,LearnStrategy,2023.2.3,Win32,60.24096386,2,2,16,,,,,,,,6,03,,,,,,,,,,,,,6,3.485,1,,,,,,-0.108333305,-0.412962949,1,0,0,3.4848,Pegmatite_rect,15,0,15,0,1,
66751182f21224f506c8d043,SCR,2024-06-24_16h32.48.834,LearnStrategy,2023.2.3,Win32,60.24096386,3,1,1,0.227777764,-0.115740741,1,0,0,1.3465,Peridotite_05,7,05,3,6,1.347,7,05,0.112037023,-0.412037037,1,0,0,1.5365,Peridotite_rect,7,1.536,1,0,0,0,0,1,,,,,,,,,,,,,
66751182f21224f506c8d043,SCR,2024-06-24_16h32.48.834,LearnStrategy,2023.2.3,Win32,60.24096386,3,1,2,-0.075925898,0.224999993,1,0,0,0.9964,Andesite_02,1,02,5,4,0.996,1,02,0.163888931,-0.250925912,1,0,0,1.3961,Diorite_rect,3,1.396,0,1,0,1,0,1,,,,,,,,,,,,,
66751182f21224f506c8d043,SCR,2024-06-24_16h32.48.834,LearnStrategy,2023.2.3,Win32,60.24096386,3,1,3,-0.541666667,0.088888875,1,0,0,2.2273,Peridotite_13,7,13,4,1,2.227,7,13,0.113888917,-0.39444443,1,0,0,1.2902,Peridotite_rect,7,1.29,1,2,0,2,0,1,,,,,,,,,,,,,
66751182f21224f506c8d043,SCR,2024-06-24_16h32.48.834,LearnStrategy,2023.2.3,Win32,60.24096386,3,1,4,-0.360185164,0.224074063,1,0,0,1.3518,Diorite_10,3,10,5,2,1.352,3,10,-0.342592593,-0.234259288,1,0,0,1.7326,Andesite_rect,1,1.733,0,3,0,3,0,1,,,,,,,,,,,,,
66751182f21224f506c8d043,SCR,2024-06-24_16h32.48.834,LearnStrategy,2023.2.3,Win32,60.24096386,3,1,5,-0.238888847,-0.246296282,1,0,0,1.4113,Pegmatite_15,6,15,2,3,1.411,6,15,-0.104629587,-0.405555584,1,0,0,1.4351,Pegmatite_rect,6,1.435,1,4,0,4,0,1,,,,,,,,,,,,,
66751182f21224f506c8d043,SCR,2024-06-24_16h32.48.834,LearnStrategy,2023.2.3,Win32,60.24096386,3,1,6,0.532407407,0.38518518,1,0,0,1.7422,Basalt_11,2,11,6,8,1.742,2,11,-0.116666653,-0.250925912,1,0,0,2.1338,Basalt_rect,2,2.134,1,5,0,5,0,1,,,,,,,,,,,,,
66751182f21224f506c8d043,SCR,2024-06-24_16h32.48.834,LearnStrategy,2023.2.3,Win32,60.24096386,3,1,7,-0.070370356,0.276851848,1,0,0,1.5462,Andesite_02,1,02,5,4,1.546,1,02,-0.371296282,-0.232407393,1,0,0,3.0258,Andesite_rect,1,3.026,1,6,0,6,0,1,,,,,,,,,,,,,
66751182f21224f506c8d043,SCR,2024-06-24_16h32.48.834,LearnStrategy,2023.2.3,Win32,60.24096386,3,1,8,-0.253703718,0.086111104,1,0,0,1.125,Andesite_03,1,03,4,3,1.125,1,03,-0.087962963,-0.256481524,1,0,0,2.9873,Basalt_rect,2,2.987,0,7,0,7,0,1,,,,,,,,,,,,,
66751182f21224f506c8d043,SCR,2024-06-24_16h32.48.834,LearnStrategy,2023.2.3,Win32,60.24096386,3,1,9,-0.52870369,0.406481478,1,0,0,1.4943,Diorite_14,3,14,6,1,1.494,3,14,0.112963005,-0.249074088,1,0,0,2.7971,Diorite_rect,3,2.797,1,8,0,8,0,1,,,,,,,,,,,,,
66751182f21224f506c8d043,SCR,2024-06-24_16h32.48.834,LearnStrategy,2023.2.3,Win32,60.24096386,3,1,10,-0.557407414,-0.100000028,1,0,0,1.0802,Peridotite_04,7,04,3,1,1.08,7,04,0.082407422,-0.411111125,1,0,0,4.168,Peridotite_rect,7,4.168,1,9,0,9,0,1,,,,,,,,,,,,,
66751182f21224f506c8d043,SCR,2024-06-24_16h32.48.834,LearnStrategy,2023.2.3,Win32,60.24096386,3,1,11,0.074074074,0.064814815,1,0,0,0.9006,Gabbro_16,4,16,4,5,0.901,4,16,0.377777806,-0.246296282,1,0,0,1.3333,Gabbro_rect,4,1.333,1,10,0,10,0,1,,,,,,,,,,,,,
66751182f21224f506c8d043,SCR,2024-06-24_16h32.48.834,LearnStrategy,2023.2.3,Win32,60.24096386,3,1,12,-0.082407422,0.067592586,1,0,0,0.8296,Gabbro_10,4,10,4,4,0.83,4,10,-0.124074088,-0.236111111,1,0,0,1.1933,Basalt_rect,2,1.193,0,11,0,11,0,1,,,,,,,,,,,,,
66751182f21224f506c8d043,SCR,2024-06-24_16h32.48.834,LearnStrategy,2023.2.3,Win32,60.24096386,3,1,13,0.562962991,0.066666674,1,0,0,1.1437,Basalt_01,2,01,4,8,1.144,2,01,-0.107407393,-0.241666653,1,0,0,0.9924,Basalt_rect,2,0.992,1,12,0,12,0,1,,,,,,,,,,,,,
66751182f21224f506c8d043,SCR,2024-06-24_16h32.48.834,LearnStrategy,2023.2.3,Win32,60.24096386,3,1,14,-0.546296296,-0.439814815,1,0,0,1.3585,Gabbro_15,4,15,1,1,1.358,4,15,0.07685188,-0.264814801,1,0,0,2.4942,Diorite_rect,3,2.494,0,13,0,13,0,1,,,,,,,,,,,,,
66751182f21224f506c8d043,SCR,2024-06-24_16h32.48.834,LearnStrategy,2023.2.3,Win32,60.24096386,3,1,15,-0.242592564,0.043518526,1,0,0,1.1276,Andesite_03,1,03,4,3,1.128,1,03,0.383333418,-0.250925912,1,0,0,2.3668,Gabbro_rect,4,2.367,0,14,0,14,0,1,,,,,,,,,,,,,
66751182f21224f506c8d043,SCR,2024-06-24_16h32.48.834,LearnStrategy,2023.2.3,Win32,60.24096386,3,1,16,0.061111097,0.397222219,1,0,0,1.2418,Basalt_08,2,08,6,5,1.242,2,08,-0.070370356,-0.263888889,1,0,0,2.756,Basalt_rect,2,2.756,1,15,0,15,0,1,,,,,,,,,,,,,
66751182f21224f506c8d043,SCR,2024-06-24_16h32.48.834,LearnStrategy,2023.2.3,Win32,60.24096386,3,2,1,,,,,,,,3,13,,,,,,,,,,,,,3,7.521,1,,,,,,0.089814857,-0.238888917,1,0,0,7.5208,Diorite_rect,0,0,0,0,1,
66751182f21224f506c8d043,SCR,2024-06-24_16h32.48.834,LearnStrategy,2023.2.3,Win32,60.24096386,3,2,2,,,,,,,,7,10,,,,,,,,,,,,,7,2.74,1,,,,,,0.123148176,-0.391666695,1,0,0,2.7398,Peridotite_rect,1,0,1,0,1,
66751182f21224f506c8d043,SCR,2024-06-24_16h32.48.834,LearnStrategy,2023.2.3,Win32,60.24096386,3,2,3,,,,,,,,4,05,,,,,,,,,,,,,2,3.928,0,,,,,,-0.071296268,-0.250925912,1,0,0,3.928,Basalt_rect,2,0,2,0,1,
66751182f21224f506c8d043,SCR,2024-06-24_16h32.48.834,LearnStrategy,2023.2.3,Win32,60.24096386,3,2,4,,,,,,,,1,11,,,,,,,,,,,,,1,2.702,1,,,,,,-0.329629616,-0.237963005,1,0,0,2.7023,Andesite_rect,3,0,3,0,1,
66751182f21224f506c8d043,SCR,2024-06-24_16h32.48.834,LearnStrategy,2023.2.3,Win32,60.24096386,3,2,5,,,,,,,,4,08,,,,,,,,,,,,,2,4.242,0,,,,,,-0.076851809,-0.243518547,1,0,0,4.2419,Basalt_rect,4,0,4,0,1,
66751182f21224f506c8d043,SCR,2024-06-24_16h32.48.834,LearnStrategy,2023.2.3,Win32,60.24096386,3,2,6,,,,,,,,2,16,,,,,,,,,,,,,4,1.329,0,,,,,,0.407407407,-0.25,1,0,0,1.3288,Gabbro_rect,5,0,5,0,1,
66751182f21224f506c8d043,SCR,2024-06-24_16h32.48.834,LearnStrategy,2023.2.3,Win32,60.24096386,3,2,7,,,,,,,,8,02,,,,,,,,,,,,,8,2.578,1,,,,,,0.397222307,-0.407407407,1,0,0,2.5778,Pumice_rect,6,0,6,0,1,
66751182f21224f506c8d043,SCR,2024-06-24_16h32.48.834,LearnStrategy,2023.2.3,Win32,60.24096386,3,2,8,,,,,,,,8,13,,,,,,,,,,,,,8,1.288,1,,,,,,0.375925982,-0.397222236,1,0,0,1.2879,Pumice_rect,7,0,7,0,1,
66751182f21224f506c8d043,SCR,2024-06-24_16h32.48.834,LearnStrategy,2023.2.3,Win32,60.24096386,3,2,9,,,,,,,,6,12,,,,,,,,,,,,,6,1.888,1,,,,,,-0.155555513,-0.406481496,1,0,0,1.8875,Pegmatite_rect,8,0,8,0,1,
66751182f21224f506c8d043,SCR,2024-06-24_16h32.48.834,LearnStrategy,2023.2.3,Win32,60.24096386,3,2,10,,,,,,,,6,10,,,,,,,,,,,,,7,1.216,0,,,,,,0.15370369,-0.411111125,1,0,0,1.2157,Peridotite_rect,9,0,9,0,1,
66751182f21224f506c8d043,SCR,2024-06-24_16h32.48.834,LearnStrategy,2023.2.3,Win32,60.24096386,3,2,11,,,,,,,,1,07,,,,,,,,,,,,,1,4.919,1,,,,,,-0.351851852,-0.251851894,1,0,0,4.9195,Andesite_rect,10,0,10,0,1,
66751182f21224f506c8d043,SCR,2024-06-24_16h32.48.834,LearnStrategy,2023.2.3,Win32,60.24096386,3,2,12,,,,,,,,2,02,,,,,,,,,,,,,2,2.246,1,,,,,,-0.10092594,-0.262962977,1,0,0,2.2463,Basalt_rect,11,0,11,0,1,
66751182f21224f506c8d043,SCR,2024-06-24_16h32.48.834,LearnStrategy,2023.2.3,Win32,60.24096386,3,2,13,,,,,,,,3,07,,,,,,,,,,,,,3,4.376,1,,,,,,0.089814857,-0.241666653,1,0,0,4.376,Diorite_rect,12,0,12,0,1,
66751182f21224f506c8d043,SCR,2024-06-24_16h32.48.834,LearnStrategy,2023.2.3,Win32,60.24096386,3,2,14,,,,,,,,5,02,,,,,,,,,,,,,5,2.19,1,,,,,,-0.361111111,-0.40370369,1,0,0,2.1896,Obsidian_rect,13,0,13,0,1,
66751182f21224f506c8d043,SCR,2024-06-24_16h32.48.834,LearnStrategy,2023.2.3,Win32,60.24096386,3,2,15,,,,,,,,7,12,,,,,,,,,,,,,7,1.474,1,,,,,,0.121296282,-0.388888889,1,0,0,1.4741,Peridotite_rect,14,0,14,0,1,
66751182f21224f506c8d043,SCR,2024-06-24_16h32.48.834,LearnStrategy,2023.2.3,Win32,60.24096386,3,2,16,,,,,,,,5,16,,,,,,,,,,,,,5,1.441,1,,,,,,-0.341666645,-0.400000042,1,0,0,1.4414,Obsidian_rect,15,0,15,0,1,
66751182f21224f506c8d043,SCR,2024-06-24_16h32.48.834,LearnStrategy,2023.2.3,Win32,60.24096386,4,1,1,0.550000085,0.360185182,1,0,0,1.2524,Basalt_11,2,11,6,8,1.252,2,11,0.375925982,-0.250925912,1,0,0,3.1916,Gabbro_rect,4,3.192,0,0,0,0,0,1,,,,,,,,,,,,,
66751182f21224f506c8d043,SCR,2024-06-24_16h32.48.834,LearnStrategy,2023.2.3,Win32,60.24096386,4,1,2,0.531481566,0.227777781,1,0,0,1.444,Basalt_12,2,12,5,8,1.444,2,12,-0.159259231,-0.242592635,1,0,0,1.3421,Basalt_rect,2,1.342,1,1,0,1,0,1,,,,,,,,,,,,,
66751182f21224f506c8d043,SCR,2024-06-24_16h32.48.834,LearnStrategy,2023.2.3,Win32,60.24096386,4,1,3,0.248148176,-0.285185213,1,0,0,1.0281,Obsidian_07,5,07,2,6,1.028,5,07,-0.395370377,-0.410185213,1,0,0,2.4142,Obsidian_rect,5,2.414,1,2,0,2,0,1,,,,,,,,,,,,,
66751182f21224f506c8d043,SCR,2024-06-24_16h32.48.834,LearnStrategy,2023.2.3,Win32,60.24096386,4,1,4,-0.06759255,-0.077777792,1,0,0,0.8784,Pumice_09,8,09,3,4,0.878,8,09,0.387037065,-0.402777778,1,0,0,1.0702,Pumice_rect,8,1.07,1,3,0,3,0,1,,,,,,,,,,,,,
66751182f21224f506c8d043,SCR,2024-06-24_16h32.48.834,LearnStrategy,2023.2.3,Win32,60.24096386,4,1,5,-0.558333326,-0.405555584,1,0,0,1.9945,Gabbro_15,4,15,1,1,1.995,4,15,0.350000028,-0.235185199,1,0,0,2.8703,Gabbro_rect,4,2.87,1,4,0,4,0,1,,,,,,,,,,,,,
66751182f21224f506c8d043,SCR,2024-06-24_16h32.48.834,LearnStrategy,2023.2.3,Win32,60.24096386,4,1,6,0.22592594,-0.108333376,1,0,0,0.9474,Peridotite_05,7,05,3,6,0.947,7,05,0.117592635,-0.418518561,1,0,0,2.1662,Peridotite_rect,7,2.166,1,5,0,5,0,1,,,,,,,,,,,,,
66751182f21224f506c8d043,SCR,2024-06-24_16h32.48.834,LearnStrategy,2023.2.3,Win32,60.24096386,4,1,7,0.267592607,-0.388888889,1,0,0,0.9292,Peridotite_02,7,02,1,6,0.929,7,02,0.143518519,-0.402777778,1,0,0,1.1823,Peridotite_rect,7,1.182,1,6,0,6,0,1,,,,,,,,,,,,,
66751182f21224f506c8d043,SCR,2024-06-24_16h32.48.834,LearnStrategy,2023.2.3,Win32,60.24096386,4,1,8,0.089814857,0.26666666,1,0,0,1.0125,Pegmatite_16,6,16,5,5,1.012,6,16,-0.109259217,-0.40370369,1,0,0,2.0683,Pegmatite_rect,6,2.068,1,7,0,7,0,1,,,,,,,,,,,,,
66751182f21224f506c8d043,SCR,2024-06-24_16h32.48.834,LearnStrategy,2023.2.3,Win32,60.24096386,4,1,9,-0.520370377,0.230555552,1,0,0,1.2292,Gabbro_03,4,03,5,1,1.229,4,03,0.159259302,-0.243518547,1,0,0,2.5502,Diorite_rect,3,2.55,0,8,0,8,0,1,,,,,,,,,,,,,
66751182f21224f506c8d043,SCR,2024-06-24_16h32.48.834,LearnStrategy,2023.2.3,Win32,60.24096386,4,1,10,-0.51666666,-0.375,1,0,0,1.8135,Gabbro_15,4,15,1,1,1.813,4,15,0.363888917,-0.263888889,1,0,0,2.0032,Gabbro_rect,4,2.003,1,9,0,9,0,1,,,,,,,,,,,,,
66751182f21224f506c8d043,SCR,2024-06-24_16h32.48.834,LearnStrategy,2023.2.3,Win32,60.24096386,4,1,11,0.3648149,-0.234259288,1,0,0,1.6271,Diorite_11,3,11,2,7,1.627,3,11,0.100000028,-0.25462963,1,0,0,3.0371,Diorite_rect,3,3.037,1,10,0,10,0,1,,,,,,,,,,,,,
66751182f21224f506c8d043,SCR,2024-06-24_16h32.48.834,LearnStrategy,2023.2.3,Win32,60.24096386,4,1,12,-0.351851852,0.391666668,1,0,0,1.456,Andesite_05,1,05,6,2,1.456,1,05,0.079629616,-0.258333347,1,0,0,1.8031,Diorite_rect,3,1.803,0,11,0,11,0,1,,,,,,,,,,,,,
66751182f21224f506c8d043,SCR,2024-06-24_16h32.48.834,LearnStrategy,2023.2.3,Win32,60.24096386,4,1,13,-0.044444402,0.088888875,1,0,0,0.8105,Gabbro_10,4,10,4,4,0.811,4,10,-0.094444416,-0.257407436,1,0,0,1.8304,Basalt_rect,2,1.83,0,12,0,12,0,1,,,,,,,,,,,,,
66751182f21224f506c8d043,SCR,2024-06-24_16h32.48.834,LearnStrategy,2023.2.3,Win32,60.24096386,4,1,14,-0.078703704,-0.428703732,1,0,0,1.5884,Pegmatite_09,6,09,1,4,1.588,6,09,0.141666695,-0.402777778,1,0,0,1.1741,Peridotite_rect,7,1.174,0,13,0,13,0,1,,,,,,,,,,,,,
66751182f21224f506c8d043,SCR,2024-06-24_16h32.48.834,LearnStrategy,2023.2.3,Win32,60.24096386,4,1,15,-0.24537037,0.102777764,1,0,0,1.5168,Andesite_03,1,03,4,3,1.517,1,03,-0.087037051,-0.25,1,0,0,1.5309,Basalt_rect,2,1.531,0,14,0,14,0,1,,,,,,,,,,,,,
66751182f21224f506c8d043,SCR,2024-06-24_16h32.48.834,LearnStrategy,2023.2.3,Win32,60.24096386,4,1,16,-0.567592586,-0.240740741,1,0,0,1.0464,Basalt_06,2,06,2,1,1.046,2,06,-0.130555541,-0.239814829,1,0,0,1.2928,Basalt_rect,2,1.293,1,15,0,15,0,1,,,,,,,,,,,,,
66751182f21224f506c8d043,SCR,2024-06-24_16h32.48.834,LearnStrategy,2023.2.3,Win32,60.24096386,4,2,1,,,,,,,,4,05,,,,,,,,,,,,,4,7.592,1,,,,,,0.32685188,-0.257407436,1,0,0,7.5919,Gabbro_rect,0,0,0,0,1,
66751182f21224f506c8d043,SCR,2024-06-24_16h32.48.834,LearnStrategy,2023.2.3,Win32,60.24096386,4,2,2,,,,,,,,7,12,,,,,,,,,,,,,7,3.644,1,,,,,,0.106481481,-0.382407436,1,0,0,3.6438,Peridotite_rect,1,0,1,0,1,
66751182f21224f506c8d043,SCR,2024-06-24_16h32.48.834,LearnStrategy,2023.2.3,Win32,60.24096386,4,2,3,,,,,,,,7,15,,,,,,,,,,,,,7,1.115,1,,,,,,0.112963005,-0.396296325,1,0,0,1.1151,Peridotite_rect,2,0,2,0,1,
66751182f21224f506c8d043,SCR,2024-06-24_16h32.48.834,LearnStrategy,2023.2.3,Win32,60.24096386,4,2,4,,,,,,,,5,14,,,,,,,,,,,,,5,1.368,1,,,,,,-0.431481467,-0.388888889,1,0,0,1.3679,Obsidian_rect,3,0,3,0,1,
66751182f21224f506c8d043,SCR,2024-06-24_16h32.48.834,LearnStrategy,2023.2.3,Win32,60.24096386,4,2,5,,,,,,,,8,04,,,,,,,,,,,,,8,1.302,1,,,,,,0.430555556,-0.383333347,1,0,0,1.3017,Pumice_rect,4,0,4,0,1,
66751182f21224f506c8d043,SCR,2024-06-24_16h32.48.834,LearnStrategy,2023.2.3,Win32,60.24096386,4,2,6,,,,,,,,8,08,,,,,,,,,,,,,8,1.231,1,,,,,,0.368518547,-0.397222236,1,0,0,1.2314,Pumice_rect,5,0,5,0,1,
66751182f21224f506c8d043,SCR,2024-06-24_16h32.48.834,LearnStrategy,2023.2.3,Win32,60.24096386,4,2,7,,,,,,,,6,10,,,,,,,,,,,,,6,2.735,1,,,,,,-0.080555527,-0.384259259,1,0,0,2.7354,Pegmatite_rect,6,0,6,0,1,
66751182f21224f506c8d043,SCR,2024-06-24_16h32.48.834,LearnStrategy,2023.2.3,Win32,60.24096386,4,2,8,,,,,,,,1,16,,,,,,,,,,,,,3,3.412,0,,,,,,0.12962963,-0.25,1,0,0,3.4119,Diorite_rect,7,0,7,0,1,
66751182f21224f506c8d043,SCR,2024-06-24_16h32.48.834,LearnStrategy,2023.2.3,Win32,60.24096386,4,2,9,,,,,,,,2,05,,,,,,,,,,,,,2,1.875,1,,,,,,-0.115740741,-0.260185171,1,0,0,1.8752,Basalt_rect,8,0,8,0,1,
66751182f21224f506c8d043,SCR,2024-06-24_16h32.48.834,LearnStrategy,2023.2.3,Win32,60.24096386,4,2,10,,,,,,,,5,16,,,,,,,,,,,,,5,1.508,1,,,,,,-0.339814822,-0.413888931,1,0,0,1.5078,Obsidian_rect,9,0,9,0,1,
66751182f21224f506c8d043,SCR,2024-06-24_16h32.48.834,LearnStrategy,2023.2.3,Win32,60.24096386,4,2,11,,,,,,,,3,08,,,,,,,,,,,,,1,3.88,0,,,,,,-0.397222201,-0.253703718,1,0,0,3.8802,Andesite_rect,10,0,10,0,1,
66751182f21224f506c8d043,SCR,2024-06-24_16h32.48.834,LearnStrategy,2023.2.3,Win32,60.24096386,4,2,12,,,,,,,,6,12,,,,,,,,,,,,,6,1.531,1,,,,,,-0.06759255,-0.389814801,1,0,0,1.5313,Pegmatite_rect,11,0,11,0,1,
66751182f21224f506c8d043,SCR,2024-06-24_16h32.48.834,LearnStrategy,2023.2.3,Win32,60.24096386,4,2,13,,,,,,,,4,09,,,,,,,,,,,,,2,6.223,0,,,,,,-0.081481439,-0.264814801,1,0,0,6.223,Basalt_rect,12,0,12,0,1,
66751182f21224f506c8d043,SCR,2024-06-24_16h32.48.834,LearnStrategy,2023.2.3,Win32,60.24096386,4,2,14,,,,,,,,2,04,,,,,,,,,,,,,2,3.084,1,,,,,,-0.127777735,-0.244444459,1,0,0,3.0838,Basalt_rect,13,0,13,0,1,
66751182f21224f506c8d043,SCR,2024-06-24_16h32.48.834,LearnStrategy,2023.2.3,Win32,60.24096386,4,2,15,,,,,,,,3,06,,,,,,,,,,,,,1,4.27,0,,,,,,-0.378703683,-0.253703718,1,0,0,4.2703,Andesite_rect,14,0,14,0,1,
66751182f21224f506c8d043,SCR,2024-06-24_16h32.48.834,LearnStrategy,2023.2.3,Win32,60.24096386,4,2,16,,,,,,,,1,11,,,,,,,,,,,,,7,4.175,0,,,,,,0.107407393,-0.402777778,1,0,0,4.1746,Peridotite_rect,15,0,15,0,1,
66751182f21224f506c8d043,SCR,2024-06-24_16h32.48.834,LearnStrategy,2023.2.3,Win32,60.24096386,5,1,1,0.544444473,0.402777778,1,0,0,1.8125,Basalt_11,2,11,6,8,1.813,2,11,0.438888974,-0.266666695,1,0,0,1.292,Gabbro_rect,4,1.292,0,0,0,0,0,1,,,,,,,,,,,,,
66751182f21224f506c8d043,SCR,2024-06-24_16h32.48.834,LearnStrategy,2023.2.3,Win32,60.24096386,5,1,2,-0.381481489,0.408333328,1,0,0,1.5935,Andesite_05,1,05,6,2,1.594,1,05,0.122222265,-0.265740783,1,0,0,1.5079,Diorite_rect,3,1.508,0,1,0,1,0,1,,,,,,,,,,,,,
66751182f21224f506c8d043,SCR,2024-06-24_16h32.48.834,LearnStrategy,2023.2.3,Win32,60.24096386,5,1,3,0.23055557,-0.388888889,1,0,0,1.4477,Peridotite_02,7,02,1,6,1.448,7,02,0.133333347,-0.390740783,1,0,0,1.0296,Peridotite_rect,7,1.03,1,2,0,2,0,1,,,,,,,,,,,,,
66751182f21224f506c8d043,SCR,2024-06-24_16h32.48.834,LearnStrategy,2023.2.3,Win32,60.24096386,5,1,4,0.214814857,0.074074074,1,0,0,1.0301,Andesite_06,1,06,4,6,1.03,1,06,-0.337037016,-0.242592635,1,0,0,1.4889,Andesite_rect,1,1.489,1,3,0,3,0,1,,,,,,,,,,,,,
66751182f21224f506c8d043,SCR,2024-06-24_16h32.48.834,LearnStrategy,2023.2.3,Win32,60.24096386,5,1,5,-0.573148127,0.402777778,1,0,0,1.1467,Diorite_14,3,14,6,1,1.147,3,14,0.134259259,-0.244444459,1,0,0,1.2669,Diorite_rect,3,1.267,1,4,0,4,0,1,,,,,,,,,,,,,
66751182f21224f506c8d043,SCR,2024-06-24_16h32.48.834,LearnStrategy,2023.2.3,Win32,60.24096386,5,1,6,-0.082407422,0.121296282,1,0,0,0.9014,Gabbro_10,4,10,4,4,0.901,4,10,-0.086111069,-0.265740783,1,0,0,1.7455,Basalt_rect,2,1.745,0,5,0,5,0,1,,,,,,,,,,,,,
66751182f21224f506c8d043,SCR,2024-06-24_16h32.48.834,LearnStrategy,2023.2.3,Win32,60.24096386,5,1,7,0.430555556,0.276851848,1,0,0,1.5383,Pegmatite_08,6,08,5,7,1.538,6,08,-0.077777792,-0.384259259,1,0,0,1.0578,Pegmatite_rect,6,1.058,1,6,0,6,0,1,,,,,,,,,,,,,
66751182f21224f506c8d043,SCR,2024-06-24_16h32.48.834,LearnStrategy,2023.2.3,Win32,60.24096386,5,1,8,-0.564814815,0.426851851,1,0,0,1.346,Diorite_14,3,14,6,1,1.346,3,14,-0.340740734,-0.249074088,1,0,0,1.4715,Andesite_rect,1,1.471,0,7,0,7,0,1,,,,,,,,,,,,,
66751182f21224f506c8d043,SCR,2024-06-24_16h32.48.834,LearnStrategy,2023.2.3,Win32,60.24096386,5,1,9,0.069444444,-0.082407422,1,0,0,1.2947,Obsidian_10,5,10,3,5,1.295,5,10,-0.435185185,-0.386111153,1,0,0,1.0323,Obsidian_rect,5,1.032,1,8,0,8,0,1,,,,,,,,,,,,,
66751182f21224f506c8d043,SCR,2024-06-24_16h32.48.834,LearnStrategy,2023.2.3,Win32,60.24096386,5,1,10,-0.237037023,0.088888875,1,0,0,0.9642,Andesite_03,1,03,4,3,0.964,1,03,0.101851852,-0.241666653,1,0,0,2.4537,Diorite_rect,3,2.454,0,9,0,9,0,1,,,,,,,,,,,,,
66751182f21224f506c8d043,SCR,2024-06-24_16h32.48.834,LearnStrategy,2023.2.3,Win32,60.24096386,5,1,11,0.402777778,-0.258333347,1,0,0,1.2136,Diorite_11,3,11,2,7,1.214,3,11,0.092592593,-0.243518547,1,0,0,1.029,Diorite_rect,3,1.029,1,10,0,10,0,1,,,,,,,,,,,,,
66751182f21224f506c8d043,SCR,2024-06-24_16h32.48.834,LearnStrategy,2023.2.3,Win32,60.24096386,5,1,12,-0.594444434,0.24166667,1,0,0,1.0631,Gabbro_03,4,03,5,1,1.063,4,03,0.09629631,-0.231481481,1,0,0,1.3445,Diorite_rect,3,1.344,0,11,0,11,0,1,,,,,,,,,,,,,
66751182f21224f506c8d043,SCR,2024-06-24_16h32.48.834,LearnStrategy,2023.2.3,Win32,60.24096386,5,1,13,0.556481538,0.249074071,1,0,0,1.1499,Basalt_12,2,12,5,8,1.15,2,12,0.363888917,-0.237037023,1,0,0,2.3381,Gabbro_rect,4,2.338,0,12,0,12,0,1,,,,,,,,,,,,,
66751182f21224f506c8d043,SCR,2024-06-24_16h32.48.834,LearnStrategy,2023.2.3,Win32,60.24096386,5,1,14,-0.083333333,0.126851859,1,0,0,0.8103,Gabbro_10,4,10,4,4,0.81,4,10,0.375,-0.262962977,1,0,0,1.6507,Gabbro_rect,4,1.651,1,13,0,13,0,1,,,,,,,,,,,,,
66751182f21224f506c8d043,SCR,2024-06-24_16h32.48.834,LearnStrategy,2023.2.3,Win32,60.24096386,5,1,15,0.075925968,-0.273148148,1,0,0,1.2773,Andesite_04,1,04,2,5,1.277,1,04,0.082407422,-0.262962977,1,0,0,3.163,Diorite_rect,3,3.163,0,14,0,14,0,1,,,,,,,,,,,,,
66751182f21224f506c8d043,SCR,2024-06-24_16h32.48.834,LearnStrategy,2023.2.3,Win32,60.24096386,5,1,16,0.05277782,0.099999993,1,0,0,0.8105,Gabbro_16,4,16,4,5,0.81,4,16,0.430555556,-0.238888917,1,0,0,1.7821,Gabbro_rect,4,1.782,1,15,0,15,0,1,,,,,,,,,,,,,
66751182f21224f506c8d043,SCR,2024-06-24_16h32.48.834,LearnStrategy,2023.2.3,Win32,60.24096386,5,2,1,,,,,,,,5,12,,,,,,,,,,,,,5,4.198,1,,,,,,-0.3675926,-0.395370413,1,0,0,4.1977,Obsidian_rect,0,0,0,0,1,
66751182f21224f506c8d043,SCR,2024-06-24_16h32.48.834,LearnStrategy,2023.2.3,Win32,60.24096386,5,2,2,,,,,,,,2,10,,,,,,,,,,,,,4,3.257,0,,,,,,0.422222279,-0.243518547,1,0,0,3.2572,Gabbro_rect,1,0,1,0,1,
66751182f21224f506c8d043,SCR,2024-06-24_16h32.48.834,LearnStrategy,2023.2.3,Win32,60.24096386,5,2,3,,,,,,,,4,14,,,,,,,,,,,,,4,3.368,1,,,,,,0.347222222,-0.247222265,1,0,0,3.368,Gabbro_rect,2,0,2,0,1,
66751182f21224f506c8d043,SCR,2024-06-24_16h32.48.834,LearnStrategy,2023.2.3,Win32,60.24096386,5,2,4,,,,,,,,6,13,,,,,,,,,,,,,6,12.639,1,,,,,,-0.075925898,-0.390740783,1,0,0,12.6391,Pegmatite_rect,3,0,3,0,1,
66751182f21224f506c8d043,SCR,2024-06-24_16h32.48.834,LearnStrategy,2023.2.3,Win32,60.24096386,5,2,5,,,,,,,,7,14,,,,,,,,,,,,,7,2.467,1,,,,,,0.162962949,-0.420370384,1,0,0,2.467,Peridotite_rect,4,0,4,0,1,
66751182f21224f506c8d043,SCR,2024-06-24_16h32.48.834,LearnStrategy,2023.2.3,Win32,60.24096386,5,2,6,,,,,,,,3,07,,,,,,,,,,,,,1,4.069,0,,,,,,-0.385185171,-0.256481524,1,0,0,4.0687,Andesite_rect,5,0,5,0,1,
66751182f21224f506c8d043,SCR,2024-06-24_16h32.48.834,LearnStrategy,2023.2.3,Win32,60.24096386,5,2,7,,,,,,,,2,02,,,,,,,,,,,,,2,2.779,1,,,,,,-0.066666638,-0.259259259,1,0,0,2.7788,Basalt_rect,6,0,6,0,1,
66751182f21224f506c8d043,SCR,2024-06-24_16h32.48.834,LearnStrategy,2023.2.3,Win32,60.24096386,5,2,8,,,,,,,,8,13,,,,,,,,,,,,,8,1.441,1,,,,,,0.429629714,-0.383333347,1,0,0,1.4411,Pumice_rect,7,0,7,0,1,
66751182f21224f506c8d043,SCR,2024-06-24_16h32.48.834,LearnStrategy,2023.2.3,Win32,60.24096386,5,2,9,,,,,,,,1,14,,,,,,,,,,,,,1,7.353,1,,,,,,-0.360185164,-0.25462963,1,0,0,7.3533,Andesite_rect,8,0,8,0,1,
66751182f21224f506c8d043,SCR,2024-06-24_16h32.48.834,LearnStrategy,2023.2.3,Win32,60.24096386,5,2,10,,,,,,,,8,05,,,,,,,,,,,,,8,1.405,1,,,,,,0.393518519,-0.387037065,1,0,0,1.405,Pumice_rect,9,0,9,0,1,
66751182f21224f506c8d043,SCR,2024-06-24_16h32.48.834,LearnStrategy,2023.2.3,Win32,60.24096386,5,2,11,,,,,,,,6,03,,,,,,,,,,,,,6,1.402,1,,,,,,-0.094444416,-0.415740755,1,0,0,1.4015,Pegmatite_rect,10,0,10,0,1,
66751182f21224f506c8d043,SCR,2024-06-24_16h32.48.834,LearnStrategy,2023.2.3,Win32,60.24096386,5,2,12,,,,,,,,1,07,,,,,,,,,,,,,3,2.939,0,,,,,,0.083333333,-0.262037065,1,0,0,2.9394,Diorite_rect,11,0,11,0,1,
66751182f21224f506c8d043,SCR,2024-06-24_16h32.48.834,LearnStrategy,2023.2.3,Win32,60.24096386,5,2,13,,,,,,,,7,08,,,,,,,,,,,,,7,1.466,1,,,,,,0.101851852,-0.381481524,1,0,0,1.4658,Peridotite_rect,12,0,12,0,1,
66751182f21224f506c8d043,SCR,2024-06-24_16h32.48.834,LearnStrategy,2023.2.3,Win32,60.24096386,5,2,14,,,,,,,,5,08,,,,,,,,,,,,,5,1.41,1,,,,,,-0.344444452,-0.40370369,1,0,0,1.4097,Obsidian_rect,13,0,13,0,1,
66751182f21224f506c8d043,SCR,2024-06-24_16h32.48.834,LearnStrategy,2023.2.3,Win32,60.24096386,5,2,15,,,,,,,,3,13,,,,,,,,,,,,,3,3.6,1,,,,,,0.111111111,-0.232407393,1,0,0,3.6003,Diorite_rect,14,0,14,0,1,
66751182f21224f506c8d043,SCR,2024-06-24_16h32.48.834,LearnStrategy,2023.2.3,Win32,60.24096386,5,2,16,,,,,,,,4,12,,,,,,,,,,,,,2,1.556,0,,,,,,-0.082407422,-0.242592635,1,0,0,1.5557,Basalt_rect,15,0,15,0,1,
66751182f21224f506c8d043,SCR,2024-06-24_16h32.48.834,LearnStrategy,2023.2.3,Win32,60.24096386,6,1,1,-0.580555563,-0.397222236,1,0,0,1.2371,Gabbro_15,4,15,1,1,1.237,4,15,0.359259288,-0.253703718,1,0,0,4.6634,Gabbro_rect,4,4.663,1,0,0,0,0,1,,,,,,,,,,,,,
66751182f21224f506c8d043,SCR,2024-06-24_16h32.48.834,LearnStrategy,2023.2.3,Win32,60.24096386,6,1,2,0.088888875,0.422222217,1,0,0,1.5161,Basalt_08,2,08,6,5,1.516,2,08,-0.09629631,-0.248148176,1,0,0,1.9617,Basalt_rect,2,1.962,1,1,0,1,0,1,,,,,,,,,,,,,
66751182f21224f506c8d043,SCR,2024-06-24_16h32.48.834,LearnStrategy,2023.2.3,Win32,60.24096386,6,1,3,0.110185199,-0.10555557,1,0,0,0.8124,Obsidian_10,5,10,3,5,0.812,5,10,-0.385185171,-0.389814801,1,0,0,0.9807,Obsidian_rect,5,0.981,1,2,0,2,0,1,,,,,,,,,,,,,
66751182f21224f506c8d043,SCR,2024-06-24_16h32.48.834,LearnStrategy,2023.2.3,Win32,60.24096386,6,1,4,-0.560185185,0.064814815,1,0,0,1.0745,Peridotite_13,7,13,4,1,1.075,7,13,0.119444459,-0.390740783,1,0,0,1.0441,Peridotite_rect,7,1.044,1,3,0,3,0,1,,,,,,,,,,,,,
66751182f21224f506c8d043,SCR,2024-06-24_16h32.48.834,LearnStrategy,2023.2.3,Win32,60.24096386,6,1,5,-0.224074046,-0.412962949,1,0,0,1.262,Diorite_02,3,02,1,3,1.262,3,02,0.151851866,-0.238888917,1,0,0,6.3151,Diorite_rect,3,6.315,1,4,0,4,0,1,,,,,,,,,,,,,
66751182f21224f506c8d043,SCR,2024-06-24_16h32.48.834,LearnStrategy,2023.2.3,Win32,60.24096386,6,1,6,0.098148134,0.236111111,1,0,0,1.1238,Pegmatite_16,6,16,5,5,1.124,6,16,-0.104629587,-0.395370413,1,0,0,2.1159,Pegmatite_rect,6,2.116,1,5,0,5,0,1,,,,,,,,,,,,,
66751182f21224f506c8d043,SCR,2024-06-24_16h32.48.834,LearnStrategy,2023.2.3,Win32,60.24096386,6,1,7,0.375,-0.10092594,1,0,0,1.646,Andesite_09,1,09,3,7,1.646,1,09,-0.083333333,-0.241666653,1,0,0,1.7474,Basalt_rect,2,1.747,0,6,0,6,0,1,,,,,,,,,,,,,
66751182f21224f506c8d043,SCR,2024-06-24_16h32.48.834,LearnStrategy,2023.2.3,Win32,60.24096386,6,1,8,-0.562962956,-0.291666667,1,0,0,1.1783,Basalt_06,2,06,2,1,1.178,2,06,-0.108333305,-0.253703718,1,0,0,1.014,Basalt_rect,2,1.014,1,7,0,7,0,1,,,,,,,,,,,,,
66751182f21224f506c8d043,SCR,2024-06-24_16h32.48.834,LearnStrategy,2023.2.3,Win32,60.24096386,6,1,9,0.22129631,0.083333333,1,0,0,0.9966,Andesite_06,1,06,4,6,0.997,1,06,-0.361111111,-0.238888917,1,0,0,1.3143,Andesite_rect,1,1.314,1,8,0,8,0,1,,,,,,,,,,,,,
66751182f21224f506c8d043,SCR,2024-06-24_16h32.48.834,LearnStrategy,2023.2.3,Win32,60.24096386,6,1,10,-0.386111118,0.403703698,1,0,0,1.4767,Andesite_05,1,05,6,2,1.477,1,05,-0.407407407,-0.248148176,1,0,0,0.9673,Andesite_rect,1,0.967,1,9,0,9,0,1,,,,,,,,,,,,,
66751182f21224f506c8d043,SCR,2024-06-24_16h32.48.834,LearnStrategy,2023.2.3,Win32,60.24096386,6,1,11,-0.547222208,0.420370367,1,0,0,1.1775,Diorite_14,3,14,6,1,1.177,3,14,-0.419444437,-0.236111111,1,0,0,1.5346,Andesite_rect,1,1.535,0,10,0,10,0,1,,,,,,,,,,,,,
66751182f21224f506c8d043,SCR,2024-06-24_16h32.48.834,LearnStrategy,2023.2.3,Win32,60.24096386,6,1,12,-0.546296296,0.25,1,0,0,1.3634,Gabbro_03,4,03,5,1,1.363,4,03,-0.131481453,-0.255555541,1,0,0,4.2517,Basalt_rect,2,4.252,0,11,0,11,0,1,,,,,,,,,,,,,
66751182f21224f506c8d043,SCR,2024-06-24_16h32.48.834,LearnStrategy,2023.2.3,Win32,60.24096386,6,1,13,-0.357407393,-0.371296282,1,0,0,1.1885,Diorite_16,3,16,1,2,1.188,3,16,0.405555584,-0.257407436,1,0,0,2.1308,Gabbro_rect,4,2.131,0,12,0,12,0,1,,,,,,,,,,,,,
66751182f21224f506c8d043,SCR,2024-06-24_16h32.48.834,LearnStrategy,2023.2.3,Win32,60.24096386,6,1,14,0.564814815,0.230555552,1,0,0,1.2667,Basalt_12,2,12,5,8,1.267,2,12,-0.098148134,-0.25,1,0,0,2.6445,Basalt_rect,2,2.644,1,13,0,13,0,1,,,,,,,,,,,,,
66751182f21224f506c8d043,SCR,2024-06-24_16h32.48.834,LearnStrategy,2023.2.3,Win32,60.24096386,6,1,15,-0.525925919,0.239814811,1,0,0,1.2116,Gabbro_03,4,03,5,1,1.212,4,03,-0.341666645,-0.260185171,1,0,0,2.8572,Andesite_rect,1,2.857,0,14,0,14,0,1,,,,,,,,,,,,,
66751182f21224f506c8d043,SCR,2024-06-24_16h32.48.834,LearnStrategy,2023.2.3,Win32,60.24096386,6,1,16,0.241666653,0.083333333,1,0,0,1.0643,Andesite_06,1,06,4,6,1.064,1,06,0.341666751,-0.237037023,1,0,0,1.8532,Gabbro_rect,4,1.853,0,15,0,15,0,1,,,,,,,,,,,,,
66751182f21224f506c8d043,SCR,2024-06-24_16h32.48.834,LearnStrategy,2023.2.3,Win32,60.24096386,6,2,1,,,,,,,,6,05,,,,,,,,,,,,,6,2.191,1,,,,,,-0.161111125,-0.392592607,1,0,0,2.1907,Pegmatite_rect,0,0,0,0,1,
66751182f21224f506c8d043,SCR,2024-06-24_16h32.48.834,LearnStrategy,2023.2.3,Win32,60.24096386,6,2,2,,,,,,,,3,15,,,,,,,,,,,,,3,5.846,1,,,,,,0.102777764,-0.252777806,1,0,0,5.8463,Diorite_rect,1,0,1,0,1,
66751182f21224f506c8d043,SCR,2024-06-24_16h32.48.834,LearnStrategy,2023.2.3,Win32,60.24096386,6,2,3,,,,,,,,2,09,,,,,,,,,,,,,2,2.518,1,,,,,,-0.106481481,-0.244444459,1,0,0,2.5177,Basalt_rect,2,0,2,0,1,
66751182f21224f506c8d043,SCR,2024-06-24_16h32.48.834,LearnStrategy,2023.2.3,Win32,60.24096386,6,2,4,,,,,,,,7,16,,,,,,,,,,,,,7,1.558,1,,,,,,0.118518547,-0.398148148,1,0,0,1.5585,Peridotite_rect,3,0,3,0,1,
66751182f21224f506c8d043,SCR,2024-06-24_16h32.48.834,LearnStrategy,2023.2.3,Win32,60.24096386,6,2,5,,,,,,,,8,15,,,,,,,,,,,,,8,1.204,1,,,,,,0.396296325,-0.415740755,1,0,0,1.2041,Pumice_rect,4,0,4,0,1,
66751182f21224f506c8d043,SCR,2024-06-24_16h32.48.834,LearnStrategy,2023.2.3,Win32,60.24096386,6,2,6,,,,,,,,4,01,,,,,,,,,,,,,7,1.801,0,,,,,,0.151851866,-0.388888889,1,0,0,1.8006,Peridotite_rect,5,0,5,0,1,
66751182f21224f506c8d043,SCR,2024-06-24_16h32.48.834,LearnStrategy,2023.2.3,Win32,60.24096386,6,2,7,,,,,,,,6,07,,,,,,,,,,,,,6,1.222,1,,,,,,-0.078703704,-0.393518519,1,0,0,1.2222,Pegmatite_rect,6,0,6,0,1,
66751182f21224f506c8d043,SCR,2024-06-24_16h32.48.834,LearnStrategy,2023.2.3,Win32,60.24096386,6,2,8,,,,,,,,8,02,,,,,,,,,,,,,8,2.554,1,,,,,,0.377777806,-0.401851866,1,0,0,2.5537,Pumice_rect,7,0,7,0,1,
66751182f21224f506c8d043,SCR,2024-06-24_16h32.48.834,LearnStrategy,2023.2.3,Win32,60.24096386,6,2,9,,,,,,,,1,10,,,,,,,,,,,,,2,2.979,0,,,,,,-0.095370328,-0.253703718,1,0,0,2.9791,Basalt_rect,8,0,8,0,1,
66751182f21224f506c8d043,SCR,2024-06-24_16h32.48.834,LearnStrategy,2023.2.3,Win32,60.24096386,6,2,10,,,,,,,,5,02,,,,,,,,,,,,,5,1.374,1,,,,,,-0.353703711,-0.387962977,1,0,0,1.3744,Obsidian_rect,9,0,9,0,1,
66751182f21224f506c8d043,SCR,2024-06-24_16h32.48.834,LearnStrategy,2023.2.3,Win32,60.24096386,6,2,11,,,,,,,,1,01,,,,,,,,,,,,,4,2.738,0,,,,,,0.405555584,-0.243518547,1,0,0,2.7379,Gabbro_rect,10,0,10,0,1,
66751182f21224f506c8d043,SCR,2024-06-24_16h32.48.834,LearnStrategy,2023.2.3,Win32,60.24096386,6,2,12,,,,,,,,2,16,,,,,,,,,,,,,4,2.695,0,,,,,,0.372222194,-0.25,1,0,0,2.6945,Gabbro_rect,11,0,11,0,1,
66751182f21224f506c8d043,SCR,2024-06-24_16h32.48.834,LearnStrategy,2023.2.3,Win32,60.24096386,6,2,13,,,,,,,,4,08,,,,,,,,,,,,,2,6.406,0,,,,,,-0.071296268,-0.250925912,1,0,0,6.4057,Basalt_rect,12,0,12,0,1,
66751182f21224f506c8d043,SCR,2024-06-24_16h32.48.834,LearnStrategy,2023.2.3,Win32,60.24096386,6,2,14,,,,,,,,3,12,,,,,,,,,,,,,1,4.808,0,,,,,,-0.341666645,-0.238888917,1,0,0,4.808,Andesite_rect,13,0,13,0,1,
66751182f21224f506c8d043,SCR,2024-06-24_16h32.48.834,LearnStrategy,2023.2.3,Win32,60.24096386,6,2,15,,,,,,,,7,10,,,,,,,,,,,,,7,1.522,1,,,,,,0.086111139,-0.406481496,1,0,0,1.522,Peridotite_rect,14,0,14,0,1,
66751182f21224f506c8d043,SCR,2024-06-24_16h32.48.834,LearnStrategy,2023.2.3,Win32,60.24096386,6,2,16,,,,,,,,5,11,,,,,,,,,,,,,5,1.235,1,,,,,,-0.351851852,-0.39444443,1,0,0,1.2345,Obsidian_rect,15,0,15,0,1,
66751182f21224f506c8d043,SCR,2024-06-24_16h32.48.834,LearnStrategy,2023.2.3,Win32,60.24096386,7,1,1,0.380555612,-0.262962977,1,0,0,1.2138,Diorite_11,3,11,2,7,1.214,3,11,0.122222265,-0.247222265,1,0,0,2.6644,Diorite_rect,3,2.664,1,0,0,0,0,1,,,,,,,,,,,,,
66751182f21224f506c8d043,SCR,2024-06-24_16h32.48.834,LearnStrategy,2023.2.3,Win32,60.24096386,7,1,2,0.094444487,0.43611111,1,0,0,1.1474,Basalt_08,2,08,6,5,1.147,2,08,-0.089814787,-0.262037065,1,0,0,0.9199,Basalt_rect,2,0.92,1,1,0,1,0,1,,,,,,,,,,,,,
66751182f21224f506c8d043,SCR,2024-06-24_16h32.48.834,LearnStrategy,2023.2.3,Win32,60.24096386,7,1,3,0.530555584,0.38148148,1,0,0,1.1551,Basalt_11,2,11,6,8,1.155,2,11,0.391666695,-0.242592635,1,0,0,1.8465,Gabbro_rect,4,1.847,0,2,0,2,0,1,,,,,,,,,,,,,
66751182f21224f506c8d043,SCR,2024-06-24_16h32.48.834,LearnStrategy,2023.2.3,Win32,60.24096386,7,1,4,0.237963005,0.11296297,1,0,0,1.1414,Andesite_06,1,06,4,6,1.141,1,06,0.100000028,-0.258333347,1,0,0,1.1155,Diorite_rect,3,1.115,0,3,0,3,0,1,,,,,,,,,,,,,
66751182f21224f506c8d043,SCR,2024-06-24_16h32.48.834,LearnStrategy,2023.2.3,Win32,60.24096386,7,1,5,-0.521296289,0.217592593,1,0,0,1.3215,Gabbro_03,4,03,5,1,1.322,4,03,-0.410185178,-0.264814801,1,0,0,1.0721,Andesite_rect,1,1.072,0,4,0,4,0,1,,,,,,,,,,,,,
66751182f21224f506c8d043,SCR,2024-06-24_16h32.48.834,LearnStrategy,2023.2.3,Win32,60.24096386,7,1,6,-0.237037023,0.2574074,1,0,0,1.0242,Diorite_09,3,09,5,3,1.024,3,09,0.066666709,-0.262962977,1,0,0,2.4963,Diorite_rect,3,2.496,1,5,0,5,0,1,,,,,,,,,,,,,
66751182f21224f506c8d043,SCR,2024-06-24_16h32.48.834,LearnStrategy,2023.2.3,Win32,60.24096386,7,1,7,-0.070370356,0.278703707,1,0,0,1.4647,Andesite_02,1,02,5,4,1.465,1,02,-0.343518504,-0.267592607,1,0,0,1.4556,Andesite_rect,1,1.456,1,6,0,6,0,1,,,,,,,,,,,,,
66751182f21224f506c8d043,SCR,2024-06-24_16h32.48.834,LearnStrategy,2023.2.3,Win32,60.24096386,7,1,8,0.083333333,0.102777764,1,0,0,0.8631,Gabbro_16,4,16,4,5,0.863,4,16,0.343518575,-0.244444459,1,0,0,1.846,Gabbro_rect,4,1.846,1,7,0,7,0,1,,,,,,,,,,,,,
66751182f21224f506c8d043,SCR,2024-06-24_16h32.48.834,LearnStrategy,2023.2.3,Win32,60.24096386,7,1,9,0.229629658,-0.401851866,1,0,0,1.3741,Peridotite_02,7,02,1,6,1.374,7,02,0.180555556,-0.392592607,1,0,0,0.8782,Peridotite_rect,7,0.878,1,8,0,8,0,1,,,,,,,,,,,,,
66751182f21224f506c8d043,SCR,2024-06-24_16h32.48.834,LearnStrategy,2023.2.3,Win32,60.24096386,7,1,10,-0.364814794,-0.267592607,1,0,0,1.2245,Gabbro_13,4,13,2,2,1.225,4,13,0.335185157,-0.244444459,1,0,0,1.6014,Gabbro_rect,4,1.601,1,9,0,9,0,1,,,,,,,,,,,,,
66751182f21224f506c8d043,SCR,2024-06-24_16h32.48.834,LearnStrategy,2023.2.3,Win32,60.24096386,7,1,11,0.399074131,-0.242592635,1,0,0,1.0373,Diorite_11,3,11,2,7,1.037,3,11,0.100000028,-0.267592607,1,0,0,1.7135,Diorite_rect,3,1.714,1,10,0,10,0,1,,,,,,,,,,,,,
66751182f21224f506c8d043,SCR,2024-06-24_16h32.48.834,LearnStrategy,2023.2.3,Win32,60.24096386,7,1,12,0.539814843,0.118518511,1,0,0,1.2312,Basalt_01,2,01,4,8,1.231,2,01,-0.148148148,-0.246296282,1,0,0,1.3051,Basalt_rect,2,1.305,1,11,0,11,0,1,,,,,,,,,,,,,
66751182f21224f506c8d043,SCR,2024-06-24_16h32.48.834,LearnStrategy,2023.2.3,Win32,60.24096386,7,1,13,0.243518547,0.433333331,1,0,0,1.3456,Pegmatite_11,6,11,6,6,1.346,6,11,-0.123148106,-0.410185213,1,0,0,1.9573,Pegmatite_rect,6,1.957,1,12,0,12,0,1,,,,,,,,,,,,,
66751182f21224f506c8d043,SCR,2024-06-24_16h32.48.834,LearnStrategy,2023.2.3,Win32,60.24096386,7,1,14,-0.402777778,0.375,1,0,0,1.3582,Andesite_05,1,05,6,2,1.358,1,05,0.15370369,-0.233333376,1,0,0,2.6861,Diorite_rect,3,2.686,0,13,0,13,0,1,,,,,,,,,,,,,
66751182f21224f506c8d043,SCR,2024-06-24_16h32.48.834,LearnStrategy,2023.2.3,Win32,60.24096386,7,1,15,0.061111097,-0.272222236,1,0,0,1.2832,Andesite_04,1,04,2,5,1.283,1,04,0.071296339,-0.25462963,1,0,0,1.4916,Diorite_rect,3,1.492,0,14,0,14,0,1,,,,,,,,,,,,,
66751182f21224f506c8d043,SCR,2024-06-24_16h32.48.834,LearnStrategy,2023.2.3,Win32,60.24096386,7,1,16,-0.076851809,0.070370356,1,0,0,0.9982,Gabbro_10,4,10,4,4,0.998,4,10,-0.102777764,-0.238888917,1,0,0,1.482,Basalt_rect,2,1.482,0,15,0,15,0,1,,,,,,,,,,,,,
66751182f21224f506c8d043,SCR,2024-06-24_16h32.48.834,LearnStrategy,2023.2.3,Win32,60.24096386,7,2,1,,,,,,,,6,12,,,,,,,,,,,,,6,1.786,1,,,,,,-0.064814815,-0.396296325,1,0,0,1.7858,Pegmatite_rect,0,0,0,0,1,
66751182f21224f506c8d043,SCR,2024-06-24_16h32.48.834,LearnStrategy,2023.2.3,Win32,60.24096386,7,2,2,,,,,,,,1,16,,,,,,,,,,,,,1,4.622,1,,,,,,-0.375925912,-0.250925912,1,0,0,4.6219,Andesite_rect,1,0,1,0,1,
66751182f21224f506c8d043,SCR,2024-06-24_16h32.48.834,LearnStrategy,2023.2.3,Win32,60.24096386,7,2,3,,,,,,,,2,09,,,,,,,,,,,,,2,2.009,1,,,,,,-0.082407422,-0.249074088,1,0,0,2.0094,Basalt_rect,2,0,2,0,1,
66751182f21224f506c8d043,SCR,2024-06-24_16h32.48.834,LearnStrategy,2023.2.3,Win32,60.24096386,7,2,4,,,,,,,,5,12,,,,,,,,,,,,,5,1.552,1,,,,,,-0.304629608,-0.393518519,1,0,0,1.5521,Obsidian_rect,3,0,3,0,1,
66751182f21224f506c8d043,SCR,2024-06-24_16h32.48.834,LearnStrategy,2023.2.3,Win32,60.24096386,7,2,5,,,,,,,,5,14,,,,,,,,,,,,,5,2.142,1,,,,,,-0.375,-0.409259302,1,0,0,2.1424,Obsidian_rect,4,0,4,0,1,
66751182f21224f506c8d043,SCR,2024-06-24_16h32.48.834,LearnStrategy,2023.2.3,Win32,60.24096386,7,2,6,,,,,,,,2,05,,,,,,,,,,,,,2,3.665,1,,,,,,-0.064814815,-0.234259288,1,0,0,3.6654,Basalt_rect,5,0,5,0,1,
66751182f21224f506c8d043,SCR,2024-06-24_16h32.48.834,LearnStrategy,2023.2.3,Win32,60.24096386,7,2,7,,,,,,,,7,16,,,,,,,,,,,,,7,1.64,1,,,,,,0.116666653,-0.389814801,1,0,0,1.6399,Peridotite_rect,6,0,6,0,1,
66751182f21224f506c8d043,SCR,2024-06-24_16h32.48.834,LearnStrategy,2023.2.3,Win32,60.24096386,7,2,8,,,,,,,,1,14,,,,,,,,,,,,,3,2.81,0,,,,,,0.05277782,-0.24537037,1,0,0,2.8103,Diorite_rect,7,0,7,0,1,
66751182f21224f506c8d043,SCR,2024-06-24_16h32.48.834,LearnStrategy,2023.2.3,Win32,60.24096386,7,2,9,,,,,,,,4,12,,,,,,,,,,,,,2,2.381,0,,,,,,-0.059259273,-0.261111153,1,0,0,2.381,Basalt_rect,8,0,8,0,1,
66751182f21224f506c8d043,SCR,2024-06-24_16h32.48.834,LearnStrategy,2023.2.3,Win32,60.24096386,7,2,10,,,,,,,,4,01,,,,,,,,,,,,,7,1.514,0,,,,,,0.132407436,-0.414814843,1,0,0,1.5142,Peridotite_rect,9,0,9,0,1,
66751182f21224f506c8d043,SCR,2024-06-24_16h32.48.834,LearnStrategy,2023.2.3,Win32,60.24096386,7,2,11,,,,,,,,8,05,,,,,,,,,,,,,8,1.3,1,,,,,,0.337037122,-0.397222236,1,0,0,1.2997,Pumice_rect,10,0,10,0,1,
66751182f21224f506c8d043,SCR,2024-06-24_16h32.48.834,LearnStrategy,2023.2.3,Win32,60.24096386,7,2,12,,,,,,,,3,08,,,,,,,,,,,,,1,4.895,0,,,,,,-0.388888889,-0.247222265,1,0,0,4.8955,Andesite_rect,11,0,11,0,1,
66751182f21224f506c8d043,SCR,2024-06-24_16h32.48.834,LearnStrategy,2023.2.3,Win32,60.24096386,7,2,13,,,,,,,,8,15,,,,,,,,,,,,,8,1.695,1,,,,,,0.398148148,-0.412037037,1,0,0,1.6955,Pumice_rect,12,0,12,0,1,
66751182f21224f506c8d043,SCR,2024-06-24_16h32.48.834,LearnStrategy,2023.2.3,Win32,60.24096386,7,2,14,,,,,,,,6,05,,,,,,,,,,,,,6,2.326,1,,,,,,-0.139814801,-0.39907406,1,0,0,2.3257,Pegmatite_rect,13,0,13,0,1,
66751182f21224f506c8d043,SCR,2024-06-24_16h32.48.834,LearnStrategy,2023.2.3,Win32,60.24096386,7,2,15,,,,,,,,3,06,,,,,,,,,,,,,3,2.54,1,,,,,,0.082407422,-0.250925912,1,0,0,2.5399,Diorite_rect,14,0,14,0,1,
66751182f21224f506c8d043,SCR,2024-06-24_16h32.48.834,LearnStrategy,2023.2.3,Win32,60.24096386,7,2,16,,,,,,,,7,12,,,,,,,,,,,,,7,1.449,1,,,,,,0.106481481,-0.40370369,1,0,0,1.4487,Peridotite_rect,15,0,15,0,1,
66751182f21224f506c8d043,SCR,2024-06-24_16h32.48.834,LearnStrategy,2023.2.3,Win32,60.24096386,8,1,1,-0.196296268,-0.383333347,1,0,0,1.3117,Diorite_02,3,02,1,3,1.312,3,02,0.087037051,-0.260185171,1,0,0,2.0926,Diorite_rect,3,2.093,1,0,0,0,0,1,,,,,,,,,,,,,
66751182f21224f506c8d043,SCR,2024-06-24_16h32.48.834,LearnStrategy,2023.2.3,Win32,60.24096386,8,1,2,-0.587037016,-0.416666667,1,0,0,1.0825,Gabbro_15,4,15,1,1,1.082,4,15,0.395370342,-0.231481481,1,0,0,2.287,Gabbro_rect,4,2.287,1,1,0,1,0,1,,,,,,,,,,,,,
66751182f21224f506c8d043,SCR,2024-06-24_16h32.48.834,LearnStrategy,2023.2.3,Win32,60.24096386,8,1,3,-0.070370356,0.406481478,1,0,0,1.2307,Basalt_14,2,14,6,4,1.231,2,14,0.388888889,-0.234259288,1,0,0,1.036,Gabbro_rect,4,1.036,0,2,0,2,0,1,,,,,,,,,,,,,
66751182f21224f506c8d043,SCR,2024-06-24_16h32.48.834,LearnStrategy,2023.2.3,Win32,60.24096386,8,1,4,-0.41574072,-0.263888889,1,0,0,1.1596,Gabbro_13,4,13,2,2,1.16,4,13,0.372222194,-0.242592635,1,0,0,2.9658,Gabbro_rect,4,2.966,1,3,0,3,0,1,,,,,,,,,,,,,
66751182f21224f506c8d043,SCR,2024-06-24_16h32.48.834,LearnStrategy,2023.2.3,Win32,60.24096386,8,1,5,-0.52870369,0.431481481,1,0,0,1.23,Diorite_14,3,14,6,1,1.23,3,14,-0.3824074,-0.257407436,1,0,0,1.7034,Andesite_rect,1,1.703,0,4,0,4,0,1,,,,,,,,,,,,,
66751182f21224f506c8d043,SCR,2024-06-24_16h32.48.834,LearnStrategy,2023.2.3,Win32,60.24096386,8,1,6,0.36018527,-0.092592593,1,0,0,4.9758,Andesite_09,1,09,3,7,4.976,1,09,-0.071296268,-0.24537037,1,0,0,2.097,Basalt_rect,2,2.097,0,5,0,5,0,1,,,,,,,,,,,,,
66751182f21224f506c8d043,SCR,2024-06-24_16h32.48.834,LearnStrategy,2023.2.3,Win32,60.24096386,8,1,7,-0.247222194,-0.256481524,1,0,0,1.0951,Pegmatite_15,6,15,2,3,1.095,6,15,-0.099074046,-0.386111153,1,0,0,1.0527,Pegmatite_rect,6,1.053,1,6,0,6,0,1,,,,,,,,,,,,,
66751182f21224f506c8d043,SCR,2024-06-24_16h32.48.834,LearnStrategy,2023.2.3,Win32,60.24096386,8,1,8,0.223148134,-0.08888891,1,0,0,1.1433,Peridotite_05,7,05,3,6,1.143,7,05,0.090740769,-0.408333319,1,0,0,1.5484,Peridotite_rect,7,1.548,1,7,0,7,0,1,,,,,,,,,,,,,
66751182f21224f506c8d043,SCR,2024-06-24_16h32.48.834,LearnStrategy,2023.2.3,Win32,60.24096386,8,1,9,-0.594444434,0.255555559,1,0,0,1.376,Gabbro_03,4,03,5,1,1.376,4,03,0.102777764,-0.247222265,1,0,0,1.9632,Diorite_rect,3,1.963,0,8,0,8,0,1,,,,,,,,,,,,,
66751182f21224f506c8d043,SCR,2024-06-24_16h32.48.834,LearnStrategy,2023.2.3,Win32,60.24096386,8,1,10,-0.241666653,0.086111104,1,0,0,0.9455,Andesite_03,1,03,4,3,0.946,1,03,-0.123148106,-0.251851894,1,0,0,4.4312,Basalt_rect,2,4.431,0,9,0,9,0,1,,,,,,,,,,,,,
66751182f21224f506c8d043,SCR,2024-06-24_16h32.48.834,LearnStrategy,2023.2.3,Win32,60.24096386,8,1,11,0.530555584,-0.239814829,1,0,0,1.3191,Gabbro_11,4,11,2,8,1.319,4,11,-0.082407422,-0.247222265,1,0,0,1.3894,Basalt_rect,2,1.389,0,10,0,10,0,1,,,,,,,,,,,,,
66751182f21224f506c8d043,SCR,2024-06-24_16h32.48.834,LearnStrategy,2023.2.3,Win32,60.24096386,8,1,12,-0.566666674,-0.242592635,1,0,0,1.3619,Basalt_06,2,06,2,1,1.362,2,06,-0.126851824,-0.257407436,1,0,0,1.1003,Basalt_rect,2,1.1,1,11,0,11,0,1,,,,,,,,,,,,,
66751182f21224f506c8d043,SCR,2024-06-24_16h32.48.834,LearnStrategy,2023.2.3,Win32,60.24096386,8,1,13,0.395370342,-0.377777806,1,0,0,1.6065,Pumice_14,8,14,1,7,1.606,8,14,0.407407407,-0.398148148,1,0,0,0.7025,Pumice_rect,8,0.703,1,12,0,12,0,1,,,,,,,,,,,,,
66751182f21224f506c8d043,SCR,2024-06-24_16h32.48.834,LearnStrategy,2023.2.3,Win32,60.24096386,8,1,14,-0.360185164,0.394444439,1,0,0,1.3126,Andesite_05,1,05,6,2,1.313,1,05,0.110185199,-0.258333347,1,0,0,1.915,Diorite_rect,3,1.915,0,13,0,13,0,1,,,,,,,,,,,,,
66751182f21224f506c8d043,SCR,2024-06-24_16h32.48.834,LearnStrategy,2023.2.3,Win32,60.24096386,8,1,15,-0.381481489,0.425925926,1,0,0,1.2115,Andesite_05,1,05,6,2,1.212,1,05,-0.361111111,-0.24537037,1,0,0,1.1344,Andesite_rect,1,1.134,1,14,0,14,0,1,,,,,,,,,,,,,
66751182f21224f506c8d043,SCR,2024-06-24_16h32.48.834,LearnStrategy,2023.2.3,Win32,60.24096386,8,1,16,-0.385185171,-0.39907406,1,0,0,1.4923,Diorite_16,3,16,1,2,1.492,3,16,-0.366666653,-0.249074088,1,0,0,2.1237,Andesite_rect,1,2.124,0,15,0,15,0,1,,,,,,,,,,,,,
66751182f21224f506c8d043,SCR,2024-06-24_16h32.48.834,LearnStrategy,2023.2.3,Win32,60.24096386,8,2,1,,,,,,,,3,12,,,,,,,,,,,,,3,4.557,1,,,,,,0.045370384,-0.264814801,1,0,0,4.5567,Diorite_rect,0,0,0,0,1,
66751182f21224f506c8d043,SCR,2024-06-24_16h32.48.834,LearnStrategy,2023.2.3,Win32,60.24096386,8,2,2,,,,,,,,6,07,,,,,,,,,,,,,6,1.436,1,,,,,,-0.101851852,-0.409259302,1,0,0,1.436,Pegmatite_rect,1,0,1,0,1,
66751182f21224f506c8d043,SCR,2024-06-24_16h32.48.834,LearnStrategy,2023.2.3,Win32,60.24096386,8,2,3,,,,,,,,5,08,,,,,,,,,,,,,5,1.337,1,,,,,,-0.373148141,-0.392592607,1,0,0,1.3372,Obsidian_rect,2,0,2,0,1,
66751182f21224f506c8d043,SCR,2024-06-24_16h32.48.834,LearnStrategy,2023.2.3,Win32,60.24096386,8,2,4,,,,,,,,6,13,,,,,,,,,,,,,6,1.327,1,,,,,,-0.074999986,-0.391666695,1,0,0,1.3266,Pegmatite_rect,3,0,3,0,1,
66751182f21224f506c8d043,SCR,2024-06-24_16h32.48.834,LearnStrategy,2023.2.3,Win32,60.24096386,8,2,5,,,,,,,,5,02,,,,,,,,,,,,,5,1.977,1,,,,,,-0.341666645,-0.415740755,1,0,0,1.9769,Obsidian_rect,4,0,4,0,1,
66751182f21224f506c8d043,SCR,2024-06-24_16h32.48.834,LearnStrategy,2023.2.3,Win32,60.24096386,8,2,6,,,,,,,,4,09,,,,,,,,,,,,,2,5.629,0,,,,,,-0.053703661,-0.247222265,1,0,0,5.6293,Basalt_rect,5,0,5,0,1,
66751182f21224f506c8d043,SCR,2024-06-24_16h32.48.834,LearnStrategy,2023.2.3,Win32,60.24096386,8,2,7,,,,,,,,8,08,,,,,,,,,,,,,8,1.204,1,,,,,,0.419444473,-0.39444443,1,0,0,1.2038,Pumice_rect,6,0,6,0,1,
66751182f21224f506c8d043,SCR,2024-06-24_16h32.48.834,LearnStrategy,2023.2.3,Win32,60.24096386,8,2,8,,,,,,,,4,08,,,,,,,,,,,,,7,2.852,0,,,,,,0.166666667,-0.401851866,1,0,0,2.8522,Peridotite_rect,7,0,7,0,1,
66751182f21224f506c8d043,SCR,2024-06-24_16h32.48.834,LearnStrategy,2023.2.3,Win32,60.24096386,8,2,9,,,,,,,,2,10,,,,,,,,,,,,,4,1.597,0,,,,,,0.377777806,-0.261111153,1,0,0,1.5973,Gabbro_rect,8,0,8,0,1,
66751182f21224f506c8d043,SCR,2024-06-24_16h32.48.834,LearnStrategy,2023.2.3,Win32,60.24096386,8,2,10,,,,,,,,1,11,,,,,,,,,,,,,1,7.72,1,,,,,,-0.349999993,-0.23055557,1,0,0,7.7204,Andesite_rect,9,0,9,0,1,
66751182f21224f506c8d043,SCR,2024-06-24_16h32.48.834,LearnStrategy,2023.2.3,Win32,60.24096386,8,2,11,,,,,,,,7,10,,,,,,,,,,,,,7,1.388,1,,,,,,0.077777792,-0.37962963,1,0,0,1.3884,Peridotite_rect,10,0,10,0,1,
66751182f21224f506c8d043,SCR,2024-06-24_16h32.48.834,LearnStrategy,2023.2.3,Win32,60.24096386,8,2,12,,,,,,,,1,07,,,,,,,,,,,,,3,1.945,0,,,,,,0.091666681,-0.243518547,1,0,0,1.9451,Diorite_rect,11,0,11,0,1,
66751182f21224f506c8d043,SCR,2024-06-24_16h32.48.834,LearnStrategy,2023.2.3,Win32,60.24096386,8,2,13,,,,,,,,2,04,,,,,,,,,,,,,2,1.341,1,,,,,,-0.070370356,-0.262962977,1,0,0,1.3408,Basalt_rect,12,0,12,0,1,
66751182f21224f506c8d043,SCR,2024-06-24_16h32.48.834,LearnStrategy,2023.2.3,Win32,60.24096386,8,2,14,,,,,,,,8,13,,,,,,,,,,,,,8,1.311,1,,,,,,0.359259288,-0.391666695,1,0,0,1.3112,Pumice_rect,13,0,13,0,1,
66751182f21224f506c8d043,SCR,2024-06-24_16h32.48.834,LearnStrategy,2023.2.3,Win32,60.24096386,8,2,15,,,,,,,,3,15,,,,,,,,,,,,,3,2.698,1,,,,,,0.094444487,-0.253703718,1,0,0,2.6982,Diorite_rect,14,0,14,0,1,
66751182f21224f506c8d043,SCR,2024-06-24_16h32.48.834,LearnStrategy,2023.2.3,Win32,60.24096386,8,2,16,,,,,,,,7,14,,,,,,,,,,,,,7,1.319,1,,,,,,0.109259288,-0.395370413,1,0,0,1.3189,Peridotite_rect,15,0,15,0,1,
66751182f21224f506c8d043,SCR,2024-06-24_16h32.48.834,LearnStrategy,2023.2.3,Win32,60.24096386,9,1,1,0.561111168,0.101851852,1,0,0,1.8629,Basalt_01,2,01,4,8,1.863,2,01,-0.055555556,-0.256481524,1,0,0,1.8186,Basalt_rect,2,1.819,1,0,0,0,0,1,,,,,,,,,,,,,
66751182f21224f506c8d043,SCR,2024-06-24_16h32.48.834,LearnStrategy,2023.2.3,Win32,60.24096386,9,1,2,0.419444473,-0.117592635,1,0,0,0.8266,Andesite_09,1,09,3,7,0.827,1,09,0.119444459,-0.250925912,1,0,0,1.9159,Diorite_rect,3,1.916,0,1,0,1,0,1,,,,,,,,,,,,,
66751182f21224f506c8d043,SCR,2024-06-24_16h32.48.834,LearnStrategy,2023.2.3,Win32,60.24096386,9,1,3,-0.071296268,0.37222222,1,0,0,0.9442,Basalt_14,2,14,6,4,0.944,2,14,0.350926011,-0.247222265,1,0,0,1.313,Gabbro_rect,4,1.313,0,2,0,2,0,1,,,,,,,,,,,,,
66751182f21224f506c8d043,SCR,2024-06-24_16h32.48.834,LearnStrategy,2023.2.3,Win32,60.24096386,9,1,4,-0.250925912,0.282407407,1,0,0,0.8626,Diorite_09,3,09,5,3,0.863,3,09,-0.374074053,-0.237963005,1,0,0,1.4634,Andesite_rect,1,1.463,0,3,0,3,0,1,,,,,,,,,,,,,
66751182f21224f506c8d043,SCR,2024-06-24_16h32.48.834,LearnStrategy,2023.2.3,Win32,60.24096386,9,1,5,-0.41574072,-0.261111153,1,0,0,1.1899,Gabbro_13,4,13,2,2,1.19,4,13,-0.066666638,-0.244444459,1,0,0,1.34,Basalt_rect,2,1.34,0,4,0,4,0,1,,,,,,,,,,,,,
66751182f21224f506c8d043,SCR,2024-06-24_16h32.48.834,LearnStrategy,2023.2.3,Win32,60.24096386,9,1,6,-0.396296289,0.24537037,1,0,0,1.0139,Diorite_10,3,10,5,2,1.014,3,10,0.108333376,-0.268518519,1,0,0,1.3844,Diorite_rect,3,1.384,1,5,0,5,0,1,,,,,,,,,,,,,
66751182f21224f506c8d043,SCR,2024-06-24_16h32.48.834,LearnStrategy,2023.2.3,Win32,60.24096386,9,1,7,0.399074131,0.25462963,1,0,0,28.9691,Pegmatite_08,6,08,5,7,28.969,6,08,-0.084259245,-0.385185171,1,0,0,0.9503,Pegmatite_rect,6,0.95,1,6,0,6,0,1,,,,,,,,,,,,,
66751182f21224f506c8d043,SCR,2024-06-24_16h32.48.834,LearnStrategy,2023.2.3,Win32,60.24096386,9,1,8,0.099074116,-0.305555556,1,0,0,0.7785,Andesite_04,1,04,2,5,0.778,1,04,-0.349999993,-0.260185171,1,0,0,2.4316,Andesite_rect,1,2.432,1,7,0,7,0,1,,,,,,,,,,,,,
66751182f21224f506c8d043,SCR,2024-06-24_16h32.48.834,LearnStrategy,2023.2.3,Win32,60.24096386,9,1,9,-0.599074063,0.2537037,1,0,0,1.3396,Gabbro_03,4,03,5,1,1.34,4,03,-0.06759255,-0.249074088,1,0,0,1.6286,Basalt_rect,2,1.629,0,8,0,8,0,1,,,,,,,,,,,,,
66751182f21224f506c8d043,SCR,2024-06-24_16h32.48.834,LearnStrategy,2023.2.3,Win32,60.24096386,9,1,10,0.220370399,-0.386111153,1,0,0,1.4113,Peridotite_02,7,02,1,6,1.411,7,02,0.20185188,-0.392592607,1,0,0,0.6993,Peridotite_rect,7,0.699,1,9,0,9,0,1,,,,,,,,,,,,,
66751182f21224f506c8d043,SCR,2024-06-24_16h32.48.834,LearnStrategy,2023.2.3,Win32,60.24096386,9,1,11,-0.054629644,-0.093518504,1,0,0,0.8255,Pumice_09,8,09,3,4,0.825,8,09,0.3648149,-0.392592607,1,0,0,1.4075,Pumice_rect,8,1.408,1,10,0,10,0,1,,,,,,,,,,,,,
66751182f21224f506c8d043,SCR,2024-06-24_16h32.48.834,LearnStrategy,2023.2.3,Win32,60.24096386,9,1,12,0.073148162,-0.243518547,1,0,0,0.9307,Andesite_04,1,04,2,5,0.931,1,04,0.162037037,-0.265740783,1,0,0,2.4081,Diorite_rect,3,2.408,0,11,0,11,0,1,,,,,,,,,,,,,
66751182f21224f506c8d043,SCR,2024-06-24_16h32.48.834,LearnStrategy,2023.2.3,Win32,60.24096386,9,1,13,-0.062962921,0.092592593,1,0,0,1.3301,Gabbro_10,4,10,4,4,1.33,4,10,-0.074999986,-0.237963005,1,0,0,1.1889,Basalt_rect,2,1.189,0,12,0,12,0,1,,,,,,,,,,,,,
66751182f21224f506c8d043,SCR,2024-06-24_16h32.48.834,LearnStrategy,2023.2.3,Win32,60.24096386,9,1,14,0.565740797,-0.43240745,1,0,0,1.1955,Obsidian_05,5,05,1,8,1.196,5,05,-0.345370363,-0.409259302,1,0,0,1.8474,Obsidian_rect,5,1.847,1,13,0,13,0,1,,,,,,,,,,,,,
66751182f21224f506c8d043,SCR,2024-06-24_16h32.48.834,LearnStrategy,2023.2.3,Win32,60.24096386,9,1,15,-0.405555548,-0.237963005,1,0,0,1.0769,Gabbro_13,4,13,2,2,1.077,4,13,0.381481453,-0.237037023,1,0,0,2.487,Gabbro_rect,4,2.487,1,14,0,14,0,1,,,,,,,,,,,,,
66751182f21224f506c8d043,SCR,2024-06-24_16h32.48.834,LearnStrategy,2023.2.3,Win32,60.24096386,9,1,16,-0.381481489,-0.247222265,1,0,0,1.1474,Gabbro_13,4,13,2,2,1.147,4,13,0.419444473,-0.25462963,1,0,0,1.3551,Gabbro_rect,4,1.355,1,15,0,15,0,1,,,,,,,,,,,,,
66751182f21224f506c8d043,SCR,2024-06-24_16h32.48.834,LearnStrategy,2023.2.3,Win32,60.24096386,9,2,1,,,,,,,,6,10,,,,,,,,,,,,,7,1.747,0,,,,,,0.14444443,-0.390740783,1,0,0,1.747,Peridotite_rect,0,0,0,0,1,
66751182f21224f506c8d043,SCR,2024-06-24_16h32.48.834,LearnStrategy,2023.2.3,Win32,60.24096386,9,2,2,,,,,,,,1,01,,,,,,,,,,,,,4,5.67,0,,,,,,0.363888917,-0.237963005,1,0,0,5.6703,Gabbro_rect,1,0,1,0,1,
66751182f21224f506c8d043,SCR,2024-06-24_16h32.48.834,LearnStrategy,2023.2.3,Win32,60.24096386,9,2,3,,,,,,,,5,16,,,,,,,,,,,,,5,1.503,1,,,,,,-0.327777757,-0.380555541,1,0,0,1.5035,Obsidian_rect,2,0,2,0,1,
66751182f21224f506c8d043,SCR,2024-06-24_16h32.48.834,LearnStrategy,2023.2.3,Win32,60.24096386,9,2,4,,,,,,,,4,14,,,,,,,,,,,,,4,2.126,1,,,,,,0.352777834,-0.261111153,1,0,0,2.1256,Gabbro_rect,3,0,3,0,1,
66751182f21224f506c8d043,SCR,2024-06-24_16h32.48.834,LearnStrategy,2023.2.3,Win32,60.24096386,9,2,5,,,,,,,,3,07,,,,,,,,,,,,,3,3.366,1,,,,,,0.095370399,-0.241666653,1,0,0,3.3664,Diorite_rect,4,0,4,0,1,
66751182f21224f506c8d043,SCR,2024-06-24_16h32.48.834,LearnStrategy,2023.2.3,Win32,60.24096386,9,2,6,,,,,,,,1,10,,,,,,,,,,,,,2,2.415,0,,,,,,-0.097222222,-0.268518519,1,0,0,2.4153,Basalt_rect,5,0,5,0,1,
66751182f21224f506c8d043,SCR,2024-06-24_16h32.48.834,LearnStrategy,2023.2.3,Win32,60.24096386,9,2,7,,,,,,,,7,08,,,,,,,,,,,,,7,1.241,1,,,,,,0.100000028,-0.398148148,1,0,0,1.2413,Peridotite_rect,6,0,6,0,1,
66751182f21224f506c8d043,SCR,2024-06-24_16h32.48.834,LearnStrategy,2023.2.3,Win32,60.24096386,9,2,8,,,,,,,,4,05,,,,,,,,,,,,,7,1.595,0,,,,,,0.100000028,-0.398148148,1,0,0,1.5945,Peridotite_rect,7,0,7,0,1,
66751182f21224f506c8d043,SCR,2024-06-24_16h32.48.834,LearnStrategy,2023.2.3,Win32,60.24096386,9,2,9,,,,,,,,5,11,,,,,,,,,,,,,5,1.216,1,,,,,,-0.346296275,-0.380555541,1,0,0,1.2159,Obsidian_rect,8,0,8,0,1,
66751182f21224f506c8d043,SCR,2024-06-24_16h32.48.834,LearnStrategy,2023.2.3,Win32,60.24096386,9,2,10,,,,,,,,2,16,,,,,,,,,,,,,4,1.752,0,,,,,,0.358333305,-0.262037065,1,0,0,1.7517,Gabbro_rect,9,0,9,0,1,
66751182f21224f506c8d043,SCR,2024-06-24_16h32.48.834,LearnStrategy,2023.2.3,Win32,60.24096386,9,2,11,,,,,,,,3,13,,,,,,,,,,,,,3,7.257,1,,,,,,0.136111153,-0.253703718,1,0,0,7.257,Diorite_rect,10,0,10,0,1,
66751182f21224f506c8d043,SCR,2024-06-24_16h32.48.834,LearnStrategy,2023.2.3,Win32,60.24096386,9,2,12,,,,,,,,8,04,,,,,,,,,,,,,8,1.583,1,,,,,,0.401851937,-0.387962977,1,0,0,1.5833,Pumice_rect,11,0,11,0,1,
66751182f21224f506c8d043,SCR,2024-06-24_16h32.48.834,LearnStrategy,2023.2.3,Win32,60.24096386,9,2,13,,,,,,,,8,02,,,,,,,,,,,,,8,1.162,1,,,,,,0.401851937,-0.387962977,1,0,0,1.1624,Pumice_rect,12,0,12,0,1,
66751182f21224f506c8d043,SCR,2024-06-24_16h32.48.834,LearnStrategy,2023.2.3,Win32,60.24096386,9,2,14,,,,,,,,2,02,,,,,,,,,,,,,2,1.742,1,,,,,,-0.106481481,-0.262037065,1,0,0,1.7416,Basalt_rect,13,0,13,0,1,
66751182f21224f506c8d043,SCR,2024-06-24_16h32.48.834,LearnStrategy,2023.2.3,Win32,60.24096386,9,2,15,,,,,,,,7,15,,,,,,,,,,,,,7,1.757,1,,,,,,0.115740741,-0.395370413,1,0,0,1.7573,Peridotite_rect,14,0,14,0,1,
66751182f21224f506c8d043,SCR,2024-06-24_16h32.48.834,LearnStrategy,2023.2.3,Win32,60.24096386,9,2,16,,,,,,,,6,03,,,,,,,,,,,,,6,1.452,1,,,,,,-0.090740698,-0.402777778,1,0,0,1.452,Pegmatite_rect,15,0,15,0,1,
66751182f21224f506c8d043,SCR,2024-06-24_16h32.48.834,LearnStrategy,2023.2.3,Win32,60.24096386,,,,,,,,,,,,,,,,,,,,,,,,,,,,,,,,,,,,,,,,,,,,,1
66751182f21224f506c8d043,SCR,2024-06-24_16h32.48.834,LearnStrategy,2023.2.3,Win32,60.24096386,,,,,,,,,,,,,,,,,,,,,,,,,,,,,,,,,,,,,,,,,,,,,
66751182f21224f506c8d043,SCR,2024-06-24_16h32.48.834,LearnStrategy,2023.2.3,Win32,60.24096386,,,,,,,,,,,4,15,1,1,,,,,,,,,,,,,,,,,,,,,,,,,,,,,,,
66751182f21224f506c8d043,SCR,2024-06-24_16h32.48.834,LearnStrategy,2023.2.3,Win32,60.24096386,,,,,,,,,,,3,16,1,2,,,,,,,,,,,,,,,,,,,,,,,,,,,,,,,
66751182f21224f506c8d043,SCR,2024-06-24_16h32.48.834,LearnStrategy,2023.2.3,Win32,60.24096386,,,,,,,,,,,3,02,1,3,,,,,,,,,,,,,,,,,,,,,,,,,,,,,,,
66751182f21224f506c8d043,SCR,2024-06-24_16h32.48.834,LearnStrategy,2023.2.3,Win32,60.24096386,,,,,,,,,,,6,09,1,4,,,,,,,,,,,,,,,,,,,,,,,,,,,,,,,
66751182f21224f506c8d043,SCR,2024-06-24_16h32.48.834,LearnStrategy,2023.2.3,Win32,60.24096386,,,,,,,,,,,5,06,1,5,,,,,,,,,,,,,,,,,,,,,,,,,,,,,,,
66751182f21224f506c8d043,SCR,2024-06-24_16h32.48.834,LearnStrategy,2023.2.3,Win32,60.24096386,,,,,,,,,,,7,02,1,6,,,,,,,,,,,,,,,,,,,,,,,,,,,,,,,
66751182f21224f506c8d043,SCR,2024-06-24_16h32.48.834,LearnStrategy,2023.2.3,Win32,60.24096386,,,,,,,,,,,8,14,1,7,,,,,,,,,,,,,,,,,,,,,,,,,,,,,,,
66751182f21224f506c8d043,SCR,2024-06-24_16h32.48.834,LearnStrategy,2023.2.3,Win32,60.24096386,,,,,,,,,,,5,05,1,8,,,,,,,,,,,,,,,,,,,,,,,,,,,,,,,
66751182f21224f506c8d043,SCR,2024-06-24_16h32.48.834,LearnStrategy,2023.2.3,Win32,60.24096386,,,,,,,,,,,2,06,2,1,,,,,,,,,,,,,,,,,,,,,,,,,,,,,,,
66751182f21224f506c8d043,SCR,2024-06-24_16h32.48.834,LearnStrategy,2023.2.3,Win32,60.24096386,,,,,,,,,,,4,13,2,2,,,,,,,,,,,,,,,,,,,,,,,,,,,,,,,
66751182f21224f506c8d043,SCR,2024-06-24_16h32.48.834,LearnStrategy,2023.2.3,Win32,60.24096386,,,,,,,,,,,6,15,2,3,,,,,,,,,,,,,,,,,,,,,,,,,,,,,,,
66751182f21224f506c8d043,SCR,2024-06-24_16h32.48.834,LearnStrategy,2023.2.3,Win32,60.24096386,,,,,,,,,,,8,03,2,4,,,,,,,,,,,,,,,,,,,,,,,,,,,,,,,
66751182f21224f506c8d043,SCR,2024-06-24_16h32.48.834,LearnStrategy,2023.2.3,Win32,60.24096386,,,,,,,,,,,1,04,2,5,,,,,,,,,,,,,,,,,,,,,,,,,,,,,,,
66751182f21224f506c8d043,SCR,2024-06-24_16h32.48.834,LearnStrategy,2023.2.3,Win32,60.24096386,,,,,,,,,,,5,07,2,6,,,,,,,,,,,,,,,,,,,,,,,,,,,,,,,
66751182f21224f506c8d043,SCR,2024-06-24_16h32.48.834,LearnStrategy,2023.2.3,Win32,60.24096386,,,,,,,,,,,3,11,2,7,,,,,,,,,,,,,,,,,,,,,,,,,,,,,,,
66751182f21224f506c8d043,SCR,2024-06-24_16h32.48.834,LearnStrategy,2023.2.3,Win32,60.24096386,,,,,,,,,,,4,11,2,8,,,,,,,,,,,,,,,,,,,,,,,,,,,,,,,
66751182f21224f506c8d043,SCR,2024-06-24_16h32.48.834,LearnStrategy,2023.2.3,Win32,60.24096386,,,,,,,,,,,7,04,3,1,,,,,,,,,,,,,,,,,,,,,,,,,,,,,,,
66751182f21224f506c8d043,SCR,2024-06-24_16h32.48.834,LearnStrategy,2023.2.3,Win32,60.24096386,,,,,,,,,,,8,16,3,2,,,,,,,,,,,,,,,,,,,,,,,,,,,,,,,
66751182f21224f506c8d043,SCR,2024-06-24_16h32.48.834,LearnStrategy,2023.2.3,Win32,60.24096386,,,,,,,,,,,5,04,3,3,,,,,,,,,,,,,,,,,,,,,,,,,,,,,,,
66751182f21224f506c8d043,SCR,2024-06-24_16h32.48.834,LearnStrategy,2023.2.3,Win32,60.24096386,,,,,,,,,,,8,09,3,4,,,,,,,,,,,,,,,,,,,,,,,,,,,,,,,
66751182f21224f506c8d043,SCR,2024-06-24_16h32.48.834,LearnStrategy,2023.2.3,Win32,60.24096386,,,,,,,,,,,5,10,3,5,,,,,,,,,,,,,,,,,,,,,,,,,,,,,,,
66751182f21224f506c8d043,SCR,2024-06-24_16h32.48.834,LearnStrategy,2023.2.3,Win32,60.24096386,,,,,,,,,,,7,05,3,6,,,,,,,,,,,,,,,,,,,,,,,,,,,,,,,
66751182f21224f506c8d043,SCR,2024-06-24_16h32.48.834,LearnStrategy,2023.2.3,Win32,60.24096386,,,,,,,,,,,1,09,3,7,,,,,,,,,,,,,,,,,,,,,,,,,,,,,,,
66751182f21224f506c8d043,SCR,2024-06-24_16h32.48.834,LearnStrategy,2023.2.3,Win32,60.24096386,,,,,,,,,,,8,10,3,8,,,,,,,,,,,,,,,,,,,,,,,,,,,,,,,
66751182f21224f506c8d043,SCR,2024-06-24_16h32.48.834,LearnStrategy,2023.2.3,Win32,60.24096386,,,,,,,,,,,7,13,4,1,,,,,,,,,,,,,,,,,,,,,,,,,,,,,,,
66751182f21224f506c8d043,SCR,2024-06-24_16h32.48.834,LearnStrategy,2023.2.3,Win32,60.24096386,,,,,,,,,,,6,06,4,2,,,,,,,,,,,,,,,,,,,,,,,,,,,,,,,
66751182f21224f506c8d043,SCR,2024-06-24_16h32.48.834,LearnStrategy,2023.2.3,Win32,60.24096386,,,,,,,,,,,1,03,4,3,,,,,,,,,,,,,,,,,,,,,,,,,,,,,,,
66751182f21224f506c8d043,SCR,2024-06-24_16h32.48.834,LearnStrategy,2023.2.3,Win32,60.24096386,,,,,,,,,,,4,10,4,4,,,,,,,,,,,,,,,,,,,,,,,,,,,,,,,
66751182f21224f506c8d043,SCR,2024-06-24_16h32.48.834,LearnStrategy,2023.2.3,Win32,60.24096386,,,,,,,,,,,4,16,4,5,,,,,,,,,,,,,,,,,,,,,,,,,,,,,,,
66751182f21224f506c8d043,SCR,2024-06-24_16h32.48.834,LearnStrategy,2023.2.3,Win32,60.24096386,,,,,,,,,,,1,06,4,6,,,,,,,,,,,,,,,,,,,,,,,,,,,,,,,
66751182f21224f506c8d043,SCR,2024-06-24_16h32.48.834,LearnStrategy,2023.2.3,Win32,60.24096386,,,,,,,,,,,7,06,4,7,,,,,,,,,,,,,,,,,,,,,,,,,,,,,,,
66751182f21224f506c8d043,SCR,2024-06-24_16h32.48.834,LearnStrategy,2023.2.3,Win32,60.24096386,,,,,,,,,,,2,01,4,8,,,,,,,,,,,,,,,,,,,,,,,,,,,,,,,
66751182f21224f506c8d043,SCR,2024-06-24_16h32.48.834,LearnStrategy,2023.2.3,Win32,60.24096386,,,,,,,,,,,4,03,5,1,,,,,,,,,,,,,,,,,,,,,,,,,,,,,,,
66751182f21224f506c8d043,SCR,2024-06-24_16h32.48.834,LearnStrategy,2023.2.3,Win32,60.24096386,,,,,,,,,,,3,10,5,2,,,,,,,,,,,,,,,,,,,,,,,,,,,,,,,
66751182f21224f506c8d043,SCR,2024-06-24_16h32.48.834,LearnStrategy,2023.2.3,Win32,60.24096386,,,,,,,,,,,3,09,5,3,,,,,,,,,,,,,,,,,,,,,,,,,,,,,,,
66751182f21224f506c8d043,SCR,2024-06-24_16h32.48.834,LearnStrategy,2023.2.3,Win32,60.24096386,,,,,,,,,,,1,02,5,4,,,,,,,,,,,,,,,,,,,,,,,,,,,,,,,
66751182f21224f506c8d043,SCR,2024-06-24_16h32.48.834,LearnStrategy,2023.2.3,Win32,60.24096386,,,,,,,,,,,6,16,5,5,,,,,,,,,,,,,,,,,,,,,,,,,,,,,,,
66751182f21224f506c8d043,SCR,2024-06-24_16h32.48.834,LearnStrategy,2023.2.3,Win32,60.24096386,,,,,,,,,,,7,07,5,6,,,,,,,,,,,,,,,,,,,,,,,,,,,,,,,
66751182f21224f506c8d043,SCR,2024-06-24_16h32.48.834,LearnStrategy,2023.2.3,Win32,60.24096386,,,,,,,,,,,6,08,5,7,,,,,,,,,,,,,,,,,,,,,,,,,,,,,,,
66751182f21224f506c8d043,SCR,2024-06-24_16h32.48.834,LearnStrategy,2023.2.3,Win32,60.24096386,,,,,,,,,,,2,12,5,8,,,,,,,,,,,,,,,,,,,,,,,,,,,,,,,
66751182f21224f506c8d043,SCR,2024-06-24_16h32.48.834,LearnStrategy,2023.2.3,Win32,60.24096386,,,,,,,,,,,3,14,6,1,,,,,,,,,,,,,,,,,,,,,,,,,,,,,,,
66751182f21224f506c8d043,SCR,2024-06-24_16h32.48.834,LearnStrategy,2023.2.3,Win32,60.24096386,,,,,,,,,,,1,05,6,2,,,,,,,,,,,,,,,,,,,,,,,,,,,,,,,
66751182f21224f506c8d043,SCR,2024-06-24_16h32.48.834,LearnStrategy,2023.2.3,Win32,60.24096386,,,,,,,,,,,5,09,6,3,,,,,,,,,,,,,,,,,,,,,,,,,,,,,,,
66751182f21224f506c8d043,SCR,2024-06-24_16h32.48.834,LearnStrategy,2023.2.3,Win32,60.24096386,,,,,,,,,,,2,14,6,4,,,,,,,,,,,,,,,,,,,,,,,,,,,,,,,
66751182f21224f506c8d043,SCR,2024-06-24_16h32.48.834,LearnStrategy,2023.2.3,Win32,60.24096386,,,,,,,,,,,2,08,6,5,,,,,,,,,,,,,,,,,,,,,,,,,,,,,,,
66751182f21224f506c8d043,SCR,2024-06-24_16h32.48.834,LearnStrategy,2023.2.3,Win32,60.24096386,,,,,,,,,,,6,11,6,6,,,,,,,,,,,,,,,,,,,,,,,,,,,,,,,
66751182f21224f506c8d043,SCR,2024-06-24_16h32.48.834,LearnStrategy,2023.2.3,Win32,60.24096386,,,,,,,,,,,8,06,6,7,,,,,,,,,,,,,,,,,,,,,,,,,,,,,,,
66751182f21224f506c8d043,SCR,2024-06-24_16h32.48.834,LearnStrategy,2023.2.3,Win32,60.24096386,,,,,,,,,,,2,11,6,8,,,,,,,,,,,,,,,,,,,,,,,,,,,,,,,