participant,condition,date,expName,psychopyVersion,OS,frameRate,block,phase,trial,learn_mouse.x,learn_mouse.y,learn_mouse.leftButton,learn_mouse.midButton,learn_mouse.rightButton,learn_mouse.time,learn_mouse.clicked_name,cat,token,row,col,t_select,cat_mouse_l.x,cat_mouse_l.y,cat_mouse_l.leftButton,cat_mouse_l.midButton,cat_mouse_l.rightButton,cat_mouse_l.time,cat_mouse_l.clicked_name,resp,t_resp,corr,train_trials.thisRepN,train_trials.thisTrialN,train_trials.thisN,train_trials.thisIndex,train_trials.ran,cat_mouse_t.x,cat_mouse_t.y,cat_mouse_t.leftButton,cat_mouse_t.midButton,cat_mouse_t.rightButton,cat_mouse_t.time,cat_mouse_t.clicked_name,test_trials.thisRepN,test_trials.thisTrialN,test_trials.thisN,test_trials.thisIndex,test_trials.ran,Bonus
6677157d21769b1ef48e1fd6,SCN,2024-06-24_11h44.26.678,LearnStrategy,2023.2.3,MacIntel,59.88023952,,,,,,,,,,,,,,,,,,,,,,,,,,,,,,,,,,,,,,,,,,,
6677157d21769b1ef48e1fd6,SCN,2024-06-24_11h44.26.678,LearnStrategy,2023.2.3,MacIntel,59.88023952,1,1,1,-0.239609375,0.222480469,1,0,0,12.3546,Obsidian_12,5,12,5,3,12.355,-0.386132812,-0.413828125,1,0,0,10.1752,Obsidian_rect,5,10.175,1,0,0,0,0,1,,,,,,,,,,,,,
6677157d21769b1ef48e1fd6,SCN,2024-06-24_11h44.26.678,LearnStrategy,2023.2.3,MacIntel,59.88023952,1,1,2,0.213691406,0.108081055,1,0,0,20.9491,Gabbro_11,4,11,4,6,20.949,-0.386523438,-0.263740234,1,0,0,9.1293,Andesite_rect,1,9.129,0,1,0,1,0,1,,,,,,,,,,,,,
6677157d21769b1ef48e1fd6,SCN,2024-06-24_11h44.26.678,LearnStrategy,2023.2.3,MacIntel,59.88023952,1,1,3,0.40019043,0.252475586,1,0,0,21.433,Obsidian_07,5,07,5,7,21.433,0.409086914,-0.388608398,1,0,0,13.3141,Pumice_rect,8,13.314,0,2,0,2,0,1,,,,,,,,,,,,,
6677157d21769b1ef48e1fd6,SCN,2024-06-24_11h44.26.678,LearnStrategy,2023.2.3,MacIntel,59.88023952,1,1,4,-0.556259766,0.106328125,1,0,0,6.0478,Pumice_06,8,06,4,1,6.048,-0.165117188,-0.239819336,1,0,0,2.4971,Basalt_rect,2,2.497,0,3,0,3,0,1,,,,,,,,,,,,,
6677157d21769b1ef48e1fd6,SCN,2024-06-24_11h44.26.678,LearnStrategy,2023.2.3,MacIntel,59.88023952,1,1,5,0.097270508,-0.270356445,1,0,0,13.0153,Diorite_09,3,09,2,5,13.015,0.090795898,-0.243769531,1,0,0,6.0813,Diorite_rect,3,6.081,1,4,0,4,0,1,,,,,,,,,,,,,
6677157d21769b1ef48e1fd6,SCN,2024-06-24_11h44.26.678,LearnStrategy,2023.2.3,MacIntel,59.88023952,1,1,6,-0.088085938,-0.274311523,1,0,0,12.8709,Diorite_15,3,15,2,4,12.871,-0.142856445,-0.396777344,1,0,0,4.3643,Pegmatite_rect,6,4.364,0,5,0,5,0,1,,,,,,,,,,,,,
6677157d21769b1ef48e1fd6,SCN,2024-06-24_11h44.26.678,LearnStrategy,2023.2.3,MacIntel,59.88023952,1,1,7,-0.406069336,-0.25293457,1,0,0,10.7321,Pegmatite_15,6,15,2,2,10.732,0.096542969,-0.393115234,1,0,0,3.4972,Peridotite_rect,7,3.497,0,6,0,6,0,1,,,,,,,,,,,,,
6677157d21769b1ef48e1fd6,SCN,2024-06-24_11h44.26.678,LearnStrategy,2023.2.3,MacIntel,59.88023952,1,1,8,0.379067383,-0.263442383,1,0,0,12.5791,Andesite_14,1,14,2,7,12.579,-0.127763672,-0.25315918,1,0,0,40.3156,Basalt_rect,2,40.316,0,7,0,7,0,1,,,,,,,,,,,,,
6677157d21769b1ef48e1fd6,SCN,2024-06-24_11h44.26.678,LearnStrategy,2023.2.3,MacIntel,59.88023952,1,1,9,0.543979492,0.241640625,1,0,0,32.0487,Pegmatite_03,6,03,5,8,32.049,0.099614258,-0.405708008,1,0,0,8.5145,Peridotite_rect,7,8.514,0,8,0,8,0,1,,,,,,,,,,,,,
6677157d21769b1ef48e1fd6,SCN,2024-06-24_11h44.26.678,LearnStrategy,2023.2.3,MacIntel,59.88023952,1,1,10,0.069228516,0.233178711,1,0,0,22.3992,Pumice_15,8,15,5,5,22.399,0.332548828,-0.392070313,1,0,0,11.4474,Pumice_rect,8,11.447,1,9,0,9,0,1,,,,,,,,,,,,,
6677157d21769b1ef48e1fd6,SCN,2024-06-24_11h44.26.678,LearnStrategy,2023.2.3,MacIntel,59.88023952,1,1,11,0.077939453,-0.09652832,1,0,0,7.2318,Peridotite_02,7,02,3,5,7.232,-0.399545898,-0.234643555,1,0,0,6.1144,Andesite_rect,1,6.114,0,10,0,10,0,1,,,,,,,,,,,,,
6677157d21769b1ef48e1fd6,SCN,2024-06-24_11h44.26.678,LearnStrategy,2023.2.3,MacIntel,59.88023952,1,1,12,0.375219727,-0.412402344,1,0,0,4.1821,Peridotite_08,7,08,1,7,4.182,0.090371094,-0.401611328,1,0,0,3.6314,Peridotite_rect,7,3.631,1,11,0,11,0,1,,,,,,,,,,,,,
6677157d21769b1ef48e1fd6,SCN,2024-06-24_11h44.26.678,LearnStrategy,2023.2.3,MacIntel,59.88023952,1,1,13,-0.393676758,-0.429023437,1,0,0,4.3006,Basalt_10,2,10,1,2,4.301,-0.124526367,-0.239179687,1,0,0,27.5149,Basalt_rect,2,27.515,1,12,0,12,0,1,,,,,,,,,,,,,
6677157d21769b1ef48e1fd6,SCN,2024-06-24_11h44.26.678,LearnStrategy,2023.2.3,MacIntel,59.88023952,1,1,14,0.529130859,-0.069902344,1,0,0,7.0968,Obsidian_14,5,14,3,8,7.097,-0.390327148,-0.383793945,1,0,0,1.8504,Obsidian_rect,5,1.85,1,13,0,13,0,1,,,,,,,,,,,,,
6677157d21769b1ef48e1fd6,SCN,2024-06-24_11h44.26.678,LearnStrategy,2023.2.3,MacIntel,59.88023952,1,1,15,-0.081308594,0.234838867,1,0,0,3.548,Andesite_11,1,11,5,4,3.548,-0.378413086,-0.236904297,1,0,0,19.4159,Andesite_rect,1,19.416,1,14,0,14,0,1,,,,,,,,,,,,,
6677157d21769b1ef48e1fd6,SCN,2024-06-24_11h44.26.678,LearnStrategy,2023.2.3,MacIntel,59.88023952,1,1,16,-0.547607422,-0.275297852,1,0,0,9.8152,Gabbro_05,4,05,2,1,9.815,0.073457031,-0.408452148,1,0,0,8.9639,Peridotite_rect,7,8.964,0,15,0,15,0,1,,,,,,,,,,,,,
6677157d21769b1ef48e1fd6,SCN,2024-06-24_11h44.26.678,LearnStrategy,2023.2.3,MacIntel,59.88023952,1,2,1,,,,,,,,2,12,,,,,,,,,,,1,25.573,0,,,,,,-0.426123047,-0.251069336,1,0,0,25.5735,Andesite_rect,0,0,0,0,1,
6677157d21769b1ef48e1fd6,SCN,2024-06-24_11h44.26.678,LearnStrategy,2023.2.3,MacIntel,59.88023952,1,2,2,,,,,,,,4,13,,,,,,,,,,,4,74.363,1,,,,,,0.372421875,-0.262138672,1,0,0,74.3627,Gabbro_rect,1,0,1,0,1,
6677157d21769b1ef48e1fd6,SCN,2024-06-24_11h44.26.678,LearnStrategy,2023.2.3,MacIntel,59.88023952,1,2,3,,,,,,,,4,16,,,,,,,,,,,7,85.995,0,,,,,,0.110615234,-0.41265625,1,0,0,85.9955,Peridotite_rect,2,0,2,0,1,
6677157d21769b1ef48e1fd6,SCN,2024-06-24_11h44.26.678,LearnStrategy,2023.2.3,MacIntel,59.88023952,1,2,4,,,,,,,,5,10,,,,,,,,,,,5,1.857,1,,,,,,-0.417128906,-0.401333008,1,0,0,1.8571,Obsidian_rect,3,0,3,0,1,
6677157d21769b1ef48e1fd6,SCN,2024-06-24_11h44.26.678,LearnStrategy,2023.2.3,MacIntel,59.88023952,1,2,5,,,,,,,,7,13,,,,,,,,,,,7,6.058,1,,,,,,0.098974609,-0.399936523,1,0,0,6.0581,Peridotite_rect,4,0,4,0,1,
6677157d21769b1ef48e1fd6,SCN,2024-06-24_11h44.26.678,LearnStrategy,2023.2.3,MacIntel,59.88023952,1,2,6,,,,,,,,1,09,,,,,,,,,,,1,16.975,1,,,,,,-0.344370117,-0.263608398,1,0,0,16.9752,Andesite_rect,5,0,5,0,1,
6677157d21769b1ef48e1fd6,SCN,2024-06-24_11h44.26.678,LearnStrategy,2023.2.3,MacIntel,59.88023952,1,2,7,,,,,,,,5,16,,,,,,,,,,,5,1.193,1,,,,,,-0.38612793,-0.406958008,1,0,0,1.1929,Obsidian_rect,6,0,6,0,1,
6677157d21769b1ef48e1fd6,SCN,2024-06-24_11h44.26.678,LearnStrategy,2023.2.3,MacIntel,59.88023952,1,2,8,,,,,,,,6,07,,,,,,,,,,,7,41.276,0,,,,,,0.128930664,-0.405146484,1,0,0,41.2759,Peridotite_rect,7,0,7,0,1,
6677157d21769b1ef48e1fd6,SCN,2024-06-24_11h44.26.678,LearnStrategy,2023.2.3,MacIntel,59.88023952,1,2,9,,,,,,,,8,14,,,,,,,,,,,8,6.126,1,,,,,,0.361176758,-0.396743164,1,0,0,6.1262,Pumice_rect,8,0,8,0,1,
6677157d21769b1ef48e1fd6,SCN,2024-06-24_11h44.26.678,LearnStrategy,2023.2.3,MacIntel,59.88023952,1,2,10,,,,,,,,7,07,,,,,,,,,,,7,7.042,1,,,,,,0.097080078,-0.386508789,1,0,0,7.0423,Peridotite_rect,9,0,9,0,1,
6677157d21769b1ef48e1fd6,SCN,2024-06-24_11h44.26.678,LearnStrategy,2023.2.3,MacIntel,59.88023952,1,2,11,,,,,,,,2,11,,,,,,,,,,,8,35.928,0,,,,,,0.362841797,-0.392666016,1,0,0,35.9284,Pumice_rect,10,0,10,0,1,
6677157d21769b1ef48e1fd6,SCN,2024-06-24_11h44.26.678,LearnStrategy,2023.2.3,MacIntel,59.88023952,1,2,12,,,,,,,,1,06,,,,,,,,,,,1,6.209,1,,,,,,-0.4215625,-0.241503906,1,0,0,6.2092,Andesite_rect,11,0,11,0,1,
6677157d21769b1ef48e1fd6,SCN,2024-06-24_11h44.26.678,LearnStrategy,2023.2.3,MacIntel,59.88023952,1,2,13,,,,,,,,3,06,,,,,,,,,,,3,2.224,1,,,,,,0.086733398,-0.254707031,1,0,0,2.2241,Diorite_rect,12,0,12,0,1,
6677157d21769b1ef48e1fd6,SCN,2024-06-24_11h44.26.678,LearnStrategy,2023.2.3,MacIntel,59.88023952,1,2,14,,,,,,,,3,14,,,,,,,,,,,3,1.824,1,,,,,,0.074091797,-0.271611328,1,0,0,1.8244,Diorite_rect,13,0,13,0,1,
6677157d21769b1ef48e1fd6,SCN,2024-06-24_11h44.26.678,LearnStrategy,2023.2.3,MacIntel,59.88023952,1,2,15,,,,,,,,8,03,,,,,,,,,,,8,4.175,1,,,,,,0.382226562,-0.397075195,1,0,0,4.175,Pumice_rect,14,0,14,0,1,
6677157d21769b1ef48e1fd6,SCN,2024-06-24_11h44.26.678,LearnStrategy,2023.2.3,MacIntel,59.88023952,1,2,16,,,,,,,,6,10,,,,,,,,,,,7,15.591,0,,,,,,0.112270508,-0.405371094,1,0,0,15.5907,Peridotite_rect,15,0,15,0,1,
6677157d21769b1ef48e1fd6,SCN,2024-06-24_11h44.26.678,LearnStrategy,2023.2.3,MacIntel,59.88023952,2,1,1,-0.579345703,0.406069336,1,0,0,12.2653,Diorite_10,3,10,6,1,12.265,0.069838867,-0.252041016,1,0,0,5.5655,Diorite_rect,3,5.565,1,0,0,0,0,1,,,,,,,,,,,,,
6677157d21769b1ef48e1fd6,SCN,2024-06-24_11h44.26.678,LearnStrategy,2023.2.3,MacIntel,59.88023952,2,1,2,-0.074799805,0.384438477,1,0,0,2.8306,Basalt_01,2,01,6,4,2.831,-0.145424805,-0.264438477,1,0,0,11.476,Basalt_rect,2,11.476,1,1,0,1,0,1,,,,,,,,,,,,,
6677157d21769b1ef48e1fd6,SCN,2024-06-24_11h44.26.678,LearnStrategy,2023.2.3,MacIntel,59.88023952,2,1,3,0.224692383,0.399912109,1,0,0,3.3997,Pegmatite_16,6,16,6,6,3.4,-0.205546875,-0.403544922,1,0,0,12.1626,Pegmatite_rect,6,12.163,1,2,0,2,0,1,,,,,,,,,,,,,
6677157d21769b1ef48e1fd6,SCN,2024-06-24_11h44.26.678,LearnStrategy,2023.2.3,MacIntel,59.88023952,2,1,4,-0.42234375,0.288427734,1,0,0,4.247,Gabbro_15,4,15,5,2,4.247,-0.389213867,-0.264174805,1,0,0,29.1489,Andesite_rect,1,29.149,0,3,0,3,0,1,,,,,,,,,,,,,
6677157d21769b1ef48e1fd6,SCN,2024-06-24_11h44.26.678,LearnStrategy,2023.2.3,MacIntel,59.88023952,2,1,5,-0.547675781,-0.113183594,1,0,0,3.9984,Pumice_09,8,09,3,1,3.998,0.323901367,-0.39862793,1,0,0,7.3474,Pumice_rect,8,7.347,1,4,0,4,0,1,,,,,,,,,,,,,
6677157d21769b1ef48e1fd6,SCN,2024-06-24_11h44.26.678,LearnStrategy,2023.2.3,MacIntel,59.88023952,2,1,6,0.257680664,-0.422050781,1,0,0,5.248,Basalt_14,2,14,1,6,5.248,0.347226563,-0.394174805,1,0,0,2.9484,Pumice_rect,8,2.948,0,5,0,5,0,1,,,,,,,,,,,,,
6677157d21769b1ef48e1fd6,SCN,2024-06-24_11h44.26.678,LearnStrategy,2023.2.3,MacIntel,59.88023952,2,1,7,0.550390625,-0.248691406,1,0,0,3.5983,Pegmatite_06,6,06,2,8,3.598,-0.161054687,-0.411547852,1,0,0,10.1816,Pegmatite_rect,6,10.182,1,6,0,6,0,1,,,,,,,,,,,,,
6677157d21769b1ef48e1fd6,SCN,2024-06-24_11h44.26.678,LearnStrategy,2023.2.3,MacIntel,59.88023952,2,1,8,0.10956543,-0.417827148,1,0,0,10.051,Basalt_08,2,08,1,5,10.051,-0.131503906,-0.248041992,1,0,0,3.9631,Basalt_rect,2,3.963,1,7,0,7,0,1,,,,,,,,,,,,,
6677157d21769b1ef48e1fd6,SCN,2024-06-24_11h44.26.678,LearnStrategy,2023.2.3,MacIntel,59.88023952,2,1,9,0.271210938,-0.270756836,1,0,0,1.5322,Gabbro_01,4,01,2,6,1.532,-0.387158203,-0.238208008,1,0,0,13.376,Andesite_rect,1,13.376,0,8,0,8,0,1,,,,,,,,,,,,,
6677157d21769b1ef48e1fd6,SCN,2024-06-24_11h44.26.678,LearnStrategy,2023.2.3,MacIntel,59.88023952,2,1,10,-0.226708984,-0.117670898,1,0,0,4.2332,Peridotite_04,7,04,3,3,4.233,-0.166005859,-0.394946289,1,0,0,4.5819,Pegmatite_rect,6,4.582,0,9,0,9,0,1,,,,,,,,,,,,,
6677157d21769b1ef48e1fd6,SCN,2024-06-24_11h44.26.678,LearnStrategy,2023.2.3,MacIntel,59.88023952,2,1,11,0.066904297,-0.098769531,1,0,0,3.6807,Peridotite_02,7,02,3,5,3.681,0.123554687,-0.408383789,1,0,0,1.9652,Peridotite_rect,7,1.965,1,10,0,10,0,1,,,,,,,,,,,,,
6677157d21769b1ef48e1fd6,SCN,2024-06-24_11h44.26.678,LearnStrategy,2023.2.3,MacIntel,59.88023952,2,1,12,-0.409555664,0.107387695,1,0,0,1.6809,Gabbro_12,4,12,4,2,1.681,-0.439023438,-0.245869141,1,0,0,3.4645,Andesite_rect,1,3.465,0,11,0,11,0,1,,,,,,,,,,,,,
6677157d21769b1ef48e1fd6,SCN,2024-06-24_11h44.26.678,LearnStrategy,2023.2.3,MacIntel,59.88023952,2,1,13,-0.219555664,-0.288349609,1,0,0,4.9986,Andesite_10,1,10,2,3,4.999,-0.415366211,-0.230371094,1,0,0,3.3157,Andesite_rect,1,3.316,1,12,0,12,0,1,,,,,,,,,,,,,
6677157d21769b1ef48e1fd6,SCN,2024-06-24_11h44.26.678,LearnStrategy,2023.2.3,MacIntel,59.88023952,2,1,14,0.369824219,-0.43184082,1,0,0,4.8492,Peridotite_08,7,08,1,7,4.849,0.095473633,-0.405751953,1,0,0,2.4295,Peridotite_rect,7,2.429,1,13,0,13,0,1,,,,,,,,,,,,,
6677157d21769b1ef48e1fd6,SCN,2024-06-24_11h44.26.678,LearnStrategy,2023.2.3,MacIntel,59.88023952,2,1,15,0.547036133,-0.424892578,1,0,0,1.0672,Peridotite_14,7,14,1,8,1.067,-0.219956055,-0.40175293,1,0,0,6.8572,Pegmatite_rect,6,6.857,0,14,0,14,0,1,,,,,,,,,,,,,
6677157d21769b1ef48e1fd6,SCN,2024-06-24_11h44.26.678,LearnStrategy,2023.2.3,MacIntel,59.88023952,2,1,16,0.219790039,0.222138672,1,0,0,14.6649,Andesite_02,1,02,5,6,14.665,-0.370908203,-0.252177734,1,0,0,3.8994,Andesite_rect,1,3.899,1,15,0,15,0,1,,,,,,,,,,,,,
6677157d21769b1ef48e1fd6,SCN,2024-06-24_11h44.26.678,LearnStrategy,2023.2.3,MacIntel,59.88023952,2,2,1,,,,,,,,8,08,,,,,,,,,,,8,17.391,1,,,,,,0.352348633,-0.388569336,1,0,0,17.3909,Pumice_rect,0,0,0,0,1,
6677157d21769b1ef48e1fd6,SCN,2024-06-24_11h44.26.678,LearnStrategy,2023.2.3,MacIntel,59.88023952,2,2,2,,,,,,,,5,05,,,,,,,,,,,5,1.908,1,,,,,,-0.422133789,-0.408974609,1,0,0,1.9078,Obsidian_rect,1,0,1,0,1,
6677157d21769b1ef48e1fd6,SCN,2024-06-24_11h44.26.678,LearnStrategy,2023.2.3,MacIntel,59.88023952,2,2,3,,,,,,,,7,06,,,,,,,,,,,7,1.492,1,,,,,,0.111689453,-0.379267578,1,0,0,1.4918,Peridotite_rect,2,0,2,0,1,
6677157d21769b1ef48e1fd6,SCN,2024-06-24_11h44.26.678,LearnStrategy,2023.2.3,MacIntel,59.88023952,2,2,4,,,,,,,,3,13,,,,,,,,,,,3,8.541,1,,,,,,0.149262695,-0.263544922,1,0,0,8.5408,Diorite_rect,3,0,3,0,1,
6677157d21769b1ef48e1fd6,SCN,2024-06-24_11h44.26.678,LearnStrategy,2023.2.3,MacIntel,59.88023952,2,2,5,,,,,,,,7,15,,,,,,,,,,,7,6.074,1,,,,,,0.103120117,-0.416254883,1,0,0,6.0737,Peridotite_rect,4,0,4,0,1,
6677157d21769b1ef48e1fd6,SCN,2024-06-24_11h44.26.678,LearnStrategy,2023.2.3,MacIntel,59.88023952,2,2,6,,,,,,,,2,16,,,,,,,,,,,2,9.309,1,,,,,,-0.126855469,-0.243217773,1,0,0,9.3088,Basalt_rect,5,0,5,0,1,
6677157d21769b1ef48e1fd6,SCN,2024-06-24_11h44.26.678,LearnStrategy,2023.2.3,MacIntel,59.88023952,2,2,7,,,,,,,,1,07,,,,,,,,,,,1,16.891,1,,,,,,-0.440888672,-0.249838867,1,0,0,16.891,Andesite_rect,6,0,6,0,1,
6677157d21769b1ef48e1fd6,SCN,2024-06-24_11h44.26.678,LearnStrategy,2023.2.3,MacIntel,59.88023952,2,2,8,,,,,,,,5,04,,,,,,,,,,,5,1.341,1,,,,,,-0.417075195,-0.39234375,1,0,0,1.3409,Obsidian_rect,7,0,7,0,1,
6677157d21769b1ef48e1fd6,SCN,2024-06-24_11h44.26.678,LearnStrategy,2023.2.3,MacIntel,59.88023952,2,2,9,,,,,,,,6,11,,,,,,,,,,,6,6.543,1,,,,,,-0.141708984,-0.415429687,1,0,0,6.5433,Pegmatite_rect,8,0,8,0,1,
6677157d21769b1ef48e1fd6,SCN,2024-06-24_11h44.26.678,LearnStrategy,2023.2.3,MacIntel,59.88023952,2,2,10,,,,,,,,6,12,,,,,,,,,,,6,1.941,1,,,,,,-0.118520508,-0.392514648,1,0,0,1.9408,Pegmatite_rect,9,0,9,0,1,
6677157d21769b1ef48e1fd6,SCN,2024-06-24_11h44.26.678,LearnStrategy,2023.2.3,MacIntel,59.88023952,2,2,11,,,,,,,,1,01,,,,,,,,,,,4,36.726,0,,,,,,0.344277344,-0.244746094,1,0,0,36.7264,Gabbro_rect,10,0,10,0,1,
6677157d21769b1ef48e1fd6,SCN,2024-06-24_11h44.26.678,LearnStrategy,2023.2.3,MacIntel,59.88023952,2,2,12,,,,,,,,4,03,,,,,,,,,,,1,24.228,0,,,,,,-0.38621582,-0.237197266,1,0,0,24.2281,Andesite_rect,11,0,11,0,1,
6677157d21769b1ef48e1fd6,SCN,2024-06-24_11h44.26.678,LearnStrategy,2023.2.3,MacIntel,59.88023952,2,2,13,,,,,,,,8,10,,,,,,,,,,,8,1.224,1,,,,,,0.357685547,-0.411821289,1,0,0,1.2239,Pumice_rect,12,0,12,0,1,
6677157d21769b1ef48e1fd6,SCN,2024-06-24_11h44.26.678,LearnStrategy,2023.2.3,MacIntel,59.88023952,2,2,14,,,,,,,,2,02,,,,,,,,,,,2,4.691,1,,,,,,-0.141376953,-0.259956055,1,0,0,4.6912,Basalt_rect,13,0,13,0,1,
6677157d21769b1ef48e1fd6,SCN,2024-06-24_11h44.26.678,LearnStrategy,2023.2.3,MacIntel,59.88023952,2,2,15,,,,,,,,3,02,,,,,,,,,,,3,2.795,1,,,,,,0.079458008,-0.246889648,1,0,0,2.7948,Diorite_rect,14,0,14,0,1,
6677157d21769b1ef48e1fd6,SCN,2024-06-24_11h44.26.678,LearnStrategy,2023.2.3,MacIntel,59.88023952,2,2,16,,,,,,,,4,09,,,,,,,,,,,4,14.91,1,,,,,,0.358598633,-0.26597168,1,0,0,14.9105,Gabbro_rect,15,0,15,0,1,
6677157d21769b1ef48e1fd6,SCN,2024-06-24_11h44.26.678,LearnStrategy,2023.2.3,MacIntel,59.88023952,3,1,1,-0.574433594,0.247875977,1,0,0,11.4315,Peridotite_10,7,10,5,1,11.431,0.111845703,-0.387167969,1,0,0,5.5637,Peridotite_rect,7,5.564,1,0,0,0,0,1,,,,,,,,,,,,,
6677157d21769b1ef48e1fd6,SCN,2024-06-24_11h44.26.678,LearnStrategy,2023.2.3,MacIntel,59.88023952,3,1,2,-0.228935547,0.110136719,1,0,0,2.5143,Andesite_04,1,04,4,3,2.514,-0.396508789,-0.248486328,1,0,0,6.9411,Andesite_rect,1,6.941,1,1,0,1,0,1,,,,,,,,,,,,,
6677157d21769b1ef48e1fd6,SCN,2024-06-24_11h44.26.678,LearnStrategy,2023.2.3,MacIntel,59.88023952,3,1,3,0.056137695,0.096469727,1,0,0,1.5804,Gabbro_10,4,10,4,5,1.58,0.408916016,-0.263496094,1,0,0,1.6088,Gabbro_rect,4,1.609,1,2,0,2,0,1,,,,,,,,,,,,,
6677157d21769b1ef48e1fd6,SCN,2024-06-24_11h44.26.678,LearnStrategy,2023.2.3,MacIntel,59.88023952,3,1,4,0.362006836,0.069106445,1,0,0,2.4984,Pegmatite_09,6,09,4,7,2.498,-0.098623047,-0.41284668,1,0,0,1.4633,Pegmatite_rect,6,1.463,1,3,0,3,0,1,,,,,,,,,,,,,
6677157d21769b1ef48e1fd6,SCN,2024-06-24_11h44.26.678,LearnStrategy,2023.2.3,MacIntel,59.88023952,3,1,5,0.09546875,-0.107104492,1,0,0,4.7827,Peridotite_02,7,02,3,5,4.783,0.127182617,-0.399296875,1,0,0,1.0157,Peridotite_rect,7,1.016,1,4,0,4,0,1,,,,,,,,,,,,,
6677157d21769b1ef48e1fd6,SCN,2024-06-24_11h44.26.678,LearnStrategy,2023.2.3,MacIntel,59.88023952,3,1,6,-0.062177734,-0.097436523,1,0,0,0.9479,Pegmatite_05,6,05,3,4,0.948,-0.153735352,-0.389350586,1,0,0,3.0415,Pegmatite_rect,6,3.042,1,5,0,5,0,1,,,,,,,,,,,,,
6677157d21769b1ef48e1fd6,SCN,2024-06-24_11h44.26.678,LearnStrategy,2023.2.3,MacIntel,59.88023952,3,1,7,-0.399819336,-0.12034668,1,0,0,3.0825,Peridotite_12,7,12,3,2,3.082,0.113330078,-0.404946289,1,0,0,2.1643,Peridotite_rect,7,2.164,1,6,0,6,0,1,,,,,,,,,,,,,
6677157d21769b1ef48e1fd6,SCN,2024-06-24_11h44.26.678,LearnStrategy,2023.2.3,MacIntel,59.88023952,3,1,8,0.205253906,0.245976562,1,0,0,3.1476,Andesite_02,1,02,5,6,3.148,-0.389384766,-0.256791992,1,0,0,2.3265,Andesite_rect,1,2.326,1,7,0,7,0,1,,,,,,,,,,,,,
6677157d21769b1ef48e1fd6,SCN,2024-06-24_11h44.26.678,LearnStrategy,2023.2.3,MacIntel,59.88023952,3,1,9,0.373334961,0.433486328,1,0,0,2.5975,Pumice_02,8,02,6,7,2.598,0.358642578,-0.379707031,1,0,0,1.86,Pumice_rect,8,1.86,1,8,0,8,0,1,,,,,,,,,,,,,
6677157d21769b1ef48e1fd6,SCN,2024-06-24_11h44.26.678,LearnStrategy,2023.2.3,MacIntel,59.88023952,3,1,10,-0.082895508,0.281196289,1,0,0,2.9664,Andesite_11,1,11,5,4,2.966,-0.403623047,-0.234116211,1,0,0,1.9645,Andesite_rect,1,1.965,1,9,0,9,0,1,,,,,,,,,,,,,
6677157d21769b1ef48e1fd6,SCN,2024-06-24_11h44.26.678,LearnStrategy,2023.2.3,MacIntel,59.88023952,3,1,11,0.52894043,-0.275976563,1,0,0,4.9484,Pegmatite_06,6,06,2,8,4.948,-0.10875,-0.404980469,1,0,0,1.6983,Pegmatite_rect,6,1.698,1,10,0,10,0,1,,,,,,,,,,,,,
6677157d21769b1ef48e1fd6,SCN,2024-06-24_11h44.26.678,LearnStrategy,2023.2.3,MacIntel,59.88023952,3,1,12,0.387353516,-0.27855957,1,0,0,1.4656,Andesite_14,1,14,2,7,1.466,0.120981445,-0.250214844,1,0,0,2.5264,Diorite_rect,3,2.526,0,11,0,11,0,1,,,,,,,,,,,,,
6677157d21769b1ef48e1fd6,SCN,2024-06-24_11h44.26.678,LearnStrategy,2023.2.3,MacIntel,59.88023952,3,1,13,0.23565918,-0.289384766,1,0,0,2.1975,Gabbro_01,4,01,2,6,2.197,0.092709961,-0.395415039,1,0,0,2.1589,Peridotite_rect,7,2.159,0,12,0,12,0,1,,,,,,,,,,,,,
6677157d21769b1ef48e1fd6,SCN,2024-06-24_11h44.26.678,LearnStrategy,2023.2.3,MacIntel,59.88023952,3,1,14,-0.085947266,-0.425493164,1,0,0,2.9994,Diorite_12,3,12,1,4,2.999,0.068603516,-0.25699707,1,0,0,0.8306,Diorite_rect,3,0.831,1,13,0,13,0,1,,,,,,,,,,,,,
6677157d21769b1ef48e1fd6,SCN,2024-06-24_11h44.26.678,LearnStrategy,2023.2.3,MacIntel,59.88023952,3,1,15,-0.200200195,-0.276860352,1,0,0,4.8155,Andesite_10,1,10,2,3,4.815,-0.405253906,-0.25699707,1,0,0,1.3147,Andesite_rect,1,1.315,1,14,0,14,0,1,,,,,,,,,,,,,
6677157d21769b1ef48e1fd6,SCN,2024-06-24_11h44.26.678,LearnStrategy,2023.2.3,MacIntel,59.88023952,3,1,16,0.230878906,0.227294922,1,0,0,6.899,Andesite_02,1,02,5,6,6.899,-0.468369141,-0.269189453,1,0,0,0.8827,Andesite_rect,1,0.883,1,15,0,15,0,1,,,,,,,,,,,,,
6677157d21769b1ef48e1fd6,SCN,2024-06-24_11h44.26.678,LearnStrategy,2023.2.3,MacIntel,59.88023952,3,2,1,,,,,,,,1,05,,,,,,,,,,,1,16.591,1,,,,,,-0.42168457,-0.250244141,1,0,0,16.5905,Andesite_rect,0,0,0,0,1,
6677157d21769b1ef48e1fd6,SCN,2024-06-24_11h44.26.678,LearnStrategy,2023.2.3,MacIntel,59.88023952,3,2,2,,,,,,,,2,04,,,,,,,,,,,2,1.558,1,,,,,,-0.151845703,-0.252021484,1,0,0,1.5582,Basalt_rect,1,0,1,0,1,
6677157d21769b1ef48e1fd6,SCN,2024-06-24_11h44.26.678,LearnStrategy,2023.2.3,MacIntel,59.88023952,3,2,3,,,,,,,,5,09,,,,,,,,,,,5,1.041,1,,,,,,-0.366694336,-0.393525391,1,0,0,1.0412,Obsidian_rect,2,0,2,0,1,
6677157d21769b1ef48e1fd6,SCN,2024-06-24_11h44.26.678,LearnStrategy,2023.2.3,MacIntel,59.88023952,3,2,4,,,,,,,,2,05,,,,,,,,,,,2,1.207,1,,,,,,-0.145595703,-0.233261719,1,0,0,1.2075,Basalt_rect,3,0,3,0,1,
6677157d21769b1ef48e1fd6,SCN,2024-06-24_11h44.26.678,LearnStrategy,2023.2.3,MacIntel,59.88023952,3,2,5,,,,,,,,3,08,,,,,,,,,,,3,1.443,1,,,,,,0.109711914,-0.265385742,1,0,0,1.4427,Diorite_rect,4,0,4,0,1,
6677157d21769b1ef48e1fd6,SCN,2024-06-24_11h44.26.678,LearnStrategy,2023.2.3,MacIntel,59.88023952,3,2,6,,,,,,,,1,16,,,,,,,,,,,1,1.242,1,,,,,,-0.381860352,-0.2359375,1,0,0,1.2416,Andesite_rect,5,0,5,0,1,
6677157d21769b1ef48e1fd6,SCN,2024-06-24_11h44.26.678,LearnStrategy,2023.2.3,MacIntel,59.88023952,3,2,7,,,,,,,,7,05,,,,,,,,,,,7,23.658,1,,,,,,0.097070313,-0.403808594,1,0,0,23.658,Peridotite_rect,6,0,6,0,1,
6677157d21769b1ef48e1fd6,SCN,2024-06-24_11h44.26.678,LearnStrategy,2023.2.3,MacIntel,59.88023952,3,2,8,,,,,,,,5,11,,,,,,,,,,,5,0.993,1,,,,,,-0.404321289,-0.417861328,1,0,0,0.9929,Obsidian_rect,7,0,7,0,1,
6677157d21769b1ef48e1fd6,SCN,2024-06-24_11h44.26.678,LearnStrategy,2023.2.3,MacIntel,59.88023952,3,2,9,,,,,,,,4,08,,,,,,,,,,,4,4.042,1,,,,,,0.378618164,-0.271518555,1,0,0,4.0422,Gabbro_rect,8,0,8,0,1,
6677157d21769b1ef48e1fd6,SCN,2024-06-24_11h44.26.678,LearnStrategy,2023.2.3,MacIntel,59.88023952,3,2,10,,,,,,,,8,16,,,,,,,,,,,8,1.078,1,,,,,,0.39440918,-0.39359375,1,0,0,1.0775,Pumice_rect,9,0,9,0,1,
6677157d21769b1ef48e1fd6,SCN,2024-06-24_11h44.26.678,LearnStrategy,2023.2.3,MacIntel,59.88023952,3,2,11,,,,,,,,7,16,,,,,,,,,,,7,2.091,1,,,,,,0.110922852,-0.385571289,1,0,0,2.0913,Peridotite_rect,10,0,10,0,1,
6677157d21769b1ef48e1fd6,SCN,2024-06-24_11h44.26.678,LearnStrategy,2023.2.3,MacIntel,59.88023952,3,2,12,,,,,,,,6,13,,,,,,,,,,,6,4.641,1,,,,,,-0.159086914,-0.405742188,1,0,0,4.641,Pegmatite_rect,11,0,11,0,1,
6677157d21769b1ef48e1fd6,SCN,2024-06-24_11h44.26.678,LearnStrategy,2023.2.3,MacIntel,59.88023952,3,2,13,,,,,,,,6,08,,,,,,,,,,,6,1.674,1,,,,,,-0.155981445,-0.416513672,1,0,0,1.6745,Pegmatite_rect,12,0,12,0,1,
6677157d21769b1ef48e1fd6,SCN,2024-06-24_11h44.26.678,LearnStrategy,2023.2.3,MacIntel,59.88023952,3,2,14,,,,,,,,3,11,,,,,,,,,,,3,1.241,1,,,,,,0.147988281,-0.237382813,1,0,0,1.2406,Diorite_rect,13,0,13,0,1,
6677157d21769b1ef48e1fd6,SCN,2024-06-24_11h44.26.678,LearnStrategy,2023.2.3,MacIntel,59.88023952,3,2,15,,,,,,,,4,14,,,,,,,,,,,4,9.007,1,,,,,,0.353022461,-0.26421875,1,0,0,9.0073,Gabbro_rect,14,0,14,0,1,
6677157d21769b1ef48e1fd6,SCN,2024-06-24_11h44.26.678,LearnStrategy,2023.2.3,MacIntel,59.88023952,3,2,16,,,,,,,,8,04,,,,,,,,,,,8,1.843,1,,,,,,0.367729492,-0.390927734,1,0,0,1.8431,Pumice_rect,15,0,15,0,1,
6677157d21769b1ef48e1fd6,SCN,2024-06-24_11h44.26.678,LearnStrategy,2023.2.3,MacIntel,59.88023952,4,1,1,-0.255751953,0.089819336,1,0,0,1.3983,Andesite_04,1,04,4,3,1.398,-0.399575195,-0.265385742,1,0,0,1.2057,Andesite_rect,1,1.206,1,0,0,0,0,1,,,,,,,,,,,,,
6677157d21769b1ef48e1fd6,SCN,2024-06-24_11h44.26.678,LearnStrategy,2023.2.3,MacIntel,59.88023952,4,1,2,-0.555634766,0.39090332,1,0,0,0.6645,Diorite_10,3,10,6,1,0.664,0.130771484,-0.259238281,1,0,0,0.9604,Diorite_rect,3,0.96,1,1,0,1,0,1,,,,,,,,,,,,,
6677157d21769b1ef48e1fd6,SCN,2024-06-24_11h44.26.678,LearnStrategy,2023.2.3,MacIntel,59.88023952,4,1,3,-0.367045898,0.372416992,1,0,0,0.7964,Diorite_16,3,16,6,2,0.796,0.141655273,-0.26206543,1,0,0,0.9249,Diorite_rect,3,0.925,1,2,0,2,0,1,,,,,,,,,,,,,
6677157d21769b1ef48e1fd6,SCN,2024-06-24_11h44.26.678,LearnStrategy,2023.2.3,MacIntel,59.88023952,4,1,4,-0.23793457,0.379208984,1,0,0,0.6158,Obsidian_06,5,06,6,3,0.616,-0.406875,-0.388974609,1,0,0,0.7913,Obsidian_rect,5,0.791,1,3,0,3,0,1,,,,,,,,,,,,,
6677157d21769b1ef48e1fd6,SCN,2024-06-24_11h44.26.678,LearnStrategy,2023.2.3,MacIntel,59.88023952,4,1,5,-0.089941406,0.416801758,1,0,0,0.7819,Basalt_01,2,01,6,4,0.782,-0.150439453,-0.245107422,1,0,0,0.7248,Basalt_rect,2,0.725,1,4,0,4,0,1,,,,,,,,,,,,,
6677157d21769b1ef48e1fd6,SCN,2024-06-24_11h44.26.678,LearnStrategy,2023.2.3,MacIntel,59.88023952,4,1,6,0.043310547,0.439746094,1,0,0,0.7824,Diorite_07,3,07,6,5,0.782,0.108037109,-0.25855957,1,0,0,0.7262,Diorite_rect,3,0.726,1,5,0,5,0,1,,,,,,,,,,,,,
6677157d21769b1ef48e1fd6,SCN,2024-06-24_11h44.26.678,LearnStrategy,2023.2.3,MacIntel,59.88023952,4,1,7,0.223623047,0.362651367,1,0,0,0.831,Pegmatite_16,6,16,6,6,0.831,-0.144472656,-0.391176758,1,0,0,1.193,Pegmatite_rect,6,1.193,1,6,0,6,0,1,,,,,,,,,,,,,
6677157d21769b1ef48e1fd6,SCN,2024-06-24_11h44.26.678,LearnStrategy,2023.2.3,MacIntel,59.88023952,4,1,8,0.392709961,0.391552734,1,0,0,0.6147,Pumice_02,8,02,6,7,0.615,0.349121094,-0.415986328,1,0,0,0.7921,Pumice_rect,8,0.792,1,7,0,7,0,1,,,,,,,,,,,,,
6677157d21769b1ef48e1fd6,SCN,2024-06-24_11h44.26.678,LearnStrategy,2023.2.3,MacIntel,59.88023952,4,1,9,0.550454102,0.416362305,1,0,0,0.732,Basalt_09,2,09,6,8,0.732,-0.125620117,-0.250546875,1,0,0,0.9105,Basalt_rect,2,0.911,1,8,0,8,0,1,,,,,,,,,,,,,
6677157d21769b1ef48e1fd6,SCN,2024-06-24_11h44.26.678,LearnStrategy,2023.2.3,MacIntel,59.88023952,4,1,10,-0.550629883,0.260332031,1,0,0,0.8484,Peridotite_10,7,10,5,1,0.848,0.091313477,-0.393120117,1,0,0,1.3095,Peridotite_rect,7,1.31,1,9,0,9,0,1,,,,,,,,,,,,,
6677157d21769b1ef48e1fd6,SCN,2024-06-24_11h44.26.678,LearnStrategy,2023.2.3,MacIntel,59.88023952,4,1,11,-0.367954102,0.236469727,1,0,0,1.0649,Gabbro_15,4,15,5,2,1.065,0.36074707,-0.23703125,1,0,0,1.6588,Gabbro_rect,4,1.659,1,10,0,10,0,1,,,,,,,,,,,,,
6677157d21769b1ef48e1fd6,SCN,2024-06-24_11h44.26.678,LearnStrategy,2023.2.3,MacIntel,59.88023952,4,1,12,-0.038876953,0.203701172,1,0,0,1.2312,Andesite_11,1,11,5,4,1.231,-0.365805664,-0.245351563,1,0,0,0.943,Andesite_rect,1,0.943,1,11,0,11,0,1,,,,,,,,,,,,,
6677157d21769b1ef48e1fd6,SCN,2024-06-24_11h44.26.678,LearnStrategy,2023.2.3,MacIntel,59.88023952,4,1,13,0.064912109,0.25871582,1,0,0,0.8322,Pumice_15,8,15,5,5,0.832,0.367548828,-0.412294922,1,0,0,2.0268,Pumice_rect,8,2.027,1,12,0,12,0,1,,,,,,,,,,,,,
6677157d21769b1ef48e1fd6,SCN,2024-06-24_11h44.26.678,LearnStrategy,2023.2.3,MacIntel,59.88023952,4,1,14,0.24487793,0.214399414,1,0,0,1.065,Andesite_02,1,02,5,6,1.065,-0.379960937,-0.256010742,1,0,0,1.1754,Andesite_rect,1,1.175,1,13,0,13,0,1,,,,,,,,,,,,,
6677157d21769b1ef48e1fd6,SCN,2024-06-24_11h44.26.678,LearnStrategy,2023.2.3,MacIntel,59.88023952,4,1,15,0.381210938,0.220180664,1,0,0,0.7318,Obsidian_07,5,07,5,7,0.732,-0.383203125,-0.386601562,1,0,0,0.9416,Obsidian_rect,5,0.942,1,14,0,14,0,1,,,,,,,,,,,,,
6677157d21769b1ef48e1fd6,SCN,2024-06-24_11h44.26.678,LearnStrategy,2023.2.3,MacIntel,59.88023952,4,1,16,0.518588867,0.233989258,1,0,0,0.8136,Pegmatite_03,6,03,5,8,0.814,-0.125493164,-0.420712891,1,0,0,1.1945,Pegmatite_rect,6,1.195,1,15,0,15,0,1,,,,,,,,,,,,,
6677157d21769b1ef48e1fd6,SCN,2024-06-24_11h44.26.678,LearnStrategy,2023.2.3,MacIntel,59.88023952,4,2,1,,,,,,,,2,12,,,,,,,,,,,8,2.09,0,,,,,,0.380371094,-0.404316406,1,0,0,2.0899,Pumice_rect,0,0,0,0,1,
6677157d21769b1ef48e1fd6,SCN,2024-06-24_11h44.26.678,LearnStrategy,2023.2.3,MacIntel,59.88023952,4,2,2,,,,,,,,3,11,,,,,,,,,,,3,2.426,1,,,,,,0.099208984,-0.23730957,1,0,0,2.4264,Diorite_rect,1,0,1,0,1,
6677157d21769b1ef48e1fd6,SCN,2024-06-24_11h44.26.678,LearnStrategy,2023.2.3,MacIntel,59.88023952,4,2,3,,,,,,,,6,11,,,,,,,,,,,6,1.365,1,,,,,,-0.167041016,-0.396049805,1,0,0,1.3647,Pegmatite_rect,2,0,2,0,1,
6677157d21769b1ef48e1fd6,SCN,2024-06-24_11h44.26.678,LearnStrategy,2023.2.3,MacIntel,59.88023952,4,2,4,,,,,,,,4,03,,,,,,,,,,,1,19.161,0,,,,,,-0.418149414,-0.241933594,1,0,0,19.1608,Andesite_rect,3,0,3,0,1,
6677157d21769b1ef48e1fd6,SCN,2024-06-24_11h44.26.678,LearnStrategy,2023.2.3,MacIntel,59.88023952,4,2,5,,,,,,,,7,16,,,,,,,,,,,7,2.315,1,,,,,,0.068129883,-0.397758789,1,0,0,2.3148,Peridotite_rect,4,0,4,0,1,
6677157d21769b1ef48e1fd6,SCN,2024-06-24_11h44.26.678,LearnStrategy,2023.2.3,MacIntel,59.88023952,4,2,6,,,,,,,,1,05,,,,,,,,,,,1,1.457,1,,,,,,-0.391191406,-0.258149414,1,0,0,1.4568,Andesite_rect,5,0,5,0,1,
6677157d21769b1ef48e1fd6,SCN,2024-06-24_11h44.26.678,LearnStrategy,2023.2.3,MacIntel,59.88023952,4,2,7,,,,,,,,4,09,,,,,,,,,,,4,2.09,1,,,,,,0.339033203,-0.260410156,1,0,0,2.0904,Gabbro_rect,6,0,6,0,1,
6677157d21769b1ef48e1fd6,SCN,2024-06-24_11h44.26.678,LearnStrategy,2023.2.3,MacIntel,59.88023952,4,2,8,,,,,,,,7,05,,,,,,,,,,,7,1.773,1,,,,,,0.092856445,-0.408569336,1,0,0,1.7732,Peridotite_rect,7,0,7,0,1,
6677157d21769b1ef48e1fd6,SCN,2024-06-24_11h44.26.678,LearnStrategy,2023.2.3,MacIntel,59.88023952,4,2,9,,,,,,,,3,06,,,,,,,,,,,3,1.257,1,,,,,,0.074165039,-0.232148437,1,0,0,1.2566,Diorite_rect,8,0,8,0,1,
6677157d21769b1ef48e1fd6,SCN,2024-06-24_11h44.26.678,LearnStrategy,2023.2.3,MacIntel,59.88023952,4,2,10,,,,,,,,1,16,,,,,,,,,,,1,1.291,1,,,,,,-0.38902832,-0.252514648,1,0,0,1.2911,Andesite_rect,9,0,9,0,1,
6677157d21769b1ef48e1fd6,SCN,2024-06-24_11h44.26.678,LearnStrategy,2023.2.3,MacIntel,59.88023952,4,2,11,,,,,,,,2,05,,,,,,,,,,,2,0.908,1,,,,,,-0.155283203,-0.258276367,1,0,0,0.9079,Basalt_rect,10,0,10,0,1,
6677157d21769b1ef48e1fd6,SCN,2024-06-24_11h44.26.678,LearnStrategy,2023.2.3,MacIntel,59.88023952,4,2,12,,,,,,,,5,04,,,,,,,,,,,5,1.558,1,,,,,,-0.363046875,-0.386860352,1,0,0,1.5581,Obsidian_rect,11,0,11,0,1,
6677157d21769b1ef48e1fd6,SCN,2024-06-24_11h44.26.678,LearnStrategy,2023.2.3,MacIntel,59.88023952,4,2,13,,,,,,,,6,07,,,,,,,,,,,6,2.042,1,,,,,,-0.131782227,-0.403950195,1,0,0,2.0418,Pegmatite_rect,12,0,12,0,1,
6677157d21769b1ef48e1fd6,SCN,2024-06-24_11h44.26.678,LearnStrategy,2023.2.3,MacIntel,59.88023952,4,2,14,,,,,,,,5,10,,,,,,,,,,,5,1.158,1,,,,,,-0.400805664,-0.393203125,1,0,0,1.158,Obsidian_rect,13,0,13,0,1,
6677157d21769b1ef48e1fd6,SCN,2024-06-24_11h44.26.678,LearnStrategy,2023.2.3,MacIntel,59.88023952,4,2,15,,,,,,,,8,08,,,,,,,,,,,8,0.858,1,,,,,,0.369257813,-0.421269531,1,0,0,0.8576,Pumice_rect,14,0,14,0,1,
6677157d21769b1ef48e1fd6,SCN,2024-06-24_11h44.26.678,LearnStrategy,2023.2.3,MacIntel,59.88023952,4,2,16,,,,,,,,8,14,,,,,,,,,,,8,0.858,1,,,,,,0.356318359,-0.383217773,1,0,0,0.8578,Pumice_rect,15,0,15,0,1,
6677157d21769b1ef48e1fd6,SCN,2024-06-24_11h44.26.678,LearnStrategy,2023.2.3,MacIntel,59.88023952,5,1,1,-0.571547852,0.121064453,1,0,0,1.8324,Pumice_06,8,06,4,1,1.832,0.363154297,-0.406582031,1,0,0,1.2071,Pumice_rect,8,1.207,1,0,0,0,0,1,,,,,,,,,,,,,
6677157d21769b1ef48e1fd6,SCN,2024-06-24_11h44.26.678,LearnStrategy,2023.2.3,MacIntel,59.88023952,5,1,2,-0.375893555,0.107900391,1,0,0,0.5507,Gabbro_12,4,12,4,2,0.551,0.342734375,-0.254760742,1,0,0,8.2119,Gabbro_rect,4,8.212,1,1,0,1,0,1,,,,,,,,,,,,,
6677157d21769b1ef48e1fd6,SCN,2024-06-24_11h44.26.678,LearnStrategy,2023.2.3,MacIntel,59.88023952,5,1,3,-0.281098633,0.103388672,1,0,0,0.5494,Andesite_04,1,04,4,3,0.549,-0.37456543,-0.251586914,1,0,0,2.8074,Andesite_rect,1,2.807,1,2,0,2,0,1,,,,,,,,,,,,,
6677157d21769b1ef48e1fd6,SCN,2024-06-24_11h44.26.678,LearnStrategy,2023.2.3,MacIntel,59.88023952,5,1,4,-0.052978516,0.0690625,1,0,0,0.5313,Andesite_03,1,03,4,4,0.531,-0.411459961,-0.256108398,1,0,0,1.6273,Andesite_rect,1,1.627,1,3,0,3,0,1,,,,,,,,,,,,,
6677157d21769b1ef48e1fd6,SCN,2024-06-24_11h44.26.678,LearnStrategy,2023.2.3,MacIntel,59.88023952,5,1,5,0.042695312,0.04671875,1,0,0,0.5653,Gabbro_10,4,10,4,5,0.565,0.350317383,-0.268500977,1,0,0,1.2279,Gabbro_rect,4,1.228,1,4,0,4,0,1,,,,,,,,,,,,,
6677157d21769b1ef48e1fd6,SCN,2024-06-24_11h44.26.678,LearnStrategy,2023.2.3,MacIntel,59.88023952,5,1,6,0.256704102,0.097851563,1,0,0,0.5989,Gabbro_11,4,11,4,6,0.599,-0.199560547,-0.245019531,1,0,0,1.1428,Basalt_rect,2,1.143,0,5,0,5,0,1,,,,,,,,,,,,,
6677157d21769b1ef48e1fd6,SCN,2024-06-24_11h44.26.678,LearnStrategy,2023.2.3,MacIntel,59.88023952,5,1,7,0.409960938,0.067197266,1,0,0,0.5668,Pegmatite_09,6,09,4,7,0.567,-0.132529297,-0.392705078,1,0,0,0.777,Pegmatite_rect,6,0.777,1,6,0,6,0,1,,,,,,,,,,,,,
6677157d21769b1ef48e1fd6,SCN,2024-06-24_11h44.26.678,LearnStrategy,2023.2.3,MacIntel,59.88023952,5,1,8,0.570786133,0.066943359,1,0,0,0.614,Obsidian_08,5,08,4,8,0.614,-0.409360352,-0.381162109,1,0,0,1.2441,Obsidian_rect,5,1.244,1,7,0,7,0,1,,,,,,,,,,,,,
6677157d21769b1ef48e1fd6,SCN,2024-06-24_11h44.26.678,LearnStrategy,2023.2.3,MacIntel,59.88023952,5,1,9,-0.550214844,-0.119086914,1,0,0,0.7151,Pumice_09,8,09,3,1,0.715,0.299926758,-0.412368164,1,0,0,0.6411,Pumice_rect,8,0.641,1,8,0,8,0,1,,,,,,,,,,,,,
6677157d21769b1ef48e1fd6,SCN,2024-06-24_11h44.26.678,LearnStrategy,2023.2.3,MacIntel,59.88023952,5,1,10,-0.421674805,-0.11425293,1,0,0,0.6316,Peridotite_12,7,12,3,2,0.632,0.160556641,-0.411044922,1,0,0,0.8244,Peridotite_rect,7,0.824,1,9,0,9,0,1,,,,,,,,,,,,,
6677157d21769b1ef48e1fd6,SCN,2024-06-24_11h44.26.678,LearnStrategy,2023.2.3,MacIntel,59.88023952,5,1,11,-0.211035156,-0.123598633,1,0,0,0.5827,Peridotite_04,7,04,3,3,0.583,0.129555664,-0.397983398,1,0,0,0.7926,Peridotite_rect,7,0.793,1,10,0,10,0,1,,,,,,,,,,,,,
6677157d21769b1ef48e1fd6,SCN,2024-06-24_11h44.26.678,LearnStrategy,2023.2.3,MacIntel,59.88023952,5,1,12,-0.084697266,-0.137348633,1,0,0,0.6313,Pegmatite_05,6,05,3,4,0.631,-0.082998047,-0.401044922,1,0,0,0.8105,Pegmatite_rect,6,0.811,1,11,0,11,0,1,,,,,,,,,,,,,
6677157d21769b1ef48e1fd6,SCN,2024-06-24_11h44.26.678,LearnStrategy,2023.2.3,MacIntel,59.88023952,5,1,13,0.070976563,-0.089111328,1,0,0,0.5311,Peridotite_02,7,02,3,5,0.531,0.12234375,-0.396191406,1,0,0,1.1774,Peridotite_rect,7,1.177,1,12,0,12,0,1,,,,,,,,,,,,,
6677157d21769b1ef48e1fd6,SCN,2024-06-24_11h44.26.678,LearnStrategy,2023.2.3,MacIntel,59.88023952,5,1,14,0.231137695,-0.118178711,1,0,0,0.5983,Pumice_05,8,05,3,6,0.598,0.353999023,-0.405068359,1,0,0,0.494,Pumice_rect,8,0.494,1,13,0,13,0,1,,,,,,,,,,,,,
6677157d21769b1ef48e1fd6,SCN,2024-06-24_11h44.26.678,LearnStrategy,2023.2.3,MacIntel,59.88023952,5,1,15,0.393330078,-0.118540039,1,0,0,0.5826,Basalt_06,2,06,3,7,0.583,-0.089912109,-0.231914062,1,0,0,1.009,Basalt_rect,2,1.009,1,14,0,14,0,1,,,,,,,,,,,,,
6677157d21769b1ef48e1fd6,SCN,2024-06-24_11h44.26.678,LearnStrategy,2023.2.3,MacIntel,59.88023952,5,1,16,0.575791016,-0.134570313,1,0,0,0.6487,Obsidian_14,5,14,3,8,0.649,-0.324355469,-0.387568359,1,0,0,0.7257,Obsidian_rect,5,0.726,1,15,0,15,0,1,,,,,,,,,,,,,
6677157d21769b1ef48e1fd6,SCN,2024-06-24_11h44.26.678,LearnStrategy,2023.2.3,MacIntel,59.88023952,5,2,1,,,,,,,,3,14,,,,,,,,,,,3,1.258,1,,,,,,0.082705078,-0.244375,1,0,0,1.258,Diorite_rect,0,0,0,0,1,
6677157d21769b1ef48e1fd6,SCN,2024-06-24_11h44.26.678,LearnStrategy,2023.2.3,MacIntel,59.88023952,5,2,2,,,,,,,,8,03,,,,,,,,,,,8,0.975,1,,,,,,0.322607422,-0.401635742,1,0,0,0.9747,Pumice_rect,1,0,1,0,1,
6677157d21769b1ef48e1fd6,SCN,2024-06-24_11h44.26.678,LearnStrategy,2023.2.3,MacIntel,59.88023952,5,2,3,,,,,,,,4,14,,,,,,,,,,,4,6.891,1,,,,,,0.347919922,-0.250742187,1,0,0,6.8908,Gabbro_rect,2,0,2,0,1,
6677157d21769b1ef48e1fd6,SCN,2024-06-24_11h44.26.678,LearnStrategy,2023.2.3,MacIntel,59.88023952,5,2,4,,,,,,,,4,08,,,,,,,,,,,4,4,1,,,,,,0.379750977,-0.254824219,1,0,0,3.9999,Gabbro_rect,3,0,3,0,1,
6677157d21769b1ef48e1fd6,SCN,2024-06-24_11h44.26.678,LearnStrategy,2023.2.3,MacIntel,59.88023952,5,2,5,,,,,,,,2,16,,,,,,,,,,,2,2.38,1,,,,,,-0.144150391,-0.245917969,1,0,0,2.3803,Basalt_rect,4,0,4,0,1,
6677157d21769b1ef48e1fd6,SCN,2024-06-24_11h44.26.678,LearnStrategy,2023.2.3,MacIntel,59.88023952,5,2,6,,,,,,,,8,10,,,,,,,,,,,8,1.34,1,,,,,,0.316904297,-0.419794922,1,0,0,1.3396,Pumice_rect,5,0,5,0,1,
6677157d21769b1ef48e1fd6,SCN,2024-06-24_11h44.26.678,LearnStrategy,2023.2.3,MacIntel,59.88023952,5,2,7,,,,,,,,2,02,,,,,,,,,,,2,1.993,1,,,,,,-0.152446289,-0.260820312,1,0,0,1.9927,Basalt_rect,6,0,6,0,1,
6677157d21769b1ef48e1fd6,SCN,2024-06-24_11h44.26.678,LearnStrategy,2023.2.3,MacIntel,59.88023952,5,2,8,,,,,,,,5,09,,,,,,,,,,,5,0.924,1,,,,,,-0.375605469,-0.40065918,1,0,0,0.9237,Obsidian_rect,7,0,7,0,1,
6677157d21769b1ef48e1fd6,SCN,2024-06-24_11h44.26.678,LearnStrategy,2023.2.3,MacIntel,59.88023952,5,2,9,,,,,,,,7,07,,,,,,,,,,,7,1.493,1,,,,,,0.107109375,-0.389985352,1,0,0,1.4925,Peridotite_rect,8,0,8,0,1,
6677157d21769b1ef48e1fd6,SCN,2024-06-24_11h44.26.678,LearnStrategy,2023.2.3,MacIntel,59.88023952,5,2,10,,,,,,,,7,06,,,,,,,,,,,7,0.992,1,,,,,,0.094648438,-0.418608398,1,0,0,0.9918,Peridotite_rect,9,0,9,0,1,
6677157d21769b1ef48e1fd6,SCN,2024-06-24_11h44.26.678,LearnStrategy,2023.2.3,MacIntel,59.88023952,5,2,11,,,,,,,,5,05,,,,,,,,,,,5,1.606,1,,,,,,-0.363100586,-0.404858398,1,0,0,1.6062,Obsidian_rect,10,0,10,0,1,
6677157d21769b1ef48e1fd6,SCN,2024-06-24_11h44.26.678,LearnStrategy,2023.2.3,MacIntel,59.88023952,5,2,12,,,,,,,,1,07,,,,,,,,,,,1,1.142,1,,,,,,-0.394643555,-0.243681641,1,0,0,1.1415,Andesite_rect,11,0,11,0,1,
6677157d21769b1ef48e1fd6,SCN,2024-06-24_11h44.26.678,LearnStrategy,2023.2.3,MacIntel,59.88023952,5,2,13,,,,,,,,6,13,,,,,,,,,,,6,1.19,1,,,,,,-0.129902344,-0.392182617,1,0,0,1.19,Pegmatite_rect,12,0,12,0,1,
6677157d21769b1ef48e1fd6,SCN,2024-06-24_11h44.26.678,LearnStrategy,2023.2.3,MacIntel,59.88023952,5,2,14,,,,,,,,6,10,,,,,,,,,,,6,1.49,1,,,,,,-0.099492187,-0.398222656,1,0,0,1.4904,Pegmatite_rect,13,0,13,0,1,
6677157d21769b1ef48e1fd6,SCN,2024-06-24_11h44.26.678,LearnStrategy,2023.2.3,MacIntel,59.88023952,5,2,15,,,,,,,,3,02,,,,,,,,,,,3,22.358,1,,,,,,0.125805664,-0.245888672,1,0,0,22.3579,Diorite_rect,14,0,14,0,1,
6677157d21769b1ef48e1fd6,SCN,2024-06-24_11h44.26.678,LearnStrategy,2023.2.3,MacIntel,59.88023952,5,2,16,,,,,,,,1,01,,,,,,,,,,,4,12.699,0,,,,,,0.403754883,-0.26793457,1,0,0,12.6986,Gabbro_rect,15,0,15,0,1,
6677157d21769b1ef48e1fd6,SCN,2024-06-24_11h44.26.678,LearnStrategy,2023.2.3,MacIntel,59.88023952,6,1,1,-0.536459961,-0.107211914,1,0,0,0.865,Pumice_09,8,09,3,1,0.865,0.346020508,-0.415625,1,0,0,0.6937,Pumice_rect,8,0.694,1,0,0,0,0,1,,,,,,,,,,,,,
6677157d21769b1ef48e1fd6,SCN,2024-06-24_11h44.26.678,LearnStrategy,2023.2.3,MacIntel,59.88023952,6,1,2,-0.3709375,-0.109042969,1,0,0,0.5489,Peridotite_12,7,12,3,2,0.549,0.154946289,-0.385522461,1,0,0,0.7753,Peridotite_rect,7,0.775,1,1,0,1,0,1,,,,,,,,,,,,,
6677157d21769b1ef48e1fd6,SCN,2024-06-24_11h44.26.678,LearnStrategy,2023.2.3,MacIntel,59.88023952,6,1,3,0.076879883,-0.417416992,1,0,0,0.6142,Basalt_08,2,08,1,5,0.614,-0.212631836,-0.247714844,1,0,0,0.4456,Basalt_rect,2,0.446,1,2,0,2,0,1,,,,,,,,,,,,,
6677157d21769b1ef48e1fd6,SCN,2024-06-24_11h44.26.678,LearnStrategy,2023.2.3,MacIntel,59.88023952,6,1,4,0.230400391,-0.396430664,1,0,0,0.649,Basalt_14,2,14,1,6,0.649,0.392768555,-0.394833984,1,0,0,0.9431,Pumice_rect,8,0.943,0,3,0,3,0,1,,,,,,,,,,,,,
6677157d21769b1ef48e1fd6,SCN,2024-06-24_11h44.26.678,LearnStrategy,2023.2.3,MacIntel,59.88023952,6,1,5,0.391884766,-0.24340332,1,0,0,0.6985,Andesite_14,1,14,2,7,0.698,-0.361977539,-0.240170898,1,0,0,1.0405,Andesite_rect,1,1.041,1,4,0,4,0,1,,,,,,,,,,,,,
6677157d21769b1ef48e1fd6,SCN,2024-06-24_11h44.26.678,LearnStrategy,2023.2.3,MacIntel,59.88023952,6,1,6,0.265292969,-0.427426758,1,0,0,0.6647,Basalt_14,2,14,1,6,0.665,0.353745117,-0.395395508,1,0,0,0.659,Pumice_rect,8,0.659,0,5,0,5,0,1,,,,,,,,,,,,,
6677157d21769b1ef48e1fd6,SCN,2024-06-24_11h44.26.678,LearnStrategy,2023.2.3,MacIntel,59.88023952,6,1,7,0.278383789,0.256879883,1,0,0,2.282,Andesite_02,1,02,5,6,2.282,-0.408686523,-0.259477539,1,0,0,1.2264,Andesite_rect,1,1.226,1,6,0,6,0,1,,,,,,,,,,,,,
6677157d21769b1ef48e1fd6,SCN,2024-06-24_11h44.26.678,LearnStrategy,2023.2.3,MacIntel,59.88023952,6,1,8,-0.064130859,0.273139648,1,0,0,0.7161,Andesite_11,1,11,5,4,0.716,-0.395654297,-0.231352539,1,0,0,0.6579,Andesite_rect,1,0.658,1,7,0,7,0,1,,,,,,,,,,,,,
6677157d21769b1ef48e1fd6,SCN,2024-06-24_11h44.26.678,LearnStrategy,2023.2.3,MacIntel,59.88023952,6,1,9,-0.238632813,0.242822266,1,0,0,0.7477,Obsidian_12,5,12,5,3,0.748,-0.408081055,-0.389726562,1,0,0,1.0611,Obsidian_rect,5,1.061,1,8,0,8,0,1,,,,,,,,,,,,,
6677157d21769b1ef48e1fd6,SCN,2024-06-24_11h44.26.678,LearnStrategy,2023.2.3,MacIntel,59.88023952,6,1,10,-0.397485352,-0.246914063,1,0,0,1.1303,Pegmatite_15,6,15,2,2,1.13,-0.109282227,-0.379858398,1,0,0,0.8093,Pegmatite_rect,6,0.809,1,9,0,9,0,1,,,,,,,,,,,,,
6677157d21769b1ef48e1fd6,SCN,2024-06-24_11h44.26.678,LearnStrategy,2023.2.3,MacIntel,59.88023952,6,1,11,-0.557700195,-0.446518555,1,0,0,0.915,Obsidian_02,5,02,1,1,0.915,-0.376967773,-0.413330078,1,0,0,0.5749,Obsidian_rect,5,0.575,1,10,0,10,0,1,,,,,,,,,,,,,
6677157d21769b1ef48e1fd6,SCN,2024-06-24_11h44.26.678,LearnStrategy,2023.2.3,MacIntel,59.88023952,6,1,12,-0.069067383,-0.107670898,1,0,0,0.6331,Pegmatite_05,6,05,3,4,0.633,-0.125551758,-0.389975586,1,0,0,1.3412,Pegmatite_rect,6,1.341,1,11,0,11,0,1,,,,,,,,,,,,,
6677157d21769b1ef48e1fd6,SCN,2024-06-24_11h44.26.678,LearnStrategy,2023.2.3,MacIntel,59.88023952,6,1,13,0.068876953,-0.375263672,1,0,0,0.7482,Basalt_08,2,08,1,5,0.748,-0.135488281,-0.257299805,1,0,0,1.1591,Basalt_rect,2,1.159,1,12,0,12,0,1,,,,,,,,,,,,,
6677157d21769b1ef48e1fd6,SCN,2024-06-24_11h44.26.678,LearnStrategy,2023.2.3,MacIntel,59.88023952,6,1,14,-0.249189453,-0.112412109,1,0,0,0.5992,Peridotite_04,7,04,3,3,0.599,0.084213867,-0.389160156,1,0,0,0.6263,Peridotite_rect,7,0.626,1,13,0,13,0,1,,,,,,,,,,,,,
6677157d21769b1ef48e1fd6,SCN,2024-06-24_11h44.26.678,LearnStrategy,2023.2.3,MacIntel,59.88023952,6,1,15,-0.207939453,0.065556641,1,0,0,0.5805,Andesite_04,1,04,4,3,0.581,-0.438164063,-0.229545898,1,0,0,0.6775,Andesite_rect,1,0.678,1,14,0,14,0,1,,,,,,,,,,,,,
6677157d21769b1ef48e1fd6,SCN,2024-06-24_11h44.26.678,LearnStrategy,2023.2.3,MacIntel,59.88023952,6,1,16,-0.239555664,0.22027832,1,0,0,0.7984,Obsidian_12,5,12,5,3,0.798,-0.420771484,-0.414951172,1,0,0,1.2777,Obsidian_rect,5,1.278,1,15,0,15,0,1,,,,,,,,,,,,,
6677157d21769b1ef48e1fd6,SCN,2024-06-24_11h44.26.678,LearnStrategy,2023.2.3,MacIntel,59.88023952,6,2,1,,,,,,,,5,16,,,,,,,,,,,5,0.992,1,,,,,,-0.388774414,-0.385556641,1,0,0,0.9917,Obsidian_rect,0,0,0,0,1,
6677157d21769b1ef48e1fd6,SCN,2024-06-24_11h44.26.678,LearnStrategy,2023.2.3,MacIntel,59.88023952,6,2,2,,,,,,,,4,13,,,,,,,,,,,4,5.41,1,,,,,,0.372124023,-0.246762695,1,0,0,5.4097,Gabbro_rect,1,0,1,0,1,
6677157d21769b1ef48e1fd6,SCN,2024-06-24_11h44.26.678,LearnStrategy,2023.2.3,MacIntel,59.88023952,6,2,3,,,,,,,,2,11,,,,,,,,,,,8,2.398,0,,,,,,0.332626953,-0.398730469,1,0,0,2.3977,Pumice_rect,2,0,2,0,1,
6677157d21769b1ef48e1fd6,SCN,2024-06-24_11h44.26.678,LearnStrategy,2023.2.3,MacIntel,59.88023952,6,2,4,,,,,,,,2,04,,,,,,,,,,,2,1.032,1,,,,,,-0.151147461,-0.243178711,1,0,0,1.0321,Basalt_rect,3,0,3,0,1,
6677157d21769b1ef48e1fd6,SCN,2024-06-24_11h44.26.678,LearnStrategy,2023.2.3,MacIntel,59.88023952,6,2,5,,,,,,,,1,09,,,,,,,,,,,1,1.056,1,,,,,,-0.396967773,-0.242978516,1,0,0,1.0562,Andesite_rect,4,0,4,0,1,
6677157d21769b1ef48e1fd6,SCN,2024-06-24_11h44.26.678,LearnStrategy,2023.2.3,MacIntel,59.88023952,6,2,6,,,,,,,,4,16,,,,,,,,,,,4,3.156,1,,,,,,0.354960938,-0.251079102,1,0,0,3.1562,Gabbro_rect,5,0,5,0,1,
6677157d21769b1ef48e1fd6,SCN,2024-06-24_11h44.26.678,LearnStrategy,2023.2.3,MacIntel,59.88023952,6,2,7,,,,,,,,3,08,,,,,,,,,,,3,1.805,1,,,,,,0.105092773,-0.251318359,1,0,0,1.805,Diorite_rect,6,0,6,0,1,
6677157d21769b1ef48e1fd6,SCN,2024-06-24_11h44.26.678,LearnStrategy,2023.2.3,MacIntel,59.88023952,6,2,8,,,,,,,,8,16,,,,,,,,,,,8,1.074,1,,,,,,0.354643555,-0.418774414,1,0,0,1.0737,Pumice_rect,7,0,7,0,1,
6677157d21769b1ef48e1fd6,SCN,2024-06-24_11h44.26.678,LearnStrategy,2023.2.3,MacIntel,59.88023952,6,2,9,,,,,,,,5,11,,,,,,,,,,,5,1.174,1,,,,,,-0.404335938,-0.392866211,1,0,0,1.1743,Obsidian_rect,8,0,8,0,1,
6677157d21769b1ef48e1fd6,SCN,2024-06-24_11h44.26.678,LearnStrategy,2023.2.3,MacIntel,59.88023952,6,2,10,,,,,,,,7,15,,,,,,,,,,,7,1.007,1,,,,,,0.089365234,-0.395498047,1,0,0,1.0068,Peridotite_rect,9,0,9,0,1,
6677157d21769b1ef48e1fd6,SCN,2024-06-24_11h44.26.678,LearnStrategy,2023.2.3,MacIntel,59.88023952,6,2,11,,,,,,,,3,13,,,,,,,,,,,3,1.523,1,,,,,,0.120791016,-0.230673828,1,0,0,1.5232,Diorite_rect,10,0,10,0,1,
6677157d21769b1ef48e1fd6,SCN,2024-06-24_11h44.26.678,LearnStrategy,2023.2.3,MacIntel,59.88023952,6,2,12,,,,,,,,7,13,,,,,,,,,,,7,0.858,1,,,,,,0.127475586,-0.410258789,1,0,0,0.8578,Peridotite_rect,11,0,11,0,1,
6677157d21769b1ef48e1fd6,SCN,2024-06-24_11h44.26.678,LearnStrategy,2023.2.3,MacIntel,59.88023952,6,2,13,,,,,,,,6,08,,,,,,,,,,,6,0.875,1,,,,,,-0.104643555,-0.395131836,1,0,0,0.8749,Pegmatite_rect,12,0,12,0,1,
6677157d21769b1ef48e1fd6,SCN,2024-06-24_11h44.26.678,LearnStrategy,2023.2.3,MacIntel,59.88023952,6,2,14,,,,,,,,1,06,,,,,,,,,,,1,2.057,1,,,,,,-0.403803711,-0.250356445,1,0,0,2.0573,Andesite_rect,13,0,13,0,1,
6677157d21769b1ef48e1fd6,SCN,2024-06-24_11h44.26.678,LearnStrategy,2023.2.3,MacIntel,59.88023952,6,2,15,,,,,,,,8,04,,,,,,,,,,,8,1.007,1,,,,,,0.367202148,-0.421342773,1,0,0,1.007,Pumice_rect,14,0,14,0,1,
6677157d21769b1ef48e1fd6,SCN,2024-06-24_11h44.26.678,LearnStrategy,2023.2.3,MacIntel,59.88023952,6,2,16,,,,,,,,6,12,,,,,,,,,,,6,1.106,1,,,,,,-0.138046875,-0.412514648,1,0,0,1.1063,Pegmatite_rect,15,0,15,0,1,
6677157d21769b1ef48e1fd6,SCN,2024-06-24_11h44.26.678,LearnStrategy,2023.2.3,MacIntel,59.88023952,7,1,1,-0.570712891,-0.105117188,1,0,0,0.7326,Pumice_09,8,09,3,1,0.733,0.359545898,-0.379233398,1,0,0,0.6256,Pumice_rect,8,0.626,1,0,0,0,0,1,,,,,,,,,,,,,
6677157d21769b1ef48e1fd6,SCN,2024-06-24_11h44.26.678,LearnStrategy,2023.2.3,MacIntel,59.88023952,7,1,2,-0.113598633,-0.245029297,1,0,0,0.5648,Diorite_15,3,15,2,4,0.565,-0.383945313,-0.238935547,1,0,0,1.3768,Andesite_rect,1,1.377,0,1,0,1,0,1,,,,,,,,,,,,,
6677157d21769b1ef48e1fd6,SCN,2024-06-24_11h44.26.678,LearnStrategy,2023.2.3,MacIntel,59.88023952,7,1,3,0.522109375,-0.390307617,1,0,0,1.4479,Peridotite_14,7,14,1,8,1.448,0.1946875,-0.381323242,1,0,0,1.0767,Peridotite_rect,7,1.077,1,2,0,2,0,1,,,,,,,,,,,,,
6677157d21769b1ef48e1fd6,SCN,2024-06-24_11h44.26.678,LearnStrategy,2023.2.3,MacIntel,59.88023952,7,1,4,0.523525391,-0.409003906,1,0,0,0.6177,Peridotite_14,7,14,1,8,0.618,0.228393555,-0.406191406,1,0,0,0.4762,Peridotite_rect,7,0.476,1,3,0,3,0,1,,,,,,,,,,,,,
6677157d21769b1ef48e1fd6,SCN,2024-06-24_11h44.26.678,LearnStrategy,2023.2.3,MacIntel,59.88023952,7,1,5,0.516020508,-0.418779297,1,0,0,0.6802,Peridotite_14,7,14,1,8,0.68,0.104956055,-0.40800293,1,0,0,0.5777,Peridotite_rect,7,0.578,1,4,0,4,0,1,,,,,,,,,,,,,
6677157d21769b1ef48e1fd6,SCN,2024-06-24_11h44.26.678,LearnStrategy,2023.2.3,MacIntel,59.88023952,7,1,6,0.502041016,-0.438154297,1,0,0,0.6811,Peridotite_14,7,14,1,8,0.681,0.11590332,-0.396977539,1,0,0,0.8582,Peridotite_rect,7,0.858,1,5,0,5,0,1,,,,,,,,,,,,,
6677157d21769b1ef48e1fd6,SCN,2024-06-24_11h44.26.678,LearnStrategy,2023.2.3,MacIntel,59.88023952,7,1,7,0.527446289,-0.419902344,1,0,0,0.6644,Peridotite_14,7,14,1,8,0.664,0.180644531,-0.405068359,1,0,0,0.544,Peridotite_rect,7,0.544,1,6,0,6,0,1,,,,,,,,,,,,,
6677157d21769b1ef48e1fd6,SCN,2024-06-24_11h44.26.678,LearnStrategy,2023.2.3,MacIntel,59.88023952,7,1,8,0.534228516,-0.398735352,1,0,0,0.7485,Peridotite_14,7,14,1,8,0.748,0.168017578,-0.400693359,1,0,0,0.5244,Peridotite_rect,7,0.524,1,7,0,7,0,1,,,,,,,,,,,,,
6677157d21769b1ef48e1fd6,SCN,2024-06-24_11h44.26.678,LearnStrategy,2023.2.3,MacIntel,59.88023952,7,1,9,0.549887695,-0.463598633,1,0,0,0.6149,Peridotite_14,7,14,1,8,0.615,0.116787109,-0.388613281,1,0,0,1.1431,Peridotite_rect,7,1.143,1,8,0,8,0,1,,,,,,,,,,,,,
6677157d21769b1ef48e1fd6,SCN,2024-06-24_11h44.26.678,LearnStrategy,2023.2.3,MacIntel,59.88023952,7,1,10,0.545844727,-0.404785156,1,0,0,0.6318,Peridotite_14,7,14,1,8,0.632,0.147363281,-0.388959961,1,0,0,0.4593,Peridotite_rect,7,0.459,1,9,0,9,0,1,,,,,,,,,,,,,
6677157d21769b1ef48e1fd6,SCN,2024-06-24_11h44.26.678,LearnStrategy,2023.2.3,MacIntel,59.88023952,7,1,11,0.526538086,-0.392114258,1,0,0,0.6305,Peridotite_14,7,14,1,8,0.63,0.10328125,-0.406308594,1,0,0,0.4272,Peridotite_rect,7,0.427,1,10,0,10,0,1,,,,,,,,,,,,,
6677157d21769b1ef48e1fd6,SCN,2024-06-24_11h44.26.678,LearnStrategy,2023.2.3,MacIntel,59.88023952,7,1,12,0.507631836,-0.418857422,1,0,0,0.615,Peridotite_14,7,14,1,8,0.615,0.200283203,-0.397045898,1,0,0,0.6436,Peridotite_rect,7,0.644,1,11,0,11,0,1,,,,,,,,,,,,,
6677157d21769b1ef48e1fd6,SCN,2024-06-24_11h44.26.678,LearnStrategy,2023.2.3,MacIntel,59.88023952,7,1,13,0.555024414,-0.422016602,1,0,0,0.6156,Peridotite_14,7,14,1,8,0.616,0.131879883,-0.402573242,1,0,0,0.4106,Peridotite_rect,7,0.411,1,12,0,12,0,1,,,,,,,,,,,,,
6677157d21769b1ef48e1fd6,SCN,2024-06-24_11h44.26.678,LearnStrategy,2023.2.3,MacIntel,59.88023952,7,1,14,0.536113281,-0.421611328,1,0,0,0.647,Peridotite_14,7,14,1,8,0.647,0.14965332,-0.403574219,1,0,0,0.4108,Peridotite_rect,7,0.411,1,13,0,13,0,1,,,,,,,,,,,,,
6677157d21769b1ef48e1fd6,SCN,2024-06-24_11h44.26.678,LearnStrategy,2023.2.3,MacIntel,59.88023952,7,1,15,0.531318359,-0.417861328,1,0,0,0.7974,Peridotite_14,7,14,1,8,0.797,0.203041992,-0.410712891,1,0,0,0.3937,Peridotite_rect,7,0.394,1,14,0,14,0,1,,,,,,,,,,,,,
6677157d21769b1ef48e1fd6,SCN,2024-06-24_11h44.26.678,LearnStrategy,2023.2.3,MacIntel,59.88023952,7,1,16,0.35515625,-0.248520508,1,0,0,0.6485,Andesite_14,1,14,2,7,0.648,-0.332241211,-0.250107422,1,0,0,2.0407,Andesite_rect,1,2.041,1,15,0,15,0,1,,,,,,,,,,,,,
6677157d21769b1ef48e1fd6,SCN,2024-06-24_11h44.26.678,LearnStrategy,2023.2.3,MacIntel,59.88023952,7,2,1,,,,,,,,4,13,,,,,,,,,,,4,2.19,1,,,,,,0.415371094,-0.249111328,1,0,0,2.1899,Gabbro_rect,0,0,0,0,1,
6677157d21769b1ef48e1fd6,SCN,2024-06-24_11h44.26.678,LearnStrategy,2023.2.3,MacIntel,59.88023952,7,2,2,,,,,,,,1,05,,,,,,,,,,,1,1.578,1,,,,,,-0.406674805,-0.233564453,1,0,0,1.5777,Andesite_rect,1,0,1,0,1,
6677157d21769b1ef48e1fd6,SCN,2024-06-24_11h44.26.678,LearnStrategy,2023.2.3,MacIntel,59.88023952,7,2,3,,,,,,,,4,14,,,,,,,,,,,4,2.125,1,,,,,,0.342719727,-0.233105469,1,0,0,2.1249,Gabbro_rect,2,0,2,0,1,
6677157d21769b1ef48e1fd6,SCN,2024-06-24_11h44.26.678,LearnStrategy,2023.2.3,MacIntel,59.88023952,7,2,4,,,,,,,,2,02,,,,,,,,,,,2,1.563,1,,,,,,-0.141914062,-0.244008789,1,0,0,1.5633,Basalt_rect,3,0,3,0,1,
6677157d21769b1ef48e1fd6,SCN,2024-06-24_11h44.26.678,LearnStrategy,2023.2.3,MacIntel,59.88023952,7,2,5,,,,,,,,3,11,,,,,,,,,,,3,1.175,1,,,,,,0.075219727,-0.231162109,1,0,0,1.1751,Diorite_rect,4,0,4,0,1,
6677157d21769b1ef48e1fd6,SCN,2024-06-24_11h44.26.678,LearnStrategy,2023.2.3,MacIntel,59.88023952,7,2,6,,,,,,,,2,11,,,,,,,,,,,8,1.49,0,,,,,,0.317182617,-0.404394531,1,0,0,1.4904,Pumice_rect,5,0,5,0,1,
6677157d21769b1ef48e1fd6,SCN,2024-06-24_11h44.26.678,LearnStrategy,2023.2.3,MacIntel,59.88023952,7,2,7,,,,,,,,8,10,,,,,,,,,,,8,1.173,1,,,,,,0.338994141,-0.396689453,1,0,0,1.1732,Pumice_rect,6,0,6,0,1,
6677157d21769b1ef48e1fd6,SCN,2024-06-24_11h44.26.678,LearnStrategy,2023.2.3,MacIntel,59.88023952,7,2,8,,,,,,,,5,05,,,,,,,,,,,5,1.073,1,,,,,,-0.459038086,-0.398740234,1,0,0,1.0735,Obsidian_rect,7,0,7,0,1,
6677157d21769b1ef48e1fd6,SCN,2024-06-24_11h44.26.678,LearnStrategy,2023.2.3,MacIntel,59.88023952,7,2,9,,,,,,,,7,15,,,,,,,,,,,7,0.825,1,,,,,,0.11152832,-0.401826172,1,0,0,0.8249,Peridotite_rect,8,0,8,0,1,
6677157d21769b1ef48e1fd6,SCN,2024-06-24_11h44.26.678,LearnStrategy,2023.2.3,MacIntel,59.88023952,7,2,10,,,,,,,,3,14,,,,,,,,,,,3,1.591,1,,,,,,0.057421875,-0.232597656,1,0,0,1.5909,Diorite_rect,9,0,9,0,1,
6677157d21769b1ef48e1fd6,SCN,2024-06-24_11h44.26.678,LearnStrategy,2023.2.3,MacIntel,59.88023952,7,2,11,,,,,,,,1,06,,,,,,,,,,,1,1.44,1,,,,,,-0.429355469,-0.240864258,1,0,0,1.4398,Andesite_rect,10,0,10,0,1,
6677157d21769b1ef48e1fd6,SCN,2024-06-24_11h44.26.678,LearnStrategy,2023.2.3,MacIntel,59.88023952,7,2,12,,,,,,,,8,16,,,,,,,,,,,2,1.492,0,,,,,,-0.164584961,-0.267045898,1,0,0,1.4917,Basalt_rect,11,0,11,0,1,
6677157d21769b1ef48e1fd6,SCN,2024-06-24_11h44.26.678,LearnStrategy,2023.2.3,MacIntel,59.88023952,7,2,13,,,,,,,,5,10,,,,,,,,,,,5,1.54,1,,,,,,-0.354902344,-0.406269531,1,0,0,1.5396,Obsidian_rect,12,0,12,0,1,
6677157d21769b1ef48e1fd6,SCN,2024-06-24_11h44.26.678,LearnStrategy,2023.2.3,MacIntel,59.88023952,7,2,14,,,,,,,,6,08,,,,,,,,,,,6,1.541,1,,,,,,-0.125332031,-0.387368164,1,0,0,1.5407,Pegmatite_rect,13,0,13,0,1,
6677157d21769b1ef48e1fd6,SCN,2024-06-24_11h44.26.678,LearnStrategy,2023.2.3,MacIntel,59.88023952,7,2,15,,,,,,,,6,12,,,,,,,,,,,6,0.891,1,,,,,,-0.109624023,-0.411513672,1,0,0,0.8907,Pegmatite_rect,14,0,14,0,1,
6677157d21769b1ef48e1fd6,SCN,2024-06-24_11h44.26.678,LearnStrategy,2023.2.3,MacIntel,59.88023952,7,2,16,,,,,,,,7,05,,,,,,,,,,,7,1.191,1,,,,,,0.096225586,-0.389902344,1,0,0,1.1907,Peridotite_rect,15,0,15,0,1,
6677157d21769b1ef48e1fd6,SCN,2024-06-24_11h44.26.678,LearnStrategy,2023.2.3,MacIntel,59.88023952,8,1,1,-0.087587891,0.056728516,1,0,0,0.9314,Andesite_03,1,03,4,4,0.931,-0.417880859,-0.259155273,1,0,0,1.7739,Andesite_rect,1,1.774,1,0,0,0,0,1,,,,,,,,,,,,,
6677157d21769b1ef48e1fd6,SCN,2024-06-24_11h44.26.678,LearnStrategy,2023.2.3,MacIntel,59.88023952,8,1,2,-0.052075195,0.056279297,1,0,0,0.4648,Andesite_03,1,03,4,4,0.465,-0.378037109,-0.250151367,1,0,0,0.477,Andesite_rect,1,0.477,1,1,0,1,0,1,,,,,,,,,,,,,
6677157d21769b1ef48e1fd6,SCN,2024-06-24_11h44.26.678,LearnStrategy,2023.2.3,MacIntel,59.88023952,8,1,3,-0.048891602,0.071494141,1,0,0,0.3815,Andesite_03,1,03,4,4,0.381,-0.378378906,-0.244956055,1,0,0,0.5592,Andesite_rect,1,0.559,1,2,0,2,0,1,,,,,,,,,,,,,
6677157d21769b1ef48e1fd6,SCN,2024-06-24_11h44.26.678,LearnStrategy,2023.2.3,MacIntel,59.88023952,8,1,4,-0.058574219,0.091210938,1,0,0,0.3985,Andesite_03,1,03,4,4,0.399,-0.333554688,-0.248354492,1,0,0,0.9595,Andesite_rect,1,0.959,1,3,0,3,0,1,,,,,,,,,,,,,
6677157d21769b1ef48e1fd6,SCN,2024-06-24_11h44.26.678,LearnStrategy,2023.2.3,MacIntel,59.88023952,8,1,5,-0.04484375,0.05277832,1,0,0,0.3998,Andesite_03,1,03,4,4,0.4,-0.379365234,-0.236162109,1,0,0,1.1424,Andesite_rect,1,1.142,1,4,0,4,0,1,,,,,,,,,,,,,
6677157d21769b1ef48e1fd6,SCN,2024-06-24_11h44.26.678,LearnStrategy,2023.2.3,MacIntel,59.88023952,8,1,6,-0.06440918,0.081225586,1,0,0,0.699,Andesite_03,1,03,4,4,0.699,-0.363276367,-0.23890625,1,0,0,1.0939,Andesite_rect,1,1.094,1,5,0,5,0,1,,,,,,,,,,,,,
6677157d21769b1ef48e1fd6,SCN,2024-06-24_11h44.26.678,LearnStrategy,2023.2.3,MacIntel,59.88023952,8,1,7,-0.086293945,0.069790039,1,0,0,0.3813,Andesite_03,1,03,4,4,0.381,-0.363398438,-0.230664062,1,0,0,0.5935,Andesite_rect,1,0.593,1,6,0,6,0,1,,,,,,,,,,,,,
6677157d21769b1ef48e1fd6,SCN,2024-06-24_11h44.26.678,LearnStrategy,2023.2.3,MacIntel,59.88023952,8,1,8,-0.113994141,0.082631836,1,0,0,0.3983,Andesite_03,1,03,4,4,0.398,-0.37496582,-0.236713867,1,0,0,0.544,Andesite_rect,1,0.544,1,7,0,7,0,1,,,,,,,,,,,,,
6677157d21769b1ef48e1fd6,SCN,2024-06-24_11h44.26.678,LearnStrategy,2023.2.3,MacIntel,59.88023952,8,1,9,-0.100893555,0.052109375,1,0,0,0.3658,Andesite_03,1,03,4,4,0.366,-0.423525391,-0.262299805,1,0,0,0.5093,Andesite_rect,1,0.509,1,8,0,8,0,1,,,,,,,,,,,,,
6677157d21769b1ef48e1fd6,SCN,2024-06-24_11h44.26.678,LearnStrategy,2023.2.3,MacIntel,59.88023952,8,1,10,-0.104472656,0.115522461,1,0,0,0.415,Andesite_03,1,03,4,4,0.415,-0.385732422,-0.242792969,1,0,0,2.0924,Andesite_rect,1,2.092,1,9,0,9,0,1,,,,,,,,,,,,,
6677157d21769b1ef48e1fd6,SCN,2024-06-24_11h44.26.678,LearnStrategy,2023.2.3,MacIntel,59.88023952,8,1,11,-0.06418457,0.07296875,1,0,0,0.4813,Andesite_03,1,03,4,4,0.481,-0.394296875,-0.253813477,1,0,0,0.8931,Andesite_rect,1,0.893,1,10,0,10,0,1,,,,,,,,,,,,,
6677157d21769b1ef48e1fd6,SCN,2024-06-24_11h44.26.678,LearnStrategy,2023.2.3,MacIntel,59.88023952,8,1,12,-0.077373047,0.089633789,1,0,0,0.6482,Andesite_03,1,03,4,4,0.648,-0.467929688,-0.232231445,1,0,0,0.9584,Andesite_rect,1,0.958,1,11,0,11,0,1,,,,,,,,,,,,,
6677157d21769b1ef48e1fd6,SCN,2024-06-24_11h44.26.678,LearnStrategy,2023.2.3,MacIntel,59.88023952,8,1,13,-0.056176758,0.072446289,1,0,0,0.5154,Andesite_03,1,03,4,4,0.515,-0.348115234,-0.228364258,1,0,0,0.5771,Andesite_rect,1,0.577,1,12,0,12,0,1,,,,,,,,,,,,,
6677157d21769b1ef48e1fd6,SCN,2024-06-24_11h44.26.678,LearnStrategy,2023.2.3,MacIntel,59.88023952,8,1,14,-0.043325195,0.052446289,1,0,0,0.4333,Andesite_03,1,03,4,4,0.433,-0.393979492,-0.249423828,1,0,0,0.659,Andesite_rect,1,0.659,1,13,0,13,0,1,,,,,,,,,,,,,
6677157d21769b1ef48e1fd6,SCN,2024-06-24_11h44.26.678,LearnStrategy,2023.2.3,MacIntel,59.88023952,8,1,15,-0.091923828,0.050737305,1,0,0,0.3813,Andesite_03,1,03,4,4,0.381,-0.384433594,-0.261162109,1,0,0,0.7761,Andesite_rect,1,0.776,1,14,0,14,0,1,,,,,,,,,,,,,
6677157d21769b1ef48e1fd6,SCN,2024-06-24_11h44.26.678,LearnStrategy,2023.2.3,MacIntel,59.88023952,8,1,16,-0.064125977,0.072631836,1,0,0,0.4315,Andesite_03,1,03,4,4,0.432,-0.406625977,-0.235776367,1,0,0,1.5607,Andesite_rect,1,1.561,1,15,0,15,0,1,,,,,,,,,,,,,
6677157d21769b1ef48e1fd6,SCN,2024-06-24_11h44.26.678,LearnStrategy,2023.2.3,MacIntel,59.88023952,8,2,1,,,,,,,,5,09,,,,,,,,,,,5,0.99,1,,,,,,-0.420048828,-0.417490234,1,0,0,0.9901,Obsidian_rect,0,0,0,0,1,
6677157d21769b1ef48e1fd6,SCN,2024-06-24_11h44.26.678,LearnStrategy,2023.2.3,MacIntel,59.88023952,8,2,2,,,,,,,,2,05,,,,,,,,,,,2,1.075,1,,,,,,-0.17324707,-0.270605469,1,0,0,1.0746,Basalt_rect,1,0,1,0,1,
6677157d21769b1ef48e1fd6,SCN,2024-06-24_11h44.26.678,LearnStrategy,2023.2.3,MacIntel,59.88023952,8,2,3,,,,,,,,1,09,,,,,,,,,,,1,1.458,1,,,,,,-0.381113281,-0.244165039,1,0,0,1.4579,Andesite_rect,2,0,2,0,1,
6677157d21769b1ef48e1fd6,SCN,2024-06-24_11h44.26.678,LearnStrategy,2023.2.3,MacIntel,59.88023952,8,2,4,,,,,,,,4,16,,,,,,,,,,,4,1.174,1,,,,,,0.332016602,-0.229785156,1,0,0,1.1737,Gabbro_rect,3,0,3,0,1,
6677157d21769b1ef48e1fd6,SCN,2024-06-24_11h44.26.678,LearnStrategy,2023.2.3,MacIntel,59.88023952,8,2,5,,,,,,,,7,06,,,,,,,,,,,7,1.839,1,,,,,,0.080683594,-0.378691406,1,0,0,1.8394,Peridotite_rect,4,0,4,0,1,
6677157d21769b1ef48e1fd6,SCN,2024-06-24_11h44.26.678,LearnStrategy,2023.2.3,MacIntel,59.88023952,8,2,6,,,,,,,,8,08,,,,,,,,,,,8,1.24,1,,,,,,0.342260742,-0.406474609,1,0,0,1.2405,Pumice_rect,5,0,5,0,1,
6677157d21769b1ef48e1fd6,SCN,2024-06-24_11h44.26.678,LearnStrategy,2023.2.3,MacIntel,59.88023952,8,2,7,,,,,,,,5,16,,,,,,,,,,,5,0.959,1,,,,,,-0.380175781,-0.420087891,1,0,0,0.9587,Obsidian_rect,6,0,6,0,1,
6677157d21769b1ef48e1fd6,SCN,2024-06-24_11h44.26.678,LearnStrategy,2023.2.3,MacIntel,59.88023952,8,2,8,,,,,,,,7,13,,,,,,,,,,,7,1.041,1,,,,,,0.112592773,-0.383383789,1,0,0,1.0411,Peridotite_rect,7,0,7,0,1,
6677157d21769b1ef48e1fd6,SCN,2024-06-24_11h44.26.678,LearnStrategy,2023.2.3,MacIntel,59.88023952,8,2,9,,,,,,,,4,09,,,,,,,,,,,4,1.557,1,,,,,,0.419726563,-0.25003418,1,0,0,1.5574,Gabbro_rect,8,0,8,0,1,
6677157d21769b1ef48e1fd6,SCN,2024-06-24_11h44.26.678,LearnStrategy,2023.2.3,MacIntel,59.88023952,8,2,10,,,,,,,,3,06,,,,,,,,,,,3,0.974,1,,,,,,0.081494141,-0.241508789,1,0,0,0.974,Diorite_rect,9,0,9,0,1,
6677157d21769b1ef48e1fd6,SCN,2024-06-24_11h44.26.678,LearnStrategy,2023.2.3,MacIntel,59.88023952,8,2,11,,,,,,,,1,07,,,,,,,,,,,1,1.007,1,,,,,,-0.395371094,-0.248276367,1,0,0,1.0072,Andesite_rect,10,0,10,0,1,
6677157d21769b1ef48e1fd6,SCN,2024-06-24_11h44.26.678,LearnStrategy,2023.2.3,MacIntel,59.88023952,8,2,12,,,,,,,,6,10,,,,,,,,,,,6,1.624,1,,,,,,-0.123212891,-0.403364258,1,0,0,1.6235,Pegmatite_rect,11,0,11,0,1,
6677157d21769b1ef48e1fd6,SCN,2024-06-24_11h44.26.678,LearnStrategy,2023.2.3,MacIntel,59.88023952,8,2,13,,,,,,,,3,02,,,,,,,,,,,3,1.04,1,,,,,,0.119121094,-0.254926758,1,0,0,1.0398,Diorite_rect,12,0,12,0,1,
6677157d21769b1ef48e1fd6,SCN,2024-06-24_11h44.26.678,LearnStrategy,2023.2.3,MacIntel,59.88023952,8,2,14,,,,,,,,8,14,,,,,,,,,,,8,0.941,1,,,,,,0.319868164,-0.399287109,1,0,0,0.9406,Pumice_rect,13,0,13,0,1,
6677157d21769b1ef48e1fd6,SCN,2024-06-24_11h44.26.678,LearnStrategy,2023.2.3,MacIntel,59.88023952,8,2,15,,,,,,,,2,12,,,,,,,,,,,8,18.059,0,,,,,,0.328447266,-0.413520508,1,0,0,18.0587,Pumice_rect,14,0,14,0,1,
6677157d21769b1ef48e1fd6,SCN,2024-06-24_11h44.26.678,LearnStrategy,2023.2.3,MacIntel,59.88023952,8,2,16,,,,,,,,6,07,,,,,,,,,,,6,1.566,1,,,,,,-0.149233398,-0.391606445,1,0,0,1.5659,Pegmatite_rect,15,0,15,0,1,
6677157d21769b1ef48e1fd6,SCN,2024-06-24_11h44.26.678,LearnStrategy,2023.2.3,MacIntel,59.88023952,9,1,1,-0.242978516,0.134291992,1,0,0,0.4479,Andesite_04,1,04,4,3,0.448,-0.418579102,-0.245175781,1,0,0,0.8933,Andesite_rect,1,0.893,1,0,0,0,0,1,,,,,,,,,,,,,
6677157d21769b1ef48e1fd6,SCN,2024-06-24_11h44.26.678,LearnStrategy,2023.2.3,MacIntel,59.88023952,9,1,2,-0.2515625,0.10456543,1,0,0,0.4498,Andesite_04,1,04,4,3,0.45,-0.437631836,-0.246914063,1,0,0,0.5604,Andesite_rect,1,0.56,1,1,0,1,0,1,,,,,,,,,,,,,
6677157d21769b1ef48e1fd6,SCN,2024-06-24_11h44.26.678,LearnStrategy,2023.2.3,MacIntel,59.88023952,9,1,3,-0.226865234,0.112978516,1,0,0,0.4653,Andesite_04,1,04,4,3,0.465,-0.429487305,-0.270444336,1,0,0,0.8421,Andesite_rect,1,0.842,1,2,0,2,0,1,,,,,,,,,,,,,
6677157d21769b1ef48e1fd6,SCN,2024-06-24_11h44.26.678,LearnStrategy,2023.2.3,MacIntel,59.88023952,9,1,4,-0.239697266,0.106362305,1,0,0,0.3821,Andesite_04,1,04,4,3,0.382,-0.426796875,-0.237788086,1,0,0,0.4917,Andesite_rect,1,0.492,1,3,0,3,0,1,,,,,,,,,,,,,
6677157d21769b1ef48e1fd6,SCN,2024-06-24_11h44.26.678,LearnStrategy,2023.2.3,MacIntel,59.88023952,9,1,5,-0.236518555,0.086860352,1,0,0,0.415,Andesite_04,1,04,4,3,0.415,-0.331953125,-0.238759766,1,0,0,1.426,Andesite_rect,1,1.426,1,4,0,4,0,1,,,,,,,,,,,,,
6677157d21769b1ef48e1fd6,SCN,2024-06-24_11h44.26.678,LearnStrategy,2023.2.3,MacIntel,59.88023952,9,1,6,-0.188012695,0.082963867,1,0,0,0.4971,Andesite_04,1,04,4,3,0.497,-0.473310547,-0.269487305,1,0,0,0.7949,Andesite_rect,1,0.795,1,5,0,5,0,1,,,,,,,,,,,,,
6677157d21769b1ef48e1fd6,SCN,2024-06-24_11h44.26.678,LearnStrategy,2023.2.3,MacIntel,59.88023952,9,1,7,-0.265224609,0.08699707,1,0,0,0.3982,Andesite_04,1,04,4,3,0.398,-0.410561523,-0.250698242,1,0,0,0.8089,Andesite_rect,1,0.809,1,6,0,6,0,1,,,,,,,,,,,,,
6677157d21769b1ef48e1fd6,SCN,2024-06-24_11h44.26.678,LearnStrategy,2023.2.3,MacIntel,59.88023952,9,1,8,-0.210600586,0.057094727,1,0,0,0.3649,Andesite_04,1,04,4,3,0.365,-0.404101563,-0.230883789,1,0,0,0.9087,Andesite_rect,1,0.909,1,7,0,7,0,1,,,,,,,,,,,,,
6677157d21769b1ef48e1fd6,SCN,2024-06-24_11h44.26.678,LearnStrategy,2023.2.3,MacIntel,59.88023952,9,1,9,-0.233544922,0.107861328,1,0,0,0.4149,Andesite_04,1,04,4,3,0.415,-0.367983398,-0.261518555,1,0,0,0.5255,Andesite_rect,1,0.525,1,8,0,8,0,1,,,,,,,,,,,,,
6677157d21769b1ef48e1fd6,SCN,2024-06-24_11h44.26.678,LearnStrategy,2023.2.3,MacIntel,59.88023952,9,1,10,-0.201582031,0.078759766,1,0,0,0.5471,Andesite_04,1,04,4,3,0.547,-0.426601562,-0.240307617,1,0,0,0.6274,Andesite_rect,1,0.627,1,9,0,9,0,1,,,,,,,,,,,,,
6677157d21769b1ef48e1fd6,SCN,2024-06-24_11h44.26.678,LearnStrategy,2023.2.3,MacIntel,59.88023952,9,1,11,-0.232177734,0.065678711,1,0,0,0.3988,Andesite_04,1,04,4,3,0.399,-0.355336914,-0.238574219,1,0,0,0.5624,Andesite_rect,1,0.562,1,10,0,10,0,1,,,,,,,,,,,,,
6677157d21769b1ef48e1fd6,SCN,2024-06-24_11h44.26.678,LearnStrategy,2023.2.3,MacIntel,59.88023952,9,1,12,-0.225068359,0.062133789,1,0,0,0.414,Andesite_04,1,04,4,3,0.414,-0.358125,-0.25128418,1,0,0,0.5116,Andesite_rect,1,0.512,1,11,0,11,0,1,,,,,,,,,,,,,
6677157d21769b1ef48e1fd6,SCN,2024-06-24_11h44.26.678,LearnStrategy,2023.2.3,MacIntel,59.88023952,9,1,13,-0.182373047,0.048930664,1,0,0,0.4479,Andesite_04,1,04,4,3,0.448,-0.37730957,-0.251508789,1,0,0,0.7938,Andesite_rect,1,0.794,1,12,0,12,0,1,,,,,,,,,,,,,
6677157d21769b1ef48e1fd6,SCN,2024-06-24_11h44.26.678,LearnStrategy,2023.2.3,MacIntel,59.88023952,9,1,14,-0.234458008,0.061542969,1,0,0,0.4146,Andesite_04,1,04,4,3,0.415,-0.348671875,-0.248706055,1,0,0,1.0764,Andesite_rect,1,1.076,1,13,0,13,0,1,,,,,,,,,,,,,
6677157d21769b1ef48e1fd6,SCN,2024-06-24_11h44.26.678,LearnStrategy,2023.2.3,MacIntel,59.88023952,9,1,15,-0.240151367,0.068203125,1,0,0,0.7644,Andesite_04,1,04,4,3,0.764,-0.454521484,-0.234047852,1,0,0,0.4789,Andesite_rect,1,0.479,1,14,0,14,0,1,,,,,,,,,,,,,
6677157d21769b1ef48e1fd6,SCN,2024-06-24_11h44.26.678,LearnStrategy,2023.2.3,MacIntel,59.88023952,9,1,16,-0.2325,0.076411133,1,0,0,0.4316,Andesite_04,1,04,4,3,0.432,-0.412128906,-0.258378906,1,0,0,0.5103,Andesite_rect,1,0.51,1,15,0,15,0,1,,,,,,,,,,,,,
6677157d21769b1ef48e1fd6,SCN,2024-06-24_11h44.26.678,LearnStrategy,2023.2.3,MacIntel,59.88023952,9,2,1,,,,,,,,4,03,,,,,,,,,,,1,3.675,0,,,,,,-0.387275391,-0.260375977,1,0,0,3.675,Andesite_rect,0,0,0,0,1,
6677157d21769b1ef48e1fd6,SCN,2024-06-24_11h44.26.678,LearnStrategy,2023.2.3,MacIntel,59.88023952,9,2,2,,,,,,,,8,03,,,,,,,,,,,8,0.949,1,,,,,,0.357246094,-0.404213867,1,0,0,0.9491,Pumice_rect,1,0,1,0,1,
6677157d21769b1ef48e1fd6,SCN,2024-06-24_11h44.26.678,LearnStrategy,2023.2.3,MacIntel,59.88023952,9,2,3,,,,,,,,5,04,,,,,,,,,,,5,0.875,1,,,,,,-0.346748047,-0.403188477,1,0,0,0.875,Obsidian_rect,2,0,2,0,1,
6677157d21769b1ef48e1fd6,SCN,2024-06-24_11h44.26.678,LearnStrategy,2023.2.3,MacIntel,59.88023952,9,2,4,,,,,,,,6,13,,,,,,,,,,,6,1.407,1,,,,,,-0.132192383,-0.403183594,1,0,0,1.4069,Pegmatite_rect,3,0,3,0,1,
6677157d21769b1ef48e1fd6,SCN,2024-06-24_11h44.26.678,LearnStrategy,2023.2.3,MacIntel,59.88023952,9,2,5,,,,,,,,7,16,,,,,,,,,,,7,0.824,1,,,,,,0.091337891,-0.39902832,1,0,0,0.8238,Peridotite_rect,4,0,4,0,1,
6677157d21769b1ef48e1fd6,SCN,2024-06-24_11h44.26.678,LearnStrategy,2023.2.3,MacIntel,59.88023952,9,2,6,,,,,,,,1,01,,,,,,,,,,,4,5.195,0,,,,,,0.36421875,-0.26328125,1,0,0,5.1945,Gabbro_rect,5,0,5,0,1,
6677157d21769b1ef48e1fd6,SCN,2024-06-24_11h44.26.678,LearnStrategy,2023.2.3,MacIntel,59.88023952,9,2,7,,,,,,,,6,11,,,,,,,,,,,6,0.966,1,,,,,,-0.106508789,-0.409169922,1,0,0,0.9664,Pegmatite_rect,6,0,6,0,1,
6677157d21769b1ef48e1fd6,SCN,2024-06-24_11h44.26.678,LearnStrategy,2023.2.3,MacIntel,59.88023952,9,2,8,,,,,,,,5,11,,,,,,,,,,,5,1.428,1,,,,,,-0.376152344,-0.39027832,1,0,0,1.4285,Obsidian_rect,7,0,7,0,1,
6677157d21769b1ef48e1fd6,SCN,2024-06-24_11h44.26.678,LearnStrategy,2023.2.3,MacIntel,59.88023952,9,2,9,,,,,,,,8,04,,,,,,,,,,,8,0.99,1,,,,,,0.344482422,-0.409477539,1,0,0,0.99,Pumice_rect,8,0,8,0,1,
6677157d21769b1ef48e1fd6,SCN,2024-06-24_11h44.26.678,LearnStrategy,2023.2.3,MacIntel,59.88023952,9,2,10,,,,,,,,1,16,,,,,,,,,,,1,1.139,1,,,,,,-0.405043945,-0.260673828,1,0,0,1.1394,Andesite_rect,9,0,9,0,1,
6677157d21769b1ef48e1fd6,SCN,2024-06-24_11h44.26.678,LearnStrategy,2023.2.3,MacIntel,59.88023952,9,2,11,,,,,,,,3,13,,,,,,,,,,,3,1.107,1,,,,,,0.07671875,-0.236347656,1,0,0,1.1069,Diorite_rect,10,0,10,0,1,
6677157d21769b1ef48e1fd6,SCN,2024-06-24_11h44.26.678,LearnStrategy,2023.2.3,MacIntel,59.88023952,9,2,12,,,,,,,,7,07,,,,,,,,,,,7,1.057,1,,,,,,0.096582031,-0.385859375,1,0,0,1.057,Peridotite_rect,11,0,11,0,1,
6677157d21769b1ef48e1fd6,SCN,2024-06-24_11h44.26.678,LearnStrategy,2023.2.3,MacIntel,59.88023952,9,2,13,,,,,,,,4,08,,,,,,,,,,,4,1.108,1,,,,,,0.364580078,-0.253413086,1,0,0,1.1082,Gabbro_rect,12,0,12,0,1,
6677157d21769b1ef48e1fd6,SCN,2024-06-24_11h44.26.678,LearnStrategy,2023.2.3,MacIntel,59.88023952,9,2,14,,,,,,,,3,08,,,,,,,,,,,3,1.24,1,,,,,,0.088334961,-0.247114258,1,0,0,1.2397,Diorite_rect,13,0,13,0,1,
6677157d21769b1ef48e1fd6,SCN,2024-06-24_11h44.26.678,LearnStrategy,2023.2.3,MacIntel,59.88023952,9,2,15,,,,,,,,2,04,,,,,,,,,,,2,0.675,1,,,,,,-0.106186523,-0.240385742,1,0,0,0.6747,Basalt_rect,14,0,14,0,1,
6677157d21769b1ef48e1fd6,SCN,2024-06-24_11h44.26.678,LearnStrategy,2023.2.3,MacIntel,59.88023952,9,2,16,,,,,,,,2,16,,,,,,,,,,,2,1.243,1,,,,,,-0.131044922,-0.24859375,1,0,0,1.2427,Basalt_rect,15,0,15,0,1,
6677157d21769b1ef48e1fd6,SCN,2024-06-24_11h44.26.678,LearnStrategy,2023.2.3,MacIntel,59.88023952,,,,,,,,,,,,,,,,,,,,,,,,,,,,,,,,,,,,,,,,,,,1
6677157d21769b1ef48e1fd6,SCN,2024-06-24_11h44.26.678,LearnStrategy,2023.2.3,MacIntel,59.88023952,,,,,,,,,,,,,,,,,,,,,,,,,,,,,,,,,,,,,,,,,,,
6677157d21769b1ef48e1fd6,SCN,2024-06-24_11h44.26.678,LearnStrategy,2023.2.3,MacIntel,59.88023952,,,,,,,,,,,5,02,1,1,,,,,,,,,,,,,,,,,,,,,,,,,,,,,
6677157d21769b1ef48e1fd6,SCN,2024-06-24_11h44.26.678,LearnStrategy,2023.2.3,MacIntel,59.88023952,,,,,,,,,,,2,10,1,2,,,,,,,,,,,,,,,,,,,,,,,,,,,,,
6677157d21769b1ef48e1fd6,SCN,2024-06-24_11h44.26.678,LearnStrategy,2023.2.3,MacIntel,59.88023952,,,,,,,,,,,8,13,1,3,,,,,,,,,,,,,,,,,,,,,,,,,,,,,
6677157d21769b1ef48e1fd6,SCN,2024-06-24_11h44.26.678,LearnStrategy,2023.2.3,MacIntel,59.88023952,,,,,,,,,,,3,12,1,4,,,,,,,,,,,,,,,,,,,,,,,,,,,,,
6677157d21769b1ef48e1fd6,SCN,2024-06-24_11h44.26.678,LearnStrategy,2023.2.3,MacIntel,59.88023952,,,,,,,,,,,2,08,1,5,,,,,,,,,,,,,,,,,,,,,,,,,,,,,
6677157d21769b1ef48e1fd6,SCN,2024-06-24_11h44.26.678,LearnStrategy,2023.2.3,MacIntel,59.88023952,,,,,,,,,,,2,14,1,6,,,,,,,,,,,,,,,,,,,,,,,,,,,,,
6677157d21769b1ef48e1fd6,SCN,2024-06-24_11h44.26.678,LearnStrategy,2023.2.3,MacIntel,59.88023952,,,,,,,,,,,7,08,1,7,,,,,,,,,,,,,,,,,,,,,,,,,,,,,
6677157d21769b1ef48e1fd6,SCN,2024-06-24_11h44.26.678,LearnStrategy,2023.2.3,MacIntel,59.88023952,,,,,,,,,,,7,14,1,8,,,,,,,,,,,,,,,,,,,,,,,,,,,,,
6677157d21769b1ef48e1fd6,SCN,2024-06-24_11h44.26.678,LearnStrategy,2023.2.3,MacIntel,59.88023952,,,,,,,,,,,4,05,2,1,,,,,,,,,,,,,,,,,,,,,,,,,,,,,
6677157d21769b1ef48e1fd6,SCN,2024-06-24_11h44.26.678,LearnStrategy,2023.2.3,MacIntel,59.88023952,,,,,,,,,,,6,15,2,2,,,,,,,,,,,,,,,,,,,,,,,,,,,,,
6677157d21769b1ef48e1fd6,SCN,2024-06-24_11h44.26.678,LearnStrategy,2023.2.3,MacIntel,59.88023952,,,,,,,,,,,1,10,2,3,,,,,,,,,,,,,,,,,,,,,,,,,,,,,
6677157d21769b1ef48e1fd6,SCN,2024-06-24_11h44.26.678,LearnStrategy,2023.2.3,MacIntel,59.88023952,,,,,,,,,,,3,15,2,4,,,,,,,,,,,,,,,,,,,,,,,,,,,,,
6677157d21769b1ef48e1fd6,SCN,2024-06-24_11h44.26.678,LearnStrategy,2023.2.3,MacIntel,59.88023952,,,,,,,,,,,3,09,2,5,,,,,,,,,,,,,,,,,,,,,,,,,,,,,
6677157d21769b1ef48e1fd6,SCN,2024-06-24_11h44.26.678,LearnStrategy,2023.2.3,MacIntel,59.88023952,,,,,,,,,,,4,01,2,6,,,,,,,,,,,,,,,,,,,,,,,,,,,,,
6677157d21769b1ef48e1fd6,SCN,2024-06-24_11h44.26.678,LearnStrategy,2023.2.3,MacIntel,59.88023952,,,,,,,,,,,1,14,2,7,,,,,,,,,,,,,,,,,,,,,,,,,,,,,
6677157d21769b1ef48e1fd6,SCN,2024-06-24_11h44.26.678,LearnStrategy,2023.2.3,MacIntel,59.88023952,,,,,,,,,,,6,06,2,8,,,,,,,,,,,,,,,,,,,,,,,,,,,,,
6677157d21769b1ef48e1fd6,SCN,2024-06-24_11h44.26.678,LearnStrategy,2023.2.3,MacIntel,59.88023952,,,,,,,,,,,8,09,3,1,,,,,,,,,,,,,,,,,,,,,,,,,,,,,
6677157d21769b1ef48e1fd6,SCN,2024-06-24_11h44.26.678,LearnStrategy,2023.2.3,MacIntel,59.88023952,,,,,,,,,,,7,12,3,2,,,,,,,,,,,,,,,,,,,,,,,,,,,,,
6677157d21769b1ef48e1fd6,SCN,2024-06-24_11h44.26.678,LearnStrategy,2023.2.3,MacIntel,59.88023952,,,,,,,,,,,7,04,3,3,,,,,,,,,,,,,,,,,,,,,,,,,,,,,
6677157d21769b1ef48e1fd6,SCN,2024-06-24_11h44.26.678,LearnStrategy,2023.2.3,MacIntel,59.88023952,,,,,,,,,,,6,05,3,4,,,,,,,,,,,,,,,,,,,,,,,,,,,,,
6677157d21769b1ef48e1fd6,SCN,2024-06-24_11h44.26.678,LearnStrategy,2023.2.3,MacIntel,59.88023952,,,,,,,,,,,7,02,3,5,,,,,,,,,,,,,,,,,,,,,,,,,,,,,
6677157d21769b1ef48e1fd6,SCN,2024-06-24_11h44.26.678,LearnStrategy,2023.2.3,MacIntel,59.88023952,,,,,,,,,,,8,05,3,6,,,,,,,,,,,,,,,,,,,,,,,,,,,,,
6677157d21769b1ef48e1fd6,SCN,2024-06-24_11h44.26.678,LearnStrategy,2023.2.3,MacIntel,59.88023952,,,,,,,,,,,2,06,3,7,,,,,,,,,,,,,,,,,,,,,,,,,,,,,
6677157d21769b1ef48e1fd6,SCN,2024-06-24_11h44.26.678,LearnStrategy,2023.2.3,MacIntel,59.88023952,,,,,,,,,,,5,14,3,8,,,,,,,,,,,,,,,,,,,,,,,,,,,,,
6677157d21769b1ef48e1fd6,SCN,2024-06-24_11h44.26.678,LearnStrategy,2023.2.3,MacIntel,59.88023952,,,,,,,,,,,8,06,4,1,,,,,,,,,,,,,,,,,,,,,,,,,,,,,
6677157d21769b1ef48e1fd6,SCN,2024-06-24_11h44.26.678,LearnStrategy,2023.2.3,MacIntel,59.88023952,,,,,,,,,,,4,12,4,2,,,,,,,,,,,,,,,,,,,,,,,,,,,,,
6677157d21769b1ef48e1fd6,SCN,2024-06-24_11h44.26.678,LearnStrategy,2023.2.3,MacIntel,59.88023952,,,,,,,,,,,1,04,4,3,,,,,,,,,,,,,,,,,,,,,,,,,,,,,
6677157d21769b1ef48e1fd6,SCN,2024-06-24_11h44.26.678,LearnStrategy,2023.2.3,MacIntel,59.88023952,,,,,,,,,,,1,03,4,4,,,,,,,,,,,,,,,,,,,,,,,,,,,,,
6677157d21769b1ef48e1fd6,SCN,2024-06-24_11h44.26.678,LearnStrategy,2023.2.3,MacIntel,59.88023952,,,,,,,,,,,4,10,4,5,,,,,,,,,,,,,,,,,,,,,,,,,,,,,
6677157d21769b1ef48e1fd6,SCN,2024-06-24_11h44.26.678,LearnStrategy,2023.2.3,MacIntel,59.88023952,,,,,,,,,,,4,11,4,6,,,,,,,,,,,,,,,,,,,,,,,,,,,,,
6677157d21769b1ef48e1fd6,SCN,2024-06-24_11h44.26.678,LearnStrategy,2023.2.3,MacIntel,59.88023952,,,,,,,,,,,6,09,4,7,,,,,,,,,,,,,,,,,,,,,,,,,,,,,
6677157d21769b1ef48e1fd6,SCN,2024-06-24_11h44.26.678,LearnStrategy,2023.2.3,MacIntel,59.88023952,,,,,,,,,,,5,08,4,8,,,,,,,,,,,,,,,,,,,,,,,,,,,,,
6677157d21769b1ef48e1fd6,SCN,2024-06-24_11h44.26.678,LearnStrategy,2023.2.3,MacIntel,59.88023952,,,,,,,,,,,7,10,5,1,,,,,,,,,,,,,,,,,,,,,,,,,,,,,
6677157d21769b1ef48e1fd6,SCN,2024-06-24_11h44.26.678,LearnStrategy,2023.2.3,MacIntel,59.88023952,,,,,,,,,,,4,15,5,2,,,,,,,,,,,,,,,,,,,,,,,,,,,,,
6677157d21769b1ef48e1fd6,SCN,2024-06-24_11h44.26.678,LearnStrategy,2023.2.3,MacIntel,59.88023952,,,,,,,,,,,5,12,5,3,,,,,,,,,,,,,,,,,,,,,,,,,,,,,
6677157d21769b1ef48e1fd6,SCN,2024-06-24_11h44.26.678,LearnStrategy,2023.2.3,MacIntel,59.88023952,,,,,,,,,,,1,11,5,4,,,,,,,,,,,,,,,,,,,,,,,,,,,,,
6677157d21769b1ef48e1fd6,SCN,2024-06-24_11h44.26.678,LearnStrategy,2023.2.3,MacIntel,59.88023952,,,,,,,,,,,8,15,5,5,,,,,,,,,,,,,,,,,,,,,,,,,,,,,
6677157d21769b1ef48e1fd6,SCN,2024-06-24_11h44.26.678,LearnStrategy,2023.2.3,MacIntel,59.88023952,,,,,,,,,,,1,02,5,6,,,,,,,,,,,,,,,,,,,,,,,,,,,,,
6677157d21769b1ef48e1fd6,SCN,2024-06-24_11h44.26.678,LearnStrategy,2023.2.3,MacIntel,59.88023952,,,,,,,,,,,5,07,5,7,,,,,,,,,,,,,,,,,,,,,,,,,,,,,
6677157d21769b1ef48e1fd6,SCN,2024-06-24_11h44.26.678,LearnStrategy,2023.2.3,MacIntel,59.88023952,,,,,,,,,,,6,03,5,8,,,,,,,,,,,,,,,,,,,,,,,,,,,,,
6677157d21769b1ef48e1fd6,SCN,2024-06-24_11h44.26.678,LearnStrategy,2023.2.3,MacIntel,59.88023952,,,,,,,,,,,3,10,6,1,,,,,,,,,,,,,,,,,,,,,,,,,,,,,
6677157d21769b1ef48e1fd6,SCN,2024-06-24_11h44.26.678,LearnStrategy,2023.2.3,MacIntel,59.88023952,,,,,,,,,,,3,16,6,2,,,,,,,,,,,,,,,,,,,,,,,,,,,,,
6677157d21769b1ef48e1fd6,SCN,2024-06-24_11h44.26.678,LearnStrategy,2023.2.3,MacIntel,59.88023952,,,,,,,,,,,5,06,6,3,,,,,,,,,,,,,,,,,,,,,,,,,,,,,
6677157d21769b1ef48e1fd6,SCN,2024-06-24_11h44.26.678,LearnStrategy,2023.2.3,MacIntel,59.88023952,,,,,,,,,,,2,01,6,4,,,,,,,,,,,,,,,,,,,,,,,,,,,,,
6677157d21769b1ef48e1fd6,SCN,2024-06-24_11h44.26.678,LearnStrategy,2023.2.3,MacIntel,59.88023952,,,,,,,,,,,3,07,6,5,,,,,,,,,,,,,,,,,,,,,,,,,,,,,
6677157d21769b1ef48e1fd6,SCN,2024-06-24_11h44.26.678,LearnStrategy,2023.2.3,MacIntel,59.88023952,,,,,,,,,,,6,16,6,6,,,,,,,,,,,,,,,,,,,,,,,,,,,,,
6677157d21769b1ef48e1fd6,SCN,2024-06-24_11h44.26.678,LearnStrategy,2023.2.3,MacIntel,59.88023952,,,,,,,,,,,8,02,6,7,,,,,,,,,,,,,,,,,,,,,,,,,,,,,
6677157d21769b1ef48e1fd6,SCN,2024-06-24_11h44.26.678,LearnStrategy,2023.2.3,MacIntel,59.88023952,,,,,,,,,,,2,09,6,8,,,,,,,,,,,,,,,,,,,,,,,,,,,,,