participant,condition,date,expName,psychopyVersion,OS,frameRate,block,phase,trial,learn_mouse_2.x,learn_mouse_2.y,learn_mouse_2.leftButton,learn_mouse_2.midButton,learn_mouse_2.rightButton,learn_mouse_2.time,learn_mouse_2.clicked_name,cat,token,row,col,t_select,cat_mouse_l.x,cat_mouse_l.y,cat_mouse_l.leftButton,cat_mouse_l.midButton,cat_mouse_l.rightButton,cat_mouse_l.time,cat_mouse_l.clicked_name,resp,t_resp,corr,train_trials.thisRepN,train_trials.thisTrialN,train_trials.thisN,train_trials.thisIndex,train_trials.ran,cat_mouse_t.x,cat_mouse_t.y,cat_mouse_t.leftButton,cat_mouse_t.midButton,cat_mouse_t.rightButton,cat_mouse_t.time,cat_mouse_t.clicked_name,test_trials.thisRepN,test_trials.thisTrialN,test_trials.thisN,test_trials.thisIndex,test_trials.ran,Bonus
5fa4c21a04bc5912180291bc,TCN,2024-06-25_15h04.17.449,LearnStrategy,2023.2.3,Win32,58.82352941,,,,,,,,,,,,,,,,,,,,,,,,,,,,,,,,,,,,,,,,,,,
5fa4c21a04bc5912180291bc,TCN,2024-06-25_15h04.17.449,LearnStrategy,2023.2.3,Win32,58.82352941,1,1,1,0.074999986,-0.002777771,1,0,0,2.419,rock_grid_rect_2,3,15,-1,-1,2.419,0.362037094,-0.393518519,1,0,0,5.741,Pumice_rect,8,5.741,0,0,0,0,0,1,,,,,,,,,,,,,
5fa4c21a04bc5912180291bc,TCN,2024-06-25_15h04.17.449,LearnStrategy,2023.2.3,Win32,58.82352941,1,1,2,0.021296325,-0.003703718,1,0,0,8.01,rock_grid_rect_2,4,01,-1,-1,8.01,-0.081481439,-0.264814801,1,0,0,23.052,Basalt_rect,2,23.052,0,1,0,1,0,1,,,,,,,,,,,,,
5fa4c21a04bc5912180291bc,TCN,2024-06-25_15h04.17.449,LearnStrategy,2023.2.3,Win32,58.82352941,1,1,3,0.018518519,0.002777771,1,0,0,3.162,rock_grid_rect_2,4,09,-1,-1,3.162,0.14444443,-0.266666695,1,0,0,3.449,Diorite_rect,3,3.449,0,2,0,2,0,1,,,,,,,,,,,,,
5fa4c21a04bc5912180291bc,TCN,2024-06-25_15h04.17.449,LearnStrategy,2023.2.3,Win32,58.82352941,1,1,4,0.134259259,0.003703683,1,0,0,0.96,rock_grid_rect_2,5,14,-1,-1,0.96,-0.085185157,-0.244444459,1,0,0,2.648,Basalt_rect,2,2.648,0,3,0,3,0,1,,,,,,,,,,,,,
5fa4c21a04bc5912180291bc,TCN,2024-06-25_15h04.17.449,LearnStrategy,2023.2.3,Win32,58.82352941,1,1,5,0.055555556,0.018518519,1,0,0,2.451,rock_grid_rect_2,7,04,-1,-1,2.451,-0.062037009,-0.392592607,1,0,0,5.246,Pegmatite_rect,6,5.246,0,4,0,4,0,1,,,,,,,,,,,,,
5fa4c21a04bc5912180291bc,TCN,2024-06-25_15h04.17.449,LearnStrategy,2023.2.3,Win32,58.82352941,1,1,6,0.079629616,0.01944443,1,0,0,1.237,rock_grid_rect_2,1,06,-1,-1,1.237,0.36018527,-0.393518519,1,0,0,3.347,Pumice_rect,8,3.347,0,5,0,5,0,1,,,,,,,,,,,,,
5fa4c21a04bc5912180291bc,TCN,2024-06-25_15h04.17.449,LearnStrategy,2023.2.3,Win32,58.82352941,1,1,7,-0.04351849,-0.019444466,1,0,0,1.166,rock_grid_rect_2,1,14,-1,-1,1.166,-0.135185171,-0.251851894,1,0,0,4.099,Basalt_rect,2,4.099,0,6,0,6,0,1,,,,,,,,,,,,,
5fa4c21a04bc5912180291bc,TCN,2024-06-25_15h04.17.449,LearnStrategy,2023.2.3,Win32,58.82352941,1,1,8,0.033333319,-0.01666666,1,0,0,1.049,rock_grid_rect_2,3,14,-1,-1,1.049,0.362037094,-0.397222236,1,0,0,2.549,Pumice_rect,8,2.549,0,7,0,7,0,1,,,,,,,,,,,,,
5fa4c21a04bc5912180291bc,TCN,2024-06-25_15h04.17.449,LearnStrategy,2023.2.3,Win32,58.82352941,1,1,9,0.018518519,-0.01666666,1,0,0,0.872,rock_grid_rect_2,2,02,-1,-1,0.872,0.382407436,-0.390740783,1,0,0,2.546,Pumice_rect,8,2.546,0,8,0,8,0,1,,,,,,,,,,,,,
5fa4c21a04bc5912180291bc,TCN,2024-06-25_15h04.17.449,LearnStrategy,2023.2.3,Win32,58.82352941,1,1,10,0.035185213,-0.019444466,1,0,0,0.882,rock_grid_rect_2,8,03,-1,-1,0.882,0.434259344,-0.417592578,1,0,0,1.215,Pumice_rect,8,1.215,1,9,0,9,0,1,,,,,,,,,,,,,
5fa4c21a04bc5912180291bc,TCN,2024-06-25_15h04.17.449,LearnStrategy,2023.2.3,Win32,58.82352941,1,1,11,0.038888931,0.000925912,1,0,0,1.216,rock_grid_rect_2,6,13,-1,-1,1.216,-0.104629587,-0.25,1,0,0,1.863,Basalt_rect,2,1.863,0,10,0,10,0,1,,,,,,,,,,,,,
5fa4c21a04bc5912180291bc,TCN,2024-06-25_15h04.17.449,LearnStrategy,2023.2.3,Win32,58.82352941,1,1,12,0.115740741,-0.010185206,1,0,0,0.965,rock_grid_rect_2,6,05,-1,-1,0.965,-0.393518519,-0.391666695,1,0,0,3.665,Obsidian_rect,5,3.665,0,11,0,11,0,1,,,,,,,,,,,,,
5fa4c21a04bc5912180291bc,TCN,2024-06-25_15h04.17.449,LearnStrategy,2023.2.3,Win32,58.82352941,1,1,13,0.066666709,-0.018518519,1,0,0,1.016,rock_grid_rect_2,5,10,-1,-1,1.016,-0.324074074,-0.378703718,1,0,0,1.615,Obsidian_rect,5,1.615,1,12,0,12,0,1,,,,,,,,,,,,,
5fa4c21a04bc5912180291bc,TCN,2024-06-25_15h04.17.449,LearnStrategy,2023.2.3,Win32,58.82352941,1,1,14,0.063888903,-0.009259259,1,0,0,1.35,rock_grid_rect_2,7,07,-1,-1,1.35,-0.314814815,-0.256481524,1,0,0,3.314,Andesite_rect,1,3.314,0,13,0,13,0,1,,,,,,,,,,,,,
5fa4c21a04bc5912180291bc,TCN,2024-06-25_15h04.17.449,LearnStrategy,2023.2.3,Win32,58.82352941,1,1,15,-0.011111083,-0.023148148,1,0,0,0.732,rock_grid_rect_2,2,16,-1,-1,0.732,-0.339814822,-0.252777806,1,0,0,4.199,Andesite_rect,1,4.199,0,14,0,14,0,1,,,,,,,,,,,,,
5fa4c21a04bc5912180291bc,TCN,2024-06-25_15h04.17.449,LearnStrategy,2023.2.3,Win32,58.82352941,1,1,16,0.016666695,-0.018518519,1,0,0,1.065,rock_grid_rect_2,8,02,-1,-1,1.065,0.363888917,-0.380555541,1,0,0,1.746,Pumice_rect,8,1.746,1,15,0,15,0,1,,,,,,,,,,,,,
5fa4c21a04bc5912180291bc,TCN,2024-06-25_15h04.17.449,LearnStrategy,2023.2.3,Win32,58.82352941,1,2,1,,,,,,,,2,08,,,,,,,,,,,8,3.313,0,,,,,,0.368518547,-0.39907406,1,0,0,3.313,Pumice_rect,0,0,0,0,1,
5fa4c21a04bc5912180291bc,TCN,2024-06-25_15h04.17.449,LearnStrategy,2023.2.3,Win32,58.82352941,1,2,2,,,,,,,,8,08,,,,,,,,,,,8,2.13,1,,,,,,0.343518575,-0.390740783,1,0,0,2.13,Pumice_rect,1,0,1,0,1,
5fa4c21a04bc5912180291bc,TCN,2024-06-25_15h04.17.449,LearnStrategy,2023.2.3,Win32,58.82352941,1,2,3,,,,,,,,8,06,,,,,,,,,,,8,1.931,1,,,,,,0.369444529,-0.387962977,1,0,0,1.931,Pumice_rect,2,0,2,0,1,
5fa4c21a04bc5912180291bc,TCN,2024-06-25_15h04.17.449,LearnStrategy,2023.2.3,Win32,58.82352941,1,2,4,,,,,,,,3,06,,,,,,,,,,,4,1.28,0,,,,,,0.354629658,-0.253703718,1,0,0,1.28,Gabbro_rect,3,0,3,0,1,
5fa4c21a04bc5912180291bc,TCN,2024-06-25_15h04.17.449,LearnStrategy,2023.2.3,Win32,58.82352941,1,2,5,,,,,,,,7,13,,,,,,,,,,,6,3.796,0,,,,,,-0.137962977,-0.387037065,1,0,0,3.796,Pegmatite_rect,4,0,4,0,1,
5fa4c21a04bc5912180291bc,TCN,2024-06-25_15h04.17.449,LearnStrategy,2023.2.3,Win32,58.82352941,1,2,6,,,,,,,,1,11,,,,,,,,,,,2,2.33,0,,,,,,-0.161111125,-0.238888917,1,0,0,2.33,Basalt_rect,5,0,5,0,1,
5fa4c21a04bc5912180291bc,TCN,2024-06-25_15h04.17.449,LearnStrategy,2023.2.3,Win32,58.82352941,1,2,7,,,,,,,,6,15,,,,,,,,,,,5,2.23,0,,,,,,-0.386111118,-0.385185171,1,0,0,2.23,Obsidian_rect,6,0,6,0,1,
5fa4c21a04bc5912180291bc,TCN,2024-06-25_15h04.17.449,LearnStrategy,2023.2.3,Win32,58.82352941,1,2,8,,,,,,,,4,03,,,,,,,,,,,7,1.963,0,,,,,,0.098148134,-0.395370413,1,0,0,1.963,Peridotite_rect,7,0,7,0,1,
5fa4c21a04bc5912180291bc,TCN,2024-06-25_15h04.17.449,LearnStrategy,2023.2.3,Win32,58.82352941,1,2,9,,,,,,,,4,11,,,,,,,,,,,2,3.897,0,,,,,,-0.086111069,-0.262962977,1,0,0,3.897,Basalt_rect,8,0,8,0,1,
5fa4c21a04bc5912180291bc,TCN,2024-06-25_15h04.17.449,LearnStrategy,2023.2.3,Win32,58.82352941,1,2,10,,,,,,,,7,14,,,,,,,,,,,4,8.63,0,,,,,,0.333333333,-0.259259259,1,0,0,8.63,Gabbro_rect,9,0,9,0,1,
5fa4c21a04bc5912180291bc,TCN,2024-06-25_15h04.17.449,LearnStrategy,2023.2.3,Win32,58.82352941,1,2,11,,,,,,,,1,07,,,,,,,,,,,3,2.747,0,,,,,,0.124074088,-0.250925912,1,0,0,2.747,Diorite_rect,10,0,10,0,1,
5fa4c21a04bc5912180291bc,TCN,2024-06-25_15h04.17.449,LearnStrategy,2023.2.3,Win32,58.82352941,1,2,12,,,,,,,,5,04,,,,,,,,,,,5,1.996,1,,,,,,-0.37962963,-0.39907406,1,0,0,1.996,Obsidian_rect,11,0,11,0,1,
5fa4c21a04bc5912180291bc,TCN,2024-06-25_15h04.17.449,LearnStrategy,2023.2.3,Win32,58.82352941,1,2,13,,,,,,,,2,14,,,,,,,,,,,4,2.763,0,,,,,,0.388888889,-0.250925912,1,0,0,2.763,Gabbro_rect,12,0,12,0,1,
5fa4c21a04bc5912180291bc,TCN,2024-06-25_15h04.17.449,LearnStrategy,2023.2.3,Win32,58.82352941,1,2,14,,,,,,,,5,02,,,,,,,,,,,5,3.628,1,,,,,,-0.353703711,-0.400925954,1,0,0,3.628,Obsidian_rect,13,0,13,0,1,
5fa4c21a04bc5912180291bc,TCN,2024-06-25_15h04.17.449,LearnStrategy,2023.2.3,Win32,58.82352941,1,2,15,,,,,,,,6,09,,,,,,,,,,,2,1.713,0,,,,,,-0.069444444,-0.248148176,1,0,0,1.713,Basalt_rect,14,0,14,0,1,
5fa4c21a04bc5912180291bc,TCN,2024-06-25_15h04.17.449,LearnStrategy,2023.2.3,Win32,58.82352941,1,2,16,,,,,,,,3,13,,,,,,,,,,,6,1.546,0,,,,,,-0.086111069,-0.397222236,1,0,0,1.546,Pegmatite_rect,15,0,15,0,1,
5fa4c21a04bc5912180291bc,TCN,2024-06-25_15h04.17.449,LearnStrategy,2023.2.3,Win32,58.82352941,2,1,1,0.065740727,-0.0074074,1,0,0,3.834,rock_grid_rect_2,5,09,-1,-1,3.834,-0.326851845,-0.396296325,1,0,0,5.047,Obsidian_rect,5,5.047,1,0,0,0,0,1,,,,,,,,,,,,,
5fa4c21a04bc5912180291bc,TCN,2024-06-25_15h04.17.449,LearnStrategy,2023.2.3,Win32,58.82352941,2,1,2,0.07222225,0.001851859,1,0,0,1.566,rock_grid_rect_2,2,11,-1,-1,1.566,-0.081481439,-0.258333347,1,0,0,2.781,Basalt_rect,2,2.781,1,1,0,1,0,1,,,,,,,,,,,,,
5fa4c21a04bc5912180291bc,TCN,2024-06-25_15h04.17.449,LearnStrategy,2023.2.3,Win32,58.82352941,2,1,3,-0.032407407,0.008333312,1,0,0,2.165,rock_grid_rect_2,5,08,-1,-1,2.165,-0.392592571,-0.387037065,1,0,0,1.93,Obsidian_rect,5,1.93,1,2,0,2,0,1,,,,,,,,,,,,,
5fa4c21a04bc5912180291bc,TCN,2024-06-25_15h04.17.449,LearnStrategy,2023.2.3,Win32,58.82352941,2,1,4,0.008333347,0.001851859,1,0,0,1.099,rock_grid_rect_2,3,09,-1,-1,1.099,-0.364814794,-0.251851894,1,0,0,1.314,Andesite_rect,1,1.314,0,3,0,3,0,1,,,,,,,,,,,,,
5fa4c21a04bc5912180291bc,TCN,2024-06-25_15h04.17.449,LearnStrategy,2023.2.3,Win32,58.82352941,2,1,5,0.109259288,-0.01203703,1,0,0,1.1,rock_grid_rect_2,3,12,-1,-1,1.1,0.10555557,-0.248148176,1,0,0,1.281,Diorite_rect,3,1.281,1,4,0,4,0,1,,,,,,,,,,,,,
5fa4c21a04bc5912180291bc,TCN,2024-06-25_15h04.17.449,LearnStrategy,2023.2.3,Win32,58.82352941,2,1,6,0.065740727,-0.014814836,1,0,0,1.133,rock_grid_rect_2,6,07,-1,-1,1.133,-0.309259238,-0.249074088,1,0,0,3.247,Andesite_rect,1,3.247,0,5,0,5,0,1,,,,,,,,,,,,,
5fa4c21a04bc5912180291bc,TCN,2024-06-25_15h04.17.449,LearnStrategy,2023.2.3,Win32,58.82352941,2,1,7,0.078703704,0.003703683,1,0,0,2.515,rock_grid_rect_2,4,14,-1,-1,2.515,0.389814871,-0.252777806,1,0,0,1.247,Gabbro_rect,4,1.247,1,6,0,6,0,1,,,,,,,,,,,,,
5fa4c21a04bc5912180291bc,TCN,2024-06-25_15h04.17.449,LearnStrategy,2023.2.3,Win32,58.82352941,2,1,8,0.097222222,-0.008333347,1,0,0,0.916,rock_grid_rect_2,8,04,-1,-1,0.916,0.392592677,-0.392592607,1,0,0,2.148,Pumice_rect,8,2.148,1,7,0,7,0,1,,,,,,,,,,,,,
5fa4c21a04bc5912180291bc,TCN,2024-06-25_15h04.17.449,LearnStrategy,2023.2.3,Win32,58.82352941,2,1,9,0.025925954,-0.002777771,1,0,0,0.732,rock_grid_rect_2,1,16,-1,-1,0.732,0.090740769,-0.244444459,1,0,0,6.097,Diorite_rect,3,6.097,0,8,0,8,0,1,,,,,,,,,,,,,
5fa4c21a04bc5912180291bc,TCN,2024-06-25_15h04.17.449,LearnStrategy,2023.2.3,Win32,58.82352941,2,1,10,0.040740755,0.005555541,1,0,0,0.883,rock_grid_rect_2,1,01,-1,-1,0.883,-0.369444423,-0.391666695,1,0,0,1.632,Obsidian_rect,5,1.632,0,9,0,9,0,1,,,,,,,,,,,,,
5fa4c21a04bc5912180291bc,TCN,2024-06-25_15h04.17.449,LearnStrategy,2023.2.3,Win32,58.82352941,2,1,11,0.020370413,-0.01203703,1,0,0,0.966,rock_grid_rect_2,7,02,-1,-1,0.966,0.162962949,-0.250925912,1,0,0,1.998,Diorite_rect,3,1.998,0,10,0,10,0,1,,,,,,,,,,,,,
5fa4c21a04bc5912180291bc,TCN,2024-06-25_15h04.17.449,LearnStrategy,2023.2.3,Win32,58.82352941,2,1,12,0.041666667,0,1,0,0,1.184,rock_grid_rect_2,2,10,-1,-1,1.184,-0.344444452,-0.392592607,1,0,0,2.447,Obsidian_rect,5,2.447,0,11,0,11,0,1,,,,,,,,,,,,,
5fa4c21a04bc5912180291bc,TCN,2024-06-25_15h04.17.449,LearnStrategy,2023.2.3,Win32,58.82352941,2,1,13,0.005555541,0.017592571,1,0,0,0.815,rock_grid_rect_2,6,10,-1,-1,0.815,0.382407436,-0.25,1,0,0,1.547,Gabbro_rect,4,1.547,0,12,0,12,0,1,,,,,,,,,,,,,
5fa4c21a04bc5912180291bc,TCN,2024-06-25_15h04.17.449,LearnStrategy,2023.2.3,Win32,58.82352941,2,1,14,0.018518519,-0.014814836,1,0,0,0.898,rock_grid_rect_2,7,12,-1,-1,0.898,-0.137962977,-0.391666695,1,0,0,1.797,Pegmatite_rect,6,1.797,0,13,0,13,0,1,,,,,,,,,,,,,
5fa4c21a04bc5912180291bc,TCN,2024-06-25_15h04.17.449,LearnStrategy,2023.2.3,Win32,58.82352941,2,1,15,0.039814843,-0.023148148,1,0,0,0.799,rock_grid_rect_2,8,16,-1,-1,0.799,0.372222194,-0.382407436,1,0,0,1.43,Pumice_rect,8,1.43,1,14,0,14,0,1,,,,,,,,,,,,,
5fa4c21a04bc5912180291bc,TCN,2024-06-25_15h04.17.449,LearnStrategy,2023.2.3,Win32,58.82352941,2,1,16,0.098148134,0.008333312,1,0,0,0.848,rock_grid_rect_2,4,05,-1,-1,0.848,-0.077777792,-0.39444443,1,0,0,2.28,Pegmatite_rect,6,2.28,0,15,0,15,0,1,,,,,,,,,,,,,
5fa4c21a04bc5912180291bc,TCN,2024-06-25_15h04.17.449,LearnStrategy,2023.2.3,Win32,58.82352941,2,2,1,,,,,,,,2,12,,,,,,,,,,,8,1.679,0,,,,,,0.384259259,-0.392592607,1,0,0,1.679,Pumice_rect,0,0,0,0,1,
5fa4c21a04bc5912180291bc,TCN,2024-06-25_15h04.17.449,LearnStrategy,2023.2.3,Win32,58.82352941,2,2,2,,,,,,,,1,10,,,,,,,,,,,8,1.563,0,,,,,,0.377777806,-0.406481496,1,0,0,1.563,Pumice_rect,1,0,1,0,1,
5fa4c21a04bc5912180291bc,TCN,2024-06-25_15h04.17.449,LearnStrategy,2023.2.3,Win32,58.82352941,2,2,3,,,,,,,,8,05,,,,,,,,,,,8,1.046,1,,,,,,0.32685188,-0.387962977,1,0,0,1.046,Pumice_rect,2,0,2,0,1,
5fa4c21a04bc5912180291bc,TCN,2024-06-25_15h04.17.449,LearnStrategy,2023.2.3,Win32,58.82352941,2,2,4,,,,,,,,2,05,,,,,,,,,,,2,1.596,1,,,,,,-0.106481481,-0.250925912,1,0,0,1.596,Basalt_rect,3,0,3,0,1,
5fa4c21a04bc5912180291bc,TCN,2024-06-25_15h04.17.449,LearnStrategy,2023.2.3,Win32,58.82352941,2,2,5,,,,,,,,7,08,,,,,,,,,,,4,2.531,0,,,,,,0.354629658,-0.255555541,1,0,0,2.531,Gabbro_rect,4,0,4,0,1,
5fa4c21a04bc5912180291bc,TCN,2024-06-25_15h04.17.449,LearnStrategy,2023.2.3,Win32,58.82352941,2,2,6,,,,,,,,4,15,,,,,,,,,,,6,1.797,0,,,,,,-0.140740712,-0.392592607,1,0,0,1.797,Pegmatite_rect,5,0,5,0,1,
5fa4c21a04bc5912180291bc,TCN,2024-06-25_15h04.17.449,LearnStrategy,2023.2.3,Win32,58.82352941,2,2,7,,,,,,,,4,13,,,,,,,,,,,7,1.413,0,,,,,,0.074074074,-0.392592607,1,0,0,1.413,Peridotite_rect,6,0,6,0,1,
5fa4c21a04bc5912180291bc,TCN,2024-06-25_15h04.17.449,LearnStrategy,2023.2.3,Win32,58.82352941,2,2,8,,,,,,,,3,08,,,,,,,,,,,6,2.047,0,,,,,,-0.09629631,-0.400925954,1,0,0,2.047,Pegmatite_rect,7,0,7,0,1,
5fa4c21a04bc5912180291bc,TCN,2024-06-25_15h04.17.449,LearnStrategy,2023.2.3,Win32,58.82352941,2,2,9,,,,,,,,7,06,,,,,,,,,,,7,1.547,1,,,,,,0.119444459,-0.391666695,1,0,0,1.547,Peridotite_rect,8,0,8,0,1,
5fa4c21a04bc5912180291bc,TCN,2024-06-25_15h04.17.449,LearnStrategy,2023.2.3,Win32,58.82352941,2,2,10,,,,,,,,1,04,,,,,,,,,,,2,1.663,0,,,,,,-0.187037009,-0.244444459,1,0,0,1.663,Basalt_rect,9,0,9,0,1,
5fa4c21a04bc5912180291bc,TCN,2024-06-25_15h04.17.449,LearnStrategy,2023.2.3,Win32,58.82352941,2,2,11,,,,,,,,8,15,,,,,,,,,,,8,1.148,1,,,,,,0.375,-0.397222236,1,0,0,1.148,Pumice_rect,10,0,10,0,1,
5fa4c21a04bc5912180291bc,TCN,2024-06-25_15h04.17.449,LearnStrategy,2023.2.3,Win32,58.82352941,2,2,12,,,,,,,,6,03,,,,,,,,,,,4,1.514,0,,,,,,0.348148205,-0.255555541,1,0,0,1.514,Gabbro_rect,11,0,11,0,1,
5fa4c21a04bc5912180291bc,TCN,2024-06-25_15h04.17.449,LearnStrategy,2023.2.3,Win32,58.82352941,2,2,13,,,,,,,,6,06,,,,,,,,,,,1,2.497,0,,,,,,-0.490740741,-0.252777806,1,0,0,2.497,Andesite_rect,12,0,12,0,1,
5fa4c21a04bc5912180291bc,TCN,2024-06-25_15h04.17.449,LearnStrategy,2023.2.3,Win32,58.82352941,2,2,14,,,,,,,,5,16,,,,,,,,,,,5,1.081,1,,,,,,-0.41574072,-0.406481496,1,0,0,1.081,Obsidian_rect,13,0,13,0,1,
5fa4c21a04bc5912180291bc,TCN,2024-06-25_15h04.17.449,LearnStrategy,2023.2.3,Win32,58.82352941,2,2,15,,,,,,,,3,10,,,,,,,,,,,1,3.447,0,,,,,,-0.342592593,-0.258333347,1,0,0,3.447,Andesite_rect,14,0,14,0,1,
5fa4c21a04bc5912180291bc,TCN,2024-06-25_15h04.17.449,LearnStrategy,2023.2.3,Win32,58.82352941,2,2,16,,,,,,,,5,11,,,,,,,,,,,5,1.162,1,,,,,,-0.402777778,-0.389814801,1,0,0,1.162,Obsidian_rect,15,0,15,0,1,
5fa4c21a04bc5912180291bc,TCN,2024-06-25_15h04.17.449,LearnStrategy,2023.2.3,Win32,58.82352941,3,1,1,0.125925912,-0.003703718,1,0,0,1.115,rock_grid_rect_2,5,06,-1,-1,1.115,-0.41574072,-0.39444443,1,0,0,1.514,Obsidian_rect,5,1.514,1,0,0,0,0,1,,,,,,,,,,,,,
5fa4c21a04bc5912180291bc,TCN,2024-06-25_15h04.17.449,LearnStrategy,2023.2.3,Win32,58.82352941,3,1,2,-0.011111083,-0.009259259,1,0,0,1.215,rock_grid_rect_2,8,10,-1,-1,1.215,0.368518547,-0.378703718,1,0,0,1.214,Pumice_rect,8,1.214,1,1,0,1,0,1,,,,,,,,,,,,,
5fa4c21a04bc5912180291bc,TCN,2024-06-25_15h04.17.449,LearnStrategy,2023.2.3,Win32,58.82352941,3,1,3,0.064814815,-0.013888889,1,0,0,0.915,rock_grid_rect_2,1,02,-1,-1,0.915,0.354629658,-0.249074088,1,0,0,1.231,Gabbro_rect,4,1.231,0,2,0,2,0,1,,,,,,,,,,,,,
5fa4c21a04bc5912180291bc,TCN,2024-06-25_15h04.17.449,LearnStrategy,2023.2.3,Win32,58.82352941,3,1,4,0.012962977,-0.021296289,1,0,0,0.983,rock_grid_rect_2,2,04,-1,-1,0.983,-0.141666624,-0.237037023,1,0,0,1.348,Basalt_rect,2,1.348,1,3,0,3,0,1,,,,,,,,,,,,,
5fa4c21a04bc5912180291bc,TCN,2024-06-25_15h04.17.449,LearnStrategy,2023.2.3,Win32,58.82352941,3,1,5,0.045370384,-0.00462963,1,0,0,1.033,rock_grid_rect_2,2,06,-1,-1,1.033,-0.128703718,-0.251851894,1,0,0,1.013,Basalt_rect,2,1.013,1,4,0,4,0,1,,,,,,,,,,,,,
5fa4c21a04bc5912180291bc,TCN,2024-06-25_15h04.17.449,LearnStrategy,2023.2.3,Win32,58.82352941,3,1,6,0.012037065,0.003703683,1,0,0,1.249,rock_grid_rect_2,4,12,-1,-1,1.249,0.12037037,-0.389814801,1,0,0,1.948,Peridotite_rect,7,1.948,0,5,0,5,0,1,,,,,,,,,,,,,
5fa4c21a04bc5912180291bc,TCN,2024-06-25_15h04.17.449,LearnStrategy,2023.2.3,Win32,58.82352941,3,1,7,0.123148176,-0.01203703,1,0,0,1.25,rock_grid_rect_2,6,12,-1,-1,1.25,-0.342592593,-0.237037023,1,0,0,1.747,Andesite_rect,1,1.747,0,6,0,6,0,1,,,,,,,,,,,,,
5fa4c21a04bc5912180291bc,TCN,2024-06-25_15h04.17.449,LearnStrategy,2023.2.3,Win32,58.82352941,3,1,8,0.006481524,-0.003703718,1,0,0,0.767,rock_grid_rect_2,1,09,-1,-1,0.767,0.328703704,-0.238888917,1,0,0,1.797,Gabbro_rect,4,1.797,0,7,0,7,0,1,,,,,,,,,,,,,
5fa4c21a04bc5912180291bc,TCN,2024-06-25_15h04.17.449,LearnStrategy,2023.2.3,Win32,58.82352941,3,1,9,0.00462963,-0.023148148,1,0,0,0.766,rock_grid_rect_2,6,11,-1,-1,0.766,-0.364814794,-0.389814801,1,0,0,1.231,Obsidian_rect,5,1.231,0,8,0,8,0,1,,,,,,,,,,,,,
5fa4c21a04bc5912180291bc,TCN,2024-06-25_15h04.17.449,LearnStrategy,2023.2.3,Win32,58.82352941,3,1,10,0.046296296,-0.01203703,1,0,0,0.782,rock_grid_rect_2,7,05,-1,-1,0.782,-0.169444402,-0.263888889,1,0,0,1.331,Basalt_rect,2,1.331,0,9,0,9,0,1,,,,,,,,,,,,,
5fa4c21a04bc5912180291bc,TCN,2024-06-25_15h04.17.449,LearnStrategy,2023.2.3,Win32,58.82352941,3,1,11,0.032407407,-0.003703718,1,0,0,0.782,rock_grid_rect_2,3,11,-1,-1,0.782,0.132407436,-0.401851866,1,0,0,1.33,Peridotite_rect,7,1.33,0,10,0,10,0,1,,,,,,,,,,,,,
5fa4c21a04bc5912180291bc,TCN,2024-06-25_15h04.17.449,LearnStrategy,2023.2.3,Win32,58.82352941,3,1,12,0.062037079,-0.003703718,1,0,0,0.75,rock_grid_rect_2,7,15,-1,-1,0.75,-0.376851859,-0.261111153,1,0,0,2.747,Andesite_rect,1,2.747,0,11,0,11,0,1,,,,,,,,,,,,,
5fa4c21a04bc5912180291bc,TCN,2024-06-25_15h04.17.449,LearnStrategy,2023.2.3,Win32,58.82352941,3,1,13,-0.027777778,-0.009259259,1,0,0,0.782,rock_grid_rect_2,5,05,-1,-1,0.782,-0.390740748,-0.396296325,1,0,0,1.248,Obsidian_rect,5,1.248,1,12,0,12,0,1,,,,,,,,,,,,,
5fa4c21a04bc5912180291bc,TCN,2024-06-25_15h04.17.449,LearnStrategy,2023.2.3,Win32,58.82352941,3,1,14,0.016666695,0.001851859,1,0,0,0.933,rock_grid_rect_2,8,13,-1,-1,0.933,0.362962935,-0.39444443,1,0,0,1.764,Pumice_rect,8,1.764,1,13,0,13,0,1,,,,,,,,,,,,,
5fa4c21a04bc5912180291bc,TCN,2024-06-25_15h04.17.449,LearnStrategy,2023.2.3,Win32,58.82352941,3,1,15,-0.011111083,-0.021296289,1,0,0,0.93,rock_grid_rect_2,3,02,-1,-1,0.93,-0.327777757,-0.252777806,1,0,0,2.83,Andesite_rect,1,2.83,0,14,0,14,0,1,,,,,,,,,,,,,
5fa4c21a04bc5912180291bc,TCN,2024-06-25_15h04.17.449,LearnStrategy,2023.2.3,Win32,58.82352941,3,1,16,0.014814801,0.009259259,1,0,0,1.216,rock_grid_rect_2,4,16,-1,-1,1.216,-0.119444459,-0.240740741,1,0,0,1.248,Basalt_rect,2,1.248,0,15,0,15,0,1,,,,,,,,,,,,,
5fa4c21a04bc5912180291bc,TCN,2024-06-25_15h04.17.449,LearnStrategy,2023.2.3,Win32,58.82352941,3,2,1,,,,,,,,7,16,,,,,,,,,,,4,10.063,0,,,,,,0.35555564,-0.228703746,1,0,0,10.063,Gabbro_rect,0,0,0,0,1,
5fa4c21a04bc5912180291bc,TCN,2024-06-25_15h04.17.449,LearnStrategy,2023.2.3,Win32,58.82352941,3,2,2,,,,,,,,5,12,,,,,,,,,,,5,1.313,1,,,,,,-0.37962963,-0.396296325,1,0,0,1.313,Obsidian_rect,1,0,1,0,1,
5fa4c21a04bc5912180291bc,TCN,2024-06-25_15h04.17.449,LearnStrategy,2023.2.3,Win32,58.82352941,3,2,3,,,,,,,,6,16,,,,,,,,,,,6,6.748,1,,,,,,-0.078703704,-0.417592578,1,0,0,6.748,Pegmatite_rect,2,0,2,0,1,
5fa4c21a04bc5912180291bc,TCN,2024-06-25_15h04.17.449,LearnStrategy,2023.2.3,Win32,58.82352941,3,2,4,,,,,,,,3,16,,,,,,,,,,,1,1.581,0,,,,,,-0.376851859,-0.257407436,1,0,0,1.581,Andesite_rect,3,0,3,0,1,
5fa4c21a04bc5912180291bc,TCN,2024-06-25_15h04.17.449,LearnStrategy,2023.2.3,Win32,58.82352941,3,2,5,,,,,,,,8,14,,,,,,,,,,,8,0.897,1,,,,,,0.397222307,-0.405555584,1,0,0,0.897,Pumice_rect,4,0,4,0,1,
5fa4c21a04bc5912180291bc,TCN,2024-06-25_15h04.17.449,LearnStrategy,2023.2.3,Win32,58.82352941,3,2,6,,,,,,,,4,10,,,,,,,,,,,4,4.646,1,,,,,,0.439814815,-0.248148176,1,0,0,4.646,Gabbro_rect,5,0,5,0,1,
5fa4c21a04bc5912180291bc,TCN,2024-06-25_15h04.17.449,LearnStrategy,2023.2.3,Win32,58.82352941,3,2,7,,,,,,,,6,08,,,,,,,,,,,3,13.453,0,,,,,,0.145370413,-0.235185199,1,0,0,13.453,Diorite_rect,6,0,6,0,1,
5fa4c21a04bc5912180291bc,TCN,2024-06-25_15h04.17.449,LearnStrategy,2023.2.3,Win32,58.82352941,3,2,8,,,,,,,,8,09,,,,,,,,,,,8,1.082,1,,,,,,0.415740826,-0.419444473,1,0,0,1.082,Pumice_rect,7,0,7,0,1,
5fa4c21a04bc5912180291bc,TCN,2024-06-25_15h04.17.449,LearnStrategy,2023.2.3,Win32,58.82352941,3,2,9,,,,,,,,5,07,,,,,,,,,,,5,1.182,1,,,,,,-0.460185192,-0.421296296,1,0,0,1.182,Obsidian_rect,8,0,8,0,1,
5fa4c21a04bc5912180291bc,TCN,2024-06-25_15h04.17.449,LearnStrategy,2023.2.3,Win32,58.82352941,3,2,10,,,,,,,,3,07,,,,,,,,,,,1,3.817,0,,,,,,-0.422222208,-0.255555541,1,0,0,3.817,Andesite_rect,9,0,9,0,1,
5fa4c21a04bc5912180291bc,TCN,2024-06-25_15h04.17.449,LearnStrategy,2023.2.3,Win32,58.82352941,3,2,11,,,,,,,,7,10,,,,,,,,,,,6,2.661,0,,,,,,-0.134259259,-0.406481496,1,0,0,2.661,Pegmatite_rect,10,0,10,0,1,
5fa4c21a04bc5912180291bc,TCN,2024-06-25_15h04.17.449,LearnStrategy,2023.2.3,Win32,58.82352941,3,2,12,,,,,,,,1,03,,,,,,,,,,,2,1.55,0,,,,,,-0.10092594,-0.253703718,1,0,0,1.55,Basalt_rect,11,0,11,0,1,
5fa4c21a04bc5912180291bc,TCN,2024-06-25_15h04.17.449,LearnStrategy,2023.2.3,Win32,58.82352941,3,2,13,,,,,,,,1,05,,,,,,,,,,,4,1.633,0,,,,,,0.359259288,-0.256481524,1,0,0,1.633,Gabbro_rect,12,0,12,0,1,
5fa4c21a04bc5912180291bc,TCN,2024-06-25_15h04.17.449,LearnStrategy,2023.2.3,Win32,58.82352941,3,2,14,,,,,,,,2,09,,,,,,,,,,,2,1.434,1,,,,,,-0.146296254,-0.251851894,1,0,0,1.434,Basalt_rect,13,0,13,0,1,
5fa4c21a04bc5912180291bc,TCN,2024-06-25_15h04.17.449,LearnStrategy,2023.2.3,Win32,58.82352941,3,2,15,,,,,,,,4,08,,,,,,,,,,,4,2.298,1,,,,,,0.387963048,-0.264814801,1,0,0,2.298,Gabbro_rect,14,0,14,0,1,
5fa4c21a04bc5912180291bc,TCN,2024-06-25_15h04.17.449,LearnStrategy,2023.2.3,Win32,58.82352941,3,2,16,,,,,,,,2,01,,,,,,,,,,,2,44.763,1,,,,,,-0.188888903,-0.249074088,1,0,0,44.763,Basalt_rect,15,0,15,0,1,
5fa4c21a04bc5912180291bc,TCN,2024-06-25_15h04.17.449,LearnStrategy,2023.2.3,Win32,58.82352941,4,1,1,0.067592621,0.018518519,1,0,0,1.399,rock_grid_rect_2,8,02,-1,-1,1.399,0.363888917,-0.397222236,1,0,0,1.298,Pumice_rect,8,1.298,1,0,0,0,0,1,,,,,,,,,,,,,
5fa4c21a04bc5912180291bc,TCN,2024-06-25_15h04.17.449,LearnStrategy,2023.2.3,Win32,58.82352941,4,1,2,-0.008333347,0.011111118,1,0,0,1.183,rock_grid_rect_2,8,13,-1,-1,1.183,0.361111111,-0.408333319,1,0,0,1.497,Pumice_rect,8,1.497,1,1,0,1,0,1,,,,,,,,,,,,,
5fa4c21a04bc5912180291bc,TCN,2024-06-25_15h04.17.449,LearnStrategy,2023.2.3,Win32,58.82352941,4,1,3,-0.021296254,-0.012962977,1,0,0,0.816,rock_grid_rect_2,2,16,-1,-1,0.816,-0.133333347,-0.265740783,1,0,0,1.214,Basalt_rect,2,1.214,1,2,0,2,0,1,,,,,,,,,,,,,
5fa4c21a04bc5912180291bc,TCN,2024-06-25_15h04.17.449,LearnStrategy,2023.2.3,Win32,58.82352941,4,1,4,-0.040740755,0.022222201,1,0,0,0.733,rock_grid_rect_2,2,06,-1,-1,0.733,-0.10092594,-0.238888917,1,0,0,2.08,Basalt_rect,2,2.08,1,3,0,3,0,1,,,,,,,,,,,,,
5fa4c21a04bc5912180291bc,TCN,2024-06-25_15h04.17.449,LearnStrategy,2023.2.3,Win32,58.82352941,4,1,5,-0.02870369,-0.009259259,1,0,0,0.748,rock_grid_rect_2,5,10,-1,-1,0.748,-0.365740741,-0.418518561,1,0,0,2.781,Obsidian_rect,5,2.781,1,4,0,4,0,1,,,,,,,,,,,,,
5fa4c21a04bc5912180291bc,TCN,2024-06-25_15h04.17.449,LearnStrategy,2023.2.3,Win32,58.82352941,4,1,6,-0.047222208,0.012962942,1,0,0,0.766,rock_grid_rect_2,3,11,-1,-1,0.766,0.112037023,-0.404629672,1,0,0,2.98,Peridotite_rect,7,2.98,0,5,0,5,0,1,,,,,,,,,,,,,
5fa4c21a04bc5912180291bc,TCN,2024-06-25_15h04.17.449,LearnStrategy,2023.2.3,Win32,58.82352941,4,1,7,0.033333319,0,1,0,0,0.849,rock_grid_rect_2,6,10,-1,-1,0.849,-0.384259259,-0.241666653,1,0,0,1.947,Andesite_rect,1,1.947,0,6,0,6,0,1,,,,,,,,,,,,,
5fa4c21a04bc5912180291bc,TCN,2024-06-25_15h04.17.449,LearnStrategy,2023.2.3,Win32,58.82352941,4,1,8,-0.047222208,-0.005555577,1,0,0,0.733,rock_grid_rect_2,3,09,-1,-1,0.733,-0.361111111,-0.252777806,1,0,0,1.33,Andesite_rect,1,1.33,0,7,0,7,0,1,,,,,,,,,,,,,
5fa4c21a04bc5912180291bc,TCN,2024-06-25_15h04.17.449,LearnStrategy,2023.2.3,Win32,58.82352941,4,1,9,-0.06759255,0.014814801,1,0,0,0.732,rock_grid_rect_2,1,02,-1,-1,0.732,0.14907406,-0.26944443,1,0,0,1.614,Diorite_rect,3,1.614,0,8,0,8,0,1,,,,,,,,,,,,,
5fa4c21a04bc5912180291bc,TCN,2024-06-25_15h04.17.449,LearnStrategy,2023.2.3,Win32,58.82352941,4,1,10,-0.024999972,-0.01666666,1,0,0,0.649,rock_grid_rect_2,5,14,-1,-1,0.649,-0.400925919,-0.409259302,1,0,0,1.031,Obsidian_rect,5,1.031,1,9,0,9,0,1,,,,,,,,,,,,,
5fa4c21a04bc5912180291bc,TCN,2024-06-25_15h04.17.449,LearnStrategy,2023.2.3,Win32,58.82352941,4,1,11,-0.051851838,0.005555541,1,0,0,0.798,rock_grid_rect_2,7,05,-1,-1,0.798,0.406481566,-0.249074088,1,0,0,7.883,Gabbro_rect,4,7.883,0,10,0,10,0,1,,,,,,,,,,,,,
5fa4c21a04bc5912180291bc,TCN,2024-06-25_15h04.17.449,LearnStrategy,2023.2.3,Win32,58.82352941,4,1,12,0,-0.013888889,1,0,0,0.788,rock_grid_rect_2,1,06,-1,-1,0.788,-0.089814787,-0.244444459,1,0,0,2.651,Basalt_rect,2,2.651,0,11,0,11,0,1,,,,,,,,,,,,,
5fa4c21a04bc5912180291bc,TCN,2024-06-25_15h04.17.449,LearnStrategy,2023.2.3,Win32,58.82352941,4,1,13,-0.00462963,-0.01203703,1,0,0,0.703,rock_grid_rect_2,4,12,-1,-1,0.703,-0.17777775,-0.228703746,1,0,0,2.331,Basalt_rect,2,2.331,0,12,0,12,0,1,,,,,,,,,,,,,
5fa4c21a04bc5912180291bc,TCN,2024-06-25_15h04.17.449,LearnStrategy,2023.2.3,Win32,58.82352941,4,1,14,-0.056481467,0.011111118,1,0,0,0.786,rock_grid_rect_2,7,15,-1,-1,0.786,-0.10555557,-0.401851866,1,0,0,3.509,Pegmatite_rect,6,3.509,0,13,0,13,0,1,,,,,,,,,,,,,
5fa4c21a04bc5912180291bc,TCN,2024-06-25_15h04.17.449,LearnStrategy,2023.2.3,Win32,58.82352941,4,1,15,-0.04814812,-0.019444466,1,0,0,0.899,rock_grid_rect_2,4,09,-1,-1,0.899,-0.368518511,-0.420370384,1,0,0,1.969,Obsidian_rect,5,1.969,0,14,0,14,0,1,,,,,,,,,,,,,
5fa4c21a04bc5912180291bc,TCN,2024-06-25_15h04.17.449,LearnStrategy,2023.2.3,Win32,58.82352941,4,1,16,-0.049074032,-0.018518519,1,0,0,0.669,rock_grid_rect_2,6,13,-1,-1,0.669,0.175925926,-0.249074088,1,0,0,6.603,Diorite_rect,3,6.603,0,15,0,15,0,1,,,,,,,,,,,,,
5fa4c21a04bc5912180291bc,TCN,2024-06-25_15h04.17.449,LearnStrategy,2023.2.3,Win32,58.82352941,4,2,1,,,,,,,,5,16,,,,,,,,,,,5,2.006,1,,,,,,-0.381481489,-0.408333319,1,0,0,2.006,Obsidian_rect,0,0,0,0,1,
5fa4c21a04bc5912180291bc,TCN,2024-06-25_15h04.17.449,LearnStrategy,2023.2.3,Win32,58.82352941,4,2,2,,,,,,,,1,07,,,,,,,,,,,1,2.116,1,,,,,,-0.388888889,-0.237037023,1,0,0,2.116,Andesite_rect,1,0,1,0,1,
5fa4c21a04bc5912180291bc,TCN,2024-06-25_15h04.17.449,LearnStrategy,2023.2.3,Win32,58.82352941,4,2,3,,,,,,,,6,08,,,,,,,,,,,3,1.383,0,,,,,,0.137037065,-0.253703718,1,0,0,1.383,Diorite_rect,2,0,2,0,1,
5fa4c21a04bc5912180291bc,TCN,2024-06-25_15h04.17.449,LearnStrategy,2023.2.3,Win32,58.82352941,4,2,4,,,,,,,,7,13,,,,,,,,,,,7,1.651,1,,,,,,0.087962963,-0.385185171,1,0,0,1.651,Peridotite_rect,3,0,3,0,1,
5fa4c21a04bc5912180291bc,TCN,2024-06-25_15h04.17.449,LearnStrategy,2023.2.3,Win32,58.82352941,4,2,5,,,,,,,,3,16,,,,,,,,,,,1,1.379,0,,,,,,-0.432407414,-0.249074088,1,0,0,1.379,Andesite_rect,4,0,4,0,1,
5fa4c21a04bc5912180291bc,TCN,2024-06-25_15h04.17.449,LearnStrategy,2023.2.3,Win32,58.82352941,4,2,6,,,,,,,,4,11,,,,,,,,,,,2,1.119,0,,,,,,-0.117592564,-0.248148176,1,0,0,1.119,Basalt_rect,5,0,5,0,1,
5fa4c21a04bc5912180291bc,TCN,2024-06-25_15h04.17.449,LearnStrategy,2023.2.3,Win32,58.82352941,4,2,7,,,,,,,,3,08,,,,,,,,,,,3,1.785,1,,,,,,0.091666681,-0.24537037,1,0,0,1.785,Diorite_rect,6,0,6,0,1,
5fa4c21a04bc5912180291bc,TCN,2024-06-25_15h04.17.449,LearnStrategy,2023.2.3,Win32,58.82352941,4,2,8,,,,,,,,2,09,,,,,,,,,,,2,0.999,1,,,,,,-0.127777735,-0.252777806,1,0,0,0.999,Basalt_rect,7,0,7,0,1,
5fa4c21a04bc5912180291bc,TCN,2024-06-25_15h04.17.449,LearnStrategy,2023.2.3,Win32,58.82352941,4,2,9,,,,,,,,7,10,,,,,,,,,,,6,3.07,0,,,,,,-0.152777778,-0.410185213,1,0,0,3.07,Pegmatite_rect,8,0,8,0,1,
5fa4c21a04bc5912180291bc,TCN,2024-06-25_15h04.17.449,LearnStrategy,2023.2.3,Win32,58.82352941,4,2,10,,,,,,,,2,05,,,,,,,,,,,2,1.099,1,,,,,,-0.162037037,-0.252777806,1,0,0,1.099,Basalt_rect,9,0,9,0,1,
5fa4c21a04bc5912180291bc,TCN,2024-06-25_15h04.17.449,LearnStrategy,2023.2.3,Win32,58.82352941,4,2,11,,,,,,,,8,09,,,,,,,,,,,8,1.132,1,,,,,,0.380555612,-0.40370369,1,0,0,1.132,Pumice_rect,10,0,10,0,1,
5fa4c21a04bc5912180291bc,TCN,2024-06-25_15h04.17.449,LearnStrategy,2023.2.3,Win32,58.82352941,4,2,12,,,,,,,,1,04,,,,,,,,,,,4,4.708,0,,,,,,0.402777778,-0.231481481,1,0,0,4.708,Gabbro_rect,11,0,11,0,1,
5fa4c21a04bc5912180291bc,TCN,2024-06-25_15h04.17.449,LearnStrategy,2023.2.3,Win32,58.82352941,4,2,13,,,,,,,,6,09,,,,,,,,,,,7,2.796,0,,,,,,0.067592621,-0.389814801,1,0,0,2.796,Peridotite_rect,12,0,12,0,1,
5fa4c21a04bc5912180291bc,TCN,2024-06-25_15h04.17.449,LearnStrategy,2023.2.3,Win32,58.82352941,4,2,14,,,,,,,,5,12,,,,,,,,,,,5,2.015,1,,,,,,-0.452777757,-0.395370413,1,0,0,2.015,Obsidian_rect,13,0,13,0,1,
5fa4c21a04bc5912180291bc,TCN,2024-06-25_15h04.17.449,LearnStrategy,2023.2.3,Win32,58.82352941,4,2,15,,,,,,,,4,08,,,,,,,,,,,2,2.003,0,,,,,,-0.128703718,-0.239814829,1,0,0,2.003,Basalt_rect,14,0,14,0,1,
5fa4c21a04bc5912180291bc,TCN,2024-06-25_15h04.17.449,LearnStrategy,2023.2.3,Win32,58.82352941,4,2,16,,,,,,,,8,05,,,,,,,,,,,8,1.903,1,,,,,,0.394444501,-0.395370413,1,0,0,1.903,Pumice_rect,15,0,15,0,1,
5fa4c21a04bc5912180291bc,TCN,2024-06-25_15h04.17.449,LearnStrategy,2023.2.3,Win32,58.82352941,5,1,1,0.108333376,-0.00462963,1,0,0,1.265,rock_grid_rect_2,6,05,-1,-1,1.265,0.146296325,-0.243518547,1,0,0,4.013,Diorite_rect,3,4.013,0,0,0,0,0,1,,,,,,,,,,,,,
5fa4c21a04bc5912180291bc,TCN,2024-06-25_15h04.17.449,LearnStrategy,2023.2.3,Win32,58.82352941,5,1,2,0.01944443,-0.012962977,1,0,0,1.032,rock_grid_rect_2,5,08,-1,-1,1.032,-0.369444423,-0.389814801,1,0,0,1.013,Obsidian_rect,5,1.013,1,1,0,1,0,1,,,,,,,,,,,,,
5fa4c21a04bc5912180291bc,TCN,2024-06-25_15h04.17.449,LearnStrategy,2023.2.3,Win32,58.82352941,5,1,3,-0.062962921,0.009259259,1,0,0,0.816,rock_grid_rect_2,2,10,-1,-1,0.816,-0.179629644,-0.238888917,1,0,0,0.964,Basalt_rect,2,0.964,1,2,0,2,0,1,,,,,,,,,,,,,
5fa4c21a04bc5912180291bc,TCN,2024-06-25_15h04.17.449,LearnStrategy,2023.2.3,Win32,58.82352941,5,1,4,-0.018518519,-0.01203703,1,0,0,0.683,rock_grid_rect_2,8,16,-1,-1,0.683,0.375,-0.407407407,1,0,0,1.113,Pumice_rect,8,1.113,1,3,0,3,0,1,,,,,,,,,,,,,
5fa4c21a04bc5912180291bc,TCN,2024-06-25_15h04.17.449,LearnStrategy,2023.2.3,Win32,58.82352941,5,1,5,0.00462963,-0.024074095,1,0,0,0.598,rock_grid_rect_2,7,12,-1,-1,0.598,-0.407407407,-0.235185199,1,0,0,2.03,Andesite_rect,1,2.03,0,4,0,4,0,1,,,,,,,,,,,,,
5fa4c21a04bc5912180291bc,TCN,2024-06-25_15h04.17.449,LearnStrategy,2023.2.3,Win32,58.82352941,5,1,6,-0.01944443,-0.008333347,1,0,0,0.666,rock_grid_rect_2,5,06,-1,-1,0.666,-0.392592571,-0.390740783,1,0,0,1.165,Obsidian_rect,5,1.165,1,5,0,5,0,1,,,,,,,,,,,,,
5fa4c21a04bc5912180291bc,TCN,2024-06-25_15h04.17.449,LearnStrategy,2023.2.3,Win32,58.82352941,5,1,7,0.012037065,-0.005555577,1,0,0,0.782,rock_grid_rect_2,8,03,-1,-1,0.782,0.412963019,-0.387962977,1,0,0,1.031,Pumice_rect,8,1.031,1,6,0,6,0,1,,,,,,,,,,,,,
5fa4c21a04bc5912180291bc,TCN,2024-06-25_15h04.17.449,LearnStrategy,2023.2.3,Win32,58.82352941,5,1,8,0.034259302,0.009259259,1,0,0,1.05,rock_grid_rect_2,3,02,-1,-1,1.05,0.136111153,-0.238888917,1,0,0,1.564,Diorite_rect,3,1.564,1,7,0,7,0,1,,,,,,,,,,,,,
5fa4c21a04bc5912180291bc,TCN,2024-06-25_15h04.17.449,LearnStrategy,2023.2.3,Win32,58.82352941,5,1,9,-0.007407365,-0.010185206,1,0,0,0.699,rock_grid_rect_2,3,14,-1,-1,0.699,-0.3824074,-0.256481524,1,0,0,1.98,Andesite_rect,1,1.98,0,8,0,8,0,1,,,,,,,,,,,,,
5fa4c21a04bc5912180291bc,TCN,2024-06-25_15h04.17.449,LearnStrategy,2023.2.3,Win32,58.82352941,5,1,10,0.005555541,0.015740748,1,0,0,0.582,rock_grid_rect_2,7,02,-1,-1,0.582,-0.087037051,-0.396296325,1,0,0,1.881,Pegmatite_rect,6,1.881,0,9,0,9,0,1,,,,,,,,,,,,,
5fa4c21a04bc5912180291bc,TCN,2024-06-25_15h04.17.449,LearnStrategy,2023.2.3,Win32,58.82352941,5,1,11,-0.027777778,0,1,0,0,0.649,rock_grid_rect_2,1,09,-1,-1,0.649,-0.112962935,-0.252777806,1,0,0,1.113,Basalt_rect,2,1.113,0,10,0,10,0,1,,,,,,,,,,,,,
5fa4c21a04bc5912180291bc,TCN,2024-06-25_15h04.17.449,LearnStrategy,2023.2.3,Win32,58.82352941,5,1,12,0.006481524,-0.009259259,1,0,0,0.916,rock_grid_rect_2,4,14,-1,-1,0.916,-0.109259217,-0.256481524,1,0,0,1.198,Basalt_rect,2,1.198,0,11,0,11,0,1,,,,,,,,,,,,,
5fa4c21a04bc5912180291bc,TCN,2024-06-25_15h04.17.449,LearnStrategy,2023.2.3,Win32,58.82352941,5,1,13,0.011111153,-0.009259259,1,0,0,0.766,rock_grid_rect_2,6,07,-1,-1,0.766,0.114814829,-0.244444459,1,0,0,1.647,Diorite_rect,3,1.647,0,12,0,12,0,1,,,,,,,,,,,,,
5fa4c21a04bc5912180291bc,TCN,2024-06-25_15h04.17.449,LearnStrategy,2023.2.3,Win32,58.82352941,5,1,14,0.013888889,-0.002777771,1,0,0,0.683,rock_grid_rect_2,2,11,-1,-1,0.683,-0.07222218,-0.258333347,1,0,0,1.797,Basalt_rect,2,1.797,1,13,0,13,0,1,,,,,,,,,,,,,
5fa4c21a04bc5912180291bc,TCN,2024-06-25_15h04.17.449,LearnStrategy,2023.2.3,Win32,58.82352941,5,1,15,-0.010185171,-0.012962977,1,0,0,1.116,rock_grid_rect_2,1,14,-1,-1,1.116,0.337962963,-0.234259288,1,0,0,2.681,Gabbro_rect,4,2.681,0,14,0,14,0,1,,,,,,,,,,,,,
5fa4c21a04bc5912180291bc,TCN,2024-06-25_15h04.17.449,LearnStrategy,2023.2.3,Win32,58.82352941,5,1,16,-0.041666667,0.017592571,1,0,0,0.481,rock_grid_rect_2,4,01,-1,-1,0.481,-0.326851845,-0.24537037,1,0,0,1.782,Andesite_rect,1,1.782,0,15,0,15,0,1,,,,,,,,,,,,,
5fa4c21a04bc5912180291bc,TCN,2024-06-25_15h04.17.449,LearnStrategy,2023.2.3,Win32,58.82352941,5,2,1,,,,,,,,4,13,,,,,,,,,,,4,1.614,1,,,,,,0.354629658,-0.25462963,1,0,0,1.614,Gabbro_rect,0,0,0,0,1,
5fa4c21a04bc5912180291bc,TCN,2024-06-25_15h04.17.449,LearnStrategy,2023.2.3,Win32,58.82352941,5,2,2,,,,,,,,7,06,,,,,,,,,,,6,4.429,0,,,,,,-0.10555557,-0.396296325,1,0,0,4.429,Pegmatite_rect,1,0,1,0,1,
5fa4c21a04bc5912180291bc,TCN,2024-06-25_15h04.17.449,LearnStrategy,2023.2.3,Win32,58.82352941,5,2,3,,,,,,,,5,07,,,,,,,,,,,5,1.046,1,,,,,,-0.409259266,-0.401851866,1,0,0,1.046,Obsidian_rect,2,0,2,0,1,
5fa4c21a04bc5912180291bc,TCN,2024-06-25_15h04.17.449,LearnStrategy,2023.2.3,Win32,58.82352941,5,2,4,,,,,,,,7,16,,,,,,,,,,,7,4.863,1,,,,,,0.077777792,-0.39907406,1,0,0,4.863,Peridotite_rect,3,0,3,0,1,
5fa4c21a04bc5912180291bc,TCN,2024-06-25_15h04.17.449,LearnStrategy,2023.2.3,Win32,58.82352941,5,2,5,,,,,,,,6,15,,,,,,,,,,,1,2.664,0,,,,,,-0.333333333,-0.253703718,1,0,0,2.664,Andesite_rect,4,0,4,0,1,
5fa4c21a04bc5912180291bc,TCN,2024-06-25_15h04.17.449,LearnStrategy,2023.2.3,Win32,58.82352941,5,2,6,,,,,,,,1,11,,,,,,,,,,,4,2.463,0,,,,,,0.394444501,-0.253703718,1,0,0,2.463,Gabbro_rect,5,0,5,0,1,
5fa4c21a04bc5912180291bc,TCN,2024-06-25_15h04.17.449,LearnStrategy,2023.2.3,Win32,58.82352941,5,2,7,,,,,,,,2,14,,,,,,,,,,,2,4.296,1,,,,,,-0.123148106,-0.250925912,1,0,0,4.296,Basalt_rect,6,0,6,0,1,
5fa4c21a04bc5912180291bc,TCN,2024-06-25_15h04.17.449,LearnStrategy,2023.2.3,Win32,58.82352941,5,2,8,,,,,,,,1,05,,,,,,,,,,,1,1.546,1,,,,,,-0.410185178,-0.234259288,1,0,0,1.546,Andesite_rect,7,0,7,0,1,
5fa4c21a04bc5912180291bc,TCN,2024-06-25_15h04.17.449,LearnStrategy,2023.2.3,Win32,58.82352941,5,2,9,,,,,,,,3,06,,,,,,,,,,,6,5.745,0,,,,,,-0.108333305,-0.392592607,1,0,0,5.745,Pegmatite_rect,8,0,8,0,1,
5fa4c21a04bc5912180291bc,TCN,2024-06-25_15h04.17.449,LearnStrategy,2023.2.3,Win32,58.82352941,5,2,10,,,,,,,,3,07,,,,,,,,,,,3,1.497,1,,,,,,0.08148151,-0.262037065,1,0,0,1.497,Diorite_rect,9,0,9,0,1,
5fa4c21a04bc5912180291bc,TCN,2024-06-25_15h04.17.449,LearnStrategy,2023.2.3,Win32,58.82352941,5,2,11,,,,,,,,2,08,,,,,,,,,,,2,0.863,1,,,,,,-0.150925884,-0.255555541,1,0,0,0.863,Basalt_rect,10,0,10,0,1,
5fa4c21a04bc5912180291bc,TCN,2024-06-25_15h04.17.449,LearnStrategy,2023.2.3,Win32,58.82352941,5,2,12,,,,,,,,6,16,,,,,,,,,,,3,1.747,0,,,,,,0.10092594,-0.262037065,1,0,0,1.747,Diorite_rect,11,0,11,0,1,
5fa4c21a04bc5912180291bc,TCN,2024-06-25_15h04.17.449,LearnStrategy,2023.2.3,Win32,58.82352941,5,2,13,,,,,,,,8,08,,,,,,,,,,,8,1.131,1,,,,,,0.384259259,-0.411111125,1,0,0,1.131,Pumice_rect,12,0,12,0,1,
5fa4c21a04bc5912180291bc,TCN,2024-06-25_15h04.17.449,LearnStrategy,2023.2.3,Win32,58.82352941,5,2,14,,,,,,,,8,15,,,,,,,,,,,8,0.997,1,,,,,,0.422222279,-0.404629672,1,0,0,0.997,Pumice_rect,13,0,13,0,1,
5fa4c21a04bc5912180291bc,TCN,2024-06-25_15h04.17.449,LearnStrategy,2023.2.3,Win32,58.82352941,5,2,15,,,,,,,,5,02,,,,,,,,,,,5,1.745,1,,,,,,-0.386111118,-0.395370413,1,0,0,1.745,Obsidian_rect,14,0,14,0,1,
5fa4c21a04bc5912180291bc,TCN,2024-06-25_15h04.17.449,LearnStrategy,2023.2.3,Win32,58.82352941,5,2,16,,,,,,,,4,03,,,,,,,,,,,1,2.281,0,,,,,,-0.362037023,-0.240740741,1,0,0,2.281,Andesite_rect,15,0,15,0,1,
5fa4c21a04bc5912180291bc,TCN,2024-06-25_15h04.17.449,LearnStrategy,2023.2.3,Win32,58.82352941,6,1,1,-0.044444402,0.001851859,1,0,0,0.966,rock_grid_rect_2,2,02,-1,-1,0.966,-0.104629587,-0.255555541,1,0,0,1.713,Basalt_rect,2,1.713,1,0,0,0,0,1,,,,,,,,,,,,,
5fa4c21a04bc5912180291bc,TCN,2024-06-25_15h04.17.449,LearnStrategy,2023.2.3,Win32,58.82352941,6,1,2,-0.039814772,-0.000925947,1,0,0,0.832,rock_grid_rect_2,3,15,-1,-1,0.832,0.091666681,-0.402777778,1,0,0,5.431,Peridotite_rect,7,5.431,0,1,0,1,0,1,,,,,,,,,,,,,
5fa4c21a04bc5912180291bc,TCN,2024-06-25_15h04.17.449,LearnStrategy,2023.2.3,Win32,58.82352941,6,1,3,0.013888889,0.022222201,1,0,0,0.698,rock_grid_rect_2,5,09,-1,-1,0.698,-0.424074067,-0.414814843,1,0,0,1.03,Obsidian_rect,5,1.03,1,2,0,2,0,1,,,,,,,,,,,,,
5fa4c21a04bc5912180291bc,TCN,2024-06-25_15h04.17.449,LearnStrategy,2023.2.3,Win32,58.82352941,6,1,4,0.009259259,0.010185171,1,0,0,0.782,rock_grid_rect_2,1,01,-1,-1,0.782,-0.123148106,-0.237963005,1,0,0,2.064,Basalt_rect,2,2.064,0,3,0,3,0,1,,,,,,,,,,,,,
5fa4c21a04bc5912180291bc,TCN,2024-06-25_15h04.17.449,LearnStrategy,2023.2.3,Win32,58.82352941,6,1,5,-0.008333347,-0.010185206,1,0,0,0.799,rock_grid_rect_2,2,04,-1,-1,0.799,-0.158333319,-0.244444459,1,0,0,1.263,Basalt_rect,2,1.263,1,4,0,4,0,1,,,,,,,,,,,,,
5fa4c21a04bc5912180291bc,TCN,2024-06-25_15h04.17.449,LearnStrategy,2023.2.3,Win32,58.82352941,6,1,6,0.00462963,0.008333312,1,0,0,0.698,rock_grid_rect_2,5,05,-1,-1,0.698,-0.3675926,-0.378703718,1,0,0,1.212,Obsidian_rect,5,1.212,1,5,0,5,0,1,,,,,,,,,,,,,
5fa4c21a04bc5912180291bc,TCN,2024-06-25_15h04.17.449,LearnStrategy,2023.2.3,Win32,58.82352941,6,1,7,-0.003703718,-0.019444466,1,0,0,0.632,rock_grid_rect_2,7,04,-1,-1,0.632,-0.359259252,-0.238888917,1,0,0,1.698,Andesite_rect,1,1.698,0,6,0,6,0,1,,,,,,,,,,,,,
5fa4c21a04bc5912180291bc,TCN,2024-06-25_15h04.17.449,LearnStrategy,2023.2.3,Win32,58.82352941,6,1,8,0.006481524,-0.021296289,1,0,0,0.581,rock_grid_rect_2,4,16,-1,-1,0.581,-0.164814772,-0.251851894,1,0,0,0.98,Basalt_rect,2,0.98,0,7,0,7,0,1,,,,,,,,,,,,,
5fa4c21a04bc5912180291bc,TCN,2024-06-25_15h04.17.449,LearnStrategy,2023.2.3,Win32,58.82352941,6,1,9,0.025000042,-0.00462963,1,0,0,0.583,rock_grid_rect_2,6,12,-1,-1,0.583,0.124074088,-0.248148176,1,0,0,1.365,Diorite_rect,3,1.365,0,8,0,8,0,1,,,,,,,,,,,,,
5fa4c21a04bc5912180291bc,TCN,2024-06-25_15h04.17.449,LearnStrategy,2023.2.3,Win32,58.82352941,6,1,10,0.002777806,-0.005555577,1,0,0,0.566,rock_grid_rect_2,3,12,-1,-1,0.566,0.347222222,-0.249074088,1,0,0,1.163,Gabbro_rect,4,1.163,0,9,0,9,0,1,,,,,,,,,,,,,
5fa4c21a04bc5912180291bc,TCN,2024-06-25_15h04.17.449,LearnStrategy,2023.2.3,Win32,58.82352941,6,1,11,0.027777778,0.001851859,1,0,0,0.582,rock_grid_rect_2,7,07,-1,-1,0.582,0.113888917,-0.40370369,1,0,0,1.781,Peridotite_rect,7,1.781,1,10,0,10,0,1,,,,,,,,,,,,,
5fa4c21a04bc5912180291bc,TCN,2024-06-25_15h04.17.449,LearnStrategy,2023.2.3,Win32,58.82352941,6,1,12,0.063888903,0.014814801,1,0,0,57.082,rock_grid_rect_2,1,16,-1,-1,57.082,-0.459259245,-0.239814829,1,0,0,2.281,Andesite_rect,1,2.281,1,11,0,11,0,1,,,,,,,,,,,,,
5fa4c21a04bc5912180291bc,TCN,2024-06-25_15h04.17.449,LearnStrategy,2023.2.3,Win32,58.82352941,6,1,13,0.036111125,0.023148148,1,0,0,0.764,rock_grid_rect_2,4,05,-1,-1,0.764,-0.133333347,-0.396296325,1,0,0,3.747,Pegmatite_rect,6,3.747,0,12,0,12,0,1,,,,,,,,,,,,,
5fa4c21a04bc5912180291bc,TCN,2024-06-25_15h04.17.449,LearnStrategy,2023.2.3,Win32,58.82352941,6,1,14,0.005555541,-0.012962977,1,0,0,0.666,rock_grid_rect_2,8,04,-1,-1,0.666,0.366666723,-0.404629672,1,0,0,0.98,Pumice_rect,8,0.98,1,13,0,13,0,1,,,,,,,,,,,,,
5fa4c21a04bc5912180291bc,TCN,2024-06-25_15h04.17.449,LearnStrategy,2023.2.3,Win32,58.82352941,6,1,15,-0.008333347,0.02407406,1,0,0,0.816,rock_grid_rect_2,8,10,-1,-1,0.816,0.378703788,-0.408333319,1,0,0,1.048,Pumice_rect,8,1.048,1,14,0,14,0,1,,,,,,,,,,,,,
5fa4c21a04bc5912180291bc,TCN,2024-06-25_15h04.17.449,LearnStrategy,2023.2.3,Win32,58.82352941,6,1,16,-0.015740712,-0.005555577,1,0,0,0.699,rock_grid_rect_2,6,11,-1,-1,0.699,0.104629658,-0.238888917,1,0,0,1.647,Diorite_rect,3,1.647,0,15,0,15,0,1,,,,,,,,,,,,,
5fa4c21a04bc5912180291bc,TCN,2024-06-25_15h04.17.449,LearnStrategy,2023.2.3,Win32,58.82352941,6,2,1,,,,,,,,5,04,,,,,,,,,,,5,0.963,1,,,,,,-0.41111109,-0.416666667,1,0,0,0.963,Obsidian_rect,0,0,0,0,1,
5fa4c21a04bc5912180291bc,TCN,2024-06-25_15h04.17.449,LearnStrategy,2023.2.3,Win32,58.82352941,6,2,2,,,,,,,,6,03,,,,,,,,,,,7,4.797,0,,,,,,0.069444444,-0.410185213,1,0,0,4.797,Peridotite_rect,1,0,1,0,1,
5fa4c21a04bc5912180291bc,TCN,2024-06-25_15h04.17.449,LearnStrategy,2023.2.3,Win32,58.82352941,6,2,3,,,,,,,,7,14,,,,,,,,,,,4,6.295,0,,,,,,0.384259259,-0.253703718,1,0,0,6.295,Gabbro_rect,2,0,2,0,1,
5fa4c21a04bc5912180291bc,TCN,2024-06-25_15h04.17.449,LearnStrategy,2023.2.3,Win32,58.82352941,6,2,4,,,,,,,,4,15,,,,,,,,,,,1,2.214,0,,,,,,-0.402777778,-0.252777806,1,0,0,2.214,Andesite_rect,3,0,3,0,1,
5fa4c21a04bc5912180291bc,TCN,2024-06-25_15h04.17.449,LearnStrategy,2023.2.3,Win32,58.82352941,6,2,5,,,,,,,,4,10,,,,,,,,,,,4,7.481,1,,,,,,0.342592593,-0.257407436,1,0,0,7.481,Gabbro_rect,4,0,4,0,1,
5fa4c21a04bc5912180291bc,TCN,2024-06-25_15h04.17.449,LearnStrategy,2023.2.3,Win32,58.82352941,6,2,6,,,,,,,,2,12,,,,,,,,,,,8,1.263,0,,,,,,0.354629658,-0.389814801,1,0,0,1.263,Pumice_rect,5,0,5,0,1,
5fa4c21a04bc5912180291bc,TCN,2024-06-25_15h04.17.449,LearnStrategy,2023.2.3,Win32,58.82352941,6,2,7,,,,,,,,6,06,,,,,,,,,,,6,3.68,1,,,,,,-0.10555557,-0.39907406,1,0,0,3.68,Pegmatite_rect,6,0,6,0,1,
5fa4c21a04bc5912180291bc,TCN,2024-06-25_15h04.17.449,LearnStrategy,2023.2.3,Win32,58.82352941,6,2,8,,,,,,,,2,01,,,,,,,,,,,2,0.93,1,,,,,,-0.157407407,-0.248148176,1,0,0,0.93,Basalt_rect,7,0,7,0,1,
5fa4c21a04bc5912180291bc,TCN,2024-06-25_15h04.17.449,LearnStrategy,2023.2.3,Win32,58.82352941,6,2,9,,,,,,,,8,06,,,,,,,,,,,8,0.929,1,,,,,,0.444444444,-0.400925954,1,0,0,0.929,Pumice_rect,8,0,8,0,1,
5fa4c21a04bc5912180291bc,TCN,2024-06-25_15h04.17.449,LearnStrategy,2023.2.3,Win32,58.82352941,6,2,10,,,,,,,,7,08,,,,,,,,,,,6,2.446,0,,,,,,-0.115740741,-0.419444473,1,0,0,2.446,Pegmatite_rect,9,0,9,0,1,
5fa4c21a04bc5912180291bc,TCN,2024-06-25_15h04.17.449,LearnStrategy,2023.2.3,Win32,58.82352941,6,2,11,,,,,,,,5,11,,,,,,,,,,,5,1.081,1,,,,,,-0.414814808,-0.418518561,1,0,0,1.081,Obsidian_rect,10,0,10,0,1,
5fa4c21a04bc5912180291bc,TCN,2024-06-25_15h04.17.449,LearnStrategy,2023.2.3,Win32,58.82352941,6,2,12,,,,,,,,1,03,,,,,,,,,,,1,5.197,1,,,,,,-0.383333312,-0.250925912,1,0,0,5.197,Andesite_rect,11,0,11,0,1,
5fa4c21a04bc5912180291bc,TCN,2024-06-25_15h04.17.449,LearnStrategy,2023.2.3,Win32,58.82352941,6,2,13,,,,,,,,8,14,,,,,,,,,,,8,1.064,1,,,,,,0.388888889,-0.37962963,1,0,0,1.064,Pumice_rect,12,0,12,0,1,
5fa4c21a04bc5912180291bc,TCN,2024-06-25_15h04.17.449,LearnStrategy,2023.2.3,Win32,58.82352941,6,2,14,,,,,,,,1,10,,,,,,,,,,,8,1.896,0,,,,,,0.385185242,-0.391666695,1,0,0,1.896,Pumice_rect,13,0,13,0,1,
5fa4c21a04bc5912180291bc,TCN,2024-06-25_15h04.17.449,LearnStrategy,2023.2.3,Win32,58.82352941,6,2,15,,,,,,,,3,10,,,,,,,,,,,1,3.295,0,,,,,,-0.349074081,-0.237963005,1,0,0,3.295,Andesite_rect,14,0,14,0,1,
5fa4c21a04bc5912180291bc,TCN,2024-06-25_15h04.17.449,LearnStrategy,2023.2.3,Win32,58.82352941,6,2,16,,,,,,,,3,13,,,,,,,,,,,3,1.163,1,,,,,,0.133333347,-0.257407436,1,0,0,1.163,Diorite_rect,15,0,15,0,1,
5fa4c21a04bc5912180291bc,TCN,2024-06-25_15h04.17.449,LearnStrategy,2023.2.3,Win32,58.82352941,7,1,1,0.05277782,0.003703683,1,0,0,1.065,rock_grid_rect_2,8,04,-1,-1,1.065,0.391666695,-0.391666695,1,0,0,1.098,Pumice_rect,8,1.098,1,0,0,0,0,1,,,,,,,,,,,,,
5fa4c21a04bc5912180291bc,TCN,2024-06-25_15h04.17.449,LearnStrategy,2023.2.3,Win32,58.82352941,7,1,2,0.041666667,-0.003703718,1,0,0,1.065,rock_grid_rect_2,7,12,-1,-1,1.065,-0.106481481,-0.39444443,1,0,0,2.296,Pegmatite_rect,6,2.296,0,1,0,1,0,1,,,,,,,,,,,,,
5fa4c21a04bc5912180291bc,TCN,2024-06-25_15h04.17.449,LearnStrategy,2023.2.3,Win32,58.82352941,7,1,3,-0.022222236,0,1,0,0,0.582,rock_grid_rect_2,2,04,-1,-1,0.582,-0.17777775,-0.228703746,1,0,0,0.948,Basalt_rect,2,0.948,1,2,0,2,0,1,,,,,,,,,,,,,
5fa4c21a04bc5912180291bc,TCN,2024-06-25_15h04.17.449,LearnStrategy,2023.2.3,Win32,58.82352941,7,1,4,-0.023148148,-0.005555577,1,0,0,1.117,rock_grid_rect_2,4,09,-1,-1,1.117,0.131481524,-0.39907406,1,0,0,3.979,Peridotite_rect,7,3.979,0,3,0,3,0,1,,,,,,,,,,,,,
5fa4c21a04bc5912180291bc,TCN,2024-06-25_15h04.17.449,LearnStrategy,2023.2.3,Win32,58.82352941,7,1,5,-0.039814772,-0.014814836,1,0,0,0.698,rock_grid_rect_2,5,09,-1,-1,0.698,-0.392592571,-0.400925954,1,0,0,1.014,Obsidian_rect,5,1.014,1,4,0,4,0,1,,,,,,,,,,,,,
5fa4c21a04bc5912180291bc,TCN,2024-06-25_15h04.17.449,LearnStrategy,2023.2.3,Win32,58.82352941,7,1,6,-0.020370342,-0.014814836,1,0,0,0.849,rock_grid_rect_2,3,09,-1,-1,0.849,-0.383333312,-0.241666653,1,0,0,1.497,Andesite_rect,1,1.497,0,5,0,5,0,1,,,,,,,,,,,,,
5fa4c21a04bc5912180291bc,TCN,2024-06-25_15h04.17.449,LearnStrategy,2023.2.3,Win32,58.82352941,7,1,7,-0.008333347,-0.01666666,1,0,0,0.582,rock_grid_rect_2,1,01,-1,-1,0.582,0.347222222,-0.241666653,1,0,0,1.63,Gabbro_rect,4,1.63,0,6,0,6,0,1,,,,,,,,,,,,,
5fa4c21a04bc5912180291bc,TCN,2024-06-25_15h04.17.449,LearnStrategy,2023.2.3,Win32,58.82352941,7,1,8,0.00462963,-0.008333347,1,0,0,0.916,rock_grid_rect_2,8,02,-1,-1,0.916,0.369444529,-0.410185213,1,0,0,0.964,Pumice_rect,8,0.964,1,7,0,7,0,1,,,,,,,,,,,,,
5fa4c21a04bc5912180291bc,TCN,2024-06-25_15h04.17.449,LearnStrategy,2023.2.3,Win32,58.82352941,7,1,9,0.018518519,0.00462963,1,0,0,0.766,rock_grid_rect_2,2,02,-1,-1,0.766,-0.082407422,-0.239814829,1,0,0,1.662,Basalt_rect,2,1.662,1,8,0,8,0,1,,,,,,,,,,,,,
5fa4c21a04bc5912180291bc,TCN,2024-06-25_15h04.17.449,LearnStrategy,2023.2.3,Win32,58.82352941,7,1,10,-0.00462963,-0.019444466,1,0,0,0.515,rock_grid_rect_2,3,14,-1,-1,0.515,0.082407422,-0.23055557,1,0,0,1.73,Diorite_rect,3,1.73,1,9,0,9,0,1,,,,,,,,,,,,,
5fa4c21a04bc5912180291bc,TCN,2024-06-25_15h04.17.449,LearnStrategy,2023.2.3,Win32,58.82352941,7,1,11,0,-0.012962977,1,0,0,0.682,rock_grid_rect_2,4,16,-1,-1,0.682,0.399074131,-0.241666653,1,0,0,1.312,Gabbro_rect,4,1.312,1,10,0,10,0,1,,,,,,,,,,,,,
5fa4c21a04bc5912180291bc,TCN,2024-06-25_15h04.17.449,LearnStrategy,2023.2.3,Win32,58.82352941,7,1,12,0.002777806,0.00462963,1,0,0,0.699,rock_grid_rect_2,6,10,-1,-1,0.699,0.068518533,-0.389814801,1,0,0,3.98,Peridotite_rect,7,3.98,0,11,0,11,0,1,,,,,,,,,,,,,
5fa4c21a04bc5912180291bc,TCN,2024-06-25_15h04.17.449,LearnStrategy,2023.2.3,Win32,58.82352941,7,1,13,-0.011111083,-0.018518519,1,0,0,0.599,rock_grid_rect_2,7,05,-1,-1,0.599,0.37037037,-0.244444459,1,0,0,1.348,Gabbro_rect,4,1.348,0,12,0,12,0,1,,,,,,,,,,,,,
5fa4c21a04bc5912180291bc,TCN,2024-06-25_15h04.17.449,LearnStrategy,2023.2.3,Win32,58.82352941,7,1,14,-0.012962977,-0.00462963,1,0,0,0.884,rock_grid_rect_2,6,12,-1,-1,0.884,0.087037051,-0.255555541,1,0,0,1.631,Diorite_rect,3,1.631,0,13,0,13,0,1,,,,,,,,,,,,,
5fa4c21a04bc5912180291bc,TCN,2024-06-25_15h04.17.449,LearnStrategy,2023.2.3,Win32,58.82352941,7,1,15,-0.013888889,-0.01203703,1,0,0,0.582,rock_grid_rect_2,5,08,-1,-1,0.582,-0.437037044,-0.408333319,1,0,0,0.997,Obsidian_rect,5,0.997,1,14,0,14,0,1,,,,,,,,,,,,,
5fa4c21a04bc5912180291bc,TCN,2024-06-25_15h04.17.449,LearnStrategy,2023.2.3,Win32,58.82352941,7,1,16,0.00462963,0.00462963,1,0,0,0.667,rock_grid_rect_2,1,06,-1,-1,0.667,0.40370376,-0.250925912,1,0,0,2.78,Gabbro_rect,4,2.78,0,15,0,15,0,1,,,,,,,,,,,,,
5fa4c21a04bc5912180291bc,TCN,2024-06-25_15h04.17.449,LearnStrategy,2023.2.3,Win32,58.82352941,7,2,1,,,,,,,,6,15,,,,,,,,,,,3,4.263,0,,,,,,0.160185213,-0.24537037,1,0,0,4.263,Diorite_rect,0,0,0,0,1,
5fa4c21a04bc5912180291bc,TCN,2024-06-25_15h04.17.449,LearnStrategy,2023.2.3,Win32,58.82352941,7,2,2,,,,,,,,3,06,,,,,,,,,,,1,2.681,0,,,,,,-0.414814808,-0.244444459,1,0,0,2.681,Andesite_rect,1,0,1,0,1,
5fa4c21a04bc5912180291bc,TCN,2024-06-25_15h04.17.449,LearnStrategy,2023.2.3,Win32,58.82352941,7,2,3,,,,,,,,7,06,,,,,,,,,,,6,2.213,0,,,,,,-0.07222218,-0.401851866,1,0,0,2.213,Pegmatite_rect,2,0,2,0,1,
5fa4c21a04bc5912180291bc,TCN,2024-06-25_15h04.17.449,LearnStrategy,2023.2.3,Win32,58.82352941,7,2,4,,,,,,,,6,09,,,,,,,,,,,7,1.447,0,,,,,,0.092592593,-0.402777778,1,0,0,1.447,Peridotite_rect,3,0,3,0,1,
5fa4c21a04bc5912180291bc,TCN,2024-06-25_15h04.17.449,LearnStrategy,2023.2.3,Win32,58.82352941,7,2,5,,,,,,,,4,03,,,,,,,,,,,1,4.514,0,,,,,,-0.383333312,-0.237037023,1,0,0,4.514,Andesite_rect,4,0,4,0,1,
5fa4c21a04bc5912180291bc,TCN,2024-06-25_15h04.17.449,LearnStrategy,2023.2.3,Win32,58.82352941,7,2,6,,,,,,,,5,07,,,,,,,,,,,5,1.346,1,,,,,,-0.400000007,-0.411111125,1,0,0,1.346,Obsidian_rect,5,0,5,0,1,
5fa4c21a04bc5912180291bc,TCN,2024-06-25_15h04.17.449,LearnStrategy,2023.2.3,Win32,58.82352941,7,2,7,,,,,,,,8,06,,,,,,,,,,,8,1.047,1,,,,,,0.377777806,-0.39907406,1,0,0,1.047,Pumice_rect,6,0,6,0,1,
5fa4c21a04bc5912180291bc,TCN,2024-06-25_15h04.17.449,LearnStrategy,2023.2.3,Win32,58.82352941,7,2,8,,,,,,,,3,07,,,,,,,,,,,3,1.913,1,,,,,,0.074074074,-0.252777806,1,0,0,1.913,Diorite_rect,7,0,7,0,1,
5fa4c21a04bc5912180291bc,TCN,2024-06-25_15h04.17.449,LearnStrategy,2023.2.3,Win32,58.82352941,7,2,9,,,,,,,,4,10,,,,,,,,,,,4,1.38,1,,,,,,0.394444501,-0.237037023,1,0,0,1.38,Gabbro_rect,8,0,8,0,1,
5fa4c21a04bc5912180291bc,TCN,2024-06-25_15h04.17.449,LearnStrategy,2023.2.3,Win32,58.82352941,7,2,10,,,,,,,,5,16,,,,,,,,,,,5,1.03,1,,,,,,-0.387962942,-0.410185213,1,0,0,1.03,Obsidian_rect,9,0,9,0,1,
5fa4c21a04bc5912180291bc,TCN,2024-06-25_15h04.17.449,LearnStrategy,2023.2.3,Win32,58.82352941,7,2,11,,,,,,,,1,03,,,,,,,,,,,2,2.43,0,,,,,,-0.114814829,-0.262962977,1,0,0,2.43,Basalt_rect,10,0,10,0,1,
5fa4c21a04bc5912180291bc,TCN,2024-06-25_15h04.17.449,LearnStrategy,2023.2.3,Win32,58.82352941,7,2,12,,,,,,,,7,08,,,,,,,,,,,6,1.431,0,,,,,,-0.099074046,-0.391666695,1,0,0,1.431,Pegmatite_rect,11,0,11,0,1,
5fa4c21a04bc5912180291bc,TCN,2024-06-25_15h04.17.449,LearnStrategy,2023.2.3,Win32,58.82352941,7,2,13,,,,,,,,8,08,,,,,,,,,,,8,1.03,1,,,,,,0.375925982,-0.395370413,1,0,0,1.03,Pumice_rect,12,0,12,0,1,
5fa4c21a04bc5912180291bc,TCN,2024-06-25_15h04.17.449,LearnStrategy,2023.2.3,Win32,58.82352941,7,2,14,,,,,,,,2,14,,,,,,,,,,,4,1.397,0,,,,,,0.375,-0.231481481,1,0,0,1.397,Gabbro_rect,13,0,13,0,1,
5fa4c21a04bc5912180291bc,TCN,2024-06-25_15h04.17.449,LearnStrategy,2023.2.3,Win32,58.82352941,7,2,15,,,,,,,,2,08,,,,,,,,,,,2,1.029,1,,,,,,-0.151851866,-0.241666653,1,0,0,1.029,Basalt_rect,14,0,14,0,1,
5fa4c21a04bc5912180291bc,TCN,2024-06-25_15h04.17.449,LearnStrategy,2023.2.3,Win32,58.82352941,7,2,16,,,,,,,,1,11,,,,,,,,,,,4,2.379,0,,,,,,0.35555564,-0.257407436,1,0,0,2.379,Gabbro_rect,15,0,15,0,1,
5fa4c21a04bc5912180291bc,TCN,2024-06-25_15h04.17.449,LearnStrategy,2023.2.3,Win32,58.82352941,8,1,1,0.091666681,0.008333312,1,0,0,121.502,rock_grid_rect_2,2,10,-1,-1,121.502,0.358333305,-0.246296282,1,0,0,9.327,Gabbro_rect,4,9.327,0,0,0,0,0,1,,,,,,,,,,,,,
5fa4c21a04bc5912180291bc,TCN,2024-06-25_15h04.17.449,LearnStrategy,2023.2.3,Win32,58.82352941,8,1,2,0.054629644,-0.023148148,1,0,0,1.165,rock_grid_rect_2,8,13,-1,-1,1.165,0.376851824,-0.404629672,1,0,0,0.968,Pumice_rect,8,0.968,1,1,0,1,0,1,,,,,,,,,,,,,
5fa4c21a04bc5912180291bc,TCN,2024-06-25_15h04.17.449,LearnStrategy,2023.2.3,Win32,58.82352941,8,1,3,-0.000925912,-0.009259259,1,0,0,0.754,rock_grid_rect_2,3,02,-1,-1,0.754,0.137037065,-0.260185171,1,0,0,1.412,Diorite_rect,3,1.412,1,2,0,2,0,1,,,,,,,,,,,,,
5fa4c21a04bc5912180291bc,TCN,2024-06-25_15h04.17.449,LearnStrategy,2023.2.3,Win32,58.82352941,8,1,4,-0.032407407,-0.001851859,1,0,0,0.821,rock_grid_rect_2,4,01,-1,-1,0.821,-0.418518526,-0.237037023,1,0,0,1.663,Andesite_rect,1,1.663,0,3,0,3,0,1,,,,,,,,,,,,,
5fa4c21a04bc5912180291bc,TCN,2024-06-25_15h04.17.449,LearnStrategy,2023.2.3,Win32,58.82352941,8,1,5,-0.050000014,-0.01203703,1,0,0,0.799,rock_grid_rect_2,1,14,-1,-1,0.799,-0.389814801,-0.248148176,1,0,0,2.35,Andesite_rect,1,2.35,1,4,0,4,0,1,,,,,,,,,,,,,
5fa4c21a04bc5912180291bc,TCN,2024-06-25_15h04.17.449,LearnStrategy,2023.2.3,Win32,58.82352941,8,1,6,-0.002777735,-0.006481489,1,0,0,0.898,rock_grid_rect_2,6,05,-1,-1,0.898,0.098148134,-0.238888917,1,0,0,1.589,Diorite_rect,3,1.589,0,5,0,5,0,1,,,,,,,,,,,,,
5fa4c21a04bc5912180291bc,TCN,2024-06-25_15h04.17.449,LearnStrategy,2023.2.3,Win32,58.82352941,8,1,7,-0.030555513,-0.018518519,1,0,0,0.615,rock_grid_rect_2,8,03,-1,-1,0.615,0.385185242,-0.398148148,1,0,0,0.95,Pumice_rect,8,0.95,1,6,0,6,0,1,,,,,,,,,,,,,
5fa4c21a04bc5912180291bc,TCN,2024-06-25_15h04.17.449,LearnStrategy,2023.2.3,Win32,58.82352941,8,1,8,0.026851866,0.013888889,1,0,0,0.734,rock_grid_rect_2,1,02,-1,-1,0.734,-0.380555541,-0.253703718,1,0,0,2.469,Andesite_rect,1,2.469,1,7,0,7,0,1,,,,,,,,,,,,,
5fa4c21a04bc5912180291bc,TCN,2024-06-25_15h04.17.449,LearnStrategy,2023.2.3,Win32,58.82352941,8,1,9,-0.018518519,-0.014814836,1,0,0,0.569,rock_grid_rect_2,3,11,-1,-1,0.569,-0.127777735,-0.411111125,1,0,0,2.867,Pegmatite_rect,6,2.867,0,8,0,8,0,1,,,,,,,,,,,,,
5fa4c21a04bc5912180291bc,TCN,2024-06-25_15h04.17.449,LearnStrategy,2023.2.3,Win32,58.82352941,8,1,10,-0.036111125,-0.0074074,1,0,0,0.505,rock_grid_rect_2,6,11,-1,-1,0.505,-0.353703711,-0.242592635,1,0,0,2.078,Andesite_rect,1,2.078,0,9,0,9,0,1,,,,,,,,,,,,,
5fa4c21a04bc5912180291bc,TCN,2024-06-25_15h04.17.449,LearnStrategy,2023.2.3,Win32,58.82352941,8,1,11,0.000925912,-0.001851859,1,0,0,0.572,rock_grid_rect_2,7,15,-1,-1,0.572,0.092592593,-0.407407407,1,0,0,1.711,Peridotite_rect,7,1.711,1,10,0,10,0,1,,,,,,,,,,,,,
5fa4c21a04bc5912180291bc,TCN,2024-06-25_15h04.17.449,LearnStrategy,2023.2.3,Win32,58.82352941,8,1,12,-0.029629601,-0.000925947,1,0,0,0.588,rock_grid_rect_2,2,06,-1,-1,0.588,-0.126851824,-0.237963005,1,0,0,1.495,Basalt_rect,2,1.495,1,11,0,11,0,1,,,,,,,,,,,,,
5fa4c21a04bc5912180291bc,TCN,2024-06-25_15h04.17.449,LearnStrategy,2023.2.3,Win32,58.82352941,8,1,13,-0.020370342,-0.024074095,1,0,0,0.648,rock_grid_rect_2,5,10,-1,-1,0.648,-0.363888882,-0.388888889,1,0,0,0.963,Obsidian_rect,5,0.963,1,12,0,12,0,1,,,,,,,,,,,,,
5fa4c21a04bc5912180291bc,TCN,2024-06-25_15h04.17.449,LearnStrategy,2023.2.3,Win32,58.82352941,8,1,14,0.008333347,-0.020370377,1,0,0,0.638,rock_grid_rect_2,4,05,-1,-1,0.638,-0.130555541,-0.40370369,1,0,0,2.865,Pegmatite_rect,6,2.865,0,13,0,13,0,1,,,,,,,,,,,,,
5fa4c21a04bc5912180291bc,TCN,2024-06-25_15h04.17.449,LearnStrategy,2023.2.3,Win32,58.82352941,8,1,15,-0.006481453,-0.005555577,1,0,0,0.533,rock_grid_rect_2,5,06,-1,-1,0.533,-0.341666645,-0.385185171,1,0,0,0.965,Obsidian_rect,5,0.965,1,14,0,14,0,1,,,,,,,,,,,,,
5fa4c21a04bc5912180291bc,TCN,2024-06-25_15h04.17.449,LearnStrategy,2023.2.3,Win32,58.82352941,8,1,16,-0.011111083,0.003703683,1,0,0,0.681,rock_grid_rect_2,7,07,-1,-1,0.681,0.121296282,-0.419444473,1,0,0,2.84,Peridotite_rect,7,2.84,1,15,0,15,0,1,,,,,,,,,,,,,
5fa4c21a04bc5912180291bc,TCN,2024-06-25_15h04.17.449,LearnStrategy,2023.2.3,Win32,58.82352941,8,2,1,,,,,,,,1,07,,,,,,,,,,,1,3.299,1,,,,,,-0.398148148,-0.243518547,1,0,0,3.299,Andesite_rect,0,0,0,0,1,
5fa4c21a04bc5912180291bc,TCN,2024-06-25_15h04.17.449,LearnStrategy,2023.2.3,Win32,58.82352941,8,2,2,,,,,,,,6,06,,,,,,,,,,,6,6.394,1,,,,,,-0.127777735,-0.39907406,1,0,0,6.394,Pegmatite_rect,1,0,1,0,1,
5fa4c21a04bc5912180291bc,TCN,2024-06-25_15h04.17.449,LearnStrategy,2023.2.3,Win32,58.82352941,8,2,3,,,,,,,,5,02,,,,,,,,,,,5,1.031,1,,,,,,-0.427777785,-0.40370369,1,0,0,1.031,Obsidian_rect,2,0,2,0,1,
5fa4c21a04bc5912180291bc,TCN,2024-06-25_15h04.17.449,LearnStrategy,2023.2.3,Win32,58.82352941,8,2,4,,,,,,,,8,05,,,,,,,,,,,8,1.432,1,,,,,,0.378703788,-0.39907406,1,0,0,1.432,Pumice_rect,3,0,3,0,1,
5fa4c21a04bc5912180291bc,TCN,2024-06-25_15h04.17.449,LearnStrategy,2023.2.3,Win32,58.82352941,8,2,5,,,,,,,,5,04,,,,,,,,,,,5,0.982,1,,,,,,-0.440740727,-0.412037037,1,0,0,0.982,Obsidian_rect,4,0,4,0,1,
5fa4c21a04bc5912180291bc,TCN,2024-06-25_15h04.17.449,LearnStrategy,2023.2.3,Win32,58.82352941,8,2,6,,,,,,,,2,01,,,,,,,,,,,2,1.48,1,,,,,,-0.125925912,-0.235185199,1,0,0,1.48,Basalt_rect,5,0,5,0,1,
5fa4c21a04bc5912180291bc,TCN,2024-06-25_15h04.17.449,LearnStrategy,2023.2.3,Win32,58.82352941,8,2,7,,,,,,,,3,16,,,,,,,,,,,3,10.622,1,,,,,,0.107407393,-0.251851894,1,0,0,10.622,Diorite_rect,6,0,6,0,1,
5fa4c21a04bc5912180291bc,TCN,2024-06-25_15h04.17.449,LearnStrategy,2023.2.3,Win32,58.82352941,8,2,8,,,,,,,,7,13,,,,,,,,,,,7,1.204,1,,,,,,0.106481481,-0.405555584,1,0,0,1.204,Peridotite_rect,7,0,7,0,1,
5fa4c21a04bc5912180291bc,TCN,2024-06-25_15h04.17.449,LearnStrategy,2023.2.3,Win32,58.82352941,8,2,9,,,,,,,,4,15,,,,,,,,,,,1,3.783,0,,,,,,-0.377777771,-0.231481481,1,0,0,3.783,Andesite_rect,8,0,8,0,1,
5fa4c21a04bc5912180291bc,TCN,2024-06-25_15h04.17.449,LearnStrategy,2023.2.3,Win32,58.82352941,8,2,10,,,,,,,,1,05,,,,,,,,,,,6,4.262,0,,,,,,-0.155555513,-0.402777778,1,0,0,4.262,Pegmatite_rect,9,0,9,0,1,
5fa4c21a04bc5912180291bc,TCN,2024-06-25_15h04.17.449,LearnStrategy,2023.2.3,Win32,58.82352941,8,2,11,,,,,,,,2,09,,,,,,,,,,,2,1.097,1,,,,,,-0.158333319,-0.246296282,1,0,0,1.097,Basalt_rect,10,0,10,0,1,
5fa4c21a04bc5912180291bc,TCN,2024-06-25_15h04.17.449,LearnStrategy,2023.2.3,Win32,58.82352941,8,2,12,,,,,,,,3,08,,,,,,,,,,,3,1.314,1,,,,,,0.103703746,-0.24537037,1,0,0,1.314,Diorite_rect,11,0,11,0,1,
5fa4c21a04bc5912180291bc,TCN,2024-06-25_15h04.17.449,LearnStrategy,2023.2.3,Win32,58.82352941,8,2,13,,,,,,,,4,11,,,,,,,,,,,4,1.931,1,,,,,,0.401851937,-0.263888889,1,0,0,1.931,Gabbro_rect,12,0,12,0,1,
5fa4c21a04bc5912180291bc,TCN,2024-06-25_15h04.17.449,LearnStrategy,2023.2.3,Win32,58.82352941,8,2,14,,,,,,,,6,16,,,,,,,,,,,6,3.98,1,,,,,,-0.116666653,-0.398148148,1,0,0,3.98,Pegmatite_rect,13,0,13,0,1,
5fa4c21a04bc5912180291bc,TCN,2024-06-25_15h04.17.449,LearnStrategy,2023.2.3,Win32,58.82352941,8,2,15,,,,,,,,7,16,,,,,,,,,,,7,1.031,1,,,,,,0.111111111,-0.397222236,1,0,0,1.031,Peridotite_rect,14,0,14,0,1,
5fa4c21a04bc5912180291bc,TCN,2024-06-25_15h04.17.449,LearnStrategy,2023.2.3,Win32,58.82352941,8,2,16,,,,,,,,8,09,,,,,,,,,,,8,0.946,1,,,,,,0.436111168,-0.39907406,1,0,0,0.946,Pumice_rect,15,0,15,0,1,
5fa4c21a04bc5912180291bc,TCN,2024-06-25_15h04.17.449,LearnStrategy,2023.2.3,Win32,58.82352941,9,1,1,0.020370413,-0.001851859,1,0,0,1.617,rock_grid_rect_2,4,14,-1,-1,1.617,0.42314812,-0.266666695,1,0,0,2.597,Gabbro_rect,4,2.597,1,0,0,0,0,1,,,,,,,,,,,,,
5fa4c21a04bc5912180291bc,TCN,2024-06-25_15h04.17.449,LearnStrategy,2023.2.3,Win32,58.82352941,9,1,2,-0.059259273,-0.00462963,1,0,0,1.083,rock_grid_rect_2,1,09,-1,-1,1.083,-0.14444443,-0.402777778,1,0,0,4.131,Pegmatite_rect,6,4.131,0,1,0,1,0,1,,,,,,,,,,,,,
5fa4c21a04bc5912180291bc,TCN,2024-06-25_15h04.17.449,LearnStrategy,2023.2.3,Win32,58.82352941,9,1,3,-0.031481496,-0.009259259,1,0,0,0.716,rock_grid_rect_2,6,13,-1,-1,0.716,-0.169444402,-0.400925954,1,0,0,2.913,Pegmatite_rect,6,2.913,1,2,0,2,0,1,,,,,,,,,,,,,
5fa4c21a04bc5912180291bc,TCN,2024-06-25_15h04.17.449,LearnStrategy,2023.2.3,Win32,58.82352941,9,1,4,-0.01944443,-0.000925947,1,0,0,0.865,rock_grid_rect_2,5,05,-1,-1,0.865,-0.36296297,-0.400000042,1,0,0,1.081,Obsidian_rect,5,1.081,1,3,0,3,0,1,,,,,,,,,,,,,
5fa4c21a04bc5912180291bc,TCN,2024-06-25_15h04.17.449,LearnStrategy,2023.2.3,Win32,58.82352941,9,1,5,-0.014814801,0.001851859,1,0,0,0.983,rock_grid_rect_2,2,16,-1,-1,0.983,0.406481566,-0.231481481,1,0,0,1.697,Gabbro_rect,4,1.697,0,4,0,4,0,1,,,,,,,,,,,,,
5fa4c21a04bc5912180291bc,TCN,2024-06-25_15h04.17.449,LearnStrategy,2023.2.3,Win32,58.82352941,9,1,6,-0.01944443,-0.006481489,1,0,0,1.248,rock_grid_rect_2,7,04,-1,-1,1.248,-0.167592578,-0.389814801,1,0,0,1.781,Pegmatite_rect,6,1.781,0,5,0,5,0,1,,,,,,,,,,,,,
5fa4c21a04bc5912180291bc,TCN,2024-06-25_15h04.17.449,LearnStrategy,2023.2.3,Win32,58.82352941,9,1,7,0.029629672,-0.001851859,1,0,0,0.982,rock_grid_rect_2,8,10,-1,-1,0.982,0.357407464,-0.391666695,1,0,0,1.098,Pumice_rect,8,1.098,1,6,0,6,0,1,,,,,,,,,,,,,
5fa4c21a04bc5912180291bc,TCN,2024-06-25_15h04.17.449,LearnStrategy,2023.2.3,Win32,58.82352941,9,1,8,-0.026851866,-0.000925947,1,0,0,0.85,rock_grid_rect_2,2,11,-1,-1,0.85,0.358333305,-0.242592635,1,0,0,3.749,Gabbro_rect,4,3.749,0,7,0,7,0,1,,,,,,,,,,,,,
5fa4c21a04bc5912180291bc,TCN,2024-06-25_15h04.17.449,LearnStrategy,2023.2.3,Win32,58.82352941,9,1,9,-0.003703718,-0.021296289,1,0,0,0.549,rock_grid_rect_2,5,14,-1,-1,0.549,-0.368518511,-0.389814801,1,0,0,1.664,Obsidian_rect,5,1.664,1,8,0,8,0,1,,,,,,,,,,,,,
5fa4c21a04bc5912180291bc,TCN,2024-06-25_15h04.17.449,LearnStrategy,2023.2.3,Win32,58.82352941,9,1,10,-0.054629644,0.01203703,1,0,0,0.766,rock_grid_rect_2,7,02,-1,-1,0.766,0.091666681,-0.387962977,1,0,0,1.18,Peridotite_rect,7,1.18,1,9,0,9,0,1,,,,,,,,,,,,,
5fa4c21a04bc5912180291bc,TCN,2024-06-25_15h04.17.449,LearnStrategy,2023.2.3,Win32,58.82352941,9,1,11,-0.031481496,-0.005555577,1,0,0,0.834,rock_grid_rect_2,3,15,-1,-1,0.834,-0.377777771,-0.23055557,1,0,0,1.296,Andesite_rect,1,1.296,0,10,0,10,0,1,,,,,,,,,,,,,
5fa4c21a04bc5912180291bc,TCN,2024-06-25_15h04.17.449,LearnStrategy,2023.2.3,Win32,58.82352941,9,1,12,-0.045370384,-0.000925947,1,0,0,0.717,rock_grid_rect_2,4,12,-1,-1,0.717,0.394444501,-0.237963005,1,0,0,1.529,Gabbro_rect,4,1.529,1,11,0,11,0,1,,,,,,,,,,,,,
5fa4c21a04bc5912180291bc,TCN,2024-06-25_15h04.17.449,LearnStrategy,2023.2.3,Win32,58.82352941,9,1,13,-0.032407407,0,1,0,0,0.683,rock_grid_rect_2,8,16,-1,-1,0.683,-0.110185199,-0.24537037,1,0,0,2.293,Basalt_rect,2,2.293,0,12,0,12,0,1,,,,,,,,,,,,,
5fa4c21a04bc5912180291bc,TCN,2024-06-25_15h04.17.449,LearnStrategy,2023.2.3,Win32,58.82352941,9,1,14,-0.008333347,0.012962942,1,0,0,0.582,rock_grid_rect_2,6,07,-1,-1,0.582,-0.167592578,-0.39907406,1,0,0,2.28,Pegmatite_rect,6,2.28,1,13,0,13,0,1,,,,,,,,,,,,,
5fa4c21a04bc5912180291bc,TCN,2024-06-25_15h04.17.449,LearnStrategy,2023.2.3,Win32,58.82352941,9,1,15,-0.036111125,-0.014814836,1,0,0,0.715,rock_grid_rect_2,3,12,-1,-1,0.715,-0.3675926,-0.231481481,1,0,0,3.081,Andesite_rect,1,3.081,0,14,0,14,0,1,,,,,,,,,,,,,
5fa4c21a04bc5912180291bc,TCN,2024-06-25_15h04.17.449,LearnStrategy,2023.2.3,Win32,58.82352941,9,1,16,-0.016666624,-0.0074074,1,0,0,0.533,rock_grid_rect_2,1,16,-1,-1,0.533,-0.213888875,-0.398148148,1,0,0,2.027,Pegmatite_rect,6,2.027,0,15,0,15,0,1,,,,,,,,,,,,,
5fa4c21a04bc5912180291bc,TCN,2024-06-25_15h04.17.449,LearnStrategy,2023.2.3,Win32,58.82352941,9,2,1,,,,,,,,5,12,,,,,,,,,,,5,1.68,1,,,,,,-0.383333312,-0.402777778,1,0,0,1.68,Obsidian_rect,0,0,0,0,1,
5fa4c21a04bc5912180291bc,TCN,2024-06-25_15h04.17.449,LearnStrategy,2023.2.3,Win32,58.82352941,9,2,2,,,,,,,,2,05,,,,,,,,,,,2,0.996,1,,,,,,-0.146296254,-0.24537037,1,0,0,0.996,Basalt_rect,1,0,1,0,1,
5fa4c21a04bc5912180291bc,TCN,2024-06-25_15h04.17.449,LearnStrategy,2023.2.3,Win32,58.82352941,9,2,3,,,,,,,,7,14,,,,,,,,,,,6,6.331,0,,,,,,-0.180555556,-0.39444443,1,0,0,6.331,Pegmatite_rect,2,0,2,0,1,
5fa4c21a04bc5912180291bc,TCN,2024-06-25_15h04.17.449,LearnStrategy,2023.2.3,Win32,58.82352941,9,2,4,,,,,,,,8,15,,,,,,,,,,,8,1.147,1,,,,,,0.349074046,-0.402777778,1,0,0,1.147,Pumice_rect,3,0,3,0,1,
5fa4c21a04bc5912180291bc,TCN,2024-06-25_15h04.17.449,LearnStrategy,2023.2.3,Win32,58.82352941,9,2,5,,,,,,,,1,10,,,,,,,,,,,4,5.064,0,,,,,,0.325925898,-0.25,1,0,0,5.064,Gabbro_rect,4,0,4,0,1,
5fa4c21a04bc5912180291bc,TCN,2024-06-25_15h04.17.449,LearnStrategy,2023.2.3,Win32,58.82352941,9,2,6,,,,,,,,3,13,,,,,,,,,,,3,1.83,1,,,,,,0.140740783,-0.242592635,1,0,0,1.83,Diorite_rect,5,0,5,0,1,
5fa4c21a04bc5912180291bc,TCN,2024-06-25_15h04.17.449,LearnStrategy,2023.2.3,Win32,58.82352941,9,2,7,,,,,,,,4,08,,,,,,,,,,,6,4.313,0,,,,,,-0.135185171,-0.39907406,1,0,0,4.313,Pegmatite_rect,6,0,6,0,1,
5fa4c21a04bc5912180291bc,TCN,2024-06-25_15h04.17.449,LearnStrategy,2023.2.3,Win32,58.82352941,9,2,8,,,,,,,,7,10,,,,,,,,,,,7,1.412,1,,,,,,0.114814829,-0.402777778,1,0,0,1.412,Peridotite_rect,7,0,7,0,1,
5fa4c21a04bc5912180291bc,TCN,2024-06-25_15h04.17.449,LearnStrategy,2023.2.3,Win32,58.82352941,9,2,9,,,,,,,,1,04,,,,,,,,,,,1,1.598,1,,,,,,-0.412962949,-0.24537037,1,0,0,1.598,Andesite_rect,8,0,8,0,1,
5fa4c21a04bc5912180291bc,TCN,2024-06-25_15h04.17.449,LearnStrategy,2023.2.3,Win32,58.82352941,9,2,10,,,,,,,,6,03,,,,,,,,,,,7,1.434,0,,,,,,0.113888917,-0.389814801,1,0,0,1.434,Peridotite_rect,9,0,9,0,1,
5fa4c21a04bc5912180291bc,TCN,2024-06-25_15h04.17.449,LearnStrategy,2023.2.3,Win32,58.82352941,9,2,11,,,,,,,,2,12,,,,,,,,,,,8,3.787,0,,,,,,0.376851824,-0.396296325,1,0,0,3.787,Pumice_rect,10,0,10,0,1,
5fa4c21a04bc5912180291bc,TCN,2024-06-25_15h04.17.449,LearnStrategy,2023.2.3,Win32,58.82352941,9,2,12,,,,,,,,3,10,,,,,,,,,,,1,3.751,0,,,,,,-0.36296297,-0.242592635,1,0,0,3.751,Andesite_rect,11,0,11,0,1,
5fa4c21a04bc5912180291bc,TCN,2024-06-25_15h04.17.449,LearnStrategy,2023.2.3,Win32,58.82352941,9,2,13,,,,,,,,8,14,,,,,,,,,,,8,1.003,1,,,,,,0.372222194,-0.393518519,1,0,0,1.003,Pumice_rect,12,0,12,0,1,
5fa4c21a04bc5912180291bc,TCN,2024-06-25_15h04.17.449,LearnStrategy,2023.2.3,Win32,58.82352941,9,2,14,,,,,,,,5,11,,,,,,,,,,,5,1.183,1,,,,,,-0.407407407,-0.407407407,1,0,0,1.183,Obsidian_rect,13,0,13,0,1,
5fa4c21a04bc5912180291bc,TCN,2024-06-25_15h04.17.449,LearnStrategy,2023.2.3,Win32,58.82352941,9,2,15,,,,,,,,6,08,,,,,,,,,,,6,4.887,1,,,,,,-0.147222236,-0.397222236,1,0,0,4.887,Pegmatite_rect,14,0,14,0,1,
5fa4c21a04bc5912180291bc,TCN,2024-06-25_15h04.17.449,LearnStrategy,2023.2.3,Win32,58.82352941,9,2,16,,,,,,,,4,13,,,,,,,,,,,1,4.734,0,,,,,,-0.374074053,-0.236111111,1,0,0,4.734,Andesite_rect,15,0,15,0,1,
5fa4c21a04bc5912180291bc,TCN,2024-06-25_15h04.17.449,LearnStrategy,2023.2.3,Win32,58.82352941,,,,,,,,,,,,,,,,,,,,,,,,,,,,,,,,,,,,,,,,,,,0
5fa4c21a04bc5912180291bc,TCN,2024-06-25_15h04.17.449,LearnStrategy,2023.2.3,Win32,58.82352941,,,,,,,,,,,,,,,,,,,,,,,,,,,,,,,,,,,,,,,,,,,
5fa4c21a04bc5912180291bc,TCN,2024-06-25_15h04.17.449,LearnStrategy,2023.2.3,Win32,58.82352941,,,,,,,,,,,7,02,1,1,,,,,,,,,,,,,,,,,,,,,,,,,,,,,
5fa4c21a04bc5912180291bc,TCN,2024-06-25_15h04.17.449,LearnStrategy,2023.2.3,Win32,58.82352941,,,,,,,,,,,8,13,1,2,,,,,,,,,,,,,,,,,,,,,,,,,,,,,
5fa4c21a04bc5912180291bc,TCN,2024-06-25_15h04.17.449,LearnStrategy,2023.2.3,Win32,58.82352941,,,,,,,,,,,2,16,1,3,,,,,,,,,,,,,,,,,,,,,,,,,,,,,
5fa4c21a04bc5912180291bc,TCN,2024-06-25_15h04.17.449,LearnStrategy,2023.2.3,Win32,58.82352941,,,,,,,,,,,7,15,1,4,,,,,,,,,,,,,,,,,,,,,,,,,,,,,
5fa4c21a04bc5912180291bc,TCN,2024-06-25_15h04.17.449,LearnStrategy,2023.2.3,Win32,58.82352941,,,,,,,,,,,1,02,1,5,,,,,,,,,,,,,,,,,,,,,,,,,,,,,
5fa4c21a04bc5912180291bc,TCN,2024-06-25_15h04.17.449,LearnStrategy,2023.2.3,Win32,58.82352941,,,,,,,,,,,6,10,1,6,,,,,,,,,,,,,,,,,,,,,,,,,,,,,
5fa4c21a04bc5912180291bc,TCN,2024-06-25_15h04.17.449,LearnStrategy,2023.2.3,Win32,58.82352941,,,,,,,,,,,4,12,1,7,,,,,,,,,,,,,,,,,,,,,,,,,,,,,
5fa4c21a04bc5912180291bc,TCN,2024-06-25_15h04.17.449,LearnStrategy,2023.2.3,Win32,58.82352941,,,,,,,,,,,8,03,1,8,,,,,,,,,,,,,,,,,,,,,,,,,,,,,
5fa4c21a04bc5912180291bc,TCN,2024-06-25_15h04.17.449,LearnStrategy,2023.2.3,Win32,58.82352941,,,,,,,,,,,2,11,2,1,,,,,,,,,,,,,,,,,,,,,,,,,,,,,
5fa4c21a04bc5912180291bc,TCN,2024-06-25_15h04.17.449,LearnStrategy,2023.2.3,Win32,58.82352941,,,,,,,,,,,4,14,2,2,,,,,,,,,,,,,,,,,,,,,,,,,,,,,
5fa4c21a04bc5912180291bc,TCN,2024-06-25_15h04.17.449,LearnStrategy,2023.2.3,Win32,58.82352941,,,,,,,,,,,2,04,2,3,,,,,,,,,,,,,,,,,,,,,,,,,,,,,
5fa4c21a04bc5912180291bc,TCN,2024-06-25_15h04.17.449,LearnStrategy,2023.2.3,Win32,58.82352941,,,,,,,,,,,3,15,2,4,,,,,,,,,,,,,,,,,,,,,,,,,,,,,
5fa4c21a04bc5912180291bc,TCN,2024-06-25_15h04.17.449,LearnStrategy,2023.2.3,Win32,58.82352941,,,,,,,,,,,3,14,2,5,,,,,,,,,,,,,,,,,,,,,,,,,,,,,
5fa4c21a04bc5912180291bc,TCN,2024-06-25_15h04.17.449,LearnStrategy,2023.2.3,Win32,58.82352941,,,,,,,,,,,5,09,2,6,,,,,,,,,,,,,,,,,,,,,,,,,,,,,
5fa4c21a04bc5912180291bc,TCN,2024-06-25_15h04.17.449,LearnStrategy,2023.2.3,Win32,58.82352941,,,,,,,,,,,7,07,2,7,,,,,,,,,,,,,,,,,,,,,,,,,,,,,
5fa4c21a04bc5912180291bc,TCN,2024-06-25_15h04.17.449,LearnStrategy,2023.2.3,Win32,58.82352941,,,,,,,,,,,1,09,2,8,,,,,,,,,,,,,,,,,,,,,,,,,,,,,
5fa4c21a04bc5912180291bc,TCN,2024-06-25_15h04.17.449,LearnStrategy,2023.2.3,Win32,58.82352941,,,,,,,,,,,2,02,3,1,,,,,,,,,,,,,,,,,,,,,,,,,,,,,
5fa4c21a04bc5912180291bc,TCN,2024-06-25_15h04.17.449,LearnStrategy,2023.2.3,Win32,58.82352941,,,,,,,,,,,5,14,3,2,,,,,,,,,,,,,,,,,,,,,,,,,,,,,
5fa4c21a04bc5912180291bc,TCN,2024-06-25_15h04.17.449,LearnStrategy,2023.2.3,Win32,58.82352941,,,,,,,,,,,8,10,3,3,,,,,,,,,,,,,,,,,,,,,,,,,,,,,
5fa4c21a04bc5912180291bc,TCN,2024-06-25_15h04.17.449,LearnStrategy,2023.2.3,Win32,58.82352941,,,,,,,,,,,5,05,3,4,,,,,,,,,,,,,,,,,,,,,,,,,,,,,
5fa4c21a04bc5912180291bc,TCN,2024-06-25_15h04.17.449,LearnStrategy,2023.2.3,Win32,58.82352941,,,,,,,,,,,6,13,3,5,,,,,,,,,,,,,,,,,,,,,,,,,,,,,
5fa4c21a04bc5912180291bc,TCN,2024-06-25_15h04.17.449,LearnStrategy,2023.2.3,Win32,58.82352941,,,,,,,,,,,6,05,3,6,,,,,,,,,,,,,,,,,,,,,,,,,,,,,
5fa4c21a04bc5912180291bc,TCN,2024-06-25_15h04.17.449,LearnStrategy,2023.2.3,Win32,58.82352941,,,,,,,,,,,3,02,3,7,,,,,,,,,,,,,,,,,,,,,,,,,,,,,
5fa4c21a04bc5912180291bc,TCN,2024-06-25_15h04.17.449,LearnStrategy,2023.2.3,Win32,58.82352941,,,,,,,,,,,8,16,3,8,,,,,,,,,,,,,,,,,,,,,,,,,,,,,
5fa4c21a04bc5912180291bc,TCN,2024-06-25_15h04.17.449,LearnStrategy,2023.2.3,Win32,58.82352941,,,,,,,,,,,7,04,4,1,,,,,,,,,,,,,,,,,,,,,,,,,,,,,
5fa4c21a04bc5912180291bc,TCN,2024-06-25_15h04.17.449,LearnStrategy,2023.2.3,Win32,58.82352941,,,,,,,,,,,1,01,4,2,,,,,,,,,,,,,,,,,,,,,,,,,,,,,
5fa4c21a04bc5912180291bc,TCN,2024-06-25_15h04.17.449,LearnStrategy,2023.2.3,Win32,58.82352941,,,,,,,,,,,3,11,4,3,,,,,,,,,,,,,,,,,,,,,,,,,,,,,
5fa4c21a04bc5912180291bc,TCN,2024-06-25_15h04.17.449,LearnStrategy,2023.2.3,Win32,58.82352941,,,,,,,,,,,8,02,4,4,,,,,,,,,,,,,,,,,,,,,,,,,,,,,
5fa4c21a04bc5912180291bc,TCN,2024-06-25_15h04.17.449,LearnStrategy,2023.2.3,Win32,58.82352941,,,,,,,,,,,2,06,4,5,,,,,,,,,,,,,,,,,,,,,,,,,,,,,
5fa4c21a04bc5912180291bc,TCN,2024-06-25_15h04.17.449,LearnStrategy,2023.2.3,Win32,58.82352941,,,,,,,,,,,1,06,4,6,,,,,,,,,,,,,,,,,,,,,,,,,,,,,
5fa4c21a04bc5912180291bc,TCN,2024-06-25_15h04.17.449,LearnStrategy,2023.2.3,Win32,58.82352941,,,,,,,,,,,3,12,4,7,,,,,,,,,,,,,,,,,,,,,,,,,,,,,
5fa4c21a04bc5912180291bc,TCN,2024-06-25_15h04.17.449,LearnStrategy,2023.2.3,Win32,58.82352941,,,,,,,,,,,1,16,4,8,,,,,,,,,,,,,,,,,,,,,,,,,,,,,
5fa4c21a04bc5912180291bc,TCN,2024-06-25_15h04.17.449,LearnStrategy,2023.2.3,Win32,58.82352941,,,,,,,,,,,4,16,5,1,,,,,,,,,,,,,,,,,,,,,,,,,,,,,
5fa4c21a04bc5912180291bc,TCN,2024-06-25_15h04.17.449,LearnStrategy,2023.2.3,Win32,58.82352941,,,,,,,,,,,7,12,5,2,,,,,,,,,,,,,,,,,,,,,,,,,,,,,
5fa4c21a04bc5912180291bc,TCN,2024-06-25_15h04.17.449,LearnStrategy,2023.2.3,Win32,58.82352941,,,,,,,,,,,5,08,5,3,,,,,,,,,,,,,,,,,,,,,,,,,,,,,
5fa4c21a04bc5912180291bc,TCN,2024-06-25_15h04.17.449,LearnStrategy,2023.2.3,Win32,58.82352941,,,,,,,,,,,4,09,5,4,,,,,,,,,,,,,,,,,,,,,,,,,,,,,
5fa4c21a04bc5912180291bc,TCN,2024-06-25_15h04.17.449,LearnStrategy,2023.2.3,Win32,58.82352941,,,,,,,,,,,2,10,5,5,,,,,,,,,,,,,,,,,,,,,,,,,,,,,
5fa4c21a04bc5912180291bc,TCN,2024-06-25_15h04.17.449,LearnStrategy,2023.2.3,Win32,58.82352941,,,,,,,,,,,6,12,5,6,,,,,,,,,,,,,,,,,,,,,,,,,,,,,
5fa4c21a04bc5912180291bc,TCN,2024-06-25_15h04.17.449,LearnStrategy,2023.2.3,Win32,58.82352941,,,,,,,,,,,1,14,5,7,,,,,,,,,,,,,,,,,,,,,,,,,,,,,
5fa4c21a04bc5912180291bc,TCN,2024-06-25_15h04.17.449,LearnStrategy,2023.2.3,Win32,58.82352941,,,,,,,,,,,5,06,5,8,,,,,,,,,,,,,,,,,,,,,,,,,,,,,
5fa4c21a04bc5912180291bc,TCN,2024-06-25_15h04.17.449,LearnStrategy,2023.2.3,Win32,58.82352941,,,,,,,,,,,8,04,6,1,,,,,,,,,,,,,,,,,,,,,,,,,,,,,
5fa4c21a04bc5912180291bc,TCN,2024-06-25_15h04.17.449,LearnStrategy,2023.2.3,Win32,58.82352941,,,,,,,,,,,4,01,6,2,,,,,,,,,,,,,,,,,,,,,,,,,,,,,
5fa4c21a04bc5912180291bc,TCN,2024-06-25_15h04.17.449,LearnStrategy,2023.2.3,Win32,58.82352941,,,,,,,,,,,7,05,6,3,,,,,,,,,,,,,,,,,,,,,,,,,,,,,
5fa4c21a04bc5912180291bc,TCN,2024-06-25_15h04.17.449,LearnStrategy,2023.2.3,Win32,58.82352941,,,,,,,,,,,3,09,6,4,,,,,,,,,,,,,,,,,,,,,,,,,,,,,
5fa4c21a04bc5912180291bc,TCN,2024-06-25_15h04.17.449,LearnStrategy,2023.2.3,Win32,58.82352941,,,,,,,,,,,5,10,6,5,,,,,,,,,,,,,,,,,,,,,,,,,,,,,
5fa4c21a04bc5912180291bc,TCN,2024-06-25_15h04.17.449,LearnStrategy,2023.2.3,Win32,58.82352941,,,,,,,,,,,6,11,6,6,,,,,,,,,,,,,,,,,,,,,,,,,,,,,
5fa4c21a04bc5912180291bc,TCN,2024-06-25_15h04.17.449,LearnStrategy,2023.2.3,Win32,58.82352941,,,,,,,,,,,6,07,6,7,,,,,,,,,,,,,,,,,,,,,,,,,,,,,
5fa4c21a04bc5912180291bc,TCN,2024-06-25_15h04.17.449,LearnStrategy,2023.2.3,Win32,58.82352941,,,,,,,,,,,4,05,6,8,,,,,,,,,,,,,,,,,,,,,,,,,,,,,