participant,condition,date,expName,psychopyVersion,OS,frameRate,block,phase,trial,learn_mouse.x,learn_mouse.y,learn_mouse.leftButton,learn_mouse.midButton,learn_mouse.rightButton,learn_mouse.time,learn_mouse.clicked_name,cat,token,row,col,t_select,cat_rec,token_rec,cat_mouse_l.x,cat_mouse_l.y,cat_mouse_l.leftButton,cat_mouse_l.midButton,cat_mouse_l.rightButton,cat_mouse_l.time,cat_mouse_l.clicked_name,resp,t_resp,corr,train_trials.thisRepN,train_trials.thisTrialN,train_trials.thisN,train_trials.thisIndex,train_trials.ran,cat_mouse_t.x,cat_mouse_t.y,cat_mouse_t.leftButton,cat_mouse_t.midButton,cat_mouse_t.rightButton,cat_mouse_t.time,cat_mouse_t.clicked_name,test_trials.thisRepN,test_trials.thisTrialN,test_trials.thisN,test_trials.thisIndex,test_trials.ran
62b0ff84054c6ca32f481c65,SCR,2024-06-20_13h34.39.297,LearnStrategy,2023.2.3,Win32,59.17159763,,,,,,,,,,,,,,,,,,,,,,,,,,,,,,,,,,,,,,,,,,,,
62b0ff84054c6ca32f481c65,SCR,2024-06-20_13h34.39.297,LearnStrategy,2023.2.3,Win32,59.17159763,1,1,1,0.52275655,0.25356109,1,0,0,4.2896,Peridotite_07,7,07,5,8,4.29,7,07,-0.155413935,-0.243949045,1,0,0,6.0457,Basalt_rect,2,6.046,0,0,0,0,0,1,,,,,,,,,,,,
62b0ff84054c6ca32f481c65,SCR,2024-06-20_13h34.39.297,LearnStrategy,2023.2.3,Win32,59.17159763,1,1,2,0.260567479,0.109959382,1,0,0,1.6295,Pumice_13,8,13,4,6,1.629,8,13,0.328199331,-0.378286102,1,0,0,5.1277,Pumice_rect,8,5.128,1,1,0,1,0,1,,,,,,,,,,,,
62b0ff84054c6ca32f481c65,SCR,2024-06-20_13h34.39.297,LearnStrategy,2023.2.3,Win32,59.17159763,1,1,3,0.352287224,-0.101273885,1,0,0,4.0469,Basalt_14,2,14,3,7,4.047,2,14,-0.369426752,-0.381992063,1,0,0,7.4196,Obsidian_rect,5,7.42,0,2,0,2,0,1,,,,,,,,,,,,
62b0ff84054c6ca32f481c65,SCR,2024-06-20_13h34.39.297,LearnStrategy,2023.2.3,Win32,59.17159763,1,1,4,-0.286045147,-0.261551895,1,0,0,1.412,Peridotite_02,7,02,2,3,1.412,7,02,0.14475984,-0.257846089,1,0,0,4.6079,Diorite_rect,3,4.608,0,3,0,3,0,1,,,,,,,,,,,,
62b0ff84054c6ca32f481c65,SCR,2024-06-20_13h34.39.297,LearnStrategy,2023.2.3,Win32,59.17159763,1,1,5,0.025246162,-0.300463245,1,0,0,1.33,Gabbro_05,4,05,2,5,1.33,4,05,-0.088708729,-0.243022632,1,0,0,7.7923,Basalt_rect,2,7.792,0,4,0,4,0,1,,,,,,,,,,,,
62b0ff84054c6ca32f481c65,SCR,2024-06-20_13h34.39.297,LearnStrategy,2023.2.3,Win32,59.17159763,1,1,6,-0.069253054,-0.149449984,1,0,0,0.9302,Basalt_05,2,05,3,4,0.93,2,05,-0.131325886,-0.379212514,1,0,0,4.4082,Pegmatite_rect,6,4.408,0,5,0,5,0,1,,,,,,,,,,,,
62b0ff84054c6ca32f481c65,SCR,2024-06-20_13h34.39.297,LearnStrategy,2023.2.3,Win32,59.17159763,1,1,7,0.389345828,0.272090314,1,0,0,1.4294,Diorite_10,3,10,5,7,1.429,3,10,0.359698914,-0.238390336,1,0,0,3.9253,Gabbro_rect,4,3.925,0,6,0,6,0,1,,,,,,,,,,,,
62b0ff84054c6ca32f481c65,SCR,2024-06-20_13h34.39.297,LearnStrategy,2023.2.3,Win32,59.17159763,1,1,8,0.068789809,0.437927032,1,0,0,2.0797,Andesite_02,1,02,6,5,2.08,1,02,0.152171452,-0.268037172,1,0,0,6.9735,Diorite_rect,3,6.974,0,7,0,7,0,1,,,,,,,,,,,,
62b0ff84054c6ca32f481c65,SCR,2024-06-20_13h34.39.297,LearnStrategy,2023.2.3,Win32,59.17159763,1,1,9,0.56352057,0.096062455,1,0,0,1.4304,Gabbro_16,4,16,4,8,1.43,4,16,0.378228177,-0.258772424,1,0,0,7.8437,Gabbro_rect,4,7.844,1,8,0,8,0,1,,,,,,,,,,,,
62b0ff84054c6ca32f481c65,SCR,2024-06-20_13h34.39.297,LearnStrategy,2023.2.3,Win32,59.17159763,1,1,10,0.231847134,0.438853503,1,0,0,1.4293,Obsidian_10,5,10,6,6,1.429,5,10,0.139200976,-0.252287302,1,0,0,4.5609,Diorite_rect,3,4.561,0,9,0,9,0,1,,,,,,,,,,,,
62b0ff84054c6ca32f481c65,SCR,2024-06-20_13h34.39.297,LearnStrategy,2023.2.3,Win32,59.17159763,1,1,11,-0.254545447,0.297104795,1,0,0,0.9792,Obsidian_06,5,06,5,3,0.979,5,06,-0.447249569,-0.407006369,1,0,0,1.5578,Obsidian_rect,5,1.558,1,10,0,10,0,1,,,,,,,,,,,,
62b0ff84054c6ca32f481c65,SCR,2024-06-20_13h34.39.297,LearnStrategy,2023.2.3,Win32,59.17159763,1,1,12,0.58019693,-0.396815287,1,0,0,1.3648,Andesite_11,1,11,1,8,1.365,1,11,-0.374059048,-0.245802025,1,0,0,5.0919,Andesite_rect,1,5.092,1,11,0,11,0,1,,,,,,,,,,,,
62b0ff84054c6ca32f481c65,SCR,2024-06-20_13h34.39.297,LearnStrategy,2023.2.3,Win32,59.17159763,1,1,13,-0.058135325,-0.302316148,1,0,0,1.6305,Pumice_02,8,02,2,4,1.63,8,02,0.151244962,-0.411638743,1,0,0,4.0423,Peridotite_rect,7,4.042,0,12,0,12,0,1,,,,,,,,,,,,
62b0ff84054c6ca32f481c65,SCR,2024-06-20_13h34.39.297,LearnStrategy,2023.2.3,Win32,59.17159763,1,1,14,-0.421308617,-0.434800225,1,0,0,1.214,Pegmatite_13,6,13,1,2,1.214,6,13,0.156803748,-0.260625404,1,0,0,3.8256,Diorite_rect,3,3.826,0,13,0,13,0,1,,,,,,,,,,,,
62b0ff84054c6ca32f481c65,SCR,2024-06-20_13h34.39.297,LearnStrategy,2023.2.3,Win32,59.17159763,1,1,15,0.267052834,-0.269889997,1,0,0,0.9464,Pegmatite_09,6,09,2,6,0.946,6,09,-0.419455675,-0.248581341,1,0,0,1.7436,Andesite_rect,1,1.744,0,14,0,14,0,1,,,,,,,,,,,,
62b0ff84054c6ca32f481c65,SCR,2024-06-20_13h34.39.297,LearnStrategy,2023.2.3,Win32,59.17159763,1,1,16,0.231847134,0.280428475,1,0,0,1.3463,Diorite_13,3,13,5,6,1.346,3,13,0.095657251,-0.409785918,1,0,0,6.6618,Peridotite_rect,7,6.662,0,15,0,15,0,1,,,,,,,,,,,,
62b0ff84054c6ca32f481c65,SCR,2024-06-20_13h34.39.297,LearnStrategy,2023.2.3,Win32,59.17159763,1,2,1,,,,,,,,4,08,,,,,,,,,,,,,6,5.406,0,,,,,,-0.130399551,-0.397741777,1,0,0,5.4055,Pegmatite_rect,0,0,0,0,1
62b0ff84054c6ca32f481c65,SCR,2024-06-20_13h34.39.297,LearnStrategy,2023.2.3,Win32,59.17159763,1,2,2,,,,,,,,6,08,,,,,,,,,,,,,5,4.908,0,,,,,,-0.36016212,-0.388477185,1,0,0,4.9081,Obsidian_rect,1,0,1,0,1
62b0ff84054c6ca32f481c65,SCR,2024-06-20_13h34.39.297,LearnStrategy,2023.2.3,Win32,59.17159763,1,2,3,,,,,,,,3,16,,,,,,,,,,,,,7,4.224,0,,,,,,0.114186592,-0.39959468,1,0,0,4.2236,Peridotite_rect,2,0,2,0,1
62b0ff84054c6ca32f481c65,SCR,2024-06-20_13h34.39.297,LearnStrategy,2023.2.3,Win32,59.17159763,1,2,4,,,,,,,,1,03,,,,,,,,,,,,,7,4.341,0,,,,,,0.114186592,-0.39959468,1,0,0,4.3407,Peridotite_rect,3,0,3,0,1
62b0ff84054c6ca32f481c65,SCR,2024-06-20_13h34.39.297,LearnStrategy,2023.2.3,Win32,59.17159763,1,2,5,,,,,,,,7,14,,,,,,,,,,,,,1,2.323,0,,,,,,-0.437984938,-0.243949045,1,0,0,2.3231,Andesite_rect,4,0,4,0,1
62b0ff84054c6ca32f481c65,SCR,2024-06-20_13h34.39.297,LearnStrategy,2023.2.3,Win32,59.17159763,1,2,6,,,,,,,,3,12,,,,,,,,,,,,,6,3.907,0,,,,,,-0.060914874,-0.413491724,1,0,0,3.9073,Pegmatite_rect,5,0,5,0,1
62b0ff84054c6ca32f481c65,SCR,2024-06-20_13h34.39.297,LearnStrategy,2023.2.3,Win32,59.17159763,1,2,7,,,,,,,,5,09,,,,,,,,,,,,,5,1.626,1,,,,,,-0.462999361,-0.385697791,1,0,0,1.6257,Obsidian_rect,6,0,6,0,1
62b0ff84054c6ca32f481c65,SCR,2024-06-20_13h34.39.297,LearnStrategy,2023.2.3,Win32,59.17159763,1,2,8,,,,,,,,2,16,,,,,,,,,,,,,1,4.691,0,,,,,,-0.417602772,-0.240243239,1,0,0,4.6908,Andesite_rect,7,0,7,0,1
62b0ff84054c6ca32f481c65,SCR,2024-06-20_13h34.39.297,LearnStrategy,2023.2.3,Win32,59.17159763,1,2,9,,,,,,,,8,05,,,,,,,,,,,,,8,1.991,1,,,,,,0.438448261,-0.393109558,1,0,0,1.9909,Pumice_rect,8,0,8,0,1
62b0ff84054c6ca32f481c65,SCR,2024-06-20_13h34.39.297,LearnStrategy,2023.2.3,Win32,59.17159763,1,2,10,,,,,,,,4,12,,,,,,,,,,,,,7,5.526,0,,,,,,0.1262305,-0.381992063,1,0,0,5.526,Peridotite_rect,9,0,9,0,1
62b0ff84054c6ca32f481c65,SCR,2024-06-20_13h34.39.297,LearnStrategy,2023.2.3,Win32,59.17159763,1,2,11,,,,,,,,2,08,,,,,,,,,,,,,2,4.574,1,,,,,,-0.164678527,-0.259698914,1,0,0,4.5739,Basalt_rect,10,0,10,0,1
62b0ff84054c6ca32f481c65,SCR,2024-06-20_13h34.39.297,LearnStrategy,2023.2.3,Win32,59.17159763,1,2,12,,,,,,,,7,06,,,,,,,,,,,,,1,3.358,0,,,,,,-0.354603334,-0.261551895,1,0,0,3.3583,Andesite_rect,11,0,11,0,1
62b0ff84054c6ca32f481c65,SCR,2024-06-20_13h34.39.297,LearnStrategy,2023.2.3,Win32,59.17159763,1,2,13,,,,,,,,6,03,,,,,,,,,,,,,1,1.357,0,,,,,,-0.354603334,-0.261551895,1,0,0,1.3574,Andesite_rect,12,0,12,0,1
62b0ff84054c6ca32f481c65,SCR,2024-06-20_13h34.39.297,LearnStrategy,2023.2.3,Win32,59.17159763,1,2,14,,,,,,,,5,14,,,,,,,,,,,,,5,1.59,1,,,,,,-0.371279655,-0.402374073,1,0,0,1.5898,Obsidian_rect,13,0,13,0,1
62b0ff84054c6ca32f481c65,SCR,2024-06-20_13h34.39.297,LearnStrategy,2023.2.3,Win32,59.17159763,1,2,15,,,,,,,,1,06,,,,,,,,,,,,,7,3.493,0,,,,,,0.098436645,-0.393109558,1,0,0,3.4934,Peridotite_rect,14,0,14,0,1
62b0ff84054c6ca32f481c65,SCR,2024-06-20_13h34.39.297,LearnStrategy,2023.2.3,Win32,59.17159763,1,2,16,,,,,,,,8,06,,,,,,,,,,,,,8,1.373,1,,,,,,0.384713376,-0.413491724,1,0,0,1.3732,Pumice_rect,15,0,15,0,1