"width","height","webaudio","browser","browser_version","mobile","os","fullscreen","vsync_rate","webcam","microphone","trial_type","trial_index","plugin_version","time_elapsed","subjID","condition","stimID","rt","url","success","value","timeout","failed_images","failed_audio","failed_video","view_history","stimulus","response","trialType","cycle","phase","trial","resp","cat","token","corr","resp_num","cat_num","time_fb1","time_fb2"
"1920","919","true","chrome","130.0.0","false","Windows 10","true","34.08","true","true","browser-check","0","2.0.0","5726","6148f6fb0d27af3991e8d01e","2","3","","","","","","","","","","","","","","","","","","","","","","",""
"","","","","","","","","","","","external-html","1","2.0.0","13353","6148f6fb0d27af3991e8d01e","2","3","7527","consent_form.html","","","","","","","","","","","","","","","","","","","","",""
"","","","","","","","","","","","fullscreen","2","2.0.0","16852","6148f6fb0d27af3991e8d01e","2","3","2487","","true","","","","","","","","","","","","","","","","","","","",""
"","","","","","","","","","","","call-function","3","2.0.0","16856","6148f6fb0d27af3991e8d01e","2","3","","","","{}","","","","","","","","","","","","","","","","","","",""
"","","","","","","","","","","","preload","4","2.0.0","19310","6148f6fb0d27af3991e8d01e","2","3","","","true","","false","[]","[]","[]","","","","","","","","","","","","","","",""
"","","","","","","","","","","","instructions","5","2.0.0","120797","6148f6fb0d27af3991e8d01e","2","3","101485","","","","","","","","[{""page_index"":0,""viewing_time"":66269},{""page_index"":1,""viewing_time"":22602},{""page_index"":2,""viewing_time"":12614}]","","","","","","","","","","","","","",""
"","","","","","","","","","","","html-button-response","6","2.0.0","128277","6148f6fb0d27af3991e8d01e","2","3","7477","","","","","","","","","","0","start_test","","","","","","","","","","",""
"","","","","","","","","","","","html-button-response","7","2.0.0","145006","6148f6fb0d27af3991e8d01e","2","3","16725","","","","","","","","","<img src= ""rock_img/I_Pegmatite_15.jpg"" style=""width:8cm; height:6cm;""><p>What type of rock is this?</p>","2","class_response","0","test","1","Diorite","Pegmatite","15","false","3","6","",""
"","","","","","","","","","","","html-keyboard-response","8","2.0.0","145515","6148f6fb0d27af3991e8d01e","2","3","null","","","","","","","","","<p style='font-size: 30px;'><strong>Okay</strong></p>","null","neutral_feedback","0","test","1","","","","","","","",""
"","","","","","","","","","","","html-button-response","9","2.0.0","151692","6148f6fb0d27af3991e8d01e","2","3","6173","","","","","","","","","<img src= ""rock_img/I_Andesite_06.jpg"" style=""width:8cm; height:6.840000000000001cm;""><p>What type of rock is this?</p>","7","class_response","0","test","2","Pumice","Andesite","06","false","8","1","",""
"","","","","","","","","","","","html-keyboard-response","10","2.0.0","152197","6148f6fb0d27af3991e8d01e","2","3","null","","","","","","","","","<p style='font-size: 30px;'><strong>Okay</strong></p>","null","neutral_feedback","0","test","2","","","","","","","",""
"","","","","","","","","","","","html-button-response","11","2.0.0","157826","6148f6fb0d27af3991e8d01e","2","3","5625","","","","","","","","","<img src= ""rock_img/I_Peridotite_13.jpg"" style=""width:8cm; height:7.58cm;""><p>What type of rock is this?</p>","2","class_response","0","test","3","Diorite","Peridotite","13","false","3","7","",""
"","","","","","","","","","","","html-keyboard-response","12","2.0.0","158331","6148f6fb0d27af3991e8d01e","2","3","null","","","","","","","","","<p style='font-size: 30px;'><strong>Okay</strong></p>","null","neutral_feedback","0","test","3","","","","","","","",""
"","","","","","","","","","","","html-button-response","13","2.0.0","166939","6148f6fb0d27af3991e8d01e","2","3","8606","","","","","","","","","<img src= ""rock_img/I_Diorite_11.jpg"" style=""width:8cm; height:7.11cm;""><p>What type of rock is this?</p>","2","class_response","0","test","4","Diorite","Diorite","11","true","3","3","",""
"","","","","","","","","","","","html-keyboard-response","14","2.0.0","167441","6148f6fb0d27af3991e8d01e","2","3","null","","","","","","","","","<p style='font-size: 30px;'><strong>Okay</strong></p>","null","neutral_feedback","0","test","4","","","","","","","",""
"","","","","","","","","","","","html-button-response","15","2.0.0","178931","6148f6fb0d27af3991e8d01e","2","3","11487","","","","","","","","","<img src= ""rock_img/I_Obsidian_05.jpg"" style=""width:8cm; height:6.33cm;""><p>What type of rock is this?</p>","4","class_response","0","test","5","Obsidian","Obsidian","05","true","5","5","",""
"","","","","","","","","","","","html-keyboard-response","16","2.0.0","179438","6148f6fb0d27af3991e8d01e","2","3","null","","","","","","","","","<p style='font-size: 30px;'><strong>Okay</strong></p>","null","neutral_feedback","0","test","5","","","","","","","",""
"","","","","","","","","","","","html-button-response","17","2.0.0","185605","6148f6fb0d27af3991e8d01e","2","3","6165","","","","","","","","","<img src= ""rock_img/I_Basalt_12.jpg"" style=""width:8cm; height:6.010000000000001cm;""><p>What type of rock is this?</p>","5","class_response","0","test","6","Pegmatite","Basalt","12","false","6","2","",""
"","","","","","","","","","","","html-keyboard-response","18","2.0.0","186109","6148f6fb0d27af3991e8d01e","2","3","null","","","","","","","","","<p style='font-size: 30px;'><strong>Okay</strong></p>","null","neutral_feedback","0","test","6","","","","","","","",""
"","","","","","","","","","","","html-button-response","19","2.0.0","190885","6148f6fb0d27af3991e8d01e","2","3","4774","","","","","","","","","<img src= ""rock_img/I_Peridotite_15.jpg"" style=""width:8cm; height:6cm;""><p>What type of rock is this?</p>","3","class_response","0","test","7","Gabbro","Peridotite","15","false","4","7","",""
"","","","","","","","","","","","html-keyboard-response","20","2.0.0","191388","6148f6fb0d27af3991e8d01e","2","3","null","","","","","","","","","<p style='font-size: 30px;'><strong>Okay</strong></p>","null","neutral_feedback","0","test","7","","","","","","","",""
"","","","","","","","","","","","html-button-response","21","2.0.0","193287","6148f6fb0d27af3991e8d01e","2","3","1898","","","","","","","","","<img src= ""rock_img/I_Pumice_16.jpg"" style=""width:8cm; height:6.79cm;""><p>What type of rock is this?</p>","0","class_response","0","test","8","Andesite","Pumice","16","false","1","8","",""
"","","","","","","","","","","","html-keyboard-response","22","2.0.0","193802","6148f6fb0d27af3991e8d01e","2","3","null","","","","","","","","","<p style='font-size: 30px;'><strong>Okay</strong></p>","null","neutral_feedback","0","test","8","","","","","","","",""
"","","","","","","","","","","","html-button-response","23","2.0.0","199961","6148f6fb0d27af3991e8d01e","2","3","6157","","","","","","","","","<img src= ""rock_img/I_Obsidian_07.jpg"" style=""width:8cm; height:4.76cm;""><p>What type of rock is this?</p>","4","class_response","0","test","9","Obsidian","Obsidian","07","true","5","5","",""
"","","","","","","","","","","","html-keyboard-response","24","2.0.0","200472","6148f6fb0d27af3991e8d01e","2","3","null","","","","","","","","","<p style='font-size: 30px;'><strong>Okay</strong></p>","null","neutral_feedback","0","test","9","","","","","","","",""
"","","","","","","","","","","","html-button-response","25","2.0.0","202670","6148f6fb0d27af3991e8d01e","2","3","2195","","","","","","","","","<img src= ""rock_img/I_Gabbro_13.jpg"" style=""width:8cm; height:5.08cm;""><p>What type of rock is this?</p>","6","class_response","0","test","10","Peridotite","Gabbro","13","false","7","4","",""
"","","","","","","","","","","","html-keyboard-response","26","2.0.0","203172","6148f6fb0d27af3991e8d01e","2","3","null","","","","","","","","","<p style='font-size: 30px;'><strong>Okay</strong></p>","null","neutral_feedback","0","test","10","","","","","","","",""
"","","","","","","","","","","","html-button-response","27","2.0.0","205222","6148f6fb0d27af3991e8d01e","2","3","2049","","","","","","","","","<img src= ""rock_img/I_Pumice_04.jpg"" style=""width:8cm; height:6.819999999999999cm;""><p>What type of rock is this?</p>","1","class_response","0","test","11","Basalt","Pumice","04","false","2","8","",""
"","","","","","","","","","","","html-keyboard-response","28","2.0.0","205724","6148f6fb0d27af3991e8d01e","2","3","null","","","","","","","","","<p style='font-size: 30px;'><strong>Okay</strong></p>","null","neutral_feedback","0","test","11","","","","","","","",""
"","","","","","","","","","","","html-button-response","29","2.0.0","207710","6148f6fb0d27af3991e8d01e","2","3","1984","","","","","","","","","<img src= ""rock_img/I_Basalt_06.jpg"" style=""width:8cm; height:7.06cm;""><p>What type of rock is this?</p>","4","class_response","0","test","12","Obsidian","Basalt","06","false","5","2","",""
"","","","","","","","","","","","html-keyboard-response","30","2.0.0","208213","6148f6fb0d27af3991e8d01e","2","3","null","","","","","","","","","<p style='font-size: 30px;'><strong>Okay</strong></p>","null","neutral_feedback","0","test","12","","","","","","","",""
"","","","","","","","","","","","html-button-response","31","2.0.0","260267","6148f6fb0d27af3991e8d01e","2","3","52051","","","","","","","","","<img src= ""rock_img/I_Diorite_16.jpg"" style=""width:8cm; height:6.74cm;""><p>What type of rock is this?</p>","6","class_response","0","test","13","Peridotite","Diorite","16","false","7","3","",""
"","","","","","","","","","","","html-keyboard-response","32","2.0.0","260770","6148f6fb0d27af3991e8d01e","2","3","null","","","","","","","","","<p style='font-size: 30px;'><strong>Okay</strong></p>","null","neutral_feedback","0","test","13","","","","","","","",""
"","","","","","","","","","","","html-button-response","33","2.0.0","264486","6148f6fb0d27af3991e8d01e","2","3","3714","","","","","","","","","<img src= ""rock_img/I_Pumice_08.jpg"" style=""width:8cm; height:6.67cm;""><p>What type of rock is this?</p>","1","class_response","0","test","14","Basalt","Pumice","08","false","2","8","",""
"","","","","","","","","","","","html-keyboard-response","34","2.0.0","264992","6148f6fb0d27af3991e8d01e","2","3","null","","","","","","","","","<p style='font-size: 30px;'><strong>Okay</strong></p>","null","neutral_feedback","0","test","14","","","","","","","",""
"","","","","","","","","","","","html-button-response","35","2.0.0","267355","6148f6fb0d27af3991e8d01e","2","3","2360","","","","","","","","","<img src= ""rock_img/I_Peridotite_12.jpg"" style=""width:8cm; height:4.54cm;""><p>What type of rock is this?</p>","5","class_response","0","test","15","Pegmatite","Peridotite","12","false","6","7","",""
"","","","","","","","","","","","html-keyboard-response","36","2.0.0","267858","6148f6fb0d27af3991e8d01e","2","3","null","","","","","","","","","<p style='font-size: 30px;'><strong>Okay</strong></p>","null","neutral_feedback","0","test","15","","","","","","","",""
"","","","","","","","","","","","html-button-response","37","2.0.0","270493","6148f6fb0d27af3991e8d01e","2","3","2633","","","","","","","","","<img src= ""rock_img/I_Gabbro_16.jpg"" style=""width:8cm; height:6.44cm;""><p>What type of rock is this?</p>","7","class_response","0","test","16","Pumice","Gabbro","16","false","8","4","",""
"","","","","","","","","","","","html-keyboard-response","38","2.0.0","270996","6148f6fb0d27af3991e8d01e","2","3","null","","","","","","","","","<p style='font-size: 30px;'><strong>Okay</strong></p>","null","neutral_feedback","0","test","16","","","","","","","",""
"","","","","","","","","","","","html-button-response","39","2.0.0","274219","6148f6fb0d27af3991e8d01e","2","3","3222","","","","","","","","","<img src= ""rock_img/I_Obsidian_16.jpg"" style=""width:8cm; height:9.3cm;""><p>What type of rock is this?</p>","4","class_response","0","test","17","Obsidian","Obsidian","16","true","5","5","",""
"","","","","","","","","","","","html-keyboard-response","40","2.0.0","274734","6148f6fb0d27af3991e8d01e","2","3","null","","","","","","","","","<p style='font-size: 30px;'><strong>Okay</strong></p>","null","neutral_feedback","0","test","17","","","","","","","",""
"","","","","","","","","","","","html-button-response","41","2.0.0","276153","6148f6fb0d27af3991e8d01e","2","3","1418","","","","","","","","","<img src= ""rock_img/I_Andesite_04.jpg"" style=""width:8cm; height:5.96cm;""><p>What type of rock is this?</p>","5","class_response","0","test","18","Pegmatite","Andesite","04","false","6","1","",""
"","","","","","","","","","","","html-keyboard-response","42","2.0.0","276662","6148f6fb0d27af3991e8d01e","2","3","null","","","","","","","","","<p style='font-size: 30px;'><strong>Okay</strong></p>","null","neutral_feedback","0","test","18","","","","","","","",""
"","","","","","","","","","","","html-button-response","43","2.0.0","280241","6148f6fb0d27af3991e8d01e","2","3","3576","","","","","","","","","<img src= ""rock_img/I_Basalt_11.jpg"" style=""width:8cm; height:5.359999999999999cm;""><p>What type of rock is this?</p>","2","class_response","0","test","19","Diorite","Basalt","11","false","3","2","",""
"","","","","","","","","","","","html-keyboard-response","44","2.0.0","280751","6148f6fb0d27af3991e8d01e","2","3","null","","","","","","","","","<p style='font-size: 30px;'><strong>Okay</strong></p>","null","neutral_feedback","0","test","19","","","","","","","",""
"","","","","","","","","","","","html-button-response","45","2.0.0","284655","6148f6fb0d27af3991e8d01e","2","3","3902","","","","","","","","","<img src= ""rock_img/I_Gabbro_15.jpg"" style=""width:8cm; height:6.29cm;""><p>What type of rock is this?</p>","0","class_response","0","test","20","Andesite","Gabbro","15","false","1","4","",""
"","","","","","","","","","","","html-keyboard-response","46","2.0.0","285169","6148f6fb0d27af3991e8d01e","2","3","null","","","","","","","","","<p style='font-size: 30px;'><strong>Okay</strong></p>","null","neutral_feedback","0","test","20","","","","","","","",""
"","","","","","","","","","","","html-button-response","47","2.0.0","287451","6148f6fb0d27af3991e8d01e","2","3","2279","","","","","","","","","<img src= ""rock_img/I_Diorite_10.jpg"" style=""width:8cm; height:5.949999999999999cm;""><p>What type of rock is this?</p>","6","class_response","0","test","21","Peridotite","Diorite","10","false","7","3","",""
"","","","","","","","","","","","html-keyboard-response","48","2.0.0","287963","6148f6fb0d27af3991e8d01e","2","3","null","","","","","","","","","<p style='font-size: 30px;'><strong>Okay</strong></p>","null","neutral_feedback","0","test","21","","","","","","","",""
"","","","","","","","","","","","html-button-response","49","2.0.0","290123","6148f6fb0d27af3991e8d01e","2","3","2156","","","","","","","","","<img src= ""rock_img/I_Gabbro_12.jpg"" style=""width:8cm; height:7.800000000000001cm;""><p>What type of rock is this?</p>","7","class_response","0","test","22","Pumice","Gabbro","12","false","8","4","",""
"","","","","","","","","","","","html-keyboard-response","50","2.0.0","290629","6148f6fb0d27af3991e8d01e","2","3","null","","","","","","","","","<p style='font-size: 30px;'><strong>Okay</strong></p>","null","neutral_feedback","0","test","22","","","","","","","",""
"","","","","","","","","","","","html-button-response","51","2.0.0","292225","6148f6fb0d27af3991e8d01e","2","3","1594","","","","","","","","","<img src= ""rock_img/I_Obsidian_04.jpg"" style=""width:8cm; height:6.930000000000001cm;""><p>What type of rock is this?</p>","4","class_response","0","test","23","Obsidian","Obsidian","04","true","5","5","",""
"","","","","","","","","","","","html-keyboard-response","52","2.0.0","292731","6148f6fb0d27af3991e8d01e","2","3","null","","","","","","","","","<p style='font-size: 30px;'><strong>Okay</strong></p>","null","neutral_feedback","0","test","23","","","","","","","",""
"","","","","","","","","","","","html-button-response","53","2.0.0","295551","6148f6fb0d27af3991e8d01e","2","3","2818","","","","","","","","","<img src= ""rock_img/I_Diorite_07.jpg"" style=""width:8cm; height:5.239999999999999cm;""><p>What type of rock is this?</p>","2","class_response","0","test","24","Diorite","Diorite","07","true","3","3","",""
"","","","","","","","","","","","html-keyboard-response","54","2.0.0","296063","6148f6fb0d27af3991e8d01e","2","3","null","","","","","","","","","<p style='font-size: 30px;'><strong>Okay</strong></p>","null","neutral_feedback","0","test","24","","","","","","","",""
"","","","","","","","","","","","html-button-response","55","2.0.0","298042","6148f6fb0d27af3991e8d01e","2","3","1976","","","","","","","","","<img src= ""rock_img/I_Andesite_02.jpg"" style=""width:8cm; height:8.5cm;""><p>What type of rock is this?</p>","5","class_response","0","test","25","Pegmatite","Andesite","02","false","6","1","",""
"","","","","","","","","","","","html-keyboard-response","56","2.0.0","298551","6148f6fb0d27af3991e8d01e","2","3","null","","","","","","","","","<p style='font-size: 30px;'><strong>Okay</strong></p>","null","neutral_feedback","0","test","25","","","","","","","",""
"","","","","","","","","","","","html-button-response","57","2.0.0","300449","6148f6fb0d27af3991e8d01e","2","3","1895","","","","","","","","","<img src= ""rock_img/I_Gabbro_05.jpg"" style=""width:8cm; height:6cm;""><p>What type of rock is this?</p>","0","class_response","0","test","26","Andesite","Gabbro","05","false","1","4","",""
"","","","","","","","","","","","html-keyboard-response","58","2.0.0","300952","6148f6fb0d27af3991e8d01e","2","3","null","","","","","","","","","<p style='font-size: 30px;'><strong>Okay</strong></p>","null","neutral_feedback","0","test","26","","","","","","","",""
"","","","","","","","","","","","html-button-response","59","2.0.0","302883","6148f6fb0d27af3991e8d01e","2","3","1929","","","","","","","","","<img src= ""rock_img/I_Pegmatite_10.jpg"" style=""width:8cm; height:4.16cm;""><p>What type of rock is this?</p>","3","class_response","0","test","27","Gabbro","Pegmatite","10","false","4","6","",""
"","","","","","","","","","","","html-keyboard-response","60","2.0.0","303396","6148f6fb0d27af3991e8d01e","2","3","null","","","","","","","","","<p style='font-size: 30px;'><strong>Okay</strong></p>","null","neutral_feedback","0","test","27","","","","","","","",""
"","","","","","","","","","","","html-button-response","61","2.0.0","306193","6148f6fb0d27af3991e8d01e","2","3","2795","","","","","","","","","<img src= ""rock_img/I_Pumice_05.jpg"" style=""width:8cm; height:7.25cm;""><p>What type of rock is this?</p>","1","class_response","0","test","28","Basalt","Pumice","05","false","2","8","",""
"","","","","","","","","","","","html-keyboard-response","62","2.0.0","306700","6148f6fb0d27af3991e8d01e","2","3","null","","","","","","","","","<p style='font-size: 30px;'><strong>Okay</strong></p>","null","neutral_feedback","0","test","28","","","","","","","",""
"","","","","","","","","","","","html-button-response","63","2.0.0","309533","6148f6fb0d27af3991e8d01e","2","3","2831","","","","","","","","","<img src= ""rock_img/I_Peridotite_07.jpg"" style=""width:8cm; height:4.83cm;""><p>What type of rock is this?</p>","6","class_response","0","test","29","Peridotite","Peridotite","07","true","7","7","",""
"","","","","","","","","","","","html-keyboard-response","64","2.0.0","310039","6148f6fb0d27af3991e8d01e","2","3","null","","","","","","","","","<p style='font-size: 30px;'><strong>Okay</strong></p>","null","neutral_feedback","0","test","29","","","","","","","",""
"","","","","","","","","","","","html-button-response","65","2.0.0","311985","6148f6fb0d27af3991e8d01e","2","3","1944","","","","","","","","","<img src= ""rock_img/I_Basalt_08.jpg"" style=""width:8cm; height:10.44cm;""><p>What type of rock is this?</p>","4","class_response","0","test","30","Obsidian","Basalt","08","false","5","2","",""
"","","","","","","","","","","","html-keyboard-response","66","2.0.0","312493","6148f6fb0d27af3991e8d01e","2","3","null","","","","","","","","","<p style='font-size: 30px;'><strong>Okay</strong></p>","null","neutral_feedback","0","test","30","","","","","","","",""
"","","","","","","","","","","","html-button-response","67","2.0.0","313907","6148f6fb0d27af3991e8d01e","2","3","1412","","","","","","","","","<img src= ""rock_img/I_Pumice_09.jpg"" style=""width:8cm; height:6.44cm;""><p>What type of rock is this?</p>","1","class_response","0","test","31","Basalt","Pumice","09","false","2","8","",""
"","","","","","","","","","","","html-keyboard-response","68","2.0.0","314409","6148f6fb0d27af3991e8d01e","2","3","null","","","","","","","","","<p style='font-size: 30px;'><strong>Okay</strong></p>","null","neutral_feedback","0","test","31","","","","","","","",""
"","","","","","","","","","","","html-button-response","69","2.0.0","316357","6148f6fb0d27af3991e8d01e","2","3","1945","","","","","","","","","<img src= ""rock_img/I_Basalt_14.jpg"" style=""width:8cm; height:5.82cm;""><p>What type of rock is this?</p>","0","class_response","0","test","32","Andesite","Basalt","14","false","1","2","",""
"","","","","","","","","","","","html-keyboard-response","70","2.0.0","316871","6148f6fb0d27af3991e8d01e","2","3","null","","","","","","","","","<p style='font-size: 30px;'><strong>Okay</strong></p>","null","neutral_feedback","0","test","32","","","","","","","",""
"","","","","","","","","","","","html-button-response","71","2.0.0","319513","6148f6fb0d27af3991e8d01e","2","3","2640","","","","","","","","","<img src= ""rock_img/I_Pegmatite_16.jpg"" style=""width:8cm; height:5.8cm;""><p>What type of rock is this?</p>","6","class_response","0","test","33","Peridotite","Pegmatite","16","false","7","6","",""
"","","","","","","","","","","","html-keyboard-response","72","2.0.0","320027","6148f6fb0d27af3991e8d01e","2","3","null","","","","","","","","","<p style='font-size: 30px;'><strong>Okay</strong></p>","null","neutral_feedback","0","test","33","","","","","","","",""
"","","","","","","","","","","","html-button-response","73","2.0.0","322293","6148f6fb0d27af3991e8d01e","2","3","2263","","","","","","","","","<img src= ""rock_img/I_Andesite_05.jpg"" style=""width:8cm; height:4.12cm;""><p>What type of rock is this?</p>","7","class_response","0","test","34","Pumice","Andesite","05","false","8","1","",""
"","","","","","","","","","","","html-keyboard-response","74","2.0.0","322794","6148f6fb0d27af3991e8d01e","2","3","null","","","","","","","","","<p style='font-size: 30px;'><strong>Okay</strong></p>","null","neutral_feedback","0","test","34","","","","","","","",""
"","","","","","","","","","","","html-button-response","75","2.0.0","326518","6148f6fb0d27af3991e8d01e","2","3","3723","","","","","","","","","<img src= ""rock_img/I_Gabbro_10.jpg"" style=""width:8cm; height:5.680000000000001cm;""><p>What type of rock is this?</p>","5","class_response","0","test","35","Pegmatite","Gabbro","10","false","6","4","",""
"","","","","","","","","","","","html-keyboard-response","76","2.0.0","327024","6148f6fb0d27af3991e8d01e","2","3","null","","","","","","","","","<p style='font-size: 30px;'><strong>Okay</strong></p>","null","neutral_feedback","0","test","35","","","","","","","",""
"","","","","","","","","","","","html-button-response","77","2.0.0","328588","6148f6fb0d27af3991e8d01e","2","3","1561","","","","","","","","","<img src= ""rock_img/I_Peridotite_08.jpg"" style=""width:8cm; height:6.7cm;""><p>What type of rock is this?</p>","0","class_response","0","test","36","Andesite","Peridotite","08","false","1","7","",""
"","","","","","","","","","","","html-keyboard-response","78","2.0.0","329092","6148f6fb0d27af3991e8d01e","2","3","null","","","","","","","","","<p style='font-size: 30px;'><strong>Okay</strong></p>","null","neutral_feedback","0","test","36","","","","","","","",""
"","","","","","","","","","","","html-button-response","79","2.0.0","332096","6148f6fb0d27af3991e8d01e","2","3","3003","","","","","","","","","<img src= ""rock_img/I_Obsidian_12.jpg"" style=""width:8cm; height:6.53cm;""><p>What type of rock is this?</p>","4","class_response","0","test","37","Obsidian","Obsidian","12","true","5","5","",""
"","","","","","","","","","","","html-keyboard-response","80","2.0.0","332613","6148f6fb0d27af3991e8d01e","2","3","null","","","","","","","","","<p style='font-size: 30px;'><strong>Okay</strong></p>","null","neutral_feedback","0","test","37","","","","","","","",""
"","","","","","","","","","","","html-button-response","81","2.0.0","334772","6148f6fb0d27af3991e8d01e","2","3","2157","","","","","","","","","<img src= ""rock_img/I_Andesite_16.jpg"" style=""width:8cm; height:6.010000000000001cm;""><p>What type of rock is this?</p>","5","class_response","0","test","38","Pegmatite","Andesite","16","false","6","1","",""
"","","","","","","","","","","","html-keyboard-response","82","2.0.0","335283","6148f6fb0d27af3991e8d01e","2","3","null","","","","","","","","","<p style='font-size: 30px;'><strong>Okay</strong></p>","null","neutral_feedback","0","test","38","","","","","","","",""
"","","","","","","","","","","","html-button-response","83","2.0.0","336748","6148f6fb0d27af3991e8d01e","2","3","1463","","","","","","","","","<img src= ""rock_img/I_Obsidian_10.jpg"" style=""width:8cm; height:6.260000000000001cm;""><p>What type of rock is this?</p>","4","class_response","0","test","39","Obsidian","Obsidian","10","true","5","5","",""
"","","","","","","","","","","","html-keyboard-response","84","2.0.0","337263","6148f6fb0d27af3991e8d01e","2","3","null","","","","","","","","","<p style='font-size: 30px;'><strong>Okay</strong></p>","null","neutral_feedback","0","test","39","","","","","","","",""
"","","","","","","","","","","","html-button-response","85","2.0.0","338780","6148f6fb0d27af3991e8d01e","2","3","1515","","","","","","","","","<img src= ""rock_img/I_Peridotite_10.jpg"" style=""width:8cm; height:5.390000000000001cm;""><p>What type of rock is this?</p>","3","class_response","0","test","40","Gabbro","Peridotite","10","false","4","7","",""
"","","","","","","","","","","","html-keyboard-response","86","2.0.0","339281","6148f6fb0d27af3991e8d01e","2","3","null","","","","","","","","","<p style='font-size: 30px;'><strong>Okay</strong></p>","null","neutral_feedback","0","test","40","","","","","","","",""
"","","","","","","","","","","","html-button-response","87","2.0.0","341716","6148f6fb0d27af3991e8d01e","2","3","2432","","","","","","","","","<img src= ""rock_img/I_Basalt_02.jpg"" style=""width:8cm; height:6.45cm;""><p>What type of rock is this?</p>","5","class_response","0","test","41","Pegmatite","Basalt","02","false","6","2","",""
"","","","","","","","","","","","html-keyboard-response","88","2.0.0","342218","6148f6fb0d27af3991e8d01e","2","3","null","","","","","","","","","<p style='font-size: 30px;'><strong>Okay</strong></p>","null","neutral_feedback","0","test","41","","","","","","","",""
"","","","","","","","","","","","html-button-response","89","2.0.0","345108","6148f6fb0d27af3991e8d01e","2","3","2888","","","","","","","","","<img src= ""rock_img/I_Pegmatite_06.jpg"" style=""width:8cm; height:5.17cm;""><p>What type of rock is this?</p>","0","class_response","0","test","42","Andesite","Pegmatite","06","false","1","6","",""
"","","","","","","","","","","","html-keyboard-response","90","2.0.0","345611","6148f6fb0d27af3991e8d01e","2","3","null","","","","","","","","","<p style='font-size: 30px;'><strong>Okay</strong></p>","null","neutral_feedback","0","test","42","","","","","","","",""
"","","","","","","","","","","","html-button-response","91","2.0.0","359484","6148f6fb0d27af3991e8d01e","2","3","13872","","","","","","","","","<img src= ""rock_img/I_Pegmatite_12.jpg"" style=""width:8cm; height:5.7cm;""><p>What type of rock is this?</p>","2","class_response","0","test","43","Diorite","Pegmatite","12","false","3","6","",""
"","","","","","","","","","","","html-keyboard-response","92","2.0.0","359999","6148f6fb0d27af3991e8d01e","2","3","null","","","","","","","","","<p style='font-size: 30px;'><strong>Okay</strong></p>","null","neutral_feedback","0","test","43","","","","","","","",""
"","","","","","","","","","","","html-button-response","93","2.0.0","361680","6148f6fb0d27af3991e8d01e","2","3","1679","","","","","","","","","<img src= ""rock_img/I_Pegmatite_13.jpg"" style=""width:8cm; height:4.95cm;""><p>What type of rock is this?</p>","5","class_response","0","test","44","Pegmatite","Pegmatite","13","true","6","6","",""
"","","","","","","","","","","","html-keyboard-response","94","2.0.0","362196","6148f6fb0d27af3991e8d01e","2","3","null","","","","","","","","","<p style='font-size: 30px;'><strong>Okay</strong></p>","null","neutral_feedback","0","test","44","","","","","","","",""
"","","","","","","","","","","","html-button-response","95","2.0.0","363731","6148f6fb0d27af3991e8d01e","2","3","1533","","","","","","","","","<img src= ""rock_img/I_Andesite_09.jpg"" style=""width:8cm; height:6cm;""><p>What type of rock is this?</p>","6","class_response","0","test","45","Peridotite","Andesite","09","false","7","1","",""
"","","","","","","","","","","","html-keyboard-response","96","2.0.0","364239","6148f6fb0d27af3991e8d01e","2","3","null","","","","","","","","","<p style='font-size: 30px;'><strong>Okay</strong></p>","null","neutral_feedback","0","test","45","","","","","","","",""
"","","","","","","","","","","","html-button-response","97","2.0.0","365808","6148f6fb0d27af3991e8d01e","2","3","1567","","","","","","","","","<img src= ""rock_img/I_Diorite_13.jpg"" style=""width:8cm; height:6.29cm;""><p>What type of rock is this?</p>","0","class_response","0","test","46","Andesite","Diorite","13","false","1","3","",""
"","","","","","","","","","","","html-keyboard-response","98","2.0.0","366315","6148f6fb0d27af3991e8d01e","2","3","null","","","","","","","","","<p style='font-size: 30px;'><strong>Okay</strong></p>","null","neutral_feedback","0","test","46","","","","","","","",""
"","","","","","","","","","","","html-button-response","99","2.0.0","367362","6148f6fb0d27af3991e8d01e","2","3","1045","","","","","","","","","<img src= ""rock_img/I_Pumice_13.jpg"" style=""width:8cm; height:8.200000000000001cm;""><p>What type of rock is this?</p>","3","class_response","0","test","47","Gabbro","Pumice","13","false","4","8","",""
"","","","","","","","","","","","html-keyboard-response","100","2.0.0","367865","6148f6fb0d27af3991e8d01e","2","3","null","","","","","","","","","<p style='font-size: 30px;'><strong>Okay</strong></p>","null","neutral_feedback","0","test","47","","","","","","","",""
"","","","","","","","","","","","html-button-response","101","2.0.0","368910","6148f6fb0d27af3991e8d01e","2","3","1043","","","","","","","","","<img src= ""rock_img/I_Diorite_14.jpg"" style=""width:8cm; height:5.71cm;""><p>What type of rock is this?</p>","5","class_response","0","test","48","Pegmatite","Diorite","14","false","6","3","",""
"","","","","","","","","","","","html-keyboard-response","102","2.0.0","369421","6148f6fb0d27af3991e8d01e","2","3","null","","","","","","","","","<p style='font-size: 30px;'><strong>Okay</strong></p>","null","neutral_feedback","0","test","48","","","","","","","",""
"","","","","","","","","","","","instructions","103","2.0.0","402640","6148f6fb0d27af3991e8d01e","2","3","33181","","","","","","","","[{""page_index"":0,""viewing_time"":22511},{""page_index"":1,""viewing_time"":8950},{""page_index"":2,""viewing_time"":1720}]","","","","","","","","","","","","","",""
"","","","","","","","","","","","html-button-response","104","2.0.0","404562","6148f6fb0d27af3991e8d01e","2","3","1920","","","","","","","","","","0","start_train","","","","","","","","","","",""
"","","","","","","","","","","","html-button-response","105","2.0.0","410864","6148f6fb0d27af3991e8d01e","2","3","6298","","","","","","","","","<img src= ""rock_img/I_Peridotite_02.jpg"" style=""width:8cm; height:5.859999999999999cm;""><p>What type of rock is this?</p>","3","class_response","1","train","1","Gabbro","Peridotite","02","false","4","7","",""
"","","","","","","","","","","","html-button-response","106","2.0.0","433878","6148f6fb0d27af3991e8d01e","2","3","23011","","","","","","","","","<img src= rock_img/I_Peridotite_02.jpg style=""width:8cm; height:5.859999999999999cm;""><p style='font-size: 30px; color: red;'><strong>Incorrect!</strong></p><p style='font-size: 30px;'><strong>This rock is peridotite</strong></p>","0","corr_feedback","1","train","1","","","","","","","",""
"","","","","","","","","","","","html-button-response","107","2.0.0","436472","6148f6fb0d27af3991e8d01e","2","3","2592","","","","","","","","","<img src= ""rock_img/I_Gabbro_08.jpg"" style=""width:8cm; height:5.15cm;""><p>What type of rock is this?</p>","1","class_response","1","train","2","Basalt","Gabbro","08","false","2","4","",""
"","","","","","","","","","","","html-button-response","108","2.0.0","439510","6148f6fb0d27af3991e8d01e","2","3","3036","","","","","","","","","<img src= rock_img/I_Gabbro_08.jpg style=""width:8cm; height:5.15cm;""><p style='font-size: 30px; color: red;'><strong>Incorrect!</strong></p><p style='font-size: 30px;'><strong>This rock is gabbro</strong></p>","0","corr_feedback","1","train","2","","","","","","","",""
"","","","","","","","","","","","html-button-response","109","2.0.0","441428","6148f6fb0d27af3991e8d01e","2","3","1916","","","","","","","","","<img src= ""rock_img/I_Gabbro_11.jpg"" style=""width:8cm; height:6.2cm;""><p>What type of rock is this?</p>","5","class_response","1","train","3","Pegmatite","Gabbro","11","false","6","4","",""
"","","","","","","","","","","","html-button-response","110","2.0.0","444508","6148f6fb0d27af3991e8d01e","2","3","3078","","","","","","","","","<img src= rock_img/I_Gabbro_11.jpg style=""width:8cm; height:6.2cm;""><p style='font-size: 30px; color: red;'><strong>Incorrect!</strong></p><p style='font-size: 30px;'><strong>This rock is gabbro</strong></p>","0","corr_feedback","1","train","3","","","","","","","",""
"","","","","","","","","","","","html-button-response","111","2.0.0","446910","6148f6fb0d27af3991e8d01e","2","3","2401","","","","","","","","","<img src= ""rock_img/I_Gabbro_08.jpg"" style=""width:8cm; height:5.15cm;""><p>What type of rock is this?</p>","3","class_response","1","train","4","Gabbro","Gabbro","08","true","4","4","",""
"","","","","","","","","","","","html-button-response","112","2.0.0","449428","6148f6fb0d27af3991e8d01e","2","3","2516","","","","","","","","","<img src= rock_img/I_Gabbro_08.jpg style=""width:8cm; height:5.15cm;""><p style='font-size: 30px; color: green;'><strong>Correct!</strong></p><p style='font-size: 30px;'><strong>This rock is gabbro</strong></p>","0","corr_feedback","1","train","4","","","","","","","",""
"","","","","","","","","","","","html-button-response","113","2.0.0","450612","6148f6fb0d27af3991e8d01e","2","3","1182","","","","","","","","","<img src= ""rock_img/I_Obsidian_09.jpg"" style=""width:8cm; height:5cm;""><p>What type of rock is this?</p>","4","class_response","1","train","5","Obsidian","Obsidian","09","true","5","5","",""
"","","","","","","","","","","","html-button-response","114","2.0.0","453084","6148f6fb0d27af3991e8d01e","2","3","2470","","","","","","","","","<img src= rock_img/I_Obsidian_09.jpg style=""width:8cm; height:5cm;""><p style='font-size: 30px; color: green;'><strong>Correct!</strong></p><p style='font-size: 30px;'><strong>This rock is obsidian</strong></p>","0","corr_feedback","1","train","5","","","","","","","",""
"","","","","","","","","","","","html-button-response","115","2.0.0","454898","6148f6fb0d27af3991e8d01e","2","3","1812","","","","","","","","","<img src= ""rock_img/I_Basalt_05.jpg"" style=""width:8cm; height:8.18cm;""><p>What type of rock is this?</p>","2","class_response","1","train","6","Diorite","Basalt","05","false","3","2","",""
"","","","","","","","","","","","html-button-response","116","2.0.0","457244","6148f6fb0d27af3991e8d01e","2","3","2344","","","","","","","","","<img src= rock_img/I_Basalt_05.jpg style=""width:8cm; height:8.18cm;""><p style='font-size: 30px; color: red;'><strong>Incorrect!</strong></p><p style='font-size: 30px;'><strong>This rock is basalt</strong></p>","0","corr_feedback","1","train","6","","","","","","","",""
"","","","","","","","","","","","html-button-response","117","2.0.0","463286","6148f6fb0d27af3991e8d01e","2","3","6040","","","","","","","","","<img src= ""rock_img/I_Andesite_03.jpg"" style=""width:8cm; height:5.73cm;""><p>What type of rock is this?</p>","1","class_response","1","train","7","Basalt","Andesite","03","false","2","1","",""
"","","","","","","","","","","","html-button-response","118","2.0.0","464166","6148f6fb0d27af3991e8d01e","2","3","878","","","","","","","","","<img src= rock_img/I_Andesite_03.jpg style=""width:8cm; height:5.73cm;""><p style='font-size: 30px; color: red;'><strong>Incorrect!</strong></p><p style='font-size: 30px;'><strong>This rock is andesite</strong></p>","0","corr_feedback","1","train","7","","","","","","","",""
"","","","","","","","","","","","html-button-response","119","2.0.0","466140","6148f6fb0d27af3991e8d01e","2","3","1972","","","","","","","","","<img src= ""rock_img/I_Pumice_15.jpg"" style=""width:8cm; height:7.86cm;""><p>What type of rock is this?</p>","5","class_response","1","train","8","Pegmatite","Pumice","15","false","6","8","",""
"","","","","","","","","","","","html-button-response","120","2.0.0","468264","6148f6fb0d27af3991e8d01e","2","3","2122","","","","","","","","","<img src= rock_img/I_Pumice_15.jpg style=""width:8cm; height:7.86cm;""><p style='font-size: 30px; color: red;'><strong>Incorrect!</strong></p><p style='font-size: 30px;'><strong>This rock is pumice</strong></p>","0","corr_feedback","1","train","8","","","","","","","",""
"","","","","","","","","","","","html-button-response","121","2.0.0","472194","6148f6fb0d27af3991e8d01e","2","3","3928","","","","","","","","","<img src= ""rock_img/I_Basalt_10.jpg"" style=""width:8cm; height:5.85cm;""><p>What type of rock is this?</p>","6","class_response","1","train","9","Peridotite","Basalt","10","false","7","2","",""
"","","","","","","","","","","","html-button-response","122","2.0.0","474124","6148f6fb0d27af3991e8d01e","2","3","1928","","","","","","","","","<img src= rock_img/I_Basalt_10.jpg style=""width:8cm; height:5.85cm;""><p style='font-size: 30px; color: red;'><strong>Incorrect!</strong></p><p style='font-size: 30px;'><strong>This rock is basalt</strong></p>","0","corr_feedback","1","train","9","","","","","","","",""
"","","","","","","","","","","","html-button-response","123","2.0.0","475353","6148f6fb0d27af3991e8d01e","2","3","1226","","","","","","","","","<img src= ""rock_img/I_Andesite_11.jpg"" style=""width:8cm; height:4.92cm;""><p>What type of rock is this?</p>","2","class_response","1","train","10","Diorite","Andesite","11","false","3","1","",""
"","","","","","","","","","","","html-button-response","124","2.0.0","478237","6148f6fb0d27af3991e8d01e","2","3","2882","","","","","","","","","<img src= rock_img/I_Andesite_11.jpg style=""width:8cm; height:4.92cm;""><p style='font-size: 30px; color: red;'><strong>Incorrect!</strong></p><p style='font-size: 30px;'><strong>This rock is andesite</strong></p>","0","corr_feedback","1","train","10","","","","","","","",""
"","","","","","","","","","","","html-button-response","125","2.0.0","480497","6148f6fb0d27af3991e8d01e","2","3","2258","","","","","","","","","<img src= ""rock_img/I_Peridotite_04.jpg"" style=""width:8cm; height:6.680000000000001cm;""><p>What type of rock is this?</p>","5","class_response","1","train","11","Pegmatite","Peridotite","04","false","6","7","",""
"","","","","","","","","","","","html-button-response","126","2.0.0","481382","6148f6fb0d27af3991e8d01e","2","3","884","","","","","","","","","<img src= rock_img/I_Peridotite_04.jpg style=""width:8cm; height:6.680000000000001cm;""><p style='font-size: 30px; color: red;'><strong>Incorrect!</strong></p><p style='font-size: 30px;'><strong>This rock is peridotite</strong></p>","0","corr_feedback","1","train","11","","","","","","","",""
"","","","","","","","","","","","html-button-response","127","2.0.0","483742","6148f6fb0d27af3991e8d01e","2","3","2358","","","","","","","","","<img src= ""rock_img/I_Pegmatite_03.jpg"" style=""width:8cm; height:5.239999999999999cm;""><p>What type of rock is this?</p>","6","class_response","1","train","12","Peridotite","Pegmatite","03","false","7","6","",""
"","","","","","","","","","","","html-button-response","128","2.0.0","485562","6148f6fb0d27af3991e8d01e","2","3","1818","","","","","","","","","<img src= rock_img/I_Pegmatite_03.jpg style=""width:8cm; height:5.239999999999999cm;""><p style='font-size: 30px; color: red;'><strong>Incorrect!</strong></p><p style='font-size: 30px;'><strong>This rock is pegmatite</strong></p>","0","corr_feedback","1","train","12","","","","","","","",""
"","","","","","","","","","","","html-button-response","129","2.0.0","487742","6148f6fb0d27af3991e8d01e","2","3","2178","","","","","","","","","<img src= ""rock_img/I_Diorite_15.jpg"" style=""width:8cm; height:5.54cm;""><p>What type of rock is this?</p>","7","class_response","1","train","13","Pumice","Diorite","15","false","8","3","",""
"","","","","","","","","","","","html-button-response","130","2.0.0","489928","6148f6fb0d27af3991e8d01e","2","3","2184","","","","","","","","","<img src= rock_img/I_Diorite_15.jpg style=""width:8cm; height:5.54cm;""><p style='font-size: 30px; color: red;'><strong>Incorrect!</strong></p><p style='font-size: 30px;'><strong>This rock is diorite</strong></p>","0","corr_feedback","1","train","13","","","","","","","",""
"","","","","","","","","","","","html-button-response","131","2.0.0","498938","6148f6fb0d27af3991e8d01e","2","3","9009","","","","","","","","","<img src= ""rock_img/I_Basalt_09.jpg"" style=""width:8cm; height:6.2cm;""><p>What type of rock is this?</p>","1","class_response","1","train","14","Basalt","Basalt","09","true","2","2","",""
"","","","","","","","","","","","html-button-response","132","2.0.0","499618","6148f6fb0d27af3991e8d01e","2","3","678","","","","","","","","","<img src= rock_img/I_Basalt_09.jpg style=""width:8cm; height:6.2cm;""><p style='font-size: 30px; color: green;'><strong>Correct!</strong></p><p style='font-size: 30px;'><strong>This rock is basalt</strong></p>","0","corr_feedback","1","train","14","","","","","","","",""
"","","","","","","","","","","","html-button-response","133","2.0.0","504319","6148f6fb0d27af3991e8d01e","2","3","4699","","","","","","","","","<img src= ""rock_img/I_Diorite_09.jpg"" style=""width:8cm; height:5.27cm;""><p>What type of rock is this?</p>","3","class_response","1","train","15","Gabbro","Diorite","09","false","4","3","",""
"","","","","","","","","","","","html-button-response","134","2.0.0","513582","6148f6fb0d27af3991e8d01e","2","3","9262","","","","","","","","","<img src= rock_img/I_Diorite_09.jpg style=""width:8cm; height:5.27cm;""><p style='font-size: 30px; color: red;'><strong>Incorrect!</strong></p><p style='font-size: 30px;'><strong>This rock is diorite</strong></p>","0","corr_feedback","1","train","15","","","","","","","",""
"","","","","","","","","","","","html-button-response","135","2.0.0","518754","6148f6fb0d27af3991e8d01e","2","3","5170","","","","","","","","","<img src= ""rock_img/I_Gabbro_01.jpg"" style=""width:8cm; height:5.21cm;""><p>What type of rock is this?</p>","0","class_response","1","train","16","Andesite","Gabbro","01","false","1","4","",""
"","","","","","","","","","","","html-button-response","136","2.0.0","525718","6148f6fb0d27af3991e8d01e","2","3","6963","","","","","","","","","<img src= rock_img/I_Gabbro_01.jpg style=""width:8cm; height:5.21cm;""><p style='font-size: 30px; color: red;'><strong>Incorrect!</strong></p><p style='font-size: 30px;'><strong>This rock is gabbro</strong></p>","0","corr_feedback","1","train","16","","","","","","","",""
"","","","","","","","","","","","html-button-response","137","2.0.0","529358","6148f6fb0d27af3991e8d01e","2","3","3638","","","","","","","","","<img src= ""rock_img/I_Basalt_04.jpg"" style=""width:8cm; height:7.53cm;""><p>What type of rock is this?</p>","1","class_response","1","train","17","Basalt","Basalt","04","true","2","2","",""
"","","","","","","","","","","","html-button-response","138","2.0.0","529970","6148f6fb0d27af3991e8d01e","2","3","611","","","","","","","","","<img src= rock_img/I_Basalt_04.jpg style=""width:8cm; height:7.53cm;""><p style='font-size: 30px; color: green;'><strong>Correct!</strong></p><p style='font-size: 30px;'><strong>This rock is basalt</strong></p>","0","corr_feedback","1","train","17","","","","","","","",""
"","","","","","","","","","","","html-button-response","139","2.0.0","533660","6148f6fb0d27af3991e8d01e","2","3","3688","","","","","","","","","<img src= ""rock_img/I_Pegmatite_11.jpg"" style=""width:8cm; height:8.14cm;""><p>What type of rock is this?</p>","4","class_response","1","train","18","Obsidian","Pegmatite","11","false","5","6","",""
"","","","","","","","","","","","html-button-response","140","2.0.0","541700","6148f6fb0d27af3991e8d01e","2","3","8038","","","","","","","","","<img src= rock_img/I_Pegmatite_11.jpg style=""width:8cm; height:8.14cm;""><p style='font-size: 30px; color: red;'><strong>Incorrect!</strong></p><p style='font-size: 30px;'><strong>This rock is pegmatite</strong></p>","0","corr_feedback","1","train","18","","","","","","","",""
"","","","","","","","","","","","html-button-response","141","2.0.0","548534","6148f6fb0d27af3991e8d01e","2","3","6833","","","","","","","","","<img src= ""rock_img/I_Gabbro_03.jpg"" style=""width:8cm; height:8.52cm;""><p>What type of rock is this?</p>","3","class_response","1","train","19","Gabbro","Gabbro","03","true","4","4","",""
"","","","","","","","","","","","html-button-response","142","2.0.0","549260","6148f6fb0d27af3991e8d01e","2","3","723","","","","","","","","","<img src= rock_img/I_Gabbro_03.jpg style=""width:8cm; height:8.52cm;""><p style='font-size: 30px; color: green;'><strong>Correct!</strong></p><p style='font-size: 30px;'><strong>This rock is gabbro</strong></p>","0","corr_feedback","1","train","19","","","","","","","",""
"","","","","","","","","","","","html-button-response","143","2.0.0","551128","6148f6fb0d27af3991e8d01e","2","3","1867","","","","","","","","","<img src= ""rock_img/I_Pegmatite_08.jpg"" style=""width:8cm; height:7.68cm;""><p>What type of rock is this?</p>","5","class_response","1","train","20","Pegmatite","Pegmatite","08","true","6","6","",""
"","","","","","","","","","","","html-button-response","144","2.0.0","551842","6148f6fb0d27af3991e8d01e","2","3","713","","","","","","","","","<img src= rock_img/I_Pegmatite_08.jpg style=""width:8cm; height:7.68cm;""><p style='font-size: 30px; color: green;'><strong>Correct!</strong></p><p style='font-size: 30px;'><strong>This rock is pegmatite</strong></p>","0","corr_feedback","1","train","20","","","","","","","",""
"","","","","","","","","","","","html-button-response","145","2.0.0","554593","6148f6fb0d27af3991e8d01e","2","3","2748","","","","","","","","","<img src= ""rock_img/I_Andesite_14.jpg"" style=""width:8cm; height:5.449999999999999cm;""><p>What type of rock is this?</p>","3","class_response","1","train","21","Gabbro","Andesite","14","false","4","1","",""
"","","","","","","","","","","","html-button-response","146","2.0.0","555348","6148f6fb0d27af3991e8d01e","2","3","753","","","","","","","","","<img src= rock_img/I_Andesite_14.jpg style=""width:8cm; height:5.449999999999999cm;""><p style='font-size: 30px; color: red;'><strong>Incorrect!</strong></p><p style='font-size: 30px;'><strong>This rock is andesite</strong></p>","0","corr_feedback","1","train","21","","","","","","","",""
"","","","","","","","","","","","html-button-response","147","2.0.0","557324","6148f6fb0d27af3991e8d01e","2","3","1974","","","","","","","","","<img src= ""rock_img/I_Pumice_10.jpg"" style=""width:8cm; height:7.609999999999999cm;""><p>What type of rock is this?</p>","6","class_response","1","train","22","Peridotite","Pumice","10","false","7","8","",""
"","","","","","","","","","","","html-button-response","148","2.0.0","562538","6148f6fb0d27af3991e8d01e","2","3","5212","","","","","","","","","<img src= rock_img/I_Pumice_10.jpg style=""width:8cm; height:7.609999999999999cm;""><p style='font-size: 30px; color: red;'><strong>Incorrect!</strong></p><p style='font-size: 30px;'><strong>This rock is pumice</strong></p>","0","corr_feedback","1","train","22","","","","","","","",""
"","","","","","","","","","","","html-button-response","149","2.0.0","564298","6148f6fb0d27af3991e8d01e","2","3","1758","","","","","","","","","<img src= ""rock_img/I_Basalt_01.jpg"" style=""width:8cm; height:7.880000000000001cm;""><p>What type of rock is this?</p>","1","class_response","1","train","23","Basalt","Basalt","01","true","2","2","",""
"","","","","","","","","","","","html-button-response","150","2.0.0","564996","6148f6fb0d27af3991e8d01e","2","3","696","","","","","","","","","<img src= rock_img/I_Basalt_01.jpg style=""width:8cm; height:7.880000000000001cm;""><p style='font-size: 30px; color: green;'><strong>Correct!</strong></p><p style='font-size: 30px;'><strong>This rock is basalt</strong></p>","0","corr_feedback","1","train","23","","","","","","","",""
"","","","","","","","","","","","html-button-response","151","2.0.0","567104","6148f6fb0d27af3991e8d01e","2","3","2106","","","","","","","","","<img src= ""rock_img/I_Pumice_02.jpg"" style=""width:8cm; height:7.3999999999999995cm;""><p>What type of rock is this?</p>","7","class_response","1","train","24","Pumice","Pumice","02","true","8","8","",""
"","","","","","","","","","","","html-button-response","152","2.0.0","567796","6148f6fb0d27af3991e8d01e","2","3","689","","","","","","","","","<img src= rock_img/I_Pumice_02.jpg style=""width:8cm; height:7.3999999999999995cm;""><p style='font-size: 30px; color: green;'><strong>Correct!</strong></p><p style='font-size: 30px;'><strong>This rock is pumice</strong></p>","0","corr_feedback","1","train","24","","","","","","","",""
"","","","","","","","","","","","html-button-response","153","2.0.0","574827","6148f6fb0d27af3991e8d01e","2","3","7028","","","","","","","","","<img src= ""rock_img/I_Diorite_12.jpg"" style=""width:8cm; height:4.88cm;""><p>What type of rock is this?</p>","3","class_response","1","train","25","Gabbro","Diorite","12","false","4","3","",""
"","","","","","","","","","","","html-button-response","154","2.0.0","586472","6148f6fb0d27af3991e8d01e","2","3","11644","","","","","","","","","<img src= rock_img/I_Diorite_12.jpg style=""width:8cm; height:4.88cm;""><p style='font-size: 30px; color: red;'><strong>Incorrect!</strong></p><p style='font-size: 30px;'><strong>This rock is diorite</strong></p>","0","corr_feedback","1","train","25","","","","","","","",""
"","","","","","","","","","","","html-button-response","155","2.0.0","588508","6148f6fb0d27af3991e8d01e","2","3","2034","","","","","","","","","<img src= ""rock_img/I_Basalt_16.jpg"" style=""width:8cm; height:7.659999999999999cm;""><p>What type of rock is this?</p>","1","class_response","1","train","26","Basalt","Basalt","16","true","2","2","",""
"","","","","","","","","","","","html-button-response","156","2.0.0","589196","6148f6fb0d27af3991e8d01e","2","3","685","","","","","","","","","<img src= rock_img/I_Basalt_16.jpg style=""width:8cm; height:7.659999999999999cm;""><p style='font-size: 30px; color: green;'><strong>Correct!</strong></p><p style='font-size: 30px;'><strong>This rock is basalt</strong></p>","0","corr_feedback","1","train","26","","","","","","","",""
"","","","","","","","","","","","html-button-response","157","2.0.0","596197","6148f6fb0d27af3991e8d01e","2","3","6998","","","","","","","","","<img src= ""rock_img/I_Diorite_08.jpg"" style=""width:8cm; height:6.37cm;""><p>What type of rock is this?</p>","2","class_response","1","train","27","Diorite","Diorite","08","true","3","3","",""
"","","","","","","","","","","","html-button-response","158","2.0.0","596863","6148f6fb0d27af3991e8d01e","2","3","664","","","","","","","","","<img src= rock_img/I_Diorite_08.jpg style=""width:8cm; height:6.37cm;""><p style='font-size: 30px; color: green;'><strong>Correct!</strong></p><p style='font-size: 30px;'><strong>This rock is diorite</strong></p>","0","corr_feedback","1","train","27","","","","","","","",""
"","","","","","","","","","","","html-button-response","159","2.0.0","614246","6148f6fb0d27af3991e8d01e","2","3","17382","","","","","","","","","<img src= ""rock_img/I_Peridotite_05.jpg"" style=""width:8cm; height:7.1499999999999995cm;""><p>What type of rock is this?</p>","6","class_response","1","train","28","Peridotite","Peridotite","05","true","7","7","",""
"","","","","","","","","","","","html-button-response","160","2.0.0","616280","6148f6fb0d27af3991e8d01e","2","3","2033","","","","","","","","","<img src= rock_img/I_Peridotite_05.jpg style=""width:8cm; height:7.1499999999999995cm;""><p style='font-size: 30px; color: green;'><strong>Correct!</strong></p><p style='font-size: 30px;'><strong>This rock is peridotite</strong></p>","0","corr_feedback","1","train","28","","","","","","","",""
"","","","","","","","","","","","html-button-response","161","2.0.0","626369","6148f6fb0d27af3991e8d01e","2","3","10086","","","","","","","","","<img src= ""rock_img/I_Pegmatite_09.jpg"" style=""width:8cm; height:4.03cm;""><p>What type of rock is this?</p>","5","class_response","1","train","29","Pegmatite","Pegmatite","09","true","6","6","",""
"","","","","","","","","","","","html-button-response","162","2.0.0","627052","6148f6fb0d27af3991e8d01e","2","3","682","","","","","","","","","<img src= rock_img/I_Pegmatite_09.jpg style=""width:8cm; height:4.03cm;""><p style='font-size: 30px; color: green;'><strong>Correct!</strong></p><p style='font-size: 30px;'><strong>This rock is pegmatite</strong></p>","0","corr_feedback","1","train","29","","","","","","","",""
"","","","","","","","","","","","html-button-response","163","2.0.0","630292","6148f6fb0d27af3991e8d01e","2","3","3239","","","","","","","","","<img src= ""rock_img/I_Andesite_01.jpg"" style=""width:8cm; height:5.87cm;""><p>What type of rock is this?</p>","1","class_response","1","train","30","Basalt","Andesite","01","false","2","1","",""
"","","","","","","","","","","","html-button-response","164","2.0.0","647644","6148f6fb0d27af3991e8d01e","2","3","17350","","","","","","","","","<img src= rock_img/I_Andesite_01.jpg style=""width:8cm; height:5.87cm;""><p style='font-size: 30px; color: red;'><strong>Incorrect!</strong></p><p style='font-size: 30px;'><strong>This rock is andesite</strong></p>","0","corr_feedback","1","train","30","","","","","","","",""
"","","","","","","","","","","","html-button-response","165","2.0.0","650346","6148f6fb0d27af3991e8d01e","2","3","2701","","","","","","","","","<img src= ""rock_img/I_Andesite_10.jpg"" style=""width:8cm; height:4.16cm;""><p>What type of rock is this?</p>","2","class_response","1","train","31","Diorite","Andesite","10","false","3","1","",""
"","","","","","","","","","","","html-button-response","166","2.0.0","651102","6148f6fb0d27af3991e8d01e","2","3","755","","","","","","","","","<img src= rock_img/I_Andesite_10.jpg style=""width:8cm; height:4.16cm;""><p style='font-size: 30px; color: red;'><strong>Incorrect!</strong></p><p style='font-size: 30px;'><strong>This rock is andesite</strong></p>","0","corr_feedback","1","train","31","","","","","","","",""
"","","","","","","","","","","","html-button-response","167","2.0.0","654450","6148f6fb0d27af3991e8d01e","2","3","3347","","","","","","","","","<img src= ""rock_img/I_Peridotite_06.jpg"" style=""width:8cm; height:7.53cm;""><p>What type of rock is this?</p>","5","class_response","1","train","32","Pegmatite","Peridotite","06","false","6","7","",""
"","","","","","","","","","","","html-button-response","168","2.0.0","655424","6148f6fb0d27af3991e8d01e","2","3","972","","","","","","","","","<img src= rock_img/I_Peridotite_06.jpg style=""width:8cm; height:7.53cm;""><p style='font-size: 30px; color: red;'><strong>Incorrect!</strong></p><p style='font-size: 30px;'><strong>This rock is peridotite</strong></p>","0","corr_feedback","1","train","32","","","","","","","",""
"","","","","","","","","","","","html-button-response","169","2.0.0","660616","6148f6fb0d27af3991e8d01e","2","3","5190","","","","","","","","","<img src= ""rock_img/I_Andesite_07.jpg"" style=""width:8cm; height:5.93cm;""><p>What type of rock is this?</p>","2","class_response","1","train","33","Diorite","Andesite","07","false","3","1","",""
"","","","","","","","","","","","html-button-response","170","2.0.0","661450","6148f6fb0d27af3991e8d01e","2","3","832","","","","","","","","","<img src= rock_img/I_Andesite_07.jpg style=""width:8cm; height:5.93cm;""><p style='font-size: 30px; color: red;'><strong>Incorrect!</strong></p><p style='font-size: 30px;'><strong>This rock is andesite</strong></p>","0","corr_feedback","1","train","33","","","","","","","",""
"","","","","","","","","","","","html-button-response","171","2.0.0","663854","6148f6fb0d27af3991e8d01e","2","3","2402","","","","","","","","","<img src= ""rock_img/I_Peridotite_14.jpg"" style=""width:8cm; height:5.3cm;""><p>What type of rock is this?</p>","4","class_response","1","train","34","Obsidian","Peridotite","14","false","5","7","",""
"","","","","","","","","","","","html-button-response","172","2.0.0","664498","6148f6fb0d27af3991e8d01e","2","3","642","","","","","","","","","<img src= rock_img/I_Peridotite_14.jpg style=""width:8cm; height:5.3cm;""><p style='font-size: 30px; color: red;'><strong>Incorrect!</strong></p><p style='font-size: 30px;'><strong>This rock is peridotite</strong></p>","0","corr_feedback","1","train","34","","","","","","","",""
"","","","","","","","","","","","html-button-response","173","2.0.0","665972","6148f6fb0d27af3991e8d01e","2","3","1473","","","","","","","","","<img src= ""rock_img/I_Pegmatite_05.jpg"" style=""width:8cm; height:7.300000000000001cm;""><p>What type of rock is this?</p>","4","class_response","1","train","35","Obsidian","Pegmatite","05","false","5","6","",""
"","","","","","","","","","","","html-button-response","174","2.0.0","666706","6148f6fb0d27af3991e8d01e","2","3","732","","","","","","","","","<img src= rock_img/I_Pegmatite_05.jpg style=""width:8cm; height:7.300000000000001cm;""><p style='font-size: 30px; color: red;'><strong>Incorrect!</strong></p><p style='font-size: 30px;'><strong>This rock is pegmatite</strong></p>","0","corr_feedback","1","train","35","","","","","","","",""
"","","","","","","","","","","","html-button-response","175","2.0.0","672674","6148f6fb0d27af3991e8d01e","2","3","5966","","","","","","","","","<img src= ""rock_img/I_Pumice_03.jpg"" style=""width:8cm; height:6.64cm;""><p>What type of rock is this?</p>","7","class_response","1","train","36","Pumice","Pumice","03","true","8","8","",""
"","","","","","","","","","","","html-button-response","176","2.0.0","673314","6148f6fb0d27af3991e8d01e","2","3","638","","","","","","","","","<img src= rock_img/I_Pumice_03.jpg style=""width:8cm; height:6.64cm;""><p style='font-size: 30px; color: green;'><strong>Correct!</strong></p><p style='font-size: 30px;'><strong>This rock is pumice</strong></p>","0","corr_feedback","1","train","36","","","","","","","",""
"","","","","","","","","","","","html-button-response","177","2.0.0","676000","6148f6fb0d27af3991e8d01e","2","3","2685","","","","","","","","","<img src= ""rock_img/I_Gabbro_09.jpg"" style=""width:8cm; height:7.279999999999999cm;""><p>What type of rock is this?</p>","1","class_response","1","train","37","Basalt","Gabbro","09","false","2","4","",""
"","","","","","","","","","","","html-button-response","178","2.0.0","676908","6148f6fb0d27af3991e8d01e","2","3","906","","","","","","","","","<img src= rock_img/I_Gabbro_09.jpg style=""width:8cm; height:7.279999999999999cm;""><p style='font-size: 30px; color: red;'><strong>Incorrect!</strong></p><p style='font-size: 30px;'><strong>This rock is gabbro</strong></p>","0","corr_feedback","1","train","37","","","","","","","",""
"","","","","","","","","","","","html-button-response","179","2.0.0","688570","6148f6fb0d27af3991e8d01e","2","3","11661","","","","","","","","","<img src= ""rock_img/I_Pegmatite_07.jpg"" style=""width:8cm; height:6.7cm;""><p>What type of rock is this?</p>","6","class_response","1","train","38","Peridotite","Pegmatite","07","false","7","6","",""
"","","","","","","","","","","","html-button-response","180","2.0.0","689264","6148f6fb0d27af3991e8d01e","2","3","692","","","","","","","","","<img src= rock_img/I_Pegmatite_07.jpg style=""width:8cm; height:6.7cm;""><p style='font-size: 30px; color: red;'><strong>Incorrect!</strong></p><p style='font-size: 30px;'><strong>This rock is pegmatite</strong></p>","0","corr_feedback","1","train","38","","","","","","","",""
"","","","","","","","","","","","html-button-response","181","2.0.0","691358","6148f6fb0d27af3991e8d01e","2","3","2092","","","","","","","","","<img src= ""rock_img/I_Gabbro_14.jpg"" style=""width:8cm; height:8.48cm;""><p>What type of rock is this?</p>","1","class_response","1","train","39","Basalt","Gabbro","14","false","2","4","",""
"","","","","","","","","","","","html-button-response","182","2.0.0","691982","6148f6fb0d27af3991e8d01e","2","3","622","","","","","","","","","<img src= rock_img/I_Gabbro_14.jpg style=""width:8cm; height:8.48cm;""><p style='font-size: 30px; color: red;'><strong>Incorrect!</strong></p><p style='font-size: 30px;'><strong>This rock is gabbro</strong></p>","0","corr_feedback","1","train","39","","","","","","","",""
"","","","","","","","","","","","html-button-response","183","2.0.0","694283","6148f6fb0d27af3991e8d01e","2","3","2299","","","","","","","","","<img src= ""rock_img/I_Pumice_14.jpg"" style=""width:8cm; height:6.39cm;""><p>What type of rock is this?</p>","7","class_response","1","train","40","Pumice","Pumice","14","true","8","8","",""
"","","","","","","","","","","","html-button-response","184","2.0.0","694886","6148f6fb0d27af3991e8d01e","2","3","602","","","","","","","","","<img src= rock_img/I_Pumice_14.jpg style=""width:8cm; height:6.39cm;""><p style='font-size: 30px; color: green;'><strong>Correct!</strong></p><p style='font-size: 30px;'><strong>This rock is pumice</strong></p>","0","corr_feedback","1","train","40","","","","","","","",""
"","","","","","","","","","","","html-button-response","185","2.0.0","697540","6148f6fb0d27af3991e8d01e","2","3","2652","","","","","","","","","<img src= ""rock_img/I_Andesite_11.jpg"" style=""width:8cm; height:4.92cm;""><p>What type of rock is this?</p>","6","class_response","1","train","41","Peridotite","Andesite","11","false","7","1","",""
"","","","","","","","","","","","html-button-response","186","2.0.0","698270","6148f6fb0d27af3991e8d01e","2","3","728","","","","","","","","","<img src= rock_img/I_Andesite_11.jpg style=""width:8cm; height:4.92cm;""><p style='font-size: 30px; color: red;'><strong>Incorrect!</strong></p><p style='font-size: 30px;'><strong>This rock is andesite</strong></p>","0","corr_feedback","1","train","41","","","","","","","",""
"","","","","","","","","","","","html-button-response","187","2.0.0","704008","6148f6fb0d27af3991e8d01e","2","3","5736","","","","","","","","","<img src= ""rock_img/I_Peridotite_16.jpg"" style=""width:8cm; height:6.989999999999999cm;""><p>What type of rock is this?</p>","3","class_response","1","train","42","Gabbro","Peridotite","16","false","4","7","",""
"","","","","","","","","","","","html-button-response","188","2.0.0","705116","6148f6fb0d27af3991e8d01e","2","3","1106","","","","","","","","","<img src= rock_img/I_Peridotite_16.jpg style=""width:8cm; height:6.989999999999999cm;""><p style='font-size: 30px; color: red;'><strong>Incorrect!</strong></p><p style='font-size: 30px;'><strong>This rock is peridotite</strong></p>","0","corr_feedback","1","train","42","","","","","","","",""
"","","","","","","","","","","","html-button-response","189","2.0.0","706821","6148f6fb0d27af3991e8d01e","2","3","1703","","","","","","","","","<img src= ""rock_img/I_Andesite_07.jpg"" style=""width:8cm; height:5.93cm;""><p>What type of rock is this?</p>","3","class_response","1","train","43","Gabbro","Andesite","07","false","4","1","",""
"","","","","","","","","","","","html-button-response","190","2.0.0","707449","6148f6fb0d27af3991e8d01e","2","3","626","","","","","","","","","<img src= rock_img/I_Andesite_07.jpg style=""width:8cm; height:5.93cm;""><p style='font-size: 30px; color: red;'><strong>Incorrect!</strong></p><p style='font-size: 30px;'><strong>This rock is andesite</strong></p>","0","corr_feedback","1","train","43","","","","","","","",""
"","","","","","","","","","","","html-button-response","191","2.0.0","709784","6148f6fb0d27af3991e8d01e","2","3","2334","","","","","","","","","<img src= ""rock_img/I_Diorite_06.jpg"" style=""width:8cm; height:6.03cm;""><p>What type of rock is this?</p>","3","class_response","1","train","44","Gabbro","Diorite","06","false","4","3","",""
"","","","","","","","","","","","html-button-response","192","2.0.0","710442","6148f6fb0d27af3991e8d01e","2","3","656","","","","","","","","","<img src= rock_img/I_Diorite_06.jpg style=""width:8cm; height:6.03cm;""><p style='font-size: 30px; color: red;'><strong>Incorrect!</strong></p><p style='font-size: 30px;'><strong>This rock is diorite</strong></p>","0","corr_feedback","1","train","44","","","","","","","",""
"","","","","","","","","","","","html-button-response","193","2.0.0","711904","6148f6fb0d27af3991e8d01e","2","3","1460","","","","","","","","","<img src= ""rock_img/I_Pumice_10.jpg"" style=""width:8cm; height:7.609999999999999cm;""><p>What type of rock is this?</p>","7","class_response","1","train","45","Pumice","Pumice","10","true","8","8","",""
"","","","","","","","","","","","html-button-response","194","2.0.0","712430","6148f6fb0d27af3991e8d01e","2","3","524","","","","","","","","","<img src= rock_img/I_Pumice_10.jpg style=""width:8cm; height:7.609999999999999cm;""><p style='font-size: 30px; color: green;'><strong>Correct!</strong></p><p style='font-size: 30px;'><strong>This rock is pumice</strong></p>","0","corr_feedback","1","train","45","","","","","","","",""
"","","","","","","","","","","","html-button-response","195","2.0.0","713796","6148f6fb0d27af3991e8d01e","2","3","1364","","","","","","","","","<img src= ""rock_img/I_Basalt_01.jpg"" style=""width:8cm; height:7.880000000000001cm;""><p>What type of rock is this?</p>","1","class_response","1","train","46","Basalt","Basalt","01","true","2","2","",""
"","","","","","","","","","","","html-button-response","196","2.0.0","714372","6148f6fb0d27af3991e8d01e","2","3","574","","","","","","","","","<img src= rock_img/I_Basalt_01.jpg style=""width:8cm; height:7.880000000000001cm;""><p style='font-size: 30px; color: green;'><strong>Correct!</strong></p><p style='font-size: 30px;'><strong>This rock is basalt</strong></p>","0","corr_feedback","1","train","46","","","","","","","",""
"","","","","","","","","","","","html-button-response","197","2.0.0","718103","6148f6fb0d27af3991e8d01e","2","3","3728","","","","","","","","","<img src= ""rock_img/I_Pegmatite_09.jpg"" style=""width:8cm; height:4.03cm;""><p>What type of rock is this?</p>","6","class_response","1","train","47","Peridotite","Pegmatite","09","false","7","6","",""
"","","","","","","","","","","","html-button-response","198","2.0.0","720184","6148f6fb0d27af3991e8d01e","2","3","2079","","","","","","","","","<img src= rock_img/I_Pegmatite_09.jpg style=""width:8cm; height:4.03cm;""><p style='font-size: 30px; color: red;'><strong>Incorrect!</strong></p><p style='font-size: 30px;'><strong>This rock is pegmatite</strong></p>","0","corr_feedback","1","train","47","","","","","","","",""
"","","","","","","","","","","","html-button-response","199","2.0.0","721880","6148f6fb0d27af3991e8d01e","2","3","1694","","","","","","","","","<img src= ""rock_img/I_Pumice_06.jpg"" style=""width:8cm; height:6.9399999999999995cm;""><p>What type of rock is this?</p>","7","class_response","1","train","48","Pumice","Pumice","06","true","8","8","",""
"","","","","","","","","","","","html-button-response","200","2.0.0","722400","6148f6fb0d27af3991e8d01e","2","3","519","","","","","","","","","<img src= rock_img/I_Pumice_06.jpg style=""width:8cm; height:6.9399999999999995cm;""><p style='font-size: 30px; color: green;'><strong>Correct!</strong></p><p style='font-size: 30px;'><strong>This rock is pumice</strong></p>","0","corr_feedback","1","train","48","","","","","","","",""
"","","","","","","","","","","","instructions","203","2.0.0","743878","6148f6fb0d27af3991e8d01e","2","3","21476","","","","","","","","[{""page_index"":0,""viewing_time"":7876},{""page_index"":1,""viewing_time"":13600}]","","","","","","","","","","","","","",""
"","","","","","","","","","","","html-button-response","204","2.0.0","745380","6148f6fb0d27af3991e8d01e","2","3","1500","","","","","","","","","","0","start_test","","","","","","","","","","",""
"","","","","","","","","","","","html-button-response","205","2.0.0","747532","6148f6fb0d27af3991e8d01e","2","3","2150","","","","","","","","","<img src= ""rock_img/I_Obsidian_05.jpg"" style=""width:8cm; height:6.33cm;""><p>What type of rock is this?</p>","4","class_response","1","test","1","Obsidian","Obsidian","05","true","5","5","",""
"","","","","","","","","","","","html-keyboard-response","206","2.0.0","748045","6148f6fb0d27af3991e8d01e","2","3","null","","","","","","","","","<p style='font-size: 30px;'><strong>Okay</strong></p>","null","neutral_feedback","1","test","1","","","","","","","",""
"","","","","","","","","","","","html-button-response","207","2.0.0","749186","6148f6fb0d27af3991e8d01e","2","3","1139","","","","","","","","","<img src= ""rock_img/I_Obsidian_12.jpg"" style=""width:8cm; height:6.53cm;""><p>What type of rock is this?</p>","4","class_response","1","test","2","Obsidian","Obsidian","12","true","5","5","",""
"","","","","","","","","","","","html-keyboard-response","208","2.0.0","749690","6148f6fb0d27af3991e8d01e","2","3","null","","","","","","","","","<p style='font-size: 30px;'><strong>Okay</strong></p>","null","neutral_feedback","1","test","2","","","","","","","",""
"","","","","","","","","","","","html-button-response","209","2.0.0","763036","6148f6fb0d27af3991e8d01e","2","3","13344","","","","","","","","","<img src= ""rock_img/I_Diorite_14.jpg"" style=""width:8cm; height:5.71cm;""><p>What type of rock is this?</p>","2","class_response","1","test","3","Diorite","Diorite","14","true","3","3","",""
"","","","","","","","","","","","html-keyboard-response","210","2.0.0","763553","6148f6fb0d27af3991e8d01e","2","3","null","","","","","","","","","<p style='font-size: 30px;'><strong>Okay</strong></p>","null","neutral_feedback","1","test","3","","","","","","","",""
"","","","","","","","","","","","html-button-response","211","2.0.0","764740","6148f6fb0d27af3991e8d01e","2","3","1185","","","","","","","","","<img src= ""rock_img/I_Obsidian_04.jpg"" style=""width:8cm; height:6.930000000000001cm;""><p>What type of rock is this?</p>","4","class_response","1","test","4","Obsidian","Obsidian","04","true","5","5","",""
"","","","","","","","","","","","html-keyboard-response","212","2.0.0","765245","6148f6fb0d27af3991e8d01e","2","3","null","","","","","","","","","<p style='font-size: 30px;'><strong>Okay</strong></p>","null","neutral_feedback","1","test","4","","","","","","","",""
"","","","","","","","","","","","html-button-response","213","2.0.0","767134","6148f6fb0d27af3991e8d01e","2","3","1885","","","","","","","","","<img src= ""rock_img/I_Obsidian_07.jpg"" style=""width:8cm; height:4.76cm;""><p>What type of rock is this?</p>","4","class_response","1","test","5","Obsidian","Obsidian","07","true","5","5","",""
"","","","","","","","","","","","html-keyboard-response","214","2.0.0","767643","6148f6fb0d27af3991e8d01e","2","3","null","","","","","","","","","<p style='font-size: 30px;'><strong>Okay</strong></p>","null","neutral_feedback","1","test","5","","","","","","","",""
"","","","","","","","","","","","html-button-response","215","2.0.0","770120","6148f6fb0d27af3991e8d01e","2","3","2475","","","","","","","","","<img src= ""rock_img/I_Pegmatite_12.jpg"" style=""width:8cm; height:5.7cm;""><p>What type of rock is this?</p>","5","class_response","1","test","6","Pegmatite","Pegmatite","12","true","6","6","",""
"","","","","","","","","","","","html-keyboard-response","216","2.0.0","770630","6148f6fb0d27af3991e8d01e","2","3","null","","","","","","","","","<p style='font-size: 30px;'><strong>Okay</strong></p>","null","neutral_feedback","1","test","6","","","","","","","",""
"","","","","","","","","","","","html-button-response","217","2.0.0","782628","6148f6fb0d27af3991e8d01e","2","3","11996","","","","","","","","","<img src= ""rock_img/I_Gabbro_05.jpg"" style=""width:8cm; height:6cm;""><p>What type of rock is this?</p>","3","class_response","1","test","7","Gabbro","Gabbro","05","true","4","4","",""
"","","","","","","","","","","","html-keyboard-response","218","2.0.0","783129","6148f6fb0d27af3991e8d01e","2","3","null","","","","","","","","","<p style='font-size: 30px;'><strong>Okay</strong></p>","null","neutral_feedback","1","test","7","","","","","","","",""
"","","","","","","","","","","","html-button-response","219","2.0.0","798912","6148f6fb0d27af3991e8d01e","2","3","15781","","","","","","","","","<img src= ""rock_img/I_Pegmatite_15.jpg"" style=""width:8cm; height:6cm;""><p>What type of rock is this?</p>","5","class_response","1","test","8","Pegmatite","Pegmatite","15","true","6","6","",""
"","","","","","","","","","","","html-keyboard-response","220","2.0.0","799414","6148f6fb0d27af3991e8d01e","2","3","null","","","","","","","","","<p style='font-size: 30px;'><strong>Okay</strong></p>","null","neutral_feedback","1","test","8","","","","","","","",""
"","","","","","","","","","","","html-button-response","221","2.0.0","804459","6148f6fb0d27af3991e8d01e","2","3","5043","","","","","","","","","<img src= ""rock_img/I_Pegmatite_06.jpg"" style=""width:8cm; height:5.17cm;""><p>What type of rock is this?</p>","0","class_response","1","test","9","Andesite","Pegmatite","06","false","1","6","",""
"","","","","","","","","","","","html-keyboard-response","222","2.0.0","804961","6148f6fb0d27af3991e8d01e","2","3","null","","","","","","","","","<p style='font-size: 30px;'><strong>Okay</strong></p>","null","neutral_feedback","1","test","9","","","","","","","",""
"","","","","","","","","","","","html-button-response","223","2.0.0","823516","6148f6fb0d27af3991e8d01e","2","3","18553","","","","","","","","","<img src= ""rock_img/I_Diorite_13.jpg"" style=""width:8cm; height:6.29cm;""><p>What type of rock is this?</p>","2","class_response","1","test","10","Diorite","Diorite","13","true","3","3","",""
"","","","","","","","","","","","html-keyboard-response","224","2.0.0","824021","6148f6fb0d27af3991e8d01e","2","3","null","","","","","","","","","<p style='font-size: 30px;'><strong>Okay</strong></p>","null","neutral_feedback","1","test","10","","","","","","","",""
"","","","","","","","","","","","html-button-response","225","2.0.0","829978","6148f6fb0d27af3991e8d01e","2","3","5954","","","","","","","","","<img src= ""rock_img/I_Diorite_11.jpg"" style=""width:8cm; height:7.11cm;""><p>What type of rock is this?</p>","6","class_response","1","test","11","Peridotite","Diorite","11","false","7","3","",""
"","","","","","","","","","","","html-keyboard-response","226","2.0.0","830495","6148f6fb0d27af3991e8d01e","2","3","null","","","","","","","","","<p style='font-size: 30px;'><strong>Okay</strong></p>","null","neutral_feedback","1","test","11","","","","","","","",""
"","","","","","","","","","","","html-button-response","227","2.0.0","834801","6148f6fb0d27af3991e8d01e","2","3","4303","","","","","","","","","<img src= ""rock_img/I_Pegmatite_10.jpg"" style=""width:8cm; height:4.16cm;""><p>What type of rock is this?</p>","5","class_response","1","test","12","Pegmatite","Pegmatite","10","true","6","6","",""
"","","","","","","","","","","","html-keyboard-response","228","2.0.0","835305","6148f6fb0d27af3991e8d01e","2","3","null","","","","","","","","","<p style='font-size: 30px;'><strong>Okay</strong></p>","null","neutral_feedback","1","test","12","","","","","","","",""
"","","","","","","","","","","","html-button-response","229","2.0.0","836672","6148f6fb0d27af3991e8d01e","2","3","1365","","","","","","","","","<img src= ""rock_img/I_Peridotite_12.jpg"" style=""width:8cm; height:4.54cm;""><p>What type of rock is this?</p>","5","class_response","1","test","13","Pegmatite","Peridotite","12","false","6","7","",""
"","","","","","","","","","","","html-keyboard-response","230","2.0.0","837180","6148f6fb0d27af3991e8d01e","2","3","null","","","","","","","","","<p style='font-size: 30px;'><strong>Okay</strong></p>","null","neutral_feedback","1","test","13","","","","","","","",""
"","","","","","","","","","","","html-button-response","231","2.0.0","838600","6148f6fb0d27af3991e8d01e","2","3","1419","","","","","","","","","<img src= ""rock_img/I_Pumice_09.jpg"" style=""width:8cm; height:6.44cm;""><p>What type of rock is this?</p>","7","class_response","1","test","14","Pumice","Pumice","09","true","8","8","",""
"","","","","","","","","","","","html-keyboard-response","232","2.0.0","839104","6148f6fb0d27af3991e8d01e","2","3","null","","","","","","","","","<p style='font-size: 30px;'><strong>Okay</strong></p>","null","neutral_feedback","1","test","14","","","","","","","",""
"","","","","","","","","","","","html-button-response","233","2.0.0","840650","6148f6fb0d27af3991e8d01e","2","3","1545","","","","","","","","","<img src= ""rock_img/I_Obsidian_10.jpg"" style=""width:8cm; height:6.260000000000001cm;""><p>What type of rock is this?</p>","4","class_response","1","test","15","Obsidian","Obsidian","10","true","5","5","",""
"","","","","","","","","","","","html-keyboard-response","234","2.0.0","841166","6148f6fb0d27af3991e8d01e","2","3","null","","","","","","","","","<p style='font-size: 30px;'><strong>Okay</strong></p>","null","neutral_feedback","1","test","15","","","","","","","",""
"","","","","","","","","","","","html-button-response","235","2.0.0","845761","6148f6fb0d27af3991e8d01e","2","3","4592","","","","","","","","","<img src= ""rock_img/I_Andesite_06.jpg"" style=""width:8cm; height:6.840000000000001cm;""><p>What type of rock is this?</p>","0","class_response","1","test","16","Andesite","Andesite","06","true","1","1","",""
"","","","","","","","","","","","html-keyboard-response","236","2.0.0","846271","6148f6fb0d27af3991e8d01e","2","3","null","","","","","","","","","<p style='font-size: 30px;'><strong>Okay</strong></p>","null","neutral_feedback","1","test","16","","","","","","","",""
"","","","","","","","","","","","html-button-response","237","2.0.0","847241","6148f6fb0d27af3991e8d01e","2","3","967","","","","","","","","","<img src= ""rock_img/I_Andesite_09.jpg"" style=""width:8cm; height:6cm;""><p>What type of rock is this?</p>","0","class_response","1","test","17","Andesite","Andesite","09","true","1","1","",""
"","","","","","","","","","","","html-keyboard-response","238","2.0.0","847756","6148f6fb0d27af3991e8d01e","2","3","null","","","","","","","","","<p style='font-size: 30px;'><strong>Okay</strong></p>","null","neutral_feedback","1","test","17","","","","","","","",""
"","","","","","","","","","","","html-button-response","239","2.0.0","852677","6148f6fb0d27af3991e8d01e","2","3","4918","","","","","","","","","<img src= ""rock_img/I_Pegmatite_13.jpg"" style=""width:8cm; height:4.95cm;""><p>What type of rock is this?</p>","2","class_response","1","test","18","Diorite","Pegmatite","13","false","3","6","",""
"","","","","","","","","","","","html-keyboard-response","240","2.0.0","853191","6148f6fb0d27af3991e8d01e","2","3","null","","","","","","","","","<p style='font-size: 30px;'><strong>Okay</strong></p>","null","neutral_feedback","1","test","18","","","","","","","",""
"","","","","","","","","","","","html-button-response","241","2.0.0","854865","6148f6fb0d27af3991e8d01e","2","3","1671","","","","","","","","","<img src= ""rock_img/I_Gabbro_16.jpg"" style=""width:8cm; height:6.44cm;""><p>What type of rock is this?</p>","1","class_response","1","test","19","Basalt","Gabbro","16","false","2","4","",""
"","","","","","","","","","","","html-keyboard-response","242","2.0.0","855372","6148f6fb0d27af3991e8d01e","2","3","null","","","","","","","","","<p style='font-size: 30px;'><strong>Okay</strong></p>","null","neutral_feedback","1","test","19","","","","","","","",""
"","","","","","","","","","","","html-button-response","243","2.0.0","856599","6148f6fb0d27af3991e8d01e","2","3","1225","","","","","","","","","<img src= ""rock_img/I_Pumice_16.jpg"" style=""width:8cm; height:6.79cm;""><p>What type of rock is this?</p>","7","class_response","1","test","20","Pumice","Pumice","16","true","8","8","",""
"","","","","","","","","","","","html-keyboard-response","244","2.0.0","857101","6148f6fb0d27af3991e8d01e","2","3","null","","","","","","","","","<p style='font-size: 30px;'><strong>Okay</strong></p>","null","neutral_feedback","1","test","20","","","","","","","",""
"","","","","","","","","","","","html-button-response","245","2.0.0","872804","6148f6fb0d27af3991e8d01e","2","3","15702","","","","","","","","","<img src= ""rock_img/I_Peridotite_07.jpg"" style=""width:8cm; height:4.83cm;""><p>What type of rock is this?</p>","6","class_response","1","test","21","Peridotite","Peridotite","07","true","7","7","",""
"","","","","","","","","","","","html-keyboard-response","246","2.0.0","873316","6148f6fb0d27af3991e8d01e","2","3","null","","","","","","","","","<p style='font-size: 30px;'><strong>Okay</strong></p>","null","neutral_feedback","1","test","21","","","","","","","",""
"","","","","","","","","","","","html-button-response","247","2.0.0","875978","6148f6fb0d27af3991e8d01e","2","3","2659","","","","","","","","","<img src= ""rock_img/I_Basalt_06.jpg"" style=""width:8cm; height:7.06cm;""><p>What type of rock is this?</p>","1","class_response","1","test","22","Basalt","Basalt","06","true","2","2","",""
"","","","","","","","","","","","html-keyboard-response","248","2.0.0","876485","6148f6fb0d27af3991e8d01e","2","3","null","","","","","","","","","<p style='font-size: 30px;'><strong>Okay</strong></p>","null","neutral_feedback","1","test","22","","","","","","","",""
"","","","","","","","","","","","html-button-response","249","2.0.0","878978","6148f6fb0d27af3991e8d01e","2","3","2492","","","","","","","","","<img src= ""rock_img/I_Basalt_02.jpg"" style=""width:8cm; height:6.45cm;""><p>What type of rock is this?</p>","0","class_response","1","test","23","Andesite","Basalt","02","false","1","2","",""
"","","","","","","","","","","","html-keyboard-response","250","2.0.0","879500","6148f6fb0d27af3991e8d01e","2","3","null","","","","","","","","","<p style='font-size: 30px;'><strong>Okay</strong></p>","null","neutral_feedback","1","test","23","","","","","","","",""
"","","","","","","","","","","","html-button-response","251","2.0.0","882002","6148f6fb0d27af3991e8d01e","2","3","2500","","","","","","","","","<img src= ""rock_img/I_Diorite_10.jpg"" style=""width:8cm; height:5.949999999999999cm;""><p>What type of rock is this?</p>","4","class_response","1","test","24","Obsidian","Diorite","10","false","5","3","",""
"","","","","","","","","","","","html-keyboard-response","252","2.0.0","882507","6148f6fb0d27af3991e8d01e","2","3","null","","","","","","","","","<p style='font-size: 30px;'><strong>Okay</strong></p>","null","neutral_feedback","1","test","24","","","","","","","",""
"","","","","","","","","","","","html-button-response","253","2.0.0","884682","6148f6fb0d27af3991e8d01e","2","3","2173","","","","","","","","","<img src= ""rock_img/I_Gabbro_15.jpg"" style=""width:8cm; height:6.29cm;""><p>What type of rock is this?</p>","2","class_response","1","test","25","Diorite","Gabbro","15","false","3","4","",""
"","","","","","","","","","","","html-keyboard-response","254","2.0.0","885190","6148f6fb0d27af3991e8d01e","2","3","null","","","","","","","","","<p style='font-size: 30px;'><strong>Okay</strong></p>","null","neutral_feedback","1","test","25","","","","","","","",""
"","","","","","","","","","","","html-button-response","255","2.0.0","886869","6148f6fb0d27af3991e8d01e","2","3","1676","","","","","","","","","<img src= ""rock_img/I_Andesite_05.jpg"" style=""width:8cm; height:4.12cm;""><p>What type of rock is this?</p>","0","class_response","1","test","26","Andesite","Andesite","05","true","1","1","",""
"","","","","","","","","","","","html-keyboard-response","256","2.0.0","887383","6148f6fb0d27af3991e8d01e","2","3","null","","","","","","","","","<p style='font-size: 30px;'><strong>Okay</strong></p>","null","neutral_feedback","1","test","26","","","","","","","",""
"","","","","","","","","","","","html-button-response","257","2.0.0","889011","6148f6fb0d27af3991e8d01e","2","3","1625","","","","","","","","","<img src= ""rock_img/I_Andesite_02.jpg"" style=""width:8cm; height:8.5cm;""><p>What type of rock is this?</p>","0","class_response","1","test","27","Andesite","Andesite","02","true","1","1","",""
"","","","","","","","","","","","html-keyboard-response","258","2.0.0","889519","6148f6fb0d27af3991e8d01e","2","3","null","","","","","","","","","<p style='font-size: 30px;'><strong>Okay</strong></p>","null","neutral_feedback","1","test","27","","","","","","","",""
"","","","","","","","","","","","html-button-response","259","2.0.0","892479","6148f6fb0d27af3991e8d01e","2","3","2958","","","","","","","","","<img src= ""rock_img/I_Basalt_08.jpg"" style=""width:8cm; height:10.44cm;""><p>What type of rock is this?</p>","1","class_response","1","test","28","Basalt","Basalt","08","true","2","2","",""
"","","","","","","","","","","","html-keyboard-response","260","2.0.0","892992","6148f6fb0d27af3991e8d01e","2","3","null","","","","","","","","","<p style='font-size: 30px;'><strong>Okay</strong></p>","null","neutral_feedback","1","test","28","","","","","","","",""
"","","","","","","","","","","","html-button-response","261","2.0.0","894428","6148f6fb0d27af3991e8d01e","2","3","1434","","","","","","","","","<img src= ""rock_img/I_Pumice_13.jpg"" style=""width:8cm; height:8.200000000000001cm;""><p>What type of rock is this?</p>","7","class_response","1","test","29","Pumice","Pumice","13","true","8","8","",""
"","","","","","","","","","","","html-keyboard-response","262","2.0.0","894940","6148f6fb0d27af3991e8d01e","2","3","null","","","","","","","","","<p style='font-size: 30px;'><strong>Okay</strong></p>","null","neutral_feedback","1","test","29","","","","","","","",""
"","","","","","","","","","","","html-button-response","263","2.0.0","899877","6148f6fb0d27af3991e8d01e","2","3","4934","","","","","","","","","<img src= ""rock_img/I_Gabbro_10.jpg"" style=""width:8cm; height:5.680000000000001cm;""><p>What type of rock is this?</p>","3","class_response","1","test","30","Gabbro","Gabbro","10","true","4","4","",""
"","","","","","","","","","","","html-keyboard-response","264","2.0.0","900380","6148f6fb0d27af3991e8d01e","2","3","null","","","","","","","","","<p style='font-size: 30px;'><strong>Okay</strong></p>","null","neutral_feedback","1","test","30","","","","","","","",""
"","","","","","","","","","","","html-button-response","265","2.0.0","901589","6148f6fb0d27af3991e8d01e","2","3","1208","","","","","","","","","<img src= ""rock_img/I_Pumice_04.jpg"" style=""width:8cm; height:6.819999999999999cm;""><p>What type of rock is this?</p>","7","class_response","1","test","31","Pumice","Pumice","04","true","8","8","",""
"","","","","","","","","","","","html-keyboard-response","266","2.0.0","902098","6148f6fb0d27af3991e8d01e","2","3","null","","","","","","","","","<p style='font-size: 30px;'><strong>Okay</strong></p>","null","neutral_feedback","1","test","31","","","","","","","",""
"","","","","","","","","","","","html-button-response","267","2.0.0","903665","6148f6fb0d27af3991e8d01e","2","3","1565","","","","","","","","","<img src= ""rock_img/I_Obsidian_16.jpg"" style=""width:8cm; height:9.3cm;""><p>What type of rock is this?</p>","4","class_response","1","test","32","Obsidian","Obsidian","16","true","5","5","",""
"","","","","","","","","","","","html-keyboard-response","268","2.0.0","904167","6148f6fb0d27af3991e8d01e","2","3","null","","","","","","","","","<p style='font-size: 30px;'><strong>Okay</strong></p>","null","neutral_feedback","1","test","32","","","","","","","",""
"","","","","","","","","","","","html-button-response","269","2.0.0","907493","6148f6fb0d27af3991e8d01e","2","3","3324","","","","","","","","","<img src= ""rock_img/I_Pegmatite_16.jpg"" style=""width:8cm; height:5.8cm;""><p>What type of rock is this?</p>","5","class_response","1","test","33","Pegmatite","Pegmatite","16","true","6","6","",""
"","","","","","","","","","","","html-keyboard-response","270","2.0.0","907995","6148f6fb0d27af3991e8d01e","2","3","null","","","","","","","","","<p style='font-size: 30px;'><strong>Okay</strong></p>","null","neutral_feedback","1","test","33","","","","","","","",""
"","","","","","","","","","","","html-button-response","271","2.0.0","909239","6148f6fb0d27af3991e8d01e","2","3","1241","","","","","","","","","<img src= ""rock_img/I_Pumice_05.jpg"" style=""width:8cm; height:7.25cm;""><p>What type of rock is this?</p>","7","class_response","1","test","34","Pumice","Pumice","05","true","8","8","",""
"","","","","","","","","","","","html-keyboard-response","272","2.0.0","909755","6148f6fb0d27af3991e8d01e","2","3","null","","","","","","","","","<p style='font-size: 30px;'><strong>Okay</strong></p>","null","neutral_feedback","1","test","34","","","","","","","",""
"","","","","","","","","","","","html-button-response","273","2.0.0","910987","6148f6fb0d27af3991e8d01e","2","3","1229","","","","","","","","","<img src= ""rock_img/I_Diorite_16.jpg"" style=""width:8cm; height:6.74cm;""><p>What type of rock is this?</p>","3","class_response","1","test","35","Gabbro","Diorite","16","false","4","3","",""
"","","","","","","","","","","","html-keyboard-response","274","2.0.0","911490","6148f6fb0d27af3991e8d01e","2","3","null","","","","","","","","","<p style='font-size: 30px;'><strong>Okay</strong></p>","null","neutral_feedback","1","test","35","","","","","","","",""
"","","","","","","","","","","","html-button-response","275","2.0.0","912646","6148f6fb0d27af3991e8d01e","2","3","1155","","","","","","","","","<img src= ""rock_img/I_Basalt_12.jpg"" style=""width:8cm; height:6.010000000000001cm;""><p>What type of rock is this?</p>","7","class_response","1","test","36","Pumice","Basalt","12","false","8","2","",""
"","","","","","","","","","","","html-keyboard-response","276","2.0.0","913153","6148f6fb0d27af3991e8d01e","2","3","null","","","","","","","","","<p style='font-size: 30px;'><strong>Okay</strong></p>","null","neutral_feedback","1","test","36","","","","","","","",""
"","","","","","","","","","","","html-button-response","277","2.0.0","914414","6148f6fb0d27af3991e8d01e","2","3","1259","","","","","","","","","<img src= ""rock_img/I_Pumice_08.jpg"" style=""width:8cm; height:6.67cm;""><p>What type of rock is this?</p>","7","class_response","1","test","37","Pumice","Pumice","08","true","8","8","",""
"","","","","","","","","","","","html-keyboard-response","278","2.0.0","914927","6148f6fb0d27af3991e8d01e","2","3","null","","","","","","","","","<p style='font-size: 30px;'><strong>Okay</strong></p>","null","neutral_feedback","1","test","37","","","","","","","",""
"","","","","","","","","","","","html-button-response","279","2.0.0","916420","6148f6fb0d27af3991e8d01e","2","3","1491","","","","","","","","","<img src= ""rock_img/I_Andesite_16.jpg"" style=""width:8cm; height:6.010000000000001cm;""><p>What type of rock is this?</p>","3","class_response","1","test","38","Gabbro","Andesite","16","false","4","1","",""
"","","","","","","","","","","","html-keyboard-response","280","2.0.0","916923","6148f6fb0d27af3991e8d01e","2","3","null","","","","","","","","","<p style='font-size: 30px;'><strong>Okay</strong></p>","null","neutral_feedback","1","test","38","","","","","","","",""
"","","","","","","","","","","","html-button-response","281","2.0.0","918852","6148f6fb0d27af3991e8d01e","2","3","1927","","","","","","","","","<img src= ""rock_img/I_Basalt_11.jpg"" style=""width:8cm; height:5.359999999999999cm;""><p>What type of rock is this?</p>","0","class_response","1","test","39","Andesite","Basalt","11","false","1","2","",""
"","","","","","","","","","","","html-keyboard-response","282","2.0.0","919354","6148f6fb0d27af3991e8d01e","2","3","null","","","","","","","","","<p style='font-size: 30px;'><strong>Okay</strong></p>","null","neutral_feedback","1","test","39","","","","","","","",""
"","","","","","","","","","","","html-button-response","283","2.0.0","923164","6148f6fb0d27af3991e8d01e","2","3","3808","","","","","","","","","<img src= ""rock_img/I_Andesite_04.jpg"" style=""width:8cm; height:5.96cm;""><p>What type of rock is this?</p>","2","class_response","1","test","40","Diorite","Andesite","04","false","3","1","",""
"","","","","","","","","","","","html-keyboard-response","284","2.0.0","923674","6148f6fb0d27af3991e8d01e","2","3","null","","","","","","","","","<p style='font-size: 30px;'><strong>Okay</strong></p>","null","neutral_feedback","1","test","40","","","","","","","",""
"","","","","","","","","","","","html-button-response","285","2.0.0","925909","6148f6fb0d27af3991e8d01e","2","3","2232","","","","","","","","","<img src= ""rock_img/I_Peridotite_10.jpg"" style=""width:8cm; height:5.390000000000001cm;""><p>What type of rock is this?</p>","5","class_response","1","test","41","Pegmatite","Peridotite","10","false","6","7","",""
"","","","","","","","","","","","html-keyboard-response","286","2.0.0","926411","6148f6fb0d27af3991e8d01e","2","3","null","","","","","","","","","<p style='font-size: 30px;'><strong>Okay</strong></p>","null","neutral_feedback","1","test","41","","","","","","","",""
"","","","","","","","","","","","html-button-response","287","2.0.0","928978","6148f6fb0d27af3991e8d01e","2","3","2565","","","","","","","","","<img src= ""rock_img/I_Basalt_14.jpg"" style=""width:8cm; height:5.82cm;""><p>What type of rock is this?</p>","1","class_response","1","test","42","Basalt","Basalt","14","true","2","2","",""
"","","","","","","","","","","","html-keyboard-response","288","2.0.0","929486","6148f6fb0d27af3991e8d01e","2","3","null","","","","","","","","","<p style='font-size: 30px;'><strong>Okay</strong></p>","null","neutral_feedback","1","test","42","","","","","","","",""
"","","","","","","","","","","","html-button-response","289","2.0.0","933056","6148f6fb0d27af3991e8d01e","2","3","3568","","","","","","","","","<img src= ""rock_img/I_Gabbro_12.jpg"" style=""width:8cm; height:7.800000000000001cm;""><p>What type of rock is this?</p>","3","class_response","1","test","43","Gabbro","Gabbro","12","true","4","4","",""
"","","","","","","","","","","","html-keyboard-response","290","2.0.0","933561","6148f6fb0d27af3991e8d01e","2","3","null","","","","","","","","","<p style='font-size: 30px;'><strong>Okay</strong></p>","null","neutral_feedback","1","test","43","","","","","","","",""
"","","","","","","","","","","","html-button-response","291","2.0.0","941053","6148f6fb0d27af3991e8d01e","2","3","7490","","","","","","","","","<img src= ""rock_img/I_Peridotite_13.jpg"" style=""width:8cm; height:7.58cm;""><p>What type of rock is this?</p>","6","class_response","1","test","44","Peridotite","Peridotite","13","true","7","7","",""
"","","","","","","","","","","","html-keyboard-response","292","2.0.0","941564","6148f6fb0d27af3991e8d01e","2","3","null","","","","","","","","","<p style='font-size: 30px;'><strong>Okay</strong></p>","null","neutral_feedback","1","test","44","","","","","","","",""
"","","","","","","","","","","","html-button-response","293","2.0.0","942628","6148f6fb0d27af3991e8d01e","2","3","1061","","","","","","","","","<img src= ""rock_img/I_Peridotite_15.jpg"" style=""width:8cm; height:6cm;""><p>What type of rock is this?</p>","6","class_response","1","test","45","Peridotite","Peridotite","15","true","7","7","",""
"","","","","","","","","","","","html-keyboard-response","294","2.0.0","943137","6148f6fb0d27af3991e8d01e","2","3","null","","","","","","","","","<p style='font-size: 30px;'><strong>Okay</strong></p>","null","neutral_feedback","1","test","45","","","","","","","",""
"","","","","","","","","","","","html-button-response","295","2.0.0","944524","6148f6fb0d27af3991e8d01e","2","3","1385","","","","","","","","","<img src= ""rock_img/I_Peridotite_08.jpg"" style=""width:8cm; height:6.7cm;""><p>What type of rock is this?</p>","6","class_response","1","test","46","Peridotite","Peridotite","08","true","7","7","",""
"","","","","","","","","","","","html-keyboard-response","296","2.0.0","945025","6148f6fb0d27af3991e8d01e","2","3","null","","","","","","","","","<p style='font-size: 30px;'><strong>Okay</strong></p>","null","neutral_feedback","1","test","46","","","","","","","",""
"","","","","","","","","","","","html-button-response","297","2.0.0","946793","6148f6fb0d27af3991e8d01e","2","3","1766","","","","","","","","","<img src= ""rock_img/I_Gabbro_13.jpg"" style=""width:8cm; height:5.08cm;""><p>What type of rock is this?</p>","1","class_response","1","test","47","Basalt","Gabbro","13","false","2","4","",""
"","","","","","","","","","","","html-keyboard-response","298","2.0.0","947296","6148f6fb0d27af3991e8d01e","2","3","null","","","","","","","","","<p style='font-size: 30px;'><strong>Okay</strong></p>","null","neutral_feedback","1","test","47","","","","","","","",""
"","","","","","","","","","","","html-button-response","299","2.0.0","948570","6148f6fb0d27af3991e8d01e","2","3","1273","","","","","","","","","<img src= ""rock_img/I_Diorite_07.jpg"" style=""width:8cm; height:5.239999999999999cm;""><p>What type of rock is this?</p>","3","class_response","1","test","48","Gabbro","Diorite","07","false","4","3","",""
"","","","","","","","","","","","html-keyboard-response","300","2.0.0","949076","6148f6fb0d27af3991e8d01e","2","3","null","","","","","","","","","<p style='font-size: 30px;'><strong>Okay</strong></p>","null","neutral_feedback","1","test","48","","","","","","","",""
"","","","","","","","","","","","html-button-response","301","2.0.0","965284","6148f6fb0d27af3991e8d01e","2","3","","","","","","","","","","","","cycle_feedback","","","","","","","","","","15274.899999976158","885.6999999284744"
"","","","","","","","","","","","html-button-response","303","2.0.0","966366","6148f6fb0d27af3991e8d01e","2","3","1080","","","","","","","","","","0","start_train","","","","","","","","","","",""
"","","","","","","","","","","","html-button-response","304","2.0.0","968732","6148f6fb0d27af3991e8d01e","2","3","2364","","","","","","","","","<img src= ""rock_img/I_Pumice_15.jpg"" style=""width:8cm; height:7.86cm;""><p>What type of rock is this?</p>","7","class_response","2","train","1","Pumice","Pumice","15","true","8","8","",""
"","","","","","","","","","","","html-button-response","305","2.0.0","970126","6148f6fb0d27af3991e8d01e","2","3","1392","","","","","","","","","<img src= rock_img/I_Pumice_15.jpg style=""width:8cm; height:7.86cm;""><p style='font-size: 30px; color: green;'><strong>Correct!</strong></p><p style='font-size: 30px;'><strong>This rock is pumice</strong></p>","0","corr_feedback","2","train","1","","","","","","","",""
