"width","height","webaudio","browser","browser_version","mobile","os","fullscreen","vsync_rate","webcam","microphone","trial_type","trial_index","plugin_version","time_elapsed","subjID","condition","stimID","rt","url","success","value","timeout","failed_images","failed_audio","failed_video","view_history","stimulus","response","trialType","cycle","phase","trial","resp","cat","token","corr","resp_num","cat_num","ref_cat_num","paired_cat_num","time_obs","ref_cat","paired_cat","ref_prob_dist","paired_prob_dist","text_Andesite","text_Pumice","time_resp","text_Basalt","text_Diorite","time_fb1","time_fb2","text_Pegmatite","text_Peridotite"
"1536","960","true","chrome","129.0.0","false","Chrome OS","true","60.39","true","true","browser-check","0","2.0.0","1043","663fcdfa0a379f42f4c7397e","3","40","","","","","","","","","","","","","","","","","","","","","","","","","","","","","","","","","","","","",""
"","","","","","","","","","","","external-html","1","2.0.0","13031","663fcdfa0a379f42f4c7397e","3","40","11762","consent_form.html","","","","","","","","","","","","","","","","","","","","","","","","","","","","","","","","","","",""
"","","","","","","","","","","","fullscreen","2","2.0.0","17744","663fcdfa0a379f42f4c7397e","3","40","3677","","true","","","","","","","","","","","","","","","","","","","","","","","","","","","","","","","","","",""
"","","","","","","","","","","","call-function","3","2.0.0","17747","663fcdfa0a379f42f4c7397e","3","40","","","","{}","","","","","","","","","","","","","","","","","","","","","","","","","","","","","","","","",""
"","","","","","","","","","","","preload","4","2.0.0","20168","663fcdfa0a379f42f4c7397e","3","40","","","true","","false","[]","[]","[]","","","","","","","","","","","","","","","","","","","","","","","","","","","","",""
"","","","","","","","","","","","instructions","5","2.0.0","61284","663fcdfa0a379f42f4c7397e","3","40","41114","","","","","","","","[{""page_index"":0,""viewing_time"":7879},{""page_index"":1,""viewing_time"":20120},{""page_index"":2,""viewing_time"":13115}]","","","","","","","","","","","","","","","","","","","","","","","","","","","",""
"","","","","","","","","","","","html-button-response","6","2.0.0","64618","663fcdfa0a379f42f4c7397e","3","40","3330","","","","","","","","","","0","start_test","","","","","","","","","","","","","","","","","","","","","","","","",""
"","","","","","","","","","","","html-button-response","7","2.0.0","74279","663fcdfa0a379f42f4c7397e","3","40","9658","","","","","","","","","<img src= ""rock_img/I_Diorite_10.jpg"" style=""width:8cm; height:5.949999999999999cm;""><p>What type of rock is this?</p>","4","class_response","0","test","1","Obsidian","Diorite","10","false","5","3","","","","","","","","","","","","","","","",""
"","","","","","","","","","","","html-keyboard-response","8","2.0.0","74793","663fcdfa0a379f42f4c7397e","3","40","null","","","","","","","","","<p style='font-size: 30px;'><strong>Okay</strong></p>","null","neutral_feedback","0","test","1","","","","","","","","","","","","","","","","","","","","","",""
"","","","","","","","","","","","html-button-response","9","2.0.0","87252","663fcdfa0a379f42f4c7397e","3","40","12456","","","","","","","","","<img src= ""rock_img/I_Diorite_02.jpg"" style=""width:8cm; height:6.27cm;""><p>What type of rock is this?</p>","0","class_response","0","test","2","Andesite","Diorite","02","false","1","3","","","","","","","","","","","","","","","",""
"","","","","","","","","","","","html-keyboard-response","10","2.0.0","87755","663fcdfa0a379f42f4c7397e","3","40","null","","","","","","","","","<p style='font-size: 30px;'><strong>Okay</strong></p>","null","neutral_feedback","0","test","2","","","","","","","","","","","","","","","","","","","","","",""
"","","","","","","","","","","","html-button-response","11","2.0.0","99691","663fcdfa0a379f42f4c7397e","3","40","11933","","","","","","","","","<img src= ""rock_img/I_Obsidian_16.jpg"" style=""width:8cm; height:9.3cm;""><p>What type of rock is this?</p>","6","class_response","0","test","3","Peridotite","Obsidian","16","false","7","5","","","","","","","","","","","","","","","",""
"","","","","","","","","","","","html-keyboard-response","12","2.0.0","100193","663fcdfa0a379f42f4c7397e","3","40","null","","","","","","","","","<p style='font-size: 30px;'><strong>Okay</strong></p>","null","neutral_feedback","0","test","3","","","","","","","","","","","","","","","","","","","","","",""
"","","","","","","","","","","","html-button-response","13","2.0.0","108570","663fcdfa0a379f42f4c7397e","3","40","8375","","","","","","","","","<img src= ""rock_img/I_Peridotite_06.jpg"" style=""width:8cm; height:7.53cm;""><p>What type of rock is this?</p>","1","class_response","0","test","4","Basalt","Peridotite","06","false","2","7","","","","","","","","","","","","","","","",""
"","","","","","","","","","","","html-keyboard-response","14","2.0.0","109072","663fcdfa0a379f42f4c7397e","3","40","null","","","","","","","","","<p style='font-size: 30px;'><strong>Okay</strong></p>","null","neutral_feedback","0","test","4","","","","","","","","","","","","","","","","","","","","","",""
"","","","","","","","","","","","html-button-response","15","2.0.0","113995","663fcdfa0a379f42f4c7397e","3","40","4921","","","","","","","","","<img src= ""rock_img/I_Basalt_08.jpg"" style=""width:8cm; height:10.44cm;""><p>What type of rock is this?</p>","3","class_response","0","test","5","Gabbro","Basalt","08","false","4","2","","","","","","","","","","","","","","","",""
"","","","","","","","","","","","html-keyboard-response","16","2.0.0","114498","663fcdfa0a379f42f4c7397e","3","40","null","","","","","","","","","<p style='font-size: 30px;'><strong>Okay</strong></p>","null","neutral_feedback","0","test","5","","","","","","","","","","","","","","","","","","","","","",""
"","","","","","","","","","","","html-button-response","17","2.0.0","122247","663fcdfa0a379f42f4c7397e","3","40","7747","","","","","","","","","<img src= ""rock_img/I_Pegmatite_15.jpg"" style=""width:8cm; height:6cm;""><p>What type of rock is this?</p>","5","class_response","0","test","6","Pegmatite","Pegmatite","15","true","6","6","","","","","","","","","","","","","","","",""
"","","","","","","","","","","","html-keyboard-response","18","2.0.0","122749","663fcdfa0a379f42f4c7397e","3","40","null","","","","","","","","","<p style='font-size: 30px;'><strong>Okay</strong></p>","null","neutral_feedback","0","test","6","","","","","","","","","","","","","","","","","","","","","",""
"","","","","","","","","","","","html-button-response","19","2.0.0","130581","663fcdfa0a379f42f4c7397e","3","40","7829","","","","","","","","","<img src= ""rock_img/I_Basalt_06.jpg"" style=""width:8cm; height:7.06cm;""><p>What type of rock is this?</p>","7","class_response","0","test","7","Pumice","Basalt","06","false","8","2","","","","","","","","","","","","","","","",""
"","","","","","","","","","","","html-keyboard-response","20","2.0.0","131083","663fcdfa0a379f42f4c7397e","3","40","null","","","","","","","","","<p style='font-size: 30px;'><strong>Okay</strong></p>","null","neutral_feedback","0","test","7","","","","","","","","","","","","","","","","","","","","","",""
"","","","","","","","","","","","html-button-response","21","2.0.0","138286","663fcdfa0a379f42f4c7397e","3","40","7200","","","","","","","","","<img src= ""rock_img/I_Pegmatite_13.jpg"" style=""width:8cm; height:4.95cm;""><p>What type of rock is this?</p>","5","class_response","0","test","8","Pegmatite","Pegmatite","13","true","6","6","","","","","","","","","","","","","","","",""
"","","","","","","","","","","","html-keyboard-response","22","2.0.0","138788","663fcdfa0a379f42f4c7397e","3","40","null","","","","","","","","","<p style='font-size: 30px;'><strong>Okay</strong></p>","null","neutral_feedback","0","test","8","","","","","","","","","","","","","","","","","","","","","",""
"","","","","","","","","","","","html-button-response","23","2.0.0","146461","663fcdfa0a379f42f4c7397e","3","40","7669","","","","","","","","","<img src= ""rock_img/I_Peridotite_13.jpg"" style=""width:8cm; height:7.58cm;""><p>What type of rock is this?</p>","5","class_response","0","test","9","Pegmatite","Peridotite","13","false","6","7","","","","","","","","","","","","","","","",""
"","","","","","","","","","","","html-keyboard-response","24","2.0.0","146963","663fcdfa0a379f42f4c7397e","3","40","null","","","","","","","","","<p style='font-size: 30px;'><strong>Okay</strong></p>","null","neutral_feedback","0","test","9","","","","","","","","","","","","","","","","","","","","","",""
"","","","","","","","","","","","html-button-response","25","2.0.0","152169","663fcdfa0a379f42f4c7397e","3","40","5203","","","","","","","","","<img src= ""rock_img/I_Gabbro_08.jpg"" style=""width:8cm; height:5.15cm;""><p>What type of rock is this?</p>","0","class_response","0","test","10","Andesite","Gabbro","08","false","1","4","","","","","","","","","","","","","","","",""
"","","","","","","","","","","","html-keyboard-response","26","2.0.0","152671","663fcdfa0a379f42f4c7397e","3","40","null","","","","","","","","","<p style='font-size: 30px;'><strong>Okay</strong></p>","null","neutral_feedback","0","test","10","","","","","","","","","","","","","","","","","","","","","",""
"","","","","","","","","","","","html-button-response","27","2.0.0","155617","663fcdfa0a379f42f4c7397e","3","40","2943","","","","","","","","","<img src= ""rock_img/I_Basalt_04.jpg"" style=""width:8cm; height:7.53cm;""><p>What type of rock is this?</p>","2","class_response","0","test","11","Diorite","Basalt","04","false","3","2","","","","","","","","","","","","","","","",""
"","","","","","","","","","","","html-keyboard-response","28","2.0.0","156118","663fcdfa0a379f42f4c7397e","3","40","null","","","","","","","","","<p style='font-size: 30px;'><strong>Okay</strong></p>","null","neutral_feedback","0","test","11","","","","","","","","","","","","","","","","","","","","","",""
"","","","","","","","","","","","html-button-response","29","2.0.0","159512","663fcdfa0a379f42f4c7397e","3","40","3391","","","","","","","","","<img src= ""rock_img/I_Peridotite_10.jpg"" style=""width:8cm; height:5.390000000000001cm;""><p>What type of rock is this?</p>","5","class_response","0","test","12","Pegmatite","Peridotite","10","false","6","7","","","","","","","","","","","","","","","",""
"","","","","","","","","","","","html-keyboard-response","30","2.0.0","160013","663fcdfa0a379f42f4c7397e","3","40","null","","","","","","","","","<p style='font-size: 30px;'><strong>Okay</strong></p>","null","neutral_feedback","0","test","12","","","","","","","","","","","","","","","","","","","","","",""
"","","","","","","","","","","","html-button-response","31","2.0.0","163920","663fcdfa0a379f42f4c7397e","3","40","3903","","","","","","","","","<img src= ""rock_img/I_Andesite_10.jpg"" style=""width:8cm; height:4.16cm;""><p>What type of rock is this?</p>","7","class_response","0","test","13","Pumice","Andesite","10","false","8","1","","","","","","","","","","","","","","","",""
"","","","","","","","","","","","html-keyboard-response","32","2.0.0","164422","663fcdfa0a379f42f4c7397e","3","40","null","","","","","","","","","<p style='font-size: 30px;'><strong>Okay</strong></p>","null","neutral_feedback","0","test","13","","","","","","","","","","","","","","","","","","","","","",""
"","","","","","","","","","","","html-button-response","33","2.0.0","167879","663fcdfa0a379f42f4c7397e","3","40","3455","","","","","","","","","<img src= ""rock_img/I_Pegmatite_06.jpg"" style=""width:8cm; height:5.17cm;""><p>What type of rock is this?</p>","1","class_response","0","test","14","Basalt","Pegmatite","06","false","2","6","","","","","","","","","","","","","","","",""
"","","","","","","","","","","","html-keyboard-response","34","2.0.0","168381","663fcdfa0a379f42f4c7397e","3","40","null","","","","","","","","","<p style='font-size: 30px;'><strong>Okay</strong></p>","null","neutral_feedback","0","test","14","","","","","","","","","","","","","","","","","","","","","",""
"","","","","","","","","","","","html-button-response","35","2.0.0","172110","663fcdfa0a379f42f4c7397e","3","40","3726","","","","","","","","","<img src= ""rock_img/I_Pumice_04.jpg"" style=""width:8cm; height:6.819999999999999cm;""><p>What type of rock is this?</p>","5","class_response","0","test","15","Pegmatite","Pumice","04","false","6","8","","","","","","","","","","","","","","","",""
"","","","","","","","","","","","html-keyboard-response","36","2.0.0","172612","663fcdfa0a379f42f4c7397e","3","40","null","","","","","","","","","<p style='font-size: 30px;'><strong>Okay</strong></p>","null","neutral_feedback","0","test","15","","","","","","","","","","","","","","","","","","","","","",""
"","","","","","","","","","","","html-button-response","37","2.0.0","175842","663fcdfa0a379f42f4c7397e","3","40","3226","","","","","","","","","<img src= ""rock_img/I_Gabbro_05.jpg"" style=""width:8cm; height:6cm;""><p>What type of rock is this?</p>","6","class_response","0","test","16","Peridotite","Gabbro","05","false","7","4","","","","","","","","","","","","","","","",""
"","","","","","","","","","","","html-keyboard-response","38","2.0.0","176344","663fcdfa0a379f42f4c7397e","3","40","null","","","","","","","","","<p style='font-size: 30px;'><strong>Okay</strong></p>","null","neutral_feedback","0","test","16","","","","","","","","","","","","","","","","","","","","","",""
"","","","","","","","","","","","html-button-response","39","2.0.0","180413","663fcdfa0a379f42f4c7397e","3","40","4065","","","","","","","","","<img src= ""rock_img/I_Diorite_08.jpg"" style=""width:8cm; height:6.37cm;""><p>What type of rock is this?</p>","4","class_response","0","test","17","Obsidian","Diorite","08","false","5","3","","","","","","","","","","","","","","","",""
"","","","","","","","","","","","html-keyboard-response","40","2.0.0","180915","663fcdfa0a379f42f4c7397e","3","40","null","","","","","","","","","<p style='font-size: 30px;'><strong>Okay</strong></p>","null","neutral_feedback","0","test","17","","","","","","","","","","","","","","","","","","","","","",""
"","","","","","","","","","","","html-button-response","41","2.0.0","183888","663fcdfa0a379f42f4c7397e","3","40","2970","","","","","","","","","<img src= ""rock_img/I_Diorite_14.jpg"" style=""width:8cm; height:5.71cm;""><p>What type of rock is this?</p>","0","class_response","0","test","18","Andesite","Diorite","14","false","1","3","","","","","","","","","","","","","","","",""
"","","","","","","","","","","","html-keyboard-response","42","2.0.0","184390","663fcdfa0a379f42f4c7397e","3","40","null","","","","","","","","","<p style='font-size: 30px;'><strong>Okay</strong></p>","null","neutral_feedback","0","test","18","","","","","","","","","","","","","","","","","","","","","",""
"","","","","","","","","","","","html-button-response","43","2.0.0","190840","663fcdfa0a379f42f4c7397e","3","40","6447","","","","","","","","","<img src= ""rock_img/I_Obsidian_14.jpg"" style=""width:8cm; height:7.64cm;""><p>What type of rock is this?</p>","6","class_response","0","test","19","Peridotite","Obsidian","14","false","7","5","","","","","","","","","","","","","","","",""
"","","","","","","","","","","","html-keyboard-response","44","2.0.0","191342","663fcdfa0a379f42f4c7397e","3","40","null","","","","","","","","","<p style='font-size: 30px;'><strong>Okay</strong></p>","null","neutral_feedback","0","test","19","","","","","","","","","","","","","","","","","","","","","",""
"","","","","","","","","","","","html-button-response","45","2.0.0","194452","663fcdfa0a379f42f4c7397e","3","40","3107","","","","","","","","","<img src= ""rock_img/I_Pumice_16.jpg"" style=""width:8cm; height:6.79cm;""><p>What type of rock is this?</p>","5","class_response","0","test","20","Pegmatite","Pumice","16","false","6","8","","","","","","","","","","","","","","","",""
"","","","","","","","","","","","html-keyboard-response","46","2.0.0","194954","663fcdfa0a379f42f4c7397e","3","40","null","","","","","","","","","<p style='font-size: 30px;'><strong>Okay</strong></p>","null","neutral_feedback","0","test","20","","","","","","","","","","","","","","","","","","","","","",""
"","","","","","","","","","","","html-button-response","47","2.0.0","198262","663fcdfa0a379f42f4c7397e","3","40","3305","","","","","","","","","<img src= ""rock_img/I_Gabbro_14.jpg"" style=""width:8cm; height:8.48cm;""><p>What type of rock is this?</p>","3","class_response","0","test","21","Gabbro","Gabbro","14","true","4","4","","","","","","","","","","","","","","","",""
"","","","","","","","","","","","html-keyboard-response","48","2.0.0","198764","663fcdfa0a379f42f4c7397e","3","40","null","","","","","","","","","<p style='font-size: 30px;'><strong>Okay</strong></p>","null","neutral_feedback","0","test","21","","","","","","","","","","","","","","","","","","","","","",""
"","","","","","","","","","","","html-button-response","49","2.0.0","203210","663fcdfa0a379f42f4c7397e","3","40","4443","","","","","","","","","<img src= ""rock_img/I_Pegmatite_12.jpg"" style=""width:8cm; height:5.7cm;""><p>What type of rock is this?</p>","0","class_response","0","test","22","Andesite","Pegmatite","12","false","1","6","","","","","","","","","","","","","","","",""
"","","","","","","","","","","","html-keyboard-response","50","2.0.0","203712","663fcdfa0a379f42f4c7397e","3","40","null","","","","","","","","","<p style='font-size: 30px;'><strong>Okay</strong></p>","null","neutral_feedback","0","test","22","","","","","","","","","","","","","","","","","","","","","",""
"","","","","","","","","","","","html-button-response","51","2.0.0","208186","663fcdfa0a379f42f4c7397e","3","40","4471","","","","","","","","","<img src= ""rock_img/I_Obsidian_04.jpg"" style=""width:8cm; height:6.930000000000001cm;""><p>What type of rock is this?</p>","4","class_response","0","test","23","Obsidian","Obsidian","04","true","5","5","","","","","","","","","","","","","","","",""
"","","","","","","","","","","","html-keyboard-response","52","2.0.0","208688","663fcdfa0a379f42f4c7397e","3","40","null","","","","","","","","","<p style='font-size: 30px;'><strong>Okay</strong></p>","null","neutral_feedback","0","test","23","","","","","","","","","","","","","","","","","","","","","",""
"","","","","","","","","","","","html-button-response","53","2.0.0","211321","663fcdfa0a379f42f4c7397e","3","40","2630","","","","","","","","","<img src= ""rock_img/I_Pegmatite_09.jpg"" style=""width:8cm; height:4.03cm;""><p>What type of rock is this?</p>","2","class_response","0","test","24","Diorite","Pegmatite","09","false","3","6","","","","","","","","","","","","","","","",""
"","","","","","","","","","","","html-keyboard-response","54","2.0.0","211823","663fcdfa0a379f42f4c7397e","3","40","null","","","","","","","","","<p style='font-size: 30px;'><strong>Okay</strong></p>","null","neutral_feedback","0","test","24","","","","","","","","","","","","","","","","","","","","","",""
"","","","","","","","","","","","html-button-response","55","2.0.0","214392","663fcdfa0a379f42f4c7397e","3","40","2565","","","","","","","","","<img src= ""rock_img/I_Gabbro_09.jpg"" style=""width:8cm; height:7.279999999999999cm;""><p>What type of rock is this?</p>","4","class_response","0","test","25","Obsidian","Gabbro","09","false","5","4","","","","","","","","","","","","","","","",""
"","","","","","","","","","","","html-keyboard-response","56","2.0.0","214893","663fcdfa0a379f42f4c7397e","3","40","null","","","","","","","","","<p style='font-size: 30px;'><strong>Okay</strong></p>","null","neutral_feedback","0","test","25","","","","","","","","","","","","","","","","","","","","","",""
"","","","","","","","","","","","html-button-response","57","2.0.0","217064","663fcdfa0a379f42f4c7397e","3","40","2168","","","","","","","","","<img src= ""rock_img/I_Gabbro_10.jpg"" style=""width:8cm; height:5.680000000000001cm;""><p>What type of rock is this?</p>","5","class_response","0","test","26","Pegmatite","Gabbro","10","false","6","4","","","","","","","","","","","","","","","",""
"","","","","","","","","","","","html-keyboard-response","58","2.0.0","217566","663fcdfa0a379f42f4c7397e","3","40","null","","","","","","","","","<p style='font-size: 30px;'><strong>Okay</strong></p>","null","neutral_feedback","0","test","26","","","","","","","","","","","","","","","","","","","","","",""
"","","","","","","","","","","","html-button-response","59","2.0.0","220734","663fcdfa0a379f42f4c7397e","3","40","3164","","","","","","","","","<img src= ""rock_img/I_Andesite_11.jpg"" style=""width:8cm; height:4.92cm;""><p>What type of rock is this?</p>","6","class_response","0","test","27","Peridotite","Andesite","11","false","7","1","","","","","","","","","","","","","","","",""
"","","","","","","","","","","","html-keyboard-response","60","2.0.0","221235","663fcdfa0a379f42f4c7397e","3","40","null","","","","","","","","","<p style='font-size: 30px;'><strong>Okay</strong></p>","null","neutral_feedback","0","test","27","","","","","","","","","","","","","","","","","","","","","",""
"","","","","","","","","","","","html-button-response","61","2.0.0","223426","663fcdfa0a379f42f4c7397e","3","40","2187","","","","","","","","","<img src= ""rock_img/I_Pumice_02.jpg"" style=""width:8cm; height:7.3999999999999995cm;""><p>What type of rock is this?</p>","7","class_response","0","test","28","Pumice","Pumice","02","true","8","8","","","","","","","","","","","","","","","",""
"","","","","","","","","","","","html-keyboard-response","62","2.0.0","223928","663fcdfa0a379f42f4c7397e","3","40","null","","","","","","","","","<p style='font-size: 30px;'><strong>Okay</strong></p>","null","neutral_feedback","0","test","28","","","","","","","","","","","","","","","","","","","","","",""
"","","","","","","","","","","","html-button-response","63","2.0.0","228736","663fcdfa0a379f42f4c7397e","3","40","4806","","","","","","","","","<img src= ""rock_img/I_Basalt_11.jpg"" style=""width:8cm; height:5.359999999999999cm;""><p>What type of rock is this?</p>","0","class_response","0","test","29","Andesite","Basalt","11","false","1","2","","","","","","","","","","","","","","","",""
"","","","","","","","","","","","html-keyboard-response","64","2.0.0","229238","663fcdfa0a379f42f4c7397e","3","40","null","","","","","","","","","<p style='font-size: 30px;'><strong>Okay</strong></p>","null","neutral_feedback","0","test","29","","","","","","","","","","","","","","","","","","","","","",""
"","","","","","","","","","","","html-button-response","65","2.0.0","231864","663fcdfa0a379f42f4c7397e","3","40","2622","","","","","","","","","<img src= ""rock_img/I_Basalt_16.jpg"" style=""width:8cm; height:7.659999999999999cm;""><p>What type of rock is this?</p>","2","class_response","0","test","30","Diorite","Basalt","16","false","3","2","","","","","","","","","","","","","","","",""
"","","","","","","","","","","","html-keyboard-response","66","2.0.0","232366","663fcdfa0a379f42f4c7397e","3","40","null","","","","","","","","","<p style='font-size: 30px;'><strong>Okay</strong></p>","null","neutral_feedback","0","test","30","","","","","","","","","","","","","","","","","","","","","",""
"","","","","","","","","","","","html-button-response","67","2.0.0","234139","663fcdfa0a379f42f4c7397e","3","40","1770","","","","","","","","","<img src= ""rock_img/I_Peridotite_07.jpg"" style=""width:8cm; height:4.83cm;""><p>What type of rock is this?</p>","3","class_response","0","test","31","Gabbro","Peridotite","07","false","4","7","","","","","","","","","","","","","","","",""
"","","","","","","","","","","","html-keyboard-response","68","2.0.0","234640","663fcdfa0a379f42f4c7397e","3","40","null","","","","","","","","","<p style='font-size: 30px;'><strong>Okay</strong></p>","null","neutral_feedback","0","test","31","","","","","","","","","","","","","","","","","","","","","",""
"","","","","","","","","","","","html-button-response","69","2.0.0","238070","663fcdfa0a379f42f4c7397e","3","40","3427","","","","","","","","","<img src= ""rock_img/I_Diorite_16.jpg"" style=""width:8cm; height:6.74cm;""><p>What type of rock is this?</p>","5","class_response","0","test","32","Pegmatite","Diorite","16","false","6","3","","","","","","","","","","","","","","","",""
"","","","","","","","","","","","html-keyboard-response","70","2.0.0","238572","663fcdfa0a379f42f4c7397e","3","40","null","","","","","","","","","<p style='font-size: 30px;'><strong>Okay</strong></p>","null","neutral_feedback","0","test","32","","","","","","","","","","","","","","","","","","","","","",""
"","","","","","","","","","","","html-button-response","71","2.0.0","240785","663fcdfa0a379f42f4c7397e","3","40","2210","","","","","","","","","<img src= ""rock_img/I_Peridotite_12.jpg"" style=""width:8cm; height:4.54cm;""><p>What type of rock is this?</p>","1","class_response","0","test","33","Basalt","Peridotite","12","false","2","7","","","","","","","","","","","","","","","",""
"","","","","","","","","","","","html-keyboard-response","72","2.0.0","241287","663fcdfa0a379f42f4c7397e","3","40","null","","","","","","","","","<p style='font-size: 30px;'><strong>Okay</strong></p>","null","neutral_feedback","0","test","33","","","","","","","","","","","","","","","","","","","","","",""
"","","","","","","","","","","","html-button-response","73","2.0.0","244517","663fcdfa0a379f42f4c7397e","3","40","3228","","","","","","","","","<img src= ""rock_img/I_Peridotite_16.jpg"" style=""width:8cm; height:6.989999999999999cm;""><p>What type of rock is this?</p>","6","class_response","0","test","34","Peridotite","Peridotite","16","true","7","7","","","","","","","","","","","","","","","",""
"","","","","","","","","","","","html-keyboard-response","74","2.0.0","245019","663fcdfa0a379f42f4c7397e","3","40","null","","","","","","","","","<p style='font-size: 30px;'><strong>Okay</strong></p>","null","neutral_feedback","0","test","34","","","","","","","","","","","","","","","","","","","","","",""
"","","","","","","","","","","","html-button-response","75","2.0.0","247595","663fcdfa0a379f42f4c7397e","3","40","2573","","","","","","","","","<img src= ""rock_img/I_Andesite_09.jpg"" style=""width:8cm; height:6cm;""><p>What type of rock is this?</p>","7","class_response","0","test","35","Pumice","Andesite","09","false","8","1","","","","","","","","","","","","","","","",""
"","","","","","","","","","","","html-keyboard-response","76","2.0.0","248097","663fcdfa0a379f42f4c7397e","3","40","null","","","","","","","","","<p style='font-size: 30px;'><strong>Okay</strong></p>","null","neutral_feedback","0","test","35","","","","","","","","","","","","","","","","","","","","","",""
"","","","","","","","","","","","html-button-response","77","2.0.0","252280","663fcdfa0a379f42f4c7397e","3","40","4179","","","","","","","","","<img src= ""rock_img/I_Diorite_12.jpg"" style=""width:8cm; height:4.88cm;""><p>What type of rock is this?</p>","0","class_response","0","test","36","Andesite","Diorite","12","false","1","3","","","","","","","","","","","","","","","",""
"","","","","","","","","","","","html-keyboard-response","78","2.0.0","252781","663fcdfa0a379f42f4c7397e","3","40","null","","","","","","","","","<p style='font-size: 30px;'><strong>Okay</strong></p>","null","neutral_feedback","0","test","36","","","","","","","","","","","","","","","","","","","","","",""
"","","","","","","","","","","","html-button-response","79","2.0.0","256517","663fcdfa0a379f42f4c7397e","3","40","3733","","","","","","","","","<img src= ""rock_img/I_Gabbro_03.jpg"" style=""width:8cm; height:8.52cm;""><p>What type of rock is this?</p>","2","class_response","0","test","37","Diorite","Gabbro","03","false","3","4","","","","","","","","","","","","","","","",""
"","","","","","","","","","","","html-keyboard-response","80","2.0.0","257019","663fcdfa0a379f42f4c7397e","3","40","null","","","","","","","","","<p style='font-size: 30px;'><strong>Okay</strong></p>","null","neutral_feedback","0","test","37","","","","","","","","","","","","","","","","","","","","","",""
"","","","","","","","","","","","html-button-response","81","2.0.0","258991","663fcdfa0a379f42f4c7397e","3","40","1968","","","","","","","","","<img src= ""rock_img/I_Pumice_08.jpg"" style=""width:8cm; height:6.67cm;""><p>What type of rock is this?</p>","7","class_response","0","test","38","Pumice","Pumice","08","true","8","8","","","","","","","","","","","","","","","",""
"","","","","","","","","","","","html-keyboard-response","82","2.0.0","259492","663fcdfa0a379f42f4c7397e","3","40","null","","","","","","","","","<p style='font-size: 30px;'><strong>Okay</strong></p>","null","neutral_feedback","0","test","38","","","","","","","","","","","","","","","","","","","","","",""
"","","","","","","","","","","","html-button-response","83","2.0.0","261885","663fcdfa0a379f42f4c7397e","3","40","2390","","","","","","","","","<img src= ""rock_img/I_Andesite_07.jpg"" style=""width:8cm; height:5.93cm;""><p>What type of rock is this?</p>","5","class_response","0","test","39","Pegmatite","Andesite","07","false","6","1","","","","","","","","","","","","","","","",""
"","","","","","","","","","","","html-keyboard-response","84","2.0.0","262387","663fcdfa0a379f42f4c7397e","3","40","null","","","","","","","","","<p style='font-size: 30px;'><strong>Okay</strong></p>","null","neutral_feedback","0","test","39","","","","","","","","","","","","","","","","","","","","","",""
"","","","","","","","","","","","html-button-response","85","2.0.0","264885","663fcdfa0a379f42f4c7397e","3","40","2495","","","","","","","","","<img src= ""rock_img/I_Obsidian_11.jpg"" style=""width:8cm; height:6.05cm;""><p>What type of rock is this?</p>","4","class_response","0","test","40","Obsidian","Obsidian","11","true","5","5","","","","","","","","","","","","","","","",""
"","","","","","","","","","","","html-keyboard-response","86","2.0.0","265386","663fcdfa0a379f42f4c7397e","3","40","null","","","","","","","","","<p style='font-size: 30px;'><strong>Okay</strong></p>","null","neutral_feedback","0","test","40","","","","","","","","","","","","","","","","","","","","","",""
"","","","","","","","","","","","html-button-response","87","2.0.0","269541","663fcdfa0a379f42f4c7397e","3","40","4152","","","","","","","","","<img src= ""rock_img/I_Basalt_02.jpg"" style=""width:8cm; height:6.45cm;""><p>What type of rock is this?</p>","2","class_response","0","test","41","Diorite","Basalt","02","false","3","2","","","","","","","","","","","","","","","",""
"","","","","","","","","","","","html-keyboard-response","88","2.0.0","270043","663fcdfa0a379f42f4c7397e","3","40","null","","","","","","","","","<p style='font-size: 30px;'><strong>Okay</strong></p>","null","neutral_feedback","0","test","41","","","","","","","","","","","","","","","","","","","","","",""
"","","","","","","","","","","","html-button-response","89","2.0.0","273621","663fcdfa0a379f42f4c7397e","3","40","3574","","","","","","","","","<img src= ""rock_img/I_Pumice_13.jpg"" style=""width:8cm; height:8.200000000000001cm;""><p>What type of rock is this?</p>","0","class_response","0","test","42","Andesite","Pumice","13","false","1","8","","","","","","","","","","","","","","","",""
"","","","","","","","","","","","html-keyboard-response","90","2.0.0","274123","663fcdfa0a379f42f4c7397e","3","40","null","","","","","","","","","<p style='font-size: 30px;'><strong>Okay</strong></p>","null","neutral_feedback","0","test","42","","","","","","","","","","","","","","","","","","","","","",""
"","","","","","","","","","","","html-button-response","91","2.0.0","276628","663fcdfa0a379f42f4c7397e","3","40","2503","","","","","","","","","<img src= ""rock_img/I_Obsidian_10.jpg"" style=""width:8cm; height:6.260000000000001cm;""><p>What type of rock is this?</p>","4","class_response","0","test","43","Obsidian","Obsidian","10","true","5","5","","","","","","","","","","","","","","","",""
"","","","","","","","","","","","html-keyboard-response","92","2.0.0","277130","663fcdfa0a379f42f4c7397e","3","40","null","","","","","","","","","<p style='font-size: 30px;'><strong>Okay</strong></p>","null","neutral_feedback","0","test","43","","","","","","","","","","","","","","","","","","","","","",""
"","","","","","","","","","","","html-button-response","93","2.0.0","279543","663fcdfa0a379f42f4c7397e","3","40","2410","","","","","","","","","<img src= ""rock_img/I_Andesite_01.jpg"" style=""width:8cm; height:5.87cm;""><p>What type of rock is this?</p>","4","class_response","0","test","44","Obsidian","Andesite","01","false","5","1","","","","","","","","","","","","","","","",""
"","","","","","","","","","","","html-keyboard-response","94","2.0.0","280045","663fcdfa0a379f42f4c7397e","3","40","null","","","","","","","","","<p style='font-size: 30px;'><strong>Okay</strong></p>","null","neutral_feedback","0","test","44","","","","","","","","","","","","","","","","","","","","","",""
"","","","","","","","","","","","html-button-response","95","2.0.0","282912","663fcdfa0a379f42f4c7397e","3","40","2864","","","","","","","","","<img src= ""rock_img/I_Pegmatite_11.jpg"" style=""width:8cm; height:8.14cm;""><p>What type of rock is this?</p>","3","class_response","0","test","45","Gabbro","Pegmatite","11","false","4","6","","","","","","","","","","","","","","","",""
"","","","","","","","","","","","html-keyboard-response","96","2.0.0","283414","663fcdfa0a379f42f4c7397e","3","40","null","","","","","","","","","<p style='font-size: 30px;'><strong>Okay</strong></p>","null","neutral_feedback","0","test","45","","","","","","","","","","","","","","","","","","","","","",""
"","","","","","","","","","","","html-button-response","97","2.0.0","285684","663fcdfa0a379f42f4c7397e","3","40","2268","","","","","","","","","<img src= ""rock_img/I_Obsidian_12.jpg"" style=""width:8cm; height:6.53cm;""><p>What type of rock is this?</p>","4","class_response","0","test","46","Obsidian","Obsidian","12","true","5","5","","","","","","","","","","","","","","","",""
"","","","","","","","","","","","html-keyboard-response","98","2.0.0","286186","663fcdfa0a379f42f4c7397e","3","40","null","","","","","","","","","<p style='font-size: 30px;'><strong>Okay</strong></p>","null","neutral_feedback","0","test","46","","","","","","","","","","","","","","","","","","","","","",""
"","","","","","","","","","","","html-button-response","99","2.0.0","289081","663fcdfa0a379f42f4c7397e","3","40","2893","","","","","","","","","<img src= ""rock_img/I_Andesite_16.jpg"" style=""width:8cm; height:6.010000000000001cm;""><p>What type of rock is this?</p>","7","class_response","0","test","47","Pumice","Andesite","16","false","8","1","","","","","","","","","","","","","","","",""
"","","","","","","","","","","","html-keyboard-response","100","2.0.0","289583","663fcdfa0a379f42f4c7397e","3","40","null","","","","","","","","","<p style='font-size: 30px;'><strong>Okay</strong></p>","null","neutral_feedback","0","test","47","","","","","","","","","","","","","","","","","","","","","",""
"","","","","","","","","","","","html-button-response","101","2.0.0","291677","663fcdfa0a379f42f4c7397e","3","40","2092","","","","","","","","","<img src= ""rock_img/I_Pumice_15.jpg"" style=""width:8cm; height:7.86cm;""><p>What type of rock is this?</p>","1","class_response","0","test","48","Basalt","Pumice","15","false","2","8","","","","","","","","","","","","","","","",""
"","","","","","","","","","","","html-keyboard-response","102","2.0.0","292180","663fcdfa0a379f42f4c7397e","3","40","null","","","","","","","","","<p style='font-size: 30px;'><strong>Okay</strong></p>","null","neutral_feedback","0","test","48","","","","","","","","","","","","","","","","","","","","","",""
"","","","","","","","","","","","instructions","103","2.0.0","321904","663fcdfa0a379f42f4c7397e","3","40","29697","","","","","","","","[{""page_index"":0,""viewing_time"":21750},{""page_index"":1,""viewing_time"":7946}]","","","","","","","","","","","","","","","","","","","","","","","","","","","",""
"","","","","","","","","","","","html-button-response","104","2.0.0","328743","663fcdfa0a379f42f4c7397e","3","40","6837","","","","","","","","","","0","start_train","","","","","","","","","","","","","","","","","","","","","","","","",""
"","","","","","","","","","","","html-button-response","106","2.0.0","333897","663fcdfa0a379f42f4c7397e","3","40","5151","","","","","","","","","<img src= ""rock_img/I_Basalt_05.jpg"" style=""width:8cm; height:8.18cm;""><p>What type of rock is this?</p>","4","class_response","1","train","1","Obsidian","Basalt","05","false","5","2","","","","","","","","","","","","","","","",""
"","","","","","","","","","","","html-button-response","107","2.0.0","344036","663fcdfa0a379f42f4c7397e","3","40","10136","","","","","","","","","<img src= rock_img/I_Basalt_05.jpg style=""width:8cm; height:8.18cm;""><p style='font-size: 30px; color: red;'><strong>Incorrect!</strong></p><p style='font-size: 30px;'><strong>This rock is basalt</strong></p>","0","corr_feedback","1","train","1","","","","","","","","","","","","","","","","","","","","","",""
"","","","","","","","","","","","html-button-response","108","2.0.0","349501","663fcdfa0a379f42f4c7397e","3","40","5462","","","","","","","","","<img src= ""rock_img/I_Gabbro_11.jpg"" style=""width:8cm; height:6.2cm;""><p>What type of rock is this?</p>","6","class_response","1","train","2","Peridotite","Gabbro","11","false","7","4","","","","","","","","","","","","","","","",""
"","","","","","","","","","","","html-button-response","109","2.0.0","356050","663fcdfa0a379f42f4c7397e","3","40","6547","","","","","","","","","<img src= rock_img/I_Gabbro_11.jpg style=""width:8cm; height:6.2cm;""><p style='font-size: 30px; color: red;'><strong>Incorrect!</strong></p><p style='font-size: 30px;'><strong>This rock is gabbro</strong></p>","0","corr_feedback","1","train","2","","","","","","","","","","","","","","","","","","","","","",""
"","","","","","","","","","","","html-button-response","110","2.0.0","358978","663fcdfa0a379f42f4c7397e","3","40","2925","","","","","","","","","<img src= ""rock_img/I_Obsidian_09.jpg"" style=""width:8cm; height:5cm;""><p>What type of rock is this?</p>","4","class_response","1","train","3","Obsidian","Obsidian","09","true","5","5","","","","","","","","","","","","","","","",""
"","","","","","","","","","","","html-button-response","111","2.0.0","363826","663fcdfa0a379f42f4c7397e","3","40","4846","","","","","","","","","<img src= rock_img/I_Obsidian_09.jpg style=""width:8cm; height:5cm;""><p style='font-size: 30px; color: green;'><strong>Correct!</strong></p><p style='font-size: 30px;'><strong>This rock is obsidian</strong></p>","0","corr_feedback","1","train","3","","","","","","","","","","","","","","","","","","","","","",""
"","","","","","","","","","","","html-button-response","112","2.0.0","368874","663fcdfa0a379f42f4c7397e","3","40","5045","","","","","","","","","<img src= ""rock_img/I_Pegmatite_07.jpg"" style=""width:8cm; height:6.7cm;""><p>What type of rock is this?</p>","2","class_response","1","train","4","Diorite","Pegmatite","07","false","3","6","","","","","","","","","","","","","","","",""
"","","","","","","","","","","","html-button-response","113","2.0.0","373430","663fcdfa0a379f42f4c7397e","3","40","4553","","","","","","","","","<img src= rock_img/I_Pegmatite_07.jpg style=""width:8cm; height:6.7cm;""><p style='font-size: 30px; color: red;'><strong>Incorrect!</strong></p><p style='font-size: 30px;'><strong>This rock is pegmatite</strong></p>","0","corr_feedback","1","train","4","","","","","","","","","","","","","","","","","","","","","",""
"","","","","","","","","","","","html-button-response","114","2.0.0","376458","663fcdfa0a379f42f4c7397e","3","40","3026","","","","","","","","","<img src= ""rock_img/I_Basalt_14.jpg"" style=""width:8cm; height:5.82cm;""><p>What type of rock is this?</p>","0","class_response","1","train","5","Andesite","Basalt","14","false","1","2","","","","","","","","","","","","","","","",""
"","","","","","","","","","","","html-button-response","115","2.0.0","379807","663fcdfa0a379f42f4c7397e","3","40","3346","","","","","","","","","<img src= rock_img/I_Basalt_14.jpg style=""width:8cm; height:5.82cm;""><p style='font-size: 30px; color: red;'><strong>Incorrect!</strong></p><p style='font-size: 30px;'><strong>This rock is basalt</strong></p>","0","corr_feedback","1","train","5","","","","","","","","","","","","","","","","","","","","","",""
"","","","","","","","","","","","html-button-response","116","2.0.0","383822","663fcdfa0a379f42f4c7397e","3","40","4013","","","","","","","","","<img src= ""rock_img/I_Gabbro_01.jpg"" style=""width:8cm; height:5.21cm;""><p>What type of rock is this?</p>","6","class_response","1","train","6","Peridotite","Gabbro","01","false","7","4","","","","","","","","","","","","","","","",""
"","","","","","","","","","","","html-button-response","117","2.0.0","387441","663fcdfa0a379f42f4c7397e","3","40","3616","","","","","","","","","<img src= rock_img/I_Gabbro_01.jpg style=""width:8cm; height:5.21cm;""><p style='font-size: 30px; color: red;'><strong>Incorrect!</strong></p><p style='font-size: 30px;'><strong>This rock is gabbro</strong></p>","0","corr_feedback","1","train","6","","","","","","","","","","","","","","","","","","","","","",""
"","","","","","","","","","","","html-button-response","118","2.0.0","391322","663fcdfa0a379f42f4c7397e","3","40","3878","","","","","","","","","<img src= ""rock_img/I_Andesite_02.jpg"" style=""width:8cm; height:8.5cm;""><p>What type of rock is this?</p>","7","class_response","1","train","7","Pumice","Andesite","02","false","8","1","","","","","","","","","","","","","","","",""
"","","","","","","","","","","","html-button-response","119","2.0.0","395131","663fcdfa0a379f42f4c7397e","3","40","3807","","","","","","","","","<img src= rock_img/I_Andesite_02.jpg style=""width:8cm; height:8.5cm;""><p style='font-size: 30px; color: red;'><strong>Incorrect!</strong></p><p style='font-size: 30px;'><strong>This rock is andesite</strong></p>","0","corr_feedback","1","train","7","","","","","","","","","","","","","","","","","","","","","",""
"","","","","","","","","","","","html-button-response","120","2.0.0","399757","663fcdfa0a379f42f4c7397e","3","40","4623","","","","","","","","","<img src= ""rock_img/I_Pumice_10.jpg"" style=""width:8cm; height:7.609999999999999cm;""><p>What type of rock is this?</p>","7","class_response","1","train","8","Pumice","Pumice","10","true","8","8","","","","","","","","","","","","","","","",""
"","","","","","","","","","","","html-button-response","121","2.0.0","402744","663fcdfa0a379f42f4c7397e","3","40","2986","","","","","","","","","<img src= rock_img/I_Pumice_10.jpg style=""width:8cm; height:7.609999999999999cm;""><p style='font-size: 30px; color: green;'><strong>Correct!</strong></p><p style='font-size: 30px;'><strong>This rock is pumice</strong></p>","0","corr_feedback","1","train","8","","","","","","","","","","","","","","","","","","","","","",""
"","","","","","","","","","","","html-button-response","122","2.0.0","407556","663fcdfa0a379f42f4c7397e","3","40","4809","","","","","","","","","<img src= ""rock_img/I_Diorite_06.jpg"" style=""width:8cm; height:6.03cm;""><p>What type of rock is this?</p>","3","class_response","1","train","9","Gabbro","Diorite","06","false","4","3","","","","","","","","","","","","","","","",""
"","","","","","","","","","","","html-button-response","123","2.0.0","410868","663fcdfa0a379f42f4c7397e","3","40","3310","","","","","","","","","<img src= rock_img/I_Diorite_06.jpg style=""width:8cm; height:6.03cm;""><p style='font-size: 30px; color: red;'><strong>Incorrect!</strong></p><p style='font-size: 30px;'><strong>This rock is diorite</strong></p>","0","corr_feedback","1","train","9","","","","","","","","","","","","","","","","","","","","","",""
"","","","","","","","","","","","html-button-response","124","2.0.0","417431","663fcdfa0a379f42f4c7397e","3","40","6560","","","","","","","","","<img src= ""rock_img/I_Andesite_03.jpg"" style=""width:8cm; height:5.73cm;""><p>What type of rock is this?</p>","0","class_response","1","train","10","Andesite","Andesite","03","true","1","1","","","","","","","","","","","","","","","",""
"","","","","","","","","","","","html-button-response","125","2.0.0","421809","663fcdfa0a379f42f4c7397e","3","40","4375","","","","","","","","","<img src= rock_img/I_Andesite_03.jpg style=""width:8cm; height:5.73cm;""><p style='font-size: 30px; color: green;'><strong>Correct!</strong></p><p style='font-size: 30px;'><strong>This rock is andesite</strong></p>","0","corr_feedback","1","train","10","","","","","","","","","","","","","","","","","","","","","",""
"","","","","","","","","","","","html-button-response","126","2.0.0","426500","663fcdfa0a379f42f4c7397e","3","40","4689","","","","","","","","","<img src= ""rock_img/I_Peridotite_08.jpg"" style=""width:8cm; height:6.7cm;""><p>What type of rock is this?</p>","2","class_response","1","train","11","Diorite","Peridotite","08","false","3","7","","","","","","","","","","","","","","","",""
"","","","","","","","","","","","html-button-response","127","2.0.0","428940","663fcdfa0a379f42f4c7397e","3","40","2437","","","","","","","","","<img src= rock_img/I_Peridotite_08.jpg style=""width:8cm; height:6.7cm;""><p style='font-size: 30px; color: red;'><strong>Incorrect!</strong></p><p style='font-size: 30px;'><strong>This rock is peridotite</strong></p>","0","corr_feedback","1","train","11","","","","","","","","","","","","","","","","","","","","","",""
"","","","","","","","","","","","html-button-response","128","2.0.0","433617","663fcdfa0a379f42f4c7397e","3","40","4675","","","","","","","","","<img src= ""rock_img/I_Obsidian_06.jpg"" style=""width:8cm; height:6.8cm;""><p>What type of rock is this?</p>","5","class_response","1","train","12","Pegmatite","Obsidian","06","false","6","5","","","","","","","","","","","","","","","",""
"","","","","","","","","","","","html-button-response","129","2.0.0","438742","663fcdfa0a379f42f4c7397e","3","40","5123","","","","","","","","","<img src= rock_img/I_Obsidian_06.jpg style=""width:8cm; height:6.8cm;""><p style='font-size: 30px; color: red;'><strong>Incorrect!</strong></p><p style='font-size: 30px;'><strong>This rock is obsidian</strong></p>","0","corr_feedback","1","train","12","","","","","","","","","","","","","","","","","","","","","",""
"","","","","","","","","","","","instructions","130","2.0.0","550834","663fcdfa0a379f42f4c7397e","3","40","112090","","","","","","","","[{""page_index"":0,""viewing_time"":8083},{""page_index"":1,""viewing_time"":48727},{""page_index"":2,""viewing_time"":46536},{""page_index"":3,""viewing_time"":8743}]","","","","","","","","","","","","","","","","","","","","","","","","","","","",""
"","","","","","","","","","","","html-button-response","131","2.0.0","552952","663fcdfa0a379f42f4c7397e","3","40","2116","","","","","","","","","","0","start_train","","","","","","","","","","","","","","","","","","","","","","","","",""
"","","","","","","","","","","","html-button-response","132","2.0.0","562067","663fcdfa0a379f42f4c7397e","3","40","","","","","","","","","","","","cat_selection","1","train","1","","","","","","","1","8","9111.300000000745","Andesite","Pumice","[0.1534090909090909,0.1534090909090909,0.1534090909090909,0.1306818181818182,0.06250000000000001,0.10795454545454547,0.1306818181818182,0.10795454545454547]","[null,0.05496030698730767,0.044163660014689896,0.05448154164644045,0.1632957678381118,0.14852243731992348,0.16157612089948667,0.37300016529404]","","","","","","","","",""
"","","","","","","","","","","","paired-cat-display","133","1.0.0","658648","663fcdfa0a379f42f4c7397e","3","40","","","","","","","","","","","","paired_cat_display","1","train","1","","","","","","","","","8440.900000002235","","","","","shiny, speckles, gray, more solid looking","holes, warmer in color, rough,","88135","","","","","",""
"","","","","","","","","","","","html-button-response","134","2.0.0","665815","663fcdfa0a379f42f4c7397e","3","40","","","","","","","","","","","","cat_selection","1","train","2","","","","","","","2","3","7164.300000000745","Basalt","Diorite","[0.1534090909090909,0.1534090909090909,0.1534090909090909,0.1306818181818182,0.06250000000000001,0.10795454545454547,0.1306818181818182,0.10795454545454547]","[0.1608448395161266,null,0.3567079317463843,0.15921046432652425,0.05948719634204867,0.04470675984477516,0.05785282115244632,0.1611899870716948]","","","","","","","","",""
"","","","","","","","","","","","paired-cat-display","135","1.0.0","721002","663fcdfa0a379f42f4c7397e","3","40","","","","","","","","","","","","paired_cat_display","1","train","2","","","","","","","","","11122","","","","","","","44058.199999999255","smoother, darker colors","multi colored, holes, ","","","",""
"","","","","","","","","","","","html-button-response","136","2.0.0","727541","663fcdfa0a379f42f4c7397e","3","40","","","","","","","","","","","","cat_selection","1","train","3","","","","","","","1","3","6537.300000000745","Andesite","Diorite","[0.1534090909090909,0.1534090909090909,0.1534090909090909,0.1306818181818182,0.06250000000000001,0.10795454545454547,0.1306818181818182,0.10795454545454547]","[null,0.05496030698730767,0.044163660014689896,0.05448154164644045,0.1632957678381118,0.14852243731992348,0.16157612089948667,0.37300016529404]","","","","","","","","",""
"","","","","","","","","","","","paired-cat-display","137","1.0.0","806695","663fcdfa0a379f42f4c7397e","3","40","","","","","","","","","","","","paired_cat_display","1","train","3","","","","","","","","","13441.60000000149","","","","","speckles, gray in color","","65707","","warm colors, rough","","","",""
"","","","","","","","","","","","instructions","138","2.0.0","834862","663fcdfa0a379f42f4c7397e","3","40","28166","","","","","","","","[{""page_index"":0,""viewing_time"":9879},{""page_index"":1,""viewing_time"":18286}]","","","","","","","","","","","","","","","","","","","","","","","","","","","",""
"","","","","","","","","","","","html-button-response","139","2.0.0","837442","663fcdfa0a379f42f4c7397e","3","40","2578","","","","","","","","","","0","start_test","","","","","","","","","","","","","","","","","","","","","","","","",""
"","","","","","","","","","","","html-button-response","140","2.0.0","855386","663fcdfa0a379f42f4c7397e","3","40","17941","","","","","","","","","<img src= ""rock_img/I_Andesite_11.jpg"" style=""width:8cm; height:4.92cm;""><p>What type of rock is this?</p>","0","class_response","1","test","1","Andesite","Andesite","11","true","1","1","","","","","","","","","","","","","","","",""
"","","","","","","","","","","","html-keyboard-response","141","2.0.0","855889","663fcdfa0a379f42f4c7397e","3","40","null","","","","","","","","","<p style='font-size: 30px;'><strong>Okay</strong></p>","null","neutral_feedback","1","test","1","","","","","","","","","","","","","","","","","","","","","",""
"","","","","","","","","","","","html-button-response","142","2.0.0","865219","663fcdfa0a379f42f4c7397e","3","40","9327","","","","","","","","","<img src= ""rock_img/I_Andesite_16.jpg"" style=""width:8cm; height:6.010000000000001cm;""><p>What type of rock is this?</p>","7","class_response","1","test","2","Pumice","Andesite","16","false","8","1","","","","","","","","","","","","","","","",""
"","","","","","","","","","","","html-keyboard-response","143","2.0.0","865721","663fcdfa0a379f42f4c7397e","3","40","null","","","","","","","","","<p style='font-size: 30px;'><strong>Okay</strong></p>","null","neutral_feedback","1","test","2","","","","","","","","","","","","","","","","","","","","","",""
"","","","","","","","","","","","html-button-response","144","2.0.0","871362","663fcdfa0a379f42f4c7397e","3","40","5638","","","","","","","","","<img src= ""rock_img/I_Basalt_04.jpg"" style=""width:8cm; height:7.53cm;""><p>What type of rock is this?</p>","4","class_response","1","test","3","Obsidian","Basalt","04","false","5","2","","","","","","","","","","","","","","","",""
"","","","","","","","","","","","html-keyboard-response","145","2.0.0","871864","663fcdfa0a379f42f4c7397e","3","40","null","","","","","","","","","<p style='font-size: 30px;'><strong>Okay</strong></p>","null","neutral_feedback","1","test","3","","","","","","","","","","","","","","","","","","","","","",""
"","","","","","","","","","","","html-button-response","146","2.0.0","875535","663fcdfa0a379f42f4c7397e","3","40","3668","","","","","","","","","<img src= ""rock_img/I_Obsidian_16.jpg"" style=""width:8cm; height:9.3cm;""><p>What type of rock is this?</p>","4","class_response","1","test","4","Obsidian","Obsidian","16","true","5","5","","","","","","","","","","","","","","","",""
"","","","","","","","","","","","html-keyboard-response","147","2.0.0","876037","663fcdfa0a379f42f4c7397e","3","40","null","","","","","","","","","<p style='font-size: 30px;'><strong>Okay</strong></p>","null","neutral_feedback","1","test","4","","","","","","","","","","","","","","","","","","","","","",""
"","","","","","","","","","","","html-button-response","148","2.0.0","887786","663fcdfa0a379f42f4c7397e","3","40","11746","","","","","","","","","<img src= ""rock_img/I_Pegmatite_13.jpg"" style=""width:8cm; height:4.95cm;""><p>What type of rock is this?</p>","6","class_response","1","test","5","Peridotite","Pegmatite","13","false","7","6","","","","","","","","","","","","","","","",""
"","","","","","","","","","","","html-keyboard-response","149","2.0.0","888288","663fcdfa0a379f42f4c7397e","3","40","null","","","","","","","","","<p style='font-size: 30px;'><strong>Okay</strong></p>","null","neutral_feedback","1","test","5","","","","","","","","","","","","","","","","","","","","","",""
"","","","","","","","","","","","html-button-response","150","2.0.0","893438","663fcdfa0a379f42f4c7397e","3","40","5147","","","","","","","","","<img src= ""rock_img/I_Pumice_04.jpg"" style=""width:8cm; height:6.819999999999999cm;""><p>What type of rock is this?</p>","7","class_response","1","test","6","Pumice","Pumice","04","true","8","8","","","","","","","","","","","","","","","",""
"","","","","","","","","","","","html-keyboard-response","151","2.0.0","893940","663fcdfa0a379f42f4c7397e","3","40","null","","","","","","","","","<p style='font-size: 30px;'><strong>Okay</strong></p>","null","neutral_feedback","1","test","6","","","","","","","","","","","","","","","","","","","","","",""
"","","","","","","","","","","","html-button-response","152","2.0.0","901060","663fcdfa0a379f42f4c7397e","3","40","7117","","","","","","","","","<img src= ""rock_img/I_Pegmatite_06.jpg"" style=""width:8cm; height:5.17cm;""><p>What type of rock is this?</p>","1","class_response","1","test","7","Basalt","Pegmatite","06","false","2","6","","","","","","","","","","","","","","","",""
"","","","","","","","","","","","html-keyboard-response","153","2.0.0","901561","663fcdfa0a379f42f4c7397e","3","40","null","","","","","","","","","<p style='font-size: 30px;'><strong>Okay</strong></p>","null","neutral_feedback","1","test","7","","","","","","","","","","","","","","","","","","","","","",""
"","","","","","","","","","","","html-button-response","154","2.0.0","909590","663fcdfa0a379f42f4c7397e","3","40","8027","","","","","","","","","<img src= ""rock_img/I_Pumice_13.jpg"" style=""width:8cm; height:8.200000000000001cm;""><p>What type of rock is this?</p>","6","class_response","1","test","8","Peridotite","Pumice","13","false","7","8","","","","","","","","","","","","","","","",""
"","","","","","","","","","","","html-keyboard-response","155","2.0.0","910092","663fcdfa0a379f42f4c7397e","3","40","null","","","","","","","","","<p style='font-size: 30px;'><strong>Okay</strong></p>","null","neutral_feedback","1","test","8","","","","","","","","","","","","","","","","","","","","","",""
"","","","","","","","","","","","html-button-response","156","2.0.0","916018","663fcdfa0a379f42f4c7397e","3","40","5922","","","","","","","","","<img src= ""rock_img/I_Peridotite_16.jpg"" style=""width:8cm; height:6.989999999999999cm;""><p>What type of rock is this?</p>","0","class_response","1","test","9","Andesite","Peridotite","16","false","1","7","","","","","","","","","","","","","","","",""
"","","","","","","","","","","","html-keyboard-response","157","2.0.0","916520","663fcdfa0a379f42f4c7397e","3","40","null","","","","","","","","","<p style='font-size: 30px;'><strong>Okay</strong></p>","null","neutral_feedback","1","test","9","","","","","","","","","","","","","","","","","","","","","",""
"","","","","","","","","","","","html-button-response","158","2.0.0","923269","663fcdfa0a379f42f4c7397e","3","40","6746","","","","","","","","","<img src= ""rock_img/I_Peridotite_12.jpg"" style=""width:8cm; height:4.54cm;""><p>What type of rock is this?</p>","0","class_response","1","test","10","Andesite","Peridotite","12","false","1","7","","","","","","","","","","","","","","","",""
"","","","","","","","","","","","html-keyboard-response","159","2.0.0","923771","663fcdfa0a379f42f4c7397e","3","40","null","","","","","","","","","<p style='font-size: 30px;'><strong>Okay</strong></p>","null","neutral_feedback","1","test","10","","","","","","","","","","","","","","","","","","","","","",""
"","","","","","","","","","","","html-button-response","160","2.0.0","926797","663fcdfa0a379f42f4c7397e","3","40","3023","","","","","","","","","<img src= ""rock_img/I_Obsidian_04.jpg"" style=""width:8cm; height:6.930000000000001cm;""><p>What type of rock is this?</p>","4","class_response","1","test","11","Obsidian","Obsidian","04","true","5","5","","","","","","","","","","","","","","","",""
"","","","","","","","","","","","html-keyboard-response","161","2.0.0","927298","663fcdfa0a379f42f4c7397e","3","40","null","","","","","","","","","<p style='font-size: 30px;'><strong>Okay</strong></p>","null","neutral_feedback","1","test","11","","","","","","","","","","","","","","","","","","","","","",""
"","","","","","","","","","","","html-button-response","162","2.0.0","930344","663fcdfa0a379f42f4c7397e","3","40","3043","","","","","","","","","<img src= ""rock_img/I_Pumice_02.jpg"" style=""width:8cm; height:7.3999999999999995cm;""><p>What type of rock is this?</p>","7","class_response","1","test","12","Pumice","Pumice","02","true","8","8","","","","","","","","","","","","","","","",""
"","","","","","","","","","","","html-keyboard-response","163","2.0.0","930846","663fcdfa0a379f42f4c7397e","3","40","null","","","","","","","","","<p style='font-size: 30px;'><strong>Okay</strong></p>","null","neutral_feedback","1","test","12","","","","","","","","","","","","","","","","","","","","","",""
"","","","","","","","","","","","html-button-response","164","2.0.0","935832","663fcdfa0a379f42f4c7397e","3","40","4983","","","","","","","","","<img src= ""rock_img/I_Gabbro_03.jpg"" style=""width:8cm; height:8.52cm;""><p>What type of rock is this?</p>","6","class_response","1","test","13","Peridotite","Gabbro","03","false","7","4","","","","","","","","","","","","","","","",""
"","","","","","","","","","","","html-keyboard-response","165","2.0.0","936334","663fcdfa0a379f42f4c7397e","3","40","null","","","","","","","","","<p style='font-size: 30px;'><strong>Okay</strong></p>","null","neutral_feedback","1","test","13","","","","","","","","","","","","","","","","","","","","","",""
"","","","","","","","","","","","html-button-response","166","2.0.0","939424","663fcdfa0a379f42f4c7397e","3","40","3086","","","","","","","","","<img src= ""rock_img/I_Pumice_08.jpg"" style=""width:8cm; height:6.67cm;""><p>What type of rock is this?</p>","7","class_response","1","test","14","Pumice","Pumice","08","true","8","8","","","","","","","","","","","","","","","",""
"","","","","","","","","","","","html-keyboard-response","167","2.0.0","939926","663fcdfa0a379f42f4c7397e","3","40","null","","","","","","","","","<p style='font-size: 30px;'><strong>Okay</strong></p>","null","neutral_feedback","1","test","14","","","","","","","","","","","","","","","","","","","","","",""
"","","","","","","","","","","","html-button-response","168","2.0.0","946143","663fcdfa0a379f42f4c7397e","3","40","6214","","","","","","","","","<img src= ""rock_img/I_Basalt_02.jpg"" style=""width:8cm; height:6.45cm;""><p>What type of rock is this?</p>","6","class_response","1","test","15","Peridotite","Basalt","02","false","7","2","","","","","","","","","","","","","","","",""
"","","","","","","","","","","","html-keyboard-response","169","2.0.0","946645","663fcdfa0a379f42f4c7397e","3","40","null","","","","","","","","","<p style='font-size: 30px;'><strong>Okay</strong></p>","null","neutral_feedback","1","test","15","","","","","","","","","","","","","","","","","","","","","",""
"","","","","","","","","","","","html-button-response","170","2.0.0","950823","663fcdfa0a379f42f4c7397e","3","40","4175","","","","","","","","","<img src= ""rock_img/I_Andesite_07.jpg"" style=""width:8cm; height:5.93cm;""><p>What type of rock is this?</p>","1","class_response","1","test","16","Basalt","Andesite","07","false","2","1","","","","","","","","","","","","","","","",""
"","","","","","","","","","","","html-keyboard-response","171","2.0.0","951325","663fcdfa0a379f42f4c7397e","3","40","null","","","","","","","","","<p style='font-size: 30px;'><strong>Okay</strong></p>","null","neutral_feedback","1","test","16","","","","","","","","","","","","","","","","","","","","","",""
"","","","","","","","","","","","html-button-response","172","2.0.0","953138","663fcdfa0a379f42f4c7397e","3","40","1810","","","","","","","","","<img src= ""rock_img/I_Obsidian_10.jpg"" style=""width:8cm; height:6.260000000000001cm;""><p>What type of rock is this?</p>","4","class_response","1","test","17","Obsidian","Obsidian","10","true","5","5","","","","","","","","","","","","","","","",""
"","","","","","","","","","","","html-keyboard-response","173","2.0.0","953640","663fcdfa0a379f42f4c7397e","3","40","null","","","","","","","","","<p style='font-size: 30px;'><strong>Okay</strong></p>","null","neutral_feedback","1","test","17","","","","","","","","","","","","","","","","","","","","","",""
"","","","","","","","","","","","html-button-response","174","2.0.0","959091","663fcdfa0a379f42f4c7397e","3","40","5448","","","","","","","","","<img src= ""rock_img/I_Pegmatite_12.jpg"" style=""width:8cm; height:5.7cm;""><p>What type of rock is this?</p>","0","class_response","1","test","18","Andesite","Pegmatite","12","false","1","6","","","","","","","","","","","","","","","",""
"","","","","","","","","","","","html-keyboard-response","175","2.0.0","959593","663fcdfa0a379f42f4c7397e","3","40","null","","","","","","","","","<p style='font-size: 30px;'><strong>Okay</strong></p>","null","neutral_feedback","1","test","18","","","","","","","","","","","","","","","","","","","","","",""
"","","","","","","","","","","","html-button-response","176","2.0.0","967083","663fcdfa0a379f42f4c7397e","3","40","7487","","","","","","","","","<img src= ""rock_img/I_Diorite_12.jpg"" style=""width:8cm; height:4.88cm;""><p>What type of rock is this?</p>","6","class_response","1","test","19","Peridotite","Diorite","12","false","7","3","","","","","","","","","","","","","","","",""
"","","","","","","","","","","","html-keyboard-response","177","2.0.0","967585","663fcdfa0a379f42f4c7397e","3","40","null","","","","","","","","","<p style='font-size: 30px;'><strong>Okay</strong></p>","null","neutral_feedback","1","test","19","","","","","","","","","","","","","","","","","","","","","",""
"","","","","","","","","","","","html-button-response","178","2.0.0","972585","663fcdfa0a379f42f4c7397e","3","40","4998","","","","","","","","","<img src= ""rock_img/I_Peridotite_13.jpg"" style=""width:8cm; height:7.58cm;""><p>What type of rock is this?</p>","5","class_response","1","test","20","Pegmatite","Peridotite","13","false","6","7","","","","","","","","","","","","","","","",""
"","","","","","","","","","","","html-keyboard-response","179","2.0.0","973087","663fcdfa0a379f42f4c7397e","3","40","null","","","","","","","","","<p style='font-size: 30px;'><strong>Okay</strong></p>","null","neutral_feedback","1","test","20","","","","","","","","","","","","","","","","","","","","","",""
"","","","","","","","","","","","html-button-response","180","2.0.0","976154","663fcdfa0a379f42f4c7397e","3","40","3065","","","","","","","","","<img src= ""rock_img/I_Diorite_08.jpg"" style=""width:8cm; height:6.37cm;""><p>What type of rock is this?</p>","0","class_response","1","test","21","Andesite","Diorite","08","false","1","3","","","","","","","","","","","","","","","",""
"","","","","","","","","","","","html-keyboard-response","181","2.0.0","976656","663fcdfa0a379f42f4c7397e","3","40","null","","","","","","","","","<p style='font-size: 30px;'><strong>Okay</strong></p>","null","neutral_feedback","1","test","21","","","","","","","","","","","","","","","","","","","","","",""
"","","","","","","","","","","","html-button-response","182","2.0.0","983087","663fcdfa0a379f42f4c7397e","3","40","6428","","","","","","","","","<img src= ""rock_img/I_Pegmatite_11.jpg"" style=""width:8cm; height:8.14cm;""><p>What type of rock is this?</p>","6","class_response","1","test","22","Peridotite","Pegmatite","11","false","7","6","","","","","","","","","","","","","","","",""
"","","","","","","","","","","","html-keyboard-response","183","2.0.0","983589","663fcdfa0a379f42f4c7397e","3","40","null","","","","","","","","","<p style='font-size: 30px;'><strong>Okay</strong></p>","null","neutral_feedback","1","test","22","","","","","","","","","","","","","","","","","","","","","",""
"","","","","","","","","","","","html-button-response","184","2.0.0","986100","663fcdfa0a379f42f4c7397e","3","40","2508","","","","","","","","","<img src= ""rock_img/I_Gabbro_05.jpg"" style=""width:8cm; height:6cm;""><p>What type of rock is this?</p>","5","class_response","1","test","23","Pegmatite","Gabbro","05","false","6","4","","","","","","","","","","","","","","","",""
"","","","","","","","","","","","html-keyboard-response","185","2.0.0","986602","663fcdfa0a379f42f4c7397e","3","40","null","","","","","","","","","<p style='font-size: 30px;'><strong>Okay</strong></p>","null","neutral_feedback","1","test","23","","","","","","","","","","","","","","","","","","","","","",""
"","","","","","","","","","","","html-button-response","186","2.0.0","988951","663fcdfa0a379f42f4c7397e","3","40","2346","","","","","","","","","<img src= ""rock_img/I_Peridotite_10.jpg"" style=""width:8cm; height:5.390000000000001cm;""><p>What type of rock is this?</p>","1","class_response","1","test","24","Basalt","Peridotite","10","false","2","7","","","","","","","","","","","","","","","",""
"","","","","","","","","","","","html-keyboard-response","187","2.0.0","989453","663fcdfa0a379f42f4c7397e","3","40","null","","","","","","","","","<p style='font-size: 30px;'><strong>Okay</strong></p>","null","neutral_feedback","1","test","24","","","","","","","","","","","","","","","","","","","","","",""
"","","","","","","","","","","","html-button-response","188","2.0.0","992606","663fcdfa0a379f42f4c7397e","3","40","3151","","","","","","","","","<img src= ""rock_img/I_Basalt_16.jpg"" style=""width:8cm; height:7.659999999999999cm;""><p>What type of rock is this?</p>","2","class_response","1","test","25","Diorite","Basalt","16","false","3","2","","","","","","","","","","","","","","","",""
"","","","","","","","","","","","html-keyboard-response","189","2.0.0","993108","663fcdfa0a379f42f4c7397e","3","40","null","","","","","","","","","<p style='font-size: 30px;'><strong>Okay</strong></p>","null","neutral_feedback","1","test","25","","","","","","","","","","","","","","","","","","","","","",""
"","","","","","","","","","","","html-button-response","190","2.0.0","995500","663fcdfa0a379f42f4c7397e","3","40","2390","","","","","","","","","<img src= ""rock_img/I_Diorite_02.jpg"" style=""width:8cm; height:6.27cm;""><p>What type of rock is this?</p>","0","class_response","1","test","26","Andesite","Diorite","02","false","1","3","","","","","","","","","","","","","","","",""
"","","","","","","","","","","","html-keyboard-response","191","2.0.0","996002","663fcdfa0a379f42f4c7397e","3","40","null","","","","","","","","","<p style='font-size: 30px;'><strong>Okay</strong></p>","null","neutral_feedback","1","test","26","","","","","","","","","","","","","","","","","","","","","",""
"","","","","","","","","","","","html-button-response","192","2.0.0","999508","663fcdfa0a379f42f4c7397e","3","40","3504","","","","","","","","","<img src= ""rock_img/I_Andesite_01.jpg"" style=""width:8cm; height:5.87cm;""><p>What type of rock is this?</p>","4","class_response","1","test","27","Obsidian","Andesite","01","false","5","1","","","","","","","","","","","","","","","",""
"","","","","","","","","","","","html-keyboard-response","193","2.0.0","1000010","663fcdfa0a379f42f4c7397e","3","40","null","","","","","","","","","<p style='font-size: 30px;'><strong>Okay</strong></p>","null","neutral_feedback","1","test","27","","","","","","","","","","","","","","","","","","","","","",""
"","","","","","","","","","","","html-button-response","194","2.0.0","1004181","663fcdfa0a379f42f4c7397e","3","40","4168","","","","","","","","","<img src= ""rock_img/I_Diorite_16.jpg"" style=""width:8cm; height:6.74cm;""><p>What type of rock is this?</p>","2","class_response","1","test","28","Diorite","Diorite","16","true","3","3","","","","","","","","","","","","","","","",""
"","","","","","","","","","","","html-keyboard-response","195","2.0.0","1004683","663fcdfa0a379f42f4c7397e","3","40","null","","","","","","","","","<p style='font-size: 30px;'><strong>Okay</strong></p>","null","neutral_feedback","1","test","28","","","","","","","","","","","","","","","","","","","","","",""
"","","","","","","","","","","","html-button-response","196","2.0.0","1010416","663fcdfa0a379f42f4c7397e","3","40","5730","","","","","","","","","<img src= ""rock_img/I_Pumice_15.jpg"" style=""width:8cm; height:7.86cm;""><p>What type of rock is this?</p>","5","class_response","1","test","29","Pegmatite","Pumice","15","false","6","8","","","","","","","","","","","","","","","",""
"","","","","","","","","","","","html-keyboard-response","197","2.0.0","1010918","663fcdfa0a379f42f4c7397e","3","40","null","","","","","","","","","<p style='font-size: 30px;'><strong>Okay</strong></p>","null","neutral_feedback","1","test","29","","","","","","","","","","","","","","","","","","","","","",""
"","","","","","","","","","","","html-button-response","198","2.0.0","1014361","663fcdfa0a379f42f4c7397e","3","40","3439","","","","","","","","","<img src= ""rock_img/I_Basalt_08.jpg"" style=""width:8cm; height:10.44cm;""><p>What type of rock is this?</p>","4","class_response","1","test","30","Obsidian","Basalt","08","false","5","2","","","","","","","","","","","","","","","",""
"","","","","","","","","","","","html-keyboard-response","199","2.0.0","1014863","663fcdfa0a379f42f4c7397e","3","40","null","","","","","","","","","<p style='font-size: 30px;'><strong>Okay</strong></p>","null","neutral_feedback","1","test","30","","","","","","","","","","","","","","","","","","","","","",""
"","","","","","","","","","","","html-button-response","200","2.0.0","1017262","663fcdfa0a379f42f4c7397e","3","40","2396","","","","","","","","","<img src= ""rock_img/I_Basalt_06.jpg"" style=""width:8cm; height:7.06cm;""><p>What type of rock is this?</p>","4","class_response","1","test","31","Obsidian","Basalt","06","false","5","2","","","","","","","","","","","","","","","",""
"","","","","","","","","","","","html-keyboard-response","201","2.0.0","1017764","663fcdfa0a379f42f4c7397e","3","40","null","","","","","","","","","<p style='font-size: 30px;'><strong>Okay</strong></p>","null","neutral_feedback","1","test","31","","","","","","","","","","","","","","","","","","","","","",""
"","","","","","","","","","","","html-button-response","202","2.0.0","1021259","663fcdfa0a379f42f4c7397e","3","40","3491","","","","","","","","","<img src= ""rock_img/I_Peridotite_07.jpg"" style=""width:8cm; height:4.83cm;""><p>What type of rock is this?</p>","6","class_response","1","test","32","Peridotite","Peridotite","07","true","7","7","","","","","","","","","","","","","","","",""
"","","","","","","","","","","","html-keyboard-response","203","2.0.0","1021761","663fcdfa0a379f42f4c7397e","3","40","null","","","","","","","","","<p style='font-size: 30px;'><strong>Okay</strong></p>","null","neutral_feedback","1","test","32","","","","","","","","","","","","","","","","","","","","","",""
"","","","","","","","","","","","html-button-response","204","2.0.0","1024670","663fcdfa0a379f42f4c7397e","3","40","2906","","","","","","","","","<img src= ""rock_img/I_Gabbro_08.jpg"" style=""width:8cm; height:5.15cm;""><p>What type of rock is this?</p>","2","class_response","1","test","33","Diorite","Gabbro","08","false","3","4","","","","","","","","","","","","","","","",""
"","","","","","","","","","","","html-keyboard-response","205","2.0.0","1025172","663fcdfa0a379f42f4c7397e","3","40","null","","","","","","","","","<p style='font-size: 30px;'><strong>Okay</strong></p>","null","neutral_feedback","1","test","33","","","","","","","","","","","","","","","","","","","","","",""
"","","","","","","","","","","","html-button-response","206","2.0.0","1029782","663fcdfa0a379f42f4c7397e","3","40","4607","","","","","","","","","<img src= ""rock_img/I_Peridotite_06.jpg"" style=""width:8cm; height:7.53cm;""><p>What type of rock is this?</p>","5","class_response","1","test","34","Pegmatite","Peridotite","06","false","6","7","","","","","","","","","","","","","","","",""
"","","","","","","","","","","","html-keyboard-response","207","2.0.0","1030284","663fcdfa0a379f42f4c7397e","3","40","null","","","","","","","","","<p style='font-size: 30px;'><strong>Okay</strong></p>","null","neutral_feedback","1","test","34","","","","","","","","","","","","","","","","","","","","","",""
"","","","","","","","","","","","html-button-response","208","2.0.0","1033735","663fcdfa0a379f42f4c7397e","3","40","3448","","","","","","","","","<img src= ""rock_img/I_Diorite_14.jpg"" style=""width:8cm; height:5.71cm;""><p>What type of rock is this?</p>","2","class_response","1","test","35","Diorite","Diorite","14","true","3","3","","","","","","","","","","","","","","","",""
"","","","","","","","","","","","html-keyboard-response","209","2.0.0","1034237","663fcdfa0a379f42f4c7397e","3","40","null","","","","","","","","","<p style='font-size: 30px;'><strong>Okay</strong></p>","null","neutral_feedback","1","test","35","","","","","","","","","","","","","","","","","","","","","",""
"","","","","","","","","","","","html-button-response","210","2.0.0","1036471","663fcdfa0a379f42f4c7397e","3","40","2231","","","","","","","","","<img src= ""rock_img/I_Obsidian_11.jpg"" style=""width:8cm; height:6.05cm;""><p>What type of rock is this?</p>","4","class_response","1","test","36","Obsidian","Obsidian","11","true","5","5","","","","","","","","","","","","","","","",""
"","","","","","","","","","","","html-keyboard-response","211","2.0.0","1036974","663fcdfa0a379f42f4c7397e","3","40","null","","","","","","","","","<p style='font-size: 30px;'><strong>Okay</strong></p>","null","neutral_feedback","1","test","36","","","","","","","","","","","","","","","","","","","","","",""
"","","","","","","","","","","","html-button-response","212","2.0.0","1040104","663fcdfa0a379f42f4c7397e","3","40","3126","","","","","","","","","<img src= ""rock_img/I_Diorite_10.jpg"" style=""width:8cm; height:5.949999999999999cm;""><p>What type of rock is this?</p>","6","class_response","1","test","37","Peridotite","Diorite","10","false","7","3","","","","","","","","","","","","","","","",""
"","","","","","","","","","","","html-keyboard-response","213","2.0.0","1040606","663fcdfa0a379f42f4c7397e","3","40","null","","","","","","","","","<p style='font-size: 30px;'><strong>Okay</strong></p>","null","neutral_feedback","1","test","37","","","","","","","","","","","","","","","","","","","","","",""
"","","","","","","","","","","","html-button-response","214","2.0.0","1043309","663fcdfa0a379f42f4c7397e","3","40","2700","","","","","","","","","<img src= ""rock_img/I_Pegmatite_15.jpg"" style=""width:8cm; height:6cm;""><p>What type of rock is this?</p>","0","class_response","1","test","38","Andesite","Pegmatite","15","false","1","6","","","","","","","","","","","","","","","",""
"","","","","","","","","","","","html-keyboard-response","215","2.0.0","1043812","663fcdfa0a379f42f4c7397e","3","40","null","","","","","","","","","<p style='font-size: 30px;'><strong>Okay</strong></p>","null","neutral_feedback","1","test","38","","","","","","","","","","","","","","","","","","","","","",""
"","","","","","","","","","","","html-button-response","216","2.0.0","1046210","663fcdfa0a379f42f4c7397e","3","40","2395","","","","","","","","","<img src= ""rock_img/I_Basalt_11.jpg"" style=""width:8cm; height:5.359999999999999cm;""><p>What type of rock is this?</p>","7","class_response","1","test","39","Pumice","Basalt","11","false","8","2","","","","","","","","","","","","","","","",""
"","","","","","","","","","","","html-keyboard-response","217","2.0.0","1046712","663fcdfa0a379f42f4c7397e","3","40","null","","","","","","","","","<p style='font-size: 30px;'><strong>Okay</strong></p>","null","neutral_feedback","1","test","39","","","","","","","","","","","","","","","","","","","","","",""
"","","","","","","","","","","","html-button-response","218","2.0.0","1049593","663fcdfa0a379f42f4c7397e","3","40","2879","","","","","","","","","<img src= ""rock_img/I_Gabbro_09.jpg"" style=""width:8cm; height:7.279999999999999cm;""><p>What type of rock is this?</p>","0","class_response","1","test","40","Andesite","Gabbro","09","false","1","4","","","","","","","","","","","","","","","",""
"","","","","","","","","","","","html-keyboard-response","219","2.0.0","1050095","663fcdfa0a379f42f4c7397e","3","40","null","","","","","","","","","<p style='font-size: 30px;'><strong>Okay</strong></p>","null","neutral_feedback","1","test","40","","","","","","","","","","","","","","","","","","","","","",""
"","","","","","","","","","","","html-button-response","220","2.0.0","1053653","663fcdfa0a379f42f4c7397e","3","40","3555","","","","","","","","","<img src= ""rock_img/I_Andesite_09.jpg"" style=""width:8cm; height:6cm;""><p>What type of rock is this?</p>","5","class_response","1","test","41","Pegmatite","Andesite","09","false","6","1","","","","","","","","","","","","","","","",""
"","","","","","","","","","","","html-keyboard-response","221","2.0.0","1054155","663fcdfa0a379f42f4c7397e","3","40","null","","","","","","","","","<p style='font-size: 30px;'><strong>Okay</strong></p>","null","neutral_feedback","1","test","41","","","","","","","","","","","","","","","","","","","","","",""
"","","","","","","","","","","","html-button-response","222","2.0.0","1056788","663fcdfa0a379f42f4c7397e","3","40","2631","","","","","","","","","<img src= ""rock_img/I_Pegmatite_09.jpg"" style=""width:8cm; height:4.03cm;""><p>What type of rock is this?</p>","0","class_response","1","test","42","Andesite","Pegmatite","09","false","1","6","","","","","","","","","","","","","","","",""
"","","","","","","","","","","","html-keyboard-response","223","2.0.0","1057290","663fcdfa0a379f42f4c7397e","3","40","null","","","","","","","","","<p style='font-size: 30px;'><strong>Okay</strong></p>","null","neutral_feedback","1","test","42","","","","","","","","","","","","","","","","","","","","","",""
"","","","","","","","","","","","html-button-response","224","2.0.0","1061700","663fcdfa0a379f42f4c7397e","3","40","4408","","","","","","","","","<img src= ""rock_img/I_Gabbro_10.jpg"" style=""width:8cm; height:5.680000000000001cm;""><p>What type of rock is this?</p>","5","class_response","1","test","43","Pegmatite","Gabbro","10","false","6","4","","","","","","","","","","","","","","","",""
"","","","","","","","","","","","html-keyboard-response","225","2.0.0","1062203","663fcdfa0a379f42f4c7397e","3","40","null","","","","","","","","","<p style='font-size: 30px;'><strong>Okay</strong></p>","null","neutral_feedback","1","test","43","","","","","","","","","","","","","","","","","","","","","",""
"","","","","","","","","","","","html-button-response","226","2.0.0","1064679","663fcdfa0a379f42f4c7397e","3","40","2473","","","","","","","","","<img src= ""rock_img/I_Gabbro_14.jpg"" style=""width:8cm; height:8.48cm;""><p>What type of rock is this?</p>","2","class_response","1","test","44","Diorite","Gabbro","14","false","3","4","","","","","","","","","","","","","","","",""
"","","","","","","","","","","","html-keyboard-response","227","2.0.0","1065180","663fcdfa0a379f42f4c7397e","3","40","null","","","","","","","","","<p style='font-size: 30px;'><strong>Okay</strong></p>","null","neutral_feedback","1","test","44","","","","","","","","","","","","","","","","","","","","","",""
"","","","","","","","","","","","html-button-response","228","2.0.0","1067067","663fcdfa0a379f42f4c7397e","3","40","1884","","","","","","","","","<img src= ""rock_img/I_Obsidian_14.jpg"" style=""width:8cm; height:7.64cm;""><p>What type of rock is this?</p>","4","class_response","1","test","45","Obsidian","Obsidian","14","true","5","5","","","","","","","","","","","","","","","",""
"","","","","","","","","","","","html-keyboard-response","229","2.0.0","1067569","663fcdfa0a379f42f4c7397e","3","40","null","","","","","","","","","<p style='font-size: 30px;'><strong>Okay</strong></p>","null","neutral_feedback","1","test","45","","","","","","","","","","","","","","","","","","","","","",""
"","","","","","","","","","","","html-button-response","230","2.0.0","1073572","663fcdfa0a379f42f4c7397e","3","40","6000","","","","","","","","","<img src= ""rock_img/I_Pumice_16.jpg"" style=""width:8cm; height:6.79cm;""><p>What type of rock is this?</p>","2","class_response","1","test","46","Diorite","Pumice","16","false","3","8","","","","","","","","","","","","","","","",""
"","","","","","","","","","","","html-keyboard-response","231","2.0.0","1074074","663fcdfa0a379f42f4c7397e","3","40","null","","","","","","","","","<p style='font-size: 30px;'><strong>Okay</strong></p>","null","neutral_feedback","1","test","46","","","","","","","","","","","","","","","","","","","","","",""
"","","","","","","","","","","","html-button-response","232","2.0.0","1076366","663fcdfa0a379f42f4c7397e","3","40","2289","","","","","","","","","<img src= ""rock_img/I_Obsidian_12.jpg"" style=""width:8cm; height:6.53cm;""><p>What type of rock is this?</p>","4","class_response","1","test","47","Obsidian","Obsidian","12","true","5","5","","","","","","","","","","","","","","","",""
"","","","","","","","","","","","html-keyboard-response","233","2.0.0","1076868","663fcdfa0a379f42f4c7397e","3","40","null","","","","","","","","","<p style='font-size: 30px;'><strong>Okay</strong></p>","null","neutral_feedback","1","test","47","","","","","","","","","","","","","","","","","","","","","",""
"","","","","","","","","","","","html-button-response","234","2.0.0","1081385","663fcdfa0a379f42f4c7397e","3","40","4515","","","","","","","","","<img src= ""rock_img/I_Andesite_10.jpg"" style=""width:8cm; height:4.16cm;""><p>What type of rock is this?</p>","6","class_response","1","test","48","Peridotite","Andesite","10","false","7","1","","","","","","","","","","","","","","","",""
"","","","","","","","","","","","html-keyboard-response","235","2.0.0","1081887","663fcdfa0a379f42f4c7397e","3","40","null","","","","","","","","","<p style='font-size: 30px;'><strong>Okay</strong></p>","null","neutral_feedback","1","test","48","","","","","","","","","","","","","","","","","","","","","",""
"","","","","","","","","","","","html-button-response","236","2.0.0","1150997","663fcdfa0a379f42f4c7397e","3","40","","","","","","","","","","","","cycle_feedback","","","","","","","","","","","","","","","","","","","","","","27944.599999997765","41158.400000002235","",""
"","","","","","","","","","","","html-button-response","238","2.0.0","1155077","663fcdfa0a379f42f4c7397e","3","40","4078","","","","","","","","","","0","start_train","","","","","","","","","","","","","","","","","","","","","","","","",""
"","","","","","","","","","","","html-button-response","240","2.0.0","1161076","663fcdfa0a379f42f4c7397e","3","40","5997","","","","","","","","","<img src= ""rock_img/I_Pegmatite_07.jpg"" style=""width:8cm; height:6.7cm;""><p>What type of rock is this?</p>","3","class_response","2","train","1","Gabbro","Pegmatite","07","false","4","6","","","","","","","","","","","","","","","",""
"","","","","","","","","","","","html-button-response","241","2.0.0","1166713","663fcdfa0a379f42f4c7397e","3","40","5634","","","","","","","","","<img src= rock_img/I_Pegmatite_07.jpg style=""width:8cm; height:6.7cm;""><p style='font-size: 30px; color: red;'><strong>Incorrect!</strong></p><p style='font-size: 30px;'><strong>This rock is pegmatite</strong></p>","0","corr_feedback","2","train","1","","","","","","","","","","","","","","","","","","","","","",""
"","","","","","","","","","","","html-button-response","242","2.0.0","1171903","663fcdfa0a379f42f4c7397e","3","40","5187","","","","","","","","","<img src= ""rock_img/I_Gabbro_11.jpg"" style=""width:8cm; height:6.2cm;""><p>What type of rock is this?</p>","6","class_response","2","train","2","Peridotite","Gabbro","11","false","7","4","","","","","","","","","","","","","","","",""
"","","","","","","","","","","","html-button-response","243","2.0.0","1178002","663fcdfa0a379f42f4c7397e","3","40","6097","","","","","","","","","<img src= rock_img/I_Gabbro_11.jpg style=""width:8cm; height:6.2cm;""><p style='font-size: 30px; color: red;'><strong>Incorrect!</strong></p><p style='font-size: 30px;'><strong>This rock is gabbro</strong></p>","0","corr_feedback","2","train","2","","","","","","","","","","","","","","","","","","","","","",""
"","","","","","","","","","","","html-button-response","244","2.0.0","1180619","663fcdfa0a379f42f4c7397e","3","40","2614","","","","","","","","","<img src= ""rock_img/I_Pumice_10.jpg"" style=""width:8cm; height:7.609999999999999cm;""><p>What type of rock is this?</p>","7","class_response","2","train","3","Pumice","Pumice","10","true","8","8","","","","","","","","","","","","","","","",""
"","","","","","","","","","","","html-button-response","245","2.0.0","1183312","663fcdfa0a379f42f4c7397e","3","40","2691","","","","","","","","","<img src= rock_img/I_Pumice_10.jpg style=""width:8cm; height:7.609999999999999cm;""><p style='font-size: 30px; color: green;'><strong>Correct!</strong></p><p style='font-size: 30px;'><strong>This rock is pumice</strong></p>","0","corr_feedback","2","train","3","","","","","","","","","","","","","","","","","","","","","",""
"","","","","","","","","","","","html-button-response","246","2.0.0","1188267","663fcdfa0a379f42f4c7397e","3","40","4952","","","","","","","","","<img src= ""rock_img/I_Andesite_03.jpg"" style=""width:8cm; height:5.73cm;""><p>What type of rock is this?</p>","5","class_response","2","train","4","Pegmatite","Andesite","03","false","6","1","","","","","","","","","","","","","","","",""
"","","","","","","","","","","","html-button-response","247","2.0.0","1195583","663fcdfa0a379f42f4c7397e","3","40","7314","","","","","","","","","<img src= rock_img/I_Andesite_03.jpg style=""width:8cm; height:5.73cm;""><p style='font-size: 30px; color: red;'><strong>Incorrect!</strong></p><p style='font-size: 30px;'><strong>This rock is andesite</strong></p>","0","corr_feedback","2","train","4","","","","","","","","","","","","","","","","","","","","","",""
"","","","","","","","","","","","html-button-response","248","2.0.0","1199337","663fcdfa0a379f42f4c7397e","3","40","3751","","","","","","","","","<img src= ""rock_img/I_Peridotite_08.jpg"" style=""width:8cm; height:6.7cm;""><p>What type of rock is this?</p>","3","class_response","2","train","5","Gabbro","Peridotite","08","false","4","7","","","","","","","","","","","","","","","",""
"","","","","","","","","","","","html-button-response","249","2.0.0","1207425","663fcdfa0a379f42f4c7397e","3","40","8086","","","","","","","","","<img src= rock_img/I_Peridotite_08.jpg style=""width:8cm; height:6.7cm;""><p style='font-size: 30px; color: red;'><strong>Incorrect!</strong></p><p style='font-size: 30px;'><strong>This rock is peridotite</strong></p>","0","corr_feedback","2","train","5","","","","","","","","","","","","","","","","","","","","","",""
"","","","","","","","","","","","html-button-response","250","2.0.0","1214960","663fcdfa0a379f42f4c7397e","3","40","7532","","","","","","","","","<img src= ""rock_img/I_Diorite_06.jpg"" style=""width:8cm; height:6.03cm;""><p>What type of rock is this?</p>","0","class_response","2","train","6","Andesite","Diorite","06","false","1","3","","","","","","","","","","","","","","","",""
"","","","","","","","","","","","html-button-response","251","2.0.0","1218585","663fcdfa0a379f42f4c7397e","3","40","3623","","","","","","","","","<img src= rock_img/I_Diorite_06.jpg style=""width:8cm; height:6.03cm;""><p style='font-size: 30px; color: red;'><strong>Incorrect!</strong></p><p style='font-size: 30px;'><strong>This rock is diorite</strong></p>","0","corr_feedback","2","train","6","","","","","","","","","","","","","","","","","","","","","",""
"","","","","","","","","","","","html-button-response","252","2.0.0","1223157","663fcdfa0a379f42f4c7397e","3","40","4569","","","","","","","","","<img src= ""rock_img/I_Obsidian_06.jpg"" style=""width:8cm; height:6.8cm;""><p>What type of rock is this?</p>","3","class_response","2","train","7","Gabbro","Obsidian","06","false","4","5","","","","","","","","","","","","","","","",""
"","","","","","","","","","","","html-button-response","253","2.0.0","1226739","663fcdfa0a379f42f4c7397e","3","40","3580","","","","","","","","","<img src= rock_img/I_Obsidian_06.jpg style=""width:8cm; height:6.8cm;""><p style='font-size: 30px; color: red;'><strong>Incorrect!</strong></p><p style='font-size: 30px;'><strong>This rock is obsidian</strong></p>","0","corr_feedback","2","train","7","","","","","","","","","","","","","","","","","","","","","",""
"","","","","","","","","","","","html-button-response","254","2.0.0","1229953","663fcdfa0a379f42f4c7397e","3","40","3212","","","","","","","","","<img src= ""rock_img/I_Diorite_07.jpg"" style=""width:8cm; height:5.239999999999999cm;""><p>What type of rock is this?</p>","5","class_response","2","train","8","Pegmatite","Diorite","07","false","6","3","","","","","","","","","","","","","","","",""
"","","","","","","","","","","","html-button-response","255","2.0.0","1233329","663fcdfa0a379f42f4c7397e","3","40","3374","","","","","","","","","<img src= rock_img/I_Diorite_07.jpg style=""width:8cm; height:5.239999999999999cm;""><p style='font-size: 30px; color: red;'><strong>Incorrect!</strong></p><p style='font-size: 30px;'><strong>This rock is diorite</strong></p>","0","corr_feedback","2","train","8","","","","","","","","","","","","","","","","","","","","","",""
"","","","","","","","","","","","html-button-response","256","2.0.0","1236650","663fcdfa0a379f42f4c7397e","3","40","3318","","","","","","","","","<img src= ""rock_img/I_Basalt_05.jpg"" style=""width:8cm; height:8.18cm;""><p>What type of rock is this?</p>","4","class_response","2","train","9","Obsidian","Basalt","05","false","5","2","","","","","","","","","","","","","","","",""
"","","","","","","","","","","","html-button-response","257","2.0.0","1241320","663fcdfa0a379f42f4c7397e","3","40","4668","","","","","","","","","<img src= rock_img/I_Basalt_05.jpg style=""width:8cm; height:8.18cm;""><p style='font-size: 30px; color: red;'><strong>Incorrect!</strong></p><p style='font-size: 30px;'><strong>This rock is basalt</strong></p>","0","corr_feedback","2","train","9","","","","","","","","","","","","","","","","","","","","","",""
"","","","","","","","","","","","html-button-response","258","2.0.0","1243816","663fcdfa0a379f42f4c7397e","3","40","2493","","","","","","","","","<img src= ""rock_img/I_Pumice_05.jpg"" style=""width:8cm; height:7.25cm;""><p>What type of rock is this?</p>","7","class_response","2","train","10","Pumice","Pumice","05","true","8","8","","","","","","","","","","","","","","","",""
"","","","","","","","","","","","html-button-response","259","2.0.0","1246367","663fcdfa0a379f42f4c7397e","3","40","2548","","","","","","","","","<img src= rock_img/I_Pumice_05.jpg style=""width:8cm; height:7.25cm;""><p style='font-size: 30px; color: green;'><strong>Correct!</strong></p><p style='font-size: 30px;'><strong>This rock is pumice</strong></p>","0","corr_feedback","2","train","10","","","","","","","","","","","","","","","","","","","","","",""
"","","","","","","","","","","","html-button-response","260","2.0.0","1250007","663fcdfa0a379f42f4c7397e","3","40","3637","","","","","","","","","<img src= ""rock_img/I_Pegmatite_05.jpg"" style=""width:8cm; height:7.300000000000001cm;""><p>What type of rock is this?</p>","4","class_response","2","train","11","Obsidian","Pegmatite","05","false","5","6","","","","","","","","","","","","","","","",""
"","","","","","","","","","","","html-button-response","261","2.0.0","1254884","663fcdfa0a379f42f4c7397e","3","40","4875","","","","","","","","","<img src= rock_img/I_Pegmatite_05.jpg style=""width:8cm; height:7.300000000000001cm;""><p style='font-size: 30px; color: red;'><strong>Incorrect!</strong></p><p style='font-size: 30px;'><strong>This rock is pegmatite</strong></p>","0","corr_feedback","2","train","11","","","","","","","","","","","","","","","","","","","","","",""
"","","","","","","","","","","","html-button-response","262","2.0.0","1261679","663fcdfa0a379f42f4c7397e","3","40","6793","","","","","","","","","<img src= ""rock_img/I_Peridotite_14.jpg"" style=""width:8cm; height:5.3cm;""><p>What type of rock is this?</p>","2","class_response","2","train","12","Diorite","Peridotite","14","false","3","7","","","","","","","","","","","","","","","",""
"","","","","","","","","","","","html-button-response","263","2.0.0","1264145","663fcdfa0a379f42f4c7397e","3","40","2463","","","","","","","","","<img src= rock_img/I_Peridotite_14.jpg style=""width:8cm; height:5.3cm;""><p style='font-size: 30px; color: red;'><strong>Incorrect!</strong></p><p style='font-size: 30px;'><strong>This rock is peridotite</strong></p>","0","corr_feedback","2","train","12","","","","","","","","","","","","","","","","","","","","","",""
"","","","","","","","","","","","html-button-response","265","2.0.0","1267181","663fcdfa0a379f42f4c7397e","3","40","3034","","","","","","","","","","0","start_train","","","","","","","","","","","","","","","","","","","","","","","","",""
"","","","","","","","","","","","html-button-response","266","2.0.0","1272569","663fcdfa0a379f42f4c7397e","3","40","","","","","","","","","","","","cat_selection","2","train","1","","","","","","","1","6","5385.60000000149","Andesite","Pegmatite","[0.1454345914637872,0.16020840096245512,0.1306607819651193,0.1512476325407593,0.035722470283664425,0.1422868641190635,0.1364738230420914,0.09796543562305979]","[null,0.1284200674229681,0.021795632220000808,0.02688770912803639,0.18188574169686245,0.1745948133967206,0.18103706221218985,0.2853789739232218]","","","","","","","","",""
"","","","","","","","","","","","paired-cat-display","267","1.0.0","1347643","663fcdfa0a379f42f4c7397e","3","40","","","","","","","","","","","","paired_cat_display","2","train","1","","","","","","","","","10490.800000000745","","","","","gray, speckled, blend","","64578.199999999255","","","","","bright colors, shiny, district layers",""
"","","","","","","","","","","","html-button-response","268","2.0.0","1351751","663fcdfa0a379f42f4c7397e","3","40","","","","","","","","","","","","cat_selection","2","train","2","","","","","","","6","7","4105.5","Pegmatite","Peridotite","[0.1454345914637872,0.16020840096245512,0.1306607819651193,0.1512476325407593,0.035722470283664425,0.1422868641190635,0.1364738230420914,0.09796543562305979]","[0.3551700308305515,0.18536168796140334,0.1089322601698308,0.1074626831421217,0.028108402403122356,null,0.19423731920662565,0.02072761628634462]","","","","","","","","",""
"","","","","","","","","","","","paired-cat-display","269","1.0.0","1437496","663fcdfa0a379f42f4c7397e","3","40","","","","","","","","","","","","paired_cat_display","2","train","2","","","","","","","","","12275.20000000298","","","","","","","73464.80000000075","","","","","shiny, distinct, eye catching","muddled colors, dull in appearance"
"","","","","","","","","","","","html-button-response","270","2.0.0","1440297","663fcdfa0a379f42f4c7397e","3","40","","","","","","","","","","","","cat_selection","2","train","3","","","","","","","1","3","2798.699999999255","Andesite","Diorite","[0.1454345914637872,0.16020840096245512,0.1306607819651193,0.1512476325407593,0.035722470283664425,0.1422868641190635,0.1364738230420914,0.09796543562305979]","[null,0.1284200674229681,0.021795632220000808,0.02688770912803639,0.18188574169686245,0.1745948133967206,0.18103706221218985,0.2853789739232218]","","","","","","","","",""
"","","","","","","","","","","","paired-cat-display","271","1.0.0","1491148","663fcdfa0a379f42f4c7397e","3","40","","","","","","","","","","","","paired_cat_display","2","train","3","","","","","","","","","9610.199999999255","","","","","grayish, speckled, dull, muddled","","41235.39999999851","","a little shinier","","","",""
"","","","","","","","","","","","html-button-response","273","2.0.0","1496381","663fcdfa0a379f42f4c7397e","3","40","5231","","","","","","","","","","0","start_test","","","","","","","","","","","","","","","","","","","","","","","","",""
"","","","","","","","","","","","html-button-response","274","2.0.0","1507116","663fcdfa0a379f42f4c7397e","3","40","10732","","","","","","","","","<img src= ""rock_img/I_Basalt_11.jpg"" style=""width:8cm; height:5.359999999999999cm;""><p>What type of rock is this?</p>","5","class_response","2","test","1","Pegmatite","Basalt","11","false","6","2","","","","","","","","","","","","","","","",""
"","","","","","","","","","","","html-keyboard-response","275","2.0.0","1507618","663fcdfa0a379f42f4c7397e","3","40","null","","","","","","","","","<p style='font-size: 30px;'><strong>Okay</strong></p>","null","neutral_feedback","2","test","1","","","","","","","","","","","","","","","","","","","","","",""
"","","","","","","","","","","","html-button-response","276","2.0.0","1511524","663fcdfa0a379f42f4c7397e","3","40","3903","","","","","","","","","<img src= ""rock_img/I_Obsidian_04.jpg"" style=""width:8cm; height:6.930000000000001cm;""><p>What type of rock is this?</p>","0","class_response","2","test","2","Andesite","Obsidian","04","false","1","5","","","","","","","","","","","","","","","",""
"","","","","","","","","","","","html-keyboard-response","277","2.0.0","1512025","663fcdfa0a379f42f4c7397e","3","40","null","","","","","","","","","<p style='font-size: 30px;'><strong>Okay</strong></p>","null","neutral_feedback","2","test","2","","","","","","","","","","","","","","","","","","","","","",""
