"width","height","webaudio","browser","browser_version","mobile","os","fullscreen","vsync_rate","webcam","microphone","trial_type","trial_index","plugin_version","time_elapsed","subjID","condition","stimID","rt","url","success","value","timeout","failed_images","failed_audio","failed_video","view_history","stimulus","response","trialType","cycle","phase","trial","resp","cat","token","corr","resp_num","cat_num","time_fb1","time_fb2"
"1920","919","true","chrome","129.0.0","false","Windows 10","true","61.37","false","false","browser-check","0","2.0.0","1028","622a3bbca995cbb8f616a54e","2","5","","","","","","","","","","","","","","","","","","","","","","",""
"","","","","","","","","","","","external-html","1","2.0.0","11849","622a3bbca995cbb8f616a54e","2","5","10703","consent_form.html","","","","","","","","","","","","","","","","","","","","",""
"","","","","","","","","","","","fullscreen","2","2.0.0","23352","622a3bbca995cbb8f616a54e","2","5","10492","","true","","","","","","","","","","","","","","","","","","","",""
"","","","","","","","","","","","call-function","3","2.0.0","23354","622a3bbca995cbb8f616a54e","2","5","","","","{}","","","","","","","","","","","","","","","","","","",""
"","","","","","","","","","","","preload","4","2.0.0","30456","622a3bbca995cbb8f616a54e","2","5","","","true","","false","[]","[]","[]","","","","","","","","","","","","","","",""
"","","","","","","","","","","","instructions","5","2.0.0","77345","622a3bbca995cbb8f616a54e","2","5","46888","","","","","","","","[{""page_index"":0,""viewing_time"":8079},{""page_index"":1,""viewing_time"":24128},{""page_index"":2,""viewing_time"":14680}]","","","","","","","","","","","","","",""
"","","","","","","","","","","","html-button-response","6","2.0.0","86273","622a3bbca995cbb8f616a54e","2","5","8926","","","","","","","","","","0","start_test","","","","","","","","","","",""
"","","","","","","","","","","","html-button-response","7","2.0.0","102137","622a3bbca995cbb8f616a54e","2","5","15862","","","","","","","","","<img src= ""rock_img/I_Obsidian_07.jpg"" style=""width:8cm; height:4.76cm;""><p>What type of rock is this?</p>","4","class_response","0","test","1","Obsidian","Obsidian","07","true","5","5","",""
"","","","","","","","","","","","html-keyboard-response","8","2.0.0","102647","622a3bbca995cbb8f616a54e","2","5","null","","","","","","","","","<p style='font-size: 30px;'><strong>Okay</strong></p>","null","neutral_feedback","0","test","1","","","","","","","",""
"","","","","","","","","","","","html-button-response","9","2.0.0","114225","622a3bbca995cbb8f616a54e","2","5","11576","","","","","","","","","<img src= ""rock_img/I_Peridotite_16.jpg"" style=""width:8cm; height:6.989999999999999cm;""><p>What type of rock is this?</p>","6","class_response","0","test","2","Peridotite","Peridotite","16","true","7","7","",""
"","","","","","","","","","","","html-keyboard-response","10","2.0.0","114728","622a3bbca995cbb8f616a54e","2","5","null","","","","","","","","","<p style='font-size: 30px;'><strong>Okay</strong></p>","null","neutral_feedback","0","test","2","","","","","","","",""
"","","","","","","","","","","","html-button-response","11","2.0.0","124041","622a3bbca995cbb8f616a54e","2","5","9311","","","","","","","","","<img src= ""rock_img/I_Andesite_06.jpg"" style=""width:8cm; height:6.840000000000001cm;""><p>What type of rock is this?</p>","1","class_response","0","test","3","Basalt","Andesite","06","false","2","1","",""
"","","","","","","","","","","","html-keyboard-response","12","2.0.0","124557","622a3bbca995cbb8f616a54e","2","5","null","","","","","","","","","<p style='font-size: 30px;'><strong>Okay</strong></p>","null","neutral_feedback","0","test","3","","","","","","","",""
"","","","","","","","","","","","html-button-response","13","2.0.0","131513","622a3bbca995cbb8f616a54e","2","5","6955","","","","","","","","","<img src= ""rock_img/I_Gabbro_16.jpg"" style=""width:8cm; height:6.44cm;""><p>What type of rock is this?</p>","3","class_response","0","test","4","Gabbro","Gabbro","16","true","4","4","",""
"","","","","","","","","","","","html-keyboard-response","14","2.0.0","132017","622a3bbca995cbb8f616a54e","2","5","null","","","","","","","","","<p style='font-size: 30px;'><strong>Okay</strong></p>","null","neutral_feedback","0","test","4","","","","","","","",""
"","","","","","","","","","","","html-button-response","15","2.0.0","138490","622a3bbca995cbb8f616a54e","2","5","6471","","","","","","","","","<img src= ""rock_img/I_Andesite_03.jpg"" style=""width:8cm; height:5.73cm;""><p>What type of rock is this?</p>","0","class_response","0","test","5","Andesite","Andesite","03","true","1","1","",""
"","","","","","","","","","","","html-keyboard-response","16","2.0.0","138994","622a3bbca995cbb8f616a54e","2","5","null","","","","","","","","","<p style='font-size: 30px;'><strong>Okay</strong></p>","null","neutral_feedback","0","test","5","","","","","","","",""
"","","","","","","","","","","","html-button-response","17","2.0.0","140433","622a3bbca995cbb8f616a54e","2","5","1437","","","","","","","","","<img src= ""rock_img/I_Pumice_09.jpg"" style=""width:8cm; height:6.44cm;""><p>What type of rock is this?</p>","7","class_response","0","test","6","Pumice","Pumice","09","true","8","8","",""
"","","","","","","","","","","","html-keyboard-response","18","2.0.0","140942","622a3bbca995cbb8f616a54e","2","5","null","","","","","","","","","<p style='font-size: 30px;'><strong>Okay</strong></p>","null","neutral_feedback","0","test","6","","","","","","","",""
"","","","","","","","","","","","html-button-response","19","2.0.0","142890","622a3bbca995cbb8f616a54e","2","5","1946","","","","","","","","","<img src= ""rock_img/I_Basalt_11.jpg"" style=""width:8cm; height:5.359999999999999cm;""><p>What type of rock is this?</p>","7","class_response","0","test","7","Pumice","Basalt","11","false","8","2","",""
"","","","","","","","","","","","html-keyboard-response","20","2.0.0","143401","622a3bbca995cbb8f616a54e","2","5","null","","","","","","","","","<p style='font-size: 30px;'><strong>Okay</strong></p>","null","neutral_feedback","0","test","7","","","","","","","",""
"","","","","","","","","","","","html-button-response","21","2.0.0","148449","622a3bbca995cbb8f616a54e","2","5","5046","","","","","","","","","<img src= ""rock_img/I_Andesite_02.jpg"" style=""width:8cm; height:8.5cm;""><p>What type of rock is this?</p>","2","class_response","0","test","8","Diorite","Andesite","02","false","3","1","",""
"","","","","","","","","","","","html-keyboard-response","22","2.0.0","148951","622a3bbca995cbb8f616a54e","2","5","null","","","","","","","","","<p style='font-size: 30px;'><strong>Okay</strong></p>","null","neutral_feedback","0","test","8","","","","","","","",""
"","","","","","","","","","","","html-button-response","23","2.0.0","153785","622a3bbca995cbb8f616a54e","2","5","4833","","","","","","","","","<img src= ""rock_img/I_Diorite_12.jpg"" style=""width:8cm; height:4.88cm;""><p>What type of rock is this?</p>","5","class_response","0","test","9","Pegmatite","Diorite","12","false","6","3","",""
"","","","","","","","","","","","html-keyboard-response","24","2.0.0","154301","622a3bbca995cbb8f616a54e","2","5","null","","","","","","","","","<p style='font-size: 30px;'><strong>Okay</strong></p>","null","neutral_feedback","0","test","9","","","","","","","",""
"","","","","","","","","","","","html-button-response","25","2.0.0","158530","622a3bbca995cbb8f616a54e","2","5","4227","","","","","","","","","<img src= ""rock_img/I_Diorite_15.jpg"" style=""width:8cm; height:5.54cm;""><p>What type of rock is this?</p>","1","class_response","0","test","10","Basalt","Diorite","15","false","2","3","",""
"","","","","","","","","","","","html-keyboard-response","26","2.0.0","159039","622a3bbca995cbb8f616a54e","2","5","null","","","","","","","","","<p style='font-size: 30px;'><strong>Okay</strong></p>","null","neutral_feedback","0","test","10","","","","","","","",""
"","","","","","","","","","","","html-button-response","27","2.0.0","161065","622a3bbca995cbb8f616a54e","2","5","2025","","","","","","","","","<img src= ""rock_img/I_Diorite_09.jpg"" style=""width:8cm; height:5.27cm;""><p>What type of rock is this?</p>","1","class_response","0","test","11","Basalt","Diorite","09","false","2","3","",""
"","","","","","","","","","","","html-keyboard-response","28","2.0.0","161576","622a3bbca995cbb8f616a54e","2","5","null","","","","","","","","","<p style='font-size: 30px;'><strong>Okay</strong></p>","null","neutral_feedback","0","test","11","","","","","","","",""
"","","","","","","","","","","","html-button-response","29","2.0.0","166865","622a3bbca995cbb8f616a54e","2","5","5287","","","","","","","","","<img src= ""rock_img/I_Pumice_13.jpg"" style=""width:8cm; height:8.200000000000001cm;""><p>What type of rock is this?</p>","1","class_response","0","test","12","Basalt","Pumice","13","false","2","8","",""
"","","","","","","","","","","","html-keyboard-response","30","2.0.0","167381","622a3bbca995cbb8f616a54e","2","5","null","","","","","","","","","<p style='font-size: 30px;'><strong>Okay</strong></p>","null","neutral_feedback","0","test","12","","","","","","","",""
"","","","","","","","","","","","html-button-response","31","2.0.0","168865","622a3bbca995cbb8f616a54e","2","5","1483","","","","","","","","","<img src= ""rock_img/I_Pumice_10.jpg"" style=""width:8cm; height:7.609999999999999cm;""><p>What type of rock is this?</p>","7","class_response","0","test","13","Pumice","Pumice","10","true","8","8","",""
"","","","","","","","","","","","html-keyboard-response","32","2.0.0","169375","622a3bbca995cbb8f616a54e","2","5","null","","","","","","","","","<p style='font-size: 30px;'><strong>Okay</strong></p>","null","neutral_feedback","0","test","13","","","","","","","",""
"","","","","","","","","","","","html-button-response","33","2.0.0","173017","622a3bbca995cbb8f616a54e","2","5","3641","","","","","","","","","<img src= ""rock_img/I_Diorite_16.jpg"" style=""width:8cm; height:6.74cm;""><p>What type of rock is this?</p>","3","class_response","0","test","14","Gabbro","Diorite","16","false","4","3","",""
"","","","","","","","","","","","html-keyboard-response","34","2.0.0","173530","622a3bbca995cbb8f616a54e","2","5","null","","","","","","","","","<p style='font-size: 30px;'><strong>Okay</strong></p>","null","neutral_feedback","0","test","14","","","","","","","",""
"","","","","","","","","","","","html-button-response","35","2.0.0","175169","622a3bbca995cbb8f616a54e","2","5","1637","","","","","","","","","<img src= ""rock_img/I_Obsidian_16.jpg"" style=""width:8cm; height:9.3cm;""><p>What type of rock is this?</p>","4","class_response","0","test","15","Obsidian","Obsidian","16","true","5","5","",""
"","","","","","","","","","","","html-keyboard-response","36","2.0.0","175677","622a3bbca995cbb8f616a54e","2","5","null","","","","","","","","","<p style='font-size: 30px;'><strong>Okay</strong></p>","null","neutral_feedback","0","test","15","","","","","","","",""
"","","","","","","","","","","","html-button-response","37","2.0.0","178697","622a3bbca995cbb8f616a54e","2","5","3019","","","","","","","","","<img src= ""rock_img/I_Peridotite_02.jpg"" style=""width:8cm; height:5.859999999999999cm;""><p>What type of rock is this?</p>","5","class_response","0","test","16","Pegmatite","Peridotite","02","false","6","7","",""
"","","","","","","","","","","","html-keyboard-response","38","2.0.0","179202","622a3bbca995cbb8f616a54e","2","5","null","","","","","","","","","<p style='font-size: 30px;'><strong>Okay</strong></p>","null","neutral_feedback","0","test","16","","","","","","","",""
"","","","","","","","","","","","html-button-response","39","2.0.0","182465","622a3bbca995cbb8f616a54e","2","5","3262","","","","","","","","","<img src= ""rock_img/I_Andesite_09.jpg"" style=""width:8cm; height:6cm;""><p>What type of rock is this?</p>","2","class_response","0","test","17","Diorite","Andesite","09","false","3","1","",""
"","","","","","","","","","","","html-keyboard-response","40","2.0.0","182968","622a3bbca995cbb8f616a54e","2","5","null","","","","","","","","","<p style='font-size: 30px;'><strong>Okay</strong></p>","null","neutral_feedback","0","test","17","","","","","","","",""
"","","","","","","","","","","","html-button-response","41","2.0.0","194017","622a3bbca995cbb8f616a54e","2","5","11047","","","","","","","","","<img src= ""rock_img/I_Pegmatite_12.jpg"" style=""width:8cm; height:5.7cm;""><p>What type of rock is this?</p>","0","class_response","0","test","18","Andesite","Pegmatite","12","false","1","6","",""
"","","","","","","","","","","","html-keyboard-response","42","2.0.0","194532","622a3bbca995cbb8f616a54e","2","5","null","","","","","","","","","<p style='font-size: 30px;'><strong>Okay</strong></p>","null","neutral_feedback","0","test","18","","","","","","","",""
"","","","","","","","","","","","html-button-response","43","2.0.0","195737","622a3bbca995cbb8f616a54e","2","5","1203","","","","","","","","","<img src= ""rock_img/I_Obsidian_11.jpg"" style=""width:8cm; height:6.05cm;""><p>What type of rock is this?</p>","4","class_response","0","test","19","Obsidian","Obsidian","11","true","5","5","",""
"","","","","","","","","","","","html-keyboard-response","44","2.0.0","196240","622a3bbca995cbb8f616a54e","2","5","null","","","","","","","","","<p style='font-size: 30px;'><strong>Okay</strong></p>","null","neutral_feedback","0","test","19","","","","","","","",""
"","","","","","","","","","","","html-button-response","45","2.0.0","199745","622a3bbca995cbb8f616a54e","2","5","3503","","","","","","","","","<img src= ""rock_img/I_Peridotite_07.jpg"" style=""width:8cm; height:4.83cm;""><p>What type of rock is this?</p>","1","class_response","0","test","20","Basalt","Peridotite","07","false","2","7","",""
"","","","","","","","","","","","html-keyboard-response","46","2.0.0","200252","622a3bbca995cbb8f616a54e","2","5","null","","","","","","","","","<p style='font-size: 30px;'><strong>Okay</strong></p>","null","neutral_feedback","0","test","20","","","","","","","",""
"","","","","","","","","","","","html-button-response","47","2.0.0","203009","622a3bbca995cbb8f616a54e","2","5","2755","","","","","","","","","<img src= ""rock_img/I_Gabbro_15.jpg"" style=""width:8cm; height:6.29cm;""><p>What type of rock is this?</p>","5","class_response","0","test","21","Pegmatite","Gabbro","15","false","6","4","",""
"","","","","","","","","","","","html-keyboard-response","48","2.0.0","203516","622a3bbca995cbb8f616a54e","2","5","null","","","","","","","","","<p style='font-size: 30px;'><strong>Okay</strong></p>","null","neutral_feedback","0","test","21","","","","","","","",""
"","","","","","","","","","","","html-button-response","49","2.0.0","205969","622a3bbca995cbb8f616a54e","2","5","2451","","","","","","","","","<img src= ""rock_img/I_Gabbro_01.jpg"" style=""width:8cm; height:5.21cm;""><p>What type of rock is this?</p>","6","class_response","0","test","22","Peridotite","Gabbro","01","false","7","4","",""
"","","","","","","","","","","","html-keyboard-response","50","2.0.0","206480","622a3bbca995cbb8f616a54e","2","5","null","","","","","","","","","<p style='font-size: 30px;'><strong>Okay</strong></p>","null","neutral_feedback","0","test","22","","","","","","","",""
"","","","","","","","","","","","html-button-response","51","2.0.0","208945","622a3bbca995cbb8f616a54e","2","5","2463","","","","","","","","","<img src= ""rock_img/I_Basalt_12.jpg"" style=""width:8cm; height:6.010000000000001cm;""><p>What type of rock is this?</p>","7","class_response","0","test","23","Pumice","Basalt","12","false","8","2","",""
"","","","","","","","","","","","html-keyboard-response","52","2.0.0","209447","622a3bbca995cbb8f616a54e","2","5","null","","","","","","","","","<p style='font-size: 30px;'><strong>Okay</strong></p>","null","neutral_feedback","0","test","23","","","","","","","",""
"","","","","","","","","","","","html-button-response","53","2.0.0","211561","622a3bbca995cbb8f616a54e","2","5","2112","","","","","","","","","<img src= ""rock_img/I_Basalt_01.jpg"" style=""width:8cm; height:7.880000000000001cm;""><p>What type of rock is this?</p>","3","class_response","0","test","24","Gabbro","Basalt","01","false","4","2","",""
"","","","","","","","","","","","html-keyboard-response","54","2.0.0","212063","622a3bbca995cbb8f616a54e","2","5","null","","","","","","","","","<p style='font-size: 30px;'><strong>Okay</strong></p>","null","neutral_feedback","0","test","24","","","","","","","",""
"","","","","","","","","","","","html-button-response","55","2.0.0","213657","622a3bbca995cbb8f616a54e","2","5","1593","","","","","","","","","<img src= ""rock_img/I_Peridotite_15.jpg"" style=""width:8cm; height:6cm;""><p>What type of rock is this?</p>","2","class_response","0","test","25","Diorite","Peridotite","15","false","3","7","",""
"","","","","","","","","","","","html-keyboard-response","56","2.0.0","214169","622a3bbca995cbb8f616a54e","2","5","null","","","","","","","","","<p style='font-size: 30px;'><strong>Okay</strong></p>","null","neutral_feedback","0","test","25","","","","","","","",""
"","","","","","","","","","","","html-button-response","57","2.0.0","216185","622a3bbca995cbb8f616a54e","2","5","2015","","","","","","","","","<img src= ""rock_img/I_Gabbro_08.jpg"" style=""width:8cm; height:5.15cm;""><p>What type of rock is this?</p>","6","class_response","0","test","26","Peridotite","Gabbro","08","false","7","4","",""
"","","","","","","","","","","","html-keyboard-response","58","2.0.0","216692","622a3bbca995cbb8f616a54e","2","5","null","","","","","","","","","<p style='font-size: 30px;'><strong>Okay</strong></p>","null","neutral_feedback","0","test","26","","","","","","","",""
"","","","","","","","","","","","html-button-response","59","2.0.0","219297","622a3bbca995cbb8f616a54e","2","5","2604","","","","","","","","","<img src= ""rock_img/I_Obsidian_05.jpg"" style=""width:8cm; height:6.33cm;""><p>What type of rock is this?</p>","4","class_response","0","test","27","Obsidian","Obsidian","05","true","5","5","",""
"","","","","","","","","","","","html-keyboard-response","60","2.0.0","219809","622a3bbca995cbb8f616a54e","2","5","null","","","","","","","","","<p style='font-size: 30px;'><strong>Okay</strong></p>","null","neutral_feedback","0","test","27","","","","","","","",""
"","","","","","","","","","","","html-button-response","61","2.0.0","223473","622a3bbca995cbb8f616a54e","2","5","3662","","","","","","","","","<img src= ""rock_img/I_Pegmatite_11.jpg"" style=""width:8cm; height:8.14cm;""><p>What type of rock is this?</p>","4","class_response","0","test","28","Obsidian","Pegmatite","11","false","5","6","",""
"","","","","","","","","","","","html-keyboard-response","62","2.0.0","223986","622a3bbca995cbb8f616a54e","2","5","null","","","","","","","","","<p style='font-size: 30px;'><strong>Okay</strong></p>","null","neutral_feedback","0","test","28","","","","","","","",""
"","","","","","","","","","","","html-button-response","63","2.0.0","226377","622a3bbca995cbb8f616a54e","2","5","2390","","","","","","","","","<img src= ""rock_img/I_Pegmatite_07.jpg"" style=""width:8cm; height:6.7cm;""><p>What type of rock is this?</p>","5","class_response","0","test","29","Pegmatite","Pegmatite","07","true","6","6","",""
"","","","","","","","","","","","html-keyboard-response","64","2.0.0","226890","622a3bbca995cbb8f616a54e","2","5","null","","","","","","","","","<p style='font-size: 30px;'><strong>Okay</strong></p>","null","neutral_feedback","0","test","29","","","","","","","",""
"","","","","","","","","","","","html-button-response","65","2.0.0","228409","622a3bbca995cbb8f616a54e","2","5","1517","","","","","","","","","<img src= ""rock_img/I_Obsidian_09.jpg"" style=""width:8cm; height:5cm;""><p>What type of rock is this?</p>","4","class_response","0","test","30","Obsidian","Obsidian","09","true","5","5","",""
"","","","","","","","","","","","html-keyboard-response","66","2.0.0","228911","622a3bbca995cbb8f616a54e","2","5","null","","","","","","","","","<p style='font-size: 30px;'><strong>Okay</strong></p>","null","neutral_feedback","0","test","30","","","","","","","",""
"","","","","","","","","","","","html-button-response","67","2.0.0","232586","622a3bbca995cbb8f616a54e","2","5","3673","","","","","","","","","<img src= ""rock_img/I_Gabbro_05.jpg"" style=""width:8cm; height:6cm;""><p>What type of rock is this?</p>","2","class_response","0","test","31","Diorite","Gabbro","05","false","3","4","",""
"","","","","","","","","","","","html-keyboard-response","68","2.0.0","233092","622a3bbca995cbb8f616a54e","2","5","null","","","","","","","","","<p style='font-size: 30px;'><strong>Okay</strong></p>","null","neutral_feedback","0","test","31","","","","","","","",""
"","","","","","","","","","","","html-button-response","69","2.0.0","235337","622a3bbca995cbb8f616a54e","2","5","2243","","","","","","","","","<img src= ""rock_img/I_Pumice_05.jpg"" style=""width:8cm; height:7.25cm;""><p>What type of rock is this?</p>","7","class_response","0","test","32","Pumice","Pumice","05","true","8","8","",""
"","","","","","","","","","","","html-keyboard-response","70","2.0.0","235846","622a3bbca995cbb8f616a54e","2","5","null","","","","","","","","","<p style='font-size: 30px;'><strong>Okay</strong></p>","null","neutral_feedback","0","test","32","","","","","","","",""
"","","","","","","","","","","","html-button-response","71","2.0.0","240257","622a3bbca995cbb8f616a54e","2","5","4410","","","","","","","","","<img src= ""rock_img/I_Pegmatite_16.jpg"" style=""width:8cm; height:5.8cm;""><p>What type of rock is this?</p>","3","class_response","0","test","33","Gabbro","Pegmatite","16","false","4","6","",""
"","","","","","","","","","","","html-keyboard-response","72","2.0.0","240765","622a3bbca995cbb8f616a54e","2","5","null","","","","","","","","","<p style='font-size: 30px;'><strong>Okay</strong></p>","null","neutral_feedback","0","test","33","","","","","","","",""
"","","","","","","","","","","","html-button-response","73","2.0.0","245449","622a3bbca995cbb8f616a54e","2","5","4682","","","","","","","","","<img src= ""rock_img/I_Basalt_02.jpg"" style=""width:8cm; height:6.45cm;""><p>What type of rock is this?</p>","6","class_response","0","test","34","Peridotite","Basalt","02","false","7","2","",""
"","","","","","","","","","","","html-keyboard-response","74","2.0.0","245965","622a3bbca995cbb8f616a54e","2","5","null","","","","","","","","","<p style='font-size: 30px;'><strong>Okay</strong></p>","null","neutral_feedback","0","test","34","","","","","","","",""
"","","","","","","","","","","","html-button-response","75","2.0.0","250658","622a3bbca995cbb8f616a54e","2","5","4691","","","","","","","","","<img src= ""rock_img/I_Andesite_11.jpg"" style=""width:8cm; height:4.92cm;""><p>What type of rock is this?</p>","2","class_response","0","test","35","Diorite","Andesite","11","false","3","1","",""
"","","","","","","","","","","","html-keyboard-response","76","2.0.0","251169","622a3bbca995cbb8f616a54e","2","5","null","","","","","","","","","<p style='font-size: 30px;'><strong>Okay</strong></p>","null","neutral_feedback","0","test","35","","","","","","","",""
"","","","","","","","","","","","html-button-response","77","2.0.0","253538","622a3bbca995cbb8f616a54e","2","5","2367","","","","","","","","","<img src= ""rock_img/I_Pegmatite_03.jpg"" style=""width:8cm; height:5.239999999999999cm;""><p>What type of rock is this?</p>","2","class_response","0","test","36","Diorite","Pegmatite","03","false","3","6","",""
"","","","","","","","","","","","html-keyboard-response","78","2.0.0","254044","622a3bbca995cbb8f616a54e","2","5","null","","","","","","","","","<p style='font-size: 30px;'><strong>Okay</strong></p>","null","neutral_feedback","0","test","36","","","","","","","",""
"","","","","","","","","","","","html-button-response","79","2.0.0","255025","622a3bbca995cbb8f616a54e","2","5","980","","","","","","","","","<img src= ""rock_img/I_Diorite_07.jpg"" style=""width:8cm; height:5.239999999999999cm;""><p>What type of rock is this?</p>","2","class_response","0","test","37","Diorite","Diorite","07","true","3","3","",""
"","","","","","","","","","","","html-keyboard-response","80","2.0.0","255535","622a3bbca995cbb8f616a54e","2","5","null","","","","","","","","","<p style='font-size: 30px;'><strong>Okay</strong></p>","null","neutral_feedback","0","test","37","","","","","","","",""
"","","","","","","","","","","","html-button-response","81","2.0.0","262737","622a3bbca995cbb8f616a54e","2","5","7201","","","","","","","","","<img src= ""rock_img/I_Basalt_04.jpg"" style=""width:8cm; height:7.53cm;""><p>What type of rock is this?</p>","1","class_response","0","test","38","Basalt","Basalt","04","true","2","2","",""
"","","","","","","","","","","","html-keyboard-response","82","2.0.0","263252","622a3bbca995cbb8f616a54e","2","5","null","","","","","","","","","<p style='font-size: 30px;'><strong>Okay</strong></p>","null","neutral_feedback","0","test","38","","","","","","","",""
"","","","","","","","","","","","html-button-response","83","2.0.0","265905","622a3bbca995cbb8f616a54e","2","5","2651","","","","","","","","","<img src= ""rock_img/I_Basalt_16.jpg"" style=""width:8cm; height:7.659999999999999cm;""><p>What type of rock is this?</p>","7","class_response","0","test","39","Pumice","Basalt","16","false","8","2","",""
"","","","","","","","","","","","html-keyboard-response","84","2.0.0","266414","622a3bbca995cbb8f616a54e","2","5","null","","","","","","","","","<p style='font-size: 30px;'><strong>Okay</strong></p>","null","neutral_feedback","0","test","39","","","","","","","",""
"","","","","","","","","","","","html-button-response","85","2.0.0","269619","622a3bbca995cbb8f616a54e","2","5","3204","","","","","","","","","<img src= ""rock_img/I_Peridotite_10.jpg"" style=""width:8cm; height:5.390000000000001cm;""><p>What type of rock is this?</p>","2","class_response","0","test","40","Diorite","Peridotite","10","false","3","7","",""
"","","","","","","","","","","","html-keyboard-response","86","2.0.0","270129","622a3bbca995cbb8f616a54e","2","5","null","","","","","","","","","<p style='font-size: 30px;'><strong>Okay</strong></p>","null","neutral_feedback","0","test","40","","","","","","","",""
"","","","","","","","","","","","html-button-response","87","2.0.0","275361","622a3bbca995cbb8f616a54e","2","5","5231","","","","","","","","","<img src= ""rock_img/I_Andesite_01.jpg"" style=""width:8cm; height:5.87cm;""><p>What type of rock is this?</p>","4","class_response","0","test","41","Obsidian","Andesite","01","false","5","1","",""
"","","","","","","","","","","","html-keyboard-response","88","2.0.0","275865","622a3bbca995cbb8f616a54e","2","5","null","","","","","","","","","<p style='font-size: 30px;'><strong>Okay</strong></p>","null","neutral_feedback","0","test","41","","","","","","","",""
"","","","","","","","","","","","html-button-response","89","2.0.0","278186","622a3bbca995cbb8f616a54e","2","5","2320","","","","","","","","","<img src= ""rock_img/I_Pegmatite_09.jpg"" style=""width:8cm; height:4.03cm;""><p>What type of rock is this?</p>","5","class_response","0","test","42","Pegmatite","Pegmatite","09","true","6","6","",""
"","","","","","","","","","","","html-keyboard-response","90","2.0.0","278697","622a3bbca995cbb8f616a54e","2","5","null","","","","","","","","","<p style='font-size: 30px;'><strong>Okay</strong></p>","null","neutral_feedback","0","test","42","","","","","","","",""
"","","","","","","","","","","","html-button-response","91","2.0.0","280442","622a3bbca995cbb8f616a54e","2","5","1743","","","","","","","","","<img src= ""rock_img/I_Pumice_06.jpg"" style=""width:8cm; height:6.9399999999999995cm;""><p>What type of rock is this?</p>","7","class_response","0","test","43","Pumice","Pumice","06","true","8","8","",""
"","","","","","","","","","","","html-keyboard-response","92","2.0.0","280946","622a3bbca995cbb8f616a54e","2","5","null","","","","","","","","","<p style='font-size: 30px;'><strong>Okay</strong></p>","null","neutral_feedback","0","test","43","","","","","","","",""
"","","","","","","","","","","","html-button-response","93","2.0.0","283649","622a3bbca995cbb8f616a54e","2","5","2702","","","","","","","","","<img src= ""rock_img/I_Obsidian_10.jpg"" style=""width:8cm; height:6.260000000000001cm;""><p>What type of rock is this?</p>","4","class_response","0","test","44","Obsidian","Obsidian","10","true","5","5","",""
"","","","","","","","","","","","html-keyboard-response","94","2.0.0","284157","622a3bbca995cbb8f616a54e","2","5","null","","","","","","","","","<p style='font-size: 30px;'><strong>Okay</strong></p>","null","neutral_feedback","0","test","44","","","","","","","",""
"","","","","","","","","","","","html-button-response","95","2.0.0","286353","622a3bbca995cbb8f616a54e","2","5","2194","","","","","","","","","<img src= ""rock_img/I_Diorite_11.jpg"" style=""width:8cm; height:7.11cm;""><p>What type of rock is this?</p>","2","class_response","0","test","45","Diorite","Diorite","11","true","3","3","",""
"","","","","","","","","","","","html-keyboard-response","96","2.0.0","286866","622a3bbca995cbb8f616a54e","2","5","null","","","","","","","","","<p style='font-size: 30px;'><strong>Okay</strong></p>","null","neutral_feedback","0","test","45","","","","","","","",""
"","","","","","","","","","","","html-button-response","97","2.0.0","288713","622a3bbca995cbb8f616a54e","2","5","1846","","","","","","","","","<img src= ""rock_img/I_Peridotite_06.jpg"" style=""width:8cm; height:7.53cm;""><p>What type of rock is this?</p>","6","class_response","0","test","46","Peridotite","Peridotite","06","true","7","7","",""
"","","","","","","","","","","","html-keyboard-response","98","2.0.0","289229","622a3bbca995cbb8f616a54e","2","5","null","","","","","","","","","<p style='font-size: 30px;'><strong>Okay</strong></p>","null","neutral_feedback","0","test","46","","","","","","","",""
"","","","","","","","","","","","html-button-response","99","2.0.0","290733","622a3bbca995cbb8f616a54e","2","5","1503","","","","","","","","","<img src= ""rock_img/I_Pumice_02.jpg"" style=""width:8cm; height:7.3999999999999995cm;""><p>What type of rock is this?</p>","7","class_response","0","test","47","Pumice","Pumice","02","true","8","8","",""
"","","","","","","","","","","","html-keyboard-response","100","2.0.0","291240","622a3bbca995cbb8f616a54e","2","5","null","","","","","","","","","<p style='font-size: 30px;'><strong>Okay</strong></p>","null","neutral_feedback","0","test","47","","","","","","","",""
"","","","","","","","","","","","html-button-response","101","2.0.0","294362","622a3bbca995cbb8f616a54e","2","5","3120","","","","","","","","","<img src= ""rock_img/I_Gabbro_03.jpg"" style=""width:8cm; height:8.52cm;""><p>What type of rock is this?</p>","3","class_response","0","test","48","Gabbro","Gabbro","03","true","4","4","",""
"","","","","","","","","","","","html-keyboard-response","102","2.0.0","294867","622a3bbca995cbb8f616a54e","2","5","null","","","","","","","","","<p style='font-size: 30px;'><strong>Okay</strong></p>","null","neutral_feedback","0","test","48","","","","","","","",""
"","","","","","","","","","","","instructions","103","2.0.0","346266","622a3bbca995cbb8f616a54e","2","5","51379","","","","","","","","[{""page_index"":0,""viewing_time"":18906},{""page_index"":1,""viewing_time"":29032},{""page_index"":2,""viewing_time"":3441}]","","","","","","","","","","","","","",""
"","","","","","","","","","","","html-button-response","104","2.0.0","351833","622a3bbca995cbb8f616a54e","2","5","5566","","","","","","","","","","0","start_train","","","","","","","","","","",""
"","","","","","","","","","","","html-button-response","105","2.0.0","357041","622a3bbca995cbb8f616a54e","2","5","5207","","","","","","","","","<img src= ""rock_img/I_Peridotite_04.jpg"" style=""width:8cm; height:6.680000000000001cm;""><p>What type of rock is this?</p>","2","class_response","1","train","1","Diorite","Peridotite","04","false","3","7","",""
"","","","","","","","","","","","html-button-response","106","2.0.0","365171","622a3bbca995cbb8f616a54e","2","5","8128","","","","","","","","","<img src= rock_img/I_Peridotite_04.jpg style=""width:8cm; height:6.680000000000001cm;""><p style='font-size: 30px; color: red;'><strong>Incorrect!</strong></p><p style='font-size: 30px;'><strong>This rock is peridotite</strong></p>","0","corr_feedback","1","train","1","","","","","","","",""
"","","","","","","","","","","","html-button-response","107","2.0.0","372697","622a3bbca995cbb8f616a54e","2","5","7525","","","","","","","","","<img src= ""rock_img/I_Gabbro_10.jpg"" style=""width:8cm; height:5.680000000000001cm;""><p>What type of rock is this?</p>","5","class_response","1","train","2","Pegmatite","Gabbro","10","false","6","4","",""
"","","","","","","","","","","","html-button-response","108","2.0.0","376913","622a3bbca995cbb8f616a54e","2","5","4215","","","","","","","","","<img src= rock_img/I_Gabbro_10.jpg style=""width:8cm; height:5.680000000000001cm;""><p style='font-size: 30px; color: red;'><strong>Incorrect!</strong></p><p style='font-size: 30px;'><strong>This rock is gabbro</strong></p>","0","corr_feedback","1","train","2","","","","","","","",""
"","","","","","","","","","","","html-button-response","109","2.0.0","381113","622a3bbca995cbb8f616a54e","2","5","4199","","","","","","","","","<img src= ""rock_img/I_Gabbro_12.jpg"" style=""width:8cm; height:7.800000000000001cm;""><p>What type of rock is this?</p>","3","class_response","1","train","3","Gabbro","Gabbro","12","true","4","4","",""
"","","","","","","","","","","","html-button-response","110","2.0.0","383817","622a3bbca995cbb8f616a54e","2","5","2702","","","","","","","","","<img src= rock_img/I_Gabbro_12.jpg style=""width:8cm; height:7.800000000000001cm;""><p style='font-size: 30px; color: green;'><strong>Correct!</strong></p><p style='font-size: 30px;'><strong>This rock is gabbro</strong></p>","0","corr_feedback","1","train","3","","","","","","","",""
"","","","","","","","","","","","html-button-response","111","2.0.0","391482","622a3bbca995cbb8f616a54e","2","5","7663","","","","","","","","","<img src= ""rock_img/I_Gabbro_14.jpg"" style=""width:8cm; height:8.48cm;""><p>What type of rock is this?</p>","3","class_response","1","train","4","Gabbro","Gabbro","14","true","4","4","",""
"","","","","","","","","","","","html-button-response","112","2.0.0","392897","622a3bbca995cbb8f616a54e","2","5","1414","","","","","","","","","<img src= rock_img/I_Gabbro_14.jpg style=""width:8cm; height:8.48cm;""><p style='font-size: 30px; color: green;'><strong>Correct!</strong></p><p style='font-size: 30px;'><strong>This rock is gabbro</strong></p>","0","corr_feedback","1","train","4","","","","","","","",""
"","","","","","","","","","","","html-button-response","113","2.0.0","398649","622a3bbca995cbb8f616a54e","2","5","5751","","","","","","","","","<img src= ""rock_img/I_Basalt_05.jpg"" style=""width:8cm; height:8.18cm;""><p>What type of rock is this?</p>","3","class_response","1","train","5","Gabbro","Basalt","05","false","4","2","",""
"","","","","","","","","","","","html-button-response","114","2.0.0","401569","622a3bbca995cbb8f616a54e","2","5","2919","","","","","","","","","<img src= rock_img/I_Basalt_05.jpg style=""width:8cm; height:8.18cm;""><p style='font-size: 30px; color: red;'><strong>Incorrect!</strong></p><p style='font-size: 30px;'><strong>This rock is basalt</strong></p>","0","corr_feedback","1","train","5","","","","","","","",""
"","","","","","","","","","","","html-button-response","115","2.0.0","404889","622a3bbca995cbb8f616a54e","2","5","3319","","","","","","","","","<img src= ""rock_img/I_Pegmatite_06.jpg"" style=""width:8cm; height:5.17cm;""><p>What type of rock is this?</p>","5","class_response","1","train","6","Pegmatite","Pegmatite","06","true","6","6","",""
"","","","","","","","","","","","html-button-response","116","2.0.0","412593","622a3bbca995cbb8f616a54e","2","5","7703","","","","","","","","","<img src= rock_img/I_Pegmatite_06.jpg style=""width:8cm; height:5.17cm;""><p style='font-size: 30px; color: green;'><strong>Correct!</strong></p><p style='font-size: 30px;'><strong>This rock is pegmatite</strong></p>","0","corr_feedback","1","train","6","","","","","","","",""
"","","","","","","","","","","","html-button-response","117","2.0.0","414914","622a3bbca995cbb8f616a54e","2","5","2319","","","","","","","","","<img src= ""rock_img/I_Obsidian_06.jpg"" style=""width:8cm; height:6.8cm;""><p>What type of rock is this?</p>","4","class_response","1","train","7","Obsidian","Obsidian","06","true","5","5","",""
"","","","","","","","","","","","html-button-response","118","2.0.0","417121","622a3bbca995cbb8f616a54e","2","5","2206","","","","","","","","","<img src= rock_img/I_Obsidian_06.jpg style=""width:8cm; height:6.8cm;""><p style='font-size: 30px; color: green;'><strong>Correct!</strong></p><p style='font-size: 30px;'><strong>This rock is obsidian</strong></p>","0","corr_feedback","1","train","7","","","","","","","",""
"","","","","","","","","","","","html-button-response","119","2.0.0","421953","622a3bbca995cbb8f616a54e","2","5","4831","","","","","","","","","<img src= ""rock_img/I_Basalt_06.jpg"" style=""width:8cm; height:7.06cm;""><p>What type of rock is this?</p>","3","class_response","1","train","8","Gabbro","Basalt","06","false","4","2","",""
"","","","","","","","","","","","html-button-response","120","2.0.0","423929","622a3bbca995cbb8f616a54e","2","5","1975","","","","","","","","","<img src= rock_img/I_Basalt_06.jpg style=""width:8cm; height:7.06cm;""><p style='font-size: 30px; color: red;'><strong>Incorrect!</strong></p><p style='font-size: 30px;'><strong>This rock is basalt</strong></p>","0","corr_feedback","1","train","8","","","","","","","",""
"","","","","","","","","","","","html-button-response","121","2.0.0","432441","622a3bbca995cbb8f616a54e","2","5","8511","","","","","","","","","<img src= ""rock_img/I_Diorite_10.jpg"" style=""width:8cm; height:5.949999999999999cm;""><p>What type of rock is this?</p>","2","class_response","1","train","9","Diorite","Diorite","10","true","3","3","",""
"","","","","","","","","","","","html-button-response","122","2.0.0","435504","622a3bbca995cbb8f616a54e","2","5","3062","","","","","","","","","<img src= rock_img/I_Diorite_10.jpg style=""width:8cm; height:5.949999999999999cm;""><p style='font-size: 30px; color: green;'><strong>Correct!</strong></p><p style='font-size: 30px;'><strong>This rock is diorite</strong></p>","0","corr_feedback","1","train","9","","","","","","","",""
"","","","","","","","","","","","html-button-response","123","2.0.0","439880","622a3bbca995cbb8f616a54e","2","5","4375","","","","","","","","","<img src= ""rock_img/I_Diorite_02.jpg"" style=""width:8cm; height:6.27cm;""><p>What type of rock is this?</p>","6","class_response","1","train","10","Peridotite","Diorite","02","false","7","3","",""
"","","","","","","","","","","","html-button-response","124","2.0.0","441857","622a3bbca995cbb8f616a54e","2","5","1976","","","","","","","","","<img src= rock_img/I_Diorite_02.jpg style=""width:8cm; height:6.27cm;""><p style='font-size: 30px; color: red;'><strong>Incorrect!</strong></p><p style='font-size: 30px;'><strong>This rock is diorite</strong></p>","0","corr_feedback","1","train","10","","","","","","","",""
"","","","","","","","","","","","html-button-response","125","2.0.0","443865","622a3bbca995cbb8f616a54e","2","5","2006","","","","","","","","","<img src= ""rock_img/I_Andesite_14.jpg"" style=""width:8cm; height:5.449999999999999cm;""><p>What type of rock is this?</p>","7","class_response","1","train","11","Pumice","Andesite","14","false","8","1","",""
"","","","","","","","","","","","html-button-response","126","2.0.0","447440","622a3bbca995cbb8f616a54e","2","5","3575","","","","","","","","","<img src= rock_img/I_Andesite_14.jpg style=""width:8cm; height:5.449999999999999cm;""><p style='font-size: 30px; color: red;'><strong>Incorrect!</strong></p><p style='font-size: 30px;'><strong>This rock is andesite</strong></p>","0","corr_feedback","1","train","11","","","","","","","",""
"","","","","","","","","","","","html-button-response","127","2.0.0","455192","622a3bbca995cbb8f616a54e","2","5","7751","","","","","","","","","<img src= ""rock_img/I_Peridotite_05.jpg"" style=""width:8cm; height:7.1499999999999995cm;""><p>What type of rock is this?</p>","3","class_response","1","train","12","Gabbro","Peridotite","05","false","4","7","",""
"","","","","","","","","","","","html-button-response","128","2.0.0","457481","622a3bbca995cbb8f616a54e","2","5","2288","","","","","","","","","<img src= rock_img/I_Peridotite_05.jpg style=""width:8cm; height:7.1499999999999995cm;""><p style='font-size: 30px; color: red;'><strong>Incorrect!</strong></p><p style='font-size: 30px;'><strong>This rock is peridotite</strong></p>","0","corr_feedback","1","train","12","","","","","","","",""
"","","","","","","","","","","","html-button-response","129","2.0.0","462464","622a3bbca995cbb8f616a54e","2","5","4982","","","","","","","","","<img src= ""rock_img/I_Pegmatite_13.jpg"" style=""width:8cm; height:4.95cm;""><p>What type of rock is this?</p>","5","class_response","1","train","13","Pegmatite","Pegmatite","13","true","6","6","",""
"","","","","","","","","","","","html-button-response","130","2.0.0","465564","622a3bbca995cbb8f616a54e","2","5","3099","","","","","","","","","<img src= rock_img/I_Pegmatite_13.jpg style=""width:8cm; height:4.95cm;""><p style='font-size: 30px; color: green;'><strong>Correct!</strong></p><p style='font-size: 30px;'><strong>This rock is pegmatite</strong></p>","0","corr_feedback","1","train","13","","","","","","","",""
"","","","","","","","","","","","html-button-response","131","2.0.0","469280","622a3bbca995cbb8f616a54e","2","5","3715","","","","","","","","","<img src= ""rock_img/I_Basalt_08.jpg"" style=""width:8cm; height:10.44cm;""><p>What type of rock is this?</p>","1","class_response","1","train","14","Basalt","Basalt","08","true","2","2","",""
"","","","","","","","","","","","html-button-response","132","2.0.0","471680","622a3bbca995cbb8f616a54e","2","5","2399","","","","","","","","","<img src= rock_img/I_Basalt_08.jpg style=""width:8cm; height:10.44cm;""><p style='font-size: 30px; color: green;'><strong>Correct!</strong></p><p style='font-size: 30px;'><strong>This rock is basalt</strong></p>","0","corr_feedback","1","train","14","","","","","","","",""
"","","","","","","","","","","","html-button-response","133","2.0.0","475760","622a3bbca995cbb8f616a54e","2","5","4079","","","","","","","","","<img src= ""rock_img/I_Pumice_16.jpg"" style=""width:8cm; height:6.79cm;""><p>What type of rock is this?</p>","7","class_response","1","train","15","Pumice","Pumice","16","true","8","8","",""
"","","","","","","","","","","","html-button-response","134","2.0.0","477465","622a3bbca995cbb8f616a54e","2","5","1703","","","","","","","","","<img src= rock_img/I_Pumice_16.jpg style=""width:8cm; height:6.79cm;""><p style='font-size: 30px; color: green;'><strong>Correct!</strong></p><p style='font-size: 30px;'><strong>This rock is pumice</strong></p>","0","corr_feedback","1","train","15","","","","","","","",""
"","","","","","","","","","","","html-button-response","135","2.0.0","480816","622a3bbca995cbb8f616a54e","2","5","3350","","","","","","","","","<img src= ""rock_img/I_Andesite_07.jpg"" style=""width:8cm; height:5.93cm;""><p>What type of rock is this?</p>","2","class_response","1","train","16","Diorite","Andesite","07","false","3","1","",""
"","","","","","","","","","","","html-button-response","136","2.0.0","483032","622a3bbca995cbb8f616a54e","2","5","2215","","","","","","","","","<img src= rock_img/I_Andesite_07.jpg style=""width:8cm; height:5.93cm;""><p style='font-size: 30px; color: red;'><strong>Incorrect!</strong></p><p style='font-size: 30px;'><strong>This rock is andesite</strong></p>","0","corr_feedback","1","train","16","","","","","","","",""
"","","","","","","","","","","","html-button-response","137","2.0.0","492659","622a3bbca995cbb8f616a54e","2","5","9625","","","","","","","","","<img src= ""rock_img/I_Peridotite_14.jpg"" style=""width:8cm; height:5.3cm;""><p>What type of rock is this?</p>","2","class_response","1","train","17","Diorite","Peridotite","14","false","3","7","",""
"","","","","","","","","","","","html-button-response","138","2.0.0","493792","622a3bbca995cbb8f616a54e","2","5","1132","","","","","","","","","<img src= rock_img/I_Peridotite_14.jpg style=""width:8cm; height:5.3cm;""><p style='font-size: 30px; color: red;'><strong>Incorrect!</strong></p><p style='font-size: 30px;'><strong>This rock is peridotite</strong></p>","0","corr_feedback","1","train","17","","","","","","","",""
"","","","","","","","","","","","html-button-response","139","2.0.0","501738","622a3bbca995cbb8f616a54e","2","5","7943","","","","","","","","","<img src= ""rock_img/I_Gabbro_13.jpg"" style=""width:8cm; height:5.08cm;""><p>What type of rock is this?</p>","5","class_response","1","train","18","Pegmatite","Gabbro","13","false","6","4","",""
"","","","","","","","","","","","html-button-response","140","2.0.0","502721","622a3bbca995cbb8f616a54e","2","5","982","","","","","","","","","<img src= rock_img/I_Gabbro_13.jpg style=""width:8cm; height:5.08cm;""><p style='font-size: 30px; color: red;'><strong>Incorrect!</strong></p><p style='font-size: 30px;'><strong>This rock is gabbro</strong></p>","0","corr_feedback","1","train","18","","","","","","","",""
"","","","","","","","","","","","html-button-response","141","2.0.0","505402","622a3bbca995cbb8f616a54e","2","5","2679","","","","","","","","","<img src= ""rock_img/I_Basalt_09.jpg"" style=""width:8cm; height:6.2cm;""><p>What type of rock is this?</p>","1","class_response","1","train","19","Basalt","Basalt","09","true","2","2","",""
"","","","","","","","","","","","html-button-response","142","2.0.0","506309","622a3bbca995cbb8f616a54e","2","5","906","","","","","","","","","<img src= rock_img/I_Basalt_09.jpg style=""width:8cm; height:6.2cm;""><p style='font-size: 30px; color: green;'><strong>Correct!</strong></p><p style='font-size: 30px;'><strong>This rock is basalt</strong></p>","0","corr_feedback","1","train","19","","","","","","","",""
"","","","","","","","","","","","html-button-response","143","2.0.0","516617","622a3bbca995cbb8f616a54e","2","5","10307","","","","","","","","","<img src= ""rock_img/I_Basalt_14.jpg"" style=""width:8cm; height:5.82cm;""><p>What type of rock is this?</p>","3","class_response","1","train","20","Gabbro","Basalt","14","false","4","2","",""
"","","","","","","","","","","","html-button-response","144","2.0.0","518073","622a3bbca995cbb8f616a54e","2","5","1455","","","","","","","","","<img src= rock_img/I_Basalt_14.jpg style=""width:8cm; height:5.82cm;""><p style='font-size: 30px; color: red;'><strong>Incorrect!</strong></p><p style='font-size: 30px;'><strong>This rock is basalt</strong></p>","0","corr_feedback","1","train","20","","","","","","","",""
"","","","","","","","","","","","html-button-response","145","2.0.0","519468","622a3bbca995cbb8f616a54e","2","5","1394","","","","","","","","","<img src= ""rock_img/I_Pegmatite_13.jpg"" style=""width:8cm; height:4.95cm;""><p>What type of rock is this?</p>","5","class_response","1","train","21","Pegmatite","Pegmatite","13","true","6","6","",""
"","","","","","","","","","","","html-button-response","146","2.0.0","520498","622a3bbca995cbb8f616a54e","2","5","1029","","","","","","","","","<img src= rock_img/I_Pegmatite_13.jpg style=""width:8cm; height:4.95cm;""><p style='font-size: 30px; color: green;'><strong>Correct!</strong></p><p style='font-size: 30px;'><strong>This rock is pegmatite</strong></p>","0","corr_feedback","1","train","21","","","","","","","",""
"","","","","","","","","","","","html-button-response","147","2.0.0","524668","622a3bbca995cbb8f616a54e","2","5","4169","","","","","","","","","<img src= ""rock_img/I_Peridotite_13.jpg"" style=""width:8cm; height:7.58cm;""><p>What type of rock is this?</p>","0","class_response","1","train","22","Andesite","Peridotite","13","false","1","7","",""
"","","","","","","","","","","","html-button-response","148","2.0.0","526073","622a3bbca995cbb8f616a54e","2","5","1404","","","","","","","","","<img src= rock_img/I_Peridotite_13.jpg style=""width:8cm; height:7.58cm;""><p style='font-size: 30px; color: red;'><strong>Incorrect!</strong></p><p style='font-size: 30px;'><strong>This rock is peridotite</strong></p>","0","corr_feedback","1","train","22","","","","","","","",""
"","","","","","","","","","","","html-button-response","149","2.0.0","529609","622a3bbca995cbb8f616a54e","2","5","3535","","","","","","","","","<img src= ""rock_img/I_Andesite_05.jpg"" style=""width:8cm; height:4.12cm;""><p>What type of rock is this?</p>","2","class_response","1","train","23","Diorite","Andesite","05","false","3","1","",""
"","","","","","","","","","","","html-button-response","150","2.0.0","530625","622a3bbca995cbb8f616a54e","2","5","1015","","","","","","","","","<img src= rock_img/I_Andesite_05.jpg style=""width:8cm; height:4.12cm;""><p style='font-size: 30px; color: red;'><strong>Incorrect!</strong></p><p style='font-size: 30px;'><strong>This rock is andesite</strong></p>","0","corr_feedback","1","train","23","","","","","","","",""
"","","","","","","","","","","","html-button-response","151","2.0.0","532329","622a3bbca995cbb8f616a54e","2","5","1703","","","","","","","","","<img src= ""rock_img/I_Peridotite_12.jpg"" style=""width:8cm; height:4.54cm;""><p>What type of rock is this?</p>","0","class_response","1","train","24","Andesite","Peridotite","12","false","1","7","",""
"","","","","","","","","","","","html-button-response","152","2.0.0","533745","622a3bbca995cbb8f616a54e","2","5","1415","","","","","","","","","<img src= rock_img/I_Peridotite_12.jpg style=""width:8cm; height:4.54cm;""><p style='font-size: 30px; color: red;'><strong>Incorrect!</strong></p><p style='font-size: 30px;'><strong>This rock is peridotite</strong></p>","0","corr_feedback","1","train","24","","","","","","","",""
"","","","","","","","","","","","html-button-response","153","2.0.0","539385","622a3bbca995cbb8f616a54e","2","5","5639","","","","","","","","","<img src= ""rock_img/I_Andesite_10.jpg"" style=""width:8cm; height:4.16cm;""><p>What type of rock is this?</p>","3","class_response","1","train","25","Gabbro","Andesite","10","false","4","1","",""
"","","","","","","","","","","","html-button-response","154","2.0.0","540417","622a3bbca995cbb8f616a54e","2","5","1030","","","","","","","","","<img src= rock_img/I_Andesite_10.jpg style=""width:8cm; height:4.16cm;""><p style='font-size: 30px; color: red;'><strong>Incorrect!</strong></p><p style='font-size: 30px;'><strong>This rock is andesite</strong></p>","0","corr_feedback","1","train","25","","","","","","","",""
"","","","","","","","","","","","html-button-response","155","2.0.0","542641","622a3bbca995cbb8f616a54e","2","5","2223","","","","","","","","","<img src= ""rock_img/I_Gabbro_11.jpg"" style=""width:8cm; height:6.2cm;""><p>What type of rock is this?</p>","0","class_response","1","train","26","Andesite","Gabbro","11","false","1","4","",""
"","","","","","","","","","","","html-button-response","156","2.0.0","543729","622a3bbca995cbb8f616a54e","2","5","1086","","","","","","","","","<img src= rock_img/I_Gabbro_11.jpg style=""width:8cm; height:6.2cm;""><p style='font-size: 30px; color: red;'><strong>Incorrect!</strong></p><p style='font-size: 30px;'><strong>This rock is gabbro</strong></p>","0","corr_feedback","1","train","26","","","","","","","",""
"","","","","","","","","","","","html-button-response","157","2.0.0","546059","622a3bbca995cbb8f616a54e","2","5","2329","","","","","","","","","<img src= ""rock_img/I_Diorite_06.jpg"" style=""width:8cm; height:6.03cm;""><p>What type of rock is this?</p>","5","class_response","1","train","27","Pegmatite","Diorite","06","false","6","3","",""
"","","","","","","","","","","","html-button-response","158","2.0.0","547513","622a3bbca995cbb8f616a54e","2","5","1453","","","","","","","","","<img src= rock_img/I_Diorite_06.jpg style=""width:8cm; height:6.03cm;""><p style='font-size: 30px; color: red;'><strong>Incorrect!</strong></p><p style='font-size: 30px;'><strong>This rock is diorite</strong></p>","0","corr_feedback","1","train","27","","","","","","","",""
"","","","","","","","","","","","html-button-response","159","2.0.0","548697","622a3bbca995cbb8f616a54e","2","5","1183","","","","","","","","","<img src= ""rock_img/I_Pegmatite_08.jpg"" style=""width:8cm; height:7.68cm;""><p>What type of rock is this?</p>","5","class_response","1","train","28","Pegmatite","Pegmatite","08","true","6","6","",""
"","","","","","","","","","","","html-button-response","160","2.0.0","549825","622a3bbca995cbb8f616a54e","2","5","1127","","","","","","","","","<img src= rock_img/I_Pegmatite_08.jpg style=""width:8cm; height:7.68cm;""><p style='font-size: 30px; color: green;'><strong>Correct!</strong></p><p style='font-size: 30px;'><strong>This rock is pegmatite</strong></p>","0","corr_feedback","1","train","28","","","","","","","",""
"","","","","","","","","","","","html-button-response","161","2.0.0","551650","622a3bbca995cbb8f616a54e","2","5","1823","","","","","","","","","<img src= ""rock_img/I_Diorite_02.jpg"" style=""width:8cm; height:6.27cm;""><p>What type of rock is this?</p>","2","class_response","1","train","29","Diorite","Diorite","02","true","3","3","",""
"","","","","","","","","","","","html-button-response","162","2.0.0","552873","622a3bbca995cbb8f616a54e","2","5","1222","","","","","","","","","<img src= rock_img/I_Diorite_02.jpg style=""width:8cm; height:6.27cm;""><p style='font-size: 30px; color: green;'><strong>Correct!</strong></p><p style='font-size: 30px;'><strong>This rock is diorite</strong></p>","0","corr_feedback","1","train","29","","","","","","","",""
"","","","","","","","","","","","html-button-response","163","2.0.0","555105","622a3bbca995cbb8f616a54e","2","5","2231","","","","","","","","","<img src= ""rock_img/I_Peridotite_08.jpg"" style=""width:8cm; height:6.7cm;""><p>What type of rock is this?</p>","6","class_response","1","train","30","Peridotite","Peridotite","08","true","7","7","",""
"","","","","","","","","","","","html-button-response","164","2.0.0","556241","622a3bbca995cbb8f616a54e","2","5","1135","","","","","","","","","<img src= rock_img/I_Peridotite_08.jpg style=""width:8cm; height:6.7cm;""><p style='font-size: 30px; color: green;'><strong>Correct!</strong></p><p style='font-size: 30px;'><strong>This rock is peridotite</strong></p>","0","corr_feedback","1","train","30","","","","","","","",""
"","","","","","","","","","","","html-button-response","165","2.0.0","560203","622a3bbca995cbb8f616a54e","2","5","3960","","","","","","","","","<img src= ""rock_img/I_Andesite_16.jpg"" style=""width:8cm; height:6.010000000000001cm;""><p>What type of rock is this?</p>","6","class_response","1","train","31","Peridotite","Andesite","16","false","7","1","",""
"","","","","","","","","","","","html-button-response","166","2.0.0","561400","622a3bbca995cbb8f616a54e","2","5","1197","","","","","","","","","<img src= rock_img/I_Andesite_16.jpg style=""width:8cm; height:6.010000000000001cm;""><p style='font-size: 30px; color: red;'><strong>Incorrect!</strong></p><p style='font-size: 30px;'><strong>This rock is andesite</strong></p>","0","corr_feedback","1","train","31","","","","","","","",""
"","","","","","","","","","","","html-button-response","167","2.0.0","564624","622a3bbca995cbb8f616a54e","2","5","3223","","","","","","","","","<img src= ""rock_img/I_Pumice_03.jpg"" style=""width:8cm; height:6.64cm;""><p>What type of rock is this?</p>","7","class_response","1","train","32","Pumice","Pumice","03","true","8","8","",""
"","","","","","","","","","","","html-button-response","168","2.0.0","565636","622a3bbca995cbb8f616a54e","2","5","1010","","","","","","","","","<img src= rock_img/I_Pumice_03.jpg style=""width:8cm; height:6.64cm;""><p style='font-size: 30px; color: green;'><strong>Correct!</strong></p><p style='font-size: 30px;'><strong>This rock is pumice</strong></p>","0","corr_feedback","1","train","32","","","","","","","",""
"","","","","","","","","","","","html-button-response","169","2.0.0","572288","622a3bbca995cbb8f616a54e","2","5","6651","","","","","","","","","<img src= ""rock_img/I_Gabbro_09.jpg"" style=""width:8cm; height:7.279999999999999cm;""><p>What type of rock is this?</p>","0","class_response","1","train","33","Andesite","Gabbro","09","false","1","4","",""
"","","","","","","","","","","","html-button-response","170","2.0.0","573523","622a3bbca995cbb8f616a54e","2","5","1233","","","","","","","","","<img src= rock_img/I_Gabbro_09.jpg style=""width:8cm; height:7.279999999999999cm;""><p style='font-size: 30px; color: red;'><strong>Incorrect!</strong></p><p style='font-size: 30px;'><strong>This rock is gabbro</strong></p>","0","corr_feedback","1","train","33","","","","","","","",""
"","","","","","","","","","","","html-button-response","171","2.0.0","575473","622a3bbca995cbb8f616a54e","2","5","1949","","","","","","","","","<img src= ""rock_img/I_Basalt_10.jpg"" style=""width:8cm; height:5.85cm;""><p>What type of rock is this?</p>","1","class_response","1","train","34","Basalt","Basalt","10","true","2","2","",""
"","","","","","","","","","","","html-button-response","172","2.0.0","576336","622a3bbca995cbb8f616a54e","2","5","862","","","","","","","","","<img src= rock_img/I_Basalt_10.jpg style=""width:8cm; height:5.85cm;""><p style='font-size: 30px; color: green;'><strong>Correct!</strong></p><p style='font-size: 30px;'><strong>This rock is basalt</strong></p>","0","corr_feedback","1","train","34","","","","","","","",""
"","","","","","","","","","","","html-button-response","173","2.0.0","578433","622a3bbca995cbb8f616a54e","2","5","2095","","","","","","","","","<img src= ""rock_img/I_Diorite_13.jpg"" style=""width:8cm; height:6.29cm;""><p>What type of rock is this?</p>","2","class_response","1","train","35","Diorite","Diorite","13","true","3","3","",""
"","","","","","","","","","","","html-button-response","174","2.0.0","579336","622a3bbca995cbb8f616a54e","2","5","903","","","","","","","","","<img src= rock_img/I_Diorite_13.jpg style=""width:8cm; height:6.29cm;""><p style='font-size: 30px; color: green;'><strong>Correct!</strong></p><p style='font-size: 30px;'><strong>This rock is diorite</strong></p>","0","corr_feedback","1","train","35","","","","","","","",""
"","","","","","","","","","","","html-button-response","175","2.0.0","586232","622a3bbca995cbb8f616a54e","2","5","6895","","","","","","","","","<img src= ""rock_img/I_Andesite_16.jpg"" style=""width:8cm; height:6.010000000000001cm;""><p>What type of rock is this?</p>","6","class_response","1","train","36","Peridotite","Andesite","16","false","7","1","",""
"","","","","","","","","","","","html-button-response","176","2.0.0","591736","622a3bbca995cbb8f616a54e","2","5","5503","","","","","","","","","<img src= rock_img/I_Andesite_16.jpg style=""width:8cm; height:6.010000000000001cm;""><p style='font-size: 30px; color: red;'><strong>Incorrect!</strong></p><p style='font-size: 30px;'><strong>This rock is andesite</strong></p>","0","corr_feedback","1","train","36","","","","","","","",""
"","","","","","","","","","","","html-button-response","177","2.0.0","593604","622a3bbca995cbb8f616a54e","2","5","1867","","","","","","","","","<img src= ""rock_img/I_Andesite_04.jpg"" style=""width:8cm; height:5.96cm;""><p>What type of rock is this?</p>","0","class_response","1","train","37","Andesite","Andesite","04","true","1","1","",""
"","","","","","","","","","","","html-button-response","178","2.0.0","594689","622a3bbca995cbb8f616a54e","2","5","1084","","","","","","","","","<img src= rock_img/I_Andesite_04.jpg style=""width:8cm; height:5.96cm;""><p style='font-size: 30px; color: green;'><strong>Correct!</strong></p><p style='font-size: 30px;'><strong>This rock is andesite</strong></p>","0","corr_feedback","1","train","37","","","","","","","",""
"","","","","","","","","","","","html-button-response","179","2.0.0","598856","622a3bbca995cbb8f616a54e","2","5","4166","","","","","","","","","<img src= ""rock_img/I_Basalt_10.jpg"" style=""width:8cm; height:5.85cm;""><p>What type of rock is this?</p>","4","class_response","1","train","38","Obsidian","Basalt","10","false","5","2","",""
"","","","","","","","","","","","html-button-response","180","2.0.0","600018","622a3bbca995cbb8f616a54e","2","5","1161","","","","","","","","","<img src= rock_img/I_Basalt_10.jpg style=""width:8cm; height:5.85cm;""><p style='font-size: 30px; color: red;'><strong>Incorrect!</strong></p><p style='font-size: 30px;'><strong>This rock is basalt</strong></p>","0","corr_feedback","1","train","38","","","","","","","",""
"","","","","","","","","","","","html-button-response","181","2.0.0","603332","622a3bbca995cbb8f616a54e","2","5","3313","","","","","","","","","<img src= ""rock_img/I_Basalt_05.jpg"" style=""width:8cm; height:8.18cm;""><p>What type of rock is this?</p>","1","class_response","1","train","39","Basalt","Basalt","05","true","2","2","",""
"","","","","","","","","","","","html-button-response","182","2.0.0","604248","622a3bbca995cbb8f616a54e","2","5","915","","","","","","","","","<img src= rock_img/I_Basalt_05.jpg style=""width:8cm; height:8.18cm;""><p style='font-size: 30px; color: green;'><strong>Correct!</strong></p><p style='font-size: 30px;'><strong>This rock is basalt</strong></p>","0","corr_feedback","1","train","39","","","","","","","",""
"","","","","","","","","","","","html-button-response","183","2.0.0","606185","622a3bbca995cbb8f616a54e","2","5","1935","","","","","","","","","<img src= ""rock_img/I_Pegmatite_15.jpg"" style=""width:8cm; height:6cm;""><p>What type of rock is this?</p>","5","class_response","1","train","40","Pegmatite","Pegmatite","15","true","6","6","",""
"","","","","","","","","","","","html-button-response","184","2.0.0","607161","622a3bbca995cbb8f616a54e","2","5","975","","","","","","","","","<img src= rock_img/I_Pegmatite_15.jpg style=""width:8cm; height:6cm;""><p style='font-size: 30px; color: green;'><strong>Correct!</strong></p><p style='font-size: 30px;'><strong>This rock is pegmatite</strong></p>","0","corr_feedback","1","train","40","","","","","","","",""
"","","","","","","","","","","","html-button-response","185","2.0.0","612826","622a3bbca995cbb8f616a54e","2","5","5664","","","","","","","","","<img src= ""rock_img/I_Peridotite_08.jpg"" style=""width:8cm; height:6.7cm;""><p>What type of rock is this?</p>","0","class_response","1","train","41","Andesite","Peridotite","08","false","1","7","",""
"","","","","","","","","","","","html-button-response","186","2.0.0","615403","622a3bbca995cbb8f616a54e","2","5","2576","","","","","","","","","<img src= rock_img/I_Peridotite_08.jpg style=""width:8cm; height:6.7cm;""><p style='font-size: 30px; color: red;'><strong>Incorrect!</strong></p><p style='font-size: 30px;'><strong>This rock is peridotite</strong></p>","0","corr_feedback","1","train","41","","","","","","","",""
"","","","","","","","","","","","html-button-response","187","2.0.0","617322","622a3bbca995cbb8f616a54e","2","5","1917","","","","","","","","","<img src= ""rock_img/I_Diorite_14.jpg"" style=""width:8cm; height:5.71cm;""><p>What type of rock is this?</p>","5","class_response","1","train","42","Pegmatite","Diorite","14","false","6","3","",""
"","","","","","","","","","","","html-button-response","188","2.0.0","619136","622a3bbca995cbb8f616a54e","2","5","1814","","","","","","","","","<img src= rock_img/I_Diorite_14.jpg style=""width:8cm; height:5.71cm;""><p style='font-size: 30px; color: red;'><strong>Incorrect!</strong></p><p style='font-size: 30px;'><strong>This rock is diorite</strong></p>","0","corr_feedback","1","train","42","","","","","","","",""
"","","","","","","","","","","","html-button-response","189","2.0.0","626753","622a3bbca995cbb8f616a54e","2","5","7615","","","","","","","","","<img src= ""rock_img/I_Pumice_08.jpg"" style=""width:8cm; height:6.67cm;""><p>What type of rock is this?</p>","3","class_response","1","train","43","Gabbro","Pumice","08","false","4","8","",""
"","","","","","","","","","","","html-button-response","190","2.0.0","628369","622a3bbca995cbb8f616a54e","2","5","1615","","","","","","","","","<img src= rock_img/I_Pumice_08.jpg style=""width:8cm; height:6.67cm;""><p style='font-size: 30px; color: red;'><strong>Incorrect!</strong></p><p style='font-size: 30px;'><strong>This rock is pumice</strong></p>","0","corr_feedback","1","train","43","","","","","","","",""
"","","","","","","","","","","","html-button-response","191","2.0.0","633314","622a3bbca995cbb8f616a54e","2","5","4943","","","","","","","","","<img src= ""rock_img/I_Andesite_04.jpg"" style=""width:8cm; height:5.96cm;""><p>What type of rock is this?</p>","2","class_response","1","train","44","Diorite","Andesite","04","false","3","1","",""
"","","","","","","","","","","","html-button-response","192","2.0.0","634529","622a3bbca995cbb8f616a54e","2","5","1214","","","","","","","","","<img src= rock_img/I_Andesite_04.jpg style=""width:8cm; height:5.96cm;""><p style='font-size: 30px; color: red;'><strong>Incorrect!</strong></p><p style='font-size: 30px;'><strong>This rock is andesite</strong></p>","0","corr_feedback","1","train","44","","","","","","","",""
"","","","","","","","","","","","html-button-response","193","2.0.0","637833","622a3bbca995cbb8f616a54e","2","5","3303","","","","","","","","","<img src= ""rock_img/I_Gabbro_13.jpg"" style=""width:8cm; height:5.08cm;""><p>What type of rock is this?</p>","0","class_response","1","train","45","Andesite","Gabbro","13","false","1","4","",""
"","","","","","","","","","","","html-button-response","194","2.0.0","638801","622a3bbca995cbb8f616a54e","2","5","967","","","","","","","","","<img src= rock_img/I_Gabbro_13.jpg style=""width:8cm; height:5.08cm;""><p style='font-size: 30px; color: red;'><strong>Incorrect!</strong></p><p style='font-size: 30px;'><strong>This rock is gabbro</strong></p>","0","corr_feedback","1","train","45","","","","","","","",""
"","","","","","","","","","","","html-button-response","195","2.0.0","640657","622a3bbca995cbb8f616a54e","2","5","1854","","","","","","","","","<img src= ""rock_img/I_Pegmatite_10.jpg"" style=""width:8cm; height:4.16cm;""><p>What type of rock is this?</p>","5","class_response","1","train","46","Pegmatite","Pegmatite","10","true","6","6","",""
"","","","","","","","","","","","html-button-response","196","2.0.0","641537","622a3bbca995cbb8f616a54e","2","5","879","","","","","","","","","<img src= rock_img/I_Pegmatite_10.jpg style=""width:8cm; height:4.16cm;""><p style='font-size: 30px; color: green;'><strong>Correct!</strong></p><p style='font-size: 30px;'><strong>This rock is pegmatite</strong></p>","0","corr_feedback","1","train","46","","","","","","","",""
"","","","","","","","","","","","html-button-response","197","2.0.0","643618","622a3bbca995cbb8f616a54e","2","5","2080","","","","","","","","","<img src= ""rock_img/I_Diorite_08.jpg"" style=""width:8cm; height:6.37cm;""><p>What type of rock is this?</p>","2","class_response","1","train","47","Diorite","Diorite","08","true","3","3","",""
"","","","","","","","","","","","html-button-response","198","2.0.0","644593","622a3bbca995cbb8f616a54e","2","5","975","","","","","","","","","<img src= rock_img/I_Diorite_08.jpg style=""width:8cm; height:6.37cm;""><p style='font-size: 30px; color: green;'><strong>Correct!</strong></p><p style='font-size: 30px;'><strong>This rock is diorite</strong></p>","0","corr_feedback","1","train","47","","","","","","","",""
"","","","","","","","","","","","html-button-response","199","2.0.0","646569","622a3bbca995cbb8f616a54e","2","5","1975","","","","","","","","","<img src= ""rock_img/I_Pegmatite_05.jpg"" style=""width:8cm; height:7.300000000000001cm;""><p>What type of rock is this?</p>","5","class_response","1","train","48","Pegmatite","Pegmatite","05","true","6","6","",""
"","","","","","","","","","","","html-button-response","200","2.0.0","647538","622a3bbca995cbb8f616a54e","2","5","968","","","","","","","","","<img src= rock_img/I_Pegmatite_05.jpg style=""width:8cm; height:7.300000000000001cm;""><p style='font-size: 30px; color: green;'><strong>Correct!</strong></p><p style='font-size: 30px;'><strong>This rock is pegmatite</strong></p>","0","corr_feedback","1","train","48","","","","","","","",""
"","","","","","","","","","","","instructions","203","2.0.0","667441","622a3bbca995cbb8f616a54e","2","5","19902","","","","","","","","[{""page_index"":0,""viewing_time"":7758},{""page_index"":1,""viewing_time"":12144}]","","","","","","","","","","","","","",""
"","","","","","","","","","","","html-button-response","204","2.0.0","669657","622a3bbca995cbb8f616a54e","2","5","2215","","","","","","","","","","0","start_test","","","","","","","","","","",""
"","","","","","","","","","","","html-button-response","205","2.0.0","671497","622a3bbca995cbb8f616a54e","2","5","1839","","","","","","","","","<img src= ""rock_img/I_Pumice_05.jpg"" style=""width:8cm; height:7.25cm;""><p>What type of rock is this?</p>","7","class_response","1","test","1","Pumice","Pumice","05","true","8","8","",""
"","","","","","","","","","","","html-keyboard-response","206","2.0.0","672007","622a3bbca995cbb8f616a54e","2","5","null","","","","","","","","","<p style='font-size: 30px;'><strong>Okay</strong></p>","null","neutral_feedback","1","test","1","","","","","","","",""
"","","","","","","","","","","","html-button-response","207","2.0.0","673625","622a3bbca995cbb8f616a54e","2","5","1616","","","","","","","","","<img src= ""rock_img/I_Pegmatite_03.jpg"" style=""width:8cm; height:5.239999999999999cm;""><p>What type of rock is this?</p>","5","class_response","1","test","2","Pegmatite","Pegmatite","03","true","6","6","",""
"","","","","","","","","","","","html-keyboard-response","208","2.0.0","674129","622a3bbca995cbb8f616a54e","2","5","null","","","","","","","","","<p style='font-size: 30px;'><strong>Okay</strong></p>","null","neutral_feedback","1","test","2","","","","","","","",""
"","","","","","","","","","","","html-button-response","209","2.0.0","677089","622a3bbca995cbb8f616a54e","2","5","2958","","","","","","","","","<img src= ""rock_img/I_Obsidian_05.jpg"" style=""width:8cm; height:6.33cm;""><p>What type of rock is this?</p>","4","class_response","1","test","3","Obsidian","Obsidian","05","true","5","5","",""
"","","","","","","","","","","","html-keyboard-response","210","2.0.0","677599","622a3bbca995cbb8f616a54e","2","5","null","","","","","","","","","<p style='font-size: 30px;'><strong>Okay</strong></p>","null","neutral_feedback","1","test","3","","","","","","","",""
"","","","","","","","","","","","html-button-response","211","2.0.0","682969","622a3bbca995cbb8f616a54e","2","5","5368","","","","","","","","","<img src= ""rock_img/I_Pegmatite_12.jpg"" style=""width:8cm; height:5.7cm;""><p>What type of rock is this?</p>","5","class_response","1","test","4","Pegmatite","Pegmatite","12","true","6","6","",""
"","","","","","","","","","","","html-keyboard-response","212","2.0.0","683473","622a3bbca995cbb8f616a54e","2","5","null","","","","","","","","","<p style='font-size: 30px;'><strong>Okay</strong></p>","null","neutral_feedback","1","test","4","","","","","","","",""
"","","","","","","","","","","","html-button-response","213","2.0.0","688089","622a3bbca995cbb8f616a54e","2","5","4615","","","","","","","","","<img src= ""rock_img/I_Gabbro_03.jpg"" style=""width:8cm; height:8.52cm;""><p>What type of rock is this?</p>","3","class_response","1","test","5","Gabbro","Gabbro","03","true","4","4","",""
"","","","","","","","","","","","html-keyboard-response","214","2.0.0","688600","622a3bbca995cbb8f616a54e","2","5","null","","","","","","","","","<p style='font-size: 30px;'><strong>Okay</strong></p>","null","neutral_feedback","1","test","5","","","","","","","",""
"","","","","","","","","","","","html-button-response","215","2.0.0","689875","622a3bbca995cbb8f616a54e","2","5","1274","","","","","","","","","<img src= ""rock_img/I_Obsidian_11.jpg"" style=""width:8cm; height:6.05cm;""><p>What type of rock is this?</p>","4","class_response","1","test","6","Obsidian","Obsidian","11","true","5","5","",""
"","","","","","","","","","","","html-keyboard-response","216","2.0.0","690390","622a3bbca995cbb8f616a54e","2","5","null","","","","","","","","","<p style='font-size: 30px;'><strong>Okay</strong></p>","null","neutral_feedback","1","test","6","","","","","","","",""
"","","","","","","","","","","","html-button-response","217","2.0.0","691914","622a3bbca995cbb8f616a54e","2","5","1522","","","","","","","","","<img src= ""rock_img/I_Pumice_10.jpg"" style=""width:8cm; height:7.609999999999999cm;""><p>What type of rock is this?</p>","7","class_response","1","test","7","Pumice","Pumice","10","true","8","8","",""
"","","","","","","","","","","","html-keyboard-response","218","2.0.0","692430","622a3bbca995cbb8f616a54e","2","5","null","","","","","","","","","<p style='font-size: 30px;'><strong>Okay</strong></p>","null","neutral_feedback","1","test","7","","","","","","","",""
"","","","","","","","","","","","html-button-response","219","2.0.0","697881","622a3bbca995cbb8f616a54e","2","5","5450","","","","","","","","","<img src= ""rock_img/I_Diorite_12.jpg"" style=""width:8cm; height:4.88cm;""><p>What type of rock is this?</p>","6","class_response","1","test","8","Peridotite","Diorite","12","false","7","3","",""
"","","","","","","","","","","","html-keyboard-response","220","2.0.0","698383","622a3bbca995cbb8f616a54e","2","5","null","","","","","","","","","<p style='font-size: 30px;'><strong>Okay</strong></p>","null","neutral_feedback","1","test","8","","","","","","","",""
"","","","","","","","","","","","html-button-response","221","2.0.0","701617","622a3bbca995cbb8f616a54e","2","5","3233","","","","","","","","","<img src= ""rock_img/I_Andesite_06.jpg"" style=""width:8cm; height:6.840000000000001cm;""><p>What type of rock is this?</p>","0","class_response","1","test","9","Andesite","Andesite","06","true","1","1","",""
"","","","","","","","","","","","html-keyboard-response","222","2.0.0","702125","622a3bbca995cbb8f616a54e","2","5","null","","","","","","","","","<p style='font-size: 30px;'><strong>Okay</strong></p>","null","neutral_feedback","1","test","9","","","","","","","",""
"","","","","","","","","","","","html-button-response","223","2.0.0","703481","622a3bbca995cbb8f616a54e","2","5","1355","","","","","","","","","<img src= ""rock_img/I_Obsidian_09.jpg"" style=""width:8cm; height:5cm;""><p>What type of rock is this?</p>","4","class_response","1","test","10","Obsidian","Obsidian","09","true","5","5","",""
"","","","","","","","","","","","html-keyboard-response","224","2.0.0","703991","622a3bbca995cbb8f616a54e","2","5","null","","","","","","","","","<p style='font-size: 30px;'><strong>Okay</strong></p>","null","neutral_feedback","1","test","10","","","","","","","",""
"","","","","","","","","","","","html-button-response","225","2.0.0","711793","622a3bbca995cbb8f616a54e","2","5","7801","","","","","","","","","<img src= ""rock_img/I_Peridotite_07.jpg"" style=""width:8cm; height:4.83cm;""><p>What type of rock is this?</p>","0","class_response","1","test","11","Andesite","Peridotite","07","false","1","7","",""
"","","","","","","","","","","","html-keyboard-response","226","2.0.0","712303","622a3bbca995cbb8f616a54e","2","5","null","","","","","","","","","<p style='font-size: 30px;'><strong>Okay</strong></p>","null","neutral_feedback","1","test","11","","","","","","","",""
"","","","","","","","","","","","html-button-response","227","2.0.0","719433","622a3bbca995cbb8f616a54e","2","5","7129","","","","","","","","","<img src= ""rock_img/I_Diorite_15.jpg"" style=""width:8cm; height:5.54cm;""><p>What type of rock is this?</p>","2","class_response","1","test","12","Diorite","Diorite","15","true","3","3","",""
"","","","","","","","","","","","html-keyboard-response","228","2.0.0","719944","622a3bbca995cbb8f616a54e","2","5","null","","","","","","","","","<p style='font-size: 30px;'><strong>Okay</strong></p>","null","neutral_feedback","1","test","12","","","","","","","",""
"","","","","","","","","","","","html-button-response","229","2.0.0","728171","622a3bbca995cbb8f616a54e","2","5","8225","","","","","","","","","<img src= ""rock_img/I_Gabbro_15.jpg"" style=""width:8cm; height:6.29cm;""><p>What type of rock is this?</p>","0","class_response","1","test","13","Andesite","Gabbro","15","false","1","4","",""
"","","","","","","","","","","","html-keyboard-response","230","2.0.0","728684","622a3bbca995cbb8f616a54e","2","5","null","","","","","","","","","<p style='font-size: 30px;'><strong>Okay</strong></p>","null","neutral_feedback","1","test","13","","","","","","","",""
"","","","","","","","","","","","html-button-response","231","2.0.0","731713","622a3bbca995cbb8f616a54e","2","5","3028","","","","","","","","","<img src= ""rock_img/I_Basalt_02.jpg"" style=""width:8cm; height:6.45cm;""><p>What type of rock is this?</p>","3","class_response","1","test","14","Gabbro","Basalt","02","false","4","2","",""
"","","","","","","","","","","","html-keyboard-response","232","2.0.0","732228","622a3bbca995cbb8f616a54e","2","5","null","","","","","","","","","<p style='font-size: 30px;'><strong>Okay</strong></p>","null","neutral_feedback","1","test","14","","","","","","","",""
"","","","","","","","","","","","html-button-response","233","2.0.0","734049","622a3bbca995cbb8f616a54e","2","5","1819","","","","","","","","","<img src= ""rock_img/I_Basalt_04.jpg"" style=""width:8cm; height:7.53cm;""><p>What type of rock is this?</p>","3","class_response","1","test","15","Gabbro","Basalt","04","false","4","2","",""
"","","","","","","","","","","","html-keyboard-response","234","2.0.0","734558","622a3bbca995cbb8f616a54e","2","5","null","","","","","","","","","<p style='font-size: 30px;'><strong>Okay</strong></p>","null","neutral_feedback","1","test","15","","","","","","","",""
"","","","","","","","","","","","html-button-response","235","2.0.0","736273","622a3bbca995cbb8f616a54e","2","5","1713","","","","","","","","","<img src= ""rock_img/I_Pegmatite_16.jpg"" style=""width:8cm; height:5.8cm;""><p>What type of rock is this?</p>","5","class_response","1","test","16","Pegmatite","Pegmatite","16","true","6","6","",""
"","","","","","","","","","","","html-keyboard-response","236","2.0.0","736774","622a3bbca995cbb8f616a54e","2","5","null","","","","","","","","","<p style='font-size: 30px;'><strong>Okay</strong></p>","null","neutral_feedback","1","test","16","","","","","","","",""
"","","","","","","","","","","","html-button-response","237","2.0.0","740121","622a3bbca995cbb8f616a54e","2","5","3346","","","","","","","","","<img src= ""rock_img/I_Peridotite_02.jpg"" style=""width:8cm; height:5.859999999999999cm;""><p>What type of rock is this?</p>","5","class_response","1","test","17","Pegmatite","Peridotite","02","false","6","7","",""
"","","","","","","","","","","","html-keyboard-response","238","2.0.0","740628","622a3bbca995cbb8f616a54e","2","5","null","","","","","","","","","<p style='font-size: 30px;'><strong>Okay</strong></p>","null","neutral_feedback","1","test","17","","","","","","","",""
"","","","","","","","","","","","html-button-response","239","2.0.0","744185","622a3bbca995cbb8f616a54e","2","5","3555","","","","","","","","","<img src= ""rock_img/I_Obsidian_10.jpg"" style=""width:8cm; height:6.260000000000001cm;""><p>What type of rock is this?</p>","4","class_response","1","test","18","Obsidian","Obsidian","10","true","5","5","",""
"","","","","","","","","","","","html-keyboard-response","240","2.0.0","744696","622a3bbca995cbb8f616a54e","2","5","null","","","","","","","","","<p style='font-size: 30px;'><strong>Okay</strong></p>","null","neutral_feedback","1","test","18","","","","","","","",""
"","","","","","","","","","","","html-button-response","241","2.0.0","749681","622a3bbca995cbb8f616a54e","2","5","4983","","","","","","","","","<img src= ""rock_img/I_Basalt_11.jpg"" style=""width:8cm; height:5.359999999999999cm;""><p>What type of rock is this?</p>","7","class_response","1","test","19","Pumice","Basalt","11","false","8","2","",""
"","","","","","","","","","","","html-keyboard-response","242","2.0.0","750192","622a3bbca995cbb8f616a54e","2","5","null","","","","","","","","","<p style='font-size: 30px;'><strong>Okay</strong></p>","null","neutral_feedback","1","test","19","","","","","","","",""
"","","","","","","","","","","","html-button-response","243","2.0.0","753065","622a3bbca995cbb8f616a54e","2","5","2871","","","","","","","","","<img src= ""rock_img/I_Diorite_11.jpg"" style=""width:8cm; height:7.11cm;""><p>What type of rock is this?</p>","6","class_response","1","test","20","Peridotite","Diorite","11","false","7","3","",""
"","","","","","","","","","","","html-keyboard-response","244","2.0.0","753570","622a3bbca995cbb8f616a54e","2","5","null","","","","","","","","","<p style='font-size: 30px;'><strong>Okay</strong></p>","null","neutral_feedback","1","test","20","","","","","","","",""
"","","","","","","","","","","","html-button-response","245","2.0.0","754889","622a3bbca995cbb8f616a54e","2","5","1318","","","","","","","","","<img src= ""rock_img/I_Pumice_09.jpg"" style=""width:8cm; height:6.44cm;""><p>What type of rock is this?</p>","7","class_response","1","test","21","Pumice","Pumice","09","true","8","8","",""
"","","","","","","","","","","","html-keyboard-response","246","2.0.0","755403","622a3bbca995cbb8f616a54e","2","5","null","","","","","","","","","<p style='font-size: 30px;'><strong>Okay</strong></p>","null","neutral_feedback","1","test","21","","","","","","","",""
"","","","","","","","","","","","html-button-response","247","2.0.0","756769","622a3bbca995cbb8f616a54e","2","5","1364","","","","","","","","","<img src= ""rock_img/I_Gabbro_16.jpg"" style=""width:8cm; height:6.44cm;""><p>What type of rock is this?</p>","3","class_response","1","test","22","Gabbro","Gabbro","16","true","4","4","",""
"","","","","","","","","","","","html-keyboard-response","248","2.0.0","757270","622a3bbca995cbb8f616a54e","2","5","null","","","","","","","","","<p style='font-size: 30px;'><strong>Okay</strong></p>","null","neutral_feedback","1","test","22","","","","","","","",""
"","","","","","","","","","","","html-button-response","249","2.0.0","759018","622a3bbca995cbb8f616a54e","2","5","1746","","","","","","","","","<img src= ""rock_img/I_Basalt_12.jpg"" style=""width:8cm; height:6.010000000000001cm;""><p>What type of rock is this?</p>","7","class_response","1","test","23","Pumice","Basalt","12","false","8","2","",""
"","","","","","","","","","","","html-keyboard-response","250","2.0.0","759532","622a3bbca995cbb8f616a54e","2","5","null","","","","","","","","","<p style='font-size: 30px;'><strong>Okay</strong></p>","null","neutral_feedback","1","test","23","","","","","","","",""
"","","","","","","","","","","","html-button-response","251","2.0.0","761305","622a3bbca995cbb8f616a54e","2","5","1772","","","","","","","","","<img src= ""rock_img/I_Pumice_02.jpg"" style=""width:8cm; height:7.3999999999999995cm;""><p>What type of rock is this?</p>","7","class_response","1","test","24","Pumice","Pumice","02","true","8","8","",""
"","","","","","","","","","","","html-keyboard-response","252","2.0.0","761814","622a3bbca995cbb8f616a54e","2","5","null","","","","","","","","","<p style='font-size: 30px;'><strong>Okay</strong></p>","null","neutral_feedback","1","test","24","","","","","","","",""
"","","","","","","","","","","","html-button-response","253","2.0.0","767505","622a3bbca995cbb8f616a54e","2","5","5689","","","","","","","","","<img src= ""rock_img/I_Gabbro_08.jpg"" style=""width:8cm; height:5.15cm;""><p>What type of rock is this?</p>","3","class_response","1","test","25","Gabbro","Gabbro","08","true","4","4","",""
"","","","","","","","","","","","html-keyboard-response","254","2.0.0","768008","622a3bbca995cbb8f616a54e","2","5","null","","","","","","","","","<p style='font-size: 30px;'><strong>Okay</strong></p>","null","neutral_feedback","1","test","25","","","","","","","",""
"","","","","","","","","","","","html-button-response","255","2.0.0","769634","622a3bbca995cbb8f616a54e","2","5","1624","","","","","","","","","<img src= ""rock_img/I_Pegmatite_11.jpg"" style=""width:8cm; height:8.14cm;""><p>What type of rock is this?</p>","5","class_response","1","test","26","Pegmatite","Pegmatite","11","true","6","6","",""
"","","","","","","","","","","","html-keyboard-response","256","2.0.0","770146","622a3bbca995cbb8f616a54e","2","5","null","","","","","","","","","<p style='font-size: 30px;'><strong>Okay</strong></p>","null","neutral_feedback","1","test","26","","","","","","","",""
"","","","","","","","","","","","html-button-response","257","2.0.0","774993","622a3bbca995cbb8f616a54e","2","5","4845","","","","","","","","","<img src= ""rock_img/I_Andesite_03.jpg"" style=""width:8cm; height:5.73cm;""><p>What type of rock is this?</p>","1","class_response","1","test","27","Basalt","Andesite","03","false","2","1","",""
"","","","","","","","","","","","html-keyboard-response","258","2.0.0","775506","622a3bbca995cbb8f616a54e","2","5","null","","","","","","","","","<p style='font-size: 30px;'><strong>Okay</strong></p>","null","neutral_feedback","1","test","27","","","","","","","",""
"","","","","","","","","","","","html-button-response","259","2.0.0","778370","622a3bbca995cbb8f616a54e","2","5","2863","","","","","","","","","<img src= ""rock_img/I_Peridotite_10.jpg"" style=""width:8cm; height:5.390000000000001cm;""><p>What type of rock is this?</p>","0","class_response","1","test","28","Andesite","Peridotite","10","false","1","7","",""
"","","","","","","","","","","","html-keyboard-response","260","2.0.0","778873","622a3bbca995cbb8f616a54e","2","5","null","","","","","","","","","<p style='font-size: 30px;'><strong>Okay</strong></p>","null","neutral_feedback","1","test","28","","","","","","","",""
"","","","","","","","","","","","html-button-response","261","2.0.0","781377","622a3bbca995cbb8f616a54e","2","5","2502","","","","","","","","","<img src= ""rock_img/I_Diorite_09.jpg"" style=""width:8cm; height:5.27cm;""><p>What type of rock is this?</p>","2","class_response","1","test","29","Diorite","Diorite","09","true","3","3","",""
"","","","","","","","","","","","html-keyboard-response","262","2.0.0","781881","622a3bbca995cbb8f616a54e","2","5","null","","","","","","","","","<p style='font-size: 30px;'><strong>Okay</strong></p>","null","neutral_feedback","1","test","29","","","","","","","",""
"","","","","","","","","","","","html-button-response","263","2.0.0","783345","622a3bbca995cbb8f616a54e","2","5","1462","","","","","","","","","<img src= ""rock_img/I_Diorite_07.jpg"" style=""width:8cm; height:5.239999999999999cm;""><p>What type of rock is this?</p>","2","class_response","1","test","30","Diorite","Diorite","07","true","3","3","",""
"","","","","","","","","","","","html-keyboard-response","264","2.0.0","783853","622a3bbca995cbb8f616a54e","2","5","null","","","","","","","","","<p style='font-size: 30px;'><strong>Okay</strong></p>","null","neutral_feedback","1","test","30","","","","","","","",""
"","","","","","","","","","","","html-button-response","265","2.0.0","794329","622a3bbca995cbb8f616a54e","2","5","10473","","","","","","","","","<img src= ""rock_img/I_Andesite_01.jpg"" style=""width:8cm; height:5.87cm;""><p>What type of rock is this?</p>","2","class_response","1","test","31","Diorite","Andesite","01","false","3","1","",""
"","","","","","","","","","","","html-keyboard-response","266","2.0.0","794832","622a3bbca995cbb8f616a54e","2","5","null","","","","","","","","","<p style='font-size: 30px;'><strong>Okay</strong></p>","null","neutral_feedback","1","test","31","","","","","","","",""
"","","","","","","","","","","","html-button-response","267","2.0.0","799833","622a3bbca995cbb8f616a54e","2","5","5000","","","","","","","","","<img src= ""rock_img/I_Andesite_02.jpg"" style=""width:8cm; height:8.5cm;""><p>What type of rock is this?</p>","6","class_response","1","test","32","Peridotite","Andesite","02","false","7","1","",""
"","","","","","","","","","","","html-keyboard-response","268","2.0.0","800337","622a3bbca995cbb8f616a54e","2","5","null","","","","","","","","","<p style='font-size: 30px;'><strong>Okay</strong></p>","null","neutral_feedback","1","test","32","","","","","","","",""
"","","","","","","","","","","","html-button-response","269","2.0.0","802297","622a3bbca995cbb8f616a54e","2","5","1958","","","","","","","","","<img src= ""rock_img/I_Peridotite_15.jpg"" style=""width:8cm; height:6cm;""><p>What type of rock is this?</p>","0","class_response","1","test","33","Andesite","Peridotite","15","false","1","7","",""
"","","","","","","","","","","","html-keyboard-response","270","2.0.0","802810","622a3bbca995cbb8f616a54e","2","5","null","","","","","","","","","<p style='font-size: 30px;'><strong>Okay</strong></p>","null","neutral_feedback","1","test","33","","","","","","","",""
"","","","","","","","","","","","html-button-response","271","2.0.0","812058","622a3bbca995cbb8f616a54e","2","5","9247","","","","","","","","","<img src= ""rock_img/I_Basalt_16.jpg"" style=""width:8cm; height:7.659999999999999cm;""><p>What type of rock is this?</p>","3","class_response","1","test","34","Gabbro","Basalt","16","false","4","2","",""
"","","","","","","","","","","","html-keyboard-response","272","2.0.0","812563","622a3bbca995cbb8f616a54e","2","5","null","","","","","","","","","<p style='font-size: 30px;'><strong>Okay</strong></p>","null","neutral_feedback","1","test","34","","","","","","","",""
"","","","","","","","","","","","html-button-response","273","2.0.0","814962","622a3bbca995cbb8f616a54e","2","5","2397","","","","","","","","","<img src= ""rock_img/I_Obsidian_07.jpg"" style=""width:8cm; height:4.76cm;""><p>What type of rock is this?</p>","4","class_response","1","test","35","Obsidian","Obsidian","07","true","5","5","",""
"","","","","","","","","","","","html-keyboard-response","274","2.0.0","815477","622a3bbca995cbb8f616a54e","2","5","null","","","","","","","","","<p style='font-size: 30px;'><strong>Okay</strong></p>","null","neutral_feedback","1","test","35","","","","","","","",""
"","","","","","","","","","","","html-button-response","275","2.0.0","820449","622a3bbca995cbb8f616a54e","2","5","4970","","","","","","","","","<img src= ""rock_img/I_Andesite_11.jpg"" style=""width:8cm; height:4.92cm;""><p>What type of rock is this?</p>","6","class_response","1","test","36","Peridotite","Andesite","11","false","7","1","",""
"","","","","","","","","","","","html-keyboard-response","276","2.0.0","820964","622a3bbca995cbb8f616a54e","2","5","null","","","","","","","","","<p style='font-size: 30px;'><strong>Okay</strong></p>","null","neutral_feedback","1","test","36","","","","","","","",""
"","","","","","","","","","","","html-button-response","277","2.0.0","823225","622a3bbca995cbb8f616a54e","2","5","2259","","","","","","","","","<img src= ""rock_img/I_Andesite_09.jpg"" style=""width:8cm; height:6cm;""><p>What type of rock is this?</p>","0","class_response","1","test","37","Andesite","Andesite","09","true","1","1","",""
"","","","","","","","","","","","html-keyboard-response","278","2.0.0","823726","622a3bbca995cbb8f616a54e","2","5","null","","","","","","","","","<p style='font-size: 30px;'><strong>Okay</strong></p>","null","neutral_feedback","1","test","37","","","","","","","",""
"","","","","","","","","","","","html-button-response","279","2.0.0","828625","622a3bbca995cbb8f616a54e","2","5","4897","","","","","","","","","<img src= ""rock_img/I_Diorite_16.jpg"" style=""width:8cm; height:6.74cm;""><p>What type of rock is this?</p>","2","class_response","1","test","38","Diorite","Diorite","16","true","3","3","",""
"","","","","","","","","","","","html-keyboard-response","280","2.0.0","829127","622a3bbca995cbb8f616a54e","2","5","null","","","","","","","","","<p style='font-size: 30px;'><strong>Okay</strong></p>","null","neutral_feedback","1","test","38","","","","","","","",""
"","","","","","","","","","","","html-button-response","281","2.0.0","833906","622a3bbca995cbb8f616a54e","2","5","4777","","","","","","","","","<img src= ""rock_img/I_Peridotite_16.jpg"" style=""width:8cm; height:6.989999999999999cm;""><p>What type of rock is this?</p>","0","class_response","1","test","39","Andesite","Peridotite","16","false","1","7","",""
"","","","","","","","","","","","html-keyboard-response","282","2.0.0","834408","622a3bbca995cbb8f616a54e","2","5","null","","","","","","","","","<p style='font-size: 30px;'><strong>Okay</strong></p>","null","neutral_feedback","1","test","39","","","","","","","",""
"","","","","","","","","","","","html-button-response","283","2.0.0","835877","622a3bbca995cbb8f616a54e","2","5","1467","","","","","","","","","<img src= ""rock_img/I_Gabbro_05.jpg"" style=""width:8cm; height:6cm;""><p>What type of rock is this?</p>","0","class_response","1","test","40","Andesite","Gabbro","05","false","1","4","",""
"","","","","","","","","","","","html-keyboard-response","284","2.0.0","836388","622a3bbca995cbb8f616a54e","2","5","null","","","","","","","","","<p style='font-size: 30px;'><strong>Okay</strong></p>","null","neutral_feedback","1","test","40","","","","","","","",""
"","","","","","","","","","","","html-button-response","285","2.0.0","837673","622a3bbca995cbb8f616a54e","2","5","1284","","","","","","","","","<img src= ""rock_img/I_Pumice_06.jpg"" style=""width:8cm; height:6.9399999999999995cm;""><p>What type of rock is this?</p>","7","class_response","1","test","41","Pumice","Pumice","06","true","8","8","",""
"","","","","","","","","","","","html-keyboard-response","286","2.0.0","838187","622a3bbca995cbb8f616a54e","2","5","null","","","","","","","","","<p style='font-size: 30px;'><strong>Okay</strong></p>","null","neutral_feedback","1","test","41","","","","","","","",""
"","","","","","","","","","","","html-button-response","287","2.0.0","839833","622a3bbca995cbb8f616a54e","2","5","1645","","","","","","","","","<img src= ""rock_img/I_Pegmatite_07.jpg"" style=""width:8cm; height:6.7cm;""><p>What type of rock is this?</p>","5","class_response","1","test","42","Pegmatite","Pegmatite","07","true","6","6","",""
"","","","","","","","","","","","html-keyboard-response","288","2.0.0","840344","622a3bbca995cbb8f616a54e","2","5","null","","","","","","","","","<p style='font-size: 30px;'><strong>Okay</strong></p>","null","neutral_feedback","1","test","42","","","","","","","",""
"","","","","","","","","","","","html-button-response","289","2.0.0","845065","622a3bbca995cbb8f616a54e","2","5","4720","","","","","","","","","<img src= ""rock_img/I_Gabbro_01.jpg"" style=""width:8cm; height:5.21cm;""><p>What type of rock is this?</p>","6","class_response","1","test","43","Peridotite","Gabbro","01","false","7","4","",""
"","","","","","","","","","","","html-keyboard-response","290","2.0.0","845571","622a3bbca995cbb8f616a54e","2","5","null","","","","","","","","","<p style='font-size: 30px;'><strong>Okay</strong></p>","null","neutral_feedback","1","test","43","","","","","","","",""
"","","","","","","","","","","","html-button-response","291","2.0.0","847665","622a3bbca995cbb8f616a54e","2","5","2093","","","","","","","","","<img src= ""rock_img/I_Peridotite_06.jpg"" style=""width:8cm; height:7.53cm;""><p>What type of rock is this?</p>","5","class_response","1","test","44","Pegmatite","Peridotite","06","false","6","7","",""
"","","","","","","","","","","","html-keyboard-response","292","2.0.0","848173","622a3bbca995cbb8f616a54e","2","5","null","","","","","","","","","<p style='font-size: 30px;'><strong>Okay</strong></p>","null","neutral_feedback","1","test","44","","","","","","","",""
"","","","","","","","","","","","html-button-response","293","2.0.0","850377","622a3bbca995cbb8f616a54e","2","5","2203","","","","","","","","","<img src= ""rock_img/I_Basalt_01.jpg"" style=""width:8cm; height:7.880000000000001cm;""><p>What type of rock is this?</p>","1","class_response","1","test","45","Basalt","Basalt","01","true","2","2","",""
"","","","","","","","","","","","html-keyboard-response","294","2.0.0","850883","622a3bbca995cbb8f616a54e","2","5","null","","","","","","","","","<p style='font-size: 30px;'><strong>Okay</strong></p>","null","neutral_feedback","1","test","45","","","","","","","",""
"","","","","","","","","","","","html-button-response","295","2.0.0","853185","622a3bbca995cbb8f616a54e","2","5","2301","","","","","","","","","<img src= ""rock_img/I_Pegmatite_09.jpg"" style=""width:8cm; height:4.03cm;""><p>What type of rock is this?</p>","5","class_response","1","test","46","Pegmatite","Pegmatite","09","true","6","6","",""
"","","","","","","","","","","","html-keyboard-response","296","2.0.0","853700","622a3bbca995cbb8f616a54e","2","5","null","","","","","","","","","<p style='font-size: 30px;'><strong>Okay</strong></p>","null","neutral_feedback","1","test","46","","","","","","","",""
"","","","","","","","","","","","html-button-response","297","2.0.0","855041","622a3bbca995cbb8f616a54e","2","5","1340","","","","","","","","","<img src= ""rock_img/I_Obsidian_16.jpg"" style=""width:8cm; height:9.3cm;""><p>What type of rock is this?</p>","4","class_response","1","test","47","Obsidian","Obsidian","16","true","5","5","",""
"","","","","","","","","","","","html-keyboard-response","298","2.0.0","855556","622a3bbca995cbb8f616a54e","2","5","null","","","","","","","","","<p style='font-size: 30px;'><strong>Okay</strong></p>","null","neutral_feedback","1","test","47","","","","","","","",""
"","","","","","","","","","","","html-button-response","299","2.0.0","859161","622a3bbca995cbb8f616a54e","2","5","3603","","","","","","","","","<img src= ""rock_img/I_Pumice_13.jpg"" style=""width:8cm; height:8.200000000000001cm;""><p>What type of rock is this?</p>","1","class_response","1","test","48","Basalt","Pumice","13","false","2","8","",""
"","","","","","","","","","","","html-keyboard-response","300","2.0.0","859669","622a3bbca995cbb8f616a54e","2","5","null","","","","","","","","","<p style='font-size: 30px;'><strong>Okay</strong></p>","null","neutral_feedback","1","test","48","","","","","","","",""
"","","","","","","","","","","","html-button-response","301","2.0.0","902337","622a3bbca995cbb8f616a54e","2","5","","","","","","","","","","","","cycle_feedback","","","","","","","","","","12189.599999904633","30471.199999809265"
"","","","","","","","","","","","html-button-response","303","2.0.0","905665","622a3bbca995cbb8f616a54e","2","5","3327","","","","","","","","","","0","start_train","","","","","","","","","","",""
"","","","","","","","","","","","html-button-response","304","2.0.0","914136","622a3bbca995cbb8f616a54e","2","5","8471","","","","","","","","","<img src= ""rock_img/I_Peridotite_14.jpg"" style=""width:8cm; height:5.3cm;""><p>What type of rock is this?</p>","0","class_response","2","train","1","Andesite","Peridotite","14","false","1","7","",""
"","","","","","","","","","","","html-button-response","305","2.0.0","919681","622a3bbca995cbb8f616a54e","2","5","5543","","","","","","","","","<img src= rock_img/I_Peridotite_14.jpg style=""width:8cm; height:5.3cm;""><p style='font-size: 30px; color: red;'><strong>Incorrect!</strong></p><p style='font-size: 30px;'><strong>This rock is peridotite</strong></p>","0","corr_feedback","2","train","1","","","","","","","",""
