"width","height","webaudio","browser","browser_version","mobile","os","fullscreen","vsync_rate","webcam","microphone","trial_type","trial_index","plugin_version","time_elapsed","subjID","condition","stimID","rt","url","success","value","timeout","failed_images","failed_audio","failed_video","view_history","stimulus","response","trialType","cycle","phase","trial","resp","cat","token","corr","resp_num","cat_num","rt_ref","rt_paired","ref_cat_num","paired_cat_num","ref_cat","paired_cat","text_Basalt","text_Pumice","time_obs","time_resp","text_Andesite","text_Obsidian","text_Pegmatite","text_Peridotite","time_fb1","time_fb2","text_Diorite","text_Gabbro"
"1536","730","true","chrome","130.0.0","false","Windows 10","true","60.61","false","false","browser-check","0","2.0.0","3112","66c8f928d8ff66dbe5b9d119","4","7","","","","","","","","","","","","","","","","","","","","","","","","","","","","","","","","","","","","","","",""
"","","","","","","","","","","","external-html","1","2.0.0","88978","66c8f928d8ff66dbe5b9d119","4","7","85381","consent_form.html","","","","","","","","","","","","","","","","","","","","","","","","","","","","","","","","","","","","",""
"","","","","","","","","","","","fullscreen","2","2.0.0","103618","66c8f928d8ff66dbe5b9d119","4","7","13621","","true","","","","","","","","","","","","","","","","","","","","","","","","","","","","","","","","","","","",""
"","","","","","","","","","","","call-function","3","2.0.0","103624","66c8f928d8ff66dbe5b9d119","4","7","","","","{}","","","","","","","","","","","","","","","","","","","","","","","","","","","","","","","","","","",""
"","","","","","","","","","","","preload","4","2.0.0","116367","66c8f928d8ff66dbe5b9d119","4","7","","","true","","false","[]","[]","[]","","","","","","","","","","","","","","","","","","","","","","","","","","","","","","",""
"","","","","","","","","","","","instructions","5","2.0.0","198441","66c8f928d8ff66dbe5b9d119","4","7","82064","","","","","","","","[{""page_index"":0,""viewing_time"":8311},{""page_index"":1,""viewing_time"":55057},{""page_index"":2,""viewing_time"":18696}]","","","","","","","","","","","","","","","","","","","","","","","","","","","","","",""
"","","","","","","","","","","","html-button-response","6","2.0.0","201793","66c8f928d8ff66dbe5b9d119","4","7","3350","","","","","","","","","","0","start_test","","","","","","","","","","","","","","","","","","","","","","","","","","",""
"","","","","","","","","","","","html-button-response","7","2.0.0","207488","66c8f928d8ff66dbe5b9d119","4","7","5694","","","","","","","","","<img src= ""rock_img/I_Obsidian_09.jpg"" style=""width:8cm; height:5cm;""><p>What type of rock is this?</p>","6","class_response","0","test","1","Peridotite","Obsidian","09","false","7","5","","","","","","","","","","","","","","","","","",""
"","","","","","","","","","","","html-keyboard-response","8","2.0.0","207998","66c8f928d8ff66dbe5b9d119","4","7","null","","","","","","","","","<p style='font-size: 30px;'><strong>Okay</strong></p>","null","neutral_feedback","0","test","1","","","","","","","","","","","","","","","","","","","","","","","",""
"","","","","","","","","","","","html-button-response","9","2.0.0","211879","66c8f928d8ff66dbe5b9d119","4","7","3880","","","","","","","","","<img src= ""rock_img/I_Diorite_09.jpg"" style=""width:8cm; height:5.27cm;""><p>What type of rock is this?</p>","3","class_response","0","test","2","Gabbro","Diorite","09","false","4","3","","","","","","","","","","","","","","","","","",""
"","","","","","","","","","","","html-keyboard-response","10","2.0.0","212381","66c8f928d8ff66dbe5b9d119","4","7","null","","","","","","","","","<p style='font-size: 30px;'><strong>Okay</strong></p>","null","neutral_feedback","0","test","2","","","","","","","","","","","","","","","","","","","","","","","",""
"","","","","","","","","","","","html-button-response","11","2.0.0","215087","66c8f928d8ff66dbe5b9d119","4","7","2704","","","","","","","","","<img src= ""rock_img/I_Diorite_14.jpg"" style=""width:8cm; height:5.71cm;""><p>What type of rock is this?</p>","4","class_response","0","test","3","Obsidian","Diorite","14","false","5","3","","","","","","","","","","","","","","","","","",""
"","","","","","","","","","","","html-keyboard-response","12","2.0.0","215592","66c8f928d8ff66dbe5b9d119","4","7","null","","","","","","","","","<p style='font-size: 30px;'><strong>Okay</strong></p>","null","neutral_feedback","0","test","3","","","","","","","","","","","","","","","","","","","","","","","",""
"","","","","","","","","","","","html-button-response","13","2.0.0","217680","66c8f928d8ff66dbe5b9d119","4","7","2085","","","","","","","","","<img src= ""rock_img/I_Andesite_14.jpg"" style=""width:8cm; height:5.449999999999999cm;""><p>What type of rock is this?</p>","1","class_response","0","test","4","Basalt","Andesite","14","false","2","1","","","","","","","","","","","","","","","","","",""
"","","","","","","","","","","","html-keyboard-response","14","2.0.0","218189","66c8f928d8ff66dbe5b9d119","4","7","null","","","","","","","","","<p style='font-size: 30px;'><strong>Okay</strong></p>","null","neutral_feedback","0","test","4","","","","","","","","","","","","","","","","","","","","","","","",""
"","","","","","","","","","","","html-button-response","15","2.0.0","220951","66c8f928d8ff66dbe5b9d119","4","7","2758","","","","","","","","","<img src= ""rock_img/I_Peridotite_14.jpg"" style=""width:8cm; height:5.3cm;""><p>What type of rock is this?</p>","5","class_response","0","test","5","Pegmatite","Peridotite","14","false","6","7","","","","","","","","","","","","","","","","","",""
"","","","","","","","","","","","html-keyboard-response","16","2.0.0","221465","66c8f928d8ff66dbe5b9d119","4","7","null","","","","","","","","","<p style='font-size: 30px;'><strong>Okay</strong></p>","null","neutral_feedback","0","test","5","","","","","","","","","","","","","","","","","","","","","","","",""
"","","","","","","","","","","","html-button-response","17","2.0.0","222495","66c8f928d8ff66dbe5b9d119","4","7","1027","","","","","","","","","<img src= ""rock_img/I_Gabbro_01.jpg"" style=""width:8cm; height:5.21cm;""><p>What type of rock is this?</p>","1","class_response","0","test","6","Basalt","Gabbro","01","false","2","4","","","","","","","","","","","","","","","","","",""
"","","","","","","","","","","","html-keyboard-response","18","2.0.0","223004","66c8f928d8ff66dbe5b9d119","4","7","null","","","","","","","","","<p style='font-size: 30px;'><strong>Okay</strong></p>","null","neutral_feedback","0","test","6","","","","","","","","","","","","","","","","","","","","","","","",""
"","","","","","","","","","","","html-button-response","19","2.0.0","223911","66c8f928d8ff66dbe5b9d119","4","7","904","","","","","","","","","<img src= ""rock_img/I_Diorite_13.jpg"" style=""width:8cm; height:6.29cm;""><p>What type of rock is this?</p>","2","class_response","0","test","7","Diorite","Diorite","13","true","3","3","","","","","","","","","","","","","","","","","",""
"","","","","","","","","","","","html-keyboard-response","20","2.0.0","224417","66c8f928d8ff66dbe5b9d119","4","7","null","","","","","","","","","<p style='font-size: 30px;'><strong>Okay</strong></p>","null","neutral_feedback","0","test","7","","","","","","","","","","","","","","","","","","","","","","","",""
"","","","","","","","","","","","html-button-response","21","2.0.0","225919","66c8f928d8ff66dbe5b9d119","4","7","1499","","","","","","","","","<img src= ""rock_img/I_Pegmatite_16.jpg"" style=""width:8cm; height:5.8cm;""><p>What type of rock is this?</p>","6","class_response","0","test","8","Peridotite","Pegmatite","16","false","7","6","","","","","","","","","","","","","","","","","",""
"","","","","","","","","","","","html-keyboard-response","22","2.0.0","226434","66c8f928d8ff66dbe5b9d119","4","7","null","","","","","","","","","<p style='font-size: 30px;'><strong>Okay</strong></p>","null","neutral_feedback","0","test","8","","","","","","","","","","","","","","","","","","","","","","","",""
"","","","","","","","","","","","html-button-response","23","2.0.0","227760","66c8f928d8ff66dbe5b9d119","4","7","1324","","","","","","","","","<img src= ""rock_img/I_Basalt_06.jpg"" style=""width:8cm; height:7.06cm;""><p>What type of rock is this?</p>","7","class_response","0","test","9","Pumice","Basalt","06","false","8","2","","","","","","","","","","","","","","","","","",""
"","","","","","","","","","","","html-keyboard-response","24","2.0.0","228261","66c8f928d8ff66dbe5b9d119","4","7","null","","","","","","","","","<p style='font-size: 30px;'><strong>Okay</strong></p>","null","neutral_feedback","0","test","9","","","","","","","","","","","","","","","","","","","","","","","",""
"","","","","","","","","","","","html-button-response","25","2.0.0","231295","66c8f928d8ff66dbe5b9d119","4","7","3032","","","","","","","","","<img src= ""rock_img/I_Pumice_09.jpg"" style=""width:8cm; height:6.44cm;""><p>What type of rock is this?</p>","4","class_response","0","test","10","Obsidian","Pumice","09","false","5","8","","","","","","","","","","","","","","","","","",""
"","","","","","","","","","","","html-keyboard-response","26","2.0.0","231810","66c8f928d8ff66dbe5b9d119","4","7","null","","","","","","","","","<p style='font-size: 30px;'><strong>Okay</strong></p>","null","neutral_feedback","0","test","10","","","","","","","","","","","","","","","","","","","","","","","",""
"","","","","","","","","","","","html-button-response","27","2.0.0","233006","66c8f928d8ff66dbe5b9d119","4","7","1195","","","","","","","","","<img src= ""rock_img/I_Peridotite_05.jpg"" style=""width:8cm; height:7.1499999999999995cm;""><p>What type of rock is this?</p>","1","class_response","0","test","11","Basalt","Peridotite","05","false","2","7","","","","","","","","","","","","","","","","","",""
"","","","","","","","","","","","html-keyboard-response","28","2.0.0","233514","66c8f928d8ff66dbe5b9d119","4","7","null","","","","","","","","","<p style='font-size: 30px;'><strong>Okay</strong></p>","null","neutral_feedback","0","test","11","","","","","","","","","","","","","","","","","","","","","","","",""
"","","","","","","","","","","","html-button-response","29","2.0.0","234607","66c8f928d8ff66dbe5b9d119","4","7","1089","","","","","","","","","<img src= ""rock_img/I_Pumice_08.jpg"" style=""width:8cm; height:6.67cm;""><p>What type of rock is this?</p>","5","class_response","0","test","12","Pegmatite","Pumice","08","false","6","8","","","","","","","","","","","","","","","","","",""
"","","","","","","","","","","","html-keyboard-response","30","2.0.0","235116","66c8f928d8ff66dbe5b9d119","4","7","null","","","","","","","","","<p style='font-size: 30px;'><strong>Okay</strong></p>","null","neutral_feedback","0","test","12","","","","","","","","","","","","","","","","","","","","","","","",""
"","","","","","","","","","","","html-button-response","31","2.0.0","235615","66c8f928d8ff66dbe5b9d119","4","7","494","","","","","","","","","<img src= ""rock_img/I_Obsidian_08.jpg"" style=""width:8cm; height:7.39cm;""><p>What type of rock is this?</p>","2","class_response","0","test","13","Diorite","Obsidian","08","false","3","5","","","","","","","","","","","","","","","","","",""
"","","","","","","","","","","","html-keyboard-response","32","2.0.0","236116","66c8f928d8ff66dbe5b9d119","4","7","null","","","","","","","","","<p style='font-size: 30px;'><strong>Okay</strong></p>","null","neutral_feedback","0","test","13","","","","","","","","","","","","","","","","","","","","","","","",""
"","","","","","","","","","","","html-button-response","33","2.0.0","236767","66c8f928d8ff66dbe5b9d119","4","7","648","","","","","","","","","<img src= ""rock_img/I_Diorite_06.jpg"" style=""width:8cm; height:6.03cm;""><p>What type of rock is this?</p>","6","class_response","0","test","14","Peridotite","Diorite","06","false","7","3","","","","","","","","","","","","","","","","","",""
"","","","","","","","","","","","html-keyboard-response","34","2.0.0","237276","66c8f928d8ff66dbe5b9d119","4","7","null","","","","","","","","","<p style='font-size: 30px;'><strong>Okay</strong></p>","null","neutral_feedback","0","test","14","","","","","","","","","","","","","","","","","","","","","","","",""
"","","","","","","","","","","","html-button-response","35","2.0.0","237895","66c8f928d8ff66dbe5b9d119","4","7","618","","","","","","","","","<img src= ""rock_img/I_Andesite_05.jpg"" style=""width:8cm; height:4.12cm;""><p>What type of rock is this?</p>","5","class_response","0","test","15","Pegmatite","Andesite","05","false","6","1","","","","","","","","","","","","","","","","","",""
"","","","","","","","","","","","html-keyboard-response","36","2.0.0","238397","66c8f928d8ff66dbe5b9d119","4","7","null","","","","","","","","","<p style='font-size: 30px;'><strong>Okay</strong></p>","null","neutral_feedback","0","test","15","","","","","","","","","","","","","","","","","","","","","","","",""
"","","","","","","","","","","","html-button-response","37","2.0.0","238904","66c8f928d8ff66dbe5b9d119","4","7","505","","","","","","","","","<img src= ""rock_img/I_Obsidian_11.jpg"" style=""width:8cm; height:6.05cm;""><p>What type of rock is this?</p>","0","class_response","0","test","16","Andesite","Obsidian","11","false","1","5","","","","","","","","","","","","","","","","","",""
"","","","","","","","","","","","html-keyboard-response","38","2.0.0","239418","66c8f928d8ff66dbe5b9d119","4","7","null","","","","","","","","","<p style='font-size: 30px;'><strong>Okay</strong></p>","null","neutral_feedback","0","test","16","","","","","","","","","","","","","","","","","","","","","","","",""
"","","","","","","","","","","","html-button-response","39","2.0.0","240440","66c8f928d8ff66dbe5b9d119","4","7","1020","","","","","","","","","<img src= ""rock_img/I_Obsidian_16.jpg"" style=""width:8cm; height:9.3cm;""><p>What type of rock is this?</p>","1","class_response","0","test","17","Basalt","Obsidian","16","false","2","5","","","","","","","","","","","","","","","","","",""
"","","","","","","","","","","","html-keyboard-response","40","2.0.0","240963","66c8f928d8ff66dbe5b9d119","4","7","null","","","","","","","","","<p style='font-size: 30px;'><strong>Okay</strong></p>","null","neutral_feedback","0","test","17","","","","","","","","","","","","","","","","","","","","","","","",""
"","","","","","","","","","","","html-button-response","41","2.0.0","241823","66c8f928d8ff66dbe5b9d119","4","7","858","","","","","","","","","<img src= ""rock_img/I_Pegmatite_09.jpg"" style=""width:8cm; height:4.03cm;""><p>What type of rock is this?</p>","2","class_response","0","test","18","Diorite","Pegmatite","09","false","3","6","","","","","","","","","","","","","","","","","",""
"","","","","","","","","","","","html-keyboard-response","42","2.0.0","242326","66c8f928d8ff66dbe5b9d119","4","7","null","","","","","","","","","<p style='font-size: 30px;'><strong>Okay</strong></p>","null","neutral_feedback","0","test","18","","","","","","","","","","","","","","","","","","","","","","","",""
"","","","","","","","","","","","html-button-response","43","2.0.0","242999","66c8f928d8ff66dbe5b9d119","4","7","670","","","","","","","","","<img src= ""rock_img/I_Pumice_03.jpg"" style=""width:8cm; height:6.64cm;""><p>What type of rock is this?</p>","3","class_response","0","test","19","Gabbro","Pumice","03","false","4","8","","","","","","","","","","","","","","","","","",""
"","","","","","","","","","","","html-keyboard-response","44","2.0.0","243501","66c8f928d8ff66dbe5b9d119","4","7","null","","","","","","","","","<p style='font-size: 30px;'><strong>Okay</strong></p>","null","neutral_feedback","0","test","19","","","","","","","","","","","","","","","","","","","","","","","",""
"","","","","","","","","","","","html-button-response","45","2.0.0","244407","66c8f928d8ff66dbe5b9d119","4","7","905","","","","","","","","","<img src= ""rock_img/I_Pegmatite_13.jpg"" style=""width:8cm; height:4.95cm;""><p>What type of rock is this?</p>","5","class_response","0","test","20","Pegmatite","Pegmatite","13","true","6","6","","","","","","","","","","","","","","","","","",""
"","","","","","","","","","","","html-keyboard-response","46","2.0.0","244909","66c8f928d8ff66dbe5b9d119","4","7","null","","","","","","","","","<p style='font-size: 30px;'><strong>Okay</strong></p>","null","neutral_feedback","0","test","20","","","","","","","","","","","","","","","","","","","","","","","",""
"","","","","","","","","","","","html-button-response","47","2.0.0","245703","66c8f928d8ff66dbe5b9d119","4","7","790","","","","","","","","","<img src= ""rock_img/I_Basalt_02.jpg"" style=""width:8cm; height:6.45cm;""><p>What type of rock is this?</p>","4","class_response","0","test","21","Obsidian","Basalt","02","false","5","2","","","","","","","","","","","","","","","","","",""
"","","","","","","","","","","","html-keyboard-response","48","2.0.0","246205","66c8f928d8ff66dbe5b9d119","4","7","null","","","","","","","","","<p style='font-size: 30px;'><strong>Okay</strong></p>","null","neutral_feedback","0","test","21","","","","","","","","","","","","","","","","","","","","","","","",""
"","","","","","","","","","","","html-button-response","49","2.0.0","246623","66c8f928d8ff66dbe5b9d119","4","7","414","","","","","","","","","<img src= ""rock_img/I_Basalt_04.jpg"" style=""width:8cm; height:7.53cm;""><p>What type of rock is this?</p>","2","class_response","0","test","22","Diorite","Basalt","04","false","3","2","","","","","","","","","","","","","","","","","",""
"","","","","","","","","","","","html-keyboard-response","50","2.0.0","247126","66c8f928d8ff66dbe5b9d119","4","7","null","","","","","","","","","<p style='font-size: 30px;'><strong>Okay</strong></p>","null","neutral_feedback","0","test","22","","","","","","","","","","","","","","","","","","","","","","","",""
"","","","","","","","","","","","html-button-response","51","2.0.0","247616","66c8f928d8ff66dbe5b9d119","4","7","486","","","","","","","","","<img src= ""rock_img/I_Gabbro_15.jpg"" style=""width:8cm; height:6.29cm;""><p>What type of rock is this?</p>","7","class_response","0","test","23","Pumice","Gabbro","15","false","8","4","","","","","","","","","","","","","","","","","",""
"","","","","","","","","","","","html-keyboard-response","52","2.0.0","248121","66c8f928d8ff66dbe5b9d119","4","7","null","","","","","","","","","<p style='font-size: 30px;'><strong>Okay</strong></p>","null","neutral_feedback","0","test","23","","","","","","","","","","","","","","","","","","","","","","","",""
"","","","","","","","","","","","html-button-response","53","2.0.0","248623","66c8f928d8ff66dbe5b9d119","4","7","499","","","","","","","","","<img src= ""rock_img/I_Andesite_06.jpg"" style=""width:8cm; height:6.840000000000001cm;""><p>What type of rock is this?</p>","3","class_response","0","test","24","Gabbro","Andesite","06","false","4","1","","","","","","","","","","","","","","","","","",""
"","","","","","","","","","","","html-keyboard-response","54","2.0.0","249131","66c8f928d8ff66dbe5b9d119","4","7","null","","","","","","","","","<p style='font-size: 30px;'><strong>Okay</strong></p>","null","neutral_feedback","0","test","24","","","","","","","","","","","","","","","","","","","","","","","",""
"","","","","","","","","","","","html-button-response","55","2.0.0","249639","66c8f928d8ff66dbe5b9d119","4","7","505","","","","","","","","","<img src= ""rock_img/I_Pegmatite_05.jpg"" style=""width:8cm; height:7.300000000000001cm;""><p>What type of rock is this?</p>","2","class_response","0","test","25","Diorite","Pegmatite","05","false","3","6","","","","","","","","","","","","","","","","","",""
"","","","","","","","","","","","html-keyboard-response","56","2.0.0","250140","66c8f928d8ff66dbe5b9d119","4","7","null","","","","","","","","","<p style='font-size: 30px;'><strong>Okay</strong></p>","null","neutral_feedback","0","test","25","","","","","","","","","","","","","","","","","","","","","","","",""
"","","","","","","","","","","","html-button-response","57","2.0.0","250616","66c8f928d8ff66dbe5b9d119","4","7","472","","","","","","","","","<img src= ""rock_img/I_Gabbro_08.jpg"" style=""width:8cm; height:5.15cm;""><p>What type of rock is this?</p>","5","class_response","0","test","26","Pegmatite","Gabbro","08","false","6","4","","","","","","","","","","","","","","","","","",""
"","","","","","","","","","","","html-keyboard-response","58","2.0.0","251121","66c8f928d8ff66dbe5b9d119","4","7","null","","","","","","","","","<p style='font-size: 30px;'><strong>Okay</strong></p>","null","neutral_feedback","0","test","26","","","","","","","","","","","","","","","","","","","","","","","",""
"","","","","","","","","","","","html-button-response","59","2.0.0","251999","66c8f928d8ff66dbe5b9d119","4","7","875","","","","","","","","","<img src= ""rock_img/I_Andesite_01.jpg"" style=""width:8cm; height:5.87cm;""><p>What type of rock is this?</p>","1","class_response","0","test","27","Basalt","Andesite","01","false","2","1","","","","","","","","","","","","","","","","","",""
"","","","","","","","","","","","html-keyboard-response","60","2.0.0","252511","66c8f928d8ff66dbe5b9d119","4","7","null","","","","","","","","","<p style='font-size: 30px;'><strong>Okay</strong></p>","null","neutral_feedback","0","test","27","","","","","","","","","","","","","","","","","","","","","","","",""
"","","","","","","","","","","","html-button-response","61","2.0.0","252919","66c8f928d8ff66dbe5b9d119","4","7","407","","","","","","","","","<img src= ""rock_img/I_Peridotite_10.jpg"" style=""width:8cm; height:5.390000000000001cm;""><p>What type of rock is this?</p>","0","class_response","0","test","28","Andesite","Peridotite","10","false","1","7","","","","","","","","","","","","","","","","","",""
"","","","","","","","","","","","html-keyboard-response","62","2.0.0","253421","66c8f928d8ff66dbe5b9d119","4","7","null","","","","","","","","","<p style='font-size: 30px;'><strong>Okay</strong></p>","null","neutral_feedback","0","test","28","","","","","","","","","","","","","","","","","","","","","","","",""
"","","","","","","","","","","","html-button-response","63","2.0.0","253960","66c8f928d8ff66dbe5b9d119","4","7","537","","","","","","","","","<img src= ""rock_img/I_Pumice_15.jpg"" style=""width:8cm; height:7.86cm;""><p>What type of rock is this?</p>","1","class_response","0","test","29","Basalt","Pumice","15","false","2","8","","","","","","","","","","","","","","","","","",""
"","","","","","","","","","","","html-keyboard-response","64","2.0.0","254465","66c8f928d8ff66dbe5b9d119","4","7","null","","","","","","","","","<p style='font-size: 30px;'><strong>Okay</strong></p>","null","neutral_feedback","0","test","29","","","","","","","","","","","","","","","","","","","","","","","",""
"","","","","","","","","","","","html-button-response","65","2.0.0","255063","66c8f928d8ff66dbe5b9d119","4","7","594","","","","","","","","","<img src= ""rock_img/I_Obsidian_04.jpg"" style=""width:8cm; height:6.930000000000001cm;""><p>What type of rock is this?</p>","5","class_response","0","test","30","Pegmatite","Obsidian","04","false","6","5","","","","","","","","","","","","","","","","","",""
"","","","","","","","","","","","html-keyboard-response","66","2.0.0","255571","66c8f928d8ff66dbe5b9d119","4","7","null","","","","","","","","","<p style='font-size: 30px;'><strong>Okay</strong></p>","null","neutral_feedback","0","test","30","","","","","","","","","","","","","","","","","","","","","","","",""
"","","","","","","","","","","","html-button-response","67","2.0.0","256560","66c8f928d8ff66dbe5b9d119","4","7","984","","","","","","","","","<img src= ""rock_img/I_Gabbro_03.jpg"" style=""width:8cm; height:8.52cm;""><p>What type of rock is this?</p>","2","class_response","0","test","31","Diorite","Gabbro","03","false","3","4","","","","","","","","","","","","","","","","","",""
"","","","","","","","","","","","html-keyboard-response","68","2.0.0","257074","66c8f928d8ff66dbe5b9d119","4","7","null","","","","","","","","","<p style='font-size: 30px;'><strong>Okay</strong></p>","null","neutral_feedback","0","test","31","","","","","","","","","","","","","","","","","","","","","","","",""
"","","","","","","","","","","","html-button-response","69","2.0.0","257511","66c8f928d8ff66dbe5b9d119","4","7","435","","","","","","","","","<img src= ""rock_img/I_Pegmatite_07.jpg"" style=""width:8cm; height:6.7cm;""><p>What type of rock is this?</p>","7","class_response","0","test","32","Pumice","Pegmatite","07","false","8","6","","","","","","","","","","","","","","","","","",""
"","","","","","","","","","","","html-keyboard-response","70","2.0.0","258027","66c8f928d8ff66dbe5b9d119","4","7","null","","","","","","","","","<p style='font-size: 30px;'><strong>Okay</strong></p>","null","neutral_feedback","0","test","32","","","","","","","","","","","","","","","","","","","","","","","",""
"","","","","","","","","","","","html-button-response","71","2.0.0","258424","66c8f928d8ff66dbe5b9d119","4","7","393","","","","","","","","","<img src= ""rock_img/I_Andesite_09.jpg"" style=""width:8cm; height:6cm;""><p>What type of rock is this?</p>","7","class_response","0","test","33","Pumice","Andesite","09","false","8","1","","","","","","","","","","","","","","","","","",""
"","","","","","","","","","","","html-keyboard-response","72","2.0.0","258935","66c8f928d8ff66dbe5b9d119","4","7","null","","","","","","","","","<p style='font-size: 30px;'><strong>Okay</strong></p>","null","neutral_feedback","0","test","33","","","","","","","","","","","","","","","","","","","","","","","",""
"","","","","","","","","","","","html-button-response","73","2.0.0","259351","66c8f928d8ff66dbe5b9d119","4","7","413","","","","","","","","","<img src= ""rock_img/I_Diorite_08.jpg"" style=""width:8cm; height:6.37cm;""><p>What type of rock is this?</p>","3","class_response","0","test","34","Gabbro","Diorite","08","false","4","3","","","","","","","","","","","","","","","","","",""
"","","","","","","","","","","","html-keyboard-response","74","2.0.0","259856","66c8f928d8ff66dbe5b9d119","4","7","null","","","","","","","","","<p style='font-size: 30px;'><strong>Okay</strong></p>","null","neutral_feedback","0","test","34","","","","","","","","","","","","","","","","","","","","","","","",""
"","","","","","","","","","","","html-button-response","75","2.0.0","260239","66c8f928d8ff66dbe5b9d119","4","7","381","","","","","","","","","<img src= ""rock_img/I_Basalt_16.jpg"" style=""width:8cm; height:7.659999999999999cm;""><p>What type of rock is this?</p>","5","class_response","0","test","35","Pegmatite","Basalt","16","false","6","2","","","","","","","","","","","","","","","","","",""
"","","","","","","","","","","","html-keyboard-response","76","2.0.0","260746","66c8f928d8ff66dbe5b9d119","4","7","null","","","","","","","","","<p style='font-size: 30px;'><strong>Okay</strong></p>","null","neutral_feedback","0","test","35","","","","","","","","","","","","","","","","","","","","","","","",""
"","","","","","","","","","","","html-button-response","77","2.0.0","261287","66c8f928d8ff66dbe5b9d119","4","7","538","","","","","","","","","<img src= ""rock_img/I_Peridotite_12.jpg"" style=""width:8cm; height:4.54cm;""><p>What type of rock is this?</p>","6","class_response","0","test","36","Peridotite","Peridotite","12","true","7","7","","","","","","","","","","","","","","","","","",""
"","","","","","","","","","","","html-keyboard-response","78","2.0.0","261792","66c8f928d8ff66dbe5b9d119","4","7","null","","","","","","","","","<p style='font-size: 30px;'><strong>Okay</strong></p>","null","neutral_feedback","0","test","36","","","","","","","","","","","","","","","","","","","","","","","",""
"","","","","","","","","","","","html-button-response","79","2.0.0","262495","66c8f928d8ff66dbe5b9d119","4","7","702","","","","","","","","","<img src= ""rock_img/I_Pegmatite_11.jpg"" style=""width:8cm; height:8.14cm;""><p>What type of rock is this?</p>","2","class_response","0","test","37","Diorite","Pegmatite","11","false","3","6","","","","","","","","","","","","","","","","","",""
"","","","","","","","","","","","html-keyboard-response","80","2.0.0","262997","66c8f928d8ff66dbe5b9d119","4","7","null","","","","","","","","","<p style='font-size: 30px;'><strong>Okay</strong></p>","null","neutral_feedback","0","test","37","","","","","","","","","","","","","","","","","","","","","","","",""
"","","","","","","","","","","","html-button-response","81","2.0.0","263585","66c8f928d8ff66dbe5b9d119","4","7","582","","","","","","","","","<img src= ""rock_img/I_Andesite_16.jpg"" style=""width:8cm; height:6.010000000000001cm;""><p>What type of rock is this?</p>","0","class_response","0","test","38","Andesite","Andesite","16","true","1","1","","","","","","","","","","","","","","","","","",""
"","","","","","","","","","","","html-keyboard-response","82","2.0.0","264091","66c8f928d8ff66dbe5b9d119","4","7","null","","","","","","","","","<p style='font-size: 30px;'><strong>Okay</strong></p>","null","neutral_feedback","0","test","38","","","","","","","","","","","","","","","","","","","","","","","",""
"","","","","","","","","","","","html-button-response","83","2.0.0","264502","66c8f928d8ff66dbe5b9d119","4","7","406","","","","","","","","","<img src= ""rock_img/I_Peridotite_02.jpg"" style=""width:8cm; height:5.859999999999999cm;""><p>What type of rock is this?</p>","1","class_response","0","test","39","Basalt","Peridotite","02","false","2","7","","","","","","","","","","","","","","","","","",""
"","","","","","","","","","","","html-keyboard-response","84","2.0.0","265011","66c8f928d8ff66dbe5b9d119","4","7","null","","","","","","","","","<p style='font-size: 30px;'><strong>Okay</strong></p>","null","neutral_feedback","0","test","39","","","","","","","","","","","","","","","","","","","","","","","",""
"","","","","","","","","","","","html-button-response","85","2.0.0","265583","66c8f928d8ff66dbe5b9d119","4","7","569","","","","","","","","","<img src= ""rock_img/I_Obsidian_12.jpg"" style=""width:8cm; height:6.53cm;""><p>What type of rock is this?</p>","1","class_response","0","test","40","Basalt","Obsidian","12","false","2","5","","","","","","","","","","","","","","","","","",""
"","","","","","","","","","","","html-keyboard-response","86","2.0.0","266087","66c8f928d8ff66dbe5b9d119","4","7","null","","","","","","","","","<p style='font-size: 30px;'><strong>Okay</strong></p>","null","neutral_feedback","0","test","40","","","","","","","","","","","","","","","","","","","","","","","",""
"","","","","","","","","","","","html-button-response","87","2.0.0","266472","66c8f928d8ff66dbe5b9d119","4","7","383","","","","","","","","","<img src= ""rock_img/I_Gabbro_09.jpg"" style=""width:8cm; height:7.279999999999999cm;""><p>What type of rock is this?</p>","2","class_response","0","test","41","Diorite","Gabbro","09","false","3","4","","","","","","","","","","","","","","","","","",""
"","","","","","","","","","","","html-keyboard-response","88","2.0.0","266975","66c8f928d8ff66dbe5b9d119","4","7","null","","","","","","","","","<p style='font-size: 30px;'><strong>Okay</strong></p>","null","neutral_feedback","0","test","41","","","","","","","","","","","","","","","","","","","","","","","",""
"","","","","","","","","","","","html-button-response","89","2.0.0","267536","66c8f928d8ff66dbe5b9d119","4","7","557","","","","","","","","","<img src= ""rock_img/I_Pumice_02.jpg"" style=""width:8cm; height:7.3999999999999995cm;""><p>What type of rock is this?</p>","5","class_response","0","test","42","Pegmatite","Pumice","02","false","6","8","","","","","","","","","","","","","","","","","",""
"","","","","","","","","","","","html-keyboard-response","90","2.0.0","268045","66c8f928d8ff66dbe5b9d119","4","7","null","","","","","","","","","<p style='font-size: 30px;'><strong>Okay</strong></p>","null","neutral_feedback","0","test","42","","","","","","","","","","","","","","","","","","","","","","","",""
"","","","","","","","","","","","html-button-response","91","2.0.0","268896","66c8f928d8ff66dbe5b9d119","4","7","848","","","","","","","","","<img src= ""rock_img/I_Diorite_11.jpg"" style=""width:8cm; height:7.11cm;""><p>What type of rock is this?</p>","1","class_response","0","test","43","Basalt","Diorite","11","false","2","3","","","","","","","","","","","","","","","","","",""
"","","","","","","","","","","","html-keyboard-response","92","2.0.0","269403","66c8f928d8ff66dbe5b9d119","4","7","null","","","","","","","","","<p style='font-size: 30px;'><strong>Okay</strong></p>","null","neutral_feedback","0","test","43","","","","","","","","","","","","","","","","","","","","","","","",""
"","","","","","","","","","","","html-button-response","93","2.0.0","269735","66c8f928d8ff66dbe5b9d119","4","7","331","","","","","","","","","<img src= ""rock_img/I_Basalt_12.jpg"" style=""width:8cm; height:6.010000000000001cm;""><p>What type of rock is this?</p>","6","class_response","0","test","44","Peridotite","Basalt","12","false","7","2","","","","","","","","","","","","","","","","","",""
"","","","","","","","","","","","html-keyboard-response","94","2.0.0","270244","66c8f928d8ff66dbe5b9d119","4","7","null","","","","","","","","","<p style='font-size: 30px;'><strong>Okay</strong></p>","null","neutral_feedback","0","test","44","","","","","","","","","","","","","","","","","","","","","","","",""
"","","","","","","","","","","","html-button-response","95","2.0.0","270945","66c8f928d8ff66dbe5b9d119","4","7","697","","","","","","","","","<img src= ""rock_img/I_Peridotite_16.jpg"" style=""width:8cm; height:6.989999999999999cm;""><p>What type of rock is this?</p>","7","class_response","0","test","45","Pumice","Peridotite","16","false","8","7","","","","","","","","","","","","","","","","","",""
"","","","","","","","","","","","html-keyboard-response","96","2.0.0","271459","66c8f928d8ff66dbe5b9d119","4","7","null","","","","","","","","","<p style='font-size: 30px;'><strong>Okay</strong></p>","null","neutral_feedback","0","test","45","","","","","","","","","","","","","","","","","","","","","","","",""
"","","","","","","","","","","","html-button-response","97","2.0.0","272264","66c8f928d8ff66dbe5b9d119","4","7","801","","","","","","","","","<img src= ""rock_img/I_Gabbro_13.jpg"" style=""width:8cm; height:5.08cm;""><p>What type of rock is this?</p>","0","class_response","0","test","46","Andesite","Gabbro","13","false","1","4","","","","","","","","","","","","","","","","","",""
"","","","","","","","","","","","html-keyboard-response","98","2.0.0","272769","66c8f928d8ff66dbe5b9d119","4","7","null","","","","","","","","","<p style='font-size: 30px;'><strong>Okay</strong></p>","null","neutral_feedback","0","test","46","","","","","","","","","","","","","","","","","","","","","","","",""
"","","","","","","","","","","","html-button-response","99","2.0.0","273800","66c8f928d8ff66dbe5b9d119","4","7","1029","","","","","","","","","<img src= ""rock_img/I_Pumice_04.jpg"" style=""width:8cm; height:6.819999999999999cm;""><p>What type of rock is this?</p>","4","class_response","0","test","47","Obsidian","Pumice","04","false","5","8","","","","","","","","","","","","","","","","","",""
"","","","","","","","","","","","html-keyboard-response","100","2.0.0","274308","66c8f928d8ff66dbe5b9d119","4","7","null","","","","","","","","","<p style='font-size: 30px;'><strong>Okay</strong></p>","null","neutral_feedback","0","test","47","","","","","","","","","","","","","","","","","","","","","","","",""
"","","","","","","","","","","","html-button-response","101","2.0.0","274744","66c8f928d8ff66dbe5b9d119","4","7","432","","","","","","","","","<img src= ""rock_img/I_Basalt_01.jpg"" style=""width:8cm; height:7.880000000000001cm;""><p>What type of rock is this?</p>","1","class_response","0","test","48","Basalt","Basalt","01","true","2","2","","","","","","","","","","","","","","","","","",""
"","","","","","","","","","","","html-keyboard-response","102","2.0.0","275252","66c8f928d8ff66dbe5b9d119","4","7","null","","","","","","","","","<p style='font-size: 30px;'><strong>Okay</strong></p>","null","neutral_feedback","0","test","48","","","","","","","","","","","","","","","","","","","","","","","",""
"","","","","","","","","","","","instructions","103","2.0.0","336919","66c8f928d8ff66dbe5b9d119","4","7","61601","","","","","","","","[{""page_index"":0,""viewing_time"":56648},{""page_index"":1,""viewing_time"":4953}]","","","","","","","","","","","","","","","","","","","","","","","","","","","","","",""
"","","","","","","","","","","","html-button-response","104","2.0.0","341944","66c8f928d8ff66dbe5b9d119","4","7","5023","","","","","","","","","","0","start_train","","","","","","","","","","","","","","","","","","","","","","","","","","",""
"","","","","","","","","","","","html-button-response","106","2.0.0","345967","66c8f928d8ff66dbe5b9d119","4","7","4022","","","","","","","","","<img src= ""rock_img/I_Andesite_07.jpg"" style=""width:8cm; height:5.93cm;""><p>What type of rock is this?</p>","1","class_response","1","train","1","Basalt","Andesite","07","false","2","1","","","","","","","","","","","","","","","","","",""
"","","","","","","","","","","","html-button-response","107","2.0.0","353999","66c8f928d8ff66dbe5b9d119","4","7","8031","","","","","","","","","<img src= rock_img/I_Andesite_07.jpg style=""width:8cm; height:5.93cm;""><p style='font-size: 30px; color: red;'><strong>Incorrect!</strong></p><p style='font-size: 30px;'><strong>This rock is andesite</strong></p>","0","corr_feedback","1","train","1","","","","","","","","","","","","","","","","","","","","","","","",""
"","","","","","","","","","","","html-button-response","108","2.0.0","356679","66c8f928d8ff66dbe5b9d119","4","7","2679","","","","","","","","","<img src= ""rock_img/I_Gabbro_12.jpg"" style=""width:8cm; height:7.800000000000001cm;""><p>What type of rock is this?</p>","0","class_response","1","train","2","Andesite","Gabbro","12","false","1","4","","","","","","","","","","","","","","","","","",""
"","","","","","","","","","","","html-button-response","109","2.0.0","360136","66c8f928d8ff66dbe5b9d119","4","7","3455","","","","","","","","","<img src= rock_img/I_Gabbro_12.jpg style=""width:8cm; height:7.800000000000001cm;""><p style='font-size: 30px; color: red;'><strong>Incorrect!</strong></p><p style='font-size: 30px;'><strong>This rock is gabbro</strong></p>","0","corr_feedback","1","train","2","","","","","","","","","","","","","","","","","","","","","","","",""
"","","","","","","","","","","","html-button-response","110","2.0.0","364616","66c8f928d8ff66dbe5b9d119","4","7","4478","","","","","","","","","<img src= ""rock_img/I_Obsidian_10.jpg"" style=""width:8cm; height:6.260000000000001cm;""><p>What type of rock is this?</p>","2","class_response","1","train","3","Diorite","Obsidian","10","false","3","5","","","","","","","","","","","","","","","","","",""
"","","","","","","","","","","","html-button-response","111","2.0.0","370351","66c8f928d8ff66dbe5b9d119","4","7","5735","","","","","","","","","<img src= rock_img/I_Obsidian_10.jpg style=""width:8cm; height:6.260000000000001cm;""><p style='font-size: 30px; color: red;'><strong>Incorrect!</strong></p><p style='font-size: 30px;'><strong>This rock is obsidian</strong></p>","0","corr_feedback","1","train","3","","","","","","","","","","","","","","","","","","","","","","","",""
"","","","","","","","","","","","html-button-response","112","2.0.0","372960","66c8f928d8ff66dbe5b9d119","4","7","2607","","","","","","","","","<img src= ""rock_img/I_Peridotite_08.jpg"" style=""width:8cm; height:6.7cm;""><p>What type of rock is this?</p>","7","class_response","1","train","4","Pumice","Peridotite","08","false","8","7","","","","","","","","","","","","","","","","","",""
"","","","","","","","","","","","html-button-response","113","2.0.0","378263","66c8f928d8ff66dbe5b9d119","4","7","5302","","","","","","","","","<img src= rock_img/I_Peridotite_08.jpg style=""width:8cm; height:6.7cm;""><p style='font-size: 30px; color: red;'><strong>Incorrect!</strong></p><p style='font-size: 30px;'><strong>This rock is peridotite</strong></p>","0","corr_feedback","1","train","4","","","","","","","","","","","","","","","","","","","","","","","",""
"","","","","","","","","","","","html-button-response","114","2.0.0","381144","66c8f928d8ff66dbe5b9d119","4","7","2880","","","","","","","","","<img src= ""rock_img/I_Pegmatite_03.jpg"" style=""width:8cm; height:5.239999999999999cm;""><p>What type of rock is this?</p>","5","class_response","1","train","5","Pegmatite","Pegmatite","03","true","6","6","","","","","","","","","","","","","","","","","",""
"","","","","","","","","","","","html-button-response","115","2.0.0","386215","66c8f928d8ff66dbe5b9d119","4","7","5070","","","","","","","","","<img src= rock_img/I_Pegmatite_03.jpg style=""width:8cm; height:5.239999999999999cm;""><p style='font-size: 30px; color: green;'><strong>Correct!</strong></p><p style='font-size: 30px;'><strong>This rock is pegmatite</strong></p>","0","corr_feedback","1","train","5","","","","","","","","","","","","","","","","","","","","","","","",""
"","","","","","","","","","","","html-button-response","116","2.0.0","389207","66c8f928d8ff66dbe5b9d119","4","7","2991","","","","","","","","","<img src= ""rock_img/I_Andesite_10.jpg"" style=""width:8cm; height:4.16cm;""><p>What type of rock is this?</p>","4","class_response","1","train","6","Obsidian","Andesite","10","false","5","1","","","","","","","","","","","","","","","","","",""
"","","","","","","","","","","","html-button-response","117","2.0.0","391383","66c8f928d8ff66dbe5b9d119","4","7","2174","","","","","","","","","<img src= rock_img/I_Andesite_10.jpg style=""width:8cm; height:4.16cm;""><p style='font-size: 30px; color: red;'><strong>Incorrect!</strong></p><p style='font-size: 30px;'><strong>This rock is andesite</strong></p>","0","corr_feedback","1","train","6","","","","","","","","","","","","","","","","","","","","","","","",""
"","","","","","","","","","","","html-button-response","118","2.0.0","395407","66c8f928d8ff66dbe5b9d119","4","7","4023","","","","","","","","","<img src= ""rock_img/I_Diorite_15.jpg"" style=""width:8cm; height:5.54cm;""><p>What type of rock is this?</p>","2","class_response","1","train","7","Diorite","Diorite","15","true","3","3","","","","","","","","","","","","","","","","","",""
"","","","","","","","","","","","html-button-response","119","2.0.0","398631","66c8f928d8ff66dbe5b9d119","4","7","3223","","","","","","","","","<img src= rock_img/I_Diorite_15.jpg style=""width:8cm; height:5.54cm;""><p style='font-size: 30px; color: green;'><strong>Correct!</strong></p><p style='font-size: 30px;'><strong>This rock is diorite</strong></p>","0","corr_feedback","1","train","7","","","","","","","","","","","","","","","","","","","","","","","",""
"","","","","","","","","","","","html-button-response","120","2.0.0","400808","66c8f928d8ff66dbe5b9d119","4","7","2176","","","","","","","","","<img src= ""rock_img/I_Gabbro_14.jpg"" style=""width:8cm; height:8.48cm;""><p>What type of rock is this?</p>","0","class_response","1","train","8","Andesite","Gabbro","14","false","1","4","","","","","","","","","","","","","","","","","",""
"","","","","","","","","","","","html-button-response","121","2.0.0","404407","66c8f928d8ff66dbe5b9d119","4","7","3597","","","","","","","","","<img src= rock_img/I_Gabbro_14.jpg style=""width:8cm; height:8.48cm;""><p style='font-size: 30px; color: red;'><strong>Incorrect!</strong></p><p style='font-size: 30px;'><strong>This rock is gabbro</strong></p>","0","corr_feedback","1","train","8","","","","","","","","","","","","","","","","","","","","","","","",""
"","","","","","","","","","","","html-button-response","122","2.0.0","407327","66c8f928d8ff66dbe5b9d119","4","7","2919","","","","","","","","","<img src= ""rock_img/I_Basalt_10.jpg"" style=""width:8cm; height:5.85cm;""><p>What type of rock is this?</p>","7","class_response","1","train","9","Pumice","Basalt","10","false","8","2","","","","","","","","","","","","","","","","","",""
"","","","","","","","","","","","html-button-response","123","2.0.0","409303","66c8f928d8ff66dbe5b9d119","4","7","1975","","","","","","","","","<img src= rock_img/I_Basalt_10.jpg style=""width:8cm; height:5.85cm;""><p style='font-size: 30px; color: red;'><strong>Incorrect!</strong></p><p style='font-size: 30px;'><strong>This rock is basalt</strong></p>","0","corr_feedback","1","train","9","","","","","","","","","","","","","","","","","","","","","","","",""
"","","","","","","","","","","","html-button-response","124","2.0.0","410535","66c8f928d8ff66dbe5b9d119","4","7","1230","","","","","","","","","<img src= ""rock_img/I_Peridotite_04.jpg"" style=""width:8cm; height:6.680000000000001cm;""><p>What type of rock is this?</p>","5","class_response","1","train","10","Pegmatite","Peridotite","04","false","6","7","","","","","","","","","","","","","","","","","",""
"","","","","","","","","","","","html-button-response","125","2.0.0","411951","66c8f928d8ff66dbe5b9d119","4","7","1415","","","","","","","","","<img src= rock_img/I_Peridotite_04.jpg style=""width:8cm; height:6.680000000000001cm;""><p style='font-size: 30px; color: red;'><strong>Incorrect!</strong></p><p style='font-size: 30px;'><strong>This rock is peridotite</strong></p>","0","corr_feedback","1","train","10","","","","","","","","","","","","","","","","","","","","","","","",""
"","","","","","","","","","","","html-button-response","126","2.0.0","414742","66c8f928d8ff66dbe5b9d119","4","7","2790","","","","","","","","","<img src= ""rock_img/I_Pumice_13.jpg"" style=""width:8cm; height:8.200000000000001cm;""><p>What type of rock is this?</p>","1","class_response","1","train","11","Basalt","Pumice","13","false","2","8","","","","","","","","","","","","","","","","","",""
"","","","","","","","","","","","html-button-response","127","2.0.0","417127","66c8f928d8ff66dbe5b9d119","4","7","2383","","","","","","","","","<img src= rock_img/I_Pumice_13.jpg style=""width:8cm; height:8.200000000000001cm;""><p style='font-size: 30px; color: red;'><strong>Incorrect!</strong></p><p style='font-size: 30px;'><strong>This rock is pumice</strong></p>","0","corr_feedback","1","train","11","","","","","","","","","","","","","","","","","","","","","","","",""
"","","","","","","","","","","","html-button-response","128","2.0.0","419359","66c8f928d8ff66dbe5b9d119","4","7","2231","","","","","","","","","<img src= ""rock_img/I_Obsidian_06.jpg"" style=""width:8cm; height:6.8cm;""><p>What type of rock is this?</p>","5","class_response","1","train","12","Pegmatite","Obsidian","06","false","6","5","","","","","","","","","","","","","","","","","",""
"","","","","","","","","","","","html-button-response","129","2.0.0","421743","66c8f928d8ff66dbe5b9d119","4","7","2383","","","","","","","","","<img src= rock_img/I_Obsidian_06.jpg style=""width:8cm; height:6.8cm;""><p style='font-size: 30px; color: red;'><strong>Incorrect!</strong></p><p style='font-size: 30px;'><strong>This rock is obsidian</strong></p>","0","corr_feedback","1","train","12","","","","","","","","","","","","","","","","","","","","","","","",""
"","","","","","","","","","","","instructions","130","2.0.0","489872","66c8f928d8ff66dbe5b9d119","4","7","68128","","","","","","","","[{""page_index"":0,""viewing_time"":14439},{""page_index"":1,""viewing_time"":20608},{""page_index"":2,""viewing_time"":23272},{""page_index"":3,""viewing_time"":9809}]","","","","","","","","","","","","","","","","","","","","","","","","","","","","","",""
"","","","","","","","","","","","html-button-response","131","2.0.0","491016","66c8f928d8ff66dbe5b9d119","4","7","1143","","","","","","","","","","0","start_train","","","","","","","","","","","","","","","","","","","","","","","","","","",""
"","","","","","","","","","","","html-button-response","132","2.0.0","499808","66c8f928d8ff66dbe5b9d119","4","7","","","","","","","","","","","","cat_selection","1","train","1","","","","","","","6310.300000071526","2480.100000023842","2","8","","","","","","","","","","","","","",""
"","","","","","","","","","","","paired-cat-display","133","1.0.0","621891","66c8f928d8ff66dbe5b9d119","4","7","","","","","","","","","","","","paired_cat_display","1","train","1","","","","","","","","","","","","","Basalt is darker, whilst the pumice is lighter.","Pumice is much lighter and has holes in them.","19429.399999976158","102646.70000004768","","","","","","","",""
"","","","","","","","","","","","html-button-response","134","2.0.0","631567","66c8f928d8ff66dbe5b9d119","4","7","","","","","","","","","","","","cat_selection","1","train","2","","","","","","","8202.600000023842","1472.1999999284744","1","5","Basalt","Pumice","","","","","","","","","","","",""
"","","","","","","","","","","","paired-cat-display","135","1.0.0","754537","66c8f928d8ff66dbe5b9d119","4","7","","","","","","","","","","","","paired_cat_display","1","train","2","","","","","","","","","","","","","","","18214.599999904633","104750.69999992847","ANDESITE IS NOT COLORFUL AN HAS SPOTS","OBSIDIAN IS DARKER AND HAS CURVES.","","","","","",""
"","","","","","","","","","","","html-button-response","136","2.0.0","766399","66c8f928d8ff66dbe5b9d119","4","7","","","","","","","","","","","","cat_selection","1","train","3","","","","","","","8796.100000023842","3063.399999976158","6","7","Andesite","Obsidian","","","","","","","","","","","",""
"","","","","","","","","","","","paired-cat-display","137","1.0.0","805616","66c8f928d8ff66dbe5b9d119","4","7","","","","","","","","","","","","paired_cat_display","1","train","3","","","","","","","","","","","","","","","6190.299999952316","33021.60000002384","","","THIS IS SHARPER","THIS HAS MORE GREEN COLOR.","","","",""
"","","","","","","","","","","","instructions","138","2.0.0","839767","66c8f928d8ff66dbe5b9d119","4","7","34149","","","","","","","","[{""page_index"":0,""viewing_time"":14092},{""page_index"":1,""viewing_time"":20056}]","","","","","","","","","","","","","","","","","","","","","","","","","","","","","",""
"","","","","","","","","","","","html-button-response","139","2.0.0","841215","66c8f928d8ff66dbe5b9d119","4","7","1446","","","","","","","","","","0","start_test","","","","","","","","","","","","","","","","","","","","","","","","","","",""
"","","","","","","","","","","","html-button-response","140","2.0.0","860679","66c8f928d8ff66dbe5b9d119","4","7","19463","","","","","","","","","<img src= ""rock_img/I_Pumice_04.jpg"" style=""width:8cm; height:6.819999999999999cm;""><p>What type of rock is this?</p>","2","class_response","1","test","1","Diorite","Pumice","04","false","3","8","","","","","","","","","","","","","","","","","",""
"","","","","","","","","","","","html-keyboard-response","141","2.0.0","861185","66c8f928d8ff66dbe5b9d119","4","7","null","","","","","","","","","<p style='font-size: 30px;'><strong>Okay</strong></p>","null","neutral_feedback","1","test","1","","","","","","","","","","","","","","","","","","","","","","","",""
"","","","","","","","","","","","html-button-response","142","2.0.0","873375","66c8f928d8ff66dbe5b9d119","4","7","12187","","","","","","","","","<img src= ""rock_img/I_Peridotite_16.jpg"" style=""width:8cm; height:6.989999999999999cm;""><p>What type of rock is this?</p>","5","class_response","1","test","2","Pegmatite","Peridotite","16","false","6","7","","","","","","","","","","","","","","","","","",""
"","","","","","","","","","","","html-keyboard-response","143","2.0.0","873903","66c8f928d8ff66dbe5b9d119","4","7","null","","","","","","","","","<p style='font-size: 30px;'><strong>Okay</strong></p>","null","neutral_feedback","1","test","2","","","","","","","","","","","","","","","","","","","","","","","",""
"","","","","","","","","","","","html-button-response","144","2.0.0","882990","66c8f928d8ff66dbe5b9d119","4","7","9084","","","","","","","","","<img src= ""rock_img/I_Diorite_11.jpg"" style=""width:8cm; height:7.11cm;""><p>What type of rock is this?</p>","6","class_response","1","test","3","Peridotite","Diorite","11","false","7","3","","","","","","","","","","","","","","","","","",""
"","","","","","","","","","","","html-keyboard-response","145","2.0.0","883499","66c8f928d8ff66dbe5b9d119","4","7","null","","","","","","","","","<p style='font-size: 30px;'><strong>Okay</strong></p>","null","neutral_feedback","1","test","3","","","","","","","","","","","","","","","","","","","","","","","",""
"","","","","","","","","","","","html-button-response","146","2.0.0","891950","66c8f928d8ff66dbe5b9d119","4","7","8447","","","","","","","","","<img src= ""rock_img/I_Pumice_15.jpg"" style=""width:8cm; height:7.86cm;""><p>What type of rock is this?</p>","7","class_response","1","test","4","Pumice","Pumice","15","true","8","8","","","","","","","","","","","","","","","","","",""
"","","","","","","","","","","","html-keyboard-response","147","2.0.0","892453","66c8f928d8ff66dbe5b9d119","4","7","null","","","","","","","","","<p style='font-size: 30px;'><strong>Okay</strong></p>","null","neutral_feedback","1","test","4","","","","","","","","","","","","","","","","","","","","","","","",""
"","","","","","","","","","","","html-button-response","148","2.0.0","905646","66c8f928d8ff66dbe5b9d119","4","7","13190","","","","","","","","","<img src= ""rock_img/I_Peridotite_05.jpg"" style=""width:8cm; height:7.1499999999999995cm;""><p>What type of rock is this?</p>","0","class_response","1","test","5","Andesite","Peridotite","05","false","1","7","","","","","","","","","","","","","","","","","",""
"","","","","","","","","","","","html-keyboard-response","149","2.0.0","906153","66c8f928d8ff66dbe5b9d119","4","7","null","","","","","","","","","<p style='font-size: 30px;'><strong>Okay</strong></p>","null","neutral_feedback","1","test","5","","","","","","","","","","","","","","","","","","","","","","","",""
"","","","","","","","","","","","html-button-response","150","2.0.0","908766","66c8f928d8ff66dbe5b9d119","4","7","2610","","","","","","","","","<img src= ""rock_img/I_Andesite_05.jpg"" style=""width:8cm; height:4.12cm;""><p>What type of rock is this?</p>","1","class_response","1","test","6","Basalt","Andesite","05","false","2","1","","","","","","","","","","","","","","","","","",""
"","","","","","","","","","","","html-keyboard-response","151","2.0.0","909280","66c8f928d8ff66dbe5b9d119","4","7","null","","","","","","","","","<p style='font-size: 30px;'><strong>Okay</strong></p>","null","neutral_feedback","1","test","6","","","","","","","","","","","","","","","","","","","","","","","",""
"","","","","","","","","","","","html-button-response","152","2.0.0","911534","66c8f928d8ff66dbe5b9d119","4","7","2251","","","","","","","","","<img src= ""rock_img/I_Pegmatite_11.jpg"" style=""width:8cm; height:8.14cm;""><p>What type of rock is this?</p>","4","class_response","1","test","7","Obsidian","Pegmatite","11","false","5","6","","","","","","","","","","","","","","","","","",""
"","","","","","","","","","","","html-keyboard-response","153","2.0.0","912035","66c8f928d8ff66dbe5b9d119","4","7","null","","","","","","","","","<p style='font-size: 30px;'><strong>Okay</strong></p>","null","neutral_feedback","1","test","7","","","","","","","","","","","","","","","","","","","","","","","",""
"","","","","","","","","","","","html-button-response","154","2.0.0","912575","66c8f928d8ff66dbe5b9d119","4","7","538","","","","","","","","","<img src= ""rock_img/I_Diorite_06.jpg"" style=""width:8cm; height:6.03cm;""><p>What type of rock is this?</p>","6","class_response","1","test","8","Peridotite","Diorite","06","false","7","3","","","","","","","","","","","","","","","","","",""
"","","","","","","","","","","","html-keyboard-response","155","2.0.0","913078","66c8f928d8ff66dbe5b9d119","4","7","null","","","","","","","","","<p style='font-size: 30px;'><strong>Okay</strong></p>","null","neutral_feedback","1","test","8","","","","","","","","","","","","","","","","","","","","","","","",""
"","","","","","","","","","","","html-button-response","156","2.0.0","913742","66c8f928d8ff66dbe5b9d119","4","7","662","","","","","","","","","<img src= ""rock_img/I_Peridotite_14.jpg"" style=""width:8cm; height:5.3cm;""><p>What type of rock is this?</p>","3","class_response","1","test","9","Gabbro","Peridotite","14","false","4","7","","","","","","","","","","","","","","","","","",""
"","","","","","","","","","","","html-keyboard-response","157","2.0.0","914249","66c8f928d8ff66dbe5b9d119","4","7","null","","","","","","","","","<p style='font-size: 30px;'><strong>Okay</strong></p>","null","neutral_feedback","1","test","9","","","","","","","","","","","","","","","","","","","","","","","",""
"","","","","","","","","","","","html-button-response","158","2.0.0","915567","66c8f928d8ff66dbe5b9d119","4","7","1315","","","","","","","","","<img src= ""rock_img/I_Pegmatite_09.jpg"" style=""width:8cm; height:4.03cm;""><p>What type of rock is this?</p>","0","class_response","1","test","10","Andesite","Pegmatite","09","false","1","6","","","","","","","","","","","","","","","","","",""
"","","","","","","","","","","","html-keyboard-response","159","2.0.0","916077","66c8f928d8ff66dbe5b9d119","4","7","null","","","","","","","","","<p style='font-size: 30px;'><strong>Okay</strong></p>","null","neutral_feedback","1","test","10","","","","","","","","","","","","","","","","","","","","","","","",""
"","","","","","","","","","","","html-button-response","160","2.0.0","917598","66c8f928d8ff66dbe5b9d119","4","7","1519","","","","","","","","","<img src= ""rock_img/I_Diorite_14.jpg"" style=""width:8cm; height:5.71cm;""><p>What type of rock is this?</p>","1","class_response","1","test","11","Basalt","Diorite","14","false","2","3","","","","","","","","","","","","","","","","","",""
"","","","","","","","","","","","html-keyboard-response","161","2.0.0","918107","66c8f928d8ff66dbe5b9d119","4","7","null","","","","","","","","","<p style='font-size: 30px;'><strong>Okay</strong></p>","null","neutral_feedback","1","test","11","","","","","","","","","","","","","","","","","","","","","","","",""
"","","","","","","","","","","","html-button-response","162","2.0.0","919214","66c8f928d8ff66dbe5b9d119","4","7","1105","","","","","","","","","<img src= ""rock_img/I_Andesite_16.jpg"" style=""width:8cm; height:6.010000000000001cm;""><p>What type of rock is this?</p>","2","class_response","1","test","12","Diorite","Andesite","16","false","3","1","","","","","","","","","","","","","","","","","",""
"","","","","","","","","","","","html-keyboard-response","163","2.0.0","919727","66c8f928d8ff66dbe5b9d119","4","7","null","","","","","","","","","<p style='font-size: 30px;'><strong>Okay</strong></p>","null","neutral_feedback","1","test","12","","","","","","","","","","","","","","","","","","","","","","","",""
"","","","","","","","","","","","html-button-response","164","2.0.0","920494","66c8f928d8ff66dbe5b9d119","4","7","766","","","","","","","","","<img src= ""rock_img/I_Peridotite_10.jpg"" style=""width:8cm; height:5.390000000000001cm;""><p>What type of rock is this?</p>","6","class_response","1","test","13","Peridotite","Peridotite","10","true","7","7","","","","","","","","","","","","","","","","","",""
"","","","","","","","","","","","html-keyboard-response","165","2.0.0","920996","66c8f928d8ff66dbe5b9d119","4","7","null","","","","","","","","","<p style='font-size: 30px;'><strong>Okay</strong></p>","null","neutral_feedback","1","test","13","","","","","","","","","","","","","","","","","","","","","","","",""
"","","","","","","","","","","","html-button-response","166","2.0.0","921758","66c8f928d8ff66dbe5b9d119","4","7","757","","","","","","","","","<img src= ""rock_img/I_Diorite_08.jpg"" style=""width:8cm; height:6.37cm;""><p>What type of rock is this?</p>","5","class_response","1","test","14","Pegmatite","Diorite","08","false","6","3","","","","","","","","","","","","","","","","","",""
"","","","","","","","","","","","html-keyboard-response","167","2.0.0","922262","66c8f928d8ff66dbe5b9d119","4","7","null","","","","","","","","","<p style='font-size: 30px;'><strong>Okay</strong></p>","null","neutral_feedback","1","test","14","","","","","","","","","","","","","","","","","","","","","","","",""
"","","","","","","","","","","","html-button-response","168","2.0.0","922839","66c8f928d8ff66dbe5b9d119","4","7","574","","","","","","","","","<img src= ""rock_img/I_Obsidian_16.jpg"" style=""width:8cm; height:9.3cm;""><p>What type of rock is this?</p>","2","class_response","1","test","15","Diorite","Obsidian","16","false","3","5","","","","","","","","","","","","","","","","","",""
"","","","","","","","","","","","html-keyboard-response","169","2.0.0","923348","66c8f928d8ff66dbe5b9d119","4","7","null","","","","","","","","","<p style='font-size: 30px;'><strong>Okay</strong></p>","null","neutral_feedback","1","test","15","","","","","","","","","","","","","","","","","","","","","","","",""
"","","","","","","","","","","","html-button-response","170","2.0.0","924054","66c8f928d8ff66dbe5b9d119","4","7","703","","","","","","","","","<img src= ""rock_img/I_Andesite_06.jpg"" style=""width:8cm; height:6.840000000000001cm;""><p>What type of rock is this?</p>","7","class_response","1","test","16","Pumice","Andesite","06","false","8","1","","","","","","","","","","","","","","","","","",""
"","","","","","","","","","","","html-keyboard-response","171","2.0.0","924558","66c8f928d8ff66dbe5b9d119","4","7","null","","","","","","","","","<p style='font-size: 30px;'><strong>Okay</strong></p>","null","neutral_feedback","1","test","16","","","","","","","","","","","","","","","","","","","","","","","",""
"","","","","","","","","","","","html-button-response","172","2.0.0","925589","66c8f928d8ff66dbe5b9d119","4","7","1030","","","","","","","","","<img src= ""rock_img/I_Pegmatite_05.jpg"" style=""width:8cm; height:7.300000000000001cm;""><p>What type of rock is this?</p>","1","class_response","1","test","17","Basalt","Pegmatite","05","false","2","6","","","","","","","","","","","","","","","","","",""
"","","","","","","","","","","","html-keyboard-response","173","2.0.0","926093","66c8f928d8ff66dbe5b9d119","4","7","null","","","","","","","","","<p style='font-size: 30px;'><strong>Okay</strong></p>","null","neutral_feedback","1","test","17","","","","","","","","","","","","","","","","","","","","","","","",""
"","","","","","","","","","","","html-button-response","174","2.0.0","927022","66c8f928d8ff66dbe5b9d119","4","7","926","","","","","","","","","<img src= ""rock_img/I_Gabbro_03.jpg"" style=""width:8cm; height:8.52cm;""><p>What type of rock is this?</p>","3","class_response","1","test","18","Gabbro","Gabbro","03","true","4","4","","","","","","","","","","","","","","","","","",""
"","","","","","","","","","","","html-keyboard-response","175","2.0.0","927528","66c8f928d8ff66dbe5b9d119","4","7","null","","","","","","","","","<p style='font-size: 30px;'><strong>Okay</strong></p>","null","neutral_feedback","1","test","18","","","","","","","","","","","","","","","","","","","","","","","",""
"","","","","","","","","","","","html-button-response","176","2.0.0","928254","66c8f928d8ff66dbe5b9d119","4","7","723","","","","","","","","","<img src= ""rock_img/I_Pumice_02.jpg"" style=""width:8cm; height:7.3999999999999995cm;""><p>What type of rock is this?</p>","6","class_response","1","test","19","Peridotite","Pumice","02","false","7","8","","","","","","","","","","","","","","","","","",""
"","","","","","","","","","","","html-keyboard-response","177","2.0.0","928756","66c8f928d8ff66dbe5b9d119","4","7","null","","","","","","","","","<p style='font-size: 30px;'><strong>Okay</strong></p>","null","neutral_feedback","1","test","19","","","","","","","","","","","","","","","","","","","","","","","",""
"","","","","","","","","","","","html-button-response","178","2.0.0","929414","66c8f928d8ff66dbe5b9d119","4","7","656","","","","","","","","","<img src= ""rock_img/I_Andesite_01.jpg"" style=""width:8cm; height:5.87cm;""><p>What type of rock is this?</p>","5","class_response","1","test","20","Pegmatite","Andesite","01","false","6","1","","","","","","","","","","","","","","","","","",""
"","","","","","","","","","","","html-keyboard-response","179","2.0.0","929918","66c8f928d8ff66dbe5b9d119","4","7","null","","","","","","","","","<p style='font-size: 30px;'><strong>Okay</strong></p>","null","neutral_feedback","1","test","20","","","","","","","","","","","","","","","","","","","","","","","",""
"","","","","","","","","","","","html-button-response","180","2.0.0","935174","66c8f928d8ff66dbe5b9d119","4","7","5254","","","","","","","","","<img src= ""rock_img/I_Obsidian_12.jpg"" style=""width:8cm; height:6.53cm;""><p>What type of rock is this?</p>","4","class_response","1","test","21","Obsidian","Obsidian","12","true","5","5","","","","","","","","","","","","","","","","","",""
"","","","","","","","","","","","html-keyboard-response","181","2.0.0","935686","66c8f928d8ff66dbe5b9d119","4","7","null","","","","","","","","","<p style='font-size: 30px;'><strong>Okay</strong></p>","null","neutral_feedback","1","test","21","","","","","","","","","","","","","","","","","","","","","","","",""
"","","","","","","","","","","","html-button-response","182","2.0.0","938278","66c8f928d8ff66dbe5b9d119","4","7","2589","","","","","","","","","<img src= ""rock_img/I_Pegmatite_16.jpg"" style=""width:8cm; height:5.8cm;""><p>What type of rock is this?</p>","0","class_response","1","test","22","Andesite","Pegmatite","16","false","1","6","","","","","","","","","","","","","","","","","",""
"","","","","","","","","","","","html-keyboard-response","183","2.0.0","938792","66c8f928d8ff66dbe5b9d119","4","7","null","","","","","","","","","<p style='font-size: 30px;'><strong>Okay</strong></p>","null","neutral_feedback","1","test","22","","","","","","","","","","","","","","","","","","","","","","","",""
"","","","","","","","","","","","html-button-response","184","2.0.0","940286","66c8f928d8ff66dbe5b9d119","4","7","1491","","","","","","","","","<img src= ""rock_img/I_Obsidian_09.jpg"" style=""width:8cm; height:5cm;""><p>What type of rock is this?</p>","1","class_response","1","test","23","Basalt","Obsidian","09","false","2","5","","","","","","","","","","","","","","","","","",""
"","","","","","","","","","","","html-keyboard-response","185","2.0.0","940794","66c8f928d8ff66dbe5b9d119","4","7","null","","","","","","","","","<p style='font-size: 30px;'><strong>Okay</strong></p>","null","neutral_feedback","1","test","23","","","","","","","","","","","","","","","","","","","","","","","",""
"","","","","","","","","","","","html-button-response","186","2.0.0","941550","66c8f928d8ff66dbe5b9d119","4","7","753","","","","","","","","","<img src= ""rock_img/I_Basalt_02.jpg"" style=""width:8cm; height:6.45cm;""><p>What type of rock is this?</p>","2","class_response","1","test","24","Diorite","Basalt","02","false","3","2","","","","","","","","","","","","","","","","","",""
"","","","","","","","","","","","html-keyboard-response","187","2.0.0","942075","66c8f928d8ff66dbe5b9d119","4","7","null","","","","","","","","","<p style='font-size: 30px;'><strong>Okay</strong></p>","null","neutral_feedback","1","test","24","","","","","","","","","","","","","","","","","","","","","","","",""
"","","","","","","","","","","","html-button-response","188","2.0.0","943215","66c8f928d8ff66dbe5b9d119","4","7","1136","","","","","","","","","<img src= ""rock_img/I_Diorite_13.jpg"" style=""width:8cm; height:6.29cm;""><p>What type of rock is this?</p>","6","class_response","1","test","25","Peridotite","Diorite","13","false","7","3","","","","","","","","","","","","","","","","","",""
"","","","","","","","","","","","html-keyboard-response","189","2.0.0","943716","66c8f928d8ff66dbe5b9d119","4","7","null","","","","","","","","","<p style='font-size: 30px;'><strong>Okay</strong></p>","null","neutral_feedback","1","test","25","","","","","","","","","","","","","","","","","","","","","","","",""
"","","","","","","","","","","","html-button-response","190","2.0.0","945134","66c8f928d8ff66dbe5b9d119","4","7","1414","","","","","","","","","<img src= ""rock_img/I_Gabbro_09.jpg"" style=""width:8cm; height:7.279999999999999cm;""><p>What type of rock is this?</p>","7","class_response","1","test","26","Pumice","Gabbro","09","false","8","4","","","","","","","","","","","","","","","","","",""
"","","","","","","","","","","","html-keyboard-response","191","2.0.0","945638","66c8f928d8ff66dbe5b9d119","4","7","null","","","","","","","","","<p style='font-size: 30px;'><strong>Okay</strong></p>","null","neutral_feedback","1","test","26","","","","","","","","","","","","","","","","","","","","","","","",""
"","","","","","","","","","","","html-button-response","192","2.0.0","946798","66c8f928d8ff66dbe5b9d119","4","7","1158","","","","","","","","","<img src= ""rock_img/I_Peridotite_12.jpg"" style=""width:8cm; height:4.54cm;""><p>What type of rock is this?</p>","3","class_response","1","test","27","Gabbro","Peridotite","12","false","4","7","","","","","","","","","","","","","","","","","",""
"","","","","","","","","","","","html-keyboard-response","193","2.0.0","947309","66c8f928d8ff66dbe5b9d119","4","7","null","","","","","","","","","<p style='font-size: 30px;'><strong>Okay</strong></p>","null","neutral_feedback","1","test","27","","","","","","","","","","","","","","","","","","","","","","","",""
"","","","","","","","","","","","html-button-response","194","2.0.0","947814","66c8f928d8ff66dbe5b9d119","4","7","501","","","","","","","","","<img src= ""rock_img/I_Obsidian_04.jpg"" style=""width:8cm; height:6.930000000000001cm;""><p>What type of rock is this?</p>","3","class_response","1","test","28","Gabbro","Obsidian","04","false","4","5","","","","","","","","","","","","","","","","","",""
"","","","","","","","","","","","html-keyboard-response","195","2.0.0","948327","66c8f928d8ff66dbe5b9d119","4","7","null","","","","","","","","","<p style='font-size: 30px;'><strong>Okay</strong></p>","null","neutral_feedback","1","test","28","","","","","","","","","","","","","","","","","","","","","","","",""
"","","","","","","","","","","","html-button-response","196","2.0.0","952030","66c8f928d8ff66dbe5b9d119","4","7","3700","","","","","","","","","<img src= ""rock_img/I_Basalt_04.jpg"" style=""width:8cm; height:7.53cm;""><p>What type of rock is this?</p>","4","class_response","1","test","29","Obsidian","Basalt","04","false","5","2","","","","","","","","","","","","","","","","","",""
"","","","","","","","","","","","html-keyboard-response","197","2.0.0","952546","66c8f928d8ff66dbe5b9d119","4","7","null","","","","","","","","","<p style='font-size: 30px;'><strong>Okay</strong></p>","null","neutral_feedback","1","test","29","","","","","","","","","","","","","","","","","","","","","","","",""
"","","","","","","","","","","","html-button-response","198","2.0.0","953830","66c8f928d8ff66dbe5b9d119","4","7","1281","","","","","","","","","<img src= ""rock_img/I_Pumice_09.jpg"" style=""width:8cm; height:6.44cm;""><p>What type of rock is this?</p>","1","class_response","1","test","30","Basalt","Pumice","09","false","2","8","","","","","","","","","","","","","","","","","",""
"","","","","","","","","","","","html-keyboard-response","199","2.0.0","954332","66c8f928d8ff66dbe5b9d119","4","7","null","","","","","","","","","<p style='font-size: 30px;'><strong>Okay</strong></p>","null","neutral_feedback","1","test","30","","","","","","","","","","","","","","","","","","","","","","","",""
"","","","","","","","","","","","html-button-response","200","2.0.0","954765","66c8f928d8ff66dbe5b9d119","4","7","429","","","","","","","","","<img src= ""rock_img/I_Peridotite_02.jpg"" style=""width:8cm; height:5.859999999999999cm;""><p>What type of rock is this?</p>","1","class_response","1","test","31","Basalt","Peridotite","02","false","2","7","","","","","","","","","","","","","","","","","",""
"","","","","","","","","","","","html-keyboard-response","201","2.0.0","955293","66c8f928d8ff66dbe5b9d119","4","7","null","","","","","","","","","<p style='font-size: 30px;'><strong>Okay</strong></p>","null","neutral_feedback","1","test","31","","","","","","","","","","","","","","","","","","","","","","","",""
"","","","","","","","","","","","html-button-response","202","2.0.0","955677","66c8f928d8ff66dbe5b9d119","4","7","381","","","","","","","","","<img src= ""rock_img/I_Diorite_09.jpg"" style=""width:8cm; height:5.27cm;""><p>What type of rock is this?</p>","2","class_response","1","test","32","Diorite","Diorite","09","true","3","3","","","","","","","","","","","","","","","","","",""
"","","","","","","","","","","","html-keyboard-response","203","2.0.0","956185","66c8f928d8ff66dbe5b9d119","4","7","null","","","","","","","","","<p style='font-size: 30px;'><strong>Okay</strong></p>","null","neutral_feedback","1","test","32","","","","","","","","","","","","","","","","","","","","","","","",""
"","","","","","","","","","","","html-button-response","204","2.0.0","956670","66c8f928d8ff66dbe5b9d119","4","7","481","","","","","","","","","<img src= ""rock_img/I_Basalt_12.jpg"" style=""width:8cm; height:6.010000000000001cm;""><p>What type of rock is this?</p>","6","class_response","1","test","33","Peridotite","Basalt","12","false","7","2","","","","","","","","","","","","","","","","","",""
"","","","","","","","","","","","html-keyboard-response","205","2.0.0","957185","66c8f928d8ff66dbe5b9d119","4","7","null","","","","","","","","","<p style='font-size: 30px;'><strong>Okay</strong></p>","null","neutral_feedback","1","test","33","","","","","","","","","","","","","","","","","","","","","","","",""
"","","","","","","","","","","","html-button-response","206","2.0.0","957726","66c8f928d8ff66dbe5b9d119","4","7","537","","","","","","","","","<img src= ""rock_img/I_Gabbro_15.jpg"" style=""width:8cm; height:6.29cm;""><p>What type of rock is this?</p>","5","class_response","1","test","34","Pegmatite","Gabbro","15","false","6","4","","","","","","","","","","","","","","","","","",""
"","","","","","","","","","","","html-keyboard-response","207","2.0.0","958231","66c8f928d8ff66dbe5b9d119","4","7","null","","","","","","","","","<p style='font-size: 30px;'><strong>Okay</strong></p>","null","neutral_feedback","1","test","34","","","","","","","","","","","","","","","","","","","","","","","",""
"","","","","","","","","","","","html-button-response","208","2.0.0","958806","66c8f928d8ff66dbe5b9d119","4","7","571","","","","","","","","","<img src= ""rock_img/I_Gabbro_08.jpg"" style=""width:8cm; height:5.15cm;""><p>What type of rock is this?</p>","5","class_response","1","test","35","Pegmatite","Gabbro","08","false","6","4","","","","","","","","","","","","","","","","","",""
"","","","","","","","","","","","html-keyboard-response","209","2.0.0","959311","66c8f928d8ff66dbe5b9d119","4","7","null","","","","","","","","","<p style='font-size: 30px;'><strong>Okay</strong></p>","null","neutral_feedback","1","test","35","","","","","","","","","","","","","","","","","","","","","","","",""
"","","","","","","","","","","","html-button-response","210","2.0.0","960013","66c8f928d8ff66dbe5b9d119","4","7","698","","","","","","","","","<img src= ""rock_img/I_Basalt_06.jpg"" style=""width:8cm; height:7.06cm;""><p>What type of rock is this?</p>","0","class_response","1","test","36","Andesite","Basalt","06","false","1","2","","","","","","","","","","","","","","","","","",""
"","","","","","","","","","","","html-keyboard-response","211","2.0.0","960515","66c8f928d8ff66dbe5b9d119","4","7","null","","","","","","","","","<p style='font-size: 30px;'><strong>Okay</strong></p>","null","neutral_feedback","1","test","36","","","","","","","","","","","","","","","","","","","","","","","",""
"","","","","","","","","","","","html-button-response","212","2.0.0","961071","66c8f928d8ff66dbe5b9d119","4","7","552","","","","","","","","","<img src= ""rock_img/I_Pegmatite_07.jpg"" style=""width:8cm; height:6.7cm;""><p>What type of rock is this?</p>","6","class_response","1","test","37","Peridotite","Pegmatite","07","false","7","6","","","","","","","","","","","","","","","","","",""
"","","","","","","","","","","","html-keyboard-response","213","2.0.0","961572","66c8f928d8ff66dbe5b9d119","4","7","null","","","","","","","","","<p style='font-size: 30px;'><strong>Okay</strong></p>","null","neutral_feedback","1","test","37","","","","","","","","","","","","","","","","","","","","","","","",""
"","","","","","","","","","","","html-button-response","214","2.0.0","963287","66c8f928d8ff66dbe5b9d119","4","7","1711","","","","","","","","","<img src= ""rock_img/I_Obsidian_11.jpg"" style=""width:8cm; height:6.05cm;""><p>What type of rock is this?</p>","1","class_response","1","test","38","Basalt","Obsidian","11","false","2","5","","","","","","","","","","","","","","","","","",""
"","","","","","","","","","","","html-keyboard-response","215","2.0.0","963796","66c8f928d8ff66dbe5b9d119","4","7","null","","","","","","","","","<p style='font-size: 30px;'><strong>Okay</strong></p>","null","neutral_feedback","1","test","38","","","","","","","","","","","","","","","","","","","","","","","",""
"","","","","","","","","","","","html-button-response","216","2.0.0","964494","66c8f928d8ff66dbe5b9d119","4","7","694","","","","","","","","","<img src= ""rock_img/I_Pumice_08.jpg"" style=""width:8cm; height:6.67cm;""><p>What type of rock is this?</p>","2","class_response","1","test","39","Diorite","Pumice","08","false","3","8","","","","","","","","","","","","","","","","","",""
"","","","","","","","","","","","html-keyboard-response","217","2.0.0","964996","66c8f928d8ff66dbe5b9d119","4","7","null","","","","","","","","","<p style='font-size: 30px;'><strong>Okay</strong></p>","null","neutral_feedback","1","test","39","","","","","","","","","","","","","","","","","","","","","","","",""
"","","","","","","","","","","","html-button-response","218","2.0.0","965422","66c8f928d8ff66dbe5b9d119","4","7","421","","","","","","","","","<img src= ""rock_img/I_Gabbro_13.jpg"" style=""width:8cm; height:5.08cm;""><p>What type of rock is this?</p>","6","class_response","1","test","40","Peridotite","Gabbro","13","false","7","4","","","","","","","","","","","","","","","","","",""
"","","","","","","","","","","","html-keyboard-response","219","2.0.0","965935","66c8f928d8ff66dbe5b9d119","4","7","null","","","","","","","","","<p style='font-size: 30px;'><strong>Okay</strong></p>","null","neutral_feedback","1","test","40","","","","","","","","","","","","","","","","","","","","","","","",""
"","","","","","","","","","","","html-button-response","220","2.0.0","966246","66c8f928d8ff66dbe5b9d119","4","7","309","","","","","","","","","<img src= ""rock_img/I_Andesite_14.jpg"" style=""width:8cm; height:5.449999999999999cm;""><p>What type of rock is this?</p>","7","class_response","1","test","41","Pumice","Andesite","14","false","8","1","","","","","","","","","","","","","","","","","",""
"","","","","","","","","","","","html-keyboard-response","221","2.0.0","966749","66c8f928d8ff66dbe5b9d119","4","7","null","","","","","","","","","<p style='font-size: 30px;'><strong>Okay</strong></p>","null","neutral_feedback","1","test","41","","","","","","","","","","","","","","","","","","","","","","","",""
"","","","","","","","","","","","html-button-response","222","2.0.0","967389","66c8f928d8ff66dbe5b9d119","4","7","638","","","","","","","","","<img src= ""rock_img/I_Basalt_16.jpg"" style=""width:8cm; height:7.659999999999999cm;""><p>What type of rock is this?</p>","3","class_response","1","test","42","Gabbro","Basalt","16","false","4","2","","","","","","","","","","","","","","","","","",""
"","","","","","","","","","","","html-keyboard-response","223","2.0.0","967896","66c8f928d8ff66dbe5b9d119","4","7","null","","","","","","","","","<p style='font-size: 30px;'><strong>Okay</strong></p>","null","neutral_feedback","1","test","42","","","","","","","","","","","","","","","","","","","","","","","",""
"","","","","","","","","","","","html-button-response","224","2.0.0","968213","66c8f928d8ff66dbe5b9d119","4","7","316","","","","","","","","","<img src= ""rock_img/I_Pegmatite_13.jpg"" style=""width:8cm; height:4.95cm;""><p>What type of rock is this?</p>","6","class_response","1","test","43","Peridotite","Pegmatite","13","false","7","6","","","","","","","","","","","","","","","","","",""
"","","","","","","","","","","","html-keyboard-response","225","2.0.0","968715","66c8f928d8ff66dbe5b9d119","4","7","null","","","","","","","","","<p style='font-size: 30px;'><strong>Okay</strong></p>","null","neutral_feedback","1","test","43","","","","","","","","","","","","","","","","","","","","","","","",""
"","","","","","","","","","","","html-button-response","226","2.0.0","969533","66c8f928d8ff66dbe5b9d119","4","7","817","","","","","","","","","<img src= ""rock_img/I_Andesite_09.jpg"" style=""width:8cm; height:6cm;""><p>What type of rock is this?</p>","5","class_response","1","test","44","Pegmatite","Andesite","09","false","6","1","","","","","","","","","","","","","","","","","",""
"","","","","","","","","","","","html-keyboard-response","227","2.0.0","970035","66c8f928d8ff66dbe5b9d119","4","7","null","","","","","","","","","<p style='font-size: 30px;'><strong>Okay</strong></p>","null","neutral_feedback","1","test","44","","","","","","","","","","","","","","","","","","","","","","","",""
"","","","","","","","","","","","html-button-response","228","2.0.0","970486","66c8f928d8ff66dbe5b9d119","4","7","450","","","","","","","","","<img src= ""rock_img/I_Basalt_01.jpg"" style=""width:8cm; height:7.880000000000001cm;""><p>What type of rock is this?</p>","1","class_response","1","test","45","Basalt","Basalt","01","true","2","2","","","","","","","","","","","","","","","","","",""
"","","","","","","","","","","","html-keyboard-response","229","2.0.0","970997","66c8f928d8ff66dbe5b9d119","4","7","null","","","","","","","","","<p style='font-size: 30px;'><strong>Okay</strong></p>","null","neutral_feedback","1","test","45","","","","","","","","","","","","","","","","","","","","","","","",""
"","","","","","","","","","","","html-button-response","230","2.0.0","971813","66c8f928d8ff66dbe5b9d119","4","7","814","","","","","","","","","<img src= ""rock_img/I_Obsidian_08.jpg"" style=""width:8cm; height:7.39cm;""><p>What type of rock is this?</p>","0","class_response","1","test","46","Andesite","Obsidian","08","false","1","5","","","","","","","","","","","","","","","","","",""
"","","","","","","","","","","","html-keyboard-response","231","2.0.0","972315","66c8f928d8ff66dbe5b9d119","4","7","null","","","","","","","","","<p style='font-size: 30px;'><strong>Okay</strong></p>","null","neutral_feedback","1","test","46","","","","","","","","","","","","","","","","","","","","","","","",""
"","","","","","","","","","","","html-button-response","232","2.0.0","972718","66c8f928d8ff66dbe5b9d119","4","7","398","","","","","","","","","<img src= ""rock_img/I_Pumice_03.jpg"" style=""width:8cm; height:6.64cm;""><p>What type of rock is this?</p>","4","class_response","1","test","47","Obsidian","Pumice","03","false","5","8","","","","","","","","","","","","","","","","","",""
"","","","","","","","","","","","html-keyboard-response","233","2.0.0","973232","66c8f928d8ff66dbe5b9d119","4","7","null","","","","","","","","","<p style='font-size: 30px;'><strong>Okay</strong></p>","null","neutral_feedback","1","test","47","","","","","","","","","","","","","","","","","","","","","","","",""
"","","","","","","","","","","","html-button-response","234","2.0.0","974109","66c8f928d8ff66dbe5b9d119","4","7","874","","","","","","","","","<img src= ""rock_img/I_Gabbro_01.jpg"" style=""width:8cm; height:5.21cm;""><p>What type of rock is this?</p>","6","class_response","1","test","48","Peridotite","Gabbro","01","false","7","4","","","","","","","","","","","","","","","","","",""
"","","","","","","","","","","","html-keyboard-response","235","2.0.0","974623","66c8f928d8ff66dbe5b9d119","4","7","null","","","","","","","","","<p style='font-size: 30px;'><strong>Okay</strong></p>","null","neutral_feedback","1","test","48","","","","","","","","","","","","","","","","","","","","","","","",""
"","","","","","","","","","","","html-button-response","236","2.0.0","994926","66c8f928d8ff66dbe5b9d119","4","7","","","","","","","","","","","","cycle_feedback","","","","","","","","","","","","","","","","","","","","","","","","342.2999999523163","19951.700000047684","",""
"","","","","","","","","","","","html-button-response","238","2.0.0","998509","66c8f928d8ff66dbe5b9d119","4","7","3582","","","","","","","","","","0","start_train","","","","","","","","","","","","","","","","","","","","","","","","","","",""
"","","","","","","","","","","","html-button-response","240","2.0.0","1150229","66c8f928d8ff66dbe5b9d119","4","7","151717","","","","","","","","","<img src= ""rock_img/I_Pumice_06.jpg"" style=""width:8cm; height:6.9399999999999995cm;""><p>What type of rock is this?</p>","1","class_response","2","train","1","Basalt","Pumice","06","false","2","8","","","","","","","","","","","","","","","","","",""
"","","","","","","","","","","","html-button-response","241","2.0.0","1153917","66c8f928d8ff66dbe5b9d119","4","7","3687","","","","","","","","","<img src= rock_img/I_Pumice_06.jpg style=""width:8cm; height:6.9399999999999995cm;""><p style='font-size: 30px; color: red;'><strong>Incorrect!</strong></p><p style='font-size: 30px;'><strong>This rock is pumice</strong></p>","0","corr_feedback","2","train","1","","","","","","","","","","","","","","","","","","","","","","","",""
"","","","","","","","","","","","html-button-response","242","2.0.0","1210430","66c8f928d8ff66dbe5b9d119","4","7","56511","","","","","","","","","<img src= ""rock_img/I_Diorite_15.jpg"" style=""width:8cm; height:5.54cm;""><p>What type of rock is this?</p>","2","class_response","2","train","2","Diorite","Diorite","15","true","3","3","","","","","","","","","","","","","","","","","",""
"","","","","","","","","","","","html-button-response","243","2.0.0","1218558","66c8f928d8ff66dbe5b9d119","4","7","8126","","","","","","","","","<img src= rock_img/I_Diorite_15.jpg style=""width:8cm; height:5.54cm;""><p style='font-size: 30px; color: green;'><strong>Correct!</strong></p><p style='font-size: 30px;'><strong>This rock is diorite</strong></p>","0","corr_feedback","2","train","2","","","","","","","","","","","","","","","","","","","","","","","",""
"","","","","","","","","","","","html-button-response","244","2.0.0","1230741","66c8f928d8ff66dbe5b9d119","4","7","12182","","","","","","","","","<img src= ""rock_img/I_Andesite_07.jpg"" style=""width:8cm; height:5.93cm;""><p>What type of rock is this?</p>","0","class_response","2","train","3","Andesite","Andesite","07","true","1","1","","","","","","","","","","","","","","","","","",""
"","","","","","","","","","","","html-button-response","245","2.0.0","1232438","66c8f928d8ff66dbe5b9d119","4","7","1695","","","","","","","","","<img src= rock_img/I_Andesite_07.jpg style=""width:8cm; height:5.93cm;""><p style='font-size: 30px; color: green;'><strong>Correct!</strong></p><p style='font-size: 30px;'><strong>This rock is andesite</strong></p>","0","corr_feedback","2","train","3","","","","","","","","","","","","","","","","","","","","","","","",""
"","","","","","","","","","","","html-button-response","246","2.0.0","1269885","66c8f928d8ff66dbe5b9d119","4","7","37447","","","","","","","","","<img src= ""rock_img/I_Pegmatite_08.jpg"" style=""width:8cm; height:7.68cm;""><p>What type of rock is this?</p>","6","class_response","2","train","4","Peridotite","Pegmatite","08","false","7","6","","","","","","","","","","","","","","","","","",""
"","","","","","","","","","","","html-button-response","247","2.0.0","1274621","66c8f928d8ff66dbe5b9d119","4","7","4735","","","","","","","","","<img src= rock_img/I_Pegmatite_08.jpg style=""width:8cm; height:7.68cm;""><p style='font-size: 30px; color: red;'><strong>Incorrect!</strong></p><p style='font-size: 30px;'><strong>This rock is pegmatite</strong></p>","0","corr_feedback","2","train","4","","","","","","","","","","","","","","","","","","","","","","","",""
"","","","","","","","","","","","html-button-response","248","2.0.0","1303877","66c8f928d8ff66dbe5b9d119","4","7","29255","","","","","","","","","<img src= ""rock_img/I_Diorite_07.jpg"" style=""width:8cm; height:5.239999999999999cm;""><p>What type of rock is this?</p>","2","class_response","2","train","5","Diorite","Diorite","07","true","3","3","","","","","","","","","","","","","","","","","",""
"","","","","","","","","","","","html-button-response","249","2.0.0","1307205","66c8f928d8ff66dbe5b9d119","4","7","3326","","","","","","","","","<img src= rock_img/I_Diorite_07.jpg style=""width:8cm; height:5.239999999999999cm;""><p style='font-size: 30px; color: green;'><strong>Correct!</strong></p><p style='font-size: 30px;'><strong>This rock is diorite</strong></p>","0","corr_feedback","2","train","5","","","","","","","","","","","","","","","","","","","","","","","",""
"","","","","","","","","","","","html-button-response","250","2.0.0","1320053","66c8f928d8ff66dbe5b9d119","4","7","12847","","","","","","","","","<img src= ""rock_img/I_Obsidian_10.jpg"" style=""width:8cm; height:6.260000000000001cm;""><p>What type of rock is this?</p>","4","class_response","2","train","6","Obsidian","Obsidian","10","true","5","5","","","","","","","","","","","","","","","","","",""
"","","","","","","","","","","","html-button-response","251","2.0.0","1321181","66c8f928d8ff66dbe5b9d119","4","7","1127","","","","","","","","","<img src= rock_img/I_Obsidian_10.jpg style=""width:8cm; height:6.260000000000001cm;""><p style='font-size: 30px; color: green;'><strong>Correct!</strong></p><p style='font-size: 30px;'><strong>This rock is obsidian</strong></p>","0","corr_feedback","2","train","6","","","","","","","","","","","","","","","","","","","","","","","",""
"","","","","","","","","","","","html-button-response","252","2.0.0","1325509","66c8f928d8ff66dbe5b9d119","4","7","4326","","","","","","","","","<img src= ""rock_img/I_Gabbro_12.jpg"" style=""width:8cm; height:7.800000000000001cm;""><p>What type of rock is this?</p>","3","class_response","2","train","7","Gabbro","Gabbro","12","true","4","4","","","","","","","","","","","","","","","","","",""
"","","","","","","","","","","","html-button-response","253","2.0.0","1326460","66c8f928d8ff66dbe5b9d119","4","7","950","","","","","","","","","<img src= rock_img/I_Gabbro_12.jpg style=""width:8cm; height:7.800000000000001cm;""><p style='font-size: 30px; color: green;'><strong>Correct!</strong></p><p style='font-size: 30px;'><strong>This rock is gabbro</strong></p>","0","corr_feedback","2","train","7","","","","","","","","","","","","","","","","","","","","","","","",""
"","","","","","","","","","","","html-button-response","254","2.0.0","1340309","66c8f928d8ff66dbe5b9d119","4","7","13846","","","","","","","","","<img src= ""rock_img/I_Pumice_13.jpg"" style=""width:8cm; height:8.200000000000001cm;""><p>What type of rock is this?</p>","1","class_response","2","train","8","Basalt","Pumice","13","false","2","8","","","","","","","","","","","","","","","","","",""
"","","","","","","","","","","","html-button-response","255","2.0.0","1343925","66c8f928d8ff66dbe5b9d119","4","7","3614","","","","","","","","","<img src= rock_img/I_Pumice_13.jpg style=""width:8cm; height:8.200000000000001cm;""><p style='font-size: 30px; color: red;'><strong>Incorrect!</strong></p><p style='font-size: 30px;'><strong>This rock is pumice</strong></p>","0","corr_feedback","2","train","8","","","","","","","","","","","","","","","","","","","","","","","",""
"","","","","","","","","","","","html-button-response","256","2.0.0","1358374","66c8f928d8ff66dbe5b9d119","4","7","14447","","","","","","","","","<img src= ""rock_img/I_Basalt_10.jpg"" style=""width:8cm; height:5.85cm;""><p>What type of rock is this?</p>","7","class_response","2","train","9","Pumice","Basalt","10","false","8","2","","","","","","","","","","","","","","","","","",""
"","","","","","","","","","","","html-button-response","257","2.0.0","1364061","66c8f928d8ff66dbe5b9d119","4","7","5684","","","","","","","","","<img src= rock_img/I_Basalt_10.jpg style=""width:8cm; height:5.85cm;""><p style='font-size: 30px; color: red;'><strong>Incorrect!</strong></p><p style='font-size: 30px;'><strong>This rock is basalt</strong></p>","0","corr_feedback","2","train","9","","","","","","","","","","","","","","","","","","","","","","","",""
"","","","","","","","","","","","html-button-response","258","2.0.0","1373405","66c8f928d8ff66dbe5b9d119","4","7","9343","","","","","","","","","<img src= ""rock_img/I_Peridotite_04.jpg"" style=""width:8cm; height:6.680000000000001cm;""><p>What type of rock is this?</p>","6","class_response","2","train","10","Peridotite","Peridotite","04","true","7","7","","","","","","","","","","","","","","","","","",""
"","","","","","","","","","","","html-button-response","259","2.0.0","1376709","66c8f928d8ff66dbe5b9d119","4","7","3303","","","","","","","","","<img src= rock_img/I_Peridotite_04.jpg style=""width:8cm; height:6.680000000000001cm;""><p style='font-size: 30px; color: green;'><strong>Correct!</strong></p><p style='font-size: 30px;'><strong>This rock is peridotite</strong></p>","0","corr_feedback","2","train","10","","","","","","","","","","","","","","","","","","","","","","","",""
"","","","","","","","","","","","html-button-response","260","2.0.0","1383477","66c8f928d8ff66dbe5b9d119","4","7","6767","","","","","","","","","<img src= ""rock_img/I_Basalt_09.jpg"" style=""width:8cm; height:6.2cm;""><p>What type of rock is this?</p>","1","class_response","2","train","11","Basalt","Basalt","09","true","2","2","","","","","","","","","","","","","","","","","",""
"","","","","","","","","","","","html-button-response","261","2.0.0","1385285","66c8f928d8ff66dbe5b9d119","4","7","1807","","","","","","","","","<img src= rock_img/I_Basalt_09.jpg style=""width:8cm; height:6.2cm;""><p style='font-size: 30px; color: green;'><strong>Correct!</strong></p><p style='font-size: 30px;'><strong>This rock is basalt</strong></p>","0","corr_feedback","2","train","11","","","","","","","","","","","","","","","","","","","","","","","",""
"","","","","","","","","","","","html-button-response","262","2.0.0","1409069","66c8f928d8ff66dbe5b9d119","4","7","23783","","","","","","","","","<img src= ""rock_img/I_Pegmatite_03.jpg"" style=""width:8cm; height:5.239999999999999cm;""><p>What type of rock is this?</p>","5","class_response","2","train","12","Pegmatite","Pegmatite","03","true","6","6","","","","","","","","","","","","","","","","","",""
"","","","","","","","","","","","html-button-response","263","2.0.0","1410596","66c8f928d8ff66dbe5b9d119","4","7","1526","","","","","","","","","<img src= rock_img/I_Pegmatite_03.jpg style=""width:8cm; height:5.239999999999999cm;""><p style='font-size: 30px; color: green;'><strong>Correct!</strong></p><p style='font-size: 30px;'><strong>This rock is pegmatite</strong></p>","0","corr_feedback","2","train","12","","","","","","","","","","","","","","","","","","","","","","","",""
"","","","","","","","","","","","html-button-response","265","2.0.0","1413637","66c8f928d8ff66dbe5b9d119","4","7","3039","","","","","","","","","","0","start_train","","","","","","","","","","","","","","","","","","","","","","","","","","",""
"","","","","","","","","","","","html-button-response","266","2.0.0","1420101","66c8f928d8ff66dbe5b9d119","4","7","","","","","","","","","","","","cat_selection","2","train","1","","","","","","","6053.399999976158","408.6999999284744","1","5","Pegmatite","Peridotite","","","","","","","","","","","",""
"","","","","","","","","","","","paired-cat-display","267","1.0.0","1499472","66c8f928d8ff66dbe5b9d119","4","7","","","","","","","","","","","","paired_cat_display","2","train","1","","","","","","","","","","","","","","","18230.299999952316","61135","THIS HAS DOTS AND SPOTS.","THIS IS DARKER AND HAS A SLIPPERY SURFACE.","","","","","",""
"","","","","","","","","","","","html-button-response","268","2.0.0","1502652","66c8f928d8ff66dbe5b9d119","4","7","","","","","","","","","","","","cat_selection","2","train","2","","","","","","","2875","302.89999997615814","2","6","Andesite","Obsidian","","","","","","","","","","","",""
"","","","","","","","","","","","paired-cat-display","269","1.0.0","1547528","66c8f928d8ff66dbe5b9d119","4","7","","","","","","","","","","","","paired_cat_display","2","train","2","","","","","","","","","","","","","HAS DARKER SHADES.","","8486.899999976158","36383.60000002384","","","THIS IS LIGHTER.","","","","",""
"","","","","","","","","","","","html-button-response","270","2.0.0","1549524","66c8f928d8ff66dbe5b9d119","4","7","","","","","","","","","","","","cat_selection","2","train","3","","","","","","","1522.8000000715256","471.89999997615814","3","7","Basalt","Pegmatite","","","","","","","","","","","",""
"","","","","","","","","","","","paired-cat-display","271","1.0.0","1581177","66c8f928d8ff66dbe5b9d119","4","7","","","","","","","","","","","","paired_cat_display","2","train","3","","","","","","","","","","","","","","","6047.100000023842","25600.800000071526","","","","THIS IS GREENER.","","","THIS HAS MORE SPOTS.",""
"","","","","","","","","","","","html-button-response","273","2.0.0","1586412","66c8f928d8ff66dbe5b9d119","4","7","5233","","","","","","","","","","0","start_test","","","","","","","","","","","","","","","","","","","","","","","","","","",""
"","","","","","","","","","","","html-button-response","274","2.0.0","1588981","66c8f928d8ff66dbe5b9d119","4","7","2568","","","","","","","","","<img src= ""rock_img/I_Andesite_05.jpg"" style=""width:8cm; height:4.12cm;""><p>What type of rock is this?</p>","2","class_response","2","test","1","Diorite","Andesite","05","false","3","1","","","","","","","","","","","","","","","","","",""
"","","","","","","","","","","","html-keyboard-response","275","2.0.0","1589498","66c8f928d8ff66dbe5b9d119","4","7","null","","","","","","","","","<p style='font-size: 30px;'><strong>Okay</strong></p>","null","neutral_feedback","2","test","1","","","","","","","","","","","","","","","","","","","","","","","",""
"","","","","","","","","","","","html-button-response","276","2.0.0","1602492","66c8f928d8ff66dbe5b9d119","4","7","12993","","","","","","","","","<img src= ""rock_img/I_Pegmatite_11.jpg"" style=""width:8cm; height:8.14cm;""><p>What type of rock is this?</p>","5","class_response","2","test","2","Pegmatite","Pegmatite","11","true","6","6","","","","","","","","","","","","","","","","","",""
"","","","","","","","","","","","html-keyboard-response","277","2.0.0","1602999","66c8f928d8ff66dbe5b9d119","4","7","null","","","","","","","","","<p style='font-size: 30px;'><strong>Okay</strong></p>","null","neutral_feedback","2","test","2","","","","","","","","","","","","","","","","","","","","","","","",""
"","","","","","","","","","","","html-button-response","278","2.0.0","1612221","66c8f928d8ff66dbe5b9d119","4","7","9219","","","","","","","","","<img src= ""rock_img/I_Andesite_16.jpg"" style=""width:8cm; height:6.010000000000001cm;""><p>What type of rock is this?</p>","0","class_response","2","test","3","Andesite","Andesite","16","true","1","1","","","","","","","","","","","","","","","","","",""
