"width","height","webaudio","browser","browser_version","mobile","os","fullscreen","vsync_rate","webcam","microphone","trial_type","trial_index","plugin_version","time_elapsed","subjID","condition","stimID","rt","url","success","value","timeout","failed_images","failed_audio","failed_video","view_history","stimulus","response","trialType","cycle","phase","trial","resp","cat","token","corr","resp_num","cat_num","ref_cat_num","paired_cat_num","time_obs","ref_cat","paired_cat","ref_prob_dist","paired_prob_dist","text_Diorite","text_Pumice","time_resp","text_Gabbro","text_Pegmatite","text_Andesite","text_Peridotite","time_fb1","time_fb2"
"1920","911","true","chrome","130.0.0","false","Windows 10","true","368.55","true","true","browser-check","0","2.0.0","170","66622736b3fcb6b8f3c04fdd","3","8","","","","","","","","","","","","","","","","","","","","","","","","","","","","","","","","","","","","",""
"","","","","","","","","","","","external-html","1","2.0.0","5321","66622736b3fcb6b8f3c04fdd","3","8","5056","consent_form.html","","","","","","","","","","","","","","","","","","","","","","","","","","","","","","","","","","",""
"","","","","","","","","","","","fullscreen","2","2.0.0","7679","66622736b3fcb6b8f3c04fdd","3","8","1356","","true","","","","","","","","","","","","","","","","","","","","","","","","","","","","","","","","","",""
"","","","","","","","","","","","call-function","3","2.0.0","7680","66622736b3fcb6b8f3c04fdd","3","8","","","","{}","","","","","","","","","","","","","","","","","","","","","","","","","","","","","","","","",""
"","","","","","","","","","","","preload","4","2.0.0","9738","66622736b3fcb6b8f3c04fdd","3","8","","","true","","false","[]","[]","[]","","","","","","","","","","","","","","","","","","","","","","","","","","","","",""
"","","","","","","","","","","","instructions","5","2.0.0","32139","66622736b3fcb6b8f3c04fdd","3","8","22399","","","","","","","","[{""page_index"":0,""viewing_time"":5050},{""page_index"":1,""viewing_time"":4994},{""page_index"":2,""viewing_time"":12354}]","","","","","","","","","","","","","","","","","","","","","","","","","","","",""
"","","","","","","","","","","","html-button-response","6","2.0.0","37727","66622736b3fcb6b8f3c04fdd","3","8","5587","","","","","","","","","","0","start_test","","","","","","","","","","","","","","","","","","","","","","","","",""
"","","","","","","","","","","","html-button-response","7","2.0.0","42697","66622736b3fcb6b8f3c04fdd","3","8","4969","","","","","","","","","<img src= ""rock_img/I_Peridotite_14.jpg"" style=""width:8cm; height:5.3cm;""><p>What type of rock is this?</p>","5","class_response","0","test","1","Pegmatite","Peridotite","14","false","6","7","","","","","","","","","","","","","","","",""
"","","","","","","","","","","","html-keyboard-response","8","2.0.0","43203","66622736b3fcb6b8f3c04fdd","3","8","null","","","","","","","","","<p style='font-size: 30px;'><strong>Okay</strong></p>","null","neutral_feedback","0","test","1","","","","","","","","","","","","","","","","","","","","","",""
"","","","","","","","","","","","html-button-response","9","2.0.0","47019","66622736b3fcb6b8f3c04fdd","3","8","3815","","","","","","","","","<img src= ""rock_img/I_Pumice_03.jpg"" style=""width:8cm; height:6.64cm;""><p>What type of rock is this?</p>","1","class_response","0","test","2","Basalt","Pumice","03","false","2","8","","","","","","","","","","","","","","","",""
"","","","","","","","","","","","html-keyboard-response","10","2.0.0","47522","66622736b3fcb6b8f3c04fdd","3","8","null","","","","","","","","","<p style='font-size: 30px;'><strong>Okay</strong></p>","null","neutral_feedback","0","test","2","","","","","","","","","","","","","","","","","","","","","",""
"","","","","","","","","","","","html-button-response","11","2.0.0","50193","66622736b3fcb6b8f3c04fdd","3","8","2670","","","","","","","","","<img src= ""rock_img/I_Andesite_05.jpg"" style=""width:8cm; height:4.12cm;""><p>What type of rock is this?</p>","6","class_response","0","test","3","Peridotite","Andesite","05","false","7","1","","","","","","","","","","","","","","","",""
"","","","","","","","","","","","html-keyboard-response","12","2.0.0","50694","66622736b3fcb6b8f3c04fdd","3","8","null","","","","","","","","","<p style='font-size: 30px;'><strong>Okay</strong></p>","null","neutral_feedback","0","test","3","","","","","","","","","","","","","","","","","","","","","",""
"","","","","","","","","","","","html-button-response","13","2.0.0","54007","66622736b3fcb6b8f3c04fdd","3","8","3312","","","","","","","","","<img src= ""rock_img/I_Obsidian_07.jpg"" style=""width:8cm; height:4.76cm;""><p>What type of rock is this?</p>","0","class_response","0","test","4","Andesite","Obsidian","07","false","1","5","","","","","","","","","","","","","","","",""
"","","","","","","","","","","","html-keyboard-response","14","2.0.0","54510","66622736b3fcb6b8f3c04fdd","3","8","null","","","","","","","","","<p style='font-size: 30px;'><strong>Okay</strong></p>","null","neutral_feedback","0","test","4","","","","","","","","","","","","","","","","","","","","","",""
"","","","","","","","","","","","html-button-response","15","2.0.0","55999","66622736b3fcb6b8f3c04fdd","3","8","1488","","","","","","","","","<img src= ""rock_img/I_Pumice_09.jpg"" style=""width:8cm; height:6.44cm;""><p>What type of rock is this?</p>","2","class_response","0","test","5","Diorite","Pumice","09","false","3","8","","","","","","","","","","","","","","","",""
"","","","","","","","","","","","html-keyboard-response","16","2.0.0","56501","66622736b3fcb6b8f3c04fdd","3","8","null","","","","","","","","","<p style='font-size: 30px;'><strong>Okay</strong></p>","null","neutral_feedback","0","test","5","","","","","","","","","","","","","","","","","","","","","",""
"","","","","","","","","","","","html-button-response","17","2.0.0","59853","66622736b3fcb6b8f3c04fdd","3","8","3351","","","","","","","","","<img src= ""rock_img/I_Peridotite_13.jpg"" style=""width:8cm; height:7.58cm;""><p>What type of rock is this?</p>","3","class_response","0","test","6","Gabbro","Peridotite","13","false","4","7","","","","","","","","","","","","","","","",""
"","","","","","","","","","","","html-keyboard-response","18","2.0.0","60356","66622736b3fcb6b8f3c04fdd","3","8","null","","","","","","","","","<p style='font-size: 30px;'><strong>Okay</strong></p>","null","neutral_feedback","0","test","6","","","","","","","","","","","","","","","","","","","","","",""
"","","","","","","","","","","","html-button-response","19","2.0.0","65019","66622736b3fcb6b8f3c04fdd","3","8","4661","","","","","","","","","<img src= ""rock_img/I_Pegmatite_06.jpg"" style=""width:8cm; height:5.17cm;""><p>What type of rock is this?</p>","7","class_response","0","test","7","Pumice","Pegmatite","06","false","8","6","","","","","","","","","","","","","","","",""
"","","","","","","","","","","","html-keyboard-response","20","2.0.0","65519","66622736b3fcb6b8f3c04fdd","3","8","null","","","","","","","","","<p style='font-size: 30px;'><strong>Okay</strong></p>","null","neutral_feedback","0","test","7","","","","","","","","","","","","","","","","","","","","","",""
"","","","","","","","","","","","html-button-response","21","2.0.0","66573","66622736b3fcb6b8f3c04fdd","3","8","1052","","","","","","","","","<img src= ""rock_img/I_Obsidian_14.jpg"" style=""width:8cm; height:7.64cm;""><p>What type of rock is this?</p>","4","class_response","0","test","8","Obsidian","Obsidian","14","true","5","5","","","","","","","","","","","","","","","",""
"","","","","","","","","","","","html-keyboard-response","22","2.0.0","67075","66622736b3fcb6b8f3c04fdd","3","8","null","","","","","","","","","<p style='font-size: 30px;'><strong>Okay</strong></p>","null","neutral_feedback","0","test","8","","","","","","","","","","","","","","","","","","","","","",""
"","","","","","","","","","","","html-button-response","23","2.0.0","71669","66622736b3fcb6b8f3c04fdd","3","8","4593","","","","","","","","","<img src= ""rock_img/I_Pegmatite_10.jpg"" style=""width:8cm; height:4.16cm;""><p>What type of rock is this?</p>","3","class_response","0","test","9","Gabbro","Pegmatite","10","false","4","6","","","","","","","","","","","","","","","",""
"","","","","","","","","","","","html-keyboard-response","24","2.0.0","72172","66622736b3fcb6b8f3c04fdd","3","8","null","","","","","","","","","<p style='font-size: 30px;'><strong>Okay</strong></p>","null","neutral_feedback","0","test","9","","","","","","","","","","","","","","","","","","","","","",""
"","","","","","","","","","","","html-button-response","25","2.0.0","73042","66622736b3fcb6b8f3c04fdd","3","8","870","","","","","","","","","<img src= ""rock_img/I_Peridotite_12.jpg"" style=""width:8cm; height:4.54cm;""><p>What type of rock is this?</p>","1","class_response","0","test","10","Basalt","Peridotite","12","false","2","7","","","","","","","","","","","","","","","",""
"","","","","","","","","","","","html-keyboard-response","26","2.0.0","73544","66622736b3fcb6b8f3c04fdd","3","8","null","","","","","","","","","<p style='font-size: 30px;'><strong>Okay</strong></p>","null","neutral_feedback","0","test","10","","","","","","","","","","","","","","","","","","","","","",""
"","","","","","","","","","","","html-button-response","27","2.0.0","74653","66622736b3fcb6b8f3c04fdd","3","8","1108","","","","","","","","","<img src= ""rock_img/I_Obsidian_11.jpg"" style=""width:8cm; height:6.05cm;""><p>What type of rock is this?</p>","4","class_response","0","test","11","Obsidian","Obsidian","11","true","5","5","","","","","","","","","","","","","","","",""
"","","","","","","","","","","","html-keyboard-response","28","2.0.0","75155","66622736b3fcb6b8f3c04fdd","3","8","null","","","","","","","","","<p style='font-size: 30px;'><strong>Okay</strong></p>","null","neutral_feedback","0","test","11","","","","","","","","","","","","","","","","","","","","","",""
"","","","","","","","","","","","html-button-response","29","2.0.0","76800","66622736b3fcb6b8f3c04fdd","3","8","1645","","","","","","","","","<img src= ""rock_img/I_Diorite_02.jpg"" style=""width:8cm; height:6.27cm;""><p>What type of rock is this?</p>","7","class_response","0","test","12","Pumice","Diorite","02","false","8","3","","","","","","","","","","","","","","","",""
"","","","","","","","","","","","html-keyboard-response","30","2.0.0","77302","66622736b3fcb6b8f3c04fdd","3","8","null","","","","","","","","","<p style='font-size: 30px;'><strong>Okay</strong></p>","null","neutral_feedback","0","test","12","","","","","","","","","","","","","","","","","","","","","",""
"","","","","","","","","","","","html-button-response","31","2.0.0","78747","66622736b3fcb6b8f3c04fdd","3","8","1444","","","","","","","","","<img src= ""rock_img/I_Peridotite_16.jpg"" style=""width:8cm; height:6.989999999999999cm;""><p>What type of rock is this?</p>","0","class_response","0","test","13","Andesite","Peridotite","16","false","1","7","","","","","","","","","","","","","","","",""
"","","","","","","","","","","","html-keyboard-response","32","2.0.0","79249","66622736b3fcb6b8f3c04fdd","3","8","null","","","","","","","","","<p style='font-size: 30px;'><strong>Okay</strong></p>","null","neutral_feedback","0","test","13","","","","","","","","","","","","","","","","","","","","","",""
"","","","","","","","","","","","html-button-response","33","2.0.0","80498","66622736b3fcb6b8f3c04fdd","3","8","1249","","","","","","","","","<img src= ""rock_img/I_Gabbro_14.jpg"" style=""width:8cm; height:8.48cm;""><p>What type of rock is this?</p>","5","class_response","0","test","14","Pegmatite","Gabbro","14","false","6","4","","","","","","","","","","","","","","","",""
"","","","","","","","","","","","html-keyboard-response","34","2.0.0","81001","66622736b3fcb6b8f3c04fdd","3","8","null","","","","","","","","","<p style='font-size: 30px;'><strong>Okay</strong></p>","null","neutral_feedback","0","test","14","","","","","","","","","","","","","","","","","","","","","",""
"","","","","","","","","","","","html-button-response","35","2.0.0","82381","66622736b3fcb6b8f3c04fdd","3","8","1379","","","","","","","","","<img src= ""rock_img/I_Gabbro_01.jpg"" style=""width:8cm; height:5.21cm;""><p>What type of rock is this?</p>","2","class_response","0","test","15","Diorite","Gabbro","01","false","3","4","","","","","","","","","","","","","","","",""
"","","","","","","","","","","","html-keyboard-response","36","2.0.0","82882","66622736b3fcb6b8f3c04fdd","3","8","null","","","","","","","","","<p style='font-size: 30px;'><strong>Okay</strong></p>","null","neutral_feedback","0","test","15","","","","","","","","","","","","","","","","","","","","","",""
"","","","","","","","","","","","html-button-response","37","2.0.0","84007","66622736b3fcb6b8f3c04fdd","3","8","1124","","","","","","","","","<img src= ""rock_img/I_Andesite_16.jpg"" style=""width:8cm; height:6.010000000000001cm;""><p>What type of rock is this?</p>","6","class_response","0","test","16","Peridotite","Andesite","16","false","7","1","","","","","","","","","","","","","","","",""
"","","","","","","","","","","","html-keyboard-response","38","2.0.0","84509","66622736b3fcb6b8f3c04fdd","3","8","null","","","","","","","","","<p style='font-size: 30px;'><strong>Okay</strong></p>","null","neutral_feedback","0","test","16","","","","","","","","","","","","","","","","","","","","","",""
"","","","","","","","","","","","html-button-response","39","2.0.0","85773","66622736b3fcb6b8f3c04fdd","3","8","1263","","","","","","","","","<img src= ""rock_img/I_Basalt_02.jpg"" style=""width:8cm; height:6.45cm;""><p>What type of rock is this?</p>","1","class_response","0","test","17","Basalt","Basalt","02","true","2","2","","","","","","","","","","","","","","","",""
"","","","","","","","","","","","html-keyboard-response","40","2.0.0","86276","66622736b3fcb6b8f3c04fdd","3","8","null","","","","","","","","","<p style='font-size: 30px;'><strong>Okay</strong></p>","null","neutral_feedback","0","test","17","","","","","","","","","","","","","","","","","","","","","",""
"","","","","","","","","","","","html-button-response","41","2.0.0","87531","66622736b3fcb6b8f3c04fdd","3","8","1254","","","","","","","","","<img src= ""rock_img/I_Obsidian_06.jpg"" style=""width:8cm; height:6.8cm;""><p>What type of rock is this?</p>","4","class_response","0","test","18","Obsidian","Obsidian","06","true","5","5","","","","","","","","","","","","","","","",""
"","","","","","","","","","","","html-keyboard-response","42","2.0.0","88034","66622736b3fcb6b8f3c04fdd","3","8","null","","","","","","","","","<p style='font-size: 30px;'><strong>Okay</strong></p>","null","neutral_feedback","0","test","18","","","","","","","","","","","","","","","","","","","","","",""
"","","","","","","","","","","","html-button-response","43","2.0.0","90264","66622736b3fcb6b8f3c04fdd","3","8","2230","","","","","","","","","<img src= ""rock_img/I_Pegmatite_16.jpg"" style=""width:8cm; height:5.8cm;""><p>What type of rock is this?</p>","2","class_response","0","test","19","Diorite","Pegmatite","16","false","3","6","","","","","","","","","","","","","","","",""
"","","","","","","","","","","","html-keyboard-response","44","2.0.0","90767","66622736b3fcb6b8f3c04fdd","3","8","null","","","","","","","","","<p style='font-size: 30px;'><strong>Okay</strong></p>","null","neutral_feedback","0","test","19","","","","","","","","","","","","","","","","","","","","","",""
"","","","","","","","","","","","html-button-response","45","2.0.0","91947","66622736b3fcb6b8f3c04fdd","3","8","1179","","","","","","","","","<img src= ""rock_img/I_Basalt_04.jpg"" style=""width:8cm; height:7.53cm;""><p>What type of rock is this?</p>","3","class_response","0","test","20","Gabbro","Basalt","04","false","4","2","","","","","","","","","","","","","","","",""
"","","","","","","","","","","","html-keyboard-response","46","2.0.0","92447","66622736b3fcb6b8f3c04fdd","3","8","null","","","","","","","","","<p style='font-size: 30px;'><strong>Okay</strong></p>","null","neutral_feedback","0","test","20","","","","","","","","","","","","","","","","","","","","","",""
"","","","","","","","","","","","html-button-response","47","2.0.0","94016","66622736b3fcb6b8f3c04fdd","3","8","1568","","","","","","","","","<img src= ""rock_img/I_Gabbro_16.jpg"" style=""width:8cm; height:6.44cm;""><p>What type of rock is this?</p>","5","class_response","0","test","21","Pegmatite","Gabbro","16","false","6","4","","","","","","","","","","","","","","","",""
"","","","","","","","","","","","html-keyboard-response","48","2.0.0","94519","66622736b3fcb6b8f3c04fdd","3","8","null","","","","","","","","","<p style='font-size: 30px;'><strong>Okay</strong></p>","null","neutral_feedback","0","test","21","","","","","","","","","","","","","","","","","","","","","",""
"","","","","","","","","","","","html-button-response","49","2.0.0","96298","66622736b3fcb6b8f3c04fdd","3","8","1779","","","","","","","","","<img src= ""rock_img/I_Basalt_11.jpg"" style=""width:8cm; height:5.359999999999999cm;""><p>What type of rock is this?</p>","1","class_response","0","test","22","Basalt","Basalt","11","true","2","2","","","","","","","","","","","","","","","",""
"","","","","","","","","","","","html-keyboard-response","50","2.0.0","96802","66622736b3fcb6b8f3c04fdd","3","8","null","","","","","","","","","<p style='font-size: 30px;'><strong>Okay</strong></p>","null","neutral_feedback","0","test","22","","","","","","","","","","","","","","","","","","","","","",""
"","","","","","","","","","","","html-button-response","51","2.0.0","98666","66622736b3fcb6b8f3c04fdd","3","8","1864","","","","","","","","","<img src= ""rock_img/I_Pumice_14.jpg"" style=""width:8cm; height:6.39cm;""><p>What type of rock is this?</p>","0","class_response","0","test","23","Andesite","Pumice","14","false","1","8","","","","","","","","","","","","","","","",""
"","","","","","","","","","","","html-keyboard-response","52","2.0.0","99169","66622736b3fcb6b8f3c04fdd","3","8","null","","","","","","","","","<p style='font-size: 30px;'><strong>Okay</strong></p>","null","neutral_feedback","0","test","23","","","","","","","","","","","","","","","","","","","","","",""
"","","","","","","","","","","","html-button-response","53","2.0.0","101245","66622736b3fcb6b8f3c04fdd","3","8","2076","","","","","","","","","<img src= ""rock_img/I_Basalt_05.jpg"" style=""width:8cm; height:8.18cm;""><p>What type of rock is this?</p>","1","class_response","0","test","24","Basalt","Basalt","05","true","2","2","","","","","","","","","","","","","","","",""
"","","","","","","","","","","","html-keyboard-response","54","2.0.0","101746","66622736b3fcb6b8f3c04fdd","3","8","null","","","","","","","","","<p style='font-size: 30px;'><strong>Okay</strong></p>","null","neutral_feedback","0","test","24","","","","","","","","","","","","","","","","","","","","","",""
"","","","","","","","","","","","html-button-response","55","2.0.0","102941","66622736b3fcb6b8f3c04fdd","3","8","1194","","","","","","","","","<img src= ""rock_img/I_Basalt_14.jpg"" style=""width:8cm; height:5.82cm;""><p>What type of rock is this?</p>","6","class_response","0","test","25","Peridotite","Basalt","14","false","7","2","","","","","","","","","","","","","","","",""
"","","","","","","","","","","","html-keyboard-response","56","2.0.0","103443","66622736b3fcb6b8f3c04fdd","3","8","null","","","","","","","","","<p style='font-size: 30px;'><strong>Okay</strong></p>","null","neutral_feedback","0","test","25","","","","","","","","","","","","","","","","","","","","","",""
"","","","","","","","","","","","html-button-response","57","2.0.0","104456","66622736b3fcb6b8f3c04fdd","3","8","1013","","","","","","","","","<img src= ""rock_img/I_Pegmatite_05.jpg"" style=""width:8cm; height:7.300000000000001cm;""><p>What type of rock is this?</p>","3","class_response","0","test","26","Gabbro","Pegmatite","05","false","4","6","","","","","","","","","","","","","","","",""
"","","","","","","","","","","","html-keyboard-response","58","2.0.0","104960","66622736b3fcb6b8f3c04fdd","3","8","null","","","","","","","","","<p style='font-size: 30px;'><strong>Okay</strong></p>","null","neutral_feedback","0","test","26","","","","","","","","","","","","","","","","","","","","","",""
"","","","","","","","","","","","html-button-response","59","2.0.0","105932","66622736b3fcb6b8f3c04fdd","3","8","972","","","","","","","","","<img src= ""rock_img/I_Gabbro_08.jpg"" style=""width:8cm; height:5.15cm;""><p>What type of rock is this?</p>","2","class_response","0","test","27","Diorite","Gabbro","08","false","3","4","","","","","","","","","","","","","","","",""
"","","","","","","","","","","","html-keyboard-response","60","2.0.0","106435","66622736b3fcb6b8f3c04fdd","3","8","null","","","","","","","","","<p style='font-size: 30px;'><strong>Okay</strong></p>","null","neutral_feedback","0","test","27","","","","","","","","","","","","","","","","","","","","","",""
"","","","","","","","","","","","html-button-response","61","2.0.0","107356","66622736b3fcb6b8f3c04fdd","3","8","921","","","","","","","","","<img src= ""rock_img/I_Gabbro_13.jpg"" style=""width:8cm; height:5.08cm;""><p>What type of rock is this?</p>","7","class_response","0","test","28","Pumice","Gabbro","13","false","8","4","","","","","","","","","","","","","","","",""
"","","","","","","","","","","","html-keyboard-response","62","2.0.0","107859","66622736b3fcb6b8f3c04fdd","3","8","null","","","","","","","","","<p style='font-size: 30px;'><strong>Okay</strong></p>","null","neutral_feedback","0","test","28","","","","","","","","","","","","","","","","","","","","","",""
"","","","","","","","","","","","html-button-response","63","2.0.0","108706","66622736b3fcb6b8f3c04fdd","3","8","846","","","","","","","","","<img src= ""rock_img/I_Diorite_16.jpg"" style=""width:8cm; height:6.74cm;""><p>What type of rock is this?</p>","1","class_response","0","test","29","Basalt","Diorite","16","false","2","3","","","","","","","","","","","","","","","",""
"","","","","","","","","","","","html-keyboard-response","64","2.0.0","109209","66622736b3fcb6b8f3c04fdd","3","8","null","","","","","","","","","<p style='font-size: 30px;'><strong>Okay</strong></p>","null","neutral_feedback","0","test","29","","","","","","","","","","","","","","","","","","","","","",""
"","","","","","","","","","","","html-button-response","65","2.0.0","110451","66622736b3fcb6b8f3c04fdd","3","8","1241","","","","","","","","","<img src= ""rock_img/I_Obsidian_09.jpg"" style=""width:8cm; height:5cm;""><p>What type of rock is this?</p>","4","class_response","0","test","30","Obsidian","Obsidian","09","true","5","5","","","","","","","","","","","","","","","",""
"","","","","","","","","","","","html-keyboard-response","66","2.0.0","110954","66622736b3fcb6b8f3c04fdd","3","8","null","","","","","","","","","<p style='font-size: 30px;'><strong>Okay</strong></p>","null","neutral_feedback","0","test","30","","","","","","","","","","","","","","","","","","","","","",""
"","","","","","","","","","","","html-button-response","67","2.0.0","111950","66622736b3fcb6b8f3c04fdd","3","8","996","","","","","","","","","<img src= ""rock_img/I_Basalt_01.jpg"" style=""width:8cm; height:7.880000000000001cm;""><p>What type of rock is this?</p>","1","class_response","0","test","31","Basalt","Basalt","01","true","2","2","","","","","","","","","","","","","","","",""
"","","","","","","","","","","","html-keyboard-response","68","2.0.0","112453","66622736b3fcb6b8f3c04fdd","3","8","null","","","","","","","","","<p style='font-size: 30px;'><strong>Okay</strong></p>","null","neutral_feedback","0","test","31","","","","","","","","","","","","","","","","","","","","","",""
"","","","","","","","","","","","html-button-response","69","2.0.0","113537","66622736b3fcb6b8f3c04fdd","3","8","1083","","","","","","","","","<img src= ""rock_img/I_Pegmatite_13.jpg"" style=""width:8cm; height:4.95cm;""><p>What type of rock is this?</p>","2","class_response","0","test","32","Diorite","Pegmatite","13","false","3","6","","","","","","","","","","","","","","","",""
"","","","","","","","","","","","html-keyboard-response","70","2.0.0","114039","66622736b3fcb6b8f3c04fdd","3","8","null","","","","","","","","","<p style='font-size: 30px;'><strong>Okay</strong></p>","null","neutral_feedback","0","test","32","","","","","","","","","","","","","","","","","","","","","",""
"","","","","","","","","","","","html-button-response","71","2.0.0","115192","66622736b3fcb6b8f3c04fdd","3","8","1152","","","","","","","","","<img src= ""rock_img/I_Gabbro_03.jpg"" style=""width:8cm; height:8.52cm;""><p>What type of rock is this?</p>","5","class_response","0","test","33","Pegmatite","Gabbro","03","false","6","4","","","","","","","","","","","","","","","",""
"","","","","","","","","","","","html-keyboard-response","72","2.0.0","115695","66622736b3fcb6b8f3c04fdd","3","8","null","","","","","","","","","<p style='font-size: 30px;'><strong>Okay</strong></p>","null","neutral_feedback","0","test","33","","","","","","","","","","","","","","","","","","","","","",""
"","","","","","","","","","","","html-button-response","73","2.0.0","116584","66622736b3fcb6b8f3c04fdd","3","8","889","","","","","","","","","<img src= ""rock_img/I_Diorite_14.jpg"" style=""width:8cm; height:5.71cm;""><p>What type of rock is this?</p>","6","class_response","0","test","34","Peridotite","Diorite","14","false","7","3","","","","","","","","","","","","","","","",""
"","","","","","","","","","","","html-keyboard-response","74","2.0.0","117086","66622736b3fcb6b8f3c04fdd","3","8","null","","","","","","","","","<p style='font-size: 30px;'><strong>Okay</strong></p>","null","neutral_feedback","0","test","34","","","","","","","","","","","","","","","","","","","","","",""
"","","","","","","","","","","","html-button-response","75","2.0.0","117974","66622736b3fcb6b8f3c04fdd","3","8","887","","","","","","","","","<img src= ""rock_img/I_Peridotite_04.jpg"" style=""width:8cm; height:6.680000000000001cm;""><p>What type of rock is this?</p>","3","class_response","0","test","35","Gabbro","Peridotite","04","false","4","7","","","","","","","","","","","","","","","",""
"","","","","","","","","","","","html-keyboard-response","76","2.0.0","118477","66622736b3fcb6b8f3c04fdd","3","8","null","","","","","","","","","<p style='font-size: 30px;'><strong>Okay</strong></p>","null","neutral_feedback","0","test","35","","","","","","","","","","","","","","","","","","","","","",""
"","","","","","","","","","","","html-button-response","77","2.0.0","120625","66622736b3fcb6b8f3c04fdd","3","8","2146","","","","","","","","","<img src= ""rock_img/I_Pegmatite_11.jpg"" style=""width:8cm; height:8.14cm;""><p>What type of rock is this?</p>","0","class_response","0","test","36","Andesite","Pegmatite","11","false","1","6","","","","","","","","","","","","","","","",""
"","","","","","","","","","","","html-keyboard-response","78","2.0.0","121127","66622736b3fcb6b8f3c04fdd","3","8","null","","","","","","","","","<p style='font-size: 30px;'><strong>Okay</strong></p>","null","neutral_feedback","0","test","36","","","","","","","","","","","","","","","","","","","","","",""
"","","","","","","","","","","","html-button-response","79","2.0.0","122757","66622736b3fcb6b8f3c04fdd","3","8","1628","","","","","","","","","<img src= ""rock_img/I_Diorite_13.jpg"" style=""width:8cm; height:6.29cm;""><p>What type of rock is this?</p>","7","class_response","0","test","37","Pumice","Diorite","13","false","8","3","","","","","","","","","","","","","","","",""
"","","","","","","","","","","","html-keyboard-response","80","2.0.0","123258","66622736b3fcb6b8f3c04fdd","3","8","null","","","","","","","","","<p style='font-size: 30px;'><strong>Okay</strong></p>","null","neutral_feedback","0","test","37","","","","","","","","","","","","","","","","","","","","","",""
"","","","","","","","","","","","html-button-response","81","2.0.0","124281","66622736b3fcb6b8f3c04fdd","3","8","1022","","","","","","","","","<img src= ""rock_img/I_Diorite_06.jpg"" style=""width:8cm; height:6.03cm;""><p>What type of rock is this?</p>","7","class_response","0","test","38","Pumice","Diorite","06","false","8","3","","","","","","","","","","","","","","","",""
"","","","","","","","","","","","html-keyboard-response","82","2.0.0","124785","66622736b3fcb6b8f3c04fdd","3","8","null","","","","","","","","","<p style='font-size: 30px;'><strong>Okay</strong></p>","null","neutral_feedback","0","test","38","","","","","","","","","","","","","","","","","","","","","",""
"","","","","","","","","","","","html-button-response","83","2.0.0","125985","66622736b3fcb6b8f3c04fdd","3","8","1199","","","","","","","","","<img src= ""rock_img/I_Pumice_15.jpg"" style=""width:8cm; height:7.86cm;""><p>What type of rock is this?</p>","2","class_response","0","test","39","Diorite","Pumice","15","false","3","8","","","","","","","","","","","","","","","",""
"","","","","","","","","","","","html-keyboard-response","84","2.0.0","126488","66622736b3fcb6b8f3c04fdd","3","8","null","","","","","","","","","<p style='font-size: 30px;'><strong>Okay</strong></p>","null","neutral_feedback","0","test","39","","","","","","","","","","","","","","","","","","","","","",""
"","","","","","","","","","","","html-button-response","85","2.0.0","127743","66622736b3fcb6b8f3c04fdd","3","8","1254","","","","","","","","","<img src= ""rock_img/I_Diorite_11.jpg"" style=""width:8cm; height:7.11cm;""><p>What type of rock is this?</p>","1","class_response","0","test","40","Basalt","Diorite","11","false","2","3","","","","","","","","","","","","","","","",""
"","","","","","","","","","","","html-keyboard-response","86","2.0.0","128246","66622736b3fcb6b8f3c04fdd","3","8","null","","","","","","","","","<p style='font-size: 30px;'><strong>Okay</strong></p>","null","neutral_feedback","0","test","40","","","","","","","","","","","","","","","","","","","","","",""
"","","","","","","","","","","","html-button-response","87","2.0.0","129909","66622736b3fcb6b8f3c04fdd","3","8","1662","","","","","","","","","<img src= ""rock_img/I_Andesite_10.jpg"" style=""width:8cm; height:4.16cm;""><p>What type of rock is this?</p>","6","class_response","0","test","41","Peridotite","Andesite","10","false","7","1","","","","","","","","","","","","","","","",""
"","","","","","","","","","","","html-keyboard-response","88","2.0.0","130410","66622736b3fcb6b8f3c04fdd","3","8","null","","","","","","","","","<p style='font-size: 30px;'><strong>Okay</strong></p>","null","neutral_feedback","0","test","41","","","","","","","","","","","","","","","","","","","","","",""
"","","","","","","","","","","","html-button-response","89","2.0.0","131495","66622736b3fcb6b8f3c04fdd","3","8","1084","","","","","","","","","<img src= ""rock_img/I_Andesite_01.jpg"" style=""width:8cm; height:5.87cm;""><p>What type of rock is this?</p>","5","class_response","0","test","42","Pegmatite","Andesite","01","false","6","1","","","","","","","","","","","","","","","",""
"","","","","","","","","","","","html-keyboard-response","90","2.0.0","131998","66622736b3fcb6b8f3c04fdd","3","8","null","","","","","","","","","<p style='font-size: 30px;'><strong>Okay</strong></p>","null","neutral_feedback","0","test","42","","","","","","","","","","","","","","","","","","","","","",""
"","","","","","","","","","","","html-button-response","91","2.0.0","133151","66622736b3fcb6b8f3c04fdd","3","8","1152","","","","","","","","","<img src= ""rock_img/I_Obsidian_05.jpg"" style=""width:8cm; height:6.33cm;""><p>What type of rock is this?</p>","4","class_response","0","test","43","Obsidian","Obsidian","05","true","5","5","","","","","","","","","","","","","","","",""
"","","","","","","","","","","","html-keyboard-response","92","2.0.0","133654","66622736b3fcb6b8f3c04fdd","3","8","null","","","","","","","","","<p style='font-size: 30px;'><strong>Okay</strong></p>","null","neutral_feedback","0","test","43","","","","","","","","","","","","","","","","","","","","","",""
"","","","","","","","","","","","html-button-response","93","2.0.0","134392","66622736b3fcb6b8f3c04fdd","3","8","738","","","","","","","","","<img src= ""rock_img/I_Peridotite_10.jpg"" style=""width:8cm; height:5.390000000000001cm;""><p>What type of rock is this?</p>","7","class_response","0","test","44","Pumice","Peridotite","10","false","8","7","","","","","","","","","","","","","","","",""
"","","","","","","","","","","","html-keyboard-response","94","2.0.0","134893","66622736b3fcb6b8f3c04fdd","3","8","null","","","","","","","","","<p style='font-size: 30px;'><strong>Okay</strong></p>","null","neutral_feedback","0","test","44","","","","","","","","","","","","","","","","","","","","","",""
"","","","","","","","","","","","html-button-response","95","2.0.0","135532","66622736b3fcb6b8f3c04fdd","3","8","639","","","","","","","","","<img src= ""rock_img/I_Andesite_07.jpg"" style=""width:8cm; height:5.93cm;""><p>What type of rock is this?</p>","3","class_response","0","test","45","Gabbro","Andesite","07","false","4","1","","","","","","","","","","","","","","","",""
"","","","","","","","","","","","html-keyboard-response","96","2.0.0","136034","66622736b3fcb6b8f3c04fdd","3","8","null","","","","","","","","","<p style='font-size: 30px;'><strong>Okay</strong></p>","null","neutral_feedback","0","test","45","","","","","","","","","","","","","","","","","","","","","",""
"","","","","","","","","","","","html-button-response","97","2.0.0","137142","66622736b3fcb6b8f3c04fdd","3","8","1108","","","","","","","","","<img src= ""rock_img/I_Andesite_04.jpg"" style=""width:8cm; height:5.96cm;""><p>What type of rock is this?</p>","0","class_response","0","test","46","Andesite","Andesite","04","true","1","1","","","","","","","","","","","","","","","",""
"","","","","","","","","","","","html-keyboard-response","98","2.0.0","137645","66622736b3fcb6b8f3c04fdd","3","8","null","","","","","","","","","<p style='font-size: 30px;'><strong>Okay</strong></p>","null","neutral_feedback","0","test","46","","","","","","","","","","","","","","","","","","","","","",""
"","","","","","","","","","","","html-button-response","99","2.0.0","138854","66622736b3fcb6b8f3c04fdd","3","8","1208","","","","","","","","","<img src= ""rock_img/I_Pumice_06.jpg"" style=""width:8cm; height:6.9399999999999995cm;""><p>What type of rock is this?</p>","2","class_response","0","test","47","Diorite","Pumice","06","false","3","8","","","","","","","","","","","","","","","",""
"","","","","","","","","","","","html-keyboard-response","100","2.0.0","139356","66622736b3fcb6b8f3c04fdd","3","8","null","","","","","","","","","<p style='font-size: 30px;'><strong>Okay</strong></p>","null","neutral_feedback","0","test","47","","","","","","","","","","","","","","","","","","","","","",""
"","","","","","","","","","","","html-button-response","101","2.0.0","140161","66622736b3fcb6b8f3c04fdd","3","8","804","","","","","","","","","<img src= ""rock_img/I_Pumice_04.jpg"" style=""width:8cm; height:6.819999999999999cm;""><p>What type of rock is this?</p>","2","class_response","0","test","48","Diorite","Pumice","04","false","3","8","","","","","","","","","","","","","","","",""
"","","","","","","","","","","","html-keyboard-response","102","2.0.0","140664","66622736b3fcb6b8f3c04fdd","3","8","null","","","","","","","","","<p style='font-size: 30px;'><strong>Okay</strong></p>","null","neutral_feedback","0","test","48","","","","","","","","","","","","","","","","","","","","","",""
"","","","","","","","","","","","instructions","103","2.0.0","155755","66622736b3fcb6b8f3c04fdd","3","8","15077","","","","","","","","[{""page_index"":0,""viewing_time"":12131},{""page_index"":1,""viewing_time"":2946}]","","","","","","","","","","","","","","","","","","","","","","","","","","","",""
"","","","","","","","","","","","html-button-response","104","2.0.0","156958","66622736b3fcb6b8f3c04fdd","3","8","1203","","","","","","","","","","0","start_train","","","","","","","","","","","","","","","","","","","","","","","","",""
"","","","","","","","","","","","html-button-response","106","2.0.0","176195","66622736b3fcb6b8f3c04fdd","3","8","19235","","","","","","","","","<img src= ""rock_img/I_Basalt_08.jpg"" style=""width:8cm; height:10.44cm;""><p>What type of rock is this?</p>","1","class_response","1","train","1","Basalt","Basalt","08","true","2","2","","","","","","","","","","","","","","","",""
"","","","","","","","","","","","html-button-response","107","2.0.0","180156","66622736b3fcb6b8f3c04fdd","3","8","3961","","","","","","","","","<img src= rock_img/I_Basalt_08.jpg style=""width:8cm; height:10.44cm;""><p style='font-size: 30px; color: green;'><strong>Correct!</strong></p><p style='font-size: 30px;'><strong>This rock is basalt</strong></p>","0","corr_feedback","1","train","1","","","","","","","","","","","","","","","","","","","","","",""
"","","","","","","","","","","","html-button-response","108","2.0.0","182570","66622736b3fcb6b8f3c04fdd","3","8","2413","","","","","","","","","<img src= ""rock_img/I_Obsidian_12.jpg"" style=""width:8cm; height:6.53cm;""><p>What type of rock is this?</p>","4","class_response","1","train","2","Obsidian","Obsidian","12","true","5","5","","","","","","","","","","","","","","","",""
"","","","","","","","","","","","html-button-response","109","2.0.0","183524","66622736b3fcb6b8f3c04fdd","3","8","953","","","","","","","","","<img src= rock_img/I_Obsidian_12.jpg style=""width:8cm; height:6.53cm;""><p style='font-size: 30px; color: green;'><strong>Correct!</strong></p><p style='font-size: 30px;'><strong>This rock is obsidian</strong></p>","0","corr_feedback","1","train","2","","","","","","","","","","","","","","","","","","","","","",""
"","","","","","","","","","","","html-button-response","110","2.0.0","201019","66622736b3fcb6b8f3c04fdd","3","8","17493","","","","","","","","","<img src= ""rock_img/I_Gabbro_11.jpg"" style=""width:8cm; height:6.2cm;""><p>What type of rock is this?</p>","2","class_response","1","train","3","Diorite","Gabbro","11","false","3","4","","","","","","","","","","","","","","","",""
"","","","","","","","","","","","html-button-response","111","2.0.0","239586","66622736b3fcb6b8f3c04fdd","3","8","38567","","","","","","","","","<img src= rock_img/I_Gabbro_11.jpg style=""width:8cm; height:6.2cm;""><p style='font-size: 30px; color: red;'><strong>Incorrect!</strong></p><p style='font-size: 30px;'><strong>This rock is gabbro</strong></p>","0","corr_feedback","1","train","3","","","","","","","","","","","","","","","","","","","","","",""
"","","","","","","","","","","","html-button-response","112","2.0.0","258994","66622736b3fcb6b8f3c04fdd","3","8","19407","","","","","","","","","<img src= ""rock_img/I_Peridotite_02.jpg"" style=""width:8cm; height:5.859999999999999cm;""><p>What type of rock is this?</p>","6","class_response","1","train","4","Peridotite","Peridotite","02","true","7","7","","","","","","","","","","","","","","","",""
"","","","","","","","","","","","html-button-response","113","2.0.0","261276","66622736b3fcb6b8f3c04fdd","3","8","2281","","","","","","","","","<img src= rock_img/I_Peridotite_02.jpg style=""width:8cm; height:5.859999999999999cm;""><p style='font-size: 30px; color: green;'><strong>Correct!</strong></p><p style='font-size: 30px;'><strong>This rock is peridotite</strong></p>","0","corr_feedback","1","train","4","","","","","","","","","","","","","","","","","","","","","",""
"","","","","","","","","","","","html-button-response","114","2.0.0","279784","66622736b3fcb6b8f3c04fdd","3","8","18507","","","","","","","","","<img src= ""rock_img/I_Andesite_14.jpg"" style=""width:8cm; height:5.449999999999999cm;""><p>What type of rock is this?</p>","0","class_response","1","train","5","Andesite","Andesite","14","true","1","1","","","","","","","","","","","","","","","",""
"","","","","","","","","","","","html-button-response","115","2.0.0","287026","66622736b3fcb6b8f3c04fdd","3","8","7241","","","","","","","","","<img src= rock_img/I_Andesite_14.jpg style=""width:8cm; height:5.449999999999999cm;""><p style='font-size: 30px; color: green;'><strong>Correct!</strong></p><p style='font-size: 30px;'><strong>This rock is andesite</strong></p>","0","corr_feedback","1","train","5","","","","","","","","","","","","","","","","","","","","","",""
"","","","","","","","","","","","html-button-response","116","2.0.0","302472","66622736b3fcb6b8f3c04fdd","3","8","15445","","","","","","","","","<img src= ""rock_img/I_Andesite_09.jpg"" style=""width:8cm; height:6cm;""><p>What type of rock is this?</p>","2","class_response","1","train","6","Diorite","Andesite","09","false","3","1","","","","","","","","","","","","","","","",""
"","","","","","","","","","","","html-button-response","117","2.0.0","341246","66622736b3fcb6b8f3c04fdd","3","8","38773","","","","","","","","","<img src= rock_img/I_Andesite_09.jpg style=""width:8cm; height:6cm;""><p style='font-size: 30px; color: red;'><strong>Incorrect!</strong></p><p style='font-size: 30px;'><strong>This rock is andesite</strong></p>","0","corr_feedback","1","train","6","","","","","","","","","","","","","","","","","","","","","",""
"","","","","","","","","","","","html-button-response","118","2.0.0","364634","66622736b3fcb6b8f3c04fdd","3","8","23387","","","","","","","","","<img src= ""rock_img/I_Peridotite_08.jpg"" style=""width:8cm; height:6.7cm;""><p>What type of rock is this?</p>","6","class_response","1","train","7","Peridotite","Peridotite","08","true","7","7","","","","","","","","","","","","","","","",""
"","","","","","","","","","","","html-button-response","119","2.0.0","365962","66622736b3fcb6b8f3c04fdd","3","8","1328","","","","","","","","","<img src= rock_img/I_Peridotite_08.jpg style=""width:8cm; height:6.7cm;""><p style='font-size: 30px; color: green;'><strong>Correct!</strong></p><p style='font-size: 30px;'><strong>This rock is peridotite</strong></p>","0","corr_feedback","1","train","7","","","","","","","","","","","","","","","","","","","","","",""
"","","","","","","","","","","","html-button-response","120","2.0.0","389842","66622736b3fcb6b8f3c04fdd","3","8","23879","","","","","","","","","<img src= ""rock_img/I_Diorite_15.jpg"" style=""width:8cm; height:5.54cm;""><p>What type of rock is this?</p>","5","class_response","1","train","8","Pegmatite","Diorite","15","false","6","3","","","","","","","","","","","","","","","",""
"","","","","","","","","","","","html-button-response","121","2.0.0","399482","66622736b3fcb6b8f3c04fdd","3","8","9639","","","","","","","","","<img src= rock_img/I_Diorite_15.jpg style=""width:8cm; height:5.54cm;""><p style='font-size: 30px; color: red;'><strong>Incorrect!</strong></p><p style='font-size: 30px;'><strong>This rock is diorite</strong></p>","0","corr_feedback","1","train","8","","","","","","","","","","","","","","","","","","","","","",""
"","","","","","","","","","","","html-button-response","122","2.0.0","400482","66622736b3fcb6b8f3c04fdd","3","8","999","","","","","","","","","<img src= ""rock_img/I_Obsidian_08.jpg"" style=""width:8cm; height:7.39cm;""><p>What type of rock is this?</p>","4","class_response","1","train","9","Obsidian","Obsidian","08","true","5","5","","","","","","","","","","","","","","","",""
"","","","","","","","","","","","html-button-response","123","2.0.0","401130","66622736b3fcb6b8f3c04fdd","3","8","647","","","","","","","","","<img src= rock_img/I_Obsidian_08.jpg style=""width:8cm; height:7.39cm;""><p style='font-size: 30px; color: green;'><strong>Correct!</strong></p><p style='font-size: 30px;'><strong>This rock is obsidian</strong></p>","0","corr_feedback","1","train","9","","","","","","","","","","","","","","","","","","","","","",""
"","","","","","","","","","","","html-button-response","124","2.0.0","422222","66622736b3fcb6b8f3c04fdd","3","8","21091","","","","","","","","","<img src= ""rock_img/I_Pegmatite_08.jpg"" style=""width:8cm; height:7.68cm;""><p>What type of rock is this?</p>","5","class_response","1","train","10","Pegmatite","Pegmatite","08","true","6","6","","","","","","","","","","","","","","","",""
"","","","","","","","","","","","html-button-response","125","2.0.0","423488","66622736b3fcb6b8f3c04fdd","3","8","1265","","","","","","","","","<img src= rock_img/I_Pegmatite_08.jpg style=""width:8cm; height:7.68cm;""><p style='font-size: 30px; color: green;'><strong>Correct!</strong></p><p style='font-size: 30px;'><strong>This rock is pegmatite</strong></p>","0","corr_feedback","1","train","10","","","","","","","","","","","","","","","","","","","","","",""
"","","","","","","","","","","","html-button-response","126","2.0.0","445336","66622736b3fcb6b8f3c04fdd","3","8","21847","","","","","","","","","<img src= ""rock_img/I_Pumice_13.jpg"" style=""width:8cm; height:8.200000000000001cm;""><p>What type of rock is this?</p>","7","class_response","1","train","11","Pumice","Pumice","13","true","8","8","","","","","","","","","","","","","","","",""
"","","","","","","","","","","","html-button-response","127","2.0.0","446173","66622736b3fcb6b8f3c04fdd","3","8","837","","","","","","","","","<img src= rock_img/I_Pumice_13.jpg style=""width:8cm; height:8.200000000000001cm;""><p style='font-size: 30px; color: green;'><strong>Correct!</strong></p><p style='font-size: 30px;'><strong>This rock is pumice</strong></p>","0","corr_feedback","1","train","11","","","","","","","","","","","","","","","","","","","","","",""
"","","","","","","","","","","","html-button-response","128","2.0.0","464318","66622736b3fcb6b8f3c04fdd","3","8","18144","","","","","","","","","<img src= ""rock_img/I_Gabbro_10.jpg"" style=""width:8cm; height:5.680000000000001cm;""><p>What type of rock is this?</p>","1","class_response","1","train","12","Basalt","Gabbro","10","false","2","4","","","","","","","","","","","","","","","",""
"","","","","","","","","","","","html-button-response","129","2.0.0","492498","66622736b3fcb6b8f3c04fdd","3","8","28179","","","","","","","","","<img src= rock_img/I_Gabbro_10.jpg style=""width:8cm; height:5.680000000000001cm;""><p style='font-size: 30px; color: red;'><strong>Incorrect!</strong></p><p style='font-size: 30px;'><strong>This rock is gabbro</strong></p>","0","corr_feedback","1","train","12","","","","","","","","","","","","","","","","","","","","","",""
"","","","","","","","","","","","instructions","130","2.0.0","546616","66622736b3fcb6b8f3c04fdd","3","8","54117","","","","","","","","[{""page_index"":0,""viewing_time"":4755},{""page_index"":1,""viewing_time"":23142},{""page_index"":2,""viewing_time"":21784},{""page_index"":3,""viewing_time"":4436}]","","","","","","","","","","","","","","","","","","","","","","","","","","","",""
"","","","","","","","","","","","html-button-response","131","2.0.0","547848","66622736b3fcb6b8f3c04fdd","3","8","1231","","","","","","","","","","0","start_train","","","","","","","","","","","","","","","","","","","","","","","","",""
"","","","","","","","","","","","html-button-response","132","2.0.0","561900","66622736b3fcb6b8f3c04fdd","3","8","","","","","","","","","","","","cat_selection","1","train","1","","","","","","","3","8","14051.200000047684","Diorite","Pumice","[0.13068181818181818,0.0625,0.15340909090909088,0.15340909090909088,0.039772727272727265,0.15340909090909088,0.15340909090909088,0.15340909090909088]","[0.0498068946053242,0.2568525693604675,null,0.06449552082410677,0.05889775479324288,0.06457265539539818,0.1549385387555457,0.3504360662659148]","","","","","","","","",""
"","","","","","","","","","","","paired-cat-display","133","1.0.0","720342","66622736b3fcb6b8f3c04fdd","3","8","","","","","","","","","","","","paired_cat_display","1","train","1","","","","","","","","","53276.39999997616","","","","","Looks like salt and pepper with a mix of light and dark colors. It's heavy and solid with no holes.","Is light and full of tiny holes like a sponge. It can float on water.","105163.09999996424","","","","","",""
"","","","","","","","","","","","html-button-response","134","2.0.0","723864","66622736b3fcb6b8f3c04fdd","3","8","","","","","","","","","","","","cat_selection","1","train","2","","","","","","","4","6","3521","Gabbro","Pegmatite","[0.13068181818181818,0.0625,0.15340909090909088,0.15340909090909088,0.039772727272727265,0.15340909090909088,0.15340909090909088,0.15340909090909088]","[0.05299216556457884,0.05192776051737066,0.263111111067072,null,0.062030104849355464,0.364373889029393,0.05587176136193669,0.1496932076102933]","","","","","","","","",""
"","","","","","","","","","","","paired-cat-display","135","1.0.0","927055","66622736b3fcb6b8f3c04fdd","3","8","","","","","","","","","","","","paired_cat_display","1","train","2","","","","","","","","","14931","","","","","","","188258.70000004768","dark coarse-grained with visibal crystals","has large crystals. often contains big chunks of color","","","",""
"","","","","","","","","","","","html-button-response","136","2.0.0","928141","66622736b3fcb6b8f3c04fdd","3","8","","","","","","","","","","","","cat_selection","1","train","3","","","","","","","1","7","1084.9000000357628","Andesite","Peridotite","[0.13068181818181818,0.0625,0.15340909090909088,0.15340909090909088,0.039772727272727265,0.15340909090909088,0.15340909090909088,0.15340909090909088]","[null,0.05496030698730767,0.044163660014689896,0.17897340788681138,0.059552545971136045,0.16927108169331864,0.4313084977536237,0.06177049969311272]","","","","","","","","",""
"","","","","","","","","","","","paired-cat-display","137","1.0.0","1030507","66622736b3fcb6b8f3c04fdd","3","8","","","","","","","","","","","","paired_cat_display","1","train","3","","","","","","","","","11822","","","","","","","90542.19999998808","","","grey to light colored with small crystals and fine grained texture.","greenish and coarse grained with visible crystals","",""
"","","","","","","","","","","","instructions","138","2.0.0","1049091","66622736b3fcb6b8f3c04fdd","3","8","18583","","","","","","","","[{""page_index"":0,""viewing_time"":13249},{""page_index"":1,""viewing_time"":5334}]","","","","","","","","","","","","","","","","","","","","","","","","","","","",""
"","","","","","","","","","","","html-button-response","139","2.0.0","1051629","66622736b3fcb6b8f3c04fdd","3","8","2537","","","","","","","","","","0","start_test","","","","","","","","","","","","","","","","","","","","","","","","",""
"","","","","","","","","","","","html-button-response","140","2.0.0","1086874","66622736b3fcb6b8f3c04fdd","3","8","35245","","","","","","","","","<img src= ""rock_img/I_Basalt_04.jpg"" style=""width:8cm; height:7.53cm;""><p>What type of rock is this?</p>","1","class_response","1","test","1","Basalt","Basalt","04","true","2","2","","","","","","","","","","","","","","","",""
"","","","","","","","","","","","html-keyboard-response","141","2.0.0","1087376","66622736b3fcb6b8f3c04fdd","3","8","null","","","","","","","","","<p style='font-size: 30px;'><strong>Okay</strong></p>","null","neutral_feedback","1","test","1","","","","","","","","","","","","","","","","","","","","","",""
"","","","","","","","","","","","html-button-response","142","2.0.0","1115726","66622736b3fcb6b8f3c04fdd","3","8","28349","","","","","","","","","<img src= ""rock_img/I_Gabbro_14.jpg"" style=""width:8cm; height:8.48cm;""><p>What type of rock is this?</p>","3","class_response","1","test","2","Gabbro","Gabbro","14","true","4","4","","","","","","","","","","","","","","","",""
"","","","","","","","","","","","html-keyboard-response","143","2.0.0","1116228","66622736b3fcb6b8f3c04fdd","3","8","null","","","","","","","","","<p style='font-size: 30px;'><strong>Okay</strong></p>","null","neutral_feedback","1","test","2","","","","","","","","","","","","","","","","","","","","","",""
"","","","","","","","","","","","html-button-response","144","2.0.0","1139895","66622736b3fcb6b8f3c04fdd","3","8","23667","","","","","","","","","<img src= ""rock_img/I_Pegmatite_16.jpg"" style=""width:8cm; height:5.8cm;""><p>What type of rock is this?</p>","5","class_response","1","test","3","Pegmatite","Pegmatite","16","true","6","6","","","","","","","","","","","","","","","",""
"","","","","","","","","","","","html-keyboard-response","145","2.0.0","1140405","66622736b3fcb6b8f3c04fdd","3","8","null","","","","","","","","","<p style='font-size: 30px;'><strong>Okay</strong></p>","null","neutral_feedback","1","test","3","","","","","","","","","","","","","","","","","","","","","",""
"","","","","","","","","","","","html-button-response","146","2.0.0","1154699","66622736b3fcb6b8f3c04fdd","3","8","14293","","","","","","","","","<img src= ""rock_img/I_Diorite_14.jpg"" style=""width:8cm; height:5.71cm;""><p>What type of rock is this?</p>","2","class_response","1","test","4","Diorite","Diorite","14","true","3","3","","","","","","","","","","","","","","","",""
"","","","","","","","","","","","html-keyboard-response","147","2.0.0","1155201","66622736b3fcb6b8f3c04fdd","3","8","null","","","","","","","","","<p style='font-size: 30px;'><strong>Okay</strong></p>","null","neutral_feedback","1","test","4","","","","","","","","","","","","","","","","","","","","","",""
"","","","","","","","","","","","html-button-response","148","2.0.0","1169401","66622736b3fcb6b8f3c04fdd","3","8","14200","","","","","","","","","<img src= ""rock_img/I_Peridotite_04.jpg"" style=""width:8cm; height:6.680000000000001cm;""><p>What type of rock is this?</p>","6","class_response","1","test","5","Peridotite","Peridotite","04","true","7","7","","","","","","","","","","","","","","","",""
"","","","","","","","","","","","html-keyboard-response","149","2.0.0","1169902","66622736b3fcb6b8f3c04fdd","3","8","null","","","","","","","","","<p style='font-size: 30px;'><strong>Okay</strong></p>","null","neutral_feedback","1","test","5","","","","","","","","","","","","","","","","","","","","","",""
"","","","","","","","","","","","html-button-response","150","2.0.0","1170861","66622736b3fcb6b8f3c04fdd","3","8","959","","","","","","","","","<img src= ""rock_img/I_Obsidian_11.jpg"" style=""width:8cm; height:6.05cm;""><p>What type of rock is this?</p>","4","class_response","1","test","6","Obsidian","Obsidian","11","true","5","5","","","","","","","","","","","","","","","",""
"","","","","","","","","","","","html-keyboard-response","151","2.0.0","1171363","66622736b3fcb6b8f3c04fdd","3","8","null","","","","","","","","","<p style='font-size: 30px;'><strong>Okay</strong></p>","null","neutral_feedback","1","test","6","","","","","","","","","","","","","","","","","","","","","",""
"","","","","","","","","","","","html-button-response","152","2.0.0","1181700","66622736b3fcb6b8f3c04fdd","3","8","10335","","","","","","","","","<img src= ""rock_img/I_Diorite_02.jpg"" style=""width:8cm; height:6.27cm;""><p>What type of rock is this?</p>","2","class_response","1","test","7","Diorite","Diorite","02","true","3","3","","","","","","","","","","","","","","","",""
"","","","","","","","","","","","html-keyboard-response","153","2.0.0","1182202","66622736b3fcb6b8f3c04fdd","3","8","null","","","","","","","","","<p style='font-size: 30px;'><strong>Okay</strong></p>","null","neutral_feedback","1","test","7","","","","","","","","","","","","","","","","","","","","","",""
"","","","","","","","","","","","html-button-response","154","2.0.0","1205228","66622736b3fcb6b8f3c04fdd","3","8","23026","","","","","","","","","<img src= ""rock_img/I_Pegmatite_05.jpg"" style=""width:8cm; height:7.300000000000001cm;""><p>What type of rock is this?</p>","5","class_response","1","test","8","Pegmatite","Pegmatite","05","true","6","6","","","","","","","","","","","","","","","",""
"","","","","","","","","","","","html-keyboard-response","155","2.0.0","1205730","66622736b3fcb6b8f3c04fdd","3","8","null","","","","","","","","","<p style='font-size: 30px;'><strong>Okay</strong></p>","null","neutral_feedback","1","test","8","","","","","","","","","","","","","","","","","","","","","",""
"","","","","","","","","","","","html-button-response","156","2.0.0","1207415","66622736b3fcb6b8f3c04fdd","3","8","1684","","","","","","","","","<img src= ""rock_img/I_Basalt_02.jpg"" style=""width:8cm; height:6.45cm;""><p>What type of rock is this?</p>","1","class_response","1","test","9","Basalt","Basalt","02","true","2","2","","","","","","","","","","","","","","","",""
"","","","","","","","","","","","html-keyboard-response","157","2.0.0","1207927","66622736b3fcb6b8f3c04fdd","3","8","null","","","","","","","","","<p style='font-size: 30px;'><strong>Okay</strong></p>","null","neutral_feedback","1","test","9","","","","","","","","","","","","","","","","","","","","","",""
"","","","","","","","","","","","html-button-response","158","2.0.0","1209132","66622736b3fcb6b8f3c04fdd","3","8","1204","","","","","","","","","<img src= ""rock_img/I_Pumice_15.jpg"" style=""width:8cm; height:7.86cm;""><p>What type of rock is this?</p>","7","class_response","1","test","10","Pumice","Pumice","15","true","8","8","","","","","","","","","","","","","","","",""
"","","","","","","","","","","","html-keyboard-response","159","2.0.0","1209635","66622736b3fcb6b8f3c04fdd","3","8","null","","","","","","","","","<p style='font-size: 30px;'><strong>Okay</strong></p>","null","neutral_feedback","1","test","10","","","","","","","","","","","","","","","","","","","","","",""
"","","","","","","","","","","","html-button-response","160","2.0.0","1217528","66622736b3fcb6b8f3c04fdd","3","8","7893","","","","","","","","","<img src= ""rock_img/I_Gabbro_03.jpg"" style=""width:8cm; height:8.52cm;""><p>What type of rock is this?</p>","3","class_response","1","test","11","Gabbro","Gabbro","03","true","4","4","","","","","","","","","","","","","","","",""
"","","","","","","","","","","","html-keyboard-response","161","2.0.0","1218031","66622736b3fcb6b8f3c04fdd","3","8","null","","","","","","","","","<p style='font-size: 30px;'><strong>Okay</strong></p>","null","neutral_feedback","1","test","11","","","","","","","","","","","","","","","","","","","","","",""
"","","","","","","","","","","","html-button-response","162","2.0.0","1259298","66622736b3fcb6b8f3c04fdd","3","8","41267","","","","","","","","","<img src= ""rock_img/I_Gabbro_13.jpg"" style=""width:8cm; height:5.08cm;""><p>What type of rock is this?</p>","6","class_response","1","test","12","Peridotite","Gabbro","13","false","7","4","","","","","","","","","","","","","","","",""
"","","","","","","","","","","","html-keyboard-response","163","2.0.0","1259801","66622736b3fcb6b8f3c04fdd","3","8","null","","","","","","","","","<p style='font-size: 30px;'><strong>Okay</strong></p>","null","neutral_feedback","1","test","12","","","","","","","","","","","","","","","","","","","","","",""
"","","","","","","","","","","","html-button-response","164","2.0.0","1264634","66622736b3fcb6b8f3c04fdd","3","8","4832","","","","","","","","","<img src= ""rock_img/I_Peridotite_12.jpg"" style=""width:8cm; height:4.54cm;""><p>What type of rock is this?</p>","5","class_response","1","test","13","Pegmatite","Peridotite","12","false","6","7","","","","","","","","","","","","","","","",""
"","","","","","","","","","","","html-keyboard-response","165","2.0.0","1265137","66622736b3fcb6b8f3c04fdd","3","8","null","","","","","","","","","<p style='font-size: 30px;'><strong>Okay</strong></p>","null","neutral_feedback","1","test","13","","","","","","","","","","","","","","","","","","","","","",""
"","","","","","","","","","","","html-button-response","166","2.0.0","1266180","66622736b3fcb6b8f3c04fdd","3","8","1043","","","","","","","","","<img src= ""rock_img/I_Obsidian_06.jpg"" style=""width:8cm; height:6.8cm;""><p>What type of rock is this?</p>","4","class_response","1","test","14","Obsidian","Obsidian","06","true","5","5","","","","","","","","","","","","","","","",""
"","","","","","","","","","","","html-keyboard-response","167","2.0.0","1266684","66622736b3fcb6b8f3c04fdd","3","8","null","","","","","","","","","<p style='font-size: 30px;'><strong>Okay</strong></p>","null","neutral_feedback","1","test","14","","","","","","","","","","","","","","","","","","","","","",""
"","","","","","","","","","","","html-button-response","168","2.0.0","1291122","66622736b3fcb6b8f3c04fdd","3","8","24438","","","","","","","","","<img src= ""rock_img/I_Diorite_11.jpg"" style=""width:8cm; height:7.11cm;""><p>What type of rock is this?</p>","2","class_response","1","test","15","Diorite","Diorite","11","true","3","3","","","","","","","","","","","","","","","",""
"","","","","","","","","","","","html-keyboard-response","169","2.0.0","1291624","66622736b3fcb6b8f3c04fdd","3","8","null","","","","","","","","","<p style='font-size: 30px;'><strong>Okay</strong></p>","null","neutral_feedback","1","test","15","","","","","","","","","","","","","","","","","","","","","",""
"","","","","","","","","","","","html-button-response","170","2.0.0","1307199","66622736b3fcb6b8f3c04fdd","3","8","15576","","","","","","","","","<img src= ""rock_img/I_Andesite_16.jpg"" style=""width:8cm; height:6.010000000000001cm;""><p>What type of rock is this?</p>","0","class_response","1","test","16","Andesite","Andesite","16","true","1","1","","","","","","","","","","","","","","","",""
"","","","","","","","","","","","html-keyboard-response","171","2.0.0","1307700","66622736b3fcb6b8f3c04fdd","3","8","null","","","","","","","","","<p style='font-size: 30px;'><strong>Okay</strong></p>","null","neutral_feedback","1","test","16","","","","","","","","","","","","","","","","","","","","","",""
"","","","","","","","","","","","html-button-response","172","2.0.0","1327893","66622736b3fcb6b8f3c04fdd","3","8","20192","","","","","","","","","<img src= ""rock_img/I_Peridotite_16.jpg"" style=""width:8cm; height:6.989999999999999cm;""><p>What type of rock is this?</p>","3","class_response","1","test","17","Gabbro","Peridotite","16","false","4","7","","","","","","","","","","","","","","","",""
"","","","","","","","","","","","html-keyboard-response","173","2.0.0","1328398","66622736b3fcb6b8f3c04fdd","3","8","null","","","","","","","","","<p style='font-size: 30px;'><strong>Okay</strong></p>","null","neutral_feedback","1","test","17","","","","","","","","","","","","","","","","","","","","","",""
"","","","","","","","","","","","html-button-response","174","2.0.0","1343619","66622736b3fcb6b8f3c04fdd","3","8","15220","","","","","","","","","<img src= ""rock_img/I_Basalt_14.jpg"" style=""width:8cm; height:5.82cm;""><p>What type of rock is this?</p>","5","class_response","1","test","18","Pegmatite","Basalt","14","false","6","2","","","","","","","","","","","","","","","",""
"","","","","","","","","","","","html-keyboard-response","175","2.0.0","1344121","66622736b3fcb6b8f3c04fdd","3","8","null","","","","","","","","","<p style='font-size: 30px;'><strong>Okay</strong></p>","null","neutral_feedback","1","test","18","","","","","","","","","","","","","","","","","","","","","",""
"","","","","","","","","","","","html-button-response","176","2.0.0","1345289","66622736b3fcb6b8f3c04fdd","3","8","1167","","","","","","","","","<img src= ""rock_img/I_Obsidian_05.jpg"" style=""width:8cm; height:6.33cm;""><p>What type of rock is this?</p>","4","class_response","1","test","19","Obsidian","Obsidian","05","true","5","5","","","","","","","","","","","","","","","",""
"","","","","","","","","","","","html-keyboard-response","177","2.0.0","1345790","66622736b3fcb6b8f3c04fdd","3","8","null","","","","","","","","","<p style='font-size: 30px;'><strong>Okay</strong></p>","null","neutral_feedback","1","test","19","","","","","","","","","","","","","","","","","","","","","",""
"","","","","","","","","","","","html-button-response","178","2.0.0","1349779","66622736b3fcb6b8f3c04fdd","3","8","3988","","","","","","","","","<img src= ""rock_img/I_Basalt_11.jpg"" style=""width:8cm; height:5.359999999999999cm;""><p>What type of rock is this?</p>","7","class_response","1","test","20","Pumice","Basalt","11","false","8","2","","","","","","","","","","","","","","","",""
"","","","","","","","","","","","html-keyboard-response","179","2.0.0","1350281","66622736b3fcb6b8f3c04fdd","3","8","null","","","","","","","","","<p style='font-size: 30px;'><strong>Okay</strong></p>","null","neutral_feedback","1","test","20","","","","","","","","","","","","","","","","","","","","","",""
"","","","","","","","","","","","html-button-response","180","2.0.0","1362905","66622736b3fcb6b8f3c04fdd","3","8","12622","","","","","","","","","<img src= ""rock_img/I_Peridotite_14.jpg"" style=""width:8cm; height:5.3cm;""><p>What type of rock is this?</p>","2","class_response","1","test","21","Diorite","Peridotite","14","false","3","7","","","","","","","","","","","","","","","",""
"","","","","","","","","","","","html-keyboard-response","181","2.0.0","1363409","66622736b3fcb6b8f3c04fdd","3","8","null","","","","","","","","","<p style='font-size: 30px;'><strong>Okay</strong></p>","null","neutral_feedback","1","test","21","","","","","","","","","","","","","","","","","","","","","",""
"","","","","","","","","","","","html-button-response","182","2.0.0","1376454","66622736b3fcb6b8f3c04fdd","3","8","13044","","","","","","","","","<img src= ""rock_img/I_Peridotite_10.jpg"" style=""width:8cm; height:5.390000000000001cm;""><p>What type of rock is this?</p>","0","class_response","1","test","22","Andesite","Peridotite","10","false","1","7","","","","","","","","","","","","","","","",""
"","","","","","","","","","","","html-keyboard-response","183","2.0.0","1376954","66622736b3fcb6b8f3c04fdd","3","8","null","","","","","","","","","<p style='font-size: 30px;'><strong>Okay</strong></p>","null","neutral_feedback","1","test","22","","","","","","","","","","","","","","","","","","","","","",""
"","","","","","","","","","","","html-button-response","184","2.0.0","1396075","66622736b3fcb6b8f3c04fdd","3","8","19120","","","","","","","","","<img src= ""rock_img/I_Gabbro_08.jpg"" style=""width:8cm; height:5.15cm;""><p>What type of rock is this?</p>","3","class_response","1","test","23","Gabbro","Gabbro","08","true","4","4","","","","","","","","","","","","","","","",""
"","","","","","","","","","","","html-keyboard-response","185","2.0.0","1396577","66622736b3fcb6b8f3c04fdd","3","8","null","","","","","","","","","<p style='font-size: 30px;'><strong>Okay</strong></p>","null","neutral_feedback","1","test","23","","","","","","","","","","","","","","","","","","","","","",""
"","","","","","","","","","","","html-button-response","186","2.0.0","1447630","66622736b3fcb6b8f3c04fdd","3","8","51052","","","","","","","","","<img src= ""rock_img/I_Diorite_06.jpg"" style=""width:8cm; height:6.03cm;""><p>What type of rock is this?</p>","6","class_response","1","test","24","Peridotite","Diorite","06","false","7","3","","","","","","","","","","","","","","","",""
"","","","","","","","","","","","html-keyboard-response","187","2.0.0","1448133","66622736b3fcb6b8f3c04fdd","3","8","null","","","","","","","","","<p style='font-size: 30px;'><strong>Okay</strong></p>","null","neutral_feedback","1","test","24","","","","","","","","","","","","","","","","","","","","","",""
"","","","","","","","","","","","html-button-response","188","2.0.0","1449566","66622736b3fcb6b8f3c04fdd","3","8","1432","","","","","","","","","<img src= ""rock_img/I_Pumice_06.jpg"" style=""width:8cm; height:6.9399999999999995cm;""><p>What type of rock is this?</p>","7","class_response","1","test","25","Pumice","Pumice","06","true","8","8","","","","","","","","","","","","","","","",""
"","","","","","","","","","","","html-keyboard-response","189","2.0.0","1450067","66622736b3fcb6b8f3c04fdd","3","8","null","","","","","","","","","<p style='font-size: 30px;'><strong>Okay</strong></p>","null","neutral_feedback","1","test","25","","","","","","","","","","","","","","","","","","","","","",""
"","","","","","","","","","","","html-button-response","190","2.0.0","1455356","66622736b3fcb6b8f3c04fdd","3","8","5288","","","","","","","","","<img src= ""rock_img/I_Diorite_16.jpg"" style=""width:8cm; height:6.74cm;""><p>What type of rock is this?</p>","2","class_response","1","test","26","Diorite","Diorite","16","true","3","3","","","","","","","","","","","","","","","",""
"","","","","","","","","","","","html-keyboard-response","191","2.0.0","1455857","66622736b3fcb6b8f3c04fdd","3","8","null","","","","","","","","","<p style='font-size: 30px;'><strong>Okay</strong></p>","null","neutral_feedback","1","test","26","","","","","","","","","","","","","","","","","","","","","",""
"","","","","","","","","","","","html-button-response","192","2.0.0","1457042","66622736b3fcb6b8f3c04fdd","3","8","1184","","","","","","","","","<img src= ""rock_img/I_Obsidian_07.jpg"" style=""width:8cm; height:4.76cm;""><p>What type of rock is this?</p>","4","class_response","1","test","27","Obsidian","Obsidian","07","true","5","5","","","","","","","","","","","","","","","",""
"","","","","","","","","","","","html-keyboard-response","193","2.0.0","1457543","66622736b3fcb6b8f3c04fdd","3","8","null","","","","","","","","","<p style='font-size: 30px;'><strong>Okay</strong></p>","null","neutral_feedback","1","test","27","","","","","","","","","","","","","","","","","","","","","",""
"","","","","","","","","","","","html-button-response","194","2.0.0","1458354","66622736b3fcb6b8f3c04fdd","3","8","810","","","","","","","","","<img src= ""rock_img/I_Obsidian_09.jpg"" style=""width:8cm; height:5cm;""><p>What type of rock is this?</p>","4","class_response","1","test","28","Obsidian","Obsidian","09","true","5","5","","","","","","","","","","","","","","","",""
"","","","","","","","","","","","html-keyboard-response","195","2.0.0","1458856","66622736b3fcb6b8f3c04fdd","3","8","null","","","","","","","","","<p style='font-size: 30px;'><strong>Okay</strong></p>","null","neutral_feedback","1","test","28","","","","","","","","","","","","","","","","","","","","","",""
"","","","","","","","","","","","html-button-response","196","2.0.0","1473500","66622736b3fcb6b8f3c04fdd","3","8","14643","","","","","","","","","<img src= ""rock_img/I_Andesite_04.jpg"" style=""width:8cm; height:5.96cm;""><p>What type of rock is this?</p>","0","class_response","1","test","29","Andesite","Andesite","04","true","1","1","","","","","","","","","","","","","","","",""
"","","","","","","","","","","","html-keyboard-response","197","2.0.0","1474002","66622736b3fcb6b8f3c04fdd","3","8","null","","","","","","","","","<p style='font-size: 30px;'><strong>Okay</strong></p>","null","neutral_feedback","1","test","29","","","","","","","","","","","","","","","","","","","","","",""
"","","","","","","","","","","","html-button-response","198","2.0.0","1475226","66622736b3fcb6b8f3c04fdd","3","8","1223","","","","","","","","","<img src= ""rock_img/I_Pumice_04.jpg"" style=""width:8cm; height:6.819999999999999cm;""><p>What type of rock is this?</p>","7","class_response","1","test","30","Pumice","Pumice","04","true","8","8","","","","","","","","","","","","","","","",""
"","","","","","","","","","","","html-keyboard-response","199","2.0.0","1475727","66622736b3fcb6b8f3c04fdd","3","8","null","","","","","","","","","<p style='font-size: 30px;'><strong>Okay</strong></p>","null","neutral_feedback","1","test","30","","","","","","","","","","","","","","","","","","","","","",""
"","","","","","","","","","","","html-button-response","200","2.0.0","1513464","66622736b3fcb6b8f3c04fdd","3","8","37736","","","","","","","","","<img src= ""rock_img/I_Gabbro_01.jpg"" style=""width:8cm; height:5.21cm;""><p>What type of rock is this?</p>","0","class_response","1","test","31","Andesite","Gabbro","01","false","1","4","","","","","","","","","","","","","","","",""
"","","","","","","","","","","","html-keyboard-response","201","2.0.0","1513967","66622736b3fcb6b8f3c04fdd","3","8","null","","","","","","","","","<p style='font-size: 30px;'><strong>Okay</strong></p>","null","neutral_feedback","1","test","31","","","","","","","","","","","","","","","","","","","","","",""
"","","","","","","","","","","","html-button-response","202","2.0.0","1515104","66622736b3fcb6b8f3c04fdd","3","8","1136","","","","","","","","","<img src= ""rock_img/I_Pumice_14.jpg"" style=""width:8cm; height:6.39cm;""><p>What type of rock is this?</p>","7","class_response","1","test","32","Pumice","Pumice","14","true","8","8","","","","","","","","","","","","","","","",""
"","","","","","","","","","","","html-keyboard-response","203","2.0.0","1515606","66622736b3fcb6b8f3c04fdd","3","8","null","","","","","","","","","<p style='font-size: 30px;'><strong>Okay</strong></p>","null","neutral_feedback","1","test","32","","","","","","","","","","","","","","","","","","","","","",""
"","","","","","","","","","","","html-button-response","204","2.0.0","1538270","66622736b3fcb6b8f3c04fdd","3","8","22663","","","","","","","","","<img src= ""rock_img/I_Andesite_01.jpg"" style=""width:8cm; height:5.87cm;""><p>What type of rock is this?</p>","3","class_response","1","test","33","Gabbro","Andesite","01","false","4","1","","","","","","","","","","","","","","","",""
"","","","","","","","","","","","html-keyboard-response","205","2.0.0","1538772","66622736b3fcb6b8f3c04fdd","3","8","null","","","","","","","","","<p style='font-size: 30px;'><strong>Okay</strong></p>","null","neutral_feedback","1","test","33","","","","","","","","","","","","","","","","","","","","","",""
"","","","","","","","","","","","html-button-response","206","2.0.0","1541026","66622736b3fcb6b8f3c04fdd","3","8","2253","","","","","","","","","<img src= ""rock_img/I_Pumice_03.jpg"" style=""width:8cm; height:6.64cm;""><p>What type of rock is this?</p>","7","class_response","1","test","34","Pumice","Pumice","03","true","8","8","","","","","","","","","","","","","","","",""
"","","","","","","","","","","","html-keyboard-response","207","2.0.0","1541528","66622736b3fcb6b8f3c04fdd","3","8","null","","","","","","","","","<p style='font-size: 30px;'><strong>Okay</strong></p>","null","neutral_feedback","1","test","34","","","","","","","","","","","","","","","","","","","","","",""
"","","","","","","","","","","","html-button-response","208","2.0.0","1565089","66622736b3fcb6b8f3c04fdd","3","8","23561","","","","","","","","","<img src= ""rock_img/I_Andesite_10.jpg"" style=""width:8cm; height:4.16cm;""><p>What type of rock is this?</p>","2","class_response","1","test","35","Diorite","Andesite","10","false","3","1","","","","","","","","","","","","","","","",""
"","","","","","","","","","","","html-keyboard-response","209","2.0.0","1565591","66622736b3fcb6b8f3c04fdd","3","8","null","","","","","","","","","<p style='font-size: 30px;'><strong>Okay</strong></p>","null","neutral_feedback","1","test","35","","","","","","","","","","","","","","","","","","","","","",""
"","","","","","","","","","","","html-button-response","210","2.0.0","1566845","66622736b3fcb6b8f3c04fdd","3","8","1253","","","","","","","","","<img src= ""rock_img/I_Basalt_01.jpg"" style=""width:8cm; height:7.880000000000001cm;""><p>What type of rock is this?</p>","1","class_response","1","test","36","Basalt","Basalt","01","true","2","2","","","","","","","","","","","","","","","",""
"","","","","","","","","","","","html-keyboard-response","211","2.0.0","1567347","66622736b3fcb6b8f3c04fdd","3","8","null","","","","","","","","","<p style='font-size: 30px;'><strong>Okay</strong></p>","null","neutral_feedback","1","test","36","","","","","","","","","","","","","","","","","","","","","",""
"","","","","","","","","","","","html-button-response","212","2.0.0","1572177","66622736b3fcb6b8f3c04fdd","3","8","4830","","","","","","","","","<img src= ""rock_img/I_Pegmatite_13.jpg"" style=""width:8cm; height:4.95cm;""><p>What type of rock is this?</p>","5","class_response","1","test","37","Pegmatite","Pegmatite","13","true","6","6","","","","","","","","","","","","","","","",""
"","","","","","","","","","","","html-keyboard-response","213","2.0.0","1572680","66622736b3fcb6b8f3c04fdd","3","8","null","","","","","","","","","<p style='font-size: 30px;'><strong>Okay</strong></p>","null","neutral_feedback","1","test","37","","","","","","","","","","","","","","","","","","","","","",""
"","","","","","","","","","","","html-button-response","214","2.0.0","1577579","66622736b3fcb6b8f3c04fdd","3","8","4899","","","","","","","","","<img src= ""rock_img/I_Andesite_05.jpg"" style=""width:8cm; height:4.12cm;""><p>What type of rock is this?</p>","0","class_response","1","test","38","Andesite","Andesite","05","true","1","1","","","","","","","","","","","","","","","",""
"","","","","","","","","","","","html-keyboard-response","215","2.0.0","1578082","66622736b3fcb6b8f3c04fdd","3","8","null","","","","","","","","","<p style='font-size: 30px;'><strong>Okay</strong></p>","null","neutral_feedback","1","test","38","","","","","","","","","","","","","","","","","","","","","",""
"","","","","","","","","","","","html-button-response","216","2.0.0","1587405","66622736b3fcb6b8f3c04fdd","3","8","9323","","","","","","","","","<img src= ""rock_img/I_Basalt_05.jpg"" style=""width:8cm; height:8.18cm;""><p>What type of rock is this?</p>","1","class_response","1","test","39","Basalt","Basalt","05","true","2","2","","","","","","","","","","","","","","","",""
"","","","","","","","","","","","html-keyboard-response","217","2.0.0","1587908","66622736b3fcb6b8f3c04fdd","3","8","null","","","","","","","","","<p style='font-size: 30px;'><strong>Okay</strong></p>","null","neutral_feedback","1","test","39","","","","","","","","","","","","","","","","","","","","","",""
"","","","","","","","","","","","html-button-response","218","2.0.0","1624776","66622736b3fcb6b8f3c04fdd","3","8","36868","","","","","","","","","<img src= ""rock_img/I_Gabbro_16.jpg"" style=""width:8cm; height:6.44cm;""><p>What type of rock is this?</p>","2","class_response","1","test","40","Diorite","Gabbro","16","false","3","4","","","","","","","","","","","","","","","",""
"","","","","","","","","","","","html-keyboard-response","219","2.0.0","1625278","66622736b3fcb6b8f3c04fdd","3","8","null","","","","","","","","","<p style='font-size: 30px;'><strong>Okay</strong></p>","null","neutral_feedback","1","test","40","","","","","","","","","","","","","","","","","","","","","",""
"","","","","","","","","","","","html-button-response","220","2.0.0","1629218","66622736b3fcb6b8f3c04fdd","3","8","3939","","","","","","","","","<img src= ""rock_img/I_Pegmatite_10.jpg"" style=""width:8cm; height:4.16cm;""><p>What type of rock is this?</p>","6","class_response","1","test","41","Peridotite","Pegmatite","10","false","7","6","","","","","","","","","","","","","","","",""
"","","","","","","","","","","","html-keyboard-response","221","2.0.0","1629720","66622736b3fcb6b8f3c04fdd","3","8","null","","","","","","","","","<p style='font-size: 30px;'><strong>Okay</strong></p>","null","neutral_feedback","1","test","41","","","","","","","","","","","","","","","","","","","","","",""
"","","","","","","","","","","","html-button-response","222","2.0.0","1630654","66622736b3fcb6b8f3c04fdd","3","8","934","","","","","","","","","<img src= ""rock_img/I_Pumice_09.jpg"" style=""width:8cm; height:6.44cm;""><p>What type of rock is this?</p>","7","class_response","1","test","42","Pumice","Pumice","09","true","8","8","","","","","","","","","","","","","","","",""
"","","","","","","","","","","","html-keyboard-response","223","2.0.0","1631156","66622736b3fcb6b8f3c04fdd","3","8","null","","","","","","","","","<p style='font-size: 30px;'><strong>Okay</strong></p>","null","neutral_feedback","1","test","42","","","","","","","","","","","","","","","","","","","","","",""
"","","","","","","","","","","","html-button-response","224","2.0.0","1632512","66622736b3fcb6b8f3c04fdd","3","8","1356","","","","","","","","","<img src= ""rock_img/I_Pegmatite_06.jpg"" style=""width:8cm; height:5.17cm;""><p>What type of rock is this?</p>","5","class_response","1","test","43","Pegmatite","Pegmatite","06","true","6","6","","","","","","","","","","","","","","","",""
"","","","","","","","","","","","html-keyboard-response","225","2.0.0","1633014","66622736b3fcb6b8f3c04fdd","3","8","null","","","","","","","","","<p style='font-size: 30px;'><strong>Okay</strong></p>","null","neutral_feedback","1","test","43","","","","","","","","","","","","","","","","","","","","","",""
"","","","","","","","","","","","html-button-response","226","2.0.0","1635681","66622736b3fcb6b8f3c04fdd","3","8","2666","","","","","","","","","<img src= ""rock_img/I_Andesite_07.jpg"" style=""width:8cm; height:5.93cm;""><p>What type of rock is this?</p>","2","class_response","1","test","44","Diorite","Andesite","07","false","3","1","","","","","","","","","","","","","","","",""
"","","","","","","","","","","","html-keyboard-response","227","2.0.0","1636183","66622736b3fcb6b8f3c04fdd","3","8","null","","","","","","","","","<p style='font-size: 30px;'><strong>Okay</strong></p>","null","neutral_feedback","1","test","44","","","","","","","","","","","","","","","","","","","","","",""
"","","","","","","","","","","","html-button-response","228","2.0.0","1639273","66622736b3fcb6b8f3c04fdd","3","8","3089","","","","","","","","","<img src= ""rock_img/I_Diorite_13.jpg"" style=""width:8cm; height:6.29cm;""><p>What type of rock is this?</p>","6","class_response","1","test","45","Peridotite","Diorite","13","false","7","3","","","","","","","","","","","","","","","",""
"","","","","","","","","","","","html-keyboard-response","229","2.0.0","1639774","66622736b3fcb6b8f3c04fdd","3","8","null","","","","","","","","","<p style='font-size: 30px;'><strong>Okay</strong></p>","null","neutral_feedback","1","test","45","","","","","","","","","","","","","","","","","","","","","",""
"","","","","","","","","","","","html-button-response","230","2.0.0","1640716","66622736b3fcb6b8f3c04fdd","3","8","941","","","","","","","","","<img src= ""rock_img/I_Obsidian_14.jpg"" style=""width:8cm; height:7.64cm;""><p>What type of rock is this?</p>","4","class_response","1","test","46","Obsidian","Obsidian","14","true","5","5","","","","","","","","","","","","","","","",""
"","","","","","","","","","","","html-keyboard-response","231","2.0.0","1641218","66622736b3fcb6b8f3c04fdd","3","8","null","","","","","","","","","<p style='font-size: 30px;'><strong>Okay</strong></p>","null","neutral_feedback","1","test","46","","","","","","","","","","","","","","","","","","","","","",""
"","","","","","","","","","","","html-button-response","232","2.0.0","1644266","66622736b3fcb6b8f3c04fdd","3","8","3047","","","","","","","","","<img src= ""rock_img/I_Peridotite_13.jpg"" style=""width:8cm; height:7.58cm;""><p>What type of rock is this?</p>","5","class_response","1","test","47","Pegmatite","Peridotite","13","false","6","7","","","","","","","","","","","","","","","",""
"","","","","","","","","","","","html-keyboard-response","233","2.0.0","1644768","66622736b3fcb6b8f3c04fdd","3","8","null","","","","","","","","","<p style='font-size: 30px;'><strong>Okay</strong></p>","null","neutral_feedback","1","test","47","","","","","","","","","","","","","","","","","","","","","",""
"","","","","","","","","","","","html-button-response","234","2.0.0","1647608","66622736b3fcb6b8f3c04fdd","3","8","2840","","","","","","","","","<img src= ""rock_img/I_Pegmatite_11.jpg"" style=""width:8cm; height:8.14cm;""><p>What type of rock is this?</p>","6","class_response","1","test","48","Peridotite","Pegmatite","11","false","7","6","","","","","","","","","","","","","","","",""
"","","","","","","","","","","","html-keyboard-response","235","2.0.0","1648109","66622736b3fcb6b8f3c04fdd","3","8","null","","","","","","","","","<p style='font-size: 30px;'><strong>Okay</strong></p>","null","neutral_feedback","1","test","48","","","","","","","","","","","","","","","","","","","","","",""
"","","","","","","","","","","","html-button-response","236","2.0.0","1665002","66622736b3fcb6b8f3c04fdd","3","8","","","","","","","","","","","","cycle_feedback","","","","","","","","","","","","","","","","","","","","","","","","6318.699999988079","10571.5"
"","","","","","","","","","","","html-button-response","238","2.0.0","1666530","66622736b3fcb6b8f3c04fdd","3","8","1527","","","","","","","","","","0","start_train","","","","","","","","","","","","","","","","","","","","","","","","",""
"","","","","","","","","","","","html-button-response","240","2.0.0","1671464","66622736b3fcb6b8f3c04fdd","3","8","4933","","","","","","","","","<img src= ""rock_img/I_Peridotite_02.jpg"" style=""width:8cm; height:5.859999999999999cm;""><p>What type of rock is this?</p>","6","class_response","2","train","1","Peridotite","Peridotite","02","true","7","7","","","","","","","","","","","","","","","",""
"","","","","","","","","","","","html-button-response","241","2.0.0","1673346","66622736b3fcb6b8f3c04fdd","3","8","1881","","","","","","","","","<img src= rock_img/I_Peridotite_02.jpg style=""width:8cm; height:5.859999999999999cm;""><p style='font-size: 30px; color: green;'><strong>Correct!</strong></p><p style='font-size: 30px;'><strong>This rock is peridotite</strong></p>","0","corr_feedback","2","train","1","","","","","","","","","","","","","","","","","","","","","",""
"","","","","","","","","","","","html-button-response","242","2.0.0","1677070","66622736b3fcb6b8f3c04fdd","3","8","3724","","","","","","","","","<img src= ""rock_img/I_Andesite_14.jpg"" style=""width:8cm; height:5.449999999999999cm;""><p>What type of rock is this?</p>","0","class_response","2","train","2","Andesite","Andesite","14","true","1","1","","","","","","","","","","","","","","","",""
"","","","","","","","","","","","html-button-response","243","2.0.0","1678140","66622736b3fcb6b8f3c04fdd","3","8","1069","","","","","","","","","<img src= rock_img/I_Andesite_14.jpg style=""width:8cm; height:5.449999999999999cm;""><p style='font-size: 30px; color: green;'><strong>Correct!</strong></p><p style='font-size: 30px;'><strong>This rock is andesite</strong></p>","0","corr_feedback","2","train","2","","","","","","","","","","","","","","","","","","","","","",""
"","","","","","","","","","","","html-button-response","244","2.0.0","1679436","66622736b3fcb6b8f3c04fdd","3","8","1295","","","","","","","","","<img src= ""rock_img/I_Pegmatite_08.jpg"" style=""width:8cm; height:7.68cm;""><p>What type of rock is this?</p>","5","class_response","2","train","3","Pegmatite","Pegmatite","08","true","6","6","","","","","","","","","","","","","","","",""
"","","","","","","","","","","","html-button-response","245","2.0.0","1680116","66622736b3fcb6b8f3c04fdd","3","8","680","","","","","","","","","<img src= rock_img/I_Pegmatite_08.jpg style=""width:8cm; height:7.68cm;""><p style='font-size: 30px; color: green;'><strong>Correct!</strong></p><p style='font-size: 30px;'><strong>This rock is pegmatite</strong></p>","0","corr_feedback","2","train","3","","","","","","","","","","","","","","","","","","","","","",""
"","","","","","","","","","","","html-button-response","246","2.0.0","1681708","66622736b3fcb6b8f3c04fdd","3","8","1591","","","","","","","","","<img src= ""rock_img/I_Pumice_08.jpg"" style=""width:8cm; height:6.67cm;""><p>What type of rock is this?</p>","7","class_response","2","train","4","Pumice","Pumice","08","true","8","8","","","","","","","","","","","","","","","",""
"","","","","","","","","","","","html-button-response","247","2.0.0","1682263","66622736b3fcb6b8f3c04fdd","3","8","554","","","","","","","","","<img src= rock_img/I_Pumice_08.jpg style=""width:8cm; height:6.67cm;""><p style='font-size: 30px; color: green;'><strong>Correct!</strong></p><p style='font-size: 30px;'><strong>This rock is pumice</strong></p>","0","corr_feedback","2","train","4","","","","","","","","","","","","","","","","","","","","","",""
"","","","","","","","","","","","html-button-response","248","2.0.0","1683378","66622736b3fcb6b8f3c04fdd","3","8","1114","","","","","","","","","<img src= ""rock_img/I_Basalt_08.jpg"" style=""width:8cm; height:10.44cm;""><p>What type of rock is this?</p>","1","class_response","2","train","5","Basalt","Basalt","08","true","2","2","","","","","","","","","","","","","","","",""
"","","","","","","","","","","","html-button-response","249","2.0.0","1684011","66622736b3fcb6b8f3c04fdd","3","8","632","","","","","","","","","<img src= rock_img/I_Basalt_08.jpg style=""width:8cm; height:10.44cm;""><p style='font-size: 30px; color: green;'><strong>Correct!</strong></p><p style='font-size: 30px;'><strong>This rock is basalt</strong></p>","0","corr_feedback","2","train","5","","","","","","","","","","","","","","","","","","","","","",""
"","","","","","","","","","","","html-button-response","250","2.0.0","1688063","66622736b3fcb6b8f3c04fdd","3","8","4051","","","","","","","","","<img src= ""rock_img/I_Gabbro_10.jpg"" style=""width:8cm; height:5.680000000000001cm;""><p>What type of rock is this?</p>","3","class_response","2","train","6","Gabbro","Gabbro","10","true","4","4","","","","","","","","","","","","","","","",""
"","","","","","","","","","","","html-button-response","251","2.0.0","1688773","66622736b3fcb6b8f3c04fdd","3","8","709","","","","","","","","","<img src= rock_img/I_Gabbro_10.jpg style=""width:8cm; height:5.680000000000001cm;""><p style='font-size: 30px; color: green;'><strong>Correct!</strong></p><p style='font-size: 30px;'><strong>This rock is gabbro</strong></p>","0","corr_feedback","2","train","6","","","","","","","","","","","","","","","","","","","","","",""
"","","","","","","","","","","","html-button-response","252","2.0.0","1689766","66622736b3fcb6b8f3c04fdd","3","8","991","","","","","","","","","<img src= ""rock_img/I_Diorite_12.jpg"" style=""width:8cm; height:4.88cm;""><p>What type of rock is this?</p>","2","class_response","2","train","7","Diorite","Diorite","12","true","3","3","","","","","","","","","","","","","","","",""
"","","","","","","","","","","","html-button-response","253","2.0.0","1690289","66622736b3fcb6b8f3c04fdd","3","8","523","","","","","","","","","<img src= rock_img/I_Diorite_12.jpg style=""width:8cm; height:4.88cm;""><p style='font-size: 30px; color: green;'><strong>Correct!</strong></p><p style='font-size: 30px;'><strong>This rock is diorite</strong></p>","0","corr_feedback","2","train","7","","","","","","","","","","","","","","","","","","","","","",""
"","","","","","","","","","","","html-button-response","254","2.0.0","1699813","66622736b3fcb6b8f3c04fdd","3","8","9523","","","","","","","","","<img src= ""rock_img/I_Basalt_16.jpg"" style=""width:8cm; height:7.659999999999999cm;""><p>What type of rock is this?</p>","7","class_response","2","train","8","Pumice","Basalt","16","false","8","2","","","","","","","","","","","","","","","",""
"","","","","","","","","","","","html-button-response","255","2.0.0","1700548","66622736b3fcb6b8f3c04fdd","3","8","734","","","","","","","","","<img src= rock_img/I_Basalt_16.jpg style=""width:8cm; height:7.659999999999999cm;""><p style='font-size: 30px; color: red;'><strong>Incorrect!</strong></p><p style='font-size: 30px;'><strong>This rock is basalt</strong></p>","0","corr_feedback","2","train","8","","","","","","","","","","","","","","","","","","","","","",""
"","","","","","","","","","","","html-button-response","256","2.0.0","1702523","66622736b3fcb6b8f3c04fdd","3","8","1975","","","","","","","","","<img src= ""rock_img/I_Pegmatite_03.jpg"" style=""width:8cm; height:5.239999999999999cm;""><p>What type of rock is this?</p>","5","class_response","2","train","9","Pegmatite","Pegmatite","03","true","6","6","","","","","","","","","","","","","","","",""
"","","","","","","","","","","","html-button-response","257","2.0.0","1703102","66622736b3fcb6b8f3c04fdd","3","8","578","","","","","","","","","<img src= rock_img/I_Pegmatite_03.jpg style=""width:8cm; height:5.239999999999999cm;""><p style='font-size: 30px; color: green;'><strong>Correct!</strong></p><p style='font-size: 30px;'><strong>This rock is pegmatite</strong></p>","0","corr_feedback","2","train","9","","","","","","","","","","","","","","","","","","","","","",""
"","","","","","","","","","","","html-button-response","258","2.0.0","1704529","66622736b3fcb6b8f3c04fdd","3","8","1427","","","","","","","","","<img src= ""rock_img/I_Pumice_13.jpg"" style=""width:8cm; height:8.200000000000001cm;""><p>What type of rock is this?</p>","7","class_response","2","train","10","Pumice","Pumice","13","true","8","8","","","","","","","","","","","","","","","",""
"","","","","","","","","","","","html-button-response","259","2.0.0","1705059","66622736b3fcb6b8f3c04fdd","3","8","529","","","","","","","","","<img src= rock_img/I_Pumice_13.jpg style=""width:8cm; height:8.200000000000001cm;""><p style='font-size: 30px; color: green;'><strong>Correct!</strong></p><p style='font-size: 30px;'><strong>This rock is pumice</strong></p>","0","corr_feedback","2","train","10","","","","","","","","","","","","","","","","","","","","","",""
"","","","","","","","","","","","html-button-response","260","2.0.0","1705865","66622736b3fcb6b8f3c04fdd","3","8","805","","","","","","","","","<img src= ""rock_img/I_Obsidian_08.jpg"" style=""width:8cm; height:7.39cm;""><p>What type of rock is this?</p>","4","class_response","2","train","11","Obsidian","Obsidian","08","true","5","5","","","","","","","","","","","","","","","",""
"","","","","","","","","","","","html-button-response","261","2.0.0","1706341","66622736b3fcb6b8f3c04fdd","3","8","476","","","","","","","","","<img src= rock_img/I_Obsidian_08.jpg style=""width:8cm; height:7.39cm;""><p style='font-size: 30px; color: green;'><strong>Correct!</strong></p><p style='font-size: 30px;'><strong>This rock is obsidian</strong></p>","0","corr_feedback","2","train","11","","","","","","","","","","","","","","","","","","","","","",""
"","","","","","","","","","","","html-button-response","262","2.0.0","1708503","66622736b3fcb6b8f3c04fdd","3","8","2162","","","","","","","","","<img src= ""rock_img/I_Diorite_15.jpg"" style=""width:8cm; height:5.54cm;""><p>What type of rock is this?</p>","2","class_response","2","train","12","Diorite","Diorite","15","true","3","3","","","","","","","","","","","","","","","",""
"","","","","","","","","","","","html-button-response","263","2.0.0","1709017","66622736b3fcb6b8f3c04fdd","3","8","513","","","","","","","","","<img src= rock_img/I_Diorite_15.jpg style=""width:8cm; height:5.54cm;""><p style='font-size: 30px; color: green;'><strong>Correct!</strong></p><p style='font-size: 30px;'><strong>This rock is diorite</strong></p>","0","corr_feedback","2","train","12","","","","","","","","","","","","","","","","","","","","","",""
"","","","","","","","","","","","html-button-response","265","2.0.0","1710291","66622736b3fcb6b8f3c04fdd","3","8","1273","","","","","","","","","","0","start_train","","","","","","","","","","","","","","","","","","","","","","","","",""
"","","","","","","","","","","","html-button-response","266","2.0.0","1711757","66622736b3fcb6b8f3c04fdd","3","8","","","","","","","","","","","","cat_selection","2","train","1","","","","","","","6","7","1465.1000000238419","Pegmatite","Peridotite","[0.14566185226269437,0.08891517460062903,0.13774294839702952,0.15786879571179452,0.03645653652199895,0.13774294839702952,0.19812049034132445,0.09749125376749959]","[0.07633017815951625,0.024149318022503096,0.13453191731303904,0.13306234028532996,0.02810840240312236,null,0.5318909132437284,0.07192693057276103]","","","","","","","","",""
"","","","","","","","","","","","paired-cat-display","267","1.0.0","2246614","66622736b3fcb6b8f3c04fdd","3","8","","","","","","","","","","","","paired_cat_display","2","train","1","","","","","","","","","8030.899999976158","","","","","","","526824.5","","large interlocking crystals","","dark greenish color with small crystals","",""
"","","","","","","","","","","","html-button-response","268","2.0.0","2247722","66622736b3fcb6b8f3c04fdd","3","8","","","","","","","","","","","","cat_selection","2","train","2","","","","","","","3","7","1106.8999999761581","Diorite","Peridotite","[0.14566185226269437,0.08891517460062903,0.13774294839702952,0.15786879571179452,0.03645653652199895,0.13774294839702952,0.19812049034132445,0.09749125376749959]","[0.024580679148351856,0.12676177958712845,null,0.03182980421577509,0.029067196913261206,0.03186787163923492,0.5829455981126993,0.17294707038354917]","","","","","","","","",""
"","","","","","","","","","","","paired-cat-display","269","1.0.0","2278477","66622736b3fcb6b8f3c04fdd","3","8","","","","","","","","","","","","paired_cat_display","2","train","2","","","","","","","","","6245.099999964237","","","","","salt and pepper look with small dots","","24507.899999976158","","","","dark greenish color with small dots","",""
"","","","","","","","","","","","html-button-response","270","2.0.0","2280108","66622736b3fcb6b8f3c04fdd","3","8","","","","","","","","","","","","cat_selection","2","train","3","","","","","","","4","7","1630.8999999761581","Gabbro","Peridotite","[0.14566185226269437,0.08891517460062903,0.13774294839702952,0.15786879571179452,0.03645653652199895,0.13774294839702952,0.19812049034132445,0.09749125376749959]","[0.1949794698450963,0.025627368063888413,0.29867728966128504,null,0.03061307308803068,0.17982565922331653,0.1964006068369261,0.07387653328145673]","","","","","","","","",""
"","","","","","","","","","","","paired-cat-display","271","1.0.0","2333570","66622736b3fcb6b8f3c04fdd","3","8","","","","","","","","","","","","paired_cat_display","2","train","3","","","","","","","","","25810.80000001192","","","","","","","27649.799999952316","dark color, solid, has small dots of color","","","dark greenish color with small dots","",""
"","","","","","","","","","","","html-button-response","273","2.0.0","2334452","66622736b3fcb6b8f3c04fdd","3","8","881","","","","","","","","","","0","start_test","","","","","","","","","","","","","","","","","","","","","","","","",""
"","","","","","","","","","","","html-button-response","274","2.0.0","2367318","66622736b3fcb6b8f3c04fdd","3","8","32865","","","","","","","","","<img src= ""rock_img/I_Gabbro_08.jpg"" style=""width:8cm; height:5.15cm;""><p>What type of rock is this?</p>","3","class_response","2","test","1","Gabbro","Gabbro","08","true","4","4","","","","","","","","","","","","","","","",""
"","","","","","","","","","","","html-keyboard-response","275","2.0.0","2367821","66622736b3fcb6b8f3c04fdd","3","8","null","","","","","","","","","<p style='font-size: 30px;'><strong>Okay</strong></p>","null","neutral_feedback","2","test","1","","","","","","","","","","","","","","","","","","","","","",""
"","","","","","","","","","","","html-button-response","276","2.0.0","2368926","66622736b3fcb6b8f3c04fdd","3","8","1105","","","","","","","","","<img src= ""rock_img/I_Obsidian_06.jpg"" style=""width:8cm; height:6.8cm;""><p>What type of rock is this?</p>","4","class_response","2","test","2","Obsidian","Obsidian","06","true","5","5","","","","","","","","","","","","","","","",""
"","","","","","","","","","","","html-keyboard-response","277","2.0.0","2369429","66622736b3fcb6b8f3c04fdd","3","8","null","","","","","","","","","<p style='font-size: 30px;'><strong>Okay</strong></p>","null","neutral_feedback","2","test","2","","","","","","","","","","","","","","","","","","","","","",""
