"width","height","webaudio","browser","browser_version","mobile","os","fullscreen","vsync_rate","webcam","microphone","trial_type","trial_index","plugin_version","time_elapsed","subjID","condition","stimID","rt","url","success","value","timeout","failed_images","failed_audio","failed_video","view_history","stimulus","response","trialType","cycle","phase","trial","resp","cat","token","corr","resp_num","cat_num","ref_cat_num","paired_cat_num","time_obs","ref_cat","paired_cat","ref_prob_dist","paired_prob_dist","text_Diorite","text_Peridotite","time_resp","text_Obsidian","text_Andesite","time_fb1","time_fb2","text_Gabbro","text_Pumice","text_Basalt"
"1536","731","true","firefox","132.0.0","false","Windows 10","true","60.98","true","true","browser-check","0","2.0.0","1004","67347d8b1384d96ae2d1b0c5","3","12","","","","","","","","","","","","","","","","","","","","","","","","","","","","","","","","","","","","","",""
"","","","","","","","","","","","external-html","1","2.0.0","21091","67347d8b1384d96ae2d1b0c5","3","12","19716","consent_form.html","","","","","","","","","","","","","","","","","","","","","","","","","","","","","","","","","","","",""
"","","","","","","","","","","","fullscreen","2","2.0.0","24567","67347d8b1384d96ae2d1b0c5","3","12","2443","","true","","","","","","","","","","","","","","","","","","","","","","","","","","","","","","","","","","",""
"","","","","","","","","","","","call-function","3","2.0.0","24570","67347d8b1384d96ae2d1b0c5","3","12","","","","{}","","","","","","","","","","","","","","","","","","","","","","","","","","","","","","","","","",""
"","","","","","","","","","","","preload","4","2.0.0","24600","67347d8b1384d96ae2d1b0c5","3","12","","","true","","false","[]","[]","[]","","","","","","","","","","","","","","","","","","","","","","","","","","","","","",""
"","","","","","","","","","","","instructions","5","2.0.0","32753","67347d8b1384d96ae2d1b0c5","3","12","8151","","","","","","","","[{""page_index"":0,""viewing_time"":1611},{""page_index"":1,""viewing_time"":4994},{""page_index"":2,""viewing_time"":1546}]","","","","","","","","","","","","","","","","","","","","","","","","","","","","",""
"","","","","","","","","","","","html-button-response","6","2.0.0","34489","67347d8b1384d96ae2d1b0c5","3","12","1731","","","","","","","","","","0","start_test","","","","","","","","","","","","","","","","","","","","","","","","","",""
"","","","","","","","","","","","html-button-response","7","2.0.0","37363","67347d8b1384d96ae2d1b0c5","3","12","2872","","","","","","","","","<img src= ""rock_img/I_Obsidian_05.jpg"" style=""width:8cm; height:6.33cm;""><p>What type of rock is this?</p>","4","class_response","0","test","1","Obsidian","Obsidian","05","true","5","5","","","","","","","","","","","","","","","","",""
"","","","","","","","","","","","html-keyboard-response","8","2.0.0","37875","67347d8b1384d96ae2d1b0c5","3","12","null","","","","","","","","","<p style='font-size: 30px;'><strong>Okay</strong></p>","null","neutral_feedback","0","test","1","","","","","","","","","","","","","","","","","","","","","","",""
"","","","","","","","","","","","html-button-response","9","2.0.0","39711","67347d8b1384d96ae2d1b0c5","3","12","1831","","","","","","","","","<img src= ""rock_img/I_Diorite_07.jpg"" style=""width:8cm; height:5.239999999999999cm;""><p>What type of rock is this?</p>","4","class_response","0","test","2","Obsidian","Diorite","07","false","5","3","","","","","","","","","","","","","","","","",""
"","","","","","","","","","","","html-keyboard-response","10","2.0.0","40228","67347d8b1384d96ae2d1b0c5","3","12","null","","","","","","","","","<p style='font-size: 30px;'><strong>Okay</strong></p>","null","neutral_feedback","0","test","2","","","","","","","","","","","","","","","","","","","","","","",""
"","","","","","","","","","","","html-button-response","11","2.0.0","41340","67347d8b1384d96ae2d1b0c5","3","12","1109","","","","","","","","","<img src= ""rock_img/I_Gabbro_11.jpg"" style=""width:8cm; height:6.2cm;""><p>What type of rock is this?</p>","4","class_response","0","test","3","Obsidian","Gabbro","11","false","5","4","","","","","","","","","","","","","","","","",""
"","","","","","","","","","","","html-keyboard-response","12","2.0.0","41846","67347d8b1384d96ae2d1b0c5","3","12","null","","","","","","","","","<p style='font-size: 30px;'><strong>Okay</strong></p>","null","neutral_feedback","0","test","3","","","","","","","","","","","","","","","","","","","","","","",""
"","","","","","","","","","","","html-button-response","13","2.0.0","43363","67347d8b1384d96ae2d1b0c5","3","12","1515","","","","","","","","","<img src= ""rock_img/I_Diorite_11.jpg"" style=""width:8cm; height:7.11cm;""><p>What type of rock is this?</p>","5","class_response","0","test","4","Pegmatite","Diorite","11","false","6","3","","","","","","","","","","","","","","","","",""
"","","","","","","","","","","","html-keyboard-response","14","2.0.0","43868","67347d8b1384d96ae2d1b0c5","3","12","null","","","","","","","","","<p style='font-size: 30px;'><strong>Okay</strong></p>","null","neutral_feedback","0","test","4","","","","","","","","","","","","","","","","","","","","","","",""
"","","","","","","","","","","","html-button-response","15","2.0.0","44417","67347d8b1384d96ae2d1b0c5","3","12","547","","","","","","","","","<img src= ""rock_img/I_Pumice_08.jpg"" style=""width:8cm; height:6.67cm;""><p>What type of rock is this?</p>","5","class_response","0","test","5","Pegmatite","Pumice","08","false","6","8","","","","","","","","","","","","","","","","",""
"","","","","","","","","","","","html-keyboard-response","16","2.0.0","44929","67347d8b1384d96ae2d1b0c5","3","12","null","","","","","","","","","<p style='font-size: 30px;'><strong>Okay</strong></p>","null","neutral_feedback","0","test","5","","","","","","","","","","","","","","","","","","","","","","",""
"","","","","","","","","","","","html-button-response","17","2.0.0","46358","67347d8b1384d96ae2d1b0c5","3","12","1428","","","","","","","","","<img src= ""rock_img/I_Andesite_05.jpg"" style=""width:8cm; height:4.12cm;""><p>What type of rock is this?</p>","5","class_response","0","test","6","Pegmatite","Andesite","05","false","6","1","","","","","","","","","","","","","","","","",""
"","","","","","","","","","","","html-keyboard-response","18","2.0.0","46871","67347d8b1384d96ae2d1b0c5","3","12","null","","","","","","","","","<p style='font-size: 30px;'><strong>Okay</strong></p>","null","neutral_feedback","0","test","6","","","","","","","","","","","","","","","","","","","","","","",""
"","","","","","","","","","","","html-button-response","19","2.0.0","47651","67347d8b1384d96ae2d1b0c5","3","12","779","","","","","","","","","<img src= ""rock_img/I_Basalt_01.jpg"" style=""width:8cm; height:7.880000000000001cm;""><p>What type of rock is this?</p>","1","class_response","0","test","7","Basalt","Basalt","01","true","2","2","","","","","","","","","","","","","","","","",""
"","","","","","","","","","","","html-keyboard-response","20","2.0.0","48161","67347d8b1384d96ae2d1b0c5","3","12","null","","","","","","","","","<p style='font-size: 30px;'><strong>Okay</strong></p>","null","neutral_feedback","0","test","7","","","","","","","","","","","","","","","","","","","","","","",""
"","","","","","","","","","","","html-button-response","21","2.0.0","48430","67347d8b1384d96ae2d1b0c5","3","12","267","","","","","","","","","<img src= ""rock_img/I_Gabbro_01.jpg"" style=""width:8cm; height:5.21cm;""><p>What type of rock is this?</p>","5","class_response","0","test","8","Pegmatite","Gabbro","01","false","6","4","","","","","","","","","","","","","","","","",""
"","","","","","","","","","","","html-keyboard-response","22","2.0.0","48936","67347d8b1384d96ae2d1b0c5","3","12","null","","","","","","","","","<p style='font-size: 30px;'><strong>Okay</strong></p>","null","neutral_feedback","0","test","8","","","","","","","","","","","","","","","","","","","","","","",""
"","","","","","","","","","","","html-button-response","23","2.0.0","50645","67347d8b1384d96ae2d1b0c5","3","12","1707","","","","","","","","","<img src= ""rock_img/I_Obsidian_04.jpg"" style=""width:8cm; height:6.930000000000001cm;""><p>What type of rock is this?</p>","5","class_response","0","test","9","Pegmatite","Obsidian","04","false","6","5","","","","","","","","","","","","","","","","",""
"","","","","","","","","","","","html-keyboard-response","24","2.0.0","51160","67347d8b1384d96ae2d1b0c5","3","12","null","","","","","","","","","<p style='font-size: 30px;'><strong>Okay</strong></p>","null","neutral_feedback","0","test","9","","","","","","","","","","","","","","","","","","","","","","",""
"","","","","","","","","","","","html-button-response","25","2.0.0","51390","67347d8b1384d96ae2d1b0c5","3","12","227","","","","","","","","","<img src= ""rock_img/I_Andesite_03.jpg"" style=""width:8cm; height:5.73cm;""><p>What type of rock is this?</p>","5","class_response","0","test","10","Pegmatite","Andesite","03","false","6","1","","","","","","","","","","","","","","","","",""
"","","","","","","","","","","","html-keyboard-response","26","2.0.0","51907","67347d8b1384d96ae2d1b0c5","3","12","null","","","","","","","","","<p style='font-size: 30px;'><strong>Okay</strong></p>","null","neutral_feedback","0","test","10","","","","","","","","","","","","","","","","","","","","","","",""
"","","","","","","","","","","","html-button-response","27","2.0.0","52160","67347d8b1384d96ae2d1b0c5","3","12","250","","","","","","","","","<img src= ""rock_img/I_Gabbro_03.jpg"" style=""width:8cm; height:8.52cm;""><p>What type of rock is this?</p>","1","class_response","0","test","11","Basalt","Gabbro","03","false","2","4","","","","","","","","","","","","","","","","",""
"","","","","","","","","","","","html-keyboard-response","28","2.0.0","52703","67347d8b1384d96ae2d1b0c5","3","12","null","","","","","","","","","<p style='font-size: 30px;'><strong>Okay</strong></p>","null","neutral_feedback","0","test","11","","","","","","","","","","","","","","","","","","","","","","",""
"","","","","","","","","","","","html-button-response","29","2.0.0","53208","67347d8b1384d96ae2d1b0c5","3","12","501","","","","","","","","","<img src= ""rock_img/I_Pumice_03.jpg"" style=""width:8cm; height:6.64cm;""><p>What type of rock is this?</p>","5","class_response","0","test","12","Pegmatite","Pumice","03","false","6","8","","","","","","","","","","","","","","","","",""
"","","","","","","","","","","","html-keyboard-response","30","2.0.0","53717","67347d8b1384d96ae2d1b0c5","3","12","null","","","","","","","","","<p style='font-size: 30px;'><strong>Okay</strong></p>","null","neutral_feedback","0","test","12","","","","","","","","","","","","","","","","","","","","","","",""
"","","","","","","","","","","","html-button-response","31","2.0.0","53811","67347d8b1384d96ae2d1b0c5","3","12","91","","","","","","","","","<img src= ""rock_img/I_Pegmatite_15.jpg"" style=""width:8cm; height:6cm;""><p>What type of rock is this?</p>","5","class_response","0","test","13","Pegmatite","Pegmatite","15","true","6","6","","","","","","","","","","","","","","","","",""
"","","","","","","","","","","","html-keyboard-response","32","2.0.0","54328","67347d8b1384d96ae2d1b0c5","3","12","null","","","","","","","","","<p style='font-size: 30px;'><strong>Okay</strong></p>","null","neutral_feedback","0","test","13","","","","","","","","","","","","","","","","","","","","","","",""
"","","","","","","","","","","","html-button-response","33","2.0.0","54778","67347d8b1384d96ae2d1b0c5","3","12","450","","","","","","","","","<img src= ""rock_img/I_Pegmatite_12.jpg"" style=""width:8cm; height:5.7cm;""><p>What type of rock is this?</p>","5","class_response","0","test","14","Pegmatite","Pegmatite","12","true","6","6","","","","","","","","","","","","","","","","",""
"","","","","","","","","","","","html-keyboard-response","34","2.0.0","55293","67347d8b1384d96ae2d1b0c5","3","12","null","","","","","","","","","<p style='font-size: 30px;'><strong>Okay</strong></p>","null","neutral_feedback","0","test","14","","","","","","","","","","","","","","","","","","","","","","",""
"","","","","","","","","","","","html-button-response","35","2.0.0","55784","67347d8b1384d96ae2d1b0c5","3","12","488","","","","","","","","","<img src= ""rock_img/I_Gabbro_10.jpg"" style=""width:8cm; height:5.680000000000001cm;""><p>What type of rock is this?</p>","5","class_response","0","test","15","Pegmatite","Gabbro","10","false","6","4","","","","","","","","","","","","","","","","",""
"","","","","","","","","","","","html-keyboard-response","36","2.0.0","56294","67347d8b1384d96ae2d1b0c5","3","12","null","","","","","","","","","<p style='font-size: 30px;'><strong>Okay</strong></p>","null","neutral_feedback","0","test","15","","","","","","","","","","","","","","","","","","","","","","",""
"","","","","","","","","","","","html-button-response","37","2.0.0","58574","67347d8b1384d96ae2d1b0c5","3","12","2278","","","","","","","","","<img src= ""rock_img/I_Pegmatite_08.jpg"" style=""width:8cm; height:7.68cm;""><p>What type of rock is this?</p>","1","class_response","0","test","16","Basalt","Pegmatite","08","false","2","6","","","","","","","","","","","","","","","","",""
"","","","","","","","","","","","html-keyboard-response","38","2.0.0","59081","67347d8b1384d96ae2d1b0c5","3","12","null","","","","","","","","","<p style='font-size: 30px;'><strong>Okay</strong></p>","null","neutral_feedback","0","test","16","","","","","","","","","","","","","","","","","","","","","","",""
"","","","","","","","","","","","html-button-response","39","2.0.0","60741","67347d8b1384d96ae2d1b0c5","3","12","1660","","","","","","","","","<img src= ""rock_img/I_Andesite_07.jpg"" style=""width:8cm; height:5.93cm;""><p>What type of rock is this?</p>","5","class_response","0","test","17","Pegmatite","Andesite","07","false","6","1","","","","","","","","","","","","","","","","",""
"","","","","","","","","","","","html-keyboard-response","40","2.0.0","61255","67347d8b1384d96ae2d1b0c5","3","12","null","","","","","","","","","<p style='font-size: 30px;'><strong>Okay</strong></p>","null","neutral_feedback","0","test","17","","","","","","","","","","","","","","","","","","","","","","",""
"","","","","","","","","","","","html-button-response","41","2.0.0","62467","67347d8b1384d96ae2d1b0c5","3","12","1208","","","","","","","","","<img src= ""rock_img/I_Pegmatite_10.jpg"" style=""width:8cm; height:4.16cm;""><p>What type of rock is this?</p>","5","class_response","0","test","18","Pegmatite","Pegmatite","10","true","6","6","","","","","","","","","","","","","","","","",""
"","","","","","","","","","","","html-keyboard-response","42","2.0.0","62971","67347d8b1384d96ae2d1b0c5","3","12","null","","","","","","","","","<p style='font-size: 30px;'><strong>Okay</strong></p>","null","neutral_feedback","0","test","18","","","","","","","","","","","","","","","","","","","","","","",""
"","","","","","","","","","","","html-button-response","43","2.0.0","63069","67347d8b1384d96ae2d1b0c5","3","12","96","","","","","","","","","<img src= ""rock_img/I_Pumice_09.jpg"" style=""width:8cm; height:6.44cm;""><p>What type of rock is this?</p>","1","class_response","0","test","19","Basalt","Pumice","09","false","2","8","","","","","","","","","","","","","","","","",""
"","","","","","","","","","","","html-keyboard-response","44","2.0.0","63582","67347d8b1384d96ae2d1b0c5","3","12","null","","","","","","","","","<p style='font-size: 30px;'><strong>Okay</strong></p>","null","neutral_feedback","0","test","19","","","","","","","","","","","","","","","","","","","","","","",""
"","","","","","","","","","","","html-button-response","45","2.0.0","65210","67347d8b1384d96ae2d1b0c5","3","12","1628","","","","","","","","","<img src= ""rock_img/I_Basalt_09.jpg"" style=""width:8cm; height:6.2cm;""><p>What type of rock is this?</p>","5","class_response","0","test","20","Pegmatite","Basalt","09","false","6","2","","","","","","","","","","","","","","","","",""
"","","","","","","","","","","","html-keyboard-response","46","2.0.0","65715","67347d8b1384d96ae2d1b0c5","3","12","null","","","","","","","","","<p style='font-size: 30px;'><strong>Okay</strong></p>","null","neutral_feedback","0","test","20","","","","","","","","","","","","","","","","","","","","","","",""
"","","","","","","","","","","","html-button-response","47","2.0.0","66730","67347d8b1384d96ae2d1b0c5","3","12","1014","","","","","","","","","<img src= ""rock_img/I_Peridotite_07.jpg"" style=""width:8cm; height:4.83cm;""><p>What type of rock is this?</p>","6","class_response","0","test","21","Peridotite","Peridotite","07","true","7","7","","","","","","","","","","","","","","","","",""
"","","","","","","","","","","","html-keyboard-response","48","2.0.0","67244","67347d8b1384d96ae2d1b0c5","3","12","null","","","","","","","","","<p style='font-size: 30px;'><strong>Okay</strong></p>","null","neutral_feedback","0","test","21","","","","","","","","","","","","","","","","","","","","","","",""
"","","","","","","","","","","","html-button-response","49","2.0.0","67439","67347d8b1384d96ae2d1b0c5","3","12","192","","","","","","","","","<img src= ""rock_img/I_Obsidian_16.jpg"" style=""width:8cm; height:9.3cm;""><p>What type of rock is this?</p>","2","class_response","0","test","22","Diorite","Obsidian","16","false","3","5","","","","","","","","","","","","","","","","",""
"","","","","","","","","","","","html-keyboard-response","50","2.0.0","67985","67347d8b1384d96ae2d1b0c5","3","12","null","","","","","","","","","<p style='font-size: 30px;'><strong>Okay</strong></p>","null","neutral_feedback","0","test","22","","","","","","","","","","","","","","","","","","","","","","",""
"","","","","","","","","","","","html-button-response","51","2.0.0","68529","67347d8b1384d96ae2d1b0c5","3","12","542","","","","","","","","","<img src= ""rock_img/I_Obsidian_06.jpg"" style=""width:8cm; height:6.8cm;""><p>What type of rock is this?</p>","6","class_response","0","test","23","Peridotite","Obsidian","06","false","7","5","","","","","","","","","","","","","","","","",""
"","","","","","","","","","","","html-keyboard-response","52","2.0.0","69046","67347d8b1384d96ae2d1b0c5","3","12","null","","","","","","","","","<p style='font-size: 30px;'><strong>Okay</strong></p>","null","neutral_feedback","0","test","23","","","","","","","","","","","","","","","","","","","","","","",""
"","","","","","","","","","","","html-button-response","53","2.0.0","69570","67347d8b1384d96ae2d1b0c5","3","12","519","","","","","","","","","<img src= ""rock_img/I_Basalt_02.jpg"" style=""width:8cm; height:6.45cm;""><p>What type of rock is this?</p>","6","class_response","0","test","24","Peridotite","Basalt","02","false","7","2","","","","","","","","","","","","","","","","",""
"","","","","","","","","","","","html-keyboard-response","54","2.0.0","70077","67347d8b1384d96ae2d1b0c5","3","12","null","","","","","","","","","<p style='font-size: 30px;'><strong>Okay</strong></p>","null","neutral_feedback","0","test","24","","","","","","","","","","","","","","","","","","","","","","",""
"","","","","","","","","","","","html-button-response","55","2.0.0","71642","67347d8b1384d96ae2d1b0c5","3","12","1561","","","","","","","","","<img src= ""rock_img/I_Peridotite_12.jpg"" style=""width:8cm; height:4.54cm;""><p>What type of rock is this?</p>","6","class_response","0","test","25","Peridotite","Peridotite","12","true","7","7","","","","","","","","","","","","","","","","",""
"","","","","","","","","","","","html-keyboard-response","56","2.0.0","72158","67347d8b1384d96ae2d1b0c5","3","12","null","","","","","","","","","<p style='font-size: 30px;'><strong>Okay</strong></p>","null","neutral_feedback","0","test","25","","","","","","","","","","","","","","","","","","","","","","",""
"","","","","","","","","","","","html-button-response","57","2.0.0","72275","67347d8b1384d96ae2d1b0c5","3","12","113","","","","","","","","","<img src= ""rock_img/I_Andesite_16.jpg"" style=""width:8cm; height:6.010000000000001cm;""><p>What type of rock is this?</p>","6","class_response","0","test","26","Peridotite","Andesite","16","false","7","1","","","","","","","","","","","","","","","","",""
"","","","","","","","","","","","html-keyboard-response","58","2.0.0","72789","67347d8b1384d96ae2d1b0c5","3","12","null","","","","","","","","","<p style='font-size: 30px;'><strong>Okay</strong></p>","null","neutral_feedback","0","test","26","","","","","","","","","","","","","","","","","","","","","","",""
"","","","","","","","","","","","html-button-response","59","2.0.0","72891","67347d8b1384d96ae2d1b0c5","3","12","98","","","","","","","","","<img src= ""rock_img/I_Basalt_14.jpg"" style=""width:8cm; height:5.82cm;""><p>What type of rock is this?</p>","6","class_response","0","test","27","Peridotite","Basalt","14","false","7","2","","","","","","","","","","","","","","","","",""
"","","","","","","","","","","","html-keyboard-response","60","2.0.0","73397","67347d8b1384d96ae2d1b0c5","3","12","null","","","","","","","","","<p style='font-size: 30px;'><strong>Okay</strong></p>","null","neutral_feedback","0","test","27","","","","","","","","","","","","","","","","","","","","","","",""
"","","","","","","","","","","","html-button-response","61","2.0.0","73918","67347d8b1384d96ae2d1b0c5","3","12","518","","","","","","","","","<img src= ""rock_img/I_Obsidian_14.jpg"" style=""width:8cm; height:7.64cm;""><p>What type of rock is this?</p>","2","class_response","0","test","28","Diorite","Obsidian","14","false","3","5","","","","","","","","","","","","","","","","",""
"","","","","","","","","","","","html-keyboard-response","62","2.0.0","74430","67347d8b1384d96ae2d1b0c5","3","12","null","","","","","","","","","<p style='font-size: 30px;'><strong>Okay</strong></p>","null","neutral_feedback","0","test","28","","","","","","","","","","","","","","","","","","","","","","",""
"","","","","","","","","","","","html-button-response","63","2.0.0","74507","67347d8b1384d96ae2d1b0c5","3","12","75","","","","","","","","","<img src= ""rock_img/I_Basalt_05.jpg"" style=""width:8cm; height:8.18cm;""><p>What type of rock is this?</p>","2","class_response","0","test","29","Diorite","Basalt","05","false","3","2","","","","","","","","","","","","","","","","",""
"","","","","","","","","","","","html-keyboard-response","64","2.0.0","75025","67347d8b1384d96ae2d1b0c5","3","12","null","","","","","","","","","<p style='font-size: 30px;'><strong>Okay</strong></p>","null","neutral_feedback","0","test","29","","","","","","","","","","","","","","","","","","","","","","",""
"","","","","","","","","","","","html-button-response","65","2.0.0","76481","67347d8b1384d96ae2d1b0c5","3","12","1453","","","","","","","","","<img src= ""rock_img/I_Pumice_04.jpg"" style=""width:8cm; height:6.819999999999999cm;""><p>What type of rock is this?</p>","6","class_response","0","test","30","Peridotite","Pumice","04","false","7","8","","","","","","","","","","","","","","","","",""
"","","","","","","","","","","","html-keyboard-response","66","2.0.0","76984","67347d8b1384d96ae2d1b0c5","3","12","null","","","","","","","","","<p style='font-size: 30px;'><strong>Okay</strong></p>","null","neutral_feedback","0","test","30","","","","","","","","","","","","","","","","","","","","","","",""
"","","","","","","","","","","","html-button-response","67","2.0.0","77799","67347d8b1384d96ae2d1b0c5","3","12","812","","","","","","","","","<img src= ""rock_img/I_Basalt_08.jpg"" style=""width:8cm; height:10.44cm;""><p>What type of rock is this?</p>","2","class_response","0","test","31","Diorite","Basalt","08","false","3","2","","","","","","","","","","","","","","","","",""
"","","","","","","","","","","","html-keyboard-response","68","2.0.0","78304","67347d8b1384d96ae2d1b0c5","3","12","null","","","","","","","","","<p style='font-size: 30px;'><strong>Okay</strong></p>","null","neutral_feedback","0","test","31","","","","","","","","","","","","","","","","","","","","","","",""
"","","","","","","","","","","","html-button-response","69","2.0.0","79620","67347d8b1384d96ae2d1b0c5","3","12","1314","","","","","","","","","<img src= ""rock_img/I_Pegmatite_03.jpg"" style=""width:8cm; height:5.239999999999999cm;""><p>What type of rock is this?</p>","6","class_response","0","test","32","Peridotite","Pegmatite","03","false","7","6","","","","","","","","","","","","","","","","",""
"","","","","","","","","","","","html-keyboard-response","70","2.0.0","80131","67347d8b1384d96ae2d1b0c5","3","12","null","","","","","","","","","<p style='font-size: 30px;'><strong>Okay</strong></p>","null","neutral_feedback","0","test","32","","","","","","","","","","","","","","","","","","","","","","",""
"","","","","","","","","","","","html-button-response","71","2.0.0","80924","67347d8b1384d96ae2d1b0c5","3","12","791","","","","","","","","","<img src= ""rock_img/I_Pegmatite_16.jpg"" style=""width:8cm; height:5.8cm;""><p>What type of rock is this?</p>","6","class_response","0","test","33","Peridotite","Pegmatite","16","false","7","6","","","","","","","","","","","","","","","","",""
"","","","","","","","","","","","html-keyboard-response","72","2.0.0","81430","67347d8b1384d96ae2d1b0c5","3","12","null","","","","","","","","","<p style='font-size: 30px;'><strong>Okay</strong></p>","null","neutral_feedback","0","test","33","","","","","","","","","","","","","","","","","","","","","","",""
"","","","","","","","","","","","html-button-response","73","2.0.0","81464","67347d8b1384d96ae2d1b0c5","3","12","30","","","","","","","","","<img src= ""rock_img/I_Diorite_10.jpg"" style=""width:8cm; height:5.949999999999999cm;""><p>What type of rock is this?</p>","6","class_response","0","test","34","Peridotite","Diorite","10","false","7","3","","","","","","","","","","","","","","","","",""
"","","","","","","","","","","","html-keyboard-response","74","2.0.0","81979","67347d8b1384d96ae2d1b0c5","3","12","null","","","","","","","","","<p style='font-size: 30px;'><strong>Okay</strong></p>","null","neutral_feedback","0","test","34","","","","","","","","","","","","","","","","","","","","","","",""
"","","","","","","","","","","","html-button-response","75","2.0.0","82397","67347d8b1384d96ae2d1b0c5","3","12","417","","","","","","","","","<img src= ""rock_img/I_Obsidian_07.jpg"" style=""width:8cm; height:4.76cm;""><p>What type of rock is this?</p>","6","class_response","0","test","35","Peridotite","Obsidian","07","false","7","5","","","","","","","","","","","","","","","","",""
"","","","","","","","","","","","html-keyboard-response","76","2.0.0","82900","67347d8b1384d96ae2d1b0c5","3","12","null","","","","","","","","","<p style='font-size: 30px;'><strong>Okay</strong></p>","null","neutral_feedback","0","test","35","","","","","","","","","","","","","","","","","","","","","","",""
"","","","","","","","","","","","html-button-response","77","2.0.0","83572","67347d8b1384d96ae2d1b0c5","3","12","668","","","","","","","","","<img src= ""rock_img/I_Diorite_15.jpg"" style=""width:8cm; height:5.54cm;""><p>What type of rock is this?</p>","6","class_response","0","test","36","Peridotite","Diorite","15","false","7","3","","","","","","","","","","","","","","","","",""
"","","","","","","","","","","","html-keyboard-response","78","2.0.0","84085","67347d8b1384d96ae2d1b0c5","3","12","null","","","","","","","","","<p style='font-size: 30px;'><strong>Okay</strong></p>","null","neutral_feedback","0","test","36","","","","","","","","","","","","","","","","","","","","","","",""
"","","","","","","","","","","","html-button-response","79","2.0.0","84482","67347d8b1384d96ae2d1b0c5","3","12","396","","","","","","","","","<img src= ""rock_img/I_Diorite_08.jpg"" style=""width:8cm; height:6.37cm;""><p>What type of rock is this?</p>","6","class_response","0","test","37","Peridotite","Diorite","08","false","7","3","","","","","","","","","","","","","","","","",""
"","","","","","","","","","","","html-keyboard-response","80","2.0.0","84992","67347d8b1384d96ae2d1b0c5","3","12","null","","","","","","","","","<p style='font-size: 30px;'><strong>Okay</strong></p>","null","neutral_feedback","0","test","37","","","","","","","","","","","","","","","","","","","","","","",""
"","","","","","","","","","","","html-button-response","81","2.0.0","85356","67347d8b1384d96ae2d1b0c5","3","12","361","","","","","","","","","<img src= ""rock_img/I_Gabbro_05.jpg"" style=""width:8cm; height:6cm;""><p>What type of rock is this?</p>","6","class_response","0","test","38","Peridotite","Gabbro","05","false","7","4","","","","","","","","","","","","","","","","",""
"","","","","","","","","","","","html-keyboard-response","82","2.0.0","85869","67347d8b1384d96ae2d1b0c5","3","12","null","","","","","","","","","<p style='font-size: 30px;'><strong>Okay</strong></p>","null","neutral_feedback","0","test","38","","","","","","","","","","","","","","","","","","","","","","",""
"","","","","","","","","","","","html-button-response","83","2.0.0","86853","67347d8b1384d96ae2d1b0c5","3","12","982","","","","","","","","","<img src= ""rock_img/I_Pumice_05.jpg"" style=""width:8cm; height:7.25cm;""><p>What type of rock is this?</p>","6","class_response","0","test","39","Peridotite","Pumice","05","false","7","8","","","","","","","","","","","","","","","","",""
"","","","","","","","","","","","html-keyboard-response","84","2.0.0","87367","67347d8b1384d96ae2d1b0c5","3","12","null","","","","","","","","","<p style='font-size: 30px;'><strong>Okay</strong></p>","null","neutral_feedback","0","test","39","","","","","","","","","","","","","","","","","","","","","","",""
"","","","","","","","","","","","html-button-response","85","2.0.0","88650","67347d8b1384d96ae2d1b0c5","3","12","1280","","","","","","","","","<img src= ""rock_img/I_Andesite_11.jpg"" style=""width:8cm; height:4.92cm;""><p>What type of rock is this?</p>","6","class_response","0","test","40","Peridotite","Andesite","11","false","7","1","","","","","","","","","","","","","","","","",""
"","","","","","","","","","","","html-keyboard-response","86","2.0.0","89163","67347d8b1384d96ae2d1b0c5","3","12","null","","","","","","","","","<p style='font-size: 30px;'><strong>Okay</strong></p>","null","neutral_feedback","0","test","40","","","","","","","","","","","","","","","","","","","","","","",""
"","","","","","","","","","","","html-button-response","87","2.0.0","89907","67347d8b1384d96ae2d1b0c5","3","12","742","","","","","","","","","<img src= ""rock_img/I_Pumice_14.jpg"" style=""width:8cm; height:6.39cm;""><p>What type of rock is this?</p>","5","class_response","0","test","41","Pegmatite","Pumice","14","false","6","8","","","","","","","","","","","","","","","","",""
"","","","","","","","","","","","html-keyboard-response","88","2.0.0","90410","67347d8b1384d96ae2d1b0c5","3","12","null","","","","","","","","","<p style='font-size: 30px;'><strong>Okay</strong></p>","null","neutral_feedback","0","test","41","","","","","","","","","","","","","","","","","","","","","","",""
"","","","","","","","","","","","html-button-response","89","2.0.0","91655","67347d8b1384d96ae2d1b0c5","3","12","1243","","","","","","","","","<img src= ""rock_img/I_Gabbro_15.jpg"" style=""width:8cm; height:6.29cm;""><p>What type of rock is this?</p>","7","class_response","0","test","42","Pumice","Gabbro","15","false","8","4","","","","","","","","","","","","","","","","",""
"","","","","","","","","","","","html-keyboard-response","90","2.0.0","92221","67347d8b1384d96ae2d1b0c5","3","12","null","","","","","","","","","<p style='font-size: 30px;'><strong>Okay</strong></p>","null","neutral_feedback","0","test","42","","","","","","","","","","","","","","","","","","","","","","",""
"","","","","","","","","","","","html-button-response","91","2.0.0","92722","67347d8b1384d96ae2d1b0c5","3","12","498","","","","","","","","","<img src= ""rock_img/I_Peridotite_02.jpg"" style=""width:8cm; height:5.859999999999999cm;""><p>What type of rock is this?</p>","6","class_response","0","test","43","Peridotite","Peridotite","02","true","7","7","","","","","","","","","","","","","","","","",""
"","","","","","","","","","","","html-keyboard-response","92","2.0.0","93236","67347d8b1384d96ae2d1b0c5","3","12","null","","","","","","","","","<p style='font-size: 30px;'><strong>Okay</strong></p>","null","neutral_feedback","0","test","43","","","","","","","","","","","","","","","","","","","","","","",""
"","","","","","","","","","","","html-button-response","93","2.0.0","94567","67347d8b1384d96ae2d1b0c5","3","12","1329","","","","","","","","","<img src= ""rock_img/I_Peridotite_06.jpg"" style=""width:8cm; height:7.53cm;""><p>What type of rock is this?</p>","6","class_response","0","test","44","Peridotite","Peridotite","06","true","7","7","","","","","","","","","","","","","","","","",""
"","","","","","","","","","","","html-keyboard-response","94","2.0.0","95074","67347d8b1384d96ae2d1b0c5","3","12","null","","","","","","","","","<p style='font-size: 30px;'><strong>Okay</strong></p>","null","neutral_feedback","0","test","44","","","","","","","","","","","","","","","","","","","","","","",""
"","","","","","","","","","","","html-button-response","95","2.0.0","95668","67347d8b1384d96ae2d1b0c5","3","12","591","","","","","","","","","<img src= ""rock_img/I_Peridotite_16.jpg"" style=""width:8cm; height:6.989999999999999cm;""><p>What type of rock is this?</p>","6","class_response","0","test","45","Peridotite","Peridotite","16","true","7","7","","","","","","","","","","","","","","","","",""
"","","","","","","","","","","","html-keyboard-response","96","2.0.0","96184","67347d8b1384d96ae2d1b0c5","3","12","null","","","","","","","","","<p style='font-size: 30px;'><strong>Okay</strong></p>","null","neutral_feedback","0","test","45","","","","","","","","","","","","","","","","","","","","","","",""
"","","","","","","","","","","","html-button-response","97","2.0.0","96414","67347d8b1384d96ae2d1b0c5","3","12","229","","","","","","","","","<img src= ""rock_img/I_Andesite_01.jpg"" style=""width:8cm; height:5.87cm;""><p>What type of rock is this?</p>","6","class_response","0","test","46","Peridotite","Andesite","01","false","7","1","","","","","","","","","","","","","","","","",""
"","","","","","","","","","","","html-keyboard-response","98","2.0.0","96925","67347d8b1384d96ae2d1b0c5","3","12","null","","","","","","","","","<p style='font-size: 30px;'><strong>Okay</strong></p>","null","neutral_feedback","0","test","46","","","","","","","","","","","","","","","","","","","","","","",""
"","","","","","","","","","","","html-button-response","99","2.0.0","97631","67347d8b1384d96ae2d1b0c5","3","12","705","","","","","","","","","<img src= ""rock_img/I_Diorite_16.jpg"" style=""width:8cm; height:6.74cm;""><p>What type of rock is this?</p>","6","class_response","0","test","47","Peridotite","Diorite","16","false","7","3","","","","","","","","","","","","","","","","",""
"","","","","","","","","","","","html-keyboard-response","100","2.0.0","98139","67347d8b1384d96ae2d1b0c5","3","12","null","","","","","","","","","<p style='font-size: 30px;'><strong>Okay</strong></p>","null","neutral_feedback","0","test","47","","","","","","","","","","","","","","","","","","","","","","",""
"","","","","","","","","","","","html-button-response","101","2.0.0","98770","67347d8b1384d96ae2d1b0c5","3","12","629","","","","","","","","","<img src= ""rock_img/I_Peridotite_14.jpg"" style=""width:8cm; height:5.3cm;""><p>What type of rock is this?</p>","6","class_response","0","test","48","Peridotite","Peridotite","14","true","7","7","","","","","","","","","","","","","","","","",""
"","","","","","","","","","","","html-keyboard-response","102","2.0.0","99275","67347d8b1384d96ae2d1b0c5","3","12","null","","","","","","","","","<p style='font-size: 30px;'><strong>Okay</strong></p>","null","neutral_feedback","0","test","48","","","","","","","","","","","","","","","","","","","","","","",""
"","","","","","","","","","","","instructions","103","2.0.0","103823","67347d8b1384d96ae2d1b0c5","3","12","4491","","","","","","","","[{""page_index"":0,""viewing_time"":1510},{""page_index"":1,""viewing_time"":2981}]","","","","","","","","","","","","","","","","","","","","","","","","","","","","",""
"","","","","","","","","","","","html-button-response","104","2.0.0","105404","67347d8b1384d96ae2d1b0c5","3","12","1579","","","","","","","","","","0","start_train","","","","","","","","","","","","","","","","","","","","","","","","","",""
"","","","","","","","","","","","html-button-response","106","2.0.0","108135","67347d8b1384d96ae2d1b0c5","3","12","2728","","","","","","","","","<img src= ""rock_img/I_Diorite_13.jpg"" style=""width:8cm; height:6.29cm;""><p>What type of rock is this?</p>","2","class_response","1","train","1","Diorite","Diorite","13","true","3","3","","","","","","","","","","","","","","","","",""
"","","","","","","","","","","","html-button-response","107","2.0.0","109524","67347d8b1384d96ae2d1b0c5","3","12","1387","","","","","","","","","<img src= rock_img/I_Diorite_13.jpg style=""width:8cm; height:6.29cm;""><p style='font-size: 30px; color: green;'><strong>Correct!</strong></p><p style='font-size: 30px;'><strong>This rock is diorite</strong></p>","0","corr_feedback","1","train","1","","","","","","","","","","","","","","","","","","","","","","",""
"","","","","","","","","","","","html-button-response","108","2.0.0","110650","67347d8b1384d96ae2d1b0c5","3","12","1124","","","","","","","","","<img src= ""rock_img/I_Basalt_16.jpg"" style=""width:8cm; height:7.659999999999999cm;""><p>What type of rock is this?</p>","6","class_response","1","train","2","Peridotite","Basalt","16","false","7","2","","","","","","","","","","","","","","","","",""
"","","","","","","","","","","","html-button-response","109","2.0.0","112458","67347d8b1384d96ae2d1b0c5","3","12","1807","","","","","","","","","<img src= rock_img/I_Basalt_16.jpg style=""width:8cm; height:7.659999999999999cm;""><p style='font-size: 30px; color: red;'><strong>Incorrect!</strong></p><p style='font-size: 30px;'><strong>This rock is basalt</strong></p>","0","corr_feedback","1","train","2","","","","","","","","","","","","","","","","","","","","","","",""
"","","","","","","","","","","","html-button-response","110","2.0.0","115334","67347d8b1384d96ae2d1b0c5","3","12","2873","","","","","","","","","<img src= ""rock_img/I_Pumice_10.jpg"" style=""width:8cm; height:7.609999999999999cm;""><p>What type of rock is this?</p>","7","class_response","1","train","3","Pumice","Pumice","10","true","8","8","","","","","","","","","","","","","","","","",""
"","","","","","","","","","","","html-button-response","111","2.0.0","116723","67347d8b1384d96ae2d1b0c5","3","12","1388","","","","","","","","","<img src= rock_img/I_Pumice_10.jpg style=""width:8cm; height:7.609999999999999cm;""><p style='font-size: 30px; color: green;'><strong>Correct!</strong></p><p style='font-size: 30px;'><strong>This rock is pumice</strong></p>","0","corr_feedback","1","train","3","","","","","","","","","","","","","","","","","","","","","","",""
"","","","","","","","","","","","html-button-response","112","2.0.0","118949","67347d8b1384d96ae2d1b0c5","3","12","2224","","","","","","","","","<img src= ""rock_img/I_Peridotite_05.jpg"" style=""width:8cm; height:7.1499999999999995cm;""><p>What type of rock is this?</p>","2","class_response","1","train","4","Diorite","Peridotite","05","false","3","7","","","","","","","","","","","","","","","","",""
"","","","","","","","","","","","html-button-response","113","2.0.0","120027","67347d8b1384d96ae2d1b0c5","3","12","1076","","","","","","","","","<img src= rock_img/I_Peridotite_05.jpg style=""width:8cm; height:7.1499999999999995cm;""><p style='font-size: 30px; color: red;'><strong>Incorrect!</strong></p><p style='font-size: 30px;'><strong>This rock is peridotite</strong></p>","0","corr_feedback","1","train","4","","","","","","","","","","","","","","","","","","","","","","",""
"","","","","","","","","","","","html-button-response","114","2.0.0","121860","67347d8b1384d96ae2d1b0c5","3","12","1830","","","","","","","","","<img src= ""rock_img/I_Obsidian_08.jpg"" style=""width:8cm; height:7.39cm;""><p>What type of rock is this?</p>","4","class_response","1","train","5","Obsidian","Obsidian","08","true","5","5","","","","","","","","","","","","","","","","",""
"","","","","","","","","","","","html-button-response","115","2.0.0","123285","67347d8b1384d96ae2d1b0c5","3","12","1423","","","","","","","","","<img src= rock_img/I_Obsidian_08.jpg style=""width:8cm; height:7.39cm;""><p style='font-size: 30px; color: green;'><strong>Correct!</strong></p><p style='font-size: 30px;'><strong>This rock is obsidian</strong></p>","0","corr_feedback","1","train","5","","","","","","","","","","","","","","","","","","","","","","",""
"","","","","","","","","","","","html-button-response","116","2.0.0","126292","67347d8b1384d96ae2d1b0c5","3","12","3005","","","","","","","","","<img src= ""rock_img/I_Gabbro_09.jpg"" style=""width:8cm; height:7.279999999999999cm;""><p>What type of rock is this?</p>","3","class_response","1","train","6","Gabbro","Gabbro","09","true","4","4","","","","","","","","","","","","","","","","",""
"","","","","","","","","","","","html-button-response","117","2.0.0","127537","67347d8b1384d96ae2d1b0c5","3","12","1243","","","","","","","","","<img src= rock_img/I_Gabbro_09.jpg style=""width:8cm; height:7.279999999999999cm;""><p style='font-size: 30px; color: green;'><strong>Correct!</strong></p><p style='font-size: 30px;'><strong>This rock is gabbro</strong></p>","0","corr_feedback","1","train","6","","","","","","","","","","","","","","","","","","","","","","",""
"","","","","","","","","","","","html-button-response","118","2.0.0","130147","67347d8b1384d96ae2d1b0c5","3","12","2608","","","","","","","","","<img src= ""rock_img/I_Basalt_11.jpg"" style=""width:8cm; height:5.359999999999999cm;""><p>What type of rock is this?</p>","0","class_response","1","train","7","Andesite","Basalt","11","false","1","2","","","","","","","","","","","","","","","","",""
"","","","","","","","","","","","html-button-response","119","2.0.0","131716","67347d8b1384d96ae2d1b0c5","3","12","1567","","","","","","","","","<img src= rock_img/I_Basalt_11.jpg style=""width:8cm; height:5.359999999999999cm;""><p style='font-size: 30px; color: red;'><strong>Incorrect!</strong></p><p style='font-size: 30px;'><strong>This rock is basalt</strong></p>","0","corr_feedback","1","train","7","","","","","","","","","","","","","","","","","","","","","","",""
"","","","","","","","","","","","html-button-response","120","2.0.0","133538","67347d8b1384d96ae2d1b0c5","3","12","1818","","","","","","","","","<img src= ""rock_img/I_Peridotite_08.jpg"" style=""width:8cm; height:6.7cm;""><p>What type of rock is this?</p>","2","class_response","1","train","8","Diorite","Peridotite","08","false","3","7","","","","","","","","","","","","","","","","",""
"","","","","","","","","","","","html-button-response","121","2.0.0","134786","67347d8b1384d96ae2d1b0c5","3","12","1241","","","","","","","","","<img src= rock_img/I_Peridotite_08.jpg style=""width:8cm; height:6.7cm;""><p style='font-size: 30px; color: red;'><strong>Incorrect!</strong></p><p style='font-size: 30px;'><strong>This rock is peridotite</strong></p>","0","corr_feedback","1","train","8","","","","","","","","","","","","","","","","","","","","","","",""
"","","","","","","","","","","","html-button-response","122","2.0.0","137216","67347d8b1384d96ae2d1b0c5","3","12","2420","","","","","","","","","<img src= ""rock_img/I_Andesite_02.jpg"" style=""width:8cm; height:8.5cm;""><p>What type of rock is this?</p>","0","class_response","1","train","9","Andesite","Andesite","02","true","1","1","","","","","","","","","","","","","","","","",""
"","","","","","","","","","","","html-button-response","123","2.0.0","139236","67347d8b1384d96ae2d1b0c5","3","12","2015","","","","","","","","","<img src= rock_img/I_Andesite_02.jpg style=""width:8cm; height:8.5cm;""><p style='font-size: 30px; color: green;'><strong>Correct!</strong></p><p style='font-size: 30px;'><strong>This rock is andesite</strong></p>","0","corr_feedback","1","train","9","","","","","","","","","","","","","","","","","","","","","","",""
"","","","","","","","","","","","html-button-response","124","2.0.0","140985","67347d8b1384d96ae2d1b0c5","3","12","1745","","","","","","","","","<img src= ""rock_img/I_Obsidian_11.jpg"" style=""width:8cm; height:6.05cm;""><p>What type of rock is this?</p>","4","class_response","1","train","10","Obsidian","Obsidian","11","true","5","5","","","","","","","","","","","","","","","","",""
"","","","","","","","","","","","html-button-response","125","2.0.0","143943","67347d8b1384d96ae2d1b0c5","3","12","2954","","","","","","","","","<img src= rock_img/I_Obsidian_11.jpg style=""width:8cm; height:6.05cm;""><p style='font-size: 30px; color: green;'><strong>Correct!</strong></p><p style='font-size: 30px;'><strong>This rock is obsidian</strong></p>","0","corr_feedback","1","train","10","","","","","","","","","","","","","","","","","","","","","","",""
"","","","","","","","","","","","html-button-response","126","2.0.0","146411","67347d8b1384d96ae2d1b0c5","3","12","2464","","","","","","","","","<img src= ""rock_img/I_Andesite_06.jpg"" style=""width:8cm; height:6.840000000000001cm;""><p>What type of rock is this?</p>","0","class_response","1","train","11","Andesite","Andesite","06","true","1","1","","","","","","","","","","","","","","","","",""
"","","","","","","","","","","","html-button-response","127","2.0.0","147967","67347d8b1384d96ae2d1b0c5","3","12","1554","","","","","","","","","<img src= rock_img/I_Andesite_06.jpg style=""width:8cm; height:6.840000000000001cm;""><p style='font-size: 30px; color: green;'><strong>Correct!</strong></p><p style='font-size: 30px;'><strong>This rock is andesite</strong></p>","0","corr_feedback","1","train","11","","","","","","","","","","","","","","","","","","","","","","",""
"","","","","","","","","","","","html-button-response","128","2.0.0","149513","67347d8b1384d96ae2d1b0c5","3","12","1544","","","","","","","","","<img src= ""rock_img/I_Pegmatite_13.jpg"" style=""width:8cm; height:4.95cm;""><p>What type of rock is this?</p>","5","class_response","1","train","12","Pegmatite","Pegmatite","13","true","6","6","","","","","","","","","","","","","","","","",""
"","","","","","","","","","","","html-button-response","129","2.0.0","150734","67347d8b1384d96ae2d1b0c5","3","12","1219","","","","","","","","","<img src= rock_img/I_Pegmatite_13.jpg style=""width:8cm; height:4.95cm;""><p style='font-size: 30px; color: green;'><strong>Correct!</strong></p><p style='font-size: 30px;'><strong>This rock is pegmatite</strong></p>","0","corr_feedback","1","train","12","","","","","","","","","","","","","","","","","","","","","","",""
"","","","","","","","","","","","instructions","130","2.0.0","159345","67347d8b1384d96ae2d1b0c5","3","12","8609","","","","","","","","[{""page_index"":0,""viewing_time"":1591},{""page_index"":1,""viewing_time"":1992},{""page_index"":2,""viewing_time"":2127},{""page_index"":3,""viewing_time"":2899}]","","","","","","","","","","","","","","","","","","","","","","","","","","","","",""
"","","","","","","","","","","","html-button-response","131","2.0.0","160949","67347d8b1384d96ae2d1b0c5","3","12","1603","","","","","","","","","","0","start_train","","","","","","","","","","","","","","","","","","","","","","","","","",""
"","","","","","","","","","","","html-button-response","132","2.0.0","164147","67347d8b1384d96ae2d1b0c5","3","12","","","","","","","","","","","","cat_selection","1","train","1","","","","","","","3","7","3194","Diorite","Peridotite","[0.1569767441860465,0.13372093023255813,0.1569767441860465,0.1569767441860465,0.13372093023255813,0.0872093023255814,0.01744186046511628,0.1569767441860465]","[0.0498068946053242,0.049366125626516016,null,0.06449552082410677,0.16264097666021862,0.16831587726237393,0.466168204356473,0.03920640066498749]","","","","","","","","","",""
"","","","","","","","","","","","paired-cat-display","133","1.0.0","235196","67347d8b1384d96ae2d1b0c5","3","12","","","","","","","","","","","","paired_cat_display","1","train","1","","","","","","","","","6104","","","","","rough surface rocks.","Barely smooth surface rocks","64933","","","","","","",""
"","","","","","","","","","","","html-button-response","134","2.0.0","240756","67347d8b1384d96ae2d1b0c5","3","12","","","","","","","","","","","","cat_selection","1","train","2","","","","","","","3","5","5551","Diorite","Obsidian","[0.1569767441860465,0.13372093023255813,0.1569767441860465,0.1569767441860465,0.13372093023255813,0.0872093023255814,0.01744186046511628,0.1569767441860465]","[0.0498068946053242,0.049366125626516016,null,0.06449552082410677,0.16264097666021862,0.16831587726237393,0.466168204356473,0.03920640066498749]","","","","","","","","","",""
"","","","","","","","","","","","paired-cat-display","135","1.0.0","278202","67347d8b1384d96ae2d1b0c5","3","12","","","","","","","","","","","","paired_cat_display","1","train","2","","","","","","","","","6745","","","","","has rough surfaces ","","30690","has fine smooth surfaces ","","","","","",""
"","","","","","","","","","","","html-button-response","136","2.0.0","280132","67347d8b1384d96ae2d1b0c5","3","12","","","","","","","","","","","","cat_selection","1","train","3","","","","","","","1","7","1924","Andesite","Peridotite","[0.1569767441860465,0.13372093023255813,0.1569767441860465,0.1569767441860465,0.13372093023255813,0.0872093023255814,0.01744186046511628,0.1569767441860465]","[null,0.05496030698730767,0.044163660014689896,0.05448154164644045,0.059552545971136045,0.35600888105387496,0.36906256463343823,0.06177049969311272]","","","","","","","","","",""
"","","","","","","","","","","","paired-cat-display","137","1.0.0","326060","67347d8b1384d96ae2d1b0c5","3","12","","","","","","","","","","","","paired_cat_display","1","train","3","","","","","","","","","6728","","","","","","Has kind of smooth surfaces ","39194","","Kind of porous rocks","","","","",""
"","","","","","","","","","","","instructions","138","2.0.0","334402","67347d8b1384d96ae2d1b0c5","3","12","8336","","","","","","","","[{""page_index"":0,""viewing_time"":6062},{""page_index"":1,""viewing_time"":2274}]","","","","","","","","","","","","","","","","","","","","","","","","","","","","",""
"","","","","","","","","","","","html-button-response","139","2.0.0","336029","67347d8b1384d96ae2d1b0c5","3","12","1621","","","","","","","","","","0","start_test","","","","","","","","","","","","","","","","","","","","","","","","","",""
"","","","","","","","","","","","html-button-response","140","2.0.0","361704","67347d8b1384d96ae2d1b0c5","3","12","25670","","","","","","","","","<img src= ""rock_img/I_Andesite_01.jpg"" style=""width:8cm; height:5.87cm;""><p>What type of rock is this?</p>","3","class_response","1","test","1","Gabbro","Andesite","01","false","4","1","","","","","","","","","","","","","","","","",""
"","","","","","","","","","","","html-keyboard-response","141","2.0.0","362209","67347d8b1384d96ae2d1b0c5","3","12","null","","","","","","","","","<p style='font-size: 30px;'><strong>Okay</strong></p>","null","neutral_feedback","1","test","1","","","","","","","","","","","","","","","","","","","","","","",""
"","","","","","","","","","","","html-button-response","142","2.0.0","364231","67347d8b1384d96ae2d1b0c5","3","12","2017","","","","","","","","","<img src= ""rock_img/I_Pegmatite_03.jpg"" style=""width:8cm; height:5.239999999999999cm;""><p>What type of rock is this?</p>","5","class_response","1","test","2","Pegmatite","Pegmatite","03","true","6","6","","","","","","","","","","","","","","","","",""
"","","","","","","","","","","","html-keyboard-response","143","2.0.0","364735","67347d8b1384d96ae2d1b0c5","3","12","null","","","","","","","","","<p style='font-size: 30px;'><strong>Okay</strong></p>","null","neutral_feedback","1","test","2","","","","","","","","","","","","","","","","","","","","","","",""
"","","","","","","","","","","","html-button-response","144","2.0.0","366518","67347d8b1384d96ae2d1b0c5","3","12","1780","","","","","","","","","<img src= ""rock_img/I_Obsidian_16.jpg"" style=""width:8cm; height:9.3cm;""><p>What type of rock is this?</p>","4","class_response","1","test","3","Obsidian","Obsidian","16","true","5","5","","","","","","","","","","","","","","","","",""
"","","","","","","","","","","","html-keyboard-response","145","2.0.0","367022","67347d8b1384d96ae2d1b0c5","3","12","null","","","","","","","","","<p style='font-size: 30px;'><strong>Okay</strong></p>","null","neutral_feedback","1","test","3","","","","","","","","","","","","","","","","","","","","","","",""
"","","","","","","","","","","","html-button-response","146","2.0.0","369536","67347d8b1384d96ae2d1b0c5","3","12","2511","","","","","","","","","<img src= ""rock_img/I_Basalt_14.jpg"" style=""width:8cm; height:5.82cm;""><p>What type of rock is this?</p>","3","class_response","1","test","4","Gabbro","Basalt","14","false","4","2","","","","","","","","","","","","","","","","",""
"","","","","","","","","","","","html-keyboard-response","147","2.0.0","370049","67347d8b1384d96ae2d1b0c5","3","12","null","","","","","","","","","<p style='font-size: 30px;'><strong>Okay</strong></p>","null","neutral_feedback","1","test","4","","","","","","","","","","","","","","","","","","","","","","",""
"","","","","","","","","","","","html-button-response","148","2.0.0","371727","67347d8b1384d96ae2d1b0c5","3","12","1675","","","","","","","","","<img src= ""rock_img/I_Pegmatite_10.jpg"" style=""width:8cm; height:4.16cm;""><p>What type of rock is this?</p>","5","class_response","1","test","5","Pegmatite","Pegmatite","10","true","6","6","","","","","","","","","","","","","","","","",""
"","","","","","","","","","","","html-keyboard-response","149","2.0.0","372236","67347d8b1384d96ae2d1b0c5","3","12","null","","","","","","","","","<p style='font-size: 30px;'><strong>Okay</strong></p>","null","neutral_feedback","1","test","5","","","","","","","","","","","","","","","","","","","","","","",""
"","","","","","","","","","","","html-button-response","150","2.0.0","377703","67347d8b1384d96ae2d1b0c5","3","12","5465","","","","","","","","","<img src= ""rock_img/I_Gabbro_03.jpg"" style=""width:8cm; height:8.52cm;""><p>What type of rock is this?</p>","3","class_response","1","test","6","Gabbro","Gabbro","03","true","4","4","","","","","","","","","","","","","","","","",""
"","","","","","","","","","","","html-keyboard-response","151","2.0.0","378217","67347d8b1384d96ae2d1b0c5","3","12","null","","","","","","","","","<p style='font-size: 30px;'><strong>Okay</strong></p>","null","neutral_feedback","1","test","6","","","","","","","","","","","","","","","","","","","","","","",""
"","","","","","","","","","","","html-button-response","152","2.0.0","379799","67347d8b1384d96ae2d1b0c5","3","12","1578","","","","","","","","","<img src= ""rock_img/I_Basalt_02.jpg"" style=""width:8cm; height:6.45cm;""><p>What type of rock is this?</p>","1","class_response","1","test","7","Basalt","Basalt","02","true","2","2","","","","","","","","","","","","","","","","",""
"","","","","","","","","","","","html-keyboard-response","153","2.0.0","380315","67347d8b1384d96ae2d1b0c5","3","12","null","","","","","","","","","<p style='font-size: 30px;'><strong>Okay</strong></p>","null","neutral_feedback","1","test","7","","","","","","","","","","","","","","","","","","","","","","",""
"","","","","","","","","","","","html-button-response","154","2.0.0","383487","67347d8b1384d96ae2d1b0c5","3","12","3169","","","","","","","","","<img src= ""rock_img/I_Diorite_16.jpg"" style=""width:8cm; height:6.74cm;""><p>What type of rock is this?</p>","2","class_response","1","test","8","Diorite","Diorite","16","true","3","3","","","","","","","","","","","","","","","","",""
"","","","","","","","","","","","html-keyboard-response","155","2.0.0","383997","67347d8b1384d96ae2d1b0c5","3","12","null","","","","","","","","","<p style='font-size: 30px;'><strong>Okay</strong></p>","null","neutral_feedback","1","test","8","","","","","","","","","","","","","","","","","","","","","","",""
"","","","","","","","","","","","html-button-response","156","2.0.0","393038","67347d8b1384d96ae2d1b0c5","3","12","9037","","","","","","","","","<img src= ""rock_img/I_Gabbro_15.jpg"" style=""width:8cm; height:6.29cm;""><p>What type of rock is this?</p>","0","class_response","1","test","9","Andesite","Gabbro","15","false","1","4","","","","","","","","","","","","","","","","",""
"","","","","","","","","","","","html-keyboard-response","157","2.0.0","393545","67347d8b1384d96ae2d1b0c5","3","12","null","","","","","","","","","<p style='font-size: 30px;'><strong>Okay</strong></p>","null","neutral_feedback","1","test","9","","","","","","","","","","","","","","","","","","","","","","",""
"","","","","","","","","","","","html-button-response","158","2.0.0","415670","67347d8b1384d96ae2d1b0c5","3","12","22123","","","","","","","","","<img src= ""rock_img/I_Peridotite_14.jpg"" style=""width:8cm; height:5.3cm;""><p>What type of rock is this?</p>","2","class_response","1","test","10","Diorite","Peridotite","14","false","3","7","","","","","","","","","","","","","","","","",""
"","","","","","","","","","","","html-keyboard-response","159","2.0.0","416181","67347d8b1384d96ae2d1b0c5","3","12","null","","","","","","","","","<p style='font-size: 30px;'><strong>Okay</strong></p>","null","neutral_feedback","1","test","10","","","","","","","","","","","","","","","","","","","","","","",""
"","","","","","","","","","","","html-button-response","160","2.0.0","417862","67347d8b1384d96ae2d1b0c5","3","12","1677","","","","","","","","","<img src= ""rock_img/I_Pumice_03.jpg"" style=""width:8cm; height:6.64cm;""><p>What type of rock is this?</p>","7","class_response","1","test","11","Pumice","Pumice","03","true","8","8","","","","","","","","","","","","","","","","",""
"","","","","","","","","","","","html-keyboard-response","161","2.0.0","418366","67347d8b1384d96ae2d1b0c5","3","12","null","","","","","","","","","<p style='font-size: 30px;'><strong>Okay</strong></p>","null","neutral_feedback","1","test","11","","","","","","","","","","","","","","","","","","","","","","",""
"","","","","","","","","","","","html-button-response","162","2.0.0","420352","67347d8b1384d96ae2d1b0c5","3","12","1984","","","","","","","","","<img src= ""rock_img/I_Obsidian_05.jpg"" style=""width:8cm; height:6.33cm;""><p>What type of rock is this?</p>","4","class_response","1","test","12","Obsidian","Obsidian","05","true","5","5","","","","","","","","","","","","","","","","",""
"","","","","","","","","","","","html-keyboard-response","163","2.0.0","420867","67347d8b1384d96ae2d1b0c5","3","12","null","","","","","","","","","<p style='font-size: 30px;'><strong>Okay</strong></p>","null","neutral_feedback","1","test","12","","","","","","","","","","","","","","","","","","","","","","",""
"","","","","","","","","","","","html-button-response","164","2.0.0","424328","67347d8b1384d96ae2d1b0c5","3","12","3458","","","","","","","","","<img src= ""rock_img/I_Peridotite_16.jpg"" style=""width:8cm; height:6.989999999999999cm;""><p>What type of rock is this?</p>","3","class_response","1","test","13","Gabbro","Peridotite","16","false","4","7","","","","","","","","","","","","","","","","",""
"","","","","","","","","","","","html-keyboard-response","165","2.0.0","424831","67347d8b1384d96ae2d1b0c5","3","12","null","","","","","","","","","<p style='font-size: 30px;'><strong>Okay</strong></p>","null","neutral_feedback","1","test","13","","","","","","","","","","","","","","","","","","","","","","",""
"","","","","","","","","","","","html-button-response","166","2.0.0","426507","67347d8b1384d96ae2d1b0c5","3","12","1674","","","","","","","","","<img src= ""rock_img/I_Basalt_05.jpg"" style=""width:8cm; height:8.18cm;""><p>What type of rock is this?</p>","1","class_response","1","test","14","Basalt","Basalt","05","true","2","2","","","","","","","","","","","","","","","","",""
"","","","","","","","","","","","html-keyboard-response","167","2.0.0","427009","67347d8b1384d96ae2d1b0c5","3","12","null","","","","","","","","","<p style='font-size: 30px;'><strong>Okay</strong></p>","null","neutral_feedback","1","test","14","","","","","","","","","","","","","","","","","","","","","","",""
"","","","","","","","","","","","html-button-response","168","2.0.0","428591","67347d8b1384d96ae2d1b0c5","3","12","1580","","","","","","","","","<img src= ""rock_img/I_Obsidian_14.jpg"" style=""width:8cm; height:7.64cm;""><p>What type of rock is this?</p>","4","class_response","1","test","15","Obsidian","Obsidian","14","true","5","5","","","","","","","","","","","","","","","","",""
"","","","","","","","","","","","html-keyboard-response","169","2.0.0","429093","67347d8b1384d96ae2d1b0c5","3","12","null","","","","","","","","","<p style='font-size: 30px;'><strong>Okay</strong></p>","null","neutral_feedback","1","test","15","","","","","","","","","","","","","","","","","","","","","","",""
"","","","","","","","","","","","html-button-response","170","2.0.0","438279","67347d8b1384d96ae2d1b0c5","3","12","9185","","","","","","","","","<img src= ""rock_img/I_Peridotite_06.jpg"" style=""width:8cm; height:7.53cm;""><p>What type of rock is this?</p>","6","class_response","1","test","16","Peridotite","Peridotite","06","true","7","7","","","","","","","","","","","","","","","","",""
"","","","","","","","","","","","html-keyboard-response","171","2.0.0","438792","67347d8b1384d96ae2d1b0c5","3","12","null","","","","","","","","","<p style='font-size: 30px;'><strong>Okay</strong></p>","null","neutral_feedback","1","test","16","","","","","","","","","","","","","","","","","","","","","","",""
"","","","","","","","","","","","html-button-response","172","2.0.0","444038","67347d8b1384d96ae2d1b0c5","3","12","5245","","","","","","","","","<img src= ""rock_img/I_Gabbro_01.jpg"" style=""width:8cm; height:5.21cm;""><p>What type of rock is this?</p>","2","class_response","1","test","17","Diorite","Gabbro","01","false","3","4","","","","","","","","","","","","","","","","",""
"","","","","","","","","","","","html-keyboard-response","173","2.0.0","444545","67347d8b1384d96ae2d1b0c5","3","12","null","","","","","","","","","<p style='font-size: 30px;'><strong>Okay</strong></p>","null","neutral_feedback","1","test","17","","","","","","","","","","","","","","","","","","","","","","",""
"","","","","","","","","","","","html-button-response","174","2.0.0","446315","67347d8b1384d96ae2d1b0c5","3","12","1766","","","","","","","","","<img src= ""rock_img/I_Pumice_04.jpg"" style=""width:8cm; height:6.819999999999999cm;""><p>What type of rock is this?</p>","7","class_response","1","test","18","Pumice","Pumice","04","true","8","8","","","","","","","","","","","","","","","","",""
"","","","","","","","","","","","html-keyboard-response","175","2.0.0","446830","67347d8b1384d96ae2d1b0c5","3","12","null","","","","","","","","","<p style='font-size: 30px;'><strong>Okay</strong></p>","null","neutral_feedback","1","test","18","","","","","","","","","","","","","","","","","","","","","","",""
"","","","","","","","","","","","html-button-response","176","2.0.0","448985","67347d8b1384d96ae2d1b0c5","3","12","2153","","","","","","","","","<img src= ""rock_img/I_Andesite_03.jpg"" style=""width:8cm; height:5.73cm;""><p>What type of rock is this?</p>","0","class_response","1","test","19","Andesite","Andesite","03","true","1","1","","","","","","","","","","","","","","","","",""
"","","","","","","","","","","","html-keyboard-response","177","2.0.0","449496","67347d8b1384d96ae2d1b0c5","3","12","null","","","","","","","","","<p style='font-size: 30px;'><strong>Okay</strong></p>","null","neutral_feedback","1","test","19","","","","","","","","","","","","","","","","","","","","","","",""
"","","","","","","","","","","","html-button-response","178","2.0.0","451032","67347d8b1384d96ae2d1b0c5","3","12","1533","","","","","","","","","<img src= ""rock_img/I_Pegmatite_12.jpg"" style=""width:8cm; height:5.7cm;""><p>What type of rock is this?</p>","5","class_response","1","test","20","Pegmatite","Pegmatite","12","true","6","6","","","","","","","","","","","","","","","","",""
"","","","","","","","","","","","html-keyboard-response","179","2.0.0","451538","67347d8b1384d96ae2d1b0c5","3","12","null","","","","","","","","","<p style='font-size: 30px;'><strong>Okay</strong></p>","null","neutral_feedback","1","test","20","","","","","","","","","","","","","","","","","","","","","","",""
"","","","","","","","","","","","html-button-response","180","2.0.0","455834","67347d8b1384d96ae2d1b0c5","3","12","4293","","","","","","","","","<img src= ""rock_img/I_Peridotite_07.jpg"" style=""width:8cm; height:4.83cm;""><p>What type of rock is this?</p>","6","class_response","1","test","21","Peridotite","Peridotite","07","true","7","7","","","","","","","","","","","","","","","","",""
"","","","","","","","","","","","html-keyboard-response","181","2.0.0","456344","67347d8b1384d96ae2d1b0c5","3","12","null","","","","","","","","","<p style='font-size: 30px;'><strong>Okay</strong></p>","null","neutral_feedback","1","test","21","","","","","","","","","","","","","","","","","","","","","","",""
"","","","","","","","","","","","html-button-response","182","2.0.0","471954","67347d8b1384d96ae2d1b0c5","3","12","15607","","","","","","","","","<img src= ""rock_img/I_Gabbro_10.jpg"" style=""width:8cm; height:5.680000000000001cm;""><p>What type of rock is this?</p>","3","class_response","1","test","22","Gabbro","Gabbro","10","true","4","4","","","","","","","","","","","","","","","","",""
"","","","","","","","","","","","html-keyboard-response","183","2.0.0","472467","67347d8b1384d96ae2d1b0c5","3","12","null","","","","","","","","","<p style='font-size: 30px;'><strong>Okay</strong></p>","null","neutral_feedback","1","test","22","","","","","","","","","","","","","","","","","","","","","","",""
"","","","","","","","","","","","html-button-response","184","2.0.0","476001","67347d8b1384d96ae2d1b0c5","3","12","3533","","","","","","","","","<img src= ""rock_img/I_Peridotite_12.jpg"" style=""width:8cm; height:4.54cm;""><p>What type of rock is this?</p>","2","class_response","1","test","23","Diorite","Peridotite","12","false","3","7","","","","","","","","","","","","","","","","",""
"","","","","","","","","","","","html-keyboard-response","185","2.0.0","476510","67347d8b1384d96ae2d1b0c5","3","12","null","","","","","","","","","<p style='font-size: 30px;'><strong>Okay</strong></p>","null","neutral_feedback","1","test","23","","","","","","","","","","","","","","","","","","","","","","",""
"","","","","","","","","","","","html-button-response","186","2.0.0","478254","67347d8b1384d96ae2d1b0c5","3","12","1741","","","","","","","","","<img src= ""rock_img/I_Basalt_08.jpg"" style=""width:8cm; height:10.44cm;""><p>What type of rock is this?</p>","1","class_response","1","test","24","Basalt","Basalt","08","true","2","2","","","","","","","","","","","","","","","","",""
"","","","","","","","","","","","html-keyboard-response","187","2.0.0","478768","67347d8b1384d96ae2d1b0c5","3","12","null","","","","","","","","","<p style='font-size: 30px;'><strong>Okay</strong></p>","null","neutral_feedback","1","test","24","","","","","","","","","","","","","","","","","","","","","","",""
"","","","","","","","","","","","html-button-response","188","2.0.0","480768","67347d8b1384d96ae2d1b0c5","3","12","1997","","","","","","","","","<img src= ""rock_img/I_Andesite_11.jpg"" style=""width:8cm; height:4.92cm;""><p>What type of rock is this?</p>","0","class_response","1","test","25","Andesite","Andesite","11","true","1","1","","","","","","","","","","","","","","","","",""
"","","","","","","","","","","","html-keyboard-response","189","2.0.0","481272","67347d8b1384d96ae2d1b0c5","3","12","null","","","","","","","","","<p style='font-size: 30px;'><strong>Okay</strong></p>","null","neutral_feedback","1","test","25","","","","","","","","","","","","","","","","","","","","","","",""
"","","","","","","","","","","","html-button-response","190","2.0.0","482924","67347d8b1384d96ae2d1b0c5","3","12","1650","","","","","","","","","<img src= ""rock_img/I_Obsidian_07.jpg"" style=""width:8cm; height:4.76cm;""><p>What type of rock is this?</p>","4","class_response","1","test","26","Obsidian","Obsidian","07","true","5","5","","","","","","","","","","","","","","","","",""
"","","","","","","","","","","","html-keyboard-response","191","2.0.0","483429","67347d8b1384d96ae2d1b0c5","3","12","null","","","","","","","","","<p style='font-size: 30px;'><strong>Okay</strong></p>","null","neutral_feedback","1","test","26","","","","","","","","","","","","","","","","","","","","","","",""
"","","","","","","","","","","","html-button-response","192","2.0.0","487941","67347d8b1384d96ae2d1b0c5","3","12","4509","","","","","","","","","<img src= ""rock_img/I_Gabbro_11.jpg"" style=""width:8cm; height:6.2cm;""><p>What type of rock is this?</p>","3","class_response","1","test","27","Gabbro","Gabbro","11","true","4","4","","","","","","","","","","","","","","","","",""
"","","","","","","","","","","","html-keyboard-response","193","2.0.0","488449","67347d8b1384d96ae2d1b0c5","3","12","null","","","","","","","","","<p style='font-size: 30px;'><strong>Okay</strong></p>","null","neutral_feedback","1","test","27","","","","","","","","","","","","","","","","","","","","","","",""
"","","","","","","","","","","","html-button-response","194","2.0.0","490227","67347d8b1384d96ae2d1b0c5","3","12","1775","","","","","","","","","<img src= ""rock_img/I_Andesite_05.jpg"" style=""width:8cm; height:4.12cm;""><p>What type of rock is this?</p>","0","class_response","1","test","28","Andesite","Andesite","05","true","1","1","","","","","","","","","","","","","","","","",""
"","","","","","","","","","","","html-keyboard-response","195","2.0.0","490745","67347d8b1384d96ae2d1b0c5","3","12","null","","","","","","","","","<p style='font-size: 30px;'><strong>Okay</strong></p>","null","neutral_feedback","1","test","28","","","","","","","","","","","","","","","","","","","","","","",""
"","","","","","","","","","","","html-button-response","196","2.0.0","492240","67347d8b1384d96ae2d1b0c5","3","12","1492","","","","","","","","","<img src= ""rock_img/I_Pegmatite_08.jpg"" style=""width:8cm; height:7.68cm;""><p>What type of rock is this?</p>","5","class_response","1","test","29","Pegmatite","Pegmatite","08","true","6","6","","","","","","","","","","","","","","","","",""
"","","","","","","","","","","","html-keyboard-response","197","2.0.0","492758","67347d8b1384d96ae2d1b0c5","3","12","null","","","","","","","","","<p style='font-size: 30px;'><strong>Okay</strong></p>","null","neutral_feedback","1","test","29","","","","","","","","","","","","","","","","","","","","","","",""
"","","","","","","","","","","","html-button-response","198","2.0.0","495437","67347d8b1384d96ae2d1b0c5","3","12","2677","","","","","","","","","<img src= ""rock_img/I_Gabbro_05.jpg"" style=""width:8cm; height:6cm;""><p>What type of rock is this?</p>","3","class_response","1","test","30","Gabbro","Gabbro","05","true","4","4","","","","","","","","","","","","","","","","",""
"","","","","","","","","","","","html-keyboard-response","199","2.0.0","495949","67347d8b1384d96ae2d1b0c5","3","12","null","","","","","","","","","<p style='font-size: 30px;'><strong>Okay</strong></p>","null","neutral_feedback","1","test","30","","","","","","","","","","","","","","","","","","","","","","",""
"","","","","","","","","","","","html-button-response","200","2.0.0","497473","67347d8b1384d96ae2d1b0c5","3","12","1521","","","","","","","","","<img src= ""rock_img/I_Basalt_01.jpg"" style=""width:8cm; height:7.880000000000001cm;""><p>What type of rock is this?</p>","1","class_response","1","test","31","Basalt","Basalt","01","true","2","2","","","","","","","","","","","","","","","","",""
"","","","","","","","","","","","html-keyboard-response","201","2.0.0","497976","67347d8b1384d96ae2d1b0c5","3","12","null","","","","","","","","","<p style='font-size: 30px;'><strong>Okay</strong></p>","null","neutral_feedback","1","test","31","","","","","","","","","","","","","","","","","","","","","","",""
"","","","","","","","","","","","html-button-response","202","2.0.0","499724","67347d8b1384d96ae2d1b0c5","3","12","1745","","","","","","","","","<img src= ""rock_img/I_Pumice_14.jpg"" style=""width:8cm; height:6.39cm;""><p>What type of rock is this?</p>","7","class_response","1","test","32","Pumice","Pumice","14","true","8","8","","","","","","","","","","","","","","","","",""
"","","","","","","","","","","","html-keyboard-response","203","2.0.0","500239","67347d8b1384d96ae2d1b0c5","3","12","null","","","","","","","","","<p style='font-size: 30px;'><strong>Okay</strong></p>","null","neutral_feedback","1","test","32","","","","","","","","","","","","","","","","","","","","","","",""
"","","","","","","","","","","","html-button-response","204","2.0.0","502154","67347d8b1384d96ae2d1b0c5","3","12","1913","","","","","","","","","<img src= ""rock_img/I_Diorite_11.jpg"" style=""width:8cm; height:7.11cm;""><p>What type of rock is this?</p>","6","class_response","1","test","33","Peridotite","Diorite","11","false","7","3","","","","","","","","","","","","","","","","",""
"","","","","","","","","","","","html-keyboard-response","205","2.0.0","502666","67347d8b1384d96ae2d1b0c5","3","12","null","","","","","","","","","<p style='font-size: 30px;'><strong>Okay</strong></p>","null","neutral_feedback","1","test","33","","","","","","","","","","","","","","","","","","","","","","",""
"","","","","","","","","","","","html-button-response","206","2.0.0","504321","67347d8b1384d96ae2d1b0c5","3","12","1652","","","","","","","","","<img src= ""rock_img/I_Diorite_15.jpg"" style=""width:8cm; height:5.54cm;""><p>What type of rock is this?</p>","2","class_response","1","test","34","Diorite","Diorite","15","true","3","3","","","","","","","","","","","","","","","","",""
"","","","","","","","","","","","html-keyboard-response","207","2.0.0","504830","67347d8b1384d96ae2d1b0c5","3","12","null","","","","","","","","","<p style='font-size: 30px;'><strong>Okay</strong></p>","null","neutral_feedback","1","test","34","","","","","","","","","","","","","","","","","","","","","","",""
"","","","","","","","","","","","html-button-response","208","2.0.0","506644","67347d8b1384d96ae2d1b0c5","3","12","1811","","","","","","","","","<img src= ""rock_img/I_Obsidian_06.jpg"" style=""width:8cm; height:6.8cm;""><p>What type of rock is this?</p>","4","class_response","1","test","35","Obsidian","Obsidian","06","true","5","5","","","","","","","","","","","","","","","","",""
"","","","","","","","","","","","html-keyboard-response","209","2.0.0","507147","67347d8b1384d96ae2d1b0c5","3","12","null","","","","","","","","","<p style='font-size: 30px;'><strong>Okay</strong></p>","null","neutral_feedback","1","test","35","","","","","","","","","","","","","","","","","","","","","","",""
"","","","","","","","","","","","html-button-response","210","2.0.0","512379","67347d8b1384d96ae2d1b0c5","3","12","5231","","","","","","","","","<img src= ""rock_img/I_Diorite_08.jpg"" style=""width:8cm; height:6.37cm;""><p>What type of rock is this?</p>","2","class_response","1","test","36","Diorite","Diorite","08","true","3","3","","","","","","","","","","","","","","","","",""
"","","","","","","","","","","","html-keyboard-response","211","2.0.0","512882","67347d8b1384d96ae2d1b0c5","3","12","null","","","","","","","","","<p style='font-size: 30px;'><strong>Okay</strong></p>","null","neutral_feedback","1","test","36","","","","","","","","","","","","","","","","","","","","","","",""
"","","","","","","","","","","","html-button-response","212","2.0.0","515684","67347d8b1384d96ae2d1b0c5","3","12","2800","","","","","","","","","<img src= ""rock_img/I_Diorite_07.jpg"" style=""width:8cm; height:5.239999999999999cm;""><p>What type of rock is this?</p>","2","class_response","1","test","37","Diorite","Diorite","07","true","3","3","","","","","","","","","","","","","","","","",""
"","","","","","","","","","","","html-keyboard-response","213","2.0.0","516210","67347d8b1384d96ae2d1b0c5","3","12","null","","","","","","","","","<p style='font-size: 30px;'><strong>Okay</strong></p>","null","neutral_feedback","1","test","37","","","","","","","","","","","","","","","","","","","","","","",""
"","","","","","","","","","","","html-button-response","214","2.0.0","518551","67347d8b1384d96ae2d1b0c5","3","12","2339","","","","","","","","","<img src= ""rock_img/I_Pumice_05.jpg"" style=""width:8cm; height:7.25cm;""><p>What type of rock is this?</p>","7","class_response","1","test","38","Pumice","Pumice","05","true","8","8","","","","","","","","","","","","","","","","",""
"","","","","","","","","","","","html-keyboard-response","215","2.0.0","519064","67347d8b1384d96ae2d1b0c5","3","12","null","","","","","","","","","<p style='font-size: 30px;'><strong>Okay</strong></p>","null","neutral_feedback","1","test","38","","","","","","","","","","","","","","","","","","","","","","",""
"","","","","","","","","","","","html-button-response","216","2.0.0","521288","67347d8b1384d96ae2d1b0c5","3","12","2222","","","","","","","","","<img src= ""rock_img/I_Diorite_10.jpg"" style=""width:8cm; height:5.949999999999999cm;""><p>What type of rock is this?</p>","0","class_response","1","test","39","Andesite","Diorite","10","false","1","3","","","","","","","","","","","","","","","","",""
"","","","","","","","","","","","html-keyboard-response","217","2.0.0","521802","67347d8b1384d96ae2d1b0c5","3","12","null","","","","","","","","","<p style='font-size: 30px;'><strong>Okay</strong></p>","null","neutral_feedback","1","test","39","","","","","","","","","","","","","","","","","","","","","","",""
"","","","","","","","","","","","html-button-response","218","2.0.0","523802","67347d8b1384d96ae2d1b0c5","3","12","2000","","","","","","","","","<img src= ""rock_img/I_Pegmatite_15.jpg"" style=""width:8cm; height:6cm;""><p>What type of rock is this?</p>","5","class_response","1","test","40","Pegmatite","Pegmatite","15","true","6","6","","","","","","","","","","","","","","","","",""
"","","","","","","","","","","","html-keyboard-response","219","2.0.0","524312","67347d8b1384d96ae2d1b0c5","3","12","null","","","","","","","","","<p style='font-size: 30px;'><strong>Okay</strong></p>","null","neutral_feedback","1","test","40","","","","","","","","","","","","","","","","","","","","","","",""
"","","","","","","","","","","","html-button-response","220","2.0.0","526856","67347d8b1384d96ae2d1b0c5","3","12","2542","","","","","","","","","<img src= ""rock_img/I_Andesite_07.jpg"" style=""width:8cm; height:5.93cm;""><p>What type of rock is this?</p>","0","class_response","1","test","41","Andesite","Andesite","07","true","1","1","","","","","","","","","","","","","","","","",""
"","","","","","","","","","","","html-keyboard-response","221","2.0.0","527363","67347d8b1384d96ae2d1b0c5","3","12","null","","","","","","","","","<p style='font-size: 30px;'><strong>Okay</strong></p>","null","neutral_feedback","1","test","41","","","","","","","","","","","","","","","","","","","","","","",""
"","","","","","","","","","","","html-button-response","222","2.0.0","529694","67347d8b1384d96ae2d1b0c5","3","12","2329","","","","","","","","","<img src= ""rock_img/I_Pumice_08.jpg"" style=""width:8cm; height:6.67cm;""><p>What type of rock is this?</p>","3","class_response","1","test","42","Gabbro","Pumice","08","false","4","8","","","","","","","","","","","","","","","","",""
"","","","","","","","","","","","html-keyboard-response","223","2.0.0","530196","67347d8b1384d96ae2d1b0c5","3","12","null","","","","","","","","","<p style='font-size: 30px;'><strong>Okay</strong></p>","null","neutral_feedback","1","test","42","","","","","","","","","","","","","","","","","","","","","","",""
"","","","","","","","","","","","html-button-response","224","2.0.0","532125","67347d8b1384d96ae2d1b0c5","3","12","1926","","","","","","","","","<img src= ""rock_img/I_Basalt_09.jpg"" style=""width:8cm; height:6.2cm;""><p>What type of rock is this?</p>","1","class_response","1","test","43","Basalt","Basalt","09","true","2","2","","","","","","","","","","","","","","","","",""
"","","","","","","","","","","","html-keyboard-response","225","2.0.0","532629","67347d8b1384d96ae2d1b0c5","3","12","null","","","","","","","","","<p style='font-size: 30px;'><strong>Okay</strong></p>","null","neutral_feedback","1","test","43","","","","","","","","","","","","","","","","","","","","","","",""
"","","","","","","","","","","","html-button-response","226","2.0.0","534783","67347d8b1384d96ae2d1b0c5","3","12","2152","","","","","","","","","<img src= ""rock_img/I_Peridotite_02.jpg"" style=""width:8cm; height:5.859999999999999cm;""><p>What type of rock is this?</p>","2","class_response","1","test","44","Diorite","Peridotite","02","false","3","7","","","","","","","","","","","","","","","","",""
"","","","","","","","","","","","html-keyboard-response","227","2.0.0","535291","67347d8b1384d96ae2d1b0c5","3","12","null","","","","","","","","","<p style='font-size: 30px;'><strong>Okay</strong></p>","null","neutral_feedback","1","test","44","","","","","","","","","","","","","","","","","","","","","","",""
"","","","","","","","","","","","html-button-response","228","2.0.0","536975","67347d8b1384d96ae2d1b0c5","3","12","1680","","","","","","","","","<img src= ""rock_img/I_Obsidian_04.jpg"" style=""width:8cm; height:6.930000000000001cm;""><p>What type of rock is this?</p>","4","class_response","1","test","45","Obsidian","Obsidian","04","true","5","5","","","","","","","","","","","","","","","","",""
"","","","","","","","","","","","html-keyboard-response","229","2.0.0","537487","67347d8b1384d96ae2d1b0c5","3","12","null","","","","","","","","","<p style='font-size: 30px;'><strong>Okay</strong></p>","null","neutral_feedback","1","test","45","","","","","","","","","","","","","","","","","","","","","","",""
"","","","","","","","","","","","html-button-response","230","2.0.0","539320","67347d8b1384d96ae2d1b0c5","3","12","1832","","","","","","","","","<img src= ""rock_img/I_Andesite_16.jpg"" style=""width:8cm; height:6.010000000000001cm;""><p>What type of rock is this?</p>","6","class_response","1","test","46","Peridotite","Andesite","16","false","7","1","","","","","","","","","","","","","","","","",""
"","","","","","","","","","","","html-keyboard-response","231","2.0.0","539822","67347d8b1384d96ae2d1b0c5","3","12","null","","","","","","","","","<p style='font-size: 30px;'><strong>Okay</strong></p>","null","neutral_feedback","1","test","46","","","","","","","","","","","","","","","","","","","","","","",""
"","","","","","","","","","","","html-button-response","232","2.0.0","541835","67347d8b1384d96ae2d1b0c5","3","12","2010","","","","","","","","","<img src= ""rock_img/I_Pumice_09.jpg"" style=""width:8cm; height:6.44cm;""><p>What type of rock is this?</p>","7","class_response","1","test","47","Pumice","Pumice","09","true","8","8","","","","","","","","","","","","","","","","",""
"","","","","","","","","","","","html-keyboard-response","233","2.0.0","542342","67347d8b1384d96ae2d1b0c5","3","12","null","","","","","","","","","<p style='font-size: 30px;'><strong>Okay</strong></p>","null","neutral_feedback","1","test","47","","","","","","","","","","","","","","","","","","","","","","",""
"","","","","","","","","","","","html-button-response","234","2.0.0","544301","67347d8b1384d96ae2d1b0c5","3","12","1957","","","","","","","","","<img src= ""rock_img/I_Pegmatite_16.jpg"" style=""width:8cm; height:5.8cm;""><p>What type of rock is this?</p>","5","class_response","1","test","48","Pegmatite","Pegmatite","16","true","6","6","","","","","","","","","","","","","","","","",""
"","","","","","","","","","","","html-keyboard-response","235","2.0.0","544806","67347d8b1384d96ae2d1b0c5","3","12","null","","","","","","","","","<p style='font-size: 30px;'><strong>Okay</strong></p>","null","neutral_feedback","1","test","48","","","","","","","","","","","","","","","","","","","","","","",""
"","","","","","","","","","","","html-button-response","236","2.0.0","547965","67347d8b1384d96ae2d1b0c5","3","12","","","","","","","","","","","","cycle_feedback","","","","","","","","","","","","","","","","","","","","","","1434","1701","","",""
"","","","","","","","","","","","html-button-response","238","2.0.0","549905","67347d8b1384d96ae2d1b0c5","3","12","1936","","","","","","","","","","0","start_train","","","","","","","","","","","","","","","","","","","","","","","","","",""
"","","","","","","","","","","","html-button-response","240","2.0.0","552109","67347d8b1384d96ae2d1b0c5","3","12","2201","","","","","","","","","<img src= ""rock_img/I_Pumice_15.jpg"" style=""width:8cm; height:7.86cm;""><p>What type of rock is this?</p>","7","class_response","2","train","1","Pumice","Pumice","15","true","8","8","","","","","","","","","","","","","","","","",""
"","","","","","","","","","","","html-button-response","241","2.0.0","553868","67347d8b1384d96ae2d1b0c5","3","12","1757","","","","","","","","","<img src= rock_img/I_Pumice_15.jpg style=""width:8cm; height:7.86cm;""><p style='font-size: 30px; color: green;'><strong>Correct!</strong></p><p style='font-size: 30px;'><strong>This rock is pumice</strong></p>","0","corr_feedback","2","train","1","","","","","","","","","","","","","","","","","","","","","","",""
"","","","","","","","","","","","html-button-response","242","2.0.0","556910","67347d8b1384d96ae2d1b0c5","3","12","3040","","","","","","","","","<img src= ""rock_img/I_Diorite_13.jpg"" style=""width:8cm; height:6.29cm;""><p>What type of rock is this?</p>","2","class_response","2","train","2","Diorite","Diorite","13","true","3","3","","","","","","","","","","","","","","","","",""
"","","","","","","","","","","","html-button-response","243","2.0.0","558022","67347d8b1384d96ae2d1b0c5","3","12","1111","","","","","","","","","<img src= rock_img/I_Diorite_13.jpg style=""width:8cm; height:6.29cm;""><p style='font-size: 30px; color: green;'><strong>Correct!</strong></p><p style='font-size: 30px;'><strong>This rock is diorite</strong></p>","0","corr_feedback","2","train","2","","","","","","","","","","","","","","","","","","","","","","",""
"","","","","","","","","","","","html-button-response","244","2.0.0","559736","67347d8b1384d96ae2d1b0c5","3","12","1710","","","","","","","","","<img src= ""rock_img/I_Diorite_06.jpg"" style=""width:8cm; height:6.03cm;""><p>What type of rock is this?</p>","2","class_response","2","train","3","Diorite","Diorite","06","true","3","3","","","","","","","","","","","","","","","","",""
"","","","","","","","","","","","html-button-response","245","2.0.0","560741","67347d8b1384d96ae2d1b0c5","3","12","1004","","","","","","","","","<img src= rock_img/I_Diorite_06.jpg style=""width:8cm; height:6.03cm;""><p style='font-size: 30px; color: green;'><strong>Correct!</strong></p><p style='font-size: 30px;'><strong>This rock is diorite</strong></p>","0","corr_feedback","2","train","3","","","","","","","","","","","","","","","","","","","","","","",""
"","","","","","","","","","","","html-button-response","246","2.0.0","563004","67347d8b1384d96ae2d1b0c5","3","12","2262","","","","","","","","","<img src= ""rock_img/I_Obsidian_11.jpg"" style=""width:8cm; height:6.05cm;""><p>What type of rock is this?</p>","4","class_response","2","train","4","Obsidian","Obsidian","11","true","5","5","","","","","","","","","","","","","","","","",""
"","","","","","","","","","","","html-button-response","247","2.0.0","564608","67347d8b1384d96ae2d1b0c5","3","12","1601","","","","","","","","","<img src= rock_img/I_Obsidian_11.jpg style=""width:8cm; height:6.05cm;""><p style='font-size: 30px; color: green;'><strong>Correct!</strong></p><p style='font-size: 30px;'><strong>This rock is obsidian</strong></p>","0","corr_feedback","2","train","4","","","","","","","","","","","","","","","","","","","","","","",""
"","","","","","","","","","","","html-button-response","248","2.0.0","566775","67347d8b1384d96ae2d1b0c5","3","12","2165","","","","","","","","","<img src= ""rock_img/I_Peridotite_08.jpg"" style=""width:8cm; height:6.7cm;""><p>What type of rock is this?</p>","2","class_response","2","train","5","Diorite","Peridotite","08","false","3","7","","","","","","","","","","","","","","","","",""
"","","","","","","","","","","","html-button-response","249","2.0.0","567937","67347d8b1384d96ae2d1b0c5","3","12","1160","","","","","","","","","<img src= rock_img/I_Peridotite_08.jpg style=""width:8cm; height:6.7cm;""><p style='font-size: 30px; color: red;'><strong>Incorrect!</strong></p><p style='font-size: 30px;'><strong>This rock is peridotite</strong></p>","0","corr_feedback","2","train","5","","","","","","","","","","","","","","","","","","","","","","",""
"","","","","","","","","","","","html-button-response","250","2.0.0","570475","67347d8b1384d96ae2d1b0c5","3","12","2535","","","","","","","","","<img src= ""rock_img/I_Gabbro_09.jpg"" style=""width:8cm; height:7.279999999999999cm;""><p>What type of rock is this?</p>","3","class_response","2","train","6","Gabbro","Gabbro","09","true","4","4","","","","","","","","","","","","","","","","",""
"","","","","","","","","","","","html-button-response","251","2.0.0","571517","67347d8b1384d96ae2d1b0c5","3","12","1040","","","","","","","","","<img src= rock_img/I_Gabbro_09.jpg style=""width:8cm; height:7.279999999999999cm;""><p style='font-size: 30px; color: green;'><strong>Correct!</strong></p><p style='font-size: 30px;'><strong>This rock is gabbro</strong></p>","0","corr_feedback","2","train","6","","","","","","","","","","","","","","","","","","","","","","",""
"","","","","","","","","","","","html-button-response","252","2.0.0","573240","67347d8b1384d96ae2d1b0c5","3","12","1722","","","","","","","","","<img src= ""rock_img/I_Andesite_06.jpg"" style=""width:8cm; height:6.840000000000001cm;""><p>What type of rock is this?</p>","0","class_response","2","train","7","Andesite","Andesite","06","true","1","1","","","","","","","","","","","","","","","","",""
"","","","","","","","","","","","html-button-response","253","2.0.0","574319","67347d8b1384d96ae2d1b0c5","3","12","1076","","","","","","","","","<img src= rock_img/I_Andesite_06.jpg style=""width:8cm; height:6.840000000000001cm;""><p style='font-size: 30px; color: green;'><strong>Correct!</strong></p><p style='font-size: 30px;'><strong>This rock is andesite</strong></p>","0","corr_feedback","2","train","7","","","","","","","","","","","","","","","","","","","","","","",""
"","","","","","","","","","","","html-button-response","254","2.0.0","576940","67347d8b1384d96ae2d1b0c5","3","12","2619","","","","","","","","","<img src= ""rock_img/I_Gabbro_12.jpg"" style=""width:8cm; height:7.800000000000001cm;""><p>What type of rock is this?</p>","3","class_response","2","train","8","Gabbro","Gabbro","12","true","4","4","","","","","","","","","","","","","","","","",""
"","","","","","","","","","","","html-button-response","255","2.0.0","578066","67347d8b1384d96ae2d1b0c5","3","12","1124","","","","","","","","","<img src= rock_img/I_Gabbro_12.jpg style=""width:8cm; height:7.800000000000001cm;""><p style='font-size: 30px; color: green;'><strong>Correct!</strong></p><p style='font-size: 30px;'><strong>This rock is gabbro</strong></p>","0","corr_feedback","2","train","8","","","","","","","","","","","","","","","","","","","","","","",""
"","","","","","","","","","","","html-button-response","256","2.0.0","579910","67347d8b1384d96ae2d1b0c5","3","12","1842","","","","","","","","","<img src= ""rock_img/I_Pumice_10.jpg"" style=""width:8cm; height:7.609999999999999cm;""><p>What type of rock is this?</p>","7","class_response","2","train","9","Pumice","Pumice","10","true","8","8","","","","","","","","","","","","","","","","",""
"","","","","","","","","","","","html-button-response","257","2.0.0","580975","67347d8b1384d96ae2d1b0c5","3","12","1063","","","","","","","","","<img src= rock_img/I_Pumice_10.jpg style=""width:8cm; height:7.609999999999999cm;""><p style='font-size: 30px; color: green;'><strong>Correct!</strong></p><p style='font-size: 30px;'><strong>This rock is pumice</strong></p>","0","corr_feedback","2","train","9","","","","","","","","","","","","","","","","","","","","","","",""
"","","","","","","","","","","","html-button-response","258","2.0.0","582663","67347d8b1384d96ae2d1b0c5","3","12","1687","","","","","","","","","<img src= ""rock_img/I_Pegmatite_13.jpg"" style=""width:8cm; height:4.95cm;""><p>What type of rock is this?</p>","5","class_response","2","train","10","Pegmatite","Pegmatite","13","true","6","6","","","","","","","","","","","","","","","","",""
"","","","","","","","","","","","html-button-response","259","2.0.0","583706","67347d8b1384d96ae2d1b0c5","3","12","1040","","","","","","","","","<img src= rock_img/I_Pegmatite_13.jpg style=""width:8cm; height:4.95cm;""><p style='font-size: 30px; color: green;'><strong>Correct!</strong></p><p style='font-size: 30px;'><strong>This rock is pegmatite</strong></p>","0","corr_feedback","2","train","10","","","","","","","","","","","","","","","","","","","","","","",""
"","","","","","","","","","","","html-button-response","260","2.0.0","586579","67347d8b1384d96ae2d1b0c5","3","12","2872","","","","","","","","","<img src= ""rock_img/I_Basalt_16.jpg"" style=""width:8cm; height:7.659999999999999cm;""><p>What type of rock is this?</p>","3","class_response","2","train","11","Gabbro","Basalt","16","false","4","2","","","","","","","","","","","","","","","","",""
"","","","","","","","","","","","html-button-response","261","2.0.0","587789","67347d8b1384d96ae2d1b0c5","3","12","1207","","","","","","","","","<img src= rock_img/I_Basalt_16.jpg style=""width:8cm; height:7.659999999999999cm;""><p style='font-size: 30px; color: red;'><strong>Incorrect!</strong></p><p style='font-size: 30px;'><strong>This rock is basalt</strong></p>","0","corr_feedback","2","train","11","","","","","","","","","","","","","","","","","","","","","","",""
"","","","","","","","","","","","html-button-response","262","2.0.0","589369","67347d8b1384d96ae2d1b0c5","3","12","1579","","","","","","","","","<img src= ""rock_img/I_Pegmatite_07.jpg"" style=""width:8cm; height:6.7cm;""><p>What type of rock is this?</p>","5","class_response","2","train","12","Pegmatite","Pegmatite","07","true","6","6","","","","","","","","","","","","","","","","",""
"","","","","","","","","","","","html-button-response","263","2.0.0","590566","67347d8b1384d96ae2d1b0c5","3","12","1196","","","","","","","","","<img src= rock_img/I_Pegmatite_07.jpg style=""width:8cm; height:6.7cm;""><p style='font-size: 30px; color: green;'><strong>Correct!</strong></p><p style='font-size: 30px;'><strong>This rock is pegmatite</strong></p>","0","corr_feedback","2","train","12","","","","","","","","","","","","","","","","","","","","","","",""
"","","","","","","","","","","","html-button-response","265","2.0.0","592171","67347d8b1384d96ae2d1b0c5","3","12","1603","","","","","","","","","","0","start_train","","","","","","","","","","","","","","","","","","","","","","","","","",""
"","","","","","","","","","","","html-button-response","266","2.0.0","593883","67347d8b1384d96ae2d1b0c5","3","12","","","","","","","","","","","","cat_selection","2","train","1","","","","","","","3","7","1710","Diorite","Peridotite","[0.15526213456336502,0.11881701582001883,0.15526213456336502,0.15526213456336502,0.09613141158146338,0.06861238257188187,0.11807625601173143,0.13257653032480954]","[0.2778208746761789,0.024363151014295644,null,0.03182980421577509,0.0802665111996776,0.08306718592565131,0.4833033454441215,0.019349127524299976]","","","","","","","","","",""
"","","","","","","","","","","","paired-cat-display","267","1.0.0","623591","67347d8b1384d96ae2d1b0c5","3","12","","","","","","","","","","","","paired_cat_display","2","train","1","","","","","","","","","6356","","","","","has very rough surface ","is very fine surface ","23347","","","","","","",""
"","","","","","","","","","","","html-button-response","268","2.0.0","626223","67347d8b1384d96ae2d1b0c5","3","12","","","","","","","","","","","","cat_selection","2","train","2","","","","","","","1","4","2629","Andesite","Gabbro","[0.15526213456336502,0.11881701582001883,0.15526213456336502,0.15526213456336502,0.09613141158146338,0.06861238257188187,0.11807625601173143,0.13257653032480954]","[null,0.027123989211837285,0.021795632220000808,0.2801279046558634,0.029390349199315248,0.17569736375842257,0.43537980810171883,0.030484952852841835]","","","","","","","","","",""
"","","","","","","","","","","","paired-cat-display","269","1.0.0","668443","67347d8b1384d96ae2d1b0c5","3","12","","","","","","","","","","","","paired_cat_display","2","train","2","","","","","","","","","6415","","","","","","","35799","","Has porous surface ","","","is very fine surface","",""
"","","","","","","","","","","","html-button-response","270","2.0.0","670811","67347d8b1384d96ae2d1b0c5","3","12","","","","","","","","","","","","cat_selection","2","train","3","","","","","","","4","8","2354","Gabbro","Pumice","[0.15526213456336502,0.11881701582001883,0.15526213456336502,0.15526213456336502,0.09613141158146338,0.06861238257188187,0.11807625601173143,0.13257653032480954]","[0.279392868354372,0.07682668235030482,0.28069205959772797,null,0.08181238737444708,0.12862634493690014,0.07877312410479122,0.07387653328145674]","","","","","","","","","",""
"","","","","","","","","","","","paired-cat-display","271","1.0.0","704911","67347d8b1384d96ae2d1b0c5","3","12","","","","","","","","","","","","paired_cat_display","2","train","3","","","","","","","","","6761","","","","","","","27331","","","","","very heavy in nature ","has light weight",""
"","","","","","","","","","","","html-button-response","273","2.0.0","706981","67347d8b1384d96ae2d1b0c5","3","12","2063","","","","","","","","","","0","start_test","","","","","","","","","","","","","","","","","","","","","","","","","",""
"","","","","","","","","","","","html-button-response","274","2.0.0","709460","67347d8b1384d96ae2d1b0c5","3","12","2476","","","","","","","","","<img src= ""rock_img/I_Peridotite_16.jpg"" style=""width:8cm; height:6.989999999999999cm;""><p>What type of rock is this?</p>","3","class_response","2","test","1","Gabbro","Peridotite","16","false","4","7","","","","","","","","","","","","","","","","",""
"","","","","","","","","","","","html-keyboard-response","275","2.0.0","709970","67347d8b1384d96ae2d1b0c5","3","12","null","","","","","","","","","<p style='font-size: 30px;'><strong>Okay</strong></p>","null","neutral_feedback","2","test","1","","","","","","","","","","","","","","","","","","","","","","",""
"","","","","","","","","","","","html-button-response","276","2.0.0","712884","67347d8b1384d96ae2d1b0c5","3","12","2912","","","","","","","","","<img src= ""rock_img/I_Peridotite_07.jpg"" style=""width:8cm; height:4.83cm;""><p>What type of rock is this?</p>","6","class_response","2","test","2","Peridotite","Peridotite","07","true","7","7","","","","","","","","","","","","","","","","",""
