"width","height","webaudio","browser","browser_version","mobile","os","fullscreen","vsync_rate","webcam","microphone","trial_type","trial_index","plugin_version","time_elapsed","subjID","condition","stimID","rt","url","success","value","timeout","failed_images","failed_audio","failed_video","view_history","stimulus","response","trialType","cycle","phase","trial","resp","cat","token","corr","resp_num","cat_num","ref_cat_num","paired_cat_num","time_obs","ref_cat","paired_cat","ref_prob_dist","paired_prob_dist","text_Andesite","text_Basalt","time_resp","text_Gabbro","text_Peridotite","text_Pegmatite","time_fb1","time_fb2"
"1536","695","true","chrome","130.0.0","false","Windows 10","true","60.44","true","true","browser-check","0","2.0.0","1028","5d7ff85ffec5620017b07c40","3","33","","","","","","","","","","","","","","","","","","","","","","","","","","","","","","","","","","","",""
"","","","","","","","","","","","external-html","1","2.0.0","25192","5d7ff85ffec5620017b07c40","3","33","24083","consent_form.html","","","","","","","","","","","","","","","","","","","","","","","","","","","","","","","","","",""
"","","","","","","","","","","","fullscreen","2","2.0.0","30682","5d7ff85ffec5620017b07c40","3","33","4480","","true","","","","","","","","","","","","","","","","","","","","","","","","","","","","","","","","",""
"","","","","","","","","","","","call-function","3","2.0.0","30684","5d7ff85ffec5620017b07c40","3","33","","","","{}","","","","","","","","","","","","","","","","","","","","","","","","","","","","","","","",""
"","","","","","","","","","","","preload","4","2.0.0","35302","5d7ff85ffec5620017b07c40","3","33","","","true","","false","[]","[]","[]","","","","","","","","","","","","","","","","","","","","","","","","","","","",""
"","","","","","","","","","","","instructions","5","2.0.0","100651","5d7ff85ffec5620017b07c40","3","33","65346","","","","","","","","[{""page_index"":0,""viewing_time"":43072},{""page_index"":1,""viewing_time"":12344},{""page_index"":2,""viewing_time"":9930}]","","","","","","","","","","","","","","","","","","","","","","","","","","",""
"","","","","","","","","","","","html-button-response","6","2.0.0","104349","5d7ff85ffec5620017b07c40","3","33","3696","","","","","","","","","","0","start_test","","","","","","","","","","","","","","","","","","","","","","","",""
"","","","","","","","","","","","html-button-response","7","2.0.0","111080","5d7ff85ffec5620017b07c40","3","33","6728","","","","","","","","","<img src= ""rock_img/I_Basalt_06.jpg"" style=""width:8cm; height:7.06cm;""><p>What type of rock is this?</p>","4","class_response","0","test","1","Obsidian","Basalt","06","false","5","2","","","","","","","","","","","","","","",""
"","","","","","","","","","","","html-keyboard-response","8","2.0.0","111594","5d7ff85ffec5620017b07c40","3","33","null","","","","","","","","","<p style='font-size: 30px;'><strong>Okay</strong></p>","null","neutral_feedback","0","test","1","","","","","","","","","","","","","","","","","","","","",""
"","","","","","","","","","","","html-button-response","9","2.0.0","117528","5d7ff85ffec5620017b07c40","3","33","5931","","","","","","","","","<img src= ""rock_img/I_Obsidian_05.jpg"" style=""width:8cm; height:6.33cm;""><p>What type of rock is this?</p>","5","class_response","0","test","2","Pegmatite","Obsidian","05","false","6","5","","","","","","","","","","","","","","",""
"","","","","","","","","","","","html-keyboard-response","10","2.0.0","118041","5d7ff85ffec5620017b07c40","3","33","null","","","","","","","","","<p style='font-size: 30px;'><strong>Okay</strong></p>","null","neutral_feedback","0","test","2","","","","","","","","","","","","","","","","","","","","",""
"","","","","","","","","","","","html-button-response","11","2.0.0","122160","5d7ff85ffec5620017b07c40","3","33","4116","","","","","","","","","<img src= ""rock_img/I_Pegmatite_03.jpg"" style=""width:8cm; height:5.239999999999999cm;""><p>What type of rock is this?</p>","6","class_response","0","test","3","Peridotite","Pegmatite","03","false","7","6","","","","","","","","","","","","","","",""
"","","","","","","","","","","","html-keyboard-response","12","2.0.0","122672","5d7ff85ffec5620017b07c40","3","33","null","","","","","","","","","<p style='font-size: 30px;'><strong>Okay</strong></p>","null","neutral_feedback","0","test","3","","","","","","","","","","","","","","","","","","","","",""
"","","","","","","","","","","","html-button-response","13","2.0.0","125808","5d7ff85ffec5620017b07c40","3","33","3134","","","","","","","","","<img src= ""rock_img/I_Diorite_15.jpg"" style=""width:8cm; height:5.54cm;""><p>What type of rock is this?</p>","2","class_response","0","test","4","Diorite","Diorite","15","true","3","3","","","","","","","","","","","","","","",""
"","","","","","","","","","","","html-keyboard-response","14","2.0.0","126321","5d7ff85ffec5620017b07c40","3","33","null","","","","","","","","","<p style='font-size: 30px;'><strong>Okay</strong></p>","null","neutral_feedback","0","test","4","","","","","","","","","","","","","","","","","","","","",""
"","","","","","","","","","","","html-button-response","15","2.0.0","129591","5d7ff85ffec5620017b07c40","3","33","3269","","","","","","","","","<img src= ""rock_img/I_Andesite_02.jpg"" style=""width:8cm; height:8.5cm;""><p>What type of rock is this?</p>","3","class_response","0","test","5","Gabbro","Andesite","02","false","4","1","","","","","","","","","","","","","","",""
"","","","","","","","","","","","html-keyboard-response","16","2.0.0","130103","5d7ff85ffec5620017b07c40","3","33","null","","","","","","","","","<p style='font-size: 30px;'><strong>Okay</strong></p>","null","neutral_feedback","0","test","5","","","","","","","","","","","","","","","","","","","","",""
"","","","","","","","","","","","html-button-response","17","2.0.0","132721","5d7ff85ffec5620017b07c40","3","33","2616","","","","","","","","","<img src= ""rock_img/I_Diorite_09.jpg"" style=""width:8cm; height:5.27cm;""><p>What type of rock is this?</p>","1","class_response","0","test","6","Basalt","Diorite","09","false","2","3","","","","","","","","","","","","","","",""
"","","","","","","","","","","","html-keyboard-response","18","2.0.0","133236","5d7ff85ffec5620017b07c40","3","33","null","","","","","","","","","<p style='font-size: 30px;'><strong>Okay</strong></p>","null","neutral_feedback","0","test","6","","","","","","","","","","","","","","","","","","","","",""
"","","","","","","","","","","","html-button-response","19","2.0.0","134904","5d7ff85ffec5620017b07c40","3","33","1666","","","","","","","","","<img src= ""rock_img/I_Basalt_16.jpg"" style=""width:8cm; height:7.659999999999999cm;""><p>What type of rock is this?</p>","0","class_response","0","test","7","Andesite","Basalt","16","false","1","2","","","","","","","","","","","","","","",""
"","","","","","","","","","","","html-keyboard-response","20","2.0.0","135418","5d7ff85ffec5620017b07c40","3","33","null","","","","","","","","","<p style='font-size: 30px;'><strong>Okay</strong></p>","null","neutral_feedback","0","test","7","","","","","","","","","","","","","","","","","","","","",""
"","","","","","","","","","","","html-button-response","21","2.0.0","138070","5d7ff85ffec5620017b07c40","3","33","2650","","","","","","","","","<img src= ""rock_img/I_Obsidian_08.jpg"" style=""width:8cm; height:7.39cm;""><p>What type of rock is this?</p>","2","class_response","0","test","8","Diorite","Obsidian","08","false","3","5","","","","","","","","","","","","","","",""
"","","","","","","","","","","","html-keyboard-response","22","2.0.0","138584","5d7ff85ffec5620017b07c40","3","33","null","","","","","","","","","<p style='font-size: 30px;'><strong>Okay</strong></p>","null","neutral_feedback","0","test","8","","","","","","","","","","","","","","","","","","","","",""
"","","","","","","","","","","","html-button-response","23","2.0.0","140786","5d7ff85ffec5620017b07c40","3","33","2200","","","","","","","","","<img src= ""rock_img/I_Basalt_04.jpg"" style=""width:8cm; height:7.53cm;""><p>What type of rock is this?</p>","4","class_response","0","test","9","Obsidian","Basalt","04","false","5","2","","","","","","","","","","","","","","",""
"","","","","","","","","","","","html-keyboard-response","24","2.0.0","141300","5d7ff85ffec5620017b07c40","3","33","null","","","","","","","","","<p style='font-size: 30px;'><strong>Okay</strong></p>","null","neutral_feedback","0","test","9","","","","","","","","","","","","","","","","","","","","",""
"","","","","","","","","","","","html-button-response","25","2.0.0","143303","5d7ff85ffec5620017b07c40","3","33","2001","","","","","","","","","<img src= ""rock_img/I_Peridotite_08.jpg"" style=""width:8cm; height:6.7cm;""><p>What type of rock is this?</p>","7","class_response","0","test","10","Pumice","Peridotite","08","false","8","7","","","","","","","","","","","","","","",""
"","","","","","","","","","","","html-keyboard-response","26","2.0.0","143815","5d7ff85ffec5620017b07c40","3","33","null","","","","","","","","","<p style='font-size: 30px;'><strong>Okay</strong></p>","null","neutral_feedback","0","test","10","","","","","","","","","","","","","","","","","","","","",""
"","","","","","","","","","","","html-button-response","27","2.0.0","145585","5d7ff85ffec5620017b07c40","3","33","1767","","","","","","","","","<img src= ""rock_img/I_Pumice_05.jpg"" style=""width:8cm; height:7.25cm;""><p>What type of rock is this?</p>","7","class_response","0","test","11","Pumice","Pumice","05","true","8","8","","","","","","","","","","","","","","",""
"","","","","","","","","","","","html-keyboard-response","28","2.0.0","146098","5d7ff85ffec5620017b07c40","3","33","null","","","","","","","","","<p style='font-size: 30px;'><strong>Okay</strong></p>","null","neutral_feedback","0","test","11","","","","","","","","","","","","","","","","","","","","",""
"","","","","","","","","","","","html-button-response","29","2.0.0","147884","5d7ff85ffec5620017b07c40","3","33","1784","","","","","","","","","<img src= ""rock_img/I_Gabbro_16.jpg"" style=""width:8cm; height:6.44cm;""><p>What type of rock is this?</p>","6","class_response","0","test","12","Peridotite","Gabbro","16","false","7","4","","","","","","","","","","","","","","",""
"","","","","","","","","","","","html-keyboard-response","30","2.0.0","148397","5d7ff85ffec5620017b07c40","3","33","null","","","","","","","","","<p style='font-size: 30px;'><strong>Okay</strong></p>","null","neutral_feedback","0","test","12","","","","","","","","","","","","","","","","","","","","",""
"","","","","","","","","","","","html-button-response","31","2.0.0","150901","5d7ff85ffec5620017b07c40","3","33","2502","","","","","","","","","<img src= ""rock_img/I_Pumice_02.jpg"" style=""width:8cm; height:7.3999999999999995cm;""><p>What type of rock is this?</p>","7","class_response","0","test","13","Pumice","Pumice","02","true","8","8","","","","","","","","","","","","","","",""
"","","","","","","","","","","","html-keyboard-response","32","2.0.0","151412","5d7ff85ffec5620017b07c40","3","33","null","","","","","","","","","<p style='font-size: 30px;'><strong>Okay</strong></p>","null","neutral_feedback","0","test","13","","","","","","","","","","","","","","","","","","","","",""
"","","","","","","","","","","","html-button-response","33","2.0.0","153682","5d7ff85ffec5620017b07c40","3","33","2268","","","","","","","","","<img src= ""rock_img/I_Diorite_10.jpg"" style=""width:8cm; height:5.949999999999999cm;""><p>What type of rock is this?</p>","3","class_response","0","test","14","Gabbro","Diorite","10","false","4","3","","","","","","","","","","","","","","",""
"","","","","","","","","","","","html-keyboard-response","34","2.0.0","154194","5d7ff85ffec5620017b07c40","3","33","null","","","","","","","","","<p style='font-size: 30px;'><strong>Okay</strong></p>","null","neutral_feedback","0","test","14","","","","","","","","","","","","","","","","","","","","",""
"","","","","","","","","","","","html-button-response","35","2.0.0","156198","5d7ff85ffec5620017b07c40","3","33","2001","","","","","","","","","<img src= ""rock_img/I_Diorite_16.jpg"" style=""width:8cm; height:6.74cm;""><p>What type of rock is this?</p>","1","class_response","0","test","15","Basalt","Diorite","16","false","2","3","","","","","","","","","","","","","","",""
"","","","","","","","","","","","html-keyboard-response","36","2.0.0","156711","5d7ff85ffec5620017b07c40","3","33","null","","","","","","","","","<p style='font-size: 30px;'><strong>Okay</strong></p>","null","neutral_feedback","0","test","15","","","","","","","","","","","","","","","","","","","","",""
"","","","","","","","","","","","html-button-response","37","2.0.0","158713","5d7ff85ffec5620017b07c40","3","33","2001","","","","","","","","","<img src= ""rock_img/I_Gabbro_13.jpg"" style=""width:8cm; height:5.08cm;""><p>What type of rock is this?</p>","6","class_response","0","test","16","Peridotite","Gabbro","13","false","7","4","","","","","","","","","","","","","","",""
"","","","","","","","","","","","html-keyboard-response","38","2.0.0","159227","5d7ff85ffec5620017b07c40","3","33","null","","","","","","","","","<p style='font-size: 30px;'><strong>Okay</strong></p>","null","neutral_feedback","0","test","16","","","","","","","","","","","","","","","","","","","","",""
"","","","","","","","","","","","html-button-response","39","2.0.0","160964","5d7ff85ffec5620017b07c40","3","33","1735","","","","","","","","","<img src= ""rock_img/I_Basalt_08.jpg"" style=""width:8cm; height:10.44cm;""><p>What type of rock is this?</p>","4","class_response","0","test","17","Obsidian","Basalt","08","false","5","2","","","","","","","","","","","","","","",""
"","","","","","","","","","","","html-keyboard-response","40","2.0.0","161476","5d7ff85ffec5620017b07c40","3","33","null","","","","","","","","","<p style='font-size: 30px;'><strong>Okay</strong></p>","null","neutral_feedback","0","test","17","","","","","","","","","","","","","","","","","","","","",""
"","","","","","","","","","","","html-button-response","41","2.0.0","163361","5d7ff85ffec5620017b07c40","3","33","1884","","","","","","","","","<img src= ""rock_img/I_Peridotite_04.jpg"" style=""width:8cm; height:6.680000000000001cm;""><p>What type of rock is this?</p>","0","class_response","0","test","18","Andesite","Peridotite","04","false","1","7","","","","","","","","","","","","","","",""
"","","","","","","","","","","","html-keyboard-response","42","2.0.0","163875","5d7ff85ffec5620017b07c40","3","33","null","","","","","","","","","<p style='font-size: 30px;'><strong>Okay</strong></p>","null","neutral_feedback","0","test","18","","","","","","","","","","","","","","","","","","","","",""
"","","","","","","","","","","","html-button-response","43","2.0.0","165910","5d7ff85ffec5620017b07c40","3","33","2033","","","","","","","","","<img src= ""rock_img/I_Obsidian_09.jpg"" style=""width:8cm; height:5cm;""><p>What type of rock is this?</p>","2","class_response","0","test","19","Diorite","Obsidian","09","false","3","5","","","","","","","","","","","","","","",""
"","","","","","","","","","","","html-keyboard-response","44","2.0.0","166425","5d7ff85ffec5620017b07c40","3","33","null","","","","","","","","","<p style='font-size: 30px;'><strong>Okay</strong></p>","null","neutral_feedback","0","test","19","","","","","","","","","","","","","","","","","","","","",""
"","","","","","","","","","","","html-button-response","45","2.0.0","167979","5d7ff85ffec5620017b07c40","3","33","1552","","","","","","","","","<img src= ""rock_img/I_Andesite_06.jpg"" style=""width:8cm; height:6.840000000000001cm;""><p>What type of rock is this?</p>","6","class_response","0","test","20","Peridotite","Andesite","06","false","7","1","","","","","","","","","","","","","","",""
"","","","","","","","","","","","html-keyboard-response","46","2.0.0","168490","5d7ff85ffec5620017b07c40","3","33","null","","","","","","","","","<p style='font-size: 30px;'><strong>Okay</strong></p>","null","neutral_feedback","0","test","20","","","","","","","","","","","","","","","","","","","","",""
"","","","","","","","","","","","html-button-response","47","2.0.0","169776","5d7ff85ffec5620017b07c40","3","33","1285","","","","","","","","","<img src= ""rock_img/I_Peridotite_16.jpg"" style=""width:8cm; height:6.989999999999999cm;""><p>What type of rock is this?</p>","3","class_response","0","test","21","Gabbro","Peridotite","16","false","4","7","","","","","","","","","","","","","","",""
"","","","","","","","","","","","html-keyboard-response","48","2.0.0","170290","5d7ff85ffec5620017b07c40","3","33","null","","","","","","","","","<p style='font-size: 30px;'><strong>Okay</strong></p>","null","neutral_feedback","0","test","21","","","","","","","","","","","","","","","","","","","","",""
"","","","","","","","","","","","html-button-response","49","2.0.0","171827","5d7ff85ffec5620017b07c40","3","33","1535","","","","","","","","","<img src= ""rock_img/I_Peridotite_13.jpg"" style=""width:8cm; height:7.58cm;""><p>What type of rock is this?</p>","1","class_response","0","test","22","Basalt","Peridotite","13","false","2","7","","","","","","","","","","","","","","",""
"","","","","","","","","","","","html-keyboard-response","50","2.0.0","172338","5d7ff85ffec5620017b07c40","3","33","null","","","","","","","","","<p style='font-size: 30px;'><strong>Okay</strong></p>","null","neutral_feedback","0","test","22","","","","","","","","","","","","","","","","","","","","",""
"","","","","","","","","","","","html-button-response","51","2.0.0","177791","5d7ff85ffec5620017b07c40","3","33","5451","","","","","","","","","<img src= ""rock_img/I_Pegmatite_15.jpg"" style=""width:8cm; height:6cm;""><p>What type of rock is this?</p>","6","class_response","0","test","23","Peridotite","Pegmatite","15","false","7","6","","","","","","","","","","","","","","",""
"","","","","","","","","","","","html-keyboard-response","52","2.0.0","178303","5d7ff85ffec5620017b07c40","3","33","null","","","","","","","","","<p style='font-size: 30px;'><strong>Okay</strong></p>","null","neutral_feedback","0","test","23","","","","","","","","","","","","","","","","","","","","",""
"","","","","","","","","","","","html-button-response","53","2.0.0","179923","5d7ff85ffec5620017b07c40","3","33","1618","","","","","","","","","<img src= ""rock_img/I_Gabbro_08.jpg"" style=""width:8cm; height:5.15cm;""><p>What type of rock is this?</p>","3","class_response","0","test","24","Gabbro","Gabbro","08","true","4","4","","","","","","","","","","","","","","",""
"","","","","","","","","","","","html-keyboard-response","54","2.0.0","180436","5d7ff85ffec5620017b07c40","3","33","null","","","","","","","","","<p style='font-size: 30px;'><strong>Okay</strong></p>","null","neutral_feedback","0","test","24","","","","","","","","","","","","","","","","","","","","",""
"","","","","","","","","","","","html-button-response","55","2.0.0","182206","5d7ff85ffec5620017b07c40","3","33","1768","","","","","","","","","<img src= ""rock_img/I_Obsidian_16.jpg"" style=""width:8cm; height:9.3cm;""><p>What type of rock is this?</p>","4","class_response","0","test","25","Obsidian","Obsidian","16","true","5","5","","","","","","","","","","","","","","",""
"","","","","","","","","","","","html-keyboard-response","56","2.0.0","182720","5d7ff85ffec5620017b07c40","3","33","null","","","","","","","","","<p style='font-size: 30px;'><strong>Okay</strong></p>","null","neutral_feedback","0","test","25","","","","","","","","","","","","","","","","","","","","",""
"","","","","","","","","","","","html-button-response","57","2.0.0","184188","5d7ff85ffec5620017b07c40","3","33","1467","","","","","","","","","<img src= ""rock_img/I_Basalt_11.jpg"" style=""width:8cm; height:5.359999999999999cm;""><p>What type of rock is this?</p>","7","class_response","0","test","26","Pumice","Basalt","11","false","8","2","","","","","","","","","","","","","","",""
"","","","","","","","","","","","html-keyboard-response","58","2.0.0","184701","5d7ff85ffec5620017b07c40","3","33","null","","","","","","","","","<p style='font-size: 30px;'><strong>Okay</strong></p>","null","neutral_feedback","0","test","26","","","","","","","","","","","","","","","","","","","","",""
"","","","","","","","","","","","html-button-response","59","2.0.0","186385","5d7ff85ffec5620017b07c40","3","33","1682","","","","","","","","","<img src= ""rock_img/I_Basalt_10.jpg"" style=""width:8cm; height:5.85cm;""><p>What type of rock is this?</p>","0","class_response","0","test","27","Andesite","Basalt","10","false","1","2","","","","","","","","","","","","","","",""
"","","","","","","","","","","","html-keyboard-response","60","2.0.0","186900","5d7ff85ffec5620017b07c40","3","33","null","","","","","","","","","<p style='font-size: 30px;'><strong>Okay</strong></p>","null","neutral_feedback","0","test","27","","","","","","","","","","","","","","","","","","","","",""
"","","","","","","","","","","","html-button-response","61","2.0.0","189552","5d7ff85ffec5620017b07c40","3","33","2650","","","","","","","","","<img src= ""rock_img/I_Pumice_06.jpg"" style=""width:8cm; height:6.9399999999999995cm;""><p>What type of rock is this?</p>","7","class_response","0","test","28","Pumice","Pumice","06","true","8","8","","","","","","","","","","","","","","",""
"","","","","","","","","","","","html-keyboard-response","62","2.0.0","190065","5d7ff85ffec5620017b07c40","3","33","null","","","","","","","","","<p style='font-size: 30px;'><strong>Okay</strong></p>","null","neutral_feedback","0","test","28","","","","","","","","","","","","","","","","","","","","",""
"","","","","","","","","","","","html-button-response","63","2.0.0","192018","5d7ff85ffec5620017b07c40","3","33","1951","","","","","","","","","<img src= ""rock_img/I_Diorite_02.jpg"" style=""width:8cm; height:6.27cm;""><p>What type of rock is this?</p>","2","class_response","0","test","29","Diorite","Diorite","02","true","3","3","","","","","","","","","","","","","","",""
"","","","","","","","","","","","html-keyboard-response","64","2.0.0","192533","5d7ff85ffec5620017b07c40","3","33","null","","","","","","","","","<p style='font-size: 30px;'><strong>Okay</strong></p>","null","neutral_feedback","0","test","29","","","","","","","","","","","","","","","","","","","","",""
"","","","","","","","","","","","html-button-response","65","2.0.0","194950","5d7ff85ffec5620017b07c40","3","33","2416","","","","","","","","","<img src= ""rock_img/I_Pumice_03.jpg"" style=""width:8cm; height:6.64cm;""><p>What type of rock is this?</p>","7","class_response","0","test","30","Pumice","Pumice","03","true","8","8","","","","","","","","","","","","","","",""
"","","","","","","","","","","","html-keyboard-response","66","2.0.0","195463","5d7ff85ffec5620017b07c40","3","33","null","","","","","","","","","<p style='font-size: 30px;'><strong>Okay</strong></p>","null","neutral_feedback","0","test","30","","","","","","","","","","","","","","","","","","","","",""
"","","","","","","","","","","","html-button-response","67","2.0.0","197748","5d7ff85ffec5620017b07c40","3","33","2283","","","","","","","","","<img src= ""rock_img/I_Obsidian_06.jpg"" style=""width:8cm; height:6.8cm;""><p>What type of rock is this?</p>","5","class_response","0","test","31","Pegmatite","Obsidian","06","false","6","5","","","","","","","","","","","","","","",""
"","","","","","","","","","","","html-keyboard-response","68","2.0.0","198262","5d7ff85ffec5620017b07c40","3","33","null","","","","","","","","","<p style='font-size: 30px;'><strong>Okay</strong></p>","null","neutral_feedback","0","test","31","","","","","","","","","","","","","","","","","","","","",""
"","","","","","","","","","","","html-button-response","69","2.0.0","217477","5d7ff85ffec5620017b07c40","3","33","19213","","","","","","","","","<img src= ""rock_img/I_Andesite_10.jpg"" style=""width:8cm; height:4.16cm;""><p>What type of rock is this?</p>","1","class_response","0","test","32","Basalt","Andesite","10","false","2","1","","","","","","","","","","","","","","",""
"","","","","","","","","","","","html-keyboard-response","70","2.0.0","217990","5d7ff85ffec5620017b07c40","3","33","null","","","","","","","","","<p style='font-size: 30px;'><strong>Okay</strong></p>","null","neutral_feedback","0","test","32","","","","","","","","","","","","","","","","","","","","",""
"","","","","","","","","","","","html-button-response","71","2.0.0","219408","5d7ff85ffec5620017b07c40","3","33","1417","","","","","","","","","<img src= ""rock_img/I_Gabbro_10.jpg"" style=""width:8cm; height:5.680000000000001cm;""><p>What type of rock is this?</p>","0","class_response","0","test","33","Andesite","Gabbro","10","false","1","4","","","","","","","","","","","","","","",""
"","","","","","","","","","","","html-keyboard-response","72","2.0.0","219921","5d7ff85ffec5620017b07c40","3","33","null","","","","","","","","","<p style='font-size: 30px;'><strong>Okay</strong></p>","null","neutral_feedback","0","test","33","","","","","","","","","","","","","","","","","","","","",""
"","","","","","","","","","","","html-button-response","73","2.0.0","221392","5d7ff85ffec5620017b07c40","3","33","1469","","","","","","","","","<img src= ""rock_img/I_Diorite_14.jpg"" style=""width:8cm; height:5.71cm;""><p>What type of rock is this?</p>","3","class_response","0","test","34","Gabbro","Diorite","14","false","4","3","","","","","","","","","","","","","","",""
"","","","","","","","","","","","html-keyboard-response","74","2.0.0","221905","5d7ff85ffec5620017b07c40","3","33","null","","","","","","","","","<p style='font-size: 30px;'><strong>Okay</strong></p>","null","neutral_feedback","0","test","34","","","","","","","","","","","","","","","","","","","","",""
"","","","","","","","","","","","html-button-response","75","2.0.0","223507","5d7ff85ffec5620017b07c40","3","33","1601","","","","","","","","","<img src= ""rock_img/I_Pegmatite_10.jpg"" style=""width:8cm; height:4.16cm;""><p>What type of rock is this?</p>","6","class_response","0","test","35","Peridotite","Pegmatite","10","false","7","6","","","","","","","","","","","","","","",""
"","","","","","","","","","","","html-keyboard-response","76","2.0.0","224021","5d7ff85ffec5620017b07c40","3","33","null","","","","","","","","","<p style='font-size: 30px;'><strong>Okay</strong></p>","null","neutral_feedback","0","test","35","","","","","","","","","","","","","","","","","","","","",""
"","","","","","","","","","","","html-button-response","77","2.0.0","225906","5d7ff85ffec5620017b07c40","3","33","1884","","","","","","","","","<img src= ""rock_img/I_Pumice_14.jpg"" style=""width:8cm; height:6.39cm;""><p>What type of rock is this?</p>","7","class_response","0","test","36","Pumice","Pumice","14","true","8","8","","","","","","","","","","","","","","",""
"","","","","","","","","","","","html-keyboard-response","78","2.0.0","226420","5d7ff85ffec5620017b07c40","3","33","null","","","","","","","","","<p style='font-size: 30px;'><strong>Okay</strong></p>","null","neutral_feedback","0","test","36","","","","","","","","","","","","","","","","","","","","",""
"","","","","","","","","","","","html-button-response","79","2.0.0","228089","5d7ff85ffec5620017b07c40","3","33","1667","","","","","","","","","<img src= ""rock_img/I_Peridotite_07.jpg"" style=""width:8cm; height:4.83cm;""><p>What type of rock is this?</p>","7","class_response","0","test","37","Pumice","Peridotite","07","false","8","7","","","","","","","","","","","","","","",""
"","","","","","","","","","","","html-keyboard-response","80","2.0.0","228602","5d7ff85ffec5620017b07c40","3","33","null","","","","","","","","","<p style='font-size: 30px;'><strong>Okay</strong></p>","null","neutral_feedback","0","test","37","","","","","","","","","","","","","","","","","","","","",""
"","","","","","","","","","","","html-button-response","81","2.0.0","230288","5d7ff85ffec5620017b07c40","3","33","1684","","","","","","","","","<img src= ""rock_img/I_Andesite_09.jpg"" style=""width:8cm; height:6cm;""><p>What type of rock is this?</p>","5","class_response","0","test","38","Pegmatite","Andesite","09","false","6","1","","","","","","","","","","","","","","",""
"","","","","","","","","","","","html-keyboard-response","82","2.0.0","230801","5d7ff85ffec5620017b07c40","3","33","null","","","","","","","","","<p style='font-size: 30px;'><strong>Okay</strong></p>","null","neutral_feedback","0","test","38","","","","","","","","","","","","","","","","","","","","",""
"","","","","","","","","","","","html-button-response","83","2.0.0","232538","5d7ff85ffec5620017b07c40","3","33","1735","","","","","","","","","<img src= ""rock_img/I_Pegmatite_06.jpg"" style=""width:8cm; height:5.17cm;""><p>What type of rock is this?</p>","6","class_response","0","test","39","Peridotite","Pegmatite","06","false","7","6","","","","","","","","","","","","","","",""
"","","","","","","","","","","","html-keyboard-response","84","2.0.0","233050","5d7ff85ffec5620017b07c40","3","33","null","","","","","","","","","<p style='font-size: 30px;'><strong>Okay</strong></p>","null","neutral_feedback","0","test","39","","","","","","","","","","","","","","","","","","","","",""
"","","","","","","","","","","","html-button-response","85","2.0.0","235438","5d7ff85ffec5620017b07c40","3","33","2386","","","","","","","","","<img src= ""rock_img/I_Andesite_16.jpg"" style=""width:8cm; height:6.010000000000001cm;""><p>What type of rock is this?</p>","1","class_response","0","test","40","Basalt","Andesite","16","false","2","1","","","","","","","","","","","","","","",""
"","","","","","","","","","","","html-keyboard-response","86","2.0.0","235950","5d7ff85ffec5620017b07c40","3","33","null","","","","","","","","","<p style='font-size: 30px;'><strong>Okay</strong></p>","null","neutral_feedback","0","test","40","","","","","","","","","","","","","","","","","","","","",""
"","","","","","","","","","","","html-button-response","87","2.0.0","238469","5d7ff85ffec5620017b07c40","3","33","2517","","","","","","","","","<img src= ""rock_img/I_Pegmatite_12.jpg"" style=""width:8cm; height:5.7cm;""><p>What type of rock is this?</p>","0","class_response","0","test","41","Andesite","Pegmatite","12","false","1","6","","","","","","","","","","","","","","",""
"","","","","","","","","","","","html-keyboard-response","88","2.0.0","238982","5d7ff85ffec5620017b07c40","3","33","null","","","","","","","","","<p style='font-size: 30px;'><strong>Okay</strong></p>","null","neutral_feedback","0","test","41","","","","","","","","","","","","","","","","","","","","",""
"","","","","","","","","","","","html-button-response","89","2.0.0","240885","5d7ff85ffec5620017b07c40","3","33","1901","","","","","","","","","<img src= ""rock_img/I_Gabbro_03.jpg"" style=""width:8cm; height:8.52cm;""><p>What type of rock is this?</p>","3","class_response","0","test","42","Gabbro","Gabbro","03","true","4","4","","","","","","","","","","","","","","",""
"","","","","","","","","","","","html-keyboard-response","90","2.0.0","241398","5d7ff85ffec5620017b07c40","3","33","null","","","","","","","","","<p style='font-size: 30px;'><strong>Okay</strong></p>","null","neutral_feedback","0","test","42","","","","","","","","","","","","","","","","","","","","",""
"","","","","","","","","","","","html-button-response","91","2.0.0","252648","5d7ff85ffec5620017b07c40","3","33","11247","","","","","","","","","<img src= ""rock_img/I_Obsidian_12.jpg"" style=""width:8cm; height:6.53cm;""><p>What type of rock is this?</p>","2","class_response","0","test","43","Diorite","Obsidian","12","false","3","5","","","","","","","","","","","","","","",""
"","","","","","","","","","","","html-keyboard-response","92","2.0.0","253160","5d7ff85ffec5620017b07c40","3","33","null","","","","","","","","","<p style='font-size: 30px;'><strong>Okay</strong></p>","null","neutral_feedback","0","test","43","","","","","","","","","","","","","","","","","","","","",""
"","","","","","","","","","","","html-button-response","93","2.0.0","256130","5d7ff85ffec5620017b07c40","3","33","2968","","","","","","","","","<img src= ""rock_img/I_Pegmatite_05.jpg"" style=""width:8cm; height:7.300000000000001cm;""><p>What type of rock is this?</p>","0","class_response","0","test","44","Andesite","Pegmatite","05","false","1","6","","","","","","","","","","","","","","",""
"","","","","","","","","","","","html-keyboard-response","94","2.0.0","256643","5d7ff85ffec5620017b07c40","3","33","null","","","","","","","","","<p style='font-size: 30px;'><strong>Okay</strong></p>","null","neutral_feedback","0","test","44","","","","","","","","","","","","","","","","","","","","",""
"","","","","","","","","","","","html-button-response","95","2.0.0","258913","5d7ff85ffec5620017b07c40","3","33","2268","","","","","","","","","<img src= ""rock_img/I_Peridotite_05.jpg"" style=""width:8cm; height:7.1499999999999995cm;""><p>What type of rock is this?</p>","3","class_response","0","test","45","Gabbro","Peridotite","05","false","4","7","","","","","","","","","","","","","","",""
"","","","","","","","","","","","html-keyboard-response","96","2.0.0","259425","5d7ff85ffec5620017b07c40","3","33","null","","","","","","","","","<p style='font-size: 30px;'><strong>Okay</strong></p>","null","neutral_feedback","0","test","45","","","","","","","","","","","","","","","","","","","","",""
"","","","","","","","","","","","html-button-response","97","2.0.0","261534","5d7ff85ffec5620017b07c40","3","33","2106","","","","","","","","","<img src= ""rock_img/I_Gabbro_14.jpg"" style=""width:8cm; height:8.48cm;""><p>What type of rock is this?</p>","5","class_response","0","test","46","Pegmatite","Gabbro","14","false","6","4","","","","","","","","","","","","","","",""
"","","","","","","","","","","","html-keyboard-response","98","2.0.0","262041","5d7ff85ffec5620017b07c40","3","33","null","","","","","","","","","<p style='font-size: 30px;'><strong>Okay</strong></p>","null","neutral_feedback","0","test","46","","","","","","","","","","","","","","","","","","","","",""
"","","","","","","","","","","","html-button-response","99","2.0.0","263714","5d7ff85ffec5620017b07c40","3","33","1672","","","","","","","","","<img src= ""rock_img/I_Andesite_01.jpg"" style=""width:8cm; height:5.87cm;""><p>What type of rock is this?</p>","6","class_response","0","test","47","Peridotite","Andesite","01","false","7","1","","","","","","","","","","","","","","",""
"","","","","","","","","","","","html-keyboard-response","100","2.0.0","264224","5d7ff85ffec5620017b07c40","3","33","null","","","","","","","","","<p style='font-size: 30px;'><strong>Okay</strong></p>","null","neutral_feedback","0","test","47","","","","","","","","","","","","","","","","","","","","",""
"","","","","","","","","","","","html-button-response","101","2.0.0","265516","5d7ff85ffec5620017b07c40","3","33","1290","","","","","","","","","<img src= ""rock_img/I_Pumice_09.jpg"" style=""width:8cm; height:6.44cm;""><p>What type of rock is this?</p>","7","class_response","0","test","48","Pumice","Pumice","09","true","8","8","","","","","","","","","","","","","","",""
"","","","","","","","","","","","html-keyboard-response","102","2.0.0","266023","5d7ff85ffec5620017b07c40","3","33","null","","","","","","","","","<p style='font-size: 30px;'><strong>Okay</strong></p>","null","neutral_feedback","0","test","48","","","","","","","","","","","","","","","","","","","","",""
"","","","","","","","","","","","instructions","103","2.0.0","448649","5d7ff85ffec5620017b07c40","3","33","182540","","","","","","","","[{""page_index"":0,""viewing_time"":178975},{""page_index"":1,""viewing_time"":3565}]","","","","","","","","","","","","","","","","","","","","","","","","","","",""
"","","","","","","","","","","","html-button-response","104","2.0.0","452764","5d7ff85ffec5620017b07c40","3","33","4113","","","","","","","","","","0","start_train","","","","","","","","","","","","","","","","","","","","","","","",""
"","","","","","","","","","","","html-button-response","106","2.0.0","457646","5d7ff85ffec5620017b07c40","3","33","4879","","","","","","","","","<img src= ""rock_img/I_Andesite_14.jpg"" style=""width:8cm; height:5.449999999999999cm;""><p>What type of rock is this?</p>","0","class_response","1","train","1","Andesite","Andesite","14","true","1","1","","","","","","","","","","","","","","",""
"","","","","","","","","","","","html-button-response","107","2.0.0","484990","5d7ff85ffec5620017b07c40","3","33","27342","","","","","","","","","<img src= rock_img/I_Andesite_14.jpg style=""width:8cm; height:5.449999999999999cm;""><p style='font-size: 30px; color: green;'><strong>Correct!</strong></p><p style='font-size: 30px;'><strong>This rock is andesite</strong></p>","0","corr_feedback","1","train","1","","","","","","","","","","","","","","","","","","","","",""
"","","","","","","","","","","","html-button-response","108","2.0.0","489772","5d7ff85ffec5620017b07c40","3","33","4780","","","","","","","","","<img src= ""rock_img/I_Diorite_07.jpg"" style=""width:8cm; height:5.239999999999999cm;""><p>What type of rock is this?</p>","1","class_response","1","train","2","Basalt","Diorite","07","false","2","3","","","","","","","","","","","","","","",""
"","","","","","","","","","","","html-button-response","109","2.0.0","518724","5d7ff85ffec5620017b07c40","3","33","28950","","","","","","","","","<img src= rock_img/I_Diorite_07.jpg style=""width:8cm; height:5.239999999999999cm;""><p style='font-size: 30px; color: red;'><strong>Incorrect!</strong></p><p style='font-size: 30px;'><strong>This rock is diorite</strong></p>","0","corr_feedback","1","train","2","","","","","","","","","","","","","","","","","","","","",""
"","","","","","","","","","","","html-button-response","110","2.0.0","521423","5d7ff85ffec5620017b07c40","3","33","2697","","","","","","","","","<img src= ""rock_img/I_Basalt_05.jpg"" style=""width:8cm; height:8.18cm;""><p>What type of rock is this?</p>","4","class_response","1","train","3","Obsidian","Basalt","05","false","5","2","","","","","","","","","","","","","","",""
"","","","","","","","","","","","html-button-response","111","2.0.0","551481","5d7ff85ffec5620017b07c40","3","33","30056","","","","","","","","","<img src= rock_img/I_Basalt_05.jpg style=""width:8cm; height:8.18cm;""><p style='font-size: 30px; color: red;'><strong>Incorrect!</strong></p><p style='font-size: 30px;'><strong>This rock is basalt</strong></p>","0","corr_feedback","1","train","3","","","","","","","","","","","","","","","","","","","","",""
"","","","","","","","","","","","html-button-response","112","2.0.0","553613","5d7ff85ffec5620017b07c40","3","33","2129","","","","","","","","","<img src= ""rock_img/I_Pumice_10.jpg"" style=""width:8cm; height:7.609999999999999cm;""><p>What type of rock is this?</p>","7","class_response","1","train","4","Pumice","Pumice","10","true","8","8","","","","","","","","","","","","","","",""
"","","","","","","","","","","","html-button-response","113","2.0.0","575723","5d7ff85ffec5620017b07c40","3","33","22108","","","","","","","","","<img src= rock_img/I_Pumice_10.jpg style=""width:8cm; height:7.609999999999999cm;""><p style='font-size: 30px; color: green;'><strong>Correct!</strong></p><p style='font-size: 30px;'><strong>This rock is pumice</strong></p>","0","corr_feedback","1","train","4","","","","","","","","","","","","","","","","","","","","",""
"","","","","","","","","","","","html-button-response","114","2.0.0","582927","5d7ff85ffec5620017b07c40","3","33","7200","","","","","","","","","<img src= ""rock_img/I_Gabbro_11.jpg"" style=""width:8cm; height:6.2cm;""><p>What type of rock is this?</p>","3","class_response","1","train","5","Gabbro","Gabbro","11","true","4","4","","","","","","","","","","","","","","",""
"","","","","","","","","","","","html-button-response","115","2.0.0","630270","5d7ff85ffec5620017b07c40","3","33","47335","","","","","","","","","<img src= rock_img/I_Gabbro_11.jpg style=""width:8cm; height:6.2cm;""><p style='font-size: 30px; color: green;'><strong>Correct!</strong></p><p style='font-size: 30px;'><strong>This rock is gabbro</strong></p>","0","corr_feedback","1","train","5","","","","","","","","","","","","","","","","","","","","",""
"","","","","","","","","","","","html-button-response","116","2.0.0","637301","5d7ff85ffec5620017b07c40","3","33","7029","","","","","","","","","<img src= ""rock_img/I_Gabbro_05.jpg"" style=""width:8cm; height:6cm;""><p>What type of rock is this?</p>","5","class_response","1","train","6","Pegmatite","Gabbro","05","false","6","4","","","","","","","","","","","","","","",""
"","","","","","","","","","","","html-button-response","117","2.0.0","649583","5d7ff85ffec5620017b07c40","3","33","12293","","","","","","","","","<img src= rock_img/I_Gabbro_05.jpg style=""width:8cm; height:6cm;""><p style='font-size: 30px; color: red;'><strong>Incorrect!</strong></p><p style='font-size: 30px;'><strong>This rock is gabbro</strong></p>","0","corr_feedback","1","train","6","","","","","","","","","","","","","","","","","","","","",""
"","","","","","","","","","","","html-button-response","118","2.0.0","657598","5d7ff85ffec5620017b07c40","3","33","8013","","","","","","","","","<img src= ""rock_img/I_Peridotite_12.jpg"" style=""width:8cm; height:4.54cm;""><p>What type of rock is this?</p>","2","class_response","1","train","7","Diorite","Peridotite","12","false","3","7","","","","","","","","","","","","","","",""
"","","","","","","","","","","","html-button-response","119","2.0.0","684388","5d7ff85ffec5620017b07c40","3","33","26789","","","","","","","","","<img src= rock_img/I_Peridotite_12.jpg style=""width:8cm; height:4.54cm;""><p style='font-size: 30px; color: red;'><strong>Incorrect!</strong></p><p style='font-size: 30px;'><strong>This rock is peridotite</strong></p>","0","corr_feedback","1","train","7","","","","","","","","","","","","","","","","","","","","",""
"","","","","","","","","","","","html-button-response","120","2.0.0","687354","5d7ff85ffec5620017b07c40","3","33","2964","","","","","","","","","<img src= ""rock_img/I_Obsidian_02.jpg"" style=""width:8cm; height:7.51cm;""><p>What type of rock is this?</p>","4","class_response","1","train","8","Obsidian","Obsidian","02","true","5","5","","","","","","","","","","","","","","",""
"","","","","","","","","","","","html-button-response","121","2.0.0","705199","5d7ff85ffec5620017b07c40","3","33","17843","","","","","","","","","<img src= rock_img/I_Obsidian_02.jpg style=""width:8cm; height:7.51cm;""><p style='font-size: 30px; color: green;'><strong>Correct!</strong></p><p style='font-size: 30px;'><strong>This rock is obsidian</strong></p>","0","corr_feedback","1","train","8","","","","","","","","","","","","","","","","","","","","",""
"","","","","","","","","","","","html-button-response","122","2.0.0","710942","5d7ff85ffec5620017b07c40","3","33","5729","","","","","","","","","<img src= ""rock_img/I_Peridotite_14.jpg"" style=""width:8cm; height:5.3cm;""><p>What type of rock is this?</p>","2","class_response","1","train","9","Diorite","Peridotite","14","false","3","7","","","","","","","","","","","","","","",""
"","","","","","","","","","","","html-button-response","123","2.0.0","728887","5d7ff85ffec5620017b07c40","3","33","17943","","","","","","","","","<img src= rock_img/I_Peridotite_14.jpg style=""width:8cm; height:5.3cm;""><p style='font-size: 30px; color: red;'><strong>Incorrect!</strong></p><p style='font-size: 30px;'><strong>This rock is peridotite</strong></p>","0","corr_feedback","1","train","9","","","","","","","","","","","","","","","","","","","","",""
"","","","","","","","","","","","html-button-response","124","2.0.0","733684","5d7ff85ffec5620017b07c40","3","33","4795","","","","","","","","","<img src= ""rock_img/I_Pegmatite_13.jpg"" style=""width:8cm; height:4.95cm;""><p>What type of rock is this?</p>","2","class_response","1","train","10","Diorite","Pegmatite","13","false","3","6","","","","","","","","","","","","","","",""
"","","","","","","","","","","","html-button-response","125","2.0.0","777803","5d7ff85ffec5620017b07c40","3","33","44117","","","","","","","","","<img src= rock_img/I_Pegmatite_13.jpg style=""width:8cm; height:4.95cm;""><p style='font-size: 30px; color: red;'><strong>Incorrect!</strong></p><p style='font-size: 30px;'><strong>This rock is pegmatite</strong></p>","0","corr_feedback","1","train","10","","","","","","","","","","","","","","","","","","","","",""
"","","","","","","","","","","","html-button-response","126","2.0.0","787700","5d7ff85ffec5620017b07c40","3","33","9895","","","","","","","","","<img src= ""rock_img/I_Andesite_11.jpg"" style=""width:8cm; height:4.92cm;""><p>What type of rock is this?</p>","0","class_response","1","train","11","Andesite","Andesite","11","true","1","1","","","","","","","","","","","","","","",""
"","","","","","","","","","","","html-button-response","127","2.0.0","790398","5d7ff85ffec5620017b07c40","3","33","2697","","","","","","","","","<img src= rock_img/I_Andesite_11.jpg style=""width:8cm; height:4.92cm;""><p style='font-size: 30px; color: green;'><strong>Correct!</strong></p><p style='font-size: 30px;'><strong>This rock is andesite</strong></p>","0","corr_feedback","1","train","11","","","","","","","","","","","","","","","","","","","","",""
"","","","","","","","","","","","html-button-response","128","2.0.0","798029","5d7ff85ffec5620017b07c40","3","33","7629","","","","","","","","","<img src= ""rock_img/I_Diorite_11.jpg"" style=""width:8cm; height:7.11cm;""><p>What type of rock is this?</p>","6","class_response","1","train","12","Peridotite","Diorite","11","false","7","3","","","","","","","","","","","","","","",""
"","","","","","","","","","","","html-button-response","129","2.0.0","802144","5d7ff85ffec5620017b07c40","3","33","4114","","","","","","","","","<img src= rock_img/I_Diorite_11.jpg style=""width:8cm; height:7.11cm;""><p style='font-size: 30px; color: red;'><strong>Incorrect!</strong></p><p style='font-size: 30px;'><strong>This rock is diorite</strong></p>","0","corr_feedback","1","train","12","","","","","","","","","","","","","","","","","","","","",""
"","","","","","","","","","","","instructions","130","2.0.0","851296","5d7ff85ffec5620017b07c40","3","33","49150","","","","","","","","[{""page_index"":0,""viewing_time"":5466},{""page_index"":1,""viewing_time"":7263},{""page_index"":2,""viewing_time"":27724},{""page_index"":3,""viewing_time"":8697}]","","","","","","","","","","","","","","","","","","","","","","","","","","",""
"","","","","","","","","","","","html-button-response","131","2.0.0","852894","5d7ff85ffec5620017b07c40","3","33","1596","","","","","","","","","","0","start_train","","","","","","","","","","","","","","","","","","","","","","","",""
"","","","","","","","","","","","html-button-response","132","2.0.0","861324","5d7ff85ffec5620017b07c40","3","33","","","","","","","","","","","","cat_selection","1","train","1","","","","","","","1","2","8427.20000000298","Andesite","Basalt","[0.1569767441860465,0.1569767441860465,0.11046511627906977,0.11046511627906977,0.13372093023255813,0.1569767441860465,0.1569767441860465,0.01744186046511628]","[null,0.26244675072125917,0.044163660014689896,0.15822476351341622,0.059552545971136045,0.14852243731992348,0.26531934276646246,0.06177049969311272]","","","","","","","",""
"","","","","","","","","","","","paired-cat-display","133","1.0.0","968842","5d7ff85ffec5620017b07c40","3","33","","","","","","","","","","","","paired_cat_display","1","train","1","","","","","","","","","49614.60000000149","","","","","Grey
Speckled
Flat edges","grey and red
straight
","57898.10000000149","","","","",""
"","","","","","","","","","","","html-button-response","134","2.0.0","976452","5d7ff85ffec5620017b07c40","3","33","","","","","","","","","","","","cat_selection","1","train","2","","","","","","","4","7","7608.19999999553","Gabbro","Peridotite","[0.1569767441860465,0.1569767441860465,0.11046511627906977,0.11046511627906977,0.13372093023255813,0.1569767441860465,0.1569767441860465,0.01744186046511628]","[0.20860699836504248,0.05192776051737066,0.05562466733312051,null,0.062030104849355464,0.20875905622892937,0.36710142696286396,0.04594998574331756]","","","","","","","",""
"","","","","","","","","","","","paired-cat-display","135","1.0.0","1076637","5d7ff85ffec5620017b07c40","3","33","","","","","","","","","","","","paired_cat_display","1","train","2","","","","","","","","","38935.5","","","","","","","61245.89999999851","Specks
Dark grey and red
White specks","Glossy'
Black specks
glossy","","",""
"","","","","","","","","","","","html-button-response","136","2.0.0","1081683","5d7ff85ffec5620017b07c40","3","33","","","","","","","","","","","","cat_selection","1","train","3","","","","","","","6","7","5043.79999999702","Pegmatite","Peridotite","[0.1569767441860465,0.1569767441860465,0.11046511627906977,0.11046511627906977,0.13372093023255813,0.1569767441860465,0.1569767441860465,0.01744186046511628]","[0.2584081567067259,0.04893284397383774,0.06511045996518827,0.062132711966780343,0.05695498596954864,null,0.4664612614403745,0.04199957997754466]","","","","","","","",""
"","","","","","","","","","","","paired-cat-display","137","1.0.0","1133752","5d7ff85ffec5620017b07c40","3","33","","","","","","","","","","","","paired_cat_display","1","train","3","","","","","","","","","20238.29999999702","","","","","","","31826.39999999851","","Light colors
Small specs","Large black areas
","",""
"","","","","","","","","","","","instructions","138","2.0.0","1160409","5d7ff85ffec5620017b07c40","3","33","26656","","","","","","","","[{""page_index"":0,""viewing_time"":6128},{""page_index"":1,""viewing_time"":20528}]","","","","","","","","","","","","","","","","","","","","","","","","","","",""
"","","","","","","","","","","","html-button-response","139","2.0.0","1162627","5d7ff85ffec5620017b07c40","3","33","2216","","","","","","","","","","0","start_test","","","","","","","","","","","","","","","","","","","","","","","",""
"","","","","","","","","","","","html-button-response","140","2.0.0","1176251","5d7ff85ffec5620017b07c40","3","33","13622","","","","","","","","","<img src= ""rock_img/I_Peridotite_05.jpg"" style=""width:8cm; height:7.1499999999999995cm;""><p>What type of rock is this?</p>","6","class_response","1","test","1","Peridotite","Peridotite","05","true","7","7","","","","","","","","","","","","","","",""
"","","","","","","","","","","","html-keyboard-response","141","2.0.0","1176766","5d7ff85ffec5620017b07c40","3","33","null","","","","","","","","","<p style='font-size: 30px;'><strong>Okay</strong></p>","null","neutral_feedback","1","test","1","","","","","","","","","","","","","","","","","","","","",""
"","","","","","","","","","","","html-button-response","142","2.0.0","1178817","5d7ff85ffec5620017b07c40","3","33","2048","","","","","","","","","<img src= ""rock_img/I_Pumice_09.jpg"" style=""width:8cm; height:6.44cm;""><p>What type of rock is this?</p>","7","class_response","1","test","2","Pumice","Pumice","09","true","8","8","","","","","","","","","","","","","","",""
"","","","","","","","","","","","html-keyboard-response","143","2.0.0","1179326","5d7ff85ffec5620017b07c40","3","33","null","","","","","","","","","<p style='font-size: 30px;'><strong>Okay</strong></p>","null","neutral_feedback","1","test","2","","","","","","","","","","","","","","","","","","","","",""
"","","","","","","","","","","","html-button-response","144","2.0.0","1185938","5d7ff85ffec5620017b07c40","3","33","6608","","","","","","","","","<img src= ""rock_img/I_Pegmatite_03.jpg"" style=""width:8cm; height:5.239999999999999cm;""><p>What type of rock is this?</p>","5","class_response","1","test","3","Pegmatite","Pegmatite","03","true","6","6","","","","","","","","","","","","","","",""
"","","","","","","","","","","","html-keyboard-response","145","2.0.0","1186449","5d7ff85ffec5620017b07c40","3","33","null","","","","","","","","","<p style='font-size: 30px;'><strong>Okay</strong></p>","null","neutral_feedback","1","test","3","","","","","","","","","","","","","","","","","","","","",""
"","","","","","","","","","","","html-button-response","146","2.0.0","1207126","5d7ff85ffec5620017b07c40","3","33","20665","","","","","","","","","<img src= ""rock_img/I_Pegmatite_06.jpg"" style=""width:8cm; height:5.17cm;""><p>What type of rock is this?</p>","6","class_response","1","test","4","Peridotite","Pegmatite","06","false","7","6","","","","","","","","","","","","","","",""
"","","","","","","","","","","","html-keyboard-response","147","2.0.0","1207636","5d7ff85ffec5620017b07c40","3","33","null","","","","","","","","","<p style='font-size: 30px;'><strong>Okay</strong></p>","null","neutral_feedback","1","test","4","","","","","","","","","","","","","","","","","","","","",""
"","","","","","","","","","","","html-button-response","148","2.0.0","1211711","5d7ff85ffec5620017b07c40","3","33","4073","","","","","","","","","<img src= ""rock_img/I_Pegmatite_05.jpg"" style=""width:8cm; height:7.300000000000001cm;""><p>What type of rock is this?</p>","5","class_response","1","test","5","Pegmatite","Pegmatite","05","true","6","6","","","","","","","","","","","","","","",""
"","","","","","","","","","","","html-keyboard-response","149","2.0.0","1212218","5d7ff85ffec5620017b07c40","3","33","null","","","","","","","","","<p style='font-size: 30px;'><strong>Okay</strong></p>","null","neutral_feedback","1","test","5","","","","","","","","","","","","","","","","","","","","",""
"","","","","","","","","","","","html-button-response","150","2.0.0","1215488","5d7ff85ffec5620017b07c40","3","33","3269","","","","","","","","","<img src= ""rock_img/I_Pegmatite_10.jpg"" style=""width:8cm; height:4.16cm;""><p>What type of rock is this?</p>","6","class_response","1","test","6","Peridotite","Pegmatite","10","false","7","6","","","","","","","","","","","","","","",""
"","","","","","","","","","","","html-keyboard-response","151","2.0.0","1216001","5d7ff85ffec5620017b07c40","3","33","null","","","","","","","","","<p style='font-size: 30px;'><strong>Okay</strong></p>","null","neutral_feedback","1","test","6","","","","","","","","","","","","","","","","","","","","",""
"","","","","","","","","","","","html-button-response","152","2.0.0","1223094","5d7ff85ffec5620017b07c40","3","33","7090","","","","","","","","","<img src= ""rock_img/I_Peridotite_07.jpg"" style=""width:8cm; height:4.83cm;""><p>What type of rock is this?</p>","1","class_response","1","test","7","Basalt","Peridotite","07","false","2","7","","","","","","","","","","","","","","",""
"","","","","","","","","","","","html-keyboard-response","153","2.0.0","1223603","5d7ff85ffec5620017b07c40","3","33","null","","","","","","","","","<p style='font-size: 30px;'><strong>Okay</strong></p>","null","neutral_feedback","1","test","7","","","","","","","","","","","","","","","","","","","","",""
"","","","","","","","","","","","html-button-response","154","2.0.0","1230356","5d7ff85ffec5620017b07c40","3","33","6745","","","","","","","","","<img src= ""rock_img/I_Peridotite_08.jpg"" style=""width:8cm; height:6.7cm;""><p>What type of rock is this?</p>","0","class_response","1","test","8","Andesite","Peridotite","08","false","1","7","","","","","","","","","","","","","","",""
"","","","","","","","","","","","html-keyboard-response","155","2.0.0","1230864","5d7ff85ffec5620017b07c40","3","33","null","","","","","","","","","<p style='font-size: 30px;'><strong>Okay</strong></p>","null","neutral_feedback","1","test","8","","","","","","","","","","","","","","","","","","","","",""
"","","","","","","","","","","","html-button-response","156","2.0.0","1234295","5d7ff85ffec5620017b07c40","3","33","3429","","","","","","","","","<img src= ""rock_img/I_Basalt_16.jpg"" style=""width:8cm; height:7.659999999999999cm;""><p>What type of rock is this?</p>","1","class_response","1","test","9","Basalt","Basalt","16","true","2","2","","","","","","","","","","","","","","",""
"","","","","","","","","","","","html-keyboard-response","157","2.0.0","1234811","5d7ff85ffec5620017b07c40","3","33","null","","","","","","","","","<p style='font-size: 30px;'><strong>Okay</strong></p>","null","neutral_feedback","1","test","9","","","","","","","","","","","","","","","","","","","","",""
"","","","","","","","","","","","html-button-response","158","2.0.0","1252472","5d7ff85ffec5620017b07c40","3","33","17660","","","","","","","","","<img src= ""rock_img/I_Gabbro_08.jpg"" style=""width:8cm; height:5.15cm;""><p>What type of rock is this?</p>","3","class_response","1","test","10","Gabbro","Gabbro","08","true","4","4","","","","","","","","","","","","","","",""
"","","","","","","","","","","","html-keyboard-response","159","2.0.0","1252988","5d7ff85ffec5620017b07c40","3","33","null","","","","","","","","","<p style='font-size: 30px;'><strong>Okay</strong></p>","null","neutral_feedback","1","test","10","","","","","","","","","","","","","","","","","","","","",""
"","","","","","","","","","","","html-button-response","160","2.0.0","1265426","5d7ff85ffec5620017b07c40","3","33","12436","","","","","","","","","<img src= ""rock_img/I_Andesite_02.jpg"" style=""width:8cm; height:8.5cm;""><p>What type of rock is this?</p>","2","class_response","1","test","11","Diorite","Andesite","02","false","3","1","","","","","","","","","","","","","","",""
"","","","","","","","","","","","html-keyboard-response","161","2.0.0","1265933","5d7ff85ffec5620017b07c40","3","33","null","","","","","","","","","<p style='font-size: 30px;'><strong>Okay</strong></p>","null","neutral_feedback","1","test","11","","","","","","","","","","","","","","","","","","","","",""
"","","","","","","","","","","","html-button-response","162","2.0.0","1267929","5d7ff85ffec5620017b07c40","3","33","1994","","","","","","","","","<img src= ""rock_img/I_Pumice_03.jpg"" style=""width:8cm; height:6.64cm;""><p>What type of rock is this?</p>","7","class_response","1","test","12","Pumice","Pumice","03","true","8","8","","","","","","","","","","","","","","",""
"","","","","","","","","","","","html-keyboard-response","163","2.0.0","1268434","5d7ff85ffec5620017b07c40","3","33","null","","","","","","","","","<p style='font-size: 30px;'><strong>Okay</strong></p>","null","neutral_feedback","1","test","12","","","","","","","","","","","","","","","","","","","","",""
"","","","","","","","","","","","html-button-response","164","2.0.0","1270509","5d7ff85ffec5620017b07c40","3","33","2073","","","","","","","","","<img src= ""rock_img/I_Obsidian_06.jpg"" style=""width:8cm; height:6.8cm;""><p>What type of rock is this?</p>","4","class_response","1","test","13","Obsidian","Obsidian","06","true","5","5","","","","","","","","","","","","","","",""
"","","","","","","","","","","","html-keyboard-response","165","2.0.0","1271016","5d7ff85ffec5620017b07c40","3","33","null","","","","","","","","","<p style='font-size: 30px;'><strong>Okay</strong></p>","null","neutral_feedback","1","test","13","","","","","","","","","","","","","","","","","","","","",""
"","","","","","","","","","","","html-button-response","166","2.0.0","1275434","5d7ff85ffec5620017b07c40","3","33","4416","","","","","","","","","<img src= ""rock_img/I_Gabbro_13.jpg"" style=""width:8cm; height:5.08cm;""><p>What type of rock is this?</p>","1","class_response","1","test","14","Basalt","Gabbro","13","false","2","4","","","","","","","","","","","","","","",""
"","","","","","","","","","","","html-keyboard-response","167","2.0.0","1275947","5d7ff85ffec5620017b07c40","3","33","null","","","","","","","","","<p style='font-size: 30px;'><strong>Okay</strong></p>","null","neutral_feedback","1","test","14","","","","","","","","","","","","","","","","","","","","",""
"","","","","","","","","","","","html-button-response","168","2.0.0","1278306","5d7ff85ffec5620017b07c40","3","33","2356","","","","","","","","","<img src= ""rock_img/I_Pumice_05.jpg"" style=""width:8cm; height:7.25cm;""><p>What type of rock is this?</p>","7","class_response","1","test","15","Pumice","Pumice","05","true","8","8","","","","","","","","","","","","","","",""
"","","","","","","","","","","","html-keyboard-response","169","2.0.0","1278808","5d7ff85ffec5620017b07c40","3","33","null","","","","","","","","","<p style='font-size: 30px;'><strong>Okay</strong></p>","null","neutral_feedback","1","test","15","","","","","","","","","","","","","","","","","","","","",""
"","","","","","","","","","","","html-button-response","170","2.0.0","1280147","5d7ff85ffec5620017b07c40","3","33","1338","","","","","","","","","<img src= ""rock_img/I_Obsidian_12.jpg"" style=""width:8cm; height:6.53cm;""><p>What type of rock is this?</p>","4","class_response","1","test","16","Obsidian","Obsidian","12","true","5","5","","","","","","","","","","","","","","",""
"","","","","","","","","","","","html-keyboard-response","171","2.0.0","1280658","5d7ff85ffec5620017b07c40","3","33","null","","","","","","","","","<p style='font-size: 30px;'><strong>Okay</strong></p>","null","neutral_feedback","1","test","16","","","","","","","","","","","","","","","","","","","","",""
"","","","","","","","","","","","html-button-response","172","2.0.0","1284836","5d7ff85ffec5620017b07c40","3","33","4177","","","","","","","","","<img src= ""rock_img/I_Andesite_10.jpg"" style=""width:8cm; height:4.16cm;""><p>What type of rock is this?</p>","0","class_response","1","test","17","Andesite","Andesite","10","true","1","1","","","","","","","","","","","","","","",""
"","","","","","","","","","","","html-keyboard-response","173","2.0.0","1285349","5d7ff85ffec5620017b07c40","3","33","null","","","","","","","","","<p style='font-size: 30px;'><strong>Okay</strong></p>","null","neutral_feedback","1","test","17","","","","","","","","","","","","","","","","","","","","",""
"","","","","","","","","","","","html-button-response","174","2.0.0","1300517","5d7ff85ffec5620017b07c40","3","33","15166","","","","","","","","","<img src= ""rock_img/I_Diorite_10.jpg"" style=""width:8cm; height:5.949999999999999cm;""><p>What type of rock is this?</p>","2","class_response","1","test","18","Diorite","Diorite","10","true","3","3","","","","","","","","","","","","","","",""
"","","","","","","","","","","","html-keyboard-response","175","2.0.0","1301024","5d7ff85ffec5620017b07c40","3","33","null","","","","","","","","","<p style='font-size: 30px;'><strong>Okay</strong></p>","null","neutral_feedback","1","test","18","","","","","","","","","","","","","","","","","","","","",""
"","","","","","","","","","","","html-button-response","176","2.0.0","1316794","5d7ff85ffec5620017b07c40","3","33","15768","","","","","","","","","<img src= ""rock_img/I_Andesite_09.jpg"" style=""width:8cm; height:6cm;""><p>What type of rock is this?</p>","3","class_response","1","test","19","Gabbro","Andesite","09","false","4","1","","","","","","","","","","","","","","",""
"","","","","","","","","","","","html-keyboard-response","177","2.0.0","1317307","5d7ff85ffec5620017b07c40","3","33","null","","","","","","","","","<p style='font-size: 30px;'><strong>Okay</strong></p>","null","neutral_feedback","1","test","19","","","","","","","","","","","","","","","","","","","","",""
"","","","","","","","","","","","html-button-response","178","2.0.0","1320066","5d7ff85ffec5620017b07c40","3","33","2756","","","","","","","","","<img src= ""rock_img/I_Peridotite_16.jpg"" style=""width:8cm; height:6.989999999999999cm;""><p>What type of rock is this?</p>","6","class_response","1","test","20","Peridotite","Peridotite","16","true","7","7","","","","","","","","","","","","","","",""
"","","","","","","","","","","","html-keyboard-response","179","2.0.0","1320575","5d7ff85ffec5620017b07c40","3","33","null","","","","","","","","","<p style='font-size: 30px;'><strong>Okay</strong></p>","null","neutral_feedback","1","test","20","","","","","","","","","","","","","","","","","","","","",""
"","","","","","","","","","","","html-button-response","180","2.0.0","1322146","5d7ff85ffec5620017b07c40","3","33","1569","","","","","","","","","<img src= ""rock_img/I_Obsidian_16.jpg"" style=""width:8cm; height:9.3cm;""><p>What type of rock is this?</p>","4","class_response","1","test","21","Obsidian","Obsidian","16","true","5","5","","","","","","","","","","","","","","",""
"","","","","","","","","","","","html-keyboard-response","181","2.0.0","1322656","5d7ff85ffec5620017b07c40","3","33","null","","","","","","","","","<p style='font-size: 30px;'><strong>Okay</strong></p>","null","neutral_feedback","1","test","21","","","","","","","","","","","","","","","","","","","","",""
"","","","","","","","","","","","html-button-response","182","2.0.0","1324412","5d7ff85ffec5620017b07c40","3","33","1753","","","","","","","","","<img src= ""rock_img/I_Diorite_15.jpg"" style=""width:8cm; height:5.54cm;""><p>What type of rock is this?</p>","1","class_response","1","test","22","Basalt","Diorite","15","false","2","3","","","","","","","","","","","","","","",""
"","","","","","","","","","","","html-keyboard-response","183","2.0.0","1324915","5d7ff85ffec5620017b07c40","3","33","null","","","","","","","","","<p style='font-size: 30px;'><strong>Okay</strong></p>","null","neutral_feedback","1","test","22","","","","","","","","","","","","","","","","","","","","",""
"","","","","","","","","","","","html-button-response","184","2.0.0","1334320","5d7ff85ffec5620017b07c40","3","33","9403","","","","","","","","","<img src= ""rock_img/I_Andesite_01.jpg"" style=""width:8cm; height:5.87cm;""><p>What type of rock is this?</p>","3","class_response","1","test","23","Gabbro","Andesite","01","false","4","1","","","","","","","","","","","","","","",""
"","","","","","","","","","","","html-keyboard-response","185","2.0.0","1334829","5d7ff85ffec5620017b07c40","3","33","null","","","","","","","","","<p style='font-size: 30px;'><strong>Okay</strong></p>","null","neutral_feedback","1","test","23","","","","","","","","","","","","","","","","","","","","",""
"","","","","","","","","","","","html-button-response","186","2.0.0","1342665","5d7ff85ffec5620017b07c40","3","33","7835","","","","","","","","","<img src= ""rock_img/I_Peridotite_04.jpg"" style=""width:8cm; height:6.680000000000001cm;""><p>What type of rock is this?</p>","6","class_response","1","test","24","Peridotite","Peridotite","04","true","7","7","","","","","","","","","","","","","","",""
"","","","","","","","","","","","html-keyboard-response","187","2.0.0","1343168","5d7ff85ffec5620017b07c40","3","33","null","","","","","","","","","<p style='font-size: 30px;'><strong>Okay</strong></p>","null","neutral_feedback","1","test","24","","","","","","","","","","","","","","","","","","","","",""
"","","","","","","","","","","","html-button-response","188","2.0.0","1344878","5d7ff85ffec5620017b07c40","3","33","1708","","","","","","","","","<img src= ""rock_img/I_Obsidian_05.jpg"" style=""width:8cm; height:6.33cm;""><p>What type of rock is this?</p>","4","class_response","1","test","25","Obsidian","Obsidian","05","true","5","5","","","","","","","","","","","","","","",""
"","","","","","","","","","","","html-keyboard-response","189","2.0.0","1345383","5d7ff85ffec5620017b07c40","3","33","null","","","","","","","","","<p style='font-size: 30px;'><strong>Okay</strong></p>","null","neutral_feedback","1","test","25","","","","","","","","","","","","","","","","","","","","",""
"","","","","","","","","","","","html-button-response","190","2.0.0","1358567","5d7ff85ffec5620017b07c40","3","33","13183","","","","","","","","","<img src= ""rock_img/I_Andesite_06.jpg"" style=""width:8cm; height:6.840000000000001cm;""><p>What type of rock is this?</p>","3","class_response","1","test","26","Gabbro","Andesite","06","false","4","1","","","","","","","","","","","","","","",""
"","","","","","","","","","","","html-keyboard-response","191","2.0.0","1359076","5d7ff85ffec5620017b07c40","3","33","null","","","","","","","","","<p style='font-size: 30px;'><strong>Okay</strong></p>","null","neutral_feedback","1","test","26","","","","","","","","","","","","","","","","","","","","",""
"","","","","","","","","","","","html-button-response","192","2.0.0","1365216","5d7ff85ffec5620017b07c40","3","33","6138","","","","","","","","","<img src= ""rock_img/I_Basalt_11.jpg"" style=""width:8cm; height:5.359999999999999cm;""><p>What type of rock is this?</p>","0","class_response","1","test","27","Andesite","Basalt","11","false","1","2","","","","","","","","","","","","","","",""
"","","","","","","","","","","","html-keyboard-response","193","2.0.0","1365723","5d7ff85ffec5620017b07c40","3","33","null","","","","","","","","","<p style='font-size: 30px;'><strong>Okay</strong></p>","null","neutral_feedback","1","test","27","","","","","","","","","","","","","","","","","","","","",""
"","","","","","","","","","","","html-button-response","194","2.0.0","1368073","5d7ff85ffec5620017b07c40","3","33","2349","","","","","","","","","<img src= ""rock_img/I_Basalt_10.jpg"" style=""width:8cm; height:5.85cm;""><p>What type of rock is this?</p>","1","class_response","1","test","28","Basalt","Basalt","10","true","2","2","","","","","","","","","","","","","","",""
"","","","","","","","","","","","html-keyboard-response","195","2.0.0","1368574","5d7ff85ffec5620017b07c40","3","33","null","","","","","","","","","<p style='font-size: 30px;'><strong>Okay</strong></p>","null","neutral_feedback","1","test","28","","","","","","","","","","","","","","","","","","","","",""
"","","","","","","","","","","","html-button-response","196","2.0.0","1391931","5d7ff85ffec5620017b07c40","3","33","23355","","","","","","","","","<img src= ""rock_img/I_Diorite_16.jpg"" style=""width:8cm; height:6.74cm;""><p>What type of rock is this?</p>","0","class_response","1","test","29","Andesite","Diorite","16","false","1","3","","","","","","","","","","","","","","",""
"","","","","","","","","","","","html-keyboard-response","197","2.0.0","1392435","5d7ff85ffec5620017b07c40","3","33","null","","","","","","","","","<p style='font-size: 30px;'><strong>Okay</strong></p>","null","neutral_feedback","1","test","29","","","","","","","","","","","","","","","","","","","","",""
"","","","","","","","","","","","html-button-response","198","2.0.0","1401021","5d7ff85ffec5620017b07c40","3","33","8584","","","","","","","","","<img src= ""rock_img/I_Andesite_16.jpg"" style=""width:8cm; height:6.010000000000001cm;""><p>What type of rock is this?</p>","3","class_response","1","test","30","Gabbro","Andesite","16","false","4","1","","","","","","","","","","","","","","",""
"","","","","","","","","","","","html-keyboard-response","199","2.0.0","1401532","5d7ff85ffec5620017b07c40","3","33","null","","","","","","","","","<p style='font-size: 30px;'><strong>Okay</strong></p>","null","neutral_feedback","1","test","30","","","","","","","","","","","","","","","","","","","","",""
"","","","","","","","","","","","html-button-response","200","2.0.0","1403079","5d7ff85ffec5620017b07c40","3","33","1546","","","","","","","","","<img src= ""rock_img/I_Gabbro_14.jpg"" style=""width:8cm; height:8.48cm;""><p>What type of rock is this?</p>","1","class_response","1","test","31","Basalt","Gabbro","14","false","2","4","","","","","","","","","","","","","","",""
"","","","","","","","","","","","html-keyboard-response","201","2.0.0","1403597","5d7ff85ffec5620017b07c40","3","33","null","","","","","","","","","<p style='font-size: 30px;'><strong>Okay</strong></p>","null","neutral_feedback","1","test","31","","","","","","","","","","","","","","","","","","","","",""
"","","","","","","","","","","","html-button-response","202","2.0.0","1410825","5d7ff85ffec5620017b07c40","3","33","7226","","","","","","","","","<img src= ""rock_img/I_Peridotite_13.jpg"" style=""width:8cm; height:7.58cm;""><p>What type of rock is this?</p>","5","class_response","1","test","32","Pegmatite","Peridotite","13","false","6","7","","","","","","","","","","","","","","",""
"","","","","","","","","","","","html-keyboard-response","203","2.0.0","1411333","5d7ff85ffec5620017b07c40","3","33","null","","","","","","","","","<p style='font-size: 30px;'><strong>Okay</strong></p>","null","neutral_feedback","1","test","32","","","","","","","","","","","","","","","","","","","","",""
"","","","","","","","","","","","html-button-response","204","2.0.0","1423348","5d7ff85ffec5620017b07c40","3","33","12013","","","","","","","","","<img src= ""rock_img/I_Basalt_08.jpg"" style=""width:8cm; height:10.44cm;""><p>What type of rock is this?</p>","1","class_response","1","test","33","Basalt","Basalt","08","true","2","2","","","","","","","","","","","","","","",""
"","","","","","","","","","","","html-keyboard-response","205","2.0.0","1423861","5d7ff85ffec5620017b07c40","3","33","null","","","","","","","","","<p style='font-size: 30px;'><strong>Okay</strong></p>","null","neutral_feedback","1","test","33","","","","","","","","","","","","","","","","","","","","",""
"","","","","","","","","","","","html-button-response","206","2.0.0","1427655","5d7ff85ffec5620017b07c40","3","33","3792","","","","","","","","","<img src= ""rock_img/I_Diorite_09.jpg"" style=""width:8cm; height:5.27cm;""><p>What type of rock is this?</p>","2","class_response","1","test","34","Diorite","Diorite","09","true","3","3","","","","","","","","","","","","","","",""
"","","","","","","","","","","","html-keyboard-response","207","2.0.0","1428170","5d7ff85ffec5620017b07c40","3","33","null","","","","","","","","","<p style='font-size: 30px;'><strong>Okay</strong></p>","null","neutral_feedback","1","test","34","","","","","","","","","","","","","","","","","","","","",""
"","","","","","","","","","","","html-button-response","208","2.0.0","1429883","5d7ff85ffec5620017b07c40","3","33","1711","","","","","","","","","<img src= ""rock_img/I_Pumice_06.jpg"" style=""width:8cm; height:6.9399999999999995cm;""><p>What type of rock is this?</p>","7","class_response","1","test","35","Pumice","Pumice","06","true","8","8","","","","","","","","","","","","","","",""
"","","","","","","","","","","","html-keyboard-response","209","2.0.0","1430390","5d7ff85ffec5620017b07c40","3","33","null","","","","","","","","","<p style='font-size: 30px;'><strong>Okay</strong></p>","null","neutral_feedback","1","test","35","","","","","","","","","","","","","","","","","","","","",""
"","","","","","","","","","","","html-button-response","210","2.0.0","1432647","5d7ff85ffec5620017b07c40","3","33","2255","","","","","","","","","<img src= ""rock_img/I_Gabbro_16.jpg"" style=""width:8cm; height:6.44cm;""><p>What type of rock is this?</p>","1","class_response","1","test","36","Basalt","Gabbro","16","false","2","4","","","","","","","","","","","","","","",""
"","","","","","","","","","","","html-keyboard-response","211","2.0.0","1433162","5d7ff85ffec5620017b07c40","3","33","null","","","","","","","","","<p style='font-size: 30px;'><strong>Okay</strong></p>","null","neutral_feedback","1","test","36","","","","","","","","","","","","","","","","","","","","",""
"","","","","","","","","","","","html-button-response","212","2.0.0","1438052","5d7ff85ffec5620017b07c40","3","33","4889","","","","","","","","","<img src= ""rock_img/I_Pegmatite_15.jpg"" style=""width:8cm; height:6cm;""><p>What type of rock is this?</p>","5","class_response","1","test","37","Pegmatite","Pegmatite","15","true","6","6","","","","","","","","","","","","","","",""
"","","","","","","","","","","","html-keyboard-response","213","2.0.0","1438567","5d7ff85ffec5620017b07c40","3","33","null","","","","","","","","","<p style='font-size: 30px;'><strong>Okay</strong></p>","null","neutral_feedback","1","test","37","","","","","","","","","","","","","","","","","","","","",""
"","","","","","","","","","","","html-button-response","214","2.0.0","1439880","5d7ff85ffec5620017b07c40","3","33","1311","","","","","","","","","<img src= ""rock_img/I_Pumice_14.jpg"" style=""width:8cm; height:6.39cm;""><p>What type of rock is this?</p>","7","class_response","1","test","38","Pumice","Pumice","14","true","8","8","","","","","","","","","","","","","","",""
"","","","","","","","","","","","html-keyboard-response","215","2.0.0","1440397","5d7ff85ffec5620017b07c40","3","33","null","","","","","","","","","<p style='font-size: 30px;'><strong>Okay</strong></p>","null","neutral_feedback","1","test","38","","","","","","","","","","","","","","","","","","","","",""
"","","","","","","","","","","","html-button-response","216","2.0.0","1445899","5d7ff85ffec5620017b07c40","3","33","5500","","","","","","","","","<img src= ""rock_img/I_Diorite_14.jpg"" style=""width:8cm; height:5.71cm;""><p>What type of rock is this?</p>","2","class_response","1","test","39","Diorite","Diorite","14","true","3","3","","","","","","","","","","","","","","",""
"","","","","","","","","","","","html-keyboard-response","217","2.0.0","1446401","5d7ff85ffec5620017b07c40","3","33","null","","","","","","","","","<p style='font-size: 30px;'><strong>Okay</strong></p>","null","neutral_feedback","1","test","39","","","","","","","","","","","","","","","","","","","","",""
"","","","","","","","","","","","html-button-response","218","2.0.0","1448879","5d7ff85ffec5620017b07c40","3","33","2477","","","","","","","","","<img src= ""rock_img/I_Basalt_06.jpg"" style=""width:8cm; height:7.06cm;""><p>What type of rock is this?</p>","1","class_response","1","test","40","Basalt","Basalt","06","true","2","2","","","","","","","","","","","","","","",""
"","","","","","","","","","","","html-keyboard-response","219","2.0.0","1449388","5d7ff85ffec5620017b07c40","3","33","null","","","","","","","","","<p style='font-size: 30px;'><strong>Okay</strong></p>","null","neutral_feedback","1","test","40","","","","","","","","","","","","","","","","","","","","",""
"","","","","","","","","","","","html-button-response","220","2.0.0","1480662","5d7ff85ffec5620017b07c40","3","33","31272","","","","","","","","","<img src= ""rock_img/I_Diorite_02.jpg"" style=""width:8cm; height:6.27cm;""><p>What type of rock is this?</p>","0","class_response","1","test","41","Andesite","Diorite","02","false","1","3","","","","","","","","","","","","","","",""
"","","","","","","","","","","","html-keyboard-response","221","2.0.0","1481164","5d7ff85ffec5620017b07c40","3","33","null","","","","","","","","","<p style='font-size: 30px;'><strong>Okay</strong></p>","null","neutral_feedback","1","test","41","","","","","","","","","","","","","","","","","","","","",""
"","","","","","","","","","","","html-button-response","222","2.0.0","1482468","5d7ff85ffec5620017b07c40","3","33","1302","","","","","","","","","<img src= ""rock_img/I_Obsidian_09.jpg"" style=""width:8cm; height:5cm;""><p>What type of rock is this?</p>","4","class_response","1","test","42","Obsidian","Obsidian","09","true","5","5","","","","","","","","","","","","","","",""
"","","","","","","","","","","","html-keyboard-response","223","2.0.0","1482970","5d7ff85ffec5620017b07c40","3","33","null","","","","","","","","","<p style='font-size: 30px;'><strong>Okay</strong></p>","null","neutral_feedback","1","test","42","","","","","","","","","","","","","","","","","","","","",""
"","","","","","","","","","","","html-button-response","224","2.0.0","1486339","5d7ff85ffec5620017b07c40","3","33","3367","","","","","","","","","<img src= ""rock_img/I_Gabbro_03.jpg"" style=""width:8cm; height:8.52cm;""><p>What type of rock is this?</p>","0","class_response","1","test","43","Andesite","Gabbro","03","false","1","4","","","","","","","","","","","","","","",""
"","","","","","","","","","","","html-keyboard-response","225","2.0.0","1486841","5d7ff85ffec5620017b07c40","3","33","null","","","","","","","","","<p style='font-size: 30px;'><strong>Okay</strong></p>","null","neutral_feedback","1","test","43","","","","","","","","","","","","","","","","","","","","",""
"","","","","","","","","","","","html-button-response","226","2.0.0","1488325","5d7ff85ffec5620017b07c40","3","33","1482","","","","","","","","","<img src= ""rock_img/I_Gabbro_10.jpg"" style=""width:8cm; height:5.680000000000001cm;""><p>What type of rock is this?</p>","1","class_response","1","test","44","Basalt","Gabbro","10","false","2","4","","","","","","","","","","","","","","",""
"","","","","","","","","","","","html-keyboard-response","227","2.0.0","1488827","5d7ff85ffec5620017b07c40","3","33","null","","","","","","","","","<p style='font-size: 30px;'><strong>Okay</strong></p>","null","neutral_feedback","1","test","44","","","","","","","","","","","","","","","","","","","","",""
"","","","","","","","","","","","html-button-response","228","2.0.0","1492844","5d7ff85ffec5620017b07c40","3","33","4015","","","","","","","","","<img src= ""rock_img/I_Basalt_04.jpg"" style=""width:8cm; height:7.53cm;""><p>What type of rock is this?</p>","1","class_response","1","test","45","Basalt","Basalt","04","true","2","2","","","","","","","","","","","","","","",""
"","","","","","","","","","","","html-keyboard-response","229","2.0.0","1493349","5d7ff85ffec5620017b07c40","3","33","null","","","","","","","","","<p style='font-size: 30px;'><strong>Okay</strong></p>","null","neutral_feedback","1","test","45","","","","","","","","","","","","","","","","","","","","",""
"","","","","","","","","","","","html-button-response","230","2.0.0","1494655","5d7ff85ffec5620017b07c40","3","33","1304","","","","","","","","","<img src= ""rock_img/I_Obsidian_08.jpg"" style=""width:8cm; height:7.39cm;""><p>What type of rock is this?</p>","4","class_response","1","test","46","Obsidian","Obsidian","08","true","5","5","","","","","","","","","","","","","","",""
"","","","","","","","","","","","html-keyboard-response","231","2.0.0","1495172","5d7ff85ffec5620017b07c40","3","33","null","","","","","","","","","<p style='font-size: 30px;'><strong>Okay</strong></p>","null","neutral_feedback","1","test","46","","","","","","","","","","","","","","","","","","","","",""
"","","","","","","","","","","","html-button-response","232","2.0.0","1496614","5d7ff85ffec5620017b07c40","3","33","1440","","","","","","","","","<img src= ""rock_img/I_Pumice_02.jpg"" style=""width:8cm; height:7.3999999999999995cm;""><p>What type of rock is this?</p>","7","class_response","1","test","47","Pumice","Pumice","02","true","8","8","","","","","","","","","","","","","","",""
"","","","","","","","","","","","html-keyboard-response","233","2.0.0","1497116","5d7ff85ffec5620017b07c40","3","33","null","","","","","","","","","<p style='font-size: 30px;'><strong>Okay</strong></p>","null","neutral_feedback","1","test","47","","","","","","","","","","","","","","","","","","","","",""
"","","","","","","","","","","","html-button-response","234","2.0.0","1500667","5d7ff85ffec5620017b07c40","3","33","3550","","","","","","","","","<img src= ""rock_img/I_Pegmatite_12.jpg"" style=""width:8cm; height:5.7cm;""><p>What type of rock is this?</p>","5","class_response","1","test","48","Pegmatite","Pegmatite","12","true","6","6","","","","","","","","","","","","","","",""
"","","","","","","","","","","","html-keyboard-response","235","2.0.0","1501172","5d7ff85ffec5620017b07c40","3","33","null","","","","","","","","","<p style='font-size: 30px;'><strong>Okay</strong></p>","null","neutral_feedback","1","test","48","","","","","","","","","","","","","","","","","","","","",""
"","","","","","","","","","","","html-button-response","236","2.0.0","1545601","5d7ff85ffec5620017b07c40","3","33","","","","","","","","","","","","cycle_feedback","","","","","","","","","","","","","","","","","","","","","","","10974.79999999702","33447.60000000149"
"","","","","","","","","","","","html-button-response","238","2.0.0","1547206","5d7ff85ffec5620017b07c40","3","33","1603","","","","","","","","","","0","start_train","","","","","","","","","","","","","","","","","","","","","","","",""
"","","","","","","","","","","","html-button-response","240","2.0.0","1548634","5d7ff85ffec5620017b07c40","3","33","1426","","","","","","","","","<img src= ""rock_img/I_Obsidian_10.jpg"" style=""width:8cm; height:6.260000000000001cm;""><p>What type of rock is this?</p>","4","class_response","2","train","1","Obsidian","Obsidian","10","true","5","5","","","","","","","","","","","","","","",""
"","","","","","","","","","","","html-button-response","241","2.0.0","1549955","5d7ff85ffec5620017b07c40","3","33","1319","","","","","","","","","<img src= rock_img/I_Obsidian_10.jpg style=""width:8cm; height:6.260000000000001cm;""><p style='font-size: 30px; color: green;'><strong>Correct!</strong></p><p style='font-size: 30px;'><strong>This rock is obsidian</strong></p>","0","corr_feedback","2","train","1","","","","","","","","","","","","","","","","","","","","",""
"","","","","","","","","","","","html-button-response","242","2.0.0","1551321","5d7ff85ffec5620017b07c40","3","33","1365","","","","","","","","","<img src= ""rock_img/I_Pumice_10.jpg"" style=""width:8cm; height:7.609999999999999cm;""><p>What type of rock is this?</p>","7","class_response","2","train","2","Pumice","Pumice","10","true","8","8","","","","","","","","","","","","","","",""
"","","","","","","","","","","","html-button-response","243","2.0.0","1552442","5d7ff85ffec5620017b07c40","3","33","1120","","","","","","","","","<img src= rock_img/I_Pumice_10.jpg style=""width:8cm; height:7.609999999999999cm;""><p style='font-size: 30px; color: green;'><strong>Correct!</strong></p><p style='font-size: 30px;'><strong>This rock is pumice</strong></p>","0","corr_feedback","2","train","2","","","","","","","","","","","","","","","","","","","","",""
"","","","","","","","","","","","html-button-response","244","2.0.0","1554478","5d7ff85ffec5620017b07c40","3","33","2033","","","","","","","","","<img src= ""rock_img/I_Pumice_04.jpg"" style=""width:8cm; height:6.819999999999999cm;""><p>What type of rock is this?</p>","7","class_response","2","train","3","Pumice","Pumice","04","true","8","8","","","","","","","","","","","","","","",""
"","","","","","","","","","","","html-button-response","245","2.0.0","1555527","5d7ff85ffec5620017b07c40","3","33","1048","","","","","","","","","<img src= rock_img/I_Pumice_04.jpg style=""width:8cm; height:6.819999999999999cm;""><p style='font-size: 30px; color: green;'><strong>Correct!</strong></p><p style='font-size: 30px;'><strong>This rock is pumice</strong></p>","0","corr_feedback","2","train","3","","","","","","","","","","","","","","","","","","","","",""
"","","","","","","","","","","","html-button-response","246","2.0.0","1556902","5d7ff85ffec5620017b07c40","3","33","1373","","","","","","","","","<img src= ""rock_img/I_Obsidian_02.jpg"" style=""width:8cm; height:7.51cm;""><p>What type of rock is this?</p>","4","class_response","2","train","4","Obsidian","Obsidian","02","true","5","5","","","","","","","","","","","","","","",""
"","","","","","","","","","","","html-button-response","247","2.0.0","1558024","5d7ff85ffec5620017b07c40","3","33","1121","","","","","","","","","<img src= rock_img/I_Obsidian_02.jpg style=""width:8cm; height:7.51cm;""><p style='font-size: 30px; color: green;'><strong>Correct!</strong></p><p style='font-size: 30px;'><strong>This rock is obsidian</strong></p>","0","corr_feedback","2","train","4","","","","","","","","","","","","","","","","","","","","",""
"","","","","","","","","","","","html-button-response","248","2.0.0","1568870","5d7ff85ffec5620017b07c40","3","33","10844","","","","","","","","","<img src= ""rock_img/I_Peridotite_12.jpg"" style=""width:8cm; height:4.54cm;""><p>What type of rock is this?</p>","3","class_response","2","train","5","Gabbro","Peridotite","12","false","4","7","","","","","","","","","","","","","","",""
"","","","","","","","","","","","html-button-response","249","2.0.0","1574054","5d7ff85ffec5620017b07c40","3","33","5182","","","","","","","","","<img src= rock_img/I_Peridotite_12.jpg style=""width:8cm; height:4.54cm;""><p style='font-size: 30px; color: red;'><strong>Incorrect!</strong></p><p style='font-size: 30px;'><strong>This rock is peridotite</strong></p>","0","corr_feedback","2","train","5","","","","","","","","","","","","","","","","","","","","",""
"","","","","","","","","","","","html-button-response","250","2.0.0","1577469","5d7ff85ffec5620017b07c40","3","33","3414","","","","","","","","","<img src= ""rock_img/I_Pegmatite_13.jpg"" style=""width:8cm; height:4.95cm;""><p>What type of rock is this?</p>","5","class_response","2","train","6","Pegmatite","Pegmatite","13","true","6","6","","","","","","","","","","","","","","",""
"","","","","","","","","","","","html-button-response","251","2.0.0","1578674","5d7ff85ffec5620017b07c40","3","33","1203","","","","","","","","","<img src= rock_img/I_Pegmatite_13.jpg style=""width:8cm; height:4.95cm;""><p style='font-size: 30px; color: green;'><strong>Correct!</strong></p><p style='font-size: 30px;'><strong>This rock is pegmatite</strong></p>","0","corr_feedback","2","train","6","","","","","","","","","","","","","","","","","","","","",""
"","","","","","","","","","","","html-button-response","252","2.0.0","1597384","5d7ff85ffec5620017b07c40","3","33","18707","","","","","","","","","<img src= ""rock_img/I_Andesite_14.jpg"" style=""width:8cm; height:5.449999999999999cm;""><p>What type of rock is this?</p>","0","class_response","2","train","7","Andesite","Andesite","14","true","1","1","","","","","","","","","","","","","","",""
"","","","","","","","","","","","html-button-response","253","2.0.0","1598697","5d7ff85ffec5620017b07c40","3","33","1312","","","","","","","","","<img src= rock_img/I_Andesite_14.jpg style=""width:8cm; height:5.449999999999999cm;""><p style='font-size: 30px; color: green;'><strong>Correct!</strong></p><p style='font-size: 30px;'><strong>This rock is andesite</strong></p>","0","corr_feedback","2","train","7","","","","","","","","","","","","","","","","","","","","",""
"","","","","","","","","","","","html-button-response","254","2.0.0","1601576","5d7ff85ffec5620017b07c40","3","33","2877","","","","","","","","","<img src= ""rock_img/I_Pegmatite_08.jpg"" style=""width:8cm; height:7.68cm;""><p>What type of rock is this?</p>","5","class_response","2","train","8","Pegmatite","Pegmatite","08","true","6","6","","","","","","","","","","","","","","",""
"","","","","","","","","","","","html-button-response","255","2.0.0","1602680","5d7ff85ffec5620017b07c40","3","33","1103","","","","","","","","","<img src= rock_img/I_Pegmatite_08.jpg style=""width:8cm; height:7.68cm;""><p style='font-size: 30px; color: green;'><strong>Correct!</strong></p><p style='font-size: 30px;'><strong>This rock is pegmatite</strong></p>","0","corr_feedback","2","train","8","","","","","","","","","","","","","","","","","","","","",""
"","","","","","","","","","","","html-button-response","256","2.0.0","1605866","5d7ff85ffec5620017b07c40","3","33","3184","","","","","","","","","<img src= ""rock_img/I_Gabbro_11.jpg"" style=""width:8cm; height:6.2cm;""><p>What type of rock is this?</p>","1","class_response","2","train","9","Basalt","Gabbro","11","false","2","4","","","","","","","","","","","","","","",""
"","","","","","","","","","","","html-button-response","257","2.0.0","1620150","5d7ff85ffec5620017b07c40","3","33","14282","","","","","","","","","<img src= rock_img/I_Gabbro_11.jpg style=""width:8cm; height:6.2cm;""><p style='font-size: 30px; color: red;'><strong>Incorrect!</strong></p><p style='font-size: 30px;'><strong>This rock is gabbro</strong></p>","0","corr_feedback","2","train","9","","","","","","","","","","","","","","","","","","","","",""
"","","","","","","","","","","","html-button-response","258","2.0.0","1625199","5d7ff85ffec5620017b07c40","3","33","5047","","","","","","","","","<img src= ""rock_img/I_Diorite_11.jpg"" style=""width:8cm; height:7.11cm;""><p>What type of rock is this?</p>","6","class_response","2","train","10","Peridotite","Diorite","11","false","7","3","","","","","","","","","","","","","","",""
"","","","","","","","","","","","html-button-response","259","2.0.0","1628930","5d7ff85ffec5620017b07c40","3","33","3730","","","","","","","","","<img src= rock_img/I_Diorite_11.jpg style=""width:8cm; height:7.11cm;""><p style='font-size: 30px; color: red;'><strong>Incorrect!</strong></p><p style='font-size: 30px;'><strong>This rock is diorite</strong></p>","0","corr_feedback","2","train","10","","","","","","","","","","","","","","","","","","","","",""
"","","","","","","","","","","","html-button-response","260","2.0.0","1638544","5d7ff85ffec5620017b07c40","3","33","9612","","","","","","","","","<img src= ""rock_img/I_Basalt_05.jpg"" style=""width:8cm; height:8.18cm;""><p>What type of rock is this?</p>","3","class_response","2","train","11","Gabbro","Basalt","05","false","4","2","","","","","","","","","","","","","","",""
"","","","","","","","","","","","html-button-response","261","2.0.0","1641743","5d7ff85ffec5620017b07c40","3","33","3197","","","","","","","","","<img src= rock_img/I_Basalt_05.jpg style=""width:8cm; height:8.18cm;""><p style='font-size: 30px; color: red;'><strong>Incorrect!</strong></p><p style='font-size: 30px;'><strong>This rock is basalt</strong></p>","0","corr_feedback","2","train","11","","","","","","","","","","","","","","","","","","","","",""
"","","","","","","","","","","","html-button-response","262","2.0.0","1644126","5d7ff85ffec5620017b07c40","3","33","2381","","","","","","","","","<img src= ""rock_img/I_Basalt_14.jpg"" style=""width:8cm; height:5.82cm;""><p>What type of rock is this?</p>","1","class_response","2","train","12","Basalt","Basalt","14","true","2","2","","","","","","","","","","","","","","",""
"","","","","","","","","","","","html-button-response","263","2.0.0","1645842","5d7ff85ffec5620017b07c40","3","33","1714","","","","","","","","","<img src= rock_img/I_Basalt_14.jpg style=""width:8cm; height:5.82cm;""><p style='font-size: 30px; color: green;'><strong>Correct!</strong></p><p style='font-size: 30px;'><strong>This rock is basalt</strong></p>","0","corr_feedback","2","train","12","","","","","","","","","","","","","","","","","","","","",""
"","","","","","","","","","","","html-button-response","265","2.0.0","1647874","5d7ff85ffec5620017b07c40","3","33","2030","","","","","","","","","","0","start_train","","","","","","","","","","","","","","","","","","","","","","","",""
"","","","","","","","","","","","html-button-response","266","2.0.0","1650890","5d7ff85ffec5620017b07c40","3","33","","","","","","","","","","","","cat_selection","2","train","1","","","","","","","6","7","3014","Pegmatite","Peridotite","[0.19271582303575494,0.11440854198926,0.12981429909579092,0.16896793961903836,0.08295778001927798,0.13398536225088373,0.15356218251250747,0.023588071477486518]","[0.12752949244593262,0.024149318022503093,0.03213328874020621,0.030663711712497117,0.028108402403122356,null,0.7366881703893939,0.02072761628634462]","","","","","","","",""
"","","","","","","","","","","","paired-cat-display","267","1.0.0","1720767","5d7ff85ffec5620017b07c40","3","33","","","","","","","","","","","","paired_cat_display","2","train","1","","","","","","","","","8113","","","","","","","61760.5","","Green specks
round
rough","Large black areas
two colors","",""
"","","","","","","","","","","","html-button-response","268","2.0.0","1726530","5d7ff85ffec5620017b07c40","3","33","","","","","","","","","","","","cat_selection","2","train","2","","","","","","","1","4","5761.5","Andesite","Gabbro","[0.19271582303575494,0.11440854198926,0.12981429909579092,0.16896793961903836,0.08295778001927798,0.13398536225088373,0.15356218251250747,0.023588071477486518]","[null,0.12952261778467006,0.12309171043113158,0.4832713362589759,0.02939034919931524,0.07329873518558977,0.1309402982874754,0.030484952852841828]","","","","","","","",""
"","","","","","","","","","","","paired-cat-display","269","1.0.0","1810375","5d7ff85ffec5620017b07c40","3","33","","","","","","","","","","","","paired_cat_display","2","train","2","","","","","","","","","34120.79999999702","","","","","Lots of speckles","","49718.89999999851","Few speckles spread around","","","",""
"","","","","","","","","","","","html-button-response","270","2.0.0","1818365","5d7ff85ffec5620017b07c40","3","33","","","","","","","","","","","","cat_selection","2","train","3","","","","","","","1","2","7987.39999999851","Andesite","Basalt","[0.19271582303575494,0.11440854198926,0.12981429909579092,0.16896793961903836,0.08295778001927798,0.13398536225088373,0.15356218251250747,0.023588071477486518]","[null,0.12952261778467006,0.12309171043113158,0.4832713362589759,0.02939034919931524,0.07329873518558977,0.1309402982874754,0.030484952852841828]","","","","","","","",""
"","","","","","","","","","","","paired-cat-display","271","1.0.0","1895959","5d7ff85ffec5620017b07c40","3","33","","","","","","","","","","","","paired_cat_display","2","train","3","","","","","","","","","7162.30000000447","","","","","Triangular
small speckles
","Plain
Grey or dark","70427.70000000298","","","","",""
"","","","","","","","","","","","html-button-response","273","2.0.0","1911212","5d7ff85ffec5620017b07c40","3","33","15257","","","","","","","","","","0","start_test","","","","","","","","","","","","","","","","","","","","","","","",""
"","","","","","","","","","","","html-button-response","274","2.0.0","1914495","5d7ff85ffec5620017b07c40","3","33","3280","","","","","","","","","<img src= ""rock_img/I_Pumice_05.jpg"" style=""width:8cm; height:7.25cm;""><p>What type of rock is this?</p>","7","class_response","2","test","1","Pumice","Pumice","05","true","8","8","","","","","","","","","","","","","","",""
"","","","","","","","","","","","html-keyboard-response","275","2.0.0","1915009","5d7ff85ffec5620017b07c40","3","33","null","","","","","","","","","<p style='font-size: 30px;'><strong>Okay</strong></p>","null","neutral_feedback","2","test","1","","","","","","","","","","","","","","","","","","","","",""
"","","","","","","","","","","","html-button-response","276","2.0.0","1916145","5d7ff85ffec5620017b07c40","3","33","1134","","","","","","","","","<img src= ""rock_img/I_Pumice_03.jpg"" style=""width:8cm; height:6.64cm;""><p>What type of rock is this?</p>","7","class_response","2","test","2","Pumice","Pumice","03","true","8","8","","","","","","","","","","","","","","",""
"","","","","","","","","","","","html-keyboard-response","277","2.0.0","1916658","5d7ff85ffec5620017b07c40","3","33","null","","","","","","","","","<p style='font-size: 30px;'><strong>Okay</strong></p>","null","neutral_feedback","2","test","2","","","","","","","","","","","","","","","","","","","","",""
"","","","","","","","","","","","html-button-response","278","2.0.0","1932473","5d7ff85ffec5620017b07c40","3","33","15813","","","","","","","","","<img src= ""rock_img/I_Diorite_02.jpg"" style=""width:8cm; height:6.27cm;""><p>What type of rock is this?</p>","6","class_response","2","test","3","Peridotite","Diorite","02","false","7","3","","","","","","","","","","","","","","",""
"","","","","","","","","","","","html-keyboard-response","279","2.0.0","1932985","5d7ff85ffec5620017b07c40","3","33","null","","","","","","","","","<p style='font-size: 30px;'><strong>Okay</strong></p>","null","neutral_feedback","2","test","3","","","","","","","","","","","","","","","","","","","","",""
