"width","height","webaudio","browser","browser_version","mobile","os","fullscreen","vsync_rate","webcam","microphone","trial_type","trial_index","plugin_version","time_elapsed","subjID","condition","stimID","rt","url","success","value","timeout","failed_images","failed_audio","failed_video","view_history","stimulus","response","trialType","cycle","phase","trial","resp","cat","token","corr","resp_num","cat_num","ref_cat_num","paired_cat_num","time_obs","ref_cat","paired_cat","ref_prob_dist","paired_prob_dist","text_Pegmatite","text_Peridotite","time_resp","text_Basalt","text_Gabbro","text_Diorite","time_fb1","time_fb2","text_Andesite"
"1591","901","true","firefox","132.0.0","false","Mac OS","true","59.23","true","true","browser-check","0","2.0.0","1077","66295cf0dbecaeeb1cddb852","3","31","","","","","","","","","","","","","","","","","","","","","","","","","","","","","","","","","","","","",""
"","","","","","","","","","","","external-html","1","2.0.0","13063","66295cf0dbecaeeb1cddb852","3","31","11817","consent_form.html","","","","","","","","","","","","","","","","","","","","","","","","","","","","","","","","","","",""
"","","","","","","","","","","","fullscreen","2","2.0.0","15901","66295cf0dbecaeeb1cddb852","3","31","1829","","true","","","","","","","","","","","","","","","","","","","","","","","","","","","","","","","","","",""
"","","","","","","","","","","","call-function","3","2.0.0","15906","66295cf0dbecaeeb1cddb852","3","31","","","","{}","","","","","","","","","","","","","","","","","","","","","","","","","","","","","","","","",""
"","","","","","","","","","","","preload","4","2.0.0","21552","66295cf0dbecaeeb1cddb852","3","31","","","true","","false","[]","[]","[]","","","","","","","","","","","","","","","","","","","","","","","","","","","","",""
"","","","","","","","","","","","instructions","5","2.0.0","51881","66295cf0dbecaeeb1cddb852","3","31","30328","","","","","","","","[{""page_index"":0,""viewing_time"":14161},{""page_index"":1,""viewing_time"":9817},{""page_index"":2,""viewing_time"":6349}]","","","","","","","","","","","","","","","","","","","","","","","","","","","",""
"","","","","","","","","","","","html-button-response","6","2.0.0","55297","66295cf0dbecaeeb1cddb852","3","31","3412","","","","","","","","","","0","start_test","","","","","","","","","","","","","","","","","","","","","","","","",""
"","","","","","","","","","","","html-button-response","7","2.0.0","57512","66295cf0dbecaeeb1cddb852","3","31","2211","","","","","","","","","<img src= ""rock_img/I_Obsidian_12.jpg"" style=""width:8cm; height:6.53cm;""><p>What type of rock is this?</p>","4","class_response","0","test","1","Obsidian","Obsidian","12","true","5","5","","","","","","","","","","","","","","","",""
"","","","","","","","","","","","html-keyboard-response","8","2.0.0","58015","66295cf0dbecaeeb1cddb852","3","31","null","","","","","","","","","<p style='font-size: 30px;'><strong>Okay</strong></p>","null","neutral_feedback","0","test","1","","","","","","","","","","","","","","","","","","","","","",""
"","","","","","","","","","","","html-button-response","9","2.0.0","64213","66295cf0dbecaeeb1cddb852","3","31","6196","","","","","","","","","<img src= ""rock_img/I_Obsidian_09.jpg"" style=""width:8cm; height:5cm;""><p>What type of rock is this?</p>","4","class_response","0","test","2","Obsidian","Obsidian","09","true","5","5","","","","","","","","","","","","","","","",""
"","","","","","","","","","","","html-keyboard-response","10","2.0.0","64723","66295cf0dbecaeeb1cddb852","3","31","null","","","","","","","","","<p style='font-size: 30px;'><strong>Okay</strong></p>","null","neutral_feedback","0","test","2","","","","","","","","","","","","","","","","","","","","","",""
"","","","","","","","","","","","html-button-response","11","2.0.0","71362","66295cf0dbecaeeb1cddb852","3","31","6636","","","","","","","","","<img src= ""rock_img/I_Basalt_04.jpg"" style=""width:8cm; height:7.53cm;""><p>What type of rock is this?</p>","1","class_response","0","test","3","Basalt","Basalt","04","true","2","2","","","","","","","","","","","","","","","",""
"","","","","","","","","","","","html-keyboard-response","12","2.0.0","71869","66295cf0dbecaeeb1cddb852","3","31","null","","","","","","","","","<p style='font-size: 30px;'><strong>Okay</strong></p>","null","neutral_feedback","0","test","3","","","","","","","","","","","","","","","","","","","","","",""
"","","","","","","","","","","","html-button-response","13","2.0.0","74248","66295cf0dbecaeeb1cddb852","3","31","2377","","","","","","","","","<img src= ""rock_img/I_Pumice_10.jpg"" style=""width:8cm; height:7.609999999999999cm;""><p>What type of rock is this?</p>","7","class_response","0","test","4","Pumice","Pumice","10","true","8","8","","","","","","","","","","","","","","","",""
"","","","","","","","","","","","html-keyboard-response","14","2.0.0","74756","66295cf0dbecaeeb1cddb852","3","31","null","","","","","","","","","<p style='font-size: 30px;'><strong>Okay</strong></p>","null","neutral_feedback","0","test","4","","","","","","","","","","","","","","","","","","","","","",""
"","","","","","","","","","","","html-button-response","15","2.0.0","84448","66295cf0dbecaeeb1cddb852","3","31","9688","","","","","","","","","<img src= ""rock_img/I_Obsidian_05.jpg"" style=""width:8cm; height:6.33cm;""><p>What type of rock is this?</p>","4","class_response","0","test","5","Obsidian","Obsidian","05","true","5","5","","","","","","","","","","","","","","","",""
"","","","","","","","","","","","html-keyboard-response","16","2.0.0","84952","66295cf0dbecaeeb1cddb852","3","31","null","","","","","","","","","<p style='font-size: 30px;'><strong>Okay</strong></p>","null","neutral_feedback","0","test","5","","","","","","","","","","","","","","","","","","","","","",""
"","","","","","","","","","","","html-button-response","17","2.0.0","93981","66295cf0dbecaeeb1cddb852","3","31","9025","","","","","","","","","<img src= ""rock_img/I_Diorite_08.jpg"" style=""width:8cm; height:6.37cm;""><p>What type of rock is this?</p>","6","class_response","0","test","6","Peridotite","Diorite","08","false","7","3","","","","","","","","","","","","","","","",""
"","","","","","","","","","","","html-keyboard-response","18","2.0.0","94489","66295cf0dbecaeeb1cddb852","3","31","null","","","","","","","","","<p style='font-size: 30px;'><strong>Okay</strong></p>","null","neutral_feedback","0","test","6","","","","","","","","","","","","","","","","","","","","","",""
"","","","","","","","","","","","html-button-response","19","2.0.0","97597","66295cf0dbecaeeb1cddb852","3","31","3106","","","","","","","","","<img src= ""rock_img/I_Andesite_16.jpg"" style=""width:8cm; height:6.010000000000001cm;""><p>What type of rock is this?</p>","1","class_response","0","test","7","Basalt","Andesite","16","false","2","1","","","","","","","","","","","","","","","",""
"","","","","","","","","","","","html-keyboard-response","20","2.0.0","98105","66295cf0dbecaeeb1cddb852","3","31","null","","","","","","","","","<p style='font-size: 30px;'><strong>Okay</strong></p>","null","neutral_feedback","0","test","7","","","","","","","","","","","","","","","","","","","","","",""
"","","","","","","","","","","","html-button-response","21","2.0.0","101697","66295cf0dbecaeeb1cddb852","3","31","3590","","","","","","","","","<img src= ""rock_img/I_Gabbro_11.jpg"" style=""width:8cm; height:6.2cm;""><p>What type of rock is this?</p>","3","class_response","0","test","8","Gabbro","Gabbro","11","true","4","4","","","","","","","","","","","","","","","",""
"","","","","","","","","","","","html-keyboard-response","22","2.0.0","102205","66295cf0dbecaeeb1cddb852","3","31","null","","","","","","","","","<p style='font-size: 30px;'><strong>Okay</strong></p>","null","neutral_feedback","0","test","8","","","","","","","","","","","","","","","","","","","","","",""
"","","","","","","","","","","","html-button-response","23","2.0.0","104081","66295cf0dbecaeeb1cddb852","3","31","1870","","","","","","","","","<img src= ""rock_img/I_Gabbro_01.jpg"" style=""width:8cm; height:5.21cm;""><p>What type of rock is this?</p>","1","class_response","0","test","9","Basalt","Gabbro","01","false","2","4","","","","","","","","","","","","","","","",""
"","","","","","","","","","","","html-keyboard-response","24","2.0.0","104589","66295cf0dbecaeeb1cddb852","3","31","null","","","","","","","","","<p style='font-size: 30px;'><strong>Okay</strong></p>","null","neutral_feedback","0","test","9","","","","","","","","","","","","","","","","","","","","","",""
"","","","","","","","","","","","html-button-response","25","2.0.0","107312","66295cf0dbecaeeb1cddb852","3","31","2720","","","","","","","","","<img src= ""rock_img/I_Peridotite_06.jpg"" style=""width:8cm; height:7.53cm;""><p>What type of rock is this?</p>","5","class_response","0","test","10","Pegmatite","Peridotite","06","false","6","7","","","","","","","","","","","","","","","",""
"","","","","","","","","","","","html-keyboard-response","26","2.0.0","107818","66295cf0dbecaeeb1cddb852","3","31","null","","","","","","","","","<p style='font-size: 30px;'><strong>Okay</strong></p>","null","neutral_feedback","0","test","10","","","","","","","","","","","","","","","","","","","","","",""
"","","","","","","","","","","","html-button-response","27","2.0.0","111497","66295cf0dbecaeeb1cddb852","3","31","3677","","","","","","","","","<img src= ""rock_img/I_Gabbro_10.jpg"" style=""width:8cm; height:5.680000000000001cm;""><p>What type of rock is this?</p>","0","class_response","0","test","11","Andesite","Gabbro","10","false","1","4","","","","","","","","","","","","","","","",""
"","","","","","","","","","","","html-keyboard-response","28","2.0.0","112005","66295cf0dbecaeeb1cddb852","3","31","null","","","","","","","","","<p style='font-size: 30px;'><strong>Okay</strong></p>","null","neutral_feedback","0","test","11","","","","","","","","","","","","","","","","","","","","","",""
"","","","","","","","","","","","html-button-response","29","2.0.0","113564","66295cf0dbecaeeb1cddb852","3","31","1556","","","","","","","","","<img src= ""rock_img/I_Diorite_14.jpg"" style=""width:8cm; height:5.71cm;""><p>What type of rock is this?</p>","1","class_response","0","test","12","Basalt","Diorite","14","false","2","3","","","","","","","","","","","","","","","",""
"","","","","","","","","","","","html-keyboard-response","30","2.0.0","114071","66295cf0dbecaeeb1cddb852","3","31","null","","","","","","","","","<p style='font-size: 30px;'><strong>Okay</strong></p>","null","neutral_feedback","0","test","12","","","","","","","","","","","","","","","","","","","","","",""
"","","","","","","","","","","","html-button-response","31","2.0.0","117164","66295cf0dbecaeeb1cddb852","3","31","3090","","","","","","","","","<img src= ""rock_img/I_Peridotite_13.jpg"" style=""width:8cm; height:7.58cm;""><p>What type of rock is this?</p>","6","class_response","0","test","13","Peridotite","Peridotite","13","true","7","7","","","","","","","","","","","","","","","",""
"","","","","","","","","","","","html-keyboard-response","32","2.0.0","117673","66295cf0dbecaeeb1cddb852","3","31","null","","","","","","","","","<p style='font-size: 30px;'><strong>Okay</strong></p>","null","neutral_feedback","0","test","13","","","","","","","","","","","","","","","","","","","","","",""
"","","","","","","","","","","","html-button-response","33","2.0.0","119845","66295cf0dbecaeeb1cddb852","3","31","2170","","","","","","","","","<img src= ""rock_img/I_Pegmatite_11.jpg"" style=""width:8cm; height:8.14cm;""><p>What type of rock is this?</p>","5","class_response","0","test","14","Pegmatite","Pegmatite","11","true","6","6","","","","","","","","","","","","","","","",""
"","","","","","","","","","","","html-keyboard-response","34","2.0.0","120351","66295cf0dbecaeeb1cddb852","3","31","null","","","","","","","","","<p style='font-size: 30px;'><strong>Okay</strong></p>","null","neutral_feedback","0","test","14","","","","","","","","","","","","","","","","","","","","","",""
"","","","","","","","","","","","html-button-response","35","2.0.0","123198","66295cf0dbecaeeb1cddb852","3","31","2845","","","","","","","","","<img src= ""rock_img/I_Pegmatite_08.jpg"" style=""width:8cm; height:7.68cm;""><p>What type of rock is this?</p>","5","class_response","0","test","15","Pegmatite","Pegmatite","08","true","6","6","","","","","","","","","","","","","","","",""
"","","","","","","","","","","","html-keyboard-response","36","2.0.0","123705","66295cf0dbecaeeb1cddb852","3","31","null","","","","","","","","","<p style='font-size: 30px;'><strong>Okay</strong></p>","null","neutral_feedback","0","test","15","","","","","","","","","","","","","","","","","","","","","",""
"","","","","","","","","","","","html-button-response","37","2.0.0","127330","66295cf0dbecaeeb1cddb852","3","31","3623","","","","","","","","","<img src= ""rock_img/I_Basalt_01.jpg"" style=""width:8cm; height:7.880000000000001cm;""><p>What type of rock is this?</p>","3","class_response","0","test","16","Gabbro","Basalt","01","false","4","2","","","","","","","","","","","","","","","",""
"","","","","","","","","","","","html-keyboard-response","38","2.0.0","127839","66295cf0dbecaeeb1cddb852","3","31","null","","","","","","","","","<p style='font-size: 30px;'><strong>Okay</strong></p>","null","neutral_feedback","0","test","16","","","","","","","","","","","","","","","","","","","","","",""
"","","","","","","","","","","","html-button-response","39","2.0.0","129547","66295cf0dbecaeeb1cddb852","3","31","1706","","","","","","","","","<img src= ""rock_img/I_Pumice_16.jpg"" style=""width:8cm; height:6.79cm;""><p>What type of rock is this?</p>","7","class_response","0","test","17","Pumice","Pumice","16","true","8","8","","","","","","","","","","","","","","","",""
"","","","","","","","","","","","html-keyboard-response","40","2.0.0","130054","66295cf0dbecaeeb1cddb852","3","31","null","","","","","","","","","<p style='font-size: 30px;'><strong>Okay</strong></p>","null","neutral_feedback","0","test","17","","","","","","","","","","","","","","","","","","","","","",""
"","","","","","","","","","","","html-button-response","41","2.0.0","131613","66295cf0dbecaeeb1cddb852","3","31","1555","","","","","","","","","<img src= ""rock_img/I_Basalt_16.jpg"" style=""width:8cm; height:7.659999999999999cm;""><p>What type of rock is this?</p>","7","class_response","0","test","18","Pumice","Basalt","16","false","8","2","","","","","","","","","","","","","","","",""
"","","","","","","","","","","","html-keyboard-response","42","2.0.0","132120","66295cf0dbecaeeb1cddb852","3","31","null","","","","","","","","","<p style='font-size: 30px;'><strong>Okay</strong></p>","null","neutral_feedback","0","test","18","","","","","","","","","","","","","","","","","","","","","",""
"","","","","","","","","","","","html-button-response","43","2.0.0","134547","66295cf0dbecaeeb1cddb852","3","31","2425","","","","","","","","","<img src= ""rock_img/I_Basalt_09.jpg"" style=""width:8cm; height:6.2cm;""><p>What type of rock is this?</p>","2","class_response","0","test","19","Diorite","Basalt","09","false","3","2","","","","","","","","","","","","","","","",""
"","","","","","","","","","","","html-keyboard-response","44","2.0.0","135055","66295cf0dbecaeeb1cddb852","3","31","null","","","","","","","","","<p style='font-size: 30px;'><strong>Okay</strong></p>","null","neutral_feedback","0","test","19","","","","","","","","","","","","","","","","","","","","","",""
"","","","","","","","","","","","html-button-response","45","2.0.0","137580","66295cf0dbecaeeb1cddb852","3","31","2522","","","","","","","","","<img src= ""rock_img/I_Andesite_11.jpg"" style=""width:8cm; height:4.92cm;""><p>What type of rock is this?</p>","0","class_response","0","test","20","Andesite","Andesite","11","true","1","1","","","","","","","","","","","","","","","",""
"","","","","","","","","","","","html-keyboard-response","46","2.0.0","138088","66295cf0dbecaeeb1cddb852","3","31","null","","","","","","","","","<p style='font-size: 30px;'><strong>Okay</strong></p>","null","neutral_feedback","0","test","20","","","","","","","","","","","","","","","","","","","","","",""
"","","","","","","","","","","","html-button-response","47","2.0.0","140528","66295cf0dbecaeeb1cddb852","3","31","2438","","","","","","","","","<img src= ""rock_img/I_Gabbro_05.jpg"" style=""width:8cm; height:6cm;""><p>What type of rock is this?</p>","7","class_response","0","test","21","Pumice","Gabbro","05","false","8","4","","","","","","","","","","","","","","","",""
"","","","","","","","","","","","html-keyboard-response","48","2.0.0","141035","66295cf0dbecaeeb1cddb852","3","31","null","","","","","","","","","<p style='font-size: 30px;'><strong>Okay</strong></p>","null","neutral_feedback","0","test","21","","","","","","","","","","","","","","","","","","","","","",""
"","","","","","","","","","","","html-button-response","49","2.0.0","143113","66295cf0dbecaeeb1cddb852","3","31","2078","","","","","","","","","<img src= ""rock_img/I_Basalt_02.jpg"" style=""width:8cm; height:6.45cm;""><p>What type of rock is this?</p>","1","class_response","0","test","22","Basalt","Basalt","02","true","2","2","","","","","","","","","","","","","","","",""
"","","","","","","","","","","","html-keyboard-response","50","2.0.0","143621","66295cf0dbecaeeb1cddb852","3","31","null","","","","","","","","","<p style='font-size: 30px;'><strong>Okay</strong></p>","null","neutral_feedback","0","test","22","","","","","","","","","","","","","","","","","","","","","",""
"","","","","","","","","","","","html-button-response","51","2.0.0","145647","66295cf0dbecaeeb1cddb852","3","31","2024","","","","","","","","","<img src= ""rock_img/I_Basalt_10.jpg"" style=""width:8cm; height:5.85cm;""><p>What type of rock is this?</p>","1","class_response","0","test","23","Basalt","Basalt","10","true","2","2","","","","","","","","","","","","","","","",""
"","","","","","","","","","","","html-keyboard-response","52","2.0.0","146154","66295cf0dbecaeeb1cddb852","3","31","null","","","","","","","","","<p style='font-size: 30px;'><strong>Okay</strong></p>","null","neutral_feedback","0","test","23","","","","","","","","","","","","","","","","","","","","","",""
"","","","","","","","","","","","html-button-response","53","2.0.0","147448","66295cf0dbecaeeb1cddb852","3","31","1291","","","","","","","","","<img src= ""rock_img/I_Diorite_11.jpg"" style=""width:8cm; height:7.11cm;""><p>What type of rock is this?</p>","1","class_response","0","test","24","Basalt","Diorite","11","false","2","3","","","","","","","","","","","","","","","",""
"","","","","","","","","","","","html-keyboard-response","54","2.0.0","147955","66295cf0dbecaeeb1cddb852","3","31","null","","","","","","","","","<p style='font-size: 30px;'><strong>Okay</strong></p>","null","neutral_feedback","0","test","24","","","","","","","","","","","","","","","","","","","","","",""
"","","","","","","","","","","","html-button-response","55","2.0.0","149881","66295cf0dbecaeeb1cddb852","3","31","1923","","","","","","","","","<img src= ""rock_img/I_Obsidian_06.jpg"" style=""width:8cm; height:6.8cm;""><p>What type of rock is this?</p>","4","class_response","0","test","25","Obsidian","Obsidian","06","true","5","5","","","","","","","","","","","","","","","",""
"","","","","","","","","","","","html-keyboard-response","56","2.0.0","150388","66295cf0dbecaeeb1cddb852","3","31","null","","","","","","","","","<p style='font-size: 30px;'><strong>Okay</strong></p>","null","neutral_feedback","0","test","25","","","","","","","","","","","","","","","","","","","","","",""
"","","","","","","","","","","","html-button-response","57","2.0.0","152250","66295cf0dbecaeeb1cddb852","3","31","1859","","","","","","","","","<img src= ""rock_img/I_Peridotite_05.jpg"" style=""width:8cm; height:7.1499999999999995cm;""><p>What type of rock is this?</p>","7","class_response","0","test","26","Pumice","Peridotite","05","false","8","7","","","","","","","","","","","","","","","",""
"","","","","","","","","","","","html-keyboard-response","58","2.0.0","152757","66295cf0dbecaeeb1cddb852","3","31","null","","","","","","","","","<p style='font-size: 30px;'><strong>Okay</strong></p>","null","neutral_feedback","0","test","26","","","","","","","","","","","","","","","","","","","","","",""
"","","","","","","","","","","","html-button-response","59","2.0.0","154130","66295cf0dbecaeeb1cddb852","3","31","1370","","","","","","","","","<img src= ""rock_img/I_Pumice_15.jpg"" style=""width:8cm; height:7.86cm;""><p>What type of rock is this?</p>","7","class_response","0","test","27","Pumice","Pumice","15","true","8","8","","","","","","","","","","","","","","","",""
"","","","","","","","","","","","html-keyboard-response","60","2.0.0","154636","66295cf0dbecaeeb1cddb852","3","31","null","","","","","","","","","<p style='font-size: 30px;'><strong>Okay</strong></p>","null","neutral_feedback","0","test","27","","","","","","","","","","","","","","","","","","","","","",""
"","","","","","","","","","","","html-button-response","61","2.0.0","160047","66295cf0dbecaeeb1cddb852","3","31","5409","","","","","","","","","<img src= ""rock_img/I_Andesite_01.jpg"" style=""width:8cm; height:5.87cm;""><p>What type of rock is this?</p>","2","class_response","0","test","28","Diorite","Andesite","01","false","3","1","","","","","","","","","","","","","","","",""
"","","","","","","","","","","","html-keyboard-response","62","2.0.0","160555","66295cf0dbecaeeb1cddb852","3","31","null","","","","","","","","","<p style='font-size: 30px;'><strong>Okay</strong></p>","null","neutral_feedback","0","test","28","","","","","","","","","","","","","","","","","","","","","",""
"","","","","","","","","","","","html-button-response","63","2.0.0","164497","66295cf0dbecaeeb1cddb852","3","31","3940","","","","","","","","","<img src= ""rock_img/I_Pegmatite_07.jpg"" style=""width:8cm; height:6.7cm;""><p>What type of rock is this?</p>","6","class_response","0","test","29","Peridotite","Pegmatite","07","false","7","6","","","","","","","","","","","","","","","",""
"","","","","","","","","","","","html-keyboard-response","64","2.0.0","165004","66295cf0dbecaeeb1cddb852","3","31","null","","","","","","","","","<p style='font-size: 30px;'><strong>Okay</strong></p>","null","neutral_feedback","0","test","29","","","","","","","","","","","","","","","","","","","","","",""
"","","","","","","","","","","","html-button-response","65","2.0.0","169348","66295cf0dbecaeeb1cddb852","3","31","4341","","","","","","","","","<img src= ""rock_img/I_Andesite_05.jpg"" style=""width:8cm; height:4.12cm;""><p>What type of rock is this?</p>","2","class_response","0","test","30","Diorite","Andesite","05","false","3","1","","","","","","","","","","","","","","","",""
"","","","","","","","","","","","html-keyboard-response","66","2.0.0","169856","66295cf0dbecaeeb1cddb852","3","31","null","","","","","","","","","<p style='font-size: 30px;'><strong>Okay</strong></p>","null","neutral_feedback","0","test","30","","","","","","","","","","","","","","","","","","","","","",""
"","","","","","","","","","","","html-button-response","67","2.0.0","176198","66295cf0dbecaeeb1cddb852","3","31","6338","","","","","","","","","<img src= ""rock_img/I_Gabbro_14.jpg"" style=""width:8cm; height:8.48cm;""><p>What type of rock is this?</p>","3","class_response","0","test","31","Gabbro","Gabbro","14","true","4","4","","","","","","","","","","","","","","","",""
"","","","","","","","","","","","html-keyboard-response","68","2.0.0","176705","66295cf0dbecaeeb1cddb852","3","31","null","","","","","","","","","<p style='font-size: 30px;'><strong>Okay</strong></p>","null","neutral_feedback","0","test","31","","","","","","","","","","","","","","","","","","","","","",""
"","","","","","","","","","","","html-button-response","69","2.0.0","180580","66295cf0dbecaeeb1cddb852","3","31","3875","","","","","","","","","<img src= ""rock_img/I_Andesite_09.jpg"" style=""width:8cm; height:6cm;""><p>What type of rock is this?</p>","7","class_response","0","test","32","Pumice","Andesite","09","false","8","1","","","","","","","","","","","","","","","",""
"","","","","","","","","","","","html-keyboard-response","70","2.0.0","181085","66295cf0dbecaeeb1cddb852","3","31","null","","","","","","","","","<p style='font-size: 30px;'><strong>Okay</strong></p>","null","neutral_feedback","0","test","32","","","","","","","","","","","","","","","","","","","","","",""
"","","","","","","","","","","","html-button-response","71","2.0.0","186148","66295cf0dbecaeeb1cddb852","3","31","5062","","","","","","","","","<img src= ""rock_img/I_Gabbro_12.jpg"" style=""width:8cm; height:7.800000000000001cm;""><p>What type of rock is this?</p>","1","class_response","0","test","33","Basalt","Gabbro","12","false","2","4","","","","","","","","","","","","","","","",""
"","","","","","","","","","","","html-keyboard-response","72","2.0.0","186655","66295cf0dbecaeeb1cddb852","3","31","null","","","","","","","","","<p style='font-size: 30px;'><strong>Okay</strong></p>","null","neutral_feedback","0","test","33","","","","","","","","","","","","","","","","","","","","","",""
"","","","","","","","","","","","html-button-response","73","2.0.0","190213","66295cf0dbecaeeb1cddb852","3","31","3555","","","","","","","","","<img src= ""rock_img/I_Peridotite_15.jpg"" style=""width:8cm; height:6cm;""><p>What type of rock is this?</p>","6","class_response","0","test","34","Peridotite","Peridotite","15","true","7","7","","","","","","","","","","","","","","","",""
"","","","","","","","","","","","html-keyboard-response","74","2.0.0","190719","66295cf0dbecaeeb1cddb852","3","31","null","","","","","","","","","<p style='font-size: 30px;'><strong>Okay</strong></p>","null","neutral_feedback","0","test","34","","","","","","","","","","","","","","","","","","","","","",""
"","","","","","","","","","","","html-button-response","75","2.0.0","193581","66295cf0dbecaeeb1cddb852","3","31","2858","","","","","","","","","<img src= ""rock_img/I_Diorite_12.jpg"" style=""width:8cm; height:4.88cm;""><p>What type of rock is this?</p>","2","class_response","0","test","35","Diorite","Diorite","12","true","3","3","","","","","","","","","","","","","","","",""
"","","","","","","","","","","","html-keyboard-response","76","2.0.0","194088","66295cf0dbecaeeb1cddb852","3","31","null","","","","","","","","","<p style='font-size: 30px;'><strong>Okay</strong></p>","null","neutral_feedback","0","test","35","","","","","","","","","","","","","","","","","","","","","",""
"","","","","","","","","","","","html-button-response","77","2.0.0","195631","66295cf0dbecaeeb1cddb852","3","31","1541","","","","","","","","","<img src= ""rock_img/I_Peridotite_10.jpg"" style=""width:8cm; height:5.390000000000001cm;""><p>What type of rock is this?</p>","7","class_response","0","test","36","Pumice","Peridotite","10","false","8","7","","","","","","","","","","","","","","","",""
"","","","","","","","","","","","html-keyboard-response","78","2.0.0","196136","66295cf0dbecaeeb1cddb852","3","31","null","","","","","","","","","<p style='font-size: 30px;'><strong>Okay</strong></p>","null","neutral_feedback","0","test","36","","","","","","","","","","","","","","","","","","","","","",""
"","","","","","","","","","","","html-button-response","79","2.0.0","197814","66295cf0dbecaeeb1cddb852","3","31","1676","","","","","","","","","<img src= ""rock_img/I_Diorite_16.jpg"" style=""width:8cm; height:6.74cm;""><p>What type of rock is this?</p>","2","class_response","0","test","37","Diorite","Diorite","16","true","3","3","","","","","","","","","","","","","","","",""
"","","","","","","","","","","","html-keyboard-response","80","2.0.0","198322","66295cf0dbecaeeb1cddb852","3","31","null","","","","","","","","","<p style='font-size: 30px;'><strong>Okay</strong></p>","null","neutral_feedback","0","test","37","","","","","","","","","","","","","","","","","","","","","",""
"","","","","","","","","","","","html-button-response","81","2.0.0","201448","66295cf0dbecaeeb1cddb852","3","31","3124","","","","","","","","","<img src= ""rock_img/I_Pegmatite_06.jpg"" style=""width:8cm; height:5.17cm;""><p>What type of rock is this?</p>","1","class_response","0","test","38","Basalt","Pegmatite","06","false","2","6","","","","","","","","","","","","","","","",""
"","","","","","","","","","","","html-keyboard-response","82","2.0.0","201955","66295cf0dbecaeeb1cddb852","3","31","null","","","","","","","","","<p style='font-size: 30px;'><strong>Okay</strong></p>","null","neutral_feedback","0","test","38","","","","","","","","","","","","","","","","","","","","","",""
"","","","","","","","","","","","html-button-response","83","2.0.0","203514","66295cf0dbecaeeb1cddb852","3","31","1557","","","","","","","","","<img src= ""rock_img/I_Obsidian_14.jpg"" style=""width:8cm; height:7.64cm;""><p>What type of rock is this?</p>","4","class_response","0","test","39","Obsidian","Obsidian","14","true","5","5","","","","","","","","","","","","","","","",""
"","","","","","","","","","","","html-keyboard-response","84","2.0.0","204021","66295cf0dbecaeeb1cddb852","3","31","null","","","","","","","","","<p style='font-size: 30px;'><strong>Okay</strong></p>","null","neutral_feedback","0","test","39","","","","","","","","","","","","","","","","","","","","","",""
"","","","","","","","","","","","html-button-response","85","2.0.0","206398","66295cf0dbecaeeb1cddb852","3","31","2374","","","","","","","","","<img src= ""rock_img/I_Pegmatite_03.jpg"" style=""width:8cm; height:5.239999999999999cm;""><p>What type of rock is this?</p>","6","class_response","0","test","40","Peridotite","Pegmatite","03","false","7","6","","","","","","","","","","","","","","","",""
"","","","","","","","","","","","html-keyboard-response","86","2.0.0","206904","66295cf0dbecaeeb1cddb852","3","31","null","","","","","","","","","<p style='font-size: 30px;'><strong>Okay</strong></p>","null","neutral_feedback","0","test","40","","","","","","","","","","","","","","","","","","","","","",""
"","","","","","","","","","","","html-button-response","87","2.0.0","208431","66295cf0dbecaeeb1cddb852","3","31","1526","","","","","","","","","<img src= ""rock_img/I_Pumice_08.jpg"" style=""width:8cm; height:6.67cm;""><p>What type of rock is this?</p>","7","class_response","0","test","41","Pumice","Pumice","08","true","8","8","","","","","","","","","","","","","","","",""
"","","","","","","","","","","","html-keyboard-response","88","2.0.0","208938","66295cf0dbecaeeb1cddb852","3","31","null","","","","","","","","","<p style='font-size: 30px;'><strong>Okay</strong></p>","null","neutral_feedback","0","test","41","","","","","","","","","","","","","","","","","","","","","",""
"","","","","","","","","","","","html-button-response","89","2.0.0","211948","66295cf0dbecaeeb1cddb852","3","31","3008","","","","","","","","","<img src= ""rock_img/I_Pegmatite_10.jpg"" style=""width:8cm; height:4.16cm;""><p>What type of rock is this?</p>","6","class_response","0","test","42","Peridotite","Pegmatite","10","false","7","6","","","","","","","","","","","","","","","",""
"","","","","","","","","","","","html-keyboard-response","90","2.0.0","212455","66295cf0dbecaeeb1cddb852","3","31","null","","","","","","","","","<p style='font-size: 30px;'><strong>Okay</strong></p>","null","neutral_feedback","0","test","42","","","","","","","","","","","","","","","","","","","","","",""
"","","","","","","","","","","","html-button-response","91","2.0.0","214814","66295cf0dbecaeeb1cddb852","3","31","2357","","","","","","","","","<img src= ""rock_img/I_Diorite_02.jpg"" style=""width:8cm; height:6.27cm;""><p>What type of rock is this?</p>","2","class_response","0","test","43","Diorite","Diorite","02","true","3","3","","","","","","","","","","","","","","","",""
"","","","","","","","","","","","html-keyboard-response","92","2.0.0","215322","66295cf0dbecaeeb1cddb852","3","31","null","","","","","","","","","<p style='font-size: 30px;'><strong>Okay</strong></p>","null","neutral_feedback","0","test","43","","","","","","","","","","","","","","","","","","","","","",""
"","","","","","","","","","","","html-button-response","93","2.0.0","218348","66295cf0dbecaeeb1cddb852","3","31","3025","","","","","","","","","<img src= ""rock_img/I_Peridotite_07.jpg"" style=""width:8cm; height:4.83cm;""><p>What type of rock is this?</p>","3","class_response","0","test","44","Gabbro","Peridotite","07","false","4","7","","","","","","","","","","","","","","","",""
"","","","","","","","","","","","html-keyboard-response","94","2.0.0","218851","66295cf0dbecaeeb1cddb852","3","31","null","","","","","","","","","<p style='font-size: 30px;'><strong>Okay</strong></p>","null","neutral_feedback","0","test","44","","","","","","","","","","","","","","","","","","","","","",""
"","","","","","","","","","","","html-button-response","95","2.0.0","220347","66295cf0dbecaeeb1cddb852","3","31","1494","","","","","","","","","<img src= ""rock_img/I_Obsidian_02.jpg"" style=""width:8cm; height:7.51cm;""><p>What type of rock is this?</p>","4","class_response","0","test","45","Obsidian","Obsidian","02","true","5","5","","","","","","","","","","","","","","","",""
"","","","","","","","","","","","html-keyboard-response","96","2.0.0","220855","66295cf0dbecaeeb1cddb852","3","31","null","","","","","","","","","<p style='font-size: 30px;'><strong>Okay</strong></p>","null","neutral_feedback","0","test","45","","","","","","","","","","","","","","","","","","","","","",""
"","","","","","","","","","","","html-button-response","97","2.0.0","222447","66295cf0dbecaeeb1cddb852","3","31","1591","","","","","","","","","<img src= ""rock_img/I_Pumice_09.jpg"" style=""width:8cm; height:6.44cm;""><p>What type of rock is this?</p>","7","class_response","0","test","46","Pumice","Pumice","09","true","8","8","","","","","","","","","","","","","","","",""
"","","","","","","","","","","","html-keyboard-response","98","2.0.0","222955","66295cf0dbecaeeb1cddb852","3","31","null","","","","","","","","","<p style='font-size: 30px;'><strong>Okay</strong></p>","null","neutral_feedback","0","test","46","","","","","","","","","","","","","","","","","","","","","",""
"","","","","","","","","","","","html-button-response","99","2.0.0","224065","66295cf0dbecaeeb1cddb852","3","31","1109","","","","","","","","","<img src= ""rock_img/I_Pumice_05.jpg"" style=""width:8cm; height:7.25cm;""><p>What type of rock is this?</p>","7","class_response","0","test","47","Pumice","Pumice","05","true","8","8","","","","","","","","","","","","","","","",""
"","","","","","","","","","","","html-keyboard-response","100","2.0.0","224572","66295cf0dbecaeeb1cddb852","3","31","null","","","","","","","","","<p style='font-size: 30px;'><strong>Okay</strong></p>","null","neutral_feedback","0","test","47","","","","","","","","","","","","","","","","","","","","","",""
"","","","","","","","","","","","html-button-response","101","2.0.0","229615","66295cf0dbecaeeb1cddb852","3","31","5041","","","","","","","","","<img src= ""rock_img/I_Andesite_02.jpg"" style=""width:8cm; height:8.5cm;""><p>What type of rock is this?</p>","1","class_response","0","test","48","Basalt","Andesite","02","false","2","1","","","","","","","","","","","","","","","",""
"","","","","","","","","","","","html-keyboard-response","102","2.0.0","230122","66295cf0dbecaeeb1cddb852","3","31","null","","","","","","","","","<p style='font-size: 30px;'><strong>Okay</strong></p>","null","neutral_feedback","0","test","48","","","","","","","","","","","","","","","","","","","","","",""
"","","","","","","","","","","","instructions","103","2.0.0","249098","66295cf0dbecaeeb1cddb852","3","31","18940","","","","","","","","[{""page_index"":0,""viewing_time"":14157},{""page_index"":1,""viewing_time"":4783}]","","","","","","","","","","","","","","","","","","","","","","","","","","","",""
"","","","","","","","","","","","html-button-response","104","2.0.0","251397","66295cf0dbecaeeb1cddb852","3","31","2296","","","","","","","","","","0","start_train","","","","","","","","","","","","","","","","","","","","","","","","",""
"","","","","","","","","","","","html-button-response","106","2.0.0","253566","66295cf0dbecaeeb1cddb852","3","31","2164","","","","","","","","","<img src= ""rock_img/I_Diorite_15.jpg"" style=""width:8cm; height:5.54cm;""><p>What type of rock is this?</p>","2","class_response","1","train","1","Diorite","Diorite","15","true","3","3","","","","","","","","","","","","","","","",""
"","","","","","","","","","","","html-button-response","107","2.0.0","256398","66295cf0dbecaeeb1cddb852","3","31","2828","","","","","","","","","<img src= rock_img/I_Diorite_15.jpg style=""width:8cm; height:5.54cm;""><p style='font-size: 30px; color: green;'><strong>Correct!</strong></p><p style='font-size: 30px;'><strong>This rock is diorite</strong></p>","0","corr_feedback","1","train","1","","","","","","","","","","","","","","","","","","","","","",""
"","","","","","","","","","","","html-button-response","108","2.0.0","261382","66295cf0dbecaeeb1cddb852","3","31","4980","","","","","","","","","<img src= ""rock_img/I_Basalt_05.jpg"" style=""width:8cm; height:8.18cm;""><p>What type of rock is this?</p>","3","class_response","1","train","2","Gabbro","Basalt","05","false","4","2","","","","","","","","","","","","","","","",""
"","","","","","","","","","","","html-button-response","109","2.0.0","265081","66295cf0dbecaeeb1cddb852","3","31","3696","","","","","","","","","<img src= rock_img/I_Basalt_05.jpg style=""width:8cm; height:8.18cm;""><p style='font-size: 30px; color: red;'><strong>Incorrect!</strong></p><p style='font-size: 30px;'><strong>This rock is basalt</strong></p>","0","corr_feedback","1","train","2","","","","","","","","","","","","","","","","","","","","","",""
"","","","","","","","","","","","html-button-response","110","2.0.0","268016","66295cf0dbecaeeb1cddb852","3","31","2931","","","","","","","","","<img src= ""rock_img/I_Pegmatite_05.jpg"" style=""width:8cm; height:7.300000000000001cm;""><p>What type of rock is this?</p>","5","class_response","1","train","3","Pegmatite","Pegmatite","05","true","6","6","","","","","","","","","","","","","","","",""
"","","","","","","","","","","","html-button-response","111","2.0.0","272747","66295cf0dbecaeeb1cddb852","3","31","4728","","","","","","","","","<img src= rock_img/I_Pegmatite_05.jpg style=""width:8cm; height:7.300000000000001cm;""><p style='font-size: 30px; color: green;'><strong>Correct!</strong></p><p style='font-size: 30px;'><strong>This rock is pegmatite</strong></p>","0","corr_feedback","1","train","3","","","","","","","","","","","","","","","","","","","","","",""
"","","","","","","","","","","","html-button-response","112","2.0.0","274015","66295cf0dbecaeeb1cddb852","3","31","1263","","","","","","","","","<img src= ""rock_img/I_Pumice_06.jpg"" style=""width:8cm; height:6.9399999999999995cm;""><p>What type of rock is this?</p>","7","class_response","1","train","4","Pumice","Pumice","06","true","8","8","","","","","","","","","","","","","","","",""
"","","","","","","","","","","","html-button-response","113","2.0.0","275898","66295cf0dbecaeeb1cddb852","3","31","1880","","","","","","","","","<img src= rock_img/I_Pumice_06.jpg style=""width:8cm; height:6.9399999999999995cm;""><p style='font-size: 30px; color: green;'><strong>Correct!</strong></p><p style='font-size: 30px;'><strong>This rock is pumice</strong></p>","0","corr_feedback","1","train","4","","","","","","","","","","","","","","","","","","","","","",""
"","","","","","","","","","","","html-button-response","114","2.0.0","277665","66295cf0dbecaeeb1cddb852","3","31","1763","","","","","","","","","<img src= ""rock_img/I_Diorite_06.jpg"" style=""width:8cm; height:6.03cm;""><p>What type of rock is this?</p>","2","class_response","1","train","5","Diorite","Diorite","06","true","3","3","","","","","","","","","","","","","","","",""
"","","","","","","","","","","","html-button-response","115","2.0.0","278830","66295cf0dbecaeeb1cddb852","3","31","1162","","","","","","","","","<img src= rock_img/I_Diorite_06.jpg style=""width:8cm; height:6.03cm;""><p style='font-size: 30px; color: green;'><strong>Correct!</strong></p><p style='font-size: 30px;'><strong>This rock is diorite</strong></p>","0","corr_feedback","1","train","5","","","","","","","","","","","","","","","","","","","","","",""
"","","","","","","","","","","","html-button-response","116","2.0.0","282415","66295cf0dbecaeeb1cddb852","3","31","3584","","","","","","","","","<img src= ""rock_img/I_Gabbro_09.jpg"" style=""width:8cm; height:7.279999999999999cm;""><p>What type of rock is this?</p>","0","class_response","1","train","6","Andesite","Gabbro","09","false","1","4","","","","","","","","","","","","","","","",""
"","","","","","","","","","","","html-button-response","117","2.0.0","285482","66295cf0dbecaeeb1cddb852","3","31","3064","","","","","","","","","<img src= rock_img/I_Gabbro_09.jpg style=""width:8cm; height:7.279999999999999cm;""><p style='font-size: 30px; color: red;'><strong>Incorrect!</strong></p><p style='font-size: 30px;'><strong>This rock is gabbro</strong></p>","0","corr_feedback","1","train","6","","","","","","","","","","","","","","","","","","","","","",""
"","","","","","","","","","","","html-button-response","118","2.0.0","287748","66295cf0dbecaeeb1cddb852","3","31","2264","","","","","","","","","<img src= ""rock_img/I_Gabbro_13.jpg"" style=""width:8cm; height:5.08cm;""><p>What type of rock is this?</p>","0","class_response","1","train","7","Andesite","Gabbro","13","false","1","4","","","","","","","","","","","","","","","",""
"","","","","","","","","","","","html-button-response","119","2.0.0","289765","66295cf0dbecaeeb1cddb852","3","31","2014","","","","","","","","","<img src= rock_img/I_Gabbro_13.jpg style=""width:8cm; height:5.08cm;""><p style='font-size: 30px; color: red;'><strong>Incorrect!</strong></p><p style='font-size: 30px;'><strong>This rock is gabbro</strong></p>","0","corr_feedback","1","train","7","","","","","","","","","","","","","","","","","","","","","",""
"","","","","","","","","","","","html-button-response","120","2.0.0","293399","66295cf0dbecaeeb1cddb852","3","31","3630","","","","","","","","","<img src= ""rock_img/I_Peridotite_04.jpg"" style=""width:8cm; height:6.680000000000001cm;""><p>What type of rock is this?</p>","3","class_response","1","train","8","Gabbro","Peridotite","04","false","4","7","","","","","","","","","","","","","","","",""
"","","","","","","","","","","","html-button-response","121","2.0.0","294964","66295cf0dbecaeeb1cddb852","3","31","1562","","","","","","","","","<img src= rock_img/I_Peridotite_04.jpg style=""width:8cm; height:6.680000000000001cm;""><p style='font-size: 30px; color: red;'><strong>Incorrect!</strong></p><p style='font-size: 30px;'><strong>This rock is peridotite</strong></p>","0","corr_feedback","1","train","8","","","","","","","","","","","","","","","","","","","","","",""
"","","","","","","","","","","","html-button-response","122","2.0.0","296915","66295cf0dbecaeeb1cddb852","3","31","1949","","","","","","","","","<img src= ""rock_img/I_Andesite_10.jpg"" style=""width:8cm; height:4.16cm;""><p>What type of rock is this?</p>","7","class_response","1","train","9","Pumice","Andesite","10","false","8","1","","","","","","","","","","","","","","","",""
"","","","","","","","","","","","html-button-response","123","2.0.0","298032","66295cf0dbecaeeb1cddb852","3","31","1115","","","","","","","","","<img src= rock_img/I_Andesite_10.jpg style=""width:8cm; height:4.16cm;""><p style='font-size: 30px; color: red;'><strong>Incorrect!</strong></p><p style='font-size: 30px;'><strong>This rock is andesite</strong></p>","0","corr_feedback","1","train","9","","","","","","","","","","","","","","","","","","","","","",""
"","","","","","","","","","","","html-button-response","124","2.0.0","299848","66295cf0dbecaeeb1cddb852","3","31","1813","","","","","","","","","<img src= ""rock_img/I_Pegmatite_12.jpg"" style=""width:8cm; height:5.7cm;""><p>What type of rock is this?</p>","2","class_response","1","train","10","Diorite","Pegmatite","12","false","3","6","","","","","","","","","","","","","","","",""
"","","","","","","","","","","","html-button-response","125","2.0.0","300899","66295cf0dbecaeeb1cddb852","3","31","1048","","","","","","","","","<img src= rock_img/I_Pegmatite_12.jpg style=""width:8cm; height:5.7cm;""><p style='font-size: 30px; color: red;'><strong>Incorrect!</strong></p><p style='font-size: 30px;'><strong>This rock is pegmatite</strong></p>","0","corr_feedback","1","train","10","","","","","","","","","","","","","","","","","","","","","",""
"","","","","","","","","","","","html-button-response","126","2.0.0","302482","66295cf0dbecaeeb1cddb852","3","31","1580","","","","","","","","","<img src= ""rock_img/I_Pumice_14.jpg"" style=""width:8cm; height:6.39cm;""><p>What type of rock is this?</p>","7","class_response","1","train","11","Pumice","Pumice","14","true","8","8","","","","","","","","","","","","","","","",""
"","","","","","","","","","","","html-button-response","127","2.0.0","303398","66295cf0dbecaeeb1cddb852","3","31","913","","","","","","","","","<img src= rock_img/I_Pumice_14.jpg style=""width:8cm; height:6.39cm;""><p style='font-size: 30px; color: green;'><strong>Correct!</strong></p><p style='font-size: 30px;'><strong>This rock is pumice</strong></p>","0","corr_feedback","1","train","11","","","","","","","","","","","","","","","","","","","","","",""
"","","","","","","","","","","","html-button-response","128","2.0.0","305398","66295cf0dbecaeeb1cddb852","3","31","1998","","","","","","","","","<img src= ""rock_img/I_Obsidian_10.jpg"" style=""width:8cm; height:6.260000000000001cm;""><p>What type of rock is this?</p>","4","class_response","1","train","12","Obsidian","Obsidian","10","true","5","5","","","","","","","","","","","","","","","",""
"","","","","","","","","","","","html-button-response","129","2.0.0","306330","66295cf0dbecaeeb1cddb852","3","31","928","","","","","","","","","<img src= rock_img/I_Obsidian_10.jpg style=""width:8cm; height:6.260000000000001cm;""><p style='font-size: 30px; color: green;'><strong>Correct!</strong></p><p style='font-size: 30px;'><strong>This rock is obsidian</strong></p>","0","corr_feedback","1","train","12","","","","","","","","","","","","","","","","","","","","","",""
"","","","","","","","","","","","instructions","130","2.0.0","346665","66295cf0dbecaeeb1cddb852","3","31","40334","","","","","","","","[{""page_index"":0,""viewing_time"":8817},{""page_index"":1,""viewing_time"":18366},{""page_index"":2,""viewing_time"":9019},{""page_index"":3,""viewing_time"":4132}]","","","","","","","","","","","","","","","","","","","","","","","","","","","",""
"","","","","","","","","","","","html-button-response","131","2.0.0","348115","66295cf0dbecaeeb1cddb852","3","31","1448","","","","","","","","","","0","start_train","","","","","","","","","","","","","","","","","","","","","","","","",""
"","","","","","","","","","","","html-button-response","132","2.0.0","355649","66295cf0dbecaeeb1cddb852","3","31","","","","","","","","","","","","cat_selection","1","train","1","","","","","","","6","7","7532","Pegmatite","Peridotite","[0.1982758620689655,0.1293103448275862,0.1293103448275862,0.16379310344827586,0.025862068965517238,0.16379310344827586,0.16379310344827586,0.025862068965517238]","[0.050921712972774376,0.2045476767743014,0.06511045996518827,0.062132711966780343,0.05695498596954864,null,0.5183328723738624,0.04199957997754466]","","","","","","","","",""
"","","","","","","","","","","","paired-cat-display","133","1.0.0","498585","66295cf0dbecaeeb1cddb852","3","31","","","","","","","","","","","","paired_cat_display","1","train","1","","","","","","","","","17329","","","","","geometric color variants, shiny, black and white and neutral.","Multicolor (pink, green, white), textured (pitted), matte","125602","","","","","",""
"","","","","","","","","","","","html-button-response","134","2.0.0","502617","66295cf0dbecaeeb1cddb852","3","31","","","","","","","","","","","","cat_selection","1","train","2","","","","","","","2","4","4027","Basalt","Gabbro","[0.1982758620689655,0.1293103448275862,0.1293103448275862,0.16379310344827586,0.025862068965517238,0.16379310344827586,0.16379310344827586,0.025862068965517238]","[0.05710161764915082,null,0.2529647098794085,0.26295368619349996,0.059487196342048666,0.04470675984477515,0.05785282115244631,0.2649332089386705]","","","","","","","","",""
"","","","","","","","","","","","paired-cat-display","135","1.0.0","653469","66295cf0dbecaeeb1cddb852","3","31","","","","","","","","","","","","paired_cat_display","1","train","2","","","","","","","","","17065","","","","","","","133785","tends towards monocolor (grey, brown), looks like a rock (like how you think a rock looks like), dull","colored with speckles and dots, looks like a good kitchen countertop, black and white, brown and white.","","","",""
"","","","","","","","","","","","html-button-response","136","2.0.0","656568","66295cf0dbecaeeb1cddb852","3","31","","","","","","","","","","","","cat_selection","1","train","3","","","","","","","2","3","3094","Basalt","Diorite","[0.1982758620689655,0.1293103448275862,0.1293103448275862,0.16379310344827586,0.025862068965517238,0.16379310344827586,0.16379310344827586,0.025862068965517238]","[0.05710161764915082,null,0.2529647098794085,0.26295368619349996,0.059487196342048666,0.04470675984477515,0.05785282115244631,0.2649332089386705]","","","","","","","","",""
"","","","","","","","","","","","paired-cat-display","137","1.0.0","726820","66295cf0dbecaeeb1cddb852","3","31","","","","","","","","","","","","paired_cat_display","1","train","3","","","","","","","","","11914","","","","","","","58333","Looks like a rock, grey or brown, dull","","Looks like a kitchen countertop, spotted or dotted, black and white, brown and white","","",""
"","","","","","","","","","","","instructions","138","2.0.0","740402","66295cf0dbecaeeb1cddb852","3","31","13579","","","","","","","","[{""page_index"":0,""viewing_time"":5795},{""page_index"":1,""viewing_time"":7784}]","","","","","","","","","","","","","","","","","","","","","","","","","","","",""
"","","","","","","","","","","","html-button-response","139","2.0.0","742335","66295cf0dbecaeeb1cddb852","3","31","1929","","","","","","","","","","0","start_test","","","","","","","","","","","","","","","","","","","","","","","","",""
"","","","","","","","","","","","html-button-response","140","2.0.0","747618","66295cf0dbecaeeb1cddb852","3","31","5280","","","","","","","","","<img src= ""rock_img/I_Diorite_12.jpg"" style=""width:8cm; height:4.88cm;""><p>What type of rock is this?</p>","2","class_response","1","test","1","Diorite","Diorite","12","true","3","3","","","","","","","","","","","","","","","",""
"","","","","","","","","","","","html-keyboard-response","141","2.0.0","748127","66295cf0dbecaeeb1cddb852","3","31","null","","","","","","","","","<p style='font-size: 30px;'><strong>Okay</strong></p>","null","neutral_feedback","1","test","1","","","","","","","","","","","","","","","","","","","","","",""
"","","","","","","","","","","","html-button-response","142","2.0.0","759017","66295cf0dbecaeeb1cddb852","3","31","10891","","","","","","","","","<img src= ""rock_img/I_Peridotite_06.jpg"" style=""width:8cm; height:7.53cm;""><p>What type of rock is this?</p>","5","class_response","1","test","2","Pegmatite","Peridotite","06","false","6","7","","","","","","","","","","","","","","","",""
"","","","","","","","","","","","html-keyboard-response","143","2.0.0","759524","66295cf0dbecaeeb1cddb852","3","31","null","","","","","","","","","<p style='font-size: 30px;'><strong>Okay</strong></p>","null","neutral_feedback","1","test","2","","","","","","","","","","","","","","","","","","","","","",""
"","","","","","","","","","","","html-button-response","144","2.0.0","770767","66295cf0dbecaeeb1cddb852","3","31","11241","","","","","","","","","<img src= ""rock_img/I_Gabbro_10.jpg"" style=""width:8cm; height:5.680000000000001cm;""><p>What type of rock is this?</p>","0","class_response","1","test","3","Andesite","Gabbro","10","false","1","4","","","","","","","","","","","","","","","",""
"","","","","","","","","","","","html-keyboard-response","145","2.0.0","771274","66295cf0dbecaeeb1cddb852","3","31","null","","","","","","","","","<p style='font-size: 30px;'><strong>Okay</strong></p>","null","neutral_feedback","1","test","3","","","","","","","","","","","","","","","","","","","","","",""
"","","","","","","","","","","","html-button-response","146","2.0.0","782719","66295cf0dbecaeeb1cddb852","3","31","11443","","","","","","","","","<img src= ""rock_img/I_Andesite_11.jpg"" style=""width:8cm; height:4.92cm;""><p>What type of rock is this?</p>","3","class_response","1","test","4","Gabbro","Andesite","11","false","4","1","","","","","","","","","","","","","","","",""
"","","","","","","","","","","","html-keyboard-response","147","2.0.0","783227","66295cf0dbecaeeb1cddb852","3","31","null","","","","","","","","","<p style='font-size: 30px;'><strong>Okay</strong></p>","null","neutral_feedback","1","test","4","","","","","","","","","","","","","","","","","","","","","",""
"","","","","","","","","","","","html-button-response","148","2.0.0","787253","66295cf0dbecaeeb1cddb852","3","31","4023","","","","","","","","","<img src= ""rock_img/I_Andesite_16.jpg"" style=""width:8cm; height:6.010000000000001cm;""><p>What type of rock is this?</p>","2","class_response","1","test","5","Diorite","Andesite","16","false","3","1","","","","","","","","","","","","","","","",""
"","","","","","","","","","","","html-keyboard-response","149","2.0.0","787758","66295cf0dbecaeeb1cddb852","3","31","null","","","","","","","","","<p style='font-size: 30px;'><strong>Okay</strong></p>","null","neutral_feedback","1","test","5","","","","","","","","","","","","","","","","","","","","","",""
"","","","","","","","","","","","html-button-response","150","2.0.0","789169","66295cf0dbecaeeb1cddb852","3","31","1409","","","","","","","","","<img src= ""rock_img/I_Pumice_10.jpg"" style=""width:8cm; height:7.609999999999999cm;""><p>What type of rock is this?</p>","7","class_response","1","test","6","Pumice","Pumice","10","true","8","8","","","","","","","","","","","","","","","",""
"","","","","","","","","","","","html-keyboard-response","151","2.0.0","789675","66295cf0dbecaeeb1cddb852","3","31","null","","","","","","","","","<p style='font-size: 30px;'><strong>Okay</strong></p>","null","neutral_feedback","1","test","6","","","","","","","","","","","","","","","","","","","","","",""
"","","","","","","","","","","","html-button-response","152","2.0.0","799603","66295cf0dbecaeeb1cddb852","3","31","9924","","","","","","","","","<img src= ""rock_img/I_Pegmatite_07.jpg"" style=""width:8cm; height:6.7cm;""><p>What type of rock is this?</p>","6","class_response","1","test","7","Peridotite","Pegmatite","07","false","7","6","","","","","","","","","","","","","","","",""
"","","","","","","","","","","","html-keyboard-response","153","2.0.0","800110","66295cf0dbecaeeb1cddb852","3","31","null","","","","","","","","","<p style='font-size: 30px;'><strong>Okay</strong></p>","null","neutral_feedback","1","test","7","","","","","","","","","","","","","","","","","","","","","",""
"","","","","","","","","","","","html-button-response","154","2.0.0","801636","66295cf0dbecaeeb1cddb852","3","31","1522","","","","","","","","","<img src= ""rock_img/I_Obsidian_02.jpg"" style=""width:8cm; height:7.51cm;""><p>What type of rock is this?</p>","4","class_response","1","test","8","Obsidian","Obsidian","02","true","5","5","","","","","","","","","","","","","","","",""
"","","","","","","","","","","","html-keyboard-response","155","2.0.0","802144","66295cf0dbecaeeb1cddb852","3","31","null","","","","","","","","","<p style='font-size: 30px;'><strong>Okay</strong></p>","null","neutral_feedback","1","test","8","","","","","","","","","","","","","","","","","","","","","",""
"","","","","","","","","","","","html-button-response","156","2.0.0","804985","66295cf0dbecaeeb1cddb852","3","31","2838","","","","","","","","","<img src= ""rock_img/I_Pumice_15.jpg"" style=""width:8cm; height:7.86cm;""><p>What type of rock is this?</p>","7","class_response","1","test","9","Pumice","Pumice","15","true","8","8","","","","","","","","","","","","","","","",""
"","","","","","","","","","","","html-keyboard-response","157","2.0.0","805492","66295cf0dbecaeeb1cddb852","3","31","null","","","","","","","","","<p style='font-size: 30px;'><strong>Okay</strong></p>","null","neutral_feedback","1","test","9","","","","","","","","","","","","","","","","","","","","","",""
"","","","","","","","","","","","html-button-response","158","2.0.0","807269","66295cf0dbecaeeb1cddb852","3","31","1774","","","","","","","","","<img src= ""rock_img/I_Gabbro_12.jpg"" style=""width:8cm; height:7.800000000000001cm;""><p>What type of rock is this?</p>","1","class_response","1","test","10","Basalt","Gabbro","12","false","2","4","","","","","","","","","","","","","","","",""
"","","","","","","","","","","","html-keyboard-response","159","2.0.0","807776","66295cf0dbecaeeb1cddb852","3","31","null","","","","","","","","","<p style='font-size: 30px;'><strong>Okay</strong></p>","null","neutral_feedback","1","test","10","","","","","","","","","","","","","","","","","","","","","",""
"","","","","","","","","","","","html-button-response","160","2.0.0","809252","66295cf0dbecaeeb1cddb852","3","31","1473","","","","","","","","","<img src= ""rock_img/I_Obsidian_06.jpg"" style=""width:8cm; height:6.8cm;""><p>What type of rock is this?</p>","4","class_response","1","test","11","Obsidian","Obsidian","06","true","5","5","","","","","","","","","","","","","","","",""
"","","","","","","","","","","","html-keyboard-response","161","2.0.0","809754","66295cf0dbecaeeb1cddb852","3","31","null","","","","","","","","","<p style='font-size: 30px;'><strong>Okay</strong></p>","null","neutral_feedback","1","test","11","","","","","","","","","","","","","","","","","","","","","",""
"","","","","","","","","","","","html-button-response","162","2.0.0","813602","66295cf0dbecaeeb1cddb852","3","31","3845","","","","","","","","","<img src= ""rock_img/I_Basalt_10.jpg"" style=""width:8cm; height:5.85cm;""><p>What type of rock is this?</p>","1","class_response","1","test","12","Basalt","Basalt","10","true","2","2","","","","","","","","","","","","","","","",""
"","","","","","","","","","","","html-keyboard-response","163","2.0.0","814110","66295cf0dbecaeeb1cddb852","3","31","null","","","","","","","","","<p style='font-size: 30px;'><strong>Okay</strong></p>","null","neutral_feedback","1","test","12","","","","","","","","","","","","","","","","","","","","","",""
"","","","","","","","","","","","html-button-response","164","2.0.0","817336","66295cf0dbecaeeb1cddb852","3","31","3224","","","","","","","","","<img src= ""rock_img/I_Peridotite_15.jpg"" style=""width:8cm; height:6cm;""><p>What type of rock is this?</p>","6","class_response","1","test","13","Peridotite","Peridotite","15","true","7","7","","","","","","","","","","","","","","","",""
"","","","","","","","","","","","html-keyboard-response","165","2.0.0","817843","66295cf0dbecaeeb1cddb852","3","31","null","","","","","","","","","<p style='font-size: 30px;'><strong>Okay</strong></p>","null","neutral_feedback","1","test","13","","","","","","","","","","","","","","","","","","","","","",""
"","","","","","","","","","","","html-button-response","166","2.0.0","820052","66295cf0dbecaeeb1cddb852","3","31","2208","","","","","","","","","<img src= ""rock_img/I_Pumice_08.jpg"" style=""width:8cm; height:6.67cm;""><p>What type of rock is this?</p>","7","class_response","1","test","14","Pumice","Pumice","08","true","8","8","","","","","","","","","","","","","","","",""
"","","","","","","","","","","","html-keyboard-response","167","2.0.0","820560","66295cf0dbecaeeb1cddb852","3","31","null","","","","","","","","","<p style='font-size: 30px;'><strong>Okay</strong></p>","null","neutral_feedback","1","test","14","","","","","","","","","","","","","","","","","","","","","",""
"","","","","","","","","","","","html-button-response","168","2.0.0","826202","66295cf0dbecaeeb1cddb852","3","31","5640","","","","","","","","","<img src= ""rock_img/I_Peridotite_13.jpg"" style=""width:8cm; height:7.58cm;""><p>What type of rock is this?</p>","6","class_response","1","test","15","Peridotite","Peridotite","13","true","7","7","","","","","","","","","","","","","","","",""
"","","","","","","","","","","","html-keyboard-response","169","2.0.0","826710","66295cf0dbecaeeb1cddb852","3","31","null","","","","","","","","","<p style='font-size: 30px;'><strong>Okay</strong></p>","null","neutral_feedback","1","test","15","","","","","","","","","","","","","","","","","","","","","",""
"","","","","","","","","","","","html-button-response","170","2.0.0","828736","66295cf0dbecaeeb1cddb852","3","31","2022","","","","","","","","","<img src= ""rock_img/I_Andesite_01.jpg"" style=""width:8cm; height:5.87cm;""><p>What type of rock is this?</p>","2","class_response","1","test","16","Diorite","Andesite","01","false","3","1","","","","","","","","","","","","","","","",""
"","","","","","","","","","","","html-keyboard-response","171","2.0.0","829239","66295cf0dbecaeeb1cddb852","3","31","null","","","","","","","","","<p style='font-size: 30px;'><strong>Okay</strong></p>","null","neutral_feedback","1","test","16","","","","","","","","","","","","","","","","","","","","","",""
"","","","","","","","","","","","html-button-response","172","2.0.0","830536","66295cf0dbecaeeb1cddb852","3","31","1295","","","","","","","","","<img src= ""rock_img/I_Diorite_11.jpg"" style=""width:8cm; height:7.11cm;""><p>What type of rock is this?</p>","2","class_response","1","test","17","Diorite","Diorite","11","true","3","3","","","","","","","","","","","","","","","",""
"","","","","","","","","","","","html-keyboard-response","173","2.0.0","831041","66295cf0dbecaeeb1cddb852","3","31","null","","","","","","","","","<p style='font-size: 30px;'><strong>Okay</strong></p>","null","neutral_feedback","1","test","17","","","","","","","","","","","","","","","","","","","","","",""
"","","","","","","","","","","","html-button-response","174","2.0.0","834220","66295cf0dbecaeeb1cddb852","3","31","3177","","","","","","","","","<img src= ""rock_img/I_Pegmatite_10.jpg"" style=""width:8cm; height:4.16cm;""><p>What type of rock is this?</p>","5","class_response","1","test","18","Pegmatite","Pegmatite","10","true","6","6","","","","","","","","","","","","","","","",""
"","","","","","","","","","","","html-keyboard-response","175","2.0.0","834727","66295cf0dbecaeeb1cddb852","3","31","null","","","","","","","","","<p style='font-size: 30px;'><strong>Okay</strong></p>","null","neutral_feedback","1","test","18","","","","","","","","","","","","","","","","","","","","","",""
"","","","","","","","","","","","html-button-response","176","2.0.0","839202","66295cf0dbecaeeb1cddb852","3","31","4473","","","","","","","","","<img src= ""rock_img/I_Gabbro_11.jpg"" style=""width:8cm; height:6.2cm;""><p>What type of rock is this?</p>","1","class_response","1","test","19","Basalt","Gabbro","11","false","2","4","","","","","","","","","","","","","","","",""
"","","","","","","","","","","","html-keyboard-response","177","2.0.0","839710","66295cf0dbecaeeb1cddb852","3","31","null","","","","","","","","","<p style='font-size: 30px;'><strong>Okay</strong></p>","null","neutral_feedback","1","test","19","","","","","","","","","","","","","","","","","","","","","",""
"","","","","","","","","","","","html-button-response","178","2.0.0","841302","66295cf0dbecaeeb1cddb852","3","31","1590","","","","","","","","","<img src= ""rock_img/I_Pumice_09.jpg"" style=""width:8cm; height:6.44cm;""><p>What type of rock is this?</p>","7","class_response","1","test","20","Pumice","Pumice","09","true","8","8","","","","","","","","","","","","","","","",""
"","","","","","","","","","","","html-keyboard-response","179","2.0.0","841810","66295cf0dbecaeeb1cddb852","3","31","null","","","","","","","","","<p style='font-size: 30px;'><strong>Okay</strong></p>","null","neutral_feedback","1","test","20","","","","","","","","","","","","","","","","","","","","","",""
"","","","","","","","","","","","html-button-response","180","2.0.0","845188","66295cf0dbecaeeb1cddb852","3","31","3374","","","","","","","","","<img src= ""rock_img/I_Basalt_02.jpg"" style=""width:8cm; height:6.45cm;""><p>What type of rock is this?</p>","1","class_response","1","test","21","Basalt","Basalt","02","true","2","2","","","","","","","","","","","","","","","",""
"","","","","","","","","","","","html-keyboard-response","181","2.0.0","845699","66295cf0dbecaeeb1cddb852","3","31","null","","","","","","","","","<p style='font-size: 30px;'><strong>Okay</strong></p>","null","neutral_feedback","1","test","21","","","","","","","","","","","","","","","","","","","","","",""
"","","","","","","","","","","","html-button-response","182","2.0.0","849137","66295cf0dbecaeeb1cddb852","3","31","3434","","","","","","","","","<img src= ""rock_img/I_Pegmatite_08.jpg"" style=""width:8cm; height:7.68cm;""><p>What type of rock is this?</p>","5","class_response","1","test","22","Pegmatite","Pegmatite","08","true","6","6","","","","","","","","","","","","","","","",""
"","","","","","","","","","","","html-keyboard-response","183","2.0.0","849645","66295cf0dbecaeeb1cddb852","3","31","null","","","","","","","","","<p style='font-size: 30px;'><strong>Okay</strong></p>","null","neutral_feedback","1","test","22","","","","","","","","","","","","","","","","","","","","","",""
"","","","","","","","","","","","html-button-response","184","2.0.0","851236","66295cf0dbecaeeb1cddb852","3","31","1589","","","","","","","","","<img src= ""rock_img/I_Basalt_09.jpg"" style=""width:8cm; height:6.2cm;""><p>What type of rock is this?</p>","1","class_response","1","test","23","Basalt","Basalt","09","true","2","2","","","","","","","","","","","","","","","",""
"","","","","","","","","","","","html-keyboard-response","185","2.0.0","851743","66295cf0dbecaeeb1cddb852","3","31","null","","","","","","","","","<p style='font-size: 30px;'><strong>Okay</strong></p>","null","neutral_feedback","1","test","23","","","","","","","","","","","","","","","","","","","","","",""
"","","","","","","","","","","","html-button-response","186","2.0.0","853336","66295cf0dbecaeeb1cddb852","3","31","1590","","","","","","","","","<img src= ""rock_img/I_Obsidian_14.jpg"" style=""width:8cm; height:7.64cm;""><p>What type of rock is this?</p>","4","class_response","1","test","24","Obsidian","Obsidian","14","true","5","5","","","","","","","","","","","","","","","",""
"","","","","","","","","","","","html-keyboard-response","187","2.0.0","853844","66295cf0dbecaeeb1cddb852","3","31","null","","","","","","","","","<p style='font-size: 30px;'><strong>Okay</strong></p>","null","neutral_feedback","1","test","24","","","","","","","","","","","","","","","","","","","","","",""
"","","","","","","","","","","","html-button-response","188","2.0.0","861486","66295cf0dbecaeeb1cddb852","3","31","7639","","","","","","","","","<img src= ""rock_img/I_Peridotite_05.jpg"" style=""width:8cm; height:7.1499999999999995cm;""><p>What type of rock is this?</p>","0","class_response","1","test","25","Andesite","Peridotite","05","false","1","7","","","","","","","","","","","","","","","",""
"","","","","","","","","","","","html-keyboard-response","189","2.0.0","861995","66295cf0dbecaeeb1cddb852","3","31","null","","","","","","","","","<p style='font-size: 30px;'><strong>Okay</strong></p>","null","neutral_feedback","1","test","25","","","","","","","","","","","","","","","","","","","","","",""
"","","","","","","","","","","","html-button-response","190","2.0.0","863719","66295cf0dbecaeeb1cddb852","3","31","1722","","","","","","","","","<img src= ""rock_img/I_Diorite_16.jpg"" style=""width:8cm; height:6.74cm;""><p>What type of rock is this?</p>","2","class_response","1","test","26","Diorite","Diorite","16","true","3","3","","","","","","","","","","","","","","","",""
"","","","","","","","","","","","html-keyboard-response","191","2.0.0","864227","66295cf0dbecaeeb1cddb852","3","31","null","","","","","","","","","<p style='font-size: 30px;'><strong>Okay</strong></p>","null","neutral_feedback","1","test","26","","","","","","","","","","","","","","","","","","","","","",""
"","","","","","","","","","","","html-button-response","192","2.0.0","865251","66295cf0dbecaeeb1cddb852","3","31","1024","","","","","","","","","<img src= ""rock_img/I_Diorite_14.jpg"" style=""width:8cm; height:5.71cm;""><p>What type of rock is this?</p>","2","class_response","1","test","27","Diorite","Diorite","14","true","3","3","","","","","","","","","","","","","","","",""
"","","","","","","","","","","","html-keyboard-response","193","2.0.0","865758","66295cf0dbecaeeb1cddb852","3","31","null","","","","","","","","","<p style='font-size: 30px;'><strong>Okay</strong></p>","null","neutral_feedback","1","test","27","","","","","","","","","","","","","","","","","","","","","",""
"","","","","","","","","","","","html-button-response","194","2.0.0","873972","66295cf0dbecaeeb1cddb852","3","31","8209","","","","","","","","","<img src= ""rock_img/I_Gabbro_05.jpg"" style=""width:8cm; height:6cm;""><p>What type of rock is this?</p>","7","class_response","1","test","28","Pumice","Gabbro","05","false","8","4","","","","","","","","","","","","","","","",""
"","","","","","","","","","","","html-keyboard-response","195","2.0.0","874481","66295cf0dbecaeeb1cddb852","3","31","null","","","","","","","","","<p style='font-size: 30px;'><strong>Okay</strong></p>","null","neutral_feedback","1","test","28","","","","","","","","","","","","","","","","","","","","","",""
"","","","","","","","","","","","html-button-response","196","2.0.0","876035","66295cf0dbecaeeb1cddb852","3","31","1552","","","","","","","","","<img src= ""rock_img/I_Obsidian_12.jpg"" style=""width:8cm; height:6.53cm;""><p>What type of rock is this?</p>","4","class_response","1","test","29","Obsidian","Obsidian","12","true","5","5","","","","","","","","","","","","","","","",""
"","","","","","","","","","","","html-keyboard-response","197","2.0.0","876543","66295cf0dbecaeeb1cddb852","3","31","null","","","","","","","","","<p style='font-size: 30px;'><strong>Okay</strong></p>","null","neutral_feedback","1","test","29","","","","","","","","","","","","","","","","","","","","","",""
"","","","","","","","","","","","html-button-response","198","2.0.0","886803","66295cf0dbecaeeb1cddb852","3","31","10257","","","","","","","","","<img src= ""rock_img/I_Pegmatite_06.jpg"" style=""width:8cm; height:5.17cm;""><p>What type of rock is this?</p>","5","class_response","1","test","30","Pegmatite","Pegmatite","06","true","6","6","","","","","","","","","","","","","","","",""
"","","","","","","","","","","","html-keyboard-response","199","2.0.0","887311","66295cf0dbecaeeb1cddb852","3","31","null","","","","","","","","","<p style='font-size: 30px;'><strong>Okay</strong></p>","null","neutral_feedback","1","test","30","","","","","","","","","","","","","","","","","","","","","",""
"","","","","","","","","","","","html-button-response","200","2.0.0","895238","66295cf0dbecaeeb1cddb852","3","31","7923","","","","","","","","","<img src= ""rock_img/I_Gabbro_01.jpg"" style=""width:8cm; height:5.21cm;""><p>What type of rock is this?</p>","0","class_response","1","test","31","Andesite","Gabbro","01","false","1","4","","","","","","","","","","","","","","","",""
"","","","","","","","","","","","html-keyboard-response","201","2.0.0","895746","66295cf0dbecaeeb1cddb852","3","31","null","","","","","","","","","<p style='font-size: 30px;'><strong>Okay</strong></p>","null","neutral_feedback","1","test","31","","","","","","","","","","","","","","","","","","","","","",""
"","","","","","","","","","","","html-button-response","202","2.0.0","908588","66295cf0dbecaeeb1cddb852","3","31","12837","","","","","","","","","<img src= ""rock_img/I_Peridotite_07.jpg"" style=""width:8cm; height:4.83cm;""><p>What type of rock is this?</p>","3","class_response","1","test","32","Gabbro","Peridotite","07","false","4","7","","","","","","","","","","","","","","","",""
"","","","","","","","","","","","html-keyboard-response","203","2.0.0","909097","66295cf0dbecaeeb1cddb852","3","31","null","","","","","","","","","<p style='font-size: 30px;'><strong>Okay</strong></p>","null","neutral_feedback","1","test","32","","","","","","","","","","","","","","","","","","","","","",""
"","","","","","","","","","","","html-button-response","204","2.0.0","910586","66295cf0dbecaeeb1cddb852","3","31","1486","","","","","","","","","<img src= ""rock_img/I_Pumice_05.jpg"" style=""width:8cm; height:7.25cm;""><p>What type of rock is this?</p>","7","class_response","1","test","33","Pumice","Pumice","05","true","8","8","","","","","","","","","","","","","","","",""
"","","","","","","","","","","","html-keyboard-response","205","2.0.0","911105","66295cf0dbecaeeb1cddb852","3","31","null","","","","","","","","","<p style='font-size: 30px;'><strong>Okay</strong></p>","null","neutral_feedback","1","test","33","","","","","","","","","","","","","","","","","","","","","",""
"","","","","","","","","","","","html-button-response","206","2.0.0","912519","66295cf0dbecaeeb1cddb852","3","31","1411","","","","","","","","","<img src= ""rock_img/I_Diorite_02.jpg"" style=""width:8cm; height:6.27cm;""><p>What type of rock is this?</p>","2","class_response","1","test","34","Diorite","Diorite","02","true","3","3","","","","","","","","","","","","","","","",""
"","","","","","","","","","","","html-keyboard-response","207","2.0.0","913021","66295cf0dbecaeeb1cddb852","3","31","null","","","","","","","","","<p style='font-size: 30px;'><strong>Okay</strong></p>","null","neutral_feedback","1","test","34","","","","","","","","","","","","","","","","","","","","","",""
"","","","","","","","","","","","html-button-response","208","2.0.0","914470","66295cf0dbecaeeb1cddb852","3","31","1446","","","","","","","","","<img src= ""rock_img/I_Pumice_16.jpg"" style=""width:8cm; height:6.79cm;""><p>What type of rock is this?</p>","7","class_response","1","test","35","Pumice","Pumice","16","true","8","8","","","","","","","","","","","","","","","",""
"","","","","","","","","","","","html-keyboard-response","209","2.0.0","914977","66295cf0dbecaeeb1cddb852","3","31","null","","","","","","","","","<p style='font-size: 30px;'><strong>Okay</strong></p>","null","neutral_feedback","1","test","35","","","","","","","","","","","","","","","","","","","","","",""
"","","","","","","","","","","","html-button-response","210","2.0.0","917436","66295cf0dbecaeeb1cddb852","3","31","2458","","","","","","","","","<img src= ""rock_img/I_Pegmatite_11.jpg"" style=""width:8cm; height:8.14cm;""><p>What type of rock is this?</p>","5","class_response","1","test","36","Pegmatite","Pegmatite","11","true","6","6","","","","","","","","","","","","","","","",""
"","","","","","","","","","","","html-keyboard-response","211","2.0.0","917944","66295cf0dbecaeeb1cddb852","3","31","null","","","","","","","","","<p style='font-size: 30px;'><strong>Okay</strong></p>","null","neutral_feedback","1","test","36","","","","","","","","","","","","","","","","","","","","","",""
"","","","","","","","","","","","html-button-response","212","2.0.0","919903","66295cf0dbecaeeb1cddb852","3","31","1956","","","","","","","","","<img src= ""rock_img/I_Pegmatite_03.jpg"" style=""width:8cm; height:5.239999999999999cm;""><p>What type of rock is this?</p>","5","class_response","1","test","37","Pegmatite","Pegmatite","03","true","6","6","","","","","","","","","","","","","","","",""
"","","","","","","","","","","","html-keyboard-response","213","2.0.0","920411","66295cf0dbecaeeb1cddb852","3","31","null","","","","","","","","","<p style='font-size: 30px;'><strong>Okay</strong></p>","null","neutral_feedback","1","test","37","","","","","","","","","","","","","","","","","","","","","",""
"","","","","","","","","","","","html-button-response","214","2.0.0","921886","66295cf0dbecaeeb1cddb852","3","31","1473","","","","","","","","","<img src= ""rock_img/I_Diorite_08.jpg"" style=""width:8cm; height:6.37cm;""><p>What type of rock is this?</p>","2","class_response","1","test","38","Diorite","Diorite","08","true","3","3","","","","","","","","","","","","","","","",""
"","","","","","","","","","","","html-keyboard-response","215","2.0.0","922391","66295cf0dbecaeeb1cddb852","3","31","null","","","","","","","","","<p style='font-size: 30px;'><strong>Okay</strong></p>","null","neutral_feedback","1","test","38","","","","","","","","","","","","","","","","","","","","","",""
"","","","","","","","","","","","html-button-response","216","2.0.0","927087","66295cf0dbecaeeb1cddb852","3","31","4694","","","","","","","","","<img src= ""rock_img/I_Gabbro_14.jpg"" style=""width:8cm; height:8.48cm;""><p>What type of rock is this?</p>","0","class_response","1","test","39","Andesite","Gabbro","14","false","1","4","","","","","","","","","","","","","","","",""
"","","","","","","","","","","","html-keyboard-response","217","2.0.0","927594","66295cf0dbecaeeb1cddb852","3","31","null","","","","","","","","","<p style='font-size: 30px;'><strong>Okay</strong></p>","null","neutral_feedback","1","test","39","","","","","","","","","","","","","","","","","","","","","",""
"","","","","","","","","","","","html-button-response","218","2.0.0","930936","66295cf0dbecaeeb1cddb852","3","31","3339","","","","","","","","","<img src= ""rock_img/I_Obsidian_05.jpg"" style=""width:8cm; height:6.33cm;""><p>What type of rock is this?</p>","4","class_response","1","test","40","Obsidian","Obsidian","05","true","5","5","","","","","","","","","","","","","","","",""
"","","","","","","","","","","","html-keyboard-response","219","2.0.0","931443","66295cf0dbecaeeb1cddb852","3","31","null","","","","","","","","","<p style='font-size: 30px;'><strong>Okay</strong></p>","null","neutral_feedback","1","test","40","","","","","","","","","","","","","","","","","","","","","",""
"","","","","","","","","","","","html-button-response","220","2.0.0","945121","66295cf0dbecaeeb1cddb852","3","31","13675","","","","","","","","","<img src= ""rock_img/I_Andesite_02.jpg"" style=""width:8cm; height:8.5cm;""><p>What type of rock is this?</p>","1","class_response","1","test","41","Basalt","Andesite","02","false","2","1","","","","","","","","","","","","","","","",""
"","","","","","","","","","","","html-keyboard-response","221","2.0.0","945629","66295cf0dbecaeeb1cddb852","3","31","null","","","","","","","","","<p style='font-size: 30px;'><strong>Okay</strong></p>","null","neutral_feedback","1","test","41","","","","","","","","","","","","","","","","","","","","","",""
"","","","","","","","","","","","html-button-response","222","2.0.0","957336","66295cf0dbecaeeb1cddb852","3","31","11706","","","","","","","","","<img src= ""rock_img/I_Andesite_05.jpg"" style=""width:8cm; height:4.12cm;""><p>What type of rock is this?</p>","3","class_response","1","test","42","Gabbro","Andesite","05","false","4","1","","","","","","","","","","","","","","","",""
"","","","","","","","","","","","html-keyboard-response","223","2.0.0","957845","66295cf0dbecaeeb1cddb852","3","31","null","","","","","","","","","<p style='font-size: 30px;'><strong>Okay</strong></p>","null","neutral_feedback","1","test","42","","","","","","","","","","","","","","","","","","","","","",""
"","","","","","","","","","","","html-button-response","224","2.0.0","960620","66295cf0dbecaeeb1cddb852","3","31","2773","","","","","","","","","<img src= ""rock_img/I_Basalt_16.jpg"" style=""width:8cm; height:7.659999999999999cm;""><p>What type of rock is this?</p>","1","class_response","1","test","43","Basalt","Basalt","16","true","2","2","","","","","","","","","","","","","","","",""
"","","","","","","","","","","","html-keyboard-response","225","2.0.0","961127","66295cf0dbecaeeb1cddb852","3","31","null","","","","","","","","","<p style='font-size: 30px;'><strong>Okay</strong></p>","null","neutral_feedback","1","test","43","","","","","","","","","","","","","","","","","","","","","",""
"","","","","","","","","","","","html-button-response","226","2.0.0","962353","66295cf0dbecaeeb1cddb852","3","31","1224","","","","","","","","","<img src= ""rock_img/I_Basalt_04.jpg"" style=""width:8cm; height:7.53cm;""><p>What type of rock is this?</p>","1","class_response","1","test","44","Basalt","Basalt","04","true","2","2","","","","","","","","","","","","","","","",""
"","","","","","","","","","","","html-keyboard-response","227","2.0.0","962861","66295cf0dbecaeeb1cddb852","3","31","null","","","","","","","","","<p style='font-size: 30px;'><strong>Okay</strong></p>","null","neutral_feedback","1","test","44","","","","","","","","","","","","","","","","","","","","","",""
"","","","","","","","","","","","html-button-response","228","2.0.0","964119","66295cf0dbecaeeb1cddb852","3","31","1257","","","","","","","","","<img src= ""rock_img/I_Obsidian_09.jpg"" style=""width:8cm; height:5cm;""><p>What type of rock is this?</p>","4","class_response","1","test","45","Obsidian","Obsidian","09","true","5","5","","","","","","","","","","","","","","","",""
"","","","","","","","","","","","html-keyboard-response","229","2.0.0","964627","66295cf0dbecaeeb1cddb852","3","31","null","","","","","","","","","<p style='font-size: 30px;'><strong>Okay</strong></p>","null","neutral_feedback","1","test","45","","","","","","","","","","","","","","","","","","","","","",""
"","","","","","","","","","","","html-button-response","230","2.0.0","966186","66295cf0dbecaeeb1cddb852","3","31","1557","","","","","","","","","<img src= ""rock_img/I_Basalt_01.jpg"" style=""width:8cm; height:7.880000000000001cm;""><p>What type of rock is this?</p>","1","class_response","1","test","46","Basalt","Basalt","01","true","2","2","","","","","","","","","","","","","","","",""
"","","","","","","","","","","","html-keyboard-response","231","2.0.0","966693","66295cf0dbecaeeb1cddb852","3","31","null","","","","","","","","","<p style='font-size: 30px;'><strong>Okay</strong></p>","null","neutral_feedback","1","test","46","","","","","","","","","","","","","","","","","","","","","",""
"","","","","","","","","","","","html-button-response","232","2.0.0","972037","66295cf0dbecaeeb1cddb852","3","31","5342","","","","","","","","","<img src= ""rock_img/I_Andesite_09.jpg"" style=""width:8cm; height:6cm;""><p>What type of rock is this?</p>","2","class_response","1","test","47","Diorite","Andesite","09","false","3","1","","","","","","","","","","","","","","","",""
"","","","","","","","","","","","html-keyboard-response","233","2.0.0","972541","66295cf0dbecaeeb1cddb852","3","31","null","","","","","","","","","<p style='font-size: 30px;'><strong>Okay</strong></p>","null","neutral_feedback","1","test","47","","","","","","","","","","","","","","","","","","","","","",""
"","","","","","","","","","","","html-button-response","234","2.0.0","974636","66295cf0dbecaeeb1cddb852","3","31","2093","","","","","","","","","<img src= ""rock_img/I_Peridotite_10.jpg"" style=""width:8cm; height:5.390000000000001cm;""><p>What type of rock is this?</p>","0","class_response","1","test","48","Andesite","Peridotite","10","false","1","7","","","","","","","","","","","","","","","",""
"","","","","","","","","","","","html-keyboard-response","235","2.0.0","975143","66295cf0dbecaeeb1cddb852","3","31","null","","","","","","","","","<p style='font-size: 30px;'><strong>Okay</strong></p>","null","neutral_feedback","1","test","48","","","","","","","","","","","","","","","","","","","","","",""
"","","","","","","","","","","","html-button-response","236","2.0.0","1009603","66295cf0dbecaeeb1cddb852","3","31","","","","","","","","","","","","cycle_feedback","","","","","","","","","","","","","","","","","","","","","","","19081","15366",""
"","","","","","","","","","","","html-button-response","238","2.0.0","1012253","66295cf0dbecaeeb1cddb852","3","31","2647","","","","","","","","","","0","start_train","","","","","","","","","","","","","","","","","","","","","","","","",""
"","","","","","","","","","","","html-button-response","240","2.0.0","1019987","66295cf0dbecaeeb1cddb852","3","31","7731","","","","","","","","","<img src= ""rock_img/I_Pegmatite_05.jpg"" style=""width:8cm; height:7.300000000000001cm;""><p>What type of rock is this?</p>","6","class_response","2","train","1","Peridotite","Pegmatite","05","false","7","6","","","","","","","","","","","","","","","",""
"","","","","","","","","","","","html-button-response","241","2.0.0","1021653","66295cf0dbecaeeb1cddb852","3","31","1662","","","","","","","","","<img src= rock_img/I_Pegmatite_05.jpg style=""width:8cm; height:7.300000000000001cm;""><p style='font-size: 30px; color: red;'><strong>Incorrect!</strong></p><p style='font-size: 30px;'><strong>This rock is pegmatite</strong></p>","0","corr_feedback","2","train","1","","","","","","","","","","","","","","","","","","","","","",""
"","","","","","","","","","","","html-button-response","242","2.0.0","1025404","66295cf0dbecaeeb1cddb852","3","31","3749","","","","","","","","","<img src= ""rock_img/I_Pumice_14.jpg"" style=""width:8cm; height:6.39cm;""><p>What type of rock is this?</p>","7","class_response","2","train","2","Pumice","Pumice","14","true","8","8","","","","","","","","","","","","","","","",""
"","","","","","","","","","","","html-button-response","243","2.0.0","1026703","66295cf0dbecaeeb1cddb852","3","31","1297","","","","","","","","","<img src= rock_img/I_Pumice_14.jpg style=""width:8cm; height:6.39cm;""><p style='font-size: 30px; color: green;'><strong>Correct!</strong></p><p style='font-size: 30px;'><strong>This rock is pumice</strong></p>","0","corr_feedback","2","train","2","","","","","","","","","","","","","","","","","","","","","",""
"","","","","","","","","","","","html-button-response","244","2.0.0","1029186","66295cf0dbecaeeb1cddb852","3","31","2481","","","","","","","","","<img src= ""rock_img/I_Basalt_11.jpg"" style=""width:8cm; height:5.359999999999999cm;""><p>What type of rock is this?</p>","7","class_response","2","train","3","Pumice","Basalt","11","false","8","2","","","","","","","","","","","","","","","",""
"","","","","","","","","","","","html-button-response","245","2.0.0","1030353","66295cf0dbecaeeb1cddb852","3","31","1164","","","","","","","","","<img src= rock_img/I_Basalt_11.jpg style=""width:8cm; height:5.359999999999999cm;""><p style='font-size: 30px; color: red;'><strong>Incorrect!</strong></p><p style='font-size: 30px;'><strong>This rock is basalt</strong></p>","0","corr_feedback","2","train","3","","","","","","","","","","","","","","","","","","","","","",""
"","","","","","","","","","","","html-button-response","246","2.0.0","1032503","66295cf0dbecaeeb1cddb852","3","31","2147","","","","","","","","","<img src= ""rock_img/I_Andesite_10.jpg"" style=""width:8cm; height:4.16cm;""><p>What type of rock is this?</p>","1","class_response","2","train","4","Basalt","Andesite","10","false","2","1","","","","","","","","","","","","","","","",""
"","","","","","","","","","","","html-button-response","247","2.0.0","1034069","66295cf0dbecaeeb1cddb852","3","31","1564","","","","","","","","","<img src= rock_img/I_Andesite_10.jpg style=""width:8cm; height:4.16cm;""><p style='font-size: 30px; color: red;'><strong>Incorrect!</strong></p><p style='font-size: 30px;'><strong>This rock is andesite</strong></p>","0","corr_feedback","2","train","4","","","","","","","","","","","","","","","","","","","","","",""
"","","","","","","","","","","","html-button-response","248","2.0.0","1035352","66295cf0dbecaeeb1cddb852","3","31","1279","","","","","","","","","<img src= ""rock_img/I_Obsidian_10.jpg"" style=""width:8cm; height:6.260000000000001cm;""><p>What type of rock is this?</p>","4","class_response","2","train","5","Obsidian","Obsidian","10","true","5","5","","","","","","","","","","","","","","","",""
"","","","","","","","","","","","html-button-response","249","2.0.0","1036669","66295cf0dbecaeeb1cddb852","3","31","1315","","","","","","","","","<img src= rock_img/I_Obsidian_10.jpg style=""width:8cm; height:6.260000000000001cm;""><p style='font-size: 30px; color: green;'><strong>Correct!</strong></p><p style='font-size: 30px;'><strong>This rock is obsidian</strong></p>","0","corr_feedback","2","train","5","","","","","","","","","","","","","","","","","","","","","",""
"","","","","","","","","","","","html-button-response","250","2.0.0","1039087","66295cf0dbecaeeb1cddb852","3","31","2415","","","","","","","","","<img src= ""rock_img/I_Gabbro_13.jpg"" style=""width:8cm; height:5.08cm;""><p>What type of rock is this?</p>","2","class_response","2","train","6","Diorite","Gabbro","13","false","3","4","","","","","","","","","","","","","","","",""
"","","","","","","","","","","","html-button-response","251","2.0.0","1040220","66295cf0dbecaeeb1cddb852","3","31","1131","","","","","","","","","<img src= rock_img/I_Gabbro_13.jpg style=""width:8cm; height:5.08cm;""><p style='font-size: 30px; color: red;'><strong>Incorrect!</strong></p><p style='font-size: 30px;'><strong>This rock is gabbro</strong></p>","0","corr_feedback","2","train","6","","","","","","","","","","","","","","","","","","","","","",""
"","","","","","","","","","","","html-button-response","252","2.0.0","1043537","66295cf0dbecaeeb1cddb852","3","31","3312","","","","","","","","","<img src= ""rock_img/I_Andesite_04.jpg"" style=""width:8cm; height:5.96cm;""><p>What type of rock is this?</p>","0","class_response","2","train","7","Andesite","Andesite","04","true","1","1","","","","","","","","","","","","","","","",""
"","","","","","","","","","","","html-button-response","253","2.0.0","1044886","66295cf0dbecaeeb1cddb852","3","31","1346","","","","","","","","","<img src= rock_img/I_Andesite_04.jpg style=""width:8cm; height:5.96cm;""><p style='font-size: 30px; color: green;'><strong>Correct!</strong></p><p style='font-size: 30px;'><strong>This rock is andesite</strong></p>","0","corr_feedback","2","train","7","","","","","","","","","","","","","","","","","","","","","",""
"","","","","","","","","","","","html-button-response","254","2.0.0","1046920","66295cf0dbecaeeb1cddb852","3","31","2031","","","","","","","","","<img src= ""rock_img/I_Diorite_15.jpg"" style=""width:8cm; height:5.54cm;""><p>What type of rock is this?</p>","2","class_response","2","train","8","Diorite","Diorite","15","true","3","3","","","","","","","","","","","","","","","",""
"","","","","","","","","","","","html-button-response","255","2.0.0","1047936","66295cf0dbecaeeb1cddb852","3","31","1015","","","","","","","","","<img src= rock_img/I_Diorite_15.jpg style=""width:8cm; height:5.54cm;""><p style='font-size: 30px; color: green;'><strong>Correct!</strong></p><p style='font-size: 30px;'><strong>This rock is diorite</strong></p>","0","corr_feedback","2","train","8","","","","","","","","","","","","","","","","","","","","","",""
"","","","","","","","","","","","html-button-response","256","2.0.0","1049437","66295cf0dbecaeeb1cddb852","3","31","1498","","","","","","","","","<img src= ""rock_img/I_Basalt_05.jpg"" style=""width:8cm; height:8.18cm;""><p>What type of rock is this?</p>","1","class_response","2","train","9","Basalt","Basalt","05","true","2","2","","","","","","","","","","","","","","","",""
"","","","","","","","","","","","html-button-response","257","2.0.0","1050437","66295cf0dbecaeeb1cddb852","3","31","997","","","","","","","","","<img src= rock_img/I_Basalt_05.jpg style=""width:8cm; height:8.18cm;""><p style='font-size: 30px; color: green;'><strong>Correct!</strong></p><p style='font-size: 30px;'><strong>This rock is basalt</strong></p>","0","corr_feedback","2","train","9","","","","","","","","","","","","","","","","","","","","","",""
"","","","","","","","","","","","html-button-response","258","2.0.0","1055688","66295cf0dbecaeeb1cddb852","3","31","5248","","","","","","","","","<img src= ""rock_img/I_Peridotite_14.jpg"" style=""width:8cm; height:5.3cm;""><p>What type of rock is this?</p>","6","class_response","2","train","10","Peridotite","Peridotite","14","true","7","7","","","","","","","","","","","","","","","",""
"","","","","","","","","","","","html-button-response","259","2.0.0","1057104","66295cf0dbecaeeb1cddb852","3","31","1414","","","","","","","","","<img src= rock_img/I_Peridotite_14.jpg style=""width:8cm; height:5.3cm;""><p style='font-size: 30px; color: green;'><strong>Correct!</strong></p><p style='font-size: 30px;'><strong>This rock is peridotite</strong></p>","0","corr_feedback","2","train","10","","","","","","","","","","","","","","","","","","","","","",""
"","","","","","","","","","","","html-button-response","260","2.0.0","1058671","66295cf0dbecaeeb1cddb852","3","31","1564","","","","","","","","","<img src= ""rock_img/I_Obsidian_07.jpg"" style=""width:8cm; height:4.76cm;""><p>What type of rock is this?</p>","4","class_response","2","train","11","Obsidian","Obsidian","07","true","5","5","","","","","","","","","","","","","","","",""
"","","","","","","","","","","","html-button-response","261","2.0.0","1059987","66295cf0dbecaeeb1cddb852","3","31","1313","","","","","","","","","<img src= rock_img/I_Obsidian_07.jpg style=""width:8cm; height:4.76cm;""><p style='font-size: 30px; color: green;'><strong>Correct!</strong></p><p style='font-size: 30px;'><strong>This rock is obsidian</strong></p>","0","corr_feedback","2","train","11","","","","","","","","","","","","","","","","","","","","","",""
"","","","","","","","","","","","html-button-response","262","2.0.0","1061521","66295cf0dbecaeeb1cddb852","3","31","1531","","","","","","","","","<img src= ""rock_img/I_Peridotite_04.jpg"" style=""width:8cm; height:6.680000000000001cm;""><p>What type of rock is this?</p>","6","class_response","2","train","12","Peridotite","Peridotite","04","true","7","7","","","","","","","","","","","","","","","",""
"","","","","","","","","","","","html-button-response","263","2.0.0","1062471","66295cf0dbecaeeb1cddb852","3","31","946","","","","","","","","","<img src= rock_img/I_Peridotite_04.jpg style=""width:8cm; height:6.680000000000001cm;""><p style='font-size: 30px; color: green;'><strong>Correct!</strong></p><p style='font-size: 30px;'><strong>This rock is peridotite</strong></p>","0","corr_feedback","2","train","12","","","","","","","","","","","","","","","","","","","","","",""
"","","","","","","","","","","","html-button-response","265","2.0.0","1070621","66295cf0dbecaeeb1cddb852","3","31","8148","","","","","","","","","","0","start_train","","","","","","","","","","","","","","","","","","","","","","","","",""
"","","","","","","","","","","","html-button-response","266","2.0.0","1074988","66295cf0dbecaeeb1cddb852","3","31","","","","","","","","","","","","cat_selection","2","train","1","","","","","","","1","4","4364","Andesite","Gabbro","[0.2522223544714714,0.07451430136362358,0.07451430136362358,0.2372792702642878,0.029685048742072777,0.11409436635305395,0.18800530869979423,0.029685048742072777]","[null,0.2344157420085123,0.39791418203522716,0.19571450614658772,0.029390349199315248,0.02209942089917338,0.028541669714642642,0.09192412999654152]","","","","","","","","",""
"","","","","","","","","","","","paired-cat-display","267","1.0.0","1155856","66295cf0dbecaeeb1cddb852","3","31","","","","","","","","","","","","paired_cat_display","2","train","1","","","","","","","","","8446","","","","","","","72417","","looks like a kitchen countertop! grey, brown, neutral","","","","looks like a jawbreaker candy, spotted and textured, can be green, cool colors"
"","","","","","","","","","","","html-button-response","268","2.0.0","1158104","66295cf0dbecaeeb1cddb852","3","31","","","","","","","","","","","","cat_selection","2","train","2","","","","","","","6","7","2245","Pegmatite","Peridotite","[0.2522223544714714,0.07451430136362358,0.07451430136362358,0.2372792702642878,0.029685048742072777,0.11409436635305395,0.18800530869979423,0.029685048742072777]","[0.025130863873099835,0.10094828945212769,0.03213328874020621,0.030663711712497117,0.028108402403122356,null,0.7622878275326022,0.02072761628634462]","","","","","","","","",""
"","","","","","","","","","","","paired-cat-display","269","1.0.0","1242307","66295cf0dbecaeeb1cddb852","3","31","","","","","","","","","","","","paired_cat_display","2","train","2","","","","","","","","","6012","","","","","pegmatite is geometric! blacks and greys and whites, little color","textured and shiny, looks dotted but in a luxe rococo way, pinks and greens whites","78186","","","","","",""
"","","","","","","","","","","","html-button-response","270","2.0.0","1244238","66295cf0dbecaeeb1cddb852","3","31","","","","","","","","","","","","cat_selection","2","train","3","","","","","","","1","3","1928","Andesite","Diorite","[0.2522223544714714,0.07451430136362358,0.07451430136362358,0.2372792702642878,0.029685048742072777,0.11409436635305395,0.18800530869979423,0.029685048742072777]","[null,0.2344157420085123,0.39791418203522716,0.19571450614658772,0.029390349199315248,0.02209942089917338,0.028541669714642642,0.09192412999654152]","","","","","","","","",""
"","","","","","","","","","","","paired-cat-display","271","1.0.0","1307587","66295cf0dbecaeeb1cddb852","3","31","","","","","","","","","","","","paired_cat_display","2","train","3","","","","","","","","","9930","","","","","","","53418","","","diorite could be a dalmatian! Dotted dots, dotty.","","","andesite looks like fake cement! grey green"
"","","","","","","","","","","","html-button-response","273","2.0.0","1309869","66295cf0dbecaeeb1cddb852","3","31","2280","","","","","","","","","","0","start_test","","","","","","","","","","","","","","","","","","","","","","","","",""
"","","","","","","","","","","","html-button-response","274","2.0.0","1312785","66295cf0dbecaeeb1cddb852","3","31","2913","","","","","","","","","<img src= ""rock_img/I_Pegmatite_03.jpg"" style=""width:8cm; height:5.239999999999999cm;""><p>What type of rock is this?</p>","5","class_response","2","test","1","Pegmatite","Pegmatite","03","true","6","6","","","","","","","","","","","","","","","",""
"","","","","","","","","","","","html-keyboard-response","275","2.0.0","1313289","66295cf0dbecaeeb1cddb852","3","31","null","","","","","","","","","<p style='font-size: 30px;'><strong>Okay</strong></p>","null","neutral_feedback","2","test","1","","","","","","","","","","","","","","","","","","","","","",""
"","","","","","","","","","","","html-button-response","276","2.0.0","1319018","66295cf0dbecaeeb1cddb852","3","31","5726","","","","","","","","","<img src= ""rock_img/I_Andesite_11.jpg"" style=""width:8cm; height:4.92cm;""><p>What type of rock is this?</p>","0","class_response","2","test","2","Andesite","Andesite","11","true","1","1","","","","","","","","","","","","","","","",""
"","","","","","","","","","","","html-keyboard-response","277","2.0.0","1319525","66295cf0dbecaeeb1cddb852","3","31","null","","","","","","","","","<p style='font-size: 30px;'><strong>Okay</strong></p>","null","neutral_feedback","2","test","2","","","","","","","","","","","","","","","","","","","","","",""
