"width","height","webaudio","browser","browser_version","mobile","os","fullscreen","vsync_rate","webcam","microphone","trial_type","trial_index","plugin_version","time_elapsed","subjID","condition","stimID","rt","url","success","value","timeout","failed_images","failed_audio","failed_video","view_history","stimulus","response","trialType","cycle","phase","trial","resp","cat","token","corr","resp_num","cat_num","ref_cat_num","paired_cat_num","time_obs","ref_cat","paired_cat","ref_prob_dist","paired_prob_dist","text_Basalt","text_Pumice","time_resp","text_Diorite","text_Pegmatite","text_Gabbro","time_fb1","time_fb2","text_Andesite"
"1783","844","true","chrome","130.0.0","false","Windows 10","true","60.32","true","true","browser-check","0","2.0.0","1026","5ba1beaecc5dd00001673e39","3","23","","","","","","","","","","","","","","","","","","","","","","","","","","","","","","","","","","","","",""
"","","","","","","","","","","","external-html","1","2.0.0","42857","5ba1beaecc5dd00001673e39","3","23","41729","consent_form.html","","","","","","","","","","","","","","","","","","","","","","","","","","","","","","","","","","",""
"","","","","","","","","","","","fullscreen","2","2.0.0","46823","5ba1beaecc5dd00001673e39","3","23","2948","","true","","","","","","","","","","","","","","","","","","","","","","","","","","","","","","","","","",""
"","","","","","","","","","","","call-function","3","2.0.0","46825","5ba1beaecc5dd00001673e39","3","23","","","","{}","","","","","","","","","","","","","","","","","","","","","","","","","","","","","","","","",""
"","","","","","","","","","","","preload","4","2.0.0","51410","5ba1beaecc5dd00001673e39","3","23","","","true","","false","[]","[]","[]","","","","","","","","","","","","","","","","","","","","","","","","","","","","",""
"","","","","","","","","","","","instructions","5","2.0.0","89137","5ba1beaecc5dd00001673e39","3","23","37724","","","","","","","","[{""page_index"":0,""viewing_time"":13394},{""page_index"":1,""viewing_time"":14343},{""page_index"":2,""viewing_time"":9987}]","","","","","","","","","","","","","","","","","","","","","","","","","","","",""
"","","","","","","","","","","","html-button-response","6","2.0.0","92694","5ba1beaecc5dd00001673e39","3","23","3554","","","","","","","","","","0","start_test","","","","","","","","","","","","","","","","","","","","","","","","",""
"","","","","","","","","","","","html-button-response","7","2.0.0","102612","5ba1beaecc5dd00001673e39","3","23","9914","","","","","","","","","<img src= ""rock_img/I_Diorite_16.jpg"" style=""width:8cm; height:6.74cm;""><p>What type of rock is this?</p>","2","class_response","0","test","1","Diorite","Diorite","16","true","3","3","","","","","","","","","","","","","","","",""
"","","","","","","","","","","","html-keyboard-response","8","2.0.0","103120","5ba1beaecc5dd00001673e39","3","23","null","","","","","","","","","<p style='font-size: 30px;'><strong>Okay</strong></p>","null","neutral_feedback","0","test","1","","","","","","","","","","","","","","","","","","","","","",""
"","","","","","","","","","","","html-button-response","9","2.0.0","119387","5ba1beaecc5dd00001673e39","3","23","16264","","","","","","","","","<img src= ""rock_img/I_Basalt_02.jpg"" style=""width:8cm; height:6.45cm;""><p>What type of rock is this?</p>","7","class_response","0","test","2","Pumice","Basalt","02","false","8","2","","","","","","","","","","","","","","","",""
"","","","","","","","","","","","html-keyboard-response","10","2.0.0","119893","5ba1beaecc5dd00001673e39","3","23","null","","","","","","","","","<p style='font-size: 30px;'><strong>Okay</strong></p>","null","neutral_feedback","0","test","2","","","","","","","","","","","","","","","","","","","","","",""
"","","","","","","","","","","","html-button-response","11","2.0.0","125855","5ba1beaecc5dd00001673e39","3","23","5958","","","","","","","","","<img src= ""rock_img/I_Obsidian_07.jpg"" style=""width:8cm; height:4.76cm;""><p>What type of rock is this?</p>","6","class_response","0","test","3","Peridotite","Obsidian","07","false","7","5","","","","","","","","","","","","","","","",""
"","","","","","","","","","","","html-keyboard-response","12","2.0.0","126372","5ba1beaecc5dd00001673e39","3","23","null","","","","","","","","","<p style='font-size: 30px;'><strong>Okay</strong></p>","null","neutral_feedback","0","test","3","","","","","","","","","","","","","","","","","","","","","",""
"","","","","","","","","","","","html-button-response","13","2.0.0","130876","5ba1beaecc5dd00001673e39","3","23","4501","","","","","","","","","<img src= ""rock_img/I_Diorite_12.jpg"" style=""width:8cm; height:4.88cm;""><p>What type of rock is this?</p>","0","class_response","0","test","4","Andesite","Diorite","12","false","1","3","","","","","","","","","","","","","","","",""
"","","","","","","","","","","","html-keyboard-response","14","2.0.0","131392","5ba1beaecc5dd00001673e39","3","23","null","","","","","","","","","<p style='font-size: 30px;'><strong>Okay</strong></p>","null","neutral_feedback","0","test","4","","","","","","","","","","","","","","","","","","","","","",""
"","","","","","","","","","","","html-button-response","15","2.0.0","133850","5ba1beaecc5dd00001673e39","3","23","2455","","","","","","","","","<img src= ""rock_img/I_Pumice_09.jpg"" style=""width:8cm; height:6.44cm;""><p>What type of rock is this?</p>","7","class_response","0","test","5","Pumice","Pumice","09","true","8","8","","","","","","","","","","","","","","","",""
"","","","","","","","","","","","html-keyboard-response","16","2.0.0","134356","5ba1beaecc5dd00001673e39","3","23","null","","","","","","","","","<p style='font-size: 30px;'><strong>Okay</strong></p>","null","neutral_feedback","0","test","5","","","","","","","","","","","","","","","","","","","","","",""
"","","","","","","","","","","","html-button-response","17","2.0.0","136958","5ba1beaecc5dd00001673e39","3","23","2599","","","","","","","","","<img src= ""rock_img/I_Basalt_05.jpg"" style=""width:8cm; height:8.18cm;""><p>What type of rock is this?</p>","4","class_response","0","test","6","Obsidian","Basalt","05","false","5","2","","","","","","","","","","","","","","","",""
"","","","","","","","","","","","html-keyboard-response","18","2.0.0","137462","5ba1beaecc5dd00001673e39","3","23","null","","","","","","","","","<p style='font-size: 30px;'><strong>Okay</strong></p>","null","neutral_feedback","0","test","6","","","","","","","","","","","","","","","","","","","","","",""
"","","","","","","","","","","","html-button-response","19","2.0.0","141896","5ba1beaecc5dd00001673e39","3","23","4430","","","","","","","","","<img src= ""rock_img/I_Andesite_03.jpg"" style=""width:8cm; height:5.73cm;""><p>What type of rock is this?</p>","3","class_response","0","test","7","Gabbro","Andesite","03","false","4","1","","","","","","","","","","","","","","","",""
"","","","","","","","","","","","html-keyboard-response","20","2.0.0","142406","5ba1beaecc5dd00001673e39","3","23","null","","","","","","","","","<p style='font-size: 30px;'><strong>Okay</strong></p>","null","neutral_feedback","0","test","7","","","","","","","","","","","","","","","","","","","","","",""
"","","","","","","","","","","","html-button-response","21","2.0.0","146168","5ba1beaecc5dd00001673e39","3","23","3759","","","","","","","","","<img src= ""rock_img/I_Pegmatite_09.jpg"" style=""width:8cm; height:4.03cm;""><p>What type of rock is this?</p>","6","class_response","0","test","8","Peridotite","Pegmatite","09","false","7","6","","","","","","","","","","","","","","","",""
"","","","","","","","","","","","html-keyboard-response","22","2.0.0","146676","5ba1beaecc5dd00001673e39","3","23","null","","","","","","","","","<p style='font-size: 30px;'><strong>Okay</strong></p>","null","neutral_feedback","0","test","8","","","","","","","","","","","","","","","","","","","","","",""
"","","","","","","","","","","","html-button-response","23","2.0.0","150311","5ba1beaecc5dd00001673e39","3","23","3632","","","","","","","","","<img src= ""rock_img/I_Pumice_16.jpg"" style=""width:8cm; height:6.79cm;""><p>What type of rock is this?</p>","7","class_response","0","test","9","Pumice","Pumice","16","true","8","8","","","","","","","","","","","","","","","",""
"","","","","","","","","","","","html-keyboard-response","24","2.0.0","150815","5ba1beaecc5dd00001673e39","3","23","null","","","","","","","","","<p style='font-size: 30px;'><strong>Okay</strong></p>","null","neutral_feedback","0","test","9","","","","","","","","","","","","","","","","","","","","","",""
"","","","","","","","","","","","html-button-response","25","2.0.0","154696","5ba1beaecc5dd00001673e39","3","23","3879","","","","","","","","","<img src= ""rock_img/I_Andesite_06.jpg"" style=""width:8cm; height:6.840000000000001cm;""><p>What type of rock is this?</p>","1","class_response","0","test","10","Basalt","Andesite","06","false","2","1","","","","","","","","","","","","","","","",""
"","","","","","","","","","","","html-keyboard-response","26","2.0.0","155208","5ba1beaecc5dd00001673e39","3","23","null","","","","","","","","","<p style='font-size: 30px;'><strong>Okay</strong></p>","null","neutral_feedback","0","test","10","","","","","","","","","","","","","","","","","","","","","",""
"","","","","","","","","","","","html-button-response","27","2.0.0","162396","5ba1beaecc5dd00001673e39","3","23","7185","","","","","","","","","<img src= ""rock_img/I_Gabbro_10.jpg"" style=""width:8cm; height:5.680000000000001cm;""><p>What type of rock is this?</p>","1","class_response","0","test","11","Basalt","Gabbro","10","false","2","4","","","","","","","","","","","","","","","",""
"","","","","","","","","","","","html-keyboard-response","28","2.0.0","162902","5ba1beaecc5dd00001673e39","3","23","null","","","","","","","","","<p style='font-size: 30px;'><strong>Okay</strong></p>","null","neutral_feedback","0","test","11","","","","","","","","","","","","","","","","","","","","","",""
"","","","","","","","","","","","html-button-response","29","2.0.0","170483","5ba1beaecc5dd00001673e39","3","23","7578","","","","","","","","","<img src= ""rock_img/I_Pumice_08.jpg"" style=""width:8cm; height:6.67cm;""><p>What type of rock is this?</p>","3","class_response","0","test","12","Gabbro","Pumice","08","false","4","8","","","","","","","","","","","","","","","",""
"","","","","","","","","","","","html-keyboard-response","30","2.0.0","170990","5ba1beaecc5dd00001673e39","3","23","null","","","","","","","","","<p style='font-size: 30px;'><strong>Okay</strong></p>","null","neutral_feedback","0","test","12","","","","","","","","","","","","","","","","","","","","","",""
"","","","","","","","","","","","html-button-response","31","2.0.0","174247","5ba1beaecc5dd00001673e39","3","23","3254","","","","","","","","","<img src= ""rock_img/I_Pegmatite_16.jpg"" style=""width:8cm; height:5.8cm;""><p>What type of rock is this?</p>","2","class_response","0","test","13","Diorite","Pegmatite","16","false","3","6","","","","","","","","","","","","","","","",""
"","","","","","","","","","","","html-keyboard-response","32","2.0.0","174751","5ba1beaecc5dd00001673e39","3","23","null","","","","","","","","","<p style='font-size: 30px;'><strong>Okay</strong></p>","null","neutral_feedback","0","test","13","","","","","","","","","","","","","","","","","","","","","",""
"","","","","","","","","","","","html-button-response","33","2.0.0","179498","5ba1beaecc5dd00001673e39","3","23","4744","","","","","","","","","<img src= ""rock_img/I_Peridotite_16.jpg"" style=""width:8cm; height:6.989999999999999cm;""><p>What type of rock is this?</p>","6","class_response","0","test","14","Peridotite","Peridotite","16","true","7","7","","","","","","","","","","","","","","","",""
"","","","","","","","","","","","html-keyboard-response","34","2.0.0","180000","5ba1beaecc5dd00001673e39","3","23","null","","","","","","","","","<p style='font-size: 30px;'><strong>Okay</strong></p>","null","neutral_feedback","0","test","14","","","","","","","","","","","","","","","","","","","","","",""
"","","","","","","","","","","","html-button-response","35","2.0.0","184878","5ba1beaecc5dd00001673e39","3","23","4875","","","","","","","","","<img src= ""rock_img/I_Gabbro_03.jpg"" style=""width:8cm; height:8.52cm;""><p>What type of rock is this?</p>","0","class_response","0","test","15","Andesite","Gabbro","03","false","1","4","","","","","","","","","","","","","","","",""
"","","","","","","","","","","","html-keyboard-response","36","2.0.0","185392","5ba1beaecc5dd00001673e39","3","23","null","","","","","","","","","<p style='font-size: 30px;'><strong>Okay</strong></p>","null","neutral_feedback","0","test","15","","","","","","","","","","","","","","","","","","","","","",""
"","","","","","","","","","","","html-button-response","37","2.0.0","187053","5ba1beaecc5dd00001673e39","3","23","1659","","","","","","","","","<img src= ""rock_img/I_Obsidian_12.jpg"" style=""width:8cm; height:6.53cm;""><p>What type of rock is this?</p>","4","class_response","0","test","16","Obsidian","Obsidian","12","true","5","5","","","","","","","","","","","","","","","",""
"","","","","","","","","","","","html-keyboard-response","38","2.0.0","187555","5ba1beaecc5dd00001673e39","3","23","null","","","","","","","","","<p style='font-size: 30px;'><strong>Okay</strong></p>","null","neutral_feedback","0","test","16","","","","","","","","","","","","","","","","","","","","","",""
"","","","","","","","","","","","html-button-response","39","2.0.0","192927","5ba1beaecc5dd00001673e39","3","23","5370","","","","","","","","","<img src= ""rock_img/I_Pumice_03.jpg"" style=""width:8cm; height:6.64cm;""><p>What type of rock is this?</p>","1","class_response","0","test","17","Basalt","Pumice","03","false","2","8","","","","","","","","","","","","","","","",""
"","","","","","","","","","","","html-keyboard-response","40","2.0.0","193440","5ba1beaecc5dd00001673e39","3","23","null","","","","","","","","","<p style='font-size: 30px;'><strong>Okay</strong></p>","null","neutral_feedback","0","test","17","","","","","","","","","","","","","","","","","","","","","",""
"","","","","","","","","","","","html-button-response","41","2.0.0","195848","5ba1beaecc5dd00001673e39","3","23","2405","","","","","","","","","<img src= ""rock_img/I_Peridotite_05.jpg"" style=""width:8cm; height:7.1499999999999995cm;""><p>What type of rock is this?</p>","6","class_response","0","test","18","Peridotite","Peridotite","05","true","7","7","","","","","","","","","","","","","","","",""
"","","","","","","","","","","","html-keyboard-response","42","2.0.0","196355","5ba1beaecc5dd00001673e39","3","23","null","","","","","","","","","<p style='font-size: 30px;'><strong>Okay</strong></p>","null","neutral_feedback","0","test","18","","","","","","","","","","","","","","","","","","","","","",""
"","","","","","","","","","","","html-button-response","43","2.0.0","202330","5ba1beaecc5dd00001673e39","3","23","5972","","","","","","","","","<img src= ""rock_img/I_Gabbro_11.jpg"" style=""width:8cm; height:6.2cm;""><p>What type of rock is this?</p>","3","class_response","0","test","19","Gabbro","Gabbro","11","true","4","4","","","","","","","","","","","","","","","",""
"","","","","","","","","","","","html-keyboard-response","44","2.0.0","202833","5ba1beaecc5dd00001673e39","3","23","null","","","","","","","","","<p style='font-size: 30px;'><strong>Okay</strong></p>","null","neutral_feedback","0","test","19","","","","","","","","","","","","","","","","","","","","","",""
"","","","","","","","","","","","html-button-response","45","2.0.0","208030","5ba1beaecc5dd00001673e39","3","23","5194","","","","","","","","","<img src= ""rock_img/I_Obsidian_08.jpg"" style=""width:8cm; height:7.39cm;""><p>What type of rock is this?</p>","4","class_response","0","test","20","Obsidian","Obsidian","08","true","5","5","","","","","","","","","","","","","","","",""
"","","","","","","","","","","","html-keyboard-response","46","2.0.0","208539","5ba1beaecc5dd00001673e39","3","23","null","","","","","","","","","<p style='font-size: 30px;'><strong>Okay</strong></p>","null","neutral_feedback","0","test","20","","","","","","","","","","","","","","","","","","","","","",""
"","","","","","","","","","","","html-button-response","47","2.0.0","212754","5ba1beaecc5dd00001673e39","3","23","4213","","","","","","","","","<img src= ""rock_img/I_Andesite_02.jpg"" style=""width:8cm; height:8.5cm;""><p>What type of rock is this?</p>","0","class_response","0","test","21","Andesite","Andesite","02","true","1","1","","","","","","","","","","","","","","","",""
"","","","","","","","","","","","html-keyboard-response","48","2.0.0","213268","5ba1beaecc5dd00001673e39","3","23","null","","","","","","","","","<p style='font-size: 30px;'><strong>Okay</strong></p>","null","neutral_feedback","0","test","21","","","","","","","","","","","","","","","","","","","","","",""
"","","","","","","","","","","","html-button-response","49","2.0.0","221735","5ba1beaecc5dd00001673e39","3","23","8465","","","","","","","","","<img src= ""rock_img/I_Basalt_12.jpg"" style=""width:8cm; height:6.010000000000001cm;""><p>What type of rock is this?</p>","1","class_response","0","test","22","Basalt","Basalt","12","true","2","2","","","","","","","","","","","","","","","",""
"","","","","","","","","","","","html-keyboard-response","50","2.0.0","222248","5ba1beaecc5dd00001673e39","3","23","null","","","","","","","","","<p style='font-size: 30px;'><strong>Okay</strong></p>","null","neutral_feedback","0","test","22","","","","","","","","","","","","","","","","","","","","","",""
"","","","","","","","","","","","html-button-response","51","2.0.0","224365","5ba1beaecc5dd00001673e39","3","23","2114","","","","","","","","","<img src= ""rock_img/I_Peridotite_06.jpg"" style=""width:8cm; height:7.53cm;""><p>What type of rock is this?</p>","6","class_response","0","test","23","Peridotite","Peridotite","06","true","7","7","","","","","","","","","","","","","","","",""
"","","","","","","","","","","","html-keyboard-response","52","2.0.0","224867","5ba1beaecc5dd00001673e39","3","23","null","","","","","","","","","<p style='font-size: 30px;'><strong>Okay</strong></p>","null","neutral_feedback","0","test","23","","","","","","","","","","","","","","","","","","","","","",""
"","","","","","","","","","","","html-button-response","53","2.0.0","226732","5ba1beaecc5dd00001673e39","3","23","1862","","","","","","","","","<img src= ""rock_img/I_Pegmatite_06.jpg"" style=""width:8cm; height:5.17cm;""><p>What type of rock is this?</p>","5","class_response","0","test","24","Pegmatite","Pegmatite","06","true","6","6","","","","","","","","","","","","","","","",""
"","","","","","","","","","","","html-keyboard-response","54","2.0.0","227236","5ba1beaecc5dd00001673e39","3","23","null","","","","","","","","","<p style='font-size: 30px;'><strong>Okay</strong></p>","null","neutral_feedback","0","test","24","","","","","","","","","","","","","","","","","","","","","",""
"","","","","","","","","","","","html-button-response","55","2.0.0","230109","5ba1beaecc5dd00001673e39","3","23","2870","","","","","","","","","<img src= ""rock_img/I_Andesite_14.jpg"" style=""width:8cm; height:5.449999999999999cm;""><p>What type of rock is this?</p>","0","class_response","0","test","25","Andesite","Andesite","14","true","1","1","","","","","","","","","","","","","","","",""
"","","","","","","","","","","","html-keyboard-response","56","2.0.0","230617","5ba1beaecc5dd00001673e39","3","23","null","","","","","","","","","<p style='font-size: 30px;'><strong>Okay</strong></p>","null","neutral_feedback","0","test","25","","","","","","","","","","","","","","","","","","","","","",""
"","","","","","","","","","","","html-button-response","57","2.0.0","232355","5ba1beaecc5dd00001673e39","3","23","1735","","","","","","","","","<img src= ""rock_img/I_Basalt_10.jpg"" style=""width:8cm; height:5.85cm;""><p>What type of rock is this?</p>","4","class_response","0","test","26","Obsidian","Basalt","10","false","5","2","","","","","","","","","","","","","","","",""
"","","","","","","","","","","","html-keyboard-response","58","2.0.0","232860","5ba1beaecc5dd00001673e39","3","23","null","","","","","","","","","<p style='font-size: 30px;'><strong>Okay</strong></p>","null","neutral_feedback","0","test","26","","","","","","","","","","","","","","","","","","","","","",""
"","","","","","","","","","","","html-button-response","59","2.0.0","240127","5ba1beaecc5dd00001673e39","3","23","7265","","","","","","","","","<img src= ""rock_img/I_Pegmatite_08.jpg"" style=""width:8cm; height:7.68cm;""><p>What type of rock is this?</p>","2","class_response","0","test","27","Diorite","Pegmatite","08","false","3","6","","","","","","","","","","","","","","","",""
"","","","","","","","","","","","html-keyboard-response","60","2.0.0","240630","5ba1beaecc5dd00001673e39","3","23","null","","","","","","","","","<p style='font-size: 30px;'><strong>Okay</strong></p>","null","neutral_feedback","0","test","27","","","","","","","","","","","","","","","","","","","","","",""
"","","","","","","","","","","","html-button-response","61","2.0.0","244293","5ba1beaecc5dd00001673e39","3","23","3660","","","","","","","","","<img src= ""rock_img/I_Peridotite_07.jpg"" style=""width:8cm; height:4.83cm;""><p>What type of rock is this?</p>","1","class_response","0","test","28","Basalt","Peridotite","07","false","2","7","","","","","","","","","","","","","","","",""
"","","","","","","","","","","","html-keyboard-response","62","2.0.0","244796","5ba1beaecc5dd00001673e39","3","23","null","","","","","","","","","<p style='font-size: 30px;'><strong>Okay</strong></p>","null","neutral_feedback","0","test","28","","","","","","","","","","","","","","","","","","","","","",""
"","","","","","","","","","","","html-button-response","63","2.0.0","248295","5ba1beaecc5dd00001673e39","3","23","3495","","","","","","","","","<img src= ""rock_img/I_Gabbro_13.jpg"" style=""width:8cm; height:5.08cm;""><p>What type of rock is this?</p>","3","class_response","0","test","29","Gabbro","Gabbro","13","true","4","4","","","","","","","","","","","","","","","",""
"","","","","","","","","","","","html-keyboard-response","64","2.0.0","248797","5ba1beaecc5dd00001673e39","3","23","null","","","","","","","","","<p style='font-size: 30px;'><strong>Okay</strong></p>","null","neutral_feedback","0","test","29","","","","","","","","","","","","","","","","","","","","","",""
"","","","","","","","","","","","html-button-response","65","2.0.0","250880","5ba1beaecc5dd00001673e39","3","23","2081","","","","","","","","","<img src= ""rock_img/I_Diorite_07.jpg"" style=""width:8cm; height:5.239999999999999cm;""><p>What type of rock is this?</p>","0","class_response","0","test","30","Andesite","Diorite","07","false","1","3","","","","","","","","","","","","","","","",""
"","","","","","","","","","","","html-keyboard-response","66","2.0.0","251383","5ba1beaecc5dd00001673e39","3","23","null","","","","","","","","","<p style='font-size: 30px;'><strong>Okay</strong></p>","null","neutral_feedback","0","test","30","","","","","","","","","","","","","","","","","","","","","",""
"","","","","","","","","","","","html-button-response","67","2.0.0","255339","5ba1beaecc5dd00001673e39","3","23","3954","","","","","","","","","<img src= ""rock_img/I_Gabbro_08.jpg"" style=""width:8cm; height:5.15cm;""><p>What type of rock is this?</p>","1","class_response","0","test","31","Basalt","Gabbro","08","false","2","4","","","","","","","","","","","","","","","",""
"","","","","","","","","","","","html-keyboard-response","68","2.0.0","255851","5ba1beaecc5dd00001673e39","3","23","null","","","","","","","","","<p style='font-size: 30px;'><strong>Okay</strong></p>","null","neutral_feedback","0","test","31","","","","","","","","","","","","","","","","","","","","","",""
"","","","","","","","","","","","html-button-response","69","2.0.0","257803","5ba1beaecc5dd00001673e39","3","23","1949","","","","","","","","","<img src= ""rock_img/I_Peridotite_04.jpg"" style=""width:8cm; height:6.680000000000001cm;""><p>What type of rock is this?</p>","6","class_response","0","test","32","Peridotite","Peridotite","04","true","7","7","","","","","","","","","","","","","","","",""
"","","","","","","","","","","","html-keyboard-response","70","2.0.0","258310","5ba1beaecc5dd00001673e39","3","23","null","","","","","","","","","<p style='font-size: 30px;'><strong>Okay</strong></p>","null","neutral_feedback","0","test","32","","","","","","","","","","","","","","","","","","","","","",""
"","","","","","","","","","","","html-button-response","71","2.0.0","260865","5ba1beaecc5dd00001673e39","3","23","2551","","","","","","","","","<img src= ""rock_img/I_Diorite_10.jpg"" style=""width:8cm; height:5.949999999999999cm;""><p>What type of rock is this?</p>","5","class_response","0","test","33","Pegmatite","Diorite","10","false","6","3","","","","","","","","","","","","","","","",""
"","","","","","","","","","","","html-keyboard-response","72","2.0.0","261367","5ba1beaecc5dd00001673e39","3","23","null","","","","","","","","","<p style='font-size: 30px;'><strong>Okay</strong></p>","null","neutral_feedback","0","test","33","","","","","","","","","","","","","","","","","","","","","",""
"","","","","","","","","","","","html-button-response","73","2.0.0","263247","5ba1beaecc5dd00001673e39","3","23","1877","","","","","","","","","<img src= ""rock_img/I_Diorite_06.jpg"" style=""width:8cm; height:6.03cm;""><p>What type of rock is this?</p>","2","class_response","0","test","34","Diorite","Diorite","06","true","3","3","","","","","","","","","","","","","","","",""
"","","","","","","","","","","","html-keyboard-response","74","2.0.0","263750","5ba1beaecc5dd00001673e39","3","23","null","","","","","","","","","<p style='font-size: 30px;'><strong>Okay</strong></p>","null","neutral_feedback","0","test","34","","","","","","","","","","","","","","","","","","","","","",""
"","","","","","","","","","","","html-button-response","75","2.0.0","270251","5ba1beaecc5dd00001673e39","3","23","6498","","","","","","","","","<img src= ""rock_img/I_Gabbro_15.jpg"" style=""width:8cm; height:6.29cm;""><p>What type of rock is this?</p>","3","class_response","0","test","35","Gabbro","Gabbro","15","true","4","4","","","","","","","","","","","","","","","",""
"","","","","","","","","","","","html-keyboard-response","76","2.0.0","270754","5ba1beaecc5dd00001673e39","3","23","null","","","","","","","","","<p style='font-size: 30px;'><strong>Okay</strong></p>","null","neutral_feedback","0","test","35","","","","","","","","","","","","","","","","","","","","","",""
"","","","","","","","","","","","html-button-response","77","2.0.0","272150","5ba1beaecc5dd00001673e39","3","23","1393","","","","","","","","","<img src= ""rock_img/I_Pegmatite_07.jpg"" style=""width:8cm; height:6.7cm;""><p>What type of rock is this?</p>","6","class_response","0","test","36","Peridotite","Pegmatite","07","false","7","6","","","","","","","","","","","","","","","",""
"","","","","","","","","","","","html-keyboard-response","78","2.0.0","272662","5ba1beaecc5dd00001673e39","3","23","null","","","","","","","","","<p style='font-size: 30px;'><strong>Okay</strong></p>","null","neutral_feedback","0","test","36","","","","","","","","","","","","","","","","","","","","","",""
"","","","","","","","","","","","html-button-response","79","2.0.0","276959","5ba1beaecc5dd00001673e39","3","23","4293","","","","","","","","","<img src= ""rock_img/I_Andesite_05.jpg"" style=""width:8cm; height:4.12cm;""><p>What type of rock is this?</p>","3","class_response","0","test","37","Gabbro","Andesite","05","false","4","1","","","","","","","","","","","","","","","",""
"","","","","","","","","","","","html-keyboard-response","80","2.0.0","277464","5ba1beaecc5dd00001673e39","3","23","null","","","","","","","","","<p style='font-size: 30px;'><strong>Okay</strong></p>","null","neutral_feedback","0","test","37","","","","","","","","","","","","","","","","","","","","","",""
"","","","","","","","","","","","html-button-response","81","2.0.0","280376","5ba1beaecc5dd00001673e39","3","23","2905","","","","","","","","","<img src= ""rock_img/I_Pumice_13.jpg"" style=""width:8cm; height:8.200000000000001cm;""><p>What type of rock is this?</p>","1","class_response","0","test","38","Basalt","Pumice","13","false","2","8","","","","","","","","","","","","","","","",""
"","","","","","","","","","","","html-keyboard-response","82","2.0.0","280886","5ba1beaecc5dd00001673e39","3","23","null","","","","","","","","","<p style='font-size: 30px;'><strong>Okay</strong></p>","null","neutral_feedback","0","test","38","","","","","","","","","","","","","","","","","","","","","",""
"","","","","","","","","","","","html-button-response","83","2.0.0","282302","5ba1beaecc5dd00001673e39","3","23","1412","","","","","","","","","<img src= ""rock_img/I_Obsidian_02.jpg"" style=""width:8cm; height:7.51cm;""><p>What type of rock is this?</p>","4","class_response","0","test","39","Obsidian","Obsidian","02","true","5","5","","","","","","","","","","","","","","","",""
"","","","","","","","","","","","html-keyboard-response","84","2.0.0","282804","5ba1beaecc5dd00001673e39","3","23","null","","","","","","","","","<p style='font-size: 30px;'><strong>Okay</strong></p>","null","neutral_feedback","0","test","39","","","","","","","","","","","","","","","","","","","","","",""
"","","","","","","","","","","","html-button-response","85","2.0.0","285259","5ba1beaecc5dd00001673e39","3","23","2451","","","","","","","","","<img src= ""rock_img/I_Pegmatite_13.jpg"" style=""width:8cm; height:4.95cm;""><p>What type of rock is this?</p>","2","class_response","0","test","40","Diorite","Pegmatite","13","false","3","6","","","","","","","","","","","","","","","",""
"","","","","","","","","","","","html-keyboard-response","86","2.0.0","285769","5ba1beaecc5dd00001673e39","3","23","null","","","","","","","","","<p style='font-size: 30px;'><strong>Okay</strong></p>","null","neutral_feedback","0","test","40","","","","","","","","","","","","","","","","","","","","","",""
"","","","","","","","","","","","html-button-response","87","2.0.0","287923","5ba1beaecc5dd00001673e39","3","23","2150","","","","","","","","","<img src= ""rock_img/I_Basalt_16.jpg"" style=""width:8cm; height:7.659999999999999cm;""><p>What type of rock is this?</p>","7","class_response","0","test","41","Pumice","Basalt","16","false","8","2","","","","","","","","","","","","","","","",""
"","","","","","","","","","","","html-keyboard-response","88","2.0.0","288433","5ba1beaecc5dd00001673e39","3","23","null","","","","","","","","","<p style='font-size: 30px;'><strong>Okay</strong></p>","null","neutral_feedback","0","test","41","","","","","","","","","","","","","","","","","","","","","",""
"","","","","","","","","","","","html-button-response","89","2.0.0","290460","5ba1beaecc5dd00001673e39","3","23","2023","","","","","","","","","<img src= ""rock_img/I_Peridotite_12.jpg"" style=""width:8cm; height:4.54cm;""><p>What type of rock is this?</p>","6","class_response","0","test","42","Peridotite","Peridotite","12","true","7","7","","","","","","","","","","","","","","","",""
"","","","","","","","","","","","html-keyboard-response","90","2.0.0","290969","5ba1beaecc5dd00001673e39","3","23","null","","","","","","","","","<p style='font-size: 30px;'><strong>Okay</strong></p>","null","neutral_feedback","0","test","42","","","","","","","","","","","","","","","","","","","","","",""
"","","","","","","","","","","","html-button-response","91","2.0.0","293242","5ba1beaecc5dd00001673e39","3","23","2271","","","","","","","","","<img src= ""rock_img/I_Pumice_10.jpg"" style=""width:8cm; height:7.609999999999999cm;""><p>What type of rock is this?</p>","1","class_response","0","test","43","Basalt","Pumice","10","false","2","8","","","","","","","","","","","","","","","",""
"","","","","","","","","","","","html-keyboard-response","92","2.0.0","293759","5ba1beaecc5dd00001673e39","3","23","null","","","","","","","","","<p style='font-size: 30px;'><strong>Okay</strong></p>","null","neutral_feedback","0","test","43","","","","","","","","","","","","","","","","","","","","","",""
"","","","","","","","","","","","html-button-response","93","2.0.0","295108","5ba1beaecc5dd00001673e39","3","23","1346","","","","","","","","","<img src= ""rock_img/I_Obsidian_16.jpg"" style=""width:8cm; height:9.3cm;""><p>What type of rock is this?</p>","4","class_response","0","test","44","Obsidian","Obsidian","16","true","5","5","","","","","","","","","","","","","","","",""
"","","","","","","","","","","","html-keyboard-response","94","2.0.0","295625","5ba1beaecc5dd00001673e39","3","23","null","","","","","","","","","<p style='font-size: 30px;'><strong>Okay</strong></p>","null","neutral_feedback","0","test","44","","","","","","","","","","","","","","","","","","","","","",""
"","","","","","","","","","","","html-button-response","95","2.0.0","300327","5ba1beaecc5dd00001673e39","3","23","4699","","","","","","","","","<img src= ""rock_img/I_Andesite_09.jpg"" style=""width:8cm; height:6cm;""><p>What type of rock is this?</p>","0","class_response","0","test","45","Andesite","Andesite","09","true","1","1","","","","","","","","","","","","","","","",""
"","","","","","","","","","","","html-keyboard-response","96","2.0.0","300829","5ba1beaecc5dd00001673e39","3","23","null","","","","","","","","","<p style='font-size: 30px;'><strong>Okay</strong></p>","null","neutral_feedback","0","test","45","","","","","","","","","","","","","","","","","","","","","",""
"","","","","","","","","","","","html-button-response","97","2.0.0","306414","5ba1beaecc5dd00001673e39","3","23","5582","","","","","","","","","<img src= ""rock_img/I_Basalt_09.jpg"" style=""width:8cm; height:6.2cm;""><p>What type of rock is this?</p>","3","class_response","0","test","46","Gabbro","Basalt","09","false","4","2","","","","","","","","","","","","","","","",""
"","","","","","","","","","","","html-keyboard-response","98","2.0.0","306916","5ba1beaecc5dd00001673e39","3","23","null","","","","","","","","","<p style='font-size: 30px;'><strong>Okay</strong></p>","null","neutral_feedback","0","test","46","","","","","","","","","","","","","","","","","","","","","",""
"","","","","","","","","","","","html-button-response","99","2.0.0","308441","5ba1beaecc5dd00001673e39","3","23","1522","","","","","","","","","<img src= ""rock_img/I_Obsidian_14.jpg"" style=""width:8cm; height:7.64cm;""><p>What type of rock is this?</p>","4","class_response","0","test","47","Obsidian","Obsidian","14","true","5","5","","","","","","","","","","","","","","","",""
"","","","","","","","","","","","html-keyboard-response","100","2.0.0","308942","5ba1beaecc5dd00001673e39","3","23","null","","","","","","","","","<p style='font-size: 30px;'><strong>Okay</strong></p>","null","neutral_feedback","0","test","47","","","","","","","","","","","","","","","","","","","","","",""
"","","","","","","","","","","","html-button-response","101","2.0.0","312905","5ba1beaecc5dd00001673e39","3","23","3961","","","","","","","","","<img src= ""rock_img/I_Diorite_02.jpg"" style=""width:8cm; height:6.27cm;""><p>What type of rock is this?</p>","0","class_response","0","test","48","Andesite","Diorite","02","false","1","3","","","","","","","","","","","","","","","",""
"","","","","","","","","","","","html-keyboard-response","102","2.0.0","313418","5ba1beaecc5dd00001673e39","3","23","null","","","","","","","","","<p style='font-size: 30px;'><strong>Okay</strong></p>","null","neutral_feedback","0","test","48","","","","","","","","","","","","","","","","","","","","","",""
"","","","","","","","","","","","instructions","103","2.0.0","335313","5ba1beaecc5dd00001673e39","3","23","21841","","","","","","","","[{""page_index"":0,""viewing_time"":18040},{""page_index"":1,""viewing_time"":3801}]","","","","","","","","","","","","","","","","","","","","","","","","","","","",""
"","","","","","","","","","","","html-button-response","104","2.0.0","338264","5ba1beaecc5dd00001673e39","3","23","2949","","","","","","","","","","0","start_train","","","","","","","","","","","","","","","","","","","","","","","","",""
"","","","","","","","","","","","html-button-response","106","2.0.0","353233","5ba1beaecc5dd00001673e39","3","23","14966","","","","","","","","","<img src= ""rock_img/I_Basalt_08.jpg"" style=""width:8cm; height:10.44cm;""><p>What type of rock is this?</p>","0","class_response","1","train","1","Andesite","Basalt","08","false","1","2","","","","","","","","","","","","","","","",""
"","","","","","","","","","","","html-button-response","107","2.0.0","357404","5ba1beaecc5dd00001673e39","3","23","4168","","","","","","","","","<img src= rock_img/I_Basalt_08.jpg style=""width:8cm; height:10.44cm;""><p style='font-size: 30px; color: red;'><strong>Incorrect!</strong></p><p style='font-size: 30px;'><strong>This rock is basalt</strong></p>","0","corr_feedback","1","train","1","","","","","","","","","","","","","","","","","","","","","",""
"","","","","","","","","","","","html-button-response","108","2.0.0","359199","5ba1beaecc5dd00001673e39","3","23","1791","","","","","","","","","<img src= ""rock_img/I_Diorite_11.jpg"" style=""width:8cm; height:7.11cm;""><p>What type of rock is this?</p>","2","class_response","1","train","2","Diorite","Diorite","11","true","3","3","","","","","","","","","","","","","","","",""
"","","","","","","","","","","","html-button-response","109","2.0.0","366146","5ba1beaecc5dd00001673e39","3","23","6945","","","","","","","","","<img src= rock_img/I_Diorite_11.jpg style=""width:8cm; height:7.11cm;""><p style='font-size: 30px; color: green;'><strong>Correct!</strong></p><p style='font-size: 30px;'><strong>This rock is diorite</strong></p>","0","corr_feedback","1","train","2","","","","","","","","","","","","","","","","","","","","","",""
"","","","","","","","","","","","html-button-response","110","2.0.0","367791","5ba1beaecc5dd00001673e39","3","23","1642","","","","","","","","","<img src= ""rock_img/I_Pumice_06.jpg"" style=""width:8cm; height:6.9399999999999995cm;""><p>What type of rock is this?</p>","7","class_response","1","train","3","Pumice","Pumice","06","true","8","8","","","","","","","","","","","","","","","",""
"","","","","","","","","","","","html-button-response","111","2.0.0","371098","5ba1beaecc5dd00001673e39","3","23","3305","","","","","","","","","<img src= rock_img/I_Pumice_06.jpg style=""width:8cm; height:6.9399999999999995cm;""><p style='font-size: 30px; color: green;'><strong>Correct!</strong></p><p style='font-size: 30px;'><strong>This rock is pumice</strong></p>","0","corr_feedback","1","train","3","","","","","","","","","","","","","","","","","","","","","",""
"","","","","","","","","","","","html-button-response","112","2.0.0","372754","5ba1beaecc5dd00001673e39","3","23","1653","","","","","","","","","<img src= ""rock_img/I_Peridotite_15.jpg"" style=""width:8cm; height:6cm;""><p>What type of rock is this?</p>","6","class_response","1","train","4","Peridotite","Peridotite","15","true","7","7","","","","","","","","","","","","","","","",""
"","","","","","","","","","","","html-button-response","113","2.0.0","375302","5ba1beaecc5dd00001673e39","3","23","2544","","","","","","","","","<img src= rock_img/I_Peridotite_15.jpg style=""width:8cm; height:6cm;""><p style='font-size: 30px; color: green;'><strong>Correct!</strong></p><p style='font-size: 30px;'><strong>This rock is peridotite</strong></p>","0","corr_feedback","1","train","4","","","","","","","","","","","","","","","","","","","","","",""
"","","","","","","","","","","","html-button-response","114","2.0.0","381438","5ba1beaecc5dd00001673e39","3","23","6132","","","","","","","","","<img src= ""rock_img/I_Pegmatite_15.jpg"" style=""width:8cm; height:6cm;""><p>What type of rock is this?</p>","0","class_response","1","train","5","Andesite","Pegmatite","15","false","1","6","","","","","","","","","","","","","","","",""
"","","","","","","","","","","","html-button-response","115","2.0.0","383388","5ba1beaecc5dd00001673e39","3","23","1947","","","","","","","","","<img src= rock_img/I_Pegmatite_15.jpg style=""width:8cm; height:6cm;""><p style='font-size: 30px; color: red;'><strong>Incorrect!</strong></p><p style='font-size: 30px;'><strong>This rock is pegmatite</strong></p>","0","corr_feedback","1","train","5","","","","","","","","","","","","","","","","","","","","","",""
"","","","","","","","","","","","html-button-response","116","2.0.0","385142","5ba1beaecc5dd00001673e39","3","23","1750","","","","","","","","","<img src= ""rock_img/I_Peridotite_13.jpg"" style=""width:8cm; height:7.58cm;""><p>What type of rock is this?</p>","6","class_response","1","train","6","Peridotite","Peridotite","13","true","7","7","","","","","","","","","","","","","","","",""
"","","","","","","","","","","","html-button-response","117","2.0.0","386720","5ba1beaecc5dd00001673e39","3","23","1575","","","","","","","","","<img src= rock_img/I_Peridotite_13.jpg style=""width:8cm; height:7.58cm;""><p style='font-size: 30px; color: green;'><strong>Correct!</strong></p><p style='font-size: 30px;'><strong>This rock is peridotite</strong></p>","0","corr_feedback","1","train","6","","","","","","","","","","","","","","","","","","","","","",""
"","","","","","","","","","","","html-button-response","118","2.0.0","391003","5ba1beaecc5dd00001673e39","3","23","4280","","","","","","","","","<img src= ""rock_img/I_Gabbro_09.jpg"" style=""width:8cm; height:7.279999999999999cm;""><p>What type of rock is this?</p>","1","class_response","1","train","7","Basalt","Gabbro","09","false","2","4","","","","","","","","","","","","","","","",""
"","","","","","","","","","","","html-button-response","119","2.0.0","392331","5ba1beaecc5dd00001673e39","3","23","1326","","","","","","","","","<img src= rock_img/I_Gabbro_09.jpg style=""width:8cm; height:7.279999999999999cm;""><p style='font-size: 30px; color: red;'><strong>Incorrect!</strong></p><p style='font-size: 30px;'><strong>This rock is gabbro</strong></p>","0","corr_feedback","1","train","7","","","","","","","","","","","","","","","","","","","","","",""
"","","","","","","","","","","","html-button-response","120","2.0.0","394099","5ba1beaecc5dd00001673e39","3","23","1766","","","","","","","","","<img src= ""rock_img/I_Andesite_01.jpg"" style=""width:8cm; height:5.87cm;""><p>What type of rock is this?</p>","3","class_response","1","train","8","Gabbro","Andesite","01","false","4","1","","","","","","","","","","","","","","","",""
"","","","","","","","","","","","html-button-response","121","2.0.0","395504","5ba1beaecc5dd00001673e39","3","23","1402","","","","","","","","","<img src= rock_img/I_Andesite_01.jpg style=""width:8cm; height:5.87cm;""><p style='font-size: 30px; color: red;'><strong>Incorrect!</strong></p><p style='font-size: 30px;'><strong>This rock is andesite</strong></p>","0","corr_feedback","1","train","8","","","","","","","","","","","","","","","","","","","","","",""
"","","","","","","","","","","","html-button-response","122","2.0.0","397274","5ba1beaecc5dd00001673e39","3","23","1767","","","","","","","","","<img src= ""rock_img/I_Obsidian_10.jpg"" style=""width:8cm; height:6.260000000000001cm;""><p>What type of rock is this?</p>","4","class_response","1","train","9","Obsidian","Obsidian","10","true","5","5","","","","","","","","","","","","","","","",""
"","","","","","","","","","","","html-button-response","123","2.0.0","398559","5ba1beaecc5dd00001673e39","3","23","1282","","","","","","","","","<img src= rock_img/I_Obsidian_10.jpg style=""width:8cm; height:6.260000000000001cm;""><p style='font-size: 30px; color: green;'><strong>Correct!</strong></p><p style='font-size: 30px;'><strong>This rock is obsidian</strong></p>","0","corr_feedback","1","train","9","","","","","","","","","","","","","","","","","","","","","",""
"","","","","","","","","","","","html-button-response","124","2.0.0","400029","5ba1beaecc5dd00001673e39","3","23","1467","","","","","","","","","<img src= ""rock_img/I_Pumice_02.jpg"" style=""width:8cm; height:7.3999999999999995cm;""><p>What type of rock is this?</p>","7","class_response","1","train","10","Pumice","Pumice","02","true","8","8","","","","","","","","","","","","","","","",""
"","","","","","","","","","","","html-button-response","125","2.0.0","401040","5ba1beaecc5dd00001673e39","3","23","1008","","","","","","","","","<img src= rock_img/I_Pumice_02.jpg style=""width:8cm; height:7.3999999999999995cm;""><p style='font-size: 30px; color: green;'><strong>Correct!</strong></p><p style='font-size: 30px;'><strong>This rock is pumice</strong></p>","0","corr_feedback","1","train","10","","","","","","","","","","","","","","","","","","","","","",""
"","","","","","","","","","","","html-button-response","126","2.0.0","403250","5ba1beaecc5dd00001673e39","3","23","2207","","","","","","","","","<img src= ""rock_img/I_Basalt_14.jpg"" style=""width:8cm; height:5.82cm;""><p>What type of rock is this?</p>","1","class_response","1","train","11","Basalt","Basalt","14","true","2","2","","","","","","","","","","","","","","","",""
"","","","","","","","","","","","html-button-response","127","2.0.0","406977","5ba1beaecc5dd00001673e39","3","23","3725","","","","","","","","","<img src= rock_img/I_Basalt_14.jpg style=""width:8cm; height:5.82cm;""><p style='font-size: 30px; color: green;'><strong>Correct!</strong></p><p style='font-size: 30px;'><strong>This rock is basalt</strong></p>","0","corr_feedback","1","train","11","","","","","","","","","","","","","","","","","","","","","",""
"","","","","","","","","","","","html-button-response","128","2.0.0","408630","5ba1beaecc5dd00001673e39","3","23","1649","","","","","","","","","<img src= ""rock_img/I_Pegmatite_03.jpg"" style=""width:8cm; height:5.239999999999999cm;""><p>What type of rock is this?</p>","6","class_response","1","train","12","Peridotite","Pegmatite","03","false","7","6","","","","","","","","","","","","","","","",""
"","","","","","","","","","","","html-button-response","129","2.0.0","410251","5ba1beaecc5dd00001673e39","3","23","1619","","","","","","","","","<img src= rock_img/I_Pegmatite_03.jpg style=""width:8cm; height:5.239999999999999cm;""><p style='font-size: 30px; color: red;'><strong>Incorrect!</strong></p><p style='font-size: 30px;'><strong>This rock is pegmatite</strong></p>","0","corr_feedback","1","train","12","","","","","","","","","","","","","","","","","","","","","",""
"","","","","","","","","","","","instructions","130","2.0.0","460735","5ba1beaecc5dd00001673e39","3","23","50481","","","","","","","","[{""page_index"":0,""viewing_time"":6374},{""page_index"":1,""viewing_time"":10530},{""page_index"":2,""viewing_time"":28649},{""page_index"":3,""viewing_time"":4929}]","","","","","","","","","","","","","","","","","","","","","","","","","","","",""
"","","","","","","","","","","","html-button-response","131","2.0.0","461997","5ba1beaecc5dd00001673e39","3","23","1259","","","","","","","","","","0","start_train","","","","","","","","","","","","","","","","","","","","","","","","",""
"","","","","","","","","","","","html-button-response","132","2.0.0","470672","5ba1beaecc5dd00001673e39","3","23","","","","","","","","","","","","cat_selection","1","train","1","","","","","","","2","8","8672.699999928474","Basalt","Pumice","[0.11718749999999999,0.1796875,0.1484375,0.11718749999999999,0.054687499999999986,0.1796875,0.054687499999999986,0.1484375]","[0.057101617649150824,null,0.04547826614545701,0.1799591086999194,0.3084709288227906,0.04470675984477516,0.05785282115244632,0.3064304976854609]","","","","","","","","",""
"","","","","","","","","","","","paired-cat-display","133","1.0.0","604442","5ba1beaecc5dd00001673e39","3","23","","","","","","","","","","","","paired_cat_display","1","train","1","","","","","","","","","37105.700000047684","","","","","Darker in color
Dull
Slightly open in texture","Light in color
Airy, spongy appearance
Rough texture","96656.39999997616","","","","","",""
"","","","","","","","","","","","html-button-response","134","2.0.0","610022","5ba1beaecc5dd00001673e39","3","23","","","","","","","","","","","","cat_selection","1","train","2","","","","","","","3","6","5576.200000047684","Diorite","Pegmatite","[0.11718749999999999,0.1796875,0.1484375,0.11718749999999999,0.054687499999999986,0.1796875,0.054687499999999986,0.1484375]","[0.5166513930067151,0.049366125626516016,null,0.06449552082410677,0.05889775479324288,0.2201874881958618,0.05119531688856995,0.03920640066498749]","","","","","","","","",""
"","","","","","","","","","","","paired-cat-display","135","1.0.0","738568","5ba1beaecc5dd00001673e39","3","23","","","","","","","","","","","","paired_cat_display","1","train","2","","","","","","","","","24277.800000071526","","","","","","","104260.10000002384","Dense, hard structure
Speckled
Lighter in color","Flakes of color within
Looks like it could shatter
White mixed with blacks, greens, and pinks","","","",""
"","","","","","","","","","","","html-button-response","136","2.0.0","744089","5ba1beaecc5dd00001673e39","3","23","","","","","","","","","","","","cat_selection","1","train","3","","","","","","","2","4","5518.200000047684","Basalt","Gabbro","[0.11718749999999999,0.1796875,0.1484375,0.11718749999999999,0.054687499999999986,0.1796875,0.054687499999999986,0.1484375]","[0.057101617649150824,null,0.04547826614545701,0.1799591086999194,0.3084709288227906,0.04470675984477516,0.05785282115244632,0.3064304976854609]","","","","","","","","",""
"","","","","","","","","","","","paired-cat-display","137","1.0.0","911584","5ba1beaecc5dd00001673e39","3","23","","","","","","","","","","","","paired_cat_display","1","train","3","","","","","","","","","21911.100000023842","","","","","Dull, sandy appearance
Dark in color
Rough with slightly open texture","","145576.60000002384","","","Mostly solid in color with bits of white
","","",""
"","","","","","","","","","","","instructions","138","2.0.0","936450","5ba1beaecc5dd00001673e39","3","23","24863","","","","","","","","[{""page_index"":0,""viewing_time"":7851},{""page_index"":1,""viewing_time"":17011}]","","","","","","","","","","","","","","","","","","","","","","","","","","","",""
"","","","","","","","","","","","html-button-response","139","2.0.0","938510","5ba1beaecc5dd00001673e39","3","23","2057","","","","","","","","","","0","start_test","","","","","","","","","","","","","","","","","","","","","","","","",""
"","","","","","","","","","","","html-button-response","140","2.0.0","958532","5ba1beaecc5dd00001673e39","3","23","20017","","","","","","","","","<img src= ""rock_img/I_Andesite_06.jpg"" style=""width:8cm; height:6.840000000000001cm;""><p>What type of rock is this?</p>","3","class_response","1","test","1","Gabbro","Andesite","06","false","4","1","","","","","","","","","","","","","","","",""
"","","","","","","","","","","","html-keyboard-response","141","2.0.0","959035","5ba1beaecc5dd00001673e39","3","23","null","","","","","","","","","<p style='font-size: 30px;'><strong>Okay</strong></p>","null","neutral_feedback","1","test","1","","","","","","","","","","","","","","","","","","","","","",""
"","","","","","","","","","","","html-button-response","142","2.0.0","967512","5ba1beaecc5dd00001673e39","3","23","8471","","","","","","","","","<img src= ""rock_img/I_Pegmatite_09.jpg"" style=""width:8cm; height:4.03cm;""><p>What type of rock is this?</p>","6","class_response","1","test","2","Peridotite","Pegmatite","09","false","7","6","","","","","","","","","","","","","","","",""
"","","","","","","","","","","","html-keyboard-response","143","2.0.0","968016","5ba1beaecc5dd00001673e39","3","23","null","","","","","","","","","<p style='font-size: 30px;'><strong>Okay</strong></p>","null","neutral_feedback","1","test","2","","","","","","","","","","","","","","","","","","","","","",""
"","","","","","","","","","","","html-button-response","144","2.0.0","974338","5ba1beaecc5dd00001673e39","3","23","6318","","","","","","","","","<img src= ""rock_img/I_Gabbro_11.jpg"" style=""width:8cm; height:6.2cm;""><p>What type of rock is this?</p>","3","class_response","1","test","3","Gabbro","Gabbro","11","true","4","4","","","","","","","","","","","","","","","",""
"","","","","","","","","","","","html-keyboard-response","145","2.0.0","974844","5ba1beaecc5dd00001673e39","3","23","null","","","","","","","","","<p style='font-size: 30px;'><strong>Okay</strong></p>","null","neutral_feedback","1","test","3","","","","","","","","","","","","","","","","","","","","","",""
"","","","","","","","","","","","html-button-response","146","2.0.0","985800","5ba1beaecc5dd00001673e39","3","23","10952","","","","","","","","","<img src= ""rock_img/I_Andesite_09.jpg"" style=""width:8cm; height:6cm;""><p>What type of rock is this?</p>","3","class_response","1","test","4","Gabbro","Andesite","09","false","4","1","","","","","","","","","","","","","","","",""
"","","","","","","","","","","","html-keyboard-response","147","2.0.0","986312","5ba1beaecc5dd00001673e39","3","23","null","","","","","","","","","<p style='font-size: 30px;'><strong>Okay</strong></p>","null","neutral_feedback","1","test","4","","","","","","","","","","","","","","","","","","","","","",""
"","","","","","","","","","","","html-button-response","148","2.0.0","995322","5ba1beaecc5dd00001673e39","3","23","9007","","","","","","","","","<img src= ""rock_img/I_Peridotite_12.jpg"" style=""width:8cm; height:4.54cm;""><p>What type of rock is this?</p>","6","class_response","1","test","5","Peridotite","Peridotite","12","true","7","7","","","","","","","","","","","","","","","",""
"","","","","","","","","","","","html-keyboard-response","149","2.0.0","995838","5ba1beaecc5dd00001673e39","3","23","null","","","","","","","","","<p style='font-size: 30px;'><strong>Okay</strong></p>","null","neutral_feedback","1","test","5","","","","","","","","","","","","","","","","","","","","","",""
"","","","","","","","","","","","html-button-response","150","2.0.0","1005144","5ba1beaecc5dd00001673e39","3","23","9303","","","","","","","","","<img src= ""rock_img/I_Basalt_12.jpg"" style=""width:8cm; height:6.010000000000001cm;""><p>What type of rock is this?</p>","7","class_response","1","test","6","Pumice","Basalt","12","false","8","2","","","","","","","","","","","","","","","",""
"","","","","","","","","","","","html-keyboard-response","151","2.0.0","1005646","5ba1beaecc5dd00001673e39","3","23","null","","","","","","","","","<p style='font-size: 30px;'><strong>Okay</strong></p>","null","neutral_feedback","1","test","6","","","","","","","","","","","","","","","","","","","","","",""
"","","","","","","","","","","","html-button-response","152","2.0.0","1007285","5ba1beaecc5dd00001673e39","3","23","1636","","","","","","","","","<img src= ""rock_img/I_Obsidian_12.jpg"" style=""width:8cm; height:6.53cm;""><p>What type of rock is this?</p>","4","class_response","1","test","7","Obsidian","Obsidian","12","true","5","5","","","","","","","","","","","","","","","",""
"","","","","","","","","","","","html-keyboard-response","153","2.0.0","1007787","5ba1beaecc5dd00001673e39","3","23","null","","","","","","","","","<p style='font-size: 30px;'><strong>Okay</strong></p>","null","neutral_feedback","1","test","7","","","","","","","","","","","","","","","","","","","","","",""
"","","","","","","","","","","","html-button-response","154","2.0.0","1019120","5ba1beaecc5dd00001673e39","3","23","11330","","","","","","","","","<img src= ""rock_img/I_Gabbro_10.jpg"" style=""width:8cm; height:5.680000000000001cm;""><p>What type of rock is this?</p>","3","class_response","1","test","8","Gabbro","Gabbro","10","true","4","4","","","","","","","","","","","","","","","",""
"","","","","","","","","","","","html-keyboard-response","155","2.0.0","1019629","5ba1beaecc5dd00001673e39","3","23","null","","","","","","","","","<p style='font-size: 30px;'><strong>Okay</strong></p>","null","neutral_feedback","1","test","8","","","","","","","","","","","","","","","","","","","","","",""
"","","","","","","","","","","","html-button-response","156","2.0.0","1029340","5ba1beaecc5dd00001673e39","3","23","9708","","","","","","","","","<img src= ""rock_img/I_Andesite_14.jpg"" style=""width:8cm; height:5.449999999999999cm;""><p>What type of rock is this?</p>","2","class_response","1","test","9","Diorite","Andesite","14","false","3","1","","","","","","","","","","","","","","","",""
"","","","","","","","","","","","html-keyboard-response","157","2.0.0","1029842","5ba1beaecc5dd00001673e39","3","23","null","","","","","","","","","<p style='font-size: 30px;'><strong>Okay</strong></p>","null","neutral_feedback","1","test","9","","","","","","","","","","","","","","","","","","","","","",""
"","","","","","","","","","","","html-button-response","158","2.0.0","1031753","5ba1beaecc5dd00001673e39","3","23","1909","","","","","","","","","<img src= ""rock_img/I_Basalt_02.jpg"" style=""width:8cm; height:6.45cm;""><p>What type of rock is this?</p>","1","class_response","1","test","10","Basalt","Basalt","02","true","2","2","","","","","","","","","","","","","","","",""
"","","","","","","","","","","","html-keyboard-response","159","2.0.0","1032256","5ba1beaecc5dd00001673e39","3","23","null","","","","","","","","","<p style='font-size: 30px;'><strong>Okay</strong></p>","null","neutral_feedback","1","test","10","","","","","","","","","","","","","","","","","","","","","",""
"","","","","","","","","","","","html-button-response","160","2.0.0","1041306","5ba1beaecc5dd00001673e39","3","23","9047","","","","","","","","","<img src= ""rock_img/I_Peridotite_07.jpg"" style=""width:8cm; height:4.83cm;""><p>What type of rock is this?</p>","3","class_response","1","test","11","Gabbro","Peridotite","07","false","4","7","","","","","","","","","","","","","","","",""
"","","","","","","","","","","","html-keyboard-response","161","2.0.0","1041811","5ba1beaecc5dd00001673e39","3","23","null","","","","","","","","","<p style='font-size: 30px;'><strong>Okay</strong></p>","null","neutral_feedback","1","test","11","","","","","","","","","","","","","","","","","","","","","",""
"","","","","","","","","","","","html-button-response","162","2.0.0","1049924","5ba1beaecc5dd00001673e39","3","23","8109","","","","","","","","","<img src= ""rock_img/I_Pegmatite_06.jpg"" style=""width:8cm; height:5.17cm;""><p>What type of rock is this?</p>","0","class_response","1","test","12","Andesite","Pegmatite","06","false","1","6","","","","","","","","","","","","","","","",""
"","","","","","","","","","","","html-keyboard-response","163","2.0.0","1050438","5ba1beaecc5dd00001673e39","3","23","null","","","","","","","","","<p style='font-size: 30px;'><strong>Okay</strong></p>","null","neutral_feedback","1","test","12","","","","","","","","","","","","","","","","","","","","","",""
"","","","","","","","","","","","html-button-response","164","2.0.0","1054912","5ba1beaecc5dd00001673e39","3","23","4470","","","","","","","","","<img src= ""rock_img/I_Obsidian_07.jpg"" style=""width:8cm; height:4.76cm;""><p>What type of rock is this?</p>","4","class_response","1","test","13","Obsidian","Obsidian","07","true","5","5","","","","","","","","","","","","","","","",""
"","","","","","","","","","","","html-keyboard-response","165","2.0.0","1055415","5ba1beaecc5dd00001673e39","3","23","null","","","","","","","","","<p style='font-size: 30px;'><strong>Okay</strong></p>","null","neutral_feedback","1","test","13","","","","","","","","","","","","","","","","","","","","","",""
"","","","","","","","","","","","html-button-response","166","2.0.0","1058971","5ba1beaecc5dd00001673e39","3","23","3554","","","","","","","","","<img src= ""rock_img/I_Diorite_16.jpg"" style=""width:8cm; height:6.74cm;""><p>What type of rock is this?</p>","2","class_response","1","test","14","Diorite","Diorite","16","true","3","3","","","","","","","","","","","","","","","",""
"","","","","","","","","","","","html-keyboard-response","167","2.0.0","1059475","5ba1beaecc5dd00001673e39","3","23","null","","","","","","","","","<p style='font-size: 30px;'><strong>Okay</strong></p>","null","neutral_feedback","1","test","14","","","","","","","","","","","","","","","","","","","","","",""
"","","","","","","","","","","","html-button-response","168","2.0.0","1061039","5ba1beaecc5dd00001673e39","3","23","1561","","","","","","","","","<img src= ""rock_img/I_Pumice_03.jpg"" style=""width:8cm; height:6.64cm;""><p>What type of rock is this?</p>","7","class_response","1","test","15","Pumice","Pumice","03","true","8","8","","","","","","","","","","","","","","","",""
"","","","","","","","","","","","html-keyboard-response","169","2.0.0","1061554","5ba1beaecc5dd00001673e39","3","23","null","","","","","","","","","<p style='font-size: 30px;'><strong>Okay</strong></p>","null","neutral_feedback","1","test","15","","","","","","","","","","","","","","","","","","","","","",""
"","","","","","","","","","","","html-button-response","170","2.0.0","1085372","5ba1beaecc5dd00001673e39","3","23","23815","","","","","","","","","<img src= ""rock_img/I_Gabbro_03.jpg"" style=""width:8cm; height:8.52cm;""><p>What type of rock is this?</p>","2","class_response","1","test","16","Diorite","Gabbro","03","false","3","4","","","","","","","","","","","","","","","",""
"","","","","","","","","","","","html-keyboard-response","171","2.0.0","1085879","5ba1beaecc5dd00001673e39","3","23","null","","","","","","","","","<p style='font-size: 30px;'><strong>Okay</strong></p>","null","neutral_feedback","1","test","16","","","","","","","","","","","","","","","","","","","","","",""
"","","","","","","","","","","","html-button-response","172","2.0.0","1090189","5ba1beaecc5dd00001673e39","3","23","4307","","","","","","","","","<img src= ""rock_img/I_Diorite_02.jpg"" style=""width:8cm; height:6.27cm;""><p>What type of rock is this?</p>","2","class_response","1","test","17","Diorite","Diorite","02","true","3","3","","","","","","","","","","","","","","","",""
"","","","","","","","","","","","html-keyboard-response","173","2.0.0","1090704","5ba1beaecc5dd00001673e39","3","23","null","","","","","","","","","<p style='font-size: 30px;'><strong>Okay</strong></p>","null","neutral_feedback","1","test","17","","","","","","","","","","","","","","","","","","","","","",""
"","","","","","","","","","","","html-button-response","174","2.0.0","1096149","5ba1beaecc5dd00001673e39","3","23","5441","","","","","","","","","<img src= ""rock_img/I_Diorite_06.jpg"" style=""width:8cm; height:6.03cm;""><p>What type of rock is this?</p>","0","class_response","1","test","18","Andesite","Diorite","06","false","1","3","","","","","","","","","","","","","","","",""
"","","","","","","","","","","","html-keyboard-response","175","2.0.0","1096657","5ba1beaecc5dd00001673e39","3","23","null","","","","","","","","","<p style='font-size: 30px;'><strong>Okay</strong></p>","null","neutral_feedback","1","test","18","","","","","","","","","","","","","","","","","","","","","",""
"","","","","","","","","","","","html-button-response","176","2.0.0","1098304","5ba1beaecc5dd00001673e39","3","23","1644","","","","","","","","","<img src= ""rock_img/I_Pumice_09.jpg"" style=""width:8cm; height:6.44cm;""><p>What type of rock is this?</p>","7","class_response","1","test","19","Pumice","Pumice","09","true","8","8","","","","","","","","","","","","","","","",""
"","","","","","","","","","","","html-keyboard-response","177","2.0.0","1098808","5ba1beaecc5dd00001673e39","3","23","null","","","","","","","","","<p style='font-size: 30px;'><strong>Okay</strong></p>","null","neutral_feedback","1","test","19","","","","","","","","","","","","","","","","","","","","","",""
"","","","","","","","","","","","html-button-response","178","2.0.0","1120569","5ba1beaecc5dd00001673e39","3","23","21758","","","","","","","","","<img src= ""rock_img/I_Andesite_02.jpg"" style=""width:8cm; height:8.5cm;""><p>What type of rock is this?</p>","0","class_response","1","test","20","Andesite","Andesite","02","true","1","1","","","","","","","","","","","","","","","",""
"","","","","","","","","","","","html-keyboard-response","179","2.0.0","1121074","5ba1beaecc5dd00001673e39","3","23","null","","","","","","","","","<p style='font-size: 30px;'><strong>Okay</strong></p>","null","neutral_feedback","1","test","20","","","","","","","","","","","","","","","","","","","","","",""
"","","","","","","","","","","","html-button-response","180","2.0.0","1122381","5ba1beaecc5dd00001673e39","3","23","1303","","","","","","","","","<img src= ""rock_img/I_Obsidian_02.jpg"" style=""width:8cm; height:7.51cm;""><p>What type of rock is this?</p>","4","class_response","1","test","21","Obsidian","Obsidian","02","true","5","5","","","","","","","","","","","","","","","",""
"","","","","","","","","","","","html-keyboard-response","181","2.0.0","1122884","5ba1beaecc5dd00001673e39","3","23","null","","","","","","","","","<p style='font-size: 30px;'><strong>Okay</strong></p>","null","neutral_feedback","1","test","21","","","","","","","","","","","","","","","","","","","","","",""
"","","","","","","","","","","","html-button-response","182","2.0.0","1128422","5ba1beaecc5dd00001673e39","3","23","5535","","","","","","","","","<img src= ""rock_img/I_Peridotite_04.jpg"" style=""width:8cm; height:6.680000000000001cm;""><p>What type of rock is this?</p>","6","class_response","1","test","22","Peridotite","Peridotite","04","true","7","7","","","","","","","","","","","","","","","",""
"","","","","","","","","","","","html-keyboard-response","183","2.0.0","1128934","5ba1beaecc5dd00001673e39","3","23","null","","","","","","","","","<p style='font-size: 30px;'><strong>Okay</strong></p>","null","neutral_feedback","1","test","22","","","","","","","","","","","","","","","","","","","","","",""
"","","","","","","","","","","","html-button-response","184","2.0.0","1149284","5ba1beaecc5dd00001673e39","3","23","20347","","","","","","","","","<img src= ""rock_img/I_Peridotite_06.jpg"" style=""width:8cm; height:7.53cm;""><p>What type of rock is this?</p>","6","class_response","1","test","23","Peridotite","Peridotite","06","true","7","7","","","","","","","","","","","","","","","",""
"","","","","","","","","","","","html-keyboard-response","185","2.0.0","1149800","5ba1beaecc5dd00001673e39","3","23","null","","","","","","","","","<p style='font-size: 30px;'><strong>Okay</strong></p>","null","neutral_feedback","1","test","23","","","","","","","","","","","","","","","","","","","","","",""
"","","","","","","","","","","","html-button-response","186","2.0.0","1151300","5ba1beaecc5dd00001673e39","3","23","1498","","","","","","","","","<img src= ""rock_img/I_Pumice_08.jpg"" style=""width:8cm; height:6.67cm;""><p>What type of rock is this?</p>","7","class_response","1","test","24","Pumice","Pumice","08","true","8","8","","","","","","","","","","","","","","","",""
"","","","","","","","","","","","html-keyboard-response","187","2.0.0","1151813","5ba1beaecc5dd00001673e39","3","23","null","","","","","","","","","<p style='font-size: 30px;'><strong>Okay</strong></p>","null","neutral_feedback","1","test","24","","","","","","","","","","","","","","","","","","","","","",""
"","","","","","","","","","","","html-button-response","188","2.0.0","1154118","5ba1beaecc5dd00001673e39","3","23","2301","","","","","","","","","<img src= ""rock_img/I_Pegmatite_08.jpg"" style=""width:8cm; height:7.68cm;""><p>What type of rock is this?</p>","5","class_response","1","test","25","Pegmatite","Pegmatite","08","true","6","6","","","","","","","","","","","","","","","",""
"","","","","","","","","","","","html-keyboard-response","189","2.0.0","1154634","5ba1beaecc5dd00001673e39","3","23","null","","","","","","","","","<p style='font-size: 30px;'><strong>Okay</strong></p>","null","neutral_feedback","1","test","25","","","","","","","","","","","","","","","","","","","","","",""
"","","","","","","","","","","","html-button-response","190","2.0.0","1172677","5ba1beaecc5dd00001673e39","3","23","18038","","","","","","","","","<img src= ""rock_img/I_Gabbro_15.jpg"" style=""width:8cm; height:6.29cm;""><p>What type of rock is this?</p>","0","class_response","1","test","26","Andesite","Gabbro","15","false","1","4","","","","","","","","","","","","","","","",""
"","","","","","","","","","","","html-keyboard-response","191","2.0.0","1173186","5ba1beaecc5dd00001673e39","3","23","null","","","","","","","","","<p style='font-size: 30px;'><strong>Okay</strong></p>","null","neutral_feedback","1","test","26","","","","","","","","","","","","","","","","","","","","","",""
"","","","","","","","","","","","html-button-response","192","2.0.0","1174695","5ba1beaecc5dd00001673e39","3","23","1505","","","","","","","","","<img src= ""rock_img/I_Obsidian_14.jpg"" style=""width:8cm; height:7.64cm;""><p>What type of rock is this?</p>","4","class_response","1","test","27","Obsidian","Obsidian","14","true","5","5","","","","","","","","","","","","","","","",""
"","","","","","","","","","","","html-keyboard-response","193","2.0.0","1175210","5ba1beaecc5dd00001673e39","3","23","null","","","","","","","","","<p style='font-size: 30px;'><strong>Okay</strong></p>","null","neutral_feedback","1","test","27","","","","","","","","","","","","","","","","","","","","","",""
"","","","","","","","","","","","html-button-response","194","2.0.0","1179045","5ba1beaecc5dd00001673e39","3","23","3831","","","","","","","","","<img src= ""rock_img/I_Peridotite_05.jpg"" style=""width:8cm; height:7.1499999999999995cm;""><p>What type of rock is this?</p>","6","class_response","1","test","28","Peridotite","Peridotite","05","true","7","7","","","","","","","","","","","","","","","",""
"","","","","","","","","","","","html-keyboard-response","195","2.0.0","1179551","5ba1beaecc5dd00001673e39","3","23","null","","","","","","","","","<p style='font-size: 30px;'><strong>Okay</strong></p>","null","neutral_feedback","1","test","28","","","","","","","","","","","","","","","","","","","","","",""
"","","","","","","","","","","","html-button-response","196","2.0.0","1182376","5ba1beaecc5dd00001673e39","3","23","2821","","","","","","","","","<img src= ""rock_img/I_Diorite_07.jpg"" style=""width:8cm; height:5.239999999999999cm;""><p>What type of rock is this?</p>","2","class_response","1","test","29","Diorite","Diorite","07","true","3","3","","","","","","","","","","","","","","","",""
"","","","","","","","","","","","html-keyboard-response","197","2.0.0","1182879","5ba1beaecc5dd00001673e39","3","23","null","","","","","","","","","<p style='font-size: 30px;'><strong>Okay</strong></p>","null","neutral_feedback","1","test","29","","","","","","","","","","","","","","","","","","","","","",""
"","","","","","","","","","","","html-button-response","198","2.0.0","1184770","5ba1beaecc5dd00001673e39","3","23","1887","","","","","","","","","<img src= ""rock_img/I_Basalt_05.jpg"" style=""width:8cm; height:8.18cm;""><p>What type of rock is this?</p>","1","class_response","1","test","30","Basalt","Basalt","05","true","2","2","","","","","","","","","","","","","","","",""
"","","","","","","","","","","","html-keyboard-response","199","2.0.0","1185276","5ba1beaecc5dd00001673e39","3","23","null","","","","","","","","","<p style='font-size: 30px;'><strong>Okay</strong></p>","null","neutral_feedback","1","test","30","","","","","","","","","","","","","","","","","","","","","",""
"","","","","","","","","","","","html-button-response","200","2.0.0","1210894","5ba1beaecc5dd00001673e39","3","23","25615","","","","","","","","","<img src= ""rock_img/I_Andesite_05.jpg"" style=""width:8cm; height:4.12cm;""><p>What type of rock is this?</p>","3","class_response","1","test","31","Gabbro","Andesite","05","false","4","1","","","","","","","","","","","","","","","",""
"","","","","","","","","","","","html-keyboard-response","201","2.0.0","1211403","5ba1beaecc5dd00001673e39","3","23","null","","","","","","","","","<p style='font-size: 30px;'><strong>Okay</strong></p>","null","neutral_feedback","1","test","31","","","","","","","","","","","","","","","","","","","","","",""
"","","","","","","","","","","","html-button-response","202","2.0.0","1218298","5ba1beaecc5dd00001673e39","3","23","6891","","","","","","","","","<img src= ""rock_img/I_Diorite_10.jpg"" style=""width:8cm; height:5.949999999999999cm;""><p>What type of rock is this?</p>","0","class_response","1","test","32","Andesite","Diorite","10","false","1","3","","","","","","","","","","","","","","","",""
"","","","","","","","","","","","html-keyboard-response","203","2.0.0","1218810","5ba1beaecc5dd00001673e39","3","23","null","","","","","","","","","<p style='font-size: 30px;'><strong>Okay</strong></p>","null","neutral_feedback","1","test","32","","","","","","","","","","","","","","","","","","","","","",""
"","","","","","","","","","","","html-button-response","204","2.0.0","1221710","5ba1beaecc5dd00001673e39","3","23","2895","","","","","","","","","<img src= ""rock_img/I_Pumice_16.jpg"" style=""width:8cm; height:6.79cm;""><p>What type of rock is this?</p>","7","class_response","1","test","33","Pumice","Pumice","16","true","8","8","","","","","","","","","","","","","","","",""
"","","","","","","","","","","","html-keyboard-response","205","2.0.0","1222218","5ba1beaecc5dd00001673e39","3","23","null","","","","","","","","","<p style='font-size: 30px;'><strong>Okay</strong></p>","null","neutral_feedback","1","test","33","","","","","","","","","","","","","","","","","","","","","",""
"","","","","","","","","","","","html-button-response","206","2.0.0","1225679","5ba1beaecc5dd00001673e39","3","23","3457","","","","","","","","","<img src= ""rock_img/I_Pumice_13.jpg"" style=""width:8cm; height:8.200000000000001cm;""><p>What type of rock is this?</p>","7","class_response","1","test","34","Pumice","Pumice","13","true","8","8","","","","","","","","","","","","","","","",""
"","","","","","","","","","","","html-keyboard-response","207","2.0.0","1226196","5ba1beaecc5dd00001673e39","3","23","null","","","","","","","","","<p style='font-size: 30px;'><strong>Okay</strong></p>","null","neutral_feedback","1","test","34","","","","","","","","","","","","","","","","","","","","","",""
"","","","","","","","","","","","html-button-response","208","2.0.0","1235641","5ba1beaecc5dd00001673e39","3","23","9442","","","","","","","","","<img src= ""rock_img/I_Diorite_12.jpg"" style=""width:8cm; height:4.88cm;""><p>What type of rock is this?</p>","0","class_response","1","test","35","Andesite","Diorite","12","false","1","3","","","","","","","","","","","","","","","",""
"","","","","","","","","","","","html-keyboard-response","209","2.0.0","1236149","5ba1beaecc5dd00001673e39","3","23","null","","","","","","","","","<p style='font-size: 30px;'><strong>Okay</strong></p>","null","neutral_feedback","1","test","35","","","","","","","","","","","","","","","","","","","","","",""
"","","","","","","","","","","","html-button-response","210","2.0.0","1242174","5ba1beaecc5dd00001673e39","3","23","6021","","","","","","","","","<img src= ""rock_img/I_Andesite_03.jpg"" style=""width:8cm; height:5.73cm;""><p>What type of rock is this?</p>","3","class_response","1","test","36","Gabbro","Andesite","03","false","4","1","","","","","","","","","","","","","","","",""
"","","","","","","","","","","","html-keyboard-response","211","2.0.0","1242682","5ba1beaecc5dd00001673e39","3","23","null","","","","","","","","","<p style='font-size: 30px;'><strong>Okay</strong></p>","null","neutral_feedback","1","test","36","","","","","","","","","","","","","","","","","","","","","",""
"","","","","","","","","","","","html-button-response","212","2.0.0","1254030","5ba1beaecc5dd00001673e39","3","23","11344","","","","","","","","","<img src= ""rock_img/I_Pegmatite_13.jpg"" style=""width:8cm; height:4.95cm;""><p>What type of rock is this?</p>","0","class_response","1","test","37","Andesite","Pegmatite","13","false","1","6","","","","","","","","","","","","","","","",""
"","","","","","","","","","","","html-keyboard-response","213","2.0.0","1254533","5ba1beaecc5dd00001673e39","3","23","null","","","","","","","","","<p style='font-size: 30px;'><strong>Okay</strong></p>","null","neutral_feedback","1","test","37","","","","","","","","","","","","","","","","","","","","","",""
"","","","","","","","","","","","html-button-response","214","2.0.0","1255904","5ba1beaecc5dd00001673e39","3","23","1367","","","","","","","","","<img src= ""rock_img/I_Obsidian_08.jpg"" style=""width:8cm; height:7.39cm;""><p>What type of rock is this?</p>","4","class_response","1","test","38","Obsidian","Obsidian","08","true","5","5","","","","","","","","","","","","","","","",""
"","","","","","","","","","","","html-keyboard-response","215","2.0.0","1256415","5ba1beaecc5dd00001673e39","3","23","null","","","","","","","","","<p style='font-size: 30px;'><strong>Okay</strong></p>","null","neutral_feedback","1","test","38","","","","","","","","","","","","","","","","","","","","","",""
"","","","","","","","","","","","html-button-response","216","2.0.0","1263809","5ba1beaecc5dd00001673e39","3","23","7391","","","","","","","","","<img src= ""rock_img/I_Pegmatite_16.jpg"" style=""width:8cm; height:5.8cm;""><p>What type of rock is this?</p>","5","class_response","1","test","39","Pegmatite","Pegmatite","16","true","6","6","","","","","","","","","","","","","","","",""
"","","","","","","","","","","","html-keyboard-response","217","2.0.0","1264313","5ba1beaecc5dd00001673e39","3","23","null","","","","","","","","","<p style='font-size: 30px;'><strong>Okay</strong></p>","null","neutral_feedback","1","test","39","","","","","","","","","","","","","","","","","","","","","",""
"","","","","","","","","","","","html-button-response","218","2.0.0","1267043","5ba1beaecc5dd00001673e39","3","23","2727","","","","","","","","","<img src= ""rock_img/I_Gabbro_08.jpg"" style=""width:8cm; height:5.15cm;""><p>What type of rock is this?</p>","3","class_response","1","test","40","Gabbro","Gabbro","08","true","4","4","","","","","","","","","","","","","","","",""
"","","","","","","","","","","","html-keyboard-response","219","2.0.0","1267558","5ba1beaecc5dd00001673e39","3","23","null","","","","","","","","","<p style='font-size: 30px;'><strong>Okay</strong></p>","null","neutral_feedback","1","test","40","","","","","","","","","","","","","","","","","","","","","",""
"","","","","","","","","","","","html-button-response","220","2.0.0","1269353","5ba1beaecc5dd00001673e39","3","23","1792","","","","","","","","","<img src= ""rock_img/I_Obsidian_16.jpg"" style=""width:8cm; height:9.3cm;""><p>What type of rock is this?</p>","4","class_response","1","test","41","Obsidian","Obsidian","16","true","5","5","","","","","","","","","","","","","","","",""
"","","","","","","","","","","","html-keyboard-response","221","2.0.0","1269856","5ba1beaecc5dd00001673e39","3","23","null","","","","","","","","","<p style='font-size: 30px;'><strong>Okay</strong></p>","null","neutral_feedback","1","test","41","","","","","","","","","","","","","","","","","","","","","",""
"","","","","","","","","","","","html-button-response","222","2.0.0","1271897","5ba1beaecc5dd00001673e39","3","23","2038","","","","","","","","","<img src= ""rock_img/I_Peridotite_16.jpg"" style=""width:8cm; height:6.989999999999999cm;""><p>What type of rock is this?</p>","6","class_response","1","test","42","Peridotite","Peridotite","16","true","7","7","","","","","","","","","","","","","","","",""
"","","","","","","","","","","","html-keyboard-response","223","2.0.0","1272407","5ba1beaecc5dd00001673e39","3","23","null","","","","","","","","","<p style='font-size: 30px;'><strong>Okay</strong></p>","null","neutral_feedback","1","test","42","","","","","","","","","","","","","","","","","","","","","",""
"","","","","","","","","","","","html-button-response","224","2.0.0","1279426","5ba1beaecc5dd00001673e39","3","23","7014","","","","","","","","","<img src= ""rock_img/I_Gabbro_13.jpg"" style=""width:8cm; height:5.08cm;""><p>What type of rock is this?</p>","3","class_response","1","test","43","Gabbro","Gabbro","13","true","4","4","","","","","","","","","","","","","","","",""
"","","","","","","","","","","","html-keyboard-response","225","2.0.0","1279941","5ba1beaecc5dd00001673e39","3","23","null","","","","","","","","","<p style='font-size: 30px;'><strong>Okay</strong></p>","null","neutral_feedback","1","test","43","","","","","","","","","","","","","","","","","","","","","",""
"","","","","","","","","","","","html-button-response","226","2.0.0","1281546","5ba1beaecc5dd00001673e39","3","23","1603","","","","","","","","","<img src= ""rock_img/I_Basalt_10.jpg"" style=""width:8cm; height:5.85cm;""><p>What type of rock is this?</p>","1","class_response","1","test","44","Basalt","Basalt","10","true","2","2","","","","","","","","","","","","","","","",""
"","","","","","","","","","","","html-keyboard-response","227","2.0.0","1282062","5ba1beaecc5dd00001673e39","3","23","null","","","","","","","","","<p style='font-size: 30px;'><strong>Okay</strong></p>","null","neutral_feedback","1","test","44","","","","","","","","","","","","","","","","","","","","","",""
"","","","","","","","","","","","html-button-response","228","2.0.0","1283765","5ba1beaecc5dd00001673e39","3","23","1698","","","","","","","","","<img src= ""rock_img/I_Pumice_10.jpg"" style=""width:8cm; height:7.609999999999999cm;""><p>What type of rock is this?</p>","7","class_response","1","test","45","Pumice","Pumice","10","true","8","8","","","","","","","","","","","","","","","",""
"","","","","","","","","","","","html-keyboard-response","229","2.0.0","1284271","5ba1beaecc5dd00001673e39","3","23","null","","","","","","","","","<p style='font-size: 30px;'><strong>Okay</strong></p>","null","neutral_feedback","1","test","45","","","","","","","","","","","","","","","","","","","","","",""
"","","","","","","","","","","","html-button-response","230","2.0.0","1285739","5ba1beaecc5dd00001673e39","3","23","1464","","","","","","","","","<img src= ""rock_img/I_Basalt_09.jpg"" style=""width:8cm; height:6.2cm;""><p>What type of rock is this?</p>","1","class_response","1","test","46","Basalt","Basalt","09","true","2","2","","","","","","","","","","","","","","","",""
"","","","","","","","","","","","html-keyboard-response","231","2.0.0","1286242","5ba1beaecc5dd00001673e39","3","23","null","","","","","","","","","<p style='font-size: 30px;'><strong>Okay</strong></p>","null","neutral_feedback","1","test","46","","","","","","","","","","","","","","","","","","","","","",""
"","","","","","","","","","","","html-button-response","232","2.0.0","1295696","5ba1beaecc5dd00001673e39","3","23","9449","","","","","","","","","<img src= ""rock_img/I_Basalt_16.jpg"" style=""width:8cm; height:7.659999999999999cm;""><p>What type of rock is this?</p>","1","class_response","1","test","47","Basalt","Basalt","16","true","2","2","","","","","","","","","","","","","","","",""
"","","","","","","","","","","","html-keyboard-response","233","2.0.0","1296199","5ba1beaecc5dd00001673e39","3","23","null","","","","","","","","","<p style='font-size: 30px;'><strong>Okay</strong></p>","null","neutral_feedback","1","test","47","","","","","","","","","","","","","","","","","","","","","",""
"","","","","","","","","","","","html-button-response","234","2.0.0","1300387","5ba1beaecc5dd00001673e39","3","23","4185","","","","","","","","","<img src= ""rock_img/I_Pegmatite_07.jpg"" style=""width:8cm; height:6.7cm;""><p>What type of rock is this?</p>","5","class_response","1","test","48","Pegmatite","Pegmatite","07","true","6","6","","","","","","","","","","","","","","","",""
"","","","","","","","","","","","html-keyboard-response","235","2.0.0","1300891","5ba1beaecc5dd00001673e39","3","23","null","","","","","","","","","<p style='font-size: 30px;'><strong>Okay</strong></p>","null","neutral_feedback","1","test","48","","","","","","","","","","","","","","","","","","","","","",""
"","","","","","","","","","","","html-button-response","236","2.0.0","1397977","5ba1beaecc5dd00001673e39","3","23","","","","","","","","","","","","cycle_feedback","","","","","","","","","","","","","","","","","","","","","","","53838.800000071526","43233.799999952316",""
"","","","","","","","","","","","html-button-response","238","2.0.0","1400536","5ba1beaecc5dd00001673e39","3","23","2556","","","","","","","","","","0","start_train","","","","","","","","","","","","","","","","","","","","","","","","",""
"","","","","","","","","","","","html-button-response","240","2.0.0","1405154","5ba1beaecc5dd00001673e39","3","23","4614","","","","","","","","","<img src= ""rock_img/I_Pegmatite_15.jpg"" style=""width:8cm; height:6cm;""><p>What type of rock is this?</p>","5","class_response","2","train","1","Pegmatite","Pegmatite","15","true","6","6","","","","","","","","","","","","","","","",""
"","","","","","","","","","","","html-button-response","241","2.0.0","1406855","5ba1beaecc5dd00001673e39","3","23","1698","","","","","","","","","<img src= rock_img/I_Pegmatite_15.jpg style=""width:8cm; height:6cm;""><p style='font-size: 30px; color: green;'><strong>Correct!</strong></p><p style='font-size: 30px;'><strong>This rock is pegmatite</strong></p>","0","corr_feedback","2","train","1","","","","","","","","","","","","","","","","","","","","","",""
"","","","","","","","","","","","html-button-response","242","2.0.0","1408722","5ba1beaecc5dd00001673e39","3","23","1864","","","","","","","","","<img src= ""rock_img/I_Obsidian_09.jpg"" style=""width:8cm; height:5cm;""><p>What type of rock is this?</p>","4","class_response","2","train","2","Obsidian","Obsidian","09","true","5","5","","","","","","","","","","","","","","","",""
"","","","","","","","","","","","html-button-response","243","2.0.0","1410071","5ba1beaecc5dd00001673e39","3","23","1346","","","","","","","","","<img src= rock_img/I_Obsidian_09.jpg style=""width:8cm; height:5cm;""><p style='font-size: 30px; color: green;'><strong>Correct!</strong></p><p style='font-size: 30px;'><strong>This rock is obsidian</strong></p>","0","corr_feedback","2","train","2","","","","","","","","","","","","","","","","","","","","","",""
"","","","","","","","","","","","html-button-response","244","2.0.0","1417300","5ba1beaecc5dd00001673e39","3","23","7225","","","","","","","","","<img src= ""rock_img/I_Andesite_01.jpg"" style=""width:8cm; height:5.87cm;""><p>What type of rock is this?</p>","0","class_response","2","train","3","Andesite","Andesite","01","true","1","1","","","","","","","","","","","","","","","",""
"","","","","","","","","","","","html-button-response","245","2.0.0","1424265","5ba1beaecc5dd00001673e39","3","23","6962","","","","","","","","","<img src= rock_img/I_Andesite_01.jpg style=""width:8cm; height:5.87cm;""><p style='font-size: 30px; color: green;'><strong>Correct!</strong></p><p style='font-size: 30px;'><strong>This rock is andesite</strong></p>","0","corr_feedback","2","train","3","","","","","","","","","","","","","","","","","","","","","",""
"","","","","","","","","","","","html-button-response","246","2.0.0","1426700","5ba1beaecc5dd00001673e39","3","23","2431","","","","","","","","","<img src= ""rock_img/I_Peridotite_15.jpg"" style=""width:8cm; height:6cm;""><p>What type of rock is this?</p>","6","class_response","2","train","4","Peridotite","Peridotite","15","true","7","7","","","","","","","","","","","","","","","",""
"","","","","","","","","","","","html-button-response","247","2.0.0","1430468","5ba1beaecc5dd00001673e39","3","23","3766","","","","","","","","","<img src= rock_img/I_Peridotite_15.jpg style=""width:8cm; height:6cm;""><p style='font-size: 30px; color: green;'><strong>Correct!</strong></p><p style='font-size: 30px;'><strong>This rock is peridotite</strong></p>","0","corr_feedback","2","train","4","","","","","","","","","","","","","","","","","","","","","",""
"","","","","","","","","","","","html-button-response","248","2.0.0","1431746","5ba1beaecc5dd00001673e39","3","23","1274","","","","","","","","","<img src= ""rock_img/I_Obsidian_10.jpg"" style=""width:8cm; height:6.260000000000001cm;""><p>What type of rock is this?</p>","4","class_response","2","train","5","Obsidian","Obsidian","10","true","5","5","","","","","","","","","","","","","","","",""
"","","","","","","","","","","","html-button-response","249","2.0.0","1432899","5ba1beaecc5dd00001673e39","3","23","1149","","","","","","","","","<img src= rock_img/I_Obsidian_10.jpg style=""width:8cm; height:6.260000000000001cm;""><p style='font-size: 30px; color: green;'><strong>Correct!</strong></p><p style='font-size: 30px;'><strong>This rock is obsidian</strong></p>","0","corr_feedback","2","train","5","","","","","","","","","","","","","","","","","","","","","",""
"","","","","","","","","","","","html-button-response","250","2.0.0","1435374","5ba1beaecc5dd00001673e39","3","23","2471","","","","","","","","","<img src= ""rock_img/I_Diorite_11.jpg"" style=""width:8cm; height:7.11cm;""><p>What type of rock is this?</p>","2","class_response","2","train","6","Diorite","Diorite","11","true","3","3","","","","","","","","","","","","","","","",""
"","","","","","","","","","","","html-button-response","251","2.0.0","1442936","5ba1beaecc5dd00001673e39","3","23","7559","","","","","","","","","<img src= rock_img/I_Diorite_11.jpg style=""width:8cm; height:7.11cm;""><p style='font-size: 30px; color: green;'><strong>Correct!</strong></p><p style='font-size: 30px;'><strong>This rock is diorite</strong></p>","0","corr_feedback","2","train","6","","","","","","","","","","","","","","","","","","","","","",""
"","","","","","","","","","","","html-button-response","252","2.0.0","1444279","5ba1beaecc5dd00001673e39","3","23","1339","","","","","","","","","<img src= ""rock_img/I_Pumice_02.jpg"" style=""width:8cm; height:7.3999999999999995cm;""><p>What type of rock is this?</p>","7","class_response","2","train","7","Pumice","Pumice","02","true","8","8","","","","","","","","","","","","","","","",""
"","","","","","","","","","","","html-button-response","253","2.0.0","1445258","5ba1beaecc5dd00001673e39","3","23","977","","","","","","","","","<img src= rock_img/I_Pumice_02.jpg style=""width:8cm; height:7.3999999999999995cm;""><p style='font-size: 30px; color: green;'><strong>Correct!</strong></p><p style='font-size: 30px;'><strong>This rock is pumice</strong></p>","0","corr_feedback","2","train","7","","","","","","","","","","","","","","","","","","","","","",""
"","","","","","","","","","","","html-button-response","254","2.0.0","1457763","5ba1beaecc5dd00001673e39","3","23","12501","","","","","","","","","<img src= ""rock_img/I_Gabbro_01.jpg"" style=""width:8cm; height:5.21cm;""><p>What type of rock is this?</p>","0","class_response","2","train","8","Andesite","Gabbro","01","false","1","4","","","","","","","","","","","","","","","",""
"","","","","","","","","","","","html-button-response","255","2.0.0","1461367","5ba1beaecc5dd00001673e39","3","23","3601","","","","","","","","","<img src= rock_img/I_Gabbro_01.jpg style=""width:8cm; height:5.21cm;""><p style='font-size: 30px; color: red;'><strong>Incorrect!</strong></p><p style='font-size: 30px;'><strong>This rock is gabbro</strong></p>","0","corr_feedback","2","train","8","","","","","","","","","","","","","","","","","","","","","",""
"","","","","","","","","","","","html-button-response","256","2.0.0","1465377","5ba1beaecc5dd00001673e39","3","23","4004","","","","","","","","","<img src= ""rock_img/I_Basalt_14.jpg"" style=""width:8cm; height:5.82cm;""><p>What type of rock is this?</p>","1","class_response","2","train","9","Basalt","Basalt","14","true","2","2","","","","","","","","","","","","","","","",""
"","","","","","","","","","","","html-button-response","257","2.0.0","1469246","5ba1beaecc5dd00001673e39","3","23","3867","","","","","","","","","<img src= rock_img/I_Basalt_14.jpg style=""width:8cm; height:5.82cm;""><p style='font-size: 30px; color: green;'><strong>Correct!</strong></p><p style='font-size: 30px;'><strong>This rock is basalt</strong></p>","0","corr_feedback","2","train","9","","","","","","","","","","","","","","","","","","","","","",""
"","","","","","","","","","","","html-button-response","258","2.0.0","1471293","5ba1beaecc5dd00001673e39","3","23","2043","","","","","","","","","<img src= ""rock_img/I_Diorite_13.jpg"" style=""width:8cm; height:6.29cm;""><p>What type of rock is this?</p>","2","class_response","2","train","10","Diorite","Diorite","13","true","3","3","","","","","","","","","","","","","","","",""
"","","","","","","","","","","","html-button-response","259","2.0.0","1473879","5ba1beaecc5dd00001673e39","3","23","2583","","","","","","","","","<img src= rock_img/I_Diorite_13.jpg style=""width:8cm; height:6.29cm;""><p style='font-size: 30px; color: green;'><strong>Correct!</strong></p><p style='font-size: 30px;'><strong>This rock is diorite</strong></p>","0","corr_feedback","2","train","10","","","","","","","","","","","","","","","","","","","","","",""
"","","","","","","","","","","","html-button-response","260","2.0.0","1476683","5ba1beaecc5dd00001673e39","3","23","2800","","","","","","","","","<img src= ""rock_img/I_Gabbro_09.jpg"" style=""width:8cm; height:7.279999999999999cm;""><p>What type of rock is this?</p>","3","class_response","2","train","11","Gabbro","Gabbro","09","true","4","4","","","","","","","","","","","","","","","",""
"","","","","","","","","","","","html-button-response","261","2.0.0","1482316","5ba1beaecc5dd00001673e39","3","23","5629","","","","","","","","","<img src= rock_img/I_Gabbro_09.jpg style=""width:8cm; height:7.279999999999999cm;""><p style='font-size: 30px; color: green;'><strong>Correct!</strong></p><p style='font-size: 30px;'><strong>This rock is gabbro</strong></p>","0","corr_feedback","2","train","11","","","","","","","","","","","","","","","","","","","","","",""
"","","","","","","","","","","","html-button-response","262","2.0.0","1491626","5ba1beaecc5dd00001673e39","3","23","9305","","","","","","","","","<img src= ""rock_img/I_Andesite_10.jpg"" style=""width:8cm; height:4.16cm;""><p>What type of rock is this?</p>","1","class_response","2","train","12","Basalt","Andesite","10","false","2","1","","","","","","","","","","","","","","","",""
"","","","","","","","","","","","html-button-response","263","2.0.0","1492981","5ba1beaecc5dd00001673e39","3","23","1351","","","","","","","","","<img src= rock_img/I_Andesite_10.jpg style=""width:8cm; height:4.16cm;""><p style='font-size: 30px; color: red;'><strong>Incorrect!</strong></p><p style='font-size: 30px;'><strong>This rock is andesite</strong></p>","0","corr_feedback","2","train","12","","","","","","","","","","","","","","","","","","","","","",""
"","","","","","","","","","","","html-button-response","265","2.0.0","1497497","5ba1beaecc5dd00001673e39","3","23","4512","","","","","","","","","","0","start_train","","","","","","","","","","","","","","","","","","","","","","","","",""
"","","","","","","","","","","","html-button-response","266","2.0.0","1503313","5ba1beaecc5dd00001673e39","3","23","","","","","","","","","","","","cat_selection","2","train","1","","","","","","","1","4","5811.599999904633","Andesite","Gabbro","[0.19858184377177585,0.12961354504301675,0.16409769440739633,0.1243409221367119,0.04482737759534306,0.17910749279972607,0.06957435147369771,0.08985677277233235]","[null,0.12952261778467009,0.12309171043113161,0.6368692791182251,0.029390349199315248,0.02209942089917338,0.028541669714642642,0.030484952852841835]","","","","","","","","",""
"","","","","","","","","","","","paired-cat-display","267","1.0.0","1609024","5ba1beaecc5dd00001673e39","3","23","","","","","","","","","","","","paired_cat_display","2","train","1","","","","","","","","","20710.5","","","","","","","84992.89999997616","","","Mostly solid in color with bits of white","","","Looks like a composite material, like broken pieces of concrete"
"","","","","","","","","","","","html-button-response","268","2.0.0","1612681","5ba1beaecc5dd00001673e39","3","23","","","","","","","","","","","","cat_selection","2","train","2","","","","","","","1","3","3652.100000023842","Andesite","Diorite","[0.19858184377177585,0.12961354504301675,0.16409769440739633,0.1243409221367119,0.04482737759534306,0.17910749279972607,0.06957435147369771,0.08985677277233235]","[null,0.12952261778467009,0.12309171043113161,0.6368692791182251,0.029390349199315248,0.02209942089917338,0.028541669714642642,0.030484952852841835]","","","","","","","","",""
"","","","","","","","","","","","paired-cat-display","269","1.0.0","1669882","5ba1beaecc5dd00001673e39","3","23","","","","","","","","","","","","paired_cat_display","2","train","2","","","","","","","","","9847.599999904633","","","","","","","47345.10000002384","Lighter in color with dark spots","","","","","Looks like pieces of concrete"
"","","","","","","","","","","","html-button-response","270","2.0.0","1673571","5ba1beaecc5dd00001673e39","3","23","","","","","","","","","","","","cat_selection","2","train","3","","","","","","","2","8","3686.100000023842","Basalt","Pumice","[0.19858184377177585,0.12961354504301675,0.16409769440739633,0.1243409221367119,0.04482737759534306,0.17910749279972607,0.06957435147369771,0.08985677277233235]","[0.028180768012298473,null,0.022444416123572834,0.08881334895155726,0.15223645216332277,0.022063662635762222,0.02855150167148249,0.6577098504420039]","","","","","","","","",""
"","","","","","","","","","","","paired-cat-display","271","1.0.0","1723394","5ba1beaecc5dd00001673e39","3","23","","","","","","","","","","","","paired_cat_display","2","train","3","","","","","","","","","9795.399999976158","","","","","Dull, sandy appearance
Mostly dark in color
Slightly open texture","Light in color
Airy, spongy appearance","40019.200000047684","","","","","",""
"","","","","","","","","","","","html-button-response","273","2.0.0","1725573","5ba1beaecc5dd00001673e39","3","23","2175","","","","","","","","","","0","start_test","","","","","","","","","","","","","","","","","","","","","","","","",""
"","","","","","","","","","","","html-button-response","274","2.0.0","1730479","5ba1beaecc5dd00001673e39","3","23","4902","","","","","","","","","<img src= ""rock_img/I_Pegmatite_16.jpg"" style=""width:8cm; height:5.8cm;""><p>What type of rock is this?</p>","5","class_response","2","test","1","Pegmatite","Pegmatite","16","true","6","6","","","","","","","","","","","","","","","",""
"","","","","","","","","","","","html-keyboard-response","275","2.0.0","1730982","5ba1beaecc5dd00001673e39","3","23","null","","","","","","","","","<p style='font-size: 30px;'><strong>Okay</strong></p>","null","neutral_feedback","2","test","1","","","","","","","","","","","","","","","","","","","","","",""
"","","","","","","","","","","","html-button-response","276","2.0.0","1739244","5ba1beaecc5dd00001673e39","3","23","8258","","","","","","","","","<img src= ""rock_img/I_Pegmatite_06.jpg"" style=""width:8cm; height:5.17cm;""><p>What type of rock is this?</p>","5","class_response","2","test","2","Pegmatite","Pegmatite","06","true","6","6","","","","","","","","","","","","","","","",""
"","","","","","","","","","","","html-keyboard-response","277","2.0.0","1739762","5ba1beaecc5dd00001673e39","3","23","null","","","","","","","","","<p style='font-size: 30px;'><strong>Okay</strong></p>","null","neutral_feedback","2","test","2","","","","","","","","","","","","","","","","","","","","","",""
