"width","height","webaudio","browser","browser_version","mobile","os","fullscreen","vsync_rate","webcam","microphone","trial_type","trial_index","plugin_version","time_elapsed","subjID","condition","stimID","rt","url","success","value","timeout","failed_images","failed_audio","failed_video","view_history","stimulus","response","trialType","cycle","phase","trial","resp","cat","token","corr","resp_num","cat_num","ref_cat_num","paired_cat_num","time_obs","ref_cat","paired_cat","ref_prob_dist","paired_prob_dist","text_Andesite","text_Gabbro","time_resp","text_Pegmatite","text_Diorite","time_fb1","time_fb2","text_Peridotite","text_Basalt"
"1920","911","true","chrome","129.0.0","false","Chrome OS","true","59.42","true","true","browser-check","0","2.0.0","1055","5ec17a2e02be030625eaff6e","3","50","","","","","","","","","","","","","","","","","","","","","","","","","","","","","","","","","","","","",""
"","","","","","","","","","","","external-html","1","2.0.0","9668","5ec17a2e02be030625eaff6e","3","50","7988","consent_form.html","","","","","","","","","","","","","","","","","","","","","","","","","","","","","","","","","","",""
"","","","","","","","","","","","fullscreen","2","2.0.0","12609","5ec17a2e02be030625eaff6e","3","50","1927","","true","","","","","","","","","","","","","","","","","","","","","","","","","","","","","","","","","",""
"","","","","","","","","","","","call-function","3","2.0.0","12613","5ec17a2e02be030625eaff6e","3","50","","","","{}","","","","","","","","","","","","","","","","","","","","","","","","","","","","","","","","",""
"","","","","","","","","","","","preload","4","2.0.0","32250","5ec17a2e02be030625eaff6e","3","50","","","true","","false","[]","[]","[]","","","","","","","","","","","","","","","","","","","","","","","","","","","","",""
"","","","","","","","","","","","instructions","5","2.0.0","59827","5ec17a2e02be030625eaff6e","3","50","27574","","","","","","","","[{""page_index"":0,""viewing_time"":10582},{""page_index"":1,""viewing_time"":11179},{""page_index"":2,""viewing_time"":5813}]","","","","","","","","","","","","","","","","","","","","","","","","","","","",""
"","","","","","","","","","","","html-button-response","6","2.0.0","61691","5ec17a2e02be030625eaff6e","3","50","1856","","","","","","","","","","0","start_test","","","","","","","","","","","","","","","","","","","","","","","","",""
"","","","","","","","","","","","html-button-response","7","2.0.0","64618","5ec17a2e02be030625eaff6e","3","50","2919","","","","","","","","","<img src= ""rock_img/I_Gabbro_08.jpg"" style=""width:8cm; height:5.15cm;""><p>What type of rock is this?</p>","1","class_response","0","test","1","Basalt","Gabbro","08","false","2","4","","","","","","","","","","","","","","","",""
"","","","","","","","","","","","html-keyboard-response","8","2.0.0","65127","5ec17a2e02be030625eaff6e","3","50","null","","","","","","","","","<p style='font-size: 30px;'><strong>Okay</strong></p>","null","neutral_feedback","0","test","1","","","","","","","","","","","","","","","","","","","","","",""
"","","","","","","","","","","","html-button-response","9","2.0.0","68122","5ec17a2e02be030625eaff6e","3","50","2987","","","","","","","","","<img src= ""rock_img/I_Pegmatite_12.jpg"" style=""width:8cm; height:5.7cm;""><p>What type of rock is this?</p>","3","class_response","0","test","2","Gabbro","Pegmatite","12","false","4","6","","","","","","","","","","","","","","","",""
"","","","","","","","","","","","html-keyboard-response","10","2.0.0","68626","5ec17a2e02be030625eaff6e","3","50","null","","","","","","","","","<p style='font-size: 30px;'><strong>Okay</strong></p>","null","neutral_feedback","0","test","2","","","","","","","","","","","","","","","","","","","","","",""
"","","","","","","","","","","","html-button-response","11","2.0.0","71895","5ec17a2e02be030625eaff6e","3","50","3261","","","","","","","","","<img src= ""rock_img/I_Peridotite_13.jpg"" style=""width:8cm; height:7.58cm;""><p>What type of rock is this?</p>","6","class_response","0","test","3","Peridotite","Peridotite","13","true","7","7","","","","","","","","","","","","","","","",""
"","","","","","","","","","","","html-keyboard-response","12","2.0.0","72400","5ec17a2e02be030625eaff6e","3","50","null","","","","","","","","","<p style='font-size: 30px;'><strong>Okay</strong></p>","null","neutral_feedback","0","test","3","","","","","","","","","","","","","","","","","","","","","",""
"","","","","","","","","","","","html-button-response","13","2.0.0","75589","5ec17a2e02be030625eaff6e","3","50","3180","","","","","","","","","<img src= ""rock_img/I_Obsidian_05.jpg"" style=""width:8cm; height:6.33cm;""><p>What type of rock is this?</p>","4","class_response","0","test","4","Obsidian","Obsidian","05","true","5","5","","","","","","","","","","","","","","","",""
"","","","","","","","","","","","html-keyboard-response","14","2.0.0","76094","5ec17a2e02be030625eaff6e","3","50","null","","","","","","","","","<p style='font-size: 30px;'><strong>Okay</strong></p>","null","neutral_feedback","0","test","4","","","","","","","","","","","","","","","","","","","","","",""
"","","","","","","","","","","","html-button-response","15","2.0.0","78388","5ec17a2e02be030625eaff6e","3","50","2287","","","","","","","","","<img src= ""rock_img/I_Obsidian_14.jpg"" style=""width:8cm; height:7.64cm;""><p>What type of rock is this?</p>","1","class_response","0","test","5","Basalt","Obsidian","14","false","2","5","","","","","","","","","","","","","","","",""
"","","","","","","","","","","","html-keyboard-response","16","2.0.0","78893","5ec17a2e02be030625eaff6e","3","50","null","","","","","","","","","<p style='font-size: 30px;'><strong>Okay</strong></p>","null","neutral_feedback","0","test","5","","","","","","","","","","","","","","","","","","","","","",""
"","","","","","","","","","","","html-button-response","17","2.0.0","80618","5ec17a2e02be030625eaff6e","3","50","1719","","","","","","","","","<img src= ""rock_img/I_Gabbro_15.jpg"" style=""width:8cm; height:6.29cm;""><p>What type of rock is this?</p>","0","class_response","0","test","6","Andesite","Gabbro","15","false","1","4","","","","","","","","","","","","","","","",""
"","","","","","","","","","","","html-keyboard-response","18","2.0.0","81122","5ec17a2e02be030625eaff6e","3","50","null","","","","","","","","","<p style='font-size: 30px;'><strong>Okay</strong></p>","null","neutral_feedback","0","test","6","","","","","","","","","","","","","","","","","","","","","",""
"","","","","","","","","","","","html-button-response","19","2.0.0","83474","5ec17a2e02be030625eaff6e","3","50","2349","","","","","","","","","<img src= ""rock_img/I_Peridotite_12.jpg"" style=""width:8cm; height:4.54cm;""><p>What type of rock is this?</p>","5","class_response","0","test","7","Pegmatite","Peridotite","12","false","6","7","","","","","","","","","","","","","","","",""
"","","","","","","","","","","","html-keyboard-response","20","2.0.0","83977","5ec17a2e02be030625eaff6e","3","50","null","","","","","","","","","<p style='font-size: 30px;'><strong>Okay</strong></p>","null","neutral_feedback","0","test","7","","","","","","","","","","","","","","","","","","","","","",""
"","","","","","","","","","","","html-button-response","21","2.0.0","85385","5ec17a2e02be030625eaff6e","3","50","1402","","","","","","","","","<img src= ""rock_img/I_Diorite_11.jpg"" style=""width:8cm; height:7.11cm;""><p>What type of rock is this?</p>","2","class_response","0","test","8","Diorite","Diorite","11","true","3","3","","","","","","","","","","","","","","","",""
"","","","","","","","","","","","html-keyboard-response","22","2.0.0","85888","5ec17a2e02be030625eaff6e","3","50","null","","","","","","","","","<p style='font-size: 30px;'><strong>Okay</strong></p>","null","neutral_feedback","0","test","8","","","","","","","","","","","","","","","","","","","","","",""
"","","","","","","","","","","","html-button-response","23","2.0.0","87792","5ec17a2e02be030625eaff6e","3","50","1897","","","","","","","","","<img src= ""rock_img/I_Obsidian_02.jpg"" style=""width:8cm; height:7.51cm;""><p>What type of rock is this?</p>","4","class_response","0","test","9","Obsidian","Obsidian","02","true","5","5","","","","","","","","","","","","","","","",""
"","","","","","","","","","","","html-keyboard-response","24","2.0.0","88296","5ec17a2e02be030625eaff6e","3","50","null","","","","","","","","","<p style='font-size: 30px;'><strong>Okay</strong></p>","null","neutral_feedback","0","test","9","","","","","","","","","","","","","","","","","","","","","",""
"","","","","","","","","","","","html-button-response","25","2.0.0","91198","5ec17a2e02be030625eaff6e","3","50","2895","","","","","","","","","<img src= ""rock_img/I_Basalt_16.jpg"" style=""width:8cm; height:7.659999999999999cm;""><p>What type of rock is this?</p>","7","class_response","0","test","10","Pumice","Basalt","16","false","8","2","","","","","","","","","","","","","","","",""
"","","","","","","","","","","","html-keyboard-response","26","2.0.0","91702","5ec17a2e02be030625eaff6e","3","50","null","","","","","","","","","<p style='font-size: 30px;'><strong>Okay</strong></p>","null","neutral_feedback","0","test","10","","","","","","","","","","","","","","","","","","","","","",""
"","","","","","","","","","","","html-button-response","27","2.0.0","94155","5ec17a2e02be030625eaff6e","3","50","2450","","","","","","","","","<img src= ""rock_img/I_Diorite_12.jpg"" style=""width:8cm; height:4.88cm;""><p>What type of rock is this?</p>","5","class_response","0","test","11","Pegmatite","Diorite","12","false","6","3","","","","","","","","","","","","","","","",""
"","","","","","","","","","","","html-keyboard-response","28","2.0.0","94657","5ec17a2e02be030625eaff6e","3","50","null","","","","","","","","","<p style='font-size: 30px;'><strong>Okay</strong></p>","null","neutral_feedback","0","test","11","","","","","","","","","","","","","","","","","","","","","",""
"","","","","","","","","","","","html-button-response","29","2.0.0","96580","5ec17a2e02be030625eaff6e","3","50","1916","","","","","","","","","<img src= ""rock_img/I_Peridotite_15.jpg"" style=""width:8cm; height:6cm;""><p>What type of rock is this?</p>","6","class_response","0","test","12","Peridotite","Peridotite","15","true","7","7","","","","","","","","","","","","","","","",""
"","","","","","","","","","","","html-keyboard-response","30","2.0.0","97084","5ec17a2e02be030625eaff6e","3","50","null","","","","","","","","","<p style='font-size: 30px;'><strong>Okay</strong></p>","null","neutral_feedback","0","test","12","","","","","","","","","","","","","","","","","","","","","",""
"","","","","","","","","","","","html-button-response","31","2.0.0","101617","5ec17a2e02be030625eaff6e","3","50","4527","","","","","","","","","<img src= ""rock_img/I_Peridotite_14.jpg"" style=""width:8cm; height:5.3cm;""><p>What type of rock is this?</p>","0","class_response","0","test","13","Andesite","Peridotite","14","false","1","7","","","","","","","","","","","","","","","",""
"","","","","","","","","","","","html-keyboard-response","32","2.0.0","102121","5ec17a2e02be030625eaff6e","3","50","null","","","","","","","","","<p style='font-size: 30px;'><strong>Okay</strong></p>","null","neutral_feedback","0","test","13","","","","","","","","","","","","","","","","","","","","","",""
"","","","","","","","","","","","html-button-response","33","2.0.0","104583","5ec17a2e02be030625eaff6e","3","50","2457","","","","","","","","","<img src= ""rock_img/I_Diorite_10.jpg"" style=""width:8cm; height:5.949999999999999cm;""><p>What type of rock is this?</p>","3","class_response","0","test","14","Gabbro","Diorite","10","false","4","3","","","","","","","","","","","","","","","",""
"","","","","","","","","","","","html-keyboard-response","34","2.0.0","105086","5ec17a2e02be030625eaff6e","3","50","null","","","","","","","","","<p style='font-size: 30px;'><strong>Okay</strong></p>","null","neutral_feedback","0","test","14","","","","","","","","","","","","","","","","","","","","","",""
"","","","","","","","","","","","html-button-response","35","2.0.0","107231","5ec17a2e02be030625eaff6e","3","50","2139","","","","","","","","","<img src= ""rock_img/I_Gabbro_11.jpg"" style=""width:8cm; height:6.2cm;""><p>What type of rock is this?</p>","1","class_response","0","test","15","Basalt","Gabbro","11","false","2","4","","","","","","","","","","","","","","","",""
"","","","","","","","","","","","html-keyboard-response","36","2.0.0","107734","5ec17a2e02be030625eaff6e","3","50","null","","","","","","","","","<p style='font-size: 30px;'><strong>Okay</strong></p>","null","neutral_feedback","0","test","15","","","","","","","","","","","","","","","","","","","","","",""
"","","","","","","","","","","","html-button-response","37","2.0.0","111102","5ec17a2e02be030625eaff6e","3","50","3361","","","","","","","","","<img src= ""rock_img/I_Gabbro_10.jpg"" style=""width:8cm; height:5.680000000000001cm;""><p>What type of rock is this?</p>","0","class_response","0","test","16","Andesite","Gabbro","10","false","1","4","","","","","","","","","","","","","","","",""
"","","","","","","","","","","","html-keyboard-response","38","2.0.0","111606","5ec17a2e02be030625eaff6e","3","50","null","","","","","","","","","<p style='font-size: 30px;'><strong>Okay</strong></p>","null","neutral_feedback","0","test","16","","","","","","","","","","","","","","","","","","","","","",""
"","","","","","","","","","","","html-button-response","39","2.0.0","113109","5ec17a2e02be030625eaff6e","3","50","1497","","","","","","","","","<img src= ""rock_img/I_Obsidian_10.jpg"" style=""width:8cm; height:6.260000000000001cm;""><p>What type of rock is this?</p>","4","class_response","0","test","17","Obsidian","Obsidian","10","true","5","5","","","","","","","","","","","","","","","",""
"","","","","","","","","","","","html-keyboard-response","40","2.0.0","113612","5ec17a2e02be030625eaff6e","3","50","null","","","","","","","","","<p style='font-size: 30px;'><strong>Okay</strong></p>","null","neutral_feedback","0","test","17","","","","","","","","","","","","","","","","","","","","","",""
"","","","","","","","","","","","html-button-response","41","2.0.0","115403","5ec17a2e02be030625eaff6e","3","50","1786","","","","","","","","","<img src= ""rock_img/I_Basalt_01.jpg"" style=""width:8cm; height:7.880000000000001cm;""><p>What type of rock is this?</p>","1","class_response","0","test","18","Basalt","Basalt","01","true","2","2","","","","","","","","","","","","","","","",""
"","","","","","","","","","","","html-keyboard-response","42","2.0.0","115907","5ec17a2e02be030625eaff6e","3","50","null","","","","","","","","","<p style='font-size: 30px;'><strong>Okay</strong></p>","null","neutral_feedback","0","test","18","","","","","","","","","","","","","","","","","","","","","",""
"","","","","","","","","","","","html-button-response","43","2.0.0","118207","5ec17a2e02be030625eaff6e","3","50","2296","","","","","","","","","<img src= ""rock_img/I_Andesite_01.jpg"" style=""width:8cm; height:5.87cm;""><p>What type of rock is this?</p>","2","class_response","0","test","19","Diorite","Andesite","01","false","3","1","","","","","","","","","","","","","","","",""
"","","","","","","","","","","","html-keyboard-response","44","2.0.0","118709","5ec17a2e02be030625eaff6e","3","50","null","","","","","","","","","<p style='font-size: 30px;'><strong>Okay</strong></p>","null","neutral_feedback","0","test","19","","","","","","","","","","","","","","","","","","","","","",""
"","","","","","","","","","","","html-button-response","45","2.0.0","121920","5ec17a2e02be030625eaff6e","3","50","3205","","","","","","","","","<img src= ""rock_img/I_Pegmatite_03.jpg"" style=""width:8cm; height:5.239999999999999cm;""><p>What type of rock is this?</p>","0","class_response","0","test","20","Andesite","Pegmatite","03","false","1","6","","","","","","","","","","","","","","","",""
"","","","","","","","","","","","html-keyboard-response","46","2.0.0","122424","5ec17a2e02be030625eaff6e","3","50","null","","","","","","","","","<p style='font-size: 30px;'><strong>Okay</strong></p>","null","neutral_feedback","0","test","20","","","","","","","","","","","","","","","","","","","","","",""
"","","","","","","","","","","","html-button-response","47","2.0.0","124641","5ec17a2e02be030625eaff6e","3","50","2209","","","","","","","","","<img src= ""rock_img/I_Basalt_08.jpg"" style=""width:8cm; height:10.44cm;""><p>What type of rock is this?</p>","1","class_response","0","test","21","Basalt","Basalt","08","true","2","2","","","","","","","","","","","","","","","",""
"","","","","","","","","","","","html-keyboard-response","48","2.0.0","125145","5ec17a2e02be030625eaff6e","3","50","null","","","","","","","","","<p style='font-size: 30px;'><strong>Okay</strong></p>","null","neutral_feedback","0","test","21","","","","","","","","","","","","","","","","","","","","","",""
"","","","","","","","","","","","html-button-response","49","2.0.0","129468","5ec17a2e02be030625eaff6e","3","50","4318","","","","","","","","","<img src= ""rock_img/I_Pegmatite_05.jpg"" style=""width:8cm; height:7.300000000000001cm;""><p>What type of rock is this?</p>","3","class_response","0","test","22","Gabbro","Pegmatite","05","false","4","6","","","","","","","","","","","","","","","",""
"","","","","","","","","","","","html-keyboard-response","50","2.0.0","129970","5ec17a2e02be030625eaff6e","3","50","null","","","","","","","","","<p style='font-size: 30px;'><strong>Okay</strong></p>","null","neutral_feedback","0","test","22","","","","","","","","","","","","","","","","","","","","","",""
"","","","","","","","","","","","html-button-response","51","2.0.0","132124","5ec17a2e02be030625eaff6e","3","50","2148","","","","","","","","","<img src= ""rock_img/I_Diorite_09.jpg"" style=""width:8cm; height:5.27cm;""><p>What type of rock is this?</p>","3","class_response","0","test","23","Gabbro","Diorite","09","false","4","3","","","","","","","","","","","","","","","",""
"","","","","","","","","","","","html-keyboard-response","52","2.0.0","132628","5ec17a2e02be030625eaff6e","3","50","null","","","","","","","","","<p style='font-size: 30px;'><strong>Okay</strong></p>","null","neutral_feedback","0","test","23","","","","","","","","","","","","","","","","","","","","","",""
"","","","","","","","","","","","html-button-response","53","2.0.0","134387","5ec17a2e02be030625eaff6e","3","50","1753","","","","","","","","","<img src= ""rock_img/I_Pumice_04.jpg"" style=""width:8cm; height:6.819999999999999cm;""><p>What type of rock is this?</p>","7","class_response","0","test","24","Pumice","Pumice","04","true","8","8","","","","","","","","","","","","","","","",""
"","","","","","","","","","","","html-keyboard-response","54","2.0.0","134891","5ec17a2e02be030625eaff6e","3","50","null","","","","","","","","","<p style='font-size: 30px;'><strong>Okay</strong></p>","null","neutral_feedback","0","test","24","","","","","","","","","","","","","","","","","","","","","",""
"","","","","","","","","","","","html-button-response","55","2.0.0","137504","5ec17a2e02be030625eaff6e","3","50","2608","","","","","","","","","<img src= ""rock_img/I_Gabbro_05.jpg"" style=""width:8cm; height:6cm;""><p>What type of rock is this?</p>","0","class_response","0","test","25","Andesite","Gabbro","05","false","1","4","","","","","","","","","","","","","","","",""
"","","","","","","","","","","","html-keyboard-response","56","2.0.0","138006","5ec17a2e02be030625eaff6e","3","50","null","","","","","","","","","<p style='font-size: 30px;'><strong>Okay</strong></p>","null","neutral_feedback","0","test","25","","","","","","","","","","","","","","","","","","","","","",""
"","","","","","","","","","","","html-button-response","57","2.0.0","139849","5ec17a2e02be030625eaff6e","3","50","1838","","","","","","","","","<img src= ""rock_img/I_Diorite_07.jpg"" style=""width:8cm; height:5.239999999999999cm;""><p>What type of rock is this?</p>","3","class_response","0","test","26","Gabbro","Diorite","07","false","4","3","","","","","","","","","","","","","","","",""
"","","","","","","","","","","","html-keyboard-response","58","2.0.0","140354","5ec17a2e02be030625eaff6e","3","50","null","","","","","","","","","<p style='font-size: 30px;'><strong>Okay</strong></p>","null","neutral_feedback","0","test","26","","","","","","","","","","","","","","","","","","","","","",""
"","","","","","","","","","","","html-button-response","59","2.0.0","145031","5ec17a2e02be030625eaff6e","3","50","4670","","","","","","","","","<img src= ""rock_img/I_Andesite_06.jpg"" style=""width:8cm; height:6.840000000000001cm;""><p>What type of rock is this?</p>","5","class_response","0","test","27","Pegmatite","Andesite","06","false","6","1","","","","","","","","","","","","","","","",""
"","","","","","","","","","","","html-keyboard-response","60","2.0.0","145535","5ec17a2e02be030625eaff6e","3","50","null","","","","","","","","","<p style='font-size: 30px;'><strong>Okay</strong></p>","null","neutral_feedback","0","test","27","","","","","","","","","","","","","","","","","","","","","",""
"","","","","","","","","","","","html-button-response","61","2.0.0","148573","5ec17a2e02be030625eaff6e","3","50","3032","","","","","","","","","<img src= ""rock_img/I_Andesite_14.jpg"" style=""width:8cm; height:5.449999999999999cm;""><p>What type of rock is this?</p>","3","class_response","0","test","28","Gabbro","Andesite","14","false","4","1","","","","","","","","","","","","","","","",""
"","","","","","","","","","","","html-keyboard-response","62","2.0.0","149076","5ec17a2e02be030625eaff6e","3","50","null","","","","","","","","","<p style='font-size: 30px;'><strong>Okay</strong></p>","null","neutral_feedback","0","test","28","","","","","","","","","","","","","","","","","","","","","",""
"","","","","","","","","","","","html-button-response","63","2.0.0","152387","5ec17a2e02be030625eaff6e","3","50","3305","","","","","","","","","<img src= ""rock_img/I_Andesite_09.jpg"" style=""width:8cm; height:6cm;""><p>What type of rock is this?</p>","7","class_response","0","test","29","Pumice","Andesite","09","false","8","1","","","","","","","","","","","","","","","",""
"","","","","","","","","","","","html-keyboard-response","64","2.0.0","152892","5ec17a2e02be030625eaff6e","3","50","null","","","","","","","","","<p style='font-size: 30px;'><strong>Okay</strong></p>","null","neutral_feedback","0","test","29","","","","","","","","","","","","","","","","","","","","","",""
"","","","","","","","","","","","html-button-response","65","2.0.0","155280","5ec17a2e02be030625eaff6e","3","50","2383","","","","","","","","","<img src= ""rock_img/I_Pumice_15.jpg"" style=""width:8cm; height:7.86cm;""><p>What type of rock is this?</p>","7","class_response","0","test","30","Pumice","Pumice","15","true","8","8","","","","","","","","","","","","","","","",""
"","","","","","","","","","","","html-keyboard-response","66","2.0.0","155782","5ec17a2e02be030625eaff6e","3","50","null","","","","","","","","","<p style='font-size: 30px;'><strong>Okay</strong></p>","null","neutral_feedback","0","test","30","","","","","","","","","","","","","","","","","","","","","",""
"","","","","","","","","","","","html-button-response","67","2.0.0","157433","5ec17a2e02be030625eaff6e","3","50","1645","","","","","","","","","<img src= ""rock_img/I_Pumice_05.jpg"" style=""width:8cm; height:7.25cm;""><p>What type of rock is this?</p>","7","class_response","0","test","31","Pumice","Pumice","05","true","8","8","","","","","","","","","","","","","","","",""
"","","","","","","","","","","","html-keyboard-response","68","2.0.0","157937","5ec17a2e02be030625eaff6e","3","50","null","","","","","","","","","<p style='font-size: 30px;'><strong>Okay</strong></p>","null","neutral_feedback","0","test","31","","","","","","","","","","","","","","","","","","","","","",""
"","","","","","","","","","","","html-button-response","69","2.0.0","160095","5ec17a2e02be030625eaff6e","3","50","2153","","","","","","","","","<img src= ""rock_img/I_Basalt_09.jpg"" style=""width:8cm; height:6.2cm;""><p>What type of rock is this?</p>","1","class_response","0","test","32","Basalt","Basalt","09","true","2","2","","","","","","","","","","","","","","","",""
"","","","","","","","","","","","html-keyboard-response","70","2.0.0","160599","5ec17a2e02be030625eaff6e","3","50","null","","","","","","","","","<p style='font-size: 30px;'><strong>Okay</strong></p>","null","neutral_feedback","0","test","32","","","","","","","","","","","","","","","","","","","","","",""
"","","","","","","","","","","","html-button-response","71","2.0.0","165573","5ec17a2e02be030625eaff6e","3","50","4968","","","","","","","","","<img src= ""rock_img/I_Pegmatite_07.jpg"" style=""width:8cm; height:6.7cm;""><p>What type of rock is this?</p>","0","class_response","0","test","33","Andesite","Pegmatite","07","false","1","6","","","","","","","","","","","","","","","",""
"","","","","","","","","","","","html-keyboard-response","72","2.0.0","166077","5ec17a2e02be030625eaff6e","3","50","null","","","","","","","","","<p style='font-size: 30px;'><strong>Okay</strong></p>","null","neutral_feedback","0","test","33","","","","","","","","","","","","","","","","","","","","","",""
"","","","","","","","","","","","html-button-response","73","2.0.0","169148","5ec17a2e02be030625eaff6e","3","50","3065","","","","","","","","","<img src= ""rock_img/I_Andesite_11.jpg"" style=""width:8cm; height:4.92cm;""><p>What type of rock is this?</p>","7","class_response","0","test","34","Pumice","Andesite","11","false","8","1","","","","","","","","","","","","","","","",""
"","","","","","","","","","","","html-keyboard-response","74","2.0.0","169652","5ec17a2e02be030625eaff6e","3","50","null","","","","","","","","","<p style='font-size: 30px;'><strong>Okay</strong></p>","null","neutral_feedback","0","test","34","","","","","","","","","","","","","","","","","","","","","",""
"","","","","","","","","","","","html-button-response","75","2.0.0","171378","5ec17a2e02be030625eaff6e","3","50","1721","","","","","","","","","<img src= ""rock_img/I_Basalt_02.jpg"" style=""width:8cm; height:6.45cm;""><p>What type of rock is this?</p>","1","class_response","0","test","35","Basalt","Basalt","02","true","2","2","","","","","","","","","","","","","","","",""
"","","","","","","","","","","","html-keyboard-response","76","2.0.0","171883","5ec17a2e02be030625eaff6e","3","50","null","","","","","","","","","<p style='font-size: 30px;'><strong>Okay</strong></p>","null","neutral_feedback","0","test","35","","","","","","","","","","","","","","","","","","","","","",""
"","","","","","","","","","","","html-button-response","77","2.0.0","173440","5ec17a2e02be030625eaff6e","3","50","1552","","","","","","","","","<img src= ""rock_img/I_Pumice_14.jpg"" style=""width:8cm; height:6.39cm;""><p>What type of rock is this?</p>","7","class_response","0","test","36","Pumice","Pumice","14","true","8","8","","","","","","","","","","","","","","","",""
"","","","","","","","","","","","html-keyboard-response","78","2.0.0","173943","5ec17a2e02be030625eaff6e","3","50","null","","","","","","","","","<p style='font-size: 30px;'><strong>Okay</strong></p>","null","neutral_feedback","0","test","36","","","","","","","","","","","","","","","","","","","","","",""
"","","","","","","","","","","","html-button-response","79","2.0.0","176649","5ec17a2e02be030625eaff6e","3","50","2700","","","","","","","","","<img src= ""rock_img/I_Pegmatite_16.jpg"" style=""width:8cm; height:5.8cm;""><p>What type of rock is this?</p>","2","class_response","0","test","37","Diorite","Pegmatite","16","false","3","6","","","","","","","","","","","","","","","",""
"","","","","","","","","","","","html-keyboard-response","80","2.0.0","177153","5ec17a2e02be030625eaff6e","3","50","null","","","","","","","","","<p style='font-size: 30px;'><strong>Okay</strong></p>","null","neutral_feedback","0","test","37","","","","","","","","","","","","","","","","","","","","","",""
"","","","","","","","","","","","html-button-response","81","2.0.0","178655","5ec17a2e02be030625eaff6e","3","50","1497","","","","","","","","","<img src= ""rock_img/I_Pumice_10.jpg"" style=""width:8cm; height:7.609999999999999cm;""><p>What type of rock is this?</p>","7","class_response","0","test","38","Pumice","Pumice","10","true","8","8","","","","","","","","","","","","","","","",""
"","","","","","","","","","","","html-keyboard-response","82","2.0.0","179158","5ec17a2e02be030625eaff6e","3","50","null","","","","","","","","","<p style='font-size: 30px;'><strong>Okay</strong></p>","null","neutral_feedback","0","test","38","","","","","","","","","","","","","","","","","","","","","",""
"","","","","","","","","","","","html-button-response","83","2.0.0","180464","5ec17a2e02be030625eaff6e","3","50","1299","","","","","","","","","<img src= ""rock_img/I_Pumice_16.jpg"" style=""width:8cm; height:6.79cm;""><p>What type of rock is this?</p>","7","class_response","0","test","39","Pumice","Pumice","16","true","8","8","","","","","","","","","","","","","","","",""
"","","","","","","","","","","","html-keyboard-response","84","2.0.0","180967","5ec17a2e02be030625eaff6e","3","50","null","","","","","","","","","<p style='font-size: 30px;'><strong>Okay</strong></p>","null","neutral_feedback","0","test","39","","","","","","","","","","","","","","","","","","","","","",""
"","","","","","","","","","","","html-button-response","85","2.0.0","182558","5ec17a2e02be030625eaff6e","3","50","1587","","","","","","","","","<img src= ""rock_img/I_Andesite_10.jpg"" style=""width:8cm; height:4.16cm;""><p>What type of rock is this?</p>","7","class_response","0","test","40","Pumice","Andesite","10","false","8","1","","","","","","","","","","","","","","","",""
"","","","","","","","","","","","html-keyboard-response","86","2.0.0","183062","5ec17a2e02be030625eaff6e","3","50","null","","","","","","","","","<p style='font-size: 30px;'><strong>Okay</strong></p>","null","neutral_feedback","0","test","40","","","","","","","","","","","","","","","","","","","","","",""
"","","","","","","","","","","","html-button-response","87","2.0.0","184597","5ec17a2e02be030625eaff6e","3","50","1529","","","","","","","","","<img src= ""rock_img/I_Obsidian_11.jpg"" style=""width:8cm; height:6.05cm;""><p>What type of rock is this?</p>","4","class_response","0","test","41","Obsidian","Obsidian","11","true","5","5","","","","","","","","","","","","","","","",""
"","","","","","","","","","","","html-keyboard-response","88","2.0.0","185101","5ec17a2e02be030625eaff6e","3","50","null","","","","","","","","","<p style='font-size: 30px;'><strong>Okay</strong></p>","null","neutral_feedback","0","test","41","","","","","","","","","","","","","","","","","","","","","",""
"","","","","","","","","","","","html-button-response","89","2.0.0","187435","5ec17a2e02be030625eaff6e","3","50","2329","","","","","","","","","<img src= ""rock_img/I_Gabbro_03.jpg"" style=""width:8cm; height:8.52cm;""><p>What type of rock is this?</p>","3","class_response","0","test","42","Gabbro","Gabbro","03","true","4","4","","","","","","","","","","","","","","","",""
"","","","","","","","","","","","html-keyboard-response","90","2.0.0","187937","5ec17a2e02be030625eaff6e","3","50","null","","","","","","","","","<p style='font-size: 30px;'><strong>Okay</strong></p>","null","neutral_feedback","0","test","42","","","","","","","","","","","","","","","","","","","","","",""
"","","","","","","","","","","","html-button-response","91","2.0.0","189523","5ec17a2e02be030625eaff6e","3","50","1579","","","","","","","","","<img src= ""rock_img/I_Peridotite_02.jpg"" style=""width:8cm; height:5.859999999999999cm;""><p>What type of rock is this?</p>","6","class_response","0","test","43","Peridotite","Peridotite","02","true","7","7","","","","","","","","","","","","","","","",""
"","","","","","","","","","","","html-keyboard-response","92","2.0.0","190027","5ec17a2e02be030625eaff6e","3","50","null","","","","","","","","","<p style='font-size: 30px;'><strong>Okay</strong></p>","null","neutral_feedback","0","test","43","","","","","","","","","","","","","","","","","","","","","",""
"","","","","","","","","","","","html-button-response","93","2.0.0","191794","5ec17a2e02be030625eaff6e","3","50","1761","","","","","","","","","<img src= ""rock_img/I_Obsidian_06.jpg"" style=""width:8cm; height:6.8cm;""><p>What type of rock is this?</p>","4","class_response","0","test","44","Obsidian","Obsidian","06","true","5","5","","","","","","","","","","","","","","","",""
"","","","","","","","","","","","html-keyboard-response","94","2.0.0","192298","5ec17a2e02be030625eaff6e","3","50","null","","","","","","","","","<p style='font-size: 30px;'><strong>Okay</strong></p>","null","neutral_feedback","0","test","44","","","","","","","","","","","","","","","","","","","","","",""
"","","","","","","","","","","","html-button-response","95","2.0.0","193992","5ec17a2e02be030625eaff6e","3","50","1689","","","","","","","","","<img src= ""rock_img/I_Basalt_10.jpg"" style=""width:8cm; height:5.85cm;""><p>What type of rock is this?</p>","1","class_response","0","test","45","Basalt","Basalt","10","true","2","2","","","","","","","","","","","","","","","",""
"","","","","","","","","","","","html-keyboard-response","96","2.0.0","194496","5ec17a2e02be030625eaff6e","3","50","null","","","","","","","","","<p style='font-size: 30px;'><strong>Okay</strong></p>","null","neutral_feedback","0","test","45","","","","","","","","","","","","","","","","","","","","","",""
"","","","","","","","","","","","html-button-response","97","2.0.0","196191","5ec17a2e02be030625eaff6e","3","50","1690","","","","","","","","","<img src= ""rock_img/I_Pegmatite_09.jpg"" style=""width:8cm; height:4.03cm;""><p>What type of rock is this?</p>","0","class_response","0","test","46","Andesite","Pegmatite","09","false","1","6","","","","","","","","","","","","","","","",""
"","","","","","","","","","","","html-keyboard-response","98","2.0.0","196695","5ec17a2e02be030625eaff6e","3","50","null","","","","","","","","","<p style='font-size: 30px;'><strong>Okay</strong></p>","null","neutral_feedback","0","test","46","","","","","","","","","","","","","","","","","","","","","",""
"","","","","","","","","","","","html-button-response","99","2.0.0","198575","5ec17a2e02be030625eaff6e","3","50","1874","","","","","","","","","<img src= ""rock_img/I_Diorite_02.jpg"" style=""width:8cm; height:6.27cm;""><p>What type of rock is this?</p>","5","class_response","0","test","47","Pegmatite","Diorite","02","false","6","3","","","","","","","","","","","","","","","",""
"","","","","","","","","","","","html-keyboard-response","100","2.0.0","199079","5ec17a2e02be030625eaff6e","3","50","null","","","","","","","","","<p style='font-size: 30px;'><strong>Okay</strong></p>","null","neutral_feedback","0","test","47","","","","","","","","","","","","","","","","","","","","","",""
"","","","","","","","","","","","html-button-response","101","2.0.0","201190","5ec17a2e02be030625eaff6e","3","50","2105","","","","","","","","","<img src= ""rock_img/I_Peridotite_10.jpg"" style=""width:8cm; height:5.390000000000001cm;""><p>What type of rock is this?</p>","7","class_response","0","test","48","Pumice","Peridotite","10","false","8","7","","","","","","","","","","","","","","","",""
"","","","","","","","","","","","html-keyboard-response","102","2.0.0","201695","5ec17a2e02be030625eaff6e","3","50","null","","","","","","","","","<p style='font-size: 30px;'><strong>Okay</strong></p>","null","neutral_feedback","0","test","48","","","","","","","","","","","","","","","","","","","","","",""
"","","","","","","","","","","","instructions","103","2.0.0","220491","5ec17a2e02be030625eaff6e","3","50","18709","","","","","","","","[{""page_index"":0,""viewing_time"":15151},{""page_index"":1,""viewing_time"":3558}]","","","","","","","","","","","","","","","","","","","","","","","","","","","",""
"","","","","","","","","","","","html-button-response","104","2.0.0","223131","5ec17a2e02be030625eaff6e","3","50","2634","","","","","","","","","","0","start_train","","","","","","","","","","","","","","","","","","","","","","","","",""
"","","","","","","","","","","","html-button-response","106","2.0.0","225789","5ec17a2e02be030625eaff6e","3","50","2648","","","","","","","","","<img src= ""rock_img/I_Peridotite_04.jpg"" style=""width:8cm; height:6.680000000000001cm;""><p>What type of rock is this?</p>","0","class_response","1","train","1","Andesite","Peridotite","04","false","1","7","","","","","","","","","","","","","","","",""
"","","","","","","","","","","","html-button-response","107","2.0.0","227369","5ec17a2e02be030625eaff6e","3","50","1572","","","","","","","","","<img src= rock_img/I_Peridotite_04.jpg style=""width:8cm; height:6.680000000000001cm;""><p style='font-size: 30px; color: red;'><strong>Incorrect!</strong></p><p style='font-size: 30px;'><strong>This rock is peridotite</strong></p>","0","corr_feedback","1","train","1","","","","","","","","","","","","","","","","","","","","","",""
"","","","","","","","","","","","html-button-response","108","2.0.0","229207","5ec17a2e02be030625eaff6e","3","50","1833","","","","","","","","","<img src= ""rock_img/I_Pumice_08.jpg"" style=""width:8cm; height:6.67cm;""><p>What type of rock is this?</p>","7","class_response","1","train","2","Pumice","Pumice","08","true","8","8","","","","","","","","","","","","","","","",""
"","","","","","","","","","","","html-button-response","109","2.0.0","230032","5ec17a2e02be030625eaff6e","3","50","822","","","","","","","","","<img src= rock_img/I_Pumice_08.jpg style=""width:8cm; height:6.67cm;""><p style='font-size: 30px; color: green;'><strong>Correct!</strong></p><p style='font-size: 30px;'><strong>This rock is pumice</strong></p>","0","corr_feedback","1","train","2","","","","","","","","","","","","","","","","","","","","","",""
"","","","","","","","","","","","html-button-response","110","2.0.0","231896","5ec17a2e02be030625eaff6e","3","50","1858","","","","","","","","","<img src= ""rock_img/I_Andesite_02.jpg"" style=""width:8cm; height:8.5cm;""><p>What type of rock is this?</p>","3","class_response","1","train","3","Gabbro","Andesite","02","false","4","1","","","","","","","","","","","","","","","",""
"","","","","","","","","","","","html-button-response","111","2.0.0","233319","5ec17a2e02be030625eaff6e","3","50","1418","","","","","","","","","<img src= rock_img/I_Andesite_02.jpg style=""width:8cm; height:8.5cm;""><p style='font-size: 30px; color: red;'><strong>Incorrect!</strong></p><p style='font-size: 30px;'><strong>This rock is andesite</strong></p>","0","corr_feedback","1","train","3","","","","","","","","","","","","","","","","","","","","","",""
"","","","","","","","","","","","html-button-response","112","2.0.0","235592","5ec17a2e02be030625eaff6e","3","50","2266","","","","","","","","","<img src= ""rock_img/I_Pegmatite_13.jpg"" style=""width:8cm; height:4.95cm;""><p>What type of rock is this?</p>","5","class_response","1","train","4","Pegmatite","Pegmatite","13","true","6","6","","","","","","","","","","","","","","","",""
"","","","","","","","","","","","html-button-response","113","2.0.0","236621","5ec17a2e02be030625eaff6e","3","50","1023","","","","","","","","","<img src= rock_img/I_Pegmatite_13.jpg style=""width:8cm; height:4.95cm;""><p style='font-size: 30px; color: green;'><strong>Correct!</strong></p><p style='font-size: 30px;'><strong>This rock is pegmatite</strong></p>","0","corr_feedback","1","train","4","","","","","","","","","","","","","","","","","","","","","",""
"","","","","","","","","","","","html-button-response","114","2.0.0","238107","5ec17a2e02be030625eaff6e","3","50","1481","","","","","","","","","<img src= ""rock_img/I_Diorite_13.jpg"" style=""width:8cm; height:6.29cm;""><p>What type of rock is this?</p>","5","class_response","1","train","5","Pegmatite","Diorite","13","false","6","3","","","","","","","","","","","","","","","",""
"","","","","","","","","","","","html-button-response","115","2.0.0","239396","5ec17a2e02be030625eaff6e","3","50","1286","","","","","","","","","<img src= rock_img/I_Diorite_13.jpg style=""width:8cm; height:6.29cm;""><p style='font-size: 30px; color: red;'><strong>Incorrect!</strong></p><p style='font-size: 30px;'><strong>This rock is diorite</strong></p>","0","corr_feedback","1","train","5","","","","","","","","","","","","","","","","","","","","","",""
"","","","","","","","","","","","html-button-response","116","2.0.0","240804","5ec17a2e02be030625eaff6e","3","50","1401","","","","","","","","","<img src= ""rock_img/I_Obsidian_09.jpg"" style=""width:8cm; height:5cm;""><p>What type of rock is this?</p>","4","class_response","1","train","6","Obsidian","Obsidian","09","true","5","5","","","","","","","","","","","","","","","",""
"","","","","","","","","","","","html-button-response","117","2.0.0","241628","5ec17a2e02be030625eaff6e","3","50","818","","","","","","","","","<img src= rock_img/I_Obsidian_09.jpg style=""width:8cm; height:5cm;""><p style='font-size: 30px; color: green;'><strong>Correct!</strong></p><p style='font-size: 30px;'><strong>This rock is obsidian</strong></p>","0","corr_feedback","1","train","6","","","","","","","","","","","","","","","","","","","","","",""
"","","","","","","","","","","","html-button-response","118","2.0.0","243443","5ec17a2e02be030625eaff6e","3","50","1809","","","","","","","","","<img src= ""rock_img/I_Gabbro_01.jpg"" style=""width:8cm; height:5.21cm;""><p>What type of rock is this?</p>","0","class_response","1","train","7","Andesite","Gabbro","01","false","1","4","","","","","","","","","","","","","","","",""
"","","","","","","","","","","","html-button-response","119","2.0.0","244426","5ec17a2e02be030625eaff6e","3","50","978","","","","","","","","","<img src= rock_img/I_Gabbro_01.jpg style=""width:8cm; height:5.21cm;""><p style='font-size: 30px; color: red;'><strong>Incorrect!</strong></p><p style='font-size: 30px;'><strong>This rock is gabbro</strong></p>","0","corr_feedback","1","train","7","","","","","","","","","","","","","","","","","","","","","",""
"","","","","","","","","","","","html-button-response","120","2.0.0","247278","5ec17a2e02be030625eaff6e","3","50","2847","","","","","","","","","<img src= ""rock_img/I_Pegmatite_06.jpg"" style=""width:8cm; height:5.17cm;""><p>What type of rock is this?</p>","5","class_response","1","train","8","Pegmatite","Pegmatite","06","true","6","6","","","","","","","","","","","","","","","",""
"","","","","","","","","","","","html-button-response","121","2.0.0","248072","5ec17a2e02be030625eaff6e","3","50","790","","","","","","","","","<img src= rock_img/I_Pegmatite_06.jpg style=""width:8cm; height:5.17cm;""><p style='font-size: 30px; color: green;'><strong>Correct!</strong></p><p style='font-size: 30px;'><strong>This rock is pegmatite</strong></p>","0","corr_feedback","1","train","8","","","","","","","","","","","","","","","","","","","","","",""
"","","","","","","","","","","","html-button-response","122","2.0.0","249591","5ec17a2e02be030625eaff6e","3","50","1513","","","","","","","","","<img src= ""rock_img/I_Basalt_11.jpg"" style=""width:8cm; height:5.359999999999999cm;""><p>What type of rock is this?</p>","7","class_response","1","train","9","Pumice","Basalt","11","false","8","2","","","","","","","","","","","","","","","",""
"","","","","","","","","","","","html-button-response","123","2.0.0","250823","5ec17a2e02be030625eaff6e","3","50","1224","","","","","","","","","<img src= rock_img/I_Basalt_11.jpg style=""width:8cm; height:5.359999999999999cm;""><p style='font-size: 30px; color: red;'><strong>Incorrect!</strong></p><p style='font-size: 30px;'><strong>This rock is basalt</strong></p>","0","corr_feedback","1","train","9","","","","","","","","","","","","","","","","","","","","","",""
"","","","","","","","","","","","html-button-response","124","2.0.0","253071","5ec17a2e02be030625eaff6e","3","50","2241","","","","","","","","","<img src= ""rock_img/I_Diorite_15.jpg"" style=""width:8cm; height:5.54cm;""><p>What type of rock is this?</p>","3","class_response","1","train","10","Gabbro","Diorite","15","false","4","3","","","","","","","","","","","","","","","",""
"","","","","","","","","","","","html-button-response","125","2.0.0","254045","5ec17a2e02be030625eaff6e","3","50","970","","","","","","","","","<img src= rock_img/I_Diorite_15.jpg style=""width:8cm; height:5.54cm;""><p style='font-size: 30px; color: red;'><strong>Incorrect!</strong></p><p style='font-size: 30px;'><strong>This rock is diorite</strong></p>","0","corr_feedback","1","train","10","","","","","","","","","","","","","","","","","","","","","",""
"","","","","","","","","","","","html-button-response","126","2.0.0","255422","5ec17a2e02be030625eaff6e","3","50","1371","","","","","","","","","<img src= ""rock_img/I_Basalt_12.jpg"" style=""width:8cm; height:6.010000000000001cm;""><p>What type of rock is this?</p>","7","class_response","1","train","11","Pumice","Basalt","12","false","8","2","","","","","","","","","","","","","","","",""
"","","","","","","","","","","","html-button-response","127","2.0.0","256405","5ec17a2e02be030625eaff6e","3","50","977","","","","","","","","","<img src= rock_img/I_Basalt_12.jpg style=""width:8cm; height:6.010000000000001cm;""><p style='font-size: 30px; color: red;'><strong>Incorrect!</strong></p><p style='font-size: 30px;'><strong>This rock is basalt</strong></p>","0","corr_feedback","1","train","11","","","","","","","","","","","","","","","","","","","","","",""
"","","","","","","","","","","","html-button-response","128","2.0.0","257829","5ec17a2e02be030625eaff6e","3","50","1418","","","","","","","","","<img src= ""rock_img/I_Pumice_02.jpg"" style=""width:8cm; height:7.3999999999999995cm;""><p>What type of rock is this?</p>","7","class_response","1","train","12","Pumice","Pumice","02","true","8","8","","","","","","","","","","","","","","","",""
"","","","","","","","","","","","html-button-response","129","2.0.0","258556","5ec17a2e02be030625eaff6e","3","50","721","","","","","","","","","<img src= rock_img/I_Pumice_02.jpg style=""width:8cm; height:7.3999999999999995cm;""><p style='font-size: 30px; color: green;'><strong>Correct!</strong></p><p style='font-size: 30px;'><strong>This rock is pumice</strong></p>","0","corr_feedback","1","train","12","","","","","","","","","","","","","","","","","","","","","",""
"","","","","","","","","","","","instructions","130","2.0.0","283216","5ec17a2e02be030625eaff6e","3","50","24656","","","","","","","","[{""page_index"":0,""viewing_time"":3401},{""page_index"":1,""viewing_time"":14433},{""page_index"":2,""viewing_time"":4111},{""page_index"":3,""viewing_time"":2710}]","","","","","","","","","","","","","","","","","","","","","","","","","","","",""
"","","","","","","","","","","","html-button-response","131","2.0.0","284168","5ec17a2e02be030625eaff6e","3","50","947","","","","","","","","","","0","start_train","","","","","","","","","","","","","","","","","","","","","","","","",""
"","","","","","","","","","","","html-button-response","132","2.0.0","287878","5ec17a2e02be030625eaff6e","3","50","","","","","","","","","","","","cat_selection","1","train","1","","","","","","","1","4","3703.099999997765","Andesite","Gabbro","[0.20454545454545456,0.053030303030303025,0.17424242424242425,0.17424242424242425,0.053030303030303025,0.20454545454545456,0.11363636363636363,0.022727272727272728]","[null,0.05496030698730767,0.14790688188166565,0.15822476351341622,0.059552545971136045,0.14852243731992348,0.05783289903251094,0.37300016529404]","","","","","","","","",""
"","","","","","","","","","","","paired-cat-display","133","1.0.0","352466","5ec17a2e02be030625eaff6e","3","50","","","","","","","","","","","","paired_cat_display","1","train","1","","","","","","","","","24897.699999999255","","","","","Andesite seems more chunky and a homogenous mix","Gabbro seems like finer particulates chunks, and seems more chunky in general even if also composite","39672.60000000149","","","","","",""
"","","","","","","","","","","","html-button-response","134","2.0.0","355560","5ec17a2e02be030625eaff6e","3","50","","","","","","","","","","","","cat_selection","1","train","2","","","","","","","1","6","3087.800000000745","Andesite","Pegmatite","[0.20454545454545456,0.053030303030303025,0.17424242424242425,0.17424242424242425,0.053030303030303025,0.20454545454545456,0.11363636363636363,0.022727272727272728]","[null,0.05496030698730767,0.14790688188166565,0.15822476351341622,0.059552545971136045,0.14852243731992348,0.05783289903251094,0.37300016529404]","","","","","","","","",""
"","","","","","","","","","","","paired-cat-display","135","1.0.0","383690","5ec17a2e02be030625eaff6e","3","50","","","","","","","","","","","","paired_cat_display","1","train","2","","","","","","","","","8740.39999999851","","","","","Andesite has chunks of a more moderate size","","19375.60000000149","Pegmatite comes off as having very large chunks","","","","",""
"","","","","","","","","","","","html-button-response","136","2.0.0","388080","5ec17a2e02be030625eaff6e","3","50","","","","","","","","","","","","cat_selection","1","train","3","","","","","","","3","6","4386.89999999851","Diorite","Pegmatite","[0.20454545454545456,0.053030303030303025,0.17424242424242425,0.17424242424242425,0.053030303030303025,0.20454545454545456,0.11363636363636363,0.022727272727272728]","[0.049806894605324184,0.049366125626516,null,0.4379711195452194,0.058897754793242864,0.31355638787614,0.05119531688856994,0.039206400664987484]","","","","","","","","",""
"","","","","","","","","","","","paired-cat-display","137","1.0.0","415797","5ec17a2e02be030625eaff6e","3","50","","","","","","","","","","","","paired_cat_display","1","train","3","","","","","","","","","6233.300000000745","","","","","","","21472.10000000149","Pegamatite seems like it has very large, dark chunks","Diorite seems extremely speckled in its composition","","","",""
"","","","","","","","","","","","instructions","138","2.0.0","422467","5ec17a2e02be030625eaff6e","3","50","6667","","","","","","","","[{""page_index"":0,""viewing_time"":2596},{""page_index"":1,""viewing_time"":4071}]","","","","","","","","","","","","","","","","","","","","","","","","","","","",""
"","","","","","","","","","","","html-button-response","139","2.0.0","424050","5ec17a2e02be030625eaff6e","3","50","1576","","","","","","","","","","0","start_test","","","","","","","","","","","","","","","","","","","","","","","","",""
"","","","","","","","","","","","html-button-response","140","2.0.0","429186","5ec17a2e02be030625eaff6e","3","50","5128","","","","","","","","","<img src= ""rock_img/I_Diorite_11.jpg"" style=""width:8cm; height:7.11cm;""><p>What type of rock is this?</p>","5","class_response","1","test","1","Pegmatite","Diorite","11","false","6","3","","","","","","","","","","","","","","","",""
"","","","","","","","","","","","html-keyboard-response","141","2.0.0","429692","5ec17a2e02be030625eaff6e","3","50","null","","","","","","","","","<p style='font-size: 30px;'><strong>Okay</strong></p>","null","neutral_feedback","1","test","1","","","","","","","","","","","","","","","","","","","","","",""
"","","","","","","","","","","","html-button-response","142","2.0.0","431856","5ec17a2e02be030625eaff6e","3","50","2158","","","","","","","","","<img src= ""rock_img/I_Andesite_01.jpg"" style=""width:8cm; height:5.87cm;""><p>What type of rock is this?</p>","5","class_response","1","test","2","Pegmatite","Andesite","01","false","6","1","","","","","","","","","","","","","","","",""
"","","","","","","","","","","","html-keyboard-response","143","2.0.0","432359","5ec17a2e02be030625eaff6e","3","50","null","","","","","","","","","<p style='font-size: 30px;'><strong>Okay</strong></p>","null","neutral_feedback","1","test","2","","","","","","","","","","","","","","","","","","","","","",""
"","","","","","","","","","","","html-button-response","144","2.0.0","435462","5ec17a2e02be030625eaff6e","3","50","3097","","","","","","","","","<img src= ""rock_img/I_Diorite_09.jpg"" style=""width:8cm; height:5.27cm;""><p>What type of rock is this?</p>","5","class_response","1","test","3","Pegmatite","Diorite","09","false","6","3","","","","","","","","","","","","","","","",""
"","","","","","","","","","","","html-keyboard-response","145","2.0.0","435965","5ec17a2e02be030625eaff6e","3","50","null","","","","","","","","","<p style='font-size: 30px;'><strong>Okay</strong></p>","null","neutral_feedback","1","test","3","","","","","","","","","","","","","","","","","","","","","",""
"","","","","","","","","","","","html-button-response","146","2.0.0","438005","5ec17a2e02be030625eaff6e","3","50","2034","","","","","","","","","<img src= ""rock_img/I_Basalt_02.jpg"" style=""width:8cm; height:6.45cm;""><p>What type of rock is this?</p>","1","class_response","1","test","4","Basalt","Basalt","02","true","2","2","","","","","","","","","","","","","","","",""
"","","","","","","","","","","","html-keyboard-response","147","2.0.0","438509","5ec17a2e02be030625eaff6e","3","50","null","","","","","","","","","<p style='font-size: 30px;'><strong>Okay</strong></p>","null","neutral_feedback","1","test","4","","","","","","","","","","","","","","","","","","","","","",""
"","","","","","","","","","","","html-button-response","148","2.0.0","442475","5ec17a2e02be030625eaff6e","3","50","3960","","","","","","","","","<img src= ""rock_img/I_Andesite_09.jpg"" style=""width:8cm; height:6cm;""><p>What type of rock is this?</p>","2","class_response","1","test","5","Diorite","Andesite","09","false","3","1","","","","","","","","","","","","","","","",""
"","","","","","","","","","","","html-keyboard-response","149","2.0.0","442979","5ec17a2e02be030625eaff6e","3","50","null","","","","","","","","","<p style='font-size: 30px;'><strong>Okay</strong></p>","null","neutral_feedback","1","test","5","","","","","","","","","","","","","","","","","","","","","",""
"","","","","","","","","","","","html-button-response","150","2.0.0","445762","5ec17a2e02be030625eaff6e","3","50","2777","","","","","","","","","<img src= ""rock_img/I_Pumice_16.jpg"" style=""width:8cm; height:6.79cm;""><p>What type of rock is this?</p>","7","class_response","1","test","6","Pumice","Pumice","16","true","8","8","","","","","","","","","","","","","","","",""
"","","","","","","","","","","","html-keyboard-response","151","2.0.0","446266","5ec17a2e02be030625eaff6e","3","50","null","","","","","","","","","<p style='font-size: 30px;'><strong>Okay</strong></p>","null","neutral_feedback","1","test","6","","","","","","","","","","","","","","","","","","","","","",""
"","","","","","","","","","","","html-button-response","152","2.0.0","454750","5ec17a2e02be030625eaff6e","3","50","8478","","","","","","","","","<img src= ""rock_img/I_Peridotite_12.jpg"" style=""width:8cm; height:4.54cm;""><p>What type of rock is this?</p>","5","class_response","1","test","7","Pegmatite","Peridotite","12","false","6","7","","","","","","","","","","","","","","","",""
"","","","","","","","","","","","html-keyboard-response","153","2.0.0","455254","5ec17a2e02be030625eaff6e","3","50","null","","","","","","","","","<p style='font-size: 30px;'><strong>Okay</strong></p>","null","neutral_feedback","1","test","7","","","","","","","","","","","","","","","","","","","","","",""
"","","","","","","","","","","","html-button-response","154","2.0.0","457722","5ec17a2e02be030625eaff6e","3","50","2463","","","","","","","","","<img src= ""rock_img/I_Pumice_04.jpg"" style=""width:8cm; height:6.819999999999999cm;""><p>What type of rock is this?</p>","7","class_response","1","test","8","Pumice","Pumice","04","true","8","8","","","","","","","","","","","","","","","",""
"","","","","","","","","","","","html-keyboard-response","155","2.0.0","458224","5ec17a2e02be030625eaff6e","3","50","null","","","","","","","","","<p style='font-size: 30px;'><strong>Okay</strong></p>","null","neutral_feedback","1","test","8","","","","","","","","","","","","","","","","","","","","","",""
"","","","","","","","","","","","html-button-response","156","2.0.0","461147","5ec17a2e02be030625eaff6e","3","50","2915","","","","","","","","","<img src= ""rock_img/I_Andesite_10.jpg"" style=""width:8cm; height:4.16cm;""><p>What type of rock is this?</p>","0","class_response","1","test","9","Andesite","Andesite","10","true","1","1","","","","","","","","","","","","","","","",""
"","","","","","","","","","","","html-keyboard-response","157","2.0.0","461651","5ec17a2e02be030625eaff6e","3","50","null","","","","","","","","","<p style='font-size: 30px;'><strong>Okay</strong></p>","null","neutral_feedback","1","test","9","","","","","","","","","","","","","","","","","","","","","",""
"","","","","","","","","","","","html-button-response","158","2.0.0","463842","5ec17a2e02be030625eaff6e","3","50","2185","","","","","","","","","<img src= ""rock_img/I_Basalt_01.jpg"" style=""width:8cm; height:7.880000000000001cm;""><p>What type of rock is this?</p>","1","class_response","1","test","10","Basalt","Basalt","01","true","2","2","","","","","","","","","","","","","","","",""
"","","","","","","","","","","","html-keyboard-response","159","2.0.0","464345","5ec17a2e02be030625eaff6e","3","50","null","","","","","","","","","<p style='font-size: 30px;'><strong>Okay</strong></p>","null","neutral_feedback","1","test","10","","","","","","","","","","","","","","","","","","","","","",""
"","","","","","","","","","","","html-button-response","160","2.0.0","466528","5ec17a2e02be030625eaff6e","3","50","2176","","","","","","","","","<img src= ""rock_img/I_Peridotite_13.jpg"" style=""width:8cm; height:7.58cm;""><p>What type of rock is this?</p>","6","class_response","1","test","11","Peridotite","Peridotite","13","true","7","7","","","","","","","","","","","","","","","",""
"","","","","","","","","","","","html-keyboard-response","161","2.0.0","467032","5ec17a2e02be030625eaff6e","3","50","null","","","","","","","","","<p style='font-size: 30px;'><strong>Okay</strong></p>","null","neutral_feedback","1","test","11","","","","","","","","","","","","","","","","","","","","","",""
"","","","","","","","","","","","html-button-response","162","2.0.0","468838","5ec17a2e02be030625eaff6e","3","50","1800","","","","","","","","","<img src= ""rock_img/I_Obsidian_06.jpg"" style=""width:8cm; height:6.8cm;""><p>What type of rock is this?</p>","4","class_response","1","test","12","Obsidian","Obsidian","06","true","5","5","","","","","","","","","","","","","","","",""
"","","","","","","","","","","","html-keyboard-response","163","2.0.0","469343","5ec17a2e02be030625eaff6e","3","50","null","","","","","","","","","<p style='font-size: 30px;'><strong>Okay</strong></p>","null","neutral_feedback","1","test","12","","","","","","","","","","","","","","","","","","","","","",""
"","","","","","","","","","","","html-button-response","164","2.0.0","471645","5ec17a2e02be030625eaff6e","3","50","2297","","","","","","","","","<img src= ""rock_img/I_Gabbro_11.jpg"" style=""width:8cm; height:6.2cm;""><p>What type of rock is this?</p>","1","class_response","1","test","13","Basalt","Gabbro","11","false","2","4","","","","","","","","","","","","","","","",""
"","","","","","","","","","","","html-keyboard-response","165","2.0.0","472147","5ec17a2e02be030625eaff6e","3","50","null","","","","","","","","","<p style='font-size: 30px;'><strong>Okay</strong></p>","null","neutral_feedback","1","test","13","","","","","","","","","","","","","","","","","","","","","",""
"","","","","","","","","","","","html-button-response","166","2.0.0","474085","5ec17a2e02be030625eaff6e","3","50","1932","","","","","","","","","<img src= ""rock_img/I_Pumice_10.jpg"" style=""width:8cm; height:7.609999999999999cm;""><p>What type of rock is this?</p>","7","class_response","1","test","14","Pumice","Pumice","10","true","8","8","","","","","","","","","","","","","","","",""
"","","","","","","","","","","","html-keyboard-response","167","2.0.0","474589","5ec17a2e02be030625eaff6e","3","50","null","","","","","","","","","<p style='font-size: 30px;'><strong>Okay</strong></p>","null","neutral_feedback","1","test","14","","","","","","","","","","","","","","","","","","","","","",""
"","","","","","","","","","","","html-button-response","168","2.0.0","476382","5ec17a2e02be030625eaff6e","3","50","1787","","","","","","","","","<img src= ""rock_img/I_Basalt_09.jpg"" style=""width:8cm; height:6.2cm;""><p>What type of rock is this?</p>","1","class_response","1","test","15","Basalt","Basalt","09","true","2","2","","","","","","","","","","","","","","","",""
"","","","","","","","","","","","html-keyboard-response","169","2.0.0","476886","5ec17a2e02be030625eaff6e","3","50","null","","","","","","","","","<p style='font-size: 30px;'><strong>Okay</strong></p>","null","neutral_feedback","1","test","15","","","","","","","","","","","","","","","","","","","","","",""
"","","","","","","","","","","","html-button-response","170","2.0.0","480729","5ec17a2e02be030625eaff6e","3","50","3840","","","","","","","","","<img src= ""rock_img/I_Pegmatite_05.jpg"" style=""width:8cm; height:7.300000000000001cm;""><p>What type of rock is this?</p>","5","class_response","1","test","16","Pegmatite","Pegmatite","05","true","6","6","","","","","","","","","","","","","","","",""
"","","","","","","","","","","","html-keyboard-response","171","2.0.0","481231","5ec17a2e02be030625eaff6e","3","50","null","","","","","","","","","<p style='font-size: 30px;'><strong>Okay</strong></p>","null","neutral_feedback","1","test","16","","","","","","","","","","","","","","","","","","","","","",""
"","","","","","","","","","","","html-button-response","172","2.0.0","490326","5ec17a2e02be030625eaff6e","3","50","9090","","","","","","","","","<img src= ""rock_img/I_Gabbro_03.jpg"" style=""width:8cm; height:8.52cm;""><p>What type of rock is this?</p>","0","class_response","1","test","17","Andesite","Gabbro","03","false","1","4","","","","","","","","","","","","","","","",""
"","","","","","","","","","","","html-keyboard-response","173","2.0.0","490830","5ec17a2e02be030625eaff6e","3","50","null","","","","","","","","","<p style='font-size: 30px;'><strong>Okay</strong></p>","null","neutral_feedback","1","test","17","","","","","","","","","","","","","","","","","","","","","",""
"","","","","","","","","","","","html-button-response","174","2.0.0","497275","5ec17a2e02be030625eaff6e","3","50","6439","","","","","","","","","<img src= ""rock_img/I_Gabbro_05.jpg"" style=""width:8cm; height:6cm;""><p>What type of rock is this?</p>","5","class_response","1","test","18","Pegmatite","Gabbro","05","false","6","4","","","","","","","","","","","","","","","",""
"","","","","","","","","","","","html-keyboard-response","175","2.0.0","497779","5ec17a2e02be030625eaff6e","3","50","null","","","","","","","","","<p style='font-size: 30px;'><strong>Okay</strong></p>","null","neutral_feedback","1","test","18","","","","","","","","","","","","","","","","","","","","","",""
"","","","","","","","","","","","html-button-response","176","2.0.0","500064","5ec17a2e02be030625eaff6e","3","50","2280","","","","","","","","","<img src= ""rock_img/I_Pegmatite_12.jpg"" style=""width:8cm; height:5.7cm;""><p>What type of rock is this?</p>","6","class_response","1","test","19","Peridotite","Pegmatite","12","false","7","6","","","","","","","","","","","","","","","",""
"","","","","","","","","","","","html-keyboard-response","177","2.0.0","500566","5ec17a2e02be030625eaff6e","3","50","null","","","","","","","","","<p style='font-size: 30px;'><strong>Okay</strong></p>","null","neutral_feedback","1","test","19","","","","","","","","","","","","","","","","","","","","","",""
"","","","","","","","","","","","html-button-response","178","2.0.0","504240","5ec17a2e02be030625eaff6e","3","50","3669","","","","","","","","","<img src= ""rock_img/I_Diorite_02.jpg"" style=""width:8cm; height:6.27cm;""><p>What type of rock is this?</p>","2","class_response","1","test","20","Diorite","Diorite","02","true","3","3","","","","","","","","","","","","","","","",""
"","","","","","","","","","","","html-keyboard-response","179","2.0.0","504744","5ec17a2e02be030625eaff6e","3","50","null","","","","","","","","","<p style='font-size: 30px;'><strong>Okay</strong></p>","null","neutral_feedback","1","test","20","","","","","","","","","","","","","","","","","","","","","",""
"","","","","","","","","","","","html-button-response","180","2.0.0","506223","5ec17a2e02be030625eaff6e","3","50","1472","","","","","","","","","<img src= ""rock_img/I_Obsidian_10.jpg"" style=""width:8cm; height:6.260000000000001cm;""><p>What type of rock is this?</p>","4","class_response","1","test","21","Obsidian","Obsidian","10","true","5","5","","","","","","","","","","","","","","","",""
"","","","","","","","","","","","html-keyboard-response","181","2.0.0","506727","5ec17a2e02be030625eaff6e","3","50","null","","","","","","","","","<p style='font-size: 30px;'><strong>Okay</strong></p>","null","neutral_feedback","1","test","21","","","","","","","","","","","","","","","","","","","","","",""
"","","","","","","","","","","","html-button-response","182","2.0.0","509988","5ec17a2e02be030625eaff6e","3","50","3255","","","","","","","","","<img src= ""rock_img/I_Gabbro_08.jpg"" style=""width:8cm; height:5.15cm;""><p>What type of rock is this?</p>","1","class_response","1","test","22","Basalt","Gabbro","08","false","2","4","","","","","","","","","","","","","","","",""
"","","","","","","","","","","","html-keyboard-response","183","2.0.0","510492","5ec17a2e02be030625eaff6e","3","50","null","","","","","","","","","<p style='font-size: 30px;'><strong>Okay</strong></p>","null","neutral_feedback","1","test","22","","","","","","","","","","","","","","","","","","","","","",""
"","","","","","","","","","","","html-button-response","184","2.0.0","511956","5ec17a2e02be030625eaff6e","3","50","1459","","","","","","","","","<img src= ""rock_img/I_Pumice_15.jpg"" style=""width:8cm; height:7.86cm;""><p>What type of rock is this?</p>","7","class_response","1","test","23","Pumice","Pumice","15","true","8","8","","","","","","","","","","","","","","","",""
"","","","","","","","","","","","html-keyboard-response","185","2.0.0","512460","5ec17a2e02be030625eaff6e","3","50","null","","","","","","","","","<p style='font-size: 30px;'><strong>Okay</strong></p>","null","neutral_feedback","1","test","23","","","","","","","","","","","","","","","","","","","","","",""
"","","","","","","","","","","","html-button-response","186","2.0.0","515178","5ec17a2e02be030625eaff6e","3","50","2713","","","","","","","","","<img src= ""rock_img/I_Andesite_06.jpg"" style=""width:8cm; height:6.840000000000001cm;""><p>What type of rock is this?</p>","0","class_response","1","test","24","Andesite","Andesite","06","true","1","1","","","","","","","","","","","","","","","",""
"","","","","","","","","","","","html-keyboard-response","187","2.0.0","515681","5ec17a2e02be030625eaff6e","3","50","null","","","","","","","","","<p style='font-size: 30px;'><strong>Okay</strong></p>","null","neutral_feedback","1","test","24","","","","","","","","","","","","","","","","","","","","","",""
"","","","","","","","","","","","html-button-response","188","2.0.0","517719","5ec17a2e02be030625eaff6e","3","50","2035","","","","","","","","","<img src= ""rock_img/I_Pumice_05.jpg"" style=""width:8cm; height:7.25cm;""><p>What type of rock is this?</p>","7","class_response","1","test","25","Pumice","Pumice","05","true","8","8","","","","","","","","","","","","","","","",""
"","","","","","","","","","","","html-keyboard-response","189","2.0.0","518222","5ec17a2e02be030625eaff6e","3","50","null","","","","","","","","","<p style='font-size: 30px;'><strong>Okay</strong></p>","null","neutral_feedback","1","test","25","","","","","","","","","","","","","","","","","","","","","",""
"","","","","","","","","","","","html-button-response","190","2.0.0","521389","5ec17a2e02be030625eaff6e","3","50","3163","","","","","","","","","<img src= ""rock_img/I_Gabbro_10.jpg"" style=""width:8cm; height:5.680000000000001cm;""><p>What type of rock is this?</p>","3","class_response","1","test","26","Gabbro","Gabbro","10","true","4","4","","","","","","","","","","","","","","","",""
"","","","","","","","","","","","html-keyboard-response","191","2.0.0","521893","5ec17a2e02be030625eaff6e","3","50","null","","","","","","","","","<p style='font-size: 30px;'><strong>Okay</strong></p>","null","neutral_feedback","1","test","26","","","","","","","","","","","","","","","","","","","","","",""
"","","","","","","","","","","","html-button-response","192","2.0.0","524942","5ec17a2e02be030625eaff6e","3","50","3045","","","","","","","","","<img src= ""rock_img/I_Gabbro_15.jpg"" style=""width:8cm; height:6.29cm;""><p>What type of rock is this?</p>","0","class_response","1","test","27","Andesite","Gabbro","15","false","1","4","","","","","","","","","","","","","","","",""
"","","","","","","","","","","","html-keyboard-response","193","2.0.0","525445","5ec17a2e02be030625eaff6e","3","50","null","","","","","","","","","<p style='font-size: 30px;'><strong>Okay</strong></p>","null","neutral_feedback","1","test","27","","","","","","","","","","","","","","","","","","","","","",""
"","","","","","","","","","","","html-button-response","194","2.0.0","527773","5ec17a2e02be030625eaff6e","3","50","2321","","","","","","","","","<img src= ""rock_img/I_Diorite_07.jpg"" style=""width:8cm; height:5.239999999999999cm;""><p>What type of rock is this?</p>","6","class_response","1","test","28","Peridotite","Diorite","07","false","7","3","","","","","","","","","","","","","","","",""
"","","","","","","","","","","","html-keyboard-response","195","2.0.0","528277","5ec17a2e02be030625eaff6e","3","50","null","","","","","","","","","<p style='font-size: 30px;'><strong>Okay</strong></p>","null","neutral_feedback","1","test","28","","","","","","","","","","","","","","","","","","","","","",""
"","","","","","","","","","","","html-button-response","196","2.0.0","529823","5ec17a2e02be030625eaff6e","3","50","1539","","","","","","","","","<img src= ""rock_img/I_Obsidian_02.jpg"" style=""width:8cm; height:7.51cm;""><p>What type of rock is this?</p>","4","class_response","1","test","29","Obsidian","Obsidian","02","true","5","5","","","","","","","","","","","","","","","",""
"","","","","","","","","","","","html-keyboard-response","197","2.0.0","530327","5ec17a2e02be030625eaff6e","3","50","null","","","","","","","","","<p style='font-size: 30px;'><strong>Okay</strong></p>","null","neutral_feedback","1","test","29","","","","","","","","","","","","","","","","","","","","","",""
"","","","","","","","","","","","html-button-response","198","2.0.0","532899","5ec17a2e02be030625eaff6e","3","50","2565","","","","","","","","","<img src= ""rock_img/I_Diorite_10.jpg"" style=""width:8cm; height:5.949999999999999cm;""><p>What type of rock is this?</p>","3","class_response","1","test","30","Gabbro","Diorite","10","false","4","3","","","","","","","","","","","","","","","",""
"","","","","","","","","","","","html-keyboard-response","199","2.0.0","533403","5ec17a2e02be030625eaff6e","3","50","null","","","","","","","","","<p style='font-size: 30px;'><strong>Okay</strong></p>","null","neutral_feedback","1","test","30","","","","","","","","","","","","","","","","","","","","","",""
"","","","","","","","","","","","html-button-response","200","2.0.0","535809","5ec17a2e02be030625eaff6e","3","50","2401","","","","","","","","","<img src= ""rock_img/I_Diorite_12.jpg"" style=""width:8cm; height:4.88cm;""><p>What type of rock is this?</p>","2","class_response","1","test","31","Diorite","Diorite","12","true","3","3","","","","","","","","","","","","","","","",""
"","","","","","","","","","","","html-keyboard-response","201","2.0.0","536313","5ec17a2e02be030625eaff6e","3","50","null","","","","","","","","","<p style='font-size: 30px;'><strong>Okay</strong></p>","null","neutral_feedback","1","test","31","","","","","","","","","","","","","","","","","","","","","",""
"","","","","","","","","","","","html-button-response","202","2.0.0","538456","5ec17a2e02be030625eaff6e","3","50","2137","","","","","","","","","<img src= ""rock_img/I_Basalt_08.jpg"" style=""width:8cm; height:10.44cm;""><p>What type of rock is this?</p>","1","class_response","1","test","32","Basalt","Basalt","08","true","2","2","","","","","","","","","","","","","","","",""
"","","","","","","","","","","","html-keyboard-response","203","2.0.0","538960","5ec17a2e02be030625eaff6e","3","50","null","","","","","","","","","<p style='font-size: 30px;'><strong>Okay</strong></p>","null","neutral_feedback","1","test","32","","","","","","","","","","","","","","","","","","","","","",""
"","","","","","","","","","","","html-button-response","204","2.0.0","541157","5ec17a2e02be030625eaff6e","3","50","2192","","","","","","","","","<img src= ""rock_img/I_Peridotite_10.jpg"" style=""width:8cm; height:5.390000000000001cm;""><p>What type of rock is this?</p>","6","class_response","1","test","33","Peridotite","Peridotite","10","true","7","7","","","","","","","","","","","","","","","",""
"","","","","","","","","","","","html-keyboard-response","205","2.0.0","541660","5ec17a2e02be030625eaff6e","3","50","null","","","","","","","","","<p style='font-size: 30px;'><strong>Okay</strong></p>","null","neutral_feedback","1","test","33","","","","","","","","","","","","","","","","","","","","","",""
"","","","","","","","","","","","html-button-response","206","2.0.0","543669","5ec17a2e02be030625eaff6e","3","50","2003","","","","","","","","","<img src= ""rock_img/I_Basalt_10.jpg"" style=""width:8cm; height:5.85cm;""><p>What type of rock is this?</p>","1","class_response","1","test","34","Basalt","Basalt","10","true","2","2","","","","","","","","","","","","","","","",""
"","","","","","","","","","","","html-keyboard-response","207","2.0.0","544173","5ec17a2e02be030625eaff6e","3","50","null","","","","","","","","","<p style='font-size: 30px;'><strong>Okay</strong></p>","null","neutral_feedback","1","test","34","","","","","","","","","","","","","","","","","","","","","",""
"","","","","","","","","","","","html-button-response","208","2.0.0","547236","5ec17a2e02be030625eaff6e","3","50","3058","","","","","","","","","<img src= ""rock_img/I_Andesite_14.jpg"" style=""width:8cm; height:5.449999999999999cm;""><p>What type of rock is this?</p>","3","class_response","1","test","35","Gabbro","Andesite","14","false","4","1","","","","","","","","","","","","","","","",""
"","","","","","","","","","","","html-keyboard-response","209","2.0.0","547740","5ec17a2e02be030625eaff6e","3","50","null","","","","","","","","","<p style='font-size: 30px;'><strong>Okay</strong></p>","null","neutral_feedback","1","test","35","","","","","","","","","","","","","","","","","","","","","",""
"","","","","","","","","","","","html-button-response","210","2.0.0","549604","5ec17a2e02be030625eaff6e","3","50","1857","","","","","","","","","<img src= ""rock_img/I_Pegmatite_07.jpg"" style=""width:8cm; height:6.7cm;""><p>What type of rock is this?</p>","6","class_response","1","test","36","Peridotite","Pegmatite","07","false","7","6","","","","","","","","","","","","","","","",""
"","","","","","","","","","","","html-keyboard-response","211","2.0.0","550108","5ec17a2e02be030625eaff6e","3","50","null","","","","","","","","","<p style='font-size: 30px;'><strong>Okay</strong></p>","null","neutral_feedback","1","test","36","","","","","","","","","","","","","","","","","","","","","",""
"","","","","","","","","","","","html-button-response","212","2.0.0","551386","5ec17a2e02be030625eaff6e","3","50","1273","","","","","","","","","<img src= ""rock_img/I_Pegmatite_16.jpg"" style=""width:8cm; height:5.8cm;""><p>What type of rock is this?</p>","6","class_response","1","test","37","Peridotite","Pegmatite","16","false","7","6","","","","","","","","","","","","","","","",""
"","","","","","","","","","","","html-keyboard-response","213","2.0.0","551890","5ec17a2e02be030625eaff6e","3","50","null","","","","","","","","","<p style='font-size: 30px;'><strong>Okay</strong></p>","null","neutral_feedback","1","test","37","","","","","","","","","","","","","","","","","","","","","",""
"","","","","","","","","","","","html-button-response","214","2.0.0","553970","5ec17a2e02be030625eaff6e","3","50","2074","","","","","","","","","<img src= ""rock_img/I_Pegmatite_09.jpg"" style=""width:8cm; height:4.03cm;""><p>What type of rock is this?</p>","0","class_response","1","test","38","Andesite","Pegmatite","09","false","1","6","","","","","","","","","","","","","","","",""
"","","","","","","","","","","","html-keyboard-response","215","2.0.0","554473","5ec17a2e02be030625eaff6e","3","50","null","","","","","","","","","<p style='font-size: 30px;'><strong>Okay</strong></p>","null","neutral_feedback","1","test","38","","","","","","","","","","","","","","","","","","","","","",""
"","","","","","","","","","","","html-button-response","216","2.0.0","557272","5ec17a2e02be030625eaff6e","3","50","2792","","","","","","","","","<img src= ""rock_img/I_Peridotite_02.jpg"" style=""width:8cm; height:5.859999999999999cm;""><p>What type of rock is this?</p>","6","class_response","1","test","39","Peridotite","Peridotite","02","true","7","7","","","","","","","","","","","","","","","",""
"","","","","","","","","","","","html-keyboard-response","217","2.0.0","557776","5ec17a2e02be030625eaff6e","3","50","null","","","","","","","","","<p style='font-size: 30px;'><strong>Okay</strong></p>","null","neutral_feedback","1","test","39","","","","","","","","","","","","","","","","","","","","","",""
"","","","","","","","","","","","html-button-response","218","2.0.0","559359","5ec17a2e02be030625eaff6e","3","50","1577","","","","","","","","","<img src= ""rock_img/I_Pegmatite_03.jpg"" style=""width:8cm; height:5.239999999999999cm;""><p>What type of rock is this?</p>","6","class_response","1","test","40","Peridotite","Pegmatite","03","false","7","6","","","","","","","","","","","","","","","",""
"","","","","","","","","","","","html-keyboard-response","219","2.0.0","559862","5ec17a2e02be030625eaff6e","3","50","null","","","","","","","","","<p style='font-size: 30px;'><strong>Okay</strong></p>","null","neutral_feedback","1","test","40","","","","","","","","","","","","","","","","","","","","","",""
"","","","","","","","","","","","html-button-response","220","2.0.0","562126","5ec17a2e02be030625eaff6e","3","50","2260","","","","","","","","","<img src= ""rock_img/I_Obsidian_05.jpg"" style=""width:8cm; height:6.33cm;""><p>What type of rock is this?</p>","4","class_response","1","test","41","Obsidian","Obsidian","05","true","5","5","","","","","","","","","","","","","","","",""
"","","","","","","","","","","","html-keyboard-response","221","2.0.0","562629","5ec17a2e02be030625eaff6e","3","50","null","","","","","","","","","<p style='font-size: 30px;'><strong>Okay</strong></p>","null","neutral_feedback","1","test","41","","","","","","","","","","","","","","","","","","","","","",""
"","","","","","","","","","","","html-button-response","222","2.0.0","564555","5ec17a2e02be030625eaff6e","3","50","1920","","","","","","","","","<img src= ""rock_img/I_Basalt_16.jpg"" style=""width:8cm; height:7.659999999999999cm;""><p>What type of rock is this?</p>","1","class_response","1","test","42","Basalt","Basalt","16","true","2","2","","","","","","","","","","","","","","","",""
"","","","","","","","","","","","html-keyboard-response","223","2.0.0","565057","5ec17a2e02be030625eaff6e","3","50","null","","","","","","","","","<p style='font-size: 30px;'><strong>Okay</strong></p>","null","neutral_feedback","1","test","42","","","","","","","","","","","","","","","","","","","","","",""
"","","","","","","","","","","","html-button-response","224","2.0.0","567682","5ec17a2e02be030625eaff6e","3","50","2620","","","","","","","","","<img src= ""rock_img/I_Andesite_11.jpg"" style=""width:8cm; height:4.92cm;""><p>What type of rock is this?</p>","3","class_response","1","test","43","Gabbro","Andesite","11","false","4","1","","","","","","","","","","","","","","","",""
"","","","","","","","","","","","html-keyboard-response","225","2.0.0","568184","5ec17a2e02be030625eaff6e","3","50","null","","","","","","","","","<p style='font-size: 30px;'><strong>Okay</strong></p>","null","neutral_feedback","1","test","43","","","","","","","","","","","","","","","","","","","","","",""
"","","","","","","","","","","","html-button-response","226","2.0.0","570921","5ec17a2e02be030625eaff6e","3","50","2732","","","","","","","","","<img src= ""rock_img/I_Peridotite_14.jpg"" style=""width:8cm; height:5.3cm;""><p>What type of rock is this?</p>","2","class_response","1","test","44","Diorite","Peridotite","14","false","3","7","","","","","","","","","","","","","","","",""
"","","","","","","","","","","","html-keyboard-response","227","2.0.0","571425","5ec17a2e02be030625eaff6e","3","50","null","","","","","","","","","<p style='font-size: 30px;'><strong>Okay</strong></p>","null","neutral_feedback","1","test","44","","","","","","","","","","","","","","","","","","","","","",""
"","","","","","","","","","","","html-button-response","228","2.0.0","573185","5ec17a2e02be030625eaff6e","3","50","1754","","","","","","","","","<img src= ""rock_img/I_Pumice_14.jpg"" style=""width:8cm; height:6.39cm;""><p>What type of rock is this?</p>","7","class_response","1","test","45","Pumice","Pumice","14","true","8","8","","","","","","","","","","","","","","","",""
"","","","","","","","","","","","html-keyboard-response","229","2.0.0","573689","5ec17a2e02be030625eaff6e","3","50","null","","","","","","","","","<p style='font-size: 30px;'><strong>Okay</strong></p>","null","neutral_feedback","1","test","45","","","","","","","","","","","","","","","","","","","","","",""
"","","","","","","","","","","","html-button-response","230","2.0.0","576830","5ec17a2e02be030625eaff6e","3","50","3138","","","","","","","","","<img src= ""rock_img/I_Peridotite_15.jpg"" style=""width:8cm; height:6cm;""><p>What type of rock is this?</p>","5","class_response","1","test","46","Pegmatite","Peridotite","15","false","6","7","","","","","","","","","","","","","","","",""
"","","","","","","","","","","","html-keyboard-response","231","2.0.0","577332","5ec17a2e02be030625eaff6e","3","50","null","","","","","","","","","<p style='font-size: 30px;'><strong>Okay</strong></p>","null","neutral_feedback","1","test","46","","","","","","","","","","","","","","","","","","","","","",""
"","","","","","","","","","","","html-button-response","232","2.0.0","578695","5ec17a2e02be030625eaff6e","3","50","1356","","","","","","","","","<img src= ""rock_img/I_Obsidian_11.jpg"" style=""width:8cm; height:6.05cm;""><p>What type of rock is this?</p>","4","class_response","1","test","47","Obsidian","Obsidian","11","true","5","5","","","","","","","","","","","","","","","",""
"","","","","","","","","","","","html-keyboard-response","233","2.0.0","579198","5ec17a2e02be030625eaff6e","3","50","null","","","","","","","","","<p style='font-size: 30px;'><strong>Okay</strong></p>","null","neutral_feedback","1","test","47","","","","","","","","","","","","","","","","","","","","","",""
"","","","","","","","","","","","html-button-response","234","2.0.0","580971","5ec17a2e02be030625eaff6e","3","50","1768","","","","","","","","","<img src= ""rock_img/I_Obsidian_14.jpg"" style=""width:8cm; height:7.64cm;""><p>What type of rock is this?</p>","0","class_response","1","test","48","Andesite","Obsidian","14","false","1","5","","","","","","","","","","","","","","","",""
"","","","","","","","","","","","html-keyboard-response","235","2.0.0","581474","5ec17a2e02be030625eaff6e","3","50","null","","","","","","","","","<p style='font-size: 30px;'><strong>Okay</strong></p>","null","neutral_feedback","1","test","48","","","","","","","","","","","","","","","","","","","","","",""
"","","","","","","","","","","","html-button-response","236","2.0.0","631662","5ec17a2e02be030625eaff6e","3","50","","","","","","","","","","","","cycle_feedback","","","","","","","","","","","","","","","","","","","","","","24720.699999999255","25458.699999999255","",""
"","","","","","","","","","","","html-button-response","238","2.0.0","632887","5ec17a2e02be030625eaff6e","3","50","1220","","","","","","","","","","0","start_train","","","","","","","","","","","","","","","","","","","","","","","","",""
"","","","","","","","","","","","html-button-response","240","2.0.0","635932","5ec17a2e02be030625eaff6e","3","50","3038","","","","","","","","","<img src= ""rock_img/I_Gabbro_01.jpg"" style=""width:8cm; height:5.21cm;""><p>What type of rock is this?</p>","0","class_response","2","train","1","Andesite","Gabbro","01","false","1","4","","","","","","","","","","","","","","","",""
"","","","","","","","","","","","html-button-response","241","2.0.0","637323","5ec17a2e02be030625eaff6e","3","50","1386","","","","","","","","","<img src= rock_img/I_Gabbro_01.jpg style=""width:8cm; height:5.21cm;""><p style='font-size: 30px; color: red;'><strong>Incorrect!</strong></p><p style='font-size: 30px;'><strong>This rock is gabbro</strong></p>","0","corr_feedback","2","train","1","","","","","","","","","","","","","","","","","","","","","",""
"","","","","","","","","","","","html-button-response","242","2.0.0","638451","5ec17a2e02be030625eaff6e","3","50","1122","","","","","","","","","<img src= ""rock_img/I_Obsidian_09.jpg"" style=""width:8cm; height:5cm;""><p>What type of rock is this?</p>","4","class_response","2","train","2","Obsidian","Obsidian","09","true","5","5","","","","","","","","","","","","","","","",""
"","","","","","","","","","","","html-button-response","243","2.0.0","639259","5ec17a2e02be030625eaff6e","3","50","804","","","","","","","","","<img src= rock_img/I_Obsidian_09.jpg style=""width:8cm; height:5cm;""><p style='font-size: 30px; color: green;'><strong>Correct!</strong></p><p style='font-size: 30px;'><strong>This rock is obsidian</strong></p>","0","corr_feedback","2","train","2","","","","","","","","","","","","","","","","","","","","","",""
"","","","","","","","","","","","html-button-response","244","2.0.0","641755","5ec17a2e02be030625eaff6e","3","50","2489","","","","","","","","","<img src= ""rock_img/I_Basalt_12.jpg"" style=""width:8cm; height:6.010000000000001cm;""><p>What type of rock is this?</p>","7","class_response","2","train","3","Pumice","Basalt","12","false","8","2","","","","","","","","","","","","","","","",""
"","","","","","","","","","","","html-button-response","245","2.0.0","642530","5ec17a2e02be030625eaff6e","3","50","770","","","","","","","","","<img src= rock_img/I_Basalt_12.jpg style=""width:8cm; height:6.010000000000001cm;""><p style='font-size: 30px; color: red;'><strong>Incorrect!</strong></p><p style='font-size: 30px;'><strong>This rock is basalt</strong></p>","0","corr_feedback","2","train","3","","","","","","","","","","","","","","","","","","","","","",""
"","","","","","","","","","","","html-button-response","246","2.0.0","644585","5ec17a2e02be030625eaff6e","3","50","2049","","","","","","","","","<img src= ""rock_img/I_Peridotite_04.jpg"" style=""width:8cm; height:6.680000000000001cm;""><p>What type of rock is this?</p>","2","class_response","2","train","4","Diorite","Peridotite","04","false","3","7","","","","","","","","","","","","","","","",""
"","","","","","","","","","","","html-button-response","247","2.0.0","646248","5ec17a2e02be030625eaff6e","3","50","1658","","","","","","","","","<img src= rock_img/I_Peridotite_04.jpg style=""width:8cm; height:6.680000000000001cm;""><p style='font-size: 30px; color: red;'><strong>Incorrect!</strong></p><p style='font-size: 30px;'><strong>This rock is peridotite</strong></p>","0","corr_feedback","2","train","4","","","","","","","","","","","","","","","","","","","","","",""
"","","","","","","","","","","","html-button-response","248","2.0.0","647872","5ec17a2e02be030625eaff6e","3","50","1618","","","","","","","","","<img src= ""rock_img/I_Gabbro_12.jpg"" style=""width:8cm; height:7.800000000000001cm;""><p>What type of rock is this?</p>","6","class_response","2","train","5","Peridotite","Gabbro","12","false","7","4","","","","","","","","","","","","","","","",""
"","","","","","","","","","","","html-button-response","249","2.0.0","648807","5ec17a2e02be030625eaff6e","3","50","931","","","","","","","","","<img src= rock_img/I_Gabbro_12.jpg style=""width:8cm; height:7.800000000000001cm;""><p style='font-size: 30px; color: red;'><strong>Incorrect!</strong></p><p style='font-size: 30px;'><strong>This rock is gabbro</strong></p>","0","corr_feedback","2","train","5","","","","","","","","","","","","","","","","","","","","","",""
"","","","","","","","","","","","html-button-response","250","2.0.0","650615","5ec17a2e02be030625eaff6e","3","50","1801","","","","","","","","","<img src= ""rock_img/I_Pegmatite_13.jpg"" style=""width:8cm; height:4.95cm;""><p>What type of rock is this?</p>","6","class_response","2","train","6","Peridotite","Pegmatite","13","false","7","6","","","","","","","","","","","","","","","",""
"","","","","","","","","","","","html-button-response","251","2.0.0","651571","5ec17a2e02be030625eaff6e","3","50","952","","","","","","","","","<img src= rock_img/I_Pegmatite_13.jpg style=""width:8cm; height:4.95cm;""><p style='font-size: 30px; color: red;'><strong>Incorrect!</strong></p><p style='font-size: 30px;'><strong>This rock is pegmatite</strong></p>","0","corr_feedback","2","train","6","","","","","","","","","","","","","","","","","","","","","",""
"","","","","","","","","","","","html-button-response","252","2.0.0","654004","5ec17a2e02be030625eaff6e","3","50","2429","","","","","","","","","<img src= ""rock_img/I_Peridotite_06.jpg"" style=""width:8cm; height:7.53cm;""><p>What type of rock is this?</p>","0","class_response","2","train","7","Andesite","Peridotite","06","false","1","7","","","","","","","","","","","","","","","",""
"","","","","","","","","","","","html-button-response","253","2.0.0","655092","5ec17a2e02be030625eaff6e","3","50","1082","","","","","","","","","<img src= rock_img/I_Peridotite_06.jpg style=""width:8cm; height:7.53cm;""><p style='font-size: 30px; color: red;'><strong>Incorrect!</strong></p><p style='font-size: 30px;'><strong>This rock is peridotite</strong></p>","0","corr_feedback","2","train","7","","","","","","","","","","","","","","","","","","","","","",""
"","","","","","","","","","","","html-button-response","254","2.0.0","656893","5ec17a2e02be030625eaff6e","3","50","1795","","","","","","","","","<img src= ""rock_img/I_Andesite_04.jpg"" style=""width:8cm; height:5.96cm;""><p>What type of rock is this?</p>","1","class_response","2","train","8","Basalt","Andesite","04","false","2","1","","","","","","","","","","","","","","","",""
"","","","","","","","","","","","html-button-response","255","2.0.0","658115","5ec17a2e02be030625eaff6e","3","50","1216","","","","","","","","","<img src= rock_img/I_Andesite_04.jpg style=""width:8cm; height:5.96cm;""><p style='font-size: 30px; color: red;'><strong>Incorrect!</strong></p><p style='font-size: 30px;'><strong>This rock is andesite</strong></p>","0","corr_feedback","2","train","8","","","","","","","","","","","","","","","","","","","","","",""
"","","","","","","","","","","","html-button-response","256","2.0.0","660986","5ec17a2e02be030625eaff6e","3","50","2864","","","","","","","","","<img src= ""rock_img/I_Andesite_02.jpg"" style=""width:8cm; height:8.5cm;""><p>What type of rock is this?</p>","6","class_response","2","train","9","Peridotite","Andesite","02","false","7","1","","","","","","","","","","","","","","","",""
"","","","","","","","","","","","html-button-response","257","2.0.0","661785","5ec17a2e02be030625eaff6e","3","50","793","","","","","","","","","<img src= rock_img/I_Andesite_02.jpg style=""width:8cm; height:8.5cm;""><p style='font-size: 30px; color: red;'><strong>Incorrect!</strong></p><p style='font-size: 30px;'><strong>This rock is andesite</strong></p>","0","corr_feedback","2","train","9","","","","","","","","","","","","","","","","","","","","","",""
"","","","","","","","","","","","html-button-response","258","2.0.0","663536","5ec17a2e02be030625eaff6e","3","50","1745","","","","","","","","","<img src= ""rock_img/I_Diorite_15.jpg"" style=""width:8cm; height:5.54cm;""><p>What type of rock is this?</p>","3","class_response","2","train","10","Gabbro","Diorite","15","false","4","3","","","","","","","","","","","","","","","",""
"","","","","","","","","","","","html-button-response","259","2.0.0","664656","5ec17a2e02be030625eaff6e","3","50","1114","","","","","","","","","<img src= rock_img/I_Diorite_15.jpg style=""width:8cm; height:5.54cm;""><p style='font-size: 30px; color: red;'><strong>Incorrect!</strong></p><p style='font-size: 30px;'><strong>This rock is diorite</strong></p>","0","corr_feedback","2","train","10","","","","","","","","","","","","","","","","","","","","","",""
"","","","","","","","","","","","html-button-response","260","2.0.0","666399","5ec17a2e02be030625eaff6e","3","50","1737","","","","","","","","","<img src= ""rock_img/I_Pumice_08.jpg"" style=""width:8cm; height:6.67cm;""><p>What type of rock is this?</p>","1","class_response","2","train","11","Basalt","Pumice","08","false","2","8","","","","","","","","","","","","","","","",""
"","","","","","","","","","","","html-button-response","261","2.0.0","667239","5ec17a2e02be030625eaff6e","3","50","834","","","","","","","","","<img src= rock_img/I_Pumice_08.jpg style=""width:8cm; height:6.67cm;""><p style='font-size: 30px; color: red;'><strong>Incorrect!</strong></p><p style='font-size: 30px;'><strong>This rock is pumice</strong></p>","0","corr_feedback","2","train","11","","","","","","","","","","","","","","","","","","","","","",""
"","","","","","","","","","","","html-button-response","262","2.0.0","668576","5ec17a2e02be030625eaff6e","3","50","1331","","","","","","","","","<img src= ""rock_img/I_Obsidian_07.jpg"" style=""width:8cm; height:4.76cm;""><p>What type of rock is this?</p>","4","class_response","2","train","12","Obsidian","Obsidian","07","true","5","5","","","","","","","","","","","","","","","",""
"","","","","","","","","","","","html-button-response","263","2.0.0","669318","5ec17a2e02be030625eaff6e","3","50","737","","","","","","","","","<img src= rock_img/I_Obsidian_07.jpg style=""width:8cm; height:4.76cm;""><p style='font-size: 30px; color: green;'><strong>Correct!</strong></p><p style='font-size: 30px;'><strong>This rock is obsidian</strong></p>","0","corr_feedback","2","train","12","","","","","","","","","","","","","","","","","","","","","",""
"","","","","","","","","","","","html-button-response","265","2.0.0","671924","5ec17a2e02be030625eaff6e","3","50","2600","","","","","","","","","","0","start_train","","","","","","","","","","","","","","","","","","","","","","","","",""
"","","","","","","","","","","","html-button-response","266","2.0.0","675123","5ec17a2e02be030625eaff6e","3","50","","","","","","","","","","","","cat_selection","2","train","1","","","","","","","6","7","3193.300000000745","Pegmatite","Peridotite","[0.18419218346207095,0.03772590539396031,0.17156021022368378,0.1923868131927275,0.05855250836300401,0.20501878643111465,0.12546966077786575,0.02509393215557315]","[0.2800248849434798,0.024149318022503093,0.0833326030266226,0.13306234028532993,0.028108402403122356,null,0.43059483503259754,0.02072761628634462]","","","","","","","","",""
"","","","","","","","","","","","paired-cat-display","267","1.0.0","719534","5ec17a2e02be030625eaff6e","3","50","","","","","","","","","","","","paired_cat_display","2","train","1","","","","","","","","","9299.099999997765","","","","","","","35096.29999999702","Pegamatite has large chunks, though it might also e green","","","","Has a peridot tone, and looks a bit basalty though with more spots",""
"","","","","","","","","","","","html-button-response","268","2.0.0","723843","5ec17a2e02be030625eaff6e","3","50","","","","","","","","","","","","cat_selection","2","train","2","","","","","","","1","4","4304.400000002235","Andesite","Gabbro","[0.18419218346207095,0.03772590539396031,0.17156021022368378,0.1923868131927275,0.05855250836300401,0.20501878643111465,0.12546966077786575,0.02509393215557315]","[null,0.027123989211837285,0.19961504427033072,0.3313272189422798,0.029390349199315248,0.19991883294950327,0.028541669714642642,0.18408289571209105]","","","","","","","","",""
"","","","","","","","","","","","paired-cat-display","269","1.0.0","762499","5ec17a2e02be030625eaff6e","3","50","","","","","","","","","","","","paired_cat_display","2","train","2","","","","","","","","","6994.599999997765","","","","","Andesite seems extremely composite with small bits","Gabbro seems like halfway between andesite and basalt","31651.39999999851","","","","","",""
"","","","","","","","","","","","html-button-response","270","2.0.0","764723","5ec17a2e02be030625eaff6e","3","50","","","","","","","","","","","","cat_selection","2","train","3","","","","","","","1","6","2221.099999997765","Andesite","Pegmatite","[0.18419218346207095,0.03772590539396031,0.17156021022368378,0.1923868131927275,0.05855250836300401,0.20501878643111465,0.12546966077786575,0.02509393215557315]","[null,0.027123989211837285,0.19961504427033072,0.3313272189422798,0.029390349199315248,0.19991883294950327,0.028541669714642642,0.18408289571209105]","","","","","","","","",""
"","","","","","","","","","","","paired-cat-display","271","1.0.0","797589","5ec17a2e02be030625eaff6e","3","50","","","","","","","","","","","","paired_cat_display","2","train","3","","","","","","","","","5764.300000000745","","","","","Andesite are small chunks - Imma think 'ants'","","27090.39999999851","Pegmatites are large chunks - I'mma think 'Pegmasus'","","","","",""
"","","","","","","","","","","","html-button-response","273","2.0.0","799829","5ec17a2e02be030625eaff6e","3","50","2234","","","","","","","","","","0","start_test","","","","","","","","","","","","","","","","","","","","","","","","",""
"","","","","","","","","","","","html-button-response","274","2.0.0","802067","5ec17a2e02be030625eaff6e","3","50","2232","","","","","","","","","<img src= ""rock_img/I_Basalt_10.jpg"" style=""width:8cm; height:5.85cm;""><p>What type of rock is this?</p>","1","class_response","2","test","1","Basalt","Basalt","10","true","2","2","","","","","","","","","","","","","","","",""
"","","","","","","","","","","","html-keyboard-response","275","2.0.0","802571","5ec17a2e02be030625eaff6e","3","50","null","","","","","","","","","<p style='font-size: 30px;'><strong>Okay</strong></p>","null","neutral_feedback","2","test","1","","","","","","","","","","","","","","","","","","","","","",""
"","","","","","","","","","","","html-button-response","276","2.0.0","809041","5ec17a2e02be030625eaff6e","3","50","6464","","","","","","","","","<img src= ""rock_img/I_Diorite_10.jpg"" style=""width:8cm; height:5.949999999999999cm;""><p>What type of rock is this?</p>","3","class_response","2","test","2","Gabbro","Diorite","10","false","4","3","","","","","","","","","","","","","","","",""
