width,height,webaudio,browser,browser_version,mobile,os,fullscreen,vsync_rate,webcam,microphone,trial_type,trial_index,plugin_version,time_elapsed,subjID,condition,stimID,rt,url,success,value,timeout,failed_images,failed_audio,failed_video,view_history,stimulus,response,trialType,cycle,phase,trial,resp,cat,token,corr,resp_num,cat_num,ref_cat_num,paired_cat_num,time_obs,ref_cat,paired_cat,ref_prob_dist,paired_prob_dist,text_Basalt,text_Pumice,time_resp,text_Obsidian,text_Peridotite,time_fb1,time_fb2,text_Pegmatite,text_Andesite,text_Gabbro,text_Diorite
1512,762,TRUE,chrome,130.0.0,FALSE,Mac OS,TRUE,118.48,TRUE,TRUE,browser-check,0,2.0.0,517,5d30790f326b0f0017a2a828,3,1,,,,,,,,,,,,,,,,,,,,,,,,,,,,,,,,,,,,,,,
,,,,,,,,,,,external-html,1,2.0.0,10223,5d30790f326b0f0017a2a828,3,1,9590,consent_form.html,,,,,,,,,,,,,,,,,,,,,,,,,,,,,,,,,,,,,
,,,,,,,,,,,fullscreen,2,2.0.0,12528,5d30790f326b0f0017a2a828,3,1,1300,,TRUE,,,,,,,,,,,,,,,,,,,,,,,,,,,,,,,,,,,,
,,,,,,,,,,,call-function,3,2.0.0,12533,5d30790f326b0f0017a2a828,3,1,,,,{},,,,,,,,,,,,,,,,,,,,,,,,,,,,,,,,,,,
,,,,,,,,,,,preload,4,2.0.0,15162,5d30790f326b0f0017a2a828,3,1,,,TRUE,,FALSE,[],[],[],,,,,,,,,,,,,,,,,,,,,,,,,,,,,,,
,,,,,,,,,,,instructions,5,2.0.0,140475,5d30790f326b0f0017a2a828,3,1,125326,,,,,,,,"[{""page_index"":0,""viewing_time"":79911},{""page_index"":1,""viewing_time"":34270},{""page_index"":2,""viewing_time"":11146}]",,,,,,,,,,,,,,,,,,,,,,,,,,,,,,
,,,,,,,,,,,html-button-response,6,2.0.0,144003,5d30790f326b0f0017a2a828,3,1,3525,,,,,,,,,,0,start_test,,,,,,,,,,,,,,,,,,,,,,,,,,,
,,,,,,,,,,,html-button-response,7,2.0.0,146500,5d30790f326b0f0017a2a828,3,1,2494,,,,,,,,,"<img src= ""rock_img/I_Basalt_09.jpg"" style=""width:8cm; height:6.2cm;""><p>What type of rock is this?</p>",4,class_response,0,test,1,Obsidian,Basalt,9,FALSE,5,2,,,,,,,,,,,,,,,,,,
,,,,,,,,,,,html-keyboard-response,8,2.0.0,147003,5d30790f326b0f0017a2a828,3,1,null,,,,,,,,,<p style='font-size: 30px;'><strong>Okay</strong></p>,null,neutral_feedback,0,test,1,,,,,,,,,,,,,,,,,,,,,,,,
,,,,,,,,,,,html-button-response,9,2.0.0,149109,5d30790f326b0f0017a2a828,3,1,2101,,,,,,,,,"<img src= ""rock_img/I_Gabbro_10.jpg"" style=""width:8cm; height:5.680000000000001cm;""><p>What type of rock is this?</p>",2,class_response,0,test,2,Diorite,Gabbro,10,FALSE,3,4,,,,,,,,,,,,,,,,,,
,,,,,,,,,,,html-keyboard-response,10,2.0.0,149613,5d30790f326b0f0017a2a828,3,1,null,,,,,,,,,<p style='font-size: 30px;'><strong>Okay</strong></p>,null,neutral_feedback,0,test,2,,,,,,,,,,,,,,,,,,,,,,,,
,,,,,,,,,,,html-button-response,11,2.0.0,151450,5d30790f326b0f0017a2a828,3,1,1833,,,,,,,,,"<img src= ""rock_img/I_Peridotite_10.jpg"" style=""width:8cm; height:5.390000000000001cm;""><p>What type of rock is this?</p>",1,class_response,0,test,3,Basalt,Peridotite,10,FALSE,2,7,,,,,,,,,,,,,,,,,,
,,,,,,,,,,,html-keyboard-response,12,2.0.0,151952,5d30790f326b0f0017a2a828,3,1,null,,,,,,,,,<p style='font-size: 30px;'><strong>Okay</strong></p>,null,neutral_feedback,0,test,3,,,,,,,,,,,,,,,,,,,,,,,,
,,,,,,,,,,,html-button-response,13,2.0.0,153963,5d30790f326b0f0017a2a828,3,1,2008,,,,,,,,,"<img src= ""rock_img/I_Basalt_14.jpg"" style=""width:8cm; height:5.82cm;""><p>What type of rock is this?</p>",6,class_response,0,test,4,Peridotite,Basalt,14,FALSE,7,2,,,,,,,,,,,,,,,,,,
,,,,,,,,,,,html-keyboard-response,14,2.0.0,154467,5d30790f326b0f0017a2a828,3,1,null,,,,,,,,,<p style='font-size: 30px;'><strong>Okay</strong></p>,null,neutral_feedback,0,test,4,,,,,,,,,,,,,,,,,,,,,,,,
,,,,,,,,,,,html-button-response,15,2.0.0,156467,5d30790f326b0f0017a2a828,3,1,1995,,,,,,,,,"<img src= ""rock_img/I_Diorite_02.jpg"" style=""width:8cm; height:6.27cm;""><p>What type of rock is this?</p>",0,class_response,0,test,5,Andesite,Diorite,2,FALSE,1,3,,,,,,,,,,,,,,,,,,
,,,,,,,,,,,html-keyboard-response,16,2.0.0,156970,5d30790f326b0f0017a2a828,3,1,null,,,,,,,,,<p style='font-size: 30px;'><strong>Okay</strong></p>,null,neutral_feedback,0,test,5,,,,,,,,,,,,,,,,,,,,,,,,
,,,,,,,,,,,html-button-response,17,2.0.0,159321,5d30790f326b0f0017a2a828,3,1,2347,,,,,,,,,"<img src= ""rock_img/I_Pumice_10.jpg"" style=""width:8cm; height:7.609999999999999cm;""><p>What type of rock is this?</p>",5,class_response,0,test,6,Pegmatite,Pumice,10,FALSE,6,8,,,,,,,,,,,,,,,,,,
,,,,,,,,,,,html-keyboard-response,18,2.0.0,159825,5d30790f326b0f0017a2a828,3,1,null,,,,,,,,,<p style='font-size: 30px;'><strong>Okay</strong></p>,null,neutral_feedback,0,test,6,,,,,,,,,,,,,,,,,,,,,,,,
,,,,,,,,,,,html-button-response,19,2.0.0,160830,5d30790f326b0f0017a2a828,3,1,1000,,,,,,,,,"<img src= ""rock_img/I_Pegmatite_10.jpg"" style=""width:8cm; height:4.16cm;""><p>What type of rock is this?</p>",7,class_response,0,test,7,Pumice,Pegmatite,10,FALSE,8,6,,,,,,,,,,,,,,,,,,
,,,,,,,,,,,html-keyboard-response,20,2.0.0,161333,5d30790f326b0f0017a2a828,3,1,null,,,,,,,,,<p style='font-size: 30px;'><strong>Okay</strong></p>,null,neutral_feedback,0,test,7,,,,,,,,,,,,,,,,,,,,,,,,
,,,,,,,,,,,html-button-response,21,2.0.0,162987,5d30790f326b0f0017a2a828,3,1,1650,,,,,,,,,"<img src= ""rock_img/I_Gabbro_12.jpg"" style=""width:8cm; height:7.800000000000001cm;""><p>What type of rock is this?</p>",4,class_response,0,test,8,Obsidian,Gabbro,12,FALSE,5,4,,,,,,,,,,,,,,,,,,
,,,,,,,,,,,html-keyboard-response,22,2.0.0,163489,5d30790f326b0f0017a2a828,3,1,null,,,,,,,,,<p style='font-size: 30px;'><strong>Okay</strong></p>,null,neutral_feedback,0,test,8,,,,,,,,,,,,,,,,,,,,,,,,
,,,,,,,,,,,html-button-response,23,2.0.0,165907,5d30790f326b0f0017a2a828,3,1,2415,,,,,,,,,"<img src= ""rock_img/I_Diorite_06.jpg"" style=""width:8cm; height:6.03cm;""><p>What type of rock is this?</p>",3,class_response,0,test,9,Gabbro,Diorite,6,FALSE,4,3,,,,,,,,,,,,,,,,,,
,,,,,,,,,,,html-keyboard-response,24,2.0.0,166410,5d30790f326b0f0017a2a828,3,1,null,,,,,,,,,<p style='font-size: 30px;'><strong>Okay</strong></p>,null,neutral_feedback,0,test,9,,,,,,,,,,,,,,,,,,,,,,,,
,,,,,,,,,,,html-button-response,25,2.0.0,167987,5d30790f326b0f0017a2a828,3,1,1574,,,,,,,,,"<img src= ""rock_img/I_Pumice_14.jpg"" style=""width:8cm; height:6.39cm;""><p>What type of rock is this?</p>",1,class_response,0,test,10,Basalt,Pumice,14,FALSE,2,8,,,,,,,,,,,,,,,,,,
,,,,,,,,,,,html-keyboard-response,26,2.0.0,168490,5d30790f326b0f0017a2a828,3,1,null,,,,,,,,,<p style='font-size: 30px;'><strong>Okay</strong></p>,null,neutral_feedback,0,test,10,,,,,,,,,,,,,,,,,,,,,,,,
,,,,,,,,,,,html-button-response,27,2.0.0,169920,5d30790f326b0f0017a2a828,3,1,1426,,,,,,,,,"<img src= ""rock_img/I_Andesite_01.jpg"" style=""width:8cm; height:5.87cm;""><p>What type of rock is this?</p>",2,class_response,0,test,11,Diorite,Andesite,1,FALSE,3,1,,,,,,,,,,,,,,,,,,
,,,,,,,,,,,html-keyboard-response,28,2.0.0,170425,5d30790f326b0f0017a2a828,3,1,null,,,,,,,,,<p style='font-size: 30px;'><strong>Okay</strong></p>,null,neutral_feedback,0,test,11,,,,,,,,,,,,,,,,,,,,,,,,
,,,,,,,,,,,html-button-response,29,2.0.0,173036,5d30790f326b0f0017a2a828,3,1,2608,,,,,,,,,"<img src= ""rock_img/I_Andesite_11.jpg"" style=""width:8cm; height:4.92cm;""><p>What type of rock is this?</p>",0,class_response,0,test,12,Andesite,Andesite,11,TRUE,1,1,,,,,,,,,,,,,,,,,,
,,,,,,,,,,,html-keyboard-response,30,2.0.0,173538,5d30790f326b0f0017a2a828,3,1,null,,,,,,,,,<p style='font-size: 30px;'><strong>Okay</strong></p>,null,neutral_feedback,0,test,12,,,,,,,,,,,,,,,,,,,,,,,,
,,,,,,,,,,,html-button-response,31,2.0.0,174788,5d30790f326b0f0017a2a828,3,1,1245,,,,,,,,,"<img src= ""rock_img/I_Andesite_05.jpg"" style=""width:8cm; height:4.12cm;""><p>What type of rock is this?</p>",7,class_response,0,test,13,Pumice,Andesite,5,FALSE,8,1,,,,,,,,,,,,,,,,,,
,,,,,,,,,,,html-keyboard-response,32,2.0.0,175291,5d30790f326b0f0017a2a828,3,1,null,,,,,,,,,<p style='font-size: 30px;'><strong>Okay</strong></p>,null,neutral_feedback,0,test,13,,,,,,,,,,,,,,,,,,,,,,,,
,,,,,,,,,,,html-button-response,33,2.0.0,177334,5d30790f326b0f0017a2a828,3,1,2038,,,,,,,,,"<img src= ""rock_img/I_Pegmatite_06.jpg"" style=""width:8cm; height:5.17cm;""><p>What type of rock is this?</p>",4,class_response,0,test,14,Obsidian,Pegmatite,6,FALSE,5,6,,,,,,,,,,,,,,,,,,
,,,,,,,,,,,html-keyboard-response,34,2.0.0,177837,5d30790f326b0f0017a2a828,3,1,null,,,,,,,,,<p style='font-size: 30px;'><strong>Okay</strong></p>,null,neutral_feedback,0,test,14,,,,,,,,,,,,,,,,,,,,,,,,
,,,,,,,,,,,html-button-response,35,2.0.0,179717,5d30790f326b0f0017a2a828,3,1,1875,,,,,,,,,"<img src= ""rock_img/I_Diorite_09.jpg"" style=""width:8cm; height:5.27cm;""><p>What type of rock is this?</p>",1,class_response,0,test,15,Basalt,Diorite,9,FALSE,2,3,,,,,,,,,,,,,,,,,,
,,,,,,,,,,,html-keyboard-response,36,2.0.0,180221,5d30790f326b0f0017a2a828,3,1,null,,,,,,,,,<p style='font-size: 30px;'><strong>Okay</strong></p>,null,neutral_feedback,0,test,15,,,,,,,,,,,,,,,,,,,,,,,,
,,,,,,,,,,,html-button-response,37,2.0.0,183263,5d30790f326b0f0017a2a828,3,1,3037,,,,,,,,,"<img src= ""rock_img/I_Pumice_08.jpg"" style=""width:8cm; height:6.67cm;""><p>What type of rock is this?</p>",1,class_response,0,test,16,Basalt,Pumice,8,FALSE,2,8,,,,,,,,,,,,,,,,,,
,,,,,,,,,,,html-keyboard-response,38,2.0.0,183766,5d30790f326b0f0017a2a828,3,1,null,,,,,,,,,<p style='font-size: 30px;'><strong>Okay</strong></p>,null,neutral_feedback,0,test,16,,,,,,,,,,,,,,,,,,,,,,,,
,,,,,,,,,,,html-button-response,39,2.0.0,184700,5d30790f326b0f0017a2a828,3,1,929,,,,,,,,,"<img src= ""rock_img/I_Pumice_13.jpg"" style=""width:8cm; height:8.200000000000001cm;""><p>What type of rock is this?</p>",1,class_response,0,test,17,Basalt,Pumice,13,FALSE,2,8,,,,,,,,,,,,,,,,,,
,,,,,,,,,,,html-keyboard-response,40,2.0.0,185204,5d30790f326b0f0017a2a828,3,1,null,,,,,,,,,<p style='font-size: 30px;'><strong>Okay</strong></p>,null,neutral_feedback,0,test,17,,,,,,,,,,,,,,,,,,,,,,,,
,,,,,,,,,,,html-button-response,41,2.0.0,186561,5d30790f326b0f0017a2a828,3,1,1354,,,,,,,,,"<img src= ""rock_img/I_Basalt_12.jpg"" style=""width:8cm; height:6.010000000000001cm;""><p>What type of rock is this?</p>",4,class_response,0,test,18,Obsidian,Basalt,12,FALSE,5,2,,,,,,,,,,,,,,,,,,
,,,,,,,,,,,html-keyboard-response,42,2.0.0,187065,5d30790f326b0f0017a2a828,3,1,null,,,,,,,,,<p style='font-size: 30px;'><strong>Okay</strong></p>,null,neutral_feedback,0,test,18,,,,,,,,,,,,,,,,,,,,,,,,
,,,,,,,,,,,html-button-response,43,2.0.0,190116,5d30790f326b0f0017a2a828,3,1,3047,,,,,,,,,"<img src= ""rock_img/I_Peridotite_15.jpg"" style=""width:8cm; height:6cm;""><p>What type of rock is this?</p>",1,class_response,0,test,19,Basalt,Peridotite,15,FALSE,2,7,,,,,,,,,,,,,,,,,,
,,,,,,,,,,,html-keyboard-response,44,2.0.0,190619,5d30790f326b0f0017a2a828,3,1,null,,,,,,,,,<p style='font-size: 30px;'><strong>Okay</strong></p>,null,neutral_feedback,0,test,19,,,,,,,,,,,,,,,,,,,,,,,,
,,,,,,,,,,,html-button-response,45,2.0.0,192237,5d30790f326b0f0017a2a828,3,1,1613,,,,,,,,,"<img src= ""rock_img/I_Peridotite_04.jpg"" style=""width:8cm; height:6.680000000000001cm;""><p>What type of rock is this?</p>",6,class_response,0,test,20,Peridotite,Peridotite,4,TRUE,7,7,,,,,,,,,,,,,,,,,,
,,,,,,,,,,,html-keyboard-response,46,2.0.0,192740,5d30790f326b0f0017a2a828,3,1,null,,,,,,,,,<p style='font-size: 30px;'><strong>Okay</strong></p>,null,neutral_feedback,0,test,20,,,,,,,,,,,,,,,,,,,,,,,,
,,,,,,,,,,,html-button-response,47,2.0.0,194241,5d30790f326b0f0017a2a828,3,1,1498,,,,,,,,,"<img src= ""rock_img/I_Obsidian_16.jpg"" style=""width:8cm; height:9.3cm;""><p>What type of rock is this?</p>",4,class_response,0,test,21,Obsidian,Obsidian,16,TRUE,5,5,,,,,,,,,,,,,,,,,,
,,,,,,,,,,,html-keyboard-response,48,2.0.0,194745,5d30790f326b0f0017a2a828,3,1,null,,,,,,,,,<p style='font-size: 30px;'><strong>Okay</strong></p>,null,neutral_feedback,0,test,21,,,,,,,,,,,,,,,,,,,,,,,,
,,,,,,,,,,,html-button-response,49,2.0.0,196725,5d30790f326b0f0017a2a828,3,1,1975,,,,,,,,,"<img src= ""rock_img/I_Diorite_11.jpg"" style=""width:8cm; height:7.11cm;""><p>What type of rock is this?</p>",5,class_response,0,test,22,Pegmatite,Diorite,11,FALSE,6,3,,,,,,,,,,,,,,,,,,
,,,,,,,,,,,html-keyboard-response,50,2.0.0,197229,5d30790f326b0f0017a2a828,3,1,null,,,,,,,,,<p style='font-size: 30px;'><strong>Okay</strong></p>,null,neutral_feedback,0,test,22,,,,,,,,,,,,,,,,,,,,,,,,
,,,,,,,,,,,html-button-response,51,2.0.0,198835,5d30790f326b0f0017a2a828,3,1,1603,,,,,,,,,"<img src= ""rock_img/I_Peridotite_07.jpg"" style=""width:8cm; height:4.83cm;""><p>What type of rock is this?</p>",2,class_response,0,test,23,Diorite,Peridotite,7,FALSE,3,7,,,,,,,,,,,,,,,,,,
,,,,,,,,,,,html-keyboard-response,52,2.0.0,199338,5d30790f326b0f0017a2a828,3,1,null,,,,,,,,,<p style='font-size: 30px;'><strong>Okay</strong></p>,null,neutral_feedback,0,test,23,,,,,,,,,,,,,,,,,,,,,,,,
,,,,,,,,,,,html-button-response,53,2.0.0,200571,5d30790f326b0f0017a2a828,3,1,1229,,,,,,,,,"<img src= ""rock_img/I_Obsidian_08.jpg"" style=""width:8cm; height:7.39cm;""><p>What type of rock is this?</p>",4,class_response,0,test,24,Obsidian,Obsidian,8,TRUE,5,5,,,,,,,,,,,,,,,,,,
,,,,,,,,,,,html-keyboard-response,54,2.0.0,201073,5d30790f326b0f0017a2a828,3,1,null,,,,,,,,,<p style='font-size: 30px;'><strong>Okay</strong></p>,null,neutral_feedback,0,test,24,,,,,,,,,,,,,,,,,,,,,,,,
,,,,,,,,,,,html-button-response,55,2.0.0,204340,5d30790f326b0f0017a2a828,3,1,3264,,,,,,,,,"<img src= ""rock_img/I_Obsidian_07.jpg"" style=""width:8cm; height:4.76cm;""><p>What type of rock is this?</p>",4,class_response,0,test,25,Obsidian,Obsidian,7,TRUE,5,5,,,,,,,,,,,,,,,,,,
,,,,,,,,,,,html-keyboard-response,56,2.0.0,204843,5d30790f326b0f0017a2a828,3,1,null,,,,,,,,,<p style='font-size: 30px;'><strong>Okay</strong></p>,null,neutral_feedback,0,test,25,,,,,,,,,,,,,,,,,,,,,,,,
,,,,,,,,,,,html-button-response,57,2.0.0,206014,5d30790f326b0f0017a2a828,3,1,1168,,,,,,,,,"<img src= ""rock_img/I_Obsidian_12.jpg"" style=""width:8cm; height:6.53cm;""><p>What type of rock is this?</p>",4,class_response,0,test,26,Obsidian,Obsidian,12,TRUE,5,5,,,,,,,,,,,,,,,,,,
,,,,,,,,,,,html-keyboard-response,58,2.0.0,206517,5d30790f326b0f0017a2a828,3,1,null,,,,,,,,,<p style='font-size: 30px;'><strong>Okay</strong></p>,null,neutral_feedback,0,test,26,,,,,,,,,,,,,,,,,,,,,,,,
,,,,,,,,,,,html-button-response,59,2.0.0,208328,5d30790f326b0f0017a2a828,3,1,1807,,,,,,,,,"<img src= ""rock_img/I_Basalt_08.jpg"" style=""width:8cm; height:10.44cm;""><p>What type of rock is this?</p>",4,class_response,0,test,27,Obsidian,Basalt,8,FALSE,5,2,,,,,,,,,,,,,,,,,,
,,,,,,,,,,,html-keyboard-response,60,2.0.0,208829,5d30790f326b0f0017a2a828,3,1,null,,,,,,,,,<p style='font-size: 30px;'><strong>Okay</strong></p>,null,neutral_feedback,0,test,27,,,,,,,,,,,,,,,,,,,,,,,,
,,,,,,,,,,,html-button-response,61,2.0.0,209816,5d30790f326b0f0017a2a828,3,1,983,,,,,,,,,"<img src= ""rock_img/I_Gabbro_15.jpg"" style=""width:8cm; height:6.29cm;""><p>What type of rock is this?</p>",6,class_response,0,test,28,Peridotite,Gabbro,15,FALSE,7,4,,,,,,,,,,,,,,,,,,
,,,,,,,,,,,html-keyboard-response,62,2.0.0,210319,5d30790f326b0f0017a2a828,3,1,null,,,,,,,,,<p style='font-size: 30px;'><strong>Okay</strong></p>,null,neutral_feedback,0,test,28,,,,,,,,,,,,,,,,,,,,,,,,
,,,,,,,,,,,html-button-response,63,2.0.0,211565,5d30790f326b0f0017a2a828,3,1,1243,,,,,,,,,"<img src= ""rock_img/I_Pegmatite_16.jpg"" style=""width:8cm; height:5.8cm;""><p>What type of rock is this?</p>",0,class_response,0,test,29,Andesite,Pegmatite,16,FALSE,1,6,,,,,,,,,,,,,,,,,,
,,,,,,,,,,,html-keyboard-response,64,2.0.0,212069,5d30790f326b0f0017a2a828,3,1,null,,,,,,,,,<p style='font-size: 30px;'><strong>Okay</strong></p>,null,neutral_feedback,0,test,29,,,,,,,,,,,,,,,,,,,,,,,,
,,,,,,,,,,,html-button-response,65,2.0.0,213207,5d30790f326b0f0017a2a828,3,1,1134,,,,,,,,,"<img src= ""rock_img/I_Obsidian_06.jpg"" style=""width:8cm; height:6.8cm;""><p>What type of rock is this?</p>",4,class_response,0,test,30,Obsidian,Obsidian,6,TRUE,5,5,,,,,,,,,,,,,,,,,,
,,,,,,,,,,,html-keyboard-response,66,2.0.0,213710,5d30790f326b0f0017a2a828,3,1,null,,,,,,,,,<p style='font-size: 30px;'><strong>Okay</strong></p>,null,neutral_feedback,0,test,30,,,,,,,,,,,,,,,,,,,,,,,,
,,,,,,,,,,,html-button-response,67,2.0.0,215516,5d30790f326b0f0017a2a828,3,1,1801,,,,,,,,,"<img src= ""rock_img/I_Pumice_09.jpg"" style=""width:8cm; height:6.44cm;""><p>What type of rock is this?</p>",5,class_response,0,test,31,Pegmatite,Pumice,9,FALSE,6,8,,,,,,,,,,,,,,,,,,
,,,,,,,,,,,html-keyboard-response,68,2.0.0,216019,5d30790f326b0f0017a2a828,3,1,null,,,,,,,,,<p style='font-size: 30px;'><strong>Okay</strong></p>,null,neutral_feedback,0,test,31,,,,,,,,,,,,,,,,,,,,,,,,
,,,,,,,,,,,html-button-response,69,2.0.0,219588,5d30790f326b0f0017a2a828,3,1,3565,,,,,,,,,"<img src= ""rock_img/I_Andesite_09.jpg"" style=""width:8cm; height:6cm;""><p>What type of rock is this?</p>",2,class_response,0,test,32,Diorite,Andesite,9,FALSE,3,1,,,,,,,,,,,,,,,,,,
,,,,,,,,,,,html-keyboard-response,70,2.0.0,220091,5d30790f326b0f0017a2a828,3,1,null,,,,,,,,,<p style='font-size: 30px;'><strong>Okay</strong></p>,null,neutral_feedback,0,test,32,,,,,,,,,,,,,,,,,,,,,,,,
,,,,,,,,,,,html-button-response,71,2.0.0,221227,5d30790f326b0f0017a2a828,3,1,1133,,,,,,,,,"<img src= ""rock_img/I_Obsidian_11.jpg"" style=""width:8cm; height:6.05cm;""><p>What type of rock is this?</p>",4,class_response,0,test,33,Obsidian,Obsidian,11,TRUE,5,5,,,,,,,,,,,,,,,,,,
,,,,,,,,,,,html-keyboard-response,72,2.0.0,221730,5d30790f326b0f0017a2a828,3,1,null,,,,,,,,,<p style='font-size: 30px;'><strong>Okay</strong></p>,null,neutral_feedback,0,test,33,,,,,,,,,,,,,,,,,,,,,,,,
,,,,,,,,,,,html-button-response,73,2.0.0,223274,5d30790f326b0f0017a2a828,3,1,1540,,,,,,,,,"<img src= ""rock_img/I_Basalt_11.jpg"" style=""width:8cm; height:5.359999999999999cm;""><p>What type of rock is this?</p>",7,class_response,0,test,34,Pumice,Basalt,11,FALSE,8,2,,,,,,,,,,,,,,,,,,
,,,,,,,,,,,html-keyboard-response,74,2.0.0,223776,5d30790f326b0f0017a2a828,3,1,null,,,,,,,,,<p style='font-size: 30px;'><strong>Okay</strong></p>,null,neutral_feedback,0,test,34,,,,,,,,,,,,,,,,,,,,,,,,
,,,,,,,,,,,html-button-response,75,2.0.0,224840,5d30790f326b0f0017a2a828,3,1,1060,,,,,,,,,"<img src= ""rock_img/I_Gabbro_16.jpg"" style=""width:8cm; height:6.44cm;""><p>What type of rock is this?</p>",1,class_response,0,test,35,Basalt,Gabbro,16,FALSE,2,4,,,,,,,,,,,,,,,,,,
,,,,,,,,,,,html-keyboard-response,76,2.0.0,225342,5d30790f326b0f0017a2a828,3,1,null,,,,,,,,,<p style='font-size: 30px;'><strong>Okay</strong></p>,null,neutral_feedback,0,test,35,,,,,,,,,,,,,,,,,,,,,,,,
,,,,,,,,,,,html-button-response,77,2.0.0,227265,5d30790f326b0f0017a2a828,3,1,1919,,,,,,,,,"<img src= ""rock_img/I_Peridotite_13.jpg"" style=""width:8cm; height:7.58cm;""><p>What type of rock is this?</p>",0,class_response,0,test,36,Andesite,Peridotite,13,FALSE,1,7,,,,,,,,,,,,,,,,,,
,,,,,,,,,,,html-keyboard-response,78,2.0.0,227768,5d30790f326b0f0017a2a828,3,1,null,,,,,,,,,<p style='font-size: 30px;'><strong>Okay</strong></p>,null,neutral_feedback,0,test,36,,,,,,,,,,,,,,,,,,,,,,,,
,,,,,,,,,,,html-button-response,79,2.0.0,229735,5d30790f326b0f0017a2a828,3,1,1964,,,,,,,,,"<img src= ""rock_img/I_Basalt_10.jpg"" style=""width:8cm; height:5.85cm;""><p>What type of rock is this?</p>",4,class_response,0,test,37,Obsidian,Basalt,10,FALSE,5,2,,,,,,,,,,,,,,,,,,
,,,,,,,,,,,html-keyboard-response,80,2.0.0,230238,5d30790f326b0f0017a2a828,3,1,null,,,,,,,,,<p style='font-size: 30px;'><strong>Okay</strong></p>,null,neutral_feedback,0,test,37,,,,,,,,,,,,,,,,,,,,,,,,
,,,,,,,,,,,html-button-response,81,2.0.0,231258,5d30790f326b0f0017a2a828,3,1,1016,,,,,,,,,"<img src= ""rock_img/I_Gabbro_13.jpg"" style=""width:8cm; height:5.08cm;""><p>What type of rock is this?</p>",6,class_response,0,test,38,Peridotite,Gabbro,13,FALSE,7,4,,,,,,,,,,,,,,,,,,
,,,,,,,,,,,html-keyboard-response,82,2.0.0,231761,5d30790f326b0f0017a2a828,3,1,null,,,,,,,,,<p style='font-size: 30px;'><strong>Okay</strong></p>,null,neutral_feedback,0,test,38,,,,,,,,,,,,,,,,,,,,,,,,
,,,,,,,,,,,html-button-response,83,2.0.0,232707,5d30790f326b0f0017a2a828,3,1,943,,,,,,,,,"<img src= ""rock_img/I_Andesite_03.jpg"" style=""width:8cm; height:5.73cm;""><p>What type of rock is this?</p>",1,class_response,0,test,39,Basalt,Andesite,3,FALSE,2,1,,,,,,,,,,,,,,,,,,
,,,,,,,,,,,html-keyboard-response,84,2.0.0,233209,5d30790f326b0f0017a2a828,3,1,null,,,,,,,,,<p style='font-size: 30px;'><strong>Okay</strong></p>,null,neutral_feedback,0,test,39,,,,,,,,,,,,,,,,,,,,,,,,
,,,,,,,,,,,html-button-response,85,2.0.0,233627,5d30790f326b0f0017a2a828,3,1,414,,,,,,,,,"<img src= ""rock_img/I_Andesite_07.jpg"" style=""width:8cm; height:5.93cm;""><p>What type of rock is this?</p>",3,class_response,0,test,40,Gabbro,Andesite,7,FALSE,4,1,,,,,,,,,,,,,,,,,,
,,,,,,,,,,,html-keyboard-response,86,2.0.0,234131,5d30790f326b0f0017a2a828,3,1,null,,,,,,,,,<p style='font-size: 30px;'><strong>Okay</strong></p>,null,neutral_feedback,0,test,40,,,,,,,,,,,,,,,,,,,,,,,,
,,,,,,,,,,,html-button-response,87,2.0.0,234515,5d30790f326b0f0017a2a828,3,1,380,,,,,,,,,"<img src= ""rock_img/I_Peridotite_14.jpg"" style=""width:8cm; height:5.3cm;""><p>What type of rock is this?</p>",5,class_response,0,test,41,Pegmatite,Peridotite,14,FALSE,6,7,,,,,,,,,,,,,,,,,,
,,,,,,,,,,,html-keyboard-response,88,2.0.0,235017,5d30790f326b0f0017a2a828,3,1,null,,,,,,,,,<p style='font-size: 30px;'><strong>Okay</strong></p>,null,neutral_feedback,0,test,41,,,,,,,,,,,,,,,,,,,,,,,,
,,,,,,,,,,,html-button-response,89,2.0.0,235889,5d30790f326b0f0017a2a828,3,1,869,,,,,,,,,"<img src= ""rock_img/I_Pegmatite_08.jpg"" style=""width:8cm; height:7.68cm;""><p>What type of rock is this?</p>",4,class_response,0,test,42,Obsidian,Pegmatite,8,FALSE,5,6,,,,,,,,,,,,,,,,,,
,,,,,,,,,,,html-keyboard-response,90,2.0.0,236391,5d30790f326b0f0017a2a828,3,1,null,,,,,,,,,<p style='font-size: 30px;'><strong>Okay</strong></p>,null,neutral_feedback,0,test,42,,,,,,,,,,,,,,,,,,,,,,,,
,,,,,,,,,,,html-button-response,91,2.0.0,237272,5d30790f326b0f0017a2a828,3,1,876,,,,,,,,,"<img src= ""rock_img/I_Pegmatite_03.jpg"" style=""width:8cm; height:5.239999999999999cm;""><p>What type of rock is this?</p>",1,class_response,0,test,43,Basalt,Pegmatite,3,FALSE,2,6,,,,,,,,,,,,,,,,,,
,,,,,,,,,,,html-keyboard-response,92,2.0.0,237775,5d30790f326b0f0017a2a828,3,1,null,,,,,,,,,<p style='font-size: 30px;'><strong>Okay</strong></p>,null,neutral_feedback,0,test,43,,,,,,,,,,,,,,,,,,,,,,,,
,,,,,,,,,,,html-button-response,93,2.0.0,238794,5d30790f326b0f0017a2a828,3,1,1015,,,,,,,,,"<img src= ""rock_img/I_Diorite_10.jpg"" style=""width:8cm; height:5.949999999999999cm;""><p>What type of rock is this?</p>",1,class_response,0,test,44,Basalt,Diorite,10,FALSE,2,3,,,,,,,,,,,,,,,,,,
,,,,,,,,,,,html-keyboard-response,94,2.0.0,239296,5d30790f326b0f0017a2a828,3,1,null,,,,,,,,,<p style='font-size: 30px;'><strong>Okay</strong></p>,null,neutral_feedback,0,test,44,,,,,,,,,,,,,,,,,,,,,,,,
,,,,,,,,,,,html-button-response,95,2.0.0,241146,5d30790f326b0f0017a2a828,3,1,1848,,,,,,,,,"<img src= ""rock_img/I_Gabbro_09.jpg"" style=""width:8cm; height:7.279999999999999cm;""><p>What type of rock is this?</p>",4,class_response,0,test,45,Obsidian,Gabbro,9,FALSE,5,4,,,,,,,,,,,,,,,,,,
,,,,,,,,,,,html-keyboard-response,96,2.0.0,241648,5d30790f326b0f0017a2a828,3,1,null,,,,,,,,,<p style='font-size: 30px;'><strong>Okay</strong></p>,null,neutral_feedback,0,test,45,,,,,,,,,,,,,,,,,,,,,,,,
,,,,,,,,,,,html-button-response,97,2.0.0,242121,5d30790f326b0f0017a2a828,3,1,468,,,,,,,,,"<img src= ""rock_img/I_Pumice_05.jpg"" style=""width:8cm; height:7.25cm;""><p>What type of rock is this?</p>",6,class_response,0,test,46,Peridotite,Pumice,5,FALSE,7,8,,,,,,,,,,,,,,,,,,
,,,,,,,,,,,html-keyboard-response,98,2.0.0,242624,5d30790f326b0f0017a2a828,3,1,null,,,,,,,,,<p style='font-size: 30px;'><strong>Okay</strong></p>,null,neutral_feedback,0,test,46,,,,,,,,,,,,,,,,,,,,,,,,
,,,,,,,,,,,html-button-response,99,2.0.0,243053,5d30790f326b0f0017a2a828,3,1,428,,,,,,,,,"<img src= ""rock_img/I_Pegmatite_12.jpg"" style=""width:8cm; height:5.7cm;""><p>What type of rock is this?</p>",0,class_response,0,test,47,Andesite,Pegmatite,12,FALSE,1,6,,,,,,,,,,,,,,,,,,
,,,,,,,,,,,html-keyboard-response,100,2.0.0,243554,5d30790f326b0f0017a2a828,3,1,null,,,,,,,,,<p style='font-size: 30px;'><strong>Okay</strong></p>,null,neutral_feedback,0,test,47,,,,,,,,,,,,,,,,,,,,,,,,
,,,,,,,,,,,html-button-response,101,2.0.0,243925,5d30790f326b0f0017a2a828,3,1,365,,,,,,,,,"<img src= ""rock_img/I_Diorite_15.jpg"" style=""width:8cm; height:5.54cm;""><p>What type of rock is this?</p>",7,class_response,0,test,48,Pumice,Diorite,15,FALSE,8,3,,,,,,,,,,,,,,,,,,
,,,,,,,,,,,html-keyboard-response,102,2.0.0,244428,5d30790f326b0f0017a2a828,3,1,null,,,,,,,,,<p style='font-size: 30px;'><strong>Okay</strong></p>,null,neutral_feedback,0,test,48,,,,,,,,,,,,,,,,,,,,,,,,
,,,,,,,,,,,instructions,103,2.0.0,341964,5d30790f326b0f0017a2a828,3,1,97519,,,,,,,,"[{""page_index"":0,""viewing_time"":95188},{""page_index"":1,""viewing_time"":2330}]",,,,,,,,,,,,,,,,,,,,,,,,,,,,,,
,,,,,,,,,,,html-button-response,104,2.0.0,344947,5d30790f326b0f0017a2a828,3,1,2979,,,,,,,,,,0,start_train,,,,,,,,,,,,,,,,,,,,,,,,,,,
,,,,,,,,,,,html-button-response,106,2.0.0,346944,5d30790f326b0f0017a2a828,3,1,1993,,,,,,,,,"<img src= ""rock_img/I_Pumice_16.jpg"" style=""width:8cm; height:6.79cm;""><p>What type of rock is this?</p>",1,class_response,1,train,1,Basalt,Pumice,16,FALSE,2,8,,,,,,,,,,,,,,,,,,
,,,,,,,,,,,html-button-response,107,2.0.0,349518,5d30790f326b0f0017a2a828,3,1,2571,,,,,,,,,"<img src= rock_img/I_Pumice_16.jpg style=""width:8cm; height:6.79cm;""><p style='font-size: 30px; color: red;'><strong>Incorrect!</strong></p><p style='font-size: 30px;'><strong>This rock is pumice</strong></p>",0,corr_feedback,1,train,1,,,,,,,,,,,,,,,,,,,,,,,,
,,,,,,,,,,,html-button-response,108,2.0.0,350454,5d30790f326b0f0017a2a828,3,1,934,,,,,,,,,"<img src= ""rock_img/I_Gabbro_05.jpg"" style=""width:8cm; height:6cm;""><p>What type of rock is this?</p>",2,class_response,1,train,2,Diorite,Gabbro,5,FALSE,3,4,,,,,,,,,,,,,,,,,,
,,,,,,,,,,,html-button-response,109,2.0.0,351481,5d30790f326b0f0017a2a828,3,1,1024,,,,,,,,,"<img src= rock_img/I_Gabbro_05.jpg style=""width:8cm; height:6cm;""><p style='font-size: 30px; color: red;'><strong>Incorrect!</strong></p><p style='font-size: 30px;'><strong>This rock is gabbro</strong></p>",0,corr_feedback,1,train,2,,,,,,,,,,,,,,,,,,,,,,,,
,,,,,,,,,,,html-button-response,110,2.0.0,352595,5d30790f326b0f0017a2a828,3,1,1111,,,,,,,,,"<img src= ""rock_img/I_Pumice_04.jpg"" style=""width:8cm; height:6.819999999999999cm;""><p>What type of rock is this?</p>",0,class_response,1,train,3,Andesite,Pumice,4,FALSE,1,8,,,,,,,,,,,,,,,,,,
,,,,,,,,,,,html-button-response,111,2.0.0,353580,5d30790f326b0f0017a2a828,3,1,983,,,,,,,,,"<img src= rock_img/I_Pumice_04.jpg style=""width:8cm; height:6.819999999999999cm;""><p style='font-size: 30px; color: red;'><strong>Incorrect!</strong></p><p style='font-size: 30px;'><strong>This rock is pumice</strong></p>",0,corr_feedback,1,train,3,,,,,,,,,,,,,,,,,,,,,,,,
,,,,,,,,,,,html-button-response,112,2.0.0,356003,5d30790f326b0f0017a2a828,3,1,2420,,,,,,,,,"<img src= ""rock_img/I_Andesite_10.jpg"" style=""width:8cm; height:4.16cm;""><p>What type of rock is this?</p>",5,class_response,1,train,4,Pegmatite,Andesite,10,FALSE,6,1,,,,,,,,,,,,,,,,,,
,,,,,,,,,,,html-button-response,113,2.0.0,357285,5d30790f326b0f0017a2a828,3,1,1279,,,,,,,,,"<img src= rock_img/I_Andesite_10.jpg style=""width:8cm; height:4.16cm;""><p style='font-size: 30px; color: red;'><strong>Incorrect!</strong></p><p style='font-size: 30px;'><strong>This rock is andesite</strong></p>",0,corr_feedback,1,train,4,,,,,,,,,,,,,,,,,,,,,,,,
,,,,,,,,,,,html-button-response,114,2.0.0,358871,5d30790f326b0f0017a2a828,3,1,1581,,,,,,,,,"<img src= ""rock_img/I_Gabbro_01.jpg"" style=""width:8cm; height:5.21cm;""><p>What type of rock is this?</p>",1,class_response,1,train,5,Basalt,Gabbro,1,FALSE,2,4,,,,,,,,,,,,,,,,,,
,,,,,,,,,,,html-button-response,115,2.0.0,359964,5d30790f326b0f0017a2a828,3,1,1090,,,,,,,,,"<img src= rock_img/I_Gabbro_01.jpg style=""width:8cm; height:5.21cm;""><p style='font-size: 30px; color: red;'><strong>Incorrect!</strong></p><p style='font-size: 30px;'><strong>This rock is gabbro</strong></p>",0,corr_feedback,1,train,5,,,,,,,,,,,,,,,,,,,,,,,,
,,,,,,,,,,,html-button-response,116,2.0.0,361050,5d30790f326b0f0017a2a828,3,1,1084,,,,,,,,,"<img src= ""rock_img/I_Pegmatite_13.jpg"" style=""width:8cm; height:4.95cm;""><p>What type of rock is this?</p>",2,class_response,1,train,6,Diorite,Pegmatite,13,FALSE,3,6,,,,,,,,,,,,,,,,,,
,,,,,,,,,,,html-button-response,117,2.0.0,362043,5d30790f326b0f0017a2a828,3,1,990,,,,,,,,,"<img src= rock_img/I_Pegmatite_13.jpg style=""width:8cm; height:4.95cm;""><p style='font-size: 30px; color: red;'><strong>Incorrect!</strong></p><p style='font-size: 30px;'><strong>This rock is pegmatite</strong></p>",0,corr_feedback,1,train,6,,,,,,,,,,,,,,,,,,,,,,,,
,,,,,,,,,,,html-button-response,118,2.0.0,363122,5d30790f326b0f0017a2a828,3,1,1076,,,,,,,,,"<img src= ""rock_img/I_Obsidian_09.jpg"" style=""width:8cm; height:5cm;""><p>What type of rock is this?</p>",4,class_response,1,train,7,Obsidian,Obsidian,9,TRUE,5,5,,,,,,,,,,,,,,,,,,
,,,,,,,,,,,html-button-response,119,2.0.0,364119,5d30790f326b0f0017a2a828,3,1,995,,,,,,,,,"<img src= rock_img/I_Obsidian_09.jpg style=""width:8cm; height:5cm;""><p style='font-size: 30px; color: green;'><strong>Correct!</strong></p><p style='font-size: 30px;'><strong>This rock is obsidian</strong></p>",0,corr_feedback,1,train,7,,,,,,,,,,,,,,,,,,,,,,,,
,,,,,,,,,,,html-button-response,120,2.0.0,365540,5d30790f326b0f0017a2a828,3,1,1418,,,,,,,,,"<img src= ""rock_img/I_Diorite_14.jpg"" style=""width:8cm; height:5.71cm;""><p>What type of rock is this?</p>",5,class_response,1,train,8,Pegmatite,Diorite,14,FALSE,6,3,,,,,,,,,,,,,,,,,,
,,,,,,,,,,,html-button-response,121,2.0.0,366572,5d30790f326b0f0017a2a828,3,1,1030,,,,,,,,,"<img src= rock_img/I_Diorite_14.jpg style=""width:8cm; height:5.71cm;""><p style='font-size: 30px; color: red;'><strong>Incorrect!</strong></p><p style='font-size: 30px;'><strong>This rock is diorite</strong></p>",0,corr_feedback,1,train,8,,,,,,,,,,,,,,,,,,,,,,,,
,,,,,,,,,,,html-button-response,122,2.0.0,369451,5d30790f326b0f0017a2a828,3,1,2876,,,,,,,,,"<img src= ""rock_img/I_Peridotite_08.jpg"" style=""width:8cm; height:6.7cm;""><p>What type of rock is this?</p>",1,class_response,1,train,9,Basalt,Peridotite,8,FALSE,2,7,,,,,,,,,,,,,,,,,,
,,,,,,,,,,,html-button-response,123,2.0.0,370617,5d30790f326b0f0017a2a828,3,1,1164,,,,,,,,,"<img src= rock_img/I_Peridotite_08.jpg style=""width:8cm; height:6.7cm;""><p style='font-size: 30px; color: red;'><strong>Incorrect!</strong></p><p style='font-size: 30px;'><strong>This rock is peridotite</strong></p>",0,corr_feedback,1,train,9,,,,,,,,,,,,,,,,,,,,,,,,
,,,,,,,,,,,html-button-response,124,2.0.0,372789,5d30790f326b0f0017a2a828,3,1,2169,,,,,,,,,"<img src= ""rock_img/I_Andesite_14.jpg"" style=""width:8cm; height:5.449999999999999cm;""><p>What type of rock is this?</p>",0,class_response,1,train,10,Andesite,Andesite,14,TRUE,1,1,,,,,,,,,,,,,,,,,,
,,,,,,,,,,,html-button-response,125,2.0.0,374573,5d30790f326b0f0017a2a828,3,1,1781,,,,,,,,,"<img src= rock_img/I_Andesite_14.jpg style=""width:8cm; height:5.449999999999999cm;""><p style='font-size: 30px; color: green;'><strong>Correct!</strong></p><p style='font-size: 30px;'><strong>This rock is andesite</strong></p>",0,corr_feedback,1,train,10,,,,,,,,,,,,,,,,,,,,,,,,
,,,,,,,,,,,html-button-response,126,2.0.0,376032,5d30790f326b0f0017a2a828,3,1,1456,,,,,,,,,"<img src= ""rock_img/I_Basalt_04.jpg"" style=""width:8cm; height:7.53cm;""><p>What type of rock is this?</p>",4,class_response,1,train,11,Obsidian,Basalt,4,FALSE,5,2,,,,,,,,,,,,,,,,,,
,,,,,,,,,,,html-button-response,127,2.0.0,377122,5d30790f326b0f0017a2a828,3,1,1088,,,,,,,,,"<img src= rock_img/I_Basalt_04.jpg style=""width:8cm; height:7.53cm;""><p style='font-size: 30px; color: red;'><strong>Incorrect!</strong></p><p style='font-size: 30px;'><strong>This rock is basalt</strong></p>",0,corr_feedback,1,train,11,,,,,,,,,,,,,,,,,,,,,,,,
,,,,,,,,,,,html-button-response,128,2.0.0,383263,5d30790f326b0f0017a2a828,3,1,6138,,,,,,,,,"<img src= ""rock_img/I_Pegmatite_15.jpg"" style=""width:8cm; height:6cm;""><p>What type of rock is this?</p>",5,class_response,1,train,12,Pegmatite,Pegmatite,15,TRUE,6,6,,,,,,,,,,,,,,,,,,
,,,,,,,,,,,html-button-response,129,2.0.0,384746,5d30790f326b0f0017a2a828,3,1,1481,,,,,,,,,"<img src= rock_img/I_Pegmatite_15.jpg style=""width:8cm; height:6cm;""><p style='font-size: 30px; color: green;'><strong>Correct!</strong></p><p style='font-size: 30px;'><strong>This rock is pegmatite</strong></p>",0,corr_feedback,1,train,12,,,,,,,,,,,,,,,,,,,,,,,,
,,,,,,,,,,,instructions,130,2.0.0,430412,5d30790f326b0f0017a2a828,3,1,45663,,,,,,,,"[{""page_index"":0,""viewing_time"":4314},{""page_index"":1,""viewing_time"":30246},{""page_index"":2,""viewing_time"":6783},{""page_index"":3,""viewing_time"":4320}]",,,,,,,,,,,,,,,,,,,,,,,,,,,,,,
,,,,,,,,,,,html-button-response,131,2.0.0,431588,5d30790f326b0f0017a2a828,3,1,1173,,,,,,,,,,0,start_train,,,,,,,,,,,,,,,,,,,,,,,,,,,
,,,,,,,,,,,html-button-response,132,2.0.0,435439,5d30790f326b0f0017a2a828,3,1,,,,,,,,,,,,cat_selection,1,train,1,,,,,,,2,8,3845.9,Basalt,Pumice,"[0.125,0.1467391304347826,0.1467391304347826,0.1467391304347826,0.016304347826086956,0.1467391304347826,0.125,0.1467391304347826]","[0.05710161764915082,null,0.045478266145457004,0.05546724245954846,0.4744600838099517,0.04470675984477515,0.16159604301942207,0.16118998707169477]",,,,,,,,,,,
,,,,,,,,,,,paired-cat-display,133,1.0.0,479410,5d30790f326b0f0017a2a828,3,1,,,,,,,,,,,,paired_cat_display,1,train,1,,,,,,,,,13728.4,,,,,"Solid darker colors, not shiny like obsidian.",lighter colors but HOLES inside the rock. like swiss cheese.,30235.7,,,,,,,,
,,,,,,,,,,,html-button-response,134,2.0.0,484454,5d30790f326b0f0017a2a828,3,1,,,,,,,,,,,,cat_selection,1,train,2,,,,,,,2,5,5040.2,Basalt,Obsidian,"[0.125,0.1467391304347826,0.1467391304347826,0.1467391304347826,0.016304347826086956,0.1467391304347826,0.125,0.1467391304347826]","[0.05710161764915082,null,0.045478266145457004,0.05546724245954846,0.4744600838099517,0.04470675984477515,0.16159604301942207,0.16118998707169477]",,,,,,,,,,,
,,,,,,,,,,,paired-cat-display,135,1.0.0,514968,5d30790f326b0f0017a2a828,3,1,,,,,,,,,,,,paired_cat_display,1,train,2,,,,,,,,,6604.7,,,,,darker colors but not shiny.,,23901.8,"Very shiny, dark colors. the difference between basalt and obsidian is the SHINE.",,,,,,,
,,,,,,,,,,,html-button-response,136,2.0.0,532541,5d30790f326b0f0017a2a828,3,1,,,,,,,,,,,,cat_selection,1,train,3,,,,,,,2,7,17570.8,Basalt,Peridotite,"[0.125,0.1467391304347826,0.1467391304347826,0.1467391304347826,0.016304347826086956,0.1467391304347826,0.125,0.1467391304347826]","[0.05710161764915082,null,0.045478266145457004,0.05546724245954846,0.4744600838099517,0.04470675984477515,0.16159604301942207,0.16118998707169477]",,,,,,,,,,,
,,,,,,,,,,,paired-cat-display,137,1.0.0,577472,5d30790f326b0f0017a2a828,3,1,,,,,,,,,,,,paired_cat_display,1,train,3,,,,,,,,,8283.5,,,,,dark solid colors but no shine.,,36640.4,,"sparkly, dark, colorful rocks. no holes, but dark spackles.",,,,,,
,,,,,,,,,,,instructions,138,2.0.0,601661,5d30790f326b0f0017a2a828,3,1,24186,,,,,,,,"[{""page_index"":0,""viewing_time"":12373},{""page_index"":1,""viewing_time"":11812}]",,,,,,,,,,,,,,,,,,,,,,,,,,,,,,
,,,,,,,,,,,html-button-response,139,2.0.0,603473,5d30790f326b0f0017a2a828,3,1,1808,,,,,,,,,,0,start_test,,,,,,,,,,,,,,,,,,,,,,,,,,,
,,,,,,,,,,,html-button-response,140,2.0.0,607849,5d30790f326b0f0017a2a828,3,1,4371,,,,,,,,,"<img src= ""rock_img/I_Andesite_05.jpg"" style=""width:8cm; height:4.12cm;""><p>What type of rock is this?</p>",6,class_response,1,test,1,Peridotite,Andesite,5,FALSE,7,1,,,,,,,,,,,,,,,,,,
,,,,,,,,,,,html-keyboard-response,141,2.0.0,608352,5d30790f326b0f0017a2a828,3,1,null,,,,,,,,,<p style='font-size: 30px;'><strong>Okay</strong></p>,null,neutral_feedback,1,test,1,,,,,,,,,,,,,,,,,,,,,,,,
,,,,,,,,,,,html-button-response,142,2.0.0,619886,5d30790f326b0f0017a2a828,3,1,11530,,,,,,,,,"<img src= ""rock_img/I_Pegmatite_06.jpg"" style=""width:8cm; height:5.17cm;""><p>What type of rock is this?</p>",5,class_response,1,test,2,Pegmatite,Pegmatite,6,TRUE,6,6,,,,,,,,,,,,,,,,,,
,,,,,,,,,,,html-keyboard-response,143,2.0.0,620389,5d30790f326b0f0017a2a828,3,1,null,,,,,,,,,<p style='font-size: 30px;'><strong>Okay</strong></p>,null,neutral_feedback,1,test,2,,,,,,,,,,,,,,,,,,,,,,,,
,,,,,,,,,,,html-button-response,144,2.0.0,625819,5d30790f326b0f0017a2a828,3,1,5426,,,,,,,,,"<img src= ""rock_img/I_Gabbro_09.jpg"" style=""width:8cm; height:7.279999999999999cm;""><p>What type of rock is this?</p>",1,class_response,1,test,3,Basalt,Gabbro,9,FALSE,2,4,,,,,,,,,,,,,,,,,,
,,,,,,,,,,,html-keyboard-response,145,2.0.0,626323,5d30790f326b0f0017a2a828,3,1,null,,,,,,,,,<p style='font-size: 30px;'><strong>Okay</strong></p>,null,neutral_feedback,1,test,3,,,,,,,,,,,,,,,,,,,,,,,,
,,,,,,,,,,,html-button-response,146,2.0.0,629003,5d30790f326b0f0017a2a828,3,1,2677,,,,,,,,,"<img src= ""rock_img/I_Basalt_11.jpg"" style=""width:8cm; height:5.359999999999999cm;""><p>What type of rock is this?</p>",1,class_response,1,test,4,Basalt,Basalt,11,TRUE,2,2,,,,,,,,,,,,,,,,,,
,,,,,,,,,,,html-keyboard-response,147,2.0.0,629506,5d30790f326b0f0017a2a828,3,1,null,,,,,,,,,<p style='font-size: 30px;'><strong>Okay</strong></p>,null,neutral_feedback,1,test,4,,,,,,,,,,,,,,,,,,,,,,,,
,,,,,,,,,,,html-button-response,148,2.0.0,635894,5d30790f326b0f0017a2a828,3,1,6384,,,,,,,,,"<img src= ""rock_img/I_Peridotite_15.jpg"" style=""width:8cm; height:6cm;""><p>What type of rock is this?</p>",6,class_response,1,test,5,Peridotite,Peridotite,15,TRUE,7,7,,,,,,,,,,,,,,,,,,
,,,,,,,,,,,html-keyboard-response,149,2.0.0,636397,5d30790f326b0f0017a2a828,3,1,null,,,,,,,,,<p style='font-size: 30px;'><strong>Okay</strong></p>,null,neutral_feedback,1,test,5,,,,,,,,,,,,,,,,,,,,,,,,
,,,,,,,,,,,html-button-response,150,2.0.0,637591,5d30790f326b0f0017a2a828,3,1,1190,,,,,,,,,"<img src= ""rock_img/I_Obsidian_16.jpg"" style=""width:8cm; height:9.3cm;""><p>What type of rock is this?</p>",4,class_response,1,test,6,Obsidian,Obsidian,16,TRUE,5,5,,,,,,,,,,,,,,,,,,
,,,,,,,,,,,html-keyboard-response,151,2.0.0,638093,5d30790f326b0f0017a2a828,3,1,null,,,,,,,,,<p style='font-size: 30px;'><strong>Okay</strong></p>,null,neutral_feedback,1,test,6,,,,,,,,,,,,,,,,,,,,,,,,
,,,,,,,,,,,html-button-response,152,2.0.0,639109,5d30790f326b0f0017a2a828,3,1,1010,,,,,,,,,"<img src= ""rock_img/I_Obsidian_11.jpg"" style=""width:8cm; height:6.05cm;""><p>What type of rock is this?</p>",4,class_response,1,test,7,Obsidian,Obsidian,11,TRUE,5,5,,,,,,,,,,,,,,,,,,
,,,,,,,,,,,html-keyboard-response,153,2.0.0,639611,5d30790f326b0f0017a2a828,3,1,null,,,,,,,,,<p style='font-size: 30px;'><strong>Okay</strong></p>,null,neutral_feedback,1,test,7,,,,,,,,,,,,,,,,,,,,,,,,
,,,,,,,,,,,html-button-response,154,2.0.0,641086,5d30790f326b0f0017a2a828,3,1,1471,,,,,,,,,"<img src= ""rock_img/I_Andesite_09.jpg"" style=""width:8cm; height:6cm;""><p>What type of rock is this?</p>",1,class_response,1,test,8,Basalt,Andesite,9,FALSE,2,1,,,,,,,,,,,,,,,,,,
,,,,,,,,,,,html-keyboard-response,155,2.0.0,641589,5d30790f326b0f0017a2a828,3,1,null,,,,,,,,,<p style='font-size: 30px;'><strong>Okay</strong></p>,null,neutral_feedback,1,test,8,,,,,,,,,,,,,,,,,,,,,,,,
,,,,,,,,,,,html-button-response,156,2.0.0,648419,5d30790f326b0f0017a2a828,3,1,6825,,,,,,,,,"<img src= ""rock_img/I_Gabbro_13.jpg"" style=""width:8cm; height:5.08cm;""><p>What type of rock is this?</p>",6,class_response,1,test,9,Peridotite,Gabbro,13,FALSE,7,4,,,,,,,,,,,,,,,,,,
,,,,,,,,,,,html-keyboard-response,157,2.0.0,648923,5d30790f326b0f0017a2a828,3,1,null,,,,,,,,,<p style='font-size: 30px;'><strong>Okay</strong></p>,null,neutral_feedback,1,test,9,,,,,,,,,,,,,,,,,,,,,,,,
,,,,,,,,,,,html-button-response,158,2.0.0,652014,5d30790f326b0f0017a2a828,3,1,3087,,,,,,,,,"<img src= ""rock_img/I_Gabbro_12.jpg"" style=""width:8cm; height:7.800000000000001cm;""><p>What type of rock is this?</p>",1,class_response,1,test,10,Basalt,Gabbro,12,FALSE,2,4,,,,,,,,,,,,,,,,,,
,,,,,,,,,,,html-keyboard-response,159,2.0.0,652518,5d30790f326b0f0017a2a828,3,1,null,,,,,,,,,<p style='font-size: 30px;'><strong>Okay</strong></p>,null,neutral_feedback,1,test,10,,,,,,,,,,,,,,,,,,,,,,,,
,,,,,,,,,,,html-button-response,160,2.0.0,654011,5d30790f326b0f0017a2a828,3,1,1489,,,,,,,,,"<img src= ""rock_img/I_Pumice_08.jpg"" style=""width:8cm; height:6.67cm;""><p>What type of rock is this?</p>",7,class_response,1,test,11,Pumice,Pumice,8,TRUE,8,8,,,,,,,,,,,,,,,,,,
,,,,,,,,,,,html-keyboard-response,161,2.0.0,654513,5d30790f326b0f0017a2a828,3,1,null,,,,,,,,,<p style='font-size: 30px;'><strong>Okay</strong></p>,null,neutral_feedback,1,test,11,,,,,,,,,,,,,,,,,,,,,,,,
,,,,,,,,,,,html-button-response,162,2.0.0,656049,5d30790f326b0f0017a2a828,3,1,1531,,,,,,,,,"<img src= ""rock_img/I_Andesite_01.jpg"" style=""width:8cm; height:5.87cm;""><p>What type of rock is this?</p>",1,class_response,1,test,12,Basalt,Andesite,1,FALSE,2,1,,,,,,,,,,,,,,,,,,
,,,,,,,,,,,html-keyboard-response,163,2.0.0,656552,5d30790f326b0f0017a2a828,3,1,null,,,,,,,,,<p style='font-size: 30px;'><strong>Okay</strong></p>,null,neutral_feedback,1,test,12,,,,,,,,,,,,,,,,,,,,,,,,
,,,,,,,,,,,html-button-response,164,2.0.0,658291,5d30790f326b0f0017a2a828,3,1,1735,,,,,,,,,"<img src= ""rock_img/I_Peridotite_14.jpg"" style=""width:8cm; height:5.3cm;""><p>What type of rock is this?</p>",5,class_response,1,test,13,Pegmatite,Peridotite,14,FALSE,6,7,,,,,,,,,,,,,,,,,,
,,,,,,,,,,,html-keyboard-response,165,2.0.0,658794,5d30790f326b0f0017a2a828,3,1,null,,,,,,,,,<p style='font-size: 30px;'><strong>Okay</strong></p>,null,neutral_feedback,1,test,13,,,,,,,,,,,,,,,,,,,,,,,,
,,,,,,,,,,,html-button-response,166,2.0.0,660235,5d30790f326b0f0017a2a828,3,1,1437,,,,,,,,,"<img src= ""rock_img/I_Gabbro_10.jpg"" style=""width:8cm; height:5.680000000000001cm;""><p>What type of rock is this?</p>",1,class_response,1,test,14,Basalt,Gabbro,10,FALSE,2,4,,,,,,,,,,,,,,,,,,
,,,,,,,,,,,html-keyboard-response,167,2.0.0,660738,5d30790f326b0f0017a2a828,3,1,null,,,,,,,,,<p style='font-size: 30px;'><strong>Okay</strong></p>,null,neutral_feedback,1,test,14,,,,,,,,,,,,,,,,,,,,,,,,
,,,,,,,,,,,html-button-response,168,2.0.0,662151,5d30790f326b0f0017a2a828,3,1,1409,,,,,,,,,"<img src= ""rock_img/I_Diorite_06.jpg"" style=""width:8cm; height:6.03cm;""><p>What type of rock is this?</p>",6,class_response,1,test,15,Peridotite,Diorite,6,FALSE,7,3,,,,,,,,,,,,,,,,,,
,,,,,,,,,,,html-keyboard-response,169,2.0.0,662653,5d30790f326b0f0017a2a828,3,1,null,,,,,,,,,<p style='font-size: 30px;'><strong>Okay</strong></p>,null,neutral_feedback,1,test,15,,,,,,,,,,,,,,,,,,,,,,,,
,,,,,,,,,,,html-button-response,170,2.0.0,665608,5d30790f326b0f0017a2a828,3,1,2950,,,,,,,,,"<img src= ""rock_img/I_Peridotite_07.jpg"" style=""width:8cm; height:4.83cm;""><p>What type of rock is this?</p>",6,class_response,1,test,16,Peridotite,Peridotite,7,TRUE,7,7,,,,,,,,,,,,,,,,,,
,,,,,,,,,,,html-keyboard-response,171,2.0.0,666111,5d30790f326b0f0017a2a828,3,1,null,,,,,,,,,<p style='font-size: 30px;'><strong>Okay</strong></p>,null,neutral_feedback,1,test,16,,,,,,,,,,,,,,,,,,,,,,,,
,,,,,,,,,,,html-button-response,172,2.0.0,669984,5d30790f326b0f0017a2a828,3,1,3869,,,,,,,,,"<img src= ""rock_img/I_Pegmatite_16.jpg"" style=""width:8cm; height:5.8cm;""><p>What type of rock is this?</p>",0,class_response,1,test,17,Andesite,Pegmatite,16,FALSE,1,6,,,,,,,,,,,,,,,,,,
,,,,,,,,,,,html-keyboard-response,173,2.0.0,670486,5d30790f326b0f0017a2a828,3,1,null,,,,,,,,,<p style='font-size: 30px;'><strong>Okay</strong></p>,null,neutral_feedback,1,test,17,,,,,,,,,,,,,,,,,,,,,,,,
,,,,,,,,,,,html-button-response,174,2.0.0,672950,5d30790f326b0f0017a2a828,3,1,2460,,,,,,,,,"<img src= ""rock_img/I_Diorite_15.jpg"" style=""width:8cm; height:5.54cm;""><p>What type of rock is this?</p>",5,class_response,1,test,18,Pegmatite,Diorite,15,FALSE,6,3,,,,,,,,,,,,,,,,,,
,,,,,,,,,,,html-keyboard-response,175,2.0.0,673452,5d30790f326b0f0017a2a828,3,1,null,,,,,,,,,<p style='font-size: 30px;'><strong>Okay</strong></p>,null,neutral_feedback,1,test,18,,,,,,,,,,,,,,,,,,,,,,,,
,,,,,,,,,,,html-button-response,176,2.0.0,675216,5d30790f326b0f0017a2a828,3,1,1760,,,,,,,,,"<img src= ""rock_img/I_Pegmatite_03.jpg"" style=""width:8cm; height:5.239999999999999cm;""><p>What type of rock is this?</p>",0,class_response,1,test,19,Andesite,Pegmatite,3,FALSE,1,6,,,,,,,,,,,,,,,,,,
,,,,,,,,,,,html-keyboard-response,177,2.0.0,675718,5d30790f326b0f0017a2a828,3,1,null,,,,,,,,,<p style='font-size: 30px;'><strong>Okay</strong></p>,null,neutral_feedback,1,test,19,,,,,,,,,,,,,,,,,,,,,,,,
,,,,,,,,,,,html-button-response,178,2.0.0,677049,5d30790f326b0f0017a2a828,3,1,1328,,,,,,,,,"<img src= ""rock_img/I_Obsidian_06.jpg"" style=""width:8cm; height:6.8cm;""><p>What type of rock is this?</p>",4,class_response,1,test,20,Obsidian,Obsidian,6,TRUE,5,5,,,,,,,,,,,,,,,,,,
,,,,,,,,,,,html-keyboard-response,179,2.0.0,677551,5d30790f326b0f0017a2a828,3,1,null,,,,,,,,,<p style='font-size: 30px;'><strong>Okay</strong></p>,null,neutral_feedback,1,test,20,,,,,,,,,,,,,,,,,,,,,,,,
,,,,,,,,,,,html-button-response,180,2.0.0,678273,5d30790f326b0f0017a2a828,3,1,717,,,,,,,,,"<img src= ""rock_img/I_Obsidian_12.jpg"" style=""width:8cm; height:6.53cm;""><p>What type of rock is this?</p>",4,class_response,1,test,21,Obsidian,Obsidian,12,TRUE,5,5,,,,,,,,,,,,,,,,,,
,,,,,,,,,,,html-keyboard-response,181,2.0.0,678776,5d30790f326b0f0017a2a828,3,1,null,,,,,,,,,<p style='font-size: 30px;'><strong>Okay</strong></p>,null,neutral_feedback,1,test,21,,,,,,,,,,,,,,,,,,,,,,,,
,,,,,,,,,,,html-button-response,182,2.0.0,679775,5d30790f326b0f0017a2a828,3,1,996,,,,,,,,,"<img src= ""rock_img/I_Gabbro_16.jpg"" style=""width:8cm; height:6.44cm;""><p>What type of rock is this?</p>",1,class_response,1,test,22,Basalt,Gabbro,16,FALSE,2,4,,,,,,,,,,,,,,,,,,
,,,,,,,,,,,html-keyboard-response,183,2.0.0,680277,5d30790f326b0f0017a2a828,3,1,null,,,,,,,,,<p style='font-size: 30px;'><strong>Okay</strong></p>,null,neutral_feedback,1,test,22,,,,,,,,,,,,,,,,,,,,,,,,
,,,,,,,,,,,html-button-response,184,2.0.0,683288,5d30790f326b0f0017a2a828,3,1,3007,,,,,,,,,"<img src= ""rock_img/I_Pegmatite_12.jpg"" style=""width:8cm; height:5.7cm;""><p>What type of rock is this?</p>",6,class_response,1,test,23,Peridotite,Pegmatite,12,FALSE,7,6,,,,,,,,,,,,,,,,,,
,,,,,,,,,,,html-keyboard-response,185,2.0.0,683790,5d30790f326b0f0017a2a828,3,1,null,,,,,,,,,<p style='font-size: 30px;'><strong>Okay</strong></p>,null,neutral_feedback,1,test,23,,,,,,,,,,,,,,,,,,,,,,,,
,,,,,,,,,,,html-button-response,186,2.0.0,684890,5d30790f326b0f0017a2a828,3,1,1097,,,,,,,,,"<img src= ""rock_img/I_Pegmatite_10.jpg"" style=""width:8cm; height:4.16cm;""><p>What type of rock is this?</p>",0,class_response,1,test,24,Andesite,Pegmatite,10,FALSE,1,6,,,,,,,,,,,,,,,,,,
,,,,,,,,,,,html-keyboard-response,187,2.0.0,685392,5d30790f326b0f0017a2a828,3,1,null,,,,,,,,,<p style='font-size: 30px;'><strong>Okay</strong></p>,null,neutral_feedback,1,test,24,,,,,,,,,,,,,,,,,,,,,,,,
,,,,,,,,,,,html-button-response,188,2.0.0,687735,5d30790f326b0f0017a2a828,3,1,2339,,,,,,,,,"<img src= ""rock_img/I_Andesite_11.jpg"" style=""width:8cm; height:4.92cm;""><p>What type of rock is this?</p>",5,class_response,1,test,25,Pegmatite,Andesite,11,FALSE,6,1,,,,,,,,,,,,,,,,,,
,,,,,,,,,,,html-keyboard-response,189,2.0.0,688238,5d30790f326b0f0017a2a828,3,1,null,,,,,,,,,<p style='font-size: 30px;'><strong>Okay</strong></p>,null,neutral_feedback,1,test,25,,,,,,,,,,,,,,,,,,,,,,,,
,,,,,,,,,,,html-button-response,190,2.0.0,690385,5d30790f326b0f0017a2a828,3,1,2142,,,,,,,,,"<img src= ""rock_img/I_Peridotite_13.jpg"" style=""width:8cm; height:7.58cm;""><p>What type of rock is this?</p>",0,class_response,1,test,26,Andesite,Peridotite,13,FALSE,1,7,,,,,,,,,,,,,,,,,,
,,,,,,,,,,,html-keyboard-response,191,2.0.0,690886,5d30790f326b0f0017a2a828,3,1,null,,,,,,,,,<p style='font-size: 30px;'><strong>Okay</strong></p>,null,neutral_feedback,1,test,26,,,,,,,,,,,,,,,,,,,,,,,,
,,,,,,,,,,,html-button-response,192,2.0.0,693190,5d30790f326b0f0017a2a828,3,1,2301,,,,,,,,,"<img src= ""rock_img/I_Diorite_02.jpg"" style=""width:8cm; height:6.27cm;""><p>What type of rock is this?</p>",6,class_response,1,test,27,Peridotite,Diorite,2,FALSE,7,3,,,,,,,,,,,,,,,,,,
,,,,,,,,,,,html-keyboard-response,193,2.0.0,693692,5d30790f326b0f0017a2a828,3,1,null,,,,,,,,,<p style='font-size: 30px;'><strong>Okay</strong></p>,null,neutral_feedback,1,test,27,,,,,,,,,,,,,,,,,,,,,,,,
,,,,,,,,,,,html-button-response,194,2.0.0,694789,5d30790f326b0f0017a2a828,3,1,1093,,,,,,,,,"<img src= ""rock_img/I_Andesite_07.jpg"" style=""width:8cm; height:5.93cm;""><p>What type of rock is this?</p>",6,class_response,1,test,28,Peridotite,Andesite,7,FALSE,7,1,,,,,,,,,,,,,,,,,,
,,,,,,,,,,,html-keyboard-response,195,2.0.0,695292,5d30790f326b0f0017a2a828,3,1,null,,,,,,,,,<p style='font-size: 30px;'><strong>Okay</strong></p>,null,neutral_feedback,1,test,28,,,,,,,,,,,,,,,,,,,,,,,,
,,,,,,,,,,,html-button-response,196,2.0.0,698081,5d30790f326b0f0017a2a828,3,1,2785,,,,,,,,,"<img src= ""rock_img/I_Basalt_08.jpg"" style=""width:8cm; height:10.44cm;""><p>What type of rock is this?</p>",1,class_response,1,test,29,Basalt,Basalt,8,TRUE,2,2,,,,,,,,,,,,,,,,,,
,,,,,,,,,,,html-keyboard-response,197,2.0.0,698585,5d30790f326b0f0017a2a828,3,1,null,,,,,,,,,<p style='font-size: 30px;'><strong>Okay</strong></p>,null,neutral_feedback,1,test,29,,,,,,,,,,,,,,,,,,,,,,,,
,,,,,,,,,,,html-button-response,198,2.0.0,700142,5d30790f326b0f0017a2a828,3,1,1555,,,,,,,,,"<img src= ""rock_img/I_Basalt_09.jpg"" style=""width:8cm; height:6.2cm;""><p>What type of rock is this?</p>",1,class_response,1,test,30,Basalt,Basalt,9,TRUE,2,2,,,,,,,,,,,,,,,,,,
,,,,,,,,,,,html-keyboard-response,199,2.0.0,700644,5d30790f326b0f0017a2a828,3,1,null,,,,,,,,,<p style='font-size: 30px;'><strong>Okay</strong></p>,null,neutral_feedback,1,test,30,,,,,,,,,,,,,,,,,,,,,,,,
,,,,,,,,,,,html-button-response,200,2.0.0,701791,5d30790f326b0f0017a2a828,3,1,1143,,,,,,,,,"<img src= ""rock_img/I_Peridotite_10.jpg"" style=""width:8cm; height:5.390000000000001cm;""><p>What type of rock is this?</p>",5,class_response,1,test,31,Pegmatite,Peridotite,10,FALSE,6,7,,,,,,,,,,,,,,,,,,
,,,,,,,,,,,html-keyboard-response,201,2.0.0,702293,5d30790f326b0f0017a2a828,3,1,null,,,,,,,,,<p style='font-size: 30px;'><strong>Okay</strong></p>,null,neutral_feedback,1,test,31,,,,,,,,,,,,,,,,,,,,,,,,
,,,,,,,,,,,html-button-response,202,2.0.0,704493,5d30790f326b0f0017a2a828,3,1,2196,,,,,,,,,"<img src= ""rock_img/I_Basalt_10.jpg"" style=""width:8cm; height:5.85cm;""><p>What type of rock is this?</p>",1,class_response,1,test,32,Basalt,Basalt,10,TRUE,2,2,,,,,,,,,,,,,,,,,,
,,,,,,,,,,,html-keyboard-response,203,2.0.0,704997,5d30790f326b0f0017a2a828,3,1,null,,,,,,,,,<p style='font-size: 30px;'><strong>Okay</strong></p>,null,neutral_feedback,1,test,32,,,,,,,,,,,,,,,,,,,,,,,,
,,,,,,,,,,,html-button-response,204,2.0.0,706673,5d30790f326b0f0017a2a828,3,1,1673,,,,,,,,,"<img src= ""rock_img/I_Pegmatite_08.jpg"" style=""width:8cm; height:7.68cm;""><p>What type of rock is this?</p>",6,class_response,1,test,33,Peridotite,Pegmatite,8,FALSE,7,6,,,,,,,,,,,,,,,,,,
,,,,,,,,,,,html-keyboard-response,205,2.0.0,707175,5d30790f326b0f0017a2a828,3,1,null,,,,,,,,,<p style='font-size: 30px;'><strong>Okay</strong></p>,null,neutral_feedback,1,test,33,,,,,,,,,,,,,,,,,,,,,,,,
,,,,,,,,,,,html-button-response,206,2.0.0,708215,5d30790f326b0f0017a2a828,3,1,1036,,,,,,,,,"<img src= ""rock_img/I_Pumice_13.jpg"" style=""width:8cm; height:8.200000000000001cm;""><p>What type of rock is this?</p>",7,class_response,1,test,34,Pumice,Pumice,13,TRUE,8,8,,,,,,,,,,,,,,,,,,
,,,,,,,,,,,html-keyboard-response,207,2.0.0,708717,5d30790f326b0f0017a2a828,3,1,null,,,,,,,,,<p style='font-size: 30px;'><strong>Okay</strong></p>,null,neutral_feedback,1,test,34,,,,,,,,,,,,,,,,,,,,,,,,
,,,,,,,,,,,html-button-response,208,2.0.0,710140,5d30790f326b0f0017a2a828,3,1,1421,,,,,,,,,"<img src= ""rock_img/I_Andesite_03.jpg"" style=""width:8cm; height:5.73cm;""><p>What type of rock is this?</p>",1,class_response,1,test,35,Basalt,Andesite,3,FALSE,2,1,,,,,,,,,,,,,,,,,,
,,,,,,,,,,,html-keyboard-response,209,2.0.0,710644,5d30790f326b0f0017a2a828,3,1,null,,,,,,,,,<p style='font-size: 30px;'><strong>Okay</strong></p>,null,neutral_feedback,1,test,35,,,,,,,,,,,,,,,,,,,,,,,,
,,,,,,,,,,,html-button-response,210,2.0.0,715231,5d30790f326b0f0017a2a828,3,1,4582,,,,,,,,,"<img src= ""rock_img/I_Basalt_14.jpg"" style=""width:8cm; height:5.82cm;""><p>What type of rock is this?</p>",1,class_response,1,test,36,Basalt,Basalt,14,TRUE,2,2,,,,,,,,,,,,,,,,,,
,,,,,,,,,,,html-keyboard-response,211,2.0.0,715735,5d30790f326b0f0017a2a828,3,1,null,,,,,,,,,<p style='font-size: 30px;'><strong>Okay</strong></p>,null,neutral_feedback,1,test,36,,,,,,,,,,,,,,,,,,,,,,,,
,,,,,,,,,,,html-button-response,212,2.0.0,717033,5d30790f326b0f0017a2a828,3,1,1294,,,,,,,,,"<img src= ""rock_img/I_Gabbro_15.jpg"" style=""width:8cm; height:6.29cm;""><p>What type of rock is this?</p>",5,class_response,1,test,37,Pegmatite,Gabbro,15,FALSE,6,4,,,,,,,,,,,,,,,,,,
,,,,,,,,,,,html-keyboard-response,213,2.0.0,717535,5d30790f326b0f0017a2a828,3,1,null,,,,,,,,,<p style='font-size: 30px;'><strong>Okay</strong></p>,null,neutral_feedback,1,test,37,,,,,,,,,,,,,,,,,,,,,,,,
,,,,,,,,,,,html-button-response,214,2.0.0,719251,5d30790f326b0f0017a2a828,3,1,1713,,,,,,,,,"<img src= ""rock_img/I_Pumice_10.jpg"" style=""width:8cm; height:7.609999999999999cm;""><p>What type of rock is this?</p>",7,class_response,1,test,38,Pumice,Pumice,10,TRUE,8,8,,,,,,,,,,,,,,,,,,
,,,,,,,,,,,html-keyboard-response,215,2.0.0,719753,5d30790f326b0f0017a2a828,3,1,null,,,,,,,,,<p style='font-size: 30px;'><strong>Okay</strong></p>,null,neutral_feedback,1,test,38,,,,,,,,,,,,,,,,,,,,,,,,
,,,,,,,,,,,html-button-response,216,2.0.0,721417,5d30790f326b0f0017a2a828,3,1,1661,,,,,,,,,"<img src= ""rock_img/I_Diorite_09.jpg"" style=""width:8cm; height:5.27cm;""><p>What type of rock is this?</p>",2,class_response,1,test,39,Diorite,Diorite,9,TRUE,3,3,,,,,,,,,,,,,,,,,,
,,,,,,,,,,,html-keyboard-response,217,2.0.0,721919,5d30790f326b0f0017a2a828,3,1,null,,,,,,,,,<p style='font-size: 30px;'><strong>Okay</strong></p>,null,neutral_feedback,1,test,39,,,,,,,,,,,,,,,,,,,,,,,,
,,,,,,,,,,,html-button-response,218,2.0.0,723847,5d30790f326b0f0017a2a828,3,1,1925,,,,,,,,,"<img src= ""rock_img/I_Basalt_12.jpg"" style=""width:8cm; height:6.010000000000001cm;""><p>What type of rock is this?</p>",7,class_response,1,test,40,Pumice,Basalt,12,FALSE,8,2,,,,,,,,,,,,,,,,,,
,,,,,,,,,,,html-keyboard-response,219,2.0.0,724349,5d30790f326b0f0017a2a828,3,1,null,,,,,,,,,<p style='font-size: 30px;'><strong>Okay</strong></p>,null,neutral_feedback,1,test,40,,,,,,,,,,,,,,,,,,,,,,,,
,,,,,,,,,,,html-button-response,220,2.0.0,725449,5d30790f326b0f0017a2a828,3,1,1096,,,,,,,,,"<img src= ""rock_img/I_Pumice_14.jpg"" style=""width:8cm; height:6.39cm;""><p>What type of rock is this?</p>",7,class_response,1,test,41,Pumice,Pumice,14,TRUE,8,8,,,,,,,,,,,,,,,,,,
,,,,,,,,,,,html-keyboard-response,221,2.0.0,725951,5d30790f326b0f0017a2a828,3,1,null,,,,,,,,,<p style='font-size: 30px;'><strong>Okay</strong></p>,null,neutral_feedback,1,test,41,,,,,,,,,,,,,,,,,,,,,,,,
,,,,,,,,,,,html-button-response,222,2.0.0,727416,5d30790f326b0f0017a2a828,3,1,1462,,,,,,,,,"<img src= ""rock_img/I_Diorite_10.jpg"" style=""width:8cm; height:5.949999999999999cm;""><p>What type of rock is this?</p>",5,class_response,1,test,42,Pegmatite,Diorite,10,FALSE,6,3,,,,,,,,,,,,,,,,,,
,,,,,,,,,,,html-keyboard-response,223,2.0.0,727918,5d30790f326b0f0017a2a828,3,1,null,,,,,,,,,<p style='font-size: 30px;'><strong>Okay</strong></p>,null,neutral_feedback,1,test,42,,,,,,,,,,,,,,,,,,,,,,,,
,,,,,,,,,,,html-button-response,224,2.0.0,729202,5d30790f326b0f0017a2a828,3,1,1281,,,,,,,,,"<img src= ""rock_img/I_Pumice_05.jpg"" style=""width:8cm; height:7.25cm;""><p>What type of rock is this?</p>",7,class_response,1,test,43,Pumice,Pumice,5,TRUE,8,8,,,,,,,,,,,,,,,,,,
,,,,,,,,,,,html-keyboard-response,225,2.0.0,729706,5d30790f326b0f0017a2a828,3,1,null,,,,,,,,,<p style='font-size: 30px;'><strong>Okay</strong></p>,null,neutral_feedback,1,test,43,,,,,,,,,,,,,,,,,,,,,,,,
,,,,,,,,,,,html-button-response,226,2.0.0,731759,5d30790f326b0f0017a2a828,3,1,2049,,,,,,,,,"<img src= ""rock_img/I_Peridotite_04.jpg"" style=""width:8cm; height:6.680000000000001cm;""><p>What type of rock is this?</p>",5,class_response,1,test,44,Pegmatite,Peridotite,4,FALSE,6,7,,,,,,,,,,,,,,,,,,
,,,,,,,,,,,html-keyboard-response,227,2.0.0,732262,5d30790f326b0f0017a2a828,3,1,null,,,,,,,,,<p style='font-size: 30px;'><strong>Okay</strong></p>,null,neutral_feedback,1,test,44,,,,,,,,,,,,,,,,,,,,,,,,
,,,,,,,,,,,html-button-response,228,2.0.0,733216,5d30790f326b0f0017a2a828,3,1,951,,,,,,,,,"<img src= ""rock_img/I_Obsidian_08.jpg"" style=""width:8cm; height:7.39cm;""><p>What type of rock is this?</p>",4,class_response,1,test,45,Obsidian,Obsidian,8,TRUE,5,5,,,,,,,,,,,,,,,,,,
,,,,,,,,,,,html-keyboard-response,229,2.0.0,733718,5d30790f326b0f0017a2a828,3,1,null,,,,,,,,,<p style='font-size: 30px;'><strong>Okay</strong></p>,null,neutral_feedback,1,test,45,,,,,,,,,,,,,,,,,,,,,,,,
,,,,,,,,,,,html-button-response,230,2.0.0,734534,5d30790f326b0f0017a2a828,3,1,812,,,,,,,,,"<img src= ""rock_img/I_Obsidian_07.jpg"" style=""width:8cm; height:4.76cm;""><p>What type of rock is this?</p>",4,class_response,1,test,46,Obsidian,Obsidian,7,TRUE,5,5,,,,,,,,,,,,,,,,,,
,,,,,,,,,,,html-keyboard-response,231,2.0.0,735036,5d30790f326b0f0017a2a828,3,1,null,,,,,,,,,<p style='font-size: 30px;'><strong>Okay</strong></p>,null,neutral_feedback,1,test,46,,,,,,,,,,,,,,,,,,,,,,,,
,,,,,,,,,,,html-button-response,232,2.0.0,736352,5d30790f326b0f0017a2a828,3,1,1314,,,,,,,,,"<img src= ""rock_img/I_Diorite_11.jpg"" style=""width:8cm; height:7.11cm;""><p>What type of rock is this?</p>",6,class_response,1,test,47,Peridotite,Diorite,11,FALSE,7,3,,,,,,,,,,,,,,,,,,
,,,,,,,,,,,html-keyboard-response,233,2.0.0,736853,5d30790f326b0f0017a2a828,3,1,null,,,,,,,,,<p style='font-size: 30px;'><strong>Okay</strong></p>,null,neutral_feedback,1,test,47,,,,,,,,,,,,,,,,,,,,,,,,
,,,,,,,,,,,html-button-response,234,2.0.0,737851,5d30790f326b0f0017a2a828,3,1,995,,,,,,,,,"<img src= ""rock_img/I_Pumice_09.jpg"" style=""width:8cm; height:6.44cm;""><p>What type of rock is this?</p>",7,class_response,1,test,48,Pumice,Pumice,9,TRUE,8,8,,,,,,,,,,,,,,,,,,
,,,,,,,,,,,html-keyboard-response,235,2.0.0,738353,5d30790f326b0f0017a2a828,3,1,null,,,,,,,,,<p style='font-size: 30px;'><strong>Okay</strong></p>,null,neutral_feedback,1,test,48,,,,,,,,,,,,,,,,,,,,,,,,
,,,,,,,,,,,html-button-response,236,2.0.0,895233,5d30790f326b0f0017a2a828,3,1,,,,,,,,,,,,cycle_feedback,,,,,,,,,,,,,,,,,,,,,,149101.8,7769.5,,,,
,,,,,,,,,,,html-button-response,238,2.0.0,896070,5d30790f326b0f0017a2a828,3,1,834,,,,,,,,,,0,start_train,,,,,,,,,,,,,,,,,,,,,,,,,,,
,,,,,,,,,,,html-button-response,240,2.0.0,898265,5d30790f326b0f0017a2a828,3,1,2192,,,,,,,,,"<img src= ""rock_img/I_Gabbro_01.jpg"" style=""width:8cm; height:5.21cm;""><p>What type of rock is this?</p>",6,class_response,2,train,1,Peridotite,Gabbro,1,FALSE,7,4,,,,,,,,,,,,,,,,,,
,,,,,,,,,,,html-button-response,241,2.0.0,901444,5d30790f326b0f0017a2a828,3,1,3177,,,,,,,,,"<img src= rock_img/I_Gabbro_01.jpg style=""width:8cm; height:5.21cm;""><p style='font-size: 30px; color: red;'><strong>Incorrect!</strong></p><p style='font-size: 30px;'><strong>This rock is gabbro</strong></p>",0,corr_feedback,2,train,1,,,,,,,,,,,,,,,,,,,,,,,,
,,,,,,,,,,,html-button-response,242,2.0.0,903002,5d30790f326b0f0017a2a828,3,1,1554,,,,,,,,,"<img src= ""rock_img/I_Pumice_16.jpg"" style=""width:8cm; height:6.79cm;""><p>What type of rock is this?</p>",7,class_response,2,train,2,Pumice,Pumice,16,TRUE,8,8,,,,,,,,,,,,,,,,,,
,,,,,,,,,,,html-button-response,243,2.0.0,903712,5d30790f326b0f0017a2a828,3,1,708,,,,,,,,,"<img src= rock_img/I_Pumice_16.jpg style=""width:8cm; height:6.79cm;""><p style='font-size: 30px; color: green;'><strong>Correct!</strong></p><p style='font-size: 30px;'><strong>This rock is pumice</strong></p>",0,corr_feedback,2,train,2,,,,,,,,,,,,,,,,,,,,,,,,
,,,,,,,,,,,html-button-response,244,2.0.0,904647,5d30790f326b0f0017a2a828,3,1,932,,,,,,,,,"<img src= ""rock_img/I_Obsidian_04.jpg"" style=""width:8cm; height:6.930000000000001cm;""><p>What type of rock is this?</p>",4,class_response,2,train,3,Obsidian,Obsidian,4,TRUE,5,5,,,,,,,,,,,,,,,,,,
,,,,,,,,,,,html-button-response,245,2.0.0,905286,5d30790f326b0f0017a2a828,3,1,636,,,,,,,,,"<img src= rock_img/I_Obsidian_04.jpg style=""width:8cm; height:6.930000000000001cm;""><p style='font-size: 30px; color: green;'><strong>Correct!</strong></p><p style='font-size: 30px;'><strong>This rock is obsidian</strong></p>",0,corr_feedback,2,train,3,,,,,,,,,,,,,,,,,,,,,,,,
,,,,,,,,,,,html-button-response,246,2.0.0,906107,5d30790f326b0f0017a2a828,3,1,818,,,,,,,,,"<img src= ""rock_img/I_Basalt_01.jpg"" style=""width:8cm; height:7.880000000000001cm;""><p>What type of rock is this?</p>",1,class_response,2,train,4,Basalt,Basalt,1,TRUE,2,2,,,,,,,,,,,,,,,,,,
,,,,,,,,,,,html-button-response,247,2.0.0,906582,5d30790f326b0f0017a2a828,3,1,472,,,,,,,,,"<img src= rock_img/I_Basalt_01.jpg style=""width:8cm; height:7.880000000000001cm;""><p style='font-size: 30px; color: green;'><strong>Correct!</strong></p><p style='font-size: 30px;'><strong>This rock is basalt</strong></p>",0,corr_feedback,2,train,4,,,,,,,,,,,,,,,,,,,,,,,,
,,,,,,,,,,,html-button-response,248,2.0.0,907660,5d30790f326b0f0017a2a828,3,1,1075,,,,,,,,,"<img src= ""rock_img/I_Peridotite_08.jpg"" style=""width:8cm; height:6.7cm;""><p>What type of rock is this?</p>",3,class_response,2,train,5,Gabbro,Peridotite,8,FALSE,4,7,,,,,,,,,,,,,,,,,,
,,,,,,,,,,,html-button-response,249,2.0.0,910071,5d30790f326b0f0017a2a828,3,1,2409,,,,,,,,,"<img src= rock_img/I_Peridotite_08.jpg style=""width:8cm; height:6.7cm;""><p style='font-size: 30px; color: red;'><strong>Incorrect!</strong></p><p style='font-size: 30px;'><strong>This rock is peridotite</strong></p>",0,corr_feedback,2,train,5,,,,,,,,,,,,,,,,,,,,,,,,
,,,,,,,,,,,html-button-response,250,2.0.0,911042,5d30790f326b0f0017a2a828,3,1,969,,,,,,,,,"<img src= ""rock_img/I_Obsidian_09.jpg"" style=""width:8cm; height:5cm;""><p>What type of rock is this?</p>",4,class_response,2,train,6,Obsidian,Obsidian,9,TRUE,5,5,,,,,,,,,,,,,,,,,,
,,,,,,,,,,,html-button-response,251,2.0.0,911673,5d30790f326b0f0017a2a828,3,1,629,,,,,,,,,"<img src= rock_img/I_Obsidian_09.jpg style=""width:8cm; height:5cm;""><p style='font-size: 30px; color: green;'><strong>Correct!</strong></p><p style='font-size: 30px;'><strong>This rock is obsidian</strong></p>",0,corr_feedback,2,train,6,,,,,,,,,,,,,,,,,,,,,,,,
,,,,,,,,,,,html-button-response,252,2.0.0,912563,5d30790f326b0f0017a2a828,3,1,887,,,,,,,,,"<img src= ""rock_img/I_Basalt_04.jpg"" style=""width:8cm; height:7.53cm;""><p>What type of rock is this?</p>",1,class_response,2,train,7,Basalt,Basalt,4,TRUE,2,2,,,,,,,,,,,,,,,,,,
,,,,,,,,,,,html-button-response,253,2.0.0,913057,5d30790f326b0f0017a2a828,3,1,491,,,,,,,,,"<img src= rock_img/I_Basalt_04.jpg style=""width:8cm; height:7.53cm;""><p style='font-size: 30px; color: green;'><strong>Correct!</strong></p><p style='font-size: 30px;'><strong>This rock is basalt</strong></p>",0,corr_feedback,2,train,7,,,,,,,,,,,,,,,,,,,,,,,,
,,,,,,,,,,,html-button-response,254,2.0.0,913987,5d30790f326b0f0017a2a828,3,1,926,,,,,,,,,"<img src= ""rock_img/I_Diorite_16.jpg"" style=""width:8cm; height:6.74cm;""><p>What type of rock is this?</p>",5,class_response,2,train,8,Pegmatite,Diorite,16,FALSE,6,3,,,,,,,,,,,,,,,,,,
,,,,,,,,,,,html-button-response,255,2.0.0,915085,5d30790f326b0f0017a2a828,3,1,1096,,,,,,,,,"<img src= rock_img/I_Diorite_16.jpg style=""width:8cm; height:6.74cm;""><p style='font-size: 30px; color: red;'><strong>Incorrect!</strong></p><p style='font-size: 30px;'><strong>This rock is diorite</strong></p>",0,corr_feedback,2,train,8,,,,,,,,,,,,,,,,,,,,,,,,
,,,,,,,,,,,html-button-response,256,2.0.0,916873,5d30790f326b0f0017a2a828,3,1,1784,,,,,,,,,"<img src= ""rock_img/I_Pegmatite_15.jpg"" style=""width:8cm; height:6cm;""><p>What type of rock is this?</p>",5,class_response,2,train,9,Pegmatite,Pegmatite,15,TRUE,6,6,,,,,,,,,,,,,,,,,,
,,,,,,,,,,,html-button-response,257,2.0.0,918149,5d30790f326b0f0017a2a828,3,1,1271,,,,,,,,,"<img src= rock_img/I_Pegmatite_15.jpg style=""width:8cm; height:6cm;""><p style='font-size: 30px; color: green;'><strong>Correct!</strong></p><p style='font-size: 30px;'><strong>This rock is pegmatite</strong></p>",0,corr_feedback,2,train,9,,,,,,,,,,,,,,,,,,,,,,,,
,,,,,,,,,,,html-button-response,258,2.0.0,919436,5d30790f326b0f0017a2a828,3,1,1284,,,,,,,,,"<img src= ""rock_img/I_Peridotite_16.jpg"" style=""width:8cm; height:6.989999999999999cm;""><p>What type of rock is this?</p>",6,class_response,2,train,10,Peridotite,Peridotite,16,TRUE,7,7,,,,,,,,,,,,,,,,,,
,,,,,,,,,,,html-button-response,259,2.0.0,920286,5d30790f326b0f0017a2a828,3,1,847,,,,,,,,,"<img src= rock_img/I_Peridotite_16.jpg style=""width:8cm; height:6.989999999999999cm;""><p style='font-size: 30px; color: green;'><strong>Correct!</strong></p><p style='font-size: 30px;'><strong>This rock is peridotite</strong></p>",0,corr_feedback,2,train,10,,,,,,,,,,,,,,,,,,,,,,,,
,,,,,,,,,,,html-button-response,260,2.0.0,921608,5d30790f326b0f0017a2a828,3,1,1318,,,,,,,,,"<img src= ""rock_img/I_Diorite_14.jpg"" style=""width:8cm; height:5.71cm;""><p>What type of rock is this?</p>",2,class_response,2,train,11,Diorite,Diorite,14,TRUE,3,3,,,,,,,,,,,,,,,,,,
,,,,,,,,,,,html-button-response,261,2.0.0,922253,5d30790f326b0f0017a2a828,3,1,642,,,,,,,,,"<img src= rock_img/I_Diorite_14.jpg style=""width:8cm; height:5.71cm;""><p style='font-size: 30px; color: green;'><strong>Correct!</strong></p><p style='font-size: 30px;'><strong>This rock is diorite</strong></p>",0,corr_feedback,2,train,11,,,,,,,,,,,,,,,,,,,,,,,,
,,,,,,,,,,,html-button-response,262,2.0.0,924131,5d30790f326b0f0017a2a828,3,1,1875,,,,,,,,,"<img src= ""rock_img/I_Andesite_14.jpg"" style=""width:8cm; height:5.449999999999999cm;""><p>What type of rock is this?</p>",3,class_response,2,train,12,Gabbro,Andesite,14,FALSE,4,1,,,,,,,,,,,,,,,,,,
,,,,,,,,,,,html-button-response,263,2.0.0,925028,5d30790f326b0f0017a2a828,3,1,895,,,,,,,,,"<img src= rock_img/I_Andesite_14.jpg style=""width:8cm; height:5.449999999999999cm;""><p style='font-size: 30px; color: red;'><strong>Incorrect!</strong></p><p style='font-size: 30px;'><strong>This rock is andesite</strong></p>",0,corr_feedback,2,train,12,,,,,,,,,,,,,,,,,,,,,,,,
,,,,,,,,,,,html-button-response,265,2.0.0,925853,5d30790f326b0f0017a2a828,3,1,821,,,,,,,,,,0,start_train,,,,,,,,,,,,,,,,,,,,,,,,,,,
,,,,,,,,,,,html-button-response,266,2.0.0,928811,5d30790f326b0f0017a2a828,3,1,,,,,,,,,,,,cat_selection,2,train,1,,,,,,,6,7,2955.5,Pegmatite,Peridotite,"[0.16810315784495766,0.09596129024061922,0.1616422926710309,0.17806254327863383,0.019784727030959313,0.1616422926710309,0.13526265662975182,0.07954103963301631]","[0.431417727079325,0.07534863230891949,0.03213328874020621,0.030663711712497117,0.13050703097595515,null,0.22800267861033596,0.07192693057276102]",,,,,,,,,,,
,,,,,,,,,,,paired-cat-display,267,1.0.0,974879,5d30790f326b0f0017a2a828,3,1,,,,,,,,,,,,paired_cat_display,2,train,1,,,,,,,,,11182.8,,,,,,,34878.2,,this is like very neutral muted colors but with dots and shapes imprinted in them.,,,these are very striking colors and streaks that are borderline shiny. out of this world.,,,
,,,,,,,,,,,html-button-response,268,2.0.0,981176,5d30790f326b0f0017a2a828,3,1,,,,,,,,,,,,cat_selection,2,train,2,,,,,,,1,6,6294.4,Andesite,Pegmatite,"[0.16810315784495766,0.09596129024061922,0.1616422926710309,0.17806254327863383,0.019784727030959313,0.1616422926710309,0.13526265662975182,0.07954103963301631]","[null,0.34180336188336397,0.14467398650740018,0.08832688627173607,0.029390349199315248,0.10651281940844905,0.19736846673319397,0.09192412999654152]",,,,,,,,,,,
,,,,,,,,,,,paired-cat-display,269,1.0.0,1020716,5d30790f326b0f0017a2a828,3,1,,,,,,,,,,,,paired_cat_display,2,train,2,,,,,,,,,6095.9,,,,,,,33437.6,,,,,"cool colors and streaks, borderline shiny. out of this world.","has dots and circles on the rock, but extremely bland colors.",,
,,,,,,,,,,,html-button-response,270,2.0.0,1022584,5d30790f326b0f0017a2a828,3,1,,,,,,,,,,,,cat_selection,2,train,3,,,,,,,2,8,1865.1,Basalt,Pumice,"[0.16810315784495766,0.09596129024061922,0.1616422926710309,0.17806254327863383,0.019784727030959313,0.1616422926710309,0.13526265662975182,0.07954103963301631]","[0.028180768012298473,null,0.022444416123572834,0.02737417180785758,0.23415535502158896,0.022063662635762222,0.07975081595789889,0.586030810441021]",,,,,,,,,,,
,,,,,,,,,,,paired-cat-display,271,1.0.0,1047741,5d30790f326b0f0017a2a828,3,1,,,,,,,,,,,,paired_cat_display,2,train,3,,,,,,,,,6443.5,,,,,"darker colors, no shine to it. very solid color.",has holes in the rocks like swiss cheese.,18706.7,,,,,,,,
,,,,,,,,,,,html-button-response,273,2.0.0,1050587,5d30790f326b0f0017a2a828,3,1,2843,,,,,,,,,,0,start_test,,,,,,,,,,,,,,,,,,,,,,,,,,,
,,,,,,,,,,,html-button-response,274,2.0.0,1051614,5d30790f326b0f0017a2a828,3,1,1025,,,,,,,,,"<img src= ""rock_img/I_Obsidian_11.jpg"" style=""width:8cm; height:6.05cm;""><p>What type of rock is this?</p>",4,class_response,2,test,1,Obsidian,Obsidian,11,TRUE,5,5,,,,,,,,,,,,,,,,,,
,,,,,,,,,,,html-keyboard-response,275,2.0.0,1052116,5d30790f326b0f0017a2a828,3,1,null,,,,,,,,,<p style='font-size: 30px;'><strong>Okay</strong></p>,null,neutral_feedback,2,test,1,,,,,,,,,,,,,,,,,,,,,,,,
,,,,,,,,,,,html-button-response,276,2.0.0,1058641,5d30790f326b0f0017a2a828,3,1,6522,,,,,,,,,"<img src= ""rock_img/I_Gabbro_15.jpg"" style=""width:8cm; height:6.29cm;""><p>What type of rock is this?</p>",3,class_response,2,test,2,Gabbro,Gabbro,15,TRUE,4,4,,,,,,,,,,,,,,,,,,
,,,,,,,,,,,html-keyboard-response,277,2.0.0,1059145,5d30790f326b0f0017a2a828,3,1,null,,,,,,,,,<p style='font-size: 30px;'><strong>Okay</strong></p>,null,neutral_feedback,2,test,2,,,,,,,,,,,,,,,,,,,,,,,,
,,,,,,,,,,,html-button-response,278,2.0.0,1063185,5d30790f326b0f0017a2a828,3,1,4036,,,,,,,,,"<img src= ""rock_img/I_Peridotite_13.jpg"" style=""width:8cm; height:7.58cm;""><p>What type of rock is this?</p>",3,class_response,2,test,3,Gabbro,Peridotite,13,FALSE,4,7,,,,,,,,,,,,,,,,,,
,,,,,,,,,,,html-keyboard-response,279,2.0.0,1063689,5d30790f326b0f0017a2a828,3,1,null,,,,,,,,,<p style='font-size: 30px;'><strong>Okay</strong></p>,null,neutral_feedback,2,test,3,,,,,,,,,,,,,,,,,,,,,,,,
,,,,,,,,,,,html-button-response,280,2.0.0,1064616,5d30790f326b0f0017a2a828,3,1,925,,,,,,,,,"<img src= ""rock_img/I_Obsidian_08.jpg"" style=""width:8cm; height:7.39cm;""><p>What type of rock is this?</p>",4,class_response,2,test,4,Obsidian,Obsidian,8,TRUE,5,5,,,,,,,,,,,,,,,,,,
,,,,,,,,,,,html-keyboard-response,281,2.0.0,1065119,5d30790f326b0f0017a2a828,3,1,null,,,,,,,,,<p style='font-size: 30px;'><strong>Okay</strong></p>,null,neutral_feedback,2,test,4,,,,,,,,,,,,,,,,,,,,,,,,
,,,,,,,,,,,html-button-response,282,2.0.0,1066125,5d30790f326b0f0017a2a828,3,1,1003,,,,,,,,,"<img src= ""rock_img/I_Basalt_09.jpg"" style=""width:8cm; height:6.2cm;""><p>What type of rock is this?</p>",1,class_response,2,test,5,Basalt,Basalt,9,TRUE,2,2,,,,,,,,,,,,,,,,,,
,,,,,,,,,,,html-keyboard-response,283,2.0.0,1066627,5d30790f326b0f0017a2a828,3,1,null,,,,,,,,,<p style='font-size: 30px;'><strong>Okay</strong></p>,null,neutral_feedback,2,test,5,,,,,,,,,,,,,,,,,,,,,,,,
,,,,,,,,,,,html-button-response,284,2.0.0,1067855,5d30790f326b0f0017a2a828,3,1,1224,,,,,,,,,"<img src= ""rock_img/I_Pumice_10.jpg"" style=""width:8cm; height:7.609999999999999cm;""><p>What type of rock is this?</p>",7,class_response,2,test,6,Pumice,Pumice,10,TRUE,8,8,,,,,,,,,,,,,,,,,,
,,,,,,,,,,,html-keyboard-response,285,2.0.0,1068357,5d30790f326b0f0017a2a828,3,1,null,,,,,,,,,<p style='font-size: 30px;'><strong>Okay</strong></p>,null,neutral_feedback,2,test,6,,,,,,,,,,,,,,,,,,,,,,,,
,,,,,,,,,,,html-button-response,286,2.0.0,1069618,5d30790f326b0f0017a2a828,3,1,1258,,,,,,,,,"<img src= ""rock_img/I_Pegmatite_03.jpg"" style=""width:8cm; height:5.239999999999999cm;""><p>What type of rock is this?</p>",5,class_response,2,test,7,Pegmatite,Pegmatite,3,TRUE,6,6,,,,,,,,,,,,,,,,,,
,,,,,,,,,,,html-keyboard-response,287,2.0.0,1070120,5d30790f326b0f0017a2a828,3,1,null,,,,,,,,,<p style='font-size: 30px;'><strong>Okay</strong></p>,null,neutral_feedback,2,test,7,,,,,,,,,,,,,,,,,,,,,,,,
,,,,,,,,,,,html-button-response,288,2.0.0,1073483,5d30790f326b0f0017a2a828,3,1,3360,,,,,,,,,"<img src= ""rock_img/I_Andesite_03.jpg"" style=""width:8cm; height:5.73cm;""><p>What type of rock is this?</p>",0,class_response,2,test,8,Andesite,Andesite,3,TRUE,1,1,,,,,,,,,,,,,,,,,,
,,,,,,,,,,,html-keyboard-response,289,2.0.0,1073985,5d30790f326b0f0017a2a828,3,1,null,,,,,,,,,<p style='font-size: 30px;'><strong>Okay</strong></p>,null,neutral_feedback,2,test,8,,,,,,,,,,,,,,,,,,,,,,,,
,,,,,,,,,,,html-button-response,290,2.0.0,1075430,5d30790f326b0f0017a2a828,3,1,1441,,,,,,,,,"<img src= ""rock_img/I_Diorite_09.jpg"" style=""width:8cm; height:5.27cm;""><p>What type of rock is this?</p>",0,class_response,2,test,9,Andesite,Diorite,9,FALSE,1,3,,,,,,,,,,,,,,,,,,
,,,,,,,,,,,html-keyboard-response,291,2.0.0,1075933,5d30790f326b0f0017a2a828,3,1,null,,,,,,,,,<p style='font-size: 30px;'><strong>Okay</strong></p>,null,neutral_feedback,2,test,9,,,,,,,,,,,,,,,,,,,,,,,,
,,,,,,,,,,,html-button-response,292,2.0.0,1076705,5d30790f326b0f0017a2a828,3,1,768,,,,,,,,,"<img src= ""rock_img/I_Diorite_11.jpg"" style=""width:8cm; height:7.11cm;""><p>What type of rock is this?</p>",0,class_response,2,test,10,Andesite,Diorite,11,FALSE,1,3,,,,,,,,,,,,,,,,,,
,,,,,,,,,,,html-keyboard-response,293,2.0.0,1077209,5d30790f326b0f0017a2a828,3,1,null,,,,,,,,,<p style='font-size: 30px;'><strong>Okay</strong></p>,null,neutral_feedback,2,test,10,,,,,,,,,,,,,,,,,,,,,,,,
,,,,,,,,,,,html-button-response,294,2.0.0,1078189,5d30790f326b0f0017a2a828,3,1,977,,,,,,,,,"<img src= ""rock_img/I_Obsidian_12.jpg"" style=""width:8cm; height:6.53cm;""><p>What type of rock is this?</p>",4,class_response,2,test,11,Obsidian,Obsidian,12,TRUE,5,5,,,,,,,,,,,,,,,,,,
,,,,,,,,,,,html-keyboard-response,295,2.0.0,1078691,5d30790f326b0f0017a2a828,3,1,null,,,,,,,,,<p style='font-size: 30px;'><strong>Okay</strong></p>,null,neutral_feedback,2,test,11,,,,,,,,,,,,,,,,,,,,,,,,
,,,,,,,,,,,html-button-response,296,2.0.0,1082763,5d30790f326b0f0017a2a828,3,1,4068,,,,,,,,,"<img src= ""rock_img/I_Peridotite_14.jpg"" style=""width:8cm; height:5.3cm;""><p>What type of rock is this?</p>",3,class_response,2,test,12,Gabbro,Peridotite,14,FALSE,4,7,,,,,,,,,,,,,,,,,,
,,,,,,,,,,,html-keyboard-response,297,2.0.0,1083265,5d30790f326b0f0017a2a828,3,1,null,,,,,,,,,<p style='font-size: 30px;'><strong>Okay</strong></p>,null,neutral_feedback,2,test,12,,,,,,,,,,,,,,,,,,,,,,,,
,,,,,,,,,,,html-button-response,298,2.0.0,1084241,5d30790f326b0f0017a2a828,3,1,973,,,,,,,,,"<img src= ""rock_img/I_Obsidian_16.jpg"" style=""width:8cm; height:9.3cm;""><p>What type of rock is this?</p>",4,class_response,2,test,13,Obsidian,Obsidian,16,TRUE,5,5,,,,,,,,,,,,,,,,,,
,,,,,,,,,,,html-keyboard-response,299,2.0.0,1084743,5d30790f326b0f0017a2a828,3,1,null,,,,,,,,,<p style='font-size: 30px;'><strong>Okay</strong></p>,null,neutral_feedback,2,test,13,,,,,,,,,,,,,,,,,,,,,,,,
,,,,,,,,,,,html-button-response,300,2.0.0,1085914,5d30790f326b0f0017a2a828,3,1,1166,,,,,,,,,"<img src= ""rock_img/I_Pegmatite_08.jpg"" style=""width:8cm; height:7.68cm;""><p>What type of rock is this?</p>",5,class_response,2,test,14,Pegmatite,Pegmatite,8,TRUE,6,6,,,,,,,,,,,,,,,,,,
,,,,,,,,,,,html-keyboard-response,301,2.0.0,1086417,5d30790f326b0f0017a2a828,3,1,null,,,,,,,,,<p style='font-size: 30px;'><strong>Okay</strong></p>,null,neutral_feedback,2,test,14,,,,,,,,,,,,,,,,,,,,,,,,
,,,,,,,,,,,html-button-response,302,2.0.0,1087763,5d30790f326b0f0017a2a828,3,1,1343,,,,,,,,,"<img src= ""rock_img/I_Basalt_12.jpg"" style=""width:8cm; height:6.010000000000001cm;""><p>What type of rock is this?</p>",7,class_response,2,test,15,Pumice,Basalt,12,FALSE,8,2,,,,,,,,,,,,,,,,,,
,,,,,,,,,,,html-keyboard-response,303,2.0.0,1088265,5d30790f326b0f0017a2a828,3,1,null,,,,,,,,,<p style='font-size: 30px;'><strong>Okay</strong></p>,null,neutral_feedback,2,test,15,,,,,,,,,,,,,,,,,,,,,,,,
,,,,,,,,,,,html-button-response,304,2.0.0,1090336,5d30790f326b0f0017a2a828,3,1,2066,,,,,,,,,"<img src= ""rock_img/I_Pegmatite_06.jpg"" style=""width:8cm; height:5.17cm;""><p>What type of rock is this?</p>",5,class_response,2,test,16,Pegmatite,Pegmatite,6,TRUE,6,6,,,,,,,,,,,,,,,,,,
,,,,,,,,,,,html-keyboard-response,305,2.0.0,1090839,5d30790f326b0f0017a2a828,3,1,null,,,,,,,,,<p style='font-size: 30px;'><strong>Okay</strong></p>,null,neutral_feedback,2,test,16,,,,,,,,,,,,,,,,,,,,,,,,
,,,,,,,,,,,html-button-response,306,2.0.0,1092808,5d30790f326b0f0017a2a828,3,1,1965,,,,,,,,,"<img src= ""rock_img/I_Pumice_05.jpg"" style=""width:8cm; height:7.25cm;""><p>What type of rock is this?</p>",7,class_response,2,test,17,Pumice,Pumice,5,TRUE,8,8,,,,,,,,,,,,,,,,,,
,,,,,,,,,,,html-keyboard-response,307,2.0.0,1093310,5d30790f326b0f0017a2a828,3,1,null,,,,,,,,,<p style='font-size: 30px;'><strong>Okay</strong></p>,null,neutral_feedback,2,test,17,,,,,,,,,,,,,,,,,,,,,,,,
,,,,,,,,,,,html-button-response,308,2.0.0,1095313,5d30790f326b0f0017a2a828,3,1,1999,,,,,,,,,"<img src= ""rock_img/I_Andesite_05.jpg"" style=""width:8cm; height:4.12cm;""><p>What type of rock is this?</p>",0,class_response,2,test,18,Andesite,Andesite,5,TRUE,1,1,,,,,,,,,,,,,,,,,,
,,,,,,,,,,,html-keyboard-response,309,2.0.0,1095815,5d30790f326b0f0017a2a828,3,1,null,,,,,,,,,<p style='font-size: 30px;'><strong>Okay</strong></p>,null,neutral_feedback,2,test,18,,,,,,,,,,,,,,,,,,,,,,,,
,,,,,,,,,,,html-button-response,310,2.0.0,1100034,5d30790f326b0f0017a2a828,3,1,4217,,,,,,,,,"<img src= ""rock_img/I_Peridotite_04.jpg"" style=""width:8cm; height:6.680000000000001cm;""><p>What type of rock is this?</p>",2,class_response,2,test,19,Diorite,Peridotite,4,FALSE,3,7,,,,,,,,,,,,,,,,,,
,,,,,,,,,,,html-keyboard-response,311,2.0.0,1100537,5d30790f326b0f0017a2a828,3,1,null,,,,,,,,,<p style='font-size: 30px;'><strong>Okay</strong></p>,null,neutral_feedback,2,test,19,,,,,,,,,,,,,,,,,,,,,,,,
,,,,,,,,,,,html-button-response,312,2.0.0,1101984,5d30790f326b0f0017a2a828,3,1,1443,,,,,,,,,"<img src= ""rock_img/I_Pegmatite_10.jpg"" style=""width:8cm; height:4.16cm;""><p>What type of rock is this?</p>",5,class_response,2,test,20,Pegmatite,Pegmatite,10,TRUE,6,6,,,,,,,,,,,,,,,,,,
,,,,,,,,,,,html-keyboard-response,313,2.0.0,1102487,5d30790f326b0f0017a2a828,3,1,null,,,,,,,,,<p style='font-size: 30px;'><strong>Okay</strong></p>,null,neutral_feedback,2,test,20,,,,,,,,,,,,,,,,,,,,,,,,
,,,,,,,,,,,html-button-response,314,2.0.0,1105801,5d30790f326b0f0017a2a828,3,1,3310,,,,,,,,,"<img src= ""rock_img/I_Diorite_10.jpg"" style=""width:8cm; height:5.949999999999999cm;""><p>What type of rock is this?</p>",0,class_response,2,test,21,Andesite,Diorite,10,FALSE,1,3,,,,,,,,,,,,,,,,,,
,,,,,,,,,,,html-keyboard-response,315,2.0.0,1106304,5d30790f326b0f0017a2a828,3,1,null,,,,,,,,,<p style='font-size: 30px;'><strong>Okay</strong></p>,null,neutral_feedback,2,test,21,,,,,,,,,,,,,,,,,,,,,,,,
,,,,,,,,,,,html-button-response,316,2.0.0,1107416,5d30790f326b0f0017a2a828,3,1,1108,,,,,,,,,"<img src= ""rock_img/I_Pumice_08.jpg"" style=""width:8cm; height:6.67cm;""><p>What type of rock is this?</p>",7,class_response,2,test,22,Pumice,Pumice,8,TRUE,8,8,,,,,,,,,,,,,,,,,,
,,,,,,,,,,,html-keyboard-response,317,2.0.0,1107918,5d30790f326b0f0017a2a828,3,1,null,,,,,,,,,<p style='font-size: 30px;'><strong>Okay</strong></p>,null,neutral_feedback,2,test,22,,,,,,,,,,,,,,,,,,,,,,,,
,,,,,,,,,,,html-button-response,318,2.0.0,1109020,5d30790f326b0f0017a2a828,3,1,1099,,,,,,,,,"<img src= ""rock_img/I_Pumice_09.jpg"" style=""width:8cm; height:6.44cm;""><p>What type of rock is this?</p>",7,class_response,2,test,23,Pumice,Pumice,9,TRUE,8,8,,,,,,,,,,,,,,,,,,
,,,,,,,,,,,html-keyboard-response,319,2.0.0,1109522,5d30790f326b0f0017a2a828,3,1,null,,,,,,,,,<p style='font-size: 30px;'><strong>Okay</strong></p>,null,neutral_feedback,2,test,23,,,,,,,,,,,,,,,,,,,,,,,,
,,,,,,,,,,,html-button-response,320,2.0.0,1110928,5d30790f326b0f0017a2a828,3,1,1403,,,,,,,,,"<img src= ""rock_img/I_Pegmatite_12.jpg"" style=""width:8cm; height:5.7cm;""><p>What type of rock is this?</p>",5,class_response,2,test,24,Pegmatite,Pegmatite,12,TRUE,6,6,,,,,,,,,,,,,,,,,,
,,,,,,,,,,,html-keyboard-response,321,2.0.0,1111431,5d30790f326b0f0017a2a828,3,1,null,,,,,,,,,<p style='font-size: 30px;'><strong>Okay</strong></p>,null,neutral_feedback,2,test,24,,,,,,,,,,,,,,,,,,,,,,,,
,,,,,,,,,,,html-button-response,322,2.0.0,1112385,5d30790f326b0f0017a2a828,3,1,950,,,,,,,,,"<img src= ""rock_img/I_Peridotite_10.jpg"" style=""width:8cm; height:5.390000000000001cm;""><p>What type of rock is this?</p>",6,class_response,2,test,25,Peridotite,Peridotite,10,TRUE,7,7,,,,,,,,,,,,,,,,,,
,,,,,,,,,,,html-keyboard-response,323,2.0.0,1112888,5d30790f326b0f0017a2a828,3,1,null,,,,,,,,,<p style='font-size: 30px;'><strong>Okay</strong></p>,null,neutral_feedback,2,test,25,,,,,,,,,,,,,,,,,,,,,,,,
,,,,,,,,,,,html-button-response,324,2.0.0,1117366,5d30790f326b0f0017a2a828,3,1,4474,,,,,,,,,"<img src= ""rock_img/I_Gabbro_09.jpg"" style=""width:8cm; height:7.279999999999999cm;""><p>What type of rock is this?</p>",1,class_response,2,test,26,Basalt,Gabbro,9,FALSE,2,4,,,,,,,,,,,,,,,,,,
,,,,,,,,,,,html-keyboard-response,325,2.0.0,1117869,5d30790f326b0f0017a2a828,3,1,null,,,,,,,,,<p style='font-size: 30px;'><strong>Okay</strong></p>,null,neutral_feedback,2,test,26,,,,,,,,,,,,,,,,,,,,,,,,
,,,,,,,,,,,html-button-response,326,2.0.0,1119364,5d30790f326b0f0017a2a828,3,1,1489,,,,,,,,,"<img src= ""rock_img/I_Diorite_06.jpg"" style=""width:8cm; height:6.03cm;""><p>What type of rock is this?</p>",6,class_response,2,test,27,Peridotite,Diorite,6,FALSE,7,3,,,,,,,,,,,,,,,,,,
,,,,,,,,,,,html-keyboard-response,327,2.0.0,1119866,5d30790f326b0f0017a2a828,3,1,null,,,,,,,,,<p style='font-size: 30px;'><strong>Okay</strong></p>,null,neutral_feedback,2,test,27,,,,,,,,,,,,,,,,,,,,,,,,
,,,,,,,,,,,html-button-response,328,2.0.0,1120803,5d30790f326b0f0017a2a828,3,1,934,,,,,,,,,"<img src= ""rock_img/I_Diorite_02.jpg"" style=""width:8cm; height:6.27cm;""><p>What type of rock is this?</p>",6,class_response,2,test,28,Peridotite,Diorite,2,FALSE,7,3,,,,,,,,,,,,,,,,,,
,,,,,,,,,,,html-keyboard-response,329,2.0.0,1121305,5d30790f326b0f0017a2a828,3,1,null,,,,,,,,,<p style='font-size: 30px;'><strong>Okay</strong></p>,null,neutral_feedback,2,test,28,,,,,,,,,,,,,,,,,,,,,,,,
,,,,,,,,,,,html-button-response,330,2.0.0,1124519,5d30790f326b0f0017a2a828,3,1,3209,,,,,,,,,"<img src= ""rock_img/I_Andesite_01.jpg"" style=""width:8cm; height:5.87cm;""><p>What type of rock is this?</p>",6,class_response,2,test,29,Peridotite,Andesite,1,FALSE,7,1,,,,,,,,,,,,,,,,,,
,,,,,,,,,,,html-keyboard-response,331,2.0.0,1125022,5d30790f326b0f0017a2a828,3,1,null,,,,,,,,,<p style='font-size: 30px;'><strong>Okay</strong></p>,null,neutral_feedback,2,test,29,,,,,,,,,,,,,,,,,,,,,,,,
,,,,,,,,,,,html-button-response,332,2.0.0,1126020,5d30790f326b0f0017a2a828,3,1,993,,,,,,,,,"<img src= ""rock_img/I_Peridotite_07.jpg"" style=""width:8cm; height:4.83cm;""><p>What type of rock is this?</p>",6,class_response,2,test,30,Peridotite,Peridotite,7,TRUE,7,7,,,,,,,,,,,,,,,,,,
,,,,,,,,,,,html-keyboard-response,333,2.0.0,1126521,5d30790f326b0f0017a2a828,3,1,null,,,,,,,,,<p style='font-size: 30px;'><strong>Okay</strong></p>,null,neutral_feedback,2,test,30,,,,,,,,,,,,,,,,,,,,,,,,
,,,,,,,,,,,html-button-response,334,2.0.0,1128495,5d30790f326b0f0017a2a828,3,1,1973,,,,,,,,,"<img src= ""rock_img/I_Diorite_15.jpg"" style=""width:8cm; height:5.54cm;""><p>What type of rock is this?</p>",0,class_response,2,test,31,Andesite,Diorite,15,FALSE,1,3,,,,,,,,,,,,,,,,,,
,,,,,,,,,,,html-keyboard-response,335,2.0.0,1128997,5d30790f326b0f0017a2a828,3,1,null,,,,,,,,,<p style='font-size: 30px;'><strong>Okay</strong></p>,null,neutral_feedback,2,test,31,,,,,,,,,,,,,,,,,,,,,,,,
,,,,,,,,,,,html-button-response,336,2.0.0,1130203,5d30790f326b0f0017a2a828,3,1,1202,,,,,,,,,"<img src= ""rock_img/I_Basalt_10.jpg"" style=""width:8cm; height:5.85cm;""><p>What type of rock is this?</p>",1,class_response,2,test,32,Basalt,Basalt,10,TRUE,2,2,,,,,,,,,,,,,,,,,,
,,,,,,,,,,,html-keyboard-response,337,2.0.0,1130705,5d30790f326b0f0017a2a828,3,1,null,,,,,,,,,<p style='font-size: 30px;'><strong>Okay</strong></p>,null,neutral_feedback,2,test,32,,,,,,,,,,,,,,,,,,,,,,,,
,,,,,,,,,,,html-button-response,338,2.0.0,1131850,5d30790f326b0f0017a2a828,3,1,1143,,,,,,,,,"<img src= ""rock_img/I_Pegmatite_16.jpg"" style=""width:8cm; height:5.8cm;""><p>What type of rock is this?</p>",5,class_response,2,test,33,Pegmatite,Pegmatite,16,TRUE,6,6,,,,,,,,,,,,,,,,,,
,,,,,,,,,,,html-keyboard-response,339,2.0.0,1132353,5d30790f326b0f0017a2a828,3,1,null,,,,,,,,,<p style='font-size: 30px;'><strong>Okay</strong></p>,null,neutral_feedback,2,test,33,,,,,,,,,,,,,,,,,,,,,,,,
,,,,,,,,,,,html-button-response,340,2.0.0,1135475,5d30790f326b0f0017a2a828,3,1,3118,,,,,,,,,"<img src= ""rock_img/I_Gabbro_16.jpg"" style=""width:8cm; height:6.44cm;""><p>What type of rock is this?</p>",1,class_response,2,test,34,Basalt,Gabbro,16,FALSE,2,4,,,,,,,,,,,,,,,,,,
,,,,,,,,,,,html-keyboard-response,341,2.0.0,1135979,5d30790f326b0f0017a2a828,3,1,null,,,,,,,,,<p style='font-size: 30px;'><strong>Okay</strong></p>,null,neutral_feedback,2,test,34,,,,,,,,,,,,,,,,,,,,,,,,
,,,,,,,,,,,html-button-response,342,2.0.0,1136944,5d30790f326b0f0017a2a828,3,1,963,,,,,,,,,"<img src= ""rock_img/I_Obsidian_06.jpg"" style=""width:8cm; height:6.8cm;""><p>What type of rock is this?</p>",4,class_response,2,test,35,Obsidian,Obsidian,6,TRUE,5,5,,,,,,,,,,,,,,,,,,
,,,,,,,,,,,html-keyboard-response,343,2.0.0,1137447,5d30790f326b0f0017a2a828,3,1,null,,,,,,,,,<p style='font-size: 30px;'><strong>Okay</strong></p>,null,neutral_feedback,2,test,35,,,,,,,,,,,,,,,,,,,,,,,,
,,,,,,,,,,,html-button-response,344,2.0.0,1139250,5d30790f326b0f0017a2a828,3,1,1799,,,,,,,,,"<img src= ""rock_img/I_Andesite_11.jpg"" style=""width:8cm; height:4.92cm;""><p>What type of rock is this?</p>",0,class_response,2,test,36,Andesite,Andesite,11,TRUE,1,1,,,,,,,,,,,,,,,,,,
,,,,,,,,,,,html-keyboard-response,345,2.0.0,1139752,5d30790f326b0f0017a2a828,3,1,null,,,,,,,,,<p style='font-size: 30px;'><strong>Okay</strong></p>,null,neutral_feedback,2,test,36,,,,,,,,,,,,,,,,,,,,,,,,
,,,,,,,,,,,html-button-response,346,2.0.0,1141214,5d30790f326b0f0017a2a828,3,1,1459,,,,,,,,,"<img src= ""rock_img/I_Andesite_07.jpg"" style=""width:8cm; height:5.93cm;""><p>What type of rock is this?</p>",6,class_response,2,test,37,Peridotite,Andesite,7,FALSE,7,1,,,,,,,,,,,,,,,,,,
,,,,,,,,,,,html-keyboard-response,347,2.0.0,1141716,5d30790f326b0f0017a2a828,3,1,null,,,,,,,,,<p style='font-size: 30px;'><strong>Okay</strong></p>,null,neutral_feedback,2,test,37,,,,,,,,,,,,,,,,,,,,,,,,
,,,,,,,,,,,html-button-response,348,2.0.0,1142702,5d30790f326b0f0017a2a828,3,1,983,,,,,,,,,"<img src= ""rock_img/I_Basalt_14.jpg"" style=""width:8cm; height:5.82cm;""><p>What type of rock is this?</p>",7,class_response,2,test,38,Pumice,Basalt,14,FALSE,8,2,,,,,,,,,,,,,,,,,,
,,,,,,,,,,,html-keyboard-response,349,2.0.0,1143203,5d30790f326b0f0017a2a828,3,1,null,,,,,,,,,<p style='font-size: 30px;'><strong>Okay</strong></p>,null,neutral_feedback,2,test,38,,,,,,,,,,,,,,,,,,,,,,,,
,,,,,,,,,,,html-button-response,350,2.0.0,1144718,5d30790f326b0f0017a2a828,3,1,1509,,,,,,,,,"<img src= ""rock_img/I_Gabbro_13.jpg"" style=""width:8cm; height:5.08cm;""><p>What type of rock is this?</p>",6,class_response,2,test,39,Peridotite,Gabbro,13,FALSE,7,4,,,,,,,,,,,,,,,,,,
,,,,,,,,,,,html-keyboard-response,351,2.0.0,1145220,5d30790f326b0f0017a2a828,3,1,null,,,,,,,,,<p style='font-size: 30px;'><strong>Okay</strong></p>,null,neutral_feedback,2,test,39,,,,,,,,,,,,,,,,,,,,,,,,
,,,,,,,,,,,html-button-response,352,2.0.0,1146457,5d30790f326b0f0017a2a828,3,1,1233,,,,,,,,,"<img src= ""rock_img/I_Pumice_13.jpg"" style=""width:8cm; height:8.200000000000001cm;""><p>What type of rock is this?</p>",7,class_response,2,test,40,Pumice,Pumice,13,TRUE,8,8,,,,,,,,,,,,,,,,,,
,,,,,,,,,,,html-keyboard-response,353,2.0.0,1146960,5d30790f326b0f0017a2a828,3,1,null,,,,,,,,,<p style='font-size: 30px;'><strong>Okay</strong></p>,null,neutral_feedback,2,test,40,,,,,,,,,,,,,,,,,,,,,,,,
,,,,,,,,,,,html-button-response,354,2.0.0,1147845,5d30790f326b0f0017a2a828,3,1,882,,,,,,,,,"<img src= ""rock_img/I_Obsidian_07.jpg"" style=""width:8cm; height:4.76cm;""><p>What type of rock is this?</p>",4,class_response,2,test,41,Obsidian,Obsidian,7,TRUE,5,5,,,,,,,,,,,,,,,,,,
,,,,,,,,,,,html-keyboard-response,355,2.0.0,1148348,5d30790f326b0f0017a2a828,3,1,null,,,,,,,,,<p style='font-size: 30px;'><strong>Okay</strong></p>,null,neutral_feedback,2,test,41,,,,,,,,,,,,,,,,,,,,,,,,
,,,,,,,,,,,html-button-response,356,2.0.0,1149408,5d30790f326b0f0017a2a828,3,1,1057,,,,,,,,,"<img src= ""rock_img/I_Pumice_14.jpg"" style=""width:8cm; height:6.39cm;""><p>What type of rock is this?</p>",7,class_response,2,test,42,Pumice,Pumice,14,TRUE,8,8,,,,,,,,,,,,,,,,,,
,,,,,,,,,,,html-keyboard-response,357,2.0.0,1149910,5d30790f326b0f0017a2a828,3,1,null,,,,,,,,,<p style='font-size: 30px;'><strong>Okay</strong></p>,null,neutral_feedback,2,test,42,,,,,,,,,,,,,,,,,,,,,,,,
,,,,,,,,,,,html-button-response,358,2.0.0,1153813,5d30790f326b0f0017a2a828,3,1,3899,,,,,,,,,"<img src= ""rock_img/I_Gabbro_10.jpg"" style=""width:8cm; height:5.680000000000001cm;""><p>What type of rock is this?</p>",6,class_response,2,test,43,Peridotite,Gabbro,10,FALSE,7,4,,,,,,,,,,,,,,,,,,
,,,,,,,,,,,html-keyboard-response,359,2.0.0,1154315,5d30790f326b0f0017a2a828,3,1,null,,,,,,,,,<p style='font-size: 30px;'><strong>Okay</strong></p>,null,neutral_feedback,2,test,43,,,,,,,,,,,,,,,,,,,,,,,,
,,,,,,,,,,,html-button-response,360,2.0.0,1155708,5d30790f326b0f0017a2a828,3,1,1389,,,,,,,,,"<img src= ""rock_img/I_Gabbro_12.jpg"" style=""width:8cm; height:7.800000000000001cm;""><p>What type of rock is this?</p>",1,class_response,2,test,44,Basalt,Gabbro,12,FALSE,2,4,,,,,,,,,,,,,,,,,,
,,,,,,,,,,,html-keyboard-response,361,2.0.0,1156210,5d30790f326b0f0017a2a828,3,1,null,,,,,,,,,<p style='font-size: 30px;'><strong>Okay</strong></p>,null,neutral_feedback,2,test,44,,,,,,,,,,,,,,,,,,,,,,,,
,,,,,,,,,,,html-button-response,362,2.0.0,1158117,5d30790f326b0f0017a2a828,3,1,1903,,,,,,,,,"<img src= ""rock_img/I_Basalt_11.jpg"" style=""width:8cm; height:5.359999999999999cm;""><p>What type of rock is this?</p>",1,class_response,2,test,45,Basalt,Basalt,11,TRUE,2,2,,,,,,,,,,,,,,,,,,
,,,,,,,,,,,html-keyboard-response,363,2.0.0,1158622,5d30790f326b0f0017a2a828,3,1,null,,,,,,,,,<p style='font-size: 30px;'><strong>Okay</strong></p>,null,neutral_feedback,2,test,45,,,,,,,,,,,,,,,,,,,,,,,,
,,,,,,,,,,,html-button-response,364,2.0.0,1159763,5d30790f326b0f0017a2a828,3,1,1136,,,,,,,,,"<img src= ""rock_img/I_Peridotite_15.jpg"" style=""width:8cm; height:6cm;""><p>What type of rock is this?</p>",6,class_response,2,test,46,Peridotite,Peridotite,15,TRUE,7,7,,,,,,,,,,,,,,,,,,
,,,,,,,,,,,html-keyboard-response,365,2.0.0,1160265,5d30790f326b0f0017a2a828,3,1,null,,,,,,,,,<p style='font-size: 30px;'><strong>Okay</strong></p>,null,neutral_feedback,2,test,46,,,,,,,,,,,,,,,,,,,,,,,,
,,,,,,,,,,,html-button-response,366,2.0.0,1161535,5d30790f326b0f0017a2a828,3,1,1266,,,,,,,,,"<img src= ""rock_img/I_Andesite_09.jpg"" style=""width:8cm; height:6cm;""><p>What type of rock is this?</p>",0,class_response,2,test,47,Andesite,Andesite,9,TRUE,1,1,,,,,,,,,,,,,,,,,,
,,,,,,,,,,,html-keyboard-response,367,2.0.0,1162037,5d30790f326b0f0017a2a828,3,1,null,,,,,,,,,<p style='font-size: 30px;'><strong>Okay</strong></p>,null,neutral_feedback,2,test,47,,,,,,,,,,,,,,,,,,,,,,,,
,,,,,,,,,,,html-button-response,368,2.0.0,1163159,5d30790f326b0f0017a2a828,3,1,1118,,,,,,,,,"<img src= ""rock_img/I_Basalt_08.jpg"" style=""width:8cm; height:10.44cm;""><p>What type of rock is this?</p>",1,class_response,2,test,48,Basalt,Basalt,8,TRUE,2,2,,,,,,,,,,,,,,,,,,
,,,,,,,,,,,html-keyboard-response,369,2.0.0,1163662,5d30790f326b0f0017a2a828,3,1,null,,,,,,,,,<p style='font-size: 30px;'><strong>Okay</strong></p>,null,neutral_feedback,2,test,48,,,,,,,,,,,,,,,,,,,,,,,,
,,,,,,,,,,,html-button-response,370,2.0.0,1233490,5d30790f326b0f0017a2a828,3,1,,,,,,,,,,,,cycle_feedback,,,,,,,,,,,,,,,,,,,,,,4259.2,65561.4,,,,
,,,,,,,,,,,html-button-response,372,2.0.0,1234569,5d30790f326b0f0017a2a828,3,1,1076,,,,,,,,,,0,start_train,,,,,,,,,,,,,,,,,,,,,,,,,,,
,,,,,,,,,,,html-button-response,374,2.0.0,1238208,5d30790f326b0f0017a2a828,3,1,3635,,,,,,,,,"<img src= ""rock_img/I_Peridotite_16.jpg"" style=""width:8cm; height:6.989999999999999cm;""><p>What type of rock is this?</p>",6,class_response,3,train,1,Peridotite,Peridotite,16,TRUE,7,7,,,,,,,,,,,,,,,,,,
,,,,,,,,,,,html-button-response,375,2.0.0,1239074,5d30790f326b0f0017a2a828,3,1,862,,,,,,,,,"<img src= rock_img/I_Peridotite_16.jpg style=""width:8cm; height:6.989999999999999cm;""><p style='font-size: 30px; color: green;'><strong>Correct!</strong></p><p style='font-size: 30px;'><strong>This rock is peridotite</strong></p>",0,corr_feedback,3,train,1,,,,,,,,,,,,,,,,,,,,,,,,
,,,,,,,,,,,html-button-response,376,2.0.0,1240827,5d30790f326b0f0017a2a828,3,1,1750,,,,,,,,,"<img src= ""rock_img/I_Diorite_14.jpg"" style=""width:8cm; height:5.71cm;""><p>What type of rock is this?</p>",0,class_response,3,train,2,Andesite,Diorite,14,FALSE,1,3,,,,,,,,,,,,,,,,,,
,,,,,,,,,,,html-button-response,377,2.0.0,1242095,5d30790f326b0f0017a2a828,3,1,1265,,,,,,,,,"<img src= rock_img/I_Diorite_14.jpg style=""width:8cm; height:5.71cm;""><p style='font-size: 30px; color: red;'><strong>Incorrect!</strong></p><p style='font-size: 30px;'><strong>This rock is diorite</strong></p>",0,corr_feedback,3,train,2,,,,,,,,,,,,,,,,,,,,,,,,
,,,,,,,,,,,html-button-response,378,2.0.0,1243527,5d30790f326b0f0017a2a828,3,1,1429,,,,,,,,,"<img src= ""rock_img/I_Gabbro_01.jpg"" style=""width:8cm; height:5.21cm;""><p>What type of rock is this?</p>",0,class_response,3,train,3,Andesite,Gabbro,1,FALSE,1,4,,,,,,,,,,,,,,,,,,
,,,,,,,,,,,html-button-response,379,2.0.0,1244245,5d30790f326b0f0017a2a828,3,1,715,,,,,,,,,"<img src= rock_img/I_Gabbro_01.jpg style=""width:8cm; height:5.21cm;""><p style='font-size: 30px; color: red;'><strong>Incorrect!</strong></p><p style='font-size: 30px;'><strong>This rock is gabbro</strong></p>",0,corr_feedback,3,train,3,,,,,,,,,,,,,,,,,,,,,,,,
,,,,,,,,,,,html-button-response,380,2.0.0,1246944,5d30790f326b0f0017a2a828,3,1,2696,,,,,,,,,"<img src= ""rock_img/I_Andesite_10.jpg"" style=""width:8cm; height:4.16cm;""><p>What type of rock is this?</p>",1,class_response,3,train,4,Basalt,Andesite,10,FALSE,2,1,,,,,,,,,,,,,,,,,,
,,,,,,,,,,,html-button-response,381,2.0.0,1248124,5d30790f326b0f0017a2a828,3,1,1176,,,,,,,,,"<img src= rock_img/I_Andesite_10.jpg style=""width:8cm; height:4.16cm;""><p style='font-size: 30px; color: red;'><strong>Incorrect!</strong></p><p style='font-size: 30px;'><strong>This rock is andesite</strong></p>",0,corr_feedback,3,train,4,,,,,,,,,,,,,,,,,,,,,,,,
,,,,,,,,,,,html-button-response,382,2.0.0,1249185,5d30790f326b0f0017a2a828,3,1,1059,,,,,,,,,"<img src= ""rock_img/I_Pegmatite_15.jpg"" style=""width:8cm; height:6cm;""><p>What type of rock is this?</p>",5,class_response,3,train,5,Pegmatite,Pegmatite,15,TRUE,6,6,,,,,,,,,,,,,,,,,,
,,,,,,,,,,,html-button-response,383,2.0.0,1249700,5d30790f326b0f0017a2a828,3,1,511,,,,,,,,,"<img src= rock_img/I_Pegmatite_15.jpg style=""width:8cm; height:6cm;""><p style='font-size: 30px; color: green;'><strong>Correct!</strong></p><p style='font-size: 30px;'><strong>This rock is pegmatite</strong></p>",0,corr_feedback,3,train,5,,,,,,,,,,,,,,,,,,,,,,,,
,,,,,,,,,,,html-button-response,384,2.0.0,1250922,5d30790f326b0f0017a2a828,3,1,1218,,,,,,,,,"<img src= ""rock_img/I_Peridotite_08.jpg"" style=""width:8cm; height:6.7cm;""><p>What type of rock is this?</p>",6,class_response,3,train,6,Peridotite,Peridotite,8,TRUE,7,7,,,,,,,,,,,,,,,,,,
,,,,,,,,,,,html-button-response,385,2.0.0,1251474,5d30790f326b0f0017a2a828,3,1,549,,,,,,,,,"<img src= rock_img/I_Peridotite_08.jpg style=""width:8cm; height:6.7cm;""><p style='font-size: 30px; color: green;'><strong>Correct!</strong></p><p style='font-size: 30px;'><strong>This rock is peridotite</strong></p>",0,corr_feedback,3,train,6,,,,,,,,,,,,,,,,,,,,,,,,
,,,,,,,,,,,html-button-response,386,2.0.0,1252703,5d30790f326b0f0017a2a828,3,1,1226,,,,,,,,,"<img src= ""rock_img/I_Andesite_14.jpg"" style=""width:8cm; height:5.449999999999999cm;""><p>What type of rock is this?</p>",6,class_response,3,train,7,Peridotite,Andesite,14,FALSE,7,1,,,,,,,,,,,,,,,,,,
,,,,,,,,,,,html-button-response,387,2.0.0,1253820,5d30790f326b0f0017a2a828,3,1,1115,,,,,,,,,"<img src= rock_img/I_Andesite_14.jpg style=""width:8cm; height:5.449999999999999cm;""><p style='font-size: 30px; color: red;'><strong>Incorrect!</strong></p><p style='font-size: 30px;'><strong>This rock is andesite</strong></p>",0,corr_feedback,3,train,7,,,,,,,,,,,,,,,,,,,,,,,,
,,,,,,,,,,,html-button-response,388,2.0.0,1257197,5d30790f326b0f0017a2a828,3,1,3375,,,,,,,,,"<img src= ""rock_img/I_Basalt_04.jpg"" style=""width:8cm; height:7.53cm;""><p>What type of rock is this?</p>",1,class_response,3,train,8,Basalt,Basalt,4,TRUE,2,2,,,,,,,,,,,,,,,,,,
,,,,,,,,,,,html-button-response,389,2.0.0,1257665,5d30790f326b0f0017a2a828,3,1,465,,,,,,,,,"<img src= rock_img/I_Basalt_04.jpg style=""width:8cm; height:7.53cm;""><p style='font-size: 30px; color: green;'><strong>Correct!</strong></p><p style='font-size: 30px;'><strong>This rock is basalt</strong></p>",0,corr_feedback,3,train,8,,,,,,,,,,,,,,,,,,,,,,,,
,,,,,,,,,,,html-button-response,390,2.0.0,1258920,5d30790f326b0f0017a2a828,3,1,1253,,,,,,,,,"<img src= ""rock_img/I_Obsidian_04.jpg"" style=""width:8cm; height:6.930000000000001cm;""><p>What type of rock is this?</p>",4,class_response,3,train,9,Obsidian,Obsidian,4,TRUE,5,5,,,,,,,,,,,,,,,,,,
,,,,,,,,,,,html-button-response,391,2.0.0,1259579,5d30790f326b0f0017a2a828,3,1,657,,,,,,,,,"<img src= rock_img/I_Obsidian_04.jpg style=""width:8cm; height:6.930000000000001cm;""><p style='font-size: 30px; color: green;'><strong>Correct!</strong></p><p style='font-size: 30px;'><strong>This rock is obsidian</strong></p>",0,corr_feedback,3,train,9,,,,,,,,,,,,,,,,,,,,,,,,
,,,,,,,,,,,html-button-response,392,2.0.0,1262581,5d30790f326b0f0017a2a828,3,1,3000,,,,,,,,,"<img src= ""rock_img/I_Diorite_16.jpg"" style=""width:8cm; height:6.74cm;""><p>What type of rock is this?</p>",0,class_response,3,train,10,Andesite,Diorite,16,FALSE,1,3,,,,,,,,,,,,,,,,,,
,,,,,,,,,,,html-button-response,393,2.0.0,1265120,5d30790f326b0f0017a2a828,3,1,2534,,,,,,,,,"<img src= rock_img/I_Diorite_16.jpg style=""width:8cm; height:6.74cm;""><p style='font-size: 30px; color: red;'><strong>Incorrect!</strong></p><p style='font-size: 30px;'><strong>This rock is diorite</strong></p>",0,corr_feedback,3,train,10,,,,,,,,,,,,,,,,,,,,,,,,
,,,,,,,,,,,html-button-response,394,2.0.0,1266214,5d30790f326b0f0017a2a828,3,1,1092,,,,,,,,,"<img src= ""rock_img/I_Obsidian_09.jpg"" style=""width:8cm; height:5cm;""><p>What type of rock is this?</p>",4,class_response,3,train,11,Obsidian,Obsidian,9,TRUE,5,5,,,,,,,,,,,,,,,,,,
,,,,,,,,,,,html-button-response,395,2.0.0,1266836,5d30790f326b0f0017a2a828,3,1,620,,,,,,,,,"<img src= rock_img/I_Obsidian_09.jpg style=""width:8cm; height:5cm;""><p style='font-size: 30px; color: green;'><strong>Correct!</strong></p><p style='font-size: 30px;'><strong>This rock is obsidian</strong></p>",0,corr_feedback,3,train,11,,,,,,,,,,,,,,,,,,,,,,,,
