"width","height","webaudio","browser","browser_version","mobile","os","fullscreen","vsync_rate","webcam","microphone","trial_type","trial_index","plugin_version","time_elapsed","subjID","condition","stimID","rt","url","success","value","timeout","failed_images","failed_audio","failed_video","view_history","stimulus","response","trialType","cycle","phase","trial","resp","cat","token","corr","resp_num","cat_num","ref_cat_num","paired_cat_num","time_obs","ref_cat","paired_cat","ref_prob_dist","paired_prob_dist","text_Basalt","text_Obsidian","time_resp","text_Pegmatite","text_Peridotite","time_fb1","time_fb2","text_Andesite","text_Diorite","text_Gabbro"
"1536","730","true","chrome","131.0.0","false","Windows 10","true","146.41","true","true","browser-check","0","2.0.0","437","673b439b4c9758dc0048ace1","3","8","","","","","","","","","","","","","","","","","","","","","","","","","","","","","","","","","","","","","",""
"","","","","","","","","","","","external-html","1","2.0.0","62542","673b439b4c9758dc0048ace1","3","8","62032","consent_form.html","","","","","","","","","","","","","","","","","","","","","","","","","","","","","","","","","","","",""
"","","","","","","","","","","","fullscreen","2","2.0.0","66549","673b439b4c9758dc0048ace1","3","8","2999","","true","","","","","","","","","","","","","","","","","","","","","","","","","","","","","","","","","","",""
"","","","","","","","","","","","call-function","3","2.0.0","66550","673b439b4c9758dc0048ace1","3","8","","","","{}","","","","","","","","","","","","","","","","","","","","","","","","","","","","","","","","","",""
"","","","","","","","","","","","preload","4","2.0.0","68269","673b439b4c9758dc0048ace1","3","8","","","true","","false","[]","[]","[]","","","","","","","","","","","","","","","","","","","","","","","","","","","","","",""
"","","","","","","","","","","","instructions","5","2.0.0","96413","673b439b4c9758dc0048ace1","3","8","28144","","","","","","","","[{""page_index"":0,""viewing_time"":7334},{""page_index"":1,""viewing_time"":16439},{""page_index"":2,""viewing_time"":4371}]","","","","","","","","","","","","","","","","","","","","","","","","","","","","",""
"","","","","","","","","","","","html-button-response","6","2.0.0","98251","673b439b4c9758dc0048ace1","3","8","1837","","","","","","","","","","0","start_test","","","","","","","","","","","","","","","","","","","","","","","","","",""
"","","","","","","","","","","","html-button-response","7","2.0.0","103497","673b439b4c9758dc0048ace1","3","8","5244","","","","","","","","","<img src= ""rock_img/I_Peridotite_10.jpg"" style=""width:8cm; height:5.390000000000001cm;""><p>What type of rock is this?</p>","4","class_response","0","test","1","Obsidian","Peridotite","10","false","5","7","","","","","","","","","","","","","","","","",""
"","","","","","","","","","","","html-keyboard-response","8","2.0.0","103998","673b439b4c9758dc0048ace1","3","8","null","","","","","","","","","<p style='font-size: 30px;'><strong>Okay</strong></p>","null","neutral_feedback","0","test","1","","","","","","","","","","","","","","","","","","","","","","",""
"","","","","","","","","","","","html-button-response","9","2.0.0","107193","673b439b4c9758dc0048ace1","3","8","3194","","","","","","","","","<img src= ""rock_img/I_Diorite_16.jpg"" style=""width:8cm; height:6.74cm;""><p>What type of rock is this?</p>","5","class_response","0","test","2","Pegmatite","Diorite","16","false","6","3","","","","","","","","","","","","","","","","",""
"","","","","","","","","","","","html-keyboard-response","10","2.0.0","107696","673b439b4c9758dc0048ace1","3","8","null","","","","","","","","","<p style='font-size: 30px;'><strong>Okay</strong></p>","null","neutral_feedback","0","test","2","","","","","","","","","","","","","","","","","","","","","","",""
"","","","","","","","","","","","html-button-response","11","2.0.0","114382","673b439b4c9758dc0048ace1","3","8","6684","","","","","","","","","<img src= ""rock_img/I_Pegmatite_10.jpg"" style=""width:8cm; height:4.16cm;""><p>What type of rock is this?</p>","7","class_response","0","test","3","Pumice","Pegmatite","10","false","8","6","","","","","","","","","","","","","","","","",""
"","","","","","","","","","","","html-keyboard-response","12","2.0.0","114883","673b439b4c9758dc0048ace1","3","8","null","","","","","","","","","<p style='font-size: 30px;'><strong>Okay</strong></p>","null","neutral_feedback","0","test","3","","","","","","","","","","","","","","","","","","","","","","",""
"","","","","","","","","","","","html-button-response","13","2.0.0","127193","673b439b4c9758dc0048ace1","3","8","12308","","","","","","","","","<img src= ""rock_img/I_Basalt_01.jpg"" style=""width:8cm; height:7.880000000000001cm;""><p>What type of rock is this?</p>","5","class_response","0","test","4","Pegmatite","Basalt","01","false","6","2","","","","","","","","","","","","","","","","",""
"","","","","","","","","","","","html-keyboard-response","14","2.0.0","127694","673b439b4c9758dc0048ace1","3","8","null","","","","","","","","","<p style='font-size: 30px;'><strong>Okay</strong></p>","null","neutral_feedback","0","test","4","","","","","","","","","","","","","","","","","","","","","","",""
"","","","","","","","","","","","html-button-response","15","2.0.0","134074","673b439b4c9758dc0048ace1","3","8","6379","","","","","","","","","<img src= ""rock_img/I_Basalt_02.jpg"" style=""width:8cm; height:6.45cm;""><p>What type of rock is this?</p>","4","class_response","0","test","5","Obsidian","Basalt","02","false","5","2","","","","","","","","","","","","","","","","",""
"","","","","","","","","","","","html-keyboard-response","16","2.0.0","134582","673b439b4c9758dc0048ace1","3","8","null","","","","","","","","","<p style='font-size: 30px;'><strong>Okay</strong></p>","null","neutral_feedback","0","test","5","","","","","","","","","","","","","","","","","","","","","","",""
"","","","","","","","","","","","html-button-response","17","2.0.0","139569","673b439b4c9758dc0048ace1","3","8","4986","","","","","","","","","<img src= ""rock_img/I_Obsidian_07.jpg"" style=""width:8cm; height:4.76cm;""><p>What type of rock is this?</p>","3","class_response","0","test","6","Gabbro","Obsidian","07","false","4","5","","","","","","","","","","","","","","","","",""
"","","","","","","","","","","","html-keyboard-response","18","2.0.0","140073","673b439b4c9758dc0048ace1","3","8","null","","","","","","","","","<p style='font-size: 30px;'><strong>Okay</strong></p>","null","neutral_feedback","0","test","6","","","","","","","","","","","","","","","","","","","","","","",""
"","","","","","","","","","","","html-button-response","19","2.0.0","142351","673b439b4c9758dc0048ace1","3","8","2277","","","","","","","","","<img src= ""rock_img/I_Pegmatite_05.jpg"" style=""width:8cm; height:7.300000000000001cm;""><p>What type of rock is this?</p>","1","class_response","0","test","7","Basalt","Pegmatite","05","false","2","6","","","","","","","","","","","","","","","","",""
"","","","","","","","","","","","html-keyboard-response","20","2.0.0","142856","673b439b4c9758dc0048ace1","3","8","null","","","","","","","","","<p style='font-size: 30px;'><strong>Okay</strong></p>","null","neutral_feedback","0","test","7","","","","","","","","","","","","","","","","","","","","","","",""
"","","","","","","","","","","","html-button-response","21","2.0.0","146056","673b439b4c9758dc0048ace1","3","8","3199","","","","","","","","","<img src= ""rock_img/I_Basalt_11.jpg"" style=""width:8cm; height:5.359999999999999cm;""><p>What type of rock is this?</p>","5","class_response","0","test","8","Pegmatite","Basalt","11","false","6","2","","","","","","","","","","","","","","","","",""
"","","","","","","","","","","","html-keyboard-response","22","2.0.0","146571","673b439b4c9758dc0048ace1","3","8","null","","","","","","","","","<p style='font-size: 30px;'><strong>Okay</strong></p>","null","neutral_feedback","0","test","8","","","","","","","","","","","","","","","","","","","","","","",""
"","","","","","","","","","","","html-button-response","23","2.0.0","151007","673b439b4c9758dc0048ace1","3","8","4435","","","","","","","","","<img src= ""rock_img/I_Pumice_14.jpg"" style=""width:8cm; height:6.39cm;""><p>What type of rock is this?</p>","6","class_response","0","test","9","Peridotite","Pumice","14","false","7","8","","","","","","","","","","","","","","","","",""
"","","","","","","","","","","","html-keyboard-response","24","2.0.0","151521","673b439b4c9758dc0048ace1","3","8","null","","","","","","","","","<p style='font-size: 30px;'><strong>Okay</strong></p>","null","neutral_feedback","0","test","9","","","","","","","","","","","","","","","","","","","","","","",""
"","","","","","","","","","","","html-button-response","25","2.0.0","154462","673b439b4c9758dc0048ace1","3","8","2939","","","","","","","","","<img src= ""rock_img/I_Andesite_04.jpg"" style=""width:8cm; height:5.96cm;""><p>What type of rock is this?</p>","4","class_response","0","test","10","Obsidian","Andesite","04","false","5","1","","","","","","","","","","","","","","","","",""
"","","","","","","","","","","","html-keyboard-response","26","2.0.0","154962","673b439b4c9758dc0048ace1","3","8","null","","","","","","","","","<p style='font-size: 30px;'><strong>Okay</strong></p>","null","neutral_feedback","0","test","10","","","","","","","","","","","","","","","","","","","","","","",""
"","","","","","","","","","","","html-button-response","27","2.0.0","158627","673b439b4c9758dc0048ace1","3","8","3663","","","","","","","","","<img src= ""rock_img/I_Peridotite_14.jpg"" style=""width:8cm; height:5.3cm;""><p>What type of rock is this?</p>","4","class_response","0","test","11","Obsidian","Peridotite","14","false","5","7","","","","","","","","","","","","","","","","",""
"","","","","","","","","","","","html-keyboard-response","28","2.0.0","159129","673b439b4c9758dc0048ace1","3","8","null","","","","","","","","","<p style='font-size: 30px;'><strong>Okay</strong></p>","null","neutral_feedback","0","test","11","","","","","","","","","","","","","","","","","","","","","","",""
"","","","","","","","","","","","html-button-response","29","2.0.0","163450","673b439b4c9758dc0048ace1","3","8","4321","","","","","","","","","<img src= ""rock_img/I_Obsidian_14.jpg"" style=""width:8cm; height:7.64cm;""><p>What type of rock is this?</p>","1","class_response","0","test","12","Basalt","Obsidian","14","false","2","5","","","","","","","","","","","","","","","","",""
"","","","","","","","","","","","html-keyboard-response","30","2.0.0","163951","673b439b4c9758dc0048ace1","3","8","null","","","","","","","","","<p style='font-size: 30px;'><strong>Okay</strong></p>","null","neutral_feedback","0","test","12","","","","","","","","","","","","","","","","","","","","","","",""
"","","","","","","","","","","","html-button-response","31","2.0.0","166723","673b439b4c9758dc0048ace1","3","8","2772","","","","","","","","","<img src= ""rock_img/I_Diorite_11.jpg"" style=""width:8cm; height:7.11cm;""><p>What type of rock is this?</p>","6","class_response","0","test","13","Peridotite","Diorite","11","false","7","3","","","","","","","","","","","","","","","","",""
"","","","","","","","","","","","html-keyboard-response","32","2.0.0","167239","673b439b4c9758dc0048ace1","3","8","null","","","","","","","","","<p style='font-size: 30px;'><strong>Okay</strong></p>","null","neutral_feedback","0","test","13","","","","","","","","","","","","","","","","","","","","","","",""
"","","","","","","","","","","","html-button-response","33","2.0.0","170155","673b439b4c9758dc0048ace1","3","8","2914","","","","","","","","","<img src= ""rock_img/I_Basalt_04.jpg"" style=""width:8cm; height:7.53cm;""><p>What type of rock is this?</p>","2","class_response","0","test","14","Diorite","Basalt","04","false","3","2","","","","","","","","","","","","","","","","",""
"","","","","","","","","","","","html-keyboard-response","34","2.0.0","170656","673b439b4c9758dc0048ace1","3","8","null","","","","","","","","","<p style='font-size: 30px;'><strong>Okay</strong></p>","null","neutral_feedback","0","test","14","","","","","","","","","","","","","","","","","","","","","","",""
"","","","","","","","","","","","html-button-response","35","2.0.0","174805","673b439b4c9758dc0048ace1","3","8","4148","","","","","","","","","<img src= ""rock_img/I_Pumice_04.jpg"" style=""width:8cm; height:6.819999999999999cm;""><p>What type of rock is this?</p>","3","class_response","0","test","15","Gabbro","Pumice","04","false","4","8","","","","","","","","","","","","","","","","",""
"","","","","","","","","","","","html-keyboard-response","36","2.0.0","175310","673b439b4c9758dc0048ace1","3","8","null","","","","","","","","","<p style='font-size: 30px;'><strong>Okay</strong></p>","null","neutral_feedback","0","test","15","","","","","","","","","","","","","","","","","","","","","","",""
"","","","","","","","","","","","html-button-response","37","2.0.0","178834","673b439b4c9758dc0048ace1","3","8","3523","","","","","","","","","<img src= ""rock_img/I_Pegmatite_06.jpg"" style=""width:8cm; height:5.17cm;""><p>What type of rock is this?</p>","0","class_response","0","test","16","Andesite","Pegmatite","06","false","1","6","","","","","","","","","","","","","","","","",""
"","","","","","","","","","","","html-keyboard-response","38","2.0.0","179336","673b439b4c9758dc0048ace1","3","8","null","","","","","","","","","<p style='font-size: 30px;'><strong>Okay</strong></p>","null","neutral_feedback","0","test","16","","","","","","","","","","","","","","","","","","","","","","",""
"","","","","","","","","","","","html-button-response","39","2.0.0","182605","673b439b4c9758dc0048ace1","3","8","3268","","","","","","","","","<img src= ""rock_img/I_Basalt_05.jpg"" style=""width:8cm; height:8.18cm;""><p>What type of rock is this?</p>","1","class_response","0","test","17","Basalt","Basalt","05","true","2","2","","","","","","","","","","","","","","","","",""
"","","","","","","","","","","","html-keyboard-response","40","2.0.0","183115","673b439b4c9758dc0048ace1","3","8","null","","","","","","","","","<p style='font-size: 30px;'><strong>Okay</strong></p>","null","neutral_feedback","0","test","17","","","","","","","","","","","","","","","","","","","","","","",""
"","","","","","","","","","","","html-button-response","41","2.0.0","186409","673b439b4c9758dc0048ace1","3","8","3292","","","","","","","","","<img src= ""rock_img/I_Andesite_16.jpg"" style=""width:8cm; height:6.010000000000001cm;""><p>What type of rock is this?</p>","4","class_response","0","test","18","Obsidian","Andesite","16","false","5","1","","","","","","","","","","","","","","","","",""
"","","","","","","","","","","","html-keyboard-response","42","2.0.0","186912","673b439b4c9758dc0048ace1","3","8","null","","","","","","","","","<p style='font-size: 30px;'><strong>Okay</strong></p>","null","neutral_feedback","0","test","18","","","","","","","","","","","","","","","","","","","","","","",""
"","","","","","","","","","","","html-button-response","43","2.0.0","190445","673b439b4c9758dc0048ace1","3","8","3532","","","","","","","","","<img src= ""rock_img/I_Peridotite_12.jpg"" style=""width:8cm; height:4.54cm;""><p>What type of rock is this?</p>","2","class_response","0","test","19","Diorite","Peridotite","12","false","3","7","","","","","","","","","","","","","","","","",""
"","","","","","","","","","","","html-keyboard-response","44","2.0.0","190956","673b439b4c9758dc0048ace1","3","8","null","","","","","","","","","<p style='font-size: 30px;'><strong>Okay</strong></p>","null","neutral_feedback","0","test","19","","","","","","","","","","","","","","","","","","","","","","",""
"","","","","","","","","","","","html-button-response","45","2.0.0","194218","673b439b4c9758dc0048ace1","3","8","3261","","","","","","","","","<img src= ""rock_img/I_Obsidian_11.jpg"" style=""width:8cm; height:6.05cm;""><p>What type of rock is this?</p>","1","class_response","0","test","20","Basalt","Obsidian","11","false","2","5","","","","","","","","","","","","","","","","",""
"","","","","","","","","","","","html-keyboard-response","46","2.0.0","194734","673b439b4c9758dc0048ace1","3","8","null","","","","","","","","","<p style='font-size: 30px;'><strong>Okay</strong></p>","null","neutral_feedback","0","test","20","","","","","","","","","","","","","","","","","","","","","","",""
"","","","","","","","","","","","html-button-response","47","2.0.0","196825","673b439b4c9758dc0048ace1","3","8","2090","","","","","","","","","<img src= ""rock_img/I_Gabbro_16.jpg"" style=""width:8cm; height:6.44cm;""><p>What type of rock is this?</p>","5","class_response","0","test","21","Pegmatite","Gabbro","16","false","6","4","","","","","","","","","","","","","","","","",""
"","","","","","","","","","","","html-keyboard-response","48","2.0.0","197339","673b439b4c9758dc0048ace1","3","8","null","","","","","","","","","<p style='font-size: 30px;'><strong>Okay</strong></p>","null","neutral_feedback","0","test","21","","","","","","","","","","","","","","","","","","","","","","",""
"","","","","","","","","","","","html-button-response","49","2.0.0","200244","673b439b4c9758dc0048ace1","3","8","2904","","","","","","","","","<img src= ""rock_img/I_Diorite_06.jpg"" style=""width:8cm; height:6.03cm;""><p>What type of rock is this?</p>","3","class_response","0","test","22","Gabbro","Diorite","06","false","4","3","","","","","","","","","","","","","","","","",""
"","","","","","","","","","","","html-keyboard-response","50","2.0.0","200747","673b439b4c9758dc0048ace1","3","8","null","","","","","","","","","<p style='font-size: 30px;'><strong>Okay</strong></p>","null","neutral_feedback","0","test","22","","","","","","","","","","","","","","","","","","","","","","",""
"","","","","","","","","","","","html-button-response","51","2.0.0","203131","673b439b4c9758dc0048ace1","3","8","2383","","","","","","","","","<img src= ""rock_img/I_Gabbro_14.jpg"" style=""width:8cm; height:8.48cm;""><p>What type of rock is this?</p>","0","class_response","0","test","23","Andesite","Gabbro","14","false","1","4","","","","","","","","","","","","","","","","",""
"","","","","","","","","","","","html-keyboard-response","52","2.0.0","203636","673b439b4c9758dc0048ace1","3","8","null","","","","","","","","","<p style='font-size: 30px;'><strong>Okay</strong></p>","null","neutral_feedback","0","test","23","","","","","","","","","","","","","","","","","","","","","","",""
"","","","","","","","","","","","html-button-response","53","2.0.0","207395","673b439b4c9758dc0048ace1","3","8","3758","","","","","","","","","<img src= ""rock_img/I_Basalt_14.jpg"" style=""width:8cm; height:5.82cm;""><p>What type of rock is this?</p>","5","class_response","0","test","24","Pegmatite","Basalt","14","false","6","2","","","","","","","","","","","","","","","","",""
"","","","","","","","","","","","html-keyboard-response","54","2.0.0","207907","673b439b4c9758dc0048ace1","3","8","null","","","","","","","","","<p style='font-size: 30px;'><strong>Okay</strong></p>","null","neutral_feedback","0","test","24","","","","","","","","","","","","","","","","","","","","","","",""
"","","","","","","","","","","","html-button-response","55","2.0.0","210593","673b439b4c9758dc0048ace1","3","8","2685","","","","","","","","","<img src= ""rock_img/I_Andesite_01.jpg"" style=""width:8cm; height:5.87cm;""><p>What type of rock is this?</p>","1","class_response","0","test","25","Basalt","Andesite","01","false","2","1","","","","","","","","","","","","","","","","",""
"","","","","","","","","","","","html-keyboard-response","56","2.0.0","211103","673b439b4c9758dc0048ace1","3","8","null","","","","","","","","","<p style='font-size: 30px;'><strong>Okay</strong></p>","null","neutral_feedback","0","test","25","","","","","","","","","","","","","","","","","","","","","","",""
"","","","","","","","","","","","html-button-response","57","2.0.0","213186","673b439b4c9758dc0048ace1","3","8","2082","","","","","","","","","<img src= ""rock_img/I_Obsidian_05.jpg"" style=""width:8cm; height:6.33cm;""><p>What type of rock is this?</p>","6","class_response","0","test","26","Peridotite","Obsidian","05","false","7","5","","","","","","","","","","","","","","","","",""
"","","","","","","","","","","","html-keyboard-response","58","2.0.0","213696","673b439b4c9758dc0048ace1","3","8","null","","","","","","","","","<p style='font-size: 30px;'><strong>Okay</strong></p>","null","neutral_feedback","0","test","26","","","","","","","","","","","","","","","","","","","","","","",""
"","","","","","","","","","","","html-button-response","59","2.0.0","215522","673b439b4c9758dc0048ace1","3","8","1825","","","","","","","","","<img src= ""rock_img/I_Peridotite_04.jpg"" style=""width:8cm; height:6.680000000000001cm;""><p>What type of rock is this?</p>","0","class_response","0","test","27","Andesite","Peridotite","04","false","1","7","","","","","","","","","","","","","","","","",""
"","","","","","","","","","","","html-keyboard-response","60","2.0.0","216034","673b439b4c9758dc0048ace1","3","8","null","","","","","","","","","<p style='font-size: 30px;'><strong>Okay</strong></p>","null","neutral_feedback","0","test","27","","","","","","","","","","","","","","","","","","","","","","",""
"","","","","","","","","","","","html-button-response","61","2.0.0","217723","673b439b4c9758dc0048ace1","3","8","1688","","","","","","","","","<img src= ""rock_img/I_Diorite_02.jpg"" style=""width:8cm; height:6.27cm;""><p>What type of rock is this?</p>","4","class_response","0","test","28","Obsidian","Diorite","02","false","5","3","","","","","","","","","","","","","","","","",""
"","","","","","","","","","","","html-keyboard-response","62","2.0.0","218226","673b439b4c9758dc0048ace1","3","8","null","","","","","","","","","<p style='font-size: 30px;'><strong>Okay</strong></p>","null","neutral_feedback","0","test","28","","","","","","","","","","","","","","","","","","","","","","",""
"","","","","","","","","","","","html-button-response","63","2.0.0","219529","673b439b4c9758dc0048ace1","3","8","1302","","","","","","","","","<img src= ""rock_img/I_Diorite_14.jpg"" style=""width:8cm; height:5.71cm;""><p>What type of rock is this?</p>","4","class_response","0","test","29","Obsidian","Diorite","14","false","5","3","","","","","","","","","","","","","","","","",""
"","","","","","","","","","","","html-keyboard-response","64","2.0.0","220035","673b439b4c9758dc0048ace1","3","8","null","","","","","","","","","<p style='font-size: 30px;'><strong>Okay</strong></p>","null","neutral_feedback","0","test","29","","","","","","","","","","","","","","","","","","","","","","",""
"","","","","","","","","","","","html-button-response","65","2.0.0","223325","673b439b4c9758dc0048ace1","3","8","3288","","","","","","","","","<img src= ""rock_img/I_Diorite_13.jpg"" style=""width:8cm; height:6.29cm;""><p>What type of rock is this?</p>","2","class_response","0","test","30","Diorite","Diorite","13","true","3","3","","","","","","","","","","","","","","","","",""
"","","","","","","","","","","","html-keyboard-response","66","2.0.0","223831","673b439b4c9758dc0048ace1","3","8","null","","","","","","","","","<p style='font-size: 30px;'><strong>Okay</strong></p>","null","neutral_feedback","0","test","30","","","","","","","","","","","","","","","","","","","","","","",""
"","","","","","","","","","","","html-button-response","67","2.0.0","225872","673b439b4c9758dc0048ace1","3","8","2040","","","","","","","","","<img src= ""rock_img/I_Obsidian_09.jpg"" style=""width:8cm; height:5cm;""><p>What type of rock is this?</p>","1","class_response","0","test","31","Basalt","Obsidian","09","false","2","5","","","","","","","","","","","","","","","","",""
"","","","","","","","","","","","html-keyboard-response","68","2.0.0","226378","673b439b4c9758dc0048ace1","3","8","null","","","","","","","","","<p style='font-size: 30px;'><strong>Okay</strong></p>","null","neutral_feedback","0","test","31","","","","","","","","","","","","","","","","","","","","","","",""
"","","","","","","","","","","","html-button-response","69","2.0.0","238074","673b439b4c9758dc0048ace1","3","8","11695","","","","","","","","","<img src= ""rock_img/I_Gabbro_08.jpg"" style=""width:8cm; height:5.15cm;""><p>What type of rock is this?</p>","6","class_response","0","test","32","Peridotite","Gabbro","08","false","7","4","","","","","","","","","","","","","","","","",""
"","","","","","","","","","","","html-keyboard-response","70","2.0.0","238574","673b439b4c9758dc0048ace1","3","8","null","","","","","","","","","<p style='font-size: 30px;'><strong>Okay</strong></p>","null","neutral_feedback","0","test","32","","","","","","","","","","","","","","","","","","","","","","",""
"","","","","","","","","","","","html-button-response","71","2.0.0","253595","673b439b4c9758dc0048ace1","3","8","15020","","","","","","","","","<img src= ""rock_img/I_Pegmatite_16.jpg"" style=""width:8cm; height:5.8cm;""><p>What type of rock is this?</p>","1","class_response","0","test","33","Basalt","Pegmatite","16","false","2","6","","","","","","","","","","","","","","","","",""
"","","","","","","","","","","","html-keyboard-response","72","2.0.0","254096","673b439b4c9758dc0048ace1","3","8","null","","","","","","","","","<p style='font-size: 30px;'><strong>Okay</strong></p>","null","neutral_feedback","0","test","33","","","","","","","","","","","","","","","","","","","","","","",""
"","","","","","","","","","","","html-button-response","73","2.0.0","255152","673b439b4c9758dc0048ace1","3","8","1055","","","","","","","","","<img src= ""rock_img/I_Gabbro_03.jpg"" style=""width:8cm; height:8.52cm;""><p>What type of rock is this?</p>","5","class_response","0","test","34","Pegmatite","Gabbro","03","false","6","4","","","","","","","","","","","","","","","","",""
"","","","","","","","","","","","html-keyboard-response","74","2.0.0","255653","673b439b4c9758dc0048ace1","3","8","null","","","","","","","","","<p style='font-size: 30px;'><strong>Okay</strong></p>","null","neutral_feedback","0","test","34","","","","","","","","","","","","","","","","","","","","","","",""
"","","","","","","","","","","","html-button-response","75","2.0.0","258373","673b439b4c9758dc0048ace1","3","8","2719","","","","","","","","","<img src= ""rock_img/I_Pumice_15.jpg"" style=""width:8cm; height:7.86cm;""><p>What type of rock is this?</p>","3","class_response","0","test","35","Gabbro","Pumice","15","false","4","8","","","","","","","","","","","","","","","","",""
"","","","","","","","","","","","html-keyboard-response","76","2.0.0","258878","673b439b4c9758dc0048ace1","3","8","null","","","","","","","","","<p style='font-size: 30px;'><strong>Okay</strong></p>","null","neutral_feedback","0","test","35","","","","","","","","","","","","","","","","","","","","","","",""
"","","","","","","","","","","","html-button-response","77","2.0.0","264079","673b439b4c9758dc0048ace1","3","8","5201","","","","","","","","","<img src= ""rock_img/I_Pegmatite_11.jpg"" style=""width:8cm; height:8.14cm;""><p>What type of rock is this?</p>","6","class_response","0","test","36","Peridotite","Pegmatite","11","false","7","6","","","","","","","","","","","","","","","","",""
"","","","","","","","","","","","html-keyboard-response","78","2.0.0","264591","673b439b4c9758dc0048ace1","3","8","null","","","","","","","","","<p style='font-size: 30px;'><strong>Okay</strong></p>","null","neutral_feedback","0","test","36","","","","","","","","","","","","","","","","","","","","","","",""
"","","","","","","","","","","","html-button-response","79","2.0.0","266719","673b439b4c9758dc0048ace1","3","8","2127","","","","","","","","","<img src= ""rock_img/I_Andesite_05.jpg"" style=""width:8cm; height:4.12cm;""><p>What type of rock is this?</p>","4","class_response","0","test","37","Obsidian","Andesite","05","false","5","1","","","","","","","","","","","","","","","","",""
"","","","","","","","","","","","html-keyboard-response","80","2.0.0","267227","673b439b4c9758dc0048ace1","3","8","null","","","","","","","","","<p style='font-size: 30px;'><strong>Okay</strong></p>","null","neutral_feedback","0","test","37","","","","","","","","","","","","","","","","","","","","","","",""
"","","","","","","","","","","","html-button-response","81","2.0.0","267952","673b439b4c9758dc0048ace1","3","8","724","","","","","","","","","<img src= ""rock_img/I_Gabbro_01.jpg"" style=""width:8cm; height:5.21cm;""><p>What type of rock is this?</p>","4","class_response","0","test","38","Obsidian","Gabbro","01","false","5","4","","","","","","","","","","","","","","","","",""
"","","","","","","","","","","","html-keyboard-response","82","2.0.0","268461","673b439b4c9758dc0048ace1","3","8","null","","","","","","","","","<p style='font-size: 30px;'><strong>Okay</strong></p>","null","neutral_feedback","0","test","38","","","","","","","","","","","","","","","","","","","","","","",""
"","","","","","","","","","","","html-button-response","83","2.0.0","273712","673b439b4c9758dc0048ace1","3","8","5251","","","","","","","","","<img src= ""rock_img/I_Pegmatite_13.jpg"" style=""width:8cm; height:4.95cm;""><p>What type of rock is this?</p>","6","class_response","0","test","39","Peridotite","Pegmatite","13","false","7","6","","","","","","","","","","","","","","","","",""
"","","","","","","","","","","","html-keyboard-response","84","2.0.0","274218","673b439b4c9758dc0048ace1","3","8","null","","","","","","","","","<p style='font-size: 30px;'><strong>Okay</strong></p>","null","neutral_feedback","0","test","39","","","","","","","","","","","","","","","","","","","","","","",""
"","","","","","","","","","","","html-button-response","85","2.0.0","277870","673b439b4c9758dc0048ace1","3","8","3650","","","","","","","","","<img src= ""rock_img/I_Gabbro_13.jpg"" style=""width:8cm; height:5.08cm;""><p>What type of rock is this?</p>","3","class_response","0","test","40","Gabbro","Gabbro","13","true","4","4","","","","","","","","","","","","","","","","",""
"","","","","","","","","","","","html-keyboard-response","86","2.0.0","278371","673b439b4c9758dc0048ace1","3","8","null","","","","","","","","","<p style='font-size: 30px;'><strong>Okay</strong></p>","null","neutral_feedback","0","test","40","","","","","","","","","","","","","","","","","","","","","","",""
"","","","","","","","","","","","html-button-response","87","2.0.0","280236","673b439b4c9758dc0048ace1","3","8","1864","","","","","","","","","<img src= ""rock_img/I_Peridotite_16.jpg"" style=""width:8cm; height:6.989999999999999cm;""><p>What type of rock is this?</p>","3","class_response","0","test","41","Gabbro","Peridotite","16","false","4","7","","","","","","","","","","","","","","","","",""
"","","","","","","","","","","","html-keyboard-response","88","2.0.0","280741","673b439b4c9758dc0048ace1","3","8","null","","","","","","","","","<p style='font-size: 30px;'><strong>Okay</strong></p>","null","neutral_feedback","0","test","41","","","","","","","","","","","","","","","","","","","","","","",""
"","","","","","","","","","","","html-button-response","89","2.0.0","285438","673b439b4c9758dc0048ace1","3","8","4696","","","","","","","","","<img src= ""rock_img/I_Obsidian_06.jpg"" style=""width:8cm; height:6.8cm;""><p>What type of rock is this?</p>","1","class_response","0","test","42","Basalt","Obsidian","06","false","2","5","","","","","","","","","","","","","","","","",""
"","","","","","","","","","","","html-keyboard-response","90","2.0.0","285943","673b439b4c9758dc0048ace1","3","8","null","","","","","","","","","<p style='font-size: 30px;'><strong>Okay</strong></p>","null","neutral_feedback","0","test","42","","","","","","","","","","","","","","","","","","","","","","",""
"","","","","","","","","","","","html-button-response","91","2.0.0","287819","673b439b4c9758dc0048ace1","3","8","1875","","","","","","","","","<img src= ""rock_img/I_Pumice_03.jpg"" style=""width:8cm; height:6.64cm;""><p>What type of rock is this?</p>","7","class_response","0","test","43","Pumice","Pumice","03","true","8","8","","","","","","","","","","","","","","","","",""
"","","","","","","","","","","","html-keyboard-response","92","2.0.0","288332","673b439b4c9758dc0048ace1","3","8","null","","","","","","","","","<p style='font-size: 30px;'><strong>Okay</strong></p>","null","neutral_feedback","0","test","43","","","","","","","","","","","","","","","","","","","","","","",""
"","","","","","","","","","","","html-button-response","93","2.0.0","289165","673b439b4c9758dc0048ace1","3","8","832","","","","","","","","","<img src= ""rock_img/I_Pumice_09.jpg"" style=""width:8cm; height:6.44cm;""><p>What type of rock is this?</p>","7","class_response","0","test","44","Pumice","Pumice","09","true","8","8","","","","","","","","","","","","","","","","",""
"","","","","","","","","","","","html-keyboard-response","94","2.0.0","289672","673b439b4c9758dc0048ace1","3","8","null","","","","","","","","","<p style='font-size: 30px;'><strong>Okay</strong></p>","null","neutral_feedback","0","test","44","","","","","","","","","","","","","","","","","","","","","","",""
"","","","","","","","","","","","html-button-response","95","2.0.0","292658","673b439b4c9758dc0048ace1","3","8","2984","","","","","","","","","<img src= ""rock_img/I_Andesite_07.jpg"" style=""width:8cm; height:5.93cm;""><p>What type of rock is this?</p>","0","class_response","0","test","45","Andesite","Andesite","07","true","1","1","","","","","","","","","","","","","","","","",""
"","","","","","","","","","","","html-keyboard-response","96","2.0.0","293166","673b439b4c9758dc0048ace1","3","8","null","","","","","","","","","<p style='font-size: 30px;'><strong>Okay</strong></p>","null","neutral_feedback","0","test","45","","","","","","","","","","","","","","","","","","","","","","",""
"","","","","","","","","","","","html-button-response","97","2.0.0","295622","673b439b4c9758dc0048ace1","3","8","2454","","","","","","","","","<img src= ""rock_img/I_Peridotite_13.jpg"" style=""width:8cm; height:7.58cm;""><p>What type of rock is this?</p>","5","class_response","0","test","46","Pegmatite","Peridotite","13","false","6","7","","","","","","","","","","","","","","","","",""
"","","","","","","","","","","","html-keyboard-response","98","2.0.0","296129","673b439b4c9758dc0048ace1","3","8","null","","","","","","","","","<p style='font-size: 30px;'><strong>Okay</strong></p>","null","neutral_feedback","0","test","46","","","","","","","","","","","","","","","","","","","","","","",""
"","","","","","","","","","","","html-button-response","99","2.0.0","298887","673b439b4c9758dc0048ace1","3","8","2758","","","","","","","","","<img src= ""rock_img/I_Andesite_10.jpg"" style=""width:8cm; height:4.16cm;""><p>What type of rock is this?</p>","6","class_response","0","test","47","Peridotite","Andesite","10","false","7","1","","","","","","","","","","","","","","","","",""
"","","","","","","","","","","","html-keyboard-response","100","2.0.0","299398","673b439b4c9758dc0048ace1","3","8","null","","","","","","","","","<p style='font-size: 30px;'><strong>Okay</strong></p>","null","neutral_feedback","0","test","47","","","","","","","","","","","","","","","","","","","","","","",""
"","","","","","","","","","","","html-button-response","101","2.0.0","300981","673b439b4c9758dc0048ace1","3","8","1582","","","","","","","","","<img src= ""rock_img/I_Pumice_06.jpg"" style=""width:8cm; height:6.9399999999999995cm;""><p>What type of rock is this?</p>","7","class_response","0","test","48","Pumice","Pumice","06","true","8","8","","","","","","","","","","","","","","","","",""
"","","","","","","","","","","","html-keyboard-response","102","2.0.0","301486","673b439b4c9758dc0048ace1","3","8","null","","","","","","","","","<p style='font-size: 30px;'><strong>Okay</strong></p>","null","neutral_feedback","0","test","48","","","","","","","","","","","","","","","","","","","","","","",""
"","","","","","","","","","","","instructions","103","2.0.0","316389","673b439b4c9758dc0048ace1","3","8","14885","","","","","","","","[{""page_index"":0,""viewing_time"":11778},{""page_index"":1,""viewing_time"":3107}]","","","","","","","","","","","","","","","","","","","","","","","","","","","","",""
"","","","","","","","","","","","html-button-response","104","2.0.0","317840","673b439b4c9758dc0048ace1","3","8","1451","","","","","","","","","","0","start_train","","","","","","","","","","","","","","","","","","","","","","","","","",""
"","","","","","","","","","","","html-button-response","106","2.0.0","321023","673b439b4c9758dc0048ace1","3","8","3182","","","","","","","","","<img src= ""rock_img/I_Obsidian_08.jpg"" style=""width:8cm; height:7.39cm;""><p>What type of rock is this?</p>","2","class_response","1","train","1","Diorite","Obsidian","08","false","3","5","","","","","","","","","","","","","","","","",""
"","","","","","","","","","","","html-button-response","107","2.0.0","323926","673b439b4c9758dc0048ace1","3","8","2902","","","","","","","","","<img src= rock_img/I_Obsidian_08.jpg style=""width:8cm; height:7.39cm;""><p style='font-size: 30px; color: red;'><strong>Incorrect!</strong></p><p style='font-size: 30px;'><strong>This rock is obsidian</strong></p>","0","corr_feedback","1","train","1","","","","","","","","","","","","","","","","","","","","","","",""
"","","","","","","","","","","","html-button-response","108","2.0.0","326587","673b439b4c9758dc0048ace1","3","8","2660","","","","","","","","","<img src= ""rock_img/I_Peridotite_05.jpg"" style=""width:8cm; height:7.1499999999999995cm;""><p>What type of rock is this?</p>","5","class_response","1","train","2","Pegmatite","Peridotite","05","false","6","7","","","","","","","","","","","","","","","","",""
"","","","","","","","","","","","html-button-response","109","2.0.0","329308","673b439b4c9758dc0048ace1","3","8","2720","","","","","","","","","<img src= rock_img/I_Peridotite_05.jpg style=""width:8cm; height:7.1499999999999995cm;""><p style='font-size: 30px; color: red;'><strong>Incorrect!</strong></p><p style='font-size: 30px;'><strong>This rock is peridotite</strong></p>","0","corr_feedback","1","train","2","","","","","","","","","","","","","","","","","","","","","","",""
"","","","","","","","","","","","html-button-response","110","2.0.0","332136","673b439b4c9758dc0048ace1","3","8","2826","","","","","","","","","<img src= ""rock_img/I_Gabbro_05.jpg"" style=""width:8cm; height:6cm;""><p>What type of rock is this?</p>","4","class_response","1","train","3","Obsidian","Gabbro","05","false","5","4","","","","","","","","","","","","","","","","",""
"","","","","","","","","","","","html-button-response","111","2.0.0","334547","673b439b4c9758dc0048ace1","3","8","2411","","","","","","","","","<img src= rock_img/I_Gabbro_05.jpg style=""width:8cm; height:6cm;""><p style='font-size: 30px; color: red;'><strong>Incorrect!</strong></p><p style='font-size: 30px;'><strong>This rock is gabbro</strong></p>","0","corr_feedback","1","train","3","","","","","","","","","","","","","","","","","","","","","","",""
"","","","","","","","","","","","html-button-response","112","2.0.0","337351","673b439b4c9758dc0048ace1","3","8","2804","","","","","","","","","<img src= ""rock_img/I_Basalt_09.jpg"" style=""width:8cm; height:6.2cm;""><p>What type of rock is this?</p>","6","class_response","1","train","4","Peridotite","Basalt","09","false","7","2","","","","","","","","","","","","","","","","",""
"","","","","","","","","","","","html-button-response","113","2.0.0","338795","673b439b4c9758dc0048ace1","3","8","1443","","","","","","","","","<img src= rock_img/I_Basalt_09.jpg style=""width:8cm; height:6.2cm;""><p style='font-size: 30px; color: red;'><strong>Incorrect!</strong></p><p style='font-size: 30px;'><strong>This rock is basalt</strong></p>","0","corr_feedback","1","train","4","","","","","","","","","","","","","","","","","","","","","","",""
"","","","","","","","","","","","html-button-response","114","2.0.0","341358","673b439b4c9758dc0048ace1","3","8","2562","","","","","","","","","<img src= ""rock_img/I_Andesite_11.jpg"" style=""width:8cm; height:4.92cm;""><p>What type of rock is this?</p>","4","class_response","1","train","5","Obsidian","Andesite","11","false","5","1","","","","","","","","","","","","","","","","",""
"","","","","","","","","","","","html-button-response","115","2.0.0","342702","673b439b4c9758dc0048ace1","3","8","1343","","","","","","","","","<img src= rock_img/I_Andesite_11.jpg style=""width:8cm; height:4.92cm;""><p style='font-size: 30px; color: red;'><strong>Incorrect!</strong></p><p style='font-size: 30px;'><strong>This rock is andesite</strong></p>","0","corr_feedback","1","train","5","","","","","","","","","","","","","","","","","","","","","","",""
"","","","","","","","","","","","html-button-response","116","2.0.0","344299","673b439b4c9758dc0048ace1","3","8","1596","","","","","","","","","<img src= ""rock_img/I_Pumice_16.jpg"" style=""width:8cm; height:6.79cm;""><p>What type of rock is this?</p>","7","class_response","1","train","6","Pumice","Pumice","16","true","8","8","","","","","","","","","","","","","","","","",""
"","","","","","","","","","","","html-button-response","117","2.0.0","345786","673b439b4c9758dc0048ace1","3","8","1487","","","","","","","","","<img src= rock_img/I_Pumice_16.jpg style=""width:8cm; height:6.79cm;""><p style='font-size: 30px; color: green;'><strong>Correct!</strong></p><p style='font-size: 30px;'><strong>This rock is pumice</strong></p>","0","corr_feedback","1","train","6","","","","","","","","","","","","","","","","","","","","","","",""
"","","","","","","","","","","","html-button-response","118","2.0.0","352872","673b439b4c9758dc0048ace1","3","8","7085","","","","","","","","","<img src= ""rock_img/I_Obsidian_16.jpg"" style=""width:8cm; height:9.3cm;""><p>What type of rock is this?</p>","0","class_response","1","train","7","Andesite","Obsidian","16","false","1","5","","","","","","","","","","","","","","","","",""
"","","","","","","","","","","","html-button-response","119","2.0.0","354634","673b439b4c9758dc0048ace1","3","8","1761","","","","","","","","","<img src= rock_img/I_Obsidian_16.jpg style=""width:8cm; height:9.3cm;""><p style='font-size: 30px; color: red;'><strong>Incorrect!</strong></p><p style='font-size: 30px;'><strong>This rock is obsidian</strong></p>","0","corr_feedback","1","train","7","","","","","","","","","","","","","","","","","","","","","","",""
"","","","","","","","","","","","html-button-response","120","2.0.0","355919","673b439b4c9758dc0048ace1","3","8","1284","","","","","","","","","<img src= ""rock_img/I_Pumice_02.jpg"" style=""width:8cm; height:7.3999999999999995cm;""><p>What type of rock is this?</p>","7","class_response","1","train","8","Pumice","Pumice","02","true","8","8","","","","","","","","","","","","","","","","",""
"","","","","","","","","","","","html-button-response","121","2.0.0","356946","673b439b4c9758dc0048ace1","3","8","1026","","","","","","","","","<img src= rock_img/I_Pumice_02.jpg style=""width:8cm; height:7.3999999999999995cm;""><p style='font-size: 30px; color: green;'><strong>Correct!</strong></p><p style='font-size: 30px;'><strong>This rock is pumice</strong></p>","0","corr_feedback","1","train","8","","","","","","","","","","","","","","","","","","","","","","",""
"","","","","","","","","","","","html-button-response","122","2.0.0","363585","673b439b4c9758dc0048ace1","3","8","6638","","","","","","","","","<img src= ""rock_img/I_Pegmatite_07.jpg"" style=""width:8cm; height:6.7cm;""><p>What type of rock is this?</p>","4","class_response","1","train","9","Obsidian","Pegmatite","07","false","5","6","","","","","","","","","","","","","","","","",""
"","","","","","","","","","","","html-button-response","123","2.0.0","365362","673b439b4c9758dc0048ace1","3","8","1776","","","","","","","","","<img src= rock_img/I_Pegmatite_07.jpg style=""width:8cm; height:6.7cm;""><p style='font-size: 30px; color: red;'><strong>Incorrect!</strong></p><p style='font-size: 30px;'><strong>This rock is pegmatite</strong></p>","0","corr_feedback","1","train","9","","","","","","","","","","","","","","","","","","","","","","",""
"","","","","","","","","","","","html-button-response","124","2.0.0","368528","673b439b4c9758dc0048ace1","3","8","3165","","","","","","","","","<img src= ""rock_img/I_Pegmatite_12.jpg"" style=""width:8cm; height:5.7cm;""><p>What type of rock is this?</p>","5","class_response","1","train","10","Pegmatite","Pegmatite","12","true","6","6","","","","","","","","","","","","","","","","",""
"","","","","","","","","","","","html-button-response","125","2.0.0","369814","673b439b4c9758dc0048ace1","3","8","1285","","","","","","","","","<img src= rock_img/I_Pegmatite_12.jpg style=""width:8cm; height:5.7cm;""><p style='font-size: 30px; color: green;'><strong>Correct!</strong></p><p style='font-size: 30px;'><strong>This rock is pegmatite</strong></p>","0","corr_feedback","1","train","10","","","","","","","","","","","","","","","","","","","","","","",""
"","","","","","","","","","","","html-button-response","126","2.0.0","372688","673b439b4c9758dc0048ace1","3","8","2873","","","","","","","","","<img src= ""rock_img/I_Diorite_09.jpg"" style=""width:8cm; height:5.27cm;""><p>What type of rock is this?</p>","5","class_response","1","train","11","Pegmatite","Diorite","09","false","6","3","","","","","","","","","","","","","","","","",""
"","","","","","","","","","","","html-button-response","127","2.0.0","374147","673b439b4c9758dc0048ace1","3","8","1458","","","","","","","","","<img src= rock_img/I_Diorite_09.jpg style=""width:8cm; height:5.27cm;""><p style='font-size: 30px; color: red;'><strong>Incorrect!</strong></p><p style='font-size: 30px;'><strong>This rock is diorite</strong></p>","0","corr_feedback","1","train","11","","","","","","","","","","","","","","","","","","","","","","",""
"","","","","","","","","","","","html-button-response","128","2.0.0","376468","673b439b4c9758dc0048ace1","3","8","2320","","","","","","","","","<img src= ""rock_img/I_Basalt_08.jpg"" style=""width:8cm; height:10.44cm;""><p>What type of rock is this?</p>","1","class_response","1","train","12","Basalt","Basalt","08","true","2","2","","","","","","","","","","","","","","","","",""
"","","","","","","","","","","","html-button-response","129","2.0.0","378070","673b439b4c9758dc0048ace1","3","8","1601","","","","","","","","","<img src= rock_img/I_Basalt_08.jpg style=""width:8cm; height:10.44cm;""><p style='font-size: 30px; color: green;'><strong>Correct!</strong></p><p style='font-size: 30px;'><strong>This rock is basalt</strong></p>","0","corr_feedback","1","train","12","","","","","","","","","","","","","","","","","","","","","","",""
"","","","","","","","","","","","instructions","130","2.0.0","391240","673b439b4c9758dc0048ace1","3","8","13170","","","","","","","","[{""page_index"":0,""viewing_time"":2518},{""page_index"":1,""viewing_time"":5003},{""page_index"":2,""viewing_time"":1672},{""page_index"":3,""viewing_time"":3977}]","","","","","","","","","","","","","","","","","","","","","","","","","","","","",""
"","","","","","","","","","","","html-button-response","131","2.0.0","392728","673b439b4c9758dc0048ace1","3","8","1487","","","","","","","","","","0","start_train","","","","","","","","","","","","","","","","","","","","","","","","","",""
"","","","","","","","","","","","html-button-response","132","2.0.0","396758","673b439b4c9758dc0048ace1","3","8","","","","","","","","","","","","cat_selection","1","train","1","","","","","","","2","5","4029.699999999255","Basalt","Obsidian","[0.12234042553191489,0.12234042553191489,0.12234042553191489,0.12234042553191489,0.14361702127659573,0.14361702127659573,0.14361702127659573,0.07978723404255318]","[0.05710161764915082,null,0.16997013238582792,0.05546724245954846,0.1839790625824196,0.4181823585658879,0.05785282115244631,0.05744676520471901]","","","","","","","","","",""
"","","","","","","","","","","","paired-cat-display","133","1.0.0","444414","673b439b4c9758dc0048ace1","3","8","","","","","","","","","","","","paired_cat_display","1","train","1","","","","","","","","","10394.5","","","","","more coarse
dull
rough","smooth
shiny
dark","37259.099999997765","","","","","","",""
"","","","","","","","","","","","html-button-response","134","2.0.0","447854","673b439b4c9758dc0048ace1","3","8","","","","","","","","","","","","cat_selection","1","train","2","","","","","","","2","6","3439.10000000149","Basalt","Pegmatite","[0.12234042553191489,0.12234042553191489,0.12234042553191489,0.12234042553191489,0.14361702127659573,0.14361702127659573,0.14361702127659573,0.07978723404255318]","[0.05710161764915082,null,0.16997013238582792,0.05546724245954846,0.1839790625824196,0.4181823585658879,0.05785282115244631,0.05744676520471901]","","","","","","","","","",""
"","","","","","","","","","","","paired-cat-display","135","1.0.0","529378","673b439b4c9758dc0048ace1","3","8","","","","","","","","","","","","paired_cat_display","1","train","2","","","","","","","","","7399.5","","","","","coarse
rough
not shiny","","74122.80000000075","shRP
ROUND SHAPE
greys/ golds","","","","","",""
"","","","","","","","","","","","html-button-response","136","2.0.0","532108","673b439b4c9758dc0048ace1","3","8","","","","","","","","","","","","cat_selection","1","train","3","","","","","","","5","7","2729.199999999255","Obsidian","Peridotite","[0.12234042553191489,0.12234042553191489,0.12234042553191489,0.12234042553191489,0.14361702127659573,0.14361702127659573,0.14361702127659573,0.07978723404255318]","[0.056372130728189536,0.469171523410018,0.04943544524071748,0.1641108834359492,null,0.04740993307837565,0.16165067231639244,0.05184941179035776]","","","","","","","","","",""
"","","","","","","","","","","","paired-cat-display","137","1.0.0","574506","673b439b4c9758dc0048ace1","3","8","","","","","","","","","","","","paired_cat_display","1","train","3","","","","","","","","","6485.39999999851","","","","","","shiny
cool and smooth
dark","35911.39999999851","","earth colored
round
not smooth","","","","",""
"","","","","","","","","","","","instructions","138","2.0.0","583782","673b439b4c9758dc0048ace1","3","8","9275","","","","","","","","[{""page_index"":0,""viewing_time"":5148},{""page_index"":1,""viewing_time"":4127}]","","","","","","","","","","","","","","","","","","","","","","","","","","","","",""
"","","","","","","","","","","","html-button-response","139","2.0.0","585900","673b439b4c9758dc0048ace1","3","8","2116","","","","","","","","","","0","start_test","","","","","","","","","","","","","","","","","","","","","","","","","",""
"","","","","","","","","","","","html-button-response","140","2.0.0","594231","673b439b4c9758dc0048ace1","3","8","8330","","","","","","","","","<img src= ""rock_img/I_Obsidian_11.jpg"" style=""width:8cm; height:6.05cm;""><p>What type of rock is this?</p>","4","class_response","1","test","1","Obsidian","Obsidian","11","true","5","5","","","","","","","","","","","","","","","","",""
"","","","","","","","","","","","html-keyboard-response","141","2.0.0","594734","673b439b4c9758dc0048ace1","3","8","null","","","","","","","","","<p style='font-size: 30px;'><strong>Okay</strong></p>","null","neutral_feedback","1","test","1","","","","","","","","","","","","","","","","","","","","","","",""
"","","","","","","","","","","","html-button-response","142","2.0.0","605359","673b439b4c9758dc0048ace1","3","8","10625","","","","","","","","","<img src= ""rock_img/I_Basalt_11.jpg"" style=""width:8cm; height:5.359999999999999cm;""><p>What type of rock is this?</p>","6","class_response","1","test","2","Peridotite","Basalt","11","false","7","2","","","","","","","","","","","","","","","","",""
"","","","","","","","","","","","html-keyboard-response","143","2.0.0","605860","673b439b4c9758dc0048ace1","3","8","null","","","","","","","","","<p style='font-size: 30px;'><strong>Okay</strong></p>","null","neutral_feedback","1","test","2","","","","","","","","","","","","","","","","","","","","","","",""
"","","","","","","","","","","","html-button-response","144","2.0.0","612670","673b439b4c9758dc0048ace1","3","8","6809","","","","","","","","","<img src= ""rock_img/I_Pumice_15.jpg"" style=""width:8cm; height:7.86cm;""><p>What type of rock is this?</p>","5","class_response","1","test","3","Pegmatite","Pumice","15","false","6","8","","","","","","","","","","","","","","","","",""
"","","","","","","","","","","","html-keyboard-response","145","2.0.0","613183","673b439b4c9758dc0048ace1","3","8","null","","","","","","","","","<p style='font-size: 30px;'><strong>Okay</strong></p>","null","neutral_feedback","1","test","3","","","","","","","","","","","","","","","","","","","","","","",""
"","","","","","","","","","","","html-button-response","146","2.0.0","623638","673b439b4c9758dc0048ace1","3","8","10454","","","","","","","","","<img src= ""rock_img/I_Gabbro_01.jpg"" style=""width:8cm; height:5.21cm;""><p>What type of rock is this?</p>","6","class_response","1","test","4","Peridotite","Gabbro","01","false","7","4","","","","","","","","","","","","","","","","",""
"","","","","","","","","","","","html-keyboard-response","147","2.0.0","624139","673b439b4c9758dc0048ace1","3","8","null","","","","","","","","","<p style='font-size: 30px;'><strong>Okay</strong></p>","null","neutral_feedback","1","test","4","","","","","","","","","","","","","","","","","","","","","","",""
"","","","","","","","","","","","html-button-response","148","2.0.0","625665","673b439b4c9758dc0048ace1","3","8","1526","","","","","","","","","<img src= ""rock_img/I_Pumice_06.jpg"" style=""width:8cm; height:6.9399999999999995cm;""><p>What type of rock is this?</p>","7","class_response","1","test","5","Pumice","Pumice","06","true","8","8","","","","","","","","","","","","","","","","",""
"","","","","","","","","","","","html-keyboard-response","149","2.0.0","626166","673b439b4c9758dc0048ace1","3","8","null","","","","","","","","","<p style='font-size: 30px;'><strong>Okay</strong></p>","null","neutral_feedback","1","test","5","","","","","","","","","","","","","","","","","","","","","","",""
"","","","","","","","","","","","html-button-response","150","2.0.0","641147","673b439b4c9758dc0048ace1","3","8","14980","","","","","","","","","<img src= ""rock_img/I_Peridotite_16.jpg"" style=""width:8cm; height:6.989999999999999cm;""><p>What type of rock is this?</p>","6","class_response","1","test","6","Peridotite","Peridotite","16","true","7","7","","","","","","","","","","","","","","","","",""
"","","","","","","","","","","","html-keyboard-response","151","2.0.0","641651","673b439b4c9758dc0048ace1","3","8","null","","","","","","","","","<p style='font-size: 30px;'><strong>Okay</strong></p>","null","neutral_feedback","1","test","6","","","","","","","","","","","","","","","","","","","","","","",""
"","","","","","","","","","","","html-button-response","152","2.0.0","657727","673b439b4c9758dc0048ace1","3","8","16075","","","","","","","","","<img src= ""rock_img/I_Gabbro_03.jpg"" style=""width:8cm; height:8.52cm;""><p>What type of rock is this?</p>","1","class_response","1","test","7","Basalt","Gabbro","03","false","2","4","","","","","","","","","","","","","","","","",""
"","","","","","","","","","","","html-keyboard-response","153","2.0.0","658232","673b439b4c9758dc0048ace1","3","8","null","","","","","","","","","<p style='font-size: 30px;'><strong>Okay</strong></p>","null","neutral_feedback","1","test","7","","","","","","","","","","","","","","","","","","","","","","",""
"","","","","","","","","","","","html-button-response","154","2.0.0","659964","673b439b4c9758dc0048ace1","3","8","1730","","","","","","","","","<img src= ""rock_img/I_Pumice_03.jpg"" style=""width:8cm; height:6.64cm;""><p>What type of rock is this?</p>","7","class_response","1","test","8","Pumice","Pumice","03","true","8","8","","","","","","","","","","","","","","","","",""
"","","","","","","","","","","","html-keyboard-response","155","2.0.0","660466","673b439b4c9758dc0048ace1","3","8","null","","","","","","","","","<p style='font-size: 30px;'><strong>Okay</strong></p>","null","neutral_feedback","1","test","8","","","","","","","","","","","","","","","","","","","","","","",""
"","","","","","","","","","","","html-button-response","156","2.0.0","662315","673b439b4c9758dc0048ace1","3","8","1848","","","","","","","","","<img src= ""rock_img/I_Pumice_04.jpg"" style=""width:8cm; height:6.819999999999999cm;""><p>What type of rock is this?</p>","7","class_response","1","test","9","Pumice","Pumice","04","true","8","8","","","","","","","","","","","","","","","","",""
"","","","","","","","","","","","html-keyboard-response","157","2.0.0","662817","673b439b4c9758dc0048ace1","3","8","null","","","","","","","","","<p style='font-size: 30px;'><strong>Okay</strong></p>","null","neutral_feedback","1","test","9","","","","","","","","","","","","","","","","","","","","","","",""
"","","","","","","","","","","","html-button-response","158","2.0.0","671546","673b439b4c9758dc0048ace1","3","8","8728","","","","","","","","","<img src= ""rock_img/I_Diorite_06.jpg"" style=""width:8cm; height:6.03cm;""><p>What type of rock is this?</p>","5","class_response","1","test","10","Pegmatite","Diorite","06","false","6","3","","","","","","","","","","","","","","","","",""
"","","","","","","","","","","","html-keyboard-response","159","2.0.0","672053","673b439b4c9758dc0048ace1","3","8","null","","","","","","","","","<p style='font-size: 30px;'><strong>Okay</strong></p>","null","neutral_feedback","1","test","10","","","","","","","","","","","","","","","","","","","","","","",""
"","","","","","","","","","","","html-button-response","160","2.0.0","674027","673b439b4c9758dc0048ace1","3","8","1973","","","","","","","","","<img src= ""rock_img/I_Peridotite_12.jpg"" style=""width:8cm; height:4.54cm;""><p>What type of rock is this?</p>","7","class_response","1","test","11","Pumice","Peridotite","12","false","8","7","","","","","","","","","","","","","","","","",""
"","","","","","","","","","","","html-keyboard-response","161","2.0.0","674532","673b439b4c9758dc0048ace1","3","8","null","","","","","","","","","<p style='font-size: 30px;'><strong>Okay</strong></p>","null","neutral_feedback","1","test","11","","","","","","","","","","","","","","","","","","","","","","",""
"","","","","","","","","","","","html-button-response","162","2.0.0","688496","673b439b4c9758dc0048ace1","3","8","13964","","","","","","","","","<img src= ""rock_img/I_Andesite_04.jpg"" style=""width:8cm; height:5.96cm;""><p>What type of rock is this?</p>","6","class_response","1","test","12","Peridotite","Andesite","04","false","7","1","","","","","","","","","","","","","","","","",""
"","","","","","","","","","","","html-keyboard-response","163","2.0.0","688998","673b439b4c9758dc0048ace1","3","8","null","","","","","","","","","<p style='font-size: 30px;'><strong>Okay</strong></p>","null","neutral_feedback","1","test","12","","","","","","","","","","","","","","","","","","","","","","",""
"","","","","","","","","","","","html-button-response","164","2.0.0","691158","673b439b4c9758dc0048ace1","3","8","2159","","","","","","","","","<img src= ""rock_img/I_Pegmatite_16.jpg"" style=""width:8cm; height:5.8cm;""><p>What type of rock is this?</p>","7","class_response","1","test","13","Pumice","Pegmatite","16","false","8","6","","","","","","","","","","","","","","","","",""
"","","","","","","","","","","","html-keyboard-response","165","2.0.0","691663","673b439b4c9758dc0048ace1","3","8","null","","","","","","","","","<p style='font-size: 30px;'><strong>Okay</strong></p>","null","neutral_feedback","1","test","13","","","","","","","","","","","","","","","","","","","","","","",""
"","","","","","","","","","","","html-button-response","166","2.0.0","694999","673b439b4c9758dc0048ace1","3","8","3335","","","","","","","","","<img src= ""rock_img/I_Diorite_14.jpg"" style=""width:8cm; height:5.71cm;""><p>What type of rock is this?</p>","1","class_response","1","test","14","Basalt","Diorite","14","false","2","3","","","","","","","","","","","","","","","","",""
"","","","","","","","","","","","html-keyboard-response","167","2.0.0","695505","673b439b4c9758dc0048ace1","3","8","null","","","","","","","","","<p style='font-size: 30px;'><strong>Okay</strong></p>","null","neutral_feedback","1","test","14","","","","","","","","","","","","","","","","","","","","","","",""
"","","","","","","","","","","","html-button-response","168","2.0.0","706467","673b439b4c9758dc0048ace1","3","8","10961","","","","","","","","","<img src= ""rock_img/I_Peridotite_04.jpg"" style=""width:8cm; height:6.680000000000001cm;""><p>What type of rock is this?</p>","6","class_response","1","test","15","Peridotite","Peridotite","04","true","7","7","","","","","","","","","","","","","","","","",""
"","","","","","","","","","","","html-keyboard-response","169","2.0.0","706981","673b439b4c9758dc0048ace1","3","8","null","","","","","","","","","<p style='font-size: 30px;'><strong>Okay</strong></p>","null","neutral_feedback","1","test","15","","","","","","","","","","","","","","","","","","","","","","",""
"","","","","","","","","","","","html-button-response","170","2.0.0","709976","673b439b4c9758dc0048ace1","3","8","2994","","","","","","","","","<img src= ""rock_img/I_Basalt_02.jpg"" style=""width:8cm; height:6.45cm;""><p>What type of rock is this?</p>","1","class_response","1","test","16","Basalt","Basalt","02","true","2","2","","","","","","","","","","","","","","","","",""
"","","","","","","","","","","","html-keyboard-response","171","2.0.0","710477","673b439b4c9758dc0048ace1","3","8","null","","","","","","","","","<p style='font-size: 30px;'><strong>Okay</strong></p>","null","neutral_feedback","1","test","16","","","","","","","","","","","","","","","","","","","","","","",""
"","","","","","","","","","","","html-button-response","172","2.0.0","712545","673b439b4c9758dc0048ace1","3","8","2068","","","","","","","","","<img src= ""rock_img/I_Pumice_09.jpg"" style=""width:8cm; height:6.44cm;""><p>What type of rock is this?</p>","7","class_response","1","test","17","Pumice","Pumice","09","true","8","8","","","","","","","","","","","","","","","","",""
"","","","","","","","","","","","html-keyboard-response","173","2.0.0","713046","673b439b4c9758dc0048ace1","3","8","null","","","","","","","","","<p style='font-size: 30px;'><strong>Okay</strong></p>","null","neutral_feedback","1","test","17","","","","","","","","","","","","","","","","","","","","","","",""
"","","","","","","","","","","","html-button-response","174","2.0.0","721021","673b439b4c9758dc0048ace1","3","8","7975","","","","","","","","","<img src= ""rock_img/I_Obsidian_09.jpg"" style=""width:8cm; height:5cm;""><p>What type of rock is this?</p>","1","class_response","1","test","18","Basalt","Obsidian","09","false","2","5","","","","","","","","","","","","","","","","",""
"","","","","","","","","","","","html-keyboard-response","175","2.0.0","721524","673b439b4c9758dc0048ace1","3","8","null","","","","","","","","","<p style='font-size: 30px;'><strong>Okay</strong></p>","null","neutral_feedback","1","test","18","","","","","","","","","","","","","","","","","","","","","","",""
"","","","","","","","","","","","html-button-response","176","2.0.0","729671","673b439b4c9758dc0048ace1","3","8","8146","","","","","","","","","<img src= ""rock_img/I_Andesite_05.jpg"" style=""width:8cm; height:4.12cm;""><p>What type of rock is this?</p>","6","class_response","1","test","19","Peridotite","Andesite","05","false","7","1","","","","","","","","","","","","","","","","",""
"","","","","","","","","","","","html-keyboard-response","177","2.0.0","730181","673b439b4c9758dc0048ace1","3","8","null","","","","","","","","","<p style='font-size: 30px;'><strong>Okay</strong></p>","null","neutral_feedback","1","test","19","","","","","","","","","","","","","","","","","","","","","","",""
"","","","","","","","","","","","html-button-response","178","2.0.0","731734","673b439b4c9758dc0048ace1","3","8","1552","","","","","","","","","<img src= ""rock_img/I_Pumice_14.jpg"" style=""width:8cm; height:6.39cm;""><p>What type of rock is this?</p>","7","class_response","1","test","20","Pumice","Pumice","14","true","8","8","","","","","","","","","","","","","","","","",""
"","","","","","","","","","","","html-keyboard-response","179","2.0.0","732240","673b439b4c9758dc0048ace1","3","8","null","","","","","","","","","<p style='font-size: 30px;'><strong>Okay</strong></p>","null","neutral_feedback","1","test","20","","","","","","","","","","","","","","","","","","","","","","",""
"","","","","","","","","","","","html-button-response","180","2.0.0","743310","673b439b4c9758dc0048ace1","3","8","11069","","","","","","","","","<img src= ""rock_img/I_Basalt_14.jpg"" style=""width:8cm; height:5.82cm;""><p>What type of rock is this?</p>","1","class_response","1","test","21","Basalt","Basalt","14","true","2","2","","","","","","","","","","","","","","","","",""
"","","","","","","","","","","","html-keyboard-response","181","2.0.0","743811","673b439b4c9758dc0048ace1","3","8","null","","","","","","","","","<p style='font-size: 30px;'><strong>Okay</strong></p>","null","neutral_feedback","1","test","21","","","","","","","","","","","","","","","","","","","","","","",""
"","","","","","","","","","","","html-button-response","182","2.0.0","755467","673b439b4c9758dc0048ace1","3","8","11655","","","","","","","","","<img src= ""rock_img/I_Andesite_01.jpg"" style=""width:8cm; height:5.87cm;""><p>What type of rock is this?</p>","1","class_response","1","test","22","Basalt","Andesite","01","false","2","1","","","","","","","","","","","","","","","","",""
"","","","","","","","","","","","html-keyboard-response","183","2.0.0","755970","673b439b4c9758dc0048ace1","3","8","null","","","","","","","","","<p style='font-size: 30px;'><strong>Okay</strong></p>","null","neutral_feedback","1","test","22","","","","","","","","","","","","","","","","","","","","","","",""
"","","","","","","","","","","","html-button-response","184","2.0.0","763103","673b439b4c9758dc0048ace1","3","8","7132","","","","","","","","","<img src= ""rock_img/I_Basalt_05.jpg"" style=""width:8cm; height:8.18cm;""><p>What type of rock is this?</p>","1","class_response","1","test","23","Basalt","Basalt","05","true","2","2","","","","","","","","","","","","","","","","",""
"","","","","","","","","","","","html-keyboard-response","185","2.0.0","763604","673b439b4c9758dc0048ace1","3","8","null","","","","","","","","","<p style='font-size: 30px;'><strong>Okay</strong></p>","null","neutral_feedback","1","test","23","","","","","","","","","","","","","","","","","","","","","","",""
"","","","","","","","","","","","html-button-response","186","2.0.0","767896","673b439b4c9758dc0048ace1","3","8","4292","","","","","","","","","<img src= ""rock_img/I_Andesite_16.jpg"" style=""width:8cm; height:6.010000000000001cm;""><p>What type of rock is this?</p>","6","class_response","1","test","24","Peridotite","Andesite","16","false","7","1","","","","","","","","","","","","","","","","",""
"","","","","","","","","","","","html-keyboard-response","187","2.0.0","768407","673b439b4c9758dc0048ace1","3","8","null","","","","","","","","","<p style='font-size: 30px;'><strong>Okay</strong></p>","null","neutral_feedback","1","test","24","","","","","","","","","","","","","","","","","","","","","","",""
"","","","","","","","","","","","html-button-response","188","2.0.0","773136","673b439b4c9758dc0048ace1","3","8","4728","","","","","","","","","<img src= ""rock_img/I_Peridotite_10.jpg"" style=""width:8cm; height:5.390000000000001cm;""><p>What type of rock is this?</p>","6","class_response","1","test","25","Peridotite","Peridotite","10","true","7","7","","","","","","","","","","","","","","","","",""
"","","","","","","","","","","","html-keyboard-response","189","2.0.0","773651","673b439b4c9758dc0048ace1","3","8","null","","","","","","","","","<p style='font-size: 30px;'><strong>Okay</strong></p>","null","neutral_feedback","1","test","25","","","","","","","","","","","","","","","","","","","","","","",""
"","","","","","","","","","","","html-button-response","190","2.0.0","777021","673b439b4c9758dc0048ace1","3","8","3369","","","","","","","","","<img src= ""rock_img/I_Peridotite_14.jpg"" style=""width:8cm; height:5.3cm;""><p>What type of rock is this?</p>","6","class_response","1","test","26","Peridotite","Peridotite","14","true","7","7","","","","","","","","","","","","","","","","",""
"","","","","","","","","","","","html-keyboard-response","191","2.0.0","777522","673b439b4c9758dc0048ace1","3","8","null","","","","","","","","","<p style='font-size: 30px;'><strong>Okay</strong></p>","null","neutral_feedback","1","test","26","","","","","","","","","","","","","","","","","","","","","","",""
"","","","","","","","","","","","html-button-response","192","2.0.0","794101","673b439b4c9758dc0048ace1","3","8","16578","","","","","","","","","<img src= ""rock_img/I_Andesite_07.jpg"" style=""width:8cm; height:5.93cm;""><p>What type of rock is this?</p>","4","class_response","1","test","27","Obsidian","Andesite","07","false","5","1","","","","","","","","","","","","","","","","",""
"","","","","","","","","","","","html-keyboard-response","193","2.0.0","794603","673b439b4c9758dc0048ace1","3","8","null","","","","","","","","","<p style='font-size: 30px;'><strong>Okay</strong></p>","null","neutral_feedback","1","test","27","","","","","","","","","","","","","","","","","","","","","","",""
"","","","","","","","","","","","html-button-response","194","2.0.0","803051","673b439b4c9758dc0048ace1","3","8","8448","","","","","","","","","<img src= ""rock_img/I_Diorite_02.jpg"" style=""width:8cm; height:6.27cm;""><p>What type of rock is this?</p>","3","class_response","1","test","28","Gabbro","Diorite","02","false","4","3","","","","","","","","","","","","","","","","",""
"","","","","","","","","","","","html-keyboard-response","195","2.0.0","803552","673b439b4c9758dc0048ace1","3","8","null","","","","","","","","","<p style='font-size: 30px;'><strong>Okay</strong></p>","null","neutral_feedback","1","test","28","","","","","","","","","","","","","","","","","","","","","","",""
"","","","","","","","","","","","html-button-response","196","2.0.0","808298","673b439b4c9758dc0048ace1","3","8","4745","","","","","","","","","<img src= ""rock_img/I_Diorite_13.jpg"" style=""width:8cm; height:6.29cm;""><p>What type of rock is this?</p>","6","class_response","1","test","29","Peridotite","Diorite","13","false","7","3","","","","","","","","","","","","","","","","",""
"","","","","","","","","","","","html-keyboard-response","197","2.0.0","808808","673b439b4c9758dc0048ace1","3","8","null","","","","","","","","","<p style='font-size: 30px;'><strong>Okay</strong></p>","null","neutral_feedback","1","test","29","","","","","","","","","","","","","","","","","","","","","","",""
"","","","","","","","","","","","html-button-response","198","2.0.0","816547","673b439b4c9758dc0048ace1","3","8","7737","","","","","","","","","<img src= ""rock_img/I_Gabbro_14.jpg"" style=""width:8cm; height:8.48cm;""><p>What type of rock is this?</p>","1","class_response","1","test","30","Basalt","Gabbro","14","false","2","4","","","","","","","","","","","","","","","","",""
"","","","","","","","","","","","html-keyboard-response","199","2.0.0","817056","673b439b4c9758dc0048ace1","3","8","null","","","","","","","","","<p style='font-size: 30px;'><strong>Okay</strong></p>","null","neutral_feedback","1","test","30","","","","","","","","","","","","","","","","","","","","","","",""
"","","","","","","","","","","","html-button-response","200","2.0.0","825991","673b439b4c9758dc0048ace1","3","8","8934","","","","","","","","","<img src= ""rock_img/I_Obsidian_07.jpg"" style=""width:8cm; height:4.76cm;""><p>What type of rock is this?</p>","4","class_response","1","test","31","Obsidian","Obsidian","07","true","5","5","","","","","","","","","","","","","","","","",""
"","","","","","","","","","","","html-keyboard-response","201","2.0.0","826491","673b439b4c9758dc0048ace1","3","8","null","","","","","","","","","<p style='font-size: 30px;'><strong>Okay</strong></p>","null","neutral_feedback","1","test","31","","","","","","","","","","","","","","","","","","","","","","",""
"","","","","","","","","","","","html-button-response","202","2.0.0","834163","673b439b4c9758dc0048ace1","3","8","7671","","","","","","","","","<img src= ""rock_img/I_Pegmatite_10.jpg"" style=""width:8cm; height:4.16cm;""><p>What type of rock is this?</p>","5","class_response","1","test","32","Pegmatite","Pegmatite","10","true","6","6","","","","","","","","","","","","","","","","",""
"","","","","","","","","","","","html-keyboard-response","203","2.0.0","834670","673b439b4c9758dc0048ace1","3","8","null","","","","","","","","","<p style='font-size: 30px;'><strong>Okay</strong></p>","null","neutral_feedback","1","test","32","","","","","","","","","","","","","","","","","","","","","","",""
"","","","","","","","","","","","html-button-response","204","2.0.0","850199","673b439b4c9758dc0048ace1","3","8","15529","","","","","","","","","<img src= ""rock_img/I_Andesite_10.jpg"" style=""width:8cm; height:4.16cm;""><p>What type of rock is this?</p>","6","class_response","1","test","33","Peridotite","Andesite","10","false","7","1","","","","","","","","","","","","","","","","",""
"","","","","","","","","","","","html-keyboard-response","205","2.0.0","850704","673b439b4c9758dc0048ace1","3","8","null","","","","","","","","","<p style='font-size: 30px;'><strong>Okay</strong></p>","null","neutral_feedback","1","test","33","","","","","","","","","","","","","","","","","","","","","","",""
"","","","","","","","","","","","html-button-response","206","2.0.0","868549","673b439b4c9758dc0048ace1","3","8","17844","","","","","","","","","<img src= ""rock_img/I_Pegmatite_05.jpg"" style=""width:8cm; height:7.300000000000001cm;""><p>What type of rock is this?</p>","5","class_response","1","test","34","Pegmatite","Pegmatite","05","true","6","6","","","","","","","","","","","","","","","","",""
"","","","","","","","","","","","html-keyboard-response","207","2.0.0","869060","673b439b4c9758dc0048ace1","3","8","null","","","","","","","","","<p style='font-size: 30px;'><strong>Okay</strong></p>","null","neutral_feedback","1","test","34","","","","","","","","","","","","","","","","","","","","","","",""
"","","","","","","","","","","","html-button-response","208","2.0.0","879717","673b439b4c9758dc0048ace1","3","8","10656","","","","","","","","","<img src= ""rock_img/I_Obsidian_05.jpg"" style=""width:8cm; height:6.33cm;""><p>What type of rock is this?</p>","4","class_response","1","test","35","Obsidian","Obsidian","05","true","5","5","","","","","","","","","","","","","","","","",""
"","","","","","","","","","","","html-keyboard-response","209","2.0.0","880222","673b439b4c9758dc0048ace1","3","8","null","","","","","","","","","<p style='font-size: 30px;'><strong>Okay</strong></p>","null","neutral_feedback","1","test","35","","","","","","","","","","","","","","","","","","","","","","",""
"","","","","","","","","","","","html-button-response","210","2.0.0","887708","673b439b4c9758dc0048ace1","3","8","7485","","","","","","","","","<img src= ""rock_img/I_Obsidian_06.jpg"" style=""width:8cm; height:6.8cm;""><p>What type of rock is this?</p>","4","class_response","1","test","36","Obsidian","Obsidian","06","true","5","5","","","","","","","","","","","","","","","","",""
"","","","","","","","","","","","html-keyboard-response","211","2.0.0","888223","673b439b4c9758dc0048ace1","3","8","null","","","","","","","","","<p style='font-size: 30px;'><strong>Okay</strong></p>","null","neutral_feedback","1","test","36","","","","","","","","","","","","","","","","","","","","","","",""
"","","","","","","","","","","","html-button-response","212","2.0.0","893884","673b439b4c9758dc0048ace1","3","8","5660","","","","","","","","","<img src= ""rock_img/I_Basalt_04.jpg"" style=""width:8cm; height:7.53cm;""><p>What type of rock is this?</p>","1","class_response","1","test","37","Basalt","Basalt","04","true","2","2","","","","","","","","","","","","","","","","",""
"","","","","","","","","","","","html-keyboard-response","213","2.0.0","894388","673b439b4c9758dc0048ace1","3","8","null","","","","","","","","","<p style='font-size: 30px;'><strong>Okay</strong></p>","null","neutral_feedback","1","test","37","","","","","","","","","","","","","","","","","","","","","","",""
"","","","","","","","","","","","html-button-response","214","2.0.0","905127","673b439b4c9758dc0048ace1","3","8","10738","","","","","","","","","<img src= ""rock_img/I_Pegmatite_11.jpg"" style=""width:8cm; height:8.14cm;""><p>What type of rock is this?</p>","6","class_response","1","test","38","Peridotite","Pegmatite","11","false","7","6","","","","","","","","","","","","","","","","",""
"","","","","","","","","","","","html-keyboard-response","215","2.0.0","905634","673b439b4c9758dc0048ace1","3","8","null","","","","","","","","","<p style='font-size: 30px;'><strong>Okay</strong></p>","null","neutral_feedback","1","test","38","","","","","","","","","","","","","","","","","","","","","","",""
"","","","","","","","","","","","html-button-response","216","2.0.0","909247","673b439b4c9758dc0048ace1","3","8","3611","","","","","","","","","<img src= ""rock_img/I_Peridotite_13.jpg"" style=""width:8cm; height:7.58cm;""><p>What type of rock is this?</p>","6","class_response","1","test","39","Peridotite","Peridotite","13","true","7","7","","","","","","","","","","","","","","","","",""
"","","","","","","","","","","","html-keyboard-response","217","2.0.0","909749","673b439b4c9758dc0048ace1","3","8","null","","","","","","","","","<p style='font-size: 30px;'><strong>Okay</strong></p>","null","neutral_feedback","1","test","39","","","","","","","","","","","","","","","","","","","","","","",""
"","","","","","","","","","","","html-button-response","218","2.0.0","914509","673b439b4c9758dc0048ace1","3","8","4759","","","","","","","","","<img src= ""rock_img/I_Basalt_01.jpg"" style=""width:8cm; height:7.880000000000001cm;""><p>What type of rock is this?</p>","1","class_response","1","test","40","Basalt","Basalt","01","true","2","2","","","","","","","","","","","","","","","","",""
"","","","","","","","","","","","html-keyboard-response","219","2.0.0","915024","673b439b4c9758dc0048ace1","3","8","null","","","","","","","","","<p style='font-size: 30px;'><strong>Okay</strong></p>","null","neutral_feedback","1","test","40","","","","","","","","","","","","","","","","","","","","","","",""
"","","","","","","","","","","","html-button-response","220","2.0.0","929136","673b439b4c9758dc0048ace1","3","8","14111","","","","","","","","","<img src= ""rock_img/I_Gabbro_08.jpg"" style=""width:8cm; height:5.15cm;""><p>What type of rock is this?</p>","6","class_response","1","test","41","Peridotite","Gabbro","08","false","7","4","","","","","","","","","","","","","","","","",""
"","","","","","","","","","","","html-keyboard-response","221","2.0.0","929644","673b439b4c9758dc0048ace1","3","8","null","","","","","","","","","<p style='font-size: 30px;'><strong>Okay</strong></p>","null","neutral_feedback","1","test","41","","","","","","","","","","","","","","","","","","","","","","",""
"","","","","","","","","","","","html-button-response","222","2.0.0","949863","673b439b4c9758dc0048ace1","3","8","20218","","","","","","","","","<img src= ""rock_img/I_Gabbro_13.jpg"" style=""width:8cm; height:5.08cm;""><p>What type of rock is this?</p>","4","class_response","1","test","42","Obsidian","Gabbro","13","false","5","4","","","","","","","","","","","","","","","","",""
"","","","","","","","","","","","html-keyboard-response","223","2.0.0","950369","673b439b4c9758dc0048ace1","3","8","null","","","","","","","","","<p style='font-size: 30px;'><strong>Okay</strong></p>","null","neutral_feedback","1","test","42","","","","","","","","","","","","","","","","","","","","","","",""
"","","","","","","","","","","","html-button-response","224","2.0.0","969108","673b439b4c9758dc0048ace1","3","8","18737","","","","","","","","","<img src= ""rock_img/I_Diorite_16.jpg"" style=""width:8cm; height:6.74cm;""><p>What type of rock is this?</p>","5","class_response","1","test","43","Pegmatite","Diorite","16","false","6","3","","","","","","","","","","","","","","","","",""
"","","","","","","","","","","","html-keyboard-response","225","2.0.0","969610","673b439b4c9758dc0048ace1","3","8","null","","","","","","","","","<p style='font-size: 30px;'><strong>Okay</strong></p>","null","neutral_feedback","1","test","43","","","","","","","","","","","","","","","","","","","","","","",""
"","","","","","","","","","","","html-button-response","226","2.0.0","985752","673b439b4c9758dc0048ace1","3","8","16142","","","","","","","","","<img src= ""rock_img/I_Pegmatite_13.jpg"" style=""width:8cm; height:4.95cm;""><p>What type of rock is this?</p>","6","class_response","1","test","44","Peridotite","Pegmatite","13","false","7","6","","","","","","","","","","","","","","","","",""
"","","","","","","","","","","","html-keyboard-response","227","2.0.0","986259","673b439b4c9758dc0048ace1","3","8","null","","","","","","","","","<p style='font-size: 30px;'><strong>Okay</strong></p>","null","neutral_feedback","1","test","44","","","","","","","","","","","","","","","","","","","","","","",""
"","","","","","","","","","","","html-button-response","228","2.0.0","1014517","673b439b4c9758dc0048ace1","3","8","28256","","","","","","","","","<img src= ""rock_img/I_Obsidian_14.jpg"" style=""width:8cm; height:7.64cm;""><p>What type of rock is this?</p>","4","class_response","1","test","45","Obsidian","Obsidian","14","true","5","5","","","","","","","","","","","","","","","","",""
"","","","","","","","","","","","html-keyboard-response","229","2.0.0","1015026","673b439b4c9758dc0048ace1","3","8","null","","","","","","","","","<p style='font-size: 30px;'><strong>Okay</strong></p>","null","neutral_feedback","1","test","45","","","","","","","","","","","","","","","","","","","","","","",""
"","","","","","","","","","","","html-button-response","230","2.0.0","1018824","673b439b4c9758dc0048ace1","3","8","3797","","","","","","","","","<img src= ""rock_img/I_Pegmatite_06.jpg"" style=""width:8cm; height:5.17cm;""><p>What type of rock is this?</p>","6","class_response","1","test","46","Peridotite","Pegmatite","06","false","7","6","","","","","","","","","","","","","","","","",""
"","","","","","","","","","","","html-keyboard-response","231","2.0.0","1019331","673b439b4c9758dc0048ace1","3","8","null","","","","","","","","","<p style='font-size: 30px;'><strong>Okay</strong></p>","null","neutral_feedback","1","test","46","","","","","","","","","","","","","","","","","","","","","","",""
"","","","","","","","","","","","html-button-response","232","2.0.0","1028606","673b439b4c9758dc0048ace1","3","8","9275","","","","","","","","","<img src= ""rock_img/I_Diorite_11.jpg"" style=""width:8cm; height:7.11cm;""><p>What type of rock is this?</p>","6","class_response","1","test","47","Peridotite","Diorite","11","false","7","3","","","","","","","","","","","","","","","","",""
"","","","","","","","","","","","html-keyboard-response","233","2.0.0","1029111","673b439b4c9758dc0048ace1","3","8","null","","","","","","","","","<p style='font-size: 30px;'><strong>Okay</strong></p>","null","neutral_feedback","1","test","47","","","","","","","","","","","","","","","","","","","","","","",""
"","","","","","","","","","","","html-button-response","234","2.0.0","1034728","673b439b4c9758dc0048ace1","3","8","5616","","","","","","","","","<img src= ""rock_img/I_Gabbro_16.jpg"" style=""width:8cm; height:6.44cm;""><p>What type of rock is this?</p>","1","class_response","1","test","48","Basalt","Gabbro","16","false","2","4","","","","","","","","","","","","","","","","",""
"","","","","","","","","","","","html-keyboard-response","235","2.0.0","1035237","673b439b4c9758dc0048ace1","3","8","null","","","","","","","","","<p style='font-size: 30px;'><strong>Okay</strong></p>","null","neutral_feedback","1","test","48","","","","","","","","","","","","","","","","","","","","","","",""
"","","","","","","","","","","","html-button-response","236","2.0.0","1059451","673b439b4c9758dc0048ace1","3","8","","","","","","","","","","","","cycle_feedback","","","","","","","","","","","","","","","","","","","","","","19500.900000002235","4709.099999997765","","",""
"","","","","","","","","","","","html-button-response","238","2.0.0","1061394","673b439b4c9758dc0048ace1","3","8","1941","","","","","","","","","","0","start_train","","","","","","","","","","","","","","","","","","","","","","","","","",""
"","","","","","","","","","","","html-button-response","240","2.0.0","1067721","673b439b4c9758dc0048ace1","3","8","6326","","","","","","","","","<img src= ""rock_img/I_Gabbro_05.jpg"" style=""width:8cm; height:6cm;""><p>What type of rock is this?</p>","5","class_response","2","train","1","Pegmatite","Gabbro","05","false","6","4","","","","","","","","","","","","","","","","",""
"","","","","","","","","","","","html-button-response","241","2.0.0","1077084","673b439b4c9758dc0048ace1","3","8","9363","","","","","","","","","<img src= rock_img/I_Gabbro_05.jpg style=""width:8cm; height:6cm;""><p style='font-size: 30px; color: red;'><strong>Incorrect!</strong></p><p style='font-size: 30px;'><strong>This rock is gabbro</strong></p>","0","corr_feedback","2","train","1","","","","","","","","","","","","","","","","","","","","","","",""
"","","","","","","","","","","","html-button-response","242","2.0.0","1087071","673b439b4c9758dc0048ace1","3","8","9986","","","","","","","","","<img src= ""rock_img/I_Diorite_08.jpg"" style=""width:8cm; height:6.37cm;""><p>What type of rock is this?</p>","6","class_response","2","train","2","Peridotite","Diorite","08","false","7","3","","","","","","","","","","","","","","","","",""
"","","","","","","","","","","","html-button-response","243","2.0.0","1097699","673b439b4c9758dc0048ace1","3","8","10627","","","","","","","","","<img src= rock_img/I_Diorite_08.jpg style=""width:8cm; height:6.37cm;""><p style='font-size: 30px; color: red;'><strong>Incorrect!</strong></p><p style='font-size: 30px;'><strong>This rock is diorite</strong></p>","0","corr_feedback","2","train","2","","","","","","","","","","","","","","","","","","","","","","",""
"","","","","","","","","","","","html-button-response","244","2.0.0","1105333","673b439b4c9758dc0048ace1","3","8","7633","","","","","","","","","<img src= ""rock_img/I_Peridotite_15.jpg"" style=""width:8cm; height:6cm;""><p>What type of rock is this?</p>","3","class_response","2","train","3","Gabbro","Peridotite","15","false","4","7","","","","","","","","","","","","","","","","",""
"","","","","","","","","","","","html-button-response","245","2.0.0","1112733","673b439b4c9758dc0048ace1","3","8","7399","","","","","","","","","<img src= rock_img/I_Peridotite_15.jpg style=""width:8cm; height:6cm;""><p style='font-size: 30px; color: red;'><strong>Incorrect!</strong></p><p style='font-size: 30px;'><strong>This rock is peridotite</strong></p>","0","corr_feedback","2","train","3","","","","","","","","","","","","","","","","","","","","","","",""
"","","","","","","","","","","","html-button-response","246","2.0.0","1114910","673b439b4c9758dc0048ace1","3","8","2176","","","","","","","","","<img src= ""rock_img/I_Basalt_08.jpg"" style=""width:8cm; height:10.44cm;""><p>What type of rock is this?</p>","1","class_response","2","train","4","Basalt","Basalt","08","true","2","2","","","","","","","","","","","","","","","","",""
"","","","","","","","","","","","html-button-response","247","2.0.0","1116180","673b439b4c9758dc0048ace1","3","8","1269","","","","","","","","","<img src= rock_img/I_Basalt_08.jpg style=""width:8cm; height:10.44cm;""><p style='font-size: 30px; color: green;'><strong>Correct!</strong></p><p style='font-size: 30px;'><strong>This rock is basalt</strong></p>","0","corr_feedback","2","train","4","","","","","","","","","","","","","","","","","","","","","","",""
"","","","","","","","","","","","html-button-response","248","2.0.0","1123125","673b439b4c9758dc0048ace1","3","8","6944","","","","","","","","","<img src= ""rock_img/I_Pegmatite_07.jpg"" style=""width:8cm; height:6.7cm;""><p>What type of rock is this?</p>","2","class_response","2","train","5","Diorite","Pegmatite","07","false","3","6","","","","","","","","","","","","","","","","",""
"","","","","","","","","","","","html-button-response","249","2.0.0","1138507","673b439b4c9758dc0048ace1","3","8","15382","","","","","","","","","<img src= rock_img/I_Pegmatite_07.jpg style=""width:8cm; height:6.7cm;""><p style='font-size: 30px; color: red;'><strong>Incorrect!</strong></p><p style='font-size: 30px;'><strong>This rock is pegmatite</strong></p>","0","corr_feedback","2","train","5","","","","","","","","","","","","","","","","","","","","","","",""
"","","","","","","","","","","","html-button-response","250","2.0.0","1149121","673b439b4c9758dc0048ace1","3","8","10613","","","","","","","","","<img src= ""rock_img/I_Obsidian_16.jpg"" style=""width:8cm; height:9.3cm;""><p>What type of rock is this?</p>","4","class_response","2","train","6","Obsidian","Obsidian","16","true","5","5","","","","","","","","","","","","","","","","",""
"","","","","","","","","","","","html-button-response","251","2.0.0","1151568","673b439b4c9758dc0048ace1","3","8","2447","","","","","","","","","<img src= rock_img/I_Obsidian_16.jpg style=""width:8cm; height:9.3cm;""><p style='font-size: 30px; color: green;'><strong>Correct!</strong></p><p style='font-size: 30px;'><strong>This rock is obsidian</strong></p>","0","corr_feedback","2","train","6","","","","","","","","","","","","","","","","","","","","","","",""
"","","","","","","","","","","","html-button-response","252","2.0.0","1157088","673b439b4c9758dc0048ace1","3","8","5519","","","","","","","","","<img src= ""rock_img/I_Pumice_16.jpg"" style=""width:8cm; height:6.79cm;""><p>What type of rock is this?</p>","7","class_response","2","train","7","Pumice","Pumice","16","true","8","8","","","","","","","","","","","","","","","","",""
"","","","","","","","","","","","html-button-response","253","2.0.0","1158948","673b439b4c9758dc0048ace1","3","8","1859","","","","","","","","","<img src= rock_img/I_Pumice_16.jpg style=""width:8cm; height:6.79cm;""><p style='font-size: 30px; color: green;'><strong>Correct!</strong></p><p style='font-size: 30px;'><strong>This rock is pumice</strong></p>","0","corr_feedback","2","train","7","","","","","","","","","","","","","","","","","","","","","","",""
"","","","","","","","","","","","html-button-response","254","2.0.0","1163308","673b439b4c9758dc0048ace1","3","8","4360","","","","","","","","","<img src= ""rock_img/I_Peridotite_05.jpg"" style=""width:8cm; height:7.1499999999999995cm;""><p>What type of rock is this?</p>","6","class_response","2","train","8","Peridotite","Peridotite","05","true","7","7","","","","","","","","","","","","","","","","",""
"","","","","","","","","","","","html-button-response","255","2.0.0","1164579","673b439b4c9758dc0048ace1","3","8","1270","","","","","","","","","<img src= rock_img/I_Peridotite_05.jpg style=""width:8cm; height:7.1499999999999995cm;""><p style='font-size: 30px; color: green;'><strong>Correct!</strong></p><p style='font-size: 30px;'><strong>This rock is peridotite</strong></p>","0","corr_feedback","2","train","8","","","","","","","","","","","","","","","","","","","","","","",""
"","","","","","","","","","","","html-button-response","256","2.0.0","1168835","673b439b4c9758dc0048ace1","3","8","4255","","","","","","","","","<img src= ""rock_img/I_Andesite_02.jpg"" style=""width:8cm; height:8.5cm;""><p>What type of rock is this?</p>","7","class_response","2","train","9","Pumice","Andesite","02","false","8","1","","","","","","","","","","","","","","","","",""
"","","","","","","","","","","","html-button-response","257","2.0.0","1177149","673b439b4c9758dc0048ace1","3","8","8314","","","","","","","","","<img src= rock_img/I_Andesite_02.jpg style=""width:8cm; height:8.5cm;""><p style='font-size: 30px; color: red;'><strong>Incorrect!</strong></p><p style='font-size: 30px;'><strong>This rock is andesite</strong></p>","0","corr_feedback","2","train","9","","","","","","","","","","","","","","","","","","","","","","",""
"","","","","","","","","","","","html-button-response","258","2.0.0","1191142","673b439b4c9758dc0048ace1","3","8","13992","","","","","","","","","<img src= ""rock_img/I_Diorite_09.jpg"" style=""width:8cm; height:5.27cm;""><p>What type of rock is this?</p>","2","class_response","2","train","10","Diorite","Diorite","09","true","3","3","","","","","","","","","","","","","","","","",""
"","","","","","","","","","","","html-button-response","259","2.0.0","1192532","673b439b4c9758dc0048ace1","3","8","1389","","","","","","","","","<img src= rock_img/I_Diorite_09.jpg style=""width:8cm; height:5.27cm;""><p style='font-size: 30px; color: green;'><strong>Correct!</strong></p><p style='font-size: 30px;'><strong>This rock is diorite</strong></p>","0","corr_feedback","2","train","10","","","","","","","","","","","","","","","","","","","","","","",""
"","","","","","","","","","","","html-button-response","260","2.0.0","1201990","673b439b4c9758dc0048ace1","3","8","9456","","","","","","","","","<img src= ""rock_img/I_Andesite_11.jpg"" style=""width:8cm; height:4.92cm;""><p>What type of rock is this?</p>","1","class_response","2","train","11","Basalt","Andesite","11","false","2","1","","","","","","","","","","","","","","","","",""
"","","","","","","","","","","","html-button-response","261","2.0.0","1209473","673b439b4c9758dc0048ace1","3","8","7483","","","","","","","","","<img src= rock_img/I_Andesite_11.jpg style=""width:8cm; height:4.92cm;""><p style='font-size: 30px; color: red;'><strong>Incorrect!</strong></p><p style='font-size: 30px;'><strong>This rock is andesite</strong></p>","0","corr_feedback","2","train","11","","","","","","","","","","","","","","","","","","","","","","",""
"","","","","","","","","","","","html-button-response","262","2.0.0","1232083","673b439b4c9758dc0048ace1","3","8","22609","","","","","","","","","<img src= ""rock_img/I_Gabbro_10.jpg"" style=""width:8cm; height:5.680000000000001cm;""><p>What type of rock is this?</p>","1","class_response","2","train","12","Basalt","Gabbro","10","false","2","4","","","","","","","","","","","","","","","","",""
"","","","","","","","","","","","html-button-response","263","2.0.0","1233707","673b439b4c9758dc0048ace1","3","8","1624","","","","","","","","","<img src= rock_img/I_Gabbro_10.jpg style=""width:8cm; height:5.680000000000001cm;""><p style='font-size: 30px; color: red;'><strong>Incorrect!</strong></p><p style='font-size: 30px;'><strong>This rock is gabbro</strong></p>","0","corr_feedback","2","train","12","","","","","","","","","","","","","","","","","","","","","","",""
"","","","","","","","","","","","html-button-response","265","2.0.0","1235340","673b439b4c9758dc0048ace1","3","8","1632","","","","","","","","","","0","start_train","","","","","","","","","","","","","","","","","","","","","","","","","",""
"","","","","","","","","","","","html-button-response","266","2.0.0","1239824","673b439b4c9758dc0048ace1","3","8","","","","","","","","","","","","cat_selection","2","train","1","","","","","","","6","7","4482.70000000298","Pegmatite","Peridotite","[0.1691963124073471,0.08656116482215707,0.1691963124073471,0.1691963124073471,0.09658531493821629,0.1461664034893303,0.09658531493821629,0.0665128645900386]","[0.07633017815951623,0.1265479465953359,0.03213328874020621,0.030663711712497117,0.028108402403122356,null,0.5076694440526477,0.19854702833667454]","","","","","","","","","",""
"","","","","","","","","","","","paired-cat-display","267","1.0.0","1287931","673b439b4c9758dc0048ace1","3","8","","","","","","","","","","","","paired_cat_display","2","train","1","","","","","","","","","12584.599999997765","","","","","","","35519.300000000745","angles
gold brown","rounded edges
not shrp
rough","","","","",""
"","","","","","","","","","","","html-button-response","268","2.0.0","1291691","673b439b4c9758dc0048ace1","3","8","","","","","","","","","","","","cat_selection","2","train","2","","","","","","","1","7","3758.400000002235","Andesite","Peridotite","[0.1691963124073471,0.08656116482215707,0.1691963124073471,0.1691963124073471,0.09658531493821629,0.1461664034893303,0.09658531493821629,0.0665128645900386]","[null,0.17297656486481264,0.021795632220000808,0.02688770912803639,0.29812127913968994,0.02209942089917338,0.427634440895445,0.030484952852841835]","","","","","","","","","",""
"","","","","","","","","","","","paired-cat-display","269","1.0.0","1332943","673b439b4c9758dc0048ace1","3","8","","","","","","","","","","","","paired_cat_display","2","train","2","","","","","","","","","6840","","","","","","","34410.70000000298","","rounded edges
rough and course
","","","more gray in color
angled pieces","",""
"","","","","","","","","","","","html-button-response","270","2.0.0","1334620","673b439b4c9758dc0048ace1","3","8","","","","","","","","","","","","cat_selection","2","train","3","","","","","","","2","5","1676.6000000014901","Basalt","Obsidian","[0.1691963124073471,0.08656116482215707,0.1691963124073471,0.1691963124073471,0.09658531493821629,0.1461664034893303,0.09658531493821629,0.0665128645900386]","[0.028180768012298473,null,0.08388359326727252,0.02737417180785758,0.09079727501962306,0.20638119406686126,0.5350318927271366,0.02835110509895059]","","","","","","","","","",""
"","","","","","","","","","","","paired-cat-display","271","1.0.0","1363273","673b439b4c9758dc0048ace1","3","8","","","","","","","","","","","","paired_cat_display","2","train","3","","","","","","","","","6069.39999999851","","","","","rough
solid color","smooth
colors within","22581.199999999255","","","","","","",""
"","","","","","","","","","","","html-button-response","273","2.0.0","1364800","673b439b4c9758dc0048ace1","3","8","1527","","","","","","","","","","0","start_test","","","","","","","","","","","","","","","","","","","","","","","","","",""
"","","","","","","","","","","","html-button-response","274","2.0.0","1383822","673b439b4c9758dc0048ace1","3","8","19021","","","","","","","","","<img src= ""rock_img/I_Pegmatite_10.jpg"" style=""width:8cm; height:4.16cm;""><p>What type of rock is this?</p>","5","class_response","2","test","1","Pegmatite","Pegmatite","10","true","6","6","","","","","","","","","","","","","","","","",""
"","","","","","","","","","","","html-keyboard-response","275","2.0.0","1384323","673b439b4c9758dc0048ace1","3","8","null","","","","","","","","","<p style='font-size: 30px;'><strong>Okay</strong></p>","null","neutral_feedback","2","test","1","","","","","","","","","","","","","","","","","","","","","","",""
"","","","","","","","","","","","html-button-response","276","2.0.0","1397361","673b439b4c9758dc0048ace1","3","8","13038","","","","","","","","","<img src= ""rock_img/I_Gabbro_01.jpg"" style=""width:8cm; height:5.21cm;""><p>What type of rock is this?</p>","0","class_response","2","test","2","Andesite","Gabbro","01","false","1","4","","","","","","","","","","","","","","","","",""
